TIMECODE,ACC_X,ACC_Y,ACC_Z,GYR_X,GYR_Y,GYR_Z,ECG_I,ECG_II,ECG_III,TAG
,0.853,0.429,0.198,3.418,5.676,-19.349,0,0,0,
,0.85,0.434,0.206,-0.977,7.629,-20.386,0,0,0,
,0.846,0.429,0.213,6.897,7.08,-20.752,0,0,0,
,0.843,0.425,0.213,8.483,6.713,-19.471,0,0,0,
,0.836,0.424,0.214,7.324,7.263,-19.837,0,0,0,
,0.84,0.43,0.213,5.31,9.704,-21.79,0,0,0,
,0.842,0.437,0.208,5.127,7.751,-21.424,0,0,0,
,0.844,0.436,0.205,5.004,7.141,-19.837,0,0,0,
,0.852,0.436,0.197,7.385,8.056,-19.959,0,0,0,
,0.852,0.43,0.201,5.432,6.713,-18.616,0,0,0,
,0.85,0.428,0.205,5.371,6.286,-19.043,0,0,0,
,0.846,0.427,0.211,2.746,6.286,-17.579,0,0,0,
,0.848,0.427,0.21,0,6.53,-18.006,0,0,0,
,0.847,0.431,0.21,-3.907,4.455,-19.898,0,0,0,
,0.845,0.435,0.21,-5.555,1.831,-18.86,0,0,0,
,0.846,0.44,0.205,-7.081,2.685,-17.64,0,0,0,
,0.846,0.444,0.207,-6.165,2.807,-18.86,0,0,0,
,0.847,0.443,0.202,-3.54,2.624,-16.663,0,0,0,
,0.845,0.442,0.206,-0.306,2.99,-15.686,0,0,0,
,0.842,0.44,0.212,2.197,4.516,-15.931,0,0,0,
,0.844,0.435,0.209,5.798,4.577,-15.992,0,0,0,
,0.874,0.427,0.215,5.981,4.577,-16.358,0,0,0,
,0.847,0.43,0.203,6.042,5.371,-16.541,0,0,0,
,0.848,0.432,0.207,3.173,5.859,-19.471,0,0,0,
,0.842,0.433,0.211,2.38,5.127,-20.142,0,0,0,
,0.841,0.436,0.216,2.99,5.065,-16.907,0,0,0,
,0.849,0.435,0.204,2.197,4.943,-17.273,0,0,0,
,0.854,0.438,0.207,-3.296,3.845,-20.203,0,0,0,
,0.849,0.447,0.206,-8.851,3.845,-22.706,0,0,0,
,0.843,0.458,0.212,-7.63,5.554,-22.644,0,0,0,
,0.836,0.456,0.214,2.563,7.019,-20.142,0,0,0,
,0.829,0.448,0.216,12.634,9.155,-19.349,0,0,0,
,0.828,0.443,0.219,16.54,10.315,-19.715,0,0,0,
,0.833,0.444,0.213,22.644,11.84,-19.959,0,0,0,
,0.841,0.443,0.213,26.001,13.244,-20.691,0,0,0,
,0.841,0.439,0.206,30.212,12.817,-20.691,0,0,0,
,0.849,0.435,0.205,34.057,14.343,-18.555,0,0,0,
,0.854,0.43,0.205,36.254,14.282,-19.532,0,0,0,
,0.858,0.426,0.207,30.456,14.526,-20.569,0,0,0,
,0.854,0.429,0.208,24.108,14.221,-22.706,0,0,0,
,0.851,0.432,0.214,20.019,13.427,-22.95,0,0,0,
,0.846,0.434,0.214,0.122,12.878,-21.851,0,0,0,
,0.838,0.437,0.215,15.441,12.329,-20.203,0,0,0,
,0.836,0.439,0.214,15.991,9.704,-18.372,0,0,0,
,0.836,0.441,0.213,15.197,10.07,-19.776,0,0,0,
,0.838,0.439,0.208,17.089,10.192,-19.349,0,0,0,
,0.839,0.444,0.202,21.545,12.939,-19.837,0,0,0,
,0.841,0.44,0.204,26.367,14.465,-21.302,0,0,0,
,0.846,0.435,0.214,31.311,15.258,-21.668,0,0,0,
,0.845,0.432,0.218,32.836,14.709,-22.4,0,0,0,
,0.846,0.425,0.219,34.484,17.517,-23.072,0,0,0,
,0.852,0.424,0.207,32.592,14.831,-22.889,0,0,0,
,0.853,0.422,0.212,26.489,14.709,-25.33,0,0,0,
,0.848,0.431,0.209,19.104,9.887,-19.349,0,0,0,
,0.854,0.431,0.209,12.634,10.131,-20.325,0,0,0,
,0.854,0.435,0.207,2.685,6.897,-19.349,0,0,0,
,0.846,0.441,0.209,-0.977,6.042,-20.997,0,0,0,
,0.839,0.438,0.213,0.976,4.821,-18.616,0,0,0,
,0.833,0.434,0.216,4.516,6.408,-16.358,0,0,0,
,0.832,0.431,0.217,8.728,9.643,-15.259,0,0,0,
,0.836,0.429,0.213,6.897,10.864,-17.518,0,0,0,
,0.84,0.433,0.214,9.033,10.376,-19.654,0,0,0,
,0.842,0.438,0.21,11.474,12.268,-21.119,0,0,0,
,0.85,0.441,0.207,30.944,10.559,-19.104,0,0,0,
,0.851,0.437,0.207,17.456,13.305,-19.471,0,0,0,
,0.853,0.437,0.21,14.16,11.291,-21.302,0,0,0,
,0.851,0.436,0.213,12.512,12.085,-22.278,0,0,0,
,0.842,0.436,0.218,13.61,11.962,-19.41,0,0,0,
,0.84,0.435,0.211,14.343,9.521,-19.593,0,0,0,
,0.837,0.435,0.218,12.207,11.352,-17.395,0,0,0,
,0.84,0.437,0.213,12.207,9.826,-18.921,0,0,0,
,0.842,0.439,0.209,7.019,8.667,-19.349,0,0,0,
,0.843,0.442,0.205,7.873,9.521,-20.203,0,0,0,
,0.844,0.443,0.206,11.962,9.765,-20.081,0,0,0,
,0.844,0.436,0.209,14.282,9.582,-19.654,0,0,0,
,0.848,0.433,0.215,16.052,11.535,-18.982,0,0,0,
,0.844,0.431,0.213,15.197,9.46,-22.034,0,0,0,
,0.845,0.433,0.208,14.038,10.803,-23.133,0,0,0,
,0.85,0.434,0.209,13.61,10.376,-23.072,0,0,0,
,0.845,0.434,0.213,15.014,12.085,-23.438,0,0,0,
,0.842,0.437,0.215,16.479,11.291,-21.729,0,0,0,
,0.843,0.436,0.211,15.564,10.986,-20.569,0,0,0,
,0.848,0.434,0.207,14.892,11.23,-22.217,0,0,0,
,0.849,0.433,0.21,9.948,9.887,-24.72,0,0,0,
,0.838,0.433,0.215,11.474,8.728,-21.18,0,0,0,
,0.838,0.429,0.215,13.244,8.728,-19.593,0,0,0,
,0.837,0.43,0.21,14.892,8.422,-18.738,0,0,0,
,0.846,0.431,0.211,9.277,9.582,-20.569,0,0,0,
,0.844,0.436,0.206,7.995,8.483,-24.781,0,0,0,
,0.852,0.434,0.213,12.878,9.765,-24.659,0,0,0,
,0.844,0.434,0.214,11.291,9.277,-23.56,0,0,0,
,0.844,0.431,0.216,10.498,8.789,-20.935,0,0,0,
,0.839,0.432,0.216,11.718,8.056,-22.706,0,0,0,
,0.839,0.43,0.217,10.681,9.887,-23.072,0,0,0,
,0.847,0.442,0.209,10.437,10.253,-25.208,0,0,0,
,0.848,0.442,0.211,11.352,10.192,-23.865,0,0,0,
,0.846,0.434,0.214,12.39,9.643,-24.17,0,0,0,
,0.845,0.431,0.215,12.573,6.652,-23.316,0,0,0,
,0.841,0.427,0.215,12.146,8.056,-21.973,0,0,0,
,0.841,0.425,0.214,10.986,8.239,-22.583,0,0,0,
,0.844,0.43,0.209,8.178,10.131,-23.316,0,0,0,
,0.845,0.431,0.21,5.432,8.544,-24.964,0,0,0,
,0.841,0.435,0.209,8.667,8.667,-24.72,0,0,0,
,0.846,0.432,0.207,9.948,7.141,-20.935,0,0,0,
,0.854,0.427,0.206,7.263,6.897,-21.668,0,0,0,
,0.853,0.429,0.206,-1.404,7.141,-25.208,0,0,0,
,0.854,0.432,0.211,-3.418,7.019,-26.978,0,0,0,
,0.842,0.432,0.22,15.319,7.263,-24.598,0,0,0,
,0.837,0.427,0.223,4.333,8.361,-22.278,0,0,0,
,0.835,0.424,0.218,5.554,6.958,-22.461,0,0,0,
,0.835,0.422,0.215,3.479,8.789,-21.851,0,0,0,
,0.844,0.43,0.213,-2.503,6.774,-25.208,0,0,0,
,0.846,0.437,0.211,-1.709,6.225,-26.49,0,0,0,
,0.848,0.438,0.207,-0.977,6.042,-24.414,0,0,0,
,0.852,0.435,0.21,4.577,5.615,-23.072,0,0,0,
,0.853,0.431,0.205,5.188,6.164,-21.973,0,0,0,
,0.851,0.429,0.214,2.197,5.798,-23.987,0,0,0,
,0.848,0.427,0.218,-0.123,6.958,-23.682,0,0,0,
,0.846,0.427,0.22,-1.099,5.188,-22.461,0,0,0,
,0.846,0.431,0.216,-1.099,5.432,-23.011,0,0,0,
,0.846,0.431,0.213,-4.09,1.892,-22.522,0,0,0,
,0.847,0.433,0.21,-0.367,3.723,-23.56,0,0,0,
,0.848,0.438,0.207,-0.123,3.662,-22.583,0,0,0,
,0.847,0.441,0.209,-0.367,4.516,-23.987,0,0,0,
,0.843,0.438,0.211,1.159,4.821,-22.706,0,0,0,
,0.847,0.434,0.215,4.638,6.225,-22.644,0,0,0,
,0.847,0.433,0.211,7.812,3.906,-23.743,0,0,0,
,0.842,0.425,0.214,7.263,6.042,-24.292,0,0,0,
,0.847,0.428,0.211,7.812,7.69,-23.377,0,0,0,
,0.845,0.423,0.217,4.516,8.606,-24.903,0,0,0,
,0.842,0.428,0.212,4.272,8.422,-25.391,0,0,0,
,0.845,0.429,0.212,7.69,7.934,-23.743,0,0,0,
,0.854,0.428,0.204,4.821,6.897,-23.316,0,0,0,
,0.855,0.432,0.202,0.305,5.859,-24.17,0,0,0,
,0.849,0.438,0.206,-2.808,5.981,-24.476,0,0,0,
,0.847,0.438,0.208,0.671,6.652,-24.353,0,0,0,
,0.842,0.431,0.218,4.638,6.53,-20.386,0,0,0,
,0.839,0.43,0.222,4.516,6.958,-20.386,0,0,0,
,0.846,0.435,0.209,3.662,5.981,-20.752,0,0,0,
,0.847,0.436,0.206,2.746,5.127,-18.86,0,0,0,
,0.853,0.437,0.204,5.249,5.554,-19.776,0,0,0,
,0.853,0.431,0.206,5.737,5.737,-19.959,0,0,0,
,0.851,0.429,0.208,5.615,4.516,-19.165,0,0,0,
,0.849,0.431,0.21,4.638,6.836,-17.762,0,0,0,
,0.847,0.425,0.217,4.943,5.554,-17.701,0,0,0,
,0.844,0.425,0.215,3.845,2.563,-16.907,0,0,0,
,0.843,0.424,0.215,0,2.929,-18.677,0,0,0,
,0.843,0.43,0.21,-1.16,4.638,-19.898,0,0,0,
,0.847,0.435,0.205,1.159,5.065,-19.898,0,0,0,
,0.849,0.437,0.21,3.418,5.371,-19.715,0,0,0,
,0.848,0.436,0.21,6.652,5.92,-19.288,0,0,0,
,0.85,0.431,0.214,9.521,7.995,-18.982,0,0,0,
,0.847,0.429,0.214,12.023,6.469,-20.142,0,0,0,
,0.851,0.424,0.214,13.61,8.422,-20.691,0,0,0,
,0.853,0.425,0.21,11.108,6.774,-22.156,0,0,0,
,0.851,0.424,0.211,11.413,7.08,-23.56,0,0,0,
,0.844,0.431,0.209,7.446,9.094,-24.353,0,0,0,
,0.846,0.431,0.211,11.108,10.253,-23.255,0,0,0,
,0.85,0.428,0.215,12.634,8.178,-23.072,0,0,0,
,0.856,0.432,0.211,5.859,8.117,-24.598,0,0,0,
,0.854,0.438,0.209,4.943,8.239,-26.307,0,0,0,
,0.845,0.438,0.213,9.399,10.742,-26.673,0,0,0,
,0.843,0.433,0.248,17.028,10.437,-22.461,0,0,0,
,0.839,0.421,0.221,15.686,12.573,-22.95,0,0,0,
,0.841,0.426,0.214,14.892,11.657,-25.696,0,0,0,
,0.846,0.428,0.208,13.916,10.864,-24.842,0,0,0,
,0.845,0.433,0.208,14.831,13,-23.011,0,0,0,
,0.849,0.429,0.206,14.892,12.573,-23.682,0,0,0,
,0.854,0.425,0.209,16.174,13.549,-22.95,0,0,0,
,0.849,0.424,0.21,13.855,11.596,-23.804,0,0,0,
,0.847,0.423,0.213,11.962,12.329,-22.095,0,0,0,
,0.847,0.423,0.216,8.85,10.986,-21.912,0,0,0,
,0.847,0.424,0.218,5.249,11.23,-22.339,0,0,0,
,0.848,0.428,0.215,2.929,9.277,-21.363,0,0,0,
,0.848,0.435,0.208,6.591,9.033,-19.837,0,0,0,
,0.848,0.432,0.209,8.85,8.178,-19.165,0,0,0,
,0.844,0.429,0.212,9.216,7.751,-18.311,0,0,0,
,0.849,0.427,0.208,10.925,8.056,-17.395,0,0,0,
,0.85,0.423,0.217,5.31,6.713,-20.63,0,0,0,
,0.851,0.423,0.209,4.394,5.859,-21.18,0,0,0,
,0.85,0.426,0.209,-0.306,6.042,-21.851,0,0,0,
,0.847,0.431,0.213,-0.245,6.408,-21.729,0,0,0,
,0.845,0.432,0.211,1.281,4.089,-19.654,0,0,0,
,0.851,0.433,0.21,-0.184,3.173,-19.776,0,0,0,
,0.853,0.433,0.206,-5.127,3.051,-19.837,0,0,0,
,0.85,0.438,0.203,-5.921,2.014,-21.363,0,0,0,
,0.851,0.441,0.212,-3.357,3.601,-22.034,0,0,0,
,0.843,0.436,0.213,-0.55,1.464,-20.508,0,0,0,
,0.838,0.43,0.214,1.586,2.258,-18.494,0,0,0,
,0.841,0.43,0.213,-0.611,2.807,-19.043,0,0,0,
,0.841,0.431,0.212,-4.334,2.99,-18.982,0,0,0,
,0.843,0.439,0.205,-5.372,2.441,-20.63,0,0,0,
,0.851,0.438,0.205,-2.747,3.54,-19.471,0,0,0,
,0.851,0.435,0.208,-0.061,2.014,-19.043,0,0,0,
,0.853,0.435,0.213,0.122,3.112,-20.386,0,0,0,
,0.848,0.431,0.218,1.953,2.197,-20.203,0,0,0,
,0.84,0.429,0.214,2.441,2.014,-21.729,0,0,0,
,0.841,0.436,0.215,2.685,5.065,-23.377,0,0,0,
,0.841,0.44,0.207,6.591,6.347,-22.4,0,0,0,
,0.846,0.44,0.207,11.901,5.798,-21.668,0,0,0,
,0.849,0.441,0.204,11.169,8.178,-23.133,0,0,0,
,0.848,0.439,0.213,13.977,10.376,-24.659,0,0,0,
,0.846,0.435,0.214,17.7,10.986,-24.292,0,0,0,
,0.844,0.434,0.189,17.883,11.047,-23.621,0,0,0,
,0.843,0.429,0.218,23.498,13.122,-23.743,0,0,0,
,0.845,0.428,0.216,27.282,13.427,-25.513,0,0,0,
,0.849,0.432,0.212,24.841,13.427,-26.49,0,0,0,
,0.842,0.437,0.212,24.292,15.014,-27.466,0,0,0,
,0.843,0.438,0.213,29.968,14.526,-26.062,0,0,0,
,0.846,0.436,0.211,31.433,16.296,-25.147,0,0,0,
,0.853,0.435,0.214,31.005,19.409,-25.94,0,0,0,
,0.859,0.444,0.221,32.531,23.742,-33.509,0,0,0,
,0.841,0.464,0.231,45.837,32.836,-37.964,0,0,0,
,0.791,0.546,0.3,335.937,118.347,-34.424,0,0,0,
,0.818,0.566,0.307,515.747,162.841,-25.269,0,0,0,
,0.812,0.564,0.339,698.913,204.162,-18.128,0,0,0,
,0.808,0.558,0.379,856.506,247.009,-5.677,0,0,0,
,0.805,0.588,0.419,979.858,281.982,19.592,0,0,0,
,0.889,0.746,0.485,1166.32,376.953,103.576,0,0,0,
,0.912,0.988,0.548,1573.913,415.466,123.84,0,0,0,
,0.983,0.995,0.554,1998.169,387.146,186.035,0,0,0,
,1.002,0.866,0.524,1999.694,316.833,317.688,0,0,0,
,1.031,0.853,0.586,1999.694,218.017,486.45,0,0,0,
,1.231,1.272,0.913,939.697,-287.293,1043.884,0,0,0,
,1.435,1.738,0.823,660.217,-461.731,1360.595,0,0,0,
,1.77,1.88,0.697,311.584,-677.674,1763.794,0,0,0,
,2.111,1.95,0.64,-41.687,-845.643,1999.694,0,0,0,
,2.317,1.769,0.457,-336.792,-1008.057,1999.694,0,0,0,
,2.257,1.475,0.372,-464.539,-1159.485,1999.694,0,0,0,
,1.786,0.966,0.369,-553.223,-1349.793,1999.694,0,0,0,
,1.236,0.459,0.284,-576.416,-1381.897,1999.694,0,0,0,
,0.786,0.332,0.296,-568.726,-1350.525,1999.694,0,0,0,
,0.767,0.254,0.359,-579.712,-1307.251,1999.694,0,0,0,
,0.865,0.599,0.339,-874.207,-1230.774,1999.694,0,0,0,
,1.114,0.997,0.377,-189.148,-1213.99,1999.694,0,0,0,
,1.482,-0.907,-0.172,1592.102,-1403.138,1999.694,0,0,0,
,1.025,-1.922,-0.562,1321.533,-1411.316,1655.09,0,0,0,
,0.242,-2.063,-0.624,783.203,-1010.865,976.318,0,0,0,
,0.111,-1.506,-0.521,356.689,-507.142,274.963,0,0,0,
,0.472,-1.233,-0.598,-99.61,-122.132,-514.466,0,0,0,
,0.483,-1.199,-0.698,-512.207,242.92,-1257.996,0,0,0,
,0.603,-1.318,-0.746,-865.967,572.204,-1925.782,0,0,0,
,0.775,-1.089,-0.724,-886.353,841.491,-2000,0,0,0,
,0.975,-0.66,-0.523,-393.433,1088.317,-2000,0,0,0,
,1.072,-0.305,-0.272,165.039,1332.885,-2000,0,0,0,
,0.955,0.162,0.101,827.819,1627.746,-2000,0,0,0,
,0.755,0.821,0.527,1222.595,1999.694,-2000,0,0,0,
,1.152,1.506,0.886,1782.959,1999.694,-2000,0,0,0,
,1.138,1.475,0.621,1999.694,1999.694,-2000,0,0,0,
,1.607,1.102,0.537,1999.694,1999.694,-2000,0,0,0,
,2.549,0.186,0.605,1999.694,1999.694,-2000,0,0,0,
,3.227,0.069,1.502,1339.538,1999.694,-2000,0,0,0,
,2.833,1.074,2.261,-289.917,1608.886,-1804.871,0,0,0,
,1.547,1.665,1.577,-1368.592,204.345,-874.268,0,0,0,
,1.27,1.132,1.374,-865.235,48.461,-456.055,0,0,0,
,1.037,0.623,1.092,-362.549,-8.118,-233.826,0,0,0,
,0.85,0.365,0.799,-207.581,-49.195,-105.713,0,0,0,
,0.727,0.46,0.589,-181.763,-60.975,15.869,0,0,0,
,0.687,0.291,0.422,-194.519,-72.754,36.315,0,0,0,
,0.726,0.246,0.392,-91.614,-56.397,6.164,0,0,0,
,0.734,0.165,0.361,-43.396,-36.56,-10.071,0,0,0,
,0.752,0.174,0.338,5.493,-1.343,-19.288,0,0,0,
,0.812,0.18,0.373,39.062,24.231,-20.569,0,0,0,
,0.929,0.229,0.367,56.518,32.348,3.112,0,0,0,
,0.92,0.213,0.376,46.997,20.385,16.113,0,0,0,
,0.894,0.165,0.358,50.842,7.385,10.253,0,0,0,
,0.895,0.15,0.368,5.065,-8.851,12.451,0,0,0,
,0.879,0.174,0.367,-6.714,-19.593,31.677,0,0,0,
,0.869,0.168,0.369,28.564,-3.785,36.01,0,0,0,
,0.873,0.198,0.39,82.153,14.831,42.236,0,0,0,
,0.869,0.195,0.413,73.791,27.282,47.668,0,0,0,
,0.875,0.269,0.416,78.186,36.377,54.077,0,0,0,
,0.862,0.317,0.383,170.959,43.335,60.913,0,0,0,
,0.885,0.313,0.369,380.859,60.485,43.701,0,0,0,
,0.86,0.167,0.389,494.079,65.429,23.681,0,0,0,
,0.846,0.127,0.448,482.177,66.223,24.292,0,0,0,
,0.856,0.124,0.473,432.495,64.27,12.512,0,0,0,
,0.871,0.148,0.48,359.924,52.856,13.732,0,0,0,
,0.888,0.151,0.466,279.541,36.926,20.019,0,0,0,
,0.895,0.174,0.453,208.618,18.92,31.616,0,0,0,
,0.887,0.16,0.431,147.4,-0.367,32.592,0,0,0,
,0.87,0.137,0.385,76.843,-10.926,25.146,0,0,0,
,0.865,0.172,0.381,52.734,-9.705,21.24,0,0,0,
,0.866,0.176,0.395,35.583,-11.109,10.986,0,0,0,
,0.868,0.18,0.388,1.586,-14.1,3.173,0,0,0,
,0.866,0.148,0.38,-44.495,-16.541,-5.616,0,0,0,
,0.854,0.122,0.359,-105.408,-24.17,-13.367,0,0,0,
,0.847,0.13,0.347,-157.654,-17.09,-13.794,0,0,0,
,0.849,0.122,0.365,-193.238,-8.912,-19.959,0,0,0,
,0.869,0.117,0.382,-243.226,-3.663,-18.25,0,0,0,
,0.895,0.12,0.398,-310.791,-10.621,-17.212,0,0,0,
,0.892,0.106,0.418,-397.339,-29.114,-28.931,0,0,0,
,0.901,0.118,0.386,-525.879,-49.561,-32.654,0,0,0,
,0.879,0.14,0.336,-672.181,-53.284,-32.837,0,0,0,
,0.902,0.158,0.342,-764.771,-43.702,-37.903,0,0,0,
,0.915,0.178,0.36,-815.125,-44.434,-33.265,0,0,0,
,0.921,0.198,0.353,-828.003,-54.627,-20.752,0,0,0,
,0.926,0.191,0.364,-813.294,-79.102,-37.964,0,0,0,
,0.939,0.16,0.384,-838.379,-127.991,-61.585,0,0,0,
,0.911,0.164,0.34,-948.121,-182.129,-75.074,0,0,0,
,0.891,0.195,0.289,-1097.229,-221.009,-83.008,0,0,0,
,0.894,0.247,0.271,-1213.501,-252.015,-94.3,0,0,0,
,0.913,0.28,0.278,-1268.25,-287.72,-105.225,0,0,0,
,0.928,0.279,0.254,-1308.594,-335.511,-112.244,0,0,0,
,0.899,0.273,0.181,-1385.743,-365.418,-118.531,0,0,0,
,0.897,0.323,0.16,-1435.547,-371.644,-126.709,0,0,0,
,0.907,0.37,0.18,-1426.941,-373.963,-136.414,0,0,0,
,0.886,0.361,0.24,-1370.24,-399.598,-140.809,0,0,0,
,0.867,0.395,0.267,-1329.468,-413.331,-137.94,0,0,0,
,0.857,0.416,0.323,-1264.1,-429.566,-137.391,0,0,0,
,0.852,0.431,0.399,-1214.478,-456.971,-133.362,0,0,0,
,0.84,0.434,0.433,-1164.612,-499.695,-135.193,0,0,0,
,0.806,0.425,0.39,-1161.561,-538.697,-136.658,0,0,0,
,0.783,0.464,0.34,-1144.898,-554.505,-143.372,0,0,0,
,0.76,0.489,0.302,-1087.464,-552.124,-160.95,0,0,0,
,0.726,0.471,0.266,-998.536,-528.687,-187.195,0,0,0,
,0.733,0.464,0.252,-898.865,-493.164,-205.323,0,0,0,
,0.76,0.449,0.249,-811.646,-463.501,-228.394,0,0,0,
,0.759,0.449,0.239,-729.31,-442.872,-244.568,0,0,0,
,0.77,0.436,0.208,-669.678,-416.687,-268.738,0,0,0,
,0.789,0.43,0.186,-647.339,-397.644,-282.837,0,0,0,
,0.807,0.439,0.165,-652.894,-381.287,-288.697,0,0,0,
,0.821,0.448,0.142,-669.8,-364.808,-288.514,0,0,0,
,0.825,0.454,0.122,-693.482,-343.75,-283.02,0,0,0,
,0.831,0.46,0.107,-713.196,-324.036,-274.109,0,0,0,
,0.827,0.471,0.095,-717.591,-302.674,-260.987,0,0,0,
,0.809,0.479,0.097,-711.914,-274.414,-248.597,0,0,0,
,0.784,0.482,0.102,-700.745,-247.559,-235.718,0,0,0,
,0.784,0.486,0.11,-678.772,-216.309,-225.403,0,0,0,
,0.799,0.495,0.125,-648.682,-190.979,-226.075,0,0,0,
,0.792,0.507,0.13,-609.62,-176.148,-229.432,0,0,0,
,0.76,0.506,0.117,-576.905,-165.528,-236.084,0,0,0,
,0.737,0.5,0.107,-557.19,-153.565,-232.544,0,0,0,
,0.735,0.493,0.1,-548.951,-138.184,-222.718,0,0,0,
,0.764,0.485,0.097,-543.824,-121.949,-217.835,0,0,0,
,0.817,0.498,0.1,-548.401,-106.019,-226.746,0,0,0,
,0.876,0.528,0.127,-552.918,-91.919,-252.259,0,0,0,
,0.932,0.571,0.156,-538.147,-86.853,-277.71,0,0,0,
,0.952,0.579,0.184,-539.368,-94.666,-296.204,0,0,0,
,0.919,0.592,0.199,-534.485,-111.451,-279.358,0,0,0,
,0.86,0.571,0.222,-519.654,-129.7,-221.802,0,0,0,
,0.817,0.538,0.232,-497.559,-140.442,-124.39,0,0,0,
,0.816,0.439,0.221,-452.393,-153.26,-45.533,0,0,0,
,0.855,0.417,0.201,-408.631,-167.481,19.348,0,0,0,
,0.924,0.422,0.166,-347.474,-189.026,46.936,0,0,0,
,0.977,0.442,0.132,-277.466,-214.722,33.264,0,0,0,
,1.024,0.475,0.125,-239.38,-238.587,8.056,0,0,0,
,1.037,0.496,0.124,-289.917,-274.72,-17.029,0,0,0,
,1.014,0.492,0.115,-377.869,-306.885,-44.617,0,0,0,
,1.004,0.457,0.102,-467.408,-325.745,-66.285,0,0,0,
,0.992,0.439,0.098,-573.731,-335.694,-67.444,0,0,0,
,0.978,0.448,0.1,-623.597,-344.91,-73.609,0,0,0,
,0.943,0.451,0.088,-636.353,-347.84,-74.28,0,0,0,
,0.906,0.469,0.083,-634.278,-346.314,-65.369,0,0,0,
,0.865,0.469,0.078,-611.695,-342.469,-54.139,0,0,0,
,0.827,0.453,0.077,-581.299,-332.276,-42.054,0,0,0,
,0.808,0.43,0.078,-562.012,-325.013,-37.293,0,0,0,
,0.795,0.419,0.071,-554.078,-315.43,-39.429,0,0,0,
,0.787,0.419,0.072,-550.293,-308.594,-52.063,0,0,0,
,0.772,0.422,0.076,-551.209,-307.129,-71.412,0,0,0,
,0.763,0.428,0.074,-560.242,-304.383,-92.957,0,0,0,
,0.752,0.422,0.071,-559.327,-301.392,-113.648,0,0,0,
,0.74,0.416,0.071,-550.232,-296.753,-128.724,0,0,0,
,0.73,0.405,0.066,-537.781,-283.57,-142.456,0,0,0,
,0.728,0.41,0.069,-529.419,-267.334,-162.781,0,0,0,
,0.723,0.414,0.073,-511.292,-245.24,-185.608,0,0,0,
,0.735,0.419,0.08,-486.39,-220.032,-213.623,0,0,0,
,0.744,0.43,0.08,-456.421,-196.534,-262.452,0,0,0,
,0.761,0.44,0.097,-426.453,-171.631,-286.622,0,0,0,
,0.802,0.452,0.106,-406.373,-154.541,-328.003,0,0,0,
,0.827,0.45,0.109,-395.63,-143.128,-368.592,0,0,0,
,0.88,0.452,0.115,-406.739,-133.057,-394.593,0,0,0,
,0.907,0.463,0.113,-416.565,-134.644,-412.11,0,0,0,
,0.938,0.459,0.115,-430.298,-133.301,-428.711,0,0,0,
,1.037,0.471,0.139,-453.797,-137.207,-434.876,0,0,0,
,1.167,0.486,0.132,-497.254,-164.795,-441.529,0,0,0,
,1.202,0.489,0.089,-581.727,-208.802,-443.177,0,0,0,
,1.176,0.493,0.059,-678.833,-232.972,-437.989,0,0,0,
,1.191,0.487,0.056,-779.908,-245.057,-422.73,0,0,0,
,1.208,0.522,0.075,-860.718,-255.677,-397.278,0,0,0,
,1.181,0.529,0.079,-911.133,-273.56,-377.259,0,0,0,
,1.116,0.555,0.068,-964.295,-282.105,-351.99,0,0,0,
,0.943,0.595,0.084,-962.22,-294.495,-296.875,0,0,0,
,0.721,0.564,0.109,-903.26,-295.716,-211.365,0,0,0,
,0.56,0.518,0.119,-809.876,-281.556,-80.567,0,0,0,
,0.523,0.452,0.134,-675.965,-257.081,59.265,0,0,0,
,0.596,0.345,0.101,-558.228,-240.845,164.734,0,0,0,
,0.649,0.225,0.065,-528.626,-242.493,210.022,0,0,0,
,0.661,0.219,0.064,-537.598,-242.432,209.167,0,0,0,
,0.787,0.297,0.073,-533.204,-236.084,180.236,0,0,0,
,0.932,0.379,0.078,-556.641,-251.282,127.197,0,0,0,
,1.021,0.426,0.081,-619.324,-275.452,94.604,0,0,0,
,1.048,0.429,0.072,-696.473,-304.932,82.458,0,0,0,
,0.974,0.408,0.07,-710.328,-313.965,86.486,0,0,0,
,0.895,0.332,0.088,-691.529,-300.415,124.267,0,0,0,
,0.792,0.256,0.101,-654.541,-279.297,142.578,0,0,0,
,0.733,0.212,0.118,-603.211,-235.901,164.856,0,0,0,
,0.702,0.218,0.127,-583.069,-198.365,173.767,0,0,0,
,0.673,0.261,0.128,-582.154,-164.429,153.808,0,0,0,
,0.643,0.305,0.119,-571.351,-138.672,110.534,0,0,0,
,0.647,0.353,0.139,-535.34,-109.559,61.218,0,0,0,
,0.672,0.373,0.151,-481.385,-100.22,5.065,0,0,0,
,0.66,0.356,0.15,-439.82,-92.835,-51.331,0,0,0,
,0.65,0.351,0.133,-419.922,-81.116,-100.098,0,0,0,
,0.639,0.364,0.124,-409.302,-64.209,-154.419,0,0,0,
,0.657,0.382,0.135,-397.767,-40.162,-213.99,0,0,0,
,0.708,0.412,0.157,-395.63,-17.823,-274.109,0,0,0,
,0.77,0.455,0.183,-389.1,5.004,-338.257,0,0,0,
,0.838,0.497,0.202,-370.057,21.972,-397.644,0,0,0,
,0.905,0.528,0.209,-339.6,38.147,-449.097,0,0,0,
,0.97,0.568,0.213,-290.772,53.344,-485.108,0,0,0,
,1.043,0.609,0.23,-216.004,67.077,-500.184,0,0,0,
,1.107,0.61,0.246,-149.72,71.716,-495.484,0,0,0,
,1.13,0.619,0.243,-112,71.899,-471.314,0,0,0,
,1.145,0.627,0.24,-91.187,68.481,-425.904,0,0,0,
,1.147,0.618,0.232,-83.313,61.645,-357.85,0,0,0,
,1.128,0.608,0.23,-83.252,55.175,-281.434,0,0,0,
,1.096,0.603,0.237,-86.67,47.668,-188.05,0,0,0,
,1.057,0.61,0.241,-65.857,38.147,-112.183,0,0,0,
,0.994,0.605,0.243,-26.734,18.371,-11.536,0,0,0,
,0.897,0.582,0.229,19.775,-3.418,95.336,0,0,0,
,0.816,0.545,0.206,64.758,-17.456,212.463,0,0,0,
,0.843,0.473,0.152,122.375,-43.885,387.573,0,0,0,
,0.863,0.452,0.142,137.024,-63.965,429.565,0,0,0,
,0.882,0.454,0.131,150.573,-81.543,437.744,0,0,0,
,0.929,0.455,0.14,173.706,-94.849,424.865,0,0,0,
,0.97,0.461,0.167,189.148,-119.935,410.705,0,0,0,
,0.975,0.474,0.173,176.452,-153.687,406.005,0,0,0,
,0.93,0.379,0.088,105.163,-195.313,393.188,0,0,0,
,0.924,0.365,0.072,113.464,-187.561,416.748,0,0,0,
,0.909,0.36,0.082,162.231,-156.922,406.921,0,0,0,
,0.922,0.367,0.089,177.063,-156.739,400.146,0,0,0,
,0.909,0.379,0.111,237.487,-144.898,397.522,0,0,0,
,0.893,0.363,0.113,279.785,-134.156,387.573,0,0,0,
,0.853,0.365,0.123,297.79,-121.766,388.916,0,0,0,
,0.782,0.358,0.118,310.058,-113.526,371.032,0,0,0,
,0.728,0.338,0.133,310.608,-101.014,362.854,0,0,0,
,0.725,0.321,0.143,316.223,-89.234,354.492,0,0,0,
,0.73,0.308,0.157,297.607,-90.699,338.684,0,0,0,
,0.773,0.305,0.163,272.705,-100.464,313.781,0,0,0,
,0.813,0.313,0.154,240.112,-120.057,275.268,0,0,0,
,0.85,0.305,0.149,223.144,-129.761,230.346,0,0,0,
,0.889,0.285,0.139,181.823,-147.034,175.781,0,0,0,
,0.92,0.28,0.156,100.769,-167.603,110.229,0,0,0,
,0.958,0.282,0.161,-13.977,-187.012,42.48,0,0,0,
,0.981,0.279,0.162,-140.686,-205.384,-21.18,0,0,0,
,0.983,0.271,0.16,-267.151,-218.323,-89.783,0,0,0,
,0.991,0.265,0.167,-392.212,-219.788,-164.246,0,0,0,
,1.032,0.303,0.177,-491.211,-214.234,-249.817,0,0,0,
,1.092,0.342,0.188,-559.51,-215.882,-349.305,0,0,0,
,1.116,0.368,0.18,-624.512,-222.229,-455.689,0,0,0,
,1.156,0.4,0.168,-689.087,-222.901,-558.35,0,0,0,
,1.206,0.441,0.159,-732.605,-225.647,-658.204,0,0,0,
,1.191,0.465,0.154,-762.757,-235.779,-736.268,0,0,0,
,1.053,0.479,0.146,-797.364,-254.822,-763.916,0,0,0,
,0.843,0.468,0.14,-842.408,-268.86,-732.972,0,0,0,
,0.653,0.467,0.168,-841.126,-268.86,-648.194,0,0,0,
,0.552,0.433,0.173,-710.633,-250.245,-513.977,0,0,0,
,0.499,0.352,0.167,-578.98,-230.164,-426.453,0,0,0,
,0.566,0.33,0.133,-446.106,-196.167,-340.027,0,0,0,
,0.692,0.369,0.097,-333.374,-174.195,-292.298,0,0,0,
,0.83,0.424,0.065,-251.343,-160.34,-309.327,0,0,0,
,0.99,0.486,0.067,-216.309,-151.062,-368.836,0,0,0,
,1.079,0.547,0.096,-260.498,-167.969,-440.552,0,0,0,
,1.065,0.563,0.112,-371.216,-190.979,-499.634,0,0,0,
,0.987,0.57,0.096,-429.444,-200.562,-525.391,0,0,0,
,0.88,0.525,0.115,-466.187,-207.886,-492.005,0,0,0,
,0.769,0.489,0.118,-496.277,-189.698,-418.946,0,0,0,
,0.711,0.474,0.124,-461.731,-155.213,-338.929,0,0,0,
,0.683,0.431,0.137,-404.114,-120.667,-262.207,0,0,0,
,0.666,0.425,0.146,-367.066,-86.487,-193.482,0,0,0,
,0.66,0.469,0.162,-331.299,-56.275,-133.973,0,0,0,
,0.659,0.496,0.174,-274.903,-29.236,-108.521,0,0,0,
,0.644,0.505,0.188,-217.286,-5.372,-97.413,0,0,0,
,0.616,0.513,0.223,-164.429,22.338,-97.657,0,0,0,
,0.607,0.53,0.258,-92.102,52.612,-106.08,0,0,0,
,0.592,0.547,0.303,6.042,75.195,-110.901,0,0,0,
,0.588,0.551,0.352,120.056,97.229,-112.549,0,0,0,
,0.627,0.556,0.389,237.609,116.577,-107.544,0,0,0,
,0.671,0.557,0.4,352.05,127.197,-101.014,0,0,0,
,0.759,0.557,0.386,442.077,135.986,-99.61,0,0,0,
,0.892,0.564,0.369,500.61,125.61,-104.126,0,0,0,
,1.022,0.586,0.355,539.734,129.943,-110.047,0,0,0,
,1.101,0.589,0.357,547.546,104.309,-109.253,0,0,0,
,1.1,0.565,0.354,510.742,69.702,-85.328,0,0,0,
,1.069,0.526,0.356,434.204,44.067,-36.499,0,0,0,
,1.066,0.494,0.34,337.89,34.179,31.494,0,0,0,
,1.135,0.476,0.342,249.755,32.714,90.698,0,0,0,
,1.22,0.505,0.357,188.415,22.399,132.812,0,0,0,
,1.222,0.569,0.337,160.522,2.868,160.705,0,0,0,
,1.196,0.593,0.289,131.225,-8.728,190.185,0,0,0,
,1.159,0.627,0.238,152.465,-9.461,226.44,0,0,0,
,1.072,0.607,0.188,229.065,-9.583,279.541,0,0,0,
,0.964,0.55,0.147,324.89,4.577,342.102,0,0,0,
,0.895,0.5,0.086,398.742,30.212,427.795,0,0,0,
,0.865,0.477,0.049,513.244,66.955,504.211,0,0,0,
,0.861,0.365,-0.022,706.237,106.994,524.109,0,0,0,
,0.896,0.354,-0.017,797.119,139.282,593.139,0,0,0,
,0.928,0.32,-0.011,762.207,150.756,601.135,0,0,0,
,0.916,0.354,-0.032,717.59,163.818,585.083,0,0,0,
,0.945,0.369,-0.073,667.541,184.692,532.959,0,0,0,
,0.958,0.406,-0.107,614.38,201.11,487.06,0,0,0,
,0.915,0.441,-0.104,593.322,207.641,430.908,0,0,0,
,0.819,0.417,-0.123,595.337,213.44,384.46,0,0,0,
,0.801,0.378,-0.135,602.417,220.703,355.407,0,0,0,
,0.773,0.36,-0.15,637.146,227.417,337.768,0,0,0,
,0.774,0.334,-0.167,667.785,232.299,329.345,0,0,0,
,0.802,0.328,-0.159,675.293,236.572,319.213,0,0,0,
,0.854,0.333,-0.153,661.316,234.802,301.452,0,0,0,
,0.88,0.333,-0.119,633.484,222.168,279.968,0,0,0,
,0.921,0.328,-0.092,590.21,202.148,267.334,0,0,0,
,0.939,0.316,-0.064,525.94,167.358,257.812,0,0,0,
,0.953,0.314,-0.052,453.247,131.042,265.014,0,0,0,
,0.959,0.294,-0.045,372.436,95.459,276.428,0,0,0,
,0.955,0.277,-0.043,287.414,66.894,290.649,0,0,0,
,0.948,0.26,-0.033,199.707,50.659,301.941,0,0,0,
,0.966,0.26,-0.011,122.009,44.799,302.246,0,0,0,
,0.974,0.248,0.018,51.33,33.874,286.438,0,0,0,
,0.961,0.225,0.059,-0.184,20.629,254.333,0,0,0,
,0.924,0.2,0.086,-50.171,2.624,208.923,0,0,0,
,0.874,0.185,0.101,-107.239,-18.189,162.841,0,0,0,
,0.816,0.176,0.105,-166.016,-31.373,116.15,0,0,0,
,0.815,0.173,0.103,-229.126,-26.368,61.645,0,0,0,
,0.887,0.22,0.111,-265.748,-16.724,-17.273,0,0,0,
,1.002,0.279,0.13,-258.851,-5.31,-113.648,0,0,0,
,1.153,0.339,0.154,-235.474,-4.456,-226.014,0,0,0,
,1.232,0.389,0.191,-208.802,-46.265,-340.638,0,0,0,
,1.196,0.394,0.213,-187.378,-69.336,-422.73,0,0,0,
,1.121,0.37,0.241,-173.89,-112.305,-446.656,0,0,0,
,1.018,0.32,0.246,-177.124,-147.034,-422.364,0,0,0,
,0.952,0.249,0.229,-211.487,-164.124,-359.62,0,0,0,
,0.941,0.197,0.218,-243.836,-172.242,-324.769,0,0,0,
,0.96,0.161,0.234,-288.758,-174.439,-288.819,0,0,0,
,1.011,0.177,0.27,-370.606,-186.28,-272.278,0,0,0,
,1.029,0.216,0.298,-491.578,-227.723,-276.734,0,0,0,
,0.978,0.25,0.304,-632.264,-283.57,-297.547,0,0,0,
,0.904,0.277,0.281,-751.099,-338.501,-308.533,0,0,0,
,0.851,0.283,0.248,-825.745,-390.137,-321.228,0,0,0,
,0.829,0.301,0.195,-891.602,-438.416,-322.449,0,0,0,
,0.773,0.271,0.223,-918.213,-498.23,-357.972,0,0,0,
,0.788,0.391,0.218,-879.578,-521.119,-348.511,0,0,0,
,0.757,0.243,0.194,-945.313,-559.205,-381.043,0,0,0,
,0.725,0.273,0.17,-1138.489,-570.008,-362.305,0,0,0,
,0.744,0.326,0.143,-1256.043,-575.135,-365.784,0,0,0,
,0.728,0.367,0.135,-1266.175,-572.937,-375,0,0,0,
,0.732,0.411,0.125,-1207.276,-560.914,-380.799,0,0,0,
,0.732,0.463,0.128,-1049.073,-526.062,-397.278,0,0,0,
,0.744,0.443,0.124,-919.373,-488.709,-399.292,0,0,0,
,0.759,0.446,0.137,-827.332,-447.327,-391.968,0,0,0,
,0.784,0.447,0.146,-785.584,-410.767,-389.466,0,0,0,
,0.818,0.474,0.153,-813.416,-384.949,-373.719,0,0,0,
,0.838,0.531,0.179,-853.394,-361.634,-352.478,0,0,0,
,0.864,0.546,0.244,-938.904,-353.516,-319.336,0,0,0,
,0.841,0.609,0.39,-1163.697,-365.174,-240.784,0,0,0,
,0.672,0.864,0.834,-1647.95,-524.964,-0.733,0,0,0,
,0.987,1.4,0.764,-1711.243,-460.267,110.229,0,0,0,
,0.818,1.14,0.774,-1244.141,-560.73,155.456,0,0,0,
,0.816,0.86,0.588,-836.365,-470.093,103.149,0,0,0,
,0.933,0.748,0.364,-540.406,-406.922,79.467,0,0,0,
,0.83,0.67,0.172,-205.262,-350.159,-10.743,0,0,0,
,0.842,0.569,0.044,59.021,-265.625,-77.149,0,0,0,
,0.89,0.504,-0.022,231.811,-220.276,-144.288,0,0,0,
,0.878,0.462,0.011,357.788,-192.872,-182.923,0,0,0,
,0.883,0.399,0.085,393.859,-175.415,-219.422,0,0,0,
,0.912,0.344,0.111,222.839,-166.016,-237.244,0,0,0,
,0.937,0.394,0.108,34.179,-171.509,-205.018,0,0,0,
,0.977,0.43,0.103,-6.958,-177.796,-192.444,0,0,0,
,0.999,0.419,0.092,-12.757,-198.67,-178.956,0,0,0,
,0.988,0.422,0.078,-71.961,-228.638,-150.879,0,0,0,
,0.99,0.428,0.054,-170.594,-264.039,-112.244,0,0,0,
,0.982,0.418,0.037,-260.804,-296.692,-64.942,0,0,0,
,0.957,0.381,0.016,-348.755,-328.553,-21.912,0,0,0,
,0.917,0.355,0.007,-464.966,-349.549,15.93,0,0,0,
,0.82,0.362,0.015,-581.482,-343.811,51.696,0,0,0,
,0.776,0.371,0.035,-647.095,-349.366,76.782,0,0,0,
,0.727,0.365,0.054,-676.758,-330.14,92.224,0,0,0,
,0.68,0.401,0.075,-679.2,-304.322,104.004,0,0,0,
,0.631,0.391,0.092,-632.447,-272.828,98.693,0,0,0,
,0.601,0.4,0.093,-543.213,-242.859,79.101,0,0,0,
,0.59,0.396,0.099,-434.205,-213.685,49.865,0,0,0,
,0.59,0.377,0.098,-332.642,-187.378,4.638,0,0,0,
,0.6,0.354,0.106,-276.49,-172.425,-52.918,0,0,0,
,0.611,0.352,0.11,-244.568,-160.157,-119.507,0,0,0,
,0.631,0.337,0.113,-253.907,-154.48,-191.468,0,0,0,
,0.648,0.33,0.106,-300.11,-147.278,-249.939,0,0,0,
,0.688,0.32,0.1,-380.738,-136.536,-316.468,0,0,0,
,0.745,0.328,0.102,-473.572,-125.977,-387.146,0,0,0,
,0.8,0.354,0.106,-557.007,-116.15,-458.435,0,0,0,
,0.859,0.39,0.106,-609.62,-103.577,-542.115,0,0,0,
,0.95,0.421,0.111,-647.889,-90.516,-625.061,0,0,0,
,1.038,0.463,0.109,-675.232,-81.604,-707.337,0,0,0,
,1.12,0.5,0.107,-673.035,-76.111,-786.683,0,0,0,
,1.188,0.53,0.098,-666.26,-74.463,-848.694,0,0,0,
,1.228,0.561,0.094,-655.274,-74.646,-886.048,0,0,0,
,1.237,0.578,0.087,-638.611,-71.228,-898.987,0,0,0,
,1.235,0.603,0.099,-608.094,-68.604,-886.536,0,0,0,
,1.215,0.618,0.119,-561.402,-75.013,-845.032,0,0,0,
,1.192,0.612,0.128,-522.706,-81.727,-775.025,0,0,0,
,1.167,0.602,0.109,-519.349,-91.919,-678.65,0,0,0,
,1.096,0.599,0.087,-516.419,-103.272,-568.604,0,0,0,
,0.967,0.562,0.076,-511.231,-109.62,-442.933,0,0,0,
,0.859,0.517,0.095,-504.09,-103.089,-303.345,0,0,0,
,0.829,0.484,0.096,-489.38,-89.417,-164.917,0,0,0,
,0.831,0.474,0.065,-452.82,-75.013,-60.73,0,0,0,
,0.844,0.49,0.101,-394.593,-62.439,31.86,0,0,0,
,0.867,0.486,0.091,-343.567,-57.007,94.177,0,0,0,
,0.899,0.493,0.079,-306.58,-52.979,138.183,0,0,0,
,0.921,0.493,0.072,-275.94,-57.312,167.907,0,0,0,
,0.882,0.481,0.066,-269.654,-62.561,182.251,0,0,0,
,0.81,0.463,0.065,-278.016,-57.435,197.57,0,0,0,
,0.732,0.435,0.061,-284.607,-40.406,209.106,0,0,0,
,0.673,0.404,0.064,-280.213,-14.588,218.261,0,0,0,
,0.635,0.39,0.066,-260.56,21.118,216.186,0,0,0,
,0.613,0.395,0.069,-216.187,59.997,200.683,0,0,0,
,0.613,0.416,0.078,-142.945,100.83,171.997,0,0,0,
,0.623,0.435,0.084,-47.913,139.709,135.376,0,0,0,
,0.646,0.451,0.106,51.574,173.095,98.938,0,0,0,
,0.674,0.45,0.127,144.531,201.599,72.265,0,0,0,
,0.689,0.444,0.146,230.957,221.008,54.199,0,0,0,
,0.707,0.431,0.153,317.566,234.069,50.415,0,0,0,
,0.723,0.423,0.164,395.813,243.469,61.828,0,0,0,
,0.781,0.411,0.177,466.735,251.098,72.998,0,0,0,
,0.844,0.201,0.316,598.999,210.937,-24.292,0,0,0,
,0.931,0,0.385,480.896,160.095,-78.614,0,0,0,
,1.058,0.023,0.401,185.852,91.98,-70.862,0,0,0,
,1.074,0.301,0.283,0.976,32.348,-69.092,0,0,0,
,1.091,0.454,0.232,32.653,-8.484,-102.601,0,0,0,
,1.074,0.511,0.205,93.139,-35.767,-103.394,0,0,0,
,1.036,0.512,0.197,101.928,-48.279,-82.093,0,0,0,
,1.096,0.444,0.149,153.503,-22.522,-47.669,0,0,0,
,1.173,0.454,0.163,150.817,-17.273,-24.842,0,0,0,
,1.205,0.521,0.173,122.558,-26.917,-22.706,0,0,0,
,1.194,0.584,0.168,94.36,-40.039,-19.165,0,0,0,
,1.156,0.593,0.147,90.454,-50.721,0.793,0,0,0,
,1.081,0.59,0.128,151.611,-51.453,58.96,0,0,0,
,1.005,0.532,0.11,247.253,-48.768,147.155,0,0,0,
,0.951,0.465,0.097,301.818,-42.42,255.066,0,0,0,
,0.929,0.415,0.066,343.139,-41.81,365.112,0,0,0,
,0.924,0.384,0.021,362.365,-16.846,440.979,0,0,0,
,0.951,0.357,-0.021,363.037,-0.855,481.628,0,0,0,
,0.962,0.369,-0.043,368.896,-1.038,495.544,0,0,0,
,0.969,0.356,-0.065,377.197,5.249,484.741,0,0,0,
,0.953,0.37,-0.075,325.134,11.901,474.548,0,0,0,
,0.943,0.401,-0.09,281.189,31.494,434.631,0,0,0,
,0.925,0.431,-0.076,327.27,48.95,397.705,0,0,0,
,0.925,0.391,-0.067,409.301,59.631,353.942,0,0,0,
,0.843,0.368,-0.048,435.852,53.283,366.088,0,0,0,
,0.795,0.333,-0.059,455.2,56.335,370.971,0,0,0,
,0.756,0.317,-0.065,456.176,56.701,397.522,0,0,0,
,0.726,0.304,-0.07,464.782,57.739,396.057,0,0,0,
,0.714,0.293,-0.061,453.674,52.795,394.348,0,0,0,
,0.728,0.295,-0.04,441.04,40.893,378.296,0,0,0,
,0.78,0.297,-0.018,430.359,17.7,351.623,0,0,0,
,0.812,0.291,-0.017,389.16,-22.156,313.11,0,0,0,
,0.8,0.283,-0.016,311.828,-60.181,277.099,0,0,0,
,0.779,0.271,-0.021,218.994,-85.267,240.051,0,0,0,
,0.768,0.257,-0.013,114.868,-107.483,194.763,0,0,0,
,0.763,0.25,0.004,6.408,-121.399,144.897,0,0,0,
,0.799,0.264,0.024,-90.943,-128.968,90.942,0,0,0,
,0.842,0.282,0.042,-177.369,-141.236,27.404,0,0,0,
,0.858,0.302,0.04,-255.616,-154.725,-33.753,0,0,0,
,0.878,0.31,0.034,-306.153,-162.232,-95.948,0,0,0,
,0.908,0.314,0.027,-344.971,-165.711,-161.011,0,0,0,
,0.945,0.323,0.024,-379.395,-170.655,-227.662,0,0,0,
,0.976,0.327,0.02,-424.134,-171.265,-295.411,0,0,0,
,0.986,0.336,0.022,-476.258,-166.443,-363.16,0,0,0,
,0.986,0.348,0.028,-517.762,-159.974,-428.345,0,0,0,
,0.972,0.358,0.036,-544.19,-145.874,-493.531,0,0,0,
,0.974,0.367,0.052,-553.65,-131.775,-552.613,0,0,0,
,0.966,0.378,0.061,-552.308,-121.216,-608.521,0,0,0,
,1.017,0.392,0.062,-535.523,-108.643,-664.795,0,0,0,
,1.105,0.412,0.065,-519.837,-110.169,-727.662,0,0,0,
,1.171,0.421,0.055,-534.852,-124.939,-793.213,0,0,0,
,1.19,0.433,0.039,-594.727,-151.246,-851.807,0,0,0,
,1.18,0.439,0.02,-660.767,-169.007,-882.752,0,0,0,
,1.183,0.439,0.019,-729.798,-179.017,-897.217,0,0,0,
,1.186,0.448,0.019,-800.904,-187.378,-889.527,0,0,0,
,1.174,0.451,0.022,-877.442,-189.637,-867.127,0,0,0,
,1.161,0.487,0.023,-928.894,-183.167,-821.839,0,0,0,
,1.12,0.507,0.066,-927.918,-176.392,-772.889,0,0,0,
,1.079,0.554,0.092,-885.437,-160.706,-680.664,0,0,0,
,0.997,0.532,0.116,-815.979,-147.339,-587.708,0,0,0,
,0.928,0.536,0.129,-695.679,-113.953,-444.397,0,0,0,
,0.891,0.508,0.133,-511.658,-73.67,-319.581,0,0,0,
,0.885,0.447,0.139,-359.192,-35.035,-218.14,0,0,0,
,0.905,0.432,0.158,-262.085,-8.179,-102.906,0,0,0,
,0.92,0.428,0.152,-199.707,-1.404,-8.118,0,0,0,
,0.888,0.39,0.149,-189.148,-1.221,74.096,0,0,0,
,0.867,0.379,0.168,-198.548,-0.367,139.038,0,0,0,
,0.862,0.253,0.32,-197.388,-36.316,99.426,0,0,0,
,0.826,0.141,0.462,-222.107,-113.77,78.43,0,0,0,
,0.797,-0.01,0.577,124.878,-201.539,28.503,0,0,0,
,0.775,-0.255,0.529,332.397,-241.15,-99.915,0,0,0,
,0.721,-0.462,0.309,-25.635,-172.059,-229.493,0,0,0,
,0.725,-0.074,0.227,-467.041,-78.919,-247.437,0,0,0,
,0.89,0.187,0.227,-449.402,-78.797,-274.537,0,0,0,
,0.914,0.214,0.243,-384.705,-109.07,-250.123,0,0,0,
,0.899,0.183,0.188,-391.907,-113.526,-198.548,0,0,0,
,0.903,0.167,0.108,-430.115,-116.639,-158.326,0,0,0,
,0.885,0.162,0.056,-427.247,-112.366,-128.663,0,0,0,
,0.881,0.176,0.036,-394.776,-95.765,-102.173,0,0,0,
,0.877,0.194,0.059,-368.897,-82.886,-73.243,0,0,0,
,0.895,0.203,0.109,-354.004,-67.444,-41.504,0,0,0,
,0.908,0.237,0.162,-351.746,-48.035,-5.188,0,0,0,
,0.955,0.263,0.204,-271.18,-21.119,13.61,0,0,0,
,0.992,0.204,0.281,-72.937,-6.226,-11.414,0,0,0,
,0.99,0.129,0.35,259.155,13.183,-51.331,0,0,0,
,1.016,-0.034,0.408,506.652,12.695,-70.862,0,0,0,
,1.007,-0.173,0.409,490.661,-1.038,-86.487,0,0,0,
,0.974,-0.182,0.369,320.495,-22.767,-79.895,0,0,0,
,0.969,-0.143,0.297,101.989,-61.463,-45.472,0,0,0,
,0.982,-0.05,0.24,-107.911,-106.019,-15.137,0,0,0,
,0.98,0.003,0.186,-219.788,-158.875,14.953,0,0,0,
,1.003,-0.024,0.158,-243.897,-215.455,27.893,0,0,0,
,1.026,-0.097,0.146,-302.185,-282.349,46.691,0,0,0,
,1.051,-0.1,0.142,-481.507,-345.093,96.74,0,0,0,
,1.093,-0.085,0.128,-731.934,-411.622,117.492,0,0,0,
,1.076,-0.088,0.102,-1029.236,-481.934,132.751,0,0,0,
,1.052,0.034,0.078,-1283.387,-516.968,213.256,0,0,0,
,1.008,0.101,0.071,-1455.14,-545.777,246.582,0,0,0,
,0.986,0.158,0.139,-1570.557,-541.199,311.523,0,0,0,
,0.928,0.195,0.14,-1487.793,-528.382,327.88,0,0,0,
,0.888,0.264,0.149,-1350.953,-498.108,370.605,0,0,0,
,0.849,0.292,0.149,-1152.832,-465.699,377.868,0,0,0,
,0.822,0.337,0.159,-918.152,-420.289,376.281,0,0,0,
,0.828,0.334,0.19,-679.383,-380.066,346.679,0,0,0,
,0.827,0.36,0.223,-457.276,-344.361,309.326,0,0,0,
,0.835,0.338,0.237,-283.631,-319.275,262.39,0,0,0,
,0.794,0.321,0.267,-167.786,-296.57,226.135,0,0,0,
,0.763,0.311,0.283,-103.089,-274.17,196.594,0,0,0,
,0.753,0.31,0.283,-80.933,-252.991,142.944,0,0,0,
,0.76,0.319,0.267,-97.962,-233.216,113.22,0,0,0,
,0.766,0.327,0.219,-156.495,-220.581,52.307,0,0,0,
,0.755,0.355,0.244,-280.213,-210.267,-1.343,0,0,0,
,0.76,0.442,0.239,-413.025,-194.642,-50.11,0,0,0,
,0.78,0.493,0.269,-534.424,-180.848,-99.366,0,0,0,
,0.815,0.543,0.381,-614.502,-159.363,-141.541,0,0,0,
,0.937,0.646,0.47,-572.632,-144.288,-180.726,0,0,0,
,0.971,0.681,0.419,-454.712,-168.274,-218.018,0,0,0,
,0.887,0.67,0.279,-354.92,-182.251,-227.173,0,0,0,
,0.832,0.672,0.179,-298.584,-179.078,-254.822,0,0,0,
,0.792,0.643,0.101,-284.302,-171.448,-291.199,0,0,0,
,0.75,0.661,0.109,-310.975,-162.354,-292.054,0,0,0,
,0.736,0.658,0.12,-309.876,-149.781,-296.753,0,0,0,
,0.651,0.59,0.171,-363.831,-163.697,-288.208,0,0,0,
,0.614,0.557,0.206,-515.809,-156.617,-279.419,0,0,0,
,0.615,0.561,0.198,-647.095,-165.894,-256.287,0,0,0,
,0.583,0.57,0.189,-697.876,-176.636,-218.995,0,0,0,
,0.585,0.564,0.185,-655.762,-178.345,-171.936,0,0,0,
,0.59,0.561,0.179,-582.154,-185.181,-114.197,0,0,0,
,0.586,0.556,0.185,-491.15,-199.585,-73.67,0,0,0,
,0.616,0.532,0.176,-418.519,-220.52,-48.157,0,0,0,
,0.637,0.507,0.168,-385.804,-246.705,-26.429,0,0,0,
,0.677,0.502,0.156,-358.216,-271.119,-22.706,0,0,0,
,0.741,0.485,0.137,-359.681,-298.096,-39.063,0,0,0,
,0.768,0.48,0.149,-382.752,-320.313,-64.209,0,0,0,
,0.833,0.468,0.172,-421.204,-339.722,-101.014,0,0,0,
,0.914,0.458,0.181,-499.024,-370.85,-134.461,0,0,0,
,0.949,0.445,0.166,-596.436,-400.33,-159.058,0,0,0,
,0.952,0.452,0.175,-657.532,-404.236,-181.702,0,0,0,
,0.963,0.455,0.216,-666.321,-394.104,-198.182,0,0,0,
,0.958,0.442,0.253,-656.067,-382.386,-195.801,0,0,0,
,0.955,0.415,0.272,-634.827,-356.446,-181.702,0,0,0,
,0.956,0.396,0.302,-585.694,-323.182,-159.363,0,0,0,
,0.932,0.364,0.336,-525.33,-300.232,-141.663,0,0,0,
,0.939,0.323,0.386,-486.939,-289.734,-140.748,0,0,0,
,0.953,0.283,0.382,-505.005,-308.106,-161.316,0,0,0,
,0.947,0.259,0.372,-577.088,-341.797,-204.285,0,0,0,
,0.976,0.238,0.338,-679.749,-380.86,-274.231,0,0,0,
,1.011,0.215,0.28,-864.624,-442.872,-375.123,0,0,0,
,1.039,0.212,0.222,-1120.362,-497.132,-485.84,0,0,0,
,1.099,0.258,0.157,-1423.707,-545.899,-626.526,0,0,0,
,1.212,0.328,0.043,-1773.438,-594.544,-761.597,0,0,0,
,1.298,0.439,-0.099,-1996.338,-645.447,-875.245,0,0,0,
,1.262,0.567,-0.261,-2000,-692.627,-942.444,0,0,0,
,1.109,0.679,-0.325,-2000,-710.816,-935.791,0,0,0,
,0.919,0.724,-0.236,-1979.981,-706.299,-856.568,0,0,0,
,0.805,0.625,-0.083,-1662.537,-675.293,-707.215,0,0,0,
,0.893,0.494,-0.027,-1231.995,-616.7,-524.353,0,0,0,
,1.041,0.405,-0.069,-775.513,-576.966,-394.41,0,0,0,
,1.108,0.312,-0.096,-513.062,-548.89,-333.008,0,0,0,
,1.125,0.352,-0.135,-479.004,-518.494,-267.456,0,0,0,
,1.105,0.396,-0.161,-530.091,-506.653,-244.507,0,0,0,
,1.012,0.388,-0.177,-621.399,-497.498,-226.014,0,0,0,
,0.903,0.357,-0.18,-748.047,-483.46,-218.628,0,0,0,
,0.782,0.337,-0.165,-884.339,-468.018,-203.553,0,0,0,
,0.682,0.343,-0.137,-978.15,-445.374,-184.998,0,0,0,
,0.619,0.351,-0.108,-1000.489,-420.166,-170.716,0,0,0,
,0.59,0.358,-0.102,-985.413,-393.433,-161.072,0,0,0,
,0.564,0.38,-0.107,-940.308,-358.582,-165.711,0,0,0,
,0.551,0.391,-0.103,-875.794,-316.895,-185.914,0,0,0,
,0.539,0.407,-0.083,-810.914,-264.954,-220.459,0,0,0,
,0.548,0.423,-0.063,-747.986,-207.581,-255.433,0,0,0,
,0.581,0.447,-0.038,-676.819,-145.752,-295.899,0,0,0,
,0.613,0.466,-0.001,-591.431,-84.168,-333.497,0,0,0,
,0.617,0.472,0.046,-495.301,-30.884,-358.094,0,0,0,
,0.612,0.486,0.082,-397.644,16.845,-364.563,0,0,0,
,0.644,0.509,0.128,-289.856,65.856,-354.126,0,0,0,
,0.701,0.525,0.172,-166.626,105.774,-344.971,0,0,0,
,0.8,0.554,0.224,-39.917,140.38,-337.525,0,0,0,
,0.913,0.568,0.256,76.782,166.076,-334.717,0,0,0,
,1.003,0.575,0.264,148.803,183.593,-334.412,0,0,0,
,1.09,0.581,0.27,161.865,200.622,-329.102,0,0,0,
,1.146,0.592,0.292,152.343,204.712,-314.27,0,0,0,
,1.175,0.59,0.328,132.812,195.068,-281.006,0,0,0,
,1.155,0.548,0.348,77.026,167.846,-222.596,0,0,0,
,1.105,0.501,0.346,-20.935,140.625,-147.583,0,0,0,
,1.084,0.47,0.344,-118.287,126.403,-67.566,0,0,0,
,1.122,0.488,0.353,-169.8,111.633,13.305,0,0,0,
,1.144,0.536,0.37,-155.396,80.383,75.195,0,0,0,
,1.124,0.543,0.363,-139.527,30.09,143.737,0,0,0,
,1.046,0.521,0.337,-152.771,-24.476,228.942,0,0,0,
,0.939,0.489,0.308,-168.091,-75.562,330.444,0,0,0,
,0.856,0.444,0.278,-164.917,-99.732,444.458,0,0,0,
,0.874,0.4,0.237,-142.151,-106.751,543.945,0,0,0,
,0.927,0.385,0.2,-105.164,-112.549,615.051,0,0,0,
,0.992,0.383,0.193,-52.613,-109.742,649.047,0,0,0,
,1.063,0.396,0.194,-21.912,-122.193,663.513,0,0,0,
,1.081,0.413,0.184,-11.841,-147.767,662.475,0,0,0,
,1.078,0.427,0.171,-13.428,-166.932,656.921,0,0,0,
,0.925,0.403,0.106,100.891,-167.237,611.877,0,0,0,
,0.887,0.333,0.093,177.673,-152.222,575.744,0,0,0,
,0.858,0.306,0.089,206.909,-132.752,571.777,0,0,0,
,0.862,0.318,0.091,243.408,-114.563,564.209,0,0,0,
,0.893,0.315,0.077,277.832,-111.268,551.147,0,0,0,
,0.867,0.315,0.062,319.702,-114.136,518.31,0,0,0,
,0.843,0.307,0.039,350.647,-104.248,479.248,0,0,0,
,0.826,0.313,0.028,368.591,-93.506,430.908,0,0,0,
,0.795,0.306,0.041,374.878,-87.342,383.789,0,0,0,
,0.763,0.287,0.055,347.534,-85.45,330.383,0,0,0,
,0.736,0.297,0.074,312.927,-82.764,284.362,0,0,0,
,0.723,0.306,0.078,293.09,-79.346,233.52,0,0,0,
,0.729,0.305,0.074,276.855,-76.05,173.706,0,0,0,
,0.752,0.335,0.085,272.766,-73.914,110.29,0,0,0,
,0.781,0.358,0.106,307.251,-71.106,50.048,0,0,0,
,0.825,0.355,0.12,337.768,-74.83,-8.667,0,0,0,
,0.859,0.353,0.133,341.735,-81.604,-63.538,0,0,0,
,0.885,0.351,0.147,336.731,-90.882,-104.737,0,0,0,
,0.905,0.335,0.165,318.115,-104.371,-132.386,0,0,0,
,0.925,0.311,0.171,263.244,-118.409,-153.321,0,0,0,
,0.952,0.295,0.175,179.87,-128.907,-167.908,0,0,0,
,0.943,0.28,0.178,75.439,-143.311,-182.923,0,0,0,
,0.916,0.262,0.195,-60.669,-158.265,-201.294,0,0,0,
,0.89,0.245,0.212,-198.67,-168.702,-222.535,0,0,0,
,0.907,0.259,0.22,-347.657,-178.04,-255.433,0,0,0,
,0.944,0.294,0.221,-449.707,-189.82,-313.904,0,0,0,
,0.996,0.322,0.218,-511.17,-196.289,-401.612,0,0,0,
,1.057,0.355,0.194,-573.243,-202.576,-474.06,0,0,0,
,1.046,0.427,0.159,-764.344,-244.385,-764.1,0,0,0,
,0.959,0.402,0.132,-878.907,-251.77,-768.067,0,0,0,
,0.915,0.393,0.114,-996.399,-253.479,-747.986,0,0,0,
,0.887,0.382,0.114,-1057.129,-239.991,-714.478,0,0,0,
,0.894,0.386,0.13,-1076.05,-211.609,-673.584,0,0,0,
,0.917,0.431,0.156,-1050.354,-192.261,-640.992,0,0,0,
,0.936,0.474,0.164,-985.901,-168.702,-608.033,0,0,0,
,0.946,0.515,0.155,-884.4,-145.081,-569.886,0,0,0,
,0.933,0.539,0.151,-759.278,-121.399,-539.063,0,0,0,
,0.905,0.551,0.16,-611.329,-93.811,-508.057,0,0,0,
,0.876,0.491,0.214,-541.565,-80.506,-485.596,0,0,0,
,0.844,0.55,0.335,-612.122,-88.746,-423.768,0,0,0,
,0.874,0.557,0.432,-654.114,-115.845,-386.963,0,0,0,
,0.829,0.574,0.453,-638.489,-149.292,-357.544,0,0,0,
,0.811,0.534,0.363,-608.704,-136.536,-342.347,0,0,0,
,0.822,0.483,0.284,-627.869,-136.841,-335.328,0,0,0,
,0.797,0.599,0.261,-513.489,-129.761,-300.354,0,0,0,
,0.818,0.666,0.24,-207.093,-106.324,-262.024,0,0,0,
,0.823,0.508,0.242,-12.146,-95.948,-235.596,0,0,0,
,0.823,0.484,0.267,33.935,-74.28,-191.163,0,0,0,
,0.864,0.442,0.31,32.775,-74.036,-168.091,0,0,0,
,0.842,0.399,0.347,-27.771,-85.022,-109.864,0,0,0,
,0.85,0.398,0.337,-77.332,-83.13,-88.379,0,0,0,
,0.839,0.409,0.308,-58.655,-75.928,-61.036,0,0,0,
,0.825,0.413,0.283,15.014,-56.397,-43.274,0,0,0,
,0.838,0.429,0.273,117.92,-35.462,-25.696,0,0,0,
,0.851,0.406,0.267,236.816,-21.729,-14.222,0,0,0,
,0.827,0.351,0.264,282.47,-12.024,-3.174,0,0,0,
,0.825,0.299,0.283,287.719,1.403,2.502,0,0,0,
,0.855,0.254,0.304,279.235,4.699,0.976,0,0,0,
,0.866,0.22,0.323,277.71,0.427,-0.855,0,0,0,
,0.898,0.206,0.327,309.753,1.586,-11.658,0,0,0,
,0.934,0.194,0.321,366.333,-7.019,-23.865,0,0,0,
,0.952,0.163,0.308,388.549,-22.156,-37.171,0,0,0,
,0.944,0.151,0.285,328.613,-39.795,-39.795,0,0,0,
,0.937,0.178,0.257,272.033,-52.613,-30.701,0,0,0,
,0.936,0.161,0.257,189.453,-77.82,-32.959,0,0,0,
,0.919,0.122,0.278,90.21,-112.977,-26.856,0,0,0,
,0.906,0.098,0.288,-89.966,-142.823,-16.48,0,0,0,
,0.882,0.101,0.272,-232.544,-163.025,-14.344,0,0,0,
,0.853,0.149,0.258,-333.313,-170.166,-28.87,0,0,0,
,0.83,0.164,0.26,-378.968,-167.847,-60.425,0,0,0,
,0.795,0.194,0.276,-398.438,-161.744,-89.539,0,0,0,
,0.779,0.219,0.302,-387.146,-144.043,-122.071,0,0,0,
,0.771,0.235,0.316,-369.263,-129.944,-151.429,0,0,0,
,0.767,0.247,0.312,-359.07,-114.441,-176.27,0,0,0,
,0.769,0.257,0.317,-372.01,-105.896,-192.261,0,0,0,
,0.763,0.273,0.316,-407.898,-100.159,-202.21,0,0,0,
,0.762,0.296,0.325,-450.135,-97.535,-210.633,0,0,0,
,0.755,0.321,0.335,-479.676,-92.774,-215.027,0,0,0,
,0.729,0.365,0.338,-459.9,-80.14,-214.234,0,0,0,
,0.724,0.403,0.34,-395.386,-61.219,-210.633,0,0,0,
,0.716,0.411,0.366,-306.458,-40.101,-204.346,0,0,0,
,0.702,0.416,0.397,-201.294,-16.053,-196.412,0,0,0,
,0.723,0.428,0.438,-65.857,10.864,-185.547,0,0,0,
,0.742,0.417,0.481,58.349,25.024,-178.65,0,0,0,
,0.757,0.406,0.523,162.475,31.738,-173.706,0,0,0,
,0.756,0.382,0.536,226.379,20.874,-162.171,0,0,0,
,0.78,0.342,0.546,211.303,6.53,-146.729,0,0,0,
,0.836,0.322,0.528,131.836,-11.048,-137.085,0,0,0,
,0.91,0.313,0.493,35.217,-33.02,-137.33,0,0,0,
,0.981,0.339,0.456,-16.602,-54.383,-138.306,0,0,0,
,1.009,0.325,0.426,-103.882,-79.407,-150.574,0,0,0,
,0.983,0.319,0.425,-245.606,-98.877,-146.424,0,0,0,
,0.965,0.338,0.422,-364.685,-104.248,-123.597,0,0,0,
,0.947,0.357,0.427,-418.335,-104.554,-93.14,0,0,0,
,0.995,0.358,0.409,-460.389,-88.562,-59.205,0,0,0,
,1.122,0.392,0.373,-497.742,-65.735,-52.491,0,0,0,
,1.206,0.453,0.361,-514.344,-54.2,-66.224,0,0,0,
,1.239,0.512,0.358,-503.418,-42.115,-79.956,0,0,0,
,1.206,0.555,0.364,-443.665,-40.039,-85.694,0,0,0,
,1.05,0.545,0.367,-338.99,-42.298,-52.552,0,0,0,
,0.899,0.491,0.359,-210.816,-21.241,11.047,0,0,0,
,0.843,0.437,0.334,-71.228,12.512,90.698,0,0,0,
,0.856,0.416,0.299,71.96,36.438,155.456,0,0,0,
,0.863,0.406,0.269,191.65,43.212,194.946,0,0,0,
,0.885,0.395,0.237,241.699,42.297,207.275,0,0,0,
,0.904,0.396,0.215,229.919,25.756,201.66,0,0,0,
,0.874,0.39,0.216,188.598,-4.212,196.655,0,0,0,
,0.81,0.358,0.221,138.733,-33.997,197.387,0,0,0,
,0.746,0.326,0.204,77.27,-52.247,216.003,0,0,0,
,0.692,0.313,0.192,35.278,-65.674,239.746,0,0,0,
,0.651,0.301,0.188,9.155,-71.717,263.794,0,0,0,
,0.622,0.298,0.185,-22.278,-68.726,283.874,0,0,0,
,0.611,0.303,0.186,-34.485,-59.144,286.865,0,0,0,
,0.62,0.31,0.197,-28.992,-51.209,280.456,0,0,0,
,0.646,0.318,0.203,-13.672,-38.697,261.657,0,0,0,
,0.684,0.324,0.205,11.108,-31.128,227.356,0,0,0,
,0.719,0.33,0.21,39.733,-25.208,178.772,0,0,0,
,0.763,0.333,0.222,54.077,-23.255,126.403,0,0,0,
,0.785,0.33,0.238,53.955,-29.541,77.026,0,0,0,
,0.841,0.323,0.241,49.804,-35.279,37.658,0,0,0,
,0.844,0.298,0.238,33.813,-46.326,13.794,0,0,0,
,0.879,0.279,0.244,-9.4,-57.007,-0.55,0,0,0,
,0.949,0.273,0.231,-58.899,-68.787,-19.043,0,0,0,
,1.032,0.266,0.226,-134.339,-85.633,-45.472,0,0,0,
,1.113,0.278,0.211,-238.953,-101.685,-83.374,0,0,0,
,1.166,0.302,0.203,-341.248,-117.127,-135.071,0,0,0,
,1.212,0.326,0.193,-430.481,-128.113,-196.839,0,0,0,
,1.243,0.334,0.163,-540.833,-135.743,-262.024,0,0,0,
,1.206,0.363,0.149,-621.094,-134.644,-320.313,0,0,0,
,1.127,0.379,0.156,-673.829,-124.817,-366.517,0,0,0,
,1.07,0.396,0.164,-695.862,-102.723,-387.024,0,0,0,
,1.032,0.417,0.179,-672.852,-83.252,-383.545,0,0,0,
,0.944,0.421,0.198,-595.276,-75.501,-352.173,0,0,0,
,0.839,0.395,0.2,-514.344,-60.975,-299.683,0,0,0,
,0.838,0.373,0.174,-407.593,-28.138,-232.361,0,0,0,
,0.908,0.36,0.147,-317.688,-5.066,-180.42,0,0,0,
,0.937,0.364,0.148,-219.483,7.202,-148.255,0,0,0,
,0.967,0.349,0.155,-185.059,18.005,-144.715,0,0,0,
,0.981,0.369,0.175,-203.858,19.775,-155.762,0,0,0,
,0.926,0.374,0.193,-237.61,11.84,-166.016,0,0,0,
,0.629,0.325,0.183,-322.449,13.183,-130.555,0,0,0,
,0.56,0.321,0.181,-306.519,28.808,-108.033,0,0,0,
,0.513,0.318,0.189,-293.702,48.523,-94.849,0,0,0,
,0.492,0.332,0.202,-284.119,72.021,-97.84,0,0,0,
,0.502,0.327,0.223,-279.602,89.904,-108.704,0,0,0,
,0.522,0.378,0.225,-229.248,117.553,-122.01,0,0,0,
,0.563,0.391,0.236,-116.944,145.813,-166.687,0,0,0,
,0.612,0.385,0.281,-51.636,164.245,-208.741,0,0,0,
,0.662,0.41,0.34,-9.949,174.56,-242.127,0,0,0,
,0.698,0.446,0.381,55.053,175.659,-259.888,0,0,0,
,0.728,0.456,0.39,143.371,171.386,-256.043,0,0,0,
,0.784,0.459,0.383,239.807,173.828,-239.38,0,0,0,
,0.897,0.404,0.422,323.974,168.945,-236.695,0,0,0,
,1.024,0.369,0.463,263.244,143.188,-213.318,0,0,0,
,1.118,0.415,0.477,126.403,93.017,-195.557,0,0,0,
,1.19,0.504,0.435,71.533,43.518,-177.613,0,0,0,
,1.207,0.534,0.355,142.273,7.08,-156.739,0,0,0,
,1.169,0.497,0.3,230.407,-4.395,-107.3,0,0,0,
,1.172,0.436,0.275,246.093,6.042,-64.026,0,0,0,
,1.302,0.399,0.303,188.049,14.465,-38.819,0,0,0,
,1.333,0.42,0.338,93.811,-11.902,-32.105,0,0,0,
,1.25,0.491,0.346,24.78,-47.242,-20.874,0,0,0,
,1.126,0.528,0.317,-32.898,-84.778,18.066,0,0,0,
,0.95,0.508,0.272,-39.917,-115.784,107.36,0,0,0,
,0.835,0.47,0.215,31.005,-119.629,200.073,0,0,0,
,0.84,0.449,0.179,165.893,-104.371,266.54,0,0,0,
,0.908,0.406,0.159,289.184,-106.08,328.857,0,0,0,
,0.943,0.409,0.142,351.623,-114.197,365.295,0,0,0,
,0.983,0.422,0.126,375.427,-124.207,363.647,0,0,0,
,1.024,0.437,0.12,386.291,-135.254,351.928,0,0,0,
,1.04,0.437,0.121,374.939,-158.448,341.003,0,0,0,
,0.869,0.342,0.085,132.385,-237.305,393.982,0,0,0,
,0.82,0.324,0.063,58.654,-245.362,450.866,0,0,0,
,0.789,0.304,0.055,23.437,-246.155,506.347,0,0,0,
,0.776,0.297,0.051,-2.93,-237.183,554.565,0,0,0,
,0.773,0.309,0.05,-20.081,-229.432,591.919,0,0,0,
,0.778,0.314,0.057,-16.053,-214.051,613.525,0,0,0,
,0.796,0.308,0.048,-8.789,-202.149,619.995,0,0,0,
,0.803,0.299,0.037,-13.977,-188.294,606.811,0,0,0,
,0.797,0.295,0.042,-14.893,-170.35,578.613,0,0,0,
,0.768,0.294,0.053,-9.339,-150.757,542.114,0,0,0,
,0.73,0.281,0.059,-7.874,-129.456,502.502,0,0,0,
,0.718,0.277,0.078,-4.761,-105.164,460.083,0,0,0,
,0.72,0.262,0.092,3.479,-79.102,405.212,0,0,0,
,0.748,0.251,0.114,8.239,-52.979,337.341,0,0,0,
,0.786,0.251,0.135,8.85,-33.081,257.263,0,0,0,
,0.845,0.254,0.139,3.234,-15.137,142.944,0,0,0,
,0.88,0.257,0.14,-19.593,-6.775,45.349,0,0,0,
,0.897,0.26,0.138,-65.918,0.305,-75.623,0,0,0,
,0.918,0.274,0.141,-120.972,11.962,-202.637,0,0,0,
,0.966,0.287,0.144,-178.711,28.259,-338.135,0,0,0,
,1.034,0.302,0.16,-230.53,39.062,-474.671,0,0,0,
,1.091,0.321,0.176,-278.504,41.381,-609.681,0,0,0,
,1.139,0.345,0.194,-329.529,41.87,-730.713,0,0,0,
,1.15,0.367,0.208,-377.93,30.395,-826.355,0,0,0,
,1.087,0.38,0.208,-433.533,15.014,-864.624,0,0,0,
,1.007,0.376,0.194,-486.817,4.577,-860.779,0,0,0,
,0.958,0.364,0.182,-504.395,6.897,-822.632,0,0,0,
,0.971,0.326,0.158,-507.996,24.475,-774.476,0,0,0,
,1.045,0.337,0.157,-490.174,49.804,-727.478,0,0,0,
,1.102,0.377,0.172,-455.323,56.945,-692.261,0,0,0,
,1.132,0.438,0.17,-435.303,56.091,-653.992,0,0,0,
,1.055,0.464,0.145,-412.781,29.602,-573.243,0,0,0,
,0.956,0.45,0.134,-408.326,19.592,-515.931,0,0,0,
,0.854,0.437,0.126,-399.109,18.92,-440.308,0,0,0,
,0.788,0.406,0.121,-372.437,26.062,-366.822,0,0,0,
,0.746,0.344,0.113,-347.168,35.583,-299.256,0,0,0,
,0.726,0.378,0.123,-342.286,41.259,-255.86,0,0,0,
,0.729,0.394,0.131,-357.483,44.738,-232.605,0,0,0,
,0.755,0.409,0.13,-373.78,41.748,-220.826,0,0,0,
,0.766,0.419,0.137,-381.226,34.912,-217.286,0,0,0,
,0.796,0.413,0.143,-383.057,28.015,-214.417,0,0,0,
,0.772,0.403,0.151,-395.325,12.329,-210.144,0,0,0,
,0.72,0.4,0.152,-419.556,5.188,-190.064,0,0,0,
,0.677,0.4,0.161,-423.89,9.948,-155.64,0,0,0,
,0.686,0.396,0.186,-406.373,23.071,-117.859,0,0,0,
,0.721,0.41,0.218,-377.808,27.71,-89.661,0,0,0,
,0.771,0.428,0.24,-357.117,24.78,-66.834,0,0,0,
,0.81,0.436,0.244,-344.544,11.474,-53.894,0,0,0,
,0.836,0.447,0.234,-343.934,-2.991,-36.866,0,0,0,
,0.839,0.451,0.223,-333.191,-15.625,-18.128,0,0,0,
,0.859,0.457,0.229,-310.914,-20.813,-0.672,0,0,0,
,0.887,0.471,0.254,-266.663,-28.748,17.883,0,0,0,
,0.906,0.474,0.275,-249.756,-46.204,51.269,0,0,0,
,0.917,0.463,0.266,-233.826,-73.426,95.459,0,0,0,
,0.946,0.452,0.264,-224.06,-98.389,155.395,0,0,0,
,1.008,0.425,0.252,-215.271,-127.015,218.017,0,0,0,
,1.12,0.417,0.26,-213.135,-158.204,273.071,0,0,0,
,1.214,0.427,0.272,-212.281,-203.492,321.716,0,0,0,
,1.228,0.401,0.243,-243.287,-269.41,366.333,0,0,0,
,1.225,0.366,0.197,-322.693,-326.539,419.067,0,0,0,
,1.249,0.35,0.176,-413.758,-364.441,474.487,0,0,0,
,1.281,0.338,0.172,-480.469,-387.33,512.146,0,0,0,
,1.317,0.342,0.174,-515.809,-394.959,528.93,0,0,0,
,1.178,0.376,0.143,-505.738,-408.081,524.231,0,0,0,
,1.076,0.356,0.136,-465.821,-387.879,530.212,0,0,0,
,1.026,0.333,0.155,-351.99,-366.272,543.518,0,0,0,
,1.056,0.222,0.214,-229.615,-350.831,540.405,0,0,0,
,1.105,0.191,0.2,-160.157,-360.962,516.601,0,0,0,
,1.025,0.135,0.198,-10.56,-386.231,479.248,0,0,0,
,0.904,0.062,0.147,-31.373,-420.166,356.262,0,0,0,
,0.859,0.082,0.125,-151.917,-442.505,287.231,0,0,0,
,0.835,0.097,0.1,-271.363,-477.051,191.04,0,0,0,
,0.803,0.117,0.077,-407.593,-531.128,89.172,0,0,0,
,0.777,0.128,0.06,-566.59,-562.745,-33.265,0,0,0,
,0.773,0.171,0.05,-735.047,-621.705,-138.123,0,0,0,
,0.799,0.205,0.027,-857.911,-684.082,-227.967,0,0,0,
,0.877,0.221,-0.002,-945.74,-756.165,-307.373,0,0,0,
,0.925,0.241,-0.053,-1013.001,-837.037,-376.343,0,0,0,
,0.906,0.224,-0.105,-1098.877,-900.635,-432.068,0,0,0,
,0.906,0.235,-0.185,-1230.408,-945.862,-488.16,0,0,0,
,0.932,0.269,-0.194,-1377.442,-971.131,-547.303,0,0,0,
,0.962,0.303,-0.193,-1486.878,-980.896,-606.019,0,0,0,
,0.999,0.32,-0.204,-1565.491,-982.972,-671.387,0,0,0,
,1.042,0.371,-0.222,-1620.606,-970.52,-742.493,0,0,0,
,1.077,0.444,-0.22,-1636.475,-943.36,-815.43,0,0,0,
,1.05,0.498,-0.19,-1593.445,-909.913,-877.137,0,0,0,
,0.995,0.517,-0.137,-1518.433,-858.338,-917.481,0,0,0,
,0.94,0.516,-0.073,-1400.086,-790.162,-936.158,0,0,0,
,0.902,0.49,-0.009,-1255.433,-734.498,-946.106,0,0,0,
,0.885,0.506,0.009,-1186.829,-681.885,-968.323,0,0,0,
,0.882,0.461,-0.007,-1131.348,-652.649,-946.473,0,0,0,
,0.874,0.594,-0.011,-1067.688,-644.165,-889.222,0,0,0,
,0.872,0.411,-0.118,-1048.89,-634.461,-938.233,0,0,0,
,0.828,0.558,-0.172,-1021.424,-601.258,-874.268,0,0,0,
,0.817,0.494,-0.134,-935.975,-558.96,-922.974,0,0,0,
,0.781,0.514,-0.083,-945.069,-515.076,-897.4,0,0,0,
,0.76,0.547,-0.021,-905.457,-464.844,-886.475,0,0,0,
,0.756,0.549,0.032,-861.634,-413.819,-873.108,0,0,0,
,0.778,0.562,0.054,-787.598,-362.244,-840.21,0,0,0,
,0.802,0.561,0.077,-674.683,-307.679,-816.59,0,0,0,
,0.842,0.58,0.134,-588.746,-258.179,-785.889,0,0,0,
,0.912,0.586,0.136,-537.354,-215.577,-733.277,0,0,0,
,0.941,0.593,0.132,-506.226,-183.106,-677.369,0,0,0,
,0.991,0.587,0.135,-487.671,-144.593,-623.902,0,0,0,
,1.061,0.59,0.139,-502.747,-108.582,-562.5,0,0,0,
,1.096,0.599,0.141,-543.946,-84.29,-501.16,0,0,0,
,1.076,0.597,0.158,-585.877,-56.641,-435.547,0,0,0,
,1.046,0.6,0.188,-621.827,-28.687,-365.052,0,0,0,
,1.01,0.602,0.217,-632.874,-5.433,-284.852,0,0,0,
,0.982,0.58,0.251,-623.169,8.544,-208.619,0,0,0,
,0.978,0.582,0.273,-596.009,23.986,-133.973,0,0,0,
,1.024,0.598,0.29,-543.58,31.799,-75.806,0,0,0,
,1.001,0.607,0.29,-473.755,24.292,-29.48,0,0,0,
,0.939,0.599,0.285,-413.88,20.446,21.667,0,0,0,
,0.885,0.598,0.28,-327.637,16.967,85.083,0,0,0,
,0.867,0.574,0.29,-193.238,23.132,153.564,0,0,0,
,0.924,0.536,0.28,-61.585,29.968,224.243,0,0,0,
,0.985,0.504,0.259,20.507,21.728,289.489,0,0,0,
,0.992,0.493,0.238,74.401,5.859,333.068,0,0,0,
,0.993,0.477,0.212,112.976,-6.531,366.516,0,0,0,
,0.998,0.465,0.214,140.93,-13.062,388.61,0,0,0,
,1.019,0.461,0.226,155.09,-19.165,406.005,0,0,0,
,1.014,0.443,0.243,152.71,-35.34,426.33,0,0,0,
,0.922,0.395,0.243,154.846,-63.111,498.901,0,0,0,
,0.865,0.351,0.232,153.869,-68.177,552.124,0,0,0,
,0.827,0.326,0.225,154.419,-69.092,609.558,0,0,0,
,0.798,0.311,0.212,148.925,-66.468,662.109,0,0,0,
,0.787,0.297,0.206,135.864,-63.904,700.927,0,0,0,
,0.788,0.29,0.2,119.567,-64.759,718.567,0,0,0,
,0.8,0.289,0.188,115.844,-62.5,718.139,0,0,0,
,0.83,0.275,0.177,150.268,-55.909,664.795,0,0,0,
,0.84,0.265,0.194,185.73,-47.73,621.521,0,0,0,
,0.843,0.245,0.197,206.543,-49.683,567.138,0,0,0,
,0.832,0.256,0.219,173.462,-58.594,502.197,0,0,0,
,0.837,0.257,0.233,137.817,-68.482,453.064,0,0,0,
,0.834,0.226,0.228,106.14,-77.759,394.897,0,0,0,
,0.831,0.16,0.215,63.11,-82.642,334.106,0,0,0,
,0.849,0.174,0.21,-6.043,-86.426,263.122,0,0,0,
,0.869,0.174,0.212,-84.107,-87.708,179.016,0,0,0,
,0.911,0.192,0.222,-156.128,-89.051,71.411,0,0,0,
,0.965,0.211,0.23,-227.784,-90.882,-53.833,0,0,0,
,1.013,0.238,0.224,-309.937,-99.06,-191.407,0,0,0,
,1.087,0.276,0.204,-402.1,-107.972,-334.717,0,0,0,
,1.161,0.292,0.169,-507.691,-126.099,-477.967,0,0,0,
,1.179,0.306,0.132,-621.46,-146.546,-611.695,0,0,0,
,1.128,0.321,0.124,-718.323,-152.649,-713.379,0,0,0,
,1.08,0.348,0.124,-793.946,-146.729,-781.617,0,0,0,
,1.038,0.382,0.15,-812.439,-138.428,-808.777,0,0,0,
,0.975,0.394,0.202,-762.085,-137.574,-794.556,0,0,0,
,0.964,0.382,0.222,-663.025,-134.034,-749.756,0,0,0,
,1.006,0.371,0.196,-543.519,-135.56,-686.829,0,0,0,
,1.049,0.363,0.151,-424.378,-145.752,-623.658,0,0,0,
,1.052,0.364,0.096,-337.769,-153.809,-568.055,0,0,0,
,1.021,0.364,0.062,-311.097,-155.64,-527.466,0,0,0,
,0.977,0.376,0.063,-335.633,-156.006,-494.629,0,0,0,
,0.919,0.382,0.081,-376.038,-156.006,-468.995,0,0,0,
,0.842,0.376,0.1,-427.491,-153.748,-437.256,0,0,0,
,0.718,0.375,0.108,-477.784,-152.588,-402.771,0,0,0,
,0.629,0.375,0.104,-511.78,-147.4,-362.854,0,0,0,
,0.586,0.38,0.104,-512.33,-137.391,-322.815,0,0,0,
,0.532,0.377,0.107,-477.906,-121.827,-286.133,0,0,0,
,0.481,0.39,0.115,-432.801,-102.967,-259.827,0,0,0,
,0.44,0.411,0.145,-359.864,-73.792,-246.399,0,0,0,
,0.449,0.431,0.161,-266.602,-34.974,-251.709,0,0,0,
,0.506,0.453,0.207,-159.913,4.15,-276.795,0,0,0,
,0.59,0.487,0.265,-40.833,31.189,-308.594,0,0,0,
,0.654,0.521,0.306,98.938,48.156,-342.225,0,0,0,
,0.831,0.552,0.349,342.712,73.12,-364.747,0,0,0,
,0.932,0.549,0.364,433.288,78.735,-342.713,0,0,0,
,1.014,0.526,0.374,487.609,72.57,-300.782,0,0,0,
,1.242,0.464,0.379,380.127,17.517,-76.905,0,0,0,
,1.234,0.437,0.375,280.822,-25.208,19.897,0,0,0,
,1.168,0.403,0.353,136.108,-60.486,123.596,0,0,0,
,1.118,0.373,0.317,-14.588,-73.365,224.487,0,0,0,
,1.134,0.404,0.303,-81.055,-65.186,303.405,0,0,0,
,1.076,0.528,0.289,-102.845,-60.791,364.074,0,0,0,
,1.006,0.579,0.273,-31.006,-67.81,378.479,0,0,0,
,0.926,0.567,0.231,82.275,-70.862,408.386,0,0,0,
,0.928,0.52,0.162,212.158,-53.772,445.8,0,0,0,
,0.985,0.479,0.105,340.454,-40.65,476.989,0,0,0,
,1.015,0.457,0.071,462.89,-27.405,492.309,0,0,0,
,1.076,0.447,0.051,552.551,-9.644,489.563,0,0,0,
,1.133,0.455,0.043,599.304,1.22,476.44,0,0,0,
,1.132,0.469,0.057,611.389,3.479,464.111,0,0,0,
,1.057,0.456,0.062,599.731,-4.029,466.552,0,0,0,
,0.955,0.41,0.056,575.317,-9.705,501.403,0,0,0,
,0.857,0.362,0.055,529.968,-11.353,561.584,0,0,0,
,0.8,0.327,0.044,475.28,-10.56,629.699,0,0,0,
,0.767,0.302,0.029,433.471,-11.475,699.707,0,0,0,
,0.76,0.303,0.01,416.931,-3.724,754.333,0,0,0,
,0.768,0.315,0.001,414.55,5.371,792.907,0,0,0,
,0.783,0.307,0.001,419.86,12.634,805.114,0,0,0,
,0.789,0.292,0,408.447,17.517,798.706,0,0,0,
,0.773,0.295,0.018,348.693,44.067,669.006,0,0,0,
,0.759,0.289,0.04,322.509,54.687,612.732,0,0,0,
,0.76,0.293,0.058,303.1,66.711,554.626,0,0,0,
,0.794,0.285,0.088,305.908,77.819,494.14,0,0,0,
,0.857,0.286,0.105,325.439,90.148,426.086,0,0,0,
,0.971,0.268,0.128,332.031,75.073,202.331,0,0,0,
,0.954,0.249,0.132,260.376,65.246,130.737,0,0,0,
,0.947,0.216,0.131,153.198,68.054,32.714,0,0,0,
,0.963,0.207,0.15,26.733,84.899,-47.303,0,0,0,
,0.96,0.226,0.214,-90.699,90.82,-155.884,0,0,0,
,0.928,0.248,0.22,-184.754,101.928,-271.058,0,0,0,
,0.962,0.28,0.237,-250.184,118.286,-384.583,0,0,0,
,0.981,0.313,0.252,-273.865,110.778,-490.845,0,0,0,
,0.925,0.319,0.259,-275.879,95.886,-577.942,0,0,0,
,0.898,0.315,0.237,-282.837,84.228,-646.058,0,0,0,
,0.928,0.336,0.208,-302.124,91.186,-705.14,0,0,0,
,1.142,0.381,0.261,-167.054,160.217,-935.547,0,0,0,
,1.161,0.406,0.32,-153.504,169.677,-995.911,0,0,0,
,1.12,0.42,0.359,-159.913,156.311,-1009.156,0,0,0,
,1.007,0.394,0.376,-244.263,132.568,-985.535,0,0,0,
,0.883,0.373,0.34,-385.315,115.173,-932.19,0,0,0,
,0.777,0.376,0.292,-464.112,113.647,-846.985,0,0,0,
,0.704,0.371,0.275,-483.704,126.22,-811.829,0,0,0,
,0.683,0.43,0.296,-401.673,144.043,-764.71,0,0,0,
,0.67,0.497,0.331,-202.942,166.992,-744.446,0,0,0,
,0.681,0.543,0.352,18.005,184.509,-739.197,0,0,0,
,0.717,0.6,0.36,213.745,196.838,-732.056,0,0,0,
,0.824,0.765,0.272,595.459,174.011,-630.799,0,0,0,
,0.821,0.766,0.259,692.016,156.677,-535.34,0,0,0,
,0.827,0.711,0.246,768.982,143.798,-411.927,0,0,0,
,0.877,0.644,0.227,801.757,128.051,-270.569,0,0,0,
,0.96,0.576,0.196,801.147,112.243,-124.573,0,0,0,
,1.026,0.515,0.173,776.55,92.224,1.648,0,0,0,
,1.058,0.502,0.176,719.421,60.913,111.816,0,0,0,
,1.052,0.492,0.191,623.535,25.024,208.679,0,0,0,
,0.989,0.482,0.202,501.526,-1.77,300.476,0,0,0,
,1.001,0.468,0.191,393.066,-7.325,376.831,0,0,0,
,1.082,0.471,0.166,276.428,-6.653,444.458,0,0,0,
,1.154,0.503,0.151,203.857,-0.55,482.849,0,0,0,
,1.22,0.546,0.116,194.58,16.235,494.018,0,0,0,
,1.275,0.607,0.096,247.741,41.809,490.661,0,0,0,
,1.223,0.662,0.124,397.094,46.752,494.506,0,0,0,
,1.09,0.622,0.129,585.815,41.565,529.724,0,0,0,
,1.029,0.542,0.081,741.272,50.17,599.182,0,0,0,
,1.058,0.472,0.006,897.827,55.114,667.297,0,0,0,
,1.158,0.364,-0.148,958.191,15.93,701.721,0,0,0,
,1.123,0.363,-0.15,831.543,-0.672,665.222,0,0,0,
,1.044,0.368,-0.134,696.472,-12.33,632.019,0,0,0,
,0.948,0.357,-0.104,574.096,-19.471,612.548,0,0,0,
,0.842,0.34,-0.098,479.431,-16.053,607.727,0,0,0,
,0.762,0.334,-0.103,431.396,3.112,611.938,0,0,0,
,0.713,0.334,-0.117,444.397,26.55,612.365,0,0,0,
,0.679,0.349,-0.133,514.038,54.26,604.553,0,0,0,
,0.686,0.356,-0.155,618.347,85.327,579.895,0,0,0,
,0.719,0.366,-0.165,737.365,106.079,537.597,0,0,0,
,0.837,0.339,-0.157,942.26,119.506,381.286,0,0,0,
,0.889,0.331,-0.127,927.429,112.243,338.989,0,0,0,
,0.932,0.299,-0.127,866.455,79.101,299.011,0,0,0,
,0.911,0.28,-0.111,763.61,50.659,278.076,0,0,0,
,0.944,0.275,-0.106,640.93,24.841,262.085,0,0,0,
,1.111,0.276,-0.093,219.177,-53.162,209.961,0,0,0,
,1.133,0.276,-0.084,79.589,-77.576,191.589,0,0,0,
,1.132,0.273,-0.059,-37.903,-94.666,181.762,0,0,0,
,1.147,0.278,-0.034,-150.574,-98.633,171.692,0,0,0,
,1.136,0.279,-0.011,-244.935,-100.769,160.034,0,0,0,
,1.129,0.282,0.002,-321.289,-83.313,138.366,0,0,0,
,1.15,0.293,0.011,-381.897,-59.021,103.332,0,0,0,
,1.094,0.302,0.043,-416.382,-30.274,58.105,0,0,0,
,0.987,0.312,0.084,-420.472,13.977,18.249,0,0,0,
,0.89,0.314,0.117,-389.222,73.364,-11.475,0,0,0,
,0.829,0.309,0.135,-305.664,138.427,-31.861,0,0,0,
,0.82,0.289,0.125,-200.257,208.984,-54.627,0,0,0,
,0.85,0.285,0.17,-90.271,278.381,-94.056,0,0,0,
,0.893,0.286,0.182,24.658,335.144,-157.044,0,0,0,
,0.947,0.291,0.197,104.736,386.352,-233.094,0,0,0,
,0.993,0.323,0.209,147.155,423.523,-313.172,0,0,0,
,0.994,0.343,0.211,161.682,449.524,-394.959,0,0,0,
,0.957,0.359,0.23,166.076,467.041,-463.623,0,0,0,
,0.899,0.346,0.24,162.658,473.205,-510.926,0,0,0,
,0.842,0.323,0.253,149.475,474.06,-532.349,0,0,0,
,0.807,0.305,0.25,136.596,474.365,-540.833,0,0,0,
,0.775,0.292,0.25,120.3,472.046,-543.519,0,0,0,
,0.772,0.299,0.252,98.999,469.909,-548.401,0,0,0,
,0.804,0.322,0.256,73.608,458.252,-555.115,0,0,0,
,0.817,0.352,0.265,57.983,438.903,-564.881,0,0,0,
,0.819,0.38,0.281,51.086,417.663,-572.022,0,0,0,
,0.808,0.398,0.299,55.603,392.089,-566.224,0,0,0,
,0.789,0.41,0.311,77.453,367.492,-547.669,0,0,0,
,0.771,0.408,0.332,109.924,343.628,-513.489,0,0,0,
,0.766,0.409,0.339,144.226,319.458,-463.074,0,0,0,
,0.785,0.411,0.354,180.053,296.692,-401.185,0,0,0,
,0.822,0.403,0.363,214.233,263.366,-343.262,0,0,0,
,0.876,0.396,0.363,236.572,226.135,-268.311,0,0,0,
,0.955,0.392,0.366,230.896,178.039,-230.042,0,0,0,
,1.046,0.394,0.356,192.443,117.797,-185.12,0,0,0,
,1.105,0.387,0.338,108.337,47.729,-141.724,0,0,0,
,1.12,0.373,0.309,-19.532,-27.588,-94.239,0,0,0,
,1.066,0.352,0.282,-169.434,-93.689,-39.673,0,0,0,
,1.012,0.358,0.265,-298.096,-136.658,27.587,0,0,0,
,1.015,0.354,0.26,-389.649,-166.443,91.98,0,0,0,
,1.042,0.364,0.277,-475.098,-198.426,150.512,0,0,0,
,1.099,0.384,0.278,-544.312,-237.915,196.35,0,0,0,
,1.154,0.39,0.265,-633.179,-296.265,242.37,0,0,0,
,1.18,0.392,0.193,-749.634,-359.253,281.555,0,0,0,
,1.109,0.413,0.128,-836.365,-404.297,318.115,0,0,0,
,0.982,0.426,0.089,-864.624,-411.316,370.91,0,0,0,
,0.872,0.428,0.07,-840.149,-383.423,450.073,0,0,0,
,0.834,0.423,0.082,-762.207,-338.501,533.752,0,0,0,
,0.867,0.411,0.101,-611.878,-287.842,622.192,0,0,0,
,0.893,0.376,0.103,-450.806,-250.367,686.584,0,0,0,
,0.886,0.373,0.102,-298.584,-216.431,714.904,0,0,0,
,0.921,0.404,0.112,-139.649,-180.542,710.144,0,0,0,
,1.07,0.418,0.139,18.371,-161.072,678.833,0,0,0,
,1.182,0.427,0.111,101.562,-179.444,637.451,0,0,0,
,1.143,0.41,0.073,134.826,-199.769,583.801,0,0,0,
,1.056,0.347,0.068,142.334,-197.632,552.124,0,0,0,
,1.139,0.339,0.137,159.912,-193.543,557.129,0,0,0,
,1.217,0.29,0.112,130.676,-235.413,583.252,0,0,0,
,1.069,0.228,0.123,64.941,-273.133,617.92,0,0,0,
,0.98,0.211,0.073,-2.991,-268.555,654.602,0,0,0,
,0.915,0.215,0.06,-75.989,-265.198,659.423,0,0,0,
,0.799,0.215,0.091,-145.386,-247.315,652.465,0,0,0,
,0.759,0.243,0.097,-138.611,-213.196,622.68,0,0,0,
,0.826,0.25,0.128,-117.066,-204.956,561.34,0,0,0,
,0.825,0.256,0.128,-137.269,-225.464,478.576,0,0,0,
,0.824,0.306,0.113,-138.184,-229.798,382.995,0,0,0,
,0.809,0.323,0.095,-107.911,-241.272,276.001,0,0,0,
,0.792,0.308,0.091,-68.543,-239.869,164.428,0,0,0,
,0.887,0.301,0.139,-13.306,-235.779,62.439,0,0,0,
,0.994,0.275,0.148,27.16,-274.781,-31.678,0,0,0,
,0.953,0.249,0.145,10.681,-324.341,-118.348,0,0,0,
,0.904,0.222,0.137,-72.815,-356.141,-183.228,0,0,0,
,0.888,0.203,0.155,-155.579,-373.902,-244.507,0,0,0,
,0.932,0.18,0.168,-273.743,-390.809,-297.913,0,0,0,
,0.922,0.162,0.183,-437.745,-416.565,-361.084,0,0,0,
,0.911,0.203,0.202,-630.433,-430.542,-443.055,0,0,0,
,0.944,0.258,0.193,-832.886,-445.923,-553.772,0,0,0,
,0.962,0.341,0.17,-1005.799,-462.891,-662.171,0,0,0,
,0.964,0.391,0.143,-1104.126,-483.643,-764.283,0,0,0,
,0.966,0.44,0.123,-1119.385,-495.24,-851.136,0,0,0,
,0.977,0.498,0.122,-1097.901,-493.226,-914.795,0,0,0,
,1.006,0.511,0.14,-1052.918,-479.065,-949.83,0,0,0,
,1.01,0.533,0.162,-1002.869,-471.741,-968.445,0,0,0,
,1.003,0.567,0.149,-978.455,-462.159,-974.061,0,0,0,
,0.967,0.579,0.116,-915.162,-458.252,-918.58,0,0,0,
,0.905,0.528,0.074,-775.879,-450.501,-854.187,0,0,0,
,0.865,0.452,0.036,-635.132,-432.557,-792.115,0,0,0,
,0.856,0.41,0.03,-561.219,-419.19,-732.727,0,0,0,
,0.863,0.409,0.035,-553.894,-412.171,-671.326,0,0,0,
,0.889,0.406,0.014,-614.869,-418.519,-616.394,0,0,0,
,0.908,0.406,-0.009,-729.248,-432.618,-583.802,0,0,0,
,0.929,0.404,-0.03,-903.931,-444.642,-552.063,0,0,0,
,0.91,0.384,-0.042,-1106.69,-462.708,-529.725,0,0,0,
,0.879,0.478,-0.023,-1242.798,-471.314,-477.295,0,0,0,
,0.842,0.49,0.004,-1301.331,-479.981,-460.144,0,0,0,
,0.802,0.5,0.012,-1352.662,-471.192,-435.547,0,0,0,
,0.793,0.498,0.016,-1368.409,-453.37,-418.641,0,0,0,
,0.796,0.508,0.024,-1368.775,-423.89,-395.752,0,0,0,
,0.803,0.548,0.049,-1310.791,-393.311,-374.512,0,0,0,
,0.807,0.565,0.068,-1195.252,-363.831,-363.404,0,0,0,
,0.786,0.557,0.074,-1023.011,-316.651,-362.183,0,0,0,
,0.789,0.51,0.062,-878.052,-261.597,-362.488,0,0,0,
,0.776,0.509,0.075,-783.936,-209.107,-358.887,0,0,0,
,0.794,0.518,0.104,-690.735,-156.189,-363.404,0,0,0,
,0.831,0.474,0.135,-669.312,-123.414,-366.333,0,0,0,
,0.868,0.482,0.153,-678.223,-105.835,-375.672,0,0,0,
,0.885,0.5,0.175,-699.158,-97.962,-408.387,0,0,0,
,0.903,0.55,0.148,-643.25,-77.881,-417.725,0,0,0,
,0.871,0.565,0.156,-477.417,-48.218,-441.224,0,0,0,
,0.87,0.564,0.175,-325.013,-17.334,-446.045,0,0,0,
,0.884,0.453,0.276,-360.291,-5.188,-466.614,0,0,0,
,0.948,0.464,0.325,-518.799,-0.611,-447.51,0,0,0,
,0.997,0.569,0.335,-543.519,-13.733,-443.543,0,0,0,
,1.024,0.645,0.305,-405.823,-25.818,-432.557,0,0,0,
,1.001,0.695,0.294,-159.913,-20.691,-403.504,0,0,0,
,0.969,0.688,0.334,102.783,-6.104,-362.305,0,0,0,
,0.963,0.648,0.387,316.467,6.347,-296.998,0,0,0,
,0.959,0.593,0.41,463.256,2.075,-212.22,0,0,0,
,0.944,0.536,0.388,554.565,-15.015,-115.906,0,0,0,
,0.929,0.466,0.328,598.205,-37.049,-21.729,0,0,0,
,0.94,0.409,0.279,570.984,-63.477,62.805,0,0,0,
,0.951,0.374,0.257,492.126,-101.99,121.46,0,0,0,
,0.943,0.343,0.258,380.371,-143.006,153.686,0,0,0,
,0.928,0.333,0.269,222.9,-189.515,178.588,0,0,0,
,0.914,0.345,0.269,42.968,-231.812,193.786,0,0,0,
,0.895,0.372,0.258,-80.506,-265.076,198.181,0,0,0,
,0.863,0.378,0.249,-175.721,-296.753,203.247,0,0,0,
,0.822,0.404,0.25,-222.413,-312.073,221.618,0,0,0,
,0.795,0.408,0.246,-230.774,-322.998,242.065,0,0,0,
,0.776,0.394,0.234,-220.032,-323.853,279.907,0,0,0,
,0.778,0.384,0.222,-213.196,-320.74,294.677,0,0,0,
,0.791,0.372,0.202,-202.393,-314.82,315.673,0,0,0,
,0.821,0.365,0.18,-191.346,-304.261,332.214,0,0,0,
,0.862,0.359,0.167,-186.097,-291.565,343.628,0,0,0,
,0.901,0.348,0.148,-200.318,-282.837,348.938,0,0,0,
,0.935,0.343,0.151,-228.516,-272.583,351.501,0,0,0,
,0.961,0.337,0.168,-255.86,-263.977,358.886,0,0,0,
,0.964,0.32,0.184,-286.377,-259.766,376.037,0,0,0,
,0.953,0.297,0.19,-316.712,-256.592,403.015,0,0,0,
,0.934,0.281,0.187,-344.971,-249.39,434.692,0,0,0,
,0.954,0.276,0.184,-356.019,-235.352,460.937,0,0,0,
,1.008,0.272,0.172,-360.352,-225.037,462.951,0,0,0,
,1.05,0.267,0.159,-362.488,-217.774,439.636,0,0,0,
,1.081,0.266,0.151,-368.653,-209.961,388.244,0,0,0,
,1.069,0.265,0.148,-392.456,-213.196,310.974,0,0,0,
,1.064,0.261,0.132,-431.458,-205.933,213.684,0,0,0,
,1.126,0.259,0.107,-497.315,-188.355,91.98,0,0,0,
,1.14,0.287,0.092,-574.707,-179.139,-54.383,0,0,0,
,1.032,0.322,0.114,-635.376,-171.692,-193.055,0,0,0,
,0.945,0.342,0.146,-680.848,-155.884,-306.275,0,0,0,
,0.857,0.312,0.158,-695.13,-125.184,-362.977,0,0,0,
,0.775,0.309,0.169,-678.345,-122.193,-383.057,0,0,0,
,0.718,0.282,0.177,-614.319,-89.6,-378.479,0,0,0,
,0.735,0.264,0.171,-510.682,-47.364,-378.174,0,0,0,
,0.788,0.28,0.155,-417.603,-17.762,-392.334,0,0,0,
,0.822,0.32,0.134,-350.281,0.488,-425.599,0,0,0,
,0.841,0.357,0.116,-295.899,18.615,-477.173,0,0,0,
,0.857,0.371,0.109,-263.428,33.203,-542.847,0,0,0,
,0.839,0.379,0.114,-254.761,43.09,-603.821,0,0,0,
,0.793,0.374,0.12,-258.484,57.067,-650.208,0,0,0,
,0.725,0.38,0.123,-275.635,75.561,-670.472,0,0,0,
,0.675,0.386,0.13,-283.448,97.595,-672.547,0,0,0,
,0.636,0.39,0.136,-274.598,122.558,-655.213,0,0,0,
,0.626,0.393,0.134,-231.69,151.306,-624.207,0,0,0,
,0.641,0.4,0.139,-162.171,178.894,-594.239,0,0,0,
,0.679,0.42,0.146,-81.788,204.589,-566.468,0,0,0,
,0.725,0.455,0.167,11.474,224.975,-540.528,0,0,0,
,0.77,0.474,0.208,69.763,233.642,-517.579,0,0,0,
,0.777,0.486,0.248,142.028,232.238,-488.038,0,0,0,
,0.79,0.476,0.278,196.96,227.905,-448.121,0,0,0,
,0.829,0.477,0.303,238.952,225.341,-404.541,0,0,0,
,0.884,0.48,0.328,270.446,221.13,-363.587,0,0,0,
,0.938,0.489,0.359,305.725,211.731,-323.548,0,0,0,
,1.013,0.5,0.374,332.275,198.364,-284.058,0,0,0,
,1.096,0.503,0.378,342.285,171.325,-242.615,0,0,0,
,1.156,0.51,0.38,322.998,136.657,-199.036,0,0,0,
,1.2,0.506,0.369,286.193,95.459,-147.339,0,0,0,
,1.224,0.495,0.351,234.924,49.011,-82.52,0,0,0,
,1.276,0.469,0.326,170.837,15.564,-12.635,0,0,0,
,1.384,0.471,0.314,108.947,-25.452,56.091,0,0,0,
,1.408,0.499,0.32,65.307,-91.187,123.23,0,0,0,
,1.286,0.508,0.302,36.987,-156.25,202.636,0,0,0,
,1.11,0.481,0.26,18.127,-200.44,291.442,0,0,0,
,0.953,0.44,0.234,6.469,-220.215,399.719,0,0,0,
,0.895,0.405,0.201,29.235,-214.112,503.234,0,0,0,
,0.909,0.39,0.17,72.021,-205.201,577.27,0,0,0,
,0.927,0.39,0.143,134.643,-201.233,611.328,0,0,0,
,0.948,0.418,0.125,195.495,-198.121,618.286,0,0,0,
,0.96,0.428,0.112,257.202,-199.83,605.468,0,0,0,
,0.973,0.453,0.104,311.95,-198.975,584.045,0,0,0,
,0.982,0.446,0.084,366.211,-203.736,551.818,0,0,0,
,0.944,0.417,0.077,424.865,-210.144,527.71,0,0,0,
,0.89,0.365,0.075,434.448,-214.6,508.911,0,0,0,
,0.844,0.35,0.068,392.578,-219.971,516.845,0,0,0,
,0.811,0.328,0.056,352.478,-221.009,535.583,0,0,0,
,0.788,0.309,0.042,311.767,-223.023,554.016,0,0,0,
,0.796,0.311,0.025,288.269,-217.652,582.214,0,0,0,
,0.795,0.314,0.011,274.109,-214.783,603.942,0,0,0,
,0.819,0.314,0.009,262.817,-212.708,617.065,0,0,0,
,0.848,0.303,0.012,242.065,-215.027,624.267,0,0,0,
,0.869,0.285,0.007,207.031,-215.516,623.657,0,0,0,
,0.877,0.288,0.005,170.044,-213.807,611.084,0,0,0,
,0.86,0.275,0.01,130.676,-207.459,599.792,0,0,0,
,0.85,0.263,0.017,82.641,-198.121,583.923,0,0,0,
,0.846,0.254,0.021,31.799,-184.632,558.471,0,0,0,
,0.88,0.263,0.02,-1.099,-161.133,520.324,0,0,0,
,0.912,0.269,0.022,-17.762,-138.123,458.801,0,0,0,
,0.953,0.266,0.032,-37.354,-118.531,377.441,0,0,0,
,0.979,0.279,0.036,-73.243,-101.197,285.522,0,0,0,
,0.968,0.284,0.032,-111.023,-81.604,181.701,0,0,0,
,0.957,0.285,0.029,-150.757,-56.275,65.551,0,0,0,
,0.961,0.288,0.036,-188.05,-21.363,-54.871,0,0,0,
,0.952,0.298,0.056,-219.788,12.023,-180.848,0,0,0,
,0.966,0.314,0.071,-241.272,53.344,-311.219,0,0,0,
,0.993,0.338,0.076,-247.01,91.735,-435.914,0,0,0,
,0.948,0.348,0.096,-237.122,125.183,-543.396,0,0,0,
,0.883,0.339,0.118,-227.417,161.438,-621.644,0,0,0,
,0.87,0.343,0.13,-220.093,207.519,-672.12,0,0,0,
,0.906,0.344,0.141,-188.538,252.807,-712.281,0,0,0,
,0.978,0.348,0.154,-142.395,291.992,-755.86,0,0,0,
,1.046,0.377,0.181,-94.849,325.378,-804.444,0,0,0,
,1.083,0.42,0.218,-46.387,343.322,-853.882,0,0,0,
,1.078,0.442,0.241,-1.16,344.177,-883.362,0,0,0,
,1.028,0.453,0.264,40.527,331.665,-881.775,0,0,0,
,0.931,0.419,0.27,54.687,311.706,-850.342,0,0,0,
,0.837,0.39,0.258,17.273,297.668,-804.017,0,0,0,
,0.785,0.384,0.229,-12.757,298.767,-735.169,0,0,0,
,0.759,0.388,0.218,-18.372,303.711,-696.045,0,0,0,
,0.755,0.406,0.208,17.883,319.213,-653.382,0,0,0,
,0.77,0.429,0.236,52.002,327.026,-614.014,0,0,0,
,0.791,0.488,0.284,99.731,326.66,-583.924,0,0,0,
,0.792,0.504,0.297,147.949,312.927,-552.857,0,0,0,
,0.79,0.52,0.291,201.782,306.091,-513.977,0,0,0,
,0.8,0.521,0.295,275.879,299.865,-473.511,0,0,0,
,0.81,0.513,0.302,338.256,294.494,-421.814,0,0,0,
,0.843,0.505,0.316,386.718,285.949,-366.761,0,0,0,
,0.871,0.513,0.329,418.579,269.287,-310.181,0,0,0,
,0.895,0.522,0.347,455.322,247.131,-253.357,0,0,0,
,0.942,0.527,0.347,493.896,220.276,-198.853,0,0,0,
,0.998,0.533,0.348,520.019,182.556,-145.691,0,0,0,
,1.057,0.539,0.343,536.193,132.019,-93.14,0,0,0,
,1.084,0.522,0.313,501.342,75.073,-33.875,0,0,0,
,1.064,0.489,0.279,453.735,10.986,38.208,0,0,0,
,1.019,0.445,0.241,360.839,-33.631,109.314,0,0,0,
,1.034,0.444,0.23,279.174,-61.646,176.88,0,0,0,
,1.065,0.473,0.248,239.196,-88.623,226.318,0,0,0,
,1.073,0.487,0.252,216.491,-117.005,267.334,0,0,0,
,1.089,0.565,0.182,222.595,-146.424,339.172,0,0,0,
,1.038,0.564,0.155,317.871,-160.401,378.967,0,0,0,
,1.008,0.511,0.103,408.874,-166.138,427.551,0,0,0,
,1.063,0.489,0.027,471.618,-153.565,472.534,0,0,0,
,1.143,0.489,-0.037,539.795,-131.958,495.3,0,0,0,
,1.212,0.495,-0.074,650.268,-111.206,490.539,0,0,0,
,1.241,0.5,-0.087,754.15,-96.436,468.872,0,0,0,
,1.204,0.511,-0.059,870.117,-87.403,442.566,0,0,0,
,1.1,0.463,-0.029,976.196,-98.206,433.288,0,0,0,
,0.961,0.393,0.01,973.755,-119.324,467.956,0,0,0,
,0.84,0.366,0.004,895.08,-133.179,523.071,0,0,0,
,0.776,0.327,-0.053,842.468,-140.931,574.035,0,0,0,
,0.755,0.293,-0.135,768.31,-135.315,621.093,0,0,0,
,0.765,0.321,-0.168,716.064,-119.446,647.766,0,0,0,
,0.788,0.32,-0.151,676.696,-108.887,654.419,0,0,0,
,0.791,0.282,-0.14,658.63,-102.417,641.723,0,0,0,
,0.798,0.303,-0.144,632.507,-94.3,611.023,0,0,0,
,0.804,0.342,-0.149,599.121,-85.022,560.119,0,0,0,
,0.803,0.315,-0.135,558.288,-77.21,485.534,0,0,0,
,0.777,0.31,-0.117,493.225,-76.416,428.588,0,0,0,
,0.774,0.309,-0.093,412.17,-66.407,357.483,0,0,0,
,0.793,0.316,-0.084,345.886,-62.073,291.381,0,0,0,
,0.792,0.316,-0.069,302.734,-52.857,232.666,0,0,0,
,0.798,0.313,-0.075,257.873,-43.091,182.19,0,0,0,
,0.84,0.336,-0.051,239.807,-21.241,142.456,0,0,0,
,0.895,0.339,-0.02,235.351,-15.503,109.863,0,0,0,
,0.929,0.334,0.006,220.031,-9.034,87.646,0,0,0,
,0.948,0.319,0.025,181.457,-14.161,66.955,0,0,0,
,0.982,0.305,0.03,83.374,-12.879,40.466,0,0,0,
,1.089,0.293,0.007,-28.565,3.967,-5.127,0,0,0,
,1.248,0.344,-0.004,-163.208,36.254,-81.238,0,0,0,
,1.229,0.4,0.024,-288.392,43.396,-166.81,0,0,0,
,0.985,0.388,0.088,-418.457,55.603,-202.393,0,0,0,
,0.82,0.357,0.123,-514.405,102.905,-161.499,0,0,0,
,0.844,0.348,0.125,-492.432,180.725,-103.089,0,0,0,
,0.932,0.327,0.129,-370.789,259.643,-62.317,0,0,0,
,0.985,0.374,0.145,-184.693,336.303,-65.674,0,0,0,
,1.029,0.449,0.159,18.92,404.663,-106.202,0,0,0,
,1.03,0.5,0.162,196.35,452.087,-141.663,0,0,0,
,0.992,0.484,0.146,338.012,484.985,-163.392,0,0,0,
,0.938,0.424,0.128,447.631,517.761,-173.279,0,0,0,
,0.88,0.378,0.116,539.489,552.49,-183.838,0,0,0,
,0.864,0.33,0.111,599.121,578.43,-194.458,0,0,0,
,0.825,0.306,0.139,608.642,612.548,-233.155,0,0,0,
,0.83,0.316,0.182,580.322,647.583,-288.147,0,0,0,
,0.806,0.348,0.234,547.607,666.381,-347.779,0,0,0,
,0.783,0.385,0.277,545.532,679.992,-391.419,0,0,0,
,0.762,0.396,0.284,570.617,687.439,-426.209,0,0,0,
,0.744,0.402,0.305,612.548,694.275,-442.139,0,0,0,
,0.748,0.402,0.323,664.917,686.157,-448.792,0,0,0,
,0.74,0.405,0.349,708.435,665.893,-450.44,0,0,0,
,0.76,0.417,0.356,735.656,639.465,-437.5,0,0,0,
,0.797,0.462,0.339,819.763,612.182,-424.683,0,0,0,
,0.838,0.47,0.323,909.546,581.421,-419.251,0,0,0,
,0.897,0.49,0.319,994.812,544.555,-410.035,0,0,0,
,0.968,0.509,0.307,1063.537,494.751,-400.452,0,0,0,
,1.005,0.516,0.286,1096.13,431.823,-388.367,0,0,0,
,1.011,0.495,0.248,1076.782,364.868,-364.563,0,0,0,
,1.01,0.438,0.219,1011.169,296.63,-329.59,0,0,0,
,0.986,0.431,0.192,920.227,232.483,-285.34,0,0,0,
,0.944,0.399,0.161,818.603,187.255,-227.051,0,0,0,
,0.952,0.413,0.135,757.995,165.588,-169.617,0,0,0,
,1.025,0.403,0.127,718.994,165.161,-129.09,0,0,0,
,1.156,0.466,0.143,732.788,178.894,-123.23,0,0,0,
,1.284,0.575,0.175,822.082,161.56,-142.09,0,0,0,
,1.308,0.69,0.2,976.318,108.947,-155.213,0,0,0,
,1.201,0.701,0.159,1127.319,32.348,-120.972,0,0,0,
,1.052,0.613,0.061,1229.187,-26.673,-38.819,0,0,0,
,0.989,0.494,-0.046,1277.71,-56.153,67.382,0,0,0,
,0.984,0.415,-0.125,1307.067,-79.468,144.714,0,0,0,
,1.018,0.371,-0.187,1285.766,-107.361,170.166,0,0,0,
,1.062,0.37,-0.236,1162.353,-124.329,148.925,0,0,0,
,1.056,0.441,-0.226,1041.748,-148.377,119.506,0,0,0,
,0.998,0.485,-0.194,917.602,-173.89,76.171,0,0,0,
,0.901,0.501,-0.177,809.814,-201.233,61.828,0,0,0,
,0.805,0.44,-0.236,712.585,-213.013,88.867,0,0,0,
,0.697,0.403,-0.334,627.258,-184.754,133.178,0,0,0,
,0.568,0.415,-0.406,622.009,-130.188,138.305,0,0,0,
,0.491,0.445,-0.441,769.714,-55.848,111.45,0,0,0,
,0.521,0.503,-0.458,1000.915,32.714,80.505,0,0,0,
,0.653,0.568,-0.468,1263.305,92.468,26.245,0,0,0,
,0.776,0.607,-0.471,1525.756,128.234,-12.696,0,0,0,
,0.862,0.581,-0.47,1718.811,128.479,-28.748,0,0,0,
,0.947,0.55,-0.445,1800.354,111.206,-3.113,0,0,0,
,1.074,0.448,-0.459,1714.965,65.795,49.56,0,0,0,
,1.123,0.379,-0.42,1483.215,9.46,135.742,0,0,0,
,1.143,0.331,-0.333,1210.632,-48.279,220.52,0,0,0,
,1.203,0.264,-0.246,874.389,-112.915,314.819,0,0,0,
,1.243,0.24,-0.174,486.816,-186.036,417.297,0,0,0,
,1.263,0.223,-0.155,63.659,-248.963,528.686,0,0,0,
,1.289,0.233,-0.147,-328.858,-292.603,649.597,0,0,0,
,1.375,0.269,-0.1,-624.512,-327.21,767.395,0,0,0,
,1.491,0.253,-0.117,-869.935,-367.005,878.601,0,0,0,
,1.556,0.264,-0.129,-1084.168,-384.888,974.304,0,0,0,
,1.486,0.332,-0.106,-1187.806,-376.954,1033.081,0,0,0,
,1.27,0.392,-0.053,-1154.175,-337.708,1065.796,0,0,0,
,1.072,0.43,-0.01,-1009.766,-256.714,1094.665,0,0,0,
,0.955,0.433,0.023,-788.88,-155.335,1108.215,0,0,0,
,0.897,0.417,0.054,-507.142,-54.993,1105.774,0,0,0,
,0.898,0.383,0.067,-166.26,27.038,1067.993,0,0,0,
,0.903,0.305,0.073,125.671,87.463,988.769,0,0,0,
,0.871,0.285,0.072,346.801,154.113,871.582,0,0,0,
,0.855,0.287,0.085,525.329,191.528,716.735,0,0,0,
,0.839,0.288,0.094,627.258,239.38,540.771,0,0,0,
,0.772,0.285,0.126,640.869,280.883,363.464,0,0,0,
,0.686,0.272,0.151,587.951,322.326,207.824,0,0,0,
,0.608,0.242,0.164,499.084,356.872,67.688,0,0,0,
,0.533,0.206,0.169,411.438,386.047,-25.452,0,0,0,
,0.479,0.203,0.171,355.529,412.231,-94.056,0,0,0,
,0.446,0.221,0.167,354.614,432.678,-150.94,0,0,0,
,0.439,0.243,0.163,381.775,445.739,-201.722,0,0,0,
,0.453,0.279,0.142,411.132,451.049,-249.878,0,0,0,
,0.484,0.312,0.131,425.293,458.923,-306.092,0,0,0,
,0.518,0.317,0.135,377.136,455.444,-364.38,0,0,0,
,0.571,0.474,0.168,402.16,454.956,-404.725,0,0,0,
,0.635,0.411,0.213,420.959,419.922,-513.062,0,0,0,
,0.697,0.468,0.273,377.258,382.141,-543.641,0,0,0,
,0.766,0.645,0.334,451.355,343.75,-580.567,0,0,0,
,0.814,0.644,0.345,577.88,310.913,-628.235,0,0,0,
,0.822,0.559,0.321,565.673,295.105,-643.982,0,0,0,
,0.882,0.524,0.283,513.488,295.959,-646.119,0,0,0,
,1.013,0.493,0.247,447.937,280.212,-576.477,0,0,0,
,1.025,0.543,0.229,418.701,264.831,-532.715,0,0,0,
,1.054,0.54,0.214,429.443,252.502,-503.235,0,0,0,
,1.127,0.544,0.212,405.7,243.408,-473.145,0,0,0,
,1.218,0.58,0.219,385.498,223.877,-456.665,0,0,0,
,1.296,0.602,0.232,372.985,192.81,-450.867,0,0,0,
,1.307,0.623,0.212,337.341,149.231,-435.852,0,0,0,
,1.236,0.632,0.178,297.302,115.112,-401.734,0,0,0,
,1.123,0.634,0.139,275.024,93.444,-318.726,0,0,0,
,0.99,0.616,0.106,287.414,85.693,-232.727,0,0,0,
,0.916,0.582,0.032,352.783,101.074,-112.305,0,0,0,
,0.927,0.505,-0.056,722.046,171.508,141.113,0,0,0,
,0.929,0.514,-0.086,814.636,194.885,176.941,0,0,0,
,0.9,0.542,-0.104,903.32,208.801,204.223,0,0,0,
,0.841,0.522,-0.118,980.468,218.994,227.478,0,0,0,
,0.778,0.485,-0.125,1029.846,223.205,257.995,0,0,0,
,0.734,0.43,-0.153,1057.19,223.327,290.893,0,0,0,
,0.712,0.389,-0.191,1060.424,225.525,318.664,0,0,0,
,0.711,0.378,-0.235,1058.715,227.6,330.322,0,0,0,
,0.733,0.376,-0.28,1056.823,222.107,323.425,0,0,0,
,0.766,0.382,-0.313,1046.386,210.022,303.65,0,0,0,
,0.803,0.388,-0.322,1028.808,190.918,275.634,0,0,0,
,0.951,0.378,-0.331,920.837,95.275,226.074,0,0,0,
,1.008,0.356,-0.339,837.951,49.743,243.347,0,0,0,
,1.06,0.336,-0.338,707.458,9.826,281.555,0,0,0,
,1.104,0.299,-0.342,542.785,-35.462,337.341,0,0,0,
,1.09,0.27,-0.342,351.013,-66.224,416.626,0,0,0,
,1.08,0.264,-0.314,182.434,-66.59,477.234,0,0,0,
,1.058,0.269,-0.271,72.509,-51.27,541.076,0,0,0,
,1.065,0.273,-0.223,5.127,-29.175,593.261,0,0,0,
,1.084,0.295,-0.158,-35.279,-6.836,630.615,0,0,0,
,1.093,0.307,-0.164,-47.059,12.39,649.292,0,0,0,
,1.102,0.31,-0.159,-46.631,33.142,642.639,0,0,0,
,1.11,0.312,-0.133,-35.096,53.772,618.347,0,0,0,
,1.078,0.317,-0.101,12.939,69.763,575.683,0,0,0,
,1.103,0.279,-0.095,54.382,81.054,518.005,0,0,0,
,1.151,0.262,-0.093,63.293,92.041,445.678,0,0,0,
,1.134,0.259,-0.083,64.941,102.234,346.313,0,0,0,
,1.022,0.255,-0.041,68.237,116.882,234.985,0,0,0,
,0.872,0.255,0.014,59.265,140.93,136.901,0,0,0,
,0.791,0.242,0.06,39.55,184.082,64.636,0,0,0,
,0.788,0.212,0.085,43.64,223.571,5.432,0,0,0,
,0.819,0.194,0.089,78.613,248.535,-42.237,0,0,0,
,0.846,0.21,0.096,125.488,269.531,-89.173,0,0,0,
,0.899,0.256,0.1,185.913,284.607,-140.87,0,0,0,
,0.938,0.295,0.117,250.671,299.682,-210.633,0,0,0,
,0.959,0.32,0.15,316.772,312.805,-291.077,0,0,0,
,0.951,0.317,0.188,372.07,306.274,-366.578,0,0,0,
,0.898,0.309,0.206,379.089,286.865,-420.044,0,0,0,
,0.802,0.3,0.23,331.176,280.578,-461.731,0,0,0,
,0.718,0.288,0.25,249.084,276.123,-478.028,0,0,0,
,0.666,0.26,0.268,151.794,271.362,-471.314,0,0,0,
,0.66,0.235,0.301,22.522,263.855,-455.445,0,0,0,
,0.663,0.257,0.305,-69.397,253.54,-453.858,0,0,0,
,0.664,0.28,0.308,-182.007,234.069,-443.238,0,0,0,
,0.682,0.36,0.297,-245.423,222.168,-430.054,0,0,0,
,0.735,0.461,0.283,-97.718,226.623,-439.759,0,0,0,
,0.812,0.484,0.264,170.044,229.858,-453.675,0,0,0,
,0.834,0.457,0.238,337.707,227.6,-444.886,0,0,0,
,0.886,0.458,0.222,522.461,235.168,-416.81,0,0,0,
,0.985,0.453,0.241,536.316,225.219,-412.232,0,0,0,
,1.09,0.47,0.252,545.837,193.725,-409.913,0,0,0,
,1.161,0.479,0.248,527.71,140.808,-397.889,0,0,0,
,1.198,0.47,0.213,450.622,87.341,-374.817,0,0,0,
,1.22,0.462,0.162,306.03,43.335,-346.07,0,0,0,
,1.248,0.461,0.144,173.217,16.662,-314.82,0,0,0,
,1.276,0.505,0.145,95.398,-4.456,-271.607,0,0,0,
,1.284,0.528,0.152,62.988,-24.72,-222.596,0,0,0,
,1.284,0.571,0.155,30.7,-37.72,-154.053,0,0,0,
,1.021,0.557,0.097,135.742,-90.943,192.016,0,0,0,
,0.899,0.488,0.085,238.891,-77.454,342.102,0,0,0,
,0.831,0.417,0.091,348.693,-62.684,486.694,0,0,0,
,0.807,0.376,0.084,435.974,-52.613,598.816,0,0,0,
,0.811,0.361,0.048,483.703,-48.768,682.495,0,0,0,
,0.849,0.374,0.015,509.826,-49.622,730.163,0,0,0,
,0.908,0.388,-0.011,536.316,-54.383,744.14,0,0,0,
,0.954,0.392,-0.034,545.288,-65.003,724.731,0,0,0,
,0.995,0.399,-0.026,529.785,-84.534,683.654,0,0,0,
,0.972,0.393,-0.015,483.215,-118.409,639.77,0,0,0,
,0.892,0.367,-0.009,403.747,-150.452,611.45,0,0,0,
,0.833,0.334,-0.021,314.758,-167.481,592.346,0,0,0,
,0.805,0.304,-0.042,241.088,-177.491,585.815,0,0,0,
,0.792,0.284,-0.056,192.443,-174.744,582.397,0,0,0,
,0.804,0.28,-0.069,156.433,-169.678,579.162,0,0,0,
,0.824,0.289,-0.069,121.093,-161.133,572.631,0,0,0,
,0.849,0.305,-0.056,103.942,-152.832,560.485,0,0,0,
,0.893,0.299,-0.045,87.28,-147.706,545.166,0,0,0,
,0.901,0.27,-0.026,4.455,-139.527,497.924,0,0,0,
,0.916,0.269,-0.02,-5.127,-125,478.881,0,0,0,
,0.97,0.267,0.003,3.295,-118.531,445.495,0,0,0,
,1.002,0.262,0.023,18.005,-119.019,395.691,0,0,0,
,1.034,0.264,0.052,27.404,-131.714,344.421,0,0,0,
,1.035,0.249,0.051,18.127,-155.457,290.649,0,0,0,
,1.019,0.228,0.054,-10.498,-176.697,239.807,0,0,0,
,1.036,0.197,0.046,-61.402,-191.712,166.137,0,0,0,
,1.082,0.183,0.041,-144.349,-203.186,63.415,0,0,0,
,1.109,0.192,0,-279.114,-213.929,-80.018,0,0,0,
,1.108,0.24,0.036,-416.138,-216.187,-222.535,0,0,0,
,1.071,0.3,0.057,-562.317,-217.347,-369.629,0,0,0,
,0.97,0.338,0.082,-659.241,-216.248,-495.85,0,0,0,
,0.882,0.33,0.097,-705.994,-202.088,-580.872,0,0,0,
,0.828,0.306,0.107,-727.967,-177.735,-633.24,0,0,0,
,0.847,0.306,0.11,-703.98,-137.024,-671.631,0,0,0,
,0.998,0.425,0.148,-457.581,-36.194,-845.093,0,0,0,
,0.985,0.452,0.14,-380.799,-26.795,-896.058,0,0,0,
,0.932,0.447,0.128,-316.834,-24.903,-919.617,0,0,0,
,0.865,0.432,0.119,-283.997,-22.583,-913.636,0,0,0,
,0.802,0.423,0.114,-275.574,-18.677,-889.405,0,0,0,
,0.745,0.395,0.111,-293.274,-12.574,-848.267,0,0,0,
,0.722,0.381,0.108,-339.417,-5.31,-811.768,0,0,0,
,0.726,0.381,0.107,-382.813,3.906,-758.728,0,0,0,
,0.744,0.394,0.099,-409.058,14.648,-712.22,0,0,0,
,0.766,0.425,0.106,-443.543,22.216,-673.462,0,0,0,
,0.805,0.471,0.116,-477.051,29.907,-636.597,0,0,0,
,0.835,0.506,0.12,-484.681,40.832,-602.356,0,0,0,
,0.849,0.529,0.128,-458.619,53.344,-570.557,0,0,0,
,0.872,0.559,0.157,-394.165,65.124,-531.678,0,0,0,
,0.902,0.567,0.176,-325.318,70.434,-488.221,0,0,0,
,0.894,0.557,0.185,-293.274,75.317,-426.758,0,0,0,
,0.905,0.549,0.201,-276.978,84.289,-351.502,0,0,0,
,0.948,0.544,0.209,-262.269,90.087,-281.556,0,0,0,
,0.99,0.536,0.261,-232.666,78.674,-137.146,0,0,0,
,0.985,0.526,0.264,-232.117,65.612,-64.209,0,0,0,
,0.974,0.523,0.257,-236.145,53.466,10.498,0,0,0,
,0.998,0.513,0.25,-219.727,47.668,75.622,0,0,0,
,1.078,0.521,0.254,-186.951,41.931,127.319,0,0,0,
,1.172,0.537,0.26,-134.095,27.16,153.259,0,0,0,
,1.217,0.572,0.263,-77.271,-5.738,171.203,0,0,0,
,1.16,0.586,0.263,-29.541,-51.453,207.641,0,0,0,
,0.899,0.424,0.241,-49.805,-111.268,391.784,0,0,0,
,0.844,0.379,0.251,-72.083,-119.629,511.779,0,0,0,
,0.83,0.329,0.249,-62.989,-121.888,609.863,0,0,0,
,0.856,0.325,0.237,-59.693,-122.498,675.048,0,0,0,
,0.945,0.36,0.244,-32.532,-128.479,701.233,0,0,0,
,1.034,0.38,0.24,23.498,-146.058,690.185,0,0,0,
,1.118,0.399,0.212,82.946,-167.237,641.784,0,0,0,
,1.151,0.466,0.184,112.548,-196.228,619.567,0,0,0,
,1.135,0.414,0.237,254.943,-221.497,543.762,0,0,0,
,1.03,0.201,0.117,539.062,-213.929,412.841,0,0,0,
,1.004,0.167,0.138,690.246,-204.041,364.441,0,0,0,
,0.939,0.231,0.125,589.904,-180.176,456.665,0,0,0,
,0.928,0.212,0.196,489.929,-146.851,462.097,0,0,0,
,0.83,0.144,0.252,244.506,-176.697,397.338,0,0,0,
,0.824,0.246,0.208,-10.56,-214.295,413.757,0,0,0,
,0.82,0.279,0.199,-107.727,-254.456,401.55,0,0,0,
,0.822,0.24,0.179,-108.46,-275.879,394.287,0,0,0,
,0.833,0.2,0.119,-157.837,-302.124,357.91,0,0,0,
,0.82,0.265,0.08,-207.215,-321.778,302.612,0,0,0,
,0.829,0.252,0.084,-228.333,-333.558,255.981,0,0,0,
,0.829,0.252,0.105,-260.56,-346.253,216.064,0,0,0,
,0.834,0.24,0.115,-289.002,-357.3,166.076,0,0,0,
,0.855,0.235,0.128,-337.952,-364.685,109.314,0,0,0,
,0.903,0.243,0.129,-396.79,-367.432,45.837,0,0,0,
,0.922,0.242,0.103,-466.919,-370.667,-22.644,0,0,0,
,0.909,0.235,0.083,-553.467,-365.723,-89.417,0,0,0,
,0.903,0.247,0.075,-639.893,-348.694,-156.495,0,0,0,
,0.911,0.26,0.069,-714.234,-328.37,-226.014,0,0,0,
,0.989,0.277,0.068,-779.297,-304.139,-302.002,0,0,0,
,1.124,0.299,0.055,-835.206,-287.171,-402.1,0,0,0,
,1.182,0.432,0.039,-889.344,-322.998,-717.225,0,0,0,
,1.01,0.411,0.038,-887.757,-322.327,-704.224,0,0,0,
,0.901,0.385,0.063,-872.254,-307.801,-670.044,0,0,0,
,0.861,0.34,0.093,-787.232,-284.241,-593.567,0,0,0,
,0.922,0.276,0.101,-691.285,-274.537,-535.401,0,0,0,
,0.991,0.274,0.074,-661.744,-287.415,-499.207,0,0,0,
,1.002,0.349,0.057,-658.387,-288.392,-509.278,0,0,0,
,1.003,0.391,0.05,-650.147,-307.74,-540.65,0,0,0,
,0.963,0.351,0.051,-744.324,-352.173,-568.848,0,0,0,
,0.875,0.318,0.202,-1056.458,-443.055,-582.032,0,0,0,
,0.792,0.465,0.186,-1480.469,-513.428,-488.77,0,0,0,
,0.748,0.432,0.116,-1669.068,-577.576,-516.114,0,0,0,
,0.676,0.43,0.093,-1713.868,-605.469,-482.544,0,0,0,
,0.669,0.44,0.046,-1593.812,-599.793,-454.895,0,0,0,
,0.663,0.48,0.006,-1336.853,-578.797,-440.796,0,0,0,
,0.661,0.489,-0.019,-1009.217,-526.49,-464.234,0,0,0,
,0.699,0.454,0.011,-762.818,-454.346,-499.756,0,0,0,
,0.78,0.44,0.015,-646.851,-384.583,-524.17,0,0,0,
,0.769,0.433,0.017,-612.061,-313.294,-553.833,0,0,0,
,0.834,0.432,0.036,-614.319,-235.779,-579.773,0,0,0,
,0.895,0.452,0.061,-619.507,-173.89,-602.723,0,0,0,
,0.933,0.472,0.087,-594.3,-119.629,-615.723,0,0,0,
,0.983,0.502,0.103,-523.438,-69.397,-620.789,0,0,0,
,1.004,0.522,0.106,-339.905,9.521,-609.925,0,0,0,
,1.006,0.537,0.146,-229.554,48.339,-593.689,0,0,0,
,1.016,0.542,0.216,-120.728,64.209,-569.275,0,0,0,
,1.015,0.51,0.235,-69.153,43.701,-533.448,0,0,0,
,0.99,0.448,0.211,-156.556,16.601,-491.822,0,0,0,
,0.966,0.439,0.278,-382.691,5.676,-446.228,0,0,0,
,0.979,0.471,0.313,-649.842,2.075,-397.95,0,0,0,
,0.996,0.562,0.343,-802.247,-10.621,-347.901,0,0,0,
,0.951,0.642,0.385,-849.793,-47.12,-264.344,0,0,0,
,0.9,0.719,0.362,-759.278,-78.003,-154.847,0,0,0,
,0.878,0.736,0.303,-553.589,-100.708,-26.001,0,0,0,
,0.895,0.707,0.256,-329.712,-107.361,112.671,0,0,0,
,0.936,0.654,0.245,-143.006,-118.409,250.366,0,0,0,
,0.983,0.587,0.243,-55.848,-127.015,376.587,0,0,0,
,1.027,0.567,0.226,18.066,-130.799,483.52,0,0,0,
,1.066,0.509,0.199,51.452,-136.536,562.805,0,0,0,
,1.061,0.473,0.181,23.254,-145.264,627.99,0,0,0,
,1.022,0.455,0.171,-20.081,-145.63,681.335,0,0,0,
,0.978,0.447,0.165,-42.908,-140.686,732.544,0,0,0,
,0.913,0.419,0.142,3.662,-107.483,825.317,0,0,0,
,0.9,0.411,0.138,63.171,-80.689,852.722,0,0,0,
,0.907,0.399,0.159,152.526,-50.904,881.286,0,0,0,
,0.831,0.183,0.184,590.271,72.509,519.897,0,0,0,
,0.846,0.185,0.169,433.41,66.406,394.348,0,0,0,
,0.869,0.189,0.159,279.602,50.293,268.676,0,0,0,
,0.878,0.188,0.14,133.728,22.399,143.005,0,0,0,
,0.857,0.176,0.124,4.516,-7.447,21.545,0,0,0,
,0.838,0.179,0.107,-116.578,-30.03,-93.079,0,0,0,
,0.857,0.188,0.101,-219.849,-47.547,-207.398,0,0,0,
,0.914,0.199,0.077,-348.145,-60.12,-335.755,0,0,0,
,0.968,0.216,0.058,-491.15,-73.731,-478.699,0,0,0,
,1.017,0.266,0.055,-623.108,-90.577,-624.268,0,0,0,
,1.062,0.321,0.06,-739.869,-114.93,-762.818,0,0,0,
,1.086,0.369,0.073,-842.164,-147.156,-867.127,0,0,0,
,1.057,0.392,0.087,-890.442,-182.923,-905.64,0,0,0,
,1.013,0.383,0.088,-914.307,-209.717,-894.654,0,0,0,
,1.006,0.365,0.075,-916.016,-219.3,-829.407,0,0,0,
,1.035,0.343,0.061,-885.193,-213.99,-776.246,0,0,0,
,1.075,0.332,0.08,-813.66,-194.397,-702.759,0,0,0,
,1.126,0.352,0.112,-737.977,-172.791,-635.315,0,0,0,
,1.155,0.397,0.141,-671.57,-154.053,-580.079,0,0,0,
,1.097,0.429,0.156,-609.864,-145.508,-518.982,0,0,0,
,1.006,0.388,0.144,-596.253,-143.738,-453.248,0,0,0,
,0.879,0.413,0.204,-639.832,-173.523,-378.663,0,0,0,
,0.8,0.403,0.275,-709.717,-207.52,-309.998,0,0,0,
,0.715,0.398,0.276,-824.646,-240.052,-219.483,0,0,0,
,0.657,0.258,0.211,-980.164,-255.677,-233.46,0,0,0,
,0.614,0.267,0.124,-1142.884,-248.352,-208.558,0,0,0,
,0.63,0.458,0.073,-1016.114,-228.211,-214.6,0,0,0,
,0.625,0.492,0.048,-716.614,-210.694,-232.544,0,0,0,
,0.623,0.496,0.059,-480.103,-178.65,-250.672,0,0,0,
,0.677,0.483,0.073,-343.384,-141.419,-293.091,0,0,0,
,0.702,0.482,0.109,-246.888,-113.343,-325.928,0,0,0,
,0.733,0.427,0.155,-177.918,-90.882,-342.53,0,0,0,
,0.772,0.4,0.177,-164.307,-70.13,-333.924,0,0,0,
,0.846,0.404,0.187,-167.237,-31.617,-324.524,0,0,0,
,0.913,0.418,0.198,-177.613,-31.128,-321.412,0,0,0,
,0.964,0.443,0.22,-191.285,-19.349,-319.031,0,0,0,
,0.975,0.46,0.239,-205.384,-17.518,-312.745,0,0,0,
,0.973,0.468,0.235,-223.694,-20.691,-287.842,0,0,0,
,0.953,0.465,0.228,-236.329,-25.94,-243.47,0,0,0,
,0.986,0.442,0.206,-251.587,-9.4,-132.691,0,0,0,
,1.018,0.462,0.225,-236.878,-10.437,-84.229,0,0,0,
,1.025,0.483,0.253,-203.492,-18.677,-33.265,0,0,0,
,1.058,0.504,0.275,-159.119,-37.293,23.071,0,0,0,
,1.063,0.5,0.262,-117.005,-74.524,92.956,0,0,0,
,1.011,0.451,0.224,-97.046,-114.808,176.941,0,0,0,
,0.976,0.392,0.177,-106.446,-139.771,268.982,0,0,0,
,0.977,0.359,0.147,-127.747,-152.771,348.877,0,0,0,
,0.996,0.358,0.142,-145.325,-158.875,405.029,0,0,0,
,1.018,0.375,0.148,-124.207,-156.617,428.711,0,0,0,
,1.054,0.391,0.152,-83.008,-159.424,422.241,0,0,0,
,1.074,0.417,0.16,-40.345,-164.429,392.028,0,0,0,
,1.078,0.424,0.164,-7.935,-171.998,356.384,0,0,0,
,1.057,0.431,0.175,-13.855,-187.439,336.425,0,0,0,
,1.006,0.418,0.169,-9.4,-205.994,329.345,0,0,0,
,0.9,0.287,0.151,-176.209,-258.179,453.43,0,0,0,
,0.906,0.273,0.152,-211.365,-265.015,504.089,0,0,0,
,0.935,0.269,0.147,-221.192,-269.776,561.401,0,0,0,
,0.967,0.265,0.158,-212.525,-279.725,602.844,0,0,0,
,1.029,0.252,0.198,-208.558,-292.481,617.553,0,0,0,
,1.108,0.268,0.212,-223.816,-317.566,623.596,0,0,0,
,1.097,0.26,0.221,-216.126,-350.281,628.967,0,0,0,
,1.057,0.238,0.213,-202.088,-373.536,611.389,0,0,0,
,0.99,0.204,0.214,-202.332,-394.288,573.364,0,0,0,
,0.866,0.166,0.218,-304.261,-415.162,427.673,0,0,0,
,0.837,0.17,0.206,-386.658,-421.753,318.847,0,0,0,
,0.801,0.204,0.186,-448.609,-424.5,197.265,0,0,0,
,0.761,0.208,0.165,-518.616,-431.946,74.585,0,0,0,
,0.737,0.222,0.123,-594.788,-431.519,-46.082,0,0,0,
,0.757,0.221,0.07,-664.917,-428.467,-173.829,0,0,0,
,0.755,0.234,0.026,-709.9,-435.303,-300.171,0,0,0,
,0.746,0.235,0.002,-740.906,-439.515,-427.796,0,0,0,
,0.788,0.247,-0.026,-787.11,-443.787,-560.181,0,0,0,
,0.886,0.325,-0.02,-847.779,-466.431,-702.881,0,0,0,
,1.007,0.449,0.027,-835.022,-514.222,-857.85,0,0,0,
,1.027,0.504,0.058,-775.574,-571.167,-975.892,0,0,0,
,1.023,0.528,0.038,-769.165,-612.244,-1032.227,0,0,0,
,0.99,0.562,-0.019,-784.485,-636.841,-1027.527,0,0,0,
,0.912,0.346,-0.092,-806.397,-580.689,-872.864,0,0,0,
,0.965,0.333,-0.092,-878.724,-538.575,-825.44,0,0,0,
,1.003,0.377,-0.081,-1001.648,-509.766,-791.932,0,0,0,
,1.007,0.454,-0.078,-1150.879,-492.798,-778.565,0,0,0,
,0.999,0.531,-0.066,-1323.426,-491.822,-764.1,0,0,0,
,0.97,0.536,-0.074,-1425.965,-495.728,-739.502,0,0,0,
,0.905,0.542,-0.066,-1432.618,-501.038,-701.783,0,0,0,
,0.843,0.525,-0.056,-1388.367,-492.493,-666.382,0,0,0,
,0.771,0.504,-0.028,-1226.38,-450.196,-578.431,0,0,0,
,0.735,0.497,-0.004,-1140.931,-417.237,-544.556,0,0,0,
,0.692,0.501,0.054,-885.376,-276.123,-491.333,0,0,0,
,0.715,0.511,0.08,-802.979,-217.713,-490.052,0,0,0,
,0.772,0.532,0.107,-704.163,-161.56,-498.475,0,0,0,
,0.83,0.551,0.143,-565.979,-112.122,-516.602,0,0,0,
,0.856,0.554,0.162,-474.793,-73.182,-531.678,0,0,0,
,0.904,0.565,0.183,-386.292,-28.443,-541.871,0,0,0,
,0.99,0.592,0.189,-305.176,12.817,-548.706,0,0,0,
,1.062,0.567,0.205,-261.109,49.377,-552.185,0,0,0,
,1.108,0.583,0.243,-233.948,76.477,-548.401,0,0,0,
,1.104,0.583,0.274,-234.009,94.055,-526.795,0,0,0,
,1.086,0.574,0.298,-265.442,101.135,-478.455,0,0,0,
,0.982,0.532,0.318,-412.598,106.872,-251.465,0,0,0,
,0.963,0.563,0.356,-395.813,105.285,-175.232,0,0,0,
,0.924,0.61,0.384,-351.38,91.247,-97.901,0,0,0,
,0.869,0.625,0.376,-271.18,63.354,-14.222,0,0,0,
,0.796,0.622,0.35,-155.152,33.569,86.608,0,0,0,
,0.763,0.575,0.313,-6.409,17.944,211.242,0,0,0,
,0.809,0.504,0.283,84.655,-0.733,343.261,0,0,0,
,0.862,0.465,0.269,125.732,-29.419,456.176,0,0,0,
,0.898,0.427,0.248,152.526,-62.256,542.785,0,0,0,
,0.941,0.403,0.214,160.644,-84.9,601.928,0,0,0,
,1.006,0.405,0.19,159.546,-105.103,628.845,0,0,0,
,1.073,0.445,0.177,154.113,-161.499,595.459,0,0,0,
,1.047,0.44,0.169,146.545,-173.584,609.13,0,0,0,
,1.027,0.392,0.162,158.325,-177.185,601.623,0,0,0,
,1.01,0.338,0.151,177.917,-167.969,619.995,0,0,0,
,0.978,0.303,0.145,229.614,-156.25,645.813,0,0,0,
,0.929,0.3,0.141,303.588,-133.912,660.461,0,0,0,
,0.87,0.31,0.14,365.966,-110.535,659.851,0,0,0,
,0.839,0.329,0.165,401.062,-96.375,654.297,0,0,0,
,0.823,0.303,0.186,383.361,-100.159,628.479,0,0,0,
,0.844,0.295,0.203,310.302,-111.145,600.586,0,0,0,
,0.867,0.311,0.167,307.434,-112,570.678,0,0,0,
,0.834,0.236,0.155,313.964,-121.705,444.946,0,0,0,
,0.837,0.224,0.168,250.183,-125.489,397.522,0,0,0,
,0.869,0.231,0.187,188.171,-127.32,336.609,0,0,0,
,0.914,0.23,0.188,110.778,-130.677,268.982,0,0,0,
,0.956,0.215,0.18,26.062,-131.409,197.754,0,0,0,
,0.987,0.215,0.159,-77.698,-134.766,107.666,0,0,0,
,0.998,0.235,0.154,-173.462,-131.348,9.704,0,0,0,
,1.021,0.246,0.147,-260.498,-128.418,-101.868,0,0,0,
,1.057,0.252,0.127,-367.859,-121.155,-221.192,0,0,0,
,1.105,0.287,0.112,-472.901,-112,-350.953,0,0,0,
,1.123,0.315,0.101,-564.759,-107.117,-483.338,0,0,0,
,1.044,0.369,0.136,-668.396,-103.943,-660.279,0,0,0,
,0.952,0.382,0.161,-669.19,-116.211,-693.36,0,0,0,
,0.871,0.372,0.17,-638.245,-122.803,-674.927,0,0,0,
,0.834,0.35,0.15,-576.05,-123.108,-622.742,0,0,0,
,0.901,0.299,0.086,-423.645,-115.052,-513.733,0,0,0,
,0.938,0.322,0.063,-390.015,-122.315,-481.629,0,0,0,
,0.924,0.363,0.067,-382.752,-117.371,-491.7,0,0,0,
,0.913,0.4,0.082,-391.419,-116.333,-505.738,0,0,0,
,0.896,0.243,0.107,-580.018,-138.184,-533.081,0,0,0,
,0.814,0.498,0.216,-794.434,-175.354,-444.764,0,0,0,
,0.804,0.452,0.213,-865.174,-219.056,-506.531,0,0,0,
,0.66,0.362,0.083,-1067.139,-209.961,-455.75,0,0,0,
,0.643,0.451,0.04,-876.893,-174.866,-431.458,0,0,0,
,0.64,0.469,0.057,-650.574,-139.039,-433.228,0,0,0,
,0.648,0.48,0.065,-478.943,-97.657,-404.358,0,0,0,
,0.701,0.489,0.065,-285.279,-51.941,-410.34,0,0,0,
,0.742,0.458,0.078,-166.016,-12.818,-429.2,0,0,0,
,0.777,0.478,0.122,-94.483,23.559,-449.83,0,0,0,
,0.802,0.496,0.17,-22.217,46.325,-465.699,0,0,0,
,0.805,0.495,0.213,26.306,63.964,-468.201,0,0,0,
,0.82,0.499,0.238,56.274,77.27,-450.745,0,0,0,
,0.85,0.503,0.248,91.43,93.933,-422.12,0,0,0,
,0.918,0.489,0.258,119.323,111.511,-393.738,0,0,0,
,1.006,0.503,0.272,142.334,122.924,-362.61,0,0,0,
,1.06,0.514,0.277,152.832,115.905,-333.374,0,0,0,
,1.083,0.521,0.266,132.751,104.614,-295.227,0,0,0,
,1.094,0.523,0.255,84.045,94.848,-244.385,0,0,0,
,1.091,0.515,0.245,0.305,90.82,-117.737,0,0,0,
,1.121,0.546,0.263,33.142,93.261,-55.542,0,0,0,
,1.126,0.567,0.293,92.285,88.195,2.868,0,0,0,
,1.099,0.602,0.309,175.354,79.04,62.072,0,0,0,
,1.04,0.611,0.306,275.207,59.509,125.549,0,0,0,
,0.96,0.576,0.269,383.239,35.339,200.866,0,0,0,
,0.917,0.518,0.218,460.022,13.916,288.696,0,0,0,
,0.924,0.474,0.172,521.911,-4.578,368.225,0,0,0,
,0.954,0.439,0.149,548.584,-27.771,429.321,0,0,0,
,0.995,0.42,0.132,540.771,-46.631,466.919,0,0,0,
,1.059,0.43,0.114,527.404,-64.637,478.393,0,0,0,
,1.053,0.442,0.101,516.784,-86.365,478.759,0,0,0,
,1.029,0.463,0.091,539.734,-89.356,460.815,0,0,0,
,0.993,0.426,0.056,611.084,-99.488,447.876,0,0,0,
,0.916,0.378,0.08,619.262,-119.08,478.21,0,0,0,
,0.846,0.376,0.103,542.724,-128.052,525.756,0,0,0,
,0.811,0.366,0.096,490.722,-134.949,543.579,0,0,0,
,0.806,0.324,0.077,482.483,-142.701,568.481,0,0,0,
,0.805,0.332,0.064,445.8,-156.067,609.68,0,0,0,
,0.817,0.339,0.053,387.024,-169.861,625.366,0,0,0,
,0.843,0.35,0.03,339.477,-184.327,628.296,0,0,0,
,0.874,0.341,0.005,315.979,-191.102,621.582,0,0,0,
,0.881,0.323,-0.006,280.456,-200.318,605.407,0,0,0,
,0.878,0.306,-0.001,231.018,-206.971,585.388,0,0,0,
,0.866,0.295,0.01,170.166,-211.548,565.246,0,0,0,
,0.873,0.287,0.02,102.417,-209.046,550.109,0,0,0,
,0.879,0.29,0.028,36.926,-203.797,527.526,0,0,0,
,0.903,0.289,0.043,-11.231,-187.561,499.878,0,0,0,
,0.954,0.296,0.047,-40.589,-170.655,465.026,0,0,0,
,0.999,0.299,0.062,-66.224,-153.504,415.466,0,0,0,
,1.01,0.305,0.068,-82.459,-142.884,376.037,0,0,0,
,0.986,0.285,0.063,-94.849,-111.939,289.306,0,0,0,
,0.996,0.267,0.065,-107.3,-84.107,233.459,0,0,0,
,0.998,0.265,0.09,-111.756,-58.35,151.062,0,0,0,
,0.987,0.275,0.114,-111.756,-31.067,49.743,0,0,0,
,0.984,0.286,0.123,-131.958,-6.592,-64.881,0,0,0,
,0.992,0.311,0.132,-168.946,15.502,-177.735,0,0,0,
,0.952,0.338,0.137,-194.336,26.001,-276.978,0,0,0,
,0.876,0.322,0.147,-206.788,32.531,-351.319,0,0,0,
,0.826,0.3,0.149,-222.474,45.776,-394.288,0,0,0,
,0.822,0.285,0.146,-233.216,60.241,-421.082,0,0,0,
,0.855,0.271,0.137,-233.399,75.195,-446.289,0,0,0,
,0.895,0.276,0.135,-237.732,89.843,-486.573,0,0,0,
,0.943,0.302,0.144,-266.175,101.562,-544.617,0,0,0,
,0.962,0.349,0.152,-301.697,102.417,-610.23,0,0,0,
,0.936,0.376,0.151,-330.994,94.055,-666.382,0,0,0,
,0.875,0.381,0.143,-342.102,89.477,-705.201,0,0,0,
,0.808,0.363,0.13,-359.803,89.904,-720.765,0,0,0,
,0.748,0.366,0.121,-376.465,91.735,-720.154,0,0,0,
,0.716,0.363,0.12,-376.099,101.501,-713.379,0,0,0,
,0.714,0.372,0.129,-365.418,110.412,-697.632,0,0,0,
,0.75,0.379,0.128,-356.446,113.22,-695.862,0,0,0,
,0.804,0.416,0.121,-355.164,114.746,-692.139,0,0,0,
,0.85,0.439,0.108,-326.844,107.727,-697.693,0,0,0,
,0.891,0.445,0.113,-322.083,102.356,-707.032,0,0,0,
,0.938,0.458,0.133,-335.511,90.576,-712.403,0,0,0,
,0.949,0.47,0.151,-378.54,74.096,-694.153,0,0,0,
,0.929,0.485,0.162,-422.12,59.143,-651.856,0,0,0,
,0.928,0.491,0.162,-454.468,49.133,-599.244,0,0,0,
,0.946,0.495,0.166,-476.075,40.649,-535.767,0,0,0,
,0.967,0.507,0.179,-474.305,28.198,-466.431,0,0,0,
,0.981,0.516,0.172,-471.497,15.258,-379.822,0,0,0,
,0.976,0.526,0.167,-472.352,-1.465,-311.097,0,0,0,
,0.952,0.517,0.16,-476.624,-17.212,-217.896,0,0,0,
,0.956,0.498,0.158,-480.713,-18.494,-128.54,0,0,0,
,1.005,0.497,0.169,-485.718,-26.917,-47.303,0,0,0,
,1.022,0.506,0.172,-496.644,-44.495,18.127,0,0,0,
,1.014,0.501,0.163,-511.902,-57.435,73.181,0,0,0,
,1.054,0.525,0.169,-502.198,-59.388,117.004,0,0,0,
,1.052,0.548,0.225,-331.971,-120.179,202.575,0,0,0,
,0.969,0.486,0.197,-299.317,-164.795,278.015,0,0,0,
,0.958,0.448,0.154,-292.603,-198.487,381.652,0,0,0,
,0.988,0.393,0.128,-282.41,-234.253,476.867,0,0,0,
,1.047,0.346,0.12,-317.566,-271.363,565.918,0,0,0,
,1.142,0.326,0.106,-395.691,-310.425,630.798,0,0,0,
,1.218,0.327,0.087,-526.062,-348.755,668.274,0,0,0,
,1.319,0.346,0.07,-627.442,-382.447,692.688,0,0,0,
,1.374,0.353,0.027,-757.63,-426.209,710.51,0,0,0,
,1.289,0.358,-0.006,-877.076,-457.398,738.525,0,0,0,
,1.161,0.346,-0.023,-953.614,-439.82,781.067,0,0,0,
,1.073,0.331,-0.003,-963.868,-412.171,837.524,0,0,0,
,0.991,0.32,0.035,-835.022,-357.544,903.686,0,0,0,
,0.943,0.292,0.078,-673.035,-307.557,927.429,0,0,0,
,0.902,0.302,0.101,-498.597,-265.625,927.551,0,0,0,
,0.911,0.322,0.13,-309.937,-233.338,916.015,0,0,0,
,0.956,0.317,0.132,-116.333,-226.441,878.784,0,0,0,
,0.931,0.302,0.098,58.471,-234.192,812.255,0,0,0,
,0.907,0.265,0.036,134.46,-265.381,739.441,0,0,0,
,0.858,0.218,0.041,94.604,-311.646,643.005,0,0,0,
,0.832,0.231,0.015,16.113,-355.225,521.606,0,0,0,
,0.776,0.225,0.031,-30.64,-385.193,419.86,0,0,0,
,0.741,0.18,0.032,-69.336,-411.683,315.918,0,0,0,
,0.714,0.186,0.03,-115.662,-439.27,200.5,0,0,0,
,0.714,0.22,0.048,-138.184,-471.924,81.97,0,0,0,
,0.743,0.265,0.048,-173.218,-505.982,-25.025,0,0,0,
,0.767,0.317,0.038,-207.032,-540.833,-137.33,0,0,0,
,0.806,0.356,0.033,-226.685,-567.749,-259.339,0,0,0,
,0.867,0.412,0.037,-268.433,-596.497,-369.019,0,0,0,
,0.913,0.442,0.024,-330.018,-634.278,-482.117,0,0,0,
,0.905,0.477,0.014,-474.488,-666.81,-568.726,0,0,0,
,0.873,0.529,0.005,-625.123,-679.932,-627.076,0,0,0,
,0.822,0.559,0.024,-730.164,-677.735,-661.56,0,0,0,
,0.762,0.583,0.051,-749.634,-662.415,-663.147,0,0,0,
,0.739,0.549,0.083,-706.788,-639.832,-653.992,0,0,0,
,0.748,0.515,0.104,-647.217,-602.112,-650.452,0,0,0,
,0.801,0.521,0.106,-596.802,-558.533,-680.542,0,0,0,
,0.913,0.576,0.098,-560.12,-508.301,-761.658,0,0,0,
,0.995,0.677,0.114,-476.502,-467.896,-863.343,0,0,0,
,0.999,0.689,0.141,-375.245,-444.458,-968.506,0,0,0,
,0.94,0.7,0.161,-339.539,-433.899,-1014.893,0,0,0,
,0.857,0.634,0.182,-318.238,-426.392,-1001.709,0,0,0,
,0.797,0.531,0.203,-305.237,-414.002,-965.455,0,0,0,
,0.791,0.128,0.172,-809.449,-456.849,-822.266,0,0,0,
,0.816,0.619,0.168,-1040.406,-473.328,-635.804,0,0,0,
,0.883,0.453,0.167,-1132.203,-552.308,-704.163,0,0,0,
,0.78,0.542,0.174,-1330.994,-599.122,-580.14,0,0,0,
,0.797,0.58,0.118,-1403.321,-580.75,-595.398,0,0,0,
,0.786,0.544,0.091,-1411.805,-558.533,-596.741,0,0,0,
,0.783,0.445,0.078,-1367.066,-513.001,-633.24,0,0,0,
,0.776,0.428,0.073,-1313.294,-460.694,-632.447,0,0,0,
,0.769,0.509,0.093,-1192.078,-413.758,-639.1,0,0,0,
,0.753,0.585,0.113,-1039.612,-363.526,-622.864,0,0,0,
,0.774,0.633,0.137,-866.394,-312.378,-617.493,0,0,0,
,0.809,0.608,0.152,-656.678,-264.466,-604.31,0,0,0,
,0.835,0.576,0.165,-550.599,-226.563,-563.904,0,0,0,
,0.875,0.572,0.174,-527.527,-199.463,-504.639,0,0,0,
,0.926,0.569,0.163,-510.743,-178.467,-440.735,0,0,0,
,0.993,0.557,0.151,-514.222,-160.767,-376.831,0,0,0,
,1.053,0.569,0.153,-532.044,-148.987,-316.102,0,0,0,
,1.051,0.58,0.173,-541.077,-144.043,-261.414,0,0,0,
,0.991,0.589,0.206,-537.476,-140.076,-193.848,0,0,0,
,0.924,0.59,0.23,-515.381,-139.893,-120.179,0,0,0,
,0.855,0.567,0.234,-499.39,-132.019,-50.599,0,0,0,
,0.842,0.587,0.256,-454.041,-104.554,15.808,0,0,0,
,0.868,0.605,0.315,-369.446,-91.492,45.776,0,0,0,
,0.862,0.593,0.375,-297.608,-101.38,66.467,0,0,0,
,0.814,0.529,0.376,-259.766,-122.132,55.786,0,0,0,
,0.78,0.451,0.32,-277.222,-119.202,27.832,0,0,0,
,0.816,0.512,0.235,-352.417,-89.051,31.066,0,0,0,
,0.875,0.647,0.232,-369.141,-67.872,-15.442,0,0,0,
,0.917,0.661,0.253,-346.497,-64.881,-60.73,0,0,0,
,0.862,0.676,0.227,-293.335,-63.843,-85.999,0,0,0,
,0.764,0.652,0.213,-210.755,-47.242,-85.755,0,0,0,
,0.665,0.607,0.207,-128.174,-29.114,-64.026,0,0,0,
,0.609,0.574,0.225,-46.692,-11.963,-17.579,0,0,0,
,0.601,0.529,0.225,7.568,2.136,25.756,0,0,0,
,0.617,0.509,0.222,38.635,1.77,65.979,0,0,0,
,0.634,0.49,0.213,36.56,-9.217,100.097,0,0,0,
,0.653,0.474,0.197,12.756,-26.062,125.976,0,0,0,
,0.678,0.455,0.175,-24.414,-49.134,150.329,0,0,0,
,0.717,0.438,0.167,-65.796,-70.435,169.86,0,0,0,
,0.771,0.419,0.156,-106.934,-94.544,181.335,0,0,0,
,0.815,0.399,0.154,-158.509,-117.371,182.495,0,0,0,
,0.871,0.386,0.154,-219.239,-135.498,175.659,0,0,0,
,0.939,0.378,0.162,-289.612,-158.265,156.372,0,0,0,
,1.002,0.382,0.162,-365.113,-182.435,126.098,0,0,0,
,1.02,0.365,0.15,-461.243,-213.99,121.948,0,0,0,
,1.02,0.358,0.138,-545.655,-228.516,101.745,0,0,0,
,1.069,0.352,0.131,-606.141,-226.258,73.669,0,0,0,
,1.12,0.359,0.113,-639.588,-223.816,29.296,0,0,0,
,1.165,0.367,0.118,-664.368,-219.422,-31.983,0,0,0,
,1.189,0.387,0.114,-695.374,-220.459,-101.502,0,0,0,
,1.181,0.39,0.087,-727.478,-213.99,-179.688,0,0,0,
,1.222,0.404,0.051,-761.109,-196.228,-263.672,0,0,0,
,1.157,0.438,0.041,-763.428,-186.097,-349.305,0,0,0,
,0.994,0.441,0.069,-721.436,-165.894,-412.537,0,0,0,
,0.866,0.437,0.102,-672.364,-138.489,-432.496,0,0,0,
,0.766,0.42,0.136,-594.727,-114.014,-410.34,0,0,0,
,0.721,0.396,0.146,-475.831,-86.304,-361.756,0,0,0,
,0.735,0.374,0.135,-338.929,-61.646,-314.148,0,0,0,
,0.788,0.358,0.098,-238.953,-46.326,-275.025,0,0,0,
,0.824,0.371,0.062,-175.721,-44.678,-242.798,0,0,0,
,0.846,0.364,0.028,-161.622,-41.321,-233.643,0,0,0,
,0.872,0.375,0.015,-186.463,-35.645,-239.075,0,0,0,
,0.874,0.393,0.032,-209.046,-33.753,-263.001,0,0,0,
,0.812,0.417,0.066,-222.657,-27.283,-286.072,0,0,0,
,0.742,0.416,0.087,-230.957,-20.813,-292.847,0,0,0,
,0.653,0.415,0.119,-232.85,-9.705,-279.053,0,0,0,
,0.563,0.423,0.148,-183.106,8.85,-253.663,0,0,0,
,0.498,0.425,0.167,-129.395,27.282,-217.713,0,0,0,
,0.501,0.47,0.158,-95.154,46.508,-175.415,0,0,0,
,0.549,0.504,0.206,-61.28,58.471,-150.757,0,0,0,
,0.613,0.515,0.225,-71.167,56.274,-129.517,0,0,0,
,0.706,0.516,0.234,-258.728,24.597,-89.051,0,0,0,
,0.767,0.535,0.199,-562.317,-17.029,-32.593,0,0,0,
,0.785,0.603,0.163,-764.405,-35.523,5.798,0,0,0,
,0.814,0.635,0.13,-853.333,-40.284,60.607,0,0,0,
,0.837,0.67,0.115,-854.615,-30.701,138.672,0,0,0,
,0.859,0.707,0.089,-747.437,-11.841,211.67,0,0,0,
,0.921,0.753,0.072,-539.856,17.273,266.723,0,0,0,
,0.998,0.796,0.073,-263.245,46.203,295.166,0,0,0,
,1.045,0.804,0.075,-3.174,70.434,301.513,0,0,0,
,1.086,0.769,0.094,186.767,92.163,297.546,0,0,0,
,1.121,0.751,0.069,323.608,124.817,320.922,0,0,0,
,1.209,0.668,0.055,432.983,151.428,328.552,0,0,0,
,1.354,0.518,0.028,316.833,139.831,323.852,0,0,0,
,1.366,0.466,0,-23.926,96.374,329.651,0,0,0,
,1.27,0.48,-0.034,-380.616,56.945,341.125,0,0,0,
,1.171,0.869,0.007,-162.598,58.532,335.205,0,0,0,
,1.171,0.052,0.04,376.22,-61.585,123.657,0,0,0,
,0.942,-0.099,0.052,264.099,-7.569,264.77,0,0,0,
,0.995,0.12,-0.002,185.119,63.598,246.154,0,0,0,
,0.956,0.224,-0.068,288.635,93.139,230.102,0,0,0,
,0.925,0.349,-0.094,499.694,154.785,188.11,0,0,0,
,0.882,0.217,-0.133,638.977,198.73,125.061,0,0,0,
,0.819,0.405,-0.13,707.702,264.282,189.941,0,0,0,
,0.793,0.354,-0.152,811.279,299.926,137.329,0,0,0,
,0.703,0.356,-0.115,914.428,331.787,142.028,0,0,0,
,0.666,0.307,-0.096,967.529,351.806,127.014,0,0,0,
,0.637,0.304,-0.077,943.359,369.934,150.329,0,0,0,
,0.63,0.281,-0.059,867.981,374.878,158.142,0,0,0,
,0.653,0.293,-0.031,794.922,373.047,158.264,0,0,0,
,0.666,0.313,0.001,747.436,358.642,140.747,0,0,0,
,0.674,0.32,0.02,689.209,339.538,114.318,0,0,0,
,0.697,0.331,0.022,620.971,317.993,76.599,0,0,0,
,0.72,0.346,0.023,548.156,289.672,28.076,0,0,0,
,0.735,0.371,0.045,513.549,256.469,-20.508,0,0,0,
,0.764,0.387,0.046,473.632,216.919,-62.073,0,0,0,
,0.767,0.388,0.062,433.349,170.532,-87.586,0,0,0,
,0.802,0.375,0.05,400.879,125.366,-99.549,0,0,0,
,0.839,0.342,0.047,351.562,81.665,-101.502,0,0,0,
,0.894,0.334,0.042,294.555,42.785,-102.601,0,0,0,
,0.98,0.334,0.062,225.402,9.277,-107.666,0,0,0,
,1.076,0.344,0.072,138.427,-34.302,-114.319,0,0,0,
,1.148,0.335,0.075,10.498,-86.182,-120.301,0,0,0,
,1.177,0.327,0.058,-146.607,-131.958,-119.751,0,0,0,
,1.165,0.32,0.039,-300.232,-166.871,-129.09,0,0,0,
,1.164,0.346,0.023,-413.147,-174.134,-144.593,0,0,0,
,1.134,0.383,0.044,-468.262,-180.359,-176.697,0,0,0,
,1.071,0.397,0.058,-488.221,-186.097,-202.393,0,0,0,
,1.068,0.409,0.059,-492.981,-171.387,-227.723,0,0,0,
,1.087,0.436,0.049,-475.22,-161.499,-250.855,0,0,0,
,1.028,0.447,0.049,-417.603,-154.602,-271.607,0,0,0,
,0.923,0.432,0.056,-349.06,-136.658,-271.973,0,0,0,
,0.867,0.407,0.054,-293.946,-106.446,-250.428,0,0,0,
,0.881,0.394,0.046,-238.831,-72.449,-215.394,0,0,0,
,0.916,0.388,0.051,-164.734,-39.246,-186.951,0,0,0,
,0.944,0.392,0.072,-104.065,-17.64,-173.218,0,0,0,
,0.977,0.419,0.089,-70.374,-8.545,-159.729,0,0,0,
,0.95,0.385,0.086,-84.229,-12.391,-156.8,0,0,0,
,0.869,0.389,0.041,-127.93,-11.658,-143.86,0,0,0,
,0.787,0.392,0.055,-109.803,-9.827,-123.352,0,0,0,
,0.698,0.36,0.06,-106.934,0.915,-87.403,0,0,0,
,0.655,0.343,0.072,-93.506,14.77,-46.509,0,0,0,
,0.631,0.339,0.059,-88.623,36.193,-14.405,0,0,0,
,0.611,0.361,0.053,-48.706,60.485,-6.653,0,0,0,
,0.621,0.337,0.065,-17.151,82.214,-20.874,0,0,0,
,0.636,0.352,0.087,-12.269,102.417,-39.551,0,0,0,
,0.666,0.365,0.109,-0.245,116.15,-71.778,0,0,0,
,0.701,0.364,0.146,-0.245,124.084,-103.699,0,0,0,
,0.736,0.379,0.191,-25.33,122.375,-131.348,0,0,0,
,0.76,0.398,0.217,-44.007,114.868,-156.006,0,0,0,
,0.802,0.406,0.23,3.418,106.75,-176.88,0,0,0,
,0.83,0.391,0.241,77.941,94.177,-187.195,0,0,0,
,0.843,0.362,0.272,148.132,78.735,-204.285,0,0,0,
,0.911,0.281,0.324,149.719,53.955,-217.53,0,0,0,
,1.004,0.232,0.369,9.704,10.986,-209.168,0,0,0,
,1.038,0.339,0.332,-188.416,-25.635,-177.002,0,0,0,
,1.075,0.51,0.256,-257.019,-50.477,-149.476,0,0,0,
,1.08,0.597,0.202,-109.498,-47.181,-146.241,0,0,0,
,1.067,0.568,0.156,133.239,-32.776,-153.87,0,0,0,
,1.062,0.487,0.154,262.512,-14.71,-135.315,0,0,0,
,1.083,0.457,0.157,290.222,-2.137,-104.432,0,0,0,
,1.122,0.439,0.171,283.63,-1.221,-93.201,0,0,0,
,1.112,0.428,0.196,211.486,-15.625,-96.558,0,0,0,
,1.09,0.443,0.205,106.323,-29.48,-96.314,0,0,0,
,1.062,0.482,0.2,31.311,-49.073,-70.435,0,0,0,
,0.982,0.498,0.177,26.062,-77.454,-22.095,0,0,0,
,0.906,0.468,0.15,54.016,-89.539,48.523,0,0,0,
,0.876,0.438,0.113,102.111,-87.586,120.666,0,0,0,
,0.897,0.423,0.098,161.926,-77.271,182.495,0,0,0,
,0.922,0.428,0.102,217.712,-68.909,220.947,0,0,0,
,0.935,0.426,0.112,263.244,-65.003,231.506,0,0,0,
,0.936,0.41,0.103,280.517,-61.768,233.825,0,0,0,
,0.929,0.447,0.086,303.405,-59.082,227.661,0,0,0,
,0.91,0.439,0.065,333.862,-51.331,211.059,0,0,0,
,0.869,0.432,0.062,378.051,-41.871,195.617,0,0,0,
,0.828,0.423,0.063,414.917,-34.18,187.561,0,0,0,
,0.798,0.407,0.063,438.598,-24.353,195.373,0,0,0,
,0.785,0.393,0.065,451.172,-18.189,218.567,0,0,0,
,0.783,0.378,0.057,455.81,-19.104,250.427,0,0,0,
,0.773,0.359,0.056,439.148,-25.086,279.785,0,0,0,
,0.771,0.35,0.047,397.705,-37.964,308.41,0,0,0,
,0.779,0.351,0.043,358.459,-41.382,337.829,0,0,0,
,0.796,0.344,0.042,327.087,-47.303,355.774,0,0,0,
,0.828,0.34,0.044,287.597,-50.721,366.516,0,0,0,
,0.832,0.332,0.048,242.248,-59.998,369.018,0,0,0,
,0.833,0.33,0.051,202.575,-66.712,371.215,0,0,0,
,0.837,0.322,0.063,153.198,-71.412,365.173,0,0,0,
,0.854,0.32,0.065,97.29,-73.853,357.299,0,0,0,
,0.879,0.314,0.064,71.044,-73.975,337.341,0,0,0,
,0.932,0.321,0.068,34.179,-67.81,306.213,0,0,0,
,0.971,0.353,0.07,8.85,-63.599,268.249,0,0,0,
,0.983,0.379,0.079,-6.775,-58.35,232.666,0,0,0,
,0.953,0.367,0.085,-17.884,-51.514,203.003,0,0,0,
,0.926,0.353,0.088,-29.48,-33.081,187.072,0,0,0,
,0.944,0.354,0.089,-37.659,-2.808,167.419,0,0,0,
,0.951,0.372,0.113,-34.485,24.78,130.615,0,0,0,
,0.939,0.381,0.13,-23.011,53.039,66.101,0,0,0,
,0.979,0.405,0.139,-14.466,87.28,21.118,0,0,0,
,1.002,0.438,0.149,3.418,104.919,-39.124,0,0,0,
,0.928,0.431,0.166,43.762,113.647,-84.717,0,0,0,
,0.826,0.406,0.191,74.89,123.169,-96.314,0,0,0,
,0.759,0.381,0.201,106.262,136.657,-76.661,0,0,0,
,0.762,0.349,0.199,135.437,157.898,-48.157,0,0,0,
,0.836,0.348,0.197,152.221,181.03,-41.199,0,0,0,
,0.917,0.37,0.184,142.578,179.321,-62.928,0,0,0,
,0.964,0.428,0.194,134.826,198.852,-115.845,0,0,0,
,0.985,0.454,0.209,153.442,213.684,-197.876,0,0,0,
,0.922,0.454,0.238,193.359,217.041,-245.606,0,0,0,
,0.84,0.426,0.257,230.346,223.022,-267.823,0,0,0,
,0.774,0.388,0.273,237.793,229.065,-268.555,0,0,0,
,0.727,0.342,0.271,172.424,234.558,-250.428,0,0,0,
,0.737,0.326,0.274,88.256,235.595,-239.136,0,0,0,
,0.749,0.347,0.299,-31.495,226.196,-223.45,0,0,0,
,0.757,0.385,0.3,-134.766,213.501,-224.183,0,0,0,
,0.737,0.439,0.264,-180.115,210.205,-216.492,0,0,0,
,0.745,0.443,0.214,-128.724,214.599,-231.385,0,0,0,
,0.751,0.431,0.156,-44.068,233.398,-245.24,0,0,0,
,0.755,0.479,0.116,60.546,262.39,-255.555,0,0,0,
,0.778,0.523,0.086,245.544,308.349,-274.476,0,0,0,
,0.803,0.559,0.085,470.398,353.942,-288.575,0,0,0,
,0.839,0.52,0.133,668.64,380.615,-323.487,0,0,0,
,0.806,0.448,0.151,724.365,411.071,-309.876,0,0,0,
,0.795,0.384,0.14,647.766,447.754,-298.584,0,0,0,
,0.766,0.442,0.072,592.59,479.37,-241.578,0,0,0,
,0.77,0.407,-0.026,663.696,510.559,-201.416,0,0,0,
,0.863,0.258,0.077,400.94,501.648,-145.63,0,0,0,
,1.05,0.196,0.099,-46.387,495.788,-158.081,0,0,0,
,1.231,0.464,0.064,-88.99,484.924,-203.858,0,0,0,
,1.273,0.669,0.036,239.807,422.546,-325.501,0,0,0,
,1.178,0.606,0.009,517.456,356.323,-421.143,0,0,0,
,1.091,0.578,-0.073,626.892,312.378,-451.05,0,0,0,
,1.034,0.513,-0.191,835.083,292.968,-471.436,0,0,0,
,1.002,0.494,-0.291,1098.449,306.884,-476.075,0,0,0,
,0.997,0.452,-0.308,1283.325,328.979,-492.92,0,0,0,
,0.955,0.46,-0.277,1393.127,339.66,-483.094,0,0,0,
,0.912,0.467,-0.259,1492.248,338.501,-447.754,0,0,0,
,0.846,0.396,-0.25,1498.169,324.218,-386.902,0,0,0,
,0.789,0.326,-0.235,1365.783,300.598,-308.594,0,0,0,
,0.753,0.286,-0.209,1174.255,276.55,-236.939,0,0,0,
,0.737,0.278,-0.184,1040.161,246.521,-196.167,0,0,0,
,0.748,0.286,-0.166,1023.681,208.984,-172.181,0,0,0,
,0.777,0.298,-0.17,1057.373,169.983,-164.368,0,0,0,
,0.809,0.306,-0.187,1083.435,122.192,-171.509,0,0,0,
,0.846,0.299,-0.247,1060.669,84.228,-176.697,0,0,0,
,0.882,0.339,-0.258,1005.188,47.79,-166.871,0,0,0,
,0.889,0.32,-0.272,893.188,11.352,-154.786,0,0,0,
,0.907,0.333,-0.311,723.571,-12.452,-110.413,0,0,0,
,0.946,0.377,-0.3,617.126,-28.809,-62.012,0,0,0,
,0.983,0.364,-0.319,550.476,-47.12,-5.677,0,0,0,
,1.003,0.388,-0.332,474.914,-55.848,67.932,0,0,0,
,1.033,0.395,-0.339,422.058,-56.946,138.672,0,0,0,
,1.035,0.378,-0.341,369.69,-59.205,218.139,0,0,0,
,1.03,0.338,-0.336,313.964,-57.068,282.653,0,0,0,
,1.036,0.316,-0.331,242.736,-53.101,353.759,0,0,0,
,1.072,0.299,-0.34,159.729,-42.664,408.508,0,0,0,
,1.149,0.323,-0.348,110.412,-19.959,447.448,0,0,0,
,1.217,0.303,-0.328,69.03,-3.113,461.181,0,0,0,
,1.214,0.368,-0.251,77.27,14.709,481.628,0,0,0,
,1.183,0.307,-0.208,58.227,24.536,481.384,0,0,0,
,1.108,0.345,-0.147,56.396,36.315,542.846,0,0,0,
,1.096,0.306,-0.118,124.694,50.109,567.138,0,0,0,
,1.086,0.286,-0.076,194.824,47.424,605.102,0,0,0,
,1.033,0.243,-0.051,239.318,36.804,633.484,0,0,0,
,1.014,0.212,-0.019,290.527,20.996,663.696,0,0,0,
,1.014,0.174,0.016,353.881,1.525,676.696,0,0,0,
,0.98,0.158,0.072,409.362,-5.188,639.709,0,0,0,
,1.004,0.157,0.1,423.767,2.441,575.561,0,0,0,
,1.063,0.173,0.133,343.139,11.657,504.394,0,0,0,
,1.071,0.14,0.125,140.258,23.62,415.405,0,0,0,
,0.976,0.116,0.092,-92.835,59.448,339.599,0,0,0,
,0.886,0.143,0.087,-206.849,103.82,262.39,0,0,0,
,0.777,0.173,0.111,-200.562,144.043,203.247,0,0,0,
,0.683,0.199,0.15,-106.324,181.396,140.991,0,0,0,
,0.623,0.218,0.161,30.273,213.195,79.467,0,0,0,
,0.582,0.223,0.145,163.757,237.121,15.808,0,0,0,
,0.556,0.257,0.097,291.748,259.277,-45.35,0,0,0,
,0.572,0.271,0.078,393.676,281.311,-110.596,0,0,0,
,0.62,0.313,0.049,493.469,297.79,-163.453,0,0,0,
,0.655,0.336,0.039,578.796,307.067,-222.962,0,0,0,
,0.69,0.321,0.036,654.419,312.561,-284.607,0,0,0,
,0.708,0.315,0.052,647.094,313.842,-338.746,0,0,0,
,0.747,0.335,0.086,646.24,317.932,-389.954,0,0,0,
,0.809,0.36,0.126,664.672,306.762,-430.542,0,0,0,
,0.834,0.369,0.147,673.278,281.921,-460.755,0,0,0,
,0.848,0.363,0.157,661.316,254.577,-477.234,0,0,0,
,0.898,0.355,0.151,625.488,224.914,-490.906,0,0,0,
,0.968,0.36,0.15,570.861,187.317,-505.433,0,0,0,
,1.05,0.378,0.139,484.253,141.052,-525.513,0,0,0,
,1.108,0.409,0.14,384.765,85.815,-528.138,0,0,0,
,1.124,0.395,0.131,227.722,37.414,-558.96,0,0,0,
,1.116,0.405,0.108,37.17,-1.099,-546.998,0,0,0,
,1.11,0.45,0.092,-97.413,-21.79,-519.043,0,0,0,
,1.126,0.452,0.096,-194.336,-34.485,-476.319,0,0,0,
,1.163,0.493,0.11,-255.249,-29.847,-422.303,0,0,0,
,1.212,0.539,0.118,-264.649,-27.039,-363.77,0,0,0,
,1.212,0.602,0.123,-226.807,-29.541,-297.181,0,0,0,
,1.137,0.648,0.118,-144.837,-29.541,-208.435,0,0,0,
,0.971,0.646,0.09,-17.456,-23.926,-78.003,0,0,0,
,0.822,0.606,0.07,131.713,6.53,78.857,0,0,0,
,0.785,0.528,0.071,313.659,49.072,239.135,0,0,0,
,0.835,0.436,0.078,473.022,74.829,381.225,0,0,0,
,0.886,0.421,0.075,558.227,79.04,489.563,0,0,0,
,0.95,0.439,0.072,609.375,71.167,542.907,0,0,0,
,1.024,0.449,0.06,622.924,52.734,572.509,0,0,0,
,1.071,0.466,0.05,610.351,20.446,580.627,0,0,0,
,1.061,0.472,0.054,565.368,-16.053,576.904,0,0,0,
,1.042,0.452,0.049,484.253,-51.758,581.237,0,0,0,
,1.005,0.419,0.051,386.413,-87.769,599.304,0,0,0,
,0.948,0.355,0.041,302.429,-119.08,631.164,0,0,0,
,0.916,0.317,0.023,240.966,-126.16,676.086,0,0,0,
,0.89,0.301,0.034,224.67,-126.343,730.713,0,0,0,
