TIMECODE,ACC_X,ACC_Y,ACC_Z,GYR_X,GYR_Y,GYR_Z,ECG_I,ECG_II,ECG_III,TAG
,0.842,-0.526,0.044,3.601,11.169,-18.982,0,0,0,
,0.841,-0.527,0.046,1.831,11.962,-19.715,0,0,0,
,0.843,-0.527,0.046,1.77,12.817,-19.898,0,0,0,
,0.845,-0.528,0.043,2.197,12.146,-20.813,0,0,0,
,0.843,-0.528,0.044,3.295,10.803,-20.691,0,0,0,
,0.842,-0.528,0.043,4.699,12.023,-19.165,0,0,0,
,0.838,-0.529,0.045,3.234,12.146,-18.982,0,0,0,
,0.837,-0.527,0.045,0.488,10.925,-19.043,0,0,0,
,0.835,-0.528,0.045,-4.09,12.695,-19.959,0,0,0,
,0.838,-0.526,0.046,-2.625,11.596,-19.349,0,0,0,
,0.84,-0.523,0.041,-2.747,12.573,-19.776,0,0,0,
,0.842,-0.525,0.042,3.54,10.131,-19.776,0,0,0,
,0.85,-0.529,0.046,6.469,9.155,-18.189,0,0,0,
,0.844,-0.528,0.045,0.854,9.216,-20.203,0,0,0,
,0.841,-0.524,0.041,-0.489,8.728,-21.363,0,0,0,
,0.837,-0.522,0.045,3.173,9.338,-22.461,0,0,0,
,0.837,-0.521,0.042,5.493,9.643,-23.072,0,0,0,
,0.839,-0.524,0.04,6.774,10.009,-20.142,0,0,0,
,0.841,-0.526,0.047,6.286,8.911,-20.203,0,0,0,
,0.847,-0.531,0.041,7.873,7.873,-20.874,0,0,0,
,0.843,-0.529,0.042,6.897,7.568,-21.912,0,0,0,
,0.842,-0.526,0.048,1.464,8.728,-26.673,0,0,0,
,0.839,-0.518,0.045,2.807,8.972,-29.786,0,0,0,
,0.846,-0.513,0.043,10.376,3.234,-30.091,0,0,0,
,0.842,-0.512,0.039,21.301,2.075,-30.091,0,0,0,
,0.838,-0.518,0.039,25.146,2.502,-26.917,0,0,0,
,0.837,-0.519,0.038,20.752,7.69,-25.94,0,0,0,
,0.835,-0.521,0.035,18.005,10.009,-24.72,0,0,0,
,0.838,-0.529,0.039,19.775,12.329,-22.278,0,0,0,
,0.836,-0.532,0.037,17.273,13.061,-21.607,0,0,0,
,0.836,-0.535,0.037,17.211,14.038,-21.241,0,0,0,
,0.842,-0.539,0.041,14.526,14.282,-22.4,0,0,0,
,0.846,-0.542,0.048,13.61,15.686,-23.926,0,0,0,
,0.835,-0.533,0.048,0.061,13.61,-26.429,0,0,0,
,0.838,-0.528,0.044,0.427,13.61,-27.344,0,0,0,
,0.836,-0.527,0.041,3.418,12.634,-26.368,0,0,0,
,0.837,-0.53,0.043,2.929,16.845,-22.889,0,0,0,
,0.836,-0.538,0.034,-7.508,22.461,-20.874,0,0,0,
,0.838,-0.538,0.038,-9.827,19.592,-24.17,0,0,0,
,0.841,-0.538,0.035,-12.696,20.629,-25.574,0,0,0,
,0.844,-0.531,0.037,-15.198,21.667,-25.208,0,0,0,
,0.838,-0.524,0.038,-16.053,21.789,-26.673,0,0,0,
,0.835,-0.519,0.044,-13.672,26.062,-25.818,0,0,0,
,0.838,-0.521,0.045,-6.775,26.916,-26.246,0,0,0,
,0.842,-0.525,0.046,-2.503,25.756,-25.025,0,0,0,
,0.841,-0.533,0.047,0.488,24.719,-23.377,0,0,0,
,0.843,-0.543,0.048,-7.752,26.428,-20.935,0,0,0,
,0.836,-0.543,0.045,-17.212,27.16,-17.701,0,0,0,
,0.836,-0.539,0.039,-25.574,32.043,-20.081,0,0,0,
,0.829,-0.536,0.037,-29.358,35.827,-20.325,0,0,0,
,0.831,-0.536,0.034,-28.992,37.17,-20.691,0,0,0,
,0.831,-0.535,0.033,-32.532,41.015,-19.654,0,0,0,
,0.83,-0.536,0.025,-34.119,45.349,-17.518,0,0,0,
,0.83,-0.538,0.028,-37.842,49.377,-14.1,0,0,0,
,0.829,-0.537,0.034,-46.448,52.49,-12.574,0,0,0,
,0.824,-0.535,0.029,-53.162,57.861,-12.818,0,0,0,
,0.83,-0.537,0.032,-56.946,62.011,-11.536,0,0,0,
,0.838,-0.539,0.034,-60.425,64.453,-11.353,0,0,0,
,0.843,-0.535,0.034,-64.026,62.683,-11.78,0,0,0,
,0.853,-0.543,0.041,-64.209,59.57,-12.207,0,0,0,
,0.853,-0.536,0.038,-72.693,58.044,-11.719,0,0,0,
,0.847,-0.516,0.044,-59.815,53.588,-18.494,0,0,0,
,0.846,-0.499,0.033,-52.674,49.377,-32.349,0,0,0,
,0.848,-0.519,0.031,-36.56,41.565,-32.41,0,0,0,
,0.85,-0.519,0.027,-41.26,41.442,-26.246,0,0,0,
,0.851,-0.511,0.019,-38.147,39.611,-25.635,0,0,0,
,0.845,-0.509,0.015,-20.935,34.118,-27.588,0,0,0,
,0.854,-0.531,0.02,-27.161,36.621,-25.574,0,0,0,
,0.856,-0.512,0.023,-31.373,33.874,-25.269,0,0,0,
,0.855,-0.515,0.025,-23.377,30.7,-29.969,0,0,0,
,0.854,-0.514,0.027,-11.719,23.498,-30.091,0,0,0,
,0.855,-0.513,0.033,-6.897,19.653,-29.786,0,0,0,
,0.847,-0.512,0.036,-0.794,15.869,-28.931,0,0,0,
,0.852,-0.516,0.033,0.488,13.732,-30.945,0,0,0,
,0.851,-0.512,0.028,5.615,11.169,-31.067,0,0,0,
,0.851,-0.517,0.026,9.948,6.836,-31.861,0,0,0,
,0.849,-0.514,0.021,10.925,6.836,-30.945,0,0,0,
,0.849,-0.514,0.022,14.953,3.051,-28.138,0,0,0,
,0.847,-0.516,0.024,15.075,3.601,-27.527,0,0,0,
,0.845,-0.511,0.023,19.043,4.943,-27.771,0,0,0,
,0.843,-0.515,0.024,31.555,2.868,-27.1,0,0,0,
,0.841,-0.527,0.021,34.545,2.197,-25.879,0,0,0,
,0.841,-0.532,0.025,26.306,2.502,-25.147,0,0,0,
,0.841,-0.532,0.028,22.827,0.183,-23.926,0,0,0,
,0.842,-0.529,0.024,24.353,0.366,-27.466,0,0,0,
,0.843,-0.538,0.029,19.775,0.183,-27.039,0,0,0,
,0.841,-0.532,0.025,17.273,-0.184,-28.443,0,0,0,
,0.84,-0.528,0.026,17.7,1.159,-26.429,0,0,0,
,0.841,-0.528,0.025,22.033,-0.061,-26.551,0,0,0,
,0.842,-0.53,0.029,20.324,-0.306,-24.781,0,0,0,
,0.843,-0.532,0.032,17.639,0.244,-24.537,0,0,0,
,0.842,-0.53,0.028,15.564,1.403,-23.682,0,0,0,
,0.845,-0.531,0.03,14.343,-1.16,-24.292,0,0,0,
,0.845,-0.528,0.027,12.451,-0.733,-24.414,0,0,0,
,0.842,-0.523,0.027,16.296,1.281,-26.307,0,0,0,
,0.841,-0.527,0.026,21.118,-1.038,-26.612,0,0,0,
,0.842,-0.53,0.025,17.395,0.915,-24.109,0,0,0,
,0.84,-0.529,0.025,14.892,2.441,-24.231,0,0,0,
,0.841,-0.533,0.031,14.953,3.173,-22.522,0,0,0,
,0.838,-0.533,0.022,11.535,3.906,-22.156,0,0,0,
,0.838,-0.529,0.026,10.253,5.493,-21.912,0,0,0,
,0.812,-0.535,0.024,10.62,8.117,-23.011,0,0,0,
,0.842,-0.536,0.031,4.76,10.192,-21.546,0,0,0,
,0.838,-0.529,0.031,0.183,10.986,-22.889,0,0,0,
,0.843,-0.526,0.028,5.371,9.155,-24.964,0,0,0,
,0.842,-0.533,0.031,12.207,6.958,-24.231,0,0,0,
,0.838,-0.536,0.03,7.385,6.897,-23.133,0,0,0,
,0.835,-0.535,0.024,2.319,8.361,-23.56,0,0,0,
,0.835,-0.536,0.026,0.305,6.958,-23.621,0,0,0,
,0.838,-0.534,0.026,0.915,8.911,-23.377,0,0,0,
,0.841,-0.537,0.022,-0.855,7.995,-24.109,0,0,0,
,0.841,-0.526,0.026,-4.456,12.939,-23.438,0,0,0,
,0.843,-0.528,0.031,-2.32,11.718,-22.095,0,0,0,
,0.842,-0.529,0.031,-0.428,9.338,-19.654,0,0,0,
,0.841,-0.527,0.036,0.244,8.056,-19.837,0,0,0,
,0.842,-0.536,0.033,0.793,9.887,-21.119,0,0,0,
,0.841,-0.533,0.028,1.342,8.972,-23.377,0,0,0,
,0.841,-0.535,0.029,-2.076,6.897,-23.56,0,0,0,
,0.84,-0.534,0.03,-5.005,8.544,-22.644,0,0,0,
,0.841,-0.531,0.032,-9.888,10.07,-21.119,0,0,0,
,0.843,-0.525,0.029,-7.081,9.582,-20.325,0,0,0,
,0.841,-0.528,0.025,-5.433,8.056,-20.386,0,0,0,
,0.84,-0.526,0.026,-3.174,6.836,-20.874,0,0,0,
,0.838,-0.529,0.034,-0.184,9.46,-22.339,0,0,0,
,0.843,-0.525,0.034,4.333,5.737,-22.522,0,0,0,
,0.839,-0.528,0.032,7.69,7.69,-21.607,0,0,0,
,0.839,-0.532,0.036,7.995,7.446,-20.874,0,0,0,
,0.841,-0.501,0.033,5.676,7.751,-21.241,0,0,0,
,0.839,-0.532,0.029,4.577,9.033,-20.081,0,0,0,
,0.838,-0.536,0.033,3.662,7.324,-20.813,0,0,0,
,0.836,-0.537,0.032,4.089,6.103,-22.706,0,0,0,
,0.835,-0.535,0.062,2.502,7.568,-22.095,0,0,0,
,0.838,-0.537,0.032,-1.954,8.85,-22.522,0,0,0,
,0.838,-0.536,0.031,-5.372,10.559,-21.18,0,0,0,
,0.834,-0.531,0.029,-3.846,10.742,-21.485,0,0,0,
,0.836,-0.529,0.031,-4.761,11.596,-22.522,0,0,0,
,0.84,-0.532,0.03,-6.043,10.986,-21.485,0,0,0,
,0.845,-0.53,0.03,-3.357,10.07,-21.363,0,0,0,
,0.844,-0.532,0.028,-0.794,9.216,-21.363,0,0,0,
,0.847,-0.532,0.027,-2.137,9.643,-20.264,0,0,0,
,0.844,-0.529,0.029,-0.733,9.826,-23.133,0,0,0,
,0.844,-0.529,0.029,-0.916,12.146,-21.973,0,0,0,
,0.841,-0.527,0.037,-3.785,12.39,-21.424,0,0,0,
,0.837,-0.524,0.041,-8.118,16.418,-22.217,0,0,0,
,0.839,-0.521,0.035,-1.77,13.305,-21.485,0,0,0,
,0.842,-0.527,0.036,5.615,9.399,-20.997,0,0,0,
,0.838,-0.528,0.03,8.483,9.582,-19.654,0,0,0,
,0.837,-0.533,0.029,6.408,7.873,-19.288,0,0,0,
,0.838,-0.54,0.029,4.333,10.315,-19.898,0,0,0,
,0.84,-0.541,0.028,0.793,12.512,-21.18,0,0,0,
,0.844,-0.537,0.025,-1.587,12.817,-23.804,0,0,0,
,0.841,-0.531,0.031,-3.052,10.192,-23.621,0,0,0,
,0.844,-0.527,0.029,0.122,9.521,-23.56,0,0,0,
,0.843,-0.527,0.036,2.258,11.108,-23.194,0,0,0,
,0.842,-0.525,0.031,7.324,9.033,-23.194,0,0,0,
,0.839,-0.52,0.035,9.216,5.981,-23.499,0,0,0,
,0.842,-0.523,0.03,12.817,9.338,-25.025,0,0,0,
,0.848,-0.527,0.033,14.953,5.432,-23.987,0,0,0,
,0.842,-0.529,0.033,17.639,5.676,-21.79,0,0,0,
,0.842,-0.532,0.032,15.686,4.699,-19.898,0,0,0,
,0.835,-0.535,0.032,13.549,4.943,-19.715,0,0,0,
,0.835,-0.532,0.031,8.667,6.897,-22.217,0,0,0,
,0.839,-0.532,0.028,8.361,6.836,-24.292,0,0,0,
,0.836,-0.532,0.03,7.568,7.507,-23.072,0,0,0,
,0.839,-0.529,0.03,9.033,8.3,-22.95,0,0,0,
,0.839,-0.531,0.03,14.038,8.422,-22.95,0,0,0,
,0.836,-0.533,0.028,16.418,7.69,-23.499,0,0,0,
,0.834,-0.534,0.03,11.657,7.812,-23.072,0,0,0,
,0.838,-0.533,0.032,9.643,10.498,-23.499,0,0,0,
,0.842,-0.535,0.03,12.878,8.911,-24.231,0,0,0,
,0.845,-0.532,0.03,14.404,8.728,-23.194,0,0,0,
,0.843,-0.537,0.033,10.559,7.446,-22.461,0,0,0,
,0.842,-0.537,0.03,9.826,9.704,-22.95,0,0,0,
,0.839,-0.535,0.033,3.295,10.253,-22.889,0,0,0,
,0.838,-0.533,0.036,-1.954,11.535,-21.668,0,0,0,
,0.837,-0.526,0.03,-1.038,12.207,-21.485,0,0,0,
,0.839,-0.524,0.032,2.868,7.69,-20.081,0,0,0,
,0.846,-0.526,0.001,7.08,10.437,-18.921,0,0,0,
,0.845,-0.529,0.028,12.023,5.92,-19.288,0,0,0,
,0.844,-0.537,0.03,13.183,7.507,-19.471,0,0,0,
,0.839,-0.532,0.033,3.906,10.315,-22.4,0,0,0,
,0.838,-0.527,0.033,5.004,10.253,-23.804,0,0,0,
,0.839,-0.525,0.032,11.413,7.324,-25.818,0,0,0,
,0.837,-0.526,0.033,15.502,6.53,-22.95,0,0,0,
,0.837,-0.531,0.031,14.465,5.737,-20.081,0,0,0,
,0.837,-0.534,0.029,13.671,6.469,-20.325,0,0,0,
,0.84,-0.538,0.03,11.474,8.544,-19.104,0,0,0,
,0.843,-0.537,0.027,5.798,6.103,-22.339,0,0,0,
,0.845,-0.536,0.029,3.662,7.263,-23.56,0,0,0,
,0.846,-0.533,0.029,2.99,6.591,-24.842,0,0,0,
,0.839,-0.528,0.028,5.065,7.812,-25.147,0,0,0,
,0.841,-0.525,0.026,10.192,7.019,-25.33,0,0,0,
,0.843,-0.528,0.026,11.108,4.882,-23.743,0,0,0,
,0.836,-0.524,0.031,11.474,3.601,-22.461,0,0,0,
,0.832,-0.522,0.03,11.535,5.371,-23.011,0,0,0,
,0.841,-0.53,0.031,16.174,5.737,-25.574,0,0,0,
,0.843,-0.53,0.033,11.779,4.15,-22.4,0,0,0,
,0.843,-0.531,0.025,15.075,4.76,-22.217,0,0,0,
,0.844,-0.535,0.026,15.93,4.15,-21.363,0,0,0,
,0.839,-0.535,0.03,14.892,3.479,-21.607,0,0,0,
,0.839,-0.537,0.059,13.732,6.774,-23.316,0,0,0,
,0.835,-0.536,0.061,7.995,6.836,-24.292,0,0,0,
,0.838,-0.533,0.03,6.53,7.385,-23.987,0,0,0,
,0.842,-0.527,0.029,5.981,8.422,-23.804,0,0,0,
,0.839,-0.527,0.027,5.737,7.385,-22.706,0,0,0,
,0.838,-0.526,0.029,9.887,7.141,-23.56,0,0,0,
,0.84,-0.529,0.028,13.122,6.042,-23.682,0,0,0,
,0.842,-0.532,0.028,10.192,7.507,-23.133,0,0,0,
,0.844,-0.532,0.029,9.582,7.995,-22.4,0,0,0,
,0.842,-0.537,0.029,8.85,8.178,-21.058,0,0,0,
,0.836,-0.537,0.03,8.178,8.972,-20.081,0,0,0,
,0.836,-0.536,0.032,2.746,13.366,-20.325,0,0,0,
,0.836,-0.533,0.033,-0.306,11.657,-21.546,0,0,0,
,0.838,-0.532,0.033,-4.09,14.221,-21.119,0,0,0,
,0.842,-0.534,0.036,-3.907,12.207,-21.485,0,0,0,
,0.839,-0.535,0.025,-8.24,11.352,-17.09,0,0,0,
,0.812,-0.532,0.028,-5.738,13.488,-17.823,0,0,0,
,0.843,-0.531,0.022,-9.278,14.099,-17.579,0,0,0,
,0.841,-0.525,0.034,-7.264,15.502,-18.433,0,0,0,
,0.838,-0.519,0.033,-6.897,15.075,-21.363,0,0,0,
,0.844,-0.517,0.032,5.127,13.244,-23.316,0,0,0,
,0.844,-0.524,0.025,16.357,8.85,-23.438,0,0,0,
,0.842,-0.528,0.028,19.165,7.873,-20.325,0,0,0,
,0.84,-0.536,0.029,15.075,6.469,-18.982,0,0,0,
,0.838,-0.537,0.027,8.606,9.948,-18.921,0,0,0,
,0.841,-0.537,0.028,2.807,10.803,-20.264,0,0,0,
,0.842,-0.536,0.027,-3.663,10.192,-19.654,0,0,0,
,0.846,-0.528,0.027,-7.386,9.277,-20.264,0,0,0,
,0.839,-0.519,0.029,7.812,5.615,-21.241,0,0,0,
,0.842,-0.519,0.03,14.038,6.774,-21.79,0,0,0,
,0.838,-0.519,0.029,19.348,5.127,-24.353,0,0,0,
,0.839,-0.524,0.029,25.512,6.897,-23.682,0,0,0,
,0.842,-0.529,0.029,30.273,2.746,-25.33,0,0,0,
,0.839,-0.539,0.028,23.803,4.394,-20.935,0,0,0,
,0.844,-0.538,0.024,17.456,4.882,-21.363,0,0,0,
,0.84,-0.542,0.026,14.892,6.591,-20.813,0,0,0,
,0.839,-0.547,0.025,2.99,9.643,-17.212,0,0,0,
,0.837,-0.563,0.011,-11.658,17.028,-12.085,0,0,0,
,0.857,-0.659,-0.082,48.584,31.372,-28.687,0,0,0,
,0.901,-0.93,-0.263,289.062,103.088,-99.366,0,0,0,
,0.868,-2.119,-0.583,307.922,240.234,-410.035,0,0,0,
,1.041,-3.646,-0.028,361.816,348.449,-1110.047,0,0,0,
,1.492,-3.968,0.294,-1388.428,1121.276,-1463.074,0,0,0,
,2.314,-4,0.521,-2000,55.847,-2000,0,0,0,
,3.153,-1.474,-0.653,-2000,333.679,-2000,0,0,0,
,1.928,-1.047,-0.779,-1988.038,-322.51,-2000,0,0,0,
,0.175,-3.601,1.951,-1501.282,-474.976,-2000,0,0,0,
,2.667,-1.501,-3.425,-2000,-588.318,-2000,0,0,0,
,0.1,0.127,-2.202,1999.694,-148.255,-2000,0,0,0,
,0.484,-4,0.394,1996.338,-333.741,-2000,0,0,0,
,1.034,-1.242,-0.669,-2000,1999.694,-2000,0,0,0,
,3.353,2.421,-1.509,-2000,229.98,-1915.467,0,0,0,
,1.507,2.859,-0.419,-894.043,-18.433,-2000,0,0,0,
,0.579,1.888,-0.586,-426.331,326.355,-903.26,0,0,0,
,0.821,1.373,-0.235,-242.737,401.001,-28.321,0,0,0,
,0.549,0.505,0.176,-84.9,360.351,585.327,0,0,0,
,0.068,-0.364,0.328,-123.719,202.27,966.613,0,0,0,
,-0.539,-0.844,0.375,207.397,96.923,982.849,0,0,0,
,-1.05,-1.427,0.483,440.551,-24.414,814.209,0,0,0,
,-0.775,-1.968,0.689,48.523,0.549,530.151,0,0,0,
,-0.42,-1.532,0.713,-54.322,-17.762,359.069,0,0,0,
,-0.719,-1.374,0.679,290.1,-90.516,135.864,0,0,0,
,-0.74,-1.381,0.511,360.168,-65.43,-29.725,0,0,0,
,-0.59,-1.204,0.448,283.996,-33.448,-138.428,0,0,0,
,-0.429,-0.773,0.318,381.347,-74.341,-182.373,0,0,0,
,-0.264,-0.662,0.07,604.309,-121.582,-186.646,0,0,0,
,-0.173,-0.97,-0.008,501.526,-67.139,-184.51,0,0,0,
,0.097,-0.54,0.068,348.999,-83.13,-12.085,0,0,0,
,0.17,-0.062,0.244,379.211,-143.799,212.524,0,0,0,
,0.302,0.264,0.157,431.701,-256.775,519.348,0,0,0,
,0.474,0.417,0.029,488.952,-247.376,817.138,0,0,0,
,0.593,0.26,-0.038,426.452,-232.422,1085.205,0,0,0,
,0.718,-0.017,-0.164,66.467,-360.474,1397.094,0,0,0,
,0.813,-0.065,-0.261,-313.782,-441.773,1757.751,0,0,0,
,0.622,0.049,-0.118,-492.92,-415.772,1999.694,0,0,0,
,0.476,-0.135,0.106,-431.885,-208.863,1999.694,0,0,0,
,0.51,-0.365,0.41,-483.277,0.61,1999.694,0,0,0,
,0.587,-0.82,0.282,-505.066,344.421,1999.694,0,0,0,
,1.044,-0.961,0.306,-95.52,440.124,1999.694,0,0,0,
,1.184,-1.4,0.561,315.979,448.303,1999.694,0,0,0,
,2.193,-2.761,0.254,118.774,291.076,1999.694,0,0,0,
,2.02,-2.562,0.455,-275.818,112.976,1999.694,0,0,0,
,1.486,-1.961,0.363,-218.14,-10.865,1999.694,0,0,0,
,1.289,-1.971,0.792,-8.484,-27.344,1655.761,0,0,0,
,1.212,-1.895,0.676,-21.058,-21.546,1181.274,0,0,0,
,0.989,-1.596,0.526,36.926,-53.406,693.847,0,0,0,
,0.813,-1.381,0.407,0.427,-49.866,289.123,0,0,0,
,0.778,-0.931,0.282,-32.593,-57.557,44.128,0,0,0,
,0.712,-0.651,0.21,89.904,-102.295,-65.308,0,0,0,
,0.656,-0.581,0.169,208.435,-139.832,-79.529,0,0,0,
,0.661,-0.549,0.191,238.525,-144.227,-67.383,0,0,0,
,0.72,-0.532,0.214,249.206,-136.536,-72.022,0,0,0,
,0.807,-0.494,0.205,273.925,-128.174,-93.873,0,0,0,
,0.854,-0.427,0.214,351.135,-127.442,-113.343,0,0,0,
,0.9,-0.432,0.215,439.514,-126.465,-136.841,0,0,0,
,0.886,-0.401,0.203,461.67,-113.892,-136.353,0,0,0,
,0.869,-0.413,0.206,435.241,-84.412,-119.812,0,0,0,
,0.853,-0.471,0.184,380.249,-66.59,-108.338,0,0,0,
,0.822,-0.486,0.178,305.481,-58.96,-77.698,0,0,0,
,0.814,-0.409,0.171,309.57,-73.67,-44.312,0,0,0,
,0.759,-0.409,0.135,378.234,-72.022,-17.64,0,0,0,
,0.787,-0.546,0.197,432.983,-29.725,-8.301,0,0,0,
,0.797,-0.583,0.163,334.35,-17.64,-8.484,0,0,0,
,0.81,-0.539,0.141,280.029,-16.663,-16.968,0,0,0,
,0.827,-0.478,0.125,296.081,-31.373,-2.259,0,0,0,
,0.808,-0.525,0.104,329.406,-2.808,-5.921,0,0,0,
,0.838,-0.588,0.107,290.771,6.347,-24.292,0,0,0,
,0.846,-0.608,0.121,212.036,11.291,-22.339,0,0,0,
,0.851,-0.548,0.121,149.719,7.629,-29.48,0,0,0,
,0.863,-0.467,0.112,172.241,-16.663,-6.958,0,0,0,
,0.83,-0.513,0.145,286.926,4.699,-6.47,0,0,0,
,0.815,-0.595,0.124,315.307,18.859,-11.109,0,0,0,
,0.784,-0.652,0.157,220.947,52.124,-20.752,0,0,0,
,0.789,-0.686,0.155,53.1,94.055,-50.538,0,0,0,
,0.807,-0.655,0.153,-115.723,119.873,-71.9,0,0,0,
,0.812,-0.592,0.152,-221.07,138.488,-85.877,0,0,0,
,0.829,-0.552,0.13,-283.326,137.817,-77.149,0,0,0,
,0.843,-0.529,0.129,-282.898,121.093,-58.167,0,0,0,
,0.827,-0.506,0.144,-226.258,103.698,-39.002,0,0,0,
,0.807,-0.555,0.165,-191.956,97.717,-33.631,0,0,0,
,0.79,-0.59,0.192,-292.908,96.191,-60.486,0,0,0,
,0.791,-0.625,0.178,-422.425,119.079,-85.877,0,0,0,
,0.796,-0.598,0.185,-574.952,127.563,-94.605,0,0,0,
,0.831,-0.504,0.188,-630.921,125.183,-94.666,0,0,0,
,0.831,-0.458,0.209,-580.14,117.981,-83.069,0,0,0,
,0.835,-0.43,0.202,-465.027,101.806,-58.838,0,0,0,
,0.834,-0.436,0.196,-337.525,82.702,-39.246,0,0,0,
,0.827,-0.439,0.182,-204.895,51.94,-29.297,0,0,0,
,0.821,-0.457,0.167,-89.356,28.747,-23.499,0,0,0,
,0.827,-0.447,0.14,22.888,5.615,-15.259,0,0,0,
,0.822,-0.409,0.065,156.677,-12.024,-1.404,0,0,0,
,0.826,-0.461,0.072,269.531,-22.828,11.596,0,0,0,
,0.849,-0.5,0.082,319.824,-42.481,39.428,0,0,0,
,0.833,-0.515,0.113,367.675,-50.965,46.203,0,0,0,
,0.821,-0.563,0.11,394.836,-39.978,47.668,0,0,0,
,0.828,-0.58,0.092,372.009,-20.447,44.677,0,0,0,
,0.843,-0.638,0.15,189.88,36.193,27.832,0,0,0,
,0.852,-0.608,0.14,104.858,57.983,25.146,0,0,0,
,0.836,-0.574,0.132,73.913,73.303,22.033,0,0,0,
,0.824,-0.571,0.129,74.707,86.975,20.141,0,0,0,
,0.825,-0.594,0.127,48.645,100.891,20.507,0,0,0,
,0.814,-0.6,0.118,39.062,105.957,18.249,0,0,0,
,0.819,-0.591,0.112,16.662,100.83,7.934,0,0,0,
,0.831,-0.586,0.113,6.469,89.111,-5.494,0,0,0,
,0.846,-0.571,0.113,6.53,75.378,-9.705,0,0,0,
,0.851,-0.561,0.106,25.94,57.617,-14.71,0,0,0,
,0.851,-0.555,0.106,51.208,43.823,-17.762,0,0,0,
,0.849,-0.504,0.116,74.89,30.7,-18.433,0,0,0,
,0.844,-0.5,0.124,108.276,17.395,-11.536,0,0,0,
,0.845,-0.463,0.128,162.231,4.516,2.197,0,0,0,
,0.856,-0.469,0.144,237.121,-16.968,10.498,0,0,0,
,0.845,-0.493,0.149,294.677,-34.668,23.376,0,0,0,
,0.822,-0.511,0.138,315.918,-43.885,26.123,0,0,0,
,0.819,-0.537,0.152,303.222,-41.504,21.606,0,0,0,
,0.819,-0.553,0.112,249.817,-27.955,13.916,0,0,0,
,0.812,-0.547,0.102,171.325,-7.569,23.742,0,0,0,
,0.808,-0.539,0.107,109.619,11.291,30.151,0,0,0,
,0.811,-0.566,0.112,47.363,30.822,27.038,0,0,0,
,0.81,-0.571,0.115,-21.79,51.513,38.696,0,0,0,
,0.798,-0.567,0.128,-88.074,74.768,37.841,0,0,0,
,0.774,-0.599,0.164,-200.013,103.82,49.133,0,0,0,
,0.734,-0.722,0.396,-462.647,144.409,60.852,0,0,0,
,0.682,-0.921,0.678,-878.968,165.893,45.105,0,0,0,
,0.711,-0.924,0.744,-1176.087,245.483,-2.747,0,0,0,
,0.86,-1.034,0.823,-1216.248,142.212,-172.974,0,0,0,
,1.073,-1.596,0.671,-1004.944,-30.335,-421.875,0,0,0,
,1.301,-2.319,0.352,-716.797,-186.158,-901.734,0,0,0,
,1.417,-2.869,0.167,-447.815,-313.66,-1530.579,0,0,0,
,1.562,-3.334,0.093,-447.144,-300.904,-2000,0,0,0,
,1.65,-3.658,-0.232,-790.711,-170.96,-2000,0,0,0,
,1.402,-3.735,-0.341,-1361.878,44.494,-2000,0,0,0,
,1.354,-3.574,-0.739,-1682.618,326.843,-2000,0,0,0,
,1.651,-2.962,-0.919,-1569.581,459.716,-2000,0,0,0,
,1.791,-2.181,-0.942,-1287.476,452.942,-2000,0,0,0,
,2.048,-1.256,-0.861,-1038.453,490.356,-2000,0,0,0,
,2.534,0.1,-0.646,-811.036,393.982,-2000,0,0,0,
,2.52,1.444,-0.331,-133.179,165.039,-2000,0,0,0,
,2.359,1.431,-0.343,642.151,156.677,-2000,0,0,0,
,2.549,1.768,-0.388,447.57,234.863,-2000,0,0,0,
,2.363,2.424,-0.079,296.264,197.204,-1272.889,0,0,0,
,1.924,2.536,0.188,464.843,87.646,-162.11,0,0,0,
,1.69,2.336,0.411,695.312,-125.611,994.384,0,0,0,
,1.486,1.45,0.413,943.237,-366.639,1853.576,0,0,0,
,1.434,0.401,0.205,735.656,-629.029,1999.694,0,0,0,
,1.545,0.305,0.003,317.016,-891.968,1999.694,0,0,0,
,1.642,-0.445,-0.151,413.086,-1007.813,1999.694,0,0,0,
,1.397,-1.155,-0.236,284.851,-1046.509,1999.694,0,0,0,
,0.746,-1.174,-0.047,518.859,-844.361,1999.694,0,0,0,
,0.831,-1.577,0.072,1008.789,-736.268,1999.694,0,0,0,
,1.249,-2.345,-0.053,722.961,-570.557,1999.694,0,0,0,
,1.531,-3.49,-0.313,-16.175,-372.986,1999.694,0,0,0,
,1.767,-3.659,-0.149,-408.509,-180.237,1999.694,0,0,0,
,1.433,-2.831,-0.04,-143.738,-45.594,1883.545,0,0,0,
,1.14,-2.705,0.031,860.962,-62.745,1061.95,0,0,0,
,0.953,-2.746,-0.066,1180.481,-83.863,496.704,0,0,0,
,0.731,-2.177,-0.225,1048.828,-98.206,50.964,0,0,0,
,0.446,-1.542,-0.23,983.886,-71.595,-232.239,0,0,0,
,0.316,-1.249,-0.132,962.28,-33.204,-398.499,0,0,0,
,0.364,-1.029,-0.1,1031.738,2.319,-469.117,0,0,0,
,0.467,-0.953,-0.156,1070.8,46.814,-504.273,0,0,0,
,0.509,-0.863,-0.119,1021.484,77.27,-507.691,0,0,0,
,0.519,-0.681,0.097,941.223,43.029,-425.721,0,0,0,
,0.488,-0.709,0.094,939.636,61.035,-398.377,0,0,0,
,0.508,-0.839,0.101,765.625,19.348,-315.186,0,0,0,
,0.539,-0.684,0.19,602.478,-63.782,-226.563,0,0,0,
,0.48,-0.733,0.224,518.31,-90.76,-160.706,0,0,0,
,0.459,-0.693,0.137,458.068,-117.371,-69.458,0,0,0,
,0.443,-0.714,0.152,481.445,-124.878,-5.494,0,0,0,
,0.559,-0.876,0.18,402.71,-178.406,16.113,0,0,0,
,0.709,-0.889,-0.003,323.547,-232.056,11.779,0,0,0,
,0.691,-0.957,-0.294,221.13,-187.5,-10.498,0,0,0,
,0.689,-1.026,-0.24,-28.504,-171.875,-45.533,0,0,0,
,0.619,-0.933,-0.181,-171.082,-167.176,-45.594,0,0,0,
,0.614,-0.835,-0.095,-80.384,-177.43,-89.356,0,0,0,
,0.578,-0.784,-0.255,-10.926,-165.833,-107.789,0,0,0,
,0.564,-0.712,-0.172,34.912,-144.776,-74.891,0,0,0,
,0.53,-0.842,-0.188,-72.571,-66.773,-41.443,0,0,0,
,0.53,-0.667,-0.156,16.235,-97.657,-48.706,0,0,0,
,0.456,-0.76,-0.21,252.075,-73.792,-64.637,0,0,0,
,0.481,-0.683,-0.367,319.885,-83.374,-19.959,0,0,0,
,0.385,-0.78,-0.556,190.551,60.913,17.395,0,0,0,
,0.438,-0.756,-0.784,-94.971,187.561,74.401,0,0,0,
,0.549,-0.596,-0.978,-120.301,253.479,100.463,0,0,0,
,0.605,-0.371,-1.05,54.748,351.135,163.635,0,0,0,
,0.421,-0.341,-0.652,601.257,400.39,230.407,0,0,0,
,0.242,-1.03,0.101,1387.451,364.685,101.44,0,0,0,
,0.53,-1.628,0.802,1239.013,127.38,105.774,0,0,0,
,0.471,-1.399,0.781,604.492,-26.368,9.216,0,0,0,
,0.505,-1.186,0.887,514.892,-112.061,-125.367,0,0,0,
,0.607,-1.347,0.64,222.107,-113.221,-165.955,0,0,0,
,0.591,-1.106,0.348,-251.221,-135.376,-164.49,0,0,0,
,0.483,-0.945,0.175,-303.223,-187.439,-219.3,0,0,0,
,0.308,-1.129,0.158,-142.762,-239.197,-326.905,0,0,0,
,0.253,-1.198,0.181,-212.403,-316.712,-383.851,0,0,0,
,0.287,-1.146,0.227,-320.984,-385.804,-442.749,0,0,0,
,0.308,-1.217,0.178,-510.682,-424.561,-484.925,0,0,0,
,0.264,-0.848,-0.224,-1273.438,-314.393,-400.086,0,0,0,
,0.222,-0.842,-0.268,-1447.083,-230.652,-341.248,0,0,0,
,0.248,-0.957,-0.267,-1544.434,-170.105,-324.036,0,0,0,
,0.339,-1.04,-0.25,-1566.773,-95.276,-309.693,0,0,0,
,0.355,-1.024,-0.276,-1523.133,-45.472,-258.606,0,0,0,
,0.378,-1.003,-0.338,-1479.798,5.371,-182.679,0,0,0,
,0.383,-0.9,-0.317,-1365.967,77.941,-113.16,0,0,0,
,0.425,-0.78,-0.202,-1079.468,119.995,-96.131,0,0,0,
,0.485,-0.819,-0.049,-643.067,105.957,-140.686,0,0,0,
,0.505,-0.964,0.026,-314.393,86.303,-194.336,0,0,0,
,0.505,-1.131,0.052,-333.924,96.984,-213.074,0,0,0,
,0.483,-1.173,0.053,-545.227,148.01,-204.041,0,0,0,
,0.461,-1.1,0.084,-775.147,221.801,-187.317,0,0,0,
,0.456,-0.931,0.144,-892.762,281.494,-169.373,0,0,0,
,0.518,-0.82,0.24,-877.808,304.748,-180.848,0,0,0,
,0.607,-0.863,0.367,-715.394,226.745,-244.507,0,0,0,
,0.618,-0.91,0.394,-550.904,161.682,-286.988,0,0,0,
,0.618,-0.906,0.399,-403.687,118.103,-291.077,0,0,0,
,0.623,-0.815,0.454,-283.143,53.1,-275.147,0,0,0,
,0.601,-0.747,0.503,-110.23,-4.09,-279.175,0,0,0,
,0.607,-0.742,0.527,-8.789,-85.816,-269.227,0,0,0,
,0.579,-0.766,0.547,24.841,-81.238,-253.968,0,0,0,
,0.579,-0.783,0.541,34.545,-74.097,-246.399,0,0,0,
,0.592,-0.822,0.551,19.592,-108.521,-245.972,0,0,0,
,0.584,-0.777,0.58,-96.985,-128.846,-207.398,0,0,0,
,0.548,-0.786,0.578,-256.836,-147.767,-210.938,0,0,0,
,0.504,-0.699,0.568,-404.175,-97.29,-156.495,0,0,0,
,0.479,-0.647,0.528,-446.839,-74.524,-147.767,0,0,0,
,0.468,-0.639,0.542,-407.41,-67.261,-111.756,0,0,0,
,0.486,-0.717,0.619,-422.425,-132.264,-101.136,0,0,0,
,0.435,-0.701,0.651,-549.622,-115.54,-40.284,0,0,0,
,0.386,-0.606,0.643,-588.746,-56.763,-15.503,0,0,0,
,0.4,-0.618,0.583,-461.182,-81.421,-22.583,0,0,0,
,0.386,-0.662,0.588,-381.104,-110.718,-15.259,0,0,0,
,0.358,-0.662,0.657,-380.738,-84.9,-35.462,0,0,0,
,0.382,-0.688,0.679,-407.471,-44.983,-63.721,0,0,0,
,0.385,-0.662,0.65,-435.425,-10.498,-89.844,0,0,0,
,0.391,-0.615,0.637,-445.252,4.882,-87.586,0,0,0,
,0.377,-0.577,0.613,-379.944,14.221,-93.384,0,0,0,
,0.348,-0.6,0.608,-299.378,34.362,-106.568,0,0,0,
,0.366,-0.648,0.629,-315.613,68.542,-110.962,0,0,0,
,0.374,-0.64,0.663,-362.305,109.192,-115.784,0,0,0,
,0.38,-0.639,0.683,-398.316,136.718,-130.921,0,0,0,
,0.396,-0.644,0.673,-407.288,133.667,-135.621,0,0,0,
,0.374,-0.581,0.67,-392.273,134.704,-135.193,0,0,0,
,0.366,-0.563,0.67,-350.525,120.605,-124.146,0,0,0,
,0.349,-0.552,0.7,-293.03,110.656,-112.854,0,0,0,
,0.341,-0.561,0.74,-239.685,94.909,-106.385,0,0,0,
,0.326,-0.592,0.748,-236.512,91.98,-94.605,0,0,0,
,0.305,-0.575,0.747,-259.827,97.412,-93.323,0,0,0,
,0.281,-0.548,0.714,-292.054,123.352,-88.807,0,0,0,
,0.293,-0.578,0.733,-316.59,140.564,-71.961,0,0,0,
,0.289,-0.556,0.773,-363.831,146.606,-61.219,0,0,0,
,0.291,-0.516,0.826,-383.667,153.625,-47.669,0,0,0,
,0.306,-0.515,0.842,-379.517,135.62,-38.88,0,0,0,
,0.307,-0.5,0.858,-340.088,122.619,-35.95,0,0,0,
,0.311,-0.506,0.837,-278.382,111.877,-45.289,0,0,0,
,0.293,-0.501,0.837,-262.757,116.027,-49.012,0,0,0,
,0.358,-0.477,0.841,-310.12,120.422,-55.542,0,0,0,
,0.375,-0.481,0.863,-297.669,104.858,-55.909,0,0,0,
,0.394,-0.471,0.836,-296.143,100.036,-69.153,0,0,0,
,0.396,-0.431,0.817,-267.579,92.59,-81.727,0,0,0,
,0.416,-0.439,0.809,-207.764,69.641,-81.055,0,0,0,
,0.398,-0.412,0.822,-171.814,20.752,-95.398,0,0,0,
,0.388,-0.399,0.812,-165.528,23.498,-107.178,0,0,0,
,0.384,-0.402,0.802,-147.767,20.263,-110.84,0,0,0,
,0.362,-0.399,0.814,-134.217,32.104,-110.291,0,0,0,
,0.36,-0.39,0.839,-122.132,40.466,-107.056,0,0,0,
,0.363,-0.4,0.861,-106.629,33.874,-103.089,0,0,0,
,0.312,-0.405,0.858,-167.481,55.603,-107.117,0,0,0,
,0.302,-0.383,0.851,-198.609,101.135,-122.742,0,0,0,
,0.373,-0.352,0.902,-178.101,111.45,-134.644,0,0,0,
,0.244,-0.522,0.921,-1132.081,301.941,-287.293,0,0,0,
,0.315,-0.205,0.894,-1447.754,488.22,-309.388,0,0,0,
,0.386,0.073,0.877,-1196.412,473.816,-306.153,0,0,0,
,0.476,0.076,0.852,-769.104,242.675,-245.85,0,0,0,
,0.348,-0.187,0.664,-872.559,454.589,-190.918,0,0,0,
,0.42,-0.11,0.748,-920.35,520.568,-136.536,0,0,0,
,0.448,-0.06,0.862,-764.832,459.533,-91.126,0,0,0,
,0.501,-0.054,0.807,-634.217,408.874,-76.111,0,0,0,
,0.522,-0.045,0.713,-530.701,383.361,-63.477,0,0,0,
,0.643,-0.023,0.703,-399.598,353.454,-48.645,0,0,0,
,0.956,0.077,0.82,232.91,78.43,107.849,0,0,0,
,0.903,-0.011,0.659,861.267,-178.65,153.991,0,0,0,
,0.815,-0.076,0.682,1225.525,-315.43,226.44,0,0,0,
,0.865,-0.172,0.706,1437.378,-438.355,253.845,0,0,0,
,0.835,-0.322,0.679,1604.431,-576.233,314.148,0,0,0,
,0.713,-0.445,0.614,1968.628,-697.693,342.59,0,0,0,
,0.55,-0.561,0.613,1999.694,-840.821,332.641,0,0,0,
,0.281,-0.663,0.57,1999.694,-857.727,312.5,0,0,0,
,0.203,-0.949,0.689,1999.694,-898.499,240.051,0,0,0,
,0.029,-0.888,0.896,1998.047,-681.946,272.338,0,0,0,
,0.132,-0.848,0.932,1572.998,-600.22,224.182,0,0,0,
,0.078,-0.712,0.962,1350.525,-527.222,198.242,0,0,0,
,0.136,-0.82,0.834,592.956,-272.461,24.536,0,0,0,
,0.161,-0.607,0.74,403.869,-148.133,-17.518,0,0,0,
,0.214,-0.614,0.66,427.185,-125.733,-72.388,0,0,0,
,0.223,-0.65,0.564,305.664,-63.66,-114.624,0,0,0,
,0.171,-0.728,0.774,21.423,28.015,-157.288,0,0,0,
,0.255,-0.702,0.888,-222.229,66.589,-176.819,0,0,0,
,0.208,-0.607,0.921,-362.488,83.007,-201.172,0,0,0,
,0.24,-0.556,0.878,-345.459,73.73,-144.776,0,0,0,
,0.276,-0.614,0.884,-111.451,-44.739,21.789,0,0,0,
,0.319,-0.787,0.661,-215.516,-1.16,-32.959,0,0,0,
,0.392,-0.638,0.661,-337.098,49.072,-48.523,0,0,0,
,0.375,-0.519,0.598,-177.308,14.404,-2.32,0,0,0,
,0.337,-0.534,0.519,53.955,-60.669,51.696,0,0,0,
,0.265,-0.615,0.546,149.536,-70.496,80.383,0,0,0,
,0.226,-0.643,0.581,136.474,-19.532,38.757,0,0,0,
,0.231,-0.716,0.617,128.234,4.333,-12.818,0,0,0,
,0.258,-0.788,0.644,29.174,23.559,-48.035,0,0,0,
,0.327,-0.635,0.753,-138.55,58.654,-42.237,0,0,0,
,0.341,-0.541,0.685,48.889,13.549,-40.894,0,0,0,
,0.331,-0.716,0.632,223.083,-25.757,-29.847,0,0,0,
,0.337,-0.627,0.666,126.831,28.625,-25.086,0,0,0,
,0.336,-0.596,0.641,119.751,28.93,-47.12,0,0,0,
,0.309,-0.712,0.702,95.764,51.391,-66.59,0,0,0,
,0.302,-0.681,0.744,-76.966,113.891,-96.741,0,0,0,
,0.337,-0.715,0.815,-355.896,172.18,-194.031,0,0,0,
,0.295,-0.535,0.692,-583.802,244.69,-259.705,0,0,0,
,0.31,-0.45,0.994,-785.401,318.298,-367.92,0,0,0,
,0.324,-0.402,1.183,-1001.954,329.528,-383.973,0,0,0,
,0.231,-0.405,0.939,-1229.004,438.659,-501.709,0,0,0,
,0.296,-0.334,0.907,-1185.73,422.973,-424.5,0,0,0,
,0.253,-0.392,1.167,-1219.056,443.481,-357.361,0,0,0,
,0.299,-0.337,1.272,-1211.853,473.205,-364.136,0,0,0,
,0.274,-0.331,1.074,-941.712,353.271,-307.557,0,0,0,
,0.158,-0.506,0.934,-1021.18,366.333,-284.241,0,0,0,
,0.173,-0.537,0.835,-1188.843,464.111,-251.587,0,0,0,
,0.203,-0.426,0.614,-1134.766,483.398,-149.231,0,0,0,
,0.293,-0.518,0.855,-991.333,455.2,-162.842,0,0,0,
,0.339,-0.489,0.755,-520.386,318.847,-70.435,0,0,0,
,0.354,-0.601,0.71,-294.495,190.979,-3.113,0,0,0,
,0.368,-0.751,0.559,-488.465,292.236,-39.063,0,0,0,
,0.441,-0.504,0.592,-607.056,387.024,-51.514,0,0,0,
,0.578,-0.34,0.63,-371.644,251.953,1.342,0,0,0,
,0.68,-0.323,0.724,-100.708,105.163,65.551,0,0,0,
,0.714,-0.241,0.722,202.636,-67.566,149.658,0,0,0,
,0.794,-0.257,0.681,598.144,-277.527,281.616,0,0,0,
,0.827,-0.318,0.671,1032.165,-504.639,354.553,0,0,0,
,0.784,-0.502,0.646,1379.577,-693.604,364.441,0,0,0,
,0.621,-0.524,0.534,1610.229,-763.794,355.896,0,0,0,
,0.477,-0.564,0.707,1804.809,-895.02,343.75,0,0,0,
,0.308,-0.782,0.639,1860.839,-959.961,363.83,0,0,0,
,0.184,-0.78,0.556,1806.518,-909.119,492.309,0,0,0,
,-0.051,-0.694,0.436,1989.074,-875.367,533.996,0,0,0,
,-0.355,-0.808,0.589,1999.694,-789.49,451.965,0,0,0,
,-0.431,-0.842,0.893,1998.901,-540.467,383.484,0,0,0,
,-0.226,-0.787,1.044,1248.718,-244.324,347.29,0,0,0,
,-0.047,-0.665,0.811,1038.635,-91.248,271.85,0,0,0,
,-0.068,-0.875,0.655,1019.592,-78.614,261.596,0,0,0,
,0.02,-0.713,0.603,853.393,119.018,359.863,0,0,0,
,0.245,-0.538,0.582,1035.766,157.837,374.45,0,0,0,
,0.397,-0.826,0.525,1282.592,32.47,376.037,0,0,0,
,0.329,-0.92,0.511,1221.252,93.139,372.802,0,0,0,
,0.376,-0.98,0.525,1071.96,180.297,302.49,0,0,0,
,0.454,-1.002,0.472,823.486,222.046,234.13,0,0,0,
,0.425,-0.902,0.288,500,287.353,207.397,0,0,0,
,0.454,-0.857,0.391,228.82,264.953,228.271,0,0,0,
,0.413,-0.83,0.451,128.906,267.639,237.548,0,0,0,
,0.45,-0.92,0.44,250.366,214.111,201.233,0,0,0,
,0.441,-0.788,0.336,489.257,169.86,175.72,0,0,0,
,0.45,-0.793,0.262,706.421,30.029,192.505,0,0,0,
,0.441,-0.79,0.159,742.797,31.372,240.356,0,0,0,
,0.52,-0.917,0.212,651.794,38.818,256.775,0,0,0,
,0.542,-0.981,0.187,531.372,92.224,218.078,0,0,0,
,0.52,-0.775,0.116,511.169,155.822,193.969,0,0,0,
,0.453,-0.898,0.192,331.848,116.638,188.72,0,0,0,
,0.466,-0.943,0.187,67.382,136.779,178.65,0,0,0,
,0.488,-0.858,0.223,59.57,117.248,158.691,0,0,0,
,0.505,-0.826,0.212,219.421,71.35,127.624,0,0,0,
,0.51,-0.922,0.272,378.784,-2.991,98.266,0,0,0,
,0.503,-1.027,0.196,168.762,13.671,8.728,0,0,0,
,0.53,-0.969,0.202,-91.492,68.725,-7.813,0,0,0,
,0.544,-0.856,0.168,-194.397,87.829,-23.255,0,0,0,
,0.545,-0.813,0.14,-179.444,78.796,-16.114,0,0,0,
,0.515,-0.878,0.13,-132.63,40.954,-13.489,0,0,0,
,0.503,-0.868,0.092,-110.779,23.62,-9.156,0,0,0,
,0.519,-0.878,0.118,-111.573,23.01,-8.728,0,0,0,
,0.512,-0.861,0.108,-120.179,19.836,-1.038,0,0,0,
,0.504,-0.938,0.145,-165.284,-29.358,10.681,0,0,0,
,0.566,-0.889,0.224,-290.284,-10.01,8.911,0,0,0,
,0.487,-0.785,0.158,-220.826,-25.757,2.075,0,0,0,
,0.517,-0.889,0.123,-120.362,-27.527,0.732,0,0,0,
,0.465,-0.919,0.085,-242.005,28.564,-0.061,0,0,0,
,0.547,-0.848,0.25,-337.159,47.485,44.006,0,0,0,
,0.547,-0.909,0.247,-420.899,55.481,-54.505,0,0,0,
,0.601,-0.915,0.388,-647.767,76.294,-69.703,0,0,0,
,0.574,-0.833,0.34,-753.724,112.671,-114.869,0,0,0,
,0.634,-0.788,0.289,-572.266,58.227,-195.191,0,0,0,
,0.581,-0.804,0.369,-559.632,-23.438,-191.04,0,0,0,
,0.543,-0.877,0.385,-692.2,-29.419,-229.676,0,0,0,
,0.502,-0.927,0.485,-794.312,-27.039,-269.532,0,0,0,
,0.524,-0.844,0.51,-953.858,-2.564,-285.218,0,0,0,
,0.456,-0.72,0.418,-882.752,8.361,-332.886,0,0,0,
,0.447,-0.861,0.412,-775.391,-41.443,-332.337,0,0,0,
,0.399,-0.866,0.437,-915.894,38.757,-288.086,0,0,0,
,0.393,-0.575,0.484,-870.484,46.569,-233.704,0,0,0,
,0.419,-0.607,0.528,-856.751,1.464,-234.803,0,0,0,
,0.38,-0.701,0.56,-867.371,-19.715,-227.417,0,0,0,
,0.32,-0.818,0.579,-940.979,55.786,-230.896,0,0,0,
,0.319,-0.814,0.616,-1089.6,121.154,-198.914,0,0,0,
,0.292,-0.785,0.634,-1165.833,190.796,-212.159,0,0,0,
,0.355,-0.625,0.717,-1143.616,174.072,-170.105,0,0,0,
,0.316,-0.531,0.635,-900.208,170.837,-161.194,0,0,0,
,0.343,-0.641,0.611,-666.993,105.041,-130.738,0,0,0,
,0.313,-0.752,0.593,-648.194,95.581,-76.355,0,0,0,
,0.299,-0.788,0.577,-760.56,147.461,-73.121,0,0,0,
,0.369,-0.851,0.59,-758.484,158.935,-80.994,0,0,0,
,0.422,-0.647,0.655,-712.22,125.183,-59.449,0,0,0,
,0.423,-0.415,0.656,-665.284,138.672,-40.772,0,0,0,
,0.444,-0.378,0.701,-534.913,93.566,-26.734,0,0,0,
,0.485,-0.387,0.72,-363.77,59.509,-26.368,0,0,0,
,0.529,-0.438,0.688,-199.341,29.785,-19.288,0,0,0,
,0.537,-0.461,0.678,-128.052,37.231,24.414,0,0,0,
,0.644,-0.512,0.593,-22.889,23.193,69.152,0,0,0,
,0.751,-0.546,0.533,127.319,-105.286,137.939,0,0,0,
,0.705,-0.625,0.479,342.773,-246.521,155.212,0,0,0,
,0.532,-0.665,0.502,526.245,-273.072,101.989,0,0,0,
,0.479,-0.761,0.651,717.773,-228.638,-39.551,0,0,0,
,0.469,-0.674,0.723,597.656,-150.94,-89.295,0,0,0,
,0.484,-0.643,0.705,418.213,-182.618,-118.592,0,0,0,
,0.406,-0.425,0.622,309.875,-205.689,-25.513,0,0,0,
,0.236,-0.401,0.626,555.664,-288.392,66.772,0,0,0,
,0.128,-0.58,0.815,718.017,-249.939,127.868,0,0,0,
,0.244,-0.502,0.948,681.762,-129.029,155.456,0,0,0,
,0.308,-0.502,0.869,821.96,-173.829,151.55,0,0,0,
,0.194,-0.571,0.768,1007.202,-191.224,174.072,0,0,0,
,0.126,-0.639,0.732,921.325,-87.037,148.681,0,0,0,
,0.214,-0.784,0.713,582.702,42.419,86.486,0,0,0,
,0.302,-0.627,0.685,321.35,184.814,48.828,0,0,0,
,0.444,-0.47,0.645,387.512,182.006,78.186,0,0,0,
,0.514,-0.524,0.578,524.414,78.857,66.528,0,0,0,
,0.496,-0.779,0.642,638.549,-28.565,16.296,0,0,0,
,0.407,-1,0.738,345.031,-15.015,-7.691,0,0,0,
,0.493,-0.591,0.737,113.159,37.414,-69.581,0,0,0,
,0.428,-0.643,0.735,242.92,-30.213,-73.609,0,0,0,
,0.396,-0.68,0.746,194.152,-33.081,-72.022,0,0,0,
,0.408,-0.679,0.763,145.141,-43.213,-70.496,0,0,0,
,0.393,-0.665,0.758,68.115,-50.721,-70.069,0,0,0,
,0.4,-0.674,0.737,-4.7,-56.458,-68.787,0,0,0,
,0.38,-0.665,0.665,44.921,-61.341,-75.196,0,0,0,
,0.356,-0.73,0.585,95.214,-62.5,-77.576,0,0,0,
,0.356,-0.753,0.6,47.241,-26.856,-59.082,0,0,0,
,0.358,-0.767,0.576,-19.349,12.939,-58.35,0,0,0,
,0.358,-0.75,0.572,-47.059,26.794,-73.609,0,0,0,
,0.343,-0.826,0.576,-145.264,35.4,-97.168,0,0,0,
,0.297,-0.878,0.561,-348.389,125.305,-130.066,0,0,0,
,0.354,-0.803,0.65,-570.252,189.148,-118.531,0,0,0,
,0.363,-0.799,0.695,-544.739,186.889,-187.256,0,0,0,
,0.406,-0.704,0.69,-508.789,124.145,-175.171,0,0,0,
,0.394,-0.697,0.725,-664.429,63.781,-141.846,0,0,0,
,0.296,-0.851,0.69,-938.965,179.626,-256.47,0,0,0,
,0.36,-0.591,0.758,-861.817,225.158,-205.872,0,0,0,
,0.44,-0.668,0.73,-776.551,128.662,-205.506,0,0,0,
,0.387,-0.651,0.766,-615.479,119.506,-219.788,0,0,0,
,0.36,-0.584,0.763,-666.504,76.965,-175.843,0,0,0,
,0.299,-0.724,0.655,-862.122,169.372,-211.304,0,0,0,
,0.411,-0.512,0.801,-647.034,131.897,-191.163,0,0,0,
,0.393,-0.544,0.708,-484.192,36.377,-188.111,0,0,0,
,0.301,-0.563,0.562,-565.491,124.328,-165.589,0,0,0,
,0.321,-0.482,0.44,-619.263,221.923,-117.859,0,0,0,
,0.382,-0.463,0.58,-442.81,176.269,-72.998,0,0,0,
,0.353,-0.551,0.651,-569.214,184.814,-38.147,0,0,0,
,0.441,-0.433,0.788,-543.396,288.33,-106.934,0,0,0,
,0.517,-0.305,0.79,-276.673,167.785,-104.554,0,0,0,
,0.459,-0.364,0.825,-257.019,118.652,-42.115,0,0,0,
,0.479,-0.405,0.844,-190.979,66.65,-33.631,0,0,0,
,0.406,-0.391,0.765,-381.897,70.312,-37.781,0,0,0,
,0.459,-0.429,0.776,-452.515,155.883,-112.977,0,0,0,
,0.518,-0.212,0.88,-473.145,161.865,-95.704,0,0,0,
,0.488,-0.246,0.816,-430.909,92.285,-102.784,0,0,0,
,0.415,-0.266,0.901,-492.737,109.314,-103.272,0,0,0,
,0.493,-0.227,0.903,-359.498,74.401,-72.876,0,0,0,
,0.444,-0.301,0.811,-417.542,59.692,-94.056,0,0,0,
,0.357,-0.32,0.75,-732.422,175.232,-105.347,0,0,0,
,0.418,-0.292,0.831,-961.304,270.691,-94.91,0,0,0,
,0.536,-0.147,0.928,-775.94,300.964,-106.385,0,0,0,
,0.558,-0.044,0.962,-440.064,138.427,-56.153,0,0,0,
,0.48,-0.205,0.904,-338.562,38.757,-3.418,0,0,0,
,0.42,-0.312,0.783,-358.033,64.086,-10.56,0,0,0,
,0.419,-0.356,0.631,-427.918,102.417,-43.335,0,0,0,
,0.377,-0.344,0.638,-878.113,272.033,-102.967,0,0,0,
,0.509,-0.169,0.82,-1071.656,469.665,-192.81,0,0,0,
,0.686,0.299,0.854,-731.141,322.631,-70.008,0,0,0,
,0.607,0.182,0.776,-127.686,70.8,49.926,0,0,0,
,0.664,-0.076,0.715,352.844,-37.903,239.196,0,0,0,
,0.656,-0.374,0.557,645.08,-111.634,357.544,0,0,0,
,0.688,-0.539,0.624,706.787,-101.014,420.898,0,0,0,
,0.78,-0.325,0.812,962.463,-121.155,459.594,0,0,0,
,0.803,-0.322,0.595,1835.998,-374.268,466.613,0,0,0,
,0.688,-0.498,0.504,1999.694,-608.521,458.007,0,0,0,
,0.515,-0.627,0.505,1999.694,-723.084,411.499,0,0,0,
,0.322,-0.75,0.292,1999.694,-778.504,384.643,0,0,0,
,0.062,-0.996,0.31,1999.694,-747.559,348.144,0,0,0,
,-0.175,-1.151,0.552,1999.694,-537.842,369.873,0,0,0,
,-0.22,-0.957,0.595,1999.694,-272.4,455.322,0,0,0,
,-0.161,-0.868,0.459,1999.694,-87.708,444.824,0,0,0,
,0.062,-0.911,0.526,1999.694,-129.456,460.449,0,0,0,
,0.242,-1.517,0.405,1999.694,-138.123,570.373,0,0,0,
,0.323,-1.365,0.217,690.185,77.514,673.706,0,0,0,
,0.458,-1,0.026,100.341,222.168,558.654,0,0,0,
,0.61,-1.159,0.09,59.265,196.533,390.869,0,0,0,
,0.661,-1.22,0.224,-76.172,171.386,224.975,0,0,0,
,0.591,-0.727,0.209,159.546,114.441,109.985,0,0,0,
,0.51,-0.717,0.239,560.241,47.729,93.139,0,0,0,
,0.56,-0.773,0.274,585.693,38.757,104.553,0,0,0,
,0.532,-0.556,0.154,556.884,8.239,160.888,0,0,0,
,0.668,-0.726,0.096,671.081,-96.741,216.919,0,0,0,
,0.785,-0.777,0.147,791.809,-120.606,206.543,0,0,0,
,0.732,-0.814,0.137,935.058,-94.971,134.948,0,0,0,
,0.602,-0.785,0.058,1051.269,-100.769,100.097,0,0,0,
,0.54,-0.756,0.032,1066.284,-155.64,81.054,0,0,0,
,0.555,-0.835,-0.033,1248.84,-233.033,55.175,0,0,0,
,0.555,-1.001,-0.121,1143.31,-186.89,8.911,0,0,0,
,0.512,-0.923,-0.142,903.564,-120.789,-7.813,0,0,0,
,0.565,-0.855,-0.05,696.045,-60.914,-25.635,0,0,0,
,0.587,-0.817,-0.086,714.233,-74.891,-64.942,0,0,0,
,0.617,-0.75,-0.054,704.712,-72.327,-82.581,0,0,0,
,0.651,-0.805,-0.001,594.36,-61.585,-75.44,0,0,0,
,0.68,-0.802,0.04,362.854,-51.209,-58.533,0,0,0,
,0.686,-0.794,0.039,110.656,-14.832,-37.781,0,0,0,
,0.671,-0.818,-0.01,-17.029,2.197,-46.753,0,0,0,
,0.64,-0.824,-0.076,-11.292,-20.447,-60.73,0,0,0,
,0.619,-0.813,-0.024,-331.177,-15.32,-2.686,0,0,0,
,0.643,-0.773,-0.153,-424.805,35.461,-10.682,0,0,0,
,0.669,-0.725,-0.091,-523.865,42.968,-33.081,0,0,0,
,0.683,-0.691,-0.153,-634.339,50.048,-33.448,0,0,0,
,0.592,-0.86,-0.188,-768.921,82.885,-36.072,0,0,0,
,0.582,-0.662,-0.125,-849.244,126.587,-10.254,0,0,0,
,0.552,-0.835,-0.16,-884.644,127.685,-5.188,0,0,0,
,0.59,-0.692,0.105,-870.545,74.951,62.439,0,0,0,
,0.595,-1.039,-0.096,-745.118,111.633,-32.593,0,0,0,
,0.588,-1.042,-0.059,-650.147,99.609,-118.164,0,0,0,
,0.606,-0.936,0.098,-775.94,138.305,-104.493,0,0,0,
,0.633,-0.762,0.12,-783.875,135.254,-160.096,0,0,0,
,0.611,-0.792,0.041,-843.14,137.634,-163.636,0,0,0,
,0.601,-0.785,0.122,-938.172,143.737,-186.951,0,0,0,
,0.61,-1.007,0.098,-1093.934,171.936,-210.144,0,0,0,
,0.596,-0.958,0.269,-1174.256,234.985,-260.254,0,0,0,
,0.541,-0.66,0.207,-1175.416,277.771,-296.387,0,0,0,
,0.509,-0.636,0.321,-1310.059,303.65,-220.826,0,0,0,
,0.494,-0.697,0.358,-1266.968,242.553,-180.298,0,0,0,
,0.52,-1.059,0.364,-1236.39,181.03,-138.611,0,0,0,
,0.61,-0.935,0.338,-1237.061,229.248,-131.958,0,0,0,
,0.538,-0.808,0.263,-948.121,160.4,-164.49,0,0,0,
,0.375,-0.858,0.393,-1088.196,186.035,-141.785,0,0,0,
,0.428,-0.708,0.367,-1248.536,367.37,-159.241,0,0,0,
,0.55,-0.615,0.597,-1093.567,248.169,-141.846,0,0,0,
,0.481,-0.978,0.755,-1043.702,144.409,-157.166,0,0,0,
,0.442,-0.849,0.692,-1097.657,236.633,-183.838,0,0,0,
,0.454,-0.824,0.512,-1135.682,224.914,-206.055,0,0,0,
,0.489,-0.764,0.441,-852.356,118.042,-162.354,0,0,0,
,0.456,-0.774,0.463,-869.996,150.207,-135.865,0,0,0,
,0.491,-0.716,0.684,-1064.454,108.52,-48.829,0,0,0,
,0.423,-0.565,0.577,-998.658,185.363,-66.895,0,0,0,
,0.444,-0.669,0.474,-757.142,134.826,-112.977,0,0,0,
,0.442,-0.965,0.432,-714.844,116.76,-109.742,0,0,0,
,0.469,-0.654,0.408,-838.257,168.945,-74.524,0,0,0,
,0.551,-0.492,0.353,-792.298,147.644,-134.278,0,0,0,
,0.495,-0.483,0.637,-743.653,52.429,-103.699,0,0,0,
,0.608,-0.459,0.546,-646.79,5.676,-120.118,0,0,0,
,0.56,-0.671,0.582,-863.038,66.894,-104.493,0,0,0,
,0.583,-0.426,0.703,-1318.177,255.371,-0.123,0,0,0,
,0.7,-0.277,0.538,-908.57,235.046,-83.069,0,0,0,
,0.619,-0.286,0.609,-461.304,31.738,-71.228,0,0,0,
,0.588,-0.39,0.65,-395.935,29.785,-15.381,0,0,0,
,0.663,-0.269,0.652,-282.959,-16.602,85.51,0,0,0,
,0.764,-0.427,0.456,-91.919,-103.577,197.815,0,0,0,
,0.792,-0.498,0.308,242.492,-179.688,338.012,0,0,0,
,0.788,-0.532,0.175,860.473,-305.97,369.445,0,0,0,
,0.667,-0.97,0.145,1227.478,-385.254,295.837,0,0,0,
,0.565,-0.874,0.572,1475.28,-274.598,174.926,0,0,0,
,0.632,-0.837,0.813,1849.914,-378.785,101.562,0,0,0,
,0.428,-0.581,0.798,1902.221,-382.264,157.165,0,0,0,
,0.226,-0.684,0.731,1936.767,-420.96,181.762,0,0,0,
,0.055,-0.771,1.02,1874.389,-330.262,236.694,0,0,0,
,0.015,-0.662,1.005,1902.282,-179.627,200.5,0,0,0,
,0.004,-0.665,0.852,1967.956,-104.981,198.608,0,0,0,
,0.044,-0.573,0.661,1989.868,-30.579,221.801,0,0,0,
,0.28,-0.827,0.508,1779.297,-66.895,266.113,0,0,0,
,0.443,-1.299,0.648,1096.435,-128.113,254.028,0,0,0,
,0.543,-1.139,0.708,327.331,7.507,268.982,0,0,0,
,0.716,-0.861,0.6,236.389,-37.72,155.273,0,0,0,
,0.616,-0.746,0.533,436.34,-110.291,131.225,0,0,0,
,0.555,-0.821,0.639,650.024,-142.945,89.355,0,0,0,
,0.651,-0.869,0.424,715.881,-141.419,41.137,0,0,0,
,0.615,-0.724,0.258,692.749,-133.057,82.031,0,0,0,
,0.559,-0.748,0.207,528.747,-104.676,51.574,0,0,0,
,0.504,-0.794,0.243,82.275,27.648,22.399,0,0,0,
,0.647,-0.401,0.549,-284.607,163.086,114.013,0,0,0,
,0.608,-0.417,0.275,0.854,32.165,39.978,0,0,0,
,0.512,-0.705,0.304,119.323,18.493,113.891,0,0,0,
,0.628,-0.587,0.378,-63.233,82.763,225.525,0,0,0,
,0.709,-0.403,0.309,73.059,44.982,213.867,0,0,0,
,0.689,-0.794,0.378,591.674,-123.536,61.035,0,0,0,
,0.628,-0.834,0.368,702.209,-113.648,89.538,0,0,0,
,0.565,-0.862,0.359,556.213,-75.745,38.391,0,0,0,
,0.575,-1.009,0.274,231.506,-25.086,2.258,0,0,0,
,0.555,-0.824,0.238,-77.942,46.142,47.302,0,0,0,
,0.571,-0.647,0.224,3.54,54.809,37.719,0,0,0,
,0.629,-0.677,0.27,284.362,-36.499,37.78,0,0,0,
,0.577,-0.772,0.292,442.932,-70.374,37.17,0,0,0,
,0.607,-0.807,0.305,432.983,-66.59,21.789,0,0,0,
,0.602,-0.766,0.229,338.867,-75.745,8.911,0,0,0,
,0.59,-0.672,0.185,224.67,-49.805,21.789,0,0,0,
,0.614,-0.808,0.132,187.561,-52.979,32.47,0,0,0,
,0.585,-0.829,0.148,100.341,-11.17,50.17,0,0,0,
,0.612,-0.853,0.216,4.394,3.601,54.26,0,0,0,
,0.663,-0.717,0.293,-55.603,-8.179,60.669,0,0,0,
,0.621,-0.768,0.271,-15.198,-5.799,32.531,0,0,0,
,0.649,-0.816,0.339,-79.651,-38.147,-1.709,0,0,0,
,0.543,-0.966,0.222,-365.235,-40.101,-32.288,0,0,0,
,0.641,-0.772,0.349,-581.665,77.941,-29.908,0,0,0,
,0.768,-0.599,0.312,-675.782,55.419,-28.565,0,0,0,
,0.64,-0.722,0.359,-635.376,54.687,-76.172,0,0,0,
,0.657,-0.88,0.422,-853.028,52.368,-131.287,0,0,0,
,0.602,-0.924,0.532,-1196.9,85.205,-216.248,0,0,0,
,0.613,-0.592,0.585,-1154.847,105.957,-209.656,0,0,0,
,0.582,-0.459,0.512,-742.127,-23.804,-174.134,0,0,0,
,0.589,-0.637,0.57,-530.579,-83.802,-155.274,0,0,0,
,0.601,-0.912,0.427,-769.41,-12.818,-201.294,0,0,0,
,0.534,-1.197,0.427,-1292.115,170.349,-284.913,0,0,0,
,0.576,-0.819,0.374,-1485.352,266.418,-281.495,0,0,0,
,0.606,-0.554,0.402,-1485.962,178.283,-291.565,0,0,0,
,0.548,-0.453,0.506,-1441.285,161.743,-282.227,0,0,0,
,0.514,-0.521,0.36,-1397.645,194.03,-312.928,0,0,0,
,0.557,-0.617,0.533,-1074.83,149.597,-259.217,0,0,0,
,0.565,-0.831,0.702,-931.885,67.688,-263.611,0,0,0,
,0.49,-0.732,0.713,-1184.082,164.856,-233.887,0,0,0,
,0.479,-0.488,0.428,-1132.264,146.118,-244.935,0,0,0,
,0.53,-0.459,0.812,-1022.767,153.747,-178.956,0,0,0,
,0.539,-0.461,0.63,-707.764,146.972,-249.756,0,0,0,
,0.594,-0.742,0.732,-494.446,35.583,-243.042,0,0,0,
,0.487,-0.622,0.771,-705.689,90.026,-208.985,0,0,0,
,0.518,-0.481,0.771,-733.704,55.725,-228.943,0,0,0,
,0.458,-0.525,0.696,-843.75,64.88,-281.861,0,0,0,
,0.441,-0.386,0.682,-993.714,165.649,-271.851,0,0,0,
,0.555,-0.188,0.754,-767.334,144.104,-206.482,0,0,0,
,0.6,-0.339,0.515,-444.947,-5.494,-163.88,0,0,0,
,0.536,-0.138,0.718,-221.985,-40.833,-65.308,0,0,0,
,0.512,-0.307,0.625,-43.457,-66.59,-122.62,0,0,0,
,0.526,-0.412,0.684,-119.568,-50.599,-134.095,0,0,0,
,0.536,-0.475,0.752,-426.209,17.211,-170.411,0,0,0,
,0.515,-0.292,0.629,-734.681,142.578,-224.366,0,0,0,
,0.593,-0.16,0.678,-637.635,150.207,-177.613,0,0,0,
,0.605,-0.127,0.731,-384.095,65.246,-124.39,0,0,0,
,0.553,-0.215,0.71,-190.857,30.578,-92.896,0,0,0,
,0.545,-0.345,0.812,-242.188,32.959,-97.107,0,0,0,
,0.546,-0.213,0.876,-482.789,123.962,-119.69,0,0,0,
,0.58,-0.069,0.864,-520.63,135.07,-132.081,0,0,0,
,0.641,-0.039,0.844,-359.436,49.804,-109.009,0,0,0,
,0.619,-0.052,0.806,-101.685,-6.348,-33.692,0,0,0,
,0.655,-0.113,0.765,257.995,-96.07,20.507,0,0,0,
,0.578,-0.1,0.615,494.506,-95.52,83.435,0,0,0,
,0.57,-0.191,0.582,879.455,-112.244,77.88,0,0,0,
,0.554,-0.378,0.571,1084.045,-180.848,38.757,0,0,0,
,0.476,-0.739,0.513,736.206,-159.302,-49.195,0,0,0,
,0.426,-0.682,0.526,49.621,104.675,-57.129,0,0,0,
,0.501,-0.358,0.591,-260.682,254.76,-65.552,0,0,0,
,0.522,-0.271,0.632,-110.779,144.104,-59.449,0,0,0,
,0.433,-0.26,0.686,59.265,102.05,-17.212,0,0,0,
,0.425,-0.267,0.737,184.021,88.44,50.781,0,0,0,
,0.481,-0.275,0.849,225.341,80.261,85.022,0,0,0,
,0.551,-0.38,0.991,88.806,38.208,83.252,0,0,0,
,0.572,-0.481,1.07,-228.333,98.999,-20.325,0,0,0,
,0.712,-0.361,1.245,-424.622,112.548,-85.206,0,0,0,
,0.763,-0.13,1.259,-226.441,-18.372,-120.24,0,0,0,
,0.728,-0.303,1.109,2.441,-203.858,-228.455,0,0,0,
,0.512,-0.035,0.89,24.963,-103.394,-122.132,0,0,0,
,0.443,0.122,0.773,324.585,-137.513,-50.171,0,0,0,
,0.524,-0.135,0.716,579.345,-252.076,27.954,0,0,0,
,0.426,-0.48,0.761,196.96,-127.808,63.964,0,0,0,
,0.502,-0.597,0.732,-556.519,5.249,13.732,0,0,0,
,0.367,-0.538,0.461,-1221.314,352.172,-32.227,0,0,0,
,0.5,-0.027,0.495,-1180.726,471.496,16.845,0,0,0,
,0.745,0.057,0.867,-349.244,140.197,132.263,0,0,0,
,0.551,-0.369,0.902,-175.782,-7.264,15.991,0,0,0,
,0.467,-0.499,0.898,-447.754,15.319,-6.348,0,0,0,
,0.393,-0.49,0.795,-970.215,161.071,-137.635,0,0,0,
,0.458,-0.172,0.743,-1407.776,328.918,-165.406,0,0,0,
,0.607,-0.029,0.809,-1258.606,297.119,-126.954,0,0,0,
,0.665,0.105,0.677,-838.44,189.453,-64.82,0,0,0,
,0.592,0.018,0.607,-522.461,131.347,4.699,0,0,0,
,0.715,-0.101,0.571,-281.861,146.789,71.106,0,0,0,
,0.897,-0.241,0.78,107.238,34.118,171.569,0,0,0,
,0.855,-0.23,0.731,470.398,-83.68,207.946,0,0,0,
,0.88,-0.111,0.607,1021.728,-206.971,223.632,0,0,0,
,0.819,-0.169,0.57,1613.769,-391.785,246.887,0,0,0,
,0.787,-0.17,0.629,1956.359,-527.344,270.507,0,0,0,
,0.769,-0.497,0.593,1999.694,-829.59,237.06,0,0,0,
,0.487,-0.581,0.486,1999.694,-856.69,299.743,0,0,0,
,0.199,-0.345,0.748,1999.694,-711.976,347.473,0,0,0,
,0.293,-0.496,0.99,1999.694,-646.607,326.599,0,0,0,
,0.276,-0.468,0.866,1999.694,-559.693,336.242,0,0,0,
,0.19,-0.828,0.569,1999.694,-583.558,217.468,0,0,0,
,0.024,-0.936,0.429,1378.906,-245.057,210.754,0,0,0,
,-0.016,-0.904,0.724,362.06,171.142,241.516,0,0,0,
,0.324,-0.508,0.726,-117.615,376.526,155.822,0,0,0,
,0.503,-0.644,0.545,-48.34,266.784,181.762,0,0,0,
,0.621,-0.41,0.878,186.096,142.883,322.265,0,0,0,
,0.662,-0.494,0.661,730.835,-60.608,237.915,0,0,0,
,0.474,-0.902,0.617,722.961,-5.066,89.66,0,0,0,
,0.464,-0.65,0.636,247.802,240.844,-33.814,0,0,0,
,0.643,-0.555,0.769,-88.44,237.671,-65.308,0,0,0,
,0.601,-0.35,0.975,-89.722,231.872,-116.517,0,0,0,
,0.517,-0.506,0.79,466.369,-19.532,-153.504,0,0,0,
,0.476,-0.951,0.964,442.81,-120.24,-185.608,0,0,0,
,0.548,-0.341,0.683,9.582,99.182,1.525,0,0,0,
,0.623,-0.675,0.571,330.444,-141.175,-77.271,0,0,0,
,0.506,-0.89,0.626,49.621,-49.012,-16.602,0,0,0,
,0.467,-0.738,0.637,-196.9,101.013,-63.904,0,0,0,
,0.578,-0.511,0.615,15.93,90.82,-38.575,0,0,0,
,0.513,-0.668,0.585,142.578,-47.425,-94.056,0,0,0,
,0.453,-0.861,0.589,-231.873,55.053,-118.47,0,0,0,
,0.557,-0.602,0.629,-579.407,157.776,-131.531,0,0,0,
,0.495,-0.564,0.478,-731.507,176.208,-195.008,0,0,0,
,0.401,-0.789,0.378,-934.998,272.033,-254.578,0,0,0,
,0.615,-0.324,0.904,-828.431,256.225,-80.567,0,0,0,
,0.619,-0.454,0.713,-505.249,9.033,-133.484,0,0,0,
,0.429,-0.691,0.489,-526.673,-36.499,-134.156,0,0,0,
,0.46,-0.701,0.798,-670.472,33.874,-82.337,0,0,0,
,0.491,-0.803,0.617,-900.696,121.032,-212.159,0,0,0,
,0.484,-0.621,0.727,-988.587,188.049,-211.243,0,0,0,
,0.497,-0.546,0.733,-948.731,127.868,-227.845,0,0,0,
,0.459,-0.466,0.703,-719.178,67.382,-187.806,0,0,0,
,0.425,-0.371,0.637,-681.946,71.35,-148.926,0,0,0,
,0.469,-0.459,0.704,-727.723,147.155,-189.942,0,0,0,
,0.572,-0.415,0.678,-703.125,97.595,-121.155,0,0,0,
,0.524,-0.445,0.722,-820.862,125.244,-119.019,0,0,0,
,0.518,-0.396,0.721,-956.543,193.115,-127.991,0,0,0,
,0.522,-0.251,0.714,-779.847,143.554,-95.887,0,0,0,
,0.489,-0.298,0.71,-733.521,150.268,-121.277,0,0,0,
,0.495,-0.328,0.838,-831.238,202.697,-150.818,0,0,0,
,0.575,-0.251,0.903,-797.12,259.46,-105.774,0,0,0,
,0.616,-0.137,0.76,-404.419,91.247,-13.123,0,0,0,
,0.508,-0.478,0.749,-356.873,0.793,-81.91,0,0,0,
,0.406,-0.348,0.827,-709.656,266.174,-107.911,0,0,0,
,0.596,-0.204,0.667,-686.158,205.383,-93.079,0,0,0,
,0.506,-0.099,0.785,-572.449,231.811,-116.761,0,0,0,
,0.643,-0.066,0.64,-199.036,71.35,3.356,0,0,0,
,0.545,-0.169,0.61,92.834,-3.479,38.94,0,0,0,
,0.524,-0.246,0.63,140.38,47.241,52.673,0,0,0,
,0.503,-0.2,0.608,93.261,114.38,81.298,0,0,0,
,0.542,-0.169,0.748,-7.508,169.433,85.998,0,0,0,
,0.683,-0.216,0.771,113.464,139.099,57.19,0,0,0,
,0.636,-0.163,0.749,266.113,66.955,110.229,0,0,0,
,0.687,-0.262,0.736,433.349,-5.982,106.628,0,0,0,
,0.673,-0.289,0.727,456.787,2.807,123.291,0,0,0,
,0.703,-0.237,0.831,557.8,-18.799,147.033,0,0,0,
,0.756,-0.226,0.779,690.063,-165.65,158.02,0,0,0,
,0.668,-0.426,0.724,662.475,-264.344,111.999,0,0,0,
,0.626,-0.474,0.711,454.162,-207.886,52.368,0,0,0,
,0.703,-0.322,0.819,321.777,-174.866,-0.123,0,0,0,
,0.703,-0.074,0.837,506.225,-238.404,1.586,0,0,0,
,0.674,-0.256,0.76,1066.772,-469.727,45.959,0,0,0,
,0.565,-0.412,0.725,1344.97,-549.561,87.219,0,0,0,
,0.487,-0.37,0.682,1507.568,-512.207,135.07,0,0,0,
,0.478,-0.414,0.568,1944.824,-553.956,159.423,0,0,0,
,0.48,-0.705,0.407,1999.694,-744.08,161.316,0,0,0,
,0.305,-0.861,0.484,1935.485,-683.655,277.465,0,0,0,
,0.164,-0.7,0.717,1473.877,-447.998,343.933,0,0,0,
,0.22,-0.636,0.87,1309.387,-324.769,357.666,0,0,0,
,0.218,-0.865,0.796,1136.535,-233.643,119.995,0,0,0,
,0.112,-0.842,0.652,922.058,-14.771,26.977,0,0,0,
,0.252,-0.776,0.583,921.875,63.354,47.912,0,0,0,
,0.291,-0.765,0.322,995.666,80.261,42.785,0,0,0,
,0.341,-1.033,0.143,809.021,41.748,93.811,0,0,0,
,0.385,-1.194,0.517,141.662,66.223,144.531,0,0,0,
,0.303,-0.927,0.58,-440.491,267.761,153.198,0,0,0,
,0.382,-0.584,0.53,-327.576,330.139,112.671,0,0,0,
,0.476,-0.56,0.62,149.109,228.149,121.765,0,0,0,
,0.516,-0.666,0.562,356.75,183.593,180.664,0,0,0,
,0.609,-0.547,0.508,411.865,176.025,257.873,0,0,0,
,0.671,-0.645,0.453,508.178,84.289,195.678,0,0,0,
,0.658,-0.868,0.552,445.8,62.011,72.815,0,0,0,
,0.654,-0.891,0.502,208.557,57.678,-13.489,0,0,0,
,0.664,-0.796,0.508,28.564,94.726,-56.885,0,0,0,
,0.635,-0.668,0.478,83.252,94.055,-66.529,0,0,0,
,0.597,-0.575,0.433,373.413,69.763,-68.604,0,0,0,
,0.609,-0.551,0.447,755.005,-31.556,-69.825,0,0,0,
,0.569,-0.764,0.359,768.859,-141.663,-81.665,0,0,0,
,0.475,-0.812,0.346,364.502,-51.148,-43.274,0,0,0,
,0.503,-0.713,0.355,24.658,54.382,-18.067,0,0,0,
,0.563,-0.63,0.38,9.094,51.635,5.371,0,0,0,
,0.565,-0.673,0.405,157.776,7.995,14.221,0,0,0,
,0.55,-0.739,0.375,335.937,-27.649,28.808,0,0,0,
,0.56,-0.8,0.333,488.159,-63.599,31.189,0,0,0,
,0.553,-0.977,0.281,367.37,-91.004,0.671,0,0,0,
,0.487,-0.975,0.265,9.094,26.001,11.84,0,0,0,
,0.514,-0.88,0.249,-67.872,50.842,-19.227,0,0,0,
,0.491,-0.743,0.274,126.953,33.935,-24.476,0,0,0,
,0.508,-0.737,0.284,429.138,-33.997,-38.819,0,0,0,
,0.497,-0.906,0.212,470.153,-80.445,-32.41,0,0,0,
,0.501,-0.919,0.218,325.378,-57.618,-18.921,0,0,0,
,0.483,-0.841,0.188,185.974,-9.949,-11.109,0,0,0,
,0.488,-0.828,0.197,97.534,25.085,-19.349,0,0,0,
,0.493,-0.876,0.222,30.273,44.86,-17.273,0,0,0,
,0.522,-0.87,0.203,-18.86,47.546,-6.714,0,0,0,
,0.517,-1.023,0.174,-84.412,38.391,-30.152,0,0,0,
,0.594,-0.496,0.244,-57.007,72.448,33.02,0,0,0,
,0.483,-0.898,0.254,183.105,-30.762,-46.57,0,0,0,
,0.497,-1.045,0.388,-122.803,65.734,-65.796,0,0,0,
,0.542,-0.858,0.334,-419.678,107.36,-114.441,0,0,0,
,0.562,-0.913,0.253,-758.606,160.644,-164.673,0,0,0,
,0.559,-1.035,0.359,-978.638,206.909,-200.318,0,0,0,
,0.561,-0.499,0.406,-819.581,173.523,-115.296,0,0,0,
,0.582,-0.745,0.44,-476.319,-35.401,-146.119,0,0,0,
,0.484,-0.834,0.471,-622.132,44.189,-122.925,0,0,0,
,0.526,-0.996,0.431,-888.977,126.953,-174.927,0,0,0,
,0.484,-1.199,0.328,-1168.335,185.18,-259.217,0,0,0,
,0.502,-0.496,0.53,-1136.475,243.225,-113.953,0,0,0,
,0.53,-0.685,0.372,-759.888,-7.691,-215.394,0,0,0,
,0.445,-0.813,0.457,-911.622,67.138,-158.753,0,0,0,
,0.496,-0.661,0.484,-1146.912,186.157,-176.026,0,0,0,
,0.495,-0.469,0.435,-1005.311,186.34,-146.363,0,0,0,
,0.541,-0.656,0.529,-714.478,62.377,-140.564,0,0,0,
,0.553,-0.658,0.576,-695.801,65.368,-123.841,0,0,0,
,0.549,-0.625,0.51,-689.27,74.768,-144.104,0,0,0,
,0.528,-0.819,0.505,-682.923,40.039,-196.534,0,0,0,
,0.478,-0.787,0.533,-931.58,147.277,-206.421,0,0,0,
,0.494,-0.618,0.632,-1049.744,194.824,-217.041,0,0,0,
,0.494,-0.325,0.622,-805.726,125.366,-158.753,0,0,0,
,0.477,-0.37,0.597,-484.62,40.649,-97.901,0,0,0,
,0.479,-0.464,0.666,-320.13,-6.104,-64.759,0,0,0,
,0.509,-0.56,0.736,-318.116,7.751,-74.83,0,0,0,
,0.532,-0.558,0.763,-438.05,13.488,-115.357,0,0,0,
,0.5,-0.538,0.63,-563.721,66.284,-170.655,0,0,0,
,0.513,-0.373,0.731,-451.172,63.354,-102.173,0,0,0,
,0.514,-0.348,0.716,-278.077,11.23,-83.863,0,0,0,
,0.47,-0.426,0.733,-168.702,-18.433,-51.27,0,0,0,
,0.49,-0.504,0.724,-141.785,-23.377,-51.758,0,0,0,
,0.479,-0.598,0.714,-326.416,14.221,-98.328,0,0,0,
,0.475,-0.505,0.706,-471.985,85.449,-122.62,0,0,0,
,0.487,-0.399,0.687,-443.238,96.496,-105.347,0,0,0,
,0.492,-0.316,0.708,-332.642,70.19,-85.083,0,0,0,
,0.503,-0.362,0.699,-258.851,31.372,-36.377,0,0,0,
,0.463,-0.498,0.721,-292.603,58.227,-52.002,0,0,0,
,0.505,-0.331,0.839,-199.219,96.801,-34.241,0,0,0,
,0.512,-0.407,0.71,-106.751,3.723,-57.007,0,0,0,
,0.439,-0.37,0.827,-160.279,14.221,-22.95,0,0,0,
,0.49,-0.408,0.859,-132.019,0.549,-26.856,0,0,0,
,0.434,-0.385,0.836,-164.063,16.479,-57.129,0,0,0,
,0.465,-0.294,0.827,-182.007,55.847,-42.054,0,0,0,
,0.495,-0.343,0.792,-105.53,21.728,-44.312,0,0,0,
,0.489,-0.341,0.825,-90.21,26.123,-25.269,0,0,0,
,0.487,-0.363,0.784,-60.73,16.113,-21.363,0,0,0,
,0.477,-0.386,0.826,-57.007,11.535,-22.095,0,0,0,
,0.457,-0.479,0.792,-150.879,44.86,-65.064,0,0,0,
,0.477,-0.418,0.79,-312.561,78.43,-84.046,0,0,0,
,0.468,-0.334,0.8,-433.411,113.952,-89.478,0,0,0,
,0.501,-0.259,0.776,-494.202,104.919,-110.84,0,0,0,
,0.439,-0.415,0.842,-453.492,122.131,-133.179,0,0,0,
,0.513,-0.367,0.79,-473.206,120.544,-125.977,0,0,0,
,0.5,-0.341,0.821,-622.559,127.38,-126.404,0,0,0,
,0.437,-0.23,0.843,-757.325,166.87,-130.005,0,0,0,
,0.47,-0.117,0.866,-849.976,190.307,-174.988,0,0,0,
,0.49,-0.021,0.894,-952.454,234.802,-182.679,0,0,0,
,0.544,0.035,0.828,-854.065,213.501,-150.757,0,0,0,
,0.613,-0.059,0.834,-572.571,153.32,-123.597,0,0,0,
,0.618,-0.132,0.682,-389.71,104.126,-82.703,0,0,0,
,0.516,-0.195,0.739,-603.516,202.697,-98.084,0,0,0,
,0.583,-0.087,0.77,-784.119,263,-158.814,0,0,0,
,0.546,0.047,0.828,-899.292,295.41,-162.049,0,0,0,
,0.588,0.118,0.819,-784.607,267.456,-137.818,0,0,0,
,0.654,-0.003,0.826,-582.642,206.726,-92.835,0,0,0,
,0.552,-0.014,0.725,-264.283,220.825,-20.874,0,0,0,
,0.553,-0.264,0.82,-36.805,117.431,12.573,0,0,0,
,0.474,-0.304,0.848,-318.238,181.762,-12.879,0,0,0,
,0.439,-0.136,0.861,-534.424,228.027,-66.651,0,0,0,
,0.466,0.02,1.09,-697.266,233.52,-118.531,0,0,0,
,0.468,0.01,0.967,-933.35,264.831,-199.952,0,0,0,
,0.749,0.409,0.866,-534.913,157.104,-102.173,0,0,0,
,0.583,0.07,0.735,-298.34,56.945,-76.722,0,0,0,
,0.715,0.067,0.6,-238.404,62.561,-2.137,0,0,0,
,0.551,0.043,0.5,-321.961,87.768,-33.081,0,0,0,
,0.626,0.042,0.777,-385.926,150.085,-42.298,0,0,0,
,0.698,0.204,0.684,-105.286,139.831,-58.106,0,0,0,
,0.657,0.049,0.718,111.328,56.274,-25.574,0,0,0,
,0.75,0.102,0.734,171.936,16.967,22.827,0,0,0,
,0.713,0.015,0.707,249.511,-81.238,22.827,0,0,0,
,0.669,0.12,0.661,202.209,-46.326,41.015,0,0,0,
,0.69,0.009,0.578,267.761,-98.877,49.56,0,0,0,
,0.674,0.131,0.61,255.615,-64.942,75.5,0,0,0,
,0.712,0.099,0.597,412.231,-105.103,108.642,0,0,0,
,0.635,0.004,0.662,451.843,-107.85,99.731,0,0,0,
,0.627,0.003,0.573,479.797,-64.515,48.584,0,0,0,
,0.646,-0.166,0.854,686.157,-95.826,3.356,0,0,0,
,0.584,-0.198,0.827,612.426,-110.657,-20.813,0,0,0,
,0.458,-0.052,0.836,489.746,-80.018,6.713,0,0,0,
,0.453,-0.252,0.752,501.77,-103.028,29.296,0,0,0,
,0.365,-0.305,0.772,224.365,35.217,18.249,0,0,0,
,0.472,-0.137,0.842,-0.367,153.137,2.99,0,0,0,
,0.567,-0.023,0.998,136.352,117.797,-2.381,0,0,0,
,0.586,0.307,0.77,359.619,86.12,59.143,0,0,0,
,0.636,-0.089,0.787,773.315,-73.853,-7.264,0,0,0,
,0.54,-0.146,0.717,847.351,-12.452,36.438,0,0,0,
,0.626,0.091,0.763,1203.064,44.433,97.168,0,0,0,
,0.604,0.05,0.675,1996.276,-69.764,114.685,0,0,0,
,0.713,-0.267,0.769,1999.694,-327.393,119.629,0,0,0,
,0.529,-0.748,0.754,1999.694,-356.385,12.085,0,0,0,
,0.498,-0.4,1.189,1687.744,-99.976,137.634,0,0,0,
,0.715,-0.395,1.01,1239.074,-115.845,-64.27,0,0,0,
,0.726,-0.432,1.017,1014.831,-188.05,-93.628,0,0,0,
,0.585,-0.606,0.788,734.985,-210.877,-136.658,0,0,0,
,0.585,-0.373,0.766,297.973,-103.028,-51.758,0,0,0,
,0.59,-0.212,0.558,75.866,-61.829,-31.861,0,0,0,
,0.566,-0.296,0.678,22.399,-65.308,3.295,0,0,0,
,0.632,-0.421,0.638,-92.713,-59.754,-46.814,0,0,0,
,0.6,-0.402,0.714,-217.652,-65.308,-33.875,0,0,0,
,0.582,-0.406,0.67,-235.413,-55.42,-44.495,0,0,0,
,0.605,-0.478,0.646,-216.126,-64.881,-83.985,0,0,0,
,0.604,-0.478,0.715,-186.524,-84.229,-100.525,0,0,0,
,0.572,-0.435,0.677,-173.829,-67.505,-102.539,0,0,0,
,0.539,-0.443,0.64,14.16,-85.45,-89.234,0,0,0,
,0.512,-0.446,0.671,135.986,-92.041,-47.73,0,0,0,
,0.465,-0.402,0.671,96.618,-9.034,-30.701,0,0,0,
,0.523,-0.441,0.659,146.667,-9.339,-26.49,0,0,0,
,0.483,-0.442,0.633,189.941,-1.404,-6.653,0,0,0,
,0.469,-0.475,0.645,220.581,12.085,-1.526,0,0,0,
,0.513,-0.523,0.68,323.242,5.859,-11.475,0,0,0,
,0.526,-0.521,0.651,463.562,-27.1,5.859,0,0,0,
,0.53,-0.564,0.645,517.212,-79.468,-6.714,0,0,0,
,0.509,-0.709,0.621,310.485,-68.299,-18.677,0,0,0,
,0.473,-0.669,0.62,17.211,22.399,-14.1,0,0,0,
,0.552,-0.602,0.685,-127.381,31.311,-48.951,0,0,0,
,0.557,-0.527,0.687,-255.738,41.259,-40.284,0,0,0,
,0.543,-0.439,0.719,-192.078,35.278,-30.152,0,0,0,
,0.565,-0.285,0.711,111.938,-3.54,-4.395,0,0,0,
,0.569,-0.302,0.648,496.521,-67.749,-2.564,0,0,0,
,0.55,-0.514,0.646,596.679,-100.464,2.014,0,0,0,
,0.537,-0.62,0.674,412.292,-62.867,5.92,0,0,0,
,0.542,-0.661,0.624,185.485,-28.87,-15.32,0,0,0,
,0.542,-0.631,0.636,-23.56,12.268,-29.175,0,0,0,
,0.502,-0.574,0.645,-134.949,16.235,-51.27,0,0,0,
,0.522,-0.512,0.633,-187.439,36.926,-37.415,0,0,0,
,0.535,-0.495,0.673,-133.179,11.901,-42.542,0,0,0,
,0.554,-0.582,0.715,-107.178,-26.978,-56.153,0,0,0,
,0.55,-0.616,0.7,-214.173,15.991,-54.383,0,0,0,
,0.583,-0.578,0.691,-244.141,18.92,-80.872,0,0,0,
,0.578,-0.537,0.642,-189.942,3.784,-117.127,0,0,0,
,0.567,-0.529,0.68,-216.553,-24.659,-141.053,0,0,0,
,0.546,-0.559,0.729,-336.67,-17.212,-140.564,0,0,0,
,0.503,-0.524,0.648,-510.56,26.184,-165.711,0,0,0,
,0.512,-0.504,0.751,-607.117,13.916,-143.006,0,0,0,
,0.466,-0.455,0.821,-676.697,30.944,-112.671,0,0,0,
,0.41,-0.459,0.691,-734.62,18.31,-104.615,0,0,0,
,0.443,-0.358,0.764,-773.621,40.71,-45.96,0,0,0,
,0.51,-0.308,0.779,-641.907,-19.776,-37.842,0,0,0,
,0.498,-0.422,0.839,-578.797,-114.685,-47.242,0,0,0,
,0.401,-0.574,0.736,-791.932,-40.589,-113.587,0,0,0,
,0.399,-0.457,0.763,-1013.367,65.429,-83.069,0,0,0,
,0.423,-0.38,0.811,-1110.047,106.994,-88.501,0,0,0,
,0.368,-0.28,0.696,-1273.438,252.197,-110.535,0,0,0,
,0.442,-0.082,0.634,-1159.913,269.348,-55.115,0,0,0,
,0.515,0.133,0.854,-635.193,139.77,69.885,0,0,0,
,0.476,-0.217,0.764,-426.148,112.426,-60.425,0,0,0,
,0.511,-0.149,0.8,-504.09,128.112,29.174,0,0,0,
,0.539,-0.258,0.627,-439.637,146.789,-0.916,0,0,0,
,0.514,-0.055,0.546,-484.864,181.884,25.512,0,0,0,
,0.526,-0.105,0.665,-516.297,227.6,-15.625,0,0,0,
,0.53,-0.186,0.743,-474.915,266.418,-47.73,0,0,0,
,0.524,-0.027,0.621,-449.097,292.175,-10.926,0,0,0,
,0.593,-0.002,0.637,-283.448,275.573,10.192,0,0,0,
,0.656,-0.073,0.61,-94.605,243.835,30.395,0,0,0,
,0.623,-0.069,0.7,-24.231,246.399,54.687,0,0,0,
,0.777,-0.145,0.736,174.072,183.105,145.935,0,0,0,
,0.875,-0.043,0.736,509.46,103.759,223.266,0,0,0,
,0.922,-0.15,0.658,1226.684,-111.206,268.921,0,0,0,
,0.801,-0.069,0.562,1816.04,-226.746,316.65,0,0,0,
,0.844,-0.27,0.479,1999.694,-449.83,267.334,0,0,0,
,0.742,-0.637,0.587,1999.694,-656.983,211.914,0,0,0,
,0.656,-0.738,0.793,1999.694,-709.412,119.079,0,0,0,
,0.613,-0.827,0.734,1999.694,-768.494,-35.828,0,0,0,
,0.467,-0.897,0.65,1999.694,-722.779,-91.98,0,0,0,
,0.34,-0.781,0.624,1999.694,-585.755,-64.331,0,0,0,
,0.178,-0.74,0.707,1971.008,-368.042,-88.013,0,0,0,
,0.155,-1.201,0.62,664.734,-141.907,-72.449,0,0,0,
,0.116,-1.151,0.586,-471.497,204.467,-71.167,0,0,0,
,0.295,-0.712,0.603,-797.242,329.284,-40.467,0,0,0,
,0.416,-0.386,0.579,-372.498,195.861,23.376,0,0,0,
,0.317,-0.446,0.612,351.501,33.996,0.793,0,0,0,
,0.316,-0.577,0.586,717.712,102.905,-4.456,0,0,0,
,0.517,-0.895,0.661,451.599,14.099,-76.172,0,0,0,
,0.501,-0.831,0.811,-308.045,65.856,-3.785,0,0,0,
,0.51,-0.93,0.888,-438.111,42.907,-152.344,0,0,0,
,0.557,-0.667,0.767,-366.211,68.847,-101.502,0,0,0,
,0.55,-0.571,0.746,-217.591,-29.908,-127.93,0,0,0,
,0.491,-0.862,0.766,-349.915,-69.642,-153.077,0,0,0,
,0.419,-0.643,0.637,-672.791,88.134,-24.537,0,0,0,
,0.502,-0.556,0.685,-650.391,17.944,-52.063,0,0,0,
,0.419,-0.634,0.775,-642.212,16.906,-91.187,0,0,0,
,0.46,-0.492,0.723,-779.602,49.804,-58.35,0,0,0,
,0.494,-0.684,0.66,-866.761,7.995,-136.353,0,0,0,
,0.383,-0.727,0.725,-1029.541,114.746,-132.508,0,0,0,
,0.478,-0.544,0.589,-1077.82,165.405,-112.366,0,0,0,
,0.466,-0.468,0.683,-865.54,119.323,-112.915,0,0,0,
,0.447,-0.455,0.677,-735.108,81.665,-105.042,0,0,0,
,0.405,-0.584,0.716,-782.837,121.704,-126.893,0,0,0,
,0.432,-0.366,0.712,-831.604,194.458,-89.234,0,0,0,
,0.446,-0.449,0.689,-758.545,182.19,-131.958,0,0,0,
,0.463,-0.389,0.725,-723.084,173.95,-56.763,0,0,0,
,0.452,-0.31,0.73,-661.377,232.544,-59.754,0,0,0,
,0.538,-0.37,0.711,-423.34,108.276,8.239,0,0,0,
,0.403,-0.519,0.658,-377.747,167.175,-33.265,0,0,0,
,0.435,-0.404,0.672,-460.206,213.195,61.889,0,0,0,
,0.459,-0.277,0.658,-435.914,214.599,43.151,0,0,0,
,0.506,-0.449,0.744,-295.777,177.917,-31.189,0,0,0,
,0.456,-0.339,0.67,-370.24,248.413,55.236,0,0,0,
,0.506,-0.508,0.699,-164.551,181.213,-31.006,0,0,0,
,0.486,-0.322,0.58,-270.386,230.041,40.649,0,0,0,
,0.588,-0.398,0.679,-85.633,162.658,18.554,0,0,0,
,0.545,-0.259,0.64,-121.644,179.138,53.772,0,0,0,
,0.642,-0.303,0.726,75.744,126.892,47.18,0,0,0,
,0.685,-0.349,0.748,181.823,83.557,57.617,0,0,0,
,0.688,-0.201,0.623,256.469,106.323,83.313,0,0,0,
,0.814,-0.229,0.548,516.174,18.798,136.474,0,0,0,
,0.878,-0.321,0.537,807.739,-99.976,138.672,0,0,0,
,0.847,-0.42,0.501,1131.103,-224.61,112.671,0,0,0,
,0.77,-0.453,0.501,1603.698,-325.623,75.256,0,0,0,
,0.666,-0.625,0.548,1984.008,-447.998,-14.588,0,0,0,
,0.562,-0.821,0.644,1999.694,-493.164,-84.412,0,0,0,
,0.517,-0.935,0.641,1746.582,-468.506,-110.657,0,0,0,
,0.512,-0.851,0.58,1475.402,-409.974,-87.525,0,0,0,
,0.415,-0.751,0.618,1524.353,-419.617,-66.285,0,0,0,
,0.269,-0.613,0.79,1508.422,-355.103,-71.045,0,0,0,
,0.336,-0.897,0.864,1119.323,-298.645,-119.385,0,0,0,
,0.299,-1.012,0.741,434.509,-122.742,-145.02,0,0,0,
,0.222,-0.776,0.488,132.629,68.481,-123.352,0,0,0,
,0.29,-0.527,0.291,276.977,131.53,-78.125,0,0,0,
,0.326,-0.524,0.398,531.86,74.585,-30.335,0,0,0,
,0.35,-0.819,0.593,465.942,26.733,-14.405,0,0,0,
,0.36,-0.87,0.643,113.952,138.916,-39.307,0,0,0,
,0.409,-0.711,0.724,-197.388,181.213,-78.919,0,0,0,
,0.47,-0.852,0.69,-303.711,132.812,-149.292,0,0,0,
,0.526,-0.723,0.792,-473.023,125.488,-93.14,0,0,0,
,0.55,-0.515,0.723,-233.155,36.804,-125.061,0,0,0,
,0.553,-0.58,0.725,96.374,-114.319,-71.595,0,0,0,
,0.492,-0.689,0.644,145.446,-104.676,-61.707,0,0,0,
,0.502,-0.66,0.564,36.499,-64.393,-36.377,0,0,0,
,0.453,-0.82,0.527,-79.712,-14.527,-89.051,0,0,0,
,0.469,-0.774,0.534,-291.932,53.1,-54.688,0,0,0,
,0.48,-0.71,0.551,-386.719,49.072,-70.069,0,0,0,
,0.435,-0.711,0.562,-427.857,17.211,-62.684,0,0,0,
,0.411,-0.823,0.55,-373.352,15.502,-126.465,0,0,0,
,0.405,-0.685,0.534,-313.233,41.748,-66.102,0,0,0,
,0.424,-0.691,0.462,-253.54,37.536,-66.529,0,0,0,
,0.432,-0.763,0.495,-305.481,18.615,-42.054,0,0,0,
,0.42,-0.843,0.516,-268.189,13.305,-77.332,0,0,0,
,0.418,-0.758,0.537,-344.971,55.114,-75.135,0,0,0,
,0.451,-0.776,0.565,-360.23,37.353,-106.446,0,0,0,
,0.438,-0.705,0.599,-424.073,66.528,-95.704,0,0,0,
,0.448,-0.594,0.556,-319.214,54.321,-100.525,0,0,0,
,0.441,-0.622,0.553,-180.664,6.774,-87.708,0,0,0,
,0.404,-0.64,0.589,-169.861,40.832,-79.773,0,0,0,
,0.465,-0.643,0.627,-211.365,60.302,-59.998,0,0,0,
,0.438,-0.635,0.652,-280.64,55.175,-65.613,0,0,0,
,0.462,-0.657,0.715,-331.604,42.785,-69.947,0,0,0,
,0.433,-0.628,0.658,-415.162,85.937,-73.67,0,0,0,
,0.475,-0.639,0.633,-237.549,48.645,-102.234,0,0,0,
,0.441,-0.568,0.639,-125.916,29.663,-61.89,0,0,0,
,0.422,-0.615,0.623,-49.012,26.794,-66.712,0,0,0,
,0.411,-0.656,0.619,-46.265,34.668,-71.167,0,0,0,
,0.424,-0.664,0.635,-119.385,29.785,-63.477,0,0,0,
,0.435,-0.662,0.654,-203.125,40.466,-58.289,0,0,0,
,0.426,-0.645,0.633,-285.95,57.8,-56.58,0,0,0,
,0.43,-0.637,0.641,-299.378,63.598,-48.096,0,0,0,
,0.414,-0.59,0.635,-299.012,101.379,-45.655,0,0,0,
,0.479,-0.628,0.682,-101.929,53.039,-79.407,0,0,0,
,0.461,-0.557,0.676,-10.987,22.277,-49.256,0,0,0,
,0.432,-0.593,0.646,24.292,-27.832,-57.801,0,0,0,
,0.394,-0.665,0.659,-84.351,2.197,-58.411,0,0,0,
,0.407,-0.641,0.681,-225.525,65.918,-59.388,0,0,0,
,0.454,-0.559,0.712,-281.128,93.322,-59.388,0,0,0,
,0.47,-0.498,0.707,-217.286,65.673,-44.922,0,0,0,
,0.469,-0.499,0.713,-120.057,23.986,-26.917,0,0,0,
,0.442,-0.546,0.695,-47.303,-4.517,-20.874,0,0,0,
,0.432,-0.652,0.68,-188.111,-24.659,-40.711,0,0,0,
,0.36,-0.654,0.686,-501.954,87.524,-18.799,0,0,0,
,0.388,-0.537,0.711,-716.797,219.726,-39.246,0,0,0,
,0.51,-0.459,0.711,-439.698,119.079,-39.49,0,0,0,
,0.409,-0.486,0.736,-138.55,26.794,-31.189,0,0,0,
,0.41,-0.509,0.726,-141.968,29.541,-15.198,0,0,0,
,0.397,-0.518,0.717,-229.554,64.392,-13.733,0,0,0,
,0.409,-0.493,0.717,-416.077,113.83,-13.489,0,0,0,
,0.426,-0.467,0.749,-508.851,161.193,-21.607,0,0,0,
,0.507,-0.429,0.765,-254.456,104.431,-24.414,0,0,0,
,0.476,-0.468,0.81,-155.091,32.226,-18.433,0,0,0,
,0.452,-0.461,0.772,-251.16,59.448,-16.053,0,0,0,
,0.454,-0.478,0.764,-317.2,62.011,-41.687,0,0,0,
,0.429,-0.434,0.801,-410.645,93.994,-17.395,0,0,0,
,0.452,-0.424,0.759,-350.281,135.864,-67.566,0,0,0,
,0.476,-0.445,0.731,-289.795,102.05,-46.936,0,0,0,
,0.45,-0.439,0.709,-322.388,101.562,-33.997,0,0,0,
,0.437,-0.398,0.699,-447.327,141.174,5.859,0,0,0,
,0.498,-0.413,0.754,-358.338,158.874,-90.088,0,0,0,
,0.47,-0.368,0.699,-274.292,101.745,-40.467,0,0,0,
,0.418,-0.403,0.732,-402.527,153.93,-44.739,0,0,0,
,0.453,-0.367,0.806,-515.503,217.773,-36.56,0,0,0,
,0.552,-0.289,0.649,-317.139,184.997,-47.73,0,0,0,
,0.456,-0.23,0.661,-184.754,151.367,-17.945,0,0,0,
,0.464,-0.311,0.734,-163.147,164.978,24.475,0,0,0,
,0.559,-0.297,0.7,-39.551,188.11,-6.165,0,0,0,
,0.483,-0.223,0.628,15.808,168.457,45.715,0,0,0,
,0.531,-0.214,0.662,87.89,191.833,84.35,0,0,0,
,0.621,-0.288,0.742,132.324,141.662,96.13,0,0,0,
,0.681,-0.297,0.706,174.865,136.474,119.812,0,0,0,
,0.797,-0.206,0.763,376.709,69.946,152.771,0,0,0,
,0.982,-0.29,0.605,826.172,-151.246,224.121,0,0,0,
,0.9,-0.482,0.48,1279.419,-338.99,260.131,0,0,0,
,0.84,-0.656,0.411,1692.138,-428.956,239.807,0,0,0,
,0.735,-0.692,0.463,1998.352,-464.966,158.325,0,0,0,
,0.628,-0.746,0.425,1999.694,-551.575,85.876,0,0,0,
,0.551,-1.182,0.464,1999.694,-768.555,36.254,0,0,0,
,0.21,-1.166,0.801,1806.03,-586.67,102.722,0,0,0,
,0.315,-0.718,1.041,1383.178,-471.619,147.461,0,0,0,
,0.251,-0.783,1.142,1306.945,-537.598,96.008,0,0,0,
,0.137,-1.137,1.189,681.213,-419.556,-42.786,0,0,0,
,-0.083,-1.106,0.505,-763.306,101.501,-272.706,0,0,0,
,0.085,-0.835,0.793,-929.566,200.988,-195.252,0,0,0,
,0.245,-0.758,0.898,-1007.752,204.651,-123.23,0,0,0,
,0.42,-0.292,0.557,-834.717,179.016,-78.858,0,0,0,
,0.43,-0.896,1.031,-120.606,-256.226,-117.249,0,0,0,
,0.34,-0.745,0.85,-494.019,-43.58,-187.928,0,0,0,
,0.352,-0.361,0.781,-523.133,20.568,-159.668,0,0,0,
,0.397,-0.242,0.737,-303.101,5.371,-23.133,0,0,0,
,0.429,-0.245,0.61,-24.781,-26.978,131.164,0,0,0,
,0.457,-0.377,0.52,167.053,-31.189,191.223,0,0,0,
,0.497,-0.616,0.629,306.213,-17.884,106.445,0,0,0,
,0.514,-0.882,0.525,239.074,-1.77,58.776,0,0,0,
,0.495,-0.75,0.482,-186.951,141.418,-11.292,0,0,0,
,0.439,-0.597,0.435,-267.273,190.734,-68.909,0,0,0,
,0.433,-0.631,0.575,-217.774,198.059,-53.833,0,0,0,
,0.501,-0.359,0.55,-184.449,208.007,21.057,0,0,0,
,0.516,-0.38,0.475,197.692,80.322,107.116,0,0,0,
,0.474,-0.739,0.511,351.806,20.202,117.126,0,0,0,
,0.473,-0.899,0.519,40.283,118.225,51.94,0,0,0,
,0.527,-0.804,0.57,-252.137,194.397,-22.706,0,0,0,
,0.513,-0.561,0.612,-314.27,205.749,-56.702,0,0,0,
,0.504,-0.373,0.637,-96.863,127.929,-28.931,0,0,0,
,0.502,-0.524,0.66,69.091,47.668,-10.743,0,0,0,
,0.505,-0.591,0.642,-42.725,66.65,-26.734,0,0,0,
,0.51,-0.696,0.619,-175.232,80.444,-81.116,0,0,0,
,0.476,-0.705,0.638,-389.588,141.418,-150.086,0,0,0,
,0.485,-0.597,0.637,-515.076,167.48,-191.163,0,0,0,
,0.497,-0.317,0.718,-455.018,161.499,-138.55,0,0,0,
,0.495,-0.492,0.658,-240.845,63.903,-132.813,0,0,0,
,0.458,-0.772,0.739,-447.876,116.882,-190.43,0,0,0,
,0.505,-0.65,0.715,-846.619,253.601,-255.494,0,0,0,
,0.538,-0.459,0.82,-958.191,252.258,-260.56,0,0,0,
,0.553,-0.278,0.794,-751.465,179.626,-233.948,0,0,0,
,0.478,-0.401,0.701,-627.503,145.507,-217.164,0,0,0,
,0.474,-0.529,0.723,-662.598,161.01,-219.849,0,0,0,
,0.508,-0.572,0.678,-820.984,223.266,-249.756,0,0,0,
,0.516,-0.343,0.793,-936.341,266.418,-205.506,0,0,0,
,0.535,-0.232,0.729,-829.041,224.487,-207.032,0,0,0,
,0.49,-0.266,0.775,-731.873,204.162,-186.89,0,0,0,
,0.505,-0.309,0.77,-729.676,205.322,-191.651,0,0,0,
,0.539,-0.366,0.799,-855.347,244.018,-211.182,0,0,0,
,0.593,-0.282,0.856,-911.56,256.591,-206.482,0,0,0,
,0.593,-0.165,0.729,-865.479,227.356,-216.065,0,0,0,
,0.559,-0.217,0.781,-831.482,172.18,-223.694,0,0,0,
,0.534,-0.247,0.781,-894.349,165.344,-234.498,0,0,0,
,0.538,-0.225,0.799,-1011.78,206.482,-263.245,0,0,0,
,0.604,0.008,0.749,-926.026,180.236,-190.613,0,0,0,
,0.578,-0.043,0.703,-762.146,90.393,-229.676,0,0,0,
,0.552,-0.21,0.758,-793.03,72.204,-257.203,0,0,0,
,0.536,-0.224,0.749,-1046.875,170.715,-310.12,0,0,0,
,0.584,-0.065,0.803,-1208.008,277.221,-325.196,0,0,0,
,0.591,-0.005,0.713,-1178.223,202.88,-371.155,0,0,0,
,0.524,-0.037,0.749,-1324.463,239.074,-400.513,0,0,0,
,0.615,0.318,0.662,-1482.117,343.567,-386.963,0,0,0,
,0.607,0.133,0.698,-1355.896,279.174,-422.181,0,0,0,
,0.598,0.282,0.682,-1418.335,422.363,-345.032,0,0,0,
,0.627,0.251,0.452,-1203.309,343.261,-332.093,0,0,0,
,0.595,0.146,0.422,-1378.724,469.421,-336.182,0,0,0,
,0.765,0.444,0.52,-1321.351,548.034,-271.668,0,0,0,
,0.728,0.44,0.524,-936.463,413.94,-205.384,0,0,0,
,0.702,0.431,0.607,-649.231,359.314,-77.21,0,0,0,
,0.873,0.502,0.683,-69.947,248.718,99.914,0,0,0,
,0.979,0.302,0.571,748.413,-81.543,278.198,0,0,0,
,0.847,0.114,0.58,1247.68,-274.109,430.725,0,0,0,
,0.906,-0.021,0.627,1870.056,-454.041,513.672,0,0,0,
,0.87,-0.022,0.592,1999.694,-616.15,561.889,0,0,0,
,0.817,0.029,0.61,1999.694,-833.619,608.886,0,0,0,
,0.695,-0.021,0.642,1999.694,-1043.152,628.296,0,0,0,
,0.595,-0.259,0.738,1999.694,-1256.958,588.012,0,0,0,
,0.604,-0.751,0.786,1999.694,-1538.941,555.664,0,0,0,
,0.304,-0.799,0.619,1999.694,-1354.737,691.223,0,0,0,
,-0.113,-0.434,0.542,1999.694,-963.562,768.31,0,0,0,
,-0.123,-0.453,0.524,1999.694,-749.695,621.276,0,0,0,
,-0.042,-0.727,0.631,1995.849,-444.153,454.345,0,0,0,
,-0.035,-0.775,0.761,1953.552,-225.342,305.786,0,0,0,
,0.032,-0.822,0.735,1817.871,-102.417,301.88,0,0,0,
,0.089,-0.77,0.597,1444.275,-9.766,350.402,0,0,0,
,0.143,-0.77,0.62,1083.374,7.934,368.286,0,0,0,
,0.244,-0.899,0.74,779.663,33.569,356.689,0,0,0,
,0.444,-1.002,0.873,463.134,52.124,310.974,0,0,0,
,0.586,-0.965,0.869,147.216,125.366,277.465,0,0,0,
,0.737,-0.646,0.833,45.959,171.569,274.902,0,0,0,
,0.806,-0.604,0.843,296.081,29.663,179.687,0,0,0,
,0.736,-0.645,0.732,272.766,17.15,102.234,0,0,0,
,0.624,-0.707,0.828,343.75,-65.979,21.85,0,0,0,
,0.502,-0.84,0.667,80.627,-46.753,-60.669,0,0,0,
,0.469,-0.627,0.588,-248.597,63.049,-54.505,0,0,0,
,0.503,-0.599,0.513,-293.396,96.313,-92.835,0,0,0,
,0.512,-0.748,0.579,-242.676,45.959,-130.494,0,0,0,
,0.467,-0.596,0.46,-393.006,123.474,-80.262,0,0,0,
,0.457,-0.604,0.443,-383.789,117.92,-103.15,0,0,0,
,0.437,-0.732,0.525,-480.957,167.785,-141.48,0,0,0,
,0.486,-0.669,0.616,-645.264,217.285,-167.237,0,0,0,
,0.515,-0.597,0.579,-583.68,210.693,-187.439,0,0,0,
,0.513,-0.607,0.755,-337.403,87.463,-138.062,0,0,0,
,0.49,-0.714,0.663,-294.556,20.874,-141.907,0,0,0,
,0.459,-0.735,0.572,-427.674,64.148,-160.523,0,0,0,
,0.463,-0.767,0.622,-665.772,140.808,-219.056,0,0,0,
,0.494,-0.653,0.624,-857.178,231.018,-252.259,0,0,0,
,0.542,-0.507,0.676,-699.28,141.235,-213.746,0,0,0,
,0.499,-0.505,0.657,-613.221,93.872,-203.736,0,0,0,
,0.46,-0.519,0.605,-624.695,106.689,-214.905,0,0,0,
,0.457,-0.647,0.604,-685.059,128.906,-269.593,0,0,0,
,0.484,-0.564,0.658,-886.048,211.853,-210.877,0,0,0,
,0.519,-0.316,0.706,-818.909,213.256,-197.327,0,0,0,
,0.505,-0.491,0.692,-585.328,80.993,-220.398,0,0,0,
,0.447,-0.44,0.704,-565.125,81.176,-154.786,0,0,0,
,0.466,-0.361,0.773,-503.724,89.782,-161.56,0,0,0,
,0.513,-0.533,0.718,-562.561,74.707,-186.89,0,0,0,
,0.459,-0.472,0.77,-773.499,162.048,-231.019,0,0,0,
,0.512,-0.457,0.694,-849.366,187.744,-253.54,0,0,0,
,0.504,-0.194,0.865,-740.967,168.029,-120.179,0,0,0,
,0.514,-0.266,0.764,-477.173,57.373,-186.402,0,0,0,
,0.464,-0.383,0.766,-495.606,57.495,-162.598,0,0,0,
,0.471,-0.377,0.81,-781.983,193.176,-224.488,0,0,0,
,0.519,-0.13,0.84,-641.48,156.25,-161.011,0,0,0,
,0.519,-0.218,0.775,-500.733,59.265,-158.387,0,0,0,
,0.438,-0.249,0.759,-607.85,86.669,-145.63,0,0,0,
,0.458,-0.189,0.793,-604.554,186.279,-95.093,0,0,0,
,0.526,-0.171,0.72,-483.521,128.234,-117.554,0,0,0,
,0.494,-0.388,0.729,-621.338,166.992,-148.255,0,0,0,
,0.469,-0.108,0.727,-657.288,284.057,-47.791,0,0,0,
,0.584,-0.094,0.746,-434.082,150.512,-67.81,0,0,0,
,0.522,-0.248,0.813,-500.061,183.96,-73.365,0,0,0,
,0.595,0.082,0.757,-434.327,181.762,-5.127,0,0,0,
,0.629,-0.039,0.724,-192.994,74.218,-22.644,0,0,0,
,0.528,-0.24,0.778,-103.882,77.392,-43.702,0,0,0,
,0.635,-0.109,0.746,-60.425,75.256,-0.672,0,0,0,
,0.738,0.102,0.782,74.951,45.349,120.3,0,0,0,
,0.803,0.046,0.74,675.537,-211.792,225.158,0,0,0,
,0.723,-0.113,0.696,1237.976,-389.1,326.11,0,0,0,
,0.734,-0.287,0.637,1593.322,-498.719,341.613,0,0,0,
,0.727,-0.275,0.518,1833.618,-520.997,394.226,0,0,0,
,0.751,-0.588,0.494,1999.694,-810.669,362.915,0,0,0,
,0.499,-0.771,0.632,1999.694,-960.267,394.592,0,0,0,
,0.328,-0.982,0.706,1930.786,-984.437,382.69,0,0,0,
,0.165,-0.688,0.94,1530.151,-827.515,499.023,0,0,0,
,0.234,-0.612,1.16,1491.211,-839.905,488.891,0,0,0,
,0.117,-0.699,0.851,1395.08,-769.593,485.229,0,0,0,
,-0.205,-0.893,0.645,1178.894,-533.143,280.639,0,0,0,
,-0.242,-0.621,0.693,721.496,-156.373,347.961,0,0,0,
,0.182,-0.578,0.575,128.906,369.018,292.358,0,0,0,
,0.321,-0.466,0.78,230.529,385.131,305.359,0,0,0,
,0.542,-0.639,0.778,740.356,208.068,275.573,0,0,0,
,0.526,-0.861,0.786,966.797,60.974,251.159,0,0,0,
,0.516,-0.994,0.688,700.134,57.312,185.18,0,0,0,
,0.574,-0.96,0.844,319.152,72.509,133.056,0,0,0,
,0.67,-0.601,0.836,-8.423,142.456,77.453,0,0,0,
,0.563,-0.402,0.726,249.267,60.241,-16.968,0,0,0,
,0.552,-0.552,0.676,638.916,-62.378,1.22,0,0,0,
,0.487,-0.829,0.602,353.576,-28.626,1.831,0,0,0,
,0.442,-0.84,0.788,-237.793,46.386,-102.784,0,0,0,
,0.454,-0.695,0.649,-332.947,72.753,-159.913,0,0,0,
,0.467,-0.575,0.596,-516.419,143.737,-202.698,0,0,0,
,0.484,-0.514,0.484,-559.205,181.823,-224.305,0,0,0,
,0.556,-0.378,0.661,-343.934,84.899,-115.845,0,0,0,
,0.474,-0.582,0.553,-108.826,-53.833,-75.928,0,0,0,
,0.401,-0.807,0.523,-287.842,21.118,-121.216,0,0,0,
,0.45,-0.864,0.552,-613.892,123.474,-195.069,0,0,0,
,0.46,-0.69,0.574,-888.245,238.464,-261.17,0,0,0,
,0.534,-0.359,0.705,-642.945,180.603,-172.486,0,0,0,
,0.475,-0.485,0.621,-217.53,0.488,-103.699,0,0,0,
,0.404,-0.704,0.639,-84.778,-58.533,-71.045,0,0,0,
,0.506,-0.347,0.725,-470.52,112.609,-120.118,0,0,0,
,0.531,-0.457,0.557,54.077,-119.141,-69.153,0,0,0,
,0.414,-0.841,0.567,177.49,-171.326,-77.942,0,0,0,
,0.412,-0.861,0.556,-104.065,-13.672,-126.648,0,0,0,
,0.441,-0.589,0.599,-278.504,61.889,-131.165,0,0,0,
,0.417,-0.658,0.669,-197.144,13.244,-148.682,0,0,0,
,0.464,-0.542,0.684,-309.815,50.781,-175.66,0,0,0,
,0.489,-0.442,0.705,-215.088,22.705,-135.132,0,0,0,
,0.454,-0.466,0.653,-105.957,-22.095,-123.23,0,0,0,
,0.39,-0.629,0.666,-208.802,8.422,-130.372,0,0,0,
,0.401,-0.521,0.756,-424.378,132.385,-140.686,0,0,0,
,0.432,-0.322,0.707,-404.541,125.061,-95.459,0,0,0,
,0.405,-0.438,0.778,-325.318,98.632,-92.652,0,0,0,
,0.387,-0.494,0.836,-251.648,112.487,-68.543,0,0,0,
,0.378,-0.456,0.737,-313.111,129.76,-44.007,0,0,0,
,0.399,-0.471,0.748,-368.836,162.597,-36.377,0,0,0,
,0.416,-0.466,0.826,-290.039,112.548,-29.786,0,0,0,
,0.389,-0.459,0.761,-411.072,164.856,-47.73,0,0,0,
,0.383,-0.434,0.773,-495.484,204.956,-32.532,0,0,0,
,0.455,-0.474,0.819,-371.888,163.452,-46.509,0,0,0,
,0.416,-0.421,0.754,-388.001,171.447,-12.269,0,0,0,
,0.406,-0.472,0.77,-423.768,177.307,-17.212,0,0,0,
,0.463,-0.462,0.775,-457.52,192.932,-50.843,0,0,0,
,0.409,-0.436,0.602,-574.524,230.468,-82.337,0,0,0,
,0.398,-0.423,0.721,-701.844,324.34,-91.675,0,0,0,
,0.518,-0.338,0.684,-649.964,325.012,-58.35,0,0,0,
,0.459,-0.331,0.788,-569.947,308.166,-43.58,0,0,0,
,0.658,-0.299,0.796,-386.109,257.202,12.39,0,0,0,
,0.735,-0.381,0.847,-95.52,135.803,57.922,0,0,0,
,0.799,-0.347,0.871,147.766,3.356,109.497,0,0,0,
,0.856,-0.327,0.804,580.871,-192.566,136.718,0,0,0,
,0.809,-0.318,0.815,880.249,-339.539,144.287,0,0,0,
,0.888,-0.447,0.569,1375.915,-511.17,116.76,0,0,0,
,0.758,-0.495,0.35,1860.351,-657.715,146.728,0,0,0,
,0.564,-0.586,0.341,1999.694,-808.228,152.649,0,0,0,
,0.352,-0.871,0.385,1999.694,-930.726,160.217,0,0,0,
,0.062,-0.934,0.481,1999.694,-823.731,201.477,0,0,0,
,-0.092,-0.923,0.768,1733.642,-685.364,253.173,0,0,0,
,-0.047,-0.8,1.009,1129.76,-532.105,334.838,0,0,0,
,-0.039,-1.137,0.924,452.819,-375.123,203.918,0,0,0,
,-0.033,-0.992,0.858,-311.219,-157.105,152.526,0,0,0,
,-0.037,-0.797,0.5,-562.134,73.852,79.223,0,0,0,
,0.13,-0.474,0.4,-305.359,65.246,270.691,0,0,0,
,0.308,-0.724,0.559,-270.935,39.978,259.948,0,0,0,
,0.29,-0.682,0.779,-234.375,130.737,217.651,0,0,0,
,0.358,-0.752,0.752,41.626,122.802,51.086,0,0,0,
,0.359,-0.796,0.617,86.547,179.687,-66.773,0,0,0,
,0.369,-0.629,0.718,51.757,222.961,-52.185,0,0,0,
,0.409,-0.605,0.72,96.862,189.331,27.099,0,0,0,
,0.384,-0.531,0.646,126.77,184.814,107.483,0,0,0,
,0.502,-0.625,0.755,136.535,131.408,154.358,0,0,0,
,0.597,-0.554,0.888,-139.283,184.631,160.522,0,0,0,
,0.686,-0.393,0.791,-62.134,191.162,47.729,0,0,0,
,0.587,-0.494,0.778,467.712,-16.541,105.651,0,0,0,
,0.426,-0.757,0.554,385.498,-45.838,123.535,0,0,0,
,0.462,-0.586,0.479,196.533,49.011,180.175,0,0,0,
,0.531,-0.734,0.497,351.623,26.916,165.1,0,0,0,
,0.585,-0.725,0.433,332.458,74.829,145.996,0,0,0,
,0.528,-0.972,0.369,97.473,72.876,30.761,0,0,0,
,0.433,-1.09,0.411,-440.735,222.473,-113.282,0,0,0,
,0.501,-0.952,0.509,-922.852,326.11,-253.418,0,0,0,
,0.499,-1.018,0.494,-1214.6,319.03,-417.969,0,0,0,
,0.474,-0.905,0.483,-1511.841,400.817,-539.124,0,0,0,
,0.512,-0.723,0.518,-1674.683,425.476,-572.998,0,0,0,
,0.543,-0.613,0.492,-1858.765,462.524,-661.499,0,0,0,
,0.543,-0.504,0.572,-1990.906,517.761,-707.093,0,0,0,
,0.524,-0.244,0.681,-1962.708,491.455,-670.777,0,0,0,
,0.563,-0.227,0.768,-1730.774,402.526,-617.92,0,0,0,
,0.564,-0.127,0.785,-1586.182,372.131,-519.715,0,0,0,
,0.596,-0.135,0.727,-1377.381,309.509,-525.513,0,0,0,
,0.584,-0.265,0.69,-1291.199,280.883,-498.536,0,0,0,
,0.581,-0.176,0.648,-1336.304,322.57,-473.389,0,0,0,
,0.575,-0.177,0.582,-1329.529,330.505,-439.881,0,0,0,
,0.534,-0.014,0.642,-1283.631,370.666,-394.532,0,0,0,
,0.569,-0.195,0.647,-1274.964,382.69,-449.524,0,0,0,
,0.583,0.161,0.8,-1202.82,406.921,-319.336,0,0,0,
,0.621,0.045,0.733,-902.1,264.16,-298.34,0,0,0,
,0.551,-0.022,0.829,-762.574,237.609,-236.512,0,0,0,
,0.583,-0.07,0.822,-640.442,202.575,-209.595,0,0,0,
,0.574,-0.112,0.78,-664.917,221.679,-214.478,0,0,0,
,0.58,-0.1,0.728,-731.934,242.37,-225.525,0,0,0,
,0.566,-0.069,0.66,-911.072,288.879,-244.935,0,0,0,
,0.566,0.063,0.935,-958.68,359.741,-234.314,0,0,0,
,0.654,0.202,0.817,-781.861,242.004,-216.126,0,0,0,
,0.579,0.106,0.732,-745.179,174.255,-209.656,0,0,0,
,0.558,0.027,0.709,-885.804,232.544,-219.483,0,0,0,
,0.595,0.016,0.734,-972.779,287.292,-238.099,0,0,0,
,0.689,0.192,0.65,-988.892,292.724,-232.422,0,0,0,
,0.641,0.189,0.616,-996.155,284.79,-205.323,0,0,0,
,0.645,0.173,0.61,-907.654,275.573,-189.209,0,0,0,
,0.663,0.22,0.575,-750.306,253.845,-163.697,0,0,0,
,0.644,0.208,0.442,-656.373,259.643,-149.598,0,0,0,
,0.617,0.204,0.431,-684.815,317.077,-120.423,0,0,0,
,0.68,0.374,0.512,-593.689,383.484,-115.784,0,0,0,
,0.768,0.368,0.465,-360.291,282.226,-49.927,0,0,0,
,0.772,0.266,0.503,-173.34,249.389,14.282,0,0,0,
,0.859,0.251,0.618,73.059,207.092,18.127,0,0,0,
,0.851,0.366,0.562,283.386,121.643,100.097,0,0,0,
,0.818,0.393,0.557,554.382,34.423,177.673,0,0,0,
,0.808,0.362,0.566,875.549,-56.336,250.305,0,0,0,
,0.869,0.322,0.631,1212.219,-175.232,360.901,0,0,0,
,0.937,0.193,0.63,1722.29,-395.081,470.886,0,0,0,
,0.897,0.161,0.554,1999.694,-588.379,612.915,0,0,0,
,0.946,-0.237,0.658,1999.694,-887.879,631.408,0,0,0,
,0.778,-0.304,0.725,1999.694,-1058.289,642.273,0,0,0,
,0.652,-0.33,0.586,1999.694,-1204.102,655.822,0,0,0,
,0.442,-0.418,0.564,1999.694,-1219.483,634.521,0,0,0,
,0.272,-0.541,0.566,1999.694,-1178.833,562.011,0,0,0,
,0.149,-0.691,0.628,1999.694,-1059.632,431.091,0,0,0,
,0.151,-0.907,0.757,1999.694,-962.281,292.602,0,0,0,
,0.084,-1.234,0.787,1999.694,-687.867,186.584,0,0,0,
,-0.003,-1.135,0.623,794.433,-202.088,129.638,0,0,0,
,0.044,-0.857,0.528,8.911,199.524,22.827,0,0,0,
,0.186,-0.691,0.528,-145.203,365.905,-54.017,0,0,0,
,0.296,-0.616,0.492,-75.44,404.297,-25.147,0,0,0,
,0.444,-0.448,0.551,130.249,298.156,103.21,0,0,0,
,0.555,-0.449,0.664,495.91,13.61,190.063,0,0,0,
,0.513,-0.869,0.777,634.216,-188.111,131.958,0,0,0,
,0.437,-1.126,0.865,247.253,-104.432,36.438,0,0,0,
,0.486,-0.985,0.855,-361.512,119.873,-34.241,0,0,0,
,0.603,-0.716,0.902,-461.304,127.014,-112,0,0,0,
,0.618,-0.528,0.856,-174.378,-19.165,-106.141,0,0,0,
,0.502,-0.589,0.79,227.6,-156.25,-103.577,0,0,0,
,0.452,-0.592,0.563,303.65,-182.679,-48.218,0,0,0,
,0.412,-0.64,0.432,86.975,-96.131,-21.424,0,0,0,
,0.433,-0.735,0.462,-212.342,33.264,-14.161,0,0,0,
,0.516,-0.828,0.534,-331.055,68.359,-45.105,0,0,0,
,0.482,-0.835,0.548,-328.736,108.093,-73.06,0,0,0,
,0.488,-0.546,0.493,39.489,131.53,10.498,0,0,0,
,0.55,-0.598,0.495,516.845,-104.187,27.16,0,0,0,
,0.361,-0.881,0.514,229.431,-13.367,51.757,0,0,0,
,0.38,-0.717,0.502,50.415,78.796,22.094,0,0,0,
,0.515,-0.788,0.508,73.486,45.776,-33.143,0,0,0,
,0.516,-0.828,0.618,-186.28,53.161,-41.871,0,0,0,
,0.507,-0.702,0.488,-505.31,142.517,-60.303,0,0,0,
,0.504,-0.521,0.641,-604.981,191.467,-68.36,0,0,0,
,0.545,-0.464,0.707,-571.045,199.463,-67.81,0,0,0,
,0.548,-0.335,0.684,-372.376,140.747,-31.739,0,0,0,
,0.5,-0.439,0.699,-121.827,68.786,9.399,0,0,0,
,0.509,-0.634,0.729,-56.031,64.086,9.216,0,0,0,
,0.509,-0.787,0.683,-180.909,44.982,-5.494,0,0,0,
,0.421,-0.769,0.523,-355.713,117.126,-74.585,0,0,0,
,0.484,-0.536,0.503,-509.4,171.386,-81.055,0,0,0,
,0.508,-0.54,0.638,-497.437,179.87,-75.074,0,0,0,
,0.529,-0.473,0.675,-437.623,176.513,-71.9,0,0,0,
,0.518,-0.431,0.673,-359.498,158.264,-63.66,0,0,0,
,0.492,-0.469,0.676,-258.118,132.751,-43.335,0,0,0,
,0.544,-0.671,0.651,-223.511,121.948,-122.376,0,0,0,
,0.46,-0.752,0.627,-597.352,195.678,-150.757,0,0,0,
,0.498,-0.61,0.638,-895.02,287.658,-183.594,0,0,0,
,0.536,-0.433,0.67,-921.936,311.706,-210.083,0,0,0,
,0.542,-0.326,0.708,-738.343,251.403,-194.642,0,0,0,
,0.52,-0.397,0.701,-552.002,225.036,-160.279,0,0,0,
,0.499,-0.632,0.577,-620.118,235.656,-189.087,0,0,0,
,0.5,-0.738,0.654,-941.407,342.59,-231.202,0,0,0,
,0.551,-0.515,0.759,-1197.754,428.527,-251.099,0,0,0,
,0.525,-0.214,0.682,-1018.433,372.436,-254.578,0,0,0,
,0.533,-0.277,0.742,-805.787,285.827,-240.113,0,0,0,
,0.515,-0.26,0.713,-712.891,288.818,-200.257,0,0,0,
,0.575,-0.268,0.752,-593.018,268.921,-192.505,0,0,0,
,0.51,-0.37,0.686,-690.613,290.344,-219.971,0,0,0,
,0.572,-0.282,0.78,-781.25,297.119,-217.164,0,0,0,
,0.597,-0.187,0.738,-727.234,242.37,-216.858,0,0,0,
,0.546,-0.219,0.749,-735.291,220.581,-235.779,0,0,0,
,0.604,-0.185,0.754,-747.62,226.562,-231.934,0,0,0,
,0.634,-0.22,0.719,-909.729,264.892,-253.785,0,0,0,
,0.618,-0.146,0.677,-1153.443,339.904,-260.254,0,0,0,
,0.636,0.059,0.676,-1100.342,326.843,-201.6,0,0,0,
,0.616,0,0.685,-1019.593,291.076,-176.575,0,0,0,
,0.586,-0.046,0.769,-990.052,234.192,-121.46,0,0,0,
,0.555,-0.192,0.833,-1169.739,312.133,-151.612,0,0,0,
,0.624,-0.151,0.754,-623.658,135.803,-108.277,0,0,0,
,0.67,-0.318,0.752,-569.947,59.265,-26.612,0,0,0,
,0.703,-0.199,0.743,-506.104,55.053,17.089,0,0,0,
,0.85,-0.05,0.587,-180.603,-160.401,155.334,0,0,0,
,0.988,-0.141,0.527,437.317,-484.009,332.763,0,0,0,
,0.972,-0.257,0.552,1078.247,-727.295,468.078,0,0,0,
,0.98,-0.259,0.581,1554.504,-986.023,553.833,0,0,0,
,0.939,-0.259,0.623,1931.396,-1211.915,619.384,0,0,0,
,0.869,-0.374,0.59,1999.694,-1391.419,680.42,0,0,0,
,0.573,-0.46,0.491,1999.694,-1407.044,795.227,0,0,0,
,0.117,-0.548,0.428,1999.694,-1233.277,809.265,0,0,0,
,-0.138,-0.59,0.528,1999.694,-926.941,823.364,0,0,0,
,-0.287,-0.191,0.627,1921.02,-600.892,924.987,0,0,0,
,-0.239,-0.119,0.557,1999.694,-419.678,947.692,0,0,0,
,-0.003,-0.571,0.63,1999.694,-362.305,889.831,0,0,0,
,0.066,-0.86,0.692,1999.694,-201.783,875.366,0,0,0,
,0.153,-0.823,0.731,1999.694,19.714,826.416,0,0,0,
,0.143,-0.764,0.567,1999.694,135.803,756.897,0,0,0,
,0.282,-0.783,0.536,1999.694,101.135,756.347,0,0,0,
,0.496,-1.051,0.326,1999.694,-76.539,724.243,0,0,0,
,0.622,-1.419,0.078,1999.694,-168.824,660.888,0,0,0,
,0.642,-1.603,0.107,1996.032,-59.205,596.435,0,0,0,
,0.714,-1.506,0.282,1079.345,83.129,461.486,0,0,0,
,0.726,-1.233,0.319,899.109,69.091,208.679,0,0,0,
,0.66,-0.944,0.33,1011.108,61.157,104.736,0,0,0,
,0.683,-0.604,0.146,1206.543,-11.841,175.476,0,0,0,
,0.635,-0.723,0.161,1286.987,-150.33,285.156,0,0,0,
,0.579,-1.23,0.102,746.399,-199.952,251.648,0,0,0,
,0.433,-1.192,-0.007,48.828,82.946,283.142,0,0,0,
,0.559,-0.779,-0.011,170.288,108.032,181.213,0,0,0,
,0.692,-0.69,0.024,697.754,-39.185,95.825,0,0,0,
,0.626,-0.659,-0.095,1022.949,-161.316,93.689,0,0,0,
,0.531,-0.676,-0.109,1169.616,-242.92,132.385,0,0,0,
,0.488,-0.801,-0.124,1037.597,-228.882,122.131,0,0,0,
,0.529,-0.872,-0.14,732.055,-163.453,87.036,0,0,0,
,0.604,-0.791,0.056,291.442,-89.478,94.116,0,0,0,
,0.713,-0.538,0.027,164.917,-64.637,92.712,0,0,0,
,0.747,-0.709,-0.094,402.404,-168.457,35.522,0,0,0,
,0.713,-0.893,-0.191,262.573,-149.903,37.292,0,0,0,
,0.661,-0.895,-0.247,-141.175,-53.65,76.355,0,0,0,
,0.605,-0.813,-0.157,-393.677,10.986,84.411,0,0,0,
,0.615,-0.759,-0.112,-371.644,-21.424,80.2,0,0,0,
,0.584,-0.929,-0.132,-445.13,-27.955,69.885,0,0,0,
,0.529,-1.068,-0.058,-874.451,58.898,63.476,0,0,0,
,0.545,-1.031,-0.095,-1261.597,157.287,51.086,0,0,0,
,0.667,-0.809,0.124,-1621.216,212.219,32.775,0,0,0,
,0.768,-0.556,0.217,-1601.258,169.25,22.094,0,0,0,
,0.668,-0.508,0.063,-1208.558,60.669,28.503,0,0,0,
,0.558,-0.702,-0.047,-942.566,68.298,0.488,0,0,0,
,0.579,-1.201,0.015,-1306.458,179.382,-69.153,0,0,0,
,0.597,-0.923,-0.094,-1772.461,346.191,-36.499,0,0,0,
,0.705,-0.487,0.154,-1475.281,208.557,-71.228,0,0,0,
,0.736,-0.265,0.075,-963.257,76.904,-31.8,0,0,0,
,0.669,-0.226,0.068,-252.93,-20.02,28.015,0,0,0,
,0.627,-0.693,0.054,56.213,-63.538,4.943,0,0,0,
,0.549,-1.018,0.054,-455.75,58.105,-37.598,0,0,0,
,0.663,-0.658,0.138,-615.845,113.952,-18.311,0,0,0,
,0.708,-0.756,0.182,-432.373,82.641,-74.707,0,0,0,
,0.699,-0.935,0.18,-535.645,89.477,-72.632,0,0,0,
,0.674,-0.906,0.023,-677.369,156.311,-56.58,0,0,0,
,0.679,-1.011,0.148,-836.914,224.548,-129.151,0,0,0,
,0.724,-0.591,0.211,-974.671,211.486,-90.271,0,0,0,
,0.682,-0.356,0.24,-747.132,166.809,-77.21,0,0,0,
,0.648,-0.657,0.339,-424.195,133.789,-91.797,0,0,0,
,0.608,-0.898,0.374,-633.667,207.397,-114.014,0,0,0,
,0.629,-0.789,0.495,-985.291,262.573,-141.114,0,0,0,
,0.667,-0.621,0.436,-1092.896,249.755,-137.879,0,0,0,
,0.663,-0.483,0.364,-892.701,222.107,-105.652,0,0,0,
,0.663,-0.655,0.353,-807.618,216.491,-155.945,0,0,0,
,0.695,-0.628,0.327,-924.622,247.741,-185.181,0,0,0,
,0.671,-0.614,0.464,-1074.463,298.034,-186.402,0,0,0,
,0.695,-0.519,0.537,-996.399,279.785,-201.905,0,0,0,
,0.667,-0.566,0.511,-970.215,242.248,-216.126,0,0,0,
,0.619,-0.688,0.407,-1102.967,297.729,-231.141,0,0,0,
,0.647,-0.85,0.461,-1338.501,403.32,-353.089,0,0,0,
,0.909,-0.742,0.524,-1821.534,378.54,-419.8,0,0,0,
,0.806,-0.284,0.287,-988.099,43.701,-355.469,0,0,0,
,0.896,-0.302,0.281,-650.94,-95.398,-302.308,0,0,0,
,1.014,-0.398,0.228,-415.711,-290.039,-295.227,0,0,0,
,1.024,-0.475,0.225,-313.599,-483.948,-314.82,0,0,0,
,1.008,-0.675,0.311,-524.598,-687.195,-330.567,0,0,0,
,0.886,-0.518,0.294,-753.602,-658.57,-266.053,0,0,0,
,0.873,-0.496,0.336,-785.34,-703.553,-334.656,0,0,0,
,0.722,-0.427,0.486,-686.768,-695.984,-340.577,0,0,0,
,0.623,-0.2,0.713,-558.533,-647.4,-268.372,0,0,0,
,0.5,-0.068,0.536,523.925,-895.813,145.691,0,0,0,
,0.128,-0.409,0.424,1033.02,-917.664,204.406,0,0,0,
,-0.296,-0.715,0.766,932.006,-693.543,106.933,0,0,0,
,-0.373,-0.711,1.065,256.286,-177.491,10.498,0,0,0,
,0.071,-0.416,1.287,-203.248,90.82,-47.242,0,0,0,
,0.306,-0.083,1.106,-104.554,100.708,29.663,0,0,0,
,0.262,-0.022,0.79,507.751,-127.198,72.387,0,0,0,
,0.135,-0.547,0.976,630.92,-187.5,81.787,0,0,0,
,0.145,-0.46,1.381,22.155,61.34,89.111,0,0,0,
,0.287,-0.267,1.218,-370.85,182.129,59.204,0,0,0,
,0.358,-0.296,1.093,-438.599,164.184,-4.151,0,0,0,
,0.48,-0.199,0.935,-43.58,73.181,64.209,0,0,0,
,0.475,-0.588,0.968,-170.716,35.156,2.075,0,0,0,
,0.341,-0.546,0.89,-723.633,277.099,-97.779,0,0,0,
,0.364,-0.268,0.868,-681.58,340.881,-113.404,0,0,0,
,0.39,-0.29,0.988,-794.434,272.094,-175.843,0,0,0,
,0.235,-0.138,0.965,-1170.472,454.406,-239.197,0,0,0,
,0.393,-0.013,0.847,-813.965,380.249,-228.821,0,0,0,
,0.37,-0.245,0.958,-838.807,346.374,-222.413,0,0,0,
,0.303,-0.261,0.958,-1061.097,512.756,-249.329,0,0,0,
,0.497,-0.382,0.82,-832.398,440.246,-297.364,0,0,0,
,0.371,-0.444,0.921,-1247.437,566.04,-366.211,0,0,0,
,0.452,-0.136,0.963,-1504.212,676.635,-382.935,0,0,0,
,0.6,-0.155,0.807,-1137.269,505.249,-345.093,0,0,0,
,0.52,-0.337,0.814,-1160.34,455.871,-315.735,0,0,0,
,0.558,-0.233,0.722,-1216.248,464.66,-266.541,0,0,0,
,0.657,-0.217,0.539,-933.533,374.878,-204.163,0,0,0,
,1.166,-0.079,0.125,424.743,-175.782,299.316,0,0,0,
,0.968,-0.101,0.146,1159.729,-361.512,497.558,0,0,0,
,1.061,-0.266,0.232,1925.903,-534.363,601.745,0,0,0,
,1.11,-0.467,0.399,1999.694,-778.748,623.901,0,0,0,
,0.934,-0.583,0.404,1999.694,-977.784,614.502,0,0,0,
,0.656,-0.641,0.352,1999.694,-1095.032,547.912,0,0,0,
,0.299,-0.485,0.301,1999.694,-1111.451,464.172,0,0,0,
,0.071,-0.932,0.12,1999.694,-1188.66,305.359,0,0,0,
,-0.205,-1.572,0.117,1999.694,-1094.727,92.895,0,0,0,
,-0.5,-1.584,0.596,1999.694,-634.583,339.904,0,0,0,
,-0.397,-1.064,1,1999.694,-95.337,382.69,0,0,0,
,-0.013,-1.037,1.02,1797.241,-11.353,171.02,0,0,0,
,0.384,-0.928,0.305,-472.779,532.653,67.871,0,0,0,
,0.641,-1.037,0.658,-418.763,279.174,84.655,0,0,0,
,0.554,-0.777,0.744,-278.26,128.479,82.58,0,0,0,
,0.444,-0.615,0.651,43.945,19.47,32.714,0,0,0,
,0.467,-0.512,0.688,94.543,25.024,127.38,0,0,0,
,0.891,-0.803,0.538,-843.323,198.913,-10.437,0,0,0,
,0.771,-0.303,0.502,-569.703,89.538,-12.513,0,0,0,
,0.456,-0.749,0.376,-536.011,149.902,-104.004,0,0,0,
,0.484,-0.361,0.587,-619.446,233.459,-34.058,0,0,0,
,0.417,-0.557,0.645,-884.888,244.262,-20.386,0,0,0,
,0.443,-0.743,0.642,-821.228,181.274,-102.173,0,0,0,
,0.488,-0.731,0.772,-791.138,194.458,-113.587,0,0,0,
,0.409,-0.859,0.672,-930.237,257.934,-186.341,0,0,0,
,0.469,-0.693,0.751,-1011.658,317.26,-153.992,0,0,0,
,0.524,-0.651,0.598,-749.085,194.763,-151.062,0,0,0,
,0.385,-0.762,0.633,-671.448,171.081,-141.541,0,0,0,
,0.379,-0.667,0.644,-695.801,204.895,-135.254,0,0,0,
,0.454,-0.707,0.68,-665.162,212.097,-155.518,0,0,0,
,0.49,-0.565,0.635,-740.479,265.564,-176.331,0,0,0,
,0.527,-0.411,0.627,-921.875,289.428,-146.912,0,0,0,
,0.564,-0.341,0.631,-891.48,272.338,-125.123,0,0,0,
,0.522,-0.341,0.545,-703.736,240.478,-109.07,0,0,0,
,0.44,-0.55,0.642,-603.76,230.041,-118.47,0,0,0,
,0.452,-0.65,0.746,-737,299.255,-125.367,0,0,0,
,0.498,-0.599,0.778,-871.094,323.852,-126.221,0,0,0,
,0.488,-0.531,0.709,-831.482,289.123,-139.893,0,0,0,
,0.446,-0.467,0.702,-769.41,276.611,-145.203,0,0,0,
,0.467,-0.306,0.668,-618.653,286.377,-113.038,0,0,0,
,0.542,-0.358,0.647,-369.935,174.743,-97.901,0,0,0,
,0.523,-0.53,0.648,-244.141,141.601,-102.784,0,0,0,
,0.565,-0.596,0.644,-339.783,128.54,-69.214,0,0,0,
,0.584,-0.539,0.64,-418.824,146.057,-55.054,0,0,0,
,0.679,-0.475,0.645,-292.115,71.838,-9.4,0,0,0,
,0.77,-0.474,0.653,-137.94,15.747,-8.362,0,0,0,
,0.759,-0.537,0.666,-33.448,-47.608,-3.785,0,0,0,
,0.875,-0.426,0.602,37.048,-139.039,37.658,0,0,0,
,0.913,-0.323,0.596,383.117,-349.366,62.866,0,0,0,
,0.887,-0.412,0.4,726.379,-504.029,78.43,0,0,0,
,0.675,-0.437,0.656,860.473,-528.382,29.357,0,0,0,
,0.693,-0.549,0.744,821.289,-510.682,-72.998,0,0,0,
,0.69,-0.696,0.664,653.625,-506.531,-98.633,0,0,0,
,0.599,-0.436,0.554,654.235,-567.017,-23.621,0,0,0,
,0.493,-0.288,0.563,969.543,-707.581,81.604,0,0,0,
,0.171,-0.436,0.407,1306.823,-763.062,104.858,0,0,0,
,-0.022,-0.772,0.405,1424.56,-745.545,153.564,0,0,0,
,-0.141,-0.896,0.507,1281.677,-598.145,149.414,0,0,0,
,-0.178,-0.79,0.718,1066.955,-372.315,183.532,0,0,0,
,-0.011,-0.48,1.129,923.156,-243.042,328.369,0,0,0,
,0.245,-0.497,1.038,944.152,-329.102,309.509,0,0,0,
,0.125,-0.956,0.715,1003.845,-320.13,123.169,0,0,0,
,0.034,-1.116,0.565,716.735,-42.298,77.575,0,0,0,
,0.289,-0.982,0.53,204.162,224.67,27.282,0,0,0,
,0.457,-0.771,0.462,-9.339,331.421,-38.025,0,0,0,
,0.52,-0.702,0.473,158.935,264.038,-83.435,0,0,0,
,0.575,-0.724,0.773,224.121,95.825,-74.707,0,0,0,
,0.54,-0.534,0.792,90.82,60.913,-50.965,0,0,0,
,0.413,-0.654,0.737,111.267,-22.644,-116.456,0,0,0,
,0.461,-0.559,0.702,-16.297,87.097,-72.205,0,0,0,
,0.584,-0.712,0.757,101.684,39.306,-173.34,0,0,0,
,0.511,-0.773,0.751,90.515,1.464,-166.199,0,0,0,
,0.474,-0.614,0.651,-35.523,29.357,-115.784,0,0,0,
,0.407,-0.722,0.514,73.73,-44.007,-155.701,0,0,0,
,0.326,-1.092,0.585,-179.017,-28.382,-169.556,0,0,0,
,0.463,-0.506,0.544,-630.738,246.032,0.61,0,0,0,
,0.385,-0.311,0.479,-79.529,78.857,-82.642,0,0,0,
,0.385,-0.727,0.566,109.68,54.931,-65.979,0,0,0,
,0.474,-0.725,0.546,-45.594,65.368,-12.024,0,0,0,
,0.456,-0.752,0.496,-106.69,47.424,-6.836,0,0,0,
,0.36,-0.767,0.538,-111.817,12.695,23.925,0,0,0,
,0.314,-0.697,0.532,-64.881,24.902,55.725,0,0,0,
,0.271,-0.845,0.543,1.648,34.24,56.64,0,0,0,
,0.436,-0.659,0.594,94.787,50.476,73.791,0,0,0,
,0.385,-0.671,0.414,279.174,15.686,26.916,0,0,0,
,0.472,-0.797,0.456,120.91,61.401,4.394,0,0,0,
,0.517,-0.792,0.488,-229.493,182.983,-22.034,0,0,0,
,0.468,-0.702,0.503,-389.222,241.943,-70.313,0,0,0,
,0.526,-0.643,0.498,-620.118,272.888,-95.704,0,0,0,
,0.575,-0.38,0.727,-739.014,328.369,-6.775,0,0,0,
,0.449,-0.541,0.724,-366.7,165.039,-99.671,0,0,0,
,0.451,-0.813,0.675,-432.435,165.527,-122.62,0,0,0,
,0.525,-0.501,0.656,-824.28,281.555,-56.641,0,0,0,
,0.417,-0.57,0.522,-1056.214,416.687,-45.472,0,0,0,
,0.552,-0.44,0.785,-940.003,370.117,-60.608,0,0,0,
,0.531,-0.306,0.938,-782.471,291.015,21.24,0,0,0,
,0.411,-0.414,0.92,-789.551,295.837,55.236,0,0,0,
,0.464,-0.471,1.001,-671.753,264.526,42.663,0,0,0,
,0.474,-0.651,0.835,-648.438,178.588,-56.458,0,0,0,
,0.386,-0.665,0.73,-945.13,286.316,-90.394,0,0,0,
,0.404,-0.171,0.642,-1120.24,378.357,-34.974,0,0,0,
,0.497,-0.354,0.892,-938.294,361.084,-91.797,0,0,0,
,0.497,-0.524,0.707,-798.096,328.552,-94.056,0,0,0,
,0.534,-0.354,0.713,-1070.13,442.443,-126.343,0,0,0,
,0.546,-0.55,0.613,-1175.843,399.17,-228.943,0,0,0,
,0.551,0.197,0.698,-1130.616,508.178,-59.998,0,0,0,
,0.641,0.12,0.806,-808.289,343.444,-38.941,0,0,0,
,0.457,-0.406,1.082,-618.653,315.918,-55.42,0,0,0,
,0.623,-0.079,0.841,-479.248,266.479,-14.405,0,0,0,
,0.47,-0.445,0.762,-388.611,170.044,-45.716,0,0,0,
,0.504,-0.194,0.647,-696.9,302.978,-45.227,0,0,0,
,0.606,-0.179,0.832,-842.469,403.076,-72.998,0,0,0,
,0.821,-0.233,0.644,-603.76,243.347,-43.335,0,0,0,
,0.532,-0.721,0.656,-647.217,208.374,-120.24,0,0,0,
,0.602,0.222,0.647,-590.516,361.755,11.108,0,0,0,
,0.849,-0.134,0.81,-267.823,155.517,56.518,0,0,0,
,1.04,-0.223,0.806,-2.076,-0.794,139.343,0,0,0,
,0.878,-0.068,0.667,172.424,-144.654,199.035,0,0,0,
,0.978,-0.091,0.54,639.709,-350.769,251.587,0,0,0,
,0.785,-0.239,0.486,814.27,-426.514,189.27,0,0,0,
,0.831,-0.146,0.737,1073.181,-456.238,109.069,0,0,0,
,0.901,-0.159,0.807,1514.648,-622.681,63.781,0,0,0,
,0.784,-0.387,0.763,1919.067,-816.956,13.244,0,0,0,
,0.594,-0.389,0.793,1974.304,-865.54,-18.128,0,0,0,
,0.505,-0.324,0.691,1959.35,-933.533,22.094,0,0,0,
,0.343,-0.594,0.546,1940.551,-1025.452,35.034,0,0,0,
,0.056,-0.796,0.458,1777.282,-906.311,35.583,0,0,0,
,-0.206,-0.5,0.627,1520.324,-541.382,110.046,0,0,0,
,-0.071,-0.13,0.999,1365.356,-320.74,246.948,0,0,0,
,0.179,-0.478,1.029,1135.07,-279.175,123.474,0,0,0,
,0.072,-1.139,0.706,622.741,-126.099,-80.262,0,0,0,
,-0.012,-1.016,0.685,-50.538,255.92,-7.203,0,0,0,
,0.256,-0.589,0.527,-336.06,454.773,19.592,0,0,0,
,0.43,-0.393,0.478,-68.116,338.012,56.823,0,0,0,
,0.534,-0.492,0.777,588.073,46.752,113.281,0,0,0,
,0.468,-0.634,0.58,1061.218,-70.13,25.146,0,0,0,
,0.545,-0.777,0.554,985.107,-78.431,20.996,0,0,0,
,0.529,-0.829,0.589,566.345,-19.898,33.813,0,0,0,
,0.562,-0.805,0.74,260.437,-18.433,-10.193,0,0,0,
,0.473,-0.522,0.518,400.207,-93.384,-57.251,0,0,0,
,0.478,-0.588,0.543,325.561,-5.494,-34.913,0,0,0,
,0.491,-0.737,0.561,186.34,5.31,-46.631,0,0,0,
,0.513,-0.887,0.626,-149.109,51.574,-66.102,0,0,0,
,0.515,-0.49,0.55,-164.063,38.818,-3.846,0,0,0,
,0.44,-0.577,0.542,82.214,-40.101,-20.081,0,0,0,
,0.46,-0.691,0.614,26.367,-20.508,-18.921,0,0,0,
,0.493,-0.763,0.601,-147.95,17.883,-42.664,0,0,0,
,0.459,-0.849,0.538,-505.982,95.336,-61.158,0,0,0,
,0.503,-0.597,0.488,-478.882,147.522,-77.515,0,0,0,
,0.508,-0.705,0.562,-516.663,161.804,-94.422,0,0,0,
,0.552,-0.637,0.592,-732.056,239.257,-128.602,0,0,0,
,0.586,-0.537,0.63,-883.423,289.184,-137.94,0,0,0,
,0.56,-0.565,0.65,-962.647,285.522,-173.951,0,0,0,
,0.54,-0.261,0.655,-947.815,309.448,-98.999,0,0,0,
,0.506,-0.254,0.696,-691.773,226.989,-59.51,0,0,0,
,0.506,-0.37,0.774,-605.469,195.129,-21.058,0,0,0,
,0.512,-0.419,0.744,-624.024,185.119,-13.428,0,0,0,
,0.51,-0.424,0.72,-728.089,221.679,5.065,0,0,0,
,0.537,-0.464,0.73,-754.7,228.637,2.258,0,0,0,
,0.488,-0.314,0.77,-670.899,223.51,25.207,0,0,0,
,0.45,-0.388,0.612,-612.117,520.936,10800.212,0,0,0,
,0.499,-0.48,0.794,-447.083,160.644,40.832,0,0,0,
,0.491,-0.52,0.801,-370.057,117.981,30.883,0,0,0,
,0.491,-0.503,0.79,-372.132,106.75,17.273,0,0,0,
,0.522,-0.433,0.794,-381.043,113.769,2.929,0,0,0,
,0.553,-0.409,0.786,-289.002,89.233,-12.024,0,0,0,
,0.562,-0.413,0.822,-218.567,57.251,-31.495,0,0,0,
,0.558,-0.445,0.776,-185.73,41.442,-47.12,0,0,0,
,0.529,-0.47,0.77,-191.468,40.039,-46.082,0,0,0,
,0.557,-0.396,0.801,-188.111,56.152,-42.359,0,0,0,
,0.572,-0.342,0.818,-98.267,11.535,-36.194,0,0,0,
,0.604,-0.346,0.891,10.559,-55.664,-26.795,0,0,0,
,0.599,-0.232,0.847,164.367,-127.747,-91.37,0,0,0,
,0.614,-0.234,0.792,154.907,-105.835,-154.053,0,0,0,
,0.642,-0.403,0.729,-68.787,-105.225,-180.359,0,0,0,
,0.53,-0.338,0.803,-325.989,-3.479,-154.908,0,0,0,
,0.5,-0.115,0.713,-267.151,32.409,-101.075,0,0,0,
,0.422,-0.008,0.631,-92.591,-46.57,-21.546,0,0,0,
,0.303,-0.319,0.682,-175.721,-31.067,19.897,0,0,0,
,0.314,-0.507,0.729,-577.393,109.069,50.109,0,0,0,
,0.336,-0.585,0.754,-1012.513,334.167,-61.707,0,0,0,
,0.568,-0.055,0.63,-1103.577,347.412,85.876,0,0,0,
,0.516,-0.415,0.923,-975.098,298.034,-100.098,0,0,0,
,0.554,-0.244,0.596,-903.809,251.953,-22.583,0,0,0,
,0.585,-0.131,0.626,-1078.248,357.727,-60.059,0,0,0,
,0.726,0.117,0.664,-1004.944,369.567,-25.452,0,0,0,
,0.854,0.155,0.793,-651.246,236.755,54.016,0,0,0,
,0.863,0.093,0.781,-278.321,126.587,82.397,0,0,0,
,0.745,-0.246,0.652,847.656,-236.268,176.208,0,0,0,
,0.796,-0.081,0.745,1048.339,-301.758,163.94,0,0,0,
,0.891,-0.117,0.749,1629.394,-583.008,168.945,0,0,0,
,0.771,-0.067,0.689,1999.694,-838.99,227.478,0,0,0,
,0.663,-0.21,0.66,1999.694,-1046.814,251.281,0,0,0,
,0.474,-0.705,0.649,1999.694,-1317.139,150.695,0,0,0,
,0.131,-0.898,0.589,1999.694,-1139.649,96.008,0,0,0,
,-0.114,-0.744,0.629,1653.991,-775.94,173.523,0,0,0,
,-0.187,-0.691,0.74,908.386,-443.909,181.518,0,0,0,
,-0.175,-0.677,0.683,539.123,-132.386,70.678,0,0,0,
,-0.106,-0.568,0.709,472.656,66.467,82.214,0,0,0,
,0.072,-0.426,0.661,633.85,154.297,187.988,0,0,0,
,0.239,-0.41,0.416,876.159,166.992,265.869,0,0,0,
,0.37,-0.506,0.403,924.377,144.592,305.908,0,0,0,
,0.434,-0.682,0.645,937.011,136.291,280.578,0,0,0,
,0.504,-0.878,0.826,844.36,95.52,170.166,0,0,0,
,0.574,-1.084,0.78,557.678,72.143,106.018,0,0,0,
,0.731,-0.891,0.913,-11.841,176.513,107.666,0,0,0,
,0.744,-0.523,0.689,-41.871,205.322,84.35,0,0,0,
,0.739,-0.545,0.827,336.792,46.936,-43.152,0,0,0,
,0.608,-0.611,0.81,571.899,-91.309,-40.223,0,0,0,
,0.505,-0.721,0.743,292.48,-49.988,-45.289,0,0,0,
,0.479,-0.648,0.637,89.111,-1.343,-44.068,0,0,0,
,0.451,-0.668,0.597,29.296,40.649,-46.631,0,0,0,
,0.458,-0.558,0.514,41.381,75.988,-14.161,0,0,0,
,0.422,-0.498,0.533,178.527,-2.198,43.029,0,0,0,
,0.438,-0.602,0.484,336.303,-40.65,67.321,0,0,0,
,0.461,-0.908,0.508,230.102,-14.527,16.052,0,0,0,
,0.5,-0.95,0.537,-141.053,96.557,-65.125,0,0,0,
,0.562,-0.86,0.603,-480.652,181.823,-159.913,0,0,0,
,0.557,-0.574,0.54,-596.375,204.406,-199.341,0,0,0,
,0.507,-0.576,0.569,-531.8,173.339,-213.074,0,0,0,
,0.513,-0.495,0.597,-504.395,218.689,-182.557,0,0,0,
,0.505,-0.548,0.622,-542.42,245.788,-216.614,0,0,0,
,0.484,-0.67,0.69,-691.346,310.547,-249.573,0,0,0,
,0.522,-0.387,0.706,-744.568,353.393,-204.712,0,0,0,
,0.535,-0.596,0.646,-689.331,316.162,-254.273,0,0,0,
,0.516,-0.572,0.613,-757.996,355.102,-181.763,0,0,0,
,0.576,-0.819,0.498,-855.835,336.486,-227.173,0,0,0,
,0.547,-0.543,0.55,-935.608,388.366,-173.34,0,0,0,
,0.425,-0.844,0.53,-858.704,314.514,-285.523,0,0,0,
,0.462,-0.648,0.697,-1295.105,452.575,-224.488,0,0,0,
,0.5,-0.324,0.721,-1047.486,378.662,-243.164,0,0,0,
,0.539,-0.275,0.794,-527.344,184.753,-170.96,0,0,0,
,0.498,-0.276,0.59,-234.314,57.739,-77.027,0,0,0,
,0.443,-0.574,0.462,3.723,12.573,-60.486,0,0,0,
,0.501,-0.869,0.665,-221.497,110.962,-76.661,0,0,0,
,0.558,-0.691,0.855,-646.058,212.097,-105.713,0,0,0,
,0.508,-0.411,0.786,-828.064,230.529,-153.077,0,0,0,
,0.47,-0.333,0.788,-691.468,200.439,-154.664,0,0,0,
,0.514,-0.175,0.816,-425.477,167.358,-81.788,0,0,0,
,0.536,-0.339,0.822,-162.171,65.979,-42.176,0,0,0,
,0.519,-0.509,0.741,-282.105,35.339,-4.639,0,0,0,
,0.531,-0.745,0.66,-721.619,93.261,-75.318,0,0,0,
,0.565,-0.546,0.643,-1316.895,262.207,-143.494,0,0,0,
,0.608,-0.27,0.752,-1647.339,399.047,-202.21,0,0,0,
,0.672,0.282,0.792,-1429.566,376.953,-133.728,0,0,0,
,0.658,0.222,0.777,-889.344,181.03,-90.271,0,0,0,
,0.576,-0.052,0.731,-572.876,52.002,-34.668,0,0,0,
,0.548,-0.258,0.578,-805.42,111.267,-53.04,0,0,0,
,0.537,-0.32,0.71,-1304.322,326.843,-115.906,0,0,0,
,0.652,0.11,0.789,-1356.019,415.1,-85.144,0,0,0,
,0.662,0.152,0.899,-1090.027,245.117,-85.328,0,0,0,
,0.565,-0.257,0.69,-1057.374,169.983,-121.949,0,0,0,
,0.541,-0.151,0.649,-1278.931,243.774,-79.529,0,0,0,
,0.409,0.152,0.738,-1525.818,486.938,-155.762,0,0,0,
,0.842,0.173,0.716,-964.844,257.08,3.662,0,0,0,
,0.516,0.081,0.704,-695.13,237.793,-18.006,0,0,0,
,0.677,0.005,0.701,-436.463,170.532,101.135,0,0,0,
,0.778,0.078,0.744,-170.533,108.581,125.244,0,0,0,
,0.843,0.132,0.737,276.672,-71.289,195.007,0,0,0,
,0.819,0.024,0.739,781.372,-274.353,232.971,0,0,0,
,0.783,-0.009,0.757,1074.707,-385.437,230.041,0,0,0,
,0.796,-0.079,0.734,1338.134,-467.225,206.054,0,0,0,
,0.754,-0.065,0.766,1670.959,-540.833,194.091,0,0,0,
,0.789,-0.074,0.785,1992.248,-712.159,204.04,0,0,0,
,0.777,-0.07,0.813,1999.694,-943.116,273.254,0,0,0,
,0.591,-0.173,0.781,1999.694,-1096.314,308.166,0,0,0,
,0.381,-0.458,0.614,1999.694,-1171.387,309.936,0,0,0,
,0.005,-0.508,0.404,1929.443,-906.678,308.471,0,0,0,
,-0.232,-0.261,0.556,1457.824,-459.107,453.796,0,0,0,
,0.127,-0.371,0.783,1950.134,-26.917,309.021,0,0,0,
,0.23,-0.448,0.878,1999.694,47.607,394.958,0,0,0,
,0.374,-0.426,0.659,1999.694,-6.409,416.076,0,0,0,
,0.447,-0.678,0.245,1999.694,-36.744,448.303,0,0,0,
,0.506,-1.186,0.355,1999.694,-158.265,401.123,0,0,0,
,0.693,-1.534,0.893,792.663,-7.142,308.471,0,0,0,
,0.562,-0.897,0.919,-160.523,259.948,354.797,0,0,0,
,0.694,-0.326,0.709,449.463,127.014,197.937,0,0,0,
,0.726,-0.755,0.649,1182.983,-197.571,98.693,0,0,0,
,0.671,-1.12,0.443,481.201,-64.637,106.811,0,0,0,
,0.699,-0.828,0.63,168.151,-10.254,126.403,0,0,0,
,0.606,-1.003,0.446,158.142,-116.333,-48.462,0,0,0,
,0.513,-0.764,0.392,-106.751,-11.902,-29.908,0,0,0,
,0.452,-0.55,0.493,-88.379,33.813,1.22,0,0,0,
,0.378,-0.427,0.518,235.901,-55.909,84.472,0,0,0,
,0.441,-0.515,0.437,330.505,-141.846,197.57,0,0,0,
,0.6,-0.749,0.325,231.14,-197.571,225.402,0,0,0,
,0.519,-0.887,0.161,-119.873,-135.56,228.637,0,0,0,
,0.511,-0.77,0.545,-1171.021,226.318,159.912,0,0,0,
,0.542,-0.218,0.576,-787.11,243.957,217.041,0,0,0,
,0.51,-0.199,0.442,166.259,10.742,256.591,0,0,0,
,0.539,-0.583,0.367,597.717,-63.111,287.414,0,0,0,
,0.48,-0.802,0.458,614.318,20.813,286.01,0,0,0,
,0.503,-0.837,0.502,595.825,105.346,188.415,0,0,0,
,0.544,-0.795,0.472,880.493,71.228,113.769,0,0,0,
,0.494,-0.803,0.584,1191.65,-21.18,75.683,0,0,0,
,0.546,-0.699,0.447,1194.091,14.404,94.909,0,0,0,
,0.656,-0.752,0.561,1295.288,-93.262,46.814,0,0,0,
,0.592,-1.157,0.251,906.86,-87.83,-15.198,0,0,0,
,0.581,-1.173,0.269,128.906,78.186,-77.942,0,0,0,
,0.617,-0.742,0.352,-307.068,152.954,-86.548,0,0,0,
,0.555,-0.73,0.382,-435.181,97.229,-112.915,0,0,0,
,0.663,-0.336,0.493,-632.874,163.391,2.258,0,0,0,
,0.594,-0.588,0.468,-127.991,-13.428,-57.19,0,0,0,
,0.659,-1.009,0.44,-428.04,77.453,-101.868,0,0,0,
,0.618,-0.861,0.337,-1042.115,223.205,-159.913,0,0,0,
,0.723,-0.7,0.587,-1426.209,276.733,-262.085,0,0,0,
,0.582,-0.55,0.317,-1527.833,305.847,-298.523,0,0,0,
,0.559,-0.42,0.357,-1608.765,354.004,-254.09,0,0,0,
,0.611,-0.265,0.526,-1375.855,312.927,-160.401,0,0,0,
,0.573,-0.787,0.462,-1147.706,222.473,-218.689,0,0,0,
,0.588,-0.729,0.582,-1121.827,238.464,-136.536,0,0,0,
,0.567,-0.964,0.518,-1433.228,243.225,-271.973,0,0,0,
,0.566,-0.606,0.601,-1886.292,400.573,-288.88,0,0,0,
,0.637,-0.31,0.499,-1876.709,344.726,-275.025,0,0,0,
,0.607,-0.415,0.52,-1939.759,294.006,-286.866,0,0,0,
,0.567,-0.399,0.464,-2000,362.915,-264.893,0,0,0,
,0.586,-0.238,0.431,-1999.634,370.239,-203.675,0,0,0,
,0.594,-0.207,0.743,-1896.607,385.07,-253.602,0,0,0,
,0.764,-0.308,0.788,-1754.151,215.271,-290.406,0,0,0,
,0.612,-0.097,0.847,-1950.806,398.803,-273.316,0,0,0,
,0.719,0.134,0.698,-1626.099,247.497,-317.994,0,0,0,
,0.609,-0.128,0.565,-1671.57,193.359,-302.308,0,0,0,
,0.54,0.018,0.72,-1845.521,424.987,-266.419,0,0,0,
,0.702,-0.037,0.667,-1578.309,367.309,-281.006,0,0,0,
,0.677,0.003,0.607,-1653.626,373.169,-285.645,0,0,0,
,0.595,0.171,0.587,-1690.003,450.805,-235.047,0,0,0,
,0.736,0.265,0.52,-1166.443,310.18,-163.819,0,0,0,
,0.669,0.307,0.543,-960.389,332.092,-125.489,0,0,0,
,0.787,0.259,0.525,-610.901,226.44,-38.147,0,0,0,
,0.839,0.057,0.56,-244.019,114.257,25.756,0,0,0,
,0.857,0.24,0.681,137.634,75.378,105.041,0,0,0,
,0.878,0.135,0.597,1340.088,-311.036,295.898,0,0,0,
,0.904,0.112,0.532,1845.214,-471.924,378.845,0,0,0,
,0.88,-0.173,0.617,1999.694,-700.562,375.366,0,0,0,
,0.789,-0.042,0.683,1999.694,-750.245,375.671,0,0,0,
,0.891,-0.17,0.699,1999.694,-999.39,312.011,0,0,0,
,0.786,-0.429,0.735,1999.694,-1195.557,301.025,0,0,0,
,0.517,-0.589,0.728,1999.694,-1190.674,292.968,0,0,0,
,0.353,-0.062,1.062,1581.359,-862.854,579.04,0,0,0,
,0.344,-0.238,0.644,1738.22,-806.824,403.381,0,0,0,
,0.123,-0.476,0.357,1999.694,-668.702,305.053,0,0,0,
,0.012,-0.348,0.306,1999.694,-351.99,315.918,0,0,0,
,0.125,-0.556,0.306,1999.694,-194.519,226.989,0,0,0,
,0.204,-1.032,0.411,1998.779,-158.875,185.669,0,0,0,
,0.171,-1.218,0.611,1385.62,-63.355,220.642,0,0,0,
,0.222,-1.23,0.59,683.166,27.221,191.955,0,0,0,
,0.267,-1.052,0.525,74.768,158.081,193.481,0,0,0,
,0.375,-0.779,0.571,-188.66,284.484,147.583,0,0,0,
,0.503,-0.636,0.681,-63.965,340.698,116.272,0,0,0,
,0.679,-0.666,0.636,156.616,274.414,92.224,0,0,0,
,0.676,-0.681,0.617,87.707,244.629,121.093,0,0,0,
,0.677,-0.677,0.634,-151.917,304.992,91.857,0,0,0,
,0.753,-0.549,0.937,223.144,206.787,27.282,0,0,0,
,0.767,-1.059,0.863,302.551,-108.399,-232.239,0,0,0,
,0.463,-1.189,0.767,-400.635,84.777,-211.67,0,0,0,
,0.584,-0.6,0.565,-609.131,163.025,-159.974,0,0,0,
,0.528,-0.405,0.293,-247.437,49.865,-131.287,0,0,0,
,0.378,-0.65,0.38,-34.058,9.033,-77.332,0,0,0,
,0.417,-0.605,0.369,-55.481,128.234,-13.428,0,0,0,
,0.45,-0.924,0.349,-148.194,106.75,-113.77,0,0,0,
,0.426,-1.18,0.349,-661.438,226.44,-163.758,0,0,0,
,0.428,-0.726,0.354,-1104.859,388.244,-174.622,0,0,0,
,0.461,-0.549,0.524,-1078.736,345.276,-240.052,0,0,0,
,0.516,-0.373,0.578,-1000.367,347.961,-216.248,0,0,0,
,0.561,-0.674,0.828,-1079.224,284.423,-238.099,0,0,0,
,0.641,-0.422,0.703,-1643.799,530.761,-207.459,0,0,0,
,0.717,-0.16,0.645,-1415.772,467.834,-249.634,0,0,0,
,0.733,-0.434,0.788,-1310.547,455.627,-223.938,0,0,0,
,0.729,-0.291,0.65,-1208.374,439.087,-209.656,0,0,0,
,0.657,-0.493,0.573,-1314.759,401.489,-263.672,0,0,0,
,0.604,-0.521,0.502,-1889.832,589.599,-302.674,0,0,0,
,0.645,-0.249,0.618,-2000,671.203,-336.548,0,0,0,
,0.671,0.013,0.588,-1970.521,598.632,-319.947,0,0,0,
,0.685,-0.086,0.637,-1820.191,536.926,-351.441,0,0,0,
,0.641,-0.31,0.443,-1916.749,516.418,-412.049,0,0,0,
,0.646,-0.24,0.531,-2000,717.895,-381.897,0,0,0,
,0.722,-0.008,0.316,-2000,706.482,-390.076,0,0,0,
,0.693,-0.012,0.516,-2000,782.898,-435.364,0,0,0,
,0.692,0.351,0.687,-2000,892.578,-480.225,0,0,0,
,0.753,0.594,0.697,-2000,755.615,-372.925,0,0,0,
,0.857,0.719,0.623,-1561.463,467.346,-164.917,0,0,0,
,0.843,0.288,0.554,-207.764,117.187,114.929,0,0,0,
,0.89,0.279,0.468,340.026,-52.369,229.858,0,0,0,
,0.9,-0.009,0.501,1006.408,-252.259,335.205,0,0,0,
,0.911,0.087,0.589,1466.186,-323.304,379.089,0,0,0,
,1.028,0.042,0.611,1922.18,-538.086,428.955,0,0,0,
,0.993,-0.081,0.584,1999.694,-753.846,411.743,0,0,0,
,0.897,-0.023,0.476,1999.694,-900.33,427.002,0,0,0,
,0.881,0.06,0.573,1999.694,-1086.121,391.235,0,0,0,
,0.849,-0.209,0.578,1999.694,-1300.477,360.778,0,0,0,
,0.686,-0.499,0.621,1999.694,-1404.236,300.415,0,0,0,
,0.474,-0.605,0.583,1999.694,-1309.205,318.42,0,0,0,
,0.177,-0.412,0.608,1999.694,-1047.364,363.769,0,0,0,
,0.041,-0.162,0.734,1999.694,-728.882,466.308,0,0,0,
,0.086,-0.465,0.682,1999.694,-600.464,316.101,0,0,0,
,0.081,-0.664,0.642,1999.45,-487.061,299.804,0,0,0,
,0.038,-0.658,0.423,1529.174,-218.201,338.867,0,0,0,
,0.054,-0.756,0.307,1043.151,44.372,287.963,0,0,0,
,0.182,-0.772,0.536,595.581,254.211,220.337,0,0,0,
,0.409,-0.693,0.778,453.552,322.021,207.763,0,0,0,
,0.531,-0.683,0.794,703.857,226.318,152.282,0,0,0,
,0.615,-0.69,0.814,1254.76,14.282,149.536,0,0,0,
,0.601,-0.93,0.698,1520.446,-209.9,71.777,0,0,0,
,0.502,-1.204,0.674,1069.213,-191.163,5.554,0,0,0,
,0.503,-1.341,0.626,291.687,-14.832,-87.464,0,0,0,
,0.531,-1.048,0.606,-341.492,150.634,-131.531,0,0,0,
,0.544,-0.698,0.693,-465.455,183.471,-158.387,0,0,0,
,0.526,-0.568,0.652,-265.259,137.085,-183.594,0,0,0,
,0.497,-0.652,0.692,-42.481,60.424,-211.487,0,0,0,
,0.503,-0.788,0.644,-229.065,24.963,-202.454,0,0,0,
,0.437,-0.93,0.58,-655.152,116.821,-207.947,0,0,0,
,0.43,-0.739,0.593,-991.333,230.651,-179.078,0,0,0,
,0.438,-0.355,0.465,-840.821,236.267,-67.933,0,0,0,
,0.399,-0.165,0.606,-194.397,69.641,74.279,0,0,0,
,0.431,-0.497,0.489,350.586,-63.111,110.412,0,0,0,
,0.436,-0.916,0.364,162.048,-31.861,110.29,0,0,0,
,0.452,-1.245,0.43,-718.689,232.849,-12.879,0,0,0,
,0.578,-0.952,0.443,-1439.637,524.597,-117.249,0,0,0,
,0.748,-0.376,0.606,-1328.125,458.557,-184.937,0,0,0,
,0.656,-0.512,0.574,-1151.185,297.668,-281.189,0,0,0,
,0.556,-0.33,0.54,-1397.767,398.742,-260.621,0,0,0,
,0.592,-0.223,0.524,-1396.302,401.733,-250.977,0,0,0,
,0.621,-0.505,0.68,-1416.626,357.788,-251.954,0,0,0,
,0.621,-0.407,0.719,-1463.685,429.26,-229.798,0,0,0,
,0.736,-0.278,0.81,-1198.243,302.856,-216.675,0,0,0,
,0.711,-0.31,0.892,-1013.916,184.143,-223.267,0,0,0,
,0.599,-0.219,0.657,-962.708,176.818,-222.168,0,0,0,
,0.555,-0.31,0.594,-1036.927,183.227,-238.404,0,0,0,
,0.544,-0.255,0.684,-1156.25,282.043,-203.98,0,0,0,
,0.625,-0.099,0.661,-1059.937,239.868,-139.954,0,0,0,
,0.619,-0.108,0.66,-957.947,157.592,-107.178,0,0,0,
,0.551,-0.335,0.582,-1137.391,169.922,-151.795,0,0,0,
,0.54,-0.218,0.767,-1458.802,390.258,-142.456,0,0,0,
,0.64,-0.089,0.696,-1530.396,403.015,-179.627,0,0,0,
,0.612,0.015,0.708,-1586.487,414.428,-142.518,0,0,0,
,0.682,0.231,0.783,-1273.316,392.334,-37.049,0,0,0,
,0.689,-0.006,0.557,-999.512,241.882,18.981,0,0,0,
,0.571,0.009,0.608,-1041.932,391.235,21.545,0,0,0,
,0.813,0.192,0.731,-783.753,391.54,84.106,0,0,0,
,0.906,0.11,0.785,-286.988,166.931,155.7,0,0,0,
,0.879,-0.007,0.776,132.69,-19.593,289.062,0,0,0,
,0.949,-0.234,0.713,746.765,-252.198,359.497,0,0,0,
,0.832,-0.312,0.683,1168.274,-393.738,362.304,0,0,0,
,0.783,-0.1,0.756,1454.345,-445.801,308.349,0,0,0,
,0.767,-0.043,0.834,1839.355,-594.849,254.089,0,0,0,
,0.429,-0.507,0.66,1999.694,-1027.283,84.594,0,0,0,
,-0.013,-0.629,0.716,1103.698,-628.052,-53.956,0,0,0,
,-0.016,-0.488,0.735,-145.691,-29.297,-203.736,0,0,0,
,0.244,0.016,0.706,-707.215,306.091,-207.581,0,0,0,
,0.272,0.322,0.848,-410.767,224.548,-78.37,0,0,0,
,0.187,-0.508,1.008,-541.748,271.972,30.273,0,0,0,
,0.359,-0.257,0.968,-1047.608,511.596,-55.359,0,0,0,
,0.513,0.056,0.836,-1019.41,542.968,-65.064,0,0,0,
,0.544,0.159,0.723,-719.666,441.772,-25.147,0,0,0,
,0.557,-0.014,0.949,-546.021,385.437,-21.424,0,0,0,
,0.697,-0.261,0.819,-605.957,357.238,-170.227,0,0,0,
,0.745,-0.183,0.928,-1023.194,548.767,-185.791,0,0,0,
,0.856,0.241,0.939,-1161.561,541.198,-189.637,0,0,0,
,0.823,0.093,0.846,-993.897,323.791,-214.661,0,0,0,
,0.647,0.123,0.744,-984.986,344.055,-173.279,0,0,0,
,0.695,0.036,0.677,-915.894,340.088,-178.345,0,0,0,
,0.685,-0.026,0.571,-827.393,319.702,-183.594,0,0,0,
,0.595,-0.195,0.555,-988.77,333.068,-209.107,0,0,0,
,0.541,-0.064,0.724,-1354.065,482.91,-261.902,0,0,0,
,0.772,0.202,0.485,-1137.574,460.815,-291.687,0,0,0,
,0.651,0.24,0.606,-777.222,333.496,-214.722,0,0,0,
,0.651,0.082,0.495,-691.468,360.656,-168.702,0,0,0,
,0.8,0.174,0.654,-587.281,320.617,-123.291,0,0,0,
,0.793,0.006,0.39,-403.077,209.167,-0.061,0,0,0,
,0.809,0.145,0.395,-346.192,251.892,19.714,0,0,0,
,1,0.172,0.436,21.728,159.973,80.81,0,0,0,
,1.006,0.146,0.422,467.956,36.926,182.983,0,0,0,
,1.038,0.138,0.31,866.516,-62.134,276.611,0,0,0,
,1.033,0.071,0.377,1281.005,-160.34,325.622,0,0,0,
,1.068,-0.036,0.482,1858.703,-355.103,345.153,0,0,0,
,0.983,-0.007,0.612,1999.694,-540.589,393.554,0,0,0,
,0.899,-0.095,0.886,1999.694,-719.91,303.344,0,0,0,
,0.886,-0.138,1.047,1999.694,-807.007,198.73,0,0,0,
,0.741,-0.083,0.995,1999.694,-849.732,131.225,0,0,0,
,0.238,-0.581,0.726,1999.694,-688.355,-39.124,0,0,0,
,0.33,-0.754,0.714,1999.694,-518.25,1.525,0,0,0,
,0.348,-0.965,0.573,1558.838,-359.681,8.422,0,0,0,
,0.265,-0.981,0.572,797.18,-103.821,-20.081,0,0,0,
,0.343,-0.539,0.481,120.178,212.402,-186.158,0,0,0,
,0.401,-0.587,0.578,325.927,26.367,-184.754,0,0,0,
,0.445,-0.735,0.72,401.672,-136.353,-154.48,0,0,0,
,0.423,-0.811,0.803,220.947,-164.246,-127.442,0,0,0,
,0.525,-0.702,0.867,-42.298,-79.285,-113.16,0,0,0,
,0.59,-0.682,0.789,-232.483,-0.672,-137.024,0,0,0,
,0.721,-0.542,0.828,-155.762,53.161,-171.143,0,0,0,
,0.787,-0.212,0.735,134.216,-23.987,-104.554,0,0,0,
,0.64,-0.512,0.618,366.516,-167.481,-167.725,0,0,0,
,0.506,-0.613,0.599,180.236,-72.144,-58.594,0,0,0,
,0.528,-0.441,0.54,146.667,-7.63,-22.95,0,0,0,
,0.516,-0.495,0.503,191.894,-34.119,-11.78,0,0,0,
,0.515,-0.731,0.487,-229.798,60.058,-93.934,0,0,0,
,0.468,-0.796,0.437,-423.89,127.624,-124.207,0,0,0,
,0.505,-0.726,0.499,-629.212,219.97,-130.799,0,0,0,
,0.561,-0.396,0.459,-588.685,227.783,-86.304,0,0,0,
,0.539,-0.594,0.558,-519.898,191.894,-100.892,0,0,0,
,0.509,-0.685,0.547,-661.316,224.243,-96.375,0,0,0,
,0.503,-0.672,0.652,-924.5,322.998,-111.206,0,0,0,
,0.57,-0.527,0.704,-1028.077,366.516,-156.556,0,0,0,
,0.612,-0.356,0.632,-997.132,339.782,-149.903,0,0,0,
,0.492,-0.634,0.628,-1140.442,361.084,-185.303,0,0,0,
,0.557,-0.532,0.642,-1610.23,451.172,-221.619,0,0,0,
,0.509,-0.515,0.754,-1842.042,553.955,-238.831,0,0,0,
,0.682,-0.023,0.698,-1592.286,478.881,-130.86,0,0,0,
,0.628,-0.231,0.671,-1481.08,345.153,-200.806,0,0,0,
,0.578,-0.3,0.668,-1637.085,366.516,-219.971,0,0,0,
,0.592,-0.162,0.661,-1963.563,506.775,-223.328,0,0,0,
,0.665,-0.048,0.737,-2000,559.082,-252.259,0,0,0,
,0.699,0.034,0.574,-2000,490.356,-230.835,0,0,0,
,0.495,-0.118,0.593,-2000,550.354,-319.764,0,0,0,
,0.64,0.084,0.581,-2000,583.435,-253.357,0,0,0,
,0.577,0.147,0.626,-2000,648.376,-314.698,0,0,0,
,0.721,0.312,0.532,-1982.056,582.275,-221.924,0,0,0,
,0.699,0.286,0.624,-1701.6,532.714,-212.281,0,0,0,
,0.575,0.181,0.626,-1541.199,538.269,-245.85,0,0,0,
,0.745,0.05,0.503,-1388.184,475.83,-124.695,0,0,0,
,0.945,0.135,0.58,-853.821,400.39,-85.999,0,0,0,
,0.811,0.047,0.65,-491.944,258.667,7.751,0,0,0,
,0.949,0.136,0.661,-212.037,182.434,94.604,0,0,0,
,1.009,0.152,0.541,401.672,-35.157,171.508,0,0,0,
,0.978,0.105,0.381,845.764,-210.999,249.45,0,0,0,
,1.029,-0.004,0.484,1152.588,-354.248,274.963,0,0,0,
,1.112,-0.103,0.524,1444.091,-512.33,314.392,0,0,0,
,1.07,-0.094,0.447,1821.716,-709.839,327.209,0,0,0,
,0.94,-0.08,0.501,1999.694,-851.868,307.251,0,0,0,
,0.922,0.101,0.643,1999.694,-961.548,282.47,0,0,0,
,0.886,0.061,0.789,1999.694,-1186.463,332.641,0,0,0,
,0.708,-0.176,0.76,1999.694,-1333.252,366.333,0,0,0,
,0.449,-0.292,0.665,1999.694,-1292.908,312.5,0,0,0,
,0.243,-0.293,0.767,1999.694,-1195.557,329.956,0,0,0,
,0.007,-0.593,0.7,1999.694,-747.559,323.181,0,0,0,
,-0.112,-0.699,0.585,1719.848,-441.407,231.689,0,0,0,
,-0.098,-0.729,0.678,1335.083,-145.386,161.682,0,0,0,
,0.054,-0.822,0.803,1024.353,31.433,77.575,0,0,0,
,0.225,-0.695,0.753,750.122,142.212,108.886,0,0,0,
,0.341,-0.608,0.685,710.937,94.238,126.709,0,0,0,
,0.391,-0.623,0.625,799.987,15.136,140.197,0,0,0,
,0.401,-0.801,0.717,778.442,-82.154,106.994,0,0,0,
,0.453,-0.975,0.8,487.365,-84.595,87.585,0,0,0,
,0.503,-1.001,0.803,-100.281,24.353,60.485,0,0,0,
,0.523,-0.693,0.666,-594.056,239.135,118.347,0,0,0,
,0.688,-0.546,0.906,-250.672,192.199,18.981,0,0,0,
,0.744,-0.484,0.833,527.343,-110.047,14.953,0,0,0,
,0.403,-0.69,0.528,79.65,-27.466,30.09,0,0,0,
,0.521,-0.607,0.487,-31.128,36.865,5.798,0,0,0,
,0.571,-0.682,0.519,-27.894,16.967,-43.519,0,0,0,
,0.481,-0.747,0.554,-143.738,36.926,-69.886,0,0,0,
,0.461,-0.731,0.568,-271.363,90.698,-107.972,0,0,0,
,0.448,-0.727,0.56,-394.349,126.037,-147.95,0,0,0,
,0.438,-0.57,0.604,-600.342,237.793,-131.958,0,0,0,
,0.493,-0.461,0.419,-611.817,261.047,-141.663,0,0,0,
,0.473,-0.633,0.651,-607.117,277.465,-150.269,0,0,0,
,0.501,-0.548,0.602,-721.802,331.909,-145.508,0,0,0,
,0.475,-0.697,0.734,-907.776,368.042,-167.847,0,0,0,
,0.477,-0.542,0.684,-1063.843,424.682,-140.259,0,0,0,
,0.4,-0.669,0.423,-1287.11,521.667,-213.868,0,0,0,
,0.51,-0.485,0.705,-1400.391,542.785,-136.414,0,0,0,
