TIMECODE,ACC_X,ACC_Y,ACC_Z,GYR_X,GYR_Y,GYR_Z,ECG_I,ECG_II,ECG_III,TAG
,1.015,0.431,0.118,633.911,318.542,-75.501,0,0,0,
,1.002,0.426,0.182,692.871,210.144,-99.488,0,0,0,
,0.814,0.424,0.17,652.588,202.575,-123.78,0,0,0,
,0.855,0.399,0.152,573.242,227.356,-127.137,0,0,0,
,1.053,0.388,0.126,517.822,246.399,-153.016,0,0,0,
,1.033,0.358,0.109,67.443,-59.815,-89.539,0,0,0,
,0.958,0.368,0.064,-165.528,-117.249,-1.954,0,0,0,
,0.865,0.364,0.059,-267.273,-175.232,93.811,0,0,0,
,0.759,0.369,0.125,-280.091,-195.862,185.241,0,0,0,
,0.782,0.372,0.176,-264.466,-86.67,244.812,0,0,0,
,0.92,0.408,0.13,-195.74,8.85,266.906,0,0,0,
,1.009,0.454,0.11,-79.224,-8.606,255.493,0,0,0,
,0.967,0.485,0.134,53.833,-32.288,215.088,0,0,0,
,0.886,0.496,0.15,158.508,-0.55,158.996,0,0,0,
,0.842,0.458,0.143,246.093,48.034,104.187,0,0,0,
,0.853,0.375,0.119,310.669,82.397,58.166,0,0,0,
,0.883,0.348,0.107,308.288,88.44,32.898,0,0,0,
,0.889,0.356,0.116,269.653,76.11,16.296,0,0,0,
,0.89,0.369,0.123,215.698,71.411,-2.991,0,0,0,
,0.904,0.381,0.127,157.104,70.129,-11.475,0,0,0,
,0.916,0.39,0.115,121.765,55.419,-10.987,0,0,0,
,0.932,0.386,0.109,96.557,37.78,-5.31,0,0,0,
,0.944,0.378,0.124,67.565,27.526,8.667,0,0,0,
,0.955,0.376,0.098,44.006,17.273,24.963,0,0,0,
,0.946,0.379,0.104,24.475,12.023,41.809,0,0,0,
,0.933,0.379,0.13,14.099,14.16,51.574,0,0,0,
,0.909,0.367,0.126,6.897,25.146,56.152,0,0,0,
,0.899,0.354,0.116,-15.442,32.959,59.265,0,0,0,
,0.881,0.345,0.124,-27.71,26.489,56.64,0,0,0,
,0.865,0.346,0.14,-31.25,22.705,50.231,0,0,0,
,0.851,0.348,0.149,-40.955,26.367,36.499,0,0,0,
,0.862,0.351,0.146,-46.998,29.296,23.925,0,0,0,
,0.861,0.359,0.148,-40.345,21.484,13.549,0,0,0,
,0.848,0.361,0.154,-31.128,16.113,1.525,0,0,0,
,0.874,0.364,0.16,-27.588,16.296,-6.531,0,0,0,
,0.847,0.374,0.153,-31.434,18.127,-16.358,0,0,0,
,0.854,0.385,0.149,-45.838,14.526,-27.649,0,0,0,
,0.865,0.397,0.136,-64.331,12.207,-36.866,0,0,0,
,0.873,0.41,0.124,-83.985,4.821,-42.969,0,0,0,
,0.873,0.429,0.127,-91.431,-6.714,-49.744,0,0,0,
,0.863,0.444,0.127,-88.623,-2.137,-50.293,0,0,0,
,0.862,0.449,0.113,-73.548,7.629,-49.927,0,0,0,
,0.861,0.457,0.111,-54.322,5.859,-41.382,0,0,0,
,0.854,0.452,0.098,-41.687,7.812,-32.959,0,0,0,
,0.852,0.446,0.097,-32.959,8.239,-22.767,0,0,0,
,0.846,0.446,0.105,-28.748,6.225,-14.832,0,0,0,
,0.836,0.442,0.117,-27.161,11.535,-10.315,0,0,0,
,0.832,0.44,0.108,-21.79,21.423,-5.249,0,0,0,
,0.852,0.443,0.099,27.832,41.442,-2.015,0,0,0,
,0.883,0.443,0.084,41.076,46.752,-11.963,0,0,0,
,0.888,0.45,0.096,57.739,37.475,-22.95,0,0,0,
,0.883,0.468,0.125,88.989,39.184,-35.157,0,0,0,
,0.889,0.474,0.131,123.962,76.171,-45.655,0,0,0,
,0.908,0.454,0.131,136.718,80.2,-54.932,0,0,0,
,0.931,0.443,0.132,121.46,71.594,-49.195,0,0,0,
,0.929,0.443,0.15,104.553,55.786,-38.819,0,0,0,
,0.92,0.444,0.161,92.895,48.156,-24.842,0,0,0,
,0.912,0.448,0.162,98.266,29.968,-7.447,0,0,0,
,0.899,0.431,0.167,107.483,7.202,5.493,0,0,0,
,0.881,0.404,0.152,91.43,-12.391,20.874,0,0,0,
,0.872,0.388,0.138,55.419,-26.429,27.282,0,0,0,
,0.864,0.385,0.132,7.019,-35.401,29.663,0,0,0,
,0.849,0.4,0.127,-19.898,-35.035,24.536,0,0,0,
,0.846,0.403,0.118,-27.161,-28.016,8.117,0,0,0,
,0.846,0.412,0.109,-17.09,-24.903,2.685,0,0,0,
,0.841,0.413,0.101,-8.423,-13.184,-16.724,0,0,0,
,0.855,0.41,0.1,-5.127,2.624,-26.429,0,0,0,
,0.871,0.404,0.087,-0.977,7.324,-37.293,0,0,0,
,0.874,0.407,0.096,-5.31,8.056,-43.885,0,0,0,
,0.867,0.422,0.115,-9.461,18.005,-52.124,0,0,0,
,0.862,0.437,0.134,1.953,29.663,-60.975,0,0,0,
,0.856,0.434,0.131,14.953,42.297,-66.834,0,0,0,
,0.856,0.43,0.13,18.493,47.363,-71.228,0,0,0,
,0.859,0.433,0.133,9.033,44.067,-67.2,0,0,0,
,0.863,0.443,0.136,13.916,33.203,-60.425,0,0,0,
,0.866,0.439,0.142,2.319,23.925,-54.2,0,0,0,
,0.873,0.456,0.147,3.112,15.197,-43.519,0,0,0,
,0.877,0.452,0.141,0.61,7.263,-35.34,0,0,0,
,0.878,0.456,0.128,1.464,-1.587,-23.438,0,0,0,
,0.873,0.457,0.129,12.023,-10.621,-13.855,0,0,0,
,0.869,0.446,0.134,25.207,-13.123,-6.165,0,0,0,
,0.868,0.433,0.134,28.747,-11.17,-2.93,0,0,0,
,0.869,0.426,0.128,19.958,-4.7,1.281,0,0,0,
,0.868,0.423,0.129,16.174,-6.897,-0.855,0,0,0,
,0.865,0.417,0.129,15.502,-6.043,-3.54,0,0,0,
,0.861,0.413,0.127,10.681,-3.418,-4.944,0,0,0,
,0.858,0.411,0.12,5.615,-2.747,-8.728,0,0,0,
,0.861,0.412,0.122,0.244,-7.569,-10.865,0,0,0,
,0.856,0.415,0.121,-2.869,-5.982,-14.832,0,0,0,
,0.859,0.423,0.121,-1.648,-0.55,-18.677,0,0,0,
,0.864,0.428,0.118,-0.306,3.295,-20.081,0,0,0,
,0.869,0.432,0.122,2.563,4.333,-21.668,0,0,0,
,0.87,0.432,0.121,3.662,5.554,-20.386,0,0,0,
,0.863,0.435,0.126,3.845,3.906,-17.518,0,0,0,
,0.871,0.433,0.124,7.812,5.371,-14.954,0,0,0,
,0.875,0.431,0.12,6.042,2.746,-12.696,0,0,0,
,0.861,0.429,0.132,9.216,5.004,-15.809,0,0,0,
,0.86,0.426,0.123,9.094,4.089,-14.222,0,0,0,
,0.859,0.429,0.127,8.178,2.746,-13.306,0,0,0,
,0.855,0.426,0.127,4.15,3.845,-13.855,0,0,0,
,0.86,0.433,0.131,2.868,6.836,-14.527,0,0,0,
,0.871,0.434,0.122,11.352,5.432,-17.579,0,0,0,
,0.872,0.434,0.122,10.131,4.089,-15.564,0,0,0,
,0.869,0.432,0.123,11.962,4.394,-14.405,0,0,0,
,0.864,0.428,0.13,11.474,8.911,-13.55,0,0,0,
,0.86,0.424,0.129,15.686,7.507,-13.733,0,0,0,
,0.86,0.423,0.13,4.028,8.972,-25.757,0,0,0,
,0.865,0.429,0.133,2.807,11.352,-30.152,0,0,0,
,0.868,0.436,0.13,7.751,10.009,-32.532,0,0,0,
,0.87,0.434,0.133,18.066,8.239,-31.189,0,0,0,
,0.866,0.433,0.127,17.761,6.958,-27.955,0,0,0,
,0.866,0.437,0.128,10.986,7.202,-23.255,0,0,0,
,0.863,0.44,0.134,0.61,3.418,-24.17,0,0,0,
,0.859,0.434,0.135,23.498,7.507,-21.485,0,0,0,
,0.868,0.425,0.129,22.155,8.85,-19.349,0,0,0,
,0.867,0.421,0.129,15.93,3.418,-19.959,0,0,0,
,0.873,0.423,0.125,10.62,3.54,-21.241,0,0,0,
,0.864,0.429,0.133,5.737,6.958,-22.95,0,0,0,
,0.867,0.426,0.132,9.338,8.606,-24.72,0,0,0,
,0.862,0.421,0.129,13.61,8.544,-24.781,0,0,0,
,0.858,0.416,0.132,9.338,7.812,-24.537,0,0,0,
,0.861,0.421,0.131,0.915,8.117,-25.391,0,0,0,
,0.859,0.425,0.13,-3.174,8.667,-29.969,0,0,0,
,0.861,0.428,0.133,-5.799,10.498,-15.686,0,0,0,
,0.862,0.434,0.128,-1.77,12.817,-33.997,0,0,0,
,0.869,0.437,0.128,3.295,6.958,-32.593,0,0,0,
,0.866,0.438,0.135,7.202,5.981,-31.311,0,0,0,
,0.864,0.434,0.136,6.958,6.774,-28.992,0,0,0,
,0.863,0.44,0.131,8.056,6.652,-26.123,0,0,0,
,0.864,0.438,0.129,14.038,7.263,-23.56,0,0,0,
,0.867,0.433,0.131,16.662,6.164,-24.476,0,0,0,
,0.867,0.431,0.132,16.235,7.08,-26.795,0,0,0,
,0.866,0.428,0.133,18.066,7.324,-26.795,0,0,0,
,0.863,0.422,0.133,17.761,7.873,-28.077,0,0,0,
,0.862,0.424,0.131,10.315,8.178,-24.903,0,0,0,
,0.861,0.422,0.132,6.469,12.39,-24.903,0,0,0,
,0.864,0.424,0.126,2.807,14.221,-27.466,0,0,0,
,0.866,0.425,0.136,5.249,12.329,-30.701,0,0,0,
,0.859,0.426,0.135,7.202,14.587,-28.138,0,0,0,
,0.865,0.423,0.129,4.76,0.122,-27.222,0,0,0,
,0.876,0.421,0.124,-0.061,13.549,-26.673,0,0,0,
,0.873,0.427,0.133,-7.569,6.225,-27.771,0,0,0,
,0.863,0.432,0.141,-2.808,11.108,-28.748,0,0,0,
,0.862,0.434,0.129,2.868,16.418,-27.832,0,0,0,
,0.859,0.426,0.125,12.329,14.099,-26.856,0,0,0,
,0.861,0.427,0.133,9.033,14.77,-23.865,0,0,0,
,0.865,0.43,0.129,5.554,17.334,-26.001,0,0,0,
,0.867,0.431,0.125,7.995,12.512,-23.377,0,0,0,
,0.868,0.431,0.131,12.817,11.535,-20.386,0,0,0,
,0.871,0.427,0.132,13.366,11.901,-16.785,0,0,0,
,0.883,0.427,0.134,14.343,10.376,-15.137,0,0,0,
,0.894,0.423,0.136,13.488,0.244,-15.32,0,0,0,
,0.885,0.416,0.149,1.098,-7.63,-11.658,0,0,0,
,0.861,0.407,0.153,-6.897,-16.48,-2.564,0,0,0,
,0.847,0.412,0.162,-12.635,-17.334,5.615,0,0,0,
,0.868,0.419,0.158,-0.061,-9.705,8.911,0,0,0,
,0.881,0.408,0.153,15.686,-17.09,6.591,0,0,0,
,0.875,0.395,0.146,21.423,-24.842,-0.306,0,0,0,
,0.861,0.397,0.142,18.493,-23.987,-12.024,0,0,0,
,0.846,0.403,0.144,22.888,-21.058,-26.062,0,0,0,
,0.827,0.416,0.149,37.841,-15.503,-38.88,0,0,0,
,0.826,0.432,0.147,60.363,-3.968,-47.669,0,0,0,
,0.84,0.436,0.142,85.693,2.929,-55.664,0,0,0,
,0.85,0.436,0.148,101.684,-2.015,-57.74,0,0,0,
,0.854,0.436,0.148,95.886,-2.381,-56.092,0,0,0,
,0.881,0.433,0.142,82.092,0.671,-54.139,0,0,0,
,0.894,0.429,0.135,56.945,-8.606,-51.453,0,0,0,
,0.881,0.438,0.143,33.325,-15.748,-50.232,0,0,0,
,0.873,0.452,0.144,26.123,-7.813,-45.96,0,0,0,
,0.874,0.455,0.137,36.804,-2.198,-41.382,0,0,0,
,0.866,0.406,0.144,48.706,5.004,-13.55,0,0,0,
,0.862,0.429,0.141,40.588,6.225,-4.822,0,0,0,
,0.858,0.426,0.135,28.747,4.882,-1.831,0,0,0,
,0.863,0.428,0.137,21.057,9.582,-2.625,0,0,0,
,0.869,0.423,0.137,18.005,7.568,-5.372,0,0,0,
,0.878,0.419,0.136,8.911,2.38,-8.24,0,0,0,
,0.88,0.415,0.137,-3.235,-1.587,-9.278,0,0,0,
,0.879,0.41,0.138,-12.818,-6.409,-7.325,0,0,0,
,0.872,0.408,0.144,-20.63,-7.63,-4.578,0,0,0,
,0.864,0.403,0.145,-25.513,-4.822,0.427,0,0,0,
,0.863,0.398,0.142,-29.48,-1.465,0.915,0,0,0,
,0.852,0.386,0.141,-36.683,-0.489,-8.912,0,0,0,
,0.85,0.389,0.136,-35.584,1.281,-17.212,0,0,0,
,0.845,0.389,0.14,-36.438,7.446,-28.748,0,0,0,
,0.851,0.393,0.131,-38.208,15.014,-42.115,0,0,0,
,0.86,0.401,0.128,-36.194,19.226,-57.984,0,0,0,
,0.86,0.411,0.14,-32.776,22.461,-73.365,0,0,0,
,0.858,0.419,0.145,-32.349,31.189,-82.947,0,0,0,
,0.87,0.429,0.139,-26.795,28.198,-82.459,0,0,0,
,0.875,0.45,0.149,-15.931,22.949,-80.506,0,0,0,
,0.874,0.462,0.169,-3.602,24.231,-76.539,0,0,0,
,0.869,0.461,0.175,3.662,30.578,-72.327,0,0,0,
,0.87,0.468,0.176,12.634,40.588,-62.867,0,0,0,
,0.869,0.469,0.174,25.146,39.306,-52.124,0,0,0,
,0.869,0.465,0.166,34.606,40.344,-40.039,0,0,0,
,0.877,0.46,0.153,39.367,34.24,-27.1,0,0,0,
,0.879,0.453,0.149,46.875,24.169,-14.405,0,0,0,
,0.871,0.439,0.147,49.926,23.01,-5.188,0,0,0,
,0.872,0.43,0.137,48.95,27.282,1.709,0,0,0,
,0.877,0.421,0.128,50.781,27.404,5.127,0,0,0,
,0.875,0.408,0.12,53.405,25.695,4.516,0,0,0,
,0.876,0.396,0.12,52.429,26.306,3.601,0,0,0,
,0.867,0.386,0.12,52.734,29.785,2.868,0,0,0,
,0.867,0.38,0.121,48.461,30.639,-1.221,0,0,0,
,0.868,0.372,0.129,45.715,31.372,-6.592,0,0,0,
,0.87,0.37,0.132,40.954,33.02,-14.222,0,0,0,
,0.874,0.364,0.143,31.86,46.752,-23.743,0,0,0,
,0.876,0.367,0.159,15.197,28.259,-35.218,0,0,0,
,0.878,0.377,0.167,3.723,26.428,-44.678,0,0,0,
,0.885,0.387,0.175,-5.921,22.583,-49.866,0,0,0,
,0.884,0.396,0.167,-10.254,15.38,-50.171,0,0,0,
,0.886,0.409,0.167,-18.311,7.324,-48.34,0,0,0,
,0.886,0.421,0.166,-11.353,-1.709,-61.768,0,0,0,
,0.88,0.426,0.163,-8.301,-7.081,-43.702,0,0,0,
,0.868,0.431,0.159,-5.249,-7.996,-39.002,0,0,0,
,0.872,0.431,0.146,0.183,-4.578,-33.326,0,0,0,
,0.871,0.427,0.138,2.075,-7.325,-28.016,0,0,0,
,0.864,0.428,0.136,-0.977,-8.484,-23.255,0,0,0,
,0.856,0.433,0.137,5.493,-1.343,-23.682,0,0,0,
,0.86,0.43,0.135,17.273,8.178,-23.804,0,0,0,
,0.866,0.418,0.129,30.151,12.878,-22.095,0,0,0,
,0.868,0.41,0.139,36.804,14.221,-19.227,0,0,0,
,0.872,0.399,0.14,30.151,18.615,-18.738,0,0,0,
,0.877,0.395,0.148,21.728,17.089,-18.677,0,0,0,
,0.876,0.395,0.151,15.502,12.756,-19.288,0,0,0,
,0.874,0.393,0.16,12.695,11.779,-21.729,0,0,0,
,0.879,0.391,0.148,11.108,9.826,-24.292,0,0,0,
,0.878,0.388,0.149,3.051,4.699,-27.771,0,0,0,
,0.876,0.397,0.154,-2.869,5.554,-28.809,0,0,0,
,0.871,0.401,0.148,-4.761,6.897,-31.495,0,0,0,
,0.867,0.404,0.146,-1.831,6.774,-29.786,0,0,0,
,0.869,0.409,0.14,-4.151,6.347,-29.114,0,0,0,
,0.867,0.413,0.142,-5.31,7.202,-30.091,0,0,0,
,0.873,0.417,0.145,-1.893,9.826,-29.847,0,0,0,
,0.878,0.422,0.143,1.648,12.451,-31.495,0,0,0,
,0.877,0.426,0.144,11.596,12.695,-31.434,0,0,0,
,0.873,0.422,0.143,21.606,15.38,-29.236,0,0,0,
,0.874,0.416,0.144,26.184,15.197,-24.17,0,0,0,
,0.873,0.415,0.146,26.306,15.564,-23.438,0,0,0,
,0.874,0.411,0.145,25.024,17.334,-22.034,0,0,0,
,0.873,0.408,0.147,29.663,14.709,-22.095,0,0,0,
,0.867,0.406,0.141,30.212,17.395,-20.874,0,0,0,
,0.876,0.404,0.139,33.691,20.019,-21.363,0,0,0,
,0.88,0.402,0.134,29.541,18.432,-21.546,0,0,0,
,0.878,0.404,0.134,28.076,13.671,-22.156,0,0,0,
,0.872,0.405,0.139,31.616,19.409,-25.147,0,0,0,
,0.876,0.408,0.141,38.452,26.672,-25.94,0,0,0,
,0.869,0.403,0.142,43.884,24.414,-26.551,0,0,0,
,0.865,0.412,0.15,52.429,28.32,-24.231,0,0,0,
,0.868,0.42,0.15,65.368,35.949,-28.26,0,0,0,
,0.865,0.42,0.149,87.158,37.048,-29.725,0,0,0,
,0.854,0.426,0.161,109.253,39.428,-34.974,0,0,0,
,0.857,0.439,0.173,142.944,51.757,-38.941,0,0,0,
,0.844,0.43,0.148,181.152,58.41,-43.274,0,0,0,
,0.826,0.437,0.159,217.834,62.805,-49.805,0,0,0,
,0.854,0.488,0.185,271.728,84.411,-74.891,0,0,0,
,0.785,0.562,0.323,471.984,72.998,-99.793,0,0,0,
,0.691,0.671,0.478,798.95,210.571,-164.551,0,0,0,
,0.764,0.785,0.459,1115.234,376.953,-213.746,0,0,0,
,0.889,0.736,0.244,1304.138,405.151,-294.434,0,0,0,
,0.908,0.827,0.293,1241.943,364.99,-339.417,0,0,0,
,0.818,1.36,0.596,1420.227,508.422,-398.133,0,0,0,
,0.775,1.888,0.717,1995.117,666.259,-432.923,0,0,0,
,0.974,1.847,0.436,1999.694,602.356,-306.641,0,0,0,
,1.16,1.834,0.103,1999.694,448.852,51.574,0,0,0,
,1.402,2.258,-0.04,1999.694,241.699,272.766,0,0,0,
,1.564,2.655,0.114,1999.694,-91.126,485.107,0,0,0,
,1.687,2.761,0.206,1999.694,-235.901,889.709,0,0,0,
,2.417,2.593,0.084,1999.694,-379.212,1481.628,0,0,0,
,3.597,2.241,0.053,1999.694,-785.95,1999.694,0,0,0,
,3.999,1.561,-0.34,1185.73,-1425.477,1999.694,0,0,0,
,3.793,1.146,-0.758,-134.034,-1565.125,1999.694,0,0,0,
,2.901,1.03,-1.098,-544.678,-818.604,1999.694,0,0,0,
,1.993,-1.308,-1.157,-656.861,-1230.774,1999.694,0,0,0,
,0.986,-2.47,-0.11,-2000,-2000,1999.694,0,0,0,
,-0.929,2.004,0.278,-2000,733.154,1999.694,0,0,0,
,1.971,-2.028,-0.654,666.076,1559.57,1224.731,0,0,0,
,2.679,-3.549,-0.769,1670.41,1016.174,981.14,0,0,0,
,1.958,-2.077,0.013,336.303,-71.228,619.995,0,0,0,
,0.521,0.376,0.396,276.428,389.709,451.416,0,0,0,
,0.561,0.62,0.319,313.049,555.481,-66.407,0,0,0,
,0.356,0.563,0.149,422.363,242.553,-13.123,0,0,0,
,-0.129,0.631,0.315,322.082,43.64,15.319,0,0,0,
,-0.361,0.731,0.482,52.124,141.601,-43.946,0,0,0,
,-0.154,0.689,0.627,-114.563,202.392,-51.087,0,0,0,
,-0.085,0.765,0.682,-109.131,35.339,-15.198,0,0,0,
,-0.173,0.861,0.632,-14.344,-32.288,-9.888,0,0,0,
,-0.109,0.838,0.578,24.78,0.854,-45.227,0,0,0,
,0.028,0.789,0.506,-3.418,15.38,-66.712,0,0,0,
,0.051,0.771,0.464,-113.953,-13.794,-70.801,0,0,0,
,-0.015,0.709,0.482,-267.579,-90.516,-130.982,0,0,0,
,-0.173,1.074,0.451,-346.985,-44.312,-127.747,0,0,0,
,-0.261,1.246,0.491,-33.387,-92.896,-159.607,0,0,0,
,-0.327,1.17,0.488,267.212,-132.447,-56.092,0,0,0,
,-0.379,0.9,0.532,314.88,-133.24,7.141,0,0,0,
,-0.355,0.837,0.555,88.317,-0.428,78.613,0,0,0,
,-0.186,0.919,0.533,-107.666,87.707,128.357,0,0,0,
,-0.073,0.966,0.488,-109.314,21.667,139.282,0,0,0,
,-0.108,0.862,0.484,25.878,-84.046,140.136,0,0,0,
,-0.203,0.695,0.483,-13.001,-5.982,-6.47,0,0,0,
,-0.206,0.791,0.444,53.711,24.414,-60.303,0,0,0,
,-0.085,0.715,0.418,130.249,46.875,-115.357,0,0,0,
,0.12,0.527,0.302,102.111,61.828,-171.692,0,0,0,
,0.345,-0.024,0.284,2.502,25.085,-332.215,0,0,0,
,1.523,-2.3,-0.033,-751.526,-106.69,-1400.879,0,0,0,
,2.119,-2.789,-0.393,-1334.534,-544.312,-1998.963,0,0,0,
,1.926,-2.369,-0.16,-1122.864,-876.954,-2000,0,0,0,
,1.66,-2.161,0.037,303.1,-709.595,-2000,0,0,0,
,2.115,-1.473,-0.265,1211.059,63.354,-2000,0,0,0,
,3.315,0.163,-0.432,791.687,513.427,-2000,0,0,0,
,3.999,0.454,0.79,1694.519,1634.338,-2000,0,0,0,
,3.999,1.371,1.383,-723.877,1917.48,-2000,0,0,0,
,3.738,3.555,1.291,-2000,1173.156,-742.432,0,0,0,
,1.795,3.313,0.212,-1680.665,127.563,419.128,0,0,0,
,0.934,1.733,1.077,-747.254,-685.364,185.302,0,0,0,
,0.213,1.852,1.146,-720.093,-423.89,174.743,0,0,0,
,0.069,1.791,0.931,-411.866,-43.824,-297.669,0,0,0,
,0.619,0.839,0.661,-338.318,-15.625,-346.009,0,0,0,
,0.735,0.591,0.466,-478.882,-154.419,-22.339,0,0,0,
,0.77,0.526,0.367,-586.243,-134.095,242.431,0,0,0,
,0.912,0.421,0.235,-619.263,-32.288,428.161,0,0,0,
,0.946,0.058,0.348,127.685,-10.987,250.366,0,0,0,
,0.946,-0.102,0.34,91.064,28.137,200.744,0,0,0,
,0.946,-0.142,0.292,-51.819,29.419,217.102,0,0,0,
,0.903,0.012,0.272,-139.771,54.87,241.821,0,0,0,
,0.899,0.098,0.205,-101.685,109.13,241.272,0,0,0,
,0.956,0.128,0.22,-46.326,119.934,274.597,0,0,0,
,0.977,0.16,0.216,-20.569,96.984,323.425,0,0,0,
,0.935,-0.138,0.166,-84.046,-14.1,308.105,0,0,0,
,0.823,-0.224,0.192,-374.756,-17.151,325.195,0,0,0,
,0.801,-0.037,0.079,-650.574,99.609,360.412,0,0,0,
,0.924,0.201,0.144,-723.816,144.47,325.256,0,0,0,
,0.897,0.181,0.393,-377.198,-40.345,145.935,0,0,0,
,0.876,0.196,0.346,-490.54,39.245,105.346,0,0,0,
,0.949,0.312,0.341,-546.204,69.824,63.842,0,0,0,
,0.978,0.408,0.376,-488.282,54.565,20.629,0,0,0,
,0.963,0.411,0.403,-375.55,52.612,-16.297,0,0,0,
,1.024,0.345,0.362,-435.547,10.315,-41.932,0,0,0,
,0.988,0.379,0.333,-574.341,-60.181,-35.767,0,0,0,
,0.932,0.386,0.324,-652.527,-124.39,-29.602,0,0,0,
,0.889,0.403,0.352,-670.96,-170.655,-11.78,0,0,0,
,0.854,0.428,0.399,-641.602,-166.81,-3.113,0,0,0,
,0.828,0.489,0.382,-460.389,-136.17,44.433,0,0,0,
,0.863,0.546,0.299,-382.019,-159.546,102.966,0,0,0,
,0.895,0.591,0.265,-147.339,-265.931,148.071,0,0,0,
,0.864,0.568,0.362,72.631,-344.361,170.288,0,0,0,
,0.853,0.486,0.458,111.511,-412.842,224.548,0,0,0,
,0.801,0.531,0.41,-258.362,-402.466,366.516,0,0,0,
,0.807,0.498,0.33,-355.103,-424.988,390.136,0,0,0,
,0.796,0.503,0.277,-413.697,-432.496,425.354,0,0,0,
,0.85,0.513,0.276,-375.367,-433.045,425.903,0,0,0,
,0.897,0.506,0.294,-264.954,-438.782,417.724,0,0,0,
,0.891,0.491,0.346,-149.903,-426.697,385.254,0,0,0,
,0.909,0.473,0.351,-95.276,-387.574,351.074,0,0,0,
,0.884,0.478,0.33,-104.187,-366.211,320.251,0,0,0,
,0.818,0.496,0.341,-130.616,-330.811,309.021,0,0,0,
,0.741,0.54,0.39,-86.426,-268.311,315.307,0,0,0,
,0.699,0.582,0.477,49.255,-208.619,335.327,0,0,0,
,0.633,0.663,0.515,344.543,-147.583,358.337,0,0,0,
,0.618,0.594,0.526,624.939,-135.743,388.488,0,0,0,
,0.582,0.529,0.538,717.59,-124.146,398.742,0,0,0,
,0.548,0.544,0.532,702.087,-120.362,407.409,0,0,0,
,0.499,0.531,0.571,639.221,-135.254,393.432,0,0,0,
,0.478,0.54,0.597,536.804,-139.71,387.268,0,0,0,
,0.484,0.574,0.572,510.315,-152.527,382.507,0,0,0,
,0.477,0.521,0.566,450.317,-184.51,381.53,0,0,0,
,0.457,0.513,0.541,365.722,-192.017,384.46,0,0,0,
,0.456,0.545,0.533,336.181,-187.806,375.976,0,0,0,
,0.471,0.569,0.56,405.151,-176.941,368.164,0,0,0,
,0.454,0.543,0.578,502.685,-151.856,348.755,0,0,0,
,0.454,0.523,0.587,542.907,-118.47,341.735,0,0,0,
,0.453,0.48,0.569,519.226,-89.6,330.444,0,0,0,
,0.457,0.458,0.541,507.385,-77.332,317.382,0,0,0,
,0.477,0.42,0.55,493.713,-80.079,305.664,0,0,0,
,0.473,0.42,0.547,458.13,-79.407,291.137,0,0,0,
,0.46,0.423,0.553,389.587,-78.248,263.244,0,0,0,
,0.473,0.42,0.538,269.165,-67.505,247.375,0,0,0,
,0.472,0.525,0.58,198.486,-54.383,209.045,0,0,0,
,0.549,0.502,0.618,196.777,-65.186,209.9,0,0,0,
,0.548,0.401,0.591,195.495,-63.111,206.298,0,0,0,
,0.551,0.464,0.6,176.086,-33.875,207.153,0,0,0,
,0.551,0.508,0.642,201.049,0.793,199.096,0,0,0,
,0.545,0.473,0.683,179.87,37.109,173.828,0,0,0,
,0.56,0.59,0.698,180.053,90.82,134.521,0,0,0,
,0.587,0.634,0.747,224.548,138.794,65.795,0,0,0,
,0.609,0.481,0.682,275.817,137.085,55.419,0,0,0,
,0.556,0.399,0.659,246.765,141.601,75.012,0,0,0,
,0.571,0.499,0.623,142.028,87.341,99.792,0,0,0,
,0.494,0.516,0.661,168.335,88.806,131.713,0,0,0,
,0.507,0.481,0.721,216.064,96.74,156.86,0,0,0,
,0.492,0.481,0.772,223.571,108.215,187.133,0,0,0,
,0.499,0.508,0.749,176.269,135.559,170.044,0,0,0,
,0.5,0.513,0.722,128.051,187.927,144.836,0,0,0,
,0.511,0.471,0.709,91.003,212.951,122.558,0,0,0,
,0.509,0.481,0.7,89.294,246.215,125.122,0,0,0,
,0.52,0.45,0.671,73.486,238.647,131.897,0,0,0,
,0.512,0.478,0.663,39.856,192.627,111.633,0,0,0,
,0.477,0.455,0.744,110.473,184.631,118.713,0,0,0,
,0.448,0.441,0.802,130.554,177.978,123.352,0,0,0,
,0.425,0.452,0.856,151.001,189.148,141.418,0,0,0,
,0.446,0.419,0.783,113.586,225.097,131.347,0,0,0,
,0.426,0.378,0.713,4.211,234.008,110.595,0,0,0,
,0.456,0.447,0.671,-46.021,191.223,97.168,0,0,0,
,0.475,0.592,0.711,35.4,112.426,101.562,0,0,0,
,0.455,0.617,0.707,234.13,108.947,132.751,0,0,0,
,0.453,0.538,0.71,311.096,127.563,124.511,0,0,0,
,0.45,0.522,0.737,243.957,168.274,116.943,0,0,0,
,0.461,0.49,0.675,167.48,231.872,146.667,0,0,0,
,0.492,0.434,0.526,-14.161,280.029,141.174,0,0,0,
,0.517,0.464,0.484,-196.228,234.741,158.447,0,0,0,
,0.545,0.629,0.532,-126.954,210.754,146.545,0,0,0,
,0.573,0.619,0.591,141.296,194.885,168.823,0,0,0,
,0.538,0.473,0.638,178.1,158.447,140.869,0,0,0,
,0.535,0.498,0.667,50.354,111.084,103.576,0,0,0,
,0.512,0.474,0.713,-62.439,92.712,57.922,0,0,0,
,0.531,0.484,0.66,-170.899,86.242,36.254,0,0,0,
,0.588,0.65,0.604,-141.297,47.485,20.935,0,0,0,
,0.554,0.587,0.593,-19.715,20.568,9.582,0,0,0,
,0.535,0.52,0.596,-9.583,-10.743,-6.958,0,0,0,
,0.522,0.522,0.613,-49.256,-16.358,-29.175,0,0,0,
,0.506,0.517,0.63,-98.328,-8.484,-62.745,0,0,0,
,0.5,0.531,0.652,-150.635,0.427,-91.492,0,0,0,
,0.488,0.535,0.66,-146.18,13.427,-117.066,0,0,0,
,0.5,0.52,0.608,-133.179,29.419,-114.808,0,0,0,
,0.508,0.56,0.616,-113.282,13.488,-88.746,0,0,0,
,0.549,0.622,0.656,-77.515,-15.686,-80.262,0,0,0,
,0.528,0.582,0.684,-8.667,-44.922,-84.595,0,0,0,
,0.562,0.532,0.669,-3.54,-87.586,-95.032,0,0,0,
,0.538,0.499,0.679,-11.353,-108.46,-116.822,0,0,0,
,0.587,0.509,0.667,-14.466,-102.112,-119.202,0,0,0,
,0.621,0.592,0.656,61.035,-133.301,-97.535,0,0,0,
,0.605,0.552,0.703,116.027,-180.848,-115.662,0,0,0,
,0.572,0.491,0.742,50.109,-221.863,-152.1,0,0,0,
,0.518,0.463,0.744,-55.298,-248.291,-182.679,0,0,0,
,0.436,0.429,0.636,-246.216,-194.031,-240.784,0,0,0,
,0.469,0.43,0.569,-323.609,-209.412,-248.841,0,0,0,
,0.422,0.447,0.58,-399.414,-238.099,-263.672,0,0,0,
,0.42,0.558,0.617,-313.05,-261.841,-263.001,0,0,0,
,0.406,0.507,0.653,-107.727,-259.217,-228.76,0,0,0,
,0.384,0.419,0.681,-58.716,-241.089,-192.017,0,0,0,
,0.408,0.378,0.688,-125.489,-221.68,-162.964,0,0,0,
,0.447,0.448,0.659,-439.331,-274.964,-215.882,0,0,0,
,0.405,0.492,0.688,-607.056,-357.483,-301.087,0,0,0,
,0.406,0.659,0.809,-486.512,-418.763,-345.459,0,0,0,
,0.368,0.597,0.839,-285.096,-427.308,-299.317,0,0,0,
,0.288,0.38,0.658,-597.474,-484.131,-282.593,0,0,0,
,0.269,0.552,0.639,-921.265,-533.204,-285.767,0,0,0,
,0.175,0.867,0.593,-1070.923,-536.744,-292.908,0,0,0,
,0.106,1.004,0.473,-855.957,-460.572,-275.025,0,0,0,
,0.068,0.804,0.408,-510.926,-368.409,-301.88,0,0,0,
,0.124,0.666,0.352,-401.062,-244.385,-208.619,0,0,0,
,0.208,0.587,0.266,-574.891,-137.33,-68.116,0,0,0,
,0.334,0.766,0.334,-1181.763,-140.137,-7.752,0,0,0,
,0.478,1.131,0.365,-1379.212,-93.689,20.568,0,0,0,
,0.465,1.181,0.513,-1027.405,11.901,80.871,0,0,0,
,0.581,1.038,0.562,-500.428,146.057,194.885,0,0,0,
,0.614,1.039,0.52,-162.232,335.449,201.904,0,0,0,
,0.732,0.771,0.412,-7.081,500.732,209.289,0,0,0,
,0.803,0.672,0.361,-134.461,577.942,191.894,0,0,0,
,0.916,0.662,0.303,-73.548,612.976,226.196,0,0,0,
,0.834,0.872,0.375,400.879,692.382,208.191,0,0,0,
,0.892,0.778,0.47,1163.269,739.868,172.79,0,0,0,
,0.828,0.524,0.552,1339.965,689.697,104.065,0,0,0,
,0.816,0.412,0.581,1034.179,638.977,83.007,0,0,0,
,0.833,0.462,0.477,877.99,457.763,17.7,0,0,0,
,0.712,0.29,0.42,744.506,239.563,-70.191,0,0,0,
,0.573,0.244,0.631,541.137,23.437,-95.215,0,0,0,
,0.517,0.437,0.798,409.24,-244.324,-177.979,0,0,0,
,0.278,0.524,0.76,330.017,-418.274,-315.003,0,0,0,
,0.129,0.562,0.663,82.702,-634.644,-455.75,0,0,0,
,0.03,0.716,0.609,-214.478,-768.067,-545.777,0,0,0,
,-0.138,1.012,0.365,-651.856,-830.628,-609.803,0,0,0,
,-0.112,1.108,0.341,-603.211,-664.002,-517.273,0,0,0,
,-0.104,1.046,0.337,-375.306,-331.665,-228.394,0,0,0,
,0.024,1.124,0.21,-77.82,39.611,-6.775,0,0,0,
,0.169,0.967,0.053,113.464,371.887,155.09,0,0,0,
,0.35,0.876,0.139,112.06,561.767,238.281,0,0,0,
,0.812,0.572,0.391,114.563,631.897,266.845,0,0,0,
,0.884,0.822,0.657,-92.774,524.902,351.196,0,0,0,
,0.808,0.792,0.664,98.816,512.024,252.868,0,0,0,
,0.88,0.36,0.716,-7.508,446.716,196.838,0,0,0,
,0.96,0.65,0.685,-335.328,356.14,174.743,0,0,0,
,0.885,0.777,0.619,0.061,277.771,83.984,0,0,0,
,0.77,0.578,0.775,263.427,198.974,65.734,0,0,0,
,0.672,0.464,0.912,217.285,149.109,27.282,0,0,0,
,0.629,0.393,0.974,151.855,30.822,-53.467,0,0,0,
,0.555,0.466,0.858,184.448,-39.063,-162.293,0,0,0,
,0.433,0.275,0.632,337.89,-169.861,-228.882,0,0,0,
,0.437,0.287,0.502,210.754,-337.83,-227.784,0,0,0,
,0.35,0.698,0.678,-21.485,-464.234,-194.703,0,0,0,
,0.229,0.683,0.789,99.853,-537.415,-321.9,0,0,0,
,0.18,0.455,0.716,-10.071,-586.182,-420.166,0,0,0,
,0.013,1.011,0.307,-349.976,-548.218,-508.728,0,0,0,
,0.067,0.933,0.219,-80.994,-515.015,-490.601,0,0,0,
,0.083,0.781,0.219,-14.283,-419.617,-419.373,0,0,0,
,0.152,0.81,0.213,-92.896,-343.201,-315.125,0,0,0,
,0.237,0.839,0.243,-131.531,-210.022,-235.718,0,0,0,
,0.221,0.761,0.299,-296.936,-67.139,-163.758,0,0,0,
,0.331,0.81,0.291,-455.628,45.41,-110.474,0,0,0,
,0.375,0.773,0.33,-507.874,185.852,-53.223,0,0,0,
,0.54,0.739,0.332,-567.2,356.872,-30.518,0,0,0,
,0.665,0.868,0.494,-453.309,462.89,52.124,0,0,0,
,0.727,0.898,0.519,-146.668,597.656,172.119,0,0,0,
,0.837,0.805,0.554,62.5,760.681,186.889,0,0,0,
,0.898,0.713,0.678,211.486,873.779,208.496,0,0,0,
,0.947,0.632,0.714,404.846,919.983,258.545,0,0,0,
,0.952,0.779,0.773,672.119,881.775,320.495,0,0,0,
,0.912,0.84,0.741,1120.422,734.863,270.446,0,0,0,
,0.968,0.428,0.547,1332.397,373.901,88.317,0,0,0,
,0.986,0.017,0.756,1036.377,-146.851,32.531,0,0,0,
,0.625,0.029,0.977,418.823,-353.577,2.807,0,0,0,
,0.427,0.176,0.87,-175.477,-389.649,-167.664,0,0,0,
,0.389,0.343,0.511,-357.605,-473.389,-248.108,0,0,0,
,0.281,0.622,0.371,-313.538,-671.021,-296.998,0,0,0,
,0.021,0.812,0.3,-275.513,-678.284,-349.366,0,0,0,
,-0.137,0.978,0.174,-186.89,-586.365,-369.202,0,0,0,
,-0.103,0.954,0.278,22.155,-518.067,-397.889,0,0,0,
,-0.008,0.789,0.394,-63.904,-392.212,-343.689,0,0,0,
,0.07,0.936,0.367,-142.64,-215.332,-250.794,0,0,0,
,0.264,0.983,0.321,-2.625,-28.382,-74.219,0,0,0,
,0.466,0.803,0.397,36.926,107.666,88.317,0,0,0,
,0.846,0.569,0.666,9.704,639.831,245.239,0,0,0,
,0.894,0.609,0.934,3.845,805.542,276.001,0,0,0,
,1.004,0.462,0.908,154.48,825.927,284.423,0,0,0,
,1.133,0.553,0.603,162.719,664.001,345.031,0,0,0,
,1.131,0.73,0.239,638.122,204.712,199.218,0,0,0,
,0.916,0.227,0.61,1015.442,-470.826,-33.204,0,0,0,
,0.331,-0.346,0.987,417.541,-342.53,-184.021,0,0,0,
,0.274,-0.058,0.865,-263.367,-400.452,-254.212,0,0,0,
,0.273,0.476,0.683,-561.524,-514.039,-389.893,0,0,0,
,0.057,0.607,0.504,-578.37,-584.595,-526.123,0,0,0,
,0.023,0.82,0.307,-603.699,-620.301,-556.336,0,0,0,
,0.079,1.145,0.224,-467.713,-591.309,-512.94,0,0,0,
,0.044,1.135,0.251,-162.903,-462.22,-410.34,0,0,0,
,0.142,1.037,0.34,-13.184,-254.395,-214.844,0,0,0,
,0.236,0.922,0.363,148.559,-5.31,27.771,0,0,0,
,0.343,0.901,0.335,193.237,187.744,183.471,0,0,0,
,0.483,0.814,0.357,136.718,359.619,320.19,0,0,0,
,0.626,0.731,0.473,94.909,517.944,391.967,0,0,0,
,0.781,0.681,0.608,137.268,622.07,406.616,0,0,0,
,0.919,0.708,0.725,252.319,675.842,422.546,0,0,0,
,0.911,0.655,0.917,541.137,714.233,389.343,0,0,0,
,1.004,0.48,0.904,710.632,561.95,325.927,0,0,0,
,1.019,0.255,0.869,719.543,426.574,255.31,0,0,0,
,0.94,0.229,0.971,537.841,240.539,230.407,0,0,0,
,0.788,0.163,0.919,370.117,58.654,114.685,0,0,0,
,0.761,0.074,0.97,39.55,-119.263,15.258,0,0,0,
,0.643,0.133,0.79,-307.496,-255.677,-64.087,0,0,0,
,0.44,0.365,0.591,-455.75,-347.29,-105.042,0,0,0,
,0.322,0.724,0.449,-226.746,-404.541,-165.039,0,0,0,
,0.174,0.632,0.42,152.526,-437.806,-313.477,0,0,0,
,-0.029,0.564,0.342,-93.14,-445.191,-396.79,0,0,0,
,-0.053,0.686,0.222,-332.947,-414.368,-497.437,0,0,0,
,0.002,0.813,0.148,-417.176,-374.39,-491.578,0,0,0,
,0.052,1.003,0.197,-302.247,-331.788,-433.106,0,0,0,
,0.124,0.963,0.423,-33.326,-214.173,-338.074,0,0,0,
,0.314,0.924,0.433,89.172,-21.546,-128.113,0,0,0,
,0.347,0.768,0.341,-60.425,218.261,38.513,0,0,0,
,0.722,0.766,0.376,-234.314,288.269,163.208,0,0,0,
,0.631,0.921,0.645,-504.517,408.02,285.278,0,0,0,
,0.775,0.732,0.642,-363.892,537.902,407.409,0,0,0,
,0.902,0.798,0.74,-225.647,592.346,451.66,0,0,0,
,0.972,0.818,0.746,6.713,571.472,409.973,0,0,0,
,0.927,0.517,0.744,212.951,418.213,300.537,0,0,0,
,0.908,0.38,0.599,-15.015,248.413,262.451,0,0,0,
,0.8,0.315,0.59,-286.988,71.777,115.844,0,0,0,
,0.686,0.261,0.703,-540.345,-62.256,-28.87,0,0,0,
,0.579,0.358,0.791,-629.09,-198.975,-116.089,0,0,0,
,0.499,0.477,0.553,-422.486,-344.239,-185.364,0,0,0,
,0.429,0.579,0.47,-112.915,-458.374,-233.948,0,0,0,
,0.312,0.598,0.564,13.488,-523.56,-282.105,0,0,0,
,0.219,0.6,0.502,-159.363,-586.06,-379.151,0,0,0,
,0.144,0.726,0.341,-439.454,-596.741,-443.909,0,0,0,
,0.161,0.939,0.218,-544.434,-585.328,-476.319,0,0,0,
,0.115,1.13,0.206,-289.429,-488.892,-408.57,0,0,0,
,0.159,1.096,0.165,108.459,-353.089,-264.466,0,0,0,
,0.175,0.963,0.181,254.76,-168.58,-128.357,0,0,0,
,0.252,0.859,0.251,97.29,30.883,-21.912,0,0,0,
,0.332,0.942,0.274,-70.923,228.576,2.563,0,0,0,
,0.467,0.872,0.226,-104.432,411.316,41.992,0,0,0,
,0.656,0.791,0.274,-95.704,524.719,44.799,0,0,0,
,0.778,0.686,0.506,3.173,582.885,79.101,0,0,0,
,0.924,0.657,0.763,237.365,592.895,109.741,0,0,0,
,1.11,0.702,0.821,330.078,416.687,163.452,0,0,0,
,0.963,0.602,0.708,410.888,369.14,178.711,0,0,0,
,0.92,0.342,0.607,296.081,192.016,135.742,0,0,0,
,0.991,0.188,0.427,-74.219,-102.662,121.643,0,0,0,
,0.805,0.413,0.622,-454.346,-418.58,43.212,0,0,0,
,0.482,0.508,0.746,-507.691,-499.085,-126.954,0,0,0,
,0.34,0.406,0.747,-578.553,-574.28,-273.255,0,0,0,
,0.234,0.602,0.407,-690.003,-615.784,-316.04,0,0,0,
,0.101,0.974,0.154,-561.158,-661.927,-354.676,0,0,0,
,0.041,1.091,0.112,-74.585,-640.87,-478.516,0,0,0,
,0.104,0.767,0.345,287.048,-556.824,-463.074,0,0,0,
,0.174,0.718,0.452,233.947,-376.465,-294.434,0,0,0,
,0.447,1.216,0.503,251.587,-194.214,-185.425,0,0,0,
,0.573,1.292,0.437,720.153,-74.463,-123.169,0,0,0,
,0.734,0.738,0.405,1097.534,-1.587,35.217,0,0,0,
,0.777,0.576,0.605,846.008,60.852,209.777,0,0,0,
,0.707,0.85,0.609,821.045,135.131,336.853,0,0,0,
,0.681,0.6,0.635,880.981,151.062,349.304,0,0,0,
,0.56,0.577,0.592,585.022,191.284,395.813,0,0,0,
,0.387,0.658,0.509,509.399,226.196,379.699,0,0,0,
,0.143,0.534,0.561,546.875,317.81,373.169,0,0,0,
,0.061,0.424,0.646,588.928,413.818,357.299,0,0,0,
,0.048,0.323,0.748,601.928,455.505,353.515,0,0,0,
,0.074,0.322,0.741,444.397,360.717,361.084,0,0,0,
,0.087,0.37,0.825,219.482,321.838,299.011,0,0,0,
,0.267,0.488,0.803,129.15,209.9,155.944,0,0,0,
,0.462,0.597,0.862,80.078,75.256,-12.818,0,0,0,
,0.445,0.296,0.985,-63.721,-92.347,-211.06,0,0,0,
,0.464,0.105,1.045,-401.062,-211.548,-283.936,0,0,0,
,0.68,0.533,0.791,-313.66,-359.436,-376.465,0,0,0,
,0.684,0.505,0.698,-25.269,-385.132,-388.245,0,0,0,
,0.694,0.406,0.644,75.256,-377.137,-324.83,0,0,0,
,0.665,0.454,0.571,-57.801,-262.024,-326.477,0,0,0,
,0.613,0.583,0.451,-198.67,-92.774,-260.804,0,0,0,
,0.507,0.694,0.326,-269.837,91.674,-158.997,0,0,0,
,0.493,0.897,0.181,-262.513,263.672,79.528,0,0,0,
,0.454,0.961,0.123,-61.158,341.491,278.93,0,0,0,
,0.294,0.796,0.242,260.009,391.052,409.484,0,0,0,
,0.209,0.677,0.342,447.631,322.448,453.369,0,0,0,
,0.176,0.646,0.339,560.302,169.494,376.648,0,0,0,
,0.21,0.248,0.579,343.2,-3.113,125.366,0,0,0,
,0.234,-0.006,0.76,-444.336,-159.363,-32.898,0,0,0,
,0.331,0.196,0.826,-1328.064,-252.076,-175.232,0,0,0,
,0.705,0.614,0.811,-1857.3,-298.768,-254.09,0,0,0,
,0.826,0.923,0.79,-1860.291,-190.552,-259.034,0,0,0,
,0.83,0.924,0.661,-1366.15,-44.983,-218.201,0,0,0,
,0.838,0.705,0.487,-856.995,54.687,-101.38,0,0,0,
,0.786,0.618,0.348,-644.41,135.62,17.15,0,0,0,
,0.715,0.685,0.487,-434.998,151.977,103.637,0,0,0,
,0.613,0.792,0.62,-170.472,101.074,102.844,0,0,0,
,0.477,0.603,0.614,186.645,9.033,71.899,0,0,0,
,0.442,0.413,0.507,294.86,-146.729,-56.275,0,0,0,
,0.301,0.304,0.488,176.757,-276.123,-183.96,0,0,0,
,0.21,0.493,0.493,-205.689,-439.515,-222.901,0,0,0,
,0.081,0.813,0.444,-575.867,-593.14,-249.024,0,0,0,
,0.084,1.201,0.54,-577.332,-724.976,-305.42,0,0,0,
,0.032,1.251,0.375,-419.007,-723.389,-284.119,0,0,0,
,0.146,1.166,0.22,-426.27,-673.157,-281.434,0,0,0,
,-0.195,1.058,0.063,-432.618,-534.119,-149.72,0,0,0,
,0.175,1.126,0.161,-398.011,-212.464,-92.713,0,0,0,
,0.311,1.052,0.078,-304.81,5.249,-2.259,0,0,0,
,0.408,0.884,0.045,-385.315,196.655,11.108,0,0,0,
,0.498,0.869,0.06,-378.235,355.102,48.889,0,0,0,
,0.63,0.841,0.281,-244.996,514.221,107.91,0,0,0,
,0.684,0.825,0.459,-191.712,679.748,139.221,0,0,0,
,0.712,0.824,0.448,32.226,734.13,154.907,0,0,0,
,0.788,0.821,0.578,494.384,746.948,213.684,0,0,0,
,0.636,0.528,0.707,659.301,740.539,228.332,0,0,0,
,0.597,0.508,0.756,349.243,647.888,178.466,0,0,0,
,0.642,0.57,0.583,18.615,576.538,86.853,0,0,0,
,0.722,0.635,0.336,-45.96,486.816,1.525,0,0,0,
,0.672,0.599,0.125,43.823,255.92,-87.769,0,0,0,
,0.698,0.771,0.055,198.486,-175.232,-73.609,0,0,0,
,0.493,0.859,0.245,426.208,-456.177,-119.935,0,0,0,
,0.292,0.662,0.228,389.16,-578.98,-166.565,0,0,0,
,0.233,0.518,0.302,-157.898,-602.601,-260.56,0,0,0,
,0.152,0.526,0.355,-966.065,-555.481,-301.636,0,0,0,
,0.132,0.889,0.288,-1455.689,-435.12,-188.538,0,0,0,
,0.258,1.346,0.127,-1081.91,-252.869,-125.367,0,0,0,
,0.33,1.173,0.091,-210.022,-9.217,-51.392,0,0,0,
,0.444,0.916,0.09,5.004,184.509,-31.128,0,0,0,
,0.608,0.957,0.356,-0.916,331.97,45.105,0,0,0,
,0.555,1.055,0.519,134.704,474.853,141.601,0,0,0,
,0.594,0.954,0.601,451.416,576.416,175.293,0,0,0,
,0.614,0.869,0.75,418.274,635.559,208.007,0,0,0,
,0.744,0.839,0.609,343.2,498.291,241.943,0,0,0,
,0.67,0.651,0.019,541.565,432.434,169.067,0,0,0,
,0.529,0.551,-0.361,734.497,210.693,80.749,0,0,0,
,0.64,0.689,0.28,449.585,-248.352,104.004,0,0,0,
,0.219,0.569,0.544,330.993,-237.793,-72.693,0,0,0,
,0.179,0.52,0.389,139.953,-390.32,-182.435,0,0,0,
,0.277,0.609,0.107,-131.409,-535.584,-233.948,0,0,0,
,0.176,0.697,0.045,-328.248,-553.711,-289.429,0,0,0,
,0.167,0.797,0.162,-715.699,-478.882,-254.822,0,0,0,
,0.223,0.999,0.262,-736.145,-358.46,-178.772,0,0,0,
,0.287,1.139,0.23,-386.719,-155.091,-114.258,0,0,0,
,0.376,1.104,0.154,-58.838,58.349,-65.735,0,0,0,
,0.484,1.001,0.22,94.848,197.509,13.305,0,0,0,
,0.575,0.979,0.397,121.582,353.332,78.308,0,0,0,
,0.56,0.986,0.623,163.147,501.77,96.496,0,0,0,
,0.571,0.7,0.526,211.792,578.674,11.474,0,0,0,
,0.659,0.678,0.338,186.706,605.224,154.419,0,0,0,
,0.697,0.866,0.302,399.047,547.851,179.443,0,0,0,
,0.702,0.952,0.317,577.819,432.129,155.822,0,0,0,
,0.671,0.718,0.389,575.866,227.783,30.7,0,0,0,
,0.566,0.488,0.412,406.25,14.587,-72.327,0,0,0,
,0.472,0.527,0.387,320.251,-189.331,-107.056,0,0,0,
,0.462,0.547,0.28,304.992,-470.643,-180.664,0,0,0,
,0.343,0.505,0.267,69.091,-600.037,-316.163,0,0,0,
,0.26,0.628,0.204,-555.054,-680.603,-328.186,0,0,0,
,0.178,1.369,0.134,-1139.466,-694.397,-146.363,0,0,0,
,0.21,1.354,0.214,-765.137,-583.252,-108.216,0,0,0,
,0.059,1.023,0.366,-265.87,-397.889,-58.716,0,0,0,
,0.229,1.113,0.212,-12.818,-168.824,36.743,0,0,0,
,0.26,0.999,0.151,168.64,22.888,86.486,0,0,0,
,0.33,0.854,0.202,73.73,224.975,80.505,0,0,0,
,0.415,0.979,0.338,114.196,437.744,95.214,0,0,0,
,0.507,0.936,0.449,375.305,587.524,106.567,0,0,0,
,0.516,0.816,0.529,539.611,723.755,110.962,0,0,0,
,0.543,0.703,0.534,567.199,865.051,104.98,0,0,0,
,0.592,0.643,0.408,546.508,928.955,77.27,0,0,0,
,0.691,0.711,0.22,578.979,773.681,142.517,0,0,0,
,0.819,0.761,0.199,741.027,453.125,128.845,0,0,0,
,0.858,0.485,0.261,862.609,56.335,16.845,0,0,0,
,0.784,0.284,0.407,320.129,-469.361,83.496,0,0,0,
,0.487,0.637,0.634,159.729,-710.267,76.416,0,0,0,
,0.459,0.584,0.55,217.773,-737.488,-131.714,0,0,0,
,0.438,0.479,0.377,16.601,-773.377,-218.14,0,0,0,
,0.29,0.587,0.388,-319.703,-796.875,-223.938,0,0,0,
,0.185,0.81,0.307,-612.427,-740.174,-250.184,0,0,0,
,0.083,0.89,0.301,-728.211,-617.981,-307.862,0,0,0,
,0.068,0.95,0.258,-659.058,-444.581,-244.873,0,0,0,
,0.076,1.081,0.208,-280.091,-259.4,-190.064,0,0,0,
,0.118,1.008,0.215,155.212,-46.998,-102.723,0,0,0,
,0.185,0.865,0.213,211.486,164.978,-74.036,0,0,0,
,0.273,0.845,0.262,53.344,313.903,-65.674,0,0,0,
,0.359,0.883,0.35,-144.959,486.023,-22.522,0,0,0,
,0.603,0.708,0.389,-93.628,593.628,34.912,0,0,0,
,0.726,1.072,0.592,-169.19,516.296,311.706,0,0,0,
,0.604,0.751,0.455,310.18,369.262,149.475,0,0,0,
,0.563,0.449,0.494,243.652,390.38,127.746,0,0,0,
,0.683,0.633,0.523,-156.373,424.499,128.173,0,0,0,
,0.716,0.744,0.534,-201.783,333.374,58.166,0,0,0,
,0.667,0.672,0.702,-120.362,243.103,-11.109,0,0,0,
,0.618,0.63,0.68,-198.609,243.53,-82.398,0,0,0,
,0.587,0.711,0.412,-243.531,255.92,-106.324,0,0,0,
,0.677,0.867,0.1,-71.289,-99.244,-109.62,0,0,0,
,0.649,0.888,0.185,382.812,-602.906,-185.425,0,0,0,
,0.354,0.656,0.361,552.856,-792.237,-256.958,0,0,0,
,0.194,0.68,0.434,-662.781,-678.223,-320.252,0,0,0,
,0.106,1.087,0.302,-873.719,-544.129,-291.199,0,0,0,
,0.04,1.129,0.26,-520.203,-466.309,-185.547,0,0,0,
,0.07,1.147,0.226,-136.719,-243.287,-69.519,0,0,0,
,0.148,1.141,0.13,95.703,-60.73,35.217,0,0,0,
,0.203,1.088,0.124,238.037,139.343,99.426,0,0,0,
,0.27,0.963,0.148,299.194,290.466,148.62,0,0,0,
,0.444,1.06,0.352,276.367,370.605,235.412,0,0,0,
,0.457,1.076,0.498,367.736,518.615,260.925,0,0,0,
,0.448,0.677,0.529,446.96,697.631,148.925,0,0,0,
,0.592,0.505,0.606,310.791,843.567,163.391,0,0,0,
,0.739,0.508,0.579,236.633,896.667,197.265,0,0,0,
,0.831,0.688,0.338,192.138,765.625,296.63,0,0,0,
,0.612,0.398,0.468,458.13,-622.193,-76.294,0,0,0,
,0.258,0.32,0.547,196.411,-675.66,-186.219,0,0,0,
,0.105,0.364,0.418,-216.431,-597.84,-275.879,0,0,0,
,0.194,0.56,0.311,-621.888,-630.555,-348.511,0,0,0,
,0.202,0.768,0.217,-849.183,-638.977,-364.38,0,0,0,
,0.089,0.893,0.226,-904.602,-578.614,-323.182,0,0,0,
,0.081,1.11,0.297,-736.512,-374.329,-213.501,0,0,0,
,0.205,1.197,0.23,-216.431,-141.846,-111.817,0,0,0,
,0.322,1.117,0.181,24.902,114.318,-43.763,0,0,0,
,0.425,1.127,0.17,-32.227,355.163,17.517,0,0,0,
,0.538,1.063,0.311,23.681,580.505,49.499,0,0,0,
,0.655,0.578,0.676,302.856,761.657,179.138,0,0,0,
,0.724,0.769,0.444,92.224,643.127,239.013,0,0,0,
,0.745,0.828,0.233,198.181,319.275,176.208,0,0,0,
,0.648,0.598,0.072,525.756,-92.102,-28.87,0,0,0,
,0.607,0.512,0.316,594.421,-558.472,-45.289,0,0,0,
,0.307,0.538,0.54,553.405,-569.764,-132.508,0,0,0,
,0.125,0.419,0.538,198.791,-564.331,-268.799,0,0,0,
,0.216,0.537,0.49,-471.985,-654.419,-315.186,0,0,0,
,0.17,0.81,0.34,-866.028,-575.745,-291.81,0,0,0,
,0.031,1.001,0.314,-778.26,-352.601,-251.404,0,0,0,
,0.316,1.062,0.297,270.446,239.38,1.648,0,0,0,
,0.351,0.992,0.396,241.15,384.094,54.809,0,0,0,
,0.44,0.979,0.422,169.738,497.985,93.872,0,0,0,
,0.445,0.87,0.396,176.757,642.944,107.055,0,0,0,
,0.452,0.717,0.333,202.148,777.771,106.811,0,0,0,
,0.526,0.718,0.28,225.28,797.241,142.761,0,0,0,
,0.634,0.725,0.162,410.095,582.092,196.777,0,0,0,
,0.799,0.865,0.488,577.209,162.78,196.716,0,0,0,
,0.635,0.692,0.532,513.855,-279.541,131.713,0,0,0,
,0.435,0.369,0.601,401.001,-493.653,-28.016,0,0,0,
,0.367,0.288,0.542,0,-435.242,-93.262,0,0,0,
,0.498,0.63,0.495,-304.627,-385.315,-127.198,0,0,0,
,0.534,0.868,0.435,-144.104,-420.899,-210.877,0,0,0,
,0.479,0.945,0.626,269.836,-535.096,-277.283,0,0,0,
,0.468,0.749,0.684,486.816,-507.386,-255.188,0,0,0,
,0.506,0.711,0.572,539.611,-430.542,-216.004,0,0,0,
,0.458,0.828,0.487,791.992,-316.651,-187.317,0,0,0,
,0.453,0.767,0.437,1108.032,-169.983,-165.711,0,0,0,
,0.499,0.536,0.47,930.359,-111.329,-69.397,0,0,0,
,0.452,1.067,0.407,554.565,17.395,125.549,0,0,0,
,0.425,1.058,0.411,575.256,49.621,167.541,0,0,0,
,0.318,0.78,0.476,509.46,140.014,220.276,0,0,0,
,0.283,0.782,0.413,393.432,249.878,303.955,0,0,0,
,0.242,0.728,0.357,299.987,320.007,338.379,0,0,0,
,0.209,0.575,0.402,72.448,389.526,358.642,0,0,0,
,0.171,0.474,0.461,-224.671,499.939,330.383,0,0,0,
,0.174,0.604,0.498,-390.381,606.018,295.837,0,0,0,
,0.181,0.749,0.482,-392.823,613.281,223.877,0,0,0,
,0.232,0.804,0.48,-276.001,498.718,159.179,0,0,0,
,0.238,0.599,0.459,-57.129,346.557,65.429,0,0,0,
,0.232,0.498,0.541,56.579,239.807,57.006,0,0,0,
,0.41,0.695,1.033,-111.817,37.658,117.431,0,0,0,
,0.396,0.686,0.979,-650.879,8.3,203.003,0,0,0,
,0.344,0.737,0.909,-587.83,-0.855,83.435,0,0,0,
,0.494,0.634,0.804,-408.143,-38.269,3.784,0,0,0,
,0.471,0.447,0.581,-443.726,31.25,-56.458,0,0,0,
,0.497,0.581,0.449,-577.271,-30.396,-11.17,0,0,0,
,0.496,0.709,0.47,-535.889,-94.666,-87.159,0,0,0,
,0.521,0.658,0.513,-584.9,-198.365,-150.208,0,0,0,
,0.548,0.884,0.504,-586.731,-238.221,-214.539,0,0,0,
,0.534,1.008,0.441,-181.275,-195.679,-260.376,0,0,0,
,0.608,0.847,0.532,230.346,-87.281,-226.197,0,0,0,
,0.69,0.693,0.475,213.745,57.8,-147.767,0,0,0,
,0.623,0.783,0.42,107.238,220.825,-62.745,0,0,0,
,0.58,0.791,0.382,122.558,386.169,-23.56,0,0,0,
,0.553,0.74,0.354,191.528,538.635,15.136,0,0,0,
,0.609,0.738,0.347,320.739,565.979,42.236,0,0,0,
,0.716,0.779,0.323,439.331,344.665,52.673,0,0,0,
,0.703,0.798,0.386,475.708,31.494,43.884,0,0,0,
,0.55,0.684,0.418,597.29,-305.909,-0.733,0,0,0,
,0.423,0.587,0.532,682.8,-469.91,-12.696,0,0,0,
,0.335,0.485,0.692,565.368,-548.89,-121.155,0,0,0,
,0.31,0.414,0.723,284.484,-563.416,-193.909,0,0,0,
,0.334,0.515,0.663,3.54,-614.258,-280.335,0,0,0,
,0.305,0.703,0.572,-153.809,-621.094,-325.684,0,0,0,
,0.208,0.729,0.49,-155.396,-596.985,-361.756,0,0,0,
,0.16,0.719,0.458,-252.808,-534.729,-364.685,0,0,0,
,0.139,0.829,0.422,-299.317,-444.458,-333.374,0,0,0,
,0.119,0.897,0.427,-179.566,-323.548,-314.82,0,0,0,
,0.161,0.881,0.441,-56.885,-185.669,-240.357,0,0,0,
,0.224,0.914,0.404,-34.974,-21.546,-197.51,0,0,0,
,0.249,0.725,0.321,-265.137,30.578,-141.846,0,0,0,
,0.444,0.955,0.193,-456.788,126.037,59.387,0,0,0,
,0.347,1.222,0.429,-245.728,123.047,177.429,0,0,0,
,0.252,0.709,0.476,11.779,330.078,154.235,0,0,0,
,0.333,0.637,0.387,-216.675,387.756,183.41,0,0,0,
,0.337,0.779,0.373,-383.484,433.899,203.979,0,0,0,
,0.385,0.774,0.428,-452.027,465.026,197.326,0,0,0,
,0.477,0.763,0.449,-497.803,473.877,167.724,0,0,0,
,0.5,0.782,0.496,-410.645,501.709,126.892,0,0,0,
,0.568,0.794,0.554,-201.477,509.887,86.303,0,0,0,
,0.673,0.749,0.572,47.973,423.767,70.556,0,0,0,
,0.771,0.727,0.609,255.127,343.383,60.791,0,0,0,
,0.749,0.702,0.699,205.749,186.462,107.605,0,0,0,
,0.563,0.398,0.732,81.176,103.698,17.334,0,0,0,
,0.521,0.343,0.6,-335.633,181.335,25.817,0,0,0,
,0.641,0.694,0.458,-621.582,120.3,75.073,0,0,0,
,0.698,0.929,0.364,-377.564,-114.38,52.917,0,0,0,
,0.54,0.843,0.485,-158.081,-382.081,-35.279,0,0,0,
,0.353,0.764,0.509,-238.526,-353.699,-117.859,0,0,0,
,0.391,0.807,0.354,-103.333,-390.564,-139.405,0,0,0,
,0.421,0.888,0.269,314.758,-526.551,-148.621,0,0,0,
,0.302,0.779,0.368,596.984,-641.785,-205.201,0,0,0,
,0.166,0.585,0.434,298.278,-567.017,-286.133,0,0,0,
,0.241,0.55,0.321,-379.761,-533.02,-298.584,0,0,0,
,0.188,0.767,0.3,-797.608,-425.904,-296.814,0,0,0,
,0.17,0.908,0.25,-719.788,-278.687,-198.548,0,0,0,
,0.204,1.06,0.242,-314.148,-101.319,-111.329,0,0,0,
,0.277,1.064,0.175,19.531,65.063,-34.302,0,0,0,
,0.368,1.038,0.14,111.755,206.115,23.376,0,0,0,
,0.474,0.982,0.134,90.759,283.325,50.048,0,0,0,
,0.52,0.81,0.439,20.874,531.005,101.562,0,0,0,
,0.534,0.789,0.336,120.422,558.044,105.102,0,0,0,
,0.528,0.744,0.35,127.014,528.686,87.89,0,0,0,
,0.557,0.668,0.287,94.36,445.922,78.552,0,0,0,
,0.592,0.685,0.127,172.668,191.894,52.917,0,0,0,
,0.598,0.781,0.249,399.292,-232.789,45.898,0,0,0,
,0.378,0.637,0.565,489.624,-390.748,-26.795,0,0,0,
,0.263,0.36,0.637,93.872,-401.49,-191.773,0,0,0,
,0.374,0.383,0.67,-644.41,-496.216,-293.519,0,0,0,
,0.321,0.752,0.502,-1029.847,-407.532,-244.996,0,0,0,
,0.322,1.133,0.385,-738.831,-284.302,-222.718,0,0,0,
,0.458,1.231,0.34,-118.103,-228.028,-154.847,0,0,0,
,0.542,1.242,0.283,455.993,-191.285,-56.275,0,0,0,
,0.569,1.214,0.321,1029.235,-229.432,38.94,0,0,0,
,0.564,0.907,0.401,1373.718,-322.754,144.348,0,0,0,
,0.418,0.847,0.313,1358.398,-97.046,159.973,0,0,0,
,0.482,0.815,0.382,1474.853,-59.51,162.658,0,0,0,
,0.416,0.458,0.543,1306.274,32.653,182.617,0,0,0,
,0.332,0.545,0.514,932.067,185.119,252.99,0,0,0,
,0.349,0.638,0.419,688.415,344.299,280.517,0,0,0,
,0.314,0.741,0.399,454.834,482.666,310.18,0,0,0,
,0.3,0.7,0.387,281.677,502.929,282.47,0,0,0,
,0.229,0.541,0.536,150.634,483.276,344.421,0,0,0,
,0.303,0.539,0.745,57.8,370.605,324.401,0,0,0,
,0.332,0.739,0.734,-28.565,259.521,342.834,0,0,0,
,0.334,0.53,0.805,155.456,93.078,171.692,0,0,0,
,0.362,0.199,0.852,-219.3,-7.019,-15.748,0,0,0,
,0.374,0.23,0.762,-1033.57,-66.468,-224.671,0,0,0,
,0.45,0.689,0.639,-1368.165,-148.743,-279.297,0,0,0,
,0.501,1.214,0.544,-672.913,-284.302,-285.34,0,0,0,
,0.378,0.363,0.607,209.594,-328.248,-251.16,0,0,0,
,0.402,0.565,0.574,19.836,-165.467,-195.923,0,0,0,
,0.352,0.778,0.502,153.991,65.246,-101.014,0,0,0,
,0.422,0.855,0.328,312.194,207.214,49.865,0,0,0,
,0.364,0.902,0.244,467.041,355.163,162.292,0,0,0,
,0.396,0.885,0.313,541.137,428.65,217.773,0,0,0,
,0.385,0.73,0.512,525.573,412.17,269.47,0,0,0,
,0.382,0.536,0.649,375.427,292.602,283.874,0,0,0,
,0.407,0.609,0.518,108.215,107.666,199.34,0,0,0,
,0.375,0.646,0.563,-123.414,-91.736,18.615,0,0,0,
,0.358,0.336,0.806,-424.927,-322.937,-176.758,0,0,0,
,0.268,0.369,0.979,-863.343,-438.355,-346.436,0,0,0,
,0.319,0.672,0.838,-935.73,-513.489,-374.207,0,0,0,
,0.311,0.969,0.575,-546.143,-510.376,-337.281,0,0,0,
,0.237,0.938,0.425,-65.186,-433.228,-222.901,0,0,0,
,0.209,0.739,0.438,140.564,-299.439,-150.086,0,0,0,
,0.192,0.682,0.472,102.234,-154.786,-116.394,0,0,0,
,0.244,0.724,0.407,-88.99,130.371,-11.475,0,0,0,
,0.249,0.725,0.392,-152.894,223.693,24.902,0,0,0,
,0.289,0.706,0.39,-321.167,287.536,14.648,0,0,0,
,0.306,0.761,0.457,-472.29,359.863,-3.235,0,0,0,
,0.362,0.814,0.519,-480.286,413.391,-16.846,0,0,0,
,0.425,0.814,0.494,-390.259,444.03,-29.358,0,0,0,
,0.454,0.746,0.409,-249.146,464.843,-20.874,0,0,0,
,0.502,0.7,0.315,-264.283,469.787,18.676,0,0,0,
,0.597,0.706,0.337,-374.756,415.161,40.649,0,0,0,
,0.596,0.735,0.393,-388.367,429.199,53.833,0,0,0,
,0.611,0.763,0.456,-295.533,474.182,39.062,0,0,0,
,0.679,0.752,0.537,-243.348,502.075,32.714,0,0,0,
,0.753,0.727,0.644,-255.86,510.315,21.484,0,0,0,
,0.726,0.733,0.527,130.249,406.128,107.116,0,0,0,
,0.716,0.706,0.432,140.503,326.599,97.412,0,0,0,
,0.699,0.875,0.305,162.719,125.427,112.243,0,0,0,
,0.661,0.981,0.248,552.063,-278.443,77.636,0,0,0,
,0.544,0.661,0.378,647.216,-651.123,0.854,0,0,0,
,0.354,0.603,0.544,169.433,-747.742,-16.358,0,0,0,
,0.123,0.788,0.45,11.352,-505.921,-23.194,0,0,0,
,0.138,0.809,0.328,376.464,-519.654,-107.422,0,0,0,
,0.198,0.629,0.348,513.672,-551.148,-156.25,0,0,0,
,0.123,0.546,0.292,75.317,-492.371,-181.763,0,0,0,
,0.052,0.7,0.276,-446.167,-411.499,-211.853,0,0,0,
,0.151,0.96,0.399,-328.492,-61.219,-117.432,0,0,0,
,0.3,0.988,0.269,-238.099,148.254,-63.538,0,0,0,
,0.405,0.762,0.273,-228.089,292.846,-59.327,0,0,0,
,0.587,0.811,0.309,-477.173,311.096,19.409,0,0,0,
,0.657,1.045,0.541,-407.227,378.54,41.137,0,0,0,
,0.568,0.903,0.581,-22.95,517.639,44.494,0,0,0,
,0.667,0.692,0.479,57.861,517.944,36.987,0,0,0,
,0.742,0.823,0.506,275.512,592.651,104.248,0,0,0,
,0.726,0.935,0.457,441.65,286.132,160.949,0,0,0,
,0.65,0.503,0.459,539.611,-46.509,-18.25,0,0,0,
,0.192,0.768,0.492,-91.553,-593.384,-152.344,0,0,0,
,0.193,0.632,0.509,-75.806,-594.422,-284.485,0,0,0,
,0.223,0.804,0.361,-357.972,-562.806,-261.17,0,0,0,
,0.111,0.969,0.252,-349.427,-493.042,-265.748,0,0,0,
,0.126,0.879,0.238,-169.373,-385.376,-225.769,0,0,0,
,0.198,0.871,0.272,-165.528,-232.727,-140.992,0,0,0,
,0.187,1.07,0.266,-62.989,-45.716,-50.843,0,0,0,
,0.291,1.029,0.268,154.907,118.957,-22.217,0,0,0,
,0.384,0.92,0.254,150.879,270.935,-26.368,0,0,0,
,0.539,0.779,0.302,-24.048,368.652,-2.442,0,0,0,
,0.642,0.67,0.376,-307.251,428.1,51.208,0,0,0,
,0.712,0.875,0.441,-497.62,441.528,140.625,0,0,0,
,0.661,0.906,0.507,-222.535,523.01,138.305,0,0,0,
,0.643,0.826,0.538,69.274,541.076,149.78,0,0,0,
,0.682,0.772,0.463,216.919,515.808,122.68,0,0,0,
,0.596,0.779,0.365,404.724,472.961,55.603,0,0,0,
,0.62,0.781,0.311,619.262,263.61,-7.203,0,0,0,
,0.721,0.67,0.252,1000.061,-167.786,-5.249,0,0,0,
,0.651,0.527,0.548,1110.778,-534.302,-44.556,0,0,0,
,0.333,0.245,0.689,426.33,-506.104,-128.296,0,0,0,
,0.354,0.391,0.622,-411.377,-565.43,-159.546,0,0,0,
,0.416,0.772,0.414,-638.001,-601.319,-209.351,0,0,0,
,0.334,0.888,0.353,-321.961,-747.559,-206.36,0,0,0,
,0.217,0.75,0.339,-269.104,-710.083,-222.474,0,0,0,
,0.157,0.877,0.287,-684.815,-588.562,-242.066,0,0,0,
,0.082,1.135,0.254,-579.956,-460.877,-227.723,0,0,0,
,0.061,1.169,0.18,11.535,-339.234,-215.088,0,0,0,
,0.084,0.96,0.232,417.358,-180.298,-205.445,0,0,0,
,0.116,0.752,0.287,317.138,7.995,-166.016,0,0,0,
,0.28,0.532,0.064,69.824,28.442,-153.687,0,0,0,
,0.476,0.944,0.582,203.247,310.913,214.721,0,0,0,
,0.361,0.448,0.35,-55.359,472.595,89.66,0,0,0,
,0.559,0.484,0.224,-571.045,526.123,85.632,0,0,0,
,0.594,0.675,0.123,-715.76,546.02,104.736,0,0,0,
,0.579,0.809,0.347,-377.198,527.038,127.502,0,0,0,
,0.567,0.872,0.499,99.182,493.957,135.131,0,0,0,
,0.599,0.868,0.573,404.48,448.059,85.144,0,0,0,
,0.611,0.77,0.659,503.845,413.757,12.634,0,0,0,
,0.589,0.634,0.67,409.912,358.459,-50.965,0,0,0,
,0.559,0.548,0.593,319.213,309.204,-73.67,0,0,0,
,0.601,0.508,0.405,301.635,223.083,-52.063,0,0,0,
,0.665,0.681,0.353,138.183,37.78,27.587,0,0,0,
,0.577,0.831,0.356,-18.921,-345.704,44.677,0,0,0,
,0.374,0.843,0.267,72.998,-514.405,-3.357,0,0,0,
,0.252,0.826,0.399,343.689,-626.77,-101.197,0,0,0,
,0.256,0.65,0.521,332.702,-708.313,-169.739,0,0,0,
,0.213,0.614,0.553,37.78,-726.197,-253.663,0,0,0,
,0.195,0.686,0.406,-413.514,-690.43,-349.61,0,0,0,
,0.206,0.915,0.297,-684.876,-627.808,-320.313,0,0,0,
,0.192,1.065,0.222,-560.791,-534.913,-247.376,0,0,0,
,0.207,1.081,0.26,-165.467,-360.352,-128.846,0,0,0,
,0.242,0.937,0.257,121.887,-139.954,-9.339,0,0,0,
,0.23,0.866,0.274,193.054,92.041,93.261,0,0,0,
,0.281,0.81,0.219,59.204,228.576,88.562,0,0,0,
,0.328,0.916,0.244,-187.134,450.195,111.633,0,0,0,
,0.421,0.889,0.228,-181.946,628.784,33.874,0,0,0,
,0.504,0.901,0.443,-135.865,711.914,19.287,0,0,0,
,0.573,0.876,0.547,2.99,811.828,24.292,0,0,0,
,0.666,0.73,0.525,201.233,899.047,52.856,0,0,0,
,0.795,0.532,0.407,363.342,875.305,133.117,0,0,0,
,0.859,0.768,0.355,350.402,703.064,301.696,0,0,0,
,0.812,0.909,0.37,497.192,341.98,216.064,0,0,0,
,0.662,0.63,0.369,730.896,-61.646,29.541,0,0,0,
,0.534,0.438,0.539,731.872,-437.256,-14.283,0,0,0,
,0.293,0.372,0.558,368.835,-531.617,-99.366,0,0,0,
,0.236,0.428,0.482,-239.38,-667.969,-212.037,0,0,0,
,0.228,0.753,0.473,-690.491,-727.967,-313.294,0,0,0,
,0.234,0.948,0.44,-647.828,-728.15,-350.525,0,0,0,
,0.167,0.826,0.345,-483.399,-635.193,-286.683,0,0,0,
,0.202,0.811,0.348,-495.423,-496.766,-205.994,0,0,0,
,0.209,0.952,0.313,-442.444,-260.804,-127.686,0,0,0,
,0.269,0.995,0.36,-289.246,7.263,-66.956,0,0,0,
,0.331,0.981,0.356,-234.742,211.486,-29.725,0,0,0,
,0.416,1.114,0.416,-188.782,390.258,14.526,0,0,0,
,0.482,0.862,0.391,72.143,637.39,-31.373,0,0,0,
,0.522,0.76,0.397,272.461,751.037,28.625,0,0,0,
,0.673,0.723,0.339,458.252,681.335,116.394,0,0,0,
,0.68,0.726,0.288,577.026,642.517,165.527,0,0,0,
,0.78,0.687,0.346,510.254,254.028,120.422,0,0,0,
,0.689,0.577,0.498,214.05,-205.14,-15.137,0,0,0,
,0.387,0.459,0.535,-100.159,-373.23,-98.206,0,0,0,
,0.337,0.473,0.435,-474.427,-553.04,-230.652,0,0,0,
,0.257,0.784,0.331,-787.415,-673.34,-306.397,0,0,0,
,0.134,1.038,0.264,-698.914,-673.157,-381.531,0,0,0,
,0.152,0.941,0.274,-478.028,-579.59,-318.543,0,0,0,
,0.263,0.944,0.185,-547.73,-377.503,-164.795,0,0,0,
,0.283,1.278,0.129,-354.432,-68.848,-52.735,0,0,0,
,0.397,1.216,0.188,59.57,179.138,17.883,0,0,0,
,0.456,1.032,0.25,300.048,397.827,87.28,0,0,0,
,0.482,0.792,0.371,435.241,538.94,105.041,0,0,0,
,0.568,0.657,0.431,270.08,596.74,202.087,0,0,0,
,0.565,0.691,0.549,152.465,663.147,178.772,0,0,0,
,0.623,0.592,0.274,86.792,514.221,172.668,0,0,0,
,0.604,0.7,0.166,172.18,293.029,93.872,0,0,0,
,0.626,0.744,0.285,407.653,-96.863,-0.733,0,0,0,
,0.49,0.603,0.533,528.869,-313.355,-49.134,0,0,0,
,0.393,0.412,0.596,334.228,-487.977,-185.852,0,0,0,
,0.359,0.358,0.586,-294.556,-601.258,-350.098,0,0,0,
,0.368,0.744,0.431,-1101.075,-618.287,-289.795,0,0,0,
,0.233,1.118,0.255,-1011.841,-489.441,-222.535,0,0,0,
,0.216,1.046,0.294,-396.546,-287.903,-134.522,0,0,0,
,0.3,1.093,0.304,-237.977,-48.34,-62.012,0,0,0,
,0.385,1.29,0.268,-107.789,131.836,-1.648,0,0,0,
,0.394,1.101,0.269,261.23,269.287,19.165,0,0,0,
,0.463,0.769,0.346,-62.684,654.968,81.42,0,0,0,
,0.516,0.795,0.14,81.787,701.843,122.253,0,0,0,
,0.58,0.913,0.071,488.281,638.855,135.07,0,0,0,
,0.666,0.966,0.098,1095.031,268.005,132.568,0,0,0,
,0.605,0.665,0.375,1371.643,-149.048,25.634,0,0,0,
,0.341,0.178,0.626,994.506,-241.211,-47.425,0,0,0,
,0.293,0.051,0.708,78.491,-275.025,-183.533,0,0,0,
,0.38,0.622,0.633,-757.142,-221.192,-101.99,0,0,0,
,0.301,1.318,0.508,-431.702,-100.769,-121.644,0,0,0,
,0.389,1.222,0.465,506.042,-143.311,-60.669,0,0,0,
,0.398,0.858,0.527,801.757,-167.176,20.813,0,0,0,
,0.393,0.904,0.506,702.331,-144.776,25.329,0,0,0,
,0.49,1.039,0.489,1127.319,-147.095,15.564,0,0,0,
,0.504,0.975,0.475,1696.228,-203.553,58.166,0,0,0,
,0.425,0.509,0.661,1896.667,-181.58,23.01,0,0,0,
,0.495,0.821,0.533,1548.828,-91.797,180.359,0,0,0,
,0.466,0.688,0.492,1572.448,13.916,134.216,0,0,0,
,0.425,0.331,0.573,1322.998,110.351,210.754,0,0,0,
,0.457,0.501,0.698,782.531,138.061,289.672,0,0,0,
,0.356,0.753,0.645,516.357,186.95,289.55,0,0,0,
,0.406,0.539,0.486,456.726,262.695,234.802,0,0,0,
,0.401,0.482,0.281,214.233,317.382,300.598,0,0,0,
,0.333,0.542,0.381,-9.766,349.365,386.108,0,0,0,
,0.301,0.538,0.539,-186.707,428.588,419.128,0,0,0,
,0.316,0.531,0.595,-290.955,443.054,425.232,0,0,0,
,0.243,0.551,0.577,-294.068,461.486,437.378,0,0,0,
,0.232,0.54,0.558,-373.414,440.49,413.208,0,0,0,
,0.259,0.521,0.614,-477.051,404.907,291.32,0,0,0,
,0.269,0.416,0.716,-600.159,367.309,197.815,0,0,0,
,0.284,0.381,0.802,-762.452,354.309,126.892,0,0,0,
,0.413,0.58,0.661,-756.775,185.852,74.585,0,0,0,
,0.435,0.706,0.684,-562.439,139.221,33.203,0,0,0,
,0.508,0.657,0.745,-365.479,40.405,-22.034,0,0,0,
,0.535,0.505,0.765,-284.668,-87.342,-82.886,0,0,0,
,0.573,0.538,0.763,-343.689,-148.194,-141.663,0,0,0,
,0.651,0.715,0.754,-363.831,-218.262,-232.056,0,0,0,
,0.667,0.798,0.67,201.477,-487.183,-266.297,0,0,0,
,0.658,0.619,0.727,642.822,-630.127,-253.418,0,0,0,
,0.603,0.451,0.817,678.833,-593.567,-286.805,0,0,0,
,0.575,0.72,0.694,721.313,-465.088,-312.867,0,0,0,
,0.565,0.712,0.602,1046.753,-460.816,-279.114,0,0,0,
,0.446,0.618,0.544,1139.953,-379.7,-206.665,0,0,0,
,0.347,0.546,0.567,915.283,-265.87,-153.748,0,0,0,
,0.274,0.553,0.743,589.477,-88.929,-78.064,0,0,0,
,0.267,0.612,0.74,423.828,105.957,41.992,0,0,0,
,0.287,0.77,0.585,345.398,289.184,169.372,0,0,0,
,0.325,0.773,0.369,329.956,346.252,279.724,0,0,0,
,0.27,0.656,0.384,256.469,375.671,372.619,0,0,0,
,0.261,0.406,0.621,-107.972,392.089,461.547,0,0,0,
,0.255,0.476,0.739,-749.39,347.656,382.629,0,0,0,
,0.354,0.58,0.677,-631.47,285.217,263.122,0,0,0,
,0.456,0.61,0.752,-403.504,144.409,100.525,0,0,0,
,0.453,0.44,0.882,-330.872,-35.218,-90.332,0,0,0,
,0.454,0.365,0.904,-468.811,-165.833,-229.859,0,0,0,
,0.539,0.684,0.771,472.107,-502.625,-411.866,0,0,0,
,0.477,0.41,0.831,590.698,-471.436,-407.471,0,0,0,
,0.46,0.396,0.78,396.911,-310.242,-383.667,0,0,0,
,0.524,0.365,0.64,231.201,-232.483,-313.477,0,0,0,
,0.477,0.427,0.731,-113.709,-107.85,-107.727,0,0,0,
,0.405,1.053,0.618,-313.843,31.555,84.655,0,0,0,
,0.473,0.825,0.531,-181.519,56.274,156.189,0,0,0,
,0.412,0.626,0.505,-248.963,90.454,203.064,0,0,0,
,0.312,0.502,0.364,-456.604,154.724,218.994,0,0,0,
,0.376,0.551,0.33,-716.736,234.924,264.404,0,0,0,
,0.353,0.624,0.471,-836.792,277.71,210.388,0,0,0,
,0.332,0.662,0.566,-759.888,260.254,163.757,0,0,0,
,0.323,0.736,0.664,-442.139,257.568,120.666,0,0,0,
,0.347,0.775,0.731,-46.204,210.632,-10.926,0,0,0,
,0.366,0.802,0.802,406.433,146.667,-165.955,0,0,0,
,0.416,0.536,0.692,743.53,18.493,-243.164,0,0,0,
,0.478,0.402,0.689,838.379,-133.973,-282.227,0,0,0,
,0.499,0.292,0.779,656.799,-277.161,-323.914,0,0,0,
,0.493,0.338,0.876,173.217,-340.394,-338.562,0,0,0,
,0.509,0.498,0.855,-346.131,-348.328,-386.414,0,0,0,
,0.582,0.559,0.751,-734.62,-402.405,-381.287,0,0,0,
,0.411,0.78,0.675,-1040.162,-290.955,-276.001,0,0,0,
,0.392,1.255,0.545,-763.733,-190.369,-156.434,0,0,0,
,0.411,1.083,0.475,-147.583,-184.998,-67.749,0,0,0,
,0.308,0.826,0.425,122.131,-54.749,118.164,0,0,0,
,0.283,0.849,0.341,200.805,105.651,210.754,0,0,0,
,0.394,0.671,0.311,229.736,186.096,248.657,0,0,0,
,0.313,0.671,0.317,157.287,276.672,298.401,0,0,0,
,0.308,0.68,0.436,146.911,311.218,328.796,0,0,0,
,0.301,0.653,0.59,236.633,326.904,303.344,0,0,0,
,0.313,0.598,0.704,261.474,347.9,249.389,0,0,0,
,0.341,0.562,0.789,207.031,354.797,138.977,0,0,0,
,0.359,0.446,0.717,237.487,295.715,0.61,0,0,0,
,0.414,0.43,0.689,217.041,171.997,-74.402,0,0,0,
,0.524,0.52,0.694,257.446,-24.353,-106.08,0,0,0,
,0.561,0.607,0.818,458.923,-273.56,-157.41,0,0,0,
,0.481,0.565,0.902,645.813,-446.656,-220.215,0,0,0,
,0.39,0.519,0.839,667.358,-438.904,-294.617,0,0,0,
,0.422,0.463,0.701,474.426,-436.951,-274.109,0,0,0,
,0.402,0.447,0.659,249.511,-322.022,-258.057,0,0,0,
,0.353,0.585,0.631,-125.733,-224.671,-124.817,0,0,0,
,0.311,0.792,0.561,-129.7,-16.602,-33.753,0,0,0,
,0.338,0.604,0.563,-83.008,142.028,61.828,0,0,0,
,0.354,0.57,0.465,-302.369,262.451,148.864,0,0,0,
,0.34,0.605,0.442,-496.644,374.694,227.111,0,0,0,
,0.383,0.579,0.528,-600.098,434.875,236.389,0,0,0,
,0.405,0.575,0.647,-677.979,460.51,229.614,0,0,0,
,0.404,0.618,0.742,-589.661,451.538,180.481,0,0,0,
,0.413,0.633,0.802,-391.358,412.231,79.223,0,0,0,
,0.435,0.604,0.758,-231.568,331.665,-40.162,0,0,0,
,0.463,0.599,0.723,-151.429,198.669,-99.305,0,0,0,
,0.557,0.579,0.707,-56.336,-38.025,-198.975,0,0,0,
,0.535,0.522,0.719,-37.354,-255.249,-276.429,0,0,0,
,0.496,0.511,0.723,-94.91,-400.879,-308.594,0,0,0,
,0.465,0.54,0.722,-164.49,-457.276,-336.304,0,0,0,
,0.444,0.69,0.665,-132.874,-466.37,-358.399,0,0,0,
,0.516,0.735,0.463,-97.901,-562.745,-401.612,0,0,0,
,0.484,0.659,0.461,-157.471,-587.769,-373.169,0,0,0,
,0.371,0.863,0.305,-490.967,-491.028,-189.026,0,0,0,
,0.312,0.981,0.23,-461.914,-363.343,-86.67,0,0,0,
,0.325,0.883,0.459,-222.657,-275.818,-35.218,0,0,0,
,0.287,0.758,0.475,-296.265,-8.179,124.878,0,0,0,
,0.265,0.781,0.375,-423.157,311.767,200.927,0,0,0,
,0.326,0.818,0.297,-567.078,532.837,288.147,0,0,0,
,0.335,0.895,0.298,-410.035,653.869,291.504,0,0,0,
,0.373,0.996,0.479,92.956,564.27,287.109,0,0,0,
,0.425,0.936,0.651,756.164,401.306,210.144,0,0,0,
,0.45,0.601,0.754,1150.756,181.152,81.848,0,0,0,
,0.451,0.329,0.762,1129.272,-61.28,-42.237,0,0,0,
,0.429,0.088,0.904,-448.426,-524.109,-360.23,0,0,0,
,0.485,0.513,0.884,-935.914,-510.987,-393.555,0,0,0,
,0.487,0.81,0.708,-796.57,-549.073,-441.651,0,0,0,
,0.359,0.803,0.639,-504.09,-527.161,-410.889,0,0,0,
,0.34,0.759,0.574,-363.221,-406.067,-313.965,0,0,0,
,0.294,0.715,0.587,-322.51,-83.069,-208.863,0,0,0,
,0.341,0.738,0.364,-666.199,211.242,-66.285,0,0,0,
,0.369,0.815,0.269,-1010.376,491.638,14.526,0,0,0,
,0.547,0.964,0.22,-1016.419,608.947,73.791,0,0,0,
,0.647,1.233,0.213,-575.135,577.514,147.338,0,0,0,
,0.65,0.902,0.382,1290.039,-29.48,-3.968,0,0,0,
,0.412,0.414,0.614,1449.646,-220.887,-74.891,0,0,0,
,0.255,0.143,0.67,999.267,-331.665,-175.965,0,0,0,
,0.244,0.175,0.619,296.936,-418.519,-256.897,0,0,0,
,0.246,0.413,0.72,-133.545,-478.943,-365.357,0,0,0,
,0.197,0.577,0.728,-246.155,-412.659,-338.623,0,0,0,
,0.226,0.808,0.519,-253.357,-311.341,-203.309,0,0,0,
,0.233,0.921,0.42,-277.71,-148.194,-108.948,0,0,0,
,0.255,0.989,0.427,-237.61,45.654,14.648,0,0,0,
,0.303,0.924,0.454,-202.271,258.178,90.026,0,0,0,
,0.377,0.806,0.557,-247.925,406.494,146.179,0,0,0,
,0.484,0.747,0.664,-497.986,464.538,149.292,0,0,0,
,0.604,0.764,0.526,-747.803,431.518,183.471,0,0,0,
,0.561,0.928,0.522,-572.571,500.793,151.611,0,0,0,
,0.575,0.801,0.47,-83.374,415.283,133.056,0,0,0,
,0.61,0.529,0.409,285.461,227.356,58.776,0,0,0,
,0.538,0.457,0.492,419.555,52.856,-24.231,0,0,0,
,0.528,0.503,0.606,441.65,-110.108,-65.003,0,0,0,
,0.511,0.409,0.759,447.754,-273.865,-179.383,0,0,0,
,0.461,0.369,0.737,230.407,-363.526,-271.546,0,0,0,
,0.38,0.418,0.642,-145.081,-423.035,-350.098,0,0,0,
,0.349,0.582,0.431,-586.487,-492.676,-438.538,0,0,0,
,0.293,0.835,0.391,-894.471,-523.438,-423.523,0,0,0,
,0.286,0.94,0.388,-870.972,-548.096,-419.861,0,0,0,
,0.253,0.957,0.393,-718.567,-465.638,-292.359,0,0,0,
,0.239,0.963,0.324,-545.899,-309.754,-165.284,0,0,0,
,0.254,1.002,0.274,-435.364,-105.286,-59.937,0,0,0,
,0.306,1.044,0.266,-280.03,106.567,-20.569,0,0,0,
,0.376,0.913,0.314,-168.58,260.376,32.043,0,0,0,
,0.423,0.916,0.425,-73.548,423.645,64.941,0,0,0,
,0.475,0.908,0.567,121.338,575.012,69.763,0,0,0,
,0.496,0.817,0.669,305.603,688.537,63.598,0,0,0,
,0.593,0.653,0.381,348.999,658.203,91.064,0,0,0,
,0.599,0.634,0.246,483.764,587.341,118.713,0,0,0,
,0.686,0.957,0.484,401.611,269.592,224.06,0,0,0,
,0.559,0.768,0.577,653.442,-89.234,13.61,0,0,0,
,0.508,0.359,0.69,450.317,-283.631,-92.041,0,0,0,
,0.372,0.602,0.546,-8.301,-388.611,-60.791,0,0,0,
,0.36,0.754,0.4,4.15,-549.744,-190.247,0,0,0,
,0.238,0.55,0.444,-204.651,-641.846,-290.528,0,0,0,
,0.146,0.593,0.467,-742.676,-579.041,-224.671,0,0,0,
,0.189,0.767,0.466,-950.745,-452.881,-204.834,0,0,0,
,0.18,0.904,0.379,-798.584,-234.681,-86.609,0,0,0,
,0.218,0.943,0.292,-560.364,-24.903,-58.472,0,0,0,
,0.309,0.922,0.225,-462.098,196.594,-25.391,0,0,0,
,0.373,0.923,0.315,-404.725,398.498,-28.382,0,0,0,
,0.506,0.859,0.327,-334.534,539.001,-58.96,0,0,0,
,0.542,0.791,0.384,-157.044,731.445,-30.091,0,0,0,
,0.596,0.715,0.255,64.331,844.909,53.283,0,0,0,
,0.726,0.752,0.155,368.469,714.721,184.326,0,0,0,
,0.826,1.022,0.256,806.762,481.323,177.551,0,0,0,
,0.772,0.793,0.468,1078.552,97.839,32.714,0,0,0,
,0.624,0.356,0.561,818.42,-195.008,-36.011,0,0,0,
,0.585,0.295,0.453,337.829,-424.805,-20.508,0,0,0,
,0.469,0.45,0.557,-263.184,-586.792,-145.63,0,0,0,
,0.318,0.708,0.649,-647.034,-673.035,-260.865,0,0,0,
,0.212,0.94,0.267,-874.878,-643.616,-336.121,0,0,0,
,0.247,1.091,0.169,-948.67,-513.123,-261.536,0,0,0,
,0.253,1.155,0.153,-679.444,-324.524,-110.657,0,0,0,
,0.22,1.199,0.192,-143.006,-44.19,-0.061,0,0,0,
,0.278,1.206,0.196,343.322,236.999,59.57,0,0,0,
,0.347,1.063,0.264,545.837,454.04,51.94,0,0,0,
,0.407,0.986,0.419,492.859,592.346,25.451,0,0,0,
,0.444,0.832,0.275,523.62,732.91,122.985,0,0,0,
,0.483,0.455,0.282,611.389,876.892,178.222,0,0,0,
,0.654,0.558,0.341,516.54,874.206,381.958,0,0,0,
,0.743,0.98,0.314,433.96,810.363,341.735,0,0,0,
,0.832,0.728,0.4,597.595,405.395,108.093,0,0,0,
,0.742,0.411,0.595,768.493,-61.097,15.808,0,0,0,
,0.554,0.346,0.498,650.634,-384.034,5.676,0,0,0,
,0.409,0.347,0.493,260.254,-554.749,-126.709,0,0,0,
,0.34,0.443,0.402,-212.037,-681.946,-220.459,0,0,0,
,0.293,0.75,0.375,-488.831,-789.978,-266.419,0,0,0,
,0.204,0.802,0.395,-669.922,-788.88,-383.362,0,0,0,
,0.113,0.76,0.39,-873.414,-584.595,-269.959,0,0,0,
,0.149,0.963,0.368,-862.915,-279.664,-139.344,0,0,0,
,0.268,1.412,0.227,-291.565,82.153,-4.395,0,0,0,
,0.36,1.35,0.176,415.588,342.285,46.447,0,0,0,
,0.44,0.905,0.412,556.701,515.564,59.204,0,0,0,
,0.514,0.882,0.497,362.365,674.56,143.005,0,0,0,
,0.503,0.796,0.422,470.214,903.198,184.509,0,0,0,
,0.512,0.605,0.411,649.231,998.535,257.812,0,0,0,
,0.591,0.574,0.383,580.139,1018.127,286.987,0,0,0,
,0.693,0.609,0.273,453.491,851.501,218.078,0,0,0,
,0.906,0.404,0.497,278.93,127.868,35.156,0,0,0,
,0.792,0.454,0.751,-31.922,-342.408,64.514,0,0,0,
,0.499,0.555,0.661,-82.032,-550.477,-89.966,0,0,0,
,0.408,0.396,0.603,-149.109,-663.392,-309.144,0,0,0,
,0.413,0.487,0.628,-541.26,-712.342,-303.528,0,0,0,
,0.355,0.695,0.522,-943.787,-563.782,-237.122,0,0,0,
,0.405,0.994,0.43,-882.691,-459.107,-151.123,0,0,0,
,0.387,1.195,0.408,-272.889,-384.522,-79.529,0,0,0,
,0.325,0.904,0.432,697.021,-82.276,13.366,0,0,0,
,0.388,1.068,0.362,789.001,15.075,71.655,0,0,0,
,0.498,1.046,0.413,1000.244,18.493,11.962,0,0,0,
,0.548,1.021,0.525,1624.694,-34.302,4.333,0,0,0,
,0.543,0.987,0.514,1972.168,-37.232,53.344,0,0,0,
,0.574,0.706,0.675,1999.694,-39.185,17.028,0,0,0,
,0.572,0.509,0.769,1857.605,40.954,51.94,0,0,0,
,0.543,0.561,0.844,1463.867,149.841,58.105,0,0,0,
,0.408,0.567,0.708,1142.7,298.828,-46.326,0,0,0,
,0.377,0.726,0.735,1083.13,415.039,35.766,0,0,0,
,0.283,0.571,0.589,987.121,546.142,21.606,0,0,0,
,0.278,0.243,0.282,846.008,470.947,173.645,0,0,0,
,0.252,0.287,0.282,809.143,366.516,483.703,0,0,0,
,0.231,0.362,0.602,660.278,289.55,576.599,0,0,0,
,0.201,0.253,0.727,455.688,308.593,588.623,0,0,0,
,0.192,0.083,0.825,44.86,279.113,541.565,0,0,0,
,0.153,0.101,0.814,-400.025,328.247,548.462,0,0,0,
,0.168,0.071,0.616,-600.464,382.934,416.87,0,0,0,
,0.295,0.132,0.419,-606.934,377.38,216.369,0,0,0,
,0.456,0.399,0.418,-549.683,230.835,99.914,0,0,0,
,0.599,0.727,0.568,-94.422,-74.158,-96.985,0,0,0,
,0.675,0.387,0.632,515.503,-460.083,-368.348,0,0,0,
,0.576,0.421,0.782,911.01,-467.469,-500.55,0,0,0,
,0.695,0.451,0.989,1245.117,-545.777,-596.375,0,0,0,
,0.788,0.154,1.284,1276.794,-647.522,-617.554,0,0,0,
,0.541,-0.074,1.228,756.836,-206.055,-398.377,0,0,0,
,0.576,0.259,1.082,298.034,68.359,-244.08,0,0,0,
,0.528,0.405,0.975,138.855,262.207,-217.835,0,0,0,
,0.48,0.383,0.91,119.018,445.617,-37.232,0,0,0,
,0.548,0.396,0.75,266.174,503.784,132.873,0,0,0,
,0.537,0.328,0.738,292.968,465.026,314.453,0,0,0,
,0.394,0.358,0.682,21.484,428.955,541.809,0,0,0,
,0.228,0.316,0.619,-1046.692,297.607,580.81,0,0,0,
,0.191,0.745,0.542,-819.092,408.935,359.741,0,0,0,
,0.325,0.915,0.597,-162.964,396.118,203.674,0,0,0,
,0.595,0.741,0.643,725.586,149.17,5.31,0,0,0,
,0.777,0.241,0.778,1522.277,-307.862,-262.818,0,0,0,
,0.716,-0.28,1.186,1606.262,-510.01,-421.021,0,0,0,
,0.689,-0.305,1.468,1191.162,-282.593,-337.83,0,0,0,
,0.898,-0.181,1.443,778.32,-67.566,-335.328,0,0,0,
,0.991,-0.151,1.294,418.151,5.31,-371.888,0,0,0,
,0.907,-0.083,1.155,111.023,30.944,-306.885,0,0,0,
,0.788,-0.089,0.744,-115.784,146.728,-190.979,0,0,0,
,0.749,0.005,0.657,-275.269,37.353,47.729,0,0,0,
,0.574,0.24,0.638,-441.407,-41.993,422.546,0,0,0,
,0.251,0.317,0.59,-542.603,-77.454,677.368,0,0,0,
,0.069,0.357,0.376,-736.329,151.367,807.006,0,0,0,
,0.077,0.307,0.265,-894.165,184.753,678.1,0,0,0,
,0.156,0.345,0.229,-1149.903,193.237,536.316,0,0,0,
,0.127,0.689,0.329,-1032.654,166.626,497.741,0,0,0,
,0.039,1.503,0.47,46.203,431.823,328.186,0,0,0,
,0.263,0.913,0.556,1860.778,228.088,-455.506,0,0,0,
,0.966,-0.212,1.009,1999.694,-668.091,-945.984,0,0,0,
,0.754,-0.956,1.452,1894.958,-707.398,-536.744,0,0,0,
,0.442,-0.51,1.474,741.516,-260.498,-180.664,0,0,0,
,0.599,-0.217,1.403,35.217,186.279,-417.298,0,0,0,
,0.781,0.063,0.942,-444.031,411.071,-231.873,0,0,0,
,0.723,0.183,0.666,-512.024,392.334,14.953,0,0,0,
,0.584,0.148,0.484,-394.959,366.821,247.497,0,0,0,
,0.501,0.055,0.333,-432.007,358.886,447.448,0,0,0,
,0.458,-0.018,0.317,-751.77,251.831,498.901,0,0,0,
,0.434,-0.007,0.503,-1289.856,67.138,573.608,0,0,0,
,0.263,0.228,0.306,-1713.379,158.142,511.047,0,0,0,
,0.359,0.851,0.33,-1749.512,210.754,373.779,0,0,0,
,0.206,2.249,0.658,-422.547,861.206,71.899,0,0,0,
,0.867,1.442,0.313,1999.694,-46.753,-703.736,0,0,0,
,1.31,0.052,1.278,1999.694,-1278.199,-1142.884,0,0,0,
,0.406,-1.395,1.523,1999.694,-859.681,-415.101,0,0,0,
,0.014,-0.893,1.343,382.324,-144.593,-325.196,0,0,0,
,0.358,-0.04,0.988,-511.231,634.399,-326.416,0,0,0,
,0.689,0.248,0.47,-578.003,857.116,-30.945,0,0,0,
,0.787,0.255,0.343,-292.908,494.384,210.51,0,0,0,
,0.641,0.141,0.337,-218.934,230.102,386.23,0,0,0,
,0.492,-0.277,0.483,-550.538,108.215,307.922,0,0,0,
,0.395,-0.232,0.493,-1255.311,177.429,556.274,0,0,0,
,0.365,0.188,0.342,-1991.334,214.843,509.338,0,0,0,
,0.469,0.99,0.293,-1999.39,239.685,461.425,0,0,0,
,0.525,2.236,0.765,-940.369,451.049,216.797,0,0,0,
,0.514,1.614,0.289,1820.19,75.622,-573.06,0,0,0,
,1.18,0.18,1.423,1999.694,-1095.398,-1283.875,0,0,0,
,0.564,-1.232,1.611,1970.092,-897.4,-599.427,0,0,0,
,-0.012,-0.786,1.185,331.359,-190.491,-354.371,0,0,0,
,0.239,0.055,0.842,-556.763,617.126,-229.981,0,0,0,
,0.715,0.119,0.33,-610.596,953.186,-46.57,0,0,0,
,1.014,0.136,0.239,-550.538,499.878,307.678,0,0,0,
,0.769,0.116,0.372,-682.129,83.129,360.595,0,0,0,
,0.489,-0.013,0.587,-981.446,-45.105,407.409,0,0,0,
,0.387,0.162,0.444,-1627.503,134.826,586.853,0,0,0,
,0.46,0.448,0.204,-1879.639,154.785,377.99,0,0,0,
,0.583,1.342,0.202,-1496.033,-25.635,316.162,0,0,0,
,0.38,2.266,0.711,521.423,-1.099,-239.93,0,0,0,
,0.925,1.004,1.186,1999.694,-889.954,-910.096,0,0,0,
,0.777,-0.799,1.399,1999.694,-778.504,-923.829,0,0,0,
,0.18,-0.914,1.292,928.833,-255.616,-414.185,0,0,0,
,0.284,-0.111,1.162,-250.733,520.08,-298.34,0,0,0,
,0.714,0.11,0.501,-635.437,1050.293,8.606,0,0,0,
,1.081,0.204,0.088,-689.82,611.145,454.223,0,0,0,
,0.825,0.323,0.134,-830.201,17.273,478.637,0,0,0,
,0.43,0.27,0.415,-1055.848,-159.119,533.447,0,0,0,
,0.275,0.32,0.234,-1561.89,24.475,571.594,0,0,0,
,0.351,0.7,0.073,-1667.847,76.049,507.324,0,0,0,
,0.445,1.61,0.126,-1224.061,-91.187,440.551,0,0,0,
,0.267,2.227,0.697,958.557,-139.1,-280.396,0,0,0,
,0.855,0.858,1.43,1999.694,-1006.714,-872.559,0,0,0,
,0.734,-0.978,1.514,1999.694,-830.933,-1060.12,0,0,0,
,0.177,-1.203,1.281,1001.403,-414.49,-603.638,0,0,0,
,0.234,-0.1,1.071,-151.551,415.954,-374.329,0,0,0,
,0.699,0.126,0.437,-364.808,965.271,-319.825,0,0,0,
,1.15,0.081,0.012,-337.525,563.659,71.533,0,0,0,
,0.958,0.214,0.198,-454.468,24.963,292.541,0,0,0,
,0.584,0.225,0.729,-645.325,-123.963,421.02,0,0,0,
,0.421,0.267,0.646,-872.193,81.359,645.263,0,0,0,
,0.44,0.109,0.468,-1437.684,110.595,611.938,0,0,0,
,0.405,0.224,0.342,-1899.354,58.593,650.329,0,0,0,
,0.424,1.018,0.272,-1775.818,-18.372,571.777,0,0,0,
,0.519,1.763,0.8,-848.328,-237.244,126.342,0,0,0,
,0.301,2.072,0.377,1944.641,-112.305,-533.509,0,0,0,
,0.92,0.543,0.695,1999.694,-1082.459,-1101.868,0,0,0,
,0.405,-1.225,1.238,1999.694,-1138.367,-1377.015,0,0,0,
,-0.19,-1.741,1.085,1006.652,-42.664,-389.222,0,0,0,
,0.24,-0.336,0.899,-718.201,753.418,-255.005,0,0,0,
,0.886,0.347,0.373,-1221.619,1133.239,228.454,0,0,0,
,1.032,0.708,0.238,-918.213,597.656,465.82,0,0,0,
,0.808,0.512,0.594,-583.252,116.455,406.189,0,0,0,
,0.542,0.284,0.771,-660.828,109.802,626.709,0,0,0,
,0.503,0.066,0.64,-1109.498,200.927,603.576,0,0,0,
,0.557,0.064,0.389,-1687.256,166.015,603.637,0,0,0,
,0.52,0.415,0.125,-1889.1,57.495,580.383,0,0,0,
,0.478,1.311,0.123,-1562.073,-108.277,441.528,0,0,0,
,0.443,2.157,0.892,266.784,-260.437,-77.881,0,0,0,
,0.42,1.233,0.675,1999.694,-689.331,-865.418,0,0,0,
,0.758,-0.291,1.182,1999.694,-1014.039,-1180.909,0,0,0,
,0.124,-1.521,1.196,1904.785,-686.402,-1009.644,0,0,0,
,0.605,0.325,0.732,-709.229,1175.659,-141.724,0,0,0,
,1.209,0.497,0.368,-584.534,990.112,281.005,0,0,0,
,1.179,0.428,0.391,-437.5,257.812,398.559,0,0,0,
,0.704,0.239,0.724,-567.627,-23.438,507.324,0,0,0,
,0.57,0.202,0.634,-913.819,65.002,650.451,0,0,0,
,0.618,0.144,0.428,-1533.936,-17.09,513.61,0,0,0,
,0.518,0.656,0.04,-1604.493,-49.5,585.144,0,0,0,
,0.453,1.604,-0.096,-1004.334,-288.269,452.942,0,0,0,
,0.284,2.187,0.702,863.952,-257.447,-270.325,0,0,0,
,0.143,1.051,0.504,1999.694,-548.218,-670.777,0,0,0,
,0.594,-0.569,1.155,1999.694,-839.112,-1346.131,0,0,0,
,0.158,-2.113,1.366,1999.694,-487.61,-922.303,0,0,0,
,0.05,-0.872,1.139,17.883,388.366,-188.904,0,0,0,
,0.682,0.223,0.698,-972.229,1004.455,-69.642,0,0,0,
,1.239,0.43,0.396,-784.546,684.692,176.147,0,0,0,
,1.239,0.265,0.783,-603.028,-276.307,268.554,0,0,0,
,0.34,0.049,0.962,-730.774,-340.332,448.059,0,0,0,
,0.27,-0.077,0.586,-1104.371,202.453,553.466,0,0,0,
,0.637,0.064,0.179,-1592.469,279.48,638.305,0,0,0,
,0.574,0.454,0,-1844.788,34.118,646.545,0,0,0,
,0.409,1.209,0.07,-1456.727,-137.818,604.736,0,0,0,
,0.385,1.992,0.905,-5.372,-189.637,85.083,0,0,0,
,0.26,1.371,0.672,1999.694,-207.154,-605.957,0,0,0,
,0.553,0.022,0.862,1999.694,-619.385,-1098.938,0,0,0,
,0.284,-1.081,1.073,1999.694,-566.468,-1019.227,0,0,0,
,0.121,-1.227,1.138,754.943,78.613,-484.986,0,0,0,
,0.506,-0.208,0.897,-617.676,675.903,-226.441,0,0,0,
,1.031,0.149,0.608,-915.345,723.877,87.402,0,0,0,
,1.057,0.325,0.409,-852.539,363.22,435.485,0,0,0,
,0.83,0.188,0.828,-967.835,-116.639,382.141,0,0,0,
,0.477,0.154,0.681,-1260.804,46.203,687.927,0,0,0,
,0.471,0.127,0.352,-1878.052,148.559,618.225,0,0,0,
,0.502,0.528,0.124,-2000,159.851,728.027,0,0,0,
,0.482,1.504,0.064,-1836.121,-40.101,750.122,0,0,0,
,0.489,2.084,0.664,-417.237,-408.143,151.916,0,0,0,
,0.201,1.482,0.853,1973.632,-419.19,-423.34,0,0,0,
,0.496,0.151,0.979,1999.694,-585.022,-855.835,0,0,0,
,0.096,-0.989,0.609,1999.694,-369.08,-995.545,0,0,0,
,0.218,-1.042,0.779,770.996,-120.667,-396.79,0,0,0,
,0.656,0.093,1.025,-83.497,145.141,-219.788,0,0,0,
,0.884,0.426,0.983,-179.871,270.385,-115.235,0,0,0,
,0.801,0.225,0.837,-216.004,209.716,83.435,0,0,0,
,0.655,0.184,0.69,-599.732,312.561,417.358,0,0,0,
,0.719,0.108,0.68,-968.567,279.48,480.529,0,0,0,
,0.629,0.127,0.528,-1439.576,165.588,719.421,0,0,0,
,0.385,0.138,0.281,-1910.767,37.048,646.118,0,0,0,
,0.326,0.419,0.083,-1996.888,111.206,676.574,0,0,0,
,0.398,1.452,-0.031,-1630.677,-52.735,654.48,0,0,0,
,0.378,2.166,0.751,97.412,-258.057,79.711,0,0,0,
,0.201,1.215,0.658,1999.694,-352.051,-641.907,0,0,0,
,0.534,-0.098,0.958,1999.694,-592.53,-1148.621,0,0,0,
,0.363,-0.934,0.977,1999.694,-458.069,-928.589,0,0,0,
,0.813,0.188,0.897,-154.48,609.497,-113.526,0,0,0,
,0.911,0.304,0.536,-315.613,542.663,152.221,0,0,0,
,0.937,0.299,0.859,-900.452,7.568,333.618,0,0,0,
,0.535,0.468,0.788,-1017.762,-77.759,605.224,0,0,0,
,0.233,0.348,0.429,-1245.057,87.402,608.032,0,0,0,
,0.28,0.276,0.005,-1772.034,306.274,404.785,0,0,0,
,0.459,0.728,-0.103,-1891.785,144.47,562.378,0,0,0,
,0.48,1.663,0.508,-1283.509,-227.845,488.525,0,0,0,
,-0.026,2.054,0.613,1156.982,-25.147,-309.632,0,0,0,
,0.632,0.42,1.092,1999.694,-726.075,-985.84,0,0,0,
,0.592,-0.889,1.04,1999.694,-671.082,-936.524,0,0,0,
,0.665,0.345,0.863,-297.425,562.194,-234.436,0,0,0,
,0.854,0.33,0.57,-70.313,583.801,-29.847,0,0,0,
,0.812,0.297,0.503,-227.417,371.582,236.389,0,0,0,
,0.736,0.254,0.544,-576.844,131.713,220.337,0,0,0,
,0.645,0.237,0.764,-1060.547,-31.861,429.626,0,0,0,
,0.364,0.536,0.406,-1394.654,80.871,648.864,0,0,0,
,0.299,0.516,0.192,-1657.776,119.018,309.265,0,0,0,
,0.341,1.037,0.135,-1405.457,124.206,490.478,0,0,0,
,0.31,1.766,0.587,-220.459,89.904,206.115,0,0,0,
,0.302,1.324,0.567,1772.033,-91.065,-435.486,0,0,0,
,0.727,0.157,0.961,1999.694,-695.435,-808.594,0,0,0,
,0.488,-0.588,1.201,1999.694,-698.548,-715.577,0,0,0,
,0.284,-0.476,1.38,1017.944,-340.394,-424.195,0,0,0,
,0.558,-0.016,1.325,94.238,25.39,-379.151,0,0,0,
,0.682,0.39,1.092,-224.549,253.234,-239.991,0,0,0,
,0.561,0.418,0.747,-120.606,430.053,-34.729,0,0,0,
,0.542,0.291,0.342,-19.104,545.898,261.108,0,0,0,
,0.657,0.067,0.271,-280.64,369.995,328.796,0,0,0,
,0.738,-0.015,0.492,-718.811,63.659,476.806,0,0,0,
,0.491,0.024,0.419,-1199.402,-61.707,575.378,0,0,0,
,0.314,0.154,0.234,-1908.143,-62.195,536.193,0,0,0,
,0.327,0.903,0.148,-1960.511,-2.32,443.115,0,0,0,
,0.394,1.746,0.66,-988.038,-112.122,234.619,0,0,0,
,0.217,1.624,0.422,1367.981,-175.538,-541.932,0,0,0,
,0.752,0.274,1.154,1999.694,-1010.376,-910.157,0,0,0,
,0.246,-0.953,1.352,1950.988,-717.102,-695.984,0,0,0,
,-0.003,-0.673,1.412,546.264,-67.933,-488.038,0,0,0,
,0.47,0.189,1.268,-514.954,418.64,-340.516,0,0,0,
,0.764,0.333,0.834,-825.745,704.651,-402.649,0,0,0,
,0.801,0.28,0.242,-573.975,867.492,51.696,0,0,0,
,0.979,0.296,0.128,-819.275,472.168,401.733,0,0,0,
,0.977,0.317,0.349,-1218.262,-82.459,410.522,0,0,0,
,0.598,0.478,0.35,-1382.264,-373.719,656.799,0,0,0,
,0.294,0.692,0.225,-1736.207,-232.178,671.63,0,0,0,
,0.258,0.938,0.194,-1631.958,-139.588,362.243,0,0,0,
,0.408,1.598,0.787,-773.316,-67.505,131.775,0,0,0,
,0.522,1.446,0.747,1297.18,-108.704,-301.27,0,0,0,
,0.794,0.248,1.01,1999.694,-680.359,-586.06,0,0,0,
,0.333,-0.622,1.26,1679.687,-170.838,-195.679,0,0,0,
,0.182,-0.814,1.338,-83.191,215.21,-228.272,0,0,0,
,0.35,0.007,0.922,-1365.784,760.315,10.437,0,0,0,
,0.683,0.378,0.521,-1471.009,856.079,64.575,0,0,0,
,1.064,0.552,0.141,-1248.108,342.773,71.533,0,0,0,
,1.124,1.194,0.294,-1004.883,-583.863,-12.085,0,0,0,
,0.719,1.219,0.376,-231.08,-1089.417,-178.406,0,0,0,
,0.248,0.856,0.459,618.896,-1231.507,-270.142,0,0,0,
,0.072,0.346,0.373,757.69,-896.729,-457.642,0,0,0,
,0.14,0.129,0.369,161.01,-640.259,-309.937,0,0,0,
,0.343,0.536,0.628,-317.2,-619.812,-64.576,0,0,0,
,0.287,1.043,0.692,15.197,-439.576,-35.828,0,0,0,
,0.21,0.738,0.596,625.915,-222.107,-154.236,0,0,0,
,0.348,0.167,0.592,421.753,19.165,-164.246,0,0,0,
,0.424,0.02,0.771,-145.325,260.376,-20.63,0,0,0,
,0.407,0.075,0.803,-802.796,492.92,165.71,0,0,0,
,0.502,0.398,0.805,-1167.847,658.02,309.265,0,0,0,
,0.627,0.32,0.842,-1204.712,727.417,141.845,0,0,0,
,0.698,0.697,0.887,-1428.956,752.319,306.884,0,0,0,
,0.76,0.998,0.632,-1125.123,722.961,239.624,0,0,0,
,0.883,1.197,0.245,-447.754,311.95,87.341,0,0,0,
,0.765,0.913,0.138,498.779,-432.373,-272.034,0,0,0,
,0.417,0.591,0.314,912.231,-813.965,-338.807,0,0,0,
,0.249,0.392,0.601,993.591,-853.089,-428.345,0,0,0,
,0.236,-0.081,0.616,579.467,-630.249,-596.68,0,0,0,
,0.292,0.199,0.334,-696.9,-609.803,-213.685,0,0,0,
,0.517,0.93,0.458,-1150.635,-684.144,-82.154,0,0,0,
,0.227,1.352,0.505,-326.172,-412.476,-111.878,0,0,0,
,0.334,0.899,0.671,559.509,-103.882,-72.266,0,0,0,
,0.543,0.573,0.825,463.012,124.694,110.351,0,0,0,
,0.47,0.599,0.805,-76.111,295.471,260.742,0,0,0,
,0.524,0.543,0.492,-428.711,615.6,218.2,0,0,0,
,0.606,0.718,0.162,-126.831,406.128,88.684,0,0,0,
,0.761,0.625,0.385,573.242,-197.998,-159.852,0,0,0,
,0.564,0.423,0.63,887.207,-581.421,-216.675,0,0,0,
,0.205,0.172,0.714,808.471,-618.836,-348.023,0,0,0,
,0.219,0.168,0.683,406.86,-638.794,-406.434,0,0,0,
,0.29,0.324,0.553,-190.613,-683.838,-514.771,0,0,0,
,0.243,0.595,0.553,-777.832,-598.023,-507.996,0,0,0,
,0.303,0.943,0.557,-880.738,-333.985,-301.209,0,0,0,
,0.381,1.102,0.585,-517.09,37.597,-48.645,0,0,0,
,0.452,1.207,0.542,-109.253,357.727,125.915,0,0,0,
,0.467,1.088,0.574,207.763,636.657,225.341,0,0,0,
,0.507,0.662,0.726,448.791,786.316,292.175,0,0,0,
,0.633,0.533,0.746,409.851,750.244,381.652,0,0,0,
,0.639,0.598,0.56,147.4,795.776,393.371,0,0,0,
,0.734,0.262,0.133,189.697,345.092,44.86,0,0,0,
,0.879,0.072,0.365,165.039,-554.322,-145.691,0,0,0,
,0.477,0.284,0.854,-78.492,-663.147,-160.95,0,0,0,
,0.201,0.162,0.817,-315.125,-742.432,-410.706,0,0,0,
,0.308,0.322,0.798,-582.398,-796.692,-522.278,0,0,0,
,0.291,0.631,0.613,-957.886,-764.649,-598.999,0,0,0,
,0.257,0.861,0.541,-1080.872,-515.503,-484.62,0,0,0,
,0.303,1.1,0.632,-628.296,-155.152,-158.081,0,0,0,
,0.379,1.291,0.592,54.199,207.153,111.694,0,0,0,
,0.494,0.717,0.805,671.081,919.067,308.593,0,0,0,
,0.583,0.513,0.445,590.026,910.949,320.19,0,0,0,
,0.784,0.347,0.019,477.844,535.827,180.297,0,0,0,
,0.93,0.242,0.142,508.056,-356.385,-43.58,0,0,0,
,0.477,0.018,0.922,74.218,-605.469,-137.574,0,0,0,
,0.187,0.582,0.56,-1154.297,-694.214,-489.502,0,0,0,
,0.2,0.817,0.605,-1150.696,-437.317,-338.868,0,0,0,
,0.241,1.084,0.596,-530.03,-31.861,-59.815,0,0,0,
,0.404,1.365,0.671,297.607,285.827,126.831,0,0,0,
,0.438,1.141,0.68,749.328,537.231,192.993,0,0,0,
,0.409,0.672,0.597,718.261,821.472,213.806,0,0,0,
,0.516,0.697,0.618,496.765,1002.197,356.506,0,0,0,
,0.697,0.602,0.169,509.826,883.361,306.274,0,0,0,
,0.983,0.433,-0.223,626.403,201.843,40.344,0,0,0,
,0.917,0.453,0.876,930.114,-719.849,-49.988,0,0,0,
,0.368,-0.2,0.939,459.411,-613.099,-239.685,0,0,0,
,0.333,-0.064,0.816,-317.933,-705.994,-408.509,0,0,0,
,0.32,0.407,0.763,-910.645,-762.635,-526.551,0,0,0,
,0.129,0.608,0.488,-1351.746,-649.414,-553.711,0,0,0,
,0.199,1.023,0.554,-1106.08,-376.465,-336.426,0,0,0,
,0.257,1.299,0.649,-107.666,32.653,-60.303,0,0,0,
,0.361,1.212,0.686,651.855,337.951,67.565,0,0,0,
,0.42,0.957,0.749,912.536,587.097,187.011,0,0,0,
,0.761,1.008,0.619,1348.571,564.331,384.643,0,0,0,
,0.561,0.196,0.485,1070.007,158.752,197.509,0,0,0,
,0.652,0.227,0.775,1172.729,-159.18,164.001,0,0,0,
,0.369,-0.059,0.971,866.821,-296.753,-2.198,0,0,0,
,0.33,0.317,0.918,722.9,-334.595,-122.681,0,0,0,
,0.369,0.393,1.004,949.768,-378.479,-263.916,0,0,0,
,0.406,0.287,1.37,872.741,-317.566,-227.234,0,0,0,
,0.446,0.634,1.313,769.287,-127.747,-114.624,0,0,0,
,0.449,0.779,1.085,949.646,43.64,4.577,0,0,0,
,0.374,0.392,0.709,950.073,203.003,-87.708,0,0,0,
,0.444,0.159,0.627,703.064,140.014,47.79,0,0,0,
,0.498,0.393,0.774,652.771,128.662,301.208,0,0,0,
,0.338,0.58,0.76,563.232,228.698,457.641,0,0,0,
,0.255,0.422,0.687,548.034,326.904,512.939,0,0,0,
,0.295,0.116,0.681,475.83,397.583,631.469,0,0,0,
,0.357,0.102,0.688,118.042,422.424,922.546,0,0,0,
,0.308,-0.044,0.449,-352.601,367.92,846.496,0,0,0,
,0.296,-0.241,0.314,-965.027,262.329,536.316,0,0,0,
,0.356,-0.049,0.607,-1015.931,92.895,265.808,0,0,0,
,0.332,0.697,0.796,-307.007,180.481,68.054,0,0,0,
,0.749,0.83,0.861,1023.62,-273.56,-317.322,0,0,0,
,0.781,0.187,0.869,1880.127,-936.585,-616.517,0,0,0,
,0.097,-0.839,1.351,1334.961,-600.037,-556.153,0,0,0,
,0.232,-0.203,1.311,305.969,-127.32,-315.857,0,0,0,
,0.721,0.316,1.127,67.627,48.339,-479.31,0,0,0,
,0.45,0.188,0.744,-35.706,286.316,-295.227,0,0,0,
,0.456,-0.001,0.292,81.604,531.982,45.349,0,0,0,
,0.764,0.355,0.693,139.404,474.304,441.101,0,0,0,
,0.619,0.597,0.84,-195.74,397.644,832.031,0,0,0,
,0.487,0.308,0.87,-477.723,272.338,625.671,0,0,0,
,0.351,-0.271,0.516,-1130.86,301.452,623.535,0,0,0,
,0.365,-0.101,0.201,-1809.632,312.378,634.887,0,0,0,
,0.433,0.409,0.417,-1999.512,186.523,389.038,0,0,0,
,0.378,1.135,0.719,-1181.458,237.06,66.284,0,0,0,
,0.511,1.401,0.57,643.798,23.864,-304.322,0,0,0,
,0.765,0.69,0.812,1999.694,-893.433,-638.245,0,0,0,
,0.21,-0.743,1.563,1999.694,-688.538,-840.088,0,0,0,
,0.731,0.117,0.563,-375.977,441.65,-190.247,0,0,0,
,0.59,0.831,0.416,-324.585,482.299,284.607,0,0,0,
,0.781,0.975,0.916,127.563,122.192,233.215,0,0,0,
,0.591,0.187,1.031,70.678,39.245,334.961,0,0,0,
,0.254,0.269,0.711,-449.707,211.975,570.556,0,0,0,
,0.291,0.481,0.359,-780.884,286.438,414.001,0,0,0,
,0.559,0.416,0.642,-579.834,10.192,184.753,0,0,0,
,0.508,0.726,0.825,-7.813,-24.476,79.834,0,0,0,
,0.529,0.844,0.87,1104.004,-228.455,-212.83,0,0,0,
,0.623,0.167,1.11,1997.985,-902.527,-532.166,0,0,0,
,0.184,-1.023,1.494,1101.135,-339.112,-574.097,0,0,0,
,0.473,0.177,0.312,-249.573,228.82,-57.923,0,0,0,
,0.578,0.438,0.66,-48.706,179.687,250.244,0,0,0,
,0.656,0.354,1.049,-185.975,130.188,434.082,0,0,0,
,0.441,0.058,0.721,-654.48,285.827,551.33,0,0,0,
,0.334,0.229,0.268,-1181.275,379.211,675.171,0,0,0,
,0.439,1.178,0.757,595.031,64.453,40.832,0,0,0,
,0.642,0.528,0.782,1999.694,-645.02,-338.379,0,0,0,
,0.249,-0.726,1.644,1999.694,-702.881,-772.4,0,0,0,
,0.05,-0.973,1.377,672.668,-192.566,-463.074,0,0,0,
,0.581,0.007,1.127,-226.929,65.124,-519.532,0,0,0,
,0.592,-0.031,0.605,-496.277,304.382,-483.277,0,0,0,
,0.631,0.687,0.578,-244.446,433.105,378.845,0,0,0,
,0.664,0.499,0.815,-178.406,304.87,442.016,0,0,0,
,0.563,0.177,0.744,-419.922,277.832,550.109,0,0,0,
,0.533,0.164,0.657,-860.596,146.179,519.47,0,0,0,
,0.465,-0.019,0.461,-1127.198,-3.235,366.15,0,0,0,
,0.364,0.242,0.594,-1220.765,-103.699,381.469,0,0,0,
,0.283,1.327,0.75,-367.371,225.036,177.063,0,0,0,
,0.707,1.105,0.738,1453.491,-370.85,-171.875,0,0,0,
,0.671,0.244,1.385,1999.694,-1160.95,-659.607,0,0,0,
,-0.095,-1.082,1.274,1316.223,-248.414,-559.815,0,0,0,
,0.304,-0.24,1.162,102.6,42.663,-423.706,0,0,0,
,0.616,0.189,1.06,-354.859,211.67,-503.235,0,0,0,
,0.846,0.49,0.634,-439.393,281.005,444.03,0,0,0,
,0.615,0.215,0.922,-647.767,112.182,535.705,0,0,0,
,0.43,0.093,0.673,-1042.603,147.522,671.447,0,0,0,
,0.355,0.114,0.292,-1640.442,113.525,563.72,0,0,0,
,0.424,0.403,0.363,-1905.884,-31.434,433.776,0,0,0,
,0.392,1.709,0.697,-989.93,233.825,295.105,0,0,0,
,0.653,1.553,0.61,1317.749,-410.462,-142.823,0,0,0,
,0.67,0.454,0.982,1999.694,-1411.438,-638.794,0,0,0,
,-0.297,-1.547,1.368,1999.694,-286.133,-659.363,0,0,0,
,0.044,-0.828,1.06,238.342,88.317,-480.957,0,0,0,
,0.543,0.132,0.86,-591.309,415.039,-389.405,0,0,0,
,0.973,0.569,0.395,-789.49,433.044,426.208,0,0,0,
,0.825,0.247,0.935,-797.852,-10.621,311.767,0,0,0,
,0.489,0.061,0.505,-1224.671,1.037,480.59,0,0,0,
,0.386,0.18,0.189,-1969.91,-51.453,310.18,0,0,0,
,0.419,0.973,0.408,-1950.135,-2.564,220.52,0,0,0,
,0.353,1.875,0.451,-487.488,133.545,48.706,0,0,0,
,0.81,1.405,0.819,1941.65,-959.839,-482.85,0,0,0,
,0.439,0.351,1.507,1999.694,-1249.268,-677.735,0,0,0,
,-0.16,-0.876,1.343,1566.101,-154.541,-649.659,0,0,0,
,0.323,-0.235,1.356,5.188,211.975,-580.384,0,0,0,
,0.554,0.057,0.969,-718.995,700.317,-494.202,0,0,0,
,0.953,0.642,0.517,-907.959,83.862,325.622,0,0,0,
,0.585,0.48,0.421,-994.202,-66.956,497.192,0,0,0,
,0.373,0.38,0.36,-1425.049,-119.751,393.371,0,0,0,
,0.337,0.698,0.249,-1514.283,-49.988,394.714,0,0,0,
,0.321,1.583,0.582,-763.306,96.801,190.185,0,0,0,
,0.407,1.382,0.563,1589.172,-348.145,-293.763,0,0,0,
,0.694,0.562,1.314,1999.694,-1061.829,-734.742,0,0,0,
,0.307,-0.646,1.489,1999.694,-580.262,-533.326,0,0,0,
,0.123,-0.736,1.336,884.521,-30.396,-567.383,0,0,0,
,0.381,-0.275,0.873,-390.137,428.772,-541.077,0,0,0,
,0.601,-0.125,0.404,-828.248,765.442,-186.463,0,0,0,
,0.879,0.189,0.234,-937.745,575.927,187.744,0,0,0,
,0.902,0.412,0.309,-1237.366,116.333,353.82,0,0,0,
,0.618,0.529,0.34,-1389.893,-82.337,487.915,0,0,0,
,0.363,0.643,0.179,-1570.008,-18.738,549.133,0,0,0,
,0.376,0.785,0.154,-1630.311,78.918,421.447,0,0,0,
,0.433,1.312,0.35,-1032.532,42.724,349.182,0,0,0,
,0.215,1.847,0.479,728.759,180.786,-11.902,0,0,0,
,0.595,1.093,0.989,1999.694,-691.712,-582.581,0,0,0,
,0.496,-0.183,1.182,1999.694,-842.774,-715.332,0,0,0,
,0.034,-0.928,1.251,1689.453,-266.541,-633.423,0,0,0,
,0.188,-0.554,1.299,143.798,160.949,-490.479,0,0,0,
,0.573,-0.003,1.106,-695.984,639.404,-371.705,0,0,0,
,0.786,-0.05,0.316,-765.992,755.249,-85.144,0,0,0,
,0.953,0.319,0.26,-1124.329,244.323,392.028,0,0,0,
,0.735,0.465,0.263,-1344.483,-59.571,393.493,0,0,0,
,0.434,0.512,0.254,-1550.11,-63.538,531.433,0,0,0,
,0.373,0.728,0.037,-1865.723,181.579,506.897,0,0,0,
,0.453,1.223,0.04,-1372.132,138.488,405.151,0,0,0,
,0.458,1.659,0.495,-200.562,-9.888,102.661,0,0,0,
,0.323,1.375,0.644,1905.212,-325.867,-447.571,0,0,0,
,0.591,0.289,1.229,1999.694,-872.62,-903.016,0,0,0,
,0.416,-0.572,1.44,1999.694,-601.563,-610.047,0,0,0,
,0.178,-0.726,1.412,763.549,-0.611,-552.918,0,0,0,
,0.36,-0.259,1.021,-608.033,539.123,-395.081,0,0,0,
,0.665,-0.049,0.323,-1093.567,921.386,-7.019,0,0,0,
,0.998,0.341,0.322,-1343.995,428.283,417.114,0,0,0,
,0.796,0.723,0.286,-1354.676,64.453,594.482,0,0,0,
,0.418,0.634,0.224,-1274.415,-23.072,533.081,0,0,0,
,0.361,0.642,-0.018,-1567.139,232.971,451.294,0,0,0,
,0.478,1.046,-0.097,-1250.733,191.04,421.936,0,0,0,
,0.5,1.59,0.299,-395.081,-190.735,252.258,0,0,0,
,0.106,1.703,0.706,1880.798,-319.031,-372.376,0,0,0,
,0.496,0.346,1.164,1999.694,-896.424,-902.71,0,0,0,
,0.385,-0.811,1.326,1999.694,-612.122,-747.132,0,0,0,
,0.159,-0.853,1.255,626.403,-67.872,-447.693,0,0,0,
,0.375,-0.168,1.06,-825.928,421.936,-342.102,0,0,0,
,0.682,0.269,0.441,-1203.675,828.613,9.704,0,0,0,
,0.939,0.442,0.336,-976.807,468.994,294.494,0,0,0,
,0.793,0.637,0.313,-976.319,195.434,585.083,0,0,0,
,0.482,0.56,0.254,-1091.248,46.142,573.486,0,0,0,
,0.419,0.67,0.156,-1478.394,212.585,533.508,0,0,0,
,0.498,1.004,-0.03,-1181.641,248.474,451.11,0,0,0,
,0.534,1.531,0.14,-319.214,-90.149,241.638,0,0,0,
,0.231,1.369,0.691,1814.209,-428.284,-377.93,0,0,0,
,0.39,0.31,1.26,1999.694,-901.49,-806.58,0,0,0,
,0.395,-0.653,1.34,1998.23,-575.257,-631.714,0,0,0,
,0.254,-0.653,1.332,599.365,-137.696,-443.299,0,0,0,
,0.37,-0.206,1.075,-755.494,327.087,-311.829,0,0,0,
,0.585,0.293,0.702,-1352.356,612.243,26.733,0,0,0,
,0.681,0.526,0.146,-947.205,695.251,362.243,0,0,0,
,0.795,0.559,0.167,-905.762,330.017,440.429,0,0,0,
,0.595,0.667,0.136,-1161.927,135.62,554.931,0,0,0,
,0.508,0.916,0.13,-1212.403,117.309,392.395,0,0,0,
,0.479,1.32,0.051,-586.609,99.182,360.901,0,0,0,
,0.439,1.375,0.299,734.192,-192.017,-18.372,0,0,0,
,0.279,0.899,0.734,1999.694,-483.765,-545.899,0,0,0,
,0.456,0.053,1.384,1999.694,-740.479,-782.898,0,0,0,
,0.442,-0.384,1.689,1658.508,-433.289,-482.544,0,0,0,
,0.392,-0.463,1.381,299.743,48.156,-449.28,0,0,0,
,0.471,-0.144,0.726,-929.871,490.112,-172.181,0,0,0,
,0.694,0.142,0.379,-1461.853,480.041,135.986,0,0,0,
,0.791,0.654,0.217,-1344.605,361.206,550.842,0,0,0,
,0.634,0.789,0.121,-1007.752,71.96,445.922,0,0,0,
,0.443,0.688,0.139,-842.041,82.824,439.27,0,0,0,
,0.432,0.781,-0.031,-906.311,203.491,409.118,0,0,0,
,0.493,1.129,0.03,-425.904,47.119,303.1,0,0,0,
,0.428,1.367,0.558,634.399,-240.784,53.1,0,0,0,
,0.233,1.113,0.953,1999.694,-436.158,-462.403,0,0,0,
,0.513,0.12,1.279,1999.694,-520.569,-579.895,0,0,0,
,0.426,-0.469,1.422,1616.088,-213.746,-526.123,0,0,0,
,0.355,-0.451,1.292,335.205,168.029,-366.883,0,0,0,
,0.463,-0.161,0.842,-711.792,592.956,-198.975,0,0,0,
,0.734,-0.037,0.416,-1186.097,548.339,118.408,0,0,0,
,0.889,0.561,0.215,-1255.86,331.421,554.382,0,0,0,
,0.718,0.752,0.188,-1096.009,-52.552,465.637,0,0,0,
,0.429,0.677,0.198,-1039.002,-42.603,452.392,0,0,0,
,0.458,1.296,0.334,283.081,-154.236,77.636,0,0,0,
,0.241,1.073,0.801,1745.544,-318.543,-335.999,0,0,0,
,0.471,0.286,1.249,1999.694,-584.351,-698.914,0,0,0,
,0.505,-0.334,1.4,1910.827,-427.124,-542.664,0,0,0,
,0.338,-0.602,1.422,708.557,-73.06,-498.291,0,0,0,
,0.332,-0.152,1.075,-533.875,361.694,-252.564,0,0,0,
,0.616,0.169,0.474,-1061.219,672.851,-60.791,0,0,0,
,0.858,0.397,0.187,-931.58,473.083,282.409,0,0,0,
,0.873,0.596,0.259,-939.698,73.913,416.137,0,0,0,
,0.559,0.59,0.258,-975.403,-143.25,443.542,0,0,0,
,0.38,0.705,0.141,-1181.763,35.4,410.095,0,0,0,
,0.285,1.276,0.597,1155.578,-331.055,-244.935,0,0,0,
,0.346,0.757,1.157,1999.694,-619.935,-623.047,0,0,0,
,0.528,-0.101,1.552,1999.694,-598.45,-648.316,0,0,0,
,0.379,-0.493,1.583,1108.886,-163.269,-519.593,0,0,0,
,0.249,-0.37,1.231,-161.438,264.343,-448.853,0,0,0,
,0.426,0.082,0.776,-1045.35,603.332,-143.128,0,0,0,
,0.747,0.28,0.04,-901.307,736.084,208.618,0,0,0,
,0.982,0.423,0.091,-959.473,169.25,358.52,0,0,0,
,0.637,0.561,0.267,-975.403,-162.232,446.594,0,0,0,
,0.369,0.644,0.187,-962.525,14.343,458.74,0,0,0,
,0.398,0.774,0.125,-1094.91,145.263,408.569,0,0,0,
,0.273,1.228,0.993,1575.927,-373.597,-453.431,0,0,0,
,0.403,0.466,1.304,1999.694,-445.74,-568.299,0,0,0,
,0.499,-0.336,1.599,1999.694,-296.753,-731.446,0,0,0,
,0.302,-0.646,1.257,815.673,77.331,-519.288,0,0,0,
,0.408,-0.429,0.958,-557.74,351.135,-339.6,0,0,0,
,0.71,-0.033,0.57,-1254.212,476.379,59.387,0,0,0,
,0.819,0.454,0.29,-1387.391,263.427,309.875,0,0,0,
,0.711,0.621,0.144,-1240.235,42.48,374.328,0,0,0,
,0.542,0.704,0.094,-1166.26,-39.49,436.035,0,0,0,
,0.518,0.91,0.066,-1196.717,-35.95,394.836,0,0,0,
,0.462,1.328,-0.025,-654.969,-72.022,366.15,0,0,0,
,0.37,1.541,0.086,276.123,-269.471,99.975,0,0,0,
,0.46,-0.575,1.504,1999.694,-298.462,-833.68,0,0,0,
,0.231,-1.159,1.219,791.259,32.959,-450.867,0,0,0,
,0.396,-0.471,0.947,-805.787,239.807,-169.861,0,0,0,
,0.601,0.352,0.761,-1327.515,371.582,173.889,0,0,0,
,0.707,0.702,0.42,-1107.911,397.766,250.427,0,0,0,
,0.701,0.48,0.263,-955.384,183.715,190.857,0,0,0,
,0.492,0.568,0.193,-886.292,141.113,453.735,0,0,0,
,0.518,0.565,0.213,-854.737,180.542,440.124,0,0,0,
,0.595,0.644,0.16,-879.822,82.458,336.914,0,0,0,
,0.439,0.998,0.156,-531.373,-38.758,342.102,0,0,0,
,0.434,-0.038,1.323,1999.694,-281.006,-873.291,0,0,0,
,0.385,-0.767,1.233,1130.859,-113.587,-753.663,0,0,0,
,0.449,-0.533,0.913,-379.456,144.043,-207.886,0,0,0,
,0.584,0.164,0.633,-1209.229,328.674,137.39,0,0,0,
,0.701,0.493,0.312,-1293.091,405.578,262.695,0,0,0,
,0.69,0.464,0.266,-1229.371,195.556,386.963,0,0,0,
,0.522,0.533,0.262,-1247.315,144.714,467.102,0,0,0,
,0.56,0.705,0.19,-1290.65,160.827,413.574,0,0,0,
,0.545,1.255,0.039,-818.177,67.077,390.136,0,0,0,
,0.412,1.559,0.073,113.769,-136.78,157.409,0,0,0,
,0.368,1.247,0.571,1500.976,-434.998,-427.979,0,0,0,
,0.391,0.528,1.273,1999.694,-590.088,-838.685,0,0,0,
,0.385,-0.179,1.463,1999.694,-387.391,-754.761,0,0,0,
,0.326,-0.789,1.414,1070.8,-58.716,-642.64,0,0,0,
,0.554,-0.627,1.007,-551.758,192.382,-237.793,0,0,0,
,0.691,0.164,0.631,-1700.745,223.51,518.493,0,0,0,
,0.626,0.69,0.01,-740.784,264.16,436.889,0,0,0,
,0.506,0.866,0.084,-571.656,65.246,481.628,0,0,0,
,0.4,1.045,0.125,-41.016,-37.293,348.816,0,0,0,
,0.332,1.157,0.232,682.19,-197.754,36.499,0,0,0,
,0.205,0.88,0.601,1659.729,-454.529,-355.164,0,0,0,
,0.155,0.406,1.104,1999.694,-525.696,-595.826,0,0,0,
,0.229,-0.273,1.52,1999.694,-394.043,-662.232,0,0,0,
,0.244,-0.593,1.426,1481.506,56.274,-514.893,0,0,0,
,0.408,-0.381,1.047,186.767,375.793,-371.888,0,0,0,
,0.671,0.245,0.82,-617.249,487.06,-25.391,0,0,0,
,0.821,0.691,0.488,-497.071,526.672,365.539,0,0,0,
,0.841,0.534,0.629,-341.858,25.94,319.275,0,0,0,
,0.464,0.117,0.76,-423.584,-34.485,409.546,0,0,0,
,0.233,-0.002,0.574,-805.97,167.602,557.678,0,0,0,
,0.417,0.134,0.309,-1363.038,334.35,529.907,0,0,0,
,0.541,0.518,0.099,-1475.037,209.9,518.127,0,0,0,
,0.465,1.223,0.082,-1147.461,-48.706,382.263,0,0,0,
,0.378,1.655,0.667,-3.968,-278.504,-23.438,0,0,0,
,0.096,1.467,0.572,1983.642,-47.181,-471.131,0,0,0,
,0.219,-1.199,1.285,1111.938,-2.503,-521.058,0,0,0,
,0.381,-0.66,1.003,-721.985,356.811,-206.482,0,0,0,
,0.694,0.269,0.625,-1529.541,647.461,398.071,0,0,0,
,0.864,0.642,0.297,-1242.005,481.933,543.151,0,0,0,
,0.793,0.382,0.529,-1014.039,91.003,477.234,0,0,0,
,0.446,0.2,0.45,-1133.24,49.499,645.691,0,0,0,
,0.394,0.357,0.298,-1789.124,153.503,539.367,0,0,0,
,0.498,1.333,0.063,-1694.458,156.86,562.805,0,0,0,
,0.465,1.944,0.082,-532.105,-111.573,301.757,0,0,0,
,0.072,1.515,0.194,1800.659,-108.155,-358.033,0,0,0,
,0.287,0.36,0.963,1999.694,-606.934,-1034.607,0,0,0,
,0.322,-0.628,1.573,1999.694,-558.899,-939.27,0,0,0,
,0.306,-0.847,1.697,1351.562,-147.644,-495.789,0,0,0,
,0.351,-0.698,1.257,-235.596,270.202,-468.567,0,0,0,
,0.583,0.116,0.76,-1364.624,520.63,114.929,0,0,0,
,0.752,0.69,0.285,-1247.01,600.769,410.217,0,0,0,
,0.916,0.609,0.394,-824.158,243.652,400.817,0,0,0,
,0.598,0.258,0.505,-835.083,29.357,479.126,0,0,0,
,0.377,0.411,0.476,-1223.389,76.232,550.354,0,0,0,
,0.489,0.964,0.171,-1225.647,166.931,475.708,0,0,0,
,0.496,1.497,0.061,-364.502,-71.778,264.221,0,0,0,
,0.343,1.239,0.207,955.017,-380.494,-230.896,0,0,0,
,0.136,0.663,0.678,1999.694,-608.277,-609.07,0,0,0,
,0.18,0.006,1.342,1999.694,-657.41,-978.028,0,0,0,
,0.355,-0.482,1.833,1913.757,-326.6,-625.367,0,0,0,
,0.33,-0.722,1.403,686.157,194.152,-623.719,0,0,0,
,0.516,-0.559,0.835,-903.382,390.869,-138.123,0,0,0,
,0.623,0.403,0.377,-1531.678,551.696,488.769,0,0,0,
,0.864,0.71,0.299,-1139.283,389.282,477.661,0,0,0,
,0.758,0.323,0.531,-966.492,56.823,508.789,0,0,0,
,0.368,0.302,0.503,-1253.174,16.113,592.163,0,0,0,
,0.404,0.691,0.252,-1593.384,200.744,490.722,0,0,0,
,0.503,1.431,0.016,-1010.804,91.308,468.2,0,0,0,
,0.402,1.56,0.121,303.65,-241.394,-7.996,0,0,0,
,0.166,0.951,0.502,1967.407,-435.425,-504.517,0,0,0,
,0.244,0.189,1.203,1999.694,-675.293,-981.568,0,0,0,
,0.343,-0.492,1.746,1999.694,-513.794,-785.035,0,0,0,
,0.291,-0.72,1.501,1002.929,64.209,-546.021,0,0,0,
,0.395,-0.775,0.862,-683.777,392.822,-344.117,0,0,0,
,0.632,0.127,0.499,-1649.048,531.25,389.221,0,0,0,
,0.726,0.711,0.291,-1489.93,580.078,667.663,0,0,0,
,0.758,0.485,0.363,-1133.79,262.329,497.619,0,0,0,
,0.463,0.458,0.479,-1235.23,154.48,701.66,0,0,0,
,0.403,0.731,0.249,-1454.285,256.836,507.69,0,0,0,
,0.5,1.268,0.129,-1005.799,157.531,413.025,0,0,0,
,0.433,1.634,0.165,98.693,-123.169,155.334,0,0,0,
,0.133,1.142,0.413,1798.217,-278.931,-404.419,0,0,0,
,0.189,0.258,0.967,1999.694,-571.473,-926.575,0,0,0,
,0.308,-0.478,1.533,1999.694,-583.374,-919.678,0,0,0,
,0.389,-0.521,1.756,1239.441,-145.813,-475.647,0,0,0,
,0.429,-0.419,1.317,-7.203,272.094,-460.022,0,0,0,
,0.569,0.022,0.694,-1091.553,525.817,20.935,0,0,0,
,0.686,0.468,0.229,-1273.011,599.975,476.44,0,0,0,
,0.812,0.592,0.276,-944.275,365.722,518.249,0,0,0,
,0.607,0.448,0.513,-914.307,108.154,587.219,0,0,0,
,0.385,0.549,0.461,-1122.681,176.025,557.373,0,0,0,
,0.446,0.849,0.249,-1064.759,218.444,424.011,0,0,0,
,0.497,1.173,0.149,-411.744,46.997,251.892,0,0,0,
,0.389,1.152,0.313,574.646,-255.555,-128.174,0,0,0,
,0.185,0.799,0.768,1814.331,-454.041,-540.162,0,0,0,
,0.29,0.219,1.263,1999.694,-659.424,-864.319,0,0,0,
,0.43,-0.191,1.676,1964.721,-425.721,-581.055,0,0,0,
,0.376,-0.555,1.541,837.158,15.258,-625.428,0,0,0,
,0.377,-0.366,0.861,-596.985,443.664,-216.736,0,0,0,
,0.615,0.229,0.389,-1316.651,601.745,254.577,0,0,0,
,0.776,0.661,0.219,-975.037,505.92,552.795,0,0,0,
,0.76,0.453,0.489,-780.213,130.249,463.928,0,0,0,
,0.411,0.319,0.487,-919.19,86.914,599.487,0,0,0,
,0.37,0.411,0.355,-1309.388,231.689,492.981,0,0,0,
,0.499,0.852,0.18,-1269.532,213.806,473.755,0,0,0,
,0.463,1.416,0.153,-520.935,-87.708,272.461,0,0,0,
,0.21,1.539,0.56,933.532,-195.679,-115.723,0,0,0,
,0.164,0.795,0.917,1999.694,-476.807,-835.022,0,0,0,
,0.411,-0.216,1.406,1999.694,-632.996,-900.818,0,0,0,
,0.324,-0.662,1.649,1692.871,-277.649,-585.328,0,0,0,
,0.205,-0.8,1.123,195.556,242.248,-529.419,0,0,0,
,0.483,-0.292,0.651,-1154.419,538.513,-44.922,0,0,0,
,0.758,0.413,0.129,-1401.978,676.818,477.966,0,0,0,
,0.966,0.6,0.413,-1211.121,187.5,391.967,0,0,0,
,0.584,0.446,0.419,-1080.506,60.119,533.63,0,0,0,
,0.368,0.453,0.325,-1459.961,125.915,426.696,0,0,0,
,0.438,1.093,0.091,-1485.962,237.609,547.424,0,0,0,
,0.461,1.745,0.048,-555.848,38.513,309.814,0,0,0,
,0.13,1.75,0.403,1462.707,72.143,-274.842,0,0,0,
,0.296,0.587,0.854,1999.694,-386.536,-990.967,0,0,0,
,0.552,-0.367,1.581,1999.694,-593.873,-843.14,0,0,0,
,0.468,-0.53,1.729,1301.88,-157.837,-338.807,0,0,0,
,0.424,-0.386,1.264,-91.004,239.196,-378.968,0,0,0,
,0.592,-0.038,0.655,-1064.942,538.025,53.1,0,0,0,
,0.835,0.342,0.372,-1277.466,313.72,366.455,0,0,0,
,0.761,0.67,0.289,-1011.048,136.047,683.349,0,0,0,
,0.508,0.434,0.312,-846.497,-87.891,481.018,0,0,0,
,0.327,0.242,0.226,-1223.816,30.029,559.509,0,0,0,
,0.352,0.739,0.067,-1275.513,124.206,601.684,0,0,0,
,0.378,1.455,0.123,-572.632,-54.749,463.379,0,0,0,
,0.073,1.793,0.449,1154.48,155.578,-89.844,0,0,0,
,0.323,0.725,0.932,1999.694,-390.381,-867.981,0,0,0,
,0.588,-0.351,1.424,1999.694,-515.076,-667.054,0,0,0,
,0.356,-0.533,1.531,1658.02,-209.534,-416.443,0,0,0,
,0.233,-0.636,1.304,330.078,262.878,-510.132,0,0,0,
,0.518,-0.23,0.806,-789.734,658.752,-53.711,0,0,0,
,0.908,0.216,0.2,-1191.407,647.033,331.97,0,0,0,
,1.042,0.437,0.118,-1048.707,179.077,422.912,0,0,0,
,0.708,0.476,0.294,-1087.708,-180.726,590.454,0,0,0,
,0.36,0.451,0.338,-1288.208,-155.335,525.634,0,0,0,
,0.324,0.656,0.158,-1329.224,113.464,519.775,0,0,0,
,0.418,1.229,0.166,-985.047,2.807,415.649,0,0,0,
,0.326,1.517,0.643,203.125,-129.822,35.705,0,0,0,
,0.061,1.252,0.764,1922.363,-54.078,-605.103,0,0,0,
,0.487,0.196,1.244,1999.694,-420.899,-795.716,0,0,0,
,0.497,-0.304,1.467,1999.694,-299.439,-590.516,0,0,0,
,0.326,-0.336,1.447,1104.248,-19.654,-496.888,0,0,0,
,0.369,-0.408,0.99,159.912,406.86,-415.589,0,0,0,
,0.745,-0.287,0.403,-695.862,643.982,9.033,0,0,0,
,1.077,0.186,0.078,-1137.391,359.253,391.235,0,0,0,
,0.887,0.574,0.405,-1377.686,-244.812,588.379,0,0,0,
,0.42,0.656,0.436,-1325.196,-296.448,589.965,0,0,0,
,0.25,0.624,0.338,-1304.993,11.657,471.557,0,0,0,
,0.361,0.916,0.175,-1155.823,120.056,461.853,0,0,0,
,0.408,1.485,0.351,-504.639,-97.779,271.057,0,0,0,
,-0.002,1.781,0.593,1306.274,103.637,-252.198,0,0,0,
,0.313,0.726,1.011,1999.694,-353.455,-743.47,0,0,0,
,0.458,-0.245,1.43,1999.694,-440.125,-872.986,0,0,0,
,0.226,-0.476,1.313,1880.005,-40.833,-444.214,0,0,0,
,0.157,-0.812,0.907,601.135,368.774,-631.409,0,0,0,
,0.643,-0.485,0.501,-643.433,681.152,-1.038,0,0,0,
,1.079,0.217,0.128,-1115.418,542.724,375.915,0,0,0,
,1.024,0.485,0.456,-1277.161,-197.51,510.986,0,0,0,
,0.451,0.509,0.51,-1255.921,-286.072,549.011,0,0,0,
,0.271,0.525,0.429,-1371.216,7.507,542.053,0,0,0,
,0.363,0.569,0.205,-1452.332,208.007,468.383,0,0,0,
,0.411,1.205,0.192,-1229.493,60.669,486.084,0,0,0,
,0.331,1.814,0.962,-88.929,-99.671,120.483,0,0,0,
,0.058,1.439,0.798,1880.127,-3.907,-494.324,0,0,0,
,0.518,0.249,1.172,1999.694,-409.424,-868.103,0,0,0,
,0.356,-0.462,1.106,1999.694,-211.609,-692.81,0,0,0,
,0.199,-0.803,0.943,1221.313,123.657,-579.285,0,0,0,
,0.503,-0.739,0.75,-273.743,507.141,-280.579,0,0,0,
,1,0.084,0.542,-1219.91,495.056,345.52,0,0,0,
,1.058,0.645,0.371,-1445.74,132.934,456.176,0,0,0,
,0.672,0.643,0.552,-1326.294,-162.049,495.361,0,0,0,
,0.358,0.626,0.41,-1251.832,55.908,523.925,0,0,0,
,0.428,0.478,0.275,-1357.117,205.749,363.342,0,0,0,
,0.471,0.816,0.205,-1231.08,116.76,490.478,0,0,0,
,0.4,1.461,0.292,-533.692,-112.793,376.526,0,0,0,
,0.008,1.718,0.492,1244.323,106.262,-143.006,0,0,0,
,0.266,0.637,0.944,1999.694,-335.511,-843.018,0,0,0,
,0.507,-0.386,1.426,1999.694,-491.333,-1003.235,0,0,0,
,0.368,-0.474,1.433,1758.361,-122.315,-398.377,0,0,0,
,0.323,-0.531,1.167,462.28,231.201,-552.918,0,0,0,
,0.567,-0.223,0.705,-732.972,484.863,-97.229,0,0,0,
,0.845,0.345,0.23,-1116.883,540.588,402.771,0,0,0,
,0.91,0.518,0.195,-995.545,193.969,396.301,0,0,0,
,0.656,0.505,0.353,-1084.9,-20.264,622.619,0,0,0,
,0.397,0.508,0.324,-1200.623,14.892,530.883,0,0,0,
,0.341,0.55,0.265,-1333.558,181.213,476.013,0,0,0,
,0.418,1.108,0.237,-1030.823,130.737,464.843,0,0,0,
,0.289,2.017,0.806,262.878,215.82,199.096,0,0,0,
,0.125,1.278,0.597,1999.694,25.695,-603.15,0,0,0,
,0.65,-0.006,1.418,1999.694,-664.49,-1066.346,0,0,0,
,0.481,-0.633,1.565,1999.694,-314.148,-462.464,0,0,0,
,0.252,-0.591,1.302,876.403,112.487,-422.242,0,0,0,
,0.354,-0.564,0.918,-460.389,500.244,-364.869,0,0,0,
,0.881,-0.161,0.232,-1109.925,614.746,277.038,0,0,0,
,1.106,0.477,0.221,-1424.927,103.942,531.799,0,0,0,
,0.74,0.685,0.363,-1309.144,-294.129,583.068,0,0,0,
,0.316,0.571,0.197,-1197.083,-135.01,511.108,0,0,0,
,0.284,0.494,0.166,-1329.346,109.741,375.061,0,0,0,
,0.42,1,0.197,-1182.557,131.225,424.804,0,0,0,
,0.391,1.796,0.992,-114.685,77.209,205.566,0,0,0,
,0.161,1.467,0.949,1821.716,-95.581,-490.418,0,0,0,
,0.636,0.11,1.285,1999.694,-466.858,-728.15,0,0,0,
,0.345,-0.544,1.421,1999.694,-198.365,-609.436,0,0,0,
,0.124,-0.581,1.12,986.389,315.429,-454.041,0,0,0,
,0.461,-0.545,0.697,-189.454,722.717,-329.529,0,0,0,
,1.12,-0.217,0.052,-920.777,749.633,279.968,0,0,0,
,1.255,0.445,0.229,-1476.99,-122.498,565.307,0,0,0,
,0.654,0.738,0.367,-1498.963,-432.373,631.591,0,0,0,
,0.207,0.621,0.373,-1370.85,-214.478,509.216,0,0,0,
,0.25,0.646,0.232,-1428.04,197.082,455.017,0,0,0,
,0.463,1.312,0.249,-1126.587,87.585,447.143,0,0,0,
,0.347,2.136,1.035,410.644,-18.86,28.625,0,0,0,
,0.164,1.263,0.844,1999.694,-315.918,-451.172,0,0,0,
,0.486,-0.024,1.143,1999.694,-471.131,-898.438,0,0,0,
,0.249,-0.617,1.226,1999.694,-136.719,-695.374,0,0,0,
,0.16,-0.846,1.04,854.919,366.516,-594.117,0,0,0,
,0.66,-0.647,0.773,-476.929,653.503,-196.839,0,0,0,
,1.174,0,0.309,-1169.922,545.471,366.577,0,0,0,
,1.156,0.529,0.427,-1589.966,-228.638,498.291,0,0,0,
,0.484,0.69,0.512,-1446.106,-392.762,618.042,0,0,0,
,0.199,0.617,0.345,-1368.409,-77.637,514.953,0,0,0,
,0.362,0.503,0.1,-1547.242,224.853,410.4,0,0,0,
,0.497,1.101,0.082,-1309.815,40.283,464.721,0,0,0,
,0.366,1.562,0.472,-242.798,-240.479,270.08,0,0,0,
,-0.007,1.465,0.87,1747.802,-211.121,-407.715,0,0,0,
,0.336,0.421,1.293,1999.694,-282.227,-653.931,0,0,0,
,0.338,-0.135,0.995,1999.694,64.697,-716.553,0,0,0,
,0.313,-0.837,0.849,1523.376,256.103,-871.46,0,0,0,
,0.677,-0.988,0.99,-145.63,360.412,-303.528,0,0,0,
,1.148,0.098,0.676,-1406.434,222.473,393.798,0,0,0,
,0.986,0.85,0.47,-1732.056,-221.802,512.634,0,0,0,
,0.492,1.018,0.325,-1420.289,-206.727,504.089,0,0,0,
,0.382,0.717,0.222,-1236.878,18.92,453.064,0,0,0,
,0.387,0.683,0.047,-1105.835,12.695,397.338,0,0,0,
,0.261,1.025,0.162,-605.408,-128.235,315.796,0,0,0,
,0.165,1.28,0.308,378.112,-209.9,109.741,0,0,0,
,0.056,0.748,0.497,1739.99,-195.13,-471.192,0,0,0,
,0.261,0.151,1.29,1999.694,-412.598,-902.955,0,0,0,
,0.383,-0.169,1.481,1999.694,-50.415,-568.665,0,0,0,
,0.465,-0.656,1.403,1177.002,234.68,-744.507,0,0,0,
,0.673,-0.673,1.004,-440.125,377.624,-300.293,0,0,0,
,0.901,0.238,0.627,-1285.34,360.351,296.081,0,0,0,
,0.864,0.709,0.595,-1374.573,120.849,440.918,0,0,0,
,0.645,0.731,0.545,-1091.675,77.087,504.76,0,0,0,
,0.471,0.598,0.324,-1023.56,169.494,532.714,0,0,0,
,0.545,0.602,0.2,-1194.092,164.611,426.452,0,0,0,
,0.501,1.112,0.08,-749.878,12.634,452.88,0,0,0,
,0.366,1.36,0.216,179.382,-225.098,169.616,0,0,0,
,0.374,-0.46,1.462,1999.694,-212.037,-626.77,0,0,0,
,0.455,-0.573,1.504,1132.324,106.079,-578.98,0,0,0,
,0.528,-0.525,1.225,-128.785,386.535,-476.197,0,0,0,
,0.681,0.085,0.834,-988.465,553.833,48.645,0,0,0,
,0.89,0.439,0.328,-1043.091,432.434,328.369,0,0,0,
,0.887,0.602,0.42,-1027.283,47.058,507.629,0,0,0,
,0.488,0.663,0.407,-882.508,-27.466,550.842,0,0,0,
,0.398,0.445,0.332,-1025.818,132.629,480.224,0,0,0,
,0.492,0.604,0.079,-1064.27,129.516,495.849,0,0,0,
,0.41,0.998,0.198,-623.108,-118.836,372.436,0,0,0,
,0.263,1.149,0.305,261.779,-251.099,127.441,0,0,0,
,0.107,1.082,0.706,1502.319,-162.537,-445.374,0,0,0,
,0.429,-0.578,1.511,1454.04,-69.886,-773.499,0,0,0,
,0.4,-0.423,1.23,253.051,341.735,-522.522,0,0,0,
,0.679,-0.117,0.805,-590.943,652.16,-181.397,0,0,0,
,1.063,0.211,0.245,-866.272,506.042,270.996,0,0,0,
,1.012,0.637,0.496,-1132.752,-33.326,599.67,0,0,0,
,0.47,0.7,0.626,-821.228,-142.456,669.433,0,0,0,
,0.255,0.41,0.451,-793.091,195.861,635.192,0,0,0,
,0.421,0.276,0.152,-1142.457,381.836,506.775,0,0,0,
,0.459,0.671,0.141,-1096.924,216.247,535.034,0,0,0,
,0.366,1.311,0.3,-407.959,28.503,422.424,0,0,0,
,0.195,1.527,0.762,1006.713,124.694,-145.569,0,0,0,
,0.289,0.696,0.844,1999.694,-74.463,-817.688,0,0,0,
,0.592,-0.277,1.2,1999.694,-374.207,-790.833,0,0,0,
,0.422,-0.717,1.444,1999.694,-211.426,-615.296,0,0,0,
,0.263,-0.721,1.328,862.304,219.36,-510.987,0,0,0,
,0.635,-0.484,0.807,-350.342,653.564,-269.898,0,0,0,
,1.102,-0.233,0.478,-909.424,536.682,95.398,0,0,0,
,1.193,0.411,0.47,-1405.518,-28.443,546.02,0,0,0,
,0.736,0.759,0.639,-1228.028,-383.24,513.427,0,0,0,
,0.327,0.544,0.543,-923.096,-146.973,556.091,0,0,0,
,0.3,0.267,0.292,-1029.297,199.218,469.97,0,0,0,
,0.46,0.268,0.122,-1369.812,235.351,451.782,0,0,0,
,0.466,0.998,0.142,-1111.39,34.423,483.703,0,0,0,
,0.378,1.464,0.593,-85.633,-166.687,159.973,0,0,0,
,0.086,1.307,0.665,1778.503,25.878,-501.038,0,0,0,
,0.47,0.272,1.172,1999.694,-365.174,-899.414,0,0,0,
,0.435,-0.342,1.309,1999.694,-251.893,-776.246,0,0,0,
,0.303,-0.679,1.162,1523.254,94.726,-678.162,0,0,0,
,0.716,-1.085,0.989,-134.034,401.489,-449.585,0,0,0,
,1.192,-0.358,0.545,-1485.657,214.599,251.587,0,0,0,
,0.852,0.8,0.652,-1942.2,-220.643,829.101,0,0,0,
,0.4,0.971,0.512,-1460.877,28.32,586.609,0,0,0,
,0.431,0.583,0.238,-1283.02,238.464,534.607,0,0,0,
,0.513,1.097,0.184,-920.533,141.784,597.046,0,0,0,
,0.257,1.046,0.249,262.573,-4.944,218.933,0,0,0,
,0.141,0.27,0.333,1193.664,-42.542,-214.539,0,0,0,
,0.166,-0.198,0.418,1515.564,-9.461,-377.32,0,0,0,
,0.343,-0.431,0.832,1475.647,-3.663,-515.198,0,0,0,
,0.645,-0.322,1.576,1014.648,-179.749,-699.891,0,0,0,
,0.806,0.235,1.807,687.622,-98.389,-313.782,0,0,0,
,0.741,0.199,1.294,302.795,38.391,-454.102,0,0,0,
,0.77,0.136,0.677,-232.178,206.665,-106.812,0,0,0,
,0.888,0.183,0.632,-533.448,103.454,151.611,0,0,0,
,0.816,0.458,0.722,-589.112,14.77,546.814,0,0,0,
,0.58,0.251,0.73,-519.41,-46.631,404.846,0,0,0,
,0.301,-0.143,0.424,-786.56,149.78,516.357,0,0,0,
,0.349,-0.261,0.197,-1430.848,271.484,402.649,0,0,0,
,0.459,0.29,0.094,-1717.286,226.074,515.808,0,0,0,
,0.494,1.398,0.189,-1250.977,-17.762,488.952,0,0,0,
,0.294,1.88,0.651,616.821,15.319,-126.221,0,0,0,
,0.283,0.815,0.822,1999.694,-239.136,-939.698,0,0,0,
,0.561,-0.355,1.408,1999.694,-514.954,-1174.5,0,0,0,
,0.362,-0.802,1.399,1696.289,-120.85,-652.1,0,0,0,
,0.35,-0.788,1.079,158.325,269.775,-656.556,0,0,0,
,0.876,-0.274,0.796,-918.335,575.012,-130.372,0,0,0,
,1.19,0.325,0.536,-1414.551,222.107,306.091,0,0,0,
,1.018,0.784,0.539,-1333.68,-162.72,523.376,0,0,0,
,0.51,0.555,0.552,-1033.082,-273.987,452.819,0,0,0,
,0.186,0.25,0.293,-1033.082,71.228,583.862,0,0,0,
,0.268,0.028,0.02,-1461.304,342.468,419.738,0,0,0,
,0.409,0.739,0.001,-1544.495,247.314,588.806,0,0,0,
,0.439,1.679,0.305,-762.818,-79.895,400.085,0,0,0,
,0.05,1.754,0.472,1381.408,102.539,-414.612,0,0,0,
,0.292,0.42,1.086,1999.694,-329.712,-918.213,0,0,0,
,0.511,-0.736,1.635,1999.694,-413.392,-1208.252,0,0,0,
,0.381,-0.746,1.366,1512.451,69.519,-531.678,0,0,0,
,0.555,-0.746,1.178,-54.139,323.974,-694.336,0,0,0,
,0.962,-0.535,0.639,-1283.997,480.774,-219.849,0,0,0,
,1.202,0.58,0.51,-1890.992,109.375,600.647,0,0,0,
,0.955,1.133,0.617,-1526.795,-289.612,485.656,0,0,0,
,0.396,0.73,0.427,-906.434,-201.477,511.779,0,0,0,
,0.174,0.187,0.15,-972.107,196.96,464.111,0,0,0,
,0.412,0.183,0.048,-1485.352,351.867,423.767,0,0,0,
,0.546,1.307,0.112,-1213.379,118.469,652.465,0,0,0,
,0.393,1.802,0.489,295.532,-174.378,190.429,0,0,0,
,0.067,0.992,0.462,1999.694,-166.626,-596.436,0,0,0,
,0.369,-0.136,1.212,1999.694,-425.904,-1154.053,0,0,0,
,0.421,-0.996,1.56,1999.694,-253.663,-892.762,0,0,0,
,0.426,-0.925,1.391,600.402,146.606,-510.865,0,0,0,
,0.781,-0.46,0.986,-797.486,314.697,-354.248,0,0,0,
,0.984,0.239,0.57,-1503.296,279.663,242.309,0,0,0,
,0.937,0.794,0.497,-1546.57,59.021,557.495,0,0,0,
,0.612,0.767,0.423,-1159.546,1.831,526.367,0,0,0,
,0.368,0.536,0.223,-1022.034,193.542,587.158,0,0,0,
,0.461,0.285,0.127,-1337.83,280.212,449.585,0,0,0,
,0.51,1.096,0.064,-1142.579,143.921,590.759,0,0,0,
,0.42,1.682,0.27,22.522,-156.678,261.596,0,0,0,
,0.171,1.283,0.646,1999.572,-297.181,-460.938,0,0,0,
,0.272,0.176,1.186,1999.694,-491.211,-1045.96,0,0,0,
,0.265,-0.761,1.209,1999.694,-260.376,-1002.198,0,0,0,
,0.38,-1.427,1.2,897.888,94.299,-774.048,0,0,0,
,0.652,-1.408,0.707,-1288.941,363.83,-394.593,0,0,0,
,1.03,0.34,0.373,-2000,94.909,420.41,0,0,0,
,0.96,1.654,-0.045,-2000,-458.374,395.568,0,0,0,
,0.52,2.056,0.12,-992.31,-859.375,195.129,0,0,0,
,0.086,1.326,0.054,1009.338,-444.886,-37.476,0,0,0,
,0.449,0.372,0.581,1709.167,-260.682,-238.282,0,0,0,
,0.648,-0.267,0.991,1042.541,-53.711,-17.884,0,0,0,
,0.477,-0.214,1.135,183.227,237.548,459.106,0,0,0,
,0.392,-0.247,1.066,-648.865,478.393,261.596,0,0,0,
,0.477,0.098,0.966,-1056.214,709.777,257.629,0,0,0,
,0.68,0.396,0.801,-760.56,678.894,27.16,0,0,0,
,0.856,0.611,0.659,-100.647,442.993,-106.629,0,0,0,
,0.919,0.475,0.627,466.552,-54.749,-410.584,0,0,0,
,0.759,-0.004,0.675,638.183,-431.519,-622.742,0,0,0,
,0.519,-0.147,0.759,-49.805,-743.042,-509.705,0,0,0,
,0.343,0.473,0.433,-844.849,-811.341,-394.165,0,0,0,
,0.281,1.006,0.219,-1046.448,-849.549,-253.113,0,0,0,
,0.083,1.233,0.329,-403.87,-583.924,-228.516,0,0,0,
,0.216,0.972,0.393,179.321,-319.092,-198.731,0,0,0,
,0.457,0.719,0.554,444.336,-123.169,-129.944,0,0,0,
,0.518,0.429,0.875,696.716,85.815,87.036,0,0,0,
,0.56,0.097,1.205,344.726,303.161,275.207,0,0,0,
,0.561,0.104,1.233,-362.549,452.942,398.132,0,0,0,
,0.573,0.42,1.217,-613.404,554.443,334.106,0,0,0,
,0.618,0.607,0.789,-214.356,621.093,73.73,0,0,0,
,0.823,0.43,0.454,578.918,206.909,-130.921,0,0,0,
,0.789,-0.02,0.632,1104.858,-342.041,-371.949,0,0,0,
,0.355,-0.627,0.688,543.518,-649.048,-545.044,0,0,0,
,0.185,-0.057,0.769,-630.799,-712.525,-306.824,0,0,0,
,0.266,0.895,0.683,-966.614,-580.201,-149.231,0,0,0,
,0.245,1.138,0.485,-285.767,-596.375,-421.448,0,0,0,
,0.119,0.781,0.628,210.571,-415.65,-325.135,0,0,0,
,0.276,0.748,0.659,254.821,-158.143,-64.759,0,0,0,
,0.323,0.637,0.79,429.077,165.71,124.084,0,0,0,
,0.455,0.488,0.872,320.861,433.044,283.63,0,0,0,
,0.557,0.399,1.04,170.532,630.615,391.906,0,0,0,
,0.733,0.321,1.05,50.109,689.697,383.667,0,0,0,
,0.825,0.325,1.192,-7.325,686.34,282.592,0,0,0,
,0.872,-0.024,1.088,-126.526,619.873,98.755,0,0,0,
,0.903,-0.318,0.801,-262.513,549.621,-74.524,0,0,0,
,0.999,-0.285,0.448,-513.367,1.281,-151.185,0,0,0,
,0.912,0.368,0.389,-744.935,-805.237,-78.553,0,0,0,
,0.427,0.848,0.919,-101.563,-1047.669,-118.47,0,0,0,
,-0.136,0.64,0.6,801.941,-872.742,-520.02,0,0,0,
,-0.036,0.027,0.768,452.575,-627.076,-776.673,0,0,0,
,0.153,0.312,0.534,-569.703,-532.288,-357.361,0,0,0,
,0.01,1.109,0.484,-808.045,-335.267,-196.778,0,0,0,
,-0.08,1.119,0.604,-335.511,-103.394,-119.812,0,0,0,
,0.214,0.745,0.645,-70.252,135.315,-25.574,0,0,0,
,0.411,0.738,0.672,-173.951,320.861,127.99,0,0,0,
,0.534,0.597,0.708,-266.907,473.144,233.825,0,0,0,
,0.733,0.545,0.954,-127.198,613.464,316.772,0,0,0,
,0.879,0.39,1.119,253.173,683.838,385.986,0,0,0,
,0.975,0.122,1.168,274.963,723.388,347.778,0,0,0,
,0.951,0.065,0.943,-382.203,821.655,513.855,0,0,0,
,0.956,-0.208,0.53,-771.973,628.357,199.463,0,0,0,
,1.003,-0.311,0.165,-1001.648,-19.593,15.014,0,0,0,
,0.727,0.067,0.221,-1112,-882.569,-49.927,0,0,0,
,0.392,0.619,0.45,-945.069,-1371.949,-182.557,0,0,0,
,-0.085,0.68,0.398,-403.321,-1211.67,-470.52,0,0,0,
,-0.19,0.419,0.452,-372.498,-864.685,-632.386,0,0,0,
,0.298,0.392,0.58,-1249.085,-851.136,-555.237,0,0,0,
,0.071,0.788,0.653,-1998.841,-595.887,-439.698,0,0,0,
,-0.075,1.231,0.388,-2000,-187.195,-293.641,0,0,0,
,0.376,1.123,-0.062,-1700.013,38.33,-173.096,0,0,0,
,0.534,1.056,0.149,-1586.731,126.587,-61.463,0,0,0,
,0.619,1.217,0.439,-1464.905,248.596,29.052,0,0,0,
,0.693,1.265,0.709,-820.801,383.606,55.297,0,0,0,
,0.629,1.248,0.887,-56.58,463.684,73.791,0,0,0,
,0.63,0.938,0.813,517.822,484.68,3.295,0,0,0,
,0.723,0.354,0.311,475.708,553.772,47.851,0,0,0,
,0.844,0.267,0.065,-34.241,288.635,102.783,0,0,0,
,0.734,0.501,0.122,-593.323,-340.638,20.813,0,0,0,
,0.243,0.851,0.401,-555.97,-656.739,-77.027,0,0,0,
,-0.053,0.965,0.303,-170.594,-684.693,-195.496,0,0,0,
,0.032,0.919,0.142,159.851,-691.59,-312.195,0,0,0,
,0.201,0.791,0.057,260.131,-637.269,-345.215,0,0,0,
,0.147,0.73,0.152,237.426,-398.194,-215.21,0,0,0,
,0.302,1.016,0.141,105.041,-90.76,28.625,0,0,0,
,0.459,1.152,0.213,123.596,198.913,156.005,0,0,0,
,0.494,1.105,0.296,-12.757,467.468,123.474,0,0,0,
,0.532,1.031,0.488,-125.306,612.182,112.915,0,0,0,
,0.574,1.001,0.57,117.37,727.234,96.13,0,0,0,
,0.62,0.911,0.637,344.665,758.361,184.814,0,0,0,
,0.698,0.737,0.511,509.155,749.694,239.135,0,0,0,
,0.693,0.569,0.287,639.648,736.145,213.562,0,0,0,
,0.73,0.46,0.229,888.916,319.519,32.348,0,0,0,
,0.691,0.455,0.184,898.742,-263.672,-78.37,0,0,0,
,0.406,0.434,0.63,843.383,-555.237,-131.043,0,0,0,
,0.208,0.411,0.492,620.3,-587.464,-278.504,0,0,0,
,0.147,0.257,0.536,-20.813,-673.279,-472.352,0,0,0,
,0.096,0.397,0.294,-1243.958,-557.007,-376.099,0,0,0,
,0.198,1.185,0.257,-1679.688,-300.599,-125.611,0,0,0,
,0.217,1.77,0.253,-688.172,56.823,-33.997,0,0,0,
,0.462,1.479,0.219,387.878,329.834,-22.95,0,0,0,
,0.556,1.074,0.446,627.807,479.492,87.341,0,0,0,
,0.725,1.048,0.546,549.804,582.214,226.074,0,0,0,
,0.723,1.179,0.462,884.094,607.483,338.073,0,0,0,
,0.853,1.243,0.147,1646.85,313.232,354.858,0,0,0,
,0.818,0.724,0.406,1999.694,-124.207,204.406,0,0,0,
,0.524,-0.184,0.901,1999.694,-211.487,129.943,0,0,0,
,0.333,-0.465,1.023,1222.229,-336.304,8.972,0,0,0,
,0.244,0.346,1.048,110.168,-260.376,96.069,0,0,0,
,0.095,0.767,0.723,68.054,-2.808,13.794,0,0,0,
,0.042,0.543,0.618,319.336,284.851,-24.598,0,0,0,
,0.069,0.443,0.568,64.697,534.668,72.387,0,0,0,
,0.123,0.536,0.259,-351.258,717.102,370.361,0,0,0,
,0.114,0.635,0.238,-709.351,822.387,422.363,0,0,0,
,0.181,0.534,0.137,-773.682,896.301,364.99,0,0,0,
,0.425,0.8,0.348,-693.665,695.251,359.68,0,0,0,
,0.615,1.173,0.602,-9.461,432.617,237.365,0,0,0,
,0.689,1.123,0.641,862.426,123.047,14.465,0,0,0,
,0.725,0.798,0.659,1598.571,-255.005,-134.156,0,0,0,
,0.702,0.256,0.547,1834.228,-617.432,-348.694,0,0,0,
,0.594,0.099,0.897,1495.849,-778.443,-341.675,0,0,0,
,0.509,0.505,1.048,1283.691,-437.378,-214.295,0,0,0,
,0.619,0.539,1.066,1471.374,-322.449,-164.612,0,0,0,
,0.595,0.52,0.782,500.732,229.248,67.199,0,0,0,
,0.537,0.367,0.823,401.916,298.645,60.241,0,0,0,
,0.503,0.25,0.781,85.388,292.419,146.301,0,0,0,
,0.452,0.35,0.902,-122.437,312.194,349.914,0,0,0,
,0.292,0.342,0.674,-239.319,379.699,479.431,0,0,0,
,0.117,0.469,0.374,-393.189,475.402,658.569,0,0,0,
,0.047,0.452,0.268,-454.468,590.82,590.454,0,0,0,
,0.066,0.36,0.57,-506.348,481.018,532.409,0,0,0,
,0.273,0.957,0.565,-221.68,453.857,485.29,0,0,0,
,0.431,0.787,0.535,548.034,352.722,-33.326,0,0,0,
,0.689,0.239,0.59,901.672,-86.487,-318.726,0,0,0,
,0.76,0.405,0.786,1272.094,-379.944,-255.005,0,0,0,
,0.809,0.219,0.847,1902.649,-588.562,-490.479,0,0,0,
,0.804,0.034,1.165,1103.515,-36.683,-444.336,0,0,0,
,0.767,0.192,1.049,585.51,163.513,-383.24,0,0,0,
,0.803,0.369,0.904,435.913,235.29,-256.592,0,0,0,
,0.638,0.261,0.858,466.003,368.286,-143.982,0,0,0,
,0.471,0.038,0.793,358.337,531.433,8.544,0,0,0,
,0.448,0.058,0.713,70.8,657.47,258.422,0,0,0,
,0.442,0.043,0.669,-357.178,543.884,345.642,0,0,0,
,0.385,0.043,0.688,-860.657,336.609,472.534,0,0,0,
,0.182,0.15,0.588,-1246.277,198.547,593.2,0,0,0,
,0.015,0.279,0.659,-1393.128,75.195,504.211,0,0,0,
,-0.007,0.354,0.705,-1508.301,123.413,368.774,0,0,0,
,0.077,0.442,0.739,-1480.164,211.609,316.589,0,0,0,
,0.173,0.674,0.706,-1179.444,238.464,279.785,0,0,0,
,0.215,0.879,0.564,-532.898,182.251,129.699,0,0,0,
,0.236,0.868,0.505,359.619,85.266,-102.478,0,0,0,
,0.357,0.542,0.544,1196.411,-65.918,-372.925,0,0,0,
,0.602,0.064,0.709,1625.061,-289.612,-595.154,0,0,0,
,0.868,-0.279,0.919,1680.175,-378.052,-614.014,0,0,0,
,1.017,-0.472,1.094,1449.524,-345.154,-589.539,0,0,0,
,1.159,-0.252,1.214,1041.137,-157.288,-486.206,0,0,0,
,1.261,0.104,1.055,789.734,-49.866,-505.249,0,0,0,
,1.171,0.44,0.985,886.352,64.331,-523.316,0,0,0,
,1.107,0.188,0.735,891.479,57.128,-562.012,0,0,0,
,0.75,0.04,0.248,522.338,35.4,-472.779,0,0,0,
,0.124,-0.024,0.291,-102.356,221.313,-304.261,0,0,0,
,0.215,0.549,0.601,-701.172,234.558,-169.617,0,0,0,
,0.242,0.716,0.792,-717.713,253.601,-173.829,0,0,0,
,0.373,0.288,0.698,-693.97,286.865,-150.086,0,0,0,
,0.532,-0.082,0.658,-1071.29,352.966,-43.885,0,0,0,
,0.834,0.162,0.722,-1669.739,135.254,91.125,0,0,0,
,0.868,0.554,0.846,-1462.403,-15.992,90.698,0,0,0,
,0.934,0.329,0.829,-1081.727,1.098,171.203,0,0,0,
,0.925,0.209,0.941,-786.316,83.313,282.165,0,0,0,
,0.906,0.122,1.04,-437.806,236.572,417.358,0,0,0,
,0.939,0.568,1.149,608.337,396.728,291.992,0,0,0,
,0.746,-0.426,0.751,196.594,371.582,-3.968,0,0,0,
,0.651,-0.349,0.838,-187.378,228.027,-82.337,0,0,0,
,0.426,-0.2,0.971,-501.404,129.394,-133.484,0,0,0,
,0.294,0.092,1.112,-504.151,23.498,-236.634,0,0,0,
,0.209,0.339,1.018,-230.469,-29.053,-404.358,0,0,0,
,0.047,0.302,0.704,211.425,-121.888,-616.211,0,0,0,
,-0.081,0.153,0.658,489.502,-226.807,-804.749,0,0,0,
,-0.115,0.071,0.699,416.687,-159.18,-815.125,0,0,0,
,0.093,0.249,0.81,201.294,-33.326,-759.217,0,0,0,
,0.432,0.38,0.849,207.58,-57.373,-859.131,0,0,0,
,0.509,0.421,0.734,399.719,-127.93,-851.075,0,0,0,
,0.633,0.17,0.432,-307.923,44.433,-618.714,0,0,0,
,0.879,0.707,0.553,-494.202,-25.635,-446.289,0,0,0,
,1.049,1.053,0.632,-96.863,-31.434,-387.94,0,0,0,
,1.345,0.845,0.962,224.67,-160.706,-293.824,0,0,0,
,1.302,0.532,0.726,47.363,-72.754,-1.099,0,0,0,
,1.142,0.522,0.39,16.357,-78.736,239.196,0,0,0,
,1.06,0.499,0.315,429.565,-206.177,361.023,0,0,0,
,0.925,0.063,0.499,805.114,-290.833,375.61,0,0,0,
,0.769,-0.335,0.538,697.143,-307.373,364.685,0,0,0,
,0.718,-0.186,0.609,281.189,-360.169,431.823,0,0,0,
,0.632,0,0.5,115.112,-386.597,319.641,0,0,0,
,0.597,-0.161,0.353,240.539,-332.886,228.881,0,0,0,
,0.656,-0.121,0.698,190.979,-364.502,245.727,0,0,0,
,0.704,0.145,0.652,3.845,-210.877,295.654,0,0,0,
,0.827,-0.031,0.514,207.763,-62.806,247.985,0,0,0,
,0.911,-0.202,0.43,120.422,35.827,319.885,0,0,0,
,0.995,-0.106,0.51,-39.002,62.988,449.096,0,0,0,
,0.963,-0.112,0.675,78.796,147.338,580.932,0,0,0,
,0.911,-0.238,0.744,323.669,228.759,629.577,0,0,0,
,0.991,-0.19,0.616,399.17,198.913,656.189,0,0,0,
,0.981,-0.371,0.622,409.546,168.762,569.03,0,0,0,
,1.055,-0.405,0.732,36.56,92.407,530.944,0,0,0,
,0.949,-0.466,1.007,-272.034,81.909,514.77,0,0,0,
,0.769,-0.525,1.127,-409.607,188.72,447.631,0,0,0,
,0.76,-0.441,1.084,-549.378,292.541,354.004,0,0,0,
,0.712,-0.255,0.989,-760.193,339.782,275.39,0,0,0,
,0.628,-0.135,0.864,-803.223,166.565,97.717,0,0,0,
,0.456,-0.178,0.945,-376.77,-79.468,-253.235,0,0,0,
,0.214,-0.384,0.811,-17.395,-182.496,-429.566,0,0,0,
,0.12,-0.433,0.893,-78.492,-237.732,-483.521,0,0,0,
,0.258,0.404,0.741,-623.719,-302.124,-803.589,0,0,0,
,0.295,0.869,0.596,-258.423,-337.647,-769.532,0,0,0,
,0.177,0.585,0.441,390.564,-518.311,-1045.777,0,0,0,
,0.107,0.098,0.509,317.871,-331.177,-950.867,0,0,0,
,0.32,0.252,0.475,-273.926,-192.505,-674.317,0,0,0,
,0.626,0.588,0.732,-720.887,-16.724,-183.899,0,0,0,
,0.82,0.402,0.677,-989.014,78.918,29.541,0,0,0,
,0.833,0.513,0.559,-1322.754,218.872,228.271,0,0,0,
,1.05,0.54,0.536,-1284.791,291.442,386.169,0,0,0,
,1.118,0.535,0.591,-1131.775,349.243,576.538,0,0,0,
,1.11,0.587,0.802,-676.697,420.837,719.055,0,0,0,
,1.085,0.618,1.11,231.323,487.243,768.31,0,0,0,
,0.989,0.475,1.276,1118.469,504.333,747.253,0,0,0,
,0.915,0.453,1.281,1372.497,533.63,711.853,0,0,0,
,0.859,-0.035,1.021,1293.09,564.88,380.432,0,0,0,
,0.741,-0.49,0.566,999.633,500.61,133.239,0,0,0,
,0.737,-0.538,0.249,627.319,117.981,22.827,0,0,0,
