TIMECODE,ACC_X,ACC_Y,ACC_Z,GYR_X,GYR_Y,GYR_Z,TAG
00:00:00:0,0.791,0.476,0.316,-7.874,11.535,0.366,
00:00:00:16,0.789,0.468,0.322,-4.639,8.85,-4.822,
00:00:00:33,0.788,0.469,0.314,-12.146,12.023,-5.555,
00:00:00:50,0.789,0.469,0.306,-12.513,7.141,-10.071,
00:00:00:66,0.776,0.469,0.311,-6.531,5.249,-11.475,
00:00:00:83,0.766,0.475,0.314,-4.517,10.864,-15.87,
00:00:00:100,0.774,0.47,0.315,-1.831,17.15,-22.339,
00:00:00:116,0.778,0.471,0.323,-3.907,18.798,-27.771,
00:00:00:133,0.774,0.478,0.322,-9.522,23.925,-32.044,
00:00:00:150,0.783,0.48,0.321,-8.24,28.869,-37.415,
00:00:00:166,0.789,0.478,0.319,-4.273,29.541,-36.499,
00:00:00:183,0.786,0.478,0.324,2.319,29.357,-33.875,
00:00:00:200,0.784,0.476,0.326,4.211,31.677,-31.006,
00:00:00:216,0.783,0.475,0.331,5.004,29.968,-30.518,
00:00:00:233,0.775,0.474,0.328,-1.893,31.25,-29.602,
00:00:00:250,0.774,0.48,0.325,-6.043,32.714,-32.471,
00:00:00:266,0.781,0.481,0.318,-11.353,29.785,-32.776,
00:00:00:283,0.778,0.482,0.317,-11.902,27.282,-30.579,
00:00:00:300,0.775,0.482,0.315,-11.414,26.123,-26.123,
00:00:00:316,0.783,0.483,0.317,-7.874,27.893,-26.368,
00:00:00:333,0.782,0.485,0.331,1.22,30.7,-26.307,
00:00:00:350,0.791,0.481,0.327,-2.076,33.142,-30.457,
00:00:00:366,0.809,0.479,0.324,-12.207,33.447,-29.908,
00:00:00:383,0.808,0.48,0.319,-11.475,27.648,-23.621,
00:00:00:400,0.795,0.477,0.316,-2.442,18.92,-19.898,
00:00:00:416,0.79,0.462,0.326,-10.376,14.343,-21.363,
00:00:00:433,0.792,0.466,0.33,-28.626,20.874,-20.203,
00:00:00:450,0.781,0.483,0.323,-24.72,19.897,-16.236,
00:00:00:466,0.772,0.48,0.328,-1.893,15.502,-23.133,
00:00:00:483,0.773,0.47,0.323,-1.954,21.728,-26.917,
00:00:00:500,0.782,0.474,0.322,-7.508,20.141,-26.49,
00:00:00:516,0.779,0.48,0.318,-5.616,18.92,-29.358,
00:00:00:533,0.781,0.483,0.317,-3.174,15.136,-30.64,
00:00:00:550,0.789,0.489,0.31,-5.372,20.202,-32.166,
00:00:00:566,0.799,0.488,0.311,-2.625,18.127,-30.945,
00:00:00:583,0.798,0.489,0.311,-2.686,14.953,-29.541,
00:00:00:600,0.8,0.494,0.316,-11.231,18.31,-29.786,
00:00:00:616,0.799,0.499,0.313,-9.034,20.813,-24.659,
00:00:00:633,0.791,0.498,0.317,1.037,13.855,-19.532,
00:00:00:650,0.778,0.492,0.316,3.479,16.601,-14.893,
00:00:00:666,0.778,0.494,0.32,8.422,19.165,-14.527,
00:00:00:683,0.785,0.491,0.33,17.15,18.127,-13.245,
00:00:00:700,0.776,0.484,0.336,25.268,16.784,-9.278,
00:00:00:716,0.781,0.483,0.338,28.137,21.667,-9.156,
00:00:00:733,0.79,0.483,0.34,39.001,21.728,-11.475,
00:00:00:750,0.788,0.486,0.349,51.147,16.723,-14.954,
00:00:00:766,0.784,0.488,0.344,53.527,12.695,-19.349,idleRH
00:00:00:783,0.786,0.484,0.345,55.908,11.474,-22.644,
00:00:00:800,0.79,0.484,0.341,52.673,8.667,-20.386,
00:00:00:816,0.79,0.49,0.334,52.551,5.249,-16.297,
00:00:00:833,0.789,0.486,0.323,51.452,-2.869,-10.621,
00:00:00:850,0.783,0.483,0.316,47.546,-8.484,-5.433,
00:00:00:866,0.788,0.478,0.304,36.01,-8.423,-3.052,
00:00:00:883,0.798,0.476,0.291,24.841,-14.344,2.075,
00:00:00:900,0.797,0.469,0.278,11.596,-20.569,5.981,
00:00:00:916,0.786,0.466,0.27,-3.846,-24.048,11.84,
00:00:00:933,0.779,0.466,0.27,-9.095,-14.466,13.61,
00:00:00:950,0.786,0.468,0.275,-2.198,-2.503,8.483,
00:00:00:966,0.784,0.457,0.291,13,-0.184,-1.77,
00:00:00:983,0.78,0.451,0.292,11.23,4.211,-6.897,
00:00:01:0,0.797,0.446,0.291,4.211,5.249,-18.494,
00:00:01:16,0.81,0.443,0.292,-6.165,0.61,-22.95,
00:00:01:33,0.806,0.454,0.309,-17.029,1.953,-31.8,
00:00:01:50,0.809,0.468,0.326,-17.945,6.652,-43.274,
00:00:01:66,0.811,0.477,0.35,-4.761,9.399,-50.293,
00:00:01:83,0.812,0.479,0.37,12.817,12.634,-55.542,
00:00:01:100,0.812,0.477,0.37,23.071,12.451,-54.017,
00:00:01:116,0.803,0.468,0.369,25.512,1.281,-52.857,
00:00:01:133,0.797,0.466,0.356,12.756,-6.47,-49.195,
00:00:01:150,0.792,0.467,0.349,-3.174,-23.865,-48.645,
00:00:01:166,0.786,0.438,0.348,-21.79,-37.537,-46.57,
00:00:01:183,0.781,0.477,0.339,-40.039,-46.753,-44.983,
00:00:01:200,0.779,0.49,0.323,-51.575,-47.303,-40.101,
00:00:01:216,0.777,0.498,0.313,-46.692,-46.448,-39.734,
00:00:01:233,0.778,0.498,0.307,-39.978,-39.917,-38.819,
00:00:01:250,0.777,0.497,0.299,-31.189,-36.316,-34.729,
00:00:01:266,0.778,0.495,0.291,-22.583,-28.87,-30.091,
00:00:01:283,0.773,0.491,0.291,-14.893,-21.851,-28.748,
00:00:01:300,0.776,0.482,0.287,-13.672,-13.306,-27.588,
00:00:01:316,0.781,0.481,0.286,-13.855,-5.31,-25.635,
00:00:01:333,0.772,0.48,0.291,-15.503,-0.306,-22.767,
00:00:01:350,0.762,0.483,0.29,-8.667,9.338,-26.062,
00:00:01:366,0.769,0.481,0.301,4.821,20.324,-30.457,
00:00:01:383,0.788,0.473,0.307,10.925,27.954,-31.373,
00:00:01:400,0.784,0.472,0.33,13.732,32.775,-34.241,
00:00:01:416,0.785,0.473,0.338,13.732,36.132,-31.983,
00:00:01:433,0.79,0.471,0.337,17.822,33.081,-32.166,
00:00:01:450,0.79,0.467,0.344,18.127,25.268,-29.114,
00:00:01:466,0.785,0.468,0.337,8.178,22.338,-29.358,
00:00:01:483,0.781,0.481,0.332,-7.081,4.089,-23.865,
00:00:01:500,0.779,0.485,0.328,-6.714,8.728,-27.894,
00:00:01:516,0.796,0.482,0.327,-5.433,9.033,-26.978,
00:00:01:533,0.796,0.482,0.314,-7.325,9.338,-21.241,
00:00:01:550,0.784,0.479,0.302,5.249,10.498,-14.466,
00:00:01:566,0.79,0.472,0.307,5.676,16.784,-14.954,
00:00:01:583,0.786,0.474,0.306,3.906,19.287,-11.475,
00:00:01:600,0.777,0.477,0.302,11.657,21.85,-14.1,
00:00:01:616,0.776,0.473,0.308,15.502,27.099,-19.776,
00:00:01:633,0.794,0.462,0.317,13.488,32.043,-21.302,
00:00:01:650,0.794,0.468,0.323,13.794,29.846,-19.898,
00:00:01:666,0.791,0.469,0.323,15.625,28.503,-17.945,
00:00:01:683,0.799,0.463,0.326,23.62,26.367,-20.997,
00:00:01:700,0.797,0.463,0.334,16.052,20.08,-22.95,
00:00:01:716,0.789,0.473,0.333,7.202,16.174,-25.757,
00:00:01:733,0.796,0.469,0.329,4.821,14.831,-29.236,
00:00:01:750,0.807,0.469,0.328,3.356,11.169,-25.208,
00:00:01:766,0.796,0.478,0.325,0,4.516,-20.386,
00:00:01:783,0.792,0.479,0.314,5.676,5.004,-23.316,
00:00:01:800,0.795,0.481,0.312,5.92,2.38,-22.461,
00:00:01:816,0.796,0.469,0.304,10.07,1.037,-23.133,
00:00:01:833,0.793,0.47,0.31,5.981,4.943,-21.607,
00:00:01:850,0.791,0.478,0.315,2.868,9.216,-19.41,
00:00:01:866,0.789,0.467,0.316,18.92,14.709,-23.377,
00:00:01:883,0.794,0.467,0.315,15.686,13.977,-23.621,
00:00:01:900,0.8,0.466,0.316,16.54,12.695,-22.217,
00:00:01:916,0.796,0.463,0.32,13.244,10.315,-22.217,
00:00:01:933,0.793,0.467,0.323,5.554,11.23,-25.635,
00:00:01:950,0.796,0.472,0.328,6.836,11.169,-27.894,
00:00:01:966,0.791,0.478,0.323,10.681,10.559,-25.879,
00:00:01:983,0.796,0.476,0.32,12.146,9.033,-27.283,
00:00:02:0,0.798,0.471,0.316,13.122,3.234,-26.123,
00:00:02:16,0.787,0.475,0.319,4.943,3.051,-22.278,
00:00:02:33,0.789,0.478,0.315,0.488,5.92,-22.156,
00:00:02:50,0.792,0.476,0.31,2.075,6.225,-20.691,
00:00:02:66,0.785,0.479,0.308,4.211,5.31,-16.602,
00:00:02:83,0.789,0.475,0.309,11.84,9.826,-20.325,
00:00:02:100,0.796,0.468,0.309,15.197,8.85,-20.935,
00:00:02:116,0.792,0.467,0.316,11.413,11.23,-19.227,
00:00:02:133,0.784,0.474,0.313,9.216,15.014,-22.278,
00:00:02:150,0.796,0.472,0.32,15.258,17.883,-26.612,
00:00:02:166,0.802,0.465,0.324,18.859,30.883,-24.17,
00:00:02:183,0.794,0.466,0.327,18.493,11.901,-21.546,
00:00:02:200,0.789,0.462,0.323,11.779,9.155,-22.583,
00:00:02:216,0.799,0.459,0.328,6.347,7.385,-23.743,
00:00:02:233,0.797,0.463,0.327,-6.165,2.38,-21.363,
00:00:02:250,0.8,0.468,0.316,4.15,0.122,-25.696,
00:00:02:266,0.797,0.471,0.342,-4.944,-0.977,-26.123,
00:00:02:283,0.796,0.468,0.308,-5.921,-1.343,-25.94,
00:00:02:300,0.791,0.471,0.313,-8.179,4.394,-24.842,
00:00:02:316,0.789,0.476,0.314,-1.954,9.643,-24.109,
00:00:02:333,0.791,0.471,0.311,6.836,7.08,-24.109,
00:00:02:350,0.784,0.466,0.312,5.004,8.361,-25.635,
00:00:02:366,0.788,0.462,0.319,1.831,10.253,-29.602,
00:00:02:383,0.798,0.46,0.321,1.892,7.812,-29.725,
00:00:02:400,0.792,0.465,0.321,-5.799,7.568,-27.894,
00:00:02:416,0.794,0.47,0.323,-2.808,8.728,-30.152,
00:00:02:433,0.788,0.472,0.328,-0.55,9.277,-30.03,
00:00:02:450,0.791,0.476,0.326,1.098,6.225,-30.701,
00:00:02:466,0.796,0.472,0.323,2.258,5.981,-31.678,
00:00:02:483,0.796,0.471,0.323,-1.282,2.319,-28.138,
00:00:02:500,0.791,0.478,0.324,-5.249,3.784,-26.062,
00:00:02:516,0.795,0.477,0.32,-2.32,3.173,-24.598,
00:00:02:533,0.789,0.477,0.319,-1.831,1.892,-23.56,
00:00:02:550,0.787,0.478,0.311,-0.245,2.746,-22.583,
00:00:02:566,0.786,0.474,0.308,5.493,4.882,-23.743,
00:00:02:583,0.787,0.47,0.315,4.76,5.859,-19.532,
00:00:02:600,0.788,0.499,0.316,2.075,7.629,-20.142,
00:00:02:616,0.791,0.47,0.312,4.333,9.216,-20.935,
00:00:02:633,0.791,0.472,0.317,4.272,10.376,-20.813,
00:00:02:650,0.79,0.464,0.319,2.807,6.958,-21.851,
00:00:02:666,0.791,0.469,0.322,-2.198,12.207,-22.583,
00:00:02:683,0.794,0.472,0.32,-1.893,7.812,-22.034,
00:00:02:700,0.789,0.474,0.32,-2.686,5.676,-19.288,
00:00:02:716,0.784,0.476,0.319,3.418,9.277,-19.593,
00:00:02:733,0.795,0.472,0.317,7.263,8.3,-20.325,
00:00:02:750,0.798,0.47,0.316,3.784,5.676,-19.227,
00:00:02:766,0.795,0.471,0.313,-1.404,3.906,-19.471,
00:00:02:783,0.795,0.472,0.314,-1.16,10.376,-18.25,
00:00:02:800,0.79,0.477,0.315,0.915,11.23,-16.419,
00:00:02:816,0.787,0.473,0.306,10.009,12.207,-16.175,
00:00:02:833,0.79,0.46,0.317,7.385,12.39,-16.663,
00:00:02:850,0.793,0.462,0.315,3.173,14.709,-20.203,
00:00:02:866,0.802,0.462,0.316,3.479,12.939,-21.973,
00:00:02:883,0.792,0.473,0.312,0.915,11.413,-21.302,
00:00:02:900,0.791,0.474,0.318,2.258,13.488,-24.414,
00:00:02:916,0.8,0.469,0.319,4.699,14.099,-25.269,
00:00:02:933,0.8,0.47,0.313,5.31,12.939,-19.715,
00:00:02:950,0.79,0.473,0.315,6.652,6.713,-18.86,
00:00:02:966,0.792,0.471,0.316,1.953,11.474,-21.241,
00:00:02:983,0.796,0.473,0.315,-0.306,12.512,-19.959,
00:00:03:0,0.791,0.478,0.309,-0.367,11.047,-18.555,
00:00:03:16,0.786,0.479,0.309,10.07,12.817,-21.607,
00:00:03:33,0.795,0.469,0.314,11.291,14.282,-22.217,
00:00:03:50,0.796,0.468,0.316,7.324,13.305,-20.203,
00:00:03:66,0.794,0.468,0.311,5.981,10.315,-18.677,
00:00:03:83,0.795,0.466,0.312,4.455,10.986,-20.02,
00:00:03:100,0.798,0.469,0.314,0.427,9.643,-21.546,
00:00:03:116,0.798,0.471,0.315,3.479,10.803,-20.813,
00:00:03:133,0.798,0.473,0.312,6.713,10.192,-23.011,
00:00:03:150,0.796,0.467,0.315,10.559,7.263,-22.4,
00:00:03:166,0.789,0.469,0.317,3.784,6.53,-23.011,
00:00:03:183,0.798,0.468,0.314,-0.061,9.765,-26.49,
00:00:03:200,0.787,0.472,0.309,6.286,5.554,-20.997,
00:00:03:216,0.791,0.471,0.312,2.38,5.859,-22.4,
00:00:03:233,0.796,0.48,0.305,-2.869,5.127,-23.865,
00:00:03:250,0.803,0.478,0.308,0.183,3.601,-25.818,
00:00:03:266,0.798,0.47,0.312,-1.648,2.868,-21.607,
00:00:03:283,0.784,0.477,0.313,-1.526,9.582,-18.982,
00:00:03:300,0.784,0.478,0.312,5.859,12.817,-21.729,
00:00:03:316,0.787,0.473,0.307,12.146,9.338,-22.767,
00:00:03:333,0.785,0.475,0.313,10.07,13.855,-24.292,
00:00:03:350,0.802,0.47,0.31,8.239,11.291,-25.391,
00:00:03:366,0.807,0.467,0.313,5.554,8.422,-20.02,
00:00:03:383,0.804,0.474,0.316,2.38,7.934,-15.992,
00:00:03:400,0.796,0.473,0.312,5.859,5.676,-17.884,
00:00:03:416,0.784,0.477,0.313,9.704,9.155,-19.165,
00:00:03:433,0.781,0.48,0.307,15.197,10.803,-23.926,
00:00:03:450,0.791,0.47,0.31,17.456,13.061,-24.842,
00:00:03:466,0.79,0.472,0.305,12.451,13.61,-22.4,
00:00:03:483,0.789,0.475,0.307,13.366,14.709,-19.043,
00:00:03:500,0.794,0.476,0.304,13.244,16.113,-19.41,
00:00:03:516,0.794,0.475,0.308,18.31,18.249,-19.532,
00:00:03:533,0.791,0.474,0.312,19.592,16.052,-20.691,
00:00:03:550,0.79,0.475,0.313,19.836,17.15,-21.424,
00:00:03:566,0.795,0.468,0.314,21.179,18.554,-19.898,
00:00:03:583,0.795,0.466,0.315,13.366,14.953,-20.63,
00:00:03:600,0.796,0.47,0.312,10.559,14.831,-17.945,
00:00:03:616,0.801,0.471,0.314,7.385,13.183,-17.334,
00:00:03:633,0.799,0.473,0.315,3.723,12.878,-18.25,
00:00:03:650,0.797,0.472,0.318,11.108,11.596,-18.189,
00:00:03:666,0.797,0.471,0.315,13.122,11.718,-16.297,
00:00:03:683,0.793,0.471,0.319,12.817,9.216,-17.579,
00:00:03:700,0.799,0.47,0.312,3.356,7.385,-19.104,
00:00:03:716,0.79,0.473,0.312,4.821,5.249,-17.823,
00:00:03:733,0.785,0.476,0.309,9.338,7.324,-18.189,
00:00:03:750,0.795,0.47,0.282,11.718,10.986,-21.058,
00:00:03:766,0.8,0.472,0.342,10.986,10.681,-19.837,
00:00:03:783,0.795,0.473,0.305,9.155,7.69,-20.874,
00:00:03:800,0.795,0.468,0.308,4.699,9.277,-21.302,
00:00:03:816,0.789,0.472,0.317,-1.77,11.474,-19.471,
00:00:03:833,0.786,0.478,0.316,4.15,15.197,-18.128,
00:00:03:850,0.795,0.472,0.312,14.282,13.671,-17.334,
00:00:03:866,0.795,0.466,0.319,15.441,9.338,-15.809,
00:00:03:883,0.796,0.464,0.317,12.695,7.263,-19.349,
00:00:03:900,0.802,0.463,0.316,11.474,7.995,-21.912,
00:00:03:916,0.798,0.464,0.318,6.774,7.934,-20.997,
00:00:03:933,0.789,0.473,0.316,8.178,9.094,-21.729,
00:00:03:950,0.79,0.474,0.314,15.808,12.939,-25.635,
00:00:03:966,0.791,0.47,0.311,9.216,7.385,-23.255,
00:00:03:983,0.792,0.473,0.31,3.845,9.155,-23.316,
00:00:04:0,0.793,0.477,0.304,0.732,10.925,-21.302,
00:00:04:16,0.792,0.477,0.305,8.85,12.756,-21.607,
00:00:04:33,0.791,0.474,0.303,13.305,13.549,-21.546,
00:00:04:50,0.791,0.472,0.307,15.441,14.587,-20.569,
00:00:04:66,0.792,0.465,0.314,11.779,14.16,-22.034,
00:00:04:83,0.795,0.465,0.316,7.446,15.014,-24.659,
00:00:04:100,0.795,0.465,0.32,4.394,13.671,-24.231,
00:00:04:116,0.796,0.471,0.314,6.286,14.709,-25.269,
00:00:04:133,0.799,0.47,0.319,8.361,13.305,-23.621,
00:00:04:150,0.796,0.47,0.315,9.46,10.925,-22.034,
00:00:04:166,0.802,0.466,0.314,14.465,9.46,-22.828,
00:00:04:183,0.791,0.465,0.318,9.948,6.347,-21.302,
00:00:04:200,0.789,0.468,0.314,4.76,11.169,-23.438,
00:00:04:216,0.799,0.467,0.311,7.141,10.07,-24.476,
00:00:04:233,0.79,0.471,0.311,7.019,7.08,-23.133,
00:00:04:250,0.78,0.474,0.31,12.268,7.141,-22.034,
00:00:04:266,0.79,0.467,0.31,11.718,10.803,-26.673,
00:00:04:283,0.803,0.47,0.31,5.127,11.718,-24.414,
00:00:04:300,0.798,0.474,0.304,2.563,8.178,-23.804,
00:00:04:316,0.794,0.473,0.303,3.723,6.774,-23.56,
00:00:04:333,0.796,0.473,0.309,3.173,11.718,-22.583,
00:00:04:350,0.787,0.477,0.312,7.446,11.718,-19.349,
00:00:04:366,0.785,0.473,0.307,13.305,13.977,-19.593,
00:00:04:383,0.795,0.46,0.311,16.967,10.437,-20.813,
00:00:04:400,0.794,0.46,0.315,9.033,10.192,-18.982,
00:00:04:416,0.791,0.466,0.319,1.831,7.69,-19.471,
00:00:04:433,0.8,0.469,0.313,2.807,6.652,-22.583,
00:00:04:450,0.797,0.473,0.322,1.098,3.601,-18.311,
00:00:04:466,0.785,0.479,0.316,2.319,4.821,-20.386,
00:00:04:483,0.789,0.474,0.313,12.634,6.897,-21.18,
00:00:04:500,0.796,0.464,0.312,14.77,5.249,-22.767,
00:00:04:516,0.792,0.466,0.315,7.263,2.746,-22.217,
00:00:04:533,0.793,0.463,0.314,2.868,2.685,-21.607,
00:00:04:550,0.794,0.464,0.315,0.427,2.014,-20.203,
00:00:04:566,0.796,0.47,0.311,-2.32,1.525,-20.447,
00:00:04:583,0.798,0.47,0.312,3.967,0.366,-20.691,
00:00:04:600,0.793,0.469,0.311,4.943,4.821,-21.485,
00:00:04:616,0.793,0.469,0.311,7.263,4.577,-21.973,
00:00:04:633,0.792,0.47,0.307,6.164,6.958,-25.147,
00:00:04:650,0.796,0.473,0.307,1.709,7.873,-25.269,
00:00:04:666,0.796,0.474,0.305,3.601,9.094,-22.889,
00:00:04:683,0.795,0.471,0.311,4.577,11.535,-22.644,
00:00:04:700,0.792,0.473,0.313,5.065,12.512,-20.813,
00:00:04:716,0.791,0.473,0.313,12.085,13.366,-21.973,
00:00:04:733,0.795,0.467,0.316,14.709,13.305,-22.583,
00:00:04:750,0.792,0.463,0.319,14.343,11.84,-22.156,
00:00:04:766,0.795,0.463,0.319,7.751,11.047,-23.072,
00:00:04:783,0.802,0.463,0.316,2.38,9.46,-23.56,
00:00:04:800,0.799,0.47,0.316,-0.611,9.338,-21.668,
00:00:04:816,0.788,0.474,0.315,4.699,7.568,-20.935,
00:00:04:833,0.79,0.469,0.319,10.437,9.826,-24.476,
00:00:04:850,0.796,0.469,0.312,2.624,9.521,-25.574,
00:00:04:866,0.804,0.467,0.306,-0.306,7.568,-24.903,
00:00:04:883,0.801,0.466,0.305,-5.738,5.981,-21.546,
00:00:04:900,0.796,0.462,0.313,-19.165,5.859,-17.334,
00:00:04:916,0.795,0.473,0.315,-31.495,12.512,-15.87,
00:00:04:933,0.791,0.484,0.31,-23.621,13,-16.175,
00:00:04:950,0.789,0.481,0.311,-1.587,10.925,-15.503,
00:00:04:966,0.791,0.47,0.317,11.291,7.995,-13.916,
00:00:04:983,0.797,0.467,0.317,11.596,8.178,-17.334,
00:00:05:0,0.803,0.463,0.312,1.342,7.507,-19.837,
00:00:05:16,0.799,0.469,0.31,0.793,8.178,-22.156,
00:00:05:33,0.8,0.472,0.306,17.089,10.437,-22.95,
00:00:05:50,0.793,0.468,0.303,44.372,9.826,-22.339,
00:00:05:66,0.832,0.375,0.304,81.481,23.62,-26.429,
00:00:05:83,0.911,0.233,0.24,96.252,48.339,-61.097,
00:00:05:100,0.876,0.129,0.211,362.304,77.27,-121.033,
00:00:05:116,1.044,0.057,0.346,1035.766,177.185,-431.763,
00:00:05:133,1.463,-0.351,0.642,1778.259,29.174,-584.778,
00:00:05:150,1.523,-1.33,0.406,1999.694,-297.669,-716.98,
00:00:05:166,1.303,-2.396,0.235,1997.375,-504.578,-1063.477,
00:00:05:183,1.003,-2.99,0.232,306.091,-155.945,-1465.088,
00:00:05:200,1.359,-1.898,0.556,-1018.372,151.428,-1579.285,
00:00:05:216,1.947,-0.792,0.47,-1333.191,174.56,-1753.907,
00:00:05:233,1.947,0.366,0.163,-594.056,240.661,-1940.735,
00:00:05:250,2.366,1.356,0.49,506.958,394.775,-2000,
00:00:05:266,1.247,1.842,0.853,140.747,-126.526,-1038.819,
00:00:05:283,0.656,1.714,0.803,-229.065,-379.09,-640.381,
00:00:05:300,0.375,1.469,0.523,-205.262,-584.29,-459.534,
00:00:05:316,0.234,1.078,0.485,-18.555,-614.991,-459.717,
00:00:05:333,0.295,0.892,0.372,-99.61,-338.257,-402.283,
00:00:05:350,0.609,0.692,0.177,-123.108,-169.373,-303.101,
00:00:05:366,0.796,0.468,0.105,-96.985,-229.432,-182.618,
00:00:05:383,0.763,0.398,0.258,-83.252,-186.463,-143.25,
00:00:05:400,0.795,0.205,0.197,-117.188,-131.958,-65.918,
00:00:05:416,0.782,0.028,0.255,-39.978,-100.892,6.53,
00:00:05:433,0.796,-0.133,0.36,39.428,-21.851,12.39,
00:00:05:450,0.856,-0.247,0.415,27.71,28.686,3.479,
00:00:05:466,0.862,-0.294,0.44,1.586,15.625,14.953,
00:00:05:483,0.823,-0.357,0.429,1.831,2.746,22.399,
00:00:05:500,0.803,-0.387,0.499,30.151,40.588,-60.914,
00:00:05:516,0.795,-0.321,0.539,8.056,48.156,-82.459,
00:00:05:533,0.796,-0.308,0.522,9.704,56.884,-85.511,
00:00:05:550,0.813,-0.259,0.541,18.554,58.654,-87.83,
00:00:05:566,0.826,-0.231,0.497,22.644,47.058,-86.976,
00:00:05:583,0.831,-0.203,0.501,1.709,19.958,-78.736,
00:00:05:600,0.822,-0.152,0.516,-0.55,22.522,-67.505,
00:00:05:616,0.812,-0.171,0.507,-8.912,26.428,-52.369,
00:00:05:633,0.794,-0.164,0.479,-58.655,42.114,-45.655,
00:00:05:650,0.798,-0.089,0.479,-54.139,60.241,-40.772,
00:00:05:666,0.788,0.017,0.461,69.763,75.805,-23.804,
00:00:05:683,0.829,-0.082,0.455,246.643,56.091,-7.325,
00:00:05:700,0.819,-0.181,0.428,233.276,25.268,24.108,
00:00:05:716,0.794,-0.208,0.427,121.032,28.381,35.522,
00:00:05:733,0.803,-0.183,0.494,21.667,17.089,50.476,
00:00:05:750,0.797,-0.133,0.495,25.085,34.057,61.584,
00:00:05:766,0.816,-0.196,0.501,86.12,11.779,74.585,
00:00:05:783,0.805,-0.245,0.503,48.4,10.498,78.064,
00:00:05:800,0.81,-0.238,0.522,3.356,26.55,76.477,
00:00:05:816,0.814,-0.291,0.529,-58.96,42.297,69.763,
00:00:05:833,0.792,-0.195,0.512,-35.096,81.054,38.269,
00:00:05:850,0.852,-0.245,0.508,25.878,71.167,11.291,
00:00:05:866,0.844,-0.263,0.518,48.095,27.771,14.648,
00:00:05:883,0.846,-0.308,0.512,38.452,10.62,15.014,
00:00:05:900,0.848,-0.301,0.54,40.283,14.77,6.042,
00:00:05:916,0.857,-0.271,0.553,75.866,42.846,-18.067,
00:00:05:933,0.893,-0.25,0.58,72.448,54.504,-41.382,
00:00:05:950,0.881,-0.039,0.585,-1.526,62.561,-65.064,
00:00:05:966,0.861,0.623,0.727,-31.128,121.276,-90.332,
00:00:05:983,0.945,1.534,1.123,17.883,283.264,-67.139,
00:00:06:0,1.171,2.305,1.257,22.399,261.779,157.959,
00:00:06:16,1.421,2.565,1.027,15.319,-76.844,763.977,
00:00:06:33,1.342,1.972,0.785,-173.096,-530.335,1513.977,
00:00:06:50,0.998,1.303,0.532,-509.034,-696.534,1999.328,
00:00:06:66,0.857,0.866,0.508,-503.418,-613.526,1999.694,
00:00:06:83,0.977,0.191,0.274,-249.512,-447.632,1999.694,
00:00:06:100,1.144,-0.447,0.305,-146.912,-386.475,1925.171,
00:00:06:116,1.543,-0.96,0.003,161.255,5.065,1341.003,
00:00:06:133,1.861,-1.526,0.094,306.701,33.691,1140.38,
00:00:06:150,1.372,-1.188,0.143,93.933,5.31,940.796,
00:00:06:166,1.242,-1.081,0.387,125.183,245.544,510.742,
00:00:06:183,1.454,-0.866,0.416,286.865,421.508,431.03,
00:00:06:200,1.271,-0.909,0.564,397.277,232.177,260.864,
00:00:06:216,0.936,-0.675,0.674,147.583,190.124,58.532,
00:00:06:233,0.82,-0.268,0.621,2.929,221.008,-33.814,
00:00:06:250,0.79,0.083,0.651,92.285,180.603,-120.057,
00:00:06:266,0.764,0.202,0.677,153.503,129.15,-149.72,
00:00:06:283,0.732,0.17,0.542,48.95,91.796,-143.982,
00:00:06:300,0.687,0.265,0.479,-99.305,83.923,-128.907,
00:00:06:316,0.723,0.548,0.452,-107.789,143.676,-132.813,
00:00:06:333,0.827,0.589,0.474,65.368,122.741,-130.249,
00:00:06:350,0.805,0.498,0.565,172.363,67.871,-83.069,
00:00:06:366,0.766,0.411,0.569,78.369,70.312,-38.392,
00:00:06:383,0.734,0.373,0.52,20.385,56.579,-10.865,
00:00:06:400,0.69,0.449,0.566,33.569,66.406,-5.249,
00:00:06:416,0.737,0.443,0.583,155.273,70.495,-36.805,
00:00:06:433,0.8,0.248,0.601,149.475,22.949,-32.593,
00:00:06:450,0.737,0.317,0.537,50.293,21.301,-14.588,
00:00:06:466,0.789,0.334,0.507,50.354,43.151,-1.038,
00:00:06:483,0.807,0.333,0.521,85.632,29.235,12.817,
00:00:06:500,0.796,0.274,0.544,75.378,35.888,6.286,
00:00:06:516,0.82,0.26,0.508,-29.847,40.527,17.761,
00:00:06:533,0.83,0.286,0.499,-98.206,13.244,21.789,
00:00:06:550,0.81,0.283,0.508,-112.549,-7.203,32.592,
00:00:06:566,0.764,0.279,0.554,-76.416,-8.24,20.874,
00:00:06:583,0.753,0.248,0.5,-5.677,6.408,-12.269,
00:00:06:600,0.743,0.192,0.535,11.108,-5.066,-38.636,
00:00:06:616,0.719,0.225,0.534,-26.856,22.338,-61.829,
00:00:06:633,0.764,0.32,0.508,-55.054,59.021,-90.882,
00:00:06:650,0.8,0.376,0.467,-3.418,42.175,-81.116,
00:00:06:666,0.791,0.305,0.484,43.945,-4.944,-70.435,
00:00:06:683,0.74,0.315,0.504,2.014,4.15,-50.171,
00:00:06:700,0.783,0.348,0.515,-22.339,34.729,-66.651,
00:00:06:716,0.828,0.333,0.538,-10.376,16.845,-79.285,
00:00:06:733,0.824,0.315,0.532,-22.217,-2.869,-88.44,
00:00:06:750,0.814,0.304,0.521,-27.649,-21.607,-90.882,
00:00:06:766,0.79,0.239,0.517,-37.476,-55.237,-81.177,
00:00:06:783,0.736,0.234,0.519,-66.834,-66.956,-66.529,
00:00:06:800,0.708,0.209,0.534,-56.641,-68.909,-72.51,
00:00:06:816,0.666,0.226,0.494,-21.363,-46.753,-85.877,
00:00:06:833,0.689,0.212,0.513,26.794,-18.006,-126.831,
00:00:06:850,0.749,0.195,0.519,-33.997,-13.855,-152.161,
00:00:06:866,0.705,0.223,0.477,-101.807,-30.091,-162.049,
00:00:06:883,0.71,0.181,0.48,-142.334,-20.386,-159.729,
00:00:06:900,0.712,0.297,0.507,-175.415,7.324,-167.908,
00:00:06:916,0.728,0.426,0.516,-84.9,38.391,-198.975,
00:00:06:933,0.776,0.413,0.564,55.358,6.469,-206.727,
00:00:06:950,0.751,0.38,0.589,85.998,-21.058,-181.214,
00:00:06:966,0.75,0.332,0.576,26.001,-37.171,-148.072,
00:00:06:983,0.79,0.29,0.526,-57.74,-77.698,-111.268,
00:00:07:0,0.809,0.296,0.503,-129.944,-92.713,-90.455,
00:00:07:16,0.788,0.409,0.57,-112.061,-51.27,-114.624,
00:00:07:33,0.822,0.409,0.64,-22.767,-35.279,-175.599,
00:00:07:50,0.832,0.35,0.64,-12.269,-55.787,-191.407,
00:00:07:66,0.827,0.304,0.616,-81.36,-96.497,-166.748,
00:00:07:83,0.815,0.26,0.56,-166.321,-140.015,-121.033,
00:00:07:100,0.802,0.265,0.531,-229.493,-169.495,-66.895,
00:00:07:116,0.763,0.34,0.516,-215.332,-178.04,-29.664,
00:00:07:133,0.726,0.331,0.56,-113.221,-204.59,-35.218,
00:00:07:150,0.7,0.292,0.586,-81.482,-194.031,-48.829,
00:00:07:166,0.749,0.302,0.55,-118.775,-137.574,-65.43,
00:00:07:183,0.844,0.284,0.521,-142.029,-128.602,-75.257,
00:00:07:200,0.9,0.267,0.54,-190.369,-153.504,-59.937,
00:00:07:216,0.89,0.265,0.535,-252.076,-167.664,-39.002,
00:00:07:233,0.873,0.308,0.538,-274.72,-175.049,-13.794,
00:00:07:250,0.828,0.327,0.537,-243.714,-182.312,15.502,
00:00:07:266,0.768,0.316,0.567,-158.387,-197.51,41.259,
00:00:07:283,0.71,0.269,0.588,-102.662,-197.449,52.856,
00:00:07:300,0.658,0.249,0.605,-82.886,-194.764,66.406,
00:00:07:316,0.635,0.244,0.587,-68.421,-179.993,55.114,
00:00:07:333,0.651,0.157,0.564,-82.032,-204.468,47.607,
00:00:07:350,0.642,0.18,0.555,-144.593,-230.957,57.8,
00:00:07:366,0.651,0.237,0.56,-221.436,-232.361,62.255,
00:00:07:383,0.666,0.312,0.542,-237.488,-219.788,48.828,
00:00:07:400,0.686,0.367,0.57,-190.552,-224.549,29.48,
00:00:07:416,0.66,0.364,0.596,-161.438,-227.356,40.832,
00:00:07:433,0.624,0.379,0.632,-148.987,-184.144,49.194,
00:00:07:450,0.626,0.377,0.658,-127.808,-140.381,50.903,
00:00:07:466,0.644,0.369,0.656,-110.962,-114.014,58.593,
00:00:07:483,0.664,0.335,0.657,-128.54,-131.836,66.772,
00:00:07:500,0.674,0.381,0.671,-159.913,-149.109,86.608,
00:00:07:516,0.682,0.386,0.654,-189.454,-197.937,98.083,
00:00:07:533,0.655,0.381,0.659,-231.629,-249.878,118.896,
00:00:07:550,0.628,0.373,0.646,-289.124,-256.653,133.972,
00:00:07:566,0.619,0.427,0.623,-321.839,-231.446,148.742,
00:00:07:583,0.637,0.468,0.598,-282.959,-205.933,147.155,
00:00:07:600,0.631,0.47,0.596,-261.17,-204.285,150.329,
00:00:07:616,0.573,0.49,0.599,-225.22,-185.425,156.311,
00:00:07:633,0.549,0.474,0.582,-172.913,-153.504,138.672,
00:00:07:650,0.542,0.432,0.604,-123.536,-149.72,137.512,
00:00:07:666,0.55,0.42,0.664,-177.796,-100.586,125.854,
00:00:07:683,0.597,0.456,0.678,-216.126,-75.135,94.116,
00:00:07:700,0.621,0.475,0.67,-254.883,-59.51,67.199,
00:00:07:716,0.632,0.524,0.659,-290.772,-16.175,36.621,
00:00:07:733,0.651,0.537,0.635,-294.556,-4.029,6.286,
00:00:07:750,0.677,0.534,0.639,-311.89,14.465,-6.653,
00:00:07:766,0.674,0.541,0.629,-362.488,30.761,-11.17,
00:00:07:783,0.664,0.521,0.62,-424.622,46.569,-21.302,
00:00:07:800,0.673,0.48,0.612,-555.909,44.311,-31.189,
00:00:07:816,0.607,0.548,0.559,-639.466,79.711,-32.837,
00:00:07:833,0.588,0.561,0.507,-598.023,85.144,-63.538,
00:00:07:850,0.538,0.536,0.476,-526.429,74.34,-61.524,
00:00:07:866,0.478,0.528,0.443,-462.281,91.43,-64.82,
00:00:07:883,0.473,0.509,0.418,-425.782,102.111,-73.914,
00:00:07:900,0.454,0.513,0.416,-432.129,123.23,-86.365,
00:00:07:916,0.424,0.536,0.422,-408.753,174.255,-118.042,
00:00:07:933,0.436,0.583,0.389,-342.102,231.323,-150.94,
00:00:07:950,0.469,0.554,0.359,-350.159,231.567,-184.998,
00:00:07:966,0.474,0.599,0.354,-386.353,231.811,-154.969,
00:00:07:983,0.499,1.049,0.503,-150.574,189.026,-101.99,
00:00:08:0,0.463,1.004,0.518,-14.161,140.991,-8.362,
00:00:08:16,0.463,0.926,0.52,22.338,81.359,104.248,
00:00:08:33,0.408,1.061,0.547,142.944,-6.165,215.21,
00:00:08:50,0.432,1.05,0.598,288.147,-133.545,212.524,
00:00:08:66,0.403,1.012,0.678,304.443,-208.924,252.929,
00:00:08:83,0.377,1.003,0.67,251.281,-229.737,262.878,
00:00:08:100,0.418,0.932,0.627,264.221,-283.143,266.479,
00:00:08:116,0.395,0.858,0.617,266.723,-351.807,297.973,
00:00:08:133,0.357,0.836,0.613,235.29,-375.428,322.754,
00:00:08:150,0.351,0.816,0.55,249.939,-393.128,332.031,
00:00:08:166,0.319,0.839,0.55,315.734,-419.922,347.839,
00:00:08:183,0.29,0.786,0.571,409.118,-422.73,326.721,
00:00:08:200,0.288,0.748,0.583,471.313,-392.273,312.378,
00:00:08:216,0.301,0.724,0.549,524.17,-372.925,277.526,
00:00:08:233,0.297,0.678,0.497,529.968,-367.554,240.112,
00:00:08:250,0.283,0.644,0.518,483.581,-336.548,217.651,
00:00:08:266,0.299,0.682,0.521,437.683,-265.015,157.043,
00:00:08:283,0.386,0.684,0.516,400.695,-250.55,108.215,
00:00:08:300,0.379,0.694,0.482,421.936,-212.708,61.462,
00:00:08:316,0.398,0.686,0.461,484.985,-144.654,1.403,
00:00:08:333,0.476,0.618,0.45,533.935,-128.602,-25.635,
00:00:08:350,0.461,0.56,0.438,507.263,-104.859,-43.03,
00:00:08:366,0.451,0.511,0.464,378.967,-57.618,-81.971,
00:00:08:383,0.448,0.541,0.493,294.555,32.104,-134.4,
00:00:08:400,0.51,0.564,0.461,276.123,84.472,-184.021,
00:00:08:416,0.535,0.536,0.444,328.857,111.267,-203.431,
00:00:08:433,0.524,0.476,0.493,315.857,133.911,-218.689,
00:00:08:450,0.505,0.467,0.512,270.385,214.477,-236.451,
00:00:08:466,0.553,0.473,0.526,237.121,276.611,-261.658,
00:00:08:483,0.583,0.52,0.52,266.784,287.048,-261.048,
00:00:08:500,0.567,0.525,0.484,362.915,285.339,-265.015,
00:00:08:516,0.594,0.473,0.485,489.257,302.002,-274.598,
00:00:08:533,0.661,0.368,0.554,503.662,273.559,-242.798,
00:00:08:550,0.64,0.345,0.629,398.254,270.019,-205.201,
00:00:08:566,0.636,0.406,0.634,249.817,307.067,-202.637,
00:00:08:583,0.662,0.51,0.612,253.112,337.829,-202.271,
00:00:08:600,0.688,0.516,0.66,348.327,325.5,-199.83,
00:00:08:616,0.635,0.442,0.688,387.207,324.401,-184.693,
00:00:08:633,0.571,0.39,0.7,351.928,350.83,-171.692,
00:00:08:650,0.565,0.36,0.684,310.424,362.732,-160.401,
00:00:08:666,0.557,0.349,0.654,304.443,360.229,-132.386,
00:00:08:683,0.578,0.354,0.626,336.364,345.947,-119.812,
00:00:08:700,0.627,0.333,0.636,392.028,297.546,-111.39,
00:00:08:716,0.639,0.325,0.682,403.747,254.76,-99.549,
00:00:08:733,0.671,0.327,0.69,370.178,242.614,-105.591,
00:00:08:750,0.739,0.297,0.681,287.841,198.242,-111.512,
00:00:08:766,0.729,0.321,0.672,243.103,156.982,-99.06,
00:00:08:783,0.753,0.233,0.667,200.439,122.436,-113.282,
00:00:08:800,0.748,0.23,0.636,83.618,87.036,-94.483,
00:00:08:816,0.705,0.32,0.6,96.252,79.956,-91.553,
00:00:08:833,0.734,0.265,0.642,214.66,56.03,-88.807,
00:00:08:850,0.718,0.179,0.707,247.192,40.039,-57.373,
00:00:08:866,0.682,0.211,0.724,200.256,76.721,-47.547,
00:00:08:883,0.716,0.202,0.734,150.085,88.195,-55.054,
00:00:08:900,0.707,0.178,0.717,90.393,63.964,-56.946,
00:00:08:916,0.687,0.137,0.704,41.992,24.169,-69.092,
00:00:08:933,0.67,0.151,0.7,17.15,16.723,-83.008,
00:00:08:950,0.695,0.174,0.749,6.713,4.15,-89.295,
00:00:08:966,0.684,0.218,0.725,28.198,16.479,-86.548,
00:00:08:983,0.717,0.182,0.727,89.111,44.86,-65.674,
00:00:09:0,0.702,0.166,0.678,40.466,62.988,-45.96,
00:00:09:16,0.747,0.178,0.692,28.808,22.461,-35.828,
00:00:09:33,0.72,0.179,0.71,25.573,-15.381,-31.434,
00:00:09:50,0.694,0.186,0.741,-16.053,-18.738,-26.123,
00:00:09:66,0.697,0.235,0.748,-32.959,0.549,-5.188,
00:00:09:83,0.714,0.236,0.731,-5.86,-2.747,-1.465,
00:00:09:100,0.693,0.133,0.651,-33.387,0.183,3.723,
00:00:09:116,0.681,0.061,0.68,-167.969,-29.908,0.366,
00:00:09:133,0.701,0.163,0.67,-275.33,-67.2,-13.245,
00:00:09:150,0.737,0.292,0.704,-265.87,-118.287,-24.292,
00:00:09:166,0.734,0.37,0.79,-138.855,-111.451,-4.09,
00:00:09:183,0.703,0.208,0.746,-124.695,-119.08,-6.043,
00:00:09:200,0.698,0.231,0.705,-143.921,-120.606,24.902,
00:00:09:216,0.668,0.248,0.741,-195.008,-81.116,53.711,
00:00:09:233,0.672,0.209,0.682,-327.088,-79.102,54.199,
00:00:09:250,0.657,0.253,0.652,-319.947,-93.262,40.954,
00:00:09:266,0.672,0.366,0.656,-182.496,-114.93,25.146,
00:00:09:283,0.654,0.289,0.709,-98.145,-127.137,23.132,
00:00:09:300,0.667,0.197,0.724,-211.853,-134.156,27.526,
00:00:09:316,0.684,0.198,0.723,-431.641,-130.555,63.842,
00:00:09:333,0.75,0.362,0.723,-673.523,-167.481,110.595,
00:00:09:350,0.801,0.505,0.714,-726.502,-216.614,132.629,
00:00:09:366,0.834,0.416,0.668,-755.982,-276.673,171.997,
00:00:09:383,0.814,0.519,0.63,-837.586,-333.924,277.771,
00:00:09:400,0.787,0.639,0.671,-907.715,-355.896,373.901,
00:00:09:416,0.793,0.655,0.629,-1026.246,-355.408,454.651,
00:00:09:433,0.721,0.682,0.54,-1104.065,-327.454,530.395,
00:00:09:450,0.656,0.749,0.465,-1024.842,-288.758,586.303,
00:00:09:466,0.614,0.772,0.482,-891.297,-289.307,600.891,
00:00:09:483,0.524,0.69,0.462,-831.727,-270.691,612.487,
00:00:09:500,0.428,0.661,0.446,-825.013,-251.954,592.529,
00:00:09:516,0.363,0.71,0.484,-899.109,-226.38,557.373,
00:00:09:533,0.313,0.704,0.493,-1048.829,-155.884,488.159,
00:00:09:550,0.254,0.708,0.477,-1005.982,-102.295,416.504,
00:00:09:566,0.223,0.717,0.423,-828.248,-68.421,391.113,
00:00:09:583,0.178,0.762,0.44,-555.115,-52.43,371.399,
00:00:09:600,0.171,0.774,0.447,-407.044,-50.538,345.642,
00:00:09:616,0.184,0.738,0.451,-436.524,-55.298,302.49,
00:00:09:633,0.175,0.696,0.422,-560.608,-51.514,254.455,
00:00:09:650,0.176,0.723,0.414,-623.475,-36.866,192.688,
00:00:09:666,0.178,0.779,0.44,-664.673,-21.851,173.095,
00:00:09:683,0.194,0.869,0.356,-652.894,-31.556,140.503,
00:00:09:700,0.182,0.904,0.344,-540.162,-64.942,132.629,
00:00:09:716,0.179,0.907,0.359,-415.039,-65.674,148.193,
00:00:09:733,0.209,0.836,0.382,-283.326,-88.99,136.596,
00:00:09:750,0.134,0.805,0.37,-253.602,-49.866,116.394,
00:00:09:766,0.187,0.834,0.295,-271.363,-46.692,80.932,
00:00:09:783,0.18,0.88,0.309,-161.011,-42.237,79.834,
00:00:09:800,0.168,0.836,0.36,69.641,-84.778,101.013,
00:00:09:816,0.154,0.84,0.454,217.163,-72.327,94.177,
00:00:09:833,0.151,0.834,0.379,230.59,-45.35,84.228,
00:00:09:850,0.17,0.895,0.324,226.806,-28.382,49.743,
00:00:09:866,0.154,0.869,0.328,268.554,-16.48,37.231,
00:00:09:883,0.164,0.814,0.363,238.464,-17.029,13.366,
00:00:09:900,0.148,0.888,0.381,244.69,-18.128,-5.921,
00:00:09:916,0.162,0.947,0.385,384.521,-33.265,-23.377,
00:00:09:933,0.152,0.912,0.384,416.381,-30.396,-6.592,
00:00:09:950,0.177,0.946,0.356,316.406,-38.758,-57.068,
00:00:09:966,0.164,0.903,0.36,188.903,-28.443,-72.388,
00:00:09:983,0.188,0.958,0.396,119.873,-13.245,-111.39,
00:00:10:0,0.189,0.976,0.383,251.831,-14.039,-98.694,
00:00:10:16,0.193,0.99,0.369,375.183,-41.443,-67.872,
00:00:10:33,0.167,0.876,0.382,440.796,-67.749,-24.598,
00:00:10:50,0.155,0.817,0.37,350.28,-71.595,-28.87,
00:00:10:66,0.161,0.91,0.39,214.965,-62.684,-56.397,
00:00:10:83,0.188,0.895,0.44,245.239,-48.401,-68.238,
00:00:10:100,0.182,0.832,0.436,214.843,-59.632,-71.656,
00:00:10:116,0.126,0.878,0.451,169.86,-64.881,-77.759,
00:00:10:133,0.15,0.735,0.448,73.608,-65.613,-40.833,
00:00:10:150,0.143,0.781,0.456,-143.189,-73.487,-1.526,
00:00:10:166,0.172,0.904,0.386,-222.474,-105.103,-16.602,
00:00:10:183,0.123,0.875,0.448,91.003,-65.857,-5.494,
00:00:10:200,0.138,0.734,0.545,102.722,-155.884,-76.539,
00:00:10:216,0.103,0.809,0.47,-8.667,-147.4,-101.319,
00:00:10:233,0.159,0.754,0.357,-17.212,-168.03,-111.939,
00:00:10:250,0.168,0.893,0.321,10.864,-165.711,-106.324,
00:00:10:266,0.153,0.921,0.514,165.832,-147.461,-86.487,
00:00:10:283,0.128,0.805,0.628,227.111,-76.111,-46.57,
00:00:10:300,0.161,0.877,0.577,181.64,-53.711,-59.449,
00:00:10:316,0.13,0.873,0.573,220.52,-49.134,-17.151,
00:00:10:333,0.168,0.832,0.542,140.38,-42.664,-10.743,
00:00:10:350,0.117,0.697,0.514,-32.715,21.423,-2.076,
00:00:10:366,0.173,0.786,0.572,-202.637,-48.645,-16.175,
00:00:10:383,0.15,0.84,0.55,-129.639,-39.124,14.77,
00:00:10:400,0.131,0.751,0.553,-132.264,-24.048,20.08,
00:00:10:416,0.138,0.754,0.54,-255.738,-12.94,8.911,
00:00:10:433,0.173,0.757,0.448,-411.683,-36.133,3.601,
00:00:10:450,0.172,0.787,0.354,-556.092,-78.553,-9.095,
00:00:10:466,0.155,0.856,0.358,-721.375,-94.605,-20.752,
00:00:10:483,0.159,0.895,0.385,-901.49,-96.741,-31.739,
00:00:10:500,0.142,0.885,0.404,-1021.241,-99.305,-29.664,
00:00:10:516,0.135,0.919,0.406,-1085.389,-97.413,-26.49,
00:00:10:533,0.144,0.94,0.331,-1062.012,-109.192,-16.053,
00:00:10:550,0.155,0.96,0.183,-967.53,-121.521,8.361,
00:00:10:566,0.152,0.991,0.119,-808.899,-125.733,4.76,
00:00:10:583,0.141,0.987,0.154,-675.965,-108.216,4.76,
00:00:10:600,0.122,0.935,0.098,-646.241,-40.223,-10.926,
00:00:10:616,0.148,0.94,0.085,-629.273,2.258,-24.17,
00:00:10:633,0.122,0.945,0.024,-572.144,58.654,-10.071,
00:00:10:650,0.167,0.924,-0.049,-463.746,63.171,-13.977,
00:00:10:666,0.185,0.944,-0.035,-387.085,34.606,-5.86,
00:00:10:683,0.133,0.978,-0.078,-375.55,58.96,-3.724,
00:00:10:700,0.171,0.997,0.023,-364.991,-15.503,-9.156,
00:00:10:716,0.132,0.986,0.025,-352.112,-59.571,-17.945,
00:00:10:733,0.088,0.932,0.002,-442.994,-61.951,-23.865,
00:00:10:750,0.108,0.952,-0.022,-506.226,-37.171,-34.18,
00:00:10:766,0.142,0.978,-0.106,-384.827,-27.222,-12.757,
00:00:10:783,0.184,0.99,-0.118,-258.179,-26.368,10.864,
00:00:10:800,0.151,1.076,-0.087,-132.081,-18.86,10.131,
00:00:10:816,0.143,1.028,-0.074,-22.461,-12.574,15.869,
00:00:10:833,0.109,0.959,-0.071,29.174,-1.954,10.681,
00:00:10:850,0.132,0.94,-0.098,-59.998,53.222,0.488,
00:00:10:866,0.138,0.974,-0.012,2.441,29.235,6.897,
00:00:10:883,0.142,1.028,-0.047,48.217,37.048,-1.343,
00:00:10:900,0.156,1.035,-0.034,159.423,19.165,-10.926,
00:00:10:916,0.146,0.933,-0.031,216.797,-8.728,-9.217,
00:00:10:933,0.132,0.859,-0.042,127.197,-6.165,-22.828,
00:00:10:950,0.142,0.911,-0.064,-1.099,13,-24.048,
00:00:10:966,0.149,0.975,-0.12,-57.19,25.207,-41.993,
00:00:10:983,0.145,0.988,-0.1,1.22,26.001,-49.744,
00:00:11:0,0.135,0.97,-0.077,22.033,41.992,-42.542,
00:00:11:16,0.133,0.947,-0.102,-50.415,62.927,-43.091,
00:00:11:33,0.146,0.939,-0.116,-63.599,71.777,-40.284,
00:00:11:50,0.172,0.982,-0.034,12.39,13.61,-15.198,
00:00:11:66,0.116,0.949,-0.068,31.799,-4.761,-14.832,
00:00:11:83,0.123,0.843,-0.056,-24.903,1.525,-29.48,
00:00:11:100,0.111,0.905,-0.132,-155.457,31.921,-38.025,
00:00:11:116,0.125,1.072,-0.208,-52.369,36.682,-23.743,
00:00:11:133,0.113,1.006,-0.214,216.003,51.086,-12.146,
00:00:11:150,0.115,0.955,-0.186,406.25,82.275,17.456,
00:00:11:166,0.13,0.957,-0.131,486.694,84.411,33.264,
00:00:11:183,0.125,0.967,-0.089,559.021,66.223,40.039,
00:00:11:200,0.125,0.942,-0.062,527.343,49.926,29.663,
00:00:11:216,0.105,0.893,-0.078,513.061,51.086,27.832,
00:00:11:233,0.133,0.897,0.04,547.912,10.62,39.55,
00:00:11:250,0.111,0.973,0.105,542.602,-5.066,31.555,
00:00:11:266,0.111,0.959,0.183,561.157,-12.757,17.211,
00:00:11:283,0.118,0.924,0.201,506.286,1.098,5.676,
00:00:11:300,0.132,1.042,0.111,515.442,17.334,-14.771,
00:00:11:316,0.125,1.066,0.122,613.342,24.78,8.728,
00:00:11:333,0.107,0.944,0.207,606.323,59.57,15.502,
00:00:11:350,0.116,0.932,0.318,416.748,87.036,5.371,
00:00:11:366,0.125,0.896,0.394,243.164,79.101,-19.043,
00:00:11:383,0.087,0.911,0.389,67.688,84.716,-54.993,
00:00:11:400,0.135,0.928,0.308,20.08,66.528,-48.035,
00:00:11:416,0.133,0.981,0.258,43.518,61.096,-32.776,
00:00:11:433,0.16,0.928,0.179,3.784,44.677,-23.072,
00:00:11:450,0.151,0.913,0.182,-52.796,16.906,-11.17,
00:00:11:466,0.135,0.931,0.175,-157.044,8.911,-17.762,
00:00:11:483,0.13,0.935,0.172,-247.071,8.789,-28.077,
00:00:11:500,0.124,0.99,0.201,-257.019,3.906,-38.269,
00:00:11:516,0.131,0.963,0.201,-278.565,-11.353,-59.571,
00:00:11:533,0.119,1.06,0.171,-226.319,-37.415,-90.332,
00:00:11:550,0.136,1.047,0.21,-94.361,-88.929,-114.991,
00:00:11:566,0.132,0.804,0.223,-188.782,-63.05,-96.863,
00:00:11:583,0.142,0.992,0.218,-396.241,-55.603,-131.165,
00:00:11:600,0.149,1.145,0.167,-278.87,-65.735,-102.539,
00:00:11:616,0.115,1.07,0.065,390.869,-81.299,-13.916,
00:00:11:633,0.1,0.956,0.082,552.124,-53.284,28.625,
00:00:11:650,0.088,0.882,0.097,514.099,-25.147,40.649,
00:00:11:666,0.111,0.884,0.185,363.464,-7.203,-4.09,
00:00:11:683,0.093,0.852,0.188,274.841,-6.958,-16.053,
00:00:11:700,0.123,0.856,0.251,223.388,8.544,-40.833,
00:00:11:716,0.117,0.888,0.248,237.304,9.155,-45.716,
00:00:11:733,0.13,0.873,0.22,113.769,1.403,-91.248,
00:00:11:750,0.099,0.852,0.159,-39.551,22.522,-124.146,
00:00:11:766,0.139,0.891,0.185,-38.331,23.132,-122.01,
00:00:11:783,0.121,0.92,0.244,161.987,35.827,-90.455,
00:00:11:800,0.163,0.911,0.27,237.365,25.756,-69.458,
00:00:11:816,0.148,0.97,0.307,155.883,-1.282,-72.632,
00:00:11:833,0.162,0.791,0.26,191.711,-26.123,-95.948,
00:00:11:850,0.181,0.939,0.353,-95.948,-55.115,-107.972,
00:00:11:866,0.147,1.003,0.293,12.817,-42.542,-58.594,
00:00:11:883,0.145,0.908,0.245,58.41,-35.34,-72.693,
00:00:11:900,0.157,0.895,0.201,87.097,-5.127,-73.243,
00:00:11:916,0.141,0.883,0.203,61.767,43.335,-93.445,
00:00:11:933,0.147,0.865,0.219,2.929,93.627,-114.991,
00:00:11:950,0.156,0.938,0.249,35.705,120.422,-111.268,
00:00:11:966,0.136,0.995,0.282,155.7,118.469,-100.464,
00:00:11:983,0.157,0.918,0.289,221.313,107.666,-97.474,breakEggRH
00:00:12:0,0.173,0.875,0.329,261.413,83.129,-89.417,
00:00:12:16,0.171,0.87,0.333,380.554,70.129,-78.858,
00:00:12:33,0.125,0.732,0.354,529.419,73.974,-79.712,
00:00:12:50,0.096,0.683,0.383,577.697,80.139,-108.216,
00:00:12:66,0.073,0.566,0.445,479.37,92.041,-183.472,
00:00:12:83,0.047,0.523,0.526,217.468,78.002,-276.795,
00:00:12:100,0.03,0.682,0.567,89.05,33.874,-369.69,
00:00:12:116,0.016,0.635,0.578,234.13,-31.189,-430.237,
00:00:12:133,0.002,0.729,0.661,443.786,-107.3,-496.155,
00:00:12:150,0.002,0.64,0.753,525.695,-158.448,-556.763,
00:00:12:166,0.052,0.708,0.768,285.217,-241.456,-666.748,
00:00:12:183,0.121,0.854,0.736,224.121,-322.571,-740.113,
00:00:12:200,0.191,0.963,0.722,390.258,-353.638,-741.578,
00:00:12:216,0.309,0.921,0.628,590.515,-370.85,-700.379,
00:00:12:233,0.42,0.899,0.543,570.312,-377.076,-651.062,
00:00:12:250,0.489,0.997,0.582,389.953,-380.372,-605.042,
00:00:12:266,0.524,1.077,0.555,388.916,-343.384,-517.762,
00:00:12:283,0.558,1.007,0.499,458.801,-284.241,-414.124,
00:00:12:300,0.573,0.887,0.458,468.75,-238.343,-308.106,
00:00:12:316,0.572,0.818,0.406,379.76,-241.089,-213.501,
00:00:12:333,0.533,0.818,0.486,332.458,-250.489,-137.513,
00:00:12:350,0.505,0.768,0.484,265.686,-223.755,-118.348,
00:00:12:366,0.497,0.666,0.422,139.587,-218.262,-63.233,
00:00:12:383,0.451,0.662,0.413,105.713,-171.509,-42.969,
00:00:12:400,0.423,0.6,0.429,149.658,-114.747,-9.339,
00:00:12:416,0.426,0.535,0.438,138.61,-75.44,2.685,
00:00:12:433,0.445,0.533,0.425,115.539,-61.036,-5.738,
00:00:12:450,0.466,0.514,0.441,85.144,-62.317,-32.166,
00:00:12:466,0.545,0.541,0.5,23.742,-37.598,-106.324,
00:00:12:483,0.479,0.499,0.497,-18.189,-11.902,-146.973,
00:00:12:500,0.463,0.514,0.458,-0.611,52.368,-175.599,
00:00:12:516,0.445,0.442,0.407,82.092,138.488,-224.61,
00:00:12:533,0.424,0.485,0.469,90.637,243.347,-272.034,
00:00:12:550,0.403,0.546,0.602,73.303,406.005,-366.944,
00:00:12:566,0.44,0.574,0.72,97.045,554.199,-464.844,
00:00:12:583,0.584,0.463,0.139,18.371,586.547,-511.17,
00:00:12:600,0.54,0.89,0.349,128.418,388.855,-429.078,
00:00:12:616,0.053,0.809,1.088,-65.613,222.168,-301.575,
00:00:12:633,0.281,0.782,1.504,-624.39,-140.259,-22.461,
00:00:12:650,0.741,1.053,0.755,50.842,-83.985,23.376,
00:00:12:666,0.708,0.682,0.542,-196.9,-205.628,149.353,
00:00:12:683,0.566,0.836,0.871,-138.733,-285.706,216.919,
00:00:12:700,0.513,0.802,0.735,-23.499,-266.602,259.216,
00:00:12:716,0.449,0.657,0.676,-85.206,-276.246,252.99,
00:00:12:733,0.365,0.617,0.601,-139.283,-260.987,229.431,
00:00:12:750,0.316,0.563,0.551,-138.306,-211.365,191.711,
00:00:12:766,0.291,0.544,0.559,-23.438,-131.775,145.752,
00:00:12:783,0.315,0.517,0.541,56.091,-77.454,100.341,
00:00:12:800,0.394,0.4,0.533,-10.376,-81.36,72.448,
00:00:12:816,0.421,0.584,0.597,-48.157,-125.245,53.955,
00:00:12:833,0.428,0.568,0.578,-79.041,-151.307,33.996,
00:00:12:850,0.427,0.59,0.539,-125.245,-150.757,16.357,
00:00:12:866,0.394,0.564,0.459,-176.575,-116.944,-10.071,
00:00:12:883,0.329,0.548,0.387,-188.721,-34.913,-51.88,
00:00:12:900,0.253,0.476,0.352,-101.624,92.468,-123.963,
00:00:12:916,0.201,0.491,0.423,-17.151,282.531,-236.939,
00:00:12:933,0.198,0.571,0.518,32.043,499.084,-365.113,
00:00:12:950,0.244,0.703,0.687,94.299,669.616,-500.489,
00:00:12:966,0.529,0.167,0.41,-67.872,679.26,-485.657,
00:00:12:983,0.653,1.192,0.722,-319.947,461.67,-277.039,
00:00:13:0,0.88,1.043,0.945,401.367,188.72,-51.819,
00:00:13:16,0.517,1.22,1.191,230.285,-84.839,91.735,
00:00:13:33,0.737,0.599,0.717,-288.758,-206.116,66.284,
00:00:13:50,0.591,0.838,0.87,-474.61,-330.079,102.295,
00:00:13:66,0.521,0.917,0.769,-153.626,-341.065,158.752,
00:00:13:83,0.475,0.711,0.684,0.793,-329.468,229.492,
00:00:13:100,0.452,0.744,0.65,75.073,-295.227,271.972,
00:00:13:116,0.459,0.701,0.614,84.594,-241.333,290.771,
00:00:13:133,0.462,0.691,0.571,84.533,-179.261,302.49,
00:00:13:150,0.417,0.646,0.538,163.391,-114.747,322.021,
00:00:13:166,0.387,0.553,0.496,206.359,-52.979,340.393,
00:00:13:183,0.341,0.564,0.477,216.552,-14.588,351.379,
00:00:13:200,0.295,0.61,0.52,284.668,25.817,320.434,
00:00:13:216,0.275,0.536,0.56,253.234,69.702,280.883,
00:00:13:233,0.253,0.54,0.612,154.663,116.088,236.328,
00:00:13:250,0.253,0.609,0.574,121.948,164.917,197.876,
00:00:13:266,0.259,0.709,0.564,269.592,158.874,135.986,
00:00:13:283,0.255,0.526,0.514,303.772,167.419,134.155,
00:00:13:300,0.262,0.569,0.59,192.505,151.794,97.29,
00:00:13:316,0.288,0.592,0.625,119.018,140.625,56.945,
00:00:13:333,0.293,0.663,0.641,90.454,143.982,40.649,
00:00:13:350,0.299,0.695,0.676,104.187,133.972,27.343,
00:00:13:366,0.301,0.672,0.674,-1.893,140.136,33.508,
00:00:13:383,0.287,0.666,0.614,-64.82,167.175,11.474,
00:00:13:400,0.321,0.588,0.548,-51.758,191.711,13.122,
00:00:13:416,0.27,0.777,0.574,40.649,224.243,63.964,
00:00:13:433,0.385,0.87,0.591,263.549,178.039,64.025,
00:00:13:450,0.335,0.618,0.673,401.123,107.605,99.06,
00:00:13:466,0.225,0.568,0.705,205.566,160.949,72.57,
00:00:13:483,0.302,0.629,0.615,57.251,171.386,24.536,
00:00:13:500,0.292,0.621,0.568,104.553,140.564,40.771,
00:00:13:516,0.272,0.635,0.574,185.608,145.996,34.118,
00:00:13:533,0.303,0.627,0.616,285.705,135.803,38.147,
00:00:13:550,0.306,0.555,0.691,270.507,123.962,31.799,
00:00:13:566,0.314,0.535,0.641,90.576,141.479,-5.066,
00:00:13:583,0.333,0.567,0.603,23.803,139.099,-35.584,
00:00:13:600,0.327,0.492,0.636,-33.448,130.859,-34.241,
00:00:13:616,0.373,0.497,0.666,-170.044,116.638,-72.083,
00:00:13:633,0.398,0.734,0.671,-177.552,125.488,-96.558,
00:00:13:650,0.44,0.52,0.653,12.023,50.293,-119.812,
00:00:13:666,0.361,0.434,0.798,-218.75,27.71,-128.113,
00:00:13:683,0.432,0.522,0.755,-545.655,27.465,-182.801,
00:00:13:700,0.452,0.571,0.708,-726.807,6.591,-192.505,
00:00:13:716,0.523,0.676,0.559,-558.594,39.245,-100.953,
00:00:13:733,0.506,0.594,0.607,-597.535,26.55,-86.67,
00:00:13:750,0.466,0.66,0.607,-688.599,46.508,-73.67,
00:00:13:766,0.434,0.713,0.561,-693.909,73.364,-90.027,
00:00:13:783,0.427,0.726,0.418,-586.243,90.637,-102.295,
00:00:13:800,0.444,0.707,0.357,-408.326,64.941,-69.153,
00:00:13:816,0.44,0.753,0.437,-406.189,68.359,-50.477,
00:00:13:833,0.432,0.78,0.458,-449.585,79.65,-67.627,
00:00:13:850,0.434,0.791,0.361,-389.771,74.462,-82.337,
00:00:13:866,0.43,0.725,0.341,-391.602,68.542,-79.224,
00:00:13:883,0.412,0.827,0.276,-380.188,88.195,-68.665,
00:00:13:900,0.428,0.833,0.265,-193.36,57.739,-83.13,
00:00:13:916,0.438,0.793,0.301,-74.402,43.945,-66.712,
00:00:13:933,0.447,0.797,0.346,-4.09,24.047,-66.529,
00:00:13:950,0.413,0.729,0.354,-10.804,28.076,-67.322,
00:00:13:966,0.424,0.783,0.36,-42.42,50.109,-70.313,
00:00:13:983,0.455,0.809,0.363,-58.777,63.903,-77.393,
00:00:14:0,0.468,0.809,0.321,-31.067,59.326,-79.468,
00:00:14:16,0.466,0.884,0.332,-37.72,68.603,-55.603,
00:00:14:33,0.49,0.895,0.366,-16.114,33.63,-36.622,pourEggRH
00:00:14:50,0.479,0.905,0.42,-39.49,43.945,-15.442,
00:00:14:66,0.441,0.858,0.36,34.179,60.974,-10.987,
00:00:14:83,0.457,0.804,0.406,125.488,59.082,-1.831,
00:00:14:100,0.476,0.791,0.322,199.951,88.256,-15.625,
00:00:14:116,0.463,0.791,0.351,282.653,78.064,-13.489,
00:00:14:133,0.49,0.754,0.397,306.762,63.903,-28.504,
00:00:14:150,0.49,0.733,0.424,296.325,54.687,-17.823,
00:00:14:166,0.486,0.767,0.376,317.382,53.527,-36.56,
00:00:14:183,0.492,0.9,0.312,584.961,78.002,-141.541,
00:00:14:200,0.559,0.603,0.547,391.845,-61.951,-33.143,
00:00:14:216,0.405,0.802,0.48,-106.263,163.879,10.925,
00:00:14:233,0.573,0.746,0.347,193.786,1.892,-81.971,
00:00:14:250,0.411,0.619,0.432,-129.273,-59.754,-56.58,
00:00:14:266,0.492,0.753,0.43,-179.017,-62.378,-69.458,
00:00:14:283,0.509,0.739,0.443,-137.024,-82.52,-67.872,
00:00:14:300,0.505,0.766,0.51,-88.013,-32.349,-46.509,
00:00:14:316,0.466,0.834,0.463,62.072,61.401,-24.476,
00:00:14:333,0.485,0.693,0.565,319.213,136.413,-46.265,
00:00:14:350,0.415,0.742,0.405,304.199,195.19,-31.8,
00:00:14:366,0.474,0.774,0.461,360.168,171.325,-56.031,
00:00:14:383,0.482,0.702,0.482,368.408,145.202,-53.833,
00:00:14:400,0.458,0.64,0.484,285.888,159.546,-55.298,
00:00:14:416,0.483,0.705,0.494,112.487,196.777,-45.655,
00:00:14:433,0.507,0.73,0.441,127.38,186.523,-66.102,
00:00:14:450,0.53,0.728,0.456,219.543,134.338,-43.763,
00:00:14:466,0.498,0.704,0.525,196.35,147.338,-33.814,
00:00:14:483,0.519,0.708,0.453,111.023,174.865,-23.072,
00:00:14:500,0.544,0.825,0.413,190.734,160.949,-61.89,
00:00:14:516,0.51,0.609,0.504,554.016,-11.231,-74.219,
00:00:14:533,0.492,0.525,0.446,350.708,6.286,-46.631,
00:00:14:550,0.492,0.589,0.448,180.053,33.264,-52.491,
00:00:14:566,0.523,0.72,0.423,172.851,38.391,-87.891,
00:00:14:583,0.506,0.839,0.318,354.858,19.104,-93.934,
00:00:14:600,0.525,0.771,0.306,615.722,-37.476,-67.872,
00:00:14:616,0.527,0.603,0.398,734.741,-103.638,-56.458,
00:00:14:633,0.525,0.43,0.552,657.104,-165.223,-22.339,
00:00:14:650,0.493,0.413,0.624,377.929,-156.311,-26.246,
00:00:14:666,0.496,0.499,0.492,195.861,-122.681,-13.672,
00:00:14:683,0.571,0.537,0.535,302.246,-234.253,-37.11,
00:00:14:700,0.552,0.429,0.623,413.025,-317.017,-44.312,
00:00:14:716,0.498,0.301,0.682,443.054,-350.464,-56.58,
00:00:14:733,0.417,0.243,0.802,112.854,-232.544,-51.514,
00:00:14:750,0.465,0.447,0.802,-200.318,-42.237,-87.037,
00:00:14:766,0.599,0.547,0.697,-0.245,-65.674,-132.447,
00:00:14:783,0.515,0.404,0.791,116.394,-92.469,-104.615,
00:00:14:800,0.496,0.365,0.718,9.765,-52.247,-122.254,
00:00:14:816,0.493,0.555,0.704,47.973,0.854,-73.792,
00:00:14:833,0.5,0.572,0.648,48.034,28.93,-39.795,
00:00:14:850,0.511,0.695,0.637,180.847,18.005,-10.376,
00:00:14:866,0.498,0.691,0.667,458.74,-0.611,19.836,
00:00:14:883,0.432,0.449,0.756,376.709,4.333,48.339,
00:00:14:900,0.475,0.48,0.71,193.298,-2.259,40.527,
00:00:14:916,0.476,0.524,0.755,111.938,-30.884,30.517,
00:00:14:933,0.487,0.524,0.772,73.791,-59.205,13.916,
00:00:14:950,0.473,0.532,0.831,101.867,-65.918,10.986,
00:00:14:966,0.461,0.352,0.75,113.159,-33.936,-9.156,
00:00:14:983,0.468,0.352,0.682,75.5,-18.982,-29.725,
00:00:15:0,0.469,0.234,0.703,80.871,-9.583,-62.745,
00:00:15:16,0.518,0.485,0.805,69.274,6.469,-57.801,
00:00:15:33,0.522,0.411,0.816,69.03,-1.831,-38.331,
00:00:15:50,0.495,0.394,0.82,91.735,-19.959,-37.354,
00:00:15:66,0.475,0.399,0.811,111.816,-22.828,-22.034,
00:00:15:83,0.52,0.381,0.739,176.391,-4.456,-13.367,
00:00:15:100,0.507,0.382,0.779,171.447,-4.7,-10.254,
00:00:15:116,0.497,0.39,0.779,233.154,-6.836,-7.019,
00:00:15:133,0.479,0.403,0.79,244.018,-3.663,-9.4,
00:00:15:150,0.472,0.362,0.805,237.365,7.629,-18.799,
00:00:15:166,0.525,0.307,0.771,318.969,14.648,9.277,
00:00:15:183,0.469,0.433,0.808,325.5,-3.113,49.011,
00:00:15:200,0.466,0.373,0.797,318.786,-1.831,51.513,
00:00:15:216,0.468,0.361,0.751,306.823,-12.085,48.156,
00:00:15:233,0.451,0.329,0.792,322.143,-26.551,45.166,
00:00:15:250,0.45,0.304,0.802,273.742,-23.743,34.484,
00:00:15:266,0.475,0.305,0.815,170.593,-35.767,4.638,
00:00:15:283,0.467,0.292,0.822,148.559,-33.936,-5.249,
00:00:15:300,0.465,0.318,0.833,138.122,-26.246,-3.174,
00:00:15:316,0.467,0.287,0.824,171.875,-14.161,6.53,
00:00:15:333,0.499,0.288,0.819,176.208,-17.945,14.526,
00:00:15:350,0.487,0.252,0.809,211.853,-21.241,28.259,
00:00:15:366,0.473,0.29,0.815,235.412,-9.522,48.645,
00:00:15:383,0.466,0.282,0.817,242.92,5.127,63.476,
00:00:15:400,0.468,0.262,0.817,259.765,20.202,66.711,
00:00:15:416,0.467,0.238,0.816,255.981,30.822,56.091,
00:00:15:433,0.47,0.205,0.789,203.369,28.442,47.241,
00:00:15:450,0.471,0.229,0.797,167.724,8.85,44.311,
00:00:15:466,0.466,0.243,0.833,155.09,2.685,39.123,
00:00:15:483,0.453,0.217,0.846,128.234,18.432,31.555,
00:00:15:500,0.48,0.199,0.792,114.135,20.629,21.85,
00:00:15:516,0.463,0.181,0.815,80.81,6.042,20.996,
00:00:15:533,0.446,0.25,0.847,55.847,1.403,17.334,
00:00:15:550,0.451,0.221,0.869,68.42,5.554,32.836,
00:00:15:566,0.451,0.213,0.876,48.645,10.253,29.357,
00:00:15:583,0.465,0.218,0.847,35.522,14.953,14.404,
00:00:15:600,0.463,0.213,0.855,8.239,-1.099,6.713,
00:00:15:616,0.467,0.217,0.848,20.629,-4.273,-7.325,
00:00:15:633,0.459,0.211,0.871,32.959,-3.846,-3.418,
00:00:15:650,0.451,0.213,0.893,43.64,5.859,2.99,
00:00:15:666,0.436,0.188,0.882,64.27,17.7,3.234,
00:00:15:683,0.448,0.185,0.876,64.819,8.606,3.051,
00:00:15:700,0.455,0.209,0.848,77.026,3.723,0.61,
00:00:15:716,0.448,0.146,0.852,142.7,2.746,-10.437,
00:00:15:733,0.433,0.218,0.885,68.359,13.488,-14.893,
00:00:15:750,0.447,0.195,0.852,117.126,14.831,-4.212,
00:00:15:766,0.445,0.169,0.876,111.328,9.216,1.159,
00:00:15:783,0.44,0.168,0.863,87.158,7.141,-1.954,
00:00:15:800,0.44,0.181,0.866,83.862,11.169,-0.489,
00:00:15:816,0.441,0.183,0.848,104.919,19.287,5.188,
00:00:15:833,0.441,0.166,0.838,108.215,22.644,6.652,
00:00:15:850,0.442,0.157,0.843,99.121,26.306,13.305,
00:00:15:866,0.445,0.18,0.848,99.548,35.522,9.277,
00:00:15:883,0.45,0.183,0.826,123.474,39.062,1.098,
00:00:15:900,0.463,0.179,0.822,119.323,35.339,-4.212,
00:00:15:916,0.453,0.15,0.851,123.962,41.32,4.76,
00:00:15:933,0.461,0.158,0.849,133.178,45.837,4.272,
00:00:15:950,0.458,0.145,0.846,139.465,45.044,6.652,
00:00:15:966,0.46,0.123,0.853,133.178,48.156,1.342,
00:00:15:983,0.477,0.103,0.852,111.45,38.208,-5.127,
00:00:16:0,0.467,0.116,0.891,116.821,21.118,1.953,
00:00:16:16,0.467,0.101,0.88,71.899,18.981,-2.137,
00:00:16:33,0.477,0.15,0.877,79.223,12.207,-9.217,
00:00:16:50,0.475,0.156,0.883,130.554,2.563,6.347,
00:00:16:66,0.472,0.141,0.875,131.469,-6.409,19.47,
00:00:16:83,0.464,0.123,0.876,127.136,-12.635,24.78,
00:00:16:100,0.444,0.097,0.875,94.299,-11.292,22.583,
00:00:16:116,0.452,0.07,0.845,81.604,-14.222,16.662,
00:00:16:133,0.454,0.061,0.858,57.495,-15.015,8.056,
00:00:16:150,0.464,0.073,0.869,11.291,-15.259,-7.569,
00:00:16:166,0.463,0.078,0.869,-9.095,-22.217,-20.142,
00:00:16:183,0.46,0.089,0.878,-13.611,-28.443,-25.574,
00:00:16:200,0.46,0.109,0.893,-12.879,-31.067,-27.283,
00:00:16:216,0.475,0.127,0.881,11.108,-42.115,-32.654,
00:00:16:233,0.481,0.118,0.896,11.352,-69.336,-36.683,
00:00:16:250,0.436,0.066,0.889,-47.852,-72.266,-33.387,
00:00:16:266,0.465,0.086,0.907,-73.243,-70.923,-31.739,
00:00:16:283,0.477,0.089,0.881,-34.913,-83.863,-34.302,
00:00:16:300,0.482,0.075,0.86,-97.168,-91.004,-37.232,
00:00:16:316,0.455,0.156,0.842,-86.06,-76.355,-30.091,
00:00:16:333,0.442,0.085,0.914,-25.452,-72.876,-10.804,
00:00:16:350,0.444,0.137,0.927,61.523,-73.121,13.305,
00:00:16:366,0.419,0.059,0.879,51.452,-85.206,12.878,
00:00:16:383,0.375,0.107,0.912,30.944,-58.289,18.676,
00:00:16:400,0.401,0.078,0.925,42.48,-42.603,24.414,
00:00:16:416,0.371,0.031,0.894,56.64,-21.912,24.231,
00:00:16:433,0.383,0.097,0.883,94.482,-15.076,33.691,
00:00:16:450,0.367,0.1,0.925,116.943,0.427,30.7,
00:00:16:466,0.401,0.121,0.882,117.37,12.451,23.62,
00:00:16:483,0.419,0.101,0.817,117.004,8.3,12.268,
00:00:16:500,0.402,0.104,0.762,78.125,-8.789,13,
00:00:16:516,0.436,0.141,0.859,181.64,-30.762,23.681,
00:00:16:533,0.389,0.109,0.95,-67.017,-46.082,-11.109,
00:00:16:550,0.409,0.049,0.942,-158.753,-50.721,-29.419,
00:00:16:566,0.414,0.107,0.882,-179.139,-66.834,-27.222,
00:00:16:583,0.445,0.117,0.913,-111.756,-92.408,-16.724,
00:00:16:600,0.451,0.101,0.955,-159.058,-120.667,-7.752,
00:00:16:616,0.453,0.139,0.936,-253.235,-139.039,-10.315,
00:00:16:633,0.456,0.132,0.913,-396.119,-163.575,-25.208,
00:00:16:650,0.412,0.032,0.96,-769.715,-160.645,-29.236,
00:00:16:667,0.403,0.071,0.887,-1197.083,-152.161,-33.204,
00:00:16:683,0.405,0.138,0.844,-1370.972,-183.228,-38.269,
00:00:16:700,0.409,0.28,0.77,-1320.069,-231.873,-53.528,
00:00:16:717,0.406,0.404,0.738,-1218.018,-290.162,-90.76,
00:00:16:733,0.362,0.305,0.809,-1248.475,-349.793,-114.869,
00:00:16:750,0.301,0.3,0.778,-1547.913,-309.693,-109.009,
00:00:16:767,0.352,0.407,0.701,-1773.987,-300.293,-104.737,
00:00:16:783,0.3,0.526,0.741,-1692.505,-288.636,-94.788,
00:00:16:800,0.275,0.853,0.661,-1265.87,-188.416,-38.147,
00:00:16:817,0.374,1.017,0.626,-515.137,-303.65,5.371,
00:00:16:833,0.358,0.896,0.736,-31.861,-472.29,143.798,
00:00:16:850,0.194,0.842,0.76,61.462,-384.339,170.166,
00:00:16:867,0.258,0.736,0.79,-4.395,-353.15,185.058,
00:00:16:883,0.163,0.694,0.756,-78.064,-317.444,201.66,
00:00:16:900,0.16,0.596,0.712,-168.457,-294.8,209.35,
00:00:16:917,0.164,0.56,0.635,-201.172,-303.956,246.887,
00:00:16:933,0.168,0.59,0.651,-239.991,-393.25,263.244,
00:00:16:950,0.111,0.667,0.727,-315.003,-427.491,305.603,
00:00:16:967,0.081,0.689,0.759,-416.871,-410.279,282.714,
00:00:16:983,0.062,0.718,0.725,-473.816,-360.169,230.102,
00:00:17:0,0.049,0.722,0.692,-398.072,-300.904,200.622,
00:00:17:17,0.074,0.587,0.628,-370.057,-300.782,129.699,
00:00:17:33,0.05,0.753,0.596,-186.28,-284.119,95.459,
00:00:17:50,0.075,0.655,0.684,25.39,-274.414,113.525,
00:00:17:67,0.046,0.728,0.655,-343.628,-227.356,105.346,
00:00:17:83,0.003,0.729,0.638,-401.917,-235.047,91.491,
00:00:17:100,-0.019,0.798,0.639,-276.307,-197.815,97.717,
00:00:17:117,0.004,0.657,0.696,-102.906,-183.533,129.76,
00:00:17:133,-0.025,0.723,0.651,-55.909,-172.059,105.774,
00:00:17:150,-0.046,0.743,0.662,-42.664,-190.491,143.432,
00:00:17:167,-0.071,0.74,0.636,-90.332,-189.026,128.601,
00:00:17:183,-0.053,0.747,0.621,-181.58,-195.679,122.192,
00:00:17:200,-0.033,0.738,0.656,-262.452,-181.702,162.841,
00:00:17:217,-0.052,0.809,0.661,-501.404,-202.332,176.452,
00:00:17:233,-0.021,0.927,0.628,-567.383,-212.22,182.678,
00:00:17:250,-0.132,0.93,0.573,-420.227,-185.364,158.569,
00:00:17:267,-0.097,0.805,0.582,-323.609,-223.389,231.079,
00:00:17:283,-0.126,0.838,0.579,-426.209,-195.313,236.877,
00:00:17:300,-0.143,0.879,0.54,-422.181,-158.57,226.074,
00:00:17:317,-0.166,0.823,0.492,-464.661,-122.742,217.956,
00:00:17:333,-0.148,0.87,0.454,-519.593,-119.263,180.481,
00:00:17:350,-0.133,0.884,0.465,-521.607,-137.269,179.199,
00:00:17:367,-0.138,0.901,0.503,-530.396,-144.104,184.326,
00:00:17:383,-0.14,0.918,0.528,-459.107,-117.554,196.899,
00:00:17:400,-0.155,0.873,0.475,-272.339,-87.22,209.533,
00:00:17:417,-0.145,0.877,0.405,-89.173,-66.468,218.689,
00:00:17:433,-0.196,0.815,0.377,68.969,-63.294,208.801,
00:00:17:450,-0.212,0.871,0.402,207.153,-25.452,190.185,
00:00:17:467,-0.201,0.958,0.437,477.295,-18.616,182.251,
00:00:17:483,-0.247,0.885,0.447,734.008,7.934,227.05,
00:00:17:500,-0.25,0.888,0.468,999.328,9.765,245.483,
00:00:17:517,-0.253,0.829,0.466,1174.438,18.371,250.366,
00:00:17:533,-0.271,0.687,0.472,1177.002,14.892,224.121,
00:00:17:550,-0.266,0.591,0.532,953.552,-5.677,202.758,
00:00:17:567,-0.26,0.736,0.539,806.579,-11.17,153.625,
00:00:17:583,-0.244,0.685,0.547,900.817,-29.541,111.999,
00:00:17:600,-0.235,0.552,0.648,956.482,-17.273,52.795,
00:00:17:617,-0.286,0.516,0.628,893.371,22.522,75.134,
00:00:17:633,-0.249,0.441,0.65,765.625,23.559,4.333,
00:00:17:650,-0.289,0.538,0.683,602.844,42.907,22.277,
00:00:17:667,-0.269,0.603,0.663,568.969,52.856,-8.057,
00:00:17:683,-0.262,0.571,0.717,552.734,37.475,7.019,
00:00:17:700,-0.242,0.55,0.744,455.993,38.513,21.362,
00:00:17:717,-0.23,0.549,0.784,333.679,15.136,64.086,
00:00:17:733,-0.236,0.607,0.76,342.834,15.136,88.073,
00:00:17:750,-0.257,0.559,0.739,333.923,29.907,135.376,
00:00:17:767,-0.247,0.568,0.72,287.475,79.773,175.72,
00:00:17:783,-0.223,0.573,0.753,321.472,115.051,172.973,
00:00:17:800,-0.189,0.453,0.831,353.332,156.372,154.602,
00:00:17:817,-0.184,0.374,0.862,289.734,172.241,100.525,
00:00:17:833,-0.153,0.411,0.791,301.88,185.241,63.659,
00:00:17:850,-0.143,0.388,0.814,305.786,173.278,79.65,
00:00:17:867,-0.164,0.409,0.773,200.439,204.651,46.203,
00:00:17:883,-0.185,0.489,0.725,81.115,261.84,25.146,
00:00:17:900,-0.145,0.471,0.694,-20.447,333.496,17.456,
00:00:17:917,-0.115,0.525,0.614,40.649,380.676,4.699,
00:00:17:933,-0.068,0.526,0.641,204.345,382.751,105.774,
00:00:17:950,-0.083,0.469,0.742,270.324,413.635,181.274,
00:00:17:967,-0.035,0.346,0.724,191.711,502.441,195.007,
00:00:17:983,-0.025,0.308,0.749,187.744,557.556,230.407,
00:00:18:0,0.023,0.234,0.805,177.124,617.553,272.827,
00:00:18:17,-0.043,0.223,0.911,153.686,691.711,254.577,
00:00:18:33,0.063,0.419,0.897,277.404,729.919,265.442,
00:00:18:50,0.026,0.236,0.935,309.387,715.21,303.772,
00:00:18:67,0.069,0.267,0.911,163.879,718.628,255.92,
00:00:18:83,0.017,0.169,1.022,53.466,703.674,204.651,
00:00:18:100,0.032,0.201,1.112,-67.566,673.339,99.975,
00:00:18:117,0.027,0.247,1.125,-64.576,668.029,32.165,
00:00:18:133,0.097,0.44,1.006,-168.946,525.817,-15.076,
00:00:18:150,0.112,0.44,0.982,-73.609,419.616,-31.8,
00:00:18:167,0.072,0.326,0.983,-47.425,374.389,-69.397,
00:00:18:183,0.059,0.406,0.964,52.124,467.956,-136.902,
00:00:18:200,0.086,0.5,0.963,94.909,540.527,-184.266,
00:00:18:217,0.125,0.453,1.01,91.613,536.193,-160.462,
00:00:18:233,0.066,0.488,0.961,100.463,519.409,-183.35,
00:00:18:250,0.083,0.401,0.89,64.27,454.589,-148.926,
00:00:18:267,0.082,0.365,0.901,-23.682,357.727,-70.13,
00:00:18:283,0.08,0.442,0.99,-58.96,363.22,-31.128,
00:00:18:300,0.245,0.35,1.004,90.82,338.317,17.395,
00:00:18:317,0.181,0.255,1.103,99.365,292.114,87.829,
00:00:18:333,0.119,0.261,1.062,-18.738,310.424,52.307,
00:00:18:350,0.175,0.278,1.096,-83.558,314.453,61.462,
00:00:18:367,0.223,0.326,1.083,-132.386,332.885,92.712,
00:00:18:383,0.289,0.548,1.044,-144.776,302.856,72.082,
00:00:18:400,0.342,0.617,1.119,92.285,256.836,49.438,
00:00:18:417,0.355,0.383,1.134,160.339,136.596,48.034,
00:00:18:433,0.239,0.37,1.04,100.891,90.332,98.388,
00:00:18:450,0.151,0.239,0.931,-43.824,129.577,-10.437,
00:00:18:467,0.211,0.195,0.967,-355.591,138.549,18.31,
00:00:18:483,0.233,0.118,0.976,-680.42,127.136,-1.831,
00:00:18:500,0.201,-0.033,0.958,-1022.645,152.343,6.591,
00:00:18:517,0.196,0.197,0.753,-1129.273,164.917,-27.405,
00:00:18:533,0.258,0.625,0.82,-830.14,51.147,-24.903,
00:00:18:550,0.289,0.607,0.775,-423.218,-87.769,-112.915,
00:00:18:567,0.187,0.389,0.766,-473.328,-129.395,2.014,
00:00:18:583,0.131,0.41,0.874,-746.155,-140.992,38.574,
00:00:18:600,0.121,0.493,0.825,-861.39,-48.279,44.189,
00:00:18:617,0.131,0.647,0.811,-727.723,10.009,13.671,
00:00:18:633,0.154,0.699,0.756,-455.445,36.926,-31.739,
00:00:18:650,0.221,0.546,0.693,-269.288,-4.761,-72.266,
00:00:18:667,0.235,0.452,0.698,-291.993,-23.255,8.544,
00:00:18:683,0.27,0.563,0.83,-494.873,-37.842,71.899,
00:00:18:700,0.166,1.001,0.786,-457.398,38.147,86.669,
00:00:18:717,0.305,0.98,0.745,20.935,57.617,15.625,
00:00:18:733,0.293,0.576,0.69,368.53,-142.395,30.761,
00:00:18:750,0.158,0.467,0.71,249.511,-171.753,70.495,
00:00:18:767,0.153,0.61,0.712,-17.762,-55.787,46.081,
00:00:18:783,0.241,0.711,0.736,-70.13,-97.107,-11.719,
00:00:18:800,0.231,0.671,0.7,-44.068,-192.383,-7.081,
00:00:18:817,0.2,0.722,0.743,-141.602,-201.539,8.056,
00:00:18:833,0.125,0.729,0.607,-226.685,-135.254,21.728,
00:00:18:850,0.164,0.693,0.655,-229.92,-136.536,-23.438,
00:00:18:867,0.146,0.705,0.725,-255.066,-122.559,-14.039,
00:00:18:883,0.111,0.825,0.75,-164.917,-30.396,-42.42,
00:00:18:900,0.177,0.717,0.802,55.175,-43.213,-100.708,
00:00:18:917,0.138,0.591,0.767,4.455,-11.536,-88.99,
00:00:18:933,0.255,0.566,0.675,-258.545,-6.775,-29.908,
00:00:18:950,0.32,0.729,0.63,-462.586,-51.27,20.324,
00:00:18:967,0.269,0.768,0.579,-610.535,-73.731,13.977,
00:00:18:983,0.291,0.776,0.519,-764.283,-97.596,37.109,
00:00:19:0,0.217,0.841,0.576,-692.078,-63.721,63.11,
00:00:19:17,0.192,0.717,0.534,-414.795,-0.916,53.772,
00:00:19:33,0.208,0.662,0.547,-265.686,-2.747,45.898,
00:00:19:50,0.205,0.658,0.589,-192.872,-30.213,26.001,
00:00:19:67,0.198,0.679,0.525,-112.854,-6.47,-40.345,
00:00:19:83,0.266,0.617,0.482,-108.521,-25.452,-73.426,
00:00:19:100,0.292,0.688,0.484,-249.085,-36.927,-102.478,
00:00:19:117,0.293,0.792,0.515,-252.442,-24.17,-132.813,
00:00:19:133,0.27,0.839,0.601,-193.238,5.004,-144.104,
00:00:19:150,0.281,0.845,0.588,-210.877,22.277,-126.038,
00:00:19:167,0.27,0.821,0.591,-269.288,27.465,-122.864,
00:00:19:183,0.289,0.931,0.573,-159.607,23.986,-97.413,
00:00:19:200,0.294,0.957,0.454,145.691,21.24,-46.814,
00:00:19:217,0.25,0.85,0.451,327.819,13.122,-45.227,
00:00:19:233,0.249,0.666,0.501,328.064,5.004,-36.805,
00:00:19:250,0.226,0.651,0.536,234.008,15.93,-56.702,
00:00:19:267,0.243,0.662,0.566,200.439,23.376,-76.477,
00:00:19:283,0.225,0.678,0.496,246.643,37.78,-89.6,
00:00:19:300,0.258,0.672,0.486,322.631,30.212,-85.206,
00:00:19:317,0.27,0.666,0.552,241.821,13.183,-121.582,
00:00:19:333,0.289,0.599,0.588,-17.273,14.709,-139.405,
00:00:19:350,0.319,0.68,0.653,-207.703,-9.583,-174.439,
00:00:19:367,0.342,0.765,0.53,-228.028,4.76,-195.801,
00:00:19:383,0.291,0.862,0.473,-158.692,13.671,-185.914,
00:00:19:400,0.239,0.836,0.471,-132.019,51.086,-178.162,
00:00:19:417,0.178,0.784,0.561,-181.458,130.127,-175.843,
00:00:19:433,0.186,0.791,0.599,-247.742,168.64,-126.038,
00:00:19:450,0.194,0.896,0.544,-147.583,208.191,-97.84,
00:00:19:467,0.185,0.803,0.536,29.174,246.399,4.76,
00:00:19:483,0.229,0.758,0.498,-82.581,236.389,26.55,
00:00:19:500,0.271,0.729,0.575,-254.761,212.28,10.864,
00:00:19:517,0.237,0.698,0.732,-457.947,230.529,3.112,
00:00:19:533,0.235,0.736,0.617,-482.605,291.259,62.988,
00:00:19:550,0.298,0.72,0.432,-588.746,289.123,74.279,
00:00:19:567,0.343,0.751,0.372,-859.62,290.222,47.546,
00:00:19:583,0.374,0.931,0.285,-1062.745,269.836,-0.916,
00:00:19:600,0.396,1.062,0.231,-825.501,278.076,37.719,
00:00:19:617,0.418,0.951,0.284,-429.749,248.657,-34.852,
00:00:19:633,0.465,0.733,0.334,113.159,164.489,-98.816,
00:00:19:650,0.479,0.628,0.396,44.006,120.117,-134.4,
00:00:19:667,0.495,0.633,0.414,-122.986,87.402,-177.979,
00:00:19:683,0.485,0.625,0.4,-219.239,72.937,-257.63,
00:00:19:700,0.493,0.599,0.354,-251.16,46.997,-320.74,
00:00:19:717,0.546,0.588,0.305,-297.73,-9.461,-362.793,
00:00:19:733,0.577,0.671,0.238,-295.289,-69.886,-384.644,
00:00:19:750,0.586,0.719,0.234,-224.671,-178.162,-406.983,
00:00:19:767,0.59,0.728,0.278,-263.306,-265.503,-415.162,
00:00:19:783,0.571,0.755,0.26,-378.418,-287.476,-410.035,
00:00:19:800,0.578,0.869,0.284,-428.589,-285.95,-383.667,
00:00:19:817,0.582,0.995,0.223,-277.283,-250.916,-340.943,
00:00:19:833,0.588,1.009,0.221,-70.74,-268.067,-328.675,
00:00:19:850,0.553,0.92,0.229,-44.8,-348.267,-298.951,
00:00:19:867,0.452,0.929,0.113,68.908,-183.838,-235.291,
00:00:19:883,0.523,0.851,0.249,-15.625,-323.609,-257.081,
00:00:19:900,0.44,0.937,0.24,-122.498,-332.459,-177.185,
00:00:19:917,0.38,0.965,0.273,-88.44,-303.406,-184.327,
00:00:19:933,0.343,0.983,0.295,-25.696,-255.738,-141.114,
00:00:19:950,0.29,1.079,0.303,113.098,-229.248,-94.361,
00:00:19:967,0.231,1.114,0.266,302.734,-165.345,-56.031,
00:00:19:983,0.245,1.031,0.242,455.688,-132.508,2.38,
00:00:20:0,0.254,0.929,0.269,477.722,-119.019,68.481,
00:00:20:17,0.24,0.95,0.315,367.736,-76.355,144.836,
00:00:20:33,0.245,1,0.327,256.286,-38.269,194.824,
00:00:20:50,0.272,1.069,0.304,207.702,-22.217,247.375,
00:00:20:67,0.312,1.094,0.271,246.338,-61.402,289.856,
00:00:20:83,0.332,1.063,0.277,335.327,-118.409,330.566,
00:00:20:100,0.325,1.014,0.326,457.519,-149.048,362.182,
00:00:20:117,0.333,0.937,0.354,560.424,-138.977,398.01,
00:00:20:133,0.39,0.881,0.368,613.098,-146.973,428.711,
00:00:20:150,0.442,0.875,0.42,644.043,-186.646,463.745,
00:00:20:167,0.456,0.846,0.456,671.814,-222.29,469.421,
00:00:20:183,0.46,0.837,0.507,691.65,-239.502,466.552,
00:00:20:200,0.456,0.802,0.515,708.007,-242.859,462.768,
00:00:20:217,0.457,0.738,0.499,756.897,-239.075,424.377,
00:00:20:233,0.463,0.673,0.494,739.013,-252.137,412.231,
00:00:20:250,0.465,0.666,0.503,684.631,-279.786,409.607,
00:00:20:267,0.447,0.676,0.496,639.404,-297.425,374.878,
00:00:20:283,0.4,0.581,0.502,537.902,-407.532,263.427,
00:00:20:300,0.289,0.524,0.529,508.178,-402.71,197.387,
00:00:20:317,0.266,0.55,0.489,516.784,-383.667,142.089,
00:00:20:333,0.331,0.361,0.891,725.83,-658.936,56.091,
00:00:20:350,-0.035,0.366,0.892,480.957,-368.836,73.669,
00:00:20:367,0.149,0.462,0.728,335.327,-284.119,-27.527,
00:00:20:383,0.191,0.594,0.571,279.968,-398.316,-69.947,
00:00:20:400,-0.064,0.626,0.687,265.808,-317.322,-83.68,
00:00:20:417,0.023,0.527,0.813,172.79,-287.72,-105.103,
00:00:20:433,-0.025,0.579,0.799,51.269,-223.572,-129.822,
00:00:20:450,0.024,0.779,0.581,-140.931,-104.737,-87.83,
00:00:20:467,0.047,0.768,0.637,-208.985,-56.031,-56.458,
00:00:20:483,0.026,0.63,0.692,-176.514,-9.156,-78.125,
00:00:20:500,0.018,0.599,0.65,-107.178,31.005,-69.581,
00:00:20:517,0.035,0.6,0.661,-21.241,33.569,-55.237,
00:00:20:533,-0.003,0.519,0.736,-76.6,10.864,-83.313,
00:00:20:550,0.007,0.515,0.811,-134.156,-9.644,-112.915,
00:00:20:567,0.024,0.527,0.791,-172.73,-34.913,-156.861,
00:00:20:583,0.047,0.555,0.778,-122.437,-56.519,-178.711,
00:00:20:600,0.061,0.674,0.791,-47.852,-57.557,-202.881,
00:00:20:617,0.073,0.797,0.818,226.257,-44.617,-195.984,
00:00:20:633,0.082,0.74,0.812,474.243,-18.494,-131.165,
00:00:20:650,0.102,0.594,0.721,450.134,26.489,-103.516,
00:00:20:667,0.098,0.526,0.776,395.141,45.532,-104.493,
00:00:20:683,0.071,0.498,0.835,287.048,60.607,-98.877,
00:00:20:700,0.056,0.481,0.887,195.373,70.861,-130.433,
00:00:20:717,0.034,0.398,0.882,58.837,83.557,-142.518,
00:00:20:733,0.055,0.406,0.875,-98.877,98.144,-125.672,
00:00:20:750,0.08,0.428,0.887,-243.714,108.52,-116.028,
00:00:20:767,0.098,0.531,0.9,-312.684,115.295,-120.423,
00:00:20:783,0.114,0.636,0.865,-212.525,129.455,-70.191,
00:00:20:800,0.111,0.699,0.837,-89.905,136.169,-18.738,
00:00:20:817,0.104,0.637,0.858,-25.452,144.714,12.451,
00:00:20:833,0.088,0.467,0.833,-75.989,149.475,0.671,
00:00:20:850,0.101,0.315,0.791,-199.952,131.164,-44.739,
00:00:20:867,0.106,0.311,0.8,-354.981,102.722,-110.657,
00:00:20:883,0.133,0.378,0.789,-487.549,95.092,-161.255,
00:00:20:900,0.161,0.5,0.705,-512.391,89.233,-212.586,
00:00:20:917,0.208,0.507,0.657,-460.938,69.763,-255.066,
00:00:20:933,0.236,0.534,0.663,-272.034,52.368,-286.194,
00:00:20:950,0.23,0.382,0.686,-325.867,24.353,-318.36,
00:00:20:967,0.193,0.433,0.744,-596.619,-2.564,-370.606,
00:00:20:983,0.159,0.517,0.784,-732.422,-16.175,-399.231,
00:00:21:0,0.124,0.607,0.758,-676.575,-31.739,-415.711,
00:00:21:17,0.097,0.739,0.727,-393.982,-57.618,-428.223,
00:00:21:33,0.049,0.647,0.721,-101.502,-87.83,-419.861,
00:00:21:50,-0.008,0.517,0.761,-151.429,-115.235,-424.622,
00:00:21:67,-0.086,0.58,0.762,-359.803,-132.203,-428.772,
00:00:21:83,-0.137,0.71,0.743,-387.513,-136.841,-418.152,breakEggRH
00:00:21:100,-0.063,0.878,0.745,69.274,-112.244,-378.724,
00:00:21:117,0.002,0.866,0.8,145.324,-113.587,-366.7,
00:00:21:133,0.029,0.843,0.774,23.986,-130.738,-343.628,
00:00:21:150,0.062,0.907,0.711,-88.562,-162.049,-322.815,
00:00:21:167,0.091,0.955,0.677,-45.716,-175.66,-270.081,
00:00:21:183,0.114,0.883,0.619,22.094,-180.909,-222.535,
00:00:21:200,0.121,0.833,0.599,-21.607,-176.88,-200.989,
00:00:21:217,0.141,0.838,0.552,-58.655,-168.335,-188.721,
00:00:21:233,0.183,0.815,0.51,-15.32,-136.231,-161.499,
00:00:21:250,0.195,0.712,0.473,5.859,-96.436,-147.889,
00:00:21:267,0.229,0.7,0.463,-96.497,-57.74,-157.349,
00:00:21:283,0.293,0.734,0.456,-131.531,-34.119,-178.65,
00:00:21:300,0.348,0.757,0.454,3.967,-10.621,-196.351,
00:00:21:317,0.414,0.741,0.45,173.767,17.15,-191.773,
00:00:21:333,0.475,0.657,0.448,161.255,19.043,-200.501,
00:00:21:350,0.524,0.643,0.526,0.854,12.756,-212.281,
00:00:21:367,0.552,0.741,0.532,-79.712,4.699,-207.886,
00:00:21:383,0.607,0.77,0.513,69.58,1.831,-177.979,
00:00:21:400,0.604,0.7,0.499,201.721,-6.165,-142.151,
00:00:21:417,0.561,0.587,0.52,-5.188,10.498,-127.259,
00:00:21:433,0.528,0.602,0.527,-115.052,35.095,-130.066,
00:00:21:450,0.489,0.608,0.526,-110.23,68.542,-141.114,
00:00:21:467,0.447,0.574,0.488,-50.66,93.261,-158.57,
00:00:21:483,0.432,0.577,0.512,-13.672,122.253,-177.918,
00:00:21:500,0.441,0.566,0.524,-22.156,149.17,-203.858,
00:00:21:517,0.466,0.588,0.583,-2.93,164.428,-224.244,
00:00:21:533,0.504,0.647,0.645,92.224,165.466,-237.122,
00:00:21:550,0.569,0.667,0.709,102.356,144.897,-223.877,
00:00:21:567,0.665,0.771,0.706,14.282,86.792,-185.914,
00:00:21:583,0.738,0.847,0.7,37.658,-2.442,-106.202,
00:00:21:600,0.748,0.825,0.73,51.391,-120.24,20.507,
00:00:21:617,0.716,0.915,0.729,40.1,-212.891,122.741,
00:00:21:633,0.656,0.791,0.662,90.332,-286.011,223.755,
00:00:21:650,0.592,0.747,0.64,66.65,-348.633,291.504,
00:00:21:667,0.527,0.678,0.584,45.959,-384.888,328.979,
00:00:21:683,0.495,0.568,0.514,28.32,-440.674,364.318,
00:00:21:700,0.438,0.611,0.535,27.099,-480.53,372.558,
00:00:21:717,0.399,0.549,0.556,22.338,-481.995,368.103,
00:00:21:733,0.342,0.476,0.455,-116.883,-431.214,342.712,
00:00:21:750,0.356,0.519,0.391,-208.435,-352.112,306.518,
00:00:21:767,0.275,0.579,0.42,-175.599,-244.935,226.867,
00:00:21:783,0.261,0.553,0.384,-57.129,-129.761,155.578,
00:00:21:800,0.265,0.353,0.36,14.221,73.669,-15.564,
00:00:21:817,0.291,0.428,0.387,48.095,154.419,-128.357,
00:00:21:833,0.299,0.454,0.409,75.866,233.093,-227.784,
00:00:21:850,0.282,0.539,0.432,123.23,337.89,-341.797,
00:00:21:867,0.237,0.613,0.459,188.354,512.085,-495.972,
00:00:21:883,0.173,0.725,0.554,244.567,762.451,-680.359,
00:00:21:900,0.206,0.901,0.823,299.316,1047.18,-877.991,
00:00:21:917,0.455,-0.088,-0.286,130.615,944.152,-809.082,
00:00:21:933,1.092,1.711,1.08,-520.386,553.283,-365.601,
00:00:21:950,0.207,2.417,2.523,338.073,-165.955,169.922,
00:00:21:967,0.503,0.622,1.136,250.549,-165.406,160.888,
00:00:21:983,0.57,0.813,0.55,-521.18,-314.27,177.856,
00:00:22:0,0.333,0.912,0.93,-313.233,-390.137,263.061,
00:00:22:17,0.31,0.863,0.752,71.35,-327.637,278.625,
00:00:22:33,0.335,0.553,0.648,56.701,-290.528,301.025,
00:00:22:50,0.307,0.653,0.653,73.364,-256.348,249.084,
00:00:22:67,0.292,0.51,0.686,-41.077,-224.122,181.152,
00:00:22:83,0.255,0.53,0.611,-22.339,-172.059,113.037,
00:00:22:100,0.212,0.406,0.52,111.084,-135.315,55.114,
00:00:22:117,0.168,0.288,0.489,138.794,-89.478,-14.466,
00:00:22:133,0.189,0.398,0.507,33.874,-27.649,-114.685,
00:00:22:150,0.245,0.436,0.546,-40.772,35.827,-210.45,
00:00:22:167,0.293,0.501,0.544,-67.139,93.75,-269.471,
00:00:22:183,0.331,0.543,0.555,-53.528,138.916,-289.002,
00:00:22:200,0.386,0.572,0.532,-54.261,146.362,-248.902,
00:00:22:217,0.408,0.748,0.631,43.457,147.583,-192.749,
00:00:22:233,0.43,0.8,0.687,121.032,166.259,-135.804,
00:00:22:250,0.479,0.816,0.703,172.668,165.405,-74.646,
00:00:22:267,0.484,0.774,0.691,184.143,132.751,-9.278,
00:00:22:283,0.463,0.801,0.725,183.471,90.881,50.109,
00:00:22:300,0.418,0.755,0.728,180.603,52.551,89.416,
00:00:22:317,0.362,0.666,0.667,190.368,30.944,105.529,
00:00:22:333,0.318,0.615,0.634,158.264,16.845,101.623,
00:00:22:350,0.291,0.547,0.659,105.041,12.451,78.613,
00:00:22:367,0.295,0.561,0.674,-6.287,13.732,48.4,
00:00:22:383,0.328,0.707,0.669,-51.026,4.882,17.028,
00:00:22:400,0.35,0.641,0.705,-0.794,-7.325,14.099,
00:00:22:417,0.37,0.69,0.717,26.001,-37.964,25.817,
00:00:22:433,0.369,0.673,0.71,37.78,-51.331,38.33,
00:00:22:450,0.363,0.708,0.686,73.791,-67.017,51.94,
00:00:22:467,0.339,0.627,0.689,117.492,-62.806,67.871,
00:00:22:483,0.323,0.629,0.665,108.154,-51.758,73.547,
00:00:22:500,0.332,0.563,0.624,152.71,-43.519,83.984,
00:00:22:517,0.32,0.601,0.621,192.199,-39.734,90.576,
00:00:22:533,0.329,0.574,0.651,176.208,-24.109,83.313,
00:00:22:550,0.333,0.602,0.641,145.141,-5.005,68.115,
00:00:22:567,0.335,0.573,0.651,111.389,15.258,59.692,
00:00:22:583,0.339,0.566,0.652,12.512,24.169,49.682,
00:00:22:600,0.348,0.582,0.696,-48.706,16.418,50.109,
00:00:22:617,0.352,0.638,0.707,29.846,6.652,59.753,
00:00:22:633,0.331,0.59,0.679,92.773,-2.381,72.998,
00:00:22:650,0.309,0.645,0.696,71.655,0.488,69.091,
00:00:22:667,0.295,0.569,0.717,45.41,5.127,62.988,
00:00:22:683,0.285,0.627,0.703,21.85,11.169,36.071,
00:00:22:700,0.251,0.631,0.673,71.594,33.081,12.207,
00:00:22:717,0.245,0.59,0.693,128.296,59.204,-3.052,
00:00:22:733,0.242,0.562,0.696,98.999,95.703,-14.344,
00:00:22:750,0.243,0.542,0.662,23.681,108.337,-50.538,
00:00:22:767,0.253,0.499,0.641,-52.308,103.881,-90.699,
00:00:22:783,0.311,0.574,0.656,15.747,81.481,-100.708,
00:00:22:800,0.279,0.556,0.706,67.688,72.876,-107.544,
00:00:22:817,0.281,0.542,0.725,-52.796,78.918,-157.532,
00:00:22:833,0.282,0.494,0.702,-238.648,105.102,-208.741,
00:00:22:850,0.331,0.56,0.623,-356.08,126.526,-225.586,
00:00:22:867,0.371,0.559,0.645,-320.618,117.736,-199.646,
00:00:22:883,0.427,0.754,0.622,-212.708,83.496,-200.562,
00:00:22:900,0.388,0.714,0.703,-162.171,66.406,-164.795,
00:00:22:917,0.406,0.651,0.683,-191.285,64.209,-150.574,
00:00:22:933,0.411,0.719,0.7,-208.13,68.603,-132.325,
00:00:22:950,0.399,0.679,0.663,-159.974,76.232,-113.404,
00:00:22:967,0.391,0.667,0.648,-67.505,81.848,-62.378,
00:00:22:983,0.385,0.684,0.635,-28.992,99.792,-19.165,
00:00:23:0,0.394,0.719,0.637,-14.161,114.257,6.225,
00:00:23:17,0.407,0.652,0.652,-7.264,108.581,26.55,
00:00:23:33,0.403,0.693,0.603,12.268,92.895,42.053,
00:00:23:50,0.399,0.654,0.618,38.391,57.128,68.176,
00:00:23:67,0.389,0.673,0.65,-15.198,48.461,63.72,
00:00:23:83,0.378,0.675,0.642,-47.181,66.528,47.729,
00:00:23:100,0.352,0.669,0.632,-19.104,96.069,43.457,
00:00:23:117,0.378,0.644,0.579,37.231,113.647,58.349,pourEggRH
00:00:23:133,0.379,0.636,0.579,58.044,118.774,84.961,
00:00:23:150,0.409,0.756,0.589,71.167,119.506,84.777,
00:00:23:167,0.4,0.696,0.629,125.61,122.619,70.983,
00:00:23:183,0.389,0.65,0.644,19.592,129.272,59.143,
00:00:23:200,0.393,0.666,0.61,-66.712,118.469,68.786,
00:00:23:217,0.403,0.77,0.631,-16.907,94.055,89.111,
00:00:23:233,0.386,0.731,0.594,22.155,97.961,108.825,
00:00:23:250,0.396,0.654,0.635,142.761,94.299,106.628,
00:00:23:267,0.419,0.66,0.707,-65.125,98.327,126.77,
00:00:23:283,0.433,0.67,0.641,32.592,102.417,77.331,
00:00:23:300,0.388,0.493,0.661,82.214,85.327,115.661,
00:00:23:317,0.421,0.668,0.598,61.462,71.533,80.871,
00:00:23:333,0.375,0.549,0.631,57.556,76.416,117.37,
00:00:23:350,0.374,0.649,0.575,46.386,65.246,86.059,
00:00:23:367,0.356,0.623,0.73,147.766,-1.343,114.441,
00:00:23:383,0.349,0.656,0.633,183.838,13.977,88.745,
00:00:23:400,0.331,0.651,0.638,211.12,15.686,105.468,
00:00:23:417,0.345,0.64,0.675,296.264,13.61,97.473,
00:00:23:433,0.333,0.673,0.659,408.508,30.944,123.779,
00:00:23:450,0.337,0.71,0.625,469.726,57.861,133.422,
00:00:23:467,0.33,0.634,0.647,461.059,67.382,135.62,
00:00:23:483,0.333,0.653,0.642,435.669,110.229,104.37,
00:00:23:500,0.33,0.627,0.732,463.073,104.126,81.054,
00:00:23:517,0.351,0.579,0.693,523.376,96.435,64.392,
00:00:23:533,0.357,0.6,0.681,529.724,96.801,80.139,
00:00:23:550,0.362,0.64,0.714,592.346,99.67,67.504,
00:00:23:567,0.382,0.647,0.728,691.772,80.627,60.546,
00:00:23:583,0.323,0.507,0.733,649.902,73.059,81.359,
00:00:23:600,0.347,0.506,0.791,562.622,90.026,108.215,
00:00:23:617,0.323,0.45,0.686,474.914,108.642,97.106,
00:00:23:633,0.35,0.43,0.7,417.236,78.491,123.779,
00:00:23:650,0.36,0.364,0.819,335.876,54.931,104.919,
00:00:23:667,0.365,0.37,0.899,247.619,58.898,86.486,
00:00:23:683,0.379,0.434,0.758,147.094,88.378,30.334,
00:00:23:700,0.377,0.459,0.731,132.751,78.613,48.217,
00:00:23:717,0.38,0.49,0.766,118.103,85.327,42.297,
00:00:23:733,0.372,0.476,0.822,82.397,75.073,48.645,
00:00:23:750,0.361,0.518,0.819,65.612,94.97,41.442,
00:00:23:767,0.385,0.494,0.773,108.459,57.19,45.471,
00:00:23:783,0.354,0.522,0.73,126.587,57.19,52.429,
00:00:23:800,0.392,0.482,0.706,132.995,13.916,54.809,
00:00:23:817,0.335,0.437,0.798,104.797,4.089,77.026,
00:00:23:833,0.358,0.397,0.841,53.161,7.263,40.71,
00:00:23:850,0.348,0.386,0.804,-14.527,4.882,13.916,
00:00:23:867,0.356,0.402,0.733,-16.419,-7.874,-10.132,
00:00:23:883,0.335,0.422,0.745,-16.236,7.446,-17.762,
00:00:23:900,0.359,0.44,0.768,13.977,5.188,-24.17,
00:00:23:917,0.354,0.414,0.815,17.395,-2.93,-22.156,
00:00:23:933,0.367,0.466,0.794,30.761,27.16,-23.255,
00:00:23:950,0.374,0.47,0.825,94.238,20.69,-20.264,
00:00:23:967,0.36,0.501,0.822,149.78,32.775,-25.574,
00:00:23:983,0.37,0.479,0.803,249.694,36.682,-44.068,
00:00:24:0,0.34,0.301,0.759,314.88,0.732,-26.246,
00:00:24:17,0.331,0.273,0.847,195.373,-0.245,-11.963,
00:00:24:33,0.37,0.399,0.89,131.591,-1.282,-38.514,
00:00:24:50,0.345,0.428,0.876,201.172,-10.743,-35.584,
00:00:24:67,0.338,0.455,0.863,234.924,-6.714,-36.805,
00:00:24:83,0.314,0.441,0.9,261.474,0.549,-13.428,
00:00:24:100,0.354,0.298,0.847,165.222,5.065,-41.321,
00:00:24:117,0.388,0.337,0.896,155.7,-12.33,-45.044,
00:00:24:133,0.366,0.312,0.925,129.943,-10.193,-33.204,
00:00:24:150,0.361,0.35,0.863,124.145,14.953,-30.457,
00:00:24:167,0.369,0.344,0.81,185.363,19.775,-22.217,
00:00:24:183,0.369,0.266,0.814,167.602,11.779,-4.09,
00:00:24:200,0.348,0.312,0.814,102.234,30.761,-14.588,
00:00:24:217,0.34,0.328,0.855,124.878,27.771,-24.903,
00:00:24:233,0.352,0.341,0.883,154.419,11.535,-30.274,
00:00:24:250,0.343,0.276,0.913,91.735,2.746,-2.564,
00:00:24:267,0.355,0.281,0.867,38.147,3.051,-15.015,
00:00:24:283,0.35,0.284,0.894,-74.28,15.502,-17.456,
00:00:24:300,0.368,0.283,0.868,-51.087,-8.301,-22.583,
00:00:24:317,0.343,0.327,0.857,-16.297,-4.7,-4.334,
00:00:24:333,0.373,0.266,0.882,20.446,-8.179,-2.137,
00:00:24:350,0.348,0.285,0.875,5.615,8.972,-1.404,
00:00:24:367,0.356,0.315,0.896,6.591,11.169,-4.822,
00:00:24:383,0.343,0.333,0.9,43.029,13.061,-5.249,
00:00:24:400,0.347,0.269,0.9,44.982,-13.367,17.578,
00:00:24:417,0.342,0.253,0.916,-29.236,-17.518,4.882,
00:00:24:433,0.35,0.248,0.902,-112.854,-27.955,-1.526,
00:00:24:450,0.345,0.259,0.895,-252.93,-28.077,-3.479,
00:00:24:467,0.369,0.431,0.831,-67.139,7.019,13.122,
00:00:24:483,0.306,0.335,0.827,-59.205,1.831,44.128,
00:00:24:500,0.336,0.319,0.812,-191.468,36.01,30.09,
00:00:24:517,0.358,0.335,0.811,-273.682,20.446,23.437,
00:00:24:533,0.336,0.384,0.849,-302.613,33.142,12.756,
00:00:24:550,0.363,0.469,0.809,-206.665,51.208,-12.146,
00:00:24:567,0.313,0.468,0.746,-183.228,43.151,0.61,
00:00:24:583,0.344,0.562,0.713,-59.449,62.866,-33.509,
00:00:24:600,0.347,0.495,0.722,66.284,9.887,-10.132,
00:00:24:617,0.345,0.397,0.724,68.359,16.845,-62.806,
00:00:24:633,0.387,0.428,0.727,164.306,-26.429,-60.059,
00:00:24:650,0.363,0.281,0.85,107.91,-57.435,-39.124,
00:00:24:667,0.371,0.348,0.723,110.351,25.268,-124.39,
00:00:24:683,0.343,0.303,0.803,-60.364,51.574,-9.461,
00:00:24:700,0.393,0.48,0.815,-86.67,42.236,-23.255,
00:00:24:717,0.372,0.331,0.912,-97.657,2.075,-5.677,
00:00:24:733,0.363,0.437,0.88,-95.032,25.451,-10.804,
00:00:24:750,0.386,0.557,0.838,96.557,-14.588,-25.33,
00:00:24:767,0.314,0.407,0.87,160.766,-20.203,-26.856,
00:00:24:783,0.328,0.393,0.832,114.38,10.009,-22.889,
00:00:24:800,0.342,0.415,0.874,13.977,-42.054,-43.152,
00:00:24:817,0.342,0.376,0.894,144.409,-39.368,-54.932,
00:00:24:833,0.332,0.48,0.866,218.017,-20.142,-53.284,
00:00:24:850,0.322,0.513,0.826,411.621,8.178,-54.383,
00:00:24:867,0.312,0.283,0.828,337.524,50.354,-9.583,
00:00:24:883,0.355,0.356,0.805,284.057,60.119,-20.935,
00:00:24:900,0.364,0.259,0.869,305.786,74.401,-8.728,
00:00:24:917,0.387,0.252,0.884,250.061,77.392,-0.428,
00:00:24:933,0.394,0.16,0.873,124.572,43.151,14.587,
00:00:24:950,0.399,0.34,0.908,57.128,21.789,25.634,
00:00:24:967,0.366,0.288,0.937,123.718,27.648,24.414,
00:00:24:983,0.406,0.212,0.898,136.718,31.005,28.93,
00:00:25:0,0.379,0.214,0.869,44.677,17.395,7.019,
00:00:25:17,0.367,0.214,0.882,-14.466,11.657,-16.968,
00:00:25:33,0.367,0.2,0.872,-17.701,12.023,-25.086,
00:00:25:50,0.367,0.228,0.874,-64.087,2.38,-17.334,
00:00:25:67,0.367,0.291,0.866,-41.687,15.747,-24.414,
00:00:25:83,0.372,0.287,0.868,-3.907,27.648,-22.644,
00:00:25:100,0.391,0.36,0.855,55.603,19.653,-12.94,
00:00:25:117,0.384,0.278,0.93,102.905,10.192,-7.691,
00:00:25:133,0.356,0.293,0.904,94.848,18.066,-10.621,
00:00:25:150,0.358,0.222,0.874,101.623,30.212,-25.513,
00:00:25:167,0.347,0.266,0.86,3.051,31.86,-30.274,
00:00:25:183,0.364,0.199,0.864,-51.087,52.673,-56.763,
00:00:25:200,0.386,0.335,0.869,-53.589,33.752,-56.092,
00:00:25:217,0.38,0.265,0.895,6.469,34.24,-57.74,
00:00:25:233,0.381,0.274,0.895,-1.221,26.733,-56.031,
00:00:25:250,0.382,0.281,0.923,-20.813,14.221,-51.697,
00:00:25:267,0.387,0.338,0.882,-6.165,4.76,-41.26,
00:00:25:283,0.371,0.311,0.879,52.124,8.239,-19.41,
00:00:25:300,0.371,0.327,0.881,62.805,5.31,-3.846,
00:00:25:317,0.369,0.303,0.874,85.266,7.202,-2.869,
00:00:25:333,0.366,0.261,0.89,76.477,10.498,-9.034,
00:00:25:350,0.364,0.25,0.893,48.889,12.207,-13.306,
00:00:25:367,0.368,0.262,0.875,30.7,15.075,-18.555,
00:00:25:383,0.371,0.228,0.872,14.16,6.042,-19.41,
00:00:25:400,0.386,0.284,0.874,34.912,-2.747,-9.827,
00:00:25:417,0.378,0.263,0.868,60.607,9.643,-7.081,
00:00:25:433,0.377,0.249,0.885,41.381,14.648,-10.498,
00:00:25:450,0.375,0.244,0.89,44.799,21.24,-21.119,
00:00:25:467,0.385,0.241,0.879,52.124,27.343,-30.213,
00:00:25:483,0.404,0.255,0.879,68.481,27.465,-24.598,
00:00:25:500,0.401,0.273,0.893,92.651,25.39,-13.733,
00:00:25:517,0.392,0.267,0.896,114.99,28.747,-2.076,
00:00:25:533,0.382,0.256,0.899,134.643,32.775,3.418,
00:00:25:550,0.38,0.247,0.892,142.883,33.752,-1.282,
00:00:25:567,0.378,0.239,0.891,157.47,38.452,-5.31,
00:00:25:583,0.373,0.243,0.897,150.817,38.879,-13.367,
00:00:25:600,0.383,0.248,0.905,161.316,41.137,-21.302,
00:00:25:617,0.386,0.254,0.912,180.786,49.743,-20.081,
00:00:25:633,0.378,0.251,0.925,200.317,60.669,-17.701,
00:00:25:650,0.385,0.279,0.903,226.196,59.265,-27.955,
00:00:25:667,0.376,0.214,0.871,254.882,78.979,-30.64,
00:00:25:683,0.391,0.089,0.796,172.729,53.405,-7.203,
00:00:25:700,0.402,0.205,0.846,110.107,-13.855,14.16,
00:00:25:717,0.393,0.225,0.918,145.202,-12.94,25.268,
00:00:25:733,0.384,0.204,0.923,147.949,-7.508,28.381,
00:00:25:750,0.381,0.249,0.913,149.902,1.464,24.169,
00:00:25:767,0.376,0.202,0.911,176.941,9.704,19.287,
00:00:25:783,0.378,0.172,0.895,197.815,18.615,19.104,
00:00:25:800,0.367,0.103,0.846,187.5,26.794,17.761,
00:00:25:817,0.371,0.102,0.859,156.616,14.465,24.047,
00:00:25:833,0.383,0.143,0.889,162.109,12.939,27.465,
00:00:25:850,0.382,0.146,0.908,179.077,22.461,23.437,
00:00:25:867,0.381,0.128,0.919,188.964,33.752,14.831,
00:00:25:883,0.382,0.139,0.919,192.382,49.987,-0.672,
00:00:25:900,0.382,0.142,0.907,223.083,69.641,-17.884,
00:00:25:917,0.39,0.037,0.864,217.224,88.195,-36.927,
00:00:25:933,0.405,0.007,0.837,135.376,64.758,-20.447,
00:00:25:950,0.43,0.09,0.874,91.003,38.879,-11.048,
00:00:25:967,0.428,0.114,0.916,101.074,28.198,-1.709,
00:00:25:983,0.428,0.108,0.931,106.323,35.766,-0.794,
00:00:26:0,0.411,0.109,0.918,106.018,39.428,-8.484,
00:00:26:17,0.409,0.065,0.91,111.328,36.193,-12.757,
00:00:26:33,0.401,0.066,0.9,94.421,26.611,-10.376,
00:00:26:50,0.404,0.061,0.9,102.417,18.554,-10.01,
00:00:26:67,0.4,0.063,0.909,93.811,8.483,-12.635,
00:00:26:83,0.408,0.075,0.927,93.811,4.882,-13.733,
00:00:26:100,0.4,0.07,0.921,100.525,1.281,-17.334,
00:00:26:117,0.393,0.065,0.915,101.379,0.549,-19.104,
00:00:26:133,0.391,0.079,0.9,107.849,2.319,-23.743,
00:00:26:150,0.396,0.039,0.897,107.666,7.995,-9.217,
00:00:26:167,0.396,0.063,0.884,108.032,-0.184,-10.865,
00:00:26:183,0.4,0.057,0.9,145.691,0.061,-8.484,
00:00:26:200,0.391,0.046,0.896,162.109,-1.343,-4.212,
00:00:26:217,0.398,0.021,0.879,163.33,0.366,-3.479,
00:00:26:233,0.4,0.045,0.888,171.142,-9.4,-5.738,
00:00:26:250,0.414,0.058,0.89,178.65,-24.537,-5.066,
00:00:26:267,0.409,0.047,0.899,224.609,-27.1,4.577,
00:00:26:283,0.411,0.029,0.889,247.985,-27.771,19.409,
00:00:26:300,0.397,-0.009,0.889,250,-34.546,27.832,
00:00:26:317,0.402,-0.028,0.918,239.502,-23.377,34.973,
00:00:26:333,0.393,-0.06,0.915,200.195,-13.123,22.766,
00:00:26:350,0.394,-0.044,0.91,166.87,-4.334,15.075,
00:00:26:367,0.403,-0.053,0.881,162.658,-14.832,0.366,
00:00:26:383,0.394,-0.096,0.894,162.841,-9.339,1.648,
00:00:26:400,0.39,-0.07,0.899,145.568,-5.616,7.263,
00:00:26:417,0.385,-0.096,0.898,122.192,2.014,2.807,
00:00:26:433,0.376,-0.1,0.907,87.829,9.582,-0.672,
00:00:26:450,0.384,-0.066,0.91,87.585,14.465,-6.653,
00:00:26:467,0.395,-0.053,0.893,129.394,11.779,-6.592,
00:00:26:483,0.389,-0.07,0.899,140.93,15.441,-3.846,
00:00:26:500,0.392,-0.095,0.905,131.591,21.484,-0.672,
00:00:26:517,0.388,-0.106,0.904,79.284,23.193,-5.372,
00:00:26:533,0.405,-0.073,0.896,65.307,11.108,-16.48,
00:00:26:550,0.381,-0.121,0.915,54.26,9.216,-22.767,
00:00:26:567,0.38,-0.09,0.909,7.934,-0.123,-34.974,
00:00:26:583,0.398,-0.056,0.914,25.756,-5.372,-42.359,
00:00:26:600,0.395,-0.07,0.929,34.606,-7.874,-35.157,
00:00:26:617,0.392,-0.047,0.905,-10.682,-16.846,-33.692,
00:00:26:633,0.384,-0.068,0.909,-34.79,-20.203,-35.035,
00:00:26:650,0.381,-0.054,0.909,-15.259,-17.701,-28.565,
00:00:26:667,0.363,-0.095,0.901,-24.964,-8.362,-26.307,
00:00:26:683,0.373,-0.073,0.911,-27.161,-0.367,-21.851,
00:00:26:700,0.374,-0.092,0.906,-3.235,6.469,-14.588,
00:00:26:717,0.378,-0.097,0.91,-5.677,10.742,-8.728,
00:00:26:733,0.386,-0.09,0.923,-35.767,5.92,-22.644,
00:00:26:750,0.39,-0.106,0.919,1.586,6.225,-28.321,
00:00:26:767,0.399,-0.104,0.91,-4.212,1.77,-31.434,
00:00:26:783,0.392,-0.073,0.917,-3.113,0.305,-34.668,
00:00:26:800,0.378,-0.107,0.925,5.493,9.155,-33.997,
00:00:26:817,0.387,-0.095,0.9,0.732,11.169,-33.081,
00:00:26:833,0.383,-0.103,0.906,-2.564,15.625,-35.401,
00:00:26:850,0.379,-0.108,0.918,-30.64,21.118,-39.002,
00:00:26:867,0.383,-0.049,0.898,-38.453,22.461,-41.81,
00:00:26:883,0.387,-0.076,0.9,-4.7,18.737,-48.096,
00:00:26:900,0.37,-0.086,0.914,-35.462,12.634,-47.73,
00:00:26:917,0.372,-0.06,0.894,-75.806,5.249,-51.697,
00:00:26:933,0.362,-0.067,0.886,-101.502,1.464,-55.359,
00:00:26:950,0.361,-0.058,0.896,-114.197,5.371,-54.322,
00:00:26:967,0.363,-0.02,0.893,-126.16,10.62,-54.017,
00:00:26:983,0.377,-0.006,0.897,-101.075,11.352,-55.176,
00:00:27:0,0.385,-0.037,0.911,-87.281,18.005,-45.594,
00:00:27:17,0.39,-0.013,0.926,-105.835,13.61,-36.194,
00:00:27:33,0.397,-0.019,0.932,-115.54,7.995,-32.166,
00:00:27:50,0.401,-0.013,0.928,-100.708,2.014,-29.236,
00:00:27:67,0.397,-0.024,0.924,-90.577,-0.611,-23.865,
00:00:27:83,0.398,-0.009,0.91,-76.783,-5.799,-17.762,
00:00:27:100,0.386,-0.032,0.911,-57.618,-8.728,-14.039,
00:00:27:117,0.381,-0.034,0.902,-58.411,-10.865,-15.076,
00:00:27:133,0.373,-0.038,0.902,-76.477,-7.752,-17.762,
00:00:27:150,0.376,-0.027,0.897,-60.975,11.901,-26.612,
00:00:27:167,0.376,-0.035,0.901,-51.88,18.005,-28.565,
00:00:27:183,0.373,-0.035,0.9,-87.647,17.944,-35.096,
00:00:27:200,0.374,-0.031,0.907,-139.771,17.456,-41.565,
00:00:27:217,0.376,-0.01,0.914,-145.142,16.662,-45.227,
00:00:27:233,0.381,-0.006,0.911,-132.019,16.906,-50.293,
00:00:27:250,0.395,-0.007,0.914,-158.143,8.972,-54.871,
00:00:27:267,0.393,0.007,0.921,-189.148,0.183,-57.435,
00:00:27:283,0.4,0.037,0.939,-174.744,-2.991,-56.153,
00:00:27:300,0.394,0.038,0.93,-159.485,-2.93,-52.124,
00:00:27:317,0.39,0.045,0.921,-175.293,-5.799,-49.805,
00:00:27:333,0.382,0.038,0.914,-169.312,-3.479,-47.181,
00:00:27:350,0.376,0.03,0.912,-184.998,-5.555,-44.434,
00:00:27:367,0.375,0.033,0.918,-223.755,-1.343,-50.66,
00:00:27:383,0.387,0.085,0.91,-207.093,-8.179,-54.078,
00:00:27:400,0.384,0.072,0.903,-127.32,-5.005,-55.97,
00:00:27:417,0.386,0.049,0.904,-117.859,-6.897,-53.833,
00:00:27:433,0.38,0.057,0.915,-189.026,-11.902,-59.51,
00:00:27:450,0.386,0.086,0.897,-393.677,-12.94,-100.525,
00:00:27:467,0.38,0.104,0.89,-407.288,-17.456,-111.145,
00:00:27:483,0.379,0.106,0.888,-458.863,-18.372,-121.338,
00:00:27:500,0.38,0.136,0.899,-564.698,-13.306,-127.503,
00:00:27:517,0.379,0.147,0.892,-701.905,-5.066,-143.555,
00:00:27:533,0.388,0.285,0.837,-888.062,-6.47,-161.744,
00:00:27:550,0.399,0.334,0.827,-808.411,-15.503,-155.701,
00:00:27:567,0.395,0.36,0.831,-722.901,-24.476,-136.231,
00:00:27:583,0.377,0.369,0.839,-641.297,-19.043,-104.737,
00:00:27:600,0.379,0.4,0.813,-613.953,-2.442,-69.397,
00:00:27:617,0.373,0.382,0.78,-437.623,22.216,-37.964,
00:00:27:633,0.401,0.369,0.821,-435.852,1.525,-68.055,
00:00:27:650,0.362,0.421,0.813,-482.361,8.972,-58.35,
00:00:27:667,0.387,0.477,0.78,-462.952,6.286,-73.975,
00:00:27:683,0.39,0.458,0.723,-358.643,26.611,-81.849,
00:00:27:700,0.392,0.463,0.704,-450.867,32.714,-72.144,
00:00:27:717,0.386,0.514,0.686,-508.423,38.574,-60.12,
00:00:27:733,0.387,0.574,0.664,-492.737,51.635,-56.275,
00:00:27:750,0.38,0.63,0.634,-426.636,71.533,-63.355,
00:00:27:767,0.396,0.555,0.627,-726.014,86.669,-68.848,
00:00:27:783,0.409,0.601,0.609,-767.029,89.477,-69.336,
00:00:27:800,0.412,0.568,0.625,-798.829,68.298,-70.74,
00:00:27:817,0.427,0.62,0.6,-888.306,46.325,-54.261,
00:00:27:833,0.425,0.694,0.547,-933.899,47.18,-77.698,
00:00:27:850,0.456,0.771,0.486,-504.517,-13.55,-43.519,
00:00:27:867,0.448,0.771,0.5,-430.787,-17.518,-25.208,
00:00:27:883,0.437,0.76,0.473,-403.687,0.61,-23.743,
00:00:27:900,0.442,0.748,0.46,-408.997,13.977,-32.044,
00:00:27:917,0.407,0.76,0.425,-393.799,10.437,-39.978,
00:00:27:933,0.429,0.807,0.443,-284.302,-2.93,-54.505,
00:00:27:950,0.418,0.802,0.458,-192.81,29.663,-52.247,
00:00:27:967,0.409,0.82,0.436,-127.93,68.969,-42.969,
00:00:27:983,0.43,0.817,0.384,-90.088,100.402,-25.513,
00:00:28:0,0.421,0.846,0.313,-107.239,124.511,-10.437,
00:00:28:17,0.451,0.815,0.352,-124.39,96.679,-17.395,
00:00:28:33,0.448,0.794,0.423,-149.659,52.185,-20.264,
00:00:28:50,0.431,0.804,0.407,-284.729,14.221,-34.363,
00:00:28:67,0.447,0.856,0.33,-364.319,-7.874,-52.674,
00:00:28:83,0.452,0.853,0.317,-321.595,-50.965,-77.027,
00:00:28:100,0.433,0.822,0.354,-271.485,-70.862,-87.83,
00:00:28:117,0.439,0.846,0.354,-207.886,-57.618,-75.928,
00:00:28:133,0.438,0.851,0.351,-110.962,-57.496,-65.674,
00:00:28:150,0.417,0.807,0.338,-84.229,-50.11,-63.721,
00:00:28:167,0.428,0.832,0.286,-58.777,-10.926,-76.05,
00:00:28:183,0.46,0.848,0.265,45.105,-22.095,-59.388,
00:00:28:200,0.454,0.841,0.304,104.919,-42.786,-26.368,
00:00:28:217,0.46,0.856,0.328,56.762,-44.678,-18.677,
00:00:28:233,0.46,0.845,0.339,4.821,-28.748,-19.043,
00:00:28:250,0.471,0.854,0.329,-19.471,-13.489,-12.207,
00:00:28:267,0.486,0.864,0.317,11.474,-14.466,-6.531,
00:00:28:283,0.484,0.863,0.313,44.067,-7.508,-5.616,
00:00:28:300,0.493,0.816,0.297,54.26,-5.555,-7.63,
00:00:28:317,0.499,0.781,0.301,36.01,-10.804,3.54,
00:00:28:333,0.516,0.818,0.297,-10.315,-3.113,20.446,
00:00:28:350,0.528,0.807,0.284,12.268,-12.269,35.827,
00:00:28:367,0.535,0.766,0.27,0.732,-20.63,52.368,
00:00:28:383,0.545,0.767,0.263,-40.223,-11.719,69.213,
00:00:28:400,0.558,0.756,0.255,-70.191,11.413,84.228,
00:00:28:417,0.581,0.795,0.241,-66.59,6.042,119.323,
00:00:28:433,0.593,0.859,0.262,0.183,-14.405,150.39,
00:00:28:450,0.586,0.875,0.297,74.951,-34.363,179.199,
00:00:28:467,0.578,0.886,0.295,86.975,-27.1,207.214,
00:00:28:483,0.576,0.875,0.24,90.942,-28.748,256.469,
00:00:28:500,0.563,0.884,0.22,75.866,-43.152,293.64,
00:00:28:517,0.52,0.837,0.219,58.349,-64.942,300.476,
00:00:28:533,0.507,0.864,0.244,-7.447,-42.847,293.701,
00:00:28:550,0.482,0.861,0.284,38.208,-47.425,300.842,
00:00:28:567,0.449,0.817,0.329,66.101,-47.791,308.105,
00:00:28:583,0.42,0.847,0.348,72.326,-70.435,296.325,
00:00:28:600,0.406,0.845,0.327,69.702,-98.145,267.639,
00:00:28:617,0.371,0.85,0.299,-9.705,-103.211,235.412,
00:00:28:633,0.361,0.91,0.264,-66.04,-73.365,220.092,
00:00:28:650,0.359,0.999,0.23,27.465,-51.026,219.665,
00:00:28:667,0.348,0.975,0.224,197.876,-42.725,205.505,
00:00:28:683,0.318,0.865,0.265,233.276,-18.799,185.974,
00:00:28:700,0.29,0.857,0.274,97.656,47.18,160.827,
00:00:28:717,0.274,0.858,0.29,75.073,104.126,83.007,
00:00:28:733,0.256,0.899,0.339,176.147,164.306,37.536,
00:00:28:750,0.292,0.889,0.289,416.137,170.532,24.231,
00:00:28:767,0.196,0.785,0.393,850.525,320.19,-70.74,
00:00:28:783,0.183,0.685,0.37,820.922,320.251,-80.201,
00:00:28:800,0.131,0.745,0.405,820.007,380.31,-140.748,
00:00:28:817,0.217,0.639,0.519,735.412,368.164,-184.571,
00:00:28:833,0.199,0.61,0.487,542.724,351.074,-205.567,
00:00:28:850,0.164,0.545,0.478,379.211,315.673,-256.226,
00:00:28:867,0.139,0.535,0.544,141.845,306.457,-287.598,
00:00:28:883,0.158,0.626,0.616,-135.926,312.683,-292.847,
00:00:28:900,0.235,0.696,0.725,-363.526,275.94,-306.946,
00:00:28:917,0.256,0.796,0.65,-461.182,267.273,-272.217,
00:00:28:933,0.257,0.8,0.531,-401.612,208.252,-271.302,
00:00:28:950,0.29,0.709,0.505,-353.394,63.964,-254.334,
00:00:28:967,0.297,0.718,0.502,-438.599,45.288,-244.324,
00:00:28:983,0.301,0.684,0.492,-576.722,-20.997,-260.621,
00:00:29:0,0.32,0.586,0.461,-828.003,-45.594,-274.048,
00:00:29:17,0.29,0.582,0.386,-1134.644,-38.636,-311.646,
00:00:29:33,0.327,0.617,0.316,-1309.51,-73.975,-301.697,
00:00:29:50,0.406,0.722,0.289,-1436.707,-128.235,-298.401,
00:00:29:67,0.407,0.904,0.288,-1523.56,-201.477,-271.302,
00:00:29:83,0.421,1.009,0.299,-1532.166,-381.043,-204.163,
00:00:29:100,0.408,1.071,0.3,-1534.729,-421.143,-167.603,
00:00:29:117,0.381,1.054,0.195,-1730.469,-371.216,-99.976,
00:00:29:133,0.317,1.111,0.001,-1774.781,-219.117,6.53,
00:00:29:150,0.331,1.167,-0.189,-1542.481,-192.933,137.573,
00:00:29:167,0.362,1.277,-0.195,-1255.066,-233.582,217.956,
00:00:29:183,0.319,1.166,-0.096,-1075.867,-258.851,149.841,
00:00:29:200,0.249,1.091,0.07,-1029.114,-191.224,202.942,
00:00:29:217,0.184,1.119,-0.015,-1020.752,46.752,306.335,
00:00:29:233,0.122,1.201,-0.3,-886.658,238.159,414.428,
00:00:29:250,0.143,1.173,-0.35,-748.414,267.822,450.561,
00:00:29:267,0.13,1.06,-0.35,-608.399,291.015,485.534,
00:00:29:283,0.092,1.087,-0.372,-320.862,255.981,540.832,
00:00:29:300,0.09,1.045,-0.3,-131.592,204.101,521.118,
00:00:29:317,0.254,0.924,-0.234,-97.168,267.089,664.245,
00:00:29:333,0.243,0.898,-0.373,-156.434,308.105,687.011,
00:00:29:350,0.233,0.961,-0.495,-196.289,364.502,758.911,
00:00:29:367,0.226,1.01,-0.526,-140.137,364.746,720.703,
00:00:29:383,0.243,0.961,-0.507,-49.988,370.056,639.099,
00:00:29:400,0.24,0.866,-0.498,23.01,348.938,625.732,
00:00:29:417,0.2,0.799,-0.49,58.715,325.073,608.947,
00:00:29:433,0.104,0.728,-0.458,46.081,301.391,525.39,
00:00:29:450,0.064,0.67,-0.492,55.664,312.378,464.05,
00:00:29:467,0.035,0.65,-0.53,36.193,305.603,391.113,
00:00:29:483,0.033,0.697,-0.52,-2.808,299.072,317.077,
00:00:29:500,0.048,0.739,-0.482,63.659,268.432,262.207,
00:00:29:517,0.06,0.769,-0.459,213.501,235.534,221.252,
00:00:29:533,0.068,0.817,-0.408,275.817,175.903,213.806,
00:00:29:550,0.083,0.81,-0.345,311.523,92.102,187.439,
00:00:29:567,0.048,0.705,-0.386,216.552,31.311,193.176,
00:00:29:583,0.01,0.752,-0.493,93.505,-21.668,161.865,
00:00:29:600,0.022,0.907,-0.452,217.163,-125.672,81.97,
00:00:29:617,0.021,0.975,-0.333,622.192,-190.064,-10.376,
00:00:29:633,-0.004,0.863,-0.243,783.996,-188.477,36.743,
00:00:29:650,0.001,0.693,-0.19,537.353,-159.607,95.703,
00:00:29:667,-0.131,0.679,-0.169,-75.562,-68.238,111.45,
00:00:29:683,-0.197,0.787,-0.178,-86.67,-10.743,65.124,
00:00:29:700,-0.219,0.817,-0.256,164.734,50.842,67.993,
00:00:29:717,-0.222,0.946,-0.367,399.353,86.792,81.359,
00:00:29:733,-0.246,1.103,-0.227,591.858,-23.499,140.319,
00:00:29:750,-0.278,0.888,-0.095,572.998,-61.585,91.613,
00:00:29:767,-0.345,0.739,-0.083,344.177,-44.434,50.659,
00:00:29:783,-0.362,0.905,-0.14,119.934,17.028,6.774,
00:00:29:800,-0.335,0.963,-0.19,36.743,20.202,-3.113,
00:00:29:817,-0.321,1.282,-0.175,9.826,7.69,-46.753,
00:00:29:833,-0.285,1.388,-0.13,229.98,-27.405,-36.499,
00:00:29:850,-0.249,1.336,-0.18,334.961,-31.373,31.066,
00:00:29:867,-0.28,1.119,-0.138,305.603,-59.632,49.743,
00:00:29:883,-0.321,0.93,-0.097,127.868,-7.019,14.404,
00:00:29:900,-0.342,0.865,-0.14,-25.94,90.759,2.685,
00:00:29:917,-0.308,0.895,-0.098,39.489,138.672,16.723,
00:00:29:933,-0.279,0.887,-0.016,115.295,134.46,4.455,
00:00:29:950,-0.277,0.935,0.014,96.618,122.558,34.79,
00:00:29:967,-0.268,0.866,-0.049,56.396,27.343,51.635,
00:00:29:983,-0.276,0.907,-0.143,9.704,13.916,74.279,
00:00:30:0,-0.293,0.935,-0.279,76.782,34.851,54.443,
00:00:30:17,-0.298,1.06,-0.316,211.242,42.236,14.221,
00:00:30:33,-0.265,1.042,-0.215,365.966,10.742,-29.175,
00:00:30:50,-0.182,0.974,-0.087,213.684,-1.648,-70.801,
00:00:30:67,-0.146,0.912,-0.01,-65.125,5.065,-71.412,
00:00:30:83,-0.231,0.919,-0.04,-162.415,50.842,-23.56,
00:00:30:100,-0.266,0.952,-0.054,-79.407,71.716,2.929,
00:00:30:117,-0.284,0.973,-0.057,91.491,77.941,22.705,
00:00:30:133,-0.314,0.947,-0.048,194.702,78.186,31.494,
00:00:30:150,-0.324,0.882,-0.027,176.391,97.473,27.16,
00:00:30:167,-0.302,0.831,-0.017,59.57,113.159,8.728,
00:00:30:183,-0.251,0.888,-0.028,-20.997,111.389,-13.123,
00:00:30:200,-0.213,0.93,-0.065,-0.977,104.431,-40.833,
00:00:30:217,-0.2,0.934,-0.09,-38.392,114.441,-57.801,
00:00:30:233,-0.172,1.055,-0.118,-141.846,135.254,-56.946,
00:00:30:250,-0.15,1.045,-0.095,-196.106,118.53,-54.627,
00:00:30:267,-0.162,1.026,-0.098,-239.441,89.111,-45.411,
00:00:30:283,-0.193,1.046,-0.059,-162.72,53.405,-47.425,
00:00:30:300,-0.204,1.018,-0.007,-57.251,58.288,-23.072,
00:00:30:317,-0.192,1.041,-0.032,133.3,46.386,-18.799,
00:00:30:333,-0.187,1.002,-0.022,262.024,16.296,9.399,
00:00:30:350,-0.224,0.833,-0.07,188.11,16.235,-20.264,
00:00:30:367,-0.247,0.699,-0.092,-20.264,9.887,-41.016,
00:00:30:383,-0.278,0.877,-0.174,-256.653,35.034,-59.815,
00:00:30:400,-0.273,1.027,-0.245,-169.678,1.953,-42.115,
00:00:30:417,-0.234,0.999,-0.101,-104.615,-51.575,-8.423,
00:00:30:433,-0.253,1.058,-0.163,67.627,-68.97,20.446,
00:00:30:450,-0.301,0.959,-0.169,94.421,-63.904,39.245,
00:00:30:467,-0.252,0.818,-0.141,-44.922,-72.144,46.447,
00:00:30:483,-0.243,0.865,-0.056,-318.665,-48.584,19.714,
00:00:30:500,-0.174,1.127,0.014,-480.652,-17.273,56.274,
00:00:30:517,-0.23,0.988,-0.204,-512.391,13.794,16.662,
00:00:30:533,-0.216,0.895,-0.216,-346.558,-6.531,-16.236,
00:00:30:550,-0.218,0.818,-0.257,-434.998,2.807,-23.194,
00:00:30:567,-0.223,1.131,-0.2,-82.825,20.813,-37.171,
00:00:30:583,-0.208,1.107,-0.177,232.238,8.789,51.635,
00:00:30:600,-0.255,0.896,-0.341,407.653,7.446,39.611,
00:00:30:617,-0.254,0.723,-0.175,277.221,31.25,32.592,
00:00:30:633,-0.143,0.873,-0.222,-46.021,63.476,-6.226,
00:00:30:650,-0.219,0.897,-0.074,183.105,77.758,-3.479,
00:00:30:667,-0.243,1.096,-0.202,31.86,115.539,11.535,
00:00:30:683,-0.302,1.152,-0.36,143.982,86.547,23.559,
00:00:30:700,-0.332,1.029,-0.264,335.693,72.937,13.61,
00:00:30:717,-0.345,1.126,-0.232,521.606,125.976,63.11,
00:00:30:733,-0.26,0.954,0.045,922.302,-1.526,174.56,
00:00:30:750,-0.321,0.974,0.009,948.852,-25.574,165.405,
00:00:30:767,-0.337,0.933,0.018,1233.947,1.159,120.544,
00:00:30:783,-0.274,0.836,0.286,1636.596,-14.893,111.084,
00:00:30:800,-0.316,0.997,0.274,1699.89,-1.77,117.981,
00:00:30:817,-0.372,0.78,0.487,510.192,-108.887,218.017,
00:00:30:833,-0.408,0.974,0.525,354.004,-53.894,125.793,
00:00:30:850,-0.392,0.99,0.503,446.96,-22.889,204.712,
00:00:30:867,-0.369,0.944,0.51,454.712,-24.842,215.454,
00:00:30:883,-0.39,1.005,0.376,562.622,-12.33,191.65,
00:00:30:900,-0.335,0.513,0.439,649.047,66.528,207.153,
00:00:30:917,-0.318,0.691,0.445,333.862,72.326,223.755,
00:00:30:933,-0.326,0.771,0.403,366.76,51.696,165.832,
00:00:30:950,-0.343,0.716,0.47,230.163,43.823,151.855,
00:00:30:967,-0.334,0.653,0.48,105.957,31.066,82.946,
00:00:30:983,-0.317,0.783,0.5,114.196,34.301,84.411,
00:00:31:0,-0.303,0.84,0.379,225.708,58.532,104.004,
00:00:31:17,-0.316,0.829,0.336,256.897,42.114,179.016,
00:00:31:33,-0.378,0.714,0.274,297.851,45.837,119.384,
00:00:31:50,-0.425,0.595,0.382,336.425,120.3,110.107,
00:00:31:67,-0.418,0.581,0.452,311.096,189.392,67.504,
00:00:31:83,-0.314,0.692,0.538,-817.505,69.336,-9.278,
00:00:31:100,-0.316,0.947,0.351,-734.131,43.029,-21.302,
00:00:31:117,-0.37,1.022,0.339,-13.794,5.249,48.95,
00:00:31:133,-0.409,0.749,0.515,402.832,13.366,43.823,
00:00:31:150,-0.435,0.53,0.603,374.878,50.231,32.409,
00:00:31:167,-0.415,0.469,0.655,147.094,38.208,-14.771,
00:00:31:183,-0.41,0.74,0.516,-294.19,-27.955,-25.574,
00:00:31:200,-0.432,0.87,0.514,-124.085,5.065,-5.555,
00:00:31:217,-0.402,0.928,0.542,109.314,29.968,12.756,
00:00:31:233,-0.364,0.818,0.576,229.736,-14.466,43.151,
00:00:31:250,-0.416,0.693,0.629,90.759,-53.223,57.922,
00:00:31:267,-0.49,0.664,0.612,-41.504,-30.762,25.573,
00:00:31:283,-0.448,0.668,0.613,-121.399,21.545,-19.776,
00:00:31:300,-0.394,0.744,0.584,-48.706,23.742,-20.63,
00:00:31:317,-0.4,0.781,0.6,32.653,4.089,-8.301,
00:00:31:333,-0.455,0.73,0.595,-73.243,-17.029,-6.775,
00:00:31:350,-0.486,0.754,0.556,-195.923,10.192,-27.344,
00:00:31:367,-0.464,0.771,0.543,-162.415,38.818,-18.067,
00:00:31:383,-0.449,0.886,0.556,81.604,47.424,23.071,
00:00:31:400,-0.463,0.975,0.518,724.548,41.992,46.569,
00:00:31:417,-0.41,0.857,0.505,1333.13,21.484,95.886,
00:00:31:433,-0.381,0.551,0.631,1270.935,-57.068,177.49,
00:00:31:450,-0.536,0.483,0.661,940.124,-37.415,146.789,
00:00:31:467,-0.513,0.678,0.732,920.044,31.372,87.646,
00:00:31:483,-0.434,0.704,0.702,1017.089,53.1,54.443,
00:00:31:500,-0.45,0.715,0.73,1149.658,-2.015,77.026,
00:00:31:517,-0.492,0.477,0.735,1139.221,-8.24,95.886,
00:00:31:533,-0.517,0.272,0.846,754.333,-8.728,104.37,
00:00:31:550,-0.46,0.368,0.743,389.77,-7.935,62.072,
00:00:31:567,-0.398,0.434,0.68,272.766,-69.825,44.433,
00:00:31:583,-0.42,0.256,0.751,142.151,-120.423,73.852,
00:00:31:600,-0.435,0.256,0.747,-120.911,-84.839,48.645,
00:00:31:617,-0.417,0.369,0.695,-465.149,-45.96,-10.071,
00:00:31:633,-0.453,0.386,0.687,-825.867,-25.574,-94.483,
00:00:31:650,-0.467,0.397,0.706,-1189.942,19.592,-142.456,
00:00:31:667,-0.455,0.436,0.713,-1619.874,30.944,-189.148,
00:00:31:683,-0.406,0.496,0.623,-1999.451,-45.227,-265.503,
00:00:31:700,-0.412,0.579,0.55,-2000,-56.214,-320.069,
00:00:31:717,-0.404,0.654,0.323,-2000,26.855,-253.663,
00:00:31:733,-0.412,0.864,0.228,-1978.15,54.138,-233.887,
00:00:31:750,-0.383,1.111,0.253,-1292.298,88.562,-151.551,
00:00:31:767,-0.413,0.991,0.312,-680.848,100.769,-110.596,
00:00:31:783,-0.444,0.919,0.354,-407.471,103.393,-25.513,
00:00:31:800,-0.457,0.926,0.412,-185.791,63.598,15.991,
00:00:31:817,-0.423,0.841,0.429,152.71,28.93,12.023,
00:00:31:833,-0.399,0.752,0.383,452.087,-6.165,9.521,
00:00:31:850,-0.403,0.741,0.402,548.156,-30.03,30.09,
00:00:31:867,-0.398,0.67,0.436,535.156,-31.922,45.959,
00:00:31:883,-0.403,0.697,0.422,354.492,-20.569,50.476,
00:00:31:900,-0.384,0.801,0.41,235.29,-17.945,32.775,
00:00:31:917,-0.406,0.88,0.393,206.421,-15.198,1.586,
00:00:31:933,-0.428,0.808,0.417,312.255,-27.771,-15.015,
00:00:31:950,-0.407,0.725,0.48,364.746,-39.917,-9.217,
00:00:31:967,-0.404,0.845,0.482,449.34,-51.636,3.234,
00:00:31:983,-0.437,0.8,0.51,567.077,-45.411,50.903,
00:00:32:0,-0.448,0.697,0.439,539.917,-14.71,41.259,
00:00:32:17,-0.43,0.738,0.4,608.764,-25.147,34.851,
00:00:32:33,-0.407,0.724,0.491,747.009,-36.56,46.691,
00:00:32:50,-0.46,0.62,0.559,648.01,-29.053,57.739,
00:00:32:67,-0.49,0.608,0.557,362.243,-2.198,40.283,
00:00:32:83,-0.474,0.646,0.579,215.271,4.76,34.423,
00:00:32:100,-0.458,0.697,0.62,207.824,-7.752,23.254,
00:00:32:117,-0.46,0.738,0.609,296.142,-9.339,56.335,
00:00:32:133,-0.428,0.706,0.616,456.604,-23.072,99.792,
00:00:32:150,-0.475,0.658,0.61,591.858,19.958,109.863,
00:00:32:167,-0.416,0.619,0.68,668.823,48.645,121.582,
00:00:32:183,-0.45,0.591,0.683,586.181,88.745,140.93,
00:00:32:200,-0.432,0.77,0.6,529.541,116.272,126.342,
00:00:32:217,-0.423,0.72,0.585,692.932,133.178,109.008,
00:00:32:233,-0.439,0.537,0.571,777.771,167.297,151.001,
00:00:32:250,-0.39,0.449,0.637,830.932,129.15,163.025,
00:00:32:267,-0.44,0.355,0.685,735.412,114.38,179.87,
00:00:32:283,-0.462,0.5,0.657,729.98,83.74,164.001,
00:00:32:300,-0.449,0.349,0.76,932.006,111.694,151.489,
00:00:32:317,-0.483,0.26,0.799,916.381,121.704,122.192,
00:00:32:333,-0.445,0.23,0.713,787.109,163.086,49.072,
00:00:32:350,-0.458,0.088,0.685,517.151,189.514,34.24,
00:00:32:367,-0.402,0.19,0.759,187.439,139.221,4.882,
00:00:32:383,-0.442,0.392,0.964,55.908,43.518,44.677,
00:00:32:400,-0.431,0.698,1.086,-143.616,-79.529,12.939,
00:00:32:417,-0.599,0.41,1.058,-293.091,-54.139,-36.988,
00:00:32:433,-0.566,0.405,0.997,-415.162,-66.224,-92.225,
00:00:32:450,-0.573,0.426,0.879,-429.383,-97.962,-151.795,
00:00:32:467,-0.554,0.355,0.878,-432.557,-100.22,-151.795,
00:00:32:483,-0.518,0.33,0.793,-406.373,-77.576,-199.341,
00:00:32:500,-0.476,0.215,0.771,-480.713,-57.923,-210.328,
00:00:32:517,-0.463,0.219,0.783,-614.808,-65.369,-264.222,
00:00:32:533,-0.462,0.407,0.8,-840.394,-30.274,-289.49,
00:00:32:550,-0.389,0.521,0.732,-892.151,-0.061,-281.189,
00:00:32:567,-0.387,0.488,0.692,-895.63,-29.053,-329.468,
00:00:32:583,-0.394,0.607,0.71,-997.193,-37.11,-325.257,
00:00:32:600,-0.403,0.762,0.769,-778.992,-26.551,-331.543,
00:00:32:617,-0.351,0.589,0.794,-485.962,-38.88,-309.876,
00:00:32:633,-0.441,0.768,0.648,-456.91,19.592,-271.912,
00:00:32:650,-0.404,0.683,0.588,-284.852,20.141,-110.962,
00:00:32:667,-0.392,0.672,0.541,-146.18,11.291,-107.178,
00:00:32:683,-0.394,0.668,0.596,19.836,-10.254,-20.081,
00:00:32:700,-0.434,0.68,0.62,133.911,19.409,59.265,
00:00:32:717,-0.409,0.574,0.677,176.147,18.249,136.963,
00:00:32:733,-0.44,0.674,0.719,159.362,22.216,124.206,
00:00:32:750,-0.501,0.792,0.69,285.278,27.465,89.172,
00:00:32:767,-0.473,0.399,0.73,257.812,10.62,97.168,
00:00:32:783,-0.468,0.474,0.736,-82.642,-42.542,23.315,
00:00:32:800,-0.422,0.582,0.692,-182.496,-31.311,7.446,
00:00:32:817,-0.443,0.542,0.738,-241.456,11.413,-2.503,
00:00:32:833,-0.452,0.784,0.706,172.912,42.724,-0.306,
00:00:32:850,-0.432,0.711,0.602,375.793,81.481,35.827,
00:00:32:867,-0.394,0.527,0.662,179.748,76.232,50.231,
00:00:32:883,-0.405,0.516,0.609,38.635,50.964,24.231,
00:00:32:900,-0.4,0.589,0.612,-68.665,61.95,-13.306,
00:00:32:917,-0.382,0.512,0.634,-173.89,61.096,-44.678,
00:00:32:933,-0.399,0.534,0.669,-296.753,45.166,-66.773,
00:00:32:950,-0.401,0.612,0.685,-219.178,42.48,-101.38,
00:00:32:967,-0.41,0.58,0.644,-68.177,47.058,-72.388,
00:00:32:983,-0.426,0.67,0.567,-42.115,38.024,-44.556,
00:00:33:0,-0.441,0.715,0.602,-95.643,31.677,-30.518,
00:00:33:17,-0.437,0.661,0.629,-233.338,28.503,-47.547,
00:00:33:33,-0.435,0.685,0.651,-250.55,28.32,-71.289,
00:00:33:50,-0.413,0.726,0.652,-66.773,10.681,-70.13,
00:00:33:67,-0.405,0.744,0.597,211.609,-14.771,-46.082,
00:00:33:83,-0.406,0.756,0.519,447.143,-4.029,-72.937,
00:00:33:100,-0.412,0.589,0.533,543.335,4.272,-59.449,
00:00:33:117,-0.433,0.53,0.537,336.364,26.672,-46.814,
00:00:33:133,-0.399,0.789,0.549,334.045,46.02,-39.063,
00:00:33:150,-0.393,0.855,0.616,586.181,53.955,37.963,
00:00:33:167,-0.421,0.61,0.673,658.935,73.669,87.829,
00:00:33:183,-0.434,0.551,0.672,117.309,113.403,69.03,
00:00:33:200,-0.391,0.546,0.703,157.287,113.83,74.096,
00:00:33:217,-0.4,0.461,0.753,273.01,98.999,94.238,
00:00:33:233,-0.403,0.386,0.736,391.967,83.068,82.763,
00:00:33:250,-0.412,0.36,0.717,366.638,36.743,91.369,
00:00:33:267,-0.39,0.411,0.827,201.599,-18.433,55.664,
00:00:33:283,-0.407,0.437,0.933,133.422,-25.147,8.422,
00:00:33:300,-0.42,0.399,0.942,93.872,-24.903,-31.25,
00:00:33:317,-0.419,0.447,0.894,145.691,-14.588,-33.387,
00:00:33:334,-0.421,0.436,0.822,217.224,6.897,-25.696,
00:00:33:350,-0.438,0.477,0.809,190.002,28.686,1.037,
00:00:33:367,-0.432,0.415,0.806,-40.833,51.94,23.193,
00:00:33:384,-0.443,0.514,0.88,-313.599,64.025,-15.259,
00:00:33:400,-0.449,0.652,0.882,-193.848,98.083,-8.24,
00:00:33:417,-0.438,0.68,0.797,200.988,91.186,-6.348,
00:00:33:434,-0.442,0.474,0.783,379.943,55.175,36.804,
00:00:33:450,-0.448,0.417,0.755,259.948,97.29,44.494,
00:00:33:467,-0.418,0.472,0.761,245.666,123.84,20.996,
00:00:33:484,-0.396,0.424,0.836,268.432,105.468,14.343,
00:00:33:500,-0.378,0.362,0.828,141.54,88.134,61.279,
00:00:33:517,-0.413,0.483,0.831,89.843,88.562,59.814,
00:00:33:534,-0.415,0.515,0.786,87.463,103.698,83.19,
00:00:33:550,-0.449,0.534,0.712,197.082,142.028,79.406,
00:00:33:567,-0.413,0.456,0.732,310.852,136.474,82.397,
00:00:33:584,-0.423,0.407,0.775,277.282,163.757,104.614,
00:00:33:600,-0.405,0.366,0.793,297.973,140.319,39.978,
00:00:33:617,-0.393,0.26,0.779,315.185,155.7,66.345,
00:00:33:634,-0.39,0.334,0.803,261.23,190.368,54.626,
00:00:33:650,-0.366,0.333,0.795,283.752,198.547,-14.954,
00:00:33:667,-0.306,0.359,0.785,293.151,172.241,-43.946,
00:00:33:684,-0.268,0.348,0.826,312.683,74.523,-57.984,
00:00:33:700,-0.324,0.154,0.723,232.605,36.132,-70.496,
00:00:33:717,-0.347,0.157,0.789,-24.048,24.902,-74.646,
00:00:33:734,-0.373,0.324,0.812,-151.917,46.264,-92.957,
00:00:33:750,-0.318,0.412,0.777,-108.399,19.043,-88.868,
00:00:33:767,-0.322,0.424,0.774,4.028,-47.181,-52.918,
00:00:33:784,-0.401,0.401,0.779,-35.218,-26.246,-46.082,
00:00:33:800,-0.443,0.38,0.8,-82.337,20.996,-38.453,
00:00:33:817,-0.429,0.376,0.904,-135.987,27.099,-14.771,
00:00:33:834,-0.414,0.31,0.904,-203.248,-14.161,-10.01,
00:00:33:850,-0.395,0.283,0.911,-323.853,-60.669,0.122,
00:00:33:867,-0.377,0.394,0.703,-425.049,-92.835,-44.007,
00:00:33:884,-0.376,0.372,0.8,-356.934,-78.431,-60.73,
00:00:33:900,-0.374,0.369,0.807,-359.681,-63.416,-85.999,
00:00:33:917,-0.365,0.463,0.753,-284.913,-63.599,-95.826,
00:00:33:934,-0.369,0.416,0.752,-312.317,-97.413,-109.986,
00:00:33:950,-0.412,0.468,0.775,-472.84,-88.196,-89.417,
00:00:33:967,-0.412,0.435,0.794,-582.093,-67.383,-114.502,
00:00:33:984,-0.392,0.72,0.82,-545.289,-49.927,-113.282,
00:00:34:0,-0.375,0.756,0.981,-92.041,-63.66,-78.125,
00:00:34:17,-0.368,0.463,0.916,174.255,-47.791,6.164,
00:00:34:34,-0.393,0.574,0.898,103.515,-53.284,58.41,
00:00:34:50,-0.393,0.475,0.935,-22.828,-63.599,45.288,
00:00:34:67,-0.398,0.578,0.664,46.814,15.319,22.216,
00:00:34:84,-0.358,0.374,0.682,121.521,35.095,5.065,
00:00:34:100,-0.421,0.349,0.814,-79.407,34.179,-22.889,
00:00:34:117,-0.403,0.537,0.799,-82.459,23.437,-41.932,
00:00:34:134,-0.406,0.517,0.802,3.723,18.371,-24.231,
00:00:34:150,-0.428,0.46,0.782,-6.897,21.789,-5.799,
00:00:34:167,-0.428,0.512,0.736,-25.513,16.967,8.728,
00:00:34:184,-0.413,0.522,0.749,-5.249,25.085,18.31,
00:00:34:200,-0.377,0.507,0.693,35.339,35.461,18.493,
00:00:34:217,-0.302,0.401,0.734,210.388,26.245,-18.006,
00:00:34:234,-0.32,0.269,0.801,103.759,-23.926,-15.015,
00:00:34:250,-0.374,0.418,0.787,-120.545,-35.767,-69.336,
00:00:34:267,-0.448,0.563,0.761,407.47,-30.701,21.728,
00:00:34:284,-0.468,0.433,0.794,154.724,-28.077,66.833,
00:00:34:300,-0.44,0.546,0.765,14.953,-27.649,58.044,
00:00:34:317,-0.416,0.442,0.709,-24.414,-38.514,51.452,
00:00:34:334,-0.409,0.333,0.725,-126.954,-41.443,35.156,
00:00:34:350,-0.416,0.328,0.77,-360.596,-65.491,7.08,
00:00:34:367,-0.419,0.355,0.797,-652.161,-105.957,-24.048,
00:00:34:384,-0.447,0.541,0.855,-817.078,-148.011,-60.914,
00:00:34:400,-0.46,0.641,0.702,-702.393,-143.555,-78.125,
00:00:34:417,-0.409,0.594,0.476,-507.752,-110.84,-87.769,
00:00:34:434,-0.374,0.483,0.541,-366.944,-74.769,-84.412,
00:00:34:450,-0.378,0.532,0.635,-381.47,-22.95,-94.422,
00:00:34:467,-0.356,0.63,0.741,-271.424,-18.982,-96.436,
00:00:34:484,-0.404,0.589,0.724,-231.263,3.601,-83.802,
00:00:34:500,-0.391,0.531,0.689,-244.812,24.658,-98.023,
00:00:34:517,-0.374,0.532,0.623,-330.994,36.682,-131.836,
00:00:34:534,-0.391,0.524,0.587,-393.982,39.917,-164.246,
00:00:34:550,-0.409,0.593,0.532,-428.894,53.405,-157.349,
00:00:34:567,-0.387,0.705,0.483,-396.851,32.287,-157.593,
00:00:34:584,-0.405,0.673,0.559,-399.476,4.333,-160.889,
00:00:34:600,-0.408,0.703,0.542,-504.212,-14.771,-182.618,
00:00:34:617,-0.437,0.791,0.502,-544.983,-23.926,-196.595,
00:00:34:634,-0.395,0.742,0.468,-604.432,-76.966,-197.693,
00:00:34:650,-0.387,0.809,0.425,-616.883,-120.911,-201.477,
00:00:34:667,-0.346,0.801,0.316,-609.436,-173.218,-224.122,
00:00:34:684,-0.402,0.828,0.366,-538.758,-217.286,-325.196,
00:00:34:700,-0.449,0.896,0.472,-493.714,-217.896,-321.9,
00:00:34:717,-0.351,0.702,0.374,-455.75,-100.586,-384.034,
00:00:34:734,-0.32,0.687,0.311,-508.545,-70.496,-425.66,
00:00:34:750,-0.308,0.741,0.273,-315.491,10.986,-401.123,
00:00:34:767,-0.268,0.685,0.308,-59.388,76.843,-381.104,
00:00:34:784,-0.226,0.651,0.362,-114.991,121.582,-369.69,
00:00:34:800,-0.143,0.691,0.405,-344.3,149.78,-325.684,
00:00:34:817,-0.191,0.75,0.235,-652.527,187.378,-330.201,
00:00:34:834,-0.172,0.971,0.247,-858.826,184.753,-379.273,
00:00:34:850,-0.179,0.92,0.286,-791.504,154.907,-414.734,
00:00:34:867,-0.173,0.865,0.28,-775.025,120.239,-493.958,
00:00:34:884,-0.14,0.965,0.362,-735.596,125.915,-521.973,
00:00:34:900,-0.122,0.949,0.357,-818.543,82.458,-583.13,
00:00:34:917,-0.137,0.872,0.426,-994.507,23.559,-635.743,
00:00:34:934,-0.131,0.78,0.411,-1439.026,-41.687,-647.767,
00:00:34:950,-0.115,0.862,0.261,-1850.098,-95.215,-730.652,
00:00:34:967,-0.106,0.949,0.145,-1886.78,-153.016,-757.264,
00:00:34:984,-0.071,0.985,0.136,-1517.09,-231.873,-790.894,
00:00:35:0,0.002,0.78,0.038,-1205.994,-241.15,-764.527,
00:00:35:17,0.092,0.976,-0.062,-936.89,-174.744,-753.846,
00:00:35:34,0.108,1.136,-0.115,-479.187,-91.614,-719.91,
00:00:35:50,0.116,1.398,-0.213,99.365,32.714,-680.359,
00:00:35:67,0.145,1.241,-0.37,463.379,104.431,-677.491,
00:00:35:84,0.093,0.801,-0.225,208.068,116.821,-674.195,
00:00:35:100,0.14,0.865,-0.159,-17.029,221.923,-820.13,
00:00:35:117,0.25,0.658,-0.256,-529.48,25.512,-832.947,
00:00:35:134,0.358,1.165,-0.412,-437.806,-50.354,-734.253,
00:00:35:150,0.39,1.351,-0.283,94.116,-48.645,-652.344,
00:00:35:167,0.298,1.18,-0.484,247.07,23.437,-586.487,
00:00:35:184,0.297,1.069,-0.473,288.147,70.739,-560.486,
00:00:35:200,0.293,0.966,-0.116,-60.364,160.461,-398.682,
00:00:35:217,0.352,1.069,0.014,-412.537,114.624,-386.292,
00:00:35:234,0.39,1.098,-0.01,-668.519,61.096,-372.498,
00:00:35:250,0.44,1.05,-0.158,-703.858,34.729,-350.953,
00:00:35:267,0.474,1.114,-0.303,-559.266,34.79,-261.78,
00:00:35:284,0.468,0.974,-0.394,-137.757,33.386,-110.474,
00:00:35:300,0.485,0.96,-0.392,-68.604,-11.658,-71.351,
00:00:35:317,0.409,0.904,-0.3,-4.212,-0.855,-66.346,
00:00:35:334,0.436,0.803,-0.328,70.495,-2.015,-46.753,
00:00:35:350,0.41,0.754,-0.304,65.124,-13.123,-52.185,
00:00:35:367,0.409,0.687,-0.326,-31.311,16.174,-28.382,
00:00:35:384,0.441,0.815,-0.232,-113.16,3.601,-1.77,
00:00:35:400,0.426,0.85,-0.189,-155.274,-6.653,3.295,
00:00:35:417,0.434,0.769,-0.259,-219.239,-32.41,-26.001,
00:00:35:434,0.421,0.768,-0.29,-307.923,-19.104,-36.194,
00:00:35:450,0.439,0.801,-0.381,-344.788,-4.517,-48.157,
00:00:35:467,0.46,0.786,-0.421,-348.877,-7.752,-44.068,
00:00:35:484,0.408,0.771,-0.382,-357.666,66.711,-48.035,
00:00:35:500,0.397,0.859,-0.372,-282.105,115.539,-9.217,
00:00:35:517,0.358,1.16,-0.501,-245.118,48.767,-45.472,
00:00:35:534,0.563,0.707,-0.248,-74.707,-41.871,-90.21,
00:00:35:550,0.378,0.686,-0.528,-41.932,100.036,21.362,
00:00:35:567,0.496,0.978,-0.485,55.969,115.295,33.996,
00:00:35:584,0.464,0.971,-0.344,361.267,60.424,16.479,
00:00:35:600,0.408,0.708,-0.266,412.536,28.503,21.301,
00:00:35:617,0.404,0.702,-0.282,317.382,27.71,28.198,
00:00:35:634,0.403,0.824,-0.399,211.242,10.437,22.888,
00:00:35:650,0.383,0.853,-0.406,183.227,-5.127,49.011,
00:00:35:667,0.395,0.873,-0.428,263.855,-13.184,17.395,
00:00:35:684,0.433,0.887,-0.36,533.447,-27.527,11.84,
00:00:35:700,0.42,0.797,-0.281,601.684,-38.941,28.686,
00:00:35:717,0.393,0.785,-0.27,495.544,-16.968,-12.94,
00:00:35:734,0.432,0.941,-0.221,459.167,-10.743,58.105,
00:00:35:750,0.444,0.813,-0.247,411.377,-9.095,43.335,
00:00:35:767,0.427,0.827,-0.17,301.88,-19.776,19.592,
00:00:35:784,0.444,0.776,-0.225,282.898,-16.419,21.24,
00:00:35:800,0.436,0.747,-0.212,273.315,2.136,31.738,
00:00:35:817,0.447,0.82,-0.188,199.524,13.732,9.155,
00:00:35:834,0.434,0.804,-0.156,133.545,14.221,8.667,
00:00:35:850,0.462,0.816,-0.161,119.995,-1.404,4.638,
00:00:35:867,0.449,0.787,-0.15,133.667,-26.551,-21.607,
00:00:35:884,0.422,0.75,-0.181,47.302,-28.809,-51.087,
00:00:35:900,0.411,0.78,-0.217,-52.552,-29.541,-66.712,
00:00:35:917,0.418,0.874,-0.19,-96.863,-34.363,-72.388,
00:00:35:934,0.401,0.934,-0.158,-101.258,-40.101,-43.396,
00:00:35:950,0.392,0.994,-0.126,-36.56,-88.318,-17.945,
00:00:35:967,0.378,0.928,-0.2,29.968,-97.901,9.887,
00:00:35:984,0.38,0.936,-0.245,101.44,-99.122,19.531,
00:00:36:0,0.375,0.975,-0.278,223.388,-70.618,61.096,
00:00:36:17,0.382,0.96,-0.273,300.72,-43.763,65.246,
00:00:36:34,0.36,0.905,-0.186,340.149,-17.09,66.772,
00:00:36:50,0.373,0.894,-0.135,367.187,-10.01,56.64,
00:00:36:67,0.384,0.839,-0.09,330.627,-14.161,34.668,
00:00:36:84,0.405,0.833,-0.053,345.398,-38.208,24.597,
00:00:36:100,0.394,0.885,-0.066,357.91,-40.772,36.01,
00:00:36:117,0.398,0.918,-0.063,375.427,-25.33,51.147,
00:00:36:134,0.402,0.884,-0.101,341.552,-3.663,32.653,
00:00:36:150,0.392,0.869,-0.112,316.101,28.503,26.855,
00:00:36:167,0.402,0.864,-0.076,304.382,46.203,3.418,
00:00:36:184,0.404,0.838,0.007,342.041,46.447,8.606,
00:00:36:200,0.41,0.835,0.04,338.195,24.231,5.676,
00:00:36:217,0.411,0.909,0.051,230.529,-15.809,-25.94,
00:00:36:234,0.417,0.894,0.002,135.437,-49.134,-53.467,
00:00:36:250,0.393,0.767,-0.041,48.156,-54.688,-66.346,
00:00:36:267,0.402,0.764,-0.074,-135.376,-37.415,-63.843,
00:00:36:284,0.425,0.859,-0.01,-300.293,-30.396,-38.697,
00:00:36:300,0.391,0.939,-0.027,-343.14,15.93,-61.402,
00:00:36:317,0.381,0.849,0.055,-332.642,17.7,-57.801,
00:00:36:334,0.366,0.723,-0.008,-530.64,54.992,-38.331,
00:00:36:350,0.396,0.713,-0.115,-682.068,45.227,-18.494,
00:00:36:367,0.38,0.737,-0.097,-797.913,39.367,-13.733,
00:00:36:384,0.406,1.042,-0.181,-783.081,26.062,25.085,
00:00:36:400,0.449,1.342,-0.177,-618.164,-41.504,15.136,
00:00:36:417,0.387,0.975,-0.214,-348.145,-86.365,8.544,
00:00:36:434,0.341,0.815,-0.258,-242.859,-54.993,27.587,
00:00:36:450,0.368,0.891,-0.315,-201.294,-28.138,46.142,
00:00:36:467,0.367,0.931,-0.269,-147.767,-27.1,53.588,
00:00:36:484,0.359,0.813,-0.221,-163.392,1.77,3.662,
