TIMECODE,ACC_X,ACC_Y,ACC_Z,GYR_X,GYR_Y,GYR_Z,ECG_I,ECG_II,ECG_III,TAG
,0.084,0.29,0.942,10.131,16.906,-14.649,0,0,0,
,0.069,0.287,0.934,7.934,16.967,-14.466,0,0,0,
,0.078,0.298,0.942,10.07,18.798,-17.212,0,0,0,
,0.09,0.298,0.937,24.231,16.235,-14.222,0,0,0,
,0.11,0.276,0.933,23.315,13.183,-12.391,0,0,0,
,0.117,0.275,0.941,12.023,8.667,-14.588,0,0,0,
,0.109,0.289,0.947,2.136,3.967,-18.86,0,0,0,
,0.096,0.302,0.939,-3.663,4.943,-23.438,0,0,0,
,0.086,0.302,0.943,4.333,9.826,-25.391,0,0,0,
,0.075,0.296,0.941,12.878,11.23,-22.278,0,0,0,
,0.07,0.275,0.945,22.522,12.756,-17.945,0,0,0,
,0.077,0.27,0.967,18.432,11.535,-14.954,0,0,0,
,0.096,0.28,0.95,23.071,12.268,-9.522,0,0,0,
,0.111,0.277,0.954,27.648,13.061,-5.188,0,0,0,
,0.111,0.265,0.942,18.493,14.099,-3.113,0,0,0,
,0.109,0.288,0.947,2.929,12.512,-7.081,0,0,0,
,0.1,0.305,0.941,2.075,12.573,-12.33,0,0,0,
,0.092,0.308,0.946,1.77,15.991,-18.311,0,0,0,
,0.087,0.304,0.946,13.183,20.141,-23.072,0,0,0,
,0.087,0.283,0.941,25.085,22.888,-22.95,0,0,0,
,0.087,0.269,0.945,20.996,17.639,-23.255,0,0,0,
,0.093,0.27,0.944,6.774,12.146,-26.734,0,0,0,
,0.093,0.279,0.927,-3.479,4.272,-28.565,0,0,0,
,0.095,0.299,0.944,1.892,5.371,-30.64,0,0,0,
,0.106,0.286,0.936,23.071,6.591,-25.33,0,0,0,
,0.102,0.267,0.944,18.31,3.356,-24.353,0,0,0,
,0.098,0.282,0.95,-0.55,0.061,-26.551,0,0,0,
,0.089,0.291,0.942,-4.334,-1.404,-25.818,0,0,0,
,0.082,0.28,0.948,8.667,2.99,-22.583,0,0,0,
,0.084,0.276,0.953,10.009,3.662,-20.325,0,0,0,
,0.09,0.28,0.946,0.793,3.356,-21.302,0,0,0,
,0.092,0.28,0.94,-0.367,4.577,-21.302,0,0,0,
,0.092,0.281,0.934,-2.32,1.709,-20.935,0,0,0,
,0.102,0.281,0.945,3.906,4.028,-17.029,0,0,0,
,0.1,0.285,0.957,5.493,9.094,-12.269,0,0,0,
,0.1,0.27,0.947,8.667,14.16,-7.325,0,0,0,
,0.098,0.276,0.945,-1.465,11.657,-7.569,0,0,0,
,0.1,0.304,0.933,-12.085,9.216,-9.949,0,0,0,
,0.089,0.31,0.925,-0.611,6.042,-14.893,0,0,0,
,0.094,0.3,0.939,13.671,5.798,-19.532,0,0,0,
,0.096,0.271,0.94,17.883,1.281,-24.292,0,0,0,
,0.097,0.274,0.954,2.441,0,-28.87,0,0,0,
,0.093,0.289,0.949,3.234,4.211,-28.504,0,0,0,
,0.087,0.285,0.944,12.268,6.469,-24.842,0,0,0,
,0.081,0.28,0.945,15.747,6.897,-22.522,0,0,0,
,0.089,0.281,0.947,14.709,7.446,-21.912,0,0,0,
,0.084,0.291,0.943,7.934,6.347,-23.682,0,0,0,
,0.079,0.292,0.946,10.376,9.887,-22.706,0,0,0,
,0.084,0.283,0.953,14.587,15.686,-20.264,0,0,0,
,0.092,0.26,0.96,21.362,18.31,-15.137,0,0,0,
,0.108,0.256,0.943,12.634,18.676,-13.916,0,0,0,
,0.119,0.275,0.93,-2.93,14.831,-12.94,0,0,0,
,0.113,0.292,0.92,-7.508,5.981,-9.4,0,0,0,
,0.064,0.291,0.928,0.488,-0.916,-8.728,0,0,0,
,0.078,0.294,0.941,-0.123,-5.555,-10.987,0,0,0,
,0.075,0.295,0.943,2.929,-3.113,-16.724,0,0,0,
,0.088,0.288,0.957,-1.343,-5.066,-23.499,0,0,0,
,0.098,0.291,0.937,-14.1,-1.954,-29.236,0,0,0,
,0.105,0.3,0.941,-4.944,3.723,-29.114,0,0,0,
,0.09,0.289,0.948,20.507,11.047,-22.217,0,0,0,
,0.088,0.274,0.964,27.038,20.69,-19.898,0,0,0,
,0.084,0.267,0.952,22.583,24.719,-23.56,0,0,0,
,0.084,0.275,0.947,11.23,23.315,-26.429,0,0,0,
,0.079,0.291,0.935,12.023,22.583,-26.734,0,0,0,
,0.083,0.286,0.942,17.517,20.752,-24.964,0,0,0,
,0.095,0.283,0.942,15.564,18.432,-23.743,0,0,0,
,0.109,0.281,0.936,12.451,15.014,-20.752,0,0,0,
,0.104,0.272,0.934,8.483,11.291,-16.663,0,0,0,
,0.102,0.275,0.943,1.77,9.155,-11.658,0,0,0,
,0.088,0.276,0.947,3.234,8.85,-9.461,0,0,0,
,0.081,0.272,0.947,-2.259,8.789,-9.827,0,0,0,
,0.086,0.287,0.952,-4.456,9.521,-11.902,0,0,0,
,0.096,0.294,0.943,0.366,11.718,-13.367,0,0,0,
,0.095,0.284,0.941,7.141,15.197,-10.987,0,0,0,
,0.099,0.286,0.947,8.422,16.357,-9.095,0,0,0,
,0.102,0.293,0.939,5.249,18.188,-11.597,0,0,0,
,0.101,0.287,0.934,10.864,16.113,-12.146,0,0,0,
,0.104,0.284,0.936,5.798,14.343,-16.907,0,0,0,
,0.09,0.284,0.942,5.065,12.451,-20.325,0,0,0,
,0.088,0.282,0.946,7.69,13.366,-20.02,0,0,0,
,0.088,0.311,0.947,6.897,12.329,-19.898,0,0,0,
,0.091,0.273,0.943,9.643,13.122,-17.579,0,0,0,
,0.101,0.285,0.94,-0.123,11.901,-17.701,0,0,0,
,0.098,0.291,0.933,2.99,12.573,-12.269,0,0,0,
,0.098,0.285,0.939,7.507,11.657,-12.085,0,0,0,
,0.091,0.285,0.942,7.446,11.047,-15.87,0,0,0,
,0.098,0.292,0.962,2.868,11.779,-15.625,0,0,0,
,0.098,0.274,0.944,-4.7,-1.587,-21.79,0,0,0,
,0.087,0.269,0.953,-5.372,10.864,-17.212,0,0,0,
,0.1,0.286,0.944,-1.709,16.601,-20.447,0,0,0,
,0.097,0.294,0.934,8.178,20.996,-15.015,0,0,0,
,0.1,0.284,0.946,4.272,16.967,-12.207,0,0,0,
,0.085,0.272,0.939,-2.869,16.357,-14.466,0,0,0,
,0.101,0.287,0.937,-0.977,16.54,-14.466,0,0,0,
,0.098,0.294,0.933,-1.77,15.258,-13.245,0,0,0,
,0.1,0.285,0.94,3.112,15.869,-14.405,0,0,0,
,0.097,0.278,0.947,2.075,10.498,-14.222,0,0,0,
,0.099,0.286,0.943,-1.221,8.544,-14.283,0,0,0,
,0.105,0.292,0.944,15.319,11.962,-12.757,0,0,0,
,0.101,0.286,0.936,2.807,9.704,-12.879,0,0,0,
,0.097,0.29,0.939,0.549,9.46,-10.926,0,0,0,
,0.123,0.289,0.946,1.159,7.69,-11.658,0,0,0,
,0.1,0.299,0.937,1.77,7.324,-15.198,0,0,0,
,0.095,0.298,0.947,3.906,9.521,-19.898,0,0,0,
,0.092,0.284,0.952,10.498,9.094,-20.569,0,0,0,
,0.098,0.287,0.942,4.455,8.544,-23.133,0,0,0,
,0.102,0.292,0.935,4.699,5.798,-22.461,0,0,0,
,0.099,0.287,0.93,4.15,1.77,-20.935,0,0,0,
,0.101,0.298,0.907,2.502,1.77,-25.757,0,0,0,
,0.093,0.296,0.951,6.897,1.586,-25.879,0,0,0,
,0.088,0.29,0.947,11.901,5.432,-29.175,0,0,0,
,0.091,0.284,0.952,15.564,7.568,-26.856,0,0,0,
,0.097,0.279,0.944,15.502,9.399,-26.062,0,0,0,
,0.098,0.282,0.934,13.671,8.117,-24.537,0,0,0,
,0.101,0.291,0.935,9.765,6.225,-23.682,0,0,0,
,0.095,0.289,0.937,15.014,3.906,-20.874,0,0,0,
,0.09,0.283,0.945,10.986,6.286,-19.959,0,0,0,
,0.093,0.282,0.936,7.446,1.892,-19.959,0,0,0,
,0.091,0.295,0.949,0.915,2.38,-20.874,0,0,0,
,0.094,0.293,0.947,9.46,6.347,-20.63,0,0,0,
,0.099,0.282,0.947,10.559,11.413,-21.363,0,0,0,
,0.096,0.287,0.95,13.61,14.648,-21.668,0,0,0,
,0.089,0.284,0.943,16.784,15.808,-19.349,0,0,0,
,0.094,0.287,0.948,18.493,18.737,-20.691,0,0,0,
,0.097,0.287,0.943,18.371,17.15,-20.569,0,0,0,
,0.098,0.287,0.934,9.033,12.939,-24.476,0,0,0,
,0.094,0.287,0.966,6.774,8.3,-25.33,0,0,0,
,0.098,0.294,0.939,6.897,6.103,-27.283,0,0,0,
,0.096,0.289,0.944,12.634,7.324,-27.344,0,0,0,
,0.099,0.274,0.949,12.451,8.483,-28.138,0,0,0,
,0.101,0.277,0.945,7.751,9.765,-27.039,0,0,0,
,0.098,0.282,0.949,6.591,10.131,-27.1,0,0,0,
,0.093,0.281,0.943,11.108,12.085,-23.072,0,0,0,
,0.09,0.285,0.943,11.352,10.925,-22.95,0,0,0,
,0.097,0.289,0.938,9.582,7.69,-24.109,0,0,0,
,0.098,0.285,0.942,7.385,6.286,-27.527,0,0,0,
,0.099,0.283,0.944,12.207,7.873,-27.649,0,0,0,
,0.096,0.273,0.948,13.122,8.85,-24.842,0,0,0,
,0.1,0.282,0.933,3.356,7.446,-25.818,0,0,0,
,0.096,0.296,0.941,1.831,5.371,-27.588,0,0,0,
,0.096,0.296,0.937,9.826,7.446,-30.396,0,0,0,
,0.09,0.27,0.954,17.761,11.047,-29.114,0,0,0,
,0.09,0.269,0.953,9.155,13.916,-28.626,0,0,0,
,0.097,0.279,0.951,8.85,16.845,-25.696,0,0,0,
,0.1,0.284,0.938,5.676,18.188,-24.109,0,0,0,
,0.103,0.285,0.906,8.85,14.221,-22.95,0,0,0,
,0.102,0.283,0.938,15.319,12.939,-22.95,0,0,0,
,0.103,0.276,0.943,13.488,12.878,-19.471,0,0,0,
,0.1,0.284,0.943,6.408,11.047,-21.79,0,0,0,
,0.097,0.291,0.943,4.638,11.901,-23.804,0,0,0,
,0.097,0.286,0.937,12.634,13.794,-21.79,0,0,0,
,0.097,0.283,0.946,14.709,15.625,-23.377,0,0,0,
,0.093,0.28,0.952,21.667,22.949,-21.668,0,0,0,
,0.101,0.275,0.954,29.663,28.076,-18.067,0,0,0,
,0.099,0.267,0.956,30.761,32.47,-15.503,0,0,0,
,0.109,0.274,0.948,21.24,34.79,-13.001,0,0,0,
,0.104,0.273,0.942,21.362,32.714,-14.649,0,0,0,
,0.102,0.283,0.938,15.808,30.883,-14.344,0,0,0,
,0.093,0.288,0.95,24.536,33.569,-12.391,0,0,0,
,0.095,0.293,0.966,37.414,46.691,-8.179,0,0,0,
,0.097,0.289,0.978,71.838,73.364,2.319,0,0,0,
,0.106,0.294,1.04,132.873,132.629,15.93,0,0,0,
,0.134,0.32,1.102,224.121,241.821,4.699,0,0,0,
,0.145,0.395,1.269,340.515,366.638,-19.654,0,0,0,
,0.09,0.578,1.252,714.843,448.486,12.878,0,0,0,
,0.135,0.391,1.267,1106.323,549.926,159.973,0,0,0,
,0.32,0.241,1.545,1237.976,527.771,272.522,0,0,0,
,0.371,0.259,1.566,1547.363,484.375,323.547,0,0,0,
,0.28,0.065,1.492,1671.936,443.237,355.713,0,0,0,
,0.278,0.007,1.642,1529.052,458.679,376.098,0,0,0,
,0.308,-0.049,1.607,1379.394,480.774,370.3,0,0,0,
,0.351,0.216,1.876,389.343,319.58,442.382,0,0,0,
,0.394,0.119,1.785,-65.125,470.52,528.564,0,0,0,
,0.536,0.185,1.81,-613.526,661.682,766.296,0,0,0,
,0.997,0.025,2.138,-964.173,676.513,737.487,0,0,0,
,1.929,-0.117,1.939,-755.188,231.506,1252.319,0,0,0,
,0.932,-1.616,0.436,-2000,-2000,1999.694,0,0,0,
,0.339,0.475,-1.114,-2000,-2000,1999.694,0,0,0,
,0.157,1.038,-1.666,-2000,-2000,1999.694,0,0,0,
,0.278,3.357,0.053,-2000,-2000,1999.694,0,0,0,
,-0.062,-3.278,0.609,-79.102,-1303.833,1999.694,0,0,0,
,-0.006,-1.455,-1.331,-1273.621,1044.372,392.456,0,0,0,
,0.901,-0.844,-0.572,1120.422,1506.591,-1215.516,0,0,0,
,1.522,-2.291,-0.255,1999.694,657.409,-1779.297,0,0,0,
,1.154,-2.504,0.335,1465.21,84.594,-1421.021,0,0,0,
,0.64,-1.744,0.367,-187.073,9.399,-1329.773,0,0,0,
,0.492,-0.754,0.302,-1117.005,218.444,-1341.309,0,0,0,
,0.403,-0.063,0.082,-890.381,34.423,-1437.867,0,0,0,
,0.183,0.273,0.126,-519.349,-344.91,-1616.7,0,0,0,
,-0.095,0.856,0.155,-262.879,-594.666,-1827.027,0,0,0,
,-0.393,1.352,0.408,-226.38,-743.897,-1902.894,0,0,0,
,-0.488,2.157,0.584,-131.47,-555.603,-1901.246,0,0,0,
,-0.396,3.027,0.481,-207.703,-170.533,-1784.119,0,0,0,
,-0.202,3.199,0.485,-276.368,-40.833,-1268.067,0,0,0,
,-0.155,3,0.376,-421.082,-149.109,-737.61,0,0,0,
,-0.253,2.631,0.259,-499.268,-304.261,-254.029,0,0,0,
,-0.378,2.31,0.224,-436.524,-271.851,39.367,0,0,0,
,-0.432,1.912,0.208,-248.047,-124.573,116.027,0,0,0,
,-0.383,1.522,0.293,-64.209,54.565,26.367,0,0,0,
,-0.286,1.331,0.38,149.17,166.259,-84.29,0,0,0,
,-0.21,1.213,0.433,353.515,140.869,-146.912,0,0,0,
,-0.16,1.113,0.459,485.962,90.881,-209.656,0,0,0,
,-0.125,0.979,0.501,517.028,72.692,-237.61,0,0,0,
,-0.089,0.867,0.455,427.551,114.563,-251.77,0,0,0,
,-0.046,0.882,0.422,360.229,117.553,-227.906,0,0,0,
,-0.01,0.946,0.422,321.106,52.551,-196.351,0,0,0,
,-0.022,1.01,0.428,360.29,-72.327,-155.884,0,0,0,
,-0.077,0.946,0.413,346.618,-157.532,-128.54,0,0,0,
,-0.134,0.805,0.39,291.198,-172.791,-133.545,0,0,0,
,-0.133,0.905,0.396,133.85,-103.272,-114.685,0,0,0,
,-0.114,1.006,0.346,145.996,-25.208,-104.31,0,0,0,
,-0.089,1.017,0.351,263.549,-37.537,-110.901,0,0,0,
,-0.089,1.041,0.416,403.564,-87.891,-108.155,0,0,0,
,-0.115,0.966,0.386,493.652,-86.914,-106.446,0,0,0,
,-0.14,0.914,0.369,574.463,-59.876,-97.168,0,0,0,
,-0.141,0.835,0.404,574.585,-15.442,-110.84,0,0,0,
,-0.121,0.791,0.441,516.967,26.184,-115.479,0,0,0,
,-0.087,0.765,0.479,343.017,57.251,-127.686,0,0,0,
,-0.051,0.807,0.457,158.935,78.552,-107.239,0,0,0,
,-0.032,0.848,0.428,57.678,46.569,-84.534,0,0,0,
,-0.022,0.901,0.418,38.513,0,-48.951,0,0,0,
,-0.028,0.898,0.409,50.293,-24.048,-31.25,0,0,0,
,-0.026,0.869,0.42,39.306,-30.396,-17.273,0,0,0,
,-0.032,0.862,0.436,2.868,-21.668,3.845,0,0,0,
,-0.042,0.867,0.445,-25.818,-18.494,13.061,0,0,0,
,-0.053,0.884,0.448,-13.55,-12.696,25.512,0,0,0,
,-0.065,0.897,0.472,28.686,-8.606,21.484,0,0,0,
,-0.068,0.911,0.465,104.98,23.01,5.493,0,0,0,
,-0.05,0.92,0.447,166.137,54.565,-10.376,0,0,0,
,-0.026,0.903,0.46,258.911,62.927,-35.828,0,0,0,
,-0.025,0.893,0.46,331.359,46.264,-28.321,0,0,0,
,-0.031,0.853,0.509,389.16,-4.334,-13.977,0,0,0,
,-0.052,0.799,0.511,363.403,-60.486,10.986,0,0,0,
,-0.077,0.768,0.561,281.616,-91.492,26.123,0,0,0,
,-0.094,0.728,0.549,186.645,-99.793,26.977,0,0,0,
,-0.103,0.737,0.554,176.147,-113.099,61.889,0,0,0,
,-0.103,0.759,0.673,151.306,-140.87,89.599,0,0,0,
,-0.115,0.776,0.687,5.31,-167.359,143.676,0,0,0,
,-0.147,0.809,0.538,-20.813,-187.256,209.35,0,0,0,
,-0.188,0.838,0.369,261.657,-179.81,301.208,0,0,0,
,-0.211,0.786,0.258,661.071,-118.47,356.201,0,0,0,
,-0.213,0.881,0.315,1031.738,-30.64,471.008,0,0,0,
,-0.105,0.896,0.604,1119.384,-53.467,417.541,0,0,0,
,-0.025,0.65,0.908,846.801,-52.613,249.389,0,0,0,
,0.077,0.559,0.728,588.379,-291.321,453.918,0,0,0,
,0.313,0.75,0.66,749.511,-1292.115,864.746,0,0,0,
,-0.523,0.885,1.005,1313.964,-1100.831,859.314,0,0,0,
,-0.435,0.435,1.201,1485.778,-1101.319,703.308,0,0,0,
,-0.572,0.344,1.211,1291.809,-755.249,626.159,0,0,0,
,-0.558,0.475,0.952,1269.287,-359.864,515.869,0,0,0,
,-0.486,0.479,0.681,1412.536,-124.939,460.632,0,0,0,
,-0.482,0.296,0.612,1471.74,4.455,463.317,0,0,0,
,-0.472,0.262,0.607,1235.901,92.773,440.49,0,0,0,
,-0.494,0.161,0.712,1098.999,135.559,386.963,0,0,0,
,-0.504,0.109,0.828,982.483,220.642,302.307,0,0,0,
,-0.526,0.04,0.856,897.583,290.039,226.196,0,0,0,
,-0.503,0.027,0.866,725.036,350.402,99.792,0,0,0,
,-0.464,-0.007,0.912,556.579,404.48,21.179,0,0,0,
,-0.454,-0.058,0.877,443.847,379.821,5.859,0,0,0,
,-0.426,-0.023,0.953,450.195,279.602,44.799,0,0,0,
,-0.471,0.047,1.028,423.828,206.054,52.612,0,0,0,
,-0.481,0.027,1.083,394.348,280.212,8.728,0,0,0,
,-0.488,0.012,1.026,391.54,321.899,-61.524,0,0,0,
,-0.501,-0.035,1.001,359.68,312.378,-100.586,0,0,0,
,-0.462,0.001,1.036,320.434,292.907,-135.376,0,0,0,
,-0.482,0.002,1.076,359.558,306.762,-195.679,0,0,0,
,-0.418,-0.271,0.987,-2.686,218.75,-77.21,0,0,0,
,-0.395,-0.166,1.016,-67.505,178.711,14.038,0,0,0,
,-0.371,-0.109,1.033,49.987,174.926,67.443,0,0,0,
,-0.358,-0.151,0.993,205.2,141.052,120.178,0,0,0,
,-0.379,-0.251,0.93,179.931,122.253,149.047,0,0,0,
,-0.358,-0.395,0.837,-760.071,288.574,154.724,0,0,0,
,-0.282,-0.259,0.83,-1003.357,346.069,141.845,0,0,0,
,-0.216,-0.14,0.727,-1018.921,398.681,134.643,0,0,0,
,-0.111,0,0.754,-870.362,445.861,35.156,0,0,0,
,0.099,0.116,0.994,-489.747,284.912,-71.595,0,0,0,
,0.104,0.079,0.917,-468.934,117.614,-43.946,0,0,0,
,0.094,0.091,1.003,-543.274,-7.019,-0.489,0,0,0,
,0.035,0.288,0.846,-711.914,51.147,3.295,0,0,0,
,0.026,0.314,0.842,-636.048,28.747,-147.278,0,0,0,
,0.024,0.377,1.025,-474.549,-4.639,-155.884,0,0,0,
,-0.002,0.354,1.034,-411.866,-13.184,-91.37,0,0,0,
,-0.066,0.315,0.923,-383.179,-25.147,-23.56,0,0,0,
,-0.123,0.332,0.855,-379.578,-3.479,2.624,0,0,0,
,-0.139,0.421,0.758,-243.531,73.852,-16.358,0,0,0,
,-0.117,0.39,0.797,52.063,181.457,-57.862,0,0,0,
,-0.087,0.326,0.987,291.198,185.669,-75.135,0,0,0,
,-0.088,0.375,0.923,273.376,194.275,-18.616,0,0,0,
,-0.123,0.45,0.842,419.799,120.483,4.272,0,0,0,
,-0.131,0.533,0.905,741.943,99.06,56.091,0,0,0,
,-0.119,0.457,0.919,868.164,208.191,117.492,0,0,0,
,-0.081,0.288,0.903,639.404,327.331,150.634,0,0,0,
,-0.042,0.178,0.921,408.874,268.005,133.484,0,0,0,
,-0.038,0.121,0.943,355.59,163.94,139.831,0,0,0,
,-0.071,-0.016,0.91,256.164,71.411,145.568,0,0,0,
,-0.091,0.111,0.919,-142.518,95.459,-2.381,0,0,0,
,-0.07,0.095,0.933,-164.978,111.267,-28.748,0,0,0,
,-0.049,0.03,1.136,-285.584,136.718,-56.885,0,0,0,
,0.014,0.119,1.056,-564.331,202.026,-28.565,0,0,0,
,0.016,0.232,0.939,-628.724,151.855,-53.894,0,0,0,
,-0.023,0.343,0.978,-229.432,76.538,59.57,0,0,0,
,-0.048,0.255,0.885,-130.616,94.36,39.123,0,0,0,
,-0.038,0.286,0.869,-65.003,125,31.799,0,0,0,
,0.002,0.343,0.879,33.63,143.554,6.042,0,0,0,
,0.03,0.34,0.931,235.534,119.751,-42.42,0,0,0,
,0.033,0.309,1.011,497.314,60.058,-128.418,0,0,0,
,0.016,0.185,1.015,777.954,1.648,-197.937,0,0,0,
,0.009,0.055,1.007,905.761,-70.923,-237.61,0,0,0,
,-0.03,-0.015,1.075,715.332,-2.32,-150.696,0,0,0,
,-0.075,-0.094,0.926,366.882,66.284,-175.599,0,0,0,
,-0.015,-0.019,1.115,115.051,137.024,-191.04,0,0,0,
,-0.031,0.057,1.101,-186.951,162.475,-121.216,0,0,0,
,-0.034,0.38,1.109,-258.118,45.166,-92.408,0,0,0,
,-0.105,0.484,0.973,-5.86,-46.57,28.625,0,0,0,
,-0.291,0.145,0.832,470.459,16.967,137.146,0,0,0,
,-0.285,0.03,0.837,416.626,115.173,116.394,0,0,0,
,-0.242,0.017,0.877,233.642,164.062,108.154,0,0,0,
,-0.197,0.078,0.882,43.335,194.58,173.095,0,0,0,
,-0.179,0.134,0.809,66.223,159.729,170.654,0,0,0,
,-0.145,0.172,0.904,120.178,157.348,138.549,0,0,0,
,-0.094,0.145,0.946,208.923,266.418,85.205,0,0,0,
,-0.032,0.062,0.952,369.751,382.934,75.805,0,0,0,
,0.037,-0.062,0.909,494.384,438.842,67.81,0,0,0,
,0.096,-0.2,0.824,436.889,459.289,61.157,0,0,0,
,0.175,-0.19,0.885,287.353,454.345,71.533,0,0,0,
,0.238,-0.187,0.923,157.47,441.223,88.317,0,0,0,
,0.261,-0.091,1.025,66.589,321.106,134.704,0,0,0,
,0.301,-0.11,1.158,88.501,263.794,41.748,0,0,0,
,0.354,-0.086,1.179,-120.423,275.451,98.938,0,0,0,
,0.363,-0.047,1.153,-295.227,203.491,36.743,0,0,0,
,0.395,0.046,1.167,-294.312,171.692,63.842,0,0,0,
,0.445,-0.073,1.156,-105.408,52.429,-80.018,0,0,0,
,0.458,-0.173,1.15,10.009,-99.671,-74.83,0,0,0,
,0.277,-0.031,1.092,39.184,-170.533,-70.496,0,0,0,
,0.156,0.121,1.088,290.893,-75.013,-165.467,0,0,0,
,0.218,0.121,1.054,739.441,102.844,-297.364,0,0,0,
,0.288,-0.057,0.958,1165.1,93.2,-413.331,0,0,0,
,0.319,-0.393,0.867,1344.787,-77.088,-521.18,0,0,0,
,0.24,-0.619,0.929,1146.179,-225.342,-479.004,0,0,0,
,0.126,-0.585,1.055,764.953,-154.114,-344.971,0,0,0,
,0.1,-0.471,1.18,418.213,35.949,-348.816,0,0,0,
,0.157,-0.345,1.053,135.498,291.931,-361.145,0,0,0,
,0.22,-0.259,0.814,-47.974,396.667,-321.351,0,0,0,
,0.304,-0.165,0.846,-16.236,315.612,-252.015,0,0,0,
,0.352,-0.196,0.888,-58.655,188.842,-205.811,0,0,0,
,0.309,-0.152,0.881,-156.556,117.736,-120.545,0,0,0,
,0.223,-0.128,0.955,-179.749,7.385,-79.407,0,0,0,
,0.146,-0.071,0.964,-263.123,-7.019,11.23,0,0,0,
,0.091,-0.076,0.884,-266.053,61.889,-9.522,0,0,0,
,0.077,-0.176,0.902,-262.452,89.965,8.483,0,0,0,
,0.044,-0.19,0.878,-333.252,83.923,95.031,0,0,0,
,-0.009,-0.158,0.884,-306.641,36.254,127.075,0,0,0,
,-0.046,-0.143,0.887,-303.467,80.139,136.413,0,0,0,
,-0.036,-0.182,0.862,-316.59,151.733,107.788,0,0,0,
,0.018,-0.183,0.946,-387.33,166.748,100.891,0,0,0,
,0.078,-0.155,0.984,-441.956,154.907,97.229,0,0,0,
,0.099,-0.2,0.967,-487.305,60.302,110.717,0,0,0,
,0.084,-0.171,1,-606.995,11.23,126.464,0,0,0,
,0.067,-0.072,0.981,-705.384,23.01,166.076,0,0,0,
,0.068,-0.022,0.896,-729.371,76.049,159.607,0,0,0,
,0.084,0.03,0.832,-745.667,81.604,173.584,0,0,0,
,0.101,0.015,0.847,-786.438,46.63,190.918,0,0,0,
,0.088,0.103,0.859,-832.215,57.617,237.487,0,0,0,
,0.138,0.165,0.883,-772.034,85.754,207.946,0,0,0,
,0.164,0.17,0.866,-676.026,120.056,148.01,0,0,0,
,0.204,0.238,0.851,-600.464,91.247,162.109,0,0,0,
,0.237,0.284,0.805,-464.539,93.689,123.779,0,0,0,
,0.257,0.262,0.769,-266.48,63.171,93.261,0,0,0,
,0.248,0.179,0.805,-143.677,44.494,74.401,0,0,0,
,0.282,0.195,0.922,-122.315,50.231,55.419,0,0,0,
,0.323,0.247,0.97,-115.235,128.234,26.001,0,0,0,
,0.364,0.263,0.961,-27.771,149.231,-16.114,0,0,0,
,0.399,0.251,1.052,158.264,95.642,-57.984,0,0,0,
,0.408,0.337,1.117,393.371,82.214,-49.195,0,0,0,
,0.406,0.335,1.059,765.197,49.865,-107.422,0,0,0,
,0.451,0.074,1.106,989.441,-41.199,-269.532,0,0,0,
,0.454,-0.09,1.083,948.364,-88.013,-239.197,0,0,0,
,0.41,-0.123,1.048,787.597,-166.504,-315.735,0,0,0,
,0.323,-0.069,0.99,735.412,-227.478,-270.264,0,0,0,
,0.211,-0.128,0.88,819.275,-272.767,-349.732,0,0,0,
,0.173,-0.322,0.88,740.051,-274.659,-479.981,0,0,0,
,0.14,-0.289,0.84,447.937,-228.699,-389.832,0,0,0,
,0.101,-0.051,0.823,269.836,-172.425,-316.224,0,0,0,
,0.073,0.03,0.852,462.89,-192.994,-394.837,0,0,0,
,0.087,-0.115,0.973,595.703,-213.318,-431.58,0,0,0,
,0.071,-0.193,0.987,416.504,-172.059,-347.718,0,0,0,
,0.058,-0.156,0.957,219.299,-96.619,-322.754,0,0,0,
,0.063,-0.031,0.876,124.694,-33.081,-257.996,0,0,0,
,0.077,0.064,0.783,169.494,-49.378,-241.822,0,0,0,
,0.075,-0.02,0.814,347.778,-99.915,-230.042,0,0,0,
,0.082,-0.154,1.042,395.019,-172.059,-228.394,0,0,0,
,0.07,-0.202,1.095,109.619,-131.348,-59.144,0,0,0,
,0.042,-0.12,0.997,-201.111,-8.362,14.404,0,0,0,
,0.06,-0.134,0.877,-419.373,147.277,37.048,0,0,0,
,0.147,0.05,0.844,-546.082,213.989,144.897,0,0,0,
,0.176,-0.051,0.788,-417.115,245.3,76.965,0,0,0,
,0.265,-0.09,0.98,-392.64,85.998,198.974,0,0,0,
,0.258,-0.028,1.123,-313.05,42.541,283.142,0,0,0,
,0.268,-0.162,1.161,-220.643,108.581,275.512,0,0,0,
,0.308,-0.335,1.177,-306.153,178.833,270.141,0,0,0,
,0.35,-0.307,1.264,-489.991,195.251,319.519,0,0,0,
,0.385,-0.22,1.274,-554.749,210.449,262.695,0,0,0,
,0.431,-0.2,1.426,-538.514,114.99,128.662,0,0,0,
,0.416,-0.291,1.453,-482.178,-6.226,75.744,0,0,0,
,0.313,-0.372,1.324,-575.318,-165.101,-53.345,0,0,0,
,0.142,-0.227,1.083,-693.238,-301.941,-158.326,0,0,0,
,-0.02,0.187,0.909,-571.045,-530.518,-159.119,0,0,0,
,-0.105,0.418,0.775,-43.335,-745.911,-244.141,0,0,0,
,-0.243,0.314,0.726,398.376,-797.059,-399.72,0,0,0,
,-0.349,0.178,0.588,393.982,-747.986,-456.482,0,0,0,
,-0.387,0.174,0.562,318.969,-625.672,-307.007,0,0,0,
,-0.328,0.18,0.63,242.553,-183.716,-250.245,0,0,0,
,-0.113,0.172,0.672,87.158,278.259,-180.97,0,0,0,
,0.138,0.24,0.881,2.746,517.578,-11.719,0,0,0,
,0.31,0.208,0.939,56.213,668.945,131.836,0,0,0,
,0.474,-0.035,1.011,53.772,583.984,190.307,0,0,0,
,0.578,-0.171,1.146,-57.435,330.383,308.838,0,0,0,
,0.513,-0.159,1.369,-154.175,130.31,305.42,0,0,0,
,0.448,-0.21,1.546,-216.187,33.264,232.177,0,0,0,
,0.395,-0.356,1.529,-339.478,-8.118,128.234,0,0,0,
,0.297,-0.332,1.37,-522.583,-119.873,53.772,0,0,0,
,0.078,-0.122,1.033,-506.409,-322.022,-12.269,0,0,0,
,-0.094,0.092,0.765,-323.304,-642.212,-96.131,0,0,0,
,-0.232,0.297,0.762,-2.991,-833.985,-189.515,0,0,0,
,-0.398,0.364,0.71,324.707,-732.789,-268.006,0,0,0,
,-0.462,0.26,0.646,485.595,-485.474,-354.432,0,0,0,
,-0.412,0.142,0.59,418.151,-168.213,-303.101,0,0,0,
,-0.249,0.135,0.624,178.039,142.151,-240.723,0,0,0,
,-0.056,0.337,0.718,-77.454,288.269,-73.365,0,0,0,
,0.095,0.497,0.848,-55.664,336.547,81.481,0,0,0,
,0.236,0.334,0.968,123.047,492.675,137.268,0,0,0,
,0.398,0.042,1.154,85.449,579.834,171.936,0,0,0,
,0.557,-0.147,1.256,-188.965,543.64,255.676,0,0,0,
,0.659,-0.172,1.305,-353.15,307.678,360.717,0,0,0,
,0.555,-0.198,1.288,-311.402,16.052,298.217,0,0,0,
,0.369,-0.336,1.334,-231.507,-224.549,177.063,0,0,0,
,0.2,-0.36,1.354,-234.681,-282.776,86.425,0,0,0,
,0.015,-0.192,1.127,-245.362,-347.596,-3.724,0,0,0,
,-0.205,-0.073,0.898,-103.577,-561.89,-203.736,0,0,0,
,-0.381,0.036,0.76,65.734,-746.277,-324.524,0,0,0,
,-0.563,0.171,0.683,171.081,-744.69,-412.171,0,0,0,
,-0.652,0.283,0.718,173.584,-421.814,-436.158,0,0,0,
,-0.511,0.429,0.612,97.106,127.014,-406.434,0,0,0,
,-0.144,0.66,0.749,227.478,434.692,-250.977,0,0,0,
,0.114,0.726,0.931,448.486,517.761,-46.875,0,0,0,
,0.28,0.42,1.058,564.636,549.011,9.826,0,0,0,
,0.403,0.09,1.081,431.091,549.804,125.976,0,0,0,
,0.485,-0.077,1.103,125.122,520.568,235.229,0,0,0,
,0.546,-0.214,1.167,-81.971,354.126,265.197,0,0,0,
,0.551,-0.269,1.155,-146.363,110.473,325.744,0,0,0,
,0.397,-0.324,1.152,-112.122,-147.4,260.131,0,0,0,
,0.229,-0.462,1.195,-133.423,-297.181,94.787,0,0,0,
,-0.018,-0.409,1.079,-302.002,-460.389,19.348,0,0,0,
,-0.192,-0.21,1.018,-389.649,-589.356,-84.412,0,0,0,
,-0.313,-0.021,1.059,-300.904,-461.67,-174.561,0,0,0,
,-0.326,0.177,1.134,-103.821,-161.744,-269.959,0,0,0,
,-0.193,0.229,1.059,68.542,186.34,-331.482,0,0,0,
,-0.038,0.138,0.961,170.044,285.644,-370.423,0,0,0,
,0.059,0.1,0.91,125,135.986,-291.016,0,0,0,
,0.07,0.229,0.937,108.764,-93.323,-194.519,0,0,0,
,-0.004,0.325,0.94,247.741,-257.752,-156.128,0,0,0,
,-0.108,0.268,0.929,430.725,-285.035,-145.63,0,0,0,
,-0.213,0.071,0.997,435.302,-198.426,-156.311,0,0,0,
,-0.199,0.193,1.023,299.804,-105.713,-40.955,0,0,0,
,-0.219,0.139,0.91,459.594,5.249,-135.132,0,0,0,
,-0.185,0.081,0.907,444.885,44.494,-119.019,0,0,0,
,-0.14,0.003,0.901,443.542,104.736,-92.469,0,0,0,
,-0.126,0.046,0.917,262.207,96.557,-10.56,0,0,0,
,-0.101,0.292,0.891,270.202,89.965,39.245,0,0,0,
,-0.079,0.247,0.88,514.953,143.127,20.141,0,0,0,
,-0.045,0.013,0.904,621.948,181.579,23.01,0,0,0,
,0.033,-0.04,0.966,581.787,150.024,56.518,0,0,0,
,-0.004,-0.223,0.989,462.585,41.809,-7.325,0,0,0,
,0.015,-0.309,0.939,359.253,85.754,-22.461,0,0,0,
,0.056,-0.277,0.909,267.151,89.477,-11.963,0,0,0,
,0.12,-0.295,1.054,230.224,61.157,-35.767,0,0,0,
,0.137,-0.36,1.025,27.221,48.156,-16.48,0,0,0,
,0.143,-0.221,0.982,-217.774,20.385,42.358,0,0,0,
,0.146,-0.105,1.008,-270.325,51.147,61.828,0,0,0,
,0.202,-0.116,0.961,-372.254,163.33,198.974,0,0,0,
,0.188,0.013,0.892,-250.123,133.178,260.559,0,0,0,
,0.183,-0.022,0.922,-66.834,102.905,276.55,0,0,0,
,0.205,-0.099,1.005,-52.43,113.952,263.916,0,0,0,
,0.227,-0.176,1.039,-162.232,164.734,238.22,0,0,0,
,0.259,-0.186,1.068,-273.987,169.616,250.366,0,0,0,
,0.281,-0.14,1.012,-280.823,151.245,307.617,0,0,0,
,0.265,-0.116,0.945,-212.098,84.472,342.651,0,0,0,
,0.249,-0.176,0.977,-231.385,28.442,386.779,0,0,0,
,0.219,-0.128,1.001,-320.374,29.907,432.373,0,0,0,
,0.208,-0.037,1.057,-303.284,32.531,400.817,0,0,0,
,0.196,-0.027,1.077,-178.223,54.931,362.426,0,0,0,
,0.186,-0.01,1.057,-80.323,71.716,347.412,0,0,0,
,0.169,-0.041,1.049,-13.489,59.509,303.466,0,0,0,
,0.146,-0.084,1.042,16.235,34.057,284.24,0,0,0,
,0.12,-0.116,1.058,7.263,24.536,280.944,0,0,0,
,0.113,-0.138,1.071,-57.007,70.373,257.568,0,0,0,
,0.117,-0.098,1.078,-152.832,119.934,205.444,0,0,0,
,0.133,-0.032,1.1,-177.735,78.552,176.086,0,0,0,
,0.132,0.002,1.096,-120.85,63.537,193.054,0,0,0,
,0.118,0.025,1.063,-53.894,68.603,226.257,0,0,0,
,0.117,0.045,1.002,-7.142,105.774,192.932,0,0,0,
,0.118,0.023,0.963,-9.888,122.558,187.194,0,0,0,
,0.114,0.153,0.934,51.635,127.319,250.305,0,0,0,
,0.082,0.134,0.852,235.717,174.804,209.961,0,0,0,
,0.109,0.073,0.83,391.784,182.861,188.903,0,0,0,
,0.138,0.06,0.905,500.305,100.83,219.726,0,0,0,
,0.06,0.012,0.914,606.262,41.381,225.219,0,0,0,
,0.034,-0.043,0.886,653.808,126.464,198.913,0,0,0,
,0.074,-0.07,0.86,700.866,150.634,204.101,0,0,0,
,0.077,-0.094,0.822,784.179,102.722,202.942,0,0,0,
,0.1,-0.183,0.804,892.761,54.687,222.046,0,0,0,
,0.104,-0.299,0.839,938.537,-26.123,237.671,0,0,0,
,0.077,-0.447,0.909,867.981,-96.863,237.121,0,0,0,
,0.045,-0.604,0.927,581.359,-107.727,224.365,0,0,0,
,0.009,-0.477,0.822,244.995,-44.495,242.37,0,0,0,
,0.035,-0.079,0.726,319.397,0.183,250.732,0,0,0,
,0.074,-0.203,0.668,622.863,-52.918,50.048,0,0,0,
,0.076,-0.362,0.709,716.674,-135.743,62.805,0,0,0,
,0.05,-0.392,0.72,750.122,-93.934,165.161,0,0,0,
,0.066,-0.572,0.819,848.755,4.15,106.567,0,0,0,
,0.183,-0.381,0.813,1049.804,199.89,104.675,0,0,0,
,0.245,-0.8,0.847,1384.338,109.008,-162.72,0,0,0,
,0.307,-1.093,0.992,960.754,146.179,-192.566,0,0,0,
,0.251,-0.842,1.074,381.103,49.377,-91.37,0,0,0,
,0.285,-0.313,0.912,200.927,23.498,-99.854,0,0,0,
,0.277,-0.411,0.709,517.517,100.402,-178.467,0,0,0,
,0.256,-0.666,0.704,657.653,61.035,-235.779,0,0,0,
,0.25,-0.689,0.716,562.194,74.157,-172.913,0,0,0,
,0.244,-0.642,0.787,521.301,88.195,-123.841,0,0,0,
,0.246,-0.557,0.814,546.386,113.891,-100.464,0,0,0,
,0.251,-0.657,0.802,524.414,182.861,-147.461,0,0,0,
,0.259,-0.699,0.721,401.672,256.958,-228.76,0,0,0,
,0.294,-0.675,0.648,360.107,259.887,-227.967,0,0,0,
,0.292,-0.66,0.633,425.171,197.204,-211.304,0,0,0,
,0.282,-0.673,0.734,481.628,134.887,-179.139,0,0,0,
,0.26,-0.777,0.726,417.602,136.901,-181.092,0,0,0,
,0.244,-0.806,0.682,249.817,176.452,-208.558,0,0,0,
,0.227,-0.722,0.652,115.173,211.364,-239.747,0,0,0,
,0.228,-0.643,0.628,172.485,217.285,-250.794,0,0,0,
,0.213,-0.738,0.572,318.176,183.899,-217.102,0,0,0,
,0.224,-0.813,0.612,343.017,205.078,-192.872,0,0,0,
,0.255,-0.798,0.704,223.571,274.231,-181.092,0,0,0,
,0.266,-0.929,0.702,173.706,296.875,-294.495,0,0,0,
,0.28,-0.885,0.675,-13.733,321.777,-234.436,0,0,0,
,0.272,-0.755,0.621,-27.649,267.089,-219.361,0,0,0,
,0.266,-0.749,0.638,46.997,239.257,-199.646,0,0,0,
,0.245,-0.82,0.619,113.098,214.721,-188.233,0,0,0,
,0.238,-0.855,0.673,81.115,265.014,-171.814,0,0,0,
,0.235,-0.821,0.686,-23.194,292.785,-182.435,0,0,0,
,0.257,-0.798,0.661,-48.829,322.082,-174.561,0,0,0,
,0.28,-0.767,0.687,9.948,304.016,-160.157,0,0,0,
,0.286,-0.795,0.687,-16.907,271.057,-154.908,0,0,0,
,0.287,-0.75,0.734,-69.642,239.38,-118.47,0,0,0,
,0.285,-0.741,0.747,-87.525,226.379,-108.094,0,0,0,
,0.278,-0.782,0.733,-96.985,232.666,-96.985,0,0,0,
,0.269,-0.767,0.709,-124.329,228.576,-60.059,0,0,0,
,0.265,-0.756,0.666,-115.296,183.776,-17.151,0,0,0,
,0.25,-0.763,0.7,-144.898,138.549,33.63,0,0,0,
,0.222,-0.779,0.729,-177.674,112.854,62.011,0,0,0,
,0.225,-0.728,0.753,-293.58,127.075,52.49,0,0,0,
,0.227,-0.767,0.761,-365.479,125.854,52.429,0,0,0,
,0.236,-0.708,0.716,-464.173,140.136,74.218,0,0,0,
,0.223,-0.709,0.682,-500.611,129.089,99.609,0,0,0,
,0.23,-0.719,0.609,-521.668,153.869,114.99,0,0,0,
,0.254,-0.749,0.643,-573.182,136.901,156.921,0,0,0,
,0.267,-0.728,0.676,-633.057,119.751,153.259,0,0,0,
,0.284,-0.743,0.714,-699.463,86.731,107.36,0,0,0,
,0.289,-0.789,0.727,-776.917,119.567,71.838,0,0,0,
,0.315,-0.807,0.661,-874.756,110.351,42.358,0,0,0,
,0.316,-0.772,0.64,-1043.519,56.884,54.382,0,0,0,
,0.315,-0.663,0.668,-1131.47,10.986,51.94,0,0,0,
,0.346,-0.631,0.727,-1117.371,-7.691,-11.597,0,0,0,
,0.402,-0.707,0.706,-1143.494,-9.644,-66.59,0,0,0,
,0.437,-0.708,0.645,-1275.025,-82.886,-83.863,0,0,0,
,0.363,-0.575,0.625,-1475.892,-192.139,-65.552,0,0,0,
,0.26,-0.325,0.664,-1554.322,-220.581,-37.842,0,0,0,
,0.208,-0.066,0.699,-1462.281,-171.814,-99.183,0,0,0,
,0.22,0.073,0.742,-1214.051,-134.339,-161.438,0,0,0,
,0.297,0.098,0.807,-828.797,-220.459,-212.281,0,0,0,
,0.255,-0.068,0.819,-577.637,-427.124,-238.038,0,0,0,
,0.096,0.061,0.912,-653.321,-560.181,-265.076,0,0,0,
,0.042,0.234,0.991,-392.945,-392.884,-239.075,0,0,0,
,0.116,0.183,0.961,-93.201,-244.935,-309.815,0,0,0,
,0.189,0.164,0.856,97.778,-292.481,-275.513,0,0,0,
,0.148,0.032,0.812,340.149,-399.659,-325.074,0,0,0,
,0.039,-0.105,0.813,451.599,-435.975,-357.911,0,0,0,
,-0.05,-0.2,0.842,321.655,-398.072,-362.427,0,0,0,
,-0.098,-0.151,0.886,70.251,-305.176,-292.664,0,0,0,
,-0.099,0.005,0.806,-25.94,-128.235,-249.451,0,0,0,
,-0.048,-0.049,0.82,28.259,5.188,-255.249,0,0,0,
,0.1,0.005,0.901,27.771,61.584,-216.858,0,0,0,
,0.185,-0.185,1.049,120.361,-112.488,-275.33,0,0,0,
,0.144,-0.032,1.237,-58.533,-270.264,-61.341,0,0,0,
,0.085,0.135,1.118,78.369,-102.662,-29.847,0,0,0,
,0.145,-0.052,1.065,127.746,81.909,-28.443,0,0,0,
,0.214,-0.127,1.111,15.441,64.086,46.081,0,0,0,
,0.205,-0.155,1.094,-56.641,18.432,131.408,0,0,0,
,0.2,-0.177,1.157,-62.867,-47.303,173.156,0,0,0,
,0.151,-0.257,1.207,-127.32,-133.118,180.786,0,0,0,
,0.078,-0.372,1.154,-342.469,-126.343,147.705,0,0,0,
,0.031,-0.394,1.163,-502.32,-75.501,127.807,0,0,0,
,0.038,-0.193,1.182,-538.575,-13.916,132.568,0,0,0,
,0.072,-0.157,1.199,-387.207,2.136,7.812,0,0,0,
,0.073,-0.293,1.197,-313.721,1.464,-66.04,0,0,0,
,0.052,-0.169,1.075,-341.553,-150.818,-112.732,0,0,0,
,0.004,-0.008,1.045,-175.721,-333.191,-151.246,0,0,0,
,-0.237,0.078,1.028,182.006,-521.241,-197.144,0,0,0,
,-0.265,0.27,0.912,205.749,-348.023,-139.954,0,0,0,
,-0.323,-0.029,0.783,433.471,-24.476,-344.727,0,0,0,
,-0.214,-0.123,0.696,295.471,191.65,-195.13,0,0,0,
,-0.053,-0.052,0.702,114.38,272.583,-155.945,0,0,0,
,0.054,0.137,1.009,41.015,164.123,-53.223,0,0,0,
,0.092,0.248,1.013,230.285,127.258,57.861,0,0,0,
,0.09,0.04,1.072,427.429,98.449,49.621,0,0,0,
,0.065,-0.134,1.124,267.334,123.596,110.534,0,0,0,
,0.075,-0.126,1.014,5.615,103.21,142.456,0,0,0,
,0.07,-0.002,0.924,-39.368,62.377,142.028,0,0,0,
,0.043,-0.071,0.999,170.532,65.551,154.113,0,0,0,
,0.022,-0.181,1.036,249.633,96.313,156.372,0,0,0,
,0.026,-0.27,1.09,208.984,106.567,135.254,0,0,0,
,0.015,-0.351,1.057,38.757,104.309,126.953,0,0,0,
,-0.009,-0.374,1.091,-186.402,94.543,104.431,0,0,0,
,0.002,-0.301,1.122,-394.471,115.783,108.215,0,0,0,
,0.029,-0.233,1.015,-504.7,132.446,121.093,0,0,0,
,0.043,-0.176,0.959,-572.51,123.352,121.276,0,0,0,
,0.068,-0.058,0.982,-619.629,133.239,144.287,0,0,0,
,0.114,0.071,0.997,-592.408,187.988,142.761,0,0,0,
,0.15,0.061,0.975,-499.878,281.189,118.225,0,0,0,
,0.196,0.043,1.03,-379.151,298.278,104.797,0,0,0,
,0.232,-0.011,1.05,-333.008,236.938,138.183,0,0,0,
,0.235,-0.026,1.029,-406.922,133.911,175.903,0,0,0,
,0.203,0.022,1.01,-492.188,55.725,182.129,0,0,0,
,0.161,0.063,1.028,-540.589,23.071,163.208,0,0,0,
,0.133,0.121,1.036,-562.439,46.386,129.699,0,0,0,
,0.133,0.17,1.048,-544.739,85.022,80.871,0,0,0,
,0.138,0.195,1.029,-446.412,132.568,71.777,0,0,0,
,0.148,0.203,1.083,-355.835,125.732,29.968,0,0,0,
,0.161,0.175,1.085,-338.807,94.482,34.484,0,0,0,
,0.141,0.146,1.015,-353.089,57.556,34.606,0,0,0,
,0.122,0.097,0.972,-395.63,30.456,26.855,0,0,0,
,0.12,0.172,0.972,-491.15,26.367,29.541,0,0,0,
,0.123,0.237,0.961,-507.386,22.766,-4.029,0,0,0,
,0.127,0.28,0.948,-426.758,6.347,-32.654,0,0,0,
,0.128,0.285,0.933,-344.727,-22.034,-30.884,0,0,0,
,0.122,0.272,0.869,-290.65,-62.439,-18.494,0,0,0,
,0.1,0.25,0.842,-342.408,-112.61,-20.081,0,0,0,
,0.099,0.3,0.904,-418.519,-129.883,7.995,0,0,0,
,0.097,0.39,0.874,-426.88,-85.633,8.667,0,0,0,
,0.105,0.416,0.845,-299.622,-55.237,-9.156,0,0,0,
,0.102,0.389,0.833,-156.311,-97.413,-34.485,0,0,0,
,0.083,0.353,0.839,-128.357,-129.334,-18.982,0,0,0,
,0.054,0.37,0.881,-77.759,-153.748,-20.874,0,0,0,
,0.029,0.411,0.909,-41.871,-130.31,-4.883,0,0,0,
,0.019,0.453,0.885,-43.824,-69.764,1.953,0,0,0,
,0.006,0.473,0.811,98.571,0.183,1.159,0,0,0,
,-0.01,0.452,0.731,297.18,22.583,-30.335,0,0,0,
,-0.017,0.424,0.705,423.889,49.316,-33.753,0,0,0,
,-0.024,0.414,0.694,488.525,114.563,-16.114,0,0,0,
,-0.007,0.431,0.709,543.701,214.782,-14.71,0,0,0,
,0.026,0.416,0.732,663.757,318.786,-48.035,0,0,0,
,0.065,0.358,0.839,786.377,333.74,-74.219,0,0,0,
,0.106,0.274,0.869,873.23,317.443,-47.852,0,0,0,
,0.137,0.134,0.91,854.187,255.615,-42.847,0,0,0,
,0.156,0.099,0.94,695.739,212.341,-12.452,0,0,0,
,0.184,0.182,0.995,566.223,184.326,-6.836,0,0,0,
,0.165,0.157,1.112,713.806,85.266,-90.516,0,0,0,
,0.195,0.106,1.09,778.625,45.105,-35.828,0,0,0,
,0.191,0.048,0.994,846.862,42.846,-63.843,0,0,0,
,0.206,0.019,0.994,896.179,25.695,-84.961,0,0,0,
,0.202,-0.085,1.037,930.481,-11.048,-98.999,0,0,0,
,0.207,-0.123,1.108,905.151,-31.678,-67.2,0,0,0,
,0.2,-0.082,1.079,1021.423,-10.926,-76.294,0,0,0,
,0.218,-0.129,0.92,1218.994,-6.714,-137.391,0,0,0,
,0.23,-0.336,0.928,1336.731,-12.024,-128.052,0,0,0,
,0.232,-0.462,0.934,1217.712,30.517,-114.685,0,0,0,
,0.223,-0.492,0.9,931.335,39.733,-123.719,0,0,0,
,0.214,-0.422,0.865,831.665,30.944,-130.188,0,0,0,
,0.234,-0.414,0.982,965.698,69.397,-150.025,0,0,0,
,0.235,-0.499,0.975,884.704,119.934,-163.88,0,0,0,
,0.238,-0.416,0.931,729.614,102.661,-160.34,0,0,0,
,0.261,-0.415,0.915,721.008,104.797,-188.05,0,0,0,
,0.273,-0.496,0.89,783.386,79.406,-187.928,0,0,0,
,0.277,-0.664,0.954,800.537,53.466,-164.673,0,0,0,
,0.256,-0.769,1.006,602.111,38.391,-142.151,0,0,0,
,0.252,-0.621,0.953,347.351,-18.25,-122.986,0,0,0,
,0.251,-0.482,0.951,328.857,-56.641,-127.869,0,0,0,
,0.226,-0.52,0.964,430.847,-84.717,-133.973,0,0,0,
,0.179,-0.686,0.889,380.615,-86.792,-151.551,0,0,0,
,0.142,-0.77,0.822,197.143,-75.745,-157.715,0,0,0,
,0.13,-0.729,0.852,67.321,-62.317,-133.24,0,0,0,
,0.111,-0.686,0.814,26.001,-55.603,-107.178,0,0,0,
,0.112,-0.682,0.82,-6.958,-20.997,-82.459,0,0,0,
,0.123,-0.603,0.835,-159.546,12.268,-82.154,0,0,0,
,0.154,-0.473,0.807,-230.652,12.207,-28.626,0,0,0,
,0.141,-0.396,0.718,-58.655,-12.513,-6.653,0,0,0,
,0.094,-0.569,0.774,62.622,-4.944,-0.123,0,0,0,
,0.029,-0.775,0.738,-131.592,46.508,38.574,0,0,0,
,0.054,-0.711,0.773,-476.502,149.902,66.711,0,0,0,
,0.112,-0.57,0.829,-591.858,195.678,71.533,0,0,0,
,0.165,-0.472,0.784,-598.877,179.077,44.616,0,0,0,
,0.16,-0.54,0.771,-571.9,113.952,27.465,0,0,0,
,0.129,-0.65,0.792,-730.591,64.819,55.481,0,0,0,
,0.124,-0.589,0.796,-923.89,87.341,108.215,0,0,0,
,0.148,-0.445,0.819,-1067.749,112.976,126.587,0,0,0,
,0.178,-0.293,0.775,-1113.831,120.483,152.343,0,0,0,
,0.188,-0.248,0.738,-1084.961,109.863,108.398,0,0,0,
,0.185,-0.275,0.736,-1106.873,96.13,123.23,0,0,0,
,0.185,-0.229,0.683,-1180.726,125,157.837,0,0,0,
,0.196,-0.152,0.713,-1232.972,123.474,163.879,0,0,0,
,0.21,-0.03,0.782,-1242.981,81.726,188.476,0,0,0,
,0.199,0.078,0.795,-1180.97,61.767,242.004,0,0,0,
,0.204,0.133,0.827,-1064.026,98.144,210.449,0,0,0,
,0.234,0.132,0.834,-885.987,151.245,182.8,0,0,0,
,0.283,0.081,0.91,-705.628,121.948,127.868,0,0,0,
,0.3,0.087,0.993,-583.802,18.859,153.32,0,0,0,
,0.279,0.11,1.041,-516.541,-41.016,141.479,0,0,0,
,0.255,0.098,1.04,-494.568,-25.269,129.76,0,0,0,
,0.287,0.129,1.089,-449.646,20.141,99.304,0,0,0,
,0.338,0.142,0.938,-273.804,-74.707,92.895,0,0,0,
,0.288,0.207,0.95,-180.664,-164.917,114.074,0,0,0,
,0.23,0.431,1.044,65.002,-224.366,76.355,0,0,0,
,0.165,0.389,1.008,465.271,-190.979,35.766,0,0,0,
,0.15,0.029,1.01,654.663,-173.462,-109.498,0,0,0,
,0.129,-0.179,1.025,423.828,-183.228,-127.32,0,0,0,
,0.035,0.184,1.125,304.26,-296.021,-157.471,0,0,0,
,0.014,0.073,1.079,475.891,-236.145,-258.179,0,0,0,
,0.003,-0.131,1.044,473.999,-226.319,-360.596,0,0,0,
,0.01,-0.203,1.03,241.516,-226.197,-320.74,0,0,0,
,0.01,-0.038,0.998,49.987,-230.469,-262.696,0,0,0,
,-0.027,0.101,0.849,291.442,-210.938,-300.965,0,0,0,
,-0.05,0.043,0.9,331.054,-174.256,-313.477,0,0,0,
,-0.044,0.035,0.908,354.553,-112.183,-285.706,0,0,0,
,-0.035,-0.039,0.871,357.91,-28.931,-302.857,0,0,0,
,-0.006,-0.053,0.903,297.729,9.765,-262.818,0,0,0,
,0.027,0.026,0.931,244.445,58.105,-202.454,0,0,0,
,0.052,0.027,0.971,238.769,87.646,-190.552,0,0,0,
,0.105,0.017,1.104,-211.792,36.01,-38.88,0,0,0,
,0.093,-0.011,1.088,-217.408,86.181,-0.061,0,0,0,
,0.109,-0.028,1,-221.68,143.188,26.001,0,0,0,
,0.147,-0.027,0.98,-253.663,163.452,43.09,0,0,0,
,0.162,0.031,0.948,-312.684,110.962,102.966,0,0,0,
,0.157,0.033,1.05,-292.054,58.471,83.618,0,0,0,
,0.154,0.031,1.14,-337.22,50.598,133.606,0,0,0,
,0.158,0.091,1.114,-306.519,104.919,166.809,0,0,0,
,0.325,-0.031,1.103,-88.99,159.179,215.881,0,0,0,
,0.327,-0.011,1.098,-110.169,37.963,261.169,0,0,0,
,0.269,-0.033,1.086,-185.425,-82.581,300.842,0,0,0,
,0.181,0.001,1.076,-267.151,-126.648,307.861,0,0,0,
,0.113,0.078,1.047,-249.573,-68.543,316.284,0,0,0,
,0.098,0.095,1.045,-178.589,51.147,272.766,0,0,0,
,0.143,0.049,1.096,-216.248,162.841,217.895,0,0,0,
,0.158,0.078,1.06,-309.632,131.713,230.651,0,0,0,
,0.151,0.097,1.04,-343.018,93.505,214.355,0,0,0,
,0.133,0.073,1.074,-402.1,38.208,190.185,0,0,0,
,0.094,0.267,1.08,-425.965,162.902,155.944,0,0,0,
,0.129,0.275,1.001,-322.388,201.965,86.792,0,0,0,
,0.185,0.23,0.894,-198.06,132.141,106.506,0,0,0,
,0.192,0.256,0.862,-49.561,-5.005,134.155,0,0,0,
,0.065,0.228,0.897,223.571,-26.49,28.991,0,0,0,
,0.058,0.227,0.946,280.761,6.408,-16.846,0,0,0,
,0.062,0.277,0.97,357.727,50.415,-33.875,0,0,0,
,0.059,0.208,0.929,542.297,64.27,-89.173,0,0,0,
,0.06,0.087,0.852,636.352,70.678,-135.437,0,0,0,
,0.068,0.145,0.83,642.578,33.569,-166.932,0,0,0,
,0.018,-0.023,0.874,1133.972,-44.007,-329.59,0,0,0,
,-0.007,-0.067,0.846,1087.829,-3.052,-353.089,0,0,0,
,-0.011,-0.123,0.781,1067.199,41.931,-365.723,0,0,0,
,-0.015,-0.146,0.724,1076.049,82.702,-391.663,0,0,0,
,0.028,-0.205,0.729,1101.135,119.934,-414.978,0,0,0,
,0.127,-0.506,0.871,867.187,-47.181,-398.011,0,0,0,
,0.085,-0.462,0.971,594.97,31.616,-274.048,0,0,0,
,0.19,-0.353,1.104,366.699,127.014,-241.028,0,0,0,
,0.318,-0.284,1.007,378.967,106.384,-226.807,0,0,0,
,0.321,-0.466,0.894,369.506,-107.544,-253.54,0,0,0,
,0.207,-0.477,0.965,227.966,-268.189,-148.56,0,0,0,
,0.125,-0.41,1.022,46.936,-294.861,-64.576,0,0,0,
,0.047,-0.306,1.045,-122.376,-209.229,-48.401,0,0,0,
,0.032,-0.307,0.88,-160.95,45.227,-75.501,0,0,0,
,0.11,-0.367,0.841,-164.551,156.128,-86.914,0,0,0,
,0.182,-0.418,0.781,-246.033,162.902,-31.128,0,0,0,
,0.202,-0.517,0.775,-326.477,57.312,-33.02,0,0,0,
,0.187,-0.451,0.91,-523.682,-63.233,33.081,0,0,0,
,0.176,-0.345,0.974,-696.412,-82.154,122.68,0,0,0,
,0.13,-0.364,0.991,-953.37,-18.738,96.374,0,0,0,
,0.128,-0.303,0.93,-1239.075,99.487,139.587,0,0,0,
,0.187,-0.073,0.939,-1341.37,220.642,205.322,0,0,0,
,0.249,0.095,1,-1248.841,257.751,271.85,0,0,0,
,0.322,0.171,1.084,-1073.365,255.493,281.128,0,0,0,
,0.363,0.112,1.168,-884.095,187.072,269.836,0,0,0,
,0.358,0.097,1.154,-786.255,87.89,316.345,0,0,0,
,0.301,0.092,1.08,-702.332,40.405,348.144,0,0,0,
,0.235,0.092,1.048,-612.488,4.516,361.572,0,0,0,
,0.205,0.115,1.095,-481.934,-11.475,335.754,0,0,0,
,0.182,0.104,1.197,-401.429,-6.287,319.458,0,0,0,
,0.173,0.148,1.257,-425.782,47.119,315.49,0,0,0,
,0.176,0.097,1.182,-561.097,167.175,255.432,0,0,0,
,0.196,0.074,1.101,-689.026,163.879,229.37,0,0,0,
,0.205,0.149,1.08,-692.994,37.048,257.324,0,0,0,
,0.154,0.235,1.026,-616.7,-49.622,230.957,0,0,0,
,0.077,0.284,1.001,-446.778,-82.398,159.79,0,0,0,
,0.029,0.319,0.973,-230.957,-56.519,134.033,0,0,0,
,0.01,0.3,0.912,-2.564,8.117,28.93,0,0,0,
,0.022,0.193,0.817,288.208,74.646,-88.074,0,0,0,
,0.043,0.191,0.781,391.967,73.547,-131.653,0,0,0,
,0.047,0.169,0.797,450.927,36.56,-187.5,0,0,0,
,0,0.192,0.793,537.719,45.715,-217.469,0,0,0,
,0.049,0.174,0.828,644.409,56.884,-281.678,0,0,0,
,0.092,0.142,0.821,770.202,88.317,-323.365,0,0,0,
,0.154,0.108,0.856,865.173,37.658,-351.502,0,0,0,
,0.135,0.175,0.903,940.857,18.676,-378.968,0,0,0,
,0.166,0.039,0.942,1072.448,-17.762,-435.059,0,0,0,
,0.177,-0.079,0.965,1069.458,-77.149,-408.448,0,0,0,
,0.152,-0.088,0.986,989.685,-122.254,-390.259,0,0,0,
,0.114,-0.125,0.992,955.871,-121.582,-406.495,0,0,0,
,0.081,-0.149,0.879,936.218,-88.868,-400.025,0,0,0,
,0.053,-0.26,0.807,902.038,-84.717,-414.734,0,0,0,
,0.022,-0.34,0.804,798.156,-57.679,-384.644,0,0,0,
,0.077,-0.341,0.811,662.719,22.399,-358.765,0,0,0,
,0.102,-0.44,0.835,489.99,-80.994,-341.553,0,0,0,
,0.065,-0.248,0.896,276.794,-23.987,-204.468,0,0,0,
,0.13,-0.103,0.979,322.631,49.499,-183.838,0,0,0,
,0.197,-0.167,0.93,480.896,28.259,-228.76,0,0,0,
,0.178,-0.365,0.824,468.505,-89.6,-222.474,0,0,0,
,0.112,-0.463,0.803,282.776,-180.664,-141.175,0,0,0,
,0.07,-0.446,0.964,-46.082,-180.42,-45.838,0,0,0,
,0.062,-0.379,1.097,-431.397,-21.912,25.878,0,0,0,
,0.12,-0.191,1.052,-673.462,224.243,80.566,0,0,0,
,0.222,-0.125,0.955,-626.221,363.769,74.035,0,0,0,
,0.297,-0.198,0.839,-466.797,320.8,121.887,0,0,0,
,0.304,-0.238,0.827,-450.257,113.342,230.285,0,0,0,
,0.261,-0.229,0.935,-514.222,-16.175,279.846,0,0,0,
,0.211,-0.23,1.055,-683.228,-54.566,284.057,0,0,0,
,0.187,-0.157,1.055,-849.122,34.729,308.41,0,0,0,
,0.204,-0.125,1.057,-953.492,149.414,301.818,0,0,0,
,0.249,-0.078,1.041,-970.337,241.699,301.757,0,0,0,
,0.292,-0.072,1.111,-927.552,237.182,326.355,0,0,0,
,0.318,-0.009,1.182,-953.064,148.01,371.46,0,0,0,
,0.327,0.094,1.204,-941.895,100.952,355.957,0,0,0,
,0.314,0.108,1.144,-859.131,103.698,306.335,0,0,0,
,0.283,0.108,1.086,-699.402,63.659,280.395,0,0,0,
,0.244,0.068,1.107,-509.949,-24.414,268.737,0,0,0,
,0.198,0.019,1.15,-484.07,-83.619,285.339,0,0,0,
,0.165,0.066,1.126,-650.147,-57.679,312.927,0,0,0,
,0.113,0.122,1.056,-825.44,18.127,233.093,0,0,0,
,0.119,0.212,1.051,-901.185,103.759,133.728,0,0,0,
,0.138,0.374,0.997,-774.842,116.394,179.687,0,0,0,
,0.156,0.439,0.977,-479.859,27.526,127.746,0,0,0,
,0.139,0.318,1.036,-259.095,-133.301,28.015,0,0,0,
,0.067,0.29,1.031,-192.383,-192.139,51.452,0,0,0,
,0.016,0.29,1.013,-163.269,-181.885,-7.325,0,0,0,
,0.002,0.308,0.917,-123.841,-91.37,-89.051,0,0,0,
,0.029,0.346,0.87,-55.726,-3.663,-152.649,0,0,0,
,0.069,0.384,0.815,66.772,23.01,-233.521,0,0,0,
,0.077,0.51,0.751,265.442,-51.941,-219.056,0,0,0,
,0.061,0.552,0.716,694.213,-102.234,-249.756,0,0,0,
,0.04,0.42,0.771,1049.072,-95.826,-386.78,0,0,0,
,0.06,0.161,0.818,1203.125,-49.744,-433.167,0,0,0,
,0.077,0.199,0.908,1105.774,-48.645,-390.381,0,0,0,
,0.084,0.16,0.953,1059.326,-50.782,-395.447,0,0,0,
,0.093,0.1,0.958,1050.598,-40.345,-377.808,0,0,0,
,0.106,0.093,0.971,999.45,-53.223,-352.173,0,0,0,
,0.113,0.095,0.979,973.205,-58.838,-356.629,0,0,0,
,0.106,0.048,0.899,1053.466,-61.646,-357.3,0,0,0,
,0.079,-0.055,0.813,1092.285,-110.047,-367.859,0,0,0,
,0.011,-0.164,0.768,1094.238,-111.878,-324.158,0,0,0,
,-0.047,-0.228,0.776,998.901,-51.514,-309.144,0,0,0,
,0.038,-0.415,0.825,859.069,95.092,-379.761,0,0,0,
,0.103,-0.557,0.88,485.839,-4.09,-218.628,0,0,0,
,0.037,-0.185,0.951,69.824,68.359,-94.544,0,0,0,
,0.216,0.09,1.007,281.067,220.886,-101.99,0,0,0,
,0.319,-0.176,0.817,619.69,63.659,-280.701,0,0,0,
,0.228,-0.436,0.837,579.162,-242.981,-152.894,0,0,0,
,0.078,-0.379,0.951,279.297,-321.717,15.197,0,0,0,
,0.067,-0.17,0.998,111.999,-125.245,36.987,0,0,0,
,0.125,-0.229,0.935,218.994,155.944,-65.064,0,0,0,
,0.197,-0.401,0.873,221.252,244.873,-82.764,0,0,0,
,0.253,-0.46,0.85,67.26,131.347,-6.348,0,0,0,
,0.259,-0.438,0.925,-146.729,-77.088,88.989,0,0,0,
,0.216,-0.477,1.02,-451.233,-118.958,144.47,0,0,0,
,0.166,-0.453,1.014,-870.728,-47.425,202.331,0,0,0,
,0.172,-0.302,1.013,-1119.69,92.895,253.723,0,0,0,
,0.224,-0.192,0.958,-1168.457,253.54,267.578,0,0,0,
,0.275,-0.154,1.015,-1170.472,302.612,352.111,0,0,0,
,0.349,-0.046,1.075,-1225.525,256.713,439.026,0,0,0,
,0.367,0.074,1.062,-1192.811,214.477,470.214,0,0,0,
,0.34,0.077,1.078,-1073.243,110.473,467.834,0,0,0,
,0.306,0.106,1.104,-1013.672,48.095,471.252,0,0,0,
,0.271,0.193,1.098,-901.673,67.077,447.509,0,0,0,
,0.278,0.162,1.138,-721.375,77.453,381.775,0,0,0,
,0.282,0.142,1.061,-615.113,70.251,409.423,0,0,0,
,0.253,0.199,1.077,-557.984,-2.259,388.427,0,0,0,
,0.243,0.207,1.147,-512.879,-52.247,348.693,0,0,0,
,0.205,0.2,1.149,-549.256,-37.598,327.453,0,0,0,
,0.191,0.261,1.08,-548.035,-12.513,317.138,0,0,0,
,0.172,0.279,0.99,-435.425,-0.245,256.652,0,0,0,
,0.157,0.275,0.972,-306.824,-39.734,236.877,0,0,0,
,0.139,0.317,0.989,-229.31,-80.445,240.295,0,0,0,
,0.088,0.368,1,-121.644,-70.008,199.401,0,0,0,
,0.05,0.389,0.962,35.583,-53.528,162.048,0,0,0,
,0.038,0.35,0.937,262.817,5.249,105.285,0,0,0,
,0.018,0.26,0.899,416.32,30.883,6.958,0,0,0,
,0.023,0.213,0.876,457.885,49.621,-19.776,0,0,0,
,0.005,0.173,0.862,510.437,37.292,-60.12,0,0,0,
,0.006,0.139,0.832,529.358,34.545,-145.081,0,0,0,
,-0.004,0.155,0.828,547.302,29.602,-172.364,0,0,0,
,-0.005,0.163,0.821,661.865,35.827,-203.797,0,0,0,
,-0.015,0.138,0.798,783.325,31.555,-264.039,0,0,0,
,-0.006,0.111,0.804,891.418,32.104,-311.707,0,0,0,
,0.005,0.113,0.814,1033.447,42.968,-369.812,0,0,0,
,0.046,-0.03,0.827,1116.943,31.494,-407.654,0,0,0,
,0.057,-0.128,0.846,1106.323,7.202,-422.791,0,0,0,
,0.059,-0.192,0.872,1029.419,-7.142,-459.473,0,0,0,
,0.062,-0.304,0.899,909.973,-13.428,-464.295,0,0,0,
,0.087,-0.369,0.89,708.252,10.62,-446.595,0,0,0,
,0.107,-0.345,0.871,481.567,24.719,-426.026,0,0,0,
,0.114,-0.256,0.861,337.646,40.405,-386.841,0,0,0,
,0.131,-0.154,0.832,289.367,84.045,-374.024,0,0,0,
,0.189,-0.181,0.79,333.923,81.787,-368.042,0,0,0,
,0.211,-0.247,0.808,324.829,25.329,-355.652,0,0,0,
,0.232,-0.268,0.937,221.862,-15.198,-327.332,0,0,0,
,0.283,-0.259,0.967,131.775,-6.836,-300.843,0,0,0,
,0.277,-0.231,0.976,31.616,-122.01,-212.952,0,0,0,
,0.204,-0.13,0.986,-8.484,-146.119,-159.424,0,0,0,
,0.188,-0.149,0.951,10.192,-88.685,-214.356,0,0,0,
,0.178,-0.281,0.934,-66.712,-40.406,-175.477,0,0,0,
,0.18,-0.268,0.991,-300.477,-55.481,-74.585,0,0,0,
,0.161,-0.227,1.03,-518.433,-35.523,-23.072,0,0,0,
,0.139,-0.174,1.018,-718.628,7.202,45.471,0,0,0,
,0.131,-0.129,0.979,-871.46,92.956,52.673,0,0,0,
,0.165,-0.076,0.969,-948.06,184.448,98.693,0,0,0,
,0.22,0.013,0.964,-940.796,243.957,200.5,0,0,0,
,0.258,0.04,0.981,-884.766,236.328,214.111,0,0,0,
,0.274,0.024,1.032,-948.182,179.321,279.358,0,0,0,
,0.263,0.042,1.087,-1118.592,126.77,347.961,0,0,0,
,0.239,0.161,1.08,-1196.167,127.502,375.976,0,0,0,
,0.224,0.247,1.087,-1154.725,159.546,371.093,0,0,0,
,0.241,0.264,1.13,-1074.463,207.214,352.111,0,0,0,
,0.26,0.315,1.081,-1008.79,245.849,331.543,0,0,0,
,0.271,0.384,1.062,-850.769,227.417,316.528,0,0,0,
,0.288,0.424,1.071,-623.108,143.615,296.447,0,0,0,
,0.271,0.375,1.071,-408.936,38.452,271.24,0,0,0,
,0.129,0.331,1.143,-260.621,-61.524,191.65,0,0,0,
,0.103,0.378,1.136,-280.64,-36.438,182.129,0,0,0,
,0.093,0.465,1.128,-260.498,-37.72,205.2,0,0,0,
,0.06,0.549,1.081,-99.427,-39.124,132.873,0,0,0,
,0.032,0.565,0.991,163.391,-16.358,56.213,0,0,0,
,0.035,0.491,0.938,378.479,21.545,-53.711,0,0,0,
,0.056,0.411,0.854,574.951,91.064,-85.083,0,0,0,
,0.085,0.304,0.808,715.088,-10.315,-113.953,0,0,0,
,0.048,0.246,0.784,701.233,-65.674,-136.353,0,0,0,
,0.008,0.296,0.844,685.363,-124.146,-153.26,0,0,0,
,-0.032,0.324,0.838,726.074,-89.112,-220.52,0,0,0,
,-0.012,0.368,0.823,870.849,-44.922,-271.607,0,0,0,
,0.021,0.276,0.731,1084.961,-3.113,-329.712,0,0,0,
,0.04,0.2,0.706,1240.722,-81.116,-406.617,0,0,0,
,0.01,0.138,0.729,1349.182,-136.048,-410.34,0,0,0,
,-0.023,0.007,0.735,1450.256,-148.255,-429.139,0,0,0,
,-0.05,-0.174,0.749,1447.937,-150.086,-445.923,0,0,0,
,-0.037,-0.346,0.82,1281.738,-144.532,-401.734,0,0,0,
,-0.046,-0.359,0.876,991.577,-85.206,-351.319,0,0,0,
,-0.025,-0.33,0.845,707.58,3.418,-284.058,0,0,0,
,-0.007,-0.122,0.854,538.574,76.049,-249.512,0,0,0,
,0.031,-0.077,0.796,625.671,119.384,-256.348,0,0,0,
,0.064,-0.259,0.778,708.557,57.251,-266.846,0,0,0,
,0.049,-0.365,0.818,645.446,32.531,-216.675,0,0,0,
,0.071,-0.398,0.831,524.78,59.204,-186.585,0,0,0,
,0.13,-0.391,0.879,429.077,49.987,-177.918,0,0,0,
,0.185,-0.389,0.937,340.942,20.141,-135.804,0,0,0,
,0.205,-0.386,0.914,250.549,62.011,-67.81,0,0,0,
,0.216,-0.432,0.917,127.685,114.929,-35.157,0,0,0,
,0.312,-0.397,1.167,-6.47,174.011,29.48,0,0,0,
,0.341,-0.493,1.066,-137.94,210.327,-53.772,0,0,0,
,0.366,-0.565,1.073,-410.279,80.749,-1.831,0,0,0,
,0.336,-0.417,1.065,-723.999,-57.435,155.029,0,0,0,
,0.296,-0.259,1.107,-995.362,-118.287,227.661,0,0,0,
,0.297,-0.214,1.117,-1194.336,-27.466,294.738,0,0,0,
,0.311,-0.194,1.075,-1318.055,65.918,333.801,0,0,0,
,0.312,-0.159,1.039,-1466.98,79.345,480.957,0,0,0,
,0.264,-0.043,0.988,-1514.222,83.252,571.472,0,0,0,
,0.258,0.077,0.995,-1483.704,132.751,541.626,0,0,0,
,0.248,0.182,0.996,-1292.542,141.723,557.922,0,0,0,
,0.271,0.249,1.033,-1055.665,107.666,542.419,0,0,0,
,0.281,0.235,1.033,-821.717,93.2,487.976,0,0,0,
,0.254,0.206,1.032,-618.103,8.606,473.816,0,0,0,
,0.187,0.123,1.03,-497.498,-21.546,386.291,0,0,0,
,0.13,0.09,1.052,-490.662,-17.212,369.934,0,0,0,
,0.114,0.158,1.049,-512.513,57.678,337.829,0,0,0,
,0.116,0.203,1.029,-415.467,97.961,265.991,0,0,0,
,0.121,0.222,1.028,-270.447,121.032,163.818,0,0,0,
,0.081,0.193,0.983,-160.096,120.056,101.928,0,0,0,
,0.064,0.195,0.984,-65.857,102.661,25.451,0,0,0,
,0.051,0.212,1.017,30.761,86.12,-26.978,0,0,0,
,0.048,0.226,1.017,198.608,78.308,-110.84,0,0,0,
,0.035,0.214,0.972,346.679,97.839,-181.641,0,0,0,
,0.021,0.226,0.926,468.689,93.811,-274.414,0,0,0,
,0.012,0.21,0.886,549.56,51.025,-349.61,0,0,0,
,0.01,0.214,0.832,634.521,36.926,-435.791,0,0,0,
,0.026,0.228,0.806,747.192,53.039,-464.417,0,0,0,
,0.048,0.218,0.802,889.038,43.701,-500.733,0,0,0,
,0.05,0.198,0.839,1027.771,27.648,-534.852,0,0,0,
,0.041,0.125,0.857,1158.813,16.113,-567.322,0,0,0,
,0.065,0.072,0.859,1230.163,8.972,-579.407,0,0,0,
,0.058,-0.03,0.887,1242.614,-53.711,-591.126,0,0,0,
,0.061,-0.165,0.918,1164.306,-58.594,-581.665,0,0,0,
,0.065,-0.31,0.968,942.443,-87.525,-517.518,0,0,0,
,0.088,-0.347,0.956,594.909,-53.772,-440.186,0,0,0,
,0.108,-0.242,0.934,301.696,-20.752,-337.952,0,0,0,
,0.156,-0.083,0.833,182.617,18.005,-277.466,0,0,0,
,0.212,-0.017,0.754,251.403,-11.963,-232.239,0,0,0,
,0.23,-0.058,0.788,370.483,-122.193,-268.616,0,0,0,
,0.205,-0.144,0.851,451.904,-165.162,-234.436,0,0,0,
,0.197,-0.311,0.886,422.119,-179.749,-222.962,0,0,0,
,0.186,-0.366,0.873,261.718,-164.063,-139.893,0,0,0,
,0.188,-0.322,0.842,116.272,-137.33,-72.266,0,0,0,
,0.195,-0.295,0.858,-4.761,-101.563,-47.608,0,0,0,
,0.197,-0.322,0.869,-158.57,-65.796,-32.837,0,0,0,
,0.211,-0.278,0.902,-295.716,-17.945,24.108,0,0,0,
,0.226,-0.244,0.971,-371.338,26.123,57.922,0,0,0,
,0.286,-0.188,0.972,-418.457,75.866,97.473,0,0,0,
,0.273,-0.297,0.96,-387.391,95.275,79.406,0,0,0,
,0.292,-0.33,1.011,-605.713,-18.372,196.533,0,0,0,
,0.256,-0.202,1.035,-789.978,-76.6,267.578,0,0,0,
,0.205,-0.143,1.057,-924.317,-71.534,243.835,0,0,0,
,0.151,-0.081,1.024,-1065.247,-24.964,192.932,0,0,0,
,0.125,-0.014,1.002,-1036.133,60.913,180.542,0,0,0,
,0.138,0.063,0.985,-914.368,130.798,186.523,0,0,0,
,0.189,0.119,1.078,-773.743,153.137,203.369,0,0,0,
,0.229,0.158,1.096,-655.091,139.77,210.144,0,0,0,
,0.239,0.165,1.089,-534.18,96.679,212.707,0,0,0,
,0.229,0.125,1.087,-455.872,59.326,206.665,0,0,0,
,0.206,0.057,1.079,-416.199,25.024,212.829,0,0,0,
,0.182,0.006,1.091,-509.949,1.281,257.202,0,0,0,
,0.165,0.102,1.154,-653.199,-24.598,306.884,0,0,0,
,0.14,0.234,1.169,-728.028,-26.062,306.64,0,0,0,
,0.111,0.294,1.104,-737.732,20.874,243.347,0,0,0,
,0.12,0.324,1.145,-646.363,68.237,155.151,0,0,0,
,0.137,0.365,1.2,-349.854,86.303,150.695,0,0,0,
,0.116,0.381,1.118,-85.511,-10.254,164.001,0,0,0,
,0.074,0.309,1.025,-44.678,-110.84,176.147,0,0,0,
,0.025,0.251,0.896,-124.39,-132.142,134.521,0,0,0,
,0.007,0.291,0.933,-113.404,-109.192,144.958,0,0,0,
,-0.023,0.356,0.948,17.334,-82.703,114.074,0,0,0,
,-0.015,0.401,0.994,247.253,-46.875,59.204,0,0,0,
,-0.036,0.293,0.962,285.461,-43.519,37.048,0,0,0,
,-0.061,0.239,0.845,310.18,-33.753,59.875,0,0,0,
,-0.065,0.202,0.811,292.724,-4.273,44.677,0,0,0,
,-0.069,0.201,0.793,229.065,-7.019,50.659,0,0,0,
,-0.076,0.24,0.845,167.358,-12.94,59.631,0,0,0,
,-0.07,0.226,0.79,169.799,45.288,58.654,0,0,0,
,-0.035,0.189,0.745,159.484,52.368,42.602,0,0,0,
,0.005,0.281,0.757,145.996,35.4,72.692,0,0,0,
,0.014,0.328,0.789,314.758,-3.174,79.223,0,0,0,
,0.013,0.253,0.871,540.893,20.813,69.58,0,0,0,
,0.06,0.13,1.003,657.592,109.68,17.944,0,0,0,
,0.099,0.009,0.997,704.345,82.214,-52.369,0,0,0,
,0.102,-0.068,0.987,565.918,13.183,-8.728,0,0,0,
,0.107,0.039,0.988,460.266,10.803,8.606,0,0,0,
,0.104,0.019,0.965,571.594,0.549,-39.246,0,0,0,
,0.097,-0.025,1.058,554.443,-20.752,-16.297,0,0,0,
,0.1,0.089,0.995,609.497,-8.24,12.207,0,0,0,
,0.086,-0.027,0.981,721.74,-7.081,-29.419,0,0,0,
,0.096,-0.152,0.969,679.26,49.621,-37.415,0,0,0,
,0.107,-0.196,0.917,630.859,101.806,-39.246,0,0,0,
,0.122,-0.173,0.912,648.803,125.976,-47.852,0,0,0,
,0.151,-0.096,1.031,716.858,135.742,-57.557,0,0,0,
,0.171,-0.086,1.014,842.041,154.113,-80.445,0,0,0,
,0.172,-0.221,0.937,968.444,120.361,-114.441,0,0,0,
,0.195,-0.269,0.949,986.145,67.016,-79.102,0,0,0,
,0.185,-0.297,0.877,965.21,45.837,-35.401,0,0,0,
,0.188,-0.344,0.884,959.655,38.635,-78.675,0,0,0,
,0.207,-0.38,0.926,902.954,73.791,-105.469,0,0,0,
,0.229,-0.383,1.028,862.915,126.037,-152.161,0,0,0,
,0.235,-0.455,0.969,858.032,114.624,-102.906,0,0,0,
,0.229,-0.529,0.961,801.635,111.267,-123.23,0,0,0,
,0.229,-0.56,0.933,664.123,89.843,-80.994,0,0,0,
,0.203,-0.549,0.861,514.221,43.212,-104.676,0,0,0,
,0.173,-0.528,0.847,411.987,42.175,-125.306,0,0,0,
,0.125,-0.563,0.909,397.277,58.166,-144.593,0,0,0,
,0.135,-0.574,0.922,354.98,107.727,-136.292,0,0,0,
,0.128,-0.645,0.922,281.311,132.995,-154.602,0,0,0,
,0.149,-0.571,0.982,187.5,145.691,-153.504,0,0,0,
,0.15,-0.601,0.871,129.882,139.16,-159.852,0,0,0,
,0.126,-0.698,0.759,141.113,148.803,-147.156,0,0,0,
,0.127,-0.742,0.766,85.083,169.494,-129.578,0,0,0,
,0.151,-0.685,0.855,8.789,177.795,-115.113,0,0,0,
,0.16,-0.662,0.932,-73.853,174.926,-135.987,0,0,0,
,0.174,-0.608,0.917,-176.514,141.418,-128.174,0,0,0,
,0.182,-0.594,0.897,-156.739,109.497,-106.812,0,0,0,
,0.172,-0.571,0.88,-119.568,88.501,-55.359,0,0,0,
,0.157,-0.601,0.856,-117.249,82.519,-84.961,0,0,0,
,0.15,-0.651,0.835,-164.002,58.105,-43.885,0,0,0,
,0.146,-0.662,0.83,-263.001,38.513,-25.33,0,0,0,
,0.133,-0.591,0.831,-371.949,31.616,-29.48,0,0,0,
,0.128,-0.501,0.83,-393.372,51.452,-25.147,0,0,0,
,0.144,-0.505,0.837,-342.652,88.378,-34.852,0,0,0,
,0.157,-0.478,0.766,-311.463,110.839,-86.792,0,0,0,
,0.187,-0.494,0.774,-273.255,51.147,-143.799,0,0,0,
,0.18,-0.562,0.716,-284.058,-8.545,-162.659,0,0,0,
,0.045,-0.544,0.65,-527.344,-65.064,-136.048,0,0,0,
,0.062,-0.509,0.671,-615.479,37.17,-180.054,0,0,0,
,0.046,-0.419,0.71,-684.327,72.998,-184.449,0,0,0,
,0.074,-0.307,0.724,-620.423,68.176,-261.231,0,0,0,
,0.073,-0.329,0.76,-640.931,13.305,-256.287,0,0,0,
,0.051,-0.302,0.806,-770.569,-20.874,-243.348,0,0,0,
,0.031,-0.17,0.874,-862.244,-48.523,-214.722,0,0,0,
,0.045,0.007,0.936,-783.387,-59.266,-200.867,0,0,0,
,0.042,0.04,0.955,-639.649,-17.701,-221.863,0,0,0,
,0.058,-0.027,0.981,-600.22,50.354,-253.113,0,0,0,
,0.092,-0.045,0.998,-664.368,116.821,-193.116,0,0,0,
,0.144,0.002,0.996,-778.87,119.995,-147.278,0,0,0,
,0.194,0.001,1.05,-902.039,55.725,-131.47,0,0,0,
,0.171,0.086,1.057,-995.057,-7.019,-80.079,0,0,0,
,0.14,0.217,1.067,-969.056,-22.461,-60.486,0,0,0,
,0.147,0.258,1.096,-791.382,6.652,-67.933,0,0,0,
,0.18,0.174,1.083,-601.319,33.264,-59.021,0,0,0,
,0.192,0.089,1.078,-580.872,-3.785,-17.579,0,0,0,
,0.165,0.089,1.073,-657.898,-29.847,22.888,0,0,0,
,0.123,0.165,1.029,-653.809,-14.405,82.885,0,0,0,
,0.122,0.176,1.012,-568.726,54.565,94.177,0,0,0,
,0.135,0.185,1.018,-557.312,84.106,96.496,0,0,0,
,0.145,0.209,1.025,-528.809,94.177,97.473,0,0,0,
,0.146,0.171,1.057,-522.156,98.755,91.919,0,0,0,
,0.144,0.201,1.056,-554.627,90.271,110.351,0,0,0,
,0.163,0.244,1.077,-569.519,87.036,118.469,0,0,0,
,0.193,0.271,1.062,-629.578,69.152,108.032,0,0,0,
,0.177,0.334,1.023,-622.803,37.719,113.464,0,0,0,
,0.164,0.346,0.991,-569.519,43.823,109.924,0,0,0,
,0.166,0.371,0.948,-520.63,50.048,123.535,0,0,0,
,0.169,0.389,0.933,-466.553,52.612,112.854,0,0,0,
,0.159,0.416,0.947,-376.77,51.391,106.384,0,0,0,
,0.144,0.448,0.979,-276.551,63.659,117.981,0,0,0,
,0.131,0.416,0.964,-239.075,79.467,117.004,0,0,0,
,0.137,0.379,0.921,-284.974,90.881,104.553,0,0,0,
,0.142,0.406,0.913,-356.263,78.064,94.726,0,0,0,
,0.141,0.502,0.937,-330.506,50.842,103.637,0,0,0,
,0.125,0.575,0.967,-170.105,42.541,93.017,0,0,0,
,0.119,0.565,0.931,-31.495,46.508,64.941,0,0,0,
,0.114,0.511,0.91,4.638,30.151,48.706,0,0,0,
,0.106,0.478,0.878,8.056,14.831,44.128,0,0,0,
,0.086,0.488,0.892,52.368,-0.977,58.593,0,0,0,
,0.092,0.517,0.895,114.502,-4.212,51.269,0,0,0,
,0.083,0.554,0.905,120.727,-21.912,44.616,0,0,0,
,0.075,0.555,0.908,229.126,-27.588,42.907,0,0,0,
,0.062,0.533,0.906,384.765,-48.279,37.353,0,0,0,
,0.041,0.51,0.873,519.287,-43.824,10.376,0,0,0,
,0.03,0.431,0.886,547.546,-34.729,-12.391,0,0,0,
,0.025,0.373,0.863,550.048,1.892,10.803,0,0,0,
,0.028,0.343,0.854,507.751,18.859,-4.578,0,0,0,
,0.024,0.325,0.846,459.533,24.658,-6.714,0,0,0,
,0,0.341,0.822,485.901,49.438,-10.743,0,0,0,
,-0.002,0.291,0.796,524.414,105.651,-20.569,0,0,0,
,0.011,0.2,0.771,506.347,159.057,-56.458,0,0,0,
,0.036,0.163,0.763,400.94,179.443,-27.527,0,0,0,
,0.054,0.19,0.78,267.395,192.81,-6.775,0,0,0,
,0.079,0.185,0.816,150.39,204.773,21.667,0,0,0,
,0.112,0.214,0.895,0.976,184.326,72.57,0,0,0,
,0.116,0.255,0.841,-38.392,183.044,128.784,0,0,0,
,0.109,0.221,0.763,-117.554,140.93,117.492,0,0,0,
,0.115,0.282,0.833,-272.95,83.557,141.113,0,0,0,
,0.11,0.394,0.892,-403.199,90.271,143.554,0,0,0,
,0.112,0.489,0.896,-365.601,156.677,137.024,0,0,0,
,0.136,0.499,0.863,-177.979,187.5,81.848,0,0,0,
,0.156,0.485,0.871,71.594,138.183,86.12,0,0,0,
,0.155,0.486,0.884,299.621,62.194,77.392,0,0,0,
,0.154,0.486,0.951,558.227,45.837,64.392,0,0,0,
,0.174,0.426,1.008,810.608,78.674,1.403,0,0,0,
,0.201,0.281,0.948,1139.77,86.303,-23.011,0,0,0,
,0.21,0.039,0.987,1162.048,-21.668,-91.919,0,0,0,
,0.209,-0.034,1.013,930.908,-71.778,-40.406,0,0,0,
,0.183,0.084,1.008,821.472,-90.455,12.878,0,0,0,
,0.191,0.188,0.917,979.37,-39.795,1.525,0,0,0,
,0.198,0.119,0.847,1360.962,-60.975,-52.857,0,0,0,
,0.194,0.025,0.932,1717.285,-165.406,-68.482,0,0,0,
,0.167,-0.125,0.901,1848.816,-226.99,31.921,0,0,0,
,0.116,-0.181,0.768,1922.607,-163.453,63.537,0,0,0,
,0.09,-0.31,0.759,1999.694,-57.74,88.134,0,0,0,
,0.134,-0.332,0.758,1999.694,89.355,62.072,0,0,0,
,0.189,-0.394,0.706,1999.694,187.5,128.051,0,0,0,
,0.253,-0.757,0.562,1999.694,224.609,116.516,0,0,0,
,0.261,-1.014,0.637,1999.694,80.322,87.585,0,0,0,
,0.222,-0.872,0.693,1611.877,-58.655,156.86,0,0,0,
,0.183,-0.912,0.731,1362.915,-6.348,96.801,0,0,0,
,0.142,-0.992,0.803,1018.249,293.579,154.358,0,0,0,
,0.327,-0.934,0.685,758.3,281.067,51.879,0,0,0,
,0.363,-0.823,0.715,607.177,200.927,103.149,0,0,0,
,0.325,-0.887,0.687,549.56,131.836,50.659,0,0,0,
,0.271,-0.899,0.706,435.058,134.582,78.735,0,0,0,
,0.259,-0.835,0.567,341.125,116.943,14.16,0,0,0,
,0.253,-0.899,0.593,270.324,158.813,-22.889,0,0,0,
,0.263,-0.914,0.724,100.83,220.214,-46.143,0,0,0,
,0.303,-0.868,0.655,-8.973,204.345,-74.585,0,0,0,
,0.284,-0.871,0.562,20.019,168.151,-94.91,0,0,0,
,0.248,-0.953,0.579,0.732,154.113,-85.511,0,0,0,
,0.246,-1.03,0.515,-123.841,203.247,-81.36,0,0,0,
,0.275,-0.912,0.493,-295.594,227.905,-36.377,0,0,0,
,0.312,-0.688,0.471,-276.673,180.542,28.32,0,0,0,
,0.312,-0.642,0.523,-121.949,90.026,61.157,0,0,0,
,0.271,-0.777,0.692,-95.948,38.452,81.115,0,0,0,
,0.229,-0.767,0.684,-277.955,70.739,62.866,0,0,0,
,0.258,-0.636,0.519,-259.034,218.322,44.616,0,0,0,
,0.314,-0.792,0.669,-173.768,121.582,49.682,0,0,0,
,0.299,-0.742,0.578,-273.194,28.625,175.842,0,0,0,
,0.253,-0.606,0.619,-211.487,0.793,186.096,0,0,0,
,0.261,-0.66,0.702,-174.256,1.831,190.002,0,0,0,
,0.249,-0.77,0.726,-278.87,24.536,178.039,0,0,0,
,0.25,-0.843,0.756,-423.584,32.165,191.406,0,0,0,
,0.253,-0.894,0.75,-581.177,42.785,183.776,0,0,0,
,0.217,-0.855,0.633,-757.081,94.055,200.744,0,0,0,
,0.241,-0.758,0.584,-760.56,125.366,178.466,0,0,0,
,0.294,-0.839,0.61,-762.391,54.992,129.821,0,0,0,
,0.26,-0.92,0.633,-908.875,-46.753,141.479,0,0,0,
,0.224,-0.818,0.686,-1090.455,-15.686,129.028,0,0,0,
,0.241,-0.695,0.691,-1142.212,59.204,73.547,0,0,0,
,0.275,-0.651,0.603,-1100.22,106.323,66.101,0,0,0,
,0.329,-0.53,0.587,-1128.174,65.612,81.97,0,0,0,
,0.322,-0.4,0.634,-1062.806,-27.527,43.212,0,0,0,
,0.317,-0.398,0.664,-986.207,-9.156,18.798,0,0,0,
,0.367,-0.417,0.727,-998.108,-51.148,10.376,0,0,0,
,0.376,-0.366,0.713,-1106.507,-107.789,75.988,0,0,0,
,0.332,-0.208,0.742,-1121.582,-153.748,95.825,0,0,0,
,0.281,-0.123,0.817,-1032.471,-156.861,67.81,0,0,0,
,0.223,-0.113,0.811,-960.755,-34.913,60.791,0,0,0,
,0.311,-0.087,0.882,-1000.184,9.216,76.049,0,0,0,
,0.381,-0.024,0.891,-872.742,-2.015,10.253,0,0,0,
,0.377,-0.112,0.894,-765.809,-100.342,-15.625,0,0,0,
,0.332,-0.098,0.89,-719.91,-127.93,-28.199,0,0,0,
,0.32,-0.102,0.88,-719.056,-96.619,-45.838,0,0,0,
,0.318,-0.089,0.865,-786.56,-101.258,-33.692,0,0,0,
,0.294,-0.021,0.827,-857.666,-132.569,-9.278,0,0,0,
,0.268,0.095,0.813,-951.6,-136.475,-6.226,0,0,0,
,0.252,0.2,0.801,-920.96,-71.595,-6.958,0,0,0,
,0.292,0.262,0.805,-703.858,-22.889,-45.227,0,0,0,
,0.321,0.226,0.816,-471.619,-70.496,-78.614,0,0,0,
,0.323,0.195,0.859,-354.92,-144.41,-82.581,0,0,0,
,0.273,0.239,0.878,-357.117,-177.674,-79.163,0,0,0,
,0.276,0.321,0.946,-344.361,-146.851,-48.279,0,0,0,
,0.296,0.365,0.893,-174.561,-90.699,-65.247,0,0,0,
,0.255,0.333,0.766,44.616,-88.623,-145.386,0,0,0,
,0.225,0.326,0.852,213.134,-154.541,-140.32,0,0,0,
,0.2,0.323,0.994,471.496,-147.644,-136.719,0,0,0,
,0.236,0.254,1.052,672.79,-80.079,-177.796,0,0,0,
,0.279,0.112,1.016,683.593,-60.791,-209.168,0,0,0,
,0.293,-0.017,0.968,664.734,-130.249,-217.713,0,0,0,
,0.28,0.027,1.073,592.285,-262.085,-182.862,0,0,0,
,0.218,0.058,1.125,639.038,-261.597,-155.701,0,0,0,
,0.186,-0.03,1.076,680.481,-205.323,-211.609,0,0,0,
,0.188,-0.077,1.024,618.042,-164.368,-236.695,0,0,0,
,0.192,-0.13,1.018,557.19,-179.017,-248.291,0,0,0,
,0.178,-0.074,1.063,582.519,-211.243,-230.53,0,0,0,
,0.187,-0.118,1.105,712.28,-231.873,-229.31,0,0,0,
,0.212,-0.289,1.167,646.545,-266.48,-263.062,0,0,0,
,0.163,-0.315,1.109,396.423,-217.591,-272.034,0,0,0,
,0.142,-0.334,1.042,132.202,-147.217,-261.597,0,0,0,
,0.166,-0.269,0.978,-27.955,-96.619,-228.089,0,0,0,
,0.195,-0.136,0.995,4.821,-111.023,-195.862,0,0,0,
,0.191,-0.019,0.985,142.273,-146.424,-191.529,0,0,0,
,0.164,-0.116,0.932,253.234,-208.558,-230.53,0,0,0,
,0.091,-0.191,0.962,180.542,-230.835,-245.85,0,0,0,
,0.053,-0.229,0.949,50.354,-139.283,-239.38,0,0,0,
,0.074,-0.294,0.873,-115.113,-59.571,-195.679,0,0,0,
,0.064,-0.197,0.887,-383.728,-46.875,-148.194,0,0,0,
,0.083,-0.053,0.93,-505.31,-4.029,-127.381,0,0,0,
,0.111,-0.055,0.952,-437.256,28.93,-100.403,0,0,0,
,0.118,0.015,1.001,-378.968,-3.235,-57.007,0,0,0,
,0.135,-0.004,1.01,-326.355,16.601,-69.642,0,0,0,
,0.148,-0.128,0.992,-374.268,8.728,-46.326,0,0,0,
,0.119,-0.121,0.991,-552.674,10.681,-12.391,0,0,0,
,0.063,-0.079,1.006,-654.358,34.79,16.845,0,0,0,
,0.081,-0.023,1.034,-674.378,65.185,63.659,0,0,0,
,0.072,0.046,0.983,-668.396,114.257,96.923,0,0,0,
,0.081,0.087,1.006,-704.407,113.891,80.81,0,0,0,
,0.095,0.129,1.031,-718.628,106.689,67.993,0,0,0,
,0.12,0.2,1.069,-606.08,96.923,81.543,0,0,0,
,0.147,0.206,1.07,-433.716,83.679,83.862,0,0,0,
,0.147,0.192,1.086,-300.843,56.335,110.473,0,0,0,
,0.156,0.146,1.06,-36.255,100.83,192.749,0,0,0,
,0.162,0.185,1.09,-9.949,86.242,199.34,0,0,0,
,0.157,0.219,1.101,18.432,77.575,183.105,0,0,0,
,0.137,0.255,1.077,75.378,78.308,163.452,0,0,0,
,0.118,0.261,0.985,155.944,89.294,206.421,0,0,0,
,0.122,0.24,1.048,498.596,97.351,167.297,0,0,0,
,0.144,0.174,0.954,461.792,143.249,189.514,0,0,0,
,0.164,0.173,0.96,245.971,115.173,177.002,0,0,0,
,0.16,0.23,0.984,280.09,85.815,200.317,0,0,0,
,0.17,0.177,1.028,352.295,33.325,186.401,0,0,0,
,0.155,0.071,0.98,320.495,-37.537,244.384,0,0,0,
,0.146,0.083,0.96,287.292,-42.969,239.441,0,0,0,
,0.121,0.083,0.961,306.884,-46.326,242.92,0,0,0,
,0.118,0.078,0.895,374.511,-16.846,277.893,0,0,0,
,0.058,0.106,0.891,452.88,57.006,252.685,0,0,0,
,0.088,-0.192,0.928,649.78,90.515,221.13,0,0,0,
,0.067,-0.171,0.898,527.771,139.282,226.379,0,0,0,
,0.088,-0.063,0.857,523.071,190.49,206.298,0,0,0,
,0.11,-0.025,0.804,607.788,190.49,169.006,0,0,0,
,0.127,-0.034,0.787,750.915,170.776,150.695,0,0,0,
,0.113,-0.154,0.77,868.042,142.089,119.751,0,0,0,
,0.116,-0.237,0.749,837.097,162.17,119.079,0,0,0,
,0.137,-0.246,0.73,777.771,181.945,147.4,0,0,0,
,0.172,-0.209,0.698,822.57,216.858,133.361,0,0,0,
,0.223,-0.17,0.73,951.416,196.899,107.055,0,0,0,
,0.322,-0.611,0.814,982.544,41.931,93.505,0,0,0,
,0.32,-0.624,0.803,881.591,-32.776,62.316,0,0,0,
,0.307,-0.558,0.749,839.782,-75.44,50.415,0,0,0,
,0.309,-0.56,0.782,854.919,-114.685,-18.006,0,0,0,
,0.288,-0.625,0.722,914.978,-155.64,-36.499,0,0,0,
,0.221,-0.976,0.686,489.013,-24.903,-68.909,0,0,0,
,0.245,-0.804,0.613,274.475,48.95,-94.605,0,0,0,
,0.279,-0.676,0.603,253.234,85.571,-147.95,0,0,0,
,0.283,-0.621,0.684,310.18,62.988,-209.168,0,0,0,
,0.244,-0.706,0.596,332.824,24.78,-221.253,0,0,0,
,0.196,-0.821,0.584,320.251,38.33,-202.881,0,0,0,
,0.179,-0.913,0.542,212.89,148.559,-219.91,0,0,0,
,0.221,-0.919,0.721,28.32,293.09,-264.344,0,0,0,
,0.291,-0.787,0.724,-61.036,316.772,-320.13,0,0,0,
,0.3,-0.786,0.66,-74.646,259.887,-341.98,0,0,0,
,0.27,-0.788,0.669,-78.003,208.435,-335.206,0,0,0,
,0.246,-0.745,0.684,-51.758,188.11,-322.571,0,0,0,
,0.233,-0.757,0.679,-33.204,235.229,-341.37,0,0,0,
,0.232,-0.76,0.675,-67.627,278.869,-350.464,0,0,0,
,0.237,-0.732,0.713,-74.707,304.626,-333.435,0,0,0,
,0.254,-0.678,0.767,-68.665,313.415,-314.942,0,0,0,
,0.264,-0.719,0.74,-59.632,321.838,-323.67,0,0,0,
,0.293,-0.731,0.765,-145.203,326.233,-296.387,0,0,0,
,0.278,-0.654,0.746,-198.182,308.166,-290.955,0,0,0,
,0.286,-0.605,0.859,-143.799,265.136,-243.042,0,0,0,
,0.258,-0.612,0.95,-123.23,232.544,-208.069,0,0,0,
,0.257,-0.622,0.9,-203.064,221.557,-163.575,0,0,0,
,0.237,-0.626,0.713,-201.294,248.779,-162.903,0,0,0,
,0.253,-0.709,0.72,-145.63,220.825,-121.094,0,0,0,
,0.281,-0.755,0.868,-210.45,191.223,-58.655,0,0,0,
,0.274,-0.733,0.844,-388.123,145.08,-53.894,0,0,0,
,0.255,-0.613,0.887,-549.683,103.637,31.982,0,0,0,
,0.232,-0.497,0.939,-586.182,65.49,71.044,0,0,0,
,0.2,-0.441,0.855,-513.367,81.604,69.58,0,0,0,
,0.198,-0.513,0.821,-425.477,89.233,87.219,0,0,0,
,0.217,-0.611,0.804,-423.401,53.955,119.751,0,0,0,
,0.227,-0.666,0.85,-565.674,-28.443,174.072,0,0,0,
,0.179,-0.623,0.858,-741.089,-35.035,225.83,0,0,0,
,0.17,-0.473,0.778,-830.201,89.355,239.624,0,0,0,
,0.212,-0.327,0.71,-715.271,133.545,188.72,0,0,0,
,0.247,-0.286,0.757,-471.375,33.996,187.561,0,0,0,
,0.2,-0.413,0.779,-292.115,-16.846,152.038,0,0,0,
,0.175,-0.549,0.782,-330.14,24.475,142.456,0,0,0,
,0.2,-0.666,0.823,-517.09,67.26,113.769,0,0,0,
,0.214,-0.627,0.819,-779.969,115.112,152.404,0,0,0,
,0.268,-0.477,0.862,-891.236,70.556,120.483,0,0,0,
,0.287,-0.364,0.854,-881.409,2.624,99.548,0,0,0,
,0.258,-0.374,0.854,-806.885,-63.477,30.639,0,0,0,
,0.225,-0.43,0.749,-853.943,-32.166,32.592,0,0,0,
,0.208,-0.428,0.746,-1086.487,-65.857,14.221,0,0,0,
,0.238,-0.134,0.745,-1261.902,-39.063,66.589,0,0,0,
,0.256,-0.022,0.735,-1116.395,-86.426,-49.378,0,0,0,
,0.233,0,0.754,-990.54,-108.094,-74.83,0,0,0,
,0.235,0.101,0.821,-866.272,-91.492,-72.937,0,0,0,
,0.284,0.126,0.881,-598.755,-54.322,-116.089,0,0,0,
,0.333,0.078,0.973,-362.671,-112.549,-160.218,0,0,0,
,0.331,0.045,1.056,-248.414,-169.251,-188.355,0,0,0,
,0.308,-0.004,1.072,-181.702,-192.933,-171.448,0,0,0,
,0.27,-0.005,0.966,-182.251,-178.04,-188.843,0,0,0,
,0.238,0.126,0.907,-192.383,-225.831,-190.918,0,0,0,
,0.209,0.249,0.948,32.104,-261.841,-198.426,0,0,0,
,0.184,0.175,0.975,394.348,-252.198,-264.893,0,0,0,
,0.196,-0.064,0.998,584.9,-250.977,-355.713,0,0,0,
,0.153,-0.216,0.904,454.162,-288.453,-370.667,0,0,0,
,0.072,-0.169,0.892,170.044,-329.163,-324.036,0,0,0,
,0.02,0.005,0.933,33.813,-258.606,-276.429,0,0,0,
,0.038,0.087,0.915,95.825,-92.835,-276.612,0,0,0,
,0.123,0.001,0.918,190.796,-28.382,-264.466,0,0,0,
,0.179,-0.082,0.959,164.978,-87.037,-234.62,0,0,0,
,0.138,-0.062,1.03,76.171,-151.917,-189.331,0,0,0,
,0.07,0.029,1.04,43.457,-106.568,-140.748,0,0,0,
,0.079,0.052,1.016,99.426,-47.486,-124.024,0,0,0,
,0.111,-0.019,0.993,119.201,-0.611,-109.62,0,0,0,
,0.121,-0.067,0.952,81.97,-7.63,-79.041,0,0,0,
,0.146,-0.098,0.944,12.695,-62.928,-40.406,0,0,0,
,0.129,-0.122,1.01,-76.722,-96.436,-5.372,0,0,0,
,0.081,-0.072,1.061,-161.438,-55.298,30.822,0,0,0,
,0.09,-0.064,1.053,-223.145,57.8,37.353,0,0,0,
,0.141,-0.096,1.045,-313.782,99.731,60.424,0,0,0,
,0.167,-0.072,1.019,-414.185,89.477,86.608,0,0,0,
,0.143,-0.036,1.002,-453.125,40.588,109.375,0,0,0,
,0.137,-0.016,1.025,-523.926,45.898,66.528,0,0,0,
,0.147,0.044,1.057,-479.737,78.002,71.655,0,0,0,
,0.181,0.073,1.064,-379.456,99.548,100.28,0,0,0,
,0.222,-0.032,1.117,-369.019,75.683,123.352,0,0,0,
,0.19,-0.013,1.107,-462.342,65.551,170.959,0,0,0,
,0.177,0.019,1.077,-536.927,101.44,155.7,0,0,0,
,0.194,0.176,1.058,-729.493,110.473,138.855,0,0,0,
,0.208,0.255,1.081,-622.315,105.896,139.831,0,0,0,
,0.229,0.304,1.115,-374.634,103.82,149.475,0,0,0,
,0.206,0.319,1.062,-90.821,93.383,155.944,0,0,0,
,0.205,0.218,1.014,138.794,94.238,124.755,0,0,0,
,0.197,0.132,1.028,123.169,57.495,93.811,0,0,0,
,0.181,0.13,1.163,138.427,41.503,89.721,0,0,0,
,0.16,0.206,1.154,194.946,95.214,99.487,0,0,0,
,0.16,0.223,1.064,156.25,119.14,90.82,0,0,0,
,0.182,0.135,1.056,64.025,93.933,-11.414,0,0,0,
,0.178,0.098,0.964,18.92,112.06,47.973,0,0,0,
,0.18,0.209,0.951,101.623,64.941,110.473,0,0,0,
,0.203,0.206,0.973,267.334,48.217,44.189,0,0,0,
,0.194,0.113,1.017,265.991,-12.207,16.906,0,0,0,
,0.161,0.188,1.049,177.307,-71.778,76.599,0,0,0,
,0.135,0.395,0.972,293.151,-70.557,116.577,0,0,0,
,0.133,0.481,0.917,619.567,-21.424,72.082,0,0,0,
,0.17,0.177,0.878,966.125,-20.691,-60.975,0,0,0,
,0.179,-0.17,0.887,887.329,-159.485,-95.459,0,0,0,
,0.093,-0.28,0.915,558.288,-203.614,8.483,0,0,0,
,0.044,-0.285,0.952,208.374,-161.316,58.532,0,0,0,
,0.014,-0.162,0.936,-115.601,-53.162,164.184,0,0,0,
,0.017,-0.016,0.817,-307.984,67.627,238.342,0,0,0,
,0.044,0.076,0.733,-367.737,182.739,237.609,0,0,0,
,0.099,0.053,0.731,-396.119,256.286,165.283,0,0,0,
,0.215,0.175,0.77,-278.626,183.41,125.793,0,0,0,
,0.189,0.168,0.827,-168.274,5.981,163.574,0,0,0,
,0.096,0.262,0.929,-73.609,-62.928,135.62,0,0,0,
,0.031,0.189,0.909,86.853,75.5,121.46,0,0,0,
,0.074,-0.019,0.832,59.57,160.095,12.634,0,0,0,
,0.107,-0.005,0.797,-165.955,165.283,100.158,0,0,0,
,0.103,0.163,0.794,-171.57,125.244,96.374,0,0,0,
,0.138,0.168,0.836,55.419,105.529,-26.917,0,0,0,
,0.163,0.17,0.923,163.208,57.617,-24.231,0,0,0,
,0.154,0.201,0.904,406.433,33.569,-25.574,0,0,0,
,0.151,0.02,0.963,646.85,-12.94,-136.231,0,0,0,
,0.159,-0.031,1.046,563.72,-80.811,-132.081,0,0,0,
,0.156,0.034,1.097,476.074,-42.298,-120.972,0,0,0,
,0.179,0.07,1.072,557.19,45.471,-106.385,0,0,0,
,0.215,-0.068,1.072,753.112,111.816,-195.13,0,0,0,
,0.241,-0.16,0.993,688.415,79.589,-225.892,0,0,0,
,0.231,-0.104,0.941,642.334,-6.592,-177.735,0,0,0,
,0.189,-0.087,0.967,817.321,-84.29,-140.992,0,0,0,
,0.193,-0.09,1.041,993.774,-133.423,-103.028,0,0,0,
,0.185,-0.146,1.06,1130.737,-100.831,-125.977,0,0,0,
,0.188,-0.284,1.027,1185.424,-66.651,-151.062,0,0,0,
,0.186,-0.347,0.917,1161.438,-34.119,-141.785,0,0,0,
,0.193,-0.361,0.883,1227.356,-37.781,-112.671,0,0,0,
,0.2,-0.463,0.879,1274.963,-38.331,-105.103,0,0,0,
,0.191,-0.626,0.899,1178.588,3.54,-104.432,0,0,0,
,0.162,-0.711,0.903,979.736,28.747,-85.083,0,0,0,
,0.201,-0.627,0.894,784.362,31.494,-75.562,0,0,0,
,0.226,-0.566,0.889,764.587,28.808,-81.604,0,0,0,
,0.221,-0.613,0.842,795.349,14.038,-98.328,0,0,0,
,0.191,-0.646,0.837,713.501,0.244,-100.403,0,0,0,
,0.179,-0.746,0.772,655.395,32.898,-119.568,0,0,0,
,0.187,-0.77,0.769,544.25,74.157,-110.291,0,0,0,
,0.201,-0.738,0.752,372.375,79.467,-116.639,0,0,0,
,0.219,-0.677,0.82,332.946,70.251,-113.038,0,0,0,
,0.217,-0.65,0.809,299.621,81.543,-82.337,0,0,0,
,0.211,-0.677,0.785,283.081,79.773,-55.237,0,0,0,
,0.203,-0.731,0.747,319.946,89.599,-33.265,0,0,0,
,0.195,-0.768,0.811,296.325,115.966,8.544,0,0,0,
,0.202,-0.744,0.813,176.635,88.073,12.756,0,0,0,
,0.21,-0.741,0.831,123.413,43.823,-22.644,0,0,0,
,0.185,-0.784,0.867,32.898,22.827,-26.307,0,0,0,
,0.177,-0.735,0.725,-35.34,-4.029,-20.569,0,0,0,
,0.157,-0.761,0.725,-27.405,-39.002,-9.949,0,0,0,
,0.125,-0.756,0.82,-54.932,-46.265,28.808,0,0,0,
,0.112,-0.742,0.795,-101.258,-33.081,65.49,0,0,0,
,0.104,-0.731,0.758,-162.415,-2.259,109.497,0,0,0,
,0.103,-0.739,0.704,-272.95,22.155,112.365,0,0,0,
,0.108,-0.714,0.678,-351.99,25.634,114.38,0,0,0,
,0.117,-0.682,0.655,-458.924,58.471,130.249,0,0,0,
,0.13,-0.722,0.649,-543.641,84.594,81.176,0,0,0,
,0.132,-0.766,0.653,-732.239,104.492,98.877,0,0,0,
,0.158,-0.704,0.681,-956.116,145.385,91.491,0,0,0,
,0.193,-0.631,0.731,-1071.9,165.405,67.138,0,0,0,
,0.224,-0.498,0.736,-1101.868,121.215,88.073,0,0,0,
,0.2,-0.375,0.698,-1040.772,81.543,118.103,0,0,0,
,0.182,-0.341,0.71,-936.646,93.444,74.34,0,0,0,
,0.201,-0.333,0.716,-837.525,143.127,71.533,0,0,0,
,0.254,-0.344,0.766,-841.187,137.39,54.626,0,0,0,
,0.292,-0.327,0.812,-854.004,86.731,131.836,0,0,0,
,0.292,-0.271,0.858,-791.687,54.321,89.965,0,0,0,
,0.286,-0.277,0.863,-757.203,-15.442,59.204,0,0,0,
,0.253,-0.216,0.866,-778.565,-42.542,64.392,0,0,0,
,0.235,-0.124,0.891,-764.344,-25.33,-5.555,0,0,0,
,0.244,-0.062,0.989,-671.936,6.408,-73.975,0,0,0,
,0.276,0.123,1.02,-323.914,36.01,-23.377,0,0,0,
,0.33,0.043,1.06,187.866,-60.852,-177.002,0,0,0,
,0.28,-0.272,0.939,499.694,-159.729,-274.048,0,0,0,
,0.222,-0.512,0.904,410.217,-243.836,-289.307,0,0,0,
,0.164,-0.455,0.905,222.778,-268.25,-229.737,0,0,0,
,0.149,-0.364,0.91,154.358,-238.77,-273.865,0,0,0,
,0.137,-0.347,0.874,132.446,-235.23,-309.815,0,0,0,
,0.105,-0.322,0.819,152.465,-238.831,-319.764,0,0,0,
,0.059,-0.299,0.778,173.706,-218.995,-321.656,0,0,0,
,0.037,-0.301,0.778,131.713,-155.274,-298.035,0,0,0,
,0.075,-0.273,0.824,35.583,-68.177,-251.709,0,0,0,
,0.137,-0.235,0.804,-44.678,-38.758,-206.238,0,0,0,
,0.153,-0.14,0.798,-82.276,-72.937,-152.955,0,0,0,
,0.159,-0.156,0.826,-28.138,-57.373,-133.24,0,0,0,
,0.174,-0.265,0.899,-109.62,-23.438,-108.338,0,0,0,
,0.209,-0.274,1.029,-288.331,-17.823,-39.551,0,0,0,
,0.198,-0.205,1.082,-401.978,-1.893,53.283,0,0,0,
,0.177,-0.153,1.082,-350.586,98.266,131.958,0,0,0,
,0.201,-0.264,1.103,-350.342,146.362,133.178,0,0,0,
,0.205,-0.394,1.1,-488.831,131.713,151.794,0,0,0,
,0.178,-0.403,1.059,-716.553,102.783,182.678,0,0,0,
,0.161,-0.347,1.13,-867.188,75.927,172.912,0,0,0,
,0.156,-0.123,1.277,-905.091,64.392,203.308,0,0,0,
,0.156,0.072,1.283,-716.553,132.751,201.66,0,0,0,
,0.167,0.052,1.204,-491.883,148.376,29.785,0,0,0,
,0.175,0.084,1.144,-269.349,58.532,-38.941,0,0,0,
,0.162,0.093,1.137,10.803,-66.224,-98.511,0,0,0,
,0.125,-0.048,1.035,229.126,-160.95,-227.539,0,0,0,
,0.06,-0.119,0.903,284.179,-256.043,-278.992,0,0,0,
,0.014,-0.058,0.899,293.823,-367.615,-259.522,0,0,0,
,-0.033,0.009,0.878,376.526,-376.099,-274.17,0,0,0,
,-0.073,-0.002,0.831,458.496,-339.417,-309.266,0,0,0,
,-0.1,0.013,0.751,460.754,-221.375,-259.461,0,0,0,
,0.032,-0.1,0.79,232.238,157.959,-85.206,0,0,0,
,0.112,-0.111,0.904,101.501,180.664,-10.132,0,0,0,
,0.149,-0.195,1.015,-98.877,192.138,105.59,0,0,0,
,0.15,-0.204,1.034,-352.539,215.088,180.481,0,0,0,
,0.145,-0.186,1.009,-549.073,257.995,221.313,0,0,0,
,0.161,-0.151,0.986,-737.244,297.18,215.149,0,0,0,
,0.188,-0.004,0.996,-804.627,279.602,236.511,0,0,0,
,0.215,0.126,1.02,-634.034,240.844,205.81,0,0,0,
,0.248,0.147,1.081,-340.821,175.659,151.672,0,0,0,
,0.281,0.029,1.098,-89.112,78.491,83.374,0,0,0,
,0.261,-0.075,1.1,25.756,-52.613,81.543,0,0,0,
,0.207,-0.157,1.084,-16.846,-120.484,66.345,0,0,0,
,0.163,-0.256,1.085,-242.493,-112.793,81.054,0,0,0,
,0.13,-0.172,1.049,-518.311,-40.589,118.774,0,0,0,
,0.135,-0.022,1.015,-674.805,45.532,120.849,0,0,0,
,0.154,0.093,1.001,-701.539,106.689,121.521,0,0,0,
,0.185,0.195,1.013,-641.907,133.056,126.098,0,0,0,
,0.2,0.259,0.987,-486.939,157.959,134.826,0,0,0,
,0.2,0.275,0.931,-346.924,159.973,148.803,0,0,0,
,0.199,0.275,0.917,-238.648,141.174,150.879,0,0,0,
,0.207,0.249,0.957,-142.884,117.248,148.315,0,0,0,
,0.21,0.23,0.989,-82.093,105.957,150.329,0,0,0,
,0.213,0.228,1.021,-14.466,94.116,157.653,0,0,0,
,0.224,0.148,1.053,-20.813,47.729,148.864,0,0,0,
,0.212,0.142,1.049,-131.958,17.15,162.78,0,0,0,
,0.192,0.178,1.036,-194.947,9.704,140.93,0,0,0,
,0.187,0.202,1.069,-185.73,-7.691,147.766,0,0,0,
,0.179,0.238,1.062,-139.954,-8.484,162.597,0,0,0,
,0.178,0.229,1.101,-75.013,-22.95,105.407,0,0,0,
,0.176,0.198,1.063,-93.384,-33.631,68.847,0,0,0,
,0.17,0.165,0.973,-149.72,-28.199,60.913,0,0,0,
,0.153,0.185,0.942,-197.571,-59.51,88.256,0,0,0,
,0.13,0.315,0.991,-148.133,-129.517,127.136,0,0,0,
,0.111,0.398,1.065,47.18,-124.268,32.653,0,0,0,
,0.112,0.319,1.017,196.289,-76.844,-66.407,0,0,0,
,0.108,0.225,0.926,272.277,-22.583,-58.594,0,0,0,
,0.111,0.158,0.876,337.829,-21.058,-36.744,0,0,0,
,0.111,0.158,0.865,358.276,-76.477,-63.416,0,0,0,
,0.077,0.288,0.865,430.847,-110.901,-75.623,0,0,0,
,0.021,0.377,0.906,624.328,-125.184,-113.709,0,0,0,
,-0.002,0.283,0.864,946.106,-6.226,-187.989,0,0,0,
,0.021,0.031,0.791,1154.846,98.266,-307.557,0,0,0,
,0.051,-0.139,0.784,1097.29,74.523,-332.764,0,0,0,
,0.059,-0.083,0.825,925.354,48.95,-273.682,0,0,0,
,0.023,-0.054,0.843,915.344,58.471,-297.364,0,0,0,
,0.024,-0.164,0.841,949.218,76.477,-340.638,0,0,0,
,0.024,-0.252,0.821,874.328,90.942,-351.319,0,0,0,
,0.031,-0.285,0.81,747.192,117.248,-344.91,0,0,0,
,0.072,-0.293,0.821,639.831,127.014,-367.005,0,0,0,
,0.108,-0.308,0.854,559.387,94.787,-347.474,0,0,0,
,0.114,-0.272,0.884,485.412,75.988,-362.793,0,0,0,
,0.124,-0.265,0.897,461.12,66.04,-363.953,0,0,0,
,0.123,-0.322,0.932,432.373,28.808,-345.704,0,0,0,
,0.115,-0.346,0.992,321.838,31.066,-311.158,0,0,0,
,0.138,-0.355,1,164.611,82.336,-321.106,0,0,0,
,0.192,-0.323,0.973,45.044,96.313,-296.998,0,0,0,
,0.231,-0.285,0.957,-30.03,41.381,-280.823,0,0,0,
,0.225,-0.276,0.965,-50.477,-49.5,-252.259,0,0,0,
,0.174,-0.271,1.004,-116.456,-97.962,-223.389,0,0,0,
,0.152,-0.267,1.016,-192.383,-46.57,-183.472,0,0,0,
,0.16,-0.29,1.002,-299.622,26.672,-137.635,0,0,0,
,0.194,-0.306,0.959,-493.531,74.89,-85.999,0,0,0,
,0.208,-0.298,0.938,-708.802,64.819,-47.303,0,0,0,
,0.208,-0.186,0.94,-857.911,38.757,12.695,0,0,0,
,0.211,-0.092,0.977,-924.378,37.597,50.537,0,0,0,
,0.239,-0.073,1.031,-970.459,70.312,77.514,0,0,0,
,0.311,-0.076,1.065,-1083.313,105.59,126.587,0,0,0,
,0.318,0.01,1.015,-1176.331,154.907,225.28,0,0,0,
,0.352,0.1,1.017,-1153.321,141.906,294.128,0,0,0,
,0.389,0.124,1.029,-1093.384,141.052,374.755,0,0,0,
,0.384,0.16,1.001,-1018.189,135.925,428.711,0,0,0,
,0.353,0.176,0.989,-936.402,126.831,434.875,0,0,0,
,0.321,0.196,0.996,-851.441,108.215,453.552,0,0,0,
,0.284,0.249,1.02,-768.555,91.796,471.496,0,0,0,
,0.244,0.272,1.024,-638.001,105.713,435.119,0,0,0,
,0.215,0.242,1.032,-558.716,109.985,396.362,0,0,0,
,0.189,0.278,1.063,-574.891,100.769,380.371,0,0,0,
,0.171,0.34,1.064,-505.433,99.06,342.956,0,0,0,
,0.14,0.321,1.056,-356.446,87.036,289.489,0,0,0,
,0.126,0.316,1.035,-243.836,81.604,254.15,0,0,0,
,0.109,0.333,1.006,-152.161,78.552,196.472,0,0,0,
,0.097,0.341,0.96,-78.797,101.806,119.751,0,0,0,
,0.072,0.358,0.925,35.339,103.515,99.853,0,0,0,
,0.071,0.382,0.901,205.932,124.633,66.284,0,0,0,
,0.076,0.374,0.887,379.699,125.671,-17.273,0,0,0,
,0.066,0.391,0.857,518.493,121.276,-71.106,0,0,0,
,0.071,0.322,0.834,668.64,123.535,-122.132,0,0,0,
,0.064,0.231,0.855,753.296,101.501,-169.251,0,0,0,
,0.077,0.187,0.854,777.526,116.882,-198.182,0,0,0,
,0.055,0.24,0.837,819.213,86.303,-248.658,0,0,0,
,0.046,0.237,0.832,953.43,111.267,-292.054,0,0,0,
,0.052,0.167,0.8,1102.722,169.616,-341.98,0,0,0,
,0.116,0.047,0.763,1197.265,153.442,-383.179,0,0,0,
,0.145,-0.031,0.801,1217.956,68.42,-404.725,0,0,0,
,0.138,-0.086,0.857,1216.797,23.193,-423.401,0,0,0,
,0.143,-0.139,0.895,1171.936,17.578,-439.393,0,0,0,
,0.164,-0.214,0.881,1088.867,2.99,-438.477,0,0,0,
,0.161,-0.25,0.886,960.144,-22.644,-440.613,0,0,0,
,0.187,-0.372,0.895,813.171,-25.635,-420.105,0,0,0,
,0.189,-0.422,0.942,560.485,-47.242,-369.69,0,0,0,
,0.203,-0.276,0.929,341.369,8.85,-299.988,0,0,0,
,0.27,-0.108,0.835,369.445,28.076,-246.46,0,0,0,
,0.311,-0.114,0.789,561.401,-82.581,-263.794,0,0,0,
,0.268,-0.292,0.805,719.787,-186.402,-253.174,0,0,0,
,0.221,-0.395,0.854,711.059,-200.989,-198.67,0,0,0,
,0.213,-0.491,0.909,663.208,-161.683,-196.473,0,0,0,
,0.225,-0.562,0.923,579.589,-83.741,-157.654,0,0,0,
,0.247,-0.549,0.881,518.737,-0.55,-176.697,0,0,0,
,0.249,-0.554,0.865,444.03,19.653,-172.364,0,0,0,
,0.269,-0.522,1.051,352.539,-83.435,-178.406,0,0,0,
,0.276,-0.456,1.14,219.543,-123.597,-32.105,0,0,0,
,0.237,-0.514,1.099,244.445,-50.477,-91.553,0,0,0,
,0.227,-0.615,0.961,166.809,13.122,-119.568,0,0,0,
,0.228,-0.605,0.838,135.254,5.065,-110.962,0,0,0,
,0.215,-0.618,0.793,165.832,-58.533,-69.397,0,0,0,
,0.176,-0.524,0.957,47.973,-100.892,-8.362,0,0,0,
,0.162,-0.375,1.018,-71.473,-21.424,40.405,0,0,0,
,0.16,-0.392,1.028,39.062,122.985,-38.636,0,0,0,
,0.204,-0.546,1.123,15.075,214.477,-93.384,0,0,0,
,0.249,-0.727,0.96,-179.688,248.413,-115.601,0,0,0,
,0.185,-0.002,0.903,-518.006,-155.64,244.506,0,0,0,
,0.099,0.032,0.929,-100.342,-197.937,95.031,0,0,0,
,0.061,-0.289,0.983,43.151,-54.932,104.126,0,0,0,
,0.094,-0.404,0.972,-75.989,62.194,179.321,0,0,0,
,0.118,-0.377,0.894,-179.383,100.952,242.981,0,0,0,
,0.135,-0.329,0.822,-146.851,72.326,208.374,0,0,0,
,0.141,-0.398,0.817,-2.93,10.559,177.551,0,0,0,
,0.117,-0.535,0.846,-28.565,-62.989,189.27,0,0,0,
,0.083,-0.627,0.892,-254.273,-45.96,203.613,0,0,0,
,0.09,-0.582,0.932,-506.592,43.273,212.829,0,0,0,
,0.125,-0.264,0.883,-549.683,106.323,221.374,0,0,0,
,0.185,-0.12,0.843,-273.621,65.795,150.573,0,0,0,
,0.173,-0.311,0.808,50.903,-53.223,71.899,0,0,0,
,0.091,-0.512,0.893,-11.597,-113.221,89.843,0,0,0,
,0.07,-0.525,0.989,-268.433,-7.874,113.159,0,0,0,
,0.162,-0.418,0.991,-433.35,104.858,137.512,0,0,0,
,0.228,-0.321,0.986,-454.956,38.208,124.878,0,0,0,
,0.195,-0.278,0.975,-417.969,-46.509,122.314,0,0,0,
,0.145,-0.269,0.965,-394.288,-38.331,114.38,0,0,0,
,0.151,-0.285,0.953,-441.163,10.253,115.295,0,0,0,
,0.189,-0.268,0.943,-525.025,33.447,151.977,0,0,0,
,0.197,-0.168,0.946,-560.242,28.442,176.452,0,0,0,
,0.19,-0.147,0.952,-513.977,-4.273,166.259,0,0,0,
,0.162,-0.169,0.936,-511.597,-6.47,186.767,0,0,0,
,0.148,-0.154,0.93,-566.834,9.765,188.11,0,0,0,
,0.159,-0.119,0.955,-610.901,16.479,214.843,0,0,0,
,0.166,-0.049,0.965,-628.235,5.981,211.12,0,0,0,
,0.157,-0.047,0.941,-602.356,9.338,212.28,0,0,0,
,0.154,-0.065,0.921,-609.986,0.854,210.754,0,0,0,
,0.151,0,0.898,-619.568,-17.762,220.214,0,0,0,
,0.138,0.025,0.911,-569.458,-40.772,198.547,0,0,0,
,0.144,0.01,0.914,-552.369,-29.297,192.382,0,0,0,
,0.135,0.016,0.862,-547.791,-31.495,182.861,0,0,0,
,0.132,0.035,0.847,-547.852,-61.585,164.672,0,0,0,
,0.121,0.058,0.843,-539.246,-82.215,131.836,0,0,0,
,0.111,0.115,0.924,-522.583,-115.906,115.417,0,0,0,
,0.096,0.166,0.956,-483.948,-86.976,52.49,0,0,0,
,0.096,0.213,0.945,-394.043,-47.547,19.653,0,0,0,
,0.12,0.206,0.945,-276.001,-9.034,-25.513,0,0,0,
,0.145,0.197,0.951,-111.268,1.22,-62.561,0,0,0,
,0.164,0.246,0.978,26.916,-22.706,-78.309,0,0,0,
,0.175,0.331,1.034,205.261,-51.209,-73.853,0,0,0,
,0.177,0.309,1.002,523.681,-31.434,-149.903,0,0,0,
,0.17,0.135,0.913,812.011,-12.269,-222.901,0,0,0,
,0.178,-0.035,0.907,823.547,-17.273,-223.267,0,0,0,
,0.207,0.005,1.021,723.022,-47.73,-192.139,0,0,0,
,0.203,0.183,1.05,914.123,-34.424,-141.053,0,0,0,
,0.2,0.015,0.948,1195.678,-20.264,-243.47,0,0,0,
,0.204,-0.105,0.893,1295.227,-30.884,-211.487,0,0,0,
,0.192,-0.131,0.884,1334.228,-63.294,-141.968,0,0,0,
,0.175,-0.288,1,1315.246,14.709,-181.946,0,0,0,
,0.195,-0.286,0.945,1276.245,101.806,-113.099,0,0,0,
,0.228,-0.398,0.879,1272.461,153.015,-137.391,0,0,0,
,0.254,-0.51,0.999,1170.532,126.098,-116.517,0,0,0,
,0.266,-0.472,1.002,953.125,48.461,-68.726,0,0,0,
,0.233,-0.443,0.94,840.942,47.912,-112.61,0,0,0,
,0.22,-0.445,0.93,875.671,80.81,-142.456,0,0,0,
,0.236,-0.482,0.928,877.746,98.693,-154.602,0,0,0,
,0.243,-0.545,0.941,833.801,81.604,-149.353,0,0,0,
,0.213,-0.674,0.877,646.85,90.271,-152.894,0,0,0,
,0.208,-0.726,0.836,442.688,153.625,-132.142,0,0,0,
,0.209,-0.58,0.85,326.233,164.184,-147.767,0,0,0,
,0.212,-0.586,0.871,290.161,145.813,-129.761,0,0,0,
,0.193,-0.614,0.891,182.617,135.864,-122.01,0,0,0,
,0.167,-0.735,0.732,49.499,176.696,-135.193,0,0,0,
,0.143,-0.811,0.724,-106.324,217.773,-141.297,0,0,0,
,0.153,-0.825,0.735,-361.817,228.088,-115.235,0,0,0,
,0.189,-0.836,0.894,-658.936,251.77,-165.833,0,0,0,
,0.196,-0.906,0.763,-1011.475,292.541,-257.569,0,0,0,
,0.182,-0.687,0.762,-1392.518,143.798,-130.86,0,0,0,
,0.147,-0.363,0.832,-1465.149,94.299,-110.047,0,0,0,
,0.166,-0.096,0.754,-1185.303,84.228,-134.217,0,0,0,
,0.145,-0.053,0.742,-745.423,44.982,-180.603,0,0,0,
,0.126,-0.168,0.75,-457.398,-42.664,-234.07,0,0,0,
,0.105,-0.31,0.755,-411.377,-107.056,-248.597,0,0,0,
,0.11,-0.426,0.855,-545.472,-104.126,-256.043,0,0,0,
,0.114,-0.525,0.886,-930.664,-95.826,-241.211,0,0,0,
,0.095,-0.397,0.84,-1401.856,-86.121,-127.32,0,0,0,
,0.078,-0.115,0.826,-1712.098,-76.539,-112.183,0,0,0,
,0.106,0.052,0.856,-1685.73,-37.354,-189.881,0,0,0,
,0.16,0.17,0.912,-1437.317,-10.071,-171.448,0,0,0,
,0.238,0.084,0.977,-1268.311,-100.098,-147.95,0,0,0,
,0.192,0.084,0.973,-1293.457,-174.866,-165.039,0,0,0,
,0.092,0.133,1.043,-1410.096,-56.763,-182.801,0,0,0,
,0.113,0.213,0.989,-1403.748,97.229,-121.827,0,0,0,
,0.203,0.324,0.943,-1379.029,114.074,-93.14,0,0,0,
,0.234,0.431,0.944,-1291.26,80.017,-97.901,0,0,0,
,0.234,0.451,0.988,-1038.392,83.129,-36.377,0,0,0,
,0.23,0.429,0.969,-870.24,63.72,15.808,0,0,0,
,0.247,0.444,0.939,-807.557,74.646,51.696,0,0,0,
,0.187,0.469,0.906,-652.405,101.074,99.548,0,0,0,
,0.154,0.426,0.919,-548.89,141.967,143.432,0,0,0,
,0.145,0.453,0.915,-545.899,185.119,169.494,0,0,0,
,0.168,0.53,0.917,-568.726,194.275,168.945,0,0,0,
,0.21,0.52,0.937,-549.378,188.232,161.01,0,0,0,
,0.197,0.592,0.897,-453.003,161.071,194.213,0,0,0,
,0.187,0.63,0.879,-324.707,142.212,222.839,0,0,0,
,0.181,0.659,0.892,-136.963,136.901,221.618,0,0,0,
,0.172,0.635,0.907,-1.831,143.31,203.247,0,0,0,
,0.17,0.64,0.91,65.002,157.776,203.125,0,0,0,
,0.191,0.646,0.854,180.542,149.78,193.542,0,0,0,
,0.181,0.587,0.744,340.759,124.939,165.71,0,0,0,
,0.207,0.656,0.923,543.884,27.343,232.177,0,0,0,
,0.144,0.628,0.911,809.753,66.65,205.383,0,0,0,
,0.123,0.527,0.878,928.344,126.892,193.908,0,0,0,
,0.159,0.384,0.901,799.56,149.109,162.963,0,0,0,
,0.167,0.316,0.963,553.772,99.914,167.358,0,0,0,
,0.149,0.397,1.001,416.565,99.853,218.261,0,0,0,
,0.145,0.477,0.993,460.388,120.483,257.019,0,0,0,
,0.137,0.497,0.93,553.1,145.691,230.468,0,0,0,
,0.151,0.467,0.86,732.849,148.559,173.889,0,0,0,
,0.142,0.373,0.818,932.067,140.747,149.047,0,0,0,
,0.146,0.266,0.843,1074.401,106.811,123.901,0,0,0,
,0.153,0.121,0.858,1004.272,28.381,73.913,0,0,0,
,0.107,0.144,0.839,857.238,-16.968,172.79,0,0,0,
,0.067,0.188,0.786,812.255,22.399,171.875,0,0,0,
,0.073,0.273,0.785,880.676,58.166,194.03,0,0,0,
,0.102,0.312,0.796,1056.335,118.835,209.289,0,0,0,
,0.122,0.292,0.786,1266.845,116.638,110.168,0,0,0,
,0.156,0.146,0.893,1486.511,38.086,98.144,0,0,0,
,0.126,-0.027,0.861,1661.926,43.518,76.965,0,0,0,
,0.124,-0.226,0.831,1638.61,22.277,53.649,0,0,0,
,0.115,-0.396,0.842,1489.074,12.939,50.598,0,0,0,
,0.14,-0.504,0.812,1301.391,-14.1,38.452,0,0,0,
,0.158,-0.517,0.8,1060.913,-34.18,-12.024,0,0,0,
,0.159,-0.505,0.799,872.497,-74.036,-72.205,0,0,0,
,0.132,-0.641,0.697,639.892,-85.572,-114.136,0,0,0,
,0.124,-0.648,0.693,503.662,-20.874,-135.498,0,0,0,
,0.118,-0.59,0.701,405.212,69.824,-153.504,0,0,0,
,0.138,-0.577,0.698,453.979,178.894,-178.04,0,0,0,
,0.183,-0.506,0.893,550.415,171.936,-172.364,0,0,0,
,0.234,-0.453,1.027,584.045,121.093,-157.288,0,0,0,
,0.229,-0.642,0.797,382.08,234.069,-257.63,0,0,0,
,0.244,-0.801,0.751,337.829,318.176,-363.587,0,0,0,
,0.31,-0.745,0.747,230.774,306.396,-257.142,0,0,0,
,0.336,-0.625,0.936,318.847,175.048,-243.897,0,0,0,
,0.277,-0.602,0.9,56.701,198.425,-207.215,0,0,0,
,0.273,-0.593,0.857,37.78,166.32,-200.745,0,0,0,
,0.245,-0.604,0.822,68.969,108.215,-160.584,0,0,0,
,0.213,-0.607,0.855,70.922,103.393,-103.089,0,0,0,
,0.179,-0.643,0.845,-7.691,127.38,-95.704,0,0,0,
,0.175,-0.593,0.819,-83.252,149.231,-62.867,0,0,0,
,0.22,-0.554,0.839,-86.853,218.872,-7.569,0,0,0,
,0.225,-0.587,0.863,-78.553,196.106,19.226,0,0,0,
,0.234,-0.613,0.847,-98.145,141.601,44.799,0,0,0,
,0.236,-0.66,0.895,-171.143,53.833,54.565,0,0,0,
,0.172,-0.7,0.944,-399.17,-16.907,91.125,0,0,0,
,0.141,-0.499,0.967,-544.068,-7.508,223.999,0,0,0,
,0.112,-0.502,0.927,-509.583,64.148,138.183,0,0,0,
,0.136,-0.447,0.797,-545.289,122.802,219.726,0,0,0,
,0.192,-0.42,0.812,-484.192,111.633,246.399,0,0,0,
,0.239,-0.42,0.824,-495.789,83.496,286.438,0,0,0,
,0.238,-0.438,0.88,-556.031,28.564,302.002,0,0,0,
,0.177,-0.523,0.887,-693.665,35.217,294.128,0,0,0,
,0.158,-0.494,0.849,-923.096,153.259,351.196,0,0,0,
,0.232,-0.294,0.819,-956.238,202.636,381.713,0,0,0,
,0.28,-0.269,0.85,-786.133,67.26,328.979,0,0,0,
,0.22,-0.36,0.859,-726.441,3.418,306.274,0,0,0,
,0.203,-0.34,0.753,-742.005,36.499,315.49,0,0,0,
,0.262,-0.253,0.819,-621.705,-42.237,212.768,0,0,0,
,0.209,-0.234,0.821,-541.993,-91.126,261.535,0,0,0,
,0.186,-0.245,0.809,-514.954,-62.317,199.829,0,0,0,
,0.219,-0.254,0.794,-508.24,-41.565,204.712,0,0,0,
,0.248,-0.226,0.815,-476.38,-54.383,192.993,0,0,0,
,0.251,-0.299,0.838,-428.284,-89.173,177.673,0,0,0,
,0.245,-0.287,0.853,-542.115,-90.149,165.161,0,0,0,
,0.248,-0.208,0.869,-624.329,-90.577,144.592,0,0,0,
,0.208,-0.014,0.877,-629.334,-81.177,58.593,0,0,0,
,0.209,0.052,0.884,-540.65,-18.067,32.043,0,0,0,
,0.246,0.088,0.879,-380.005,18.249,-9.217,0,0,0,
,0.278,0.124,0.845,-195.374,15.991,-40.65,0,0,0,
,0.294,0.136,0.83,15.93,-46.448,-80.75,0,0,0,
,0.29,0.114,0.887,239.502,-105.774,-148.255,0,0,0,
,0.267,0.069,0.914,446.777,-147.156,-169.678,0,0,0,
,0.232,0.009,0.95,616.516,-132.019,-189.026,0,0,0,
,0.235,-0.092,0.993,714.904,-55.97,-238.648,0,0,0,
,0.254,-0.143,1.005,719.665,8.056,-234.681,0,0,0,
,0.298,-0.156,1.046,704.956,50.17,-279.114,0,0,0,
,0.321,-0.097,1.034,801.086,103.454,-339.6,0,0,0,
,0.354,-0.263,0.877,1035.583,42.48,-378.602,0,0,0,
,0.348,-0.305,0.866,1115.661,-23.438,-348.145,0,0,0,
,0.342,-0.383,0.901,1160.4,-86.853,-325.44,0,0,0,
,0.326,-0.486,0.945,1099.609,-105.469,-325.379,0,0,0,
,0.308,-0.531,0.977,992.736,-84.9,-292.176,0,0,0,
,0.293,-0.539,0.938,874.694,1.098,-305.664,0,0,0,
,0.295,-0.58,0.897,779.174,77.392,-299.744,0,0,0,
,0.316,-0.58,0.885,665.161,120.178,-293.091,0,0,0,
,0.328,-0.602,0.857,582.763,116.882,-295.227,0,0,0,
,0.33,-0.644,0.893,498.474,64.27,-280.762,0,0,0,
,0.316,-0.726,0.917,305.297,49.133,-245.362,0,0,0,
,0.284,-0.679,0.886,41.687,96.618,-212.586,0,0,0,
,0.27,-0.584,0.862,-136.902,173.401,-195.435,0,0,0,
,0.288,-0.476,0.853,-105.042,209.106,-203.064,0,0,0,
,0.322,-0.476,0.941,59.082,184.204,-181.275,0,0,0,
,0.327,-0.505,0.985,84.899,114.746,-140.564,0,0,0,
,0.285,-0.502,1,45.471,94.299,-116.089,0,0,0,
,0.278,-0.587,0.945,-135.254,163.879,-87.708,0,0,0,
,0.303,-0.457,1.005,-244.996,101.318,-5.86,0,0,0,
,0.275,-0.34,0.933,-185.608,85.998,33.996,0,0,0,
,0.27,-0.422,0.863,-75.928,29.541,34.79,0,0,0,
,0.148,-0.6,0.775,-528.626,-50.904,215.82,0,0,0,
,0.123,-0.428,0.745,-742.127,67.565,301.208,0,0,0,
,0.166,-0.218,0.808,-619.019,136.047,268.371,0,0,0,
,0.248,-0.325,0.774,-320.191,128.112,140.197,0,0,0,
,0.256,-0.524,0.804,-314.881,3.234,160.949,0,0,0,
,-2.074,3.03,-2.508,3640.701,11120.704,5675.906,0,0,0,
,0.215,-0.326,0.903,-697.693,9.948,242.187,0,0,0,
,0.237,-0.334,0.881,-661.805,34.729,229.431,0,0,0,
,0.26,-0.361,0.872,-683.472,11.596,237.976,0,0,0,
,0.275,-0.351,0.861,-781.617,2.197,264.77,0,0,0,
,0.278,-0.287,0.836,-849.854,-23.865,266.113,0,0,0,
,0.276,-0.236,0.853,-887.207,-49.256,263.366,0,0,0,
,0.3,-0.223,0.897,-901.062,-43.824,236.938,0,0,0,
,0.319,-0.214,0.886,-959.107,-48.768,241.76,0,0,0,
,0.307,-0.152,0.848,-1016.419,-38.453,237.304,0,0,0,
,0.318,-0.126,0.846,-1045.838,-57.007,257.629,0,0,0,
,0.308,-0.039,0.861,-1082.581,-91.98,251.709,0,0,0,
,0.292,0.071,0.855,-1045.289,-75.501,260.315,0,0,0,
,0.3,0.109,0.84,-966.736,-40.955,221.923,0,0,0,
,0.322,0.16,0.842,-890.076,-37.72,182.312,0,0,0,
,0.332,0.219,0.864,-765.442,-70.557,147.277,0,0,0,
,0.302,0.234,0.86,-575.44,-111.084,117.553,0,0,0,
,0.275,0.213,0.877,-414.49,-135.743,55.297,0,0,0,
,0.259,0.178,0.886,-318.909,-111.268,13.977,0,0,0,
,0.272,0.149,0.846,-278.138,-73.487,-8.24,0,0,0,
,0.311,0.151,0.881,-329.285,-99.671,-55.359,0,0,0,
,0.321,0.22,0.846,-386.109,-116.089,-60.242,0,0,0,
,0.313,0.341,0.876,-329.163,-205.689,-69.519,0,0,0,
,0.293,0.429,0.956,-189.27,-231.141,-88.074,0,0,0,
,0.303,0.501,1.005,38.696,-183.411,-44.922,0,0,0,
,0.321,0.473,1.067,376.464,-125.428,-90.455,0,0,0,
,0.32,0.246,1.03,520.568,-106.019,-130.982,0,0,0,
,0.33,0.132,1.044,322.876,-164.124,-92.102,0,0,0,
,0.268,0.173,1.023,66.467,-222.596,-76.783,0,0,0,
,0.196,0.253,1.02,-43.519,-229.554,-92.774,0,0,0,
,0.142,0.273,0.997,-28.504,-169.251,-113.343,0,0,0,
,0.128,0.291,0.96,25.634,-86.67,-138.001,0,0,0,
,0.143,0.414,0.941,65.795,-105.225,-127.808,0,0,0,
,0.144,0.501,0.961,297.485,-161.927,-153.992,0,0,0,
,0.082,0.457,0.94,515.319,-228.882,-202.027,0,0,0,
,0.045,0.301,0.964,670.288,-224.793,-210.022,0,0,0,
,0.015,0.238,0.93,631.713,-221.863,-204.712,0,0,0,
,-0.008,0.24,0.925,527.16,-226.075,-205.872,0,0,0,
,-0.029,0.232,0.889,557.495,-185.73,-198.853,0,0,0,
,-0.023,0.166,0.831,596.923,-139.161,-213.807,0,0,0,
,0.004,0.098,0.815,589.721,-126.16,-233.338,0,0,0,
,0.024,0.1,0.828,567.016,-114.258,-185.73,0,0,0,
,0.03,0.036,0.864,575.256,-98.084,-184.754,0,0,0,
,0.041,-0.007,0.87,507.873,-58.716,-165.284,0,0,0,
,0.059,-0.09,0.871,403.137,-51.758,-175.599,0,0,0,
,0.089,-0.057,0.83,292.236,-75.684,-144.288,0,0,0,
,0.071,-0.013,0.864,224.914,-120.606,-182.19,0,0,0,
,0.068,-0.047,0.957,249.572,-142.945,-185.669,0,0,0,
,0.044,-0.075,0.988,249.878,-124.878,-173.462,0,0,0,
,0.034,-0.14,0.953,221.252,-102.051,-194.458,0,0,0,
,0.016,-0.17,0.959,119.384,-110.352,-184.266,0,0,0,
,0,-0.117,0.932,64.392,-90.027,-171.448,0,0,0,
,0.021,-0.153,0.952,93.933,-112.671,-189.026,0,0,0,
,-0.015,-0.182,1,3.295,-140.809,-188.843,0,0,0,
,-0.011,-0.166,0.982,-110.23,-97.84,-188.843,0,0,0,
,0.039,-0.152,0.95,-249.39,-54.2,-187.256,0,0,0,
,0.066,-0.121,0.919,-378.602,-13.55,-176.331,0,0,0,
,0.108,-0.124,0.948,-476.929,-9.583,-148.438,0,0,0,
,0.122,-0.044,1.069,-599.366,-0.855,-124.268,0,0,0,
,0.13,0.014,1.084,-652.894,84.167,-98.328,0,0,0,
,0.184,0.041,1.046,-731.08,114.257,-47.852,0,0,0,
,0.182,0.089,1.053,-822.754,94.726,-45.716,0,0,0,
,0.165,0.128,1.068,-877.442,105.957,-21.668,0,0,0,
,0.168,0.211,1.075,-841.309,119.69,17.517,0,0,0,
,0.171,0.248,1.089,-705.262,122.009,66.955,0,0,0,
,0.157,0.262,1.087,-516.968,132.629,110.229,0,0,0,
,0.143,0.252,1.084,-415.101,129.76,149.902,0,0,0,
,0.122,0.235,1.089,-460.877,125.732,140.991,0,0,0,
,0.115,0.198,1.097,-577.576,145.446,137.756,0,0,0,
,0.122,0.263,1.088,-717.591,154.724,138.855,0,0,0,
,0.127,0.314,1.096,-778.748,150.573,140.075,0,0,0,
,0.12,0.335,1.054,-790.589,148.376,145.63,0,0,0,
,0.097,0.417,1.037,-739.747,168.457,172.607,0,0,0,
,0.106,0.486,0.983,-575.379,192.566,184.143,0,0,0,
,0.137,0.504,0.99,-449.463,161.132,143.127,0,0,0,
,0.148,0.528,1.088,-298.035,100.341,120.605,0,0,0,
,0.129,0.597,1.12,-54.444,60.485,135.376,0,0,0,
,0.126,0.572,1.053,146.545,19.47,103.149,0,0,0,
,0.127,0.416,0.913,310.485,-29.541,29.907,0,0,0,
,0.121,0.299,0.838,313.964,-116.028,40.771,0,0,0,
,0.081,0.373,0.756,284.179,-196.167,27.832,0,0,0,
,0.032,0.538,0.759,422.79,-266.663,-8.362,0,0,0,
,-0.028,0.554,0.735,820.19,-263.123,-61.219,0,0,0,
,-0.075,0.364,0.709,1162.048,-247.742,-206.238,0,0,0,
,-0.103,0.111,0.753,1214.721,-250,-280.335,0,0,0,
,-0.137,0.017,0.775,1053.772,-235.169,-276.062,0,0,0,
,-0.147,0.046,0.837,846.252,-183.289,-294.373,0,0,0,
,-0.115,0.107,0.844,705.078,-86.304,-307.312,0,0,0,
,-0.036,0.08,0.873,656.921,-50.354,-342.225,0,0,0,
,0.012,0.01,0.83,585.815,-82.52,-340.516,0,0,0,
,0.01,-0.035,0.813,463.195,-136.17,-295.777,0,0,0,
,-0.028,-0.003,0.836,252.929,-141.968,-262.757,0,0,0,
,-0.049,0.072,0.856,120.544,-75.44,-220.215,0,0,0,
,-0.014,0.104,0.869,71.655,33.935,-191.102,0,0,0,
,0.037,0.089,0.885,-6.226,88.684,-143.738,0,0,0,
,0.064,0.093,0.954,-90.943,93.261,-110.169,0,0,0,
,0.076,0.121,1.013,-182.496,101.501,-84.29,0,0,0,
,0.086,0.142,1.028,-229.31,124.817,-60.975,0,0,0,
,0.091,0.16,0.977,-264.832,130.798,-18.311,0,0,0,
,0.098,0.212,1.01,-293.213,115.112,0.61,0,0,0,
,0.108,0.241,1.068,-245.789,126.342,35.278,0,0,0,
,0.129,0.249,1.127,-194.153,150.94,49.133,0,0,0,
,0.143,0.231,1.079,-144.532,184.753,62.072,0,0,0,
,0.162,0.181,1.017,-204.163,143.066,77.087,0,0,0,
,0.13,0.143,1.013,-332.642,69.213,96.435,0,0,0,
,0.118,0.11,1.026,-401.673,72.387,123.596,0,0,0,
,0.123,0.094,1.036,-582.581,76.538,139.465,0,0,0,
,0.133,0.138,1.005,-733.094,110.351,156.005,0,0,0,
,0.14,0.201,0.962,-815.369,171.63,188.598,0,0,0,
,0.157,0.255,0.982,-859.681,221.984,210.449,0,0,0,
,0.27,0.395,1.138,-880.799,296.875,233.764,0,0,0,
,0.374,0.42,1.038,-687.561,282.959,213.44,0,0,0,
,0.326,0.436,0.927,-447.327,108.703,212.768,0,0,0,
,0.176,0.387,0.937,-221.741,5.798,212.951,0,0,0,
,0.076,0.345,1.008,-194.947,80.017,216.247,0,0,0,
,0.083,0.336,1.035,-261.719,201.294,192.566,0,0,0,
,0.127,0.37,1.044,-320.13,248.657,184.692,0,0,0,
,0.149,0.45,1.057,-313.721,218.628,181.152,0,0,0,
,0.144,0.494,1.029,-246.033,143.127,138.733,0,0,0,
,0.117,0.518,1.024,-239.441,85.51,88.501,0,0,0,
,0.067,0.57,1.05,-186.036,30.212,80.2,0,0,0,
,0.03,0.597,1.027,-17.762,28.686,63.72,0,0,0,
,0.014,0.553,0.927,144.775,64.514,22.888,0,0,0,
,0.026,0.487,0.869,189.026,77.27,-11.902,0,0,0,
,0.04,0.483,0.804,239.929,92.041,-6.653,0,0,0,
,0.04,0.529,0.765,317.688,78.186,-8.484,0,0,0,
,0.031,0.531,0.774,430.481,62.011,-49.561,0,0,0,
,0.02,0.488,0.808,574.646,81.726,-70.313,0,0,0,
,0.032,0.363,0.779,692.566,97.106,-72.327,0,0,0,
,0.043,0.307,0.83,660.522,72.021,-81.849,0,0,0,
,0.031,0.32,0.883,605.468,60.241,-90.943,0,0,0,
,0.024,0.296,0.905,597.412,75.439,-114.319,0,0,0,
,0.047,0.257,0.894,587.097,88.928,-127.198,0,0,0,
,0.069,0.237,0.873,562.561,78.247,-122.315,0,0,0,
,0.079,0.259,0.897,570.373,64.636,-131.897,0,0,0,
,0.073,0.104,0.806,564.758,31.616,-149.537,0,0,0,
,0.032,0.16,0.909,336.425,4.577,-75.318,0,0,0,
,0.027,0.281,0.913,315.796,89.538,-91.126,0,0,0,
,0.087,0.222,0.887,367.492,128.234,-108.643,0,0,0,
,0.105,0.226,0.909,335.266,107.422,-83.13,0,0,0,
,0.118,0.251,0.916,337.341,119.201,-81.116,0,0,0,
,0.144,0.326,0.901,412.719,131.042,-73.548,0,0,0,
,0.183,0.279,0.895,553.283,94.787,-85.389,0,0,0,
,0.193,0.174,0.944,647.277,67.016,-56.763,0,0,0,
,0.19,0.091,0.978,665.039,52.49,-60.059,0,0,0,
,0.214,0.105,0.946,674.072,61.523,-65.43,0,0,0,
,0.202,0.105,0.885,778.076,33.935,-85.45,0,0,0,
,0.198,0.009,0.841,885.009,27.404,-112.305,0,0,0,
,0.188,-0.057,0.833,934.997,11.657,-125,0,0,0,
,0.188,-0.108,0.79,982.971,38.94,-157.471,0,0,0,
,0.164,-0.25,0.79,969.787,15.38,-148.438,0,0,0,
,0.213,-0.409,0.848,846.069,-4.029,-167.298,0,0,0,
,0.123,-0.302,1.033,597.29,36.804,-71.961,0,0,0,
,0.261,-0.333,1.002,434.448,79.223,-63.599,0,0,0,
,0.244,-0.213,0.966,330.078,17.273,-46.631,0,0,0,
,0.246,-0.113,0.902,365.234,5.981,-17.273,0,0,0,
,0.208,-0.287,0.898,514.038,-88.44,-6.714,0,0,0,
,0.22,-0.319,0.887,455.383,-71.167,0.793,0,0,0,
,0.239,-0.333,0.93,406.25,-87.464,16.784,0,0,0,
,0.268,-0.373,0.918,361.084,-101.136,14.038,0,0,0,
,0.285,-0.371,0.915,305.114,-144.043,29.296,0,0,0,
,0.278,-0.411,0.845,289.917,-191.468,37.048,0,0,0,
,0.25,-0.446,0.797,243.347,-241.639,74.768,0,0,0,
,0.229,-0.43,0.786,178.039,-239.075,119.262,0,0,0,
,0.26,-0.47,0.836,136.23,-241.944,131.836,0,0,0,
,0.306,-0.505,0.918,68.542,-236.695,160.888,0,0,0,
,0.286,-0.54,1.031,-115.906,-246.46,173.828,0,0,0,
,0.256,-0.473,1.024,-415.711,-246.644,224.426,0,0,0,
,0.22,-0.312,0.984,-648.743,-196.961,258.911,0,0,0,
,0.234,-0.274,0.925,-642.273,-111.573,245.056,0,0,0,
,0.264,-0.316,0.931,-624.695,-114.685,274.719,0,0,0,
,0.273,-0.294,0.998,-695.801,-187.134,322.509,0,0,0,
,0.247,-0.244,1.046,-778.87,-211.06,327.026,0,0,0,
,0.197,-0.222,1.01,-840.882,-174.134,300.048,0,0,0,
,0.17,-0.214,0.958,-913.453,-128.357,305.786,0,0,0,
,0.164,-0.183,1.002,-931.824,-102.723,333.984,0,0,0,
,0.159,-0.057,1.013,-891.358,-80.689,380.92,0,0,0,
,0.139,0.007,1.044,-755.188,-90.577,355.774,0,0,0,
,0.107,-0.038,1.043,-666.748,-101.746,278.991,0,0,0,
,0.073,-0.119,1.116,-684.693,-76.233,225.769,0,0,0,
,0.052,-0.056,1.083,-811.89,-21.119,266.967,0,0,0,
,0.037,0.057,1.088,-844.239,36.56,247.558,0,0,0,
,0.035,0.162,1.135,-777.405,51.757,209.228,0,0,0,
,0.034,0.263,1.147,-594.056,58.105,208.862,0,0,0,
,0.042,0.286,1.127,-327.149,25.817,184.692,0,0,0,
,0.033,0.234,1.077,-177.002,-3.052,149.414,0,0,0,
,0.012,0.194,1.032,-149.414,-40.406,123.047,0,0,0,
,-0.022,0.185,0.999,-140.564,-58.35,104.614,0,0,0,
,-0.035,0.263,0.983,-69.642,-63.111,112.854,0,0,0,
,-0.033,0.324,1.029,108.947,-40.223,88.501,0,0,0,
,-0.04,0.337,0.958,260.803,34.729,12.207,0,0,0,
,-0.008,0.246,0.946,345.947,50.109,-5.738,0,0,0,
,-0.026,0.228,0.926,442.077,68.603,14.404,0,0,0,
,0,0.173,0.936,455.566,79.589,-10.987,0,0,0,
,-0.001,0.111,0.891,458.74,38.086,-2.625,0,0,0,
,-0.029,0.103,0.895,399.841,20.385,15.197,0,0,0,
,-0.05,0.144,0.879,391.052,49.011,-29.664,0,0,0,
,-0.024,0.257,0.893,489.257,35.583,-29.419,0,0,0,
,-0.027,0.267,0.815,736.755,22.033,-30.213,0,0,0,
,-0.059,0.04,0.827,858.642,63.781,-31.311,0,0,0,
,-0.024,-0.123,0.771,772.583,123.901,0.061,0,0,0,
,0.023,-0.181,0.759,634.216,109.192,49.682,0,0,0,
,-0.01,-0.219,0.824,472.107,101.318,126.648,0,0,0,
,-0.002,-0.208,0.853,344.97,175.171,210.693,0,0,0,
,0.092,-0.224,0.851,293.579,183.593,255.981,0,0,0,
,0.107,-0.165,0.967,334.594,161.255,300.659,0,0,0,
,0.179,-0.17,1.057,411.682,116.333,308.838,0,0,0,
,0.154,-0.191,0.974,493.347,55.236,332.397,0,0,0,
,0.104,-0.276,1.025,457.58,-75.928,177.002,0,0,0,
,0.075,-0.286,1.054,374.206,-15.381,115.6,0,0,0,
,0.112,-0.28,0.971,270.263,24.963,42.358,0,0,0,
,0.129,-0.303,0.896,209.228,5.371,28.015,0,0,0,
,0.13,-0.277,0.928,149.841,-38.453,44.982,0,0,0,
,0.135,-0.224,0.992,134.887,-51.697,76.049,0,0,0,
,0.118,-0.197,1.011,141.296,-32.959,74.157,0,0,0,
,0.113,-0.201,0.991,126.342,-6.348,16.54,0,0,0,
,0.128,-0.235,0.945,85.449,20.752,-0.55,0,0,0,
,0.155,-0.283,0.857,54.809,47.424,-42.603,0,0,0,
,0.158,-0.275,0.809,52.49,12.207,-48.279,0,0,0,
,0.151,-0.142,0.801,181.274,-0.306,-37.11,0,0,0,
,0.158,-0.078,0.906,513.61,29.724,-55.176,0,0,0,
,0.15,-0.188,0.945,831.848,-18.616,-79.834,0,0,0,
,0.13,-0.347,0.903,979.309,-80.384,-25.574,0,0,0,
,0.151,-0.33,0.832,1074.829,-9.217,31.066,0,0,0,
,0.157,-0.368,0.868,1186.889,142.517,-67.2,0,0,0,
,0.199,-0.401,0.823,1255.615,186.279,-163.086,0,0,0,
,0.217,-0.561,0.727,1344.482,212.768,-208.558,0,0,0,
,0.22,-0.724,0.76,1281.799,176.574,-156.617,0,0,0,
,0.239,-0.75,0.78,1014.282,136.474,-84.534,0,0,0,
,0.22,-0.756,0.764,876.037,131.775,-116.883,0,0,0,
,0.22,-0.832,0.719,760.498,145.996,-162.354,0,0,0,
,0.23,-0.859,0.776,593.017,179.138,-187.195,0,0,0,
,0.225,-0.86,0.743,395.019,208.862,-214.783,0,0,0,
,0.209,-0.813,0.703,238.586,227.661,-240.357,0,0,0,
,0.193,-0.723,0.715,177.124,247.07,-263.062,0,0,0,
,0.184,-0.659,0.738,189.453,277.832,-291.199,0,0,0,
,0.173,-0.749,0.661,191.772,312.317,-299.5,0,0,0,
,0.179,-0.74,0.666,202.636,354.187,-283.936,0,0,0,
,0.198,-0.77,0.66,210.632,353.759,-257.752,0,0,0,
,0.198,-0.791,0.683,158.447,347.107,-241.517,0,0,0,
,0.208,-0.784,0.729,90.637,366.333,-257.264,0,0,0,
,0.225,-0.753,0.793,25.817,375.122,-251.831,0,0,0,
,0.225,-0.699,0.788,-42.298,362.548,-255.066,0,0,0,
,0.229,-0.642,0.81,-0.55,355.957,-260.132,0,0,0,
,0.239,-0.687,0.827,46.752,355.346,-252.32,0,0,0,
,0.243,-0.714,0.812,44.738,332.458,-216.187,0,0,0,
,0.238,-0.742,0.805,-6.043,302.551,-163.575,0,0,0,
,0.23,-0.727,0.805,-118.531,275.634,-135.743,0,0,0,
,0.244,-0.682,0.87,-168.58,256.469,-113.892,0,0,0,
,0.263,-0.624,0.903,-164.612,241.027,-71.595,0,0,0,
,0.272,-0.544,0.911,-89.6,157.348,-41.504,0,0,0,
,0.256,-0.585,0.879,26.977,91.003,-6.287,0,0,0,
,0.23,-0.679,0.876,21.606,50.476,31.005,0,0,0,
,0.215,-0.683,0.921,-118.47,-5.249,48.156,0,0,0,
,0.199,-0.688,0.911,-235.413,13.61,132.934,0,0,0,
,0.166,-0.667,0.817,-299.683,80.932,146.301,0,0,0,
,0.224,-0.682,0.793,-333.68,66.101,185.669,0,0,0,
,0.229,-0.719,0.693,-379.517,45.959,201.355,0,0,0,
,0.218,-0.75,0.712,-441.529,8.789,241.272,0,0,0,
,0.176,-0.753,0.717,-521.79,-22.95,228.698,0,0,0,
,0.139,-0.602,0.749,-611.451,-7.019,223.388,0,0,0,
,0.144,-0.472,0.863,-433.289,-9.888,239.196,0,0,0,
,0.153,-0.717,0.79,-256.531,7.629,142.334,0,0,0,
,0.135,-0.986,0.685,-378.296,31.555,180.969,0,0,0,
,0.147,-0.899,0.792,-768.372,-77.515,253.967,0,0,0,
,0.1,-0.636,0.839,-902.344,-34.485,299.499,0,0,0,
,0.116,-0.525,0.784,-850.403,-0.733,235.168,0,0,0,
,0.275,-0.38,0.907,-848.084,-6.958,188.72,0,0,0,
,0.307,-0.339,0.904,-805.542,-25.269,190.002,0,0,0,
,0.301,-0.338,0.839,-785.828,-65.796,177.734,0,0,0,
,0.256,-0.312,0.788,-802.002,-93.995,205.81,0,0,0,
,0.23,-0.272,0.781,-847.657,-88.196,191.894,0,0,0,
,0.195,-0.234,0.787,-899.476,-72.815,180.542,0,0,0,
,0.243,-0.14,0.857,-933.777,-6.531,143.554,0,0,0,
,0.299,-0.086,0.849,-898.621,-45.716,132.873,0,0,0,
,0.29,-0.106,0.868,-819.214,-56.336,38.269,0,0,0,
,0.283,-0.095,0.807,-850.892,-115.845,33.569,0,0,0,
,0.261,-0.088,0.781,-944.519,-177.979,22.827,0,0,0,
,0.256,0.012,0.711,-1074.402,-194.214,43.884,0,0,0,
,0.266,0.17,0.721,-1152.161,-280.945,48.095,0,0,0,
,0.218,0.347,0.763,-688.233,-365.906,-182.496,0,0,0,
,0.191,0.29,0.75,-523.499,-344.239,-244.935,0,0,0,
,0.197,0.253,0.765,-457.459,-302.063,-311.951,0,0,0,
,0.235,0.291,0.87,-441.651,-301.575,-311.463,0,0,0,
,0.26,0.379,0.961,-396.973,-268.433,-317.078,0,0,0,
,0.289,0.389,0.955,-267.64,-232.361,-378.113,0,0,0,
,0.315,0.338,0.972,-125.977,-254.822,-383.789,0,0,0,
,0.3,0.385,0.993,-85.877,-326.233,-346.924,0,0,0,
,0.228,0.38,0.951,32.531,-350.403,-381.592,0,0,0,
,0.161,0.353,0.945,35.217,-316.895,-380.066,0,0,0,
,0.147,0.33,0.932,34.118,-221.985,-408.814,0,0,0,
,0.194,0.346,0.918,12.39,-170.411,-383.057,0,0,0,
,0.229,0.404,0.927,42.114,-180.787,-372.681,0,0,0,
,0.187,0.473,0.98,90.881,-204.773,-364.258,0,0,0,
,0.157,0.628,0.952,366.699,-155.213,-317.2,0,0,0,
,0.222,0.677,0.998,834.777,-179.627,-247.62,0,0,0,
,0.256,0.469,1.073,1168.213,-234.803,-222.29,0,0,0,
,0.185,0.22,1.108,1022.949,-255.799,-209.168,0,0,0,
,0.144,0.197,1.106,646.789,-189.209,-172.852,0,0,0,
,0.222,0.22,1.135,348.022,-214.295,-129.456,0,0,0,
,0.229,0.407,1.053,315.673,-271.546,-67.078,0,0,0,
,0.13,0.551,1.012,499.145,-372.437,-75.623,0,0,0,
,0.075,0.413,1.051,699.89,-414.124,-62.867,0,0,0,
,-0.033,0.246,0.997,714.843,-446.289,-82.581,0,0,0,
,-0.162,0.116,0.958,701.538,-410.34,-72.327,0,0,0,
,-0.237,0.007,0.893,643.554,-335.022,-56.824,0,0,0,
,-0.308,-0.027,0.884,592.895,-262.269,-39.429,0,0,0,
,-0.335,-0.067,0.887,570.495,-153.87,-50.721,0,0,0,
,-0.309,-0.158,0.896,447.692,-64.331,-57.618,0,0,0,
,-0.269,-0.247,0.842,228.088,7.019,-70.191,0,0,0,
,-0.189,-0.221,0.833,16.357,71.655,-49.5,0,0,0,
,-0.106,-0.135,0.865,-99.244,76.782,-38.514,0,0,0,
,-0.054,-0.106,0.955,-105.957,66.955,-31.739,0,0,0,
,-0.021,-0.092,1.02,-177.674,102.844,-12.207,0,0,0,
,0.062,-0.078,1.035,-265.686,152.038,23.071,0,0,0,
,0.083,-0.023,0.98,-433.96,173.217,82.336,0,0,0,
,0.1,0.068,0.997,-722.535,168.274,66.833,0,0,0,
,0.145,0.132,0.987,-843.934,190.857,72.143,0,0,0,
,0.214,0.108,1.065,-765.992,179.199,115.966,0,0,0,
,0.177,0.217,1.157,-630.555,120.056,199.463,0,0,0,
,0.13,0.197,1.162,-392.701,108.581,222.29,0,0,0,
,0.109,-0.009,1.149,-299.317,86.303,254.333,0,0,0,
,0.017,0.024,1.168,-544.312,66.223,221.801,0,0,0,
,-0.001,0.086,1.208,-731.324,93.689,125.305,0,0,0,
,0.05,0.097,1.147,-752.137,109.985,96.74,0,0,0,
,0.044,0.197,1.078,-705.262,64.453,80.627,0,0,0,
,0.022,0.318,1.024,-509.644,49.377,65.612,0,0,0,
,-0.004,0.452,1.026,-117.432,39.794,75.805,0,0,0,
,-0.011,0.644,0.889,391.784,25.146,86.364,0,0,0,
,-0.011,0.451,0.913,864.135,-35.401,-12.635,0,0,0,
,-0.038,0.138,0.851,1060.18,-109.803,-166.443,0,0,0,
,-0.089,0,0.881,927.795,-162.476,-166.687,0,0,0,
,-0.139,0.099,0.907,771.301,-152.1,-125.123,0,0,0,
,-0.119,0.087,0.914,763.183,-105.896,-163.941,0,0,0,
,-0.106,0.039,0.86,678.65,-133.484,-171.814,0,0,0,
,-0.126,0.241,0.899,627.319,-200.806,-125.367,0,0,0,
,-0.117,0.148,0.82,838.379,-111.817,-179.993,0,0,0,
,-0.1,-0.033,0.806,872.863,-159.302,-189.637,0,0,0,
,-0.187,-0.104,0.865,777.893,-196.9,-185.914,0,0,0,
,-0.227,-0.185,0.834,661.193,-93.506,-175.66,0,0,0,
,-0.172,-0.259,0.809,437.622,-8.301,-193.482,0,0,0,
,-0.13,-0.169,0.75,235.595,18.493,-178.772,0,0,0,
,-0.082,-0.123,0.76,174.865,28.625,-169.068,0,0,0,
,-0.055,-0.077,0.815,167.053,56.213,-139.405,0,0,0,
,-0.038,-0.08,0.909,168.701,133.056,-110.413,0,0,0,
,0.024,-0.122,0.995,143.615,202.27,-108.399,0,0,0,
,0.101,-0.309,0.982,36.132,232.299,-93.323,0,0,0,
,0.121,-0.357,1.003,-237.122,218.017,-85.267,0,0,0,
,0.128,-0.264,1.081,-545.533,227.111,-63.965,0,0,0,
,0.165,-0.063,1.18,-781.922,245.178,-42.176,0,0,0,
,0.253,0.056,1.217,-841.98,254.882,-12.33,0,0,0,
,0.323,0.083,1.22,-811.463,200.622,41.992,0,0,0,
,0.305,0.186,1.194,-718.567,125.061,114.135,0,0,0,
,0.243,0.087,1.099,-551.392,83.496,161.56,0,0,0,
,0.178,0.086,1.097,-500.306,47.424,214.843,0,0,0,
,0.137,0.165,1.118,-375.855,57.19,276.367,0,0,0,
,0.122,0.153,1.154,-241.333,50.109,270.874,0,0,0,
,0.096,0.052,1.112,-238.099,25.329,213.073,0,0,0,
,0.061,0.018,1.105,-305.298,18.981,177.063,0,0,0,
,0.053,0.082,1.11,-310.425,32.592,179.504,0,0,0,
,0.065,0.093,1.104,-259.522,39.123,161.743,0,0,0,
,0.058,0.099,1.118,-222.107,8.239,148.864,0,0,0,
,0.031,0.127,1.087,-220.154,-14.893,126.098,0,0,0,
,-0.006,0.107,1.03,-224.305,-21.607,68.359,0,0,0,
,-0.013,0.119,1.022,-185.669,-4.212,57.251,0,0,0,
,-0.004,0.169,1.023,-110.962,4.089,68.847,0,0,0,
,-0.005,0.197,1.029,-7.264,14.099,68.054,0,0,0,
,0,0.209,1.003,81.787,18.188,31.555,0,0,0,
,-0.018,0.199,0.977,115.051,8.728,-26.429,0,0,0,
,-0.005,0.224,0.974,192.871,4.089,-28.931,0,0,0,
,0.004,0.221,0.93,358.642,8.056,-33.57,0,0,0,
,0.01,0.148,0.927,450.683,-40.772,-67.383,0,0,0,
,-0.022,0.156,0.943,485.29,-91.919,-75.257,0,0,0,
,-0.069,0.143,0.974,521.362,-58.96,-84.351,0,0,0,
,-0.065,0.1,0.956,573.73,-9.888,-112.183,0,0,0,
,-0.058,0.025,0.913,584.655,8.667,-134.339,0,0,0,
,-0.067,0.104,0.861,592.834,-19.654,-140.442,0,0,0,
,-0.069,0.14,0.855,692.871,-32.715,-158.692,0,0,0,
,-0.084,0.1,0.861,873.352,-34.18,-183.899,0,0,0,
,-0.091,-0.028,0.837,996.704,-37.842,-218.018,0,0,0,
,-0.116,-0.193,0.801,989.013,-36.133,-198.67,0,0,0,
,-0.144,-0.257,0.799,850.83,-22.828,-173.645,0,0,0,
,-0.144,-0.277,0.802,681.884,50.537,-143.494,0,0,0,
,-0.101,-0.315,0.779,549.011,135.437,-139.832,0,0,0,
,-0.026,-0.308,0.775,381.042,171.203,-143.982,0,0,0,
,0.028,-0.198,0.829,258.667,138.183,-148.743,0,0,0,
,0.052,-0.11,0.895,310.852,107.666,-120.667,0,0,0,
,0.048,-0.177,0.952,401.367,74.523,-158.692,0,0,0,
,0.037,-0.285,0.952,369.629,72.448,-180.298,0,0,0,
,0.062,-0.331,0.917,249.389,72.692,-178.772,0,0,0,
,0.093,-0.324,0.901,139.77,62.744,-180.42,0,0,0,
,0.125,-0.266,1.018,51.086,18.188,-150.757,0,0,0,
,0.145,-0.258,1.122,-18.921,11.779,-50.965,0,0,0,
,0.069,-0.346,1.063,-245.85,27.832,-86.426,0,0,0,
,0.062,-0.194,1.008,-407.105,107.238,-33.814,0,0,0,
,0.15,-0.154,0.953,-307.007,133.361,-27.588,0,0,0,
,0.139,-0.187,1.08,-292.115,-38.269,44.067,0,0,0,
,0.098,-0.225,1.071,-379.761,4.15,72.265,0,0,0,
,0.118,-0.257,1.033,-505.555,45.471,80.81,0,0,0,
,0.139,-0.271,0.989,-631.958,48.889,97.9,0,0,0,
,0.134,-0.261,0.943,-768.372,40.222,148.742,0,0,0,
,0.147,-0.117,1.045,-847.657,47.424,213.623,0,0,0,
,0.179,-0.021,1.114,-823.487,81.909,240.051,0,0,0,
,0.212,0.016,1.121,-758.301,92.956,263.183,0,0,0,
,0.213,0.002,1.094,-668.702,72.753,267.334,0,0,0,
,0.187,-0.009,1.062,-543.702,47.424,266.723,0,0,0,
,0.174,-0.033,1.142,-439.209,20.69,303.222,0,0,0,
,0.144,0,1.142,-362,11.291,322.57,0,0,0,
,0.094,-0.026,1.12,-355.469,-1.954,277.404,0,0,0,
,0.056,0.008,1.101,-392.273,14.038,258.972,0,0,0,
,0.039,0.088,1.071,-348.206,45.959,246.032,0,0,0,
,0.027,0.185,1.07,-244.935,62.866,257.568,0,0,0,
,0.021,0.221,1.159,-119.69,45.898,244.018,0,0,0,
,0.015,0.182,1.15,-49.073,58.166,240.234,0,0,0,
,0.002,0.17,1.076,-73.06,82.641,236.084,0,0,0,
,0,0.172,1.006,-155.762,95.031,249.633,0,0,0,
,-0.003,0.258,1.004,-138.855,83.068,288.208,0,0,0,
,-0.035,0.284,0.988,20.752,101.013,313.415,0,0,0,
,-0.017,0.255,0.983,120.971,79.65,271.179,0,0,0,
,-0.021,0.225,0.968,210.754,113.769,288.94,0,0,0,
,-0.009,0.215,0.951,325.866,143.798,314.453,0,0,0,
,0.02,0.17,0.908,402.526,168.151,329.284,0,0,0,
,0.057,0.201,0.898,514.587,137.634,326.477,0,0,0,
,0.008,-0.063,0.998,892.883,-14.954,283.752,0,0,0,
,-0.013,-0.093,0.951,844.36,60.791,317.993,0,0,0,
,0.02,-0.076,0.84,863.281,127.258,356.872,0,0,0,
,0.106,-0.025,0.657,960.51,148.376,385.803,0,0,0,
,0.127,-0.084,0.622,1100.891,10.009,339.538,0,0,0,
,0.071,-0.183,0.673,1212.036,-101.014,364.624,0,0,0,
,0.029,-0.206,0.717,1340.332,-64.026,450.622,0,0,0,
,0.018,-0.317,0.748,1420.898,46.875,375.305,0,0,0,
,0.061,-0.357,0.718,1434.021,149.597,381.775,0,0,0,
,0.098,-0.357,0.566,1575.317,263,343.383,0,0,0,
,0.124,-0.493,0.503,1696.96,309.692,218.75,0,0,0,
,0.101,-0.727,0.586,1715.881,387.024,123.84,0,0,0,
,0.233,-0.906,0.645,1281.433,408.447,135.864,0,0,0,
,0.268,-0.769,0.602,1092.834,401.062,81.97,0,0,0,
,0.292,-0.764,0.532,1168.457,392.944,-66.529,0,0,0,
,0.401,-0.975,0.672,1148.742,116.699,-269.715,0,0,0,
,0.438,-1.002,0.702,804.687,30.273,-8.912,0,0,0,
,0.367,-0.729,0.572,647.461,-168.58,45.654,0,0,0,
,0.281,-0.943,0.568,760.376,-290.528,33.264,0,0,0,
,0.186,-1.066,0.617,484.436,-156.495,82.58,0,0,0,
,0.174,-0.959,0.552,207.214,125.732,-50.599,0,0,0,
,0.329,-0.881,0.524,105.835,154.541,-111.084,0,0,0,
,0.224,-0.957,0.488,2.563,253.601,-165.406,0,0,0,
,0.26,-1.036,0.461,-127.381,322.387,-258.545,0,0,0,
,0.34,-1.024,0.485,-201.477,341.125,-301.697,0,0,0,
,0.337,-0.807,0.512,-244.019,350.036,-334.656,0,0,0,
,0.323,-0.725,0.583,-208.008,359.68,-374.512,0,0,0,
,0.302,-0.674,0.663,-135.987,402.832,-396.302,0,0,0,
,0.258,-0.85,0.559,-118.958,432.983,-433.167,0,0,0,
,0.288,-0.838,0.506,-201.355,396.118,-355.042,0,0,0,
,0.324,-0.716,0.687,-228.028,335.876,-278.931,0,0,0,
,0.302,-0.669,0.838,-203.858,339.721,-254.395,0,0,0,
,0.289,-0.62,0.853,-48.462,385.559,-265.076,0,0,0,
,0.282,-0.63,0.886,59.753,389.465,-320.13,0,0,0,
,0.251,-0.799,0.715,1.831,334.167,-370.606,0,0,0,
,0.196,-0.895,0.536,-50.538,347.473,-284.363,0,0,0,
,0.225,-0.847,0.568,-80.323,311.706,-185.364,0,0,0,
,0.258,-0.855,0.668,-126.526,293.701,-100.586,0,0,0,
,0.276,-0.771,0.815,-160.401,273.681,-58.716,0,0,0,
,0.268,-0.711,0.797,-159.729,309.387,-69.825,0,0,0,
,0.277,-0.737,0.745,-67.566,302.429,-138.672,0,0,0,
,0.304,-0.857,0.759,-42.298,226.684,-120.789,0,0,0,
,0.271,-0.914,0.726,-132.996,167.602,-42.298,0,0,0,
,0.252,-0.799,0.733,-173.523,105.041,29.48,0,0,0,
,0.27,-0.693,0.72,-106.873,41.87,104.614,0,0,0,
,0.272,-0.715,0.759,-100.525,-75.684,164.184,0,0,0,
,0.254,-0.816,0.743,-130.127,-148.56,223.877,0,0,0,
,0.175,-0.839,0.587,-208.313,-121.033,239.99,0,0,0,
,0.164,-0.763,0.608,-227.234,-67.383,319.397,0,0,0,
,0.17,-0.717,0.778,-319.886,-47.852,270.507,0,0,0,
,0.202,-0.776,0.786,-371.216,-5.005,289.184,0,0,0,
,0.265,-0.864,0.681,-518.189,-53.223,339.233,0,0,0,
,0.254,-0.836,0.58,-683.655,-43.58,387.329,0,0,0,
,0.245,-0.596,0.556,-726.868,-72.449,369.995,0,0,0,
,0.216,-0.59,0.585,-601.746,-129.212,334.045,0,0,0,
,0.2,-0.815,0.673,-654.969,-146.668,264.465,0,0,0,
,0.21,-0.785,0.744,-945.923,-52.613,298.462,0,0,0,
,0.25,-0.609,0.777,-998.78,-21.119,254.821,0,0,0,
,0.267,-0.551,0.745,-931.153,-47.303,246.948,0,0,0,
,0.244,-0.445,0.72,-891.48,-53.467,247.741,0,0,0,
,0.226,-0.356,0.719,-746.521,-48.34,217.102,0,0,0,
,0.226,-0.384,0.725,-612.793,-9.644,192.382,0,0,0,
,0.247,-0.523,0.716,-601.807,15.075,195.007,0,0,0,
,0.312,-0.543,0.702,-704.529,66.162,218.811,0,0,0,
,0.371,-0.423,0.681,-745.85,7.446,226.745,0,0,0,
,0.353,-0.411,0.742,-719.422,-88.99,196.777,0,0,0,
,0.301,-0.352,0.783,-724.671,-135.071,180.053,0,0,0,
,0.262,-0.294,0.842,-778.809,-139.771,126.464,0,0,0,
,0.264,-0.238,0.884,-811.097,-86.243,108.337,0,0,0,
,0.328,-0.093,0.874,-776.978,-29.847,77.575,0,0,0,
,0.374,-0.124,0.844,-581.543,-70.13,9.338,0,0,0,
,0.351,-0.212,0.789,-506.714,-123.597,4.333,0,0,0,
,0.317,-0.245,0.786,-569.642,-149.414,-5.005,0,0,0,
,0.276,-0.267,0.777,-713.013,-112.061,-37.659,0,0,0,
,0.282,-0.152,0.779,-866.578,-78.431,-41.504,0,0,0,
,0.318,-0.002,0.814,-859.253,-75.135,-93.506,0,0,0,
,0.333,-0.009,0.819,-775.147,-100.769,-152.283,0,0,0,
,0.335,0.009,0.751,-814.942,-164.246,-186.463,0,0,0,
,0.329,0.114,0.832,-829.651,-261.231,-193.421,0,0,0,
,0.296,0.135,0.893,-698.731,-253.907,-284.363,0,0,0,
,0.275,0.132,0.952,-646.302,-203.797,-341.797,0,0,0,
,0.283,0.113,0.928,-636.963,-145.813,-298.218,0,0,0,
,0.306,0.192,0.968,-629.212,-161.622,-291.138,0,0,0,
,0.299,0.195,1.053,-557.496,-173.645,-332.154,0,0,0,
,0.294,0.284,1.1,-535.34,-149.72,-331.238,0,0,0,
,0.292,0.4,1.132,-457.398,-122.498,-320.313,0,0,0,
,0.3,0.342,1.023,-190.979,-49.866,-375.916,0,0,0,
,0.32,0.173,0.931,-9.705,-79.895,-318.421,0,0,0,
,0.329,0.238,0.977,-100.281,-220.032,-295.105,0,0,0,
,0.328,0.397,1.163,-6.165,-393.921,-257.813,0,0,0,
,0.227,0.472,1.153,215.82,-345.704,-274.048,0,0,0,
,0.195,0.338,1.101,420.959,-254.883,-321.167,0,0,0,
,0.211,0.186,0.918,412.841,-278.26,-255.86,0,0,0,
,0.145,0.163,0.992,477.478,-239.075,-234.925,0,0,0,
,0.131,0.135,1.067,432.312,-112.427,-225.647,0,0,0,
,0.17,0.032,1.095,391.54,-7.691,-205.933,0,0,0,
,0.213,0.018,1.131,313.72,47.424,-224.244,0,0,0,
,0.235,0.071,1.176,200.134,-12.146,-171.204,0,0,0,
,0.236,0.159,1.224,184.204,-67.933,-167.42,0,0,0,
,0.208,0.096,1.108,236.389,-48.462,-168.091,0,0,0,
,0.22,0.038,1.019,235.901,-79.468,-161.438,0,0,0,
,0.185,0.036,0.933,209.533,-193.726,-93.995,0,0,0,
,0.111,0.045,0.922,147.033,-289.063,-116.761,0,0,0,
,-0.047,-0.003,0.836,91.064,37.719,-100.769,0,0,0,
,0.066,0.086,0.828,63.964,29.541,-89.051,0,0,0,
,0.042,0.179,0.841,193.969,-40.284,-96.131,0,0,0,
,-0.01,0.118,0.827,398.986,-19.898,-134.888,0,0,0,
,0.021,-0.046,0.812,464.233,4.272,-153.748,0,0,0,
,0.058,-0.128,0.857,336.609,-95.337,-132.508,0,0,0,
,0.06,-0.148,0.907,217.102,-36.866,-116.456,0,0,0,
,0.119,-0.159,0.938,72.143,33.874,-100.403,0,0,0,
,0.181,-0.138,0.958,-18.128,47.485,-63.782,0,0,0,
,0.198,-0.154,0.973,-94.788,24.475,-41.077,0,0,0,
,0.146,-0.056,1.024,-244.751,42.175,-65.003,0,0,0,
,0.184,-0.02,1.003,-253.907,74.523,-59.632,0,0,0,
,0.217,-0.017,1,-199.402,45.41,-49.134,0,0,0,
,0.235,-0.054,1.083,-166.687,1.464,-42.786,0,0,0,
,0.238,-0.154,1.057,-223.267,-8.179,-9.278,0,0,0,
,0.146,0.081,0.974,-816.04,75.744,43.762,0,0,0,
,0.165,0.114,0.96,-697.022,121.582,70.312,0,0,0,
,0.183,0.165,0.973,-569.886,143.127,113.464,0,0,0,
,0.203,0.182,1.019,-410.462,170.532,145.141,0,0,0,
,0.225,0.153,1.012,-284.79,191.65,204.773,0,0,0,
,0.245,0.057,1.023,-367.554,158.508,217.407,0,0,0,
,0.216,0.07,1.042,-601.99,132.202,206.543,0,0,0,
,0.202,0.183,1.094,-749.573,143.188,210.449,0,0,0,
,0.204,0.293,1.093,-730.103,164.001,217.041,0,0,0,
,0.215,0.311,1.039,-688.416,157.104,199.585,0,0,0,
,0.213,0.312,1.001,-681.641,129.76,191.65,0,0,0,
,0.203,0.372,0.982,-630.066,112.548,201.049,0,0,0,
,0.186,0.453,0.984,-447.571,115.234,210.266,0,0,0,
,0.183,0.442,1.001,-245.728,123.657,212.341,0,0,0,
,0.191,0.409,1.025,-128.907,123.474,193.664,0,0,0,
,0.189,0.355,1.06,-112.732,119.201,173.95,0,0,0,
,0.172,0.326,1.025,-167.054,126.281,146.057,0,0,0,
