TIMECODE,ACC_X,ACC_Y,ACC_Z,GYR_X,GYR_Y,GYR_Z,TAG
00:00:00:0,0.195,-0.876,0.51,0.061,7.263,-24.964,
00:00:00:16,0.19,-0.861,0.51,6.836,9.216,-21.851,
00:00:00:33,0.196,-0.867,0.508,17.517,0.854,-20.752,
00:00:00:50,0.191,-0.865,0.502,21.85,-4.334,-20.325,
00:00:00:66,0.187,-0.87,0.496,22.399,-1.77,-19.104,
00:00:00:83,0.191,-0.868,0.496,15.136,0.854,-16.053,
00:00:00:100,0.195,-0.867,0.496,11.047,2.502,-15.015,
00:00:00:116,0.197,-0.87,0.501,9.704,3.173,-14.344,
00:00:00:133,0.2,-0.874,0.502,14.709,-1.648,-13.733,
00:00:00:150,0.194,-0.873,0.496,15.686,-3.785,-18.555,
00:00:00:166,0.195,-0.876,0.505,16.967,-5.799,-19.837,
00:00:00:183,0.189,-0.869,0.499,14.404,-1.831,-20.935,
00:00:00:200,0.194,-0.875,0.491,9.338,-3.052,-20.447,
00:00:00:216,0.194,-0.87,0.5,5.065,-4.517,-21.058,
00:00:00:233,0.191,-0.873,0.499,5.737,-1.343,-23.682,
00:00:00:250,0.195,-0.874,0.506,0.915,-8.179,-20.935,
00:00:00:266,0.189,-0.861,0.506,7.69,-10.743,-23.743,
00:00:00:283,0.187,-0.868,0.499,15.014,-8.545,-24.414,
00:00:00:300,0.182,-0.874,0.491,8.667,-1.343,-24.048,
00:00:00:316,0.186,-0.881,0.494,-6.775,1.77,-23.621,
00:00:00:333,0.187,-0.862,0.504,-13.55,6.164,-21.485,
00:00:00:350,0.191,-0.862,0.5,-2.808,8.972,-22.583,
00:00:00:366,0.192,-0.871,0.499,1.281,6.774,-24.292,
00:00:00:383,0.186,-0.871,0.503,-1.465,9.948,-23.011,
00:00:00:400,0.19,-0.872,0.498,-1.77,6.408,-20.813,
00:00:00:416,0.185,-0.866,0.505,2.685,6.53,-21.973,
00:00:00:433,0.188,-0.864,0.499,4.455,10.681,-18.067,
00:00:00:450,0.192,-0.874,0.496,2.563,9.46,-22.522,
00:00:00:466,0.188,-0.871,0.5,1.403,11.901,-22.889,
00:00:00:483,0.189,-0.871,0.503,-0.061,11.84,-23.316,
00:00:00:500,0.191,-0.866,0.501,0.488,9.826,-23.926,
00:00:00:516,0.188,-0.866,0.499,-0.977,11.047,-27.71,
00:00:00:533,0.19,-0.87,0.499,-1.343,9.948,-29.786,
00:00:00:550,0.187,-0.871,0.5,-2.259,9.46,-29.114,
00:00:00:566,0.158,-0.872,0.502,-3.357,10.681,-28.87,
00:00:00:583,0.19,-0.868,0.504,-7.569,11.901,-28.992,
00:00:00:600,0.185,-0.869,0.502,-11.658,12.878,-29.786,
00:00:00:616,0.185,-0.862,0.501,-11.658,16.967,-26.123,
00:00:00:633,0.19,-0.865,0.512,-6.592,13.244,-27.405,
00:00:00:650,0.189,-0.861,0.508,-3.479,10.498,-30.335,
00:00:00:666,0.187,-0.862,0.507,0.976,9.521,-29.114,
00:00:00:683,0.187,-0.865,0.513,5.493,6.103,-28.931,
00:00:00:700,0.183,-0.867,0.505,9.46,5.798,-28.626,
00:00:00:716,0.184,-0.876,0.505,8.3,6.103,-28.626,
00:00:00:733,0.182,-0.873,0.5,1.831,5.92,-28.016,
00:00:00:750,0.181,-0.87,0.505,-0.489,10.925,-24.781,
00:00:00:766,0.184,-0.866,0.506,-0.367,11.718,-20.874,
00:00:00:783,0.185,-0.868,0.505,1.464,11.169,-23.072,
00:00:00:800,0.186,-0.865,0.505,4.272,9.277,-19.532,
00:00:00:816,0.19,-0.868,0.506,7.446,7.568,-22.4,
00:00:00:833,0.185,-0.873,0.502,5.432,4.943,-26.795,
00:00:00:850,0.182,-0.87,0.504,0.122,6.652,-26.123,
00:00:00:866,0.183,-0.869,0.507,-0.916,9.338,-25.33,
00:00:00:883,0.187,-0.862,0.504,2.441,5.859,-23.377,
00:00:00:900,0.18,-0.862,0.506,7.08,4.394,-21.729,
00:00:00:916,0.182,-0.864,0.504,9.216,6.53,-20.325,
00:00:00:933,0.185,-0.869,0.504,8.483,6.53,-20.691,
00:00:00:950,0.185,-0.873,0.504,5.004,4.394,-24.292,
00:00:00:966,0.182,-0.869,0.508,0.549,7.263,-25.025,
00:00:00:983,0.182,-0.867,0.507,-0.367,9.155,-25.513,
00:00:01:0,0.183,-0.863,0.511,-2.015,10.07,-24.048,
00:00:01:16,0.186,-0.872,0.509,-2.32,10.925,-25.757,
00:00:01:33,0.181,-0.861,0.506,-2.686,8.178,-21.973,
00:00:01:50,0.181,-0.865,0.507,1.953,13.366,-22.339,
00:00:01:66,0.183,-0.867,0.508,2.807,9.826,-17.334,
00:00:01:83,0.179,-0.864,0.51,6.042,12.207,-16.541,
00:00:01:100,0.188,-0.865,0.512,7.812,9.338,-16.541,
00:00:01:116,0.187,-0.867,0.505,10.62,7.263,-17.762,
00:00:01:133,0.182,-0.868,0.506,7.934,9.094,-16.968,
00:00:01:150,0.188,-0.865,0.504,5.004,8.056,-17.456,
00:00:01:166,0.184,-0.867,0.507,4.76,5.554,-17.884,
00:00:01:183,0.184,-0.864,0.507,6.897,5.432,-17.762,
00:00:01:200,0.184,-0.864,0.51,11.047,3.234,-16.968,
00:00:01:216,0.185,-0.868,0.508,9.887,3.051,-18.86,
00:00:01:233,0.185,-0.874,0.506,6.652,4.821,-22.095,
00:00:01:250,0.185,-0.863,0.51,4.455,3.906,-19.104,
00:00:01:266,0.187,-0.865,0.509,5.188,1.709,-22.461,
00:00:01:283,0.182,-0.864,0.51,9.338,0.854,-22.034,
00:00:01:300,0.187,-0.865,0.507,10.376,0.244,-23.072,
00:00:01:316,0.182,-0.867,0.504,12.817,0.122,-22.522,
00:00:01:333,0.184,-0.877,0.502,10.131,15.502,-23.56,
00:00:01:350,0.184,-0.879,0.509,1.464,0.427,-23.011,
00:00:01:366,0.18,-0.868,0.512,-0.855,7.934,-22.034,
00:00:01:383,0.188,-0.86,0.506,2.685,8.972,-21.302,
00:00:01:400,0.183,-0.874,0.507,3.173,3.112,-24.17,
00:00:01:416,0.18,-0.865,0.507,0.366,7.019,-22.095,
00:00:01:433,0.183,-0.861,0.509,-0.428,9.643,-20.752,
00:00:01:450,0.188,-0.86,0.507,1.77,5.554,-25.269,
00:00:01:466,0.182,-0.866,0.51,5.127,5.92,-27.71,
00:00:01:483,0.183,-0.867,0.508,4.211,4.638,-26.185,
00:00:01:500,0.179,-0.87,0.515,4.943,3.356,-29.114,
00:00:01:516,0.174,-0.871,0.507,3.051,4.272,-26.673,
00:00:01:533,0.176,-0.87,0.505,2.868,6.958,-24.048,
00:00:01:550,0.179,-0.867,0.507,0.61,7.263,-23.011,
00:00:01:566,0.183,-0.864,0.507,0.488,7.751,-22.522,
00:00:01:583,0.183,-0.863,0.51,0.915,8.483,-22.644,
00:00:01:600,0.186,-0.869,0.507,15.441,6.713,-26.368,
00:00:01:616,0.179,-0.873,0.514,-3.968,3.845,-26.856,
00:00:01:633,0.182,-0.875,0.514,-6.592,5.065,-27.466,
00:00:01:650,0.183,-0.867,0.51,-9.461,4.638,-26.185,
00:00:01:666,0.184,-0.866,0.513,-10.682,1.159,-25.757,
00:00:01:683,0.184,-0.866,0.511,-9.095,-0.794,-29.236,
00:00:01:700,0.18,-0.857,0.516,-7.508,-3.602,-30.091,
00:00:01:716,0.184,-0.864,0.52,-3.235,-6.897,-31.25,
00:00:01:733,0.18,-0.907,0.514,-0.428,-8.851,-38.697,
00:00:01:750,0.177,-0.869,0.517,-4.822,-12.635,-39.002,
00:00:01:766,0.172,-0.86,0.517,-1.709,-14.161,-37.842,
00:00:01:783,0.171,-0.87,0.507,0.976,-8.118,-37.537,
00:00:01:800,0.164,-0.868,0.505,-7.142,-7.019,-35.279,
00:00:01:816,0.169,-0.868,0.518,-14.405,-6.226,-30.03,
00:00:01:833,0.174,-0.867,0.524,-14.893,-4.639,-27.344,
00:00:01:850,0.174,-0.866,0.525,-11.536,-12.696,-31.861,
00:00:01:866,0.194,-0.894,0.547,-10.987,-30.152,-35.096,
00:00:01:883,0.222,-0.886,0.55,-26.123,-76.294,-45.044,
00:00:01:900,0.195,-0.867,0.526,-61.402,-109.742,-52.247,
00:00:01:916,0.178,-0.941,0.497,-183.594,-22.95,64.453,
00:00:01:933,0.224,-0.834,0.544,-202.881,-156.189,-78.736,
00:00:01:950,0.246,-0.902,0.673,-201.6,-164.246,-64.148,
00:00:01:966,0.278,-0.85,0.637,-260.926,-162.537,-19.959,
00:00:01:983,0.3,-0.813,0.738,-291.443,-150.94,37.841,
00:00:02:0,0.276,-0.721,0.67,-352.295,-141.114,135.254,
00:00:02:16,0.222,-0.704,0.648,-317.505,-148.438,132.995,
00:00:02:33,0.199,-0.671,0.672,-93.384,-175.232,231.079,
00:00:02:50,0.204,-0.616,0.648,239.807,-297.913,130.188,
00:00:02:66,0.199,-0.745,0.602,486.511,-278.504,193.481,
00:00:02:83,0.151,-0.761,0.552,599.365,-320.557,186.645,
00:00:02:100,0.139,-0.794,0.529,662.292,-304.078,151.367,
00:00:02:116,0.156,-0.861,0.498,678.283,-304.505,139.465,
00:00:02:133,0.155,-0.946,0.508,585.876,-323.731,96.191,
00:00:02:150,0.128,-0.95,0.49,425.476,-308.106,91.308,
00:00:02:166,0.125,-0.923,0.476,282.104,-286.744,83.435,
00:00:02:183,0.126,-0.891,0.448,214.843,-276.49,81.42,
00:00:02:200,0.13,-0.89,0.432,186.34,-286.927,70.068,
00:00:02:216,0.118,-0.88,0.449,172.18,-286.499,79.589,
00:00:02:233,0.132,-0.88,0.481,171.63,-287.903,87.829,
00:00:02:250,0.129,-0.833,0.491,191.711,-300.415,108.703,
00:00:02:266,0.137,-0.784,0.495,294.738,-303.162,135.131,
00:00:02:283,0.155,-0.774,0.508,485.962,-348.877,150.879,
00:00:02:300,0.168,-0.813,0.543,694.519,-437.928,165.649,
00:00:02:316,0.162,-0.875,0.525,798.767,-514.039,183.41,
00:00:02:333,0.17,-0.937,0.5,736.206,-562.012,208.679,
00:00:02:350,0.151,-0.909,0.478,560.974,-550.171,256.103,
00:00:02:366,0.153,-0.844,0.435,438.842,-530.823,284.546,
00:00:02:383,0.171,-0.801,0.393,434.997,-519.654,324.524,
00:00:02:400,0.191,-0.787,0.352,537.292,-531.128,348.632,
00:00:02:416,0.212,-0.818,0.304,703.003,-510.621,359.802,
00:00:02:433,0.223,-0.832,0.266,875.732,-496.949,383.3,
00:00:02:450,0.246,-0.827,0.243,1026.489,-492.31,413.574,
00:00:02:466,0.282,-0.858,0.19,1068.054,-535.767,427.429,
00:00:02:483,0.258,-0.911,0.16,983.276,-558.35,443.969,
00:00:02:500,0.251,-0.917,0.088,840.942,-502.93,459.106,
00:00:02:516,0.297,-0.948,0.041,725.097,-477.784,465.21,
00:00:02:533,0.383,-1.052,-0.016,470.031,-513.916,443.908,
00:00:02:550,0.394,-1.171,-0.054,48.584,-546.082,407.592,
00:00:02:566,0.315,-1.076,-0.023,-342.957,-462.647,450.317,
00:00:02:583,0.337,-0.939,-0.012,-493.103,-339.905,479.065,
00:00:02:600,0.387,-0.879,-0.012,-413.025,-296.021,457.153,
00:00:02:616,0.4,-0.884,0.021,-214.417,-295.227,419.494,
00:00:02:633,0.393,-0.915,0.047,-9.644,-274.659,392.151,
00:00:02:650,0.392,-0.935,0.04,164.062,-236.268,376.159,
00:00:02:666,0.406,-0.942,0.022,322.265,-207.642,349.853,
00:00:02:683,0.417,-0.985,-0.001,387.024,-210.389,311.889,
00:00:02:700,0.423,-1.076,-0.028,305.42,-226.685,260.254,
00:00:02:716,0.39,-1.081,-0.011,144.348,-228.089,245.666,
00:00:02:733,0.352,-1.011,0.023,11.84,-205.018,245.483,
00:00:02:750,0.349,-0.948,0.05,-10.56,-192.872,237.548,
00:00:02:766,0.349,-0.908,0.056,38.696,-172.059,234.13,
00:00:02:783,0.353,-0.893,0.042,88.867,-173.89,238.464,
00:00:02:800,0.385,-0.917,0.044,74.707,-176.758,263.305,
00:00:02:816,0.404,-0.887,0.089,12.512,-186.768,287.78,
00:00:02:833,0.437,-0.87,0.172,-52.43,-220.093,308.41,
00:00:02:850,0.412,-0.799,0.198,-81.299,-225.831,394.836,
00:00:02:866,0.394,-0.663,0.093,-18.799,-176.819,508.545,
00:00:02:883,0.423,-0.533,0.034,81.726,-120.667,584.411,
00:00:02:900,0.489,-0.473,0.003,204.528,-78.003,643.31,
00:00:02:916,0.566,-0.491,0.051,408.874,-54.993,698.913,
00:00:02:933,0.697,-0.699,0.053,598.205,-63.965,670.959,
00:00:02:950,0.793,-0.886,0.027,628.234,-80.506,643.615,
00:00:02:966,0.786,-0.838,0.012,616.699,-53.406,657.898,
00:00:02:983,0.754,-0.681,-0.069,811.218,32.531,637.512,
00:00:03:0,0.821,-0.695,-0.058,1292.724,27.71,517.517,
00:00:03:16,0.964,-1.104,0.006,1766.54,-175.11,237.487,
00:00:03:33,0.931,-1.963,-0.026,1713.867,-421.387,-56.458,
00:00:03:50,0.548,-2.227,0.039,1117.37,-391.358,-97.596,
00:00:03:66,0.385,-1.981,0.153,617.675,-123.658,-238.709,
00:00:03:83,0.617,-2.155,0.095,692.993,-89.356,-621.46,
00:00:03:100,0.629,-2.981,0.044,822.937,-103.577,-1123.841,
00:00:03:116,0.733,-3.672,0.022,610.778,119.934,-1633.606,
00:00:03:133,1.091,-3.788,-0.137,262.878,374.817,-2000,
00:00:03:150,1.24,-3.792,-0.203,-26.246,398.254,-2000,
00:00:03:166,1.26,-3.915,-0.339,-352.478,444.824,-2000,
00:00:03:183,1.499,-3.845,-0.5,-524.72,577.636,-2000,
00:00:03:200,1.932,-3.558,-0.531,-611.084,651.184,-2000,
00:00:03:216,2.092,-2.908,-0.488,-712.464,611.572,-2000,
00:00:03:233,2.067,-2.266,-0.542,-899.72,596.618,-2000,
00:00:03:250,2.198,-1.633,-0.835,-931.946,533.142,-2000,
00:00:03:266,2.692,-0.816,-0.933,-696.351,149.17,-2000,
00:00:03:283,2.992,-0.471,-0.948,-719.3,-18.067,-2000,
00:00:03:300,3.634,0.553,-1.027,-1219.727,-17.029,-2000,
00:00:03:316,3.962,1.625,-1.125,-1797.425,-41.077,-2000,
00:00:03:333,3.637,2.524,-1.243,-1621.705,-39.978,-2000,
00:00:03:350,3.062,3.017,-1.155,-735.23,312.927,-939.148,
00:00:03:366,2.278,3.025,-0.955,332.397,767.395,601.318,
00:00:03:383,1.809,2.767,-0.628,1033.325,1206.726,1981.201,
00:00:03:400,1.722,2.261,-0.448,1700.195,1383.545,1999.694,
00:00:03:416,1.827,1.363,-0.594,1999.694,1276.428,1999.694,
00:00:03:433,2.253,0.583,-0.7,1999.694,867.309,1999.694,
00:00:03:450,2.572,-0.221,-0.648,1999.694,381.164,1999.694,
00:00:03:466,2.852,-1.207,-0.888,1999.694,-413.331,1999.694,
00:00:03:483,2.736,-2.356,-0.915,1999.694,-1048.218,1999.694,
00:00:03:500,3.198,-3.29,-0.956,1999.694,-1379.273,1999.694,
00:00:03:516,3.803,-3.905,-1.718,977.6,-1514.222,1999.694,
00:00:03:533,3.516,-4,-1.958,-902.405,-894.959,1999.694,
00:00:03:550,2.11,-4,-1.536,-1830.384,-357.117,1999.694,
00:00:03:566,1.333,-3.853,-1.048,-1578.125,-36.988,1755.005,
00:00:03:583,0.878,-2.94,-0.698,-951.233,166.626,856.14,
00:00:03:600,0.728,-2.299,-0.468,-257.142,257.568,278.198,
00:00:03:616,0.584,-1.989,-0.217,252.807,295.288,111.389,
00:00:03:633,0.417,-1.725,-0.027,323.669,257.324,35.339,
00:00:03:650,0.395,-1.436,0.034,228.82,225.341,-43.946,
00:00:03:666,0.394,-1.292,0.09,146.484,245.727,-50.11,
00:00:03:683,0.417,-1.181,0.067,-12.879,295.776,-37.842,
00:00:03:700,0.397,-1.098,-0.009,-335.267,350.769,42.358,
00:00:03:716,0.313,-1.094,-0.081,-799.134,369.445,79.711,
00:00:03:733,0.362,-0.978,-0.163,-1102.173,358.52,28.808,
00:00:03:750,0.465,-0.881,-0.252,-913.147,351.928,-31.678,
00:00:03:766,0.542,-0.913,-0.335,-514.466,340.637,-88.44,
00:00:03:783,0.592,-0.927,-0.375,-186.219,319.275,-141.785,
00:00:03:800,0.593,-0.91,-0.402,-35.157,293.396,-195.191,
00:00:03:816,0.586,-1.007,-0.35,-87.647,270.507,-300.904,
00:00:03:833,0.6,-1.093,-0.292,-333.802,253.54,-445.13,
00:00:03:850,0.603,-1.07,-0.28,-612.854,260.437,-590.943,
00:00:03:866,0.598,-0.996,-0.305,-811.28,270.935,-706.727,
00:00:03:883,0.556,-1,-0.321,-911.683,294.128,-826.294,
00:00:03:900,0.544,-1.193,-0.285,-994.202,318.359,-931.397,
00:00:03:916,0.508,-1.253,-0.214,-1198.487,335.998,-1029.114,
00:00:03:933,0.472,-1.214,-0.186,-1380.616,324.096,-1135.926,
00:00:03:950,0.439,-1.198,-0.105,-1485.474,278.93,-1232.666,
00:00:03:966,0.38,-1.203,-0.031,-1571.167,181.884,-1294.434,
00:00:03:983,0.338,-1.279,0.04,-1631.409,99.487,-1354.493,
00:00:04:0,0.247,-1.206,0.104,-1672.974,117.431,-1432.374,
00:00:04:16,0.213,-1.11,0.162,-1740.052,41.87,-1464.844,
00:00:04:33,0.072,-0.949,0.268,-1731.08,10.62,-1460.938,
00:00:04:50,-0.05,-0.849,0.326,-1523.499,-16.663,-1483.155,
00:00:04:66,-0.063,-0.847,0.361,-1227.112,-85.572,-1477.112,
00:00:04:83,-0.134,-0.818,0.395,-1007.447,-136.658,-1416.138,
00:00:04:100,-0.206,-0.72,0.386,-846.07,-107.972,-1365.174,
00:00:04:116,-0.226,-0.756,0.387,-677.613,-98.206,-1315.369,
00:00:04:133,-0.24,-0.747,0.426,-557.312,-101.136,-1269.166,
00:00:04:150,-0.261,-0.723,0.497,-490.174,-90.516,-1197.022,
00:00:04:166,-0.255,-0.722,0.575,-431.641,-96.253,-1162.72,
00:00:04:183,-0.282,-0.692,0.589,-410.706,-81.788,-1117.615,
00:00:04:200,-0.303,-0.715,0.538,-445.435,-30.701,-1053.101,
00:00:04:216,-0.316,-0.695,0.504,-460.816,18.371,-1005.799,
00:00:04:233,-0.337,-0.631,0.479,-418.152,66.894,-948.182,
00:00:04:250,-0.342,-0.577,0.512,-336.426,96.74,-864.319,
00:00:04:266,-0.328,-0.602,0.556,-264.344,126.831,-794.678,
00:00:04:283,-0.301,-0.653,0.606,-251.099,149.231,-722.413,
00:00:04:300,-0.273,-0.706,0.601,-353.089,184.021,-667.115,
00:00:04:316,-0.271,-0.703,0.593,-499.939,233.032,-619.812,
00:00:04:333,-0.271,-0.64,0.576,-618.409,274.109,-550.354,
00:00:04:350,-0.262,-0.525,0.568,-624.939,301.88,-474.305,
00:00:04:366,-0.258,-0.415,0.569,-546.387,318.359,-388.794,
00:00:04:383,-0.251,-0.388,0.57,-404.541,311.645,-349.244,
00:00:04:400,-0.23,-0.425,0.582,-354.248,292.114,-297.791,
00:00:04:416,-0.211,-0.433,0.59,-411.011,326.721,-246.644,
00:00:04:433,-0.179,-0.41,0.63,-454.773,339.599,-207.215,
00:00:04:450,-0.176,-0.422,0.66,-420.227,326.294,-196.106,
00:00:04:466,-0.222,-0.41,0.686,-359.559,318.969,-166.871,
00:00:04:483,-0.239,-0.387,0.738,-332.337,311.279,-126.587,
00:00:04:500,-0.229,-0.419,0.823,-318.055,286.743,-102.295,
00:00:04:516,-0.236,-0.423,0.869,-327.027,266.235,-76.539,
00:00:04:533,-0.238,-0.361,0.882,-351.563,261.169,-28.199,
00:00:04:550,-0.228,-0.313,0.891,-318.726,239.135,-3.296,
00:00:04:566,-0.234,-0.321,0.917,-239.685,212.219,2.502,
00:00:04:583,-0.245,-0.347,0.941,-182.984,200.012,2.38,
00:00:04:600,-0.231,-0.4,1,-177.185,192.26,-4.456,
00:00:04:616,-0.213,-0.417,0.976,-138.672,215.82,-19.654,
00:00:04:633,-0.212,-0.362,0.958,-95.643,200.866,-26.185,
00:00:04:650,-0.236,-0.295,0.965,-83.497,192.443,-55.97,
00:00:04:666,-0.264,-0.264,0.996,-35.218,176.269,-81.665,
00:00:04:683,-0.282,-0.281,1.014,-31.983,163.33,-115.052,
00:00:04:700,-0.3,-0.299,1.045,-66.407,160.705,-147.583,
00:00:04:716,-0.344,-0.257,1.055,-70.374,155.029,-162.72,
00:00:04:733,-0.272,-0.209,1.241,-102.295,97.717,-166.565,
00:00:04:750,-0.296,-0.254,0.961,-118.592,109.314,-158.02,
00:00:04:766,-0.353,-0.241,0.905,-133.789,149.292,-173.035,
00:00:04:783,-0.331,-0.285,0.865,-196.656,169.677,-157.166,
00:00:04:800,-0.311,-0.203,0.958,-265.381,214.111,-145.935,
00:00:04:816,-0.274,-0.181,0.996,-207.459,186.096,-154.419,
00:00:04:833,-0.281,-0.207,1.011,-173.768,167.175,-158.753,
00:00:04:850,-0.296,-0.233,0.908,-171.448,170.288,-172.303,
00:00:04:866,-0.301,-0.237,0.889,-187.561,196.472,-171.692,
00:00:04:883,-0.275,-0.178,0.912,-214.234,223.266,-171.692,
00:00:04:900,-0.239,-0.091,0.909,-209.351,248.596,-135.743,
00:00:04:916,-0.219,-0.15,1.042,-195.191,212.036,-145.935,
00:00:04:933,-0.25,-0.171,1.148,-191.407,176.025,-129.09,
00:00:04:950,-0.208,-0.172,1.069,-235.84,155.151,-128.785,
00:00:04:966,-0.161,-0.145,0.998,-251.282,154.48,-128.479,
00:00:04:983,-0.105,-0.142,1.018,-181.214,113.098,-146.424,
00:00:05:0,-0.11,-0.159,1.158,-87.891,24.414,-147.828,
00:00:05:16,-0.164,-0.14,1.261,-76.844,-53.467,-129.944,
00:00:05:33,-0.195,-0.062,1.294,-23.072,-143.921,-83.863,
00:00:05:50,-0.214,-0.108,1.272,104.858,-267.029,-56.458,
00:00:05:66,-0.25,-0.137,1.219,179.626,-362.732,-44.678,
00:00:05:83,-0.262,-0.125,1.174,186.096,-434.327,-25.025,
00:00:05:100,-0.266,-0.147,1.112,179.321,-490.235,-14.771,
00:00:05:116,-0.292,-0.128,1.022,198.364,-524.17,-18.067,
00:00:05:133,-0.318,-0.109,0.976,281.799,-527.527,-30.274,
00:00:05:150,-0.351,-0.115,1.001,377.929,-531.983,-50.538,
00:00:05:166,-0.323,-0.247,1.113,450.256,-548.218,-85.694,
00:00:05:183,-0.299,-0.344,1.125,429.931,-602.051,-115.296,
00:00:05:200,-0.326,-0.311,1.086,291.992,-636.109,-134.949,
00:00:05:216,-0.355,-0.204,1.033,225.219,-648.499,-133.423,
00:00:05:233,-0.347,-0.137,0.973,294.433,-684.021,-118.226,
00:00:05:250,-0.367,-0.125,0.945,405.395,-710.694,-114.319,
00:00:05:266,-0.379,-0.114,0.932,554.809,-740.723,-77.454,
00:00:05:283,-0.385,-0.157,0.911,641.052,-779.908,-39.978,
00:00:05:300,-0.41,-0.208,0.898,627.441,-812.5,-15.198,
00:00:05:316,-0.437,-0.255,0.869,550.109,-819.275,4.333,
00:00:05:333,-0.469,-0.266,0.823,461.853,-813.843,25.024,
00:00:05:350,-0.497,-0.257,0.748,423.645,-793.763,79.345,
00:00:05:366,-0.512,-0.226,0.661,459.167,-753.296,154.419,
00:00:05:383,-0.487,-0.252,0.617,505.127,-750.916,209.411,
00:00:05:400,-0.498,-0.299,0.562,538.94,-722.413,231.018,
00:00:05:416,-0.527,-0.297,0.557,594.604,-656.311,303.955,
00:00:05:433,-0.505,-0.305,0.519,645.63,-608.094,307.678,
00:00:05:450,-0.518,-0.362,0.441,667.114,-545.96,322.387,
00:00:05:466,-0.53,-0.386,0.359,737.976,-482.3,331.359,
00:00:05:483,-0.54,-0.5,0.293,807.922,-453.797,309.021,
00:00:05:500,-0.623,-0.568,0.262,774.536,-407.349,352.661,
00:00:05:516,-0.618,-0.607,0.206,683.41,-360.84,372.802,
00:00:05:533,-0.567,-0.646,0.192,497.253,-341.797,358.764,
00:00:05:550,-0.613,-0.589,0.159,353.82,-270.691,365.478,
00:00:05:566,-0.624,-0.577,0.165,371.032,-261.597,338.623,
00:00:05:583,-0.649,-0.603,0.165,463.745,-260.865,346.618,
00:00:05:600,-0.694,-0.626,0.11,573.059,-256.958,329.773,
00:00:05:616,-0.72,-0.698,0.091,626.526,-267.273,296.264,
00:00:05:633,-0.709,-0.831,0.069,492.614,-272.889,259.338,
00:00:05:650,-0.741,-0.813,0.057,318.237,-253.54,237.304,
00:00:05:666,-0.772,-0.728,0.021,205.81,-219.117,216.125,
00:00:05:683,-0.759,-0.715,0.002,195.129,-229.798,172.241,
00:00:05:700,-0.757,-0.801,0.037,86.181,-238.465,143.188,
00:00:05:716,-0.775,-0.772,0.059,-65.979,-187.5,124.45,
00:00:05:733,-0.765,-0.713,0.069,-70.13,-163.636,117.187,
00:00:05:750,-0.776,-0.708,0.096,-28.077,-162.842,113.159,
00:00:05:766,-0.76,-0.709,0.13,-19.837,-143.555,112.06,
00:00:05:783,-0.725,-0.732,0.114,-30.518,-123.169,123.352,
00:00:05:800,-0.705,-0.753,0.128,-17.884,-109.436,132.08,
00:00:05:816,-0.677,-0.736,0.136,10.559,-81.238,152.71,
00:00:05:833,-0.651,-0.74,0.098,47.912,-64.148,176.88,
00:00:05:850,-0.636,-0.753,0.127,62.011,-55.298,193.847,
00:00:05:866,-0.631,-0.74,0.148,84.167,-26.307,208.13,
00:00:05:883,-0.606,-0.781,0.105,130.676,0.183,207.519,
00:00:05:900,-0.584,-0.821,0.063,153.93,32.836,219.604,
00:00:05:916,-0.559,-0.84,0.068,163.33,58.96,227.6,
00:00:05:933,-0.553,-0.822,0.134,201.538,97.595,241.943,
00:00:05:950,-0.558,-0.75,0.179,393.432,103.759,240.6,
00:00:05:966,-0.569,-0.824,0.176,539.245,61.279,253.296,
00:00:05:983,-0.607,-0.959,0.129,420.959,7.629,246.215,
00:00:06:0,-0.673,-0.969,0.122,186.279,35.644,249.206,
00:00:06:16,-0.659,-0.884,0.137,44.86,44.677,212.585,
00:00:06:33,-0.639,-0.88,0.213,57.434,15.075,189.27,
00:00:06:50,-0.641,-0.902,0.255,114.746,-16.236,179.87,
00:00:06:66,-0.653,-0.949,0.193,139.953,-29.908,168.64,
00:00:06:83,-0.655,-0.93,0.129,93.872,-36.805,147.033,
00:00:06:100,-0.628,-0.921,0.092,-14.893,-27.71,130.432,
00:00:06:116,-0.604,-0.926,0.09,-91.797,-3.296,132.934,
00:00:06:133,-0.582,-0.92,0.126,-119.385,16.357,126.22,
00:00:06:150,-0.567,-0.947,0.152,-151.307,22.827,111.206,
00:00:06:166,-0.558,-0.951,0.156,-189.759,21.606,95.153,
00:00:06:183,-0.547,-0.965,0.253,-99.671,-10.56,23.071,
00:00:06:200,-0.558,-1.017,0.217,23.132,-26.795,25.878,
00:00:06:216,-0.574,-1.016,0.125,-47.974,-15.381,23.315,
00:00:06:233,-0.564,-0.96,0.132,-126.893,-8.728,1.831,
00:00:06:250,-0.564,-0.89,0.192,-105.164,-14.771,-4.334,
00:00:06:266,-0.555,-0.904,0.189,-73.914,-59.754,-19.654,
00:00:06:283,-0.581,-0.976,0.18,-172.791,-85.816,-12.818,
00:00:06:300,-0.603,-0.935,0.203,-301.392,-88.44,-37.049,
00:00:06:316,-0.6,-0.837,0.23,-275.086,-101.807,-58.228,
00:00:06:333,-0.711,-0.836,0.173,-237.366,-118.348,-55.054,whipLH
00:00:06:350,-0.729,-0.79,0.167,-293.335,-97.596,-45.716,
00:00:06:366,-0.745,-0.733,0.167,-273.133,-79.651,-16.358,
00:00:06:383,-0.755,-0.686,0.165,-192.749,-79.224,-13.672,
00:00:06:400,-0.785,-0.655,0.148,-96.314,-61.829,32.898,
00:00:06:416,-0.792,-0.613,0.103,-15.992,-31.983,72.082,
00:00:06:433,-0.766,-0.578,0.09,67.504,-1.648,123.413,
00:00:06:450,-0.705,-0.609,0.075,158.691,32.287,185.363,
00:00:06:466,-0.381,-0.776,0.031,767.273,161.926,285.4,
00:00:06:483,-0.248,-0.846,0.002,1064.819,154.113,329.651,
00:00:06:500,-0.162,-1.007,-0.061,1190.918,132.507,371.154,
00:00:06:516,-0.061,-1.101,-0.095,1197.448,135.437,389.099,
00:00:06:533,0.076,-1.282,-0.171,1034.607,178.527,416.381,
00:00:06:550,0.254,-1.331,-0.122,116.027,445.739,254.028,
00:00:06:566,0.164,-1.259,-0.056,-104.004,494.14,158.508,
00:00:06:583,0.074,-1.2,0.023,-218.689,497.619,87.89,
00:00:06:600,-0.007,-1.25,0.07,-268.616,449.951,27.404,
00:00:06:616,-0.072,-1.195,0.154,-231.446,334.655,-0.123,
00:00:06:633,-0.361,-0.982,0.325,186.462,-56.885,-33.02,
00:00:06:650,-0.517,-1.032,0.234,72.326,-189.454,-45.289,
00:00:06:666,-0.682,-0.983,0.129,-142.334,-267.212,-46.998,
00:00:06:683,-0.805,-0.892,0.115,-254.7,-312.684,-44.068,
00:00:06:700,-0.87,-0.904,0.117,-318.421,-352.845,-44.373,
00:00:06:716,-0.946,-0.89,0.085,-430.909,-386.109,-39.185,
00:00:06:733,-1.032,-0.803,0.065,-511.597,-389.527,-45.411,
00:00:06:750,-1.067,-0.662,-0.004,-453.125,-356.934,-61.646,
00:00:06:766,-1.003,-0.621,-0.144,-292.054,-294.678,-77.332,
00:00:06:783,-0.896,-0.673,-0.195,-291.871,-238.587,-62.073,
00:00:06:800,-0.773,-0.725,-0.273,-399.048,-147.278,-36.744,
00:00:06:816,-0.643,-0.69,-0.303,-378.296,-42.603,-16.175,
00:00:06:833,-0.505,-0.705,-0.302,-160.889,52.002,10.07,
00:00:06:850,-0.375,-0.81,-0.278,59.326,128.784,35.4,
00:00:06:866,-0.273,-0.913,-0.292,119.384,206.909,69.274,
00:00:06:883,-0.162,-1.019,-0.271,107.422,293.701,82.58,
00:00:06:900,-0.016,-1.113,-0.178,106.506,384.46,88.378,
00:00:06:916,0.137,-1.213,-0.027,131.775,463.562,86.181,
00:00:06:933,0.258,-1.342,0.13,99.731,513.977,58.227,
00:00:06:950,0.317,-1.349,0.3,49.377,536.193,15.625,
00:00:06:966,0.318,-1.274,0.426,6.225,528.991,-26.49,
00:00:06:983,0.239,-1.184,0.395,-36.683,471.801,-68.787,
00:00:07:0,0.18,-1.247,0.368,-68.177,385.62,-140.686,
00:00:07:16,0.125,-1.232,0.396,-96.741,265.564,-138.123,
00:00:07:33,0.07,-1.064,0.454,-96.192,140.136,-107.85,
00:00:07:50,0.023,-0.951,0.487,-46.814,-6.287,-74.341,
00:00:07:66,-0.042,-0.96,0.424,-29.236,-167.908,-90.271,
00:00:07:83,-0.147,-1.051,0.373,-168.702,-347.596,-88.44,
00:00:07:100,-0.392,-0.99,0.304,-372.071,-495.301,-29.48,
00:00:07:116,-0.687,-0.831,0.236,-440.918,-568.787,45.166,
00:00:07:133,-0.931,-0.724,0.179,-325.806,-582.093,89.416,
00:00:07:150,-1.108,-0.688,0.162,-224.854,-567.2,93.261,
00:00:07:166,-1.207,-0.739,0.107,-261.597,-513.428,37.475,
00:00:07:183,-1.264,-0.698,0.016,-384.4,-401.856,-40.528,
00:00:07:200,-1.222,-0.594,-0.094,-391.785,-266.236,-115.113,
00:00:07:216,-1.102,-0.534,-0.16,-221.192,-170.044,-150.818,
00:00:07:233,-0.983,-0.493,-0.196,-45.533,-79.895,-143.067,
00:00:07:250,-0.831,-0.532,-0.196,101.989,0.854,-139.527,
00:00:07:266,-0.668,-0.603,-0.18,292.236,52.49,-105.408,
00:00:07:283,-0.502,-0.759,-0.161,499.511,69.641,-66.224,
00:00:07:300,-0.307,-1.015,-0.123,501.281,72.326,-23.316,
00:00:07:316,-0.119,-1.138,-0.035,394.287,111.755,21.118,
00:00:07:333,0.061,-1.181,0.004,361.877,183.899,77.087,
00:00:07:350,0.273,-1.278,0.051,505.92,264.709,84.411,
00:00:07:366,0.462,-1.378,0.167,640.319,282.104,73.852,
00:00:07:383,0.532,-1.508,0.266,487.793,260.742,40.222,
00:00:07:400,0.469,-1.459,0.423,111.755,216.613,15.197,
00:00:07:416,0.338,-1.293,0.552,-180.787,152.099,-3.479,
00:00:07:433,0.224,-1.2,0.609,-250.977,39.978,-55.848,
00:00:07:450,0.109,-1.198,0.612,-182.373,-122.254,-63.965,
00:00:07:466,-0.013,-1.185,0.55,-131.348,-311.402,-69.031,
00:00:07:483,-0.184,-1.144,0.397,-158.204,-453.431,-43.03,
00:00:07:500,-0.43,-0.967,0.169,-211.914,-505.616,13.183,
00:00:07:516,-0.646,-0.839,0.093,-200.562,-523.621,8.117,
00:00:07:533,-0.822,-0.886,0.069,-142.64,-555.054,-51.331,
00:00:07:550,-1.043,-0.97,0.134,-236.451,-571.228,-107.727,
00:00:07:566,-1.214,-0.802,0.03,-292.359,-499.573,-54.688,
00:00:07:583,-1.259,-0.66,-0.117,-349.122,-400.696,-115.723,
00:00:07:600,-1.248,-0.477,-0.226,-356.995,-275.452,-107.117,
00:00:07:616,-1.163,-0.409,-0.288,-236.695,-170.289,-120.179,
00:00:07:633,-1.036,-0.476,-0.282,-100.647,-85.45,-116.15,
00:00:07:650,-0.883,-0.581,-0.257,-83.13,-5.86,-92.469,
00:00:07:666,-0.709,-0.668,-0.271,-113.526,116.821,-27.1,
00:00:07:683,-0.505,-0.728,-0.306,-70.74,231.628,61.34,
00:00:07:700,-0.308,-0.795,-0.273,39.856,295.288,110.046,
00:00:07:716,-0.165,-0.888,-0.169,214.599,370.544,161.499,
00:00:07:733,0.058,-1.102,-0.074,419.983,435.18,199.524,
00:00:07:750,0.379,-1.561,0.012,306.884,443.237,143.859,
00:00:07:766,0.535,-1.845,0.182,-94.727,419.006,64.209,
00:00:07:783,0.489,-1.521,0.42,-412.476,431.823,17.883,
00:00:07:800,0.454,-1.242,0.636,-306.092,354.614,-165.223,
00:00:07:816,0.402,-1.238,0.688,-54.688,171.569,-273.499,
00:00:07:833,0.265,-1.378,0.583,-81.238,-83.069,-375.916,
00:00:07:850,-0.001,-1.302,0.527,-374.878,-151.49,-316.59,
00:00:07:866,-0.128,-1.083,0.539,-551.636,-134.949,-290.223,
00:00:07:883,-0.167,-0.911,0.611,-560.791,-217.774,-267.212,
00:00:07:900,-0.331,-0.739,0.599,-466.797,-353.516,-177.674,
00:00:07:916,-0.593,-0.611,0.489,-289.856,-442.444,-46.143,
00:00:07:933,-0.812,-0.55,0.338,-121.277,-512.452,56.579,
00:00:07:950,-0.997,-0.587,0.146,-79.773,-559.815,59.753,
00:00:07:966,-1.227,-0.614,0.005,-103.028,-506.775,81.665,
00:00:07:983,-1.362,-0.56,-0.067,-147.034,-390.686,95.642,
00:00:08:0,-1.368,-0.464,-0.16,-160.096,-258.851,92.529,
00:00:08:16,-1.337,-0.375,-0.433,-142.762,-98.938,60.607,
00:00:08:33,-1.048,-0.616,-0.314,-19.959,-25.513,-19.776,
00:00:08:50,-0.963,-0.84,-0.334,-177.918,51.818,-94.056,
00:00:08:66,-0.893,-0.617,-0.271,-131.104,219.848,54.687,
00:00:08:83,-0.64,-0.652,-0.242,136.23,270.202,-7.813,
00:00:08:100,-0.461,-0.84,-0.167,243.53,239.624,9.948,
00:00:08:116,-0.359,-1.02,-0.085,196.899,269.409,10.864,
00:00:08:133,-0.172,-1.126,-0.001,188.11,403.686,26.733,
00:00:08:150,0.075,-1.221,0.107,336.853,548.034,60.058,
00:00:08:166,0.323,-1.371,0.253,532.898,608.398,28.869,
00:00:08:183,0.51,-1.575,0.424,487.793,498.779,-51.941,
00:00:08:200,0.427,-1.598,0.624,188.476,308.593,-181.885,
00:00:08:216,0.211,-1.32,0.792,-125.245,256.775,-209.351,
00:00:08:233,0.157,-1.173,0.795,-217.835,201.66,-304.444,
00:00:08:250,0.102,-1.161,0.695,-166.687,33.264,-371.705,
00:00:08:266,-0.058,-1.086,0.646,-210.45,-92.102,-331.971,
00:00:08:283,-0.196,-0.957,0.654,-294.251,-162.171,-283.326,
00:00:08:300,-0.319,-0.848,0.617,-298.096,-288.025,-244.446,
00:00:08:316,-0.485,-0.834,0.554,-218.811,-416.077,-234.986,
00:00:08:333,-0.643,-0.773,0.448,-178.101,-456.604,-158.57,
00:00:08:350,-0.804,-0.616,0.316,-104.676,-441.956,-80.994,
00:00:08:366,-0.989,-0.499,0.146,8.178,-422.852,-47.059,
00:00:08:383,-1.179,-0.437,0.015,28.747,-370.24,-18.799,
00:00:08:400,-1.286,-0.503,-0.108,6.836,-252.625,-62.134,
00:00:08:416,-1.244,-0.529,-0.144,-77.21,-119.873,-73.731,
00:00:08:433,-1.136,-0.467,-0.142,-128.602,-29.358,-47.608,
00:00:08:450,-1.041,-0.412,-0.178,-105.652,41.076,1.648,
00:00:08:466,-0.914,-0.35,-0.153,-48.401,121.093,85.449,
00:00:08:483,-0.755,-0.402,-0.166,87.768,190.796,164.917,
00:00:08:500,-0.575,-0.599,-0.188,155.029,223.449,170.898,
00:00:08:516,-0.447,-0.904,-0.059,237.121,226.501,128.051,
00:00:08:533,-0.292,-1.208,0.094,298.034,208.862,106.994,
00:00:08:550,-0.151,-1.281,0.16,166.809,245.117,148.986,
00:00:08:566,-0.017,-1.246,0.174,188.842,317.505,153.686,
00:00:08:583,0.168,-1.356,0.258,408.081,346.984,19.043,
00:00:08:600,0.351,-1.428,0.342,567.26,309.326,-70.13,
00:00:08:616,0.335,-1.285,0.369,324.768,333.007,-66.834,
00:00:08:633,0.241,-1.193,0.433,128.296,319.946,-184.815,
00:00:08:650,0.17,-1.14,0.543,-1.465,285.217,-152.649,
00:00:08:666,0.082,-1.001,0.648,-45.655,236.206,-119.751,
00:00:08:683,0.013,-0.966,0.722,-56.885,103.149,-113.953,
00:00:08:700,-0.114,-0.937,0.648,-157.105,2.075,-70.252,
00:00:08:716,-0.256,-0.881,0.537,-279.725,-60.608,26.55,
00:00:08:733,-0.415,-0.767,0.502,-321.473,-147.461,98.388,
00:00:08:750,-0.594,-0.744,0.489,-284.18,-289.124,137.207,
00:00:08:766,-0.828,-0.834,0.394,-288.331,-437.134,152.832,
00:00:08:783,-1.074,-0.737,0.301,-400.635,-469.056,198.181,
00:00:08:800,-1.25,-0.521,0.176,-339.6,-402.832,207.275,
00:00:08:816,-1.262,-0.522,0.04,-68.665,-322.449,157.776,
00:00:08:833,-1.134,-0.669,0.024,84.411,-321.534,121.154,
00:00:08:850,-1.071,-0.898,-0.036,-94.849,-265.442,11.474,
00:00:08:866,-0.972,-0.808,-0.143,-256.348,-87.525,-9.156,
00:00:08:883,-0.808,-0.793,-0.213,-143.86,30.944,14.587,
00:00:08:900,-0.639,-0.783,-0.219,47.668,111.206,29.113,
00:00:08:916,-0.489,-0.811,-0.226,209.716,180.053,13.916,
00:00:08:933,-0.305,-1.003,-0.163,248.901,210.937,-31.495,
00:00:08:950,-0.131,-1.237,0.065,104.248,231.445,-73.487,
00:00:08:966,-0.025,-1.331,0.203,-129.944,376.77,-75.074,
00:00:08:983,0.171,-1.34,0.398,-138.123,480.59,-106.568,
00:00:09:0,0.331,-1.298,0.643,-99.305,430.786,-150.452,
00:00:09:16,0.221,-1.125,0.794,-41.077,243.957,-211.853,
00:00:09:33,0.07,-1.084,0.846,-24.048,97.29,-248.597,
00:00:09:50,-0.011,-1.026,0.822,-108.948,12.207,-242.066,
00:00:09:66,-0.159,-0.885,0.785,-168.396,-71.106,-194.764,
00:00:09:83,-0.383,-0.807,0.746,-86.121,-213.807,-158.265,
00:00:09:100,-0.658,-0.69,0.652,-122.986,-323.609,-46.509,
00:00:09:116,-0.872,-0.672,0.42,-203.858,-377.686,-10.071,
00:00:09:133,-1.091,-0.639,0.214,-264.466,-375.977,28.625,
00:00:09:150,-1.268,-0.556,0.034,-309.693,-300.721,26.001,
00:00:09:166,-1.288,-0.522,-0.066,-340.027,-194.214,-6.47,
00:00:09:183,-1.182,-0.498,-0.08,-365.418,-98.572,-26.978,
00:00:09:200,-1.035,-0.507,-0.088,-366.456,-52.979,-58.838,
00:00:09:216,-0.924,-0.444,-0.086,-344.056,5.249,-56.641,
00:00:09:233,-0.75,-0.426,-0.077,-230.713,61.218,-30.091,
00:00:09:250,-0.529,-0.587,-0.067,-75.562,133.239,43.273,
00:00:09:266,-0.305,-0.772,-0.006,158.02,231.384,138.733,
00:00:09:283,-0.04,-1.032,0.095,459.289,338.44,206.115,
00:00:09:300,0.129,-1.202,0.301,662.414,415.71,230.407,
00:00:09:316,0.35,-1.415,0.442,719.604,462.036,178.466,
00:00:09:333,0.434,-1.571,0.549,546.63,367.248,30.212,
00:00:09:350,0.337,-1.544,0.593,267.822,287.78,-61.829,
00:00:09:366,0.199,-1.297,0.694,19.958,221.557,-126.587,
00:00:09:383,0.116,-1.041,0.775,-65.064,142.028,-115.357,
00:00:09:400,0.022,-0.927,0.803,-22.4,-31.8,-171.753,
00:00:09:416,-0.097,-0.949,0.807,-57.068,-192.017,-152.832,
00:00:09:433,-0.336,-0.853,0.778,-153.565,-297.059,-75.989,
00:00:09:450,-0.586,-0.7,0.67,-159.913,-391.419,4.028,
00:00:09:466,-0.873,-0.653,0.479,-108.033,-478.943,67.077,
00:00:09:483,-1.128,-0.685,0.275,-105.347,-505.677,112.609,
00:00:09:500,-1.357,-0.655,0.085,-192.2,-420.289,81.359,
00:00:09:516,-1.345,-0.567,-0.036,-275.818,-300.232,82.214,
00:00:09:533,-1.244,-0.589,-0.041,-248.108,-226.441,43.823,
00:00:09:550,-1.07,-0.712,-0.092,-212.159,-163.331,-34.729,
00:00:09:566,-0.957,-0.79,-0.185,-228.516,-85.45,-90.943,
00:00:09:583,-0.79,-0.8,-0.218,-166.26,5.127,-120.972,
00:00:09:600,-0.626,-0.8,-0.231,-27.894,91.796,-136.658,
00:00:09:616,-0.472,-0.852,-0.198,101.623,182.678,-136.475,
00:00:09:633,-0.299,-1.004,-0.087,178.466,272.094,-131.104,
00:00:09:650,-0.142,-1.095,0.083,181.579,369.934,-106.507,
00:00:09:666,0.029,-1.153,0.238,109.863,461.12,-105.53,
00:00:09:683,0.165,-1.179,0.393,34.24,488.342,-127.076,
00:00:09:700,0.228,-1.166,0.582,-18.494,526.977,-161.56,
00:00:09:716,0.294,-1.07,0.892,127.563,365.539,-162.415,
00:00:09:733,0.174,-1.093,1.047,124.572,146.362,-187.561,
00:00:09:750,0.011,-0.991,1.045,-17.945,50.842,-209.717,
00:00:09:766,-0.083,-0.78,1.005,15.258,-110.535,-117.92,
00:00:09:783,-0.28,-0.791,0.976,78.43,-333.558,-96.131,
00:00:09:800,-0.546,-0.786,0.805,-36.988,-459.656,-78.858,
00:00:09:816,-0.791,-0.683,0.619,-148.682,-542.298,-14.039,
00:00:09:833,-1.019,-0.65,0.44,-139.283,-614.563,37.17,
00:00:09:850,-1.285,-0.647,0.181,-199.341,-585.572,-31.434,
00:00:09:866,-1.287,-0.653,-0.081,-340.455,-428.406,-76.294,
00:00:09:883,-1.228,-0.532,-0.21,-468.079,-247.071,-50.354,
00:00:09:900,-1.135,-0.456,-0.249,-436.524,-123.047,-70.74,
00:00:09:916,-1.009,-0.472,-0.224,-333.924,-26.734,-65.308,
00:00:09:933,-0.839,-0.514,-0.213,-232.117,89.843,-23.743,
00:00:09:950,-0.634,-0.561,-0.162,-123.352,217.102,21.667,
00:00:09:966,-0.421,-0.633,-0.057,34.545,320.495,93.383,
00:00:09:983,-0.234,-0.787,0.029,236.694,393.127,114.685,
00:00:10:0,-0.069,-1.054,0.181,411.193,418.64,121.399,
00:00:10:16,0.032,-1.177,0.283,507.324,471.313,129.882,
00:00:10:33,0.143,-1.274,0.477,643.249,434.997,67.077,
00:00:10:50,0.204,-1.316,0.622,610.168,340.332,17.883,
00:00:10:66,0.157,-1.265,0.725,421.203,249.389,-43.457,
00:00:10:83,0.101,-1.073,0.789,318.847,133.422,-75.379,
00:00:10:100,0.032,-1.003,0.804,335.144,-39.368,-120.301,
00:00:10:116,-0.094,-1.014,0.825,292.114,-228.638,-148.804,
00:00:10:133,-0.256,-0.921,0.769,137.207,-325.135,-139.344,
00:00:10:150,-0.449,-0.84,0.641,50.781,-407.837,-118.226,
00:00:10:166,-0.7,-0.745,0.526,10.681,-491.944,-35.279,
00:00:10:183,-0.96,-0.75,0.39,-30.335,-565.735,-27.405,
00:00:10:200,-1.167,-0.76,0.231,-144.654,-581.849,-33.631,
00:00:10:216,-1.234,-0.679,0.012,-306.885,-514.466,-70.13,
00:00:10:233,-1.238,-0.625,-0.13,-394.104,-433.167,-59.51,
00:00:10:250,-1.232,-0.563,-0.137,-482.972,-322.693,-79.895,
00:00:10:266,-1.13,-0.54,-0.111,-470.826,-205.75,-86.609,
00:00:10:283,-0.953,-0.599,-0.106,-395.997,-117.493,-72.693,
00:00:10:300,-0.726,-0.675,-0.066,-353.577,-2.991,-24.292,
00:00:10:316,-0.578,-0.738,-0.026,-306.519,97.473,31.127,
00:00:10:333,-0.392,-0.781,-0.015,-203.003,223.388,94.421,
00:00:10:350,-0.24,-0.851,0.023,3.845,327.087,129.455,whipLH
00:00:10:366,-0.115,-0.965,0.112,235.412,421.02,183.593,
00:00:10:383,-0.024,-1.179,0.172,406.433,443.237,101.44,
00:00:10:400,0.001,-1.283,0.273,434.753,472.717,69.641,
00:00:10:416,0.02,-1.227,0.379,399.719,533.63,28.015,
00:00:10:433,0.059,-1.155,0.482,429.626,511.169,-40.894,
00:00:10:450,0.02,-1.108,0.604,425.171,410.827,-74.341,
00:00:10:466,-0.043,-1.058,0.674,327.209,296.692,-106.446,
00:00:10:483,-0.073,-0.998,0.748,225.463,178.161,-134.766,
00:00:10:500,-0.128,-0.946,0.831,153.503,18.31,-128.785,
00:00:10:516,-0.253,-0.867,0.845,95.947,-146.79,-92.957,
00:00:10:533,-0.443,-0.897,0.763,23.437,-356.812,-75.257,
00:00:10:550,-0.815,-0.815,0.612,-174.195,-492.066,-37.781,
00:00:10:566,-1.077,-0.57,0.489,-293.702,-505.433,36.071,
00:00:10:583,-1.152,-0.457,0.173,-280.335,-455.384,89.599,
00:00:10:600,-1.204,-0.545,-0.024,-239.197,-387.879,75.622,
00:00:10:616,-1.239,-0.527,-0.128,-280.884,-215.638,120.3,
00:00:10:633,-1.11,-0.589,-0.203,-237.977,-73.182,99.914,
00:00:10:650,-0.94,-0.714,-0.208,-206.421,-1.221,75.927,
00:00:10:666,-0.796,-0.765,-0.24,-238.099,98.327,56.823,
00:00:10:683,-0.57,-0.802,-0.184,-223.023,187.5,81.298,
00:00:10:700,-0.394,-0.86,-0.031,-181.397,257.873,62.194,
00:00:10:716,-0.235,-1.047,0.078,-124.878,312.011,25.573,
00:00:10:733,-0.129,-1.136,0.151,-62.989,394.226,30.7,
00:00:10:750,0.001,-1.159,0.281,127.99,456.359,15.625,
00:00:10:766,0.121,-1.225,0.44,251.892,447.998,-45.655,
00:00:10:783,0.139,-1.178,0.61,164.611,413.94,-96.619,
00:00:10:800,0.119,-1.052,0.804,113.586,326.538,-111.573,
00:00:10:816,0.071,-0.974,0.903,132.08,177.124,-111.084,
00:00:10:833,-0.01,-0.914,0.866,115.295,30.334,-117.493,
00:00:10:850,-0.091,-0.866,0.847,79.406,-101.807,-93.018,
00:00:10:866,-0.229,-0.769,0.774,42.907,-213.257,-12.146,
00:00:10:883,-0.419,-0.741,0.669,33.203,-312.439,67.321,
00:00:10:900,-0.642,-0.735,0.486,-17.884,-386.292,130.432,
00:00:10:916,-0.857,-0.749,0.354,-125.977,-424.378,137.756,
00:00:10:933,-1.041,-0.67,0.182,-165.223,-366.822,160.705,
00:00:10:950,-1.109,-0.653,-0.018,-124.512,-293.58,136.474,
00:00:10:966,-1.111,-0.707,-0.083,-177.674,-182.496,91.857,
00:00:10:983,-1.022,-0.681,-0.15,-222.779,-64.27,40.893,
00:00:11:0,-0.91,-0.732,-0.201,-149.781,10.681,-6.165,
00:00:11:16,-0.789,-0.808,-0.195,-102.051,87.463,-43.702,
00:00:11:33,-0.619,-0.916,-0.054,-149.353,137.268,-77.271,
00:00:11:50,-0.48,-0.957,0.141,-249.634,195.617,-94.727,
00:00:11:66,-0.323,-1.013,0.265,-181.397,227.783,-129.639,
00:00:11:83,-0.183,-1.185,0.314,3.051,269.409,-192.261,
00:00:11:100,-0.101,-1.224,0.336,205.444,352.172,-192.627,
00:00:11:116,-0.056,-1.138,0.352,341.919,442.688,-224.793,
00:00:11:133,-0.06,-1.06,0.445,413.147,468.75,-267.945,
00:00:11:150,-0.128,-1.013,0.486,435.913,453.064,-292.542,
00:00:11:166,-0.203,-0.942,0.476,425.659,454.895,-305.115,
00:00:11:183,-0.288,-0.861,0.505,354.98,435.485,-250.794,
00:00:11:200,-0.38,-0.735,0.512,329.712,403.198,-221.558,
00:00:11:216,-0.44,-0.718,0.566,316.406,323.791,-188.538,
00:00:11:233,-0.503,-0.74,0.65,248.901,216.674,-151.856,
00:00:11:250,-0.564,-0.805,0.743,78.735,88.989,-163.269,
00:00:11:266,-0.637,-0.813,0.564,-204.346,-2.869,-212.464,
00:00:11:283,-0.682,-0.62,0.63,-388.855,-75.562,-103.028,
00:00:11:300,-0.699,-0.527,0.451,-330.689,-172.669,-48.035,
00:00:11:316,-0.74,-0.49,0.251,-287.476,-223.755,-7.264,
00:00:11:333,-0.758,-0.529,0.099,-212.647,-230.957,50.903,
00:00:11:350,-0.752,-0.607,0.042,-165.65,-210.144,95.336,
00:00:11:366,-0.707,-0.688,0.165,-184.937,-175.66,91.919,
00:00:11:383,-0.673,-0.727,0.101,-116.394,-62.867,106.323,
00:00:11:400,-0.583,-0.86,-0.045,134.46,22.766,92.102,
00:00:11:416,-0.494,-0.959,-0.098,365.112,153.747,73.852,
00:00:11:433,-0.369,-1.031,-0.081,485.107,310.119,6.591,
00:00:11:450,-0.239,-1.191,0.04,507.08,459.838,-54.81,
00:00:11:466,-0.163,-1.145,0.281,512.146,602.295,-54.749,
00:00:11:483,-0.093,-1.032,0.479,679.382,659.057,-64.515,
00:00:11:500,-0.051,-0.947,0.591,949.401,664.489,-33.753,
00:00:11:516,0.012,-0.938,0.61,1176.147,568.054,-14.649,
00:00:11:533,0.062,-1.069,0.588,1305.481,409.118,-17.823,
00:00:11:550,0.013,-1.305,0.563,1225.341,239.38,16.723,
00:00:11:566,-0.094,-1.223,0.503,889.343,168.274,135.986,
00:00:11:583,-0.165,-0.974,0.506,625.793,35.705,167.053,
00:00:11:600,-0.313,-0.826,0.402,524.597,-153.748,179.26,
00:00:11:616,-0.538,-0.794,0.196,516.906,-280.518,174.621,
00:00:11:633,-0.752,-0.882,0.037,569.641,-338.013,131.225,
00:00:11:650,-0.987,-0.917,-0.025,654.907,-339.356,70.556,
00:00:11:666,-1.167,-0.687,-0.027,729.431,-222.901,107.422,
00:00:11:683,-1.179,-0.479,-0.13,871.093,-95.887,41.442,
00:00:11:700,-1.091,-0.545,-0.339,924.56,-0.428,-75.257,
00:00:11:716,-1.027,-0.784,-0.484,1003.234,107.849,-159.546,
00:00:11:733,-0.934,-0.909,-0.53,923.034,215.026,-183.655,
00:00:11:750,-0.765,-0.879,-0.422,874.328,365.417,-145.203,
00:00:11:766,-0.557,-0.849,-0.419,911.56,452.88,-61.829,
00:00:11:783,-0.351,-0.993,-0.556,868.103,546.753,10.376,
00:00:11:800,-0.134,-1.162,-0.515,534.546,646.85,128.357,
00:00:11:816,0.081,-1.091,-0.419,129.211,673.034,214.172,
00:00:11:833,0.172,-1.007,-0.283,-112.244,642.395,288.086,
00:00:11:850,0.225,-1.111,-0.21,-125.428,601.562,322.387,
00:00:11:866,0.213,-1.119,-0.029,-132.569,271.423,177.429,
00:00:11:883,0.158,-1.139,-0.061,-99.854,381.103,207.763,
00:00:11:900,0.242,-1.165,0.002,57.067,350.402,179.443,
00:00:11:916,0.217,-1.029,0.037,70.495,283.264,157.043,
00:00:11:933,0.153,-1.042,0.143,103.21,138.305,188.964,
00:00:11:950,0.007,-1.213,0.13,180.786,-13.184,106.262,
00:00:11:966,-0.194,-1.285,0.213,-83.863,-161.011,81.115,
00:00:11:983,-0.421,-1.203,0.2,-433.045,-312.439,9.582,
00:00:12:0,-0.652,-1.038,0.182,-517.518,-452.576,-34.729,
00:00:12:16,-0.954,-1.04,0.104,-523.987,-512.085,-179.017,
00:00:12:33,-1.122,-0.822,0.001,-437.989,-493.348,-179.993,
00:00:12:50,-1.118,-0.706,-0.141,-234.07,-467.164,-236.573,
00:00:12:66,-1.034,-0.678,-0.24,-285.828,-406.311,-272.889,
00:00:12:83,-1.012,-0.558,-0.386,-380.127,-299.683,-308.533,
00:00:12:100,-0.957,-0.436,-0.452,-202.149,-175.049,-286.438,
00:00:12:116,-0.745,-0.538,-0.51,79.467,-4.09,-184.021,
00:00:12:133,-0.497,-0.696,-0.505,265.258,135.559,-80.933,
00:00:12:150,-0.271,-0.73,-0.5,461.181,237.06,40.893,
00:00:12:166,-0.118,-0.777,-0.629,571.838,390.319,152.343,
00:00:12:183,0.025,-0.794,-0.851,576.049,591.186,264.221,
00:00:12:200,0.203,-0.889,-0.778,533.325,732.36,390.075,
00:00:12:216,0.325,-1.1,-0.425,487.487,770.813,453.003,
00:00:12:233,0.224,-1.447,-0.203,170.349,752.014,600.708,
00:00:12:250,0.084,-1.468,-0.004,196.96,625.488,257.08,
00:00:12:266,0.091,-1.308,-0.111,211.914,552.49,177.246,
00:00:12:283,0.138,-1.661,0.465,128.662,216.064,-83.069,
00:00:12:300,0.109,-2.497,0.401,83.923,-255.31,-706.238,
00:00:12:316,-0.429,-1.261,0.534,-1423.584,-178.223,-300.354,
00:00:12:333,-0.387,-0.376,0.364,-947.388,-220.459,-207.276,
00:00:12:350,-0.362,-0.254,0.016,-303.162,-394.715,-231.69,
00:00:12:366,-0.667,-0.745,0.245,-145.203,-573.182,-169.983,
00:00:12:383,-1.124,-1,0.201,-635.621,-582.337,-144.532,
00:00:12:400,-1.188,-0.586,0.086,-855.103,-481.751,-106.019,
00:00:12:416,-0.989,-0.451,-0.073,-617.676,-422.547,-75.989,
00:00:12:433,-0.898,-0.624,-0.212,-423.218,-388.55,-50.477,
00:00:12:450,-0.876,-0.537,-0.301,-339.783,-303.406,-50.965,
00:00:12:466,-0.71,-0.524,-0.261,-166.932,-186.219,6.347,
00:00:12:483,-0.493,-0.7,-0.331,31.311,-57.862,65.49,
00:00:12:500,-0.322,-0.821,-0.383,323.242,43.823,118.774,
00:00:12:516,-0.16,-0.999,-0.408,605.957,158.386,170.41,
00:00:12:533,0.001,-1.16,-0.365,834.289,260.192,191.284,
00:00:12:550,0.164,-1.232,-0.357,899.231,325.073,226.074,
00:00:12:566,0.245,-1.241,-0.217,798.034,353.82,247.131,
00:00:12:583,0.266,-1.26,-0.188,539.672,330.627,203.491,
00:00:12:600,0.249,-1.306,-0.105,161.377,268.066,163.208,
00:00:12:616,0.225,-1.289,0.23,-134.644,85.632,129.943,
00:00:12:633,0.121,-1.32,0.302,-348.633,-125,31.982,
00:00:12:650,-0.067,-1.108,0.245,-477.173,-338.379,-49.744,
00:00:12:666,-0.288,-0.892,0.112,-530.457,-504.517,-41.993,
00:00:12:683,-0.475,-1.405,-0.031,-561.402,-811.951,-353.821,
00:00:12:700,-0.952,-1.462,-0.015,-929.932,-859.681,-386.719,
00:00:12:716,-1.008,-0.742,-0.175,-1077.027,-666.932,-212.159,
00:00:12:733,-0.872,-0.655,-0.358,-1012.33,-513.367,-454.895,
00:00:12:750,-0.967,-0.594,-0.509,-590.149,-414.368,-375.611,
00:00:12:766,-1.082,-0.636,-0.544,-331.482,-244.202,-411.255,
00:00:12:783,-1.01,-0.577,-0.579,-397.156,14.77,-367.798,
00:00:12:800,-0.807,-0.525,-0.419,-354.248,217.773,-307.373,
00:00:12:816,-0.657,-0.45,-0.306,-248.841,415.893,-194.397,
00:00:12:833,-0.483,-0.454,-0.057,193.298,499.511,-53.894,
00:00:12:850,-0.24,-0.691,0.069,838.256,521.301,64.819,
00:00:12:866,-0.063,-0.999,0.056,1195.861,545.959,193.115,
00:00:12:883,0.107,-1.127,0.037,1243.286,541.32,333.923,
00:00:12:900,0.207,-1.008,-0.037,815.857,526.733,453.613,
00:00:12:916,0.32,-1.127,0.191,462.219,428.344,405.151,
00:00:12:933,0.359,-1.571,0.353,249.267,220.214,267.761,
00:00:12:950,0.23,-1.784,0.401,-150.635,2.99,171.997,
00:00:12:966,-0.006,-1.636,0.244,-290.894,-164.429,50.537,
00:00:12:983,-0.213,-1.496,0.736,-275.513,-469.605,-65.43,
00:00:13:0,-0.333,-1.887,0.277,-905.945,-752.198,-538.392,
00:00:13:16,-0.773,-1.051,0.289,-1556.153,-641.907,-231.629,
00:00:13:33,-0.79,-0.423,-0.1,-1187.989,-476.746,-128.602,
00:00:13:50,-0.837,-0.619,-0.351,-732.117,-471.497,-356.324,
00:00:13:66,-1.088,-0.73,-0.407,-760.804,-372.559,-222.046,
00:00:13:83,-1.228,-0.626,-0.253,-982.422,-174.256,-210.389,
00:00:13:100,-1.075,-0.343,-0.226,-1152.588,10.986,-160.279,
00:00:13:116,-0.899,-0.252,-0.209,-859.559,98.205,-185.303,
00:00:13:133,-0.764,-0.431,-0.182,-365.174,166.565,-115.601,
00:00:13:150,-0.581,-0.623,-0.16,123.474,264.038,15.686,
00:00:13:166,-0.387,-0.629,-0.144,582.031,412.841,104.736,
00:00:13:183,-0.228,-0.583,-0.109,1036.255,569.824,239.685,
00:00:13:200,0.401,-1.59,0.052,1106.506,329.712,252.319,
00:00:13:216,0.232,-1.631,0.215,460.876,296.63,236.389,
00:00:13:233,0.195,-1.374,0.473,433.227,238.281,132.08,
00:00:13:250,0.256,-1.353,0.541,602.539,24.047,21.484,
00:00:13:266,0.115,-1.367,0.379,440.185,-154.602,-34.913,
00:00:13:283,-0.069,-1.247,0.247,170.166,-261.231,-28.87,
00:00:13:300,-0.209,-1.217,0.344,-179.871,-372.254,-16.114,
00:00:13:316,-0.362,-1.454,0.262,-669.007,-631.653,-267.579,
00:00:13:333,-0.868,-1.119,0.296,-1233.887,-631.653,-97.413,
00:00:13:350,-1.099,-0.611,0.172,-1011.231,-490.54,-38.819,
00:00:13:366,-1.091,-0.754,-0.176,-614.014,-519.471,-228.821,
00:00:13:383,-1.266,-1,-0.351,-727.173,-457.032,-275.33,
00:00:13:400,-1.34,-0.882,-0.198,-970.398,-274.964,-299.256,
00:00:13:416,-1.093,-0.662,-0.103,-1079.163,-124.329,-360.962,
00:00:13:433,-0.824,-0.654,-0.197,-996.766,-53.589,-444.581,
00:00:13:450,-0.71,-0.794,-0.209,-981.873,34.912,-414.124,
00:00:13:466,-0.621,-0.613,-0.184,-810.791,273.437,-275.147,
00:00:13:483,-0.356,-0.428,-0.096,-179.566,455.444,-53.956,
00:00:13:500,-0.121,-0.42,0,652.893,565.673,111.084,
00:00:13:516,0.108,-0.639,0.099,1281.311,614.257,180.481,
00:00:13:533,0.307,-0.991,0.138,1534.484,630.127,254.211,
00:00:13:550,0.444,-1.434,0.09,1432.19,599.792,210.083,
00:00:13:566,0.456,-1.703,0.214,986.389,525.879,181.274,
00:00:13:583,0.385,-1.569,0.51,653.076,429.077,101.074,
00:00:13:600,0.314,-1.41,0.574,431.945,246.093,17.578,
00:00:13:616,0.062,-0.977,0.527,289.184,-329.468,-38.88,
00:00:13:633,-0.018,-1.265,0.57,158.508,-681.946,-176.758,
00:00:13:650,-0.418,-1.302,0.457,-370.423,-819.458,-140.198,
00:00:13:666,-0.674,-0.84,0.342,-467.347,-751.404,82.946,
00:00:13:683,-0.805,-0.565,0.012,-240.54,-775.025,140.075,
00:00:13:700,-1.127,-0.644,-0.333,-208.802,-862.427,69.885,
00:00:13:716,-1.479,-0.75,-0.388,-308.35,-715.699,67.443,
00:00:13:733,-1.451,-0.722,-0.419,-399.659,-469.422,15.808,
00:00:13:750,-1.321,-0.642,-0.527,-408.02,-279.664,-70.862,
00:00:13:766,-1.056,-0.79,-0.584,-291.993,-147.706,-196.534,
00:00:13:783,-0.878,-0.873,-0.536,-352.906,-39.246,-252.381,
00:00:13:800,-0.764,-0.78,-0.403,-437.684,84.961,-268.921,
00:00:13:816,-0.564,-0.703,-0.162,-420.838,190.246,-211.976,
00:00:13:833,0.148,-0.956,-0.08,581.909,580.932,146.667,
00:00:13:850,0.312,-1.115,0.01,810.913,667.724,126.587,
00:00:13:866,0.47,-1.354,0.246,1015.991,618.408,64.086,
00:00:13:883,0.535,-1.599,0.324,842.59,483.398,48.217,
00:00:13:900,0.414,-1.501,0.384,493.286,358.093,61.462,
00:00:13:916,0.236,-1.201,0.422,348.022,224.975,27.465,
00:00:13:933,0.152,-1.105,0.431,355.529,66.589,-19.532,
00:00:13:950,0.07,-1.188,0.465,355.896,-231.202,-100.22,
00:00:13:966,-0.182,-1.161,0.362,139.77,-558.594,-149.659,
00:00:13:983,-0.617,-1.043,0.204,-296.082,-751.465,-219.727,
00:00:14:0,-1.176,-0.474,0.064,-720.093,-733.826,-295.105,
00:00:14:16,-1.185,-0.503,-0.268,-426.819,-686.585,-441.895,
00:00:14:33,-1.248,-0.646,-0.444,-356.141,-551.209,-382.63,
00:00:14:50,-1.164,-0.789,-0.495,-447.022,-319.092,-379.517,
00:00:14:66,-0.967,-0.805,-0.416,-580.14,-49.744,-326.416,
00:00:14:83,-0.349,-0.77,-0.344,161.865,499.878,-46.875,
00:00:14:100,-0.242,-0.794,-0.29,430.725,705.322,92.285,
00:00:14:116,-0.068,-0.899,-0.171,749.633,875.305,171.936,
00:00:14:133,0.159,-1.15,0.051,987.976,956.848,181.64,
00:00:14:150,0.401,-1.4,0.199,918.762,926.086,218.567,
00:00:14:166,0.507,-1.483,0.321,619.751,743.286,213.562,
00:00:14:183,0.443,-1.427,0.416,277.282,497.558,109.863,
00:00:14:200,0.332,-1.269,0.544,27.71,248.535,21.972,
00:00:14:216,0.263,-1.089,0.653,-35.157,10.742,-38.025,
00:00:14:233,0.156,-1.034,0.661,85.754,-288.941,-119.202,
00:00:14:250,-0.141,-1.067,0.526,124.878,-601.929,-141.663,
00:00:14:266,-0.591,-1.002,0.264,28.991,-793.58,-107.911,
00:00:14:283,-1.074,-0.846,0.073,-196.045,-783.204,-62.439,
00:00:14:300,-1.338,-0.692,-0.034,-320.557,-687.256,-53.894,
00:00:14:316,-1.506,-0.624,-0.158,-307.74,-558.35,-44.007,
00:00:14:333,-1.601,-0.616,-0.295,-232.605,-372.925,-73.243,
00:00:14:350,-1.512,-0.59,-0.389,-188.172,-172.181,-107.239,
00:00:14:366,-1.322,-0.567,-0.493,-196.595,-4.7,-146.546,whipLH
00:00:14:383,-1.143,-0.629,-0.511,-229.859,140.014,-181.946,
00:00:14:400,-0.926,-0.638,-0.434,-247.681,295.349,-155.64,
00:00:14:416,-0.63,-0.655,-0.309,-184.449,401.977,-84.473,
00:00:14:433,-0.338,-0.773,-0.29,-106.629,500.488,13.061,
00:00:14:450,-0.053,-0.974,-0.178,37.048,605.59,130.066,
00:00:14:466,0.237,-1.102,-0.008,159.546,665.466,263.794,
00:00:14:483,0.446,-1.148,0.177,351.745,660.949,336.67,
00:00:14:500,0.685,-1.398,0.273,895.202,478.149,110.229,
00:00:14:516,0.771,-1.522,0.402,872.314,372.924,149.475,
00:00:14:533,0.495,-1.218,0.197,566.223,251.159,59.875,
00:00:14:550,0.394,-1.134,0.238,479.858,184.204,11.84,
00:00:14:566,0.494,-1.284,0.387,372.741,-22.4,68.481,
00:00:14:583,0.326,-1.271,0.404,61.218,-319.397,132.751,
00:00:14:600,-0.005,-1.124,0.518,-52.979,-525.208,12.695,
00:00:14:616,-0.346,-1.114,0.369,-82.459,-602.173,64.819,
00:00:14:633,-0.631,-0.974,0.014,-93.323,-763.001,59.936,
00:00:14:650,-1.08,-1.002,-0.114,-172.547,-865.357,57.8,
00:00:14:666,-1.508,-1.048,-0.22,-395.081,-753.357,32.287,
00:00:14:683,-1.607,-0.768,-0.264,-485.352,-539.917,-29.419,
00:00:14:700,-1.527,-0.594,-0.361,-365.662,-329.834,-109.62,
00:00:14:716,-1.415,-0.671,-0.502,-293.519,-150.452,-202.332,
00:00:14:733,-1.271,-0.592,-0.529,-312.439,25.085,-260.56,
00:00:14:750,-1.048,-0.458,-0.442,-286.011,199.401,-232.483,
00:00:14:766,-0.81,-0.422,-0.368,-213.257,312.683,-206.482,
00:00:14:783,-0.591,-0.446,-0.321,-130.433,399.963,-108.338,
00:00:14:800,-0.386,-0.48,-0.282,85.022,456.115,38.696,
00:00:14:816,-0.172,-0.547,-0.194,448.547,528.564,225.341,
00:00:14:833,0.124,-0.736,-0.045,860.901,580.932,392.151,
00:00:14:850,0.446,-1.215,-0.041,990.661,571.472,475.83,
00:00:14:866,0.613,-1.667,-0.131,829.284,529.663,433.838,
00:00:14:883,0.577,-1.676,-0.163,474.609,535.949,419.922,
00:00:14:900,0.528,-1.452,0.025,460.388,460.754,249.206,
00:00:14:916,0.449,-1.509,0.224,540.71,306.884,157.409,
00:00:14:933,0.287,-1.608,0.275,366.088,124.267,36.438,
00:00:14:950,0.062,-1.423,0.318,131.225,-35.035,-49.988,
00:00:14:966,-0.121,-1.216,0.218,-23.621,-145.386,-56.031,
00:00:14:983,-0.28,-1.049,0.277,-149.353,-292.542,-85.144,
00:00:15:0,-0.491,-1.109,0.286,-283.814,-478.394,-142.884,
00:00:15:16,-0.852,-1.107,0.277,-437.134,-630.616,-163.331,
00:00:15:33,-1.17,-0.776,0.15,-400.452,-604.737,-115.784,
00:00:15:50,-1.261,-0.678,-0.03,-322.937,-548.462,-136.536,
00:00:15:66,-1.294,-0.639,-0.118,-341.37,-482.605,-164.978,
00:00:15:83,-1.299,-0.54,-0.185,-397.4,-370.789,-160.828,
00:00:15:100,-1.161,-0.43,-0.212,-364.93,-256.104,-125.245,
00:00:15:116,-0.93,-0.407,-0.296,-305.298,-166.504,-67.261,
00:00:15:133,-0.703,-0.554,-0.396,-233.582,-71.228,-11.414,
00:00:15:150,-0.508,-0.717,-0.461,-107.422,34.545,63.354,
00:00:15:166,-0.307,-0.867,-0.523,148.376,141.723,134.948,
00:00:15:183,-0.095,-1,-0.521,473.632,249.206,182.129,
00:00:15:200,0.114,-1.079,-0.583,622.863,363.342,250.183,
00:00:15:216,0.944,-1.549,-0.224,507.141,662.841,444.58,
00:00:15:233,0.539,-1.197,-0.473,233.703,430.969,791.259,
00:00:15:250,0.124,-1.124,-0.202,246.032,497.802,-311.219,
00:00:15:266,0.404,-1.354,0.086,228.149,917.114,-158.509,
00:00:15:283,0.805,-1.312,0.131,309.875,696.716,168.823,
00:00:15:300,0.587,-1.308,0.252,404.358,304.565,-41.504,
00:00:15:316,0.304,-1.177,0.313,483.337,96.435,28.808,
00:00:15:333,0.122,-1.289,0.381,313.659,43.884,-44.983,
00:00:15:350,-0.34,-1.105,0.168,-41.016,-460.877,-118.836,
00:00:15:366,-0.756,-1.083,0.1,-120.118,-574.036,-144.593,
00:00:15:383,-1.118,-0.907,-0.04,-144.898,-641.175,-136.658,
00:00:15:400,-1.438,-0.891,-0.195,-168.763,-616.761,-221.253,
00:00:15:416,-1.533,-0.755,-0.259,-265.015,-489.075,-272.278,
00:00:15:433,-1.364,-0.472,-0.334,-364.319,-334.778,-314.637,
00:00:15:450,-1.116,-0.426,-0.419,-399.048,-228.943,-402.649,
00:00:15:466,-0.92,-0.567,-0.645,-420.411,-131.226,-428.284,
00:00:15:483,-0.738,-0.668,-0.84,-334.473,12.756,-381.47,
00:00:15:500,-0.471,-0.77,-0.849,-124.878,218.811,-298.279,
00:00:15:516,-0.161,-0.739,-0.751,85.205,409.179,-172.059,
00:00:15:533,0.108,-0.741,-0.514,320.861,572.387,-9.522,
00:00:15:550,0.325,-0.805,-0.253,563.964,703.613,173.034,
00:00:15:566,0.489,-0.914,-0.059,650.268,769.47,336.12,
00:00:15:583,0.552,-1.118,0.092,716.491,751.342,370.788,
00:00:15:600,0.563,-1.367,0.041,781.433,657.531,337.829,
00:00:15:616,0.57,-1.535,0.244,657.47,458.618,314.087,
00:00:15:633,0.502,-1.521,0.443,483.581,211.975,221.435,
00:00:15:650,0.015,-1.537,0.275,505.432,-435.852,-129.029,
00:00:15:666,-0.21,-1.682,-0.073,-116.211,-552.979,-325.013,
00:00:15:683,-0.444,-1.293,-0.006,-398.865,-648.804,-197.876,
00:00:15:700,-0.668,-0.868,-0.137,-385.743,-710.816,-104.554,
00:00:15:716,-1.082,-0.629,-0.324,-356.69,-772.095,-107.361,
00:00:15:733,-1.428,-0.529,-0.577,-367.859,-298.584,-300.843,
00:00:15:750,-1.229,-0.48,-0.646,-404.786,-182.801,-448.304,
00:00:15:766,-1.069,-0.494,-0.665,-322.754,-49.256,-471.375,
00:00:15:783,-0.843,-0.606,-0.678,-259.888,82.275,-451.416,
00:00:15:800,-0.645,-0.722,-0.66,-332.276,176.88,-394.593,
00:00:15:816,-0.087,-0.882,-0.452,-10.621,351.989,-154.541,
00:00:15:833,0.145,-1.102,-0.395,222.961,440.002,-33.997,
00:00:15:850,0.336,-1.339,-0.345,381.775,507.019,33.569,
00:00:15:866,0.415,-1.406,-0.251,344.116,567.505,74.157,
00:00:15:883,0.691,-1.545,0.084,202.27,694.458,164.917,
00:00:15:900,0.182,-1.397,0.226,292.724,397.277,-11.658,
00:00:15:916,0.007,-1.4,0.304,267.089,172.851,24.108,
00:00:15:933,-0.251,-1.142,0.351,123.169,-28.687,0.854,
00:00:15:950,-0.482,-0.923,0.38,-37.537,-131.287,-93.14,
00:00:15:966,-0.683,-1.076,0.314,-151.001,-270.081,-232.422,
00:00:15:983,-0.941,-1.075,0.261,-367.432,-410.645,-277.283,
00:00:16:0,-1.161,-1.004,0.225,-716.309,-483.643,-337.403,
00:00:16:16,-1.202,-0.81,0.191,-966.614,-548.89,-402.222,
00:00:16:33,-1.217,-0.463,0.029,-1034.546,-594.971,-426.148,
00:00:16:50,-1.312,-0.305,-0.195,-894.288,-569.581,-417.359,
00:00:16:66,-1.23,-0.314,-0.306,-752.564,-451.355,-370.301,
00:00:16:83,-0.958,-0.332,-0.316,-721.863,-288.086,-284.424,
00:00:16:100,-0.697,-0.422,-0.314,-448.731,-186.89,-152.649,
00:00:16:116,-0.43,-0.523,-0.339,7.019,-56.824,12.573,
00:00:16:133,-0.196,-0.532,-0.455,747.802,109.253,132.995,
00:00:16:150,0.07,-0.515,-0.676,1349.243,254.577,281.86,
00:00:16:166,0.305,-1.025,-0.846,1368.286,377.624,274.536,
00:00:16:183,0.458,-1.527,-0.647,938.781,470.947,308.838,
00:00:16:200,0.473,-1.457,-0.385,322.57,569.03,324.585,
00:00:16:216,0.369,-1.162,-0.242,55.725,614.624,297.302,
00:00:16:233,0.252,-1.199,0.146,416.015,496.093,120.605,
00:00:16:250,0.12,-1.126,0.184,1016.906,309.814,71.044,
00:00:16:266,0.079,-1.32,0.188,849.67,183.593,103.881,
00:00:16:283,-0.424,-1.369,0.25,507.995,-33.997,-836.304,
00:00:16:300,-0.256,-1.287,0.412,122.924,-130.494,-644.532,
00:00:16:316,-0.5,-1.25,0.329,54.138,-429.078,-1010.071,
00:00:16:333,-0.951,-1.475,0.195,-133.301,-575.44,-1053.223,
00:00:16:350,-0.44,-1.783,0.499,-593.873,-345.337,-26.734,
00:00:16:366,-1.243,-0.4,-0.096,-212.891,-779.969,278.93,
00:00:16:383,-1.829,-0.401,-0.334,-72.205,-619.324,412.109,
00:00:16:400,-1.512,-0.71,-0.49,-41.504,-141.236,174.255,
00:00:16:416,-1.203,-0.771,-0.539,-321.289,-41.443,16.357,
00:00:16:433,-1.096,-0.544,-0.567,-548.584,105.651,52.612,
00:00:16:450,-0.873,-0.46,-0.527,-384.827,191.345,86.486,
00:00:16:466,-0.647,-0.502,-0.503,-57.373,234.619,139.831,
00:00:16:483,-0.516,-0.599,-0.501,102.172,300.537,205.2,
00:00:16:500,-0.501,-0.624,-0.329,65.368,170.044,-374.146,
00:00:16:516,0.068,-0.608,-0.54,-27.466,610.839,493.469,
00:00:16:533,-0.204,-1.183,-0.469,-235.657,521.301,165.71,
00:00:16:550,-0.037,-0.925,-0.457,-117.127,649.841,397.033,
00:00:16:566,0.221,-0.836,-0.267,346.74,685.669,369.262,
00:00:16:583,0.159,-1.653,-0.053,563.476,685.974,312.317,
00:00:16:600,0.117,-1.615,0.026,77.758,652.099,236.633,
00:00:16:616,0.106,-0.998,0.124,2.258,576.782,183.96,
00:00:16:633,0.074,-1.223,0.198,185.302,492.309,165.405,
00:00:16:650,0.059,-1.475,0.264,-61.158,339.721,93.139,
00:00:16:667,-0.018,-1.022,0.257,-186.646,182.19,53.649,
00:00:16:683,-0.23,-0.907,0.155,-107.85,63.598,51.818,
00:00:16:700,-0.467,-1.016,0.102,-243.226,-82.703,52.551,
00:00:16:717,-0.751,-0.854,0.068,-478.943,-228.089,109.436,
00:00:16:733,-1.077,-0.686,0.045,-649.353,-286.133,117.248,
00:00:16:750,-1.262,-0.53,0.026,-585.389,-293.274,43.029,
00:00:16:767,-1.269,-0.434,-0.064,-383.057,-258.973,-9.339,
00:00:16:783,-1.153,-0.433,-0.184,-218.445,-219.971,-35.706,
00:00:16:800,-1.003,-0.545,-0.309,-280.152,-170.105,-38.392,
00:00:16:817,-0.817,-0.563,-0.307,-271.18,-108.094,-11.597,
00:00:16:833,-0.616,-0.65,-0.273,-142.884,-81.055,-13.428,
00:00:16:850,-0.434,-0.912,-0.304,32.104,-56.885,-42.054,
00:00:16:867,-0.265,-1.06,-0.34,112.671,-15.015,-62.561,
00:00:16:883,-0.107,-1.081,-0.469,76.538,82.885,-45.899,
00:00:16:900,-0.008,-1.225,-0.5,49.56,193.847,-65.003,
00:00:16:917,0.13,-1.366,-0.367,114.807,277.221,-103.455,
00:00:16:933,0.271,-1.437,-0.13,143.798,367.981,-154.053,
00:00:16:950,0.335,-1.449,0.053,211.975,426.941,-185.73,
00:00:16:967,0.249,-1.395,0.088,213.867,434.326,-191.163,
00:00:16:983,0.189,-1.104,0.139,201.965,431.823,-148.682,
00:00:17:0,0.228,-0.795,0.213,217.59,414.001,6.713,
00:00:17:17,0.125,-0.913,0.302,310.669,337.402,-13.611,
00:00:17:33,-0.039,-1.103,0.493,334.961,188.781,54.931,
00:00:17:50,-0.181,-1.06,0.591,245.788,15.258,40.344,
00:00:17:67,-0.407,-1.037,0.52,152.526,-224.244,53.649,
00:00:17:83,-0.784,-1.196,0.452,-86.06,-447.693,6.652,
00:00:17:100,-1.341,-0.685,0.411,-666.871,-744.263,-73.182,
00:00:17:117,-1.268,-0.477,-0.254,-528.199,-673.279,-159.058,
00:00:17:133,-1.097,-0.296,-0.261,-624.573,-526.612,-137.269,
00:00:17:150,-0.871,-0.257,-0.273,-222.474,-425.538,-73.67,
00:00:17:167,-0.629,-0.445,-0.366,265.319,-335.083,4.028,
00:00:17:183,-0.398,-0.61,-0.467,591.369,-243.164,94.116,
00:00:17:200,-0.207,-0.815,-0.605,663.574,-132.203,167.419,
00:00:17:217,-0.004,-1.079,-0.766,517.883,47.973,230.957,
00:00:17:233,0.217,-1.172,-0.695,250.854,247.558,320.251,
00:00:17:250,0.406,-1.366,-0.358,134.399,429.992,278.503,
00:00:17:267,0.452,-1.424,-0.21,408.325,497.009,181.274,
00:00:17:283,0.424,-1.44,-0.14,451.904,544.128,196.716,
00:00:17:300,0.392,-1.393,-0.055,401.855,520.691,137.695,
00:00:17:317,0.286,-1.271,-0.086,390.686,478.759,115.234,
00:00:17:333,0.188,-1.245,0.174,406.433,364.99,103.942,
00:00:17:350,0.085,-1.233,0.333,285.278,208.557,130.554,
00:00:17:367,-0.078,-1.091,0.382,212.402,37.17,105.957,
00:00:17:383,-0.258,-0.985,0.281,263.183,-111.573,126.709,
00:00:17:400,-0.396,-1.296,0.348,270.691,-349.183,-23.865,
00:00:17:417,-1.362,-0.638,-0.1,-147.278,-673.401,-19.165,
00:00:17:433,-1.33,-0.662,-0.308,-82.337,-589.295,-106.934,
00:00:17:450,-1.273,-0.704,-0.341,-179.322,-466.065,-151.001,
00:00:17:467,-1.204,-0.666,-0.454,-277.527,-353.455,-238.648,
00:00:17:483,-1.065,-0.608,-0.53,-252.991,-218.018,-303.589,
00:00:17:500,-0.527,-0.708,-0.701,-40.528,118.164,-193.909,
00:00:17:517,-0.332,-0.727,-0.554,-108.338,239.013,-80.445,
00:00:17:533,-0.074,-0.751,-0.369,-27.405,320.19,53.405,
00:00:17:550,0.156,-0.92,-0.33,202.697,426.086,161.499,
00:00:17:567,0.366,-1.155,-0.368,472.839,516.54,231.75,
00:00:17:583,0.518,-1.323,-0.441,531.005,610.412,280.334,
00:00:17:600,0.727,-1.563,-0.165,280.456,734.863,521.362,
00:00:17:617,0.58,-1.475,0.015,220.642,561.645,117.37,
00:00:17:633,0.454,-1.342,0.24,236.633,433.715,157.226,
00:00:17:650,0.369,-1.325,0.351,368.347,204.528,27.16,
00:00:17:667,0.201,-1.381,0.362,443.542,-30.579,-44.617,
00:00:17:683,-0.021,-1.459,0.351,230.59,-224.183,-94.849,
00:00:17:700,-0.236,-1.144,0.214,28.991,-401.734,-64.576,
00:00:17:717,-0.488,-0.891,0.149,18.31,-544.617,-43.824,
00:00:17:733,-0.795,-0.94,0.094,-60.303,-654.053,-44.739,
00:00:17:750,-1.092,-0.886,-0.02,-190.308,-706.238,-26.307,
00:00:17:767,-1.31,-0.766,-0.179,-249.085,-684.082,-41.382,
00:00:17:783,-1.377,-0.634,-0.268,-282.044,-568.848,-92.53,
00:00:17:800,-1.268,-0.516,-0.522,-316.773,-455.994,-134.461,
00:00:17:817,-1.138,-0.555,-0.636,-284.363,-338.868,-167.969,
00:00:17:833,-0.969,-0.623,-0.743,-199.158,-200.501,-199.585,
00:00:17:850,-0.723,-0.718,-0.717,-95.826,-73.121,-242.493,
00:00:17:867,-0.499,-0.75,-0.709,12.695,48.706,-234.925,
00:00:17:883,-0.334,-0.838,-0.823,76.782,197.631,-211.365,
00:00:17:900,-0.164,-0.801,-0.882,116.76,356.994,-101.319,
00:00:17:917,0.047,-0.776,-0.84,157.898,553.344,59.326,
00:00:17:933,0.31,-0.837,-0.664,252.807,702.209,205.261,
00:00:17:950,0.474,-0.945,-0.402,388.977,762.634,313.537,
00:00:17:967,0.537,-1.12,-0.131,532.287,729.98,366.394,
00:00:17:983,0.451,-1.257,0.04,492.797,640.991,372.558,
00:00:18:0,0.386,-1.301,0.158,387.451,510.437,325.866,
00:00:18:17,0.395,-1.348,0.265,325.256,347.412,252.258,
00:00:18:33,0.317,-1.391,0.435,266.967,136.291,162.048,
00:00:18:50,0.184,-2.107,0.688,192.871,-169.678,-212.159,
00:00:18:67,-0.128,-1.636,0.302,-520.081,-367.737,-175.415,
00:00:18:83,-0.312,-0.89,0.254,-409.18,-535.462,-105.957,
00:00:18:100,-0.617,-0.762,0.066,63.659,-693.909,-38.269,
00:00:18:117,-0.966,-0.859,-0.196,-59.449,-718.323,-5.31,
00:00:18:133,-1.298,-0.851,-0.299,-328.919,-676.941,-12.879,
00:00:18:150,-1.412,-0.598,-0.438,-412.842,-538.331,-43.335,
00:00:18:167,-1.281,-0.526,-0.571,-314.698,-378.968,-116.333,
00:00:18:183,-1.147,-0.615,-0.664,-256.348,-257.691,-159.913,
00:00:18:200,-1.003,-0.597,-0.712,-285.523,-130.31,-207.886,
00:00:18:217,-0.78,-0.586,-0.734,-247.376,12.756,-218.445,
00:00:18:233,-0.06,-0.828,-0.539,-114.563,265.014,-96.802,
00:00:18:250,0.247,-0.962,-0.479,15.869,352.05,14.953,
00:00:18:267,0.532,-1.079,-0.385,237.243,397.4,98.083,
00:00:18:283,0.641,-1.152,-0.304,409.362,377.929,118.042,
00:00:18:300,0.584,-1.212,-0.152,439.392,339.843,126.892,
00:00:18:317,0.341,-1.221,-0.003,292.968,64.514,65.49,
00:00:18:333,0.187,-1.275,0.043,295.105,-115.967,13.427,
00:00:18:350,0,-1.331,0.1,145.996,-284.852,-36.927,whipLH
00:00:18:367,-0.279,-1.264,0.048,-76.416,-442.322,-86.304,
00:00:18:383,-0.647,-1.082,-0.048,-106.873,-553.956,-127.625,
00:00:18:400,-1.044,-1.027,-0.088,-68.36,-614.136,-152.039,
00:00:18:417,-1.295,-1.013,-0.161,-276.001,-577.149,-237.671,
00:00:18:433,-1.349,-0.872,-0.239,-616.822,-451.905,-353.577,
00:00:18:450,-1.307,-0.641,-0.325,-688.05,-331.91,-434.693,
00:00:18:467,-1.201,-0.511,-0.435,-585.267,-211.121,-442.2,
00:00:18:483,-1.01,-0.488,-0.485,-469.605,-83.863,-410.706,
00:00:18:500,-0.809,-0.494,-0.434,-425.11,22.888,-352.356,
00:00:18:517,-0.623,-0.493,-0.425,-350.22,107.788,-238.465,
00:00:18:533,-0.41,-0.45,-0.388,-114.197,175.537,-63.172,
00:00:18:550,-0.174,-0.5,-0.446,274.292,212.463,104.492,
00:00:18:567,0.109,-0.726,-0.594,608.032,262.085,217.041,
00:00:18:583,0.411,-1.017,-0.617,639.709,313.354,291.259,
00:00:18:600,0.586,-1.22,-0.563,435.669,378.234,355.102,
00:00:18:617,0.591,-1.346,-0.298,395.691,388.549,300.354,
00:00:18:633,0.437,-1.386,-0.171,577.392,365.478,215.332,
00:00:18:650,0.31,-1.549,-0.098,471.496,296.325,111.572,
00:00:18:667,0.22,-1.455,0.069,293.457,181.274,35.095,
00:00:18:683,0.168,-1.29,0.231,244.14,33.874,11.84,
00:00:18:700,0.017,-1.279,0.303,223.571,-108.704,-42.786,
00:00:18:717,-0.151,-1.296,0.255,86.181,-251.404,-81.727,
00:00:18:733,-0.349,-1.212,0.102,-75.623,-365.174,-64.942,
00:00:18:750,-0.593,-1.068,0.054,-175.477,-473.328,-37.598,
00:00:18:767,-0.934,-0.92,-0.005,-232.544,-584.839,7.507,
00:00:18:783,-1.274,-0.817,-0.099,-231.812,-622.132,-13.428,
00:00:18:800,-1.404,-0.703,-0.259,-239.685,-557.679,-84.046,
00:00:18:817,-1.369,-0.573,-0.506,-239.624,-431.275,-164.063,
00:00:18:833,-1.235,-0.532,-0.637,-229.554,-268.311,-247.681,
00:00:18:850,-1.058,-0.511,-0.667,-143.311,-114.258,-263.367,
00:00:18:867,-0.842,-0.488,-0.673,17.639,-6.226,-239.502,
00:00:18:883,-0.661,-0.572,-0.76,25.39,79.528,-202.576,
00:00:18:900,-0.484,-0.637,-0.78,-74.097,183.593,-104.92,
00:00:18:917,-0.174,-0.726,-0.685,-100.525,281.921,17.395,
00:00:18:933,0.13,-0.87,-0.668,12.512,345.459,99.975,
00:00:18:950,0.393,-1.027,-0.625,247.863,425.781,208.679,
00:00:18:967,0.603,-1.22,-0.557,408.813,511.413,286.01,
00:00:18:983,0.68,-1.339,-0.454,383.667,558.96,277.954,
00:00:19:0,0.646,-1.382,-0.261,241.882,575.561,256.164,
00:00:19:17,0.561,-1.371,-0.043,148.986,532.653,193.908,
00:00:19:33,0.509,-1.365,0.11,156.982,429.809,123.047,
00:00:19:50,0.411,-1.356,0.221,260.498,279.785,34.545,
00:00:19:67,0.239,-1.349,0.248,296.264,82.153,-35.889,
00:00:19:83,-0.031,-1.257,0.253,113.708,-88.135,-67.383,
00:00:19:100,-0.272,-1.145,0.323,-66.163,-240.235,-55.542,
00:00:19:117,-0.585,-1.108,0.296,-203.492,-407.776,-45.533,
00:00:19:133,-1.013,-1.036,0.156,-265.931,-583.985,-76.233,
00:00:19:150,-1.39,-0.886,-0.056,-300.782,-709.961,-120.362,
00:00:19:167,-1.501,-0.769,-0.224,-381.287,-698.487,-213.746,
00:00:19:183,-1.315,-0.637,-0.208,-451.6,-617.615,-309.205,
00:00:19:200,-1.111,-0.619,-0.346,-514.161,-543.335,-384.339,
00:00:19:217,-0.991,-0.568,-0.565,-542.725,-475.831,-442.444,
00:00:19:233,-0.814,-0.559,-0.769,-374.512,-363.587,-447.144,
00:00:19:250,-0.676,-0.26,-1.23,178.955,-131.714,-249.756,
00:00:19:267,-0.292,-0.951,-1.131,422.973,0.305,-399.537,
00:00:19:283,-0.12,-0.903,-1.143,-107.422,275.268,-159.058,
00:00:19:300,0.14,-0.823,-0.912,-508.179,544.677,-13.367,
00:00:19:317,0.313,-0.663,-0.593,-444.153,741.882,221.496,
00:00:19:333,0.419,-0.672,-0.192,371.765,762.146,254.699,
00:00:19:350,0.436,-1.134,-0.23,943.42,747.741,242.92,
00:00:19:367,0.5,-1.489,-0.051,723.816,643.31,271.484,
00:00:19:383,0.514,-1.246,0.235,402.16,487.915,260.742,
00:00:19:400,0.408,-1.23,0.362,423.339,308.899,204.712,
00:00:19:417,0.276,-1.442,0.423,456.665,100.525,76.843,
00:00:19:433,0.123,-1.519,0.363,304.138,-80.323,-6.409,
00:00:19:450,-0.058,-1.404,0.293,125.305,-271.119,-55.603,
00:00:19:467,-0.293,-1.188,0.151,62.927,-448.548,-51.697,
00:00:19:483,-0.62,-1.178,-0.054,-135.743,-592.774,-127.32,
00:00:19:500,-1.031,-1.153,-0.124,-137.085,-750,-151.062,
00:00:19:517,-1.329,-0.735,-0.449,-348.511,-689.942,-109.864,
00:00:19:533,-1.419,-0.501,-0.639,-416.016,-513.184,-164.917,
00:00:19:550,-1.421,-0.519,-0.744,-294.312,-322.632,-191.712,
00:00:19:567,-1.312,-0.532,-0.784,-271.18,-112.61,-207.276,
00:00:19:583,-1.098,-0.529,-0.728,-275.757,93.811,-229.554,
00:00:19:600,-0.867,-0.587,-0.692,-259.583,242.492,-215.882,
00:00:19:617,-0.678,-0.594,-0.637,-228.089,346.374,-170.105,
00:00:19:633,-0.454,-0.604,-0.531,-183.533,406.372,-114.197,
00:00:19:650,-0.238,-0.671,-0.443,-119.507,419.494,-55.176,
00:00:19:667,-0.017,-0.805,-0.359,2.014,406.616,31.555,
00:00:19:683,0.217,-0.971,-0.308,218.261,427.124,142.151,
00:00:19:700,0.484,-1.14,-0.247,456.359,444.885,216.858,
00:00:19:717,0.588,-1.269,-0.256,549.743,444.58,262.329,
00:00:19:733,0.571,-1.333,-0.221,493.469,424.987,256.958,
00:00:19:750,0.517,-1.333,-0.149,332.458,386.901,249.572,
00:00:19:767,0.498,-1.311,-0.04,226.318,306.274,199.401,
00:00:19:783,0.446,-1.3,0.124,309.387,150.756,125.732,
00:00:19:800,0.314,-1.32,0.208,424.865,-31.8,42.602,
00:00:19:817,0.126,-1.399,0.186,351.928,-198.914,-75.806,
00:00:19:833,-0.131,-1.581,0.195,30.334,-418.091,-278.992,
00:00:19:850,-0.483,-1.361,0.232,-249.756,-564.087,-192.322,
00:00:19:867,-0.701,-0.905,0.054,-309.571,-605.469,-109.742,
00:00:19:883,-0.803,-0.846,-0.124,-361.329,-582.032,-90.882,
00:00:19:900,-1.006,-0.861,-0.297,-358.338,-659.729,-70.313,
00:00:19:917,-1.31,-0.727,-0.446,-481.507,-682.068,-79.712,
00:00:19:933,-1.333,-0.61,-0.473,-501.831,-590.516,-122.498,
00:00:19:950,-1.236,-0.466,-0.754,-402.405,-428.528,-190.491,
00:00:19:967,-1.225,-0.231,-1.03,-196.106,-135.071,-279.48,
00:00:19:983,-0.948,-0.803,-1.192,-180.359,58.96,-294.007,
00:00:20:0,-0.718,-0.683,-0.885,-552.796,253.662,-168.03,
00:00:20:17,-0.504,-0.579,-0.61,-628.968,395.446,-187.073,
00:00:20:33,-0.306,-0.479,-0.434,-141.48,447.082,-134.156,
00:00:20:50,-0.143,-0.662,-0.494,297.302,489.38,-85.389,
00:00:20:67,-0.002,-1.04,-0.501,244.873,553.65,2.624,
00:00:20:83,0.211,-1.062,-0.266,187.866,619.384,100.891,
00:00:20:100,0.439,-1.084,-0.256,345.825,651.062,155.578,
00:00:20:117,0.556,-1.308,-0.084,493.042,555.542,116.027,
00:00:20:133,0.491,-1.431,0.025,426.757,472.107,110.229,
00:00:20:150,0.37,-1.441,0.121,377.502,365.844,66.162,
00:00:20:167,0.205,-1.323,0.115,325.805,232.422,27.71,
00:00:20:183,-0.002,-1.243,0.132,263.672,102.478,1.159,
00:00:20:200,-0.203,-1.16,0.055,239.135,7.019,-15.809,
00:00:20:217,-0.418,-1.051,0.013,122.802,-59.266,-48.768,
00:00:20:233,-0.654,-1.289,0.001,-154.48,-187.378,-227.356,
00:00:20:250,-0.904,-1.289,0.213,-354.981,-301.026,-184.205,
00:00:20:267,-1.033,-0.756,-0.038,-557.74,-269.837,-163.269,
00:00:20:283,-0.995,-0.556,-0.221,-619.812,-198.975,-207.032,
00:00:20:300,-0.976,-0.665,-0.206,-542.786,-198.548,-233.826,
00:00:20:317,-0.986,-0.677,0.012,-625.855,-185.669,-180.42,
00:00:20:333,-0.867,-0.648,0.074,-622.437,-194.764,-204.895,
00:00:20:350,-0.708,-0.694,0.012,-561.28,-223.633,-173.096,
00:00:20:367,-0.598,-0.726,-0.063,-493.47,-251.648,-122.742,
00:00:20:383,-0.513,-0.676,-0.141,-399.537,-253.663,-3.235,
00:00:20:400,-0.413,-0.614,-0.214,-256.836,-247.498,99.06,
00:00:20:417,-0.281,-0.683,-0.297,-27.1,-242.188,167.968,
00:00:20:433,-0.173,-0.904,-0.49,189.819,-200.562,195.068,
00:00:20:450,-0.073,-1.141,-0.641,382.324,-90.21,205.505,
00:00:20:467,0.038,-1.219,-0.769,479.126,105.346,193.725,
00:00:20:483,0.129,-1.246,-0.856,377.929,304.199,129.882,
00:00:20:500,0.171,-1.273,-0.695,183.471,473.877,88.867,
00:00:20:517,0.147,-1.156,-0.473,43.151,612.243,91.98,
00:00:20:533,0.146,-1.096,-0.19,131.408,696.045,107.116,
00:00:20:550,0.182,-1.107,0.076,313.049,665.161,120.483,
00:00:20:567,0.177,-1.131,0.219,451.721,555.969,113.403,
00:00:20:583,0.187,-1.152,0.363,468.933,402.588,101.379,
00:00:20:600,0.168,-1.211,0.441,411.621,211.486,66.345,
00:00:20:617,0.08,-1.246,0.422,278.808,13.977,31.127,
00:00:20:633,-0.077,-1.219,0.401,135.192,-192.627,17.395,
00:00:20:650,-0.317,-1.085,0.328,-23.804,-416.443,24.169,
00:00:20:667,-0.689,-0.984,0.152,-158.326,-601.319,12.146,
00:00:20:683,-1.104,-0.878,-0.024,-265.076,-676.209,-3.54,
00:00:20:700,-1.386,-0.717,-0.185,-318.421,-628.174,-26.429,
00:00:20:717,-1.411,-0.574,-0.329,-269.837,-490.235,-72.51,
00:00:20:733,-1.229,-0.547,-0.466,-217.164,-353.089,-128.968,
00:00:20:750,-1.08,-0.598,-0.581,-226.075,-233.46,-183.411,
00:00:20:767,-0.819,-0.624,-0.647,-59.815,8.789,-198.487,
00:00:20:783,-0.617,-0.674,-0.6,17.273,97.168,-187.5,
00:00:20:800,-0.405,-0.739,-0.519,85.571,157.776,-151.612,
00:00:20:817,-0.198,-0.84,-0.478,163.94,213.012,-99.183,
00:00:20:833,0.444,-1.16,-0.355,538.391,444.641,144.531,
00:00:20:850,0.522,-1.241,-0.254,531.067,452.514,199.89,
00:00:20:867,0.491,-1.301,-0.11,444.824,431.152,229.309,
00:00:20:883,0.449,-1.283,0.065,301.086,382.995,250.915,
00:00:20:900,0.408,-1.286,0.181,221.435,292.236,241.15,
00:00:20:917,0.332,-1.336,0.266,178.65,133.972,207.946,
00:00:20:933,0.206,-1.324,0.315,96.313,-54.017,165.832,
00:00:20:950,0.019,-1.331,0.305,32.531,-236.939,115.905,
00:00:20:967,-0.248,-1.3,0.274,60.974,-436.707,78.979,
00:00:20:983,-0.636,-1.354,0.13,16.723,-651.673,20.935,
00:00:21:0,-1.094,-1.155,-0.081,4.15,-762.33,-44.8,
00:00:21:17,-1.316,-1.007,-0.359,-117.371,-733.216,-137.696,
00:00:21:33,-1.321,-0.813,-0.519,-275.025,-601.075,-226.075,
00:00:21:50,-1.251,-0.682,-0.633,-398.011,-467.713,-302.796,
00:00:21:67,-1.184,-0.603,-0.741,-403.626,-310.791,-389.771,
00:00:21:83,-1.048,-0.509,-0.83,-303.04,-126.221,-413.147,
00:00:21:100,-0.815,-0.557,-0.891,-207.764,49.56,-376.893,
00:00:21:117,-0.643,-0.608,-0.784,-318.848,185.791,-339.661,
00:00:21:133,-0.486,-0.486,-0.677,-408.753,316.04,-207.947,
00:00:21:150,-0.297,-0.314,-0.616,-284.302,418.64,-44.312,
00:00:21:167,-0.062,-0.402,-0.61,135.925,476.013,73.303,
00:00:21:183,0.175,-0.845,-0.584,457.824,516.174,187.439,
00:00:21:200,0.433,-1.313,-0.334,474.365,546.508,250.915,
00:00:21:217,0.57,-1.558,-0.32,445.251,586.547,205.139,
00:00:21:233,0.771,-1.684,-0.259,230.102,729.187,391.601,
00:00:21:250,0.648,-1.562,-0.11,108.215,631.53,45.41,
00:00:21:267,0.441,-1.431,0.07,64.331,543.701,48.95,
00:00:21:283,0.411,-1.327,0.313,73.364,417.724,-22.767,
00:00:21:300,0.086,-1.186,0.337,233.459,-130.616,-17.151,
00:00:21:317,-0.112,-1.283,0.327,-82.276,-253.602,15.686,
00:00:21:333,-0.258,-1.079,0.264,-322.327,-413.392,59.448,
00:00:21:350,-0.49,-0.907,0.189,-273.194,-578.553,97.168,
00:00:21:367,-0.819,-0.984,0.029,-243.592,-719.117,95.336,
00:00:21:383,-1.208,-0.861,-0.235,-311.585,-777.161,77.941,
00:00:21:400,-1.387,-0.672,-0.396,-295.044,-738.831,32.348,
00:00:21:417,-1.35,-0.734,-0.543,-274.17,-603.882,-72.327,
00:00:21:433,-1.215,-0.769,-0.629,-339.295,-453.553,-217.102,
00:00:21:450,-1.068,-0.714,-0.701,-321.228,-281.311,-281.006,
00:00:21:467,-0.896,-0.75,-0.688,-267.273,-114.747,-306.214,
00:00:21:483,-0.714,-0.771,-0.677,-309.144,33.508,-319.886,
00:00:21:500,-0.116,-0.788,-0.511,-71.534,312.5,-89.722,
00:00:21:517,0.089,-0.862,-0.488,216.735,413.818,24.963,
00:00:21:533,0.29,-0.959,-0.496,400.573,561.767,160.156,
00:00:21:550,0.448,-1.129,-0.476,400.451,709.411,265.014,
00:00:21:567,0.518,-1.251,-0.272,283.996,782.47,325.073,
00:00:21:583,0.529,-1.313,-0.131,49.804,840.21,374.023,
00:00:21:600,0.451,-1.3,0.047,50.415,814.819,332.031,
00:00:21:617,0.36,-1.208,0.277,373.657,670.471,298.462,
00:00:21:633,0.235,-1.279,0.353,357.849,545.044,293.396,
00:00:21:650,0.098,-1.311,0.431,119.629,379.211,193.664,
00:00:21:667,-0.005,-1.2,0.477,0.854,197.57,186.34,
00:00:21:683,-0.172,-1.131,0.534,-9.339,-23.804,167.785,
00:00:21:700,-0.367,-1.202,0.489,-92.774,-239.563,88.562,
00:00:21:717,-0.595,-1.234,0.397,-295.35,-430.42,-19.654,
00:00:21:733,-0.862,-0.882,0.213,-316.529,-576.172,14.831,
00:00:21:750,-1.072,-0.703,0.049,-255.921,-635.621,12.146,
00:00:21:767,-1.15,-0.755,-0.178,-177.857,-627.747,-41.26,
00:00:21:783,-1.089,-0.772,-0.334,-225.22,-541.748,-126.587,
00:00:21:800,-0.975,-0.744,-0.479,-265.87,-426.453,-202.759,
00:00:21:817,-0.796,-0.724,-0.543,-193.36,-302.308,-197.876,
00:00:21:833,-0.624,-0.675,-0.622,-105.774,-190.796,-209.229,
00:00:21:850,-0.473,-0.67,-0.663,0.366,-80.994,-193.36,
00:00:21:867,-0.295,-0.688,-0.676,83.129,27.221,-148.438,
00:00:21:883,-0.128,-0.727,-0.703,226.745,117.431,-99.915,
00:00:21:900,0.008,-0.795,-0.631,412.78,185.669,-11.231,
00:00:21:917,0.148,-0.904,-0.537,586.242,270.996,82.946,
00:00:21:933,0.325,-1.132,-0.489,649.902,385.681,138.488,
00:00:21:950,0.494,-1.354,-0.381,454.345,507.263,211.547,
00:00:21:967,0.574,-1.361,-0.202,189.941,552.795,244.751,
00:00:21:983,0.514,-1.344,-0.017,287.78,542.48,189.758,
00:00:22:0,0.402,-1.4,0.018,344.238,473.144,204.589,
00:00:22:17,0.391,-1.426,0.223,273.986,360.107,53.649,
00:00:22:33,0.349,-1.372,0.412,204.467,203.247,25.512,
00:00:22:50,0.206,-1.612,0.696,102.783,-32.654,-84.351,
00:00:22:67,-0.016,-1.61,0.46,-181.336,-250.794,-257.019,
00:00:22:83,-0.292,-0.989,0.358,-664.978,-343.689,-46.265,
00:00:22:100,-0.756,-0.765,0.096,-166.871,-616.15,85.022,
00:00:22:117,-1.151,-0.805,-0.088,-148.987,-692.505,72.631,
00:00:22:133,-1.368,-0.782,-0.232,-148.316,-661.194,26.001,
00:00:22:150,-1.247,-0.736,-0.369,-169.312,-540.284,-27.039,
00:00:22:167,-0.988,-0.721,-0.54,-242.188,-435.425,-153.504,
00:00:22:183,-0.845,-0.778,-0.657,-280.762,-343.323,-226.197,
00:00:22:200,-0.687,-0.773,-0.767,-218.201,-222.596,-267.09,
00:00:22:217,-0.311,-0.911,-0.672,-26.673,64.88,-263.855,
00:00:22:233,-0.113,-1.021,-0.629,40.222,206.787,-222.352,
00:00:22:250,0.057,-1.08,-0.589,17.578,360.534,-113.892,
00:00:22:267,0.231,-1.088,-0.508,-21.302,521.911,10.986,
00:00:22:283,0.389,-1.069,-0.364,34.912,639.587,78.064,
00:00:22:300,0.518,-1.141,-0.19,79.467,693.481,111.511,
00:00:22:317,0.553,-1.238,0.041,46.936,670.044,112.976,
00:00:22:333,0.535,-1.294,0.146,-44.434,625.122,103.454,
00:00:22:350,0.512,-1.269,0.266,-89.661,536.316,99.975,whipLH
00:00:22:367,0.434,-1.115,0.363,-41.932,418.762,92.529,
00:00:22:383,0.319,-1.058,0.416,49.865,266.967,48.461,
00:00:22:400,0.189,-1.096,0.41,69.702,93.078,36.315,
00:00:22:417,0.009,-1.038,0.405,-28.26,-85.877,55.236,
00:00:22:433,-0.228,-0.943,0.363,-97.413,-244.873,94.116,
00:00:22:450,-0.515,-0.894,0.286,-103.699,-437.073,102.905,
00:00:22:467,-0.926,-0.925,0.212,-177.247,-664.002,77.575,
00:00:22:483,-1.376,-0.847,0.099,-65.125,-785.889,6.652,
00:00:22:500,-1.422,-0.619,-0.08,50.964,-733.399,-7.142,
00:00:22:517,-1.154,-0.739,-0.357,-15.137,-637.146,-116.7,
00:00:22:533,-1.028,-0.86,-0.5,-153.443,-543.274,-250.489,
00:00:22:550,-0.89,-0.867,-0.552,-148.499,-380.738,-317.383,
00:00:22:567,-0.65,-0.856,-0.701,7.202,-245.118,-350.342,
00:00:22:583,-0.473,-0.985,-0.819,145.996,-102.784,-415.528,
00:00:22:600,-0.312,-1.062,-0.823,110.534,83.923,-419.251,
00:00:22:617,-0.102,-1.067,-0.692,-60.852,340.942,-305.542,
00:00:22:633,0.145,-0.991,-0.617,-57.251,558.715,-167.42,
00:00:22:650,0.349,-1.012,-0.43,76.477,684.814,-56.519,
00:00:22:667,0.461,-1.083,-0.253,188.903,770.935,34.423,
00:00:22:683,0.511,-1.158,-0.028,246.338,816.284,141.052,
00:00:22:700,0.542,-1.23,0.089,299.621,779.052,175.781,
00:00:22:717,0.469,-1.316,0.213,325.561,614.074,142.273,
00:00:22:733,0.33,-1.343,0.34,261.963,397.216,65.856,
00:00:22:750,0.188,-1.412,0.693,124.817,92.163,-69.214,
00:00:22:767,-0.042,-2.17,0.439,-291.382,-372.681,-661.133,
00:00:22:783,-0.629,-1.191,0.234,-1578.553,-321.595,-270.752,
00:00:22:800,-0.838,-0.236,0.378,-1153.382,-353.516,-163.453,
00:00:22:817,-0.905,-0.228,0.303,-384.522,-417.725,-243.103,
00:00:22:833,-1.025,-0.619,0.314,-154.48,-491.394,-184.082,
00:00:22:850,-1.189,-0.736,0.228,-305.42,-511.841,-174.317,
00:00:22:867,-1.16,-0.634,0.176,-554.81,-496.949,-122.315,
00:00:22:883,-1.001,-0.525,0.119,-603.394,-479.92,-121.033,
00:00:22:900,-0.853,-0.524,0.069,-477.112,-483.887,-79.041,
00:00:22:917,-0.695,-0.642,-0.088,-224.549,-495.24,-37.842,
00:00:22:933,-0.485,-0.858,-0.252,9.582,-491.028,-36.011,
00:00:22:950,-0.3,-1.154,-0.434,114.441,-396.241,-56.702,
00:00:22:967,-0.096,-1.255,-0.581,92.102,-187.012,-58.106,
00:00:22:983,0.059,-1.278,-0.664,197.021,19.714,-48.096,
00:00:23:0,0.158,-1.275,-0.666,255.798,223.144,-90.149,
00:00:23:17,0.144,-1.24,-0.644,225.83,376.77,-140.625,
00:00:23:33,0.054,-1.046,-0.453,130.615,569.824,-85.572,
00:00:23:50,0.067,-0.925,-0.213,124.023,728.576,-32.837,
00:00:23:67,0.141,-0.982,0.061,248.23,789.428,18.249,
00:00:23:83,0.156,-1.14,0.354,519.531,703.735,-15.015,
00:00:23:100,0.123,-1.195,0.454,607.055,567.627,14.282,
00:00:23:117,0.154,-1.239,0.544,423.645,401.611,12.756,
00:00:23:133,0.128,-1.222,0.622,221.374,210.266,-9.827,
00:00:23:150,0.012,-1.16,0.707,95.764,-18.494,12.756,
00:00:23:167,-0.164,-1.153,0.597,76.232,-240.296,7.507,
00:00:23:183,-0.357,-1.046,0.521,109.253,-430.176,24.78,
00:00:23:200,-0.566,-0.959,0.289,64.392,-546.082,65.979,
00:00:23:217,-0.851,-0.915,0.151,-78.003,-603.699,94.848,
00:00:23:233,-1.198,-0.829,-0.007,-214.844,-542.969,137.817,
00:00:23:250,-1.422,-0.669,-0.141,-261.902,-412.354,148.01,
00:00:23:267,-1.369,-0.612,-0.278,-160.523,-298.462,90.148,
00:00:23:283,-1.205,-0.632,-0.378,-126.221,-148.682,34.545,
00:00:23:300,-1.078,-0.615,-0.452,-133.606,-22.706,-2.015,
00:00:23:317,-0.93,-0.686,-0.397,-108.155,76.66,-54.81,
00:00:23:333,-0.724,-0.806,-0.354,-84.473,132.629,-68.36,
00:00:23:350,-0.489,-0.909,-0.404,-59.754,153.503,-96.863,
00:00:23:367,-0.288,-0.958,-0.399,-64.759,216.858,-76.111,
00:00:23:383,-0.07,-0.907,-0.374,1.648,310.363,-16.053,
00:00:23:400,0.135,-0.888,-0.232,176.635,386.169,82.58,
00:00:23:417,0.298,-1.024,-0.157,418.09,426.269,149.536,
00:00:23:433,0.391,-1.266,-0.076,527.893,429.992,180.481,
00:00:23:450,0.431,-1.395,-0.037,361.45,461.242,223.999,
00:00:23:467,0.474,-1.225,0.031,211.364,480.59,208.618,
00:00:23:483,0.535,-1.155,0.222,338.745,402.526,165.222,
00:00:23:500,0.507,-1.229,0.241,435.424,247.741,123.901,
00:00:23:517,0.388,-1.348,0.261,232.666,94.177,108.764,
00:00:23:533,0.26,-1.251,0.334,96.252,-54.383,95.031,
00:00:23:550,0.159,-1.166,0.358,175.964,-206.665,107.483,
00:00:23:567,-0.016,-1.143,0.273,233.642,-378.846,81.42,
00:00:23:583,-0.295,-1.157,0.153,56.823,-550.782,78.186,
00:00:23:600,-0.698,-1.133,0.075,-139.1,-664.429,89.294,
00:00:23:617,-1.067,-1.047,0.004,-246.155,-696.534,112.976,
00:00:23:633,-1.325,-0.944,-0.099,-241.517,-662.537,70.251,
00:00:23:650,-1.406,-0.852,-0.214,-209.412,-603.882,-46.631,
00:00:23:667,-1.359,-0.755,-0.375,-293.274,-482.422,-139.893,
00:00:23:683,-1.247,-0.656,-0.441,-370.85,-342.713,-225.892,
00:00:23:700,-1.087,-0.598,-0.536,-379.944,-197.205,-288.025,
00:00:23:717,-0.824,-0.704,-0.592,-313.172,-37.476,-310.914,
00:00:23:733,-0.522,-0.776,-0.614,-262.146,115.722,-274.048,
00:00:23:750,-0.318,-0.836,-0.578,-211.426,235.595,-237.488,
00:00:23:767,-0.159,-0.872,-0.544,-141.358,353.515,-158.57,
00:00:23:783,0.004,-0.951,-0.529,-9.705,486.389,-95.154,
00:00:23:800,0.183,-1.016,-0.537,108.337,625.061,-15.381,
00:00:23:817,0.357,-1.141,-0.417,171.02,747.375,37.658,
00:00:23:833,0.464,-1.212,-0.239,212.524,813.11,67.443,
00:00:23:850,0.459,-1.197,-0.033,264.16,811.34,91.735,
00:00:23:867,0.418,-1.229,0.119,308.593,762.085,73.303,
00:00:23:883,0.422,-1.275,0.261,309.997,677.185,56.152,
00:00:23:900,0.396,-1.226,0.388,233.398,531.494,50.231,
00:00:23:917,0.302,-1.174,0.513,167.053,338.623,26.367,
00:00:23:933,0.247,-1.597,0.89,109.863,7.873,-177.43,
00:00:23:950,0.038,-1.729,0.575,-285.035,-346.558,-404.358,
00:00:23:967,-0.342,-0.734,0.343,-1116.517,-301.941,86.303,
00:00:23:983,-0.455,-0.485,0.505,-633.362,-485.23,-102.967,
00:00:24:0,-0.724,-0.673,0.413,-140.32,-710.206,-44.617,
00:00:24:17,-1.232,-0.896,0.236,-212.098,-765.686,-53.528,
00:00:24:33,-1.45,-0.878,0.068,-483.704,-670.96,-80.75,
00:00:24:50,-1.273,-0.707,0.021,-585.938,-537.659,-97.718,
00:00:24:67,-1.079,-0.592,-0.044,-501.709,-467.469,-146.302,
00:00:24:83,-0.955,-0.64,-0.167,-456.055,-401.917,-154.236,
00:00:24:100,-0.776,-0.762,-0.313,-435.242,-289.429,-133.179,
00:00:24:117,-0.56,-0.766,-0.406,-292.725,-112.244,-75.196,
00:00:24:133,-0.301,-0.854,-0.375,20.996,47.973,-38.819,
00:00:24:150,-0.039,-0.999,-0.364,340.637,166.381,0.671,
00:00:24:167,0.112,-1.164,-0.41,488.891,261.535,27.526,
00:00:24:183,0.19,-1.228,-0.343,480.407,371.399,37.78,
00:00:24:200,0.296,-1.299,-0.144,394.409,436.035,17.211,
00:00:24:217,0.331,-1.295,0.012,222.29,483.337,32.287,
00:00:24:233,0.331,-1.285,0.292,185.791,433.654,-2.32,
00:00:24:250,0.311,-1.264,0.481,159.179,339.111,4.821,
00:00:24:267,0.344,-1.319,0.644,119.506,194.03,-31.25,
00:00:24:283,0.311,-1.309,0.683,-17.334,16.235,-12.33,
00:00:24:300,0.274,-1.217,0.721,-108.826,-222.474,6.469,
00:00:24:317,0.109,-1.021,0.433,-284.79,-293.641,52.673,
00:00:24:333,-0.012,-1.003,0.231,-422.303,-377.076,67.199,
00:00:24:350,-0.165,-1.091,0.285,-341.126,-601.38,58.532,
00:00:24:367,-0.484,-1.058,0.224,-565.064,-698.67,214.233,
00:00:24:383,-0.88,-1.005,0.118,-732.544,-767.823,258.361,
00:00:24:400,-1.161,-0.685,0.033,-672.852,-655.579,331.359,
00:00:24:417,-1.267,-0.434,-0.174,-280.762,-470.581,267.456,
00:00:24:433,-1.239,-0.682,-0.347,160.827,-386.292,54.138,
00:00:24:450,-1.184,-1.015,-0.43,111.999,-237.671,-130.127,
00:00:24:467,-1.072,-0.898,-0.473,-194.458,-14.71,-169.007,
00:00:24:483,-0.911,-0.702,-0.456,-209.168,156.738,-234.253,
00:00:24:500,-0.72,-0.692,-0.365,-16.968,248.291,-280.823,
00:00:24:517,-0.547,-0.825,-0.212,120.91,271.667,-309.571,
00:00:24:533,-0.433,-0.99,-0.174,66.223,311.523,-300.415,
00:00:24:550,-0.308,-1.019,-0.141,-83.863,356.201,-253.357,
00:00:24:567,-0.153,-1.016,-0.066,-231.446,409.79,-208.13,
00:00:24:583,0.003,-1.094,0.151,-187.806,429.321,-178.528,
00:00:24:600,0.194,-1.257,0.398,-25.269,394.47,-183.35,
00:00:24:617,0.289,-1.309,0.471,40.649,341.247,-163.819,
00:00:24:633,0.284,-1.256,0.49,60.18,284.24,-171.021,
00:00:24:650,0.251,-1.277,0.579,94.97,151.184,-229.065,
00:00:24:667,0.187,-1.378,0.668,1.22,31.372,-249.207,
00:00:24:683,0.078,-1.23,0.564,-227.845,-17.579,-181.763,
00:00:24:700,0.076,-1.037,0.584,-444.886,-61.585,-171.387,
00:00:24:717,0.033,-0.884,0.602,-410.279,-144.288,-181.153,
00:00:24:733,-0.018,-1.048,0.716,-187.989,-397.583,-252.991,
00:00:24:750,-0.25,-1.09,0.658,-353.089,-461.914,-137.024,
00:00:24:767,-0.374,-0.79,0.481,-532.166,-447.205,-8.301,
00:00:24:783,-0.482,-0.685,0.429,-494.873,-578.186,25.573,
00:00:24:800,-0.744,-0.697,0.301,-476.563,-663.758,84.167,
00:00:24:817,-1.005,-0.566,0.046,-445.13,-638.306,176.147,
00:00:24:833,-1.186,-0.366,-0.152,-289.551,-503.907,239.868,
00:00:24:850,-1.169,-0.347,-0.267,-37.72,-366.883,215.698,
00:00:24:867,-1.034,-0.448,-0.357,52.063,-235.108,96.435,
00:00:24:883,-0.889,-0.578,-0.473,-23.865,-65.857,32.043,
00:00:24:900,-0.759,-0.721,-0.478,68.481,72.265,-1.954,
00:00:24:917,-0.595,-0.787,-0.34,213.562,246.338,46.142,
00:00:24:933,-0.396,-0.854,-0.128,356.506,340.759,76.477,
00:00:24:950,-0.253,-0.939,0.058,526.733,380.249,105.835,
00:00:24:967,-0.142,-1.006,0.17,671.325,406.921,126.281,
00:00:24:983,-0.031,-1.112,0.319,752.258,412.414,79.467,
00:00:25:0,0.032,-1.19,0.392,778.564,396.85,82.763,
00:00:25:17,0.075,-1.245,0.38,702.087,352.966,90.637,
00:00:25:33,0.117,-1.387,0.454,565.246,193.481,33.813,
00:00:25:50,0.071,-1.35,0.58,311.096,42.907,71.472,
00:00:25:67,-0.047,-1.071,0.638,211.975,-52.369,129.821,
00:00:25:83,-0.088,-1.108,0.548,217.773,-200.806,18.432,
00:00:25:100,-0.197,-1.353,0.392,28.381,-335.206,-73.548,
00:00:25:117,-0.391,-1.346,0.229,-463.074,-314.454,-28.565,
00:00:25:133,-0.517,-0.99,0.193,-760.804,-222.535,136.963,
00:00:25:150,-0.636,-0.761,0.163,-674.622,-196.045,121.032,
00:00:25:167,-0.85,-0.712,0.04,-439.82,-183.35,145.63,
00:00:25:183,-0.979,-0.691,-0.079,-306.336,-115.967,163.452,
00:00:25:200,-0.968,-0.731,-0.231,-250.611,-7.996,133.178,
00:00:25:217,-0.848,-0.768,-0.315,-253.602,90.148,103.027,
00:00:25:233,-0.705,-0.751,-0.287,-250.245,225.28,58.776,
00:00:25:250,-0.53,-0.776,-0.234,-101.624,384.643,21.057,
00:00:25:267,-0.282,-0.935,-0.058,135.07,498.291,-28.626,
00:00:25:283,-0.113,-1.06,0.051,377.014,581.604,-43.946,
00:00:25:300,-0.011,-1.118,0.133,615.173,617.92,-31.434,
00:00:25:317,0.043,-1.086,0.121,804.809,642.151,-13.916,
00:00:25:333,0.133,-1.171,0.163,669.433,621.826,-30.518,
00:00:25:350,0.215,-1.24,0.358,479.553,499.633,-66.529,
00:00:25:367,0.182,-1.218,0.576,277.71,308.227,-29.847,
00:00:25:383,0.097,-1.133,0.675,142.578,117.065,-29.602,
00:00:25:400,0.041,-1.104,0.737,67.382,-65.552,-51.758,
00:00:25:417,0.008,-1.154,0.808,138.427,-254.395,-91.492,
00:00:25:433,-0.204,-1.189,0.533,-63.599,-473.267,-114.869,
00:00:25:450,-0.497,-1.177,0.396,-467.774,-520.935,-99.366,
00:00:25:467,-0.647,-0.611,0.174,-578.614,-417.908,166.137,
00:00:25:483,-0.698,-0.545,-0.029,-262.94,-388.855,40.283,
00:00:25:500,-0.753,-0.757,-0.266,-85.572,-343.75,83.068,
00:00:25:517,-0.773,-0.846,-0.343,-202.149,-181.824,90.698,
00:00:25:533,-0.654,-0.799,-0.318,-316.163,-37.232,115.783,
00:00:25:550,-0.459,-0.843,-0.064,-317.078,36.254,53.772,
00:00:25:567,-0.289,-0.886,0.12,-299.683,60.546,6.652,
00:00:25:583,-0.19,-0.943,0.114,-181.519,80.444,-35.096,
00:00:25:600,-0.098,-1.041,0.152,-27.771,94.787,-65.918,
00:00:25:617,0.02,-1.225,0.308,105.957,84.045,-78.919,
00:00:25:633,0.022,-1.269,0.39,163.452,62.255,-26.123,
00:00:25:650,-0.056,-1.118,0.416,284.057,15.808,-37.11,
00:00:25:667,-0.096,-0.966,0.383,448.974,-27.161,-69.153,
00:00:25:683,-0.154,-0.955,0.389,601.928,-93.811,-67.566,
00:00:25:700,-0.29,-0.927,0.266,655.639,-124.878,16.906,
00:00:25:717,-0.44,-0.78,-0.012,459.777,-36.255,141.906,
00:00:25:733,-0.535,-0.781,-0.239,331.543,28.32,79.528,
00:00:25:750,-0.615,-0.965,-0.334,232.727,77.453,62.072,
00:00:25:767,-0.649,-0.966,-0.501,98.449,186.584,-5.127,
00:00:25:783,-0.739,-1.147,-0.053,-33.631,87.707,-98.816,
00:00:25:800,-0.772,-0.833,0.128,-207.337,109.314,1.586,
00:00:25:817,-0.608,-0.54,0.01,-204.407,220.398,-202.271,
00:00:25:833,-0.446,-0.62,-0.118,183.471,217.346,-244.019,
00:00:25:850,-0.371,-0.873,-0.158,298.034,246.399,-208.069,
00:00:25:867,-0.293,-1.037,-0.23,68.359,317.871,-141.48,
00:00:25:883,-0.157,-1.07,-0.022,-159.18,363.098,-26.307,
00:00:25:900,-0.042,-0.992,0.294,-204.956,322.082,43.335,
00:00:25:917,0.054,-0.928,0.515,-83.069,225.83,70.983,
00:00:25:933,0.131,-1.057,0.6,152.954,109.497,21.362,
00:00:25:950,0.236,-1.323,0.627,312.805,24.353,-16.907,
00:00:25:967,0.315,-1.585,0.682,232.605,-85.083,-28.016,
00:00:25:983,0.258,-1.425,0.504,15.075,-136.536,8.361,
00:00:26:0,0.142,-1.192,0.387,-59.632,-181.702,51.635,
00:00:26:17,0.112,-1.347,0.528,-27.405,-315.674,-39.49,
00:00:26:33,0.029,-1.266,0.557,-115.418,-410.34,9.094,
00:00:26:50,-0.074,-1.161,0.439,-101.319,-492.493,-1.404,
00:00:26:67,-0.161,-1.001,0.286,24.536,-572.998,16.723,
00:00:26:83,-0.291,-0.864,0.053,124.511,-591.919,22.033,
00:00:26:100,-0.502,-0.808,-0.233,288.635,-551.27,-26.49,
00:00:26:117,-0.675,-0.766,-0.522,311.706,-415.711,9.521,
00:00:26:133,-0.769,-0.842,-0.686,243.835,-229.004,-23.682,
00:00:26:150,-0.793,-0.802,-0.65,30.578,-66.04,11.352,
00:00:26:167,-0.795,-0.629,-0.569,-145.997,92.834,41.931,
00:00:26:183,-0.738,-0.487,-0.433,-95.704,205.322,60.18,
00:00:26:200,-0.66,-0.493,-0.219,117.126,249.572,40.283,
00:00:26:217,-0.59,-0.627,-0.134,275.695,261.901,10.559,
00:00:26:233,-0.482,-0.926,-0.127,217.651,275.329,-34.18,
00:00:26:250,-0.353,-1.196,-0.069,-0.306,235.412,-40.101,
00:00:26:267,-0.254,-1.235,0.15,-341.736,172.79,9.094,
00:00:26:283,-0.198,-1.144,0.306,-507.447,72.57,47.607,
00:00:26:300,-0.148,-1.215,0.416,-572.571,-86.487,-16.724,
00:00:26:317,-0.062,-1.333,0.462,-722.413,-178.223,-77.149,
00:00:26:333,-0.026,-1.043,0.686,-537.476,-160.401,2.258,
00:00:26:350,0.087,-0.998,0.725,-38.88,-232.605,-12.452,
00:00:26:367,0.054,-1.352,0.471,231.75,-331.788,-121.521,whipLH
00:00:26:383,-0.121,-1.484,0.247,58.96,-282.715,-62.806,
00:00:26:400,-0.149,-1.254,0.148,-180.298,-146.668,-31.617,
00:00:26:417,-0.069,-1.11,0.245,-148.865,-155.579,-35.828,
00:00:26:433,-0.167,-1.106,0.261,-60.364,-259.583,-63.233,
00:00:26:450,-0.345,-0.99,0.18,12.817,-293.152,-48.768,
00:00:26:467,-0.462,-0.855,-0.063,115.295,-233.704,-67.627,
00:00:26:483,-0.48,-0.825,-0.263,300.293,-167.298,-156.434,
00:00:26:500,-0.549,-0.752,-0.423,285.522,-53.04,-115.723,
00:00:26:517,-0.673,-0.715,-0.671,187.927,73.425,-118.836,
00:00:26:533,-0.779,-0.624,-0.666,100.525,203.613,-72.449,
00:00:26:550,-0.738,-0.442,-0.579,85.327,393.982,-10.254,
00:00:26:567,-0.617,-0.379,-0.506,223.266,541.32,2.99,
00:00:26:583,-0.518,-0.482,-0.342,381.775,599.06,-31.983,
00:00:26:600,-0.431,-0.709,-0.161,398.62,622.802,-0.489,
00:00:26:617,-0.309,-1.022,-0.001,225.28,612.182,8.85,
00:00:26:633,-0.173,-1.262,0.232,-136.231,540.222,34.362,
00:00:26:650,-0.042,-1.257,0.567,-416.748,368.408,53.833,
00:00:26:667,0.018,-1.149,0.872,-562.745,145.08,50.109,
00:00:26:683,0.095,-1.198,0.982,-476.136,-78.37,-6.653,
00:00:26:700,0.121,-1.333,0.95,-331.36,-314.209,-61.646,
00:00:26:717,0.084,-1.345,0.894,-239.319,-468.567,-28.565,
00:00:26:733,0.028,-1.238,0.692,-133.362,-544.678,-3.54,
00:00:26:750,0.026,-1.281,0.525,-53.101,-608.826,-22.339,
00:00:26:767,-0.035,-1.293,0.408,-93.506,-639.588,-26.856,
00:00:26:783,-0.183,-1.157,0.234,-143.86,-590.943,27.16,
00:00:26:800,-0.314,-0.905,-0.034,76.355,-496.094,45.471,
00:00:26:817,-0.451,-0.83,-0.381,432.8,-408.631,-61.097,
00:00:26:833,-0.609,-0.822,-0.623,671.569,-239.38,-95.276,
00:00:26:850,-0.748,-0.822,-0.902,608.276,-7.203,-78.98,
00:00:26:867,-0.804,-0.71,-0.939,333.313,274.353,-27.161,
00:00:26:883,-0.733,-0.579,-0.79,149.78,540.283,-42.42,
00:00:26:900,-0.624,-0.518,-0.443,191.406,664.856,14.526,
00:00:26:917,-0.605,-0.5,-0.205,273.193,697.204,36.926,
00:00:26:933,-0.579,-0.699,-0.051,342.285,684.753,-38.697,
00:00:26:950,-0.495,-0.981,0.131,244.567,587.341,-51.27,
00:00:26:967,-0.419,-1.114,0.324,-125.611,467.346,-50.11,
00:00:26:983,-0.315,-1.134,0.492,-523.194,325.195,-39.002,
00:00:27:0,-0.153,-1.125,0.72,-816.956,137.634,-35.462,
00:00:27:17,0.027,-1.112,0.9,-923.279,-63.111,-11.78,
00:00:27:33,0.192,-1.157,0.975,-895.081,-238.831,46.02,
00:00:27:50,0.254,-1.29,0.825,-754.578,-388.611,-2.076,
00:00:27:67,0.243,-1.358,0.724,-468.995,-465.271,16.174,
00:00:27:83,0.249,-1.561,0.674,-296.204,-551.087,-73.06,
00:00:27:100,0.071,-1.443,0.571,-354.065,-525.269,-52.124,
00:00:27:117,-0.048,-1.146,0.422,-208.008,-468.567,-14.283,
00:00:27:133,-0.176,-0.89,0.208,216.797,-435.73,45.654,
00:00:27:150,-0.352,-0.758,-0.06,645.691,-407.593,9.277,
00:00:27:167,-0.548,-0.749,-0.52,842.224,-338.013,-31.434,
00:00:27:183,-0.743,-0.828,-0.826,671.264,-147.583,-89.783,
00:00:27:200,-0.804,-0.673,-0.883,386.413,139.221,-18.921,
00:00:27:217,-0.805,-0.454,-0.797,180.297,339.538,14.526,
00:00:27:233,-0.822,-0.401,-0.611,182.861,525.329,36.01,
00:00:27:250,-0.766,-0.372,-0.409,222.9,668.701,81.543,
00:00:27:267,-0.63,-0.535,-0.196,300.781,732.055,-3.052,
00:00:27:283,-0.498,-0.883,0.104,322.876,629.028,-8.057,
00:00:27:300,-0.436,-1.067,0.385,-2.869,489.746,0.244,
00:00:27:317,-0.367,-1.116,0.675,-467.957,331.665,-21.973,
00:00:27:333,-0.227,-0.95,0.954,-708.313,165.039,56.091,
00:00:27:350,-0.078,-0.793,1.108,-597.962,-15.686,136.23,
00:00:27:367,0.071,-0.904,1.007,-259.949,-215.332,161.377,
00:00:27:383,0.195,-1.273,0.77,-2.991,-397.4,148.986,
00:00:27:400,0.252,-1.478,0.582,51.696,-471.314,196.96,
00:00:27:417,0.305,-1.471,0.411,-11.292,-466.675,244.69,
00:00:27:433,0.32,-1.426,0.341,57.251,-452.393,172.607,
00:00:27:450,0.235,-1.455,0.227,150.695,-418.335,84.655,
00:00:27:467,0.046,-1.271,0.004,292.968,-308.838,66.345,
00:00:27:483,-0.135,-0.983,-0.276,385.437,-219.178,82.214,
00:00:27:500,-0.353,-0.95,-0.548,398.559,-220.704,10.742,
00:00:27:517,-0.646,-0.834,-0.766,328.369,-183.35,46.997,
00:00:27:533,-0.913,-0.652,-0.783,247.802,-19.349,77.392,
00:00:27:550,-1.053,-0.504,-0.705,223.205,207.031,31.921,
00:00:27:567,-1.099,-0.367,-0.714,177.795,461.853,-6.592,
00:00:27:583,-1.025,-0.76,-0.145,362.304,419.372,-255.005,
00:00:27:600,-0.982,-0.751,0.051,68.969,509.643,-88.868,
00:00:27:617,-0.79,-0.626,0.093,-179.871,615.295,-156.067,
00:00:27:633,-0.479,-0.728,0.168,-227.173,579.223,-177.735,
00:00:27:650,-0.243,-0.951,0.336,-338.746,432.739,-119.324,
00:00:27:667,-0.125,-1.088,0.488,-573.792,309.997,-24.598,
00:00:27:683,-0.023,-1.115,0.707,-685.669,151.916,46.752,
00:00:27:700,0.104,-1.143,0.861,-676.575,-20.325,66.345,
00:00:27:717,0.212,-1.21,0.816,-551.514,-121.338,109.558,
00:00:27:733,0.299,-1.357,0.772,-294.861,-273.133,81.848,
00:00:27:750,0.311,-1.558,0.766,-214.6,-417.42,-8.118,
00:00:27:767,0.27,-1.513,0.685,-268.433,-436.097,4.455,
00:00:27:783,0.193,-1.421,0.561,-259.888,-480.774,-57.007,
00:00:27:800,0.024,-1.191,0.385,-100.892,-462.525,-46.387,
00:00:27:817,-0.121,-0.971,0.169,131.591,-435.303,-29.358,
00:00:27:833,-0.339,-0.884,-0.127,372.375,-396.119,-82.459,
00:00:27:850,-0.584,-0.822,-0.393,552.124,-322.937,-91.736,
00:00:27:867,-0.807,-0.804,-0.655,481.079,-177.002,-124.085,
00:00:27:883,-0.965,-0.763,-0.818,340.637,34.545,-171.998,
00:00:27:900,-0.973,-0.61,-0.739,150.024,278.442,-127.686,
00:00:27:917,-0.94,-0.473,-0.599,29.785,502.99,-172.303,
00:00:27:933,-0.804,-0.434,-0.338,46.264,671.997,-178.772,
00:00:27:950,-0.422,-0.989,0.439,-142.029,501.098,-208.252,
00:00:27:967,-0.266,-1.109,0.663,-549.744,397.827,-163.269,
00:00:27:983,-0.102,-0.981,0.859,-790.528,309.082,-16.785,
00:00:28:0,0.06,-0.858,0.966,-655.579,150.39,70.312,
00:00:28:17,0.207,-1.06,1.011,-428.711,-113.77,14.953,
00:00:28:33,0.248,-1.346,0.971,-450.074,-289.917,58.105,
00:00:28:50,0.226,-1.417,0.896,-607.666,-337.891,95.52,
00:00:28:67,0.213,-1.328,0.79,-589.783,-375.367,92.956,
00:00:28:83,0.134,-1.284,0.704,-423.218,-423.401,45.776,
00:00:28:100,0.013,-1.224,0.594,-348.145,-416.565,54.382,
00:00:28:117,-0.082,-1.061,0.398,-145.264,-363.221,51.33,
00:00:28:133,-0.208,-0.874,0.141,183.227,-308.838,66.65,
00:00:28:150,-0.392,-0.704,-0.14,475.219,-263.428,71.777,
00:00:28:167,-0.589,-0.729,-0.422,557.861,-204.163,20.568,
00:00:28:183,-0.752,-0.746,-0.636,480.651,-104.371,13.794,
00:00:28:200,-0.914,-0.563,-0.699,318.054,110.595,62.988,
00:00:28:217,-0.913,-0.413,-0.549,289.917,321.533,16.601,
00:00:28:233,-0.815,-0.379,-0.315,372.985,464.111,-8.851,
00:00:28:250,-0.753,-0.456,-0.115,496.948,486.511,-68.665,
00:00:28:267,-0.686,-0.64,0.053,551.025,482.299,-89.234,
00:00:28:283,-0.583,-0.788,0.208,426.147,432.373,-62.134,
00:00:28:300,-0.496,-0.89,0.366,188.781,339.782,-46.936,
00:00:28:317,-0.419,-0.939,0.532,-46.265,247.863,4.943,
00:00:28:333,-0.316,-0.945,0.708,-174.683,156.311,57.495,
00:00:28:350,-0.117,-0.979,0.817,-127.747,35.034,104.919,
00:00:28:367,0.082,-1.145,0.831,-18.128,-92.041,144.165,
00:00:28:383,0.231,-1.306,0.794,46.02,-238.221,202.942,
00:00:28:400,0.292,-1.443,0.762,120.056,-349.183,216.186,
00:00:28:417,0.309,-1.575,0.76,174.133,-453.675,151.855,
00:00:28:433,0.288,-1.54,0.701,246.887,-469.056,83.801,
00:00:28:450,0.267,-1.463,0.501,221.801,-501.282,-61.097,
00:00:28:467,0.084,-1.313,0.169,210.632,-478.15,-188.05,
00:00:28:483,-0.131,-1.076,-0.115,292.663,-420.533,-148.194,
00:00:28:500,-0.332,-0.799,-0.341,421.142,-395.325,-79.956,
00:00:28:517,-0.598,-0.578,-0.605,478.82,-342.225,-47.486,
00:00:28:533,-0.867,-0.471,-0.873,534.729,-193.482,-64.82,
00:00:28:550,-1.019,-0.585,-0.94,549.682,31.86,-129.639,
00:00:28:567,-1.064,-0.704,-0.831,362.182,294.067,-111.39,
00:00:28:583,-1.046,-0.736,-0.546,68.42,541.076,-137.269,
00:00:28:600,-0.887,-0.754,-0.253,-129.212,721.862,-202.759,
00:00:28:617,-0.651,-0.833,0.086,-152.894,731.079,-270.63,
00:00:28:633,-0.509,-0.987,0.409,-195.374,589.233,-312.561,
00:00:28:650,-0.447,-1.116,0.684,-469.666,416.32,-283.936,
00:00:28:667,-0.312,-1.1,0.877,-880.188,255.92,-223.877,
00:00:28:683,-0.151,-0.882,0.986,-1164.429,177.246,-32.227,
00:00:28:700,0.018,-0.676,1.037,-1010.193,53.588,118.652,
00:00:28:717,0.219,-0.844,0.97,-569.642,-221.375,133.422,
00:00:28:733,0.264,-1.212,0.878,-390.625,-475.098,147.155,
00:00:28:750,0.207,-1.377,0.764,-454.712,-531.067,215.088,
00:00:28:767,0.159,-1.273,0.579,-367.127,-487.244,212.036,
00:00:28:783,0.135,-1.308,0.318,-160.95,-461.487,155.151,
00:00:28:800,-0.008,-1.366,0.108,-108.46,-479.126,0.305,
00:00:28:817,-0.243,-1.23,-0.064,-123.475,-388.245,7.934,
00:00:28:833,-0.501,-0.808,-0.358,93.505,-179.81,56.396,
00:00:28:850,-0.617,-0.773,-0.638,765.319,-108.277,-10.743,
00:00:28:867,-0.76,-1.084,-0.835,678.466,15.319,-330.14,
00:00:28:883,-0.892,-0.819,-0.793,201.904,297.912,-142.273,
00:00:28:900,-0.92,-0.689,-0.387,144.653,409.912,-325.44,
00:00:28:917,-0.938,-0.393,-0.09,83.129,582.092,-221.497,
00:00:28:933,-0.788,-0.25,0.062,210.937,680.542,-311.341,
00:00:28:950,-0.639,-0.406,0.21,445.007,582.946,-295.411,
00:00:28:967,-0.61,-0.638,0.319,426.33,437.072,-207.032,
00:00:28:983,-0.559,-0.74,0.444,128.906,369.934,-114.869,
00:00:29:0,-0.43,-0.747,0.6,-177.491,276.489,-8.667,
00:00:29:17,-0.34,-0.716,0.744,-358.094,116.821,74.279,
00:00:29:33,-0.235,-0.825,0.813,-391.541,-31.25,150.207,
00:00:29:50,-0.06,-0.991,0.9,-429.505,-167.054,237.793,
00:00:29:67,0.055,-1.181,0.833,-481.446,-277.466,270.08,
00:00:29:83,0.154,-1.451,0.795,-363.465,-392.395,232.238,
00:00:29:100,0.192,-1.711,0.725,-148.133,-422.364,149.78,
00:00:29:117,0.158,-1.752,0.479,47.424,-392.823,9.46,
00:00:29:133,-0.005,-1.668,0.273,148.376,-320.008,-111.206,
00:00:29:150,-0.128,-1.495,0.17,189.758,-218.506,-211.792,
00:00:29:167,-0.237,-1.269,0.124,215.82,-141.968,-251.77,
00:00:29:183,-0.394,-0.977,-0.004,206.97,-8.057,-240.357,
00:00:29:200,-0.51,-0.659,-0.098,323.73,96.557,-196.167,
00:00:29:217,-0.627,-0.473,-0.228,533.752,135.376,-153.626,
00:00:29:233,-0.791,-0.482,-0.452,624.511,158.935,-151.917,
00:00:29:250,-0.949,-0.599,-0.568,509.765,277.221,-180.237,
00:00:29:267,-1.036,-0.499,-0.557,265.442,472.473,-197.266,
00:00:29:283,-1.031,-0.343,-0.317,194.336,601.867,-233.094,
00:00:29:300,-0.977,-0.451,0.021,251.098,556.701,-307.923,
00:00:29:317,-0.904,-0.619,0.263,82.763,488.708,-376.221,
00:00:29:333,-0.786,-0.54,0.469,-193.421,461.364,-328.125,
00:00:29:350,-0.66,-0.515,0.565,-326.783,387.085,-288.941,
00:00:29:367,-0.494,-0.523,0.612,-373.475,319.702,-131.958,
00:00:29:383,-0.282,-0.627,0.619,-428.223,232.483,39.733,
00:00:29:400,-0.12,-0.819,0.66,-556.153,149.414,234.619,
00:00:29:417,0.078,-0.994,0.848,-662.354,88.867,376.464,
00:00:29:433,0.228,-1.011,1.005,-314.82,13.122,443.054,
00:00:29:450,0.391,-1.496,0.931,227.661,-290.467,332.946,
00:00:29:467,0.263,-2.011,0.667,31.982,-378.296,160.888,
00:00:29:483,0.176,-1.582,0.544,-226.258,-210.206,191.284,
00:00:29:500,0.169,-1.452,0.426,-127.686,-265.564,37.78,
00:00:29:517,-0.072,-1.306,0.343,-90.882,-296.57,13.122,
00:00:29:533,-0.246,-0.971,0.218,-79.041,-207.337,36.01,
00:00:29:550,-0.34,-0.902,0.126,131.347,-202.698,-5.372,
00:00:29:567,-0.529,-0.72,-0.116,381.408,-117.737,50.72,
00:00:29:583,-0.722,-0.536,-0.306,594.177,-25.147,42.663,
00:00:29:600,-0.879,-0.545,-0.534,626.281,1.586,-5.433,
00:00:29:617,-1.031,-0.604,-0.599,479.553,132.263,-6.287,
00:00:29:633,-1.027,-0.477,-0.389,290.1,347.839,-14.466,
00:00:29:650,-0.907,-0.291,-0.152,287.475,462.158,-40.772,
00:00:29:667,-0.827,-0.249,0.033,430.664,441.772,-75.379,
00:00:29:683,-0.771,-0.496,0.161,524.475,354.248,-105.835,
00:00:29:700,-0.634,-0.778,0.285,287.17,297.302,-34.119,
00:00:29:717,-0.477,-0.944,0.461,-119.568,236.511,41.198,
00:00:29:733,-0.358,-0.996,0.633,-399.109,143.798,130.859,
00:00:29:750,-0.221,-1.099,0.857,-533.509,8.3,181.762,
00:00:29:767,-0.032,-1.273,0.94,-657.654,-124.817,204.712,
00:00:29:783,0.116,-1.38,0.921,-736.878,-231.019,214.355,
00:00:29:800,0.171,-1.432,0.835,-649.598,-306.092,176.391,
00:00:29:817,0.212,-1.566,0.759,-550.904,-378.785,110.046,
00:00:29:833,0.152,-1.609,0.714,-562.867,-403.931,68.237,
00:00:29:850,0.032,-1.376,0.766,-572.144,-362.793,67.749,
00:00:29:867,0.038,-1.21,0.678,-409.79,-375.733,17.639,
00:00:29:883,-0.058,-1.161,0.432,-146.668,-385.987,-7.019,
00:00:29:900,-0.22,-1.031,0.192,67.443,-346.619,-14.649,
00:00:29:917,-0.441,-0.836,0.002,348.816,-253.54,-21.485,
00:00:29:933,-0.707,-0.708,-0.324,635.498,-169.19,-47.059,
00:00:29:950,-0.945,-0.638,-0.617,703.308,-88.44,-53.101,
00:00:29:967,-1.122,-0.643,-0.749,578.43,92.041,-142.273,
00:00:29:983,-1.139,-0.505,-0.707,353.21,292.053,-192.81,
00:00:30:0,-1.072,-0.424,-0.489,242.92,476.989,-275.513,
00:00:30:17,-0.923,-0.4,-0.233,181.64,571.96,-300.965,
00:00:30:33,-0.754,-0.485,0.009,145.752,569.213,-355.286,
00:00:30:50,-0.635,-0.623,0.312,72.082,455.139,-359.07,
00:00:30:67,-0.568,-0.715,0.551,-135.376,338.623,-283.692,
00:00:30:83,-0.421,-0.819,0.719,-456.116,182.373,-200.562,
00:00:30:100,-0.28,-0.882,0.846,-835.267,72.815,-67.872,
00:00:30:117,-0.193,-0.749,0.957,-997.803,21.057,117.675,
00:00:30:133,-0.015,-0.758,1.095,-774.598,-117.005,198.486,
00:00:30:150,0.148,-1.166,1.125,-568.177,-299.988,180.359,
00:00:30:167,0.198,-1.36,1.029,-602.784,-316.163,278.076,
00:00:30:183,0.229,-1.404,0.891,-460.816,-338.074,250.061,
00:00:30:200,0.196,-1.523,0.76,-199.097,-395.02,102.234,
00:00:30:217,0.01,-1.47,0.579,-139.527,-318.848,72.509,
00:00:30:233,-0.082,-1.286,0.403,-102.601,-246.949,-25.452,
00:00:30:250,-0.219,-1.038,0.242,41.32,-156.556,-43.641,
00:00:30:267,-0.356,-0.752,0.048,361.389,-74.585,-59.693,
00:00:30:283,-0.501,-0.634,-0.082,709.228,-28.016,-83.558,
00:00:30:300,-0.718,-0.635,-0.284,906.005,-55.298,-76.722,
00:00:30:317,-0.922,-0.646,-0.467,809.753,1.403,-68.116,
00:00:30:333,-1.055,-0.559,-0.492,564.697,179.077,-107.422,
00:00:30:350,-1.038,-0.494,-0.399,394.958,330.81,-201.355,
00:00:30:367,-1.017,-0.419,-0.2,283.386,443.115,-234.07,
00:00:30:383,-0.93,-0.414,0.025,240.783,485.778,-304.383,whipLH
00:00:30:400,-0.806,-0.494,0.258,225.647,428.65,-312.806,
00:00:30:417,-0.753,-0.54,0.489,93.444,307.922,-268.555,
00:00:30:433,-0.689,-0.582,0.627,-102.051,192.199,-213.013,
00:00:30:450,-0.525,-0.645,0.721,-329.956,114.563,-98.328,
00:00:30:467,-0.349,-0.659,0.811,-504.334,81.848,100.402,
00:00:30:483,-0.156,-0.759,0.887,-509.827,-12.146,210.937,
00:00:30:500,-0.06,-0.926,0.982,-431.397,-132.203,299.621,
00:00:30:517,0.066,-1.171,1.003,-371.766,-232.544,336.792,
00:00:30:533,0.179,-1.458,0.947,-364.502,-260.743,333.435,
00:00:30:550,0.253,-1.609,0.829,-329.224,-276.185,267.639,
00:00:30:567,0.227,-1.661,0.66,-334.534,-279.786,158.752,
00:00:30:583,0.074,-1.427,0.527,-325.684,-253.663,91.491,
00:00:30:600,-0.061,-1.194,0.423,-173.218,-220.398,54.077,
00:00:30:617,-0.175,-1.047,0.275,13.366,-163.758,36.987,
00:00:30:633,-0.294,-0.791,0.152,260.559,-32.105,80.078,
00:00:30:650,-0.412,-0.611,-0.011,623.108,54.321,89.782,
00:00:30:667,-0.545,-0.62,-0.231,888.916,58.96,91.064,
00:00:30:683,-0.792,-0.67,-0.417,911.255,111.816,139.099,
00:00:30:700,-1.07,-0.655,-0.523,711.914,302.063,171.325,
00:00:30:717,-1.184,-0.571,-0.498,505.31,510.437,86.303,
00:00:30:733,-1.141,-0.622,-0.294,377.136,653.869,-40.955,
00:00:30:750,-1.032,-0.763,-0.025,227.478,680.847,-156.434,
00:00:30:767,-0.881,-0.826,0.296,-34.302,662.597,-240.235,
00:00:30:783,-0.69,-0.755,0.488,-321.351,586.792,-271.668,
00:00:30:800,-0.499,-0.749,0.674,-562.684,446.167,-281.373,
00:00:30:817,-0.352,-0.751,0.835,-832.398,283.691,-188.904,
00:00:30:833,-0.208,-0.709,0.909,-1123.475,159.912,-36.927,
00:00:30:850,-0.026,-0.663,1.048,-1184.815,49.682,121.948,
00:00:30:867,0.15,-0.725,1.186,-993.165,-123.047,192.627,
00:00:30:883,0.306,-1.009,1.125,-640.381,-277.283,241.943,
00:00:30:900,0.389,-1.313,0.881,-292.542,-401.795,235.229,
00:00:30:917,0.296,-1.587,0.691,-98.694,-420.289,161.56,
00:00:30:933,0.178,-1.661,0.656,-83.985,-333.313,44.189,
00:00:30:950,0.055,-1.547,0.55,-32.166,-258.24,-88.318,
00:00:30:967,-0.124,-1.379,0.307,11.23,-177.063,-203.858,
00:00:30:983,-0.302,-1.028,0.075,138.977,-50.538,-213.44,
00:00:31:0,-0.464,-0.737,-0.039,355.713,-4.334,-225.953,
00:00:31:17,-0.694,-0.586,-0.137,506.775,-9.888,-226.38,
00:00:31:33,-0.938,-0.407,-0.21,550.537,48.339,-228.028,
00:00:31:50,-1.027,-0.306,-0.161,517.395,148.132,-312.134,
00:00:31:67,-1.035,-0.261,-0.089,428.833,228.515,-348.45,
00:00:31:83,-1.02,-0.23,0.108,303.833,278.015,-391.602,
00:00:31:100,-0.943,-0.26,0.317,200.988,260.925,-431.031,
00:00:31:117,-0.887,-0.239,0.556,117.492,184.509,-361.573,
00:00:31:133,-0.881,-0.259,0.654,93.444,61.279,-283.387,
00:00:31:150,-0.874,-0.338,0.706,60.058,-56.946,-179.2,
00:00:31:167,-0.757,-0.469,0.718,-8.057,-114.869,-60.975,
00:00:31:183,-0.558,-0.661,0.718,-117.432,-138.428,57.922,
00:00:31:200,-0.326,-0.902,0.79,-225.892,-161.988,187.072,
00:00:31:217,-0.099,-1.2,0.853,-332.154,-182.068,261.047,
00:00:31:233,0.096,-1.496,0.937,-472.901,-199.463,254.089,
00:00:31:250,0.261,-1.647,0.946,-548.768,-178.101,194.763,
00:00:31:267,0.356,-1.669,0.832,-478.272,-196.045,51.696,
00:00:31:283,0.29,-1.559,0.748,-465.516,-192.322,-54.2,
00:00:31:300,0.142,-1.282,0.708,-475.647,-137.146,-84.9,
00:00:31:317,0.049,-0.986,0.626,-395.447,-47.547,-61.402,
00:00:31:333,0.015,-0.873,0.558,-178.04,-44.678,-50.782,
00:00:31:350,-0.169,-0.771,0.383,120.117,-35.584,36.987,
00:00:31:367,-0.444,-0.661,0.158,455.688,-59.021,62.805,
00:00:31:383,-0.762,-0.634,0.018,770.752,-92.164,97.045,
00:00:31:400,-1.015,-0.614,-0.147,903.564,-80.567,104.736,
00:00:31:417,-1.142,-0.556,-0.209,811.218,38.086,6.347,
00:00:31:433,-1.15,-0.427,-0.141,651.123,179.199,-108.46,
00:00:31:450,-1.089,-0.33,-0.052,616.333,272.094,-189.27,
00:00:31:467,-0.986,-0.396,0.049,581.298,281.799,-227.967,
00:00:31:483,-0.86,-0.5,0.144,381.103,290.344,-198.853,
00:00:31:500,-0.733,-0.548,0.364,112.732,284.607,-109.925,
00:00:31:517,-0.601,-0.653,0.599,-135.193,214.233,-25.452,
00:00:31:533,-0.5,-0.7,0.818,-435.059,117.37,94.787,
00:00:31:550,-0.394,-0.625,0.964,-628.113,34.301,235.839,
00:00:31:567,-0.242,-0.596,0.905,-579.041,-71.473,376.159,
00:00:31:583,-0.089,-0.89,0.834,-378.052,-265.564,428.1,
00:00:31:600,0.003,-1.26,0.851,-522.156,-353.028,397.888,
00:00:31:617,0.048,-1.286,0.88,-814.331,-316.102,501.037,
00:00:31:633,0.091,-1.319,0.812,-793.396,-308.96,425.293,
00:00:31:650,0.188,-1.46,0.724,-565.125,-338.807,343.505,
00:00:31:667,-0.121,-1.003,0.346,-8.423,-119.019,83.007,
00:00:31:683,-0.124,-1.195,0.145,430.603,-226.258,-133.423,
00:00:31:700,-0.56,-1.096,-0.129,271.484,-35.584,-104.371,
00:00:31:717,-0.805,-0.771,-0.244,263.244,35.4,-101.197,
00:00:31:733,-1.064,-0.568,-0.254,444.458,61.523,-164.551,
00:00:31:750,-1.268,-0.405,-0.223,497.253,181.396,-220.704,
00:00:31:767,-1.318,-0.341,-0.11,435.547,329.223,-320.557,
00:00:31:783,-1.251,-0.329,0.011,379.821,454.956,-370.301,
00:00:31:800,-1.08,-0.251,0.231,329.712,509.826,-328.614,
00:00:31:817,-0.874,-0.275,0.359,294.677,479.126,-295.289,
00:00:31:833,-0.688,-0.456,0.484,191.223,383.3,-248.536,
00:00:31:850,-0.558,-0.62,0.67,-43.03,289.367,-161.683,
00:00:31:867,-0.373,-0.714,0.819,-299.195,227.661,-21.302,
00:00:31:883,-0.122,-0.789,0.95,-500.123,141.235,110.595,
00:00:31:900,0.122,-0.893,1.046,-518.006,25.878,212.585,
00:00:31:917,0.255,-1.079,1.067,-353.699,-149.781,248.657,
00:00:31:933,0.293,-1.341,0.999,-250.916,-247.193,195.19,
00:00:31:950,0.293,-1.48,0.938,-211.67,-261.475,158.142,
00:00:31:967,0.274,-1.497,0.846,-227.051,-220.581,79.711,
00:00:31:983,0.188,-1.373,0.708,-245.423,-161.499,10.498,
00:00:32:0,0.074,-1.229,0.598,-140.87,-119.873,-26.429,
00:00:32:17,-0.043,-1.112,0.43,-7.691,-78.797,-38.208,
00:00:32:33,-0.176,-0.932,0.245,114.807,-12.391,-49.134,
00:00:32:50,-0.347,-0.844,0.065,330.566,10.62,-66.59,
00:00:32:67,-0.653,-0.735,-0.07,504.577,3.234,13.916,
00:00:32:83,-1,-0.564,-0.204,571.411,53.344,45.715,
00:00:32:100,-1.197,-0.469,-0.247,564.27,161.987,-55.176,
00:00:32:117,-1.24,-0.452,-0.217,486.267,295.349,-166.565,
00:00:32:133,-1.217,-0.371,-0.021,378.051,435.424,-217.53,
00:00:32:150,-1.09,-0.234,0.072,193.908,554.199,-270.752,
00:00:32:167,-0.892,-0.274,0.314,52.429,517.456,-351.563,
00:00:32:183,-0.812,-0.268,0.707,59.204,375.488,-231.202,
00:00:32:200,-0.76,-0.212,0.738,39.123,282.165,-107.3,
00:00:32:217,-0.597,-0.472,0.772,56.457,97.106,-40.223,
00:00:32:233,-0.423,-0.74,0.863,-195.374,-29.053,80.2,
00:00:32:250,-0.174,-0.908,0.894,-583.13,-36.988,234.68,
00:00:32:267,0.104,-0.957,1.049,-712.586,-59.632,406.433,
00:00:32:283,0.377,-1.209,1.134,-537.842,-268.921,389.465,
00:00:32:300,0.462,-1.653,1.048,-462.037,-407.715,278.869,
00:00:32:317,0.453,-1.763,0.945,-507.63,-377.442,227.539,
00:00:32:333,0.409,-1.679,0.805,-505.616,-320.557,67.199,
00:00:32:350,0.289,-1.447,0.739,-503.113,-272.339,-19.776,
00:00:32:367,0.097,-1.156,0.664,-448.792,-216.187,-53.345,
00:00:32:383,-0.047,-0.942,0.548,-233.216,-187.012,-57.618,
00:00:32:400,-0.226,-0.801,0.349,122.558,-206.055,-11.902,
00:00:32:417,-0.526,-0.695,0.006,416.931,-205.201,-44.983,
00:00:32:433,-0.804,-0.76,-0.246,654.235,-140.931,-115.54,
00:00:32:450,-1.001,-0.645,-0.278,673.828,49.743,-95.948,
00:00:32:467,-1.125,-0.419,-0.277,618.774,205.871,-134.644,
00:00:32:483,-1.182,-0.24,-0.15,582.641,284.24,-201.966,
00:00:32:500,-1.128,-0.085,0.028,609.253,358.52,-235.352,
00:00:32:517,-0.986,-0.24,0.114,705.322,336.853,-316.285,
00:00:32:533,-0.849,-0.558,0.352,561.584,288.879,-288.941,
00:00:32:550,-0.716,-0.703,0.637,153.381,246.826,-183.35,
00:00:32:567,-0.545,-0.633,0.843,-291.626,192.81,-87.159,
00:00:32:583,-0.343,-0.569,0.903,-586.548,101.44,45.227,
00:00:32:600,-0.114,-0.647,0.954,-743.775,-3.968,189.575,
00:00:32:617,0.047,-0.681,1.072,-645.813,-54.749,345.52,
00:00:32:633,0.221,-0.967,1.104,-112.549,-347.535,377.502,
00:00:32:650,0.267,-1.676,0.899,-88.196,-580.14,192.26,
00:00:32:667,0.21,-1.616,0.767,-479.493,-414.673,240.295,
00:00:32:683,0.281,-1.432,0.618,-478.821,-359.498,129.333,
00:00:32:700,0.209,-1.327,0.531,-361.756,-370.24,51.025,
00:00:32:717,0.012,-1.015,0.423,-367.615,-211.853,60.241,
00:00:32:733,-0.047,-0.905,0.342,-155.884,-133.423,22.461,
00:00:32:750,-0.233,-0.818,0.257,122.558,-63.965,68.664,
00:00:32:767,-0.502,-0.811,0.089,387.939,-80.933,30.456,
00:00:32:783,-0.884,-0.943,-0.035,508.85,-150.513,-8.789,
00:00:32:800,-1.272,-0.789,-0.071,339.843,-19.593,-83.68,
00:00:32:817,-1.38,-0.616,-0.019,180.969,132.751,-270.569,
00:00:32:833,-1.346,-0.476,0.109,72.876,262.207,-371.521,
00:00:32:850,-1.245,-0.287,0.238,14.221,352.478,-439.209,
00:00:32:867,-1.1,-0.188,0.309,118.957,329.773,-445.923,
00:00:32:883,-0.993,-0.192,0.352,217.834,297.119,-378.479,
00:00:32:900,-0.874,-0.284,0.381,174.255,264.892,-297.791,
00:00:32:917,-0.75,-0.446,0.422,24.169,250.061,-218.506,
00:00:32:933,-0.578,-0.677,0.456,-149.964,253.234,-119.568,
00:00:32:950,-0.354,-0.844,0.631,-374.207,253.112,21.728,
00:00:32:967,-0.132,-0.941,0.845,-597.474,248.413,151.489,
00:00:32:983,0.125,-1.097,1.042,-717.774,172.668,179.016,
00:00:33:0,0.274,-1.247,1.127,-708.13,59.631,151.672,
00:00:33:17,0.381,-1.421,1.119,-715.699,-5.555,57.922,
00:00:33:33,0.42,-1.347,1.07,-775.513,4.272,27.832,
00:00:33:50,0.399,-1.134,1.03,-704.163,-29.725,-32.41,
00:00:33:67,0.33,-0.885,1.005,-497.315,-106.507,-39.368,
00:00:33:83,0.174,-0.691,0.887,-163.636,-151.795,-31.128,
00:00:33:100,0.005,-0.608,0.755,291.076,-172.12,56.884,
00:00:33:117,-0.197,-0.553,0.556,698.547,-208.252,71.289,
00:00:33:133,-0.475,-0.563,0.286,1142.334,-270.935,147.522,
00:00:33:150,-0.89,-0.574,-0.007,1429.87,-313.599,190.429,
00:00:33:167,-1.236,-0.637,-0.22,1387.024,-230.957,154.907,
00:00:33:183,-1.351,-0.553,-0.192,1160.705,-1.77,90.515,
00:00:33:200,-1.273,-0.405,-0.165,990.478,150.879,-2.076,
00:00:33:217,-1.16,-0.334,-0.153,877.014,274.17,-41.016,
00:00:33:233,-0.969,-0.539,-0.13,760.62,299.377,-134.583,
00:00:33:250,-0.824,-0.832,0.087,384.521,294.799,-152.161,
00:00:33:267,-0.706,-0.888,0.347,-249.085,300.048,-128.846,
00:00:33:283,-0.498,-0.749,0.59,-835.45,320.617,-17.212,
00:00:33:300,-0.193,-0.618,0.943,-1188.721,279.785,134.704,
00:00:33:317,-0.001,-0.332,1.123,-720.276,140.564,340.149,
00:00:33:334,0.262,-0.907,1.087,-131.104,-309.388,220.459,
00:00:33:350,0.192,-1.491,1.049,-255.677,-458.497,167.114,
00:00:33:367,0.212,-1.191,0.99,-361.634,-330.384,421.02,
00:00:33:384,0.378,-1.48,0.835,-183.289,-504.7,78.918,
00:00:33:400,0.169,-1.381,0.735,-406.495,-422.364,145.019,
00:00:33:417,0.107,-1.159,0.663,-424.439,-358.521,115.722,
00:00:33:434,0.034,-1.05,0.514,-333.924,-321.045,105.346,
00:00:33:450,-0.091,-0.856,0.423,-182.984,-234.803,134.216,
00:00:33:467,-0.222,-0.87,0.27,50.903,-224.366,158.874,
00:00:33:484,-0.492,-0.854,0.062,204.345,-175.538,147.277,
00:00:33:500,-0.784,-0.772,-0.134,386.596,-113.282,167.358,
00:00:33:517,-1.062,-0.738,-0.279,544.25,-38.453,113.769,
00:00:33:534,-1.203,-0.714,-0.314,534.362,89.477,7.141,
00:00:33:550,-1.259,-0.59,-0.23,437.5,221.069,-88.99,
00:00:33:567,-1.19,-0.593,-0.066,352.966,328.308,-242.31,
00:00:33:584,-1.082,-0.439,0.021,279.113,419.067,-264.1,
00:00:33:600,-0.928,-0.445,0.164,297.485,420.166,-321.412,
00:00:33:617,-0.826,-0.504,0.302,261.169,375,-301.758,
00:00:33:634,-0.71,-0.543,0.408,92.773,341.43,-237.305,
00:00:33:650,-0.552,-0.661,0.55,-111.329,246.338,-175.293,
00:00:33:667,-0.422,-0.802,0.715,-415.894,142.028,-103.455,
00:00:33:684,-0.226,-0.941,0.855,-768.494,106.262,27.832,
00:00:33:700,0.016,-1.025,1.013,-877.564,45.959,98.51,
00:00:33:717,0.189,-1.259,1.141,-755.677,-150.757,32.104,
00:00:33:734,0.199,-1.39,1.158,-687.561,-284.913,-4.151,
00:00:33:750,0.215,-1.387,1.083,-568.238,-355.896,-56.702,
00:00:33:767,0.229,-1.209,1.026,-406.8,-372.01,-74.219,
00:00:33:784,0.225,-1.052,0.988,-234.009,-387.574,-98.267,
00:00:33:800,0.139,-1.033,0.9,-91.553,-402.588,-160.95,
00:00:33:817,0.016,-1.032,0.716,-119.507,-331.055,-178.223,
00:00:33:834,-0.088,-0.853,0.581,-64.148,-179.139,-152.344,
00:00:33:850,-0.263,-0.811,0.355,141.601,-135.315,-160.584,
00:00:33:867,-0.593,-0.638,0.126,357.299,-108.216,-73.914,
00:00:33:884,-0.967,-0.438,-0.084,626.464,-48.523,3.54,
00:00:33:900,-1.195,-0.369,-0.223,804.138,46.875,-37.72,
00:00:33:917,-1.264,-0.259,-0.27,816.467,202.575,-88.135,
00:00:33:934,-1.294,-0.28,-0.272,751.648,320.556,-174.744,
00:00:33:950,-1.244,-0.314,-0.148,621.643,431.335,-172.12,
00:00:33:967,-1.091,-0.294,0.027,338.073,503.051,-209.29,
00:00:33:984,-0.91,-0.382,0.368,68.603,456.848,-265.32,
00:00:34:0,-0.757,-0.378,0.682,-194.581,394.47,-137.33,
00:00:34:17,-0.548,-0.37,0.765,-395.935,336.303,28.686,
00:00:34:34,-0.29,-0.549,0.952,-378.174,175.781,181.884,
00:00:34:50,-0.06,-0.889,1.037,-419.861,-12.269,288.879,
00:00:34:67,0.053,-1.191,1.238,-640.686,-143.494,348.755,
00:00:34:84,0.186,-1.257,1.252,-705.445,-216.126,407.165,
00:00:34:100,0.41,-1.509,1.223,-629.273,-359.009,263.977,
00:00:34:117,0.4,-1.603,1.116,-705.14,-403.687,171.936,
00:00:34:134,0.269,-1.406,0.967,-714.722,-350.769,75.256,
00:00:34:150,0.115,-1.038,0.749,-499.085,-273.133,21.362,
00:00:34:167,-0.084,-0.823,0.588,-122.803,-214.112,30.578,
00:00:34:184,-0.262,-0.603,0.441,341.064,-125,114.441,
00:00:34:200,-0.418,-0.584,0.168,872.924,-137.085,62.5,
00:00:34:217,-0.697,-0.892,-0.123,1129.455,-207.276,-7.63,
00:00:34:234,-1.171,-0.956,-0.295,1032.104,-24.781,0.244,
00:00:34:250,-1.402,-0.742,-0.346,722.168,272.888,-31.067,
00:00:34:267,-1.297,-0.414,-0.322,561.584,467.834,-138.55,
00:00:34:284,-1.185,-0.252,-0.252,560.363,527.649,-276.49,
00:00:34:300,-1.104,-0.34,-0.012,571.655,501.403,-385.437,
00:00:34:317,-0.947,-0.472,0.302,324.646,491.882,-428.04,
00:00:34:334,-0.767,-0.493,0.487,-38.636,437.194,-411.56,
00:00:34:350,-0.609,-0.495,0.71,-304.139,302.368,-300.782,
00:00:34:367,-0.488,-0.502,0.808,-431.58,182.373,-170.777,whipLH
00:00:34:384,-0.321,-0.597,0.871,-453.675,22.155,-40.528,
00:00:34:400,-0.18,-0.737,0.947,-448.182,-112.549,89.66,
00:00:34:417,-0.034,-0.97,0.985,-512.513,-208.802,147.522,
00:00:34:434,0.091,-1.144,0.971,-691.529,-185.547,233.642,
00:00:34:450,0.197,-1.171,0.989,-717.408,-130.616,292.358,
00:00:34:467,0.344,-1.278,1.003,-548.89,-145.935,226.135,
00:00:34:484,0.354,-1.338,0.975,-412.415,-165.284,157.776,
00:00:34:500,0.25,-1.233,0.837,-193.177,-177.796,90.881,
00:00:34:517,0.087,-1.174,0.681,-62.378,-169.861,43.273,
00:00:34:534,-0.057,-1.052,0.585,-8.423,-126.099,19.897,
00:00:34:550,-0.189,-0.885,0.478,119.14,-108.521,17.273,
00:00:34:567,-0.386,-0.712,0.282,348.999,-97.168,39.184,
00:00:34:584,-0.674,-0.665,0.111,640.808,-163.147,46.508,
