TIMECODE,ACC_X,ACC_Y,ACC_Z,GYR_X,GYR_Y,GYR_Z,TAG
00:00:00:0,0.829,0.299,0.417,-3.785,-0.611,-11.048,
00:00:00:16,0.824,0.31,0.416,-9.156,0.976,-8.118,
00:00:00:33,0.82,0.319,0.414,-5.005,-2.198,-7.447,
00:00:00:50,0.816,0.318,0.417,0.854,-1.587,-5.188,
00:00:00:66,0.814,0.314,0.417,1.953,-1.77,-3.357,
00:00:00:83,0.811,0.31,0.421,-3.479,-4.334,-2.686,
00:00:00:100,0.809,0.31,0.417,-8.118,-8.118,-5.066,
00:00:00:116,0.808,0.316,0.418,-12.452,-7.203,-6.47,
00:00:00:133,0.806,0.317,0.422,-10.621,-8.973,-6.104,
00:00:00:150,0.804,0.321,0.425,-7.752,-7.081,-7.63,
00:00:00:166,0.802,0.32,0.427,-4.456,-5.86,-6.409,
00:00:00:183,0.806,0.316,0.427,-3.052,-2.869,-7.874,
00:00:00:200,0.803,0.315,0.428,-4.029,-2.076,-8.667,
00:00:00:216,0.802,0.316,0.427,-3.418,1.281,-8.423,
00:00:00:233,0.801,0.318,0.428,-3.235,4.516,-10.01,
00:00:00:250,0.799,0.32,0.425,-1.893,4.028,-8.423,
00:00:00:266,0.794,0.318,0.426,-2.808,3.967,-9.522,
00:00:00:283,0.807,0.322,0.421,-6.165,6.286,-9.4,
00:00:00:300,0.811,0.327,0.42,-5.799,5.432,-11.292,
00:00:00:316,0.804,0.33,0.427,-2.93,9.582,-13.733,
00:00:00:333,0.801,0.329,0.427,-4.761,11.23,-16.114,
00:00:00:350,0.794,0.33,0.423,-3.052,10.925,-17.579,
00:00:00:366,0.796,0.328,0.422,1.342,11.84,-18.372,
00:00:00:383,0.799,0.323,0.428,8.239,12.817,-18.982,
00:00:00:400,0.801,0.326,0.426,10.864,14.038,-19.593,
00:00:00:416,0.805,0.324,0.424,10.864,14.526,-22.156,
00:00:00:433,0.809,0.324,0.42,10.62,17.395,-23.621,
00:00:00:450,0.808,0.322,0.421,7.568,18.127,-25.757,
00:00:00:466,0.805,0.323,0.423,17.273,15.38,-23.499,
00:00:00:483,0.814,0.319,0.417,11.901,15.014,-23.316,
00:00:00:500,0.81,0.321,0.415,8.422,13.61,-23.133,
00:00:00:516,0.81,0.318,0.417,7.873,12.023,-22.461,
00:00:00:533,0.811,0.32,0.416,6.53,10.62,-21.241,
00:00:00:550,0.813,0.322,0.415,8.056,8.422,-17.884,
00:00:00:566,0.81,0.322,0.421,11.23,8.361,-15.381,
00:00:00:583,0.809,0.317,0.418,11.84,9.094,-14.222,
00:00:00:600,0.812,0.32,0.418,12.512,10.253,-13.672,
00:00:00:616,0.81,0.324,0.417,10.742,7.507,-13.123,
00:00:00:633,0.808,0.322,0.42,11.413,6.958,-14.1,
00:00:00:650,0.811,0.325,0.421,5.981,8.728,-16.846,
00:00:00:666,0.806,0.329,0.419,2.258,5.859,-19.471,
00:00:00:683,0.804,0.331,0.422,2.563,5.493,-22.034,
00:00:00:700,0.805,0.331,0.42,6.53,5.004,-24.476,
00:00:00:716,0.804,0.327,0.422,6.103,4.089,-24.964,
00:00:00:733,0.805,0.323,0.421,9.704,4.15,-27.527,
00:00:00:750,0.809,0.32,0.424,5.31,3.723,-27.955,
00:00:00:766,0.805,0.319,0.42,7.69,3.906,-27.527,
00:00:00:783,0.806,0.317,0.422,5.737,4.699,-24.598,
00:00:00:800,0.809,0.313,0.419,4.089,3.723,-24.353,
00:00:00:816,0.815,0.319,0.42,0.549,4.394,-22.278,
00:00:00:833,0.813,0.322,0.42,-4.822,2.624,-21.729,
00:00:00:850,0.806,0.322,0.418,-4.822,4.882,-22.95,
00:00:00:866,0.799,0.327,0.423,-2.991,4.943,-23.682,
00:00:00:883,0.8,0.329,0.429,-0.611,5.432,-23.438,
00:00:00:900,0.8,0.325,0.431,8.361,5.554,-24.903,
00:00:00:916,0.804,0.325,0.424,7.69,6.591,-25.147,
00:00:00:933,0.81,0.315,0.425,-5.249,9.094,-25.879,
00:00:00:950,0.81,0.315,0.421,-7.813,10.131,-27.283,
00:00:00:966,0.808,0.327,0.413,2.258,8.3,-23.377,
00:00:00:983,0.808,0.324,0.42,10.742,8.3,-21.058,
00:00:01:0,0.807,0.318,0.421,5.249,9.216,-21.546,
00:00:01:16,0.802,0.318,0.422,-1.221,6.591,-18.921,
00:00:01:33,0.805,0.315,0.42,-2.259,4.272,-18.25,
00:00:01:50,0.809,0.312,0.423,-5.31,2.319,-17.823,
00:00:01:66,0.806,0.32,0.422,-12.513,4.15,-14.527,
00:00:01:83,0.807,0.32,0.429,-14.71,6.103,-13.733,
00:00:01:100,0.807,0.325,0.421,-13.55,6.469,-13.489,
00:00:01:116,0.804,0.329,0.42,-13.245,6.53,-14.1,
00:00:01:133,0.803,0.325,0.422,-9.461,6.958,-12.085,
00:00:01:150,0.803,0.328,0.426,-7.935,8.178,-13.733,
00:00:01:166,0.805,0.328,0.422,-7.447,10.131,-16.846,
00:00:01:183,0.807,0.331,0.419,-4.334,8.972,-16.297,
00:00:01:200,0.806,0.332,0.416,-4.029,9.887,-18.799,
00:00:01:216,0.807,0.328,0.417,-2.381,8.483,-17.884,
00:00:01:233,0.808,0.327,0.42,-1.709,6.347,-17.334,
00:00:01:250,0.804,0.323,0.422,-2.015,7.263,-18.189,
00:00:01:266,0.803,0.325,0.422,-3.602,6.591,-17.884,
00:00:01:283,0.809,0.325,0.42,-4.944,7.08,-15.992,
00:00:01:300,0.809,0.329,0.415,-4.395,6.652,-17.334,
00:00:01:316,0.81,0.328,0.416,-2.381,6.164,-15.381,
00:00:01:333,0.806,0.331,0.417,0.366,4.943,-14.954,
00:00:01:350,0.8,0.331,0.42,1.77,6.408,-13.977,
00:00:01:366,0.804,0.331,0.42,1.648,4.76,-13.001,
00:00:01:383,0.811,0.331,0.417,-0.306,5.004,-12.696,
00:00:01:400,0.811,0.333,0.416,-1.465,2.99,-14.466,
00:00:01:416,0.81,0.335,0.416,-2.076,5.737,-17.212,
00:00:01:433,0.806,0.336,0.415,-1.77,4.76,-18.25,
00:00:01:450,0.797,0.336,0.418,-2.808,2.929,-19.227,
00:00:01:466,0.793,0.335,0.422,-2.137,3.234,-21.302,
00:00:01:483,0.798,0.332,0.423,3.418,5.615,-19.165,
00:00:01:500,0.802,0.332,0.423,5.004,5.737,-20.325,
00:00:01:516,0.809,0.33,0.421,5.554,4.272,-20.935,
00:00:01:533,0.806,0.33,0.419,6.53,7.324,-21.119,
00:00:01:550,0.804,0.327,0.418,4.76,7.446,-19.837,
00:00:01:566,0.806,0.328,0.42,2.38,6.774,-19.41,
00:00:01:583,0.804,0.331,0.423,-0.55,5.493,-20.264,
00:00:01:600,0.799,0.332,0.418,1.464,6.286,-20.813,
00:00:01:616,0.801,0.333,0.42,1.709,6.774,-19.776,
00:00:01:633,0.806,0.335,0.419,2.258,6.164,-19.959,
00:00:01:650,0.801,0.335,0.42,4.028,6.408,-19.349,
00:00:01:666,0.803,0.333,0.42,2.807,6.53,-21.18,
00:00:01:683,0.801,0.333,0.418,2.014,6.225,-20.813,
00:00:01:700,0.8,0.334,0.417,2.136,6.042,-20.691,
00:00:01:716,0.801,0.334,0.42,4.699,6.408,-18.677,
00:00:01:733,0.802,0.334,0.42,4.15,7.629,-20.081,
00:00:01:750,0.803,0.331,0.417,3.051,7.629,-18.311,
00:00:01:766,0.801,0.334,0.418,1.159,7.324,-19.959,
00:00:01:783,0.805,0.335,0.419,0.427,5.859,-19.959,
00:00:01:800,0.807,0.338,0.418,0.488,8.056,-19.959,
00:00:01:816,0.804,0.335,0.417,15.502,6.958,-20.081,
00:00:01:833,0.8,0.334,0.42,1.709,5.859,-21.424,
00:00:01:850,0.799,0.334,0.421,3.112,5.981,-20.813,
00:00:01:866,0.799,0.335,0.423,2.441,5.92,-20.997,
00:00:01:883,0.803,0.334,0.424,0.549,6.103,-20.569,
00:00:01:900,0.804,0.335,0.417,1.281,8.606,-20.813,
00:00:01:916,0.8,0.336,0.423,5.554,8.117,-19.41,
00:00:01:933,0.801,0.333,0.419,6.591,8.544,-20.508,
00:00:01:950,0.797,0.334,0.419,7.141,9.46,-19.593,
00:00:01:966,0.799,0.333,0.418,7.873,10.681,-18.677,
00:00:01:983,0.806,0.333,0.414,4.638,9.948,-18.921,
00:00:02:0,0.812,0.337,0.414,2.99,7.507,-19.471,
00:00:02:16,0.812,0.338,0.417,4.577,7.995,-19.471,
00:00:02:33,0.804,0.338,0.419,2.441,8.789,-20.508,
00:00:02:50,0.796,0.337,0.423,2.929,8.544,-21.607,
00:00:02:66,0.792,0.338,0.424,3.662,7.69,-23.011,
00:00:02:83,0.796,0.337,0.425,7.141,8.056,-23.255,
00:00:02:100,0.806,0.331,0.415,7.263,7.141,-20.142,
00:00:02:116,0.807,0.33,0.416,4.76,5.249,-20.264,
00:00:02:133,0.805,0.33,0.42,1.281,6.042,-21.119,
00:00:02:150,0.804,0.336,0.42,-4.517,6.408,-19.043,
00:00:02:166,0.792,0.335,0.418,-5.616,4.821,-19.776,
00:00:02:183,0.8,0.338,0.421,-4.09,4.76,-18.982,
00:00:02:200,0.802,0.338,0.422,4.211,7.263,-19.41,
00:00:02:216,0.803,0.341,0.423,4.272,7.69,-20.935,
00:00:02:233,0.798,0.339,0.425,7.324,8.606,-22.522,
00:00:02:250,0.8,0.338,0.422,11.779,11.169,-21.058,
00:00:02:266,0.801,0.338,0.416,13.366,11.535,-23.438,
00:00:02:283,0.801,0.337,0.417,14.465,13.549,-21.241,
00:00:02:300,0.801,0.338,0.419,16.113,11.291,-23.926,
00:00:02:316,0.803,0.335,0.416,15.502,13.305,-24.353,
00:00:02:333,0.803,0.335,0.417,14.038,12.023,-25.513,
00:00:02:350,0.801,0.335,0.421,14.648,10.131,-25.513,
00:00:02:366,0.802,0.335,0.419,15.197,11.901,-25.269,
00:00:02:383,0.799,0.334,0.42,13.61,10.864,-25.208,
00:00:02:400,0.801,0.333,0.422,14.587,11.474,-24.598,
00:00:02:416,0.801,0.329,0.42,14.099,11.352,-23.621,
00:00:02:433,0.806,0.33,0.42,8.911,10.986,-23.011,
00:00:02:450,0.805,0.331,0.42,5.798,11.047,-23.682,
00:00:02:466,0.804,0.335,0.421,4.455,10.437,-24.414,
00:00:02:483,0.802,0.339,0.421,9.094,12.512,-24.292,
00:00:02:500,0.8,0.334,0.419,12.268,11.657,-23.804,
00:00:02:516,0.799,0.334,0.422,13.61,10.498,-23.438,
00:00:02:533,0.808,0.329,0.416,10.986,9.704,-23.804,
00:00:02:550,0.814,0.332,0.415,8.239,10.437,-23.56,
00:00:02:566,0.811,0.334,0.418,6.591,10.498,-22.644,
00:00:02:583,0.803,0.336,0.42,10.742,10.559,-26.001,
00:00:02:600,0.798,0.336,0.421,9.521,10.009,-26.734,
00:00:02:616,0.791,0.333,0.426,12.268,11.047,-26.062,
00:00:02:633,0.791,0.331,0.425,11.108,11.23,-25.94,
00:00:02:650,0.804,0.329,0.424,11.047,11.169,-24.414,
00:00:02:666,0.803,0.326,0.415,12.023,10.925,-24.476,
00:00:02:683,0.809,0.329,0.416,11.291,12.451,-24.72,
00:00:02:700,0.808,0.327,0.419,10.437,9.887,-22.034,
00:00:02:716,0.806,0.329,0.415,10.742,11.23,-22.461,
00:00:02:733,0.806,0.329,0.423,7.08,11.352,-24.17,
00:00:02:750,0.8,0.33,0.42,8.056,9.46,-23.072,
00:00:02:766,0.804,0.332,0.42,9.033,11.169,-21.607,
00:00:02:783,0.806,0.331,0.418,9.094,10.986,-21.729,
00:00:02:800,0.803,0.33,0.421,7.934,9.277,-22.522,
00:00:02:816,0.806,0.331,0.418,7.873,11.047,-23.743,
00:00:02:833,0.804,0.331,0.416,7.141,10.437,-23.072,
00:00:02:850,0.802,0.332,0.421,6.958,12.023,-24.353,
00:00:02:866,0.801,0.333,0.421,7.812,10.253,-22.217,
00:00:02:883,0.8,0.331,0.417,7.263,11.413,-23.56,
00:00:02:900,0.807,0.329,0.416,8.117,8.606,-23.743,
00:00:02:916,0.812,0.332,0.412,7.812,2.502,-22.095,
00:00:02:933,0.81,0.333,0.418,8.667,-1.709,-21.729,
00:00:02:950,0.798,0.325,0.422,9.643,2.929,-23.438,
00:00:02:966,0.801,0.329,0.421,4.943,9.277,-22.278,
00:00:02:983,0.804,0.329,0.425,5.981,9.277,-24.17,
00:00:03:0,0.802,0.329,0.419,2.441,12.207,-23.987,
00:00:03:16,0.807,0.331,0.413,3.051,13.855,-24.598,
00:00:03:33,0.808,0.329,0.417,3.906,11.291,-24.231,
00:00:03:50,0.803,0.328,0.421,3.234,11.901,-24.598,
00:00:03:66,0.808,0.326,0.417,2.258,11.23,-23.072,
00:00:03:83,0.806,0.33,0.413,0.976,9.216,-21.851,
00:00:03:100,0.804,0.326,0.419,0.366,7.202,-22.095,
00:00:03:116,0.801,0.329,0.419,2.197,7.934,-22.095,
00:00:03:133,0.8,0.328,0.421,2.502,8.178,-20.203,
00:00:03:150,0.806,0.326,0.416,-0.794,7.385,-19.654,
00:00:03:166,0.817,0.328,0.413,-0.306,10.009,-19.471,
00:00:03:183,0.815,0.333,0.412,-3.052,5.981,-21.241,
00:00:03:200,0.807,0.332,0.413,-2.076,6.713,-22.461,
00:00:03:216,0.801,0.331,0.416,-3.113,5.371,-21.851,
00:00:03:233,0.798,0.333,0.422,-2.32,6.225,-19.532,
00:00:03:250,0.795,0.33,0.421,-2.32,7.507,-20.203,
00:00:03:266,0.798,0.329,0.422,-0.55,7.568,-17.09,
00:00:03:283,0.803,0.326,0.421,-3.602,7.385,-15.686,
00:00:03:300,0.81,0.324,0.417,-6.958,7.446,-13.367,
00:00:03:316,0.812,0.325,0.413,-4.761,7.202,-11.414,
00:00:03:333,0.811,0.326,0.416,-7.142,7.019,-12.024,
00:00:03:350,0.809,0.326,0.415,-11.048,7.385,-12.085,
00:00:03:366,0.804,0.33,0.421,-14.893,5.127,-11.597,
00:00:03:383,0.798,0.331,0.415,-19.165,2.258,-11.78,
00:00:03:400,0.804,0.335,0.412,-20.081,1.098,-11.353,
00:00:03:416,0.806,0.336,0.411,-22.339,0.61,-9.888,
00:00:03:433,0.804,0.335,0.416,-23.316,1.098,-13.184,
00:00:03:450,0.795,0.34,0.418,-22.706,5.798,-9.705,
00:00:03:466,0.785,0.347,0.435,-6.287,8.117,-8.179,
00:00:03:483,0.787,0.352,0.435,18.554,18.249,-0.061,
00:00:03:500,0.797,0.372,0.432,37.048,25.878,-0.061,
00:00:03:516,0.795,0.331,0.423,43.823,31.127,1.586,
00:00:03:533,0.791,0.332,0.422,38.33,35.644,1.342,
00:00:03:550,0.793,0.343,0.417,38.086,37.353,1.22,
00:00:03:566,0.804,0.347,0.414,43.701,36.071,-0.489,
00:00:03:583,0.814,0.342,0.407,51.33,34.912,0.427,
00:00:03:600,0.817,0.342,0.407,49.255,37.414,-2.076,
00:00:03:616,0.813,0.343,0.403,37.475,36.743,-9.461,
00:00:03:633,0.804,0.345,0.41,26.001,36.193,-19.532,
00:00:03:650,0.8,0.336,0.412,-12.452,42.785,-20.264,
00:00:03:666,0.8,0.345,0.415,-21.363,37.963,-41.26,
00:00:03:683,0.808,0.373,0.41,9.155,38.635,-41.077,
00:00:03:700,0.817,0.36,0.418,31.066,38.391,-52.124,
00:00:03:716,0.834,0.348,0.422,29.907,38.94,-68.848,
00:00:03:733,0.835,0.361,0.418,40.832,30.029,-88.196,
00:00:03:750,0.841,0.365,0.406,50.354,13.305,-101.502,
00:00:03:766,0.831,0.351,0.384,51.33,-2.808,-119.629,
00:00:03:783,0.807,0.336,0.372,45.959,-13.489,-127.015,
00:00:03:800,0.813,0.326,0.39,57.251,-13.672,-121.705,
00:00:03:816,0.831,0.304,0.4,61.706,-9.644,-114.747,
00:00:03:833,0.859,0.263,0.422,20.324,-8.057,-106.263,
00:00:03:850,0.861,0.258,0.447,-45.35,-4.09,-115.723,
00:00:03:866,0.8,0.299,0.561,-49.622,5.31,-138.794,
00:00:03:883,0.804,0.351,0.662,10.131,42.724,-152.039,
00:00:03:900,0.903,0.403,0.932,90.942,71.411,-147.889,
00:00:03:916,0.943,0.468,1.411,173.217,48.278,-139.222,
00:00:03:933,0.938,0.612,1.757,213.867,31.799,-111.451,
00:00:03:950,1.108,0.88,2.416,419.372,-39.185,-83.374,
00:00:03:966,1.438,1.177,3.285,899.231,-366.7,-18.067,
00:00:03:983,1.699,1.12,3.421,952.758,-889.71,222.29,
00:00:04:0,2.124,1.081,3.413,519.104,-1448.975,409.851,
00:00:04:16,2.522,1.041,3.32,-119.873,-1950.623,592.956,
00:00:04:33,2.882,1.617,2.934,-425.049,-2000,940.429,
00:00:04:50,3.346,2.314,2.351,184.143,-2000,1345.886,
00:00:04:66,3.709,1.823,1.5,849.304,-2000,1508.545,
00:00:04:83,3.75,1.271,0.774,856.75,-2000,1592.407,
00:00:04:100,3.253,1.043,0.313,671.02,-2000,1653.93,
00:00:04:116,2.93,0.978,0.003,531.372,-2000,1622.924,
00:00:04:133,2.683,0.825,-0.356,511.535,-2000,1604.065,
00:00:04:150,2.566,0.473,-1.014,554.931,-2000,1564.331,
00:00:04:166,2.907,-0.211,-2.037,653.686,-2000,1307.006,
00:00:04:183,3.249,-1.36,-3.547,668.09,-2000,1176.147,
00:00:04:200,2.878,-2.173,-4,-106.019,-2000,822.876,
00:00:04:216,2.293,-2.227,-4,-1307.984,-2000,216.064,
00:00:04:233,1.289,-2.572,-4,-1468.689,-757.386,-225.098,
00:00:04:250,0.868,-2.204,-3.73,-892.945,546.814,-801.026,
00:00:04:266,0.641,-1.518,-2.891,-426.453,1524.719,-1296.814,
00:00:04:283,0.558,-1.129,-1.883,27.771,1999.694,-1763.001,
00:00:04:300,0.71,-0.808,-0.978,169.128,1999.694,-2000,
00:00:04:316,1.075,-0.419,-0.474,-11.17,1999.694,-2000,
00:00:04:333,1.905,0.091,0.271,-247.193,1999.694,-2000,
00:00:04:350,2.754,1.114,0.762,92.773,1999.694,-2000,
00:00:04:366,3.056,0.939,1.336,782.959,1999.694,-2000,
00:00:04:383,3.768,1.327,1.892,1186.401,1999.694,-2000,
00:00:04:400,3.841,0.962,2.574,932.19,1999.694,-2000,
00:00:04:416,3.121,0.685,2.78,-101.319,1999.694,-1670.777,
00:00:04:433,2.559,1.014,2.677,-1112,1796.508,-1369.324,
00:00:04:450,2.128,1.727,2.553,-1070.923,1458.496,-1121.033,
00:00:04:466,1.75,1.856,2.59,-172.486,1175.537,-912.964,
00:00:04:483,1.443,1.149,2.419,464.843,970.398,-716.248,
00:00:04:500,1.268,0.727,2.3,529.48,759.216,-394.471,
00:00:04:516,1.01,0.418,2.015,163.452,455.993,-173.768,
00:00:04:533,0.761,0.439,1.658,-321.534,182.495,-64.209,
00:00:04:550,0.74,0.533,1.452,-617.493,-2.625,-22.278,
00:00:04:566,0.83,0.621,1.267,-710.816,-128.846,63.659,
00:00:04:583,0.791,0.634,1.161,-631.104,-235.23,206.298,
00:00:04:600,0.673,0.619,1.067,-450.806,-276.978,343.2,
00:00:04:616,0.669,0.605,0.982,-233.216,-255.127,436.523,
00:00:04:633,0.771,0.532,0.931,-49.866,-230.225,517.456,
00:00:04:650,0.905,0.467,0.883,6.591,-277.649,584.655,
00:00:04:666,0.88,0.441,0.794,-76.355,-341.858,606.018,
00:00:04:683,0.84,0.466,0.701,-168.274,-383.667,605.529,
00:00:04:700,0.805,0.5,0.651,-205.018,-420.472,608.459,
00:00:04:716,0.782,0.494,0.63,-216.37,-441.529,630.371,
00:00:04:733,0.738,0.493,0.619,-207.642,-457.032,667.541,
00:00:04:750,0.691,0.499,0.6,-195.313,-453.919,718.139,
00:00:04:766,0.651,0.496,0.537,-188.538,-445.557,762.024,
00:00:04:783,0.592,0.496,0.474,-182.923,-434.754,777.038,
00:00:04:800,0.541,0.512,0.42,-184.937,-424.195,775.512,
00:00:04:816,0.487,0.532,0.443,-173.157,-411.622,754.638,
00:00:04:833,0.444,0.537,0.5,-172.425,-389.771,724.67,
00:00:04:850,0.422,0.539,0.544,-202.149,-348.755,695.556,
00:00:04:866,0.39,0.54,0.538,-253.785,-305.115,678.1,
00:00:04:883,0.327,0.572,0.541,-314.148,-264.832,669.616,
00:00:04:900,0.305,0.67,0.548,-345.276,-221.192,667.114,
00:00:04:916,0.305,0.801,0.568,-307.312,-192.383,667.968,
00:00:04:933,0.294,0.796,0.555,-236.695,-170.105,652.588,
00:00:04:950,0.27,0.765,0.563,-213.623,-155.945,657.47,
00:00:04:966,0.237,0.795,0.582,-233.582,-138.672,670.654,
00:00:04:983,0.238,0.837,0.574,-227.845,-117.188,695.678,
00:00:05:0,0.229,0.881,0.562,-204.407,-109.314,729.614,
00:00:05:16,0.209,0.896,0.529,-172.608,-100.464,754.089,
00:00:05:33,0.156,0.892,0.521,-129.151,-92.469,773.01,
00:00:05:50,0.163,0.904,0.556,-86.304,-95.337,789.917,
00:00:05:66,0.125,0.937,0.571,-62.928,-88.807,810.424,
00:00:05:83,0.088,0.921,0.562,-81.665,-68.787,817.81,
00:00:05:100,0.061,0.889,0.546,-139.771,-46.753,816.467,
00:00:05:116,0.037,0.87,0.515,-147.156,-37.11,821.106,
00:00:05:133,-0.007,0.858,0.518,-111.329,-28.199,834.961,
00:00:05:150,-0.025,0.858,0.516,-63.965,-11.414,848.51,
00:00:05:166,-0.021,0.861,0.506,-46.509,17.578,854.492,
00:00:05:183,-0.012,0.841,0.486,-53.406,56.945,844.848,
00:00:05:200,-0.013,0.795,0.457,-75.989,106.567,825.195,
00:00:05:216,-0.03,0.729,0.402,-92.53,168.274,799.499,
00:00:05:233,-0.048,0.693,0.339,-105.774,237.732,779.358,
00:00:05:250,-0.054,0.687,0.3,-138.306,317.566,758.85,
00:00:05:266,-0.047,0.687,0.28,-175.354,401.916,728.21,
00:00:05:283,-0.037,0.675,0.298,-170.105,479.126,677.185,
00:00:05:300,-0.043,0.669,0.299,-147.706,541.809,632.568,
00:00:05:316,-0.06,0.664,0.274,-133.606,613.22,591.247,
00:00:05:333,-0.076,0.635,0.28,-128.113,669.983,535.217,
00:00:05:350,-0.078,0.604,0.336,-119.141,703.613,479.309,
00:00:05:366,-0.083,0.582,0.35,-123.719,710.937,434.082,
00:00:05:383,-0.081,0.569,0.386,-140.198,705.2,398.925,
00:00:05:400,-0.073,0.595,0.434,-167.847,681.945,371.643,
00:00:05:416,-0.067,0.635,0.526,-209.473,645.385,327.575,
00:00:05:433,-0.061,0.62,0.609,-243.958,578.247,247.863,
00:00:05:450,-0.054,0.593,0.642,-275.696,519.348,186.34,
00:00:05:466,-0.06,0.593,0.618,-326.355,480.651,141.601,
00:00:05:483,-0.054,0.648,0.585,-384.278,439.819,117.492,
00:00:05:500,-0.031,0.743,0.583,-390.87,392.7,96.923,
00:00:05:516,-0.015,0.802,0.616,-315.064,329.284,58.898,
00:00:05:533,-0.027,0.802,0.63,-244.08,278.137,31.005,
00:00:05:550,-0.048,0.794,0.642,-199.463,246.887,-0.428,
00:00:05:566,-0.056,0.788,0.635,-171.998,221.496,-22.889,
00:00:05:583,-0.053,0.798,0.599,-177.796,201.66,-41.016,
00:00:05:600,-0.042,0.774,0.589,-209.656,174.438,-62.378,
00:00:05:616,-0.039,0.764,0.583,-300.11,152.16,-71.045,
00:00:05:633,-0.05,0.814,0.567,-414.063,147.766,-78.553,
00:00:05:650,-0.058,0.899,0.503,-462.159,149.047,-77.881,
00:00:05:666,-0.056,0.966,0.428,-381.348,141.967,-76.172,
00:00:05:683,-0.087,0.93,0.416,-191.04,119.812,-95.704,
00:00:05:700,-0.112,0.834,0.45,-88.929,110.534,-93.567,
00:00:05:716,-0.116,0.825,0.461,-114.502,105.59,-82.276,
00:00:05:733,-0.12,0.853,0.47,-187.317,91.552,-79.468,
00:00:05:750,-0.136,0.839,0.461,-251.831,77.941,-102.417,
00:00:05:766,-0.14,0.833,0.415,-313.111,81.42,-111.939,
00:00:05:783,-0.12,0.865,0.345,-356.263,87.341,-104.004,
00:00:05:800,-0.096,0.948,0.328,-320.191,72.143,-98.389,
00:00:05:816,-0.089,1.006,0.348,-214.6,52.063,-90.271,
00:00:05:833,-0.095,0.994,0.35,-92.408,41.137,-98.999,
00:00:05:850,-0.101,0.917,0.339,-56.275,46.447,-98.755,
00:00:05:866,-0.1,0.88,0.325,-128.724,61.645,-86.853,
00:00:05:883,-0.099,0.896,0.306,-241.761,71.411,-87.586,
00:00:05:900,-0.101,0.923,0.312,-302.308,75.744,-84.534,
00:00:05:916,-0.097,0.969,0.307,-304.383,67.138,-79.712,
00:00:05:933,-0.1,0.994,0.307,-215.943,43.335,-83.802,
00:00:05:950,-0.111,0.972,0.308,-75.196,19.653,-90.638,
00:00:05:966,-0.123,0.938,0.309,21.789,5.004,-86.548,drinkRH
00:00:05:983,-0.121,0.895,0.284,34.545,4.577,-91.126,
00:00:06:0,-0.1,0.875,0.267,-26.123,14.221,-90.332,
00:00:06:16,-0.082,0.906,0.284,-137.024,23.01,-67.017,
00:00:06:33,-0.087,0.944,0.294,-250.794,26.916,-48.096,
00:00:06:50,-0.081,0.966,0.31,-305.176,32.959,-44.861,
00:00:06:66,-0.062,0.995,0.28,-288.453,40.71,-28.26,
00:00:06:83,-0.052,1.027,0.192,-207.886,44.738,-1.526,
00:00:06:100,-0.044,1.04,0.169,-69.275,22.277,-4.7,
00:00:06:116,-0.045,0.982,0.215,67.932,-12.452,-44.068,
00:00:06:133,-0.048,0.919,0.25,86.486,-17.09,-36.438,
00:00:06:150,-0.052,0.908,0.269,-3.54,-16.297,-38.208,
00:00:06:166,-0.061,0.946,0.219,-148.865,-8.851,-41.26,
00:00:06:183,-0.062,0.973,0.202,-107.972,-6.775,-40.833,
00:00:06:200,-0.057,0.977,0.195,-37.781,-3.907,-25.696,
00:00:06:216,-0.06,0.965,0.199,3.295,-15.625,-25.452,
00:00:06:233,-0.072,0.924,0.206,24.353,2.258,-44.556,
00:00:06:250,-0.081,0.901,0.215,-18.372,6.897,-56.275,
00:00:06:266,-0.076,0.917,0.21,-100.892,17.639,-49.622,
00:00:06:283,-0.077,0.968,0.207,-148.743,26.428,-52.002,
00:00:06:300,-0.087,0.951,0.203,-159.729,23.559,-47.608,
00:00:06:316,-0.091,0.998,0.206,-194.886,27.343,-36.988,
00:00:06:333,-0.081,0.992,0.195,-214.539,26.916,-30.396,
00:00:06:350,-0.07,1.016,0.171,-181.458,15.136,-28.443,
00:00:06:366,-0.078,1,0.18,-128.357,-10.987,-31.067,
00:00:06:383,-0.101,0.964,0.182,-121.949,-16.663,-33.448,
00:00:06:400,-0.091,0.993,0.155,-207.886,11.901,9.704,
00:00:06:416,-0.056,1.011,0.15,-218.873,0.793,-0.428,
00:00:06:433,-0.05,0.983,0.155,-176.209,-25.574,-1.831,
00:00:06:450,-0.084,0.947,0.15,-207.032,-26.673,10.07,
00:00:06:466,-0.106,0.91,0.124,-254.944,-10.254,-15.992,
00:00:06:483,-0.08,0.903,0.073,-241.639,11.901,-42.664,
00:00:06:500,-0.043,0.948,0.038,-243.653,19.104,-34.058,
00:00:06:516,-0.046,0.964,0.031,-236.084,15.991,-35.462,
00:00:06:533,-0.078,0.936,0.05,-255.982,19.043,-43.274,
00:00:06:550,-0.087,0.933,0.038,-308.899,49.682,-49.866,
00:00:06:566,-0.047,1.002,0.018,-295.411,60.546,-41.504,
00:00:06:583,-0.037,1.03,0.008,-211.365,30.517,-38.514,
00:00:06:600,-0.069,0.976,0.003,-110.718,11.352,-39.795,
00:00:06:616,-0.089,0.923,0.013,-58.045,19.226,-47.425,
00:00:06:633,-0.062,0.927,0.038,-57.251,32.348,-59.571,
00:00:06:650,-0.026,0.976,0.022,-92.347,28.137,-45.533,
00:00:06:666,-0.032,1.029,0.008,-100.037,1.953,-31.189,
00:00:06:683,-0.052,1.008,0.003,-80.262,-8.606,-34.18,
00:00:06:700,-0.063,0.947,0.012,-67.749,-7.935,-42.542,
00:00:06:716,-0.073,0.926,0.012,-75.562,-4.029,-41.81,
00:00:06:733,-0.074,0.953,-0.01,-106.751,8.361,-35.035,
00:00:06:750,-0.057,0.982,-0.012,-112.732,12.023,-33.936,
00:00:06:766,-0.045,0.996,-0.009,-120.179,14.16,-34.607,
00:00:06:783,-0.056,1.004,0.008,-143.311,6.225,-33.814,
00:00:06:800,-0.059,1.008,-0.024,-159.913,4.394,-19.959,
00:00:06:816,-0.052,1.058,-0.06,-120.85,7.324,5.249,
00:00:06:833,-0.051,1.057,-0.023,-46.143,-6.287,10.742,
00:00:06:850,-0.06,1.021,0,-4.09,3.784,19.592,
00:00:06:866,-0.044,1.014,-0.012,-14.222,17.273,37.353,
00:00:06:883,-0.032,1.021,-0.056,-43.152,29.785,57.006,
00:00:06:900,-0.02,1.022,-0.072,-57.801,34.729,72.143,
00:00:06:916,-0.02,1.047,-0.069,-61.829,35.583,98.449,
00:00:06:933,-0.037,1.027,-0.037,-77.82,29.113,114.38,
00:00:06:950,-0.048,1.028,-0.037,-138.489,36.865,145.935,
00:00:06:966,-0.041,1.074,-0.069,-175.782,43.09,177.49,
00:00:06:983,-0.037,1.091,-0.082,-164.002,41.381,206.359,
00:00:07:0,-0.044,1.093,-0.101,-138.794,42.907,248.596,
00:00:07:16,-0.038,1.128,-0.121,-144.471,47.302,300.171,
00:00:07:33,-0.037,1.118,-0.118,-107.789,47.424,325.378,
00:00:07:50,-0.084,1.056,-0.13,-49.988,41.992,369.934,
00:00:07:66,-0.121,1.049,-0.115,-45.289,56.03,394.836,
00:00:07:83,-0.13,1.044,-0.116,-46.875,69.458,417.419,
00:00:07:100,-0.166,1.054,-0.138,98.327,69.274,425.659,
00:00:07:116,-0.189,0.947,-0.087,130.432,68.176,409.668,
00:00:07:133,-0.199,0.965,-0.114,22.461,99.365,429.504,
00:00:07:150,-0.216,0.919,-0.116,100.463,97.106,408.142,
00:00:07:166,-0.253,0.874,-0.084,129.943,97.778,423.095,
00:00:07:183,-0.268,0.915,-0.086,61.889,120.91,418.518,
00:00:07:200,-0.266,0.969,-0.105,59.509,135.559,424.316,
00:00:07:216,-0.289,0.938,-0.117,44.189,133.117,424.133,
00:00:07:233,-0.328,0.87,-0.111,40.222,134.46,397.583,
00:00:07:250,-0.329,0.865,-0.084,107.727,141.784,401.001,
00:00:07:266,-0.322,0.932,-0.056,193.664,143.982,425.842,
00:00:07:283,-0.347,0.905,-0.07,262.695,145.385,429.748,
00:00:07:300,-0.383,0.853,-0.072,251.098,150.39,423.828,
00:00:07:316,-0.418,0.818,-0.077,195.434,156.982,411.499,
00:00:07:333,-0.432,0.786,-0.033,190.185,157.837,391.845,
00:00:07:350,-0.454,0.777,0.016,190.063,152.954,377.136,
00:00:07:366,-0.481,0.766,0.045,142.578,153.381,370.544,
00:00:07:383,-0.503,0.77,0.044,91.43,156.067,363.22,
00:00:07:400,-0.512,0.802,0.025,44.25,158.02,358.398,
00:00:07:416,-0.521,0.834,0.033,-18.372,157.348,355.102,
00:00:07:433,-0.545,0.787,0.048,-13.123,151.733,329.773,
00:00:07:450,-0.573,0.765,0.072,-5.31,140.075,324.707,
00:00:07:466,-0.582,0.751,0.083,-19.959,137.451,327.758,
00:00:07:483,-0.584,0.787,0.084,-75.44,133.728,337.219,
00:00:07:500,-0.591,0.802,0.073,-85.694,135.009,311.462,
00:00:07:516,-0.609,0.789,0.061,-53.589,128.234,292.907,
00:00:07:533,-0.637,0.773,0.065,-36.011,126.159,283.203,
00:00:07:550,-0.646,0.718,0.068,-36.255,132.446,275.817,
00:00:07:566,-0.647,0.706,0.066,-24.842,132.08,265.747,
00:00:07:583,-0.63,0.737,0.107,-14.1,125.488,267.334,
00:00:07:600,-0.648,0.729,0.11,14.221,117.492,243.469,
00:00:07:616,-0.667,0.717,0.104,17.273,110.412,226.989,
00:00:07:633,-0.674,0.705,0.102,20.69,106.811,218.444,
00:00:07:650,-0.67,0.707,0.098,18.676,106.689,216.43,
00:00:07:666,-0.667,0.695,0.113,23.498,100.463,205.688,
00:00:07:683,-0.679,0.681,0.086,50.598,101.135,207.275,
00:00:07:700,-0.685,0.686,0.089,48.523,99.365,199.34,
00:00:07:716,-0.688,0.684,0.085,40.039,94.848,192.749,
00:00:07:733,-0.696,0.675,0.086,11.901,96.923,183.288,
00:00:07:750,-0.692,0.655,0.088,2.502,97.045,168.579,
00:00:07:766,-0.699,0.665,0.083,8.117,98.266,163.757,
00:00:07:783,-0.708,0.663,0.083,24.292,102.478,155.212,
00:00:07:800,-0.717,0.679,0.082,6.897,100.525,161.682,
00:00:07:816,-0.725,0.667,0.091,-0.489,98.938,146.423,
00:00:07:833,-0.729,0.623,0.082,3.051,76.904,132.995,
00:00:07:850,-0.736,0.611,0.099,-12.207,65.979,119.201,
00:00:07:866,-0.734,0.596,0.102,-6.226,50.903,101.562,
00:00:07:883,-0.728,0.606,0.115,-11.841,45.166,98.632,
00:00:07:900,-0.732,0.598,0.113,-20.081,44.006,98.144,
00:00:07:916,-0.738,0.598,0.114,-24.964,41.87,94.543,
00:00:07:933,-0.75,0.598,0.132,-38.392,41.137,100.402,
00:00:07:950,-0.771,0.621,0.13,-60.73,37.536,94.238,
00:00:07:966,-0.782,0.64,0.114,-35.767,31.799,84.961,
00:00:07:983,-0.786,0.628,0.112,-1.77,25.573,82.031,
00:00:08:0,-0.775,0.595,0.126,9.277,22.216,80.871,
00:00:08:16,-0.779,0.633,0.15,14.221,15.441,88.012,
00:00:08:33,-0.79,0.635,0.151,54.199,10.681,97.9,
00:00:08:50,-0.807,0.632,0.141,82.397,2.929,108.398,
00:00:08:66,-0.821,0.646,0.152,96.435,-6.287,103.515,
00:00:08:83,-0.803,0.638,0.131,129.089,-8.24,108.825,
00:00:08:100,-0.801,0.626,0.106,145.141,-12.696,108.459,
00:00:08:116,-0.807,0.651,0.104,156.982,-18.86,100.28,
00:00:08:133,-0.794,0.617,0.119,181.213,-23.804,80.505,
00:00:08:150,-0.772,0.59,0.15,162.841,-25.33,94.909,
00:00:08:166,-0.783,0.566,0.153,136.596,-20.142,86.12,
00:00:08:183,-0.835,0.606,0.127,123.047,-36.133,66.589,
00:00:08:200,-0.82,0.606,0.117,145.813,-30.64,90.332,
00:00:08:216,-0.832,0.584,0.119,163.879,-28.565,84.228,
00:00:08:233,-0.8,0.56,0.142,133.178,-15.198,99.548,
00:00:08:250,-0.808,0.572,0.139,101.135,-6.592,107.36,
00:00:08:266,-0.822,0.575,0.121,114.196,1.77,115.722,
00:00:08:283,-0.831,0.574,0.126,124.694,3.906,115.356,
00:00:08:300,-0.826,0.529,0.129,147.4,7.202,115.478,
00:00:08:316,-0.812,0.486,0.149,114.013,14.465,106.994,
00:00:08:333,-0.83,0.494,0.159,83.557,15.136,93.566,
00:00:08:350,-0.824,0.504,0.161,79.589,21.362,90.881,
00:00:08:366,-0.814,0.504,0.156,61.462,28.808,83.19,
00:00:08:383,-0.812,0.519,0.13,48.339,38.452,76.049,
00:00:08:400,-0.817,0.514,0.109,47.302,44.677,63.72,
00:00:08:416,-0.82,0.517,0.116,52.185,49.743,54.077,
00:00:08:433,-0.813,0.515,0.142,44.555,51.086,42.053,
00:00:08:450,-0.813,0.52,0.158,31.005,50.354,35.217,
00:00:08:466,-0.813,0.518,0.141,19.653,49.804,27.954,
00:00:08:483,-0.819,0.527,0.138,13.732,48.156,22.033,
00:00:08:500,-0.828,0.544,0.137,6.713,43.762,21.606,
00:00:08:516,-0.827,0.543,0.156,9.948,42.358,1.403,
00:00:08:533,-0.82,0.504,0.155,17.883,40.527,0.671,
00:00:08:550,-0.837,0.525,0.182,19.775,36.56,-1.526,
00:00:08:566,-0.827,0.53,0.187,37.17,33.203,-8.179,
00:00:08:583,-0.841,0.511,0.171,42.785,36.621,-13.062,
00:00:08:600,-0.842,0.521,0.175,32.836,41.137,-16.968,
00:00:08:616,-0.845,0.522,0.18,45.227,38.452,-13.184,
00:00:08:633,-0.853,0.522,0.185,40.344,40.405,-5.188,
00:00:08:650,-0.852,0.533,0.171,33.447,41.442,4.333,
00:00:08:666,-0.867,0.529,0.175,35.217,38.147,5.493,
00:00:08:683,-0.876,0.538,0.19,42.419,32.104,12.023,
00:00:08:700,-0.875,0.528,0.204,44.494,27.587,20.141,
00:00:08:716,-0.881,0.509,0.21,40.893,27.282,30.395,
00:00:08:733,-0.884,0.506,0.196,35.278,28.564,46.936,
00:00:08:750,-0.889,0.525,0.19,47.485,33.081,59.631,
00:00:08:766,-0.885,0.515,0.186,72.265,36.132,69.152,
00:00:08:783,-0.892,0.511,0.201,78.979,42.663,80.993,
00:00:08:800,-0.88,0.494,0.209,105.468,59.082,100.708,
00:00:08:816,-0.888,0.491,0.223,112.609,60.363,107.605,
00:00:08:833,-0.886,0.481,0.217,124.817,61.462,107.91,
00:00:08:850,-0.886,0.494,0.223,127.014,60.18,110.351,
00:00:08:866,-0.882,0.477,0.227,138.488,58.837,108.276,
00:00:08:883,-0.875,0.473,0.278,142.639,59.631,114.807,
00:00:08:900,-0.873,0.447,0.26,118.896,62.194,122.985,
00:00:08:916,-0.875,0.449,0.219,112.671,59.021,125.183,
00:00:08:933,-0.873,0.445,0.248,126.709,54.443,125.854,
00:00:08:950,-0.876,0.432,0.248,128.112,50.781,123.901,
00:00:08:966,-0.873,0.425,0.245,116.577,48.645,119.567,
00:00:08:983,-0.869,0.417,0.252,124.328,44.311,115.539,
00:00:09:0,-0.871,0.406,0.259,131.591,43.396,116.577,
00:00:09:16,-0.881,0.398,0.258,132.629,38.513,111.511,
00:00:09:33,-0.879,0.396,0.254,141.601,37.597,110.595,
00:00:09:50,-0.882,0.386,0.259,137.512,39.001,110.107,
00:00:09:66,-0.874,0.386,0.263,132.629,41.687,109.008,
00:00:09:83,-0.879,0.37,0.271,142.456,42.297,97.717,
00:00:09:100,-0.89,0.361,0.276,146.911,40.649,96.008,
00:00:09:116,-0.898,0.344,0.29,138.061,38.818,88.256,
00:00:09:133,-0.902,0.343,0.29,113.464,37.17,80.566,
00:00:09:150,-0.908,0.356,0.28,113.586,36.193,78.002,
00:00:09:166,-0.916,0.361,0.297,121.276,37.109,77.758,
00:00:09:183,-0.915,0.347,0.299,126.953,39.367,82.824,
00:00:09:200,-0.919,0.335,0.295,113.464,40.893,84.899,
00:00:09:216,-0.926,0.35,0.29,115.905,42.236,90.759,
00:00:09:233,-0.918,0.335,0.296,124.878,43.457,98.693,
00:00:09:250,-0.916,0.331,0.302,141.54,45.349,108.032,
00:00:09:266,-0.906,0.32,0.303,160.827,40.344,108.764,
00:00:09:283,-0.908,0.297,0.298,173.706,35.522,109.13,
00:00:09:300,-0.917,0.288,0.302,168.64,33.691,104.248,
00:00:09:316,-0.915,0.285,0.312,149.902,35.705,103.149,
00:00:09:333,-0.916,0.291,0.315,129.272,35.522,96.923,
00:00:09:350,-0.916,0.287,0.322,133.85,32.348,91.552,
00:00:09:366,-0.918,0.27,0.328,142.273,33.508,95.031,
00:00:09:383,-0.927,0.264,0.342,129.76,31.921,95.153,
00:00:09:400,-0.931,0.257,0.339,115.6,35.522,98.205,
00:00:09:416,-0.927,0.273,0.327,106.872,39.184,100.647,
00:00:09:433,-0.925,0.271,0.318,118.896,38.94,102.356,
00:00:09:450,-0.922,0.256,0.322,125.854,42.297,102.966,
00:00:09:466,-0.922,0.249,0.337,114.746,42.297,103.759,
00:00:09:483,-0.922,0.243,0.344,115.051,43.212,99.487,
00:00:09:500,-0.913,0.239,0.339,117.675,42.724,100.769,
00:00:09:516,-0.913,0.236,0.333,113.586,36.438,97.839,
00:00:09:533,-0.906,0.237,0.338,103.881,34.179,96.862,
00:00:09:550,-0.906,0.233,0.338,103.149,30.944,93.017,
00:00:09:566,-0.903,0.221,0.343,107.36,26.367,92.346,
00:00:09:583,-0.897,0.221,0.347,111.328,21.911,90.148,
00:00:09:600,-0.902,0.204,0.349,119.201,19.531,83.496,
00:00:09:616,-0.904,0.192,0.353,107.605,15.625,80.505,
00:00:09:633,-0.905,0.194,0.344,98.388,14.404,74.34,
00:00:09:650,-0.902,0.19,0.345,88.317,10.376,68.054,
00:00:09:666,-0.908,0.185,0.339,87.463,5.065,60.363,
00:00:09:683,-0.912,0.172,0.347,86.303,7.385,55.114,
00:00:09:700,-0.913,0.17,0.346,76.416,6.408,48.278,
00:00:09:716,-0.918,0.174,0.333,71.106,3.295,41.992,
00:00:09:733,-0.922,0.171,0.337,66.406,6.652,38.635,
00:00:09:750,-0.928,0.172,0.345,55.419,12.268,34.606,
00:00:09:766,-0.933,0.169,0.357,44.982,11.718,30.578,
00:00:09:783,-0.929,0.167,0.373,35.827,12.695,31.005,
00:00:09:800,-0.929,0.17,0.384,37.048,5.859,34.851,
00:00:09:816,-0.939,0.167,0.379,36.438,1.098,36.315,
00:00:09:833,-0.944,0.164,0.364,42.358,-3.602,38.879,
00:00:09:850,-0.939,0.154,0.355,55.664,-3.052,39.062,
00:00:09:866,-0.94,0.154,0.361,78.247,-3.54,43.64,
00:00:09:883,-0.945,0.151,0.371,102.356,-5.005,43.762,
00:00:09:900,-0.946,0.131,0.379,108.642,-7.63,43.823,
00:00:09:916,-0.955,0.117,0.385,87.036,-5.188,39.611,
00:00:09:933,-0.962,0.127,0.379,66.284,0.061,39.306,
00:00:09:950,-0.958,0.14,0.38,66.467,2.746,38.574,
00:00:09:966,-0.952,0.144,0.377,84.777,3.967,43.945,
00:00:09:983,-0.956,0.138,0.377,92.041,2.624,48.156,
00:00:10:0,-0.951,0.132,0.375,77.88,5.493,53.527,
00:00:10:16,-0.945,0.137,0.373,72.448,7.873,53.955,
00:00:10:33,-0.935,0.127,0.359,84.228,7.69,54.016,
00:00:10:50,-0.935,0.119,0.356,93.139,5.31,55.786,
00:00:10:66,-0.933,0.118,0.356,90.515,4.76,57.922,
00:00:10:83,-0.932,0.106,0.35,87.829,6.164,47.729,
00:00:10:100,-0.923,0.098,0.345,86.181,6.164,43.64,
00:00:10:116,-0.927,0.095,0.343,86.486,4.272,38.94,
00:00:10:133,-0.922,0.089,0.349,71.594,6.836,35.095,
00:00:10:150,-0.919,0.077,0.356,45.959,8.544,23.803,
00:00:10:166,-0.927,0.074,0.35,22.644,6.469,13.305,
00:00:10:183,-0.932,0.087,0.351,17.211,10.07,8.361,
00:00:10:200,-0.927,0.089,0.356,25.085,10.681,8.178,
00:00:10:216,-0.934,0.078,0.36,31.86,6.225,4.028,
00:00:10:233,-0.941,0.072,0.369,24.963,6.347,-0.672,
00:00:10:250,-0.942,0.071,0.364,12.878,9.887,-5.86,
00:00:10:266,-0.941,0.074,0.363,10.864,9.948,-14.893,
00:00:10:283,-0.942,0.067,0.378,18.615,9.582,-15.87,
00:00:10:300,-0.952,0.065,0.378,12.268,7.08,-17.151,
00:00:10:316,-0.953,0.077,0.374,11.413,6.042,-20.325,
00:00:10:333,-0.954,0.067,0.366,13.427,4.577,-20.386,
00:00:10:350,-0.959,0.07,0.357,8.728,5.188,-17.151,
00:00:10:366,-0.966,0.087,0.373,11.718,6.469,-17.579,
00:00:10:383,-0.952,0.076,0.377,18.798,6.774,-14.527,
00:00:10:400,-0.959,0.076,0.377,19.47,7.568,-13.916,
00:00:10:416,-0.965,0.079,0.373,20.08,6.591,-8.973,
00:00:10:433,-0.96,0.074,0.366,22.399,7.385,-2.442,
00:00:10:450,-0.961,0.072,0.376,35.522,9.887,-2.686,
00:00:10:466,-0.961,0.065,0.386,40.161,10.07,-2.198,
00:00:10:483,-0.959,0.055,0.381,27.893,10.376,-3.052,
00:00:10:500,-0.958,0.067,0.38,22.827,10.681,-0.061,
00:00:10:516,-0.956,0.075,0.374,35.461,9.521,2.136,
00:00:10:533,-0.957,0.065,0.369,40.832,7.873,1.586,
00:00:10:550,-0.957,0.063,0.376,42.48,6.469,1.892,
00:00:10:566,-0.953,0.066,0.376,42.236,8.178,2.258,
00:00:10:583,-0.953,0.057,0.372,36.132,7.446,3.967,
00:00:10:600,-0.952,0.059,0.365,29.724,6.225,5.188,
00:00:10:616,-0.947,0.07,0.368,34.362,7.507,7.995,
00:00:10:633,-0.941,0.069,0.364,35.949,9.887,8.178,
00:00:10:650,-0.941,0.065,0.36,39.55,14.404,9.46,
00:00:10:666,-0.945,0.061,0.361,41.198,12.817,9.887,
00:00:10:683,-0.944,0.059,0.367,43.518,12.695,9.887,
00:00:10:700,-0.941,0.052,0.37,41.748,13.305,5.798,
00:00:10:716,-0.937,0.052,0.374,40.832,12.451,2.136,
00:00:10:733,-0.941,0.045,0.365,38.452,7.69,4.211,
00:00:10:750,-0.937,0.053,0.361,33.935,10.864,1.342,
00:00:10:766,-0.935,0.048,0.368,31.189,7.751,-1.648,
00:00:10:783,-0.938,0.044,0.369,17.334,9.765,-7.081,
00:00:10:800,-0.935,0.041,0.365,11.352,9.399,-12.33,
00:00:10:816,-0.935,0.037,0.362,7.812,9.399,-17.212,
00:00:10:833,-0.934,0.041,0.367,3.112,8.911,-21.485,
00:00:10:850,-0.938,0.046,0.365,-5.005,10.376,-25.574,
00:00:10:866,-0.942,0.048,0.371,0.122,12.939,-30.274,
00:00:10:883,-0.937,0.041,0.377,-10.01,10.803,-32.044,
00:00:10:900,-0.94,0.046,0.375,-25.147,9.826,-35.462,
00:00:10:916,-0.94,0.047,0.402,-34.363,8.361,-39.429,
00:00:10:933,-0.952,0.059,0.365,-21.119,5.31,-41.626,
00:00:10:950,-0.948,0.055,0.367,-4.822,5.737,-37.72,
00:00:10:966,-0.953,0.06,0.369,5.065,6.836,-33.936,
00:00:10:983,-0.95,0.048,0.381,7.08,4.638,-34.302,
00:00:11:0,-0.951,0.041,0.378,-2.747,5.676,-38.331,
00:00:11:16,-0.951,0.044,0.376,-18.494,6.836,-38.392,
00:00:11:33,-0.947,0.056,0.367,-22.339,10.742,-40.345,
00:00:11:50,-0.945,0.055,0.365,-15.992,9.277,-41.321,
00:00:11:66,-0.938,0.048,0.365,-17.456,11.901,-41.993,
00:00:11:83,-0.933,0.049,0.351,-22.095,10.864,-45.899,
00:00:11:100,-0.922,0.058,0.347,-36.622,10.192,-46.57,
00:00:11:116,-0.908,0.066,0.341,-53.284,13.122,-59.144,
00:00:11:133,-0.899,0.06,0.331,-64.454,12.756,-69.581,
00:00:11:150,-0.89,0.057,0.323,-82.825,15.625,-78.431,
00:00:11:166,-0.883,0.071,0.321,-91.126,12.085,-90.76,
00:00:11:183,-0.873,0.098,0.328,-105.835,9.338,-89.905,
00:00:11:200,-0.889,0.083,0.343,-108.765,3.051,-107.789,
00:00:11:216,-0.914,0.061,0.344,-141.114,-6.592,-121.521,
00:00:11:233,-0.922,0.031,0.346,-173.34,-16.358,-136.963,
00:00:11:250,-0.919,0.115,0.335,-191.956,-25.635,-138.855,
00:00:11:266,-0.934,0.113,0.329,-202.332,-21.363,-153.565,
00:00:11:283,-0.937,0.108,0.333,-238.648,-16.846,-171.448,
00:00:11:300,-0.933,0.179,0.334,-267.456,-14.649,-166.626,
00:00:11:316,-0.918,0.19,0.337,-247.864,-13.672,-178.101,
00:00:11:333,-0.909,0.16,0.363,-226.38,-17.579,-186.524,
00:00:11:350,-0.927,0.169,0.363,-220.52,-18.738,-182.557,
00:00:11:366,-0.92,0.172,0.343,-226.685,-12.879,-178.772,
00:00:11:383,-0.92,0.204,0.331,-234.925,-17.884,-182.312,
00:00:11:400,-0.933,0.211,0.339,-232.178,-21.119,-189.331,
00:00:11:416,-0.946,0.217,0.347,-231.629,-25.757,-188.965,
00:00:11:433,-0.96,0.23,0.355,-224.427,-24.659,-179.688,
00:00:11:450,-0.958,0.227,0.34,-219.666,-23.621,-168.396,
00:00:11:466,-0.953,0.23,0.328,-230.408,-23.194,-170.166,
00:00:11:483,-0.939,0.238,0.319,-238.587,-22.828,-173.829,
00:00:11:500,-0.923,0.264,0.303,-241.7,-22.583,-177.735,
00:00:11:516,-0.916,0.259,0.29,-244.446,-24.964,-185.975,
00:00:11:533,-0.921,0.255,0.276,-250,-21.485,-192.749,
00:00:11:550,-0.907,0.247,0.292,-275.086,-15.931,-195.801,
00:00:11:566,-0.931,0.286,0.28,-286.988,-39.429,-196.351,
00:00:11:583,-0.945,0.294,0.291,-273.682,-37.537,-197.571,
00:00:11:600,-0.945,0.317,0.302,-263.184,-27.588,-193.482,
00:00:11:616,-0.951,0.325,0.313,-229.371,-25.635,-181.214,
00:00:11:633,-0.952,0.323,0.32,-224.61,-25.452,-172.73,
00:00:11:650,-0.951,0.333,0.287,-226.075,-25.757,-166.871,
00:00:11:666,-0.936,0.323,0.266,-228.821,-23.255,-174.256,
00:00:11:683,-0.916,0.355,0.25,-211.853,-16.724,-178.833,
00:00:11:700,-0.92,0.369,0.286,-194.214,-9.583,-173.584,
00:00:11:716,-0.93,0.358,0.275,-196.106,-6.104,-164.368,
00:00:11:733,-0.922,0.366,0.225,-225.098,-4.212,-168.457,
00:00:11:750,-0.909,0.389,0.182,-251.709,-1.343,-183.716,
00:00:11:766,-0.87,0.373,0.165,-259.339,-0.245,-200.013,
00:00:11:783,-0.85,0.37,0.184,-281.739,9.094,-217.102,
00:00:11:800,-0.829,0.35,0.175,-317.2,12.329,-237,
00:00:11:816,-0.821,0.356,0.175,-363.892,10.253,-263.855,
00:00:11:833,-0.829,0.385,0.187,-397.156,3.845,-295.655,
00:00:11:850,-0.841,0.415,0.197,-394.227,-4.883,-318.604,
00:00:11:866,-0.878,0.447,0.203,-373.658,-14.893,-330.323,
00:00:11:883,-0.862,0.462,0.223,-345.093,-22.767,-333.191,
00:00:11:900,-0.88,0.468,0.223,-358.399,-21.668,-331.116,
00:00:11:916,-0.844,0.493,0.19,-348.633,-16.968,-333.191,
00:00:11:933,-0.832,0.537,0.163,-300.477,-8.728,-325.928,
00:00:11:950,-0.832,0.564,0.154,-244.019,-4.822,-313.294,
00:00:11:966,-0.814,0.593,0.153,-187.806,-5.249,-297.791,
00:00:11:983,-0.835,0.614,0.14,-164.917,-9.705,-280.213,
00:00:12:0,-0.833,0.619,0.136,-149.598,-21.607,-266.846,
00:00:12:16,-0.827,0.607,0.138,-117.371,-36.133,-250.733,
00:00:12:33,-0.808,0.583,0.145,-98.816,-51.392,-241.822,
00:00:12:50,-0.804,0.568,0.156,-100.892,-61.585,-235.108,
00:00:12:66,-0.796,0.588,0.145,-91.309,-71.717,-226.38,
00:00:12:83,-0.784,0.58,0.133,-86.365,-78.248,-221.192,
00:00:12:100,-0.775,0.579,0.116,-95.276,-84.412,-228.15,
00:00:12:116,-0.776,0.594,0.097,-103.272,-92.408,-240.113,
00:00:12:133,-0.784,0.59,0.103,-96.497,-102.356,-252.564,
00:00:12:150,-0.786,0.597,0.133,-93.445,-117.615,-261.963,
00:00:12:166,-0.785,0.6,0.144,-94.605,-128.846,-259.095,
00:00:12:183,-0.773,0.581,0.143,-84.717,-136.17,-271.485,
00:00:12:200,-0.759,0.596,0.121,-68.238,-140.686,-280.396,
00:00:12:216,-0.739,0.598,0.106,-37.903,-145.874,-297.12,
00:00:12:233,-0.747,0.585,0.089,-26.429,-147.278,-320.191,
00:00:12:250,-0.744,0.562,0.068,-35.401,-149.048,-349.183,
00:00:12:266,-0.713,0.572,0.064,-34.424,-151.185,-376.893,
00:00:12:283,-0.664,0.578,0.063,-15.015,-145.264,-409.974,
00:00:12:300,-0.63,0.582,0.06,-24.903,-138.245,-443.787,
00:00:12:316,-0.645,0.584,0.051,-68.543,-137.085,-484.253,
00:00:12:333,-0.639,0.604,0.023,-105.53,-137.94,-524.414,
00:00:12:350,-0.615,0.63,0.009,-103.089,-147.095,-561.585,
00:00:12:366,-0.581,0.647,0.005,-90.149,-170.96,-586.731,
00:00:12:383,-0.564,0.683,0.027,-98.755,-163.025,-608.46,
00:00:12:400,-0.55,0.708,-0.008,-121.644,-169.007,-634.766,
00:00:12:416,-0.562,0.712,-0.008,-111.39,-186.036,-660.523,
00:00:12:433,-0.575,0.729,-0.009,-97.962,-203.431,-682.496,
00:00:12:450,-0.573,0.747,-0.003,-92.591,-215.821,-687.134,
00:00:12:466,-0.561,0.798,-0.001,-95.459,-229.981,-690.125,
00:00:12:483,-0.556,0.848,-0.019,-68.726,-232.789,-700.806,
00:00:12:500,-0.535,0.859,-0.024,-82.215,-232.972,-691.102,
00:00:12:516,-0.542,0.864,-0.017,-72.327,-228.943,-688.843,
00:00:12:533,-0.532,0.903,-0.009,-49.561,-227.601,-663.086,
00:00:12:550,-0.521,0.948,-0.001,-9.644,-219.178,-631.836,
00:00:12:566,-0.493,0.994,-0.029,-33.265,-202.271,-576.05,
00:00:12:583,-0.478,1.002,-0.035,-13.123,-193.116,-545.838,
00:00:12:600,-0.453,1.021,-0.046,37.231,-184.815,-487.549,
00:00:12:616,-0.433,1.006,-0.055,79.528,-182.618,-447.815,
00:00:12:633,-0.419,0.982,-0.029,90.698,-181.519,-404.48,
00:00:12:650,-0.405,1.002,-0.035,67.749,-181.214,-371.338,
00:00:12:666,-0.385,1.015,-0.035,25.085,-180.176,-340.699,
00:00:12:683,-0.373,1.005,-0.028,35.4,-179.81,-320.252,
00:00:12:700,-0.354,1.001,-0.017,115.539,-186.768,-289.856,
00:00:12:716,-0.347,0.983,-0.044,134.338,-186.158,-258.851,
00:00:12:733,-0.318,1.009,-0.067,98.205,-184.021,-236.573,
00:00:12:750,-0.288,1.016,-0.071,76.355,-173.951,-227.723,
00:00:12:766,-0.248,1.065,-0.084,71.106,-169.19,-201.661,
00:00:12:783,-0.22,1.061,-0.073,64.514,-155.03,-188.477,
00:00:12:800,-0.235,1.003,-0.082,73.852,-122.193,-173.34,
00:00:12:816,-0.205,1.012,-0.118,69.641,-112.61,-142.945,
00:00:12:833,-0.191,1.008,-0.12,74.829,-107.605,-126.77,
00:00:12:850,-0.155,1.031,-0.108,67.077,-99.122,-109.864,
00:00:12:866,-0.135,1.042,-0.125,74.89,-94.91,-104.432,
00:00:12:883,-0.122,1.037,-0.096,38.269,-85.328,-89.356,
00:00:12:900,-0.117,1.022,-0.102,0.915,-68.543,-79.59,
00:00:12:916,-0.119,1.029,-0.118,29.113,-64.576,-70.801,
00:00:12:933,-0.117,1.013,-0.125,63.964,-64.331,-56.702,
00:00:12:950,-0.106,0.996,-0.103,69.824,-66.224,-48.584,
00:00:12:966,-0.109,0.976,-0.065,81.054,-69.458,-48.768,
00:00:12:983,-0.098,0.959,-0.039,86.486,-67.81,-43.457,
00:00:13:0,-0.113,0.923,-0.03,118.774,-68.116,-50.965,
00:00:13:16,-0.116,0.887,-0.023,173.584,-75.745,-68.116,
00:00:13:33,-0.126,0.893,-0.058,196.716,-76.294,-76.6,
00:00:13:50,-0.099,0.932,-0.057,204.895,-76.172,-79.834,
00:00:13:66,-0.09,0.923,-0.043,176.269,-77.881,-96.68,
00:00:13:83,-0.09,0.933,-0.045,101.135,-66.224,-110.779,
00:00:13:100,-0.079,0.959,-0.027,48.95,-55.237,-128.663,
00:00:13:116,-0.085,0.947,-0.017,68.908,-52.43,-142.09,
00:00:13:133,-0.08,0.963,-0.031,60.119,-45.594,-133.728,
00:00:13:150,-0.042,0.994,-0.05,31.982,-39.917,-127.747,
00:00:13:166,-0.047,1.002,-0.061,5.92,-35.767,-126.038,
00:00:13:183,-0.041,1.023,-0.046,-7.63,-32.471,-119.935,
00:00:13:200,-0.037,1.021,-0.029,-2.808,-34.546,-115.052,
00:00:13:216,-0.056,1.001,-0.022,8.544,-27.466,-108.277,
00:00:13:233,-0.071,0.99,-0.036,34.118,-22.034,-98.938,
00:00:13:250,-0.06,0.998,-0.029,72.509,-23.987,-89.234,
00:00:13:266,-0.056,1.024,-0.017,122.863,-26.185,-82.337,
00:00:13:283,-0.046,1.02,-0.023,146.667,-26.001,-70.862,
00:00:13:300,-0.048,0.962,-0.036,127.99,-20.569,-62.867,
00:00:13:316,-0.044,0.955,-0.027,98.327,-20.325,-59.632,
00:00:13:333,-0.034,0.97,0.012,88.256,-19.532,-59.144,
00:00:13:350,-0.042,0.958,0.048,67.749,-16.419,-65.369,
00:00:13:366,-0.064,0.938,0.033,16.296,-12.94,-63.843,
00:00:13:383,-0.065,0.942,0.018,-29.664,-17.334,-65.186,
00:00:13:400,-0.06,0.954,0.012,-52.369,-21.668,-64.27,
00:00:13:416,-0.054,0.982,0.026,-63.477,-27.832,-54.81,
00:00:13:433,-0.057,0.99,0.036,-59.449,-32.715,-48.523,
00:00:13:450,-0.063,0.983,0.029,-56.519,-34.729,-46.509,
00:00:13:466,-0.064,0.993,0.013,-52.185,-31.25,-41.504,
00:00:13:483,-0.071,0.989,0.001,-37.72,-29.908,-40.039,
00:00:13:500,-0.071,0.98,0.003,-24.476,-26.368,-38.331,
00:00:13:516,-0.071,0.974,0.008,-19.227,-18.677,-40.223,
00:00:13:533,-0.074,0.964,0.002,-13.123,-12.269,-44.556,
00:00:13:550,-0.074,0.957,0.001,-23.133,-4.822,-50.843,
00:00:13:566,-0.069,0.961,-0.015,-38.697,14.953,-52.613,
00:00:13:583,-0.07,0.977,-0.023,-36.011,3.295,-49.927,
00:00:13:600,-0.065,0.97,-0.001,-31.189,2.746,-51.087,
00:00:13:616,-0.07,0.965,-0.003,-29.786,3.845,-49.744,
00:00:13:633,-0.067,0.97,-0.008,-39.551,4.638,-45.716,
00:00:13:650,-0.067,0.967,-0.012,-44.556,3.173,-61.707,
00:00:13:666,-0.068,0.968,-0.007,-43.702,2.197,-45.716,
00:00:13:683,-0.069,0.968,-0.021,-46.998,-0.916,-42.115,
00:00:13:700,-0.065,0.966,-0.025,-34.974,-2.747,-42.664,
00:00:13:716,-0.06,0.974,-0.027,-24.781,-3.785,-39.124,
00:00:13:733,-0.062,0.96,-0.018,-26.856,-2.625,-42.542,
00:00:13:750,-0.065,0.958,-0.027,-33.448,-1.77,-44.739,
00:00:13:766,-0.063,0.963,-0.027,-31.861,-3.602,-44.983,
00:00:13:783,-0.054,0.962,-0.035,-50.782,-5.616,-34.485,
00:00:13:800,-0.065,0.96,-0.026,-83.741,-2.381,-47.669,
00:00:13:816,-0.069,0.987,-0.027,-49.561,-12.269,-42.115,
00:00:13:833,-0.063,0.984,-0.039,-22.644,-11.719,-38.941,
00:00:13:850,-0.048,0.993,-0.013,-40.467,-19.043,-20.813,
00:00:13:866,-0.059,0.969,-0.06,-19.288,-9.461,-41.932,
00:00:13:883,-0.058,0.965,-0.072,-12.269,-3.785,-24.964,
00:00:13:900,-0.051,0.953,-0.047,-10.071,-2.93,-31.189,
00:00:13:916,-0.045,1.016,-0.027,-26.917,4.089,-9.644,
00:00:13:933,-0.042,1.014,-0.029,18.554,-2.198,-27.771,
00:00:13:950,-0.06,0.97,-0.027,39.001,-5.494,-17.762,
00:00:13:966,-0.063,0.958,-0.021,24.902,-5.555,-25.269,
00:00:13:983,-0.059,0.958,-0.026,33.447,-9.278,-27.71,
00:00:14:0,-0.058,0.973,-0.029,53.711,-9.705,-24.72,
00:00:14:16,-0.041,1.002,-0.031,75.256,-10.071,-22.217,
00:00:14:33,-0.052,0.989,-0.027,89.233,-8.912,-26.062,
00:00:14:50,-0.06,0.961,-0.02,95.398,-7.081,-23.682,
00:00:14:66,-0.065,0.965,-0.025,87.158,-4.029,-21.851,
00:00:14:83,-0.06,0.977,-0.03,82.58,-1.221,-22.583,
00:00:14:100,-0.059,0.986,-0.023,99.365,-0.672,-21.485,
00:00:14:116,-0.058,0.967,-0.007,113.403,-2.442,-21.729,
00:00:14:133,-0.057,0.949,0.006,111.999,-4.578,-18.921,
00:00:14:150,-0.053,0.959,0.014,103.21,-6.653,-18.067,
00:00:14:166,-0.049,0.983,0.025,116.699,-11.841,-16.053,
00:00:14:183,-0.051,0.986,0.013,150.024,-10.498,-24.781,
00:00:14:200,-0.044,0.997,0.027,164.489,-19.959,-22.706,
00:00:14:216,-0.042,0.995,0.04,186.157,-19.471,-26.001,
00:00:14:233,-0.042,0.966,0.054,202.453,-19.165,-36.377,
00:00:14:250,-0.043,0.946,0.051,204.345,-12.757,-37.232,
00:00:14:266,-0.027,0.955,0.063,165.771,-7.081,-40.284,
00:00:14:283,-0.029,0.978,0.075,137.329,-2.93,-48.523,
00:00:14:300,-0.021,1.002,0.078,167.175,-0.428,-49.622,
00:00:14:316,-0.015,0.922,0.123,123.047,-39.368,-49.927,
00:00:14:333,-0.025,0.921,0.106,35.766,-16.358,-65.125,
00:00:14:350,-0.001,1.005,0.09,25.451,-37.598,-33.692,
00:00:14:366,0.006,1.033,0.099,132.08,-56.519,-34.974,
00:00:14:383,0.014,0.988,0.136,240.173,-80.75,-44.739,
00:00:14:400,-0.002,0.906,0.162,227.172,-88.685,-39.429,
00:00:14:416,-0.001,0.926,0.116,174.682,-65.125,-24.537,
00:00:14:433,0.019,1.029,0.138,190.857,-67.078,-1.954,
00:00:14:450,0.012,1.021,0.18,234.802,-70.679,-8.851,
00:00:14:466,-0.001,0.955,0.188,210.022,-60.975,-22.278,
00:00:14:483,0.002,0.984,0.157,197.143,-50.11,-16.602,
00:00:14:500,0.026,0.865,0.222,248.535,-91.004,-18.372,
00:00:14:516,0.03,0.952,0.248,218.689,-101.014,-5.799,
00:00:14:533,0.036,0.989,0.258,284.301,-112.977,-8.301,
00:00:14:550,0.047,0.959,0.251,350.647,-127.686,-6.287,
00:00:14:566,0.045,0.921,0.25,372.436,-131.775,-8.728,
00:00:14:583,0.086,0.869,0.23,299.255,-153.382,-30.091,
00:00:14:600,0.094,0.879,0.279,276.489,-175.721,-43.946,
00:00:14:616,0.092,0.899,0.315,263.672,-185.975,-55.664,
00:00:14:633,0.085,0.864,0.31,285.217,-188.172,-81.727,
00:00:14:650,0.047,0.796,0.306,268.859,-247.193,-115.906,
00:00:14:666,0.009,0.807,0.323,263.366,-247.742,-161.56,
00:00:14:683,-0.026,0.833,0.353,263.366,-235.657,-198.792,
00:00:14:700,-0.072,0.779,0.346,256.042,-210.694,-260.56,
00:00:14:716,-0.116,0.65,0.296,187.683,-197.998,-304.322,
00:00:14:733,-0.112,0.686,0.31,86.12,-227.662,-332.764,
00:00:14:750,-0.08,0.824,0.349,41.809,-255.127,-359.986,
00:00:14:766,-0.081,0.864,0.38,81.543,-268.067,-419.068,
00:00:14:783,-0.086,0.8,0.348,139.465,-237.671,-497.498,
00:00:14:800,-0.067,0.737,0.272,139.77,-204.102,-538.941,
00:00:14:816,-0.056,0.744,0.253,103.271,-184.571,-592.896,
00:00:14:833,0.01,0.881,0.315,98.388,-10.071,-746.338,
00:00:14:850,0.04,0.895,0.304,7.751,84.045,-776.978,
00:00:14:866,0.054,0.91,0.301,-24.109,131.713,-796.814,
00:00:14:883,0.093,0.927,0.315,13.61,156.311,-805.726,
00:00:14:900,0.115,0.942,0.391,95.642,167.541,-824.28,
00:00:14:916,0.144,0.848,0.488,529.113,242.37,-918.519,
00:00:14:933,0.183,0.792,0.377,572.509,301.086,-942.261,
00:00:14:950,0.244,0.709,0.405,511.047,326.355,-950.44,
00:00:14:966,0.291,0.715,0.449,335.754,342.651,-938.843,
00:00:14:983,0.376,0.887,0.538,216.735,360.839,-920.96,
00:00:15:0,0.447,0.942,0.591,345.947,401.428,-946.961,
00:00:15:16,0.503,0.893,0.586,542.358,457.702,-954.712,
00:00:15:33,0.561,0.763,0.473,656.555,528.991,-935.059,
00:00:15:50,0.61,0.676,0.422,705.627,557.067,-898.804,
00:00:15:66,0.633,0.718,0.455,711.792,586.181,-850.037,
00:00:15:83,0.679,0.75,0.53,758.117,609.436,-823.06,
00:00:15:100,0.713,0.708,0.574,850.341,631.164,-795.105,
00:00:15:116,0.776,0.307,0.4,760.559,631.469,-609.925,
00:00:15:133,0.847,0.39,0.436,580.749,559.753,-502.808,
00:00:15:150,0.899,0.515,0.492,540.222,489.135,-430.237,
00:00:15:166,0.904,0.492,0.545,608.947,433.838,-385.376,
00:00:15:183,0.914,0.413,0.572,597.778,393.676,-344.971,
00:00:15:200,0.92,0.206,0.369,73.913,300.415,-244.751,
00:00:15:216,0.921,0.229,0.414,-69.153,240.112,-215.149,
00:00:15:233,0.922,0.212,0.435,-189.331,173.095,-205.506,
00:00:15:250,0.931,0.183,0.591,-372.681,50.598,-182.129,
00:00:15:266,0.901,0.374,0.67,-258.179,-54.139,-158.387,
00:00:15:283,0.826,0.34,0.658,4.638,-130.005,-151.246,
00:00:15:300,0.867,0.256,0.553,88.44,-144.959,-105.591,
00:00:15:316,0.812,0.235,0.494,53.711,-160.401,-82.642,
00:00:15:333,0.791,0.242,0.424,61.828,-98.023,-71.167,
00:00:15:350,0.828,0.186,0.409,68.908,-28.504,-45.716,
00:00:15:366,0.839,0.188,0.383,25.451,30.883,-2.625,
00:00:15:383,0.865,0.164,0.286,201.782,153.198,-1.343,
00:00:15:400,0.858,0.145,0.285,238.769,181.884,17.822,
00:00:15:416,0.812,0.112,0.248,264.099,220.337,19.104,
00:00:15:433,0.821,0.065,0.218,267.089,248.474,-6.348,
00:00:15:450,0.861,0.029,0.211,255.249,250.854,-20.264,
00:00:15:466,0.893,-0.011,0.203,187.317,233.947,-31.128,
00:00:15:483,0.9,-0.084,0.201,57.495,195.678,-55.481,
00:00:15:500,0.933,-0.121,0.243,-163.636,168.762,-66.712,
00:00:15:516,0.964,-0.121,0.274,-385.804,123.108,-69.947,
00:00:15:533,0.99,-0.057,0.301,-519.043,61.584,-58.777,
00:00:15:550,1.016,0.099,0.318,-487.977,-20.142,-23.255,
00:00:15:566,0.999,0.219,0.295,-322.205,-89.722,42.175,
00:00:15:583,0.927,0.233,0.292,-154.114,-147.156,87.28,
00:00:15:600,0.88,0.18,0.303,-143.616,-171.814,100.891,
00:00:15:616,0.826,0.139,0.337,-264.527,-175.904,129.882,
00:00:15:633,0.886,0.197,0.34,-403.992,-149.903,144.775,
00:00:15:650,0.956,0.292,0.329,-470.948,-200.318,161.804,
00:00:15:666,0.854,0.402,0.373,-330.384,-260.254,186.767,
00:00:15:683,0.765,0.383,0.429,-99.671,-264.466,167.053,
00:00:15:700,0.763,0.242,0.44,-23.194,-234.864,164.734,
00:00:15:716,0.751,0.183,0.466,-111.512,-205.384,142.089,
00:00:15:733,0.796,0.184,0.453,-231.141,-132.935,93.444,
00:00:15:750,0.818,0.174,0.259,-334.473,-48.401,47.668,
00:00:15:766,0.729,0.308,0.344,-449.769,-47.12,-0.55,
00:00:15:783,0.845,0.519,0.418,-322.754,44.311,-3.724,
00:00:15:800,1.016,0.51,0.575,-145.691,2.746,-40.711,
00:00:15:816,1.018,0.357,0.719,-84.168,-39.49,-27.588,
00:00:15:833,0.926,0.152,0.51,-154.602,-7.264,-19.349,
00:00:15:850,0.734,0.074,0.292,-132.447,23.925,-14.832,
00:00:15:866,0.627,0.057,0.227,-68.482,134.094,-1.282,
00:00:15:883,0.743,0.302,0.253,-36.988,217.59,47.546,
00:00:15:900,0.881,0.468,0.401,83.313,222.778,57.251,
00:00:15:916,0.875,0.523,0.464,194.763,187.133,69.458,
00:00:15:933,0.849,0.498,0.489,220.581,166.992,63.537,
00:00:15:950,0.811,0.411,0.457,171.569,149.719,26.306,
00:00:15:966,0.845,0.324,0.421,97.961,139.77,3.112,
00:00:15:983,0.893,0.329,0.387,60.18,109.802,-0.916,
00:00:16:0,0.876,0.34,0.387,67.382,80.749,-2.564,
00:00:16:16,0.844,0.318,0.314,75.988,91.186,-7.325,
00:00:16:33,0.879,0.324,0.303,86.425,125.244,6.774,
00:00:16:50,0.905,0.286,0.293,93.2,129.15,0.549,
00:00:16:66,0.831,0.271,0.297,113.769,132.873,0.549,
00:00:16:83,0.845,0.28,0.306,129.455,161.193,6.774,
00:00:16:100,0.893,0.249,0.341,124.878,170.715,-8.728,
00:00:16:116,0.88,0.215,0.316,78.491,173.95,-30.945,
00:00:16:133,0.87,0.241,0.31,38.513,185.913,-69.275,
00:00:16:150,0.857,0.327,0.236,53.894,226.623,-113.831,
00:00:16:166,0.894,0.4,0.259,112.365,252.014,-179.566,
00:00:16:183,0.956,0.444,0.27,158.996,267.212,-242.432,
00:00:16:200,0.952,0.472,0.27,201.599,260.376,-280.823,
00:00:16:216,0.904,0.469,0.278,239.441,241.577,-287.781,
00:00:16:233,0.841,0.386,0.323,280.212,213.928,-279.297,
00:00:16:250,0.764,0.265,0.365,255.981,180.786,-270.203,
00:00:16:266,0.736,0.138,0.369,200.805,141.662,-257.996,
00:00:16:283,0.799,0.073,0.37,104.492,112.548,-230.774,
00:00:16:300,0.826,0.127,0.328,13.366,47.668,-174.988,
00:00:16:316,0.834,0.198,0.302,-50.965,-8.728,-96.619,
00:00:16:333,0.907,0.316,0.297,-91.37,-78.309,-22.644,
00:00:16:350,0.968,0.382,0.318,-44.861,-168.274,4.882,
00:00:16:366,0.915,0.269,0.311,49.56,-218.75,37.475,
00:00:16:383,0.928,0.139,0.273,16.479,-238.099,77.697,
00:00:16:400,0.929,0.082,0.223,-117.249,-240.906,101.562,
00:00:16:416,0.888,0.195,0.217,-267.762,-234.253,137.634,
00:00:16:433,0.955,0.396,0.246,-274.476,-230.103,149.17,
00:00:16:450,0.919,0.377,0.347,-148.011,-230.591,138.427,
00:00:16:466,0.972,0.319,0.419,-109.559,-207.032,123.657,
00:00:16:483,1.018,0.258,0.379,-90.638,-191.712,120.483,
00:00:16:500,0.968,0.2,0.375,-77.942,-192.017,88.745,
00:00:16:516,0.923,0.005,0.364,-45.472,-173.584,-29.541,
00:00:16:533,0.95,-0.017,0.311,-94.788,-142.64,-32.715,
00:00:16:550,0.948,0.097,0.269,-120.301,-126.587,-4.334,
00:00:16:566,0.87,0.202,0.335,-69.397,-153.138,-95.154,
00:00:16:583,0.854,0.18,0.453,55.114,-123.23,-169.007,
00:00:16:600,0.841,0.115,0.414,54.199,-70.313,-171.57,
00:00:16:616,0.783,0.088,0.341,-6.226,-72.144,-208.558,
00:00:16:633,0.745,0.12,0.295,-179.261,-59.449,-200.745,
00:00:16:650,0.636,0.466,0.059,-197.815,47.18,-160.218,
00:00:16:667,0.538,0.559,0.043,-141.419,79.101,-137.452,
00:00:16:683,0.504,0.738,0.032,182.434,114.563,-132.569,
00:00:16:700,0.641,0.556,0.306,694.213,144.653,-164.185,
00:00:16:717,0.849,0.129,0.555,736.389,151.611,-187.745,
00:00:16:733,1.076,-0.131,0.552,336.059,158.813,-203.003,
00:00:16:750,1.249,-0.264,0.526,5.554,158.691,-217.53,
00:00:16:767,1.247,-0.207,0.378,-231.751,160.705,-207.215,
00:00:16:783,1.126,0.147,0.2,-156.006,144.043,-197.998,
00:00:16:800,0.955,0.251,0.077,253.845,138.794,-208.13,
00:00:16:817,0.884,0.149,0.311,472.29,130.249,-203.797,
00:00:16:833,0.932,0.371,0.133,-102.539,-15.198,-233.643,
00:00:16:850,1.017,0.12,0.203,180.908,-14.771,-211.548,
00:00:16:867,0.868,-0.055,0.296,180.908,-6.043,-207.032,
00:00:16:883,0.865,0.033,0.333,47.912,3.784,-228.089,
00:00:16:900,0.935,0.248,0.374,55.603,2.014,-232.972,
00:00:16:917,0.936,0.184,0.438,141.662,28.991,-223.633,
00:00:16:933,0.853,0.174,0.436,199.035,49.438,-214.722,
00:00:16:950,0.831,0.088,0.47,294.86,71.716,-214.356,
00:00:16:967,0.933,-0.005,0.478,272.766,69.824,-174.805,
00:00:16:983,0.88,0.039,0.49,182.861,41.748,-133.484,
00:00:17:0,0.932,0.038,0.277,269.653,22.399,50.781,
00:00:17:17,0.995,0.193,0.34,175.964,15.625,146.728,
00:00:17:33,1.077,0.162,0.389,172.302,2.685,223.816,
00:00:17:50,0.918,-0.033,0.191,171.386,-28.931,302.734,
00:00:17:67,0.749,-0.277,0.106,182.373,-70.13,376.281,
00:00:17:83,0.952,-0.376,0.091,-21.973,-129.09,428.527,
00:00:17:100,0.962,-0.108,0.01,-208.008,-179.81,461.181,
00:00:17:117,1.014,-0.075,0.218,-96.375,-212.891,431.823,
00:00:17:133,1.107,-0.289,0.432,-141.846,-275.147,413.757,
00:00:17:150,0.958,-0.53,0.612,-305.97,-333.313,348.449,
00:00:17:167,1.051,-0.458,0.412,-621.949,-345.887,330.566,
00:00:17:183,0.914,-0.225,0.092,-713.379,-329.712,265.93,
00:00:17:200,0.804,0.363,0.383,-65.247,-220.704,87.646,
00:00:17:217,0.686,0.265,0.681,-32.044,-187.989,52.612,
00:00:17:233,1.166,0.196,0.784,-79.834,-173.645,56.945,
00:00:17:250,0.743,0.098,0.694,-88.379,-214.112,-7.019,
00:00:17:267,0.51,0.275,0.544,-196.9,-157.288,43.09,
00:00:17:283,0.707,0.408,0.456,-50.599,-125.916,60.058,
00:00:17:300,0.729,0.526,0.385,187.988,-89.844,126.22,
00:00:17:317,0.796,0.597,0.392,237.121,-46.082,187.072,
00:00:17:333,0.905,0.617,0.447,191.223,-41.382,239.38,
00:00:17:350,0.96,0.617,0.507,244.567,-60.303,276.55,
00:00:17:367,0.975,0.443,0.562,406.189,-118.531,283.203,
00:00:17:383,1.021,0.391,0.587,444.213,-174.439,308.532,
00:00:17:400,1.103,0.531,0.615,560.302,-219.3,371.643,
00:00:17:417,1.211,0.643,0.693,852.111,-269.898,489.868,
00:00:17:433,1.25,0.604,0.605,1187.011,-327.21,610.351,
00:00:17:450,1.22,0.562,0.614,1444.824,-389.893,715.332,
00:00:17:467,1.2,0.526,0.643,1622.192,-427.002,776.611,
00:00:17:483,1.2,0.228,0.692,1581.665,-480.225,813.781,
00:00:17:500,1.129,0.012,0.774,1131.958,-570.984,853.576,
00:00:17:517,1.001,0.07,0.838,604.858,-643.738,888.733,
00:00:17:533,0.843,0.114,0.81,204.101,-644.165,907.104,
00:00:17:550,0.722,0.056,0.75,-137.513,-607.605,877.197,
00:00:17:567,0.618,0.007,0.714,-468.262,-574.952,857.849,
00:00:17:583,0.514,0.088,0.664,-699.524,-550.049,826.477,
00:00:17:600,0.442,0.196,0.641,-784.424,-506.409,796.325,
00:00:17:617,0.405,0.296,0.64,-768.677,-472.535,794.189,
00:00:17:633,0.361,0.363,0.609,-711.243,-483.216,775.94,
00:00:17:650,0.273,0.431,0.6,-652.039,-530.945,750.854,
00:00:17:667,0.186,0.495,0.626,-506.104,-560.791,700.988,
00:00:17:683,0.119,0.499,0.639,-343.201,-562.623,647.705,
00:00:17:700,0.094,0.449,0.604,-259.827,-579.59,614.135,
00:00:17:717,0.052,0.443,0.59,-314.576,-626.587,575.378,
00:00:17:733,-0.014,0.52,0.594,-316.224,-640.198,534.362,
00:00:17:750,-0.031,0.55,0.572,-217.041,-633.667,481.75,
00:00:17:767,-0.033,0.515,0.551,-122.559,-639.588,453.552,
00:00:17:783,-0.042,0.513,0.524,-113.953,-659.79,443.42,
00:00:17:800,-0.053,0.532,0.514,-146.485,-685.73,414.306,
00:00:17:817,-0.105,0.553,0.477,-64.942,-693.055,364.502,
00:00:17:833,-0.131,0.511,0.462,-33.081,-692.566,332.702,
00:00:17:850,-0.167,0.438,0.452,-71.961,-678.589,284.301,
00:00:17:867,-0.21,0.443,0.458,-144.349,-631.47,249.633,
00:00:17:883,-0.235,0.479,0.455,-177.674,-564.515,202.087,
00:00:17:900,-0.227,0.557,0.463,-161.988,-492.005,154.297,
00:00:17:917,-0.208,0.642,0.477,-131.104,-425.477,109.069,
00:00:17:933,-0.161,0.668,0.516,-125.672,-365.845,79.467,
00:00:17:950,-0.138,0.661,0.557,-130.005,-337.647,36.621,
00:00:17:967,-0.129,0.621,0.595,-156.983,-300.66,17.211,
00:00:17:983,-0.123,0.59,0.615,-233.46,-260.437,13,
00:00:18:0,-0.129,0.587,0.625,-312.378,-214.539,8.972,
00:00:18:17,-0.141,0.655,0.628,-350.892,-146.79,10.803,
00:00:18:33,-0.117,0.711,0.625,-300.782,-85.999,11.474,
00:00:18:50,-0.078,0.716,0.615,-232.789,-20.935,21.301,
00:00:18:67,-0.062,0.691,0.59,-194.519,7.08,27.526,
00:00:18:83,-0.079,0.685,0.611,-168.03,15.319,10.253,
00:00:18:100,-0.081,0.709,0.625,-171.326,52.612,4.272,
00:00:18:117,-0.057,0.776,0.609,-215.21,101.135,24.108,
00:00:18:133,-0.028,0.864,0.607,-244.69,106.445,24.719,
00:00:18:150,-0.031,0.862,0.618,-204.224,113.22,7.995,
00:00:18:167,-0.039,0.816,0.633,-198.548,117.492,18.615,
00:00:18:183,-0.06,0.804,0.667,-235.901,108.337,32.409,
00:00:18:200,-0.1,0.833,0.684,-293.091,111.877,58.349,
00:00:18:217,-0.133,0.89,0.653,-334.839,123.84,69.336,
00:00:18:233,-0.135,0.9,0.625,-253.479,117.187,40.954,
00:00:18:250,-0.146,0.78,0.627,-135.437,111.45,13.122,
00:00:18:267,-0.166,0.685,0.63,-160.279,106.323,22.583,
00:00:18:283,-0.169,0.703,0.619,-277.71,103.027,33.203,
00:00:18:300,-0.161,0.75,0.603,-355.53,106.445,35.4,
00:00:18:317,-0.16,0.809,0.595,-354.859,96.313,15.93,
00:00:18:333,-0.172,0.819,0.578,-303.711,92.529,-2.991,
00:00:18:350,-0.178,0.801,0.542,-255.066,115.295,-19.898,
00:00:18:367,-0.115,0.756,0.5,-306.946,130.188,-10.682,
00:00:18:383,-0.078,0.793,0.496,-404.053,112.243,-10.498,
00:00:18:400,-0.09,0.854,0.503,-365.784,85.876,-24.964,
00:00:18:417,-0.092,0.865,0.511,-292.725,78.491,-38.88,
00:00:18:433,-0.086,0.811,0.482,-260.315,81.909,-40.711,
00:00:18:450,-0.074,0.76,0.43,-317.688,79.65,-53.772,
00:00:18:467,-0.06,0.967,0.357,-530.091,106.018,-35.401,
00:00:18:483,-0.073,0.93,0.352,-434.082,99.365,-46.021,
00:00:18:500,-0.094,0.921,0.35,-385.926,98.083,-36.316,
00:00:18:517,-0.073,0.945,0.353,-390.564,100.28,-18.799,
00:00:18:533,-0.059,0.974,0.304,-397.889,98.022,-9.156,
00:00:18:550,-0.079,1.001,0.223,-364.502,96.801,-7.813,
00:00:18:567,-0.097,0.983,0.234,-281.311,71.96,-26.612,
00:00:18:583,-0.109,0.916,0.303,-209.168,46.386,-51.026,
00:00:18:600,-0.107,0.883,0.343,-219.483,24.414,-35.828,
00:00:18:617,-0.082,0.954,0.364,-274.598,9.216,0.671,
00:00:18:633,-0.083,1.044,0.323,-259.461,-2.137,15.258,
00:00:18:650,-0.127,0.955,0.224,-224.976,10.864,10.437,
00:00:18:667,-0.113,1.018,0.228,-195.435,14.404,11.718,
00:00:18:683,-0.102,1.018,0.237,-130.127,6.347,15.014,
00:00:18:700,-0.117,0.988,0.24,-87.098,4.516,9.643,
00:00:18:717,-0.14,0.972,0.222,-81.971,3.662,12.39,
00:00:18:733,-0.149,0.941,0.186,-8.484,10.681,-9.461,
00:00:18:750,-0.137,0.944,0.185,8.789,27.343,8.544,
00:00:18:767,-0.12,0.965,0.163,18.859,35.644,15.869,
00:00:18:783,-0.103,0.974,0.167,67.138,34.057,7.507,
00:00:18:800,-0.113,0.919,0.197,69.213,7.385,-27.039,
00:00:18:817,-0.155,0.946,0.246,0.61,-12.94,-22.706,
00:00:18:833,-0.112,1.023,0.273,-4.761,-19.104,-12.269,
00:00:18:850,-0.116,1.047,0.263,47.485,-25.391,-9.034,
00:00:18:867,-0.119,0.99,0.225,78.43,-33.814,-5.799,
00:00:18:883,-0.138,0.91,0.197,49.072,-56.946,-9.156,
00:00:18:900,-0.172,0.907,0.164,-36.499,-45.838,8.361,
00:00:18:917,-0.172,0.942,0.144,-67.688,-22.156,17.211,
00:00:18:933,-0.155,0.968,0.15,-100.098,8.544,-6.836,
00:00:18:950,-0.128,0.971,0.174,-143.006,26.367,-19.654,
00:00:18:967,-0.112,1.007,0.161,-119.751,57.983,-17.64,
00:00:18:983,-0.118,0.952,0.112,-119.019,51.635,-46.265,
00:00:19:0,-0.128,0.911,0.273,-121.582,-2.137,-52.063,
00:00:19:17,-0.156,0.82,0.309,-232.85,11.108,-41.016,drinkRH
00:00:19:33,-0.194,0.712,0.138,-442.2,71.594,-64.515,
00:00:19:50,-0.173,0.856,-0.053,-558.228,110.168,-23.987,
00:00:19:67,-0.131,1.068,-0.076,-463.135,111.694,-18.494,
00:00:19:83,-0.127,0.981,0.015,-388.184,100.647,-82.764,
00:00:19:100,-0.155,0.866,0.103,-467.408,101.684,-89.417,
00:00:19:117,-0.121,1.011,0.101,-456.91,85.327,-45.166,
00:00:19:133,-0.106,1.052,0.02,-361.512,70.556,-23.194,
00:00:19:150,-0.113,1.025,-0.023,-320.496,62.744,-6.653,
00:00:19:167,-0.11,1.059,-0.044,-332.764,59.509,18.676,
00:00:19:183,-0.101,1.083,-0.007,-337.952,41.198,49.499,
00:00:19:200,-0.106,1.106,-0.009,-339.478,36.438,87.158,
00:00:19:217,-0.115,1.169,-0.033,-322.815,29.296,146.423,
00:00:19:233,-0.129,1.2,-0.024,-260.743,18.432,201.66,
00:00:19:250,-0.155,1.183,-0.071,-203.919,18.249,253.845,
00:00:19:267,-0.175,1.193,-0.102,-134.034,25.94,325.5,
00:00:19:283,-0.18,1.237,-0.082,-32.105,33.386,362.793,
00:00:19:300,-0.187,1.194,-0.073,83.557,41.565,405.456,
00:00:19:317,-0.219,1.122,-0.076,169.738,48.584,447.998,
00:00:19:333,-0.234,1.075,-0.065,190.307,69.274,478.393,
00:00:19:350,-0.233,1.071,-0.03,178.039,80.505,493.835,
00:00:19:367,-0.249,1.085,-0.006,234.802,84.961,516.174,
00:00:19:383,-0.269,1.059,-0.032,327.209,88.867,540.283,
00:00:19:400,-0.298,0.97,-0.068,341.98,100.341,561.523,
00:00:19:417,-0.332,0.916,-0.035,284.729,110.29,546.081,
00:00:19:433,-0.335,0.882,0.005,301.391,117.37,539.795,
00:00:19:450,-0.329,0.95,0.022,296.569,126.464,585.144,
00:00:19:467,-0.342,0.929,0.037,286.193,128.234,581.543,
00:00:19:483,-0.389,0.927,-0.029,212.585,138.794,576.599,
00:00:19:500,-0.422,0.833,0.025,259.887,151.428,545.349,
00:00:19:517,-0.42,0.778,0.032,245.727,156.067,568.237,
00:00:19:533,-0.417,0.869,0.059,146.362,164.062,587.524,
00:00:19:550,-0.46,0.859,0.002,116.577,172.607,565.307,
00:00:19:567,-0.492,0.854,0.035,115.417,169.067,563.049,
00:00:19:583,-0.506,0.815,0.124,144.958,163.696,554.443,
00:00:19:600,-0.498,0.705,0.116,164.123,168.09,568.603,
00:00:19:617,-0.534,0.733,0.072,77.514,171.447,585.205,
00:00:19:633,-0.584,0.766,0.107,72.876,165.1,548.584,
00:00:19:650,-0.61,0.697,0.077,101.989,162.658,527.954,
00:00:19:667,-0.628,0.66,0.083,101.562,149.902,494.567,
00:00:19:683,-0.627,0.635,0.183,137.878,121.948,463.134,
00:00:19:700,-0.603,0.524,0.165,172.851,107.971,438.354,
00:00:19:717,-0.638,0.549,0.178,59.326,91.674,439.514,
00:00:19:733,-0.697,0.608,0.159,-117.249,85.083,402.893,
00:00:19:750,-0.705,0.713,0.078,-97.352,99.609,367.431,
00:00:19:767,-0.659,0.569,0.085,27.343,116.821,340.454,
00:00:19:783,-0.656,0.476,0.147,48.278,120.178,337.951,
00:00:19:800,-0.702,0.47,0.178,13.855,121.948,313.659,
00:00:19:817,-0.722,0.485,0.191,-38.331,113.342,268.066,
00:00:19:833,-0.744,0.531,0.176,-60.364,95.336,241.638,
00:00:19:850,-0.74,0.541,0.175,-40.406,86.303,228.515,
00:00:19:867,-0.76,0.579,0.161,-18.799,70.251,218.505,
00:00:19:883,-0.761,0.551,0.161,56.762,63.476,214.721,
00:00:19:900,-0.775,0.528,0.191,94.36,55.847,206.421,
00:00:19:917,-0.771,0.519,0.221,85.632,47.973,200.805,
00:00:19:933,-0.778,0.525,0.211,61.706,40.222,190.246,
00:00:19:950,-0.791,0.552,0.184,70.861,35.278,185.974,
00:00:19:967,-0.789,0.546,0.199,131.836,28.503,172.119,
00:00:19:983,-0.794,0.51,0.225,128.479,22.583,171.325,
00:00:20:0,-0.798,0.502,0.223,93.75,14.831,154.297,
00:00:20:17,-0.806,0.488,0.211,83.618,7.019,147.949,
00:00:20:33,-0.812,0.515,0.225,81.543,5.676,148.254,
00:00:20:50,-0.82,0.501,0.223,77.758,1.953,132.812,
00:00:20:67,-0.824,0.51,0.213,82.275,-3.296,128.051,
00:00:20:83,-0.835,0.492,0.249,78.308,-6.836,119.201,
00:00:20:100,-0.833,0.487,0.216,54.809,-8.362,112.793,
00:00:20:117,-0.835,0.495,0.199,41.015,-10.01,101.074,
00:00:20:133,-0.846,0.504,0.203,56.701,-8.179,89.111,
00:00:20:150,-0.834,0.481,0.224,53.649,-6.653,93.627,
00:00:20:167,-0.845,0.498,0.233,37.78,-4.273,88.867,
00:00:20:183,-0.844,0.5,0.226,49.682,1.22,84.838,
00:00:20:200,-0.853,0.471,0.221,51.635,3.356,76.538,
00:00:20:217,-0.861,0.48,0.236,42.724,-1.526,73.669,
00:00:20:233,-0.855,0.472,0.247,38.696,-5.494,75.439,
00:00:20:250,-0.864,0.439,0.22,21.667,-4.151,75.012,
00:00:20:267,-0.856,0.483,0.206,15.625,-8.912,65.612,
00:00:20:283,-0.856,0.486,0.208,45.349,-10.193,64.086,
00:00:20:300,-0.857,0.477,0.218,57.678,-15.625,62.988,
00:00:20:317,-0.855,0.458,0.224,61.462,-20.142,62.255,
00:00:20:333,-0.852,0.446,0.217,57.373,-18.738,64.331,
00:00:20:350,-0.861,0.456,0.213,73.486,-18.738,56.579,
00:00:20:367,-0.862,0.457,0.225,89.66,-16.663,54.87,
00:00:20:383,-0.87,0.431,0.239,103.088,-14.1,43.029,
00:00:20:400,-0.878,0.46,0.223,75.317,-8.973,46.264,
00:00:20:417,-0.873,0.447,0.197,92.529,-2.625,49.804,
00:00:20:433,-0.884,0.478,0.214,141.174,-6.531,49.072,
00:00:20:450,-0.888,0.445,0.244,170.227,-3.54,46.325,
00:00:20:467,-0.884,0.434,0.247,139.709,-2.32,54.992,
00:00:20:483,-0.909,0.426,0.237,91.491,-1.221,39.55,
00:00:20:500,-0.891,0.438,0.247,79.04,1.831,49.316,
00:00:20:517,-0.906,0.447,0.247,91.064,6.103,47.241,
00:00:20:533,-0.9,0.437,0.22,109.619,20.019,71.899,
00:00:20:550,-0.917,0.448,0.224,110.351,23.315,73.608,
00:00:20:567,-0.909,0.46,0.243,96.496,17.639,84.716,
00:00:20:583,-0.913,0.403,0.261,88.134,11.108,90.515,
00:00:20:600,-0.915,0.396,0.258,102.478,9.948,101.074,
00:00:20:617,-0.911,0.398,0.233,121.704,14.404,105.346,
00:00:20:633,-0.909,0.392,0.229,136.23,20.629,94.543,
00:00:20:650,-0.907,0.382,0.242,147.033,23.437,92.651,
00:00:20:667,-0.905,0.356,0.255,157.531,26.245,93.505,
00:00:20:683,-0.911,0.343,0.274,134.582,19.165,87.646,
00:00:20:700,-0.913,0.361,0.266,120.971,15.319,84.594,
00:00:20:717,-0.914,0.37,0.252,124.878,18.554,85.022,
00:00:20:733,-0.924,0.353,0.244,121.46,18.615,82.946,
00:00:20:750,-0.938,0.334,0.256,112.609,19.226,86.669,
00:00:20:767,-0.914,0.342,0.27,104.126,0.305,87.28,
00:00:20:783,-0.924,0.361,0.275,112.609,11.901,91.552,
00:00:20:800,-0.924,0.348,0.271,122.558,14.648,107.238,
00:00:20:817,-0.935,0.316,0.258,123.047,19.348,101.379,
00:00:20:833,-0.938,0.3,0.268,118.53,27.099,103.454,
00:00:20:850,-0.932,0.287,0.27,102.234,27.71,104.309,
00:00:20:867,-0.948,0.31,0.28,106.933,28.503,105.529,
00:00:20:883,-0.945,0.294,0.265,127.38,36.743,101.989,
00:00:20:900,-0.954,0.302,0.273,119.812,35.034,100.219,
00:00:20:917,-0.948,0.281,0.279,119.018,43.273,97.412,
00:00:20:933,-0.94,0.28,0.287,123.108,46.203,102.05,
00:00:20:950,-0.931,0.294,0.298,106.323,45.715,109.375,
00:00:20:967,-0.937,0.297,0.304,106.14,39.062,109.436,
00:00:20:983,-0.935,0.28,0.306,125.915,37.292,109.069,
00:00:21:0,-0.93,0.271,0.294,116.943,34.851,113.647,
00:00:21:17,-0.931,0.258,0.271,111.877,37.048,107.177,
00:00:21:33,-0.933,0.263,0.269,87.89,39.184,106.628,
00:00:21:50,-0.923,0.277,0.296,72.937,40.893,97.656,
00:00:21:67,-0.909,0.265,0.307,81.298,42.114,95.947,
00:00:21:83,-0.92,0.26,0.304,81.909,37.902,97.656,
00:00:21:100,-0.914,0.25,0.302,85.632,39.245,96.313,
00:00:21:117,-0.923,0.254,0.319,84.411,39.306,93.261,
00:00:21:133,-0.907,0.241,0.323,89.66,40.222,90.515,
00:00:21:150,-0.909,0.242,0.313,97.229,35.827,86.853,
00:00:21:167,-0.919,0.238,0.316,93.994,31.982,80.627,
00:00:21:183,-0.917,0.229,0.326,91.186,29.48,81.481,
00:00:21:200,-0.917,0.221,0.325,87.463,26.977,79.162,
00:00:21:217,-0.922,0.214,0.328,95.031,26.245,74.462,
00:00:21:233,-0.923,0.216,0.33,82.458,26.306,75.622,
00:00:21:250,-0.927,0.212,0.332,69.152,28.259,64.27,
00:00:21:267,-0.927,0.19,0.342,73.547,25.024,56.274,
00:00:21:283,-0.939,0.191,0.345,73.181,20.935,55.542,
00:00:21:300,-0.952,0.192,0.347,79.589,22.705,56.274,
00:00:21:317,-0.952,0.194,0.342,88.806,28.137,52.917,
00:00:21:333,-0.954,0.157,0.348,99.182,31.677,59.753,
00:00:21:350,-0.957,0.155,0.338,97.778,35.339,60.852,
00:00:21:367,-0.952,0.146,0.343,94.36,38.147,62.866,
00:00:21:383,-0.955,0.154,0.342,105.102,37.475,69.519,
00:00:21:400,-0.952,0.141,0.358,92.59,40.771,69.397,
00:00:21:417,-0.947,0.131,0.362,107.177,39.001,72.204,
00:00:21:433,-0.949,0.117,0.35,109.008,40.893,76.416,
00:00:21:450,-0.948,0.115,0.348,92.407,37.414,79.345,
00:00:21:467,-0.942,0.127,0.343,75.561,41.503,80.444,
00:00:21:483,-0.943,0.138,0.342,63.72,41.32,75.927,
00:00:21:500,-0.945,0.118,0.348,65.002,43.335,71.655,
00:00:21:517,-0.942,0.099,0.347,71.594,45.471,74.768,
00:00:21:533,-0.936,0.114,0.371,58.715,46.508,71.472,
00:00:21:550,-0.928,0.102,0.366,61.462,45.959,69.03,
00:00:21:567,-0.935,0.091,0.361,55.603,46.752,63.476,
00:00:21:583,-0.93,0.086,0.372,55.542,47.119,56.457,
00:00:21:600,-0.932,0.082,0.365,52.002,46.569,53.649,
00:00:21:617,-0.942,0.083,0.367,57.678,44.128,51.391,
00:00:21:633,-0.94,0.089,0.367,52.002,40.283,48.706,
00:00:21:650,-0.936,0.078,0.367,77.27,33.813,39.062,
00:00:21:667,-0.941,0.058,0.377,69.152,30.822,38.635,
00:00:21:683,-0.938,0.054,0.392,43.64,28.564,39.733,
00:00:21:700,-0.927,0.071,0.383,27.038,26.367,35.461,
00:00:21:717,-0.93,0.063,0.373,29.235,23.376,31.921,
00:00:21:733,-0.937,0.058,0.362,30.029,22.461,34.24,
00:00:21:750,-0.934,0.065,0.38,34.79,26.794,35.156,
00:00:21:767,-0.938,0.068,0.384,45.776,26.306,36.193,
00:00:21:783,-0.938,0.036,0.385,45.288,21.423,29.113,
00:00:21:800,-0.938,0.034,0.376,26.062,19.897,24.78,
00:00:21:817,-0.937,0.04,0.381,23.498,22.888,20.935,
00:00:21:833,-0.931,0.034,0.384,31.616,24.658,15.686,
00:00:21:850,-0.935,0.029,0.381,30.273,24.414,13.916,
00:00:21:867,-0.939,0.042,0.388,29.235,21.301,15.136,
00:00:21:883,-0.946,0.05,0.392,28.137,16.784,14.099,
00:00:21:900,-0.943,0.051,0.386,33.386,13.732,14.404,
00:00:21:917,-0.939,0.027,0.387,37.475,12.451,15.502,
00:00:21:933,-0.943,0.035,0.392,27.221,12.39,17.273,
00:00:21:950,-0.946,0.032,0.388,31.005,14.77,18.188,
00:00:21:967,-0.95,0.035,0.379,31.982,12.207,16.113,
00:00:21:983,-0.952,0.026,0.391,27.771,12.39,9.155,
00:00:22:0,-0.942,0.019,0.385,31.127,16.784,11.23,
00:00:22:17,-0.948,0.024,0.4,33.142,20.141,10.559,
00:00:22:33,-0.951,0.013,0.404,41.198,23.498,8.85,
00:00:22:50,-0.953,0.002,0.401,35.217,22.461,10.559,
00:00:22:67,-0.949,0.01,0.398,19.226,22.155,10.559,
00:00:22:83,-0.945,0.019,0.384,9.155,22.827,7.263,
00:00:22:100,-0.947,0.037,0.378,17.578,20.019,11.657,
00:00:22:117,-0.942,0,0.385,40.954,19.714,17.7,
00:00:22:133,-0.939,0.018,0.401,50.17,15.93,22.827,
00:00:22:150,-0.935,-0.006,0.401,42.663,12.39,20.08,
00:00:22:167,-0.933,0,0.392,31.616,11.535,23.803,
00:00:22:183,-0.941,-0.004,0.39,22.522,11.901,17.456,
00:00:22:200,-0.937,0.003,0.395,18.127,11.596,22.583,
00:00:22:217,-0.938,0.013,0.384,28.198,9.704,24.414,
00:00:22:233,-0.944,-0.002,0.391,40.832,6.53,18.31,
00:00:22:250,-0.94,-0.015,0.392,26.794,9.948,15.991,
00:00:22:267,-0.939,-0.014,0.395,18.859,10.437,10.803,
00:00:22:283,-0.94,-0.008,0.399,16.235,9.277,8.85,
00:00:22:300,-0.939,0,0.397,17.028,8.3,11.169,
00:00:22:317,-0.944,-0.002,0.392,22.461,6.347,12.634,
00:00:22:333,-0.941,-0.009,0.386,22.888,8.117,11.23,
00:00:22:350,-0.935,-0.006,0.397,19.836,5.31,7.324,
00:00:22:367,-0.937,-0.004,0.397,27.038,4.394,7.995,
00:00:22:383,-0.95,-0.004,0.402,27.771,2.868,12.573,
00:00:22:400,-0.953,-0.014,0.393,23.437,7.934,8.789,
00:00:22:417,-0.947,-0.012,0.399,20.629,9.216,8.361,
00:00:22:433,-0.942,-0.013,0.394,20.629,10.437,12.085,
00:00:22:450,-0.94,-0.021,0.39,26.123,10.681,10.376,
00:00:22:467,-0.944,-0.028,0.392,22.461,12.573,7.324,
00:00:22:483,-0.932,-0.024,0.39,12.085,16.052,4.516,
00:00:22:500,-0.934,-0.023,0.395,8.056,17.883,0.488,
00:00:22:517,-0.933,-0.026,0.39,2.563,19.165,-8.118,
00:00:22:533,-0.94,-0.018,0.396,-1.16,12.146,-2.198,
00:00:22:550,-0.945,-0.023,0.399,1.403,7.995,-3.235,
00:00:22:567,-0.942,-0.033,0.395,-17.518,3.173,-9.034,
00:00:22:583,-0.946,-0.023,0.393,-19.837,2.502,-5.799,
00:00:22:600,-0.945,-0.029,0.391,-12.452,1.037,-3.968,
00:00:22:617,-0.947,-0.024,0.39,-9.949,5.493,-3.296,
00:00:22:633,-0.944,-0.014,0.385,-5.616,9.155,-1.648,
00:00:22:650,-0.944,-0.022,0.39,3.479,11.413,-2.503,
00:00:22:667,-0.942,-0.025,0.395,6.164,15.38,-1.221,
00:00:22:683,-0.938,-0.03,0.395,4.455,14.221,-0.916,
00:00:22:700,-0.942,-0.013,0.401,2.868,12.146,5.31,
00:00:22:717,-0.936,-0.023,0.398,9.155,13.855,6.164,
00:00:22:733,-0.937,-0.035,0.393,3.418,14.16,6.591,
00:00:22:750,-0.942,-0.028,0.396,-5.738,13.732,5.737,
00:00:22:767,-0.945,-0.017,0.393,-1.709,9.704,6.103,
00:00:22:783,-0.941,-0.028,0.396,11.169,6.652,0.976,
00:00:22:800,-0.949,-0.037,0.394,11.962,4.76,-1.16,
00:00:22:817,-0.95,-0.028,0.397,11.657,4.882,1.403,
00:00:22:833,-0.941,-0.03,0.395,20.629,5.676,-3.602,
00:00:22:850,-0.949,-0.03,0.394,23.193,10.803,-2.198,
00:00:22:867,-0.946,-0.036,0.4,27.343,12.39,-4.578,
00:00:22:883,-0.943,-0.047,0.393,26.794,15.747,-6.226,
00:00:22:900,-0.947,-0.04,0.387,17.944,16.967,-7.752,
00:00:22:917,-0.945,-0.045,0.387,12.573,20.996,-12.879,
00:00:22:933,-0.939,-0.044,0.389,12.451,20.568,-16.724,
00:00:22:950,-0.932,-0.041,0.393,16.052,21.057,-20.935,
00:00:22:967,-0.932,-0.053,0.396,9.948,21.606,-30.518,
00:00:22:983,-0.929,-0.06,0.396,2.746,22.583,-36.194,
00:00:23:0,-0.924,-0.044,0.392,-2.015,17.028,-32.593,
00:00:23:17,-0.921,-0.044,0.381,3.356,18.127,-36.56,
00:00:23:33,-0.924,-0.054,0.389,0.061,16.479,-44.007,
00:00:23:50,-0.918,-0.05,0.384,-9.827,15.747,-50.965,
00:00:23:67,-0.908,-0.052,0.375,-10.865,16.052,-61.585,
00:00:23:83,-0.912,-0.051,0.376,-21.607,15.441,-69.642,
00:00:23:100,-0.913,-0.065,0.384,-44.373,16.723,-90.332,
00:00:23:117,-0.919,-0.044,0.363,-69.275,14.648,-101.441,
00:00:23:133,-0.909,-0.023,0.392,-67.2,13.122,-91.187,
00:00:23:150,-0.907,-0.042,0.398,-58.289,9.826,-110.169,
00:00:23:167,-0.918,-0.037,0.384,-72.022,7.446,-110.474,
00:00:23:183,-0.909,-0.028,0.379,-88.746,11.596,-127.259,
00:00:23:200,-0.903,-0.003,0.372,-102.478,11.596,-138.306,
00:00:23:217,-0.9,0.028,0.37,-101.319,6.652,-132.142,
00:00:23:233,-0.897,0.005,0.37,-76.233,-15.625,-125.916,
00:00:23:250,-0.898,-0.013,0.374,-93.689,-6.47,-131.592,
00:00:23:267,-0.896,-0.004,0.382,-119.141,-8.545,-147.461,
00:00:23:283,-0.894,0.017,0.382,-134.827,-9.522,-158.02,
00:00:23:300,-0.89,0.028,0.357,-144.654,-8.057,-173.035,
00:00:23:317,-0.894,0.058,0.333,-152.955,-5.372,-190.491,
00:00:23:333,-0.896,0.052,0.369,-177.185,-9.156,-195.679,
00:00:23:350,-0.9,0.048,0.388,-187.684,-7.081,-208.191,
00:00:23:367,-0.907,0.079,0.403,-186.89,-9.705,-208.191,
00:00:23:383,-0.909,0.088,0.402,-180.237,-14.466,-210.45,
00:00:23:400,-0.913,0.075,0.399,-200.562,-15.748,-217.102,
00:00:23:417,-0.927,0.1,0.383,-241.028,-15.748,-224.793,
00:00:23:433,-0.936,0.139,0.371,-243.47,-17.273,-223.389,
00:00:23:450,-0.913,0.169,0.384,-219.483,-21.546,-229.248,
00:00:23:467,-0.908,0.176,0.376,-191.224,-28.504,-234.742,
00:00:23:483,-0.923,0.186,0.362,-189.026,-32.837,-232.911,
00:00:23:500,-0.928,0.181,0.367,-230.835,-42.237,-242.005,
00:00:23:517,-0.938,0.16,0.37,-271.302,-49.927,-255.372,
00:00:23:533,-0.947,0.157,0.359,-299.744,-50.049,-257.691,
00:00:23:550,-0.941,0.205,0.354,-312.256,-58.594,-243.287,
00:00:23:567,-0.943,0.248,0.339,-282.593,-66.712,-210.572,
00:00:23:583,-0.945,0.231,0.35,-240.357,-71.106,-214.051,
00:00:23:600,-0.939,0.218,0.356,-258.606,-68.238,-211.67,
00:00:23:617,-0.933,0.244,0.354,-280.701,-69.336,-209.29,
00:00:23:633,-0.94,0.266,0.339,-256.775,-71.9,-209.473,
00:00:23:650,-0.941,0.273,0.326,-229.248,-71.839,-210.206,
00:00:23:667,-0.947,0.303,0.333,-225.403,-62.561,-215.394,
00:00:23:683,-0.946,0.317,0.329,-223.267,-55.97,-210.389,
00:00:23:700,-0.938,0.327,0.311,-228.15,-50.477,-208.985,
00:00:23:717,-0.933,0.32,0.288,-226.441,-47.242,-211.548,
00:00:23:733,-0.942,0.338,0.277,-219.422,-39.978,-205.018,
00:00:23:750,-0.938,0.357,0.283,-207.581,-23.865,-204.651,
00:00:23:767,-0.926,0.369,0.282,-185.425,-12.207,-202.881,
00:00:23:783,-0.926,0.365,0.288,-167.359,-3.785,-197.144,
00:00:23:800,-0.924,0.352,0.279,-171.631,-1.16,-192.627,
00:00:23:817,-0.912,0.332,0.269,-189.148,4.699,-198.426,
00:00:23:833,-0.909,0.348,0.261,-206.849,13.916,-202.576,
00:00:23:850,-0.906,0.355,0.262,-191.773,27.038,-214.478,
00:00:23:867,-0.918,0.348,0.275,-193.421,43.09,-222.718,
00:00:23:883,-0.918,0.361,0.271,-212.708,57.434,-227.906,
00:00:23:900,-0.906,0.389,0.272,-228.699,57.373,-236.695,
00:00:23:917,-0.906,0.407,0.241,-225.098,54.504,-237.61,
00:00:23:933,-0.883,0.421,0.213,-209.046,53.649,-234.681,
00:00:23:950,-0.858,0.423,0.224,-204.407,51.757,-237.671,
00:00:23:967,-0.84,0.451,0.232,-208.619,46.569,-232.361,
00:00:23:983,-0.834,0.466,0.231,-205.933,40.649,-235.474,
00:00:24:0,-0.832,0.493,0.203,-184.937,20.874,-225.525,
00:00:24:17,-0.818,0.486,0.204,-172.181,14.221,-225.464,
00:00:24:33,-0.8,0.493,0.21,-186.646,8.911,-225.831,
00:00:24:50,-0.806,0.512,0.195,-197.571,-0.794,-234.131,
00:00:24:67,-0.824,0.53,0.177,-197.022,-6.47,-231.324,
00:00:24:83,-0.825,0.529,0.17,-200.684,-7.325,-226.685,
00:00:24:100,-0.794,0.524,0.163,-222.901,-7.874,-232.972,
00:00:24:117,-0.774,0.534,0.17,-225.037,-6.958,-238.343,
00:00:24:133,-0.764,0.557,0.173,-212.647,-11.048,-243.348,
00:00:24:150,-0.784,0.566,0.16,-206.116,-14.222,-250.306,
00:00:24:167,-0.804,0.572,0.147,-206.788,-18.067,-255.433,
00:00:24:183,-0.786,0.589,0.141,-203.064,-17.151,-255.799,
00:00:24:200,-0.719,0.556,0.139,-189.331,-26.673,-280.823,
00:00:24:217,-0.725,0.563,0.156,-210.816,-34.913,-307.923,
00:00:24:233,-0.759,0.592,0.153,-229.798,-52.185,-324.524,
00:00:24:250,-0.754,0.619,0.129,-234.742,-61.158,-324.402,
00:00:24:267,-0.72,0.62,0.109,-229.554,-74.524,-342.774,
00:00:24:283,-0.705,0.621,0.126,-234.375,-84.656,-355.652,
00:00:24:300,-0.715,0.63,0.136,-231.934,-102.478,-359.925,
00:00:24:317,-0.759,0.67,0.136,-206.299,-126.282,-340.821,
00:00:24:333,-0.798,0.707,0.11,-177.491,-145.935,-321.961,
00:00:24:350,-0.812,0.733,0.08,-181.397,-157.349,-298.462,
00:00:24:367,-0.801,0.756,0.084,-139.71,-161.622,-291.077,
00:00:24:383,-0.778,0.767,0.085,-79.712,-160.218,-263.062,
00:00:24:400,-0.766,0.737,0.089,-31.311,-155.213,-242.127,
00:00:24:417,-0.756,0.737,0.1,-26.978,-149.537,-221.863,
00:00:24:433,-0.752,0.753,0.084,-35.462,-148.987,-208.802,
00:00:24:450,-0.751,0.778,0.07,-45.105,-143.433,-207.337,
00:00:24:467,-0.736,0.808,0.069,-43.457,-135.865,-201.172,
00:00:24:483,-0.723,0.818,0.031,-26.185,-125.611,-187.5,
00:00:24:500,-0.707,0.819,0.045,-11.475,-112.427,-171.57,
00:00:24:517,-0.702,0.822,0.054,13.488,-102.967,-155.579,
00:00:24:533,-0.708,0.821,0.057,42.419,-95.643,-137.757,
00:00:24:550,-0.696,0.803,0.055,68.542,-89.844,-122.62,
00:00:24:567,-0.688,0.777,0.046,87.89,-88.868,-116.028,
00:00:24:583,-0.688,0.759,0.041,91.003,-89.356,-112.61,
00:00:24:600,-0.62,0.695,0.04,50.842,-90.088,-143.006,
00:00:24:617,-0.607,0.713,0.047,40.344,-96.375,-152.527,
00:00:24:633,-0.598,0.716,0.036,50.109,-106.934,-163.025,
00:00:24:650,-0.583,0.691,0.02,68.847,-121.705,-189.759,
00:00:24:667,-0.565,0.677,0.003,80.871,-134.278,-219.727,
00:00:24:683,-0.558,0.714,-0.043,75.866,-146.119,-246.827,
00:00:24:700,-0.542,0.745,-0.017,49.865,-151.734,-287.72,
00:00:24:717,-0.514,0.717,-0.002,36.193,-146.546,-324.646,
00:00:24:733,-0.504,0.728,-0.034,1.953,-139.771,-333.13,
00:00:24:750,-0.484,0.737,-0.054,-9.4,-135.56,-339.417,
00:00:24:767,-0.469,0.741,-0.043,25.817,-135.743,-360.596,
00:00:24:783,-0.454,0.786,-0.052,10.131,-135.132,-366.578,
00:00:24:800,-0.45,0.845,-0.05,-33.204,-135.315,-390.503,
00:00:24:817,-0.449,0.82,-0.052,13.366,-136.841,-400.086,
00:00:24:833,-0.438,0.826,-0.066,-6.592,-135.498,-394.654,
00:00:24:850,-0.423,0.833,-0.065,-74.524,-128.663,-401.123,
00:00:24:867,-0.406,0.802,-0.079,-253.846,-125.184,-408.204,
00:00:24:883,-0.427,0.886,-0.15,-119.629,-131.531,-411.133,
00:00:24:900,-0.383,0.95,-0.139,24.841,-123.536,-384.888,
00:00:24:917,-0.383,0.868,-0.109,48.523,-119.324,-406.922,
00:00:24:933,-0.382,0.856,-0.095,-35.462,-107.422,-406.617,
00:00:24:950,-0.353,0.885,-0.058,-113.221,-105.957,-426.27,
00:00:24:967,-0.309,0.93,-0.036,-125.855,-108.521,-432.496,
00:00:24:983,-0.311,0.962,-0.09,-67.017,-102.295,-406.006,
00:00:25:0,-0.324,0.942,-0.134,-37.049,-86.365,-387.635,
00:00:25:17,-0.312,0.894,-0.113,-84.046,-76.661,-400.391,
00:00:25:33,-0.288,0.927,-0.082,-185.669,-72.998,-401.246,
00:00:25:50,-0.273,1.005,-0.098,-202.088,-76.294,-385.071,
00:00:25:67,-0.272,1.013,-0.122,-166.321,-74.28,-360.169,
00:00:25:83,-0.262,0.971,-0.142,-164.246,-69.642,-349.61,
00:00:25:100,-0.219,0.977,-0.166,-173.584,-63.965,-332.154,
00:00:25:117,-0.241,0.978,-0.141,-183.899,-66.529,-317.933,
00:00:25:133,-0.203,1.036,-0.162,-165.345,-61.585,-258.667,
00:00:25:150,-0.211,1.012,-0.167,-112.427,-57.679,-239.38,
00:00:25:167,-0.211,1.006,-0.18,-127.869,-49.683,-223.999,
00:00:25:183,-0.205,0.988,-0.176,-155.762,-49.195,-216.492,
00:00:25:200,-0.196,0.986,-0.181,-125.061,-47.913,-210.144,
00:00:25:217,-0.183,1.013,-0.183,-50.599,-35.584,-165.589,
00:00:25:233,-0.177,0.981,-0.192,-46.692,-28.87,-148.987,
00:00:25:250,-0.171,0.982,-0.194,-45.594,-27.344,-135.315,
00:00:25:267,-0.164,0.959,-0.201,-27.344,-22.522,-132.142,
00:00:25:283,-0.154,0.962,-0.197,-39.429,-23.865,-121.827,
00:00:25:300,-0.132,0.984,-0.195,-53.406,-26.001,-116.028,
00:00:25:317,-0.132,0.953,-0.204,-28.565,-26.185,-117.249,
00:00:25:333,-0.125,0.944,-0.22,-36.866,-16.48,-110.413,
00:00:25:350,-0.117,0.946,-0.236,-78.064,-7.874,-114.014,
00:00:25:367,-0.125,0.93,-0.219,-67.2,-9.705,-115.662,
00:00:25:383,-0.115,0.943,-0.203,-63.66,-12.635,-106.446,
00:00:25:400,-0.109,0.907,-0.223,-67.383,-24.17,-103.76,
00:00:25:417,-0.094,0.908,-0.207,-83.435,-25.574,-116.456,
00:00:25:433,-0.085,0.964,-0.228,-88.807,-21.363,-112.183,
00:00:25:450,-0.096,0.96,-0.248,-51.636,-19.837,-110.23,
00:00:25:467,-0.08,0.942,-0.243,-66.407,-17.212,-110.779,
00:00:25:483,-0.076,1.005,-0.218,-52.002,-24.842,-74.097,
00:00:25:500,-0.072,0.994,-0.231,4.333,-30.518,-68.421,
00:00:25:517,-0.086,0.947,-0.241,18.554,-31.922,-65.125,
00:00:25:533,-0.083,0.924,-0.246,0.183,-30.152,-70.984,
00:00:25:550,-0.081,0.901,-0.248,3.479,-25.147,-73.121,
00:00:25:567,-0.076,0.984,-0.243,-25.818,-16.724,-69.214,
00:00:25:583,-0.082,0.97,-0.245,-13.123,-13.428,-66.285,
00:00:25:600,-0.075,0.961,-0.256,-6.531,-11.902,-59.388,
00:00:25:617,-0.081,0.943,-0.256,0.671,-10.01,-57.74,
00:00:25:633,-0.068,0.949,-0.248,5.676,-6.897,-50.354,
00:00:25:650,-0.066,0.963,-0.249,8.178,-6.226,-48.157,
00:00:25:667,-0.063,1.03,-0.267,-18.494,-2.259,-15.748,
00:00:25:683,-0.094,0.961,-0.27,14.099,-0.672,-55.115,
00:00:25:700,-0.072,0.922,-0.247,18.981,1.586,-32.166,
00:00:25:717,-0.047,0.966,-0.234,-22.461,5.432,-24.353,
00:00:25:733,-0.06,0.978,-0.245,26.855,-1.343,-20.691,
00:00:25:750,-0.061,0.889,-0.235,35.156,-6.226,-30.396,
00:00:25:767,-0.046,0.901,-0.232,17.028,-9.583,-37.598,
00:00:25:783,-0.04,0.97,-0.233,31.25,-11.597,-38.697,
00:00:25:800,-0.027,1.017,-0.231,56.335,-16.175,-23.621,
00:00:25:817,-0.048,0.966,-0.221,102.6,-26.429,-26.795,
00:00:25:833,-0.069,0.878,-0.249,103.881,-29.847,-30.457,
00:00:25:850,-0.055,0.875,-0.227,61.523,-26.185,-30.091,
00:00:25:867,-0.039,0.936,-0.249,69.458,-25.94,-26.368,
00:00:25:883,-0.029,0.956,-0.255,103.149,-28.809,-23.621,
00:00:25:900,-0.031,0.96,-0.238,89.355,-22.461,-22.95,
00:00:25:917,-0.055,0.932,-0.201,95.398,-20.02,-29.847,
00:00:25:933,-0.073,0.941,-0.196,82.885,-11.536,-22.522,
00:00:25:950,-0.06,0.959,-0.23,160.034,-3.785,-10.56,
00:00:25:967,-0.054,0.954,-0.205,131.713,-1.404,-14.893,
00:00:25:983,-0.057,0.926,-0.176,108.947,-1.038,-24.414,
00:00:26:0,-0.051,0.975,-0.15,99.304,-11.231,-24.17,
00:00:26:17,-0.11,0.978,-0.171,135.864,-14.588,-21.546,
00:00:26:33,-0.036,0.972,-0.162,136.84,-14.588,-16.48,
00:00:26:50,-0.05,0.964,-0.164,149.047,-17.273,-9.949,
00:00:26:67,-0.072,0.951,-0.185,169.006,-9.583,-7.996,
00:00:26:83,-0.048,0.943,-0.178,169.128,0,-15.931,
00:00:26:100,-0.036,0.958,-0.146,161.865,4.089,-21.973,
00:00:26:117,-0.028,0.992,-0.155,187.378,8.483,-14.344,
00:00:26:133,-0.044,0.952,-0.172,195.617,8.422,-5.188,
00:00:26:150,-0.043,0.9,-0.107,159.546,-2.076,-28.931,
00:00:26:167,-0.046,0.925,-0.111,89.477,6.713,-28.26,
00:00:26:183,-0.044,0.996,-0.116,77.514,4.455,-25.269,
00:00:26:200,-0.04,0.99,-0.12,117.981,6.53,-31.983,
00:00:26:217,-0.052,0.96,-0.104,138.488,2.868,-29.969,
00:00:26:233,-0.074,0.964,-0.093,131.286,9.46,-26.429,
00:00:26:250,-0.078,0.984,-0.096,120.727,16.479,-16.358,
00:00:26:267,-0.07,0.981,-0.088,124.267,15.136,-19.715,
00:00:26:283,-0.059,0.977,-0.087,125.366,10.437,-16.602,
00:00:26:300,-0.059,0.963,-0.074,142.273,4.76,-16.907,
00:00:26:317,-0.054,0.93,-0.063,138.122,-0.428,-16.053,
00:00:26:333,-0.048,0.903,-0.061,94.787,-3.479,-22.95,
00:00:26:350,-0.054,0.912,-0.053,51.025,-6.043,-27.832,
00:00:26:367,-0.052,0.947,-0.057,34.729,-5.799,-36.072,
00:00:26:383,-0.04,0.965,-0.082,54.565,-5.433,-35.645,
00:00:26:400,-0.043,0.971,-0.065,107.422,-21.302,-31.678,
00:00:26:417,-0.036,0.981,-0.037,109.558,-26.185,-21.851,
00:00:26:433,-0.042,0.992,-0.06,123.169,-23.194,-14.71,
00:00:26:450,-0.043,1.022,-0.023,107.422,-17.884,-6.043,
00:00:26:467,-0.049,1.017,-0.012,142.151,-24.048,-6.165,
00:00:26:483,-0.062,0.995,0.004,164.306,-36.011,0.976,
00:00:26:500,-0.048,0.965,0.024,175.537,-31.922,-17.334,
00:00:26:517,-0.04,0.927,-0.01,158.752,-19.715,-18.738,
00:00:26:533,-0.04,0.952,-0.026,90.698,-10.071,-2.808,
00:00:26:550,-0.013,1.007,-0.002,103.759,-19.837,-18.189,
00:00:26:567,-0.024,1.002,0.027,150.329,-24.598,-9.278,
00:00:26:583,-0.045,0.955,0.063,131.286,-31.373,-8.912,
00:00:26:600,-0.046,0.97,0.057,101.562,-31.983,-2.747,
00:00:26:617,-0.048,1.017,0.019,110.595,-32.593,2.441,
00:00:26:633,-0.049,1.016,-0.007,156.311,-41.81,8.972,
00:00:26:650,-0.071,0.972,0.029,189.27,-59.51,11.657,
00:00:26:667,-0.073,0.945,0.052,127.563,-56.641,25.024,
00:00:26:683,-0.053,0.968,0.072,60.058,-59.51,25.756,
00:00:26:700,-0.059,1.011,0.062,75.195,-57.984,31.372,
00:00:26:717,-0.06,1.029,0.017,156.067,-49.927,42.846,
00:00:26:733,-0.052,0.977,0.02,253.173,-57.19,21.118,
00:00:26:750,-0.053,0.898,0.037,255.31,-50.599,22.949,
00:00:26:767,-0.054,0.902,0.062,186.767,-46.143,29.663,
00:00:26:783,-0.047,0.958,0.087,132.324,-44.8,31.189,
00:00:26:800,-0.057,0.975,0.093,151.855,-48.279,24.231,
00:00:26:817,-0.068,0.971,0.077,173.523,-41.26,18.737,
00:00:26:833,-0.063,0.953,0.05,187.805,-32.044,8.117,
00:00:26:850,-0.057,0.931,0.105,217.346,-42.664,-7.63,
00:00:26:867,-0.045,0.957,0.126,240.661,-45.35,-13.55,
00:00:26:883,-0.041,0.955,0.124,282.165,-51.819,-18.677,
00:00:26:900,-0.051,0.926,0.109,320.617,-54.932,-28.199,
00:00:26:917,-0.057,0.872,0.122,339.355,-64.881,-57.496,
00:00:26:933,-0.065,0.868,0.137,310.608,-65.857,-51.026,
00:00:26:950,-0.059,0.924,0.158,287.902,-65.674,-53.467,
00:00:26:967,-0.055,0.946,0.169,311.767,-66.163,-64.331,
00:00:26:983,-0.063,0.955,0.166,311.889,-61.402,-66.895,
00:00:27:0,-0.071,0.906,0.179,296.692,-64.209,-98.206,
00:00:27:17,-0.07,0.894,0.194,260.131,-57.435,-84.595,
00:00:27:33,-0.063,0.923,0.194,234.619,-48.584,-69.031,
00:00:27:50,-0.072,0.98,0.199,232.544,-45.533,-55.42,
00:00:27:67,-0.084,0.993,0.223,299.682,-49.134,-63.111,
00:00:27:83,-0.092,0.96,0.256,349.487,-47.913,-65.491,
00:00:27:100,-0.099,0.92,0.278,329.956,-37.659,-70.496,
00:00:27:117,-0.096,0.894,0.259,275.879,-16.541,-70.008,
00:00:27:133,-0.094,0.896,0.27,250.305,-23.682,-78.675,
00:00:27:150,-0.094,0.9,0.311,280.334,-31.434,-78.858,
00:00:27:167,-0.094,0.938,0.323,294.86,-26.246,-70.13,
00:00:27:183,-0.092,0.937,0.353,306.884,-25.879,-79.346,
00:00:27:200,-0.106,0.896,0.383,283.325,-21.363,-91.492,
00:00:27:217,-0.119,0.901,0.418,210.51,-11.048,-107.483,
00:00:27:233,-0.111,0.869,0.447,141.113,-7.203,-138.855,
00:00:27:250,-0.107,0.846,0.462,65.002,7.995,-145.325,
00:00:27:267,-0.069,0.898,0.358,-19.532,27.648,-157.654,
00:00:27:283,-0.042,0.915,0.357,73.974,10.803,-136.475,
00:00:27:300,-0.022,0.918,0.366,137.024,-5.982,-122.071,
00:00:27:317,-0.025,0.874,0.384,145.996,-17.701,-114.319,
00:00:27:333,-0.029,0.889,0.393,97.106,-18.494,-89.905,
00:00:27:350,-0.019,0.932,0.385,91.003,-10.315,-68.909,
00:00:27:367,-0.017,0.926,0.38,136.413,-8.362,-56.092,
00:00:27:383,-0.023,0.888,0.384,160.339,-5.372,-43.396,
00:00:27:400,-0.021,0.884,0.379,138.977,0.488,-35.706,
00:00:27:417,-0.015,0.894,0.38,150.817,7.751,-29.114,
00:00:27:433,-0.032,0.879,0.392,185.119,16.113,-26.368,
00:00:27:450,-0.026,0.816,0.449,147.094,45.532,-34.302,
00:00:27:467,-0.026,0.816,0.458,101.318,54.321,-37.476,
00:00:27:483,-0.023,0.818,0.454,40.344,66.894,-31.373,
00:00:27:500,-0.016,0.817,0.45,-18.86,78.43,-34.546,
00:00:27:517,-0.016,0.815,0.429,-69.031,87.28,-36.255,
00:00:27:533,-0.017,0.859,0.455,35.644,68.237,-43.213,
00:00:27:550,-0.008,0.851,0.46,87.219,54.382,-43.457,
00:00:27:567,-0.013,0.822,0.466,72.937,41.931,-43.824,
00:00:27:583,-0.015,0.812,0.451,20.324,34.973,-43.274,
00:00:27:600,-0.008,0.864,0.441,-11.902,26.184,-16.968,
00:00:27:617,0.009,0.962,0.458,27.954,7.324,-6.592,
00:00:27:633,0.003,0.971,0.472,73.486,-6.897,-3.602,
00:00:27:650,-0.015,0.916,0.437,78.064,-8.24,-19.959,
00:00:27:667,-0.021,0.889,0.461,42.48,-2.808,-30.762,
00:00:27:683,-0.024,0.871,0.455,18.981,6.103,-43.763,
00:00:27:700,-0.028,0.855,0.455,18.066,13.061,-52.735,
00:00:27:717,-0.03,0.844,0.462,21.484,20.202,-56.397,
00:00:27:733,-0.026,0.835,0.471,21.789,23.254,-55.603,
00:00:27:750,-0.018,0.865,0.47,30.212,15.136,-43.702,
00:00:27:767,-0.004,0.914,0.474,68.176,5.859,-18.067,
00:00:27:783,0.001,0.903,0.468,106.567,-1.587,-5.982,
00:00:27:800,0.001,0.866,0.475,105.346,-7.203,-13.489,
00:00:27:817,0.009,0.864,0.477,82.885,-3.846,-17.823,
00:00:27:833,0.025,0.859,0.48,108.52,-7.264,-39.673,
00:00:27:850,0.015,0.845,0.485,105.041,-4.639,-42.237,
00:00:27:867,0.012,0.865,0.496,77.27,-5.982,-38.514,
00:00:27:883,0.003,0.883,0.502,67.565,-10.437,-39.917,
00:00:27:900,0.028,0.858,0.512,49.316,-10.132,-54.749,
00:00:27:917,-0.004,0.875,0.5,4.272,-20.691,-76.783,
00:00:27:933,-0.014,0.884,0.488,32.714,-17.334,-79.163,
00:00:27:950,-0.018,0.863,0.498,36.56,-5.188,-89.295,
00:00:27:967,0.002,0.871,0.504,9.155,11.047,-94.422,
00:00:27:983,0.018,0.895,0.503,9.765,19.47,-96.253,
00:00:28:0,0.022,0.881,0.505,12.634,26.611,-96.619,
00:00:28:17,0.019,0.833,0.492,-14.527,35.034,-102.295,
00:00:28:33,0.008,0.81,0.497,-54.261,36.01,-110.474,
00:00:28:50,0.011,0.829,0.495,38.147,25.329,-111.695,
00:00:28:67,0.015,0.792,0.479,53.711,19.836,-114.869,
00:00:28:83,0.023,0.766,0.459,37.048,13.305,-120.789,
00:00:28:100,0.038,0.755,0.447,15.502,3.54,-121.46,
00:00:28:117,0.059,0.766,0.436,3.173,-13.306,-134.339,
00:00:28:133,0.074,0.745,0.413,-40.223,-36.255,-148.194,
00:00:28:150,0.091,0.704,0.368,-126.77,-52.613,-167.603,
00:00:28:167,0.101,0.728,0.335,-241.883,-62.867,-179.322,
00:00:28:183,0.103,0.825,0.342,-286.805,-71.595,-188.416,
00:00:28:200,0.103,0.946,0.374,-192.933,-74.646,-169.434,
00:00:28:217,0.102,1,0.418,-25.574,-66.895,-150.818,
00:00:28:233,0.089,0.979,0.454,105.468,-64.82,-134.339,
00:00:28:250,0.06,0.902,0.478,180.297,-45.899,-131.958,
00:00:28:267,0.055,0.836,0.492,175.903,-32.105,-117.188,
00:00:28:283,0.067,0.795,0.509,154.968,-32.166,-100.892,
00:00:28:300,0.089,0.787,0.511,152.221,-36.988,-89.234,
00:00:28:317,0.108,0.796,0.516,153.32,-45.716,-81.543,
00:00:28:333,0.12,0.815,0.525,150.756,-60.914,-78.431,
00:00:28:350,0.127,0.835,0.534,142.883,-68.238,-71.595,
00:00:28:367,0.134,0.839,0.535,123.23,-66.59,-66.895,
00:00:28:383,0.126,0.822,0.53,108.337,-61.524,-65.125,
00:00:28:400,0.115,0.813,0.528,90.271,-51.453,-65.491,
00:00:28:417,0.107,0.807,0.526,79.895,-40.162,-59.998,
00:00:28:433,0.094,0.822,0.518,85.022,-28.809,-49.317,
00:00:28:450,0.078,0.832,0.516,94.543,-16.236,-34.424,
00:00:28:467,0.075,0.82,0.524,104.492,-17.09,-34.546,
00:00:28:483,0.073,0.808,0.539,97.045,-8.118,-29.297,
00:00:28:500,0.075,0.813,0.546,71.044,-7.752,-28.26,
00:00:28:517,0.085,0.822,0.56,34.606,-1.465,-25.391,
00:00:28:533,0.086,0.819,0.557,9.399,1.709,-25.452,
00:00:28:550,0.077,0.795,0.547,-8.24,2.685,-23.255,
00:00:28:567,0.071,0.782,0.539,-25.818,4.394,-15.32,
00:00:28:583,0.073,0.801,0.548,-24.781,7.568,-13.733,
00:00:28:600,0.082,0.838,0.555,3.112,8.789,-17.334,
00:00:28:617,0.1,0.864,0.57,27.648,11.779,-23.926,
00:00:28:633,0.119,0.862,0.596,9.399,20.629,-30.03,
00:00:28:650,0.125,0.849,0.597,-48.279,18.859,-28.138,
00:00:28:667,0.121,0.806,0.584,-129.334,13.794,-31.434,
00:00:28:683,0.115,0.766,0.554,-228.455,-1.465,-28.504,
00:00:28:700,0.111,0.78,0.518,-288.453,-20.569,-28.321,
00:00:28:717,0.097,0.82,0.483,-269.043,-38.819,-24.476,
00:00:28:733,0.082,0.883,0.46,-187.195,-33.081,-9.095,
00:00:28:750,0.083,0.895,0.455,-164.063,-15.015,-1.16,
00:00:28:767,0.08,0.86,0.459,-159.058,-6.043,-0.123,
00:00:28:783,0.082,0.839,0.456,-201.661,0.671,17.761,
00:00:28:800,0.08,0.846,0.459,-211.731,-2.198,39.978,
00:00:28:817,0.089,0.845,0.46,-161.499,-13.306,48.645,
00:00:28:833,0.1,0.807,0.446,-95.093,-23.926,46.081,
00:00:28:850,0.124,0.798,0.421,-85.206,-31.189,57.067,
00:00:28:867,0.083,0.796,0.395,-111.512,-21.79,58.471,
00:00:28:883,0.072,0.813,0.379,-140.87,-15.625,64.941,
00:00:28:900,0.049,0.839,0.373,-146.912,-5.921,75.317,
00:00:28:917,0.028,0.865,0.398,-107.3,7.446,81.359,
00:00:28:933,0.039,0.889,0.376,-42.908,29.419,92.102,
00:00:28:950,0.054,0.893,0.41,-5.31,46.386,98.144,
00:00:28:967,0.048,0.904,0.419,-19.349,57.983,108.093,
00:00:28:983,0.05,0.918,0.423,-72.754,65.063,113.586,
00:00:29:0,0.049,0.934,0.436,-114.685,55.053,112.976,
00:00:29:17,0.033,0.889,0.441,-135.926,41.32,108.764,
00:00:29:33,0.005,0.873,0.431,-156.25,23.193,115.234,
00:00:29:50,-0.016,0.907,0.419,-178.04,16.601,141.235,
00:00:29:67,-0.035,0.927,0.432,-168.763,15.747,156.25,
00:00:29:83,-0.043,0.915,0.443,-150.025,1.77,162.109,
00:00:29:100,-0.034,0.913,0.421,-152.1,-17.151,180.236,
00:00:29:117,-0.049,0.943,0.413,-146.851,-15.748,182.861,
00:00:29:133,-0.063,0.898,0.409,-114.869,-12.513,158.142,
00:00:29:150,-0.08,0.839,0.395,-141.114,-20.447,146.484,
00:00:29:167,-0.114,0.821,0.366,-250.794,-16.297,133.85,
00:00:29:183,-0.113,0.86,0.34,-407.837,-20.447,140.625,
00:00:29:200,-0.097,0.919,0.354,-524.231,-58.777,128.662,
00:00:29:217,-0.099,0.968,0.33,-595.826,-57.984,128.357,
00:00:29:233,-0.082,0.928,0.214,-857.117,-44.19,122.924,
00:00:29:250,-0.09,1.1,0.111,-454.956,10.131,116.272,
00:00:29:267,-0.079,1.045,0.084,-183.472,52.734,145.385,
00:00:29:283,-0.094,1.023,0.028,-49.317,108.886,185.241,
00:00:29:300,-0.112,1.027,0.019,-0.733,132.446,184.936,
00:00:29:317,-0.147,1.01,0.05,87.829,148.925,185.18,
00:00:29:333,-0.157,0.982,0.083,185.669,204.345,223.999,
00:00:29:350,-0.156,0.942,0.083,204.284,219.238,241.15,
00:00:29:367,-0.179,0.916,0.078,230.041,219.909,240.6,
00:00:29:383,-0.202,0.933,0.088,290.161,217.712,237.426,
00:00:29:400,-0.187,0.936,0.132,392.883,206.604,240.173,
00:00:29:417,-0.163,0.893,0.184,424.987,192.505,225.83,
00:00:29:433,-0.176,0.829,0.197,320.251,185.913,225.036,
00:00:29:450,-0.214,0.805,0.175,127.075,193.725,201.416,
00:00:29:467,-0.216,0.831,0.122,-7.325,204.834,174.743,
00:00:29:483,-0.192,0.901,0.082,-31.983,198.181,140.564,
00:00:29:500,-0.174,0.942,0.092,29.724,182.739,103.82,
00:00:29:517,-0.153,0.905,0.136,88.989,166.015,80.81,
00:00:29:533,-0.125,0.88,0.154,60.302,172.058,92.407,
00:00:29:550,-0.109,0.903,0.157,-21.302,174.255,70.068,
00:00:29:567,-0.111,0.92,0.152,-62.317,168.151,53.1,
00:00:29:583,-0.124,0.927,0.15,-87.037,162.17,36.926,
00:00:29:600,-0.148,0.925,0.166,-80.384,162.17,14.648,
00:00:29:617,-0.146,0.897,0.203,-62.378,161.987,-3.296,
00:00:29:633,-0.125,0.889,0.229,-94.117,159.912,-2.137,
00:00:29:650,-0.109,0.909,0.239,-158.509,147.766,-2.503,
00:00:29:667,-0.109,0.963,0.231,-182.801,115.173,-6.47,
00:00:29:683,-0.123,0.993,0.198,-145.264,96.069,-14.222,
00:00:29:700,-0.121,0.981,0.188,-121.399,72.265,-9.339,
00:00:29:717,-0.127,0.966,0.196,-87.891,68.908,-6.47,
00:00:29:733,-0.14,0.935,0.185,-59.266,56.945,1.159,
00:00:29:750,-0.157,0.901,0.245,-48.951,10.376,-5.372,
00:00:29:767,-0.192,0.905,0.279,-132.447,-22.156,0.915,
00:00:29:783,-0.18,0.952,0.264,-136.841,-35.218,-8.423,
00:00:29:800,-0.182,0.944,0.204,-81.482,-43.396,-30.945,
00:00:29:817,-0.207,0.893,0.18,-36.438,-42.542,-44.312,
00:00:29:833,-0.213,0.88,0.169,-49.5,-19.349,-38.697,
00:00:29:850,-0.194,0.936,0.163,-78.309,-6.653,-42.481,
00:00:29:867,-0.193,0.988,0.166,-59.449,-4.151,-59.021,
00:00:29:883,-0.205,0.92,0.18,34.301,0.732,-84.778,
00:00:29:900,-0.223,0.846,0.166,46.569,13.427,-86.976,
00:00:29:917,-0.218,0.844,0.166,-14.344,25.94,-86.365,
00:00:29:933,-0.206,0.878,0.159,-101.38,37.292,-86.487,
00:00:29:950,-0.193,0.959,0.142,-100.22,45.654,-83.008,
00:00:29:967,-0.174,1.003,0.151,-15.137,36.377,-72.144,
00:00:29:983,-0.182,0.946,0.166,54.504,27.587,-62.256,
00:00:30:0,-0.203,0.882,0.161,3.356,30.09,-55.176,
00:00:30:17,-0.215,0.892,0.132,-101.319,39.489,-47.303,
00:00:30:33,-0.197,0.958,0.123,-149.17,39.733,-35.035,
00:00:30:50,-0.18,0.966,0.117,-129.395,37.292,-40.955,
00:00:30:67,-0.209,0.947,0.139,-119.69,22.949,-41.687,
00:00:30:83,-0.216,0.923,0.153,-141.785,27.893,-42.542,
00:00:30:100,-0.182,0.942,0.149,-233.46,38.208,-35.889,
00:00:30:117,-0.163,0.956,0.117,-289.856,31.738,-50.721,
00:00:30:133,-0.181,0.944,0.095,-293.824,19.653,-54.017,
00:00:30:150,-0.199,0.944,0.072,-308.716,18.066,-45.35,
00:00:30:167,-0.176,0.97,0.055,-352.601,13.061,-47.059,
00:00:30:183,-0.163,0.976,0.005,-359.314,16.662,-34.913,
00:00:30:200,-0.171,0.986,-0.031,-356.934,15.869,-39.063,
00:00:30:217,-0.18,1.023,-0.03,-335.328,14.648,-43.152,
00:00:30:233,-0.176,1.025,-0.027,-300.232,16.906,-28.504,
00:00:30:250,-0.175,0.965,-0.012,-264.832,9.033,-45.777,
00:00:30:267,-0.18,0.938,-0.006,-285.95,13.366,-39.49,
00:00:30:283,-0.174,0.945,-0.032,-308.167,18.92,-48.951,
00:00:30:300,-0.165,0.981,-0.062,-295.594,23.742,-33.936,
00:00:30:317,-0.152,1.015,-0.086,-258.606,27.954,-29.114,
00:00:30:333,-0.151,0.965,-0.097,-218.934,24.719,-48.768,
00:00:30:350,-0.163,0.939,-0.108,-244.141,34.423,-51.575,
00:00:30:367,-0.152,1.002,-0.093,-267.884,42.541,-46.204,
00:00:30:383,-0.139,1.043,-0.086,-230.225,34.851,-41.81,
00:00:30:400,-0.161,0.957,-0.11,-173.89,21.85,-62.5,
00:00:30:417,-0.184,0.893,-0.151,-191.224,28.015,-47.12,
00:00:30:433,-0.168,0.931,-0.186,-221.375,45.837,-47.669,
00:00:30:450,-0.14,1.002,-0.18,-186.524,49.743,-48.035,
00:00:30:467,-0.126,1.016,-0.158,-128.235,41.626,-44.739,
00:00:30:483,-0.135,0.974,-0.145,-124.817,29.052,-41.81,
00:00:30:500,-0.152,0.927,-0.155,-148.743,28.686,-50.11,
00:00:30:517,-0.148,0.95,-0.168,-152.283,35.766,-45.166,
00:00:30:533,-0.134,0.959,-0.172,-108.399,34.545,-37.232,
00:00:30:550,-0.136,0.962,-0.163,-84.473,28.198,-30.579,
00:00:30:567,-0.146,0.956,-0.172,-99.793,28.259,-26.673,
00:00:30:583,-0.141,0.94,-0.169,-106.019,20.019,-35.889,
00:00:30:600,-0.143,0.958,-0.173,-101.746,21.484,-27.71,
00:00:30:617,-0.132,0.985,-0.188,-63.843,18.188,-15.32,
00:00:30:633,-0.136,0.986,-0.202,-50.538,12.39,-5.982,
00:00:30:650,-0.142,0.966,-0.22,-49.378,6.713,2.258,
00:00:30:667,-0.146,0.966,-0.207,-79.041,6.347,5.554,
00:00:30:683,-0.138,0.98,-0.192,-122.803,7.812,8.972,
00:00:30:700,-0.143,0.994,-0.194,-120.972,9.277,20.996,
00:00:30:717,-0.161,0.997,-0.217,-93.506,13.61,42.114,
00:00:30:733,-0.169,0.989,-0.239,-97.29,27.038,61.462,
00:00:30:750,-0.177,0.992,-0.258,-126.099,37.231,74.096,
00:00:30:767,-0.182,1.024,-0.259,-134.4,46.63,90.148,
00:00:30:783,-0.187,1.04,-0.252,-101.868,52.124,104.492,
00:00:30:800,-0.186,1.005,-0.243,-53.956,49.682,137.756,
00:00:30:817,-0.195,1.001,-0.279,-47.486,54.077,159.484,
00:00:30:833,-0.205,0.994,-0.221,-11.475,55.114,178.65,
00:00:30:850,-0.214,0.968,-0.234,18.737,60.18,183.471,
00:00:30:867,-0.223,0.978,-0.249,13.122,75.012,204.04,
00:00:30:883,-0.22,0.972,-0.263,14.526,77.331,213.317,
00:00:30:900,-0.234,0.946,-0.257,25.146,80.444,212.524,
00:00:30:917,-0.241,0.949,-0.258,0.366,91.613,226.867,
00:00:30:933,-0.229,0.973,-0.282,-16.297,105.835,241.088,
00:00:30:950,-0.241,0.979,-0.295,11.901,109.863,257.385,
00:00:30:967,-0.267,0.964,-0.277,20.813,113.098,270.202,
00:00:30:983,-0.279,0.964,-0.267,14.404,118.469,280.395,
00:00:31:0,-0.292,0.966,-0.276,24.963,119.873,295.349,
00:00:31:17,-0.303,0.958,-0.29,48.217,127.075,308.288,
00:00:31:33,-0.316,0.922,-0.271,61.767,125.732,314.331,drinkRH
00:00:31:50,-0.334,0.911,-0.256,44.677,129.333,323.73,
00:00:31:67,-0.349,0.933,-0.249,43.884,135.315,332.214,
00:00:31:83,-0.365,0.946,-0.271,81.359,143.371,343.444,
00:00:31:100,-0.385,0.922,-0.248,119.934,145.263,353.393,
00:00:31:117,-0.415,0.911,-0.255,119.445,158.142,363.403,
00:00:31:133,-0.427,0.859,-0.223,125.122,161.743,367.065,
00:00:31:150,-0.447,0.827,-0.216,109.985,172.729,374.328,
00:00:31:167,-0.452,0.869,-0.214,105.59,189.575,379.76,
00:00:31:183,-0.461,0.871,-0.22,125.427,192.382,386.596,
00:00:31:200,-0.48,0.825,-0.226,143.798,193.237,391.479,
00:00:31:217,-0.501,0.812,-0.199,135.376,183.715,400.146,
00:00:31:233,-0.513,0.755,-0.176,131.469,177.612,391.235,
00:00:31:250,-0.512,0.767,-0.158,98.999,168.945,391.418,
00:00:31:267,-0.511,0.779,-0.153,96.618,171.569,388.549,
00:00:31:283,-0.521,0.764,-0.15,100.952,170.654,389.221,
00:00:31:300,-0.557,0.766,-0.154,89.66,175.903,383.239,
00:00:31:317,-0.57,0.776,-0.146,67.016,169.433,375.976,
00:00:31:333,-0.575,0.754,-0.135,50.781,167.053,368.408,
00:00:31:350,-0.582,0.711,-0.127,35.644,164.184,352.172,
00:00:31:367,-0.587,0.683,-0.084,47.302,157.531,336.67,
00:00:31:383,-0.599,0.71,-0.05,39.917,164.306,326.721,
00:00:31:400,-0.619,0.751,-0.04,59.204,172.668,309.021,
00:00:31:417,-0.651,0.762,-0.054,101.44,178.894,286.316,
00:00:31:433,-0.678,0.777,-0.058,126.159,185.485,269.958,
00:00:31:450,-0.676,0.781,-0.047,125.976,188.659,248.047,
00:00:31:467,-0.665,0.713,0.001,134.216,177.002,235.351,
00:00:31:483,-0.686,0.647,0.009,127.136,171.997,227.356,
00:00:31:500,-0.695,0.66,0,131.225,164.55,228.942,
00:00:31:517,-0.697,0.715,-0.021,156.25,155.456,233.825,
00:00:31:533,-0.714,0.701,-0.035,162.414,142.944,233.154,
00:00:31:550,-0.723,0.671,-0.034,136.291,133.3,226.867,
00:00:31:567,-0.725,0.639,-0.021,147.461,119.873,227.478,
00:00:31:583,-0.72,0.601,-0.001,155.09,102.661,231.506,
00:00:31:600,-0.731,0.595,0.009,163.635,94.604,232.971,
00:00:31:617,-0.742,0.616,0.005,162.902,89.843,236.633,
00:00:31:633,-0.75,0.623,-0.02,171.203,85.632,233.459,
00:00:31:650,-0.759,0.592,-0.029,186.889,72.326,224.487,
00:00:31:667,-0.769,0.563,-0.005,175.171,62.561,216.858,
00:00:31:683,-0.77,0.544,0.019,138.427,60.852,210.388,
00:00:31:700,-0.769,0.543,0.029,116.272,63.049,204.223,
00:00:31:717,-0.786,0.537,0.027,130.798,64.758,194.641,
00:00:31:733,-0.81,0.55,0.044,158.63,69.519,193.115,
00:00:31:750,-0.817,0.556,0.046,184.143,81.848,186.401,
00:00:31:767,-0.831,0.54,0.06,185.302,89.294,177.49,
00:00:31:783,-0.841,0.546,0.096,165.527,100.341,166.32,
00:00:31:800,-0.851,0.557,0.131,135.681,114.135,148.01,
00:00:31:817,-0.852,0.566,0.133,136.047,123.657,131.836,
00:00:31:833,-0.86,0.583,0.131,167.724,127.563,121.826,
00:00:31:850,-0.855,0.58,0.148,188.354,123.108,115.356,
00:00:31:867,-0.853,0.554,0.166,172.18,117.675,111.023,
00:00:31:883,-0.845,0.541,0.151,183.288,112.182,107.36,
00:00:31:900,-0.842,0.544,0.132,206.298,107.483,107.422,
00:00:31:917,-0.833,0.532,0.131,243.408,96.74,109.13,
00:00:31:933,-0.831,0.522,0.146,261.23,91.003,107.544,
00:00:31:950,-0.83,0.506,0.143,244.323,85.022,111.45,
00:00:31:967,-0.84,0.505,0.144,242.981,72.082,124.267,
00:00:31:983,-0.84,0.496,0.158,264.221,56.701,112.243,
00:00:32:0,-0.85,0.481,0.154,284.484,50.109,117.614,
00:00:32:17,-0.843,0.473,0.154,282.592,44.982,117.859,
00:00:32:33,-0.847,0.471,0.169,283.508,33.264,118.103,
00:00:32:50,-0.855,0.448,0.184,270.874,21.484,115.051,
00:00:32:67,-0.853,0.449,0.175,251.098,19.653,118.957,
00:00:32:83,-0.86,0.448,0.178,242.37,14.953,115.539,
00:00:32:100,-0.85,0.443,0.179,232.116,11.352,111.267,
00:00:32:117,-0.866,0.435,0.209,181.03,10.925,115.844,
00:00:32:133,-0.868,0.44,0.217,184.387,10.742,117.736,
00:00:32:150,-0.871,0.435,0.22,212.951,9.216,117.431,
00:00:32:167,-0.881,0.433,0.222,229.004,5.065,120.239,
00:00:32:183,-0.88,0.406,0.227,187.988,3.845,124.084,
00:00:32:200,-0.892,0.406,0.23,164.489,12.023,111.938,
00:00:32:217,-0.89,0.432,0.231,195.434,13.366,109.924,
00:00:32:233,-0.914,0.383,0.252,192.81,20.446,113.037,
00:00:32:250,-0.91,0.393,0.261,163.757,24.292,108.215,
00:00:32:267,-0.923,0.368,0.268,159.668,20.568,105.041,
00:00:32:283,-0.929,0.369,0.27,167.602,24.536,107.605,
00:00:32:300,-0.934,0.357,0.277,163.574,25.878,104.858,
00:00:32:317,-0.929,0.338,0.278,135.681,28.503,102.172,
00:00:32:333,-0.925,0.332,0.276,140.075,29.419,98.999,
00:00:32:350,-0.923,0.349,0.29,164.978,29.541,102.417,
00:00:32:367,-0.922,0.359,0.284,199.646,30.517,105.957,
00:00:32:383,-0.927,0.343,0.27,216.797,34.362,110.412,
00:00:32:400,-0.925,0.322,0.283,214.05,36.132,113.464,
00:00:32:417,-0.924,0.307,0.313,200.195,37.658,114.685,
00:00:32:433,-0.918,0.3,0.316,184.875,37.475,115.356,
00:00:32:450,-0.918,0.305,0.299,174.438,36.438,118.469,
00:00:32:467,-0.925,0.301,0.288,176.941,36.438,119.873,
00:00:32:483,-0.932,0.278,0.296,165.649,33.447,118.042,
00:00:32:500,-0.937,0.278,0.3,150.329,34.24,120.117,
00:00:32:517,-0.942,0.277,0.304,153.198,40.71,125.244,
00:00:32:533,-0.948,0.267,0.313,192.993,52.49,127.99,
00:00:32:550,-0.945,0.233,0.333,234.558,51.635,121.093,
00:00:32:567,-0.949,0.229,0.332,230.346,47.668,127.685,
00:00:32:583,-0.958,0.256,0.325,211.303,47.729,136.23,
00:00:32:600,-0.952,0.244,0.334,200.5,44.616,133.911,
00:00:32:617,-0.951,0.221,0.347,187.622,43.09,135.986,
00:00:32:633,-0.952,0.228,0.35,176.452,44.494,144.653,
00:00:32:650,-0.908,0.185,0.351,188.781,42.236,142.089,
00:00:32:667,-0.94,0.168,0.359,180.542,44.006,138.61,
00:00:32:683,-0.942,0.177,0.353,159.607,48.278,139.16,
00:00:32:700,-0.94,0.18,0.343,143.432,49.255,136.23,
00:00:32:717,-0.947,0.161,0.348,139.892,47.485,134.46,
00:00:32:733,-0.933,0.152,0.356,134.765,49.743,130.859,
00:00:32:750,-0.932,0.167,0.365,132.141,47.973,137.329,
00:00:32:767,-0.926,0.148,0.36,148.498,48.523,136.108,
00:00:32:783,-0.935,0.142,0.358,165.405,44.921,143.798,
00:00:32:800,-0.931,0.123,0.366,158.02,42.907,138.427,
00:00:32:817,-0.929,0.107,0.372,141.418,42.968,135.864,
00:00:32:833,-0.926,0.093,0.368,119.934,46.264,130.188,
00:00:32:850,-0.925,0.074,0.372,120.117,51.208,123.169,
00:00:32:867,-0.927,0.071,0.397,133.728,54.87,117.981,
00:00:32:883,-0.925,0.066,0.396,136.474,65.185,114.563,
00:00:32:900,-0.93,0.063,0.394,135.681,67.443,108.215,
00:00:32:917,-0.928,0.067,0.401,129.028,71.472,95.031,
00:00:32:933,-0.927,0.063,0.385,127.441,72.265,84.35,
00:00:32:950,-0.929,0.051,0.39,125.427,72.509,77.331,
00:00:32:967,-0.931,0.053,0.388,120.788,74.157,71.533,
00:00:32:983,-0.924,0.042,0.391,124.328,74.646,67.077,
00:00:33:0,-0.929,0.027,0.403,124.511,68.725,66.162,
00:00:33:17,-0.926,0.032,0.403,117.187,67.321,69.885,
00:00:33:33,-0.921,0.041,0.397,107.544,67.504,69.336,
00:00:33:50,-0.921,0.03,0.388,101.501,66.772,71.472,
00:00:33:67,-0.93,0.059,0.398,96.13,63.171,72.753,
00:00:33:83,-0.928,0.024,0.401,98.022,59.57,75.805,
00:00:33:100,-0.922,0.003,0.403,110.962,55.053,93.505,
00:00:33:117,-0.925,-0.01,0.405,116.516,52.49,81.543,
00:00:33:133,-0.926,-0.018,0.424,111.511,51.086,82.214,
00:00:33:150,-0.924,-0.022,0.422,111.633,48.584,80.2,
00:00:33:167,-0.922,-0.038,0.423,102.783,39.611,78.308,
00:00:33:183,-0.925,-0.044,0.417,92.529,34.24,73.669,
00:00:33:200,-0.924,-0.027,0.421,81.665,33.264,72.876,
00:00:33:217,-0.919,-0.023,0.419,79.834,30.029,66.528,
00:00:33:233,-0.922,-0.041,0.418,87.585,27.648,66.406,
00:00:33:250,-0.924,-0.06,0.424,98.266,28.808,65.368,
00:00:33:267,-0.92,-0.057,0.426,96.13,30.517,69.152,
00:00:33:283,-0.921,-0.053,0.434,82.824,26.55,64.209,
00:00:33:300,-0.918,-0.062,0.44,72.387,21.972,60.18,
00:00:33:317,-0.923,-0.065,0.427,72.692,20.996,62.194,
00:00:33:334,-0.924,-0.076,0.421,93.2,16.845,59.143,
00:00:33:350,-0.925,-0.07,0.424,78.674,20.813,58.288,
00:00:33:367,-0.92,-0.059,0.424,83.313,24.231,56.579,
00:00:33:384,-0.92,-0.071,0.427,93.75,25.085,56.518,
00:00:33:400,-0.912,-0.075,0.427,82.824,24.108,52.185,
00:00:33:417,-0.911,-0.077,0.423,73.12,25.024,53.588,
00:00:33:434,-0.91,-0.085,0.419,69.458,24.902,49.621,
00:00:33:450,-0.911,-0.091,0.429,66.711,24.658,48.645,
00:00:33:467,-0.906,-0.103,0.43,57.983,24.597,45.227,
00:00:33:484,-0.91,-0.094,0.419,50.415,23.254,43.09,
00:00:33:500,-0.914,-0.097,0.422,50.903,24.292,41.809,
00:00:33:517,-0.91,-0.109,0.418,48.217,20.935,41.565,
00:00:33:534,-0.91,-0.102,0.416,37.048,20.446,38.147,
00:00:33:550,-0.908,-0.113,0.428,35.949,20.69,32.592,
00:00:33:567,-0.901,-0.123,0.425,33.935,18.676,30.7,
00:00:33:584,-0.908,-0.13,0.434,28.686,15.014,29.296,
00:00:33:600,-0.907,-0.125,0.439,24.414,10.803,28.808,
00:00:33:617,-0.907,-0.119,0.429,22.461,8.3,26.428,
00:00:33:634,-0.905,-0.113,0.428,15.014,4.272,20.263,
00:00:33:650,-0.908,-0.123,0.433,12.695,4.516,17.15,
00:00:33:667,-0.909,-0.134,0.439,17.944,1.525,17.456,
00:00:33:684,-0.915,-0.127,0.436,24.719,0.732,21.24,
00:00:33:700,-0.918,-0.136,0.45,20.752,0.61,16.906,
00:00:33:717,-0.915,-0.134,0.448,12.512,0.732,13.244,
00:00:33:734,-0.921,-0.125,0.439,10.62,-1.648,12.573,
00:00:33:750,-0.922,-0.121,0.442,17.639,3.051,9.033,
00:00:33:767,-0.923,-0.133,0.442,30.822,1.098,10.192,
00:00:33:784,-0.928,-0.144,0.45,34.24,3.601,13.671,
00:00:33:800,-0.93,-0.145,0.443,26.916,5.859,14.77,
00:00:33:817,-0.934,-0.143,0.446,24.719,6.225,16.784,
00:00:33:834,-0.933,-0.132,0.443,26.001,6.225,16.967,
00:00:33:850,-0.935,-0.135,0.45,41.931,9.399,20.446,
00:00:33:867,-0.937,-0.148,0.446,51.94,12.207,25.817,
00:00:33:884,-0.938,-0.156,0.449,54.992,11.047,28.381,
00:00:33:900,-0.934,-0.164,0.45,57.19,10.986,30.456,
00:00:33:917,-0.94,-0.156,0.441,54.748,14.953,38.574,
00:00:33:934,-0.946,-0.149,0.432,57.495,22.583,41.503,
00:00:33:950,-0.937,-0.152,0.422,59.875,26.916,45.837,
00:00:33:967,-0.934,-0.169,0.426,61.401,31.982,49.316,
00:00:33:984,-0.938,-0.181,0.423,56.64,33.874,57.006,
00:00:34:0,-0.936,-0.173,0.424,48.889,36.193,60.546,
00:00:34:17,-0.938,-0.176,0.422,48.584,39.123,64.148,
00:00:34:34,-0.934,-0.193,0.43,46.752,37.536,64.086,
00:00:34:50,-0.925,-0.19,0.437,40.283,37.841,70.373,
00:00:34:67,-0.925,-0.177,0.436,40.771,33.203,72.204,
00:00:34:84,-0.919,-0.185,0.434,42.297,30.639,71.167,
00:00:34:100,-0.894,-0.184,0.438,22.827,23.986,74.646,
00:00:34:117,-0.886,-0.18,0.44,27.526,22.399,74.829,
00:00:34:134,-0.884,-0.199,0.445,40.466,19.592,76.416,
00:00:34:150,-0.883,-0.192,0.444,35.705,20.263,77.331,
00:00:34:167,-0.883,-0.193,0.439,44.128,30.7,75.012,
00:00:34:184,-0.886,-0.222,0.44,60.241,14.343,73.242,
00:00:34:200,-0.889,-0.229,0.447,69.641,13.366,74.157,
00:00:34:217,-0.89,-0.236,0.442,67.993,11.535,70.922,
00:00:34:234,-0.892,-0.245,0.435,48.645,11.047,66.711,
00:00:34:250,-0.898,-0.242,0.438,32.653,13,54.504,
00:00:34:267,-0.899,-0.248,0.44,21.301,13.061,51.94,
00:00:34:284,-0.895,-0.246,0.442,18.249,10.009,47.363,
00:00:34:300,-0.892,-0.255,0.432,19.409,10.253,46.936,
00:00:34:317,-0.899,-0.252,0.432,16.235,10.192,47.18,
00:00:34:334,-0.901,-0.24,0.439,9.094,10.376,44.616,
00:00:34:350,-0.896,-0.243,0.441,1.464,12.268,42.114,
00:00:34:367,-0.898,-0.239,0.443,-0.306,15.869,39.856,
00:00:34:384,-0.897,-0.258,0.442,12.207,14.343,42.053,
00:00:34:400,-0.89,-0.256,0.446,14.343,18.493,47.973,
00:00:34:417,-0.894,-0.25,0.453,25.329,17.211,52.185,
00:00:34:434,-0.889,-0.261,0.458,41.687,15.441,52.49,
00:00:34:450,-0.883,-0.262,0.452,36.987,12.817,52.368,
00:00:34:467,-0.88,-0.27,0.448,43.823,11.962,51.147,
00:00:34:484,-0.875,-0.296,0.449,49.987,10.803,51.086,
00:00:34:500,-0.874,-0.293,0.445,49.377,12.817,49.926,
00:00:34:517,-0.872,-0.29,0.438,49.438,13.427,45.105,
00:00:34:534,-0.878,-0.302,0.431,44.677,13.244,36.621,
00:00:34:550,-0.875,-0.3,0.43,32.959,18.432,30.212,
00:00:34:567,-0.868,-0.299,0.428,26.916,20.202,21.728,
00:00:34:584,-0.873,-0.308,0.428,23.986,20.813,15.808,
00:00:34:600,-0.868,-0.313,0.436,17.15,22.277,9.765,
00:00:34:617,-0.864,-0.307,0.432,7.141,22.338,7.751,
00:00:34:634,-0.866,-0.302,0.438,3.356,25.451,3.479,
00:00:34:650,-0.87,-0.301,0.44,3.967,23.864,-1.038,
00:00:34:667,-0.87,-0.312,0.443,4.455,21.362,-0.916,
00:00:34:684,-0.879,-0.322,0.45,8.361,18.737,-1.526,
00:00:34:700,-0.872,-0.314,0.445,6.347,15.502,-2.137,
00:00:34:717,-0.87,-0.296,0.439,9.948,11.413,-1.77,
00:00:34:734,-0.864,-0.308,0.439,15.197,8.361,-2.747,
00:00:34:750,-0.86,-0.304,0.436,13.122,6.408,-0.916,
00:00:34:767,-0.86,-0.308,0.435,22.155,2.99,-0.428,
00:00:34:784,-0.863,-0.31,0.438,20.874,4.821,-1.343,
00:00:34:800,-0.873,-0.32,0.432,10.498,5.432,-3.235,
00:00:34:817,-0.877,-0.323,0.44,4.76,7.507,-9.644,
00:00:34:834,-0.869,-0.32,0.436,3.418,6.469,-12.452,
00:00:34:850,-0.869,-0.325,0.439,6.836,6.591,-14.527,
00:00:34:867,-0.873,-0.32,0.436,1.403,7.019,-17.884,
00:00:34:884,-0.88,-0.308,0.433,-3.113,12.39,-20.508,
00:00:34:900,-0.879,-0.309,0.433,-1.404,9.521,-22.889,
00:00:34:917,-0.866,-0.311,0.435,-5.188,13.366,-25.94,
00:00:34:934,-0.858,-0.311,0.43,-15.381,15.991,-29.297,
00:00:34:950,-0.855,-0.318,0.409,-25.879,16.54,-35.157,
00:00:34:967,-0.846,-0.312,0.412,-45.472,24.353,-45.044,
00:00:34:984,-0.845,-0.31,0.414,-46.265,27.954,-51.941,
00:00:35:0,-0.848,-0.314,0.416,-47.73,25.146,-53.162,
00:00:35:17,-0.847,-0.283,0.415,-58.96,22.766,-59.998,
00:00:35:34,-0.839,-0.298,0.404,-74.585,17.578,-65.979,
00:00:35:50,-0.834,-0.311,0.409,-93.567,14.16,-80.201,
00:00:35:67,-0.815,-0.32,0.419,-116.394,6.042,-98.511,
00:00:35:84,-0.799,-0.303,0.423,-123.719,-2.564,-116.333,
00:00:35:100,-0.791,-0.275,0.416,-127.808,-14.466,-133.667,
00:00:35:117,-0.809,-0.283,0.414,-150.208,-23.743,-156.067,
00:00:35:134,-0.813,-0.303,0.432,-184.266,-24.537,-181.702,
00:00:35:150,-0.806,-0.256,0.427,-203.248,-22.522,-200.928,
00:00:35:167,-0.823,-0.232,0.41,-196.045,-28.748,-213.685,
00:00:35:184,-0.856,-0.23,0.397,-208.741,-29.114,-228.638,
00:00:35:200,-0.854,-0.226,0.414,-251.893,-26.551,-249.634,
00:00:35:217,-0.853,-0.211,0.437,-278.992,-26.185,-264.893,
00:00:35:234,-0.847,-0.18,0.429,-282.166,-26.734,-270.935,
00:00:35:250,-0.854,-0.157,0.409,-281.25,-30.518,-275.025,
00:00:35:267,-0.859,-0.157,0.402,-289.307,-36.683,-293.824,
00:00:35:284,-0.868,-0.151,0.42,-306.031,-36.377,-303.772,
00:00:35:300,-0.912,-0.105,0.439,-282.166,-38.514,-294.8,
00:00:35:317,-0.931,-0.091,0.461,-251.16,-45.716,-280.579,
00:00:35:334,-0.951,-0.11,0.482,-233.643,-48.829,-259.522,
00:00:35:350,-0.95,-0.091,0.462,-252.259,-44.617,-247.559,
00:00:35:367,-0.972,-0.058,0.46,-259.888,-40.039,-234.192,
00:00:35:384,-0.971,-0.048,0.475,-243.409,-28.687,-226.319,
00:00:35:400,-0.954,-0.031,0.465,-234.864,-19.715,-214.417,
00:00:35:417,-0.942,-0.04,0.447,-228.76,-14.832,-217.835,
00:00:35:434,-0.947,-0.059,0.455,-226.99,-13.794,-216.98,
00:00:35:450,-0.92,-0.046,0.463,-246.949,-8.362,-225.159,
00:00:35:467,-0.887,0.004,0.456,-246.46,-5.31,-227.356,
00:00:35:484,-0.877,0.028,0.426,-242.92,-4.7,-239.319,
00:00:35:500,-0.893,0.048,0.406,-259.339,-9.766,-245.789,
00:00:35:517,-0.885,0.045,0.412,-265.015,-10.743,-257.019,
00:00:35:534,-0.872,0.049,0.425,-257.935,-10.498,-258.545,
00:00:35:550,-0.875,0.078,0.436,-261.414,-9.461,-260.376,
00:00:35:567,-0.875,0.092,0.422,-257.325,-13.916,-263.977,
00:00:35:584,-0.863,0.092,0.401,-269.532,-25.757,-268.311,
00:00:35:600,-0.871,0.116,0.377,-302.796,-28.992,-274.353,
00:00:35:617,-0.854,0.145,0.376,-343.628,-30.701,-287.049,
00:00:35:634,-0.869,0.135,0.395,-359.07,-34.363,-294.8,
00:00:35:650,-0.879,0.123,0.405,-367.31,-39.917,-305.054,
00:00:35:667,-0.878,0.155,0.407,-406.678,-41.626,-312.928,
00:00:35:684,-0.886,0.218,0.412,-428.162,-42.908,-327.271,
00:00:35:700,-0.896,0.248,0.4,-440.308,-51.392,-340.21,
00:00:35:717,-0.914,0.285,0.399,-454.834,-63.721,-345.093,
00:00:35:734,-0.922,0.257,0.429,-466.187,-84.473,-332.703,
00:00:35:750,-0.924,0.221,0.426,-455.994,-101.38,-331.971,
00:00:35:767,-0.883,0.302,0.363,-466.553,-111.145,-315.247,
00:00:35:784,-0.873,0.355,0.299,-438.355,-125.184,-318.299,
00:00:35:800,-0.873,0.37,0.308,-439.27,-128.785,-326.661,
00:00:35:817,-0.875,0.391,0.276,-488.892,-138.184,-331.788,
00:00:35:834,-0.842,0.364,0.246,-546.204,-158.631,-342.225,
00:00:35:850,-0.823,0.312,0.211,-603.76,-183.045,-367.188,
00:00:35:867,-0.755,0.414,0.145,-705.018,-199.158,-383.179,
00:00:35:884,-0.722,0.506,0.064,-776.612,-207.52,-405.091,
00:00:35:900,-0.72,0.534,-0.016,-869.324,-216.126,-429.81,
00:00:35:917,-0.774,0.545,0.024,-969.727,-210.206,-468.018,
00:00:35:934,-0.85,0.561,0.143,-1012.879,-197.022,-478.577,
00:00:35:950,-0.891,0.516,0.194,-1040.101,-191.895,-477.356,
00:00:35:967,-0.896,0.498,0.174,-1030.823,-186.097,-480.286,
00:00:35:984,-0.911,0.608,0.181,-979.432,-168.946,-487.671,
00:00:36:0,-0.927,0.68,0.161,-892.334,-157.776,-465.577,
00:00:36:17,-0.923,0.704,0.132,-811.524,-150.452,-446.289,
00:00:36:34,-0.946,0.729,0.127,-709.595,-140.625,-423.218,
00:00:36:50,-0.961,0.713,0.155,-578.186,-135.56,-375.123,
00:00:36:67,-0.98,0.729,0.153,-440.857,-133.545,-297.791,
00:00:36:84,-0.926,0.747,0.09,-279.175,-116.089,-293.641,
00:00:36:100,-0.913,0.745,0.016,-189.637,-103.394,-258.24,
00:00:36:117,-0.876,0.789,-0.004,-79.041,-103.455,-214.173,
00:00:36:134,-0.879,0.706,0.003,11.108,-109.498,-175.538,
00:00:36:150,-0.847,0.671,0.012,34.912,-113.343,-135.437,
