TIMECODE,ACC_X,ACC_Y,ACC_Z,GYR_X,GYR_Y,GYR_Z,TAG
00:00:00:0,0.86,0.227,0.406,-16.724,3.967,-17.456,
00:00:00:16,0.847,0.229,0.41,-27.039,2.441,-21.363,
00:00:00:33,0.845,0.213,0.396,-39.185,9.826,-21.485,
00:00:00:50,0.854,0.226,0.38,-55.054,7.08,-19.349,
00:00:00:66,0.855,0.24,0.375,-42.664,-0.855,-21.302,
00:00:00:83,0.853,0.239,0.377,-3.113,0.305,-22.522,
00:00:00:100,0.875,0.23,0.386,15.686,0.305,-22.889,
00:00:00:116,0.845,0.223,0.401,13.549,-7.081,-24.781,
00:00:00:133,0.864,0.217,0.408,-4.212,-7.019,-25.818,
00:00:00:150,0.865,0.219,0.395,-26.673,-6.775,-23.011,
00:00:00:166,0.854,0.231,0.389,-32.288,-8.728,-22.4,
00:00:00:183,0.847,0.237,0.382,-12.269,-7.63,-26.185,
00:00:00:200,0.846,0.232,0.385,13.977,-7.752,-31.678,
00:00:00:216,0.848,0.226,0.383,27.099,-6.592,-37.415,
00:00:00:233,0.858,0.221,0.392,17.517,-5.372,-41.748,
00:00:00:250,0.857,0.219,0.386,-1.282,-4.456,-41.932,
00:00:00:266,0.861,0.232,0.38,-12.207,-6.348,-40.833,
00:00:00:283,0.859,0.233,0.373,-6.958,-2.198,-37.11,
00:00:00:300,0.855,0.236,0.377,5.371,-5.005,-36.194,
00:00:00:316,0.847,0.228,0.383,13.183,-2.808,-32.227,
00:00:00:333,0.855,0.228,0.386,4.516,0.427,-31.8,
00:00:00:350,0.859,0.231,0.383,-0.855,1.709,-30.396,
00:00:00:366,0.857,0.236,0.381,-2.076,4.516,-34.119,
00:00:00:383,0.855,0.236,0.379,5.432,6.774,-32.044,
00:00:00:400,0.851,0.234,0.38,12.329,9.46,-27.649,
00:00:00:416,0.849,0.232,0.387,13,9.46,-22.461,
00:00:00:433,0.853,0.231,0.395,6.225,9.765,-20.264,
00:00:00:450,0.851,0.229,0.395,6.713,9.216,-20.447,
00:00:00:466,0.85,0.234,0.397,7.507,12.695,-19.288,
00:00:00:483,0.854,0.235,0.39,7.202,10.253,-18.189,
00:00:00:500,0.858,0.231,0.392,6.103,9.704,-15.992,
00:00:00:516,0.856,0.228,0.392,3.845,8.606,-13.672,
00:00:00:533,0.855,0.225,0.402,3.784,8.667,-11.597,
00:00:00:550,0.853,0.227,0.401,-0.061,7.995,-10.254,
00:00:00:566,0.85,0.233,0.401,6.164,11.535,-10.071,
00:00:00:583,0.851,0.229,0.391,16.296,10.864,-12.513,
00:00:00:600,0.849,0.223,0.394,18.188,12.451,-13.611,
00:00:00:616,0.851,0.221,0.39,8.422,9.338,-15.564,
00:00:00:633,0.85,0.223,0.391,4.943,8.911,-14.649,
00:00:00:650,0.855,0.225,0.389,9.094,8.911,-17.518,
00:00:00:666,0.858,0.228,0.389,15.93,9.887,-18.616,
00:00:00:683,0.855,0.228,0.386,22.705,10.681,-20.203,
00:00:00:700,0.851,0.223,0.385,23.254,13,-21.18,
00:00:00:716,0.855,0.227,0.387,18.432,15.564,-19.532,
00:00:00:733,0.851,0.223,0.383,14.465,13.977,-19.715,
00:00:00:750,0.856,0.22,0.38,5.31,13.916,-21.058,
00:00:00:766,0.866,0.227,0.38,0,12.39,-19.349,
00:00:00:783,0.863,0.239,0.391,6.774,9.155,-20.081,
00:00:00:800,0.858,0.234,0.396,16.174,10.009,-18.799,
00:00:00:816,0.853,0.225,0.394,12.634,13.183,-17.945,
00:00:00:833,0.849,0.228,0.395,5.798,16.784,-12.94,
00:00:00:850,0.854,0.23,0.387,2.014,15.197,-12.757,
00:00:00:866,0.852,0.23,0.392,9.155,10.62,-13.672,
00:00:00:883,0.851,0.223,0.397,8.056,8.422,-16.541,
00:00:00:900,0.855,0.22,0.398,2.014,6.897,-19.532,
00:00:00:916,0.854,0.223,0.395,-7.386,8.606,-16.785,
00:00:00:933,0.854,0.229,0.388,-7.264,9.887,-16.907,
00:00:00:950,0.855,0.233,0.39,-0.061,12.023,-18.433,
00:00:00:966,0.857,0.226,0.389,0.854,12.817,-18.738,
00:00:00:983,0.848,0.227,0.385,-0.428,11.962,-19.959,
00:00:01:0,0.856,0.232,0.384,-0.489,14.831,-18.921,
00:00:01:16,0.859,0.239,0.389,10.62,13.183,-23.255,
00:00:01:33,0.858,0.231,0.391,22.461,14.404,-25.33,
00:00:01:50,0.856,0.227,0.39,16.845,17.089,-26.49,
00:00:01:66,0.855,0.231,0.391,11.108,15.93,-25.147,
00:00:01:83,0.856,0.23,0.39,5.371,15.197,-23.499,
00:00:01:100,0.855,0.232,0.388,5.554,14.648,-20.325,
00:00:01:116,0.863,0.234,0.386,4.394,11.169,-15.992,
00:00:01:133,0.858,0.232,0.392,9.338,9.094,-16.541,
00:00:01:150,0.861,0.223,0.394,6.652,8.422,-17.09,
00:00:01:166,0.862,0.225,0.393,-6.226,6.774,-16.236,
00:00:01:183,0.856,0.233,0.389,-11.17,4.15,-18.921,
00:00:01:200,0.853,0.228,0.385,-3.052,4.76,-18.006,
00:00:01:216,0.854,0.226,0.379,-0.611,4.943,-17.823,
00:00:01:233,0.857,0.229,0.383,2.38,6.347,-15.503,
00:00:01:250,0.856,0.233,0.387,10.315,6.774,-17.212,
00:00:01:266,0.859,0.224,0.384,16.845,4.699,-19.288,
00:00:01:283,0.853,0.225,0.386,11.962,7.324,-19.898,
00:00:01:300,0.846,0.231,0.386,8.606,7.568,-22.034,
00:00:01:316,0.842,0.232,0.38,18.127,7.385,-23.621,
00:00:01:333,0.847,0.234,0.381,26.428,8.728,-26.368,
00:00:01:350,0.848,0.229,0.382,30.334,9.155,-27.161,
00:00:01:366,0.853,0.228,0.388,24.658,10.742,-26.795,
00:00:01:383,0.857,0.225,0.393,15.869,12.878,-23.926,
00:00:01:400,0.861,0.23,0.39,5.737,12.756,-19.227,
00:00:01:416,0.864,0.229,0.388,1.892,9.826,-17.151,
00:00:01:433,0.867,0.225,0.388,1.22,8.3,-15.442,
00:00:01:450,0.863,0.229,0.391,-3.235,9.643,-17.151,
00:00:01:466,0.86,0.223,0.391,-0.794,9.399,-17.64,
00:00:01:483,0.85,0.224,0.389,-3.785,14.099,-18.067,
00:00:01:500,0.845,0.227,0.389,0,15.991,-16.48,
00:00:01:516,0.848,0.226,0.389,7.263,16.845,-17.212,
00:00:01:533,0.847,0.226,0.395,12.939,16.479,-20.203,
00:00:01:550,0.851,0.225,0.393,14.587,12.756,-23.865,
00:00:01:566,0.856,0.225,0.393,8.117,10.986,-28.382,
00:00:01:583,0.857,0.224,0.392,1.22,10.986,-29.847,
00:00:01:600,0.859,0.229,0.389,-2.259,11.108,-27.894,
00:00:01:616,0.862,0.234,0.389,1.586,12.695,-26.673,
00:00:01:633,0.865,0.232,0.378,1.892,13.427,-22.828,
00:00:01:650,0.86,0.23,0.378,-1.282,9.948,-20.142,
00:00:01:666,0.856,0.232,0.378,-5.127,8.728,-21.119,
00:00:01:683,0.856,0.23,0.376,-6.775,9.46,-22.339,
00:00:01:700,0.86,0.237,0.379,-3.907,9.948,-23.072,
00:00:01:716,0.857,0.234,0.376,4.882,14.526,-23.804,
00:00:01:733,0.858,0.234,0.373,10.925,17.944,-21.729,
00:00:01:750,0.857,0.235,0.372,16.418,21.85,-17.151,
00:00:01:766,0.859,0.236,0.371,24.536,24.719,-19.104,
00:00:01:783,0.862,0.234,0.374,34.973,27.282,-20.386,
00:00:01:800,0.861,0.228,0.377,52.856,32.959,-29.358,
00:00:01:816,0.862,0.213,0.372,64.697,34.912,-40.345,
00:00:01:833,0.858,0.195,0.366,73.669,38.33,-50.782,
00:00:01:850,0.861,0.194,0.374,84.411,40.405,-62.5,
00:00:01:866,0.862,0.199,0.377,100.952,42.358,-64.454,
00:00:01:883,0.858,0.192,0.374,115.722,49.072,-69.031,
00:00:01:900,0.869,0.185,0.373,107.299,47.241,-67.627,
00:00:01:916,0.875,0.184,0.378,76.843,42.175,-58.35,
00:00:01:933,0.875,0.193,0.382,45.288,42.053,-47.181,
00:00:01:950,0.876,0.214,0.377,28.808,40.893,-35.462,
00:00:01:966,0.872,0.234,0.368,34.668,39.611,-31.373,
00:00:01:983,0.868,0.233,0.372,46.875,41.87,-26.307,
00:00:02:0,0.868,0.226,0.377,52.49,41.687,-23.377,
00:00:02:16,0.872,0.225,0.374,35.339,44.555,-18.494,
00:00:02:33,0.867,0.231,0.373,17.456,40.405,-13.306,
00:00:02:50,0.858,0.239,0.374,11.779,39.611,-5.616,
00:00:02:66,0.856,0.247,0.381,24.414,39.245,0.122,
00:00:02:83,0.86,0.24,0.38,37.231,44.311,11.108,
00:00:02:100,0.867,0.238,0.38,37.475,42.663,18.371,
00:00:02:116,0.874,0.239,0.376,29.907,41.992,23.437,
00:00:02:133,0.877,0.244,0.379,22.644,36.987,28.686,
00:00:02:150,0.877,0.248,0.382,22.705,35.278,34.606,
00:00:02:166,0.873,0.252,0.374,24.169,38.391,41.015,
00:00:02:183,0.861,0.255,0.371,33.264,41.809,50.903,
00:00:02:200,0.863,0.255,0.368,42.541,46.386,60.607,
00:00:02:216,0.867,0.249,0.359,40.832,45.044,69.519,
00:00:02:233,0.866,0.249,0.36,36.315,42.358,74.89,
00:00:02:250,0.863,0.251,0.363,36.254,41.748,80.2,
00:00:02:266,0.863,0.251,0.36,39.672,46.814,83.496,
00:00:02:283,0.867,0.248,0.361,48.645,49.133,87.89,
00:00:02:300,0.873,0.245,0.36,51.391,46.203,89.05,
00:00:02:316,0.878,0.233,0.358,48.889,48.828,91.064,
00:00:02:333,0.871,0.231,0.357,38.757,43.518,93.933,
00:00:02:350,0.862,0.232,0.355,34.545,41.32,95.275,
00:00:02:366,0.866,0.233,0.353,39.733,42.846,94.238,
00:00:02:383,0.868,0.229,0.363,43.579,40.405,86.792,
00:00:02:400,0.863,0.23,0.359,42.663,40.344,79.528,
00:00:02:416,0.862,0.223,0.356,38.33,36.987,67.321,
00:00:02:433,0.861,0.221,0.35,37.841,34.729,55.786,
00:00:02:450,0.856,0.224,0.357,38.086,37.414,46.63,
00:00:02:466,0.855,0.217,0.348,48.217,37.292,33.325,
00:00:02:483,0.862,0.221,0.355,57.128,38.452,16.784,
00:00:02:500,0.865,0.213,0.353,65.918,34.24,-0.733,
00:00:02:516,0.864,0.203,0.348,68.054,34.24,-16.907,
00:00:02:533,0.869,0.207,0.341,63.293,35.4,-26.49,
00:00:02:550,0.86,0.218,0.351,69.702,33.752,-31.434,
00:00:02:566,0.864,0.213,0.353,69.946,34.729,-36.438,
00:00:02:583,0.87,0.21,0.348,46.203,28.991,-41.687,
00:00:02:600,0.867,0.223,0.347,20.507,22.399,-46.814,
00:00:02:616,0.869,0.237,0.347,3.173,17.456,-50.538,
00:00:02:633,0.866,0.244,0.348,0.671,18.31,-51.209,
00:00:02:650,0.865,0.25,0.348,2.807,17.456,-54.383,
00:00:02:666,0.859,0.252,0.343,-1.099,15.319,-54.627,
00:00:02:683,0.861,0.255,0.349,-5.005,14.648,-54.993,
00:00:02:700,0.861,0.256,0.348,-11.841,16.174,-53.284,
00:00:02:716,0.858,0.264,0.346,-12.33,16.723,-50.232,
00:00:02:733,0.866,0.265,0.355,-12.94,17.883,-48.645,
00:00:02:750,0.887,0.26,0.355,-16.968,20.568,-43.58,
00:00:02:766,0.913,0.248,0.35,-34.668,19.714,-34.302,
00:00:02:783,0.909,0.242,0.343,-63.111,9.338,-23.987,
00:00:02:800,0.897,0.257,0.338,-75.379,8.3,-0.245,
00:00:02:816,0.89,0.257,0.345,-63.782,15.197,-13.306,
00:00:02:833,0.881,0.249,0.336,-49.744,19.104,-12.513,
00:00:02:850,0.866,0.245,0.327,-43.396,23.559,-16.846,
00:00:02:866,0.847,0.256,0.322,-25.147,28.137,-17.579,
00:00:02:883,0.826,0.255,0.322,5.676,36.132,-22.889,
00:00:02:900,0.828,0.258,0.32,36.926,46.752,-31.311,
00:00:02:916,0.838,0.258,0.336,69.03,52.856,-45.227,
00:00:02:933,0.87,0.233,0.339,69.336,51.818,-59.205,
00:00:02:950,0.889,0.221,0.33,18.92,40.649,-64.209,
00:00:02:966,0.89,0.24,0.33,-36.56,26.245,-62.623,
00:00:02:983,0.885,0.257,0.332,-60.914,19.165,-59.51,
00:00:03:0,0.875,0.261,0.338,-60.975,18.493,-47.913,
00:00:03:16,0.864,0.263,0.34,-46.143,20.141,-40.528,
00:00:03:33,0.855,0.267,0.337,-25.33,24.658,-38.269,
00:00:03:50,0.861,0.263,0.334,-6.165,25.878,-39.185,
00:00:03:66,0.867,0.261,0.332,6.164,22.155,-42.542,
00:00:03:83,0.86,0.261,0.336,8.911,16.906,-44.19,
00:00:03:100,0.86,0.264,0.331,8.667,16.113,-43.396,
00:00:03:116,0.859,0.259,0.327,10.07,15.197,-41.382,
00:00:03:133,0.854,0.266,0.335,9.765,11.901,-38.514,
00:00:03:150,0.865,0.265,0.347,12.695,11.779,-34.363,
00:00:03:166,0.879,0.252,0.358,-1.77,6.408,-31.739,
00:00:03:183,0.893,0.24,0.355,-54.261,-6.958,-27.283,
00:00:03:200,0.894,0.252,0.351,-118.226,-25.696,-20.691,
00:00:03:216,0.885,0.273,0.35,-152.344,-34.607,-11.902,
00:00:03:233,0.877,0.284,0.352,-142.884,-34.729,-3.174,
00:00:03:250,0.869,0.282,0.345,-110.047,-33.204,6.042,
00:00:03:266,0.858,0.281,0.345,-71.9,-26.49,8.85,
00:00:03:283,0.854,0.281,0.341,-38.331,-17.212,5.065,
00:00:03:300,0.861,0.277,0.331,-3.907,-6.287,-1.893,
00:00:03:316,0.871,0.268,0.324,16.418,-5.921,-7.447,
00:00:03:333,0.862,0.265,0.32,24.597,-1.831,-13.245,
00:00:03:350,0.854,0.265,0.317,34.423,3.173,-12.879,
00:00:03:366,0.86,0.271,0.33,60.546,-4.395,-10.01,
00:00:03:383,0.849,0.31,0.332,150.634,-19.959,6.53,
00:00:03:400,0.805,0.313,0.324,278.137,-39.124,22.399,
00:00:03:416,0.769,0.259,0.322,367.126,-63.965,27.954,
00:00:03:433,0.736,0.197,0.342,399.597,-80.201,20.141,
00:00:03:450,0.72,0.167,0.34,329.345,-82.398,2.563,
00:00:03:466,0.745,0.182,0.387,248.718,-90.394,-29.419,
00:00:03:483,0.791,0.168,0.385,115.356,-89.966,-78.064,
00:00:03:500,0.886,0.193,0.392,2.136,-95.032,-106.995,
00:00:03:516,1.029,0.277,0.451,17.395,-132.081,-122.803,
00:00:03:533,1.05,0.332,0.556,188.11,-170.227,-108.643,
00:00:03:550,1.074,0.323,0.742,379.699,-181.885,-68.421,
00:00:03:566,1.094,0.329,1.032,575.317,-239.197,-28.321,
00:00:03:583,1.097,0.437,1.421,892.639,-440.552,3.601,
00:00:03:600,0.857,0.484,1.892,1301.88,-665.894,43.335,
00:00:03:616,0.896,0.725,2.67,1999.694,-859.742,65.551,
00:00:03:633,1.107,0.199,3.066,1999.694,-876.16,-6.165,
00:00:03:650,1.712,-0.803,2.966,1999.694,-841.675,-247.803,
00:00:03:666,2.517,-1.099,3.292,748.779,-1444.886,-306.885,
00:00:03:683,2.967,-0.292,3.185,-445.252,-2000,-65.064,
00:00:03:700,2.854,-0.024,3.145,-638.977,-2000,347.107,
00:00:03:716,3.141,0.103,3.243,-459.351,-2000,489.502,
00:00:03:733,3.228,0.576,2.773,-216.004,-2000,756.775,
00:00:03:750,3.047,0.819,1.879,8.117,-2000,731.445,
00:00:03:766,2.626,1.163,0.781,50.842,-2000,812.011,
00:00:03:783,2.2,0.98,-0.183,-166.81,-2000,544.067,
00:00:03:800,2.433,0.354,-1.302,-991.761,-2000,245.849,
00:00:03:816,2.595,0.183,-2.471,-1868.531,-2000,798.95,
00:00:03:833,2.096,-0.195,-3.401,-2000,-2000,890.808,
00:00:03:850,1.493,-0.831,-4,-2000,-1945.313,666.87,
00:00:03:866,1.272,-1.228,-4,-1559.998,-719.178,555.114,
00:00:03:883,1.163,-1.401,-3.531,-452.576,349.548,214.66,
00:00:03:900,1.094,-1.364,-2.703,345.825,1255.737,-190.857,
00:00:03:916,1.098,-1.139,-1.913,595.214,1994.934,-522.706,
00:00:03:933,0.986,-0.846,-1.523,584.655,1999.694,-826.355,
00:00:03:950,1.029,-0.433,-1.143,379.699,1999.694,-1054.932,
00:00:03:966,1.328,0.031,-0.631,258.911,1999.694,-1177.552,
00:00:03:983,1.75,0.493,0.301,865.356,1999.694,-1224.427,
00:00:04:0,1.86,0.317,1.907,623.169,1999.694,-1215.638,
00:00:04:16,2.009,0.746,2.73,647.644,1999.694,-901.246,
00:00:04:33,2.024,1.263,2.561,1020.324,1999.694,-539.124,
00:00:04:50,2.054,0.6,2.917,1411.804,1999.694,-734.131,
00:00:04:66,2.171,-0.448,3.285,1081.604,1999.694,-687.012,
00:00:04:83,1.807,-0.292,3.272,674.011,1118.408,-171.326,
00:00:04:100,1.065,-0.376,3.192,598.938,692.749,170.288,
00:00:04:116,1.003,-0.627,2.868,277.893,585.205,394.47,
00:00:04:133,1.123,-0.515,2.393,-297.486,303.65,569.763,
00:00:04:150,0.91,-0.12,1.975,-573.853,71.899,636.474,
00:00:04:166,0.745,0.145,1.612,-345.581,-41.932,584.533,
00:00:04:183,0.66,0.166,1.28,59.57,-109.559,536.377,
00:00:04:200,0.603,0.011,1.023,311.767,-145.142,472.534,
00:00:04:216,0.557,-0.128,0.826,228.271,-171.387,410.339,
00:00:04:233,0.486,-0.067,0.736,16.54,-210.694,368.042,
00:00:04:250,0.411,0.023,0.665,-170.166,-210.572,330.078,
00:00:04:266,0.425,0.138,0.646,-260.865,-215.332,292.48,
00:00:04:283,0.392,0.231,0.606,-255.372,-254.029,272.644,
00:00:04:300,0.349,0.275,0.586,-182.618,-249.39,220.031,
00:00:04:316,0.349,0.237,0.59,-101.38,-203.675,144.043,
00:00:04:333,0.367,0.203,0.634,-80.506,-189.331,89.111,
00:00:04:350,0.404,0.208,0.716,-106.751,-177.674,46.814,
00:00:04:366,0.432,0.24,0.754,-168.702,-161.316,28.625,
00:00:04:383,0.45,0.22,0.821,-180.176,-178.772,-16.541,
00:00:04:400,0.429,0.143,0.911,-164.978,-180.664,-86.609,
00:00:04:416,0.44,0.019,0.963,-216.309,-205.506,-143.921,
00:00:04:433,0.473,-0.05,1.013,-375.672,-267.701,-177.369,
00:00:04:450,0.484,-0.025,1.019,-572.388,-315.369,-161.011,
00:00:04:466,0.497,0.119,1.042,-733.643,-364.747,-129.456,
00:00:04:483,0.517,0.312,1.024,-810.73,-407.532,-62.378,
00:00:04:500,0.529,0.5,0.998,-730.103,-471.07,5.615,
00:00:04:516,0.487,0.603,0.945,-525.452,-504.456,78.857,
00:00:04:533,0.428,0.542,0.881,-367.371,-475.525,133.545,
00:00:04:550,0.433,0.521,0.781,-306.336,-464.112,215.271,
00:00:04:566,0.41,0.577,0.787,-258.179,-459.473,318.969,
00:00:04:583,0.398,0.699,0.838,-171.021,-453.797,419.006,
00:00:04:600,0.339,0.761,0.78,-86.06,-392.945,513.733,
00:00:04:616,0.288,0.748,0.693,-76.477,-292.176,590.332,
00:00:04:633,0.266,0.762,0.616,-85.694,-204.834,658.813,
00:00:04:650,0.218,0.717,0.548,-56.885,-110.413,718.261,
00:00:04:666,0.184,0.713,0.518,-9.339,-9.827,781.616,
00:00:04:683,0.161,0.727,0.504,51.879,86.669,840.271,
00:00:04:700,0.145,0.665,0.53,118.652,176.88,883.178,
00:00:04:716,0.161,0.616,0.593,141.174,249.817,917.724,
00:00:04:733,0.148,0.569,0.604,114.929,297.18,950.134,
00:00:04:750,0.113,0.525,0.584,84.106,324.035,957.946,
00:00:04:766,0.094,0.528,0.569,68.054,350.341,969.055,
00:00:04:783,0.096,0.534,0.62,59.997,377.99,970.214,
00:00:04:800,0.12,0.485,0.689,53.588,391.845,956.604,
00:00:04:816,0.12,0.44,0.709,36.804,393.127,947.021,
00:00:04:833,0.106,0.441,0.747,-5.677,385.742,928.039,
00:00:04:850,0.097,0.437,0.738,-55.42,400.024,897.033,
00:00:04:866,0.12,0.488,0.788,-88.257,401.489,871.032,
00:00:04:883,0.115,0.461,0.827,-78.919,382.568,831.115,
00:00:04:900,0.098,0.431,0.836,-60.791,325.988,793.701,
00:00:04:916,0.086,0.434,0.834,-119.69,274.536,763.427,
00:00:04:933,0.09,0.458,0.835,-255.188,235.534,718.567,
00:00:04:950,0.101,0.493,0.82,-415.894,218.139,671.264,
00:00:04:966,0.097,0.57,0.801,-518.982,192.077,638.061,
00:00:04:983,0.082,0.618,0.801,-519.349,163.025,605.835,
00:00:05:0,0.059,0.609,0.803,-470.52,136.535,564.148,
00:00:05:16,0.045,0.6,0.765,-497.62,120.483,544.983,
00:00:05:33,0.049,0.631,0.727,-544.556,110.901,526.245,
00:00:05:50,0.031,0.656,0.688,-561.28,115.234,507.995,
00:00:05:66,0.038,0.698,0.693,-544.678,112.06,486.755,
00:00:05:83,0.032,0.71,0.71,-495.667,103.271,466.308,
00:00:05:100,0.015,0.7,0.703,-475.586,108.459,441.528,
00:00:05:116,0.016,0.695,0.692,-512.879,121.032,416.687,
00:00:05:133,0.018,0.724,0.667,-564.087,136.291,386.535,
00:00:05:150,0.018,0.747,0.661,-578.797,153.686,348.816,
00:00:05:166,0.02,0.74,0.654,-568.665,165.954,311.889,
00:00:05:183,0.033,0.754,0.643,-535.462,157.714,283.752,
00:00:05:200,0.03,0.753,0.624,-494.873,157.348,234.436,
00:00:05:216,0.022,0.737,0.621,-487,156.982,212.768,
00:00:05:233,0.027,0.758,0.617,-512.757,156.128,182.19,
00:00:05:250,0.012,0.771,0.623,-503.296,158.691,134.704,
00:00:05:266,0.006,0.721,0.621,-513.733,180.847,70.983,
00:00:05:283,0.053,0.729,0.617,-585.633,185.058,46.569,
00:00:05:300,0.071,0.755,0.535,-672.425,197.021,26.611,
00:00:05:316,0.079,0.796,0.488,-667.969,167.907,-3.785,
00:00:05:333,0.065,0.858,0.435,-581.482,147.461,-25.208,
00:00:05:350,0.059,0.851,0.403,-473.023,142.273,-41.382,
00:00:05:366,0.077,0.862,0.404,-402.894,133.728,-39.368,
00:00:05:383,0.077,0.896,0.406,-403.382,128.296,-35.035,
00:00:05:400,0.063,0.928,0.382,-429.749,134.887,-31.067,
00:00:05:416,0.05,0.933,0.371,-418.58,134.094,-42.054,
00:00:05:433,0.04,0.919,0.375,-372.986,130.249,-50.232,
00:00:05:450,0.026,0.913,0.348,-327.942,128.051,-51.27,
00:00:05:466,0.025,0.928,0.304,-265.381,132.08,-50.049,
00:00:05:483,0.05,0.951,0.302,-173.829,123.901,-55.359,
00:00:05:500,0.039,0.941,0.272,-144.898,127.502,-46.631,
00:00:05:516,0.048,0.935,0.269,-152.649,116.882,-50.293,
00:00:05:533,0.055,0.95,0.265,-163.758,105.957,-39.856,
00:00:05:550,0.043,0.948,0.27,-151.795,89.477,-39.307,
00:00:05:566,0.015,0.94,0.261,-151.673,85.937,-38.392,
00:00:05:583,0.006,0.943,0.233,-163.453,87.158,-38.697,
00:00:05:600,0.016,0.906,0.217,-155.457,79.834,-46.326,
00:00:05:616,0.02,0.951,0.21,-125.306,66.284,-42.969,
00:00:05:633,0.012,0.942,0.207,-93.384,57.251,-46.692,
00:00:05:650,0.01,0.944,0.191,-88.562,57.128,-43.457,
00:00:05:666,0.008,0.954,0.186,-106.995,53.405,-48.218,
00:00:05:683,0.002,0.952,0.164,-135.743,61.523,-55.359,
00:00:05:700,-0.003,0.95,0.142,-172.486,69.152,-58.167,
00:00:05:716,-0.009,0.94,0.137,-193.299,71.044,-63.172,
00:00:05:733,-0.022,0.942,0.159,-170.899,62.805,-62.012,
00:00:05:750,-0.038,0.944,0.164,-140.137,60.424,-58.655,
00:00:05:766,-0.035,0.935,0.15,-154.358,66.406,-53.894,
00:00:05:783,-0.031,0.934,0.143,-176.758,50.903,-56.336,
00:00:05:800,-0.034,0.92,0.193,-149.842,22.216,-81.971,pourRH
00:00:05:816,-0.042,0.888,0.214,-148.682,9.887,-86.243,
00:00:05:833,-0.014,0.907,0.195,-247.071,9.887,-70.374,
00:00:05:850,0.002,0.964,0.159,-273.072,0.366,-85.328,
00:00:05:866,-0.002,0.961,0.136,-236.817,-7.081,-93.75,
00:00:05:883,0.001,0.951,0.106,-224.244,8.239,-81.727,
00:00:05:900,0.003,0.996,0.088,-255.188,20.507,-76.233,
00:00:05:916,-0.007,1.023,0.083,-261.475,25.451,-73.609,
00:00:05:933,-0.007,0.991,0.089,-263.855,20.935,-76.05,
00:00:05:950,-0.013,0.975,0.078,-260.621,22.399,-61.646,
00:00:05:966,-0.019,0.957,0.063,-248.291,19.958,-51.88,
00:00:05:983,-0.024,0.943,0.064,-223.816,13.122,-46.753,
00:00:06:0,-0.025,0.94,0.068,-192.627,1.159,-52.735,
00:00:06:16,-0.025,0.951,0.074,-158.204,-9.888,-49.5,
00:00:06:33,-0.026,0.944,0.051,-145.02,-13.794,-47.974,
00:00:06:50,-0.025,0.959,0.025,-173.706,-7.935,-40.039,
00:00:06:66,-0.006,1.013,-0.008,-173.157,-4.578,-44.922,
00:00:06:83,0.004,1.041,-0.017,-134.949,-3.296,-39.917,
00:00:06:100,0.003,1.053,-0.032,-100.464,-2.015,-30.274,
00:00:06:116,0.013,1.044,-0.027,-76.783,-1.038,-25.879,
00:00:06:133,0.015,1.01,-0.033,-59.754,-6.958,-25.513,
00:00:06:150,0.008,1.013,-0.033,-59.815,-8.973,-15.931,
00:00:06:166,-0.001,1.004,-0.044,-47.791,-1.038,-16.175,
00:00:06:183,-0.01,0.998,-0.032,-41.138,0.122,-9.644,
00:00:06:200,-0.025,0.978,-0.022,-39.246,14.221,-18.25,
00:00:06:216,-0.03,0.958,0,-51.453,20.629,-6.104,
00:00:06:233,-0.013,0.962,-0.008,-54.139,35.766,-0.977,
00:00:06:250,-0.001,0.963,-0.019,-87.342,33.203,14.404,
00:00:06:266,-0.003,0.971,-0.068,-131.775,31.555,9.216,
00:00:06:283,-0.017,0.985,-0.065,-155.884,46.081,15.93,
00:00:06:300,0.001,0.959,-0.082,-131.165,35.156,-11.048,
00:00:06:316,0.024,0.943,-0.092,-107.666,36.865,1.403,
00:00:06:333,0.024,0.95,-0.098,-89.112,22.766,-13.55,
00:00:06:350,-0.005,0.957,-0.109,-115.967,27.832,-30.823,
00:00:06:366,-0.009,0.907,-0.107,-184.937,47.058,-47.73,
00:00:06:383,0.019,0.96,-0.122,-168.152,56.823,-44.19,
00:00:06:400,0.034,1.001,-0.115,-121.033,41.626,-35.279,
00:00:06:416,0.009,0.962,-0.117,-117.859,38.818,-54.627,
00:00:06:433,0.001,0.912,-0.101,-181.885,50.72,-72.876,
00:00:06:450,0,0.912,-0.086,-243.103,56.213,-77.515,
00:00:06:466,0.006,0.96,-0.088,-230.774,50.903,-43.519,
00:00:06:483,0.016,1.032,-0.122,-157.41,40.222,-51.087,
00:00:06:500,0.011,1.017,-0.146,-112.793,38.818,-56.214,
00:00:06:516,0.015,0.956,-0.145,-115.601,36.56,-62.378,
00:00:06:533,0.021,0.923,-0.128,-104.554,26.855,-61.585,
00:00:06:550,0.01,0.982,-0.173,-70.557,18.798,-47.303,
00:00:06:566,0.017,0.964,-0.185,-82.886,19.531,-41.565,
00:00:06:583,0.012,0.97,-0.188,-75.257,13.183,-40.406,
00:00:06:600,0.008,1.032,-0.168,-40.284,10.559,-12.635,
00:00:06:616,0.01,1.019,-0.167,-4.7,11.779,-1.77,
00:00:06:633,0.008,0.986,-0.191,-9.827,16.723,14.587,
00:00:06:650,0.002,0.989,-0.193,-16.541,14.282,26.672,
00:00:06:666,-0.003,1.013,-0.187,-0.977,15.319,42.907,
00:00:06:683,-0.012,0.994,-0.176,41.442,11.962,44.86,
00:00:06:700,-0.023,0.96,-0.167,54.26,12.268,37.597,
00:00:06:716,-0.034,0.931,-0.148,35.949,8.422,28.015,
00:00:06:733,-0.043,0.919,-0.157,11.535,14.099,25.39,
00:00:06:750,-0.025,0.952,-0.15,-28.321,17.273,21.972,
00:00:06:766,-0.017,0.982,-0.151,-48.218,12.023,16.723,
00:00:06:783,-0.024,0.989,-0.157,-70.313,9.399,20.08,
00:00:06:800,-0.032,1.013,-0.179,-83.252,18.249,27.954,
00:00:06:816,-0.037,1.034,-0.179,-52.247,18.798,44.372,
00:00:06:833,-0.025,1.061,-0.169,-11.597,22.461,61.096,
00:00:06:850,-0.026,1.054,-0.149,39.001,18.371,78.43,
00:00:06:866,-0.04,1.041,-0.146,74.279,21.85,95.642,
00:00:06:883,-0.048,1.034,-0.172,106.018,35.705,111.511,
00:00:06:900,-0.047,1.038,-0.187,125.122,47.668,118.408,
00:00:06:916,-0.052,1.024,-0.166,118.164,57.128,119.506,
00:00:06:933,-0.064,0.99,-0.143,127.197,58.776,115.173,
00:00:06:950,-0.075,0.964,-0.12,149.414,64.697,117.797,
00:00:06:966,-0.067,0.99,-0.137,135.192,78.43,123.047,
00:00:06:983,-0.065,1.002,-0.153,136.901,85.632,121.338,
00:00:07:0,-0.067,0.976,-0.119,146.85,85.815,122.619,
00:00:07:16,-0.073,0.945,-0.095,159.973,81.726,111.328,
00:00:07:33,-0.084,0.934,-0.091,138.183,84.961,115.661,
00:00:07:50,-0.095,0.935,-0.104,112.121,88.989,100.952,
00:00:07:66,-0.102,0.932,-0.11,89.904,95.031,85.998,
00:00:07:83,-0.105,0.933,-0.123,77.636,98.693,78.125,
00:00:07:100,-0.115,0.934,-0.121,65.185,99.121,69.03,
00:00:07:116,-0.112,0.935,-0.087,52.856,91.43,61.218,
00:00:07:133,-0.115,0.913,-0.077,54.504,86.547,43.701,
00:00:07:150,-0.114,0.936,-0.108,56.152,92.102,47.729,
00:00:07:166,-0.11,0.968,-0.123,87.951,88.562,50.109,
00:00:07:183,-0.11,0.96,-0.115,105.651,83.862,49.316,
00:00:07:200,-0.115,0.93,-0.098,101.623,82.092,48.278,
00:00:07:216,-0.114,0.957,-0.093,105.163,76.477,55.175,
00:00:07:233,-0.114,0.974,-0.088,129.333,68.786,60.607,
00:00:07:250,-0.122,0.953,-0.095,132.263,64.148,60.119,
00:00:07:266,-0.136,0.933,-0.068,131.408,55.847,54.565,
00:00:07:283,-0.135,0.931,-0.062,132.507,60.913,54.809,
00:00:07:300,-0.132,0.942,-0.053,130.798,61.157,54.443,
00:00:07:316,-0.145,0.956,-0.062,139.892,62.927,50.109,
00:00:07:333,-0.155,0.946,-0.062,148.437,67.138,47.058,
00:00:07:350,-0.15,0.91,-0.034,167.602,61.462,31.86,
00:00:07:366,-0.148,0.91,-0.025,164.123,60.73,27.282,
00:00:07:383,-0.145,0.935,-0.019,170.532,62.866,19.958,
00:00:07:400,-0.148,0.939,-0.03,174.316,66.65,13.732,
00:00:07:416,-0.152,0.916,-0.024,167.419,70.8,4.394,
00:00:07:433,-0.143,0.933,-0.008,147.155,73.242,1.159,
00:00:07:450,-0.137,0.946,-0.004,159.851,74.89,-4.517,
00:00:07:466,-0.143,0.944,0.007,169.189,73.303,-1.831,
00:00:07:483,-0.15,0.943,0.009,171.447,77.209,-6.836,
00:00:07:500,-0.147,0.952,0.006,156.189,77.087,-9.095,
00:00:07:516,-0.15,0.966,0.048,164.245,63.415,-14.954,
00:00:07:533,-0.149,0.966,0.046,160.339,64.758,-7.325,
00:00:07:550,-0.144,0.966,0.047,164.367,65.124,-5.921,
00:00:07:566,-0.152,0.967,0.051,169.25,65.063,-0.061,
00:00:07:583,-0.153,0.969,0.051,166.565,66.101,-2.137,
00:00:07:600,-0.151,0.97,0.064,142.028,67.749,5.31,
00:00:07:616,-0.145,0.994,0.072,156.128,64.941,6.103,
00:00:07:633,-0.154,0.976,0.101,224.548,54.748,3.662,
00:00:07:650,-0.156,0.968,0.108,249.939,55.664,24.841,
00:00:07:666,-0.153,0.978,0.101,264.831,60.73,28.686,
00:00:07:683,-0.156,0.995,0.104,288.086,63.781,38.635,
00:00:07:700,-0.163,0.979,0.107,289.672,61.34,39.245,
00:00:07:716,-0.168,0.933,0.139,275.207,60.424,33.386,
00:00:07:733,-0.173,0.904,0.18,267.822,56.03,33.508,
00:00:07:750,-0.175,0.926,0.18,270.996,57.983,38.452,
00:00:07:766,-0.167,0.963,0.163,284.301,57.434,46.386,
00:00:07:783,-0.169,0.957,0.185,286.865,52.917,49.743,
00:00:07:800,-0.182,0.944,0.196,269.348,53.894,49.011,
00:00:07:816,-0.182,0.919,0.212,226.562,56.579,53.1,
00:00:07:833,-0.186,0.927,0.228,212.219,53.772,48.217,
00:00:07:850,-0.198,0.96,0.236,228.576,52.795,54.016,
00:00:07:866,-0.207,0.936,0.244,246.948,48.95,50.354,
00:00:07:883,-0.213,0.902,0.261,264.465,46.508,45.105,
00:00:07:900,-0.209,0.902,0.271,250.427,46.569,45.715,
00:00:07:916,-0.215,0.894,0.275,236.084,53.405,41.626,
00:00:07:933,-0.215,0.896,0.276,204.895,61.706,32.043,
00:00:07:950,-0.208,0.91,0.275,211.486,61.157,19.958,
00:00:07:966,-0.219,0.896,0.284,228.942,63.049,11.169,
00:00:07:983,-0.216,0.899,0.281,242.126,66.345,6.958,
00:00:08:0,-0.206,0.894,0.307,256.469,70.373,10.192,
00:00:08:16,-0.204,0.903,0.31,276.123,69.763,17.517,
00:00:08:33,-0.209,0.88,0.328,261.779,75.622,17.944,
00:00:08:50,-0.2,0.858,0.342,197.998,80.017,15.686,
00:00:08:66,-0.204,0.854,0.335,175.171,79.528,3.845,
00:00:08:83,-0.205,0.861,0.352,178.711,74.096,0.793,
00:00:08:100,-0.204,0.872,0.359,199.524,68.481,1.037,
00:00:08:116,-0.205,0.82,0.383,179.931,72.753,-1.038,
00:00:08:133,-0.194,0.82,0.385,136.108,71.228,-10.254,
00:00:08:150,-0.183,0.863,0.39,101.989,68.42,-13.794,
00:00:08:166,-0.184,0.881,0.39,115.051,62.683,-22.583,
00:00:08:183,-0.194,0.853,0.399,123.718,64.392,-18.86,
00:00:08:200,-0.194,0.827,0.396,94.116,65.429,-21.912,
00:00:08:216,-0.182,0.841,0.41,57.312,60.607,-15.809,
00:00:08:233,-0.183,0.871,0.42,53.1,53.588,-12.33,
00:00:08:250,-0.188,0.872,0.422,57.8,45.898,-13.916,
00:00:08:266,-0.196,0.831,0.414,58.776,38.696,-21.363,
00:00:08:283,-0.197,0.814,0.424,9.155,34.362,-27.1,
00:00:08:300,-0.192,0.821,0.423,-45.411,30.395,-36.194,
00:00:08:316,-0.182,0.853,0.415,-56.153,24.475,-40.589,
00:00:08:333,-0.189,0.86,0.412,-29.602,22.827,-46.814,
00:00:08:350,-0.198,0.854,0.392,-13.794,29.602,-49.195,
00:00:08:366,-0.182,0.85,0.371,-14.649,39.001,-51.514,
00:00:08:383,-0.164,0.884,0.379,-1.77,34.729,-43.03,
00:00:08:400,-0.17,0.899,0.392,31.738,31.066,-42.42,
00:00:08:416,-0.183,0.882,0.402,53.711,32.898,-33.081,
00:00:08:433,-0.183,0.867,0.393,44.311,31.86,-28.992,
00:00:08:450,-0.184,0.869,0.4,37.597,26.428,-25.879,
00:00:08:466,-0.191,0.874,0.396,48.156,25.146,-27.039,
00:00:08:483,-0.186,0.867,0.402,57.556,22.522,-23.316,
00:00:08:500,-0.187,0.871,0.41,67.993,16.662,-22.889,
00:00:08:516,-0.198,0.871,0.426,77.88,15.319,-20.081,
00:00:08:533,-0.198,0.863,0.425,88.684,19.897,-24.781,
00:00:08:550,-0.189,0.863,0.418,75.256,26.001,-19.776,
00:00:08:566,-0.182,0.873,0.411,66.101,27.465,-20.264,
00:00:08:583,-0.18,0.872,0.431,83.19,29.663,-19.41,
00:00:08:600,-0.182,0.861,0.442,90.026,37.719,-16.053,
00:00:08:616,-0.185,0.837,0.436,56.884,41.87,-11.841,
00:00:08:633,-0.187,0.846,0.435,18.127,32.959,-12.085,
00:00:08:650,-0.193,0.872,0.431,28.442,33.569,-17.762,
00:00:08:666,-0.204,0.859,0.466,51.208,33.081,-19.41,
00:00:08:683,-0.195,0.857,0.434,67.382,31.311,-20.935,
00:00:08:700,-0.185,0.863,0.441,76.171,30.578,-15.992,
00:00:08:716,-0.186,0.871,0.452,86.608,28.32,-14.527,
00:00:08:733,-0.191,0.854,0.453,82.214,29.357,-6.897,
00:00:08:750,-0.189,0.863,0.444,80.139,28.015,-5.005,
00:00:08:766,-0.186,0.871,0.443,116.821,29.663,-2.198,
00:00:08:783,-0.186,0.861,0.453,154.297,30.578,-0.184,
00:00:08:800,-0.187,0.819,0.467,149.963,33.813,-1.526,
00:00:08:816,-0.179,0.796,0.477,94.482,31.066,-8.057,
00:00:08:833,-0.179,0.829,0.479,83.923,23.742,-11.292,
00:00:08:850,-0.187,0.853,0.478,117.736,23.864,-15.992,
00:00:08:866,-0.183,0.829,0.483,149.536,30.09,-17.151,
00:00:08:883,-0.175,0.83,0.483,150.268,27.221,-12.879,
00:00:08:900,-0.177,0.821,0.497,136.535,24.414,-12.574,
00:00:08:916,-0.182,0.821,0.502,126.281,24.597,-10.621,
00:00:08:933,-0.179,0.834,0.5,143.737,17.7,-8.606,
00:00:08:950,-0.182,0.825,0.509,154.907,16.662,-5.738,
00:00:08:966,-0.179,0.81,0.517,148.681,13.732,-5.616,
00:00:08:983,-0.182,0.807,0.514,143.066,12.695,-5.738,
00:00:09:0,-0.182,0.813,0.519,135.376,10.315,-4.639,
00:00:09:16,-0.185,0.822,0.535,139.099,5.004,-6.165,
00:00:09:33,-0.196,0.814,0.541,156.494,10.376,-7.63,
00:00:09:50,-0.188,0.799,0.532,159.179,19.714,-2.015,
00:00:09:66,-0.187,0.792,0.532,165.954,19.592,0,
00:00:09:83,-0.2,0.783,0.553,164.245,25.268,-2.747,
00:00:09:100,-0.199,0.762,0.565,131.897,34.118,-7.63,
00:00:09:116,-0.191,0.774,0.558,97.656,36.865,-9.827,
00:00:09:133,-0.193,0.794,0.567,97.839,32.531,-10.132,
00:00:09:150,-0.199,0.804,0.567,136.474,39.794,-4.212,
00:00:09:166,-0.196,0.795,0.565,161.132,47.18,-1.709,
00:00:09:183,-0.191,0.77,0.576,147.766,49.743,0.183,
00:00:09:200,-0.19,0.779,0.582,137.512,46.02,1.648,
00:00:09:216,-0.188,0.797,0.596,157.287,45.776,6.713,
00:00:09:233,-0.19,0.781,0.589,186.706,50.842,8.911,
00:00:09:250,-0.189,0.754,0.596,193.115,54.87,9.277,
00:00:09:266,-0.187,0.752,0.607,173.339,50.415,11.535,
00:00:09:283,-0.193,0.742,0.623,149.597,55.542,12.329,
00:00:09:300,-0.189,0.728,0.615,137.085,58.044,6.225,
00:00:09:316,-0.179,0.722,0.624,131.103,53.894,9.765,
00:00:09:333,-0.178,0.719,0.627,108.703,51.513,4.76,
00:00:09:350,-0.172,0.74,0.625,105.163,45.288,7.141,
00:00:09:366,-0.174,0.749,0.627,132.507,40.71,4.15,
00:00:09:383,-0.177,0.733,0.624,145.385,39.184,5.004,
00:00:09:400,-0.172,0.724,0.623,138.488,38.879,7.873,
00:00:09:416,-0.167,0.721,0.623,122.07,38.208,7.141,
00:00:09:433,-0.175,0.722,0.64,128.296,34.423,11.23,
00:00:09:450,-0.179,0.72,0.645,149.17,35.888,15.808,
00:00:09:466,-0.185,0.687,0.651,143.615,41.503,11.474,
00:00:09:483,-0.181,0.667,0.652,114.074,40.71,2.624,
00:00:09:500,-0.175,0.691,0.661,96.679,36.254,4.76,
00:00:09:516,-0.18,0.688,0.668,102.539,36.743,-3.113,
00:00:09:533,-0.179,0.689,0.663,105.651,40.283,-7.508,
00:00:09:550,-0.179,0.684,0.672,84.961,42.541,-10.743,
00:00:09:566,-0.183,0.691,0.676,62.744,41.565,-14.1,
00:00:09:583,-0.178,0.719,0.68,69.336,43.151,-8.118,
00:00:09:600,-0.18,0.726,0.679,105.102,47.668,-5.433,
00:00:09:616,-0.178,0.726,0.688,143.859,47.851,-0.123,
00:00:09:633,-0.18,0.711,0.685,161.193,49.682,-0.245,
00:00:09:650,-0.182,0.689,0.685,168.09,59.448,0.915,
00:00:09:666,-0.174,0.678,0.698,154.724,60.485,5.004,
00:00:09:683,-0.172,0.68,0.708,146.362,54.016,9.765,
00:00:09:700,-0.185,0.664,0.71,150.451,52.917,3.173,
00:00:09:716,-0.18,0.651,0.722,145.874,54.077,-0.672,
00:00:09:733,-0.174,0.648,0.717,143.493,52.185,0.793,
00:00:09:750,-0.178,0.637,0.718,140.93,55.786,-3.052,
00:00:09:766,-0.175,0.641,0.716,129.211,60.913,2.075,
00:00:09:783,-0.17,0.636,0.719,118.774,66.65,-1.893,
00:00:09:800,-0.17,0.628,0.726,110.962,62.805,-1.526,
00:00:09:816,-0.17,0.634,0.728,111.267,63.781,0.915,
00:00:09:833,-0.172,0.636,0.728,124.206,68.054,-1.587,
00:00:09:850,-0.167,0.641,0.727,136.108,72.753,1.281,
00:00:09:866,-0.166,0.627,0.729,149.17,74.768,-1.038,
00:00:09:883,-0.167,0.618,0.742,154.419,73.303,2.685,
00:00:09:900,-0.165,0.608,0.75,154.968,75.805,2.746,
00:00:09:916,-0.156,0.613,0.747,154.602,75.805,10.253,
00:00:09:933,-0.157,0.604,0.756,155.883,70.068,9.094,
00:00:09:950,-0.16,0.604,0.758,157.531,66.589,11.901,
00:00:09:966,-0.162,0.597,0.753,159.79,65.795,12.634,
00:00:09:983,-0.162,0.586,0.76,147.338,65.734,8.911,
00:00:10:0,-0.152,0.59,0.768,142.944,61.584,13.305,
00:00:10:16,-0.155,0.584,0.783,150.268,58.654,11.84,
00:00:10:33,-0.16,0.566,0.794,151.001,60.058,14.77,
00:00:10:50,-0.157,0.56,0.794,129.699,59.936,12.878,
00:00:10:66,-0.154,0.572,0.797,117.492,53.649,19.043,
00:00:10:83,-0.158,0.583,0.8,127.38,55.542,20.752,
00:00:10:100,-0.157,0.576,0.802,153.198,64.086,20.446,
00:00:10:116,-0.152,0.564,0.814,177.368,62.439,27.526,
00:00:10:133,-0.151,0.555,0.82,192.016,63.964,29.602,
00:00:10:150,-0.15,0.545,0.823,200.378,67.932,33.264,
00:00:10:166,-0.165,0.514,0.829,180.481,78.064,30.944,
00:00:10:183,-0.159,0.501,0.845,138.977,83.19,21.85,
00:00:10:200,-0.149,0.513,0.843,108.886,89.782,22.277,
00:00:10:216,-0.158,0.5,0.844,113.037,95.153,13.183,
00:00:10:233,-0.149,0.486,0.837,104.492,106.201,8.911,
00:00:10:250,-0.13,0.507,0.839,80.2,98.938,10.681,
00:00:10:266,-0.138,0.513,0.836,95.153,99.182,5.065,
00:00:10:283,-0.143,0.503,0.837,125.976,107.422,4.516,
00:00:10:300,-0.13,0.502,0.841,131.775,110.839,10.62,
00:00:10:316,-0.125,0.503,0.846,126.098,112.732,13.122,
00:00:10:333,-0.122,0.506,0.843,130.005,112.732,14.587,
00:00:10:350,-0.119,0.499,0.832,149.353,115.234,18.066,
00:00:10:366,-0.115,0.493,0.833,160.278,115.173,18.676,
00:00:10:383,-0.113,0.486,0.855,164.062,113.403,17.578,
00:00:10:400,-0.114,0.478,0.857,170.105,111.023,19.409,
00:00:10:416,-0.109,0.468,0.861,183.838,114.135,19.348,
00:00:10:433,-0.106,0.446,0.864,184.204,107.544,16.845,
00:00:10:450,-0.102,0.441,0.871,174.56,102.356,17.273,
00:00:10:466,-0.099,0.445,0.876,151.672,95.947,16.296,
00:00:10:483,-0.098,0.452,0.866,148.254,95.336,19.47,
00:00:10:500,-0.094,0.411,0.869,163.94,95.52,17.761,
00:00:10:516,-0.087,0.424,0.866,174.56,93.383,20.141,
00:00:10:533,-0.087,0.411,0.87,162.048,91.857,25.512,
00:00:10:550,-0.084,0.412,0.887,140.014,84.472,21.301,
00:00:10:566,-0.081,0.414,0.888,136.047,82.58,23.437,
00:00:10:583,-0.082,0.411,0.89,138.183,73.181,20.507,
00:00:10:600,-0.076,0.403,0.888,139.526,70.861,19.836,
00:00:10:616,-0.073,0.395,0.886,140.747,70.068,23.01,
00:00:10:633,-0.079,0.382,0.901,124.511,78.552,22.094,
00:00:10:650,-0.074,0.376,0.916,106.933,79.162,17.578,
00:00:10:666,-0.073,0.382,0.919,97.473,72.815,16.967,
00:00:10:683,-0.076,0.381,0.909,114.441,68.725,13.488,
00:00:10:700,-0.079,0.373,0.907,135.07,69.641,13.244,
00:00:10:716,-0.072,0.361,0.908,133.789,69.213,13.244,
00:00:10:733,-0.064,0.362,0.921,117.797,65.124,11.474,
00:00:10:750,-0.064,0.378,0.924,120.361,62.316,14.526,
00:00:10:766,-0.064,0.36,0.916,137.817,64.758,11.901,
00:00:10:783,-0.055,0.342,0.921,140.625,63.903,11.962,
00:00:10:800,-0.047,0.343,0.919,135.559,57.617,14.77,
00:00:10:816,-0.052,0.355,0.928,140.625,49.804,17.517,
00:00:10:833,-0.053,0.363,0.929,164.672,50.293,21.362,
00:00:10:850,-0.053,0.346,0.929,191.04,53.649,21.057,
00:00:10:866,-0.051,0.322,0.935,187.744,50.17,20.08,
00:00:10:883,-0.051,0.311,0.94,182.129,46.203,22.216,
00:00:10:900,-0.053,0.308,0.941,178.955,41.198,24.963,
00:00:10:916,-0.053,0.31,0.95,188.354,43.09,30.273,
00:00:10:933,-0.054,0.3,0.956,202.27,41.626,15.808,
00:00:10:950,-0.052,0.287,0.961,202.758,40.832,33.142,
00:00:10:966,-0.048,0.274,0.953,196.289,37.048,28.198,
00:00:10:983,-0.05,0.267,0.955,190.796,31.921,29.724,
00:00:11:0,-0.054,0.265,0.963,183.654,34.606,30.883,
00:00:11:16,-0.055,0.26,0.968,184.204,36.193,31.616,
00:00:11:33,-0.054,0.248,0.97,185.669,42.297,33.935,
00:00:11:50,-0.05,0.246,0.964,190.124,38.635,39.611,
00:00:11:66,-0.05,0.238,0.959,202.331,42.785,39.672,
00:00:11:83,-0.05,0.208,0.955,205.139,49.621,37.048,
00:00:11:100,-0.046,0.193,0.959,171.447,54.687,34.729,
00:00:11:116,-0.047,0.189,0.967,119.201,55.236,29.846,
00:00:11:133,-0.054,0.193,0.983,71.472,56.945,28.381,
00:00:11:150,-0.049,0.211,0.978,41.503,53.527,31.005,
00:00:11:166,-0.047,0.232,0.966,63.781,52.612,32.043,
00:00:11:183,-0.047,0.228,0.966,101.928,58.654,33.569,
00:00:11:200,-0.048,0.213,0.967,135.498,62.988,40.954,
00:00:11:216,-0.049,0.189,0.971,131.042,69.091,41.015,
00:00:11:233,-0.039,0.192,0.965,110.046,73.486,46.447,
00:00:11:250,-0.03,0.202,0.96,122.863,70.434,45.41,
00:00:11:266,-0.031,0.203,0.96,163.269,71.411,52.368,
00:00:11:283,-0.025,0.184,0.972,196.899,69.519,52.124,
00:00:11:300,-0.026,0.162,0.977,207.519,72.692,58.349,
00:00:11:316,-0.03,0.159,0.981,214.233,71.96,61.157,
00:00:11:333,-0.029,0.139,0.988,213.501,76.721,63.293,
00:00:11:350,-0.021,0.126,0.985,209.594,74.096,64.453,
00:00:11:366,-0.021,0.122,0.983,210.022,72.387,67.871,
00:00:11:383,-0.017,0.125,0.986,219.36,72.143,69.885,
00:00:11:400,-0.016,0.125,0.988,246.032,73.425,74.34,
00:00:11:416,-0.019,0.112,0.986,269.287,75.683,76.843,
00:00:11:433,-0.017,0.095,0.985,276.184,81.176,80.627,
00:00:11:450,-0.004,0.095,0.988,264.404,77.026,82.519,
00:00:11:466,-0.008,0.059,0.99,264.221,80.627,79.711,
00:00:11:483,-0.005,0.056,0.988,259.948,85.51,89.721,
00:00:11:500,0,0.048,0.994,258.667,82.397,88.562,
00:00:11:516,0.001,0.038,0.995,274.597,80.566,92.468,
00:00:11:533,0.005,0.029,0.996,293.274,78.613,98.449,
00:00:11:550,0.005,0.012,0.994,297.485,78.735,97.045,
00:00:11:566,0.012,0.002,0.996,297.607,76.049,104.187,
00:00:11:583,0.008,-0.027,0.997,279.968,75.805,98.999,
00:00:11:600,0.019,-0.027,0.999,254.211,75.683,103.393,
00:00:11:616,0.015,-0.035,1.001,258.972,76.782,107.727,
00:00:11:633,0.023,-0.042,0.992,269.897,73.303,111.755,
00:00:11:650,0.027,-0.061,0.986,264.282,75.622,107.483,
00:00:11:666,0.036,-0.068,0.99,239.013,68.237,105.59,
00:00:11:683,0.042,-0.073,0.997,222.595,60.974,106.567,
00:00:11:700,0.042,-0.076,0.999,207.275,51.818,102.295,
00:00:11:716,0.036,-0.083,0.987,203.491,47.302,99.487,
00:00:11:733,0.031,-0.1,0.983,199.707,46.936,98.327,
00:00:11:750,0.04,-0.109,0.987,186.95,50.659,95.336,
00:00:11:766,0.045,-0.112,0.987,180.969,49.377,95.459,
00:00:11:783,0.045,-0.117,0.988,181.274,51.269,101.501,
00:00:11:800,0.05,-0.131,0.987,184.448,54.87,104.004,
00:00:11:816,0.056,-0.13,0.979,188.903,54.87,107.849,
00:00:11:833,0.053,-0.136,0.972,195.984,54.87,108.703,
00:00:11:850,0.05,-0.152,0.972,204.345,64.148,107.727,
00:00:11:866,0.057,-0.147,0.978,212.158,59.448,110.901,
00:00:11:883,0.061,-0.148,0.973,232.971,56.091,109.741,
00:00:11:900,0.056,-0.167,0.968,252.746,64.514,113.342,
00:00:11:916,0.062,-0.185,0.967,258.178,68.176,112.609,
00:00:11:933,0.068,-0.189,0.973,267.517,71.289,119.567,
00:00:11:950,0.068,-0.199,0.979,271.179,79.04,124.206,
00:00:11:966,0.082,-0.229,0.978,264.587,87.341,118.835,
00:00:11:983,0.094,-0.246,0.969,253.296,78.125,115.234,
00:00:12:0,0.104,-0.235,0.967,239.257,66.528,114.685,
00:00:12:16,0.118,-0.224,0.961,249.817,49.865,109.375,
00:00:12:33,0.121,-0.233,0.961,275.329,39.306,107.788,
00:00:12:50,0.119,-0.253,0.954,281.128,27.893,106.323,
00:00:12:66,0.108,-0.277,0.954,274.658,22.461,107.544,
00:00:12:83,0.105,-0.298,0.956,268.676,25.024,106.14,
00:00:12:100,0.114,-0.321,0.964,252.441,21.057,97.351,
00:00:12:116,0.115,-0.347,0.967,220.642,13.916,86.792,
00:00:12:133,0.114,-0.348,0.965,182.556,5.188,79.528,
00:00:12:150,0.114,-0.347,0.951,159.484,3.723,68.237,
00:00:12:166,0.11,-0.362,0.949,151.611,7.385,55.053,
00:00:12:183,0.118,-0.361,0.958,130.127,-0.184,47.241,
00:00:12:200,0.113,-0.363,0.952,111.694,-0.794,39.794,
00:00:12:216,0.109,-0.36,0.936,99.731,5.31,29.785,
00:00:12:233,0.11,-0.355,0.942,90.271,5.859,25.451,
00:00:12:250,0.11,-0.352,0.933,95.214,7.995,28.381,
00:00:12:266,0.11,-0.355,0.931,113.403,14.343,29.419,
00:00:12:283,0.108,-0.354,0.946,120.544,19.592,29.907,
00:00:12:300,0.104,-0.36,0.945,108.642,23.254,20.446,
00:00:12:316,0.106,-0.389,0.944,107.422,24.78,14.16,
00:00:12:333,0.113,-0.4,0.938,89.111,25.146,10.742,
00:00:12:350,0.111,-0.402,0.937,74.523,29.296,6.347,
00:00:12:366,0.122,-0.388,0.937,65.673,27.16,1.709,
00:00:12:383,0.116,-0.393,0.952,64.636,26.916,-5.616,
00:00:12:400,0.118,-0.38,0.933,10.864,9.521,-24.353,
00:00:12:416,0.118,-0.374,0.927,4.699,7.934,-28.565,
00:00:12:433,0.117,-0.374,0.93,7.385,7.324,-28.992,
00:00:12:450,0.114,-0.344,0.932,10.559,7.019,-29.847,
00:00:12:466,0.122,-0.378,0.928,7.751,6.164,-34.668,
00:00:12:483,0.119,-0.384,0.912,13.183,-0.367,-43.213,
00:00:12:500,0.127,-0.394,0.918,4.089,-4.212,-51.27,
00:00:12:516,0.121,-0.403,0.925,-5.616,-4.456,-58.289,
00:00:12:533,0.124,-0.414,0.927,-31.311,-3.479,-68.909,
00:00:12:550,0.133,-0.414,0.936,-56.641,-10.315,-82.947,
00:00:12:566,0.141,-0.412,0.952,-138.55,-50.538,-143.189,
00:00:12:583,0.133,-0.403,0.951,-166.626,-63.233,-159.241,
00:00:12:600,0.128,-0.394,0.956,-213.257,-77.698,-179.322,
00:00:12:616,0.125,-0.38,0.94,-254.761,-91.187,-195.679,
00:00:12:633,0.121,-0.356,0.936,-278.565,-100.708,-207.947,
00:00:12:650,0.109,-0.351,0.963,-462.769,-125.428,-268.128,
00:00:12:666,0.116,-0.294,0.935,-531.189,-171.143,-281.434,
00:00:12:683,0.08,-0.279,0.922,-560.059,-174.439,-304.261,
00:00:12:700,0.076,-0.271,0.924,-610.962,-191.407,-325.501,
00:00:12:716,0.087,-0.217,0.929,-648.438,-220.52,-329.529,
00:00:12:733,0.07,-0.151,0.939,-645.081,-241.7,-323.609,
00:00:12:750,0.038,-0.168,0.95,-628.479,-244.446,-341.431,
00:00:12:766,0.054,-0.175,0.961,-693.421,-256.775,-350.037,
00:00:12:783,0.039,-0.161,0.972,-809.876,-280.396,-360.474,
00:00:12:800,0.02,-0.099,0.958,-884.705,-305.054,-362.671,
00:00:12:816,0.029,0.045,0.931,-830.689,-336.243,-338.196,
00:00:12:833,-0.022,0.06,0.928,-712.647,-338.44,-347.352,
00:00:12:850,-0.023,0.013,0.953,-693.97,-330.75,-358.033,
00:00:12:866,-0.017,-0.015,0.983,-799.866,-339.173,-365.784,
00:00:12:883,-0.043,0.005,0.98,-959.107,-350.464,-370.362,
00:00:12:900,-0.05,0.104,0.952,-1042.115,-370.301,-367.432,
00:00:12:916,-0.067,0.186,0.909,-1007.935,-382.325,-371.827,
00:00:12:933,-0.09,0.194,0.882,-1000.977,-376.16,-374.451,
00:00:12:950,-0.141,0.341,0.871,-1099.366,-409.241,-378.235,
00:00:12:966,-0.16,0.366,0.799,-1184.754,-394.471,-366.578,
00:00:12:983,-0.14,0.442,0.765,-1214.783,-387.94,-351.136,
00:00:13:0,-0.127,0.498,0.706,-1210.755,-387.269,-345.948,
00:00:13:16,-0.149,0.533,0.652,-1185.12,-396.79,-340.577,
00:00:13:33,-0.215,0.697,0.601,-1102.906,-383.301,-294.922,
00:00:13:50,-0.218,0.691,0.529,-1050.11,-371.888,-279.786,
00:00:13:66,-0.229,0.7,0.473,-1028.443,-354.981,-277.161,
00:00:13:83,-0.232,0.736,0.442,-1037.293,-337.098,-263.428,
00:00:13:100,-0.229,0.783,0.433,-1046.753,-337.281,-250.55,
00:00:13:116,-0.24,0.817,0.408,-1007.874,-339.417,-247.681,
00:00:13:133,-0.239,0.836,0.359,-963.257,-339.722,-246.949,
00:00:13:150,-0.244,0.826,0.29,-940.857,-343.079,-239.685,
00:00:13:166,-0.25,0.825,0.26,-948.182,-340.394,-238.404,
00:00:13:183,-0.243,0.882,0.232,-941.468,-323.67,-230.469,
00:00:13:200,-0.244,0.926,0.204,-887.146,-308.96,-232.544,
00:00:13:216,-0.234,0.911,0.205,-843.811,-291.626,-231.69,
00:00:13:233,-0.213,0.903,0.143,-833.313,-280.03,-231.202,
00:00:13:250,-0.216,0.918,0.102,-817.139,-276.001,-227.601,
00:00:13:266,-0.226,0.942,0.079,-783.875,-274.292,-230.347,
00:00:13:283,-0.223,0.959,0.008,-725.708,-252.503,-226.014,
00:00:13:300,-0.216,0.975,-0.004,-677.369,-234.559,-233.277,
00:00:13:316,-0.208,0.958,-0.009,-649.17,-215.638,-257.081,
00:00:13:333,-0.196,0.971,-0.004,-635.498,-199.28,-265.625,
00:00:13:350,-0.195,0.976,-0.044,-608.277,-184.876,-267.823,
00:00:13:366,-0.197,0.973,-0.081,-566.529,-174.561,-270.142,
00:00:13:383,-0.197,0.993,-0.108,-528.077,-166.871,-268.25,
00:00:13:400,-0.194,0.989,-0.144,-486.023,-153.931,-278.321,
00:00:13:416,-0.165,1.016,-0.139,-450.867,-138.916,-274.842,
00:00:13:433,-0.147,1.064,-0.146,-415.65,-128.113,-259.461,
00:00:13:450,-0.145,1.054,-0.156,-393.555,-117.798,-255.066,
00:00:13:466,-0.148,1.02,-0.179,-371.155,-108.521,-242.92,
00:00:13:483,-0.13,1.046,-0.213,-359.864,-94.727,-228.638,
00:00:13:500,-0.118,1.04,-0.219,-306.092,-93.323,-216.187,
00:00:13:516,-0.097,1.02,-0.199,-294.068,-86.548,-205.933,
00:00:13:533,-0.072,1.041,-0.24,-210.877,-53.04,-164.673,
00:00:13:550,-0.061,1.029,-0.25,-171.265,-44.739,-151.429,
00:00:13:566,-0.066,1.013,-0.256,-140.32,-37.781,-143.982,
00:00:13:583,-0.065,0.997,-0.237,-137.574,-32.654,-134.827,
00:00:13:600,-0.048,0.992,-0.225,-155.701,-23.682,-127.625,
00:00:13:616,-0.025,0.978,-0.3,-80.628,-5.494,-109.742,
00:00:13:633,-0.012,0.951,-0.287,-101.502,4.333,-111.695,
00:00:13:650,-0.002,0.958,-0.267,-90.943,8.422,-109.864,
00:00:13:666,0.006,0.995,-0.265,-76.722,10.315,-91.797,
00:00:13:683,0.017,0.999,-0.269,-28.199,4.15,-86.731,
00:00:13:700,0.007,0.964,-0.272,-9.278,0.854,-82.093,
00:00:13:716,0.007,0.937,-0.292,-30.396,13.305,-82.825,
00:00:13:733,0,0.924,-0.294,-32.227,19.714,-87.22,
00:00:13:750,0.02,0.954,-0.253,-24.964,18.493,-82.337,
00:00:13:766,0.03,0.946,-0.247,5.859,10.192,-83.008,
00:00:13:783,0.019,0.934,-0.251,28.991,2.258,-81.849,
00:00:13:800,0.015,0.924,-0.284,9.338,1.586,-84.29,
00:00:13:816,0.018,0.92,-0.296,-14.1,5.127,-78.064,
00:00:13:833,0.033,0.94,-0.288,-40.467,6.958,-83.802,
00:00:13:850,0.038,0.946,-0.264,-25.574,-0.977,-82.459,
00:00:13:866,0.034,0.958,-0.22,-7.386,-5.677,-74.097,
00:00:13:883,0.031,0.939,-0.26,-4.578,-7.264,-72.022,
00:00:13:900,0.037,0.933,-0.285,-11.292,-3.846,-65.979,
00:00:13:916,0.036,0.915,-0.294,-29.114,-2.198,-66.407,
00:00:13:933,0.075,1.04,-0.266,-156.434,12.939,-4.09,
00:00:13:950,0.031,0.976,-0.284,-42.725,-10.804,-68.604,
00:00:13:966,0.03,0.965,-0.282,-14.527,-2.747,-21.302,
00:00:13:983,0.041,0.928,-0.319,10.376,1.525,-30.823,
00:00:14:0,0.04,0.908,-0.283,92.651,-12.33,-10.987,
00:00:14:16,0.048,0.89,-0.265,104.065,-5.188,-17.762,
00:00:14:33,0.065,0.916,-0.261,108.276,-1.526,-27.955,
00:00:14:50,0.065,0.913,-0.252,145.813,-8.851,-34.302,
00:00:14:66,0.065,0.927,-0.25,161.132,-11.597,-38.758,
00:00:14:83,0.066,0.934,-0.255,131.225,-4.7,-37.903,
00:00:14:100,0.07,0.975,-0.255,125.366,3.295,-33.997,
00:00:14:116,0.069,0.993,-0.262,165.71,7.019,-23.133,
00:00:14:133,0.017,1.031,-0.271,83.252,21.362,15.564,
00:00:14:150,0.016,0.98,-0.25,145.507,32.959,-20.264,
00:00:14:166,0.044,0.927,-0.233,166.626,37.048,-25.33,
00:00:14:183,0.034,0.956,-0.207,161.987,33.203,-23.133,
00:00:14:200,0.041,0.99,-0.203,196.533,37.963,-26.673,
00:00:14:216,0.059,1.016,-0.179,228.393,32.409,-17.823,
00:00:14:233,0.06,1.005,-0.167,283.508,23.315,-28.321,
00:00:14:250,0.062,1.013,-0.135,347.9,11.23,-21.119,
00:00:14:266,0.085,1.046,-0.113,405.456,0.305,-11.597,
00:00:14:283,0.096,1.062,-0.104,463.073,-26.123,2.99,
00:00:14:300,0.043,1.006,-0.023,675.232,-61.28,14.526,
00:00:14:316,0.048,0.978,0.044,727.111,-92.652,26.611,
00:00:14:333,0.061,0.978,0.091,752.624,-119.812,44.616,
00:00:14:350,0.088,0.981,0.029,790.527,-135.682,48.767,
00:00:14:366,0.099,1.005,0.111,771.911,-175.721,86.364,
00:00:14:383,0.048,0.957,0.145,824.463,-222.962,45.959,
00:00:14:400,0.04,0.939,0.143,803.222,-225.831,48.034,
00:00:14:416,0.078,0.955,0.114,834.228,-241.089,27.404,
00:00:14:433,0.074,0.964,0.129,1024.353,-281.617,-0.855,
00:00:14:450,0.034,0.894,0.15,1255.005,-286.255,-39.673,
00:00:14:466,0.035,0.819,0.205,1371.032,-260.437,-61.768,
00:00:14:483,0.073,0.848,0.227,1402.71,-229.676,-51.575,
00:00:14:500,0.066,0.859,0.261,1477.783,-220.093,-64.881,
00:00:14:516,0.006,0.793,0.309,1568.603,-160.157,-115.662,
00:00:14:533,0.006,0.717,0.336,1585.327,-83.863,-118.592,
00:00:14:550,0.042,0.708,0.37,1527.649,-28.87,-93.75,
00:00:14:566,0.053,0.76,0.441,1453.43,-19.043,-44.617,
00:00:14:583,-0.001,0.699,0.637,1317.016,109.68,-16.358,
00:00:14:600,-0.04,0.601,0.697,1216.491,133.85,-9.339,
00:00:14:616,-0.029,0.557,0.762,1066.833,140.136,7.812,
00:00:14:633,-0.041,0.545,0.765,927.673,144.836,32.959,
00:00:14:650,-0.041,0.587,0.789,883.972,131.286,37.048,
00:00:14:666,-0.009,0.368,0.881,697.448,136.779,-8.667,
00:00:14:683,0.01,0.333,0.909,528.015,116.699,-13.55,
00:00:14:700,0.016,0.361,0.892,379.028,101.745,0.854,
00:00:14:716,0.02,0.412,0.863,329.834,102.417,6.225,
00:00:14:733,0.018,0.374,0.863,388.855,122.741,-16.358,
00:00:14:750,0.041,0.268,0.862,391.479,142.273,-49.622,
00:00:14:766,0.038,0.179,0.846,315.551,170.044,-69.031,
00:00:14:783,0.066,0.25,0.948,167.053,169.189,-78.98,
00:00:14:800,0.111,0.536,1.837,13.366,44.86,-41.81,
00:00:14:816,0.078,0.409,1.149,-217.957,-97.046,-28.687,
00:00:14:833,-0.027,0.279,0.838,4.211,-110.474,-75.257,
00:00:14:850,0.028,0.136,0.84,-9.827,-65.552,-56.275,
00:00:14:866,0.078,0.252,0.877,-245.118,-22.095,-50.11,
00:00:14:883,0.108,0.406,0.906,-275.94,6.958,-49.012,
00:00:14:900,0.109,0.428,0.903,-183.106,16.174,-38.514,
00:00:14:916,0.107,0.336,0.813,-147.767,10.559,-93.628,
00:00:14:933,0.136,0.339,0.89,-157.349,22.949,-74.158,
00:00:14:950,0.172,0.39,0.912,-179.688,-15.198,-85.022,
00:00:14:966,0.083,0.41,0.89,-112.488,-24.109,-45.35,
00:00:14:983,0.022,0.326,0.926,-96.68,-7.691,-70.191,
00:00:15:0,0.049,0.273,0.935,-201.539,-12.024,-80.872,
00:00:15:16,0.088,0.331,0.932,-297.425,-37.842,-80.201,
00:00:15:33,0.109,0.425,0.907,-318.543,-50.965,-68.36,
00:00:15:50,0.075,0.47,0.896,-273.621,-50.782,-67.017,
00:00:15:66,0.054,0.485,0.889,-205.018,-34.668,-52.918,
00:00:15:83,0.051,0.479,0.902,-111.634,-14.283,-40.772,
00:00:15:100,0.054,0.42,0.905,-55.97,4.638,-31.678,
00:00:15:116,0.066,0.365,0.899,-73.67,9.46,-33.936,
00:00:15:133,0.071,0.385,0.9,-128.663,-0.245,-36.622,
00:00:15:150,0.073,0.454,0.89,-151.307,-4.212,-26.551,
00:00:15:166,0.065,0.476,0.879,-104.92,-3.724,-23.682,
00:00:15:183,0.065,0.456,0.874,-74.769,1.77,-17.029,
00:00:15:200,0.074,0.436,0.884,-75.135,3.356,-20.142,
00:00:15:216,0.079,0.453,0.877,-87.83,4.333,-11.658,
00:00:15:233,0.074,0.468,0.874,-76.539,2.502,-9.156,
00:00:15:250,0.07,0.471,0.868,-56.824,4.516,-6.287,
00:00:15:266,0.068,0.462,0.864,-47.73,2.441,-4.761,
00:00:15:283,0.059,0.458,0.866,-41.871,0.427,-1.77,
00:00:15:300,0.063,0.456,0.869,-50.049,3.173,-7.935,
00:00:15:316,0.068,0.477,0.864,-55.97,-2.137,-9.461,
00:00:15:333,0.068,0.49,0.857,-35.645,1.648,-7.935,
00:00:15:350,0.069,0.49,0.857,-11.841,12.451,-3.907,
00:00:15:366,0.069,0.477,0.86,-2.381,16.723,2.99,
00:00:15:383,0.064,0.45,0.862,-3.479,18.798,4.333,
00:00:15:400,0.072,0.448,0.875,-24.781,13.244,1.77,
00:00:15:416,0.06,0.473,0.85,-43.641,10.315,2.868,
00:00:15:433,0.06,0.489,0.862,-39.185,12.39,-0.794,
00:00:15:450,0.056,0.495,0.85,-26.856,14.465,0.854,
00:00:15:466,0.061,0.484,0.85,-15.686,13.244,-1.465,
00:00:15:483,0.076,0.477,0.85,-23.011,9.399,-1.831,
00:00:15:500,0.076,0.471,0.843,-32.471,8.911,-0.184,
00:00:15:516,0.055,0.485,0.854,-31.983,11.718,-6.409,
00:00:15:533,0.055,0.486,0.855,-28.26,8.85,-4.639,
00:00:15:550,0.057,0.491,0.849,-26.673,8.361,-2.869,
00:00:15:566,0.066,0.49,0.874,-29.175,8.85,-6.653,
00:00:15:583,0.059,0.5,0.845,-27.039,10.131,-3.113,
00:00:15:600,0.057,0.508,0.846,-14.161,15.625,-5.188,
00:00:15:616,0.064,0.492,0.85,0.671,17.089,-2.381,
00:00:15:633,0.065,0.49,0.85,-0.55,12.512,0.732,
00:00:15:650,0.057,0.487,0.848,3.54,9.765,0.671,
00:00:15:666,0.055,0.489,0.851,4.821,11.718,-1.099,
00:00:15:683,0.057,0.491,0.849,-1.77,10.742,-5.31,
00:00:15:700,0.061,0.499,0.845,-3.663,13.122,-6.043,
00:00:15:716,0.061,0.495,0.848,11.779,18.92,1.648,
00:00:15:733,0.056,0.484,0.854,14.221,18.066,0.549,
00:00:15:750,0.059,0.481,0.852,1.037,14.099,1.159,
00:00:15:766,0.057,0.484,0.848,-5.005,10.681,0.427,
00:00:15:783,0.057,0.493,0.848,-16.175,10.864,-2.381,
00:00:15:800,0.061,0.494,0.839,-21.058,9.338,-9.217,
00:00:15:816,0.059,0.514,0.833,-24.964,9.033,-11.292,
00:00:15:833,0.05,0.526,0.839,-0.855,13.61,-6.714,
00:00:15:850,0.058,0.5,0.845,21.179,17.395,-4.639,
00:00:15:866,0.058,0.487,0.855,17.15,13.427,-4.212,
00:00:15:883,0.058,0.479,0.848,2.441,9.643,-9.949,
00:00:15:900,0.063,0.497,0.849,-5.494,4.577,-14.893,
00:00:15:916,0.053,0.508,0.838,0.854,5.554,-14.649,
00:00:15:933,0.054,0.506,0.84,9.277,8.056,-13.611,
00:00:15:950,0.054,0.493,0.846,5.92,8.483,-12.391,
00:00:15:966,0.058,0.494,0.844,-6.165,8.056,-14.832,
00:00:15:983,0.058,0.507,0.844,-5.982,6.408,-12.452,
00:00:16:0,0.059,0.506,0.843,7.202,6.774,-8.728,
00:00:16:16,0.04,0.498,0.847,16.418,11.352,-7.081,
00:00:16:33,0.053,0.49,0.845,8.972,15.747,-12.696,
00:00:16:50,0.054,0.489,0.844,0.915,14.587,-9.949,
00:00:16:66,0.06,0.494,0.838,-8.789,12.39,-13.062,
00:00:16:83,0.06,0.505,0.853,-9.034,9.582,-11.048,
00:00:16:100,0.054,0.51,0.835,-4.944,8.972,-8.179,
00:00:16:116,0.051,0.501,0.843,1.831,10.803,-6.592,
00:00:16:133,0.051,0.498,0.843,-1.16,9.765,-13.977,
00:00:16:150,0.053,0.496,0.845,-8.606,11.169,-14.1,
00:00:16:166,0.057,0.498,0.845,-10.865,5.859,-19.349,
00:00:16:183,0.051,0.507,0.84,-11.17,6.164,-0.489,
00:00:16:200,0.05,0.509,0.843,-0.733,10.07,-12.146,
00:00:16:216,0.054,0.491,0.843,1.098,9.704,-12.207,
00:00:16:233,0.055,0.495,0.844,-10.621,5.554,-12.879,
00:00:16:250,0.055,0.505,0.838,-17.884,5.554,-14.649,
00:00:16:266,0.054,0.51,0.836,-14.161,4.821,-11.597,
00:00:16:283,0.035,0.513,0.838,-6.287,9.582,-6.897,
00:00:16:300,0.056,0.507,0.835,0.976,11.596,-10.621,
00:00:16:316,0.052,0.503,0.844,-1.16,9.338,-8.057,
00:00:16:333,0.05,0.5,0.837,-8.973,9.338,-11.292,
00:00:16:350,0.054,0.51,0.841,-14.649,10.376,-9.461,
00:00:16:366,0.053,0.514,0.837,-10.254,13.061,-11.292,
00:00:16:383,0.049,0.51,0.841,-4.151,15.38,-10.743,
00:00:16:400,0.051,0.506,0.838,2.441,15.869,-8.973,
00:00:16:416,0.049,0.5,0.84,1.403,17.578,-9.888,
00:00:16:433,0.054,0.507,0.844,1.098,11.291,-8.362,
00:00:16:450,0.046,0.497,0.841,-6.836,11.657,-10.437,
00:00:16:466,0.056,0.511,0.834,-15.564,9.887,-12.818,
00:00:16:483,0.048,0.521,0.829,-12.574,9.094,-9.827,
00:00:16:500,0.054,0.521,0.834,-3.724,15.38,-10.376,
00:00:16:516,0.043,0.513,0.834,-1.282,17.517,-8.545,
00:00:16:533,0.053,0.514,0.837,5.065,17.7,-9.461,
00:00:16:550,0.052,0.516,0.84,17.395,16.845,-5.31,
00:00:16:566,0.046,0.508,0.836,18.005,22.033,-8.301,
00:00:16:583,0.049,0.502,0.847,7.629,20.874,-9.583,
00:00:16:600,0.05,0.502,0.841,-0.489,21.484,-7.874,
00:00:16:616,0.047,0.51,0.834,-11.414,22.338,-8.789,
00:00:16:633,0.053,0.522,0.83,-10.743,19.531,-3.54,
00:00:16:650,0.051,0.515,0.833,-2.503,17.761,-4.822,
00:00:16:667,0.054,0.503,0.837,-7.203,17.211,-12.574,
00:00:16:683,0.054,0.506,0.833,-18.677,10.864,-16.175,
00:00:16:700,0.056,0.524,0.833,-23.804,9.094,-20.63,
00:00:16:717,0.044,0.522,0.831,-11.414,11.779,-22.583,
00:00:16:733,0.056,0.527,0.831,-6.165,13.183,-22.828,
00:00:16:750,0.051,0.518,0.827,-5.249,10.925,-23.682,
00:00:16:767,0.051,0.513,0.835,-1.954,6.286,-22.522,
00:00:16:783,0.055,0.508,0.832,-1.404,4.882,-22.828,
00:00:16:800,0.049,0.503,0.838,-8.789,7.141,-21.302,
00:00:16:817,0.047,0.52,0.833,-18.128,5.065,-22.644,
00:00:16:833,0.049,0.527,0.828,-10.682,8.606,-22.156,
00:00:16:850,0.051,0.533,0.823,-3.968,11.84,-15.625,
00:00:16:867,0.048,0.519,0.83,8.667,13.855,-15.259,
00:00:16:883,0.05,0.506,0.835,2.319,11.352,-17.884,
00:00:16:900,0.051,0.51,0.835,-10.56,3.173,-19.227,
00:00:16:917,0.051,0.522,0.83,-16.541,6.347,-19.532,
00:00:16:933,0.052,0.526,0.825,-13.306,10.315,-17.518,
00:00:16:950,0.055,0.525,0.822,-5.555,7.934,-19.837,
00:00:16:967,0.053,0.529,0.826,-2.869,11.657,-16.114,
00:00:16:983,0.049,0.515,0.827,-3.663,7.812,-20.081,
00:00:17:0,0.052,0.525,0.831,-10.071,8.056,-19.715,
00:00:17:17,0.048,0.517,0.831,-9.461,9.46,-20.508,
00:00:17:33,0.048,0.521,0.83,-19.41,10.498,-20.997,
00:00:17:50,0.053,0.531,0.825,-16.358,4.455,-19.41,
00:00:17:67,0.056,0.533,0.822,-1.954,2.563,-16.663,
00:00:17:83,0.053,0.523,0.83,7.08,6.286,-16.053,
00:00:17:100,0.046,0.52,0.828,-2.564,8.911,-16.724,
00:00:17:117,0.052,0.525,0.832,-1.77,10.009,-17.64,
00:00:17:133,0.049,0.526,0.828,-2.198,7.08,-15.809,
00:00:17:150,0.052,0.529,0.826,-0.55,5.798,-13.855,
00:00:17:167,0.05,0.527,0.824,2.38,5.615,-14.1,
00:00:17:183,0.046,0.531,0.821,-2.442,6.958,-13.611,
00:00:17:200,0.049,0.531,0.824,3.967,8.789,-15.625,
00:00:17:217,0.049,0.525,0.826,3.234,9.826,-15.259,
00:00:17:233,0.05,0.501,0.832,1.342,5.981,-16.663,
00:00:17:250,0.047,0.529,0.826,5.065,10.253,-16.175,
00:00:17:267,0.052,0.522,0.826,5.493,9.826,-14.405,
00:00:17:283,0.047,0.521,0.824,-4.151,4.638,-18.799,
00:00:17:300,0.045,0.537,0.823,-3.846,2.014,-19.288,
00:00:17:317,0.045,0.536,0.821,5.981,6.408,-16.968,
00:00:17:333,0.048,0.534,0.826,13.549,7.141,-15.931,
00:00:17:350,0.047,0.525,0.826,14.16,7.629,-14.893,
00:00:17:367,0.049,0.525,0.828,3.479,9.643,-17.579,
00:00:17:383,0.048,0.529,0.823,1.892,10.62,-16.541,
00:00:17:400,0.047,0.531,0.822,5.065,10.498,-15.32,
00:00:17:417,0.047,0.53,0.827,5.31,7.995,-13.367,
00:00:17:433,0.044,0.532,0.826,4.15,12.268,-12.33,
00:00:17:450,0.045,0.528,0.825,5.249,8.544,-11.353,
00:00:17:467,0.045,0.525,0.83,6.897,7.446,-13.062,
00:00:17:483,0.046,0.526,0.825,3.295,7.873,-15.32,
00:00:17:500,0.047,0.542,0.824,3.723,7.873,-15.32,
00:00:17:517,0.045,0.532,0.823,11.474,5.92,-14.954,
00:00:17:533,0.046,0.525,0.827,11.413,8.239,-16.785,
00:00:17:550,0.047,0.524,0.824,6.897,7.507,-17.518,
00:00:17:567,0.043,0.521,0.827,3.051,10.437,-18.677,
00:00:17:583,0.042,0.536,0.826,7.507,4.089,-19.654,
00:00:17:600,0.041,0.528,0.829,10.62,9.887,-18.372,
00:00:17:617,0.051,0.523,0.826,4.15,12.451,-15.381,
00:00:17:633,0.042,0.524,0.826,2.38,9.216,-14.039,
00:00:17:650,0.049,0.53,0.823,4.028,6.774,-15.32,
00:00:17:667,0.042,0.521,0.828,0.488,5.493,-16.297,
00:00:17:683,0.046,0.534,0.819,-6.104,3.601,-18.25,
00:00:17:700,0.045,0.54,0.824,4.028,2.868,-17.029,
00:00:17:717,0.042,0.529,0.825,8.911,5.371,-16.358,
00:00:17:733,0.048,0.532,0.831,6.347,7.202,-15.442,
00:00:17:750,0.043,0.526,0.821,6.225,5.432,-15.686,
00:00:17:767,0.041,0.531,0.827,4.638,3.173,-15.686,
00:00:17:783,0.041,0.532,0.822,8.911,5.493,-16.297,
00:00:17:800,0.043,0.526,0.829,10.131,9.277,-18.006,
00:00:17:817,0.043,0.525,0.826,4.821,5.554,-15.32,
00:00:17:833,0.044,0.526,0.822,12.878,9.094,-14.649,
00:00:17:850,0.044,0.531,0.826,3.723,7.812,-16.785,
00:00:17:867,0.04,0.534,0.822,9.216,9.582,-18.677,
00:00:17:883,0.038,0.534,0.824,7.995,11.657,-17.884,
00:00:17:900,0.042,0.53,0.825,12.939,9.765,-16.907,
00:00:17:917,0.04,0.522,0.828,11.169,9.582,-14.649,
00:00:17:933,0.045,0.531,0.824,1.586,10.925,-14.466,
00:00:17:950,0.043,0.534,0.825,9.216,11.474,-12.757,
00:00:17:967,0.041,0.522,0.827,10.803,12.329,-14.588,
00:00:17:983,0.043,0.526,0.833,4.394,9.765,-15.931,
00:00:18:0,0.045,0.527,0.826,2.136,9.277,-15.198,
00:00:18:17,0.041,0.53,0.823,9.826,7.995,-16.541,
00:00:18:33,0.038,0.524,0.822,9.216,8.361,-18.25,
00:00:18:50,0.041,0.533,0.829,6.408,10.437,-19.471,
00:00:18:67,0.042,0.523,0.826,12.573,8.606,-16.663,
00:00:18:83,0.041,0.524,0.828,5.188,5.065,-21.058,
00:00:18:100,0.041,0.534,0.825,2.868,9.216,-23.377,
00:00:18:117,0.048,0.531,0.824,5.798,8.117,-23.682,
00:00:18:133,0.039,0.535,0.824,6.408,6.652,-20.142,
00:00:18:150,0.037,0.525,0.827,13.732,4.272,-22.217,
00:00:18:167,0.041,0.531,0.828,3.906,4.333,-17.456,
00:00:18:183,0.041,0.52,0.823,4.516,4.577,-16.541,
00:00:18:200,0.04,0.53,0.824,-20.264,4.638,-16.846,
00:00:18:217,0.037,0.543,0.819,-10.621,5.554,-13.428,
00:00:18:233,0.037,0.539,0.815,-4.761,8.606,-13.611,
00:00:18:250,0.036,0.538,0.826,-0.306,6.53,-13.611,
00:00:18:267,0.038,0.534,0.818,2.807,8.117,-14.161,
00:00:18:283,0.038,0.529,0.825,-5.127,8.239,-12.879,
00:00:18:300,0.038,0.541,0.818,-2.137,7.751,-10.865,
00:00:18:317,0.036,0.54,0.817,4.15,11.169,-12.696,
00:00:18:333,0.034,0.538,0.822,7.995,10.803,-13.428,
00:00:18:350,0.034,0.532,0.826,4.821,11.779,-15.137,
00:00:18:367,0.042,0.532,0.823,1.709,9.399,-14.649,
00:00:18:383,0.039,0.535,0.821,4.211,4.699,-10.682,
00:00:18:400,0.035,0.53,0.818,5.92,7.629,-9.339,
00:00:18:417,0.039,0.536,0.818,4.089,6.774,-11.17,
00:00:18:433,0.034,0.533,0.821,-0.733,5.615,-15.259,
00:00:18:450,0.041,0.549,0.821,8.972,-0.916,-10.926,
00:00:18:467,0.032,0.566,0.818,71.777,-29.114,12.268,
00:00:18:483,0.025,0.536,0.821,100.647,-20.63,7.69,
00:00:18:500,0.024,0.514,0.831,85.388,-10.926,0.122,
00:00:18:517,0.026,0.501,0.835,53.039,-6.165,-9.583,
00:00:18:533,0.032,0.513,0.838,31.311,-1.893,-13.733,
00:00:18:550,0.02,0.511,0.831,38.452,7.934,-11.658,
00:00:18:567,0.025,0.505,0.835,20.935,9.399,-13.916,
00:00:18:583,0.026,0.507,0.837,6.408,7.751,-17.334,
00:00:18:600,0.025,0.518,0.831,3.479,6.713,-15.686,
00:00:18:617,0.024,0.522,0.832,6.286,9.826,-13.611,
00:00:18:633,0.03,0.51,0.833,3.601,9.338,-15.015,
00:00:18:650,0.03,0.514,0.836,-9.278,6.469,-19.532,
00:00:18:667,0.03,0.527,0.833,-9.888,5.92,-19.104,
00:00:18:683,0.029,0.528,0.83,3.845,6.347,-16.968,
00:00:18:700,0.022,0.514,0.831,5.981,8.117,-17.09,
00:00:18:717,0.028,0.516,0.834,-0.123,7.507,-19.715,
00:00:18:733,0.024,0.522,0.831,-4.7,6.164,-19.471,
00:00:18:750,0.024,0.52,0.828,-6.592,5.249,-21.668,
00:00:18:767,0.024,0.522,0.834,-6.104,5.737,-20.874,
00:00:18:783,0.025,0.519,0.835,-7.874,9.155,-22.034,
00:00:18:800,0.031,0.528,0.836,-7.447,9.155,-17.823,
00:00:18:817,0.023,0.519,0.83,-0.306,7.446,-17.945,
00:00:18:833,0.025,0.521,0.833,-6.897,6.469,-18.555,
00:00:18:850,0.027,0.53,0.825,-6.836,5.554,-17.456,
00:00:18:867,0.022,0.525,0.834,-2.015,6.286,-16.907,
00:00:18:883,0.025,0.533,0.831,0.793,8.85,-14.649,
00:00:18:900,0.021,0.518,0.83,7.324,9.765,-15.076,
00:00:18:917,0.026,0.518,0.839,-0.367,7.873,-18.494,
00:00:18:933,0.022,0.525,0.825,-5.066,8.789,-17.09,
00:00:18:950,0.025,0.535,0.83,-3.663,8.178,-18.982,
00:00:18:967,0.023,0.532,0.825,5.065,9.765,-13.672,
00:00:18:983,0.021,0.521,0.833,5.92,10.192,-18.494,
00:00:19:0,0.025,0.527,0.834,3.418,9.46,-18.799,
00:00:19:17,0.023,0.523,0.828,2.258,6.652,-21.912,
00:00:19:33,0.024,0.529,0.828,3.54,7.812,-20.63,
00:00:19:50,0.023,0.52,0.826,4.211,9.582,-19.532,
00:00:19:67,0.026,0.523,0.829,-1.343,10.742,-18.86,
00:00:19:83,0.02,0.532,0.829,0.671,9.399,-16.419,
00:00:19:100,0.025,0.529,0.831,8.056,8.911,-12.146,
00:00:19:117,0.022,0.521,0.829,11.23,10.498,-12.757,
00:00:19:133,0.024,0.518,0.83,7.568,7.141,-13.306,
00:00:19:150,0.026,0.524,0.826,2.38,8.972,-13.855,
00:00:19:167,0.022,0.531,0.825,-10.132,4.15,-20.874,
00:00:19:183,0.02,0.542,0.826,0.732,8.178,-19.227,
00:00:19:200,0.025,0.524,0.827,9.643,8.728,-21.241,
00:00:19:217,0.027,0.524,0.834,5.31,10.559,-17.823,
00:00:19:233,0.025,0.519,0.83,4.882,9.155,-19.654,
00:00:19:250,0.025,0.526,0.828,-2.93,3.845,-22.4,
00:00:19:267,0.019,0.536,0.823,1.77,5.432,-21.973,
00:00:19:283,0.022,0.529,0.828,8.85,6.53,-19.654,
00:00:19:300,0.022,0.533,0.831,10.62,10.009,-16.724,
00:00:19:317,0.025,0.515,0.833,9.338,9.216,-18.433,
00:00:19:333,0.021,0.521,0.834,-2.076,6.53,-18.25,
00:00:19:350,0.024,0.527,0.829,-0.916,4.943,-19.959,
00:00:19:367,0.023,0.533,0.828,4.333,4.76,-18.433,
00:00:19:383,0.021,0.535,0.826,6.652,5.92,-19.043,
00:00:19:400,0.016,0.526,0.827,3.112,7.385,-16.602,
00:00:19:417,0.025,0.526,0.835,6.591,6.836,-17.456,
00:00:19:433,0.028,0.52,0.831,0.671,6.042,-16.358,
00:00:19:450,0.019,0.533,0.826,-8.667,5.493,-15.87,
00:00:19:467,0.023,0.536,0.82,-6.531,8.239,-17.518,
00:00:19:483,0.02,0.531,0.827,2.563,6.591,-17.212,
00:00:19:500,0.015,0.533,0.826,5.127,8.483,-14.1,
00:00:19:517,0.018,0.532,0.827,10.192,9.094,-12.879,
00:00:19:533,0.02,0.525,0.831,9.887,8.85,-11.719,
00:00:19:550,0.021,0.516,0.825,2.441,7.202,-16.785,
00:00:19:567,0.02,0.532,0.832,-4.212,5.127,-21.912,
00:00:19:583,0.023,0.541,0.825,1.037,5.31,-21.241,
00:00:19:600,0.019,0.542,0.822,12.451,6.897,-19.715,
00:00:19:617,0.023,0.531,0.826,22.583,10.192,-17.09,
00:00:19:633,0.024,0.519,0.831,16.967,6.225,-18.494,
00:00:19:650,0.023,0.524,0.83,6.958,3.723,-20.02,
00:00:19:667,0.017,0.529,0.824,17.517,12.817,-20.142,
00:00:19:683,0.021,0.525,0.832,23.437,11.23,-17.273,
00:00:19:700,0.018,0.514,0.831,13.183,9.887,-18.799,
00:00:19:717,0.022,0.524,0.833,2.929,7.812,-21.546,
00:00:19:733,0.02,0.526,0.824,2.136,4.333,-21.241,
00:00:19:750,0.018,0.521,0.827,7.69,7.873,-20.081,
00:00:19:767,0.02,0.52,0.829,-2.076,6.836,-18.738,
00:00:19:783,0.017,0.523,0.825,-5.738,5.981,-17.884,
00:00:19:800,0.018,0.527,0.828,-2.93,8.85,-18.677,
00:00:19:817,0.022,0.532,0.828,-4.09,9.948,-15.992,
00:00:19:833,0.017,0.526,0.828,-1.709,8.667,-18.86,
00:00:19:850,0.02,0.526,0.822,-13.367,6.286,-23.621,
00:00:19:867,0.019,0.543,0.817,-9.949,4.211,-23.804,
00:00:19:883,0.019,0.538,0.827,6.225,5.31,-20.386,
00:00:19:900,0.018,0.522,0.831,5.188,7.934,-19.959,
00:00:19:917,0.019,0.526,0.828,-2.564,6.897,-23.621,
00:00:19:933,0.018,0.523,0.822,4.394,7.263,-18.006,
00:00:19:950,0.021,0.523,0.835,-5.555,4.76,-18.677,
00:00:19:967,0.021,0.532,0.828,-10.01,4.455,-20.997,
00:00:19:983,0.019,0.532,0.828,-4.395,1.953,-20.874,
00:00:20:0,0.02,0.546,0.821,-3.663,-0.428,-21.973,
00:00:20:17,0.014,0.532,0.822,12.939,4.455,-21.302,
00:00:20:33,0.017,0.528,0.827,6.53,3.479,-21.546,
00:00:20:50,0.017,0.527,0.829,1.159,3.479,-21.79,
00:00:20:67,0.022,0.528,0.828,-3.663,2.38,-20.081,
00:00:20:83,0.019,0.539,0.822,-5.982,1.464,-20.752,
00:00:20:100,0.018,0.542,0.821,-2.991,4.394,-20.997,
00:00:20:117,0.015,0.551,0.819,7.324,4.699,-20.813,
00:00:20:133,0.013,0.531,0.823,16.052,6.042,-22.583,
00:00:20:150,0.017,0.533,0.83,13,4.455,-25.208,
00:00:20:167,0.017,0.526,0.821,13.244,2.99,-25.94,
00:00:20:183,0.018,0.531,0.826,9.948,2.014,-24.292,
00:00:20:200,0.012,0.537,0.825,7.08,3.784,-23.621,
00:00:20:217,0.016,0.532,0.828,13.794,9.643,-22.889,
00:00:20:233,0.017,0.525,0.823,12.268,8.789,-23.499,
00:00:20:250,0.016,0.535,0.824,5.127,4.516,-19.898,
00:00:20:267,0.012,0.531,0.82,6.225,8.239,-20.874,
00:00:20:283,0.015,0.533,0.822,1.831,8.422,-23.316,
00:00:20:300,0.012,0.539,0.822,6.408,8.606,-21.058,
00:00:20:317,0.02,0.529,0.82,3.906,6.53,-20.203,
00:00:20:333,0.016,0.534,0.829,3.356,4.76,-19.532,
00:00:20:350,0.016,0.529,0.823,3.479,6.347,-18.067,
00:00:20:367,0.013,0.533,0.827,-1.404,7.446,-18.189,
00:00:20:383,0.02,0.537,0.82,-10.682,4.76,-21.851,
00:00:20:400,0.014,0.538,0.822,3.601,6.408,-18.677,
00:00:20:417,0.015,0.537,0.824,6.042,4.089,-17.762,
00:00:20:433,0.015,0.526,0.827,5.432,5.554,-15.992,
00:00:20:450,0.016,0.534,0.826,-3.663,3.234,-19.043,
00:00:20:467,0.016,0.535,0.82,-1.587,4.15,-19.227,
00:00:20:483,0.015,0.541,0.822,0.915,3.479,-16.48,
00:00:20:500,0.007,0.537,0.82,2.929,5.127,-16.419,
00:00:20:517,0.014,0.535,0.827,0.61,7.873,-17.945,
00:00:20:533,0.013,0.539,0.819,10.253,6.042,-13.977,
00:00:20:550,0.015,0.537,0.817,15.747,4.638,-10.621,
00:00:20:567,0.011,0.534,0.825,23.803,5.249,-7.691,
00:00:20:583,0.008,0.529,0.824,22.399,7.141,-10.071,
00:00:20:600,0.012,0.537,0.822,17.7,8.789,-9.095,
00:00:20:617,0.01,0.538,0.821,24.169,9.643,-6.714,
00:00:20:633,0.011,0.537,0.82,36.377,9.094,-2.076,
00:00:20:650,0.006,0.531,0.821,39.917,8.422,-4.517,
00:00:20:667,0.015,0.525,0.837,31.005,9.643,-7.081,
00:00:20:683,0.012,0.526,0.829,20.385,6.286,-9.339,
00:00:20:700,0.011,0.53,0.824,11.291,4.638,-12.33,
00:00:20:717,0.009,0.562,0.821,6.408,5.859,-19.837,
00:00:20:733,0.01,0.535,0.827,4.455,4.882,-21.302,
00:00:20:750,0.009,0.538,0.832,7.934,4.455,-19.288,
00:00:20:767,0.01,0.53,0.828,11.901,4.943,-17.029,
00:00:20:783,0.007,0.516,0.831,5.432,4.089,-18.128,
00:00:20:800,0.013,0.527,0.827,-3.296,1.525,-19.043,
00:00:20:817,0.006,0.536,0.823,-2.686,4.272,-16.48,
00:00:20:833,0.009,0.54,0.823,6.836,8.3,-14.466,
00:00:20:850,0.005,0.522,0.827,11.474,8.178,-15.198,
00:00:20:867,0.011,0.532,0.831,0.793,5.554,-19.349,
00:00:20:883,0.008,0.54,0.82,1.342,6.164,-19.593,
00:00:20:900,0.01,0.537,0.825,11.047,9.155,-18.86,
00:00:20:917,0.006,0.53,0.826,16.723,8.667,-18.189,
00:00:20:933,0.009,0.537,0.826,12.451,9.521,-21.973,
00:00:20:950,0.007,0.532,0.826,20.996,9.826,-19.349,
00:00:20:967,0.013,0.525,0.832,20.446,11.23,-19.776,
00:00:20:983,0.009,0.523,0.832,17.822,7.812,-21.851,
00:00:21:0,0.007,0.527,0.827,10.437,8.728,-23.56,
00:00:21:17,0.01,0.537,0.83,12.146,9.094,-24.476,
00:00:21:33,0.007,0.54,0.82,22.033,9.887,-21.424,
00:00:21:50,0.009,0.529,0.829,27.71,7.751,-19.349,
00:00:21:67,0.007,0.525,0.829,29.541,5.981,-20.691,
00:00:21:83,0.009,0.527,0.826,31.677,5.859,-21.058,
00:00:21:100,0.014,0.532,0.83,41.626,0.549,-17.823,
00:00:21:117,0.007,0.519,0.829,54.992,-2.076,-15.259,
00:00:21:133,0.007,0.516,0.839,52.185,-1.709,-14.832,
00:00:21:150,0.008,0.528,0.83,55.481,-6.714,-13.001,
00:00:21:167,0.003,0.525,0.832,66.772,-3.724,-13.245,
00:00:21:183,0.004,0.521,0.838,68.786,-1.526,-15.32,
00:00:21:200,0.003,0.51,0.839,67.504,0.915,-16.053,
00:00:21:217,0.006,0.5,0.839,57.006,2.807,-23.499,
00:00:21:233,0,0.504,0.844,49.377,4.028,-22.034,
00:00:21:250,0,0.498,0.843,40.954,8.911,-30.762,
00:00:21:267,0.003,0.507,0.842,28.686,8.422,-34.974,
00:00:21:283,0.007,0.515,0.839,38.818,11.291,-31.128,
00:00:21:300,0.007,0.504,0.845,38.574,13.794,-28.26,
00:00:21:317,-0.005,0.491,0.844,33.508,13.671,-30.823,
00:00:21:333,0.01,0.499,0.847,23.864,15.441,-35.828,
00:00:21:350,0.006,0.496,0.84,23.864,16.723,-35.218,
00:00:21:367,0.007,0.496,0.846,17.639,17.089,-36.072,
00:00:21:383,0.007,0.491,0.841,12.939,15.014,-35.828,
00:00:21:400,0.016,0.507,0.844,10.681,14.709,-36.866,
00:00:21:417,0.005,0.501,0.844,19.409,14.892,-33.814,
00:00:21:433,0.007,0.5,0.843,17.089,30.456,-34.241,
00:00:21:450,0.009,0.495,0.851,18.615,0.366,-33.265,
00:00:21:467,0.009,0.494,0.848,10.864,16.601,-33.326,
00:00:21:483,0.01,0.489,0.85,9.216,14.77,-33.204,
00:00:21:500,0.014,0.506,0.844,6.225,14.465,-31.434,
00:00:21:517,0.01,0.496,0.852,11.901,12.39,-32.044,
00:00:21:533,0.008,0.499,0.85,6.958,10.376,-34.058,
00:00:21:550,0.012,0.505,0.844,6.286,12.329,-35.34,
00:00:21:567,0.013,0.501,0.846,11.962,13.366,-36.866,
00:00:21:583,0.01,0.499,0.849,12.39,13.61,-34.79,
00:00:21:600,0.012,0.496,0.848,14.282,15.441,-33.631,
00:00:21:617,0.013,0.497,0.85,10.253,15.686,-34.607,
00:00:21:633,0.015,0.493,0.848,7.263,17.15,-36.377,
00:00:21:650,0.019,0.492,0.849,-0.306,15.075,-39.002,
00:00:21:667,0.019,0.494,0.85,-4.944,14.587,-39.795,
00:00:21:683,0.019,0.501,0.845,-4.395,13.366,-36.805,
00:00:21:700,0.01,0.508,0.846,2.807,15.441,-31.8,
00:00:21:717,0.012,0.495,0.849,5.798,22.522,-32.227,
00:00:21:733,0.018,0.491,0.851,-2.076,23.803,-33.081,
00:00:21:750,0.019,0.494,0.848,-7.325,21.179,-31.373,
00:00:21:767,0.02,0.508,0.848,-9.217,20.996,-28.992,
00:00:21:783,0.015,0.501,0.845,-0.061,23.498,-27.466,
00:00:21:800,0.024,0.5,0.85,-1.221,25.451,-25.94,
00:00:21:817,0.025,0.498,0.85,-0.367,27.771,-26.551,
00:00:21:833,0.026,0.497,0.845,-3.174,28.32,-28.321,
00:00:21:850,0.024,0.506,0.845,-7.019,29.235,-31.495,
00:00:21:867,0.024,0.504,0.838,-4.944,30.212,-33.204,
00:00:21:883,0.022,0.508,0.84,-1.221,31.433,-32.532,
00:00:21:900,0.026,0.498,0.844,4.638,30.944,-35.95,
00:00:21:917,0.025,0.501,0.848,-2.747,32.409,-37.842,
00:00:21:933,0.028,0.511,0.841,-3.235,39.184,-38.88,
00:00:21:950,0.033,0.504,0.85,10.009,39.978,-36.622,
00:00:21:967,0.039,0.495,0.847,6.408,35.949,-41.504,
00:00:21:983,0.037,0.5,0.842,5.249,31.25,-42.115,
00:00:22:0,0.037,0.52,0.841,7.202,26.306,-43.702,
00:00:22:17,0.029,0.511,0.84,25.817,27.16,-42.847,
00:00:22:33,0.034,0.499,0.848,26.367,28.381,-41.565,
00:00:22:50,0.041,0.494,0.847,20.935,28.076,-42.481,
00:00:22:67,0.041,0.493,0.849,15.869,26.367,-40.528,
00:00:22:83,0.04,0.494,0.846,13,27.954,-39.185,
00:00:22:100,0.04,0.491,0.847,4.333,26.794,-42.786,
00:00:22:117,0.046,0.507,0.841,-5.738,23.376,-45.411,
00:00:22:133,0.044,0.516,0.839,8.911,23.986,-40.223,
00:00:22:150,0.041,0.505,0.847,23.803,25.695,-41.016,
00:00:22:167,0.052,0.498,0.852,25.207,25.634,-41.016,
00:00:22:183,0.042,0.483,0.85,20.385,27.16,-40.894,
00:00:22:200,0.045,0.484,0.841,4.943,19.226,-44.739,
00:00:22:217,0.048,0.499,0.843,-4.822,19.104,-42.908,
00:00:22:233,0.048,0.506,0.847,1.22,20.263,-39.856,
00:00:22:250,0.047,0.498,0.852,14.831,25.756,-39.002,
00:00:22:267,0.053,0.494,0.85,15.136,30.395,-38.514,
00:00:22:283,0.056,0.49,0.847,8.85,27.16,-39.429,
00:00:22:300,0.055,0.494,0.847,-0.611,21.545,-40.345,
00:00:22:317,0.053,0.507,0.845,-6.165,19.775,-41.81,
00:00:22:333,0.056,0.505,0.833,5.859,20.385,-38.086,
00:00:22:350,0.057,0.504,0.846,17.517,22.277,-38.331,
00:00:22:367,0.056,0.498,0.85,30.029,23.986,-34.18,
00:00:22:383,0.056,0.489,0.851,24.78,26.001,-35.34,
00:00:22:400,0.057,0.486,0.845,16.296,26.184,-38.453,
00:00:22:417,0.064,0.498,0.853,11.108,23.132,-39.856,
00:00:22:433,0.064,0.506,0.843,16.967,26.794,-41.26,
00:00:22:450,0.057,0.501,0.843,28.381,28.503,-39.368,
00:00:22:467,0.058,0.493,0.847,30.395,29.602,-39.49,
00:00:22:483,0.067,0.487,0.848,28.076,30.029,-38.819,
00:00:22:500,0.07,0.481,0.848,22.644,24.719,-42.969,
00:00:22:517,0.07,0.491,0.849,15.93,20.69,-41.504,
00:00:22:533,0.069,0.494,0.844,19.348,19.836,-41.871,
00:00:22:550,0.064,0.492,0.853,21.789,23.925,-42.237,
00:00:22:567,0.072,0.493,0.854,29.113,25.512,-38.025,
00:00:22:583,0.064,0.476,0.853,29.785,23.376,-40.589,
00:00:22:600,0.072,0.482,0.854,18.859,18.737,-39.978,
00:00:22:617,0.069,0.482,0.845,12.39,17.456,-37.537,
00:00:22:633,0.073,0.488,0.851,13.794,20.507,-32.593,
00:00:22:650,0.072,0.486,0.848,13.855,23.498,-30.64,
00:00:22:667,0.077,0.482,0.855,13.855,21.911,-28.077,
00:00:22:683,0.076,0.475,0.852,8.606,17.517,-28.687,
00:00:22:700,0.077,0.477,0.849,-2.503,17.761,-28.443,
00:00:22:717,0.076,0.483,0.854,-5.127,16.113,-31.8,
00:00:22:733,0.076,0.491,0.841,-3.052,15.197,-31.434,
00:00:22:750,0.076,0.491,0.848,-0.489,15.441,-28.443,
00:00:22:767,0.077,0.488,0.85,-15.564,12.451,-31.067,
00:00:22:783,0.084,0.489,0.846,-0.123,11.474,-29.541,
00:00:22:800,0.078,0.487,0.851,1.403,9.277,-31.311,
00:00:22:817,0.078,0.486,0.85,-3.724,10.253,-30.335,
00:00:22:833,0.08,0.494,0.85,-3.724,10.498,-28.87,
00:00:22:850,0.074,0.495,0.845,9.094,10.742,-23.804,
00:00:22:867,0.073,0.477,0.85,15.625,12.939,-26.49,
00:00:22:883,0.077,0.477,0.843,5.615,14.526,-25.33,
00:00:22:900,0.082,0.489,0.851,-2.686,11.779,-27.771,
00:00:22:917,0.075,0.502,0.841,0.183,12.207,-26.612,
00:00:22:933,0.083,0.498,0.847,21.24,15.014,-24.476,
00:00:22:950,0.078,0.487,0.847,26.977,13.122,-24.353,
00:00:22:967,0.079,0.481,0.848,22.583,17.028,-25.818,
00:00:22:983,0.084,0.483,0.851,13.366,13.061,-25.94,
00:00:23:0,0.079,0.483,0.849,17.517,7.202,-23.316,
00:00:23:17,0.08,0.479,0.854,20.324,5.737,-21.241,
00:00:23:33,0.076,0.479,0.835,7.263,7.446,-21.729,
00:00:23:50,0.086,0.487,0.848,6.103,6.958,-19.349,
00:00:23:67,0.073,0.473,0.834,11.779,8.606,-23.804,
00:00:23:83,0.091,0.483,0.844,2.502,6.408,-18.372,
00:00:23:100,0.074,0.476,0.843,4.394,2.746,-25.33,
00:00:23:117,0.081,0.484,0.847,1.648,5.981,-17.64,
00:00:23:133,0.075,0.47,0.85,8.239,-1.343,-24.353,
00:00:23:150,0.079,0.478,0.847,1.403,-1.404,-18.189,
00:00:23:167,0.077,0.478,0.853,1.648,-2.076,-23.987,
00:00:23:183,0.079,0.487,0.844,-2.381,-2.503,-23.072,
00:00:23:200,0.083,0.488,0.842,1.22,-3.785,-28.199,
00:00:23:217,0.082,0.499,0.841,4.089,-6.897,-25.696,
00:00:23:233,0.077,0.477,0.853,10.376,-2.991,-25.269,
00:00:23:250,0.073,0.482,0.852,8.117,-0.672,-27.832,
00:00:23:267,0.073,0.482,0.849,3.295,3.723,-29.419,
00:00:23:283,0.076,0.486,0.848,1.159,5.92,-29.725,
00:00:23:300,0.072,0.488,0.843,6.042,6.774,-31.128,
00:00:23:317,0.073,0.476,0.817,-4.7,9.338,-29.236,
00:00:23:333,0.07,0.47,0.837,12.878,2.563,-39.856,
00:00:23:350,0.079,0.469,0.834,-5.494,-1.282,-29.236,
00:00:23:367,0.076,0.465,0.837,-31.556,-5.372,-36.438,
00:00:23:383,0.08,0.456,0.87,-53.528,-12.818,-55.481,
00:00:23:400,0.084,0.495,0.832,-71.473,-49.805,-63.538,
00:00:23:417,0.069,0.514,0.827,-72.022,-51.087,-59.876,
00:00:23:433,0.063,0.528,0.836,-45.594,-50.843,-47.486,
00:00:23:450,0.056,0.514,0.842,-30.457,-35.218,-39.429,
00:00:23:467,0.065,0.49,0.83,-40.162,-21.546,-37.171,
00:00:23:483,0.073,0.49,0.852,-56.946,-15.015,-14.466,
00:00:23:500,0.031,0.473,0.869,-46.143,-5.127,-6.348,
00:00:23:517,0.066,0.491,0.873,-43.213,14.465,12.023,
00:00:23:533,0.091,0.51,0.86,-45.35,12.085,24.047,
00:00:23:550,0.062,0.514,0.861,-51.209,18.127,31.86,
00:00:23:567,0.055,0.515,0.849,-68.177,36.377,29.541,
00:00:23:583,0.068,0.526,0.875,-95.765,42.297,23.803,
00:00:23:600,0.048,0.542,0.884,-130.31,37.719,19.897,
00:00:23:617,0.05,0.548,0.86,-108.216,57.495,11.535,
00:00:23:633,0.053,0.555,0.862,-42.115,71.167,18.798,
00:00:23:650,0.066,0.54,0.854,6.774,75.866,22.888,
00:00:23:667,0.071,0.506,0.85,2.258,76.782,16.54,
00:00:23:683,0.085,0.489,0.842,-58.106,74.707,14.831,
00:00:23:700,0.086,0.45,0.856,-153.931,60.18,8.789,
00:00:23:717,0.093,0.498,0.864,-265.259,20.141,19.47,
00:00:23:733,0.072,0.559,0.831,-299.317,-3.907,12.146,
00:00:23:750,0.073,0.644,0.783,-239.685,-41.993,21.24,
00:00:23:767,0.007,0.584,0.789,-154.175,-40.955,13.549,
00:00:23:783,0.018,0.554,0.796,-261.17,-46.875,19.165,
00:00:23:800,0.046,0.642,0.811,-414.49,-102.967,42.541,
00:00:23:817,-0.031,0.72,0.817,-442.078,-134.522,61.828,
00:00:23:833,-0.027,0.718,0.784,-405.64,-133.973,72.57,
00:00:23:850,-0.012,0.689,0.765,-406.983,-149.109,90.454,
00:00:23:867,-0.032,0.677,0.765,-462.647,-168.824,113.159,
00:00:23:883,-0.038,0.671,0.786,-568.543,-189.698,127.624,
00:00:23:900,-0.077,0.729,0.564,-1022.217,-148.682,178.65,
00:00:23:917,-0.097,0.779,0.502,-1032.044,-91.614,178.1,
00:00:23:933,-0.083,0.772,0.466,-1062.5,-36.316,174.865,
00:00:23:950,-0.057,0.77,0.455,-1145.02,0.549,163.513,
00:00:23:967,-0.065,0.795,0.441,-1159.18,33.996,145.141,
00:00:23:983,-0.08,0.812,0.403,-1108.765,77.453,120.971,
00:00:24:0,-0.079,0.674,0.215,-1189.637,181.884,26.733,
00:00:24:17,-0.042,0.724,0.154,-1283.997,186.34,0.122,
00:00:24:33,-0.028,0.795,0.133,-1267.395,187.255,-36.255,
00:00:24:50,-0.025,0.845,0.105,-1170.044,194.702,-66.04,
00:00:24:67,-0.005,0.889,0.062,-1057.862,196.472,-80.262,
00:00:24:83,0.015,0.91,0.036,-972.413,184.57,-115.54,
00:00:24:100,0.027,0.875,0.021,-901.795,180.908,-145.386,
00:00:24:117,0.041,0.872,-0.008,-833.802,183.654,-153.443,
00:00:24:133,0.069,0.953,-0.055,-781.556,185.852,-134.278,
00:00:24:150,0.075,1.019,-0.05,-643.982,173.462,-136.475,
00:00:24:167,0.066,1.079,-0.058,-262.085,129.943,-111.512,
00:00:24:183,0.034,1.025,-0.079,-90.027,111.877,-99.183,
00:00:24:200,0.01,0.982,-0.061,-19.898,100.952,-94.605,
00:00:24:217,0.007,0.96,-0.042,-27.649,97.595,-101.075,
00:00:24:233,0.028,0.959,-0.009,-72.571,83.74,-100.342,
00:00:24:250,0.028,0.997,-0.004,-141.053,61.401,-79.529,
00:00:24:267,0.026,1.031,-0.012,-141.419,36.804,-74.646,
00:00:24:283,0.021,1.041,-0.056,-80.933,15.014,-47.608,
00:00:24:300,0.007,1.008,-0.059,-50.782,5.493,-51.636,
00:00:24:317,-0.004,0.954,-0.065,-100.708,13.916,-55.664,
00:00:24:333,-0.004,0.932,-0.092,-147.339,31.005,-68.909,
00:00:24:350,0.015,0.978,-0.101,-231.934,46.081,-54.566,
00:00:24:367,0.017,1.002,-0.134,-276.185,45.166,-46.936,
00:00:24:383,-0.003,0.984,-0.168,-273.499,53.039,-48.218,
00:00:24:400,-0.007,0.964,-0.198,-320.008,79.895,-51.331,
00:00:24:417,0.008,0.993,-0.223,-363.038,97.717,-45.472,
00:00:24:433,0.002,0.992,-0.241,-353.394,117.248,-47.242,
00:00:24:450,-0.005,0.978,-0.229,-342.835,131.652,-64.331,
00:00:24:467,0.031,0.887,-0.248,-315.796,122.924,-99.244,
00:00:24:483,0.055,0.942,-0.236,-322.144,106.018,-92.957,
00:00:24:500,0.038,0.934,-0.292,-277.955,100.463,-89.6,
00:00:24:517,0.047,0.931,-0.316,-271.668,95.336,-88.562,
00:00:24:533,0.06,0.922,-0.326,-266.114,79.711,-56.336,
00:00:24:550,0.025,0.943,-0.321,-199.097,65.307,-56.946,
00:00:24:567,0.045,0.966,-0.334,-183.655,59.57,-49.256,
00:00:24:583,0.047,0.936,-0.335,-124.085,38.33,-46.753,
00:00:24:600,0.043,0.897,-0.315,-139.039,38.513,-41.871,
00:00:24:617,0.062,0.922,-0.317,-184.144,38.94,-46.021,
00:00:24:633,0.054,0.919,-0.348,-91.858,1.22,-35.645,
00:00:24:650,0.055,0.896,-0.352,-79.224,-4.395,-43.152,
00:00:24:667,0.061,0.895,-0.362,-98.389,-4.944,-45.838,
00:00:24:683,0.052,0.905,-0.372,-73.609,-8.301,-42.908,
00:00:24:700,0.044,0.904,-0.384,-36.194,-7.264,-43.396,
00:00:24:717,0.032,0.978,-0.402,-11.719,-2.381,-21.485,
00:00:24:733,0.024,0.95,-0.423,1.342,6.225,-13.55,
00:00:24:750,0.022,0.928,-0.371,-18.982,3.418,-26.429,
00:00:24:767,0.012,0.984,-0.382,-12.146,17.944,-8.912,
00:00:24:783,0.026,1.032,-0.382,80.566,11.657,9.277,
00:00:24:800,0.02,0.999,-0.386,142.089,13.671,24.963,
00:00:24:817,-0.006,0.935,-0.368,160.888,19.287,22.888,
00:00:24:833,0,0.965,-0.354,161.499,30.517,32.531,pourRH
00:00:24:850,0.011,0.965,-0.341,192.566,29.602,44.006,
00:00:24:867,0.002,0.933,-0.357,192.26,32.287,38.94,
00:00:24:883,-0.008,0.929,-0.352,156.738,43.579,29.907,
00:00:24:900,-0.002,0.968,-0.375,98.022,68.298,42.724,
00:00:24:917,-0.009,0.973,-0.374,116.76,75.988,55.297,
00:00:24:933,-0.013,0.978,-0.37,122.558,85.388,69.885,
00:00:24:950,-0.019,0.984,-0.353,125.305,91.796,84.228,
00:00:24:967,-0.017,1.016,-0.327,139.709,96.13,96.862,
00:00:24:983,-0.031,0.951,-0.309,193.359,93.261,110.656,
00:00:25:0,-0.033,0.944,-0.321,199.585,106.872,118.957,
00:00:25:17,-0.011,0.994,-0.32,210.571,117.675,117.37,
00:00:25:33,-0.004,1.014,-0.319,243.652,116.577,122.375,
00:00:25:50,-0.015,0.966,-0.287,263.977,113.891,122.375,
00:00:25:67,-0.027,0.921,-0.284,275.024,127.563,105.224,
00:00:25:83,-0.038,1.049,-0.256,323.913,182.312,67.443,
00:00:25:100,-0.057,0.934,-0.162,367.065,168.579,55.053,
00:00:25:117,-0.076,0.918,-0.171,377.075,180.603,40.039,
00:00:25:133,-0.066,0.991,-0.197,389.465,194.641,37.414,
00:00:25:150,-0.066,0.994,-0.223,414.978,197.204,32.226,
00:00:25:167,-0.079,0.968,-0.204,410.888,198.913,24.78,
00:00:25:183,-0.09,0.927,-0.132,403.991,191.894,17.944,
00:00:25:200,-0.092,0.882,-0.099,424.621,183.471,17.028,
00:00:25:217,-0.092,0.871,-0.093,450.744,180.053,15.319,
00:00:25:233,-0.086,0.898,-0.114,464.416,178.711,5.127,
00:00:25:250,-0.086,0.901,-0.088,444.824,174.621,-6.226,
00:00:25:267,-0.085,0.88,-0.043,422.912,164.795,-22.461,
00:00:25:283,-0.091,0.844,-0.015,416.442,160.156,-38.147,
00:00:25:300,-0.086,0.848,-0.005,390.197,156.067,-47.547,
00:00:25:317,-0.071,0.868,-0.009,356.872,152.649,-57.862,
00:00:25:333,-0.052,0.885,0.01,319.213,145.752,-66.712,
00:00:25:350,-0.047,0.885,0.035,287.292,136.901,-75.257,
00:00:25:367,-0.045,0.901,0.058,284.484,127.99,-69.703,
00:00:25:383,-0.047,0.927,0.066,276.306,120.605,-62.5,
00:00:25:400,-0.051,0.92,0.072,282.287,112.671,-57.312,
00:00:25:417,-0.057,0.912,0.069,276.062,104.248,-62.134,
00:00:25:433,-0.056,0.922,0.104,254.394,97.595,-65.674,
00:00:25:450,-0.052,0.924,0.135,246.643,89.66,-68.787,
00:00:25:467,-0.051,0.91,0.114,254.211,79.223,-66.468,
00:00:25:483,-0.054,0.911,0.117,270.691,75.073,-72.815,
00:00:25:500,-0.043,0.922,0.134,256.103,72.998,-78.614,
00:00:25:517,-0.042,0.936,0.155,244.262,46.936,-78.003,
00:00:25:533,-0.049,0.938,0.156,251.831,48.217,-76.233,
00:00:25:550,-0.058,0.896,0.17,245.971,38.208,-79.346,
00:00:25:567,-0.058,0.874,0.171,248.84,30.395,-92.53,
00:00:25:583,-0.052,0.883,0.147,245.605,38.33,-93.995,
00:00:25:600,-0.023,0.924,0.179,230.041,42.541,-106.263,
00:00:25:617,-0.016,0.924,0.206,230.651,39.611,-104.798,
00:00:25:633,-0.028,0.942,0.226,226.074,37.475,-100.831,
00:00:25:650,-0.025,0.936,0.188,256.164,39.55,-102.112,
00:00:25:667,-0.025,0.921,0.231,260.376,43.823,-93.506,
00:00:25:683,-0.015,0.943,0.263,257.873,47.668,-96.314,
00:00:25:700,-0.01,0.954,0.296,248.779,45.044,-88.562,
00:00:25:717,-0.008,0.949,0.304,267.456,35.339,-85.206,
00:00:25:733,-0.01,0.929,0.307,262.573,29.419,-77.027,
00:00:25:750,-0.003,0.92,0.306,247.741,26.123,-80.872,
00:00:25:767,0,0.943,0.284,243.713,32.714,-73.182,
00:00:25:783,0.003,0.937,0.304,233.52,33.874,-67.627,
00:00:25:800,0.01,0.934,0.333,235.107,33.935,-72.266,
00:00:25:817,0.02,0.967,0.435,196.167,18.127,-50.11,
00:00:25:833,0.031,0.983,0.356,220.825,9.887,-33.265,
00:00:25:850,0.004,0.947,0.301,269.592,15.808,-19.898,
00:00:25:867,-0.007,0.904,0.296,285.583,32.165,-33.631,
00:00:25:883,0.004,0.906,0.341,245.178,51.635,-34.424,
00:00:25:900,0.011,0.939,0.366,263.122,61.096,-35.523,
00:00:25:917,0.006,0.92,0.405,302.002,54.504,-28.565,
00:00:25:933,-0.031,0.883,0.373,309.753,53.772,-19.837,
00:00:25:950,0.002,0.894,0.387,305.664,61.828,-28.077,
00:00:25:967,0.005,0.891,0.414,309.997,66.833,-25.757,
00:00:25:983,0.011,0.863,0.428,303.344,69.458,-18.311,
00:00:26:0,0.004,0.856,0.431,299.682,73.791,-17.029,
00:00:26:17,0.006,0.864,0.44,298.767,74.035,-15.686,
00:00:26:33,0.009,0.857,0.456,307.495,69.397,-17.029,
00:00:26:50,0.007,0.835,0.476,293.823,66.772,-12.024,
00:00:26:67,0.004,0.825,0.465,273.803,70.251,-8.606,
00:00:26:83,0.008,0.834,0.498,256.775,67.871,-13.611,
00:00:26:100,0.009,0.823,0.502,258.789,64.697,-12.085,
00:00:26:117,0.013,0.826,0.507,271.362,61.523,-9.156,
00:00:26:133,0.022,0.827,0.521,266.296,54.382,-5.555,
00:00:26:150,0.015,0.802,0.53,248.962,56.091,-3.846,
00:00:26:167,0.017,0.805,0.541,244.262,55.725,-1.282,
00:00:26:183,0.027,0.82,0.56,255.798,51.574,3.051,
00:00:26:200,0.031,0.817,0.56,257.568,45.532,10.131,
00:00:26:217,0.016,0.804,0.576,255.737,40.71,8.361,
00:00:26:233,0.011,0.778,0.586,256.775,39.611,6.958,
00:00:26:250,0.023,0.787,0.602,240.6,41.259,12.39,
00:00:26:267,0.027,0.823,0.585,255.676,41.32,14.831,
00:00:26:283,0.014,0.779,0.599,265.625,40.222,16.113,
00:00:26:300,0.012,0.761,0.626,263.061,42.602,10.437,
00:00:26:317,0.025,0.786,0.635,254.577,44.616,18.676,
00:00:26:333,0.026,0.77,0.636,278.93,43.396,18.005,
00:00:26:350,0.022,0.747,0.626,279.602,44.982,21.972,
00:00:26:367,0.021,0.741,0.647,280.395,46.325,17.944,
00:00:26:383,0.018,0.731,0.661,269.531,45.166,23.864,
00:00:26:400,0.02,0.728,0.668,265.136,47.973,19.531,
00:00:26:417,0.016,0.713,0.67,258.545,49.804,22.277,
00:00:26:433,0.009,0.706,0.674,258.972,49.499,18.554,
00:00:26:450,0.011,0.701,0.668,279.724,46.63,18.249,
00:00:26:467,0.011,0.668,0.677,273.254,47.912,19.226,
00:00:26:483,0.017,0.643,0.69,237.304,49.255,15.38,
00:00:26:500,0.026,0.661,0.703,206.298,46.508,17.456,
00:00:26:517,0.031,0.658,0.698,214.05,39.062,19.653,
00:00:26:533,0.026,0.624,0.702,184.448,33.752,22.522,
00:00:26:550,0.026,0.617,0.705,133.606,22.827,18.615,
00:00:26:567,0.028,0.668,0.705,114.746,15.197,21.545,
00:00:26:583,0.02,0.704,0.703,156.372,11.23,26.489,
00:00:26:600,0.007,0.665,0.707,187.317,12.023,36.071,
00:00:26:617,0,0.642,0.719,181.518,15.258,35.827,
00:00:26:633,-0.004,0.642,0.733,175.842,21.057,38.208,
00:00:26:650,-0.004,0.654,0.739,218.017,28.93,37.475,
00:00:26:667,-0.002,0.645,0.745,242.126,33.386,37.414,
00:00:26:683,0.002,0.639,0.762,285.034,35.278,34.362,
00:00:26:700,0.001,0.626,0.764,317.077,36.804,34.912,
00:00:26:717,0.004,0.618,0.766,354.919,39.428,39.489,
00:00:26:733,-0.008,0.6,0.774,392.458,6689.326,5508.44,
00:00:26:750,0,0.558,0.812,377.807,45.776,40.649,
00:00:26:767,0.002,0.545,0.811,382.263,43.457,36.499,
00:00:26:783,0.002,0.53,0.811,412.78,41.809,31.555,
00:00:26:800,0.006,0.501,0.805,438.537,55.481,34.668,
00:00:26:817,0.011,0.491,0.85,419.86,52.429,15.808,
00:00:26:833,0.007,0.475,0.85,385.62,58.471,32.287,
00:00:26:850,0.005,0.476,0.836,367.126,64.636,34.851,
00:00:26:867,-0.004,0.48,0.836,381.225,76.049,34.301,
00:00:26:883,0.001,0.451,0.85,385.437,77.758,37.048,
00:00:26:900,0.008,0.451,0.87,391.418,72.57,39.123,
00:00:26:917,0.003,0.446,0.87,403.076,77.941,44.799,
00:00:26:933,0.002,0.43,0.874,418.518,79.834,51.696,
00:00:26:950,0.001,0.38,0.88,422.424,85.998,53.039,
00:00:26:967,0.007,0.354,0.897,405.517,87.829,55.419,
00:00:26:983,0.011,0.331,0.912,377.014,88.928,50.903,
00:00:27:0,0.015,0.32,0.929,346.252,89.233,52.185,
00:00:27:17,0.023,0.314,0.914,311.645,85.083,42.358,
00:00:27:33,0.025,0.314,0.912,300.171,82.153,41.503,
00:00:27:50,0.028,0.3,0.921,285.461,80.627,41.503,
00:00:27:67,0.037,0.301,0.937,267.578,71.594,41.87,
00:00:27:83,0.037,0.32,0.927,270.08,64.025,52.368,
00:00:27:100,0.035,0.302,0.935,292.907,64.453,53.711,
00:00:27:117,0.036,0.276,0.923,297.18,67.932,62.866,
00:00:27:133,0.031,0.228,0.947,262.817,71.899,58.837,
00:00:27:150,0.033,0.235,0.949,239.257,74.462,63.293,
00:00:27:167,0.033,0.28,0.959,244.567,77.697,61.767,
00:00:27:183,0.037,0.238,0.962,261.474,82.336,57.556,
00:00:27:200,0.041,0.207,0.956,256.103,88.134,57.922,
00:00:27:217,0.048,0.195,0.951,226.867,91.186,59.387,
00:00:27:233,0.054,0.218,0.955,220.886,89.416,67.871,
00:00:27:250,0.054,0.239,0.941,270.935,87.158,70.556,
00:00:27:267,0.049,0.208,0.946,319.824,95.581,74.768,
00:00:27:283,0.054,0.195,0.947,331.298,98.205,81.97,
00:00:27:300,0.049,0.184,0.923,360.229,99.243,90.393,
00:00:27:317,0.045,0.153,0.929,397.216,97.473,87.28,
00:00:27:333,0.051,0.127,0.947,401.428,95.275,86.486,
00:00:27:350,0.053,0.117,0.967,390.808,96.557,92.651,
00:00:27:367,0.06,0.111,0.971,383.545,101.562,101.257,
00:00:27:383,0.062,0.08,0.974,382.202,111.389,104.98,
00:00:27:400,0.084,0.075,0.984,369.995,107.238,109.375,
00:00:27:417,0.082,0.059,0.989,362.671,111.328,121.521,
00:00:27:433,0.084,0.036,0.981,353.393,114.318,126.281,
00:00:27:450,0.085,0.005,0.991,341.98,120.727,132.446,
00:00:27:467,0.095,0.017,0.984,315.673,122.68,138.855,
00:00:27:483,0.101,0.021,0.97,324.401,140.503,145.263,
00:00:27:500,0.102,0.012,0.978,351.257,135.131,151.916,
00:00:27:517,0.106,-0.038,0.968,345.947,144.592,146.301,
00:00:27:533,0.117,-0.036,0.957,314.331,151.916,152.893,
00:00:27:550,0.121,-0.008,0.944,303.405,161.682,165.222,
00:00:27:567,0.13,0.025,0.936,349.609,177.124,179.504,
00:00:27:583,0.143,-0.03,0.943,429.199,189.758,191.65,
00:00:27:600,0.155,-0.066,0.945,465.698,195.556,205.322,
00:00:27:617,0.171,-0.091,0.942,484.314,193.725,219.238,
00:00:27:633,0.187,-0.107,0.943,493.103,197.815,233.581,
00:00:27:650,0.199,-0.147,0.975,511.047,183.838,232.849,
00:00:27:667,0.237,-0.242,0.968,412.231,142.151,224.121,
00:00:27:683,0.242,-0.231,0.979,388.672,115.783,217.041,
00:00:27:700,0.245,-0.21,0.968,395.813,91.613,216.797,
00:00:27:717,0.245,-0.233,0.936,408.874,82.702,209.655,
00:00:27:733,0.25,-0.292,0.919,417.968,77.209,200.744,
00:00:27:750,0.265,-0.328,0.942,385.925,66.162,196.167,
00:00:27:767,0.268,-0.334,0.952,356.872,59.448,188.72,
00:00:27:783,0.268,-0.38,0.946,315.063,54.138,158.264,
00:00:27:800,0.292,-0.405,0.943,265.38,31.189,128.723,
00:00:27:817,0.282,-0.444,0.951,213.44,16.479,94.726,
00:00:27:833,0.291,-0.449,0.964,138.366,3.295,62.011,
00:00:27:850,0.303,-0.43,0.965,56.945,-30.762,27.954,
00:00:27:867,0.289,-0.461,0.963,-130.921,-88.379,-92.835,
00:00:27:883,0.292,-0.464,0.971,-243.958,-103.516,-136.536,
00:00:27:900,0.304,-0.427,0.995,-334.107,-131.348,-185.852,
00:00:27:917,0.298,-0.411,1.002,-392.945,-157.593,-208.619,
00:00:27:933,0.301,-0.414,1.021,-460.022,-202.942,-251.526,
00:00:27:950,0.295,-0.421,1.069,-626.16,-256.47,-303.101,
00:00:27:967,0.295,-0.393,1.061,-842.652,-312.623,-337.037,
00:00:27:983,0.275,-0.328,1.058,-1055.42,-367.066,-355.957,
00:00:28:0,0.268,-0.224,1.031,-1168.702,-423.035,-357.605,
00:00:28:17,0.243,-0.133,0.992,-1187.745,-469.849,-345.52,
00:00:28:33,0.216,-0.091,0.952,-1160.706,-505.86,-341.187,
00:00:28:50,0.201,-0.07,0.959,-1188.843,-531.861,-320.74,
00:00:28:67,0.186,0.024,0.893,-1255.799,-563.66,-290.101,
00:00:28:83,0.137,0.111,0.835,-1228.699,-565.979,-259.217,
00:00:28:100,0.096,0.166,0.814,-1146.546,-557.19,-244.019,
00:00:28:117,0.063,0.175,0.829,-1093.75,-541.932,-222.352,
00:00:28:133,0.043,0.165,0.813,-1098.572,-530.396,-215.455,
00:00:28:150,0.019,0.192,0.812,-1122.803,-523.621,-212.098,
00:00:28:167,-0.005,0.232,0.779,-1145.997,-508.851,-204.041,
00:00:28:183,-0.026,0.263,0.752,-1179.871,-495.667,-211.976,
00:00:28:200,-0.022,0.328,0.759,-1211.365,-495.545,-201.172,
00:00:28:217,-0.023,0.406,0.707,-1231.751,-500.672,-196.412,
00:00:28:233,-0.049,0.455,0.633,-1198.304,-504.578,-188.843,
00:00:28:250,-0.099,0.441,0.582,-1163.636,-490.418,-191.224,
00:00:28:267,-0.12,0.616,0.578,-1091.858,-470.765,-170.899,
00:00:28:283,-0.127,0.619,0.513,-1072.999,-469.117,-167.603,
00:00:28:300,-0.134,0.63,0.458,-1067.139,-474.366,-179.017,
00:00:28:317,-0.168,0.658,0.403,-1070.313,-473.45,-177.369,
00:00:28:333,-0.183,0.674,0.4,-1071.595,-472.718,-185.852,
00:00:28:350,-0.18,0.723,0.384,-1080.14,-472.229,-197.205,
00:00:28:367,-0.18,0.778,0.324,-1071.778,-476.685,-187.928,
00:00:28:383,-0.186,0.781,0.234,-1024.903,-477.723,-185.059,
00:00:28:400,-0.188,0.768,0.181,-1017.09,-461.121,-196.656,
00:00:28:417,-0.186,0.775,0.162,-1083.619,-441.346,-211.182,
00:00:28:433,-0.21,0.857,-0.006,-1086.792,-420.472,-231.873,
00:00:28:450,-0.204,0.847,-0.051,-1076.783,-411.988,-246.827,
00:00:28:467,-0.223,0.864,-0.045,-1129.273,-393.921,-274.964,
00:00:28:483,-0.237,0.901,-0.087,-1181.031,-379.029,-282.715,
00:00:28:500,-0.237,0.957,-0.141,-1145.997,-368.103,-289.795,
00:00:28:517,-0.222,0.966,-0.22,-1077.21,-361.206,-285.767,
00:00:28:533,-0.218,0.989,-0.297,-893.128,-319.825,-289.734,
00:00:28:550,-0.219,1.005,-0.37,-839.417,-291.138,-284.485,
00:00:28:567,-0.219,1.08,-0.399,-763.062,-264.771,-284.119,
00:00:28:583,-0.225,1.088,-0.384,-669.983,-242.493,-286.377,
00:00:28:600,-0.219,1.061,-0.382,-601.258,-215.21,-289.856,
00:00:28:617,-0.196,1.051,-0.379,-584.412,-189.576,-290.955,
00:00:28:633,-0.184,1.089,-0.411,-572.144,-159.424,-291.626,
00:00:28:650,-0.194,1.096,-0.514,-477.539,-129.029,-252.991,
00:00:28:667,-0.184,1.058,-0.472,-367.005,-119.873,-240.967,
00:00:28:683,-0.132,1.034,-0.472,-336.06,-105.957,-224.366,
00:00:28:700,-0.095,1.018,-0.475,-319.275,-92.408,-187.317,
00:00:28:717,-0.078,1.02,-0.493,-259.339,-77.088,-169.983,
00:00:28:733,-0.061,1.005,-0.514,-189.759,-60.486,-151.123,
00:00:28:750,-0.037,0.977,-0.51,-142.579,-43.396,-145.02,
00:00:28:767,-0.01,0.958,-0.518,-133.24,-27.588,-137.024,
00:00:28:783,-0.005,0.936,-0.48,-88.013,-21.607,-128.54,
00:00:28:800,-0.002,0.93,-0.488,-48.157,-10.193,-117.859,
00:00:28:817,0.007,0.913,-0.476,-10.01,-1.831,-116.517,
00:00:28:833,0.032,0.847,-0.441,9.826,1.709,-109.681,
00:00:28:850,0.053,0.877,-0.426,-8.667,8.728,-116.761,
00:00:28:867,0.046,0.919,-0.448,-11.78,6.225,-113.77,
00:00:28:883,0.037,0.893,-0.48,4.882,0.122,-113.709,
00:00:28:900,0.036,0.839,-0.478,3.601,-4.7,-111.268,
00:00:28:917,0.048,0.871,-0.457,-27.1,-2.686,-109.986,
00:00:28:933,0.051,0.923,-0.487,-11.231,-6.592,-91.736,
00:00:28:950,0.049,0.917,-0.487,25.39,-21.119,-70.984,
00:00:28:967,0.028,0.947,-0.633,6.042,24.047,-5.249,
00:00:28:983,0.058,0.905,-0.526,-118.409,11.352,-29.664,
00:00:29:0,0.044,0.88,-0.53,-50.415,0.122,53.161,
00:00:29:17,0.057,0.822,-0.457,27.282,-2.625,-2.442,
00:00:29:33,0.071,0.903,-0.465,61.889,16.052,20.568,
00:00:29:50,0.073,0.846,-0.425,110.351,4.211,-25.513,
00:00:29:67,0.049,0.803,-0.435,93.933,10.437,-33.692,
00:00:29:83,0.058,0.828,-0.434,96.13,19.47,-61.097,
00:00:29:100,0.083,0.898,-0.451,110.901,19.714,-64.331,
00:00:29:117,0.088,0.917,-0.441,121.765,10.559,-51.087,
00:00:29:133,0.078,0.905,-0.448,142.639,3.723,-28.809,
00:00:29:150,0.093,0.895,-0.399,166.565,-4.151,-24.17,
00:00:29:167,0.076,0.817,-0.417,223.327,-6.47,-33.387,
00:00:29:183,0.093,0.889,-0.412,238.586,8.85,-40.772,
00:00:29:200,0.099,0.935,-0.415,312.744,7.934,-37.11,
00:00:29:217,0.092,0.893,-0.409,333.252,10.62,-42.481,
00:00:29:233,0.087,0.9,-0.396,314.636,18.92,-42.42,
00:00:29:250,0.075,0.91,-0.406,320.007,22.644,-38.392,
00:00:29:267,0.085,0.923,-0.368,383.972,18.554,-33.57,
00:00:29:283,0.089,0.947,-0.307,482.36,6.958,-31.617,
00:00:29:300,0.066,1.036,-0.355,489.135,18.066,9.704,
00:00:29:317,0.058,0.872,-0.282,559.387,-6.165,-48.096,
00:00:29:333,0.078,0.901,-0.266,504.638,9.948,-24.598,
00:00:29:350,0.047,0.93,-0.279,484.13,12.451,-15.564,
00:00:29:367,0.084,0.938,-0.22,502.075,-3.357,-12.391,
00:00:29:383,0.106,0.964,-0.127,514.099,-21.912,-5.372,
00:00:29:400,0.088,0.986,-0.114,502.624,-53.711,16.296,
00:00:29:417,0.085,0.98,-0.124,475.83,-57.251,18.859,
00:00:29:433,0.104,1.02,-0.136,522.522,-56.519,25.695,
00:00:29:450,0.097,0.963,-0.115,638.61,-69.214,3.54,
00:00:29:467,0.11,0.921,-0.079,651.367,-78.492,12.023,
00:00:29:483,0.128,0.97,0,604.736,-94.056,28.564,
00:00:29:500,0.132,1.029,-0.005,689.453,-111.39,39.062,
00:00:29:517,0.14,1.02,0.038,754.455,-140.686,49.255,
00:00:29:533,0.131,0.987,0.058,813.11,-160.462,40.405,
00:00:29:550,0.12,1.03,0.041,866.943,-168.457,33.02,
00:00:29:567,0.129,1.074,0.063,1058.593,-197.815,1.709,
00:00:29:583,0.096,0.943,0.096,1246.093,-196.717,-27.588,
00:00:29:600,0.081,0.854,0.122,1353.332,-199.158,-56.275,
00:00:29:617,0.103,0.823,0.217,1455.993,-232.3,-76.6,
00:00:29:633,0.074,0.814,0.249,1501.77,-198.365,-68.482,
00:00:29:650,0.094,0.961,0.264,1581.665,-201.6,-35.889,
00:00:29:667,0.039,0.942,0.276,1721.618,-137.818,-43.335,
00:00:29:683,0.01,0.855,0.33,1776.489,-87.952,-59.388,
00:00:29:700,0.038,0.795,0.396,1716.247,-67.933,-65.064,
00:00:29:717,-0.011,0.761,0.474,1683.41,-25.452,-79.529,
00:00:29:733,-0.059,0.677,0.555,1572.998,59.692,-66.712,
00:00:29:750,-0.036,0.606,0.612,1372.131,93.322,-48.096,
00:00:29:767,-0.023,0.619,0.642,1193.237,91.491,-31.128,
00:00:29:783,-0.043,0.627,0.699,1128.112,98.693,-23.133,
00:00:29:800,-0.045,0.539,0.765,1070.861,113.342,-32.593,
00:00:29:817,-0.004,0.465,0.838,935.547,104.675,-38.269,
00:00:29:833,0.012,0.502,0.881,762.939,71.228,-5.799,
00:00:29:850,-0.001,0.519,0.871,691.528,70.312,10.559,
00:00:29:867,-0.007,0.423,0.867,656.982,93.811,-13.184,
00:00:29:883,0.036,0.367,0.886,585.327,84.228,-25.33,
00:00:29:900,0.054,0.395,0.928,533.203,66.833,3.112,
00:00:29:917,0.037,0.387,0.943,515.38,70.8,13.977,
00:00:29:933,0.048,0.357,0.959,492.065,72.815,13.794,
00:00:29:950,0.055,0.335,0.946,465.393,59.997,5.676,
00:00:29:967,0.038,0.243,0.916,412.658,83.801,-12.879,
00:00:29:983,0.059,0.237,0.884,284.057,107.36,0.183,
00:00:30:0,0.065,0.288,0.913,192.505,101.989,-0.306,
00:00:30:17,0.04,0.309,1.112,197.265,82.763,-10.865,
00:00:30:33,0.085,0.331,1.204,111.694,12.695,-0.306,
00:00:30:50,0.019,0.319,1.033,84.106,-47.974,3.54,
00:00:30:67,0.012,0.258,0.909,60.424,-21.363,-12.33,
00:00:30:83,0.035,0.221,0.847,-18.433,-8.851,-25.086,
00:00:30:100,0.046,0.27,0.916,-41.871,7.324,-16.053,
00:00:30:117,0.093,0.295,0.961,-5.921,6.347,-10.071,
00:00:30:133,0.088,0.284,0.963,-18.311,-8.545,-5.188,
00:00:30:150,0.078,0.261,0.952,-52.124,-12.696,-28.443,
00:00:30:167,0.088,0.288,0.945,-87.891,-10.376,-20.752,
00:00:30:183,0.097,0.325,0.937,-72.571,-20.569,-13.428,
00:00:30:200,0.08,0.287,0.959,-32.288,-18.738,-19.41,
00:00:30:217,0.093,0.262,0.95,-38.208,-23.377,-22.339,
00:00:30:233,0.093,0.284,0.955,-54.139,-29.602,-15.259,
00:00:30:250,0.083,0.284,0.95,-43.396,-23.743,-15.564,
00:00:30:267,0.073,0.275,0.951,-49.866,-17.273,-15.625,
00:00:30:283,0.074,0.301,0.946,-70.069,-16.968,-15.87,
00:00:30:300,0.066,0.317,0.936,-58.899,-12.085,-13.977,
00:00:30:317,0.068,0.283,0.938,-36.316,-9.217,-9.766,
00:00:30:333,0.062,0.302,0.942,-36.316,-3.846,-9.217,
00:00:30:350,0.067,0.303,0.948,-39.124,-2.381,-9.156,
00:00:30:367,0.068,0.298,0.945,-33.081,-0.977,-12.146,
00:00:30:383,0.07,0.29,0.948,-35.584,-1.221,-11.231,
00:00:30:400,0.073,0.309,0.93,-44.373,-5.127,-8.301,
00:00:30:417,0.071,0.321,0.933,-40.284,-1.221,-6.409,
00:00:30:433,0.064,0.324,0.93,-38.819,2.868,-3.357,
00:00:30:450,0.071,0.327,0.931,-24.414,6.836,-4.029,
00:00:30:467,0.063,0.316,0.936,-13.123,0.061,-1.831,
00:00:30:483,0.057,0.318,0.936,-5.86,-1.587,3.051,
00:00:30:500,0.059,0.31,0.936,-8.484,-3.235,2.014,
00:00:30:517,0.065,0.31,0.937,-22.217,-5.433,0.549,
00:00:30:533,0.064,0.314,0.934,-27.161,-5.555,-1.16,
00:00:30:550,0.069,0.314,0.928,-30.823,-6.714,-1.954,
00:00:30:567,0.065,0.328,0.94,-35.157,-10.621,3.784,
00:00:30:583,0.059,0.334,0.932,-34.302,-5.433,8.178,
00:00:30:600,0.057,0.322,0.927,-25.33,-6.836,5.004,
00:00:30:617,0.054,0.314,0.931,-31.8,-10.498,1.953,
00:00:30:633,0.052,0.32,0.927,-54.078,-8.423,-2.259,
00:00:30:650,0.059,0.333,0.927,-55.115,-6.226,-7.691,
00:00:30:667,0.057,0.35,0.93,-51.697,-11.17,-0.916,
00:00:30:683,0.045,0.347,0.931,-21.546,-2.686,-0.367,
00:00:30:700,0.06,0.343,0.933,-15.198,-3.052,0.976,
00:00:30:717,0.052,0.312,0.929,-15.503,-2.198,7.141,
00:00:30:733,0.052,0.331,0.927,-12.269,-2.137,3.295,
00:00:30:750,0.046,0.321,0.928,-23.621,-2.015,1.648,
00:00:30:767,0.048,0.344,0.925,-39.246,-1.831,2.014,
00:00:30:783,0.05,0.356,0.922,-29.664,-2.93,3.845,
00:00:30:800,0.049,0.361,0.927,-12.818,0.61,5.798,
00:00:30:817,0.048,0.346,0.927,-7.447,-0.184,2.136,
00:00:30:833,0.048,0.339,0.925,-12.696,-3.418,0.183,
00:00:30:850,0.051,0.34,0.92,-17.273,-5.127,-3.968,
00:00:30:867,0.053,0.349,0.918,-11.17,-7.874,-4.639,
00:00:30:883,0.029,0.352,0.918,-12.696,-5.738,-4.334,
00:00:30:900,0.039,0.333,0.926,-20.63,1.037,-19.593,
00:00:30:917,0.047,0.338,0.929,-35.279,-7.264,-27.771,
00:00:30:933,0.048,0.364,0.92,-38.575,-5.921,-30.091,
00:00:30:950,0.049,0.369,0.924,-22.95,-2.686,-27.161,
00:00:30:967,0.046,0.369,0.924,-9.034,3.173,-15.809,
00:00:30:983,0.028,0.344,0.928,8.667,10.131,-9.461,
00:00:31:0,0.036,0.329,0.929,-3.907,7.019,-11.292,
00:00:31:17,0.035,0.35,0.924,-34.852,0.854,-15.442,
00:00:31:33,0.038,0.371,0.918,-37.11,1.098,-21.058,
00:00:31:50,0.047,0.389,0.91,-29.236,-3.113,-19.104,
00:00:31:67,0.034,0.379,0.913,-1.465,1.77,-16.053,
00:00:31:83,0.038,0.363,0.923,6.469,8.361,-11.17,
00:00:31:100,0.042,0.341,0.916,1.342,6.591,-10.132,
00:00:31:117,0.044,0.341,0.932,-22.156,4.089,-13.55,
00:00:31:133,0.047,0.355,0.911,-39.185,0.488,-15.076,
00:00:31:150,0.031,0.377,0.917,-26.917,0.183,-12.269,
00:00:31:167,0.032,0.377,0.914,-17.334,4.089,-7.019,
00:00:31:183,0.027,0.368,0.918,-10.987,3.54,-5.921,
00:00:31:200,0.034,0.375,0.921,-22.706,0.305,-7.081,
00:00:31:217,0.035,0.373,0.91,-16.114,3.967,-10.01,
00:00:31:233,0.035,0.371,0.914,-20.081,2.258,-5.31,
00:00:31:250,0.029,0.369,0.913,-21.668,2.868,-8.118,
00:00:31:267,0.031,0.376,0.912,-23.194,-1.954,-8.484,
00:00:31:283,0.029,0.377,0.906,-18.555,0.122,-6.165,
00:00:31:300,0.027,0.379,0.91,-18.677,5.676,-10.56,
00:00:31:317,0.036,0.384,0.911,-19.043,4.333,-11.902,
00:00:31:333,0.003,0.381,0.906,-16.724,3.356,-9.4,
00:00:31:350,0.031,0.381,0.916,-15.625,5.676,-8.301,
00:00:31:367,0,0.375,0.912,-18.616,6.469,-9.522,
00:00:31:383,0.037,0.379,0.906,-16.358,2.075,-12.757,
00:00:31:400,0.031,0.391,0.901,-12.33,-0.611,-12.635,
00:00:31:417,0.024,0.385,0.902,-12.024,7.263,-16.846,
00:00:31:433,0.032,0.392,0.906,-14.527,4.211,-16.846,
00:00:31:450,0.028,0.387,0.909,-8.179,4.516,-14.954,
00:00:31:467,0.03,0.377,0.908,-3.968,5.249,-17.701,
00:00:31:483,0.032,0.381,0.907,-16.968,6.164,-22.339,
00:00:31:500,0.029,0.391,0.901,-12.696,5.981,-21.912,
00:00:31:517,0.023,0.4,0.905,0.488,1.159,-11.048,
00:00:31:533,0.016,0.389,0.907,0.671,6.286,-12.635,
00:00:31:550,0.025,0.387,0.904,-7.813,6.469,-10.743,
00:00:31:567,0.029,0.391,0.907,-10.56,4.699,-14.283,
00:00:31:583,0.027,0.392,0.903,-1.221,3.479,-14.283,
00:00:31:600,0.028,0.397,0.905,-2.076,3.051,-13.977,
00:00:31:617,0.025,0.396,0.907,0.366,3.051,-14.71,
00:00:31:633,0.025,0.385,0.906,5.065,2.807,-15.931,
00:00:31:650,0.033,0.395,0.902,4.516,-10.743,-17.029,
00:00:31:667,0.022,0.399,0.901,16.479,-9.949,-16.053,
00:00:31:683,0.023,0.402,0.9,22.522,-12.452,-17.762,
00:00:31:700,0.015,0.4,0.9,29.174,-8.667,-19.41,
00:00:31:717,0.019,0.395,0.909,33.447,1.281,-20.447,
00:00:31:733,0.015,0.377,0.912,28.32,5.004,-17.395,
00:00:31:750,0.024,0.396,0.909,-6.409,2.807,-17.395,
00:00:31:767,0.024,0.404,0.9,5.004,1.709,-12.452,
00:00:31:783,0.016,0.393,0.937,19.043,0.488,-13.001,
00:00:31:800,0.018,0.385,0.905,11.535,1.342,-17.579,
00:00:31:817,0.019,0.383,0.912,1.342,1.77,-18.982,
00:00:31:833,0.021,0.385,0.913,-6.836,0.244,-18.128,
00:00:31:850,0.024,0.399,0.908,4.638,-1.404,-15.931,
00:00:31:867,0.015,0.382,0.907,10.376,0,-13.733,
00:00:31:883,0.021,0.385,0.907,-1.648,0,-19.043,
00:00:31:900,0.017,0.39,0.908,-3.968,-0.855,-20.874,
00:00:31:917,0.018,0.401,0.905,4.028,2.319,-17.456,
00:00:31:933,0.013,0.391,0.902,14.709,2.563,-16.541,
00:00:31:950,0.018,0.385,0.91,8.483,3.906,-16.968,
00:00:31:967,0.017,0.38,0.909,4.76,2.929,-19.349,
00:00:31:983,0.016,0.386,0.912,-2.991,1.159,-20.874,
00:00:32:0,0.014,0.396,0.903,-4.09,2.624,-19.41,
00:00:32:17,0.018,0.4,0.905,-2.137,6.591,-21.973,
00:00:32:33,0.016,0.388,0.912,8.361,7.385,-20.813,
00:00:32:50,0.014,0.385,0.908,4.333,8.789,-20.203,
00:00:32:67,0.016,0.385,0.907,6.164,6.591,-19.043,
00:00:32:83,0.012,0.382,0.908,-2.93,7.446,-15.32,
00:00:32:100,0.018,0.39,0.906,-7.935,6.591,-16.175,
00:00:32:117,0.021,0.407,0.905,-5.005,3.051,-16.907,
00:00:32:133,0.013,0.397,0.905,6.836,6.836,-14.344,
00:00:32:150,0.018,0.386,0.907,5.127,5.127,-13.916,
00:00:32:167,0.008,0.386,0.91,1.159,3.784,-15.809,
00:00:32:183,0.016,0.391,0.911,-4.395,4.821,-19.043,
00:00:32:200,0.016,0.396,0.907,-4.883,1.648,-18.799,
00:00:32:217,0.018,0.396,0.9,3.173,4.394,-17.701,
00:00:32:233,0.015,0.391,0.909,5.493,0.793,-20.203,
00:00:32:250,0.027,0.392,0.904,-1.831,3.051,-23.377,
00:00:32:267,0.002,0.399,0.909,-15.198,1.037,-25.269,
00:00:32:283,0.014,0.396,0.906,1.403,1.709,-32.715,
00:00:32:300,0.005,0.392,0.894,-0.611,3.662,-24.231,
00:00:32:317,-0.001,0.405,0.901,3.723,4.333,-24.17,
00:00:32:333,0.01,0.389,0.906,8.667,8.422,-22.583,
00:00:32:350,0.008,0.39,0.898,-0.184,9.765,-20.874,
00:00:32:367,0.013,0.401,0.901,2.014,7.324,-21.302,
00:00:32:383,0.007,0.398,0.903,5.004,10.437,-22.644,
00:00:32:400,0.014,0.404,0.903,4.028,9.155,-22.522,
00:00:32:417,0.014,0.397,0.901,10.925,10.192,-20.325,
00:00:32:433,0.016,0.394,0.911,11.413,9.033,-21.79,
00:00:32:450,0.01,0.388,0.907,3.845,6.225,-24.659,
00:00:32:467,0.01,0.394,0.905,-7.508,6.286,-27.344,
00:00:32:483,0.009,0.399,0.904,-3.052,6.286,-24.414,
00:00:32:500,0.012,0.402,0.904,4.943,5.859,-24.109,
00:00:32:517,0.011,0.397,0.904,9.948,11.413,-21.546,
00:00:32:533,0.012,0.394,0.903,5.493,11.047,-22.156,
00:00:32:550,0.011,0.397,0.904,3.418,9.765,-22.767,
00:00:32:567,0.011,0.402,0.902,3.295,11.291,-22.828,
00:00:32:583,0.016,0.399,0.905,12.39,9.521,-19.349,
00:00:32:600,0.008,0.388,0.906,8.117,10.009,-19.349,
00:00:32:617,0.014,0.39,0.907,-3.296,10.131,-19.532,
00:00:32:633,0.012,0.396,0.903,-8.301,7.263,-22.706,
00:00:32:650,0.014,0.406,0.904,-3.602,6.53,-21.363,
00:00:32:667,0.013,0.41,0.901,7.629,11.84,-19.654,
00:00:32:683,0.01,0.397,0.901,10.07,10.864,-19.41,
00:00:32:700,0.012,0.39,0.904,1.892,12.512,-19.776,
00:00:32:717,0.013,0.389,0.905,-5.433,9.399,-20.935,
00:00:32:733,0.013,0.398,0.9,-4.09,7.08,-16.602,
00:00:32:750,0.011,0.395,0.906,-0.611,9.033,-18.738,
00:00:32:767,0.015,0.396,0.909,-6.348,8.728,-17.579,
00:00:32:783,0.012,0.404,0.897,-11.536,6.103,-16.724,
00:00:32:800,0.012,0.41,0.897,-6.226,8.178,-16.785,
00:00:32:817,0.012,0.376,0.9,0.122,8.056,-14.832,
00:00:32:833,0.011,0.394,0.909,2.868,8.361,-18.128,
00:00:32:850,0.015,0.398,0.904,-4.7,4.089,-17.945,
00:00:32:867,0.012,0.397,0.9,-9.339,5.31,-17.64,
00:00:32:883,0.013,0.408,0.901,-6.836,4.211,-14.71,
00:00:32:900,0.01,0.408,0.899,-1.038,5.432,-14.222,
00:00:32:917,0.01,0.406,0.902,1.77,3.418,-15.625,
00:00:32:933,0.009,0.403,0.894,-1.404,5.127,-15.625,
00:00:32:950,0.011,0.401,0.901,-1.954,6.591,-15.564,
00:00:32:967,0.011,0.411,0.898,-3.418,5.249,-14.649,
00:00:32:983,0.009,0.409,0.897,4.821,6.591,-16.724,
00:00:33:0,0.011,0.405,0.901,2.014,6.713,-17.456,
00:00:33:17,0.01,0.402,0.901,1.77,7.324,-16.846,
00:00:33:33,0.014,0.398,0.902,5.798,9.887,-20.63,
00:00:33:50,-0.004,0.407,0.904,3.723,2.624,-18.006,
00:00:33:67,0.011,0.408,0.899,-1.587,1.525,-25.818,
00:00:33:83,0.008,0.415,0.893,0.488,-3.907,-20.508,
00:00:33:100,0.008,0.402,0.897,4.089,-3.174,-24.292,
00:00:33:117,0.01,0.405,0.905,2.868,-9.339,-25.696,
00:00:33:133,0.007,0.406,0.902,-6.104,-12.574,-33.57,
00:00:33:150,0.011,0.424,0.899,-2.808,-12.635,-24.353,
00:00:33:167,-0.002,0.4,0.901,20.08,-7.264,-19.165,
00:00:33:183,0.017,0.397,0.898,2.99,-9.949,-18.677,
00:00:33:200,-0.02,0.404,0.907,0.183,-9.278,-14.649,
00:00:33:217,0.012,0.409,0.894,-7.019,-4.517,-20.264,
00:00:33:233,0,0.42,0.889,-1.648,-6.104,-11.963,
00:00:33:250,0.004,0.417,0.899,7.751,-1.16,-15.381,
00:00:33:267,0.002,0.411,0.899,13.183,-3.968,-14.161,
00:00:33:283,0,0.401,0.898,6.591,-1.465,-15.442,
00:00:33:300,-0.001,0.399,0.898,0.671,-0.184,-17.64,
00:00:33:317,0.004,0.406,0.9,-3.907,1.403,-20.142,
00:00:33:334,0.003,0.412,0.895,-5.31,1.159,-23.072,
00:00:33:350,0.001,0.412,0.9,0.549,2.075,-22.706,
00:00:33:367,0,0.414,0.9,3.845,3.601,-22.644,
00:00:33:384,-0.004,0.41,0.899,6.469,6.652,-21.973,
00:00:33:400,-0.004,0.404,0.901,7.69,6.408,-25.879,
00:00:33:417,0.001,0.408,0.905,3.295,3.662,-25.696,
00:00:33:434,0.001,0.409,0.895,0,1.831,-27.344,
00:00:33:450,0.006,0.409,0.899,8.239,-0.855,-30.64,
00:00:33:467,0.001,0.408,0.904,1.831,-2.869,-29.419,
00:00:33:484,0,0.414,0.9,1.403,-4.578,-27.771,
00:00:33:500,0.001,0.408,0.898,6.713,-3.418,-27.283,
00:00:33:517,0.01,0.393,0.905,7.141,0.793,-32.105,
00:00:33:534,-0.01,0.397,0.891,-5.372,-6.165,-24.964,
00:00:33:550,-0.01,0.413,0.897,-6.47,5.859,-31.617,
00:00:33:567,-0.015,0.428,0.891,1.037,3.479,-25.147,
00:00:33:584,-0.003,0.425,0.887,5.004,11.962,-28.016,
00:00:33:600,-0.002,0.417,0.899,21.057,11.718,-19.471,
00:00:33:617,0,0.397,0.899,29.48,14.404,-22.828,
00:00:33:634,-0.003,0.407,0.905,9.216,13.183,-24.537,
00:00:33:650,0.002,0.415,0.893,13.732,17.456,-25.147,
00:00:33:667,0.002,0.411,0.897,19.104,17.822,-25.696,
00:00:33:684,0.004,0.408,0.902,20.263,19.409,-26.673,
00:00:33:700,0.001,0.404,0.897,16.723,15.869,-29.602,
00:00:33:717,0,0.405,0.901,10.62,16.357,-32.654,
00:00:33:734,-0.001,0.401,0.901,4.821,15.869,-35.157,
00:00:33:750,0.002,0.396,0.904,-1.77,13.794,-37.659,
00:00:33:767,0.005,0.402,0.901,-13.672,10.803,-40.101,
00:00:33:784,0.006,0.409,0.894,-9.583,5.859,-37.415,
00:00:33:800,0.003,0.411,0.893,-0.306,4.76,-37.11,
00:00:33:817,0.006,0.411,0.897,-1.648,6.713,-35.401,
00:00:33:834,0.002,0.407,0.905,1.464,5.737,-31.617,
00:00:33:850,0.004,0.404,0.905,-4.578,4.028,-31.739,
00:00:33:867,0.004,0.408,0.897,-10.743,1.525,-29.053,
00:00:33:884,0.004,0.42,0.892,-11.231,3.784,-30.274,
00:00:33:900,0,0.42,0.899,1.464,5.004,-29.908,
00:00:33:917,0.007,0.415,0.899,6.53,6.53,-29.908,
00:00:33:934,0.001,0.406,0.896,6.713,6.347,-28.26,
00:00:33:950,0.002,0.407,0.9,3.295,6.836,-27.344,
00:00:33:967,0.004,0.408,0.894,2.258,6.836,-28.443,
00:00:33:984,0.002,0.41,0.894,-0.672,5.188,-28.87,
00:00:34:0,0.007,0.413,0.898,-2.076,4.882,-26.917,
00:00:34:17,0.002,0.416,0.898,2.502,3.967,-26.368,
00:00:34:34,0.001,0.414,0.899,4.516,5.615,-23.865,
00:00:34:50,0.003,0.411,0.898,6.347,7.263,-25.025,
00:00:34:67,0.005,0.412,0.899,6.713,6.713,-25.574,
00:00:34:84,0.001,0.409,0.899,5.127,5.676,-24.537,
00:00:34:100,0.001,0.411,0.901,3.662,5.432,-23.255,
00:00:34:117,-0.003,0.409,0.895,2.197,6.347,-22.217,
00:00:34:134,0.005,0.413,0.897,-2.259,7.446,-20.386,
00:00:34:150,0.004,0.421,0.895,4.394,6.836,-16.907,
00:00:34:167,-0.002,0.412,0.897,13.671,8.422,-18.067,
00:00:34:184,0.003,0.406,0.901,5.676,9.643,-19.837,
00:00:34:200,0.004,0.407,0.895,-2.869,8.117,-24.537,
00:00:34:217,0.007,0.425,0.896,-5.738,6.042,-24.659,
00:00:34:234,0.004,0.425,0.886,10.925,7.995,-18.982,
00:00:34:250,-0.001,0.41,0.897,18.676,8.606,-18.555,
00:00:34:267,0.005,0.402,0.899,4.516,5.92,-22.706,
00:00:34:284,0.003,0.408,0.897,-4.212,7.568,-23.133,
00:00:34:300,0.002,0.422,0.896,-2.564,6.591,-18.982,
00:00:34:317,0.005,0.413,0.893,4.882,8.483,-19.532,
00:00:34:334,0.006,0.408,0.904,5.554,5.493,-20.508,
00:00:34:350,0.003,0.403,0.896,-4.151,4.333,-21.058,
00:00:34:367,0.006,0.411,0.896,-17.273,2.136,-23.255,
00:00:34:384,0.001,0.411,0.891,-24.903,2.624,-24.781,
00:00:34:400,-0.001,0.406,0.9,-37.476,7.995,-28.565,
00:00:34:417,0,0.412,0.9,-57.251,7.507,-46.57,
00:00:34:434,-0.003,0.421,0.886,-68.177,10.009,-32.471,
00:00:34:450,0.002,0.448,0.88,-37.842,11.108,-17.456,
00:00:34:467,-0.001,0.434,0.89,-0.611,20.507,-7.63,
00:00:34:484,0.011,0.418,0.895,4.211,20.813,-1.282,
00:00:34:500,0.003,0.411,0.893,-7.325,16.784,-2.076,
00:00:34:517,0.005,0.421,0.892,-19.593,14.099,-6.531,
00:00:34:534,0.007,0.442,0.883,-14.405,10.009,-7.386,
00:00:34:550,0,0.44,0.883,3.723,10.009,-7.264,
00:00:34:567,0.006,0.431,0.887,9.46,12.329,-10.193,
00:00:34:584,0.003,0.421,0.894,7.019,8.178,-15.137,
00:00:34:600,0.004,0.422,0.893,-0.672,6.408,-18.067,
00:00:34:617,0.002,0.429,0.885,-1.954,3.784,-20.752,
00:00:34:634,0.004,0.436,0.886,4.821,4.333,-19.165,
00:00:34:650,-0.002,0.434,0.884,12.329,6.408,-15.32,
00:00:34:667,0,0.421,0.887,17.944,11.169,-13.733,
00:00:34:684,0.006,0.416,0.894,8.544,7.446,-16.175,
00:00:34:700,0.005,0.419,0.891,4.272,5.493,-18.311,
00:00:34:717,0.003,0.434,0.888,-2.198,3.356,-19.532,
00:00:34:734,-0.001,0.438,0.882,8.972,9.094,-16.175,
00:00:34:750,0.004,0.432,0.892,20.874,7.568,-14.283,
00:00:34:767,0.002,0.421,0.895,21.179,4.821,-14.344,
00:00:34:784,0,0.412,0.894,13.977,5.92,-19.043,
00:00:34:800,-0.003,0.425,0.89,-4.395,4.76,-24.903,
00:00:34:817,-0.003,0.437,0.88,-2.198,11.352,-24.17,
00:00:34:834,-0.006,0.421,0.886,-9.766,26.733,-24.964,
00:00:34:850,-0.003,0.388,0.895,-76.783,39.428,-34.485,
00:00:34:867,-0.01,0.394,0.884,-135.254,49.011,-42.786,
00:00:34:884,-0.01,0.409,0.891,-197.205,61.279,-53.101,
00:00:34:900,0.037,0.491,0.883,-175.721,37.658,-40.223,
00:00:34:917,0.003,0.508,0.872,-50.66,31.555,-9.644,
00:00:34:934,0.011,0.463,0.867,-7.935,38.391,-18.738,
00:00:34:950,0.015,0.444,0.878,-21.607,30.09,-15.442,
00:00:34:967,0.004,0.434,0.879,-40.039,25.817,-27.649,
00:00:34:984,0.015,0.438,0.878,-69.642,23.925,-33.02,
00:00:35:0,0.01,0.444,0.871,-92.896,27.832,-37.171,
00:00:35:17,0.018,0.463,0.874,-107.422,22.338,-41.932,
00:00:35:34,0.019,0.489,0.867,-82.886,9.826,-32.349,
00:00:35:50,0.014,0.493,0.86,-38.575,10.864,-27.344,
00:00:35:67,0.015,0.476,0.869,-22.95,16.601,-26.551,
00:00:35:84,0.013,0.457,0.871,-31.983,21.545,-31.495,
00:00:35:100,0.016,0.462,0.867,-51.636,24.353,-32.288,
00:00:35:117,0.017,0.476,0.858,-54.383,25.573,-31.678,
00:00:35:134,0.022,0.508,0.857,-25.208,18.554,-26.734,
00:00:35:150,0.019,0.498,0.853,12.39,17.761,-22.461,
00:00:35:167,0.016,0.473,0.861,18.615,21.606,-24.476,
00:00:35:184,0.017,0.462,0.87,1.281,19.348,-25.818,
00:00:35:200,0.017,0.439,0.866,-20.508,21.85,-31.983,
00:00:35:217,0.018,0.468,0.856,-48.584,27.343,-33.509,
00:00:35:234,0.022,0.48,0.848,-79.163,31.494,-38.758,
00:00:35:250,0.02,0.496,0.855,-76.844,36.56,-32.593,
00:00:35:267,0.02,0.499,0.853,-33.081,45.959,-26.429,
00:00:35:284,0.026,0.484,0.855,-24.842,50.476,-27.71,
00:00:35:300,0.03,0.479,0.855,-50.721,47.729,-29.969,
00:00:35:317,0.025,0.48,0.861,-69.153,41.137,-33.753,
00:00:35:334,0.023,0.483,0.855,-77.088,40.588,-33.997,
00:00:35:350,0.043,0.5,0.839,-80.567,35.156,-37.781,
00:00:35:367,0.033,0.515,0.828,-65.735,25.39,-31.128,
00:00:35:384,0.025,0.535,0.839,-27.771,25.817,-27.405,
00:00:35:400,0.037,0.518,0.843,14.831,26.794,-26.856,
00:00:35:417,0.031,0.49,0.846,10.986,25.94,-25.818,
00:00:35:434,0.038,0.489,0.847,-10.315,18.798,-32.227,
00:00:35:450,0.036,0.504,0.846,-19.165,17.15,-32.715,
00:00:35:467,0.036,0.512,0.837,-23.011,18.676,-36.133,
00:00:35:484,0.036,0.51,0.841,-19.532,22.461,-37.415,
00:00:35:500,0.037,0.513,0.837,-7.569,21.911,-35.218,
00:00:35:517,0.037,0.505,0.838,5.676,28.991,-32.532,
00:00:35:534,0.041,0.492,0.837,-5.555,30.7,-40.711,
00:00:35:550,0.043,0.499,0.844,-24.048,26.001,-41.748,
00:00:35:567,0.041,0.505,0.838,-38.575,24.231,-48.401,
00:00:35:584,0.046,0.522,0.834,-44.251,20.019,-50.171,
00:00:35:600,0.046,0.539,0.829,-6.836,22.461,-42.908,
00:00:35:617,0.046,0.522,0.835,33.508,28.625,-43.03,
00:00:35:634,0.049,0.501,0.837,33.447,25.695,-43.946,
00:00:35:650,0.047,0.499,0.842,18.005,22.094,-46.387,
00:00:35:667,0.052,0.502,0.835,6.774,22.949,-49.073,
00:00:35:684,0.044,0.511,0.832,8.972,29.113,-43.885,
00:00:35:700,0.049,0.516,0.836,12.878,35.4,-47.913,
00:00:35:717,0.051,0.508,0.834,8.361,41.015,-44.19,
00:00:35:734,0.054,0.499,0.838,-7.264,43.762,-49.073,
00:00:35:750,0.051,0.487,0.851,-51.758,50.72,-48.706,
00:00:35:767,0.059,0.471,0.85,-119.263,59.997,-57.496,
00:00:35:784,0.062,0.484,0.847,-170.411,61.218,-54.871,
00:00:35:800,0.067,0.521,0.832,-180.176,60.852,-48.035,
00:00:35:817,0.07,0.567,0.814,-134.949,51.818,-39.307,
00:00:35:834,0.059,0.582,0.806,-60.73,47.546,-27.222,
00:00:35:850,0.062,0.576,0.803,26.672,45.776,-20.874,
00:00:35:867,0.071,0.548,0.81,66.955,44.86,-21.363,
00:00:35:884,0.074,0.526,0.822,69.641,40.405,-21.79,
00:00:35:900,0.063,0.54,0.822,69.702,24.536,-26.429,
00:00:35:917,0.077,0.542,0.813,87.768,39.123,-18.677,
00:00:35:934,0.063,0.546,0.814,128.479,29.174,-20.02,
00:00:35:950,0.077,0.526,0.824,170.471,16.845,-13.916,
00:00:35:967,0.077,0.505,0.84,178.466,7.812,-14.893,
00:00:35:984,0.08,0.494,0.84,159.851,1.22,-18.86,
00:00:36:0,0.08,0.495,0.842,157.043,-3.663,-15.198,
00:00:36:17,0.076,0.5,0.839,158.569,-8.545,-0.306,
00:00:36:34,0.071,0.488,0.848,157.104,-9.278,-16.907,
00:00:36:50,0.068,0.478,0.85,144.104,-13.916,-18.128,
00:00:36:67,0.061,0.476,0.849,123.352,-7.264,-19.776,
00:00:36:84,0.059,0.471,0.87,112.243,-6.104,-27.955,
00:00:36:100,0.084,0.461,0.862,100.036,-0.55,-22.644,
00:00:36:117,0.07,0.45,0.868,83.19,1.098,-21.302,
00:00:36:134,0.062,0.452,0.87,60.241,9.704,-22.461,
00:00:36:150,0.076,0.462,0.863,50.415,11.657,-22.034,
00:00:36:167,0.069,0.468,0.868,43.762,13.732,-17.212,
00:00:36:184,0.069,0.461,0.866,42.968,17.15,-20.935,
00:00:36:200,0.067,0.462,0.866,42.907,17.944,-18.616,
00:00:36:217,0.061,0.457,0.865,38.208,19.531,-22.644,
00:00:36:234,0.07,0.46,0.865,33.447,17.7,-24.048,
00:00:36:250,0.07,0.457,0.87,31.616,19.897,-21.424,
00:00:36:267,0.075,0.451,0.872,27.526,20.08,-24.109,
00:00:36:284,0.075,0.449,0.868,15.502,16.601,-23.011,
00:00:36:300,0.078,0.45,0.869,9.155,13.183,-23.255,
00:00:36:317,0.077,0.456,0.865,11.718,7.263,-22.217,
00:00:36:334,0.072,0.455,0.866,10.437,1.953,-22.339,
00:00:36:350,0.078,0.459,0.87,10.559,-0.977,-23.011,
00:00:36:367,0.07,0.452,0.865,6.713,-3.785,-25.208,
00:00:36:384,0.074,0.453,0.867,2.441,-7.264,-26.307,
00:00:36:400,0.075,0.461,0.871,3.356,-8.851,-27.527,
00:00:36:417,0.067,0.46,0.864,12.023,-7.142,-27.161,
00:00:36:434,0.069,0.451,0.87,8.117,-4.883,-32.959,
00:00:36:450,0.068,0.45,0.864,-3.357,-1.221,-31.739,
00:00:36:467,0.072,0.467,0.872,2.136,-6.531,-28.748,
00:00:36:484,0.062,0.464,0.872,14.526,-0.611,-25.94,
00:00:36:500,0.064,0.451,0.874,18.371,3.356,-24.659,
00:00:36:517,0.069,0.456,0.883,10.742,5.737,-26.795,
00:00:36:534,0.068,0.454,0.866,5.554,13.366,-25.391,
00:00:36:550,0.074,0.464,0.878,9.643,15.686,-23.011,
00:00:36:567,0.075,0.466,0.869,19.531,11.84,-22.828,
00:00:36:584,0.076,0.464,0.873,21.484,12.939,-19.349,
00:00:36:600,0.07,0.463,0.873,27.038,9.948,-21.119,
00:00:36:617,0.072,0.455,0.874,27.771,15.502,-16.541,
00:00:36:634,0.071,0.447,0.879,27.099,15.441,-21.241,
00:00:36:650,0.074,0.453,0.867,13.366,16.296,-17.212,
00:00:36:667,0.066,0.456,0.882,12.878,14.038,-18.311,
00:00:36:684,0.064,0.439,0.876,16.479,16.601,-13.916,
00:00:36:700,0.073,0.437,0.885,15.319,11.413,-9.217,
00:00:36:717,0.066,0.438,0.878,10.681,13.977,-1.526,
00:00:36:734,0.065,0.435,0.89,4.943,19.592,-0.55,
00:00:36:750,0.072,0.429,0.883,-16.053,25.94,-1.648,
00:00:36:767,0.079,0.451,0.885,-37.049,26.428,-4.883,
00:00:36:784,0.078,0.466,0.87,-35.035,25.024,-10.376,
00:00:36:800,0.079,0.466,0.873,-13.55,21.667,-18.067,
00:00:36:817,0.076,0.466,0.861,10.131,24.475,-16.419,
00:00:36:834,0.068,0.455,0.873,18.615,21.911,-21.241,
00:00:36:850,0.067,0.444,0.88,-6.165,25.146,-27.283,
00:00:36:867,0.071,0.427,0.89,-49.866,18.92,-36.744,
00:00:36:884,0.079,0.433,0.895,-104.554,10.864,-34.913,
00:00:36:900,0.064,0.465,0.909,-115.113,-7.081,-29.48,
00:00:36:917,0.016,0.468,0.913,-64.393,10.437,-21.912,
00:00:36:934,0.013,0.406,0.926,-38.086,56.579,-44.739,
00:00:36:950,0.066,0.357,0.912,-127.259,64.209,-57.129,
00:00:36:967,0.063,0.389,0.863,-287.964,20.507,-42.908,
00:00:36:984,0.014,0.482,0.905,-325.196,-15.931,-48.89,
00:00:37:0,0.029,0.549,0.893,-389.588,-52.552,-68.848,
00:00:37:17,0.037,0.61,0.874,-421.021,-95.765,-61.768,
