TIMECODE,ACC_X,ACC_Y,ACC_Z,GYR_X,GYR_Y,GYR_Z,ECG_I,ECG_II,ECG_III,TAG
,-0.021,0.565,0.811,9.033,10.07,-21.668,0,0,0,
,-0.022,0.552,0.804,6.53,11.413,-21.485,0,0,0,
,-0.02,0.552,0.812,1.281,11.108,-21.119,0,0,0,
,-0.017,0.556,0.81,-1.465,10.62,-20.142,0,0,0,
,-0.015,0.579,0.811,5.981,7.568,-13.977,0,0,0,
,-0.015,0.596,0.797,19.226,7.934,-4.456,0,0,0,
,-0.019,0.564,0.808,34.973,5.004,4.943,0,0,0,
,-0.024,0.519,0.804,22.338,-0.977,0.488,0,0,0,
,-0.034,0.546,0.813,3.723,-2.503,-14.893,0,0,0,
,-0.001,0.57,0.809,-0.184,6.347,-24.231,0,0,0,
,-0.022,0.571,0.805,10.315,12.878,-24.231,0,0,0,
,-0.021,0.56,0.803,13.671,10.315,-19.532,0,0,0,
,-0.025,0.552,0.815,13.183,8.911,-19.043,0,0,0,
,-0.025,0.546,0.808,6.103,9.216,-22.156,0,0,0,
,-0.022,0.56,0.81,1.77,13.916,-24.292,0,0,0,
,-0.021,0.553,0.805,1.403,12.512,-23.682,0,0,0,
,-0.023,0.563,0.809,1.22,7.873,-24.048,0,0,0,
,-0.026,0.565,0.803,5.004,12.39,-23.743,0,0,0,
,-0.025,0.557,0.811,7.446,15.197,-23.926,0,0,0,
,-0.018,0.564,0.807,6.774,4.577,-23.865,0,0,0,
,-0.027,0.558,0.809,6.836,6.774,-22.4,0,0,0,
,-0.022,0.555,0.813,5.737,16.601,-25.452,0,0,0,
,-0.013,0.548,0.816,3.173,28.137,-11.719,0,0,0,
,-0.022,0.532,0.825,-21.119,30.7,6.469,0,0,0,
,-0.034,0.513,0.848,-88.99,33.081,13.732,0,0,0,
,-0.042,0.531,0.863,-135.315,44.006,42.175,0,0,0,
,-0.024,0.591,0.866,-193.909,69.03,68.603,0,0,0,
,-0.022,0.749,0.931,-20.691,80.139,9.643,0,0,0,
,0.023,0.778,1.278,173.278,46.814,55.481,0,0,0,
,0.091,0.859,1.732,1087.036,-147.339,226.074,0,0,0,
,-0.144,0.031,1.593,1013.122,96.252,-45.716,0,0,0,
,0.355,0.685,2.481,8.361,-140.198,144.165,0,0,0,
,0.668,0.915,1.827,-520.935,-640.137,304.321,0,0,0,
,0.364,1.203,1.75,-424.012,-908.387,313.72,0,0,0,
,0.412,1.91,2.142,-150.879,-1355.835,803.466,0,0,0,
,0.533,2.23,2.005,345.52,-1759.217,1227.6,0,0,0,
,0.351,1.743,1.497,914.856,-2000,1497.314,0,0,0,
,0.072,0.931,0.788,1223.816,-2000,1575.988,0,0,0,
,-0.031,0.439,0.313,1204.101,-2000,1573.12,0,0,0,
,0.096,0.135,-0.098,1005.127,-2000,1459.411,0,0,0,
,0.195,0.025,-0.378,894.348,-2000,1350.463,0,0,0,
,0.175,-0.012,-0.551,875.915,-1997.681,1274.719,0,0,0,
,0.052,-0.075,-0.76,824.218,-1708.863,1129.028,0,0,0,
,-0.041,-0.221,-0.937,553.039,-1402.894,906.799,0,0,0,
,-0.465,-0.749,-0.935,377.136,16.296,323.73,0,0,0,
,-0.441,-0.764,-0.739,90.82,498.413,10.498,0,0,0,
,-0.346,-0.586,-0.527,-326.416,812.011,-347.535,0,0,0,
,-0.297,-0.409,-0.438,-704.346,1044.555,-578.125,0,0,0,
,-0.334,-0.34,-0.398,-948.182,1241.638,-836.487,0,0,0,
,-0.493,-0.173,0.779,-736.878,1613.83,-1511.292,0,0,0,
,-0.326,0.333,1.051,-791.077,1479.004,-1588.501,0,0,0,
,-0.455,0.752,1.109,-998.719,1364.074,-1460.694,0,0,0,
,-0.621,0.988,0.955,-1096.131,1331.665,-1271.668,0,0,0,
,-0.555,1.001,0.975,-735.413,1356.323,-1131.592,0,0,0,
,-0.344,0.951,1.23,-21.729,1381.897,-958.802,0,0,0,
,-0.111,0.765,1.419,277.954,1255.92,-799.317,0,0,0,
,-0.047,0.715,1.486,189.697,1016.601,-648.621,0,0,0,
,-0.085,0.75,1.271,-80.75,781.921,-573.365,0,0,0,
,-0.17,0.85,0.974,-305.97,672.363,-477.845,0,0,0,
,-0.184,0.907,0.953,-154.48,639.465,-427.491,0,0,0,
,-0.108,0.746,1.049,200.5,649.292,-400.086,0,0,0,
,0.061,0.504,1.181,349.792,575.561,-352.845,0,0,0,
,0.181,0.426,1.171,126.831,400.085,-270.752,0,0,0,
,0.078,0.466,1.033,-104.126,256.042,-252.686,0,0,0,
,-0.077,0.43,0.795,-185.975,222.717,-254.761,0,0,0,
,-0.056,0.483,0.681,-105.103,220.153,-250.611,0,0,0,
,0.037,0.5,0.515,343.017,-72.754,14.526,0,0,0,
,-0.247,0.136,0.887,260.864,102.295,-9.034,0,0,0,
,0.064,0.146,0.934,-17.823,13.305,-110.535,0,0,0,
,0.139,0.281,0.904,-250.55,-55.359,-120.057,0,0,0,
,-0.059,0.507,0.857,-374.024,-85.328,-12.513,0,0,0,
,-0.142,0.362,0.94,9.826,14.038,-10.621,0,0,0,
,-0.168,0.228,0.828,-32.715,26.855,-67.872,0,0,0,
,-0.071,0.43,0.896,-57.923,27.221,-106.446,0,0,0,
,-0.026,0.574,0.88,-64.454,22.705,-98.511,0,0,0,
,-0.016,0.551,0.821,-79.102,11.352,-55.176,0,0,0,
,-0.021,0.225,0.887,28.564,0.122,-73.975,0,0,0,
,-0.004,0.303,0.862,-139.771,-31.678,-19.593,0,0,0,
,-0.049,0.643,0.828,-144.288,-25.269,-6.287,0,0,0,
,-0.037,0.735,0.799,-40.101,20.935,-1.343,0,0,0,
,-0.029,0.576,0.818,48.767,36.377,22.583,0,0,0,
,-0.051,0.451,0.852,50.109,28.808,16.906,0,0,0,
,-0.056,0.435,0.851,7.568,16.662,-27.466,0,0,0,
,-0.044,0.502,0.858,-7.508,20.019,-41.81,0,0,0,
,-0.024,0.569,0.846,20.019,31.311,-49.439,0,0,0,
,-0.041,0.535,0.792,34.179,56.518,-49.5,0,0,0,
,-0.004,0.522,0.826,41.687,54.443,-62.867,0,0,0,
,-0.046,0.448,0.845,-83.924,-23.743,5.615,0,0,0,
,-0.028,0.551,0.869,-86.487,-16.236,-0.977,0,0,0,
,-0.026,0.557,0.836,-69.458,-14.039,19.47,0,0,0,
,-0.055,0.559,0.848,-41.871,-2.198,12.695,0,0,0,
,-0.053,0.547,0.83,-16.053,16.845,-7.752,0,0,0,
,-0.044,0.552,0.859,81.298,54.626,-30.579,0,0,0,
,-0.045,0.488,0.834,81.359,65.246,-38.331,0,0,0,
,0.002,0.514,0.8,42.175,85.754,-132.935,0,0,0,
,0.011,0.531,0.992,17.273,100.769,-122.071,0,0,0,
,0.024,0.598,0.789,95.275,23.62,-35.889,0,0,0,
,-0.009,0.422,0.883,35.095,-16.48,-18.494,0,0,0,
,-0.026,0.43,0.842,8.178,9.582,2.868,0,0,0,
,-0.018,0.538,0.841,0.854,11.84,-21.18,0,0,0,
,-0.008,0.551,0.837,19.592,27.404,0.61,0,0,0,
,-0.011,0.511,0.828,28.381,11.413,3.234,0,0,0,
,-0.012,0.496,0.881,30.273,-10.987,-13.184,0,0,0,
,-0.045,0.435,0.838,-7.996,-4.334,6.836,0,0,0,
,-0.05,0.508,0.846,-18.067,22.522,-41.382,0,0,0,
,0.001,0.53,0.843,-14.161,45.044,-55.176,0,0,0,
,0.008,0.495,0.827,-17.395,32.836,-44.495,0,0,0,
,0,0.541,0.843,14.282,15.502,-38.208,0,0,0,
,0.004,0.562,0.83,46.264,10.07,-19.104,0,0,0,
,0.017,0.479,0.86,38.635,-16.968,-2.503,0,0,0,
,-0.004,0.424,0.861,-3.418,-45.472,16.113,0,0,0,
,-0.035,0.454,0.832,-47.425,-76.661,3.479,0,0,0,
,-0.059,0.541,0.818,-36.683,-45.899,-28.748,0,0,0,
,-0.057,0.564,0.842,2.319,-0.061,-72.754,0,0,0,
,-0.01,0.499,0.845,5.371,32.47,-76.966,0,0,0,
,0.002,0.511,0.874,18.554,27.221,-64.942,0,0,0,
,0.031,0.429,0.822,-14.405,24.902,-44.373,0,0,0,
,-0.003,0.498,0.836,-37.415,7.263,-36.072,0,0,0,
,-0.006,0.51,0.86,-48.706,14.221,-17.945,0,0,0,
,-0.006,0.528,0.833,-44.861,16.357,-17.762,0,0,0,
,-0.005,0.515,0.852,-40.467,14.404,-12.574,0,0,0,
,-0.013,0.519,0.83,-37.415,8.911,-13.916,0,0,0,
,-0.015,0.527,0.85,-26.368,9.887,-13.306,0,0,0,
,-0.015,0.526,0.831,-18.128,10.864,-11.719,0,0,0,
,-0.013,0.516,0.839,-15.686,1.281,-9.034,0,0,0,
,-0.019,0.515,0.832,-20.264,-5.188,-11.475,0,0,0,
,-0.051,0.49,0.823,10.253,-9.461,-66.529,0,0,0,
,-0.016,0.536,0.834,-5.127,26.611,-10.254,0,0,0,
,-0.004,0.583,0.84,-5.982,-0.855,-47.242,0,0,0,
,-0.007,0.544,0.844,3.967,20.629,-16.724,0,0,0,
,-0.013,0.498,0.838,7.263,3.356,-27.344,0,0,0,
,-0.027,0.508,0.836,3.173,2.99,-28.931,0,0,0,
,-0.026,0.536,0.839,3.723,10.681,-36.255,0,0,0,
,-0.016,0.527,0.827,4.028,18.92,-37.354,0,0,0,
,-0.005,0.524,0.826,7.324,15.38,-31.8,0,0,0,
,0,0.51,0.832,-3.296,4.516,-27.649,0,0,0,
,0.001,0.52,0.831,-2.32,6.286,-21.302,0,0,0,
,-0.002,0.512,0.839,-2.747,-4.944,-32.959,0,0,0,
,-0.001,0.526,0.839,-2.869,3.051,-11.109,0,0,0,
,-0.006,0.52,0.837,-10.071,-6.775,-6.47,0,0,0,
,-0.008,0.506,0.831,-17.701,-19.227,3.601,0,0,0,
,-0.021,0.51,0.835,-31.861,-31.373,3.479,0,0,0,
,-0.03,0.531,0.832,-29.725,-20.997,6.897,0,0,0,
,-0.027,0.532,0.835,-27.894,-10.315,-6.653,0,0,0,
,-0.014,0.539,0.824,-25.452,-3.54,-4.944,0,0,0,
,-0.016,0.551,0.832,-15.442,-9.095,-9.949,0,0,0,
,-0.023,0.554,0.829,2.075,-2.808,-10.682,0,0,0,
,-0.022,0.541,0.835,16.601,4.76,-13.001,0,0,0,
,-0.021,0.52,0.827,17.028,1.098,-9.156,0,0,0,
,-0.023,0.519,0.832,12.023,-10.498,-4.883,0,0,0,
,-0.036,0.523,0.833,6.591,-11.353,0.183,0,0,0,
,-0.036,0.52,0.834,-3.907,-2.625,-4.944,0,0,0,
,-0.035,0.518,0.836,-11.963,11.169,-14.405,0,0,0,
,-0.025,0.531,0.835,-15.381,21.728,-22.034,0,0,0,
,-0.016,0.532,0.826,-17.273,20.08,-19.41,0,0,0,
,-0.016,0.535,0.831,-12.818,11.413,-12.513,0,0,0,
,-0.022,0.532,0.828,-11.536,2.685,-6.592,0,0,0,
,-0.028,0.526,0.827,-12.757,-0.489,-6.226,0,0,0,
,-0.032,0.538,0.821,-13.367,-2.076,-7.752,0,0,0,
,-0.033,0.557,0.825,-6.043,-0.55,-12.146,0,0,0,
,-0.031,0.558,0.824,6.774,6.103,-15.87,0,0,0,
,-0.025,0.528,0.83,16.418,3.356,-20.264,0,0,0,
,-0.03,0.523,0.835,8.667,5.188,-16.968,0,0,0,
,-0.03,0.523,0.833,2.197,7.08,-15.259,0,0,0,
,-0.032,0.521,0.833,-7.447,9.887,-17.029,0,0,0,
,-0.034,0.531,0.824,-12.94,12.756,-19.288,0,0,0,
,-0.032,0.536,0.83,-12.269,15.197,-23.438,0,0,0,
,-0.026,0.538,0.832,-15.381,18.005,-25.391,0,0,0,
,-0.025,0.537,0.823,-9.705,15.319,-27.405,0,0,0,
,-0.023,0.547,0.821,-4.334,11.291,-25.574,0,0,0,
,-0.025,0.541,0.824,3.295,9.948,-22.583,0,0,0,
,-0.028,0.541,0.825,7.751,4.882,-23.316,0,0,0,
,-0.033,0.547,0.83,6.836,9.521,-26.856,0,0,0,
,-0.029,0.537,0.829,10.192,15.502,-26.612,0,0,0,
,-0.024,0.523,0.824,7.995,14.099,-26.307,0,0,0,
,-0.025,0.525,0.826,1.342,11.596,-23.56,0,0,0,
,-0.028,0.539,0.829,-0.489,9.155,-24.17,0,0,0,
,-0.024,0.542,0.821,6.469,9.46,-24.781,0,0,0,
,-0.023,0.541,0.828,8.361,9.277,-22.278,0,0,0,
,-0.027,0.539,0.823,11.84,8.056,-19.532,0,0,0,
,-0.029,0.534,0.826,11.291,10.864,-18.372,0,0,0,
,-0.03,0.532,0.827,7.568,10.253,-20.508,0,0,0,
,-0.028,0.537,0.827,8.789,15.38,-21.668,0,0,0,
,-0.026,0.539,0.831,7.324,20.019,-20.63,0,0,0,
,-0.023,0.532,0.827,9.582,11.901,-18.921,0,0,0,
,-0.033,0.537,0.839,7.812,18.737,-15.748,0,0,0,
,-0.046,0.56,0.839,8.117,41.503,-15.992,0,0,0,
,-0.051,0.601,0.889,42.48,68.786,-18.616,0,0,0,
,-0.097,0.636,0.964,115.295,90.21,3.723,0,0,0,
,0.026,0.662,1.653,209.167,-7.447,211.059,0,0,0,
,-0.139,1.129,1.163,1254.394,125.671,288.635,0,0,0,
,-0.047,0.518,2.232,1081.115,65.856,166.992,0,0,0,
,0.315,0.471,2.204,30.151,-227.662,171.386,0,0,0,
,0.301,0.706,1.692,-565.247,-569.458,417.785,0,0,0,
,0.235,0.982,1.486,-651.062,-978.699,471.191,0,0,0,
,0.2,1.365,1.953,-199.28,-1387.818,750.244,0,0,0,
,0.078,1.59,2.023,452.636,-1711.487,1025.085,0,0,0,
,0.13,1.324,1.828,1007.995,-1999.207,1143.31,0,0,0,
,0.236,0.951,1.48,1172.485,-2000,1220.031,0,0,0,
,0.229,0.663,1.081,1103.271,-2000,1328.003,0,0,0,
,0.221,0.63,0.761,953.735,-2000,1301.208,0,0,0,
,0.197,0.6,0.387,833.007,-2000,1351.013,0,0,0,
,0.038,0.182,-0.359,1332.336,-2000,1362.793,0,0,0,
,-0.025,0.009,-0.506,1436.767,-2000,1267.761,0,0,0,
,-0.106,-0.101,-0.593,1379.15,-2000,1120.91,0,0,0,
,-0.14,-0.119,-0.597,1124.389,-1834.961,985.473,0,0,0,
,-0.172,-0.099,-0.701,735.351,-1555.359,886.108,0,0,0,
,-0.286,-0.364,-1.132,38.33,-431.031,677.063,0,0,0,
,-0.346,-0.672,-1.203,-63.782,33.691,713.989,0,0,0,
,-0.437,-1.058,-1.139,101.013,549.377,115.661,0,0,0,
,-0.448,-1.266,-0.895,63.781,996.887,-276.551,0,0,0,
,-0.313,-0.969,-0.775,-675.965,1256.103,-639.283,0,0,0,
,-0.228,-0.661,-0.766,-1459.9,1393.493,-955.079,0,0,0,
,-0.291,-0.422,-0.633,-1905.396,1587.158,-1257.508,0,0,0,
,-0.311,-0.339,-0.337,-1974,1758.789,-1546.265,0,0,0,
,-0.301,-0.335,0.015,-1829.407,1879.15,-1757.63,0,0,0,
,-0.288,-0.285,0.283,-1533.692,1905.944,-1877.381,0,0,0,
,-0.249,0.028,0.294,-1331.238,1893.676,-1962.83,0,0,0,
,0.002,1.675,1.098,115.051,696.838,-723.572,0,0,0,
,0.084,1.15,1.201,949.096,728.393,-613.038,0,0,0,
,0.766,3.999,3.999,1737.732,-206.055,-415.589,0,0,0,
,0.197,-0.407,-1.224,-213.807,333.801,955.261,0,0,0,
,-0.261,1.247,1.284,930.969,-236.023,158.508,0,0,0,
,0.159,0.441,0.871,-614.747,355.713,-100.525,0,0,0,
,0.39,0.489,1.367,-679.383,-45.289,-79.041,0,0,0,
,0.054,0.514,0.62,-51.392,105.285,-19.471,0,0,0,
,-0.123,0.625,0.796,633.667,92.529,-72.632,0,0,0,
,-0.026,0.478,0.658,565.979,226.867,-78.614,0,0,0,
,0.051,0.636,0.899,180.542,4.699,0.183,0,0,0,
,0.01,0.39,0.832,298.095,25.146,15.869,0,0,0,
,0.047,0.383,0.991,242.065,-32.471,-50.11,0,0,0,
,0.116,0.431,0.843,-50.843,-95.826,27.404,0,0,0,
,0.217,0.733,0.859,-581.482,-171.998,102.905,0,0,0,
,0.319,1.072,0.543,-999.024,34.423,180.786,0,0,0,
,0.46,1.098,0.653,-2000,22.033,372.68,0,0,0,
,0.113,1.137,0.568,-1982.911,35.827,512.634,0,0,0,
,-0.12,1.056,0.492,-1778.504,151.306,571.655,0,0,0,
,-0.184,1.003,0.475,-1408.57,279.846,489.929,0,0,0,
,-0.178,0.934,0.548,-969.788,342.468,424.011,0,0,0,
,-0.206,0.849,0.611,-555.787,343.75,351.745,0,0,0,
,-0.23,0.737,0.553,-270.325,355.529,291.565,0,0,0,
,-0.255,0.589,0.491,-184.876,335.083,229.309,0,0,0,
,-0.293,0.445,0.405,-277.405,355.102,139.648,0,0,0,
,-0.295,0.413,0.478,-507.325,358.093,70.19,0,0,0,
,-0.156,0.588,0.481,-722.779,373.413,1.159,0,0,0,
,-0.024,0.72,0.526,-821.228,282.226,-67.322,0,0,0,
,-0.03,0.753,0.554,-820.984,202.209,-94.3,0,0,0,
,-0.049,0.73,0.403,-712.159,217.651,-40.65,0,0,0,
,-0.06,0.808,0.462,-892.151,73.547,-44.434,0,0,0,
,-0.088,0.694,0.337,-997.925,21.118,-98.999,0,0,0,
,-0.067,0.842,0.272,-1006.47,-13.184,-33.02,0,0,0,
,-0.006,1.088,0.169,-1042.359,-90.882,-10.437,0,0,0,
,-0.019,1.172,0.15,-978.638,-179.566,-8.118,0,0,0,
,-0.091,1.071,0.079,-799.256,-163.819,-23.987,0,0,0,
,-0.044,1.105,-0.158,-644.471,-105.164,19.104,0,0,0,
,0.045,1.182,-0.106,-521.607,-116.944,10.437,0,0,0,
,0.041,1.153,-0.095,-190.796,-111.39,-51.88,0,0,0,
,-0.012,1.098,-0.113,79.65,-80.567,-0.672,0,0,0,
,-0.051,0.87,-0.102,356.811,8.056,-31.556,0,0,0,
,0.004,0.644,-0.094,474.487,111.328,-60.364,0,0,0,
,0.074,0.753,-0.146,209.9,197.509,25.756,0,0,0,
,0.162,0.794,-0.043,-286.56,27.526,17.211,0,0,0,
,0.104,0.905,-0.079,-552.063,-59.266,31.677,0,0,0,
,-0.014,0.944,-0.137,-502.991,-56.336,-12.269,0,0,0,
,-0.057,0.861,-0.169,-246.094,57.556,-91.37,0,0,0,
,-0.049,0.96,-0.168,-63.538,131.225,-43.824,0,0,0,
,-0.028,0.932,-0.15,60.607,169.311,-76.6,0,0,0,
,-0.134,0.974,-0.069,-149.537,80.627,-17.579,0,0,0,
,-0.094,1.038,-0.055,-88.44,82.824,-12.391,0,0,0,
,-0.064,1.057,-0.019,-26.062,81.237,13.794,0,0,0,
,-0.081,1.068,0.021,-32.349,82.58,41.87,0,0,0,
,-0.016,1.104,0.078,-138.916,41.931,72.815,0,0,0,
,0.078,1.115,0.017,-221.131,2.075,114.868,0,0,0,
,0.086,1.178,-0.043,-131.958,-69.031,122.314,0,0,0,
,0.018,1.244,-0.028,88.073,-80.384,143.127,0,0,0,
,-0.027,1.196,-0.017,259.582,2.258,165.527,0,0,0,
,-0.024,1.106,-0.049,320.617,60.119,190.979,0,0,0,
,0.001,1.092,-0.07,236.511,18.676,202.026,0,0,0,
,-0.151,1.125,-0.054,17.578,34.729,240.661,0,0,0,
,-0.14,1.114,-0.086,-68.787,2.136,269.836,0,0,0,
,-0.2,1.108,0.002,-33.631,-36.377,316.589,0,0,0,
,-0.279,0.986,0.022,86.853,-8.973,331.054,0,0,0,
,-0.276,1.002,-0.019,161.193,25.878,319.275,0,0,0,
,-0.294,0.974,-0.123,205.383,34.423,315.49,0,0,0,
,-0.337,1.01,-0.036,257.507,56.518,283.142,0,0,0,
,-0.343,1.008,-0.056,280.456,88.501,287.78,0,0,0,
,-0.346,1.02,-0.078,279.785,94.055,281.799,0,0,0,
,-0.385,0.986,-0.047,278.32,101.867,273.315,0,0,0,
,-0.394,0.899,-0.024,312.194,135.62,271.972,0,0,0,
,-0.263,0.699,0.104,354.187,201.843,132.873,0,0,0,
,-0.265,0.694,0.165,376.709,159.362,80.627,0,0,0,
,-0.294,0.673,0.151,330.2,131.591,47.241,0,0,0,
,-0.279,0.692,0.131,221.801,131.469,25.268,0,0,0,
,-0.252,0.779,0.136,132.751,97.961,-22.522,0,0,0,
,-0.256,0.832,0.062,137.634,51.147,-19.41,0,0,0,
,-0.292,0.893,0.104,189.331,60.485,-21.973,0,0,0,
,-0.256,0.886,0.115,201.11,110.229,-15.625,0,0,0,
,-0.216,0.853,0.133,170.41,99.548,-18.677,0,0,0,
,-0.22,0.823,0.155,165.344,61.889,-33.143,0,0,0,
,-0.256,0.792,0.17,186.218,42.785,-52.918,0,0,0,
,-0.256,0.826,0.184,237.06,47.302,-82.154,0,0,0,
,-0.232,0.839,0.186,222.046,55.236,-91.553,0,0,0,
,-0.213,0.828,0.19,194.519,43.09,-108.46,0,0,0,
,-0.217,0.835,0.187,171.63,19.043,-121.766,0,0,0,
,-0.217,0.857,0.19,204.956,20.69,-141.968,0,0,0,
,-0.218,0.885,0.21,318.847,34.179,-159.729,0,0,0,
,-0.178,0.837,0.25,312.439,63.659,-204.529,0,0,0,
,-0.176,0.881,0.276,250.366,50.903,-219.544,0,0,0,
,-0.178,0.918,0.271,264.526,54.748,-232.544,0,0,0,
,-0.182,0.917,0.282,314.209,75.134,-230.408,0,0,0,
,-0.152,0.864,0.287,273.254,110.168,-218.811,0,0,0,
,-0.118,0.845,0.299,182.8,111.45,-217.53,0,0,0,
,-0.113,0.897,0.333,124.633,79.04,-218.384,0,0,0,
,-0.139,0.949,0.35,172.18,65.612,-213.807,0,0,0,
,-0.162,0.981,0.357,273.315,75.683,-192.81,0,0,0,
,-0.145,0.948,0.327,324.157,92.468,-174.378,0,0,0,
,-0.13,0.922,0.372,357.422,89.782,-155.518,0,0,0,
,-0.12,0.909,0.373,383.789,88.562,-148.316,0,0,0,
,-0.125,0.907,0.391,415.954,82.641,-137.94,0,0,0,
,-0.132,0.933,0.389,460.632,92.773,-125.306,0,0,0,
,-0.118,0.918,0.409,476.867,117.492,-118.103,0,0,0,
,-0.123,0.863,0.452,441.894,132.568,-103.394,0,0,0,
,-0.101,0.834,0.491,346.618,117.675,-98.267,0,0,0,
,-0.088,0.847,0.522,292.541,93.078,-95.948,0,0,0,
,-0.081,0.875,0.525,311.767,72.631,-91.187,0,0,0,
,-0.068,0.864,0.528,374.45,89.172,-43.03,0,0,0,
,-0.07,0.857,0.539,385.009,93.139,-33.265,0,0,0,
,-0.085,0.841,0.575,445.861,85.205,-22.461,0,0,0,
,-0.089,0.812,0.609,496.154,87.829,-24.109,0,0,0,
,-0.087,0.794,0.6,506.225,74.218,-18.982,0,0,0,
,-0.095,0.786,0.595,460.937,71.777,-17.456,0,0,0,
,-0.099,0.773,0.606,385.986,80.261,-10.743,0,0,0,
,-0.08,0.764,0.643,345.886,79.345,-11.231,0,0,0,
,-0.056,0.769,0.731,381.408,50.048,2.075,0,0,0,
,-0.007,0.67,0.614,267.212,46.752,4.272,0,0,0,
,-0.118,0.718,0.722,348.144,16.662,23.254,0,0,0,
,-0.085,0.768,0.682,330.566,22.522,19.836,0,0,0,
,-0.096,0.731,0.64,357.238,35.949,30.822,0,0,0,
,-0.115,0.708,0.718,370.117,55.908,29.235,0,0,0,
,-0.081,0.683,0.691,370.3,64.758,23.498,0,0,0,
,-0.074,0.686,0.722,343.933,62.011,24.963,0,0,0,
,-0.089,0.658,0.727,347.168,66.894,16.967,0,0,0,
,-0.075,0.642,0.737,353.942,71.716,14.953,0,0,0,
,-0.06,0.619,0.737,353.149,65.185,23.986,0,0,0,
,-0.072,0.621,0.754,346.374,54.931,31.005,0,0,0,
,-0.093,0.607,0.745,346.801,58.105,33.813,0,0,0,
,-0.09,0.617,0.756,329.773,60.791,28.015,0,0,0,
,-0.079,0.61,0.758,301.574,67.565,28.564,0,0,0,
,-0.085,0.562,0.758,267.334,65.429,24.78,0,0,0,
,-0.075,0.558,0.805,241.638,67.138,21.85,0,0,0,
,-0.052,0.544,0.813,231.018,58.837,12.329,0,0,0,
,-0.072,0.543,0.824,248.596,50.048,23.376,0,0,0,
,-0.085,0.538,0.786,252.319,44.189,21.606,0,0,0,
,-0.081,0.541,0.806,247.131,48.889,24.169,0,0,0,
,-0.032,0.555,0.828,256.897,47.607,24.597,0,0,0,
,-0.064,0.536,0.845,287.353,43.457,29.357,0,0,0,
,-0.081,0.497,0.849,294.738,39.001,29.968,0,0,0,
,-0.083,0.505,0.85,278.93,35.644,27.771,0,0,0,
,-0.079,0.483,0.843,269.592,37.658,19.348,0,0,0,
,-0.081,0.488,0.858,274.231,36.132,16.052,0,0,0,
,-0.079,0.479,0.853,270.935,45.532,10.803,0,0,0,
,-0.08,0.47,0.877,262.268,43.945,8.606,0,0,0,
,-0.07,0.47,0.894,263.122,37.536,12.085,0,0,0,
,-0.068,0.46,0.885,256.042,32.47,17.089,0,0,0,
,-0.077,0.442,0.894,233.215,26.306,20.507,0,0,0,
,-0.087,0.418,0.844,208.984,27.526,21.667,0,0,0,
,-0.073,0.411,0.882,190.612,25.573,14.709,0,0,0,
,-0.064,0.411,0.894,178.65,23.193,14.648,0,0,0,
,-0.088,0.41,0.9,188.476,29.48,16.113,0,0,0,
,-0.087,0.421,0.905,212.158,30.334,15.136,0,0,0,
,-0.085,0.422,0.9,254.028,34.362,18.676,0,0,0,
,-0.079,0.389,0.899,296.02,38.024,23.864,0,0,0,
,-0.067,0.379,0.908,305.725,49.133,29.907,0,0,0,
,-0.058,0.37,0.906,312.988,45.166,33.63,0,0,0,
,-0.077,0.36,0.927,318.847,50.537,34.24,0,0,0,
,-0.077,0.302,0.943,372.619,69.763,20.935,0,0,0,
,-0.054,0.288,0.941,354.675,59.082,30.395,0,0,0,
,-0.067,0.268,0.951,339.599,52.612,28.259,0,0,0,
,-0.059,0.249,0.954,314.331,50.659,27.038,0,0,0,
,-0.063,0.232,0.964,325.378,47.302,27.221,0,0,0,
,-0.065,0.236,0.972,340.271,50.476,26.062,0,0,0,
,-0.063,0.244,0.97,373.657,59.509,30.883,0,0,0,
,-0.064,0.224,0.981,395.996,69.152,34.668,0,0,0,
,-0.055,0.205,0.981,428.833,76.049,37.963,0,0,0,
,-0.056,0.184,0.977,460.022,84.35,35.583,0,0,0,
,-0.061,0.161,0.981,467.285,91.491,20.324,0,0,0,
,-0.051,0.137,0.987,491.027,97.534,30.578,0,0,0,
,-0.036,0.128,0.981,499.389,99.243,43.579,0,0,0,
,-0.04,0.109,0.988,495.117,109.253,50.048,0,0,0,
,-0.029,0.091,1.007,464.904,98.693,50.781,0,0,0,
,-0.024,0.06,0.999,438.72,95.52,49.438,0,0,0,
,-0.022,0.048,1.014,444.702,83.679,53.161,0,0,0,
,-0.034,0.034,1.002,451.599,88.44,68.969,0,0,0,
,-0.052,0.041,1.021,514.343,106.75,85.51,0,0,0,
,-0.041,-0.009,1.03,596.252,127.258,94.726,0,0,0,
,-0.022,-0.039,1.044,671.936,132.08,110.107,0,0,0,
,-0.019,-0.022,1.064,843.383,124.633,117.309,0,0,0,
,-0.016,-0.015,0.975,1062.5,157.959,148.803,0,0,0,
,-0.04,-0.041,0.91,1206.115,241.088,162.414,0,0,0,
,-0.003,-0.216,0.937,1177.429,279.48,154.297,0,0,0,
,0.024,-0.309,0.899,1034.118,292.236,106.994,0,0,0,
,0.042,-0.424,1,817.932,256.225,140.442,0,0,0,
,0.062,-0.374,0.984,683.41,211.792,157.653,0,0,0,
,0.047,-0.343,0.985,618.774,186.218,163.879,0,0,0,
,0.068,-0.397,0.924,529.724,161.743,129.455,0,0,0,
,0.073,-0.39,0.893,412.78,127.197,107.666,0,0,0,
,0.07,-0.4,0.89,363.647,112.304,97.961,0,0,0,
,0.092,-0.391,0.843,363.22,119.323,100.647,0,0,0,
,0.115,-0.386,0.879,325.805,123.352,100.708,0,0,0,
,0.153,-0.347,0.925,210.998,81.42,53.527,0,0,0,
,0.142,-0.375,0.971,179.687,53.283,74.279,0,0,0,
,0.146,-0.324,0.994,206.726,40.893,113.708,0,0,0,
,0.114,-0.324,0.998,283.63,35.339,122.07,0,0,0,
,0.085,-0.325,0.958,317.505,33.508,108.825,0,0,0,
,0.087,-0.353,0.889,336.425,36.621,85.632,0,0,0,
,0.097,-0.408,0.803,319.152,48.095,84.35,0,0,0,
,0.076,-0.552,0.749,342.468,73.913,28.564,0,0,0,
,0.082,-0.766,0.723,372.009,83.801,-18.555,0,0,0,
,0.151,-0.798,0.8,330.871,77.758,-8.118,0,0,0,
,0.253,-0.727,0.82,167.175,21.972,-20.264,0,0,0,
,0.329,-0.571,0.828,-60.242,-37.476,7.446,0,0,0,
,0.301,-0.524,0.78,-220.765,-79.407,-34.119,0,0,0,
,0.225,-0.566,0.737,-336.976,-107.972,-87.83,0,0,0,
,0.26,-0.573,0.705,-450.623,-140.381,-159.119,0,0,0,
,0.293,-0.529,0.76,-500.977,-161.072,-212.403,0,0,0,
,0.271,-0.576,0.748,-626.282,-165.162,-265.686,0,0,0,
,0.209,-0.68,0.7,-805.115,-147.828,-312.806,0,0,0,
,0.168,-0.458,0.906,-991.028,-161.255,-352.478,0,0,0,
,0.264,-0.425,0.964,-1493.165,-287.781,-413.88,0,0,0,
,0.205,-0.371,0.999,-1805.604,-371.338,-419.251,0,0,0,
,0.042,-0.269,1.003,-2000,-487.61,-399.537,0,0,0,
,0.055,-0.178,0.941,-2000,-544.495,-378.663,0,0,0,
,0.076,0.025,0.943,-2000,-635.987,-312.928,0,0,0,
,0.025,0.22,0.854,-2000,-671.448,-248.047,0,0,0,
,-0.093,0.424,0.9,-2000,-656.067,-211.853,0,0,0,
,-0.157,0.544,0.948,-2000,-595.093,-166.871,0,0,0,
,-0.14,0.619,0.949,-2000,-591.248,-124.573,0,0,0,
,-0.184,0.534,0.869,-1888.55,-578.37,-112.366,0,0,0,
,-0.255,0.351,0.805,-1692.75,-551.697,-62.317,0,0,0,
,-0.21,0.342,0.603,-1748.108,-527.649,159.912,0,0,0,
,-0.255,0.555,0.596,-1846.436,-531.678,-69.153,0,0,0,
,-0.243,0.569,0.433,-1841.98,-468.384,27.282,0,0,0,
,-0.201,0.828,0.38,-1780.213,-426.758,23.376,0,0,0,
,-0.231,0.875,0.387,-1651.49,-395.874,-22.767,0,0,0,
,-0.252,0.708,0.222,-1529.358,-357.544,20.446,0,0,0,
,-0.268,0.809,0.265,-1402.222,-330.079,-1.16,0,0,0,
,-0.263,0.84,0.214,-1271.18,-308.899,12.146,0,0,0,
,-0.245,0.863,0.067,-1250.916,-278.687,42.175,0,0,0,
,-0.286,0.878,-0.002,-1165.162,-264.832,-7.203,0,0,0,
,-0.349,0.97,0.035,-1049.134,-207.764,-33.997,0,0,0,
,-0.36,0.963,0.038,-922.242,-168.946,-42.969,0,0,0,
,-0.274,0.924,-0.083,-451.416,-157.898,-47.73,0,0,0,
,-0.236,0.953,-0.068,-397.156,-161.622,-32.227,0,0,0,
,-0.248,0.904,-0.101,-400.269,-181.336,-44.8,0,0,0,
,-0.29,0.87,-0.118,-431.397,-162.293,-43.335,0,0,0,
,-0.312,0.904,-0.089,-470.826,-127.32,-85.816,0,0,0,
,-0.264,0.933,-0.103,-419.007,-107.85,-39.917,0,0,0,
,-0.246,0.971,-0.114,-391.907,-131.348,-90.699,0,0,0,
,-0.28,0.963,-0.134,-332.398,-167.237,-51.758,0,0,0,
,-0.323,0.926,-0.198,-257.203,-172.181,-46.692,0,0,0,
,-0.349,0.907,-0.226,-215.088,-161.744,-46.265,0,0,0,
,-0.352,0.917,-0.208,-193.055,-117.066,-85.267,0,0,0,
,-0.329,0.908,-0.167,-240.845,-82.886,-83.191,0,0,0,
,-0.318,0.959,-0.218,-253.052,-128.235,-72.266,0,0,0,
,-0.373,0.966,-0.226,-205.689,-121.766,-127.93,0,0,0,
,-0.369,1.02,-0.219,-119.873,-65.369,-126.16,0,0,0,
,-0.339,1.037,-0.209,9.094,-37.171,-123.597,0,0,0,
,-0.315,0.969,-0.197,33.752,-50.11,-96.863,0,0,0,
,-0.307,0.948,-0.21,6.103,-38.392,-107.911,0,0,0,
,-0.293,0.946,-0.212,-4.151,-19.41,-119.446,0,0,0,
,-0.27,0.963,-0.2,40.222,-9.827,-140.686,0,0,0,
,-0.252,0.997,-0.185,144.409,9.399,-149.048,0,0,0,
,-0.251,0.999,-0.149,265.564,-2.808,-146.607,0,0,0,
,-0.241,0.973,-0.209,297.485,-43.763,-118.226,0,0,0,
,-0.252,0.928,-0.164,253.967,-10.193,-113.404,0,0,0,
,-0.22,0.963,-0.071,185.485,25.024,-149.903,0,0,0,
,-0.203,0.956,-0.101,135.437,-22.889,-128.174,0,0,0,
,-0.194,0.91,-0.165,12.878,-38.88,-111.573,0,0,0,
,-0.199,0.903,-0.175,-126.77,-19.532,-107.727,0,0,0,
,-0.175,0.989,-0.166,-227.051,25.634,-109.314,0,0,0,
,-0.15,1.05,-0.131,-164.002,13.977,-82.764,0,0,0,
,-0.15,1.054,-0.173,-50.721,-31.067,-54.444,0,0,0,
,-0.191,0.999,-0.212,4.516,-46.326,-34.79,0,0,0,
,-0.208,0.977,-0.227,21.301,-23.194,-28.626,0,0,0,
,-0.218,0.967,-0.189,15.686,40.161,-33.997,0,0,0,
,-0.201,0.979,-0.123,41.992,56.64,-56.397,0,0,0,
,-0.182,0.953,-0.153,30.212,29.48,-57.435,0,0,0,
,-0.203,0.951,-0.158,-20.02,23.803,-73.304,0,0,0,
,-0.214,0.993,-0.198,-34.974,23.193,-86.243,0,0,0,
,-0.206,1.01,-0.212,-3.785,64.209,-80.201,0,0,0,
,-0.186,0.976,-0.209,55.542,79.04,-70.557,0,0,0,
,-0.165,0.908,-0.148,93.505,96.191,-78.98,0,0,0,
,-0.141,0.896,-0.141,58.227,78.857,-88.379,0,0,0,
,-0.167,0.923,-0.118,23.132,56.762,-89.6,0,0,0,
,-0.176,0.96,-0.121,27.71,52.856,-92.591,0,0,0,
,-0.155,0.979,-0.139,14.221,50.231,-82.52,0,0,0,
,-0.135,0.962,-0.171,-12.024,30.273,-72.815,0,0,0,
,-0.146,0.959,-0.167,-23.011,18.798,-68.238,0,0,0,
,-0.156,0.963,-0.186,-33.631,29.968,-68.604,0,0,0,
,-0.162,0.951,-0.175,-17.64,53.649,-66.59,0,0,0,
,-0.134,0.949,-0.171,-9.278,61.584,-71.656,0,0,0,
,-0.126,0.947,-0.155,24.719,47.912,-73.365,0,0,0,
,-0.154,0.888,-0.09,45.776,36.865,-75.135,0,0,0,
,-0.106,1.071,-0.094,13.061,52.673,-49.988,0,0,0,
,-0.155,0.919,-0.211,41.809,-27.527,-18.86,0,0,0,
,-0.169,0.943,-0.063,-36.011,56.091,-44.434,0,0,0,
,-0.073,0.946,-0.186,-41.077,6.286,-36.683,0,0,0,
,-0.11,0.976,-0.131,-6.592,-28.931,-28.077,0,0,0,
,-0.131,0.99,-0.186,65.856,-36.56,-36.56,0,0,0,
,-0.089,1.08,-0.195,164.367,-19.165,-57.862,0,0,0,
,-0.088,1.136,-0.181,323.852,-28.748,-57.923,0,0,0,
,-0.141,1.111,-0.202,465.088,3.662,-49.073,0,0,0,
,-0.146,1.107,-0.112,563.598,59.753,-45.594,0,0,0,
,-0.158,1.138,-0.103,693.908,68.115,-19.715,0,0,0,
,-0.199,1.026,0.005,769.531,70.678,-19.532,0,0,0,
,-0.141,0.925,-0.031,783.874,68.298,-38.575,0,0,0,
,-0.041,0.945,0.139,876.953,72.998,-85.083,0,0,0,
,-0.049,1,0.144,955.871,-19.837,-45.105,0,0,0,
,-0.074,0.979,0.111,1026.672,-12.635,-55.603,0,0,0,
,-0.045,0.988,-0.001,1113.83,6.53,-37.72,0,0,0,
,0.094,1.001,0.318,1330.871,-52.918,3.418,0,0,0,
,0.14,0.972,0.319,1416.748,-188.965,86.853,0,0,0,
,0.05,1.011,0.208,1611.145,-305.664,157.348,0,0,0,
,-0.06,0.958,0.342,1964.843,-341.675,163.513,0,0,0,
,-0.09,0.652,0.305,1999.694,-271.18,11.291,0,0,0,
,-0.02,0.336,0.252,1999.694,-321.717,-182.312,0,0,0,
,-0.013,0.194,0.408,1999.694,-405.274,-186.341,0,0,0,
,-0.055,0.318,0.575,1788.635,-443.787,-157.959,0,0,0,
,-0.121,0.519,0.66,1558.41,-367.188,-220.215,0,0,0,
,-0.152,0.618,0.723,1478.027,-251.893,-241.883,0,0,0,
,-0.168,0.591,0.759,1351.928,-156.189,-211.365,0,0,0,
,-0.239,0.512,0.712,1201.355,3.601,-192.749,0,0,0,
,-0.323,0.419,0.651,1006.53,138.916,-208.497,0,0,0,
,-0.332,0.38,0.67,797.18,223.938,-183.106,0,0,0,
,-0.329,0.4,0.839,742.981,288.147,-161.011,0,0,0,
,-0.264,0.399,0.998,741.15,301.635,-135.376,0,0,0,
,-0.239,0.34,1.046,750,314.27,-159.119,0,0,0,
,-0.217,0.322,1.073,459.472,247.863,-188.843,0,0,0,
,-0.215,0.371,1.064,15.502,177.368,-170.655,0,0,0,
,-0.176,0.36,1.253,-369.812,153.442,-137.818,0,0,0,
,-0.342,0.667,1.393,-938.904,-86.182,31.311,0,0,0,
,-0.318,0.807,0.833,-1115.418,-52.979,-90.455,0,0,0,
,-0.342,0.583,0.834,-460.633,-52.735,-80.872,0,0,0,
,-0.227,0.536,0.702,-226.136,28.198,-16.236,0,0,0,
,-0.22,0.61,0.757,11.352,58.41,84.411,0,0,0,
,-0.185,0.487,0.938,192.138,69.458,66.04,0,0,0,
,-0.008,0.313,0.86,215.21,76.904,2.746,0,0,0,
,0.134,0.169,1.012,18.371,73.852,-271.485,0,0,0,
,0.112,0.091,0.9,-263.672,-34.18,-77.149,0,0,0,
,-0.086,0.421,0.86,-463.318,-164.063,48.461,0,0,0,
,-0.226,0.516,0.787,-360.413,-114.38,-186.707,0,0,0,
,-0.19,0.607,0.86,-345.337,-62.561,-103.15,0,0,0,
,-0.089,0.677,0.879,-87.891,-6.653,2.014,0,0,0,
,-0.137,0.522,0.874,24.231,-14.832,-68.36,0,0,0,
,-0.141,0.457,0.873,19.592,26.428,-28.687,0,0,0,
,-0.08,0.468,0.861,-24.598,29.113,-47.425,0,0,0,
,-0.103,0.494,0.868,-52.247,24.475,-20.63,0,0,0,
,-0.114,0.496,0.849,-47.791,39.489,-2.198,0,0,0,
,-0.087,0.49,0.853,-57.129,52.429,4.394,0,0,0,
,-0.078,0.504,0.847,-70.557,33.203,15.319,0,0,0,
,-0.106,0.523,0.839,-67.566,21.484,23.071,0,0,0,
,-0.125,0.532,0.83,-52.491,23.986,19.409,0,0,0,
,-0.119,0.529,0.834,-27.894,29.541,13.732,0,0,0,
,-0.103,0.521,0.822,-7.63,30.029,7.141,0,0,0,
,-0.089,0.516,0.834,16.357,23.986,4.943,0,0,0,
,-0.08,0.497,0.824,20.629,13.244,11.474,0,0,0,
,-0.093,0.502,0.847,15.38,-2.015,15.258,0,0,0,
,-0.107,0.502,0.838,10.07,-8.057,21.057,0,0,0,
,-0.115,0.496,0.847,6.225,-11.048,18.005,0,0,0,
,-0.133,0.462,0.819,3.845,-24.353,-53.406,0,0,0,
,-0.116,0.521,0.843,-50.599,-18.555,3.845,0,0,0,
,-0.116,0.547,0.826,-37.171,-19.898,-4.883,0,0,0,
,-0.124,0.545,0.839,-13.855,-6.836,0.122,0,0,0,
,-0.111,0.527,0.831,17.089,7.568,-1.77,0,0,0,
,-0.097,0.5,0.843,14.404,9.399,7.934,0,0,0,
,-0.09,0.473,0.845,-5.799,-6.592,17.944,0,0,0,
,-0.106,0.471,0.838,-53.833,-30.762,30.822,0,0,0,
,-0.126,0.497,0.837,-83.008,-46.265,33.996,0,0,0,
,-0.15,0.521,0.814,-77.881,-58.716,-12.024,0,0,0,
,-0.144,0.557,0.825,-64.331,-39.673,0,0,0,0,
,-0.131,0.562,0.826,-30.396,-22.095,10.681,0,0,0,
,-0.124,0.534,0.82,-9.766,-17.823,7.873,0,0,0,
,-0.124,0.523,0.845,0.61,-18.616,10.07,0,0,0,
,-0.121,0.506,0.822,-25.025,-23.194,13.122,0,0,0,
,-0.129,0.518,0.841,-16.053,-30.884,21.911,0,0,0,
,-0.133,0.503,0.79,-48.218,-33.631,35.705,0,0,0,
,-0.152,0.514,0.854,-65.247,-33.57,41.381,0,0,0,
,-0.158,0.509,0.805,-106.751,-33.387,35.705,0,0,0,
,-0.163,0.551,0.823,-99.671,-23.316,28.747,0,0,0,
,-0.153,0.561,0.791,-84.29,-6.775,26.428,0,0,0,
,-0.15,0.578,0.821,-36.011,3.967,19.165,0,0,0,
,-0.145,0.542,0.804,-24.537,12.451,29.113,0,0,0,
,-0.15,0.518,0.824,-31.556,7.446,39.672,0,0,0,
,-0.149,0.499,0.812,-78.064,-3.235,40.527,0,0,0,
,-0.165,0.537,0.808,-109.925,-15.015,20.019,0,0,0,
,-0.164,0.59,0.797,-92.286,-13.367,14.526,0,0,0,
,-0.166,0.614,0.795,-54.688,0,26.245,0,0,0,
,-0.168,0.572,0.796,-15.442,19.714,39.245,0,0,0,
,-0.166,0.573,0.806,-33.997,27.465,-4.212,0,0,0,
,-0.163,0.577,0.811,-22.644,39.55,3.295,0,0,0,
,-0.162,0.555,0.804,-28.565,35.4,14.465,0,0,0,
,-0.168,0.538,0.803,-44.312,32.959,24.108,0,0,0,
,-0.165,0.572,0.786,-62.5,33.02,23.803,0,0,0,
,-0.155,0.555,0.802,-4.151,54.504,10.376,0,0,0,
,-0.153,0.537,0.812,-32.654,38.147,12.512,0,0,0,
,-0.158,0.561,0.793,-59.632,28.93,13.794,0,0,0,
,-0.162,0.58,0.787,-54.322,25.512,1.953,0,0,0,
,-0.161,0.581,0.787,-38.331,27.404,0.549,0,0,0,
,-0.155,0.575,0.775,-33.204,20.996,0.305,0,0,0,
,-0.168,0.616,0.78,-14.344,18.249,-1.648,0,0,0,
,-0.174,0.607,0.777,24.353,29.724,-18.189,0,0,0,
,-0.163,0.586,0.793,54.26,39.672,-30.152,0,0,0,
,-0.15,0.544,0.796,46.264,39.917,-31.495,0,0,0,
,-0.179,0.598,0.799,4.943,29.357,-26.429,0,0,0,
,-0.176,0.583,0.78,26.428,46.508,-35.645,0,0,0,
,-0.155,0.585,0.791,49.194,62.255,-36.988,0,0,0,
,-0.135,0.56,0.8,53.466,58.654,-24.048,0,0,0,
,-0.145,0.525,0.807,22.583,46.081,-12.269,0,0,0,
,-0.144,0.556,0.8,11.962,40.283,-12.269,0,0,0,
,-0.15,0.605,0.774,93.75,55.481,-26.734,0,0,0,
,-0.132,0.527,0.788,55.236,36.743,-27.588,0,0,0,
,-0.144,0.536,0.799,-3.296,17.334,-27.649,0,0,0,
,-0.145,0.565,0.799,-14.161,12.146,-36.072,0,0,0,
,-0.134,0.563,0.787,-15.015,3.112,-34.302,0,0,0,
,-0.148,0.579,0.781,0.427,-2.015,-30.213,0,0,0,
,-0.151,0.596,0.789,35.888,5.188,-37.72,0,0,0,
,-0.144,0.572,0.794,62.133,9.277,-36.377,0,0,0,
,-0.141,0.552,0.809,69.885,8.056,-35.279,0,0,0,
,-0.143,0.533,0.805,50.598,1.403,-35.279,0,0,0,
,-0.147,0.546,0.815,32.043,-1.954,-37.049,0,0,0,
,-0.145,0.559,0.805,27.587,1.037,-37.964,0,0,0,
,-0.145,0.565,0.802,27.282,4.089,-37.72,0,0,0,
,-0.147,0.556,0.806,31.372,9.033,-36.56,0,0,0,
,-0.145,0.544,0.804,25.695,11.291,-36.316,0,0,0,
,-0.143,0.551,0.813,17.211,11.047,-35.157,0,0,0,
,-0.142,0.546,0.811,13.671,9.46,-31.861,0,0,0,
,-0.14,0.544,0.815,8.483,7.446,-32.288,0,0,0,
,-0.142,0.54,0.802,-4.456,3.112,-31.495,0,0,0,
,-0.138,0.557,0.801,28.747,11.779,-38.392,0,0,0,
,-0.136,0.552,0.808,31.25,8.911,-35.157,0,0,0,
,-0.14,0.536,0.81,26.611,5.31,-32.471,0,0,0,
,-0.143,0.543,0.807,13.61,5.249,-30.579,0,0,0,
,-0.144,0.546,0.805,12.573,5.31,-31.556,0,0,0,
,-0.14,0.548,0.807,15.625,4.394,-30.762,0,0,0,
,-0.138,0.548,0.808,19.104,3.234,-28.077,0,0,0,
,-0.143,0.547,0.814,14.282,4.699,-27.894,0,0,0,
,-0.143,0.544,0.814,13.122,17.7,-28.687,0,0,0,
,-0.133,0.545,0.811,7.08,14.587,-29.419,0,0,0,
,-0.137,0.546,0.816,6.958,14.099,-24.292,0,0,0,
,-0.141,0.545,0.815,2.868,11.291,-21.241,0,0,0,
,-0.142,0.549,0.808,1.648,10.07,-23.133,0,0,0,
,-0.141,0.553,0.814,2.746,11.23,-23.987,0,0,0,
,-0.137,0.542,0.811,-2.442,12.756,-23.682,0,0,0,
,-0.137,0.546,0.81,-12.635,10.742,-20.997,0,0,0,
,-0.143,0.554,0.808,-10.926,12.39,-17.701,0,0,0,
,-0.138,0.551,0.804,-8.851,7.446,-18.555,0,0,0,
,-0.142,0.551,0.806,-6.226,7.873,-19.654,0,0,0,
,-0.139,0.559,0.805,1.22,8.483,-21.729,0,0,0,
,-0.135,0.556,0.807,16.784,9.399,-20.264,0,0,0,
,-0.138,0.54,0.813,10.315,7.324,-20.752,0,0,0,
,-0.143,0.54,0.813,-2.869,3.295,-24.414,0,0,0,
,-0.14,0.565,0.794,-7.325,3.479,-22.644,0,0,0,
,-0.146,0.567,0.806,5.493,10.192,-21.424,0,0,0,
,-0.137,0.54,0.809,13.671,11.718,-20.874,0,0,0,
,-0.137,0.536,0.816,0.549,8.361,-20.447,0,0,0,
,-0.143,0.549,0.813,-9.156,7.629,-20.997,0,0,0,
,-0.141,0.562,0.808,0.183,11.901,-23.438,0,0,0,
,-0.136,0.553,0.806,4.577,11.291,-23.499,0,0,0,
,-0.136,0.544,0.804,-0.184,9.521,-22.156,0,0,0,
,-0.136,0.553,0.808,-5.86,10.253,-21.729,0,0,0,
,-0.137,0.557,0.805,-10.132,6.897,-19.288,0,0,0,
,-0.144,0.56,0.805,-2.137,4.577,-19.898,0,0,0,
,-0.14,0.555,0.803,-0.061,5.31,-21.424,0,0,0,
,-0.137,0.557,0.804,8.239,4.089,-22.767,0,0,0,
,-0.138,0.553,0.805,15.319,2.441,-23.438,0,0,0,
,-0.139,0.557,0.813,18.188,1.953,-21.058,0,0,0,
,-0.137,0.545,0.808,17.334,-0.855,-19.532,0,0,0,
,-0.144,0.547,0.804,3.906,1.77,-18.86,0,0,0,
,-0.143,0.553,0.807,-1.526,4.516,-22.461,0,0,0,
,-0.143,0.545,0.804,-3.113,6.103,-19.288,0,0,0,
,-0.144,0.551,0.809,-8.118,9.704,-21.18,0,0,0,
,-0.145,0.56,0.801,-0.428,10.009,-25.086,0,0,0,
,-0.141,0.555,0.807,6.591,13.794,-24.414,0,0,0,
,-0.137,0.548,0.803,3.234,12.512,-22.828,0,0,0,
,-0.139,0.557,0.812,-2.503,7.385,-18.372,0,0,0,
,-0.141,0.556,0.8,-5.86,8.911,-19.104,0,0,0,
,-0.147,0.56,0.801,-3.846,10.315,-20.325,0,0,0,
,-0.141,0.559,0.803,5.065,12.817,-22.644,0,0,0,
,-0.139,0.545,0.808,7.446,12.085,-21.729,0,0,0,
,-0.14,0.546,0.809,-3.602,10.253,-22.828,0,0,0,
,-0.138,0.554,0.797,-1.221,11.474,-20.325,0,0,0,
,-0.136,0.555,0.803,-2.503,5.127,-19.715,0,0,0,
,-0.144,0.565,0.805,-1.282,4.211,-19.776,0,0,0,
,-0.142,0.562,0.798,9.338,6.042,-23.682,0,0,0,
,-0.144,0.561,0.807,19.47,5.981,-24.292,0,0,0,
,-0.143,0.558,0.803,23.071,7.446,-26.551,0,0,0,
,-0.138,0.554,0.804,29.052,11.596,-24.842,0,0,0,
,-0.138,0.545,0.809,19.775,8.606,-23.926,0,0,0,
,-0.141,0.541,0.808,5.493,6.042,-22.889,0,0,0,
,-0.146,0.554,0.808,-9.766,7.629,-24.964,0,0,0,
,-0.143,0.562,0.805,-4.883,9.887,-25.452,0,0,0,
,-0.143,0.55,0.804,15.441,9.643,-22.644,0,0,0,
,-0.136,0.542,0.805,9.155,6.225,-22.461,0,0,0,
,-0.136,0.55,0.802,-2.808,1.159,-22.156,0,0,0,
,-0.139,0.567,0.805,0.244,-0.672,-21.729,0,0,0,
,-0.145,0.572,0.81,14.16,5.798,-19.959,0,0,0,
,-0.144,0.551,0.807,19.531,9.765,-22.278,0,0,0,
,-0.141,0.543,0.81,9.582,8.117,-21.546,0,0,0,
,-0.145,0.546,0.81,-0.184,7.934,-23.072,0,0,0,
,-0.14,0.552,0.804,-7.447,10.009,-22.828,0,0,0,
,-0.138,0.552,0.808,-7.508,13.061,-21.912,0,0,0,
,-0.137,0.557,0.809,-7.142,9.704,-18.738,0,0,0,
,-0.142,0.555,0.804,-10.56,9.948,-18.189,0,0,0,
,-0.143,0.555,0.803,-9.766,12.39,-18.921,0,0,0,
,-0.14,0.556,0.796,-13.123,8.789,-21.546,0,0,0,
,-0.143,0.568,0.805,-7.386,8.544,-20.63,0,0,0,
,-0.142,0.562,0.793,4.882,8.972,-21.973,0,0,0,
,-0.14,0.558,0.807,12.451,8.85,-19.898,0,0,0,
,-0.137,0.549,0.802,8.911,6.408,-23.255,0,0,0,
,-0.141,0.57,0.797,11.047,5.859,-22.4,0,0,0,
,-0.144,0.558,0.809,15.502,8.972,-21.119,0,0,0,
,-0.142,0.547,0.804,9.277,8.239,-21.302,0,0,0,
,-0.141,0.56,0.808,2.624,10.07,-21.912,0,0,0,
,-0.142,0.553,0.797,1.098,10.315,-21.424,0,0,0,
,-0.138,0.566,0.798,8.3,7.202,-24.476,0,0,0,
,-0.14,0.561,0.805,13.916,8.178,-20.997,0,0,0,
,-0.14,0.552,0.805,9.582,7.934,-22.095,0,0,0,
,-0.141,0.558,0.807,9.948,6.286,-21.79,0,0,0,
,-0.143,0.554,0.8,7.324,4.821,-21.058,0,0,0,
,-0.14,0.556,0.81,24.231,10.62,-25.391,0,0,0,
,-0.138,0.543,0.803,12.878,9.033,-24.231,0,0,0,
,-0.137,0.551,0.807,4.15,6.53,-23.011,0,0,0,
,-0.142,0.564,0.8,2.258,4.638,-21.851,0,0,0,
,-0.144,0.56,0.804,7.141,5.981,-23.072,0,0,0,
,-0.143,0.556,0.806,7.202,7.812,-20.63,0,0,0,
,-0.143,0.558,0.803,11.962,5.371,-23.133,0,0,0,
,-0.143,0.556,0.801,17.089,4.882,-25.879,0,0,0,
,-0.143,0.549,0.806,15.197,8.483,-24.903,0,0,0,
,-0.138,0.545,0.803,10.315,6.713,-24.72,0,0,0,
,-0.135,0.562,0.806,6.042,-0.367,-23.987,0,0,0,
,-0.143,0.566,0.8,17.211,1.22,-21.607,0,0,0,
,-0.15,0.559,0.813,25.207,7.995,-25.208,0,0,0,
,-0.144,0.548,0.806,24.231,12.634,-26.368,0,0,0,
,-0.142,0.539,0.812,16.113,15.197,-24.048,0,0,0,
,-0.139,0.535,0.815,-3.602,10.925,-21.058,0,0,0,
,-0.139,0.546,0.81,-12.269,13,-22.583,0,0,0,
,-0.138,0.563,0.801,-13.794,11.047,-23.011,0,0,0,
,-0.144,0.549,0.802,-0.733,14.282,-21.607,0,0,0,
,-0.137,0.553,0.805,-0.733,12.451,-21.058,0,0,0,
,-0.137,0.555,0.803,0.671,5.737,-19.41,0,0,0,
,-0.143,0.572,0.799,8.911,2.136,-20.874,0,0,0,
,-0.136,0.543,0.804,8.972,8.667,-24.72,0,0,0,
,-0.142,0.553,0.81,4.699,6.591,-23.682,0,0,0,
,-0.139,0.553,0.807,4.15,8.3,-20.447,0,0,0,
,-0.142,0.549,0.809,3.112,6.958,-19.165,0,0,0,
,-0.145,0.549,0.807,-1.954,6.103,-19.532,0,0,0,
,-0.144,0.559,0.807,-2.808,9.277,-24.903,0,0,0,
,-0.142,0.563,0.801,6.774,9.948,-25.452,0,0,0,
,-0.139,0.555,0.809,18.615,12.634,-23.987,0,0,0,
,-0.141,0.544,0.809,9.155,10.925,-23.011,0,0,0,
,-0.139,0.547,0.812,-2.381,5.676,-21.851,0,0,0,
,-0.138,0.552,0.806,-7.874,3.54,-22.339,0,0,0,
,-0.142,0.566,0.804,-1.587,4.638,-23.255,0,0,0,
,-0.139,0.561,0.799,11.169,6.652,-22.644,0,0,0,
,-0.146,0.547,0.808,16.662,6.652,-19.227,0,0,0,
,-0.142,0.541,0.808,6.958,6.225,-22.034,0,0,0,
,-0.14,0.548,0.807,-2.503,4.577,-21.79,0,0,0,
,-0.142,0.555,0.812,-5.066,6.103,-21.485,0,0,0,
,-0.139,0.551,0.802,-4.456,7.934,-21.424,0,0,0,
,-0.144,0.555,0.808,-1.709,6.897,-19.288,0,0,0,
,-0.143,0.554,0.803,-0.55,8.361,-20.935,0,0,0,
,-0.144,0.556,0.809,5.249,10.253,-20.142,0,0,0,
,-0.138,0.551,0.798,4.028,11.047,-20.752,0,0,0,
,-0.142,0.558,0.811,3.601,7.934,-19.898,0,0,0,
,-0.145,0.552,0.802,-1.526,8.911,-20.264,0,0,0,
,-0.143,0.557,0.805,-2.32,11.108,-22.461,0,0,0,
,-0.143,0.564,0.812,3.906,11.779,-23.499,0,0,0,
,-0.139,0.554,0.803,5.798,13.916,-22.034,0,0,0,
,-0.138,0.55,0.807,1.22,12.634,-22.4,0,0,0,
,-0.139,0.557,0.801,-3.54,9.094,-22.828,0,0,0,
,-0.143,0.567,0.807,2.807,7.812,-20.752,0,0,0,
,-0.141,0.562,0.801,12.023,7.812,-23.255,0,0,0,
,-0.14,0.551,0.803,13.855,10.253,-22.828,0,0,0,
,-0.143,0.548,0.808,7.995,8.483,-22.461,0,0,0,
,-0.143,0.556,0.804,1.525,5.615,-23.56,0,0,0,
,-0.141,0.566,0.804,9.216,8.178,-25.208,0,0,0,
,-0.143,0.549,0.802,8.483,7.446,-23.621,0,0,0,
,-0.138,0.562,0.805,10.131,5.004,-25.269,0,0,0,
,-0.139,0.562,0.802,16.967,8.422,-23.194,0,0,0,
,-0.144,0.547,0.803,23.315,8.606,-24.048,0,0,0,
,-0.142,0.553,0.811,14.831,7.995,-26.673,0,0,0,
,-0.141,0.546,0.808,8.544,9.887,-26.062,0,0,0,
,-0.141,0.56,0.812,8.85,11.413,-25.208,0,0,0,
,-0.138,0.547,0.802,7.568,13.305,-27.283,0,0,0,
,-0.138,0.551,0.804,1.892,14.709,-24.231,0,0,0,
,-0.141,0.554,0.801,-2.015,12.268,-26.001,0,0,0,
,-0.142,0.562,0.802,4.821,0.305,-25.391,0,0,0,
,-0.136,0.559,0.806,9.948,11.718,-26.734,0,0,0,
,-0.138,0.549,0.802,9.582,12.451,-26.246,0,0,0,
,-0.138,0.556,0.804,6.286,10.498,-28.321,0,0,0,
,-0.136,0.565,0.804,13.916,9.582,-26.612,0,0,0,
,-0.142,0.552,0.804,18.493,10.376,-27.832,0,0,0,
,-0.137,0.551,0.81,19.409,13,-29.847,0,0,0,
,-0.135,0.549,0.807,13.122,10.62,-27.955,0,0,0,
,-0.137,0.547,0.807,8.728,10.376,-27.039,0,0,0,
,-0.137,0.555,0.84,9.094,8.606,-28.748,0,0,0,
,-0.136,0.557,0.806,14.16,12.085,-26.246,0,0,0,
,-0.136,0.547,0.806,15.258,10.498,-25.696,0,0,0,
,-0.136,0.548,0.811,8.667,8.85,-25.574,0,0,0,
,-0.135,0.547,0.808,2.99,7.324,-27.894,0,0,0,
,-0.136,0.552,0.809,2.99,4.943,-28.199,0,0,0,
,-0.136,0.555,0.803,4.272,3.784,-26.978,0,0,0,
,-0.136,0.552,0.811,11.291,7.263,-25.574,0,0,0,
,-0.136,0.553,0.806,13.122,7.629,-26.917,0,0,0,
,-0.135,0.551,0.805,16.479,9.094,-27.039,0,0,0,
,-0.139,0.547,0.815,11.474,14.587,-24.292,0,0,0,
,-0.131,0.548,0.813,-31.434,17.395,-22.95,0,0,0,
,-0.132,0.56,0.803,-26.734,13.732,-18.982,0,0,0,
,-0.136,0.556,0.802,-24.353,16.052,-17.273,0,0,0,
,-0.136,0.553,0.806,-21.424,13.183,-18.677,0,0,0,
,-0.137,0.565,0.791,-25.391,12.39,-19.715,0,0,0,
,-0.14,0.572,0.803,-5.127,17.517,-20.997,0,0,0,
,-0.129,0.553,0.802,5.615,17.822,-20.325,0,0,0,
,-0.131,0.544,0.808,-2.259,11.657,-19.837,0,0,0,
,-0.131,0.553,0.8,-9.4,7.019,-16.785,0,0,0,
,-0.13,0.565,0.795,-6.775,6.042,-15.32,0,0,0,
,-0.136,0.566,0.801,6.713,7.141,-14.527,0,0,0,
,-0.133,0.562,0.801,9.338,2.38,-15.625,0,0,0,
,-0.138,0.556,0.804,12.39,5.188,-15.809,0,0,0,
,-0.139,0.556,0.809,4.089,8.422,-15.503,0,0,0,
,-0.139,0.547,0.801,-4.517,7.69,-16.846,0,0,0,
,-0.139,0.56,0.807,-13.123,9.765,-20.142,0,0,0,
,-0.136,0.57,0.801,-6.714,13.61,-20.447,0,0,0,
,-0.131,0.559,0.801,-3.357,12.634,-17.945,0,0,0,
,-0.135,0.562,0.805,-2.442,9.521,-17.151,0,0,0,
,-0.141,0.569,0.796,0.183,11.596,-20.569,0,0,0,
,-0.137,0.564,0.802,10.192,14.343,-22.095,0,0,0,
,-0.136,0.56,0.799,10.07,11.047,-23.804,0,0,0,
,-0.133,0.572,0.806,27.038,12.451,-27.649,0,0,0,
,-0.135,0.555,0.8,26.55,11.901,-29.114,0,0,0,
,-0.133,0.552,0.803,27.404,12.023,-29.541,0,0,0,
,-0.132,0.531,0.801,20.874,11.962,-26.368,0,0,0,
,-0.14,0.565,0.811,26.489,16.662,-23.377,0,0,0,
,-0.138,0.549,0.811,19.714,23.376,-27.039,0,0,0,
,-0.128,0.543,0.81,1.831,18.249,-28.443,0,0,0,
,-0.131,0.553,0.81,-10.132,12.451,-26.001,0,0,0,
,-0.135,0.556,0.798,-12.574,9.887,-27.649,0,0,0,
,-0.135,0.587,0.787,8.361,14.038,-38.453,0,0,0,
,-0.133,0.591,0.807,44.25,20.69,-35.95,0,0,0,
,-0.13,0.534,0.811,43.151,21.911,-34.058,0,0,0,
,-0.125,0.522,0.814,3.601,10.803,-40.284,0,0,0,
,-0.13,0.557,0.803,-18.982,3.418,-41.565,0,0,0,
,-0.133,0.588,0.796,-4.761,9.887,-42.237,0,0,0,
,-0.133,0.588,0.807,39.428,18.249,-42.054,0,0,0,
,-0.127,0.55,0.806,49.56,22.949,-37.842,0,0,0,
,-0.123,0.527,0.814,33.63,19.348,-43.213,0,0,0,
,-0.122,0.542,0.81,5.004,13.549,-44.922,0,0,0,
,-0.125,0.556,0.8,1.037,13.61,-46.448,0,0,0,
,-0.131,0.578,0.81,17.517,15.869,-47.913,0,0,0,
,-0.122,0.55,0.809,41.503,22.277,-47.059,0,0,0,
,-0.12,0.545,0.807,36.193,23.315,-47.608,0,0,0,
,-0.121,0.536,0.804,31.311,24.841,-49.256,0,0,0,
,-0.118,0.543,0.816,21.362,25.695,-47.059,0,0,0,
,-0.116,0.549,0.817,12.146,23.01,-44.8,0,0,0,
,-0.114,0.545,0.811,9.155,20.324,-42.603,0,0,0,
,-0.113,0.547,0.81,9.765,15.747,-43.091,0,0,0,
,-0.115,0.553,0.806,10.559,14.465,-46.875,0,0,0,
,-0.111,0.56,0.807,18.005,12.207,-48.035,0,0,0,
,-0.115,0.559,0.81,30.151,11.657,-48.34,0,0,0,
,-0.112,0.549,0.818,36.682,13.122,-50.049,0,0,0,
,-0.109,0.543,0.825,30.212,10.681,-51.331,0,0,0,
,-0.112,0.544,0.819,13.732,5.249,-55.664,0,0,0,
,-0.118,0.56,0.82,9.338,5.798,-60.547,0,0,0,
,-0.117,0.558,0.82,21.789,13.061,-61.036,0,0,0,
,-0.06,0.582,0.826,120.91,102.417,-146.058,0,0,0,
,-0.114,0.506,0.82,59.143,8.056,-49.927,0,0,0,
,-0.138,0.51,0.814,51.574,45.105,-57.923,0,0,0,
,-0.092,0.535,0.828,10.192,23.498,-59.632,0,0,0,
,-0.089,0.552,0.811,16.479,30.09,-52.552,0,0,0,
,-0.097,0.544,0.819,43.273,27.71,-55.42,0,0,0,
,-0.088,0.539,0.811,56.884,24.963,-54.749,0,0,0,
,-0.089,0.527,0.812,44.494,10.681,-47.242,0,0,0,
,-0.095,0.536,0.818,36.621,4.211,-41.748,0,0,0,
,-0.094,0.547,0.819,48.889,5.859,-41.993,0,0,0,
,-0.093,0.527,0.831,56.335,6.652,-38.758,0,0,0,
,-0.091,0.514,0.828,40.771,3.479,-36.744,0,0,0,
,-0.088,0.515,0.828,26.306,0.366,-41.748,0,0,0,
,-0.086,0.527,0.829,18.005,-8.24,-41.26,0,0,0,
,-0.091,0.536,0.823,22.338,-8.057,-39.612,0,0,0,
,-0.089,0.537,0.827,24.597,-2.625,-38.941,0,0,0,
,-0.101,0.532,0.833,34.057,0.854,-36.255,0,0,0,
,-0.097,0.507,0.829,38.147,3.112,-35.096,0,0,0,
,-0.083,0.522,0.845,18.981,-1.648,-34.546,0,0,0,
,-0.096,0.52,0.825,14.831,-3.785,-33.692,0,0,0,
,-0.101,0.535,0.839,11.718,3.295,-32.166,0,0,0,
,-0.093,0.512,0.835,21.362,10.376,-29.358,0,0,0,
,-0.09,0.528,0.838,13.916,12.573,-27.527,0,0,0,
,-0.095,0.522,0.836,21.179,12.207,-25.33,0,0,0,
,-0.092,0.51,0.832,17.456,17.456,-24.414,0,0,0,
,-0.08,0.507,0.832,16.54,19.592,-35.157,0,0,0,
,-0.096,0.507,0.815,0,17.7,-23.255,0,0,0,
,-0.088,0.517,0.84,25.817,11.718,-32.715,0,0,0,
,-0.095,0.512,0.809,-0.794,8.3,-21.424,0,0,0,
,-0.092,0.527,0.852,33.691,7.446,-39.612,0,0,0,
,-0.095,0.511,0.802,2.441,9.277,-23.804,0,0,0,
,-0.088,0.518,0.857,32.775,7.69,-35.035,0,0,0,
,-0.089,0.519,0.86,21.667,4.76,-31.311,0,0,0,
,-0.096,0.513,0.818,-1.954,7.202,-22.644,0,0,0,
,-0.091,0.509,0.826,19.409,8.483,-22.278,0,0,0,
,-0.082,0.511,0.849,34.729,4.089,-29.114,0,0,0,
,-0.083,0.503,0.827,23.986,-2.015,-25.391,0,0,0,
,-0.085,0.515,0.838,15.197,-8.057,-25.818,0,0,0,
,-0.098,0.517,0.823,5.065,-12.085,-21.485,0,0,0,
,-0.094,0.529,0.838,14.099,-8.912,-27.039,0,0,0,
,-0.096,0.522,0.829,27.465,-7.935,-27.894,0,0,0,
,-0.093,0.525,0.842,30.822,-2.686,-32.654,0,0,0,
,-0.095,0.508,0.864,55.358,-0.916,-32.715,0,0,0,
,-0.096,0.489,0.833,29.968,2.929,-19.349,0,0,0,
,-0.096,0.5,0.855,39.123,-1.526,-21.546,0,0,0,
,-0.091,0.499,0.825,23.132,3.173,-12.635,0,0,0,
,-0.103,0.521,0.86,63.537,6.225,-20.813,0,0,0,
,-0.093,0.497,0.826,35.217,10.315,-25.33,0,0,0,
,-0.09,0.512,0.859,44.25,4.699,-37.049,0,0,0,
,-0.092,0.503,0.815,27.221,1.22,-28.504,0,0,0,
,-0.103,0.515,0.862,51.757,1.525,-38.208,0,0,0,
,-0.105,0.502,0.836,42.724,2.746,-25.696,0,0,0,
,-0.088,0.507,0.865,54.443,10.62,-37.354,0,0,0,
,-0.089,0.485,0.852,46.63,16.052,-27.832,0,0,0,
,-0.099,0.487,0.861,48.706,20.202,-32.593,0,0,0,
,-0.093,0.478,0.853,38.696,30.7,-31.617,0,0,0,
,-0.081,0.499,0.88,31.799,26.306,-36.438,0,0,0,
,-0.084,0.501,0.853,22.155,34.179,-33.326,0,0,0,
,-0.09,0.508,0.854,35.644,35.644,-34.852,0,0,0,
,-0.097,0.493,0.854,49.926,38.94,-31.739,0,0,0,
,-0.068,0.494,0.854,-4.822,39.001,-48.096,0,0,0,
,-0.081,0.5,0.849,-0.123,37.597,-47.608,0,0,0,
,-0.084,0.505,0.85,18.554,35.827,-51.026,0,0,0,
,-0.084,0.485,0.845,29.48,38.086,-55.237,0,0,0,
,-0.076,0.477,0.843,6.591,36.193,-51.392,0,0,0,
,-0.082,0.485,0.85,-21.241,30.334,-46.265,0,0,0,
,-0.083,0.491,0.856,-15.137,31.25,-54.932,0,0,0,
,-0.053,0.498,0.852,-7.081,25.756,-67.261,0,0,0,
,-0.058,0.476,0.848,-12.146,25.329,-64.759,0,0,0,
,-0.066,0.455,0.866,-21.546,20.141,-64.026,0,0,0,
,-0.072,0.46,0.885,-56.824,17.089,-59.876,0,0,0,
,-0.076,0.493,0.898,-116.211,2.258,-66.529,0,0,0,
,-0.086,0.533,0.911,-119.812,-9.278,-59.937,0,0,0,
,-0.099,0.551,0.927,-36.499,-12.696,-52.369,0,0,0,
,-0.116,0.604,0.925,-77.21,8.728,-16.663,0,0,0,
,-0.111,0.626,0.988,-67.627,2.441,-18.311,0,0,0,
,-0.144,0.591,1.047,-82.093,-15.32,7.263,0,0,0,
,-0.156,0.635,1.101,-136.902,-91.126,36.01,0,0,0,
,-0.212,0.686,1.253,-120.057,-169.556,-3.479,0,0,0,
,-0.209,0.672,1.214,-138.733,-266.846,75.256,0,0,0,
,-0.089,0.632,1.046,-76.661,-267.09,77.697,0,0,0,
,-0.076,0.506,0.892,-112.977,-232.361,67.627,0,0,0,
,-0.083,0.46,0.8,-299.439,-222.474,51.574,0,0,0,
,-0.098,0.535,0.7,-521.241,-178.284,86.975,0,0,0,
,-0.161,0.604,0.646,-456.177,-126.648,98.449,0,0,0,
,-0.259,0.627,0.61,-244.324,-64.881,107.36,0,0,0,
,-0.322,0.434,0.527,-68.604,145.08,17.883,0,0,0,
,-0.26,0.327,0.551,-343.323,170.898,-16.419,0,0,0,
,-0.198,0.296,0.626,-744.019,208.252,154.419,0,0,0,
,-0.16,0.387,0.601,-1060.059,255.798,-82.642,0,0,0,
,-0.068,0.394,0.579,-1496.583,254.882,-148.682,0,0,0,
,-0.028,0.441,0.38,-1755.616,267.639,-170.35,0,0,0,
,-0.015,0.581,0.243,-1700.379,268.554,-241.394,0,0,0,
,0.021,0.665,0.237,-1528.748,222.412,-249.573,0,0,0,
,0.071,0.794,0.393,-1133.179,166.87,-234.375,0,0,0,
,0.104,0.908,0.39,-817.017,168.64,-204.224,0,0,0,
,0.116,1.162,0.257,-611.39,45.471,-69.825,0,0,0,
,0.047,1.045,0.289,-556.092,59.509,-57.862,0,0,0,
,0.025,0.838,0.448,-485.23,55.786,-6.531,0,0,0,
,0.006,0.679,0.407,-695.557,100.708,-14.832,0,0,0,
,0.031,0.738,0.223,-1162.11,41.442,63.049,0,0,0,
,0.032,1.003,0.139,-1488.892,-94.361,55.664,0,0,0,
,-0.071,1.156,0.053,-1404.358,-136.475,-18.25,0,0,0,
,-0.177,1.139,-0.042,-1083.313,-47.608,-58.045,0,0,0,
,-0.228,0.905,-0.199,-711.548,86.669,-97.657,0,0,0,
,-0.192,0.956,-0.238,-572.693,193.298,-105.042,0,0,0,
,-0.08,1.083,-0.167,-452.576,270.324,-90.21,0,0,0,
,-0.004,1.158,0.095,-332.154,252.197,-96.253,0,0,0,
,0.028,0.807,-0.321,-213.868,243.896,-21.79,0,0,0,
,-0.016,0.937,-0.321,-39.246,238.281,-27.649,0,0,0,
,-0.01,1.3,0.046,266.174,236.145,-92.957,0,0,0,
,-0.124,1.205,0.078,492.736,318.908,-51.697,0,0,0,
,-0.128,0.899,0.429,376.342,297.851,-42.42,0,0,0,
,-0.025,0.784,0.23,53.161,286.193,98.755,0,0,0,
,-0.014,0.518,-0.056,-406.739,215.21,68.664,0,0,0,
,-0.049,1.001,0.132,-629.639,56.762,-25.879,0,0,0,
,-0.084,1.333,0.197,-581.604,1.586,-11.048,0,0,0,
,0.068,1.541,0.107,-205.262,141.967,77.087,0,0,0,
,0.172,1.186,-0.016,120.544,115.539,113.281,0,0,0,
,0.104,1.036,-0.059,-204.651,114.257,22.705,0,0,0,
,-0.001,1.192,-0.123,-107.3,27.221,97.961,0,0,0,
,-0.156,1.239,-0.032,31.433,49.316,173.828,0,0,0,
,-0.128,1.16,-0.039,4.028,152.282,221.923,0,0,0,
,-0.059,1.103,-0.053,-50.415,128.723,253.357,0,0,0,
,-0.086,1.115,-0.037,-109.07,66.406,272.705,0,0,0,
,-0.168,1.11,-0.088,-72.632,56.945,297.241,0,0,0,
,-0.205,1.126,-0.066,19.287,96.13,283.264,0,0,0,
,-0.213,1.077,-0.071,167.724,119.567,302.978,0,0,0,
,-0.236,1.007,-0.083,268.31,125.793,317.566,0,0,0,
,-0.256,0.99,0.009,332.031,135.254,302.246,0,0,0,
,-0.289,0.951,-0.098,336.425,116.455,291.32,0,0,0,
,-0.342,0.93,0.001,327.514,145.507,268.432,0,0,0,
,-0.334,0.946,-0.001,285.766,189.453,273.986,0,0,0,
,-0.271,0.777,0.123,236.206,197.631,208.252,0,0,0,
,-0.254,0.787,0.025,342.956,115.173,173.278,0,0,0,
,-0.322,0.801,0.019,412.231,130.432,136.291,0,0,0,
,-0.339,0.774,0.044,568.176,173.95,56.213,0,0,0,
,-0.29,0.851,0.071,680.664,205.993,22.033,0,0,0,
,-0.255,0.87,0.089,556.579,221.008,59.509,0,0,0,
,-0.294,0.834,0.049,454.406,184.448,52.368,0,0,0,
,-0.345,0.877,0.141,453.979,197.998,13.183,0,0,0,
,-0.299,0.845,0.146,563.049,221.008,-16.541,0,0,0,
,-0.275,0.761,0.169,627.685,240.417,-10.193,0,0,0,
,-0.242,0.678,0.24,535.156,263,-63.233,0,0,0,
,-0.177,0.684,0.302,437.011,240.6,-114.685,0,0,0,
,-0.179,0.753,0.295,372.68,178.894,-132.752,0,0,0,
,-0.246,0.85,0.304,431.701,159.546,-141.907,0,0,0,
,-0.253,0.88,0.282,491.394,194.824,-127.259,0,0,0,
,-0.194,0.868,0.325,505.981,208.618,-133.057,0,0,0,
,-0.154,0.821,0.378,479.126,176.086,-136.231,0,0,0,
,-0.159,0.803,0.344,518.982,164.611,-133.728,0,0,0,
,-0.135,0.861,0.352,499.206,185.791,-140.198,0,0,0,
,-0.089,0.826,0.414,327.758,209.228,-133.423,0,0,0,
,-0.087,0.769,0.449,113.403,166.381,-94.849,0,0,0,
,-0.159,0.844,0.521,-39.429,129.028,-104.798,0,0,0,
,-0.126,0.834,0.495,54.931,87.768,-100.464,0,0,0,
,-0.12,0.84,0.456,173.217,59.753,-92.713,0,0,0,
,-0.112,0.872,0.444,299.255,53.772,-90.332,0,0,0,
,-0.114,0.871,0.43,378.357,81.787,-72.876,0,0,0,
,-0.136,0.858,0.484,432.312,106.506,-93.506,0,0,0,
,-0.116,0.839,0.523,427.795,123.718,-74.83,0,0,0,
,-0.095,0.896,0.623,423.523,93.139,-59.144,0,0,0,
,-0.118,0.783,0.603,448.425,78.613,-63.721,0,0,0,
,-0.157,0.782,0.643,465.881,55.725,-47.364,0,0,0,
,-0.116,0.789,0.587,449.524,49.255,-65.857,0,0,0,
,-0.132,0.772,0.608,390.014,23.132,-68.177,0,0,0,
,-0.153,0.754,0.588,384.948,55.542,-50.477,0,0,0,
,-0.137,0.753,0.595,405.212,57.312,-63.965,0,0,0,
,-0.148,0.751,0.653,442.138,61.462,-58.533,0,0,0,
,-0.142,0.727,0.637,481.506,74.279,-64.393,0,0,0,
,-0.138,0.703,0.653,504.638,82.092,-71.717,0,0,0,
,-0.136,0.685,0.671,479.614,88.317,-78.98,0,0,0,
,-0.127,0.651,0.689,478.332,89.721,-79.163,0,0,0,
,-0.128,0.64,0.697,483.581,95.153,-78.553,0,0,0,
,-0.118,0.645,0.744,484.436,103.088,-83.619,0,0,0,
,-0.102,0.638,0.738,497.497,104.187,-84.717,0,0,0,
,-0.095,0.603,0.729,463.379,99.487,-85.389,0,0,0,
,-0.1,0.609,0.767,444.58,87.524,-82.703,0,0,0,
,-0.089,0.618,0.76,441.101,85.083,-83.619,0,0,0,
,-0.084,0.6,0.757,431.091,93.689,-77.881,0,0,0,
,-0.085,0.585,0.787,407.348,87.097,-78.675,0,0,0,
,-0.052,0.671,0.899,345.398,76.171,-62.684,0,0,0,
,-0.08,0.573,0.838,399.719,55.481,-55.481,0,0,0,
,-0.125,0.544,0.837,441.223,51.94,-45.96,0,0,0,
,-0.068,0.531,0.834,406.921,67.138,-55.542,0,0,0,
,-0.062,0.513,0.83,426.941,63.598,-55.054,0,0,0,
,-0.089,0.485,0.825,404.052,78.186,-56.092,0,0,0,
,-0.068,0.501,0.869,417.297,77.819,-42.359,0,0,0,
,-0.044,0.501,0.871,425.415,81.665,-25.269,0,0,0,
,-0.061,0.49,0.881,472.778,86.547,-16.663,0,0,0,
,-0.07,0.442,0.888,529.846,93.994,-8.057,0,0,0,
,-0.059,0.416,0.899,552.917,94.36,-9.644,0,0,0,
,-0.048,0.407,0.893,505.554,92.712,-41.077,0,0,0,
,-0.052,0.345,0.912,534.484,100.525,-13.306,0,0,0,
,-0.048,0.331,0.95,534.729,94.726,-7.691,0,0,0,
,-0.034,0.325,0.952,578.918,88.378,-10.498,0,0,0,
,-0.023,0.312,0.955,607.788,94.726,-9.583,0,0,0,
,-0.024,0.299,0.947,602.661,93.444,-21.546,0,0,0,
,-0.037,0.262,0.975,577.209,103.942,-8.423,0,0,0,
,-0.012,0.231,0.999,502.502,98.571,2.563,0,0,0,
,-0.013,0.213,1.013,446.838,84.838,7.995,0,0,0,
,-0.006,0.233,1.022,458.496,63.781,17.028,0,0,0,
,-0.011,0.227,1.019,523.132,65.429,30.09,0,0,0,
,-0.016,0.194,1.003,566.345,78.308,40.222,0,0,0,
,-0.005,0.15,1.003,550.903,72.204,34.668,0,0,0,
,-0.001,0.091,0.982,507.141,62.194,-27.588,0,0,0,
,0.017,0.088,1.002,484.863,51.452,31.738,0,0,0,
,0.019,0.062,1.049,404.297,23.62,30.639,0,0,0,
,0.02,0.062,1.065,374.206,-0.306,42.907,0,0,0,
,0.007,0.082,1.067,379.211,-12.33,50.293,0,0,0,
,0.004,0.076,1.069,381.652,-20.203,61.462,0,0,0,
,-0.048,-0.026,0.98,345.092,-1.038,65.49,0,0,0,
,-0.056,0.049,0.939,227.844,-9.522,56.823,0,0,0,
,-0.017,0.096,0.961,222.168,4.455,70.251,0,0,0,
,-0.012,0.07,1.002,320.617,40.1,105.896,0,0,0,
,0.012,0.014,1.058,411.499,43.029,103.21,0,0,0,
,0.019,-0.038,1.035,432.739,24.414,9.643,0,0,0,
,-0.027,-0.202,0.97,599.06,32.47,43.64,0,0,0,
,-0.021,-0.183,0.931,586.181,52.307,94.116,0,0,0,
,0.004,-0.138,0.927,475.891,51.513,65.429,0,0,0,
,-0.008,-0.142,0.949,418.151,75.683,91.919,0,0,0,
,-0.02,-0.15,1.014,426.818,80.871,89.599,0,0,0,
,0.002,-0.134,1.011,431.274,83.252,95.764,0,0,0,
,-0.008,-0.193,1.003,474.609,87.341,91.613,0,0,0,
,-0.021,-0.207,0.983,515.869,112.671,73.974,0,0,0,
,0.003,-0.229,0.966,540.039,141.967,52.49,0,0,0,
,0.048,-0.234,0.964,538.94,159.546,99.06,0,0,0,
,0.048,-0.251,0.969,538.574,176.086,106.567,0,0,0,
,0.074,-0.278,1.036,552.307,170.898,105.59,0,0,0,
,0.117,-0.265,1.004,556.03,139.404,89.477,0,0,0,
,0.101,-0.268,1.006,622.375,141.113,124.694,0,0,0,
,0.054,-0.341,0.951,662.536,137.512,59.875,0,0,0,
,0.021,-0.428,0.834,668.579,159.851,70.556,0,0,0,
,0.032,-0.449,0.751,668.518,201.599,123.901,0,0,0,
,0.083,-0.433,0.762,599.853,219.36,144.897,0,0,0,
,0.133,-0.399,0.794,565.368,252.99,211.059,0,0,0,
,0.133,-0.419,0.875,584.961,255.493,227.111,0,0,0,
,0.15,-0.406,0.838,648.071,263.183,255.066,0,0,0,
,0.171,-0.387,0.787,727.05,272.094,251.892,0,0,0,
,0.172,-0.495,0.795,804.931,288.94,132.69,0,0,0,
,0.268,-0.57,0.84,781.677,267.761,73.974,0,0,0,
,0.323,-0.631,0.813,609.436,194.213,74.951,0,0,0,
,0.304,-0.62,0.805,428.344,111.389,142.273,0,0,0,
,0.293,-0.576,0.731,292.175,56.213,189.575,0,0,0,
,0.257,-0.584,0.754,233.032,38.879,237.609,0,0,0,
,0.236,-0.625,0.758,182.19,26.184,207.153,0,0,0,
,0.259,-0.652,0.785,108.276,-30.762,127.502,0,0,0,
,0.264,-0.719,0.791,107.36,-54.505,-3.174,0,0,0,
,0.26,-0.761,0.717,79.528,-102.295,-101.624,0,0,0,
,0.22,-0.788,0.683,-10.315,-123.841,-96.924,0,0,0,
,0.167,-0.788,0.685,-138.367,-134.278,-102.539,0,0,0,
,0.175,-0.677,0.707,-241.272,-141.968,-133.667,0,0,0,
,0.175,-0.638,0.734,-202.332,-120.728,-152.588,0,0,0,
,0.182,-0.651,0.769,-210.877,-110.291,-174.134,0,0,0,
,0.176,-0.656,0.766,-323.365,-109.559,-173.768,0,0,0,
,0.168,-0.666,0.73,-494.141,-98.816,-209.717,0,0,0,
,0.169,-0.643,0.694,-662.476,-105.469,-255.738,0,0,0,
,0.17,-0.636,0.694,-856.507,-127.869,-291.26,0,0,0,
,0.158,-0.535,0.763,-1078.064,-142.518,-324.463,0,0,0,
,0.197,-0.436,0.858,-1237.977,-197.876,-365.296,0,0,0,
,0.191,-0.349,0.958,-1300.293,-235.962,-386.231,0,0,0,
,0.181,-0.304,0.968,-1335.267,-248.719,-385.743,0,0,0,
,0.173,-0.236,1.011,-1370.24,-266.053,-371.644,0,0,0,
,0.178,-0.268,0.983,-1460.206,-292.237,-333.619,0,0,0,
,0.105,-0.286,0.984,-1462.952,-344.849,-283.692,0,0,0,
,0.038,-0.178,1.046,-1361.939,-370.057,-215.394,0,0,0,
,0.02,-0.088,1.01,-1339.783,-344.91,-208.497,0,0,0,
,-0.001,-0.054,1.026,-1360.291,-318.238,-213.196,0,0,0,
,-0.013,-0.02,0.968,-1436.646,-316.895,-175.049,0,0,0,
,-0.058,0.076,1.081,-1410.767,-254.212,-135.743,0,0,0,
,-0.042,0.087,1.025,-1449.83,-241.761,-137.391,0,0,0,
,-0.021,0.166,1.07,-1390.137,-230.774,-104.126,0,0,0,
,-0.012,0.227,0.979,-1483.887,-233.155,-75.928,0,0,0,
,-0.059,0.301,0.96,-1528.504,-249.695,-17.334,0,0,0,
,-0.104,0.322,0.897,-1640.687,-248.047,-40.345,0,0,0,
,-0.104,0.405,0.914,-1585.755,-241.15,-57.801,0,0,0,
,-0.074,0.462,0.846,-1540.65,-238.648,-37.598,0,0,0,
,-0.038,0.481,0.781,-1487.916,-260.071,75.134,0,0,0,
,-0.053,0.53,0.693,-1507.874,-280.579,10.253,0,0,0,
,-0.088,0.534,0.627,-1424.927,-278.748,23.62,0,0,0,
,-0.096,0.608,0.646,-1344.91,-275.879,7.812,0,0,0,
,-0.081,0.636,0.618,-1314.515,-276.612,8.117,0,0,0,
,-0.068,0.654,0.55,-1361.451,-281.006,29.724,0,0,0,
,-0.064,0.724,0.475,-1322.388,-320.557,50.781,0,0,0,
,-0.065,0.771,0.391,-1269.471,-367.676,44.494,0,0,0,
,-0.078,0.726,0.261,-1217.957,-406.189,58.593,0,0,0,
,-0.211,0.784,0.308,-977.234,-454.285,86.914,0,0,0,
,-0.209,0.815,0.33,-978.577,-471.558,120.666,0,0,0,
,-0.267,0.792,0.281,-954.957,-490.845,56.762,0,0,0,
,-0.293,0.799,0.19,-930.054,-474.61,33.813,0,0,0,
,-0.264,0.897,0.186,-848.755,-466.919,48.034,0,0,0,
,-0.305,0.963,0.077,-789.856,-494.507,-16.785,0,0,0,
,-0.384,1.092,0.102,-729.371,-468.75,-26.795,0,0,0,
,-0.348,1.077,0.075,-668.274,-402.832,-37.171,0,0,0,
,-0.292,1.038,0.034,-555.664,-371.766,-69.581,0,0,0,
,-0.326,1.047,-0.054,-412.11,-378.357,-69.336,0,0,0,
,-0.375,1,-0.041,-315.552,-326.539,-138.306,0,0,0,
,-0.271,0.991,0.014,-217.164,-217.713,-177.552,0,0,0,
,-0.258,0.994,-0.001,-232.666,-238.709,-199.097,0,0,0,
,-0.271,0.99,-0.092,-247.315,-238.831,-145.447,0,0,0,
,-0.271,1.012,-0.153,-326.6,-207.276,-147.644,0,0,0,
,-0.267,0.996,-0.152,-341.492,-181.092,-152.283,0,0,0,
,-0.221,0.975,-0.105,-303.101,-140.931,-141.48,0,0,0,
,-0.199,0.988,-0.095,-240.052,-166.382,-132.752,0,0,0,
,-0.242,0.952,-0.139,-169.617,-202.027,-138.794,0,0,0,
,-0.265,0.916,-0.168,-127.442,-197.266,-145.325,0,0,0,
,-0.234,0.907,-0.158,-132.935,-166.199,-175.11,0,0,0,
,-0.236,0.911,-0.238,-132.019,-171.143,-157.715,0,0,0,
,-0.254,1.009,-0.193,-137.574,-141.724,-180.115,0,0,0,
,-0.245,0.981,-0.236,-0.916,-134.339,-191.163,0,0,0,
,-0.268,0.968,-0.257,32.959,-124.878,-189.942,0,0,0,
,-0.247,0.969,-0.218,66.589,-76.783,-203.492,0,0,0,
,-0.183,0.986,-0.24,101.745,-52.918,-207.337,0,0,0,
,-0.193,0.974,-0.187,157.348,-63.477,-186.707,0,0,0,
,-0.206,0.96,-0.209,187.561,-41.016,-177.735,0,0,0,
,-0.148,0.973,-0.241,154.052,-8.789,-168.213,0,0,0,
,-0.104,0.986,-0.219,130.432,2.441,-150.635,0,0,0,
,-0.108,1.024,-0.186,128.296,5.004,-130.677,0,0,0,
,-0.118,1.015,-0.169,138.183,15.991,-100.525,0,0,0,
,-0.121,0.94,-0.129,139.16,28.381,-81.543,0,0,0,
,-0.092,0.961,-0.116,121.582,47.607,-78.186,0,0,0,
,-0.085,0.958,-0.109,110.595,27.282,-78.614,0,0,0,
,-0.076,0.992,-0.113,65.185,50.842,-81.971,0,0,0,
,-0.073,0.975,-0.085,77.636,64.209,-82.154,0,0,0,
,-0.068,0.917,-0.093,134.704,63.842,-91.98,0,0,0,
,-0.058,0.899,-0.058,139.404,70.312,-109.253,0,0,0,
,-0.046,0.944,-0.076,106.14,68.481,-112.732,0,0,0,
,-0.049,0.992,-0.104,81.543,70.129,-105.591,0,0,0,
,-0.045,0.999,-0.116,72.021,80.322,-96.131,0,0,0,
,-0.035,0.972,-0.094,72.57,89.05,-88.135,0,0,0,
,-0.047,0.939,-0.09,88.195,81.359,-76.844,0,0,0,
,-0.045,0.93,-0.074,86.242,82.031,-78.919,0,0,0,
,-0.025,0.952,-0.075,57.983,85.449,-76.783,0,0,0,
,-0.041,0.966,-0.096,30.151,68.481,-64.026,0,0,0,
,-0.052,0.976,-0.073,1.831,76.66,-60.059,0,0,0,
,-0.049,0.97,-0.068,-15.503,82.824,-50.904,0,0,0,
,-0.058,0.944,-0.085,-4.456,73.486,-44.678,0,0,0,
,-0.061,0.949,-0.087,1.586,82.458,-46.998,0,0,0,
,-0.049,0.946,-0.065,-2.137,89.477,-46.631,0,0,0,
,-0.047,0.997,-0.056,-2.93,89.904,-50.171,0,0,0,
,-0.05,0.989,-0.064,1.464,84.838,-41.932,0,0,0,
,-0.058,0.986,-0.046,11.291,77.27,-37.72,0,0,0,
,-0.049,0.963,-0.072,17.395,83.679,-35.096,0,0,0,
,-0.054,0.951,-0.068,-6.592,80.993,-41.81,0,0,0,
,-0.074,0.958,-0.051,-5.188,84.045,-42.054,0,0,0,
,-0.071,0.963,-0.055,16.235,96.313,-46.936,0,0,0,
,-0.041,0.963,-0.053,34.729,98.693,-47.364,0,0,0,
,-0.036,0.969,-0.04,44.799,85.754,-38.086,0,0,0,
,-0.043,0.982,-0.064,36.56,93.2,-30.701,0,0,0,
,-0.04,0.996,-0.055,42.785,98.755,-25.635,0,0,0,
,-0.04,0.994,-0.047,42.175,99.548,-13.489,0,0,0,
,-0.045,0.942,-0.05,51.574,97.961,-10.682,0,0,0,
,-0.046,0.913,-0.025,39.062,95.52,-9.827,0,0,0,
,-0.039,0.923,-0.05,-4.639,89.416,-10.437,0,0,0,
,-0.057,0.949,-0.064,-22.156,79.589,-6.47,0,0,0,
,-0.066,0.98,-0.07,-28.504,85.51,0.122,0,0,0,
,-0.054,0.985,-0.078,-33.02,96.862,3.173,0,0,0,
,-0.056,1,-0.069,-38.697,95.703,12.573,0,0,0,
,-0.079,0.971,-0.051,-6.958,100.28,26.733,0,0,0,
,-0.09,0.933,-0.029,36.743,107.91,17.211,0,0,0,
,-0.036,0.939,-0.025,11.657,113.342,8.972,0,0,0,
,-0.076,0.965,-0.056,-17.212,103.942,8.789,0,0,0,
,-0.08,1,-0.059,-17.945,112.732,1.831,0,0,0,
,-0.066,1.03,-0.064,-23.682,120.422,9.765,0,0,0,
,-0.081,0.985,-0.07,-18.86,112.976,18.798,0,0,0,
,-0.09,0.974,-0.065,-2.198,122.253,23.803,0,0,0,
,-0.082,0.958,-0.029,20.507,114.563,25.329,0,0,0,
,-0.061,0.974,-0.037,32.165,109.069,22.033,0,0,0,
,-0.047,0.97,-0.054,27.893,96.13,19.043,0,0,0,
,-0.056,0.964,-0.036,28.015,80.505,14.709,0,0,0,
,-0.071,0.959,-0.089,13.732,83.435,7.019,0,0,0,
,-0.072,0.961,-0.068,-6.531,101.318,-4.761,0,0,0,
,-0.053,0.958,-0.028,-25.391,112.121,9.338,0,0,0,
,-0.055,0.969,-0.059,-27.344,105.713,2.624,0,0,0,
,-0.06,1.012,-0.027,-17.64,98.083,12.39,0,0,0,
,-0.071,1.064,-0.02,42.236,74.401,40.649,0,0,0,
,-0.076,1.104,-0.077,173.706,52.124,68.969,0,0,0,
,-0.078,1.124,-0.115,460.876,36.682,57.739,0,0,0,
,-0.103,1.119,0.015,630.92,-2.259,66.162,0,0,0,
,-0.11,1.069,0.022,806.213,8.972,76.965,0,0,0,
,-0.078,0.981,0.048,858.642,0.061,84.716,0,0,0,
,-0.05,0.906,0.008,784.301,-14.344,81.665,0,0,0,
,-0.021,0.957,0.125,774.414,-90.882,75.317,0,0,0,
,-0.027,1.04,0.2,888.549,-123.475,53.833,0,0,0,
,-0.095,0.974,0.159,1173.278,-103.394,47.302,0,0,0,
,-0.15,0.803,0.125,1192.81,-54.566,59.265,0,0,0,
,-0.137,0.62,0.162,1016.845,-48.951,40.588,0,0,0,
,-0.092,0.675,0.442,739.99,-96.924,49.011,0,0,0,
,-0.084,0.785,0.344,513.977,-104.615,55.725,0,0,0,
,-0.095,0.9,0.274,526.001,-157.654,9.521,0,0,0,
,-0.092,0.98,0.433,747.802,-217.652,30.029,0,0,0,
,-0.116,0.85,0.491,1046.264,-220.337,17.334,0,0,0,
,-0.179,0.616,0.518,1115.6,-235.169,-32.41,0,0,0,
,-0.187,0.533,0.477,885.437,-258.301,-80.689,0,0,0,
,-0.17,0.556,0.516,551.818,-294.617,-92.53,0,0,0,
,-0.16,0.666,0.575,240.844,-312.867,-120.911,0,0,0,
,-0.166,0.732,0.561,-81.482,-274.231,-160.645,0,0,0,
,-0.184,0.76,0.491,-353.76,-237.305,-179.322,0,0,0,
,-0.223,0.744,0.385,-547.486,-189.148,-214.051,0,0,0,
,-0.249,0.786,0.377,-587.586,-163.025,-241.028,0,0,0,
,-0.231,0.873,0.386,-528.199,-141.785,-266.846,0,0,0,
,-0.187,0.955,0.443,-357.544,-128.724,-272.95,0,0,0,
,-0.16,0.96,0.461,-145.447,-100.464,-253.907,0,0,0,
,-0.182,0.935,0.532,37.963,-82.459,-213.99,0,0,0,
,-0.326,1.139,0.465,139.587,-38.819,-134.278,0,0,0,
,-0.19,1.014,0.432,-274.537,-132.447,-191.163,0,0,0,
,-0.059,1.469,0.439,-785.889,-181.885,105.835,0,0,0,
,0.115,1.258,0.326,-167.054,-69.764,-86.792,0,0,0,
,-0.141,1.003,0.474,466.858,-117.066,13.427,0,0,0,
,-0.21,0.838,0.482,636.596,5.615,89.538,0,0,0,
,-0.084,0.83,0.478,683.593,63.049,5.188,0,0,0,
,-0.002,0.783,0.416,582.153,39.733,13.671,0,0,0,
,0.002,0.842,0.407,634.704,66.284,-1.587,0,0,0,
,-0.071,0.736,0.393,673.217,103.637,-25.696,0,0,0,
,-0.15,0.659,0.399,680.908,154.113,-38.147,0,0,0,
,-0.183,0.654,0.34,594.36,202.209,-88.44,0,0,0,
,-0.326,0.774,0.502,594.604,138.855,-19.532,0,0,0,
,-0.279,0.992,0.672,257.507,55.542,159.24,0,0,0,
,-0.103,1.223,0.455,464.843,102.844,115.295,0,0,0,
,-0.268,1.034,0.386,1093.689,146.057,122.07,0,0,0,
,-0.404,0.766,0.413,1401.611,274.292,204.651,0,0,0,
,-0.348,0.688,0.587,1397.033,320.922,268.005,0,0,0,
,-0.234,0.798,0.764,1524.17,402.71,-19.837,0,0,0,
,-0.117,0.646,0.763,1508.545,349.792,-135.437,0,0,0,
,-0.25,0.53,1.176,276.306,261.291,-341.736,0,0,0,
,-0.13,0.133,0.57,353.21,396.362,-79.773,0,0,0,
,0.148,-0.006,1.115,143.371,50.293,-154.053,0,0,0,
,0.104,0.064,0.945,-25.513,-82.581,76.66,0,0,0,
,-0.088,0.273,0.833,-259.217,-141.907,68.176,0,0,0,
,-0.214,0.524,0.664,-464.173,-310.242,-107.117,0,0,0,
,-0.217,0.927,0.904,-242.981,-219.605,-166.321,0,0,0,
,-0.154,1.096,0.906,-13.245,20.69,-94.483,0,0,0,
,-0.083,0.54,0.78,92.59,34.729,-176.148,0,0,0,
,-0.078,0.264,0.816,72.692,37.353,-164.734,0,0,0,
,-0.128,0.354,0.837,-49.134,53.588,-121.155,0,0,0,
,-0.08,0.595,0.854,-101.441,71.35,-14.161,0,0,0,
,0.003,0.741,0.766,-21.79,64.148,-51.697,0,0,0,
,-0.017,0.607,0.815,38.513,53.222,22.033,0,0,0,
,-0.111,0.497,0.807,50.476,34.912,31.799,0,0,0,
,-0.102,0.462,0.857,8.239,42.541,-0.916,0,0,0,
,-0.057,0.484,0.819,-38.392,10.315,-7.019,0,0,0,
,-0.071,0.55,0.786,-65.674,-33.631,16.784,0,0,0,
,-0.112,0.635,0.811,-31.983,-31.311,16.174,0,0,0,
,-0.101,0.666,0.805,35.583,7.324,-2.991,0,0,0,
,-0.089,0.583,0.798,78.002,16.662,-9.705,0,0,0,
,-0.117,0.5,0.785,65.124,21.667,-11.414,0,0,0,
,-0.09,0.585,0.901,84.045,6.408,-26.185,0,0,0,
,-0.162,0.61,0.738,114.929,20.568,8.728,0,0,0,
,-0.197,0.634,0.836,155.578,14.526,97.168,0,0,0,
,-0.137,0.493,0.89,173.645,-11.536,-33.631,0,0,0,
,-0.011,0.319,0.848,120.727,10.864,-136.78,0,0,0,
,-0.044,0.459,0.873,25.756,0.488,-22.644,0,0,0,
,-0.059,0.552,0.838,-53.589,7.69,-27.1,0,0,0,
,-0.039,0.56,0.819,-26.123,2.502,3.54,0,0,0,
,0.004,0.532,0.788,-16.541,-7.935,-32.898,0,0,0,
,-0.059,0.504,0.816,10.986,-20.02,21.301,0,0,0,
,-0.134,0.444,0.821,-41.26,-12.146,12.268,0,0,0,
,-0.064,0.533,0.844,-51.392,-13.611,-13.977,0,0,0,
,-0.084,0.58,0.824,-49.012,-14.466,7.324,0,0,0,
,-0.116,0.564,0.813,-18.067,-14.466,1.648,0,0,0,
,-0.115,0.546,0.825,4.882,8.117,-15.015,0,0,0,
,-0.096,0.501,0.826,2.319,9.948,-21.973,0,0,0,
,-0.102,0.515,0.823,-18.799,10.864,-18.25,0,0,0,
,-0.097,0.546,0.821,-22.339,10.009,-20.752,0,0,0,
,-0.098,0.556,0.82,-4.151,11.291,-20.386,0,0,0,
,-0.097,0.552,0.805,11.901,11.169,-15.87,0,0,0,
,-0.115,0.522,0.801,11.108,14.465,-16.541,0,0,0,
,-0.105,0.519,0.833,-1.282,12.268,-20.386,0,0,0,
,-0.106,0.521,0.826,-17.762,13.488,-26.612,0,0,0,
,-0.102,0.545,0.82,-30.213,21.301,-27.344,0,0,0,
,-0.092,0.557,0.823,-22.278,18.798,-27.405,0,0,0,
,-0.09,0.559,0.814,-11.597,13.122,-17.273,0,0,0,
,-0.102,0.541,0.813,-2.93,3.418,-17.029,0,0,0,
,-0.11,0.544,0.815,7.385,8.117,-17.762,0,0,0,
,-0.104,0.541,0.827,18.371,14.831,-28.626,0,0,0,
,-0.091,0.521,0.838,-8.545,16.601,-30.091,0,0,0,
,-0.082,0.531,0.824,-12.635,6.347,-23.133,0,0,0,
,-0.093,0.543,0.822,-23.255,-0.55,-9.644,0,0,0,
,-0.105,0.551,0.812,-30.64,-1.221,-10.682,0,0,0,
,-0.106,0.565,0.816,-10.132,6.408,-18.372,0,0,0,
,-0.097,0.552,0.817,3.723,10.192,-18.677,0,0,0,
,-0.099,0.532,0.821,0.061,7.202,-17.029,0,0,0,
,-0.104,0.524,0.827,-20.874,7.812,-16.236,0,0,0,
,-0.102,0.531,0.816,-39.612,6.347,-17.151,0,0,0,
,-0.102,0.557,0.814,-42.664,7.934,-17.029,0,0,0,
,-0.098,0.574,0.814,-28.748,11.352,-17.273,0,0,0,
,-0.095,0.554,0.804,-16.663,10.009,-17.029,0,0,0,
,-0.099,0.544,0.803,-20.142,3.356,-12.757,0,0,0,
,-0.107,0.552,0.81,-21.18,1.464,-11.597,0,0,0,
,-0.11,0.564,0.811,-14.893,7.751,-14.71,0,0,0,
,-0.101,0.552,0.81,-3.602,6.897,-20.508,0,0,0,
,-0.103,0.549,0.814,-4.883,3.906,-21.18,0,0,0,
,-0.105,0.558,0.808,-4.456,7.385,-25.696,0,0,0,
,-0.102,0.567,0.812,-2.686,11.23,-27.466,0,0,0,
,-0.099,0.556,0.806,-2.564,17.334,-24.109,0,0,0,
,-0.099,0.546,0.819,-15.992,15.93,-21.668,0,0,0,
,-0.095,0.538,0.812,-34.913,12.756,-20.386,0,0,0,
,-0.1,0.557,0.808,-40.955,5.554,-17.884,0,0,0,
,-0.105,0.575,0.798,-35.523,5.065,-14.893,0,0,0,
,-0.107,0.575,0.802,-13.794,6.774,-19.593,0,0,0,
,-0.1,0.572,0.801,-0.916,15.197,-22.828,0,0,0,
,-0.094,0.556,0.807,7.751,13.549,-24.109,0,0,0,
,-0.097,0.566,0.811,1.953,6.958,-19.837,0,0,0,
,-0.102,0.558,0.795,-0.123,5.798,-19.654,0,0,0,
,-0.099,0.562,0.803,-0.794,5.615,-18.616,0,0,0,
,-0.102,0.57,0.808,6.469,2.746,-17.945,0,0,0,
,-0.104,0.554,0.803,5.92,9.704,-19.654,0,0,0,
,-0.101,0.554,0.813,2.014,9.704,-18.921,0,0,0,
,-0.103,0.557,0.808,-5.738,5.554,-20.63,0,0,0,
,-0.104,0.565,0.804,-4.578,5.188,-22.706,0,0,0,
,-0.102,0.578,0.798,3.356,2.685,-22.644,0,0,0,
,-0.104,0.574,0.801,12.939,7.019,-20.081,0,0,0,
,-0.1,0.55,0.804,12.939,6.53,-20.691,0,0,0,
,-0.105,0.55,0.811,5.371,6.591,-20.02,0,0,0,
,-0.105,0.563,0.804,-1.221,5.432,-22.034,0,0,0,
,-0.104,0.573,0.803,10.559,5.737,-24.659,0,0,0,
,-0.1,0.566,0.806,20.08,9.582,-21.668,0,0,0,
,-0.1,0.545,0.807,13.305,8.911,-22.828,0,0,0,
,-0.102,0.55,0.806,-4.883,3.295,-21.302,0,0,0,
,-0.103,0.561,0.805,-14.344,1.77,-21.79,0,0,0,
,-0.105,0.572,0.803,-7.264,5.92,-20.997,0,0,0,
,-0.104,0.576,0.8,5.31,6.958,-20.142,0,0,0,
,-0.105,0.558,0.803,13.794,8.911,-20.02,0,0,0,
,-0.109,0.536,0.8,-1.221,10.131,-21.729,0,0,0,
,-0.098,0.558,0.806,-12.33,3.356,-19.349,0,0,0,
,-0.105,0.557,0.808,-9.766,0.122,-19.288,0,0,0,
,-0.103,0.579,0.799,-6.287,3.295,-18.372,0,0,0,
,-0.106,0.568,0.803,8.117,1.403,-20.997,0,0,0,
,-0.106,0.561,0.79,3.906,8.117,-17.456,0,0,0,
,-0.108,0.554,0.812,7.934,4.638,-22.767,0,0,0,
,-0.109,0.567,0.798,1.281,9.643,-22.706,0,0,0,
,-0.101,0.564,0.812,10.986,7.995,-25.94,0,0,0,
,-0.099,0.565,0.797,9.277,6.103,-20.325,0,0,0,
,-0.108,0.552,0.812,9.521,5.676,-17.945,0,0,0,
,-0.109,0.549,0.798,-7.874,10.803,-22.278,0,0,0,
,-0.103,0.564,0.805,-7.325,4.028,-22.828,0,0,0,
,-0.107,0.578,0.797,-4.639,6.836,-21.729,0,0,0,
,-0.107,0.58,0.804,12.695,10.376,-24.598,0,0,0,
,-0.104,0.559,0.798,17.7,14.221,-24.964,0,0,0,
,-0.099,0.553,0.809,10.07,10.315,-23.194,0,0,0,
,-0.105,0.559,0.804,4.943,7.873,-19.532,0,0,0,
,-0.106,0.568,0.8,6.591,3.601,-21.363,0,0,0,
,-0.106,0.564,0.802,8.789,6.042,-22.095,0,0,0,
,-0.103,0.565,0.806,5.127,5.127,-20.63,0,0,0,
,-0.107,0.563,0.801,4.821,1.77,-17.884,0,0,0,
,-0.111,0.576,0.802,12.451,4.516,-19.898,0,0,0,
,-0.108,0.572,0.801,19.287,10.376,-24.353,0,0,0,
,-0.106,0.558,0.806,24.475,11.23,-27.1,0,0,0,
,-0.1,0.554,0.812,15.564,10.864,-26.673,0,0,0,
,-0.103,0.548,0.806,6.042,10.131,-21.668,0,0,0,
,-0.103,0.557,0.809,-6.775,9.46,-20.386,0,0,0,
,-0.105,0.564,0.797,-10.621,7.751,-20.203,0,0,0,
,-0.107,0.59,0.805,-2.259,5.737,-25.208,0,0,0,
,-0.104,0.57,0.791,5.493,8.789,-21.607,0,0,0,
,-0.109,0.569,0.814,3.723,10.803,-22.034,0,0,0,
,-0.105,0.564,0.787,9.216,10.681,-23.438,0,0,0,
,-0.109,0.571,0.814,5.249,12.573,-25.025,0,0,0,
,-0.103,0.568,0.799,13.916,10.009,-25.574,0,0,0,
,-0.107,0.561,0.811,12.268,11.291,-24.598,0,0,0,
,-0.105,0.559,0.804,8.544,13.183,-26.307,0,0,0,
,-0.099,0.566,0.805,3.112,12.39,-24.537,0,0,0,
,-0.102,0.566,0.804,1.648,8.85,-21.119,0,0,0,
,-0.106,0.56,0.808,-3.174,10.07,-22.461,0,0,0,
,-0.1,0.57,0.81,-0.977,9.704,-23.621,0,0,0,
,-0.105,0.572,0.795,-2.198,6.53,-20.997,0,0,0,
,-0.107,0.579,0.804,7.202,7.629,-20.752,0,0,0,
,-0.104,0.565,0.794,20.629,9.277,-26.062,0,0,0,
,-0.102,0.555,0.806,14.099,8.606,-24.537,0,0,0,
,-0.1,0.553,0.805,7.263,7.263,-24.292,0,0,0,
,-0.098,0.574,0.801,0.732,5.249,-18.616,0,0,0,
,-0.105,0.576,0.803,16.418,3.723,-19.532,0,0,0,
,-0.108,0.567,0.802,24.231,7.873,-19.654,0,0,0,
,-0.107,0.552,0.813,21.118,9.704,-27.344,0,0,0,
,-0.1,0.558,0.804,6.652,10.62,-27.466,0,0,0,
,-0.103,0.562,0.804,5.065,6.469,-25.574,0,0,0,
,-0.105,0.569,0.8,2.502,9.399,-22.156,0,0,0,
,-0.099,0.559,0.803,9.277,8.544,-24.353,0,0,0,
,-0.101,0.557,0.805,4.943,10.315,-19.41,0,0,0,
,-0.107,0.559,0.804,1.953,10.376,-22.522,0,0,0,
,-0.107,0.567,0.803,-1.893,12.817,-24.353,0,0,0,
,-0.105,0.572,0.802,6.897,13.855,-25.757,0,0,0,
,-0.103,0.562,0.804,13.855,13.61,-24.842,0,0,0,
,-0.097,0.552,0.807,13.244,9.643,-25.94,0,0,0,
,-0.101,0.553,0.804,2.746,5.432,-21.241,0,0,0,
,-0.1,0.564,0.802,0.488,5.92,-20.02,0,0,0,
,-0.102,0.562,0.803,3.112,8.483,-20.935,0,0,0,
,-0.099,0.569,0.8,9.155,8.178,-22.217,0,0,0,
,-0.104,0.565,0.806,18.554,3.601,-23.072,0,0,0,
,-0.106,0.558,0.804,18.981,5.371,-20.997,0,0,0,
,-0.104,0.556,0.809,18.554,7.385,-26.001,0,0,0,
,-0.103,0.558,0.807,13.183,9.765,-23.743,0,0,0,
,-0.101,0.56,0.805,8.361,7.263,-24.109,0,0,0,
,-0.1,0.56,0.804,9.582,6.591,-24.659,0,0,0,
,-0.098,0.566,0.813,13.427,4.638,-23.194,0,0,0,
,-0.106,0.558,0.806,11.901,8.789,-20.325,0,0,0,
,-0.106,0.552,0.821,7.751,9.582,-23.255,0,0,0,
,-0.102,0.547,0.807,-7.019,9.216,-20.691,0,0,0,
,-0.106,0.554,0.811,-12.879,7.812,-21.851,0,0,0,
,-0.099,0.568,0.797,-13.428,9.887,-21.18,0,0,0,
,-0.105,0.573,0.803,2.197,5.554,-20.691,0,0,0,
,-0.106,0.566,0.806,6.347,10.192,-21.973,0,0,0,
,-0.1,0.566,0.796,-1.404,7.812,-23.377,0,0,0,
,-0.102,0.575,0.8,11.596,7.629,-17.701,0,0,0,
,-0.1,0.569,0.8,25.695,-4.09,-21.363,0,0,0,
,-0.105,0.56,0.807,27.404,-2.503,-17.09,0,0,0,
,-0.106,0.561,0.806,28.503,0.183,-22.889,0,0,0,
,-0.103,0.552,0.805,13,-5.433,-18.433,0,0,0,
,-0.107,0.556,0.797,8.85,-2.503,-16.724,0,0,0,
,-0.107,0.565,0.804,13.305,-3.174,-17.395,0,0,0,
,-0.108,0.559,0.806,15.808,-1.16,-14.771,0,0,0,
,-0.108,0.55,0.811,14.709,2.136,-16.48,0,0,0,
,-0.104,0.542,0.81,7.568,0.244,-16.175,0,0,0,
,-0.105,0.551,0.804,-0.489,15.014,-15.625,0,0,0,
,-0.109,0.564,0.8,0.732,2.502,-15.748,0,0,0,
,-0.108,0.57,0.808,8.117,9.094,-15.015,0,0,0,
,-0.107,0.56,0.81,13.977,9.765,-16.358,0,0,0,
,-0.107,0.544,0.813,10.62,6.103,-14.1,0,0,0,
,-0.111,0.561,0.809,3.662,8.483,-16.907,0,0,0,
,-0.113,0.556,0.808,6.713,12.573,-18.311,0,0,0,
,-0.111,0.556,0.81,4.76,14.221,-21.729,0,0,0,
,-0.106,0.556,0.807,3.051,12.451,-23.194,0,0,0,
,-0.104,0.56,0.807,1.831,6.286,-20.935,0,0,0,
,-0.106,0.559,0.808,5.493,2.502,-16.907,0,0,0,
,-0.111,0.553,0.807,2.441,3.967,-16.541,0,0,0,
,-0.11,0.559,0.808,4.699,7.141,-16.724,0,0,0,
,-0.109,0.562,0.811,7.385,4.699,-18.86,0,0,0,
,-0.108,0.563,0.813,11.413,3.967,-18.189,0,0,0,
,-0.114,0.551,0.808,9.155,3.112,-17.823,0,0,0,
,-0.111,0.55,0.811,6.408,3.051,-20.874,0,0,0,
,-0.107,0.555,0.808,1.709,3.479,-20.691,0,0,0,
,-0.11,0.562,0.807,1.342,2.136,-20.264,0,0,0,
,-0.112,0.561,0.808,5.432,3.112,-18.921,0,0,0,
,-0.115,0.552,0.811,6.713,6.164,-23.011,0,0,0,
,-0.111,0.556,0.811,6.469,10.681,-24.109,0,0,0,
,-0.105,0.555,0.813,5.371,10.803,-24.17,0,0,0,
,-0.114,0.565,0.805,3.295,9.826,-20.02,0,0,0,
,-0.109,0.554,0.81,5.371,14.099,-24.048,0,0,0,
,-0.108,0.55,0.814,1.953,9.765,-23.804,0,0,0,
,-0.107,0.564,0.806,4.638,5.554,-20.752,0,0,0,
,-0.113,0.563,0.805,9.216,6.652,-19.654,0,0,0,
,-0.11,0.554,0.808,8.178,12.268,-22.828,0,0,0,
,-0.109,0.554,0.805,6.469,10.315,-24.353,0,0,0,
,-0.11,0.555,0.808,5.554,12.512,-22.889,0,0,0,
,-0.108,0.557,0.806,6.958,11.352,-22.767,0,0,0,
,-0.111,0.555,0.804,3.845,8.3,-21.546,0,0,0,
,-0.111,0.562,0.808,6.652,11.108,-22.461,0,0,0,
,-0.11,0.555,0.805,8.422,7.019,-22.644,0,0,0,
,-0.109,0.556,0.807,8.483,8.789,-21.973,0,0,0,
,-0.105,0.551,0.805,5.92,6.103,-21.79,0,0,0,
,-0.112,0.555,0.807,5.554,3.723,-20.997,0,0,0,
,-0.112,0.564,0.808,8.239,5.554,-19.715,0,0,0,
,-0.113,0.555,0.807,10.864,9.948,-23.621,0,0,0,
,-0.106,0.556,0.81,8.728,8.911,-23.621,0,0,0,
,-0.11,0.555,0.812,9.46,4.028,-21.973,0,0,0,
,-0.115,0.553,0.808,8.361,11.169,-22.767,0,0,0,
,-0.111,0.549,0.808,5.92,13.366,-25.086,0,0,0,
,-0.105,0.548,0.805,-0.306,11.535,-24.231,0,0,0,
,-0.108,0.553,0.81,-2.503,11.657,-23.133,0,0,0,
,-0.108,0.563,0.81,-1.404,10.681,-22.461,0,0,0,
,-0.113,0.565,0.807,2.868,13.916,-24.659,0,0,0,
,-0.108,0.551,0.809,2.502,17.15,-28.199,0,0,0,
,-0.105,0.552,0.804,0.488,12.695,-26.185,0,0,0,
,-0.107,0.561,0.805,2.258,13.244,-24.048,0,0,0,
,-0.11,0.555,0.807,3.967,11.84,-23.377,0,0,0,
,-0.106,0.556,0.782,1.77,10.07,-25.635,0,0,0,
,-0.106,0.567,0.804,7.629,9.826,-21.363,0,0,0,
,-0.112,0.558,0.807,8.483,10.131,-23.011,0,0,0,
,-0.109,0.556,0.807,11.108,12.146,-25.208,0,0,0,
,-0.11,0.558,0.805,12.451,12.695,-26.001,0,0,0,
,-0.109,0.548,0.81,7.507,10.009,-26.246,0,0,0,
,-0.105,0.557,0.806,3.662,8.422,-24.72,0,0,0,
,-0.11,0.558,0.808,4.516,3.601,-22.522,0,0,0,
,-0.108,0.557,0.808,3.662,6.897,-23.133,0,0,0,
,-0.106,0.554,0.808,5.31,5.737,-26.673,0,0,0,
,-0.11,0.551,0.807,1.586,5.432,-26.185,0,0,0,
,-0.106,0.555,0.811,-1.709,1.892,-26.429,0,0,0,
,-0.108,0.555,0.803,-2.137,4.028,-24.659,0,0,0,
,-0.11,0.558,0.806,-4.212,5.859,-21.485,0,0,0,
,-0.115,0.563,0.807,-0.55,9.033,-24.842,0,0,0,
,-0.11,0.565,0.803,2.807,13.916,-27.222,0,0,0,
,-0.106,0.557,0.808,3.356,13.671,-28.687,0,0,0,
,-0.107,0.558,0.803,4.15,14.892,-27.405,0,0,0,
,-0.105,0.554,0.806,6.164,13,-27.466,0,0,0,
,-0.106,0.559,0.807,5.859,10.07,-24.353,0,0,0,
,-0.107,0.555,0.809,2.685,8.85,-24.598,0,0,0,
,-0.108,0.562,0.809,3.54,10.253,-24.964,0,0,0,
,-0.108,0.564,0.804,8.728,9.094,-24.353,0,0,0,
,-0.107,0.56,0.803,10.742,8.361,-22.889,0,0,0,
,-0.108,0.562,0.807,12.695,8.178,-24.17,0,0,0,
,-0.104,0.557,0.803,15.564,10.131,-24.476,0,0,0,
,-0.102,0.552,0.814,12.329,7.934,-23.865,0,0,0,
,-0.107,0.553,0.809,9.094,7.263,-20.691,0,0,0,
,-0.103,0.56,0.81,8.117,3.967,-22.095,0,0,0,
,-0.111,0.565,0.807,10.803,7.141,-19.532,0,0,0,
,-0.111,0.558,0.807,14.587,9.46,-24.17,0,0,0,
,-0.107,0.551,0.807,12.817,11.779,-26.612,0,0,0,
,-0.105,0.551,0.809,8.178,11.596,-26.49,0,0,0,
,-0.104,0.555,0.806,5.676,13.549,-24.231,0,0,0,
,-0.099,0.554,0.806,5.065,9.826,-22.217,0,0,0,
,-0.107,0.559,0.805,5.859,7.934,-20.874,0,0,0,
,-0.111,0.548,0.811,5.737,9.094,-23.499,0,0,0,
,-0.11,0.552,0.81,0.671,11.352,-26.185,0,0,0,
,-0.105,0.561,0.811,-0.061,9.704,-26.307,0,0,0,
,-0.106,0.565,0.809,6.103,12.695,-24.72,0,0,0,
,-0.11,0.557,0.808,9.948,14.038,-26.673,0,0,0,
,-0.106,0.553,0.812,7.385,15.014,-27.527,0,0,0,
,-0.101,0.557,0.809,5.31,17.028,-27.1,0,0,0,
,-0.101,0.559,0.806,7.873,17.395,-26.001,0,0,0,
,-0.103,0.55,0.811,3.54,17.273,-21.973,0,0,0,
,-0.102,0.554,0.809,4.76,13.732,-24.353,0,0,0,
,-0.104,0.557,0.809,2.38,10.192,-22.339,0,0,0,
,-0.105,0.563,0.809,7.446,10.62,-22.217,0,0,0,
,-0.104,0.558,0.808,10.376,11.23,-24.659,0,0,0,
,-0.097,0.555,0.81,10.376,10.315,-23.194,0,0,0,
,-0.104,0.562,0.81,14.221,10.986,-20.874,0,0,0,
,-0.104,0.557,0.814,13.671,10.009,-22.339,0,0,0,
,-0.104,0.552,0.807,14.099,13.183,-22.339,0,0,0,
,-0.103,0.541,0.813,11.352,15.136,-27.405,0,0,0,
,-0.1,0.547,0.811,1.586,11.779,-28.138,0,0,0,
,-0.103,0.556,0.81,0.366,9.643,-24.109,0,0,0,
,-0.102,0.564,0.808,3.418,8.972,-22.583,0,0,0,
,-0.104,0.557,0.807,4.394,10.131,-21.485,0,0,0,
,-0.1,0.55,0.816,3.051,9.094,-24.842,0,0,0,
,-0.098,0.542,0.805,-7.447,9.887,-24.598,0,0,0,
,-0.098,0.552,0.809,-11.963,3.906,-20.325,0,0,0,
,-0.098,0.557,0.793,-15.564,0.061,-17.579,0,0,0,
,-0.107,0.562,0.816,-6.653,-4.029,-16.846,0,0,0,
,-0.105,0.564,0.8,-2.869,0.244,-20.203,0,0,0,
,-0.101,0.552,0.811,2.075,0.061,-22.767,0,0,0,
,-0.101,0.559,0.804,-5.31,-4.395,-20.325,0,0,0,
,-0.099,0.561,0.803,-2.625,-4.578,-19.959,0,0,0,
,-0.106,0.566,0.809,2.014,-2.442,-17.945,0,0,0,
,-0.111,0.557,0.804,4.333,3.418,-21.058,0,0,0,
,-0.109,0.561,0.81,4.333,11.23,-24.292,0,0,0,
,-0.107,0.564,0.817,4.333,14.953,-26.551,0,0,0,
,-0.107,0.554,0.814,-2.564,14.892,-28.687,0,0,0,
,-0.102,0.557,0.843,-11.78,12.695,-27.832,0,0,0,
,-0.105,0.555,0.8,-16.602,12.695,-25.147,0,0,0,
,-0.099,0.565,0.802,-15.748,11.108,-24.476,0,0,0,
,-0.1,0.573,0.796,-4.273,11.352,-19.715,0,0,0,
,-0.105,0.575,0.796,11.047,14.343,-19.898,0,0,0,
,-0.107,0.565,0.804,21.606,14.221,-26.551,0,0,0,
,-0.109,0.553,0.806,18.981,17.028,-28.321,0,0,0,
,-0.104,0.562,0.807,14.404,18.249,-31.983,0,0,0,
,-0.1,0.562,0.801,14.343,19.043,-29.847,0,0,0,
,-0.103,0.571,0.807,20.996,25.634,-28.26,0,0,0,
,-0.102,0.557,0.809,21.057,32.165,-33.753,0,0,0,
,-0.094,0.546,0.812,10.925,33.508,-36.438,0,0,0,
,-0.095,0.55,0.813,-5.677,33.264,-36.622,0,0,0,
,-0.094,0.558,0.811,-11.963,33.447,-34.241,0,0,0,
,-0.093,0.566,0.807,-12.024,32.348,-30.518,0,0,0,
,-0.1,0.564,0.802,-7.935,29.541,-31.739,0,0,0,
,-0.091,0.568,0.8,0.427,31.005,-31.8,0,0,0,
,-0.089,0.567,0.798,9.643,29.296,-34.302,0,0,0,
,-0.087,0.561,0.806,9.643,24.719,-33.204,0,0,0,
,-0.092,0.561,0.804,13.977,23.437,-34.668,0,0,0,
,-0.094,0.568,0.807,18.615,25.268,-39.795,0,0,0,
,-0.09,0.572,0.812,24.902,29.235,-43.457,0,0,0,
,-0.085,0.563,0.814,29.846,27.099,-44.312,0,0,0,
,-0.086,0.557,0.782,30.517,25.268,-42.054,0,0,0,
,-0.081,0.56,0.809,30.273,24.414,-40.833,0,0,0,
,-0.083,0.558,0.804,34.912,18.92,-35.767,0,0,0,
,-0.083,0.544,0.806,32.775,14.77,-37.354,0,0,0,
,-0.085,0.545,0.809,26.611,15.686,-38.575,0,0,0,
,-0.086,0.56,0.807,25.94,17.334,-40.711,0,0,0,
,-0.077,0.562,0.812,40.588,14.587,-41.748,0,0,0,
,-0.08,0.557,0.81,46.875,14.099,-37.354,0,0,0,
,-0.084,0.549,0.807,53.833,12.634,-37.537,0,0,0,
,-0.082,0.548,0.818,54.565,16.052,-37.842,0,0,0,
,-0.08,0.545,0.817,51.818,18.859,-40.772,0,0,0,
,-0.079,0.535,0.827,42.724,21.118,-42.725,0,0,0,
,-0.076,0.53,0.828,26.733,22.094,-45.716,0,0,0,
,-0.075,0.542,0.824,22.155,20.08,-41.443,0,0,0,
,-0.074,0.548,0.814,18.798,17.211,-35.462,0,0,0,
,-0.076,0.538,0.823,16.479,13.794,-35.218,0,0,0,
,-0.077,0.546,0.816,18.432,14.709,-34.119,0,0,0,
,-0.076,0.551,0.817,28.991,15.93,-37.11,0,0,0,
,-0.068,0.544,0.819,34.24,16.601,-37.72,0,0,0,
,-0.065,0.533,0.818,31.616,15.014,-34.974,0,0,0,
,-0.076,0.531,0.817,28.564,10.315,-32.776,0,0,0,
,-0.072,0.544,0.815,19.714,12.146,-26.185,0,0,0,
,-0.074,0.533,0.832,38.024,3.601,-30.457,0,0,0,
,-0.07,0.544,0.812,33.996,12.023,-26.246,0,0,0,
,-0.074,0.532,0.835,51.208,8.3,-35.34,0,0,0,
,-0.069,0.538,0.822,38.33,16.54,-29.725,0,0,0,
,-0.072,0.521,0.829,46.325,8.483,-32.837,0,0,0,
,-0.072,0.526,0.827,26.916,15.625,-27.649,0,0,0,
,-0.068,0.525,0.833,31.25,6.713,-33.143,0,0,0,
,-0.069,0.531,0.828,23.376,10.62,-28.565,0,0,0,
,-0.071,0.534,0.838,32.836,6.225,-34.974,0,0,0,
,-0.07,0.526,0.822,30.944,12.146,-32.349,0,0,0,
,-0.064,0.524,0.837,27.648,6.469,-33.02,0,0,0,
,-0.061,0.522,0.822,19.897,2.136,-27.466,0,0,0,
,-0.068,0.524,0.838,17.761,-3.724,-29.358,0,0,0,
,-0.072,0.505,0.833,9.887,-0.428,-37.781,0,0,0,
,-0.064,0.504,0.842,-10.621,-10.682,-52.063,0,0,0,
,-0.068,0.527,0.83,-16.968,-17.884,-53.894,0,0,0,
,-0.076,0.558,0.822,-4.029,-15.564,-50.965,0,0,0,
,-0.072,0.55,0.828,22.522,-2.93,-47.608,0,0,0,
,-0.065,0.537,0.832,31.066,1.586,-37.11,0,0,0,
,-0.066,0.527,0.839,35.4,0.671,-33.753,0,0,0,
,-0.07,0.523,0.833,27.404,4.699,-30.945,0,0,0,
,-0.07,0.529,0.843,30.944,3.479,-37.171,0,0,0,
,-0.074,0.53,0.83,37.658,7.263,-39.246,0,0,0,
,-0.076,0.529,0.836,51.147,12.023,-49.134,0,0,0,
,-0.062,0.531,0.831,52.978,14.831,-45.777,0,0,0,
,-0.056,0.528,0.825,64.148,2.319,-41.932,0,0,0,
,-0.077,0.516,0.833,72.631,5.798,-39.246,0,0,0,
,-0.062,0.49,0.848,62.011,8.789,-50.232,0,0,0,
,-0.048,0.444,0.858,4.272,-1.648,-74.524,0,0,0,
,-0.047,0.483,0.858,-57.801,-33.387,-74.952,0,0,0,
,-0.06,0.513,0.836,-104.615,-55.298,-74.646,0,0,0,
,-0.084,0.51,0.835,-142.395,-60.12,-62.317,0,0,0,
,-0.088,0.541,0.847,-142.823,-49.012,-63.355,0,0,0,
,-0.072,0.511,0.843,-128.479,-36.255,-78.125,0,0,0,
,-0.051,0.533,0.852,-123.902,-31.617,-86.304,0,0,0,
,-0.078,0.499,0.821,-234.742,-27.1,-59.693,0,0,0,
,-0.063,0.546,0.839,-321.351,-23.011,-15.931,0,0,0,
,-0.062,0.585,0.837,-393.677,-10.315,-37.598,0,0,0,
,-0.177,0.584,0.878,-350.037,35.705,-70.984,0,0,0,
,-0.128,0.492,0.778,-401.001,72.143,-114.502,0,0,0,
,-0.033,0.546,0.822,-384.461,21.24,-96.741,0,0,0,
,-0.061,0.574,0.871,-483.582,20.568,-171.143,0,0,0,
,-0.042,0.75,0.78,-714.661,-19.288,-41.993,0,0,0,
,-0.054,0.858,0.767,-578.248,-11.719,-70.801,0,0,0,
,-0.062,0.835,0.708,-400.696,1.525,-62.317,0,0,0,
,-0.058,0.713,0.674,-263.489,3.112,-53.956,0,0,0,
,-0.09,0.657,0.678,-153.382,-8.484,-38.208,0,0,0,
,-0.044,0.636,0.666,-93.75,2.197,-45.166,0,0,0,
,0.019,0.77,0.749,7.019,-40.589,-9.461,0,0,0,
,0.013,0.84,0.808,224.67,-58.228,18.188,0,0,0,
,-0.031,0.743,0.787,389.77,-41.81,11.413,0,0,0,
,-0.061,0.639,0.772,393.554,-39.185,28.32,0,0,0,
,-0.084,0.625,0.766,199.646,-43.763,30.883,0,0,0,
,-0.165,0.705,0.721,-282.898,-53.04,48.706,0,0,0,
,-0.187,0.721,0.702,-455.567,-35.096,34.24,0,0,0,
,-0.188,0.74,0.705,-601.807,-22.828,29.663,0,0,0,
,-0.192,0.768,0.685,-787.537,-1.831,18.493,0,0,0,
,-0.177,0.823,0.621,-956.788,13.488,19.226,0,0,0,
,-0.178,0.835,0.522,-1036.072,38.696,41.931,0,0,0,
,-0.159,0.817,0.488,-1122.498,63.293,76.416,0,0,0,
,-0.148,0.737,0.411,-1204.102,51.513,154.113,0,0,0,
,-0.225,0.573,0.315,-1162.232,83.007,-2.625,0,0,0,
,-0.238,0.523,0.255,-1061.341,132.324,-22.095,0,0,0,
,-0.136,0.724,0.338,-1024.537,166.504,-49.988,0,0,0,
,-0.019,0.986,0.28,-962.159,143.921,57.128,0,0,0,
,-0.013,1.146,0.32,-808.655,90.026,-19.104,0,0,0,
,-0.075,1.047,0.346,-592.286,105.957,-67.139,0,0,0,
,-0.081,0.924,0.396,-444.275,101.013,-54.444,0,0,0,
,-0.068,0.81,0.326,-605.347,147.216,-40.955,0,0,0,
,-0.02,0.687,0.18,-883.545,113.159,-39.917,0,0,0,
,0.002,0.738,-0.014,-1103.699,78.308,-12.635,0,0,0,
,0.012,0.906,-0.146,-1183.228,33.02,-15.87,0,0,0,
,-0.003,1.099,-0.152,-1091.309,25.878,-78.553,0,0,0,
,-0.042,1.128,-0.071,-879.212,91.125,-147.4,0,0,0,
,-0.046,0.999,0.037,-600.037,141.601,-184.327,0,0,0,
,-0.04,0.846,0.253,-367.31,120.117,-194.764,0,0,0,
,-0.007,0.7,0.115,-483.399,139.953,-133.484,0,0,0,
,0.04,0.674,-0.184,-647.095,131.042,-56.946,0,0,0,
,0.063,0.889,-0.342,-650.696,86.914,-128.724,0,0,0,
,0.063,1.061,-0.312,-405.762,7.751,-152.1,0,0,0,
,-0.081,1.108,-0.358,79.65,75.317,-179.383,0,0,0,
,-0.199,0.894,-0.396,552.246,255.859,-231.629,0,0,0,
,-0.148,0.819,-0.326,711.792,413.635,-88.929,0,0,0,
,-0.086,0.769,-0.004,283.264,455.749,-148.011,0,0,0,
,-0.029,0.679,0.169,-74.646,334.411,-189.576,0,0,0,
,-0.011,0.816,0.295,-408.631,264.831,-131.531,0,0,0,
,-0.027,0.936,0.027,-517.09,101.44,-42.298,0,0,0,
,0.054,1.301,0.037,-496.644,148.62,-41.871,0,0,0,
,0.273,1.438,0.097,-205.079,69.885,-16.175,0,0,0,
,0.255,1.373,0.043,-6.104,40.039,68.542,0,0,0,
,0.044,1.089,-0.138,117.859,-37.293,167.114,0,0,0,
,-0.053,0.967,-0.147,-44.556,13.916,129.211,0,0,0,
,-0.042,1.017,-0.09,-206.055,84.716,32.165,0,0,0,
,0.004,1.11,-0.053,-275.33,86.853,40.954,0,0,0,
,0.007,1.205,-0.087,-193.543,22.522,55.358,0,0,0,
,-0.057,1.192,-0.068,11.169,2.502,106.933,0,0,0,
,-0.081,1.179,-0.134,171.142,29.235,135.559,0,0,0,
,-0.071,1.15,-0.147,210.876,45.349,164.978,0,0,0,
,-0.093,1.11,-0.115,192.138,43.701,205.505,0,0,0,
,-0.124,1.077,-0.099,161.132,50.17,202.636,0,0,0,
,-0.148,1.043,-0.089,142.517,48.339,209.228,0,0,0,
,-0.165,1.042,-0.075,122.558,36.071,213.195,0,0,0,
,-0.185,1.082,-0.096,144.531,20.507,232.727,0,0,0,
,-0.231,1.062,-0.149,175.048,-6.226,270.813,0,0,0,
,-0.277,1.062,-0.094,235.717,10.864,262.695,0,0,0,
,-0.265,1.041,-0.078,313.476,43.151,256.103,0,0,0,
,-0.253,0.973,-0.071,407.959,39.917,252.624,0,0,0,
,-0.276,0.932,-0.055,492.859,35.156,236.145,0,0,0,
,-0.272,0.89,-0.023,554.931,66.955,201.721,0,0,0,
,-0.239,0.805,0.043,619.995,97.717,200.622,0,0,0,
,-0.205,0.734,0.093,630.188,83.862,146.85,0,0,0,
,-0.214,0.724,0.089,593.872,36.621,118.835,0,0,0,
,-0.238,0.747,0.041,459.106,16.967,82.702,0,0,0,
,-0.247,0.815,0.05,317.077,46.203,44.921,0,0,0,
,-0.188,0.884,0.061,190.918,82.641,20.202,0,0,0,
,-0.182,0.927,0.061,140.136,80.627,5.371,0,0,0,
,-0.201,0.887,0.1,169.677,71.411,7.934,0,0,0,
,-0.224,0.837,0.143,213.501,75.744,-14.466,0,0,0,
,-0.2,0.809,0.18,312.744,90.087,-38.514,0,0,0,
,-0.162,0.811,0.197,426.696,85.937,-59.937,0,0,0,
,-0.144,0.862,0.191,536.865,75.317,-80.384,0,0,0,
,-0.145,0.861,0.17,516.601,87.219,-85.083,0,0,0,
,-0.137,0.857,0.201,425.109,97.778,-99.549,0,0,0,
,-0.113,0.872,0.251,298.095,93.872,-93.811,0,0,0,
,-0.104,0.895,0.305,222.839,51.635,-87.464,0,0,0,
,-0.135,0.877,0.297,223.51,2.685,-69.642,0,0,0,
,-0.163,0.84,0.259,257.324,-13.733,-66.468,0,0,0,
,-0.155,0.853,0.244,277.526,-5.249,-73.731,0,0,0,
,-0.142,0.91,0.235,302.551,-4.944,-80.384,0,0,0,
,-0.157,0.936,0.273,378.906,7.873,-76.539,0,0,0,
,-0.159,0.917,0.286,466.552,32.287,-81.543,0,0,0,
,-0.154,0.905,0.333,518.554,46.142,-74.83,0,0,0,
,-0.152,0.887,0.355,536.01,52.124,-75.501,0,0,0,
,-0.156,0.898,0.397,505.432,65.979,-73.182,0,0,0,
,-0.146,0.879,0.414,457.946,68.176,-90.088,0,0,0,
,-0.143,0.858,0.436,482.605,80.81,-76.783,0,0,0,
,-0.133,0.862,0.451,506.286,87.341,-83.68,0,0,0,
,-0.117,0.87,0.47,517.212,94.421,-75.318,0,0,0,
,-0.093,0.877,0.488,513.977,97.717,-60.914,0,0,0,
,-0.119,0.865,0.518,551.452,90.698,-45.96,0,0,0,
,-0.139,0.824,0.516,626.403,102.356,-39.673,0,0,0,
,-0.143,0.799,0.536,685.791,112.793,-46.204,0,0,0,
,-0.124,0.767,0.573,706.665,125.427,-40.833,0,0,0,
,-0.099,0.753,0.6,651.916,125.366,-33.326,0,0,0,
,-0.098,0.739,0.635,599.426,119.506,-29.175,0,0,0,
,-0.106,0.731,0.667,521.667,105.774,-17.762,0,0,0,
,-0.111,0.701,0.685,448.12,97.534,-13.855,0,0,0,
,-0.126,0.699,0.686,407.409,91.613,-11.17,0,0,0,
,-0.126,0.698,0.732,409.118,98.816,-6.165,0,0,0,
,-0.105,0.706,0.703,431.701,97.9,-8.789,0,0,0,
,-0.117,0.693,0.712,490.478,85.266,-1.709,0,0,0,
,-0.017,0.961,1.026,444.458,64.025,24.658,0,0,0,
,-0.099,0.621,0.736,546.02,50.476,-2.869,0,0,0,
,-0.161,0.544,0.776,489.685,64.209,26.123,0,0,0,
,-0.061,0.633,0.774,417.114,65.185,4.882,0,0,0,
,-0.08,0.649,0.77,478.393,55.236,27.16,0,0,0,
,-0.128,0.611,0.792,556.762,75.195,30.7,0,0,0,
,-0.119,0.581,0.842,590.026,76.965,35.888,0,0,0,
,-0.083,0.594,0.813,553.955,70.556,38.879,0,0,0,
,-0.101,0.537,0.827,597.473,55.481,36.193,0,0,0,
,-0.125,0.539,0.83,706.665,72.082,67.81,0,0,0,
,-0.105,0.505,0.849,758.728,86.547,53.283,0,0,0,
,-0.096,0.418,0.849,758.178,91.552,40.832,0,0,0,
,-0.104,0.387,0.867,751.464,94.177,64.575,0,0,0,
,-0.098,0.414,0.902,757.385,91.125,62.377,0,0,0,
,-0.088,0.402,0.918,761.901,94.36,71.533,0,0,0,
,-0.11,0.335,0.925,753.173,105.835,69.03,0,0,0,
,-0.093,0.3,0.906,695.373,112.365,55.481,0,0,0,
,-0.076,0.264,0.952,662.475,108.337,63.171,0,0,0,
,-0.088,0.215,0.96,606.506,101.623,58.898,0,0,0,
,-0.096,0.192,0.976,610.839,97.656,56.945,0,0,0,
,-0.099,0.197,0.986,620.422,106.14,57.495,0,0,0,
,-0.08,0.183,0.997,597.9,107.177,52.429,0,0,0,
,-0.07,0.165,0.992,525.756,94.726,47.973,0,0,0,
,-0.079,0.134,0.98,504.821,89.05,52.856,0,0,0,
,-0.082,0.123,0.987,502.685,93.872,60.302,0,0,0,
,-0.068,0.117,1.018,596.191,89.172,64.025,0,0,0,
,-0.071,0.084,1.002,666.992,100.891,54.26,0,0,0,
,-0.057,0.005,0.999,674.438,98.938,35.461,0,0,0,
,-0.057,-0.002,1.006,673.767,97.534,54.321,0,0,0,
,-0.075,-0.036,0.984,634.338,104.431,54.687,0,0,0,
,-0.083,-0.073,0.997,641.967,112.487,49.743,0,0,0,
,-0.052,-0.089,1.015,635.498,115.661,35.644,0,0,0,
,-0.032,-0.108,1.001,630.31,100.158,26.062,0,0,0,
,-0.037,-0.134,0.995,619.751,100.586,46.936,0,0,0,
,-0.03,-0.143,0.999,611.999,92.712,49.438,0,0,0,
,-0.024,-0.126,1.001,606.079,92.163,51.086,0,0,0,
,-0.022,-0.178,0.974,579.528,95.398,42.541,0,0,0,
,-0.019,-0.208,0.977,538.269,95.214,46.875,0,0,0,
,-0.016,-0.228,0.964,497.314,99.365,53.222,0,0,0,
,-0.025,-0.249,0.926,504.76,105.468,64.148,0,0,0,
,-0.025,-0.268,0.933,557.495,123.108,69.946,0,0,0,
,0.007,-0.289,0.937,573.73,133.85,54.138,0,0,0,
,0.004,-0.323,0.897,560.18,140.014,20.874,0,0,0,
,-0.008,-0.383,0.862,580.017,169.555,55.053,0,0,0,
,-0.011,-0.405,0.858,562.378,191.528,47.485,0,0,0,
,-0.028,-0.475,0.85,489.074,220.092,49.56,0,0,0,
,-0.057,-0.573,0.775,386.474,237.548,15.991,0,0,0,
,-0.057,-0.609,0.806,325.866,263.855,23.742,0,0,0,
,0.038,-0.518,0.987,385.437,265.38,13.305,0,0,0,
,0.131,-0.45,1.009,448.242,246.948,3.356,0,0,0,
,0.216,-0.425,1.003,463.44,223.083,23.681,0,0,0,
,0.203,-0.457,0.995,376.953,186.645,38.208,0,0,0,
,0.183,-0.479,0.964,279.846,143.859,41.565,0,0,0,
,0.156,-0.508,0.96,254.638,115.844,49.377,0,0,0,
,0.141,-0.557,0.946,290.527,94.299,47.607,0,0,0,
,0.177,-0.545,0.928,285.156,69.641,35.095,0,0,0,
,0.179,-0.513,0.884,227.356,41.32,16.235,0,0,0,
,0.126,-0.511,0.754,168.029,36.071,20.996,0,0,0,
,0.13,-0.527,0.751,157.348,53.894,23.132,0,0,0,
,0.163,-0.538,0.83,122.619,52.002,33.447,0,0,0,
,0.163,-0.506,0.807,117.309,26.489,36.621,0,0,0,
,0.194,-0.516,0.774,141.601,26.184,41.076,0,0,0,
,0.19,-0.547,0.755,106.506,13.794,30.029,0,0,0,
,0.174,-0.593,0.728,28.442,0.305,3.845,0,0,0,
,0.165,-0.579,0.753,-8.362,-3.724,-17.212,0,0,0,
,0.158,-0.617,0.765,-11.048,0.427,-31.189,0,0,0,
,0.176,-0.641,0.779,-47.364,-5.433,-66.163,0,0,0,
,0.198,-0.625,0.787,-102.723,-30.884,-102.173,0,0,0,
,0.205,-0.603,0.767,-165.589,-47.242,-134.339,0,0,0,
,0.168,-0.631,0.759,-255.066,-56.031,-157.288,0,0,0,
,0.176,-0.587,0.794,-360.474,-62.134,-169.739,0,0,0,
,0.187,-0.589,0.751,-547.486,-69.581,-178.04,0,0,0,
,0.143,-0.544,0.717,-817.017,-92.041,-174.927,0,0,0,
,0.153,-0.376,0.746,-987.427,-73.121,-172.486,0,0,0,
,0.143,-0.317,0.851,-1059.449,-56.824,-167.298,0,0,0,
,0.159,-0.283,0.941,-1133.912,-82.825,-162.354,0,0,0,
,0.143,-0.224,0.983,-1191.651,-142.762,-145.508,0,0,0,
,0.107,-0.165,1.016,-1205.567,-166.687,-97.168,0,0,0,
,0.12,-0.189,1.027,-1193.787,-186.707,-12.269,0,0,0,
,-0.016,-0.189,1.025,-1041.687,-175.904,-26.001,0,0,0,
,-0.004,-0.176,1.035,-961.426,-194.214,-97.229,0,0,0,
,0.027,-0.12,1.022,-1039.002,-187.256,-41.26,0,0,0,
,-0.017,-0.068,1.03,-1048.279,-212.647,-74.585,0,0,0,
,-0.012,-0.002,1.034,-1048.218,-206.91,-72.998,0,0,0,
,-0.023,0.066,1.003,-1021.851,-195.008,-54.566,0,0,0,
,0.03,0.071,1.021,-1027.1,-161.499,8.911,0,0,0,
,-0.012,0.135,1.02,-997.803,-160.95,12.207,0,0,0,
,-0.041,0.152,0.998,-989.319,-146.973,31.494,0,0,0,
,-0.029,0.178,0.999,-1050.11,-140.931,19.287,0,0,0,
,-0.015,0.237,1.019,-1163.758,-147.522,60.485,0,0,0,
,-0.016,0.32,0.888,-1297.364,-152.161,48.156,0,0,0,
,-0.092,0.389,0.945,-1353.455,-144.959,76.294,0,0,0,
,-0.133,0.386,0.941,-1178.65,-106.751,47.729,0,0,0,
,-0.1,0.41,0.98,-1038.27,-71.106,12.573,0,0,0,
,-0.047,0.47,0.938,-932.679,-72.144,30.212,0,0,0,
,-0.107,0.498,0.849,-815.003,-67.383,52.49,0,0,0,
,-0.114,0.5,0.817,-845.643,-21.607,37.841,0,0,0,
,-0.095,0.544,0.845,-870.789,-10.987,40.954,0,0,0,
,-0.121,0.593,0.872,-884.217,3.051,27.832,0,0,0,
,-0.1,0.633,0.862,-820.069,10.376,16.906,0,0,0,
,-0.111,0.667,0.83,-763.794,8.483,10.498,0,0,0,
,-0.119,0.647,0.752,-717.041,-3.907,6.774,0,0,0,
,-0.153,0.661,0.719,-672.669,-9.522,-4.883,0,0,0,
,-0.132,0.661,0.703,-679.993,15.686,-18.494,0,0,0,
,-0.103,0.651,0.645,-743.226,18.066,-5.188,0,0,0,
,-0.104,0.701,0.63,-741.639,-0.428,-3.724,0,0,0,
,-0.098,0.769,0.681,-689.637,6.408,-11.536,0,0,0,
,-0.055,0.796,0.671,-619.202,14.587,-19.227,0,0,0,
,-0.08,0.813,0.577,-563.538,-9.217,6.286,0,0,0,
,-0.119,0.786,0.469,-539.856,-23.255,-6.165,0,0,0,
,-0.147,0.795,0.501,-448.304,-17.518,-16.236,0,0,0,
,-0.124,0.786,0.483,-377.686,12.756,-41.321,0,0,0,
,-0.062,0.772,0.484,-422.913,39.062,-25.513,0,0,0,
,-0.04,0.817,0.479,-449.097,0.122,-17.762,0,0,0,
,-0.078,0.864,0.5,-391.968,-9.583,-20.508,0,0,0,
,-0.075,0.864,0.465,-276.856,1.831,-19.165,0,0,0,
,-0.061,0.855,0.443,-74.524,-14.649,-1.282,0,0,0,
,-0.048,0.83,0.446,-109.864,-2.564,2.014,0,0,0,
,-0.066,0.816,0.406,-154.725,-24.048,7.08,0,0,0,
,-0.094,0.842,0.43,-183.35,-20.02,1.525,0,0,0,
,-0.07,0.903,0.412,-155.884,5.371,-12.513,0,0,0,
,-0.031,0.925,0.367,-123.902,30.09,-21.729,0,0,0,
,-0.056,0.913,0.349,-123.78,46.325,-3.174,0,0,0,
,-0.093,0.896,0.389,-198.487,41.748,-6.592,0,0,0,
,-0.149,0.896,0.444,-140.931,44.799,-10.071,0,0,0,
,-0.146,0.907,0.529,-68.604,78.369,-28.931,0,0,0,
,-0.089,0.903,0.507,-20.935,67.382,-33.509,0,0,0,
,-0.101,0.889,0.495,2.258,18.798,-12.207,0,0,0,
,-0.155,0.866,0.464,-24.842,-0.855,-10.804,0,0,0,
,-0.171,0.853,0.391,-47.364,-8.484,-38.819,0,0,0,
,-0.155,0.895,0.425,-35.035,10.742,-72.205,0,0,0,
,-0.074,0.979,0.326,-52.735,36.865,-72.205,0,0,0,
,-0.068,1.019,0.319,24.902,58.288,-26.123,0,0,0,
,-0.005,1.069,0.377,227.356,94.177,13.61,0,0,0,
,0.007,0.96,0.469,512.512,61.34,79.223,0,0,0,
,-0.118,0.79,0.523,710.571,17.517,89.904,0,0,0,
,-0.123,0.699,0.52,590.942,32.287,21.789,0,0,0,
,-0.075,0.734,0.501,362.915,30.639,-14.527,0,0,0,
,-0.141,0.81,0.504,148.132,23.986,-42.115,0,0,0,
,-0.154,0.822,0.493,37.78,26.123,-76.172,0,0,0,
,-0.103,0.78,0.515,-3.479,25.39,-87.891,0,0,0,
,-0.049,0.75,0.516,-44.8,-2.991,-76.905,0,0,0,
,0.029,0.749,0.51,-120.85,-19.349,-80.018,0,0,0,
,0.064,0.77,0.483,-150.818,-65.613,-59.266,0,0,0,
,0.044,0.765,0.396,-274.72,-98.145,-10.437,0,0,0,
,0.026,0.779,0.411,-450.684,-139.222,14.282,0,0,0,
,0,0.777,0.436,-636.536,-142.701,39.001,0,0,0,
,0.004,0.803,0.423,-833.252,-177.735,58.288,0,0,0,
,-0.022,0.843,0.423,-894.227,-228.638,78.43,0,0,0,
,-0.043,0.829,0.335,-945.679,-256.653,103.027,0,0,0,
,-0.052,0.841,0.319,-939.27,-273.987,175.842,0,0,0,
,-0.078,0.848,0.231,-1039.734,-290.772,137.085,0,0,0,
,-0.094,0.931,0.235,-1004.578,-286.805,134.826,0,0,0,
,-0.086,0.942,0.197,-934.082,-276.978,126.098,0,0,0,
,-0.073,0.933,0.181,-835.389,-293.519,125.305,0,0,0,
,-0.11,0.833,0.037,-698.792,-321.778,123.779,0,0,0,
,-0.182,0.856,0.094,-562.134,-331.91,51.757,0,0,0,
,-0.149,0.867,0.034,-428.101,-274.231,-10.254,0,0,0,
,-0.127,0.931,0.046,-289.551,-276.917,-30.823,0,0,0,
,-0.133,0.915,0.013,-225.586,-274.598,-57.251,0,0,0,
,-0.141,0.891,-0.021,-192.444,-285.34,-72.144,0,0,0,
,-0.191,0.857,-0.067,-193.726,-293.763,-91.37,0,0,0,
,-0.233,0.881,-0.041,-148.987,-264.039,-153.565,0,0,0,
,-0.226,0.936,-0.021,-121.399,-203.431,-196.106,0,0,0,
,-0.177,0.951,-0.041,-117.249,-179.932,-215.577,0,0,0,
,-0.172,0.951,-0.062,-155.213,-197.022,-205.262,0,0,0,
,-0.189,0.968,-0.11,-161.255,-208.68,-193.36,0,0,0,
,-0.213,1.052,-0.088,-48.706,-199.891,-213.501,0,0,0,
,-0.183,1.084,-0.084,92.285,-135.682,-219.544,0,0,0,
,-0.133,0.979,-0.075,109.802,-92.347,-199.341,0,0,0,
,-0.084,0.967,-0.044,31.311,-108.826,-188.477,0,0,0,
,-0.099,1.01,-0.084,-5.616,-151.246,-154.602,0,0,0,
,-0.153,1.052,-0.039,34.423,-147.644,-144.41,0,0,0,
,-0.137,1.047,-0.041,54.138,-103.333,-137.94,0,0,0,
,-0.096,1.025,-0.034,16.845,-92.713,-126.648,0,0,0,
,-0.086,1.029,-0.047,-34.363,-105.286,-102.112,0,0,0,
,-0.105,1.051,-0.011,-37.903,-101.563,-87.769,0,0,0,
,-0.102,1.06,-0.03,4.577,-87.037,-84.107,0,0,0,
,-0.109,1.031,-0.05,55.358,-81.543,-80.994,0,0,0,
,-0.11,1.026,-0.048,70.434,-70.557,-72.998,0,0,0,
,-0.083,1.033,0.002,59.448,-41.443,-68.726,0,0,0,
,-0.046,1.036,-0.036,51.086,-52.796,-54.2,0,0,0,
,-0.082,1.014,-0.015,53.466,-71.9,-40.284,0,0,0,
,-0.089,1.004,-0.018,46.264,-49.256,-49.439,0,0,0,
,-0.091,0.985,-0.055,36.621,-55.848,-52.613,0,0,0,
,-0.106,1.001,-0.014,13.732,-48.218,-60.608,0,0,0,
,-0.096,0.987,-0.004,31.189,-32.227,-64.942,0,0,0,
,-0.088,0.966,0.02,38.452,-25.33,-72.327,0,0,0,
,-0.073,0.944,0.003,9.155,-18.25,-73.67,0,0,0,
,-0.059,0.953,-0.052,-28.748,-23.072,-68.299,0,0,0,
,-0.079,0.97,-0.049,-36.988,-28.687,-65.003,0,0,0,
,-0.068,0.989,-0.045,-16.358,-8.545,-66.285,0,0,0,
,-0.06,0.972,-0.061,17.273,-0.611,-60.364,0,0,0,
,-0.063,0.949,-0.044,-1.526,-2.442,-53.589,0,0,0,
,-0.061,0.972,-0.046,-7.935,-5.494,-51.087,0,0,0,
,-0.078,0.954,-0.066,11.962,-9.095,-68.36,0,0,0,
,-0.07,0.939,-0.04,-27.649,22.766,-53.101,0,0,0,
,-0.05,0.927,-0.049,-37.415,24.902,-56.763,0,0,0,
,-0.042,0.917,-0.038,-51.331,21.423,-54.078,0,0,0,
,-0.046,0.957,-0.039,-93.14,11.474,-48.401,0,0,0,
,-0.044,1,-0.055,-102.051,17.761,-57.129,0,0,0,
,-0.044,0.989,-0.087,-102.906,29.541,-43.824,0,0,0,
,-0.051,0.958,-0.035,-96.985,35.766,-22.706,0,0,0,
,-0.048,0.939,-0.04,-87.647,36.499,-17.273,0,0,0,
,-0.05,0.954,-0.03,-50.721,20.568,-33.448,0,0,0,
,-0.047,0.981,-0.183,-57.129,-4.029,-14.527,0,0,0,
,-0.101,1.015,-0.059,-44.678,19.653,3.662,0,0,0,
,-0.061,1.077,-0.054,-35.096,62.988,-12.207,0,0,0,
,-0.041,1.09,-0.111,109.436,32.226,26.916,0,0,0,
,-0.062,1.052,-0.06,288.574,24.597,10.07,0,0,0,
,-0.04,1.064,-0.06,382.629,41.259,11.779,0,0,0,
,0.015,1.115,-0.094,453.613,31.921,48.034,0,0,0,
,0.021,1.171,-0.152,497.009,13.855,94.299,0,0,0,
,0.034,1.197,-0.012,556.884,13.488,145.385,0,0,0,
,0.01,1.032,0.115,613.403,59.265,143.31,0,0,0,
,-0.032,0.789,0.083,372.009,39.001,97.534,0,0,0,
,-0.062,0.783,0.233,180.42,3.418,113.098,0,0,0,
,0.003,0.799,0.148,203.43,-32.288,103.698,0,0,0,
,0.044,1.056,0.196,422.851,-126.282,127.319,0,0,0,
,-0.013,0.971,0.036,655.395,-130.249,117.065,0,0,0,
,0,0.931,0.242,786.621,-118.775,83.068,0,0,0,
,0.022,0.767,0.343,807.617,-136.17,42.236,0,0,0,
,-0.011,0.618,0.286,645.63,-176.514,70.373,0,0,0,
,-0.01,0.699,0.137,511.718,-246.582,59.387,0,0,0,
,-0.024,0.861,0.135,603.698,-245.484,46.508,0,0,0,
,-0.024,0.808,0.215,823.059,-191.224,-52.308,0,0,0,
,-0.017,0.739,0.267,850.036,-205.445,-72.083,0,0,0,
,-0.057,0.869,0.316,922.607,-219.422,-42.359,0,0,0,
,-0.086,0.995,0.274,1198.913,-201.844,-55.787,0,0,0,
,-0.14,1,0.274,1589.416,-168.396,-62.623,0,0,0,
,-0.248,0.912,0.231,1869.201,-95.826,-64.881,0,0,0,
,-0.296,0.81,0.386,1892.883,20.874,-48.584,0,0,0,
,-0.269,0.741,0.514,1865.417,79.162,-8.057,0,0,0,
,-0.211,0.722,0.656,1892.212,97.473,29.48,0,0,0,
,-0.245,0.616,0.756,1851.928,94.116,34.851,0,0,0,
,-0.294,0.516,0.857,1684.814,90.026,41.626,0,0,0,
,-0.289,0.432,0.894,1278.564,113.098,-8.973,0,0,0,
,-0.273,0.396,0.953,819.213,58.227,-27.039,0,0,0,
,-0.22,0.746,1.358,333.984,-24.659,78.796,0,0,0,
,-0.248,0.798,1.007,-10.56,-143.86,59.082,0,0,0,
,-0.409,0.389,0.94,250.671,-112.244,64.453,0,0,0,
,-0.188,0.335,0.908,208.679,-63.599,-140.625,0,0,0,
,-0.045,0.179,0.855,-192.322,-86.609,-378.907,0,0,0,
,-0.016,0.279,0.783,-432.068,-101.319,-37.781,0,0,0,
,-0.069,0.47,0.803,-450.013,-118.531,-118.348,0,0,0,
,-0.108,0.635,0.839,-252.076,-94.422,-48.279,0,0,0,
,-0.156,0.712,0.892,41.076,-30.823,27.587,0,0,0,
,-0.149,0.521,0.863,111.328,13.977,3.234,0,0,0,
,-0.1,0.388,0.858,117.553,53.772,18.005,0,0,0,
,-0.047,0.396,0.924,-50.11,113.403,-156.983,0,0,0,
,-0.005,0.47,0.852,-40.955,89.416,-200.379,0,0,0,
,-0.173,0.397,0.938,-50.904,11.23,-50.782,0,0,0,
,-0.253,0.459,0.911,-18.738,62.255,62.927,0,0,0,
,-0.139,0.491,0.864,-44.739,59.509,-21.302,0,0,0,
,-0.122,0.511,0.839,-60.181,90.454,10.559,0,0,0,
,-0.139,0.549,0.843,-16.419,88.317,32.959,0,0,0,
,-0.124,0.536,0.838,44.25,86.608,26.916,0,0,0,
,-0.154,0.424,0.877,4.272,74.523,33.081,0,0,0,
,-0.137,0.503,0.991,-151.001,37.597,-10.804,0,0,0,
,-0.198,0.4,0.825,-276.001,52.185,-65.125,0,0,0,
,-0.127,0.568,0.844,-247.01,95.642,-161.316,0,0,0,
,-0.05,0.624,0.719,-205.872,49.926,-227.967,0,0,0,
,-0.044,0.67,0.815,40.344,49.56,-7.752,0,0,0,
,-0.075,0.582,0.82,164.917,36.743,56.884,0,0,0,
,-0.146,0.551,0.866,345.459,70.007,40.039,0,0,0,
,-0.125,0.357,0.942,222.351,75.378,-10.621,0,0,0,
,-0.11,0.335,0.916,79.345,61.096,3.112,0,0,0,
,-0.016,0.399,0.755,-16.968,67.077,24.658,0,0,0,
,-0.056,0.46,0.817,-136.353,59.753,41.198,0,0,0,
,-0.148,0.54,0.905,-82.947,35.217,19.226,0,0,0,
,-0.091,0.553,0.831,-88.623,61.889,5.31,0,0,0,
,-0.059,0.535,0.793,-73.121,49.255,0.305,0,0,0,
,-0.083,0.507,0.816,-33.814,37.292,-13.245,0,0,0,
,-0.062,0.499,0.788,-3.907,38.635,-26.246,0,0,0,
,-0.061,0.522,0.807,57.312,39.978,-22.889,0,0,0,
,-0.069,0.481,0.89,49.194,-17.09,-113.77,0,0,0,
,-0.089,0.535,0.851,41.381,-24.964,-31.495,0,0,0,
,-0.075,0.502,0.845,39.489,-57.19,-44.861,0,0,0,
,-0.086,0.508,0.828,27.526,-76.294,-84.229,0,0,0,
,-0.078,0.55,0.806,44.372,-89.478,-141.724,0,0,0,
,-0.072,0.533,0.805,-93.018,-90.516,-86.976,0,0,0,
,-0.073,0.559,0.819,57.8,-85.328,-77.82,0,0,0,
,-0.116,0.534,0.82,1.403,-98.999,-66.407,0,0,0,
,-0.136,0.489,0.907,86.059,-75.989,-33.143,0,0,0,
,-0.129,0.48,0.887,88.378,-58.96,-19.837,0,0,0,
,-0.112,0.455,0.883,60.73,-29.114,2.502,0,0,0,
,-0.103,0.457,0.873,0.549,-17.579,8.239,0,0,0,
,-0.111,0.483,0.854,-53.589,-17.579,4.577,0,0,0,
,-0.123,0.52,0.84,-66.529,-4.944,9.277,0,0,0,
,-0.12,0.537,0.831,-49.317,16.906,10.376,0,0,0,
,-0.107,0.528,0.837,-13.306,27.404,19.958,0,0,0,
,-0.104,0.495,0.844,-2.442,23.01,23.62,0,0,0,
,-0.109,0.497,0.839,-16.846,16.479,18.92,0,0,0,
,-0.111,0.515,0.833,-22.217,9.704,10.253,0,0,0,
,-0.099,0.527,0.827,8.85,7.69,-2.93,0,0,0,
,-0.095,0.528,0.837,32.959,-1.831,-8.118,0,0,0,
,-0.091,0.53,0.831,59.57,-15.992,11.718,0,0,0,
,-0.109,0.514,0.84,68.176,-33.753,34.729,0,0,0,
,-0.138,0.491,0.863,52.002,-26.429,43.579,0,0,0,
,-0.136,0.481,0.858,17.517,-11.353,33.081,0,0,0,
,-0.134,0.499,0.861,-4.273,-2.442,16.479,0,0,0,
,-0.125,0.507,0.846,-5.188,3.845,5.188,0,0,0,
,-0.117,0.51,0.835,2.38,0.427,-3.113,0,0,0,
,-0.117,0.511,0.835,18.981,-8.973,-2.991,0,0,0,
,-0.118,0.506,0.838,19.775,-14.344,-3.785,0,0,0,
,-0.122,0.512,0.846,23.437,-17.701,-6.165,0,0,0,
,-0.135,0.502,0.857,25.451,-10.071,-4.761,0,0,0,
,-0.143,0.504,0.84,26.306,-0.794,-0.977,0,0,0,
,-0.147,0.498,0.852,35.095,7.446,-8.912,0,0,0,
,-0.137,0.482,0.838,25.451,20.996,-19.288,0,0,0,
,-0.121,0.502,0.85,23.01,19.104,-31.495,0,0,0,
,-0.116,0.502,0.853,28.076,11.108,-27.71,0,0,0,
,-0.123,0.499,0.858,26.794,9.826,-16.236,0,0,0,
,-0.131,0.488,0.856,17.578,11.169,-3.602,0,0,0,
,-0.131,0.473,0.843,-8.728,16.296,-3.418,0,0,0,
,-0.128,0.49,0.851,-23.255,13.61,-11.414,0,0,0,
,-0.123,0.501,0.834,-25.818,5.249,-18.982,0,0,0,
,-0.123,0.522,0.841,-4.334,-1.038,-20.935,0,0,0,
,-0.138,0.518,0.874,22.338,0.671,-15.198,0,0,0,
,-0.137,0.494,0.846,41.87,13,-19.715,0,0,0,
,-0.123,0.478,0.853,28.869,16.601,-26.368,0,0,0,
,-0.119,0.485,0.852,7.629,11.962,-28.87,0,0,0,
,-0.12,0.489,0.849,-2.381,-0.245,-22.4,0,0,0,
,-0.133,0.492,0.848,-12.818,0.183,-14.161,0,0,0,
,-0.136,0.501,0.85,-15.198,4.882,-14.161,0,0,0,
,-0.133,0.49,0.838,-13.672,7.263,-17.518,0,0,0,
,-0.129,0.502,0.842,0.427,7.995,-32.044,0,0,0,
,-0.123,0.5,0.84,12.39,6.774,-31.25,0,0,0,
,-0.119,0.5,0.849,21.484,9.155,-39.063,0,0,0,
,-0.133,0.423,0.787,-38.208,85.205,-134.705,0,0,0,
,-0.156,0.492,0.868,-19.776,-12.879,9.948,0,0,0,
,-0.153,0.495,0.855,-3.54,7.263,-32.349,0,0,0,
,-0.111,0.506,0.835,-6.653,18.249,-27.344,0,0,0,
,-0.12,0.511,0.846,11.901,-4.761,-23.011,0,0,0,
,-0.141,0.493,0.845,20.568,2.746,-17.334,0,0,0,
,-0.131,0.486,0.85,15.502,16.906,-28.87,0,0,0,
,-0.115,0.495,0.848,1.586,18.005,-28.077,0,0,0,
,-0.118,0.493,0.846,0.549,7.324,-23.377,0,0,0,
,-0.121,0.506,0.846,5.249,5.737,-19.165,0,0,0,
,-0.13,0.501,0.845,9.521,5.065,-11.475,0,0,0,
,-0.132,0.496,0.851,7.08,10.62,-30.396,0,0,0,
,-0.126,0.485,0.847,-4.151,15.686,-21.119,0,0,0,
,-0.115,0.493,0.851,-12.269,13.977,-24.537,0,0,0,
,-0.113,0.496,0.842,-14.832,2.258,-21.119,0,0,0,
,-0.122,0.511,0.814,-11.048,-6.897,-15.076,0,0,0,
,-0.133,0.514,0.836,-1.465,-2.93,-15.87,0,0,0,
,-0.127,0.513,0.845,14.099,0.671,-24.292,0,0,0,
,-0.124,0.498,0.845,12.756,2.563,-23.987,0,0,0,
,-0.124,0.498,0.846,13.732,-2.198,-21.973,0,0,0,
,-0.128,0.503,0.848,13.61,-1.893,-17.334,0,0,0,
,-0.135,0.485,0.85,13.61,3.479,-15.198,0,0,0,
,-0.126,0.488,0.853,2.014,8.422,-21.302,0,0,0,
,-0.12,0.493,0.845,-3.174,0.854,-22.644,0,0,0,
,-0.131,0.506,0.841,0.61,-0.855,-20.874,0,0,0,
,-0.136,0.502,0.841,6.713,2.99,-19.227,0,0,0,
,-0.132,0.495,0.842,6.897,4.516,-23.377,0,0,0,
,-0.127,0.499,0.843,0.427,2.624,-23.194,0,0,0,
,-0.129,0.501,0.843,4.272,-4.09,-22.034,0,0,0,
,-0.127,0.494,0.845,9.643,-4.944,-22.583,0,0,0,
,-0.124,0.503,0.839,16.845,-10.01,-24.781,0,0,0,
,-0.128,0.497,0.843,22.766,-14.039,-19.41,0,0,0,
,-0.129,0.494,0.846,18.066,-16.663,-18.25,0,0,0,
,-0.131,0.489,0.847,6.042,-19.227,-18.25,0,0,0,
,-0.131,0.497,0.845,-3.357,-21.79,-15.931,0,0,0,
,-0.144,0.513,0.846,-2.137,-22.95,-21.729,0,0,0,
,-0.155,0.501,0.838,17.822,-7.508,-36.988,0,0,0,
,-0.149,0.509,0.847,18.92,6.774,-38.025,0,0,0,
,-0.133,0.493,0.853,29.052,15.319,-33.631,0,0,0,
,-0.122,0.478,0.852,13.366,13.366,-24.598,0,0,0,
,-0.126,0.485,0.852,-1.893,-0.061,-20.508,0,0,0,
,-0.135,0.488,0.845,-20.142,-3.602,-11.414,0,0,0,
,-0.144,0.499,0.847,-22.767,5.981,-17.273,0,0,0,
,-0.133,0.504,0.847,-30.274,22.583,-33.753,0,0,0,
,-0.126,0.46,0.818,-67.2,61.584,-91.004,0,0,0,
,-0.139,0.514,0.845,-55.664,-7.996,-21.546,0,0,0,
,-0.149,0.531,0.838,-19.898,-7.63,-27.344,0,0,0,
,-0.142,0.52,0.834,8.178,10.559,-25.025,0,0,0,
,-0.131,0.504,0.838,22.094,11.84,-31.25,0,0,0,
,-0.126,0.488,0.847,11.352,6.836,-30.335,0,0,0,
,-0.126,0.476,0.85,-16.175,0.183,-27.466,0,0,0,
,-0.121,0.495,0.832,-35.706,-14.405,-23.804,0,0,0,
,-0.126,0.531,0.828,-26.612,-30.823,-14.771,0,0,0,
,-0.156,0.547,0.823,14.282,-31.8,-13.977,0,0,0,
,-0.154,0.531,0.83,58.593,-7.691,-17.701,0,0,0,
,-0.129,0.493,0.849,78.674,-3.418,-17.579,0,0,0,
,-0.128,0.454,0.852,41.626,-20.447,-15.931,0,0,0,
,-0.138,0.477,0.857,-15.198,-39.124,-26.734,0,0,0,
,-0.143,0.519,0.827,-24.964,-41.443,-26.062,0,0,0,
,-0.154,0.553,0.833,21.423,-24.048,-12.391,0,0,0,
,-0.153,0.517,0.842,60.363,-6.287,-5.433,0,0,0,
,-0.156,0.474,0.853,55.908,3.967,-9.522,0,0,0,
,-0.149,0.478,0.853,20.813,3.906,-23.621,0,0,0,
,-0.148,0.493,0.851,2.685,6.286,-18.25,0,0,0,
,-0.151,0.496,0.845,-5.921,17.273,-12.757,0,0,0,
,-0.147,0.492,0.843,-11.475,25.817,-19.593,0,0,0,
,-0.14,0.492,0.842,-22.461,37.109,-32.532,0,0,0,
,-0.146,0.494,0.843,-19.41,24.963,-27.649,0,0,0,
,-0.147,0.513,0.842,-13.367,14.099,-13.367,0,0,0,
,-0.143,0.5,0.832,-6.104,13.122,-15.381,0,0,0,
,-0.141,0.502,0.841,-7.264,6.469,-16.907,0,0,0,
,-0.144,0.503,0.833,-6.47,-4.395,-20.02,0,0,0,
,-0.147,0.51,0.841,0.305,-3.785,-19.471,0,0,0,
,-0.143,0.512,0.836,6.958,0.305,-19.959,0,0,0,
,-0.146,0.504,0.846,14.77,1.77,-17.212,0,0,0,
,-0.143,0.499,0.843,11.047,1.098,-17.64,0,0,0,
,-0.148,0.499,0.842,7.08,-0.672,-15.442,0,0,0,
,-0.155,0.498,0.841,4.577,1.586,-14.588,0,0,0,
,-0.153,0.502,0.836,1.648,3.173,-16.602,0,0,0,
,-0.149,0.505,0.844,0.122,11.108,-15.992,0,0,0,
,-0.142,0.498,0.84,-1.709,6.958,-12.696,0,0,0,
,-0.149,0.501,0.844,-8.973,5.859,-9.339,0,0,0,
,-0.149,0.503,0.842,-12.452,5.676,-13.001,0,0,0,
,-0.149,0.511,0.835,-6.775,7.873,-15.931,0,0,0,
,-0.153,0.509,0.831,4.211,12.39,-17.09,0,0,0,
,-0.146,0.531,0.84,11.108,12.451,-20.264,0,0,0,
,-0.145,0.5,0.839,6.042,7.08,-18.86,0,0,0,
,-0.146,0.503,0.839,1.953,-1.038,-17.518,0,0,0,
,-0.152,0.503,0.839,21.362,5.127,-19.715,0,0,0,
,-0.15,0.496,0.847,16.235,4.76,-20.447,0,0,0,
,-0.147,0.49,0.842,0.671,3.662,-18.311,0,0,0,
,-0.151,0.5,0.845,-9.461,3.845,-16.236,0,0,0,
,-0.155,0.501,0.83,-10.376,2.197,-16.053,0,0,0,
,-0.153,0.514,0.841,-1.526,6.469,-15.992,0,0,0,
,-0.149,0.514,0.832,7.751,3.356,-20.508,0,0,0,
,-0.15,0.509,0.838,13.855,5.004,-21.241,0,0,0,
,-0.152,0.504,0.837,30.761,4.577,-21.912,0,0,0,
,-0.148,0.502,0.842,16.296,6.591,-23.255,0,0,0,
,-0.148,0.495,0.845,9.155,4.028,-20.935,0,0,0,
,-0.149,0.496,0.834,-2.137,-2.076,-21.546,0,0,0,
,-0.159,0.51,0.84,-2.686,-2.015,-20.874,0,0,0,
,-0.158,0.508,0.835,4.821,1.159,-19.471,0,0,0,
,-0.159,0.507,0.84,13.916,10.681,-20.447,0,0,0,
,-0.152,0.503,0.838,16.601,10.803,-23.865,0,0,0,
,-0.148,0.498,0.838,12.695,8.85,-23.621,0,0,0,
,-0.151,0.503,0.838,1.586,4.394,-26.795,0,0,0,
,-0.153,0.51,0.84,7.751,5.31,-27.466,0,0,0,
,-0.153,0.508,0.844,13.244,9.704,-23.255,0,0,0,
,-0.149,0.502,0.841,15.441,8.667,-22.889,0,0,0,
,-0.151,0.499,0.844,12.695,5.065,-20.813,0,0,0,
,-0.153,0.498,0.838,7.69,1.281,-22.095,0,0,0,
,-0.152,0.503,0.84,8.789,5.004,-25.086,0,0,0,
,-0.15,0.509,0.836,13.671,2.807,-26.062,0,0,0,
,-0.152,0.506,0.838,16.845,1.831,-23.987,0,0,0,
,-0.156,0.499,0.843,16.662,2.563,-22.522,0,0,0,
,-0.159,0.498,0.841,14.587,5.188,-23.133,0,0,0,
,-0.161,0.498,0.848,11.596,14.587,-21.546,0,0,0,
,-0.157,0.486,0.844,5.798,18.859,-24.659,0,0,0,
,-0.151,0.493,0.85,-3.357,22.461,-25.33,0,0,0,
,-0.145,0.501,0.831,-8.118,12.634,-26.246,0,0,0,
,-0.153,0.515,0.839,2.868,10.62,-22.217,0,0,0,
,-0.158,0.505,0.834,12.573,14.221,-23.926,0,0,0,
,-0.157,0.5,0.838,17.456,19.165,-28.504,0,0,0,
,-0.15,0.496,0.844,13,21.179,-28.321,0,0,0,
,-0.145,0.498,0.84,10.742,11.169,-24.659,0,0,0,
,-0.15,0.501,0.841,4.028,6.53,-24.964,0,0,0,
,-0.15,0.511,0.836,7.446,5.554,-29.297,0,0,0,
,-0.15,0.508,0.841,18.676,3.662,-28.382,0,0,0,
,-0.149,0.503,0.843,26.489,3.967,-28.138,0,0,0,
,-0.154,0.49,0.852,22.033,9.46,-18.189,0,0,0,
,-0.15,0.474,0.85,6.469,14.77,-17.09,0,0,0,
,-0.147,0.489,0.851,-20.142,10.498,-23.804,0,0,0,
,-0.149,0.505,0.842,-24.292,7.141,-21.18,0,0,0,
,-0.138,0.519,0.838,-23.194,29.052,-39.795,0,0,0,
,-0.155,0.498,0.854,-10.926,23.193,-32.349,0,0,0,
,-0.149,0.499,0.835,-17.456,35.095,-29.664,0,0,0,
,-0.139,0.508,0.84,-23.194,32.775,-41.077,0,0,0,
,-0.146,0.506,0.834,-36.56,31.494,-51.209,0,0,0,
,-0.148,0.525,0.84,-11.414,19.043,-30.213,0,0,0,
,-0.143,0.51,0.834,6.713,20.08,-28.565,0,0,0,
,-0.139,0.504,0.843,10.192,14.831,-26.795,0,0,0,
,-0.138,0.5,0.835,7.08,10.192,-29.114,0,0,0,
,-0.14,0.506,0.833,5.493,6.469,-28.931,0,0,0,
,-0.144,0.505,0.838,12.146,8.789,-27.527,0,0,0,
,-0.145,0.504,0.834,12.207,10.559,-28.26,0,0,0,
,-0.144,0.502,0.844,12.39,10.192,-27.405,0,0,0,
,-0.144,0.507,0.842,10.131,10.559,-28.382,0,0,0,
,-0.141,0.503,0.836,13,10.925,-28.992,0,0,0,
,-0.137,0.503,0.842,12.085,12.268,-28.687,0,0,0,
,-0.145,0.509,0.841,6.652,12.085,-28.748,0,0,0,
,-0.142,0.512,0.834,9.155,15.197,-33.997,0,0,0,
,-0.141,0.515,0.837,18.859,20.996,-31.678,0,0,0,
,-0.139,0.494,0.841,23.071,23.681,-28.87,0,0,0,
,-0.137,0.481,0.849,6.652,21.667,-29.786,0,0,0,
,-0.133,0.493,0.84,-18.799,23.559,-37.598,0,0,0,
,-0.137,0.511,0.84,-26.185,27.282,-44.861,0,0,0,
,-0.139,0.513,0.841,-42.115,37.78,-49.683,0,0,0,
,-0.13,0.528,0.841,-13.062,27.16,-36.011,0,0,0,
,-0.131,0.509,0.835,2.563,21.545,-24.598,0,0,0,
,-0.135,0.496,0.837,-6.897,19.104,-27.161,0,0,0,
,-0.127,0.521,0.837,13.61,9.948,-32.105,0,0,0,
,-0.132,0.513,0.834,19.897,12.573,-31.189,0,0,0,
,-0.13,0.496,0.844,15.869,11.169,-35.645,0,0,0,
,-0.129,0.5,0.841,0.915,6.225,-36.805,0,0,0,
,-0.129,0.515,0.831,1.709,4.272,-38.514,0,0,0,
,-0.125,0.49,0.846,14.831,17.517,-30.457,0,0,0,
,-0.124,0.496,0.843,-2.808,12.085,-34.058,0,0,0,
,-0.127,0.516,0.834,-7.63,7.995,-34.607,0,0,0,
,-0.125,0.532,0.832,11.474,6.591,-34.485,0,0,0,
,-0.133,0.519,0.834,36.804,11.718,-30.091,0,0,0,
,-0.124,0.489,0.846,-4.09,7.69,-31.434,0,0,0,
,-0.121,0.499,0.841,-17.456,3.418,-30.762,0,0,0,
,-0.127,0.507,0.844,-24.109,5.798,-30.64,0,0,0,
,-0.126,0.514,0.844,-20.02,9.521,-31.25,0,0,0,
,-0.128,0.509,0.852,-20.874,16.296,-29.358,0,0,0,
,-0.127,0.494,0.842,-34.485,20.324,-26.856,0,0,0,
,-0.126,0.496,0.847,-57.496,21.972,-28.016,0,0,0,
,-0.122,0.508,0.835,-77.088,18.066,-30.823,0,0,0,
,-0.125,0.516,0.83,-74.83,15.319,-29.786,0,0,0,
,-0.121,0.544,0.824,-55.237,15.625,-25.574,0,0,0,
,-0.124,0.538,0.819,-26.307,16.418,-20.63,0,0,0,
,-0.122,0.526,0.833,-7.569,17.517,-20.02,0,0,0,
,-0.119,0.512,0.828,-10.498,14.465,-26.978,0,0,0,
,-0.122,0.526,0.828,-13.611,10.253,-46.814,0,0,0,
,-0.119,0.541,0.818,-2.137,5.188,-32.288,0,0,0,
,-0.126,0.543,0.819,24.841,7.934,-28.748,0,0,0,
,-0.12,0.526,0.832,40.283,10.192,-23.987,0,0,0,
,-0.117,0.506,0.838,30.944,10.009,-23.865,0,0,0,
,-0.118,0.5,0.843,5.493,7.995,-22.95,0,0,0,
,-0.119,0.509,0.836,-18.677,1.892,-23.926,0,0,0,
,-0.123,0.529,0.83,-20.325,4.028,-21.119,0,0,0,
,-0.125,0.539,0.822,-5.982,2.868,-20.081,0,0,0,
,-0.128,0.532,0.826,10.07,6.836,-19.837,0,0,0,
,-0.127,0.524,0.828,13.732,12.207,-24.048,0,0,0,
,-0.126,0.517,0.833,4.76,13.427,-27.771,0,0,0,
,-0.12,0.521,0.836,-7.386,14.77,-28.26,0,0,0,
,-0.121,0.525,0.831,-16.236,14.465,-29.48,0,0,0,
,-0.119,0.524,0.833,-16.419,15.441,-26.612,0,0,0,
,-0.119,0.521,0.832,-23.377,15.197,-26.307,0,0,0,
,-0.119,0.522,0.828,-28.809,13.244,-25.391,0,0,0,
,-0.122,0.54,0.822,-25.452,13.794,-24.659,0,0,0,
,-0.129,0.534,0.826,-12.146,16.601,-23.499,0,0,0,
,-0.124,0.535,0.828,-4.761,23.254,-25.696,0,0,0,
,-0.118,0.527,0.826,-1.404,26.855,-24.414,0,0,0,
,-0.114,0.513,0.834,-14.283,25.573,-24.292,0,0,0,
,-0.113,0.519,0.824,-34.79,18.92,-25.818,0,0,0,
,-0.108,0.567,0.838,-27.1,14.892,-24.353,0,0,0,
,-0.116,0.559,0.807,-5.555,9.582,-25.391,0,0,0,
,-0.119,0.537,0.82,19.165,16.113,-24.598,0,0,0,
,-0.113,0.543,0.821,20.813,10.742,-27.283,0,0,0,
,-0.12,0.53,0.824,28.686,13.122,-27.71,0,0,0,
,-0.117,0.523,0.829,20.568,17.639,-32.105,0,0,0,
,-0.114,0.531,0.823,8.361,14.526,-31.617,0,0,0,
,-0.116,0.537,0.83,10.925,14.404,-30.945,0,0,0,
,-0.113,0.533,0.822,16.601,17.517,-28.687,0,0,0,
,-0.111,0.526,0.831,16.662,16.052,-26.551,0,0,0,
,-0.113,0.517,0.825,8.728,13.916,-25.086,0,0,0,
,-0.112,0.526,0.829,1.037,11.779,-28.138,0,0,0,
,-0.113,0.525,0.823,-4.7,9.948,-25.269,0,0,0,
,-0.114,0.535,0.821,-5.921,6.103,-29.236,0,0,0,
,-0.113,0.544,0.818,14.526,7.019,-26.978,0,0,0,
,-0.114,0.537,0.82,7.751,4.577,-26.185,0,0,0,
,-0.112,0.529,0.823,13.427,6.042,-26.978,0,0,0,
,-0.109,0.522,0.831,2.929,3.112,-26.123,0,0,0,
,-0.112,0.521,0.831,-11.109,2.075,-27.039,0,0,0,
,-0.116,0.53,0.826,-22.461,4.333,-26.612,0,0,0,
,-0.118,0.532,0.827,-18.616,6.713,-28.626,0,0,0,
,-0.114,0.531,0.822,-16.48,9.033,-25.452,0,0,0,
,-0.115,0.523,0.822,-16.846,8.422,-24.292,0,0,0,
,-0.111,0.531,0.826,-28.504,8.117,-24.903,0,0,0,
,-0.11,0.53,0.817,-38.269,1.953,-24.72,0,0,0,
,-0.109,0.544,0.817,-35.706,-0.428,-25.879,0,0,0,
,-0.115,0.545,0.815,-28.565,0.305,-22.156,0,0,0,
,-0.116,0.539,0.819,-22.583,0.793,-24.903,0,0,0,
,-0.116,0.533,0.824,-33.265,0,-22.339,0,0,0,
,-0.118,0.526,0.822,-51.087,-2.198,-22.828,0,0,0,
,-0.117,0.54,0.822,-70.984,-0.306,-23.011,0,0,0,
,-0.117,0.548,0.813,-82.154,2.258,-23.804,0,0,0,
,-0.118,0.557,0.816,-76.905,7.019,-21.485,0,0,0,
,-0.124,0.568,0.817,-82.703,21.972,-17.701,0,0,0,
,-0.114,0.558,0.804,-87.708,29.48,-28.748,0,0,0,
,-0.117,0.57,0.798,-93.689,39.733,-24.781,0,0,0,
,-0.12,0.606,0.78,-68.482,43.884,-32.288,0,0,0,
,-0.118,0.594,0.792,-23.926,39.917,-35.34,0,0,0,
,-0.137,0.541,0.823,-23.621,43.396,-43.335,0,0,0,
,-0.106,0.534,0.808,-91.065,48.461,-71.656,0,0,0,
,-0.063,0.582,0.781,-77.637,10.803,-52.735,0,0,0,
,-0.129,0.65,0.814,88.256,-7.752,-25.879,0,0,0,
,-0.099,0.555,0.783,134.216,-2.198,-30.274,0,0,0,
,-0.092,0.496,0.811,47.973,14.465,-11.658,0,0,0,
,-0.088,0.536,0.813,-86.243,-9.217,-11.902,0,0,0,
,-0.092,0.603,0.813,-87.342,-13.672,-21.668,0,0,0,
,-0.107,0.64,0.775,32.898,-48.829,-14.771,0,0,0,
,-0.112,0.645,0.752,146.667,-59.449,-20.874,0,0,0,
,-0.13,0.619,0.77,220.947,-60.669,-7.691,0,0,0,
,-0.133,0.537,0.8,215.149,-60.608,-28.931,0,0,0,
,-0.114,0.494,0.83,101.745,-61.463,-35.279,0,0,0,
,-0.163,0.488,0.88,31.25,-97.779,-39.978,0,0,0,
,-0.145,0.501,0.865,-44.8,-93.506,-105.957,0,0,0,
,-0.139,0.489,0.842,-135.804,-103.76,-110.84,0,0,0,
,-0.155,0.508,0.866,-234.009,-117.249,-80.018,0,0,0,
,-0.211,0.505,0.886,-426.819,-140.748,-67.688,0,0,0,
,-0.193,0.573,0.891,-561.28,-201.233,36.865,0,0,0,
,-0.143,0.665,0.713,-639.527,-124.085,-120.606,0,0,0,
,-0.326,0.799,0.912,-681.092,-133.24,-24.414,0,0,0,
,-0.273,0.778,0.839,-670.838,-111.39,-35.584,0,0,0,
,-0.234,0.714,0.766,-661.927,-77.576,-9.4,0,0,0,
,-0.237,0.684,0.695,-726.38,-58.655,26.001,0,0,0,
,-0.232,0.741,0.653,-816.59,-31.739,43.518,0,0,0,
,-0.223,0.794,0.59,-823.792,1.281,56.396,0,0,0,
,-0.218,0.818,0.581,-769.41,16.296,45.288,0,0,0,
,-0.216,0.805,0.572,-689.148,18.371,27.16,0,0,0,
,-0.23,0.766,0.55,-736.512,43.579,102.783,0,0,0,
,-0.195,0.793,0.503,-617.31,46.203,27.16,0,0,0,
,-0.186,0.739,0.468,-642.09,34.973,-28.443,0,0,0,
,-0.168,0.724,0.393,-674.805,51.086,5.432,0,0,0,
,-0.172,0.675,0.319,-717.835,105.835,2.563,0,0,0,
,-0.139,0.708,0.322,-745.057,152.954,-0.306,0,0,0,
,-0.092,0.785,0.354,-860.901,156.921,-66.163,0,0,0,
,-0.089,0.934,0.379,-925.66,129.76,-38.086,0,0,0,
,-0.123,1.032,0.331,-844.91,107.666,-31.128,0,0,0,
,-0.148,1.029,0.283,-729.004,90.148,-18.372,0,0,0,
,-0.146,0.945,0.232,-645.691,92.773,-19.165,0,0,0,
,-0.154,0.876,0.213,-638.733,84.167,31.494,0,0,0,
,-0.134,0.902,0.228,-634.583,76.294,-16.663,0,0,0,
,-0.119,0.971,0.249,-623.475,55.053,-29.664,0,0,0,
,-0.094,1.016,0.204,-510.56,25.695,-31.617,0,0,0,
,-0.093,1.015,0.239,-351.929,-8.118,-75.928,0,0,0,
,-0.114,0.907,0.245,-279.908,-11.719,-78.003,0,0,0,
,-0.042,0.9,0.229,-267.884,-55.237,-89.112,0,0,0,
,-0.009,0.974,0.192,-340.455,-108.765,-69.153,0,0,0,
,-0.073,0.97,0.144,-310.059,-135.132,-26.49,0,0,0,
,-0.114,0.849,0.008,-243.409,-98.328,-76.783,0,0,0,
,-0.105,0.803,-0.058,-260.804,-35.035,-80.384,0,0,0,
,-0.086,0.791,-0.023,-328.858,29.052,-63.721,0,0,0,
,-0.086,0.87,0.043,-466.614,56.762,-56.397,0,0,0,
,-0.128,0.914,0.017,-531.25,61.706,-65.674,0,0,0,
,-0.185,0.966,-0.029,-521.241,59.204,-56.031,0,0,0,
,-0.174,1.002,-0.043,-452.942,51.696,-61.402,0,0,0,
,-0.168,1.003,-0.024,-379.395,58.41,-65.247,0,0,0,
,-0.162,0.946,-0.006,-369.446,32.592,-56.641,0,0,0,
,-0.147,0.921,-0.076,-517.579,6.652,-92.652,0,0,0,
,-0.143,1.015,-0.155,-465.455,-13.489,-82.764,0,0,0,
,-0.132,1.091,-0.125,-291.993,-27.283,-90.088,0,0,0,
,-0.136,1.035,-0.176,-99.122,-30.64,-92.774,0,0,0,
,-0.127,0.979,-0.159,57.617,-6.104,-99.671,0,0,0,
,-0.107,0.922,-0.135,94.055,11.291,-103.577,0,0,0,
,-0.083,0.92,-0.155,42.968,23.62,-81.177,0,0,0,
