TIMECODE,ACC_X,ACC_Y,ACC_Z,GYR_X,GYR_Y,GYR_Z,TAG
00:00:00:0,-0.051,-0.015,1.007,72.143,-93.567,-27.161,
00:00:00:16,-0.005,0.01,0.905,214.843,-73.365,4.333,
00:00:00:33,-0.172,-0.035,0.878,321.655,-100.769,55.786,
00:00:00:50,-0.185,-0.272,0.884,295.044,-16.419,82.824,
00:00:00:66,-0.167,-0.448,1.024,132.446,62.194,37.414,
00:00:00:83,0.032,-0.615,1.244,-71.656,83.435,-37.964,
00:00:00:100,-0.09,-0.058,0.879,-86.792,75.073,-88.196,
00:00:00:116,-0.197,-0.065,0.926,-134.705,72.631,-109.07,
00:00:00:133,-0.051,-0.086,0.863,-70.13,144.897,-49.256,
00:00:00:150,-0.023,-0.178,0.969,-4.334,137.634,-30.152,
00:00:00:166,0.02,-0.208,1.023,-27.71,96.74,-0.061,
00:00:00:183,0.036,-0.015,1.076,68.725,4.638,44.311,
00:00:00:200,-0.058,-0.174,0.901,141.296,-62.134,9.46,
00:00:00:216,-0.114,-0.229,0.956,93.078,-38.758,52.673,
00:00:00:233,-0.071,-0.311,1.026,13.671,2.685,29.174,
00:00:00:250,-0.071,-0.24,1.015,-41.138,12.695,30.822,
00:00:00:266,-0.094,-0.178,0.994,-65.369,26.428,21.362,
00:00:00:283,-0.064,-0.183,0.997,-63.965,44.25,10.681,
00:00:00:300,-0.044,-0.139,0.993,-31.434,40.466,11.474,
00:00:00:316,-0.048,-0.152,0.986,4.882,25.207,6.897,
00:00:00:333,-0.066,-0.187,0.998,20.263,15.075,4.699,
00:00:00:350,-0.085,-0.194,0.986,10.192,21.484,6.53,
00:00:00:366,-0.078,-0.162,0.99,21.118,30.822,9.582,
00:00:00:383,-0.062,-0.203,0.991,28.32,40.222,4.089,
00:00:00:400,-0.053,-0.224,0.993,3.234,49.56,5.249,
00:00:00:416,-0.05,-0.186,0.993,-21.302,56.396,-1.404,
00:00:00:433,-0.059,-0.222,1.001,-42.664,59.936,-16.663,
00:00:00:450,-0.053,-0.204,0.996,-64.576,64.453,-13.245,
00:00:00:466,-0.051,-0.179,0.993,-71.412,62.622,-15.015,
00:00:00:483,-0.054,-0.196,0.997,-72.632,74.279,-11.353,
00:00:00:500,-0.037,-0.177,1.003,-76.905,79.956,-10.132,
00:00:00:516,-0.038,-0.157,1,-65.369,67.138,-12.635,
00:00:00:533,-0.036,-0.145,1,-55.848,62.439,-12.391,
00:00:00:550,-0.023,-0.156,0.987,-40.284,59.082,-9.949,
00:00:00:566,-0.023,-0.156,0.966,-32.532,58.41,-1.648,
00:00:00:583,-0.024,-0.153,0.971,-23.987,61.889,14.465,
00:00:00:600,0.003,-0.233,0.998,-38.453,68.298,50.781,
00:00:00:616,0.021,-0.303,1.005,-125.061,47.912,96.496,
00:00:00:633,0.074,-0.372,0.911,-163.025,158.63,-31.617,
00:00:00:650,-0.05,-0.249,1.05,-307.496,122.253,-63.782,
00:00:00:666,-0.025,-0.015,1.004,-310.364,160.705,-63.538,
00:00:00:683,-0.058,0.092,0.995,-195.191,74.34,-47.425,
00:00:00:700,-0.014,0.136,1.041,7.934,71.96,-45.289,
00:00:00:716,-0.057,-0.061,1.004,99.06,6.042,12.939,
00:00:00:733,-0.039,-0.038,1.009,178.588,81.176,6.591,
00:00:00:750,-0.055,-0.222,1.002,122.253,60.546,2.746,
00:00:00:766,-0.025,-0.189,1.003,27.404,90.759,-11.414,
00:00:00:783,0.016,-0.14,0.98,-27.283,82.885,-16.48,
00:00:00:800,0.019,-0.089,0.983,-21.302,63.476,-15.992,
00:00:00:816,0.034,-0.083,0.997,17.517,46.875,-8.057,
00:00:00:833,0.032,-0.112,0.996,51.269,31.066,-9.827,
00:00:00:850,0.022,-0.146,0.998,48.584,16.174,-13.062,
00:00:00:866,0.016,-0.19,0.991,-4.456,9.094,-16.785,
00:00:00:883,0.008,-0.199,0.997,-65.308,9.704,-27.894,
00:00:00:900,0.026,-0.12,0.977,-95.704,5.188,-20.691,
00:00:00:916,0.05,-0.089,0.99,-75.379,-20.081,-27.283,
00:00:00:933,0.008,-0.083,1.002,-35.462,-50.843,-15.87,
00:00:00:950,0,-0.099,1.014,4.272,-49.439,-7.142,
00:00:00:966,0.044,-0.124,0.985,30.517,-10.01,38.147,
00:00:00:983,-0.065,-0.159,1.01,-34.302,-60.242,-1.465,
00:00:01:0,0.008,-0.092,1.006,-54.505,-23.377,-7.325,
00:00:01:16,0.028,-0.081,1.003,-33.143,-53.223,-14.405,
00:00:01:33,-0.023,-0.083,1.009,-4.822,-53.711,-18.433,
00:00:01:50,-0.009,-0.089,1.004,20.385,-44.8,-13.062,
00:00:01:66,-0.018,-0.109,1.004,30.395,-44.739,-14.466,
00:00:01:83,-0.009,-0.115,1.008,25.695,-38.819,-12.879,
00:00:01:100,0.001,-0.108,0.999,24.475,-44.007,-12.33,
00:00:01:116,-0.002,-0.081,0.982,49.56,-55.726,-8.423,
00:00:01:133,-0.021,-0.132,1.011,75.5,-55.909,-5.86,
00:00:01:150,-0.032,-0.173,1.003,44.25,-35.035,-1.404,
00:00:01:166,-0.037,-0.203,1.01,-20.203,-13.245,-7.996,
00:00:01:183,-0.039,-0.157,0.997,-93.323,13.549,-4.029,
00:00:01:200,-0.027,-0.088,1.01,-91.37,28.747,8.056,
00:00:01:216,-0.012,-0.073,1.001,-57.007,36.56,-9.095,
00:00:01:233,-0.004,-0.075,1.002,-27.894,32.653,-7.325,
00:00:01:250,-0.011,-0.096,1.003,-7.569,30.334,-2.747,
00:00:01:266,-0.018,-0.12,1.001,-7.447,27.038,0.366,
00:00:01:283,-0.018,-0.117,1.001,-23.865,28.076,7.446,
00:00:01:300,-0.021,-0.113,1.001,-36.377,23.437,1.953,
00:00:01:316,-0.017,-0.09,0.997,-41.565,20.874,-8.24,
00:00:01:333,-0.013,-0.065,1.004,-19.715,11.962,-12.269,
00:00:01:350,-0.014,-0.066,0.998,5.981,3.418,-14.222,
00:00:01:366,-0.009,-0.056,1.003,33.813,-9.156,-11.536,
00:00:01:383,-0.003,-0.037,1.009,81.298,-27.771,-7.935,
00:00:01:400,0.003,-0.045,1.009,143.005,-51.575,-5.616,
00:00:01:416,0.005,-0.053,1.035,209.777,-85.206,-1.404,
00:00:01:433,-0.011,-0.057,1.015,294.128,-114.319,1.892,
00:00:01:450,-0.023,-0.078,0.987,374.817,-147.706,119.079,
00:00:01:466,-0.025,-0.118,0.988,426.208,-163.208,76.416,
00:00:01:483,-0.037,-0.199,0.988,436.218,-182.801,112.243,
00:00:01:500,-0.058,-0.263,0.971,393.493,-175.354,120.361,
00:00:01:516,-0.083,-0.333,0.944,281.433,-146.241,87.89,
00:00:01:533,-0.097,-0.369,0.966,129.821,-79.956,44.86,
00:00:01:550,-0.079,-0.328,0.964,-5.799,-8.362,0.183,
00:00:01:566,-0.055,-0.254,0.969,-93.018,25.268,-30.274,
00:00:01:583,-0.057,-0.194,0.979,-118.836,35.339,-37.903,
00:00:01:600,-0.056,-0.159,0.994,-92.102,32.775,-34.729,
00:00:01:616,-0.053,-0.14,0.998,-37.598,12.329,-27.344,
00:00:01:633,-0.061,-0.169,0.993,18.005,-1.709,-26.612,
00:00:01:650,-0.067,-0.212,0.991,31.738,-2.015,-18.982,
00:00:01:666,-0.066,-0.234,0.979,6.042,5.004,-19.41,
00:00:01:683,-0.072,-0.234,0.984,-31.373,19.165,-19.959,
00:00:01:700,-0.069,-0.225,0.981,-63.477,35.522,-25.269,
00:00:01:716,-0.061,-0.2,0.987,-83.374,47.241,-28.443,
00:00:01:733,-0.049,-0.171,0.99,-77.21,48.889,-28.626,
00:00:01:750,-0.045,-0.162,0.998,-48.829,37.17,-27.405,
00:00:01:766,-0.044,-0.177,1,-28.077,24.231,-25.635,
00:00:01:783,-0.053,-0.181,0.992,-18.738,15.502,-25.147,
00:00:01:800,-0.059,-0.178,0.996,-8.912,16.54,-25.635,
00:00:01:816,-0.052,-0.188,0.994,-12.452,20.996,-23.865,
00:00:01:833,-0.051,-0.19,0.992,-15.015,22.522,-22.95,
00:00:01:850,-0.05,-0.177,0.991,-16.846,20.813,-22.217,
00:00:01:866,-0.05,-0.186,0.991,-16.419,19.165,-24.964,
00:00:01:883,-0.053,-0.189,0.99,-22.034,18.188,-26.856,
00:00:01:900,-0.047,-0.179,0.992,-28.382,22.155,-28.138,
00:00:01:916,-0.047,-0.16,0.996,-20.569,21.301,-24.781,
00:00:01:933,-0.042,-0.163,0.996,-4.7,15.38,-23.438,
00:00:01:950,-0.05,-0.169,0.995,5.554,13.061,-22.644,
00:00:01:966,-0.054,-0.188,0.988,6.836,15.014,-22.522,
00:00:01:983,-0.052,-0.199,0.985,-4.273,26.123,-24.537,
00:00:02:0,-0.049,-0.186,0.997,-21.668,30.273,-25.025,
00:00:02:16,-0.04,-0.176,0.995,-29.969,27.038,-25.696,
00:00:02:33,-0.044,-0.166,0.992,-26.368,23.559,-26.734,
00:00:02:50,-0.049,-0.162,0.998,-20.264,24.597,-25.879,
00:00:02:66,-0.043,-0.172,0.997,-16.968,21.667,-26.734,
00:00:02:83,-0.046,-0.154,0.994,-13.428,19.531,-23.072,
00:00:02:100,-0.04,-0.165,0.998,-9.217,18.249,-21.302,
00:00:02:116,-0.041,-0.166,0.989,-7.325,13.977,-24.048,
00:00:02:133,-0.047,-0.18,0.996,-13.062,15.686,-23.133,
00:00:02:150,-0.045,-0.19,0.995,-28.138,19.714,-24.781,
00:00:02:166,-0.044,-0.166,1,-36.866,23.376,-25.269,
00:00:02:183,-0.039,-0.152,0.998,-28.748,21.118,-26.185,
00:00:02:200,-0.037,-0.143,0.997,-12.635,15.075,-26.123,
00:00:02:216,-0.038,-0.145,0.996,3.418,9.338,-23.865,
00:00:02:233,-0.046,-0.157,0.995,14.282,7.202,-24.537,
00:00:02:250,-0.042,-0.162,0.999,17.578,10.437,-24.964,
00:00:02:266,-0.039,-0.162,0.992,19.531,8.483,-24.17,
00:00:02:283,-0.039,-0.158,0.996,23.803,4.882,-22.034,
00:00:02:300,-0.042,-0.165,0.997,28.381,3.051,-20.264,
00:00:02:316,-0.043,-0.176,0.995,20.324,6.713,-22.034,
00:00:02:333,-0.043,-0.179,0.993,6.347,8.728,-20.264,
00:00:02:350,-0.041,-0.169,0.997,-3.174,10.253,-23.438,
00:00:02:366,-0.039,-0.157,0.991,-4.944,10.192,-22.4,
00:00:02:383,-0.039,-0.15,0.996,3.051,7.08,-24.537,
00:00:02:400,-0.04,-0.158,0.994,13.427,6.958,-22.644,
00:00:02:416,-0.042,-0.163,0.995,19.531,7.141,-21.973,
00:00:02:433,-0.043,-0.184,1,15.625,7.202,-20.752,
00:00:02:450,-0.044,-0.189,0.99,-0.428,10.376,-22.339,
00:00:02:466,-0.043,-0.169,0.993,-13.55,15.197,-23.56,
00:00:02:483,-0.036,-0.151,0.995,-10.987,13.183,-24.903,
00:00:02:500,-0.037,-0.145,0.994,0.915,10.376,-24.72,
00:00:02:516,-0.04,-0.151,1,14.282,5.432,-23.072,
00:00:02:533,-0.045,-0.166,0.995,18.127,5.615,-22.095,
00:00:02:550,-0.045,-0.177,0.994,10.681,9.155,-22.156,
00:00:02:566,-0.043,-0.173,0.996,2.014,9.033,-20.569,
00:00:02:583,-0.039,-0.161,0.992,-2.015,7.629,-22.217,
00:00:02:600,-0.041,-0.156,0.997,6.286,5.493,-21.302,
00:00:02:616,-0.043,-0.162,0.991,9.826,7.08,-20.997,
00:00:02:633,-0.041,-0.166,0.998,13,8.056,-21.973,
00:00:02:650,-0.041,-0.163,0.998,7.751,5.065,-19.654,
00:00:02:666,-0.043,-0.166,0.998,7.141,5.371,-21.363,
00:00:02:683,-0.038,-0.165,0.997,2.563,7.873,-21.79,
00:00:02:700,-0.04,-0.165,0.998,3.54,8.056,-22.156,
00:00:02:716,-0.041,-0.167,0.992,4.516,9.887,-22.156,
00:00:02:733,-0.043,-0.164,0.992,3.112,11.962,-23.255,
00:00:02:750,-0.041,-0.169,0.994,2.746,10.681,-22.828,
00:00:02:766,-0.042,-0.163,0.997,1.525,11.718,-23.621,
00:00:02:783,-0.042,-0.161,0.996,3.295,11.535,-21.79,
00:00:02:800,-0.036,-0.164,1,25.512,5.493,-19.349,
00:00:02:816,-0.042,-0.176,0.993,22.461,4.211,-22.156,
00:00:02:833,-0.043,-0.178,0.993,8.728,6.103,-22.156,
00:00:02:850,-0.041,-0.164,0.996,2.99,6.591,-24.598,
00:00:02:866,-0.042,-0.157,0.991,5.676,7.507,-24.109,
00:00:02:883,-0.041,-0.153,0.995,17.761,4.333,-26.795,
00:00:02:900,-0.045,-0.163,0.995,18.92,6.469,-26.001,
00:00:02:916,-0.045,-0.19,0.999,11.474,12.146,-46.753,
00:00:02:933,-0.051,-0.182,0.998,-10.804,17.517,-30.579,
00:00:02:950,-0.051,-0.164,1.003,-14.405,34.362,-31.311,
00:00:02:966,-0.047,-0.14,1.02,-6.897,44.25,-68.726,
00:00:02:983,-0.042,-0.035,1.092,75.5,32.714,-19.532,
00:00:03:0,0.021,0.108,1.231,283.447,-66.285,2.258,
00:00:03:16,0.064,0.053,1.343,384.338,-353.455,-123.963,
00:00:03:33,-0.423,-0.493,2.273,-282.532,14.77,-350.769,
00:00:03:50,-0.354,0.315,2.753,-232.422,-77.881,-28.504,
00:00:03:66,-0.069,0.302,2.466,188.659,-578.675,-182.557,
00:00:03:83,-0.015,-0.693,1.966,659.179,-1258.545,-367.31,
00:00:03:100,0.34,-1.506,1.888,249.939,-1439.148,-435.486,
00:00:03:116,0.317,-1.061,2.21,-758.912,-1434.754,-354.676,
00:00:03:133,0.49,-0.693,2.356,-1188.05,-1768.494,-489.075,
00:00:03:150,0.665,-0.423,2.235,-1049.317,-2000,-413.392,
00:00:03:166,0.523,-0.41,1.888,-896.912,-2000,-500.123,
00:00:03:183,0.323,-0.344,1.21,-860.962,-2000,-507.813,
00:00:03:200,0.192,-0.224,0.451,-776.978,-2000,-421.326,
00:00:03:216,0.115,-0.1,-0.114,-551.697,-2000,-382.447,
00:00:03:233,0.104,-0.158,-0.37,-286.072,-2000,-449.28,
00:00:03:250,0.215,-0.296,-0.331,-54.078,-2000,-572.022,
00:00:03:266,0.293,-0.386,-0.246,58.654,-2000,-751.221,
00:00:03:283,0.362,-0.05,-0.956,-176.941,-2000,-722.107,
00:00:03:300,-0.103,0.412,-1.835,531.005,-160.584,-321.289,
00:00:03:316,-0.023,0.414,-1.544,255.188,645.141,-47.791,
00:00:03:333,-0.038,0.48,-1.234,325.195,1318.054,152.526,
00:00:03:350,-0.099,0.428,-0.994,606.445,1845.764,287.475,
00:00:03:366,-0.138,0.406,-0.758,842.285,1999.694,407.287,
00:00:03:383,-0.137,-0.005,-0.241,1581.665,1999.694,810.913,
00:00:03:400,0.007,-0.255,0.099,1634.46,1999.694,924.743,
00:00:03:416,0.184,-0.402,0.354,1399.841,1999.694,979.614,
00:00:03:433,0.208,-0.527,0.85,1118.835,1999.694,997.558,
00:00:03:450,0.32,-0.619,1.474,1114.502,1999.694,967.102,
00:00:03:466,0.372,-1.009,1.787,975.891,1999.694,830.444,
00:00:03:483,0.188,-1.194,2.012,42.419,1999.694,819.519,
00:00:03:500,0.296,-0.7,2.052,-544.861,1736.206,753.234,
00:00:03:516,0.387,-0.526,1.974,-193.909,1224.487,655.578,
00:00:03:533,0.249,-0.646,1.832,195.068,757.751,617.981,
00:00:03:550,0.072,-0.727,1.672,266.967,503.418,509.948,
00:00:03:566,0.051,-0.653,1.433,147.949,409.668,407.653,
00:00:03:583,0.048,-0.399,1.307,-43.03,392.212,335.998,
00:00:03:600,0.064,-0.183,1.234,-189.331,368.652,311.767,
00:00:03:616,0.013,0.382,3.479,-46.57,30.822,304.016,
00:00:03:633,0.145,-1.217,0.705,290.344,-49.134,-171.631,
00:00:03:650,-0.413,0.053,0.52,-345.948,-47.303,234.924,
00:00:03:666,0.14,-0.428,1.083,-503.357,120.239,246.093,
00:00:03:683,0.11,-0.047,0.998,-236.573,-95.154,163.94,
00:00:03:700,-0.018,-0.132,0.946,-85.206,-40.284,48.156,
00:00:03:716,0.067,-0.258,0.999,-108.643,18.737,-5.982,
00:00:03:733,0.006,-0.281,1.019,-233.399,52.49,-53.894,
00:00:03:750,0.002,-0.233,1.019,-252.503,85.205,-91.126,
00:00:03:766,0.055,-0.188,1.026,-259.461,86.975,-86.792,
00:00:03:783,0.018,-0.065,1.004,-135.437,72.937,-61.28,
00:00:03:800,0.056,-0.054,0.989,43.823,71.106,-25.025,
00:00:03:816,0.069,-0.175,0.992,140.258,50.476,-13.428,
00:00:03:833,0.061,-0.269,0.964,131.286,33.386,-15.931,
00:00:03:850,0.062,-0.324,0.967,46.63,25.268,-27.344,
00:00:03:866,0.048,-0.303,0.967,-65.918,18.432,-55.664,
00:00:03:883,0.05,-0.266,0.973,-137.879,10.986,-40.467,
00:00:03:900,0.048,-0.196,0.938,-160.95,-1.77,-32.105,
00:00:03:916,0.053,-0.152,0.98,-109.131,-22.4,-21.546,
00:00:03:933,0.04,-0.148,0.997,-70.435,-40.711,-2.991,
00:00:03:950,0.019,-0.175,0.993,-40.162,-35.279,4.577,
00:00:03:966,0.017,-0.192,1.011,-29.969,-9.4,14.221,
00:00:03:983,0.026,-0.166,1.004,-3.724,22.338,34.362,
00:00:04:0,0.033,-0.134,1.003,57.251,50.048,35.522,
00:00:04:16,0.204,0.031,1.066,715.088,-34.729,-104.615,
00:00:04:33,0.083,-0.147,0.977,1031.311,-161.56,-285.523,
00:00:04:50,0.255,-0.198,0.838,1999.694,-352.784,-532.471,
00:00:04:66,0.631,-1.042,1.2,1999.694,-776.185,-257.203,
00:00:04:83,-0.032,-2.908,1.495,1548.401,-296.265,-649.842,
00:00:04:100,0.664,-0.864,1.244,65.551,-191.285,-479.004,
00:00:04:116,-0.141,-0.602,1.067,499.145,-369.202,-730.469,
00:00:04:133,0.065,-0.918,0.938,516.723,-322.083,-802.674,
00:00:04:150,-0.033,-0.682,0.844,305.969,-246.216,-794.19,
00:00:04:166,-0.15,-0.467,0.736,275.024,-149.292,-777.466,
00:00:04:183,-0.164,-0.344,0.591,435.424,-49.988,-753.052,
00:00:04:200,-0.188,-0.356,0.518,648.437,-4.639,-738.404,
00:00:04:216,-0.184,-0.433,0.46,791.259,75.744,-688.416,
00:00:04:233,-0.185,-0.572,0.474,852.478,152.526,-650.574,
00:00:04:250,-0.193,-0.484,0.562,891.906,285.522,-436.585,
00:00:04:266,-0.216,-0.445,0.637,1013.366,314.697,-342.286,
00:00:04:283,-0.203,-0.515,0.684,1083.374,327.087,-292.359,
00:00:04:300,-0.195,-0.593,0.636,971.984,342.834,-217.591,
00:00:04:316,-0.201,-0.632,0.537,855.896,334.9,-204.834,
00:00:04:333,-0.213,-0.73,0.473,818.725,319.275,-168.091,
00:00:04:350,-0.2,-0.816,0.458,763.916,301.452,-134.949,
00:00:04:366,-0.195,-0.88,0.566,547.058,283.996,-46.143,
00:00:04:383,-0.209,-0.959,0.69,208.984,277.954,11.23,
00:00:04:400,-0.195,-0.648,0.64,-284.424,89.904,42.297,
00:00:04:416,-0.204,-0.694,0.649,-241.517,13.244,35.034,
00:00:04:433,-0.213,-0.677,0.639,-97.962,-44.434,114.929,
00:00:04:450,-0.249,-0.646,0.652,126.098,-61.463,177.673,
00:00:04:466,-0.256,-0.593,0.629,379.516,-18.799,240.539,
00:00:04:483,-0.246,-0.705,0.617,597.107,25.573,255.676,
00:00:04:500,-0.243,-0.796,0.591,679.504,65.49,297.363,
00:00:04:516,-0.22,-0.748,0.474,624.939,122.741,332.031,
00:00:04:533,-0.199,-0.708,0.269,619.262,157.47,323.608,
00:00:04:550,-0.247,-0.824,0.168,797.668,175.72,290.222,
00:00:04:566,-0.22,-0.86,0.225,915.71,223.083,267.822,
00:00:04:583,-0.195,-0.849,0.307,1020.263,231.689,256.775,
00:00:04:600,-0.149,-1.101,0.362,1187.072,215.637,252.685,
00:00:04:616,-0.115,-1.201,0.324,1241.455,199.096,226.989,
00:00:04:633,-0.14,-1.179,0.246,1163.33,190.979,171.997,
00:00:04:650,-0.157,-1.174,0.139,937.378,181.335,138.122,
00:00:04:666,-0.163,-1.008,0.061,756.53,194.702,90.454,
00:00:04:683,-0.137,-0.884,0.062,781.982,218.994,51.208,
00:00:04:700,-0.124,-0.992,0.122,847.351,230.102,36.743,
00:00:04:716,-0.122,-1.105,0.137,805.359,211.486,39.856,
00:00:04:733,-0.097,-1.097,0.1,698.913,164.428,63.293,
00:00:04:750,-0.059,-0.985,0.072,604.187,145.324,82.885,
00:00:04:766,-0.03,-0.951,-0.006,567.993,134.765,87.89,
00:00:04:783,0.017,-0.985,-0.059,602.539,133.972,83.19,
00:00:04:800,0.034,-1.068,-0.082,570.617,116.516,79.223,
00:00:04:816,0.047,-1.157,-0.067,489.196,96.252,72.692,
00:00:04:833,0.044,-1.093,-0.058,330.932,82.031,61.34,
00:00:04:850,0.028,-1.002,-0.076,283.569,73.608,47.79,
00:00:04:866,0.019,-0.957,-0.1,413.513,67.565,49.316,
00:00:04:883,0.015,-0.93,-0.174,570.8,61.34,47.241,
00:00:04:900,0.035,-1.09,-0.213,600.341,46.814,46.264,
00:00:04:916,0.056,-1.122,-0.2,371.643,31.738,61.096,
00:00:04:933,0.089,-1.06,-0.173,171.02,22.949,61.889,
00:00:04:950,0.073,-1.029,-0.177,42.236,20.019,55.358,
00:00:04:966,0.071,-0.94,-0.174,69.458,20.568,58.532,
00:00:04:983,0.088,-0.881,-0.196,223.266,24.414,53.833,
00:00:05:0,0.082,-0.955,-0.277,395.996,32.165,35.827,
00:00:05:16,0.049,-1.163,-0.363,404.113,17.273,26.245,
00:00:05:33,0.054,-1.183,-0.276,151.001,4.943,63.72,
00:00:05:50,0.055,-0.959,-0.217,-0.611,7.202,52.368,
00:00:05:66,0.056,-0.987,-0.227,-35.523,4.699,41.931,
00:00:05:83,0.064,-0.86,-0.25,85.937,1.892,56.091,
00:00:05:100,0.074,-0.899,-0.28,236.206,-5.555,68.603,
00:00:05:116,0.091,-1.049,-0.33,260.376,-10.01,60.058,
00:00:05:133,0.067,-1.145,-0.352,102.539,0,44.738,
00:00:05:150,0.089,-1.086,-0.321,-30.945,8.85,40.954,
00:00:05:166,0.083,-1,-0.294,-31.495,26.306,27.893,
00:00:05:183,0.078,-0.962,-0.317,60.241,27.587,26.306,
00:00:05:200,0.099,-0.934,-0.333,139.221,29.541,25.817,
00:00:05:216,0.094,-1.024,-0.345,158.325,24.597,26.001,
00:00:05:233,0.1,-1.008,-0.327,40.466,27.282,36.438,
00:00:05:250,0.085,-0.994,-0.279,-40.284,25.085,42.358,
00:00:05:266,0.089,-0.956,-0.263,-27.771,22.644,45.349,
00:00:05:283,0.074,-0.933,-0.294,57.373,23.62,45.593,
00:00:05:300,0.06,-0.963,-0.355,132.629,22.277,54.504,
00:00:05:316,0.073,-1.046,-0.328,78.43,19.226,65.918,
00:00:05:333,0.091,-1.014,-0.278,-38.697,20.446,70.739,
00:00:05:350,0.092,-0.951,-0.257,-51.758,25.024,61.035,
00:00:05:366,0.077,-0.911,-0.225,-6.043,25.207,52.246,
00:00:05:383,0.081,-0.901,-0.239,74.829,14.404,52.551,
00:00:05:400,0.121,-0.88,-0.24,114.624,-7.813,60.852,
00:00:05:416,0.155,-0.796,-0.28,208.374,-13.55,47.18,
00:00:05:433,0.152,-0.867,-0.367,310.669,-6.531,15.625,
00:00:05:450,0.087,-1.15,-0.487,227.661,-12.024,15.686,
00:00:05:466,0.159,-1.137,-0.433,-54.81,0.244,56.274,
00:00:05:483,0.102,-0.919,-0.351,-62.623,32.47,30.944,
00:00:05:500,0.088,-0.959,-0.358,26.245,30.395,18.493,
00:00:05:516,0.084,-0.958,-0.349,62.194,22.827,-3.357,
00:00:05:533,0.103,-0.934,-0.331,38.452,13.916,2.014,
00:00:05:550,0.129,-0.946,-0.319,54.504,24.597,-2.137,
00:00:05:566,0.129,-0.948,-0.336,13.732,27.16,4.455,
00:00:05:583,0.097,-0.95,-0.346,-30.152,23.132,-20.081,
00:00:05:600,0.116,-0.99,-0.364,24.902,16.906,-11.841,
00:00:05:616,0.107,-0.935,-0.411,24.047,29.174,-8.545,
00:00:05:633,0.097,-0.95,-0.372,26.611,43.151,-15.32,
00:00:05:650,0.101,-0.961,-0.345,20.019,50.354,-20.325,
00:00:05:666,0.109,-0.964,-0.32,34.301,52.063,-22.706,
00:00:05:683,0.097,-0.941,-0.316,35.095,50.598,-26.368,
00:00:05:700,0.101,-0.933,-0.352,27.038,39.611,-28.138,
00:00:05:716,0.092,-0.99,-0.365,10.62,26.977,-25.879,
00:00:05:733,0.122,-0.927,-0.357,21.911,34.301,-28.992,
00:00:05:750,0.12,-1,-0.352,52.124,46.814,-30.03,
00:00:05:766,0.167,-0.966,-0.356,70.129,61.828,-24.537,
00:00:05:783,0.107,-0.928,-0.363,106.506,45.959,-8.179,
00:00:05:800,0.136,-0.94,-0.402,113.342,41.748,-13.794,
00:00:05:816,0.117,-0.955,-0.413,98.816,39.489,-17.273,
00:00:05:833,0.155,-0.941,-0.349,89.172,34.79,-11.536,
00:00:05:850,0.128,-0.935,-0.335,87.89,29.724,-5.433,
00:00:05:866,0.119,-0.906,-0.341,85.205,29.541,1.037,
00:00:05:883,0.132,-0.888,-0.392,88.378,28.076,6.958,
00:00:05:900,0.117,-0.977,-0.409,40.771,30.822,6.469,
00:00:05:916,0.115,-0.966,-0.375,-44.251,22.888,7.995,
00:00:05:933,0.134,-0.943,-0.371,-56.519,11.84,-10.132,
00:00:05:950,0.078,-0.927,-0.402,-89.539,15.686,-5.372,
00:00:05:966,0.092,-0.935,-0.374,-66.529,9.46,-9.705,
00:00:05:983,0.11,-0.956,-0.386,-74.952,2.502,-20.63,
00:00:06:0,0.104,-0.95,-0.373,-85.694,4.394,-21.485,
00:00:06:16,0.121,-0.943,-0.374,-89.966,11.352,-21.851,
00:00:06:33,0.132,-0.963,-0.383,-101.563,18.005,-21.241,
00:00:06:50,0.132,-0.953,-0.354,-100.159,34.362,-29.48,
00:00:06:66,0.141,-0.983,-0.35,-63.416,36.804,-29.358,
00:00:06:83,0.139,-1,-0.344,-88.135,18.127,-23.255,
00:00:06:100,0.072,-0.95,-0.308,-103.699,46.386,-12.146,
00:00:06:116,0.14,-0.946,-0.323,-50.354,20.446,-14.466,
00:00:06:133,0.122,-0.976,-0.311,-36.622,14.404,-24.414,
00:00:06:150,0.122,-0.951,-0.341,-10.376,8.85,-25.269,
00:00:06:166,0.105,-0.962,-0.373,25.756,2.868,-29.725,
00:00:06:183,0.087,-0.987,-0.38,-13.611,13.977,-28.809,
00:00:06:200,0.078,-0.973,-0.376,-23.499,28.686,-24.048,
00:00:06:216,0.089,-0.988,-0.342,-41.748,40.222,-20.142,
00:00:06:233,0.102,-0.902,-0.337,35.888,50.598,-17.701,
00:00:06:250,0.106,-0.951,-0.363,73.12,56.945,-23.743,
00:00:06:266,0.103,-0.964,-0.368,76.66,54.992,-34.363,
00:00:06:283,0.101,-0.941,-0.342,105.957,52.795,-46.753,
00:00:06:300,0.119,-0.971,-0.342,90.576,42.663,-49.134,
00:00:06:316,0.095,-0.922,-0.305,37.658,33.447,-50.171,
00:00:06:333,0.113,-0.915,-0.337,63.11,31.372,-65.979,
00:00:06:350,0.088,-1.004,-0.306,88.378,18.493,-70.923,
00:00:06:366,0.082,-0.98,-0.348,73.73,19.47,-61.89,
00:00:06:383,0.101,-0.951,-0.356,86.242,20.019,-58.96,
00:00:06:400,0.09,-0.969,-0.366,155.456,19.897,-63.111,
00:00:06:416,0.106,-0.965,-0.368,122.558,19.104,-65.186,
00:00:06:433,0.101,-0.935,-0.369,128.479,20.629,-63.111,
00:00:06:450,0.107,-0.937,-0.4,120.056,18.798,-63.66,
00:00:06:466,0.097,-0.937,-0.415,102.6,20.507,-63.172,
00:00:06:483,0.095,-0.961,-0.416,76.965,19.165,-56.031,
00:00:06:500,0.086,-0.966,-0.425,23.62,19.348,-42.786,
00:00:06:516,0.08,-0.952,-0.391,-16.114,30.7,-37.842,
00:00:06:533,0.088,-0.942,-0.385,2.685,26.733,-29.236,
00:00:06:550,0.077,-0.961,-0.385,-3.052,19.165,-32.654,
00:00:06:566,0.076,-0.952,-0.371,5.615,8.972,-30.64,
00:00:06:583,0.073,-0.98,-0.391,-17.701,3.845,-37.171,
00:00:06:600,0.07,-0.97,-0.394,-54.383,-1.099,-34.668,
00:00:06:616,0.07,-0.966,-0.392,-82.276,1.831,-33.326,
00:00:06:633,0.077,-0.937,-0.396,-71.656,11.23,-32.898,
00:00:06:650,0.078,-0.937,-0.373,-44.129,15.136,-28.992,
00:00:06:666,0.08,-0.945,-0.374,-22.767,16.113,-26.917,
00:00:06:683,0.082,-0.942,-0.375,-11.78,15.014,-25.757,
00:00:06:700,0.076,-0.963,-0.386,-9.827,12.817,-25.33,
00:00:06:716,0.081,-0.965,-0.41,-18.982,16.418,-27.344,
00:00:06:733,0.076,-0.954,-0.392,-32.654,24.658,-28.443,
00:00:06:750,0.085,-0.938,-0.383,-30.335,27.038,-25.635,
00:00:06:766,0.088,-0.968,-0.37,-57.19,28.259,-27.894,
00:00:06:783,0.087,-0.947,-0.366,-68.36,22.949,-27.1,
00:00:06:800,0.089,-0.953,-0.357,-41.932,18.554,-33.081,
00:00:06:816,0.081,-0.975,-0.366,-6.653,14.953,-41.687,
00:00:06:833,0.087,-1.004,-0.385,-11.231,17.15,-55.115,flipLH
00:00:06:850,0.083,-1.007,-0.397,-21.485,19.104,-67.017,
00:00:06:866,0.08,-1.013,-0.384,-47.12,28.747,-76.05,
00:00:06:883,0.081,-1.005,-0.365,-38.147,31.921,-81.849,
00:00:06:900,0.086,-0.998,-0.356,-33.814,30.639,-91.736,
00:00:06:916,0.063,-0.974,-0.336,-15.87,14.831,-113.16,
00:00:06:933,0.061,-0.97,-0.356,-0.306,11.108,-119.812,
00:00:06:950,0.04,-0.93,-0.355,23.071,14.526,-122.01,
00:00:06:966,0.042,-0.916,-0.361,62.744,18.005,-111.268,
00:00:06:983,0.031,-0.973,-0.371,27.343,18.432,-94.239,
00:00:07:0,0.027,-0.895,-0.343,12.512,5.859,-47.608,
00:00:07:16,0.024,-0.936,-0.363,45.959,1.159,-40.467,
00:00:07:33,0.028,-0.939,-0.361,17.822,-1.831,-36.255,
00:00:07:50,0.035,-0.917,-0.355,-25.269,-6.104,-27.466,
00:00:07:66,0.037,-0.907,-0.345,-64.27,-9.644,-16.968,
00:00:07:83,-3.644,-2.76,1.928,6895.107,2948.217,1122.71,
00:00:07:100,0.041,-0.929,-0.33,-18.372,-19.288,-7.752,
00:00:07:116,0.035,-0.976,-0.346,4.394,-20.752,-15.259,
00:00:07:133,0.036,-0.968,-0.344,-2.137,-23.194,-18.921,
00:00:07:150,0.03,-0.992,-0.35,-9.4,-23.377,-30.335,
00:00:07:166,0.037,-0.993,-0.355,-37.781,-17.945,-36.438,
00:00:07:183,0.037,-0.973,-0.346,-45.96,-18.189,-37.842,
00:00:07:200,0.061,-0.97,-0.347,-41.016,-13.733,-40.406,
00:00:07:216,0.026,-0.964,-0.343,-32.288,-10.804,-40.101,
00:00:07:233,0.027,-0.978,-0.355,7.629,-6.287,-42.786,
00:00:07:250,0.025,-1.004,-0.357,2.319,-2.381,-46.204,
00:00:07:266,0.024,-1,-0.352,0.671,3.295,-49.073,
00:00:07:283,0.029,-1.004,-0.342,-17.823,13.244,-61.036,
00:00:07:300,0.033,-1.014,-0.322,-22.828,10.681,-61.402,
00:00:07:316,0.036,-0.994,-0.315,-24.048,7.812,-63.416,
00:00:07:333,0.037,-1.005,-0.319,-14.039,4.516,-70.74,
00:00:07:350,0.032,-1.011,-0.332,-9.827,1.953,-78.309,
00:00:07:366,0.036,-1.05,-0.339,-80.506,-5.982,-117.92,
00:00:07:383,0.036,-1.042,-0.336,-95.093,-6.348,-132.019,
00:00:07:400,0.031,-1.039,-0.329,-112.366,-10.865,-140.809,
00:00:07:416,0.028,-1.036,-0.304,-135.315,-11.353,-147.522,
00:00:07:433,0.026,-1.057,-0.28,-149.72,-14.588,-153.443,
00:00:07:450,-0.009,-1.12,-0.251,-239.747,-45.227,-208.68,
00:00:07:466,-0.022,-1.084,-0.271,-294.739,-56.458,-218.262,
00:00:07:483,-0.034,-1.06,-0.257,-334.107,-60.242,-217.957,
00:00:07:500,-0.045,-1.069,-0.277,-387.635,-51.819,-217.713,
00:00:07:516,-0.083,-1.109,-0.256,-493.47,-34.302,-208.619,
00:00:07:533,-0.105,-1.137,-0.24,-666.626,-14.161,-191.102,
00:00:07:550,-0.079,-1.124,-0.181,-828.553,-28.626,-155.701,
00:00:07:566,-0.078,-1.078,-0.14,-942.566,-55.726,-137.696,
00:00:07:583,-0.089,-1.001,-0.087,-1017.395,-85.816,-117.432,
00:00:07:600,-0.087,-0.996,-0.075,-1113.038,-92.041,-126.587,
00:00:07:616,-0.092,-0.995,-0.058,-1251.16,-94.483,-117.127,
00:00:07:633,-0.092,-0.873,0.132,-1361.145,-91.675,-94.178,
00:00:07:650,-0.096,-0.887,0.138,-1327.637,-92.591,-100.159,
00:00:07:666,-0.122,-0.803,0.222,-1163.941,-91.004,-114.808,
00:00:07:683,-0.124,-0.993,0.237,-1222.107,-84.839,-121.827,
00:00:07:700,-0.1,-0.915,0.24,-1332.032,-83.558,-133.789,
00:00:07:716,-0.102,-0.879,0.251,-1420.838,-74.463,-126.648,
00:00:07:733,-0.073,-0.77,0.32,-1472.229,-49.988,-101.502,
00:00:07:750,-0.071,-0.73,0.385,-1424.622,-21.119,-103.455,
00:00:07:766,-0.063,-0.785,0.375,-1485.718,-4.395,-94.117,
00:00:07:783,-0.025,-0.752,0.476,-1733.399,39.062,-91.492,
00:00:07:800,0.001,-0.625,0.479,-1744.69,76.599,-80.933,
00:00:07:816,0,-0.668,0.543,-1547.12,91.247,-74.769,
00:00:07:833,-0.015,-0.728,0.567,-1386.414,109.13,-84.046,
00:00:07:850,-0.038,-0.673,0.577,-1342.225,158.752,-72.754,
00:00:07:866,-0.051,-0.505,0.649,-1229.676,196.96,-61.097,
00:00:07:883,-0.048,-0.49,0.627,-1190.247,243.042,-44.434,
00:00:07:900,-0.07,-0.436,0.746,-1299.622,288.635,-29.175,
00:00:07:916,-0.119,-0.265,0.77,-1401.124,374.694,-36.744,
00:00:07:933,-0.134,-0.147,0.848,-1132.081,388.488,-36.866,
00:00:07:950,-0.144,-0.222,0.896,-795.899,432.129,-35.279,
00:00:07:966,-0.178,-0.112,0.927,-368.226,485.229,-10.804,
00:00:07:983,-0.145,-0.064,1.04,252.197,492.981,16.723,
00:00:08:0,-0.081,-0.159,1.081,589.599,486.938,74.585,
00:00:08:16,-0.056,-0.071,0.966,549.316,496.826,133.361,
00:00:08:33,0.002,-0.244,1.001,393.921,439.148,182.556,
00:00:08:50,0.147,-0.318,1.024,70.19,394.897,204.773,
00:00:08:66,0.188,-0.508,1.146,-162.049,357.727,166.137,
00:00:08:83,0.193,-0.578,0.973,-121.094,296.142,36.132,
00:00:08:100,0.225,-0.616,1.552,-295.166,208.74,20.019,
00:00:08:116,0.176,-0.722,1.702,-538.147,27.404,-98.389,
00:00:08:133,0.095,-0.059,1.482,7.995,-156.434,-73.609,
00:00:08:150,0.054,-0.422,1.328,260.376,-288.086,-42.42,
00:00:08:166,0.047,-0.016,1.159,404.907,-366.7,16.845,
00:00:08:183,0.064,-0.351,1.052,434.387,-416.687,26.672,
00:00:08:200,0.032,-0.341,0.933,160.4,-397.95,28.137,
00:00:08:216,0.048,-0.237,0.951,42.175,-347.107,26.367,
00:00:08:233,-0.01,-0.296,0.843,100.708,-299.866,18.005,
00:00:08:250,-0.007,-0.388,0.846,699.829,-255.738,32.714,
00:00:08:266,0.018,-0.437,0.853,843.444,-218.995,25.634,
00:00:08:283,0.014,-0.351,0.755,949.157,-200.135,26.184,
00:00:08:300,0.003,-0.398,0.644,1114.807,-185.059,21.606,
00:00:08:316,0.009,-0.47,0.641,1233.337,-170.655,35.888,
00:00:08:333,0.005,-0.571,0.604,1734.008,-85.022,4.089,
00:00:08:350,0.008,-0.595,0.565,1924.133,-67.322,-14.832,
00:00:08:366,0.036,-0.567,0.494,1999.694,-65.918,-20.752,
00:00:08:383,-0.007,-0.574,0.393,1999.694,-78.186,-6.104,
00:00:08:400,-0.02,-0.751,0.241,1999.694,-106.69,7.446,
00:00:08:416,-0.045,-0.948,0.174,1999.694,-110.047,45.471,
00:00:08:433,-0.064,-0.979,0.09,1907.837,-89.417,90.21,
00:00:08:450,-0.111,-1.134,0.001,1539.367,-49.256,97.351,
00:00:08:466,-0.058,-1.253,-0.048,1464.965,-48.279,83.129,
00:00:08:483,-0.064,-1.107,-0.137,875.122,-76.05,42.602,
00:00:08:500,-0.01,-0.997,-0.163,951.843,-81.482,25.634,
00:00:08:516,0.007,-0.981,-0.216,1106.201,-78.919,-1.465,
00:00:08:533,-0.01,-1.184,-0.256,989.074,-77.393,-4.456,
00:00:08:550,0.004,-1.106,-0.261,624.511,-71.961,4.943,
00:00:08:566,0.025,-0.959,-0.317,455.993,-70.984,10.559,
00:00:08:583,0.003,-1.056,-0.365,342.651,-72.693,3.479,
00:00:08:600,-0.004,-1.018,-0.415,224.548,-64.515,0.61,
00:00:08:616,-0.014,-1.02,-0.425,138.549,-43.396,-0.733,
00:00:08:633,-0.007,-1,-0.416,93.139,-30.335,-9.4,
00:00:08:650,-0.015,-0.986,-0.396,99.975,3.601,-19.043,
00:00:08:666,0.008,-1.007,-0.38,43.151,5.31,-26.307,
00:00:08:683,0.005,-0.945,-0.388,38.33,4.333,-33.631,
00:00:08:700,0.009,-1.001,-0.386,26.367,3.112,-46.082,
00:00:08:716,0.001,-0.99,-0.395,-25.208,0.61,-54.017,
00:00:08:733,0.019,-0.969,-0.377,-36.255,-1.343,-57.312,
00:00:08:750,0.024,-1.035,-0.367,-69.642,-2.93,-75.318,
00:00:08:766,0.055,-1.019,-0.313,-123.047,-25.696,-97.229,
00:00:08:783,0.071,-0.937,-0.324,-72.876,-47.425,-119.568,
00:00:08:800,0.061,-0.981,-0.312,-37.293,-72.876,-137.818,
00:00:08:816,0.05,-0.956,-0.344,-25.208,-87.83,-135.743,
00:00:08:833,0.045,-0.954,-0.286,-6.287,-149.598,-143.677,
00:00:08:850,0.027,-0.934,-0.337,41.381,-162.415,-138.245,
00:00:08:866,0.006,-1.008,-0.334,30.334,-174.012,-140.259,
00:00:08:883,0.002,-0.99,-0.369,-49.439,-178.711,-136.78,
00:00:08:900,-0.017,-1.04,-0.399,-191.102,-174.927,-133.912,
00:00:08:916,-0.027,-0.924,-0.376,-209.107,-165.284,-95.459,
00:00:08:933,-0.014,-0.932,-0.38,-154.419,-150.147,-112.549,
00:00:08:950,-0.023,-0.971,-0.4,-130.738,-146.851,-102.845,
00:00:08:966,-0.017,-1.016,-0.344,-191.102,-141.541,-108.643,
00:00:08:983,-0.011,-0.919,-0.38,-178.528,-135.01,-95.948,
00:00:09:0,-0.021,-0.875,-0.34,-58.106,-123.108,-86.792,
00:00:09:16,-0.026,-0.941,-0.315,23.742,-116.394,-81.482,
00:00:09:33,-0.037,-0.933,-0.298,71.472,-114.685,-73.609,
00:00:09:50,-0.036,-0.934,-0.299,117.309,-117.493,-67.627,
00:00:09:66,-0.05,-0.981,-0.306,116.211,-119.751,-73.365,
00:00:09:83,-0.049,-0.997,-0.32,55.114,-123.475,-68.482,
00:00:09:100,-0.045,-0.954,-0.337,-1.893,-122.254,-62.928,
00:00:09:116,-0.054,-0.966,-0.322,-48.157,-120.85,-54.871,
00:00:09:133,-0.055,-0.931,-0.327,-65.491,-116.578,-43.396,
00:00:09:150,-0.062,-0.944,-0.301,-66.346,-110.474,-30.579,
00:00:09:166,-0.058,-0.992,-0.322,-90.21,-109.742,-25.513,
00:00:09:183,-0.049,-1.007,-0.328,-174.988,-114.014,-18.677,
00:00:09:200,-0.044,-0.949,-0.34,-205.262,-121.46,-19.41,
00:00:09:216,-0.036,-0.901,-0.328,-140.381,-117.554,-11.963,
00:00:09:233,-0.033,-0.895,-0.322,-71.595,-116.456,-4.212,
00:00:09:250,-0.043,-0.907,-0.336,8.3,-105.225,11.169,
00:00:09:266,-0.034,-0.929,-0.355,84.167,-93.995,20.446,
00:00:09:283,-0.049,-0.983,-0.36,107.116,-84.29,15.38,
00:00:09:300,-0.042,-1.03,-0.369,111.999,-73.182,4.699,
00:00:09:316,-0.031,-1.006,-0.363,101.806,-61.524,-3.907,
00:00:09:333,-0.033,-0.999,-0.367,90.454,-56.458,-14.161,
00:00:09:350,-0.032,-0.994,-0.395,87.036,-42.42,-20.752,
00:00:09:366,-0.025,-0.981,-0.399,64.453,-23.56,-22.583,
00:00:09:383,-0.032,-0.944,-0.384,69.702,-4.09,-17.823,
00:00:09:400,-0.03,-0.975,-0.379,76.294,12.756,-8.423,
00:00:09:416,-0.025,-0.964,-0.377,74.951,22.338,-1.16,
00:00:09:433,-0.026,-1,-0.4,84.411,36.071,-1.343,
00:00:09:450,-0.024,-1.051,-0.414,47.729,47.851,-7.813,
00:00:09:466,-0.02,-1.048,-0.433,7.69,65.368,-18.799,
00:00:09:483,-0.008,-1.034,-0.409,-27.1,80.993,-26.001,
00:00:09:500,-0.006,-0.998,-0.379,-39.185,94.116,-34.363,
00:00:09:516,0,-0.975,-0.354,-2.137,99.487,-34.852,
00:00:09:533,0.003,-0.972,-0.34,29.724,98.755,-36.377,
00:00:09:550,0.014,-0.986,-0.346,31.25,94.97,-41.382,
00:00:09:566,0.023,-0.979,-0.369,28.381,95.581,-40.528,
00:00:09:583,0.027,-0.992,-0.366,14.343,97.534,-42.969,
00:00:09:600,0.04,-0.989,-0.368,-17.09,97.717,-40.162,
00:00:09:616,0.052,-0.969,-0.348,-33.631,97.839,-35.279,
00:00:09:633,0.05,-0.969,-0.341,-0.245,93.872,-33.57,
00:00:09:650,0.056,-0.992,-0.327,21.484,89.721,-31.922,
00:00:09:666,0.047,-1.008,-0.321,22.705,81.481,-28.565,
00:00:09:683,0.045,-1.02,-0.302,15.136,75.561,-25.635,
00:00:09:700,0.037,-1.015,-0.293,-15.87,66.955,-26.978,
00:00:09:716,0.027,-0.969,-0.286,-44.068,57.922,-15.809,
00:00:09:733,0.019,-0.985,-0.284,-60.059,50.231,-34.363,
00:00:09:750,0.001,-0.967,-0.295,-58.594,38.818,-34.729,
00:00:09:766,-0.011,-0.974,-0.278,-71.656,33.569,-32.105,
00:00:09:783,-0.028,-0.983,-0.276,-98.389,24.169,-36.622,
00:00:09:800,-0.04,-0.994,-0.271,-119.996,13.244,-45.838,
00:00:09:816,-0.057,-0.957,-0.261,-112.427,-2.381,-51.27,
00:00:09:833,-0.075,-0.973,-0.253,-85.694,-13.367,-59.205,
00:00:09:850,-0.084,-0.98,-0.24,-95.52,-28.565,-60.303,
00:00:09:866,-0.106,-0.947,-0.252,-86.304,-44.678,-63.782,
00:00:09:883,-0.122,-0.95,-0.264,-64.637,-48.096,-63.538,
00:00:09:900,-0.132,-0.954,-0.287,-60.791,-45.227,-59.876,
00:00:09:916,-0.13,-0.98,-0.288,-73.609,-37.72,-60.914,
00:00:09:933,-0.119,-0.992,-0.3,-94.056,-31.25,-60.975,
00:00:09:950,-0.107,-1.017,-0.277,-105.591,-30.213,-59.693,
00:00:09:966,-0.092,-1.011,-0.272,-129.639,-24.903,-57.984,
00:00:09:983,-0.089,-0.979,-0.258,-109.375,-20.081,-55.848,
00:00:10:0,-0.108,-0.982,-0.238,-85.694,-15.198,-53.833,
00:00:10:16,-0.134,-0.991,-0.224,-89.173,-13.733,-50.049,
00:00:10:33,-0.153,-0.987,-0.233,-121.888,-14.527,-47.12,
00:00:10:50,-0.162,-1,-0.224,-170.777,-19.837,-42.969,
00:00:10:66,-0.189,-0.972,-0.248,-178.528,-22.889,-35.096,
00:00:10:83,-0.194,-0.952,-0.248,-167.176,-16.907,-23.865,
00:00:10:100,-0.205,-0.947,-0.24,-132.752,-7.203,-17.518,
00:00:10:116,-0.212,-0.971,-0.262,-82.032,14.343,-9.888,
00:00:10:133,-0.195,-1.017,-0.281,-70.069,37.536,5.004,
00:00:10:150,-0.175,-1.068,-0.303,-105.042,58.654,3.479,
00:00:10:166,-0.142,-1.069,-0.32,-122.254,87.219,3.051,
00:00:10:183,-0.111,-1.064,-0.305,-136.475,111.816,6.225,
00:00:10:200,-0.084,-1.051,-0.291,-150.391,134.521,9.399,
00:00:10:216,-0.046,-0.968,-0.294,-115.723,161.255,14.953,
00:00:10:233,-0.027,-0.968,-0.308,-51.331,190.49,16.906,
00:00:10:250,-0.009,-1.018,-0.317,-26.185,218.139,19.47,
00:00:10:266,0.003,-1.002,-0.342,-28.565,247.924,21.179,
00:00:10:283,0.014,-1.002,-0.318,-27.222,271.972,21.911,
00:00:10:300,0.022,-0.981,-0.308,-4.578,293.274,24.597,
00:00:10:316,0.025,-0.959,-0.266,46.814,303.772,31.127,
00:00:10:333,0.023,-0.98,-0.224,100.28,305.42,32.409,
00:00:10:350,0.011,-0.991,-0.226,133.3,299.804,31.982,
00:00:10:366,0.006,-1.011,-0.226,150.756,298.523,35.339,
00:00:10:383,0.003,-1.006,-0.252,149.17,302.734,38.879,
00:00:10:400,-0.003,-1.016,-0.244,157.592,307.739,41.32,
00:00:10:416,-0.015,-1.024,-0.237,138.794,306.274,44.128,
00:00:10:433,-0.011,-0.955,-0.222,183.044,301.635,54.626,
00:00:10:450,-0.005,-0.996,-0.224,240.539,291.442,68.847,
00:00:10:466,0.005,-0.987,-0.279,213.806,282.714,83.984,
00:00:10:483,0.022,-0.976,-0.301,171.875,279.358,91.919,
00:00:10:500,0.025,-1.008,-0.327,150.024,286.132,98.449,
00:00:10:516,0.071,-0.949,-0.256,201.904,268.432,119.384,
00:00:10:533,0.074,-0.943,-0.274,234.069,254.394,116.211,
00:00:10:550,0.088,-0.978,-0.309,212.829,238.159,94.848,
00:00:10:566,0.093,-1.029,-0.309,143.798,215.576,71.472,
00:00:10:583,0.087,-1.001,-0.312,48.461,192.138,53.711,
00:00:10:600,0.076,-0.964,-0.283,-15.442,171.325,34.668,
00:00:10:616,0.061,-0.905,-0.25,-26.123,148.498,26.306,
00:00:10:633,0.033,-0.952,-0.22,7.568,123.962,19.775,
00:00:10:650,0.001,-0.994,-0.164,4.821,99.243,17.883,
00:00:10:666,-0.022,-1.018,-0.212,29.419,71.899,-6.653,
00:00:10:683,-0.052,-1.091,-0.335,33.203,47.058,-39.551,
00:00:10:700,-0.007,-1.025,-0.453,-109.742,57.983,-11.048,
00:00:10:716,-0.074,-0.995,-0.349,-137.574,80.322,-5.188,
00:00:10:733,-0.037,-0.831,-0.114,26.428,101.44,58.715,
00:00:10:750,-0.155,-0.554,-0.372,650.207,115.356,114.685,
00:00:10:766,0.135,-1.285,-0.529,655.212,156.311,-13.55,
00:00:10:783,-0.129,-1.256,-0.25,-170.655,135.925,95.214,
00:00:10:800,-0.026,-0.735,-0.204,-333.985,134.155,96.252,
00:00:10:816,-0.089,-1.042,-0.204,-328.675,104.065,19.409,
00:00:10:833,-0.003,-0.857,-0.152,15.319,39.672,21.179,
00:00:10:850,0.014,-1.072,-0.175,127.99,7.568,24.231,
00:00:10:866,-0.018,-1.061,-0.24,92.407,-9.522,28.381,
00:00:10:883,-0.024,-1.049,-0.254,79.223,-24.109,8.911,
00:00:10:900,-0.019,-1.103,-0.295,64.819,-31.556,-15.625,
00:00:10:916,-0.012,-0.983,-0.315,99.06,-27.466,-9.4,
00:00:10:933,-0.023,-0.898,-0.315,241.027,-24.781,-1.343,
00:00:10:950,-0.006,-0.966,-0.409,353.027,-10.01,34.851,
00:00:10:966,0.003,-0.945,-0.406,274.414,11.352,54.382,
00:00:10:983,0.012,-0.952,-0.376,182.983,27.282,61.95,
00:00:11:0,-0.003,-0.974,-0.336,123.23,23.315,62.194,
00:00:11:16,0.024,-1.032,-0.346,49.499,7.812,29.113,
00:00:11:33,0.016,-1.006,-0.342,45.349,-5.555,1.403,
00:00:11:50,0.012,-0.959,-0.356,105.041,-13.977,-28.321,
00:00:11:66,0.011,-1.045,-0.359,107.971,-32.471,-64.454,
00:00:11:83,0.011,-0.914,-0.365,104.736,-43.457,-51.697,
00:00:11:100,-0.026,-0.928,-0.389,121.154,-43.335,-39.795,
00:00:11:116,-0.016,-0.921,-0.376,64.453,-33.997,-14.344,
00:00:11:133,-0.027,-0.893,-0.409,46.386,-25.574,18.127,
00:00:11:150,-0.023,-0.913,-0.454,12.573,-14.771,39.856,
00:00:11:166,-0.031,-0.921,-0.49,-25.94,7.507,45.471,
00:00:11:183,-0.01,-0.925,-0.429,-27.649,13.366,39.856,
00:00:11:200,0.004,-0.938,-0.424,-27.527,16.296,25.878,
00:00:11:216,0.031,-0.945,-0.361,-24.72,6.286,20.996,
00:00:11:233,0.008,-0.96,-0.385,38.391,0.854,4.699,
00:00:11:250,0.028,-0.982,-0.383,50.354,-2.442,1.77,
00:00:11:266,0.057,-1.046,-0.383,25.512,-2.625,-14.893,
00:00:11:283,0.059,-0.962,-0.379,-23.499,-3.357,-2.625,
00:00:11:300,0.102,-0.929,-0.365,-109.436,-0.367,-5.982,
00:00:11:316,-0.005,-0.991,-0.431,-68.055,-5.31,-25.879,
00:00:11:333,0.046,-0.947,-0.408,-107.422,8.117,-27.1,
00:00:11:350,0.051,-0.972,-0.385,-86.365,11.169,-10.56,
00:00:11:366,0.03,-1.017,-0.342,-91.431,0.61,-12.207,
00:00:11:383,-0.024,-0.882,-0.462,-58.899,11.901,-26.246,
00:00:11:400,0.017,-0.976,-0.421,-14.283,10.07,-0.367,
00:00:11:416,0.006,-0.977,-0.502,-62.745,23.559,2.746,
00:00:11:433,0.018,-0.962,-0.415,-153.504,56.518,12.329,
00:00:11:450,0.007,-0.971,-0.389,-115.723,85.327,-0.123,
00:00:11:466,0.002,-0.966,-0.33,-75.379,85.998,-8.667,
00:00:11:483,0.02,-0.845,-0.333,1.22,80.993,-8.728,
00:00:11:500,0.01,-0.936,-0.381,97.778,77.758,-3.785,
00:00:11:516,0.016,-0.968,-0.409,100.647,87.402,8.483,
00:00:11:533,0.013,-1.005,-0.447,52.185,98.755,19.47,
00:00:11:550,-0.008,-1.03,-0.4,11.901,109.619,28.991,
00:00:11:566,-0.001,-0.955,-0.361,29.174,128.54,25.207,
00:00:11:583,0.008,-0.915,-0.292,151.672,125.183,16.723,
00:00:11:600,0.03,-0.938,-0.268,288.818,101.745,6.469,
00:00:11:616,0.035,-0.967,-0.382,344.665,17.944,-19.104,
00:00:11:633,0.031,-0.996,-0.399,228.393,6.836,-14.649,
00:00:11:650,0.013,-0.942,-0.412,122.436,13.305,-9.461,
00:00:11:666,0.051,-0.915,-0.408,129.516,25.573,-6.958,
00:00:11:683,0.036,-1.021,-0.358,49.621,13.794,-3.418,
00:00:11:700,-0.003,-0.977,-0.442,24.414,-40.528,-17.334,
00:00:11:716,-0.032,-0.945,-0.471,18.92,-43.946,-26.307,
00:00:11:733,0.008,-0.905,-0.469,33.203,-33.02,-27.1,
00:00:11:750,0.024,-0.939,-0.438,-1.709,-21.912,-33.997,
00:00:11:766,0.068,-0.844,-0.435,-0.428,-14.283,-23.133,
00:00:11:783,0.064,-0.93,-0.446,94.665,-30.823,-28.443,
00:00:11:800,0.066,-0.995,-0.51,101.562,-38.086,-25.635,
00:00:11:816,0.068,-1,-0.47,51.635,-20.813,-32.227,
00:00:11:833,0.05,-0.942,-0.419,2.746,-14.771,-26.551,
00:00:11:850,0.059,-0.898,-0.363,-39.429,-18.982,-30.152,
00:00:11:866,0.079,-0.825,-0.401,62.133,-38.575,-27.588,
00:00:11:883,0.055,-0.906,-0.407,81.848,-47.608,-26.246,
00:00:11:900,0.071,-0.902,-0.444,69.519,-43.641,-8.912,
00:00:11:916,0.068,-0.956,-0.427,17.7,-34.363,0.305,
00:00:11:933,0.083,-0.92,-0.422,-4.09,-32.349,7.263,
00:00:11:950,0.075,-1.006,-0.481,-10.315,-29.236,-0.611,
00:00:11:966,0.052,-0.928,-0.487,-36.072,-28.321,5.371,
00:00:11:983,0.05,-0.942,-0.485,-32.593,-13.245,1.281,
00:00:12:0,0.049,-0.926,-0.448,-25.818,-8.057,2.685,
00:00:12:16,0.049,-0.916,-0.416,-37.537,-3.479,-1.831,
00:00:12:33,0.062,-0.898,-0.413,-51.148,-8.789,-1.099,
00:00:12:50,0.057,-0.881,-0.434,-84.961,-10.865,5.127,
00:00:12:66,0.074,-0.862,-0.444,-35.584,-2.076,6.103,
00:00:12:83,0.065,-0.968,-0.443,-30.64,-7.508,4.699,
00:00:12:100,0.064,-0.957,-0.406,-72.144,-3.907,4.821,
00:00:12:116,0.052,-0.972,-0.413,-59.449,-4.517,-2.686,
00:00:12:133,0.056,-0.978,-0.441,-85.755,-2.442,-5.005,
00:00:12:150,0.057,-0.936,-0.432,-109.681,8.667,-7.019,
00:00:12:166,0.072,-0.898,-0.425,-63.111,20.752,-9.522,
00:00:12:183,0.073,-0.923,-0.397,-28.931,22.827,-8.973,
00:00:12:200,0.064,-0.916,-0.391,-18.372,0.61,-9.217,
00:00:12:216,0.069,-0.933,-0.385,-18.311,10.009,-11.536,
00:00:12:233,0.069,-0.969,-0.399,-39.978,5.615,-14.649,
00:00:12:250,0.075,-0.957,-0.427,-56.702,2.746,-17.395,
00:00:12:266,0.067,-0.957,-0.431,-49.683,-1.648,-27.1,
00:00:12:283,0.066,-0.938,-0.429,-7.63,12.329,-35.096,
00:00:12:300,0.054,-0.98,-0.418,23.437,14.648,-41.626,
00:00:12:316,0.054,-0.97,-0.411,9.338,19.714,-43.641,
00:00:12:333,0.05,-0.962,-0.388,-5.799,15.502,-45.655,
00:00:12:350,0.041,-0.945,-0.368,-24.781,12.939,-45.96,
00:00:12:366,0.048,-0.929,-0.376,-16.297,5.92,-44.251,
00:00:12:383,0.051,-0.943,-0.385,17.639,-0.55,-47.364,
00:00:12:400,0.049,-0.953,-0.396,1.342,-0.733,-41.748,
00:00:12:416,0.05,-0.935,-0.395,-5.86,2.929,-34.852,
00:00:12:433,0.048,-0.942,-0.415,-5.249,7.69,-28.382,
00:00:12:450,0.05,-0.964,-0.411,-9.156,9.704,-24.964,
00:00:12:466,0.055,-0.953,-0.428,-16.602,14.892,-30.945,
00:00:12:483,0.068,-0.999,-0.44,-3.113,20.507,-48.523,
00:00:12:500,0.074,-1.025,-0.452,4.882,25.695,-71.656,
00:00:12:516,0.065,-1.017,-0.451,3.112,37.292,-88.929,
00:00:12:533,0.061,-0.99,-0.428,-3.296,46.02,-104.126,
00:00:12:550,0.044,-0.993,-0.417,-3.54,48.278,-109.62,
00:00:12:566,0.038,-0.997,-0.423,-47.364,56.335,-114.441,
00:00:12:583,0.034,-1.001,-0.389,-67.81,61.401,-116.822,
00:00:12:600,0.033,-1.023,-0.389,-108.094,58.654,-121.582,
00:00:12:616,0.036,-1.027,-0.372,-168.885,52.429,-131.836,
00:00:12:633,0.037,-0.974,-0.382,-110.779,47.973,-137.269,
00:00:12:650,0.026,-1.051,-0.456,-118.592,56.945,-153.626,
00:00:12:666,0.029,-1.006,-0.376,-132.874,59.448,-158.753,
00:00:12:683,0.035,-1.027,-0.309,-146.851,53.039,-176.575,
00:00:12:700,0.032,-0.984,-0.282,-105.774,27.832,-192.261,
00:00:12:716,0.036,-0.974,-0.275,-62.867,-7.019,-201.233,
00:00:12:733,0.032,-1.006,-0.306,-95.459,-32.898,-205.323,
00:00:12:750,0.02,-0.992,-0.3,-112.793,-48.035,-206.971,
00:00:12:766,0.005,-0.97,-0.333,-155.335,-59.754,-201.05,
00:00:12:783,-0.005,-1.002,-0.338,-215.088,-60.791,-197.51,
00:00:12:800,-0.007,-0.963,-0.331,-252.808,-68.238,-196.167,
00:00:12:816,-0.022,-0.982,-0.337,-273.56,-78.37,-198.243,
00:00:12:833,-0.042,-0.969,-0.329,-286.56,-82.154,-198.975,flipLH
00:00:12:850,-0.057,-0.973,-0.318,-295.594,-88.135,-202.332,
00:00:12:866,-0.076,-0.958,-0.253,-284.607,-93.079,-211.853,
00:00:12:883,-0.098,-0.95,-0.273,-264.649,-98.328,-216.553,
00:00:12:900,-0.109,-0.935,-0.252,-221.253,-98.816,-219.544,
00:00:12:916,-0.113,-0.932,-0.263,-165.65,-110.169,-223.511,
00:00:12:933,-0.123,-0.944,-0.226,-151.978,-111.451,-224.976,
00:00:12:950,-0.122,-0.939,-0.204,-145.142,-113.77,-217.896,
00:00:12:966,-0.129,-0.917,-0.203,-140.564,-123.291,-206.665,
00:00:12:983,-0.136,-0.917,-0.188,-120.179,-127.686,-195.801,
00:00:13:0,-0.148,-0.96,-0.21,-114.991,-128.968,-181.214,
00:00:13:16,-0.163,-1,-0.213,-154.602,-116.333,-166.443,
00:00:13:33,-0.168,-1.084,-0.232,-298.34,-102.478,-147.522,
00:00:13:50,-0.185,-1.101,-0.235,-454.468,-93.628,-138.184,
00:00:13:66,-0.182,-1.122,-0.246,-609.864,-95.398,-124.329,
00:00:13:83,-0.19,-1.045,-0.181,-710.633,-99.366,-112,
00:00:13:100,-0.177,-1.04,-0.132,-820.008,-99.488,-99.61,
00:00:13:116,-0.152,-1.085,-0.112,-1055.542,-104.187,-81.91,
00:00:13:133,-0.12,-0.957,-0.028,-1374.451,-106.263,-41.016,
00:00:13:150,-0.116,-0.826,0.02,-1428.406,-114.93,-29.541,
00:00:13:166,-0.107,-0.899,0.075,-1431.58,-120.545,-21.119,
00:00:13:183,-0.117,-0.91,0.118,-1567.444,-100.403,-13.489,
00:00:13:200,-0.118,-0.936,0.194,-1725.464,-85.45,32.287,
00:00:13:216,-0.12,-0.823,0.294,-1804.505,-66.407,54.626,
00:00:13:233,-0.109,-0.863,0.335,-1900.696,-50.721,77.697,
00:00:13:250,-0.125,-0.68,0.312,-1784.546,-4.151,72.998,
00:00:13:266,-0.135,-0.776,0.358,-1381.348,33.813,34.057,
00:00:13:283,-0.138,-1.009,0.338,-1171.387,98.693,-6.531,
00:00:13:300,-0.158,-0.949,0.318,-1124.451,220.764,-38.086,
00:00:13:316,-0.168,-0.755,0.273,-974.732,370.3,-55.298,
00:00:13:333,-0.232,-0.764,0.195,-766.785,479.919,-2.381,
00:00:13:350,-0.124,-0.661,0.506,-785.096,564.331,79.589,
00:00:13:366,-0.12,-0.739,0.691,-775.879,550.109,129.943,
00:00:13:383,-0.157,-0.536,0.776,-801.697,576.66,157.043,
00:00:13:400,-0.115,-0.5,0.749,-523.926,557.434,134.46,
00:00:13:416,-0.154,-0.574,0.668,-291.687,583.801,135.131,
00:00:13:433,-0.034,-0.678,0.627,-242.554,606.933,125.976,
00:00:13:450,0.07,-0.658,0.712,-393.86,641.296,130.493,
00:00:13:466,0.157,-0.501,0.817,-314.515,633.422,115.112,
00:00:13:483,0.955,-0.676,0.438,-284.18,619.384,-92.53,
00:00:13:500,-0.558,-1.819,1.074,-1012.452,437.011,-194.825,
00:00:13:516,0.14,-0.09,1.322,-1115.54,269.714,-117.493,
00:00:13:533,0.302,-0.175,1.373,47.607,14.465,-71.228,
00:00:13:550,0.209,-0.665,1.287,508.545,-161.988,-66.163,
00:00:13:566,0.144,-0.461,0.996,148.62,-211.731,-44.007,
00:00:13:583,0.108,-0.752,0.854,-170.411,-235.596,-84.229,
00:00:13:600,0.117,-0.211,0.811,-406.617,-159.913,-57.984,
00:00:13:616,0.115,-0.631,0.918,-324.585,-131.409,-74.28,
00:00:13:633,0.078,-0.486,0.939,-253.479,-102.723,-63.904,
00:00:13:650,0.094,-0.41,0.961,81.054,-97.413,-47.913,
00:00:13:666,0.11,-0.552,1.064,389.221,-135.071,-33.509,
00:00:13:683,0.077,-0.422,0.979,762.512,-163.941,-24.353,
00:00:13:700,0.09,-0.486,0.904,1168.945,-199.219,-22.339,
00:00:13:716,0.091,-0.421,0.862,1546.081,-221.436,-16.663,
00:00:13:733,0.084,-0.394,0.755,1992.065,-260.315,-49.866,
00:00:13:750,0.056,-0.55,0.58,1999.694,-309.632,-94.91,
00:00:13:766,0.076,-0.702,0.536,1999.694,-356.568,-122.376,
00:00:13:783,0.065,-0.745,0.448,1999.694,-350.708,-142.518,
00:00:13:800,0.016,-0.747,0.258,1999.694,-362,-168.335,
00:00:13:816,0.008,-0.889,0.163,1999.694,-374.085,-164.673,
00:00:13:833,-0.013,-0.916,0.038,1999.694,-368.226,-134.888,
00:00:13:850,-0.055,-0.992,-0.076,1979.004,-339.844,-117.188,
00:00:13:866,-0.057,-1.102,-0.166,1681.945,-278.504,-87.342,
00:00:13:883,-0.086,-1.122,-0.216,1293.701,-222.901,-55.176,
00:00:13:900,-0.055,-1.016,-0.223,1099.914,-166.626,-38.636,
00:00:13:916,-0.086,-0.954,-0.271,1055.42,-136.475,-34.974,
00:00:13:933,-0.072,-0.845,-0.276,1254.76,-140.992,-27.405,
00:00:13:950,-0.086,-1.079,-0.295,1248.474,-142.151,-30.03,
00:00:13:966,-0.126,-1.08,-0.308,967.407,-125.55,-34.79,
00:00:13:983,-0.067,-1.083,-0.268,668.823,-106.202,-26.673,
00:00:14:0,-0.049,-0.953,-0.27,517.089,-102.662,-20.447,
00:00:14:16,-0.057,-0.939,-0.343,501.831,-110.535,-0.55,
00:00:14:33,-0.063,-0.991,-0.402,440.185,-111.145,2.197,
00:00:14:50,-0.06,-0.973,-0.408,363.708,-92.041,29.602,
00:00:14:66,-0.055,-0.964,-0.41,310.73,-82.52,34.606,
00:00:14:83,-0.053,-0.972,-0.412,259.948,-71.778,39.062,
00:00:14:100,-0.039,-0.928,-0.435,250.61,-56.702,40.039,
00:00:14:116,-0.047,-0.991,-0.455,236.633,-35.95,33.874,
00:00:14:133,-0.028,-1.007,-0.496,158.386,-13.794,28.503,
00:00:14:150,-0.029,-0.992,-0.51,132.812,3.051,19.653,
00:00:14:166,-0.043,-1.041,-0.523,53.527,25.085,6.713,
00:00:14:183,-0.044,-0.984,-0.484,6.225,47.363,-1.709,
00:00:14:200,-0.044,-0.966,-0.461,17.944,59.692,-5.555,
00:00:14:216,-0.042,-0.968,-0.442,3.112,65.307,-5.799,
00:00:14:233,-0.028,-0.945,-0.428,53.283,70.678,-5.127,
00:00:14:250,-0.044,-0.981,-0.432,74.218,72.082,-10.193,
00:00:14:266,-0.053,-0.981,-0.457,57.312,75.805,-13.855,
00:00:14:283,-0.049,-1,-0.454,25.207,82.153,-17.64,
00:00:14:300,-0.052,-0.991,-0.468,-7.508,89.965,-22.095,
00:00:14:316,-0.04,-0.983,-0.443,-22.767,91.674,-22.583,
00:00:14:333,-0.033,-0.962,-0.413,-70.557,89.904,-25.757,
00:00:14:350,-0.022,-0.89,-0.437,-54.261,83.252,-21.302,
00:00:14:366,-0.025,-0.867,-0.432,20.935,81.176,-13.855,
00:00:14:383,-0.03,-0.919,-0.457,27.343,82.214,-9.156,
00:00:14:400,-0.019,-0.933,-0.483,11.108,86.853,-7.813,
00:00:14:416,-0.013,-0.973,-0.461,-30.274,91.125,-17.701,
00:00:14:433,-0.005,-0.984,-0.435,-101.929,91.674,-33.387,
00:00:14:450,-0.002,-0.949,-0.382,-159.852,82.275,-47.608,
00:00:14:466,0.005,-0.907,-0.362,-160.035,73.303,-59.205,
00:00:14:483,0.013,-0.852,-0.351,-82.52,52.49,-64.087,
00:00:14:500,0.01,-0.908,-0.358,-8.545,36.01,-66.956,
00:00:14:516,-0.002,-0.941,-0.382,-13.184,25.817,-67.2,
00:00:14:533,-0.011,-0.963,-0.361,-75.867,19.409,-67.139,
00:00:14:550,-0.028,-0.988,-0.366,-162.842,7.08,-69.519,
00:00:14:566,-0.048,-0.909,-0.352,-192.749,-4.456,-71.717,
00:00:14:583,-0.057,-0.905,-0.351,-124.085,-15.381,-77.515,
00:00:14:600,-0.071,-0.915,-0.356,-59.937,-27.039,-76.416,
00:00:14:616,-0.07,-0.973,-0.374,6.836,-31.067,-73.365,
00:00:14:633,-0.071,-0.996,-0.377,12.939,-37.171,-71.351,
00:00:14:650,-0.076,-1.001,-0.384,13.427,-35.645,-71.839,
00:00:14:666,-0.084,-0.989,-0.379,-12.818,-38.392,-74.402,
00:00:14:683,-0.08,-0.96,-0.391,-10.743,-37.659,-72.449,
00:00:14:700,-0.074,-0.955,-0.398,12.39,-36.927,-69.397,
00:00:14:716,-0.067,-0.959,-0.409,28.747,-33.509,-65.186,
00:00:14:733,-0.052,-0.958,-0.414,31.677,-24.598,-58.533,
00:00:14:750,-0.058,-0.961,-0.416,20.69,-12.635,-54.444,
00:00:14:766,-0.053,-0.964,-0.403,-4.578,-8.423,-50.599,
00:00:14:783,-0.062,-0.96,-0.399,-22.034,-7.081,-48.157,
00:00:14:800,-0.067,-0.938,-0.419,-13.245,-6.592,-47.547,
00:00:14:816,-0.075,-0.958,-0.414,-10.498,4.821,-44.251,
00:00:14:833,-0.078,-0.932,-0.406,-19.104,11.596,-40.223,
00:00:14:850,-0.089,-0.941,-0.383,-14.1,13.244,-38.636,
00:00:14:866,-0.092,-0.943,-0.388,-29.297,12.756,-34.546,
00:00:14:883,-0.094,-0.913,-0.415,-26.734,12.207,-31.617,
00:00:14:900,-0.087,-0.887,-0.418,-10.621,17.639,-27.527,
00:00:14:916,-0.099,-0.916,-0.436,10.803,29.296,-19.959,
00:00:14:933,-0.097,-0.909,-0.416,21.911,40.588,-5.188,
00:00:14:950,-0.107,-0.934,-0.404,40.466,49.621,0,
00:00:14:966,-0.103,-0.927,-0.406,38.574,54.443,2.929,
00:00:14:983,-0.102,-0.934,-0.391,43.945,57.128,10.253,
00:00:15:0,-0.086,-0.917,-0.387,45.044,64.27,9.948,
00:00:15:16,-0.125,-0.992,-0.432,61.096,69.397,-9.827,
00:00:15:33,-0.09,-1,-0.422,35.888,72.876,-19.227,
00:00:15:50,-0.09,-0.98,-0.443,52.49,71.044,-38.575,
00:00:15:66,-0.089,-0.975,-0.375,64.025,67.993,-28.748,
00:00:15:83,-0.057,-0.9,-0.339,90.576,57.312,-32.105,
00:00:15:100,-0.066,-0.922,-0.365,154.113,42.724,-31.189,
00:00:15:116,-0.058,-0.943,-0.389,167.358,26.184,-24.842,
00:00:15:133,-0.085,-0.957,-0.482,119.14,25.695,-21.546,
00:00:15:150,-0.105,-0.944,-0.504,7.934,44.86,-11.109,
00:00:15:166,-0.121,-0.858,-0.492,-34.058,73.242,3.784,
00:00:15:183,-0.123,-0.84,-0.457,48.095,96.496,18.92,
00:00:15:200,-0.143,-0.921,-0.406,63.842,106.506,25.756,
00:00:15:216,-0.144,-0.922,-0.413,85.327,111.633,25.268,
00:00:15:233,-0.131,-0.913,-0.438,146.423,112.06,27.771,
00:00:15:250,-0.127,-0.954,-0.476,153.686,117.675,30.639,
00:00:15:266,-0.115,-0.941,-0.514,108.154,135.437,37.719,
00:00:15:283,-0.092,-0.949,-0.49,54.382,159.607,42.297,
00:00:15:300,-0.074,-0.919,-0.47,30.7,174.377,52.124,
00:00:15:316,-0.059,-0.957,-0.449,30.578,175.109,58.105,
00:00:15:333,-0.049,-0.908,-0.433,24.841,171.447,59.204,
00:00:15:350,-0.048,-0.952,-0.395,54.016,168.884,45.837,
00:00:15:366,-0.055,-0.959,-0.395,65.795,152.649,40.039,
00:00:15:383,-0.046,-0.919,-0.361,93.75,141.235,27.221,
00:00:15:400,-0.043,-0.902,-0.402,148.071,121.46,10.62,
00:00:15:416,-0.036,-0.963,-0.413,116.638,106.628,0.244,
00:00:15:433,-0.035,-0.946,-0.425,45.959,93.566,-2.747,
00:00:15:450,-0.025,-0.982,-0.398,-16.846,83.068,-9.461,
00:00:15:466,-0.027,-0.96,-0.365,-59.998,66.162,-21.79,
00:00:15:483,-0.021,-0.92,-0.344,-5.494,41.198,-34.058,
00:00:15:500,-0.014,-0.969,-0.351,67.565,17.334,-39.795,
00:00:15:516,-0.016,-0.938,-0.385,102.539,1.953,-40.345,
00:00:15:533,-0.025,-0.943,-0.402,115.417,-9.156,-32.41,
00:00:15:550,-0.047,-0.966,-0.404,51.086,-18.677,-21.119,
00:00:15:566,-0.065,-0.954,-0.409,-36.255,-28.565,-4.212,
00:00:15:583,-0.068,-0.888,-0.414,-76.172,-43.58,13.732,
00:00:15:600,-0.085,-0.858,-0.453,-41.443,-51.209,26.367,
00:00:15:616,-0.086,-0.889,-0.496,18.188,-49.5,44.799,
00:00:15:633,-0.091,-0.968,-0.513,-8.301,-31.495,48.645,
00:00:15:650,-0.101,-1.069,-0.518,-149.537,-12.757,31.372,
00:00:15:666,0.033,-0.544,-0.643,-25.391,39.856,121.215,
00:00:15:683,-0.394,-1.043,-0.47,35.522,9.338,20.324,
00:00:15:700,0.091,-0.536,-0.576,285.705,36.865,141.601,
00:00:15:716,-0.182,-1.3,-0.514,-51.514,33.569,75.012,
00:00:15:733,-0.074,-0.524,-0.422,-324.83,84.411,164.611,
00:00:15:750,-0.08,-0.866,-0.357,-37.781,66.65,121.704,
00:00:15:766,-0.098,-1.037,-0.423,18.615,78.735,76.721,
00:00:15:783,-0.078,-1.085,-0.432,20.507,63.415,35.461,
00:00:15:800,-0.066,-1.149,-0.417,14.099,54.443,-10.498,
00:00:15:816,-0.04,-1.004,-0.401,23.193,37.536,-34.668,
00:00:15:833,-0.026,-0.932,-0.418,141.174,23.01,-51.209,
00:00:15:850,-0.026,-0.92,-0.412,201.782,11.474,-44.19,
00:00:15:866,-0.026,-0.864,-0.41,197.387,0.427,-14.283,
00:00:15:883,-0.024,-0.83,-0.444,174.072,0.854,14.831,
00:00:15:900,-0.036,-0.884,-0.544,113.403,11.84,33.264,
00:00:15:916,-0.047,-0.928,-0.546,4.455,30.883,52.429,
00:00:15:933,-0.022,-0.93,-0.566,-78.186,52.429,50.048,
00:00:15:950,-0.035,-0.98,-0.524,-106.202,72.753,38.574,
00:00:15:966,0.012,-0.998,-0.506,-100.464,78.308,12.146,
00:00:15:983,-0.011,-1.001,-0.456,-47.608,69.885,-5.249,
00:00:16:0,0.027,-0.952,-0.405,34.912,59.57,-11.841,
00:00:16:16,0.004,-0.945,-0.403,93.2,42.114,-16.419,
00:00:16:33,-0.028,-1.019,-0.422,87.951,10.192,0.671,
00:00:16:50,-0.042,-0.931,-0.408,69.885,7.019,17.273,
00:00:16:66,-0.067,-0.93,-0.424,117.553,-5.616,32.898,
00:00:16:83,-0.074,-0.878,-0.422,78.979,-12.024,44.067,
00:00:16:100,-0.105,-0.825,-0.412,147.644,-3.907,36.804,
00:00:16:116,-0.09,-0.825,-0.389,210.998,-5.799,52.856,
00:00:16:133,-0.064,-0.727,-0.39,286.804,-30.945,74.707,
00:00:16:150,-0.083,-0.864,-0.432,353.21,-62.012,81.604,
00:00:16:166,-0.042,-0.845,-0.509,304.26,-71.289,100.586,
00:00:16:183,-0.141,-1.293,-0.658,78.796,-31.006,-23.987,
00:00:16:200,-0.04,-0.879,-0.674,-94.361,23.559,65.002,
00:00:16:216,0.022,-0.794,-0.459,-142.395,33.081,17.334,
00:00:16:233,0.001,-0.784,-0.512,22.949,30.578,8.972,
00:00:16:250,0.043,-0.853,-0.503,68.298,13.794,18.005,
00:00:16:266,0.025,-0.89,-0.533,62.5,-0.916,-4.639,
00:00:16:283,0.034,-0.916,-0.548,27.038,-15.809,2.807,
00:00:16:300,0.024,-0.827,-0.552,5.188,-10.254,17.639,
00:00:16:316,-0.002,-1.013,-0.591,-1.648,4.211,5.798,
00:00:16:333,0,-0.991,-0.54,-103.943,7.446,17.395,
00:00:16:350,-0.003,-0.901,-0.51,-77.332,-4.09,14.526,
00:00:16:366,-0.011,-0.885,-0.492,-43.152,-16.358,-1.648,
00:00:16:383,-0.006,-0.871,-0.479,-10.804,-23.377,-12.33,
00:00:16:400,-0.009,-0.813,-0.48,53.894,-21.912,-14.466,
00:00:16:416,0.007,-0.722,-0.502,86.853,-7.447,9.826,
00:00:16:433,0.005,-0.949,-0.486,-48.951,-15.992,0.61,
00:00:16:450,0.03,-0.853,-0.46,-31.861,-26.551,4.76,
00:00:16:466,0.043,-0.861,-0.462,-26.246,-35.401,18.31,
00:00:16:483,0.067,-0.831,-0.491,45.898,-37.293,15.991,
00:00:16:500,0.045,-0.908,-0.545,74.951,-39.978,9.887,
00:00:16:516,0.027,-1.027,-0.619,3.784,-30.579,7.324,
00:00:16:533,0.019,-0.912,-0.577,-76.111,-8.973,10.864,
00:00:16:550,0.016,-0.897,-0.503,-65.491,-1.099,4.333,
00:00:16:566,0.028,-0.867,-0.46,-30.457,-10.865,-10.132,flipLH
00:00:16:583,0.021,-0.88,-0.465,16.601,-24.292,-20.813,
00:00:16:600,0.03,-0.892,-0.507,45.532,-43.519,-19.898,
00:00:16:616,0.004,-0.913,-0.532,8.85,-33.02,-15.137,
00:00:16:633,0.017,-0.894,-0.525,15.014,-22.095,-9.888,
00:00:16:650,0.061,-0.913,-0.496,-3.113,-10.498,-9.827,
00:00:16:667,0.041,-0.886,-0.474,-3.174,-6.714,-7.019,
00:00:16:683,0.057,-0.895,-0.467,-4.517,-4.09,-9.095,
00:00:16:700,0.057,-0.869,-0.464,6.652,-7.508,-9.278,
00:00:16:717,0.058,-0.877,-0.49,41.076,-12.085,-11.475,
00:00:16:733,0.05,-0.902,-0.501,38.086,-13.306,-11.841,
00:00:16:750,0.046,-0.91,-0.525,33.02,-17.823,-18.982,
00:00:16:767,0.034,-0.878,-0.541,35.888,-18.555,-16.114,
00:00:16:783,0.04,-0.944,-0.521,21.484,-16.175,-26.001,
00:00:16:800,0.03,-0.915,-0.509,5.127,-14.954,-28.077,
00:00:16:817,0.032,-0.872,-0.515,-13.55,-14.161,-37.171,
00:00:16:833,0.046,-0.858,-0.516,7.019,-11.414,-37.415,
00:00:16:850,0.053,-0.838,-0.518,50.537,-2.93,-32.105,
00:00:16:867,0.041,-0.907,-0.512,44.982,-1.77,-30.64,
00:00:16:883,0.048,-0.896,-0.5,25.39,-1.099,-28.87,
00:00:16:900,0.046,-0.907,-0.481,19.775,-4.883,-37.232,
00:00:16:917,0.052,-0.879,-0.479,7.934,-10.926,-39.551,
00:00:16:933,0.05,-0.869,-0.506,41.809,-12.696,-46.509,
00:00:16:950,0.053,-0.883,-0.518,55.236,-12.94,-45.227,
00:00:16:967,0.052,-0.876,-0.521,31.433,-11.658,-38.636,
00:00:16:983,0.057,-0.865,-0.556,78.064,-3.968,-37.659,
00:00:17:0,0.047,-0.888,-0.533,55.358,0.915,-33.509,
00:00:17:17,0.047,-0.895,-0.529,37.963,2.197,-33.631,
00:00:17:33,0.05,-0.924,-0.528,52.978,5.188,-47.486,
00:00:17:50,0.04,-0.961,-0.539,37.048,6.836,-61.951,
00:00:17:67,0.05,-0.927,-0.563,27.648,10.437,-78.186,
00:00:17:83,0.041,-0.941,-0.559,17.822,15.319,-95.643,
00:00:17:100,0.035,-0.911,-0.561,-6.836,25.512,-104.798,
00:00:17:117,0.033,-0.924,-0.552,-24.903,36.132,-106.873,
00:00:17:133,0.022,-0.926,-0.537,-46.692,44.799,-112.427,
00:00:17:150,0.018,-0.943,-0.546,-53.956,52.368,-118.042,
00:00:17:167,0,-0.954,-0.544,-66.956,57.739,-130.555,
00:00:17:183,-0.003,-0.971,-0.551,-95.52,63.476,-145.508,
00:00:17:200,-0.018,-0.981,-0.521,-101.136,66.65,-169.739,
00:00:17:217,-0.023,-0.971,-0.51,-112.671,66.04,-192.078,
00:00:17:233,-0.014,-0.973,-0.485,-111.756,56.579,-216.004,
00:00:17:250,-0.025,-0.956,-0.465,-100.342,44.799,-233.643,
00:00:17:267,-0.006,-0.943,-0.505,-100.647,35.278,-251.343,
00:00:17:283,-0.034,-0.959,-0.497,-181.336,36.682,-261.536,
00:00:17:300,-0.011,-0.927,-0.47,-265.198,35.4,-257.569,
00:00:17:317,-0.045,-0.952,-0.475,-325.501,30.151,-260.682,
00:00:17:333,-0.035,-0.995,-0.453,-362.549,18.676,-256.592,
00:00:17:350,-0.053,-0.998,-0.428,-427.735,11.718,-250.367,
00:00:17:367,-0.063,-1.024,-0.433,-500.794,10.315,-261.841,
00:00:17:383,-0.073,-1.035,-0.42,-578.736,2.868,-266.175,
00:00:17:400,-0.091,-0.979,-0.395,-608.033,-8.362,-257.019,
00:00:17:417,-0.089,-0.941,-0.363,-557.251,-22.767,-256.836,
00:00:17:433,-0.121,-0.977,-0.352,-511.353,-35.157,-252.076,
00:00:17:450,-0.161,-0.988,-0.374,-525.94,-36.56,-237.305,
00:00:17:467,-0.19,-1.004,-0.343,-600.892,-13.55,-219.849,
00:00:17:483,-0.208,-0.976,-0.311,-673.035,10.437,-198.426,
00:00:17:500,-0.206,-1.045,-0.316,-724.305,-6.775,-168.763,
00:00:17:517,-0.22,-0.943,-0.217,-762.94,-20.142,-146.485,
00:00:17:533,-0.196,-0.904,-0.195,-686.158,-24.414,-166.626,
00:00:17:550,-0.242,-0.968,-0.159,-553.894,-23.255,-192.688,
00:00:17:567,-0.244,-0.977,-0.102,-515.442,-9.4,-188.111,
00:00:17:583,-0.27,-1.046,-0.139,-567.81,-4.639,-175.904,
00:00:17:600,-0.275,-1.068,-0.154,-789.734,3.601,-164.429,
00:00:17:617,-0.226,-0.93,-0.077,-1001.77,13.366,-140.992,
00:00:17:633,-0.23,-0.8,-0.019,-934.327,22.338,-146.912,
00:00:17:650,-0.219,-0.882,0.028,-857.3,27.771,-143.799,
00:00:17:667,-0.223,-1.002,0.028,-1003.235,38.574,-116.7,
00:00:17:683,-0.19,-0.956,0.102,-1367.493,32.165,-70.435,
00:00:17:700,-0.172,-0.864,0.166,-1667.298,31.25,-32.166,
00:00:17:717,-0.181,-0.673,0.22,-1742.554,7.507,5.493,
00:00:17:733,-0.127,-0.629,0.216,-1577.637,-1.648,47.424,
00:00:17:750,-0.098,-0.689,0.321,-1349.427,9.338,74.157,
00:00:17:767,-0.117,-0.844,0.283,-1421.875,54.687,93.811,
00:00:17:783,-0.075,-0.951,0.292,-1695.557,103.942,98.144,
00:00:17:800,-0.067,-0.793,0.339,-1997.986,213.867,109.863,
00:00:17:817,-0.053,-0.571,0.491,-2000,287.902,139.465,
00:00:17:833,-0.038,-0.554,0.623,-1804.749,301.452,151.916,
00:00:17:850,-0.055,-0.607,0.696,-1273.377,293.64,130.737,
00:00:17:867,-0.088,-0.974,0.773,-1055.542,280.822,88.134,
00:00:17:883,-0.101,-0.821,0.706,-1071.961,326.66,79.467,
00:00:17:900,-0.115,-0.686,0.634,-1006.165,371.276,94.726,
00:00:17:917,-0.1,-0.248,0.641,-631.348,487.609,62.988,
00:00:17:933,-0.102,-0.384,0.824,134.948,485.229,77.087,
00:00:17:950,-0.067,-0.599,1.003,261.657,477.05,125.671,
00:00:17:967,-0.083,-0.331,0.948,371.765,457.824,180.481,
00:00:17:983,-0.017,-0.331,0.827,733.886,419.067,228.027,
00:00:18:0,0.008,-0.529,0.851,886.169,381.897,265.38,
00:00:18:17,0.072,-0.87,0.554,493.957,373.84,199.157,
00:00:18:33,0.766,-0.915,0.383,-26.551,384.582,10.925,
00:00:18:50,-0.19,-1.498,1.591,-986.878,269.226,-116.944,
00:00:18:67,-0.204,-0.358,1.372,358.154,-35.096,-143.25,
00:00:18:83,0.113,-0.354,1.094,655.7,-64.759,-45.96,
00:00:18:100,0.042,-0.993,1.183,820.922,-259.461,-47.974,
00:00:18:117,0.007,-0.693,0.739,594.909,-328.37,-45.166,
00:00:18:133,0.048,-0.516,0.678,359.192,-296.021,-29.847,
00:00:18:150,0.107,-0.401,0.715,565.185,-286.499,-14.039,
00:00:18:167,0.026,-0.628,0.656,716.064,-230.042,-43.885,
00:00:18:183,-0.075,-0.665,0.565,861.511,-177.43,-65.857,
00:00:18:200,0.031,-0.853,0.818,983.947,-219.849,-39.856,
00:00:18:217,-0.016,-0.653,0.737,1000.366,-192.749,-45.96,
00:00:18:233,-0.029,-0.583,0.622,1478.759,-216.37,-121.46,
00:00:18:250,0.002,-0.685,0.567,1754.272,-223.511,-185.303,
00:00:18:267,-0.072,-0.782,0.379,1716.674,-210.328,-183.411,
00:00:18:283,-0.077,-0.763,0.35,1748.474,-210.144,-141.053,
00:00:18:300,-0.058,-0.757,0.292,1902.588,-215.455,-147.217,
00:00:18:317,-0.096,-0.836,0.124,1999.694,-234.07,-138.855,
00:00:18:333,-0.101,-0.954,0.024,1999.694,-253.785,-109.253,
00:00:18:350,-0.113,-1.045,-0.135,1999.694,-230.469,-40.223,
00:00:18:367,-0.131,-1.062,-0.285,1999.023,-193.726,4.943,
00:00:18:383,-0.132,-0.983,-0.36,1810.119,-125.55,31.555,
00:00:18:400,-0.126,-0.939,-0.356,1620.178,-76.355,45.41,
00:00:18:417,-0.098,-0.964,-0.37,1539.123,-57.618,61.096,
00:00:18:433,-0.072,-1.147,-0.404,1363.159,-65.369,53.283,
00:00:18:450,-0.06,-1.178,-0.342,974.365,-84.778,38.635,
00:00:18:467,-0.053,-1.056,-0.362,643.31,-81.727,11.901,
00:00:18:483,-0.03,-0.921,-0.36,530.883,-84.839,5.859,
00:00:18:500,-0.026,-0.938,-0.43,529.052,-87.098,1.831,
00:00:18:517,-0.021,-0.982,-0.497,460.022,-73.731,9.826,
00:00:18:533,-0.032,-1.001,-0.509,319.152,-61.768,8.606,
00:00:18:550,-0.031,-0.992,-0.538,226.623,-31.434,-4.761,
00:00:18:567,-0.031,-0.994,-0.544,159.179,-10.865,-18.128,
00:00:18:583,-0.041,-0.96,-0.544,133.361,4.455,-28.199,
00:00:18:600,-0.051,-0.978,-0.55,126.892,23.559,-43.824,
00:00:18:617,-0.07,-0.986,-0.557,100.28,32.531,-57.007,
00:00:18:633,-0.062,-0.994,-0.552,52.124,42.785,-66.285,
00:00:18:650,-0.08,-0.988,-0.52,-18.86,50.964,-71.412,
00:00:18:667,-0.09,-0.96,-0.49,-92.53,63.11,-73.365,
00:00:18:683,-0.097,-0.935,-0.469,-126.648,64.636,-71.473,
00:00:18:700,-0.103,-0.922,-0.45,-136.963,60.852,-68.299,
00:00:18:717,-0.086,-0.936,-0.46,-132.691,60.974,-66.956,
00:00:18:733,-0.075,-0.901,-0.456,-120.911,56.823,-63.904,
00:00:18:750,-0.065,-0.911,-0.463,-101.38,54.504,-63.66,
00:00:18:767,-0.065,-0.847,-0.482,-61.951,49.621,-62.378,
00:00:18:783,-0.058,-0.88,-0.484,-7.874,50.659,-62.867,
00:00:18:800,-0.063,-0.911,-0.488,-19.776,43.335,-67.872,
00:00:18:817,-0.044,-0.872,-0.469,-6.226,42.419,-69.397,
00:00:18:833,-0.034,-0.922,-0.457,1.403,32.531,-77.759,
00:00:18:850,-0.033,-0.876,-0.455,19.348,16.723,-79.59,
00:00:18:867,-0.032,-0.843,-0.448,84.35,9.033,-77.393,
00:00:18:883,-0.042,-0.883,-0.452,135.131,2.929,-74.219,
00:00:18:900,-0.056,-0.894,-0.465,146.85,-2.991,-66.346,
00:00:18:917,-0.094,-0.902,-0.481,145.935,-2.991,-59.937,
00:00:18:933,-0.081,-0.913,-0.481,107.849,-4.761,-51.758,
00:00:18:950,-0.087,-0.892,-0.484,59.143,-5.433,-45.289,
00:00:18:967,-0.088,-0.861,-0.481,62.194,-5.555,-32.898,
00:00:18:983,-0.097,-0.898,-0.489,44.494,-7.081,-20.874,
00:00:19:0,-0.092,-0.895,-0.504,21.24,-8.545,-14.161,
00:00:19:17,-0.092,-0.905,-0.528,27.282,-4.09,-14.039,
00:00:19:33,-0.079,-0.913,-0.517,32.409,1.586,-17.518,
00:00:19:50,-0.08,-0.932,-0.522,32.043,3.356,-26.001,
00:00:19:67,-0.075,-0.938,-0.5,10.681,3.723,-29.053,
00:00:19:83,-0.07,-0.919,-0.503,-28.931,-1.038,-35.462,
00:00:19:100,-0.066,-0.896,-0.487,-47.73,-1.954,-37.476,
00:00:19:117,-0.057,-0.892,-0.485,-49.561,-8.24,-38.941,
00:00:19:133,-0.059,-0.92,-0.492,-57.129,-10.01,-44.373,
00:00:19:150,-0.056,-0.929,-0.485,-89.051,-13.733,-49.439,
00:00:19:167,-0.057,-0.935,-0.493,-121.277,-14.161,-58.106,
00:00:19:183,-0.061,-0.915,-0.47,-132.019,-17.518,-64.515,
00:00:19:200,-0.074,-0.913,-0.468,-116.15,-23.255,-68.36,
00:00:19:217,-0.087,-0.927,-0.458,-102.173,-31.25,-71.228,
00:00:19:233,-0.095,-0.936,-0.462,-97.107,-36.927,-79.041,
00:00:19:250,-0.106,-0.952,-0.46,-107.85,-44.251,-84.595,
00:00:19:267,-0.109,-0.966,-0.463,-140.686,-45.594,-91.98,
00:00:19:283,-0.095,-0.958,-0.461,-173.829,-46.387,-99.305,
00:00:19:300,-0.092,-0.924,-0.466,-166.993,-52.918,-100.953,
00:00:19:317,-0.076,-0.92,-0.464,-107.666,-49.073,-103.211,
00:00:19:333,-0.069,-0.891,-0.454,-66.834,-52.491,-101.258,
00:00:19:350,-0.053,-0.907,-0.438,-6.226,-50.293,-96.985,
00:00:19:367,-0.067,-0.927,-0.437,-7.569,-56.275,-91.309,
00:00:19:383,-0.065,-0.905,-0.434,-21.18,-63.111,-82.947,
00:00:19:400,-0.081,-0.926,-0.443,-35.035,-67.933,-80.445,
00:00:19:417,-0.095,-0.91,-0.463,-33.692,-69.519,-79.407,
00:00:19:433,-0.097,-0.914,-0.473,-10.376,-61.036,-78.37,
00:00:19:450,-0.11,-0.889,-0.467,15.808,-52.979,-73.975,
00:00:19:467,-0.118,-0.903,-0.477,48.339,-43.641,-69.581,
00:00:19:483,-0.128,-0.891,-0.473,56.64,-36.499,-59.144,
00:00:19:500,-0.132,-0.916,-0.484,50.598,-28.199,-53.65,
00:00:19:517,-0.133,-0.909,-0.48,31.189,-19.532,-47.852,
00:00:19:533,-0.129,-0.917,-0.495,26.55,-6.409,-43.824,
00:00:19:550,-0.117,-0.919,-0.506,35.583,9.094,-47.181,
00:00:19:567,-0.106,-0.943,-0.501,47.668,28.32,-47.852,
00:00:19:583,-0.098,-0.954,-0.481,43.762,36.743,-51.026,
00:00:19:600,-0.096,-0.959,-0.451,29.113,42.846,-56.275,
00:00:19:617,-0.106,-0.955,-0.439,-3.357,42.724,-57.862,
00:00:19:633,-0.116,-0.939,-0.42,-30.762,37.353,-59.693,
00:00:19:650,-0.126,-0.929,-0.435,-49.805,30.517,-60.12,
00:00:19:667,-0.14,-0.911,-0.438,-61.524,27.16,-57.007,
00:00:19:683,-0.141,-0.913,-0.458,-50.232,30.395,-54.444,
00:00:19:700,-0.153,-0.928,-0.465,-59.021,38.452,-53.162,
00:00:19:717,-0.159,-0.928,-0.456,-67.505,61.645,-50.171,
00:00:19:733,-0.173,-0.942,-0.428,-79.346,53.833,-48.279,
00:00:19:750,-0.181,-0.924,-0.421,-88.501,50.048,-45.777,
00:00:19:767,-0.179,-0.913,-0.403,-70.618,45.532,-40.955,
00:00:19:783,-0.179,-0.92,-0.413,-52.185,45.41,-32.349,
00:00:19:800,-0.174,-0.938,-0.426,-52.857,49.499,-25.147,
00:00:19:817,-0.161,-0.974,-0.433,-70.435,57.373,-22.034,
00:00:19:833,-0.152,-0.953,-0.433,-95.215,57.495,-15.259,
00:00:19:850,-0.124,-0.919,-0.432,-63.721,60.302,-12.085,
00:00:19:867,-0.114,-0.92,-0.416,-40.894,58.349,-6.592,
00:00:19:883,-0.096,-0.915,-0.411,-7.019,55.114,-5.188,
00:00:19:900,-0.075,-0.912,-0.413,-2.93,53.161,5.188,
00:00:19:917,-0.062,-0.923,-0.394,-12.757,43.518,9.338,
00:00:19:933,-0.05,-0.926,-0.413,5.004,38.574,10.376,
00:00:19:950,-0.055,-0.952,-0.399,-1.954,32.47,12.329,
00:00:19:967,-0.048,-0.923,-0.405,2.868,21.667,9.338,
00:00:19:983,-0.062,-0.93,-0.423,26.184,9.887,4.577,
00:00:20:0,-0.078,-0.93,-0.437,12.756,-1.709,12.207,
00:00:20:17,-0.085,-0.878,-0.47,0.976,-7.447,21.24,
00:00:20:33,-0.098,-0.848,-0.472,26.55,-1.099,39.611,
00:00:20:50,-0.123,-0.884,-0.485,95.214,12.939,48.889,
00:00:20:67,-0.161,-0.917,-0.472,96.984,20.019,69.824,
00:00:20:83,-0.17,-0.857,-0.436,100.28,33.203,80.566,
00:00:20:100,-0.183,-0.897,-0.446,115.783,31.921,83.74,
00:00:20:117,-0.192,-0.841,-0.449,149.536,32.348,94.97,
00:00:20:133,-0.205,-0.787,-0.512,242.859,52.002,97.534,
00:00:20:150,-0.218,-0.762,-0.492,312.255,82.275,120.544,
00:00:20:167,-0.22,-0.812,-0.503,370.849,114.502,139.831,
00:00:20:183,-0.224,-0.949,-0.452,318.847,147.094,154.419,
00:00:20:200,-0.269,-0.959,-0.413,202.942,175.781,160.705,
00:00:20:217,-0.268,-0.923,-0.38,236.267,197.754,112.182,
00:00:20:233,-0.296,-1.136,-0.371,179.748,185.974,76.904,
00:00:20:250,-0.233,-0.847,-0.385,137.695,181.091,94.726,
00:00:20:267,-0.259,-0.872,-0.409,201.11,182.19,105.163,
00:00:20:283,-0.228,-0.878,-0.47,171.325,190.551,126.587,
00:00:20:300,-0.211,-0.863,-0.526,123.474,206.176,154.907,
00:00:20:317,-0.165,-0.98,-0.52,39.55,234.68,156.799,
00:00:20:333,-0.191,-1.131,-0.474,-114.502,246.765,144.043,
00:00:20:350,-0.227,-1.042,-0.374,-158.509,237.915,104.248,
00:00:20:367,-0.266,-0.937,-0.321,-17.762,205.932,46.752,
00:00:20:383,-0.295,-0.917,-0.33,120.239,163.269,-11.658,
00:00:20:400,-0.273,-0.845,-0.309,187.866,120.117,-50.171,
00:00:20:417,-0.184,-0.882,-0.345,164.856,81.176,-63.05,
00:00:20:433,-0.159,-0.946,-0.389,19.47,56.091,-58.411,
00:00:20:450,-0.12,-0.949,-0.392,-141.114,34.912,-61.158,
00:00:20:467,-0.085,-0.878,-0.399,-172.364,10.986,-72.937,
00:00:20:483,-0.04,-0.849,-0.391,-24.17,-25.269,-87.281,
00:00:20:500,0.016,-0.865,-0.402,140.075,-62.378,-86.731,
00:00:20:517,0.066,-0.869,-0.504,255.127,-89.661,-75.135,
00:00:20:533,0.073,-0.918,-0.542,254.394,-94.788,-57.984,
00:00:20:550,0.057,-0.932,-0.591,149.597,-87.708,-32.349,
00:00:20:567,0.025,-0.872,-0.599,65.612,-81.849,-8.606,
00:00:20:583,-0.031,-0.839,-0.573,16.54,-84.168,10.559,
00:00:20:600,-0.064,-0.78,-0.622,39.856,-87.281,21.972,
00:00:20:617,-0.055,-0.771,-0.663,86.059,-80.384,27.282,
00:00:20:633,-0.02,-0.813,-0.692,69.397,-55.054,36.926,
00:00:20:650,0.007,-0.833,-0.739,12.939,-12.696,58.471,
00:00:20:667,0.052,-0.871,-0.709,-1.221,36.499,65.185,
00:00:20:683,0.039,-0.773,-0.508,205.322,26.062,128.357,
00:00:20:700,-0.021,-0.982,-0.629,96.801,35.888,108.764,
00:00:20:717,-0.004,-0.756,-0.546,-109.436,38.269,174.316,
00:00:20:733,0.083,-0.753,-0.573,-156.556,40.527,181.762,
00:00:20:750,0.006,-0.942,-0.577,-159.668,40.832,149.536,
00:00:20:767,0.026,-0.943,-0.583,-76.172,40.344,110.046,
00:00:20:783,-0.02,-1.001,-0.536,-20.813,25.329,55.786,
00:00:20:800,-0.053,-1.032,-0.582,15.93,1.403,13.916,
00:00:20:817,-0.054,-0.863,-0.447,16.479,-4.09,15.502,
00:00:20:833,-0.069,-0.923,-0.511,58.654,-4.273,20.019,
00:00:20:850,-0.055,-0.873,-0.518,52.246,4.028,39.184,
00:00:20:867,-0.026,-0.92,-0.568,102.6,6.408,43.335,
00:00:20:883,-0.023,-0.943,-0.603,36.743,-4.334,70.373,
00:00:20:900,-0.062,-0.782,-0.51,33.996,-6.043,99.67,
00:00:20:917,-0.026,-0.855,-0.537,65.795,-0.611,97.351,
00:00:20:933,-0.059,-0.968,-0.579,-30.945,5.127,94.238,
00:00:20:950,-0.027,-0.914,-0.576,-93.079,23.681,78.43,
00:00:20:967,-0.029,-0.918,-0.585,-66.834,30.151,56.03,
00:00:20:983,0.02,-0.895,-0.561,-18.311,33.63,42.907,
00:00:21:0,-0.025,-0.902,-0.53,47.18,39.55,38.818,
00:00:21:17,-0.012,-0.901,-0.475,72.143,32.653,33.142,
00:00:21:33,-0.058,-0.921,-0.455,83.557,16.723,26.123,
00:00:21:50,-0.017,-0.817,-0.426,121.765,-17.09,39.306,
00:00:21:67,-0.078,-1.074,-0.656,171.142,-20.63,-47.425,
00:00:21:83,0.011,-0.836,-0.656,98.144,9.033,-9.827,
00:00:21:100,-0.007,-0.753,-0.604,56.274,26.245,-18.372,
00:00:21:117,0.016,-0.787,-0.587,75.378,53.344,-5.249,
00:00:21:133,-0.024,-0.864,-0.511,-41.871,67.81,5.554,
00:00:21:150,0.041,-0.807,-0.469,-30.64,54.016,26.367,
00:00:21:167,0.012,-0.832,-0.428,-25.33,38.452,25.024,
00:00:21:183,0.01,-0.856,-0.452,13.671,11.962,13.305,
00:00:21:200,0.027,-0.912,-0.527,27.771,-24.476,-12.207,
00:00:21:217,-0.006,-0.89,-0.584,65.124,-33.509,-27.222,
00:00:21:233,0.002,-0.86,-0.589,66.284,-15.931,-32.532,
00:00:21:250,0,-0.901,-0.593,69.519,1.525,-42.054,
00:00:21:267,0.027,-0.861,-0.554,25.756,4.638,-36.683,
00:00:21:283,0.033,-0.838,-0.549,22.033,3.906,-30.274,
00:00:21:300,0.014,-0.835,-0.538,15.258,-3.235,-28.321,
00:00:21:317,-0.02,-0.881,-0.575,38.086,-10.01,-33.143,
00:00:21:333,-0.056,-0.816,-0.586,42.48,-11.658,-31.067,
00:00:21:350,-0.065,-0.842,-0.558,54.382,-6.653,-33.326,
00:00:21:367,-0.05,-0.839,-0.607,36.926,4.272,-27.344,
00:00:21:383,-0.046,-0.837,-0.579,3.845,10.192,-7.874,
00:00:21:400,-0.036,-0.863,-0.583,-16.541,18.981,2.746,
00:00:21:417,-0.017,-0.863,-0.602,19.714,25.756,6.53,
00:00:21:433,-0.019,-0.943,-0.535,-2.32,30.7,1.403,
00:00:21:450,0.005,-0.834,-0.53,10.498,31.738,9.338,
00:00:21:467,0.025,-0.905,-0.549,-0.672,33.874,5.371,
00:00:21:483,0.021,-0.816,-0.505,-51.514,27.221,13.916,
00:00:21:500,0.056,-0.823,-0.524,-13.672,18.737,6.408,
00:00:21:517,0.047,-0.828,-0.569,-26.551,6.225,4.516,
00:00:21:533,0.045,-0.826,-0.608,-23.438,3.234,1.098,
00:00:21:550,-0.027,-0.912,-0.655,-58.716,6.103,3.601,
00:00:21:567,-0.051,-0.846,-0.605,-48.584,15.075,1.77,
00:00:21:583,-0.076,-0.928,-0.55,-14.466,10.253,-12.269,
00:00:21:600,-0.053,-0.902,-0.54,-25.513,16.235,-21.668,
00:00:21:617,-0.044,-0.874,-0.448,-33.814,2.441,-14.039,
00:00:21:633,-0.009,-0.793,-0.467,-57.435,-8.362,-9.095,
00:00:21:650,0.006,-0.799,-0.482,-27.588,-30.396,-2.137,
00:00:21:667,-0.018,-0.805,-0.57,-3.235,-47.364,5.554,
00:00:21:683,-0.002,-0.777,-0.558,22.644,-37.598,21.179,
00:00:21:700,0.007,-0.909,-0.593,-37.598,-10.56,6.103,
00:00:21:717,0.022,-0.82,-0.509,-41.138,-5.616,23.559,
00:00:21:733,0.059,-0.926,-0.528,6.286,-3.479,-5.555,
00:00:21:750,0.057,-0.872,-0.507,39.55,-7.813,-4.151,
00:00:21:767,0.068,-0.871,-0.545,56.03,-12.146,-15.015,
00:00:21:783,0.078,-0.856,-0.531,58.776,-18.738,-18.128,
00:00:21:800,0.067,-0.897,-0.59,42.785,-36.499,-21.485,
00:00:21:817,0.039,-0.879,-0.557,-9.217,-31.678,-18.921,
00:00:21:833,0.022,-0.858,-0.57,15.625,-29.48,-20.569,
00:00:21:850,0.008,-0.89,-0.578,32.592,-28.748,-25.696,
00:00:21:867,-0.005,-0.93,-0.617,30.334,-33.326,-26.917,
00:00:21:883,-0.021,-0.916,-0.601,-9.888,-20.874,-22.461,
00:00:21:900,0.021,-0.899,-0.622,-5.494,-12.207,-26.917,
00:00:21:917,0.006,-0.9,-0.584,-13.123,-4.639,-15.686,
00:00:21:933,0.008,-0.892,-0.551,-34.302,3.356,-2.991,
00:00:21:950,0.011,-0.898,-0.511,-31.006,7.263,6.897,
00:00:21:967,0.018,-0.902,-0.48,-58.228,6.713,10.498,
00:00:21:983,0.044,-0.87,-0.485,-79.956,8.667,12.939,
00:00:22:0,0.071,-0.857,-0.526,-88.318,2.807,17.334,
00:00:22:17,0.068,-0.839,-0.534,-79.956,0.61,21.789,
00:00:22:33,0.049,-0.848,-0.523,-99.732,2.441,24.231,
00:00:22:50,0.035,-0.836,-0.497,-125.611,0.549,19.165,
00:00:22:67,0.031,-0.845,-0.514,-114.136,-4.517,10.376,
00:00:22:83,0.019,-0.853,-0.537,-89.783,-5.372,-3.602,
00:00:22:100,0.016,-0.871,-0.604,-57.496,3.479,-14.832,
00:00:22:117,0.028,-0.934,-0.563,-95.337,15.502,-15.198,
00:00:22:133,0.031,-0.866,-0.533,-125.55,22.583,-18.067,
00:00:22:150,0.012,-0.872,-0.499,-67.994,23.559,-27.71,
00:00:22:167,0.02,-0.861,-0.506,12.268,15.441,-36.56,
00:00:22:183,0.015,-0.914,-0.499,17.15,14.038,-39.795,
00:00:22:200,0.018,-0.875,-0.49,10.192,12.268,-36.072,
00:00:22:217,0.03,-0.894,-0.468,15.014,11.474,-41.26,
00:00:22:233,0.034,-0.89,-0.481,5.554,6.591,-38.208,
00:00:22:250,0.043,-0.881,-0.53,16.54,1.098,-36.255,
00:00:22:267,0.058,-0.846,-0.509,14.16,3.845,-45.227,
00:00:22:283,0.065,-0.935,-0.549,-14.771,21.606,-59.51,
00:00:22:300,0.078,-0.969,-0.55,-149.781,33.996,-66.407,
00:00:22:317,0.063,-0.925,-0.545,-221.863,46.569,-62.195,
00:00:22:333,0.085,-0.91,-0.524,-225.953,51.33,-61.097,
00:00:22:350,0.059,-0.906,-0.508,-202.332,51.147,-66.285,
00:00:22:367,0.062,-0.908,-0.433,-137.391,40.832,-73.121,
00:00:22:383,0.049,-0.896,-0.463,-67.688,27.893,-83.13,
00:00:22:400,0.033,-0.961,-0.46,-48.34,13.794,-83.069,
00:00:22:417,0.021,-0.899,-0.46,-35.462,4.333,-72.876,
00:00:22:433,0.011,-0.896,-0.442,-26.978,4.882,-63.782,
00:00:22:450,0.009,-0.883,-0.422,-16.053,3.906,-51.819,
00:00:22:467,0.005,-0.923,-0.489,-48.035,18.432,-51.087,
00:00:22:483,-0.002,-0.973,-0.542,-162.11,35.766,-63.416,
00:00:22:500,0,-0.928,-0.494,-198.243,50.903,-73.182,
00:00:22:517,-0.02,-0.989,-0.47,-202.759,61.401,-105.896,
00:00:22:533,-0.039,-1.091,-0.458,-217.102,61.096,-143.799,flipLH
00:00:22:550,-0.043,-0.948,-0.432,-159.119,54.26,-154.053,
00:00:22:567,-0.059,-1.028,-0.438,-122.071,48.278,-178.956,
00:00:22:583,-0.068,-0.987,-0.417,-151.246,46.936,-192.627,
00:00:22:600,-0.067,-0.999,-0.423,-152.344,57.678,-204.041,
00:00:22:617,-0.066,-0.946,-0.418,-197.022,62.255,-191.163,
00:00:22:633,-0.05,-0.944,-0.326,-194.947,52.49,-182.496,
00:00:22:650,-0.066,-0.875,-0.315,-150.086,38.391,-156.678,
00:00:22:667,-0.059,-0.941,-0.3,-108.643,10.253,-142.762,
00:00:22:683,-0.049,-0.935,-0.301,-118.164,-31.373,-114.93,
00:00:22:700,-0.046,-0.864,-0.342,-61.341,-40.833,-102.539,
00:00:22:717,-0.056,-0.899,-0.384,9.765,-43.213,-84.839,
00:00:22:733,-0.055,-0.929,-0.411,56.457,-31.373,-69.336,
00:00:22:750,-0.063,-1.024,-0.439,13.977,-20.386,-63.904,
00:00:22:767,-0.065,-0.915,-0.393,5.493,-15.809,-49.927,
00:00:22:783,-0.047,-0.901,-0.358,113.769,-30.945,-50.171,
00:00:22:800,-0.06,-0.931,-0.357,132.873,-50.843,-47.242,
00:00:22:817,-0.057,-0.881,-0.33,151.245,-66.956,-30.091,
00:00:22:833,-0.051,-0.854,-0.324,181.396,-78.431,-11.597,
00:00:22:850,-0.058,-0.859,-0.369,193.542,-87.891,7.019,
00:00:22:867,-0.048,-0.863,-0.387,194.824,-90.76,25.817,
00:00:22:883,-0.047,-0.874,-0.435,152.099,-80.872,37.841,
00:00:22:900,-0.043,-0.923,-0.466,114.929,-67.627,49.133,
00:00:22:917,-0.027,-0.948,-0.474,67.627,-57.801,48.339,
00:00:22:933,-0.022,-0.964,-0.464,49.011,-52.185,26.489,
00:00:22:950,-0.027,-1.002,-0.429,51.94,-51.758,-2.137,
00:00:22:967,-0.032,-1.085,-0.388,44.311,-58.472,-35.035,
00:00:22:983,-0.042,-1.084,-0.372,37.719,-74.83,-83.435,
00:00:23:0,-0.064,-1.116,-0.418,39.428,-87.098,-145.691,
00:00:23:17,-0.082,-1.193,-0.477,-79.529,-87.708,-205.323,
00:00:23:33,-0.092,-1.138,-0.478,-232.789,-88.196,-235.718,
00:00:23:50,-0.082,-1.108,-0.445,-308.96,-85.572,-268.311,
00:00:23:67,-0.119,-1.126,-0.375,-416.871,-92.408,-294.373,
00:00:23:83,-0.132,-1.191,-0.369,-566.712,-86.792,-321.228,
00:00:23:100,-0.151,-1.275,-0.377,-866.15,-81.482,-327.332,
00:00:23:117,-0.15,-1.193,-0.388,-1168.152,-66.224,-310.486,
00:00:23:133,-0.137,-1.198,-0.331,-1378.479,-49.866,-279.602,
00:00:23:150,-0.116,-1.051,-0.21,-1561.707,-54.383,-238.099,
00:00:23:167,-0.107,-1.103,-0.122,-1730.164,-97.596,-216.187,
00:00:23:183,-0.066,-1.126,-0.086,-1973.694,-158.387,-181.641,
00:00:23:200,-0.108,-1.1,-0.012,-2000,-190.43,-133.667,
00:00:23:217,-0.047,-0.918,-0.029,-2000,-190.308,-118.409,
00:00:23:233,-0.046,-0.623,0.012,-2000,-209.839,-68.97,
00:00:23:250,-0.1,-0.642,0.16,-2000,-171.326,-86.487,
00:00:23:267,-0.061,-0.811,0.268,-1923.951,-125.489,-97.901,
00:00:23:283,-0.093,-0.895,0.281,-1811.585,-94.544,-112.244,
00:00:23:300,-0.136,-0.925,0.298,-1829.529,-31.495,-110.657,
00:00:23:317,-0.159,-0.764,0.267,-1807.068,62.622,-106.934,
00:00:23:333,-0.188,-0.548,0.206,-1422.059,174.682,-88.013,
00:00:23:350,-0.218,-0.5,0.235,-725.647,255.066,-112.427,
00:00:23:367,-0.196,-0.643,0.361,-303.528,376.342,-86.609,
00:00:23:383,-0.21,-0.556,0.359,-160.157,499.939,-81.788,
00:00:23:400,-0.174,-0.641,0.443,-152.466,514.404,-26.001,
00:00:23:417,-0.158,-0.399,0.511,-376.404,590.088,41.687,
00:00:23:433,-0.182,-0.159,0.618,-193.055,630.432,75.439,
00:00:23:450,-0.143,-0.309,0.701,154.968,621.154,109.68,
00:00:23:467,-0.113,-0.523,0.755,275.573,602.111,149.353,
00:00:23:483,-0.088,-0.558,0.728,346.557,591.064,168.884,
00:00:23:500,0.019,-0.879,0.73,292.114,552.307,168.945,
00:00:23:517,0.116,-0.771,0.825,114.563,524.353,148.559,
00:00:23:533,0.188,-0.818,1.022,166.259,407.043,122.985,
00:00:23:550,0.168,-1.881,1.283,-410.218,178.222,-81.116,
00:00:23:567,0.196,-0.272,0.937,-674.5,236.206,-33.936,
00:00:23:583,-0.04,-1.297,1.348,745.666,-206.543,-68.36,
00:00:23:600,0.114,-0.61,0.991,430.908,-181.702,-34.241,
00:00:23:617,0.124,-0.986,0.931,489.38,-251.282,-96.924,
00:00:23:633,0.065,-0.694,0.785,282.714,-225.708,-79.346,
00:00:23:650,0.141,-0.632,0.878,256.713,-217.835,-68.848,
00:00:23:667,0.085,-0.653,0.743,485.412,-204.59,-100.831,
00:00:23:683,0.092,-0.708,0.79,740.295,-174.378,-119.446,
00:00:23:700,0.022,-0.826,0.705,1095.214,-169.312,-147.339,
00:00:23:717,-0.006,-0.815,0.632,1305.603,-154.908,-169.312,
00:00:23:733,-0.039,-0.763,0.551,1489.257,-123.78,-197.449,
00:00:23:750,-0.071,-0.741,0.468,1675.72,-100.708,-218.201,
00:00:23:767,-0.075,-0.8,0.409,1950.195,-88.196,-231.141,
00:00:23:783,-0.084,-0.897,0.391,1999.694,-85.694,-215.577,
00:00:23:800,-0.107,-0.926,0.234,1999.694,-106.995,-206.91,
00:00:23:817,-0.119,-1.104,0.134,1999.694,-112.793,-188.05,
00:00:23:833,-0.108,-1.02,-0.005,1999.694,-89.112,-154.969,
00:00:23:850,-0.139,-1.004,-0.125,1903.381,-52.552,-108.643,
00:00:23:867,-0.163,-0.965,-0.172,1780.273,-23.804,-55.237,
00:00:23:883,-0.133,-0.951,-0.224,1675.598,0.61,-37.11,
00:00:23:900,-0.107,-0.85,-0.26,1701.049,12.817,-17.09,
00:00:23:917,-0.098,-0.977,-0.279,1560.363,-10.254,-8.301,
00:00:23:933,-0.11,-1.015,-0.302,1167.541,-15.809,16.54,
00:00:23:950,-0.087,-0.913,-0.356,796.753,-14.954,71.167,
00:00:23:967,-0.07,-0.739,-0.445,664.978,-16.541,71.838,
00:00:23:983,-0.038,-0.778,-0.54,745.91,-28.077,69.519,
00:00:24:0,-0.048,-0.883,-0.515,690.918,-16.236,67.688,
00:00:24:17,-0.034,-0.901,-0.559,625,-3.235,59.997,
00:00:24:33,-0.04,-0.984,-0.504,492.309,9.338,63.171,
00:00:24:50,-0.033,-0.979,-0.514,368.408,7.507,56.762,
00:00:24:67,-0.03,-0.996,-0.541,259.826,-2.381,37.109,
00:00:24:83,-0.048,-0.977,-0.531,119.506,-19.043,18.493,
00:00:24:100,-0.038,-0.898,-0.565,22.277,-23.072,14.038,
00:00:24:117,-0.027,-0.825,-0.582,49.255,-18.677,13.061,
00:00:24:133,-0.035,-0.892,-0.598,74.89,-10.865,6.347,
00:00:24:150,-0.03,-0.946,-0.614,57.19,8.422,-4.212,
00:00:24:167,-0.039,-0.991,-0.593,21.667,13.794,-20.203,
00:00:24:183,-0.055,-0.966,-0.591,-6.226,17.7,-39.368,
00:00:24:200,-0.074,-0.884,-0.581,15.258,22.888,-50.904,
00:00:24:217,-0.066,-0.838,-0.589,-2.137,29.724,-41.81,
00:00:24:233,-0.057,-0.772,-0.589,31.433,30.822,-34.668,
00:00:24:250,-0.052,-0.832,-0.593,42.907,34.484,-36.255,
00:00:24:267,-0.04,-0.831,-0.578,18.981,34.729,-28.382,
00:00:24:283,-0.037,-0.835,-0.544,26.306,34.973,-24.17,
00:00:24:300,-0.039,-0.777,-0.529,-15.381,15.136,10.009,
00:00:24:317,-0.044,-0.797,-0.523,-11.292,9.216,21.118,
00:00:24:333,-0.043,-0.822,-0.545,-14.222,5.31,31.189,
00:00:24:350,-0.049,-0.86,-0.532,-43.763,-2.381,33.996,
00:00:24:367,-0.048,-0.898,-0.529,-78.553,-11.78,26.611,
00:00:24:383,-0.028,-0.893,-0.582,-58.838,-32.959,-20.997,
00:00:24:400,-0.008,-0.943,-0.602,-19.959,-32.837,-39.307,
00:00:24:417,-0.011,-0.96,-0.607,-36.805,-23.926,-60.547,
00:00:24:433,-0.005,-0.966,-0.569,-58.045,-15.137,-80.506,
00:00:24:450,-0.012,-0.959,-0.532,-100.037,-6.043,-92.591,
00:00:24:467,-0.001,-0.957,-0.486,-130.982,1.953,-101.075,
00:00:24:483,0.002,-0.951,-0.474,-168.335,2.502,-105.164,
00:00:24:500,0.021,-0.909,-0.473,-154.664,-3.54,-109.864,
00:00:24:517,0.009,-0.915,-0.508,-132.874,-15.686,-111.756,
00:00:24:533,0.004,-0.874,-0.522,-105.896,-21.485,-107.239,
00:00:24:550,-0.019,-0.912,-0.534,-93.384,-18.799,-107.178,
00:00:24:567,-0.046,-0.921,-0.515,-127.503,-12.635,-96.985,
00:00:24:583,-0.057,-0.914,-0.482,-143.982,-12.269,-96.192,
00:00:24:600,-0.071,-0.919,-0.452,-150.635,-18.128,-90.821,
00:00:24:617,-0.069,-0.9,-0.434,-149.842,-31.128,-87.525,
00:00:24:633,-0.063,-0.911,-0.419,-145.02,-43.946,-80.506,
00:00:24:650,-0.07,-0.881,-0.438,-135.01,-52.552,-73.243,
00:00:24:667,-0.08,-0.931,-0.458,-66.224,-38.758,-86.914,
00:00:24:683,-0.086,-0.935,-0.435,-82.276,-39.185,-101.502,
00:00:24:700,-0.086,-0.945,-0.395,-104.737,-48.523,-114.319,
00:00:24:717,-0.088,-0.928,-0.375,-122.559,-65.247,-127.381,
00:00:24:733,-0.1,-0.915,-0.395,-102.051,-84.595,-140.686,
00:00:24:750,-0.125,-0.937,-0.482,-34.485,-83.802,-159.729,
00:00:24:767,-0.132,-0.945,-0.466,-42.298,-76.111,-160.95,
00:00:24:783,-0.136,-0.913,-0.454,-44.251,-71.961,-161.377,
00:00:24:800,-0.132,-0.92,-0.446,-38.147,-66.59,-159.852,
00:00:24:817,-0.127,-0.871,-0.463,-32.105,-63.477,-148.987,
00:00:24:833,-0.115,-0.895,-0.486,0.366,-19.959,-108.643,
00:00:24:850,-0.115,-0.908,-0.47,-19.654,-4.944,-92.225,
00:00:24:867,-0.114,-0.913,-0.433,-40.528,4.272,-81.055,
00:00:24:883,-0.117,-0.898,-0.423,-51.819,5.554,-71.961,
00:00:24:900,-0.125,-0.881,-0.414,-40.406,4.089,-61.341,
00:00:24:917,-0.131,-0.874,-0.429,-17.518,1.22,-49.927,
00:00:24:933,-0.142,-0.891,-0.44,-10.437,2.746,-38.392,
00:00:24:950,-0.149,-0.911,-0.461,-10.498,4.089,-28.199,
00:00:24:967,-0.16,-0.927,-0.472,-11.109,8.117,-23.743,
00:00:24:983,-0.155,-0.947,-0.459,-23.682,14.77,-19.288,
00:00:25:0,-0.147,-0.937,-0.445,-42.237,15.319,-10.804,
00:00:25:17,-0.134,-0.939,-0.433,-26.001,17.334,-14.71,
00:00:25:33,-0.137,-0.925,-0.432,-0.245,11.718,-16.053,
00:00:25:50,-0.139,-0.943,-0.447,25.695,10.437,-19.837,
00:00:25:67,-0.14,-0.964,-0.462,17.15,15.014,-23.011,
00:00:25:83,-0.123,-0.974,-0.446,-3.479,17.639,-29.419,
00:00:25:100,-0.117,-0.994,-0.443,-30.335,21.545,-35.401,
00:00:25:117,-0.094,-0.991,-0.409,-55.787,19.775,-44.495,
00:00:25:133,-0.092,-0.985,-0.403,-52.613,16.296,-59.693,
00:00:25:150,-0.081,-0.977,-0.399,-41.993,12.695,-76.05,
00:00:25:167,-0.073,-0.975,-0.422,-33.57,13.244,-89.661,
00:00:25:183,-0.062,-0.982,-0.409,-46.143,14.16,-97.535,
00:00:25:200,-0.052,-0.985,-0.398,-75.196,12.695,-100.708,
00:00:25:217,-0.044,-0.969,-0.372,-97.596,6.347,-104.371,
00:00:25:233,-0.059,-0.974,-0.36,-91.492,-9.522,-109.925,
00:00:25:250,-0.078,-0.947,-0.348,-77.149,-26.246,-113.953,
00:00:25:267,-0.102,-0.926,-0.364,-37.476,-40.528,-114.747,
00:00:25:283,-0.121,-0.933,-0.388,-19.349,-46.631,-104.615,
00:00:25:300,-0.127,-0.928,-0.4,-22.522,-48.829,-88.99,
00:00:25:317,-0.111,-0.89,-0.405,-25.513,-48.035,-70.008,
00:00:25:333,-0.094,-0.871,-0.389,14.526,-51.575,-50.904,
00:00:25:350,-0.057,-0.802,-0.374,63.598,-57.679,-18.799,
00:00:25:367,0.003,-0.855,-0.353,129.516,-61.585,30.09,
00:00:25:383,0.029,-0.853,-0.364,82.763,-68.177,106.567,
00:00:25:400,0.052,-0.842,-0.402,119.506,-71.778,183.105,
00:00:25:417,0,-0.886,-0.446,129.943,-75.44,244.018,
00:00:25:433,0.013,-0.931,-0.547,132.263,-63.843,281.311,
00:00:25:450,-0.033,-0.915,-0.577,104.492,-49.134,316.406,
00:00:25:467,-0.111,-0.889,-0.616,86.608,-22.828,333.191,
00:00:25:483,-0.183,-0.837,-0.62,38.391,8.056,344.299,
00:00:25:500,-0.255,-0.824,-0.591,-23.072,54.016,345.825,
00:00:25:517,-0.298,-0.86,-0.54,-50.538,110.046,334.838,
00:00:25:533,-0.346,-0.884,-0.488,-45.655,132.263,303.955,
00:00:25:550,-0.407,-0.881,-0.445,37.048,137.756,247.741,
00:00:25:567,-0.448,-0.853,-0.454,140.258,139.221,189.636,
00:00:25:583,-0.416,-0.782,-0.438,212.097,159.301,155.944,
00:00:25:600,-0.353,-0.794,-0.458,289.367,202.026,126.526,
00:00:25:617,-0.317,-0.904,-0.431,247.131,237.182,121.643,
00:00:25:633,-0.28,-0.942,-0.398,157.165,261.169,109.741,
00:00:25:650,-0.249,-0.99,-0.421,118.957,271.484,80.017,
00:00:25:667,-0.1,-0.966,-0.425,139.465,289.856,13.183,
00:00:25:683,-0.059,-1.01,-0.374,138.244,268.615,5.249,
00:00:25:700,-0.011,-0.981,-0.331,105.102,228.942,0.244,
00:00:25:717,-0.009,-1.03,-0.371,96.313,158.386,-13.611,
00:00:25:733,-0.003,-1.033,-0.409,37.841,137.756,-23.011,
00:00:25:750,0.044,-0.842,-0.465,48.461,73.181,-61.89,
00:00:25:767,0.056,-0.937,-0.509,183.593,48.461,-65.674,
00:00:25:783,0.096,-0.921,-0.525,240.661,30.822,-80.567,
00:00:25:800,0.134,-0.984,-0.525,237.671,18.737,-97.962,
00:00:25:817,0.168,-0.939,-0.564,167.053,17.028,-93.262,
00:00:25:833,0.168,-0.93,-0.501,85.51,27.526,-86.609,
00:00:25:850,0.174,-0.915,-0.516,19.348,34.668,-80.445,
00:00:25:867,0.183,-0.946,-0.521,-12.146,27.099,-74.952,
00:00:25:883,0.183,-0.965,-0.511,-31.067,23.742,-73.304,
00:00:25:900,0.154,-0.983,-0.48,-62.806,14.953,-71.473,
00:00:25:917,0.11,-0.965,-0.46,-82.703,5.554,-70.557,
00:00:25:933,-0.217,-0.773,-0.585,133.667,-43.091,-21.79,
00:00:25:950,0.006,-0.474,-0.614,270.385,-42.542,124.206,
00:00:25:967,-0.114,-0.664,-0.442,166.198,-55.909,119.323,
00:00:25:983,-0.006,-0.37,-0.575,150.94,-12.33,290.466,
00:00:26:0,-0.068,-0.85,-0.562,-11.231,20.08,270.874,
00:00:26:17,-0.046,-0.997,-0.569,-157.654,31.677,231.689,
00:00:26:33,-0.09,-1.044,-0.517,-185.914,44.372,152.404,
00:00:26:50,-0.056,-1.141,-0.435,-173.157,21.179,41.565,
00:00:26:67,-0.031,-1.093,-0.416,-25.33,-13.672,-42.725,
00:00:26:83,-0.07,-1.074,-0.444,82.458,-41.687,-110.779,
00:00:26:100,-0.065,-0.982,-0.494,171.264,-52.308,-128.785,
00:00:26:117,-0.085,-0.98,-0.527,138.672,-68.055,-130.982,
00:00:26:133,-0.068,-0.967,-0.518,64.025,-69.397,-120.423,
00:00:26:150,-0.082,-0.902,-0.52,-31.8,-61.646,-111.512,
00:00:26:167,-0.073,-0.857,-0.485,-50.843,-51.819,-98.572,
00:00:26:183,-0.059,-0.85,-0.516,24.414,-48.279,-77.149,
00:00:26:200,-0.036,-0.897,-0.51,42.358,-34.974,-51.636,
00:00:26:217,-0.009,-0.916,-0.559,69.58,-17.518,-27.161,
00:00:26:233,0.01,-0.91,-0.571,34.301,-1.16,2.075,
00:00:26:250,-0.013,-0.874,-0.558,-49.195,10.62,36.01,
00:00:26:267,0.02,-0.749,-0.488,-39.246,13.244,61.035,
00:00:26:283,0.004,-0.796,-0.505,-9.888,5.92,80.993,
00:00:26:300,0.002,-0.803,-0.563,30.212,-3.052,78.918,
00:00:26:317,0.028,-0.839,-0.578,65.979,-7.325,77.819,
00:00:26:333,0.01,-0.846,-0.611,30.639,12.878,55.603,
00:00:26:350,-0.042,-0.815,-0.598,113.342,49.133,-13.245,
00:00:26:367,-0.083,-0.878,-0.605,124.755,64.575,-36.255,
00:00:26:383,-0.106,-0.854,-0.559,87.524,78.674,-37.049,
00:00:26:400,-0.106,-0.879,-0.525,77.575,77.575,-44.861,
00:00:26:417,-0.122,-0.914,-0.513,54.748,63.476,-53.223,
00:00:26:433,-0.036,-0.951,-0.47,-79.529,23.803,-37.11,
00:00:26:450,-0.028,-0.911,-0.425,-138.733,4.882,-38.514,
00:00:26:467,0.005,-0.9,-0.475,-95.52,-24.903,-44.434,
00:00:26:483,0.026,-0.886,-0.5,-58.533,-27.894,-39.185,
00:00:26:500,0.003,-0.893,-0.611,-12.696,-4.212,-20.325,
00:00:26:517,0.042,-0.881,-0.577,-94.361,21.118,6.286,
00:00:26:533,0.063,-0.833,-0.575,-92.469,25.512,16.906,
00:00:26:550,0.059,-0.892,-0.522,-79.834,20.935,12.207,
00:00:26:567,0.063,-0.866,-0.519,-26.978,-1.404,-6.043,
00:00:26:583,0.051,-0.91,-0.509,-20.264,-10.682,-21.912,
00:00:26:600,0.019,-0.898,-0.48,-77.149,-10.376,-24.842,
00:00:26:617,0.009,-0.912,-0.492,-124.451,-11.536,-38.697,
00:00:26:633,0.014,-0.861,-0.446,-140.992,-19.288,-40.039,
00:00:26:650,0.006,-0.898,-0.455,-83.497,-29.114,-52.552,
00:00:26:667,-0.002,-0.906,-0.461,-52.857,-38.086,-58.045,
00:00:26:683,0.001,-0.907,-0.451,-25.452,-45.899,-64.82,
00:00:26:700,-0.022,-0.892,-0.464,-13.306,-45.96,-60.059,
00:00:26:717,-0.042,-0.844,-0.452,-12.757,-41.138,-44.495,
00:00:26:733,-0.079,-0.862,-0.476,-9.217,-39.246,-37.354,
00:00:26:750,-0.104,-0.902,-0.522,-31.311,-43.274,-20.691,
00:00:26:767,-0.046,-0.79,-0.511,-43.213,-47.486,15.747,
00:00:26:783,-0.078,-0.882,-0.535,-17.334,-44.8,30.883,
00:00:26:800,-0.055,-0.863,-0.577,-23.011,-33.753,39.123,
00:00:26:817,-0.012,-0.87,-0.486,-87.891,6.652,46.997,
00:00:26:833,0.005,-0.898,-0.511,-58.594,5.798,43.945,
00:00:26:850,0.014,-0.936,-0.494,-55.603,2.258,35.278,
00:00:26:867,0.027,-0.919,-0.498,-37.964,-4.212,19.958,
00:00:26:883,0.017,-0.916,-0.465,-16.419,-12.207,4.577,
00:00:26:900,0.005,-0.894,-0.463,0.732,-20.935,-1.343,
00:00:26:917,-0.012,-0.901,-0.47,-6.836,-31.006,2.746,
00:00:26:933,-0.015,-0.902,-0.473,-12.94,-30.396,11.718,
00:00:26:950,-0.018,-0.912,-0.481,-41.748,-29.725,26.245,
00:00:26:967,-0.013,-0.895,-0.461,-30.884,-26.246,33.386,
00:00:26:983,-0.016,-0.925,-0.451,-14.832,-26.917,39.123,
00:00:27:0,-0.021,-0.92,-0.479,9.826,-30.884,42.053,
00:00:27:17,-0.015,-1.033,-0.602,9.46,11.23,-13.123,
00:00:27:33,-0.034,-0.897,-0.468,-27.344,15.197,-14.954,
00:00:27:50,0.006,-0.994,-0.481,26.611,15.991,-35.462,
00:00:27:67,0.017,-0.98,-0.446,-3.235,-7.63,-43.213,
00:00:27:83,0.041,-0.796,-0.408,39.733,-19.959,-36.316,
00:00:27:100,0.09,-0.772,-0.42,157.409,-25.696,-28.016,
00:00:27:117,0.062,-0.857,-0.524,93.383,-18.799,2.685,
00:00:27:133,0.034,-0.896,-0.509,-14.832,-8.728,14.038,
00:00:27:150,0.048,-0.871,-0.53,-52.979,4.638,23.193,
00:00:27:167,0.046,-0.917,-0.491,1.403,25.024,0.671,
00:00:27:183,0.057,-0.915,-0.459,33.386,16.906,-14.527,
00:00:27:200,0.054,-0.875,-0.462,102.844,-0.794,-24.476,
00:00:27:217,0.027,-0.943,-0.484,120.91,-10.743,-35.035,
00:00:27:233,0.038,-0.928,-0.51,57.251,-8.362,-31.434,
00:00:27:250,0.026,-0.914,-0.513,-2.442,-3.968,-24.048,
00:00:27:267,0.038,-0.86,-0.511,-34.241,2.38,-17.212,
00:00:27:283,0.041,-0.814,-0.488,14.038,11.84,-11.231,
00:00:27:300,0.044,-0.89,-0.481,73.242,12.329,-11.536,
00:00:27:317,0.042,-0.918,-0.471,41.137,8.239,-11.78,
00:00:27:333,0.039,-0.907,-0.494,63.171,2.99,-17.395,
00:00:27:350,0.036,-0.936,-0.511,74.096,-1.587,-29.908,
00:00:27:367,0.051,-0.895,-0.513,77.697,-3.785,-51.575,
00:00:27:383,0.062,-0.881,-0.56,115.112,0.061,-66.346,
00:00:27:400,0.054,-0.888,-0.59,145.935,15.075,-77.942,
00:00:27:417,0.055,-0.908,-0.568,156.86,33.142,-96.68,
00:00:27:433,0.073,-0.899,-0.529,220.337,46.936,-124.39,
00:00:27:450,0.06,-0.989,-0.527,321.411,45.654,-164.185,
00:00:27:467,0.002,-1.001,-0.602,243.042,24.292,-220.765,
00:00:27:483,0.011,-0.95,-0.642,133.239,34.301,-231.69,
00:00:27:500,-0.006,-0.908,-0.631,27.16,53.649,-227.173,
00:00:27:517,-0.029,-0.916,-0.641,-76.111,85.571,-225.647,
00:00:27:533,-0.034,-0.977,-0.59,-153.565,101.379,-232.056,
00:00:27:550,-0.048,-0.934,-0.511,-144.104,92.102,-232.85,
00:00:27:567,-0.024,-0.79,-0.535,1.709,77.697,-228.699,
00:00:27:583,-0.067,-1.002,-0.528,-86.609,60.241,-254.334,
00:00:27:600,-0.041,-0.847,-0.557,-80.201,61.767,-244.568,
00:00:27:617,-0.067,-0.85,-0.56,-140.686,62.805,-231.812,
00:00:27:633,-0.061,-0.809,-0.547,-198.121,68.908,-213.257,
00:00:27:650,-0.054,-0.812,-0.487,-207.276,67.993,-189.698,
00:00:27:667,-0.072,-0.839,-0.48,-206.665,49.865,-175.782,
00:00:27:683,-0.056,-0.834,-0.501,-153.382,20.507,-176.88,
00:00:27:700,-0.113,-0.892,-0.485,-134.217,7.812,-182.618,
00:00:27:717,-0.115,-0.874,-0.488,-173.645,12.085,-180.115,
00:00:27:733,-0.123,-0.868,-0.457,-165.894,8.178,-177.063,
00:00:27:750,-0.155,-0.872,-0.466,-187.989,13.122,-174.317,flipLH
00:00:27:767,-0.154,-0.882,-0.455,-255.31,15.38,-165.589,
00:00:27:783,-0.155,-0.868,-0.506,-299.866,10.192,-160.584,
00:00:27:800,-0.211,-0.904,-0.522,-396.18,17.883,-151.429,
00:00:27:817,-0.21,-0.986,-0.535,-597.413,53.283,-141.358,
00:00:27:833,-0.276,-0.997,-0.5,-882.874,86.181,-108.643,
00:00:27:850,-0.255,-0.938,-0.47,-1034.791,97.045,-86.67,
00:00:27:867,-0.209,-0.872,-0.302,-1045.96,62.561,-99.915,
00:00:27:883,-0.201,-0.957,-0.201,-1074.28,52.551,-134.217,
00:00:27:900,-0.163,-0.968,-0.138,-1279.358,19.226,-129.822,
00:00:27:917,-0.154,-0.902,-0.185,-1450.379,-1.709,-112.732,
00:00:27:933,-0.185,-0.953,-0.156,-1551.514,-42.298,-55.909,
00:00:27:950,-0.163,-0.947,-0.136,-1734.864,-45.472,-15.992,
00:00:27:967,-0.14,-0.929,-0.011,-1869.446,-34.302,6.591,
00:00:27:983,-0.089,-0.973,0.119,-1968.689,-48.279,36.01,
00:00:28:0,-0.053,-0.865,0.195,-2000,-62.867,95.947,
00:00:28:17,-0.061,-0.633,0.275,-1994.935,-72.022,90.454,
00:00:28:33,-0.046,-0.771,0.354,-1773.072,-72.815,67.932,
00:00:28:50,-0.068,-0.948,0.356,-1635.804,-67.017,59.57,
00:00:28:67,-0.137,-0.961,0.38,-1774.292,15.136,83.435,
00:00:28:83,-0.166,-0.81,0.393,-1788.453,126.953,71.35,
00:00:28:100,-0.195,-0.867,0.401,-1801.148,230.102,88.867,
00:00:28:117,-0.207,-0.571,0.439,-1794.983,338.012,160.949,
00:00:28:133,-0.225,-0.541,0.523,-1613.465,420.227,168.64,
00:00:28:150,-0.235,-0.544,0.647,-1282.166,491.882,133.911,
00:00:28:167,-0.172,-0.785,0.746,-987.916,522.094,93.566,
00:00:28:183,-0.095,-0.766,0.886,-740.54,514.16,71.777,
00:00:28:200,-0.04,-0.616,0.858,-439.454,487.854,48.523,
00:00:28:217,0.002,-0.537,0.884,-161.622,456.604,41.931,
00:00:28:233,-0.021,-0.453,0.857,35.278,379.394,44.921,
00:00:28:250,0.034,-0.292,0.832,-32.166,351.989,96.374,
00:00:28:267,0.124,-0.47,0.889,103.088,284.851,121.887,
00:00:28:283,0.113,-0.617,0.791,312.805,215.454,102.966,
00:00:28:300,0.166,-0.685,0.952,192.627,161.621,87.646,
00:00:28:317,0.169,-0.762,1.143,147.766,54.87,36.499,
00:00:28:333,0.133,-0.693,1.208,-32.837,-55.909,-2.015,
00:00:28:350,0.083,-0.698,1.22,-23.987,-169.373,-35.096,
00:00:28:367,0.048,-0.799,1.173,173.889,-272.4,-70.435,
00:00:28:383,0.01,-0.685,1.087,432.251,-299.744,-113.099,
00:00:28:400,-0.027,-0.568,0.95,863.708,-296.387,-154.908,
00:00:28:417,-0.057,-0.365,0.846,1486.572,-266.968,-189.209,
00:00:28:433,-0.048,-0.413,0.769,1962.28,-249.878,-229.981,
00:00:28:450,-0.023,-0.521,0.71,1999.694,-249.817,-248.352,
00:00:28:467,-0.003,-0.57,0.507,1999.694,-262.696,-277.283,
00:00:28:483,-0.063,-0.775,0.355,1999.694,-282.837,-266.419,
00:00:28:500,-0.042,-0.85,0.187,1999.694,-246.216,-249.573,
00:00:28:517,-0.059,-0.868,0.02,1999.694,-204.224,-173.523,
00:00:28:533,-0.08,-0.949,-0.076,1999.694,-149.781,-94.666,
00:00:28:550,-0.102,-1.033,-0.133,1999.694,-102.112,-26.246,
00:00:28:567,-0.121,-0.987,-0.154,1839.66,-65.918,13,
00:00:28:583,-0.081,-1.053,-0.166,1489.685,-46.265,30.578,
00:00:28:600,-0.064,-0.867,-0.336,1392.639,-62.256,37.841,
00:00:28:617,-0.077,-0.892,-0.364,1418.09,-75.623,41.015,
00:00:28:633,-0.064,-0.954,-0.402,1288.757,-64.637,53.161,
00:00:28:650,-0.074,-0.946,-0.427,1031.921,-53.162,102.905,
00:00:28:667,-0.061,-0.844,-0.369,845.581,-27.894,125.305,
00:00:28:683,-0.012,-0.919,-0.405,746.032,-14.039,130.981,
00:00:28:700,-0.023,-0.994,-0.402,642.395,-32.959,117.309,
00:00:28:717,-0.022,-0.954,-0.491,657.104,-57.74,82.519,
00:00:28:733,-0.052,-1.012,-0.529,602.417,-64.27,31.433,
00:00:28:750,-0.069,-1.001,-0.586,445.19,-56.336,26.367,
00:00:28:767,-0.081,-0.976,-0.596,264.221,-26.612,16.662,
00:00:28:783,-0.085,-0.941,-0.594,156.494,6.591,7.507,
00:00:28:800,-0.08,-0.982,-0.565,62.316,16.357,-18.555,
00:00:28:817,-0.072,-0.946,-0.567,16.967,11.718,-46.692,
00:00:28:833,-0.045,-0.972,-0.532,28.747,11.657,-87.525,
00:00:28:850,-0.051,-0.954,-0.548,41.931,4.394,-117.859,
00:00:28:867,-0.044,-0.969,-0.54,11.108,7.019,-149.17,
00:00:28:883,-0.05,-0.953,-0.543,-32.044,11.474,-172.364,
00:00:28:900,-0.047,-0.961,-0.536,-73.731,13.427,-189.515,
00:00:28:917,-0.039,-0.921,-0.537,-75.44,14.587,-197.449,
00:00:28:933,-0.03,-0.94,-0.513,-81.299,11.718,-200.562,
00:00:28:950,-0.029,-0.934,-0.515,-94.117,4.821,-197.51,
00:00:28:967,-0.032,-0.902,-0.504,-77.942,0.732,-186.707,
00:00:28:983,-0.045,-0.924,-0.499,-67.994,0.061,-176.209,
00:00:29:0,-0.054,-0.904,-0.494,-100.22,-1.954,-157.898,
00:00:29:17,-0.062,-0.873,-0.49,-133.606,-6.165,-140.015,
00:00:29:33,-0.069,-0.815,-0.466,-132.935,-13.245,-121.888,
00:00:29:50,-0.079,-0.846,-0.453,-124.451,-22.889,-104.31,
00:00:29:67,-0.064,-0.87,-0.449,-163.636,-35.035,-89.173,
00:00:29:83,-0.09,-0.864,-0.432,-174.195,-45.166,-78.736,
00:00:29:100,-0.063,-0.915,-0.442,-199.341,-60.791,-82.093,
00:00:29:117,-0.094,-0.926,-0.463,-229.859,-76.416,-92.408,
00:00:29:133,-0.09,-0.9,-0.47,-224.915,-86.976,-97.779,
00:00:29:150,-0.079,-0.902,-0.462,-219.361,-84.473,-109.131,
00:00:29:167,-0.067,-0.896,-0.428,-214.661,-91.431,-114.075,
00:00:29:183,-0.058,-0.891,-0.402,-201.05,-107.605,-113.465,
00:00:29:200,-0.075,-0.897,-0.386,-187.684,-128.418,-111.084,
00:00:29:217,-0.086,-0.867,-0.422,-116.211,-147.889,-112.793,
00:00:29:233,-0.095,-0.901,-0.447,-27.283,-154.847,-118.226,
00:00:29:250,-0.091,-0.927,-0.454,-0.55,-153.87,-126.77,
00:00:29:267,-0.083,-0.961,-0.471,15.258,-147.583,-130.433,
00:00:29:283,-0.082,-0.95,-0.488,7.69,-145.142,-125.672,
00:00:29:300,-0.062,-0.919,-0.516,69.274,-139.1,-136.719,
00:00:29:317,-0.045,-0.952,-0.524,68.847,-122.132,-149.903,
00:00:29:333,-0.017,-0.956,-0.512,28.198,-106.446,-153.138,
00:00:29:350,0.025,-0.906,-0.542,-2.564,-95.581,-144.288,
00:00:29:367,0.053,-0.926,-0.523,-0.55,-91.37,-144.532,
00:00:29:383,0.099,-0.955,-0.545,-6.165,-102.417,-158.326,
00:00:29:400,0.122,-0.953,-0.562,26.306,-124.146,-175.171,
00:00:29:417,0.116,-0.943,-0.514,31.86,-127.686,-179.444,
00:00:29:433,0.089,-0.902,-0.502,35.644,-132.081,-175.171,
00:00:29:450,0.073,-0.861,-0.523,115.6,-137.085,-159.729,
00:00:29:467,0.038,-0.893,-0.495,185.852,-144.349,-141.541,
00:00:29:483,0.019,-0.888,-0.492,192.443,-146.18,-116.883,
00:00:29:500,-0.055,-0.891,-0.483,156.799,-160.462,-84.9,
00:00:29:517,-0.134,-0.8,-0.515,124.145,-172.059,-30.762,
00:00:29:533,-0.232,-0.757,-0.672,115.661,-142.151,7.202,
00:00:29:550,-0.308,-0.726,-0.68,40.039,-83.924,65.795,
00:00:29:567,-0.339,-0.735,-0.664,-46.082,-8.789,132.385,
00:00:29:583,-0.363,-0.775,-0.596,-97.84,63.72,187.011,
00:00:29:600,-0.394,-0.76,-0.542,-27.1,111.877,238.037,
00:00:29:617,-0.45,-0.864,-0.564,96.252,153.137,246.093,
00:00:29:633,-0.508,-0.902,-0.526,121.093,200.195,250.244,
00:00:29:650,-0.544,-0.825,-0.558,122.192,261.108,237.06,
00:00:29:667,-0.519,-0.815,-0.532,121.765,333.74,232.055,
00:00:29:683,-0.484,-0.775,-0.497,81.543,391.113,267.822,
00:00:29:700,-0.427,-0.76,-0.502,149.658,457.519,261.84,
00:00:29:717,-0.405,-0.915,-0.384,172.546,492.675,267.089,
00:00:29:733,-0.345,-0.983,-0.303,47.18,477.539,247.009,
00:00:29:750,-0.324,-0.885,-0.285,68.237,478.149,224.182,
00:00:29:767,-0.347,-0.895,-0.355,105.529,469.055,223.999,
00:00:29:783,-0.357,-0.797,-0.36,144.226,460.266,249.939,
00:00:29:800,-0.283,-0.879,-0.461,188.476,457.702,242.248,
00:00:29:817,-0.149,-0.958,-0.486,94.055,443.298,270.08,
00:00:29:833,0.009,-0.963,-0.478,-174.073,428.405,236.877,
00:00:29:850,0.063,-1.022,-0.448,-249.451,432.373,244.629,
00:00:29:867,0.089,-1.063,-0.367,-180.237,396.545,227.722,
00:00:29:883,-0.023,-1.001,-0.559,-201.172,281.982,158.325,
00:00:29:900,-0.082,-0.876,-0.659,-276.917,282.47,141.296,
00:00:29:917,-0.14,-0.897,-0.576,-246.399,287.414,131.469,
00:00:29:933,-0.117,-0.989,-0.379,-190.857,256.286,86.486,
00:00:29:950,-0.071,-1.024,-0.262,-73.609,170.288,-2.137,
00:00:29:967,-0.053,-0.952,-0.232,181.396,67.26,-100.892,
00:00:29:983,-0.029,-0.91,-0.287,381.164,-133.057,-277.1,
00:00:30:0,0.024,-0.919,-0.28,249.206,-157.471,-279.847,
00:00:30:17,0.046,-0.911,-0.279,104.37,-207.215,-263.245,
00:00:30:33,0.13,-0.868,-0.364,143.127,-269.898,-261.597,
00:00:30:50,0.118,-0.924,-0.474,241.516,-306.824,-258.667,
00:00:30:67,0.071,-0.96,-0.822,131.591,-185.791,-214.173,
00:00:30:83,0.039,-0.909,-0.765,-7.508,-127.137,-167.237,
00:00:30:100,0.069,-0.842,-0.634,1.098,-93.445,-140.198,
00:00:30:117,0.038,-0.915,-0.54,6.347,-95.276,-129.151,
00:00:30:133,0.016,-0.873,-0.476,-11.841,-109.131,-121.277,
00:00:30:150,-0.027,-0.826,-0.47,4.638,-136.475,-102.173,
00:00:30:167,-0.074,-0.839,-0.596,57.556,-143.738,-76.539,
00:00:30:183,-0.154,-0.844,-0.682,0,-118.164,-41.993,
00:00:30:200,-0.202,-0.816,-0.717,-121.705,-68.604,-11.109,
00:00:30:217,-0.229,-0.787,-0.693,-129.273,-16.846,21.301,
00:00:30:233,-0.244,-0.668,-0.633,88.989,9.643,31.982,
00:00:30:250,-0.188,-0.857,-0.586,-66.59,20.813,30.578,
00:00:30:267,-0.17,-0.713,-0.654,-237.793,54.626,83.313,
00:00:30:283,-0.147,-0.754,-0.46,-430.848,42.602,136.108,
00:00:30:300,-0.047,-0.664,-0.424,-300.049,26.367,150.024,
00:00:30:317,-0.053,-0.99,-0.433,-139.1,0.244,123.108,
00:00:30:333,-0.046,-0.927,-0.536,-14.1,-13.794,103.82,
00:00:30:350,-0.114,-1.034,-0.654,83.801,-15.381,49.133,
00:00:30:367,-0.101,-1.048,-0.63,93.872,3.356,-3.235,
00:00:30:383,-0.12,-0.946,-0.599,103.515,28.32,-44.8,
00:00:30:400,-0.122,-0.982,-0.555,92.59,35.156,-67.81,
00:00:30:417,-0.112,-0.838,-0.516,42.785,44.799,-66.895,
00:00:30:433,-0.141,-0.832,-0.57,-25.757,64.697,-44.678,
00:00:30:450,-0.17,-0.866,-0.579,-236.268,80.505,10.742,
00:00:30:467,-0.17,-0.844,-0.502,-376.526,98.816,65.918,
00:00:30:483,-0.151,-0.862,-0.542,-348.572,115.966,98.51,
00:00:30:500,-0.147,-0.948,-0.437,-293.03,101.562,117.004,
00:00:30:517,-0.09,-0.88,-0.382,-196.289,87.829,90.087,
00:00:30:533,-0.119,-0.993,-0.492,-76.172,71.289,64.819,
00:00:30:550,0.043,-0.898,-0.383,-131.226,68.359,31.616,
00:00:30:567,0.015,-0.965,-0.301,-178.894,38.757,3.051,
00:00:30:583,0.034,-1.04,-0.309,-200.623,3.845,-30.518,
00:00:30:600,0.01,-1.026,-0.368,-158.265,-20.813,-36.622,
00:00:30:617,-0.123,-0.924,-0.513,-142.579,-23.255,-23.133,
00:00:30:633,-0.187,-0.884,-0.61,-127.503,-0.123,-9.217,
00:00:30:650,-0.234,-0.849,-0.618,-148.804,57.556,-0.123,
00:00:30:667,-0.187,-0.879,-0.502,-109.009,101.379,1.953,
00:00:30:683,-0.12,-0.876,-0.37,-52.857,96.862,-4.395,
00:00:30:700,-0.029,-0.942,-0.248,75.805,48.156,-38.514,
00:00:30:717,0.001,-0.968,-0.229,142.883,-24.353,-49.927,
00:00:30:733,0.059,-0.889,-0.425,83.19,-38.147,-0.306,
00:00:30:750,0.014,-1.011,-0.566,36.926,21.118,29.419,
00:00:30:767,-0.005,-0.882,-0.546,-86.06,60.058,86.608,
00:00:30:783,-0.005,-0.835,-0.526,-18.433,75.5,84.167,
00:00:30:800,-0.046,-0.894,-0.477,105.224,61.706,37.719,
00:00:30:817,-0.074,-0.941,-0.396,228.515,38.024,-11.048,
00:00:30:833,-0.118,-0.94,-0.353,280.456,8.85,-40.894,
00:00:30:850,-0.105,-1.005,-0.313,304.565,-33.204,-62.561,
00:00:30:867,-0.13,-0.973,-0.352,233.093,-42.786,-75.135,
00:00:30:883,-0.11,-0.932,-0.372,198.669,-52.124,-49.866,
00:00:30:900,-0.09,-0.894,-0.377,173.767,-54.566,-21.485,
00:00:30:917,-0.083,-0.894,-0.369,189.636,-64.698,8.972,
00:00:30:933,-0.084,-0.768,-0.458,248.657,-81.788,34.118,
00:00:30:950,-0.072,-0.849,-0.55,321.838,-93.506,24.597,
00:00:30:967,-0.13,-0.917,-0.671,210.937,-74.83,46.752,
00:00:30:983,-0.108,-0.908,-0.709,54.748,-34.241,70.312,
00:00:31:0,-0.13,-0.916,-0.602,-156.556,0.671,73.852,
00:00:31:17,-0.07,-0.869,-0.528,-116.15,12.207,73.547,
00:00:31:33,-0.087,-0.884,-0.449,-58.045,4.089,67.138,
00:00:31:50,-0.101,-0.903,-0.46,72.204,-21.607,47.424,
00:00:31:67,-0.102,-0.97,-0.484,128.967,-51.941,39.733,
00:00:31:83,-0.115,-0.976,-0.534,127.99,-62.439,33.508,
00:00:31:100,-0.104,-1.074,-0.62,50.476,-28.931,3.662,
00:00:31:117,-0.158,-1.059,-0.68,-3.052,-8.789,6.103,
00:00:31:133,-0.071,-0.844,-0.594,-57.618,22.033,0.366,
00:00:31:150,-0.066,-0.663,-0.524,100.647,32.226,-13.001,
00:00:31:167,-0.043,-0.806,-0.528,233.52,23.803,-11.414,
00:00:31:183,-0.019,-0.767,-0.543,181.152,20.141,14.038,
00:00:31:200,-0.017,-0.825,-0.56,92.163,15.625,41.565,
00:00:31:217,0.002,-0.866,-0.555,-33.631,10.253,71.533,
00:00:31:233,-0.037,-0.854,-0.521,-144.165,13.488,96.191,
00:00:31:250,-0.017,-0.842,-0.543,-75.928,7.446,90.454,
00:00:31:267,-0.027,-0.918,-0.511,-35.34,0.671,67.443,
00:00:31:283,-0.013,-0.855,-0.545,68.42,-17.212,44.128,
00:00:31:300,-0.005,-0.936,-0.571,127.99,-37.72,18.005,
00:00:31:317,-0.007,-0.921,-0.553,98.816,-40.039,4.76,
00:00:31:333,0.028,-0.835,-0.583,106.384,-42.786,-11.536,
00:00:31:350,0.043,-0.836,-0.603,88.317,-44.861,-7.935,
00:00:31:367,0.059,-0.8,-0.601,-51.087,-32.166,3.173,
00:00:31:383,0.043,-0.839,-0.592,-74.585,-13.123,21.789,
00:00:31:400,0.035,-0.817,-0.57,-73.487,-4.761,18.249,
00:00:31:417,0.024,-0.889,-0.525,-84.351,4.455,19.836,
00:00:31:433,-0.022,-0.895,-0.506,-42.664,-3.052,13.916,
00:00:31:450,-0.011,-0.898,-0.479,-35.95,-12.696,0,
00:00:31:467,-0.027,-0.849,-0.478,-27.222,-17.212,-0.061,
00:00:31:483,-0.013,-0.806,-0.489,25.268,-19.654,-0.794,
00:00:31:500,-0.029,-0.943,-0.544,-6.836,-20.752,2.075,
00:00:31:517,-0.03,-0.78,-0.533,-60.73,-23.865,29.602,
00:00:31:533,-0.028,-0.912,-0.573,-48.951,-9.4,21.545,
00:00:31:550,-0.024,-0.831,-0.589,-75.318,13.732,25.085,
00:00:31:567,0.041,-0.844,-0.513,-53.406,22.766,25.512,
00:00:31:583,0.096,-0.825,-0.525,-8.912,22.216,5.249,
00:00:31:600,0.092,-0.852,-0.492,-33.448,15.258,0.061,
00:00:31:617,0.096,-0.876,-0.506,-63.782,5.493,-1.648,
00:00:31:633,0.024,-0.857,-0.526,-34.79,-2.259,-12.269,
00:00:31:650,-0.015,-1.049,-0.573,-80.75,3.967,-25.391,
00:00:31:667,0.031,-0.966,-0.52,-121.766,3.723,-38.697,
00:00:31:683,0.079,-0.872,-0.563,-43.335,-11.536,-70.984,
00:00:31:700,0.119,-0.94,-0.546,77.575,-13.55,-144.593,
00:00:31:717,0.12,-0.946,-0.598,28.259,8.972,-158.997,
00:00:31:733,0.1,-0.953,-0.671,-54.139,28.991,-161.438,
00:00:31:750,0.026,-0.976,-0.6,-253.235,38.879,-132.63,
00:00:31:767,0.059,-0.797,-0.482,-325.257,50.72,-99.366,
00:00:31:783,0.026,-0.856,-0.411,-288.941,51.757,-83.558,
00:00:31:800,0.023,-0.833,-0.358,-190.308,41.076,-68.726,
00:00:31:817,-0.009,-0.888,-0.338,-56.153,30.761,-65.674,
00:00:31:833,-0.037,-0.89,-0.331,13.732,16.845,-52.552,
00:00:31:850,-0.061,-0.822,-0.374,91.064,2.136,-51.026,
00:00:31:867,-0.057,-0.792,-0.441,192.321,-11.963,-66.773,
00:00:31:883,-0.063,-0.831,-0.503,229.37,-30.274,-85.267,
00:00:31:900,-0.047,-0.9,-0.576,117.859,-18.494,-74.158,
00:00:31:917,-0.047,-0.928,-0.586,-70.557,5.127,-47.303,
00:00:31:933,-0.026,-0.884,-0.523,-176.941,20.752,-31.006,
00:00:31:950,-0.028,-0.929,-0.443,-209.107,26.062,-30.579,
00:00:31:967,-0.047,-0.877,-0.408,-131.226,30.822,-13.245,
00:00:31:983,-0.033,-1.108,-0.384,-127.869,16.113,-55.298,
00:00:32:0,-0.044,-0.805,-0.466,-186.036,23.132,-59.998,
00:00:32:17,-0.031,-0.937,-0.474,-156.311,35.583,-87.708,
00:00:32:33,-0.059,-0.942,-0.561,-272.034,74.34,-52.063,
00:00:32:50,-0.089,-0.95,-0.505,-271.912,107.605,-24.72,
00:00:32:67,-0.08,-1.041,-0.457,-267.151,121.704,0.488,
00:00:32:83,-0.073,-1.046,-0.388,-280.152,120.971,3.906,
00:00:32:100,-0.08,-1.06,-0.321,-256.165,100.28,-1.954,
00:00:32:117,-0.092,-1.032,-0.355,-153.138,67.26,-29.175,
00:00:32:133,-0.089,-0.997,-0.354,-32.776,51.025,-55.603,
00:00:32:150,-0.08,-0.941,-0.376,73.852,46.569,-65.918,
00:00:32:167,-0.066,-0.945,-0.405,218.994,40.771,-71.106,
00:00:32:183,-0.071,-0.958,-0.434,255.676,50.598,-69.825,
00:00:32:200,-0.052,-0.909,-0.422,218.017,68.176,-71.595,
00:00:32:217,-0.053,-0.827,-0.455,206.298,77.88,-66.468,
00:00:32:233,-0.038,-0.827,-0.427,230.468,85.083,-64.82,
00:00:32:250,-0.036,-0.804,-0.4,240.051,75.988,-59.327,
00:00:32:267,-0.023,-0.739,-0.413,281.921,60.241,-69.947,
00:00:32:283,-0.01,-0.864,-0.4,329.284,55.114,-90.088,
00:00:32:300,-0.033,-0.932,-0.436,287.17,23.071,-92.286,
00:00:32:317,-0.023,-0.978,-0.496,244.629,-4.944,-120.667,
00:00:32:333,-0.058,-0.987,-0.538,150.329,-7.142,-155.64,
00:00:32:350,-0.067,-0.964,-0.566,60.058,5.737,-164.795,
00:00:32:367,-0.082,-0.928,-0.548,-16.785,27.648,-151.001,
00:00:32:383,-0.089,-0.804,-0.51,-13.55,46.814,-130.677,
00:00:32:400,-0.047,-0.943,-0.488,35.4,50.048,-106.324,
00:00:32:417,-0.079,-0.865,-0.485,13.488,39.062,-70.069,
00:00:32:433,-0.082,-0.885,-0.454,44.189,31.616,-36.805,
00:00:32:450,-0.072,-0.85,-0.479,77.453,29.113,-13.611,
00:00:32:467,-0.102,-0.885,-0.547,95.886,21.911,8.789,
00:00:32:483,-0.135,-0.752,-0.532,91.064,28.198,39.733,
00:00:32:500,-0.13,-0.808,-0.502,124.755,36.438,137.756,
00:00:32:517,-0.112,-0.839,-0.512,126.281,13.061,146.423,
00:00:32:533,-0.159,-0.89,-0.507,106.018,9.704,146.667,
00:00:32:550,-0.129,-0.873,-0.537,54.26,33.142,141.662,
00:00:32:567,-0.028,-0.899,-0.445,166.809,5.493,139.831,
00:00:32:583,-0.049,-0.952,-0.454,196.533,-26.185,133.3,
00:00:32:600,-0.007,-1.038,-0.509,175.781,-46.143,112.548,
00:00:32:617,-0.021,-0.927,-0.458,143.005,-52.735,97.229,
00:00:32:633,-0.017,-0.88,-0.573,252.563,-63.05,75.195,
00:00:32:650,-0.113,-1.289,-0.645,-4.456,6.774,-46.998,
00:00:32:667,0.001,-0.672,-0.566,-101.197,28.503,50.048,
00:00:32:683,-0.016,-0.864,-0.469,-87.769,22.094,-21.79,
00:00:32:700,0.015,-0.853,-0.6,69.274,13.916,-12.085,
00:00:32:717,0.002,-0.865,-0.549,4.394,4.272,-10.743,
00:00:32:733,0.024,-0.858,-0.632,1.281,-4.212,-12.94,
00:00:32:750,0.037,-0.842,-0.6,-64.148,-3.602,-5.249,
00:00:32:767,-0.011,-0.849,-0.533,-44.129,4.882,17.395,
00:00:32:783,-0.019,-0.867,-0.511,-5.433,-4.578,18.615,
00:00:32:800,-0.074,-1.085,-0.574,-7.203,-3.418,-42.542,
00:00:32:817,0.005,-0.843,-0.594,12.695,2.502,-11.902,
00:00:32:833,-0.021,-0.847,-0.534,12.695,-7.203,-26.673,
00:00:32:850,-0.025,-0.865,-0.575,24.108,-7.874,-25.818,
00:00:32:867,-0.035,-0.824,-0.558,14.587,2.258,-22.461,
00:00:32:883,-0.002,-0.834,-0.567,46.447,11.779,-14.71,
00:00:32:900,0.01,-0.838,-0.515,28.442,15.564,-2.076,
00:00:32:917,-0.03,-0.905,-0.583,90.332,-1.343,-13.855,
00:00:32:933,-0.002,-0.883,-0.59,67.138,1.831,-23.743,
00:00:32:950,-0.011,-0.881,-0.549,73.12,5.859,-30.64,
00:00:32:967,-0.003,-0.863,-0.546,43.457,9.155,-35.767,
00:00:32:983,-0.001,-0.856,-0.544,27.343,-5.127,-32.532,
00:00:33:0,0.019,-0.825,-0.611,49.926,-15.686,-36.499,
00:00:33:17,-0.004,-0.865,-0.623,58.837,-4.822,-41.321,
00:00:33:33,0.015,-0.931,-0.634,28.625,14.038,-53.65,
00:00:33:50,0.045,-0.944,-0.618,6.103,24.963,-77.393,
00:00:33:67,0.015,-0.937,-0.61,-9.217,35.461,-103.15,
00:00:33:83,0.01,-0.93,-0.634,6.774,35.644,-131.409,
00:00:33:100,-0.005,-0.9,-0.592,3.112,63.903,-153.992,
00:00:33:117,-0.042,-0.919,-0.585,-51.575,63.964,-161.072,
00:00:33:133,-0.058,-0.941,-0.609,-124.024,53.1,-176.148,
00:00:33:150,-0.04,-0.863,-0.549,-172.425,51.513,-179.322,
00:00:33:167,-0.076,-0.854,-0.517,-89.661,43.884,-198.548,
00:00:33:183,-0.068,-0.887,-0.529,-21.912,26.184,-228.089,
00:00:33:200,-0.059,-0.85,-0.514,-43.702,14.282,-226.258,
00:00:33:217,-0.084,-0.823,-0.5,-40.772,0.183,-215.332,
00:00:33:233,-0.094,-0.833,-0.531,-94.422,-13.794,-204.285,
00:00:33:250,-0.098,-0.814,-0.51,-164.063,-9.339,-186.28,
00:00:33:267,-0.133,-0.847,-0.515,-213.746,-7.142,-143.799,
00:00:33:283,-0.157,-0.895,-0.507,-202.271,-7.264,-149.598,
00:00:33:300,-0.141,-0.881,-0.553,-158.204,-15.809,-154.48,
00:00:33:317,-0.162,-0.883,-0.549,-112.366,-12.696,-156.128,
00:00:33:334,-0.182,-0.854,-0.568,-103.211,-8.484,-156.128,
00:00:33:350,-0.152,-0.861,-0.552,-152.161,0.671,-145.02,
00:00:33:367,-0.164,-0.825,-0.492,-215.821,14.587,-119.812,
00:00:33:384,-0.157,-0.805,-0.445,-255.555,14.831,-94.544,
00:00:33:400,-0.141,-0.785,-0.446,-227.723,-0.061,-82.581,
00:00:33:417,-0.165,-0.817,-0.476,-185.669,-13.977,-75.867,
00:00:33:434,-0.157,-0.853,-0.482,-183.106,-13.245,-71.351,
00:00:33:450,-0.188,-0.917,-0.52,-219.605,-5.066,-83.68,
00:00:33:467,-0.185,-0.896,-0.547,-291.138,13.732,-88.562,
00:00:33:484,-0.192,-0.932,-0.501,-351.99,42.114,-107.178,
00:00:33:500,-0.206,-0.966,-0.45,-494.629,65.795,-104.676,
00:00:33:517,-0.204,-0.951,-0.384,-551.88,62.439,-95.215,
00:00:33:534,-0.184,-1.009,-0.362,-633.118,36.926,-91.736,
00:00:33:550,-0.201,-1.096,-0.305,-913.392,53.283,-80.933,
00:00:33:567,-0.224,-1.094,-0.305,-1174.561,55.419,-21.546,
00:00:33:584,-0.162,-1.043,-0.2,-1330.628,66.467,10.559,
00:00:33:600,-0.147,-0.998,-0.097,-1450.623,51.391,50.659,
00:00:33:617,-0.108,-0.965,-0.034,-1516.419,26.916,57.251,
00:00:33:634,-0.139,-0.943,0.001,-1481.263,-5.372,77.453,
00:00:33:650,-0.107,-1.023,0.021,-1578.858,-16.663,128.967,
00:00:33:667,-0.112,-0.853,0.07,-1759.705,-11.231,157.531,
00:00:33:684,-0.107,-0.758,0.164,-1756.226,3.784,150.39,
00:00:33:700,-0.105,-0.726,0.072,-1756.592,62.255,157.776,
00:00:33:717,-0.09,-0.726,0.11,-1839.905,132.812,158.63,
00:00:33:734,-0.089,-0.828,0.183,-1999.756,232.299,207.824,
00:00:33:750,-0.094,-0.66,0.281,-2000,347.961,280.395,flipLH
00:00:33:767,-0.095,-0.791,0.487,-2000,382.263,348.877,
00:00:33:784,-0.073,-0.77,0.637,-2000,377.929,305.236,
00:00:33:800,-0.066,-0.906,0.706,-2000,391.723,222.961,
00:00:33:817,-0.049,-0.856,0.713,-1816.468,402.099,135.009,
00:00:33:834,-0.058,-0.797,0.808,-1288.88,367.859,53.283,
00:00:33:850,-0.047,-0.504,0.834,-953.858,336.242,44.616,
00:00:33:867,-0.03,-0.427,0.894,-774.903,274.841,83.74,
00:00:33:884,-0.013,-0.322,0.867,-541.932,209.411,113.525,
00:00:33:900,0.051,-0.31,0.81,-337.952,192.81,147.522,
00:00:33:917,0.106,-0.576,0.889,-196.656,166.137,143.982,
00:00:33:934,0.157,-0.474,0.921,-131.592,138.183,130.859,
00:00:33:950,0.201,-0.451,0.993,-142.518,88.195,119.445,
00:00:33:967,0.187,-0.564,1.123,-14.649,-15.32,101.745,
00:00:33:984,0.122,-0.613,1.186,33.935,-93.628,74.035,
00:00:34:0,0.053,-0.612,1.107,308.044,-140.931,19.653,
00:00:34:17,0.026,-0.64,1.088,532.776,-168.946,-32.715,
00:00:34:34,0.012,-0.625,1.081,642.761,-196.778,-72.51,
00:00:34:50,0.013,-0.492,1.014,800.232,-214.051,-101.746,
00:00:34:67,0.043,-0.524,0.978,1091.369,-233.948,-140.381,
00:00:34:84,0.041,-0.573,0.84,1328.735,-251.831,-196.839,
00:00:34:100,0,-0.628,0.729,1512.085,-251.038,-248.963,
00:00:34:117,0.008,-0.615,0.725,1679.748,-248.78,-291.199,
00:00:34:134,-0.005,-0.618,0.563,1859.314,-229.859,-328.431,
00:00:34:150,-0.039,-0.638,0.501,1999.694,-231.202,-320.313,
00:00:34:167,-0.02,-0.625,0.434,1999.694,-216.553,-322.632,
00:00:34:184,-0.115,-0.805,0.206,1999.694,-210.267,-270.142,
00:00:34:200,-0.114,-0.808,0.257,1999.694,-192.688,-214.6,
00:00:34:217,-0.113,-0.808,0.166,1999.694,-169.556,-202.454,
00:00:34:234,-0.128,-0.824,0.08,1999.694,-174.561,-143.128,
00:00:34:250,-0.115,-0.883,0.023,1999.694,-171.814,-59.937,
00:00:34:267,-0.113,-0.91,-0.2,1999.694,-157.959,-6.531,
00:00:34:284,-0.152,-1.005,-0.357,1999.694,-121.827,31.799,
00:00:34:300,-0.137,-1.06,-0.412,1895.935,-73.304,73.242,
00:00:34:317,-0.136,-1.002,-0.456,1579.651,-50.049,80.81,
00:00:34:334,-0.08,-0.95,-0.454,1401.306,-48.523,79.04,
00:00:34:350,-0.086,-0.991,-0.45,1177.734,-54.261,75.073,
00:00:34:367,-0.074,-0.968,-0.473,854.98,-59.266,64.27,
00:00:34:384,-0.103,-0.856,-0.498,662.536,-48.279,69.091,
00:00:34:400,-0.075,-0.85,-0.492,473.571,-44.129,82.275,
00:00:34:417,-0.083,-0.814,-0.576,440.063,-38.514,80.505,
00:00:34:434,-0.093,-0.828,-0.617,512.512,-31.434,80.749,
00:00:34:450,-0.105,-1,-0.654,464.05,-14.161,55.297,
00:00:34:467,-0.108,-0.977,-0.642,351.806,-1.831,48.339,
00:00:34:484,-0.079,-0.922,-0.622,288.452,9.826,43.579,
00:00:34:500,-0.084,-0.878,-0.607,232.055,3.356,42.663,
00:00:34:517,-0.053,-0.918,-0.652,155.578,11.291,46.752,
00:00:34:534,-0.068,-0.925,-0.659,47.668,22.827,57.19,
00:00:34:550,-0.038,-0.935,-0.597,-52.002,37.292,52.734,
00:00:34:567,-0.031,-0.892,-0.565,-72.449,35.949,47.851,
00:00:34:584,-0.014,-0.83,-0.614,12.756,35.766,36.621,
00:00:34:600,-0.037,-0.9,-0.607,18.554,37.109,26.489,
00:00:34:617,-0.018,-0.838,-0.623,-3.296,42.968,20.752,
00:00:34:634,-0.028,-0.881,-0.638,-6.775,44.677,10.376,
00:00:34:650,-0.044,-0.908,-0.628,-96.985,56.396,-2.564,
00:00:34:667,-0.046,-0.893,-0.626,-151.795,66.406,-14.893,
00:00:34:684,-0.063,-0.852,-0.592,-168.213,64.941,-21.729,
00:00:34:700,-0.064,-0.833,-0.581,-126.038,66.04,-26.917,
00:00:34:717,-0.061,-0.864,-0.583,-110.474,66.589,-31.311,
00:00:34:734,-0.037,-0.857,-0.603,-104.065,64.636,-34.18,
00:00:34:750,-0.022,-0.901,-0.606,-142.945,68.237,-45.105,
00:00:34:767,0.009,-0.917,-0.593,-240.174,71.35,-56.519,
00:00:34:784,0.022,-0.885,-0.588,-262.879,68.054,-74.219,
00:00:34:800,0.038,-0.906,-0.581,-227.051,67.749,-94.788,
00:00:34:817,0.036,-0.86,-0.532,-221.131,61.95,-110.047,
00:00:34:834,0.055,-0.853,-0.497,-119.751,52.734,-122.254,
00:00:34:850,0.035,-0.902,-0.485,-96.863,18.005,-136.841,
00:00:34:867,0.033,-0.887,-0.494,-118.714,7.934,-151.856,
00:00:34:884,0.02,-0.881,-0.536,-127.625,-13.428,-166.199,
00:00:34:900,0.011,-0.875,-0.587,-147.828,-24.903,-178.711,
00:00:34:917,0.022,-0.836,-0.61,-112.671,-26.185,-190.674,
00:00:34:934,0.027,-0.863,-0.581,-57.129,-23.743,-201.05,
00:00:34:950,0.014,-0.839,-0.506,-50.11,-38.575,-198.121,
00:00:34:967,0.043,-0.826,-0.46,2.563,-59.388,-198.548,
00:00:34:984,0.034,-0.883,-0.433,-4.029,-100.403,-195.74,
00:00:35:0,0.029,-0.869,-0.482,-22.339,-136.292,-190.247,
00:00:35:17,0.027,-0.865,-0.565,-7.386,-153.26,-183.289,
00:00:35:34,-0.006,-0.864,-0.636,12.878,-143.616,-169.556,
00:00:35:50,-0.031,-0.823,-0.629,42.907,-124.695,-150.269,
00:00:35:67,-0.067,-0.833,-0.604,45.837,-95.826,-114.563,
00:00:35:84,-0.083,-0.822,-0.529,33.142,-82.825,-54.505,
00:00:35:100,-0.067,-0.747,-0.48,96.252,-95.704,3.356,
00:00:35:117,-0.099,-0.755,-0.508,220.703,-116.15,53.649,
00:00:35:134,-0.131,-0.788,-0.545,255.676,-131.348,93.261,
00:00:35:150,-0.171,-0.807,-0.604,178.283,-117.188,123.047,
