TIMECODE,ACC_X,ACC_Y,ACC_Z,GYR_X,GYR_Y,GYR_Z,ECG_I,ECG_II,ECG_III,TAG
,-0.067,0.664,0.722,9.338,3.356,-20.447,0,0,0,
,-0.07,0.661,0.727,8.483,8.728,-23.438,0,0,0,
,-0.066,0.657,0.721,9.765,10.192,-22.034,0,0,0,
,-0.063,0.656,0.726,5.493,9.094,-22.217,0,0,0,
,-0.072,0.658,0.725,0.366,6.347,-21.363,0,0,0,
,-0.076,0.664,0.727,-0.55,7.507,-22.217,0,0,0,
,-0.067,0.663,0.723,1.953,9.582,-24.414,0,0,0,
,-0.064,0.664,0.723,5.676,8.728,-23.377,0,0,0,
,-0.061,0.66,0.723,6.591,8.728,-22.889,0,0,0,
,-0.068,0.662,0.724,8.667,7.141,-21.668,0,0,0,
,-0.07,0.662,0.726,3.54,8.178,-24.17,0,0,0,
,-0.066,0.659,0.723,3.906,7.934,-23.194,0,0,0,
,-0.07,0.663,0.721,5.92,8.483,-21.424,0,0,0,
,-0.068,0.663,0.725,5.127,7.751,-21.668,0,0,0,
,-0.071,0.663,0.721,7.934,9.704,-20.813,0,0,0,
,-0.071,0.658,0.726,7.568,11.474,-21.485,0,0,0,
,-0.07,0.66,0.725,4.699,11.84,-22.522,0,0,0,
,-0.066,0.664,0.729,5.737,8.789,-21.058,0,0,0,
,-0.061,0.66,0.72,9.582,10.376,-22.461,0,0,0,
,-0.063,0.662,0.722,5.737,5.554,-22.217,0,0,0,
,-0.07,0.658,0.72,0.427,7.08,-22.4,0,0,0,
,-0.072,0.663,0.724,1.403,7.629,-21.729,0,0,0,
,-0.072,0.662,0.724,2.624,9.155,-24.109,0,0,0,
,-0.07,0.662,0.72,4.821,8.728,-23.926,0,0,0,
,-0.066,0.662,0.722,5.065,8.789,-24.048,0,0,0,
,-0.066,0.661,0.725,7.629,9.582,-22.522,0,0,0,
,-0.065,0.662,0.728,7.995,10.131,-20.997,0,0,0,
,-0.069,0.654,0.722,10.681,10.62,-21.668,0,0,0,
,-0.068,0.66,0.73,5.371,8.361,-20.264,0,0,0,
,-0.069,0.658,0.717,-1.282,9.277,-21.424,0,0,0,
,-0.069,0.666,0.72,-1.465,9.216,-21.729,0,0,0,
,-0.067,0.667,0.717,0.854,7.873,-22.95,0,0,0,
,-0.066,0.668,0.721,6.164,7.324,-21.912,0,0,0,
,-0.066,0.662,0.722,11.535,10.681,-24.292,0,0,0,
,-0.065,0.654,0.727,11.352,8.911,-22.706,0,0,0,
,-0.069,0.664,0.726,5.249,8.85,-20.02,0,0,0,
,-0.067,0.661,0.724,3.356,9.155,-21.363,0,0,0,
,-0.066,0.665,0.721,3.051,7.202,-20.997,0,0,0,
,-0.068,0.669,0.717,6.103,10.131,-22.583,0,0,0,
,-0.07,0.667,0.718,11.108,9.826,-22.095,0,0,0,
,-0.07,0.661,0.727,16.296,10.864,-22.644,0,0,0,
,-0.068,0.653,0.728,14.343,8.606,-23.499,0,0,0,
,-0.067,0.659,0.727,3.662,6.347,-23.682,0,0,0,
,-0.066,0.662,0.722,-1.587,7.202,-22.828,0,0,0,
,-0.067,0.668,0.724,2.746,5.249,-23.316,0,0,0,
,-0.065,0.664,0.718,6.836,5.615,-24.476,0,0,0,
,-0.066,0.66,0.725,11.901,6.713,-23.56,0,0,0,
,-0.068,0.658,0.725,4.394,7.446,-22.644,0,0,0,
,-0.07,0.659,0.722,4.455,8.117,-22.4,0,0,0,
,-0.07,0.664,0.726,2.624,9.216,-22.95,0,0,0,
,-0.069,0.658,0.721,7.568,9.521,-23.072,0,0,0,
,-0.068,0.659,0.725,5.554,7.995,-23.621,0,0,0,
,-0.067,0.659,0.722,1.953,8.728,-23.438,0,0,0,
,-0.067,0.666,0.726,2.441,6.103,-23.011,0,0,0,
,-0.064,0.664,0.717,5.432,9.399,-24.231,0,0,0,
,-0.065,0.666,0.724,8.667,7.568,-21.973,0,0,0,
,-0.065,0.658,0.724,4.028,8.667,-23.865,0,0,0,
,-0.071,0.66,0.725,6.897,6.836,-21.851,0,0,0,
,-0.071,0.662,0.726,6.774,7.934,-21.607,0,0,0,
,-0.069,0.656,0.719,5.127,8.789,-22.4,0,0,0,
,-0.07,0.662,0.723,1.464,8.056,-22.767,0,0,0,
,-0.072,0.664,0.721,1.22,9.826,-22.217,0,0,0,
,-0.066,0.662,0.726,4.455,8.117,-23.255,0,0,0,
,-0.064,0.661,0.724,3.479,10.07,-24.842,0,0,0,
,-0.063,0.663,0.724,3.479,8.972,-22.4,0,0,0,
,-0.064,0.665,0.726,4.821,8.239,-23.011,0,0,0,
,-0.064,0.659,0.719,8.667,8.483,-20.691,0,0,0,
,-0.071,0.659,0.726,8.239,7.263,-20.813,0,0,0,
,-0.074,0.661,0.718,2.929,9.277,-21.241,0,0,0,
,-0.067,0.663,0.725,1.648,8.972,-21.79,0,0,0,
,-0.065,0.666,0.719,1.098,9.826,-22.706,0,0,0,
,-0.066,0.669,0.721,4.272,9.399,-20.935,0,0,0,
,-0.065,0.664,0.725,10.986,9.094,-21.851,0,0,0,
,-0.066,0.66,0.722,13.671,7.385,-22.156,0,0,0,
,-0.07,0.657,0.728,8.483,8.544,-22.461,0,0,0,
,-0.068,0.657,0.724,2.502,6.652,-22.4,0,0,0,
,-0.068,0.664,0.727,0.854,7.141,-20.386,0,0,0,
,-0.068,0.662,0.721,4.943,9.948,-22.034,0,0,0,
,-0.065,0.663,0.721,5.004,7.873,-23.011,0,0,0,
,-0.068,0.666,0.718,2.563,9.155,-24.292,0,0,0,
,-0.065,0.668,0.722,8.3,7.812,-21.729,0,0,0,
,-0.068,0.664,0.722,8.361,9.094,-21.729,0,0,0,
,-0.068,0.656,0.726,10.803,9.033,-23.316,0,0,0,
,-0.072,0.661,0.727,4.943,6.836,-23.255,0,0,0,
,-0.07,0.66,0.72,2.624,7.019,-22.583,0,0,0,
,-0.074,0.666,0.723,3.112,7.812,-21.363,0,0,0,
,-0.073,0.664,0.721,7.507,11.535,-23.194,0,0,0,
,-0.069,0.66,0.725,12.085,11.962,-21.241,0,0,0,
,-0.067,0.66,0.725,6.469,11.84,-21.607,0,0,0,
,-0.062,0.662,0.72,10.864,10.192,-18.128,0,0,0,
,-0.063,0.661,0.729,15.258,12.756,-16.724,0,0,0,
,-0.067,0.656,0.729,15.258,14.709,-17.701,0,0,0,
,-0.067,0.685,0.726,8.483,13.183,-15.015,0,0,0,
,-0.068,0.657,0.726,-0.245,15.319,-0.306,0,0,0,
,-0.064,0.663,0.725,0.244,10.986,-17.09,0,0,0,
,-0.063,0.67,0.688,3.906,13.549,-16.968,0,0,0,
,-0.063,0.662,0.689,11.291,8.972,-22.156,0,0,0,
,-0.061,0.666,0.721,2.807,5.127,-23.438,0,0,0,
,-0.062,0.662,0.72,5.554,0.244,-25.94,0,0,0,
,-0.063,0.666,0.723,7.873,-0.428,-26.673,0,0,0,
,-0.065,0.663,0.725,10.681,-2.015,-28.138,0,0,0,
,-0.067,0.657,0.725,11.413,-2.564,-27.161,0,0,0,
,-0.071,0.656,0.724,5.798,-1.954,-27.894,0,0,0,
,-0.069,0.658,0.725,1.648,-1.404,-27.894,0,0,0,
,-0.075,0.662,0.724,-1.038,0.671,-26.978,0,0,0,
,-0.081,0.661,0.723,3.723,0.122,-28.077,0,0,0,
,-0.078,0.66,0.725,2.197,3.173,-29.725,0,0,0,
,-0.071,0.658,0.724,2.075,3.356,-30.335,0,0,0,
,-0.067,0.661,0.723,1.953,2.807,-29.358,0,0,0,
,-0.072,0.657,0.719,0.61,4.76,-28.26,0,0,0,
,-0.071,0.665,0.72,2.624,5.676,-25.879,0,0,0,
,-0.073,0.661,0.726,8.544,12.023,-23.133,0,0,0,
,-0.082,0.653,0.726,11.657,30.334,-17.945,0,0,0,
,-0.088,0.661,0.737,9.948,24.169,-7.691,0,0,0,
,-0.087,0.685,0.74,39.978,49.56,12.817,0,0,0,
,-0.076,0.682,0.724,113.586,84.106,26.306,0,0,0,
,-0.047,0.627,0.709,140.503,99.243,8.972,0,0,0,
,-0.019,0.593,0.723,62.805,60.18,-12.024,0,0,0,
,-0.024,0.616,0.735,-70.984,5.31,-31.617,0,0,0,
,-0.054,0.681,0.721,-142.09,-35.279,-40.955,0,0,0,
,-0.076,0.734,0.705,-109.436,-46.631,-43.519,0,0,0,
,-0.094,0.731,0.715,3.051,-32.288,-47.364,0,0,0,
,-0.094,0.686,0.725,86.853,-11.597,-45.227,0,0,0,
,-0.084,0.627,0.74,128.601,0.549,-40.833,0,0,0,
,-0.062,0.594,0.759,84.167,5.554,-39.368,0,0,0,
,-0.037,0.597,0.751,1.648,1.159,-37.659,0,0,0,
,-0.029,0.631,0.745,-46.936,-4.822,-27.71,0,0,0,
,-0.034,0.664,0.729,-49.744,1.22,-18.372,0,0,0,
,-0.044,0.674,0.714,-32.837,1.22,-17.029,0,0,0,
,-0.065,0.676,0.712,-21.668,-2.32,-14.954,0,0,0,
,-0.078,0.675,0.72,-10.743,-5.555,-17.395,0,0,0,
,-0.08,0.669,0.717,-7.813,-7.264,-27.527,0,0,0,
,-0.078,0.665,0.715,-3.907,-12.94,-39.795,0,0,0,
,-0.071,0.662,0.723,-6.348,-18.128,-46.021,0,0,0,
,-0.075,0.662,0.714,-15.625,-19.288,-48.645,0,0,0,
,-0.072,0.666,0.722,-10.926,-17.579,-51.88,0,0,0,
,-0.067,0.668,0.721,-2.625,-14.283,-53.528,0,0,0,
,-0.066,0.673,0.714,20.385,-7.081,-51.575,0,0,0,
,-0.065,0.68,0.702,57.19,-5.005,-48.89,0,0,0,
,-0.065,0.665,0.726,82.153,-11.78,-55.359,0,0,0,
,-0.071,0.638,0.73,74.096,-10.132,-52.369,0,0,0,
,-0.073,0.609,0.729,55.114,-5.433,-50.721,0,0,0,
,-0.07,0.615,0.765,17.944,1.098,-30.579,0,0,0,
,-0.07,0.658,0.743,52.49,23.193,-14.161,0,0,0,
,-0.06,0.759,0.662,248.596,17.578,9.521,0,0,0,
,-0.067,0.754,0.666,444.885,33.081,-2.076,0,0,0,
,-0.099,0.667,0.783,519.958,77.575,-3.785,0,0,0,
,-0.073,0.542,0.774,361.877,56.03,-12.94,0,0,0,
,-0.034,0.558,0.797,272.766,62.622,22.094,0,0,0,
,-0.047,0.559,0.811,193.847,21.972,-7.142,0,0,0,
,-0.07,0.553,0.821,128.112,28.442,-7.447,0,0,0,
,-0.059,0.532,0.826,50.842,18.798,-57.496,0,0,0,
,-0.075,0.555,0.818,-40.406,-6.165,-72.144,0,0,0,
,-0.06,0.599,0.796,-71.228,-3.785,-73.243,0,0,0,
,-0.055,0.609,0.787,-56.031,-2.259,-92.835,0,0,0,
,-0.075,0.575,0.713,-95.52,-21.119,-107.727,0,0,0,
,-0.082,0.584,0.79,-159.363,-68.543,-79.895,0,0,0,
,-0.032,0.62,0.772,83.862,15.075,-22.461,0,0,0,
,-0.043,0.563,0.78,92.834,5.065,-24.353,0,0,0,
,-0.046,0.541,0.801,24.414,-1.16,-29.48,0,0,0,
,-0.046,0.552,0.787,-51.941,-2.869,-30.823,0,0,0,
,-0.063,0.59,0.79,-61.036,-11.658,-18.921,0,0,0,
,-0.054,0.614,0.773,-4.395,3.356,-21.729,0,0,0,
,-0.063,0.608,0.776,4.821,10.864,-27.466,0,0,0,
,-0.078,0.612,0.791,34.851,5.31,-9.461,0,0,0,
,-0.071,0.597,0.782,43.029,13.427,-25.391,0,0,0,
,-0.06,0.591,0.778,40.649,18.127,-24.781,0,0,0,
,-0.058,0.598,0.777,72.143,18.981,-21.668,0,0,0,
,-0.052,0.587,0.786,71.35,16.784,-20.142,0,0,0,
,-0.051,0.571,0.792,56.152,15.014,-21.607,0,0,0,
,-0.053,0.568,0.801,32.898,7.69,-18.006,0,0,0,
,-0.054,0.578,0.784,17.761,4.028,-7.813,0,0,0,
,-0.051,0.587,0.787,24.536,-4.578,-24.781,0,0,0,
,-0.055,0.597,0.789,24.597,-4.212,-13.245,0,0,0,
,-0.061,0.605,0.774,32.775,-1.954,-11.048,0,0,0,
,-0.066,0.595,0.785,58.593,-0.855,-19.104,0,0,0,
,-0.063,0.571,0.79,49.987,2.685,-23.255,0,0,0,
,-0.043,0.6,0.788,22.399,11.718,-30.274,0,0,0,
,-0.025,0.538,0.79,113.891,23.62,-112.671,0,0,0,
,-0.039,0.561,0.805,107.238,-15.442,3.112,0,0,0,
,-0.062,0.554,0.796,117.736,-23.56,-17.64,0,0,0,
,-0.063,0.514,0.831,80.627,-6.592,-43.641,0,0,0,
,-0.062,0.56,0.816,83.862,-19.104,35.949,0,0,0,
,-0.068,0.599,0.833,96.923,-4.09,1.892,0,0,0,
,-0.045,0.625,0.832,123.901,20.446,-15.686,0,0,0,
,-0.046,0.661,0.831,185.852,97.9,-64.454,0,0,0,
,-0.066,0.591,0.945,172.607,132.751,-62.806,0,0,0,
,-0.194,0.661,1.246,380.798,259.094,-22.522,0,0,0,
,-0.121,0.852,1.803,850.219,183.288,22.399,0,0,0,
,0.135,0.603,2.231,1855.041,-265.015,476.745,0,0,0,
,0.163,0.681,2.297,1666.015,-758.728,567.81,0,0,0,
,0.332,0.896,2.34,1566.528,-1229.126,756.53,0,0,0,
,0.333,0.8,2.132,1841.003,-1567.872,750.427,0,0,0,
,0.343,0.254,1.564,1855.713,-2000,326.599,0,0,0,
,0.451,0.237,1.241,1389.953,-2000,274.597,0,0,0,
,0.379,0.204,0.68,955.383,-2000,192.138,0,0,0,
,0.257,0.137,0.146,744.079,-2000,151.123,0,0,0,
,0.298,0.197,0.038,759.277,-2000,198.852,0,0,0,
,0.451,0.292,0.046,845.153,-2000,145.08,0,0,0,
,0.574,0.322,-0.221,859.497,-2000,92.956,0,0,0,
,0.567,0.299,-0.835,855.896,-2000,-62.012,0,0,0,
,0.466,-0.074,-2.038,525.94,-2000,-275.94,0,0,0,
,0.242,-0.748,-3.621,225.891,-1525.574,-387.757,0,0,0,
,0.159,-1.054,-3.26,-328.186,-770.935,-451.294,0,0,0,
,-0.221,-1.11,-3.248,-1004.578,882.69,-780.762,0,0,0,
,-0.139,-0.716,-2.872,-1203.064,1999.694,-1343.018,0,0,0,
,2.023,0.103,0.762,-1981.69,1999.694,-815.369,0,0,0,
,0.857,2.338,0.951,-2000,1999.694,-468.567,0,0,0,
,1.135,3.512,2.836,-1688.904,1999.694,-1242.676,0,0,0,
,0.883,3.54,3.694,549.072,1999.694,-722.718,0,0,0,
,-0.089,1.278,3.342,1349.121,1823.791,-479.615,0,0,0,
,-0.659,0.006,2.534,803.65,1172.241,-148.316,0,0,0,
,-0.945,-0.189,1.933,-22.4,573.059,73.547,0,0,0,
,-0.751,-0.09,1.62,-75.135,539.917,88.378,0,0,0,
,-0.452,-0.013,1.499,246.643,644.348,6.53,0,0,0,
,-0.161,0.045,1.442,494.262,654.846,-33.631,0,0,0,
,-0.011,0.032,1.299,392.883,614.196,-114.685,0,0,0,
,0.071,-0.028,1.19,45.471,471.191,-164.734,0,0,0,
,0.148,0.129,1.17,-247.986,292.724,-27.955,0,0,0,
,0.103,0.265,1.124,-201.6,178.65,-20.874,0,0,0,
,-0.041,0.185,1.051,116.272,197.815,-1.954,0,0,0,
,-0.066,0.025,0.983,280.639,234.253,-20.874,0,0,0,
,-0.022,-0.029,0.94,171.692,204.467,-66.712,0,0,0,
,0.042,0.103,0.937,-31.617,128.051,-96.558,0,0,0,
,0.049,0.202,0.942,-2.076,106.323,-124.939,0,0,0,
,-0.005,0.159,0.968,182.495,151.733,-108.948,0,0,0,
,0.018,0.094,0.947,196.777,161.621,-74.097,0,0,0,
,0.055,0.045,0.908,30.273,110.901,-44.007,0,0,0,
,0.067,0.052,0.801,-179.078,30.151,-50.904,0,0,0,
,0.082,0.173,0.713,-275.147,-57.679,-72.144,0,0,0,
,-0.125,0.449,1.56,-423.462,-89.539,-148.926,0,0,0,
,-0.218,0.012,0.63,-1223.999,827.453,-377.808,0,0,0,
,0.23,-0.413,1.128,-1929.444,557.983,-637.024,0,0,0,
,1.059,1.276,2.916,-1943.116,-309.754,96.008,0,0,0,
,-0.17,0.478,-0.974,-817.2,-661.377,766.784,0,0,0,
,0.267,0.799,1.143,-935.975,-1440.613,351.989,0,0,0,
,-0.4,0.75,1.059,-369.996,-734.925,-365.662,0,0,0,
,-0.785,0.243,0.748,-342.652,-103.76,-382.752,0,0,0,
,-0.299,0.6,0.916,-139.039,486.816,-88.685,0,0,0,
,0.12,0.595,0.819,-6.592,402.893,-189.881,0,0,0,
,0.207,0.645,0.657,40.222,198.913,108.52,0,0,0,
,0.11,0.571,0.898,79.956,-178.345,33.935,0,0,0,
,-0.079,0.45,0.85,96.74,-162.171,164.795,0,0,0,
,-0.159,0.426,0.931,70.8,-97.596,57.922,0,0,0,
,-0.119,0.489,0.819,-49.927,19.897,-138.306,0,0,0,
,-0.036,0.464,0.962,-10.987,-71.167,-24.781,0,0,0,
,-0.052,0.424,0.795,-38.819,-136.17,-67.688,0,0,0,
,-0.104,0.431,0.883,-75.318,-106.263,-56.092,0,0,0,
,-0.156,0.48,0.863,-61.28,-64.393,7.263,0,0,0,
,-0.099,0.544,0.802,-32.959,-13.977,31.555,0,0,0,
,-0.039,0.605,0.836,-14.588,39.428,33.447,0,0,0,
,-0.051,0.535,0.844,-6.348,24.597,36.254,0,0,0,
,-0.076,0.477,0.861,8.85,16.601,42.724,0,0,0,
,-0.08,0.506,0.871,42.724,11.23,60.363,0,0,0,
,-0.064,0.579,0.88,97.9,-18.311,82.763,0,0,0,
,-0.075,0.653,0.844,232.849,-16.419,110.168,0,0,0,
,-0.27,0.648,1.051,728.82,45.105,412.475,0,0,0,
,-0.284,0.784,1.262,563.842,58.471,464.477,0,0,0,
,-0.181,0.853,1.212,281.005,-67.81,563.781,0,0,0,
,-0.285,0.919,1.076,-105.042,-212.281,565.063,0,0,0,
,-0.584,0.982,1.035,-191.59,-258.484,592.285,0,0,0,
,-0.647,0.805,1,-56.824,-133.179,645.507,0,0,0,
,-0.458,0.299,0.887,-175.477,60.424,608.337,0,0,0,
,-0.387,0.374,0.94,-494.568,60.485,559.631,0,0,0,
,-0.397,0.379,0.701,-625.061,200.866,576.66,0,0,0,
,-0.379,0.521,0.724,-497.376,236.511,445.434,0,0,0,
,-0.314,0.358,0.586,-196.473,485.473,237.671,0,0,0,
,-0.126,0.267,0.543,66.406,609.863,53.955,0,0,0,
,-0.07,0.139,0.583,110.962,638.061,-40.467,0,0,0,
,-0.007,0.168,0.565,74.829,704.895,-20.203,0,0,0,
,0.006,0.237,0.659,-50.171,609.497,21.728,0,0,0,
,0.091,0.471,0.68,20.752,569.946,148.437,0,0,0,
,0.142,0.666,0.738,191.162,510.62,110.534,0,0,0,
,0.177,0.687,0.803,529.419,508.239,-93.14,0,0,0,
,0.199,0.241,0.906,956.482,464.294,-122.559,0,0,0,
,0.32,0.072,0.989,722.229,399.231,-135.01,0,0,0,
,0.219,0.027,0.902,164.306,40.771,-95.093,0,0,0,
,0.084,0.296,1.191,74.157,-162.781,-60.181,0,0,0,
,-0.089,0.238,0.927,118.042,177.978,-264.71,0,0,0,
,-0.039,0.128,0.969,29.724,217.956,-261.109,0,0,0,
,0.096,0.197,0.88,-145.874,263.305,-266.419,0,0,0,
,0.037,0.342,0.842,-146.363,151.916,-228.394,0,0,0,
,-0.024,0.38,0.744,-70.801,259.521,-292.847,0,0,0,
,0.01,0.423,0.814,-145.081,223.816,-237.244,0,0,0,
,0.065,0.395,0.778,-329.712,232.116,-264.161,0,0,0,
,0.235,0.492,0.853,-272.889,204.589,-218.079,0,0,0,
,0.295,0.446,0.783,-114.563,158.142,-234.986,0,0,0,
,0.331,0.371,0.828,32.226,-22.828,-178.345,0,0,0,
,0.254,0.31,1.038,71.472,-247.193,-118.836,0,0,0,
,0.178,0.289,0.98,34.179,-179.444,-44.617,0,0,0,
,0.199,0.129,0.72,57.067,-134.827,-101.197,0,0,0,
,0.237,-0.032,0.698,89.782,-200.867,-96.07,0,0,0,
,0.329,-0.079,0.924,-502.808,-423.829,-83.924,0,0,0,
,0.358,0.132,0.976,-707.154,-523.072,-149.414,0,0,0,
,0.309,0.244,0.856,-850.953,-574.097,-150.696,0,0,0,
,0.231,0.32,0.734,-945.191,-609.436,-169.861,0,0,0,
,0.205,0.394,0.7,-887.635,-595.826,-142.212,0,0,0,
,0.108,0.416,0.698,-874.817,-568.238,-150.025,0,0,0,
,-0.08,0.531,0.831,-916.016,-510.315,-122.742,0,0,0,
,-0.209,0.519,0.839,-765.076,-415.528,-138.55,0,0,0,
,-0.335,0.25,0.776,-841.797,-227.539,-236.939,0,0,0,
,-0.314,-0.061,0.675,-1209.351,-92.774,-138.001,0,0,0,
,-0.199,0.16,0.612,-1775.025,-51.941,-239.075,0,0,0,
,-0.172,0.645,0.219,-2000,-115.357,-121.644,0,0,0,
,-0.251,1.513,-0.233,-2000,-281.373,-78.37,0,0,0,
,-0.484,2.11,0.095,-1628.052,-251.954,-364.38,0,0,0,
,-0.467,1.809,0.256,-734.375,75.561,-135.254,0,0,0,
,-0.276,1.038,0.399,-177.369,199.401,-183.838,0,0,0,
,-0.109,0.682,0.494,-572.693,137.146,9.704,0,0,0,
,-0.065,0.904,0.338,-1257.325,-129.212,-12.757,0,0,0,
,-0.19,1.196,0.268,-1640.564,-161.316,4.211,0,0,0,
,-0.198,1.378,0.132,-1586.365,-111.817,74.34,0,0,0,
,-0.159,1.248,0.061,-1505.677,-54.627,-19.898,0,0,0,
,-0.053,1.229,0.339,-1488.831,-25.33,-34.363,0,0,0,
,-0.027,1.099,0.193,-1935.669,-83.802,42.907,0,0,0,
,-0.131,1.143,0.112,-1979.493,-221.863,52.002,0,0,0,
,-0.32,0.799,0.034,-1520.264,-249.878,-140.259,0,0,0,
,-0.287,0.508,-0.103,-1021.18,-77.698,-91.248,0,0,0,
,-0.037,0.616,-0.333,-963.318,19.836,-118.653,0,0,0,
,0.119,1.142,-0.343,-972.107,-75.562,-28.87,0,0,0,
,0.103,1.269,-0.309,-669.312,-120.728,-174.988,0,0,0,
,-0.011,1.117,-0.564,-385.376,7.995,-61.402,0,0,0,
,-0.027,1.089,-0.549,-324.707,91.613,-43.702,0,0,0,
,-0.052,0.885,-0.597,-49.134,166.442,-87.342,0,0,0,
,-0.041,0.822,-0.603,309.143,271.24,-94.91,0,0,0,
,-0.054,0.958,-0.452,660.827,352.05,-42.054,0,0,0,
,-0.083,0.907,-0.336,943.786,392.639,31.738,0,0,0,
,-0.161,0.883,-0.258,1112.365,445.312,62.683,0,0,0,
,-0.135,0.84,-0.208,845.764,423.767,77.636,0,0,0,
,-0.127,0.85,-0.214,621.582,349.792,60.302,0,0,0,
,-0.167,0.894,-0.207,611.633,311.828,29.052,0,0,0,
,-0.2,1.001,-0.17,615.295,303.65,44.372,0,0,0,
,-0.232,1.032,-0.044,736.267,290.649,49.926,0,0,0,
,-0.22,0.989,-0.188,894.653,322.387,-26.062,0,0,0,
,-0.199,0.865,-0.125,898.681,322.387,-71.717,0,0,0,
,-0.146,0.81,-0.065,819.275,377.258,-90.882,0,0,0,
,-0.082,0.733,-0.041,739.38,389.465,-113.77,0,0,0,
,-0.031,0.693,-0.011,613.525,389.526,-99.671,0,0,0,
,0.049,0.881,0.115,427.246,353.332,-62.073,0,0,0,
,0.079,1.113,0.207,492.614,278.076,-42.908,0,0,0,
,0.012,1.089,0.375,606.567,223.449,72.937,0,0,0,
,-0.006,0.981,0.418,504.699,177.551,109.802,0,0,0,
,0.015,0.837,0.308,277.771,109.314,157.837,0,0,0,
,-0.027,0.824,0.204,148.254,39.55,135.864,0,0,0,
,-0.099,0.849,-0.004,259.277,30.151,113.403,0,0,0,
,-0.144,0.951,0.055,655.09,162.414,43.029,0,0,0,
,-0.108,0.858,0.178,950.012,277.954,28.686,0,0,0,
,-0.148,0.913,0.327,810.363,261.596,50.964,0,0,0,
,-0.233,0.903,0.421,534.484,186.157,68.725,0,0,0,
,-0.226,0.925,0.5,296.997,128.479,42.358,0,0,0,
,-0.16,1.005,0.487,-50.721,31.494,60.669,0,0,0,
,-0.173,0.967,0.385,-112.61,-30.762,45.776,0,0,0,
,-0.123,0.979,0.348,144.226,28.808,13.183,0,0,0,
,0.067,1.034,0.413,513.916,106.567,7.385,0,0,0,
,0.103,0.871,0.25,747.924,166.992,53.161,0,0,0,
,-0.075,0.602,0.318,880.371,169.86,47.119,0,0,0,
,-0.128,0.639,0.402,963.928,239.685,-10.682,0,0,0,
,-0.072,0.78,0.525,1114.685,224.06,-34.18,0,0,0,
,-0.098,0.926,0.684,1338.989,146.789,-9.583,0,0,0,
,-0.154,0.857,0.683,1329.712,34.484,24.78,0,0,0,
,-0.189,0.661,0.685,779.724,-67.139,-9.827,0,0,0,
,-0.061,0.498,0.614,-12.818,-155.396,-89.722,0,0,0,
,-0.095,0.515,0.701,-443.421,-189.637,-134.278,0,0,0,
,-0.125,0.632,0.72,-413.758,-106.141,-165.345,0,0,0,
,-0.128,0.774,0.618,-92.347,-17.823,-180.237,0,0,0,
,-0.129,0.926,0.64,341.43,54.016,-173.706,0,0,0,
,-0.063,1.006,0.717,596.252,90.515,-171.143,0,0,0,
,-0.044,0.848,0.841,643.493,93.566,-156.189,0,0,0,
,-0.036,0.545,0.746,469.36,16.845,-169.678,0,0,0,
,-0.154,0.344,0.623,276.611,-99.671,-232.483,0,0,0,
,-0.102,0.332,0.664,265.869,-160.584,-376.221,0,0,0,
,0.085,0.124,0.415,810.852,-89.783,-621.46,0,0,0,
,-0.127,0.191,0.196,1127.502,25.756,-706.177,0,0,0,
,0.066,0.455,0.43,119.384,113.647,-922.303,0,0,0,
,0.185,1.003,0.381,-986.329,96.923,-804.444,0,0,0,
,-0.095,1.309,0.163,-1997.559,25.329,-673.523,0,0,0,
,-0.253,1.89,0.656,-2000,-24.109,-463.868,0,0,0,
,-0.127,3.084,0.481,-1957.276,-190.125,1.22,0,0,0,
,-0.243,2.114,-0.247,-516.419,31.189,701.843,0,0,0,
,-0.622,1.485,0.924,-77.637,140.319,887.878,0,0,0,
,0.476,0.851,0.307,1952.331,429.687,642.089,0,0,0,
,-0.294,0.71,0.211,936.828,231.384,1179.382,0,0,0,
,-0.365,0.285,0.989,-395.874,233.337,770.63,0,0,0,
,0.164,0.296,0.877,164.978,60.791,487.426,0,0,0,
,-0.019,0.343,0.265,653.503,137.39,566.589,0,0,0,
,0.114,0.102,0.852,237.365,174.377,330.993,0,0,0,
,0.5,-0.105,0.411,582.824,199.401,55.603,0,0,0,
,0.227,-0.278,0.242,550.048,190.673,9.46,0,0,0,
,0.022,-0.126,0.581,219.055,220.337,-256.592,0,0,0,
,0.25,0.297,0.907,-596.436,81.176,-477.478,0,0,0,
,0.184,0.677,0.821,-842.469,-120.728,-405.396,0,0,0,
,-0.097,0.97,0.486,-356.202,-125.489,-434.388,0,0,0,
,-0.218,1.072,0.356,201.233,7.08,-548.829,0,0,0,
,-0.176,0.826,0.555,481.933,156.494,-587.769,0,0,0,
,-0.049,0.782,0.774,257.995,126.342,-625.855,0,0,0,
,0.092,1.197,0.884,-403.748,-30.518,-484.681,0,0,0,
,-0.085,1.295,0.535,-437.073,-124.634,-362.549,0,0,0,
,-0.189,1.203,0.386,-20.447,-48.401,-303.589,0,0,0,
,-0.073,1.148,0.392,340.088,11.291,-259.217,0,0,0,
,0.056,1.256,0.502,132.995,0.366,-129.212,0,0,0,
,0.045,1.304,0.519,-212.281,-2.747,67.443,0,0,0,
,0.014,1.189,0.397,-254.761,11.596,211.731,0,0,0,
,-0.061,1.14,0.374,-244.202,34.973,373.962,0,0,0,
,-0.038,1.087,0.411,-473.267,-6.104,519.592,0,0,0,
,-0.046,1.127,0.605,-528.992,-68.665,687.805,0,0,0,
,-0.036,1.045,0.712,-261.841,-94.178,781.555,0,0,0,
,-0.088,0.7,0.579,139.892,-57.74,802.063,0,0,0,
,0.03,0.238,0.594,311.645,-61.585,664.428,0,0,0,
,-0.003,-0.106,0.453,290.344,-97.596,518.615,0,0,0,
,0.051,-0.196,0.389,-175.782,-81.055,349.426,0,0,0,
,0.073,-0.288,0.423,-264.222,-50.049,-5.921,0,0,0,
,0.048,-0.051,0.452,155.212,82.214,-186.28,0,0,0,
,0.092,0.456,0.745,66.223,77.819,-321.045,0,0,0,
,0.115,0.773,0.673,217.956,33.996,-427.979,0,0,0,
,-0.06,0.699,0.663,330.139,66.223,-541.687,0,0,0,
,-0.076,0.537,0.408,643.432,189.087,-760.498,0,0,0,
,-0.327,0.354,0.403,1014.343,335.876,-894.898,0,0,0,
,-0.065,0.307,0.992,-527.588,284.973,-1014.527,0,0,0,
,0.477,0.907,0.728,-1125.428,4.211,-1093.995,0,0,0,
,-0.101,1.38,0.121,-334.534,-17.029,-859.62,0,0,0,
,-0.249,2.255,0.983,-793.457,165.954,-650.33,0,0,0,
,0.757,2.442,0.657,-883.606,-99.488,-202.82,0,0,0,
,0.089,2.181,0.219,-269.898,-352.173,447.082,0,0,0,
,-0.281,1.538,0.212,199.768,-102.234,637.634,0,0,0,
,-0.156,1.126,0.416,115.6,118.042,686.218,0,0,0,
,0.053,1.046,0.599,-658.265,4.76,745.117,0,0,0,
,-0.12,1.133,0.528,-666.993,-32.776,910.278,0,0,0,
,-0.311,1.07,0.436,103.942,31.799,868.652,0,0,0,
,-0.171,0.707,0.509,706.482,84.716,815.612,0,0,0,
,-0.158,0.154,0.335,959.777,149.658,769.104,0,0,0,
,-0.021,-0.147,0.425,808.838,123.718,456.298,0,0,0,
,0.123,-0.452,0.348,620.666,234.13,165.466,0,0,0,
,0.164,-0.714,0.601,705.017,290.039,-224.915,0,0,0,
,0.175,-0.342,0.788,-20.264,226.074,-343.384,0,0,0,
,0.213,0.471,0.805,-690.552,-26.673,-509.034,0,0,0,
,-0.079,1.262,0.535,-448.67,-79.529,-499.939,0,0,0,
,-0.261,1.422,0.386,146.301,39.733,-663.453,0,0,0,
,-0.106,0.764,0.475,527.954,133.545,-765.87,0,0,0,
,-0.14,0.992,0.848,-111.206,113.586,-589.051,0,0,0,
,0.23,1.291,0.739,-809.632,-95.826,-571.839,0,0,0,
,-0.275,1.375,0.294,-20.203,-57.068,-272.644,0,0,0,
,-0.227,1.341,0.441,372.375,135.254,-364.624,0,0,0,
,0.177,1.192,0.643,357.422,143.615,-298.584,0,0,0,
,0.006,1.213,0.582,194.458,98.327,-97.84,0,0,0,
,-0.037,1.276,0.458,-2.686,107.483,-2.442,0,0,0,
,0.063,1.145,0.483,7.873,101.867,62.866,0,0,0,
,0.078,1.006,0.452,141.296,101.318,157.898,0,0,0,
,0.082,1.036,0.336,63.476,103.759,284.607,0,0,0,
,0.024,1.136,0.372,-140.32,81.481,448.73,0,0,0,
,0.01,1.117,0.545,-268.006,57.251,572.448,0,0,0,
,0.003,0.906,0.719,-98.511,-23.011,635.376,0,0,0,
,-0.1,0.531,0.607,127.868,-73.731,689.331,0,0,0,
,-0.202,0.144,0.522,459.594,-111.756,556.213,0,0,0,
,-0.074,-0.123,0.619,532.409,-69.947,289.062,0,0,0,
,0.184,-0.375,0.434,231.323,-35.523,34.973,0,0,0,
,0.204,-0.308,0.292,152.588,34.057,-164.978,0,0,0,
,0.121,0.004,0.302,-161.255,55.603,-269.104,0,0,0,
,0.23,0.454,0.76,-433.289,-86.365,-402.588,0,0,0,
,0.187,0.751,0.447,-140.32,-120.85,-388.123,0,0,0,
,-0.09,0.596,0.404,464.111,-39.734,-582.703,0,0,0,
,-0.187,0.363,0.466,741.027,229.492,-735.779,0,0,0,
,0.114,0.764,1.011,-526.551,190.734,-864.991,0,0,0,
,0.221,1.248,1.111,-1464.417,-139.832,-734.009,0,0,0,
,-0.171,1.307,0.512,-634.034,-164.612,-661.194,0,0,0,
,-0.363,1.427,0.303,671.875,76.355,-631.348,0,0,0,
,0.231,1.612,0.711,366.394,152.221,-605.957,0,0,0,
,0.353,1.548,0.576,31.127,-64.515,-179.627,0,0,0,
,0.124,1.745,0.4,-574.83,-175.843,240.966,0,0,0,
,0.081,1.522,0.342,-238.77,-101.807,378.967,0,0,0,
,0.052,1.254,0.218,-147.461,55.542,608.825,0,0,0,
,0.089,1.136,0.429,-528.321,74.218,671.203,0,0,0,
,0.067,1.131,0.636,-466.614,55.419,825.744,0,0,0,
,-0.051,0.934,0.591,42.663,-14.466,894.836,0,0,0,
,-0.139,0.628,0.501,327.942,-21.851,865.844,0,0,0,
,-0.157,0.247,0.531,570.495,-39.734,747.253,0,0,0,
,-0.081,-0.047,0.486,526.977,-14.649,595.276,0,0,0,
,-0.048,-0.225,0.397,301.147,25.085,319.336,0,0,0,
,0.076,-0.324,0.602,325.561,103.82,-15.32,0,0,0,
,-0.096,-0.156,0.612,455.81,69.885,-198.304,0,0,0,
,0.025,0.375,0.785,-205.445,25.451,-413.88,0,0,0,
,-0.057,0.844,0.89,-230.652,-60.791,-434.571,0,0,0,
,-0.238,1.006,0.793,92.651,-54.688,-525.147,0,0,0,
,-0.24,0.943,0.622,326.843,22.644,-614.258,0,0,0,
,-0.178,1.091,0.667,97.961,76.965,-597.901,0,0,0,
,0.042,1.149,0.693,72.509,92.102,-599.244,0,0,0,
,-0.036,1.257,0.627,115.905,140.442,-407.349,0,0,0,
,0.155,1.253,0.67,304.87,108.215,-366.639,0,0,0,
,0.032,1.007,0.508,586.975,116.211,-227.356,0,0,0,
,0.019,0.716,0.465,631.103,145.935,-257.203,0,0,0,
,0.008,0.756,0.473,221.74,203.247,-229.798,0,0,0,
,0.073,0.949,0.682,-550.477,221.069,-209.473,0,0,0,
,0.039,1.147,0.818,-853.455,244.506,-93.934,0,0,0,
,0.068,1.343,0.657,-483.643,261.108,18.127,0,0,0,
,0.123,1.404,0.472,172.668,283.264,184.021,0,0,0,
,0.131,1.265,0.49,501.77,272.949,413.086,0,0,0,
,0.153,1.015,0.673,397.583,174.743,533.996,0,0,0,
,0.065,0.772,0.525,111.633,82.458,672.302,0,0,0,
,0.025,0.634,0.515,-153.443,-69.153,689.575,0,0,0,
,-0.027,0.372,0.495,-117.554,-150.391,659.973,0,0,0,
,0.047,0.121,0.344,-112.793,-159.729,556.64,0,0,0,
,-0.021,-0.254,0.434,526.062,-6.226,-166.138,0,0,0,
,0.091,0.126,0.726,180.725,76.477,-362.122,0,0,0,
,0.307,0.503,0.717,25.817,-18.372,-495.606,0,0,0,
,-0.019,0.703,0.636,-253.113,-33.387,-457.093,0,0,0,
,-0.01,0.579,0.446,-167.42,35.522,-683.167,0,0,0,
,-0.213,1.628,0.659,-97.901,-88.685,-439.515,0,0,0,
,-0.263,1.085,0.424,897.155,137.634,-480.225,0,0,0,
,0.062,1.163,0.898,204.345,166.565,-376.404,0,0,0,
,0.416,1.537,0.763,-677.613,-96.741,-142.456,0,0,0,
,-0.031,1.614,0.363,-288.697,-144.532,169.677,0,0,0,
,0.207,1.298,0.36,74.768,-34.363,295.715,0,0,0,
,0.143,1.04,0.321,22.949,-22.828,525.451,0,0,0,
,0.054,1.044,0.4,-595.704,-54.993,680.908,0,0,0,
,-0.02,1.138,0.553,-614.319,-88.318,822.692,0,0,0,
,-0.126,0.923,0.61,101.989,-105.347,834.9,0,0,0,
,-0.166,0.456,0.317,572.754,-105.957,777.771,0,0,0,
,-0.197,0.168,0.361,268.432,-66.956,630.981,0,0,0,
,-0.055,-0.03,0.483,231.445,-9.339,335.205,0,0,0,
,0.03,-0.231,0.58,148.559,46.752,77.819,0,0,0,
,0.002,-0.256,0.581,39.062,68.359,-142.701,0,0,0,
,-0.04,0.203,0.926,-228.638,-9.095,-306.153,0,0,0,
,0.077,0.59,0.737,-174.378,-58.35,-375.794,0,0,0,
,-0.089,0.878,0.722,185.73,21.972,-599.61,0,0,0,
,-0.021,0.868,0.748,-385.01,-65.369,-601.502,0,0,0,
,-0.092,0.956,0.529,5.798,-27.588,-596.802,0,0,0,
,-0.101,1.139,0.657,52.551,69.763,-524.292,0,0,0,
,0.201,1.224,0.596,183.654,54.382,-482.3,0,0,0,
,-0.002,1.157,0.482,431.274,68.237,-343.75,0,0,0,
,0.121,1.069,0.502,174.987,113.586,-265.442,0,0,0,
,0.168,1.068,0.524,0.61,65.49,-131.653,0,0,0,
,0.041,1.115,0.495,-53.345,91.247,0.427,0,0,0,
,0.132,1.093,0.468,-65.064,112.182,60.485,0,0,0,
,0.16,1.046,0.517,47.973,103.088,180.114,0,0,0,
,0.014,1.024,0.431,-450.196,-120.423,589.965,0,0,0,
,-0.146,0.908,0.439,-439.637,-157.715,697.998,0,0,0,
,-0.111,0.646,0.619,-52.552,-170.594,616.088,0,0,0,
,-0.063,0.254,0.632,410.339,-141.297,495.971,0,0,0,
,-0.025,-0.014,0.43,320.8,-77.881,343.994,0,0,0,
,0.075,-0.177,0.613,251.709,-70.191,42.175,0,0,0,
,0.016,-0.259,0.573,225.463,-43.763,-127.381,0,0,0,
,0.023,-0.03,0.838,-310.486,-113.16,-319.519,0,0,0,
,0.155,0.44,0.799,-619.507,-148.499,-434.144,0,0,0,
,0.066,0.839,0.821,-418.457,-199.952,-512.635,0,0,0,
,-0.064,0.916,0.648,-163.758,-172.608,-580.872,0,0,0,
,-0.054,1.12,0.566,-121.888,-172.791,-633.301,0,0,0,
,-0.05,1.084,0.65,-135.56,-172.181,-662.781,0,0,0,
,-0.066,1.24,0.667,114.99,-111.939,-625.123,0,0,0,
,-0.095,1.229,0.626,288.147,-68.604,-547.791,0,0,0,
,-0.016,1.297,0.55,567.443,-32.654,-499.939,0,0,0,
,-0.076,1.13,0.438,705.017,4.882,-403.992,0,0,0,
,-0.019,1.008,0.506,900.268,56.274,-396.668,0,0,0,
,0.012,0.906,0.423,1064.941,158.081,-330.323,0,0,0,
,0.112,0.691,0.281,501.281,221.557,-257.874,0,0,0,
,0.348,1.111,0.492,-412.659,85.327,-114.136,0,0,0,
,0.329,1.348,0.487,-1021.851,-58.533,179.809,0,0,0,
,0.171,1.38,0.445,-739.441,-63.233,390.747,0,0,0,
,0.072,1.235,0.381,-476.197,-5.616,607.238,0,0,0,
,0.008,1.155,0.372,-578.431,61.34,752.197,0,0,0,
,-0.011,1.072,0.56,-386.536,92.102,753.357,0,0,0,
,-0.078,0.907,0.756,169.067,84.472,772.338,0,0,0,
,-0.226,0.513,0.569,520.385,177.856,756.347,0,0,0,
,-0.188,0.211,0.63,683.349,125.305,538.513,0,0,0,
,-0.078,0.125,0.648,615.051,123.84,442.688,0,0,0,
,0.031,-0.081,0.689,594.116,17.15,173.706,0,0,0,
,-0.004,-0.307,0.641,798.401,28.442,-23.56,0,0,0,
,-0.106,-0.187,0.635,645.874,13.427,-178.772,0,0,0,
,0.031,0.188,0.756,136.23,-50.11,-453.186,0,0,0,
,0.127,0.709,0.771,-197.815,-124.695,-524.231,0,0,0,
,-0.027,0.838,0.722,-556.519,-190.003,-570.313,0,0,0,
,-0.126,0.779,0.652,-555.115,-173.584,-634.888,0,0,0,
,-0.104,0.86,0.759,-514.527,-168.335,-609.253,0,0,0,
,0.041,1.268,0.691,-421.265,-135.621,-513.184,0,0,0,
,0.002,1.333,0.458,95.764,-59.51,-405.945,0,0,0,
,-0.001,1.364,0.54,424.316,37.353,-301.514,0,0,0,
,0.017,1.13,0.721,224.121,86.792,-186.463,0,0,0,
,0.132,1.118,0.7,-266.907,48.095,-68.787,0,0,0,
,0.064,1.266,0.463,-464.905,25.695,91.552,0,0,0,
,0.041,1.214,0.372,-228.455,78.918,215.026,0,0,0,
,0.039,1.095,0.366,52.917,158.447,329.345,0,0,0,
,0.037,1.098,0.435,-125.306,155.639,505.127,0,0,0,
,0.073,1.092,0.552,-432.801,65.918,649.109,0,0,0,
,-0.1,0.952,0.618,-281.006,-6.226,754.028,0,0,0,
,-0.237,0.724,0.724,56.335,-28.87,763.366,0,0,0,
,-0.227,0.433,0.699,433.838,32.653,629.333,0,0,0,
,0.08,0.245,0.742,485.717,60.852,465.942,0,0,0,
,0.169,0.006,0.75,820.556,18.188,190.49,0,0,0,
,0.124,-0.371,0.445,590.637,61.584,135.925,0,0,0,
,0.063,-0.278,0.255,439.575,37.109,-88.196,0,0,0,
,0.044,0.051,0.472,162.353,-35.218,-258.24,0,0,0,
,0.107,0.442,0.562,-21.424,15.808,-396.485,0,0,0,
,0.169,0.564,0.523,391.357,19.104,-603.089,0,0,0,
,-0.227,0.433,0.672,130.493,24.475,-516.663,0,0,0,
,-0.041,0.639,0.876,-481.629,-43.213,-777.832,0,0,0,
,-0.105,0.658,0.261,131.53,22.888,-833.252,0,0,0,
,-0.446,0.747,0.594,200.134,234.253,-833.252,0,0,0,
,0.255,1.231,1.259,-1186.707,174.316,-806.885,0,0,0,
,0.402,1.745,0.944,-1203.736,-175.477,-488.465,0,0,0,
,-0.383,1.724,0.447,-182.679,-179.078,-269.593,0,0,0,
,-0.3,1.525,0.389,92.102,184.509,-113.648,0,0,0,
,0.397,1.547,0.652,-192.261,155.212,-7.508,0,0,0,
,0.4,1.426,0.541,-237.183,-25.757,404.785,0,0,0,
,0.043,1.203,0.419,-210.877,-14.283,621.704,0,0,0,
,0.033,1.138,0.458,-496.033,83.618,766.967,0,0,0,
,0.084,1.116,0.522,-597.596,64.453,872.07,0,0,0,
,-0.071,0.939,0.741,-105.103,-24.537,886.596,0,0,0,
,-0.255,0.425,0.66,521.057,53.711,854.248,0,0,0,
,-0.316,0.047,0.535,824.157,85.693,686.279,0,0,0,
,-0.138,-0.142,0.392,708.801,125.488,391.967,0,0,0,
,-0.022,-0.321,0.481,613.098,62.316,99.182,0,0,0,
,-0.091,-0.455,0.497,745.91,71.716,-193.177,0,0,0,
,-0.003,-0.248,0.71,310.241,85.937,-352.845,0,0,0,
,0.185,0.272,0.813,-428.467,-17.823,-570.923,0,0,0,
,0.211,0.995,0.546,-892.334,-90.332,-571.045,0,0,0,
,0.076,1.261,0.491,-192.81,-115.967,-788.453,0,0,0,
,-0.624,1.012,0.532,688.72,153.015,-576.661,0,0,0,
,0.141,1.027,1.161,-187.684,264.831,-908.875,0,0,0,
,0.298,1.431,0.71,-242.066,-86.487,-540.894,0,0,0,
,-0.378,1.517,0.609,122.924,-89.234,-347.535,0,0,0,
,-0.124,1.231,0.555,136.84,230.896,-309.51,0,0,0,
,0.371,1.455,0.605,-178.223,94.299,-137.635,0,0,0,
,0.269,1.505,0.498,-324.036,-81.238,203.918,0,0,0,
,0.092,1.266,0.446,-33.692,-61.097,369.323,0,0,0,
,-0.01,0.972,0.426,44.067,57.067,557.067,0,0,0,
,0.078,0.884,0.505,-483.033,19.592,652.832,0,0,0,
,0.066,0.952,0.576,-872.681,-95.52,803.039,0,0,0,
,-0.134,0.924,0.63,-473.023,-156.678,849.548,0,0,0,
,-0.295,0.584,0.509,366.027,-14.954,785.034,0,0,0,
,-0.239,0.189,0.443,859.069,92.712,608.093,0,0,0,
,-0.153,-0.161,0.542,912.475,134.216,366.516,0,0,0,
,0.012,-0.431,0.602,873.535,158.142,41.32,0,0,0,
,0.011,-0.455,0.49,632.141,143.493,-211.731,0,0,0,
,0.087,0.025,0.625,-149.231,55.969,-386.231,0,0,0,
,0.178,0.585,0.617,-487.244,-52.491,-520.813,0,0,0,
,-0.005,0.949,0.788,-144.715,-88.685,-575.379,0,0,0,
,-0.119,0.657,0.543,774.536,130.493,-777.649,0,0,0,
,-0.386,0.446,0.607,1061.584,366.394,-716.614,0,0,0,
,0.396,0.633,0.95,-485.474,197.021,-995.789,0,0,0,
,0.25,0.914,0.511,-391.297,-52.796,-677.857,0,0,0,
,-0.501,1.339,0.59,-155.396,87.158,-605.53,0,0,0,
,0.348,1.376,0.929,-428.65,163.818,-705.628,0,0,0,
,0.364,1.415,0.514,122.558,21.362,-348.999,0,0,0,
,0.01,1.49,0.662,-400.574,-72.998,26.916,0,0,0,
,0.297,1.614,0.602,-474.61,-100.892,242.797,0,0,0,
,0.084,1.328,0.53,184.875,-15.015,500.61,0,0,0,
,-0.047,0.986,0.571,-3.785,65.49,634.887,0,0,0,
,0.06,0.953,0.628,-385.804,54.321,691.101,0,0,0,
,-0.019,1.067,0.659,-623.841,-33.875,815.124,0,0,0,
,-0.129,0.97,0.748,-146.424,-47.852,780.639,0,0,0,
,-0.172,0.685,0.66,330.871,-25.147,790.222,0,0,0,
,-0.152,0.315,0.509,507.507,-7.508,685.485,0,0,0,
,-0.107,0.084,0.523,469.238,-39.612,528.015,0,0,0,
,-0.134,-0.124,0.489,415.1,34.668,345.092,0,0,0,
,-0.004,-0.292,0.517,345.337,88.684,30.639,0,0,0,
,-0.082,-0.305,0.471,314.209,69.152,-191.773,0,0,0,
,-0.052,0.045,0.558,-324.036,13.183,-350.525,0,0,0,
,0.037,0.527,0.707,-701.416,-165.65,-480.408,0,0,0,
,-0.163,0.994,0.775,-548.584,-201.233,-487.671,0,0,0,
,-0.135,1.025,0.661,-93.873,-118.287,-642.518,0,0,0,
,-0.251,0.665,0.367,619.018,107.299,-739.93,0,0,0,
,-0.165,0.788,0.844,-232.605,249.328,-716.614,0,0,0,
,0.616,1.137,0.898,-1100.037,-113.77,-637.879,0,0,0,
,-0.074,1.287,0.437,-87.83,-97.962,-342.713,0,0,0,
,-0.382,1.202,0.484,487.915,214.721,-354.004,0,0,0,
,0.449,1.208,0.776,261.901,157.714,-445.435,0,0,0,
,0.076,1.136,0.602,337.28,22.155,-76.661,0,0,0,
,-0.184,1.153,0.552,-141.968,55.725,-19.593,0,0,0,
,0.179,1.265,0.541,-428.406,69.274,37.719,0,0,0,
,0.104,1.162,0.549,-10.376,37.597,270.446,0,0,0,
,-0.071,1.088,0.518,110.901,83.984,429.138,0,0,0,
,0.076,1.085,0.628,-114.991,81.726,552.795,0,0,0,
,0.043,1.005,0.622,-279.908,10.681,725.28,0,0,0,
,-0.097,0.864,0.623,-140.992,-94.483,767.212,0,0,0,
,-0.209,0.693,0.644,253.784,-101.075,739.746,0,0,0,
,-0.159,0.397,0.477,560.73,-53.894,622.924,0,0,0,
,-0.098,0.1,0.468,684.204,-15.564,464.538,0,0,0,
,0.075,-0.359,0.46,848.938,51.086,117.859,0,0,0,
,0.176,-0.636,0.364,704.284,112.487,-183.472,0,0,0,
,0.07,-0.378,0.205,84.167,94.543,-304.749,0,0,0,
,0.117,0.146,0.438,-452.21,61.767,-567.749,0,0,0,
,0.219,0.766,0.686,-730.591,-15.076,-614.502,0,0,0,
,0.121,0.976,0.655,-422.547,-83.008,-791.26,0,0,0,
,-0.488,1.055,0.842,-111.268,107.727,-567.078,0,0,0,
,0.155,0.945,0.906,-275.086,88.623,-941.407,0,0,0,
,-0.179,1.116,0.448,405.273,121.154,-613.343,0,0,0,
,-0.158,1.155,0.944,-615.113,120.239,-550.782,0,0,0,
,0.289,1.546,0.717,-663.636,-128.052,-447.022,0,0,0,
,-0.232,1.651,0.507,-118.103,-123.597,-56.702,0,0,0,
,-0.024,1.504,0.538,-97.596,6.469,41.565,0,0,0,
,0.315,1.299,0.55,120.605,16.662,243.591,0,0,0,
,0.087,1.021,0.505,255.615,12.146,404.724,0,0,0,
,0.026,0.993,0.495,-158.936,62.683,562.927,0,0,0,
,0.148,1.133,0.569,-449.097,7.141,659.179,0,0,0,
,0.05,1.108,0.592,-371.155,-19.41,793.396,0,0,0,
,-0.036,0.929,0.611,-120.362,-23.926,858.398,0,0,0,
,-0.065,0.63,0.494,182.556,55.358,852.6,0,0,0,
,-0.043,0.353,0.562,480.774,39.001,764.16,0,0,0,
,-0.092,0.059,0.51,716.064,71.35,651.55,0,0,0,
,-0.119,-0.259,0.361,858.154,115.173,370.605,0,0,0,
,-0.141,-0.577,0.459,798.584,110.229,-26.795,0,0,0,
,-0.22,-0.507,0.331,208.435,108.642,-176.758,0,0,0,
,-0.138,0.072,0.479,-457.886,9.826,-620.911,0,0,0,
,0.06,0.788,0.851,-752.076,-147.95,-730.408,0,0,0,
,-0.047,1.321,1.018,-699.585,-200.379,-694.336,0,0,0,
,-0.203,1.297,0.603,-244.141,-91.797,-818.177,0,0,0,
,-0.472,1.067,0.865,-365.906,56.213,-604.981,0,0,0,
,0.048,1.342,1.031,-729.92,-37.72,-698.243,0,0,0,
,-0.097,1.451,0.672,-188.355,-88.685,-396.973,0,0,0,
,-0.317,1.25,0.44,749.145,73.73,-287.781,0,0,0,
,0.017,1.103,0.548,1040.893,189.514,-210.816,0,0,0,
,0.23,0.944,0.51,799.743,147.522,-134.949,0,0,0,
,0.107,0.865,0.589,194.58,70.312,25.024,0,0,0,
,0.193,1.045,0.491,-615.479,-29.541,192.688,0,0,0,
,0.165,1.262,0.292,-485.84,-79.834,362.487,0,0,0,
,-0.033,1.352,0.354,-75.196,-42.908,533.63,0,0,0,
,0.005,1.229,0.528,14.831,-3.54,772.461,0,0,0,
,0.003,0.859,0.575,92.224,-73.731,854.065,0,0,0,
,-0.193,0.442,0.588,324.096,-114.441,839.233,0,0,0,
,-0.205,0.059,0.654,587.036,-82.642,649.292,0,0,0,
,-0.17,-0.278,0.62,735.656,-48.951,373.413,0,0,0,
,-0.006,-0.449,0.52,457.153,28.991,26.184,0,0,0,
,0.135,-0.295,0.299,106.933,50.72,-161.683,0,0,0,
,-0.016,-0.177,0.354,-31.617,26.428,-319.886,0,0,0,
,0.013,0.142,0.561,-63.294,57.8,-583.13,0,0,0,
,0.023,0.545,0.66,-145.325,1.037,-703.797,0,0,0,
,0.06,1.022,1.109,-1085.267,-218.506,-745.057,0,0,0,
,0.054,1.476,0.77,-887.574,-301.148,-935.486,0,0,0,
,-0.415,1.188,0.478,712.768,77.209,-858.704,0,0,0,
,-0.444,0.485,0.843,646.179,404.541,-678.223,0,0,0,
,0.533,0.877,1.235,-756.47,14.77,-871.033,0,0,0,
,0.067,1.543,0.524,-241.15,-200.989,-546.326,0,0,0,
,-0.455,1.382,0.365,83.74,155.883,-325.928,0,0,0,
,0.326,1.484,0.729,133.361,154.297,-429.139,0,0,0,
,0.095,1.318,0.612,313.171,57.983,14.892,0,0,0,
,0.034,1.21,0.595,-45.289,63.232,139.343,0,0,0,
,0.227,1.199,0.53,60.119,48.034,323.974,0,0,0,
,0.014,0.993,0.435,266.54,93.811,549.133,0,0,0,
,0.027,0.842,0.451,-143.921,92.59,670.288,0,0,0,
,0.125,0.994,0.531,-587.708,28.503,786.987,0,0,0,
,0.102,1.031,0.727,-472.779,-54.078,845.825,0,0,0,
,-0.016,0.755,0.597,-49.439,19.104,910.644,0,0,0,
,-0.091,0.445,0.532,169.25,48.767,872.253,0,0,0,
,-0.126,0.259,0.56,346.252,74.462,797.18,0,0,0,
,-0.022,0.012,0.607,712.646,109.13,615.356,0,0,0,
,-0.086,-0.321,0.692,1087.28,124.939,389.831,0,0,0,
,-0.15,-0.554,0.426,857.238,106.323,214.233,0,0,0,
,-0.312,-0.428,0.359,546.936,72.448,-101.014,0,0,0,
,-0.273,0.041,0.425,7.324,136.596,-460.938,0,0,0,
,0.164,0.588,0.869,-413.758,130.676,-892.212,0,0,0,
,0.083,0.905,1.006,-893.189,3.356,-761.231,0,0,0,
,0.127,1.235,0.918,-964.966,-180.97,-1034.913,0,0,0,
,-0.318,0.903,0.484,636.963,76.171,-823.304,0,0,0,
,-0.183,0.648,0.767,638.366,449.34,-780.335,0,0,0,
,0.579,1.123,0.633,-39.795,224.06,-882.691,0,0,0,
,0.067,1.389,0.809,-1086.06,51.147,-362.183,0,0,0,
,0.137,1.629,0.739,-1197.632,-83.374,-383.789,0,0,0,
,-0.22,1.558,0.515,135.315,22.827,-116.822,0,0,0,
,-0.161,1.177,0.584,514.099,218.017,4.821,0,0,0,
,0.326,1.135,0.564,291.137,150.024,97.534,0,0,0,
,0.221,1.071,0.605,72.876,19.47,360.412,0,0,0,
,-0.013,0.919,0.428,-343.811,36.499,530.822,0,0,0,
,0.088,0.962,0.457,-875.123,-1.282,650.085,0,0,0,
,0.113,1.13,0.48,-1011.597,-65.674,806.701,0,0,0,
,-0.004,1.068,0.637,-379.212,-99.122,864.807,0,0,0,
,-0.15,0.68,0.591,404.724,-3.235,871.338,0,0,0,
,-0.05,0.352,0.64,582.031,-24.842,747.009,0,0,0,
,-0.005,0.132,0.386,471.191,54.138,608.337,0,0,0,
,0.078,-0.065,0.438,319.275,47.18,337.036,0,0,0,
,0.016,-0.279,0.542,133.606,165.527,155.273,0,0,0,
,-0.019,-0.344,0.483,55.236,165.588,-104.737,0,0,0,
,-0.313,-0.145,0.817,368.835,113.281,-274.414,0,0,0,
,-0.08,0.468,0.825,81.42,104.431,-473.45,0,0,0,
,0.214,1.181,0.936,-193.848,-101.136,-637.574,0,0,0,
,-0.134,1.24,0.776,35.461,-68.909,-630.494,0,0,0,
,0.219,1.09,0.743,-653.077,-83.069,-794.983,0,0,0,
,-0.156,1.225,0.354,520.141,10.009,-634.583,0,0,0,
,-0.109,0.953,0.624,999.817,349.548,-566.346,0,0,0,
,0.577,0.974,0.662,447.326,195.984,-593.567,0,0,0,
,0.113,1.199,0.591,-258.484,23.498,-184.693,0,0,0,
,0.135,1.341,0.475,-70.435,32.348,339.294,0,0,0,
,0.007,1.023,0.478,186.218,68.42,558.288,0,0,0,
,0.045,1.002,0.54,-198.731,43.457,729.553,0,0,0,
,0.083,1.005,0.547,-490.174,-38.514,839.233,0,0,0,
,-0.063,0.821,0.767,-132.325,-61.036,848.632,0,0,0,
,-0.162,0.038,0.464,138.672,-119.812,528.991,0,0,0,
,0.002,-0.301,0.483,343.628,-20.691,201.416,0,0,0,
,0.015,-0.554,0.395,437.072,6.53,-28.565,0,0,0,
,-0.058,-0.333,0.514,390.442,28.015,-295.533,0,0,0,
,0.178,0.313,0.932,-142.334,-3.602,-483.582,0,0,0,
,0.236,0.909,0.774,-408.265,-136.597,-498.475,0,0,0,
,-0.039,1.162,0.699,-418.091,-130.066,-481.934,0,0,0,
,-0.076,0.833,0.329,286.804,60.363,-718.262,0,0,0,
,-0.196,0.429,0.697,739.38,344.787,-751.221,0,0,0,
,0.303,0.892,1.199,-196.9,251.587,-834.229,0,0,0,
,0.181,1.356,0.975,-823.853,-40.711,-601.99,0,0,0,
,-0.098,1.51,0.674,-0.977,15.502,-595.276,0,0,0,
,-0.307,1.022,0.576,1113.891,311.828,-430.909,0,0,0,
,0.266,0.802,0.563,580.566,296.875,-659.668,0,0,0,
,0.161,0.916,0.643,-100.464,108.459,-357.972,0,0,0,
,-0.094,1.254,0.569,-900.879,28.747,-205.75,0,0,0,
,0.154,1.688,0.429,-1212.586,-18.921,-77.759,0,0,0,
,0.193,1.843,0.376,-550.66,11.169,257.934,0,0,0,
,0.055,1.28,0.488,247.985,100.463,519.653,0,0,0,
,0.053,0.93,0.446,169.311,110.901,683.715,0,0,0,
,0.071,1.003,0.479,-536.988,12.756,810.547,0,0,0,
,-0.012,1.149,0.597,-604.31,-26.001,881.347,0,0,0,
,-0.055,0.904,0.628,-22.706,63.537,924.987,0,0,0,
,-0.033,0.613,0.627,303.039,1.403,905.639,0,0,0,
,-0.035,0.428,0.611,456.237,-46.753,863.647,0,0,0,
,-0.073,0.255,0.506,531.799,-62.989,783.325,0,0,0,
,-0.008,-0.139,0.559,572.509,-39.673,568.847,0,0,0,
,0.15,-0.344,0.57,422.607,-48.829,311.157,0,0,0,
,-0.012,-0.356,0.364,324.89,-35.828,158.63,0,0,0,
,-0.136,-0.289,0.381,458.862,16.418,-97.107,0,0,0,
,-0.027,-0.02,0.497,79.223,38.513,-356.69,0,0,0,
,0.259,0.627,0.694,-597.229,-167.847,-589.417,0,0,0,
,-0.059,1.324,0.634,-1103.15,-306.092,-569.275,0,0,0,
,-0.123,1.657,0.902,-1235.108,-291.871,-780.335,0,0,0,
,-0.29,1.472,0.635,-14.893,-87.769,-691.102,0,0,0,
,-0.425,1.036,0.808,612.793,149.78,-601.502,0,0,0,
,0.019,1.073,0.826,406.86,185.791,-596.253,0,0,0,
,0.085,1.296,0.627,125.793,28.808,-400.574,0,0,0,
,-0.317,1.201,0.679,250.427,63.781,-299.378,0,0,0,
,-0.191,0.869,0.483,574.524,174.072,-428.101,0,0,0,
,-0.105,0.732,0.53,268.859,140.564,-356.69,0,0,0,
,0.026,0.917,0.602,53.955,-1.16,-298.584,0,0,0,
,0.032,1.212,0.578,-29.969,-61.341,-122.254,0,0,0,
,0.063,1.284,0.417,-6.531,-20.752,38.208,0,0,0,
,0.11,1.219,0.338,68.481,30.517,184.204,0,0,0,
,0.065,1.08,0.39,121.399,74.768,366.394,0,0,0,
,0.094,0.997,0.417,-150.513,38.696,532.653,0,0,0,
,0.108,1.046,0.493,-351.197,-68.116,686.95,0,0,0,
,0.05,0.945,0.456,-333.619,-106.263,803.711,0,0,0,
,-0.038,0.723,0.459,-126.709,-138.306,863.525,0,0,0,
,-0.094,0.455,0.357,98.877,-138.672,834.045,0,0,0,
,-0.06,0.045,0.504,487.548,-120.972,614.868,0,0,0,
,-0.195,-0.464,0.499,789.917,27.71,316.284,0,0,0,
,-0.211,-0.74,0.479,702.209,146.24,20.202,0,0,0,
,-0.005,-0.535,0.572,378.418,177.673,-357.544,0,0,0,
,0.308,0.088,0.788,-530.091,87.463,-581.849,0,0,0,
,0.431,0.567,0.595,-566.224,-102.173,-743.836,0,0,0,
,-0.121,1.058,0.861,-136.902,-97.535,-675.11,0,0,0,
,-0.131,1.049,0.858,-450.379,-52.247,-876.16,0,0,0,
,-0.067,0.761,0.232,403.32,2.441,-1008.79,0,0,0,
,-0.447,0.746,0.97,291.992,339.904,-818.299,0,0,0,
,0.522,0.992,0.863,-512.391,88.623,-1043.519,0,0,0,
,0.157,1.606,1.02,-307.312,-133.667,-593.811,0,0,0,
,-0.235,1.613,0.674,826.965,116.882,-651.795,0,0,0,
,-0.01,1.252,0.704,993.408,304.138,-424.5,0,0,0,
,0.284,1.089,0.558,248.84,134.216,-373.108,0,0,0,
,0.046,1.174,0.69,-90.821,28.015,-101.258,0,0,0,
,0.026,1.323,0.59,-270.874,84.045,48.889,0,0,0,
,0.282,1.357,0.498,-73.792,62.5,240.844,0,0,0,
,0.178,1.161,0.582,295.776,115.295,445.068,0,0,0,
,0.162,0.975,0.593,77.758,92.102,651.55,0,0,0,
,0.229,1.026,0.623,-412.232,-63.172,819.397,0,0,0,
,0.076,0.955,0.558,-471.741,-106.019,916.259,0,0,0,
,-0.069,0.82,0.461,-473.511,-114.502,999.084,0,0,0,
,-0.108,0.64,0.438,-396.79,-70.557,1013.366,0,0,0,
,-0.074,0.413,0.485,-98.572,-59.693,957.336,0,0,0,
,-0.075,-0.72,0.557,661.071,9.399,123.474,0,0,0,
,-0.05,-0.638,0.418,67.627,39.001,-72.51,0,0,0,
,0.008,-0.154,0.498,-468.506,12.268,-450.989,0,0,0,
,0.205,0.692,1.002,-903.138,-96.558,-651.978,0,0,0,
,0.215,1.565,1.173,-913.453,-284.79,-600.464,0,0,0,
,0.001,1.627,0.54,-233.277,-297.181,-645.569,0,0,0,
,-0.573,1.057,0.297,1037.719,48.278,-599.244,0,0,0,
,-0.532,0.716,0.858,921.936,470.703,-705.811,0,0,0,
,0.594,1.065,1.061,18.676,76.538,-801.148,0,0,0,
,0.159,1.307,0.78,422.607,-99.915,-243.348,0,0,0,
,-0.398,1.297,0.743,931.823,176.635,-200.44,0,0,0,
,-0.14,0.684,0.778,408.386,110.839,-149.476,0,0,0,
,-0.102,0.81,0.742,241.211,107.177,-169.739,0,0,0,
,0.054,0.994,0.773,104.919,46.875,-81.299,0,0,0,
,0.028,1.001,0.697,79.101,28.381,36.743,0,0,0,
,0.005,0.931,0.59,-75.196,5.249,118.835,0,0,0,
,0.069,0.83,0.47,-308.472,-28.199,217.773,0,0,0,
,0.009,0.787,0.485,-547.791,-93.323,367.248,0,0,0,
,0.042,0.881,0.491,-953.37,-215.271,516.235,0,0,0,
,0.01,0.938,0.412,-955.628,-295.472,658.996,0,0,0,
,-0.107,0.743,0.386,-542.115,-221.314,697.326,0,0,0,
,-0.064,0.283,0.427,-113.221,-111.817,637.817,0,0,0,
,0.047,-0.226,0.518,61.157,-87.708,373.23,0,0,0,
,0.151,-0.414,0.407,-423.645,-128.418,284.79,0,0,0,
,0.14,-0.035,0.243,-1026.185,-142.029,230.224,0,0,0,
,0.069,0.396,0.391,-805.603,-121.094,-4.822,0,0,0,
,0.16,0.703,0.873,-53.772,-2.137,-316.651,0,0,0,
,0.023,0.861,0.837,-83.558,-49.988,-382.813,0,0,0,
,-0.163,1.094,0.811,-194.764,-51.331,-446.167,0,0,0,
,-0.101,0.85,0.631,420.593,67.443,-574.402,0,0,0,
,-0.23,0.661,0.491,900.879,226.257,-617.005,0,0,0,
,0.003,1.002,1.189,-79.956,140.625,-602.356,0,0,0,
,0.265,0.974,0.8,170.715,3.112,-760.804,0,0,0,
,-0.454,0.566,0.207,1366.76,270.813,-452.332,0,0,0,
,-0.155,0.931,0.737,178.772,121.276,-319.642,0,0,0,
,0.078,1.51,0.943,-414.795,-153.809,-395.569,0,0,0,
,0.127,1.863,0.403,-654.847,-170.35,132.934,0,0,0,
,-0.02,1.423,0.268,-322.998,-50.477,230.224,0,0,0,
,-0.03,1.119,0.45,103.149,65.979,361.877,0,0,0,
,0.193,1.01,0.657,-46.753,6.286,358.642,0,0,0,
,0.228,0.939,0.657,-155.396,-116.456,540.588,0,0,0,
,-0.039,0.923,0.576,32.959,-169.434,598.449,0,0,0,
,-0.158,0.8,0.61,429.87,-102.723,576.965,0,0,0,
,-0.061,0.697,0.55,775.634,-53.223,502.075,0,0,0,
,0.086,0.586,0.561,1116.882,-29.114,420.227,0,0,0,
,0.134,0.399,0.893,1364.685,-11.353,382.873,0,0,0,
,0.176,0.208,0.643,1174.377,16.662,312.194,0,0,0,
,0.169,0.142,0.606,596.313,-64.148,275.879,0,0,0,
,0.043,0.049,0.554,105.407,-12.391,210.266,0,0,0,
,0.059,0.018,0.443,-366.333,72.692,110.107,0,0,0,
,0.154,0.243,0.426,-883.118,68.298,17.089,0,0,0,
,0.16,0.413,0.467,-992.859,142.883,-75.684,0,0,0,
,0.176,0.521,0.534,-824.707,165.588,-148.316,0,0,0,
,0.182,0.653,0.834,-696.351,163.757,-207.825,0,0,0,
,0.143,0.616,0.749,-959.961,133.056,-218.75,0,0,0,
,0.067,0.805,0.669,-1444.947,31.738,-197.083,0,0,0,
,-0.012,1.058,0.514,-1729.126,-58.228,-179.017,0,0,0,
,-0.128,1.204,0.331,-1574.28,-78.919,-113.343,0,0,0,
,-0.173,1.364,0.33,-1201.233,-75.501,-102.906,0,0,0,
,-0.137,1.361,0.192,-707.581,-7.874,34.851,0,0,0,
,-0.23,1.247,0.213,-272.706,38.635,64.331,0,0,0,
,-0.358,1.122,0.195,-103.455,61.95,162.963,0,0,0,
,-0.394,1.132,0.288,-153.382,101.989,200.012,0,0,0,
,-0.32,1.041,0.448,-37.476,95.275,245.178,0,0,0,
,-0.173,0.854,0.548,1.953,72.937,265.808,0,0,0,
,-0.063,0.799,0.51,-9.827,-19.471,317.505,0,0,0,
,-0.188,0.734,0.442,145.507,-63.294,270.324,0,0,0,
,-0.191,0.698,0.38,346.313,-74.28,211.364,0,0,0,
,-0.176,0.55,0.287,474.487,-47.547,146.667,0,0,0,
,-0.244,0.419,0.32,357.91,-20.569,22.277,0,0,0,
,-0.298,0.348,0.502,-132.691,-76.172,-66.895,0,0,0,
,-0.372,0.478,0.371,-723.938,-117.432,-111.268,0,0,0,
,-0.297,0.853,0.511,-1044.8,-204.102,-200.806,0,0,0,
,-0.166,1.166,0.335,-877.686,-222.962,-192.566,0,0,0,
,-0.015,1.36,0.167,-483.094,-157.898,-189.209,0,0,0,
,0.005,1.213,-0.049,-90.638,-45.777,-98.999,0,0,0,
,-0.073,1.027,-0.035,123.718,46.63,-102.356,0,0,0,
,0.003,0.884,0.48,72.021,72.448,-105.774,0,0,0,
,0.061,0.754,0.282,-205.201,40.71,23.193,0,0,0,
,-0.08,0.973,0.231,-487.977,-64.515,74.89,0,0,0,
,-0.282,1.157,0.05,-379.395,-111.084,48.217,0,0,0,
,-0.307,1.309,0.033,98.877,4.821,13.122,0,0,0,
,-0.062,1.195,0.16,620.483,117.981,81.909,0,0,0,
,0.156,0.956,0.359,962.097,167.114,66.955,0,0,0,
,0.202,0.7,0.422,1058.532,171.203,90.82,0,0,0,
,0.037,0.541,0.487,1039.001,146.667,50.598,0,0,0,
,-0.172,0.404,0.512,1121.582,148.559,-51.026,0,0,0,
,-0.138,0.685,0.725,1115.051,168.579,-56.336,0,0,0,
,-0.07,0.757,0.859,1117.797,28.137,-102.234,0,0,0,
,-0.188,0.72,0.817,954.895,-67.81,-86.914,0,0,0,
,-0.232,0.65,0.687,529.419,-143.433,-96.985,0,0,0,
,-0.162,0.856,0.581,-23.499,-177.979,-181.092,0,0,0,
,-0.097,1.005,0.497,-576.111,-209.046,-186.158,0,0,0,
,-0.085,1.098,0.614,-576.539,-196.961,-176.392,0,0,0,
,-0.055,0.985,0.593,-130.433,-99.366,-195.496,0,0,0,
,-0.05,0.963,0.473,218.811,-26.734,-164.063,0,0,0,
,-0.062,1.029,0.37,379.943,33.142,-174.317,0,0,0,
,-0.052,1.012,0.466,355.163,91.552,-150.818,0,0,0,
,-0.001,0.881,0.477,189.758,121.276,-119.385,0,0,0,
,-0.012,0.693,0.499,-19.043,126.526,-101.563,0,0,0,
,0.05,0.686,0.523,-188.294,97.045,-71.656,0,0,0,
,0.02,0.761,0.507,-109.681,59.326,-52.674,0,0,0,
,-0.057,0.749,0.481,28.32,90.087,-56.946,0,0,0,
,-0.062,0.636,0.507,80.566,107.727,-69.275,0,0,0,
,-0.079,0.454,0.486,-82.52,142.151,-70.862,0,0,0,
,-0.083,0.53,0.559,-369.019,95.581,-93.384,0,0,0,
,-0.156,0.653,0.589,-643.189,58.654,-117.31,0,0,0,
,-0.212,0.924,0.616,-753.174,-8.362,-146.729,0,0,0,
,-0.272,1.195,0.685,-793.213,-74.402,-123.047,0,0,0,
,-0.317,1.257,0.719,-821.228,-84.473,-67.81,0,0,0,
,-0.272,1.209,0.651,-982.483,-124.756,-7.325,0,0,0,
,-0.229,1.044,0.486,-966.431,-170.227,32.409,0,0,0,
,-0.157,0.923,0.296,-797.791,-192.017,44.799,0,0,0,
,-0.057,0.906,0.17,-545.105,-185.852,67.016,0,0,0,
,0.133,0.95,0.156,-517.884,-221.619,282.287,0,0,0,
,0.089,0.799,-0.002,-743.958,-210.206,423.95,0,0,0,
,0.016,0.767,-0.033,-758.606,-274.048,399.475,0,0,0,
,0.045,0.792,-0.082,-351.014,-168.03,332.519,0,0,0,
,0.066,0.777,0.106,520.568,-44.007,144.348,0,0,0,
,0.009,0.598,0.085,1058.96,105.529,82.336,0,0,0,
,0.012,0.566,0.081,1165.954,286.621,-92.835,0,0,0,
,0.06,0.565,0.261,944.213,368.469,-202.088,0,0,0,
,0.12,0.719,0.853,49.621,178.344,-145.935,0,0,0,
,0.085,0.957,0.43,-860.047,1.159,-53.04,0,0,0,
,-0.265,1.196,0.082,-814.942,-95.093,-78.919,0,0,0,
,-0.4,1.29,0.185,-63.66,67.565,-155.64,0,0,0,
,-0.196,1.196,0.361,751.159,171.203,-149.537,0,0,0,
,-0.175,1.049,0.444,1129.089,179.931,-84.351,0,0,0,
,-0.252,1.007,0.478,950.866,145.568,-30.518,0,0,0,
,-0.282,1.11,0.598,592.773,72.448,-10.804,0,0,0,
,-0.26,1.055,0.597,346.008,3.967,26.428,0,0,0,
,-0.301,0.878,0.401,201.721,-45.96,24.963,0,0,0,
,-0.34,0.758,0.359,204.834,-48.401,-32.593,0,0,0,
,-0.265,0.661,0.303,294.128,9.887,-85.633,0,0,0,
,-0.171,0.602,0.338,412.353,47.729,-161.438,0,0,0,
,-0.038,0.542,0.338,286.193,97.778,-231.08,0,0,0,
,0.101,0.687,0.496,28.625,66.894,-303.589,0,0,0,
,0.133,0.825,0.463,-214.112,-19.471,-301.087,0,0,0,
,-0.025,0.762,0.346,-293.519,-66.04,-317.017,0,0,0,
,-0.11,0.637,0.339,-122.315,-57.129,-350.342,0,0,0,
,-0.049,0.839,0.527,36.377,-36.56,-441.346,0,0,0,
,0.03,1.043,0.514,56.152,-50.782,-433.899,0,0,0,
,-0.024,1.142,0.524,-119.08,-73.121,-402.1,0,0,0,
,-0.018,1.114,0.505,-328.003,-95.337,-343.995,0,0,0,
,0.008,1.01,0.351,-433.899,-108.643,-316.163,0,0,0,
,0.035,1.03,0.248,-322.327,-106.568,-248.291,0,0,0,
,0.078,1.192,0.009,-45.533,-37.537,-186.28,0,0,0,
,0.227,1.413,0.196,-256.592,31.799,-33.265,0,0,0,
,0.35,1.392,0.049,-671.692,71.96,246.154,0,0,0,
,0.183,1.223,0.097,-552.369,99.914,413.208,0,0,0,
,0.068,1.111,0.194,-221.802,173.523,547.058,0,0,0,
,0.157,1.138,0.222,-347.046,200.5,718.872,0,0,0,
,0.022,1.234,0.208,-240.052,122.985,844.421,0,0,0,
,-0.165,1.045,0.372,189.575,164.123,843.628,0,0,0,
,-0.084,0.666,0.498,484.436,92.773,833.923,0,0,0,
,-0.181,0.303,0.372,591.125,39.856,753.601,0,0,0,
,-0.33,0.026,0.465,824.157,11.962,467.59,0,0,0,
,-0.336,-0.179,0.455,877.502,82.214,175.659,0,0,0,
,-0.186,-0.209,0.561,886.84,103.637,-247.681,0,0,0,
,-0.019,-0.048,0.811,364.99,70.678,-454.895,0,0,0,
,0.098,0.489,0.748,-289.307,-76.477,-586.426,0,0,0,
,-0.076,0.876,0.587,-405.701,-125.794,-607.117,0,0,0,
,-0.201,1.007,0.269,105.957,-34.729,-744.263,0,0,0,
,-0.452,1.153,0.337,821.167,147.4,-1035.218,0,0,0,
,-0.04,1.277,0.849,-23.621,167.114,-757.569,0,0,0,
,0.281,1.379,0.337,-244.446,9.643,-804.017,0,0,0,
,-0.324,1.233,0.704,-272.889,67.26,-598.023,0,0,0,
,0.175,1.399,0.588,-856.202,48.034,-458.558,0,0,0,
,0.158,1.749,0.126,-593.811,-45.227,-261.292,0,0,0,
,-0.115,1.697,0.074,189.941,86.792,-211.67,0,0,0,
,0.116,1.228,0.349,407.653,243.957,81.909,0,0,0,
,0.354,1.073,0.298,93.689,169.067,244.201,0,0,0,
,0.109,1.159,0.312,-101.624,33.325,429.199,0,0,0,
,-0.017,1.109,0.292,-225.831,71.411,561.401,0,0,0,
,0.052,0.976,0.2,-479.248,68.725,681.701,0,0,0,
,-0.035,0.923,0.148,-834.9,-5.616,810.791,0,0,0,
,-0.141,0.974,0.201,-550.843,-0.428,844.848,0,0,0,
,-0.189,0.817,0.234,255.127,43.029,810.485,0,0,0,
,-0.16,0.444,0.218,826.172,76.11,701.172,0,0,0,
,-0.192,0.054,0.3,1367.614,77.026,419.983,0,0,0,
,-0.222,-0.163,0.476,1460.022,186.584,124.878,0,0,0,
,-0.025,-0.165,0.634,1049.255,176.33,-186.097,0,0,0,
,0.12,-0.052,0.779,95.703,39.978,-367.92,0,0,0,
,0.129,0.307,0.53,-796.021,-108.216,-468.873,0,0,0,
,-0.03,0.772,0.442,-901.734,-202.698,-561.158,0,0,0,
,-0.134,1.069,0.379,-84.412,-101.685,-695.191,0,0,0,
,-0.206,0.917,0.332,979.004,102.783,-749.695,0,0,0,
,0.026,0.929,0.956,361.45,110.107,-647.767,0,0,0,
,0.309,1.228,0.767,-488.099,-81.727,-566.529,0,0,0,
,-0.161,1.389,0.345,-334.961,-78.309,-455.567,0,0,0,
,-0.478,1.207,0.536,-87.403,77.209,-527.771,0,0,0,
,0.078,1.091,0.504,-256.104,107.849,-611.329,0,0,0,
,0.032,1.009,0.413,-326.111,-18.86,-462.525,0,0,0,
,-0.107,1.029,0.133,190.551,8.789,-453.919,0,0,0,
,0.129,1.29,0.402,-90.882,69.152,-306.946,0,0,0,
,0.385,1.448,0.261,-664.917,-10.743,-54.2,0,0,0,
,0.233,1.494,0.167,-985.474,-70.191,215.759,0,0,0,
,0.106,1.326,0.107,-503.907,-19.959,369.934,0,0,0,
,0.14,1.128,0.183,-354.004,103.759,505.859,0,0,0,
,0.201,1.178,0.071,-705.201,67.321,742.37,0,0,0,
,0,1.411,0.222,-503.602,40.893,823.547,0,0,0,
,-0.08,1.184,0.281,-67.872,189.148,886.84,0,0,0,
,-0.021,0.868,0.276,201.233,239.868,874.084,0,0,0,
,-0.004,0.62,0.463,306.152,190.734,844.97,0,0,0,
,-0.085,0.359,0.485,487.793,181.884,760.254,0,0,0,
,-0.121,0.138,0.405,660.705,182.373,567.627,0,0,0,
,-0.203,-0.069,0.484,815.857,174.743,247.07,0,0,0,
,0.036,0.278,0.644,-553.65,-63.843,-547.547,0,0,0,
,-0.116,0.781,0.419,-1083.069,-220.887,-594.544,0,0,0,
,-0.269,1.18,0.344,-624.817,-192.994,-700.562,0,0,0,
,-0.151,1.261,0.278,30.578,-59.388,-740.662,0,0,0,
,-0.113,1.122,0.328,642.212,49.194,-749.451,0,0,0,
,0.117,1.185,0.459,315.246,85.327,-686.28,0,0,0,
,0.034,1.279,0.553,12.634,22.583,-566.834,0,0,0,
,-0.006,1.188,0.256,-14.283,18.249,-527.1,0,0,0,
,-0.099,1.057,0.403,52.368,57.739,-504.09,0,0,0,
,0.103,0.956,0.177,42.053,55.481,-469.849,0,0,0,
,0.051,1.152,0.344,184.082,43.151,-403.321,0,0,0,
,0.155,1.386,0.392,114.074,80.505,-255.555,0,0,0,
,0.127,1.448,0.31,-40.101,75.256,-91.37,0,0,0,
,0.083,1.408,0.234,-231.873,132.202,87.158,0,0,0,
,0.139,1.275,0.211,-90.699,203.247,206.848,0,0,0,
,0.116,1.054,0.348,252.075,276.245,285.522,0,0,0,
,0.198,1.055,0.454,-1.648,243.225,492.004,0,0,0,
,0.1,1.199,0.352,-242.432,118.469,656.86,0,0,0,
,-0.114,1.163,0.276,-136.048,94.726,773.315,0,0,0,
,-0.088,0.934,0.327,146.484,110.962,812.561,0,0,0,
,0.033,0.637,0.312,475.891,94.421,767.944,0,0,0,
,-0.031,0.276,0.266,623.047,25.817,683.41,0,0,0,
,0.011,0.15,0.39,592.102,-33.814,505.92,0,0,0,
,0.048,-0.037,0.456,1051.269,4.272,198.486,0,0,0,
,-0.031,-0.36,0.365,1323.913,67.993,-52.308,0,0,0,
,0.015,-0.334,0.413,666.259,125.061,-286.988,0,0,0,
,0.222,0.146,0.536,-449.036,3.906,-501.77,0,0,0,
,0.168,0.753,0.801,-1175.354,-126.587,-561.402,0,0,0,
,0.111,1.125,0.543,-989.502,-161.499,-602.967,0,0,0,
,-0.221,1.108,0.376,143.432,-66.651,-712.83,0,0,0,
,-0.236,0.721,0.438,1048.401,149.536,-792.359,0,0,0,
,0.256,0.861,0.766,244.262,122.497,-771.607,0,0,0,
,0.207,1.106,0.547,-141.297,55.419,-721.436,0,0,0,
,-0.118,1.196,0.346,-163.636,71.289,-727.906,0,0,0,
,0.009,1.15,1.102,-746.216,35.034,-647.461,0,0,0,
,0.241,2.55,0.484,-911.072,-273.133,-43.03,0,0,0,
,0.059,2.248,-0.089,-321.167,-101.929,147.155,0,0,0,
,0.019,1.047,0.396,634.216,48.523,187.194,0,0,0,
,0.215,0.52,0.505,335.083,127.807,218.75,0,0,0,
,0.348,0.925,0.256,-884.156,-18.555,510.62,0,0,0,
,0.088,1.499,0.266,-1236.207,-82.093,626.098,0,0,0,
,-0.017,1.539,0.248,-862.854,3.356,813.659,0,0,0,
,-0.074,1.196,0.242,-175.232,77.941,884.033,0,0,0,
,-0.149,0.849,0.309,330.566,50.048,968.017,0,0,0,
,-0.149,0.462,0.264,640.075,81.787,909.179,0,0,0,
,-0.233,0.297,0.407,617.126,-20.264,784.301,0,0,0,
,-0.089,0.15,0.586,992.37,-0.489,499.084,0,0,0,
,0.004,-0.211,0.754,1342.102,-0.123,153.564,0,0,0,
,0.059,-0.465,0.497,877.624,13.183,-38.575,0,0,0,
,0.025,-0.197,0.611,-8.423,-7.752,-346.436,0,0,0,
,0.129,0.377,0.625,-1262.146,-152.1,-482.972,0,0,0,
,-0.048,0.765,0.48,-1129.944,-230.53,-552.369,0,0,0,
,-0.167,1.061,0.536,-615.113,-234.192,-589.661,0,0,0,
,-0.1,1.105,0.281,35.339,-194.581,-608.704,0,0,0,
,-0.164,1.079,0.468,422.058,-123.108,-603.211,0,0,0,
,-0.257,1.034,0.516,735.778,-23.926,-650.33,0,0,0,
,-0.026,0.989,0.592,163.757,-18.25,-609.742,0,0,0,
,-0.019,1.076,0.551,-421.875,-105.652,-557.74,0,0,0,
,-0.137,1.119,0.378,-372.742,-111.939,-537.232,0,0,0,
,-0.123,1.175,0.22,253.54,-46.509,-518.067,0,0,0,
,-0.146,1.075,0.462,838.806,78.613,-536.316,0,0,0,
,0.138,1.093,0.475,402.343,61.279,-428.223,0,0,0,
,0.034,1.261,0.468,87.646,6.836,-331.849,0,0,0,
,0.014,1.285,0.525,-573.609,37.475,-186.28,0,0,0,
,0.214,1.444,0.402,-908.509,-3.968,36.804,0,0,0,
,0.169,1.343,0.02,-547.669,-18.25,242.92,0,0,0,
,0.069,1.337,0.17,187.683,19.897,375.305,0,0,0,
,0.156,1.188,0.371,184.204,121.521,543.213,0,0,0,
,0.205,1.097,0.316,-264.771,86.303,753.112,0,0,0,
,0.062,1.143,0.328,-448.67,13.305,865.173,0,0,0,
,-0.058,1.038,0.338,-233.277,111.755,890.808,0,0,0,
,-0.05,0.815,0.429,92.041,106.384,874.023,0,0,0,
,-0.092,0.484,0.473,511.963,153.991,764.648,0,0,0,
,-0.145,0.081,0.394,1058.593,171.447,572.265,0,0,0,
,-0.165,-0.225,0.599,1174.865,167.48,282.714,0,0,0,
,-0.01,-0.398,0.511,988.891,174.56,-84.961,0,0,0,
,-0.057,-0.281,0.391,685.913,152.221,-277.161,0,0,0,
,-0.075,0.069,0.47,86.853,101.196,-480.591,0,0,0,
,-0.041,0.966,0.207,280.883,-100.892,-685.852,0,0,0,
,-0.279,0.831,0.699,715.088,149.597,-732.361,0,0,0,
,0.165,0.953,0.737,-181.092,70.861,-621.766,0,0,0,
,0.056,1.262,0.644,-491.517,-44.678,-554.993,0,0,0,
,-0.383,1.442,0.771,-277.344,0.793,-532.105,0,0,0,
,-0.119,1.272,0.654,-157.532,29.235,-411.866,0,0,0,
,-0.241,1.25,0.641,118.164,-19.288,-403.504,0,0,0,
,-0.061,1.342,0.562,-271.79,-44.19,-222.474,0,0,0,
,0.012,1.38,0.473,-522.583,-82.764,-75.806,0,0,0,
,0.05,1.52,0.434,-681.458,-108.826,106.14,0,0,0,
,0.141,1.416,0.38,-500,-84.656,280.761,0,0,0,
,0.121,1.154,0.363,-399.353,-37.903,406.189,0,0,0,
,0.093,1.229,0.265,-646.18,-58.716,634.399,0,0,0,
,0.05,1.269,0.446,-351.258,-48.462,739.196,0,0,0,
,0.007,0.984,0.279,117.675,43.396,828.857,0,0,0,
,-0.072,0.736,0.426,220.764,4.272,830.688,0,0,0,
,-0.131,0.488,0.431,386.352,7.751,759.643,0,0,0,
,-0.151,0.238,0.4,606.384,-8.423,614.441,0,0,0,
,-0.08,-0.203,0.389,1101.806,72.204,-147.767,0,0,0,
,-0.046,-0.071,0.372,813.293,129.15,-337.83,0,0,0,
,0.105,0.297,0.503,158.813,77.88,-504.212,0,0,0,
,0.091,0.582,0.519,-88.318,17.273,-668.763,0,0,0,
,-0.006,0.584,0.485,-410.584,38.024,-724.427,0,0,0,
,-0.006,0.753,0.535,-618.958,8.789,-721.863,0,0,0,
,0.087,1.385,0.695,-339.417,-40.467,-634.339,0,0,0,
,-0.037,1.572,0.48,513.916,34.301,-591.553,0,0,0,
,-0.359,1.121,0.815,773.925,143.432,-453.919,0,0,0,
,-0.171,1.077,0.846,-76.416,26.733,-375.916,0,0,0,
,-0.412,1.355,0.674,-175.538,-39.612,-356.263,0,0,0,
,-0.365,1.208,0.704,-236.512,2.746,-291.504,0,0,0,
,0.111,1.49,0.403,-417.298,-39.734,125.305,0,0,0,
,0.134,1.384,0.359,-204.041,-37.72,277.649,0,0,0,
,0.057,1.191,0.46,-218.873,-18.128,402.893,0,0,0,
,0.01,1.101,0.38,-660.889,-30.945,611.694,0,0,0,
,-0.06,1.175,0.266,-835.755,-6.287,734.375,0,0,0,
,-0.05,1.136,0.432,-517.884,17.028,788.33,0,0,0,
,-0.034,0.758,0.3,274.536,84.594,745.727,0,0,0,
,-0.06,0.324,0.429,631.652,40.649,669.616,0,0,0,
,-0.031,0.055,0.562,910.217,26.123,432.556,0,0,0,
,-0.051,-0.226,0.458,1024.292,44.799,225.402,0,0,0,
,-0.108,-0.202,0.332,799.865,83.129,14.587,0,0,0,
,-0.005,0.005,0.44,524.536,107.788,-278.077,0,0,0,
,0.171,0.115,0.504,-137.452,96.801,-421.814,0,0,0,
,0.182,0.376,0.461,-676.636,10.131,-524.781,0,0,0,
,0.009,0.751,0.635,-410.828,-81.727,-675.843,0,0,0,
,-0.113,0.919,0.744,-255.31,-107.85,-632.996,0,0,0,
,-0.085,1.197,0.504,-76.966,-119.019,-612.244,0,0,0,
,-0.237,1.156,0.256,412.048,-30.579,-643.982,0,0,0,
,-0.129,0.913,0.775,-16.358,85.51,-524.964,0,0,0,
,-0.107,1.072,0.48,-33.509,23.254,-612.549,0,0,0,
,-0.351,0.923,0.834,-373.963,96.069,-449.036,0,0,0,
,-0.096,1.293,0.578,-845.643,-53.101,-403.077,0,0,0,
,-0.321,1.407,0.357,-268.311,-20.691,-346.68,0,0,0,
,0.275,1.344,0.356,-333.13,76.843,103.149,0,0,0,
,0.236,1.375,0.22,-384.095,19.043,282.837,0,0,0,
,0.101,1.022,0.3,-157.715,48.584,347.046,0,0,0,
,0.035,0.878,0.286,-638.123,27.526,533.142,0,0,0,
,0.039,1.036,0.204,-935.608,-32.593,651.733,0,0,0,
,0.016,0.466,0.308,814.27,63.415,594.97,0,0,0,
,0.032,0.414,0.355,776.306,73.791,478.576,0,0,0,
,0.058,0.236,0.484,873.352,83.313,303.955,0,0,0,
,0.066,-0.064,0.52,759.216,128.601,106.689,0,0,0,
,0.038,-0.218,0.512,458.74,116.211,-77.332,0,0,0,
,0,1.022,0.808,156.86,82.58,-519.41,0,0,0,
,0.035,1.24,0.822,342.102,109.802,-570.313,0,0,0,
,-0.223,1.062,0.587,753.479,161.743,-675.049,0,0,0,
,-0.264,0.614,0.483,418.335,271.484,-694.031,0,0,0,
,0.008,0.643,1.037,-574.28,219.604,-672.974,0,0,0,
,0.194,1.26,0.566,-532.776,53.466,-474.61,0,0,0,
,-0.145,1.326,0.439,235.962,125.61,-475.342,0,0,0,
,0.053,1.484,0.589,-214.112,6.408,-152.039,0,0,0,
,-0.118,1.398,0.65,-413.392,-39.551,29.541,0,0,0,
,-0.011,1.229,0.511,-691.04,-67.933,191.528,0,0,0,
,0.024,1.065,0.446,-477.906,-91.553,250.427,0,0,0,
,-0.02,0.905,0.435,-443.299,-81.482,346.74,0,0,0,
,0.026,1.062,0.427,-817.383,-105.713,544.616,0,0,0,
,0.046,1.363,0.413,-873.108,-138.794,691.833,0,0,0,
,0.035,1.196,0.378,-360.169,-75.989,734.558,0,0,0,
,-0.046,0.789,0.332,-224.366,-53.528,795.654,0,0,0,
,-0.082,0.695,0.392,-205.933,-63.843,778.808,0,0,0,
,-0.127,0.323,0.38,414.428,50.964,508.667,0,0,0,
,0.006,0.158,0.476,596.923,91.125,262.634,0,0,0,
,0.027,-0.124,0.447,808.838,145.385,8.911,0,0,0,
,-0.105,-0.301,0.44,799.255,163.025,-260.498,0,0,0,
,-0.085,-0.03,0.503,271.606,195.495,-374.573,0,0,0,
,0.15,0.643,0.587,-81.421,91.98,-496.277,0,0,0,
,-0.021,1.088,0.494,137.512,35.766,-574.524,0,0,0,
,-0.15,1.248,0.664,65.307,52.185,-577.088,0,0,0,
,-0.164,1.031,0.708,157.043,115.478,-571.045,0,0,0,
,-0.132,0.939,0.788,-223.633,59.204,-493.653,0,0,0,
,-0.191,1.1,0.702,-15.809,34.79,-451.783,0,0,0,
,-0.143,1.224,0.623,249.084,35.156,-409.974,0,0,0,
,-0.136,0.939,0.589,613.403,107.605,-403.87,0,0,0,
,-0.109,0.794,0.615,618.713,157.043,-464.722,0,0,0,
,0.065,0.739,0.676,-81.177,127.258,-406.128,0,0,0,
,0.128,1.049,0.627,-662.598,26.611,-307.984,0,0,0,
,-0.025,1.372,0.608,-616.883,8.972,-201.233,0,0,0,
,-0.078,1.446,0.407,-178.65,67.81,-74.219,0,0,0,
,0.058,1.318,0.343,-0.611,118.164,74.585,0,0,0,
,0.255,1.311,0.443,-37.049,100.647,248.169,0,0,0,
,0.225,1.159,0.464,-31.495,48.461,419.067,0,0,0,
,0.086,0.995,0.475,-388.306,-3.479,593.2,0,0,0,
,0.009,0.974,0.325,-721.863,-58.838,743.774,0,0,0,
,-0.099,0.945,0.299,-414.185,-104.615,796.692,0,0,0,
,-0.076,0.759,0.323,529.358,-38.208,693.42,0,0,0,
,-0.008,0.231,0.411,1098.938,19.775,539.062,0,0,0,
,0.108,-0.236,0.493,918.518,11.413,282.043,0,0,0,
,0.067,-0.343,0.286,439.697,8.422,95.825,0,0,0,
,-0.136,-0.224,0.237,435.058,29.235,-192.444,0,0,0,
,-0.13,-0.085,0.341,305.359,167.419,-400.269,0,0,0,
,0.192,0.316,0.537,124.633,144.714,-513.123,0,0,0,
,0.281,0.81,0.75,107.971,28.93,-512.33,0,0,0,
,0.085,1.054,0.843,2.075,-1.343,-447.693,0,0,0,
,-0.022,1.142,0.691,42.175,23.01,-441.956,0,0,0,
,-0.228,1.081,0.846,321.838,80.627,-488.099,0,0,0,
,-0.151,0.791,0.723,597.961,140.869,-555.176,0,0,0,
,-0.087,0.64,0.906,276.428,122.497,-549.134,0,0,0,
,0.115,0.924,0.761,-133.118,9.704,-578.248,0,0,0,
,-0.168,0.756,0.355,414.978,120.727,-650.269,0,0,0,
,-0.158,0.653,0.844,90.393,293.945,-654.236,0,0,0,
,0.482,1.005,0.584,-494.019,120.91,-551.087,0,0,0,
,0.155,1.419,0.699,-862.549,-46.082,-129.639,0,0,0,
,0.18,1.82,0.59,-578.37,-78.431,104.858,0,0,0,
,0.145,1.545,0.371,-209.351,-7.447,260.315,0,0,0,
,0.067,0.956,0.528,51.513,69.397,351.684,0,0,0,
,0.054,0.829,0.643,-361.695,64.636,452.026,0,0,0,
,0.113,1.099,0.504,-1033.143,-28.992,670.044,0,0,0,
,0.045,1.313,0.521,-966.126,-125.123,759.277,0,0,0,
,-0.047,1.155,0.336,-390.32,-77.332,852.234,0,0,0,
,-0.116,0.851,0.477,77.941,-100.22,880.859,0,0,0,
,0.037,0.542,0.484,570.739,-72.937,833.191,0,0,0,
,-0.001,0.218,0.482,821.289,-37.842,682.434,0,0,0,
,0.079,-0.02,0.43,484.192,-65.064,555.664,0,0,0,
,0.155,-0.136,0.429,596.435,-31.8,208.252,0,0,0,
,0.071,-0.254,0.33,822.754,3.112,0.488,0,0,0,
,-0.042,-0.207,0.356,887.695,50.72,-276.246,0,0,0,
,-0.017,0.045,0.521,447.265,66.833,-439.637,0,0,0,
,0.111,0.571,0.578,-117.798,-67.017,-531.922,0,0,0,
,-0.041,1.03,0.809,-523.316,-176.148,-593.445,0,0,0,
,-0.166,0.992,0.538,-175.538,-60.12,-667.786,0,0,0,
,-0.23,0.823,0.876,-109.192,66.833,-601.868,0,0,0,
,0.218,1.203,0.889,-334.595,-33.387,-529.908,0,0,0,
,-0.12,1.313,0.739,377.136,11.23,-497.254,0,0,0,
,-0.112,1.11,0.842,299.438,109.741,-350.037,0,0,0,
,0.085,1.081,0.653,494.69,85.388,-433.533,0,0,0,
,-0.276,0.739,0.831,532.653,158.63,-437.745,0,0,0,
,-0.017,0.76,0.732,-298.523,59.57,-325.013,0,0,0,
,0.025,1.088,0.603,-462.952,-26.185,-289.246,0,0,0,
,0.147,1.431,0.33,-700.257,-99.427,289.489,0,0,0,
,0.043,1.262,0.423,-635.682,-113.221,457.275,0,0,0,
,-0.026,1.356,0.472,-549.195,-146.241,688.232,0,0,0,
,0.022,1.379,0.484,27.771,-100.22,823.181,0,0,0,
,0.074,0.94,0.571,590.576,-45.655,823.425,0,0,0,
,0.037,0.409,0.59,470.703,-45.35,808.96,0,0,0,
,-0.064,0.223,0.493,-63.111,-145.813,777.893,0,0,0,
,-0.156,0.25,0.423,12.573,-85.938,606.201,0,0,0,
,-0.084,0.107,0.521,541.259,-52.918,380.371,0,0,0,
,0.068,-0.14,0.532,905.639,134.46,75.378,0,0,0,
,0.142,-0.241,0.408,775.573,137.268,-184.632,0,0,0,
,0.166,0.453,0.532,-315.369,111.877,-546.021,0,0,0,
,0.106,0.952,0.714,-569.764,22.033,-618.958,0,0,0,
,-0.042,1.058,0.348,-183.838,64.331,-712.098,0,0,0,
,-0.376,1,0.656,689.88,233.764,-825.44,0,0,0,
,-0.024,0.64,0.831,301.147,348.999,-688.355,0,0,0,
,0.163,1.051,0.785,-2.503,194.03,-653.565,0,0,0,
,-0.133,1.298,0.974,-627.259,105.59,-491.456,0,0,0,
,-0.166,1.948,0.847,-568.726,-130.677,-169.495,0,0,0,
,-0.14,1.818,0.442,19.836,-30.518,95.581,0,0,0,
,-0.097,1.146,0.522,410.644,57.006,124.023,0,0,0,
,-0.036,0.959,0.584,-478.15,-118.958,448.425,0,0,0,
,-0.105,1.153,0.495,-847.596,-172.73,578.552,0,0,0,
,-0.111,1.238,0.43,-745.972,-230.835,684.326,0,0,0,
,-0.054,1.013,0.475,1.342,-205.567,688.415,0,0,0,
,-0.049,0.617,0.266,377.441,-122.437,681.701,0,0,0,
,-0.077,0.436,0.524,507.629,-151.185,634.582,0,0,0,
,0.027,0.151,0.37,753.601,24.047,450.988,0,0,0,
,-0.022,-0.024,0.411,463.928,26.855,304.87,0,0,0,
,0.077,0.049,0.557,443.481,51.147,39.489,0,0,0,
,0.11,-0.06,0.492,592.834,157.592,-166.871,0,0,0,
,0.071,0.136,0.475,194.824,160.583,-292.054,0,0,0,
,0.185,0.79,0.691,150.085,138.549,-441.834,0,0,0,
,0.156,0.863,0.633,145.446,152.649,-347.596,0,0,0,
,-0.102,1.045,0.69,437.133,194.336,-406.311,0,0,0,
,-0.027,0.805,0.839,198.242,291.748,-271.424,0,0,0,
,-0.008,0.831,0.856,-209.656,188.964,-286.988,0,0,0,
,-0.069,1.115,0.75,-415.894,100.28,-225.098,0,0,0,
,-0.102,1.189,0.77,-247.925,71.472,-175.599,0,0,0,
,-0.125,0.895,0.71,-69.825,103.332,-120.057,0,0,0,
,-0.027,0.767,0.718,-28.931,103.21,-72.266,0,0,0,
,0.012,0.749,0.754,-76.6,76.049,-13.794,0,0,0,
,-0.018,0.872,0.783,-237.61,31.311,17.944,0,0,0,
,0.024,1.017,0.688,-551.331,12.39,82.58,0,0,0,
,-0.021,1.001,0.501,-824.952,-4.883,109.741,0,0,0,
,-0.286,0.904,0.589,-826.844,-16.968,114.318,0,0,0,
,-0.44,0.862,0.573,-644.776,-28.992,114.196,0,0,0,
,-0.479,0.806,0.533,-537.598,-72.205,70.129,0,0,0,
,-0.353,0.648,0.465,-426.148,-51.636,34.973,0,0,0,
,-0.247,0.723,0.456,-480.591,-144.898,51.391,0,0,0,
,-0.278,0.906,0.447,-402.71,-240.235,89.416,0,0,0,
,-0.223,1.167,0.444,-183.045,-315.857,122.07,0,0,0,
,-0.189,1.077,0.302,202.697,-356.995,135.437,0,0,0,
,-0.269,0.796,0.231,466.369,-388.001,77.941,0,0,0,
,-0.281,0.627,0.341,421.997,-404.053,24.963,0,0,0,
,-0.092,0.713,0.28,166.442,-415.955,-9.766,0,0,0,
,0.07,0.832,0.255,-182.679,-382.63,-31.495,0,0,0,
,0.165,0.918,0.106,-52.124,-277.649,-30.091,0,0,0,
,0.325,0.899,0.324,458.496,-26.062,-21.729,0,0,0,
,0.441,0.753,0.284,769.104,180.114,68.115,0,0,0,
,0.269,0.74,0.353,736.267,290.161,63.842,0,0,0,
,0.222,0.682,0.447,489.074,410.461,67.077,0,0,0,
,0.228,0.653,0.309,115.234,456.787,98.755,0,0,0,
,0.283,0.806,1.207,-108.643,172.546,-2.625,0,0,0,
,0.085,0.534,0.85,-542.786,102.539,-4.761,0,0,0,
,-0.179,0.651,0.531,-967.286,-46.326,22.583,0,0,0,
,-0.404,0.939,0.469,-966.736,-89.783,-19.165,0,0,0,
,-0.434,0.916,0.523,-482.056,2.136,-98.816,0,0,0,
,-0.233,0.76,0.459,-90.943,78.247,-104.737,0,0,0,
,-0.171,1.016,0.405,173.706,-11.536,-76.355,0,0,0,
,-0.318,1.165,0.47,434.265,-4.883,-67.017,0,0,0,
,-0.234,1.191,0.562,561.95,-7.63,-14.161,0,0,0,
,-0.237,1.022,0.458,428.588,-3.846,15.93,0,0,0,
,-0.264,0.947,0.59,237.121,-59.754,25.878,0,0,0,
,-0.303,0.754,0.503,343.872,-3.54,19.714,0,0,0,
,-0.209,0.676,0.542,271.179,25.207,-2.686,0,0,0,
,-0.046,0.775,0.553,172.851,12.146,-20.569,0,0,0,
,-0.087,0.874,0.491,302.368,-16.663,-23.194,0,0,0,
,-0.105,0.85,0.606,506.591,-10.498,-7.813,0,0,0,
,-0.021,0.931,0.59,550.842,-18.494,43.457,0,0,0,
,-0.14,0.903,0.584,423.278,-40.711,69.946,0,0,0,
,-0.226,0.843,0.633,229.858,-36.927,90.942,0,0,0,
,-0.201,0.767,0.649,70.617,-39.368,103.21,0,0,0,
,-0.094,0.959,0.493,100.097,-63.416,126.037,0,0,0,
,-0.077,1.031,0.422,297.729,-24.903,188.049,0,0,0,
,-0.052,0.982,0.527,382.873,6.591,275.268,0,0,0,
,0.009,0.874,0.594,279.541,10.009,333.984,0,0,0,
,-0.016,0.742,0.488,-70.069,-19.654,382.08,0,0,0,
,-0.082,0.677,0.352,-455.323,-13.184,393.798,0,0,0,
,-0.072,0.676,0.336,-480.713,28.137,363.83,0,0,0,
,0.008,0.451,0.363,314.453,91.491,185.547,0,0,0,
,-0.026,0.19,0.407,752.563,196.045,58.654,0,0,0,
,-0.059,0.052,0.363,940.429,250,-108.765,0,0,0,
,-0.182,0.557,0.629,-105.225,144.531,-449.524,0,0,0,
,-0.188,0.723,0.915,-127.32,117.309,-465.455,0,0,0,
,-0.075,0.833,0.839,77.636,37.048,-447.937,0,0,0,
,-0.093,1.003,0.856,447.021,38.269,-407.776,0,0,0,
,-0.223,0.442,0.831,651.733,81.176,-358.216,0,0,0,
,-0.119,0.571,0.846,334.35,-6.653,-400.33,0,0,0,
,-0.211,0.647,0.808,543.457,38.696,-476.807,0,0,0,
,-0.195,0.524,0.673,669.128,184.936,-512.818,0,0,0,
,0.082,1.095,0.849,-1002.381,-10.315,-239.258,0,0,0,
,0.016,1.124,0.838,-1086.853,-64.881,-152.527,0,0,0,
,0.046,1.147,0.729,-980.103,-181.946,30.395,0,0,0,
,0.055,1.233,0.784,-373.475,-186.585,186.096,0,0,0,
,0.071,1.071,0.756,-5.555,-193.604,321.777,0,0,0,
,-0.03,1.034,0.82,-72.693,-245.972,452.331,0,0,0,
,-0.028,1.013,0.745,-123.291,-234.925,559.265,0,0,0,
,-0.084,0.717,0.622,158.447,-179.444,605.407,0,0,0,
,0.06,0.303,0.575,575.622,-100.953,507.69,0,0,0,
,0.039,0.17,0.541,660.949,-57.129,406.128,0,0,0,
,0.095,0.127,0.475,602.6,73.73,233.337,0,0,0,
,0.117,-0.099,0.347,539.306,196.594,127.136,0,0,0,
,0.194,-0.191,0.542,327.758,290.832,3.906,0,0,0,
,0.202,0.07,0.687,-169.678,284.484,-56.946,0,0,0,
,0.165,0.579,0.83,-420.289,249.328,-78.797,0,0,0,
,0.035,0.763,0.915,-417.42,228.881,-128.357,0,0,0,
,-0.188,0.641,0.885,-573.243,150.695,-180.726,0,0,0,
,-0.408,0.686,0.687,-799.256,58.105,-153.687,0,0,0,
,-0.446,0.908,0.726,-334.168,61.828,-170.227,0,0,0,
,-0.4,0.958,0.966,567.138,120.361,-185.12,0,0,0,
,-0.362,0.732,1.197,1013.977,149.231,-249.146,0,0,0,
,-0.319,0.502,1.013,576.721,71.411,-260.987,0,0,0,
,-0.065,0.632,0.678,549.621,176.757,-377.869,0,0,0,
,0.011,0.496,0.759,583.496,233.825,-387.513,0,0,0,
,0.06,0.5,0.689,123.474,198.486,-372.742,0,0,0,
,-0.002,0.786,0.689,-229.065,147.4,-291.687,0,0,0,
,-0.073,0.835,0.733,-359.07,257.446,-317.261,0,0,0,
,0.018,1.27,0.516,-1907.776,-222.107,298.645,0,0,0,
,-0.077,1.392,0.317,-864.441,-93.689,394.226,0,0,0,
,0.06,1.183,0.526,22.705,65.49,421.875,0,0,0,
,0.156,0.853,0.724,64.209,56.396,557.495,0,0,0,
,0.083,0.707,0.859,-312.561,-54.139,633.85,0,0,0,
,-0.009,0.688,0.715,-574.646,-136.902,686.767,0,0,0,
,-0.122,0.576,0.566,-395.752,-146.18,643.676,0,0,0,
,-0.233,0.453,0.408,57.8,-93.506,553.588,0,0,0,
,-0.187,0.363,0.328,397.033,-25.818,417.053,0,0,0,
,-0.246,0.057,0.452,875.305,79.895,90.332,0,0,0,
,-0.262,-0.251,0.388,805.236,125.61,-163.758,0,0,0,
,-0.087,0.745,0.863,-102.478,2.685,-599.732,0,0,0,
,-0.067,0.828,0.643,-160.279,28.137,-618.226,0,0,0,
,-0.085,0.846,0.742,-213.379,78.552,-601.136,0,0,0,
,-0.078,0.984,0.756,24.78,126.159,-532.349,0,0,0,
,-0.044,1.186,0.864,255.31,152.404,-459.29,0,0,0,
,-0.155,0.848,0.761,545.471,115.478,-249.451,0,0,0,
,0.056,0.787,0.723,210.022,82.092,-156.739,0,0,0,
,0.111,0.907,0.747,35.4,43.151,-87.22,0,0,0,
,0.129,0.982,0.812,-217.53,15.38,21.423,0,0,0,
,0.202,1.022,0.746,-619.935,-40.223,164.611,0,0,0,
,0.148,0.933,0.655,-935.852,-65.613,247.924,0,0,0,
,0.04,0.773,0.575,-1172.669,-38.147,333.313,0,0,0,
,0.048,0.858,0.447,-1259.705,-59.144,488.22,0,0,0,
,0.041,1.206,0.476,-577.21,-87.403,600.647,0,0,0,
,-0.057,1.168,0.482,299.072,-43.335,604.004,0,0,0,
,-0.153,0.677,0.614,621.826,-39.917,523.681,0,0,0,
,-0.144,0.187,0.666,402.404,-44.129,454.04,0,0,0,
,-0.16,0.214,0.486,-108.704,-111.451,498.962,0,0,0,
,-0.279,0.333,0.5,49.438,-59.754,260.803,0,0,0,
,-0.154,0.126,0.377,503.662,82.763,12.939,0,0,0,
,-0.105,0.006,0.355,845.276,156.189,-236.695,0,0,0,
,-0.116,0.185,0.516,788.452,221.374,-355.164,0,0,0,
,0.036,0.492,0.635,480.835,182.617,-421.57,0,0,0,
,-0.046,0.656,0.686,306.396,137.39,-492.859,0,0,0,
,-0.105,0.677,0.729,229.675,147.644,-501.16,0,0,0,
,-0.119,0.691,0.672,307.617,167.663,-518.006,0,0,0,
,-0.13,0.807,0.887,465.637,224.548,-524.414,0,0,0,
,-0.062,0.817,0.895,456.909,223.755,-492.066,0,0,0,
,-0.071,0.808,1.069,129.089,172.668,-447.205,0,0,0,
,-0.044,0.982,1.021,-83.191,77.88,-358.521,0,0,0,
,-0.133,1.144,0.951,-63.965,38.879,-282.105,0,0,0,
,-0.048,1.058,0.751,117.553,47.607,-199.524,0,0,0,
,0.114,0.959,0.811,103.454,33.935,-95.398,0,0,0,
,0.233,1.057,0.811,-253.846,-29.297,79.589,0,0,0,
,0.284,1.08,0.813,-677.613,-66.59,210.449,0,0,0,
,0.264,0.845,0.642,-1046.021,-98.206,304.687,0,0,0,
,0.127,0.807,0.557,-1351.502,-139.466,449.646,0,0,0,
,0.089,1.151,0.389,-1251.099,-164.978,697.692,0,0,0,
,0.019,1.351,0.292,-349.244,-134.888,759.277,0,0,0,
,-0.078,1.115,0.441,637.451,-20.081,701.294,0,0,0,
,-0.073,0.396,0.621,994.201,29.663,582.702,0,0,0,
,-0.118,-0.052,0.681,304.26,-30.335,552.246,0,0,0,
,-0.304,0.097,0.323,-495.667,12.146,-98.389,0,0,0,
,-0.258,0.197,0.375,434.265,169.677,-410.462,0,0,0,
,-0.013,0.53,0.669,544.799,172.79,-395.752,0,0,0,
,0.038,0.755,0.931,594.177,135.437,-482.239,0,0,0,
,-0.062,0.896,0.944,195.984,46.203,-404.725,0,0,0,
,-0.189,1.036,0.804,-28.626,-0.611,-391.48,0,0,0,
,-0.291,0.808,0.661,131.103,63.476,-453.553,0,0,0,
,-0.232,0.589,0.609,275.024,101.257,-487.977,0,0,0,
,-0.064,0.704,0.915,112.915,105.713,-439.454,0,0,0,
,0.018,0.859,0.691,171.753,64.88,-462.342,0,0,0,
,-0.015,0.84,0.669,-30.823,75.927,-435.242,0,0,0,
,0.012,0.682,0.728,-273.255,86.669,-473.267,0,0,0,
,0.086,0.944,0.596,-704.846,7931.673,4447.204,0,0,0,
,0.06,1.3,0.6,-389.527,61.34,-201.905,0,0,0,
,0.255,1.431,0.823,-223.206,71.533,-32.593,0,0,0,
,0.332,1.413,0.598,-617.554,-25.025,260.986,0,0,0,
,0.202,1.236,0.42,-676.27,-48.89,392.089,0,0,0,
,0.139,0.884,0.358,-451.722,-19.776,458.191,0,0,0,
,0.127,0.942,0.457,-563.111,-51.758,631.469,0,0,0,
,0.007,1.2,0.479,-485.596,-85.999,767.944,0,0,0,
,-0.113,0.913,0.555,161.743,-43.152,681.213,0,0,0,
,-0.147,0.365,0.63,419.311,-34.18,588.012,0,0,0,
,-0.195,0.214,0.595,222.29,-63.416,566.406,0,0,0,
,-0.239,0.139,0.49,248.962,-35.035,384.826,0,0,0,
,-0.268,-0.047,0.497,392.7,27.343,96.252,0,0,0,
,-0.27,-0.074,0.422,517.761,74.462,-142.273,0,0,0,
,-0.248,0,0.578,714.233,145.813,-411.683,0,0,0,
,-0.025,0.364,0.639,426.88,98.144,-462.83,0,0,0,
,0.013,0.655,0.707,291.381,63.049,-587.891,0,0,0,
,-0.06,0.718,0.653,149.841,59.692,-629.578,0,0,0,
,-0.163,0.528,0.759,192.077,98.755,-754.639,0,0,0,
,-0.026,0.744,0.589,-121.338,91.919,-645.081,0,0,0,
,-0.044,1.161,0.927,-86.792,103.271,-610.84,0,0,0,
,0.021,1.317,0.89,-69.519,48.156,-463.257,0,0,0,
,-0.058,1.155,0.65,-28.016,86.975,-432.984,0,0,0,
,-0.031,1.111,0.914,-97.779,77.209,-355.53,0,0,0,
,0.097,1.297,0.802,-186.341,-17.273,-147.461,0,0,0,
,0.07,1.4,0.633,-127.137,-35.035,4.211,0,0,0,
,0.092,1.121,0.644,-126.831,5.92,57.861,0,0,0,
,0.25,0.973,0.636,-489.869,5.249,208.252,0,0,0,
,0.246,0.885,0.39,-745.301,-24.109,347.961,0,0,0,
,0.157,1.316,0.399,-639.222,-53.589,722.29,0,0,0,
,0.041,1.231,0.434,-99.61,-63.782,770.874,0,0,0,
,-0.046,0.809,0.52,345.153,-13.245,725.952,0,0,0,
,-0.076,0.356,0.633,295.715,-86.853,671.142,0,0,0,
,-0.174,0.268,0.462,43.273,-71.167,636.23,0,0,0,
,-0.276,0.174,0.476,16.052,-86.914,433.838,0,0,0,
,-0.313,0.002,0.467,291.32,31.921,164.978,0,0,0,
,-0.243,-0.14,0.445,513.977,130.981,-133.24,0,0,0,
,-0.199,-0.035,0.494,565.429,170.654,-359.864,0,0,0,
,-0.015,0.341,0.689,143.554,134.216,-428.956,0,0,0,
,0.101,0.708,0.655,22.216,75.683,-483.643,0,0,0,
,-0.083,0.895,0.778,83.557,32.714,-533.081,0,0,0,
,-0.149,0.944,0.673,-123.841,18.554,-478.638,0,0,0,
,-0.219,0.985,0.606,0.915,34.301,-506.409,0,0,0,
,-0.27,0.793,0.626,246.154,91.247,-551.27,0,0,0,
,-0.168,0.681,0.746,208.984,132.141,-553.345,0,0,0,
,0.113,1.034,0.878,-272.583,52.063,-433.167,0,0,0,
,0.067,1.291,0.609,-309.632,-39.551,-319.031,0,0,0,
,-0.176,1.019,0.465,307.251,42.297,-382.508,0,0,0,
,0.015,0.844,0.62,502.807,144.348,-358.338,0,0,0,
,0.181,0.749,0.55,460.571,143.005,-299.683,0,0,0,
,0.201,0.756,0.639,29.663,127.441,-227.112,0,0,0,
,0.334,1.085,0.709,-759.766,35.461,16.54,0,0,0,
,0.255,1.473,0.561,-1025.025,-67.017,231.506,0,0,0,
,0.134,1.423,0.368,-563.233,-38.025,334.472,0,0,0,
,0.147,1.04,0.364,16.113,19.714,386.963,0,0,0,
,0.179,0.855,0.51,-153.199,-10.254,559.021,0,0,0,
,0.076,0.984,0.532,-521.729,-68.848,720.764,0,0,0,
,-0.074,1.009,0.506,-384.034,-62.195,721.984,0,0,0,
,-0.153,0.692,0.544,89.965,-10.926,632.69,0,0,0,
,-0.158,0.374,0.454,282.531,-11.048,557.678,0,0,0,
,-0.217,0.172,0.408,360.901,5.249,389.526,0,0,0,
,-0.308,-0.103,0.434,452.148,75.256,82.458,0,0,0,
,-0.19,-0.158,0.428,256.591,134.094,-134.034,0,0,0,
,-0.11,-0.098,0.559,249.633,146.179,-392.456,0,0,0,
,0.037,0.278,0.592,-226.99,79.284,-400.452,0,0,0,
,0.026,0.841,0.674,-376.587,-31.128,-438.05,0,0,0,
,-0.094,1.24,0.564,-33.02,-45.96,-491.944,0,0,0,
,-0.304,0.757,0.226,718.322,91.003,-632.996,0,0,0,
,0.3,1.522,0.752,-965.577,-134.705,-241.761,0,0,0,
,-0.215,1.627,0.422,-85.633,-104.187,-350.22,0,0,0,
,-0.204,1.403,0.751,679.443,103.881,-352.601,0,0,0,
,0.119,1.27,0.643,474.609,65.734,-102.356,0,0,0,
,0.099,1.178,0.741,18.249,9.216,-32.593,0,0,0,
,0.155,1.056,0.551,-465.638,-11.353,175.72,0,0,0,
,0.256,1.07,0.559,-444.336,-46.204,269.958,0,0,0,
,0.255,0.931,0.442,-392.823,-55.176,352.844,0,0,0,
,0.176,0.955,0.497,-688.904,-95.765,518.31,0,0,0,
,0.088,1.177,0.41,-997.071,-110.352,720.703,0,0,0,
,0.011,1.394,0.341,-733.094,-150.757,859.253,0,0,0,
,-0.098,1.031,0.408,178.344,-17.518,725.525,0,0,0,
,-0.123,0.493,0.417,549.499,5.981,706.176,0,0,0,
,-0.149,0.188,0.35,326.904,-23.316,619.14,0,0,0,
,-0.282,0.025,0.27,274.963,5.493,402.588,0,0,0,
,-0.334,-0.103,0.534,413.452,47.973,62.377,0,0,0,
,-0.269,-0.093,0.391,605.774,188.476,-210.938,0,0,0,
,-0.199,-0.023,0.549,689.453,200.5,-456.177,0,0,0,
,0.053,0.482,0.652,292.846,137.878,-446.656,0,0,0,
,0.074,0.822,0.606,401.123,62.194,-546.875,0,0,0,
,-0.134,1.035,0.945,276.062,44.982,-578.858,0,0,0,
,-0.168,0.696,0.419,283.935,53.894,-600.708,0,0,0,
,-0.186,0.672,0.825,-10.254,124.633,-673.645,0,0,0,
,0.028,0.989,0.893,-374.573,55.847,-512.269,0,0,0,
,0.082,1.357,0.657,-669.739,-74.402,-353.699,0,0,0,
,-0.054,1.467,0.579,-37.11,-26.368,-329.956,0,0,0,
,0.101,1.068,0.546,323.364,50.415,-145.874,0,0,0,
,0.019,1.096,0.687,298.523,38.757,-135.926,0,0,0,
,0.078,0.994,0.665,-6.836,37.597,11.23,0,0,0,
,0.171,0.964,0.641,-457.825,-16.48,120.422,0,0,0,
,0.135,1.054,0.485,-802.247,-71.167,255.493,0,0,0,
,0.074,0.998,0.334,-711.67,-43.091,317.505,0,0,0,
,0.1,0.958,0.445,-642.456,-21.119,425.537,0,0,0,
,0.029,1.091,0.365,-756.043,-39.49,630.493,0,0,0,
,-0.111,1.146,0.441,-455.506,-83.497,686.462,0,0,0,
,-0.258,0.821,0.26,150.817,-3.785,664.184,0,0,0,
,-0.386,0.333,0.526,601.318,-36.011,489.746,0,0,0,
,-0.326,0.078,0.456,510.925,3.54,366.027,0,0,0,
,-0.039,0.114,0.472,286.865,8.606,-324.158,0,0,0,
,0.018,0.404,0.418,-87.464,-69.947,-353.089,0,0,0,
,0.025,0.785,0.555,-47.486,-133.423,-465.027,0,0,0,
,-0.081,0.998,0.465,157.837,-110.596,-511.902,0,0,0,
,-0.261,0.86,0.545,634.765,31.86,-627.442,0,0,0,
,0.107,0.898,1.058,-358.399,-54.932,-477.478,0,0,0,
,-0.012,1.177,0.61,-472.352,-123.719,-401.429,0,0,0,
,-0.199,1.347,0.722,-404.847,-77.088,-323.609,0,0,0,
,-0.109,1.438,0.572,180.175,14.16,-289.978,0,0,0,
,-0.121,1.08,0.46,713.989,82.031,-285.035,0,0,0,
,-0.04,0.904,0.619,719.848,122.07,-260.376,0,0,0,
,0.173,0.781,0.609,264.343,112.609,-174.439,0,0,0,
,0.286,0.944,0.562,-535.645,11.474,-5.372,0,0,0,
,0.261,1.27,0.393,-1140.015,-55.664,198.059,0,0,0,
,0.202,1.333,0.257,-974.305,-37.903,310.608,0,0,0,
,0.133,1.117,0.348,-606.507,26.733,416.992,0,0,0,
,0.067,1.002,0.355,-650.696,9.765,596.252,0,0,0,
,-0.037,1.091,0.337,-546.448,-18.738,678.772,0,0,0,
,-0.123,0.904,0.359,-179.749,56.701,656.86,0,0,0,
,-0.152,0.68,0.384,-140.686,7.934,656.433,0,0,0,
,-0.238,0.571,0.326,-53.101,34.24,594.177,0,0,0,
,-0.276,0.287,0.393,158.691,72.57,398.376,0,0,0,
,-0.312,0.235,0.378,271.362,59.997,265.258,0,0,0,
,-0.053,0.439,0.765,84.716,71.838,-360.535,0,0,0,
,0.001,1.077,0.463,30.944,21.606,-412.354,0,0,0,
,-0.167,1.287,0.395,205.017,25.878,-461.182,0,0,0,
,-0.269,1.114,0.334,708.923,116.394,-518.067,0,0,0,
,-0.26,0.684,0.634,937.683,225.402,-623.047,0,0,0,
,-0.134,1.276,0.623,-272.217,-5.372,-342.286,0,0,0,
,-0.124,1.116,0.582,-2.442,49.987,-380.921,0,0,0,
,-0.057,1.051,0.541,-28.87,39.367,-274.659,0,0,0,
,0.013,1.176,0.531,-55.97,14.16,-182.679,0,0,0,
,0.046,1.211,0.472,-157.532,4.455,-57.312,0,0,0,
,0.086,1.009,0.271,-528.382,13.916,298.278,0,0,0,
,0.054,0.988,0.395,-679.627,-10.01,488.403,0,0,0,
,0.014,1.226,0.346,-794.251,-84.168,693.542,0,0,0,
,-0.138,1.271,0.341,-182.007,-116.456,742.309,0,0,0,
,-0.226,0.762,0.367,509.826,-20.386,627.197,0,0,0,
,0.063,-0.081,0.454,259.826,-23.133,95.52,0,0,0,
,-0.024,-0.346,0.281,344.299,23.254,-261.353,0,0,0,
,0.003,-0.086,0.317,-115.662,16.845,-398.072,0,0,0,
,0.176,0.743,0.593,-409.058,-130.555,-371.277,0,0,0,
,-0.076,1.023,0.096,310.302,-28.809,-492.127,0,0,0,
,-0.229,1.141,0.675,632.446,73.791,-565.003,0,0,0,
,-0.154,0.886,0.205,962.219,207.763,-570.008,0,0,0,
,-0.209,0.45,0.813,672.18,287.353,-788.269,0,0,0,
,0.156,0.642,1.237,-666.871,44.128,-602.967,0,0,0,
,0.071,1.365,0.333,-707.215,-143.677,-326.844,0,0,0,
,-0.445,0.995,0.099,800.964,118.774,-826.844,0,0,0,
,-0.186,0.71,0.97,1252.075,422.241,-819.581,0,0,0,
,0.431,0.69,0.66,132.873,135.803,-567.627,0,0,0,
,0.297,1.947,1.244,-731.751,-296.509,-156.006,0,0,0,
,0.032,2.489,0.437,-1310.608,-279.297,342.407,0,0,0,
,-0.111,1.582,-0.005,-574.341,-32.837,126.22,0,0,0,
,-0.071,0.752,0.313,189.392,93.078,211.67,0,0,0,
,0.16,0.589,0.503,66.772,108.52,338.195,0,0,0,
,0.237,1.083,0.44,-613.465,-94.361,568.481,0,0,0,
,-0.002,1.408,0.333,-571.106,-154.602,652.649,0,0,0,
,-0.127,1.231,0.374,28.869,4.333,647.888,0,0,0,
,-0.081,0.889,0.442,314.575,-2.93,681.823,0,0,0,
,-0.098,0.639,0.417,511.413,40.527,667.48,0,0,0,
,-0.118,0.399,0.531,666.137,47.668,559.204,0,0,0,
,-0.116,0.16,0.554,640.197,85.022,413.086,0,0,0,
,-0.05,-0.121,0.487,597.107,116.638,153.869,0,0,0,
,-0.049,-0.237,0.402,415.283,119.934,-168.03,0,0,0,
,-0.159,-0.09,0.405,302.307,135.009,-310.425,0,0,0,
,-0.024,0.445,0.601,-199.036,94.177,-382.996,0,0,0,
,0.046,1.125,0.897,-270.386,-55.42,-366.028,0,0,0,
,-0.172,1.33,0.639,174.133,-47.242,-355.286,0,0,0,
,-0.367,1.277,0.61,752.624,90.21,-369.324,0,0,0,
,-0.296,0.886,0.734,1057.8,263.61,-407.532,0,0,0,
,0.019,0.784,0.847,518.249,184.57,-294.8,0,0,0,
,0.077,1.058,0.867,252.38,41.259,-186.829,0,0,0,
,-0.042,0.985,0.695,771.484,114.624,-91.187,0,0,0,
,0.083,0.768,0.711,817.199,110.656,-63.172,0,0,0,
,0.188,0.691,0.741,520.446,31.372,11.535,0,0,0,
,0.186,0.69,0.628,217.773,-51.697,71.96,0,0,0,
,0.057,0.675,0.564,142.151,-107.117,103.637,0,0,0,
,-0.035,0.618,0.6,189.453,-97.107,113.769,0,0,0,
,-0.141,0.463,0.604,-389.283,-126.465,3.479,0,0,0,
,-0.212,0.321,0.605,-1225.525,-108.338,-53.833,0,0,0,
,-0.153,0.353,0.611,-2000,-166.321,-78.919,0,0,0,
,-0.052,0.501,0.33,-2000,-224.793,-26.49,0,0,0,
,0.081,0.802,0.5,-2000,-242.249,41.32,0,0,0,
,0.109,1.47,0.233,-1118.042,-118.47,168.579,0,0,0,
,-0.022,1.127,0.121,-605.164,46.814,137.512,0,0,0,
,0.057,0.833,0.321,-538.208,68.42,122.924,0,0,0,
,0.074,0.898,0.195,-700.501,-35.706,180.542,0,0,0,
,-0.045,1.108,0.158,-550.66,-123.963,184.387,0,0,0,
,-0.186,1.277,0.045,-119.446,-130.982,181.213,0,0,0,
,-0.326,1.191,-0.027,483.093,-86.487,74.218,0,0,0,
,-0.43,1.1,0.019,885.376,-40.528,21.301,0,0,0,
,-0.473,0.769,-0.236,945.434,52.49,18.676,0,0,0,
,-0.483,0.717,0.258,967.041,22.888,-85.999,0,0,0,
,-0.347,0.787,0.28,794.311,-63.477,2.929,0,0,0,
,-0.32,1.008,0.078,834.411,-75.684,21.118,0,0,0,
,-0.326,0.972,0.179,863.586,-18.311,-20.997,0,0,0,
,-0.221,0.769,0.222,610.412,109.314,-51.575,0,0,0,
,-0.077,0.721,0.361,193.969,57.678,-49.561,0,0,0,
,-0.111,0.919,0.363,119.079,18.005,-33.997,0,0,0,
,-0.235,0.971,0.33,416.381,49.804,-52.491,0,0,0,
,-0.281,0.839,0.222,684.57,163.147,-123.108,0,0,0,
,-0.225,0.661,0.109,725.525,231.933,-144.41,0,0,0,
,-0.166,0.529,0.308,675.109,158.996,-208.191,0,0,0,
,-0.073,0.734,0.485,604.858,157.226,-169.068,0,0,0,
,-0.014,0.835,0.499,621.46,65.856,-184.693,0,0,0,
,-0.003,0.88,0.388,528.869,28.442,-146.729,0,0,0,
,-0.037,0.815,0.319,383.056,39.306,-142.151,0,0,0,
,-0.094,0.827,0.32,197.326,2.197,-84.473,0,0,0,
,-0.121,0.988,0.467,331.421,6.774,-35.523,0,0,0,
,-0.092,1.052,0.731,411.926,9.216,-43.213,0,0,0,
,-0.142,0.837,0.75,362.609,-28.077,-48.89,0,0,0,
,-0.138,0.687,0.752,9.216,-125.306,-56.641,0,0,0,
,-0.124,0.653,0.567,-442.505,-199.83,-60.852,0,0,0,
,-0.133,0.729,0.374,-636.292,-201.539,-102.356,0,0,0,
,-0.121,1.015,0.467,-573.06,-207.276,-115.235,0,0,0,
,-0.068,1.074,0.521,-336.792,-138.672,-146.424,0,0,0,
,-0.113,0.828,0.631,-167.42,-104.798,-148.377,0,0,0,
,-0.052,0.758,0.585,-456.299,-118.653,-122.498,0,0,0,
,0,0.899,0.396,-899.598,-204.285,-107.605,0,0,0,
,-0.044,1.043,0.285,-958.008,-203.858,-80.872,0,0,0,
,-0.146,1.084,0.163,-734.986,-136.841,-112.366,0,0,0,
,-0.162,1.024,0.085,-453.797,-8.728,-168.396,0,0,0,
,-0.171,0.867,0.132,-210.999,85.937,-178.345,0,0,0,
,-0.154,0.794,0.205,-190.613,136.718,-172.791,0,0,0,
,0.007,0.833,0.29,-414.49,112.609,-148.438,0,0,0,
,0.004,0.999,0.209,-361.695,67.077,-127.076,0,0,0,
,-0.117,1.104,0.139,-199.402,91.735,-84.107,0,0,0,
,-0.082,1.112,0.153,-34.424,176.818,-105.713,0,0,0,
,0.02,1.028,0.263,113.525,232.727,-84.229,0,0,0,
,-0.02,0.877,0.133,-114.258,210.022,24.231,0,0,0,
,0.016,1.186,0.376,-277.344,74.279,78.674,0,0,0,
,0.06,1.185,0.322,18.798,106.628,103.393,0,0,0,
,0.028,0.871,0.221,96.435,88.134,113.281,0,0,0,
,0.02,0.832,0.382,-123.719,52.246,109.802,0,0,0,
,0.038,0.9,0.37,-259.339,11.962,99.121,0,0,0,
,0.021,0.905,0.228,-424.622,3.295,139.16,0,0,0,
,-0.073,0.78,0.049,-524.781,9.094,159.057,0,0,0,
,-0.149,0.989,0.155,-389.893,9.826,153.991,0,0,0,
,-0.138,1.167,0.146,-336.365,-10.865,134.094,0,0,0,
,-0.152,1.165,0.284,-184.021,-45.533,181.03,0,0,0,
,-0.148,0.794,0.173,-154.236,-114.502,150.207,0,0,0,
,-0.067,1.069,0.244,-95.643,-86.548,81.787,0,0,0,
,-0.108,1.273,0.135,308.776,-113.221,133.728,0,0,0,
,-0.178,1.205,0.234,780.944,-65.796,167.541,0,0,0,
,-0.161,0.908,0.068,913.696,65.124,161.865,0,0,0,
,-0.032,0.632,0.146,543.884,144.043,78.43,0,0,0,
,0.004,0.562,0.205,-117.432,107.91,51.086,0,0,0,
,-0.068,0.668,0.202,-609.864,47.912,14.221,0,0,0,
,-0.119,0.763,-0.023,-755.494,54.504,-12.574,0,0,0,
,-0.022,1,0.205,-531.006,-4.761,-27.405,0,0,0,
,-0.061,1.11,0.003,-237.244,12.39,48.828,0,0,0,
,-0.279,0.911,0.017,32.409,70.983,55.297,0,0,0,
,-0.343,0.781,0.168,35.278,84.045,17.334,0,0,0,
,-0.28,0.915,0.202,-100.831,28.137,-26.795,0,0,0,
,-0.306,1.128,0.237,-218.934,-19.776,18.127,0,0,0,
,-0.361,1.028,0.373,-476.563,-74.646,82.397,0,0,0,
,-0.36,0.667,-0.012,-226.929,-86.731,13.183,0,0,0,
,-0.374,0.737,0.084,-45.227,-22.767,-81.177,0,0,0,
,0.098,1.254,0.335,341.491,-14.405,-15.381,0,0,0,
,0.148,1.231,0.282,134.338,-81.055,94.421,0,0,0,
,-0.025,0.854,0.016,-32.532,-87.586,153.808,0,0,0,
,-0.061,0.698,0.169,-190.735,-46.631,66.589,0,0,0,
,-0.021,0.686,0.161,-182.496,-1.404,40.954,0,0,0,
,-0.213,0.803,0.227,77.758,-48.035,-114.258,0,0,0,
,-0.269,0.864,0.262,-76.05,-64.087,-163.758,0,0,0,
,-0.257,1.028,0.234,-200.867,-88.501,-210.389,0,0,0,
,-0.295,1.141,0.128,0.854,-92.652,-221.497,0,0,0,
,-0.321,1.097,0.07,494.14,-15.198,-224.61,0,0,0,
,-0.262,1.087,0.242,621.582,21.606,-225.525,0,0,0,
,-0.149,1.104,0.159,56.457,14.099,-314.82,0,0,0,
,-0.15,1.011,0.36,10.986,-32.715,-322.571,0,0,0,
,-0.136,0.871,0.321,269.287,-23.316,-336.06,0,0,0,
,-0.047,0.835,0.299,396.301,12.512,-360.901,0,0,0,
,0.055,0.803,0.228,376.281,25.329,-324.952,0,0,0,
,0.064,0.85,0.141,96.984,14.77,-299.622,0,0,0,
,0.096,1.003,0.037,-387.818,40.893,-256.043,0,0,0,
,0.102,1.204,0.272,-859.436,-16.968,-236.512,0,0,0,
,0.043,1.369,0.259,-989.502,4.455,-72.937,0,0,0,
,0.064,1.41,-0.023,-589.112,45.715,97.9,0,0,0,
,0.092,1.142,0.177,151.123,230.59,622.436,0,0,0,
,-0.02,1.086,0.193,-410.34,166.626,735.901,0,0,0,
,-0.168,1.058,0.228,-339.539,106.384,758.117,0,0,0,
,-0.39,0.786,0.208,233.337,56.701,745.178,0,0,0,
,-0.481,0.525,0.114,649.841,124.878,671.753,0,0,0,
,-0.394,0.268,0.267,1005.005,243.469,299.865,0,0,0,
,-0.069,0.107,0.591,1220.337,367.736,-63.233,0,0,0,
,0.174,-0.024,0.478,1321.35,274.047,-180.481,0,0,0,
,0.194,-0.109,0.508,233.337,98.449,-242.31,0,0,0,
,0.041,0.198,0.376,-842.102,-168.58,-392.64,0,0,0,
,-0.155,0.582,0.313,-1182.251,-341.126,-468.323,0,0,0,
,-0.343,0.909,0.247,-457.337,-274.048,-566.102,0,0,0,
,-0.236,0.89,0.148,589.721,-85.083,-728.15,0,0,0,
,-0.199,0.967,0.33,997.131,58.471,-706.299,0,0,0,
,0.167,1.113,0.672,189.27,6.347,-701.6,0,0,0,
,-0.097,1.353,0.458,-369.263,-154.053,-468.873,0,0,0,
,-0.16,1.395,0.338,-1010.987,-139.039,-497.742,0,0,0,
,-0.16,1.714,0.306,-668.396,-123.841,-394.288,0,0,0,
,-0.069,1.593,0.072,-294.19,-53.772,-282.776,0,0,0,
,0.037,1.489,0.082,-20.203,12.939,-107.422,0,0,0,
,0.142,1.437,0.02,-137.94,65.612,127.624,0,0,0,
,0.168,1.22,0.015,-184.021,96.74,309.753,0,0,0,
,0.093,1.169,0.116,-123.841,148.437,466.125,0,0,0,
,0.114,1.125,0.077,-512.513,195.19,614.074,0,0,0,
,0.003,1.184,0.192,-631.836,159.668,746.521,0,0,0,
,-0.088,1.152,0.236,-336.243,153.137,807.067,0,0,0,
,-0.179,0.911,0.266,323.12,156.25,818.298,0,0,0,
,-0.208,0.533,0.137,859.558,160.827,672.851,0,0,0,
,-0.21,0.188,0.39,981.628,228.332,480.163,0,0,0,
,-0.147,-0.119,0.463,1318.908,217.59,119.323,0,0,0,
,-0.22,-0.232,0.434,1348.327,193.42,-58.35,0,0,0,
,-0.106,-0.038,0.663,356.872,83.923,-327.576,0,0,0,
,0.001,0.339,0.54,-409.852,-159.974,-477.112,0,0,0,
,-0.194,0.925,0.528,-739.747,-275.208,-489.441,0,0,0,
,-0.27,1.154,0.321,-11.048,-215.577,-610.352,0,0,0,
,-0.176,0.852,0.15,832.031,-33.814,-665.528,0,0,0,
,-0.334,0.771,0.534,579.589,85.937,-573.609,0,0,0,
,0.318,1.116,0.507,-335.694,-47.974,-653.565,0,0,0,
,-0.141,1.428,0.361,-622.559,-163.453,-366.333,0,0,0,
,-0.231,1.293,0.411,-511.109,-28.87,-470.887,0,0,0,
,-0.046,1.246,0.499,-311.097,21.179,-434.205,0,0,0,
,0.046,1.383,0.422,-54.2,3.356,-372.01,0,0,0,
,-0.021,1.278,0.182,543.945,51.391,-271.729,0,0,0,
,-0.053,1.152,0.274,645.263,138,-184.266,0,0,0,
,0.174,1.174,0.39,-89.295,143.066,-60.059,0,0,0,
,0.181,1.216,0.248,-676.087,42.785,181.823,0,0,0,
,-0.009,1.166,0.19,-749.817,-5.249,329.712,0,0,0,
,0.01,1.14,0.131,-575.318,122.314,428.65,0,0,0,
,0.119,1.15,0.128,-742.188,132.568,619.201,0,0,0,
,0.031,1.267,0.198,-885.56,45.898,797.973,0,0,0,
,-0.153,1.269,0.07,-561.524,39.611,926.147,0,0,0,
,-0.242,1.04,0.273,161.255,114.868,886.169,0,0,0,
,-0.231,0.537,0.133,683.838,204.284,831.543,0,0,0,
,-0.231,0.211,0.454,1140.808,183.838,572.57,0,0,0,
,-0.191,-0.169,0.556,1572.021,251.648,346.618,0,0,0,
,-0.237,-0.354,0.55,1671.325,252.685,-63.904,0,0,0,
,-0.081,-0.376,0.606,539.734,246.399,-321.839,0,0,0,
,0.172,0.276,0.638,-889.649,-96.558,-565.918,0,0,0,
,-0.152,0.886,0.538,-1173.707,-313.782,-510.254,0,0,0,
,-0.255,1.002,0.132,-296.326,-221.497,-770.02,0,0,0,
,-0.311,0.637,0.038,782.287,-12.94,-777.894,0,0,0,
,-0.312,1.221,0.739,390.625,151.123,-743.226,0,0,0,
,0.576,1.456,0.505,-413.88,-58.228,-681.702,0,0,0,
,-0.313,1.4,0.32,-27.405,-95.459,-418.58,0,0,0,
,-0.302,1.201,0.569,51.086,114.196,-533.265,0,0,0,
,0.167,1.347,0.6,-15.381,69.702,-412.842,0,0,0,
,-0.021,1.409,0.33,335.815,-41.932,-316.285,0,0,0,
,-0.263,1.045,0.213,542.968,66.345,-246.277,0,0,0,
,-0.037,1.025,0.355,300.354,186.157,-281.311,0,0,0,
,0.228,1.096,0.539,-9.156,183.41,-112.977,0,0,0,
,0.15,1.134,0.466,-446.9,103.82,126.892,0,0,0,
,0.164,1.135,0.225,-775.513,36.01,264.404,0,0,0,
,0.057,1.079,0.106,-476.197,74.035,377.075,0,0,0,
,-0.049,1.044,0.139,-404.114,169.372,540.466,0,0,0,
,0.036,1.186,0.268,-508.973,128.418,648.498,0,0,0,
,-0.01,1.231,0.17,-495.972,82.031,792.602,0,0,0,
,-0.14,1.081,0.209,-182.74,17.273,840.637,0,0,0,
,-0.164,0.784,0.272,123.84,70.434,850.647,0,0,0,
,-0.122,0.502,0.163,365.051,110.839,780.212,0,0,0,
,-0.137,0.28,0.489,781.921,72.57,537.231,0,0,0,
,-0.143,-0.192,0.471,1234.497,108.459,277.404,0,0,0,
,-0.233,-0.415,0.465,1420.959,114.563,-6.409,0,0,0,
,-0.291,-0.306,0.44,486.633,134.582,-291.443,0,0,0,
,0.056,0.284,0.707,-848.328,-79.163,-629.517,0,0,0,
,-0.042,0.951,0.524,-959.9,-320.374,-631.47,0,0,0,
,-0.223,0.985,0.215,-327.454,-230.652,-830.201,0,0,0,
,-0.343,0.974,0.374,190.124,14.831,-725.953,0,0,0,
,0.244,1.499,0.791,-591.37,-31.067,-651.978,0,0,0,
,0.236,1.588,0.197,-238.16,-91.675,-513.733,0,0,0,
,-0.557,1.419,0.523,556.457,42.663,-424.317,0,0,0,
,0.118,1.165,0.633,1.098,212.158,-431.519,0,0,0,
,0.131,1.269,0.502,205.261,-16.053,-325.318,0,0,0,
,-0.272,1.169,0.46,265.197,-22.706,-287.11,0,0,0,
,-0.082,1.013,0.382,328.308,57.922,-357.911,0,0,0,
,-0.078,0.772,0.331,179.626,106.872,-324.524,0,0,0,
,0.012,0.887,0.417,-469.91,121.643,-268.982,0,0,0,
,0.269,1.236,0.364,-1210.389,41.32,-53.589,0,0,0,
,0.185,1.434,0.172,-1008.545,-19.471,141.357,0,0,0,
,0.026,1.373,0.059,-284.729,55.358,252.136,0,0,0,
,0.082,1.23,0.107,70.861,169.067,458.862,0,0,0,
,0.18,1.083,0.217,-133.973,184.021,619.69,0,0,0,
,0.019,1.153,0.188,-763.977,83.801,779.174,0,0,0,
,-0.098,1.156,0.144,-1164.795,37.963,893.737,0,0,0,
,-0.165,1.102,0.177,-685.547,58.776,913.574,0,0,0,
,-0.174,0.842,0.193,242.736,107.849,893.737,0,0,0,
,-0.131,0.421,0.133,1103.942,128.112,724.975,0,0,0,
,-0.201,0.043,0.236,1687.683,178.955,454.773,0,0,0,
,-0.277,-0.324,0.717,1999.694,246.399,-35.462,0,0,0,
,-0.205,-0.471,0.619,1498.962,402.221,-183.899,0,0,0,
,0.263,-0.059,0.842,-423.279,103.149,-652.222,0,0,0,
,0.071,0.58,0.666,-1325.44,-214.234,-623.352,0,0,0,
,-0.406,1.16,0.367,-998.536,-339.722,-668.335,0,0,0,
,0.119,0.682,1.052,-398.072,370.117,-645.264,0,0,0,
,0.822,1.662,0.603,-1079.59,-218.934,-626.404,0,0,0,
,-0.446,1.165,-0.175,640.808,-81.543,-685.242,0,0,0,
,-0.647,0.697,0.384,392.334,449.585,-393.86,0,0,0,
,0.75,1.132,0.92,-522.522,90.454,-929.81,0,0,0,
,0.187,1.398,0.43,-1029.664,-118.409,-304.81,0,0,0,
,-0.136,1.781,0.126,-660.401,-195.252,-325.989,0,0,0,
,0.218,1.742,0.164,140.625,64.086,-85.999,0,0,0,
,0.486,1.35,0.151,44.128,104.248,151.916,0,0,0,
,0.278,1.08,0.001,-388.306,85.815,450.195,0,0,0,
,-0.036,1.292,0.002,-667.054,177.673,656.372,0,0,0,
,0.045,1.319,0.079,-838.257,277.588,815.979,0,0,0,
,0.067,1.197,0.31,-367.188,177.551,884.155,0,0,0,
,-0.173,0.929,0.321,144.348,154.907,1029.419,0,0,0,
,-0.128,0.698,0.456,315.368,89.965,979.431,0,0,0,
,-0.159,0.464,0.128,635.07,85.266,837.219,0,0,0,
,-0.187,0.13,0.535,1186.157,50.293,546.264,0,0,0,
,-0.152,-0.347,0.504,1367.859,161.56,391.967,0,0,0,
,-0.181,-0.532,0.576,1357.605,127.014,-161.255,0,0,0,
,0.19,0.558,0.753,-907.471,-184.144,-588.013,0,0,0,
,-0.065,1.059,0.43,-1064.454,-341.919,-432.618,0,0,0,
,-0.268,1.158,0.172,949.768,8.056,-512.635,0,0,0,
,0.177,1.239,0.753,-16.175,27.404,-495.179,0,0,0,
,0.019,1.012,0.542,437.378,38.269,-340.271,0,0,0,
,-0.027,0.762,0.471,334.411,-28.138,-311.219,0,0,0,
,-0.02,0.785,0.383,119.079,-35.34,-328.064,0,0,0,
,0.086,0.899,0.326,61.462,-31.8,-307.862,0,0,0,
,0.034,0.81,0.32,31.005,-4.944,-270.874,0,0,0,
,0.036,0.827,0.44,138.855,40.527,-279.053,0,0,0,
,-0.03,0.737,0.392,490.478,79.711,-316.468,0,0,0,
,-0.105,0.688,0.39,515.319,154.907,-358.948,0,0,0,
,0.057,0.816,0.42,-40.467,141.113,-388.672,0,0,0,
,0.046,1.203,0.431,-784.668,82.763,-207.154,0,0,0,
,0.292,1.388,0.516,-1675.293,-97.657,-18.982,0,0,0,
,0.191,1.47,0.195,-1227.112,-154.541,294.311,0,0,0,
,0.069,1.182,0.374,-368.714,111.389,696.289,0,0,0,
,0.003,1.179,0.371,-458.863,66.101,789.734,0,0,0,
,-0.173,1.091,0.444,-31.067,57.19,845.337,0,0,0,
,-0.143,0.795,0.267,152.404,80.749,805.053,0,0,0,
,-0.199,0.492,0.356,293.213,29.724,722.473,0,0,0,
,-0.1,0.131,0.534,695.861,40.832,421.569,0,0,0,
,-0.12,-0.285,0.51,1357.666,65.185,130.066,0,0,0,
,-0.198,-0.346,0.386,1354.065,183.96,-108.094,0,0,0,
,-0.021,-0.008,0.598,368.957,206.359,-543.274,0,0,0,
,0.189,0.548,0.678,-667.115,-42.42,-648.438,0,0,0,
,0.068,0.705,0.437,-942.872,-172.12,-668.824,0,0,0,
,-0.18,0.403,-0.207,711.364,-92.225,-997.986,0,0,0,
,-0.57,1.089,0.4,-535.584,297.973,-590.638,0,0,0,
,1.046,1.667,0.868,-1362.732,-164.795,-951.294,0,0,0,
,0.027,1.063,-0.09,272.644,-129.761,-481.141,0,0,0,
,-0.943,1.325,0.289,1462.341,106.201,-692.505,0,0,0,
,0.342,1.281,1.084,-954.529,563.293,-502.259,0,0,0,
,1.032,1.42,0.262,-1742.981,-231.812,-130.188,0,0,0,
,-0.155,1.675,-0.207,-1739.38,-483.521,338.073,0,0,0,
,-0.441,1.717,0.132,-753.663,-92.896,273.01,0,0,0,
,0.174,1.524,0.035,247.497,265.014,416.381,0,0,0,
,0.245,1.117,0.213,-35.584,87.341,564.758,0,0,0,
,-0.149,1.119,0.263,-200.745,135.681,722.229,0,0,0,
,-0.11,1.187,0.234,-193.909,181.884,677.734,0,0,0,
,0.003,1.154,0.148,-150.574,202.392,793.64,0,0,0,
,-0.139,0.955,0.207,289.672,130.981,734.069,0,0,0,
,-0.108,0.66,0.248,326.294,165.039,734.008,0,0,0,
,-0.046,0.479,0.287,609.436,168.457,540.1,0,0,0,
,-0.052,0.247,0.357,930.42,190.124,356.14,0,0,0,
,-0.121,-0.103,0.38,1390.136,177.246,61.645,0,0,0,
,0.164,0.642,0.68,-831.543,-111.634,-520.447,0,0,0,
,-0.062,1.194,0.465,-1023.804,-222.535,-433.472,0,0,0,
,-0.297,1.385,0.244,-562.378,-190.491,-484.864,0,0,0,
,-0.253,1.29,0.198,92.224,-25.086,-392.334,0,0,0,
,-0.161,1.11,0.352,455.261,38.024,-378.724,0,0,0,
,-0.118,0.957,0.38,268.859,-46.265,-204.346,0,0,0,
,-0.089,0.834,0.321,206.054,-55.298,-231.507,0,0,0,
,-0.027,0.781,0.307,97.595,-53.772,-270.752,0,0,0,
,0.039,0.809,0.345,-22.339,-41.382,-278.016,0,0,0,
,0.051,0.854,0.35,-44.068,-37.11,-249.878,0,0,0,
,-0.033,0.882,0.396,-7.569,30.151,-223.694,0,0,0,
,0.016,1.044,0.451,-322.327,-7.813,-163.086,0,0,0,
,-0.04,1.199,0.359,-558.594,-55.664,-61.036,0,0,0,
,-0.055,1.277,0.169,-604.187,-33.753,23.193,0,0,0,
,0.048,1.362,0.165,-388.916,26.062,125.732,0,0,0,
,0.147,1.273,0.272,-44.373,74.157,248.047,0,0,0,
,0.159,1.147,0.277,-11.353,101.928,420.776,0,0,0,
,0.129,1.152,0.248,-411.133,64.697,611.023,0,0,0,
,-0.083,1.17,0.12,-371.582,71.777,727.539,0,0,0,
,-0.123,1.065,0.474,-5.738,50.109,716.858,0,0,0,
,-0.218,0.606,0.182,678.527,127.197,644.836,0,0,0,
,-0.227,0.284,0.546,874.572,98.755,440.612,0,0,0,
,-0.181,0.021,0.41,935.363,153.381,195.617,0,0,0,
,-0.139,-0.128,0.497,770.63,140.442,-110.291,0,0,0,
,-0.095,0.044,0.502,27.343,100.341,-254.761,0,0,0,
,0.08,0.406,0.514,-489.136,-47.425,-465.394,0,0,0,
,-0.018,0.784,0.402,-413.086,-124.939,-424.378,0,0,0,
,-0.11,0.889,0.337,125.854,-113.282,-501.526,0,0,0,
,-0.216,0.611,0.173,1111.511,25.94,-644.104,0,0,0,
,-0.04,0.637,0.52,292.907,190.612,-696.839,0,0,0,
,0.222,0.951,0.809,-543.274,-11.658,-670.35,0,0,0,
,0.082,1.002,0.295,-331.849,-146.973,-598.084,0,0,0,
,-0.352,1.324,0.248,-447.693,29.907,-522.644,0,0,0,
,0.21,1.644,0.637,-404.664,36.377,-561.524,0,0,0,
,0.287,1.439,0.279,177.917,-139.771,-210.206,0,0,0,
,-0.197,1.486,0.072,490.295,-55.42,-14.527,0,0,0,
,0.22,1.329,0.489,-513.367,109.741,57.128,0,0,0,
,0.308,1.278,0.229,-437.989,-19.715,352.6,0,0,0,
,-0.138,1.383,0.202,-554.139,-48.096,584.9,0,0,0,
,-0.146,1.249,0.285,-563.05,98.816,586.059,0,0,0,
,0.031,1.164,0.375,-700.684,54.077,691.894,0,0,0,
,-0.171,1.146,0.182,-443.36,38.818,830.932,0,0,0,
,-0.225,1.071,0.365,124.817,64.758,766.235,0,0,0,
,-0.099,0.82,0.24,275.39,134.765,780.822,0,0,0,
,-0.119,0.577,0.327,500.488,86.181,661.193,0,0,0,
,-0.141,0.38,0.461,560.058,126.464,543.762,0,0,0,
,-0.133,0.068,0.488,827.514,143.982,275.39,0,0,0,
,-0.124,-0.101,0.487,657.592,170.288,54.809,0,0,0,
,-0.168,0.012,0.337,453.308,158.02,-207.276,0,0,0,
,-0.066,0.236,0.402,2.807,124.572,-441.102,0,0,0,
,-0.051,0.522,0.436,9.155,41.748,-535.462,0,0,0,
,-0.074,0.833,0.507,-186.524,-15.931,-559.571,0,0,0,
,-0.068,0.76,0.325,235.473,-16.785,-677.369,0,0,0,
,-0.309,0.8,0.299,592.651,66.101,-701.539,0,0,0,
,0.077,1.085,0.742,-962.22,63.964,-721.131,0,0,0,
,0.146,1.262,0.517,-651.246,-145.935,-586.121,0,0,0,
,-0.394,1.107,0.092,468.322,-77.881,-551.941,0,0,0,
,-0.162,1.361,0.522,-307.435,240.234,-600.464,0,0,0,
,0.553,1.526,0.506,-468.811,-42.42,-433.167,0,0,0,
,-0.049,1.41,0.195,234.924,-122.376,-118.714,0,0,0,
,-0.305,1.189,0.027,409.973,91.735,-121.338,0,0,0,
,0.18,1.188,0.502,-277.161,245.422,-54.505,0,0,0,
,0.368,1.2,0.334,-278.138,40.832,199.035,0,0,0,
,-0.051,1.324,0.149,-513.611,-32.227,492.37,0,0,0,
,-0.036,1.32,0.151,-665.223,86.486,578.979,0,0,0,
,0.049,1.233,0.151,-873.23,90.332,739.257,0,0,0,
,-0.126,1.145,0.269,-506.958,50.842,810.119,0,0,0,
,-0.255,1.082,0.37,163.696,107.422,812.5,0,0,0,
,-0.123,0.753,0.289,415.161,183.41,722.9,0,0,0,
,-0.116,0.396,0.372,763,57.128,579.284,0,0,0,
,-0.203,0.11,0.384,608.337,48.034,472.595,0,0,0,
,-0.18,-0.096,0.55,607.36,26.001,118.835,0,0,0,
,-0.07,-0.138,0.4,405.273,43.579,-93.506,0,0,0,
,-0.118,0.077,0.336,240.783,26.306,-310.669,0,0,0,
,-0.038,0.485,0.531,-146.302,30.517,-507.935,0,0,0,
,0.058,0.927,0.519,-347.901,-109.314,-510.193,0,0,0,
,-0.002,0.951,0.354,-703.675,-183.35,-445.679,0,0,0,
,-0.185,0.933,0.168,-139.222,-108.338,-477.539,0,0,0,
,-0.177,1.227,0.374,131.958,9.46,-498.23,0,0,0,
,0.02,1.254,0.515,354.248,12.268,-471.924,0,0,0,
,-0.089,1.026,0.411,474.853,-51.636,-419.678,0,0,0,
,-0.11,0.891,0.414,7.568,-32.166,-438.111,0,0,0,
,-0.107,0.915,0.321,112.182,-25.818,-483.948,0,0,0,
,-0.156,1.022,0.398,-165.589,25.512,-482.789,0,0,0,
,0.164,1.279,0.455,-273.133,-16.297,-407.349,0,0,0,
,-0.036,1.34,0.252,248.596,-50.049,-239.319,0,0,0,
,-0.135,1.141,0.285,430.42,64.392,-223.328,0,0,0,
,0.142,1.159,0.41,-108.033,126.831,-127.137,0,0,0,
,0.258,1.305,0.277,-445.313,22.888,104.858,0,0,0,
,0.107,1.312,0.184,-364.991,-22.217,306.945,0,0,0,
,0.07,1.154,0.137,-132.508,37.353,399.109,0,0,0,
,0.099,1.1,0.177,-398.438,77.392,567.627,0,0,0,
,-0.037,1.114,0.15,-617.981,66.284,689.209,0,0,0,
,-0.169,1.139,0.268,-468.079,41.076,736.328,0,0,0,
,-0.261,0.918,0.322,86.853,58.41,703.613,0,0,0,
,-0.225,0.624,0.349,428.222,52.002,592.712,0,0,0,
,-0.15,0.327,0.304,456.604,37.231,441.467,0,0,0,
,-0.056,0.049,0.415,539.856,12.878,181.884,0,0,0,
,0.003,-0.021,0.316,540.527,30.456,-69.275,0,0,0,
,-0.15,0.138,0.43,403.808,-12.635,-273.194,0,0,0,
,-0.055,0.396,0.632,-109.375,-77.027,-462.342,0,0,0,
,-0.049,0.843,0.499,-330.445,-206.055,-477.662,0,0,0,
,-0.176,1.04,0.314,-385.193,-242.31,-488.282,0,0,0,
,-0.274,1.088,0.237,63.476,-167.237,-526.368,0,0,0,
,-0.207,1.412,0.555,-298.829,-104.432,-456.299,0,0,0,
,-0.032,1.401,0.445,43.945,-128.418,-411.011,0,0,0,
,-0.335,1.16,0.334,628.662,-52.796,-360.596,0,0,0,
,0.037,0.967,0.592,290.71,8.972,-438.66,0,0,0,
,0.111,0.69,0.311,466.552,-45.533,-415.162,0,0,0,
,-0.038,0.63,0.284,557.006,-31.739,-458.435,0,0,0,
,0.001,0.799,0.26,98.571,54.199,-487.854,0,0,0,
,0.271,0.937,0.333,-595.643,-4.517,-471.192,0,0,0,
,0.07,1.308,0.142,-936.036,-35.096,-217.835,0,0,0,
,0.109,1.671,0.197,-1062.195,-38.575,-37.11,0,0,0,
,0.183,1.727,0.113,-352.356,30.09,197.509,0,0,0,
,0.066,1.357,0.139,266.296,136.718,391.235,0,0,0,
,-0.005,1.107,0.318,96.74,175.232,563.354,0,0,0,
,-0.02,1.08,0.341,-183.533,149.414,629.028,0,0,0,
,-0.082,1.164,0.43,-260.682,83.557,718.322,0,0,0,
,-0.152,1.027,0.364,-68.36,72.387,727.356,0,0,0,
,-0.162,0.818,0.258,-33.448,46.203,719.909,0,0,0,
,-0.166,0.705,0.361,73.913,43.884,660.644,0,0,0,
,-0.088,0.625,0.311,229.004,70.861,571.472,0,0,0,
,-0.009,0.403,0.272,358.642,76.965,443.298,0,0,0,
,-0.047,0.134,0.326,442.688,81.298,294.738,0,0,0,
,-0.058,-0.068,0.316,530.883,76.11,57.434,0,0,0,
,-0.152,-0.047,0.288,375.305,44.555,-102.112,0,0,0,
,-0.123,0.245,0.479,-142.884,0.366,-367.493,0,0,0,
,-0.081,0.886,0.569,-483.094,-111.695,-409.18,0,0,0,
,-0.121,1.172,0.56,-621.155,-208.497,-474.976,0,0,0,
,-0.35,1.07,0.193,-26.978,-151.123,-476.685,0,0,0,
,-0.389,1.152,0.315,195.739,-2.808,-554.322,0,0,0,
,-0.071,1.147,0.361,411.438,55.053,-588.013,0,0,0,
,-0.204,1.162,0.362,380.127,76.538,-478.943,0,0,0,
,-0.022,1.337,0.494,-275.94,-7.63,-399.17,0,0,0,
,-0.042,1.347,0.201,-127.625,-102.906,-235.84,0,0,0,
,-0.278,1.199,0.198,194.336,-59.144,-183.045,0,0,0,
,-0.108,1.124,0.227,171.142,57.922,-180.603,0,0,0,
,0.075,1.178,0.276,-111.39,67.81,-79.285,0,0,0,
,0.135,1.283,0.264,-455.689,46.325,109.375,0,0,0,
,0.076,1.252,0.108,-349.244,63.72,259.704,0,0,0,
,-0.017,1.29,0.042,-378.357,144.592,418.64,0,0,0,
,-0.017,1.352,0.11,-586.121,166.687,622.619,0,0,0,
,-0.116,1.318,0.234,-251.038,119.934,731.384,0,0,0,
,-0.274,1.085,0.271,237.976,98.755,761.535,0,0,0,
,-0.306,0.736,0.335,440.734,91.064,704.773,0,0,0,
,-0.229,0.397,0.144,367.004,112.854,591.797,0,0,0,
,-0.196,0.104,0.569,393.493,56.213,395.019,0,0,0,
,-0.149,-0.026,0.425,563.537,81.543,144.409,0,0,0,
,-0.143,-0.106,0.535,769.104,82.336,-155.335,0,0,0,
,-0.154,0.162,0.455,365.844,121.826,-317.566,0,0,0,
,0.119,0.51,0.635,-42.786,7.08,-503.052,0,0,0,
,0.016,0.823,0.496,-26.429,-117.31,-447.693,0,0,0,
,-0.126,0.555,0.176,573.852,-110.413,-630.86,0,0,0,
,-0.284,0.84,0.205,115.234,55.481,-609.986,0,0,0,
,0.328,0.961,0.806,-601.807,-51.514,-797.669,0,0,0,
,-0.118,1.232,0.234,-190.369,-114.014,-464.539,0,0,0,
,-0.23,1.261,0.435,-182.19,-18.799,-652.1,0,0,0,
,0.036,1.049,0.279,298.828,57.128,-619.019,0,0,0,
,-0.147,1.141,0.36,345.092,27.71,-544.251,0,0,0,
,-0.051,1.44,0.271,-303.833,-121.033,-247.132,0,0,0,
,-0.29,1.352,0.27,206.665,-48.89,-203.248,0,0,0,
,-0.044,1.324,0.355,-26.734,133.667,-125.123,0,0,0,
,0.253,1.372,0.303,13.366,80.993,65.002,0,0,0,
,0.147,1.274,0.242,30.334,17.761,324.89,0,0,0,
,-0.043,1.265,0.159,-790.345,-9.156,857.116,0,0,0,
,-0.216,1.142,0.191,-259.339,-39.978,886.23,0,0,0,
,-0.298,0.909,0.383,295.288,16.296,846.435,0,0,0,
,-0.144,0.442,0.238,735.046,56.884,659.301,0,0,0,
,-0.108,0.102,0.448,532.531,55.908,496.276,0,0,0,
,0.005,0.035,0.304,171.63,52.551,-190.308,0,0,0,
,0.088,0.273,0.473,-115.723,64.819,-396.241,0,0,0,
,0.047,0.64,0.519,-242.981,-56.702,-433.594,0,0,0,
,-0.13,0.842,0.37,-411.255,-155.518,-469.91,0,0,0,
,-0.325,0.896,0.288,132.812,-63.172,-589.6,0,0,0,
,-0.163,0.792,0.399,300.171,143.798,-749.512,0,0,0,
,-0.159,0.954,0.505,179.443,155.7,-697.815,0,0,0,
,-0.103,1.293,0.661,-247.498,115.6,-675.66,0,0,0,
,-0.203,1.151,0.331,169.738,129.455,-656.25,0,0,0,
,0.178,1.347,0.492,-1135.01,61.218,-574.83,0,0,0,
,0.085,1.454,0.23,-1252.381,-119.69,-304.932,0,0,0,
,-0.219,1.703,0.106,-804.444,-73.914,-168.824,0,0,0,
,0.195,1.658,0.022,-223.328,76.965,34.118,0,0,0,
,0.139,1.295,0.025,341.919,107.666,195.678,0,0,0,
,0.067,1.198,0.092,29.663,158.142,395.63,0,0,0,
,0.029,1.365,0.182,-224.244,135.62,539.489,0,0,0,
,-0.079,1.275,0.171,-237.183,129.333,629.272,0,0,0,
,-0.115,1.012,0.344,-133.362,86.853,678.772,0,0,0,
,-0.164,0.837,0.208,-107.117,82.336,718.017,0,0,0,
,-0.152,0.785,0.199,40.1,74.462,657.043,0,0,0,
,-0.111,0.624,0.235,144.226,102.417,578.979,0,0,0,
,0.032,0.436,0.432,276.672,94.787,428.833,0,0,0,
,0.034,0.266,0.411,473.388,98.938,292.236,0,0,0,
,0.036,0.145,0.403,628.723,128.112,68.786,0,0,0,
,0.045,0.124,0.377,623.047,115.905,-144.349,0,0,0,
,0.026,0.287,0.434,-147.461,14.587,-234.864,0,0,0,
,-0.042,0.579,0.406,-650.452,-130.616,-366.517,0,0,0,
,-0.199,0.764,0.308,-616.639,-130.982,-462.647,0,0,0,
,-0.219,0.876,0.298,-239.93,-88.44,-580.933,0,0,0,
,0.01,1.076,0.285,42.114,-47.669,-637.513,0,0,0,
,-0.05,1.354,0.231,9.643,-38.941,-420.35,0,0,0,
,-0.2,1.022,0.172,565.796,3.723,-470.581,0,0,0,
,-0.17,1.145,0.279,226.989,118.774,-412.964,0,0,0,
,0.308,1.295,0.33,-442.261,6.469,-327.515,0,0,0,
,-0.05,1.377,0.074,-366.272,-92.347,-40.162,0,0,0,
,0.18,1.351,0.097,104.553,100.891,117.859,0,0,0,
,0.136,1.187,0.185,290.771,90.454,286.865,0,0,0,
,0.103,1.244,0.199,-13.062,111.572,462.097,0,0,0,
,0.057,1.294,0.057,-303.162,94.665,630.981,0,0,0,
,-0.071,1.245,0.16,-329.163,58.471,756.53,0,0,0,
,-0.11,1.085,0.253,149.292,48.034,789.001,0,0,0,
,-0.14,0.927,0.096,325.622,96.069,821.899,0,0,0,
,-0.031,0.692,0.438,1007.019,62.072,631.164,0,0,0,
,-0.069,0.321,0.36,1311.401,102.234,583.679,0,0,0,
,0.004,-0.079,0.539,1148.925,67.504,239.99,0,0,0,
,0.054,-0.216,0.386,736.511,67.565,69.458,0,0,0,
,-0.04,-0.055,0.177,302.002,54.992,-119.935,0,0,0,
,0.022,0.969,0.635,-532.654,-146.668,-440.491,0,0,0,
,-0.189,1.151,0.314,-361.634,-252.625,-362.793,0,0,0,
,-0.342,1.058,0.234,-161.744,-165.345,-414.124,0,0,0,
,-0.293,0.94,0.43,175.109,-46.998,-500.123,0,0,0,
,-0.129,0.968,0.518,-51.148,5.676,-551.087,0,0,0,
,-0.033,1.185,0.523,-409.974,-61.097,-457.703,0,0,0,
,-0.17,1.37,0.431,-329.529,-51.697,-399.72,0,0,0,
,-0.082,1.318,0.399,-202.454,-14.771,-349.976,0,0,0,
,-0.114,1.318,0.337,91.796,13.549,-276.123,0,0,0,
,-0.089,1.339,0.309,131.591,79.223,-218.873,0,0,0,
,0.066,1.337,0.328,-108.887,123.901,-98.206,0,0,0,
,0.088,1.256,0.033,-484.742,124.023,482.055,0,0,0,
,-0.013,1.291,0.087,-651.978,118.774,675.415,0,0,0,
,-0.143,1.185,0.226,-383.362,106.689,769.165,0,0,0,
,-0.204,0.944,0.265,357.605,79.834,759.46,0,0,0,
,-0.292,0.601,0.494,936.767,75.195,632.873,0,0,0,
,-0.037,-0.204,0.424,519.165,48.889,-60.425,0,0,0,
,-0.106,0.08,0.187,-145.02,59.753,-211.487,0,0,0,
,-0.026,0.378,0.341,-559.51,37.841,-418.213,0,0,0,
,0.13,0.802,0.632,-342.408,-80.811,-485.901,0,0,0,
,0.049,0.997,0.379,-5.005,-151.246,-406.189,0,0,0,
,-0.094,0.798,0.255,331.604,-104.004,-481.568,0,0,0,
,-0.339,0.664,0.126,886.23,36.743,-669.129,0,0,0,
,0.165,0.746,0.816,-1483.277,57.373,-528.87,0,0,0,
,0.144,1.329,0.489,-1208.191,-257.386,-495.301,0,0,0,
,-0.481,1.393,0.099,-58.167,-152.222,-444.031,0,0,0,
,-0.324,1.306,0.374,926.513,225.586,-617.676,0,0,0,
,0.212,1.194,0.692,594.238,204.345,-591.492,0,0,0,
,0.324,1.222,0.482,-241.211,-6.714,-272.034,0,0,0,
,-0.171,1.448,0.164,-236.329,-90.027,-45.533,0,0,0,
,-0.11,1.428,0.132,19.165,87.158,-70.008,0,0,0,
,0.3,1.227,0.187,-189.393,140.625,106.018,0,0,0,
,0.218,1.062,0.213,-177.247,22.888,293.701,0,0,0,
,-0.056,1.129,0.116,-330.933,57.128,499.145,0,0,0,
,0.024,1.182,0.172,-421.387,84.289,550.415,0,0,0,
,-0.054,1.143,0.151,-450.623,48.706,686.34,0,0,0,
,-0.183,1.074,0.291,-286.316,17.7,728.759,0,0,0,
,-0.195,0.86,0.301,87.219,54.626,718.567,0,0,0,
,-0.178,0.552,0.278,510.986,43.212,569.091,0,0,0,
,-0.132,0.297,0.371,530.334,39.367,428.772,0,0,0,
,-0.137,0.157,0.353,508.972,66.04,214.782,0,0,0,
,0.002,0.168,0.531,590.637,77.331,-57.312,0,0,0,
,-0.019,0.202,0.401,263.61,81.787,-172.974,0,0,0,
,0.034,0.437,0.438,-310.669,-21.119,-292.237,0,0,0,
,-0.079,0.8,0.379,-308.228,-108.643,-325.806,0,0,0,
,-0.174,1.006,0.298,-97.474,-107.239,-372.986,0,0,0,
,-0.098,0.974,0.234,347.717,-73.121,-445.435,0,0,0,
,-0.152,0.902,0.381,588.989,15.502,-509.644,0,0,0,
,-0.136,0.84,0.611,-159.668,34.851,-511.719,0,0,0,
,0.183,1.3,0.592,-849.122,-91.614,-413.575,0,0,0,
,-0.243,1.423,0.157,-168.946,-108.155,-305.237,0,0,0,
,-0.237,1.239,0.284,443.054,85.51,-366.639,0,0,0,
,0.072,1.142,0.421,734.314,108.581,-363.221,0,0,0,
,-0.064,0.967,0.494,592.773,59.143,-306.763,0,0,0,
,-0.064,0.859,0.406,266.418,88.378,-307.923,0,0,0,
,-0.028,0.906,0.367,-33.02,67.077,-239.685,0,0,0,
,0.074,1.17,0.396,-348.511,29.968,-122.193,0,0,0,
,0.055,1.32,0.258,-285.95,8.056,37.353,0,0,0,
,0.095,1.363,0.206,17.395,34.484,184.021,0,0,0,
,0.119,1.22,0.32,371.582,40.1,321.899,0,0,0,
,0.033,1.048,0.284,160.156,34.057,487.548,0,0,0,
,-0.027,0.98,0.251,-282.471,2.136,595.337,0,0,0,
,-0.102,0.953,0.289,-339.173,-25.818,642.395,0,0,0,
,-0.198,0.82,0.406,52.673,-45.044,611.938,0,0,0,
,-0.187,0.533,0.317,516.784,-13.916,486.511,0,0,0,
,-0.13,0.235,0.521,802.673,-14.832,253.296,0,0,0,
,-0.041,0.083,0.405,641.052,50.109,107.422,0,0,0,
,0.07,0.162,0.441,268.676,54.931,-85.999,0,0,0,
,0.047,0.338,0.434,-210.144,31.005,-188.965,0,0,0,
,0.07,0.618,0.473,-505.982,-59.144,-268.982,0,0,0,
,-0.001,0.926,0.416,-373.902,-157.959,-277.1,0,0,0,
,-0.138,0.879,0.349,162.475,-151.917,-327.027,0,0,0,
,-0.201,0.771,0.463,458.557,-38.147,-421.936,0,0,0,
,-0.093,0.817,0.609,145.63,26.489,-502.137,0,0,0,
,0.054,1.109,0.719,-567.261,-58.838,-433.96,0,0,0,
,-0.084,1.338,0.424,-349.122,-91.492,-392.762,0,0,0,
,-0.258,1.022,0.327,428.772,38.269,-468.567,0,0,0,
,-0.27,0.81,0.688,447.937,200.073,-514.222,0,0,0,
,0.376,1.114,0.641,-136.841,89.599,-425.843,0,0,0,
,-0.065,1.321,0.416,-24.414,-24.048,-190.613,0,0,0,
,-0.11,1.191,0.313,42.724,45.471,-174.378,0,0,0,
,0.151,1.151,0.365,-108.277,38.208,-87.586,0,0,0,
,0.159,1.123,0.311,-374.268,-21.729,117.126,0,0,0,
,0.127,1.169,0.298,-340.943,-40.833,289.123,0,0,0,
,0.093,1.138,0.258,-51.087,-10.865,431.457,0,0,0,
,0.054,1.017,0.239,-229.126,9.826,576.599,0,0,0,
,-0.042,1.055,0.244,-458.13,44.128,677.795,0,0,0,
,-0.058,1.094,0.427,-287.659,31.372,685.302,0,0,0,
,-0.077,0.858,0.348,34.79,73.425,688.903,0,0,0,
,-0.03,0.633,0.432,366.76,31.677,565.979,0,0,0,
,-0.036,0.499,0.305,337.768,49.987,536.804,0,0,0,
,-0.023,0.369,0.431,255.676,49.682,375.427,0,0,0,
,-0.066,0.294,0.325,233.337,79.04,259.46,0,0,0,
,-0.181,0.255,0.404,378.967,20.446,66.223,0,0,0,
,-0.36,0.249,0.435,399.292,-15.503,-88.746,0,0,0,
,-0.387,0.338,0.471,158.752,-29.847,-247.925,0,0,0,
,-0.286,0.687,0.642,-136.841,-25.818,-346.253,0,0,0,
,-0.071,1.143,0.729,-341.553,-61.768,-398.072,0,0,0,
,-0.137,1.288,0.554,-110.108,-92.102,-396.851,0,0,0,
,-0.244,0.947,0.409,202.331,-10.865,-412.354,0,0,0,
,-0.239,0.811,0.388,545.898,93.994,-486.695,0,0,0,
,-0.054,0.963,0.601,-350.769,82.946,-373.108,0,0,0,
,0.093,1.523,0.481,-473.206,-53.223,-357.3,0,0,0,
,-0.295,1.404,0.393,-0.489,9.155,-227.234,0,0,0,
,-0.161,1.132,0.505,37.902,104.004,-214.295,0,0,0,
,0.009,1.086,0.435,35.095,56.335,-127.442,0,0,0,
,-0.016,1.212,0.345,43.151,42.175,14.77,0,0,0,
,0.077,1.167,0.29,-93.14,49.682,161.438,0,0,0,
,0.094,1.063,0.351,-94.544,15.38,283.752,0,0,0,
,-0.003,1.04,0.299,33.081,27.648,398.071,0,0,0,
,-0.072,1.056,0.308,-68.116,15.319,540.405,0,0,0,
,-0.063,1.107,0.278,-3.113,-19.104,638.733,0,0,0,
,-0.148,1.057,0.241,166.137,-51.575,719.909,0,0,0,
,-0.174,0.718,0.47,578.796,-57.74,658.264,0,0,0,
,-0.231,0.337,0.309,726.013,-4.395,593.872,0,0,0,
,-0.237,0.017,0.571,819.702,-54.078,334.472,0,0,0,
,-0.213,-0.253,0.517,1013.244,51.025,-5.433,0,0,0,
,-0.187,-0.228,0.264,541.504,91.796,-147.95,0,0,0,
,-0.051,0.089,0.359,-120.667,91.857,-396.058,0,0,0,
,0.069,0.413,0.463,-191.895,33.264,-571.228,0,0,0,
,0.037,0.646,0.514,-586.243,-52.735,-593.323,0,0,0,
,0.051,0.973,0.549,-1086.731,-219.605,-559.754,0,0,0,
,-0.126,1.28,0.394,-818.482,-230.835,-541.81,0,0,0,
,-0.318,1.319,0.429,-15.381,-10.071,-510.56,0,0,0,
,-0.194,1.167,0.723,41.381,154.113,-433.472,0,0,0,
,-0.006,1.31,0.768,-402.1,50.903,-359.009,0,0,0,
,-0.159,1.362,0.47,-129.029,43.701,-291.81,0,0,0,
,-0.299,1.169,0.563,-311.219,108.52,-170.594,0,0,0,
,0.066,1.15,0.472,-558.777,54.565,-189.331,0,0,0,
,0.011,1.052,0.274,-505.005,15.014,-45.777,0,0,0,
,0.024,0.94,0.239,-555.664,12.695,-43.457,0,0,0,
,0.185,0.87,0.25,-640.931,17.517,8.911,0,0,0,
,0.206,0.76,0.195,-817.994,-25.818,57.19,0,0,0,
,0.146,0.723,0.185,-1049.744,-36.499,85.937,0,0,0,
,0.072,0.746,0.225,-1371.644,-64.148,136.108,0,0,0,
,0.045,0.753,0.2,-1513.123,-73.792,153.137,0,0,0,
,0.052,0.929,0.229,-1550.599,-117.554,228.881,0,0,0,
,0.063,1.017,0.186,-1508.973,-141.907,271.911,0,0,0,
,0.044,1.001,0.033,-1466.675,-169.068,307.251,0,0,0,
,-0.064,1.071,0.028,-1468.201,-187.867,343.444,0,0,0,
,-0.166,1.045,0.04,-1383.423,-225.953,309.875,0,0,0,
,-0.22,0.967,0.025,-1230.164,-235.23,300.171,0,0,0,
,-0.212,0.886,-0.133,-1039.551,-237.977,257.69,0,0,0,
,-0.258,0.871,-0.239,-804.871,-250.794,190.429,0,0,0,
,-0.323,1.002,-0.482,-501.282,-262.757,155.639,0,0,0,
,-0.399,1.041,-0.492,-96.375,-224.06,27.16,0,0,0,
,-0.432,0.959,-0.527,404.48,-141.663,1.648,0,0,0,
,-0.401,0.877,-0.535,744.995,-46.326,-23.804,0,0,0,
,-0.345,0.793,-0.409,884.582,77.636,-15.015,0,0,0,
,-0.28,0.662,-0.363,723.144,68.298,-80.933,0,0,0,
,-0.298,0.689,-0.249,616.027,30.273,-132.752,0,0,0,
,-0.336,0.852,-0.298,447.326,32.226,-134.461,0,0,0,
,-0.314,0.939,-0.353,180.908,97.839,-143.982,0,0,0,
,-0.211,0.899,-0.427,-85.45,126.098,-124.756,0,0,0,
,-0.152,0.879,-0.243,-232.911,98.51,-68.482,0,0,0,
,-0.21,0.876,-0.407,-219.3,117.675,-59.327,0,0,0,
,-0.273,0.988,-0.169,-82.947,104.614,-68.909,0,0,0,
,-0.271,0.996,-0.078,185.485,94.787,-31.556,0,0,0,
,-0.257,0.919,-0.204,353.698,79.895,-6.897,0,0,0,
,-0.219,0.834,-0.087,326.294,85.998,-38.208,0,0,0,
,-0.163,0.835,-0.113,183.532,39.611,-35.096,0,0,0,
,-0.144,1.04,-0.262,20.507,6.103,-33.814,0,0,0,
,-0.168,1.149,-0.285,57.19,44.067,-53.04,0,0,0,
,-0.066,1.142,-0.168,156.982,104.309,-52.857,0,0,0,
,-0.07,1.059,-0.178,184.265,101.684,-17.456,0,0,0,
,-0.041,1.057,-0.092,22.399,125.366,-18.128,0,0,0,
,0.028,1.065,-0.107,-125.306,130.981,8.667,0,0,0,
,0.002,1.053,-0.083,-110.596,131.225,28.93,0,0,0,
,0.016,1.067,-0.049,12.573,141.723,43.518,0,0,0,
,0.037,1.099,-0.06,215.149,131.836,49.255,0,0,0,
,-0.036,1.046,-0.044,452.514,154.297,46.386,0,0,0,
,-0.148,0.861,-0.055,605.896,177.002,21.301,0,0,0,
,-0.18,0.818,0.019,685.302,150.085,-15.931,0,0,0,
,-0.195,0.803,-0.006,716.858,98.327,-66.346,0,0,0,
,-0.275,0.824,-0.123,693.115,83.435,-116.822,0,0,0,
,-0.367,0.858,0.07,666.015,73.12,-158.509,0,0,0,
,-0.313,0.838,0.132,655.151,63.415,-146.973,0,0,0,
,-0.266,0.807,0.11,508.85,11.657,-154.419,0,0,0,
,-0.248,0.883,0.173,388.427,-1.709,-151.001,0,0,0,
,-0.224,0.918,0.053,279.968,-12.452,-162.415,0,0,0,
,-0.211,0.948,0.02,137.451,-22.828,-158.326,0,0,0,
,-0.196,0.985,0.053,14.343,-36.011,-148.865,0,0,0,
,-0.197,0.98,0.114,37.597,-32.288,-155.335,0,0,0,
,-0.19,0.891,0.099,87.341,-24.353,-153.809,0,0,0,
,-0.174,0.867,0.002,123.84,-12.818,-193.97,0,0,0,
,-0.134,0.959,-0.098,34.851,10.986,-193.726,0,0,0,
,-0.069,1.076,-0.051,-62.684,53.344,-188.782,0,0,0,
,-0.018,1.083,0.065,-119.019,85.693,-145.02,0,0,0,
,-0.022,1.017,0.094,-122.742,83.496,-75.684,0,0,0,
,-0.098,1.033,0.15,-159.607,41.565,-32.471,0,0,0,
,-0.172,1.002,0.039,-223.206,29.48,-5.799,0,0,0,
,-0.171,0.981,0.09,-259.827,55.053,-18.372,0,0,0,
,-0.13,0.946,0.142,-269.41,46.02,-33.204,0,0,0,
,-0.083,0.953,0.145,-222.168,14.709,-75.867,0,0,0,
,-0.116,0.933,0.167,-125.245,-2.686,-117.31,0,0,0,
,-0.087,0.989,0.203,-71.656,20.141,-139.161,0,0,0,
,-0.11,0.959,0.121,-86.06,16.845,-164.368,0,0,0,
,-0.097,1.058,0.103,-226.441,0.671,-179.81,0,0,0,
,-0.028,1.221,0.129,-333.802,-12.146,-173.218,0,0,0,
,0.006,1.401,0.042,-279.053,-5.616,-100.159,0,0,0,
,0.005,1.287,-0.121,34.118,52.612,55.664,0,0,0,
,0.062,1.04,-0.031,408.508,123.108,164.978,0,0,0,
,0.069,1,-0.054,444.519,116.882,234.924,0,0,0,
,0.001,1.141,-0.093,163.025,85.327,350.463,0,0,0,
,-0.061,1.153,-0.21,-121.582,83.74,474.121,0,0,0,
,-0.088,1.155,-0.013,-74.158,40.893,517.761,0,0,0,
,-0.132,0.973,-0.04,178.466,65.185,570.495,0,0,0,
,-0.167,0.77,0.022,557.8,76.843,481.994,0,0,0,
,-0.216,0.517,0.063,721.313,108.764,395.019,0,0,0,
,-0.19,0.371,0.188,1003.54,185.913,177.307,0,0,0,
,-0.103,0.323,0.297,1090.026,241.455,9.826,0,0,0,
,-0.026,0.322,0.267,551.88,231.384,-123.475,0,0,0,
,0.072,0.402,0.312,-428.589,109.985,-259.888,0,0,0,
,0.021,0.704,0.172,-1117.615,-129.456,-319.153,0,0,0,
,-0.164,0.926,0.212,-1155.396,-245.545,-377.625,0,0,0,
,-0.247,1.04,-0.022,-669.983,-211.792,-379.639,0,0,0,
,-0.264,1.166,0.206,79.65,-105.53,-437.989,0,0,0,
,-0.132,1.208,0.166,606.079,-19.959,-406.495,0,0,0,
