TIMECODE,ACC_X,ACC_Y,ACC_Z,GYR_X,GYR_Y,GYR_Z,TAG
00:00:00:0,-0.08,0.078,1.011,124.389,9.582,45.349,
00:00:00:16,-0.068,-0.09,1.095,244.079,66.589,-17.762,
00:00:00:33,-0.016,0.019,1.04,197.326,129.211,-68.116,
00:00:00:50,-0.143,-0.061,0.858,165.71,172.607,-86.609,
00:00:00:66,-0.262,-0.146,0.864,339.111,258.545,42.053,
00:00:00:83,-0.004,-0.265,1.138,534.973,228.393,-40.162,
00:00:00:100,0.262,-0.391,1.177,407.287,54.565,-47.547,
00:00:00:116,-0.082,-0.261,0.88,170.959,-144.349,9.094,
00:00:00:133,-0.176,-0.173,0.848,4.821,-3.785,-3.052,
00:00:00:150,-0.01,-0.262,0.958,55.725,47.485,31.433,
00:00:00:166,0.013,-0.41,1.02,62.988,11.962,-2.381,
00:00:00:183,-0.053,-0.287,0.992,-28.138,3.356,-8.851,
00:00:00:200,-0.057,-0.206,0.968,-68.848,14.465,-46.448,
00:00:00:216,-0.056,-0.181,0.988,-63.233,14.16,-31.25,
00:00:00:233,-0.039,-0.192,1.003,-46.265,15.625,-24.414,
00:00:00:250,-0.033,-0.193,0.968,-18.921,8.422,-22.095,
00:00:00:266,-0.041,-0.195,0.993,-1.343,8.239,-22.095,
00:00:00:283,-0.043,-0.205,0.992,2.319,2.624,-20.569,
00:00:00:300,-0.046,-0.217,0.992,-6.409,2.197,-22.522,
00:00:00:316,-0.046,-0.219,0.994,-12.452,4.089,-28.626,
00:00:00:333,-0.041,-0.2,0.984,-6.409,6.408,-26.001,
00:00:00:350,-0.044,-0.202,0.989,0.183,5.31,-23.743,
00:00:00:366,-0.045,-0.21,0.99,8.728,4.394,-25.086,
00:00:00:383,-0.048,-0.205,0.989,12.085,8.667,-25.696,
00:00:00:400,-0.038,-0.208,0.98,15.441,12.329,-23.255,
00:00:00:416,-0.027,-0.193,0.993,27.099,13.122,-24.353,
00:00:00:433,-0.028,-0.194,0.994,30.029,5.432,-16.175,
00:00:00:450,-0.024,-0.238,1.003,5.981,5.615,-15.137,
00:00:00:466,-0.047,-0.202,0.994,-3.785,1.403,-10.498,
00:00:00:483,-0.074,-0.202,0.982,11.413,1.586,-16.48,
00:00:00:500,-0.051,-0.216,0.977,19.714,12.085,-23.682,
00:00:00:516,-0.05,-0.208,0.984,33.813,10.192,-25.269,
00:00:00:533,-0.049,-0.219,0.988,31.921,11.413,-24.109,
00:00:00:550,-0.053,-0.219,0.996,18.432,11.169,-28.199,
00:00:00:566,-0.059,-0.226,0.994,7.08,13.183,-31.434,
00:00:00:583,-0.045,-0.2,0.984,10.253,24.719,-29.297,
00:00:00:600,-0.039,-0.19,0.97,40.771,28.198,-36.805,
00:00:00:616,-0.035,-0.193,0.981,70.19,29.113,-41.871,
00:00:00:633,-0.017,-0.195,0.969,91.125,15.808,-35.828,
00:00:00:650,-0.019,-0.234,1.005,93.994,-5.005,-35.401,
00:00:00:666,-0.043,-0.208,0.974,103.637,-4.334,-21.18,
00:00:00:683,-0.052,-0.25,0.907,140.136,-13.245,-49.988,
00:00:00:700,-0.027,-0.341,0.988,55.786,-36.255,-31.861,
00:00:00:716,-0.034,-0.362,0.98,-39.673,-43.213,-63.05,
00:00:00:733,-0.012,-0.286,1.022,-120.789,-61.768,-43.519,
00:00:00:750,-0.014,-0.227,1.003,-131.226,-103.821,-18.494,
00:00:00:766,-0.06,-0.218,0.967,-105.103,-119.629,6.042,
00:00:00:783,-0.111,-0.183,0.995,-84.9,-82.825,-10.865,
00:00:00:800,-0.064,-0.2,0.992,-58.106,-70.008,-7.081,
00:00:00:816,-0.092,-0.191,0.985,-67.566,-49.622,-16.663,
00:00:00:833,-0.088,-0.275,0.962,-118.958,-17.762,-48.645,
00:00:00:850,-0.08,-0.25,1,-181.824,1.037,-41.565,
00:00:00:866,-0.086,-0.229,1.003,-196.656,15.38,-47.425,
00:00:00:883,-0.08,-0.188,0.992,-215.088,22.461,-46.753,
00:00:00:900,-0.072,-0.175,0.994,-190.979,16.235,-34.485,
00:00:00:916,-0.079,-0.207,1.04,-185.791,36.377,-29.786,
00:00:00:933,0.045,-0.135,1.178,-90.332,47.851,2.746,
00:00:00:950,-0.011,-0.241,1.079,-91.675,52.551,-82.032,
00:00:00:966,-0.236,-0.17,0.85,-277.1,72.876,-36.927,
00:00:00:983,-0.137,0.132,0.878,-265.748,163.025,24.475,
00:00:01:0,0.021,0.062,0.9,44.982,95.825,54.931,
00:00:01:16,0.041,-0.184,1.253,35.095,-46.875,-1.16,
00:00:01:33,-0.072,-0.241,1.167,-121.766,-97.535,-26.49,
00:00:01:50,0.038,-0.013,0.91,-227.478,-69.703,-120.118,
00:00:01:66,-0.115,-0.061,0.728,-59.082,-39.612,-73.365,
00:00:01:83,-0.098,-0.147,0.614,113.647,45.776,-72.998,
00:00:01:100,-0.101,-0.131,0.64,298.584,106.079,-56.519,
00:00:01:116,-0.163,-0.34,1.432,200.012,112.487,-61.951,
00:00:01:133,0.061,-0.33,1.615,48.339,61.645,-18.311,
00:00:01:150,0.088,-0.107,0.937,-90.088,-101.136,-9.095,
00:00:01:166,-0.198,-0.258,1.04,-122.925,-162.903,92.651,
00:00:01:183,-0.032,-0.253,1.016,-145.386,-98.328,25.268,
00:00:01:200,-0.171,-0.068,0.839,-144.349,-30.396,6.225,
00:00:01:216,-0.144,-0.033,0.911,-26.246,79.345,-0.245,
00:00:01:233,-0.052,0.047,1.016,105.835,127.075,7.385,
00:00:01:250,0.062,-0.103,1.159,-12.574,70.312,-63.233,
00:00:01:266,0,-0.141,1.071,-30.823,-34.302,-48.645,
00:00:01:283,0.002,-0.049,0.978,-137.94,-39.307,-78.431,
00:00:01:300,-0.023,-0.116,1.064,21.057,-0.061,-122.864,
00:00:01:316,-0.027,0.028,1.079,65.673,52.246,-127.076,
00:00:01:333,-0.186,0.051,0.856,238.403,94.97,-46.265,
00:00:01:350,-0.176,-0.238,0.759,302.673,133.178,65.795,
00:00:01:366,0.096,-0.252,0.893,205.932,96.435,150.085,
00:00:01:383,-0.086,-0.195,1.504,216.064,-69.275,43.457,
00:00:01:400,-0.109,-0.241,0.946,137.634,-60.852,70.434,
00:00:01:416,-0.036,-0.215,0.762,64.148,-36.622,33.996,
00:00:01:433,-0.075,-0.215,0.778,0.305,14.404,1.159,
00:00:01:450,-0.033,-0.202,0.86,-35.767,73.303,-11.902,
00:00:01:466,-0.143,-0.103,1.111,-2.808,64.025,31.25,
00:00:01:483,0.029,-0.166,1.17,33.874,78.796,-12.33,
00:00:01:500,0.048,-0.147,0.975,-28.016,8.606,-9.705,
00:00:01:516,-0.118,-0.103,0.983,15.808,-7.081,-32.959,
00:00:01:533,-0.058,-0.127,1.002,72.265,33.325,-21.485,
00:00:01:550,-0.034,-0.153,1.007,92.834,11.108,-13.245,
00:00:01:566,-0.07,-0.187,1.002,96.496,2.624,-5.982,
00:00:01:583,-0.063,-0.197,0.996,88.745,14.038,-14.832,
00:00:01:600,-0.043,-0.214,0.99,77.819,18.554,-23.621,
00:00:01:616,-0.045,-0.214,0.996,70.19,24.231,-30.823,
00:00:01:633,-0.037,-0.207,0.985,54.931,22.766,-35.889,
00:00:01:650,-0.051,-0.189,1,51.391,25.634,-41.138,
00:00:01:666,-0.048,-0.179,0.999,43.945,16.54,-39.246,
00:00:01:683,-0.049,-0.191,0.993,62.866,15.686,-42.115,
00:00:01:700,-0.046,-0.206,0.986,57.128,12.451,-34.974,
00:00:01:716,-0.046,-0.204,0.998,34.545,10.803,-38.758,
00:00:01:733,-0.047,-0.202,0.996,26.733,12.39,-43.213,
00:00:01:750,-0.043,-0.203,0.984,24.902,10.925,-45.594,
00:00:01:766,-0.045,-0.219,0.983,37.231,14.282,-47.974,
00:00:01:783,-0.044,-0.184,0.986,47.79,14.282,-40.711,
00:00:01:800,-0.044,-0.2,0.995,52.429,10.192,-30.64,
00:00:01:816,-0.054,-0.201,0.982,52.978,7.568,-21.546,
00:00:01:833,-0.055,-0.221,0.993,53.161,11.474,-24.292,
00:00:01:850,-0.045,-0.234,0.993,29.968,11.718,-21.302,
00:00:01:866,-0.04,-0.235,0.991,12.146,10.498,-25.086,
00:00:01:883,-0.038,-0.231,0.989,-5.555,13.122,-28.382,
00:00:01:900,-0.042,-0.212,0.987,-13.306,11.047,-32.41,
00:00:01:916,-0.045,-0.2,0.987,-13.489,9.948,-32.349,
00:00:01:933,-0.045,-0.197,0.991,-11.719,6.652,-32.532,
00:00:01:950,-0.046,-0.208,0.991,-5.372,7.202,-29.358,
00:00:01:966,-0.045,-0.215,0.992,-9.522,7.934,-33.448,
00:00:01:983,-0.048,-0.2,0.988,-10.376,8.667,-36.56,
00:00:02:0,-0.047,-0.198,0.99,-1.099,9.094,-30.701,
00:00:02:16,-0.042,-0.202,0.989,7.141,9.704,-27.039,
00:00:02:33,-0.045,-0.205,0.989,11.474,10.803,-27.1,
00:00:02:50,-0.042,-0.215,0.988,-0.855,8.483,-27.894,
00:00:02:66,-0.047,-0.205,0.992,-9.705,8.117,-28.138,
00:00:02:83,-0.05,-0.198,0.987,1.648,8.911,-26.368,
00:00:02:100,-0.044,-0.207,0.989,4.089,8.3,-23.072,
00:00:02:116,-0.045,-0.207,0.991,8.3,9.033,-24.781,
00:00:02:133,-0.045,-0.198,0.986,12.085,8.239,-24.109,
00:00:02:150,-0.046,-0.201,0.989,14.648,8.972,-23.499,
00:00:02:166,-0.041,-0.207,0.99,12.39,8.728,-20.997,
00:00:02:183,-0.044,-0.209,0.99,2.99,7.751,-22.339,
00:00:02:200,-0.047,-0.208,0.99,2.014,9.155,-24.964,
00:00:02:216,-0.044,-0.205,0.989,5.004,7.629,-21.729,
00:00:02:233,-0.048,-0.205,0.987,9.338,8.178,-20.691,
00:00:02:250,-0.052,-0.201,0.986,14.16,8.667,-20.386,
00:00:02:266,-0.048,-0.201,0.99,18.188,11.718,-22.461,
00:00:02:283,-0.041,-0.198,0.988,23.132,11.596,-17.212,
00:00:02:300,-0.04,-0.211,0.991,24.536,10.131,-18.25,
00:00:02:316,-0.038,-0.213,0.991,14.77,8.3,-16.053,
00:00:02:333,-0.048,-0.214,0.988,8.789,7.446,-17.456,
00:00:02:350,-0.047,-0.217,0.989,3.479,8.239,-18.006,
00:00:02:366,-0.046,-0.216,0.989,-0.733,9.155,-20.203,
00:00:02:383,-0.042,-0.216,0.991,-7.264,7.08,-20.752,
00:00:02:400,-0.043,-0.204,0.99,-4.944,6.713,-22.339,
00:00:02:416,-0.044,-0.199,0.994,-0.245,9.338,-22.95,
00:00:02:433,-0.041,-0.2,0.993,4.76,8.056,-21.18,
00:00:02:450,-0.043,-0.211,0.991,5.554,5.615,-20.386,
00:00:02:466,-0.044,-0.211,0.983,4.882,4.943,-22.339,
00:00:02:483,-0.05,-0.207,0.99,2.685,7.446,-22.522,
00:00:02:500,-0.048,-0.204,0.99,6.836,7.934,-22.522,
00:00:02:516,-0.045,-0.212,0.995,0.488,5.554,-18.616,
00:00:02:533,-0.046,-0.215,0.993,-0.184,6.042,-20.081,
00:00:02:550,-0.044,-0.213,0.985,-3.418,8.789,-23.194,
00:00:02:566,-0.045,-0.203,0.988,-5.31,9.826,-21.302,
00:00:02:583,-0.042,-0.194,0.991,2.807,7.324,-23.377,
00:00:02:600,-0.048,-0.2,0.991,8.789,7.507,-20.508,
00:00:02:616,-0.047,-0.203,0.987,13.183,6.347,-19.165,
00:00:02:633,-0.05,-0.211,0.99,13.549,8.85,-21.363,
00:00:02:650,-0.04,-0.214,0.988,7.263,8.789,-20.081,
00:00:02:666,-0.045,-0.209,0.986,-3.724,9.887,-24.476,
00:00:02:683,-0.047,-0.2,0.992,-4.578,8.483,-22.889,
00:00:02:700,-0.042,-0.215,0.989,-3.602,6.774,-22.522,
00:00:02:716,-0.046,-0.209,0.983,-5.555,8.239,-23.255,
00:00:02:733,-0.046,-0.202,0.988,1.953,6.286,-22.828,
00:00:02:750,-0.046,-0.2,0.987,7.934,7.08,-22.278,
00:00:02:766,-0.045,-0.198,0.993,10.803,7.873,-20.142,
00:00:02:783,-0.044,-0.21,0.99,13,6.897,-20.508,
00:00:02:800,-0.044,-0.213,0.99,10.07,8.3,-21.485,
00:00:02:816,-0.046,-0.211,0.986,5.004,8.056,-23.621,
00:00:02:833,-0.042,-0.21,0.993,1.037,8.972,-23.987,
00:00:02:850,-0.044,-0.201,0.984,4.272,6.958,-22.644,
00:00:02:866,-0.048,-0.201,0.989,8.789,7.507,-22.339,
00:00:02:883,-0.045,-0.201,0.993,13.732,9.094,-22.583,
00:00:02:900,-0.046,-0.205,0.991,17.395,8.117,-22.278,
00:00:02:916,-0.045,-0.209,0.99,15.991,7.141,-23.377,
00:00:02:933,-0.043,-0.218,0.991,3.479,5.859,-20.813,
00:00:02:950,-0.046,-0.217,0.989,-3.724,8.789,-26.49,
00:00:02:966,-0.043,-0.2,0.987,-10.56,9.826,-24.353,
00:00:02:983,-0.044,-0.208,0.992,-2.198,8.972,-23.804,
00:00:03:0,-0.043,-0.201,0.988,2.624,6.958,-21.729,
00:00:03:16,-0.047,-0.199,0.988,7.629,7.263,-22.461,
00:00:03:33,-0.047,-0.198,0.986,14.587,7.812,-20.691,
00:00:03:50,-0.05,-0.202,0.991,16.418,6.408,-22.156,
00:00:03:66,-0.04,-0.214,0.994,14.16,6.897,-21.424,
00:00:03:83,-0.043,-0.218,0.989,6.042,9.277,-22.522,
00:00:03:100,-0.043,-0.206,0.989,-0.245,7.873,-20.997,
00:00:03:116,-0.048,-0.21,0.99,3.967,7.69,-21.119,
00:00:03:133,-0.047,-0.208,0.991,-2.32,8.422,-19.959,
00:00:03:150,-0.047,-0.2,0.992,-0.367,8.056,-22.767,
00:00:03:166,-0.048,-0.198,0.989,4.516,9.643,-23.316,
00:00:03:183,-0.041,-0.198,0.99,10.62,8.483,-20.935,
00:00:03:200,-0.044,-0.204,0.986,17.395,7.385,-22.278,
00:00:03:216,-0.045,-0.218,0.989,13.61,7.873,-19.41,
00:00:03:233,-0.043,-0.22,0.99,5.554,8.239,-23.072,
00:00:03:250,-0.045,-0.208,0.994,-0.428,4.882,-23.377,
00:00:03:266,-0.046,-0.208,0.988,-3.418,3.54,-24.537,
00:00:03:283,-0.046,-0.196,0.991,-1.648,3.967,-22.156,
00:00:03:300,-0.049,-0.193,0.99,9.643,3.173,-17.823,
00:00:03:316,-0.046,-0.198,0.987,10.131,6.225,-19.715,
00:00:03:333,-0.048,-0.182,0.981,30.578,7.385,-13.855,
00:00:03:350,-0.052,-0.19,0.988,53.222,7.751,-9.034,
00:00:03:366,-0.042,-0.211,0.994,69.58,10.437,-6.226,
00:00:03:383,-0.044,-0.225,0.991,59.936,6.408,-6.104,
00:00:03:400,-0.047,-0.224,0.988,50.354,8.239,-9.583,
00:00:03:416,-0.042,-0.234,0.99,28.503,8.544,-12.207,
00:00:03:433,-0.043,-0.236,0.984,11.779,8.483,-15.992,
00:00:03:450,-0.047,-0.214,0.985,4.943,6.713,-11.048,
00:00:03:466,-0.045,-0.228,0.99,6.713,7.385,-13.306,
00:00:03:483,-0.046,-0.219,0.988,6.713,5.127,-15.992,
00:00:03:500,-0.051,-0.219,0.989,7.202,5.676,-17.518,
00:00:03:516,-0.043,-0.227,0.989,3.234,8.422,-17.884,
00:00:03:533,-0.041,-0.224,0.985,-3.663,7.324,-19.471,
00:00:03:550,-0.044,-0.222,0.986,-4.334,8.911,-20.325,
00:00:03:566,-0.047,-0.214,0.983,-5.31,7.873,-21.119,
00:00:03:583,-0.049,-0.205,0.986,2.563,8.85,-20.508,
00:00:03:600,-0.044,-0.21,0.991,6.897,8.667,-20.447,
00:00:03:616,-0.046,-0.215,0.987,10.131,8.422,-20.935,
00:00:03:633,-0.045,-0.221,0.991,10.315,8.056,-21.546,
00:00:03:650,-0.046,-0.215,0.988,10.131,6.897,-22.4,
00:00:03:666,-0.042,-0.214,0.991,9.46,4.333,-22.583,
00:00:03:683,-0.046,-0.206,0.983,20.507,2.075,-18.982,
00:00:03:700,-0.049,-0.201,0.99,28.015,6.652,-18.921,
00:00:03:716,-0.045,-0.209,0.99,38.94,5.188,-15.625,
00:00:03:733,-0.046,-0.243,0.985,15.564,6.53,-15.381,
00:00:03:750,-0.043,-0.235,0.987,6.469,4.272,-15.87,
00:00:03:766,-0.049,-0.236,0.978,-4.578,5.432,-15.748,
00:00:03:783,-0.047,-0.246,0.988,-15.32,8.422,-19.532,
00:00:03:800,-0.046,-0.222,0.982,-19.776,4.333,-22.522,
00:00:03:816,-0.055,-0.207,0.989,-10.743,6.591,-23.499,
00:00:03:833,-0.047,-0.197,0.986,3.112,8.239,-22.522,
00:00:03:850,-0.048,-0.213,0.987,14.404,8.422,-20.508,
00:00:03:866,-0.045,-0.223,0.983,17.089,6.958,-19.288,
00:00:03:883,-0.05,-0.238,0.979,5.249,7.873,-20.142,
00:00:03:900,-0.048,-0.23,0.986,-5.127,11.047,-23.621,
00:00:03:916,-0.051,-0.215,0.986,-6.958,11.352,-24.414,
00:00:03:933,-0.049,-0.203,0.988,4.516,9.826,-24.17,
00:00:03:950,-0.044,-0.203,0.993,18.188,12.512,-22.95,
00:00:03:966,-0.042,-0.21,0.984,33.63,10.253,-21.18,
00:00:03:983,-0.047,-0.205,0.978,47.485,9.033,-18.128,
00:00:04:0,-0.053,-0.201,0.989,70.434,8.361,-12.879,
00:00:04:16,-0.049,-0.202,0.983,92.956,9.399,-7.142,
00:00:04:33,-0.055,-0.231,0.983,85.022,8.789,10.437,
00:00:04:50,-0.051,-0.232,0.962,78.125,12.695,9.948,
00:00:04:66,-0.065,-0.175,0.977,110.412,12.756,28.808,
00:00:04:83,-0.058,-0.194,0.99,168.579,23.559,34.24,
00:00:04:100,-0.027,-0.221,0.973,192.871,22.888,49.743,
00:00:04:116,-0.031,-0.225,0.98,218.261,9.094,76.904,
00:00:04:133,-0.039,-0.293,0.954,223.755,8.911,80.871,
00:00:04:150,-0.06,-0.274,0.91,213.562,3.356,123.413,
00:00:04:166,-0.102,-0.373,0.923,177.185,42.053,107.422,
00:00:04:183,-0.024,-0.331,1.011,109.924,40.71,139.648,
00:00:04:200,-0.074,-0.324,1.048,37.902,74.951,131.652,
00:00:04:216,0.027,-0.27,1.104,10.315,90.698,152.404,
00:00:04:233,0.031,-0.261,1.133,6.042,71.96,76.416,
00:00:04:250,0.068,-0.277,0.962,26.733,103.088,67.749,
00:00:04:266,0.029,-0.286,0.991,46.142,84.594,23.62,
00:00:04:283,-0.036,-0.391,0.975,18.127,112.487,1.525,
00:00:04:300,-0.092,-0.413,1.015,-61.646,163.391,2.075,
00:00:04:316,-0.104,-0.329,1.086,-83.069,250.183,14.16,
00:00:04:333,-0.119,-0.214,1.253,99.182,362.548,30.944,
00:00:04:350,-0.893,0.834,1.224,572.876,275.39,54.809,
00:00:04:366,-0.969,0.88,1.394,1418.396,521.606,-262.207,
00:00:04:383,-0.05,0.247,1.429,1917.114,363.586,-198.548,
00:00:04:400,0.276,-2.504,1.976,878.784,-372.62,-516.175,
00:00:04:416,1.55,-2.961,1.971,-803.833,-722.718,-8.301,
00:00:04:433,0.64,-1.197,2.288,-588.746,-1422.059,71.106,
00:00:04:450,0.794,-0.874,2.269,355.896,-1972.657,-608.46,
00:00:04:466,0.683,-1.577,2.432,918.762,-2000,-982.972,
00:00:04:483,0.852,-1.783,2.061,384.46,-2000,-1341.248,
00:00:04:500,0.783,-1.413,1.557,-234.436,-2000,-1543.58,
00:00:04:516,0.801,-1.023,0.891,-757.63,-2000,-1660.828,
00:00:04:533,0.616,-0.523,0.285,-965.027,-2000,-1687.439,
00:00:04:550,0.488,-0.252,-0.136,-902.344,-2000,-1637.024,
00:00:04:566,0.379,-0.058,-0.373,-665.955,-2000,-1483.521,
00:00:04:583,0.342,0.297,-0.727,-346.985,-2000,-1352.478,
00:00:04:600,0.009,0.925,-1.219,144.287,-2000,-1241.15,
00:00:04:616,-0.149,1.186,-1.536,476.257,-1542.115,-1069.703,
00:00:04:633,-0.302,1.167,-1.547,165.1,-754.517,-831.604,
00:00:04:650,-0.194,1.495,-1.487,-209.961,-55.97,-382.203,
00:00:04:666,-0.281,1.592,-1.586,-345.826,637.207,122.009,
00:00:04:683,-0.253,1.416,-1.494,-255.982,1326.721,557.19,
00:00:04:700,-0.206,1.143,-1.269,-4.456,1967.163,913.757,
00:00:04:716,-0.14,0.866,-0.956,213.44,1999.694,1195.922,
00:00:04:733,-0.081,0.568,-0.459,462.951,1999.694,1351.379,
00:00:04:750,0.115,0.105,0.061,705.2,1999.694,1374.145,
00:00:04:766,0.468,-0.876,0.314,412.414,1999.694,1408.508,
00:00:04:783,0.255,-0.765,0.408,-353.821,1999.694,1552.002,
00:00:04:800,0.703,-0.362,0.702,-490.54,1999.694,1280.395,
00:00:04:816,1.087,-0.508,1.525,-394.715,1999.694,1021.423,
00:00:04:833,1.167,-1.191,2.395,-972.107,1999.694,790.222,
00:00:04:850,0.943,-0.903,2.794,-1010.56,1882.995,634.155,
00:00:04:866,0.725,-0.736,2.61,-185.12,1276.245,420.715,
00:00:04:883,0.412,-0.658,2.102,483.215,777.893,350.891,
00:00:04:900,0.161,-0.683,1.669,727.844,439.697,250.122,
00:00:04:916,-0.109,-0.506,1.339,816.528,250.793,171.63,
00:00:04:933,-0.172,-0.448,1.226,560.669,185.119,126.159,
00:00:04:950,-0.152,-0.281,1.124,114.318,170.715,164.306,
00:00:04:966,-0.149,-0.066,1.059,-33.081,179.504,160.949,
00:00:04:983,-0.063,-0.22,1.074,43.335,204.651,165.222,
00:00:05:0,0.12,-0.219,0.949,279.174,157.165,189.453,
00:00:05:16,0.12,-0.292,1.448,564.392,8.789,217.285,
00:00:05:33,0.514,-1.78,2.164,456.054,-130.31,25.756,
00:00:05:50,-0.132,-0.692,0.979,326.904,-255.249,-9.095,
00:00:05:66,0.265,-0.472,0.879,25.94,-234.864,14.099,
00:00:05:83,-0.057,-0.424,0.92,3.234,-308.472,-47.486,
00:00:05:100,0.043,-0.438,0.931,-54.444,-233.277,25.146,
00:00:05:116,0.062,-0.541,0.931,-147.522,-247.193,-25.452,
00:00:05:133,-0.042,-0.511,0.857,-437.256,-245.667,-24.17,
00:00:05:150,-0.114,-0.426,1.003,-651.062,-259.644,-18.982,
00:00:05:166,-0.074,-0.458,0.999,-710.572,-233.582,-74.707,
00:00:05:183,0.019,-0.349,1.014,-671.143,-212.403,-48.279,
00:00:05:200,-0.061,-0.056,1.001,-445.557,-198.548,5.554,
00:00:05:216,-0.097,-0.075,0.964,16.052,-111.817,10.376,
00:00:05:233,-0.073,-0.218,1.006,177.429,-64.087,-42.115,
00:00:05:250,-0.028,-0.235,1.028,175.476,-34.729,-59.693,
00:00:05:266,-0.116,-0.206,0.964,109.008,16.479,-45.289,
00:00:05:283,-0.223,-0.184,0.894,-110.779,27.343,-132.63,
00:00:05:300,-0.194,-0.014,1.056,-185.791,66.955,-65.491,
00:00:05:316,-0.019,-0.09,1.029,19.348,126.587,-88.685,
00:00:05:333,-0.038,-0.243,0.979,122.192,74.218,-46.875,
00:00:05:350,-0.051,-0.237,0.985,171.936,51.33,-23.194,
00:00:05:366,-0.02,-0.237,0.963,210.632,24.047,-6.104,
00:00:05:383,-0.021,-0.312,0.965,236.511,-19.471,15.564,
00:00:05:400,-0.038,-0.374,0.939,230.896,-21.119,13,
00:00:05:416,-0.064,-0.376,0.941,186.584,-14.771,14.587,
00:00:05:433,-0.078,-0.369,0.955,117.92,-4.578,16.662,
00:00:05:450,-0.066,-0.385,0.972,61.95,19.958,18.127,
00:00:05:466,-0.039,-0.381,0.976,0.122,44.921,28.198,
00:00:05:483,-0.023,-0.361,0.96,-65.613,44.738,24.414,
00:00:05:500,-0.031,-0.344,0.948,-106.934,42.48,-4.7,
00:00:05:516,-0.034,-0.307,0.96,-125.123,33.325,-25.757,
00:00:05:533,-0.037,-0.308,0.981,-122.864,33.447,-36.072,
00:00:05:550,-0.013,-0.321,0.946,-133.851,38.513,-39.307,
00:00:05:566,-0.035,-0.278,0.979,-126.893,27.648,-26.123,
00:00:05:583,-0.055,-0.281,0.979,-121.766,41.748,-17.334,
00:00:05:600,-0.059,-0.268,0.954,-130.799,50.17,-28.87,
00:00:05:616,-0.043,-0.344,0.959,-164.917,58.349,-50.232,
00:00:05:633,-0.033,-0.306,0.971,-221.253,75.927,-70.862,
00:00:05:650,-0.004,-0.158,1.033,-202.942,51.208,-132.874,
00:00:05:666,0.007,-0.222,0.95,-169.007,46.386,-266.663,
00:00:05:683,0.029,-0.224,0.995,-159.363,-14.405,-436.524,
00:00:05:700,0.069,-0.182,0.823,-129.212,-49.744,-664.673,
00:00:05:716,-0.046,-0.543,1.057,-159.913,-88.868,-957.337,
00:00:05:733,0.002,-0.196,0.978,-58.106,-93.262,-1002.625,
00:00:05:750,0.013,-0.364,0.914,220.764,-27.649,-816.407,
00:00:05:766,0.098,-0.506,0.914,256.103,75.256,-540.467,
00:00:05:783,0.106,-0.321,1.017,128.051,215.637,-356.934,
00:00:05:800,0.051,-0.138,1.005,153.137,287.048,-222.779,
00:00:05:816,-0.087,-0.316,1.074,176.88,273.559,-225.22,
00:00:05:833,-0.015,-0.363,1.023,60.974,266.845,-15.137,
00:00:05:850,-0.11,-0.417,1.145,41.748,103.027,62.194,
00:00:05:866,-0.209,-0.681,1.244,-357.239,80.566,20.446,
00:00:05:883,-0.071,-0.326,1.172,-409.668,52.49,83.129,
00:00:05:900,-0.169,-0.119,1.051,-33.265,-2.015,-18.189,
00:00:05:916,-0.186,-0.21,0.956,167.968,-4.944,-80.628,
00:00:05:933,-0.159,-0.274,0.931,53.039,4.394,-94.361,
00:00:05:950,-0.153,-0.216,0.834,-113.892,23.925,-107.239,
00:00:05:966,-0.171,-0.21,0.839,-212.891,19.531,-117.066,
00:00:05:983,-0.144,-0.076,0.82,-221.436,52.124,-32.41,
00:00:06:0,-0.092,0.02,0.813,-141.236,65.246,-73.731,
00:00:06:16,-0.125,-0.023,0.841,-35.767,80.017,-27.771,
00:00:06:33,-0.061,-0.091,0.885,-146.973,125.427,-12.574,
00:00:06:50,0.01,-0.139,0.888,-341.858,144.104,-38.208,
00:00:06:66,0.026,-0.069,0.915,-510.01,161.316,-32.288,
00:00:06:83,0.031,0.012,0.956,-495.972,165.405,-35.584,
00:00:06:100,0.06,0.013,0.999,-344.971,133.972,-30.762,
00:00:06:116,0.036,-0.018,1.097,-193.787,107.177,-2.137,
00:00:06:133,0.081,-0.003,1.055,-43.274,81.604,39.062,
00:00:06:150,0.106,0.088,1.083,3.112,95.642,97.412,
00:00:06:166,0.173,0.166,1.127,116.088,73.303,150.268,
00:00:06:183,0.21,0.007,1.195,194.03,30.395,146.85,
00:00:06:200,0.272,0.073,1.159,383.484,25.268,116.272,
00:00:06:216,0.276,0.042,1.047,843.567,-32.898,94.543,
00:00:06:233,0.225,-0.274,1.001,1180.359,-87.22,71.167,
00:00:06:250,0.158,-0.295,0.908,1312.194,-63.66,69.519,
00:00:06:266,0.138,-0.294,0.856,1339.843,-26.123,-0.733,
00:00:06:283,0.134,-0.362,0.833,1325.378,-26.49,-60.12,
00:00:06:300,0.173,-0.514,0.857,1301.391,-25.696,-175.477,
00:00:06:316,0.145,-0.81,0.819,1165.588,-73.182,-220.52,
00:00:06:333,0.139,-0.968,0.757,826.049,-79.895,-252.991,
00:00:06:350,0.031,-0.49,0.823,458.557,-135.804,-296.143,
00:00:06:366,0.005,-0.577,0.832,431.579,-121.46,-360.413,
00:00:06:383,-0.143,-0.67,0.775,470.459,-138.184,-328.431,
00:00:06:400,-0.15,-0.769,0.771,155.029,-100.647,-234.375,
00:00:06:416,0.001,-0.743,0.834,-237.732,-77.027,-239.93,
00:00:06:433,-0.103,-0.594,0.958,-385.071,-74.341,-236.206,
00:00:06:450,-0.136,-0.637,0.796,-266.358,-31.006,-224.549,
00:00:06:466,-0.214,-0.678,0.673,-307.435,-10.682,-187.439,
00:00:06:483,-0.207,-0.506,0.709,-450.989,35.888,-123.352,
00:00:06:500,-0.174,-0.371,0.753,-575.318,67.81,-160.584,
00:00:06:516,-0.163,-0.524,0.801,-668.396,66.894,-276.673,
00:00:06:533,-0.18,-0.489,0.907,-654.602,102.111,-269.288,
00:00:06:550,-0.18,-0.488,0.91,-587.891,107.299,-351.563,
00:00:06:566,-0.254,-0.544,0.937,-488.892,123.352,-324.402,
00:00:06:583,-0.22,-0.539,0.931,-580.994,148.01,-316.59,
00:00:06:600,-0.21,-0.287,0.88,-673.706,170.532,-288.453,
00:00:06:616,-0.208,-0.208,0.778,-602.478,169.616,-355.408,
00:00:06:633,-0.129,-0.385,0.923,-512.33,200.256,-430.542,
00:00:06:650,-0.137,-0.274,0.962,-573.792,158.447,-390.076,cutLH
00:00:06:666,-0.11,-0.168,1.045,-482.727,138.183,-435.364,
00:00:06:683,-0.172,-0.074,0.972,-425.721,107.116,-357.422,
00:00:06:700,-0.167,0.072,0.89,-222.779,118.469,-338.257,
00:00:06:716,-0.183,-0.153,0.891,-63.05,102.6,-326.905,
00:00:06:733,-0.118,-0.243,0.917,-198.426,103.332,-284.79,
00:00:06:750,-0.094,-0.088,0.917,-314.454,81.42,-228.333,
00:00:06:766,-0.131,0.047,0.91,-282.41,80.81,-194.031,
00:00:06:783,-0.103,0.079,0.951,-231.507,89.355,-157.593,
00:00:06:800,-0.131,0.057,1.001,-198.182,86.853,-147.522,
00:00:06:816,-0.109,0.027,1.023,-159.485,101.318,-130.799,
00:00:06:833,0.013,0.066,0.994,-45.044,136.474,-45.838,
00:00:06:850,0.045,0.021,0.978,42.419,133.484,-54.078,
00:00:06:866,0.052,-0.149,1.009,31.982,125.427,-69.031,
00:00:06:883,0.051,-0.137,1.023,-103.394,109.924,-80.079,
00:00:06:900,0.036,-0.096,1.016,-208.069,100.219,-100.281,
00:00:06:916,0.028,0.101,1.072,-124.39,53.1,-8.973,
00:00:06:933,0.042,-0.038,1.006,-54.444,53.711,-39.002,
00:00:06:950,0.053,-0.055,1.055,-94.91,9.094,-56.58,
00:00:06:966,-0.074,-0.161,1.097,-50.11,-12.207,-54.139,
00:00:06:983,-0.03,0.007,1.017,-51.697,-8.24,-23.438,
00:00:07:0,-0.091,-0.035,0.993,29.235,1.22,-39.856,
00:00:07:16,-0.059,-0.072,0.989,-11.414,0.427,-38.331,
00:00:07:33,-0.117,-0.103,1.01,-50.049,-5.127,-51.331,
00:00:07:50,-0.068,-0.059,1.024,-96.314,-7.203,-31.861,
00:00:07:66,-0.074,-0.113,1.016,-80.689,-24.781,-26.368,
00:00:07:83,0.005,-0.189,1.086,-209.534,-67.81,2.319,
00:00:07:100,-0.006,-0.014,1.119,-259.827,-113.892,5.065,
00:00:07:116,-0.012,0.059,0.945,-184.449,-121.521,-2.747,
00:00:07:133,-0.041,0.035,0.953,-13.367,-154.236,-10.987,
00:00:07:150,-0.057,-0.026,0.974,-2.015,-153.382,-21.668,
00:00:07:166,-0.082,0.212,1.046,-206.116,-175.721,-4.334,
00:00:07:183,-0.088,0.191,1.006,-26.062,-135.498,-6.897,
00:00:07:200,-0.128,0.113,0.889,87.402,-72.083,-21.119,
00:00:07:216,-0.074,0.057,0.9,73.425,-46.204,-44.068,
00:00:07:233,-0.076,-0.023,0.968,-55.054,-38.025,-62.317,
00:00:07:250,-0.07,0.03,0.978,-151.185,-33.387,-80.018,
00:00:07:266,-0.082,0.079,0.981,-138.245,-30.518,-84.046,
00:00:07:283,-0.058,0.026,1.002,-130.066,-34.607,-85.267,
00:00:07:300,-0.059,0.096,0.995,-123.169,-30.884,-84.29,
00:00:07:316,-0.059,0.124,0.978,-41.504,-36.194,-79.529,
00:00:07:333,-0.069,0.062,0.993,0,-47.303,-59.266,
00:00:07:350,-0.068,0.076,0.964,-67.078,-58.838,-43.213,
00:00:07:366,-0.055,0.095,0.96,-98.816,-86.731,-23.133,
00:00:07:383,-0.086,0.102,0.967,-82.032,-96.924,13.244,
00:00:07:400,0.122,0.333,0.919,-304.627,-112.183,82.336,
00:00:07:416,-0.103,0.288,0.96,-244.08,-78.553,27.221,
00:00:07:433,-0.102,0.205,0.997,-218.628,-59.205,78.613,
00:00:07:450,-0.062,0.151,0.969,-145.447,-0.306,48.461,
00:00:07:466,-0.123,0.124,1.021,-94.727,20.507,48.645,
00:00:07:483,-0.111,0.113,1.022,13.794,49.316,27.526,
00:00:07:500,-0.131,0.067,1.098,72.021,52.551,-4.517,
00:00:07:516,-0.166,0.082,1.101,113.037,31.066,-23.743,
00:00:07:533,-0.174,0.12,1.099,144.165,13.244,-27.832,
00:00:07:550,-0.182,0.106,1.069,200.561,21.728,-39.246,
00:00:07:566,-0.214,0.135,1.025,248.84,21.484,-31.739,
00:00:07:583,-0.204,0.104,0.982,341.125,35.095,-21.363,
00:00:07:600,-0.171,0.079,0.998,369.567,37.292,-24.842,
00:00:07:616,-0.15,0.056,0.984,407.104,51.086,-24.109,
00:00:07:633,-0.124,0.001,0.986,400.756,47.485,-27.71,
00:00:07:650,-0.124,-0.027,0.993,382.995,44.25,-29.664,
00:00:07:666,-0.116,-0.015,0.989,388.794,54.565,-33.509,
00:00:07:683,-0.079,-0.062,0.952,373.047,45.898,-54.322,
00:00:07:700,-0.104,-0.06,0.987,354.126,60.791,-63.66,
00:00:07:716,-0.092,-0.111,0.994,311.401,57.983,-79.163,
00:00:07:733,-0.104,-0.058,0.972,272.583,62.927,-71.167,
00:00:07:750,-0.105,-0.047,0.94,302.246,81.97,-95.765,
00:00:07:766,-0.112,-0.066,0.917,320.007,100.586,-84.656,
00:00:07:783,-0.146,-0.043,0.915,354.37,114.074,-70.496,
00:00:07:800,-0.153,-0.097,0.842,315.307,125.488,-56.58,
00:00:07:816,-0.254,-0.097,0.931,258.422,118.164,-35.035,
00:00:07:833,-0.307,-0.131,0.913,119.384,143.005,-36.866,
00:00:07:850,-0.416,-0.009,0.897,74.096,166.076,-6.348,
00:00:07:866,-0.429,0.232,0.86,148.132,182.19,66.589,
00:00:07:883,-0.535,0.321,0.811,324.646,228.576,167.541,
00:00:07:900,-0.359,-0.132,0.867,18.371,288.879,215.759,
00:00:07:916,-0.145,-0.104,1.02,-478.638,297.302,238.952,
00:00:07:933,0.247,-0.231,1.302,-472.596,307.861,274.17,
00:00:07:950,0.648,-0.463,1.424,-236.756,223.144,256.103,
00:00:07:966,0.652,-0.367,1.278,6.103,107.727,152.526,
00:00:07:983,0.687,-0.252,1.068,222.717,42.114,149.047,
00:00:08:0,0.578,-0.164,0.932,256.713,15.197,51.452,
00:00:08:16,0.577,-0.197,0.902,238.098,43.823,-37.476,
00:00:08:33,0.509,-0.243,0.989,213.928,53.344,-102.478,
00:00:08:50,0.447,-0.315,1.03,157.47,52.978,-170.289,
00:00:08:66,0.363,-0.351,1.042,107.849,28.381,-229.004,
00:00:08:83,0.269,-0.325,1.037,85.51,5.249,-269.898,
00:00:08:100,0.193,-0.365,0.935,26.855,11.474,-309.449,
00:00:08:116,0.064,-0.289,0.908,-101.807,-30.945,-313.66,
00:00:08:133,-0.079,-0.083,0.832,-172.486,-9.644,-310.242,
00:00:08:150,-0.325,0.169,0.805,-114.319,-7.752,-215.455,
00:00:08:166,-0.496,0.164,0.815,4.333,42.785,-128.663,
00:00:08:183,-0.607,0.115,0.879,42.663,71.289,-52.552,
00:00:08:200,-0.678,-0.061,0.925,-30.213,64.025,-8.667,
00:00:08:216,-0.843,0.29,1.282,-213.013,-79.59,80.017,
00:00:08:233,-0.358,-0.016,1.193,96.496,-24.72,60.913,
00:00:08:250,-0.352,-0.027,0.99,178.466,-17.151,89.782,
00:00:08:266,-0.253,-0.255,0.88,0.915,-40.284,89.782,
00:00:08:283,-0.146,-0.233,0.853,-296.509,-29.847,69.763,
00:00:08:300,-0.058,-0.071,0.834,-439.209,-7.569,67.688,
00:00:08:316,0.095,-0.088,0.936,-389.405,33.325,58.593,
00:00:08:333,0.327,-0.174,1.211,-407.349,17.761,53.161,
00:00:08:350,0.472,-0.046,1.242,-138.001,4.577,44.738,
00:00:08:366,0.574,-0.186,1.136,52.673,-19.227,-8.057,
00:00:08:383,0.582,-0.303,1.01,107.971,-17.029,-96.619,
00:00:08:400,0.611,-0.479,1.052,-14.588,-39.307,-180.054,
00:00:08:416,0.57,-0.36,1.071,-92.102,-57.496,-275.452,
00:00:08:433,0.261,-0.25,0.932,-81.055,-78.858,-302.735,
00:00:08:450,-0.011,-0.176,0.928,-186.707,-62.684,-308.167,
00:00:08:466,-0.205,0.11,0.978,-264.893,-45.838,-267.762,
00:00:08:483,-0.327,0.182,0.897,-135.132,4.455,-232.239,
00:00:08:500,-0.389,0.058,1.056,-232.666,-44.8,-222.352,
00:00:08:516,-0.439,0.184,1.271,-370.728,-94.727,-131.226,
00:00:08:533,-0.373,0.257,1.114,-220.032,-80.506,-103.333,
00:00:08:550,-0.337,0.135,0.994,-31.434,-69.336,-103.455,
00:00:08:566,-0.329,0.096,0.775,42.175,-24.414,-113.465,
00:00:08:583,-0.292,0.161,0.73,39.001,12.878,-89.051,
00:00:08:600,-0.22,-0.058,0.767,-114.197,59.265,-87.586,
00:00:08:616,-0.146,0.075,0.895,-320.801,79.406,-55.726,
00:00:08:633,-0.086,0.189,0.947,-354.615,107.849,-11.109,
00:00:08:650,-0.059,0.183,1.117,-241.272,117.37,36.01,
00:00:08:666,0.073,-0.036,1.282,-106.934,83.252,76.721,
00:00:08:683,0.005,0.128,1.366,-32.105,-110.108,121.582,
00:00:08:700,0.287,-0.01,1.036,140.014,-64.454,80.444,
00:00:08:716,0.025,-0.054,1.087,117.065,-146.424,65.49,
00:00:08:733,0.049,0.112,0.952,91.796,-144.715,55.786,
00:00:08:750,0.015,0.172,0.883,138.427,-109.925,60.241,
00:00:08:766,0.055,0.148,0.926,139.953,-85.267,97.412,
00:00:08:783,0.131,0.06,0.967,115.356,-95.032,135.803,
00:00:08:800,0.094,-0.049,0.904,46.752,-121.582,132.507,
00:00:08:816,-0.016,-0.089,0.96,-84.534,-118.409,138,
00:00:08:833,-0.086,0.016,0.978,-127.32,-65.064,97.839,
00:00:08:850,-0.109,0.097,0.905,-31.434,-7.019,76.477,
00:00:08:866,-0.099,0.083,0.946,46.814,46.203,32.898,
00:00:08:883,-0.134,0.131,0.923,-7.081,86.547,-38.025,
00:00:08:900,-0.184,0.073,0.925,19.714,128.357,-31.922,
00:00:08:916,-0.105,-0.054,1.008,100.708,146.057,43.579,
00:00:08:933,-0.032,0.041,1.083,44.128,131.775,48.828,
00:00:08:950,-0.032,-0.088,1.089,25.756,126.403,21.972,
00:00:08:966,0.022,-0.019,1.05,-14.527,112.609,11.047,
00:00:08:983,-0.009,-0.093,1.003,69.091,101.379,-19.349,
00:00:09:0,0.065,-0.068,0.999,116.882,99.426,6.591,
00:00:09:16,0.044,-0.153,0.959,96.557,101.074,-31.434,
00:00:09:33,0.068,-0.139,0.984,-3.724,95.825,-75.44,
00:00:09:50,0.083,-0.007,0.99,-62.317,99.243,-98.999,
00:00:09:66,0.159,-0.033,1.122,-17.762,73.425,-103.516,
00:00:09:83,0.259,0.024,1.187,40.771,11.291,-75.562,
00:00:09:100,0.346,-0.042,1.233,184.753,-94.117,-52.308,
00:00:09:116,0.285,0.006,1.138,372.253,-191.468,-14.1,
00:00:09:133,0.192,-0.13,1.064,464.05,-231.568,-22.4,
00:00:09:150,0.114,-0.058,0.845,417.968,-205.811,-62.623,
00:00:09:166,0,-0.091,0.78,294.189,-140.32,-87.586,
00:00:09:183,-0.057,0.064,0.761,185.363,-75.623,-90.149,
00:00:09:200,-0.122,0.088,0.797,151.611,-16.968,-28.138,
00:00:09:216,-0.153,0.165,0.836,205.993,32.898,22.705,
00:00:09:233,-0.195,0.035,0.915,303.833,76.416,91.369,
00:00:09:250,-0.209,0.025,1.03,468.017,111.572,141.54,
00:00:09:266,-0.212,-0.127,1.025,616.943,130.005,126.464,
00:00:09:283,-0.222,-0.269,1.129,645.141,77.636,138,
00:00:09:300,-0.23,-0.366,1.133,629.699,51.086,129.943,
00:00:09:316,-0.189,-0.43,1.039,520.874,25.695,88.073,
00:00:09:333,-0.177,-0.522,1.045,334.961,-20.935,37.353,
00:00:09:350,-0.167,-0.485,1.019,103.027,-48.218,-20.142,
00:00:09:366,-0.159,-0.364,1.011,-41.993,-81.299,-27.71,
00:00:09:383,-0.117,-0.246,1.002,-28.504,-74.585,-35.95,
00:00:09:400,-0.047,-0.159,1.005,36.621,-76.05,-38.575,
00:00:09:416,-0.007,-0.261,1.035,106.323,-123.047,-15.564,
00:00:09:433,0.021,-0.331,0.994,-0.794,-150.696,-7.447,
00:00:09:450,0.036,-0.205,0.958,-184.51,-201.355,-0.794,
00:00:09:466,-0.031,-0.115,0.91,-249.207,-201.905,-10.498,
00:00:09:483,-0.07,-0.03,0.897,-214.783,-165.833,12.023,
00:00:09:500,-0.107,-0.045,0.864,-105.225,-126.16,6.164,
00:00:09:516,-0.162,-0.143,0.944,-94.666,-94.666,21.728,
00:00:09:533,-0.161,-0.183,0.972,-186.951,-58.533,27.099,
00:00:09:550,-0.134,-0.123,1.03,-266.968,-41.993,33.508,
00:00:09:566,-0.101,-0.096,1.047,-247.254,-44.739,59.997,
00:00:09:583,-0.109,-0.074,1.037,-197.937,-49.927,67.932,
00:00:09:600,-0.114,-0.111,1.025,-155.274,-49.317,48.767,
00:00:09:616,-0.147,-0.149,0.989,-83.741,-44.19,28.198,
00:00:09:633,-0.137,-0.24,0.998,-48.645,-29.664,13.366,
00:00:09:650,-0.112,-0.238,0.994,-46.875,-20.997,-13.062,
00:00:09:666,-0.113,-0.266,0.971,-34.119,-1.465,-54.627,
00:00:09:683,-0.138,-0.279,0.918,-39.734,22.888,-101.38,
00:00:09:700,-0.212,-0.348,0.916,-21.424,66.65,-139.161,
00:00:09:716,-0.181,-0.242,0.89,-78.614,118.469,-167.176,
00:00:09:733,-0.174,-0.159,0.922,-121.033,170.41,-209.778,
00:00:09:750,-0.136,-0.072,1.002,-194.153,216.674,-234.253,
00:00:09:766,-0.104,0.002,0.963,-204.285,215.698,-238.648,
00:00:09:783,-0.122,0.042,0.923,-183.167,225.097,-161.927,
00:00:09:800,-0.101,-0.023,0.964,-217.286,246.215,-120.911,
00:00:09:816,-0.019,-0.048,1.022,-272.461,257.568,-84.534,
00:00:09:833,0.042,0,1.103,-218.445,271.118,-26.185,
00:00:09:850,0.109,-0.053,1.051,-145.569,260.376,-38.269,
00:00:09:866,0.125,-0.073,0.979,-148.438,255.615,-68.238,
00:00:09:883,0.185,-0.158,0.988,-216.248,218.628,-126.893,
00:00:09:900,0.145,-0.317,1.214,-186.89,117.859,-122.254,
00:00:09:916,0.053,-0.143,1.125,-294.19,82.397,-95.826,
00:00:09:933,0.015,-0.001,1.047,-256.287,65.734,-109.192,
00:00:09:950,-0.019,-0.064,1.061,-208.619,62.683,-89.478,
00:00:09:966,-0.013,-0.032,1.035,-144.471,55.175,-71.778,
00:00:09:983,-0.024,0.102,0.961,-69.397,86.181,-91.431,
00:00:10:0,0.008,0.004,1.002,35.156,70.434,-131.653,
00:00:10:16,-0.025,0.034,0.964,129.638,72.265,-135.193,
00:00:10:33,-0.025,-0.078,0.992,262.329,67.443,-120.362,
00:00:10:50,-0.012,0.011,1.006,251.098,59.57,-96.558,
00:00:10:66,0.013,-0.124,1.08,216.186,41.32,-40.65,
00:00:10:83,0.041,-0.006,1.085,136.413,10.07,21.057,
00:00:10:100,0.073,-0.043,1.036,71.289,-71.778,25.695,
00:00:10:116,0.047,-0.096,1.039,11.413,-118.714,49.255,
00:00:10:133,0.088,-0.028,1.103,17.15,-133.118,46.936,
00:00:10:150,0.071,-0.044,1.083,89.477,-148.621,42.358,
00:00:10:166,0.09,-0.008,1.1,88.134,-146.302,27.587,
00:00:10:183,-0.021,-0.011,0.991,77.88,-166.382,-28.382,
00:00:10:200,-0.053,-0.129,0.92,26.184,-116.089,-31.556,
00:00:10:216,-0.05,-0.021,0.945,-0.061,-84.412,9.399,
00:00:10:233,-0.054,-0.056,0.981,-11.109,-62.012,4.638,
00:00:10:250,-0.095,-0.048,0.973,-46.509,-18.982,3.906,
00:00:10:266,-0.071,-0.01,1.026,-1.221,21.301,8.483,
00:00:10:283,0.069,-0.061,0.99,17.639,57.128,-42.298,
00:00:10:300,-0.148,0.079,0.929,199.463,63.964,28.137,
00:00:10:316,0.054,-0.136,1.038,296.692,109.741,16.723,
00:00:10:333,0.012,-0.065,0.9,127.807,96.679,-31.006,
00:00:10:350,0.072,-0.41,0.987,-90.149,81.298,-41.748,
00:00:10:366,0.092,-0.229,1.058,-313.721,-26.429,-14.405,
00:00:10:383,0.093,-0.267,1.048,-436.341,-75.684,-22.644,
00:00:10:400,0.05,-0.027,0.966,-491.15,-147.583,-1.16,
00:00:10:416,0.036,0.074,1.008,-374.024,-151.307,-28.382,
00:00:10:433,-0.078,0.057,0.91,-167.054,-135.376,16.296,
00:00:10:450,-0.024,-0.062,0.785,-96.924,-54.261,-27.405,
00:00:10:466,0.021,-0.004,0.916,-176.636,-65.247,2.197,
00:00:10:483,0.07,0.18,0.824,-229.737,-69.886,-10.01,
00:00:10:500,-0.028,0.057,1,-99.183,-111.817,45.41,
00:00:10:516,-0.036,0.037,1.073,-95.093,-134.644,56.518,
00:00:10:533,-0.108,0.064,1.068,-77.881,-138.916,66.284,
00:00:10:550,-0.169,0.166,1.011,55.053,-100.831,68.786,
00:00:10:566,-0.255,0.187,0.931,264.587,-33.326,92.407,
00:00:10:583,-0.249,0.154,0.924,405.639,41.442,109.253,
00:00:10:600,-0.269,0.189,0.911,545.471,131.836,116.699,
00:00:10:616,-0.242,0.117,0.859,684.387,228.027,117.675,
00:00:10:633,-0.166,-0.093,0.842,773.376,282.898,131.103,
00:00:10:650,-0.077,-0.29,0.856,497.741,276.367,147.827,cutLH
00:00:10:666,0.118,-0.326,0.893,38.513,213.012,30.639,
00:00:10:683,0.107,-0.267,1.217,-343.873,138.183,7.263,
00:00:10:700,0.045,-0.075,1.245,-259.583,80.932,-21.058,
00:00:10:716,-0.009,-0.007,1.209,47.973,58.349,-10.132,
00:00:10:733,-0.03,0.064,1.122,221.191,74.89,-24.537,
00:00:10:750,-0.009,-0.086,1.059,314.087,61.035,-34.058,
00:00:10:766,-0.02,0.114,1.11,207.885,7.934,-25.879,
00:00:10:783,-0.053,0.007,1.006,424.926,61.462,-16.48,
00:00:10:800,0.008,-0.149,1.003,382.69,45.654,-10.621,
00:00:10:816,-0.029,-0.288,1.063,222.656,39.001,-27.71,
00:00:10:833,0.085,-0.281,1.04,38.024,20.324,-18.25,
00:00:10:850,0.066,-0.193,1.03,-81.665,8.239,-47.608,
00:00:10:866,0.04,-0.157,0.988,-100.464,12.329,-71.045,
00:00:10:883,0.027,-0.086,0.973,-64.087,33.752,-80.567,
00:00:10:900,0.033,-0.07,0.951,-3.602,59.692,-81.788,
00:00:10:916,0.051,-0.183,0.99,-28.199,74.89,-75.44,
00:00:10:933,0.077,-0.183,1,-162.781,65.246,-83.008,
00:00:10:950,0.07,-0.141,0.998,-235.535,54.016,-94.971,
00:00:10:966,0.044,-0.092,1.01,-240.723,44.677,-103.516,
00:00:10:983,0.008,-0.068,1.014,-125.367,32.104,-90.455,
00:00:11:0,-0.01,-0.029,1.021,43.579,36.132,-64.209,
00:00:11:16,0.015,-0.107,0.992,149.78,28.381,-46.387,
00:00:11:33,-0.009,-0.166,1.02,165.222,18.554,-40.162,
00:00:11:50,0.003,-0.214,0.977,90.21,11.23,-44.373,
00:00:11:66,0.012,-0.191,0.974,-41.871,-15.015,-50.782,
00:00:11:83,-0.003,-0.157,0.962,-89.844,-43.396,-42.237,
00:00:11:100,-0.014,-0.127,0.959,-97.962,-44.373,-28.626,
00:00:11:116,-0.028,-0.087,0.93,-113.648,-65.369,-13.428,
00:00:11:133,-0.029,-0.101,0.968,-64.942,-69.153,12.39,
00:00:11:150,-0.031,-0.105,0.967,-77.149,-79.956,16.784,
00:00:11:166,-0.005,-0.105,0.925,-101.929,-73.731,35.705,
00:00:11:183,-0.045,-0.053,0.887,-121.827,-69.214,86.975,
00:00:11:200,-0.005,-0.058,0.868,-138.916,-49.927,88.378,
00:00:11:216,0.001,-0.065,0.917,-167.298,-41.016,70.983,
00:00:11:233,0.022,-0.021,1.066,-121.216,-43.58,75.317,
00:00:11:250,0.004,-0.03,1.045,15.93,-28.87,59.997,
00:00:11:266,-0.005,-0.078,1.025,190.612,-8.667,51.513,
00:00:11:283,0.005,-0.23,1.028,193.908,0.122,25.39,
00:00:11:300,0.006,-0.294,1.052,15.808,-13.123,-4.273,
00:00:11:316,-0.023,-0.201,1.049,-124.146,-19.959,-35.462,
00:00:11:333,-0.059,-0.116,1.023,-74.341,-17.029,-51.941,
00:00:11:350,-0.045,-0.14,1.019,-27.527,-16.663,-68.726,
00:00:11:366,-0.06,-0.112,1.025,-61.707,-14.344,-78.553,
00:00:11:383,-0.066,-0.058,0.997,-73.06,-15.809,-74.036,
00:00:11:400,-0.059,-0.016,1.018,-65.857,-16.48,-63.416,
00:00:11:416,-0.057,-0.011,1.011,-28.992,-6.165,-55.664,
00:00:11:433,-0.019,0,1.013,-11.536,-13.672,-39.978,
00:00:11:450,-0.014,-0.027,1.002,38.696,-24.903,-30.579,
00:00:11:466,-0.027,-0.048,0.986,41.626,-21.973,-36.499,
00:00:11:483,-0.001,-0.058,0.975,60.119,-11.902,-43.702,
00:00:11:500,-0.007,-0.072,0.972,57.617,-1.404,-47.486,
00:00:11:516,0.001,-0.115,0.98,34.79,5.92,-52.185,
00:00:11:533,-0.001,-0.102,0.985,-3.052,10.131,-52.491,
00:00:11:550,-0.029,-0.113,0.998,-38.88,11.718,-48.035,
00:00:11:566,-0.003,-0.075,0.985,-58.533,10.437,-46.875,
00:00:11:583,-0.018,-0.055,0.998,-45.35,4.699,-42.359,
00:00:11:600,-0.035,-0.073,1.003,-17.273,10.009,-39.795,
00:00:11:616,-0.048,-0.063,0.998,-30.457,5.493,-39.063,
00:00:11:633,-0.071,-0.057,0.992,-39.185,3.173,-42.542,
00:00:11:650,-0.114,-0.058,1.002,-45.105,2.38,-34.79,
00:00:11:666,-0.179,-0.037,0.999,-44.495,7.141,-29.48,
00:00:11:683,-0.236,-0.026,1.021,-15.503,14.16,-15.564,
00:00:11:700,-0.257,0.003,1.042,24.597,21.789,3.173,
00:00:11:716,-0.262,0.008,1.051,81.665,19.47,35.644,
00:00:11:733,-0.256,0.003,1.027,116.15,24.78,66.284,
00:00:11:750,-0.224,0.007,0.976,131.164,37.292,86.303,
00:00:11:766,-0.205,-0.021,0.897,55.053,58.471,107.544,
00:00:11:783,-0.166,-0.032,0.811,-113.404,88.867,138.733,
00:00:11:800,-0.082,-0.021,0.859,-209.961,132.324,156.311,
00:00:11:816,0.117,-0.107,0.973,-202.942,166.748,152.71,
00:00:11:833,0.253,-0.243,1.127,-198.06,136.901,121.093,
00:00:11:850,0.32,-0.219,1.225,-159.79,88.684,57.8,
00:00:11:866,0.296,-0.158,1.197,-114.075,25.146,-1.587,
00:00:11:883,0.239,-0.083,1.111,-92.102,-17.823,-30.823,
00:00:11:900,0.276,-0.01,1.081,-119.873,-39.49,-44.312,
00:00:11:916,0.414,-0.011,0.919,-39.002,-11.17,-57.801,
00:00:11:933,0.366,0.007,0.919,47.058,60.485,-98.999,
00:00:11:950,0.394,0.014,0.856,67.26,140.503,-158.02,
00:00:11:966,0.314,0.034,0.953,-52.491,153.808,-200.684,
00:00:11:983,0.333,-0.02,1.089,-87.22,176.941,-221.741,
00:00:12:0,0.357,-0.112,1.241,-31.311,153.747,-224.244,
00:00:12:16,0.387,-0.194,1.294,69.702,84.167,-210.511,
00:00:12:33,0.357,-0.216,1.175,185.241,-3.968,-210.022,
00:00:12:50,0.234,-0.281,1.005,206.421,-78.37,-222.046,
00:00:12:66,0.115,-0.152,0.781,111.328,-101.563,-245.911,
00:00:12:83,-0.139,0.06,0.708,27.343,-96.924,-200.013,
00:00:12:100,-0.386,0.198,0.69,-5.555,-79.712,-150.025,
00:00:12:116,-0.663,0.235,0.741,17.883,-53.772,-49.195,
00:00:12:133,-0.713,0.124,0.863,32.653,-29.48,44.494,
00:00:12:150,-0.704,0.061,0.921,21.301,-45.227,121.643,
00:00:12:166,-0.698,-0.037,1.035,25.085,-80.262,161.621,
00:00:12:183,-0.717,0.152,0.919,114.746,-89.539,226.806,
00:00:12:200,-0.685,-0.05,0.848,95.336,-48.829,245.727,
00:00:12:216,-0.614,0.038,0.908,-140.748,9.033,270.08,
00:00:12:233,-0.303,0.03,1.058,-185.12,55.725,307.434,
00:00:12:250,0.169,-0.146,1.228,-145.63,44.372,330.261,
00:00:12:266,0.406,-0.155,1.352,52.429,3.356,330.749,
00:00:12:283,0.636,-0.276,1.318,351.379,-84.717,277.404,
00:00:12:300,0.657,-0.249,1.163,375.915,-136.292,205.139,
00:00:12:316,0.733,-0.211,1.001,328.674,-163.88,138.183,
00:00:12:333,0.76,-0.212,0.852,166.198,-181.702,73.547,
00:00:12:350,0.787,-0.162,0.868,67.138,-163.086,-12.269,
00:00:12:366,0.736,-0.225,1.017,94.543,-155.335,-131.653,
00:00:12:383,0.627,-0.237,1.036,58.898,-179.81,-244.507,
00:00:12:400,0.215,-0.136,1.066,-71.9,-204.041,-282.959,
00:00:12:416,-0.189,-0.037,0.977,-59.693,-198.975,-247.986,
00:00:12:433,-0.509,0.023,0.868,-32.044,-207.886,-193.299,
00:00:12:450,-0.777,0.098,0.831,11.474,-158.57,-115.784,
00:00:12:466,-0.982,0.195,0.784,10.925,-115.845,-41.504,
00:00:12:483,-1.013,0.191,0.766,-55.481,-54.444,11.23,
00:00:12:500,-0.924,0.209,0.947,-165.711,-26.368,73.425,
00:00:12:516,-0.68,0.132,0.975,-180.787,8.606,98.571,
00:00:12:533,-0.673,0.138,0.947,-251.954,16.296,124.328,
00:00:12:550,-0.486,0.186,0.936,-236.939,88.012,170.837,
00:00:12:566,-0.288,0.103,0.988,-167.237,139.77,222.961,
00:00:12:583,0.56,-0.629,1.917,-513.184,81.848,252.807,
00:00:12:600,-0.099,0.38,1.398,154.663,9.216,242.797,
00:00:12:616,0.239,-0.043,0.854,521.118,61.645,214.05,
00:00:12:633,0.681,-0.649,0.907,399.109,191.833,115.356,
00:00:12:650,0.774,-0.627,1.036,-78.186,87.524,-32.349,
00:00:12:666,0.719,-0.4,1.112,-328.248,55.847,-205.323,
00:00:12:683,0.65,-0.153,1.15,-339.417,28.32,-340.149,
00:00:12:700,0.567,0.062,1.078,-187.317,-32.288,-400.879,
00:00:12:716,0.313,0.127,1.075,-114.624,-56.275,-401.673,
00:00:12:733,0.038,0.153,1.015,-53.833,-90.21,-354.615,
00:00:12:750,-0.161,0.138,0.976,3.356,-94.178,-289.124,
00:00:12:766,-0.373,0.135,0.887,33.752,-78.248,-250.611,
00:00:12:783,-0.547,0.143,0.825,71.228,-59.388,-214.356,
00:00:12:800,-0.681,0.105,0.746,61.645,-7.691,-168.152,
00:00:12:816,-0.72,0.141,0.651,3.845,33.935,-118.592,
00:00:12:833,-0.763,0.086,0.662,-142.945,61.34,-61.158,
00:00:12:850,-0.72,0.121,0.696,-242.066,127.624,-13.977,
00:00:12:866,-0.519,0.116,0.776,-272.339,191.955,28.442,
00:00:12:883,-0.415,0.116,0.778,-297.791,216.491,81.359,
00:00:12:900,-0.294,0.195,0.855,-271.241,243.957,144.043,
00:00:12:916,-0.107,0.191,0.925,-222.962,254.333,228.454,
00:00:12:933,0.052,-0.072,1.2,-213.807,235.839,260.559,
00:00:12:950,1.133,-0.015,2.205,-585.572,38.391,146.606,
00:00:12:966,0.027,0.098,1.387,356.201,-69.519,95.947,
00:00:12:983,0.292,0.048,0.834,557.373,-93.567,66.833,
00:00:13:0,0.35,-0.494,1.06,501.159,6.225,30.273,
00:00:13:16,0.428,-0.247,0.947,132.995,-75.135,-28.87,
00:00:13:33,0.386,-0.156,0.93,-24.537,-23.682,-141.175,
00:00:13:50,0.303,-0.099,0.928,9.521,9.887,-208.741,
00:00:13:66,0.267,-0.101,0.913,50.659,38.879,-271.79,
00:00:13:83,0.061,-0.007,0.903,13.244,63.11,-290.039,
00:00:13:100,-0.018,0.019,0.954,-24.476,71.594,-277.649,
00:00:13:116,-0.069,0.029,1.054,-74.158,68.908,-260.01,
00:00:13:133,-0.081,0.076,1.074,-39.978,16.54,-216.37,
00:00:13:150,-0.146,0.147,1.068,59.875,-12.452,-179.505,
00:00:13:166,-0.106,0.126,1.025,181.396,-41.199,-128.357,
00:00:13:183,-0.101,0.117,0.947,202.697,-82.337,-85.511,
00:00:13:200,-0.079,0.043,0.919,127.38,-109.62,-40.162,
00:00:13:216,-0.059,0.076,0.904,92.834,-103.15,-6.897,
00:00:13:233,-0.053,0.054,0.914,147.155,-98.511,26.001,
00:00:13:250,-0.084,-0.07,0.888,223.022,-80.323,36.499,
00:00:13:266,-0.23,-0.207,0.851,192.688,-81.665,62.194,
00:00:13:283,-0.394,-0.285,0.804,117.431,-76.172,53.711,
00:00:13:300,-0.501,-0.278,0.773,11.596,-85.999,60.18,
00:00:13:316,-0.46,-0.24,0.952,-137.207,-104.676,68.664,
00:00:13:333,-0.366,0.007,1.024,-169.251,-131.226,95.764,
00:00:13:350,-0.274,0.191,1.047,-66.529,-160.706,153.015,
00:00:13:366,-0.225,0.212,1.019,45.715,-162.598,194.702,
00:00:13:383,-0.139,0.155,0.993,52.856,-168.641,240.417,
00:00:13:400,-0.106,0.164,0.995,43.701,-137.635,253.051,
00:00:13:416,0.007,0.138,1.004,47.363,-91.98,255.127,
00:00:13:433,0.039,0.039,1.1,89.721,-78.797,231.567,
00:00:13:450,0.09,-0.058,1.145,108.337,-54.505,188.781,
00:00:13:466,0.184,-0.126,1.254,70.617,-56.031,117.492,
00:00:13:483,0.19,-0.085,1.236,65.612,-65.064,53.772,
00:00:13:500,0.181,-0.054,1.17,73.791,-73.67,-8.423,
00:00:13:516,0.091,-0.027,1.066,113.891,-55.97,-54.993,
00:00:13:533,0.027,0.055,1.011,246.887,-11.414,-74.402,
00:00:13:550,-0.06,-0.005,1.01,406.921,38.391,-86.426,
00:00:13:566,-0.091,-0.172,0.999,479.797,95.275,-116.456,
00:00:13:583,-0.145,-0.232,0.93,411.193,129.211,-148.133,
00:00:13:600,-0.165,-0.257,0.919,315.551,147.888,-144.227,
00:00:13:616,-0.215,-0.185,0.906,231.872,145.935,-144.349,
00:00:13:633,-0.256,-0.212,0.944,174.011,136.413,-140.076,
00:00:13:650,-0.307,-0.205,0.939,108.703,128.662,-124.207,cutLH
00:00:13:666,-0.326,-0.162,0.903,69.763,135.376,-96.741,
00:00:13:683,-0.323,-0.19,0.865,61.706,145.385,-80.933,
00:00:13:700,-0.25,-0.222,0.905,-35.584,131.469,-72.083,
00:00:13:716,-0.242,-0.194,0.946,-124.817,120.3,-60.059,
00:00:13:733,-0.217,-0.225,0.993,-131.409,108.459,-73.548,
00:00:13:750,-0.165,-0.217,1.025,-140.625,107.91,-53.833,
00:00:13:766,-0.139,-0.204,0.968,-122.559,99.548,-36.011,
00:00:13:783,-0.109,-0.165,0.962,-110.413,90.637,-42.481,
00:00:13:800,-0.074,-0.239,0.957,-132.874,79.528,-51.575,
00:00:13:816,-0.059,-0.206,0.963,-264.039,72.387,-54.688,
00:00:13:833,-0.033,-0.176,1.011,-362.549,59.692,-55.176,
00:00:13:850,0.049,-0.131,1.087,-375.245,55.419,-51.209,
00:00:13:866,0.059,-0.115,1.103,-289.856,23.803,-33.936,
00:00:13:883,0.039,-0.056,1.109,-205.872,-1.831,-25.025,
00:00:13:900,0.032,-0.041,1.06,-216.004,-44.922,-45.777,
00:00:13:916,0.094,-0.157,1.014,-443.299,-144.227,-72.266,
00:00:13:933,-0.011,0.016,1.079,-619.812,-183.228,-49.317,
00:00:13:950,-0.108,0.245,1.108,-396.302,-170.289,-2.381,
00:00:13:966,-0.142,0.107,0.934,-64.454,-113.77,21.545,
00:00:13:983,-0.126,0.037,1.026,-97.84,-107.422,31.616,
00:00:14:0,-0.215,0.22,0.97,45.654,-64.881,55.847,
00:00:14:16,-0.183,0.133,0.912,235.351,-7.081,72.998,
00:00:14:33,-0.135,-0.03,0.864,194.091,47.912,50.415,
00:00:14:50,-0.084,-0.085,0.8,-5.616,84.289,23.071,
00:00:14:66,-0.029,-0.099,0.983,-209.473,62.683,-12.513,
00:00:14:83,-0.03,0.039,1.013,-198.487,73.73,-33.57,
00:00:14:100,-0.02,0.03,1.02,-100.831,79.711,-42.42,
00:00:14:116,-0.024,0.009,1.022,-56.458,80.871,-49.439,
00:00:14:133,-0.045,0.045,1.024,-7.691,78.308,-50.965,
00:00:14:150,-0.037,0.013,1.001,-31.617,65.612,-52.002,
00:00:14:166,-0.048,0.065,1.006,-97.779,51.269,-48.157,
00:00:14:183,-0.046,0.048,1.023,-129.517,40.283,-40.101,
00:00:14:200,-0.045,0.055,1.039,-152.039,23.986,-27.771,
00:00:14:216,-0.071,0.087,1.045,-89.112,19.653,-25.025,
00:00:14:233,-0.072,0.015,1.035,-39.185,16.174,-31.006,
00:00:14:250,-0.099,0.026,1.013,-41.138,16.174,-37.842,
00:00:14:266,-0.094,0.019,1,-85.694,10.62,-45.655,
00:00:14:283,-0.101,0.028,0.994,-125.123,6.042,-50.782,
00:00:14:300,-0.117,0.066,0.979,-107.178,13.366,-50.293,
00:00:14:316,-0.092,0.084,1.004,-37.842,24.902,-42.603,
00:00:14:333,-0.082,0.097,1.024,51.574,30.09,-37.903,
00:00:14:350,-0.079,0.112,1.031,148.925,36.377,-30.884,
00:00:14:366,-0.074,0.101,1.044,231.018,37.658,-12.879,
00:00:14:383,-0.06,0.016,1.011,211.731,36.377,-7.63,
00:00:14:400,-0.049,-0.026,0.994,44.128,7.019,-10.804,
00:00:14:416,-0.073,0.075,1.005,-34.607,-1.831,-24.781,
00:00:14:433,-0.06,0.054,1.003,-0.061,0.366,-23.438,
00:00:14:450,-0.08,0.043,0.969,-14.771,-4.273,-23.072,
00:00:14:466,-0.084,0.042,0.997,-2.32,1.159,-24.537,
00:00:14:483,-0.084,0,0.986,6.897,-3.052,-28.504,
00:00:14:500,-0.075,-0.025,0.99,-20.935,-3.052,-40.284,
00:00:14:516,-0.077,-0.002,0.974,-43.152,2.197,-51.331,
00:00:14:533,-0.08,-0.005,0.977,-46.448,9.521,-66.956,
00:00:14:550,-0.084,0.013,0.967,-52.735,14.831,-72.632,
00:00:14:566,-0.075,0.047,0.983,-52.185,18.066,-72.449,
00:00:14:583,-0.057,0.053,0.998,-49.683,20.507,-75.44,
00:00:14:600,-0.042,0.063,0.999,-72.754,4.76,-69.825,
00:00:14:616,-0.038,0.109,1.003,-72.144,0.732,-61.341,
00:00:14:633,-0.039,0.113,0.997,-26.307,1.403,-54.2,
00:00:14:650,-0.029,0.099,0.987,-7.813,2.014,-45.227,
00:00:14:666,-0.018,0.097,0.974,3.295,7.568,-40.833,
00:00:14:683,-0.027,0.075,0.993,2.319,8.056,-32.532,
00:00:14:700,-0.034,0.091,0.98,17.089,11.108,-28.931,
00:00:14:716,-0.056,0.06,0.989,25.695,12.023,-25.94,
00:00:14:733,-0.066,0.053,0.994,12.451,14.709,-23.926,
00:00:14:750,-0.067,0.038,0.992,5.859,14.404,-22.034,
00:00:14:766,-0.074,0.031,0.999,-10.804,11.413,-19.776,
00:00:14:783,-0.078,0.055,0.999,0.122,13.794,-20.325,
00:00:14:800,-0.082,0.036,1.005,29.663,12.268,-18.982,
00:00:14:816,-0.079,0.043,1.001,35.583,6.836,-18.799,
00:00:14:833,-0.09,0.069,1.005,45.288,3.662,-19.532,
00:00:14:850,-0.099,0.039,1,41.381,1.098,-16.175,
00:00:14:866,-0.098,0.038,1.002,13.183,-6.348,-12.085,
00:00:14:883,-0.096,0.053,0.99,21.24,-5.31,-10.376,
00:00:14:900,-0.095,0.031,0.999,34.362,1.342,-17.762,
00:00:14:916,-0.09,0.03,0.991,33.325,1.648,-24.109,
00:00:14:933,-0.087,0.039,0.999,21.301,-0.855,-25.635,
00:00:14:950,-0.077,0.026,0.997,4.882,-0.306,-33.753,
00:00:14:966,-0.076,0.029,1.003,-0.245,-4.639,-34.18,
00:00:14:983,-0.074,0.026,1.004,7.385,3.051,-36.927,
00:00:15:0,-0.074,0.043,1.009,-4.334,1.586,-41.871,
00:00:15:16,-0.073,0.083,1.014,-1.343,3.662,-41.748,
00:00:15:33,-0.063,0.071,1.021,-1.038,3.295,-38.269,
00:00:15:50,-0.066,0.077,1.017,-12.085,4.15,-35.279,
00:00:15:66,-0.055,0.083,1.019,-3.235,5.676,-26.001,
00:00:15:83,-0.051,0.083,1.002,18.981,4.394,-21.058,
00:00:15:100,-0.059,0.056,0.998,39.611,6.042,-17.029,
00:00:15:116,-0.054,0.046,0.973,29.907,8.361,-16.968,
00:00:15:133,-0.064,0.044,0.968,7.507,6.164,-17.518,
00:00:15:150,-0.076,0.055,0.958,-10.254,9.033,-10.682,
00:00:15:166,-0.075,0.032,0.985,-8.789,15.197,-8.118,
00:00:15:183,-0.057,0.034,0.968,-8.179,26.062,-7.386,
00:00:15:200,-0.048,0.011,0.998,-3.296,17.517,-2.137,
00:00:15:216,-0.036,0.006,0.982,-3.663,18.981,-4.822,
00:00:15:233,-0.028,0.011,0.967,-23.804,16.601,-17.334,
00:00:15:250,-0.035,0.123,0.933,0.244,39.978,-32.776,
00:00:15:266,-0.075,0.146,0.91,50.293,67.565,-39.49,
00:00:15:283,-0.081,0.109,0.903,-9.034,120.91,-71.961,
00:00:15:300,-0.019,0.011,1.008,-179.261,155.029,-95.398,
00:00:15:316,0.136,0.008,1.086,-292.908,172.607,-125,
00:00:15:333,0.211,0.022,1.217,-241.394,134.765,-141.48,
00:00:15:350,0.271,0.032,1.287,-61.463,89.904,-157.898,
00:00:15:366,0.202,0.056,1.23,106.872,20.568,-168.091,
00:00:15:383,0.112,0.073,1.101,171.814,-30.518,-163.331,
00:00:15:400,0.08,0.09,0.902,205.993,-34.913,-132.142,
00:00:15:416,-0.04,0.012,0.816,200.927,-42.664,-97.901,
00:00:15:433,-0.146,-0.009,0.744,141.845,-2.686,-85.144,
00:00:15:450,-0.211,-0.031,0.804,91.796,31.005,-96.985,
00:00:15:466,-0.282,0.039,0.906,72.937,47.668,-105.53,
00:00:15:483,-0.395,0.155,0.986,102.295,29.419,-76.355,
00:00:15:500,-0.584,0.233,0.931,138.733,3.723,7.69,
00:00:15:516,-0.708,0.217,0.949,106.445,-19.532,98.327,
00:00:15:533,-0.547,0.024,1.087,27.099,0,138.916,
00:00:15:550,-0.349,0.022,1.157,-7.325,-38.941,127.319,
00:00:15:566,-0.311,0.099,1.254,60.974,-75.44,123.962,
00:00:15:583,-0.194,0.088,1.193,174.133,-129.639,141.845,
00:00:15:600,-0.139,0.084,1.154,211.303,-176.819,182.373,
00:00:15:616,-0.041,0.032,0.951,183.96,-201.6,224.304,
00:00:15:633,-0.128,0.21,0.767,172.363,-178.101,288.818,
00:00:15:650,-0.1,0.148,0.481,162.658,-73.365,328.308,
00:00:15:666,-0.035,0.079,0.694,25.695,41.687,354.858,
00:00:15:683,0.155,-0.112,0.861,-45.594,99.304,336.853,
00:00:15:700,0.24,-0.278,1.078,-89.783,131.286,275.756,
00:00:15:716,0.281,-0.241,1.185,-59.388,155.822,164.245,
00:00:15:733,0.408,-0.242,1.218,-38.819,159.546,36.804,
00:00:15:750,0.69,-0.17,1.28,38.879,121.704,-18.25,
00:00:15:766,0.612,-0.047,1.325,130.371,26.733,-126.465,
00:00:15:783,0.446,0.25,1.224,70.251,-52.857,-179.444,
00:00:15:800,0.493,0.232,1.307,119.934,-89.844,-211.243,
00:00:15:816,0.44,0.06,1.142,228.82,-130.799,-234.375,
00:00:15:833,0.257,-0.065,1.033,191.467,-160.096,-247.864,
00:00:15:850,-0.005,-0.098,0.837,168.029,-134.949,-224.976,
00:00:15:866,-0.183,-0.239,0.723,135.07,-71.228,-200.745,
00:00:15:883,-0.323,-0.226,0.688,14.709,-10.193,-189.087,
00:00:15:900,-0.513,-0.164,0.735,-22.217,36.01,-177.735,
00:00:15:916,-0.753,-0.075,0.821,-58.472,71.594,-169.19,
00:00:15:933,-0.954,0.037,0.918,-95.459,64.514,-121.338,
00:00:15:950,-1.021,0.202,1.011,-150.452,26.245,-62.561,
00:00:15:966,-0.758,0.107,1.188,-186.829,-18.738,5.127,
00:00:15:983,-0.651,0.177,1.058,-164.734,-87.464,53.527,
00:00:16:0,-0.641,0.325,0.924,-123.78,-77.332,118.103,
00:00:16:16,-0.382,0.36,0.789,-53.894,10.437,188.903,
00:00:16:33,-0.059,0.286,0.753,-97.84,96.008,241.15,
00:00:16:50,0.245,0.172,0.869,-97.413,177.856,280.7,
00:00:16:66,0.622,-0.186,1.084,-24.781,239.685,258.545,
00:00:16:83,1.045,-0.447,1.303,84.533,222.473,156.616,
00:00:16:100,1.321,-0.734,1.388,187.317,115.722,-2.076,
00:00:16:116,0.965,-0.555,1.154,-22.156,-59.266,-204.468,
00:00:16:133,0.819,-0.186,1.047,-88.379,-89.173,-329.529,
00:00:16:150,0.526,-0.261,0.955,-93.567,-97.352,-411.011,
00:00:16:166,0.161,-0.119,1.026,-222.107,-112.061,-426.392,
00:00:16:183,-0.217,0.14,0.948,-155.396,-69.092,-420.838,
00:00:16:200,-0.521,0.177,0.926,-129.273,-64.148,-389.588,
00:00:16:216,-0.731,0.445,0.884,-76.539,-30.762,-319.703,
00:00:16:233,-0.95,0.57,0.901,10.253,-6.47,-207.398,
00:00:16:250,-1.014,0.505,0.865,-29.541,26.733,-97.901,
00:00:16:266,-0.979,0.44,0.934,-147.767,30.456,-6.958,
00:00:16:283,-0.71,0.244,1.13,-119.568,42.48,47.912,
00:00:16:300,-0.573,0.051,1.063,-89.966,26.855,56.335,
00:00:16:316,-0.407,0.026,1.016,-74.769,35.461,76.049,
00:00:16:333,-0.189,-0.052,0.973,-54.444,54.504,86.547,
00:00:16:350,0.038,-0.03,0.915,-63.05,92.956,78.918,
00:00:16:366,0.244,-0.01,0.943,-55.664,123.657,72.204,
00:00:16:383,0.366,0.072,0.896,-48.768,142.7,67.321,
00:00:16:400,0.381,0.109,0.843,12.39,166.809,59.204,
00:00:16:416,0.464,0.047,0.855,44.128,193.42,52.368,
00:00:16:433,0.516,-0.222,0.96,-83.802,187.866,32.104,
00:00:16:450,0.46,0.044,1.177,-253.296,74.279,12.817,
00:00:16:466,0.403,-0.158,1.132,-70.008,72.631,-46.631,
00:00:16:483,0.098,0.055,1.053,-79.041,20.996,-65.674,
00:00:16:500,-0.095,0.101,1.055,-48.584,1.403,-77.881,
00:00:16:516,-0.356,0.129,1.101,-39.612,4.638,-68.604,
00:00:16:533,-0.418,0.252,1.131,-16.358,-2.137,-53.04,
00:00:16:550,-0.373,0.186,1.076,-13.733,-24.598,-11.475,
00:00:16:566,-0.359,0.187,1.101,-50.477,-63.599,22.583,
00:00:16:583,-0.3,0.085,1.159,-56.275,-73.853,25.878,
00:00:16:600,-0.319,0.152,1.003,-42.542,-55.787,28.32,
00:00:16:616,-0.197,0.111,0.976,11.047,25.451,-8.606,
00:00:16:633,-0.028,-0.025,0.821,65.918,116.577,-54.932,
00:00:16:650,0.022,0.039,0.72,11.169,184.692,-95.52,
00:00:16:667,-0.038,0.119,0.677,34.118,268.921,-112.122,
00:00:16:683,0.144,-0.042,0.653,-200.745,297.119,-84.9,
00:00:16:700,0.031,0.137,0.85,-456.238,275.268,-55.603,
00:00:16:717,0.245,0.079,1.367,-531.25,196.228,9.155,
00:00:16:733,0.079,0.445,1.251,-381.287,41.748,55.236,
00:00:16:750,-0.044,0.15,1.045,13.855,87.829,47.729,
00:00:16:767,-0.004,0.113,0.932,185.18,79.467,70.19,
00:00:16:783,-0.011,0.085,0.937,127.624,85.083,67.321,
00:00:16:800,-0.076,0.163,1.031,27.099,72.509,48.4,
00:00:16:817,0.039,0.122,0.956,-65.735,98.327,8.3,
00:00:16:833,0.226,0.06,1.099,-127.076,111.145,-41.993,
00:00:16:850,0.465,-0.107,1.11,-69.581,142.395,-150.391,
00:00:16:867,0.675,-0.13,1.027,-27.039,117.675,-187.256,
00:00:16:883,0.516,0.007,1.08,-8.301,52.246,-281.922,
00:00:16:900,0.557,0.129,0.998,56.762,50.476,-283.692,
00:00:16:917,0.481,0.175,0.908,98.999,21.911,-297.791,
00:00:16:933,0.459,0.161,1.265,-65.918,-86.67,-270.691,
00:00:16:950,0.268,0.432,0.917,286.926,-29.725,-214.478,
00:00:16:967,0.245,0,0.927,537.353,-68.177,-184.754,
00:00:16:983,-0.03,-0.123,0.944,334.716,-79.651,-186.219,
00:00:17:0,-0.057,-0.134,0.923,145.813,-70.679,-180.542,
00:00:17:17,-0.282,0.019,0.893,53.222,-102.784,-188.66,
00:00:17:33,-0.486,0.202,0.865,-0.672,-75.257,-176.636,
00:00:17:50,-0.565,0.253,1.001,-96.375,-104.981,-154.114,
00:00:17:67,-0.589,0.432,0.872,-12.574,-59.571,-89.112,
00:00:17:83,-0.583,0.185,0.905,-89.905,-79.773,-14.344,
00:00:17:100,-0.472,0.231,0.925,-237.61,-70.557,34.301,
00:00:17:117,-0.401,0.249,0.964,-277.649,-73.121,75.439,
00:00:17:133,-0.209,0.279,1.233,-169.495,-61.341,96.74,
00:00:17:150,0.075,0.204,1.191,30.212,-55.603,124.023,
00:00:17:167,0.134,0.104,1.21,101.562,-117.188,127.319,
00:00:17:183,0.075,0.135,1.053,130.798,-154.725,131.897,
00:00:17:200,0.131,0.14,1,153.93,-151.978,126.403,
00:00:17:217,0.101,0.136,0.907,133.972,-130.433,114.074,
00:00:17:233,0.244,0.106,0.91,103.515,-80.933,103.21,
00:00:17:250,0.399,-0.044,1.061,75.805,-58.411,60.669,
00:00:17:267,0.538,-0.039,1.146,60.119,-81.055,6.897,
00:00:17:283,0.58,-0.062,1.236,19.287,-140.748,-40.589,
00:00:17:300,0.38,0.124,1.087,31.616,-201.783,-91.736,
00:00:17:317,0.23,0.183,0.973,81.604,-196.656,-144.41,
00:00:17:333,0.201,0.123,0.854,64.086,-156.678,-153.199,
00:00:17:350,0.076,0.17,0.939,-50.599,-164.185,-152.039,
00:00:17:367,-0.03,0.3,0.999,-48.645,-145.935,-93.018,
00:00:17:383,-0.131,0.307,0.97,90.698,-126.221,-24.048,
00:00:17:400,-0.122,0.177,0.955,94.421,-116.822,32.836,
00:00:17:417,-0.273,0.188,0.926,94.543,-122.437,77.148,
00:00:17:433,-0.308,0.151,0.927,82.519,-115.662,110.839,
00:00:17:450,-0.359,0.172,0.881,112.671,-88.807,122.68,
00:00:17:467,-0.372,0.152,0.866,171.325,-74.83,132.812,
00:00:17:483,-0.418,0.151,0.854,280.822,-49.439,145.446,
00:00:17:500,-0.412,0.145,0.824,424.56,1.586,160.888,
00:00:17:517,-0.374,-0.034,0.755,416.137,30.456,155.639,
00:00:17:533,-0.33,-0.152,0.784,249.878,61.828,143.554,
00:00:17:550,-0.267,-0.13,0.883,69.458,83.923,127.685,
00:00:17:567,-0.206,-0.004,0.961,32.531,93.2,94.36,
00:00:17:583,-0.162,0.079,0.986,159.179,110.229,91.064,
00:00:17:600,-0.165,0.079,0.956,462.341,133.545,79.406,
00:00:17:617,-0.119,-0.136,0.932,646.606,165.222,75.378,
00:00:17:633,-0.04,-0.435,0.998,501.831,156.311,83.74,
00:00:17:650,0.074,-0.522,1.061,67.932,108.215,55.297,cutLH
00:00:17:667,0.08,-0.24,1.086,-176.697,53.527,36.621,
00:00:17:683,0.033,-0.037,1.057,-97.413,43.518,11.23,
00:00:17:700,0.029,-0.035,1.035,127.929,38.024,-23.865,
00:00:17:717,-0.033,-0.169,1.015,197.082,34.118,-37.293,
00:00:17:733,-0.053,-0.206,1.004,49.804,33.813,-50.477,
00:00:17:750,-0.103,-0.104,1.028,-69.764,32.653,-44.861,
00:00:17:767,-0.109,-0.02,1.068,-61.951,44.067,-41.26,
00:00:17:783,-0.098,0.01,1.051,36.193,51.635,-35.279,
00:00:17:800,-0.089,-0.007,1.02,127.685,70.922,-38.88,
00:00:17:817,-0.051,-0.148,1.041,38.208,65.551,-57.679,
00:00:17:833,-0.045,-0.096,1.051,-69.886,62.316,-54.993,
00:00:17:850,-0.024,-0.053,1.084,-94.666,47.119,-41.321,
00:00:17:867,0.046,-0.143,1.103,-93.201,45.471,-35.157,
00:00:17:883,0.111,-0.1,1.18,-137.452,-7.019,-55.664,
00:00:17:900,0.044,-0.066,1.12,-94.239,-40.589,-75.623,
00:00:17:917,-0.015,-0.047,0.998,35.034,-44.129,-77.454,
00:00:17:933,-0.056,-0.132,0.974,10.498,-18.433,-78.675,
00:00:17:950,-0.106,-0.067,0.991,-109.314,20.141,-99.427,
00:00:17:967,-0.106,-0.047,0.927,-131.714,40.649,-91.126,
00:00:17:983,-0.066,-0.021,0.948,-204.407,44.372,-90.027,
00:00:18:0,-0.038,0.054,0.958,-208.374,46.936,-82.825,
00:00:18:17,-0.018,0.056,0.953,-143.86,40.405,-67.078,
00:00:18:33,-0.013,-0.056,1.037,-161.744,26.184,-54.993,
00:00:18:50,-0.02,-0.011,1.046,-235.657,15.991,-66.04,
00:00:18:67,0.017,0.067,1.044,-179.871,19.409,-51.026,
00:00:18:83,0.009,0.068,1.004,-54.932,19.897,-32.166,
00:00:18:100,-0.006,0.001,0.999,23.132,35.766,-25.086,
00:00:18:117,-0.011,-0.047,1.015,-4.578,46.875,-12.574,
00:00:18:133,-0.022,-0.023,1.01,-71.106,60.607,-23.499,
00:00:18:150,-0.011,-0.012,0.976,-125.123,58.715,-38.453,
00:00:18:167,-0.04,-0.074,1.056,51.452,43.701,-56.092,
00:00:18:183,-0.061,-0.001,1.036,32.531,22.705,-57.557,
00:00:18:200,-0.001,-0.027,1.021,10.009,11.596,-45.533,
00:00:18:217,-0.005,0.019,0.998,-12.513,-1.16,-39.917,
00:00:18:233,0.005,0.062,0.981,1.77,-7.569,-35.706,
00:00:18:250,0.009,0.019,0.942,97.778,-26.001,6.347,
00:00:18:267,-0.02,-0.02,0.929,81.298,-17.334,5.676,
00:00:18:283,-0.022,-0.022,0.943,26.977,-2.808,1.342,
00:00:18:300,-0.006,-0.047,0.949,-7.752,9.826,-12.757,
00:00:18:317,0,-0.054,0.98,-64.942,8.972,-20.997,
00:00:18:333,0.001,-0.014,0.987,-105.835,4.15,-32.471,
00:00:18:350,-0.016,0.017,1.006,-69.886,-0.489,-29.969,
00:00:18:367,-0.012,0.008,1.015,-24.17,1.098,-25.208,
00:00:18:383,-0.026,0.027,1.011,-13.001,-1.648,-23.987,
00:00:18:400,-0.03,0.034,1.011,10.315,-3.357,-17.09,
00:00:18:417,-0.044,0.045,1.004,24.597,-5.372,-16.48,
00:00:18:433,-0.071,0.04,1.003,35.461,-5.005,-18.311,
00:00:18:450,-0.243,-0.004,1.005,-34.607,24.902,-85.45,
00:00:18:467,-0.289,0.042,1.008,-134.766,47.912,-120.484,
00:00:18:483,-0.3,0.141,1.007,-148.743,85.083,-132.691,
00:00:18:500,-0.272,0.208,1.01,-68.726,127.258,-103.516,
00:00:18:517,-0.237,0.176,1.004,-7.813,160.888,-64.087,
00:00:18:533,-0.125,0.146,0.995,12.329,188.781,-18.921,
00:00:18:550,0.145,-0.063,1.055,33.935,205.444,30.944,
00:00:18:567,0.347,-0.132,1.05,35.888,172.912,17.578,
00:00:18:583,0.457,-0.214,1.065,3.051,141.235,-21.668,
00:00:18:600,0.529,-0.195,1.077,-19.471,94.238,-64.209,
00:00:18:617,0.553,-0.141,1.049,-31.617,25.695,-101.136,
00:00:18:633,0.471,0.02,1.002,-28.931,-12.085,-108.033,
00:00:18:650,0.403,0.084,1.01,105.651,-53.528,-94.178,
00:00:18:667,0.351,0.029,1.096,218.689,-103.516,-79.163,
00:00:18:683,0.283,-0.092,1.047,341.125,-142.151,-82.581,
00:00:18:700,0.171,-0.231,1.01,320.007,-176.514,-112.977,
00:00:18:717,0.04,-0.269,0.952,182.006,-194.703,-141.419,
00:00:18:733,-0.134,-0.086,0.807,103.698,-208.008,-146.851,
00:00:18:750,-0.435,0.115,0.669,109.008,-192.078,-120.301,
00:00:18:767,-0.785,0.245,0.539,74.768,-108.338,-57.74,
00:00:18:783,-0.863,0.15,0.56,-111.084,16.54,-28.077,
00:00:18:800,-0.774,0.107,0.871,-316.04,82.519,1.648,
00:00:18:817,-0.521,0.026,1.165,-330.445,111.084,9.887,
00:00:18:833,-0.366,0.004,1.294,-261.536,54.931,30.334,
00:00:18:850,-0.275,-0.013,1.327,-194.336,-1.038,47.546,
00:00:18:867,-0.21,0.125,1.205,-117.676,-33.448,89.111,
00:00:18:883,-0.084,0.226,1.081,-31.739,-32.471,135.009,
00:00:18:900,0.077,0.306,0.933,106.018,-2.137,190.551,
00:00:18:917,0.229,0.167,0.862,151.672,38.024,235.29,
00:00:18:933,0.385,0.035,0.943,142.089,72.143,247.863,
00:00:18:950,0.567,-0.169,1.088,170.471,64.453,221.008,
00:00:18:967,0.79,-0.498,1.202,117.553,39.856,98.693,
00:00:18:983,0.829,-0.42,1.069,-9.339,-40.528,-3.113,
00:00:19:0,0.56,-0.155,0.813,-77.515,-51.209,-122.132,
00:00:19:17,0.48,-0.073,0.884,-88.074,-23.316,-188.172,
00:00:19:33,0.295,0.016,0.885,-51.148,10.376,-238.892,
00:00:19:50,0.255,-0.146,1.394,-216.858,-84.717,-290.711,
00:00:19:67,-0.142,0.245,1.003,-20.874,-37.598,-252.747,
00:00:19:83,-0.383,-0.039,1.079,86.547,-116.211,-221.863,
00:00:19:100,-0.701,0.153,1.045,38.086,-101.685,-188.294,
00:00:19:117,-0.841,0.346,0.918,1.464,-93.506,-140.748,
00:00:19:133,-0.96,0.54,0.819,-15.686,-60.791,-59.998,
00:00:19:150,-0.866,0.56,0.896,43.457,-13.184,47.668,
00:00:19:167,-0.678,0.356,0.941,114.135,41.015,131.591,
00:00:19:183,-0.538,0.241,0.923,48.156,71.838,187.988,
00:00:19:200,-0.293,0.111,0.955,-7.813,120.788,212.28,
00:00:19:217,0.264,-0.398,1.693,-72.754,118.103,237.732,
00:00:19:233,-0.138,0.422,0.993,119.14,12.39,232.299,
00:00:19:250,0.643,-0.479,0.935,382.385,177.246,121.093,
00:00:19:267,0.646,-0.612,1.141,143.371,100.83,52.063,
00:00:19:283,0.799,-0.527,1.095,-37.171,25.512,-67.2,
00:00:19:300,0.575,-0.377,1.058,-228.394,-10.926,-206.36,
00:00:19:317,0.518,-0.208,1.077,-377.015,-23.499,-303.284,
00:00:19:333,0.531,-0.047,1.135,-354.371,-50.721,-356.324,
00:00:19:350,0.396,0.056,1.183,-234.192,-115.906,-389.222,
00:00:19:367,0.212,0.191,1.084,-97.962,-155.274,-369.812,
00:00:19:383,0.044,0.252,0.964,35.888,-177.43,-337.159,
00:00:19:400,-0.19,0.383,0.828,143.371,-191.163,-277.894,
00:00:19:417,-0.357,0.406,0.73,240.417,-154.908,-200.196,
00:00:19:433,-0.532,0.302,0.637,254.211,-95.276,-102.051,
00:00:19:450,-0.677,0.297,0.63,212.585,-1.831,-13.733,
00:00:19:467,-0.741,0.51,0.749,311.462,106.872,52.612,
00:00:19:483,-0.459,-0.464,0.156,301.88,365.112,47.119,
00:00:19:500,-0.815,-0.218,0.931,-491.944,76.416,106.567,
00:00:19:517,-0.199,0.149,1.39,-573.914,192.321,159.851,
00:00:19:533,0.197,-0.107,1.503,-264.954,95.52,97.045,
00:00:19:550,0.284,-0.352,1.624,-59.571,-61.585,78.247,
00:00:19:567,0.356,-0.266,1.42,76.599,-149.292,27.587,
00:00:19:583,0.302,-0.241,1.141,85.632,-229.676,-18.738,
00:00:19:600,0.205,0.032,0.966,2.563,-228.638,-57.74,
00:00:19:617,0.17,0.249,0.861,-2.076,-204.163,-70.13,
00:00:19:633,0.147,0.21,0.826,36.254,-157.959,-52.491,
00:00:19:650,0.105,0.133,0.942,12.329,-130.555,-33.997,
00:00:19:667,0.111,0.07,1.029,-38.208,-121.46,-37.842,
00:00:19:683,0.06,0.006,1.171,-62.745,-134.4,-64.759,
00:00:19:700,-0.014,0.038,1.168,-33.02,-155.091,-84.046,
00:00:19:717,-0.097,0.08,1.111,38.574,-183.899,-84.778,
00:00:19:733,-0.145,0.161,1.005,114.563,-204.102,-82.642,
00:00:19:750,-0.223,0.13,1.002,151.855,-218.934,-71.045,
00:00:19:767,-0.29,0.097,0.948,107.849,-214.234,-50.232,
00:00:19:783,-0.376,0.137,0.844,47.912,-201.355,-9.644,
00:00:19:800,-0.472,0.175,0.775,19.104,-176.697,42.785,
00:00:19:817,-0.516,0.165,0.714,0.366,-139.344,90.332,
00:00:19:833,-0.547,0.145,0.713,-44.373,-78.186,126.403,
00:00:19:850,-0.5,0.101,0.811,-77.881,-8.301,146.057,
00:00:19:867,-0.399,0.105,0.873,-78.064,72.57,146.362,
00:00:19:883,-0.301,0.086,0.873,1.648,138.366,145.019,
00:00:19:900,-0.198,0.071,0.822,104.675,202.087,109.863,
00:00:19:917,-0.11,0.036,0.801,178.405,258.361,57.006,
00:00:19:933,-0.011,-0.152,0.859,187.133,296.264,11.352,
00:00:19:950,0.053,-0.316,1.031,30.456,285.278,-68.177,
00:00:19:967,0.057,-0.348,1.201,-134.278,243.957,-114.624,
00:00:19:983,-0.025,-0.035,1.127,-110.718,213.867,-93.811,
00:00:20:0,-0.082,-0.038,0.934,7.873,226.135,-10.071,
00:00:20:17,-0.124,0.067,0.958,-22.522,207.092,44.677,
00:00:20:33,-0.123,0.173,0.945,-89.844,231.323,66.65,
00:00:20:50,-0.092,0.075,1.001,-130.433,230.835,93.078,
00:00:20:67,-0.138,0.117,1.197,-147.339,194.152,134.765,
00:00:20:83,-0.241,0.264,0.833,241.15,354.187,72.631,
00:00:20:100,0.161,-0.335,0.705,424.499,335.571,9.338,
00:00:20:117,0.177,-0.51,1.341,32.714,192.382,-25.33,
00:00:20:133,0.138,-0.141,1.237,-212.525,102.111,-62.378,
00:00:20:150,0.095,0.07,1.296,-229.554,-8.057,-75.379,
00:00:20:167,0.064,0.245,1.063,16.357,-1.587,-51.148,
00:00:20:183,0.037,0.208,1.009,151.611,-5.372,2.624,
00:00:20:200,0.131,0.114,1.003,155.761,12.268,23.986,
00:00:20:217,0.236,0.013,1.083,153.442,21.362,12.878,
00:00:20:233,0.289,-0.048,1.141,182.739,18.981,-19.532,
00:00:20:250,0.351,-0.093,1.198,171.264,-1.831,-64.026,
00:00:20:267,0.279,-0.151,1.201,230.835,-48.523,-113.099,
00:00:20:283,0.141,-0.111,1.029,252.075,-77.515,-150.879,
00:00:20:300,-0.002,-0.152,0.957,140.258,-73.853,-179.322,
00:00:20:317,-0.163,-0.021,0.853,38.818,-58.716,-185.547,
00:00:20:333,-0.31,0.049,0.772,-6.104,-45.227,-162.11,
00:00:20:350,-0.465,0.177,0.711,-24.414,-0.367,-123.719,
00:00:20:367,-0.555,0.235,0.672,-83.619,47.973,-64.881,
00:00:20:383,-0.466,0.15,0.778,-151.062,118.835,-14.771,
00:00:20:400,-0.365,-0.007,0.876,-194.092,140.38,19.47,
00:00:20:417,-0.387,0.127,0.842,-287.415,140.258,74.34,
00:00:20:433,-0.279,0.158,0.827,-281.189,198.73,113.281,
00:00:20:450,0.237,-0.267,1.644,-365.235,166.442,173.339,
00:00:20:467,0.113,0.277,1.541,-187.134,15.991,179.748,
00:00:20:483,0.332,-0.075,1.012,335.754,72.509,136.23,
00:00:20:500,0.723,-0.699,1.067,376.464,70.434,16.906,
00:00:20:517,0.698,-0.592,1.107,-66.834,-43.946,-95.887,
00:00:20:533,0.392,-0.029,0.962,-243.958,-85.816,-208.68,
00:00:20:550,0.316,0.116,1.097,-142.945,-70.496,-226.807,
00:00:20:567,0.262,0.248,1.107,-6.104,-75.745,-224.671,
00:00:20:583,0.114,0.242,1.096,131.897,-71.717,-190.43,
00:00:20:600,0.013,0.21,1.006,252.319,-75.196,-154.664,
00:00:20:617,-0.072,0.151,0.984,225.769,-90.699,-123.108,
00:00:20:633,-0.153,0.186,0.887,193.176,-78.37,-87.708,
00:00:20:650,-0.327,0.195,0.827,221.862,-24.903,-54.078,
00:00:20:667,-0.429,0.109,0.747,131.469,13.977,-11.231,
00:00:20:683,-0.635,0.261,0.539,24.719,71.044,50.964,
00:00:20:700,-0.472,0.032,0.768,-87.769,176.696,96.13,
00:00:20:717,-0.394,-0.092,0.79,-280.213,212.402,102.172,
00:00:20:733,-0.217,-0.386,1.261,-437.561,178.955,115.417,
00:00:20:750,-0.032,0.08,1.641,-450.989,-46.265,144.775,
00:00:20:767,0.179,-0.235,1.27,6.652,-32.654,30.7,
00:00:20:783,-0.17,-0.005,0.869,132.568,-95.765,52.673,
00:00:20:800,0.1,-0.162,0.799,120.971,-49.561,32.836,
00:00:20:817,0.042,-0.022,0.83,-43.946,-48.645,51.025,
00:00:20:833,0.157,0.13,0.888,-147.278,-29.847,59.997,
00:00:20:850,0.281,0.025,1.11,-62.745,-8.24,52.429,
00:00:20:867,0.384,-0.032,1.22,-17.884,-56.946,34.423,
00:00:20:883,0.358,-0.039,1.119,29.235,-66.773,-32.044,
00:00:20:900,0.223,0.051,1.003,82.58,-71.839,-73.975,
00:00:20:917,0.241,0.049,0.986,104.126,-37.293,-104.065,
00:00:20:933,0.155,0.206,1.042,57.312,-48.279,-110.535,
00:00:20:950,0.153,0.157,1,109.924,-51.758,-81.177,
00:00:20:967,0.111,0.21,0.998,115.783,-62.928,-44.007,
00:00:20:983,0.055,0.145,1.01,159.79,-82.52,4.455,
00:00:21:0,0.051,0.035,0.982,182.983,-73.609,39.733,
00:00:21:17,0.019,-0.016,0.977,209.472,-65.552,49.56,
00:00:21:33,0.029,-0.062,0.952,277.282,-64.393,39.367,
00:00:21:50,-0.005,-0.15,0.94,279.113,-75.806,42.602,
00:00:21:67,-0.043,-0.198,0.963,211.792,-90.821,43.701,
00:00:21:83,-0.106,-0.103,0.965,147.583,-105.103,52.124,
00:00:21:100,-0.121,-0.053,0.94,168.396,-98.511,53.833,
00:00:21:117,-0.158,-0.051,0.91,215.21,-89.661,68.176,
00:00:21:133,-0.165,-0.038,0.872,229.675,-72.266,66.162,
00:00:21:150,-0.167,-0.074,0.89,212.158,-50.782,79.101,
00:00:21:167,-0.175,-0.029,0.925,233.52,-30.213,71.411,
00:00:21:183,-0.176,-0.041,0.964,319.336,2.502,74.279,
00:00:21:200,-0.156,-0.012,0.953,470.031,33.447,79.223,
00:00:21:217,-0.163,-0.126,1.025,570.129,43.273,114.318,
00:00:21:233,-0.089,-0.085,1.002,590.82,52.978,131.347,
00:00:21:250,-0.116,-0.24,1.001,532.592,32.043,139.099,
00:00:21:267,-0.132,-0.261,0.975,408.691,10.376,127.258,
00:00:21:283,-0.231,-0.323,0.998,286.316,-2.625,139.343,
00:00:21:300,-0.264,-0.334,1.034,122.497,14.648,124.45,
00:00:21:317,-0.276,-0.28,1.041,-34.485,40.954,92.102,
00:00:21:333,-0.286,-0.223,1.063,-92.286,86.914,58.715,
00:00:21:350,-0.252,-0.209,1.061,-28.321,92.224,18.615,
00:00:21:367,-0.282,-0.273,1.013,108.459,101.44,-0.061,
00:00:21:383,-0.228,-0.495,1.013,118.591,93.994,17.273,
00:00:21:400,-0.15,-0.507,1.047,-103.516,55.603,1.525,
00:00:21:417,-0.1,-0.408,1.026,-322.205,12.878,-20.081,
00:00:21:433,-0.088,-0.285,1.031,-336.548,-15.137,-57.679,
00:00:21:450,-0.058,-0.245,1.048,-259.4,-29.053,-74.097,
00:00:21:467,-0.046,-0.177,1.028,-140.137,-25.269,-98.145,
00:00:21:483,-0.043,-0.211,0.938,-90.088,-20.142,-121.46,
00:00:21:500,-0.002,-0.331,0.938,-180.237,-17.212,-122.315,
00:00:21:517,-0.021,-0.186,0.963,-311.89,-36.927,-110.047,
00:00:21:533,-0.028,-0.072,0.987,-317.872,-30.945,-82.52,
00:00:21:550,-0.058,0.073,0.937,-152.588,-6.348,-48.829,
00:00:21:567,0.018,-0.072,1.003,-54.505,22.827,-32.105,
00:00:21:583,0.055,-0.162,1.017,-85.083,15.075,-21.424,
00:00:21:600,0.078,-0.18,1.042,-190.857,13.671,-36.316,
00:00:21:617,0.085,-0.128,1.062,-219.727,2.807,-48.157,
00:00:21:633,0.051,-0.048,1.034,-159.424,16.357,-71.289,
00:00:21:650,0.02,-0.076,0.998,-38.331,35.461,-84.229,cutLH
00:00:21:667,-0.018,-0.076,0.924,41.87,72.204,-92.102,
00:00:21:683,0.077,-0.097,0.945,-32.532,64.697,-104.798,
00:00:21:700,-0.039,-0.119,1.051,-113.709,26.916,-88.379,
00:00:21:717,-0.013,-0.058,1.07,-156.617,13.305,-69.764,
00:00:21:733,-0.043,-0.012,1.04,-117.737,6.591,-50.354,
00:00:21:750,-0.035,-0.029,1.055,-67.688,12.329,-34.302,
00:00:21:767,-0.039,-0.032,1.02,-15.87,16.174,-27.71,
00:00:21:783,-0.003,-0.038,0.985,39.245,2.624,-34.974,
00:00:21:800,-0.024,-0.111,1.01,72.509,-17.151,-36.988,
00:00:21:817,-0.04,-0.122,1.002,39.306,-21.973,-39.124,
00:00:21:833,-0.029,-0.096,0.952,0.915,-15.503,-39.978,
00:00:21:850,-0.065,-0.069,0.917,2.38,0.122,-35.462,
00:00:21:867,-0.061,-0.094,0.922,-14.71,18.005,-30.823,
00:00:21:883,-0.079,-0.073,0.934,-34.974,50.293,-31.434,
00:00:21:900,-0.05,-0.058,0.962,-56.092,57.434,-25.025,
00:00:21:917,-0.032,-0.036,0.975,-37.598,69.03,-27.466,
00:00:21:933,0.002,-0.068,1.036,-12.085,47.546,-20.447,
00:00:21:950,0.001,-0.073,1.058,28.747,14.892,-20.935,
00:00:21:967,-0.041,-0.12,1.054,53.711,-9.217,-20.447,
00:00:21:983,-0.044,-0.109,1.007,44.982,-7.142,-25.513,
00:00:22:0,-0.04,-0.134,0.991,24.536,-12.269,-32.532,
00:00:22:17,-0.051,-0.113,0.969,-21.363,-5.494,-39.734,
00:00:22:33,-0.062,-0.065,0.956,-29.236,10.131,-37.72,
00:00:22:50,-0.051,-0.032,0.954,-22.522,32.226,-34.302,
00:00:22:67,-0.03,-0.021,0.969,-24.048,51.208,-30.213,
00:00:22:83,-0.042,0.005,0.969,-16.48,60.485,-41.932,
00:00:22:100,-0.007,-0.066,1.01,39.001,69.824,-15.32,
00:00:22:117,-0.008,-0.055,1.03,10.681,60.546,-16.114,
00:00:22:133,0.012,-0.06,1.02,-2.625,61.096,-10.621,
00:00:22:150,0.009,-0.062,1.014,-2.503,59.753,-9.034,
00:00:22:167,0.006,-0.092,1.054,-33.509,23.071,-36.194,
00:00:22:183,-0.008,-0.079,1.055,-23.56,17.334,-40.223,
00:00:22:200,-0.003,-0.066,1.031,-15.931,13.427,-38.453,
00:00:22:217,-0.023,-0.054,1.014,-13.672,7.873,-36.499,
00:00:22:233,-0.052,-0.051,0.994,-10.071,11.169,-28.992,
00:00:22:250,-0.047,-0.076,0.975,-26.001,19.531,-26.246,
00:00:22:267,-0.043,-0.062,0.963,-41.321,27.954,-28.626,
00:00:22:283,-0.046,-0.075,0.977,-32.654,36.254,-31.678,
00:00:22:300,-0.044,-0.095,0.968,-20.691,42.663,-36.683,
00:00:22:317,-0.025,-0.11,0.978,-24.353,40.527,-35.523,
00:00:22:333,-0.031,-0.11,0.977,-40.406,41.442,-50.782,
00:00:22:350,-0.01,-0.066,0.998,-62.928,30.212,-54.566,
00:00:22:367,-0.004,-0.076,1.012,-40.101,18.676,-45.838,
00:00:22:383,-0.023,-0.072,1.003,-16.175,11.718,-46.265,
00:00:22:400,-0.035,-0.09,0.993,5.798,1.464,-35.34,
00:00:22:417,-0.061,-0.102,0.976,18.188,-5.433,-29.664,
00:00:22:433,-0.089,-0.115,0.984,32.531,-10.682,-17.334,
00:00:22:450,-0.177,-0.105,0.994,26.916,-18.311,-24.109,
00:00:22:467,-0.278,-0.063,1.01,35.766,-22.278,-16.114,
00:00:22:483,-0.261,-0.067,1.041,58.532,-26.307,-20.264,
00:00:22:500,-0.198,-0.081,1.056,39.856,-43.396,-21.18,
00:00:22:517,-0.176,-0.072,1.024,-1.77,-62.317,-25.94,
00:00:22:533,-0.107,-0.03,0.95,-122.071,-75.745,-5.86,
00:00:22:550,-0.077,0.197,0.77,-6.653,75.195,120.483,
00:00:22:567,0.054,0.063,0.916,-105.652,144.043,145.08,
00:00:22:583,0.289,-0.096,1.069,-165.345,181.396,114.563,
00:00:22:600,0.474,-0.231,1.257,-137.696,150.695,72.815,
00:00:22:617,0.666,-0.323,1.396,-86.121,75.988,-17.701,
00:00:22:633,0.645,-0.265,1.373,35.766,-23.804,-104.676,
00:00:22:650,0.438,-0.068,1.158,84.228,-91.797,-171.509,
00:00:22:667,0.332,0.082,1.113,118.164,-100.525,-212.647,
00:00:22:683,0.316,0.032,1.027,218.872,-98.206,-224.976,
00:00:22:700,0.177,-0.083,0.98,270.63,-104.798,-229.248,
00:00:22:717,-0.039,-0.137,0.912,213.012,-95.215,-228.211,
00:00:22:733,-0.225,-0.13,0.85,141.967,-86.426,-218.567,
00:00:22:750,-0.499,0.001,0.78,53.955,-72.693,-179.2,
00:00:22:767,-0.668,0.1,0.725,37.475,-17.518,-125.367,
00:00:22:783,-0.832,0.121,0.73,5.676,24.536,-51.514,
00:00:22:800,-0.831,0.131,0.811,-75.867,47.546,7.568,
00:00:22:817,-0.657,-0.009,0.929,-78.248,78.918,35.583,
00:00:22:833,-0.501,-0.129,0.965,-147.95,71.289,50.903,
00:00:22:850,0.023,0.01,1.139,-200.501,113.525,135.254,
00:00:22:867,0.348,0.011,1.266,-93.628,131.103,136.23,
00:00:22:883,0.585,-0.02,1.303,20.324,89.233,110.29,
00:00:22:900,0.854,-0.17,1.345,141.296,52.856,53.772,
00:00:22:917,1.036,-0.238,1.254,169.86,-31.556,-31.25,
00:00:22:933,1.037,-0.217,1.086,162.658,-70.984,-124.39,
00:00:22:950,1.002,-0.175,1.067,201.294,-121.338,-221.741,
00:00:22:967,0.516,-0.279,0.801,245.239,-98.511,-309.388,
00:00:22:983,-0.052,-0.348,0.692,-12.818,-66.773,-363.892,
00:00:23:0,-0.714,0.07,0.606,-131.836,1.525,-336.487,
00:00:23:17,-1.21,0.425,0.449,-41.138,64.697,-209.412,
00:00:23:33,-1.306,0.516,0.543,-43.824,144.531,-63.477,
00:00:23:50,-1.113,0.439,0.883,-18.25,166.626,87.463,
00:00:23:67,-0.762,0.071,1.032,-117.371,159.362,144.775,
00:00:23:83,-0.518,0.176,1.054,-340.882,117.126,191.04,
00:00:23:100,0.411,-0.267,1.85,-380.31,43.151,187.561,
00:00:23:117,-0.266,0.479,1.315,365.722,151.977,231.933,
00:00:23:133,0.713,-0.605,1.198,614.074,136.596,225.158,
00:00:23:150,1.07,-0.878,1.273,13.061,-2.137,75.073,
00:00:23:167,0.941,-0.436,1.043,-182.312,-71.228,-53.284,
00:00:23:183,0.756,-0.238,0.879,-188.294,-38.086,-177.43,
00:00:23:200,0.562,0.084,0.802,-148.987,5.432,-222.229,
00:00:23:217,0.541,-0.004,1.03,52.734,27.16,-231.507,
00:00:23:233,0.264,-0.198,1.091,110.778,-5.555,-257.874,
00:00:23:250,-0.047,-0.219,1.043,-4.273,-82.276,-249.939,
00:00:23:267,-0.287,-0.195,0.922,-44.068,-108.948,-278.748,
00:00:23:283,-0.537,-0.028,0.744,-103.211,-105.713,-288.697,
00:00:23:300,-0.89,0.549,0.521,-140.564,-65.674,-232.666,
00:00:23:317,-0.961,0.66,0.632,-211.06,49.377,-128.54,
00:00:23:333,-0.663,0.538,0.808,-337.586,116.821,-39.002,
00:00:23:350,-0.551,0.374,0.904,-524.598,144.531,20.263,
00:00:23:367,-0.517,0.325,1.043,-540.589,177.002,107.483,
00:00:23:383,-0.326,0.381,1.122,-521.363,135.681,208.557,
00:00:23:400,0.155,-0.227,1.151,-33.509,357.177,172.79,
00:00:23:417,0.728,-0.681,1.584,-14.771,245.849,124.267,
00:00:23:433,1.155,-0.739,1.651,28.625,119.873,-12.207,
00:00:23:450,1.037,-0.568,1.336,114.868,-37.903,-156.189,
00:00:23:467,1.005,-0.32,1.186,145.08,-110.413,-273.194,
00:00:23:483,0.64,-0.296,0.824,322.448,-207.032,-348.694,
00:00:23:500,0.503,0.097,0.538,-46.265,-115.113,-329.346,
00:00:23:517,0.216,0.27,0.583,-135.437,-74.952,-315.491,
00:00:23:533,-0.13,0.291,0.493,-111.573,-4.273,-282.41,
00:00:23:550,-0.238,0.376,0.732,-178.284,43.945,-191.59,
00:00:23:567,-0.314,0.492,0.908,-68.665,69.458,-125.367,
00:00:23:583,-0.347,0.316,1.047,66.162,80.078,-79.529,
00:00:23:600,-0.456,0.167,1.143,9.399,8.728,-17.395,
00:00:23:617,-0.621,0.447,1.24,-160.584,-99.427,76.904,
00:00:23:633,-0.523,0.204,1.069,102.05,-33.753,107.605,
00:00:23:650,-0.472,0.139,1.167,-2.381,-89.966,167.114,cutLH
00:00:23:667,-0.247,0.078,1.117,-7.63,-57.251,149.353,
00:00:23:683,-0.082,-0.001,1.059,25.756,-53.956,121.276,
00:00:23:700,0.198,-0.155,1.123,33.081,-55.603,101.074,
00:00:23:717,0.442,-0.07,1.126,73.181,-102.295,106.628,
00:00:23:733,0.443,-0.032,1.072,204.589,-153.687,88.378,
00:00:23:750,0.364,0.005,0.956,245.544,-178.223,70.739,
00:00:23:767,0.358,0.006,0.978,274.841,-184.388,70.983,
00:00:23:783,0.369,-0.068,1.034,237.976,-182.068,35.766,
00:00:23:800,0.261,-0.032,1.089,222.046,-199.83,1.403,
00:00:23:817,0.177,0.01,1.038,308.41,-203.248,-25.391,
00:00:23:833,0.022,-0.052,0.93,275.756,-239.93,-37.598,
00:00:23:850,-0.144,-0.066,0.881,81.42,-233.765,-61.036,
00:00:23:867,-0.271,0.053,0.951,-87.403,-209.839,-73.792,
00:00:23:883,-0.325,0.204,1.05,-82.032,-175.11,-61.829,
00:00:23:900,-0.355,0.213,1.016,69.946,-168.885,-50.171,
00:00:23:917,-0.384,0.094,1.022,142.395,-166.077,-25.635,
00:00:23:933,-0.391,0.031,0.948,83.19,-162.293,-7.63,
00:00:23:950,-0.439,0.053,0.867,-31.25,-149.903,15.991,
00:00:23:967,-0.46,0.122,0.802,-90.21,-109.925,39.917,
00:00:23:983,-0.434,0.174,0.785,-85.938,-46.021,74.34,
00:00:24:0,-0.368,0.1,0.863,-34.607,11.596,101.44,
00:00:24:17,-0.307,0.097,0.931,41.626,76.294,123.474,
00:00:24:33,-0.234,0.021,0.911,193.115,134.948,133.178,
00:00:24:50,-0.125,-0.102,0.879,237.121,201.172,121.948,
00:00:24:67,-0.044,-0.195,0.839,172.424,210.144,76.049,
00:00:24:83,0.002,-0.25,0.892,79.589,216.797,30.517,
00:00:24:100,0.024,-0.262,1.016,-38.086,201.66,-16.053,
00:00:24:117,0.018,-0.217,1.077,-43.58,190.551,-27.283,
00:00:24:133,0.047,-0.118,1.071,-61.341,180.114,-32.776,
00:00:24:150,0.01,-0.051,0.969,-12.085,181.335,-48.584,
00:00:24:167,0.012,-0.139,0.885,-54.627,183.227,-33.936,
00:00:24:183,0.098,-0.076,1.054,-221.619,119.079,-40.528,
00:00:24:200,0.032,0.013,1.153,-299.622,99.853,-42.786,
00:00:24:217,0.023,0.074,1.127,-164.795,74.951,-33.509,
00:00:24:233,0.033,0.06,1.161,-76.416,51.94,-27.649,
00:00:24:250,0.007,0.032,1.096,-29.114,36.132,-25.879,
00:00:24:267,-0.045,0.055,1.027,-2.259,15.441,-11.109,
00:00:24:283,-0.046,0.036,0.984,-27.649,6.042,-1.343,
00:00:24:300,-0.054,0.045,0.981,-66.346,1.709,15.319,
00:00:24:317,-0.06,0.038,1.005,-42.969,12.939,18.615,
00:00:24:333,-0.056,0.023,1.001,8.483,33.813,15.747,
00:00:24:350,-0.035,-0.027,1.001,70.068,32.348,-2.808,
00:00:24:367,0.001,-0.046,0.976,40.1,23.254,-23.621,
00:00:24:383,-0.014,0.003,1.032,0.305,-2.198,-22.034,
00:00:24:400,-0.025,-0.012,1.033,39.184,-21.851,-5.982,
00:00:24:417,-0.043,0.009,1.006,28.015,-23.804,-1.526,
00:00:24:433,-0.073,0.041,0.967,30.517,-17.823,9.277,
00:00:24:450,-0.082,0.038,0.949,46.386,-1.404,7.69,
00:00:24:467,-0.05,-0.004,0.932,10.925,10.376,2.136,
00:00:24:483,0.008,-0.002,0.997,-9.156,13.488,-6.531,
00:00:24:500,0.021,-0.041,1.124,10.62,-1.831,-16.602,
00:00:24:517,0.046,-0.105,1.158,-7.264,-35.889,-33.02,
00:00:24:533,0.013,-0.049,1.101,-12.269,-65.735,-52.674,
00:00:24:550,-0.042,-0.031,1.004,-4.578,-81.665,-61.158,
00:00:24:567,-0.108,0.068,0.928,-41.626,-79.102,-60.059,
00:00:24:583,-0.15,0.093,0.888,-79.163,-58.594,-39.551,
00:00:24:600,-0.176,0.154,0.913,-114.38,-21.912,-9.156,
00:00:24:617,-0.184,0.204,0.94,-78.797,26.611,30.456,
00:00:24:633,-0.136,0.21,0.913,14.892,82.641,64.331,
00:00:24:650,-0.082,0.152,0.89,137.329,135.559,80.993,
00:00:24:667,0.062,-0.099,0.948,128.234,139.709,29.663,
00:00:24:683,0.04,-0.093,1.097,24.597,127.685,6.774,
00:00:24:700,0.053,-0.018,1.099,5.31,116.455,-36.927,
00:00:24:717,-0.016,0.052,1.1,114.685,107.544,-64.393,
00:00:24:733,0.043,0.009,1.099,211.059,84.838,-38.331,
00:00:24:750,0.051,-0.099,1.061,157.714,51.208,-39.673,
00:00:24:767,0.022,-0.124,1.076,12.39,10.559,-52.979,
00:00:24:783,-0.012,-0.034,1.008,-37.72,9.704,-61.646,
00:00:24:800,-0.041,-0.064,0.974,-21.729,28.503,-75.196,
00:00:24:817,-0.053,-0.015,0.938,-46.082,48.767,-76.844,
00:00:24:833,-0.065,0.015,0.95,-34.119,64.453,-74.646,
00:00:24:850,-0.067,0.052,0.998,22.338,77.819,-72.754,
00:00:24:867,-0.043,0.014,1.009,86.731,69.213,-51.148,
00:00:24:883,-0.022,-0.017,1.031,53.466,52.856,-34.241,
00:00:24:900,-0.01,-0.007,1.025,43.579,31.86,-24.903,
00:00:24:917,-0.011,-0.049,1.011,76.782,24.231,-25.94,
00:00:24:933,0.03,-0.099,0.998,52.795,9.948,-29.358,
00:00:24:950,0.024,-0.115,1.011,-9.217,-9.522,-42.176,
00:00:24:967,0.011,-0.099,1.014,-21.668,-13.428,-50.721,
00:00:24:983,-0.019,-0.064,0.981,-28.87,-14.466,-58.838,
00:00:25:0,-0.047,-0.036,0.971,-42.115,-8.24,-57.007,
00:00:25:17,-0.067,0.019,0.963,-53.345,-2.259,-46.387,
00:00:25:33,-0.075,0.075,0.955,-21.851,10.681,-34.974,
00:00:25:50,-0.061,0.057,0.979,20.446,21.545,-20.081,
00:00:25:67,-0.041,0.033,0.982,45.288,24.841,-5.982,
00:00:25:83,-0.002,-0.034,1.028,23.681,18.798,-0.55,
00:00:25:100,0.018,-0.041,1.016,-3.724,14.16,-10.376,
00:00:25:117,0.007,-0.062,1.033,3.418,4.028,-23.011,
00:00:25:133,0.005,-0.033,1.001,-7.63,5.92,-34.668,
00:00:25:150,-0.021,-0.01,0.999,7.568,2.868,-39.185,
00:00:25:167,-0.017,0.007,0.984,13.916,2.075,-31.678,
00:00:25:183,-0.028,0.003,0.983,23.864,3.845,-28.992,
00:00:25:200,-0.035,-0.025,0.994,17.15,5.92,-28.687,
00:00:25:217,-0.071,-0.048,1,12.512,-2.442,-31.128,
00:00:25:233,-0.166,-0.048,1.01,13.794,-17.273,-27.283,
00:00:25:250,-0.329,-0.062,1.002,52.978,-31.067,-20.142,
00:00:25:267,-0.478,0.02,1.028,122.07,-46.143,7.934,
00:00:25:283,-0.52,0.143,1.022,254.15,-65.003,66.528,
00:00:25:300,-0.547,0.26,0.95,339.355,-84.168,162.353,
00:00:25:317,-0.424,0.41,0.802,343.444,-36.011,290.832,
00:00:25:333,-0.217,0.32,0.791,271.606,79.284,368.347,
00:00:25:350,0.094,0.102,0.912,198.608,192.016,376.77,
00:00:25:367,0.433,-0.122,1.105,168.335,232.849,327.636,
00:00:25:383,0.748,-0.451,1.343,103.637,222.839,193.176,
00:00:25:400,0.971,-0.569,1.398,131.225,150.756,19.531,
00:00:25:417,1.047,-0.694,1.261,110.839,57.434,-115.235,
00:00:25:433,0.816,-0.403,0.942,-146.363,-39.185,-231.507,
00:00:25:450,0.63,-0.087,0.84,-316.956,-34.424,-330.201,
00:00:25:467,0.63,-0.143,0.954,-218.567,-15.198,-374.146,
00:00:25:483,0.44,-0.273,1.005,-52.369,-45.533,-401.185,
00:00:25:500,0.139,-0.267,1.032,-57.74,-71.167,-382.935,
00:00:25:517,-0.188,-0.116,0.969,-68.36,-98.267,-356.324,
00:00:25:533,-0.58,0.345,0.754,14.343,-112.122,-273.56,
00:00:25:550,-1.01,0.682,0.632,230.896,-32.349,-140.992,
00:00:25:567,-1.022,0.491,0.645,188.72,60.302,-3.357,
00:00:25:583,-1.001,0.328,0.89,-13.062,76.294,112.548,
00:00:25:600,-0.699,-0.033,1.045,-114.014,103.82,162.719,
00:00:25:617,-0.61,-0.146,1.072,-245.972,53.1,192.199,
00:00:25:633,-0.512,-0.054,1.021,-254.639,94.848,220.337,
00:00:25:650,-0.223,-0.141,1.065,-187.806,160.522,239.135,
00:00:25:667,0.276,-0.289,1.281,-110.169,181.091,226.074,
00:00:25:683,0.842,-0.417,1.413,-19.959,134.155,161.316,
00:00:25:700,1.134,-0.49,1.332,60.424,29.419,57.006,
00:00:25:717,1.052,-0.362,1.038,-22.278,-65.979,-80.75,
00:00:25:733,1.12,-0.19,0.965,-122.986,-70.801,-232.85,
00:00:25:750,1.048,0.063,0.883,-16.602,-93.323,-325.501,
00:00:25:767,0.865,-0.079,0.894,-50.049,-114.136,-417.725,
00:00:25:783,0.337,0.071,0.838,-110.169,-137.757,-428.65,
00:00:25:800,-0.306,0.146,0.758,-52.735,-98.572,-372.742,
00:00:25:817,-0.88,0.397,0.625,11.718,-11.902,-248.291,
00:00:25:833,-1.194,0.508,0.683,39.794,106.567,-143.372,
00:00:25:850,-1.24,0.432,0.778,-85.938,134.155,-28.565,
00:00:25:867,-1.118,0.283,1.122,-223.084,114.99,74.829,
00:00:25:883,-0.866,0.107,1.298,-163.697,78.125,136.84,
00:00:25:900,-0.58,-0.135,1.303,-47.974,30.578,151.55,
00:00:25:917,-0.294,-0.247,1.247,-18.982,7.568,120.605,
00:00:25:933,-0.017,-0.152,1.185,-18.86,-1.526,82.031,
00:00:25:950,0.268,-0.078,1.149,-28.016,16.601,66.467,
00:00:25:967,0.401,0.079,0.976,-54.322,25.085,39.856,
00:00:25:983,0.384,0.304,0.862,40.71,39.917,31.982,
00:00:26:0,0.354,0.273,0.729,149.963,120.239,20.874,
00:00:26:17,0.527,-0.016,0.887,113.159,179.199,26.367,
00:00:26:33,0.584,-0.405,0.999,-104.615,171.63,-24.964,
00:00:26:50,0.59,-0.401,1.075,-253.907,104.37,-109.864,
00:00:26:67,0.446,-0.287,1.145,-148.865,17.089,-101.502,
00:00:26:83,0.198,-0.135,1.049,-75.867,-26.307,-164.856,
00:00:26:100,-0.05,0.034,1.086,-21.607,-75.44,-149.476,
00:00:26:117,-0.12,0.021,1.056,33.264,-119.507,-132.996,
00:00:26:133,-0.171,-0.022,1.042,-11.841,-169.312,-89.6,
00:00:26:150,-0.186,0.1,1.001,0.671,-197.632,-51.514,
00:00:26:167,-0.172,0.179,0.954,64.819,-181.641,-33.326,
00:00:26:183,-0.082,0.164,0.883,134.582,-135.682,-22.095,
00:00:26:200,-0.082,0.369,0.77,155.029,-112.732,39.184,
00:00:26:217,-0.109,0.262,0.686,216.003,-47.669,102.478,
00:00:26:233,-0.199,0.098,0.53,110.168,32.775,176.147,
00:00:26:250,-0.367,-0.041,0.705,-191.407,143.066,178.466,
00:00:26:267,-0.167,-0.056,0.879,-283.57,281.921,145.507,
00:00:26:283,-0.022,-0.289,1.207,-213.929,309.57,87.158,
00:00:26:300,0.097,-0.377,1.842,-292.481,174.804,80.688,
00:00:26:317,-0.003,0.533,1.676,-376.465,-21.668,44.616,
00:00:26:333,-0.119,0.355,1.19,325.866,-9.034,36.438,
00:00:26:350,-0.025,0.166,0.953,472.717,-3.479,68.054,
00:00:26:367,0.202,0.027,0.937,271.911,0.122,70.007,
00:00:26:383,0.092,0.002,0.852,109.802,-18.677,46.142,
00:00:26:400,0.165,-0.095,0.835,-67.2,14.221,32.287,
00:00:26:417,0.053,-0.022,0.884,-94.422,35.583,45.532,
00:00:26:433,-0.033,-0.064,0.905,-54.749,69.03,72.692,
00:00:26:450,0.049,-0.213,0.932,-125.061,111.694,37.292,
00:00:26:467,0.245,-0.209,1.031,-199.83,107.422,-3.418,
00:00:26:483,0.372,-0.162,1.127,-239.991,74.035,-58.533,
00:00:26:500,0.563,-0.111,1.105,-176.27,46.447,-131.287,
00:00:26:517,0.513,0.069,1.113,-138.123,-62.684,-142.64,
00:00:26:533,0.481,0.208,1.045,19.653,-80.079,-200.379,
00:00:26:550,0.422,0.163,1.026,117.187,-122.254,-195.557,
00:00:26:567,0.307,0.152,0.974,126.281,-112.427,-198.06,
00:00:26:583,0.199,0.1,0.939,186.706,-100.464,-179.078,
00:00:26:600,-0.007,0.095,0.827,189.392,-96.863,-141.907,
00:00:26:617,-0.128,0.041,0.922,92.59,-45.533,-121.338,
00:00:26:633,-0.101,0.05,0.915,78.125,-19.165,-122.559,
00:00:26:650,-0.076,-0.073,1.026,19.592,-12.696,-114.258,
00:00:26:667,-0.071,-0.016,1.011,-49.256,-13.977,-130.188,
00:00:26:683,-0.045,-0.024,1.07,-59.693,-16.663,-145.447,
00:00:26:700,-0.042,-0.013,1.073,9.399,-37.72,-154.908,
00:00:26:717,-0.045,0.015,1.076,60.363,-39.612,-173.279,
00:00:26:733,0.046,0.028,1.061,48.156,-64.27,-153.565,
00:00:26:750,-0.089,0.063,1.059,70.739,-94.788,-149.781,
00:00:26:767,-0.139,0.236,0.913,140.136,-97.718,-86.609,
00:00:26:783,-0.182,0.102,0.899,209.411,-79.956,-28.321,
00:00:26:800,-0.181,0.042,0.881,98.144,-61.219,22.338,
00:00:26:817,-0.076,-0.142,0.937,-127.991,-91.004,40.893,
00:00:26:833,-0.035,-0.053,1.048,-268.067,-99.427,60.18,
00:00:26:850,0.016,0.021,1.059,-177.124,-121.094,54.565,
00:00:26:867,0.024,0.027,1.146,3.601,-192.139,50.537,
00:00:26:883,-0.065,-0.005,1.148,147.644,-223.206,43.457,
00:00:26:900,-0.123,0.017,1.077,264.709,-237.549,46.264,
00:00:26:917,-0.17,0.004,0.984,351.501,-227.723,39.428,
00:00:26:933,-0.201,0.02,0.887,353.82,-201.966,32.836,
00:00:26:950,-0.223,-0.017,0.827,294.616,-171.936,21.484,
00:00:26:967,-0.259,-0.05,0.817,213.256,-144.043,11.413,
00:00:26:983,-0.297,-0.04,0.879,95.398,-104.31,6.591,
00:00:27:0,-0.311,0.032,0.893,64.392,-46.448,10.986,
00:00:27:17,-0.294,0.046,0.894,101.135,18.066,29.541,
00:00:27:33,-0.246,0.043,0.901,150.879,68.542,57.128,
00:00:27:50,-0.206,-0.011,0.926,202.942,124.939,82.58,
00:00:27:67,-0.137,-0.116,0.949,198.181,123.23,102.172,
00:00:27:83,-0.124,-0.169,0.954,131.591,121.948,108.52,
00:00:27:100,-0.088,-0.192,0.994,37.414,104.675,97.595,
00:00:27:117,-0.114,-0.118,1.019,6.469,93.383,92.224,
00:00:27:133,-0.12,-0.076,1.041,55.419,98.388,88.501,
00:00:27:150,-0.13,-0.075,1.044,150.085,110.351,91.43,
00:00:27:167,-0.111,-0.096,1.004,215.515,125.732,87.585,
00:00:27:183,-0.044,-0.271,1.025,175.72,123.23,63.72,
00:00:27:200,0.027,-0.301,1.024,18.737,95.092,31.494,
00:00:27:217,0.023,-0.237,1.056,-92.957,60.18,-7.996,
00:00:27:233,0.005,-0.146,1.097,-98.206,33.203,-48.157,
00:00:27:250,-0.017,-0.107,1.118,-57.312,15.991,-69.519,
00:00:27:267,-0.05,-0.073,1.068,-25.086,7.263,-67.933,
00:00:27:283,-0.066,-0.052,1,-23.255,16.052,-45.716,
00:00:27:300,-0.066,0.005,0.954,-37.171,29.113,-32.41,
00:00:27:317,-0.035,-0.036,0.953,-50.354,49.621,-29.664,
00:00:27:333,-0.017,-0.068,0.977,-53.833,59.204,-28.687,
00:00:27:350,0.023,-0.118,1.017,-96.497,64.025,-36.255,
00:00:27:367,0.035,-0.085,1.012,-119.873,74.523,-41.565,
00:00:27:383,0.119,-0.092,1.016,-80.201,63.537,-47.486,
00:00:27:400,0.113,-0.13,1.082,-62.684,43.396,-47.669,
00:00:27:417,0.091,-0.116,1.051,-6.47,13.61,-49.805,
00:00:27:433,0.053,-0.137,1.055,30.273,-5.066,-45.35,
00:00:27:450,0.02,-0.166,1.038,10.253,-10.132,-57.74,
00:00:27:467,0.015,-0.115,0.997,-31.25,-16.114,-61.768,
00:00:27:483,-0.009,-0.054,1.009,-31.861,-27.588,-53.894,
00:00:27:500,-0.034,-0.032,1.036,12.085,-35.889,-31.617,
00:00:27:517,-0.072,-0.024,1.002,76.721,-27.466,-0.672,
00:00:27:533,-0.07,-0.044,1,106.506,-16.602,1.037,
00:00:27:550,-0.059,-0.118,1.009,67.932,-8.851,3.418,
00:00:27:567,-0.05,-0.118,0.991,16.662,-1.648,4.76,
00:00:27:583,-0.033,-0.068,0.976,29.968,3.967,-9.461,
00:00:27:600,-0.04,-0.117,1.014,54.504,3.479,-18.494,
00:00:27:617,-0.049,-0.076,0.971,43.335,10.986,-32.898,
00:00:27:633,-0.057,-0.023,0.945,-6.043,-5.31,0.305,
00:00:27:650,-0.04,-0.11,1.006,-122.864,-20.325,16.662,
00:00:27:667,-0.024,-0.045,0.998,-156.861,-19.898,20.385,
00:00:27:683,-0.031,-0.057,0.983,-74.28,-11.841,11.23,
00:00:27:700,-0.024,-0.095,0.956,0.122,12.023,-14.344,
00:00:27:717,-0.043,-0.06,0.946,66.894,38.94,-35.95,
00:00:27:733,-0.002,-0.118,0.995,85.937,50.231,-42.847,
00:00:27:750,-0.019,-0.15,1.028,-2.259,36.01,-42.847,
00:00:27:767,0.011,-0.082,1.028,-98.877,13.244,-35.523,
00:00:27:783,-0.013,-0.06,1.063,-47.12,-4.456,-45.166,
00:00:27:800,-0.025,-0.081,1.043,18.737,-10.254,-45.166,
00:00:27:817,-0.024,-0.131,1.012,19.043,-12.635,-48.951,
00:00:27:833,-0.045,-0.086,1.034,-18.738,-23.987,-56.275,
00:00:27:850,-0.061,-0.073,0.99,-43.213,-26.001,-48.645,
00:00:27:867,-0.062,-0.066,1.026,-176.453,-66.895,-19.898,
00:00:27:883,-0.07,0.028,1.082,-158.814,-84.717,-10.376,
00:00:27:900,-0.084,-0.011,1.061,-57.557,-86.792,-16.968,
00:00:27:917,-0.075,-0.052,0.992,38.818,-65.308,-9.766,
00:00:27:933,-0.074,-0.06,0.936,116.76,-33.02,-31.495,
00:00:27:950,-0.089,-0.084,0.885,163.452,5.615,-61.646,
00:00:27:967,-0.081,-0.166,0.855,46.691,40.344,-58.411,
00:00:27:983,-0.105,-0.103,0.876,-84.107,67.871,-61.097,
00:00:28:0,-0.09,-0.01,0.921,-120.667,100.647,-53.894,
00:00:28:17,-0.065,0.02,0.944,-75.501,131.836,-39.063,
00:00:28:33,-0.038,-0.053,0.803,-61.036,145.63,-8.118,
00:00:28:50,0.036,-0.22,1.197,-168.824,44.433,-21.546,
00:00:28:67,0.042,0.028,1.123,-172.425,-0.123,-4.395,
00:00:28:83,0.01,-0.074,1.143,-62.867,-34.546,-20.081,
00:00:28:100,-0.02,-0.037,1.073,11.413,-47.181,-28.321,
00:00:28:117,-0.064,-0.019,1.03,70.556,-49.927,-23.682,
00:00:28:133,-0.065,-0.016,0.978,63.11,-38.269,-19.227,
00:00:28:150,-0.073,-0.025,0.952,21.911,-28.809,-15.686,
00:00:28:167,-0.084,-0.028,0.959,-20.081,-8.912,-11.658,
00:00:28:183,-0.081,-0.031,0.975,-38.269,17.089,-17.518,
00:00:28:200,-0.067,-0.025,0.994,-44.007,36.56,-27.405,
00:00:28:217,-0.047,-0.075,1.019,-83.558,37.414,-33.753,
00:00:28:233,-0.047,-0.018,1.03,-110.291,16.296,-36.194,
00:00:28:250,-0.001,-0.046,1.057,-117.676,11.108,-38.025,
00:00:28:267,-0.021,-0.008,1.064,-112.305,-7.935,-34.913,
00:00:28:283,-0.03,-0.007,1.073,-35.157,-20.813,-39.429,
00:00:28:300,-0.049,-0.015,1.037,28.808,-24.842,-39.734,
00:00:28:317,-0.059,0.017,1,76.11,-20.142,-35.34,
00:00:28:333,-0.04,-0.038,0.96,54.443,-20.752,-35.767,
00:00:28:350,-0.039,-0.024,0.958,-23.377,-26.795,-39.734,
00:00:28:367,-0.059,-0.014,0.955,-41.077,-29.114,-34.729,
00:00:28:383,-0.003,-0.033,1.081,-147.95,-51.514,-21.058,
00:00:28:400,-0.082,0.084,1.063,-119.996,-49.134,-18.067,
00:00:28:417,-0.112,0.062,1.011,3.723,-24.231,-6.592,
00:00:28:433,-0.111,0.007,0.962,49.377,10.864,-5.188,
00:00:28:450,-0.095,-0.048,0.892,17.761,36.132,-6.47,
00:00:28:467,-0.083,-0.027,0.891,-81.604,54.565,-10.193,
00:00:28:483,-0.055,0.013,0.926,-118.103,75.256,-31.128,
00:00:28:500,-0.06,-0.043,1.018,-104.737,88.928,-40.467,
00:00:28:517,-0.052,-0.037,1.033,-63.965,93.322,-41.504,
00:00:28:533,-0.037,-0.028,1.073,-29.053,78.979,-52.185,
00:00:28:550,-0.033,-0.026,1.066,-8.912,59.387,-57.007,
00:00:28:567,-0.056,0.031,1.042,12.573,45.593,-58.777,
00:00:28:583,-0.075,0.053,1.038,57.006,40.649,-50.049,
00:00:28:600,-0.071,0.075,1.014,85.693,49.438,-33.204,
00:00:28:617,-0.047,0.053,1.022,120.361,49.56,-23.56,
00:00:28:633,-0.017,0.014,1.042,148.193,37.109,-18.372,
00:00:28:650,-0.03,-0.062,1.05,120.666,11.23,-18.372,
00:00:28:667,-0.022,-0.077,1.033,54.382,-9.949,-26.246,
00:00:28:683,-0.04,-0.065,1.001,47.668,-16.541,-32.837,
00:00:28:700,-0.046,-0.065,0.967,51.391,-13.916,-39.124,
00:00:28:717,-0.049,-0.053,0.959,18.249,-8.973,-44.861,
00:00:28:733,-0.039,-0.026,0.961,14.038,-1.831,-44.556,
00:00:28:750,-0.047,-0.022,0.978,4.15,3.906,-45.777,
00:00:28:767,-0.041,-0.003,0.984,-2.808,6.591,-44.434,cutLH
00:00:28:783,-0.041,0.005,0.997,25.024,11.291,-41.26,
00:00:28:800,-0.04,-0.016,1.011,39.428,5.188,-32.288,
00:00:28:817,-0.056,-0.018,1.005,53.772,2.502,-30.701,
00:00:28:833,-0.062,0.001,0.994,80.871,3.784,-28.26,
00:00:28:850,-0.06,-0.017,0.997,93.139,1.403,-25.696,
00:00:28:867,-0.051,-0.044,0.999,53.649,-4.456,-23.621,
00:00:28:883,-0.058,-0.039,1.009,12.451,-2.747,-26.673,
00:00:28:900,-0.069,-0.023,1.011,13.855,-0.611,-30.335,
00:00:28:917,-0.059,-0.033,1.01,9.887,3.295,-26.368,
00:00:28:933,-0.063,-0.006,1.014,13.794,1.098,-26.307,
00:00:28:950,-0.07,-0.005,1.005,47.363,2.563,-21.058,
00:00:28:967,-0.088,-0.023,1.001,82.153,11.047,-19.165,
00:00:28:983,-0.105,-0.062,1,80.993,12.451,-15.686,
00:00:29:0,-0.142,-0.052,0.955,38.879,10.253,-5.616,
00:00:29:17,-0.229,-0.008,0.955,62.866,9.338,21.057,
00:00:29:33,-0.27,0.093,0.858,120.361,35.278,65.429,
00:00:29:50,-0.296,0.046,0.884,141.845,87.707,95.214,
00:00:29:67,-0.191,-0.082,0.744,22.338,129.394,104.248,
00:00:29:83,-0.048,-0.116,1.08,-181.946,140.869,79.711,
00:00:29:100,0.053,-0.154,1.173,-269.837,118.957,44.494,
00:00:29:117,0.17,-0.116,1.163,-263.733,38.391,30.334,
00:00:29:133,0.134,0.016,1.067,-166.077,14.343,7.995,
00:00:29:150,0.149,0.07,1.07,-123.658,51.818,8.3,
00:00:29:167,0.315,0.078,1.099,-96.009,91.613,0.427,
00:00:29:183,0.537,-0.116,1.299,20.324,79.345,5.737,
00:00:29:200,0.645,-0.151,1.296,126.22,2.502,-26.001,
00:00:29:217,0.521,-0.047,1.042,307.495,-65.369,-70.252,
00:00:29:233,0.37,-0.005,0.929,358.093,-99.305,-147.95,
00:00:29:250,0.167,0.046,0.685,313.964,-55.298,-170.166,
00:00:29:267,0.126,-0.147,0.79,121.093,-9.217,-194.214,
00:00:29:283,-0.046,-0.164,0.819,10.986,-33.631,-162.232,
00:00:29:300,-0.415,-0.109,0.726,-34.852,-54.627,-102.784,
00:00:29:317,-0.842,-0.016,0.677,-55.359,25.085,-39.185,
00:00:29:333,-0.914,0.036,0.766,-147.706,109.375,-0.977,
00:00:29:350,-0.706,-0.041,1.014,-238.282,127.38,2.502,
00:00:29:367,-0.521,-0.06,1.19,-329.163,69.702,6.347,
00:00:29:383,-0.471,0.07,1.201,-253.785,8.483,25.207,
00:00:29:400,-0.387,0.07,1.12,-137.574,-0.428,51.147,
00:00:29:417,-0.199,0.145,0.972,-99.549,8.483,98.205,
00:00:29:433,-0.047,0.234,0.904,-102.845,40.649,139.221,
00:00:29:450,0.182,0.205,0.876,-84.168,76.538,194.885,
00:00:29:467,0.33,0.039,0.973,-2.32,99.182,210.449,
00:00:29:483,0.638,-0.284,1.163,61.767,91.919,142.273,
00:00:29:500,0.865,-0.507,1.257,42.663,34.912,17.639,
00:00:29:517,0.891,-0.418,1.148,-71.289,-54.017,-122.376,
00:00:29:533,0.456,0.059,0.945,-181.214,-94.971,-207.276,
00:00:29:550,0.13,0.1,1.052,2.868,-41.748,-255.127,
00:00:29:567,-0.074,0,1.151,-30.762,-68.299,-248.169,
00:00:29:583,-0.368,0.145,1.045,10.315,-93.873,-221.314,
00:00:29:600,-0.738,0.381,0.734,91.674,-78.98,-122.193,
00:00:29:617,-1.006,0.66,0.537,135.681,26.977,5.859,
00:00:29:633,-0.81,0.294,0.69,120.361,182.861,88.073,
00:00:29:650,-0.469,-0.051,0.884,-149.292,236.328,78.796,
00:00:29:667,-0.462,-0.01,1.006,-242.737,247.619,111.328,
00:00:29:683,-0.159,-0.262,1.172,-190.857,275.024,88.562,
00:00:29:700,0.282,-0.367,1.357,-165.162,234.741,71.167,
00:00:29:717,0.454,-0.338,1.477,-81.665,125.793,30.151,
00:00:29:733,0.557,-0.145,1.339,-2.503,-2.015,5.432,
00:00:29:750,0.447,0.103,1.102,41.565,-66.224,-4.212,
00:00:29:767,0.585,0.129,0.982,130.859,-77.576,-21.546,
00:00:29:783,0.635,0.092,0.921,237.426,-84.717,-36.744,
00:00:29:800,0.645,-0.053,0.952,236.694,-115.54,-82.032,
00:00:29:817,0.735,-0.136,0.926,229.919,-161.133,-138.977,
00:00:29:833,0.473,-0.24,0.902,194.885,-210.389,-205.201,
00:00:29:850,0.218,-0.17,0.751,80.81,-218.384,-239.319,
00:00:29:867,-0.145,-0.037,0.619,-20.386,-178.772,-232.605,
00:00:29:883,-0.524,0.174,0.58,-104.065,-92.774,-194.458,
00:00:29:900,-0.966,0.548,0.624,-101.258,10.376,-108.765,
00:00:29:917,-1.007,0.56,0.771,-65.979,113.159,29.48,
00:00:29:933,-0.303,-0.084,2.141,-455.14,-66.346,90.271,
00:00:29:950,-0.675,0.349,1.694,231.262,-76.172,193.908,
00:00:29:967,-0.643,-0.182,1.091,371.704,-111.817,205.566,
00:00:29:983,-0.263,-0.286,0.807,181.213,-65.552,116.76,
00:00:30:0,-0.251,-0.15,0.786,-13.489,-3.602,92.59,
00:00:30:17,-0.005,-0.088,0.975,-134.461,26.245,86.669,
00:00:30:33,-0.151,0.359,0.814,-135.926,35.888,122.558,
00:00:30:50,0.255,0.009,0.833,-125.184,174.926,94.787,
00:00:30:67,0.327,0.029,0.852,-352.662,189.27,24.841,
00:00:30:83,0.268,0.029,1.173,-373.658,107.91,33.752,
00:00:30:100,0.363,0.074,1.214,-171.509,67.382,88.44,
00:00:30:117,0.269,-0.23,1.209,59.57,9.277,74.279,
00:00:30:133,0.299,-0.213,1.069,23.193,-39.856,36.071,
00:00:30:150,0.411,-0.188,1.07,-48.096,-47.364,-48.157,
00:00:30:167,0.33,-0.11,1,-109.925,-72.327,-114.685,
00:00:30:183,0.555,0.049,1.039,-68.177,-50.11,-177.308,
00:00:30:200,0.445,0.048,1.008,52.429,-101.197,-228.089,
00:00:30:217,0.318,0.169,0.902,2.624,-114.93,-258.362,
00:00:30:233,0.067,0.386,0.823,-21.424,-95.948,-239.502,
00:00:30:250,-0.202,0.497,0.826,2.685,-50.66,-165.039,
00:00:30:267,-0.204,0.363,0.948,120.056,3.601,-72.876,
00:00:30:283,-0.157,-0.002,1.108,128.112,-10.376,-7.447,
00:00:30:300,-0.182,-0.131,1.119,129.882,-13.55,-5.982,
00:00:30:317,-0.186,-0.252,1.063,37.292,-55.359,-49.073,
00:00:30:333,-0.161,-0.13,1.015,-39.429,-63.05,-98.755,
00:00:30:350,-0.16,-0.036,0.956,-80.018,-59.693,-133.667,
00:00:30:367,-0.195,0.116,0.897,-64.637,-45.96,-145.997,
00:00:30:383,-0.161,0.212,0.986,-16.602,-21.302,-115.601,
00:00:30:400,-0.148,0.181,1.027,40.344,-19.471,-75.806,
00:00:30:417,-0.135,0.117,1.124,61.096,-33.875,-44.007,
00:00:30:433,-0.049,0.034,1.195,83.74,-57.373,-23.865,
00:00:30:450,-0.042,0.002,1.164,115.844,-94.544,-25.452,
00:00:30:467,-0.062,0.014,1.093,163.269,-110.474,-27.71,
00:00:30:483,-0.073,0.01,1.002,200.012,-122.986,-38.453,
00:00:30:500,-0.115,0.054,0.942,158.081,-145.325,-41.443,
00:00:30:517,-0.102,0.01,0.891,32.714,-130.433,-24.353,
00:00:30:533,-0.083,0.032,0.909,-43.396,-96.192,-41.626,
00:00:30:550,-0.146,0.086,0.956,-9.278,-79.712,-18.494,
00:00:30:567,-0.062,0.041,0.921,23.437,-45.289,-14.649,
00:00:30:583,-0.148,0.02,1,43.212,-65.857,-20.325,
00:00:30:600,-0.149,0.011,1.05,69.091,-76.6,-10.132,
00:00:30:617,-0.161,0.058,1.074,73.242,-84.046,-11.414,
00:00:30:633,-0.163,0.026,1.055,81.115,-109.742,4.211,
00:00:30:650,-0.211,0.022,1.026,82.946,-128.113,18.493,
00:00:30:667,-0.25,0.033,0.988,63.11,-132.203,38.391,
00:00:30:683,-0.271,0.054,0.946,43.151,-121.338,39.001,
00:00:30:700,-0.291,0.063,0.91,36.926,-99.183,55.236,
00:00:30:717,-0.296,0.086,0.892,30.09,-74.891,67.81,
00:00:30:733,-0.288,0.081,0.889,35.034,-44.129,80.505,
00:00:30:750,-0.286,0.049,0.908,51.269,-7.142,80.871,
00:00:30:767,-0.245,0.019,0.936,53.344,31.494,80.505,
00:00:30:783,-0.194,0.007,0.934,87.097,54.443,76.477,
00:00:30:800,-0.179,-0.063,0.913,136.413,72.143,65.49,cutLH
00:00:30:817,-0.172,-0.105,0.911,122.07,81.237,61.523,
00:00:30:833,-0.177,-0.133,0.96,57.861,85.083,39.062,
00:00:30:850,-0.184,-0.105,1.023,8.056,101.501,23.864,
00:00:30:867,-0.117,-0.09,1.01,33.508,111.877,8.667,
00:00:30:883,-0.089,-0.137,1.009,59.326,112.487,-15.198,
00:00:30:900,-0.045,-0.205,0.998,48.523,98.755,-54.139,
00:00:30:917,-0.054,-0.192,1.041,-27.588,70.739,-92.53,
00:00:30:933,-0.068,-0.163,1.084,-89.722,46.63,-115.601,
00:00:30:950,-0.106,0.002,1.048,-93.811,39.794,-116.944,
00:00:30:967,-0.119,0.057,0.992,-24.964,56.945,-106.629,
00:00:30:983,-0.132,0.056,0.941,46.63,65.612,-84.107,
00:00:31:0,-0.113,-0.007,0.935,32.714,80.322,-50.538,
00:00:31:17,-0.066,-0.046,0.979,-53.162,76.721,-33.326,
00:00:31:33,-0.063,-0.003,1.019,-122.62,70.312,-18.311,
00:00:31:50,-0.063,0.034,1.036,-76.539,65.795,-10.804,
00:00:31:67,-0.066,0.035,1.026,-2.137,50.964,-6.043,
00:00:31:83,-0.072,-0.005,0.999,43.151,35.034,13.61,
00:00:31:100,-0.065,-0.015,0.964,16.418,22.827,41.503,
00:00:31:117,-0.062,-0.007,0.952,-31.006,14.282,52.795,
00:00:31:133,-0.084,0.041,0.949,-38.819,17.822,62.377,
00:00:31:150,-0.072,0.023,0.967,-2.991,39.55,57.251,
00:00:31:167,-0.054,-0.04,0.971,84.899,48.4,36.071,
00:00:31:183,0,-0.146,1.055,39.245,47.241,25.94,
00:00:31:200,-0.009,-0.105,1.059,8.422,23.254,7.202,
00:00:31:217,-0.026,-0.047,1.065,-1.343,-7.264,-4.761,
00:00:31:233,-0.062,0,1.018,23.559,-14.649,-11.109,
00:00:31:250,-0.117,0.031,0.975,38.757,-14.527,-2.869,
00:00:31:267,-0.107,0.02,0.964,16.357,1.953,2.685,
00:00:31:283,-0.116,0.025,0.962,-20.752,17.334,-1.648,
00:00:31:300,-0.111,0.012,0.963,-55.848,28.259,0.793,
00:00:31:317,-0.062,-0.009,0.991,-115.723,30.212,-3.235,
00:00:31:333,-0.067,-0.013,1.035,-158.204,11.962,-3.602,
00:00:31:350,-0.076,-0.009,1.052,-118.348,8.728,-12.391,
00:00:31:367,-0.08,-0.008,1.065,-51.758,7.934,-20.264,
00:00:31:383,-0.076,-0.019,1.013,-18.189,6.591,-35.096,
00:00:31:400,-0.103,0.022,1.001,-16.358,-0.245,-33.326,
00:00:31:417,-0.106,0.007,0.994,-23.133,2.563,-27.649,
00:00:31:433,-0.106,0.028,0.984,-50.11,15.93,-27.71,
00:00:31:450,-0.095,0.03,1.001,-47.974,28.076,-28.992,
00:00:31:467,-0.082,0.034,1.003,-33.143,41.809,-33.265,
00:00:31:483,-0.075,0.043,1.002,-10.193,48.767,-45.716,
00:00:31:500,-0.056,0.022,1.044,12.268,52.49,-49.866,
00:00:31:517,-0.056,0.037,1.043,26.916,49.011,-51.453,
00:00:31:533,-0.072,0.057,1.044,66.284,48.095,-50.721,
00:00:31:550,-0.066,0.04,1.032,92.529,46.691,-40.528,
00:00:31:567,-0.082,0.039,1.01,98.755,41.503,-35.645,
00:00:31:583,-0.078,-0.046,0.991,40.344,34.24,-37.11,
00:00:31:600,-0.085,-0.009,0.977,-36.988,24.902,-34.058,
00:00:31:617,-0.074,-0.037,0.986,-67.81,17.761,-31.983,
00:00:31:633,-0.067,-0.041,0.988,-64.515,14.221,-32.837,
00:00:31:650,-0.074,-0.027,0.977,-41.871,10.253,-38.392,
00:00:31:667,-0.061,-0.024,0.98,-23.438,5.798,-41.748,
00:00:31:683,-0.052,-0.041,0.977,-39.307,-0.245,-38.758,
00:00:31:700,-0.072,0.001,0.971,-66.651,-8.301,-39.124,
00:00:31:717,-0.075,0.025,0.971,-51.026,-3.174,-33.448,
00:00:31:733,-0.07,0.031,0.975,-38.453,-1.893,-31.678,
00:00:31:750,-0.063,0.042,0.987,-29.908,1.22,-28.138,
00:00:31:767,-0.057,0.038,0.999,-1.282,-1.221,-23.438,
00:00:31:783,-0.053,0.016,1.012,10.437,3.295,-27.466,
00:00:31:800,-0.056,0.011,1.015,16.479,1.098,-34.241,
00:00:31:817,-0.085,0.036,1.022,18.798,0.61,-40.65,
00:00:31:833,-0.106,0.044,1.013,22.827,-0.855,-43.091,
00:00:31:850,-0.135,0.055,1.005,19.958,4.638,-40.894,
00:00:31:867,-0.151,0.055,1.002,10.253,3.845,-36.988,
00:00:31:883,-0.149,0.054,1.002,-11.841,7.446,-36.011,
00:00:31:900,-0.143,0.044,1.008,-10.132,11.535,-38.392,
00:00:31:917,-0.134,0.011,1.012,-23.133,13.61,-39.917,
00:00:31:933,-0.143,0.033,1.01,-26.856,11.23,-41.993,
00:00:31:950,-0.186,0.092,0.999,8.361,14.77,-27.894,
00:00:31:967,-0.19,0.065,0.983,30.761,30.212,-17.579,
00:00:31:983,-0.274,0.117,0.879,21.24,44.25,8.178,
00:00:32:0,-0.301,0.201,0.801,41.076,88.562,59.448,
00:00:32:17,-0.31,0.137,0.802,41.565,149.109,94.604,
00:00:32:33,-0.207,0.072,0.853,-19.471,210.449,113.525,
00:00:32:50,-0.041,-0.008,1.061,-83.435,234.985,96.862,
00:00:32:67,0.401,-0.265,1.281,-161.683,245.971,46.447,
00:00:32:83,0.641,-0.403,1.386,-140.87,168.64,-52.918,
00:00:32:100,0.761,-0.34,1.252,-139.222,78.125,-136.658,
00:00:32:117,0.486,-0.086,1.005,-184.266,11.535,-251.282,
00:00:32:133,0.353,0.231,0.883,-235.596,0.122,-281.189,
00:00:32:150,0.388,0.258,0.982,-129.029,10.62,-263.855,
00:00:32:167,0.286,0.046,1.008,0,-14.466,-235.413,
00:00:32:183,0.032,-0.079,1.037,24.169,-68.97,-191.773,
00:00:32:200,-0.261,-0.124,0.937,64.086,-78.675,-152.222,
00:00:32:217,-0.478,-0.045,0.89,87.463,-78.003,-128.968,
00:00:32:233,-0.599,0.126,0.818,57.495,-69.581,-121.155,
00:00:32:250,-0.711,0.385,0.791,49.926,-66.651,-60.486,
00:00:32:267,-0.743,0.568,0.844,94.665,-65.491,36.926,
00:00:32:283,-0.674,0.609,0.877,272.522,-47.12,179.687,
00:00:32:300,-0.47,0.304,0.917,338.134,-3.907,263.244,
00:00:32:317,-0.388,0.068,0.969,185.302,10.498,303.039,
00:00:32:333,-0.243,0.018,0.969,14.221,47.607,294.372,
00:00:32:350,-0.053,-0.015,1.057,27.16,103.149,281.799,
00:00:32:367,0.164,-0.158,1.211,117.309,133.667,251.281,
00:00:32:383,0.572,-0.399,1.39,210.449,83.862,205.81,
00:00:32:400,0.728,-0.481,1.382,256.652,-8.545,93.017,
00:00:32:417,0.837,-0.497,1.093,108.459,-78.309,-87.708,
00:00:32:433,0.567,-0.171,0.801,-168.946,-67.322,-260.01,
00:00:32:450,0.499,0.103,0.854,-318.482,-4.151,-362.732,
00:00:32:467,0.491,0.133,0.917,-241.822,3.295,-414.673,
00:00:32:483,0.197,0.084,1.083,-206.238,-23.194,-412.659,
00:00:32:500,-0.167,0.271,1.049,-93.018,-61.463,-345.215,
00:00:32:517,-0.598,0.615,0.823,176.33,-65.674,-217.591,
00:00:32:533,-0.92,0.55,0.592,263.488,1.892,-58.228,
00:00:32:550,-1.063,0.604,0.597,165.832,75.988,99.243,
00:00:32:567,-0.78,0.148,0.845,75.622,215.881,168.823,
00:00:32:583,-0.549,-0.141,1.079,-85.45,201.11,180.236,
00:00:32:600,-0.432,-0.225,1.166,-95.276,187.011,173.339,
00:00:32:617,-0.217,-0.357,1.223,-88.929,179.138,165.466,
00:00:32:633,0.148,-0.467,1.295,-84.168,137.451,132.385,
00:00:32:650,0.473,-0.419,1.278,-97.84,77.148,74.951,
00:00:32:667,0.706,-0.279,1.24,-64.759,3.356,4.028,
00:00:32:683,0.691,-0.032,1.011,-22.095,-49.195,-73.731,
00:00:32:700,0.662,0.134,0.91,8.789,-35.401,-141.541,
00:00:32:717,0.659,0.136,0.901,33.264,-30.396,-203.309,
00:00:32:733,0.705,0.025,1.134,13.305,-30.762,-258.851,
00:00:32:750,0.519,-0.023,1.002,-27.894,-80.689,-338.685,
00:00:32:767,0.321,0.098,0.983,-105.652,-104.92,-383.301,
00:00:32:783,0.064,0.207,0.976,-60.242,-115.296,-384.888,
00:00:32:800,-0.282,0.312,0.868,41.076,-78.98,-329.59,
00:00:32:817,-0.738,0.45,0.742,128.479,-24.414,-207.52,
00:00:32:833,-1.091,0.541,0.525,125.671,48.217,-40.711,
00:00:32:850,-1.158,0.306,0.55,-44.007,166.565,90.576,
00:00:32:867,-0.763,-0.024,0.974,-253.296,234.13,138.672,
00:00:32:883,-0.642,-0.181,1.067,-315.43,207.336,132.507,
00:00:32:900,-0.487,-0.243,1.145,-353.272,189.514,130.554,
00:00:32:917,0.277,-0.922,2.012,-690.796,57.983,115.478,
00:00:32:933,-0.298,0.519,1.502,74.157,-10.743,157.409,
00:00:32:950,0.235,0.181,1.037,448.486,-33.265,168.029,
00:00:32:967,0.536,-0.255,0.94,748.901,27.648,127.075,
00:00:32:983,0.728,-0.333,0.831,370.483,-37.476,83.618,
00:00:33:0,0.801,-0.204,0.858,-5.127,-74.646,-9.888,
00:00:33:17,0.73,-0.132,0.907,-80.506,-85.816,-128.113,
00:00:33:33,0.455,0.05,0.99,-32.105,-90.088,-212.464,
00:00:33:50,-0.175,0.528,0.829,72.692,-81.299,-182.19,
00:00:33:67,-0.614,0.567,1.023,10.925,-36.255,-85.572,
00:00:33:83,-0.604,0.443,1.259,19.226,-63.233,79.528,
00:00:33:100,-0.624,0.151,1.19,61.767,-129.883,180.847,
00:00:33:117,-0.747,0.157,0.858,85.327,-124.695,215.21,
00:00:33:133,-0.573,0.026,0.714,55.664,-43.152,208.984,
00:00:33:150,-0.334,-0.051,0.563,-39.429,53.039,182.861,
00:00:33:167,-0.224,-0.019,0.722,-142.579,125.671,178.711,
00:00:33:183,0.037,-0.106,0.792,-193.238,201.355,166.442,
00:00:33:200,0.371,-0.155,1.046,-212.83,253.112,121.765,
00:00:33:217,0.902,-0.404,1.304,-197.388,216.98,42.175,
00:00:33:233,1.092,-0.426,1.53,-216.675,74.768,-111.206,
00:00:33:250,0.993,-0.208,1.503,-173.584,-85.572,-287.11,
00:00:33:267,0.76,0.396,1.128,-189.331,-151.185,-327.82,
00:00:33:283,0.449,0.474,1.002,-15.931,-154.847,-334.229,
00:00:33:300,0.246,0.372,0.864,103.149,-124.573,-269.532,
00:00:33:317,0.13,0.167,0.912,167.846,-65.857,-243.226,
00:00:33:334,-0.075,0.097,0.894,160.766,-52.491,-226.197,
00:00:33:350,-0.416,0.125,0.825,57.617,-42.298,-204.346,
00:00:33:367,-0.51,0.229,0.875,-9.4,13.794,-156.067,
00:00:33:384,-0.495,0.132,0.987,66.589,8.911,-99.854,
00:00:33:400,-0.518,0.069,1.003,92.895,-11.353,-57.496,
00:00:33:417,-0.457,0.039,1.052,87.707,-39.673,-31.373,
00:00:33:434,-0.296,-0.059,1.029,23.193,-73.731,-17.701,
00:00:33:450,0.106,-0.155,0.977,23.986,-65.796,-32.654,
00:00:33:467,0.23,-0.189,0.896,-10.56,-103.516,-50.66,
00:00:33:484,0.386,-0.045,0.8,0.732,-97.046,-74.707,
00:00:33:500,0.237,0.018,0.803,-51.88,-107.605,-100.647,
00:00:33:517,0.209,0.188,0.788,-71.534,-56.336,-97.596,
00:00:33:534,0.076,0.193,0.885,-34.668,-19.715,-64.27,
00:00:33:550,0.018,0.238,1.053,-35.584,18.127,-30.762,
00:00:33:567,-0.045,0.177,1.192,-13.55,-6.653,-6.714,
00:00:33:584,-0.12,0.109,1.461,-114.502,-98.389,-10.56,
00:00:33:600,-0.218,0.264,1.47,-24.659,-189.576,44.067,
00:00:33:617,-0.213,0.161,1.141,188.415,-216.797,73.425,
00:00:33:634,-0.238,-0.024,0.823,271.484,-169.19,27.526,
00:00:33:650,-0.133,-0.09,0.754,84.35,-131.47,-20.203,
00:00:33:667,-0.238,0.075,0.927,-91.858,-144.532,-33.936,
00:00:33:684,-0.233,0.126,1.088,-65.491,-154.664,-16.236,
00:00:33:700,-0.198,0.139,1.096,59.875,-152.466,24.475,
00:00:33:717,-0.211,0.11,1.023,148.986,-154.053,57.617,
00:00:33:734,-0.228,0.088,0.948,201.782,-149.72,87.463,
00:00:33:750,-0.242,0.032,0.868,187.255,-132.874,99.426,
00:00:33:767,-0.257,0.019,0.846,110.962,-100.342,99.731,
00:00:33:784,-0.25,0.063,0.867,81.481,-69.153,96.496,
00:00:33:800,-0.256,0.058,0.901,100.952,-28.87,95.398,
00:00:33:817,-0.21,0.036,0.951,118.469,11.047,84.411,cutLH
00:00:33:834,-0.177,-0.016,0.972,140.503,30.761,67.443,
00:00:33:850,-0.163,-0.013,0.973,158.752,47.912,46.203,
00:00:33:867,-0.141,-0.072,0.957,171.997,56.884,17.028,
00:00:33:884,-0.144,-0.077,0.918,169.738,69.152,-10.376,
00:00:33:900,-0.133,-0.172,0.954,123.962,75.988,-39.978,
00:00:33:917,-0.158,-0.151,1.003,58.471,81.848,-62.439,
00:00:33:934,-0.141,-0.124,1.032,12.207,88.501,-65.613,
00:00:33:950,-0.15,-0.031,0.998,10.803,102.111,-49.744,
00:00:33:967,-0.137,0.023,0.96,61.462,119.262,-21.973,
00:00:33:984,-0.123,0.031,0.935,79.04,137.207,-1.099,
00:00:34:0,-0.07,-0.011,0.937,104.065,140.075,22.888,
00:00:34:17,-0.042,-0.067,0.962,51.33,126.77,37.902,
00:00:34:34,-0.039,-0.125,1.047,-37.598,94.848,35.034,
00:00:34:50,-0.053,-0.055,1.075,-59.815,74.157,36.438,
00:00:34:67,-0.067,0.015,1.029,8.972,77.453,34.057,
00:00:34:84,-0.068,-0.032,0.981,111.389,82.946,24.841,
00:00:34:100,-0.083,-0.056,0.946,149.841,89.782,20.324,
00:00:34:117,-0.021,-0.145,0.972,17.334,78.369,12.878,
00:00:34:134,-0.084,-0.098,1.025,-132.691,67.627,3.356,
00:00:34:150,-0.047,-0.014,1.063,-127.503,67.382,-0.977,
00:00:34:167,-0.026,-0.017,1.073,-34.241,77.148,-3.907,
00:00:34:184,-0.01,-0.103,1.095,30.7,55.297,-8.667,
00:00:34:200,-0.013,-0.085,1.107,5.432,29.357,-13.367,
00:00:34:217,-0.029,-0.071,1.083,-7.019,8.178,-15.381,
00:00:34:234,-0.062,0.003,1.026,-1.16,-5.372,-11.353,
00:00:34:250,-0.068,-0.002,1.026,18.981,-11.353,-7.203,
00:00:34:267,-0.074,0.005,0.991,20.935,-6.592,-3.357,
00:00:34:284,-0.059,-0.007,0.96,1.586,2.99,-4.517,
00:00:34:300,-0.087,0,0.916,-26.734,10.437,2.502,
00:00:34:317,-0.085,0.013,0.926,-23.743,38.879,7.568,
00:00:34:334,-0.057,0.004,0.907,23.437,68.237,6.408,
00:00:34:350,-0.067,-0.062,0.962,44.799,79.101,5.188,
00:00:34:367,-0.051,-0.086,1.008,16.418,82.214,3.479,
00:00:34:384,-0.022,-0.055,1.042,25.94,83.74,-2.442,
00:00:34:400,-0.007,-0.056,1.067,49.194,65.429,-8.118,
00:00:34:417,-0.019,-0.064,1.069,78.369,36.804,-19.898,
00:00:34:434,-0.015,-0.057,1.054,100.83,20.324,-21.424,
00:00:34:450,-0.039,-0.052,1.017,67.81,8.361,-31.556,
00:00:34:467,-0.059,-0.015,1.001,20.202,9.704,-34.18,
00:00:34:484,-0.066,0.022,0.977,0.854,24.414,-29.358,
00:00:34:500,-0.071,0.041,0.983,12.756,36.438,-24.048,
00:00:34:517,-0.041,0,0.997,16.296,45.776,-14.649,
00:00:34:534,-0.027,-0.029,1.018,11.23,47.668,-11.963,
00:00:34:550,0.004,-0.029,1.038,32.287,42.663,-10.254,
00:00:34:567,0.018,-0.083,1.074,55.786,18.249,-15.442,
00:00:34:584,-0.008,-0.098,1.05,38.513,5.798,-28.138,
00:00:34:600,-0.023,-0.067,1.019,33.691,-4.395,-35.584,
00:00:34:617,-0.04,-0.05,0.973,51.33,-5.982,-39.551,
00:00:34:634,-0.039,-0.069,0.953,34.362,-6.592,-31.189,
00:00:34:650,-0.036,-0.053,0.942,13.671,1.831,-26.185,
00:00:34:667,-0.023,-0.077,0.951,0.976,-2.93,-12.513,
00:00:34:684,-0.024,-0.079,0.962,-7.752,-2.381,-6.775,
00:00:34:700,-0.049,-0.103,0.959,8.178,-2.564,-1.77,
00:00:34:717,-0.081,-0.122,0.949,12.023,-6.592,7.934,
00:00:34:734,-0.081,-0.136,0.946,-1.465,-11.17,12.023,
00:00:34:750,-0.087,-0.129,0.938,-9.095,-17.456,22.888,
00:00:34:767,-0.075,-0.113,0.954,5.615,-25.025,32.226,
00:00:34:784,-0.066,-0.065,0.986,0.244,-31.617,30.09,
00:00:34:800,-0.058,-0.047,1.009,-19.532,-35.828,25.756,
00:00:34:817,-0.058,-0.02,1.026,-68.421,-43.274,14.221,
00:00:34:834,-0.05,-0.002,1.027,-126.282,-40.223,4.821,
00:00:34:850,-0.053,0.026,1.039,-121.705,-34.424,-2.259,
00:00:34:867,-0.06,0.039,1.06,-77.149,-12.024,-11.658,
00:00:34:884,-0.052,0.045,1.072,-13.245,5.676,-14.039,
00:00:34:900,-0.054,0.047,1.087,34.729,2.624,-12.024,
00:00:34:917,-0.056,0.002,1.059,50.659,-0.245,-3.54,
00:00:34:934,-0.078,-0.037,1.042,28.198,-10.804,-14.893,
00:00:34:950,-0.08,-0.06,1.008,10.559,-11.841,-0.123,
00:00:34:967,-0.086,-0.057,0.992,28.93,-15.259,-1.282,
00:00:34:984,-0.098,-0.09,0.959,49.682,-12.635,-5.127,
00:00:35:0,-0.118,-0.091,0.944,44.25,-5.066,-15.015,
00:00:35:17,-0.1,-0.13,0.952,-3.724,5.676,-28.931,
00:00:35:34,-0.11,-0.065,0.95,-36.683,11.779,-28.199,
00:00:35:50,-0.108,-0.06,0.957,-50.721,12.512,-22.889,
00:00:35:67,-0.131,-0.006,0.924,-43.335,15.197,-3.724,
00:00:35:84,-0.2,0.113,0.885,35.461,40.283,46.081,
00:00:35:100,-0.388,0.359,0.739,267.395,95.153,148.62,
00:00:35:117,-0.417,0.189,0.763,380.371,228.82,209.106,
00:00:35:134,-0.246,-0.208,0.974,173.462,291.32,224.243,
00:00:35:150,0.01,-0.484,1.293,-212.22,257.202,191.65,
00:00:35:167,0.205,-0.55,1.503,-312.989,167.175,108.215,
00:00:35:184,0.234,-0.482,1.486,-197.205,60.18,-10.193,
00:00:35:200,0.256,-0.279,1.332,-158.875,-41.199,-89.905,
00:00:35:217,0.229,0.088,1.078,-161.316,-86.426,-126.648,
00:00:35:234,0.248,0.277,0.916,-98.816,-76.966,-129.822,
00:00:35:250,0.401,0.271,0.858,-89.6,-51.819,-122.376,
00:00:35:267,0.45,0.261,0.893,-60.547,-59.449,-125.184,
00:00:35:284,0.461,0.132,0.958,62.255,-74.891,-142.64,
00:00:35:300,0.516,-0.047,1.172,125.061,-91.492,-182.19,
00:00:35:317,0.399,-0.169,1,248.779,-101.38,-236.39,
00:00:35:334,0.146,-0.311,0.944,147.155,-113.587,-269.715,
00:00:35:350,-0.089,-0.215,0.849,3.601,-107.483,-293.274,
00:00:35:367,-0.517,0.136,0.721,27.16,-84.595,-229.798,
00:00:35:384,-0.928,0.232,0.705,59.875,1.586,-128.54,
00:00:35:400,-1.053,0.167,0.731,-75.806,86.975,-54.017,
00:00:35:417,-0.927,-0.005,1.019,-314.454,75.744,14.892,
00:00:35:434,-0.646,-0.063,1.205,-374.878,67.382,31.555,
00:00:35:450,-0.555,-0.067,1.183,-261.841,26.001,36.254,
00:00:35:467,-0.507,0.007,1.052,-216.919,43.396,47.973,
00:00:35:484,-0.301,0.221,0.987,-162.781,83.129,86.853,
00:00:35:500,0.008,0.26,0.971,0,122.68,135.742,
00:00:35:517,0.254,0.084,0.981,74.34,121.582,193.664,
00:00:35:534,0.475,-0.062,0.95,30.944,106.323,201.538,
00:00:35:550,0.739,-0.293,0.994,8.606,106.506,137.085,
00:00:35:567,0.857,-0.476,0.974,-27.1,112.548,-8.423,
00:00:35:584,0.678,-0.428,0.83,-350.708,116.882,-240.418,
00:00:35:600,0.504,0.122,0.865,-748.047,189.331,-460.144,
00:00:35:617,0.383,0.481,1.065,-839.295,196.472,-546.326,
00:00:35:634,0.202,0.639,1.337,-626.099,165.344,-497.803,
00:00:35:650,-0.315,0.509,1.164,-225.831,63.293,-326.905,
00:00:35:667,-0.852,0.472,1.078,170.349,59.509,-151.795,
00:00:35:684,-0.806,0.008,1.042,375.793,70.495,-40.528,
00:00:35:700,-0.755,-0.317,0.945,88.745,45.471,-29.786,
00:00:35:717,-0.788,0.141,0.821,-219.178,43.396,-9.278,
00:00:35:734,-0.521,0.133,0.828,-163.208,129.577,18.737,
00:00:35:750,-0.266,0.41,0.807,-25.818,185.547,128.967,
00:00:35:767,0.195,0.317,0.877,198.181,254.943,226.989,
00:00:35:784,0.619,0.17,1.045,436.706,262.573,271.728,
00:00:35:800,1.146,-0.411,1.16,301.025,146.972,233.459,
00:00:35:817,1.265,-0.336,1.333,123.474,9.521,74.951,
00:00:35:834,1.096,-0.47,1.216,153.198,-145.203,-128.724,
00:00:35:850,0.745,0.099,0.807,17.639,-167.115,-251.16,
