TIMECODE,ACC_X,ACC_Y,ACC_Z,GYR_X,GYR_Y,GYR_Z,ECG_I,ECG_II,ECG_III,TAG
,0.531,-0.826,0.175,17.761,46.264,-161.194,0,0,0,
,0.511,-0.824,0.169,8.361,43.823,-146.79,0,0,0,
,0.5,-0.821,0.168,3.418,49.377,-125.123,0,0,0,
,0.496,-0.825,0.179,7.385,50.17,-109.314,0,0,0,
,0.497,-0.836,0.187,11.962,44.372,-96.436,0,0,0,
,0.497,-0.851,0.176,10.864,40.283,-86.609,0,0,0,
,0.496,-0.852,0.167,-0.733,40.405,-79.773,0,0,0,
,0.498,-0.846,0.159,-6.287,39.306,-70.74,0,0,0,
,0.502,-0.834,0.16,-3.54,38.147,-57.312,0,0,0,
,0.508,-0.835,0.161,-8.301,26.672,-40.955,0,0,0,
,0.498,-0.829,0.157,-40.894,29.357,-20.813,0,0,0,
,0.512,-0.809,0.161,-28.748,33.569,-6.897,0,0,0,
,0.519,-0.813,0.163,10.62,20.752,5.981,0,0,0,
,0.515,-0.83,0.162,18.981,17.822,16.479,0,0,0,
,0.516,-0.826,0.161,-6.348,26.367,32.531,0,0,0,
,0.524,-0.81,0.161,-22.95,31.066,46.447,0,0,0,
,0.53,-0.802,0.158,-33.509,34.484,77.941,0,0,0,
,0.543,-0.799,0.158,-40.101,36.499,77.636,0,0,0,
,0.544,-0.796,0.185,-52.979,36.987,96.191,0,0,0,
,0.547,-0.791,0.151,-64.82,43.579,116.211,0,0,0,
,0.555,-0.782,0.156,-63.904,44.189,133.667,0,0,0,
,0.558,-0.775,0.161,-58.106,43.335,149.902,0,0,0,
,0.563,-0.771,0.168,-51.636,39.489,169.983,0,0,0,
,0.571,-0.767,0.165,-44.495,33.813,181.945,0,0,0,
,0.569,-0.752,0.161,-39.002,31.372,201.11,0,0,0,
,0.569,-0.732,0.158,-25.208,29.907,224.182,0,0,0,
,0.579,-0.72,0.157,-2.686,30.029,255.615,0,0,0,
,0.59,-0.721,0.156,14.404,29.541,285.4,0,0,0,
,0.602,-0.704,0.15,25.94,38.086,320.312,0,0,0,
,0.616,-0.685,0.118,58.898,53.283,367.675,0,0,0,
,0.644,-0.64,0.061,190.429,76.965,424.926,0,0,0,
,0.68,-0.562,0.003,504.699,107.055,481.445,0,0,0,
,0.709,-0.516,-0.037,924.011,106.079,517.089,0,0,0,
,0.734,-0.601,-0.023,1312.622,63.598,523.742,0,0,0,
,0.759,-0.835,-0.01,1370.178,0.549,498.535,0,0,0,
,0.737,-1.041,-0.037,939.331,-10.498,469.299,0,0,0,
,0.702,-1.019,-0.058,205.627,59.997,447.631,0,0,0,
,0.712,-0.831,-0.057,-386.902,112.548,432.922,0,0,0,
,0.736,-0.675,-0.035,-650.025,143.737,423.523,0,0,0,
,0.746,-0.566,-0.001,-696.961,159.118,410.644,0,0,0,
,0.762,-0.553,0.037,-620.911,165.893,399.17,0,0,0,
,0.791,-0.54,0.083,-490.235,155.578,388.977,0,0,0,
,0.813,-0.563,0.111,-353.699,126.831,384.582,0,0,0,
,0.823,-0.61,0.133,-302.735,98.632,380.615,0,0,0,
,0.838,-0.619,0.132,-346.009,90.148,380.005,0,0,0,
,0.864,-0.594,0.157,-410.401,72.265,388.427,0,0,0,
,0.884,-0.571,0.186,-455.201,49.255,389.831,0,0,0,
,0.898,-0.557,0.215,-486.512,30.395,393.127,0,0,0,
,0.916,-0.537,0.227,-471.985,12.207,390.442,0,0,0,
,0.921,-0.516,0.231,-421.326,0.732,378.723,0,0,0,
,0.916,-0.484,0.224,-346.741,0.305,359.802,0,0,0,
,0.921,-0.476,0.219,-269.959,2.38,340.82,0,0,0,
,0.911,-0.474,0.208,-223.938,-1.893,306.762,0,0,0,
,0.908,-0.471,0.192,-226.136,7.873,274.719,0,0,0,
,0.901,-0.453,0.179,-219.788,7.629,235.717,0,0,0,
,0.898,-0.44,0.168,-220.398,18.188,202.331,0,0,0,
,0.896,-0.434,0.158,-220.398,21.85,169.433,0,0,0,
,0.893,-0.428,0.154,-211.182,24.841,143.188,0,0,0,
,0.888,-0.414,0.15,-202.576,29.48,119.629,0,0,0,
,0.894,-0.407,0.137,-176.209,30.456,102.661,0,0,0,
,0.895,-0.41,0.132,-144.776,25.695,84.533,0,0,0,
,0.898,-0.408,0.134,-124.329,23.254,69.336,0,0,0,
,0.9,-0.4,0.124,-114.685,24.536,61.035,0,0,0,
,0.909,-0.393,0.116,-91.98,20.202,58.227,0,0,0,
,0.913,-0.391,0.121,-59.937,14.77,55.908,0,0,0,
,0.908,-0.391,0.116,-29.969,12.146,52.307,0,0,0,
,0.907,-0.395,0.116,-4.7,4.882,50.842,0,0,0,
,0.906,-0.393,0.116,8.178,5.065,49.133,0,0,0,
,0.897,-0.39,0.118,20.507,2.502,45.898,0,0,0,
,0.89,-0.39,0.12,37.048,0.061,39.917,0,0,0,
,0.89,-0.389,0.12,45.471,3.723,33.386,0,0,0,
,0.891,-0.389,0.121,50.17,3.112,32.165,0,0,0,
,0.889,-0.39,0.123,56.701,0.915,21.362,0,0,0,
,0.892,-0.389,0.125,59.509,1.281,12.695,0,0,0,
,0.886,-0.388,0.127,59.387,2.685,4.699,0,0,0,
,0.88,-0.385,0.131,55.847,5.92,-4.456,0,0,0,
,0.869,-0.385,0.131,51.025,10.925,-12.879,0,0,0,
,0.872,-0.385,0.136,45.227,15.686,-28.138,0,0,0,
,0.888,-0.381,0.14,44.738,13.305,-36.316,0,0,0,
,0.91,-0.38,0.144,50.659,11.535,-48.401,0,0,0,
,0.921,-0.374,0.142,64.697,4.821,-57.129,0,0,0,
,0.968,-0.379,0.136,84.289,5.249,-59.388,0,0,0,
,0.958,-0.393,0.138,94.543,0.488,-60.791,0,0,0,
,0.977,-0.4,0.141,85.998,1.586,-59.937,0,0,0,
,0.98,-0.404,0.148,69.336,3.295,-55.97,0,0,0,
,0.983,-0.395,0.151,64.209,3.601,-54.261,0,0,0,
,0.979,-0.391,0.154,65.368,-0.367,-53.65,0,0,0,
,0.958,-0.388,0.16,73.181,3.967,-56.336,0,0,0,
,0.94,-0.391,0.167,72.692,8.239,-62.256,0,0,0,
,0.921,-0.394,0.172,58.837,21.301,-69.581,0,0,0,
,0.91,-0.403,0.18,28.137,30.456,-76.294,0,0,0,
,0.898,-0.402,0.185,-18.433,44.067,-84.778,0,0,0,
,0.886,-0.392,0.187,-59.876,56.396,-93.934,0,0,0,
,0.876,-0.387,0.188,-88.44,61.401,-94.544,0,0,0,
,0.87,-0.387,0.189,-114.502,63.415,-97.657,0,0,0,
,0.862,-0.383,0.188,-132.203,61.157,-97.413,0,0,0,
,0.855,-0.376,0.179,-141.968,60.607,-90.821,0,0,0,
,0.86,-0.374,0.17,-136.78,53.039,-83.802,0,0,0,
,0.861,-0.377,0.168,-132.508,44.616,-73.548,0,0,0,
,0.863,-0.375,0.15,-141.968,43.396,-61.585,0,0,0,
,0.874,-0.38,0.157,-157.776,29.296,-43.824,0,0,0,
,0.874,-0.38,0.163,-170.594,25.085,-30.823,0,0,0,
,0.878,-0.366,0.159,-167.725,13.977,-22.339,0,0,0,
,0.884,-0.352,0.153,-137.024,0.793,-15.686,0,0,0,
,0.887,-0.353,0.15,-94.971,-11.78,-10.193,0,0,0,
,0.907,-0.368,0.154,-63.416,-23.804,-3.724,0,0,0,
,0.917,-0.38,0.157,-50.599,-31.006,0.488,0,0,0,
,0.894,-0.367,0.15,-43.457,-42.359,-4.456,0,0,0,
,0.891,-0.363,0.158,-30.274,-47.913,-13.123,0,0,0,
,0.879,-0.357,0.166,-10.193,-49.927,-26.978,0,0,0,
,0.88,-0.354,0.161,21.423,-54.2,-40.345,0,0,0,
,0.891,-0.367,0.161,49.377,-58.35,-52.43,0,0,0,
,0.911,-0.378,0.164,64.575,-64.209,-63.843,0,0,0,
,0.932,-0.387,0.155,67.871,-63.599,-67.688,0,0,0,
,0.955,-0.386,0.149,71.472,-64.026,-66.529,0,0,0,
,0.962,-0.382,0.146,81.604,-61.951,-61.89,0,0,0,
,0.949,-0.377,0.152,92.163,-64.087,-57.129,0,0,0,
,0.924,-0.367,0.149,109.314,-58.167,-55.664,0,0,0,
,0.901,-0.36,0.148,136.108,-49.134,-53.528,0,0,0,
,0.873,-0.364,0.146,151.306,-38.758,-53.894,0,0,0,
,0.856,-0.373,0.146,141.357,-24.109,-51.697,0,0,0,
,0.843,-0.378,0.143,106.689,-6.226,-49.988,0,0,0,
,0.843,-0.377,0.143,69.885,9.948,-45.838,0,0,0,
,0.844,-0.379,0.147,36.499,16.235,-40.162,0,0,0,
,0.849,-0.372,0.148,9.521,23.437,-28.687,0,0,0,
,0.863,-0.367,0.146,-0.123,27.465,-13.489,0,0,0,
,0.88,-0.363,0.154,8.972,23.498,1.648,0,0,0,
,0.887,-0.364,0.148,23.864,18.554,16.54,0,0,0,
,0.892,-0.367,0.152,46.142,14.404,30.029,0,0,0,
,0.895,-0.372,0.15,69.641,7.568,41.931,0,0,0,
,0.894,-0.379,0.162,84.289,3.295,50.72,0,0,0,
,0.892,-0.386,0.162,86.853,0.793,56.335,0,0,0,
,0.893,-0.394,0.166,76.66,3.784,58.96,0,0,0,
,0.897,-0.39,0.165,67.749,9.643,59.814,0,0,0,
,0.903,-0.391,0.178,59.143,12.268,58.654,0,0,0,
,0.912,-0.4,0.181,50.598,16.784,57.312,0,0,0,
,0.917,-0.399,0.185,43.09,16.723,51.025,0,0,0,
,0.902,-0.397,0.183,39.428,18.676,43.457,0,0,0,
,0.908,-0.393,0.178,44.189,17.028,34.912,0,0,0,
,0.912,-0.385,0.169,51.94,14.587,27.465,0,0,0,
,0.909,-0.382,0.176,67.138,10.803,22.461,0,0,0,
,0.908,-0.386,0.176,88.195,4.699,19.836,0,0,0,
,0.905,-0.404,0.22,112.671,-8.728,16.845,0,0,0,
,0.893,-0.42,0.214,126.709,-18.433,7.629,0,0,0,
,0.887,-0.422,0.18,88.745,-11.414,12.634,0,0,0,
,0.89,-0.418,0.168,51.086,-10.437,13.61,0,0,0,
,0.893,-0.41,0.141,13.977,-8.484,20.385,0,0,0,
,0.89,-0.382,0.135,-3.54,-9.949,29.419,0,0,0,
,0.89,-0.372,0.144,-1.16,-14.039,39.062,0,0,0,
,0.891,-0.379,0.154,1.281,-14.954,46.02,0,0,0,
,0.894,-0.388,0.154,-7.325,-12.879,46.508,0,0,0,
,0.894,-0.383,0.162,-12.391,-9.644,47.79,0,0,0,
,0.898,-0.389,0.167,25.146,-11.231,20.507,0,0,0,
,0.911,-0.385,0.175,31.616,-7.203,4.15,0,0,0,
,0.915,-0.387,0.174,45.776,-4.639,-13.794,0,0,0,
,0.909,-0.384,0.172,45.654,-0.489,-32.776,0,0,0,
,0.908,-0.384,0.175,37.963,4.516,-51.209,0,0,0,
,0.91,-0.373,0.167,40.527,9.643,-70.13,0,0,0,
,0.933,-0.365,0.165,53.772,6.469,-86.243,0,0,0,
,0.927,-0.347,0.16,84.167,-2.32,-96.68,0,0,0,
,0.911,-0.346,0.164,133.789,-13.611,-107.239,0,0,0,
,0.9,-0.358,0.172,170.959,-24.17,-111.451,0,0,0,
,0.872,-0.381,0.192,180.236,-27.649,-109.375,0,0,0,
,0.862,-0.402,0.2,147.705,-26.795,-107.178,0,0,0,
,0.877,-0.415,0.2,83.557,-21.18,-98.816,0,0,0,
,0.891,-0.406,0.197,24.353,-18.677,-87.586,0,0,0,
,0.895,-0.396,0.188,-13.55,-20.997,-74.769,0,0,0,
,0.903,-0.387,0.192,-31.922,-25.696,-60.914,0,0,0,
,0.894,-0.385,0.182,-42.115,-30.945,-49.439,0,0,0,
,0.889,-0.382,0.172,-53.04,-30.213,-37.293,0,0,0,
,0.886,-0.376,0.171,-63.172,-29.419,-26.368,0,0,0,
,0.892,-0.372,0.167,-57.007,-33.204,-18.616,0,0,0,
,0.895,-0.372,0.167,-43.702,-33.692,-15.503,0,0,0,
,0.892,-0.376,0.155,-38.269,-34.546,-10.987,0,0,0,
,0.892,-0.38,0.156,-29.908,-31.25,-9.217,0,0,0,
,0.891,-0.379,0.151,-23.194,-29.664,-11.719,0,0,0,
,0.892,-0.381,0.147,-24.109,-23.926,-12.391,0,0,0,
,0.891,-0.377,0.149,-28.199,-16.175,-17.884,0,0,0,
,0.895,-0.375,0.141,-27.649,-8.057,-23.438,0,0,0,
,0.899,-0.376,0.149,-26.185,-2.808,-27.466,0,0,0,
,0.895,-0.382,0.145,-34.485,7.08,-37.232,0,0,0,
,0.897,-0.375,0.145,-35.34,22.033,-44.312,0,0,0,
,0.902,-0.376,0.144,-31.556,29.968,-52.857,0,0,0,
,0.902,-0.38,0.146,-28.748,40.344,-59.266,0,0,0,
,0.901,-0.384,0.147,-38.086,51.879,-60.914,0,0,0,
,0.898,-0.385,0.154,-47.547,57.678,-61.036,0,0,0,
,0.899,-0.381,0.157,-52.857,64.209,-60.914,0,0,0,
,0.895,-0.378,0.16,-54.627,69.946,-62.134,0,0,0,
,0.892,-0.379,0.165,-55.481,74.157,-64.698,0,0,0,
,0.892,-0.375,0.168,-55.42,73.791,-65.857,0,0,0,
,0.898,-0.377,0.172,-53.589,73.059,-68.787,0,0,0,
,0.901,-0.378,0.179,-55.909,75.378,-65.491,0,0,0,
,0.903,-0.378,0.184,-54.932,73.913,-67.933,0,0,0,
,0.9,-0.379,0.194,-54.627,76.049,-64.759,0,0,0,
,0.901,-0.372,0.192,-51.758,74.096,-64.576,0,0,0,
,0.899,-0.374,0.198,-45.166,68.542,-60.975,0,0,0,
,0.896,-0.377,0.199,-42.847,68.176,-57.007,0,0,0,
,0.894,-0.377,0.199,-42.298,62.5,-51.27,0,0,0,
,0.896,-0.384,0.205,-45.533,56.213,-47.364,0,0,0,
,0.893,-0.385,0.2,-58.533,52.734,-39.063,0,0,0,
,0.894,-0.376,0.206,-56.58,43.212,-31.311,0,0,0,
,0.894,-0.376,0.199,-45.96,33.447,-24.659,0,0,0,
,0.892,-0.376,0.196,-41.138,28.076,-15.931,0,0,0,
,0.892,-0.376,0.192,-39.49,22.277,-7.386,0,0,0,
,0.897,-0.376,0.182,-38.636,16.601,0.366,0,0,0,
,0.899,-0.377,0.175,-36.622,11.413,8.728,0,0,0,
,0.899,-0.38,0.171,-37.049,10.437,18.676,0,0,0,
,0.902,-0.386,0.159,-37.72,10.681,30.334,0,0,0,
,0.9,-0.398,0.153,-55.787,16.723,49.316,0,0,0,
,0.89,-0.406,0.149,-73.426,27.771,66.04,0,0,0,
,0.868,-0.419,0.143,-82.154,56.518,87.341,0,0,0,
,0.84,-0.469,0.164,-76.783,103.332,114.013,0,0,0,
,0.789,-0.582,0.233,-116.7,151.733,139.16,0,0,0,
,0.752,-0.763,0.322,-245.362,174.804,125.061,0,0,0,
,0.802,-0.86,0.382,-384.705,155.578,100.83,0,0,0,
,0.873,-1.009,0.428,-407.593,73.913,61.95,0,0,0,
,0.904,-1.271,0.56,-336.548,-33.509,-42.42,0,0,0,
,0.872,-1.683,0.679,-251.831,-167.176,-243.714,0,0,0,
,0.88,-1.993,0.704,-223.267,-228.15,-593.018,0,0,0,
,1.03,-2.05,0.743,-105.713,-210.267,-1070.984,0,0,0,
,1.249,-2.101,0.764,231.994,-177.857,-1595.093,0,0,0,
,1.473,-2.229,0.664,710.571,-113.099,-2000,0,0,0,
,1.721,-2.403,0.378,1193.054,0.122,-2000,0,0,0,
,1.994,-2.623,0.022,1481.933,230.163,-2000,0,0,0,
,2.242,-2.842,-0.404,1431.213,597.534,-2000,0,0,0,
,2.565,-3.025,-0.589,1075.866,961.242,-2000,0,0,0,
,2.878,-3.058,-0.526,403.869,1120.727,-2000,0,0,0,
,2.901,-2.718,-0.504,-305.298,1082.763,-2000,0,0,0,
,2.757,-2.293,-0.687,-763.001,979.553,-2000,0,0,0,
,2.603,-1.946,-0.774,-827.332,904.968,-2000,0,0,0,
,2.343,-1.652,-0.814,-674.439,893.188,-2000,0,0,0,
,2.098,-1.363,-0.693,-527.466,971.191,-2000,0,0,0,
,1.932,-1.137,-0.597,-346.375,1071.594,-2000,0,0,0,
,1.779,-0.879,-0.502,-162.293,1170.044,-2000,0,0,0,
,1.636,-0.621,-0.421,-121.155,1282.409,-2000,0,0,0,
,1.56,-0.41,-0.419,-272.522,1376.159,-2000,0,0,0,
,1.551,-0.215,-0.423,-493.226,1422.546,-2000,0,0,0,
,1.617,-0.047,-0.405,-733.887,1390.991,-2000,0,0,0,
,1.62,0.1,-0.388,-974.366,1341.797,-2000,0,0,0,
,1.565,0.361,-0.313,-1148.926,1275.573,-2000,0,0,0,
,1.541,0.631,-0.269,-1221.863,1167.358,-2000,0,0,0,
,1.532,0.881,-0.214,-1179.261,999.267,-2000,0,0,0,
,1.419,1.096,-0.129,-1125.55,803.894,-1707.154,0,0,0,
,1.269,1.316,-0.13,-1037.781,610.351,-993.958,0,0,0,
,1.158,1.481,-0.014,-779.053,386.84,-209.9,0,0,0,
,1.083,1.497,0.125,-329.224,117.859,730.896,0,0,0,
,1.108,1.355,0.244,187.194,-186.524,1718.811,0,0,0,
,1.258,1.153,0.224,717.529,-523.987,1999.694,0,0,0,
,1.451,0.849,0.104,1185.852,-906.678,1999.694,0,0,0,
,1.669,0.382,-0.074,1461.364,-1328.553,1999.694,0,0,0,
,1.812,-0.041,-0.275,1552.49,-1675.66,1999.694,0,0,0,
,1.906,-0.238,-0.359,1616.516,-1923.157,1999.694,0,0,0,
,2.156,-0.516,-0.265,1700.927,-2000,1999.694,0,0,0,
,2.62,-1.191,-0.347,1608.581,-2000,1999.694,0,0,0,
,2.892,-2.093,-0.644,1143.005,-2000,1999.694,0,0,0,
,2.629,-2.383,-1.537,608.032,-2000,1999.694,0,0,0,
,2.768,-1.616,-1.84,1040.771,-2000,1999.694,0,0,0,
,3.999,-3.005,-1.546,1999.694,-2000,1999.694,0,0,0,
,3.999,-4,-1.044,886.108,-2000,1999.694,0,0,0,
,3.745,-3.134,-0.844,-998.597,-2000,1999.694,0,0,0,
,3.714,-2.846,-0.821,-1722.901,-2000,1999.694,0,0,0,
,3.95,-3.28,-0.337,-2000,-2000,1999.694,0,0,0,
,3.966,-3.23,-0.138,-2000,-1873.108,1999.694,0,0,0,
,3.373,-2.614,-0.465,-1730.713,-1315.613,1999.694,0,0,0,
,2.096,-2.04,-1.477,174.804,-631.47,1999.694,0,0,0,
,0.85,-1.332,-0.555,1999.694,-290.894,1565.429,0,0,0,
,1.402,-1.104,0.467,1999.694,-263.428,451.172,0,0,0,
,1.967,-1.701,0.337,1999.694,-524.231,598.632,0,0,0,
,0.924,-1.631,-0.197,118.164,-612.671,959.35,0,0,0,
,0.588,-1.33,-0.461,-1333.924,-309.876,739.441,0,0,0,
,0.897,-1.048,-0.296,-1747.559,-113.77,539.856,0,0,0,
,0.865,-1.026,-0.071,-1712.525,-118.714,509.338,0,0,0,
,0.606,-1.052,0.017,-1624.512,-89.112,477.844,0,0,0,
,0.59,-0.945,-0.004,-1507.874,-44.19,412.231,0,0,0,
,0.702,-0.87,-0.079,-1195.069,-19.165,283.203,0,0,0,
,0.788,-0.873,-0.085,-871.216,-14.405,69.458,0,0,0,
,0.851,-0.861,-0.052,-807.862,19.043,-106.385,0,0,0,
,0.922,-0.767,-0.036,-945.496,31.677,-244.751,0,0,0,
,0.94,-0.654,-0.097,-1080.445,30.029,-344.056,0,0,0,
,0.941,-0.613,-0.164,-1214.356,51.208,-427.735,0,0,0,
,0.971,-0.534,-0.213,-1297.608,68.176,-528.687,0,0,0,
,1.037,-0.429,-0.276,-1265.992,92.224,-631.409,0,0,0,
,1.045,-0.393,-0.318,-1205.14,106.14,-701.844,0,0,0,
,1.062,-0.396,-0.355,-1281.067,133.117,-719.117,0,0,0,
,1.058,-0.305,-0.404,-1436.951,94.604,-710.694,0,0,0,
,1.033,-0.216,-0.478,-1499.146,27.16,-731.69,0,0,0,
,1.069,-0.195,-0.556,-1558.289,-40.711,-722.596,0,0,0,
,1.122,-0.174,-0.612,-1691.895,-85.511,-653.138,0,0,0,
,1.157,-0.107,-0.659,-1784.546,-144.532,-584.961,0,0,0,
,1.214,0.024,-0.764,-1751.221,-213.501,-523.011,0,0,0,
,1.271,0.094,-0.849,-1589.173,-262.757,-483.521,0,0,0,
,1.291,0.068,-0.893,-1441.102,-288.636,-453.858,0,0,0,
,1.304,0.033,-0.913,-1455.384,-281.189,-412.354,0,0,0,
,1.32,0.05,-0.946,-1557.374,-252.503,-384.583,0,0,0,
,1.308,0.088,-0.998,-1668.885,-198.914,-378.296,0,0,0,
,1.234,0.082,-1.003,-1763.306,-127.442,-393.86,0,0,0,
,1.194,0.092,-1.042,-1849.305,-37.903,-417.542,0,0,0,
,1.148,0.081,-1.018,-1898.438,55.603,-444.886,0,0,0,
,1.09,0.037,-0.98,-1940.98,143.188,-463.685,0,0,0,
,1.041,-0.004,-0.937,-1972.779,214.904,-470.215,0,0,0,
,1.028,-0.018,-0.897,-1984.803,268.493,-486.084,0,0,0,
,1.03,-0.023,-0.864,-1954.896,294.372,-516.419,0,0,0,
,1.023,-0.062,-0.817,-1882.02,302.429,-550.477,0,0,0,
,1.035,-0.094,-0.756,-1814.759,317.016,-587.098,0,0,0,
,1.088,-0.113,-0.7,-1777.161,318.908,-620.667,0,0,0,
,1.134,-0.13,-0.659,-1740.052,311.645,-654.541,0,0,0,
,1.178,-0.143,-0.61,-1684.083,312.439,-696.228,0,0,0,
,1.168,-0.192,-0.521,-1548.951,282.104,-755.921,0,0,0,
,1.171,-0.25,-0.458,-1364.808,288.574,-837.952,0,0,0,
,1.222,-0.288,-0.4,-1180.054,280.395,-918.763,0,0,0,
,1.306,-0.278,-0.361,-1063.05,305.542,-981.385,0,0,0,
,1.341,-0.229,-0.336,-1003.479,341.552,-1035.035,0,0,0,
,1.356,-0.148,-0.308,-1049.134,369.567,-1052.063,0,0,0,
,1.363,-0.037,-0.294,-1171.509,370.727,-1030.701,0,0,0,
,1.272,0.044,-0.266,-1329.224,345.214,-960.572,0,0,0,
,1.175,0.144,-0.215,-1448.121,322.143,-871.521,0,0,0,
,1.119,0.247,-0.184,-1428.528,288.208,-800.354,0,0,0,
,1.081,0.345,-0.136,-1293.641,251.098,-734.009,0,0,0,
,1.06,0.429,-0.084,-1081.421,210.937,-658.02,0,0,0,
,1.072,0.44,-0.055,-882.447,172.058,-564.026,0,0,0,
,1.127,0.442,-0.033,-756.714,158.203,-446.473,0,0,0,
,1.157,0.44,0.004,-691.712,141.174,-323.67,0,0,0,
,1.166,0.459,0.048,-652.161,135.803,-191.895,0,0,0,
,1.119,0.458,0.099,-589.417,125.488,-70.618,0,0,0,
,1.044,0.41,0.121,-530.64,109.497,58.593,0,0,0,
,0.988,0.355,0.136,-496.155,98.632,176.696,0,0,0,
,0.934,0.313,0.18,-455.994,82.641,292.541,0,0,0,
,0.939,0.328,0.147,-318.909,56.884,391.784,0,0,0,
,0.904,0.261,0.181,-128.174,37.658,477.6,0,0,0,
,0.944,0.184,0.219,-36.744,53.527,567.077,0,0,0,
,0.971,0.103,0.232,-33.509,67.993,650.268,0,0,0,
,0.998,0.094,0.249,-110.84,81.359,722.534,0,0,0,
,1.024,0.129,0.278,-140.931,79.284,799.926,0,0,0,
,1.084,0.074,0.288,-72.754,57.19,857.849,0,0,0,
,1.111,-0.012,0.273,2.868,47.79,900.756,0,0,0,
,1.119,-0.089,0.277,69.274,36.193,923.339,0,0,0,
,1.102,-0.147,0.293,130.432,24.597,938.415,0,0,0,
,1.119,-0.19,0.277,191.65,33.264,939.697,0,0,0,
,1.178,-0.263,0.252,237.487,34.545,937.5,0,0,0,
,1.234,-0.356,0.27,280.639,18.92,921.386,0,0,0,
,1.271,-0.44,0.273,303.527,3.356,882.934,0,0,0,
,1.284,-0.521,0.283,308.044,-30.396,840.088,0,0,0,
,1.253,-0.585,0.28,300.964,-23.621,795.349,0,0,0,
,1.191,-0.651,0.296,257.69,-19.043,739.257,0,0,0,
,1.066,-0.681,0.306,191.528,-7.569,679.077,0,0,0,
,0.965,-0.683,0.316,109.741,12.39,614.135,0,0,0,
,1.051,-0.736,0.344,-6.165,25.94,528.259,0,0,0,
,1.113,-0.75,0.313,-120.667,19.653,443.847,0,0,0,
,1.029,-0.69,0.295,-175.538,3.967,344.787,0,0,0,
,0.886,-0.59,0.245,-129.944,-27.1,213.195,0,0,0,
,0.759,-0.51,0.194,-46.998,-62.745,50.781,0,0,0,
,0.697,-0.478,0.144,-6.836,-88.99,-124.451,0,0,0,
,0.741,-0.47,0.095,-40.039,-90.821,-285.828,0,0,0,
,0.897,-0.499,0.071,-167.542,-85.572,-419.922,0,0,0,
,1.031,-0.501,0.038,-309.266,-82.032,-521.424,0,0,0,
,1.087,-0.469,0.008,-409.18,-92.835,-623.536,0,0,0,
,1.089,-0.417,-0.036,-466.98,-90.455,-713.379,0,0,0,
,1.081,-0.372,-0.048,-474.793,-86.67,-792.115,0,0,0,
,1.087,-0.359,-0.039,-458.435,-76.722,-860.535,0,0,0,
,1.08,-0.368,0.015,-421.509,-77.027,-909.852,0,0,0,
,1.054,-0.404,0.066,-351.319,-68.543,-961.304,0,0,0,
,1.033,-0.395,0.103,-252.503,-68.055,-1009.156,0,0,0,
,1.011,-0.429,0.117,-159.363,-59.998,-1059.388,0,0,0,
,1.002,-0.47,0.114,-121.155,-44.617,-1108.338,0,0,0,
,1.021,-0.502,0.1,-140.686,-25.391,-1097.291,0,0,0,
,1.069,-0.522,0.07,-197.998,-16.358,-1082.642,0,0,0,
,1.143,-0.528,0.016,-283.143,-21.241,-1039.429,0,0,0,
,1.228,-0.538,-0.042,-398.255,-45.289,-978.028,0,0,0,
,1.325,-0.554,-0.096,-528.138,-91.431,-923.34,0,0,0,
,1.315,-0.434,-0.239,-661.988,-145.569,-858.521,0,0,0,
,1.228,-0.342,-0.275,-604.065,-159.79,-847.901,0,0,0,
,1.141,-0.275,-0.261,-502.198,-167.847,-853.333,0,0,0,
,1.076,-0.252,-0.227,-426.148,-159.058,-862.732,0,0,0,
,1.035,-0.255,-0.18,-385.804,-140.137,-876.587,0,0,0,
,1.011,-0.258,-0.136,-357.3,-120.057,-890.564,0,0,0,
,1.005,-0.254,-0.102,-289.002,-114.441,-900.269,0,0,0,
,1.001,-0.243,-0.09,-154.847,-115.235,-914.551,0,0,0,
,0.99,-0.242,-0.095,35.217,-120.423,-919.434,0,0,0,
,1,-0.267,-0.094,193.603,-116.639,-917.42,0,0,0,
,1.054,-0.297,-0.106,338.928,-90.882,-901.856,0,0,0,
,1.106,-0.315,-0.108,452.758,-57.435,-871.277,0,0,0,
,1.103,-0.318,-0.105,539.306,-15.442,-836.609,0,0,0,
,1.053,-0.31,-0.066,591.613,41.442,-798.279,0,0,0,
,0.994,-0.322,-0.01,598.51,99.365,-755.921,0,0,0,
,0.964,-0.38,0.061,547.363,139.16,-701.722,0,0,0,
,1.031,-0.474,0.147,421.447,154.052,-615.845,0,0,0,
,1.07,-0.508,0.156,227.172,174.316,-502.381,0,0,0,
,0.977,-0.485,0.171,45.837,154.235,-398.743,0,0,0,
,0.82,-0.41,0.201,-63.416,156.799,-266.968,0,0,0,
,0.735,-0.391,0.242,-69.947,125.366,-121.033,0,0,0,
,0.671,-0.325,0.246,6.897,120.239,69.519,0,0,0,
,0.658,-0.282,0.245,185.547,108.764,278.015,0,0,0,
,0.657,-0.265,0.276,424.682,84.838,496.46,0,0,0,
,0.657,-0.341,0.309,638.305,70.8,700.927,0,0,0,
,0.692,-0.469,0.379,710.388,51.147,876.831,0,0,0,
,0.746,-0.557,0.454,624.084,30.944,1023.925,0,0,0,
,0.841,-0.622,0.52,458.801,-6.287,1115.173,0,0,0,
,0.923,-0.651,0.545,255.615,-58.533,1147.277,0,0,0,
,0.967,-0.624,0.546,51.025,-103.211,1148.559,0,0,0,
,0.975,-0.552,0.515,-80.201,-152.894,1117.004,0,0,0,
,0.95,-0.44,0.444,-91.126,-201.111,1075.683,0,0,0,
,0.909,-0.347,0.363,-12.94,-249.573,1042.907,0,0,0,
,0.888,-0.318,0.307,115.478,-293.763,1009.521,0,0,0,
,0.851,-0.376,0.276,235.839,-339.173,983.215,0,0,0,
,0.857,-0.419,0.28,237.793,-344.91,960.022,0,0,0,
,0.892,-0.474,0.287,223.327,-351.563,933.471,0,0,0,
,0.933,-0.528,0.288,176.025,-352.539,908.63,0,0,0,
,0.965,-0.557,0.275,104.187,-347.718,882.324,0,0,0,
,0.973,-0.575,0.257,21.728,-350.403,852.234,0,0,0,
,0.97,-0.567,0.219,-60.181,-349.671,817.321,0,0,0,
,0.948,-0.527,0.185,-123.047,-339.295,792.663,0,0,0,
,0.925,-0.488,0.161,-133.667,-334.778,771.179,0,0,0,
,0.914,-0.459,0.137,-85.633,-332.947,753.906,0,0,0,
,0.908,-0.452,0.114,-8.545,-331.665,734.069,0,0,0,
,0.907,-0.468,0.065,63.903,-320.008,711.364,0,0,0,
,0.92,-0.491,0.087,109.314,-286.499,687.011,0,0,0,
,0.952,-0.519,0.088,133.117,-245.789,655.456,0,0,0,
,0.996,-0.563,0.094,109.863,-199.952,616.333,0,0,0,
,1.009,-0.61,0.11,42.358,-144.959,569.397,0,0,0,
,0.995,-0.639,0.126,-44.617,-85.694,513.183,0,0,0,
,0.968,-0.657,0.146,-124.268,-30.457,441.04,0,0,0,
,0.975,-0.687,0.143,-198.975,31.494,349.304,0,0,0,
,1.102,-0.759,0.145,-297.242,104.858,225.463,0,0,0,
,1.165,-0.778,0.108,-362.732,177.185,82.885,0,0,0,
,1.122,-0.726,0.091,-397.706,255.31,-93.75,0,0,0,
,1.032,-0.673,0.092,-421.143,322.448,-306.58,0,0,0,
,0.991,-0.6,0.103,-470.581,380.92,-482.544,0,0,0,
,0.94,-0.533,0.122,-548.706,415.588,-662.415,0,0,0,
,0.882,-0.468,0.114,-623.352,439.697,-832.581,0,0,0,
,0.865,-0.443,0.095,-666.382,443.725,-970.948,0,0,0,
,0.907,-0.45,0.066,-712.769,447.876,-1099.976,0,0,0,
,0.992,-0.462,0.029,-792.481,459.533,-1199.036,0,0,0,
,1.081,-0.452,0.014,-878.113,473.816,-1274.598,0,0,0,
,1.2,-0.436,0.025,-935.852,471.557,-1339.844,0,0,0,
,1.441,-0.4,0.061,-924.256,405.456,-1439.087,0,0,0,
,1.48,-0.36,0.055,-829.834,356.018,-1470.643,0,0,0,
,1.449,-0.323,0.047,-668.702,304.138,-1485.535,0,0,0,
,1.384,-0.324,0.037,-485.108,261.352,-1491.578,0,0,0,
,1.322,-0.375,0.022,-375.611,256.225,-1489.38,0,0,0,
,1.291,-0.418,0.009,-395.325,289.734,-1473.389,0,0,0,
,1.269,-0.399,-0.026,-576.416,319.885,-1416.565,0,0,0,
,1.231,-0.362,-0.045,-630.677,304.077,-1379.151,0,0,0,
,1.178,-0.324,-0.071,-659.607,278.93,-1325.562,0,0,0,
,1.12,-0.291,-0.089,-654.908,242.492,-1255.433,0,0,0,
,1.044,-0.269,-0.098,-593.628,202.514,-1192.566,0,0,0,
,0.967,-0.248,-0.083,-467.347,164.856,-1132.569,0,0,0,
,0.893,-0.231,-0.058,-301.575,128.418,-1076.233,0,0,0,
,0.808,-0.219,-0.035,-145.63,83.923,-1017.945,0,0,0,
,0.715,-0.216,-0.023,-4.273,57.19,-956.299,0,0,0,
,0.644,-0.217,-0.009,132.629,50.354,-889.954,0,0,0,
,0.604,-0.237,0.017,265.014,46.203,-812.561,0,0,0,
,0.596,-0.295,0.041,337.158,35.156,-722.229,0,0,0,
,0.631,-0.383,0.1,218.2,25.634,-495.423,0,0,0,
,0.662,-0.385,0.105,142.7,13.855,-365.845,0,0,0,
,0.689,-0.374,0.102,116.577,-7.264,-248.475,0,0,0,
,0.697,-0.365,0.101,129.211,-29.541,-94.544,0,0,0,
,0.699,-0.373,0.101,143.432,-48.523,70.861,0,0,0,
,0.737,-0.398,0.117,149.414,-66.773,237.365,0,0,0,
,0.838,-0.434,0.138,160.095,-96.802,456.115,0,0,0,
,0.901,-0.465,0.166,185.485,-148.743,679.443,0,0,0,
,0.92,-0.485,0.154,228.088,-190.735,900.695,0,0,0,
,0.918,-0.486,0.139,273.742,-234.436,1127.807,0,0,0,
,0.893,-0.471,0.142,324.035,-277.161,1342.712,0,0,0,
,0.904,-0.484,0.151,357.971,-301.636,1533.142,0,0,0,
,0.968,-0.536,0.165,337.036,-328.736,1697.937,0,0,0,
,1.071,-0.598,0.212,238.586,-360.901,1841.43,0,0,0,
,1.227,-0.67,0.272,65.185,-405.274,1940.734,0,0,0,
,1.379,-0.7,0.311,-134.949,-451.905,1971.862,0,0,0,
,1.462,-0.639,0.303,-278.809,-469.361,1916.198,0,0,0,
,1.296,-0.192,0.07,-187.439,-331.299,1568.298,0,0,0,
,1.195,-0.199,0.095,-173.096,-266.663,1372.985,0,0,0,
,1.003,-0.302,0.132,-101.197,-180.97,1037.536,0,0,0,
,0.913,-0.308,0.228,8.422,-77.454,748.352,0,0,0,
,0.908,-0.312,0.301,218.872,-36.377,552.49,0,0,0,
,0.931,-0.426,0.302,420.41,-66.651,402.221,0,0,0,
,0.943,-0.518,0.253,466.247,-85.877,276.611,0,0,0,
,0.957,-0.551,0.205,416.748,-68.482,207.275,0,0,0,
,1.003,-0.482,0.15,426.147,-83.802,174.865,0,0,0,
,0.984,-0.419,0.113,508.056,-126.709,175.109,0,0,0,
,0.933,-0.426,0.09,559.753,-159.607,219.97,0,0,0,
,0.9,-0.466,0.091,568.42,-179.871,302.734,0,0,0,
,0.877,-0.498,0.092,559.448,-193.97,394.47,0,0,0,
,0.834,-0.52,0.106,514.953,-206.91,478.942,0,0,0,
,0.797,-0.516,0.121,443.176,-211.67,550.903,0,0,0,
,0.76,-0.495,0.12,374.145,-210.022,613.586,0,0,0,
,0.73,-0.48,0.105,341.919,-204.346,658.264,0,0,0,
,0.712,-0.473,0.091,331.298,-192.322,689.087,0,0,0,
,0.724,-0.488,0.095,299.56,-170.716,703.674,0,0,0,
,0.783,-0.516,0.108,227.539,-137.513,698.486,0,0,0,
,0.982,-0.58,0.134,33.264,-65.491,606.75,0,0,0,
,1.048,-0.615,0.116,-32.959,-20.752,489.196,0,0,0,
,1.022,-0.617,0.076,-66.529,53.466,321.899,0,0,0,
,0.997,-0.594,0.054,-49.622,163.269,82.763,0,0,0,
,1.113,-0.602,0.114,-53.467,269.226,-154.847,0,0,0,
,1.153,-0.57,0.178,-96.436,334.289,-326.477,0,0,0,
,1.19,-0.565,0.205,-133.789,381.103,-475.22,0,0,0,
,1.219,-0.619,0.193,-181.153,400.024,-607.911,0,0,0,
,1.144,-0.623,0.176,-269.471,414.856,-715.027,0,0,0,
,1.021,-0.566,0.157,-343.201,425.293,-840.943,0,0,0,
,0.955,-0.528,0.13,-406.25,429.199,-982.789,0,0,0,
,0.953,-0.513,0.109,-489.014,436.706,-1092.53,0,0,0,
,1.012,-0.51,0.098,-599.732,437.194,-1166.321,0,0,0,
,1.104,-0.516,0.063,-734.131,421.325,-1236.023,0,0,0,
,1.194,-0.518,0.08,-875.794,401.672,-1291.687,0,0,0,
,1.307,-0.511,0.067,-992.249,374.511,-1328.553,0,0,0,
,1.415,-0.5,0.054,-1074.524,339.233,-1354.371,0,0,0,
,1.487,-0.482,0.033,-1133.912,299.194,-1357.911,0,0,0,
,1.501,-0.437,0.017,-1148.438,253.234,-1353.699,0,0,0,
,1.483,-0.389,0.007,-1101.746,193.481,-1353.821,0,0,0,
,1.441,-0.346,-0.002,-977.112,123.413,-1354.737,0,0,0,
,1.391,-0.326,-0.007,-811.28,62.255,-1356.202,0,0,0,
,1.337,-0.324,-0.011,-651.551,21.179,-1355.591,0,0,0,
,1.284,-0.308,-0.014,-499.207,0.488,-1347.229,0,0,0,
,1.232,-0.287,-0.025,-331.177,-25.269,-1338.074,0,0,0,
,1.175,-0.28,-0.031,-161.805,-45.716,-1322.388,0,0,0,
,1.104,-0.285,-0.045,-56.763,-53.894,-1295.96,0,0,0,
,1.034,-0.283,-0.047,12.085,-48.401,-1259.217,0,0,0,
,0.965,-0.274,-0.058,48.889,-40.162,-1216.431,0,0,0,
,0.895,-0.261,-0.058,65.795,-24.659,-1170.716,0,0,0,
,0.824,-0.25,-0.057,77.148,-7.264,-1127.686,0,0,0,
,0.765,-0.235,-0.059,90.759,16.54,-1082.337,0,0,0,
,0.72,-0.225,-0.062,114.502,45.227,-1034.668,0,0,0,
,0.69,-0.222,-0.068,144.836,71.655,-980.652,0,0,0,
,0.663,-0.233,-0.032,164.367,100.28,-915.65,0,0,0,
,0.654,-0.259,-0.094,170.532,129.76,-828.858,0,0,0,
,0.662,-0.291,-0.063,150.329,157.104,-716.797,0,0,0,
,0.678,-0.316,-0.06,106.201,175.842,-574.341,0,0,0,
,0.681,-0.331,-0.062,61.34,184.631,-411.011,0,0,0,
,0.675,-0.343,-0.07,19.348,193.054,-225.831,0,0,0,
,0.675,-0.359,-0.065,-26.673,196.045,-25.147,0,0,0,
,0.698,-0.393,-0.023,-72.571,195.312,181.152,0,0,0,
,0.758,-0.422,0.039,-105.896,194.091,411.926,0,0,0,
,0.793,-0.432,0.105,-108.338,176.574,654.968,0,0,0,
,0.817,-0.442,0.149,-74.402,151.611,892.028,0,0,0,
,0.823,-0.42,0.174,-2.808,123.413,1143.859,0,0,0,
,0.838,-0.388,0.174,133.361,91.552,1376.098,0,0,0,
,0.898,-0.393,0.162,252.868,55.603,1614.135,0,0,0,
,1.008,-0.491,0.232,338.989,-15.137,1825.195,0,0,0,
,1.156,-0.622,0.342,312.133,-82.093,1999.389,0,0,0,
,1.335,-0.717,0.449,166.809,-136.597,1999.694,0,0,0,
,1.425,-0.7,0.502,-8.912,-174.866,1999.694,0,0,0,
,1.494,-0.584,0.517,-92.347,-204.468,1999.694,0,0,0,
,1.489,-0.449,0.505,121.521,-301.148,1911.987,0,0,0,
,1.363,-0.403,0.402,449.951,-325.806,1642.761,0,0,0,
,1.063,-0.39,0.281,1012.329,-335.511,1316.162,0,0,0,
,0.827,-0.466,0.333,1755.31,-474.854,899.047,0,0,0,
,0.835,-0.652,0.309,1999.694,-560.12,560.119,0,0,0,
,0.829,-0.716,0.263,1973.144,-528.382,292.236,0,0,0,
,0.842,-0.642,0.167,1547.973,-433.594,96.923,0,0,0,
,0.911,-0.525,0.068,1184.326,-359.131,-23.865,0,0,0,
,0.949,-0.482,0.03,948.486,-348.267,-63.294,0,0,0,
,0.984,-0.442,-0.005,801.635,-359.07,-85.633,0,0,0,
,0.955,-0.448,-0.032,637.817,-375.061,-82.581,0,0,0,
,0.917,-0.465,-0.048,423.828,-361.145,-29.541,0,0,0,
,0.916,-0.461,-0.057,215.82,-328.003,42.724,0,0,0,
,0.913,-0.45,-0.063,64.392,-299.683,122.619,0,0,0,
,0.898,-0.432,-0.061,-25.574,-275.269,198.791,0,0,0,
,0.874,-0.415,-0.057,-58.777,-256.531,264.953,0,0,0,
,0.838,-0.407,-0.05,-54.383,-239.441,319.03,0,0,0,
,0.807,-0.39,-0.046,-30.762,-216.492,353.881,0,0,0,
,0.782,-0.378,-0.035,-1.526,-185.242,379.516,0,0,0,
,0.784,-0.371,-0.02,13.427,-143.921,396.606,0,0,0,
,0.82,-0.365,0.004,41.626,-104.065,403.747,0,0,0,
,0.878,-0.376,0.031,104.126,-71.473,396.057,0,0,0,
,0.911,-0.394,0.035,169.86,-40.711,379.089,0,0,0,
,0.938,-0.426,0.046,197.998,-0.123,361.45,0,0,0,
,0.954,-0.453,0.057,176.33,49.072,328.125,0,0,0,
,0.958,-0.459,0.098,139.526,107.177,294.372,0,0,0,
,1.059,-0.464,0.116,93.872,167.663,254.76,0,0,0,
,1.14,-0.494,0.147,68.786,200.073,218.75,0,0,0,
,1.176,-0.529,0.197,66.772,224.06,200.378,0,0,0,
,1.199,-0.563,0.23,35.827,239.929,138.794,0,0,0,
,1.141,-0.555,0.247,-26.734,265.869,74.401,0,0,0,
,1.001,-0.508,0.248,-70.252,281.982,-16.846,0,0,0,
,0.837,-0.451,0.245,-103.272,301.086,-131.165,0,0,0,
,0.738,-0.406,0.238,-138.733,318.847,-251.587,0,0,0,
,0.749,-0.413,0.225,-198.487,338.928,-363.709,0,0,0,
,0.83,-0.444,0.223,-286.377,361.206,-452.088,0,0,0,
,0.887,-0.466,0.229,-407.898,378.173,-533.204,0,0,0,
,0.945,-0.471,0.245,-546.204,404.663,-614.502,0,0,0,
,1.111,-0.524,0.293,-922.852,496.093,-810.242,0,0,0,
,1.112,-0.509,0.238,-1350.708,575.622,-908.448,0,0,0,
,1.107,-0.389,0.119,-1717.286,608.886,-927.247,0,0,0,
,1.129,-0.251,0.02,-1811.585,550.354,-1002.137,0,0,0,
,1.132,-0.231,0.013,-1635.56,443.969,-1049.622,0,0,0,
,1.073,-0.255,0.032,-1349.366,335.754,-1081.727,0,0,0,
,1.033,-0.295,0.047,-1091.98,265.93,-1096.619,0,0,0,
,1.025,-0.307,0.058,-896.363,233.459,-1071.595,0,0,0,
,1.007,-0.324,0.067,-758.057,201.416,-1049.988,0,0,0,
,1.003,-0.329,0.034,-639.1,157.959,-1003.174,0,0,0,
,0.983,-0.317,0.027,-501.343,99.67,-950.501,0,0,0,
,0.944,-0.315,0.023,-382.752,50.598,-905.091,0,0,0,
,0.914,-0.295,0.014,-305.848,22.461,-849.793,0,0,0,
,0.888,-0.276,0.008,-217.957,-12.94,-793.824,0,0,0,
,0.866,-0.285,0.008,-130.555,-42.908,-734.742,0,0,0,
,0.851,-0.289,0.002,-55.909,-60.791,-676.941,0,0,0,
,0.844,-0.287,-0.007,0.183,-66.346,-613.282,0,0,0,
,0.826,-0.286,-0.008,35.034,-67.505,-545.411,0,0,0,
,0.794,-0.283,0.002,60.913,-59.082,-481.69,0,0,0,
,0.786,-0.293,0.028,80.688,-54.932,-425.415,0,0,0,
,0.826,-0.324,0.043,91.613,-44.617,-372.803,0,0,0,
,0.886,-0.349,0.033,77.331,-26.185,-288.819,0,0,0,
,0.956,-0.361,0.042,35.888,-11.902,-197.937,0,0,0,
,1.008,-0.347,0.065,9.033,-0.794,-103.882,0,0,0,
,1.028,-0.325,0.083,44.006,-7.874,-14.954,0,0,0,
,1.028,-0.32,0.102,116.577,-24.842,73.547,0,0,0,
,1.104,-0.354,0.126,194.641,-43.641,173.767,0,0,0,
,1.167,-0.379,0.124,241.882,-59.449,289.184,0,0,0,
,1.161,-0.372,0.143,286.377,-67.994,395.996,0,0,0,
,1.155,-0.365,0.162,382.812,-88.135,518.554,0,0,0,
,1.119,-0.377,0.18,494.567,-120.057,645.996,0,0,0,
,1.022,-0.383,0.196,592.346,-135.437,751.159,0,0,0,
,0.894,-0.383,0.23,643.798,-148.011,835.937,0,0,0,
,0.82,-0.434,0.274,628.051,-159.241,904.174,0,0,0,
,0.851,-0.465,0.324,523.254,-183.716,962.768,0,0,0,
,0.921,-0.52,0.366,330.383,-215.149,989.99,0,0,0,
,0.947,-0.49,0.354,128.112,-223.206,994.323,0,0,0,
,1.001,-0.408,0.332,31.189,-250.489,955.566,0,0,0,
,1.048,-0.321,0.27,69.885,-287.354,888.916,0,0,0,
,1.063,-0.268,0.211,204.589,-326.172,792.053,0,0,0,
,1.019,-0.278,0.185,613.342,-386.414,553.222,0,0,0,
,0.969,-0.314,0.193,788.086,-404.053,432.739,0,0,0,
,0.901,-0.339,0.178,870.605,-389.893,330.749,0,0,0,
,0.844,-0.359,0.107,907.165,-345.887,253.662,0,0,0,
,0.841,-0.422,0.076,896.606,-358.033,176.696,0,0,0,
,0.823,-0.434,0.125,721.13,-342.835,134.338,0,0,0,
,0.817,-0.358,0.134,530.578,-310.608,107.788,0,0,0,
,0.842,-0.296,0.106,456.298,-297.486,100.708,0,0,0,
,0.85,-0.309,0.076,470.703,-299.988,102.172,0,0,0,
,0.838,-0.364,0.067,458.984,-285.279,128.845,0,0,0,
,0.845,-0.399,0.053,405.761,-252.991,162.292,0,0,0,
,0.857,-0.389,0.064,352.417,-228.211,211.853,0,0,0,
,0.861,-0.364,0.069,351.013,-218.628,268.982,0,0,0,
,0.848,-0.347,0.07,386.047,-211.853,329.467,0,0,0,
,0.811,-0.345,0.078,445.617,-197.571,388.427,0,0,0,
,0.792,-0.363,0.09,508.3,-185.669,440.612,0,0,0,
,0.785,-0.395,0.106,529.602,-162.537,492.431,0,0,0,
,0.799,-0.422,0.125,510.498,-135.56,530.212,0,0,0,
,0.82,-0.433,0.151,455.627,-103.394,570.251,0,0,0,
,0.859,-0.458,0.182,394.531,-75.074,599.243,0,0,0,
,0.907,-0.479,0.196,327.697,-52.185,608.398,0,0,0,
,0.929,-0.476,0.208,265.625,-25.879,584.289,0,0,0,
,0.952,-0.455,0.22,234.497,-6.775,531.433,0,0,0,
,1.056,-0.461,0.218,233.52,11.413,466.43,0,0,0,
,1.079,-0.484,0.215,242.736,12.939,383.667,0,0,0,
,1.056,-0.502,0.222,239.807,33.569,288.33,0,0,0,
,1.06,-0.52,0.216,231.75,58.898,184.265,0,0,0,
,1.071,-0.529,0.219,228.088,83.923,81.97,0,0,0,
,1.068,-0.531,0.208,221.618,112.06,-21.973,0,0,0,
,1.019,-0.526,0.188,204.467,135.559,-125.611,0,0,0,
,0.892,-0.481,0.172,179.626,154.174,-235.108,0,0,0,
,0.797,-0.458,0.167,143.554,173.584,-329.773,0,0,0,
,0.769,-0.474,0.165,57.983,201.477,-422.364,0,0,0,
,0.826,-0.497,0.161,-96.558,238.098,-503.052,0,0,0,
,0.884,-0.5,0.155,-279.908,266.235,-562.928,0,0,0,
,0.923,-0.488,0.143,-467.591,293.579,-616.089,0,0,0,
,0.965,-0.472,0.132,-634.644,316.955,-671.387,0,0,0,
,1,-0.445,0.135,-774.292,324.646,-724.06,0,0,0,
,1.04,-0.409,0.132,-878.54,325.195,-772.583,0,0,0,
,1.086,-0.395,0.141,-955.75,309.143,-812.012,0,0,0,
,1.092,-0.382,0.146,-1026.612,284.851,-844.361,0,0,0,
,1.084,-0.365,0.121,-1040.101,263.916,-879.761,0,0,0,
,1.078,-0.36,0.06,-934.693,245.3,-904.847,0,0,0,
,1.091,-0.394,0.047,-783.448,201.11,-932.557,0,0,0,
,1.077,-0.405,0.048,-704.346,195.129,-935.059,0,0,0,
,1.084,-0.398,0.044,-692.505,185.547,-928.467,0,0,0,
,1.04,-0.359,0.023,-715.76,194.641,-880.494,0,0,0,
,1.003,-0.285,0.044,-636.048,185.913,-842.408,0,0,0,
,0.987,-0.286,0.045,-495.484,125.549,-810.975,0,0,0,
,0.952,-0.316,0.048,-405.152,109.436,-772.095,0,0,0,
,0.915,-0.319,0.045,-377.015,110.717,-711.853,0,0,0,
,0.897,-0.344,0.031,-341.187,104.492,-653.077,0,0,0,
,0.876,-0.313,0.013,-273.865,99.426,-601.441,0,0,0,
,0.851,-0.326,0.012,-208.374,82.458,-545.777,0,0,0,
,0.81,-0.323,0.018,-176.819,77.392,-476.868,0,0,0,
,0.784,-0.311,0.025,-157.715,74.34,-406.8,0,0,0,
,0.782,-0.308,0.034,-131.165,62.011,-330.811,0,0,0,
,0.793,-0.327,0.049,-100.647,40.527,-255.677,0,0,0,
,0.816,-0.339,0.066,-82.459,15.136,-180.298,0,0,0,
,0.846,-0.337,0.078,-61.097,-4.761,-105.53,0,0,0,
,0.886,-0.334,0.105,-28.443,-34.546,-45.716,0,0,0,
,0.919,-0.334,0.132,26.367,-71.717,4.577,0,0,0,
,0.956,-0.344,0.151,84.228,-109.62,45.959,0,0,0,
,1.041,-0.356,0.149,149.231,-129.883,95.031,0,0,0,
,1.128,-0.344,0.12,232.299,-128.357,157.776,0,0,0,
,1.197,-0.327,0.108,329.834,-122.01,233.825,0,0,0,
,1.221,-0.32,0.111,438.659,-109.375,322.143,0,0,0,
,1.213,-0.347,0.148,546.875,-104.615,415.039,0,0,0,
,1.096,-0.382,0.216,617.065,-112.244,492.248,0,0,0,
,0.955,-0.417,0.286,634.826,-128.54,541.381,0,0,0,
,0.835,-0.421,0.312,616.882,-144.654,586.547,0,0,0,
,0.751,-0.407,0.31,561.035,-159.852,635.192,0,0,0,
,0.718,-0.404,0.302,487.793,-161.805,697.754,0,0,0,
,0.736,-0.449,0.305,390.564,-177.796,762.817,0,0,0,
,0.777,-0.506,0.339,225.463,-179.749,794.128,0,0,0,
,0.841,-0.523,0.376,1.403,-159.913,796.142,0,0,0,
,0.928,-0.487,0.39,-202.21,-146.363,774.414,0,0,0,
,1.002,-0.432,0.394,-326.722,-148.255,724.243,0,0,0,
,1.051,-0.37,0.374,-348.084,-145.142,650.695,0,0,0,
,1.05,-0.307,0.357,-259.278,-161.622,567.443,0,0,0,
,0.999,-0.267,0.349,-90.394,-182.557,478.881,0,0,0,
,0.948,-0.262,0.345,92.285,-206.421,394.348,0,0,0,
,0.897,-0.266,0.325,224.243,-223.511,314.148,0,0,0,
,0.864,-0.282,0.29,299.255,-230.042,247.07,0,0,0,
,0.857,-0.29,0.267,344.787,-234.009,196.472,0,0,0,
,0.864,-0.304,0.24,395.446,-245.484,152.099,0,0,0,
,0.867,-0.337,0.214,434.692,-255.127,117.126,0,0,0,
,0.858,-0.372,0.196,428.588,-249.573,94.238,0,0,0,
,0.855,-0.387,0.18,384.887,-232.727,86.975,0,0,0,
,0.853,-0.391,0.171,324.524,-210.633,88.501,0,0,0,
,0.844,-0.391,0.17,272.766,-186.89,96.557,0,0,0,
,0.833,-0.392,0.164,227.05,-164.185,112.854,0,0,0,
,0.817,-0.393,0.163,194.885,-144.959,126.22,0,0,0,
,0.784,-0.385,0.167,170.593,-124.085,137.024,0,0,0,
,0.752,-0.373,0.17,144.409,-97.046,154.907,0,0,0,
,0.737,-0.366,0.171,127.136,-69.397,167.175,0,0,0,
,0.741,-0.377,0.173,106.323,-38.147,173.217,0,0,0,
,0.759,-0.378,0.186,83.19,-4.7,173.645,0,0,0,
,0.784,-0.37,0.202,65.429,28.503,169.067,0,0,0,
,0.805,-0.368,0.209,60.852,57.861,156.189,0,0,0,
,0.827,-0.379,0.234,60.485,76.904,130.737,0,0,0,
,0.832,-0.372,0.252,53.588,103.21,93.872,0,0,0,
,0.831,-0.36,0.268,53.039,122.863,44.616,0,0,0,
,0.847,-0.348,0.286,62.316,140.197,-14.527,0,0,0,
,0.926,-0.36,0.3,66.772,155.883,-68.909,0,0,0,
,0.97,-0.369,0.306,70.556,169.738,-120.789,0,0,0,
,0.995,-0.378,0.318,65.368,182.983,-168.213,0,0,0,
,1.066,-0.406,0.332,43.273,196.167,-202.637,0,0,0,
,1.147,-0.424,0.333,10.009,202.27,-226.746,0,0,0,
,1.169,-0.418,0.344,-8.423,195.8,-241.822,0,0,0,
,1.118,-0.393,0.345,4.394,175.415,-254.944,0,0,0,
,1.004,-0.371,0.338,36.254,144.226,-266.724,0,0,0,
,0.884,-0.342,0.33,73.913,115.722,-277.527,0,0,0,
,0.768,-0.32,0.316,112.854,92.468,-296.448,0,0,0,
,0.686,-0.304,0.311,133.545,75.805,-324.219,0,0,0,
,0.657,-0.298,0.306,127.136,58.044,-363.831,0,0,0,
,0.678,-0.301,0.305,99.975,35.888,-407.166,0,0,0,
,0.753,-0.309,0.3,73.669,15.136,-455.384,0,0,0,
,0.855,-0.317,0.299,39.428,-11.536,-501.893,0,0,0,
,0.997,-0.322,0.284,3.906,-34.485,-544.8,0,0,0,
,1.14,-0.312,0.261,-6.348,-58.777,-579.346,0,0,0,
,1.238,-0.303,0.225,31.25,-85.083,-598.572,0,0,0,
,1.253,-0.296,0.204,96.313,-108.094,-609.559,0,0,0,
,1.22,-0.292,0.196,166.687,-125.428,-614.319,0,0,0,
,1.169,-0.293,0.196,232.849,-136.109,-604.981,0,0,0,
,1.103,-0.296,0.199,300.415,-154.908,-586.182,0,0,0,
,0.942,-0.308,0.203,421.386,-188.172,-527.527,0,0,0,
,0.901,-0.318,0.194,455.871,-197.632,-479.004,0,0,0,
,0.885,-0.334,0.186,471.862,-205.628,-408.936,0,0,0,
,0.86,-0.348,0.172,464.904,-205.14,-328.37,0,0,0,
,0.841,-0.365,0.169,433.471,-196.9,-239.319,0,0,0,
,0.819,-0.374,0.178,374.511,-187.439,-141.968,0,0,0,
,0.809,-0.38,0.186,302.734,-181.275,-44.678,0,0,0,
,0.805,-0.38,0.202,240.356,-184.693,54.931,0,0,0,
,0.803,-0.372,0.224,201.355,-194.947,145.63,0,0,0,
,0.799,-0.359,0.23,198.608,-216.126,224.365,0,0,0,
,0.791,-0.339,0.235,213.317,-249.024,294.128,0,0,0,
,0.778,-0.326,0.229,247.741,-279.358,350.341,0,0,0,
,0.763,-0.306,0.222,288.879,-300.66,400.695,0,0,0,
,0.759,-0.285,0.213,343.017,-325.379,440.734,0,0,0,
,0.783,-0.281,0.209,398.071,-349.366,474.731,0,0,0,
,0.834,-0.299,0.2,450.256,-377.869,510.498,0,0,0,
,0.933,-0.321,0.185,493.957,-406.373,544.799,0,0,0,
,0.975,-0.33,0.164,539.611,-443.238,578.308,0,0,0,
,1.04,-0.335,0.15,600.402,-480.408,616.027,0,0,0,
,1.099,-0.337,0.123,680.603,-520.508,669.738,0,0,0,
,1.129,-0.339,0.105,773.437,-561.524,689.087,0,0,0,
,1.137,-0.343,0.096,868.896,-601.197,716.003,0,0,0,
,1.198,-0.354,0.075,965.026,-625.672,743.164,0,0,0,
,1.251,-0.35,0.047,1071.106,-642.64,759.704,0,0,0,
,1.279,-0.332,0.017,1199.157,-650.574,770.202,0,0,0,
,1.26,-0.31,-0.027,1349.182,-642.09,770.446,0,0,0,
,1.177,-0.305,-0.05,1508.789,-632.874,754.15,0,0,0,
,0.894,-0.376,0.017,1607.849,-535.462,619.812,0,0,0,
,0.822,-0.38,0.047,1488.098,-502.259,552.307,0,0,0,
,0.78,-0.367,0.047,1332.214,-471.924,491.211,0,0,0,
,0.773,-0.358,0.027,1163.086,-451.111,439.758,0,0,0,
,0.797,-0.354,-0.003,986.328,-434.021,398.315,0,0,0,
,0.833,-0.348,-0.028,824.829,-408.509,364.074,0,0,0,
,0.86,-0.312,-0.047,697.937,-386.78,335.571,0,0,0,
,0.898,-0.267,-0.067,655.944,-363.77,309.082,0,0,0,
,0.928,-0.235,-0.081,688.537,-352.295,290.344,0,0,0,
,0.946,-0.227,-0.06,786.682,-350.953,283.508,0,0,0,
,0.94,-0.235,-0.035,930.786,-351.38,280.212,0,0,0,
,0.914,-0.255,-0.002,1089.111,-360.962,275.879,0,0,0,
,0.884,-0.269,0.013,1243.591,-362.915,278.32,0,0,0,
,0.867,-0.282,0.008,1360.168,-359.803,285.217,0,0,0,
,0.88,-0.311,0.008,1445.373,-351.99,302.734,0,0,0,
,0.894,-0.35,0.025,1465.576,-349.732,331.054,0,0,0,
,0.922,-0.396,0.088,1422.851,-356.751,353.698,0,0,0,
,0.919,-0.396,0.083,1363.403,-356.812,386.779,0,0,0,
,0.904,-0.401,0.086,1304.504,-351.807,423.401,0,0,0,
,0.916,-0.425,0.115,1237.793,-337.83,473.083,0,0,0,
,0.928,-0.444,0.17,1166.442,-331.971,511.291,0,0,0,
,0.943,-0.441,0.208,1099.426,-314.454,535.217,0,0,0,
,0.953,-0.416,0.234,1051.33,-290.406,552.063,0,0,0,
,0.959,-0.431,0.284,1025.573,-275.757,567.077,0,0,0,
,0.846,-0.494,0.402,907.837,-245.972,584.716,0,0,0,
,0.812,-0.521,0.427,761.23,-210.999,589.233,0,0,0,
,0.808,-0.53,0.454,585.327,-183.899,598.449,0,0,0,
,0.814,-0.533,0.468,408.996,-166.81,606.872,0,0,0,
,0.816,-0.527,0.449,241.088,-161.072,605.224,0,0,0,
,0.812,-0.485,0.411,121.276,-148.865,603.942,0,0,0,
,0.82,-0.419,0.379,69.03,-138.001,599.548,0,0,0,
,0.846,-0.369,0.355,98.327,-135.804,594.726,0,0,0,
,0.86,-0.358,0.335,177.002,-135.743,577.209,0,0,0,
,0.813,-0.353,0.313,268.554,-122.498,539.978,0,0,0,
,0.785,-0.363,0.305,349.853,-104.859,479.858,0,0,0,
,0.809,-0.382,0.291,396.301,-81.299,407.959,0,0,0,
,0.873,-0.423,0.297,394.287,-58.594,325.378,0,0,0,
,0.941,-0.445,0.289,353.454,-30.701,233.947,0,0,0,
,0.983,-0.437,0.26,298.706,4.882,147.705,0,0,0,
,1.042,-0.434,0.232,254.516,38.208,60.241,0,0,0,
,1.102,-0.442,0.219,220.031,68.969,-12.452,0,0,0,
,1.094,-0.438,0.209,213.867,93.75,-78.186,0,0,0,
,0.996,-0.405,0.203,251.098,102.966,-132.569,0,0,0,
,0.861,-0.366,0.18,320.007,108.337,-191.712,0,0,0,
,0.75,-0.353,0.175,381.591,113.891,-248.352,0,0,0,
,0.671,-0.354,0.177,406.799,126.464,-315.003,0,0,0,
,0.674,-0.375,0.184,383.606,147.338,-382.63,0,0,0,
,0.754,-0.4,0.198,317.443,169.922,-450.562,0,0,0,
,0.87,-0.409,0.213,232.849,191.345,-523.865,0,0,0,
,0.975,-0.396,0.222,160.644,204.528,-602.295,0,0,0,
,1.061,-0.376,0.219,112.548,213.806,-680.359,0,0,0,
,1.099,-0.364,0.202,84.106,220.886,-749.817,0,0,0,
,1.116,-0.36,0.201,60.791,232.544,-808.716,0,0,0,
,1.152,-0.374,0.202,26.367,244.995,-849.244,0,0,0,
,1.189,-0.381,0.212,-8.057,256.713,-869.812,0,0,0,
,1.19,-0.382,0.215,-31.739,258.361,-877.991,0,0,0,
,1.13,-0.368,0.223,-27.405,250.915,-879.395,0,0,0,
,1.028,-0.346,0.223,-3.296,241.333,-879.944,0,0,0,
,0.941,-0.326,0.218,29.724,235.229,-872.559,0,0,0,
,0.891,-0.325,0.221,42.968,236.999,-859.803,0,0,0,
,0.866,-0.335,0.237,22.338,246.399,-835.267,0,0,0,
,0.861,-0.345,0.244,-41.382,260.986,-804.444,0,0,0,
,0.873,-0.357,0.266,-122.01,266.845,-765.137,0,0,0,
,0.885,-0.358,0.27,-191.956,257.446,-723.084,0,0,0,
,0.88,-0.352,0.271,-242.371,229.553,-669.007,0,0,0,
,0.855,-0.339,0.271,-267.701,197.326,-604.554,0,0,0,
,0.826,-0.319,0.26,-256.226,161.255,-516.358,0,0,0,
,0.803,-0.316,0.263,-213.685,124.939,-419.983,0,0,0,
,0.786,-0.309,0.252,-152.588,92.895,-305.237,0,0,0,
,0.769,-0.296,0.259,-83.985,58.227,-191.346,0,0,0,
,0.765,-0.297,0.284,-15.381,24.475,-74.952,0,0,0,
,0.771,-0.301,0.302,62.988,-15.503,49.011,0,0,0,
,0.793,-0.322,0.318,136.413,-55.237,176.88,0,0,0,
,0.814,-0.354,0.339,193.481,-90.882,305.053,0,0,0,
,0.865,-0.382,0.354,217.712,-129.334,436.462,0,0,0,
,0.94,-0.404,0.395,214.538,-173.218,563.171,0,0,0,
,1.016,-0.4,0.423,226.501,-231.934,672.546,0,0,0,
,1.073,-0.393,0.411,272.277,-292.42,753.967,0,0,0,
,1.14,-0.393,0.391,330.566,-339.844,822.509,0,0,0,
,1.309,-0.423,0.38,359.924,-354.371,898.559,0,0,0,
,1.401,-0.445,0.336,356.201,-357.727,947.998,0,0,0,
,1.33,-0.428,0.294,314.514,-352.539,962.585,0,0,0,
,1.276,-0.384,0.251,255.554,-331.116,950.134,0,0,0,
,1.2,-0.35,0.211,204.651,-330.018,921.997,0,0,0,
,1.063,-0.32,0.183,146.85,-336.182,858.947,0,0,0,
,0.937,-0.281,0.189,124.206,-340.577,805.603,0,0,0,
,0.908,-0.269,0.178,176.33,-366.394,739.685,0,0,0,
,0.927,-0.292,0.123,228.271,-397.461,663.452,0,0,0,
,0.919,-0.256,0.051,267.7,-407.654,591.491,0,0,0,
,0.918,-0.216,-0.007,344.482,-403.626,531.005,0,0,0,
,0.943,-0.19,-0.047,475.036,-409.241,478.576,0,0,0,
,0.96,-0.205,-0.068,622.741,-417.847,430.725,0,0,0,
,0.94,-0.227,-0.07,756.347,-421.387,384.216,0,0,0,
,0.908,-0.239,-0.066,878.784,-409.913,348.999,0,0,0,
,0.879,-0.267,-0.06,996.765,-396.79,322.815,0,0,0,
,0.846,-0.301,-0.04,1095.886,-380.921,307.006,0,0,0,
,0.803,-0.326,-0.018,1158.996,-360.901,295.471,0,0,0,
,0.749,-0.333,-0.006,1181.64,-333.558,291.381,0,0,0,
,0.697,-0.327,-0.011,1183.532,-298.645,293.884,0,0,0,
,0.664,-0.338,-0.013,1155.029,-256.653,305.603,0,0,0,
,0.666,-0.367,0.001,1079.223,-209.9,324.646,0,0,0,
,0.697,-0.39,0.023,956.115,-169.983,345.337,0,0,0,
,0.74,-0.402,0.048,834.167,-137.452,363.464,0,0,0,
,0.792,-0.406,0.082,730.774,-119.385,380.066,0,0,0,
,0.847,-0.389,0.088,671.203,-105.896,395.324,0,0,0,
,0.877,-0.381,0.1,640.747,-83.985,411.132,0,0,0,
,0.897,-0.39,0.141,615.661,-55.481,417.724,0,0,0,
,0.905,-0.411,0.206,577.392,-18.982,417.663,0,0,0,
,0.883,-0.416,0.257,527.954,25.878,401.977,0,0,0,
,0.861,-0.42,0.295,470.092,77.331,381.836,0,0,0,
,0.84,-0.43,0.338,399.292,125.732,369.751,0,0,0,
,0.835,-0.456,0.382,291.504,170.166,362.304,0,0,0,
,0.869,-0.509,0.431,125.793,208.74,361.511,0,0,0,
,0.891,-0.571,0.47,-80.872,229.858,344.055,0,0,0,
,0.898,-0.598,0.485,-309.876,255.676,312.011,0,0,0,
,0.934,-0.595,0.497,-515.992,268.982,270.507,0,0,0,
,0.976,-0.553,0.498,-667.603,270.568,220.031,0,0,0,
,1.086,-0.506,0.493,-746.644,260.803,168.64,0,0,0,
,1.243,-0.487,0.482,-744.935,230.102,126.281,0,0,0,
,1.262,-0.448,0.462,-656.861,172.912,69.763,0,0,0,
,1.204,-0.401,0.439,-509.339,116.76,-5.677,0,0,0,
,1.127,-0.399,0.41,-350.586,68.298,-110.108,0,0,0,
,0.992,-0.402,0.379,-235.23,23.742,-242.859,0,0,0,
,0.828,-0.39,0.339,-211.182,12.268,-396.241,0,0,0,
,0.755,-0.384,0.303,-280.762,29.113,-553.04,0,0,0,
,0.811,-0.407,0.277,-408.875,47.729,-682.74,0,0,0,
,0.914,-0.435,0.244,-564.82,64.575,-794.739,0,0,0,
,0.986,-0.451,0.204,-759.339,79.589,-893.372,0,0,0,
,1.054,-0.443,0.165,-906.373,89.05,-970.765,0,0,0,
,1.131,-0.427,0.131,-1044.8,92.529,-1023.499,0,0,0,
,1.204,-0.408,0.115,-1146.363,83.374,-1049.012,0,0,0,
,1.256,-0.383,0.11,-1187.195,48.339,-1063.904,0,0,0,
,1.246,-0.346,0.096,-1148.56,30.761,-1066.712,0,0,0,
,1.186,-0.303,0.078,-1052.857,-10.315,-1063.355,0,0,0,
,1.145,-0.28,0.071,-899.659,-49.866,-1053.284,0,0,0,
,1.104,-0.275,0.064,-737.305,-87.647,-1042.115,0,0,0,
,1.056,-0.267,0.057,-578.736,-116.028,-1023.255,0,0,0,
,1.01,-0.262,0.04,-422.73,-136.048,-985.474,0,0,0,
,0.968,-0.265,0.023,-283.448,-145.02,-974.976,0,0,0,
,0.928,-0.265,0.008,-174.134,-142.456,-938.965,0,0,0,
,0.909,-0.272,-0.029,-79.895,-130.738,-897.889,0,0,0,
,0.874,-0.275,-0.005,-12.818,-125.123,-849.671,0,0,0,
,0.832,-0.279,-0.011,30.883,-111.878,-805.115,0,0,0,
,0.795,-0.278,-0.018,52.917,-97.962,-754.7,0,0,0,
,0.772,-0.279,-0.023,69.946,-77.393,-700.684,0,0,0,
,0.768,-0.276,-0.037,82.153,-56.214,-626.954,0,0,0,
,0.771,-0.279,-0.044,84.289,-34.852,-542.908,0,0,0,
,0.771,-0.3,-0.025,72.815,-21.058,-464.966,0,0,0,
,0.784,-0.31,0.002,54.809,-9.095,-389.161,0,0,0,
,0.83,-0.315,0.023,51.208,-2.991,-313.416,0,0,0,
,0.91,-0.326,0.037,63.964,-6.531,-231.568,0,0,0,
,0.987,-0.342,0.057,76.843,-8.423,-146.851,0,0,0,
,1.012,-0.328,0.082,83.679,-6.226,-69.703,0,0,0,
,1.021,-0.301,0.11,120.544,-6.653,-7.63,0,0,0,
,1.017,-0.291,0.138,213.44,-13.367,55.053,0,0,0,
,1.047,-0.328,0.169,316.65,-5.86,133.606,0,0,0,
,1.158,-0.373,0.193,388.427,19.287,270.202,0,0,0,
,1.162,-0.386,0.229,423.889,31.799,393.493,0,0,0,
,1.077,-0.392,0.292,437.194,26.611,496.704,0,0,0,
,1.026,-0.396,0.332,446.533,9.094,619.018,0,0,0,
,0.943,-0.388,0.333,469.604,-16.602,720.825,0,0,0,
,0.818,-0.35,0.317,503.967,-19.532,831.909,0,0,0,
,0.757,-0.352,0.33,542.236,-9.705,964.294,0,0,0,
,0.772,-0.417,0.366,531.067,-8.118,1067.199,0,0,0,
,0.842,-0.509,0.436,412.719,6.164,1169.311,0,0,0,
,0.937,-0.563,0.497,216.797,17.517,1243.225,0,0,0,
,1.026,-0.556,0.533,10.376,21.728,1271.484,0,0,0,
,1.117,-0.511,0.525,-161.438,1.22,1246.765,0,0,0,
,1.139,-0.452,0.461,-261.78,-18.006,1171.264,0,0,0,
,1.098,-0.347,0.36,-299.012,-16.663,1067.382,0,0,0,
,1.049,-0.285,0.33,-260.254,-35.889,924.56,0,0,0,
,0.974,-0.277,0.346,-144.227,-68.909,766.052,0,0,0,
,0.881,-0.276,0.348,16.296,-86.853,587.585,0,0,0,
,0.827,-0.283,0.353,182.8,-103.028,395.141,0,0,0,
,0.829,-0.26,0.357,331.176,-118.226,227.356,0,0,0,
,0.857,-0.235,0.356,522.216,-149.414,76.599,0,0,0,
,0.876,-0.255,0.329,690.307,-195.069,-60.669,0,0,0,
,0.819,-0.367,0.285,831.97,-243.47,-232.666,0,0,0,
,0.818,-0.402,0.271,772.766,-243.103,-262.024,0,0,0,
,0.836,-0.41,0.239,673.889,-234.986,-265.259,0,0,0,
,0.839,-0.406,0.183,572.815,-224.122,-243.042,0,0,0,
,0.818,-0.406,0.15,484.619,-216.065,-187.745,0,0,0,
,0.787,-0.422,0.119,397.888,-216.614,-124.451,0,0,0,
,0.756,-0.434,0.11,307.983,-208.802,-35.706,0,0,0,
,0.728,-0.444,0.12,190.063,-195.496,32.531,0,0,0,
,0.71,-0.446,0.128,80.139,-181.092,111.511,0,0,0,
,0.711,-0.449,0.134,-24.72,-165.101,182.922,0,0,0,
,0.738,-0.447,0.134,-114.869,-137.269,250.854,0,0,0,
,0.801,-0.456,0.137,-196.106,-105.957,316.65,0,0,0,
,0.869,-0.462,0.144,-265.259,-74.952,372.68,0,0,0,
,0.917,-0.481,0.153,-329.224,-38.147,414.672,0,0,0,
,0.962,-0.494,0.162,-398.438,0.183,443.359,0,0,0,
,0.988,-0.495,0.166,-469.605,34.851,450.195,0,0,0,
,0.992,-0.482,0.153,-513.733,72.631,431.457,0,0,0,
,1.07,-0.485,0.149,-544.556,106.567,410.705,0,0,0,
,1.16,-0.509,0.16,-577.942,128.296,376.464,0,0,0,
,1.167,-0.518,0.161,-605.774,148.437,321.35,0,0,0,
,1.181,-0.532,0.152,-628.968,171.447,231.872,0,0,0,
,1.138,-0.54,0.151,-649.842,186.462,101.135,0,0,0,
,0.908,-0.49,0.14,-637.818,208.007,-89.966,0,0,0,
,0.738,-0.391,0.138,-610.474,247.863,-324.524,0,0,0,
,0.747,-0.33,0.16,-596.131,286.743,-535.096,0,0,0,
,0.886,-0.333,0.181,-592.225,306.213,-682.557,0,0,0,
,0.953,-0.359,0.189,-579.468,307.067,-812.256,0,0,0,
,0.998,-0.39,0.183,-572.937,306.03,-926.88,0,0,0,
,1.075,-0.413,0.164,-577.637,316.406,-1016.419,0,0,0,
,1.168,-0.425,0.158,-590.21,317.505,-1092.774,0,0,0,
,1.224,-0.428,0.161,-618.714,318.786,-1156.495,0,0,0,
,1.232,-0.432,0.167,-690.003,329.101,-1202.454,0,0,0,
,1.227,-0.423,0.164,-784.241,344.299,-1236.39,0,0,0,
,1.202,-0.401,0.162,-869.324,350.586,-1266.968,0,0,0,
,1.155,-0.367,0.156,-920.35,345.581,-1294.495,0,0,0,
,1.119,-0.335,0.149,-916.138,327.758,-1306.031,0,0,0,
,1.086,-0.314,0.121,-858.155,289.245,-1301.392,0,0,0,
,1.057,-0.312,0.102,-763.306,245.483,-1279.419,0,0,0,
,1.032,-0.309,0.085,-658.57,211.853,-1232.178,0,0,0,
,1,-0.316,0.083,-564.393,177.795,-1179.566,0,0,0,
,0.971,-0.317,0.08,-486.329,152.343,-1122.681,0,0,0,
,0.936,-0.304,0.072,-423.951,125,-1051.88,0,0,0,
,0.9,-0.289,0.07,-367.005,92.651,-988.221,0,0,0,
,0.861,-0.282,0.063,-293.58,62.011,-924.744,0,0,0,
,0.828,-0.276,0.063,-222.535,39.245,-855.896,0,0,0,
,0.803,-0.268,0.065,-151.062,19.592,-788.453,0,0,0,
,0.787,-0.261,0.059,-69.336,1.648,-717.53,0,0,0,
,0.765,-0.258,0.071,17.578,-18.555,-645.752,0,0,0,
,0.772,-0.272,0.076,103.088,-38.147,-565.064,0,0,0,
,0.807,-0.299,0.095,171.997,-56.519,-468.079,0,0,0,
,0.857,-0.332,0.115,211.731,-79.041,-353.089,0,0,0,
,0.899,-0.355,0.132,230.468,-93.995,-219.971,0,0,0,
,0.916,-0.366,0.15,244.873,-108.033,-116.089,0,0,0,
,0.904,-0.371,0.169,264.831,-119.568,6.103,0,0,0,
,0.865,-0.368,0.186,282.959,-131.409,124.389,0,0,0,
,0.901,-0.383,0.198,293.213,-133.362,255.737,0,0,0,
,0.955,-0.407,0.217,279.358,-140.564,410.888,0,0,0,
,0.929,-0.409,0.249,263.305,-154.297,541.748,0,0,0,
,0.94,-0.406,0.244,264.038,-147.767,683.288,0,0,0,
,0.977,-0.41,0.231,292.846,-147.156,834.838,0,0,0,
,0.972,-0.418,0.248,332.946,-147.522,981.689,0,0,0,
,0.931,-0.43,0.29,338.317,-145.447,1099.67,0,0,0,
,0.965,-0.458,0.308,284.362,-120.911,1203.918,0,0,0,
,1.062,-0.495,0.333,186.584,-111.145,1290.039,0,0,0,
,1.1,-0.517,0.368,58.715,-121.949,1321.899,0,0,0,
,1.089,-0.505,0.372,-88.685,-119.019,1304.077,0,0,0,
,1.086,-0.455,0.35,-196.045,-116.517,1252.136,0,0,0,
,1.087,-0.4,0.311,-254.456,-119.873,1181.396,0,0,0,
,1.067,-0.337,0.263,-262.33,-116.15,1098.877,0,0,0,
,1.027,-0.275,0.223,-229.126,-105.225,1007.019,0,0,0,
,0.939,-0.218,0.206,-144.837,-101.746,914.611,0,0,0,
,0.914,-0.184,0.199,-7.813,-111.268,820.984,0,0,0,
,0.878,-0.176,0.205,172.851,-129.395,730.651,0,0,0,
,0.868,-0.199,0.194,352.05,-153.565,640.38,0,0,0,
,0.873,-0.245,0.182,494.323,-169.312,549.987,0,0,0,
,0.888,-0.279,0.162,611.572,-178.711,497.07,0,0,0,
,0.918,-0.301,0.146,718.933,-189.209,436.462,0,0,0,
,0.939,-0.323,0.131,817.505,-210.022,390.319,0,0,0,
,0.957,-0.343,0.112,898.742,-220.704,358.215,0,0,0,
,0.971,-0.367,0.101,950.683,-228.333,344.055,0,0,0,
,0.981,-0.393,0.104,979.37,-234.375,341.247,0,0,0,
,0.975,-0.415,0.11,987.487,-242.31,351.318,0,0,0,
,0.957,-0.431,0.104,982.666,-242.432,373.352,0,0,0,
,0.92,-0.45,0.111,955.871,-235.779,398.498,0,0,0,
,0.898,-0.478,0.147,891.418,-231.141,422.912,0,0,0,
,0.862,-0.476,0.159,794.25,-212.22,447.143,0,0,0,
,0.839,-0.461,0.155,706.909,-189.82,468.75,0,0,0,
,0.847,-0.47,0.153,613.952,-161.744,497.253,0,0,0,
,0.874,-0.509,0.179,513.427,-131.47,532.287,0,0,0,
,0.9,-0.543,0.202,374.878,-95.459,559.387,0,0,0,
,0.926,-0.556,0.232,217.651,-45.96,570.068,0,0,0,
,0.928,-0.542,0.248,70.007,-0.123,561.218,0,0,0,
,0.91,-0.517,0.251,-47.974,40.588,530.7,0,0,0,
,0.952,-0.524,0.254,-142.212,75.927,476.135,0,0,0,
,0.994,-0.543,0.266,-228.882,102.539,401.611,0,0,0,
,0.982,-0.53,0.274,-299.378,131.103,302.917,0,0,0,
,1.025,-0.537,0.281,-341.431,156.616,171.264,0,0,0,
,1.071,-0.551,0.277,-366.822,175.598,7.263,0,0,0,
,0.952,-0.509,0.263,-364.319,191.101,-177.002,0,0,0,
,0.797,-0.413,0.26,-334.595,207.519,-364.93,0,0,0,
,0.762,-0.369,0.244,-299.622,217.651,-529.053,0,0,0,
,0.85,-0.4,0.244,-278.504,223.877,-676.331,0,0,0,
,0.941,-0.444,0.244,-299.988,222.107,-797.791,0,0,0,
,1.009,-0.461,0.23,-357.361,236.511,-898.438,0,0,0,
,1.073,-0.46,0.213,-420.105,246.765,-989.747,0,0,0,
,1.136,-0.461,0.196,-502.93,256.042,-1065.979,0,0,0,
,1.179,-0.463,0.183,-621.705,270.08,-1126.404,0,0,0,
,1.208,-0.458,0.184,-766.053,288.391,-1178.467,0,0,0,
,1.228,-0.435,0.184,-893.616,299.804,-1225.953,0,0,0,
,1.226,-0.398,0.175,-975.037,300.109,-1269.532,0,0,0,
,1.2,-0.357,0.168,-991.089,280.883,-1308.35,0,0,0,
,1.163,-0.316,0.159,-956.91,250.915,-1340.76,0,0,0,
,1.126,-0.291,0.131,-874.939,225.647,-1349.61,0,0,0,
,1.075,-0.274,0.11,-764.161,186.279,-1348.45,0,0,0,
,1.041,-0.274,0.1,-611.329,157.653,-1316.956,0,0,0,
,1.002,-0.286,0.099,-509.766,135.07,-1281.983,0,0,0,
,0.973,-0.299,0.101,-426.331,122.68,-1234.925,0,0,0,
,0.946,-0.303,0.099,-358.399,103.332,-1168.519,0,0,0,
,0.917,-0.308,0.098,-304.566,77.636,-1104.737,0,0,0,
,0.887,-0.311,0.092,-255.433,53.039,-1034.791,0,0,0,
,0.854,-0.305,0.083,-207.825,32.104,-954.957,0,0,0,
,0.836,-0.301,0.073,-152.894,13.427,-870.24,0,0,0,
,0.814,-0.293,0.08,-90.577,-5.372,-767.64,0,0,0,
,0.797,-0.296,0.084,-26.795,-24.048,-669.19,0,0,0,
,0.815,-0.31,0.1,34.851,-39.307,-564.82,0,0,0,
,0.85,-0.333,0.115,78.186,-55.115,-447.51,0,0,0,
,0.885,-0.353,0.136,106.994,-73.06,-317.444,0,0,0,
,0.883,-0.358,0.157,126.709,-86.487,-203.064,0,0,0,
,0.858,-0.344,0.167,155.822,-96.863,-100.159,0,0,0,
,0.827,-0.326,0.178,196.594,-107.544,0.915,0,0,0,
,0.807,-0.325,0.19,241.76,-114.38,102.417,0,0,0,
,0.874,-0.36,0.197,271.301,-106.08,224.792,0,0,0,
,0.929,-0.385,0.218,277.099,-109.314,357.788,0,0,0,
,0.916,-0.385,0.244,280.822,-111.817,471.13,0,0,0,
,0.944,-0.386,0.237,303.405,-104.615,598.571,0,0,0,
,0.96,-0.39,0.222,347.107,-104.371,735.168,0,0,0,
,0.922,-0.412,0.23,376.831,-103.333,862.121,0,0,0,
,0.871,-0.433,0.252,350.769,-85.938,990.6,0,0,0,
,0.889,-0.458,0.268,277.526,-58.838,1105.346,0,0,0,
,0.995,-0.502,0.296,180.786,-56.702,1197.448,0,0,0,
,1.086,-0.535,0.341,39.917,-70.862,1258.178,0,0,0,
,1.136,-0.516,0.362,-105.469,-80.811,1277.404,0,0,0,
,1.154,-0.459,0.343,-203.37,-86.304,1257.202,0,0,0,
,1.138,-0.409,0.281,-230.896,-97.229,1201.294,0,0,0,
,1.094,-0.364,0.274,-217.408,-92.652,1116.516,0,0,0,
,1.013,-0.306,0.253,-178.467,-81.788,1008.545,0,0,0,
,0.941,-0.25,0.26,-90.882,-81.36,888.183,0,0,0,
,0.884,-0.188,0.28,82.031,-96.985,753.967,0,0,0,
,0.845,-0.13,0.309,343.689,-143.86,607.971,0,0,0,
,0.829,-0.086,0.315,673.217,-215.516,475.708,0,0,0,
,0.854,-0.099,0.278,1039.672,-299.195,374.939,0,0,0,
,0.896,-0.193,0.24,1320.129,-380.555,295.044,0,0,0,
,0.934,-0.297,0.214,1464.721,-429.871,235.046,0,0,0,
,0.971,-0.358,0.188,1459.289,-442.566,188.842,0,0,0,
,1.002,-0.403,0.153,1410.583,-448.67,155.334,0,0,0,
,1.018,-0.445,0.144,1309.692,-456.727,136.474,0,0,0,
,1.006,-0.481,0.133,1176.941,-453.858,141.967,0,0,0,
,0.97,-0.496,0.117,1019.897,-444.581,179.016,0,0,0,
,0.922,-0.505,0.122,873.474,-435.669,224.182,0,0,0,
,0.871,-0.519,0.13,726.684,-421.692,285.522,0,0,0,
,0.833,-0.527,0.161,570.312,-412.964,341.613,0,0,0,
,0.794,-0.507,0.158,437.011,-387.024,398.254,0,0,0,
,0.76,-0.477,0.168,335.083,-364.991,458.862,0,0,0,
,0.767,-0.459,0.172,269.592,-338.318,521.057,0,0,0,
,0.812,-0.467,0.169,216.858,-308.228,578.369,0,0,0,
,0.849,-0.478,0.17,162.109,-273.499,627.868,0,0,0,
,0.885,-0.492,0.18,96.252,-237.915,660.339,0,0,0,
,0.915,-0.499,0.19,32.653,-196.778,672.424,0,0,0,
,0.919,-0.486,0.195,-23.316,-158.02,655.456,0,0,0,
,0.897,-0.459,0.187,-59.449,-117.249,621.032,0,0,0,
,0.892,-0.439,0.17,-73.304,-67.078,566.589,0,0,0,
,0.97,-0.453,0.191,-97.168,-20.142,485.229,0,0,0,
,1.002,-0.469,0.211,-117.066,19.531,393.554,0,0,0,
,1,-0.463,0.235,-120.972,67.321,282.348,0,0,0,
,1.045,-0.474,0.253,-101.868,114.38,161.193,0,0,0,
,1.067,-0.489,0.282,-79.59,144.714,39.489,0,0,0,
,0.966,-0.469,0.304,-46.387,169.922,-84.412,0,0,0,
,0.805,-0.412,0.292,0.122,193.481,-210.877,0,0,0,
,0.706,-0.373,0.277,38.696,209.838,-346.131,0,0,0,
,0.703,-0.396,0.263,31.311,231.14,-468.75,0,0,0,
,0.765,-0.436,0.25,-47.364,260.254,-564.209,0,0,0,
,0.83,-0.457,0.231,-182.557,297.424,-640.137,0,0,0,
,0.868,-0.466,0.213,-331.604,333.923,-705.567,0,0,0,
,0.89,-0.477,0.177,-491.517,368.591,-756.409,0,0,0,
,0.942,-0.486,0.142,-680.054,411.743,-798.462,0,0,0,
,1.049,-0.475,0.134,-885.254,458.374,-828.675,0,0,0,
,1.157,-0.482,0.147,-1076.844,478.149,-857.911,0,0,0,
,1.222,-0.461,0.168,-1213.929,480.285,-885.682,0,0,0,
,1.226,-0.415,0.182,-1265.259,458.191,-922.608,0,0,0,
,1.189,-0.39,0.178,-1245.545,419.067,-966.065,0,0,0,
,1.141,-0.371,0.158,-1207.581,390.503,-1012.269,0,0,0,
,1.115,-0.349,0.13,-1165.223,374.755,-1051.392,0,0,0,
,1.102,-0.315,0.104,-1100.464,353.027,-1084.351,0,0,0,
,1.093,-0.289,0.087,-1007.081,325.561,-1112.183,0,0,0,
,1.082,-0.277,0.091,-905.518,288.147,-1134.522,0,0,0,
,1.073,-0.268,0.108,-799.988,248.779,-1159.974,0,0,0,
,1.061,-0.249,0.131,-687.256,206.298,-1183.167,0,0,0,
,1.044,-0.234,0.156,-554.444,160.278,-1210.083,0,0,0,
,1.017,-0.222,0.174,-398.072,112.976,-1221.924,0,0,0,
,0.995,-0.24,0.188,-249.634,71.411,-1220.887,0,0,0,
,0.961,-0.253,0.189,-139.71,42.785,-1204.895,0,0,0,
,0.927,-0.266,0.194,-41.626,27.893,-1169.373,0,0,0,
,0.899,-0.283,0.203,35.583,11.718,-1123.475,0,0,0,
,0.86,-0.3,0.202,79.284,2.319,-1060.303,0,0,0,
,0.831,-0.318,0.206,90.82,-2.808,-981.873,0,0,0,
,0.819,-0.332,0.204,90.026,-6.531,-877.747,0,0,0,
,0.821,-0.347,0.196,83.496,-11.475,-746.216,0,0,0,
,0.816,-0.361,0.209,76.721,-19.349,-595.52,0,0,0,
,0.798,-0.368,0.224,82.763,-24.842,-428.223,0,0,0,
,0.763,-0.374,0.242,100.891,-37.964,-273.194,0,0,0,
,0.716,-0.379,0.265,120.727,-57.679,-105.774,0,0,0,
,0.681,-0.386,0.287,134.765,-74.524,59.082,0,0,0,
,0.746,-0.407,0.297,145.202,-94.361,256.347,0,0,0,
,0.778,-0.406,0.288,158.996,-118.531,480.163,0,0,0,
,0.796,-0.404,0.25,177.368,-122.986,669.128,0,0,0,
,0.901,-0.422,0.266,212.097,-117.31,894.226,0,0,0,
,1.006,-0.46,0.278,247.131,-128.724,1112.06,0,0,0,
,1.013,-0.461,0.318,256.591,-143.738,1266.357,0,0,0,
,0.97,-0.437,0.339,244.751,-140.381,1354.919,0,0,0,
,1.017,-0.44,0.339,223.388,-139.039,1402.282,0,0,0,
,1.098,-0.449,0.346,174.621,-148.072,1418.64,0,0,0,
,1.109,-0.43,0.349,96.74,-146.119,1388.794,0,0,0,
,1.078,-0.387,0.348,20.996,-136.963,1311.828,0,0,0,
,1.053,-0.347,0.323,-25.086,-126.221,1210.754,0,0,0,
,1.032,-0.322,0.289,-55.542,-122.864,1094.726,0,0,0,
,1.002,-0.295,0.254,-79.773,-106.995,968.139,0,0,0,
,0.974,-0.253,0.229,-88.074,-88.44,827.697,0,0,0,
,0.968,-0.212,0.211,-60.181,-73.243,692.81,0,0,0,
,0.961,-0.18,0.199,31.066,-67.078,580.688,0,0,0,
,0.939,-0.184,0.19,178.588,-85.511,486.206,0,0,0,
,0.917,-0.231,0.182,327.942,-100.892,407.47,0,0,0,
,0.919,-0.266,0.167,444.397,-104.187,350.036,0,0,0,
,0.92,-0.274,0.147,558.288,-109.62,314.27,0,0,0,
,0.923,-0.291,0.123,677.002,-121.46,294.128,0,0,0,
,0.924,-0.326,0.11,778.747,-133.973,289.611,0,0,0,
,0.923,-0.362,0.103,841.186,-138.733,297.973,0,0,0,
,0.918,-0.393,0.105,862.243,-140.076,319.519,0,0,0,
,0.9,-0.417,0.106,848.938,-139.771,346.191,0,0,0,
,0.877,-0.432,0.111,810.302,-135.56,377.014,0,0,0,
,0.869,-0.442,0.118,757.385,-128.418,412.17,0,0,0,
,0.855,-0.447,0.136,686.828,-119.507,452.514,0,0,0,
,0.826,-0.445,0.148,608.276,-111.817,488.647,0,0,0,
,0.804,-0.437,0.144,524.536,-87.952,528.137,0,0,0,
,0.814,-0.444,0.152,442.749,-61.585,568.298,0,0,0,
,0.846,-0.473,0.178,349.182,-33.143,607.544,0,0,0,
,0.889,-0.502,0.211,241.76,0.732,637.39,0,0,0,
,0.935,-0.522,0.247,116.455,35.095,654.297,0,0,0,
,0.964,-0.538,0.278,13.366,64.27,647.949,0,0,0,
,0.962,-0.552,0.309,-100.708,93.627,614.318,0,0,0,
,0.973,-0.564,0.318,-227.601,121.765,544.372,0,0,0,
,1.029,-0.588,0.334,-374.39,144.287,443.847,0,0,0,
,1.036,-0.581,0.346,-509.888,169.86,313.354,0,0,0,
,1.002,-0.544,0.338,-624.695,193.359,153.991,0,0,0,
,1.018,-0.508,0.322,-670.716,216.98,-28.565,0,0,0,
,1.063,-0.463,0.315,-704.102,232.483,-201.539,0,0,0,
,1.065,-0.391,0.311,-688.599,227.172,-351.624,0,0,0,
,1.011,-0.323,0.298,-595.948,196.35,-491.517,0,0,0,
,0.914,-0.267,0.291,-432.557,142.273,-605.53,0,0,0,
,0.812,-0.253,0.273,-255.249,91.064,-688.965,0,0,0,
,0.766,-0.283,0.264,-129.09,53.527,-772.767,0,0,0,
,0.817,-0.323,0.266,-65.064,36.865,-839.051,0,0,0,
,0.913,-0.365,0.255,-50.293,20.752,-887.696,0,0,0,
,1.003,-0.406,0.245,-72.083,9.399,-926.514,0,0,0,
,1.088,-0.454,0.231,-133.423,2.563,-956.421,0,0,0,
,1.155,-0.484,0.218,-232.85,9.094,-974.854,0,0,0,
,1.193,-0.487,0.197,-359.131,17.089,-986.695,0,0,0,
,1.207,-0.475,0.183,-494.446,24.902,-997.986,0,0,0,
,1.219,-0.448,0.172,-616.333,32.898,-1000.184,0,0,0,
,1.215,-0.418,0.162,-713.135,33.142,-1000.428,0,0,0,
,1.189,-0.381,0.146,-754.761,22.399,-1004.395,0,0,0,
,1.158,-0.339,0.128,-739.563,2.563,-1009.4,0,0,0,
,1.119,-0.313,0.109,-681.092,-18.799,-1013.978,0,0,0,
,1.083,-0.296,0.093,-618.653,-25.391,-1016.846,0,0,0,
,1.054,-0.276,0.073,-549.927,-27.71,-1010.926,0,0,0,
,1.024,-0.265,0.059,-477.967,-31.067,-1000.245,0,0,0,
,0.996,-0.257,0.051,-403.687,-34.058,-983.094,0,0,0,
,0.96,-0.251,0.037,-336.731,-30.701,-960.267,0,0,0,
,0.928,-0.257,0.033,-282.044,-28.138,-930.848,0,0,0,
,0.897,-0.258,0.04,-224.183,-22.217,-892.151,0,0,0,
,0.867,-0.254,0.044,-158.326,-18.677,-848.084,0,0,0,
,0.832,-0.263,0.039,-80.689,-13.245,-804.383,0,0,0,
,0.799,-0.276,0.04,-19.043,-10.743,-736.817,0,0,0,
,0.753,-0.286,0.041,30.334,-5.372,-689.82,0,0,0,
,0.713,-0.287,0.05,72.509,2.38,-624.207,0,0,0,
,0.696,-0.293,0.072,116.088,1.648,-550.171,0,0,0,
,0.716,-0.314,0.092,152.526,-2.32,-462.22,0,0,0,
,0.76,-0.35,0.101,157.348,-1.831,-350.159,0,0,0,
,0.803,-0.378,0.117,126.587,-1.954,-225.403,0,0,0,
,0.84,-0.394,0.126,83.435,1.77,-86.426,0,0,0,
,0.856,-0.4,0.148,45.471,2.075,53.405,0,0,0,
,0.846,-0.393,0.17,24.658,-1.16,187.561,0,0,0,
,0.833,-0.38,0.196,17.395,-5.86,312.317,0,0,0,
,0.895,-0.383,0.217,25.94,-1.282,446.533,0,0,0,
,0.947,-0.381,0.237,45.349,-5.249,583.068,0,0,0,
,0.932,-0.37,0.278,79.711,-12.696,694.152,0,0,0,
,0.936,-0.36,0.294,133.728,-6.47,801.941,0,0,0,
,1.013,-0.363,0.293,244.751,2.441,924.865,0,0,0,
,1.127,-0.391,0.299,340.088,10.803,1058.471,0,0,0,
,1.21,-0.45,0.323,392.517,18.127,1187.805,0,0,0,
,1.153,-0.465,0.362,377.807,23.315,1273.437,0,0,0,
,1.019,-0.432,0.381,328.186,45.532,1318.908,0,0,0,
,0.956,-0.423,0.374,278.503,26.672,1329.467,0,0,0,
,0.949,-0.438,0.376,188.11,18.798,1311.157,0,0,0,
,0.983,-0.463,0.392,38.94,16.601,1269.958,0,0,0,
,1.016,-0.459,0.394,-127.198,18.798,1200.927,0,0,0,
,1.047,-0.409,0.377,-226.38,12.451,1103.332,0,0,0,
,1.045,-0.358,0.338,-222.657,-1.648,972.412,0,0,0,
,1.012,-0.311,0.307,-129.822,-13.977,807.983,0,0,0,
,0.971,-0.27,0.29,16.967,-20.691,631.775,0,0,0,
,0.957,-0.243,0.298,187.5,-36.377,455.078,0,0,0,
,0.969,-0.21,0.309,370.788,-57.435,307.861,0,0,0,
,0.965,-0.206,0.287,566.528,-88.44,190.002,0,0,0,
,0.937,-0.249,0.25,743.286,-121.949,81.176,0,0,0,
,0.911,-0.297,0.22,876.892,-154.297,16.845,0,0,0,
,0.878,-0.322,0.191,946.411,-174.134,-34.607,0,0,0,
,0.853,-0.341,0.162,964.843,-183.106,-70.618,0,0,0,
,0.833,-0.356,0.145,944.213,-186.829,-86.976,0,0,0,
,0.827,-0.368,0.131,896.667,-179.261,-88.013,0,0,0,
,0.828,-0.384,0.12,838.256,-165.772,-75.989,0,0,0,
,0.834,-0.4,0.127,771.362,-146.729,-50.477,0,0,0,
,0.836,-0.415,0.141,702.88,-128.602,-21.119,0,0,0,
,0.834,-0.429,0.17,615.173,-110.84,12.39,0,0,0,
,0.818,-0.421,0.17,542.419,-91.126,52.246,0,0,0,
,0.784,-0.405,0.183,476.318,-76.172,90.271,0,0,0,
,0.741,-0.377,0.181,439.453,-50.843,126.892,0,0,0,
,0.69,-0.372,0.204,406.982,-23.804,155.7,0,0,0,
,0.744,-0.394,0.238,354.553,6.347,181.518,0,0,0,
,0.799,-0.436,0.274,262.634,46.814,196.655,0,0,0,
,0.822,-0.455,0.321,133.117,80.627,195.129,0,0,0,
,0.837,-0.449,0.345,-3.846,114.074,176.696,0,0,0,
,0.843,-0.443,0.358,-135.315,132.446,137.329,0,0,0,
,0.819,-0.423,0.366,-249.878,144.104,84.411,0,0,0,
,0.805,-0.38,0.359,-330.14,151.428,19.958,0,0,0,
,0.87,-0.34,0.349,-354.859,151.001,-44.434,0,0,0,
,0.918,-0.311,0.353,-313.599,133.606,-107.605,0,0,0,
,0.914,-0.273,0.354,-213.135,106.079,-170.289,0,0,0,
,1.03,-0.276,0.352,-86.365,80.566,-221.863,0,0,0,
,1.258,-0.346,0.368,19.348,53.772,-252.747,0,0,0,
,1.409,-0.413,0.391,82.214,22.399,-296.326,0,0,0,
,1.366,-0.4,0.377,129.943,0.366,-337.342,0,0,0,
,1.178,-0.335,0.332,180.603,-19.959,-386.475,0,0,0,
,1.018,-0.297,0.287,234.192,-26.551,-430.664,0,0,0,
,0.869,-0.289,0.262,277.954,-21.912,-482.3,0,0,0,
,0.767,-0.299,0.264,269.287,1.098,-533.997,0,0,0,
,0.725,-0.317,0.27,190.002,32.836,-579.834,0,0,0,
,0.73,-0.327,0.277,113.342,57.922,-619.69,0,0,0,
,0.735,-0.337,0.27,27.893,70.312,-656.739,0,0,0,
,0.749,-0.35,0.254,-59.876,69.213,-691.529,0,0,0,
,0.809,-0.355,0.23,-156.983,66.833,-708.558,0,0,0,
,0.847,-0.351,0.2,-252.564,55.847,-711.792,0,0,0,
,0.998,-0.348,0.166,-327.881,41.931,-698.487,0,0,0,
,1.1,-0.338,0.122,-368.348,23.681,-672.791,0,0,0,
,1.187,-0.283,0.088,-357.056,0.244,-636.597,0,0,0,
,1.232,-0.284,0.072,-286.377,-33.875,-597.901,0,0,0,
,1.248,-0.275,0.057,-161.438,-74.83,-550.354,0,0,0,
,1.247,-0.279,0.055,-8.24,-123.047,-503.846,0,0,0,
,1.214,-0.282,0.093,122.436,-161.133,-463.685,0,0,0,
,1.146,-0.274,0.079,254.272,-201.661,-427.918,0,0,0,
,1.048,-0.256,0.098,386.718,-234.253,-405.701,0,0,0,
,0.947,-0.24,0.101,513.366,-260.376,-390.442,0,0,0,
,0.852,-0.235,0.113,613.525,-278.321,-377.93,0,0,0,
,0.788,-0.255,0.128,662.292,-279.114,-359.864,0,0,0,
,0.752,-0.288,0.143,626.831,-254.7,-330.689,0,0,0,
,0.74,-0.324,0.161,536.132,-225.708,-282.471,0,0,0,
,0.76,-0.356,0.18,426.452,-206.299,-208.252,0,0,0,
,0.783,-0.375,0.202,307.251,-192.933,-115.174,0,0,0,
,0.807,-0.379,0.212,202.453,-195.374,1.586,0,0,0,
,0.833,-0.379,0.221,141.418,-226.685,130.005,0,0,0,
,0.847,-0.38,0.24,125.122,-282.776,277.221,0,0,0,
,0.866,-0.368,0.249,184.875,-369.141,415.466,0,0,0,
,0.871,-0.333,0.222,284.912,-467.652,551.513,0,0,0,
,0.869,-0.299,0.206,474.914,-561.28,684.204,0,0,0,
,0.885,-0.271,0.205,672.18,-646.912,815.551,0,0,0,
,0.92,-0.289,0.214,864.38,-746.949,931.091,0,0,0,
,0.96,-0.332,0.229,1025.268,-804.383,1023.742,0,0,0,
,1.006,-0.364,0.201,1149.536,-856.263,1099.975,0,0,0,
,1.058,-0.396,0.172,1244.262,-900.452,1155.822,0,0,0,
,1.088,-0.409,0.141,1306.945,-925.782,1192.077,0,0,0,
,1.108,-0.407,0.118,1352.966,-936.219,1199.218,0,0,0,
,1.118,-0.402,0.102,1398.681,-938.172,1192.26,0,0,0,
,1.127,-0.391,0.086,1455.2,-931.031,1166.687,0,0,0,
,1.122,-0.383,0.07,1531.921,-921.753,1130.005,0,0,0,
,1.103,-0.388,0.063,1603.393,-911.072,1074.707,0,0,0,
,1.093,-0.412,0.066,1635.925,-907.288,1021.118,0,0,0,
,1.085,-0.442,0.07,1604.675,-900.757,955.505,0,0,0,
,1.078,-0.451,0.063,1516.113,-883.912,883.3,0,0,0,
,1.067,-0.432,0.04,1402.832,-863.526,807.861,0,0,0,
,1.081,-0.423,0.016,1284.912,-844.178,734.253,0,0,0,
,1.151,-0.423,-0.014,1164.611,-806.336,674.194,0,0,0,
,1.245,-0.428,-0.041,1052.795,-758.606,618.53,0,0,0,
,1.333,-0.418,-0.07,968.017,-692.139,570.617,0,0,0,
,1.308,-0.378,-0.098,945.984,-621.155,534.484,0,0,0,
,1.142,-0.329,-0.105,986.267,-559.815,490.966,0,0,0,
,0.989,-0.298,-0.1,1074.463,-487.61,445.312,0,0,0,
,0.859,-0.287,-0.067,1128.173,-425.477,393.921,0,0,0,
,0.756,-0.285,-0.023,1161.132,-370.362,341.797,0,0,0,
,0.683,-0.292,0.011,1183.227,-313.538,298.034,0,0,0,
,0.643,-0.319,0.026,1183.96,-283.509,258.422,0,0,0,
,0.633,-0.35,0.035,1132.08,-268.494,232.91,0,0,0,
,0.648,-0.363,0.03,1018.371,-229.981,222.717,0,0,0,
,0.685,-0.355,0.002,870.727,-191.773,220.764,0,0,0,
,0.729,-0.344,-0.018,722.412,-147.156,229.492,0,0,0,
,0.792,-0.334,-0.023,595.092,-96.497,242.431,0,0,0,
,0.86,-0.32,-0.025,511.901,-53.528,257.629,0,0,0,
,0.925,-0.311,-0.002,480.896,-24.353,271.85,0,0,0,
,0.969,-0.303,0.034,496.032,-5.799,292.846,0,0,0,
,0.991,-0.312,0.098,554.87,-3.418,309.143,0,0,0,
,1.004,-0.322,0.161,637.268,-2.076,319.946,0,0,0,
,1.012,-0.33,0.207,726.989,-6.775,325.439,0,0,0,
,1.02,-0.318,0.242,827.88,-23.743,318.481,0,0,0,
,1.024,-0.313,0.268,936.34,-57.435,319.458,0,0,0,
,0.935,-0.299,0.241,1034.24,-67.322,347.412,0,0,0,
,0.843,-0.322,0.255,1071.289,-52.674,394.897,0,0,0,
,0.823,-0.383,0.295,1031.005,-33.204,454.773,0,0,0,
,0.843,-0.446,0.35,902.771,-22.217,513.549,0,0,0,
,0.867,-0.467,0.393,750.244,-28.077,564.392,0,0,0,
,0.877,-0.451,0.391,636.963,-43.824,622.924,0,0,0,
,0.882,-0.444,0.374,575.927,-64.331,684.204,0,0,0,
,0.899,-0.446,0.357,540.71,-81.849,761.657,0,0,0,
,0.92,-0.444,0.361,507.995,-94.3,838.44,0,0,0,
,0.932,-0.432,0.379,476.013,-103.028,904.724,0,0,0,
,0.929,-0.42,0.389,459.838,-110.535,956.97,0,0,0,
,0.928,-0.417,0.389,479.98,-121.338,993.469,0,0,0,
,0.942,-0.429,0.382,512.024,-134.278,1013.488,0,0,0,
,0.955,-0.438,0.376,534.057,-144.165,1017.7,0,0,0,
,0.954,-0.444,0.364,537.902,-145.997,1001.159,0,0,0,
,0.956,-0.445,0.363,530.517,-140.809,953.125,0,0,0,
,0.942,-0.44,0.355,518.127,-128.052,893.737,0,0,0,
,0.924,-0.428,0.355,507.568,-118.714,823.486,0,0,0,
,0.908,-0.425,0.348,500.793,-105.164,715.759,0,0,0,
,0.875,-0.418,0.339,488.037,-88.623,593.261,0,0,0,
,0.839,-0.405,0.328,472.961,-57.068,457.214,0,0,0,
,0.807,-0.394,0.322,449.646,-25.879,320.007,0,0,0,
,0.792,-0.381,0.32,417.968,8.361,189.331,0,0,0,
,0.803,-0.364,0.313,398.62,42.907,74.89,0,0,0,
,0.853,-0.374,0.316,394.775,68.054,-25.513,0,0,0,
,0.914,-0.404,0.329,406.128,75.927,-112.793,0,0,0,
,0.906,-0.414,0.336,406.25,87.951,-179.139,0,0,0,
,0.916,-0.437,0.347,387.39,102.478,-239.747,0,0,0,
,0.955,-0.46,0.365,345.947,112.671,-284.058,0,0,0,
,1.038,-0.496,0.389,271.057,124.817,-320.862,0,0,0,
,1.149,-0.521,0.408,184.936,131.469,-348.816,0,0,0,
,1.2,-0.51,0.41,127.258,129.394,-382.752,0,0,0,
,1.088,-0.451,0.395,149.658,106.201,-457.032,0,0,0,
,0.93,-0.36,0.364,196.472,114.685,-527.649,0,0,0,
,0.809,-0.293,0.348,273.803,125.244,-587.281,0,0,0,
,0.715,-0.288,0.358,319.824,139.221,-647.278,0,0,0,
,0.665,-0.324,0.366,294.25,171.203,-700.44,0,0,0,
,0.683,-0.378,0.343,209.655,210.693,-743.592,0,0,0,
,0.744,-0.425,0.312,98.816,234.253,-779.847,0,0,0,
,0.806,-0.45,0.282,-43.763,252.807,-788.88,0,0,0,
,0.889,-0.472,0.243,-219.3,262.451,-786.56,0,0,0,
,1.003,-0.481,0.206,-414.368,268.859,-766.602,0,0,0,
,1.11,-0.482,0.183,-598.084,255.554,-740.113,0,0,0,
,1.208,-0.47,0.167,-749.268,236.511,-715.882,0,0,0,
,1.297,-0.442,0.161,-830.628,208.007,-695.008,0,0,0,
,1.312,-0.401,0.151,-838.868,168.151,-683.045,0,0,0,
,1.227,-0.354,0.144,-780.64,130.371,-679.505,0,0,0,
,1.14,-0.31,0.142,-689.148,105.713,-690.491,0,0,0,
,1.097,-0.264,0.137,-545.533,70.373,-721.802,0,0,0,
,1.034,-0.201,0.108,-337.647,44.189,-757.691,0,0,0,
,0.955,-0.147,0.077,-83.863,28.564,-790.101,0,0,0,
,0.901,-0.163,0.066,170.288,16.479,-807.923,0,0,0,
,0.874,-0.228,0.074,346.252,34.545,-811.768,0,0,0,
,0.862,-0.287,0.079,424.926,81.726,-814.698,0,0,0,
,0.873,-0.317,0.072,425.354,128.662,-804.322,0,0,0,
,0.882,-0.339,0.063,381.103,167.358,-769.593,0,0,0,
,0.882,-0.362,0.051,307.983,196.106,-722.229,0,0,0,
,0.877,-0.389,0.037,206.115,220.825,-663.331,0,0,0,
,0.87,-0.405,0.035,75.317,238.281,-592.896,0,0,0,
,0.867,-0.411,0.043,-59.51,249.939,-517.579,0,0,0,
,0.861,-0.405,0.06,-180.848,250.976,-442.627,0,0,0,
,0.854,-0.382,0.079,-266.724,246.704,-366.15,0,0,0,
,0.845,-0.367,0.102,-313.66,234.924,-294.373,0,0,0,
,0.855,-0.37,0.123,-345.704,227.356,-215.394,0,0,0,
,0.897,-0.381,0.144,-375.428,220.703,-124.146,0,0,0,
,0.932,-0.384,0.178,-403.565,207.397,-36.866,0,0,0,
,0.947,-0.383,0.216,-411.622,183.044,39.611,0,0,0,
,0.935,-0.371,0.241,-391.724,152.893,115.295,0,0,0,
,0.912,-0.347,0.262,-331.116,108.764,183.776,0,0,0,
,0.909,-0.325,0.267,-224.427,69.702,259.46,0,0,0,
,0.998,-0.331,0.259,-108.338,46.752,359.375,0,0,0,
,1.066,-0.34,0.264,-2.625,20.507,474.975,0,0,0,
,1.051,-0.328,0.292,102.905,-10.987,570.495,0,0,0,
,1.032,-0.318,0.309,227.966,-42.115,672.729,0,0,0,
,1.054,-0.331,0.319,379.577,-87.952,783.142,0,0,0,
,1.028,-0.355,0.321,535.217,-139.954,888.855,0,0,0,
,0.978,-0.37,0.354,670.654,-187.195,977.356,0,0,0,
,0.949,-0.392,0.368,778.808,-248.23,1049.438,0,0,0,
,0.95,-0.433,0.357,841.43,-313.172,1089.294,0,0,0,
,0.983,-0.483,0.351,837.524,-372.498,1117.553,0,0,0,
,1.014,-0.515,0.344,773.01,-424.439,1105.041,0,0,0,
,1.015,-0.528,0.321,637.207,-446.228,1057.495,0,0,0,
,0.988,-0.49,0.271,490.051,-437.867,980.774,0,0,0,
,0.967,-0.44,0.251,373.474,-424.561,872.436,0,0,0,
,0.909,-0.442,0.225,287.536,-392.334,724.06,0,0,0,
,0.9,-0.413,0.223,186.95,-361.634,568.542,0,0,0,
,0.889,-0.363,0.226,118.896,-312.439,402.71,0,0,0,
,0.909,-0.312,0.221,105.957,-274.414,243.896,0,0,0,
,0.914,-0.281,0.196,136.596,-246.705,113.952,0,0,0,
,0.885,-0.292,0.167,195.373,-224.549,9.521,0,0,0,
,0.86,-0.301,0.154,267.151,-212.342,-72.022,0,0,0,
,0.85,-0.308,0.129,340.149,-199.891,-133.545,0,0,0,
,0.851,-0.315,0.117,417.419,-193.36,-174.988,0,0,0,
,0.836,-0.329,0.101,494.506,-187.561,-194.764,0,0,0,
,0.826,-0.336,0.108,574.585,-174.683,-193.299,0,0,0,
,0.817,-0.333,0.103,668.945,-160.767,-174.256,0,0,0,
,0.81,-0.326,0.098,796.02,-159.668,-141.785,0,0,0,
,0.802,-0.359,0.087,890.686,-159.485,-111.939,0,0,0,
,0.798,-0.406,0.094,916.87,-154.664,-67.2,0,0,0,
,0.779,-0.438,0.095,886.291,-131.958,-20.63,0,0,0,
,0.765,-0.444,0.109,837.951,-119.202,23.925,0,0,0,
,0.747,-0.454,0.115,764.648,-112.915,62.5,0,0,0,
,0.728,-0.474,0.119,650.451,-99.915,103.271,0,0,0,
,0.718,-0.482,0.123,497.314,-74.952,135.62,0,0,0,
,0.734,-0.489,0.13,355.407,-50.232,167.48,0,0,0,
,0.766,-0.503,0.135,222.29,-27.1,194.519,0,0,0,
,0.815,-0.52,0.146,79.65,-4.395,223.632,0,0,0,
,0.866,-0.53,0.157,-51.697,9.216,250.61,0,0,0,
,0.912,-0.534,0.16,-160.767,22.522,270.446,0,0,0,
,0.954,-0.542,0.168,-255.249,35.156,282.531,0,0,0,
,0.964,-0.542,0.18,-338.379,49.804,282.043,0,0,0,
,0.93,-0.524,0.182,-402.588,66.711,264.038,0,0,0,
,0.958,-0.515,0.18,-450.501,95.703,238.22,0,0,0,
,1.028,-0.535,0.184,-502.137,114.807,213.012,0,0,0,
,1.045,-0.535,0.182,-542.847,128.845,178.527,0,0,0,
,1.096,-0.537,0.178,-566.04,152.526,124.878,0,0,0,
,0.907,-0.452,0.151,-497.803,200.439,-144.593,0,0,0,
,0.817,-0.423,0.148,-453.431,234.985,-288.697,0,0,0,
,0.817,-0.417,0.171,-462.22,268.676,-424.988,0,0,0,
,0.892,-0.433,0.188,-515.992,299.804,-536.744,0,0,0,
,0.983,-0.465,0.194,-581.788,322.937,-634.949,0,0,0,
,1.052,-0.498,0.199,-671.692,342.102,-730.164,0,0,0,
,1.128,-0.515,0.198,-787.049,369.567,-806.153,0,0,0,
,1.189,-0.504,0.196,-920.899,392.151,-879.09,0,0,0,
,1.202,-0.469,0.188,-1044.251,410.583,-942.261,0,0,0,
,1.167,-0.431,0.164,-1152.039,417.358,-989.747,0,0,0,
,1.114,-0.391,0.149,-1204.224,416.442,-1023.133,0,0,0,
,1.053,-0.358,0.139,-1232.178,402.832,-1038.025,0,0,0,
,0.998,-0.327,0.128,-1216.919,377.746,-1048.462,0,0,0,
,0.962,-0.309,0.13,-1160.645,339.66,-1054.871,0,0,0,
,0.943,-0.282,0.107,-1041.687,294.555,-1037.842,0,0,0,
,0.922,-0.275,0.103,-887.757,251.709,-1013.55,0,0,0,
,0.9,-0.286,0.095,-740.418,223.571,-970.337,0,0,0,
,0.869,-0.296,0.097,-632.447,206.909,-921.631,0,0,0,
,0.853,-0.295,0.083,-557.373,201.782,-872.498,0,0,0,
,0.838,-0.29,0.071,-485.657,185.485,-820.435,0,0,0,
,0.838,-0.294,0.071,-421.692,168.64,-768.067,0,0,0,
,0.84,-0.303,0.066,-372.62,153.198,-710.144,0,0,0,
,0.844,-0.301,0.063,-327.82,135.315,-644.165,0,0,0,
,0.845,-0.302,0.091,-279.053,119.873,-572.876,0,0,0,
,0.85,-0.309,0.067,-231.141,100.097,-493.714,0,0,0,
,0.846,-0.318,0.084,-188.294,81.298,-410.767,0,0,0,
,0.85,-0.329,0.099,-156.8,58.96,-329.285,0,0,0,
,0.854,-0.343,0.122,-133.973,39.856,-246.888,0,0,0,
,0.877,-0.353,0.147,-117.493,21.118,-167.115,0,0,0,
,0.902,-0.353,0.169,-105.408,3.723,-91.004,0,0,0,
,0.932,-0.355,0.19,-93.323,-11.414,-22.095,0,0,0,
,0.903,-0.307,0.22,77.819,-51.819,165.222,0,0,0,
,0.941,-0.331,0.252,114.746,-62.623,235.29,0,0,0,
,0.995,-0.341,0.292,156.005,-68.421,315.796,0,0,0,
,0.96,-0.325,0.324,219.787,-83.069,379.882,0,0,0,
,0.969,-0.321,0.337,322.326,-85.999,457.641,0,0,0,
,1.046,-0.349,0.325,442.077,-91.675,559.265,0,0,0,
,1.078,-0.384,0.323,541.931,-101.868,653.32,0,0,0,
,1.043,-0.411,0.339,573.303,-104.31,732.36,0,0,0,
,0.951,-0.399,0.358,555.297,-103.15,789.428,0,0,0,
,0.874,-0.381,0.342,530.944,-98.084,832.458,0,0,0,
,0.837,-0.395,0.336,496.46,-110.901,873.047,0,0,0,
,0.819,-0.414,0.342,417.114,-114.136,875.244,0,0,0,
,0.831,-0.425,0.334,295.593,-110.169,880.31,0,0,0,
,0.889,-0.415,0.319,172.058,-109.07,876.098,0,0,0,
,0.971,-0.394,0.291,78.552,-120.179,857.849,0,0,0,
,0.984,-0.355,0.266,36.987,-129.7,823.12,0,0,0,
,0.965,-0.307,0.238,48.95,-131.287,783.508,0,0,0,
,0.998,-0.282,0.238,335.937,-141.297,649.78,0,0,0,
,1.024,-0.323,0.252,418.884,-141.358,603.698,0,0,0,
,1.03,-0.357,0.249,471.923,-135.132,561.096,0,0,0,
,1.007,-0.374,0.239,509.216,-130.677,519.592,0,0,0,
,0.966,-0.382,0.217,524.536,-128.113,484.802,0,0,0,
,0.92,-0.384,0.196,511.169,-116.944,455.383,0,0,0,
,0.884,-0.385,0.184,481.262,-109.192,428.405,0,0,0,
,0.864,-0.387,0.175,440.796,-94.788,407.898,0,0,0,
,0.862,-0.399,0.183,399.292,-83.435,393.005,0,0,0,
,0.864,-0.41,0.179,357.605,-71.656,383.85,0,0,0,
,0.869,-0.417,0.185,317.016,-61.707,376.892,0,0,0,
,0.869,-0.416,0.186,285.766,-50.721,374.267,0,0,0,
,0.863,-0.402,0.159,273.803,-43.03,366.638,0,0,0,
,0.854,-0.378,0.19,295.471,-38.147,358.825,0,0,0,
,0.842,-0.366,0.2,345.581,-39.978,341.125,0,0,0,
,0.816,-0.364,0.21,405.883,-36.133,321.594,0,0,0,
,0.781,-0.37,0.227,456.787,-32.715,298.339,0,0,0,
,0.758,-0.4,0.246,473.999,-17.823,266.662,0,0,0,
,0.754,-0.439,0.257,429.748,2.868,230.529,0,0,0,
,0.785,-0.471,0.284,326.843,38.635,192.382,0,0,0,
,0.836,-0.498,0.306,190.918,67.932,151.001,0,0,0,
,0.857,-0.5,0.326,47.241,99.975,102.783,0,0,0,
,0.873,-0.48,0.337,-64.881,120.239,47.668,0,0,0,
,0.883,-0.477,0.347,-170.35,135.009,-6.958,0,0,0,
,1.042,-0.451,0.363,-337.464,162.109,-164.307,0,0,0,
,1.172,-0.465,0.369,-361.573,153.747,-214.6,0,0,0,
,1.287,-0.458,0.375,-359.742,139.343,-262.574,0,0,0,
,1.299,-0.421,0.372,-311.646,113.952,-320.435,0,0,0,
,1.174,-0.355,0.35,-220.948,84.228,-388.733,0,0,0,
,0.775,-0.262,0.296,101.074,45.776,-648.56,0,0,0,
,0.746,-0.277,0.296,136.474,55.175,-743.409,0,0,0,
,0.8,-0.315,0.275,136.901,74.585,-822.022,0,0,0,
,0.899,-0.366,0.251,91.125,88.684,-886.841,0,0,0,
,1.018,-0.411,0.23,-11.414,115.844,-934.632,0,0,0,
,1.129,-0.422,0.198,-154.602,151.001,-962.525,0,0,0,
,1.167,-0.409,0.172,-295.96,184.57,-974.854,0,0,0,
,1.16,-0.391,0.155,-388.489,199.951,-966.126,0,0,0,
,1.133,-0.376,0.146,-452.637,216.735,-948.304,0,0,0,
,1.083,-0.373,0.145,-502.747,231.018,-912.72,0,0,0,
,1.03,-0.378,0.155,-542.542,237.976,-877.625,0,0,0,
,0.973,-0.372,0.16,-569.214,244.873,-841.919,0,0,0,
,0.918,-0.354,0.154,-571.839,245.91,-806.397,0,0,0,
,0.882,-0.343,0.145,-543.885,241.088,-768.738,0,0,0,
,0.858,-0.343,0.121,-500.184,240.112,-727.295,0,0,0,
,0.842,-0.342,0.107,-519.104,248.779,-681.092,0,0,0,
,0.829,-0.335,0.091,-539.917,254.15,-629.151,0,0,0,
,0.806,-0.306,0.098,-544.861,235.412,-488.465,0,0,0,
,0.803,-0.3,0.105,-514.893,213.501,-437.928,0,0,0,
,0.795,-0.297,0.125,-472.718,184.753,-392.518,0,0,0,
,0.785,-0.288,0.138,-417.847,157.714,-351.441,0,0,0,
,0.771,-0.277,0.143,-352.784,129.76,-309.388,0,0,0,
,0.798,-0.285,0.184,-142.456,82.885,-183.655,0,0,0,
,0.853,-0.307,0.2,-96.985,78.796,-132.019,0,0,0,
,0.925,-0.329,0.216,-63.355,74.585,-72.51,0,0,0,
,0.995,-0.348,0.235,-37.781,69.336,-4.09,0,0,0,
,1.03,-0.355,0.252,-3.235,59.692,59.997,0,0,0,
,1.023,-0.35,0.271,42.602,50.415,123.535,0,0,0,
,0.994,-0.34,0.28,99.731,37.353,185.608,0,0,0,
,0.964,-0.337,0.303,153.137,19.348,245.544,0,0,0,
,0.987,-0.354,0.325,197.204,3.418,312.744,0,0,0,
,1.058,-0.375,0.328,225.341,-8.789,399.292,0,0,0,
,1.046,-0.361,0.329,260.559,-27.649,474.243,0,0,0,
,1.163,-0.419,0.297,365.478,-54.078,711.914,0,0,0,
,1.126,-0.445,0.32,307.617,-41.138,774.719,0,0,0,
,1.048,-0.427,0.348,225.158,-31.739,797.851,0,0,0,
,0.944,-0.376,0.335,183.532,-33.936,788.635,0,0,0,
,0.882,-0.328,0.289,196.96,-64.942,760.437,0,0,0,
,0.849,-0.293,0.239,226.501,-94.361,728.637,0,0,0,
,0.842,-0.283,0.203,249.267,-118.653,700.439,0,0,0,
,0.869,-0.268,0.172,281.799,-132.874,687.133,0,0,0,
,0.907,-0.256,0.151,329.956,-159.607,665.405,0,0,0,
,0.941,-0.263,0.132,388.733,-186.219,642.089,0,0,0,
,0.965,-0.275,0.12,457.153,-213.318,617.981,0,0,0,
,0.978,-0.285,0.119,544.433,-239.014,590.393,0,0,0,
,0.988,-0.29,0.11,640.808,-260.865,560.73,0,0,0,
,0.986,-0.302,0.11,733.764,-275.513,532.531,0,0,0,
,0.98,-0.319,0.128,810.302,-290.711,508.545,0,0,0,
,0.956,-0.339,0.145,865.295,-298.218,487.243,0,0,0,
,0.929,-0.348,0.152,905.578,-306.885,463.501,0,0,0,
,0.914,-0.346,0.139,932.678,-307.251,438.659,0,0,0,
,0.898,-0.345,0.111,943.603,-303.345,420.654,0,0,0,
,0.889,-0.351,0.097,939.575,-293.274,410.461,0,0,0,
,0.882,-0.366,0.109,911.499,-280.64,400.329,0,0,0,
,0.873,-0.378,0.114,868.225,-259.583,390.197,0,0,0,
,0.864,-0.383,0.13,821.96,-239.136,378.357,0,0,0,
,0.854,-0.391,0.136,764.099,-211.976,368.347,0,0,0,
,0.851,-0.404,0.154,693.359,-185.608,360.168,0,0,0,
,0.843,-0.397,0.17,620.178,-155.884,349.182,0,0,0,
,0.817,-0.401,0.185,545.715,-127.686,337.768,0,0,0,
,0.79,-0.401,0.198,473.205,-93.995,329.223,0,0,0,
,0.764,-0.401,0.208,394.043,-68.604,320.678,0,0,0,
,0.732,-0.402,0.227,314.941,-45.777,308.471,0,0,0,
,0.716,-0.393,0.236,242.126,-18.86,297.546,0,0,0,
,0.737,-0.401,0.245,180.236,5.554,290.466,0,0,0,
,0.788,-0.419,0.26,125.305,28.076,289.917,0,0,0,
,0.837,-0.44,0.28,64.331,49.194,288.696,0,0,0,
,0.897,-0.45,0.293,8.117,70.495,285.095,0,0,0,
,0.972,-0.461,0.306,-45.411,88.256,270.324,0,0,0,
,1.021,-0.459,0.316,-85.389,97.839,242.859,0,0,0,
,1.007,-0.429,0.31,-106.568,111.023,200.622,0,0,0,
,1.027,-0.413,0.309,-115.54,126.037,147.705,0,0,0,
,1.079,-0.432,0.316,-116.822,136.291,86.853,0,0,0,
,1.01,-0.424,0.324,-117.859,144.775,20.629,0,0,0,
,0.991,-0.422,0.329,-123.352,159.24,-54.566,0,0,0,
,1.081,-0.446,0.317,-147.767,171.02,-126.465,0,0,0,
,1.142,-0.48,0.311,-197.449,164.672,-199.646,0,0,0,
,1.078,-0.498,0.281,-292.054,177.856,-271.18,0,0,0,
,0.957,-0.505,0.237,-449.158,199.157,-356.812,0,0,0,
,0.831,-0.485,0.195,-653.077,237.915,-459.229,0,0,0,
,0.76,-0.433,0.154,-863.526,274.841,-566.651,0,0,0,
,0.801,-0.389,0.134,-1070.618,300.415,-664.856,0,0,0,
,0.934,-0.348,0.126,-1166.749,300.048,-748.597,0,0,0,
,1.064,-0.288,0.116,-1129.334,264.465,-823.975,0,0,0,
,1.181,-0.235,0.088,-973.572,211.425,-868.897,0,0,0,
,1.211,-0.207,0.075,-735.84,151.367,-886.231,0,0,0,
,1.201,-0.225,0.119,-506.043,95.764,-892.762,0,0,0,
,1.177,-0.308,0.115,-450.806,115.051,-891.236,0,0,0,
,1.124,-0.343,0.071,-596.558,218.872,-907.105,0,0,0,
,1.17,-0.183,0.064,-487.488,181.152,-921.57,0,0,0,
,1.1,-0.226,0.032,-242.615,120.483,-902.405,0,0,0,
,0.984,-0.288,0.042,-86.304,104.065,-921.875,0,0,0,
,0.928,-0.326,0.047,-77.271,149.841,-901.001,0,0,0,
,0.891,-0.367,0.041,-149.17,178.894,-878.968,0,0,0,
,0.854,-0.381,0.033,-291.077,216.98,-845.52,0,0,0,
,0.847,-0.371,0.026,-427.491,229.065,-790.65,0,0,0,
,0.844,-0.38,0.023,-556.885,228.698,-727.234,0,0,0,
,0.847,-0.394,0.013,-694.764,218.811,-668.763,0,0,0,
,0.85,-0.384,0.009,-817.566,207.824,-601.685,0,0,0,
,0.843,-0.362,-0.001,-890.625,186.279,-526.978,0,0,0,
,0.84,-0.339,-0.002,-905.274,157.531,-455.262,0,0,0,
,0.842,-0.315,0.001,-882.142,128.479,-379.212,0,0,0,
,0.845,-0.297,0.009,-836.731,99.182,-302.918,0,0,0,
,0.84,-0.281,0.021,-748.047,66.04,-230.103,0,0,0,
,0.826,-0.27,0.039,-616.578,27.893,-170.838,0,0,0,
,0.834,-0.264,0.049,-496.46,0.061,-116.7,0,0,0,
,0.89,-0.272,0.058,-357.911,-27.588,-62.195,0,0,0,
,0.96,-0.286,0.08,-224.488,-54.383,-17.579,0,0,0,
,1.002,-0.274,0.095,-89.6,-93.506,9.765,0,0,0,
,1.005,-0.243,0.098,63.781,-90.332,24.231,0,0,0,
,1,-0.228,0.097,242.187,-104.187,34.423,0,0,0,
,0.998,-0.241,0.109,414.734,-108.582,44.311,0,0,0,
,1.054,-0.27,0.123,559.204,-97.046,69.885,0,0,0,
,1.118,-0.325,0.15,662.109,-84.961,102.905,0,0,0,
,1.086,-0.358,0.185,719.787,-76.539,130.859,0,0,0,
,1.12,-0.412,0.223,711.364,-44.739,232.36,0,0,0,
,1.057,-0.426,0.256,667.785,-48.829,280.7,0,0,0,
,0.894,-0.398,0.267,593.444,-41.504,325.622,0,0,0,
,0.765,-0.399,0.274,490.539,-23.316,369.14,0,0,0,
,0.724,-0.43,0.284,361.877,-1.343,414.184,0,0,0,
,0.747,-0.449,0.319,181.884,27.954,467.895,0,0,0,
,0.784,-0.438,0.351,-3.357,57.861,510.376,0,0,0,
,0.842,-0.432,0.352,-164.063,59.936,534.301,0,0,0,
,0.893,-0.432,0.342,-295.105,54.504,551.33,0,0,0,
,0.938,-0.406,0.341,-391.175,47.851,563.354,0,0,0,
,0.972,-0.356,0.339,-417.542,37.78,561.767,0,0,0,
,1.004,-0.309,0.332,-369.873,21.301,554.26,0,0,0,
,1.013,-0.268,0.326,-223.389,-6.897,539.856,0,0,0,
,0.985,-0.243,0.318,-34.424,-41.504,513.794,0,0,0,
,0.949,-0.246,0.314,156.494,-82.52,479.98,0,0,0,
,0.904,-0.271,0.291,320.007,-116.517,438.903,0,0,0,
,0.87,-0.294,0.26,412.841,-132.935,397.216,0,0,0,
,0.853,-0.312,0.234,453.979,-141.114,352.172,0,0,0,
,0.853,-0.329,0.215,459.838,-143.006,310.669,0,0,0,
,0.858,-0.375,0.205,439.148,-138.977,274.719,0,0,0,
,0.863,-0.372,0.198,401.367,-130.616,242.92,0,0,0,
,0.861,-0.4,0.187,331.237,-111.878,217.346,0,0,0,
,0.865,-0.407,0.194,250.671,-79.773,210.083,0,0,0,
,0.888,-0.358,0.192,180.053,-54.81,232.299,0,0,0,
,0.879,-0.383,0.18,193.42,-62.806,220.642,0,0,0,
,0.804,-0.419,0.158,178.527,-54.688,200.317,0,0,0,
,0.749,-0.424,0.187,66.406,-17.273,223.022,0,0,0,
,0.739,-0.346,0.17,38.94,26.489,239.563,0,0,0,
,0.74,-0.291,0.173,72.387,18.798,239.013,0,0,0,
,0.73,-0.347,0.18,120.849,-0.733,228.759,0,0,0,
,0.768,-0.405,0.18,75.5,28.991,235.229,0,0,0,
,0.854,-0.435,0.219,-10.987,60.424,234.985,0,0,0,
,0.914,-0.426,0.243,-73.975,84.289,228.088,0,0,0,
,0.958,-0.43,0.256,-107.666,97.717,213.989,0,0,0,
,0.988,-0.43,0.268,-140.625,106.262,194.885,0,0,0,
,0.978,-0.426,0.273,-155.884,121.46,162.109,0,0,0,
,1.014,-0.427,0.287,-194.031,142.273,121.154,0,0,0,
,1.116,-0.454,0.313,-228.028,148.132,77.392,0,0,0,
,1.13,-0.434,0.318,-240.601,148.376,27.282,0,0,0,
,1.109,-0.413,0.319,-226.075,138.977,-38.514,0,0,0,
,1.136,-0.417,0.323,-215.21,130.676,-99.305,0,0,0,
,1.186,-0.413,0.324,-199.952,123.718,-169.617,0,0,0,
,1.128,-0.386,0.312,-165.039,108.276,-251.587,0,0,0,
,1.012,-0.332,0.288,-82.52,82.763,-335.999,0,0,0,
,0.889,-0.304,0.273,-8.789,55.664,-432.007,0,0,0,
,0.76,-0.295,0.25,57.861,38.269,-507.691,0,0,0,
,0.653,-0.299,0.224,77.392,47.18,-609.314,0,0,0,
,0.61,-0.303,0.207,55.358,61.157,-662.171,0,0,0,
,0.641,-0.331,0.201,0.244,74.401,-717.957,0,0,0,
,0.762,-0.384,0.186,-89.112,84.777,-750.672,0,0,0,
,0.911,-0.419,0.173,-218.873,88.134,-757.63,0,0,0,
,1.059,-0.438,0.148,-342.774,79.589,-756.653,0,0,0,
,1.158,-0.414,0.118,-427.002,63.11,-740.479,0,0,0,
,1.176,-0.36,0.081,-459.656,51.086,-697.998,0,0,0,
,1.156,-0.328,0.047,-448.304,47.302,-646.912,0,0,0,
,1.142,-0.307,0.037,-422.364,44.799,-585.206,0,0,0,
,1.125,-0.297,0.035,-386.353,45.105,-521.729,0,0,0,
,1.096,-0.314,0.041,-323.182,32.165,-475.281,0,0,0,
,1.025,-0.335,0.067,-260.804,15.014,-454.773,0,0,0,
,0.945,-0.343,0.082,-204.651,22.949,-444.214,0,0,0,
,0.89,-0.329,0.096,-194.458,36.438,-436.707,0,0,0,
,0.843,-0.287,0.083,-171.936,78.491,-415.284,0,0,0,
,0.831,-0.295,0.093,-120.179,79.162,-412.964,0,0,0,
,0.811,-0.326,0.097,-104.248,99.853,-410.95,0,0,0,
,0.798,-0.336,0.078,-139.893,135.62,-399.414,0,0,0,
,0.807,-0.333,0.073,-182.007,157.348,-393.067,0,0,0,
,0.817,-0.332,0.072,-237.549,172.18,-378.052,0,0,0,
,0.826,-0.337,0.06,-302.796,183.532,-354.187,0,0,0,
,0.835,-0.336,0.063,-356.446,190.551,-327.698,0,0,0,
,0.833,-0.326,0.071,-394.593,190.612,-293.641,0,0,0,
,0.828,-0.313,0.079,-403.565,180.42,-260.193,0,0,0,
,0.807,-0.301,0.084,-385.682,160.766,-225.342,0,0,0,
,0.782,-0.29,0.124,-350.281,137.085,-194.886,0,0,0,
,0.77,-0.275,0.105,-296.998,114.257,-165.711,0,0,0,
,0.786,-0.274,0.105,-224.06,90.698,-131.592,0,0,0,
,0.853,-0.28,0.114,-139.527,71.044,-82.825,0,0,0,
,0.938,-0.296,0.118,-53.406,54.565,-21.973,0,0,0,
,1.022,-0.311,0.132,38.208,36.743,45.288,0,0,0,
,1.085,-0.318,0.139,144.592,20.263,118.286,0,0,0,
,1.104,-0.314,0.142,268.737,-0.489,193.359,0,0,0,
,1.085,-0.311,0.152,409.668,-30.274,258.667,0,0,0,
,1.073,-0.328,0.17,530.029,-55.115,321.411,0,0,0,
,1.137,-0.392,0.189,589.355,-68.482,401.245,0,0,0,
,1.159,-0.428,0.215,594.543,-85.938,485.351,0,0,0,
,1.058,-0.421,0.233,569.519,-90.332,556.64,0,0,0,
,1,-0.429,0.251,535.095,-92.53,628.845,0,0,0,
,1.009,-0.466,0.266,469.36,-100.403,700.439,0,0,0,
,1.056,-0.502,0.281,334.289,-91.37,766.296,0,0,0,
,1.061,-0.497,0.294,208.13,-82.825,814.941,0,0,0,
,0.993,-0.45,0.297,98.632,-74.952,840.759,0,0,0,
,0.893,-0.402,0.289,39.184,-76.6,840.271,0,0,0,
,0.822,-0.377,0.281,22.644,-88.074,821.045,0,0,0,
,0.809,-0.365,0.285,18.31,-102.234,795.593,0,0,0,
,0.836,-0.357,0.285,16.967,-116.578,750.549,0,0,0,
,0.872,-0.354,0.285,23.315,-139.771,732.544,0,0,0,
,0.921,-0.313,0.267,57.067,-170.35,678.344,0,0,0,
,0.961,-0.321,0.241,123.474,-198.731,607.483,0,0,0,
,1,-0.29,0.207,208.435,-219.056,516.235,0,0,0,
,1.017,-0.271,0.183,296.264,-226.868,417.663,0,0,0,
,1.019,-0.264,0.177,371.154,-220.948,312.194,0,0,0,
,1.014,-0.263,0.182,428.222,-209.961,202.453,0,0,0,
,0.992,-0.28,0.197,471.557,-192.444,93.933,0,0,0,
,0.933,-0.3,0.2,522.522,-173.829,-11.292,0,0,0,
,0.875,-0.32,0.195,559.875,-161.56,-99.488,0,0,0,
,0.839,-0.335,0.189,568.664,-142.823,-183.289,0,0,0,
,0.813,-0.34,0.168,545.898,-118.775,-251.282,0,0,0,
,0.792,-0.34,0.151,510.62,-95.459,-301.514,0,0,0,
,0.799,-0.343,0.142,469.238,-72.571,-336.182,0,0,0,
,0.813,-0.348,0.125,408.63,-49.195,-353.089,0,0,0,
,0.816,-0.349,0.118,370.117,-24.414,-349.244,0,0,0,
,0.815,-0.361,0.117,325.927,-5.127,-331.482,0,0,0,
,0.813,-0.369,0.114,266.296,11.169,-298.279,0,0,0,
,0.803,-0.37,0.114,243.896,26.001,-253.907,0,0,0,
,0.788,-0.38,0.123,215.026,42.968,-200.318,0,0,0,
,0.768,-0.391,0.14,182.617,57.19,-136.536,0,0,0,
,0.753,-0.403,0.171,147.583,67.688,-79.529,0,0,0,
,0.73,-0.404,0.196,113.647,76.171,-24.659,0,0,0,
,0.705,-0.393,0.198,85.815,90.148,27.16,0,0,0,
,0.696,-0.393,0.208,44.982,111.877,84.899,0,0,0,
,0.719,-0.421,0.212,-29.297,136.596,155.212,0,0,0,
,0.762,-0.464,0.246,-148.255,169.494,194.458,0,0,0,
,0.823,-0.501,0.282,-290.772,197.448,240.478,0,0,0,
,0.893,-0.504,0.315,-433.655,220.031,281.25,0,0,0,
,0.944,-0.487,0.333,-520.508,232.605,315.918,0,0,0,
,0.97,-0.44,0.338,-505.249,230.163,343.689,0,0,0,
,0.982,-0.394,0.338,-400.391,212.951,355.59,0,0,0,
,0.973,-0.342,0.3,-198.426,197.387,353.82,0,0,0,
,1.061,-0.344,0.296,43.212,171.264,340.576,0,0,0,
,1.153,-0.362,0.304,268.127,128.479,328.43,0,0,0,
,1.167,-0.41,0.276,404.052,75.195,283.203,0,0,0,
,1.205,-0.531,0.24,402.221,35.156,201.843,0,0,0,
,1.232,-0.649,0.212,299.255,28.442,88.195,0,0,0,
,1.221,-0.696,0.211,139.465,47.668,-42.115,0,0,0,
,1.104,-0.657,0.198,-46.753,83.007,-174.439,0,0,0,
,0.913,-0.574,0.191,-225.769,123.84,-299.073,0,0,0,
,0.743,-0.502,0.191,-391.663,171.386,-423.523,0,0,0,
,0.647,-0.436,0.191,-504.944,210.266,-539.917,0,0,0,
,0.681,-0.419,0.18,-584.168,249.939,-638.611,0,0,0,
,0.74,-0.446,0.158,-659.668,242.675,-708.985,0,0,0,
,0.845,-0.482,0.121,-761.841,226.562,-753.418,0,0,0,
,0.94,-0.515,0.08,-903.382,188.171,-779.847,0,0,0,
,1.048,-0.533,0.037,-1064.637,170.715,-791.016,0,0,0,
,1.161,-0.525,-0.002,-1201.416,132.019,-792.42,0,0,0,
,1.243,-0.492,-0.035,-1293.335,92.346,-788.758,0,0,0,
,1.297,-0.44,-0.043,-1332.581,42.602,-779.602,0,0,0,
,1.326,-0.376,-0.042,-1310.486,-11.841,-781.434,0,0,0,
,1.306,-0.312,-0.048,-1211.792,-72.815,-788.819,0,0,0,
,1.233,-0.241,-0.048,-1032.105,-120.484,-806.946,0,0,0,
,1.142,-0.174,-0.037,-764.588,-156.8,-831.543,0,0,0,
,1.069,-0.14,-0.022,-449.952,-181.58,-863.587,0,0,0,
,1.001,-0.148,-0.002,-141.236,-188.538,-897.156,0,0,0,
,0.953,-0.182,-0.002,105.224,-160.523,-926.697,0,0,0,
,0.911,-0.212,-0.001,289.184,-118.164,-941.468,0,0,0,
,0.875,-0.241,-0.005,412.353,-65.979,-946.167,0,0,0,
,0.85,-0.269,-0.011,466.186,-4.395,-937.5,0,0,0,
,0.835,-0.299,-0.011,452.636,62.011,-918.152,0,0,0,
,0.831,-0.325,-0.013,378.54,127.258,-889.588,0,0,0,
,0.833,-0.338,-0.006,276.672,180.114,-854.126,0,0,0,
,0.823,-0.335,0.01,157.592,216.919,-814.209,0,0,0,
,0.8,-0.324,0.019,67.504,235.412,-763.794,0,0,0,
,0.759,-0.316,0.031,2.929,235.046,-709.656,0,0,0,
,0.718,-0.319,0.06,-43.152,225.28,-647.461,0,0,0,
,0.689,-0.333,0.105,-88.746,203.796,-581.971,0,0,0,
,0.671,-0.345,0.134,-138.733,186.828,-505.372,0,0,0,
,0.681,-0.35,0.139,-188.416,173.217,-407.349,0,0,0,
,0.725,-0.361,0.141,-226.99,164.856,-280.396,0,0,0,
,0.793,-0.386,0.155,-245.118,158.02,-117.92,0,0,0,
,0.852,-0.404,0.19,-241.639,144.104,60.363,0,0,0,
,0.866,-0.404,0.229,-204.651,125.122,228.149,0,0,0,
,0.833,-0.34,0.189,-109.986,112.487,424.926,0,0,0,
,0.803,-0.251,0.191,43.762,108.825,638.061,0,0,0,
,0.896,-0.261,0.189,249.328,86.059,881.225,0,0,0,
,1.057,-0.397,0.233,437.317,29.968,1137.756,0,0,0,
,1.113,-0.531,0.295,498.718,-3.296,1326.782,0,0,0,
,1.164,-0.564,0.366,460.083,-26.429,1494.995,0,0,0,
,1.241,-0.546,0.376,399.536,-33.753,1671.63,0,0,0,
,1.38,-0.578,0.469,330.81,-107.666,1770.568,0,0,0,
,1.403,-0.64,0.572,282.837,-191.773,1785.522,0,0,0,
,1.28,-0.613,0.647,194.091,-259.827,1730.041,0,0,0,
,1.206,-0.576,0.599,262.024,-348.877,1648.559,0,0,0,
,1.123,-0.555,0.384,410.156,-478.821,1509.948,0,0,0,
,1.098,-0.614,0.349,256.408,-416.199,1253.357,0,0,0,
,1.092,-0.43,0.314,261.657,-332.093,1123.352,0,0,0,
,1.054,-0.37,0.308,656.433,-378.296,866.333,0,0,0,
,0.988,-0.433,0.295,1153.32,-483.948,540.893,0,0,0,
,0.875,-0.534,0.265,1336.731,-471.497,306.64,0,0,0,
,0.87,-0.577,0.251,1196.899,-411.499,152.465,0,0,0,
,0.863,-0.505,0.247,902.893,-338.868,34.301,0,0,0,
,0.844,-0.492,0.17,610.778,-298.706,-24.903,0,0,0,
,0.791,-0.462,0.118,319.397,-271.302,-68.726,0,0,0,
,0.744,-0.434,0.086,93.2,-238.953,-100.892,0,0,0,
,0.73,-0.424,0.064,-82.703,-207.093,-115.052,0,0,0,
,0.74,-0.406,0.03,-211.792,-165.711,-105.713,0,0,0,
,0.768,-0.395,0.025,-292.908,-129.273,-82.642,0,0,0,
,0.803,-0.382,0.034,-315.979,-95.154,-52.43,0,0,0,
,0.849,-0.373,0.048,-299.195,-61.951,-15.625,0,0,0,
,0.897,-0.385,0.083,-255.738,-45.899,17.456,0,0,0,
,0.92,-0.403,0.113,-222.107,-22.583,50.903,0,0,0,
,0.905,-0.416,0.141,-212.647,7.019,73.547,0,0,0,
,0.866,-0.425,0.156,-231.812,44.738,90.332,0,0,0,
,0.833,-0.443,0.175,-286.072,93.383,92.712,0,0,0,
,0.821,-0.457,0.192,-372.132,139.648,81.115,0,0,0,
,0.767,-0.453,0.203,-494.69,184.57,63.842,0,0,0,
,0.711,-0.45,0.222,-608.46,222.412,23.803,0,0,0,
,0.716,-0.472,0.225,-870.606,290.344,-78.309,0,0,0,
,0.764,-0.48,0.223,-1038.453,318.298,-128.785,0,0,0,
,0.823,-0.469,0.234,-1220.154,358.581,-175.782,0,0,0,
,0.894,-0.427,0.251,-1385.071,359.802,-209.473,0,0,0,
,0.979,-0.377,0.233,-1463.624,358.459,-248.841,0,0,0,
,1.01,-0.375,0.218,-1405.152,311.584,-302.857,0,0,0,
,1.02,-0.416,0.212,-1342.957,270.324,-380.433,0,0,0,
,1.094,-0.38,0.231,-1302.43,259.033,-409.79,0,0,0,
,1.17,-0.325,0.253,-1219.117,227.539,-432.862,0,0,0,
,1.202,-0.306,0.272,-1078.98,174.621,-470.032,0,0,0,
,1.22,-0.335,0.29,-935.364,123.718,-512.146,0,0,0,
,1.239,-0.376,0.302,-831.788,73.486,-563.66,0,0,0,
,1.183,-0.387,0.292,-774.048,26.977,-629.151,0,0,0,
,1.08,-0.362,0.258,-768.799,-7.019,-696.106,0,0,0,
,1.007,-0.336,0.208,-780.457,-27.894,-757.874,0,0,0,
,0.979,-0.311,0.176,-796.753,-42.725,-805.115,0,0,0,
,0.971,-0.302,0.158,-815.186,-52.979,-837.952,0,0,0,
,0.983,-0.296,0.144,-824.402,-65.369,-858.338,0,0,0,
,1,-0.292,0.13,-813.538,-76.233,-864.014,0,0,0,
,1.024,-0.294,0.119,-786.744,-96.009,-859.253,0,0,0,
,1.031,-0.31,0.101,-757.569,-109.62,-844.971,0,0,0,
,1.029,-0.309,0.096,-726.258,-114.808,-817.078,0,0,0,
,1.018,-0.296,0.086,-646.302,-123.108,-778.443,0,0,0,
,0.997,-0.296,0.072,-564.759,-139.771,-736.451,0,0,0,
,0.971,-0.308,0.072,-459.534,-152.649,-689.148,0,0,0,
,0.953,-0.322,0.059,-384.888,-161.805,-641.358,0,0,0,
,0.936,-0.338,0.049,-331.91,-163.208,-586.609,0,0,0,
,0.928,-0.356,0.034,-300.171,-164.002,-527.405,0,0,0,
,0.93,-0.37,0.015,-297.486,-157.41,-461.853,0,0,0,
,0.951,-0.391,-0.003,-325.684,-153.016,-388.855,0,0,0,
,0.978,-0.416,-0.024,-380.921,-144.532,-301.331,0,0,0,
,1.003,-0.425,-0.044,-446.656,-139.832,-240.052,0,0,0,
,1.021,-0.421,-0.059,-511.109,-135.621,-168.03,0,0,0,
,1.026,-0.41,-0.074,-557.74,-128.602,-104.859,0,0,0,
,1.027,-0.398,-0.09,-577.149,-126.282,-54.2,0,0,0,
,1.016,-0.378,-0.095,-561.646,-113.16,-17.518,0,0,0,
,1.002,-0.359,-0.102,-506.165,-98.633,0.61,0,0,0,
,0.997,-0.37,-0.088,-436.036,-77.942,3.662,0,0,0,
,0.97,-0.347,-0.091,-355.835,-43.946,-3.235,0,0,0,
,0.94,-0.328,-0.084,-294.068,2.563,-25.818,0,0,0,
,0.9,-0.302,-0.108,-215.088,76.171,-64.393,0,0,0,
,0.878,-0.329,-0.131,-133.973,138.427,-125,0,0,0,
,0.867,-0.378,-0.134,-142.456,223.144,-177.124,0,0,0,
,0.885,-0.408,-0.13,-223.816,326.049,-222.352,0,0,0,
,0.932,-0.418,-0.139,-359.131,419.677,-264.283,0,0,0,
,1.004,-0.397,-0.216,-1140.809,853.881,-344.605,0,0,0,
,1.052,-0.36,-0.239,-1314.759,940.673,-378.479,0,0,0,
,1.093,-0.306,-0.272,-1458.252,1025.634,-438.538,0,0,0,
,1.11,-0.222,-0.285,-1553.528,1108.886,-520.569,0,0,0,
,1.109,-0.2,-0.268,-1601.258,1143.859,-606.629,0,0,0,
,1.21,-0.296,-0.101,-1135.315,1102.539,-814.148,0,0,0,
,1.178,-0.334,-0.078,-1008.606,1054.138,-800.415,0,0,0,
,1.119,-0.36,-0.063,-908.02,1013.061,-774.109,0,0,0,
,1.082,-0.37,-0.055,-840.455,983.886,-750.428,0,0,0,
,1.073,-0.367,-0.04,-818.055,947.387,-730.774,0,0,0,
,1.08,-0.375,-0.001,-835.022,891.174,-727.478,0,0,0,
,1.087,-0.389,0.033,-875.855,823.303,-738.831,0,0,0,
,1.085,-0.389,0.038,-930.481,763.488,-752.015,0,0,0,
,1.077,-0.373,0.017,-970.215,712.829,-756.958,0,0,0,
,1.087,-0.358,-0.009,-997.437,678.466,-743.592,0,0,0,
,1.103,-0.347,-0.029,-1024.048,654.235,-711.609,0,0,0,
,1.115,-0.339,-0.025,-1056.458,637.512,-660.767,0,0,0,
,1.126,-0.335,0.007,-1090.088,622.68,-599.61,0,0,0,
,1.17,-0.358,0.075,-1118.226,587.036,-545.777,0,0,0,
,1.234,-0.378,0.126,-1132.508,545.654,-505.066,0,0,0,
,1.219,-0.364,0.153,-1115.235,497.863,-470.704,0,0,0,
,1.208,-0.346,0.161,-1052.613,449.401,-439.759,0,0,0,
,1.172,-0.336,0.142,-961.304,411.316,-395.386,0,0,0,
,1.142,-0.335,0.138,-869.324,380.798,-342.896,0,0,0,
,1.11,-0.327,0.135,-789.612,362.121,-288.331,0,0,0,
,1.068,-0.317,0.134,-718.018,337.158,-243.958,0,0,0,
,1.011,-0.308,0.147,-665.406,305.42,-209.534,0,0,0,
,0.958,-0.297,0.158,-614.747,269.47,-181.641,0,0,0,
,0.895,-0.283,0.166,-553.162,223.938,-164.307,0,0,0,
,0.843,-0.261,0.163,-478.577,184.692,-147.095,0,0,0,
,0.803,-0.245,0.16,-397.583,157.104,-127.32,0,0,0,
,0.767,-0.226,0.151,-304.017,134.765,-95.154,0,0,0,
,0.747,-0.218,0.15,-208.374,118.347,-58.289,0,0,0,
,0.736,-0.223,0.155,-104.371,100.83,-12.085,0,0,0,
,0.731,-0.243,0.16,-9.034,86.792,43.457,0,0,0,
,0.736,-0.275,0.16,72.448,71.106,115.417,0,0,0,
,0.733,-0.297,0.161,125.793,62.072,193.481,0,0,0,
,0.735,-0.32,0.162,159.057,53.527,285.278,0,0,0,
,0.742,-0.342,0.162,173.828,48.217,388.305,0,0,0,
,0.753,-0.369,0.161,160.644,46.203,491.577,0,0,0,
,0.765,-0.382,0.163,136.108,42.602,597.595,0,0,0,
,0.778,-0.389,0.166,104.309,41.809,700.134,0,0,0,
,0.793,-0.39,0.188,66.223,36.254,786.926,0,0,0,
,0.831,-0.403,0.186,81.787,18.371,887.756,0,0,0,
,0.861,-0.451,0.203,36.621,13.794,952.697,0,0,0,
,0.885,-0.399,0.198,-6.165,26.306,1000.122,0,0,0,
,0.958,-0.442,0.249,-28.077,15.502,1063.476,0,0,0,
,0.985,-0.45,0.237,-40.528,-9.522,1087.036,0,0,0,
,1.003,-0.407,0.279,-59.327,10.009,1102.05,0,0,0,
,1.041,-0.387,0.311,53.833,17.089,1107.483,0,0,0,
,1.096,-0.395,0.253,253.296,-34.79,1055.664,0,0,0,
,1.101,-0.424,0.235,311.584,-98.45,1006.591,0,0,0,
,1.055,-0.514,0.214,141.357,-87.22,943.542,0,0,0,
,1.093,-0.519,0.224,-102.723,-37.476,873.596,0,0,0,
,1.165,-0.489,0.23,-294.312,21.118,808.471,0,0,0,
,1.111,-0.4,0.233,-342.652,58.471,715.088,0,0,0,
,1.119,-0.349,0.245,-260.621,70.495,612.793,0,0,0,
,1.138,-0.347,0.244,-109.62,55.419,513.305,0,0,0,
,1.116,-0.346,0.24,68.542,30.517,411.316,0,0,0,
,1.08,-0.345,0.232,246.032,2.441,308.654,0,0,0,
,0.999,-0.34,0.226,415.344,-19.104,215.942,0,0,0,
,0.881,-0.313,0.211,563.232,-48.951,115.783,0,0,0,
,0.813,-0.319,0.193,674.621,-60.73,10.192,0,0,0,
,0.823,-0.357,0.183,700.988,-50.599,-82.032,0,0,0,
,0.885,-0.4,0.175,654.358,-28.87,-174.012,0,0,0,
,0.932,-0.443,0.174,563.903,-5.982,-254.212,0,0,0,
,0.946,-0.479,0.176,424.987,20.874,-317.627,0,0,0,
,0.945,-0.49,0.181,251.526,56.335,-389.771,0,0,0,
,0.928,-0.496,0.194,61.218,89.782,-426.636,0,0,0,
,0.908,-0.49,0.197,-132.203,117.92,-480.164,0,0,0,
,0.899,-0.475,0.206,-317.627,139.892,-531.739,0,0,0,
,0.898,-0.458,0.209,-482.85,158.203,-579.773,0,0,0,
,0.893,-0.428,0.209,-617.615,163.452,-625.123,0,0,0,
,0.89,-0.411,0.195,-722.229,164.428,-667.786,0,0,0,
,0.896,-0.401,0.182,-816.346,160.034,-701.539,0,0,0,
,0.916,-0.386,0.168,-896.668,152.526,-729.126,0,0,0,
,0.943,-0.368,0.16,-953.37,135.009,-751.709,0,0,0,
,0.973,-0.351,0.154,-980.591,109.13,-771.851,0,0,0,
,0.999,-0.327,0.151,-976.075,72.692,-783.631,0,0,0,
,1.017,-0.3,0.151,-922.791,28.32,-792.542,0,0,0,
,1.028,-0.272,0.149,-814.026,-22.4,-794.312,0,0,0,
,1.029,-0.251,0.138,-684.51,-70.496,-790.406,0,0,0,
,1.01,-0.234,0.131,-495.423,-115.845,-781.739,0,0,0,
,0.993,-0.229,0.126,-332.398,-148.072,-769.165,0,0,0,
,0.968,-0.234,0.119,-165.223,-171.57,-755.799,0,0,0,
,0.947,-0.248,0.112,-26.123,-184.266,-743.042,0,0,0,
,0.908,-0.262,0.105,82.946,-185.242,-728.821,0,0,0,
,0.934,-0.273,0.097,174.194,-184.632,-711.121,0,0,0,
,0.93,-0.311,0.098,248.84,-183.716,-686.219,0,0,0,
,0.933,-0.3,0.092,308.838,-177.247,-658.753,0,0,0,
,0.95,-0.319,0.102,337.585,-170.533,-616.7,0,0,0,
,1.006,-0.347,0.108,351.013,-164.673,-547.486,0,0,0,
,1.054,-0.366,0.114,353.21,-161.133,-498.108,0,0,0,
,1.061,-0.364,0.154,357.849,-158.753,-429.383,0,0,0,
,1.034,-0.347,0.134,380.066,-159.18,-366.333,0,0,0,
,0.989,-0.332,0.141,421.203,-166.81,-304.505,0,0,0,
,0.961,-0.327,0.151,453.857,-170.838,-239.014,0,0,0,
,1.009,-0.347,0.158,475.463,-157.105,-157.532,0,0,0,
,1.024,-0.37,0.176,476.074,-151.795,-65.308,0,0,0,
,0.984,-0.374,0.203,465.332,-140.87,26.977,0,0,0,
,0.986,-0.398,0.22,447.876,-122.559,143.982,0,0,0,
,0.99,-0.43,0.245,411.071,-113.404,258.789,0,0,0,
,0.953,-0.436,0.269,361.023,-106.08,365.173,0,0,0,
,0.825,-0.405,0.288,310.608,-104.126,447.754,0,0,0,
,0.72,-0.377,0.291,250.366,-98.999,517.089,0,0,0,
,0.687,-0.386,0.283,199.279,-93.079,582.397,0,0,0,
,0.724,-0.413,0.284,90.271,-82.886,636.352,0,0,0,
,0.79,-0.428,0.29,-45.166,-75.379,680.969,0,0,0,
,0.877,-0.417,0.288,-163.819,-77.393,701.904,0,0,0,
,0.941,-0.379,0.268,-242.737,-89.417,701.233,0,0,0,
,0.994,-0.335,0.221,-263.123,-110.596,680.847,0,0,0,
,1.021,-0.295,0.196,-236.084,-128.724,656.433,0,0,0,
,1.034,-0.254,0.182,-170.044,-144.715,630.005,0,0,0,
,1.03,-0.221,0.186,-51.697,-162.537,594.543,0,0,0,
,1.01,-0.211,0.2,103.942,-181.946,556.701,0,0,0,
,0.98,-0.224,0.207,278.869,-204.59,512.146,0,0,0,
,0.933,-0.249,0.208,433.044,-226.929,475.219,0,0,0,
,0.877,-0.273,0.192,548.034,-233.033,435.73,0,0,0,
,0.847,-0.286,0.175,628.051,-232.483,399.841,0,0,0,
,0.856,-0.311,0.162,672.546,-227.906,372.192,0,0,0,
,0.854,-0.337,0.152,674.194,-226.624,347.412,0,0,0,
,0.845,-0.355,0.151,649.109,-219.361,331.054,0,0,0,
,0.854,-0.362,0.145,605.896,-212.403,321.716,0,0,0,
,0.854,-0.367,0.146,560.73,-207.398,321.533,0,0,0,
,0.855,-0.373,0.146,521.972,-202.759,331.604,0,0,0,
,0.851,-0.375,0.147,486.633,-192.688,349.548,0,0,0,
,0.852,-0.375,0.156,458.496,-186.951,377.197,0,0,0,
,0.857,-0.369,0.167,447.692,-178.406,401.306,0,0,0,
,0.84,-0.362,0.176,459.167,-171.082,427.734,0,0,0,
,0.816,-0.363,0.187,485.168,-165.772,449.401,0,0,0,
,0.804,-0.376,0.196,496.704,-155.884,478.576,0,0,0,
,0.819,-0.406,0.2,482.727,-135.254,505.554,0,0,0,
,0.867,-0.446,0.225,423.889,-110.23,537.902,0,0,0,
,0.92,-0.478,0.247,333.679,-85.633,564.697,0,0,0,
,0.958,-0.488,0.276,240.661,-59.205,585.205,0,0,0,
,0.981,-0.482,0.289,157.714,-36.805,591.98,0,0,0,
,0.971,-0.468,0.293,99.609,-18.677,583.313,0,0,0,
,0.963,-0.462,0.285,55.114,-5.31,559.631,0,0,0,
,1.015,-0.486,0.303,-7.752,15.197,530.151,0,0,0,
,1.044,-0.511,0.321,-85.144,37.536,487.243,0,0,0,
,1.078,-0.517,0.351,-161.56,55.053,426.33,0,0,0,
,1.164,-0.535,0.367,-214.112,59.936,335.022,0,0,0,
,1.157,-0.519,0.358,-230.225,52.734,219.055,0,0,0,
,0.982,-0.454,0.314,-199.646,49.499,62.622,0,0,0,
,0.757,-0.367,0.276,-139.466,55.603,-118.226,0,0,0,
,0.665,-0.31,0.273,-112.488,71.289,-324.952,0,0,0,
,0.761,-0.313,0.275,-143.433,97.656,-466.553,0,0,0,
,0.902,-0.331,0.257,-188.05,120.788,-585.816,0,0,0,
,0.996,-0.364,0.265,-215.455,119.018,-695.618,0,0,0,
,1.068,-0.396,0.257,-236.268,128.112,-781.556,0,0,0,
,1.119,-0.422,0.246,-275.33,136.108,-850.037,0,0,0,
,1.116,-0.432,0.246,-341.553,152.099,-900.879,0,0,0,
,1.084,-0.441,0.245,-454.773,179.26,-942.566,0,0,0,
,1.034,-0.442,0.249,-602.173,209.777,-980.774,0,0,0,
,0.983,-0.421,0.242,-745.24,232.483,-1015.076,0,0,0,
,0.945,-0.402,0.226,-848.206,238.891,-1053.65,0,0,0,
,0.936,-0.399,0.211,-963.196,234.13,-1084.656,0,0,0,
,0.948,-0.383,0.185,-1063.416,231.018,-1099.427,0,0,0,
,0.97,-0.373,0.161,-1131.409,223.938,-1104.004,0,0,0,
,0.984,-0.35,0.125,-1156.067,208.435,-1086.853,0,0,0,
,0.985,-0.323,0.108,-1135.376,176.269,-1057.801,0,0,0,
,0.968,-0.306,0.102,-1092.041,150.024,-1024.964,0,0,0,
,0.956,-0.272,0.088,-1019.593,119.506,-979.981,0,0,0,
,0.942,-0.243,0.09,-892.518,77.453,-929.139,0,0,0,
,0.921,-0.226,0.092,-718.689,26.794,-871.094,0,0,0,
,0.897,-0.221,0.119,-525.086,-25.086,-810.486,0,0,0,
,0.881,-0.224,0.088,-326.172,-64.82,-741.456,0,0,0,
,0.877,-0.234,0.094,-137.269,-99.793,-659.241,0,0,0,
,0.88,-0.247,0.102,38.024,-126.221,-588.257,0,0,0,
,0.878,-0.263,0.101,190.734,-143.433,-514.222,0,0,0,
,0.886,-0.279,0.137,306.274,-163.697,-447.022,0,0,0,
,0.905,-0.286,0.17,400.329,-190.186,-392.09,0,0,0,
,0.927,-0.298,0.181,480.529,-218.811,-335.572,0,0,0,
,0.968,-0.307,0.176,533.996,-229.554,-268.799,0,0,0,
,0.995,-0.313,0.189,572.631,-234.742,-202.332,0,0,0,
,0.98,-0.314,0.207,597.107,-232.483,-143.067,0,0,0,
,0.941,-0.328,0.24,582.58,-241.639,-94.727,0,0,0,
,0.9,-0.353,0.26,529.785,-240.906,-47.791,0,0,0,
,0.955,-0.407,0.278,402.343,-226.258,18.005,0,0,0,
,0.964,-0.422,0.294,210.998,-179.627,104.431,0,0,0,
,0.944,-0.41,0.315,43.823,-126.587,179.992,0,0,0,
,0.978,-0.405,0.323,-110.413,-80.933,276.55,0,0,0,
,0.991,-0.377,0.333,-202.759,-29.419,402.771,0,0,0,
,0.975,-0.329,0.345,-214.783,10.559,526.306,0,0,0,
,0.906,-0.287,0.361,-156.556,45.349,631.836,0,0,0,
,0.824,-0.261,0.36,-73.792,72.57,716.186,0,0,0,
,0.831,-0.285,0.349,-5.555,98.266,790.344,0,0,0,
,0.904,-0.345,0.359,-6.348,117.309,851.196,0,0,0,
,0.976,-0.377,0.366,-73.365,141.479,895.446,0,0,0,
,1.006,-0.359,0.363,-147.583,151.367,918.701,0,0,0,
,1.031,-0.311,0.343,-156.556,138.855,917.663,0,0,0,
,1.051,-0.269,0.31,-90.638,109.558,904.48,0,0,0,
,1.065,-0.228,0.281,25.146,67.382,879.638,0,0,0,
,1.053,-0.189,0.26,178.65,25.756,850.463,0,0,0,
,1.013,-0.161,0.246,356.689,-11.536,824.34,0,0,0,
,0.967,-0.158,0.242,555.053,-52.735,794.494,0,0,0,
,0.915,-0.185,0.231,746.399,-90.271,764.221,0,0,0,
,0.873,-0.228,0.213,900.024,-122.986,725.28,0,0,0,
,0.849,-0.271,0.19,1001.587,-141.602,685.18,0,0,0,
,0.847,-0.3,0.165,1050.171,-161.56,641.54,0,0,0,
,0.855,-0.335,0.151,1054.077,-179.688,604.431,0,0,0,
,0.87,-0.364,0.14,1027.404,-188.782,568.176,0,0,0,
,0.892,-0.389,0.134,963.684,-190.918,540.1,0,0,0,
,0.919,-0.412,0.139,879.394,-185.852,515.93,0,0,0,
,0.932,-0.418,0.139,785.034,-177.002,500.305,0,0,0,
,0.922,-0.41,0.144,729.797,-163.941,500.427,0,0,0,
,0.936,-0.406,0.158,687.683,-152.039,499.023,0,0,0,
,0.884,-0.41,0.176,651.977,-125.855,501.342,0,0,0,
,0.856,-0.402,0.19,629.272,-125,500,0,0,0,
,0.824,-0.388,0.199,619.14,-104.554,497.131,0,0,0,
,0.807,-0.384,0.206,612.609,-80.75,494.506,0,0,0,
,0.828,-0.415,0.222,586.914,-55.42,497.741,0,0,0,
,0.878,-0.47,0.251,512.939,-24.476,498.047,0,0,0,
,0.911,-0.5,0.276,396.362,14.099,496.521,0,0,0,
,0.925,-0.505,0.303,264.16,55.847,485.595,0,0,0,
,0.947,-0.51,0.322,139.404,85.998,458.557,0,0,0,
,0.932,-0.506,0.332,30.09,112.976,415.344,0,0,0,
,0.914,-0.496,0.329,-71.717,141.784,361.267,0,0,0,
,0.976,-0.507,0.346,-177.247,166.687,302.978,0,0,0,
,1.013,-0.517,0.366,-269.959,176.574,235.656,0,0,0,
,1.01,-0.511,0.374,-341.797,177.978,148.437,0,0,0,
,1.081,-0.511,0.374,-393.677,175.293,50.476,0,0,0,
,1.131,-0.518,0.368,-418.885,156.433,-65.735,0,0,0,
,1.036,-0.471,0.342,-414.917,138.794,-199.28,0,0,0,
,0.861,-0.365,0.303,-360.535,126.526,-343.75,0,0,0,
,0.752,-0.289,0.277,-279.48,109.436,-498.902,0,0,0,
,0.79,-0.286,0.276,-229.676,94.238,-634.766,0,0,0,
,0.889,-0.339,0.262,-248.597,93.383,-746.582,0,0,0,
,0.961,-0.383,0.262,-275.452,93.75,-848.328,0,0,0,
,1.025,-0.399,0.246,-332.642,94.909,-938.538,0,0,0,
,1.096,-0.414,0.221,-405.579,102.417,-1008.057,0,0,0,
,1.158,-0.428,0.21,-499.573,109.375,-1062.5,0,0,0,
,1.187,-0.434,0.202,-614.93,121.338,-1101.563,0,0,0,
,1.209,-0.431,0.201,-734.62,135.986,-1126.832,0,0,0,
,1.207,-0.416,0.197,-825.623,136.291,-1144.227,0,0,0,
,1.176,-0.385,0.189,-875.977,123.352,-1160.218,0,0,0,
,1.143,-0.353,0.177,-869.141,106.811,-1168.519,0,0,0,
,1.109,-0.313,0.175,-799.683,61.828,-1173.523,0,0,0,
,1.087,-0.271,0.151,-655.64,9.765,-1170.533,0,0,0,
,1.045,-0.239,0.109,-450.318,-47.73,-1147.095,0,0,0,
,0.998,-0.225,0.083,-219.849,-100.037,-1110.535,0,0,0,
,0.965,-0.244,0.079,-26.551,-129.639,-1055.787,0,0,0,
,0.947,-0.27,0.075,115.539,-145.569,-995.85,0,0,0,
,0.924,-0.291,0.078,206.848,-146.851,-933.411,0,0,0,
,0.906,-0.308,0.077,257.934,-148.011,-877.076,0,0,0,
,0.884,-0.317,0.069,281.738,-145.203,-820.374,0,0,0,
,0.861,-0.316,0.063,292.48,-137.879,-759.461,0,0,0,
,0.844,-0.319,0.059,290.405,-126.648,-700.074,0,0,0,
,0.824,-0.321,0.057,279.846,-106.873,-639.405,0,0,0,
,0.821,-0.321,0.063,268.921,-85.816,-575.196,0,0,0,
,0.829,-0.329,0.079,254.15,-61.402,-509.461,0,0,0,
,0.861,-0.345,0.103,240.295,-41.382,-434.449,0,0,0,
,0.899,-0.359,0.137,225.158,-26.734,-352.906,0,0,0,
,0.918,-0.379,0.155,201.233,-15.32,-271.241,0,0,0,
,0.911,-0.386,0.171,168.09,-2.686,-182.557,0,0,0,
,0.886,-0.38,0.179,123.901,17.334,-87.342,0,0,0,
,0.852,-0.38,0.195,77.758,36.865,8.728,0,0,0,
,0.83,-0.395,0.217,13.427,57.556,111.206,0,0,0,
,0.911,-0.429,0.267,-71.412,75.622,241.882,0,0,0,
,0.915,-0.41,0.299,-157.41,58.898,356.811,0,0,0,
,0.872,-0.409,0.291,-210.999,64.758,464.599,0,0,0,
,0.932,-0.384,0.266,-201.111,80.81,593.261,0,0,0,
,0.978,-0.375,0.253,-126.954,77.88,727.295,0,0,0,
,0.96,-0.383,0.267,-55.97,80.505,863.708,0,0,0,
,0.878,-0.368,0.307,-26.49,87.524,969.238,0,0,0,
,0.84,-0.38,0.332,-19.288,90.454,1041.687,0,0,0,
,0.948,-0.42,0.352,-39.795,72.265,1104.004,0,0,0,
,1.056,-0.456,0.4,-75.806,15.136,1132.141,0,0,0,
,1.057,-0.424,0.435,-97.535,-60.486,1110.717,0,0,0,
,1.035,-0.343,0.38,-47.425,-114.319,1073.974,0,0,0,
,1.028,-0.264,0.308,78.613,-154.053,1055.297,0,0,0,
,1.039,-0.229,0.278,222.229,-187.806,1033.874,0,0,0,
,1.057,-0.238,0.282,330.383,-211.792,1009.216,0,0,0,
,1.063,-0.247,0.283,390.747,-219.544,965.576,0,0,0,
,1.064,-0.257,0.277,444.946,-226.929,916.259,0,0,0,
,1.061,-0.277,0.267,550.354,-249.512,861.816,0,0,0,
,1.043,-0.323,0.262,701.904,-286.56,803.283,0,0,0,
,1.018,-0.379,0.245,779.48,-318.787,739.624,0,0,0,
,0.984,-0.426,0.213,787.353,-322.998,678.527,0,0,0,
,0.947,-0.443,0.17,720.825,-295.594,623.108,0,0,0,
,0.914,-0.45,0.148,607.605,-263.428,569.091,0,0,0,
,0.9,-0.458,0.144,469.543,-233.216,520.63,0,0,0,
,0.893,-0.454,0.154,323.364,-196.473,469.421,0,0,0,
,0.892,-0.408,0.152,208.74,-164.124,418.823,0,0,0,
,0.884,-0.418,0.142,136.779,-136.353,361.877,0,0,0,
,0.867,-0.404,0.15,103.942,-109.62,340.088,0,0,0,
,0.845,-0.386,0.162,91.613,-85.206,306.701,0,0,0,
,0.822,-0.361,0.154,108.093,-58.35,266.723,0,0,0,
,0.792,-0.334,0.152,161.804,-42.115,263,0,0,0,
,0.758,-0.321,0.153,256.164,-32.105,247.68,0,0,0,
,0.738,-0.341,0.165,327.575,-24.781,233.886,0,0,0,
,0.752,-0.379,0.175,355.163,-3.296,218.872,0,0,0,
,0.788,-0.41,0.19,336.547,22.338,212.646,0,0,0,
,0.842,-0.444,0.218,283.02,51.33,204.467,0,0,0,
,0.897,-0.481,0.254,196.655,81.481,196.167,0,0,0,
,0.94,-0.507,0.286,89.05,113.22,177.917,0,0,0,
,0.95,-0.499,0.303,-20.569,142.578,145.813,0,0,0,
,0.932,-0.479,0.311,-117.676,169.25,92.285,0,0,0,
,1.021,-0.499,0.335,-231.141,199.89,33.752,0,0,0,
,1.043,-0.498,0.35,-342.774,213.684,-32.898,0,0,0,
,0.977,-0.452,0.343,-400.94,231.811,-105.774,0,0,0,
,1.048,-0.441,0.329,-443.482,245.178,-175.965,0,0,0,
,1.137,-0.451,0.326,-471.253,240.295,-231.507,0,0,0,
,1.1,-0.438,0.333,-485.84,203.918,-290.894,0,0,0,
,0.941,-0.388,0.317,-464.844,172.668,-375.367,0,0,0,
,0.813,-0.323,0.282,-408.204,159.118,-464.173,0,0,0,
,0.782,-0.297,0.248,-349.183,136.779,-559.632,0,0,0,
,0.829,-0.332,0.249,-339.417,116.088,-651.429,0,0,0,
,0.93,-0.396,0.243,-411.255,113.159,-747.193,0,0,0,
,1.03,-0.43,0.24,-520.752,112.304,-819.947,0,0,0,
,1.152,-0.43,0.23,-626.282,107.727,-914.49,0,0,0,
,1.238,-0.402,0.199,-712.098,101.623,-987.854,0,0,0,
,1.245,-0.359,0.178,-761.414,93.933,-1061.707,0,0,0,
,1.218,-0.32,0.161,-778.26,90.759,-1126.832,0,0,0,
,1.222,-0.31,0.156,-767.273,89.172,-1181.702,0,0,0,
,1.218,-0.299,0.157,-742.005,80.749,-1225.098,0,0,0,
,1.184,-0.274,0.152,-669.922,72.326,-1253.052,0,0,0,
,1.138,-0.25,0.141,-546.631,49.438,-1272.706,0,0,0,
,1.096,-0.266,0.137,-408.143,30.517,-1278.077,0,0,0,
,1.059,-0.292,0.131,-307.496,35.583,-1271.119,0,0,0,
,1.036,-0.311,0.117,-245.728,52.368,-1243.165,0,0,0,
,1.005,-0.322,0.106,-205.445,56.457,-1201.05,0,0,0,
,0.968,-0.336,0.095,-188.233,62.927,-1148.133,0,0,0,
,0.925,-0.341,0.082,-194.581,70.861,-1084.473,0,0,0,
,0.887,-0.337,0.068,-214.539,73.181,-1011.841,0,0,0,
,0.843,-0.329,0.059,-236.084,70.983,-933.655,0,0,0,
,0.792,-0.31,0.047,-241.272,64.941,-853.394,0,0,0,
,0.755,-0.287,0.035,-221.985,61.157,-768.25,0,0,0,
,0.727,-0.27,0.027,-177.124,54.199,-671.936,0,0,0,
,0.692,-0.261,0.027,-114.136,48.4,-574.891,0,0,0,
,0.684,-0.268,0.041,-46.448,45.166,-472.962,0,0,0,
,0.698,-0.281,0.049,28.503,35.095,-363.587,0,0,0,
,0.734,-0.298,0.062,96.618,26.733,-241.761,0,0,0,
,0.785,-0.325,0.079,153.076,15.564,-121.155,0,0,0,
,0.819,-0.349,0.117,193.725,2.929,3.723,0,0,0,
,0.845,-0.357,0.141,225.83,-2.137,120.239,0,0,0,
,0.869,-0.363,0.167,247.802,-3.052,236.145,0,0,0,
,0.874,-0.374,0.196,250,1.281,348.327,0,0,0,
,0.906,-0.403,0.231,215.332,20.69,457.702,0,0,0,
,0.998,-0.442,0.283,147.827,45.41,585.754,0,0,0,
,0.971,-0.45,0.352,57.128,46.447,680.725,0,0,0,
,0.951,-0.439,0.386,-16.175,63.232,753.601,0,0,0,
,1.034,-0.426,0.374,-53.894,79.528,861.694,0,0,0,
,1.109,-0.418,0.367,-40.833,89.416,974.548,0,0,0,
,1.064,-0.401,0.379,-9.522,94.665,1066.833,0,0,0,
,0.931,-0.368,0.401,26.611,94.726,1118.896,0,0,0,
,0.879,-0.346,0.395,66.345,98.693,1171.081,0,0,0,
,0.958,-0.381,0.388,89.172,80.017,1208.191,0,0,0,
,1.05,-0.436,0.407,47.302,44.372,1221.191,0,0,0,
,1.1,-0.449,0.413,-27.649,11.474,1200.012,0,0,0,
,1.104,-0.403,0.38,-63.904,-17.151,1146.057,0,0,0,
,1.103,-0.352,0.32,-50.599,-47.547,1072.204,0,0,0,
,1.083,-0.317,0.279,20.69,-76.355,984.436,0,0,0,
,1.053,-0.311,0.273,88.256,-101.746,861.999,0,0,0,
,1.024,-0.296,0.277,140.564,-104.248,726.501,0,0,0,
,1.01,-0.261,0.276,207.458,-103.211,589.111,0,0,0,
,0.989,-0.226,0.269,328.125,-113.77,460.205,0,0,0,
,0.955,-0.215,0.242,486.633,-134.278,332.336,0,0,0,
,0.922,-0.243,0.208,634.765,-151.246,242.92,0,0,0,
,0.905,-0.27,0.181,757.995,-158.936,157.165,0,0,0,
,0.898,-0.277,0.158,874.511,-171.631,88.745,0,0,0,
,0.89,-0.29,0.13,962.097,-179.81,50.048,0,0,0,
,0.88,-0.322,0.108,1023.315,-186.341,34.729,0,0,0,
,0.867,-0.369,0.105,1031.372,-186.463,35.705,0,0,0,
,0.859,-0.414,0.116,990.356,-178.101,46.02,0,0,0,
,0.838,-0.439,0.124,924.438,-168.702,65.185,0,0,0,
,0.815,-0.444,0.137,836.609,-158.753,93.139,0,0,0,
,0.797,-0.446,0.149,745.117,-146.363,119.812,0,0,0,
,0.787,-0.441,0.16,640.075,-130.555,151.672,0,0,0,
,0.773,-0.433,0.17,527.954,-106.934,183.044,0,0,0,
,0.736,-0.423,0.184,420.715,-76.355,213.501,0,0,0,
,0.704,-0.4,0.185,338.562,-41.016,242.37,0,0,0,
,0.704,-0.396,0.195,252.319,1.342,275.817,0,0,0,
,0.752,-0.428,0.221,172.058,42.114,312.561,0,0,0,
,0.804,-0.474,0.262,81.359,78.308,345.703,0,0,0,
,0.853,-0.503,0.292,-49.378,112.121,365.844,0,0,0,
,0.909,-0.517,0.318,-189.087,135.376,372.741,0,0,0,
,0.948,-0.52,0.338,-333.558,157.409,360.473,0,0,0,
,0.931,-0.494,0.333,-451.6,171.936,325.317,0,0,0,
,0.992,-0.46,0.326,-538.208,195.678,281.921,0,0,0,
,1.076,-0.459,0.338,-583.313,199.768,231.994,0,0,0,
,0.989,-0.378,0.328,-588.868,197.692,176.574,0,0,0,
,1.001,-0.381,0.321,-566.346,202.087,98.327,0,0,0,
,1.161,-0.407,0.372,-497.742,181.945,42.663,0,0,0,
,1.252,-0.445,0.369,-410.828,132.934,-40.65,0,0,0,
,1.128,-0.417,0.319,-300.904,79.162,-168.824,0,0,0,
,0.928,-0.353,0.274,-192.81,52.063,-307.312,0,0,0,
,0.77,-0.303,0.227,-129.029,37.902,-451.111,0,0,0,
,0.709,-0.297,0.22,-138.428,42.297,-580.628,0,0,0,
,0.772,-0.319,0.226,-215.394,63.293,-690.674,0,0,0,
,0.9,-0.356,0.225,-282.288,60.974,-788.392,0,0,0,
,0.989,-0.381,0.217,-318.543,40.039,-862.488,0,0,0,
,1.082,-0.395,0.196,-364.319,25.451,-915.955,0,0,0,
,1.176,-0.408,0.178,-416.443,15.014,-959.839,0,0,0,
,1.228,-0.401,0.161,-468.873,11.413,-987.793,0,0,0,
,1.24,-0.374,0.151,-502.869,13.366,-1000.733,0,0,0,
,1.239,-0.352,0.147,-503.724,13.549,-1006.104,0,0,0,
,1.196,-0.335,0.149,-463.074,8.667,-1006.47,0,0,0,
,1.126,-0.311,0.147,-376.343,-0.794,-1001.343,0,0,0,
,1.058,-0.298,0.141,-283.265,-16.358,-995.667,0,0,0,
,1.004,-0.304,0.129,-173.218,-22.461,-987.732,0,0,0,
,0.966,-0.31,0.118,-85.999,-18.006,-967.591,0,0,0,
,0.928,-0.31,0.096,-28.321,-7.752,-937.317,0,0,0,
,0.901,-0.319,0.082,4.76,-0.977,-893.006,0,0,0,
,0.869,-0.325,0.073,5.92,6.774,-840.943,0,0,0,
,0.841,-0.334,0.061,-19.837,13.916,-783.875,0,0,0,
,0.818,-0.339,0.059,-68.055,13.794,-728.394,0,0,0,
,0.795,-0.333,0.063,-114.38,8.178,-669.312,0,0,0,
,0.769,-0.312,0.059,-136.841,4.028,-615.845,0,0,0,
,0.741,-0.284,0.058,-124.024,-6.775,-559.754,0,0,0,
,0.719,-0.266,0.068,-86.121,-23.865,-503.479,0,0,0,
,0.687,-0.252,0.074,-25.025,-37.842,-448.731,0,0,0,
,0.67,-0.248,0.079,45.715,-44.739,-395.752,0,0,0,
,0.697,-0.265,0.083,117.553,-43.946,-330.811,0,0,0,
,0.76,-0.296,0.097,178.1,-41.565,-249.085,0,0,0,
,0.834,-0.326,0.114,209.655,-40.65,-156.739,0,0,0,
,0.914,-0.353,0.128,227.356,-36.438,-52.674,0,0,0,
,0.968,-0.372,0.146,242.92,-39.063,63.598,0,0,0,
,0.986,-0.387,0.161,265.686,-44.861,184.265,0,0,0,
,0.958,-0.39,0.174,300.354,-54.81,304.687,0,0,0,
,1.002,-0.41,0.191,328.308,-58.167,437.927,0,0,0,
,1.076,-0.449,0.215,317.749,-71.045,592.285,0,0,0,
,1.031,-0.451,0.238,282.348,-73.731,722.534,0,0,0,
,1.038,-0.449,0.241,252.136,-60.303,848.632,0,0,0,
,1.116,-0.473,0.252,235.534,-50.721,996.338,0,0,0,
,1.136,-0.508,0.29,193.359,-45.533,1129.821,0,0,0,
