TIMECODE,ACC_X,ACC_Y,ACC_Z,GYR_X,GYR_Y,GYR_Z,TAG
00:00:00:0,0.927,0.172,0.104,213.684,135.681,-12.207,
00:00:00:16,0.924,0.168,0.104,236.633,139.221,-25.94,
00:00:00:33,0.931,0.165,0.108,256.469,138.916,-37.903,
00:00:00:50,0.941,0.162,0.127,262.756,133.911,-49.927,
00:00:00:66,0.955,0.122,0.177,202.453,112.671,-65.43,
00:00:00:83,0.97,0.1,0.21,61.523,84.228,-69.703,
00:00:00:100,0.983,0.111,0.223,-88.562,39.794,-72.083,
00:00:00:116,0.976,0.143,0.241,-210.511,-5.494,-64.148,
00:00:00:133,0.958,0.185,0.222,-263.184,-26.673,-63.05,
00:00:00:150,0.949,0.228,0.185,-239.441,-28.382,-72.754,
00:00:00:166,0.943,0.241,0.154,-169.434,-23.926,-86.304,
00:00:00:183,0.938,0.261,0.124,-74.036,-8.24,-96.131,
00:00:00:200,0.955,0.267,0.108,59.936,4.089,-110.962,
00:00:00:216,0.976,0.234,0.092,170.471,1.403,-107.85,
00:00:00:233,0.973,0.224,0.079,247.192,-6.165,-97.535,
00:00:00:250,0.971,0.21,0.067,314.697,-14.161,-88.746,
00:00:00:266,0.963,0.186,0.062,351.623,-21.973,-75.745,
00:00:00:283,0.958,0.165,0.062,354.065,-24.598,-64.698,
00:00:00:300,0.956,0.15,0.071,317.627,-22.522,-50.293,
00:00:00:316,0.954,0.142,0.078,256.164,-18.982,-33.57,
00:00:00:333,0.959,0.139,0.079,187.683,-14.466,-21.119,
00:00:00:350,0.958,0.148,0.122,116.211,-7.203,-2.625,
00:00:00:366,0.962,0.143,0.091,53.344,-4.578,5.981,
00:00:00:383,0.964,0.148,0.082,-3.052,-1.954,16.784,
00:00:00:400,0.968,0.157,0.067,-37.476,-2.564,22.827,
00:00:00:416,0.97,0.172,0.067,-39.368,-4.944,25.94,
00:00:00:433,0.974,0.176,0.071,-21.912,-4.639,23.132,
00:00:00:450,0.979,0.176,0.078,0.732,-10.315,21.728,
00:00:00:466,0.964,0.17,0.086,13.855,-15.809,22.949,
00:00:00:483,0.963,0.166,0.098,18.066,-2.93,16.052,
00:00:00:500,0.977,0.166,0.108,22.094,7.507,13.305,
00:00:00:516,0.968,0.173,0.121,29.235,4.821,16.601,
00:00:00:533,0.958,0.174,0.127,44.311,12.817,12.634,
00:00:00:550,0.953,0.174,0.137,66.589,12.817,15.136,
00:00:00:566,0.935,0.179,0.142,95.398,9.826,21.789,
00:00:00:583,0.927,0.174,0.146,131.713,6.897,24.169,
00:00:00:600,0.932,0.167,0.147,162.902,0.976,23.803,
00:00:00:616,0.933,0.159,0.148,180.847,-10.376,20.324,
00:00:00:633,0.929,0.153,0.144,191.345,-25.147,16.479,
00:00:00:650,0.924,0.149,0.15,190.307,-38.514,8.056,
00:00:00:666,0.922,0.143,0.152,176.33,-50.538,-3.174,
00:00:00:683,0.919,0.139,0.151,145.019,-63.538,-13.428,
00:00:00:700,0.918,0.133,0.143,98.999,-73.67,-17.579,
00:00:00:716,0.922,0.123,0.124,35.644,-83.558,-24.231,
00:00:00:733,0.933,0.115,0.109,-39.124,-88.318,-24.17,
00:00:00:750,0.938,0.121,0.103,-114.38,-89.844,-22.095,
00:00:00:766,0.942,0.138,0.096,-160.95,-89.112,-22.339,
00:00:00:783,0.944,0.144,0.094,-191.102,-84.961,-25.696,
00:00:00:800,0.939,0.151,0.09,-208.069,-77.332,-30.701,
00:00:00:816,0.933,0.165,0.089,-206.299,-61.28,-39.795,
00:00:00:833,0.928,0.175,0.091,-184.998,-47.303,-51.819,
00:00:00:850,0.921,0.18,0.094,-151.978,-29.847,-64.393,
00:00:00:866,0.923,0.185,0.091,-111.939,-13.794,-81.238,
00:00:00:883,0.929,0.176,0.094,-76.905,1.281,-96.68,
00:00:00:900,0.926,0.174,0.103,-54.505,10.742,-104.981,
00:00:00:916,0.92,0.168,0.109,-46.936,17.761,-113.343,
00:00:00:933,0.916,0.156,0.105,-55.42,25.207,-117.615,
00:00:00:950,0.908,0.157,0.108,-78.858,30.944,-120.85,
00:00:00:966,0.911,0.163,0.11,-96.375,41.992,-124.756,
00:00:00:983,0.917,0.167,0.114,-105.408,50.781,-128.785,
00:00:01:0,0.92,0.182,0.115,-100.586,63.049,-132.203,
00:00:01:16,0.925,0.185,0.121,-90.577,74.035,-136.841,
00:00:01:33,0.929,0.185,0.138,-84.717,82.092,-143.738,
00:00:01:50,0.938,0.158,0.151,-84.595,87.463,-146.546,
00:00:01:66,0.944,0.186,0.167,-100.464,90.576,-149.72,
00:00:01:83,0.948,0.189,0.178,-134.278,87.28,-147.583,
00:00:01:100,0.949,0.193,0.156,-168.213,80.871,-140.931,
00:00:01:116,0.952,0.201,0.191,-195.618,72.021,-135.437,
00:00:01:133,0.957,0.219,0.195,-202.271,61.645,-123.78,
00:00:01:150,0.95,0.265,0.194,-95.459,34.606,-97.657,
00:00:01:166,0.964,0.264,0.172,3.662,23.315,-81.727,
00:00:01:183,0.967,0.244,0.157,84.045,2.502,-58.716,
00:00:01:200,0.963,0.223,0.14,139.221,-7.691,-30.701,
00:00:01:216,0.973,0.208,0.121,176.941,-18.433,-3.602,
00:00:01:233,0.977,0.191,0.109,218.689,-28.321,25.39,
00:00:01:250,0.974,0.174,0.104,204.223,-34.79,54.809,
00:00:01:266,0.975,0.156,0.099,180.175,-37.049,81.665,
00:00:01:283,0.969,0.143,0.1,138.733,-36.499,103.576,
00:00:01:300,0.958,0.134,0.093,81.298,-33.448,125.183,
00:00:01:316,0.95,0.131,0.092,9.765,-27.283,138,
00:00:01:333,0.942,0.147,0.085,-33.326,-20.264,141.174,
00:00:01:350,0.947,0.184,0.083,-49.622,-16.846,136.352,
00:00:01:366,0.938,0.171,0.09,-44.678,-14.71,128.967,
00:00:01:383,0.924,0.184,0.093,-4.212,-3.357,115.417,
00:00:01:400,0.917,0.185,0.095,49.255,8.85,95.031,
00:00:01:416,0.91,0.172,0.087,99.182,19.165,78.613,
00:00:01:433,0.921,0.152,0.091,115.478,34.362,54.138,
00:00:01:450,0.952,0.16,0.098,132.141,45.776,28.747,
00:00:01:466,0.956,0.167,0.12,150.94,48.095,9.033,
00:00:01:483,0.971,0.162,0.135,147.583,44.921,-20.691,
00:00:01:500,0.966,0.158,0.132,138.122,34.606,-22.644,
00:00:01:516,0.961,0.155,0.13,123.474,26.611,-14.222,
00:00:01:533,0.959,0.142,0.121,98.327,17.273,1.892,
00:00:01:550,0.952,0.134,0.121,65.49,4.516,24.841,
00:00:01:566,0.947,0.122,0.112,28.015,-2.015,44.799,
00:00:01:583,0.952,0.121,0.115,-31.006,-4.395,63.659,
00:00:01:600,0.946,0.134,0.118,-62.012,-7.691,75.317,
00:00:01:616,0.942,0.143,0.126,-64.454,-5.066,77.697,
00:00:01:633,0.932,0.149,0.129,-68.604,-5.249,73.059,
00:00:01:650,0.922,0.157,0.132,-56.092,2.075,56.396,
00:00:01:666,0.918,0.162,0.128,-31.8,12.756,35.522,
00:00:01:683,0.914,0.167,0.125,3.967,16.662,4.699,
00:00:01:700,0.917,0.164,0.128,39.672,25.207,-25.94,
00:00:01:716,0.919,0.164,0.124,63.72,25.634,-56.275,
00:00:01:733,0.92,0.16,0.131,69.58,23.193,-78.675,
00:00:01:750,0.928,0.152,0.133,69.58,26.916,-101.319,
00:00:01:766,0.936,0.154,0.128,57.434,22.033,-115.662,
00:00:01:783,0.943,0.153,0.094,39.672,18.554,-126.099,
00:00:01:800,0.956,0.152,0.12,17.334,18.981,-131.531,
00:00:01:816,0.967,0.155,0.111,-8.912,18.92,-131.531,
00:00:01:833,0.977,0.162,0.108,-25.33,18.798,-126.404,
00:00:01:850,0.971,0.169,0.111,-27.344,18.005,-117.371,
00:00:01:866,0.963,0.175,0.104,-20.142,23.193,-110.413,
00:00:01:883,0.958,0.18,0.106,-5.31,28.381,-101.99,
00:00:01:900,0.955,0.182,0.111,10.986,36.377,-95.826,
00:00:01:916,0.946,0.18,0.112,27.71,35.644,-91.736,
00:00:01:933,0.942,0.175,0.114,34.606,35.949,-86.121,
00:00:01:950,0.938,0.172,0.113,30.334,34.301,-79.102,
00:00:01:966,0.937,0.168,0.115,17.578,30.761,-70.557,
00:00:01:983,0.936,0.166,0.115,-6.043,26.367,-61.097,
00:00:02:0,0.932,0.165,0.119,-28.748,22.888,-54.566,
00:00:02:16,0.937,0.171,0.118,-48.768,24.169,-48.157,
00:00:02:33,0.943,0.175,0.115,-65.491,22.522,-45.105,
00:00:02:50,0.948,0.179,0.12,-75.562,20.446,-43.091,
00:00:02:66,0.949,0.184,0.121,-77.82,20.813,-39.917,
00:00:02:83,0.952,0.189,0.114,-71.167,23.498,-36.194,
00:00:02:100,0.956,0.193,0.112,-53.711,24.78,-31.861,
00:00:02:116,0.955,0.194,0.112,-28.443,23.376,-27.039,
00:00:02:133,0.956,0.185,0.115,2.136,21.24,-22.4,
00:00:02:150,0.955,0.178,0.115,28.625,19.897,-0.733,
00:00:02:166,0.955,0.168,0.118,47.18,20.446,-13.794,
00:00:02:183,0.951,0.162,0.126,55.053,19.043,-7.874,
00:00:02:200,0.946,0.154,0.13,56.823,18.127,-4.09,
00:00:02:216,0.946,0.15,0.129,55.297,17.273,-2.076,
00:00:02:233,0.948,0.148,0.122,53.283,17.7,1.342,
00:00:02:250,0.951,0.146,0.119,52.795,14.16,-0.611,
00:00:02:266,0.955,0.145,0.115,52.368,14.587,-5.372,
00:00:02:283,0.953,0.147,0.114,52.002,11.596,-7.447,
00:00:02:300,0.951,0.147,0.11,54.321,12.878,-12.085,
00:00:02:316,0.951,0.147,0.107,55.969,12.878,-17.945,
00:00:02:333,0.948,0.148,0.109,54.382,13.732,-20.02,
00:00:02:350,0.943,0.146,0.102,53.772,13.244,-19.837,
00:00:02:366,0.945,0.148,0.106,53.283,13.916,-18.799,
00:00:02:383,0.951,0.151,0.1,52.795,13.305,-19.227,
00:00:02:400,0.949,0.149,0.097,51.086,13.244,-18.372,
00:00:02:416,0.952,0.145,0.097,50.109,11.901,-18.189,
00:00:02:433,0.953,0.147,0.097,46.997,15.93,-18.494,
00:00:02:450,0.953,0.146,0.1,49.133,18.066,-18.799,
00:00:02:466,0.949,0.146,0.108,49.194,16.662,-20.081,
00:00:02:483,0.947,0.14,0.109,45.471,18.737,-22.217,
00:00:02:500,0.95,0.141,0.109,40.893,1.342,-22.278,
00:00:02:516,0.949,0.139,0.108,33.325,11.169,-18.616,
00:00:02:533,0.944,0.139,0.108,25.207,7.08,-14.893,
00:00:02:550,0.945,0.134,0.104,17.395,4.272,-12.574,
00:00:02:566,0.948,0.136,0.098,6.164,3.356,-8.728,
00:00:02:583,0.956,0.136,0.098,-4.395,5.981,-7.752,
00:00:02:600,0.964,0.143,0.122,-6.958,6.042,-8.973,
00:00:02:616,0.966,0.144,0.09,-5.738,10.681,-12.207,
00:00:02:633,0.961,0.145,0.096,2.563,8.483,-16.541,
00:00:02:650,0.956,0.145,0.096,15.197,14.343,-21.912,
00:00:02:666,0.948,0.142,0.102,20.69,19.226,-28.565,
00:00:02:683,0.95,0.145,0.113,20.263,19.958,-33.692,
00:00:02:700,0.949,0.146,0.127,18.493,17.578,-37.415,
00:00:02:716,0.954,0.147,0.13,14.099,14.404,-39.429,
00:00:02:733,0.956,0.154,0.135,14.77,12.756,-38.392,
00:00:02:750,0.955,0.158,0.142,17.761,8.972,-37.171,
00:00:02:766,0.964,0.163,0.141,24.353,5.676,-33.387,
00:00:02:783,0.954,0.154,0.14,23.254,-5.31,-23.255,
00:00:02:800,0.932,0.154,0.139,16.601,-11.963,-12.94,
00:00:02:816,0.925,0.155,0.131,7.08,-10.926,-3.113,
00:00:02:833,0.946,0.156,0.12,0.854,-23.377,5.676,
00:00:02:850,0.945,0.155,0.114,0.183,-33.02,16.784,
00:00:02:866,0.948,0.152,0.106,4.577,-37.598,21.24,
00:00:02:883,0.958,0.141,0.093,0.854,-49.866,27.404,
00:00:02:900,0.947,0.137,0.086,-9.705,-57.679,30.151,
00:00:02:916,0.947,0.133,0.089,-27.649,-52.063,27.404,
00:00:02:933,0.949,0.126,0.09,-49.378,-43.091,25.878,
00:00:02:950,0.954,0.131,0.088,-76.661,-37.476,21.606,
00:00:02:966,0.949,0.138,0.089,-89.661,-27.405,15.686,
00:00:02:983,0.947,0.14,0.095,-93.811,-19.043,7.446,
00:00:03:0,0.944,0.145,0.1,-98.145,-11.414,1.709,
00:00:03:16,0.946,0.143,0.098,-102.478,-4.517,-7.203,
00:00:03:33,0.945,0.146,0.098,-96.68,1.342,-13.916,
00:00:03:50,0.952,0.149,0.107,-85.633,9.155,-25.025,
00:00:03:66,0.958,0.146,0.114,-79.346,7.751,-32.776,
00:00:03:83,0.954,0.148,0.12,-75.44,1.648,-34.546,
00:00:03:100,0.946,0.153,0.129,-70.74,4.028,-40.406,
00:00:03:116,0.945,0.151,0.131,-61.585,0.122,-43.763,
00:00:03:133,0.939,0.151,0.141,-66.956,-0.977,-46.753,
00:00:03:150,0.941,0.158,0.154,-71.778,0.244,-46.143,
00:00:03:166,0.943,0.164,0.156,-66.59,-1.038,-49.134,
00:00:03:183,0.941,0.166,0.151,-58.96,-8.118,-49.988,
00:00:03:200,0.932,0.157,0.138,-53.467,-16.297,-49.195,
00:00:03:216,0.92,0.158,0.131,-40.162,-16.724,-52.124,
00:00:03:233,0.922,0.157,0.128,-28.809,-22.644,-58.716,
00:00:03:250,0.92,0.153,0.125,-32.776,-30.152,-60.791,
00:00:03:266,0.919,0.142,0.134,-55.176,-39.856,-66.529,
00:00:03:283,0.924,0.15,0.14,-72.449,-39.429,-78.553,
00:00:03:300,0.937,0.16,0.151,-72.876,-41.687,-99.976,
00:00:03:316,0.939,0.189,0.169,-73.06,-37.964,-121.644,
00:00:03:333,0.95,0.241,0.225,-54.688,-38.453,-151.368,
00:00:03:350,0.957,0.255,0.302,-51.819,-46.753,-184.388,
00:00:03:366,0.948,0.237,0.307,-121.399,-53.894,-227.662,
00:00:03:383,0.93,0.272,0.28,-212.891,-64.209,-281.311,
00:00:03:400,0.936,0.373,0.294,-270.325,-68.116,-336.609,
00:00:03:416,0.989,0.553,0.379,-354.004,-76.355,-359.742,
00:00:03:433,1.099,0.808,0.497,-562.378,-106.141,-271.729,
00:00:03:450,1.21,1.211,0.544,-645.874,-145.813,-19.349,
00:00:03:466,1.248,1.518,0.448,-291.748,-179.81,319.091,
00:00:03:483,1.254,1.43,0.473,88.562,-221.802,708.496,
00:00:03:500,1.29,1.37,0.631,106.262,-204.346,1135.742,
00:00:03:516,1.416,1.463,0.602,-114.136,-161.683,1508.911,
00:00:03:533,1.559,1.751,0.553,-350.708,-207.093,1837.951,
00:00:03:550,1.692,2.11,0.459,-413.514,-296.998,1999.694,
00:00:03:566,1.886,2.288,0.433,-235.474,-399.109,1999.694,
00:00:03:583,2.151,2.348,0.451,21.789,-471.375,1999.694,
00:00:03:600,2.493,2.39,0.423,274.475,-528.26,1999.694,
00:00:03:616,2.822,2.487,0.394,374.817,-619.446,1999.694,
00:00:03:633,3.611,2.626,0.278,778.259,-872.437,1999.694,
00:00:03:650,3.665,1.923,0.205,945.129,-1053.04,1999.694,
00:00:03:666,3.343,1.214,0.259,540.344,-1145.447,1999.694,
00:00:03:683,3.024,0.876,0.162,57.006,-1036.561,1999.694,
00:00:03:700,3.001,0.701,-0.031,85.205,-903.321,1999.694,
00:00:03:716,3.012,0.328,-0.247,242.309,-826.233,1999.694,
00:00:03:733,2.945,-0.289,-0.467,38.024,-753.418,1999.694,
00:00:03:750,2.794,-1.266,-0.535,-718.14,-650.33,1999.694,
00:00:03:766,2.182,-1.458,-0.544,-1357.056,-43.885,1999.694,
00:00:03:783,2.249,-1.523,-0.417,-1495.667,300.903,1999.694,
00:00:03:800,2.236,-2.13,-0.338,-794.19,370.361,1999.694,
00:00:03:816,1.881,-2.93,-0.106,44.921,220.153,1081.359,
00:00:03:833,1.688,-3.249,0.057,573.608,121.093,-133.789,
00:00:03:850,1.588,-3.266,0.221,961.975,43.579,-1505.738,
00:00:03:866,2.055,-3.063,0.22,612.854,159.607,-2000,
00:00:03:883,2.836,-2.457,0.258,-109.498,251.587,-2000,
00:00:03:900,3.598,-1.997,0.135,-837.281,233.703,-2000,
00:00:03:916,3.999,-1.237,-0.049,-1275.574,99.06,-2000,
00:00:03:933,3.999,0.029,-0.36,-1160.218,-158.143,-2000,
00:00:03:950,3.999,1.597,-0.479,-577.942,-226.99,-2000,
00:00:03:966,3.999,2.725,-1.049,654.663,41.137,-2000,
00:00:03:983,3.999,2.337,-1.615,150.329,446.594,-2000,
00:00:04:0,3.999,2.871,0.027,-2000,808.654,-2000,
00:00:04:16,3.999,3.999,0.015,-1933.655,396.85,-2000,
00:00:04:33,3.999,3.999,-0.478,-228.821,-343.934,-2000,
00:00:04:50,3.999,3.198,-0.149,66.894,-341.37,-2000,
00:00:04:66,3.372,3.446,0.406,-309.082,-168.335,-2000,
00:00:04:83,2.692,3.624,0.487,-132.386,-166.81,-2000,
00:00:04:100,1.649,3.543,0.346,5.31,-189.148,-1839.051,
00:00:04:116,0.931,2.896,0.25,36.804,-242.981,-873.78,
00:00:04:133,0.713,1.875,0.336,-36.622,-92.957,-240.784,
00:00:04:150,0.855,1.685,0.278,-276.185,105.651,225.28,
00:00:04:166,0.952,1.718,0.152,-148.255,50.72,486.389,
00:00:04:183,0.916,1.346,0.165,161.193,-44.068,614.196,
00:00:04:200,0.933,0.906,0.225,343.444,-64.881,681.213,
00:00:04:216,0.956,0.517,0.241,454.956,-80.445,685.241,
00:00:04:233,0.937,0.223,0.293,486.511,-83.68,632.385,
00:00:04:250,0.943,0.101,0.229,442.688,-59.815,581.604,
00:00:04:266,0.954,0.009,0.178,443.054,-66.102,507.812,
00:00:04:283,0.968,-0.138,0.151,437.622,-41.077,322.692,
00:00:04:300,0.964,-0.18,0.145,416.076,-16.724,242.675,
00:00:04:316,0.95,-0.17,0.143,362.243,9.46,162.292,
00:00:04:333,0.971,-0.12,0.132,297.851,50.72,78.369,
00:00:04:350,0.984,-0.075,0.089,255.493,61.645,9.399,
00:00:04:366,0.956,-0.014,0.078,239.502,64.331,-48.584,
00:00:04:383,0.979,0.129,0.016,255.066,12.695,-96.863,
00:00:04:400,0.985,0.154,0.02,265.991,-26.978,-59.51,
00:00:04:416,0.99,0.216,0.036,266.723,-49.012,-8.851,
00:00:04:433,0.987,0.288,0.071,324.89,-69.275,48.156,
00:00:04:450,0.99,0.357,0.121,459.961,-70.74,124.023,
00:00:04:466,0.983,0.402,0.179,653.747,-70.13,164.367,
00:00:04:483,0.966,0.37,0.26,762.817,-75.745,230.651,
00:00:04:500,0.953,0.316,0.258,725.28,-88.807,295.776,
00:00:04:516,0.912,0.337,0.265,614.013,-104.371,380.31,
00:00:04:533,0.905,0.393,0.267,510.62,-115.601,430.847,
00:00:04:550,0.905,0.494,0.271,546.203,-133.24,512.329,
00:00:04:566,0.926,0.5,0.274,655.151,-164.734,554.565,
00:00:04:583,0.976,0.459,0.465,578.552,-236.878,748.596,
00:00:04:600,0.924,0.473,0.471,486.755,-241.333,807.19,
00:00:04:616,0.916,0.478,0.468,447.448,-267.029,847.961,
00:00:04:633,0.881,0.469,0.476,488.22,-273.987,900.817,
00:00:04:650,0.854,0.517,0.482,498.413,-270.935,939.392,
00:00:04:666,0.82,0.532,0.483,531.494,-278.016,954.528,
00:00:04:683,0.774,0.479,0.497,542.724,-302.002,948.547,
00:00:04:700,0.703,0.423,0.501,549.926,-307.984,927.002,
00:00:04:716,0.659,0.435,0.475,598.51,-304.993,896.789,
00:00:04:733,0.622,0.453,0.436,740.844,-313.66,847.473,
00:00:04:750,0.601,0.38,0.431,815.063,-319.397,788.208,
00:00:04:766,0.586,0.329,0.448,741.15,-314.026,743.042,
00:00:04:783,0.571,0.359,0.449,675.109,-300.293,708.252,
00:00:04:800,0.55,0.394,0.45,711.425,-283.204,668.945,
00:00:04:816,0.531,0.392,0.455,776.794,-241.211,620.056,
00:00:04:833,0.544,0.362,0.493,784.668,-194.947,584.961,
00:00:04:850,0.571,0.35,0.489,794.983,-185.059,555.603,
00:00:04:866,0.559,0.347,0.465,843.444,-160.157,528.991,
00:00:04:883,0.557,0.343,0.444,906.25,-81.727,479.492,
00:00:04:900,0.617,0.351,0.465,953.003,24.719,425.72,
00:00:04:916,0.632,0.312,0.507,997.375,116.15,370.361,
00:00:04:933,0.646,0.322,0.54,1029.113,173.401,332.458,
00:00:04:950,0.633,0.339,0.581,1120.971,268.066,283.996,
00:00:04:966,0.639,0.311,0.544,1231.018,332.519,244.873,
00:00:04:983,0.623,0.298,0.481,1354.858,433.96,207.031,
00:00:05:0,0.679,0.208,0.47,1421.692,492.248,163.574,
00:00:05:16,0.709,0.092,0.475,1323.486,502.563,149.414,
00:00:05:33,0.736,0.074,0.498,1175.415,510.437,141.296,
00:00:05:50,0.781,0.064,0.536,1100.525,523.559,145.324,
00:00:05:66,0.801,0.058,0.563,1029.663,525.817,166.015,
00:00:05:83,0.814,0.054,0.588,955.688,540.466,182.373,
00:00:05:100,0.884,0.086,0.574,963.256,508.667,181.335,
00:00:05:116,0.848,0.033,0.611,931.64,476.257,226.806,
00:00:05:133,0.875,0.055,0.609,899.292,456.359,214.416,
00:00:05:150,0.917,-0.045,0.696,809.204,362.854,269.836,
00:00:05:166,0.871,0.023,0.69,624.389,346.923,262.878,
00:00:05:183,0.848,0.091,0.58,666.992,391.113,289.489,
00:00:05:200,0.779,0.159,0.391,842.041,432.19,304.87,
00:00:05:216,0.842,0.194,0.383,846.252,473.266,425.048,
00:00:05:233,0.972,-0.088,0.603,739.685,259.216,420.41,
00:00:05:250,0.911,-0.011,0.753,545.41,177.185,419.677,
00:00:05:266,0.894,-0.181,0.733,491.821,79.65,331.543,
00:00:05:283,0.773,-0.227,0.489,456.909,122.558,247.863,
00:00:05:300,0.825,-0.124,0.55,310.424,152.588,232.177,
00:00:05:316,0.848,-0.012,0.631,276.611,167.846,230.896,
00:00:05:333,0.909,0.035,0.564,260.986,205.81,264.099,
00:00:05:350,0.947,0.172,0.49,284.912,190.307,325.073,
00:00:05:366,0.934,0.113,0.538,336.364,96.862,354.37,
00:00:05:383,0.856,-0.099,0.685,271.24,5.065,366.15,
00:00:05:400,0.854,-0.186,0.598,182.739,0.183,287.719,
00:00:05:416,0.851,-0.096,0.598,-20.997,-63.05,285.217,
00:00:05:433,0.789,0.005,0.629,-151.978,-137.757,203.735,
00:00:05:450,0.741,0.084,0.699,-207.825,-202.21,155.578,
00:00:05:466,0.694,0.106,0.778,-232.178,-235.108,117.431,
00:00:05:483,0.659,0.081,0.781,-179.139,-256.47,76.416,
00:00:05:500,0.591,0,0.716,-150.757,-249.756,64.941,
00:00:05:516,0.588,0.022,0.684,-149.964,-206.36,52.124,
00:00:05:533,0.587,0.016,0.664,-106.507,-178.162,51.696,
00:00:05:550,0.576,0.05,0.648,-52.918,-128.724,27.954,
00:00:05:566,0.657,0.053,0.69,-53.223,-73.06,31.677,
00:00:05:583,0.65,0.034,0.658,18.432,-82.764,19.775,
00:00:05:600,0.642,0.063,0.624,31.921,-31.25,33.264,
00:00:05:616,0.686,0.095,0.628,53.772,-8.728,35.278,
00:00:05:633,0.698,0.084,0.63,64.392,22.888,16.784,
00:00:05:650,0.713,0.075,0.627,57.19,51.94,25.024,
00:00:05:666,0.721,0.098,0.601,85.815,87.646,10.437,
00:00:05:683,0.724,0.121,0.58,134.521,118.591,4.516,
00:00:05:700,0.728,0.108,0.599,165.588,175.293,8.117,
00:00:05:716,0.748,0.032,0.546,176.33,214.355,17.639,
00:00:05:733,1.032,0.048,0.584,161.438,190.002,40.161,
00:00:05:750,0.802,0.046,0.711,148.803,95.52,35.888,rollRH
00:00:05:766,0.855,0.067,0.649,62.072,101.074,38.94,
00:00:05:783,0.746,0.089,0.653,135.437,30.761,52.917,
00:00:05:800,0.72,0.029,0.635,118.469,30.517,49.987,
00:00:05:816,0.693,-0.037,0.559,88.256,31.127,29.235,
00:00:05:833,0.667,0.009,0.613,-9.766,33.996,2.38,
00:00:05:850,0.674,0.053,0.668,-76.539,37.048,-21.363,
00:00:05:866,0.675,0.044,0.709,-73.975,41.076,-43.152,
00:00:05:883,0.673,0.002,0.71,-86.731,28.991,-73.304,
00:00:05:900,0.709,0.061,0.674,-95.093,39.062,-90.332,
00:00:05:916,0.684,0.027,0.675,-57.312,33.508,-97.901,
00:00:05:933,0.731,0.065,0.663,-30.457,41.442,-82.337,
00:00:05:950,0.747,0.022,0.654,36.926,52.307,-80.628,
00:00:05:966,0.828,0.006,0.66,94.177,40.1,-61.829,
00:00:05:983,0.808,0.007,0.625,132.812,32.165,-36.927,
00:00:06:0,0.74,0.028,0.525,251.22,24.169,-23.011,
00:00:06:16,0.745,0.079,0.514,321.289,50.72,-18.311,
00:00:06:33,0.783,0,0.639,335.937,51.879,-19.227,
00:00:06:50,0.803,-0.068,0.762,206.054,22.399,-17.212,
00:00:06:66,0.747,-0.007,0.677,109.68,-14.222,-16.236,
00:00:06:83,0.688,0.05,0.569,81.115,-29.297,-20.203,
00:00:06:100,0.713,-0.016,0.617,43.396,-17.518,-47.486,
00:00:06:116,0.76,0.013,0.607,-12.696,6.286,-71.9,
00:00:06:133,0.782,0.074,0.68,-43.335,3.784,-76.111,
00:00:06:150,0.823,0.014,0.664,-40.101,-26.673,-83.313,
00:00:06:166,0.798,0.011,0.654,-28.931,-44.678,-82.398,
00:00:06:183,0.811,0.018,0.615,-42.176,-36.194,-81.482,
00:00:06:200,0.833,0.067,0.565,-50.11,-27.527,-80.323,
00:00:06:216,0.879,0.099,0.501,-32.532,-22.461,-76.05,
00:00:06:233,0.944,0.057,0.4,-22.095,-14.161,-64.82,
00:00:06:250,0.969,0.061,0.307,-28.931,8.972,-27.527,
00:00:06:266,0.987,0.013,0.249,-1.831,26.123,13.366,
00:00:06:283,0.932,0.083,0.367,-44.129,29.846,49.743,
00:00:06:300,0.9,0.103,0.464,-73.914,14.892,51.33,
00:00:06:316,0.839,0.039,0.526,-117.249,-2.686,57.251,
00:00:06:333,0.784,0,0.525,-155.335,5.065,50.415,
00:00:06:350,0.735,0.037,0.554,-123.23,17.944,44.616,
00:00:06:366,0.739,-0.001,0.615,-124.451,39.917,44.067,
00:00:06:383,0.773,0.015,0.689,-109.864,47.058,33.935,
00:00:06:400,0.776,0.051,0.692,-109.498,63.964,40.283,
00:00:06:416,0.786,0.011,0.669,-68.482,61.462,40.344,
00:00:06:433,0.759,-0.01,0.634,-48.035,55.236,39.917,
00:00:06:450,0.745,0.037,0.636,-46.692,56.579,31.372,
00:00:06:466,0.726,0.04,0.627,-43.763,58.96,23.681,
00:00:06:483,0.733,0.054,0.642,-46.326,57.373,11.718,
00:00:06:500,0.743,0.07,0.641,-31.128,53.894,5.493,
00:00:06:516,0.753,0.078,0.632,-31.8,57.067,0.671,
00:00:06:533,0.768,0.084,0.566,-19.165,70.922,-2.991,
00:00:06:550,0.77,0.057,0.556,-6.287,79.711,-2.93,
00:00:06:566,0.789,0.047,0.514,-9.522,80.017,0.61,
00:00:06:583,0.794,0.065,0.538,-11.048,72.692,3.601,
00:00:06:600,0.779,0.075,0.563,-19.593,58.715,2.807,
00:00:06:616,0.767,0.044,0.56,-61.524,53.1,-0.367,
00:00:06:633,0.74,0.074,0.599,-67.81,37.353,-5.494,
00:00:06:650,0.773,0.097,0.654,-62.5,26.916,-17.823,
00:00:06:666,0.79,0.072,0.687,-33.509,5.554,-19.043,
00:00:06:683,0.79,0.089,0.675,-3.724,-7.264,-12.513,
00:00:06:700,0.763,0.015,0.606,23.498,-18.128,-8.789,
00:00:06:716,0.714,0.026,0.571,-18.677,-3.052,-25.879,
00:00:06:733,0.722,0.088,0.566,-28.077,21.179,-45.838,
00:00:06:750,0.729,0.062,0.613,-15.686,38.33,-58.228,
00:00:06:766,0.739,0.04,0.648,-60.425,53.772,-68.36,
00:00:06:783,0.719,0.05,0.673,-98.328,44.555,-92.469,
00:00:06:800,0.68,0.065,0.633,-101.014,37.78,-84.778,
00:00:06:816,0.679,-0.012,0.648,-76.6,42.236,-85.511,
00:00:06:833,0.699,-0.02,0.676,-66.102,43.701,-78.98,
00:00:06:850,0.698,-0.008,0.699,-87.281,34.179,-63.355,
00:00:06:866,0.69,-0.035,0.678,-61.28,22.949,-44.251,
00:00:06:883,0.693,-0.052,0.675,-9.583,16.54,-30.03,
00:00:06:900,0.684,-0.066,0.696,8.728,26.001,-13.367,
00:00:06:916,0.691,-0.008,0.666,34.545,24.841,-1.648,
00:00:06:933,0.718,0.039,0.642,69.397,27.404,4.15,
00:00:06:950,0.746,0.073,0.539,71.044,50.048,13.244,
00:00:06:966,0.805,0.068,0.557,82.397,51.025,24.292,
00:00:06:983,0.853,0.102,0.539,60.913,39.306,25.085,
00:00:07:0,0.854,0.098,0.531,68.969,18.005,29.663,
00:00:07:16,0.847,0.073,0.543,62.133,7.446,35.705,
00:00:07:33,0.828,0.083,0.541,55.969,-9.034,48.278,
00:00:07:50,0.828,0.082,0.61,62.988,-31.617,51.574,
00:00:07:66,0.816,0.082,0.631,72.998,-52.979,44.433,
00:00:07:83,0.829,0.113,0.625,65.368,-65.552,34.545,
00:00:07:100,0.847,0.151,0.607,76.904,-76.111,32.043,
00:00:07:116,0.869,0.127,0.606,101.806,-87.22,42.846,
00:00:07:133,0.87,0.155,0.574,104.126,-93.873,55.053,
00:00:07:150,0.812,0.091,0.539,85.754,-100.403,54.321,
00:00:07:166,0.688,0.001,0.446,28.137,-96.619,45.166,
00:00:07:183,0.682,0.077,0.549,0.671,-61.402,13.916,
00:00:07:200,0.762,0.094,0.696,-5.677,-70.618,-13.794,
00:00:07:216,0.788,0.09,0.719,-31.128,-94.056,-45.166,
00:00:07:233,0.791,0.159,0.692,-64.209,-98.084,-54.2,
00:00:07:250,0.824,0.101,0.666,-39.978,-95.154,-52.674,
00:00:07:266,0.847,0.131,0.667,5.188,-110.413,-26.49,
00:00:07:283,0.864,0.121,0.675,47.241,-127.137,-17.64,
00:00:07:300,0.839,0.134,0.594,49.56,-125.061,4.089,
00:00:07:316,0.768,0.029,0.573,31.982,-121.338,7.629,
00:00:07:333,0.706,0.022,0.594,-38.025,-112.977,4.821,
00:00:07:350,0.7,0.091,0.617,-78.98,-122.864,-14.1,
00:00:07:366,0.625,0.079,0.498,-84.656,-151.307,-25.269,
00:00:07:383,0.577,0.044,0.482,-77.759,-123.902,-37.842,
00:00:07:400,0.638,0.008,0.581,-62.561,-71.9,-48.34,
00:00:07:416,0.761,0.066,0.722,-81.421,-60.73,-43.702,
00:00:07:433,0.772,0.103,0.761,-90.821,-76.477,-32.654,
00:00:07:450,0.734,0.095,0.72,-90.76,-90.027,-25.147,
00:00:07:466,0.704,0.074,0.687,-52.491,-89.295,-30.213,
00:00:07:483,0.674,0.056,0.657,-49.134,-78.064,-35.401,
00:00:07:500,0.688,0.122,0.663,-72.876,-70.252,-43.091,
00:00:07:516,0.686,0.118,0.674,-58.106,-67.139,-52.674,
00:00:07:533,0.719,0.108,0.702,-58.655,-71.778,-54.017,
00:00:07:550,0.707,0.132,0.665,-60.669,-76.539,-51.514,
00:00:07:566,0.672,0.08,0.656,-32.288,-77.088,-46.265,
00:00:07:583,0.663,0.021,0.63,-39.49,-51.941,-42.603,
00:00:07:600,0.679,0.004,0.676,-48.279,-34.363,-39.734,
00:00:07:616,0.693,0.075,0.725,-58.594,-33.204,-38.453,
00:00:07:633,0.671,0.138,0.688,-37.598,-34.424,-34.852,
00:00:07:650,0.656,0.109,0.696,-12.452,-29.602,-37.476,
00:00:07:666,0.68,0.093,0.703,-29.114,-20.874,-34.363,
00:00:07:683,0.707,0.106,0.722,-32.044,-22.522,-27.955,
00:00:07:700,0.712,0.137,0.761,-60.608,-38.758,-21.18,
00:00:07:716,0.686,0.082,0.713,-39.734,-47.364,-19.654,
00:00:07:733,0.686,0.119,0.722,-74.219,-40.223,-16.968,
00:00:07:750,0.697,0.145,0.639,-42.542,-25.696,-21.851,
00:00:07:766,0.706,0.115,0.688,-38.758,-33.875,-26.856,
00:00:07:783,0.695,0.053,0.655,-39.063,-25.33,-19.959,
00:00:07:800,0.714,0.132,0.684,-74.707,-14.344,-12.024,
00:00:07:816,0.706,0.116,0.712,-121.766,-10.437,-5.677,
00:00:07:833,0.699,0.163,0.713,-97.596,-6.653,-1.16,
00:00:07:850,0.674,0.133,0.682,-71.228,-19.959,-2.503,
00:00:07:866,0.66,0.081,0.722,-61.097,-28.992,-11.475,
00:00:07:883,0.67,0.109,0.734,-112.549,-36.438,-19.654,
00:00:07:900,0.649,0.175,0.699,-131.958,-38.88,-24.414,
00:00:07:916,0.651,0.166,0.658,-65.674,-42.725,-38.636,
00:00:07:933,0.673,0.137,0.631,-44.434,-35.889,-41.321,
00:00:07:950,0.681,0.118,0.624,-64.454,-34.058,-40.894,
00:00:07:966,0.661,0.17,0.56,-51.819,-7.447,-32.837,
00:00:07:983,0.683,0.13,0.595,-10.315,3.845,-41.138,
00:00:08:0,0.685,0.139,0.605,-3.174,23.864,-37.598,
00:00:08:16,0.673,0.108,0.682,-8.423,31.677,-40.467,
00:00:08:33,0.684,0.149,0.674,-11.719,28.869,-48.951,
00:00:08:50,0.684,0.134,0.701,-2.076,13.61,-55.054,
00:00:08:66,0.683,0.141,0.694,2.502,-6.958,-60.608,
00:00:08:83,0.662,0.144,0.698,-4.761,-26.062,-65.125,
00:00:08:100,0.669,0.15,0.697,-29.114,-26.49,-66.102,
00:00:08:116,0.685,0.162,0.709,-31.495,-30.274,-68.055,
00:00:08:133,0.693,0.133,0.667,-6.653,-38.392,-64.759,
00:00:08:150,0.692,0.14,0.597,-11.597,-25.635,-62.012,
00:00:08:166,0.718,0.106,0.58,-19.898,-6.409,-59.144,
00:00:08:183,0.709,0.069,0.604,-28.87,11.657,-42.481,
00:00:08:200,0.689,0.101,0.677,-65.003,26.001,-31.311,
00:00:08:216,0.667,0.183,0.748,-58.594,27.404,-31.861,
00:00:08:233,0.603,0.2,0.75,-34.668,30.395,-46.143,
00:00:08:250,0.601,0.142,0.744,-3.357,36.438,-74.158,
00:00:08:266,0.624,0.102,0.785,-22.461,25.878,-81.971,
00:00:08:283,0.683,0.18,0.852,-19.715,24.231,-93.323,
00:00:08:300,0.699,0.152,0.842,19.287,-21.912,-85.572,
00:00:08:316,0.646,0.117,0.803,26.062,-33.631,-82.398,
00:00:08:333,0.629,0.11,0.718,67.504,-29.358,-82.703,
00:00:08:350,0.646,0.126,0.69,102.356,-18.433,-80.811,
00:00:08:366,0.662,0.12,0.679,136.963,-20.813,-74.524,
00:00:08:383,0.712,0.156,0.621,127.38,-15.931,-76.172,
00:00:08:400,0.755,0.185,0.533,113.403,-3.602,-81.421,
00:00:08:416,0.846,0.212,0.469,96.313,23.437,-88.623,
00:00:08:433,0.884,0.227,0.362,77.514,48.828,-78.309,
00:00:08:450,0.83,0.171,0.415,74.829,82.336,-64.881,
00:00:08:466,0.838,0.09,0.5,86.608,117.004,-65.674,
00:00:08:483,0.82,0.078,0.551,78.064,129.272,-53.04,
00:00:08:500,0.755,0.028,0.599,66.345,122.924,-46.57,
00:00:08:516,0.711,0.023,0.645,1.403,122.558,-49.805,
00:00:08:533,0.715,0.081,0.631,-7.081,129.76,-70.862,
00:00:08:550,0.756,0.134,0.63,-4.639,131.408,-78.553,
00:00:08:566,0.759,0.135,0.663,-10.865,138.488,-80.14,
00:00:08:583,0.775,0.134,0.68,0,142.395,-82.764,
00:00:08:600,0.769,0.1,0.655,15.197,140.319,-81.299,
00:00:08:616,0.771,0.077,0.635,7.385,156.616,-71.778,
00:00:08:633,0.765,0.058,0.587,7.263,161.377,-59.51,
00:00:08:650,0.771,0.089,0.544,-9.766,171.325,-49.805,
00:00:08:666,0.743,0.096,0.546,-28.138,178.466,-45.716,
00:00:08:683,0.741,0.098,0.504,-63.05,196.716,-49.256,
00:00:08:700,0.937,-0.099,0.734,-176.026,139.709,-96.863,
00:00:08:716,0.631,0.193,0.986,-199.83,-0.184,-37.049,
00:00:08:733,0.77,0.107,0.729,-132.569,2.563,-119.385,
00:00:08:750,0.726,0.148,0.704,-121.277,-30.274,-89.722,
00:00:08:766,0.734,0.186,0.667,-89.661,-13.794,-82.764,
00:00:08:783,0.789,0.124,0.639,-49.622,13.427,-65.918,
00:00:08:800,0.791,0.093,0.562,-56.275,57.739,-55.603,
00:00:08:816,0.923,0.013,0.535,-54.688,82.092,-61.402,
00:00:08:833,0.965,0.037,0.663,-124.207,29.419,-22.889,
00:00:08:850,0.811,0.084,0.546,-92.774,18.676,-19.227,
00:00:08:866,1.012,-0.046,0.677,-131.226,-85.267,37.536,
00:00:08:883,0.854,0.062,0.75,-130.127,-108.948,31.005,
00:00:08:900,0.835,0.071,0.847,-173.645,-169.8,63.598,
00:00:08:916,0.741,0.091,0.862,-158.753,-186.951,67.321,
00:00:08:933,0.69,0.072,0.882,-165.711,-222.535,75.5,
00:00:08:950,0.52,0.148,0.977,-245.545,-349.488,102.478,
00:00:08:966,0.466,0.11,0.974,-289.063,-375.855,103.515,
00:00:08:983,0.404,0.096,0.936,-375.489,-388.245,117.614,
00:00:09:0,0.368,0.129,0.914,-438.111,-380.188,125.183,
00:00:09:16,0.33,0.208,0.806,-445.374,-352.417,138.977,
00:00:09:33,0.318,0.213,0.758,-401.917,-323.426,144.287,
00:00:09:50,0.317,0.198,0.741,-353.821,-281.495,158.752,
00:00:09:66,0.33,0.168,0.685,-363.038,-242.493,161.071,
00:00:09:83,0.347,0.107,0.668,-520.508,-229.798,156.494,
00:00:09:100,0.341,0.025,0.579,-878.663,-243.531,124.328,
00:00:09:116,0.381,0.089,0.774,-1233.155,-251.831,34.912,
00:00:09:133,0.323,0.534,0.394,-843.323,-158.57,76.721,
00:00:09:150,0.298,0.48,0.422,-393.372,-155.274,-65.857,
00:00:09:166,0.329,0.508,0.376,-81.788,-62.989,-105.469,
00:00:09:183,0.361,0.34,0.4,104.004,-6.775,-171.326,
00:00:09:200,0.415,0.243,0.48,67.749,56.64,-221.619,
00:00:09:216,0.523,0.283,0.53,-68.848,94.482,-269.532,
00:00:09:233,0.588,0.329,0.562,-236.756,35.4,-311.951,
00:00:09:250,0.596,0.419,0.611,-341.309,-3.907,-336.426,
00:00:09:266,0.622,0.513,0.525,-350.22,21.057,-374.39,
00:00:09:283,0.671,0.472,0.42,-191.285,38.452,-388.184,
00:00:09:300,0.714,0.392,0.386,-59.327,69.824,-391.724,
00:00:09:316,0.717,0.35,0.373,103.271,94.055,-386.109,
00:00:09:333,0.701,0.243,0.39,242.981,127.563,-383.851,
00:00:09:350,0.724,0.183,0.392,339.782,193.847,-367.554,
00:00:09:366,0.887,-0.036,0.324,409.79,125.305,-337.586,
00:00:09:383,1.17,-0.197,1.155,261.23,-179.505,-256.226,
00:00:09:400,1.04,0.361,1.419,-131.165,-260.56,-21.912,rollRH
00:00:09:416,0.503,0.37,0.972,-266.419,-278.077,161.01,
00:00:09:433,0.455,0.384,1,-105.835,-232.3,161.316,
00:00:09:450,0.43,0.301,0.882,0.976,-177.308,119.812,
00:00:09:466,0.459,0.286,0.751,37.353,-114.441,78.552,
00:00:09:483,0.542,0.393,0.652,14.16,-66.956,67.321,
00:00:09:500,0.676,0.408,0.783,24.353,-70.374,85.51,
00:00:09:516,0.639,0.335,0.728,43.212,-33.997,66.65,
00:00:09:533,0.637,0.371,0.729,112.732,-25.452,108.825,
00:00:09:550,0.565,0.307,0.611,177.368,3.295,100.891,
00:00:09:566,0.553,0.361,0.659,125.854,23.437,108.581,
00:00:09:583,0.552,0.357,0.718,155.456,33.386,63.842,
00:00:09:600,0.524,0.399,0.763,141.113,18.31,42.602,
00:00:09:616,0.536,0.427,0.714,104.065,-0.428,21.667,
00:00:09:633,0.518,0.373,0.732,76.66,-18.25,3.662,
00:00:09:650,0.522,0.37,0.772,48.767,-15.686,-8.179,
00:00:09:666,0.526,0.41,0.835,48.828,-2.32,-24.109,
00:00:09:683,0.532,0.304,0.825,147.522,33.142,-61.463,
00:00:09:700,0.478,0.294,0.788,196.777,35.827,-74.585,
00:00:09:716,0.441,0.401,0.814,285.766,54.199,-92.102,
00:00:09:733,0.384,0.352,0.893,334.716,58.471,-127.076,
00:00:09:750,0.415,0.319,0.824,317.382,71.594,-173.89,
00:00:09:766,0.75,0.314,0.681,156.982,97.839,-264.527,
00:00:09:783,0.889,0.183,0.535,95.825,153.015,-279.358,
00:00:09:800,1.038,0.112,0.501,13.183,150.512,-248.23,
00:00:09:816,1.134,0.187,0.492,-100.464,92.163,-158.936,
00:00:09:833,1.069,0.26,0.571,-190.186,-28.016,-63.599,
00:00:09:850,1.001,0.214,0.69,-310.486,-335.206,210.571,
00:00:09:866,0.94,0.21,0.632,-405.03,-365.357,242.797,
00:00:09:883,0.907,0.263,0.615,-421.814,-366.211,271.118,
00:00:09:900,0.867,0.27,0.589,-429.81,-345.826,294.555,
00:00:09:916,0.783,0.276,0.489,-362.488,-328.614,302.185,
00:00:09:933,0.412,0.206,0.402,31.921,-235.596,202.819,
00:00:09:950,0.323,0.174,0.561,1.953,-146.79,141.906,
00:00:09:966,0.283,0.127,0.549,-51.087,-38.636,61.95,
00:00:09:983,0.25,0.252,0.575,-162.598,34.973,-5.372,
00:00:10:0,0.154,0.265,0.596,-140.87,249.511,-219.3,
00:00:10:16,0.161,0.359,0.622,-219.3,280.761,-288.025,
00:00:10:33,0.2,0.35,0.709,-317.933,300.415,-325.196,
00:00:10:50,0.203,0.5,0.799,-308.289,295.898,-316.407,
00:00:10:66,0.272,0.551,0.943,-173.706,269.348,-316.529,
00:00:10:83,0.327,0.523,1.043,-112.061,225.708,-302.552,
00:00:10:100,0.32,0.469,1.017,-93.201,176.391,-291.077,
00:00:10:116,0.328,0.458,0.943,-49.683,139.953,-260.56,
00:00:10:133,0.351,0.484,0.907,29.541,91.064,-227.845,
00:00:10:150,0.369,0.474,0.84,174.438,42.663,-192.505,
00:00:10:166,0.376,0.352,0.802,265.869,14.038,-189.27,
00:00:10:183,0.405,0.333,0.816,271.911,24.719,-179.688,
00:00:10:200,0.44,0.402,0.637,426.696,46.264,-156.067,
00:00:10:216,0.788,0.457,0.85,442.382,-84.656,-73.609,
00:00:10:233,0.765,0.584,0.839,524.841,-198.121,159.668,
00:00:10:250,0.515,0.146,1.068,457.58,-242.92,190.796,
00:00:10:266,0.551,0.205,0.897,199.646,-212.83,171.142,
00:00:10:283,0.438,0.105,0.657,168.274,-146.241,170.776,
00:00:10:300,0.538,0.303,0.869,82.031,-100.22,207.519,
00:00:10:316,0.531,0.294,0.795,-76.966,-63.843,163.818,
00:00:10:333,0.542,0.449,0.869,-175.11,-89.112,140.625,
00:00:10:350,0.487,0.471,0.949,-147.034,-98.206,180.114,
00:00:10:366,0.481,0.519,0.942,-80.262,-101.685,192.81,
00:00:10:383,0.481,0.453,0.93,-62.012,-59.144,189.392,
00:00:10:400,0.571,0.417,0.834,61.523,-29.236,178.588,
00:00:10:416,0.617,0.355,0.737,82.214,-8.789,184.57,
00:00:10:433,0.649,0.339,0.717,81.176,16.723,161.377,
00:00:10:450,0.666,0.381,0.715,79.589,35.949,138.305,
00:00:10:466,0.655,0.408,0.729,67.321,49.682,106.018,
00:00:10:483,0.615,0.393,0.745,58.837,51.696,83.74,
00:00:10:500,0.512,0.367,0.811,103.881,40.771,106.506,
00:00:10:516,0.469,0.362,0.787,131.347,30.456,125.793,
00:00:10:533,0.444,0.327,0.733,129.15,21.911,130.493,
00:00:10:550,0.428,0.335,0.733,112.548,22.399,118.286,
00:00:10:566,0.447,0.352,0.768,97.229,23.01,107.544,
00:00:10:583,0.445,0.357,0.816,90.82,25.268,96.618,
00:00:10:600,0.428,0.4,0.817,64.636,24.902,88.195,
00:00:10:616,0.4,0.412,0.843,60.485,17.089,81.543,
00:00:10:633,0.335,0.442,0.88,57.495,-3.235,80.993,
00:00:10:650,0.27,0.463,0.95,58.105,-17.395,73.608,
00:00:10:666,0.227,0.462,0.951,52.917,-31.311,57.617,
00:00:10:683,0.185,0.519,0.939,43.579,-33.387,24.353,
00:00:10:700,0.114,0.489,0.963,64.27,-6.897,-13.001,
00:00:10:716,0.09,0.498,0.918,106.323,65.551,-91.187,
00:00:10:733,0.144,0.483,0.821,171.203,137.146,-174.256,
00:00:10:750,0.236,0.512,0.811,246.338,216.613,-245.24,
00:00:10:766,0.423,0.407,0.783,323.059,274.78,-294.19,
00:00:10:783,0.634,0.256,0.663,376.464,348.877,-302.124,
00:00:10:800,0.709,0.131,0.556,484.924,482.971,-349.915,
00:00:10:816,1.011,-0.112,0.399,510.07,562.255,-425.599,
00:00:10:833,2.552,-0.223,1.398,-89.844,-87.281,-260.071,
00:00:10:850,1.091,0.203,0.428,286.926,177.978,-190.552,
00:00:10:866,1.031,0.367,0.543,68.664,59.936,49.011,
00:00:10:883,1.422,0.04,0.518,20.752,-67.872,-17.395,
00:00:10:900,1.235,0.359,0.563,65.856,-179.261,179.016,
00:00:10:916,1.254,0.078,0.6,-20.63,-301.819,277.526,
00:00:10:933,1.128,0.237,0.763,-77.759,-377.503,355.529,
00:00:10:950,1.066,0.203,0.668,-17.823,-435.73,394.897,
00:00:10:966,1.044,0.194,0.556,-27.71,-448.792,389.343,
00:00:10:983,1.004,0.135,0.436,-88.99,-444.336,395.63,
00:00:11:0,0.892,0.217,0.421,-181.885,-384.888,371.948,
00:00:11:16,0.796,0.198,0.316,-186.158,-306.458,312.194,
00:00:11:33,0.646,0.176,0.254,-229.493,-195.313,233.642,
00:00:11:50,0.532,0.128,0.247,-313.477,-85.083,134.582,
00:00:11:66,0.411,0.235,0.253,-379.395,18.249,25.085,
00:00:11:83,0.333,0.286,0.287,-403.809,104.98,-103.394,
00:00:11:100,0.237,0.266,0.347,-441.285,162.353,-218.018,
00:00:11:116,0.16,0.325,0.449,-508.362,202.453,-325.44,
00:00:11:133,0.109,0.415,0.562,-525.269,228.759,-426.27,
00:00:11:150,0.043,0.448,0.652,-534.607,239.685,-505.86,
00:00:11:166,-0.016,0.497,0.8,-474.549,237.304,-555.542,
00:00:11:183,-0.014,0.613,0.901,-336.853,233.093,-594.666,
00:00:11:200,0.015,0.653,0.87,-191.59,206.298,-617.676,
00:00:11:216,0.058,0.581,0.906,-189.27,159.729,-623.78,
00:00:11:233,0.141,0.601,0.887,-250.184,103.21,-616.7,
00:00:11:250,0.194,0.562,0.925,-269.837,36.071,-591.126,
00:00:11:266,0.256,0.502,0.914,-288.208,-4.517,-562.012,
00:00:11:283,0.3,0.446,0.892,-277.405,-17.823,-530.823,
00:00:11:300,0.384,0.182,0.738,-322.266,-19.349,-501.831,
00:00:11:316,0.748,0.365,1.465,-467.652,-236.634,-264.832,
00:00:11:333,0.438,0.644,1.547,-282.349,-334.717,-250.123,
00:00:11:350,0.325,0.524,1.036,-338.623,-296.57,-214.173,
00:00:11:366,0.396,0.276,0.791,-236.878,-221.131,-149.292,
00:00:11:383,0.404,0.28,0.915,-256.897,-216.065,-134.339,
00:00:11:400,0.392,0.273,0.997,-119.263,-229.31,-96.436,
00:00:11:416,0.47,0.464,0.914,-144.776,-214.966,-72.022,
00:00:11:433,0.497,0.493,0.979,-145.63,-219.544,-44.678,
00:00:11:450,0.47,0.437,0.886,-140.198,-221.68,-25.208,
00:00:11:466,0.457,0.392,0.823,-142.945,-207.886,-24.476,
00:00:11:483,0.348,0.463,0.826,-38.086,-196.717,-24.048,
00:00:11:500,0.431,0.414,0.751,-63.904,-169.678,-13.611,
00:00:11:516,0.458,0.358,0.793,-59.266,-128.907,-9.461,
00:00:11:533,0.503,0.319,0.754,-4.334,-111.695,16.052,
00:00:11:550,0.5,0.344,0.684,15.014,-88.562,36.01,
00:00:11:566,0.498,0.275,0.685,39.184,-64.087,50.598,
00:00:11:583,0.542,0.363,0.71,48.095,-36.927,52.429,
00:00:11:600,0.618,0.426,0.713,47.485,-20.813,59.692,
00:00:11:616,0.567,0.46,0.661,52.978,-10.56,57.617,
00:00:11:633,0.529,0.399,0.632,38.879,-6.775,35.644,
00:00:11:650,0.527,0.367,0.642,27.648,13.732,25.634,
00:00:11:666,0.527,0.403,0.649,-6.165,3.234,13.305,
00:00:11:683,0.535,0.412,0.705,2.014,17.273,10.864,
00:00:11:700,0.54,0.442,0.741,9.765,26.123,8.239,
00:00:11:716,0.52,0.439,0.725,3.112,32.836,2.99,
00:00:11:733,0.543,0.445,0.743,5.004,34.851,-3.54,
00:00:11:750,0.542,0.446,0.742,3.295,37.292,-8.973,
00:00:11:766,0.534,0.431,0.753,13.122,42.297,-11.658,
00:00:11:783,0.495,0.393,0.75,22.094,37.109,-21.546,
00:00:11:800,0.455,0.425,0.771,18.493,34.79,-40.284,
00:00:11:816,0.453,0.467,0.803,21.24,26.306,-47.608,
00:00:11:833,0.415,0.421,0.802,43.029,24.597,-40.65,
00:00:11:850,0.393,0.413,0.805,61.889,36.438,-33.265,
00:00:11:866,0.403,0.453,0.882,94.726,49.377,-26.856,
00:00:11:883,0.413,0.457,0.922,111.877,57.861,-27.71,
00:00:11:900,0.398,0.498,0.961,125.549,69.58,-34.852,
00:00:11:916,0.408,0.472,1.005,156.311,64.27,-37.781,
00:00:11:933,0.372,0.479,1.016,200.195,70.495,-48.645,
00:00:11:950,0.423,0.511,1.012,228.942,86.853,-78.797,
00:00:11:966,0.463,0.501,0.993,272.277,110.534,-117.432,
00:00:11:983,0.534,0.429,0.854,267.822,147.338,-172.547,
00:00:12:0,0.609,0.321,0.69,272.827,202.575,-218.506,
00:00:12:16,0.807,0.219,0.572,234.314,247.253,-246.827,
00:00:12:33,0.987,0.175,0.607,170.959,225.586,-226.014,
00:00:12:50,0.857,0.155,0.527,91.674,142.395,-168.824,
00:00:12:66,1.019,0.451,0.687,-54.81,-10.987,-37.842,
00:00:12:83,1.004,0.331,0.69,49.987,-120.118,57.373,
00:00:12:100,0.908,0.33,0.56,127.014,-189.515,168.579,
00:00:12:116,0.898,0.29,0.476,127.441,-223.389,247.924,
00:00:12:133,0.847,0.25,0.364,167.48,-231.08,299.438,
00:00:12:150,0.846,0.217,0.246,168.151,-213.99,335.815,
00:00:12:166,0.777,0.217,0.197,196.96,-180.298,369.079,
00:00:12:183,0.73,0.17,0.154,173.339,-127.137,370.666,
00:00:12:200,0.698,0.149,0.138,119.506,-44.983,355.041,
00:00:12:216,0.631,0.18,0.131,11.413,43.64,333.618,
00:00:12:233,0.545,0.199,0.183,-23.926,133.972,313.11,
00:00:12:250,0.468,0.234,0.283,5.004,220.276,280.456,
00:00:12:266,0.404,0.282,0.393,-77.149,279.968,218.994,
00:00:12:283,0.333,0.328,0.456,-242.249,322.754,154.602,
00:00:12:300,0.251,0.304,0.612,-331.971,356.445,84.777,
00:00:12:316,0.251,0.379,0.836,-379.151,395.63,-23.926,
00:00:12:333,0.2,0.447,0.828,-347.84,414.306,-99.61,
00:00:12:350,0.192,0.507,0.777,-194.642,440.49,-123.414,
00:00:12:366,0.296,0.576,1.064,-105.408,359.863,-117.859,
00:00:12:383,0.323,0.607,1.049,-104.371,283.386,-136.048,
00:00:12:400,0.346,0.568,1.011,-52.308,199.951,-145.02,
00:00:12:416,0.353,0.464,0.988,-28.26,117.675,-150.818,
00:00:12:433,0.477,0.28,0.936,-59.082,15.625,-157.654,
00:00:12:450,0.566,0.411,1.534,-156.311,-171.448,-70.069,
00:00:12:466,0.645,0.28,1.18,-211.853,-263.855,-72.876,
00:00:12:483,0.424,0.677,1.061,59.082,-276.062,-5.005,
00:00:12:500,0.309,0.398,0.825,-10.56,-245.606,-0.55,
00:00:12:516,0.225,0.258,0.742,16.906,-188.294,-19.288,
00:00:12:533,0.313,0.321,0.756,-30.152,-119.141,-36.377,
00:00:12:550,0.431,0.427,0.913,39.428,-97.29,-1.77,
00:00:12:566,0.526,0.413,0.818,70.983,-113.953,41.565,
00:00:12:583,0.483,0.538,0.949,107.727,-166.077,88.989,
00:00:12:600,0.397,0.464,0.788,76.843,-183.899,72.815,
00:00:12:616,0.411,0.46,0.746,20.874,-174.012,51.757,
00:00:12:633,0.465,0.434,0.78,2.319,-166.932,32.592,
00:00:12:650,0.388,0.419,0.712,-13.428,-112.61,-8.789,
00:00:12:666,0.412,0.399,0.625,-90.332,-50.599,-52.796,
00:00:12:683,0.488,0.424,0.59,-165.223,-19.043,-82.093,
00:00:12:700,0.51,0.349,0.692,-114.563,5.127,-95.643,
00:00:12:716,0.582,0.463,0.69,-115.113,20.08,-113.404,
00:00:12:733,0.489,0.464,0.747,-18.433,75.866,-156.556,
00:00:12:750,0.442,0.482,0.714,-28.748,56.518,-159.729,
00:00:12:766,0.412,0.419,0.654,-26.795,43.579,-157.105,
00:00:12:783,0.439,0.455,0.718,-34.363,24.658,-161.56,
00:00:12:800,0.544,0.463,0.679,-83.252,6.103,-158.326,
00:00:12:816,0.601,0.411,0.738,-85.816,-2.503,-125.061,
00:00:12:833,0.65,0.359,0.711,-54.688,2.502,-121.521,
00:00:12:850,0.66,0.324,0.66,-13.55,28.808,-98.755,
00:00:12:866,0.628,0.309,0.671,56.396,52.49,-76.6,
00:00:12:883,0.62,0.37,0.687,85.144,71.533,-55.909,
00:00:12:900,0.456,0.497,0.83,158.081,76.355,-42.969,
00:00:12:916,0.377,0.496,0.898,177.185,52.978,-34.852,
00:00:12:933,0.351,0.505,0.955,193.725,41.015,-42.786,
00:00:12:950,0.384,0.575,1.001,206.604,16.784,-61.158,
00:00:12:966,0.454,0.575,0.976,217.895,7.69,-77.21,
00:00:12:983,0.531,0.544,0.938,228.881,23.925,-122.742,
00:00:13:0,0.792,0.285,0.602,257.69,131.652,-227.906,
00:00:13:16,0.932,0.179,0.484,240.478,175.598,-258.728,
00:00:13:33,1.12,0.094,0.378,112.915,137.207,-244.446,
00:00:13:50,0.987,0.347,0.828,1.525,-11.719,-132.569,
00:00:13:66,1.015,0.323,0.552,-47.12,-380.31,354.736,
00:00:13:83,1,0.213,0.447,-25.147,-404.908,445.617,
00:00:13:100,0.962,0.331,0.405,80.139,-402.955,520.202,
00:00:13:116,0.824,0.305,0.231,95.459,-285.096,546.203,
00:00:13:133,0.709,0.315,0.208,39.062,-213.074,506.164,
00:00:13:150,0.557,0.303,0.291,-1.404,-114.808,439.27,
00:00:13:166,0.418,0.229,0.357,-13.367,-0.916,347.717,
00:00:13:183,0.281,0.224,0.439,-51.514,115.051,244.506,
00:00:13:200,0.186,0.208,0.503,-93.323,222.351,143.737,
00:00:13:216,0.064,0.319,0.802,-31.8,411.56,-89.844,
00:00:13:233,0.073,0.317,0.9,-6.958,418.762,-147.278,
00:00:13:250,0.084,0.334,0.938,-15.015,390.38,-183.106,
00:00:13:266,0.093,0.356,0.974,22.827,347.168,-198.853,
00:00:13:283,0.121,0.472,0.973,61.889,318.725,-203.125,
00:00:13:300,0.227,0.423,0.827,128.296,344.299,-199.646,
00:00:13:316,0.272,0.365,0.745,93.627,359.13,-221.924,
00:00:13:333,1.078,-0.249,1.758,-194.947,-11.536,-132.996,
00:00:13:350,0.917,0.3,1.517,84.472,-108.216,-34.852,
00:00:13:366,0.383,0.861,0.994,-164.917,-130.738,-54.322,rollRH
00:00:13:383,0.332,0.488,0.753,-103.028,-110.474,27.282,
00:00:13:400,0.38,0.085,0.606,-73.914,-44.617,17.578,
00:00:13:416,0.547,0.313,0.7,-132.264,-11.048,13.977,
00:00:13:433,0.619,0.519,0.77,-51.27,22.705,54.565,
00:00:13:450,0.61,0.553,0.831,7.141,45.227,89.233,
00:00:13:466,0.561,0.508,0.823,28.686,39.001,95.275,
00:00:13:483,0.557,0.379,0.69,43.518,17.273,77.148,
00:00:13:500,0.602,0.43,0.652,60.913,45.837,50.109,
00:00:13:516,0.607,0.387,0.688,33.02,60.485,12.39,
00:00:13:533,0.59,0.462,0.67,58.227,54.748,3.845,
00:00:13:550,0.546,0.446,0.594,27.71,50.109,-1.038,
00:00:13:566,0.544,0.447,0.628,-23.56,31.127,-2.259,
00:00:13:583,0.54,0.422,0.689,-32.959,9.216,-2.259,
00:00:13:600,0.569,0.458,0.76,-24.109,-6.958,0.366,
00:00:13:616,0.569,0.455,0.764,-7.752,-11.109,1.709,
00:00:13:633,0.547,0.461,0.772,21.423,-14.161,10.559,
00:00:13:650,0.512,0.424,0.743,46.569,-16.663,26.306,
00:00:13:666,0.485,0.391,0.719,72.143,-13.123,32.226,
00:00:13:683,0.523,0.42,0.71,85.754,-2.503,27.404,
00:00:13:700,0.563,0.461,0.682,95.886,-4.944,29.174,
00:00:13:716,0.517,0.435,0.649,58.532,14.587,22.277,
00:00:13:733,0.498,0.429,0.698,55.419,7.08,15.197,
00:00:13:750,0.508,0.395,0.722,54.565,6.836,20.019,
00:00:13:766,0.509,0.407,0.747,60.241,5.249,19.531,
00:00:13:783,0.502,0.404,0.7,67.504,5.432,27.221,
00:00:13:800,0.492,0.381,0.687,63.537,13.61,27.71,
00:00:13:816,0.502,0.39,0.73,73.364,27.282,29.419,
00:00:13:833,0.513,0.411,0.759,94.055,29.846,37.292,
00:00:13:850,0.509,0.481,0.749,78.918,31.738,45.593,
00:00:13:866,0.502,0.431,0.713,80.81,35.583,42.907,
00:00:13:883,0.492,0.4,0.716,76.477,38.086,31.066,
00:00:13:900,0.498,0.417,0.745,100.097,44.616,26.916,
00:00:13:916,0.499,0.412,0.755,101.074,33.691,27.099,
00:00:13:933,0.502,0.397,0.709,97.29,27.343,26.306,
00:00:13:950,0.471,0.391,0.723,67.077,17.883,19.714,
00:00:13:966,0.511,0.457,0.731,91.613,10.376,26.611,
00:00:13:983,0.48,0.441,0.737,74.462,2.868,25.573,
00:00:14:0,0.471,0.383,0.741,64.575,1.77,27.465,
00:00:14:16,0.491,0.442,0.737,81.543,-3.846,31.311,
00:00:14:33,0.486,0.432,0.724,53.161,-8.24,23.803,
00:00:14:50,0.487,0.419,0.78,51.818,-6.958,18.127,
00:00:14:66,0.463,0.412,0.76,70.678,-12.207,19.714,
00:00:14:83,0.443,0.41,0.743,67.871,-10.132,15.869,
00:00:14:100,0.443,0.412,0.761,69.702,-12.818,10.742,
00:00:14:116,0.44,0.449,0.801,68.847,-12.269,9.338,
00:00:14:133,0.43,0.465,0.831,71.167,-17.395,6.897,
00:00:14:150,0.41,0.454,0.796,71.838,-19.227,0,
00:00:14:166,0.461,0.446,0.731,64.086,-20.935,-23.621,
00:00:14:183,0.507,0.405,0.655,35.217,-17.212,-47.913,
00:00:14:200,0.532,0.331,0.656,-15.198,0.427,-68.665,
00:00:14:216,0.566,0.293,0.6,-39.368,23.254,-86.365,
00:00:14:233,0.632,0.321,0.61,-43.274,51.574,-97.474,
00:00:14:250,0.709,0.285,0.535,-53.223,65.673,-100.831,
00:00:14:266,0.762,0.291,0.511,-56.946,82.336,-88.623,
00:00:14:283,0.792,0.255,0.529,-47.364,94.299,-75.623,
00:00:14:300,0.821,0.304,0.565,-47.486,100.036,-61.219,
00:00:14:316,0.82,0.377,0.634,-36.438,97.778,-40.467,
00:00:14:333,0.747,0.461,0.713,-35.218,79.834,-19.41,
00:00:14:350,0.662,0.434,0.73,-26.429,63.781,-2.991,
00:00:14:366,0.567,0.39,0.71,-9.644,58.288,-9.339,
00:00:14:383,0.53,0.406,0.733,12.451,67.749,-30.152,
00:00:14:400,0.505,0.382,0.72,27.16,86.181,-52.185,
00:00:14:416,0.521,0.442,0.736,15.808,100.647,-77.698,
00:00:14:433,0.528,0.44,0.748,20.202,105.163,-87.647,
00:00:14:450,0.547,0.407,0.735,11.108,109.314,-105.042,
00:00:14:466,0.571,0.376,0.692,-0.611,115.417,-120.179,
00:00:14:483,0.579,0.355,0.672,10.315,123.596,-121.216,
00:00:14:500,0.585,0.344,0.698,36.071,130.493,-125.611,
00:00:14:516,0.62,0.377,0.684,41.565,131.652,-124.634,
00:00:14:533,0.621,0.364,0.64,35.4,136.84,-128.296,
00:00:14:550,0.622,0.337,0.632,38.818,143.921,-138.184,
00:00:14:566,0.638,0.348,0.655,32.409,146.911,-144.227,
00:00:14:583,0.635,0.354,0.657,26.794,143.676,-146.668,
00:00:14:600,0.636,0.356,0.622,33.02,137.024,-143.616,
00:00:14:616,0.647,0.315,0.612,40.1,149.902,-152.771,
00:00:14:633,0.676,0.336,0.638,36.682,154.419,-160.218,
00:00:14:650,0.663,0.33,0.621,56.64,147.583,-159.607,
00:00:14:666,0.664,0.35,0.618,41.198,150.085,-165.467,
00:00:14:683,0.663,0.321,0.604,47.18,153.503,-170.777,
00:00:14:700,0.662,0.312,0.618,41.076,156.799,-178.284,
00:00:14:716,0.637,0.322,0.636,38.635,148.62,-182.129,
00:00:14:733,0.645,0.338,0.639,14.709,137.085,-193.848,
00:00:14:750,0.632,0.363,0.658,-26.856,112.365,-199.28,
00:00:14:766,0.603,0.354,0.665,-52.613,86.303,-212.891,
00:00:14:783,0.597,0.318,0.672,-93.079,68.725,-228.15,
00:00:14:800,0.627,0.33,0.644,-124.024,46.569,-241.639,
00:00:14:816,0.674,0.327,0.614,-148.072,28.808,-252.32,
00:00:14:833,0.705,0.306,0.532,-120.789,25.39,-255.005,
00:00:14:850,0.763,0.284,0.571,-120.179,43.396,-251.343,
00:00:14:866,0.775,0.225,0.573,-73.121,73.73,-241.333,
00:00:14:883,0.795,0.218,0.568,-34.607,106.14,-230.286,
00:00:14:900,0.807,0.233,0.516,22.033,142.456,-213.807,
00:00:14:916,0.808,0.255,0.469,74.89,202.392,-209.9,
00:00:14:933,0.764,0.233,0.341,121.276,266.723,-227.173,
00:00:14:950,0.714,0.248,0.174,123.901,371.032,-278.382,
00:00:14:966,1.264,0.367,1.14,70.495,-0.794,-174.988,
00:00:14:983,0.835,0.282,0.786,-447.205,14.465,-219.605,
00:00:15:0,0.793,0.206,0.709,-189.209,-14.832,-75.562,
00:00:15:16,0.878,-0.027,0.55,-306.092,-4.273,-72.693,
00:00:15:33,0.921,0.122,0.606,-239.197,-97.779,30.517,
00:00:15:50,0.868,0.124,0.628,-160.889,-122.62,116.15,
00:00:15:66,0.802,0.598,0.909,-169.739,-249.268,227.356,
00:00:15:83,0.754,0.403,0.929,-181.336,-302.369,248.901,
00:00:15:100,0.6,0.425,0.977,-109.986,-321.778,261.474,
00:00:15:116,0.487,0.448,0.947,-153.077,-361.268,256.408,
00:00:15:133,0.352,0.421,0.918,-133.057,-368.897,236.206,
00:00:15:150,0.247,0.432,0.947,-83.558,-364.563,212.707,
00:00:15:166,0.159,0.409,0.922,-23.682,-342.957,195.129,
00:00:15:183,0.096,0.408,0.884,24.108,-300.171,177.551,
00:00:15:200,0.069,0.372,0.875,46.508,-255.372,158.691,
00:00:15:216,0.078,0.37,0.892,67.321,-222.596,150.634,
00:00:15:233,0.104,0.431,0.889,111.206,-209.412,150.512,
00:00:15:250,0.141,0.435,0.878,142.395,-199.341,148.132,
00:00:15:266,0.163,0.435,0.846,152.71,-186.219,144.104,
00:00:15:283,0.183,0.405,0.788,174.194,-164.978,149.109,
00:00:15:300,0.21,0.364,0.748,225.525,-140.381,149.17,
00:00:15:316,0.22,0.326,0.697,270.141,-110.962,151.062,
00:00:15:333,0.237,0.32,0.659,322.509,-67.688,145.019,
00:00:15:350,0.27,0.296,0.62,347.839,-22.461,131.836,
00:00:15:366,0.299,0.312,0.61,375.183,33.569,115.539,
00:00:15:383,0.339,0.286,0.553,386.718,87.768,82.336,
00:00:15:400,0.345,0.285,0.545,402.282,159.423,42.053,
00:00:15:416,0.405,0.264,0.491,434.082,232.91,-0.672,
00:00:15:433,0.455,0.289,0.442,440.734,326.538,-48.462,
00:00:15:450,0.542,0.291,0.411,473.51,430.175,-96.192,
00:00:15:466,0.648,0.292,0.399,480.285,520.752,-143.006,
00:00:15:483,0.661,0.228,0.354,544.616,643.432,-176.331,
00:00:15:500,0.953,-0.038,0.473,557.434,675.048,-181.275,
00:00:15:516,1.396,0.084,1.764,-394.593,-41.26,46.02,
00:00:15:533,1.146,1.026,1.38,-50.293,-250.245,157.653,
00:00:15:550,0.643,1.117,1,-25.452,-189.698,239.746,
00:00:15:566,0.423,0.358,1.105,-42.542,-225.22,289.001,
00:00:15:583,0.431,0.161,0.891,140.319,-189.759,331.909,
00:00:15:600,0.479,0.235,0.756,255.615,-81.665,311.95,
00:00:15:616,0.586,0.113,0.575,209.961,35.217,229.614,
00:00:15:633,0.603,0.354,0.725,174.072,76.171,200.805,
00:00:15:650,0.557,0.352,0.825,209.961,70.007,211.792,
00:00:15:666,0.549,0.267,0.722,213.562,46.875,212.28,
00:00:15:683,0.598,0.39,0.741,150.817,27.771,180.786,
00:00:15:700,0.692,0.267,0.684,141.906,18.859,168.09,
00:00:15:716,0.729,0.243,0.639,188.72,50.781,164.001,
00:00:15:733,0.761,0.344,0.575,236.511,70.373,166.259,
00:00:15:750,0.793,0.278,0.48,205.81,67.443,165.954,
00:00:15:766,0.777,0.234,0.5,138.366,63.049,142.883,
00:00:15:783,0.764,0.198,0.508,94.848,63.842,120.666,
00:00:15:800,0.763,0.123,0.584,68.542,48.217,103.332,
00:00:15:816,0.807,0.129,0.57,66.955,48.095,90.087,
00:00:15:833,0.828,0.166,0.586,47.912,41.565,105.713,
00:00:15:850,0.844,0.18,0.592,49.926,54.687,133.178,
00:00:15:866,0.913,0.175,0.594,41.931,37.475,157.837,
00:00:15:883,0.934,0.195,0.524,43.457,20.752,166.931,
00:00:15:900,0.986,0.19,0.521,-16.419,10.986,159.301,
00:00:15:916,0.975,0.299,0.52,-59.266,4.882,147.827,
00:00:15:933,0.884,0.31,0.545,-95.704,-3.357,116.333,
00:00:15:950,0.762,0.291,0.603,-144.165,-13.001,65.063,
00:00:15:966,0.67,0.354,0.686,-189.637,-22.034,4.577,
00:00:15:983,0.605,0.367,0.735,-207.398,-17.579,-59.51,
00:00:16:0,0.572,0.33,0.745,-190.491,-5.921,-83.435,
00:00:16:16,0.592,0.334,0.724,-168.03,7.507,-117.615,
00:00:16:33,0.617,0.327,0.721,-143.189,20.996,-131.287,
00:00:16:50,0.608,0.315,0.769,-112.671,32.409,-130.799,
00:00:16:66,0.63,0.272,0.756,-80.994,41.381,-126.404,
00:00:16:83,0.642,0.265,0.73,-47.12,57.556,-118.592,
00:00:16:100,0.658,0.268,0.72,-32.41,59.57,-111.451,
00:00:16:116,0.678,0.252,0.699,-17.64,57.678,-108.155,
00:00:16:133,0.703,0.29,0.667,-6.836,61.889,-106.507,
00:00:16:150,0.732,0.306,0.658,-19.898,59.265,-104.371,
00:00:16:166,0.727,0.247,0.596,-15.137,65.002,-103.76,
00:00:16:183,0.738,0.206,0.575,6.408,89.111,-108.033,
00:00:16:200,0.757,0.11,0.482,44.921,143.615,-132.508,
00:00:16:216,0.768,0.179,0.539,57.678,175.537,-155.152,
00:00:16:233,0.749,0.24,0.584,44.555,184.143,-173.89,
00:00:16:250,0.76,0.267,0.568,31.555,179.443,-176.148,
00:00:16:266,0.709,0.282,0.599,-6.287,169.189,-187.806,
00:00:16:283,0.64,0.322,0.67,-39.551,149.78,-193.787,
00:00:16:300,0.618,0.283,0.586,-79.041,163.94,-218.262,
00:00:16:316,0.537,0.369,0.703,-130.372,156.616,-238.343,
00:00:16:333,0.503,0.458,0.897,-153.138,103.698,-214.905,
00:00:16:350,0.48,0.414,0.929,-107.789,43.396,-173.035,
00:00:16:366,0.39,0.468,0.99,-64.393,16.54,-147.522,
00:00:16:383,0.369,0.384,0.942,0.061,13.671,-137.452,
00:00:16:400,0.299,0.429,0.997,23.132,0.488,-134.461,
00:00:16:416,0.268,0.39,0.964,64.025,-16.114,-128.724,
00:00:16:433,0.25,0.36,0.933,59.997,-33.57,-127.198,
00:00:16:450,0.225,0.327,0.921,41.565,-56.946,-117.066,
00:00:16:466,0.238,0.286,0.927,34.057,-68.848,-104.126,
00:00:16:483,0.29,0.23,0.854,56.091,-65.003,-87.159,
00:00:16:500,0.367,0.241,0.858,95.52,-71.351,-41.993,
00:00:16:516,0.401,0.217,0.842,114.318,-75.135,1.159,
00:00:16:533,0.401,0.253,0.831,123.596,-71.045,46.142,
00:00:16:550,0.433,0.24,0.818,142.456,-71.656,88.44,
00:00:16:566,0.418,0.326,0.843,152.099,-68.604,134.582,
00:00:16:583,0.392,0.365,0.805,178.894,-79.285,182.922,
00:00:16:600,0.369,0.322,0.811,152.893,-86.243,215.698,
00:00:16:616,0.4,0.248,0.804,99.548,-123.169,234.13,
00:00:16:633,0.423,0.349,0.887,78.918,-156.556,257.873,
00:00:16:650,0.439,0.341,0.873,89.782,-164.246,260.376,
00:00:16:667,0.517,0.193,0.76,97.656,-139.283,251.953,
00:00:16:683,0.584,0.373,0.753,119.934,-89.356,250.549,
00:00:16:700,0.738,0.412,0.708,144.348,-93.689,244.995,
00:00:16:717,0.786,0.442,0.655,111.633,-60.852,230.407,
00:00:16:733,0.765,0.339,0.65,164.978,-18.433,212.341,
00:00:16:750,0.746,0.299,0.536,155.822,15.258,166.809,
00:00:16:767,0.736,0.325,0.482,108.459,36.804,116.577,
00:00:16:783,0.795,0.046,0.378,48.278,26.489,76.232,
00:00:16:800,0.873,0.142,0.5,-16.48,6.347,29.541,
00:00:16:817,1,0.092,0.495,-23.804,-6.226,20.568,
00:00:16:833,1.116,0.077,0.554,-78.248,-46.814,43.335,
00:00:16:850,1.181,-0.037,0.442,-59.205,-7.63,46.447,
00:00:16:867,1.173,0.073,0.511,-24.781,36.804,51.086,
00:00:16:883,1.067,0.192,0.564,-15.381,75.927,61.95,
00:00:16:900,0.913,0.342,0.669,-4.212,76.294,75.622,
00:00:16:917,0.753,0.298,0.695,-15.137,63.659,57.19,
00:00:16:933,0.674,0.281,0.663,-49.561,48.156,14.038,
00:00:16:950,0.652,0.264,0.614,-84.595,43.518,-34.79,
00:00:16:967,0.648,0.308,0.62,-100.098,40.222,-58.594,
00:00:16:983,0.628,0.37,0.712,-133.362,38.024,-73.487,
00:00:17:0,0.606,0.348,0.72,-135.132,30.395,-74.219,
00:00:17:17,0.605,0.311,0.71,-151.673,32.898,-77.332,
00:00:17:33,0.609,0.263,0.709,-125.184,31.982,-89.051,
00:00:17:50,0.616,0.27,0.717,-98.084,37.17,-99.61,
00:00:17:67,0.636,0.329,0.693,-89.234,35.583,-109.559,
00:00:17:83,0.665,0.329,0.658,-102.051,33.142,-124.024,
00:00:17:100,0.664,0.317,0.627,-123.169,28.564,-136.536,
00:00:17:117,0.648,0.327,0.652,-136.353,31.555,-145.997,
00:00:17:133,0.659,0.297,0.655,-125.061,37.719,-155.518,
00:00:17:150,0.681,0.292,0.61,-106.141,55.358,-167.237,
00:00:17:167,0.715,0.262,0.572,-97.352,74.768,-181.336,
00:00:17:183,0.751,0.224,0.532,-99.366,113.769,-211.548,
00:00:17:200,0.75,0.218,0.508,-97.84,140.564,-238.465,
00:00:17:217,0.746,0.231,0.542,-106.873,169.372,-266.053,
00:00:17:233,0.797,0.26,0.504,-103.699,179.504,-287.354,
00:00:17:250,0.753,0.36,0.603,-136.048,181.335,-290.345,
00:00:17:267,0.719,0.353,0.645,-155.518,175.964,-282.166,
00:00:17:283,0.608,0.328,0.596,-147.156,186.035,-309.815,
00:00:17:300,0.547,0.502,0.88,-186.219,155.517,-328.98,
00:00:17:317,0.576,0.515,0.891,-161.255,79.65,-297.364,
00:00:17:333,0.6,0.506,0.899,-133.973,34.484,-278.931,
00:00:17:350,0.641,0.442,0.788,-106.507,4.577,-273.743,
00:00:17:367,0.714,0.374,0.729,-57.801,8.483,-277.466,
00:00:17:383,0.793,0.491,0.859,-67.688,-4.395,-261.475,rollRH
00:00:17:400,0.832,0.359,0.696,-9.461,-10.193,-230.835,
00:00:17:417,0.848,0.326,0.592,-31.495,-7.63,-251.221,
00:00:17:433,0.873,0.042,0.173,-250.184,18.493,-372.315,
00:00:17:450,0.88,0.182,0.109,-386.719,6.958,-348.084,
00:00:17:467,0.905,0.483,0.166,-461.548,-68.726,-201.355,
00:00:17:483,0.831,0.398,0.572,-470.215,-193.299,-131.47,
00:00:17:500,0.71,0.502,0.57,-566.04,-273.56,-46.509,
00:00:17:517,0.641,0.492,0.566,-645.569,-354.493,-31.067,
00:00:17:533,0.514,0.518,0.602,-741.517,-400.635,-3.357,
00:00:17:550,0.402,0.544,0.65,-748.475,-423.645,4.089,
00:00:17:567,0.295,0.533,0.703,-723.023,-423.035,-6.165,
00:00:17:583,0.196,0.502,0.707,-720.093,-394.165,-35.401,
00:00:17:600,0.136,0.504,0.714,-701.111,-353.821,-66.285,
00:00:17:617,0.135,0.477,0.666,-661.927,-324.646,-97.535,
00:00:17:633,0.105,0.502,0.705,-621.644,-301.575,-108.399,
00:00:17:650,0.128,0.517,0.721,-602.539,-283.875,-128.602,
00:00:17:667,0.15,0.492,0.757,-610.23,-267.518,-150.391,
00:00:17:683,0.217,0.48,0.707,-575.074,-236.512,-161.744,
00:00:17:700,0.208,0.371,0.765,-466.37,-212.281,-159.546,
00:00:17:717,0.24,0.323,0.74,-420.166,-189.331,-154.908,
00:00:17:733,0.268,0.248,0.602,-290.223,-171.998,-129.517,
00:00:17:750,0.348,0.255,0.664,-151.246,-178.833,-98.755,
00:00:17:767,0.437,0.323,0.805,-5.555,-198.243,-101.624,
00:00:17:783,0.497,0.308,0.911,2.563,-207.642,-139.466,
00:00:17:800,0.54,0.39,0.905,-70.984,-203.064,-189.759,
00:00:17:817,0.581,0.361,0.841,-161.011,-172.303,-231.69,
00:00:17:833,0.605,0.368,0.824,-204.346,-145.264,-267.823,
00:00:17:850,0.612,0.376,0.784,-172.73,-95.581,-287.964,
00:00:17:867,0.622,0.349,0.677,-144.043,-46.204,-305.359,
00:00:17:883,0.829,0.177,0.516,-194.886,-32.349,-279.969,
00:00:17:900,0.851,0.473,1.077,121.887,-28.443,-136.719,
00:00:17:917,0.873,0.813,0.994,-50.66,-145.508,-47.364,
00:00:17:933,0.596,0.686,0.88,-55.909,-168.457,24.047,
00:00:17:950,0.417,0.477,0.682,-42.908,-139.527,37.78,
00:00:17:967,0.39,0.345,0.652,18.371,-86.548,2.563,
00:00:17:983,0.451,0.404,0.636,10.62,-50.904,-48.34,
00:00:18:0,0.49,0.533,0.692,-21.973,-67.017,-39.917,
00:00:18:17,0.469,0.454,0.687,-35.523,-70.191,-17.701,
00:00:18:33,0.494,0.438,0.633,-77.637,-55.97,-10.132,
00:00:18:50,0.588,0.438,0.604,-74.891,-39.368,-1.526,
00:00:18:67,0.695,0.444,0.634,-28.687,-35.462,8.544,
00:00:18:83,0.729,0.427,0.544,21.789,-29.053,18.737,
00:00:18:100,0.73,0.429,0.458,15.991,4.394,7.019,
00:00:18:117,0.688,0.412,0.427,-24.781,32.959,-1.831,
00:00:18:133,0.689,0.321,0.519,-67.444,19.592,-12.269,
00:00:18:150,0.726,0.499,0.514,-52.796,20.08,-18.86,
00:00:18:167,0.693,0.482,0.561,-45.777,9.826,-12.391,
00:00:18:183,0.64,0.504,0.574,-39.002,5.065,-4.822,
00:00:18:200,0.558,0.479,0.665,-18.189,12.634,-0.306,
00:00:18:217,0.561,0.474,0.718,10.315,17.089,12.634,
00:00:18:233,0.456,0.558,0.754,56.091,44.006,58.044,
00:00:18:250,0.587,0.527,0.671,23.132,15.441,48.156,
00:00:18:267,0.553,0.409,0.649,14.648,13.488,45.776,
00:00:18:283,0.58,0.505,0.587,93.811,5.676,56.335,
00:00:18:300,0.584,0.541,0.563,66.345,1.648,39.489,
00:00:18:317,0.596,0.428,0.55,58.227,-5.982,32.409,
00:00:18:333,0.597,0.511,0.564,88.562,-6.653,37.841,
00:00:18:350,0.598,0.505,0.566,66.467,-0.489,40.771,
00:00:18:367,0.588,0.447,0.618,69.152,2.38,43.823,
00:00:18:383,0.569,0.518,0.628,85.449,-4.761,44.006,
00:00:18:400,0.555,0.537,0.649,81.787,-15.748,35.461,
00:00:18:417,0.513,0.485,0.662,71.533,-22.095,35.217,
00:00:18:433,0.492,0.476,0.702,90.332,-28.87,42.297,
00:00:18:450,0.498,0.497,0.71,111.755,-49.866,53.527,
00:00:18:467,0.494,0.497,0.668,88.256,-73.914,54.992,
00:00:18:483,0.492,0.517,0.689,81.115,-92.957,47.729,
00:00:18:500,0.451,0.544,0.744,70.373,-112.305,33.996,
00:00:18:517,0.416,0.574,0.81,47.546,-123.719,16.296,
00:00:18:533,0.26,0.562,0.984,44.982,-161.499,-27.588,
00:00:18:550,0.168,0.531,1.017,85.144,-152.832,-47.303,
00:00:18:567,0.147,0.562,1.043,116.821,-126.954,-81.604,
00:00:18:583,0.159,0.532,0.97,179.199,-65.857,-129.883,
00:00:18:600,0.254,0.453,0.851,242.065,40.039,-220.704,
00:00:18:617,0.559,0.439,0.728,272.522,138.427,-296.936,
00:00:18:633,0.958,0.38,0.566,187.988,212.158,-390.381,
00:00:18:650,1.108,0.466,0.488,183.593,187.744,-385.865,
00:00:18:667,1.222,0.476,0.5,15.075,71.594,-341.187,
00:00:18:683,1.212,0.28,0.447,-93.018,-67.322,-241.761,
00:00:18:700,1.283,0.474,0.478,-168.274,-235.596,-13.306,
00:00:18:717,1.171,0.376,0.571,-129.273,-340.638,181.457,
00:00:18:733,1.092,0.417,0.531,26.123,-352.234,326.721,
00:00:18:750,1.034,0.373,0.432,141.784,-344.91,421.386,
00:00:18:767,0.977,0.259,0.226,57.128,-380.433,487.548,
00:00:18:783,0.849,0.389,0.296,-17.029,-404.602,532.837,
00:00:18:800,0.768,0.392,0.358,17.712,8641.514,7896.049,
00:00:18:817,0.625,0.309,0.358,-55.115,-341.187,465.759,
00:00:18:833,0.359,0.291,0.242,-153.443,-163.392,320.861,
00:00:18:850,0.264,0.328,0.253,-154.358,-56.092,260.376,
00:00:18:867,0.198,0.352,0.309,-98.267,46.752,195.068,
00:00:18:883,0.15,0.369,0.363,-147.278,136.169,105.835,
00:00:18:900,0.075,0.357,0.474,-224.427,242.92,-64.515,
00:00:18:917,0.08,0.403,0.57,-247.864,246.826,-145.264,
00:00:18:933,0.109,0.442,0.661,-273.011,238.22,-221.802,
00:00:18:950,0.112,0.502,0.752,-301.941,229.553,-273.682,
00:00:18:967,0.127,0.483,0.833,-188.111,215.271,-289.673,
00:00:18:983,0.138,0.499,0.869,-84.595,210.693,-292.725,
00:00:19:0,0.138,0.46,0.877,41.931,226.806,-280.396,
00:00:19:17,0.128,0.497,0.88,106.75,266.418,-277.466,
00:00:19:33,0.125,0.496,0.84,190.673,324.157,-301.453,
00:00:19:50,0.16,0.478,0.759,209.167,383.545,-336.182,
00:00:19:67,0.265,0.301,0.872,148.254,418.457,-400.879,
00:00:19:83,1.979,0.163,1.826,-310.059,-381.104,-19.288,
00:00:19:100,0.563,0.866,1.957,619.384,-330.994,16.601,
00:00:19:117,0.339,0.751,1.215,-294.739,-333.802,-26.123,
00:00:19:133,0.057,0.752,0.957,-1.954,-300.293,61.584,
00:00:19:150,0.092,0.195,0.762,-231.568,-252.442,-36.194,
00:00:19:167,0.151,0.363,0.756,-77.393,-149.292,-95.459,
00:00:19:183,0.274,0.538,0.863,-221.192,-111.817,-138.123,
00:00:19:200,0.299,0.739,1.02,-153.016,-135.56,-101.563,
00:00:19:217,0.264,0.646,0.951,-175.293,-174.622,-98.389,
00:00:19:233,0.616,0.284,0.522,-138.184,-105.713,-137.391,
00:00:19:250,1.081,0.729,0.576,13.671,-113.953,-29.664,
00:00:19:267,0.868,0.366,0.611,51.33,-62.134,29.296,
00:00:19:283,0.747,0.262,0.492,123.047,6.225,38.024,
00:00:19:300,0.729,0.35,0.451,132.873,63.72,10.009,
00:00:19:317,0.594,0.465,0.474,115.905,75.439,-5.677,
00:00:19:333,0.498,0.531,0.549,51.33,68.786,-28.382,
00:00:19:350,0.467,0.608,0.682,-20.203,42.419,-49.317,
00:00:19:367,0.439,0.579,0.683,-42.664,18.188,-61.829,
00:00:19:383,0.38,0.509,0.741,-65.43,7.69,-81.91,
00:00:19:400,0.428,0.474,0.771,-70.801,7.751,-87.586,
00:00:19:417,0.478,0.484,0.763,-31.617,12.817,-71.228,
00:00:19:433,0.539,0.488,0.732,-3.724,29.357,-52.613,
00:00:19:450,0.558,0.458,0.737,52.002,57.861,-28.077,
00:00:19:467,0.534,0.464,0.713,93.75,81.176,-16.785,
00:00:19:483,0.502,0.489,0.706,129.577,86.303,-6.165,
00:00:19:500,0.483,0.493,0.715,115.844,85.327,-6.653,
00:00:19:517,0.455,0.489,0.708,109.741,73.791,-7.569,
00:00:19:533,0.456,0.488,0.648,116.333,61.767,-13.184,
00:00:19:550,0.462,0.492,0.734,45.349,54.809,-30.335,
00:00:19:567,0.436,0.389,0.838,38.635,42.846,-32.105,
00:00:19:583,0.442,0.468,0.826,96.252,38.635,-4.639,
00:00:19:600,0.383,0.536,0.903,136.352,38.33,11.291,
00:00:19:617,0.336,0.539,0.963,170.959,26.489,18.981,
00:00:19:633,0.291,0.588,1.037,213.379,14.648,24.841,
00:00:19:650,0.307,0.508,0.989,245.056,28.564,17.761,
00:00:19:667,0.323,0.528,1.014,284.24,41.076,5.554,
00:00:19:683,0.353,0.47,0.921,321.472,47.607,-12.513,
00:00:19:700,0.39,0.449,0.781,305.847,72.631,-65.857,
00:00:19:717,0.494,0.371,0.613,326.049,102.234,-126.404,
00:00:19:733,0.653,0.277,0.502,274.719,118.042,-168.274,
00:00:19:750,0.865,0.325,0.619,166.626,41.198,-141.236,
00:00:19:767,0.775,0.367,0.637,148.01,6.225,-109.742,
00:00:19:783,0.884,0.384,0.645,91.613,-51.514,-35.157,
00:00:19:800,0.932,0.433,0.738,124.572,-91.126,3.051,
00:00:19:817,0.964,0.388,0.534,177.185,-139.893,69.03,
00:00:19:833,0.972,0.386,0.498,128.662,-197.815,142.7,
00:00:19:850,0.96,0.359,0.442,157.043,-237.549,222.717,
00:00:19:867,0.917,0.334,0.387,169.677,-242.615,290.588,
00:00:19:883,0.886,0.344,0.363,157.531,-227.417,340.271,
00:00:19:900,0.847,0.368,0.347,139.404,-181.031,368.408,
00:00:19:917,0.791,0.348,0.351,171.936,-114.014,376.464,
00:00:19:933,0.704,0.294,0.355,163.025,-39.795,366.516,
00:00:19:950,0.604,0.252,0.308,60.913,8.3,349.975,
00:00:19:967,0.491,0.289,0.41,38.818,70.007,319.885,
00:00:19:983,0.431,0.297,0.529,-15.32,129.333,275.146,
00:00:20:0,0.364,0.336,0.592,-73.487,187.622,232.422,
00:00:20:17,0.203,0.332,0.614,7.995,239.502,203.735,
00:00:20:33,0.164,0.237,0.666,-66.346,291.504,162.658,
00:00:20:50,0.052,0.298,0.803,-27.894,325.683,140.197,
00:00:20:67,0.034,0.29,0.914,-7.813,337.219,92.712,
00:00:20:83,-0.011,0.347,0.999,-28.87,329.712,36.315,
00:00:20:100,-0.007,0.344,1.073,-15.503,311.706,-16.907,
00:00:20:117,0.03,0.337,1.08,-34.974,272.888,-53.345,
00:00:20:133,0.056,0.363,1.003,-32.349,252.746,-99.61,
00:00:20:150,0.082,0.439,1.087,-30.152,224.548,-119.507,
00:00:20:167,0.158,0.432,1.007,17.883,213.623,-144.471,
00:00:20:183,0.185,0.452,0.967,59.753,216.98,-171.448,
00:00:20:200,0.324,0.425,1.391,56.64,33.63,-42.359,
00:00:20:217,0.465,1.021,1.233,407.592,-52.063,180.542,
00:00:20:233,0.402,0.347,0.988,190.796,-2.198,110.168,
00:00:20:250,0.294,0.555,0.912,309.021,1.709,168.518,
00:00:20:267,0.239,0.379,0.707,231.445,21.85,201.172,
00:00:20:283,0.242,0.276,0.766,185.424,80.322,172.546,
00:00:20:300,0.276,0.435,0.88,186.401,142.151,116.638,
00:00:20:317,0.442,0.474,0.826,143.005,150.39,82.275,
00:00:20:333,0.357,0.581,0.85,175.964,137.329,88.073,
00:00:20:350,0.288,0.479,0.77,124.206,104.919,79.956,
00:00:20:367,0.291,0.426,0.79,75.927,80.688,58.837,
00:00:20:383,0.37,0.484,0.844,43.457,30.273,57.495,
00:00:20:400,0.461,0.538,0.814,44.128,-7.691,72.815,
00:00:20:417,0.503,0.513,0.787,56.518,-17.64,92.834,
00:00:20:433,0.547,0.365,0.728,66.65,11.108,96.862,
00:00:20:450,0.58,0.249,0.668,99.06,61.523,79.528,
00:00:20:467,0.733,0.262,0.619,133.361,99.853,64.941,
00:00:20:483,0.809,0.272,0.541,153.503,136.901,78.43,
00:00:20:500,0.818,0.205,0.565,140.136,168.029,91.491,
00:00:20:517,0.795,0.274,0.635,194.885,186.462,118.591,
00:00:20:533,0.762,0.387,0.7,194.58,194.458,130.432,
00:00:20:550,0.716,0.439,0.751,178.772,197.326,151.611,
00:00:20:567,0.605,0.433,0.739,166.565,187.439,179.26,
00:00:20:583,0.556,0.375,0.73,158.813,177.734,185.424,
00:00:20:600,0.502,0.353,0.737,166.32,159.423,194.702,
00:00:20:617,0.449,0.392,0.834,175.781,150.207,195.8,
00:00:20:633,0.412,0.364,0.717,198.547,122.436,189.575,
00:00:20:650,0.454,0.402,0.698,161.01,115.844,171.142,
00:00:20:667,0.49,0.407,0.757,141.845,108.154,162.292,
00:00:20:683,0.493,0.406,0.759,143.859,100.952,162.353,
00:00:20:700,0.449,0.382,0.765,127.868,84.167,143.982,
00:00:20:717,0.466,0.382,0.81,127.441,78.308,131.408,
00:00:20:733,0.471,0.406,0.81,129.882,70.8,116.821,
00:00:20:750,0.452,0.402,0.789,125.549,66.955,106.018,
00:00:20:767,0.446,0.377,0.771,122.009,68.542,99.182,
00:00:20:783,0.435,0.408,0.801,120.788,70.983,96.74,
00:00:20:800,0.445,0.346,0.768,129.882,71.411,100.891,
00:00:20:817,0.541,0.291,0.848,149.17,58.41,91.98,
00:00:20:833,0.249,0.391,0.863,164.062,82.824,110.717,
00:00:20:850,0.33,0.486,0.876,201.477,80.993,93.811,
00:00:20:867,0.348,0.442,0.895,193.542,78.735,55.114,
00:00:20:883,0.369,0.482,0.875,210.998,81.909,21.179,
00:00:20:900,0.405,0.415,0.818,229.309,113.22,-21.302,
00:00:20:917,0.478,0.433,0.837,237.609,152.832,-60.547,
00:00:20:933,0.58,0.428,0.825,272.338,183.288,-84.473,
00:00:20:950,0.66,0.416,0.824,303.955,203.613,-92.774,
00:00:20:967,0.723,0.362,0.771,359.924,247.985,-124.329,
00:00:20:983,0.772,0.187,0.669,406.921,307.373,-115.235,
00:00:21:0,0.971,-0.079,0.379,107.483,174.377,100.219,
00:00:21:17,0.941,0.281,0.78,-31.311,-8.789,293.396,
00:00:21:33,0.969,-0.056,0.493,-21.363,-71.167,367.248,
00:00:21:50,0.855,0.184,0.688,-0.306,-118.042,511.535,
00:00:21:67,0.854,0.177,0.629,89.965,-128.296,552.795,
00:00:21:83,0.798,0.152,0.552,163.391,-119.446,593.994,
00:00:21:100,0.752,0.22,0.597,219.848,-75.135,611.511,
00:00:21:117,0.658,0.256,0.598,258.178,-10.071,594.604,
00:00:21:133,0.537,0.318,0.563,284.24,48.339,580.2,
00:00:21:150,0.455,0.351,0.586,321.96,115.783,559.265,
00:00:21:167,0.378,0.397,0.616,315.857,208.984,518.31,
00:00:21:183,0.319,0.398,0.611,308.715,271.423,470.276,
00:00:21:200,0.276,0.328,0.671,286.132,321.289,408.691,
00:00:21:217,0.256,0.287,0.724,258.972,331.726,346.496,
00:00:21:233,0.279,0.254,0.764,257.324,326.721,290.466,
00:00:21:250,0.258,0.271,0.786,229.431,327.148,235.656,
00:00:21:267,0.272,0.287,0.836,195.617,325.5,170.105,
00:00:21:283,0.287,0.277,0.766,162.841,314.819,108.825,
00:00:21:300,0.294,0.209,0.78,124.939,301.147,53.649,
00:00:21:317,0.296,0.191,0.743,101.318,297.973,-1.16,
00:00:21:333,0.314,0.186,0.658,95.947,311.157,-40.345,
00:00:21:350,0.514,0.089,1.172,-63.538,182.434,-29.358,
00:00:21:367,0.696,0.36,1.098,-86.853,39.184,-28.809,
00:00:21:383,0.57,0.691,1.112,-109.131,-61.524,58.96,
00:00:21:400,0.414,0.646,0.959,-109.986,-43.091,81.787,rollRH
00:00:21:417,0.333,0.362,0.784,-231.995,-34.241,102.6,
00:00:21:433,0.369,0.335,0.867,-192.872,-55.542,130.371,
00:00:21:450,0.398,0.211,0.794,-172.974,-32.227,123.291,
00:00:21:467,0.488,0.49,0.91,-119.629,-32.471,126.587,
00:00:21:483,0.551,0.516,0.89,-96.741,-46.509,155.578,
00:00:21:500,0.582,0.357,0.726,-63.66,-5.433,164.489,
00:00:21:517,0.601,0.309,0.686,-72.51,40.222,140.808,
00:00:21:533,0.622,0.301,0.666,-11.78,76.721,132.08,
00:00:21:550,0.644,0.291,0.651,26.367,102.844,122.741,
00:00:21:567,0.654,0.374,0.654,72.204,105.285,121.338,
00:00:21:583,0.663,0.435,0.683,98.205,84.777,134.704,
00:00:21:600,0.628,0.462,0.696,103.21,64.392,143.921,
00:00:21:617,0.59,0.449,0.721,76.294,36.56,148.559,
00:00:21:633,0.528,0.36,0.724,49.133,16.601,154.48,
00:00:21:650,0.506,0.384,0.77,60.302,-4.334,163.025,
00:00:21:667,0.494,0.437,0.78,105.957,-13.611,173.889,
00:00:21:683,0.484,0.43,0.775,151.794,-12.513,192.138,
00:00:21:700,0.503,0.397,0.773,164.489,-4.822,203.247,
00:00:21:717,0.535,0.413,0.724,190.734,3.601,209.655,
00:00:21:733,0.522,0.382,0.665,180.847,18.676,187.194,
00:00:21:750,0.547,0.383,0.669,165.222,28.198,171.264,
00:00:21:767,0.537,0.368,0.726,166.504,19.104,158.325,
00:00:21:783,0.512,0.391,0.705,157.287,4.943,149.292,
00:00:21:800,0.526,0.41,0.714,144.104,-2.747,145.446,
00:00:21:817,0.518,0.393,0.694,127.075,-12.085,136.169,
00:00:21:833,0.515,0.395,0.711,110.229,-14.771,125.122,
00:00:21:850,0.502,0.375,0.702,72.509,-31.617,101.135,
00:00:21:867,0.488,0.371,0.713,60.913,-37.232,89.355,
00:00:21:883,0.491,0.374,0.742,44.494,-39.002,77.697,
00:00:21:900,0.489,0.375,0.754,49.133,-39.063,70.922,
00:00:21:917,0.467,0.384,0.756,52.978,-37.293,67.504,
00:00:21:933,0.454,0.394,0.768,49.499,-33.692,64.88,
00:00:21:950,0.435,0.406,0.787,49.255,-32.654,62.927,
00:00:21:967,0.422,0.398,0.778,45.715,-27.894,60.18,
00:00:21:983,0.422,0.4,0.781,44.311,-19.959,53.833,
00:00:22:0,0.453,0.376,0.765,66.894,-18.494,45.227,
00:00:22:17,0.423,0.384,0.728,54.382,-20.508,35.583,
00:00:22:33,0.396,0.389,0.744,35.522,-10.987,25.329,
00:00:22:50,0.365,0.397,0.786,21.667,-6.47,19.47,
00:00:22:67,0.326,0.555,0.811,-48.157,-22.095,4.76,
00:00:22:83,0.314,0.398,0.746,-78.736,-27.466,-33.692,
00:00:22:100,0.268,0.502,0.779,-121.766,-7.081,-77.576,
00:00:22:117,0.229,0.45,0.719,-140.198,7.507,-113.953,
00:00:22:133,0.259,0.405,0.806,-188.904,-26.246,-144.227,
00:00:22:150,0.187,0.816,1.166,-91.858,-158.997,-67.2,
00:00:22:167,0.235,0.555,0.941,-119.141,-195.74,-56.885,
00:00:22:183,0.36,0.511,0.952,-69.092,-189.148,-67.139,
00:00:22:200,0.488,0.378,0.797,-17.029,-132.325,-93.445,
00:00:22:217,0.577,0.382,0.8,0.061,-84.107,-113.343,
00:00:22:233,0.688,0.264,0.728,51.757,-24.842,-122.254,
00:00:22:250,0.715,0.203,0.652,69.397,56.701,-147.278,
00:00:22:267,0.655,0.373,0.788,153.259,108.703,-139.1,
00:00:22:283,0.578,0.378,0.77,219.787,158.996,-131.165,
00:00:22:300,0.523,0.37,0.749,254.455,181.518,-121.644,
00:00:22:317,0.498,0.352,0.792,316.528,181.152,-112,
00:00:22:333,0.518,0.306,0.729,296.63,174.316,-128.052,
00:00:22:350,0.848,-0.086,0.923,151.367,64.575,-114.441,
00:00:22:367,0.781,0.235,0.909,3.356,33.508,-199.036,
00:00:22:383,0.777,0.369,0.895,7.263,13.61,-201.477,
00:00:22:400,0.882,0.232,0.596,5.676,21.85,-213.501,
00:00:22:417,0.965,0.272,0.695,-59.449,-4.212,-190.125,
00:00:22:433,0.984,0.143,0.55,-75.562,-17.456,-158.204,
00:00:22:450,1.079,0.313,0.554,-272.034,-91.065,-27.1,
00:00:22:467,1.069,0.356,0.536,-227.723,-176.27,102.905,
00:00:22:483,1.028,0.335,0.617,-172.608,-312.867,242.736,
00:00:22:500,1.027,0.325,0.581,-230.835,-387.635,304.809,
00:00:22:517,0.941,0.406,0.488,-212.037,-416.077,384.643,
00:00:22:533,0.869,0.308,0.379,-189.515,-387.269,367.065,
00:00:22:550,0.718,0.303,0.341,-145.447,-305.054,330.566,
00:00:22:567,0.56,0.264,0.329,-103.089,-198.365,237.915,
00:00:22:583,0.421,0.254,0.364,-114.38,-81.849,117.37,
00:00:22:600,0.302,0.262,0.437,-184.021,35.217,-19.532,
00:00:22:617,0.223,0.325,0.502,-256.531,129.882,-149.048,
00:00:22:633,0.203,0.395,0.619,-354.615,188.049,-296.692,
00:00:22:650,0.117,0.446,0.754,-376.831,217.834,-390.076,
00:00:22:667,0.077,0.457,0.82,-322.876,210.937,-456.177,
00:00:22:683,0.068,0.427,0.851,-272.706,194.824,-476.075,
00:00:22:700,0.054,0.479,0.852,-261.841,153.32,-470.093,
00:00:22:717,0.055,0.545,0.884,-227.723,118.53,-448.914,
00:00:22:733,0.071,0.544,0.939,-230.164,116.699,-421.692,
00:00:22:750,0.104,1.072,1.637,-364.808,-177.308,-116.883,
00:00:22:767,0.269,1.123,1.369,233.154,-212.342,-13.611,
00:00:22:783,0.151,0.5,0.981,-111.145,-193.97,-22.95,
00:00:22:800,-0.106,0.66,0.862,-20.752,-163.819,12.023,
00:00:22:817,-0.031,0.34,0.579,-96.68,-91.37,-26.429,
00:00:22:833,0.104,0.349,0.627,-221.558,-55.115,-57.129,
00:00:22:850,0.227,0.478,0.892,-49.256,10.681,-48.89,
00:00:22:867,0.317,0.346,0.842,-20.02,-0.794,-69.825,
00:00:22:883,0.316,0.544,0.775,-77.332,-6.348,-40.345,
00:00:22:900,0.441,0.609,0.812,-84.29,-18.189,-19.104,
00:00:22:917,0.432,0.501,0.77,-81.055,-12.024,6.286,
00:00:22:933,0.48,0.376,0.633,-101.685,6.591,-2.93,
00:00:22:950,0.597,0.461,0.71,-113.099,4.516,14.953,
00:00:22:967,0.638,0.43,0.74,-44.007,16.784,43.64,
00:00:22:983,0.645,0.489,0.707,-19.288,23.193,71.777,
00:00:23:0,0.639,0.495,0.722,17.089,35.095,83.679,
00:00:23:17,0.595,0.555,0.733,15.014,36.132,82.153,
00:00:23:33,0.512,0.473,0.701,44.982,30.212,81.604,
00:00:23:50,0.427,0.507,0.688,50.231,11.23,91.308,
00:00:23:67,0.36,0.476,0.723,20.385,4.516,112.304,
00:00:23:83,0.363,0.61,0.788,23.681,-9.461,121.582,
00:00:23:100,0.332,0.552,0.712,41.565,-20.508,117.492,
00:00:23:117,0.345,0.566,0.728,48.889,-37.781,105.774,
00:00:23:133,0.359,0.563,0.736,63.964,-51.392,101.318,
00:00:23:150,0.363,0.578,0.747,51.33,-60.486,92.712,
00:00:23:167,0.402,0.609,0.735,39.733,-70.435,79.284,
00:00:23:183,0.366,0.556,0.721,33.325,-75.928,70.312,
00:00:23:200,0.348,0.612,0.783,27.282,-90.943,57.922,
00:00:23:217,0.312,0.59,0.773,41.259,-90.76,49.682,
00:00:23:233,0.3,0.592,0.778,66.162,-81.177,40.222,
00:00:23:250,0.274,0.573,0.749,72.57,-67.444,19.043,
00:00:23:267,0.168,0.63,0.834,77.514,-70.74,5.798,
00:00:23:283,0.186,0.598,0.762,95.092,-61.036,-17.762,
00:00:23:300,0.24,0.525,0.739,79.345,-45.227,-42.054,
00:00:23:317,0.342,0.534,0.802,93.444,-34.119,-47.486,
00:00:23:333,0.404,0.537,0.781,143.493,-6.836,-43.274,
00:00:23:350,0.478,0.464,0.73,164.062,28.625,-48.523,
00:00:23:367,0.539,0.417,0.699,171.569,56.335,-55.359,
00:00:23:383,0.55,0.335,0.712,180.664,77.514,-63.904,
00:00:23:400,0.601,0.291,0.718,184.631,88.317,-69.642,
00:00:23:417,0.612,0.287,0.625,142.883,102.172,-79.59,
00:00:23:433,0.553,0.396,0.699,104.187,97.656,-91.797,
00:00:23:450,0.504,0.469,0.769,98.144,83.496,-95.154,
00:00:23:467,0.427,0.532,0.813,107.727,60.302,-82.276,
00:00:23:483,0.353,0.537,0.853,106.14,60.424,-75.135,
00:00:23:500,0.33,0.556,0.899,143.859,69.03,-75.684,
00:00:23:517,0.334,0.615,0.919,159.423,80.566,-90.821,
00:00:23:533,0.392,0.556,0.907,204.712,101.196,-114.38,
00:00:23:550,0.503,0.443,0.801,231.811,117.614,-149.231,
00:00:23:567,0.63,0.317,0.654,202.575,122.253,-192.566,
00:00:23:583,0.844,0.174,0.745,62.561,58.044,-193.238,
00:00:23:600,0.847,0.323,0.772,-40.955,-10.071,-198.914,
00:00:23:617,0.893,0.401,0.762,-129.639,-135.56,-125.611,
00:00:23:633,1.077,0.24,0.817,-233.643,-284.485,-30.884,
00:00:23:650,0.994,0.404,0.825,-91.675,-362.305,125.183,
00:00:23:667,0.908,0.343,0.621,-46.875,-421.204,257.141,
00:00:23:683,0.943,0.374,0.526,-19.898,-406.25,324.401,
00:00:23:700,0.878,0.35,0.479,45.288,-374.024,352.783,
00:00:23:717,0.844,0.28,0.41,49.987,-322.266,329.895,
00:00:23:733,0.771,0.3,0.366,11.047,-257.325,274.597,
00:00:23:750,0.661,0.268,0.369,-22.95,-181.092,175.476,
00:00:23:767,0.52,0.268,0.392,-107.239,-91.187,77.758,
00:00:23:783,0.392,0.307,0.44,-160.889,1.709,-56.214,
00:00:23:800,0.28,0.305,0.521,-222.84,92.895,-189.454,
00:00:23:817,0.203,0.331,0.578,-289.734,170.593,-303.162,
00:00:23:833,0.106,0.41,0.68,-326.172,213.928,-378.296,
00:00:23:850,0.012,0.457,0.791,-342.957,229.431,-417.481,
00:00:23:867,-0.101,0.563,0.901,-295.899,229.675,-411.194,
00:00:23:883,-0.209,0.613,0.995,-204.59,228.21,-378.724,
00:00:23:900,-0.265,0.634,1.047,-68.055,234.558,-326.477,
00:00:23:917,-0.27,0.66,1.037,21.118,232.116,-268.677,
00:00:23:933,-0.231,0.656,1.025,93.444,219.238,-213.379,
00:00:23:950,-0.18,0.665,0.984,117.614,200.439,-172.913,
00:00:23:967,-0.127,0.616,0.945,129.943,182.739,-138.489,
00:00:23:983,-0.062,0.587,0.839,165.283,174.865,-108.277,
00:00:24:0,-0.003,0.476,0.77,132.324,173.584,-123.597,
00:00:24:17,0.109,0.394,0.579,189.636,184.143,-130.433,
00:00:24:33,0.338,0.523,1.078,-195.679,-103.272,36.987,
00:00:24:50,0.411,0.727,1.265,-59.266,-193.177,93.75,
00:00:24:67,0.203,0.475,0.804,24.841,-25.269,15.502,
00:00:24:83,0.144,0.453,0.553,-92.896,39.55,-35.279,
00:00:24:100,0.217,0.515,0.819,-91.309,16.723,19.897,
00:00:24:117,0.384,0.487,0.978,-99.06,-19.715,37.597,
00:00:24:133,0.419,0.598,0.842,-91.675,-40.955,41.87,
00:00:24:150,0.463,0.324,0.534,-128.54,20.874,-28.87,
00:00:24:167,0.702,0.511,0.815,-161.56,24.047,2.075,
00:00:24:183,0.653,0.558,0.808,-42.725,15.319,50.72,
00:00:24:200,0.525,0.528,0.666,9.582,32.287,68.42,
00:00:24:217,0.562,0.433,0.688,-7.935,37.048,58.105,
00:00:24:233,0.527,0.511,0.774,23.925,32.348,51.757,
00:00:24:250,0.427,0.573,0.744,38.818,-18.189,23.254,
00:00:24:267,0.398,0.522,0.738,45.166,-9.339,2.075,
00:00:24:283,0.369,0.555,0.728,35.156,-3.296,-16.602,
00:00:24:300,0.341,0.493,0.716,51.635,2.38,-30.64,
00:00:24:317,0.372,0.5,0.719,76.232,19.836,-51.819,
00:00:24:333,0.477,0.457,0.725,69.824,75.5,-80.933,
00:00:24:350,0.498,0.381,0.713,100.586,90.148,-73.487,
00:00:24:367,0.505,0.367,0.676,144.836,96.435,-69.336,
00:00:24:383,0.566,0.401,0.675,139.16,100.402,-80.506,
00:00:24:400,0.588,0.443,0.684,121.765,92.285,-86.67,
00:00:24:417,0.52,0.473,0.793,74.157,107.666,-96.192,
00:00:24:433,0.495,0.512,0.827,129.028,120.3,-90.21,
00:00:24:450,0.49,0.528,0.842,182.006,133.972,-84.107,
00:00:24:467,0.54,0.531,0.787,233.459,137.207,-91.187,
00:00:24:483,0.593,0.478,0.632,232.666,131.469,-125.55,
00:00:24:500,0.989,0.266,0.556,-235.84,-77.82,-224.488,
00:00:24:517,0.878,0.633,0.776,-265.259,-197.022,-145.386,
00:00:24:533,1.029,0.005,0.623,-333.069,-291.687,-113.221,
00:00:24:550,0.938,0.285,0.736,-220.093,-348.145,-13.489,
00:00:24:567,0.95,0.289,0.581,-140.503,-375,38.94,
00:00:24:583,0.967,0.232,0.463,-114.808,-391.602,92.529,
00:00:24:600,0.927,0.273,0.42,-158.509,-416.199,118.469,
00:00:24:617,0.869,0.369,0.431,-176.697,-428.467,114.38,
00:00:24:633,0.781,0.368,0.447,-190.369,-396.119,75.439,
00:00:24:650,0.672,0.407,0.413,-243.958,-329.773,9.521,
00:00:24:667,0.503,0.507,0.388,-400.574,-167.359,-190.247,
00:00:24:683,0.425,0.546,0.402,-440.735,-100.525,-279.725,
00:00:24:700,0.368,0.583,0.479,-464.295,-41.382,-365.174,
00:00:24:717,0.308,0.583,0.529,-476.99,-3.785,-443.36,
00:00:24:733,0.222,0.611,0.575,-509.278,2.502,-507.386,
00:00:24:750,0.097,0.603,0.598,-546.326,6.286,-540.345,
00:00:24:767,-0.059,0.567,0.68,-618.531,-9.705,-568.482,
00:00:24:783,-0.144,0.705,0.725,-486.756,-1.465,-568.238,
00:00:24:800,-0.196,0.729,0.793,-462.525,-15.625,-577.027,
00:00:24:817,-0.222,0.642,0.763,-398.56,-25.33,-567.749,
00:00:24:833,-0.205,0.714,0.78,-359.986,-31.067,-544.068,
00:00:24:850,-0.176,0.676,0.788,-296.998,-25.147,-519.837,
00:00:24:867,0.06,0.816,1.1,-298.706,-136.414,-433.228,
00:00:24:883,0.342,1.924,1.334,-52.002,-407.593,-142.579,
00:00:24:900,0.054,0.632,1.211,-221.009,-375.123,-153.748,
00:00:24:917,-0.098,0.748,0.948,27.893,-349.366,-68.97,
00:00:24:933,-0.024,0.284,0.508,-163.392,-314.454,-108.765,
00:00:24:950,0.131,0.326,0.555,-230.957,-281.434,-126.648,
00:00:24:967,0.214,0.424,0.654,-246.033,-209.9,-115.967,
00:00:24:983,0.225,0.601,0.795,-246.155,-150.269,-92.469,
00:00:25:0,0.269,0.711,0.885,-164.612,-137.574,-24.537,
00:00:25:17,0.316,0.735,0.838,-98.633,-150.513,35.949,
00:00:25:33,0.334,0.662,0.789,-25.269,-159.913,76.171,
00:00:25:50,0.374,0.675,0.78,41.992,-157.471,91.43,
00:00:25:67,0.549,0.631,0.677,20.935,-150.818,73.364,
00:00:25:83,0.545,0.642,0.684,45.288,-115.479,55.481,
00:00:25:100,0.57,0.615,0.623,37.109,-84.656,27.404,
00:00:25:117,0.581,0.617,0.635,60.913,-55.42,-12.818,
00:00:25:133,0.584,0.6,0.644,71.106,-38.697,-47.791,
00:00:25:150,0.615,0.697,0.725,150.329,-40.039,-70.069,
00:00:25:167,0.581,0.524,0.543,153.503,-28.992,-117.493,
00:00:25:183,0.527,0.439,0.539,152.893,-37.842,-148.743,
00:00:25:200,0.559,0.478,0.642,128.173,-60.303,-175.354,
00:00:25:217,0.548,0.586,0.642,123.169,-92.102,-183.899,
00:00:25:233,0.553,0.667,0.669,78.979,-110.23,-194.703,
00:00:25:250,0.508,0.594,0.672,54.016,-119.568,-212.281,
00:00:25:267,0.442,0.588,0.687,33.508,-126.221,-236.145,
00:00:25:283,0.364,0.562,0.793,45.044,-105.591,-243.714,
00:00:25:300,0.237,0.566,0.852,80.383,-86.548,-205.75,
00:00:25:317,0.149,0.587,0.969,147.216,-51.453,-186.463,
00:00:25:333,0.018,0.586,0.939,221.008,-20.142,-142.823,
00:00:25:350,-0.011,0.615,0.994,299.499,22.583,-122.986,
00:00:25:367,0.044,0.701,1.054,379.272,66.101,-145.264,
00:00:25:383,0.252,0.641,0.971,497.863,127.441,-187.806,
00:00:25:400,0.507,0.59,0.836,459.777,175.781,-280.823,rollRH
00:00:25:417,0.664,0.408,0.625,437.194,254.15,-378.846,
00:00:25:433,0.843,0.235,0.446,349.792,317.077,-467.164,
00:00:25:450,0.959,0.252,0.433,463.745,373.535,-485.901,
00:00:25:467,1.161,0.282,0.33,165.954,280.517,-492.798,
00:00:25:483,1.42,0.166,0.425,-144.165,53.833,-439.881,
00:00:25:500,1.266,0.394,0.542,-386.963,-162.171,-297.303,
00:00:25:517,0.984,0.139,0.506,-452.149,-503.357,167.358,
00:00:25:533,0.969,0.17,0.432,-253.357,-499.512,240.051,
00:00:25:550,0.9,0.234,0.432,-142.518,-487.671,286.56,
00:00:25:567,0.853,0.194,0.376,-101.441,-487.854,315.307,
00:00:25:583,0.782,0.155,0.413,-150.147,-475.403,303.283,
00:00:25:600,0.69,0.195,0.426,-199.463,-434.449,249.817,
00:00:25:617,0.577,0.267,0.445,-227.234,-363.16,173.828,
00:00:25:633,0.476,0.334,0.498,-208.497,-284.852,93.078,
00:00:25:650,0.375,0.369,0.575,-172.425,-213.257,8.667,
00:00:25:667,0.257,0.525,0.685,-207.642,-134.827,-166.748,
00:00:25:683,0.222,0.553,0.766,-236.695,-119.629,-232.789,
00:00:25:700,0.156,0.58,0.791,-251.16,-102.478,-292.969,
00:00:25:717,0.09,0.588,0.802,-277.283,-105.774,-345.215,
00:00:25:733,0.028,0.678,0.836,-266.602,-107.422,-378.785,
00:00:25:750,-0.047,0.7,0.809,-257.996,-109.375,-397.889,
00:00:25:767,-0.153,0.682,0.809,-227.784,-94.971,-389.527,
00:00:25:783,-0.237,0.607,0.829,-209.656,-64.82,-377.259,
00:00:25:800,-0.249,0.61,0.849,-111.878,-3.724,-353.15,
00:00:25:817,-0.212,0.577,0.776,-45.899,60.363,-340.088,
00:00:25:833,-0.16,0.661,0.828,46.752,98.816,-331.421,
00:00:25:850,-0.104,0.614,0.775,68.176,130.249,-342.286,
00:00:25:867,-0.017,0.633,0.749,75.805,159.179,-364.075,
00:00:25:883,0.067,0.541,0.68,53.405,184.57,-387.085,
00:00:25:900,0.153,0.523,0.634,-0.061,209.35,-410.401,
00:00:25:917,0.565,0.538,0.902,-169.678,125.732,-328.614,
00:00:25:933,0.449,0.845,1.089,-153.626,-104.248,-99.427,
00:00:25:950,0.329,0.595,0.868,-174.134,-151.123,-78.797,
00:00:25:967,0.279,0.492,0.681,-114.38,-142.151,-67.017,
00:00:25:983,0.297,0.452,0.658,-133.851,-125.794,-74.891,
00:00:26:0,0.323,0.443,0.684,-130.982,-101.136,-79.834,
00:00:26:17,0.336,0.505,0.779,-127.503,-88.807,-71.717,
00:00:26:33,0.296,0.49,0.754,-105.835,-73.67,-62.745,
00:00:26:50,0.285,0.506,0.765,-70.74,-54.505,-56.885,
00:00:26:67,0.313,0.532,0.806,-88.868,-38.453,-59.571,
00:00:26:83,0.329,0.609,0.896,-36.56,-23.804,-41.016,
00:00:26:100,0.426,0.616,0.911,-44.434,-33.326,-32.654,
00:00:26:117,0.375,0.541,0.719,14.099,1.709,-40.589,
00:00:26:133,0.324,0.482,0.628,-4.7,7.995,-55.542,
00:00:26:150,0.336,0.525,0.679,-13.367,-0.123,-61.707,
00:00:26:167,0.347,0.487,0.7,-25.635,-11.536,-66.834,
00:00:26:183,0.323,0.551,0.748,-43.457,-16.541,-86.67,
00:00:26:200,0.316,0.546,0.754,-70.74,-23.194,-102.112,
00:00:26:217,0.347,0.587,0.76,-22.706,-38.208,-94.971,
00:00:26:233,0.339,0.531,0.75,-20.02,-56.763,-83.13,
00:00:26:250,0.391,0.541,0.757,11.657,-56.336,-72.144,
00:00:26:267,0.423,0.532,0.784,45.776,-44.068,-69.642,
00:00:26:283,0.417,0.525,0.767,45.288,-36.56,-93.384,
00:00:26:300,0.432,0.462,0.779,44.25,-18.677,-79.285,
00:00:26:317,0.415,0.528,0.827,51.086,-16.663,-84.839,
00:00:26:333,0.417,0.415,0.747,85.937,7.446,-100.281,
00:00:26:350,0.414,0.49,0.708,65.002,12.268,-96.253,
00:00:26:367,0.403,0.462,0.701,72.753,20.507,-89.783,
00:00:26:383,0.388,0.503,0.714,67.077,28.015,-82.886,
00:00:26:400,0.448,0.44,0.684,60.485,48.4,-81.482,
00:00:26:417,0.511,0.518,0.734,38.024,61.218,-77.881,
00:00:26:433,0.491,0.515,0.776,43.457,57.495,-56.824,
00:00:26:450,0.426,0.498,0.754,57.373,61.767,-48.34,
00:00:26:467,0.379,0.551,0.859,68.298,93.2,-61.341,
00:00:26:483,0.399,0.561,0.861,85.449,117.187,-72.754,
00:00:26:500,0.435,0.604,0.851,104.797,113.83,-71.106,
00:00:26:517,0.482,0.476,0.777,112.793,123.962,-69.519,
00:00:26:533,0.519,0.528,0.784,126.831,137.939,-73.914,
00:00:26:550,0.556,0.43,0.775,148.254,193.359,-91.004,
00:00:26:567,0.688,0.437,0.687,180.847,242.736,-73.426,
00:00:26:583,0.882,0.458,0.578,131.775,208.007,-68.299,
00:00:26:600,0.976,0.42,0.568,88.134,115.722,-11.414,
00:00:26:617,0.855,0.357,0.464,75.866,27.038,49.865,
00:00:26:633,0.975,0.692,0.719,-129.517,-138.794,227.417,
00:00:26:650,0.921,0.399,0.674,-37.72,-231.568,345.092,
00:00:26:667,0.848,0.46,0.648,-8.851,-282.349,427.978,
00:00:26:683,0.877,0.402,0.532,40.588,-284.974,529.358,
00:00:26:700,0.929,0.399,0.502,59.204,-293.03,501.037,
00:00:26:717,0.946,0.43,0.456,70.251,-287.903,483.215,
00:00:26:733,0.907,0.364,0.358,80.993,-268.128,459.045,
00:00:26:750,0.871,0.321,0.302,39.367,-233.643,415.466,
00:00:26:767,0.795,0.365,0.279,-56.58,-175.66,343.444,
00:00:26:783,0.712,0.417,0.256,-127.015,-109.436,247.253,
00:00:26:800,0.631,0.419,0.238,-182.312,-33.692,141.54,
00:00:26:817,0.554,0.419,0.25,-270.081,32.165,33.996,
00:00:26:833,0.477,0.43,0.278,-380.249,95.031,-61.341,
00:00:26:850,0.416,0.499,0.292,-392.212,156.189,-148.011,
00:00:26:867,0.348,0.553,0.346,-379.273,215.393,-229.371,
00:00:26:883,0.287,0.451,0.338,-491.272,263.549,-303.406,
00:00:26:900,0.208,0.45,0.346,-578.797,269.409,-346.131,
00:00:26:917,0.122,0.673,0.508,-600.892,217.407,-349.366,
00:00:26:933,0.042,0.809,0.638,-442.81,180.114,-362.977,
00:00:26:950,-0.044,0.846,0.674,-427.979,156.616,-400.696,
00:00:26:967,-0.082,0.801,0.667,-392.334,117.859,-455.201,
00:00:26:983,-0.091,0.722,0.739,-352.234,49.438,-484.436,
00:00:27:0,-0.059,0.714,0.843,-291.748,-30.945,-509.461,
00:00:27:17,-0.014,0.662,0.863,-273.987,-87.525,-528.077,
00:00:27:33,0.062,0.686,0.813,-220.948,-113.221,-539.246,
00:00:27:50,0.201,0.643,0.839,-188.599,-143.433,-531.861,
00:00:27:67,0.288,0.67,0.836,-173.951,-166.748,-528.199,
00:00:27:83,0.394,0.664,0.8,-143.311,-181.885,-503.113,
00:00:27:100,0.432,0.669,0.776,-102.723,-196.412,-464.844,
00:00:27:117,0.423,0.58,0.71,-90.027,-205.994,-432.19,
00:00:27:133,0.382,0.55,0.658,-94.666,-204.59,-405.03,
00:00:27:150,0.34,0.494,0.608,-88.685,-180.298,-394.776,
00:00:27:167,0.615,0.707,0.909,-147.889,-306.397,-328.614,
00:00:27:183,0.342,0.301,0.805,-98.328,-267.395,-341.37,
00:00:27:200,0.386,0.675,0.806,-83.13,-322.388,-323.365,
00:00:27:217,0.269,0.696,0.709,-185.975,-346.741,-268.311,
00:00:27:233,0.236,0.522,0.704,-174.195,-376.343,-223.267,
00:00:27:250,0.313,0.638,0.896,-106.202,-435.852,-156.8,
00:00:27:267,0.323,0.694,1.025,-61.158,-453.553,-118.042,
00:00:27:283,0.342,0.684,0.986,-59.388,-466.37,-93.995,
00:00:27:300,0.329,0.602,0.902,-2.32,-448.975,-83.985,
00:00:27:317,0.292,0.583,0.853,29.663,-436.768,-81.238,
00:00:27:333,0.284,0.548,0.837,48.095,-405.335,-82.154,
00:00:27:350,0.261,0.545,0.812,20.69,-381.287,-83.558,
00:00:27:367,0.296,0.53,0.799,36.865,-363.709,-59.815,
00:00:27:383,0.38,0.612,0.87,59.57,-359.559,-15.442,
00:00:27:400,0.366,0.508,0.795,72.876,-319.458,-4.456,
00:00:27:417,0.438,0.435,0.635,-2.381,-255.066,-25.879,
00:00:27:433,0.495,0.477,0.698,5.92,-187.256,-49.744,
00:00:27:450,0.51,0.478,0.671,0.915,-130.188,-68.299,
00:00:27:467,0.511,0.524,0.676,40.893,-91.187,-75.989,
00:00:27:483,0.499,0.482,0.657,42.663,-62.684,-83.985,
00:00:27:500,0.482,0.527,0.713,62.805,-51.453,-89.905,
00:00:27:517,0.472,0.505,0.693,59.631,-54.871,-102.234,
00:00:27:533,0.293,0.525,0.782,45.715,-30.823,-110.23,
00:00:27:550,0.3,0.58,0.892,74.218,-10.987,-132.142,
00:00:27:567,0.237,0.594,1.02,183.532,-1.587,-121.705,
00:00:27:583,0.158,0.582,1.023,229.187,8.728,-139.039,
00:00:27:600,0.187,0.584,0.951,277.343,90.637,-223.938,
00:00:27:617,0.544,0.469,0.919,193.908,114.196,-278.443,
00:00:27:633,0.599,0.517,0.852,237.304,91.613,-278.321,
00:00:27:650,0.759,0.213,0.452,171.325,115.539,-348.267,
00:00:27:667,1.004,0.187,0.491,-11.414,155.273,-409.607,
00:00:27:683,1.156,0.333,0.502,-248.902,-233.704,-3.54,
00:00:27:700,1.085,0.33,0.564,-203.492,-322.205,154.663,
00:00:27:717,0.982,0.267,0.494,-30.03,-363.221,270.324,
00:00:27:733,0.962,0.329,0.427,15.991,-359.62,335.266,
00:00:27:750,0.961,0.306,0.419,18.005,-328.186,377.258,
00:00:27:767,0.735,0.441,0.368,-40.162,-153.87,353.21,
00:00:27:783,0.635,0.513,0.355,-111.878,-71.9,307.617,
00:00:27:800,0.529,0.546,0.39,-155.03,-10.315,248.23,
00:00:27:817,0.408,0.613,0.451,-217.591,45.837,179.382,
00:00:27:833,0.274,0.604,0.465,-255.249,106.933,100.769,
00:00:27:850,0.162,0.569,0.525,-276.856,169.983,15.38,
00:00:27:867,0.073,0.506,0.583,-302.918,214.05,-65.125,
00:00:27:883,0.024,0.533,0.664,-276.978,236.389,-138.733,
00:00:27:900,0.006,0.546,0.734,-273.377,252.075,-196.289,
00:00:27:917,-0.07,0.599,0.727,-210.572,297.302,-260.376,
00:00:27:933,-0.127,0.578,0.793,-122.254,346.496,-273.987,
00:00:27:950,-0.006,0.533,0.848,-6.348,327.392,-271.424,
00:00:27:967,0.039,0.456,0.894,-3.296,268.982,-300.843,
00:00:27:983,0.273,0.586,1.86,-182.618,-19.593,-146.668,
00:00:28:0,0.442,0.442,1.174,-144.959,-132.447,-219.117,
00:00:28:17,0.195,0.607,1.098,-220.765,-206.116,-230.042,
00:00:28:33,0.211,0.417,0.659,-69.153,-157.898,-134.583,
00:00:28:50,0.267,0.478,0.757,-21.851,-146.119,-107.3,
00:00:28:67,0.296,0.519,0.923,43.029,-158.509,-57.068,
00:00:28:83,0.319,0.551,0.941,21.545,-181.824,-36.438,
00:00:28:100,0.315,0.567,0.871,29.663,-196.656,-24.72,
00:00:28:117,0.416,0.528,0.77,27.587,-146.912,-50.538,
00:00:28:133,0.407,0.515,0.778,29.235,-131.165,-63.599,
00:00:28:150,0.433,0.506,0.695,38.879,-121.338,-51.514,
00:00:28:167,0.442,0.576,0.736,31.921,-102.478,-35.462,
00:00:28:183,0.437,0.475,0.67,36.193,-74.769,-23.743,
00:00:28:200,0.397,0.482,0.745,39.123,-63.172,-34.607,
00:00:28:217,0.401,0.526,0.807,79.834,-60.608,-41.871,
00:00:28:233,0.38,0.582,0.78,121.46,-58.594,-22.644,
00:00:28:250,0.346,0.497,0.81,207.824,-54.261,-9.4,
00:00:28:267,0.336,0.469,0.788,226.501,-34.913,-27.955,
00:00:28:283,0.325,0.558,0.798,199.89,-27.649,-64.026,
00:00:28:300,0.349,0.565,0.838,229.797,-45.777,-100.586,
00:00:28:317,0.34,0.515,0.702,179.321,-20.203,-134.888,
00:00:28:333,0.338,0.382,0.622,131.469,14.16,-178.284,
00:00:28:350,0.452,0.444,0.78,86.364,48.156,-223.999,
00:00:28:367,0.482,0.411,0.732,103.088,47.607,-209.29,
00:00:28:383,0.458,0.376,0.691,30.578,69.213,-232.239,
00:00:28:400,0.453,0.435,0.752,23.559,86.181,-245.24,
00:00:28:417,0.736,0.628,0.831,-13.123,41.381,-201.539,
00:00:28:433,0.639,0.592,0.976,-28.26,-9.827,-151.307,
00:00:28:450,0.415,0.427,0.856,-55.603,-15.137,-129.029,
00:00:28:467,0.452,0.416,0.913,42.114,5.92,-120.057,
00:00:28:483,0.526,0.423,0.837,89.843,18.737,-113.16,
00:00:28:500,0.61,0.307,0.65,59.082,47.363,-125.794,
00:00:28:517,0.801,0.337,0.755,-65.186,6.53,-102.784,
00:00:28:533,0.837,0.346,0.577,48.217,-39.185,-23.743,
00:00:28:550,0.877,0.529,0.862,-89.905,-158.204,81.848,
00:00:28:567,0.79,0.525,0.779,92.773,-200.806,218.811,
00:00:28:583,0.69,0.544,0.654,113.342,-190.125,320.739,
00:00:28:600,0.615,0.493,0.572,198.303,-128.846,411.132,
00:00:28:617,0.544,0.514,0.505,265.014,-71.412,455.505,
00:00:28:633,0.396,0.5,0.573,275.451,32.226,502.685,
00:00:28:650,0.311,0.511,0.557,328.491,71.106,520.263,
00:00:28:667,0.194,0.494,0.551,402.16,106.262,554.016,
00:00:28:683,0.089,0.524,0.635,377.99,155.578,573.669,
00:00:28:700,-0.022,0.491,0.65,357.971,213.623,581.726,
00:00:28:717,-0.11,0.469,0.653,383.056,250.305,590.026,
00:00:28:733,-0.162,0.53,0.722,407.592,271.057,606.14,
00:00:28:750,-0.196,0.52,0.788,499.694,287.841,610.656,
00:00:28:767,-0.168,0.489,0.84,512.817,315.551,607.971,
00:00:28:783,-0.085,0.493,0.894,534.729,333.191,580.139,
00:00:28:800,0.026,0.442,0.909,552.734,322.021,534.546,
00:00:28:817,0.136,0.397,0.843,565.673,285.522,473.877,
00:00:28:833,0.247,0.26,0.792,576.049,251.831,408.02,
00:00:28:850,0.389,0.255,0.732,477.356,285.583,308.715,
00:00:28:867,0.523,0.189,0.646,443.969,344.238,196.777,
00:00:28:883,0.641,0.1,0.468,396.545,431.152,67.504,
00:00:28:900,0.746,0.035,0.351,408.569,531.311,-59.021,
00:00:28:917,0.838,-0.002,0.187,525.024,706.97,-204.773,
00:00:28:933,1.301,-0.602,0.922,-29.358,544.311,-369.507,
00:00:28:950,1.546,0.773,1.635,-429.017,103.515,24.047,
00:00:28:967,0.96,0.759,1.119,228.881,-80.567,160.034,
00:00:28:983,0.806,0.546,0.623,45.349,-16.053,207.824,
00:00:29:0,0.861,0.099,0.569,163.94,35.217,197.143,
00:00:29:17,0.814,-0.042,0.604,226.684,111.328,174.865,
00:00:29:33,0.846,0.13,0.736,138.183,169.494,144.104,
00:00:29:50,0.752,0.207,0.765,145.263,210.449,156.921,
00:00:29:67,0.646,0.167,0.776,39.184,257.568,144.104,
00:00:29:83,0.604,0.311,0.939,62.011,256.775,138.855,
00:00:29:100,0.516,0.339,0.906,120.117,254.577,127.929,
00:00:29:117,0.499,0.311,0.847,119.629,276.794,88.317,
00:00:29:133,0.449,0.351,0.939,121.276,265.319,70.861,
00:00:29:150,0.384,0.324,0.814,166.015,288.269,55.053,
00:00:29:167,0.414,0.35,0.804,136.352,308.044,35.583,
00:00:29:183,0.385,0.377,0.807,80.078,321.655,18.92,
00:00:29:200,0.385,0.29,0.845,77.27,324.707,-1.954,
00:00:29:217,0.421,0.288,0.884,95.459,314.941,-28.016,
00:00:29:233,0.464,0.249,0.808,111.45,317.199,-37.232,
00:00:29:250,0.473,0.293,0.839,120.91,305.542,-28.992,
00:00:29:267,0.461,0.314,0.825,118.53,281.25,-33.204,
00:00:29:283,0.512,0.235,0.736,156.555,292.907,-49.927,
00:00:29:300,0.535,0.399,0.913,119.751,259.765,-54.627,
00:00:29:317,0.571,0.318,0.81,131.103,242.37,-52.185,
00:00:29:333,0.586,0.273,0.802,138.977,233.52,-58.411,
00:00:29:350,0.649,0.288,0.783,129.699,209.533,-70.618,
00:00:29:367,0.684,0.236,0.709,96.435,186.95,-78.614,
00:00:29:383,0.729,0.214,0.581,60.241,184.57,-92.347,
00:00:29:400,0.739,0.187,0.445,9.887,221.435,-120.179,
00:00:29:417,0.723,0.201,0.363,-85.572,285.095,-162.049,
00:00:29:433,0.715,0.144,0.411,-241.578,288.513,-168.824,
00:00:29:450,0.776,0.514,1.174,-497.742,44.006,-49.744,
00:00:29:467,0.626,0.085,0.856,-415.345,-38.758,-37.964,
00:00:29:483,0.475,0.679,1.305,-407.044,-205.689,60.058,
00:00:29:500,0.303,0.297,1.181,-258.179,-289.429,114.685,
00:00:29:517,0.142,0.417,1.341,-103.821,-358.155,176.086,
00:00:29:533,0.034,0.424,1.337,-8.423,-404.358,239.563,
00:00:29:550,-0.071,0.371,1.299,78.43,-434.876,286.621,
00:00:29:567,-0.128,0.375,1.241,133.606,-448.548,319.946,
00:00:29:583,-0.148,0.34,1.153,196.96,-444.275,332.763,
00:00:29:600,-0.149,0.309,1.062,217.956,-435.181,329.162,
00:00:29:617,-0.125,0.317,0.967,213.44,-427.491,310.241,
00:00:29:633,-0.074,0.318,0.869,191.467,-410.706,275.695,
00:00:29:650,-0.003,0.291,0.77,176.452,-387.085,227.783,
00:00:29:667,0.055,0.233,0.674,140.869,-348.694,171.692,
00:00:29:683,0.125,0.227,0.597,169.128,-300.782,107.177,
00:00:29:700,0.199,0.212,0.543,197.082,-243.653,34.729,
00:00:29:717,0.296,0.224,0.505,203.247,-177.369,-53.101,rollRH
00:00:29:733,0.422,0.224,0.49,158.081,-99.854,-153.931,
00:00:29:750,0.552,0.218,0.48,98.51,-30.335,-232.178,
00:00:29:767,0.658,0.199,0.477,44.189,39.489,-292.176,
00:00:29:783,0.775,0.224,0.508,-27.161,95.581,-336.487,
00:00:29:800,0.847,0.245,0.491,-90.455,121.032,-369.507,
00:00:29:817,0.921,0.212,0.553,-109.192,128.234,-384.034,
00:00:29:833,0.955,0.201,0.58,-117.981,140.014,-387.452,
00:00:29:850,1.016,0.21,0.55,-100.22,148.498,-363.892,
00:00:29:867,1.006,0.197,0.516,-102.417,175.354,-326.844,
00:00:29:883,0.958,0.19,0.48,-6.287,221.191,-282.044,
00:00:29:900,0.929,0.128,0.416,47.485,295.532,-254.639,
00:00:29:917,0.944,0.088,0.322,103.088,376.159,-218.262,
00:00:29:933,1.478,-0.6,0.591,-307.496,268.554,-194.336,
00:00:29:950,1.239,0.844,1.592,-725.708,-174.134,141.296,
00:00:29:967,0.929,0.307,0.94,-173.951,-61.707,175.537,
00:00:29:983,0.724,0.341,0.784,-158.692,9.765,260.864,
00:00:30:0,0.674,0.081,0.638,-76.905,115.234,206.848,
00:00:30:17,0.732,0.354,0.776,-57.801,188.537,142.151,
00:00:30:33,0.724,0.665,0.893,-82.764,170.715,116.333,
00:00:30:50,0.671,0.524,0.827,-66.102,183.41,95.398,
00:00:30:67,0.515,0.387,0.911,-66.285,183.227,55.236,
00:00:30:83,0.409,0.384,0.932,4.638,197.326,13.488,
00:00:30:100,0.426,0.393,0.922,-12.757,211.67,-34.852,
00:00:30:117,0.456,0.391,0.814,25.39,205.749,-43.091,
00:00:30:133,0.432,0.279,0.695,44.616,181.64,-39.185,
00:00:30:150,0.416,0.251,0.642,20.446,177.734,-52.552,
00:00:30:167,0.475,0.253,0.582,7.019,180.359,-79.285,
00:00:30:183,0.521,0.323,0.655,-62.745,164.245,-104.371,
00:00:30:200,0.554,0.331,0.857,-85.694,122.619,-87.098,
00:00:30:217,0.529,0.308,0.71,-126.77,111.45,-89.173,
00:00:30:233,0.542,0.275,0.717,-109.436,105.713,-87.952,
00:00:30:250,0.563,0.357,0.753,-87.342,93.75,-89.722,
00:00:30:267,0.545,0.38,0.748,-94.422,73.486,-86.976,
00:00:30:283,0.578,0.324,0.681,-79.651,87.768,-88.135,
00:00:30:300,0.582,0.339,0.736,-54.566,99.426,-90.638,
00:00:30:317,0.601,0.285,0.725,-5.616,107.483,-86.243,
00:00:30:333,0.626,0.281,0.692,8.789,113.342,-87.952,
00:00:30:350,0.665,0.275,0.629,2.99,120.91,-95.276,
00:00:30:367,0.677,0.254,0.519,-13.245,141.174,-102.173,
00:00:30:383,0.7,0.303,0.585,-15.259,132.934,-97.352,
00:00:30:400,0.658,0.274,0.569,6.103,149.17,-98.206,
00:00:30:417,0.692,0.335,0.575,-13.977,142.089,-103.394,
00:00:30:433,0.67,0.333,0.658,-48.096,138.366,-108.521,
00:00:30:450,0.674,0.283,0.59,-59.754,151.062,-125.977,
00:00:30:467,0.712,0.348,0.685,-94.727,152.16,-131.836,
00:00:30:483,0.712,0.288,0.672,-74.83,168.579,-131.104,
00:00:30:500,0.667,0.37,0.825,-47.73,148.681,-115.967,
00:00:30:517,0.584,0.398,0.849,-49.195,133.422,-103.577,
00:00:30:533,0.6,0.373,0.843,-12.574,124.084,-90.455,
00:00:30:550,0.686,0.335,0.626,58.837,161.987,-88.074,
00:00:30:567,0.667,0.27,0.37,101.44,247.253,-114.808,
00:00:30:583,0.185,0.268,0.774,113.159,277.771,-75.623,
00:00:30:600,0.582,0.962,1.119,-366.15,-34.668,-0.184,
00:00:30:617,0.482,0.043,0.708,-146.302,-21.546,-33.02,
00:00:30:633,0.518,0.506,0.914,-77.454,-62.928,22.522,
00:00:30:650,0.484,0.5,1.159,-126.648,-161.866,106.872,
00:00:30:667,0.384,0.478,1.156,-109.375,-284.058,198.486,
00:00:30:683,0.257,0.61,1.239,-43.213,-388.611,287.475,
00:00:30:700,0.122,0.502,1.191,17.211,-456.238,340.759,
00:00:30:717,0.011,0.301,1.099,53.955,-502.198,337.341,
00:00:30:733,-0.057,0.331,0.994,38.147,-521.79,317.993,
00:00:30:750,-0.06,0.315,0.931,18.92,-512.635,275.695,
00:00:30:767,0.069,0.29,0.752,83.129,-406.495,95.031,
00:00:30:783,0.151,0.312,0.72,104.37,-388.245,17.089,
00:00:30:800,0.219,0.286,0.644,90.881,-355.103,-57.557,
00:00:30:817,0.284,0.228,0.598,99.426,-318.848,-115.662,
00:00:30:833,0.354,0.199,0.555,65.918,-262.574,-176.575,
00:00:30:850,0.743,0.271,0.548,72.815,-43.58,-365.357,
00:00:30:867,0.848,0.328,0.542,65.368,-12.146,-387.452,
00:00:30:883,0.879,0.329,0.506,44.25,21.545,-380.127,
00:00:30:900,0.96,0.291,0.527,56.823,42.297,-369.629,
00:00:30:917,0.967,0.147,0.329,-57.74,40.832,-349.183,
00:00:30:933,0.994,0.293,0.497,-49.561,62.805,-347.29,
00:00:30:950,0.925,0.145,0.452,5.92,105.835,-306.702,
00:00:30:967,0.923,0.01,0.317,35.034,121.215,-258.545,
00:00:30:983,0.998,0.177,0.899,-144.898,-67.505,-125.611,
00:00:31:0,1.063,0.22,0.575,-91.37,-101.319,-34.79,
00:00:31:17,0.908,0.424,0.734,-131.348,-130.31,51.574,
00:00:31:33,0.832,0.142,0.628,-149.048,-70.435,99.365,
00:00:31:50,0.775,0.072,0.546,-118.348,-5.555,94.97,
00:00:31:67,0.746,0.201,0.514,-155.152,48.584,53.039,
00:00:31:83,0.74,0.44,0.643,-304.139,71.777,10.253,
00:00:31:100,0.682,0.717,0.923,-340.516,41.503,2.502,
00:00:31:117,0.613,0.57,0.926,-285.889,16.54,15.625,
00:00:31:133,0.552,0.457,0.908,-57.801,38.086,-20.752,
00:00:31:150,0.557,0.407,0.816,-26.49,63.598,-9.156,
00:00:31:167,0.539,0.335,0.812,1.22,110.412,-23.682,
00:00:31:183,0.502,0.356,0.781,50.293,134.521,-32.898,
00:00:31:200,0.503,0.296,0.699,80.017,167.785,-51.209,
00:00:31:217,0.519,0.378,0.674,100.219,182.617,-73.975,
00:00:31:233,0.557,0.38,0.531,118.469,182.312,-82.337,
00:00:31:250,0.573,0.334,0.53,89.111,179.626,-93.384,
00:00:31:267,0.579,0.408,0.573,23.498,163.147,-105.286,
00:00:31:283,0.532,0.463,0.706,-50.782,144.409,-154.786,
00:00:31:300,0.494,0.384,0.789,-79.529,129.211,-164.124,
00:00:31:317,0.503,0.368,0.794,-118.775,105.896,-154.175,
00:00:31:333,0.462,0.375,0.87,-42.725,90.148,-117.005,
00:00:31:350,0.451,0.421,0.869,-28.504,91.735,-121.705,
00:00:31:367,0.461,0.42,0.811,-33.57,89.294,-119.507,
00:00:31:383,0.503,0.339,0.745,-40.772,88.989,-121.582,
00:00:31:400,0.502,0.353,0.747,-57.984,75.744,-109.925,
00:00:31:417,0.503,0.276,0.694,-68.97,69.702,-100.647,
00:00:31:433,0.525,0.318,0.695,-52.735,64.27,-98.328,
00:00:31:450,0.589,0.324,0.627,-60.852,56.884,-94.178,
00:00:31:467,0.588,0.255,0.576,-58.594,58.898,-87.83,
00:00:31:483,0.618,0.223,0.558,-82.276,55.358,-71.656,
00:00:31:500,0.612,0.298,0.687,-92.835,13.794,-37.903,
00:00:31:517,0.471,0.483,1.009,-207.886,-112.854,76.049,
00:00:31:533,0.468,0.613,1.108,-87.891,-140.809,139.16,
00:00:31:550,0.479,0.524,1.062,72.509,-141.297,174.072,
00:00:31:567,0.445,0.375,0.905,137.817,-83.741,165.649,
00:00:31:583,0.395,0.243,0.81,71.411,-4.944,130.798,
00:00:31:600,0.311,0.484,1.057,180.603,77.758,196.472,
00:00:31:617,0.223,0.557,1.164,302.612,28.991,295.959,
00:00:31:633,0.122,0.585,1.239,356.262,-21.607,375,
00:00:31:650,0.046,0.643,1.273,413.33,-65.369,443.908,
00:00:31:667,-0.014,0.646,1.243,509.582,-86.426,501.098,
00:00:31:683,-0.042,0.622,1.144,610.962,-103.333,561.157,
00:00:31:700,-0.074,0.586,1.076,654.48,-117.188,608.642,
00:00:31:717,-0.076,0.545,1.035,661.499,-110.901,620.91,
00:00:31:733,-0.086,0.519,0.953,676.391,-77.698,619.629,
00:00:31:750,-0.044,0.527,0.864,679.443,-41.321,607.666,
00:00:31:767,0.025,0.503,0.78,701.965,-4.639,585.449,
00:00:31:783,0.08,0.488,0.719,751.098,21.301,560.547,
00:00:31:800,0.127,0.487,0.643,761.779,44.494,529.358,
00:00:31:817,0.191,0.427,0.552,747.497,74.951,481.262,
00:00:31:833,0.209,0.334,0.51,692.932,104.187,426.818,
00:00:31:850,0.255,0.325,0.424,624.45,145.996,366.333,
00:00:31:867,0.323,0.304,0.38,562.744,194.091,314.575,
00:00:31:883,0.444,0.3,0.384,512.085,235.778,238.037,
00:00:31:900,0.621,0.297,0.378,479.431,268.066,170.776,
00:00:31:917,0.79,0.333,0.324,481.079,294.372,89.05,
00:00:31:933,0.871,0.264,0.434,517.456,318.908,25.512,
00:00:31:950,0.911,0.126,0.483,659.423,347.961,-0.489,
00:00:31:967,0.956,0.013,0.443,606.689,331.359,12.939,
00:00:31:983,1.017,0.123,0.353,392.395,289.367,58.715,
00:00:32:0,1.098,0.203,0.483,244.323,251.709,107.849,
00:00:32:17,1.086,0.067,0.443,228.576,186.096,173.95,
00:00:32:33,1.059,0.082,0.396,85.449,147.094,242.187,
00:00:32:50,1.037,0.113,0.324,84.045,146.85,302.612,
00:00:32:67,1.205,-0.429,-0.202,-140.076,89.843,360.595,
00:00:32:83,1.125,0.65,1.537,-750.977,-218.018,583.435,
00:00:32:100,0.995,0.399,0.764,-268.494,-129.517,526.733,
00:00:32:117,0.764,-0.036,0.776,-296.143,7.751,525.634,
00:00:32:133,0.777,0.062,0.788,-242.981,140.136,448.242,
00:00:32:150,0.808,0.31,1.004,-161.622,219.116,440.429,
00:00:32:167,0.746,0.325,1.002,23.071,277.649,402.893,
00:00:32:183,0.626,0.379,0.955,172.851,319.824,388.366,
00:00:32:200,0.519,0.234,0.818,184.997,348.877,348.571,
00:00:32:217,0.537,0.284,0.821,170.349,351.379,304.443,
00:00:32:233,0.556,0.34,0.742,184.509,335.998,268.005,
00:00:32:250,0.532,0.325,0.683,126.342,303.283,224.426,
00:00:32:267,0.469,0.333,0.705,51.391,283.325,179.016,
00:00:32:283,0.404,0.354,0.81,31.921,260.62,145.996,
00:00:32:300,0.394,0.312,0.894,1.831,235.168,129.211,
00:00:32:317,0.408,0.289,0.803,-4.822,229.553,123.596,
00:00:32:333,0.498,0.319,0.84,20.69,222.412,114.074,
00:00:32:350,0.485,0.318,0.862,72.509,206.604,140.014,
00:00:32:367,0.486,0.255,0.879,104.858,207.275,151.733,
00:00:32:383,0.511,0.301,0.834,151.489,200.134,156.555,
00:00:32:400,0.535,0.304,0.776,156.372,206.726,164.856,
00:00:32:417,0.505,0.251,0.764,179.26,217.651,174.926,
00:00:32:433,0.499,0.286,0.803,213.134,211.731,181.518,
00:00:32:450,0.471,0.325,0.827,231.872,182.006,178.772,
00:00:32:467,0.503,0.344,0.747,205.688,160.827,155.09,
00:00:32:483,0.579,0.325,0.689,152.465,145.446,123.23,
00:00:32:500,0.635,0.35,0.702,131.225,139.526,101.257,
00:00:32:517,0.662,0.261,0.666,123.047,137.085,88.684,
00:00:32:533,0.727,0.221,0.649,128.173,145.507,85.083,
00:00:32:550,0.789,0.159,0.547,116.76,176.941,80.261,
00:00:32:567,0.752,0.239,0.689,141.845,189.941,87.28,
00:00:32:583,0.728,0.28,0.689,177.124,210.51,95.947,
00:00:32:600,0.61,0.185,0.672,230.102,188.72,103.698,
00:00:32:617,0.585,0.158,0.552,189.209,220.092,74.462,
00:00:32:633,0.602,0.243,0.687,174.499,216.308,53.833,
00:00:32:650,0.605,0.377,0.79,148.315,186.035,31.127,
00:00:32:667,0.557,0.43,0.88,113.891,154.724,11.413,
00:00:32:683,0.582,0.41,0.895,79.345,135.437,4.455,
00:00:32:700,0.63,0.296,0.813,100.036,137.085,13.488,
00:00:32:717,0.69,0.311,0.788,82.885,121.215,24.047,
00:00:32:733,0.678,0.306,0.728,112.609,115.539,32.531,
00:00:32:750,0.662,0.264,0.671,118.957,114.441,19.531,
00:00:32:767,0.664,0.219,0.598,106.933,122.375,-2.564,
00:00:32:783,0.629,0.173,0.565,56.579,139.77,-26.49,
00:00:32:800,0.604,0.169,0.599,-29.664,144.47,-51.575,
00:00:32:817,0.669,0.232,0.724,-176.148,67.504,-33.143,
00:00:32:833,0.572,0.514,1.051,-181.214,-85.328,57.983,
00:00:32:850,0.146,0.157,0.792,-140.259,-87.769,71.044,
00:00:32:867,0.297,0.597,1.289,-171.509,-259.583,176.574,
00:00:32:883,0.148,0.323,1.25,26.428,-322.205,198.486,
00:00:32:900,0.007,0.447,1.271,44.86,-375.611,256.164,
00:00:32:917,-0.034,0.42,1.209,137.268,-416.81,305.664,
00:00:32:933,-0.051,0.394,1.15,210.937,-441.346,333.984,
00:00:32:950,-0.031,0.412,1.023,206.176,-458.863,332.763,
00:00:32:967,0.002,0.385,0.92,210.083,-457.581,317.321,
00:00:32:983,0.06,0.339,0.827,184.448,-446.106,273.925,
00:00:33:0,0.1,0.312,0.744,169.372,-418.702,221.313,
00:00:33:17,0.175,0.296,0.683,154.297,-373.658,138.916,
00:00:33:33,0.26,0.263,0.584,167.053,-319.825,46.569,
00:00:33:50,0.37,0.153,0.503,194.03,-235.901,-55.542,
00:00:33:67,0.494,0.159,0.5,200.195,-172.73,-151.856,
00:00:33:83,0.613,0.102,0.475,206.237,-87.586,-239.502,
00:00:33:100,0.708,0.144,0.442,171.447,2.929,-312.684,
00:00:33:117,0.786,0.114,0.435,203.674,95.398,-365.845,
00:00:33:133,0.904,0.088,0.376,170.41,255.554,-409.18,
00:00:33:150,0.967,0.058,0.421,128.723,303.039,-410.95,
00:00:33:167,1.003,0.09,0.398,60.669,343.994,-405.884,
00:00:33:183,0.988,0.163,0.321,-40.589,390.38,-361.573,
00:00:33:200,0.912,-0.176,0.002,68.725,518.249,-373.047,
00:00:33:217,1.332,-0.373,0.539,-351.319,294.86,-261.536,
00:00:33:233,1.505,0.598,1.731,-631.531,-184.144,97.534,
00:00:33:250,0.808,0.794,1.074,-64.209,-177.491,204.956,
00:00:33:267,0.821,0.166,0.744,-264.832,-152.588,305.175,
00:00:33:283,0.787,-0.295,0.8,181.518,13.488,269.958,
00:00:33:300,0.82,0.103,0.786,300.659,160.095,244.384,
00:00:33:317,0.875,0.258,0.779,299.011,210.632,212.28,
00:00:33:334,0.752,0.479,0.858,226.318,228.637,199.279,
00:00:33:350,0.629,0.372,0.804,161.316,198.425,167.663,
00:00:33:367,0.489,0.334,0.632,126.892,171.753,117.126,
00:00:33:384,0.489,0.263,0.608,25.268,134.46,46.814,
00:00:33:400,0.518,0.262,0.722,-69.214,124.817,-14.1,
00:00:33:417,0.569,0.298,0.853,-83.924,63.659,-27.344,
00:00:33:434,0.471,0.238,0.766,-136.17,77.88,-20.752,
00:00:33:450,0.445,0.109,0.79,-109.681,107.849,-36.438,
00:00:33:467,0.49,0.216,0.901,-99.61,124.939,-26.185,
00:00:33:484,0.549,0.297,0.911,-65.125,137.146,-22.706,
00:00:33:500,0.595,0.251,0.723,-36.927,150.94,-29.786,
00:00:33:517,0.549,0.265,0.776,-9.034,140.686,-4.822,
00:00:33:534,0.616,0.201,0.628,1.892,160.217,-29.114,
00:00:33:550,0.531,0.268,0.78,10.986,142.7,-12.452,
00:00:33:567,0.585,0.283,0.711,-33.509,133.911,-30.335,
00:00:33:584,0.562,0.319,0.86,8.361,102.172,-22.095,
00:00:33:600,0.533,0.232,0.745,-1.526,97.717,-49.927,
00:00:33:617,0.514,0.267,0.798,10.681,96.74,-43.641,
00:00:33:634,0.51,0.234,0.831,48.278,91.857,-36.377,
00:00:33:650,0.525,0.218,0.675,10.07,108.886,-73.731,
00:00:33:667,0.589,0.268,0.75,11.779,128.418,-91.004,
00:00:33:684,0.665,0.242,0.709,-6.897,120.788,-97.596,rollRH
00:00:33:700,0.641,0.192,0.631,-31.311,121.643,-100.037,
00:00:33:717,0.645,0.235,0.685,-66.834,131.958,-99.671,
00:00:33:734,0.692,0.201,0.728,-51.636,147.766,-106.69,
00:00:33:750,0.691,0.236,0.748,-34.607,155.822,-95.093,
00:00:33:767,0.681,0.165,0.697,-12.452,158.569,-90.943,
00:00:33:784,0.674,0.232,0.637,23.132,164.062,-78.614,
00:00:33:800,0.73,0.298,0.714,50.293,171.936,-81.177,
00:00:33:817,0.728,0.271,0.716,70.617,178.894,-86.243,
00:00:33:834,0.799,0.276,0.705,70.19,176.391,-83.924,
00:00:33:850,0.772,0.325,0.767,55.786,129.882,-69.336,
00:00:33:867,0.756,0.216,0.638,67.749,100.952,-71.412,
00:00:33:884,0.749,0.25,0.645,12.39,91.491,-85.328,
00:00:33:900,0.738,0.274,0.695,15.136,91.796,-93.811,
00:00:33:917,0.596,0.142,0.595,-16.602,138,-139.71,
00:00:33:934,0.422,0.141,0.4,-50.171,203.064,-117.493,
00:00:33:950,0.746,0.425,1.174,-78.675,66.65,-42.969,
00:00:33:967,0.522,0.225,1.15,-29.969,-44.19,-15.503,
00:00:33:984,0.301,0.404,1.069,5.371,-120.85,120.056,
00:00:34:0,0.414,0.524,1.451,-29.664,-295.35,181.64,
00:00:34:17,0.257,0.329,1.313,39.672,-403.443,197.204,
00:00:34:34,0.15,0.37,1.208,88.195,-478.76,271.911,
00:00:34:50,0.12,0.349,1.064,182.434,-510.56,309.082,
00:00:34:67,0.064,0.281,0.945,191.345,-516.968,317.688,
00:00:34:84,0.042,0.294,0.865,225.28,-504.7,332.641,
00:00:34:100,0.071,0.258,0.806,252.197,-469.666,313.171,
00:00:34:117,0.104,0.248,0.744,262.573,-420.105,281.311,
00:00:34:134,0.159,0.225,0.68,253.54,-371.705,228.881,
00:00:34:150,0.242,0.236,0.655,238.281,-322.632,167.907,
00:00:34:167,0.318,0.219,0.619,209.961,-276.917,98.571,
00:00:34:184,0.368,0.168,0.593,211.425,-238.16,20.385,
00:00:34:200,0.44,0.158,0.559,180.236,-187.012,-63.66,
00:00:34:217,0.523,0.179,0.564,161.56,-135.071,-144.349,
00:00:34:234,0.639,0.165,0.535,160.339,-65.43,-235.413,
00:00:34:250,0.716,0.103,0.518,121.032,-4.578,-297.425,
00:00:34:267,0.831,0.04,0.512,59.692,64.88,-382.386,
00:00:34:284,0.887,0.026,0.434,-28.199,124.511,-447.632,
00:00:34:300,0.936,0.019,0.406,-110.474,171.936,-476.197,
00:00:34:317,0.979,0.037,0.441,-68.604,221.618,-473.206,
00:00:34:334,0.972,-0.062,0.401,0.244,253.906,-453.064,
00:00:34:350,1.003,-0.025,0.329,-9.766,298.767,-433.655,
00:00:34:367,0.975,-0.024,0.242,-67.872,353.271,-406.006,
00:00:34:384,0.832,-0.076,0.108,-25.574,480.285,-384.278,
00:00:34:400,1.105,-0.666,-0.375,-253.357,532.959,-416.382,
00:00:34:417,1.576,0.572,1.885,-1257.508,-210.389,205.993,
00:00:34:434,0.715,0.835,1.146,-257.081,-113.099,96.435,
00:00:34:450,0.778,0.456,0.982,-512.024,-144.654,268.676,
00:00:34:467,0.781,-0.11,0.725,-280.091,-52.247,167.785,
00:00:34:484,0.795,0.215,0.532,-273.499,-1.954,152.221,
00:00:34:500,0.912,0.245,0.516,-325.745,26.245,115.844,
00:00:34:517,0.816,0.329,0.665,-248.963,33.508,112.732,
00:00:34:534,0.688,0.235,0.823,-205.262,32.043,110.534,
00:00:34:550,0.597,0.359,0.86,-171.753,59.204,102.905,
00:00:34:567,0.568,0.332,0.937,-101.563,84.228,82.885,
00:00:34:584,0.561,0.148,0.638,-34.424,142.334,57.434,
00:00:34:600,0.578,0.235,0.709,-3.357,175.232,41.565,
00:00:34:617,0.615,0.456,0.852,2.014,162.048,23.193,
00:00:34:634,0.583,0.338,0.664,-33.081,168.213,15.319,
00:00:34:650,0.554,0.375,0.811,-9.339,150.268,2.624,
00:00:34:667,0.506,0.38,0.764,-65.125,129.638,-26.673,
00:00:34:684,0.461,0.312,0.81,-124.207,111.45,-57.312,
00:00:34:700,0.489,0.36,0.818,-135.498,105.407,-87.586,
00:00:34:717,0.515,0.421,0.844,-137.818,89.721,-103.455,
00:00:34:734,0.501,0.309,0.756,-113.404,93.2,-107.666,
00:00:34:750,0.545,0.271,0.702,-103.028,100.28,-113.465,
00:00:34:767,0.603,0.32,0.712,-84.839,110.962,-128.357,
00:00:34:784,0.655,0.311,0.704,-85.511,112.487,-129.334,
00:00:34:800,0.699,0.252,0.645,-72.144,113.769,-121.582,
00:00:34:817,0.692,0.203,0.595,-49.622,114.624,-122.376,
00:00:34:834,0.753,0.238,0.537,-75.867,131.897,-130.127,
00:00:34:850,0.778,0.279,0.575,-86.792,127.075,-125.672,
00:00:34:867,0.723,0.263,0.506,-119.446,130.493,-118.409,
00:00:34:884,0.658,0.305,0.585,-135.56,116.027,-117.615,
00:00:34:900,0.595,0.3,0.66,-147.034,107.299,-110.535,
00:00:34:917,0.607,0.478,0.887,-175.66,77.514,-105.164,
00:00:34:934,0.579,0.531,0.976,-160.279,54.199,-100.281,
00:00:34:950,0.581,0.422,0.876,-87.342,49.133,-89.295,
00:00:34:967,0.628,0.301,0.736,-21.973,63.11,-92.896,
00:00:34:984,0.747,0.279,0.641,-3.113,67.932,-88.318,
00:00:35:0,0.746,0.297,0.548,26.123,60.302,-89.783,
00:00:35:17,0.783,0.287,0.423,-22.706,63.537,-112.977,
00:00:35:34,0.811,0.288,0.365,-83.802,74.646,-149.048,
00:00:35:50,0.868,0.198,0.266,-138.123,98.816,-183.655,
00:00:35:67,0.915,0.216,0.185,-216.98,136.535,-212.525,
00:00:35:84,0.999,0.446,0.473,-264.283,52.917,-135.804,
00:00:35:100,1.045,0.584,0.309,-652.222,17.639,-98.816,
00:00:35:117,1.052,0.401,0.209,-706.116,37.475,-44.861,
00:00:35:134,1.091,0.628,0.321,-770.325,18.249,36.071,
00:00:35:150,0.982,0.642,0.45,-682.923,-0.367,103.271,
00:00:35:167,0.854,0.66,0.486,-553.101,-26.185,146.972,
00:00:35:184,0.714,0.746,0.546,-578.675,-48.768,148.925,
00:00:35:200,0.536,0.694,0.555,-578.37,-75.806,133.056,
00:00:35:217,0.4,0.68,0.625,-642.029,-130.616,96.435,
00:00:35:234,0.28,0.666,0.702,-652.649,-183.96,42.968,
00:00:35:250,0.152,0.665,0.678,-662.171,-229.859,-9.339,
00:00:35:267,0.079,0.655,0.687,-625.489,-256.226,-49.683,
00:00:35:284,0.02,0.605,0.717,-625.123,-258.667,-100.892,
00:00:35:300,0.012,0.525,0.739,-632.386,-246.216,-150.696,
00:00:35:317,0.03,0.537,0.76,-593.018,-226.868,-189.942,
00:00:35:334,0.053,0.458,0.716,-599.488,-207.154,-235.596,
00:00:35:350,0.084,0.424,0.709,-573.975,-187.317,-259.217,
00:00:35:367,0.178,0.372,0.749,-481.629,-151.307,-270.325,
00:00:35:384,0.263,0.355,0.775,-418.885,-122.254,-265.442,
00:00:35:400,0.348,0.398,0.789,-351.38,-121.094,-281.922,
00:00:35:417,0.469,0.438,0.774,-277.894,-129.517,-276.734,
00:00:35:434,0.578,0.442,0.74,-234.009,-138.062,-265.137,
00:00:35:450,0.635,0.399,0.671,-142.334,-139.527,-224.122,
00:00:35:467,0.673,0.47,0.567,-108.155,-158.081,-201.722,
00:00:35:484,0.65,0.565,0.605,-65.796,-187.989,-188.965,
00:00:35:500,0.659,0.598,0.535,-6.104,-197.876,-197.327,
00:00:35:517,0.653,0.575,0.447,-30.945,-203.553,-212.952,
00:00:35:534,0.655,0.572,0.402,-98.45,-215.21,-233.094,
00:00:35:550,0.63,0.514,0.407,-145.997,-208.619,-281.678,
00:00:35:567,0.589,0.39,0.39,-221.192,-181.58,-369.873,
00:00:35:584,0.921,0.149,0.125,-271.79,-204.773,-430.787,
00:00:35:600,0.642,0.252,1.194,-193.177,-319.275,-439.637,
00:00:35:617,0.847,0.86,1.129,-427.796,-434.876,-399.842,
00:00:35:634,0.751,0.854,0.904,-92.225,-459.595,-362.61,
00:00:35:650,0.625,0.815,0.657,-283.143,-403.016,-399.659,
00:00:35:667,0.526,0.178,0.557,-245.24,-353.76,-362.244,
00:00:35:684,0.509,0.115,0.595,-223.755,-314.148,-348.084,
00:00:35:700,0.553,0.397,0.685,-200.684,-309.876,-323.487,
00:00:35:717,0.623,0.587,0.758,-85.633,-327.271,-261.78,
00:00:35:734,0.622,0.519,0.656,-99.732,-310.852,-246.766,
00:00:35:750,0.691,0.361,0.52,-105.896,-269.654,-248.291,
00:00:35:767,0.694,0.362,0.477,-49.622,-242.066,-234.314,
00:00:35:784,0.697,0.354,0.395,-45.594,-228.394,-217.102,
00:00:35:800,0.733,0.243,0.399,23.559,-191.529,-215.149,
00:00:35:817,0.865,0.374,0.382,18.371,-165.589,-190.43,
00:00:35:834,0.884,0.318,0.312,-28.809,-135.071,-167.298,
00:00:35:850,0.861,0.307,0.341,-58.472,-116.639,-157.959,
00:00:35:867,0.885,0.395,0.395,-81.543,-98.633,-157.471,
00:00:35:884,0.893,0.433,0.453,-99.244,-85.999,-154.786,
00:00:35:900,0.781,0.426,0.53,-85.144,-84.961,-133.973,
00:00:35:917,0.737,0.354,0.534,-52.124,-98.755,-105.713,
00:00:35:934,0.638,0.333,0.494,-32.715,-119.568,-88.013,
00:00:35:950,0.623,0.442,0.545,-49.988,-135.804,-77.759,
00:00:35:967,0.621,0.525,0.641,-50.415,-149.537,-71.717,
00:00:35:984,0.572,0.412,0.634,-24.781,-184.876,-63.538,
00:00:36:0,0.604,0.398,0.618,30.395,-183.899,-50.354,
00:00:36:17,0.586,0.39,0.658,59.753,-166.626,-39.978,
00:00:36:34,0.674,0.391,0.613,87.829,-163.331,-37.659,
00:00:36:50,0.669,0.365,0.594,57.678,-152.222,-25.574,
00:00:36:67,0.682,0.445,0.673,66.223,-147.522,-11.231,
00:00:36:84,0.643,0.527,0.747,58.898,-156.006,-17.456,
00:00:36:100,0.568,0.526,0.781,45.044,-185.669,-31.739,
00:00:36:117,0.464,0.446,0.738,43.212,-224.854,-33.448,
00:00:36:134,0.351,0.422,0.764,39.001,-255.494,-44.007,
00:00:36:150,0.253,0.463,0.908,5.188,-267.884,-65.186,
00:00:36:167,0.253,0.491,0.98,35.034,-295.899,-86.792,
00:00:36:184,0.195,0.471,0.961,41.259,-315.857,-125.184,
00:00:36:200,0.151,0.349,0.828,17.273,-285.34,-187.989,
00:00:36:217,0.199,0.271,0.771,30.151,-232.544,-245.179,
00:00:36:234,0.294,0.274,0.834,32.959,-164.307,-299.683,
00:00:36:250,0.498,0.425,0.909,56.335,-131.714,-330.811,
00:00:36:267,0.703,0.546,0.962,104.248,-118.531,-338.135,
