TIMECODE,ACC_X,ACC_Y,ACC_Z,GYR_X,GYR_Y,GYR_Z,ECG_I,ECG_II,ECG_III,TAG
,0.921,-0.217,0.261,-300.782,35.095,-62.317,0,0,0,
,0.93,-0.218,0.256,-335.206,39.794,-63.721,0,0,0,
,0.928,-0.22,0.243,-368.653,42.907,-65.186,0,0,0,
,0.931,-0.209,0.242,-391.48,44.86,-69.397,0,0,0,
,0.939,-0.193,0.235,-382.813,49.194,-75.745,0,0,0,
,0.94,-0.188,0.233,-346.497,47.424,-84.168,0,0,0,
,0.934,-0.187,0.229,-303.406,46.142,-93.079,0,0,0,
,0.93,-0.191,0.223,-264.1,49.316,-101.441,0,0,0,
,0.927,-0.188,0.222,-228.028,47.668,-106.69,0,0,0,
,0.923,-0.188,0.223,-198.67,54.016,-112.244,0,0,0,
,0.926,-0.192,0.218,-122.376,66.955,-108.582,0,0,0,
,0.931,-0.196,0.219,-94.056,66.589,-110.413,0,0,0,
,0.928,-0.188,0.217,-68.36,65.918,-107.972,0,0,0,
,0.924,-0.184,0.21,-28.626,63.354,-108.765,0,0,0,
,0.924,-0.188,0.202,-6.348,62.744,-107.239,0,0,0,
,0.921,-0.202,0.213,-16.541,57.556,-94.605,0,0,0,
,0.915,-0.211,0.233,-66.346,68.359,-88.99,0,0,0,
,0.919,-0.209,0.244,-134.217,79.101,-82.581,0,0,0,
,0.93,-0.199,0.262,-187.134,83.679,-75.135,0,0,0,
,0.945,-0.173,0.274,-255.555,71.106,-58.35,0,0,0,
,0.942,-0.169,0.287,-247.559,63.354,-48.645,0,0,0,
,0.942,-0.157,0.284,-217.835,51.818,-40.894,0,0,0,
,0.941,-0.156,0.279,-177.491,35.949,-36.866,0,0,0,
,0.944,-0.163,0.271,-141.358,18.859,-31.067,0,0,0,
,0.932,-0.175,0.252,-80.445,-3.846,-28.931,0,0,0,
,0.928,-0.171,0.24,-43.274,-4.212,-22.828,0,0,0,
,0.93,-0.181,0.227,-2.076,-4.395,-20.752,0,0,0,
,0.922,-0.192,0.218,13.916,-2.93,-15.076,0,0,0,
,0.92,-0.189,0.214,24.597,2.441,-8.301,0,0,0,
,0.924,-0.194,0.205,34.668,5.859,-5.372,0,0,0,
,0.926,-0.208,0.214,39.123,22.888,10.864,0,0,0,
,0.932,-0.207,0.22,32.653,30.944,15.991,0,0,0,
,0.906,-0.206,0.227,30.883,37.292,19.287,0,0,0,
,0.938,-0.206,0.242,33.691,38.513,18.127,0,0,0,
,0.938,-0.204,0.243,41.076,38.818,17.456,0,0,0,
,0.938,-0.196,0.259,62.011,38.269,13.488,0,0,0,
,0.944,-0.202,0.27,90.332,30.822,7.568,0,0,0,
,0.938,-0.21,0.275,97.778,24.475,1.525,0,0,0,
,0.936,-0.215,0.272,89.416,20.324,-6.531,0,0,0,
,0.944,-0.223,0.265,57.678,19.592,-11.231,0,0,0,
,0.942,-0.225,0.258,14.099,13.916,-16.663,0,0,0,
,0.933,-0.222,0.251,-28.077,11.718,-22.4,0,0,0,
,0.937,-0.212,0.246,-59.51,11.657,-26.062,0,0,0,
,0.936,-0.203,0.241,-72.998,9.826,-30.518,0,0,0,
,0.934,-0.204,0.236,-80.506,10.62,-34.058,0,0,0,
,0.932,-0.203,0.231,-86.426,9.887,-35.462,0,0,0,
,0.927,-0.198,0.222,-89.6,8.972,-36.011,0,0,0,
,0.925,-0.192,0.218,-90.149,10.253,-34.607,0,0,0,
,0.925,-0.188,0.22,-85.877,11.108,-32.471,0,0,0,
,0.922,-0.18,0.213,-73.853,10.681,-31.189,0,0,0,
,0.922,-0.177,0.214,-60.12,12.878,-28.016,0,0,0,
,0.926,-0.179,0.213,-46.998,12.207,-26.978,0,0,0,
,0.928,-0.178,0.216,-35.218,14.77,-25.391,0,0,0,
,0.935,-0.18,0.22,-26.307,13.977,-23.133,0,0,0,
,0.94,-0.179,0.224,-20.997,16.052,-22.339,0,0,0,
,0.939,-0.175,0.225,-15.686,14.648,-20.813,0,0,0,
,0.939,-0.17,0.226,-6.714,14.343,-19.898,0,0,0,
,0.937,-0.171,0.231,3.784,14.648,-17.945,0,0,0,
,0.935,-0.17,0.236,12.939,10.864,-18.067,0,0,0,
,0.932,-0.175,0.238,21.606,9.704,-16.175,0,0,0,
,0.93,-0.178,0.239,20.141,10.315,-16.663,0,0,0,
,0.932,-0.18,0.242,21.911,9.765,-14.527,0,0,0,
,0.932,-0.183,0.237,21.057,6.469,-11.231,0,0,0,
,0.937,-0.189,0.233,20.996,6.042,-8.912,0,0,0,
,0.931,-0.194,0.237,17.15,5.004,-11.109,0,0,0,
,0.935,-0.199,0.235,9.765,10.07,-10.621,0,0,0,
,0.941,-0.202,0.23,6.774,12.512,-12.146,0,0,0,
,0.932,-0.198,0.233,2.502,10.253,-12.513,0,0,0,
,0.928,-0.198,0.226,-0.672,10.62,-15.381,0,0,0,
,0.931,-0.197,0.228,-1.526,13.61,-18.494,0,0,0,
,0.929,-0.198,0.234,-7.935,13.732,-21.119,0,0,0,
,0.925,-0.197,0.233,-14.283,15.441,-22.034,0,0,0,
,0.926,-0.192,0.227,-16.175,17.273,-23.316,0,0,0,
,0.928,-0.189,0.228,-16.419,16.418,-24.17,0,0,0,
,0.932,-0.187,0.232,-16.175,16.296,-22.95,0,0,0,
,0.933,-0.185,0.23,-18.311,18.737,-23.133,0,0,0,
,0.94,-0.187,0.233,-22.461,19.47,-20.142,0,0,0,
,0.939,-0.183,0.23,-23.011,19.897,-22.034,0,0,0,
,0.941,-0.181,0.235,-23.011,19.47,-18.616,0,0,0,
,0.937,-0.179,0.238,-21.546,18.066,-18.128,0,0,0,
,0.932,-0.178,0.234,-19.959,16.479,-21.363,0,0,0,
,0.933,-0.182,0.229,-15.809,18.249,-19.837,0,0,0,
,0.931,-0.183,0.229,-16.236,13.61,-21.729,0,0,0,
,0.927,-0.177,0.232,-13.611,14.221,-21.851,0,0,0,
,0.933,-0.18,0.228,-6.165,16.113,-24.598,0,0,0,
,0.935,-0.184,0.227,-0.977,13.427,-23.377,0,0,0,
,0.934,-0.187,0.227,1.098,14.77,-20.752,0,0,0,
,0.937,-0.187,0.226,1.953,13.794,-17.701,0,0,0,
,0.932,-0.188,0.227,3.723,15.93,-15.32,0,0,0,
,0.932,-0.189,0.23,5.676,15.136,-15.625,0,0,0,
,0.926,-0.195,0.227,7.324,17.456,-14.283,0,0,0,
,0.926,-0.2,0.229,5.615,19.714,-17.64,0,0,0,
,0.927,-0.204,0.228,3.967,20.507,-19.776,0,0,0,
,0.929,-0.211,0.235,-7.264,24.047,-20.752,0,0,0,
,0.932,-0.213,0.237,-18.921,25.268,-26.062,0,0,0,
,0.934,-0.216,0.236,-31.25,24.841,-27.832,0,0,0,
,0.937,-0.214,0.227,-45.105,24.902,-29.786,0,0,0,
,0.936,-0.209,0.227,-56.824,25.94,-34.18,0,0,0,
,0.936,-0.206,0.229,-64.698,25.512,-36.622,0,0,0,
,0.935,-0.203,0.231,-73.304,24.231,-39.917,0,0,0,
,0.934,-0.194,0.233,-77.759,24.475,-42.481,0,0,0,
,0.931,-0.191,0.224,-81.177,21.484,-44.19,0,0,0,
,0.933,-0.18,0.224,-82.398,20.263,-46.326,0,0,0,
,0.938,-0.178,0.223,-79.468,19.714,-50.171,0,0,0,
,0.94,-0.174,0.222,-74.585,18.737,-52.369,0,0,0,
,0.946,-0.173,0.219,-59.449,17.028,-53.65,0,0,0,
,0.948,-0.177,0.216,-49.988,14.099,-55.176,0,0,0,
,0.946,-0.175,0.215,-49.439,12.817,-54.444,0,0,0,
,0.951,-0.171,0.216,-44.19,10.498,-55.97,0,0,0,
,0.95,-0.171,0.215,-40.589,9.887,-52.002,0,0,0,
,0.943,-0.167,0.216,-34.974,8.483,-53.345,0,0,0,
,0.942,-0.161,0.213,-18.982,5.92,-52.674,0,0,0,
,0.943,-0.162,0.213,-11.658,2.075,-51.392,0,0,0,
,0.938,-0.16,0.208,1.098,-0.428,-51.697,0,0,0,
,0.936,-0.162,0.212,1.77,3.173,-47.425,0,0,0,
,0.94,-0.164,0.213,6.713,1.77,-45.777,0,0,0,
,0.944,-0.153,0.215,14.831,0.061,-39.429,0,0,0,
,0.944,-0.164,0.209,22.033,-15.259,-32.715,0,0,0,
,0.943,-0.157,0.217,23.071,-1.404,-22.95,0,0,0,
,0.94,-0.159,0.219,35.339,-1.404,-19.349,0,0,0,
,0.939,-0.165,0.223,47.058,-0.977,-12.696,0,0,0,
,0.936,-0.175,0.22,51.391,-1.404,-10.315,0,0,0,
,0.933,-0.175,0.225,54.138,-3.418,-5.127,0,0,0,
,0.932,-0.182,0.22,51.818,1.709,-3.54,0,0,0,
,0.928,-0.188,0.224,39.001,0.732,-0.428,0,0,0,
,0.93,-0.189,0.223,41.137,2.563,0,0,0,0,
,0.935,-0.197,0.222,37.719,6.591,0.732,0,0,0,
,0.937,-0.192,0.226,39.794,4.272,1.77,0,0,0,
,0.935,-0.199,0.222,42.602,4.516,0.732,0,0,0,
,0.932,-0.198,0.224,39.245,6.225,-0.55,0,0,0,
,0.932,-0.203,0.225,38.147,6.469,-0.55,0,0,0,
,0.932,-0.2,0.228,34.668,7.08,-2.32,0,0,0,
,0.932,-0.204,0.228,36.01,5.798,-4.761,0,0,0,
,0.932,-0.204,0.226,32.959,8.422,-7.508,0,0,0,
,0.931,-0.205,0.23,29.48,7.141,-12.574,0,0,0,
,0.933,-0.206,0.232,28.808,5.615,-16.358,0,0,0,
,0.931,-0.213,0.233,22.399,4.821,-21.241,0,0,0,
,0.93,-0.192,0.232,22.644,7.69,-20.874,0,0,0,
,0.936,-0.204,0.23,25.146,5.798,-28.199,0,0,0,
,0.937,-0.202,0.228,11.291,2.441,-27.71,0,0,0,
,0.931,-0.19,0.23,5.493,4.394,-27.894,0,0,0,
,0.932,-0.183,0.229,11.535,3.418,-28.992,0,0,0,
,0.931,-0.184,0.225,16.479,2.563,-29.114,0,0,0,
,0.932,-0.185,0.224,17.639,5.798,-28.87,0,0,0,
,0.932,-0.184,0.223,19.897,3.967,-28.321,0,0,0,
,0.937,-0.184,0.224,20.08,3.906,-28.26,0,0,0,
,0.933,-0.18,0.219,22.461,6.652,-25.269,0,0,0,
,0.937,-0.183,0.188,27.099,5.493,-24.414,0,0,0,
,0.935,-0.184,0.222,30.639,3.784,-23.865,0,0,0,
,0.936,-0.184,0.221,34.423,7.873,-24.781,0,0,0,
,0.937,-0.185,0.223,36.926,6.774,-24.537,0,0,0,
,0.929,-0.183,0.223,40.1,5.065,-24.72,0,0,0,
,0.934,-0.183,0.216,49.621,12.329,-24.964,0,0,0,
,0.96,-0.176,0.222,58.837,16.906,-24.109,0,0,0,
,0.964,-0.166,0.234,83.923,12.023,-31.922,0,0,0,
,0.95,-0.16,0.241,116.821,6.347,-37.598,0,0,0,
,0.94,-0.172,0.242,138.672,-0.367,-47.242,0,0,0,
,0.933,-0.184,0.234,133.606,-4.09,-48.34,0,0,0,
,0.922,-0.187,0.225,114.624,-4.456,-48.462,0,0,0,
,0.919,-0.204,0.196,96.069,-1.099,-47.852,0,0,0,
,0.904,-0.248,0.185,81.543,16.479,-40.345,0,0,0,
,0.865,-0.269,0.195,78.308,61.218,-22.644,0,0,0,
,0.807,-0.307,0.439,24.719,99.609,-29.236,0,0,0,
,0.872,-0.335,0.671,-21.424,144.226,-73.731,0,0,0,
,0.918,-0.303,0.655,30.7,110.901,-121.521,0,0,0,
,0.999,-0.401,0.703,312.378,16.601,-229.432,0,0,0,
,1.025,-0.795,0.997,574.524,-195.74,-333.191,0,0,0,
,1.036,-1.27,1.227,637.024,-364.441,-495.667,0,0,0,
,1.113,-1.589,1.338,492.309,-534.668,-718.018,0,0,0,
,1.179,-1.594,1.565,256.164,-710.328,-938.355,0,0,0,
,1.294,-1.537,1.78,232.971,-824.952,-1246.399,0,0,0,
,1.532,-1.707,1.713,440.979,-963.074,-1596.192,0,0,0,
,1.764,-1.986,1.53,533.935,-1100.281,-1952.698,0,0,0,
,1.978,-2.124,1.309,572.754,-1186.036,-2000,0,0,0,
,2.256,-2.274,1.121,697.876,-1253.296,-2000,0,0,0,
,2.494,-2.54,0.939,614.929,-1318.055,-2000,0,0,0,
,2.662,-2.696,0.698,312.5,-1318.543,-2000,0,0,0,
,2.868,-2.848,0.524,-211.06,-1332.764,-2000,0,0,0,
,3.014,-2.738,0.314,-831.91,-1477.662,-2000,0,0,0,
,3.041,-2.356,0.141,-1256.165,-1746.155,-2000,0,0,0,
,2.888,-1.89,0.011,-1338.44,-2000,-2000,0,0,0,
,2.723,-1.628,-0.132,-1132.203,-2000,-2000,0,0,0,
,2.626,-1.312,-0.243,-785.401,-2000,-2000,0,0,0,
,2.41,-1.027,-0.324,-463.196,-2000,-2000,0,0,0,
,2.219,-0.75,-0.39,-160.279,-1813.233,-2000,0,0,0,
,2.024,-0.491,-0.431,44.555,-1539.856,-2000,0,0,0,
,1.923,-0.315,-0.458,7.263,-1234.07,-2000,0,0,0,
,1.892,-0.118,-0.481,-175.171,-978.028,-2000,0,0,0,
,1.798,0.163,-0.587,-415.65,-786.133,-2000,0,0,0,
,1.619,0.583,-0.669,-518.128,-598.572,-2000,0,0,0,
,1.372,0.949,-0.68,-450.684,-382.019,-2000,0,0,0,
,1.15,1.341,-0.591,-402.222,-138.489,-2000,0,0,0,
,0.921,1.554,-0.525,-453.98,77.087,-2000,0,0,0,
,0.789,1.786,-0.529,-558.838,240.966,-1662.293,0,0,0,
,0.727,1.994,-0.483,-540.223,340.698,-920.777,0,0,0,
,0.76,2.014,-0.41,-302.552,418.945,-106.263,0,0,0,
,0.811,1.893,-0.321,168.274,461.12,695.129,0,0,0,
,0.843,1.596,-0.242,689.514,455.688,1421.325,0,0,0,
,0.916,1.238,-0.178,1075.256,378.723,1999.694,0,0,0,
,1.002,0.878,-0.181,1311.279,224.792,1999.694,0,0,0,
,1.077,0.568,-0.183,1395.141,19.409,1999.694,0,0,0,
,1.154,0.335,-0.173,1326.294,-199.952,1999.694,0,0,0,
,1.296,0.123,-0.167,1184.875,-372.803,1999.694,0,0,0,
,1.481,-0.131,-0.186,1006.652,-499.207,1999.694,0,0,0,
,1.661,-0.371,-0.204,793.09,-556.58,1999.694,0,0,0,
,1.867,-0.486,-0.31,578.857,-506.775,1999.694,0,0,0,
,2.266,-0.603,-0.415,454.223,-382.386,1999.694,0,0,0,
,3.017,-0.907,-0.524,708.984,-358.826,1999.694,0,0,0,
,3.593,-1.443,-0.542,1523.376,-565.857,1999.694,0,0,0,
,3.951,-2.118,-0.531,1999.694,-918.519,1999.694,0,0,0,
,3.956,-2.307,-0.355,1999.694,-1412.293,1999.694,0,0,0,
,3.999,-2.173,-0.157,1999.694,-1792.481,1999.694,0,0,0,
,3.999,-1.905,0.068,1456.665,-2000,1999.694,0,0,0,
,3.999,-2.216,0.66,-23.682,-2000,1999.694,0,0,0,
,3.999,-3.608,1.568,-2000,-1740.479,1999.694,0,0,0,
,3.999,-3.018,-0.63,-2000,-611.206,1999.694,0,0,0,
,3.999,-3.364,-0.868,-2000,284.729,1999.694,0,0,0,
,2.508,-4,-0.439,-1767.823,-961.548,1999.694,0,0,0,
,0.862,0.846,0.807,852.478,177.551,1664.55,0,0,0,
,2.633,-0.744,0.483,1999.694,410.217,328.308,0,0,0,
,2.321,-2.006,0.981,-158.997,83.007,1138.794,0,0,0,
,1.102,-1.173,0.813,-1844.666,236.267,1593.444,0,0,0,
,1.106,-1.459,0.422,-2000,468.811,1258.911,0,0,0,
,1.01,-0.98,0.399,-1884.522,504.211,1334.594,0,0,0,
,0.795,-0.676,0.493,-887.146,345.886,1118.652,0,0,0,
,0.852,-0.734,0.439,247.436,279.419,927.49,0,0,0,
,0.999,-0.8,0.416,1112.915,122.253,825.866,0,0,0,
,0.996,-0.824,0.309,1604.004,-113.648,709.838,0,0,0,
,0.943,-0.882,0.246,1714.05,-245.728,527.832,0,0,0,
,0.885,-0.807,0.2,1585.022,-274.72,292.907,0,0,0,
,0.805,-0.681,0.183,1320.984,-280.579,47.546,0,0,0,
,0.745,-0.464,0.24,1076.782,-209.595,-168.457,0,0,0,
,0.78,-0.303,0.228,1000.244,-133.545,-420.472,0,0,0,
,0.833,-0.36,0.17,939.88,-84.778,-648.743,0,0,0,
,0.833,-0.419,0.155,784.912,-15.198,-835.755,0,0,0,
,0.876,-0.427,0.14,601.074,91.308,-1012.757,0,0,0,
,0.964,-0.4,0.098,489.318,133.728,-1174.988,0,0,0,
,1.049,-0.436,0.073,336.609,158.325,-1326.233,0,0,0,
,1.117,-0.417,0.058,86.486,187.927,-1433.838,0,0,0,
,1.177,-0.346,0.071,-188.721,221.313,-1507.752,0,0,0,
,1.255,-0.313,0.093,-386.658,254.211,-1571.29,0,0,0,
,1.317,-0.276,0.111,-501.587,239.502,-1605.896,0,0,0,
,1.355,-0.26,0.152,-569.214,213.867,-1631.165,0,0,0,
,1.377,-0.237,0.142,-593.995,194.458,-1640.076,0,0,0,
,1.363,-0.233,0.131,-605.164,167.602,-1630.982,0,0,0,
,1.346,-0.242,0.128,-632.386,160.339,-1597.168,0,0,0,
,1.325,-0.236,0.109,-657.349,147.949,-1536.255,0,0,0,
,1.291,-0.257,0.117,-687.561,124.878,-1485.718,0,0,0,
,1.239,-0.263,0.111,-700.257,106.933,-1429.81,0,0,0,
,1.181,-0.247,0.113,-680.603,91.857,-1378.418,0,0,0,
,1.112,-0.24,0.103,-638.062,86.608,-1328.919,0,0,0,
,1.038,-0.262,0.106,-595.032,94.238,-1283.082,0,0,0,
,1,-0.306,0.163,-575.318,118.957,-1234.803,0,0,0,
,1.092,-0.36,0.227,-572.998,154.968,-1191.773,0,0,0,
,1.13,-0.372,0.208,-526.246,86.059,-1148.804,0,0,0,
,1.015,-0.361,0.156,-390.992,1.953,-1130.555,0,0,0,
,0.823,-0.438,0.093,-104.432,5.188,-1090.21,0,0,0,
,0.789,-0.524,0.157,-106.324,34.179,-1048.951,0,0,0,
,0.79,-0.573,0.256,-214.783,59.814,-952.515,0,0,0,
,0.774,-0.611,0.273,-315.186,52.429,-848.511,0,0,0,
,0.737,-0.632,0.248,-321.351,42.724,-731.446,0,0,0,
,0.679,-0.65,0.217,-243.103,35.461,-617.371,0,0,0,
,0.626,-0.666,0.198,-125.367,39.55,-526.368,0,0,0,
,0.58,-0.659,0.184,17.211,53.161,-467.835,0,0,0,
,0.55,-0.641,0.202,200.5,81.543,-425.232,0,0,0,
,0.561,-0.634,0.217,422.729,112.304,-386.048,0,0,0,
,0.551,-0.616,0.186,988.525,138.61,-288.086,0,0,0,
,0.542,-0.678,0.13,1176.88,147.705,-210.938,0,0,0,
,0.548,-0.803,0.066,1043.274,139.465,-130.372,0,0,0,
,0.524,-0.874,0.023,615.234,116.821,-23.987,0,0,0,
,0.491,-0.821,0.014,229.492,107.605,57.067,0,0,0,
,0.48,-0.755,0.02,-89.356,102.661,119.323,0,0,0,
,0.47,-0.679,0.039,-317.566,110.656,169.922,0,0,0,
,0.469,-0.611,0.079,-405.396,121.154,211.303,0,0,0,
,0.492,-0.646,0.08,-418.457,122.07,233.947,0,0,0,
,0.51,-0.738,0.066,-527.466,119.079,253.051,0,0,0,
,0.535,-0.784,0.061,-726.258,119.629,277.832,0,0,0,
,0.578,-0.739,0.093,-921.814,116.577,306.579,0,0,0,
,0.613,-0.666,0.118,-1005.188,111.328,338.989,0,0,0,
,0.64,-0.604,0.151,-968.018,106.445,366.333,0,0,0,
,0.671,-0.604,0.174,-888.306,108.764,394.714,0,0,0,
,0.703,-0.624,0.208,-811.707,100.525,410.766,0,0,0,
,0.727,-0.637,0.251,-728.943,91.491,422.546,0,0,0,
,0.772,-0.644,0.277,-658.265,80.566,429.016,0,0,0,
,0.787,-0.616,0.304,-611.878,67.81,431.152,0,0,0,
,0.793,-0.561,0.321,-535.218,58.105,424.011,0,0,0,
,0.853,-0.536,0.286,-441.468,57.251,411.865,0,0,0,
,0.931,-0.549,0.213,-347.962,107.727,407.592,0,0,0,
,1.077,-0.676,0.298,-423.829,15.197,387.329,0,0,0,
,0.87,-0.555,0.343,-516.48,-11.17,338.379,0,0,0,
,0.804,-0.419,0.403,-378.113,19.897,298.462,0,0,0,
,0.842,-0.503,0.42,-243.592,74.157,245.849,0,0,0,
,0.866,-0.506,0.44,-274.109,111.45,241.882,0,0,0,
,0.885,-0.445,0.447,-348.572,139.709,244.506,0,0,0,
,0.883,-0.407,0.448,-384.095,138.427,262.512,0,0,0,
,0.843,-0.423,0.46,-435.303,132.202,273.681,0,0,0,
,0.838,-0.373,0.496,-506.348,124.511,316.711,0,0,0,
,0.835,-0.274,0.521,-423.706,112.182,346.923,0,0,0,
,0.847,-0.278,0.514,-259.4,96.74,356.018,0,0,0,
,0.837,-0.27,0.499,-91.919,80.749,355.774,0,0,0,
,0.804,-0.298,0.471,94.848,63.476,329.834,0,0,0,
,0.777,-0.334,0.447,237.243,32.226,288.818,0,0,0,
,0.771,-0.362,0.476,311.279,17.089,237.182,0,0,0,
,0.782,-0.382,0.464,354.126,67.81,109.069,0,0,0,
,0.841,-0.406,0.479,419.555,62.683,59.753,0,0,0,
,0.876,-0.428,0.482,438.232,46.752,-21.79,0,0,0,
,0.886,-0.459,0.446,429.992,15.625,-83.008,0,0,0,
,0.88,-0.56,0.393,337.585,-5.738,-149.659,0,0,0,
,0.916,-0.414,0.456,406.738,-28.443,-135.132,0,0,0,
,0.906,-0.507,0.411,447.082,-33.997,-181.946,0,0,0,
,0.88,-0.412,0.381,294.799,0.061,-100.953,0,0,0,
,0.855,-0.344,0.385,281.25,0.854,-91.065,0,0,0,
,0.819,-0.365,0.384,216.186,6.836,-38.025,0,0,0,
,0.792,-0.398,0.37,132.568,27.71,-23.499,0,0,0,
,0.79,-0.495,0.336,-54.993,48.156,-15.809,0,0,0,
,0.804,-0.59,0.321,-395.386,68.42,-22.339,0,0,0,
,0.823,-0.583,0.262,-774.659,84.106,-51.697,0,0,0,
,0.854,-0.544,0.287,-1099.427,57.983,-96.497,0,0,0,
,0.882,-0.479,0.341,-1225.831,7.934,-182.068,0,0,0,
,0.875,-0.474,0.389,-1095.643,-82.581,-276.185,0,0,0,
,0.813,-0.237,0.316,-906.25,-74.524,-241.394,0,0,0,
,0.873,-0.207,0.37,-496.766,-122.132,-304.993,0,0,0,
,0.875,-0.375,0.432,-271.485,-217.347,-343.445,0,0,0,
,0.775,-0.439,0.446,-356.995,-223.145,-334.839,0,0,0,
,0.77,-0.413,0.485,-476.746,-148.377,-303.223,0,0,0,
,0.802,-0.308,0.507,-458.863,-107.605,-256.958,0,0,0,
,0.743,-0.242,0.608,-211.182,-86.487,-213.501,0,0,0,
,0.755,-0.447,0.812,291.626,-132.63,-299.622,0,0,0,
,0.731,-0.491,0.631,351.379,-198.67,-250.123,0,0,0,
,0.647,-0.515,0.425,-85.389,-164.795,-242.005,0,0,0,
,0.611,-0.436,0.442,-389.344,-91.431,-210.144,0,0,0,
,0.61,-0.324,0.535,-310.242,-47.059,-224.488,0,0,0,
,0.655,-0.344,0.525,-168.152,-48.523,-227.295,0,0,0,
,0.626,-0.384,0.547,-123.78,-60.181,-268.128,0,0,0,
,0.631,-0.435,0.546,-90.516,-36.377,-245.789,0,0,0,
,0.683,-0.431,0.548,-37.11,-48.89,-233.948,0,0,0,
,0.699,-0.45,0.634,-40.284,-51.392,-248.78,0,0,0,
,0.689,-0.405,0.574,-23.987,-51.026,-224.671,0,0,0,
,0.71,-0.411,0.643,22.949,-81.116,-225.22,0,0,0,
,0.712,-0.444,0.693,82.092,-129.395,-255.921,0,0,0,
,0.708,-0.412,0.71,95.886,-153.016,-261.475,0,0,0,
,0.717,-0.36,0.681,167.236,-162.72,-277.71,0,0,0,
,0.738,-0.352,0.678,290.039,-170.899,-295.166,0,0,0,
,0.758,-0.425,0.698,326.599,-185.364,-300.477,0,0,0,
,0.767,-0.507,0.727,230.102,-193.421,-278.626,0,0,0,
,0.762,-0.478,0.731,73.913,-190.735,-226.014,0,0,0,
,0.809,-0.474,0.716,-48.584,-172.303,-203.309,0,0,0,
,0.843,-0.449,0.769,-123.902,-207.886,-151.978,0,0,0,
,0.809,-0.468,0.834,-84.046,-283.875,-172.791,0,0,0,
,0.753,-0.475,0.826,-124.817,-367.066,-176.575,0,0,0,
,0.662,-0.472,0.789,-231.751,-429.871,-169.678,0,0,0,
,0.613,-0.511,0.781,-145.447,-434.998,-226.197,0,0,0,
,0.601,-0.686,0.72,-23.377,-438.782,-268.25,0,0,0,
,0.559,-0.936,0.671,-150.513,-431.031,-347.901,0,0,0,
,0.547,-0.879,0.632,-541.687,-347.352,-352.539,0,0,0,
,0.501,-0.626,0.351,-713.074,-227.601,-439.881,0,0,0,
,0.544,-0.67,0.692,-232.422,-276.246,-484.559,0,0,0,
,0.527,-0.214,0.709,403.808,-279.053,-374.695,0,0,0,
,0.305,-0.553,0.63,646.789,-325.379,-336.853,0,0,0,
,0.27,-0.638,0.614,511.901,-219.422,-303.711,0,0,0,
,0.267,-0.536,0.567,470.825,-154.786,-278.931,0,0,0,
,0.24,-0.642,0.575,605.529,-152.955,-289.246,0,0,0,
,0.147,-0.64,0.572,716.797,2.38,-259.156,0,0,0,
,0.127,-0.648,0.55,840.026,32.775,-255.494,0,0,0,
,0.124,-0.764,0.491,805.725,55.725,-260.193,0,0,0,
,0.124,-0.801,0.451,643.676,83.435,-247.437,0,0,0,
,0.125,-0.738,0.402,554.138,132.263,-239.747,0,0,0,
,0.14,-0.747,0.366,572.143,163.757,-250.428,0,0,0,
,0.141,-0.796,0.331,572.754,189.026,-250.061,0,0,0,
,0.139,-0.809,0.317,537.963,232.116,-237.915,0,0,0,
,0.147,-0.824,0.315,473.022,271.972,-228.577,0,0,0,
,0.15,-0.819,0.328,405.09,314.453,-201.905,0,0,0,
,0.163,-0.812,0.346,337.341,350.036,-192.078,0,0,0,
,0.175,-0.814,0.33,268.432,373.291,-176.88,0,0,0,
,0.197,-0.816,0.317,171.814,390.075,-177.002,0,0,0,
,0.211,-0.81,0.331,103.454,406.616,-166.993,0,0,0,
,0.219,-0.838,0.272,102.172,411.682,-167.542,0,0,0,
,0.191,-0.892,0.257,91.491,405.029,-119.751,0,0,0,
,0.213,-0.849,0.244,37.475,448.608,-116.7,0,0,0,
,0.217,-0.801,0.22,59.265,458.679,-103.943,0,0,0,
,0.179,-0.858,0.234,54.992,466.369,-97.901,0,0,0,
,0.175,-0.798,0.247,12.573,498.596,-75.501,0,0,0,
,0.196,-0.812,0.263,24.841,479.614,-51.575,0,0,0,
,0.157,-0.825,0.279,31.311,442.566,-13.306,0,0,0,
,0.153,-0.829,0.293,30.029,416.992,-4.578,0,0,0,
,0.173,-0.843,0.285,60.73,370.849,8.728,0,0,0,
,0.194,-0.821,0.277,175.109,244.873,92.163,0,0,0,
,0.234,-0.829,0.282,252.746,211.67,142.151,0,0,0,
,0.302,-0.839,0.236,299.255,195.495,167.785,0,0,0,
,0.38,-0.936,0.194,300.781,175.659,166.748,0,0,0,
,0.398,-1.031,0.179,189.575,190.124,152.099,0,0,0,
,0.449,-0.948,0.211,61.035,242.736,135.681,0,0,0,
,0.492,-0.916,0.291,34.423,244.873,118.774,0,0,0,
,0.517,-0.837,0.338,62.377,247.863,127.258,0,0,0,
,0.574,-0.749,0.353,197.021,216.797,143.005,0,0,0,
,0.566,-0.787,0.303,335.388,185.669,165.649,0,0,0,
,0.611,-0.793,0.258,368.896,186.584,173.584,0,0,0,
,0.638,-0.881,0.261,338.928,174.194,163.269,0,0,0,
,0.705,-0.938,0.274,268.676,155.029,166.137,0,0,0,
,0.781,-0.879,0.237,190.063,130.249,181.396,0,0,0,
,0.764,-0.748,0.235,197.998,98.816,196.777,0,0,0,
,0.763,-0.769,0.223,317.566,80.688,182.495,0,0,0,
,0.787,-0.767,0.2,332.824,77.819,192.321,0,0,0,
,0.777,-0.764,0.325,365.783,35.949,210.571,0,0,0,
,0.977,-0.869,0.271,330.261,48.584,176.147,0,0,0,
,0.844,-0.564,0.195,247.985,21.301,231.14,0,0,0,
,0.747,-0.676,0.201,292.541,1.586,171.692,0,0,0,
,0.781,-0.613,0.224,200.927,28.137,216.247,0,0,0,
,0.663,-0.714,0.199,593.505,-72.449,216.003,0,0,0,
,0.593,-0.755,0.126,729.309,-94.483,229.37,0,0,0,
,0.553,-0.743,0.064,818.542,-100.708,252.868,0,0,0,
,0.578,-0.735,0.057,1013.733,-117.371,270.385,0,0,0,
,0.599,-0.718,0.007,1146.484,-123.23,297.546,0,0,0,
,0.632,-0.665,-0.074,1288.391,-120.179,331.909,0,0,0,
,0.641,-0.712,-0.147,1362.243,-117.92,345.031,0,0,0,
,0.633,-0.712,-0.251,1334.411,-98.633,360.839,0,0,0,
,0.664,-0.634,-0.33,1333.496,-62.195,366.027,0,0,0,
,0.646,-0.572,-0.216,1467.59,-75.196,373.352,0,0,0,
,0.675,-0.79,-0.337,1427.368,-82.825,328.857,0,0,0,
,0.683,-0.696,-0.5,1293.09,-83.374,312.744,0,0,0,
,0.698,-0.849,-0.577,1086.853,-90.943,243.408,0,0,0,
,0.689,-0.774,-0.551,513,-44.983,160.217,0,0,0,
,0.708,-0.774,-0.53,275.695,-0.061,113.22,0,0,0,
,0.765,-0.713,-0.469,157.226,36.743,33.935,0,0,0,
,0.805,-0.771,-0.417,22.583,49.804,-31.8,0,0,0,
,0.787,-0.729,-0.432,-227.662,81.237,-84.9,0,0,0,
,0.814,-0.702,-0.358,-321.839,93.322,-107.056,0,0,0,
,0.792,-0.695,-0.324,-299.805,112.609,-124.329,0,0,0,
,0.81,-0.706,-0.284,-229.065,118.652,-133.789,0,0,0,
,0.805,-0.669,-0.337,-157.532,128.173,-156.311,0,0,0,
,0.76,-0.752,-0.44,12.817,103.942,-169.434,0,0,0,
,0.739,-0.784,-0.294,-21.912,93.078,-163.392,0,0,0,
,0.703,-0.57,-0.23,-48.035,87.402,-132.019,0,0,0,
,0.674,-0.615,-0.238,128.54,47.729,-172.547,0,0,0,
,0.604,-0.658,-0.248,139.587,11.108,-139.039,0,0,0,
,0.538,-0.662,-0.256,101.562,-11.963,-109.742,0,0,0,
,0.583,-0.691,-0.368,36.438,2.99,-68.787,0,0,0,
,0.611,-0.726,-0.407,-66.773,-6.592,-32.288,0,0,0,
,0.604,-0.676,-0.393,-124.329,-8.789,-5.372,0,0,0,
,0.616,-0.689,-0.407,-109.803,1.831,-17.945,0,0,0,
,0.614,-0.724,-0.4,-151.612,4.089,-21.729,0,0,0,
,0.607,-0.678,-0.386,-206.788,10.559,-14.71,0,0,0,
,0.622,-0.639,-0.374,-226.38,14.77,-23.987,0,0,0,
,0.671,-0.639,-0.389,-173.096,23.681,-53.162,0,0,0,
,0.675,-0.635,-0.384,-178.162,26.245,-55.42,0,0,0,
,0.679,-0.585,-0.363,-138.672,25.268,-55.542,0,0,0,
,0.689,-0.572,-0.359,-47.425,27.954,-56.702,0,0,0,
,0.705,-0.594,-0.353,36.071,23.437,-55.97,0,0,0,
,0.708,-0.617,-0.345,95.703,13.244,-55.054,0,0,0,
,0.711,-0.653,-0.34,131.469,1.648,-59.632,0,0,0,
,0.707,-0.677,-0.336,129.211,-7.264,-58.411,0,0,0,
,0.698,-0.684,-0.339,127.624,-10.01,-58.411,0,0,0,
,0.692,-0.689,-0.336,112.609,-6.165,-60.914,0,0,0,
,0.681,-0.722,-0.349,65.124,-2.991,-69.153,0,0,0,
,0.682,-0.734,-0.326,-2.381,5.432,-70.679,0,0,0,
,0.687,-0.743,-0.315,-41.932,13.183,-80.933,0,0,0,
,0.698,-0.783,-0.306,-51.148,14.587,-105.53,0,0,0,
,0.698,-0.823,-0.305,-86.304,11.352,-130.86,0,0,0,
,0.696,-0.817,-0.292,-125.123,7.995,-150.452,0,0,0,
,0.702,-0.826,-0.301,-142.151,7.019,-175.11,0,0,0,
,0.707,-0.841,-0.294,-157.837,-14.71,-199.097,0,0,0,
,0.713,-0.892,-0.328,-202.637,10.803,-242.554,0,0,0,
,0.709,-0.934,-0.311,-318.116,45.166,-309.021,0,0,0,
,0.712,-0.947,-0.304,-333.924,66.162,-359.375,0,0,0,
,0.718,-1.025,-0.322,-391.358,70.129,-408.204,0,0,0,
,0.709,-1.092,-0.302,-588.685,62.011,-482.666,0,0,0,
,0.68,-1.077,-0.274,-839.905,52.795,-513.428,0,0,0,
,0.653,-0.972,-0.276,-1013.367,82.702,-556.58,0,0,0,
,0.601,-0.845,-0.23,-1094.117,119.629,-561.646,0,0,0,
,0.581,-0.819,-0.288,-1220.398,137.024,-526.978,0,0,0,
,0.521,-0.822,-0.251,-1326.783,123.474,-467.957,0,0,0,
,0.475,-0.883,-0.226,-1461.976,130.371,-432.312,0,0,0,
,0.454,-0.84,-0.129,-1506.775,149.292,-387.269,0,0,0,
,0.451,-0.844,0.001,-1454.468,119.69,-380.921,0,0,0,
,0.406,-0.828,0.046,-1454.163,85.815,-366.272,0,0,0,
,0.381,-0.85,-0.053,-1588.196,69.274,-353.272,0,0,0,
,0.345,-0.757,-0.002,-1745.423,85.266,-294.678,0,0,0,
,0.312,-0.673,0.086,-1922.12,123.535,-220.581,0,0,0,
,0.298,-0.714,0.034,-2000,125.244,-150.086,0,0,0,
,0.201,-0.629,0.037,-2000,177.368,-58.533,0,0,0,
,0.153,-0.255,0.179,-2000,232.788,84.228,0,0,0,
,0.251,-0.302,0.256,-2000,89.721,172.912,0,0,0,
,0.123,-0.328,0.11,-2000,-70.679,203.735,0,0,0,
,-0.203,-0.061,0.075,-2000,129.943,268.798,0,0,0,
,-0.166,0.27,0.191,-2000,452.758,371.399,0,0,0,
,0.232,0.059,0.405,-1766.175,600.891,338.928,0,0,0,
,0.233,-0.279,0.358,-1175.66,742.736,297.729,0,0,0,
,0.324,-0.615,0.383,-1036.988,908.691,200.012,0,0,0,
,0.451,-0.444,0.51,-1131.409,1084.777,170.532,0,0,0,
,0.828,-0.327,0.853,-1040.528,1048.95,134.094,0,0,0,
,0.916,-0.245,1.103,-970.398,910.522,70.8,0,0,0,
,0.904,-0.06,0.957,-738.831,741.882,106.14,0,0,0,
,0.954,-0.073,0.912,-554.505,603.576,147.888,0,0,0,
,1.023,-0.003,0.863,-489.93,520.63,156.189,0,0,0,
,1.42,0.141,-0.051,-550.538,534.729,90.148,0,0,0,
,0.873,0.114,1.002,-60.12,359.619,50.537,0,0,0,
,1.049,-0.01,0.852,100.402,272.888,78.125,0,0,0,
,1.154,0.098,1.029,348.327,130.127,29.907,0,0,0,
,0.892,-0.07,0.96,376.037,19.958,3.479,0,0,0,
,0.951,0.062,0.949,333.252,-34.485,-15.748,0,0,0,
,0.8,0.063,0.822,200.012,-37.049,-31.128,0,0,0,
,0.743,0.192,0.807,120.056,-21.363,5.554,0,0,0,
,0.754,0.164,0.798,99.853,-16.053,27.587,0,0,0,
,0.747,0.042,0.714,31.799,-18.86,36.193,0,0,0,
,0.728,0.004,0.703,-51.026,-14.222,33.752,0,0,0,
,0.737,-0.01,0.69,-94.178,-7.325,20.813,0,0,0,
,0.734,-0.018,0.715,-119.446,-1.038,7.629,0,0,0,
,0.725,-0.019,0.7,-104.31,4.211,-10.804,0,0,0,
,0.736,-0.025,0.724,-98.877,2.136,-17.029,0,0,0,
,0.729,-0.066,0.701,-93.201,-6.592,-20.264,0,0,0,
,0.73,-0.067,0.7,-92.041,-21.363,-23.743,0,0,0,
,0.727,-0.067,0.691,-98.389,-33.265,-26.062,0,0,0,
,0.718,-0.094,0.681,-96.619,-41.565,-36.255,0,0,0,
,0.722,-0.068,0.683,-72.083,-51.88,-43.824,0,0,0,
,0.733,-0.081,0.688,-39.673,-59.266,-50.293,0,0,0,
,0.744,-0.087,0.689,-19.532,-76.477,-56.153,0,0,0,
,0.749,-0.063,0.708,-12.513,-91.187,-53.467,0,0,0,
,0.74,-0.066,0.74,29.785,-103.15,-48.157,0,0,0,
,0.749,-0.097,0.735,89.721,-108.887,-57.373,0,0,0,
,0.75,-0.135,0.741,171.142,-111.817,-82.276,0,0,0,
,0.773,-0.163,0.796,235.595,-115.723,-106.934,0,0,0,
,0.786,-0.216,0.813,290.893,-134.095,-117.432,0,0,0,
,0.793,-0.245,0.835,359.436,-166.382,-128.052,0,0,0,
,0.786,-0.207,0.845,458.191,-210.328,-139.466,0,0,0,
,0.8,-0.213,0.848,481.262,-273.316,-143.494,0,0,0,
,0.81,-0.168,0.839,490.539,-346.436,-141.785,0,0,0,
,0.807,-0.153,0.814,555.969,-404.297,-156.983,0,0,0,
,0.829,-0.116,0.779,684.936,-454.529,-186.036,0,0,0,
,0.776,-0.127,0.717,928.222,-498.108,-211.609,0,0,0,
,0.77,-0.177,0.756,1062.683,-522.278,-231.324,0,0,0,
,0.762,-0.1,0.71,1162.719,-542.298,-230.591,0,0,0,
,0.696,-0.138,0.719,1348.755,-568.238,-218.323,0,0,0,
,0.674,-0.173,0.723,1496.154,-570.618,-205.75,0,0,0,
,0.675,-0.158,0.752,1633.972,-582.154,-179.017,0,0,0,
,0.615,-0.279,0.688,1744.873,-574.83,-192.872,0,0,0,
,0.565,-0.371,0.668,1869.629,-554.017,-190.857,0,0,0,
,0.566,-0.41,0.694,1986.45,-525.818,-199.646,0,0,0,
,0.519,-0.42,0.618,1999.694,-487.549,-210.45,0,0,0,
,0.47,-0.475,0.534,1999.694,-463.929,-230.835,0,0,0,
,0.437,-0.612,0.506,1999.694,-460.999,-230.286,0,0,0,
,0.398,-0.652,0.494,1999.694,-471.192,-199.402,0,0,0,
,0.395,-0.637,0.484,1999.694,-501.709,-188.843,0,0,0,
,0.314,-0.723,0.159,1999.694,-623.291,-102.784,0,0,0,
,0.291,-0.727,0.057,1999.694,-592.102,-59.571,0,0,0,
,0.317,-0.778,-0.011,1999.633,-550.843,-31.8,0,0,0,
,0.34,-0.888,-0.145,1810.241,-527.588,-28.992,0,0,0,
,0.328,-1.054,-0.243,1282.837,-489.319,-29.664,0,0,0,
,0.317,-1.001,-0.294,776.245,-420.166,-11.353,0,0,0,
,0.347,-0.946,-0.299,443.054,-365.662,-25.147,0,0,0,
,0.341,-0.974,-0.282,155.944,-336.304,-42.115,0,0,0,
,0.327,-0.945,-0.234,-54.749,-301.087,-43.274,0,0,0,
,0.331,-0.908,-0.217,-101.929,-283.997,-48.89,0,0,0,
,0.331,-0.906,-0.216,-44.983,-269.898,-57.251,0,0,0,
,0.328,-0.944,-0.245,5.065,-271.363,-61.829,0,0,0,
,0.321,-0.973,-0.262,41.626,-258.789,-69.397,0,0,0,
,0.327,-0.984,-0.267,52.063,-230.591,-93.079,0,0,0,
,0.293,-0.959,-0.28,60.852,-190.064,-83.619,0,0,0,
,0.284,-0.907,-0.246,129.882,-168.946,-82.459,0,0,0,
,0.271,-0.96,-0.245,120.3,-165.65,-93.873,0,0,0,
,0.247,-0.987,-0.236,7.629,-148.316,-91.98,0,0,0,
,0.249,-0.999,-0.231,-110.047,-123.658,-90.882,0,0,0,
,0.245,-1.001,-0.226,-196.9,-112.244,-93.14,0,0,0,
,0.236,-0.99,-0.232,-259.217,-87.769,-92.469,0,0,0,
,0.231,-0.979,-0.234,-283.692,-59.632,-81.177,0,0,0,
,0.251,-0.946,-0.228,-282.898,-6.775,-61.097,0,0,0,
,0.277,-0.938,-0.2,-234.192,48.523,-44.922,0,0,0,
,0.299,-0.941,-0.162,-199.219,87.951,-33.081,0,0,0,
,0.314,-0.944,-0.102,-144.043,128.173,-29.297,0,0,0,
,0.31,-0.951,-0.047,-98.267,139.099,-36.499,0,0,0,
,0.296,-0.961,-0.031,-74.219,150.695,-45.044,0,0,0,
,0.317,-0.952,-0.014,-32.776,156.311,-41.993,0,0,0,
,0.313,-0.955,-0.011,13.794,142.334,-34.241,0,0,0,
,0.3,-0.947,-0.025,71.594,134.948,-31.128,0,0,0,
,0.298,-0.947,-0.049,115.478,133.85,-14.466,0,0,0,
,0.307,-0.924,-0.082,143.676,149.963,12.695,0,0,0,
,0.284,-0.941,-0.098,148.254,158.569,24.169,0,0,0,
,0.286,-0.937,-0.11,120.117,190.063,39.733,0,0,0,
,0.295,-0.912,-0.111,111.206,213.623,68.237,0,0,0,
,0.285,-0.904,-0.11,141.357,231.384,90.637,0,0,0,
,0.291,-0.903,-0.116,243.591,263.672,135.254,0,0,0,
,0.274,-0.947,-0.106,233.459,249.755,159.057,0,0,0,
,0.276,-0.981,-0.127,170.715,232.666,157.226,0,0,0,
,0.275,-0.971,-0.162,84.106,221.069,155.7,0,0,0,
,0.27,-0.921,-0.196,40.649,223.388,151.184,0,0,0,
,0.26,-0.882,-0.236,58.044,232.483,158.02,0,0,0,
,0.27,-0.866,-0.261,119.69,254.455,166.931,0,0,0,
,0.302,-0.89,-0.306,180.603,284.118,178.222,0,0,0,
,0.344,-0.944,-0.335,170.044,302.795,194.702,0,0,0,
,0.401,-0.999,-0.328,90.942,319.336,194.458,0,0,0,
,0.426,-0.98,-0.29,-4.761,324.401,177.429,0,0,0,
,0.44,-0.966,-0.262,-48.279,315.185,140.503,0,0,0,
,0.462,-0.96,-0.223,-45.35,297.363,122.07,0,0,0,
,0.456,-0.922,-0.204,-27.649,277.465,107.177,0,0,0,
,0.471,-0.873,-0.188,48.767,250.122,108.52,0,0,0,
,0.455,-0.856,-0.189,128.967,239.807,111.999,0,0,0,
,0.441,-0.822,-0.238,203.674,202.636,124.939,0,0,0,
,0.415,-0.89,-0.257,229.37,190.857,121.032,0,0,0,
,0.397,-0.89,-0.305,215.332,180.481,119.262,0,0,0,
,0.409,-0.874,-0.303,193.969,162.414,118.53,0,0,0,
,0.361,-0.888,-0.315,191.894,146.301,115.905,0,0,0,
,0.392,-0.846,-0.332,157.776,135.009,122.924,0,0,0,
,0.373,-0.838,-0.344,137.878,126.037,126.159,0,0,0,
,0.408,-0.852,-0.362,133.606,120.3,125.854,0,0,0,
,0.412,-0.792,-0.354,162.109,110.534,134.704,0,0,0,
,0.428,-0.784,-0.379,260.437,100.647,140.564,0,0,0,
,0.408,-0.832,-0.394,304.321,85.327,142.334,0,0,0,
,0.394,-0.823,-0.407,313.476,75.012,142.334,0,0,0,
,0.383,-0.826,-0.427,323.425,66.162,145.935,0,0,0,
,0.386,-0.832,-0.406,308.41,54.321,156.738,0,0,0,
,0.409,-0.828,-0.399,285.217,54.626,151.794,0,0,0,
,0.438,-0.837,-0.441,324.463,54.626,147.766,0,0,0,
,0.623,-0.842,-0.483,311.584,31.189,93.811,0,0,0,
,0.742,-0.856,-0.493,204.589,31.86,71.96,0,0,0,
,0.791,-0.821,-0.532,114.257,51.879,42.236,0,0,0,
,0.867,-0.872,-0.481,32.226,77.758,-4.883,0,0,0,
,0.906,-0.75,-0.35,-96.802,75.134,-34.974,0,0,0,
,0.729,-0.73,-0.318,-79.041,66.589,-160.584,0,0,0,
,0.669,-0.739,-0.347,-61.341,68.603,-173.035,0,0,0,
,0.552,-0.742,-0.264,-107.239,24.047,-122.864,0,0,0,
,0.53,-0.533,-0.32,-233.399,8.117,-82.764,0,0,0,
,0.466,-0.658,-0.351,-225.281,-11.963,-30.03,0,0,0,
,0.378,-0.773,-0.411,-9.339,-93.384,137.207,0,0,0,
,0.331,-0.516,-0.477,61.645,-89.722,185.669,0,0,0,
,0.27,-0.968,-0.59,63.903,-112.366,146.484,0,0,0,
,0.297,-0.545,-0.476,-231.629,-123.169,205.627,0,0,0,
,0.238,-0.659,-0.468,-29.969,-123.658,191.772,0,0,0,
,0.375,-0.602,-0.428,88.806,-35.279,140.625,0,0,0,
,0.51,-0.847,-0.66,297.79,28.808,24.719,0,0,0,
,0.426,-1.186,-0.682,89.05,13.671,-68.482,0,0,0,
,0.331,-0.637,-0.508,-155.457,3.356,-57.007,0,0,0,
,0.414,-0.803,-0.575,69.763,53.711,-84.046,0,0,0,
,0.405,-0.741,-0.484,170.044,78.796,-69.031,0,0,0,
,0.398,-0.818,-0.498,187.866,82.214,-58.899,0,0,0,
,0.398,-0.798,-0.449,189.88,72.265,-40.101,0,0,0,
,0.4,-0.79,-0.458,219.238,67.321,-40.101,0,0,0,
,0.38,-0.82,-0.465,217.712,48.278,-34.18,0,0,0,
,0.391,-0.751,-0.437,224.426,33.63,-7.264,0,0,0,
,0.412,-0.779,-0.466,178.466,15.441,0.183,0,0,0,
,0.421,-0.563,-0.382,174.804,6.652,83.679,0,0,0,
,0.519,-0.544,-0.393,282.47,39.856,129.394,0,0,0,
,0.569,-0.733,-0.426,267.395,30.212,129.76,0,0,0,
,0.945,-0.764,-0.354,-43.03,10.376,67.443,0,0,0,
,0.696,-0.649,-0.36,87.829,20.446,47.424,0,0,0,
,0.711,-0.658,-0.395,160.095,15.258,39.794,0,0,0,
,0.666,-0.59,-0.405,144.775,-13.245,83.19,0,0,0,
,0.667,-0.607,-0.407,115.539,-18.555,73.303,0,0,0,
,0.673,-0.688,-0.445,67.016,-44.312,65.49,0,0,0,
,0.656,-0.682,-0.495,144.409,-101.136,57.617,0,0,0,
,0.658,-0.712,-0.509,79.467,-97.84,34.24,0,0,0,
,0.686,-0.751,-0.463,-89.844,-93.262,22.949,0,0,0,
,0.651,-0.674,-0.462,-254.517,-78.064,35.583,0,0,0,
,0.644,-0.618,-0.45,-197.571,-66.712,51.147,0,0,0,
,0.611,-0.656,-0.465,-45.227,-64.27,61.645,0,0,0,
,0.61,-0.693,-0.48,73.425,-56.946,64.209,0,0,0,
,0.598,-0.75,-0.522,95.153,-44.556,50.231,0,0,0,
,0.59,-0.795,-0.537,19.287,-26.917,30.883,0,0,0,
,0.572,-0.764,-0.537,-96.558,-6.714,25.817,0,0,0,
,0.557,-0.707,-0.522,-121.155,10.253,25.39,0,0,0,
,0.543,-0.684,-0.502,-79.59,20.263,20.019,0,0,0,
,0.53,-0.698,-0.498,-51.026,23.071,24.292,0,0,0,
,0.526,-0.708,-0.497,-39.49,22.522,27.832,0,0,0,
,0.533,-0.71,-0.483,-34.424,20.813,32.898,0,0,0,
,0.546,-0.722,-0.482,-48.951,22.888,31.677,0,0,0,
,0.56,-0.71,-0.481,-55.787,23.803,28.991,0,0,0,
,0.562,-0.698,-0.491,-47.913,25.94,28.869,0,0,0,
,0.571,-0.698,-0.495,-50.477,26.855,31.25,0,0,0,
,0.57,-0.688,-0.491,-44.678,28.991,35.339,0,0,0,
,0.579,-0.69,-0.496,-42.481,41.137,37.17,0,0,0,
,0.585,-0.693,-0.465,-57.251,32.287,42.724,0,0,0,
,0.581,-0.657,-0.451,-73.243,27.526,40.771,0,0,0,
,0.59,-0.654,-0.429,-51.087,22.277,40.222,0,0,0,
,-1.553,-3.363,1.862,10034.255,5071.547,1249.072,0,0,0,
,0.6,-0.675,-0.412,-86.365,-19.227,22.888,0,0,0,
,0.615,-0.661,-0.409,-81.238,-26.062,12.695,0,0,0,
,0.636,-0.663,-0.416,-88.685,-34.668,11.169,0,0,0,
,0.641,-0.658,-0.431,-94.971,-37.232,4.028,0,0,0,
,0.658,-0.674,-0.423,-99.854,-34.485,0.915,0,0,0,
,0.66,-0.681,-0.402,-108.46,-33.814,-1.526,0,0,0,
,0.66,-0.702,-0.393,-116.883,-28.26,-8.484,0,0,0,
,0.685,-0.725,-0.392,-129.822,-13.062,-22.156,0,0,0,
,0.711,-0.763,-0.397,-187.073,-7.813,-41.565,0,0,0,
,0.744,-0.806,-0.438,-265.87,26.977,-83.497,0,0,0,
,0.807,-0.893,-0.506,-424.012,80.322,-142.029,0,0,0,
,0.858,-1.01,-0.489,-659.546,129.455,-233.948,0,0,0,
,0.862,-0.916,-0.364,-794.861,186.218,-276.246,0,0,0,
,0.906,-0.795,-0.197,-747.559,208.618,-336.792,0,0,0,
,0.877,-0.843,-0.261,-583.985,216.308,-410.462,0,0,0,
,0.841,-1.016,-0.224,-569.947,181.945,-487.793,0,0,0,
,0.738,-1.17,-0.206,-830.018,96.557,-541.565,0,0,0,
,0.611,-1.287,-0.087,-1085.816,14.465,-612.915,0,0,0,
,0.52,-1.212,-0.07,-1107.728,13.916,-649.476,0,0,0,
,0.518,-1.282,-0.141,-966.797,15.502,-778.443,0,0,0,
,0.438,-1.339,-0.165,-890.198,-78.98,-810.975,0,0,0,
,0.308,-1.296,-0.111,-1002.869,-100.525,-840.577,0,0,0,
,0.24,-1.145,-0.176,-1096.253,-58.655,-854.126,0,0,0,
,0.257,-1.124,-0.181,-1204.59,-35.462,-873.597,0,0,0,
,0.238,-1.065,-0.137,-1441.834,-36.499,-845.154,0,0,0,
,0.23,-0.983,-0.138,-1675.538,-30.518,-834.412,0,0,0,
,0.242,-0.883,-0.097,-1865.662,-28.382,-793.457,0,0,0,
,0.236,-0.735,-0.059,-1958.741,-45.105,-722.84,0,0,0,
,0.248,-0.759,-0.07,-2000,-82.276,-672.791,0,0,0,
,0.191,-0.694,-0.065,-2000,-88.135,-572.632,0,0,0,
,0.138,-0.5,-0.039,-2000,-45.472,-442.017,0,0,0,
,0.21,-0.385,0.037,-2000,-110.352,-323.975,0,0,0,
,0.259,-0.427,0.17,-2000,-267.823,-282.41,0,0,0,
,0.098,-0.359,0.219,-2000,-240.113,-206.91,0,0,0,
,0.017,-0.119,0.251,-2000,-66.224,-67.872,0,0,0,
,0.025,0.019,0.283,-2000,109.619,-79.041,0,0,0,
,0.067,-0.293,0.31,-1625.428,189.27,-173.645,0,0,0,
,-0.038,-0.381,0.182,-1467.408,460.022,-159.119,0,0,0,
,0.053,-0.167,0.159,-1262.635,672.424,-145.142,0,0,0,
,-0.02,-0.222,0.084,-1190.613,845.276,-179.566,0,0,0,
,-0.002,0.047,0.179,-1224.183,1027.465,-89.295,0,0,0,
,0.121,0.173,0.343,-1088.257,1123.474,-38.147,0,0,0,
,0.157,0.111,0.584,-960.083,1165.71,-6.592,0,0,0,
,0.287,0.099,0.799,-746.949,1162.17,36.56,0,0,0,
,0.419,-0.059,0.971,-629.578,1091.308,82.214,0,0,0,
,0.516,-0.06,1.152,-556.153,1032.165,125.732,0,0,0,
,0.627,-0.128,1.222,-471.68,966.125,122.192,0,0,0,
,0.773,-0.077,1.266,-339.783,896.423,94.787,0,0,0,
,0.876,-0.033,1.303,-229.554,820.617,52.185,0,0,0,
,0.985,0.098,1.313,-178.711,714.111,32.898,0,0,0,
,0.976,0.22,1.193,-141.236,595.459,25.512,0,0,0,
,1.067,1.464,1.581,116.027,577.697,312.011,0,0,0,
,1.224,-0.715,1.508,359.497,329.345,4.089,0,0,0,
,1.003,0.508,1.271,493.896,85.876,151.001,0,0,0,
,0.781,0.159,1.188,325.927,-12.94,162.78,0,0,0,
,0.799,0.283,1.013,298.156,-37.171,93.322,0,0,0,
,0.74,0.326,0.996,228.637,-82.52,96.008,0,0,0,
,0.654,0.186,0.81,188.049,-83.252,77.758,0,0,0,
,0.646,0.102,0.689,172.668,-56.946,29.968,0,0,0,
,0.68,0.145,0.84,144.775,-68.177,36.682,0,0,0,
,0.601,0.065,0.753,83.068,-62.073,38.391,0,0,0,
,0.66,0.022,0.745,109.863,-68.97,26.367,0,0,0,
,0.634,0,0.809,108.581,-84.656,48.889,0,0,0,
,0.584,-0.044,0.73,97.473,-79.346,53.588,0,0,0,
,0.647,-0.015,0.791,156.433,-92.896,55.053,0,0,0,
,0.621,-0.035,0.77,184.753,-75.928,60.485,0,0,0,
,0.623,-0.036,0.754,229.98,-69.886,61.523,0,0,0,
,0.629,-0.02,0.763,295.227,-75.684,62.744,0,0,0,
,0.64,-0.057,0.759,317.688,-85.938,69.274,0,0,0,
,0.641,-0.06,0.772,336.181,-97.657,72.509,0,0,0,
,0.657,-0.042,0.791,387.39,-111.268,74.951,0,0,0,
,0.644,-0.06,0.782,491.943,-126.282,62.744,0,0,0,
,0.641,-0.087,0.802,581.359,-129.639,43.64,0,0,0,
,0.626,-0.114,0.789,663.818,-135.437,18.981,0,0,0,
,0.662,-0.2,0.87,842.285,-207.886,-6.592,0,0,0,
,0.664,-0.209,0.929,955.444,-235.352,-18.311,0,0,0,
,0.675,-0.279,0.926,1161.438,-279.786,-40.589,0,0,0,
,0.678,-0.38,0.902,1358.154,-338.074,-79.834,0,0,0,
,0.66,-0.452,0.914,1404.419,-389.405,-117.615,0,0,0,
,0.635,-0.46,0.891,1551.88,-424.195,-151.307,0,0,0,
,0.572,-0.465,0.781,1859.253,-449.219,-179.261,0,0,0,
,0.496,-0.499,0.639,1999.694,-419.983,-204.773,0,0,0,
,0.452,-0.588,0.554,1999.694,-368.775,-221.619,0,0,0,
,0.383,-0.588,0.476,1999.694,-302.43,-206.055,0,0,0,
,0.353,-0.657,0.515,1999.694,-283.814,-183.35,0,0,0,
,0.334,-0.696,0.548,1999.694,-299.439,-151.673,0,0,0,
,0.289,-0.665,0.518,1999.694,-330.933,-106.141,0,0,0,
,0.233,-0.654,0.427,1999.694,-380.86,-77.698,0,0,0,
,0.185,-0.746,0.346,1965.637,-416.626,-63.233,0,0,0,
,0.146,-0.774,0.278,1887.085,-399.598,-24.964,0,0,0,
,0.144,-0.784,0.226,1854.431,-365.967,-22.156,0,0,0,
,0.171,-0.879,0.194,1763.305,-328.37,-31.311,0,0,0,
,0.223,-0.868,0.107,1654.297,-193.482,13.977,0,0,0,
,0.229,-0.899,0,1633.239,-167.969,29.785,0,0,0,
,0.26,-0.958,-0.071,1460.388,-150.086,37.475,0,0,0,
,0.276,-1.045,-0.162,1147.644,-146.424,32.653,0,0,0,
,0.284,-0.966,-0.194,864.502,-118.653,50.231,0,0,0,
,0.32,-0.951,-0.241,656.311,-104.248,31.005,0,0,0,
,0.312,-0.977,-0.256,440.857,-102.478,26.001,0,0,0,
,0.316,-0.91,-0.266,311.95,-74.83,24.414,0,0,0,
,0.349,-0.926,-0.361,259.277,-43.213,-5.921,0,0,0,
,0.359,-0.95,-0.377,273.01,-39.978,-20.386,0,0,0,
,0.348,-0.988,-0.381,196.106,-41.993,-32.044,0,0,0,
,0.34,-0.953,-0.382,105.102,-41.26,-44.19,0,0,0,
,0.342,-0.908,-0.361,63.293,-39.673,-57.984,0,0,0,
,0.347,-0.891,-0.337,46.142,-45.289,-70.618,0,0,0,
,0.333,-0.854,-0.333,76.904,-53.711,-70.557,0,0,0,
,0.327,-0.866,-0.348,109.802,-45.411,-64.698,0,0,0,
,0.325,-0.892,-0.37,130.005,-22.522,-56.031,0,0,0,
,0.335,-0.925,-0.38,114.502,0.244,-44.922,0,0,0,
,0.34,-0.955,-0.345,69.946,16.357,-36.255,0,0,0,
,0.344,-0.961,-0.362,23.315,32.959,-32.105,0,0,0,
,0.354,-0.969,-0.361,-14.466,45.776,-35.95,0,0,0,
,0.375,-0.98,-0.334,-58.35,52.368,-35.218,0,0,0,
,0.386,-0.951,-0.313,-76.233,48.706,-30.701,0,0,0,
,0.389,-0.913,-0.301,-50.477,45.41,-39.368,0,0,0,
,0.379,-0.92,-0.298,-35.035,62.439,-64.576,0,0,0,
,0.35,-0.933,-0.33,21.362,43.151,-61.585,0,0,0,
,0.351,-0.883,-0.323,13.488,66.284,-56.763,0,0,0,
,0.358,-0.879,-0.337,9.216,60.607,-52.796,0,0,0,
,0.309,-0.871,-0.373,-59.021,85.205,-37.476,0,0,0,
,0.313,-0.888,-0.379,-48.706,96.557,-27.71,0,0,0,
,0.313,-0.898,-0.386,-58.777,101.257,-21.18,0,0,0,
,0.324,-0.903,-0.36,-76.172,101.623,-14.466,0,0,0,
,0.315,-0.89,-0.355,-111.512,102.356,-9.522,0,0,0,
,0.333,-0.872,-0.336,-57.251,92.407,5.615,0,0,0,
,0.341,-0.884,-0.353,-25.33,92.041,12.268,0,0,0,
,0.345,-0.896,-0.357,-6.958,94.36,14.526,0,0,0,
,0.366,-0.893,-0.361,16.113,94.177,28.137,0,0,0,
,0.339,-0.91,-0.353,11.23,85.998,25.634,0,0,0,
,0.35,-0.885,-0.363,26.306,87.524,18.005,0,0,0,
,0.335,-0.898,-0.373,-2.198,95.459,6.347,0,0,0,
,0.342,-0.882,-0.352,-58.045,82.214,25.756,0,0,0,
,0.354,-0.805,-0.295,-33.997,71.777,82.58,0,0,0,
,0.331,-0.799,-0.317,-5.494,75.317,100.219,0,0,0,
,0.335,-0.849,-0.338,21.972,78.796,110.901,0,0,0,
,0.324,-0.872,-0.365,20.141,87.585,115.783,0,0,0,
,0.319,-0.886,-0.37,12.817,97.839,116.821,0,0,0,
,0.322,-0.889,-0.382,30.7,102.966,115.173,0,0,0,
,0.32,-0.9,-0.369,-2.503,105.285,114.685,0,0,0,
,0.311,-0.858,-0.351,26.428,116.088,114.99,0,0,0,
,0.313,-0.855,-0.345,37.963,121.887,119.079,0,0,0,
,0.32,-0.868,-0.344,52.368,124.755,123.962,0,0,0,
,0.333,-0.867,-0.344,65.063,128.662,131.347,0,0,0,
,0.341,-0.86,-0.351,96.74,129.638,136.718,0,0,0,
,0.348,-0.863,-0.361,120.361,129.821,144.836,0,0,0,
,0.363,-0.874,-0.375,122.802,129.699,145.141,0,0,0,
,0.375,-0.843,-0.408,98.632,137.878,148.742,0,0,0,
,0.381,-0.849,-0.421,88.867,143.493,151.672,0,0,0,
,0.391,-0.854,-0.429,79.834,154.602,153.381,0,0,0,
,0.378,-0.814,-0.401,28.137,144.226,167.48,0,0,0,
,0.382,-0.787,-0.389,35.339,121.643,167.236,0,0,0,
,0.383,-0.762,-0.394,62.072,92.59,162.414,0,0,0,
,0.397,-0.743,-0.407,117.065,56.762,156.311,0,0,0,
,0.419,-0.738,-0.44,192.077,20.568,146.057,0,0,0,
,0.486,-0.734,-0.533,256.408,-24.659,99.121,0,0,0,
,0.47,-0.762,-0.545,237.182,-15.381,82.702,0,0,0,
,0.452,-0.764,-0.534,180.297,-3.663,70.678,0,0,0,
,0.498,-0.729,-0.531,158.63,21.057,65.551,0,0,0,
,0.358,-0.845,-0.519,-99.732,7.934,48.523,0,0,0,
,0.393,-0.867,-0.463,-56.336,25.94,44.555,0,0,0,
,0.35,-0.806,-0.461,42.175,28.32,42.724,0,0,0,
,0.349,-0.823,-0.47,20.629,25.024,53.955,0,0,0,
,0.345,-0.805,-0.456,20.996,28.686,53.344,0,0,0,
,0.316,-0.77,-0.463,6.103,35.644,63.11,0,0,0,
,0.328,-0.738,-0.433,18.554,35.888,75.195,0,0,0,
,0.334,-0.732,-0.426,52.856,35.705,80.627,0,0,0,
,0.338,-0.669,-0.404,106.445,31.86,102.05,0,0,0,
,0.356,-0.641,-0.39,206.176,25.146,123.413,0,0,0,
,0.39,-0.596,-0.383,311.279,17.028,149.353,0,0,0,
,0.447,-0.645,-0.419,321.167,-3.174,144.714,0,0,0,
,0.481,-0.722,-0.42,161.377,-41.871,149.353,0,0,0,
,0.8,-0.706,-0.526,-79.285,-27.466,149.292,0,0,0,
,0.65,-0.571,-0.443,-305.909,-72.327,152.771,0,0,0,
,0.719,-0.493,-0.433,-143.128,-40.589,158.508,0,0,0,
,0.816,-0.557,-0.437,-143.067,-56.946,118.225,0,0,0,
,0.818,-0.575,-0.434,-15.748,-73.182,89.355,0,0,0,
,0.843,-0.643,-0.389,50.72,-111.695,49.499,0,0,0,
,0.765,-0.641,-0.373,86.425,-115.296,17.211,0,0,0,
,0.758,-0.628,-0.429,140.075,-103.211,-0.306,0,0,0,
,0.688,-0.623,-0.497,143.31,-62.623,-21.851,0,0,0,
,0.573,-0.719,-0.567,249.45,-64.698,-14.588,0,0,0,
,0.618,-0.721,-0.483,38.635,-41.138,52.002,0,0,0,
,0.612,-0.657,-0.489,-117.31,-45.899,70.373,0,0,0,
,0.576,-0.676,-0.455,-75.684,-27.588,84.961,0,0,0,
,0.583,-0.71,-0.443,30.09,-11.231,83.801,0,0,0,
,0.595,-0.795,-0.457,123.169,-14.283,53.833,0,0,0,
,0.581,-0.867,-0.491,154.297,-12.696,18.127,0,0,0,
,0.592,-0.87,-0.517,141.113,-3.052,8.789,0,0,0,
,0.596,-0.857,-0.539,134.399,5.554,-8.179,0,0,0,
,0.577,-0.872,-0.547,101.501,10.253,-25.574,0,0,0,
,0.574,-0.886,-0.506,24.414,15.991,-49.378,0,0,0,
,0.563,-0.829,-0.504,-98.755,21.85,-44.434,0,0,0,
,0.563,-0.752,-0.498,-138.184,30.151,-45.472,0,0,0,
,0.538,-0.707,-0.511,-99.244,48.095,-29.969,0,0,0,
,0.537,-0.785,-0.47,-16.663,37.841,-54.566,0,0,0,
,0.537,-0.781,-0.477,-107.544,48.217,-39.246,0,0,0,
,0.565,-0.748,-0.479,-96.558,39.672,-63.538,0,0,0,
,0.561,-0.733,-0.475,-77.759,29.357,-55.848,0,0,0,
,0.561,-0.712,-0.487,-72.632,38.33,-66.529,0,0,0,
,0.565,-0.698,-0.482,-63.294,33.813,-68.787,0,0,0,
,0.559,-0.652,-0.471,-58.167,36.926,-53.833,0,0,0,
,0.571,-0.655,-0.475,-24.414,35.461,-55.787,0,0,0,
,0.576,-0.656,-0.45,-22.889,23.071,-44.8,0,0,0,
,0.566,-0.649,-0.447,-16.785,19.836,-37.598,0,0,0,
,0.584,-0.634,-0.435,13.794,11.596,-30.335,0,0,0,
,0.585,-0.642,-0.45,29.907,-0.794,-22.278,0,0,0,
,0.589,-0.649,-0.466,29.724,-8.484,-15.564,0,0,0,
,0.593,-0.653,-0.462,6.042,-16.236,-7.264,0,0,0,
,0.604,-0.657,-0.475,-9.034,-14.893,-7.935,0,0,0,
,0.617,-0.659,-0.469,-20.02,-21.546,-7.569,0,0,0,
,0.616,-0.659,-0.454,-22.278,-19.898,-12.513,0,0,0,
,0.63,-0.651,-0.445,-17.151,-16.541,-15.259,0,0,0,
,0.633,-0.646,-0.438,-7.142,-24.414,-16.724,0,0,0,
,0.623,-0.635,-0.437,1.831,-24.903,-16.053,0,0,0,
,0.623,-0.634,-0.433,13.061,-24.414,-12.33,0,0,0,
,0.614,-0.637,-0.427,25.695,-30.762,-5.738,0,0,0,
,0.609,-0.651,-0.432,29.907,-31.678,-2.076,0,0,0,
,0.612,-0.644,-0.435,35.644,-35.889,7.324,0,0,0,
,0.606,-0.65,-0.44,54.931,-39.856,13,0,0,0,
,0.595,-0.66,-0.451,66.772,-40.039,19.714,0,0,0,
,0.586,-0.656,-0.46,75.744,-40.65,27.893,0,0,0,
,0.59,-0.663,-0.458,80.505,-41.26,28.686,0,0,0,
,0.585,-0.67,-0.464,74.157,-44.434,35.522,0,0,0,
,0.579,-0.683,-0.463,62.683,-46.509,33.691,0,0,0,
,0.579,-0.676,-0.47,51.025,-43.457,33.325,0,0,0,
,0.586,-0.676,-0.472,54.931,-43.152,32.409,0,0,0,
,0.59,-0.682,-0.477,49.499,-43.091,30.822,0,0,0,
,0.587,-0.676,-0.477,33.996,-42.603,33.02,0,0,0,
,0.595,-0.682,-0.475,30.334,-37.964,26.428,0,0,0,
,0.598,-0.687,-0.467,26.123,-41.382,16.113,0,0,0,
,0.596,-0.679,-0.466,31.25,-40.345,10.376,0,0,0,
,0.593,-0.673,-0.468,33.264,-44.739,4.577,0,0,0,
,0.586,-0.662,-0.471,42.114,-44.312,-0.611,0,0,0,
,0.59,-0.663,-0.478,48.523,-41.443,-4.578,0,0,0,
,0.588,-0.665,-0.476,65.368,-46.143,-6.897,0,0,0,
,0.593,-0.681,-0.479,67.321,-43.824,-10.743,0,0,0,
,0.592,-0.68,-0.475,67.871,-43.091,-13.367,0,0,0,
,0.587,-0.688,-0.469,62.805,-43.885,-18.921,0,0,0,
,0.581,-0.691,-0.466,48.4,-44.129,-21.302,0,0,0,
,0.576,-0.682,-0.468,30.273,-44.19,-23.621,0,0,0,
,0.573,-0.676,-0.457,17.273,-41.932,-22.828,0,0,0,
,0.572,-0.667,-0.462,19.348,-39.063,-16.48,0,0,0,
,0.569,-0.674,-0.467,34.79,-37.903,-13.916,0,0,0,
,0.573,-0.684,-0.474,44.006,-33.814,-13.733,0,0,0,
,0.578,-0.695,-0.48,47.241,-31.495,-14.954,0,0,0,
,0.576,-0.702,-0.485,35.156,-30.274,-14.588,0,0,0,
,0.574,-0.7,-0.481,19.775,-27.283,-20.203,0,0,0,
,0.571,-0.699,-0.474,3.051,-26.673,-25.147,0,0,0,
,0.576,-0.697,-0.469,-5.188,-26.185,-32.898,0,0,0,
,0.579,-0.685,-0.466,-15.076,-25.269,-40.406,0,0,0,
,0.577,-0.688,-0.464,-18.372,-23.377,-43.763,0,0,0,
,0.575,-0.669,-0.459,-0.489,-15.992,-45.35,0,0,0,
,0.575,-0.687,-0.469,18.493,-8.301,-52.369,0,0,0,
,0.583,-0.699,-0.465,13.549,-3.479,-58.35,0,0,0,
,0.591,-0.693,-0.47,17.028,2.38,-64.759,0,0,0,
,0.577,-0.721,-0.469,17.395,7.812,-86.121,0,0,0,
,0.588,-0.743,-0.46,7.873,14.831,-111.206,0,0,0,
,0.607,-0.778,-0.474,-2.32,25.94,-139.893,0,0,0,
,0.638,-0.855,-0.489,-31.25,31.311,-192.444,0,0,0,
,0.65,-0.914,-0.506,-73.548,32.287,-243.836,0,0,0,
,0.639,-0.964,-0.496,-126.404,32.714,-301.148,0,0,0,
,0.621,-1.001,-0.482,-182.618,54.748,-356.568,0,0,0,
,0.621,-1.067,-0.46,-257.325,80.81,-407.898,0,0,0,
,0.591,-1.104,-0.422,-376.099,100.402,-436.463,0,0,0,
,0.548,-1.1,-0.403,-463.196,140.197,-469.971,0,0,0,
,0.556,-1.26,-0.436,-694.703,151.55,-543.03,0,0,0,
,0.551,-1.185,-0.316,-954.529,140.564,-548.89,0,0,0,
,0.537,-1.146,-0.287,-1149.109,129.577,-596.741,0,0,0,
,0.518,-1.17,-0.297,-1370.179,113.159,-637.33,0,0,0,
,0.468,-1.13,-0.276,-1580.567,118.896,-671.082,0,0,0,
,0.446,-1.045,-0.266,-1781.067,165.222,-675.965,0,0,0,
,0.455,-1.011,-0.263,-1948.914,190.185,-699.707,0,0,0,
,0.44,-0.975,-0.31,-2000,207.458,-685.547,0,0,0,
,0.395,-0.821,-0.277,-2000,261.901,-618.164,0,0,0,
,0.366,-0.697,-0.186,-2000,263.427,-557.251,0,0,0,
,0.352,-0.812,-0.083,-2000,204.101,-538.331,0,0,0,
,0.288,-0.851,-0.03,-2000,163.696,-490.357,0,0,0,
,0.226,-0.658,-0.025,-2000,160.583,-408.143,0,0,0,
,0.203,-0.5,0.022,-2000,138.977,-354.065,0,0,0,
,0.185,-0.386,0.075,-2000,115.539,-281.495,0,0,0,
,0.201,-0.335,0.043,-2000,25.024,-225.22,0,0,0,
,0.045,-0.116,0.031,-2000,84.716,-112.793,0,0,0,
,-0.021,0.093,0.16,-2000,203.491,-10.865,0,0,0,
,0.062,0.17,0.337,-2000,350.036,42.175,0,0,0,
,0.201,0.043,0.377,-1940.735,410.949,84.106,0,0,0,
,0.183,-0.101,0.363,-1702.881,497.863,135.62,0,0,0,
,0.14,-0.113,0.277,-1577.698,671.081,227.539,0,0,0,
,0.146,-0.208,0.305,-1231.324,810.058,230.651,0,0,0,
,0.232,-0.216,0.359,-1016.663,927.856,289.123,0,0,0,
,0.31,-0.065,0.49,-921.204,1020.141,341.98,0,0,0,
,0.418,0.043,0.626,-803.284,1115.539,362.243,0,0,0,
,0.601,-0.206,0.838,-520.63,1179.87,363.769,0,0,0,
,0.826,-0.199,1.092,-327.881,1212.219,361.511,0,0,0,
,1.019,-0.072,1.265,-181.458,1143.188,325.866,0,0,0,
,1.111,-0.083,1.37,-115.479,1002.929,244.812,0,0,0,
,1.099,-0.163,1.373,-102.662,831.359,147.949,0,0,0,
,1.012,-0.091,1.238,-166.321,704.406,53.222,0,0,0,
,0.997,0.091,0.973,-225.403,622.436,-13.245,0,0,0,
,1.372,2.957,-0.448,530.395,840.026,550.415,0,0,0,
,1.848,-1.536,0.825,805.481,514.953,75.195,0,0,0,
,0.96,0.277,1.761,1044.433,105.041,270.446,0,0,0,
,0.688,0.409,1.142,738.22,-27.1,210.998,0,0,0,
,0.795,0.152,1.072,751.037,-145.203,30.761,0,0,0,
,0.747,0.119,0.907,621.338,-161.377,72.204,0,0,0,
,0.593,0.069,0.75,324.829,-114.93,72.509,0,0,0,
,0.676,0.26,0.803,348.327,-115.784,82.763,0,0,0,
,0.618,0.077,0.696,246.338,-101.075,138.244,0,0,0,
,0.66,0.028,0.628,181.762,-74.158,105.285,0,0,0,
,0.674,0.043,0.69,106.567,-54.322,108.215,0,0,0,
,0.665,-0.087,0.615,-4.639,-34.302,72.082,0,0,0,
,0.691,-0.054,0.649,-15.015,-37.72,33.996,0,0,0,
,0.708,-0.056,0.642,-29.908,-41.504,18.615,0,0,0,
,0.683,-0.088,0.619,-57.679,-33.57,-2.93,0,0,0,
,0.696,-0.042,0.643,-71.045,-33.387,-20.569,0,0,0,
,0.683,-0.059,0.625,-90.271,-21.241,-26.795,0,0,0,
,0.683,-0.061,0.625,-87.952,-11.902,-36.805,0,0,0,
,0.693,-0.037,0.627,-71.106,-5.982,-41.321,0,0,0,
,0.694,-0.053,0.645,-54.139,-3.846,-40.65,0,0,0,
,0.682,-0.044,0.643,-37.598,4.516,-46.936,0,0,0,
,0.68,-0.017,0.663,-15.564,13.122,-45.411,0,0,0,
,0.68,-0.018,0.677,6.958,18.737,-33.02,0,0,0,
,0.678,-0.015,0.684,24.719,20.813,-22.095,0,0,0,
,0.687,-0.016,0.702,53.283,16.967,-17.884,0,0,0,
,0.698,-0.019,0.714,83.374,7.934,-14.954,0,0,0,
,0.709,-0.028,0.717,119.629,-3.846,-21.363,0,0,0,
,0.717,-0.027,0.726,148.986,-13.184,-29.297,0,0,0,
,0.715,-0.032,0.738,170.105,-17.151,-40.711,0,0,0,
,0.717,-0.017,0.752,199.096,-21.79,-50.599,0,0,0,
,0.731,-0.016,0.771,265.93,-36.622,-62.256,0,0,0,
,0.766,-0.042,0.787,471.923,-77.515,-87.464,0,0,0,
,0.767,-0.095,0.749,551.208,-99.793,-104.554,0,0,0,
,0.759,-0.14,0.739,577.575,-117.066,-124.939,0,0,0,
,0.749,-0.139,0.709,622.68,-121.705,-144.288,0,0,0,
,0.744,-0.19,0.713,712.646,-136.902,-157.349,0,0,0,
,0.721,-0.192,0.717,753.723,-144.837,-174.805,0,0,0,
,0.719,-0.194,0.724,767.822,-163.697,-177.491,0,0,0,
,0.689,-0.225,0.709,774.292,-186.89,-161.988,0,0,0,
,0.69,-0.234,0.724,819.641,-197.205,-151.673,0,0,0,
,0.682,-0.269,0.777,865.661,-199.646,-136.231,0,0,0,
,0.683,-0.301,0.794,937.927,-191.224,-151.734,0,0,0,
,0.669,-0.296,0.645,1128.173,-221.192,-170.411,0,0,0,
,0.619,-0.421,0.656,1164.123,-221.558,-179.688,0,0,0,
,0.638,-0.414,0.651,1151.184,-191.346,-174.988,0,0,0,
,0.63,-0.421,0.679,1193.481,-189.576,-179.322,0,0,0,
,0.634,-0.413,0.686,1283.752,-182.435,-171.814,0,0,0,
,0.618,-0.428,0.613,1390.503,-191.346,-163.086,0,0,0,
,0.575,-0.546,0.55,1337.89,-194.092,-163.758,0,0,0,
,0.448,-0.524,0.507,1352.6,-124.024,-71.656,0,0,0,
,0.446,-0.54,0.528,1349.792,-105.164,-34.79,0,0,0,
,0.454,-0.601,0.5,1275.94,-109.742,-15.137,0,0,0,
,0.455,-0.674,0.469,1237.182,-117.615,-1.465,0,0,0,
,0.472,-0.697,0.433,1260.925,-116.333,2.807,0,0,0,
,0.501,-0.738,0.401,1308.044,-124.024,-6.653,0,0,0,
,0.532,-0.803,0.359,1333.13,-140.503,-19.471,0,0,0,
,0.534,-0.857,0.284,1284.912,-153.626,-13.062,0,0,0,
,0.531,-0.848,0.271,1299.865,-149.17,-36.988,0,0,0,
,0.552,-0.882,0.175,1267.151,-137.513,-64.331,0,0,0,
,0.537,-0.911,0.106,1217.956,-129.456,-86.487,0,0,0,
,0.55,-0.915,0.05,1233.642,-96.497,-129.212,0,0,0,
,0.526,-0.821,-0.001,1236.755,-94.239,-122.559,0,0,0,
,0.537,-0.855,-0.074,1246.276,-82.825,-148.621,0,0,0,
,0.533,-0.882,-0.171,1186.889,-61.829,-144.837,0,0,0,
,0.565,-0.943,-0.235,1088.134,-12.757,-149.109,0,0,0,
,0.582,-0.968,-0.292,968.994,33.569,-168.274,0,0,0,
,0.603,-0.975,-0.325,888.733,89.904,-174.683,0,0,0,
,0.595,-1,-0.315,806.091,101.684,-195.618,0,0,0,
,0.554,-0.988,-0.284,725.647,110.351,-206.971,0,0,0,
,0.54,-0.964,-0.254,660.461,124.389,-218.995,0,0,0,
,0.537,-0.932,-0.242,606.14,111.877,-223.694,0,0,0,
,0.491,-0.896,-0.241,530.334,68.176,-218.445,0,0,0,
,0.423,-0.808,-0.306,314.331,81.848,-132.447,0,0,0,
,0.408,-0.81,-0.343,274.475,79.528,-102.417,0,0,0,
,0.387,-0.851,-0.349,220.764,88.317,-80.018,0,0,0,
,0.377,-0.855,-0.377,175.537,90.942,-58.533,0,0,0,
,0.357,-0.822,-0.369,110.778,84.533,-41.26,0,0,0,
,0.345,-0.802,-0.345,88.501,91.919,-37.171,0,0,0,
,0.334,-0.801,-0.421,105.957,95.581,-40.284,0,0,0,
,0.409,-0.907,-0.306,212.463,39.367,-22.034,0,0,0,
,0.329,-0.751,-0.421,24.231,-8.179,51.391,0,0,0,
,0.424,-0.784,-0.462,-107.911,9.399,21.85,0,0,0,
,0.348,-0.857,-0.462,-310.059,-26.917,38.513,0,0,0,
,0.38,-0.748,-0.438,-450.684,3.662,27.587,0,0,0,
,0.379,-0.729,-0.463,-327.393,-0.428,38.452,0,0,0,
,0.381,-0.801,-0.45,-195.374,6.347,43.335,0,0,0,
,0.36,-0.786,-0.452,-72.937,23.925,58.532,0,0,0,
,0.369,-0.864,-0.473,7.202,47.973,45.349,0,0,0,
,0.368,-0.922,-0.467,-64.82,41.32,32.959,0,0,0,
,0.379,-0.921,-0.451,-166.993,41.687,14.099,0,0,0,
,0.325,-0.924,-0.428,-187.073,52.734,-11.658,0,0,0,
,0.34,-0.887,-0.41,-154.236,91.735,-23.743,0,0,0,
,0.316,-0.862,-0.412,-95.154,97.778,-22.583,0,0,0,
,0.297,-0.848,-0.417,-46.204,121.704,-9.095,0,0,0,
,0.277,-0.809,-0.437,11.535,150.512,10.009,0,0,0,
,0.238,-0.795,-0.455,80.932,176.025,37.048,0,0,0,
,0.196,-0.789,-0.451,137.939,196.411,63.964,0,0,0,
,0.174,-0.78,-0.467,197.815,221.679,91.796,0,0,0,
,0.178,-0.803,-0.447,240.539,225.097,119.018,0,0,0,
,0.216,-0.812,-0.424,233.947,230.774,136.413,0,0,0,
,0.25,-0.832,-0.383,204.528,217.59,141.357,0,0,0,
,0.332,-0.75,-0.413,-88.868,172.973,110.351,0,0,0,
,0.349,-0.711,-0.426,-114.441,184.082,107.849,0,0,0,
,0.337,-0.675,-0.444,-61.219,205.078,110.717,0,0,0,
,0.329,-0.692,-0.435,26.733,225.586,124.145,0,0,0,
,0.325,-0.728,-0.443,106.201,228.881,137.939,0,0,0,
,0.327,-0.753,-0.456,123.23,221.008,151.55,0,0,0,
,0.343,-0.776,-0.495,106.811,208.435,148.01,0,0,0,
,0.36,-0.798,-0.528,18.127,192.566,142.883,0,0,0,
,0.384,-0.763,-0.547,-59.205,180.725,135.498,0,0,0,
,0.408,-0.746,-0.557,-100.098,174.804,119.262,0,0,0,
,0.415,-0.746,-0.55,-160.706,172.79,112.121,0,0,0,
,0.417,-0.734,-0.501,-199.585,168.579,100.769,0,0,0,
,0.414,-0.74,-0.476,-216.37,157.592,88.928,0,0,0,
,0.444,-0.73,-0.477,-202.149,151.184,80.688,0,0,0,
,0.487,-0.674,-0.52,-130.31,152.893,85.388,0,0,0,
,0.497,-0.775,-0.525,-167.42,143.005,51.33,0,0,0,
,0.459,-0.761,-0.512,-184.205,145.263,43.029,0,0,0,
,0.604,-0.762,-0.532,-254.212,154.663,8.789,0,0,0,
,0.53,-0.753,-0.502,-343.506,168.09,2.014,0,0,0,
,0.672,-0.706,-0.516,-311.341,197.387,-14.222,0,0,0,
,0.549,-0.812,-0.406,-284.363,164.856,-4.578,0,0,0,
,0.616,-0.758,-0.341,-209.534,142.883,-23.072,0,0,0,
,0.556,-0.817,-0.318,-136.841,118.042,-29.053,0,0,0,
,0.542,-0.777,-0.299,-83.313,124.206,-24.476,0,0,0,
,0.544,-0.753,-0.301,2.685,89.477,-1.099,0,0,0,
,0.458,-0.6,-0.347,105.774,79.589,41.381,0,0,0,
,0.481,-0.674,-0.336,283.264,81.543,67.749,0,0,0,
,0.49,-0.708,-0.481,375,80.871,74.279,0,0,0,
,0.489,-0.92,-0.323,214.477,8.361,107.788,0,0,0,
,0.545,-0.733,-0.448,100.219,12.329,145.996,0,0,0,
,0.553,-0.798,-0.432,125.854,-6.165,108.276,0,0,0,
,0.518,-0.75,-0.425,97.9,-20.325,126.403,0,0,0,
,0.54,-0.74,-0.399,102.295,-21.546,120.422,0,0,0,
,0.528,-0.717,-0.403,119.751,-51.392,130.371,0,0,0,
,0.545,-0.789,-0.384,-47.181,-77.088,119.873,0,0,0,
,0.546,-0.757,-0.323,-180.42,-121.888,149.231,0,0,0,
,0.564,-0.662,-0.333,-171.814,-134.4,158.508,0,0,0,
,0.585,-0.686,-0.336,23.254,-152.527,152.588,0,0,0,
,0.606,-0.734,-0.404,172.973,-139.954,146.179,0,0,0,
,0.624,-0.816,-0.467,221.74,-139.588,133.606,0,0,0,
,0.647,-0.874,-0.495,96.13,-129.395,122.07,0,0,0,
,0.63,-0.814,-0.454,-43.213,-130.188,139.892,0,0,0,
,0.638,-0.782,-0.478,-85.083,-97.413,123.718,0,0,0,
,0.63,-0.768,-0.42,-123.536,-102.601,130.615,0,0,0,
,0.619,-0.721,-0.405,-91.431,-80.201,130.249,0,0,0,
,0.613,-0.74,-0.389,-7.874,-82.337,135.864,0,0,0,
,0.585,-0.741,-0.387,29.907,-76.905,139.709,0,0,0,
,0.571,-0.725,-0.395,44.738,-66.407,152.893,0,0,0,
,0.569,-0.731,-0.407,59.692,-62.745,148.803,0,0,0,
,0.553,-0.711,-0.416,54.26,-59.144,150.329,0,0,0,
,0.55,-0.732,-0.416,65.063,-62.073,139.404,0,0,0,
,0.548,-0.76,-0.42,18.127,-66.285,134.948,0,0,0,
,0.549,-0.749,-0.423,-25.208,-66.04,131.53,0,0,0,
,0.566,-0.741,-0.427,-37.171,-67.383,115.6,0,0,0,
,0.579,-0.734,-0.444,-37.11,-63.05,103.393,0,0,0,
,0.591,-0.739,-0.452,-44.739,-63.416,90.942,0,0,0,
,0.593,-0.706,-0.441,-43.335,-58.106,84.655,0,0,0,
,0.599,-0.696,-0.435,-31.983,-47.486,74.951,0,0,0,
,0.598,-0.683,-0.431,-15.259,-36.56,65.002,0,0,0,
,0.598,-0.686,-0.428,-0.55,-27.649,59.753,0,0,0,
,0.601,-0.684,-0.422,17.334,-15.564,58.471,0,0,0,
,0.6,-0.675,-0.407,32.104,-2.198,61.584,0,0,0,
,0.591,-0.666,-0.408,48.156,10.498,72.448,0,0,0,
,0.594,-0.671,-0.405,64.27,22.644,82.885,0,0,0,
,0.599,-0.674,-0.418,70.312,38.513,96.679,0,0,0,
,0.611,-0.715,-0.441,17.273,51.452,104.431,0,0,0,
,0.614,-0.695,-0.424,-23.255,66.101,123.657,0,0,0,
,0.636,-0.662,-0.403,-24.842,72.326,123.474,0,0,0,
,0.645,-0.729,-0.376,-59.876,49.804,103.027,0,0,0,
,0.652,-0.653,-0.347,-10.193,36.193,104.858,0,0,0,
,0.659,-0.691,-0.395,44.067,26.306,65.856,0,0,0,
,0.66,-0.687,-0.406,17.639,22.949,63.293,0,0,0,
,0.666,-0.648,-0.415,-4.212,27.71,52.429,0,0,0,
,0.672,-0.66,-0.407,-9.766,25.573,36.01,0,0,0,
,0.697,-0.654,-0.395,-8.789,26.428,19.104,0,0,0,
,0.721,-0.665,-0.421,11.779,45.532,-17.579,0,0,0,
,0.766,-0.779,-0.495,-47.242,6.469,-105.652,0,0,0,
,0.76,-0.817,-0.436,-211.548,-38.819,-129.151,0,0,0,
,0.766,-0.816,-0.412,-448.365,-44.739,-175.904,0,0,0,
,0.774,-0.835,-0.348,-627.625,-64.026,-215.821,0,0,0,
,0.734,-0.654,-0.295,-559.998,-35.462,-204.224,0,0,0,
,0.735,-0.866,-0.281,-296.143,8.117,-298.523,0,0,0,
,0.708,-1.004,-0.27,-424.561,6.53,-342.408,0,0,0,
,0.646,-0.937,-0.285,-477.356,16.601,-346.558,0,0,0,
,0.637,-0.994,-0.285,-486.023,39.123,-401.551,0,0,0,
,0.598,-1,-0.282,-573.243,31.005,-416.932,0,0,0,
,0.57,-0.942,-0.251,-686.28,29.846,-437.745,0,0,0,
,0.563,-0.981,-0.255,-771.912,10.681,-470.887,0,0,0,
,0.552,-0.987,-0.238,-1005.616,2.075,-489.075,0,0,0,
,0.531,-0.854,-0.218,-1054.932,26.062,-497.132,0,0,0,
,0.578,-0.969,-0.283,-1085.206,19.409,-534.668,0,0,0,
,0.473,-1.014,-0.254,-1371.705,30.883,-522.339,0,0,0,
,0.483,-0.895,-0.218,-1557.251,75.805,-515.931,0,0,0,
,0.462,-0.801,0.024,-1766.724,54.199,-488.831,0,0,0,
,0.392,-0.941,-0.189,-2000,-9.949,-469.056,0,0,0,
,0.289,-0.599,-0.064,-2000,-5.799,-321.656,0,0,0,
,0.295,-0.371,0.086,-2000,-100.525,-208.497,0,0,0,
,0.277,-0.504,0.144,-2000,-116.211,-110.291,0,0,0,
,0.214,-0.557,0.054,-2000,-55.054,-47.974,0,0,0,
,0.182,-0.428,-0.018,-2000,14.343,6.347,0,0,0,
,0.139,-0.25,-0.066,-2000,73.669,61.34,0,0,0,
,0.086,-0.101,0.086,-2000,225.097,121.032,0,0,0,
,0.251,0.143,0.247,-2000,419.555,183.654,0,0,0,
,0.37,0.019,0.388,-2000,473.449,190.002,0,0,0,
,0.452,-0.129,0.541,-1914.49,595.825,197.692,0,0,0,
,0.572,-0.255,0.759,-1462.098,612.365,167.846,0,0,0,
,0.613,-0.168,0.898,-1281.434,623.23,176.757,0,0,0,
,0.724,-0.118,1.029,-1004.639,565.49,168.335,0,0,0,
,0.698,-0.188,0.994,-856.812,500.122,137.756,0,0,0,
,0.749,-0.126,0.977,-704.468,467.773,57.495,0,0,0,
,0.81,-0.076,0.982,-572.937,431.335,-6.348,0,0,0,
,0.777,-0.031,0.942,-430.787,383.361,-72.693,0,0,0,
,0.822,0.1,0.982,-230.164,313.415,-77.027,0,0,0,
,0.808,0.15,0.984,-42.969,227.905,-48.035,0,0,0,
,0.735,0.132,1.064,28.32,169.799,-24.842,0,0,0,
,0.779,0.157,0.988,202.087,116.027,-14.283,0,0,0,
,0.724,0.063,0.933,259.033,67.382,-11.475,0,0,0,
,0.709,0.045,0.952,207.58,43.335,-17.334,0,0,0,
,0.679,0.057,0.935,207.031,23.315,-26.429,0,0,0,
,0.683,0.122,0.935,218.261,-6.104,-12.513,0,0,0,
,0.627,0.079,0.861,207.641,-19.471,-5.433,0,0,0,
,0.619,0.075,0.825,164.184,-17.09,0.854,0,0,0,
,0.606,0.083,0.81,120.605,-11.231,11.474,0,0,0,
,0.6,0.062,0.776,94.848,-0.55,20.813,0,0,0,
,0.616,0.023,0.77,76.477,8.422,16.601,0,0,0,
,0.613,0.004,0.782,49.438,16.113,8.544,0,0,0,
,0.619,-0.009,0.778,60.119,23.559,2.746,0,0,0,
,0.619,-0.019,0.775,64.697,23.681,-0.977,0,0,0,
,0.62,-0.053,0.78,61.889,20.446,-5.921,0,0,0,
,0.623,-0.028,0.779,42.114,15.38,0.366,0,0,0,
,0.631,-0.052,0.784,44.189,5.737,6.408,0,0,0,
,0.638,-0.06,0.781,65.734,-4.09,6.958,0,0,0,
,0.643,-0.087,0.782,79.162,-9.339,4.15,0,0,0,
,0.651,-0.087,0.782,100.341,-20.813,-2.137,0,0,0,
,0.652,-0.086,0.795,127.136,-32.471,-5.372,0,0,0,
,0.662,-0.099,0.81,146.667,-49.195,-7.019,0,0,0,
,0.665,-0.103,0.819,176.33,-68.299,-14.527,0,0,0,
,0.682,-0.155,0.84,201.416,-110.779,-41.26,0,0,0,
,0.663,-0.162,0.836,181.152,-133.728,-48.706,0,0,0,
,0.634,-0.117,0.794,278.076,-138.245,-55.97,0,0,0,
,0.631,-0.109,0.79,334.594,-132.569,-53.956,0,0,0,
,0.644,-0.091,0.836,408.386,-126.343,-55.481,0,0,0,
,0.668,-0.111,0.859,569.885,-132.081,-65.247,0,0,0,
,0.699,-0.136,0.862,773.193,-148.255,-82.276,0,0,0,
,0.705,-0.229,0.86,839.782,-177.796,-105.286,0,0,0,
,0.696,-0.198,0.814,889.648,-206.543,-111.145,0,0,0,
,0.688,-0.207,0.837,959.9,-236.939,-111.329,0,0,0,
,0.69,-0.237,0.836,1013.305,-261.475,-108.765,0,0,0,
,0.69,-0.315,0.834,1073.608,-292.237,-123.841,0,0,0,
,0.67,-0.361,0.826,1127.502,-316.59,-141.724,0,0,0,
,0.622,-0.436,0.747,1216.735,-334.595,-166.687,0,0,0,
,0.6,-0.491,0.783,1262.39,-351.868,-182.251,0,0,0,
,0.578,-0.494,0.776,1269.226,-368.409,-200.867,0,0,0,
,0.512,-0.496,0.759,1351.44,-392.151,-211.792,0,0,0,
,0.491,-0.502,0.748,1481.933,-405.701,-206.727,0,0,0,
,0.458,-0.599,0.712,1571.716,-414.368,-214.844,0,0,0,
,0.434,-0.625,0.734,1642.517,-423.829,-207.093,0,0,0,
,0.424,-0.625,0.711,1775.879,-435.242,-193.421,0,0,0,
,0.367,-0.651,0.665,1844.909,-465.76,-161.56,0,0,0,
,0.328,-0.555,0.616,1913.025,-511.109,-118.592,0,0,0,
,0.296,-0.562,0.528,1957.641,-557.312,-97.168,0,0,0,
,0.294,-0.57,0.415,1898.925,-581.788,-80.506,0,0,0,
,0.297,-0.554,0.313,1779.358,-591.919,-53.284,0,0,0,
,0.303,-0.526,0.254,1666.626,-568.604,-7.752,0,0,0,
,0.329,-0.598,0.171,1531.128,-525.818,13.916,0,0,0,
,0.282,-0.636,0.105,1373.108,-454.59,49.621,0,0,0,
,0.335,-0.746,0.045,1255.188,-368.47,71.044,0,0,0,
,0.343,-0.813,-0.025,1160.156,-296.631,86.669,0,0,0,
,0.351,-0.903,-0.06,1092.407,-230.896,93.933,0,0,0,
,0.366,-0.97,-0.094,1015.991,-176.392,101.562,0,0,0,
,0.381,-1.017,-0.105,926.269,-143.738,103.698,0,0,0,
,0.394,-1.046,-0.113,807.983,-120.911,95.581,0,0,0,
,0.42,-1.062,-0.119,675.048,-115.845,78.857,0,0,0,
,0.42,-1.058,-0.119,520.263,-127.869,61.462,0,0,0,
,0.423,-1.014,-0.121,396.728,-133.728,33.935,0,0,0,
,0.418,-1.001,-0.131,307.8,-149.476,7.263,0,0,0,
,0.415,-1.031,-0.132,183.41,-175.477,-11.719,0,0,0,
,0.4,-1.022,-0.119,27.771,-191.04,-36.133,0,0,0,
,0.382,-1.001,-0.134,-71.839,-201.172,-60.486,0,0,0,
,0.376,-0.995,-0.184,-113.892,-197.51,-71.228,0,0,0,
,0.353,-0.942,-0.217,-94.3,-174.622,-74.463,0,0,0,
,0.334,-0.905,-0.247,-0.672,-132.019,-67.81,0,0,0,
,0.324,-0.904,-0.261,25.329,-71.961,-55.726,0,0,0,
,0.328,-0.889,-0.235,31.616,-15.809,-42.237,0,0,0,
,0.338,-0.916,-0.198,32.348,18.432,-36.499,0,0,0,
,0.363,-0.951,-0.154,29.113,28.625,-35.584,0,0,0,
,0.35,-0.927,-0.117,53.833,46.142,-30.152,0,0,0,
,0.371,-0.89,-0.094,152.038,27.71,-14.405,0,0,0,
,0.375,-0.918,-0.102,242.981,24.047,5.249,0,0,0,
,0.382,-0.88,-0.101,277.038,26.428,27.648,0,0,0,
,0.382,-0.933,-0.124,326.843,33.508,36.01,0,0,0,
,0.372,-0.932,-0.152,311.462,38.94,51.94,0,0,0,
,0.371,-0.923,-0.147,265.625,47.424,67.993,0,0,0,
,0.355,-0.902,-0.188,245.422,49.621,85.205,0,0,0,
,0.347,-0.882,-0.152,229.736,49.743,102.172,0,0,0,
,0.347,-0.874,-0.151,212.524,39.306,128.112,0,0,0,
,0.351,-0.848,-0.149,198.12,20.996,156.86,0,0,0,
,0.346,-0.832,-0.156,203.613,5.92,174.682,0,0,0,
,0.361,-0.816,-0.193,230.713,-1.893,193.481,0,0,0,
,0.363,-0.803,-0.241,255.188,-2.259,211.364,0,0,0,
,0.37,-0.768,-0.298,295.105,17.944,231.506,0,0,0,
,0.36,-0.766,-0.346,325.927,32.287,246.826,0,0,0,
,0.344,-0.757,-0.389,334.167,59.814,257.629,0,0,0,
,0.327,-0.742,-0.407,353.576,90.332,268.371,0,0,0,
,0.317,-0.755,-0.426,368.103,122.192,274.353,0,0,0,
,0.307,-0.776,-0.424,344.848,142.7,275.817,0,0,0,
,0.309,-0.818,-0.408,336.486,151.062,269.592,0,0,0,
,0.296,-0.844,-0.375,276.062,138.122,255.005,0,0,0,
,0.292,-0.845,-0.346,229.431,118.225,233.398,0,0,0,
,0.297,-0.834,-0.34,208.13,98.999,217.956,0,0,0,
,0.331,-0.821,-0.348,230.468,83.496,209.533,0,0,0,
,0.359,-0.833,-0.379,251.892,71.35,198.791,0,0,0,
,0.398,-0.848,-0.416,270.874,64.636,180.114,0,0,0,
,0.436,-0.861,-0.45,267.395,63.049,157.104,0,0,0,
,0.463,-0.864,-0.463,245.849,71.96,132.263,0,0,0,
,0.481,-0.85,-0.457,238.952,83.007,103.82,0,0,0,
,0.501,-0.853,-0.461,215.82,87.951,63.415,0,0,0,
,0.512,-0.829,-0.441,182.617,89.477,57.678,0,0,0,
,0.529,-0.799,-0.43,177.246,84.411,47.241,0,0,0,
,0.518,-0.786,-0.429,176.513,80.2,49.133,0,0,0,
,0.515,-0.754,-0.429,189.331,78.735,55.725,0,0,0,
,0.506,-0.74,-0.447,205.2,83.068,61.462,0,0,0,
,0.5,-0.755,-0.464,174.926,85.449,64.148,0,0,0,
,0.51,-0.721,-0.477,156.799,87.951,64.392,0,0,0,
,0.51,-0.723,-0.487,139.831,87.707,59.387,0,0,0,
,0.506,-0.693,-0.485,125.854,84.777,56.64,0,0,0,
,0.499,-0.692,-0.485,132.934,75.012,54.931,0,0,0,
,0.491,-0.691,-0.465,121.887,55.419,49.133,0,0,0,
,0.489,-0.677,-0.453,114.013,29.724,41.442,0,0,0,
,0.594,-0.748,-0.467,92.651,22.094,-7.264,0,0,0,
,0.572,-0.877,-0.404,-209.046,-50.538,-33.265,0,0,0,
,0.527,-0.562,-0.458,-121.827,-13.062,-21.058,0,0,0,
,0.583,-0.815,-0.523,-173.645,-57.74,-56.702,0,0,0,
,0.444,-0.564,-0.547,-98.267,-41.993,-2.076,0,0,0,
,0.526,-0.579,-0.575,126.709,4.089,-14.954,0,0,0,
,0.5,-0.611,-0.63,297.79,19.348,4.394,0,0,0,
,0.575,-0.808,-0.589,206.787,17.578,-27.771,0,0,0,
,0.552,-0.743,-0.537,-4.578,-6.165,-0.306,0,0,0,
,0.565,-0.707,-0.501,-147.095,-14.1,-16.907,0,0,0,
,0.571,-0.652,-0.447,-206.421,-29.847,16.906,0,0,0,
,0.605,-0.566,-0.419,-91.553,-20.386,43.396,0,0,0,
,0.668,-0.6,-0.405,117.736,-14.588,85.937,0,0,0,
,0.749,-0.684,-0.416,99.792,34.668,45.532,0,0,0,
,0.779,-0.733,-0.355,-39.795,-15.503,53.711,0,0,0,
,0.776,-0.618,-0.308,-54.566,-12.94,83.923,0,0,0,
,0.739,-0.703,-0.385,-33.875,-12.818,1.281,0,0,0,
,0.696,-0.755,-0.335,15.686,-34.913,9.887,0,0,0,
,0.689,-0.704,-0.33,72.204,-34.424,20.752,0,0,0,
,0.707,-0.749,-0.363,136.291,-40.039,-8.728,0,0,0,
,0.671,-0.78,-0.343,75.683,-64.331,-1.038,0,0,0,
,0.658,-0.741,-0.385,-6.714,-59.51,-19.776,0,0,0,
,0.645,-0.746,-0.368,-106.934,-75.318,-24.292,0,0,0,
,0.623,-0.646,-0.405,-88.807,-70.923,-11.048,0,0,0,
,0.617,-0.705,-0.422,-15.381,-89.234,-13.123,0,0,0,
,0.602,-0.663,-0.415,-32.654,-90.882,15.93,0,0,0,
,0.603,-0.658,-0.44,-6.287,-91.431,17.028,0,0,0,
,0.602,-0.668,-0.463,21.606,-86.365,23.803,0,0,0,
,0.613,-0.689,-0.477,10.437,-81.849,24.597,0,0,0,
,0.609,-0.697,-0.506,-10.132,-79.224,26.062,0,0,0,
,0.592,-0.699,-0.503,-26.551,-76.905,26.794,0,0,0,
,0.583,-0.689,-0.484,-49.622,-51.636,21.789,0,0,0,
,0.592,-0.699,-0.481,-33.753,-36.194,13.855,0,0,0,
,0.601,-0.695,-0.468,-38.208,-32.227,13.122,0,0,0,
,0.608,-0.705,-0.466,-51.148,-23.499,3.173,0,0,0,
,0.604,-0.702,-0.46,-52.308,-23.438,1.342,0,0,0,
,0.598,-0.691,-0.463,-33.814,-16.48,-6.348,0,0,0,
,0.6,-0.7,-0.458,-45.472,-16.236,-7.325,0,0,0,
,0.588,-0.695,-0.457,-38.269,-15.625,-9.522,0,0,0,
,0.585,-0.693,-0.456,-20.813,-15.32,-8.545,0,0,0,
,0.594,-0.698,-0.448,-5.86,-12.33,-10.926,0,0,0,
,0.599,-0.72,-0.439,-8.118,-14.649,-19.288,0,0,0,
,0.596,-0.737,-0.434,-15.564,-18.555,-33.143,0,0,0,
,0.625,-0.749,-0.407,-31.556,-19.837,-49.073,0,0,0,
,0.619,-0.739,-0.419,-75.013,-27.161,-50.965,0,0,0,
,0.617,-0.715,-0.443,-65.247,-16.053,-65.552,0,0,0,
,0.625,-0.74,-0.43,-98.999,-1.709,-83.741,0,0,0,
,0.623,-0.697,-0.387,-69.092,4.211,-90.943,0,0,0,
,0.692,-0.824,-0.214,7.69,-31.8,-103.272,0,0,0,
,0.603,-0.55,-0.454,-43.519,-4.273,-30.335,0,0,0,
,0.595,-0.784,-0.417,-14.893,6.225,-118.653,0,0,0,
,0.602,-0.739,-0.361,-112.305,4.028,-81.36,0,0,0,
,0.598,-0.66,-0.372,-20.508,8.667,-85.389,0,0,0,
,0.624,-0.72,-0.414,64.086,7.202,-91.309,0,0,0,
,0.606,-0.747,-0.422,65.002,-0.367,-96.924,0,0,0,
,0.663,-0.621,-0.438,-25.208,26.489,-28.199,0,0,0,
,0.584,-0.583,-0.364,111.877,-11.841,-70.374,0,0,0,
,0.57,-0.656,-0.483,38.086,57.8,21.484,0,0,0,
,0.514,-0.61,-0.426,23.62,80.139,41.076,0,0,0,
,0.535,-0.558,-0.398,45.166,121.399,115.6,0,0,0,
,0.562,-0.642,-0.414,108.032,115.478,123.291,0,0,0,
,0.576,-0.722,-0.391,54.443,92.224,129.089,0,0,0,
,0.614,-0.696,-0.379,23.925,53.405,104.553,0,0,0,
,0.626,-0.683,-0.37,43.884,15.625,74.829,0,0,0,
,0.643,-0.679,-0.402,80.017,-3.663,43.701,0,0,0,
,0.64,-0.704,-0.428,62.744,-4.7,26.611,0,0,0,
,0.66,-0.678,-0.436,35.156,11.23,17.273,0,0,0,
,0.677,-0.676,-0.44,40.283,21.057,3.173,0,0,0,
,0.672,-0.686,-0.421,43.029,25.39,-1.282,0,0,0,
,0.689,-0.697,-0.432,57.312,31.005,-21.302,0,0,0,
,0.673,-0.73,-0.438,61.401,22.888,-45.716,0,0,0,
,0.679,-0.733,-0.45,70.251,31.738,-71.534,0,0,0,
,0.671,-0.766,-0.429,5.493,56.884,-126.893,0,0,0,
,0.631,-0.781,-0.393,37.048,73.486,-125.977,0,0,0,
,0.631,-0.642,-0.514,81.176,118.591,-44.007,0,0,0,
,0.636,-0.72,-0.453,118.103,148.803,-135.132,0,0,0,
,0.58,-0.93,-0.503,-71.167,169.555,-114.624,0,0,0,
,0.553,-0.908,-0.422,-218.201,193.786,-87.464,0,0,0,
,0.571,-0.868,-0.503,-320.984,239.868,-83.619,0,0,0,
,0.595,-0.962,-0.525,-329.773,251.77,-112.793,0,0,0,
,0.587,-0.999,-0.537,-707.703,326.294,-180.42,0,0,0,
,0.573,-0.95,-0.486,-855.469,342.773,-222.779,0,0,0,
,0.585,-0.965,-0.504,-990.174,365.905,-268.616,0,0,0,
,0.585,-1.02,-0.49,-1257.874,368.774,-316.773,0,0,0,
,0.569,-0.971,-0.464,-1601.868,370.483,-352.234,0,0,0,
,0.537,-0.776,-0.358,-1744.568,383.056,-360.535,0,0,0,
,0.534,-0.791,-0.309,-1735.901,361.633,-398.987,0,0,0,
,0.56,-0.884,-0.154,-1885.193,254.76,-403.565,0,0,0,
,0.447,-0.737,-0.163,-1949.463,256.713,-397.828,0,0,0,
,0.433,-0.597,-0.067,-1825.013,263.733,-395.447,0,0,0,
,0.433,-0.604,-0.013,-1627.381,232.666,-389.893,0,0,0,
,0.407,-0.609,-0.026,-1504.944,149.109,-361.39,0,0,0,
,0.368,-0.659,-0.092,-1609.437,71.106,-324.952,0,0,0,
,0.278,-0.672,-0.04,-1830.262,55.236,-246.949,0,0,0,
,0.217,-0.434,0.066,-1835.816,135.254,-115.784,0,0,0,
,0.25,-0.396,0.077,-1709.168,143.127,-17.456,0,0,0,
,0.229,-0.542,0.143,-1734.009,96.252,42.602,0,0,0,
,0.188,-0.433,0.232,-1818.116,81.787,163.879,0,0,0,
,0.255,-0.405,0.254,-1871.155,3.601,265.075,0,0,0,
,0.255,-0.294,0.386,-1940.369,-89.966,334.777,0,0,0,
,0.174,-0.205,0.527,-1811.707,-94.3,366.394,0,0,0,
,0.232,-0.173,0.596,-1551.392,-22.828,421.447,0,0,0,
,0.27,-0.318,0.576,-1240.479,75.317,511.23,0,0,0,
,0.473,-0.514,0.659,-865.54,261.535,617.553,0,0,0,
,0.625,-0.709,0.659,-793.702,344.726,599.304,0,0,0,
,0.72,-0.676,0.735,-618.348,416.87,493.347,0,0,0,
,0.759,-0.754,0.762,-489.991,462.158,376.281,0,0,0,
,0.766,-0.687,0.815,-374.878,482.788,236.206,0,0,0,
,0.735,-0.571,0.844,-330.628,475.647,139.282,0,0,0,
,0.685,-0.407,0.89,-358.704,464.294,100.891,0,0,0,
,0.675,-0.191,0.889,-406.739,451.477,120.727,0,0,0,
,0.686,-0.163,0.901,-402.71,432.922,136.535,0,0,0,
,0.743,-0.24,0.928,-327.881,394.836,94.665,0,0,0,
,0.773,-0.251,0.995,-216.736,335.205,50.476,0,0,0,
,0.757,-0.298,1.001,-181.092,278.32,-6.226,0,0,0,
,0.759,-0.297,1.031,-90.21,204.223,-76.477,0,0,0,
,0.732,-0.253,1.049,-54.444,128.784,-113.099,0,0,0,
,0.698,-0.225,1.02,-70.496,62.194,-120.484,0,0,0,
,0.67,-0.206,0.961,-98.206,11.047,-116.028,0,0,0,
,0.655,-0.173,0.899,-73.06,-25.574,-109.498,0,0,0,
,0.648,-0.172,0.869,-50.66,-59.998,-92.835,0,0,0,
,0.628,-0.183,0.798,-94.849,-69.825,-71.045,0,0,0,
,0.625,-0.175,0.745,-111.817,-63.904,-43.274,0,0,0,
,0.625,-0.19,0.718,-139.954,-52.369,-33.753,0,0,0,
,0.624,-0.192,0.703,-105.164,-46.082,-30.335,0,0,0,
,0.63,-0.195,0.721,-106.324,-38.941,-18.433,0,0,0,
,0.632,-0.192,0.708,-127.808,-31.861,-5.188,0,0,0,
,0.634,-0.206,0.703,-120.789,-27.344,2.929,0,0,0,
,0.645,-0.207,0.705,-121.094,-26.185,10.315,0,0,0,
,0.645,-0.21,0.698,-121.766,-24.292,15.625,0,0,0,
,0.645,-0.189,0.709,-109.131,-22.095,15.625,0,0,0,
,0.647,-0.247,0.717,-83.313,-22.644,21.545,0,0,0,
,0.651,-0.224,0.723,-51.453,-24.598,26.916,0,0,0,
,0.655,-0.239,0.712,-12.207,-28.565,25.329,0,0,0,
,0.652,-0.24,0.72,-2.503,-33.997,21.728,0,0,0,
,0.649,-0.202,0.747,7.019,-48.218,29.968,0,0,0,
,0.657,-0.206,0.717,21.057,-62.928,42.114,0,0,0,
,0.659,-0.213,0.697,45.654,-70.374,58.349,0,0,0,
,0.66,-0.218,0.695,98.999,-62.195,68.42,0,0,0,
,0.662,-0.232,0.698,136.169,-49.073,68.359,0,0,0,
,0.674,-0.233,0.731,187.317,-44.373,69.641,0,0,0,
,0.678,-0.227,0.761,216.064,-47.791,76.232,0,0,0,
,0.687,-0.221,0.775,229.37,-60.73,77.636,0,0,0,
,0.704,-0.237,0.792,259.216,-83.008,77.209,0,0,0,
,0.713,-0.253,0.815,272.888,-109.192,74.401,0,0,0,
,0.717,-0.278,0.818,278.015,-131.531,63.842,0,0,0,
,0.715,-0.296,0.832,281.494,-154.725,54.504,0,0,0,
,0.704,-0.308,0.83,311.035,-177.857,34.545,0,0,0,
,0.697,-0.332,0.845,359.863,-202.332,16.967,0,0,0,
,0.698,-0.364,0.865,371.093,-220.581,7.141,0,0,0,
,0.696,-0.369,0.865,404.968,-228.516,-7.569,0,0,0,
,0.681,-0.405,0.884,524.658,-225.586,-46.875,0,0,0,
,0.717,-0.357,0.83,551.941,-225.403,-100.159,0,0,0,
,0.643,-0.344,0.773,664.978,-268.555,-154.602,0,0,0,
,0.615,-0.379,0.791,767.578,-266.724,-196.9,0,0,0,
,0.603,-0.305,0.792,1052.734,-263.062,-208.497,0,0,0,
,0.573,-0.33,0.776,1270.935,-289.307,-196.228,0,0,0,
,0.519,-0.383,0.766,1410.522,-274.109,-202.576,0,0,0,
,0.495,-0.381,0.757,1623.718,-249.085,-178.528,0,0,0,
,0.514,-0.468,0.661,1786.621,-247.071,-178.467,0,0,0,
,0.441,-0.538,0.587,1835.083,-232.972,-179.017,0,0,0,
,0.388,-0.576,0.495,1876.526,-175.538,-151.429,0,0,0,
,0.394,-0.628,0.46,1902.954,-114.685,-137.818,0,0,0,
,0.407,-0.651,0.42,1851.745,-95.581,-130.188,0,0,0,
,0.386,-0.685,0.373,1730.651,-100.953,-120.545,0,0,0,
,0.378,-0.73,0.342,1580.81,-130.616,-120.179,0,0,0,
,0.393,-0.73,0.319,1444.58,-164.307,-92.957,0,0,0,
,0.383,-0.725,0.244,1386.047,-200.196,-80.872,0,0,0,
,0.366,-0.756,0.194,1359.863,-215.577,-67.2,0,0,0,
,0.37,-0.856,0.125,1268.921,-214.844,-82.154,0,0,0,
,0.343,-0.918,0.121,928.222,-157.898,-59.937,0,0,0,
,0.331,-0.844,0.113,862.915,-116.822,-23.804,0,0,0,
,0.346,-0.839,0.11,863.586,-82.459,-11.353,0,0,0,
,0.358,-0.814,0.104,921.386,-65.491,16.113,0,0,0,
,0.384,-0.841,0.071,943.42,-60.425,30.822,0,0,0,
,0.409,-0.895,0.007,883.484,-62.134,45.898,0,0,0,
,0.405,-0.925,-0.055,772.949,-56.336,57.312,0,0,0,
,0.434,-0.938,-0.097,648.803,-42.908,49.865,0,0,0,
,0.438,-0.987,-0.188,333.13,-27.283,10.498,0,0,0,
,0.412,-0.958,-0.209,229.553,-3.602,-1.648,0,0,0,
,0.413,-0.95,-0.207,184.875,22.277,-6.348,0,0,0,
,0.403,-0.952,-0.204,164.55,28.381,-4.273,0,0,0,
,0.391,-0.941,-0.196,192.749,41.626,2.136,0,0,0,
,0.41,-0.97,-0.206,199.585,39.428,-5.555,0,0,0,
,0.401,-0.99,-0.187,138.61,24.841,-11.414,0,0,0,
,0.409,-0.967,-0.177,75.5,14.831,-24.903,0,0,0,
,0.408,-0.979,-0.178,-3.235,-2.381,-38.88,0,0,0,
,0.418,-0.938,-0.169,-66.956,-0.977,-51.758,0,0,0,
,0.416,-0.933,-0.148,-95.826,-22.583,-80.811,0,0,0,
,0.422,-0.892,-0.158,-65.979,-28.87,-91.126,0,0,0,
,0.4,-0.888,-0.163,-29.969,-17.823,-97.168,0,0,0,
,0.408,-0.891,-0.169,-14.466,-11.109,-98.816,0,0,0,
,0.389,-0.917,-0.166,-35.157,-20.752,-99.732,0,0,0,
,0.385,-0.91,-0.17,-66.712,-9.949,-105.774,0,0,0,
,0.386,-0.897,-0.146,-60.486,-9.339,-109.559,0,0,0,
,0.379,-0.89,-0.157,-26.123,-10.193,-100.525,0,0,0,
,0.346,-0.889,-0.16,4.577,-13.489,-89.295,0,0,0,
,0.369,-0.895,-0.17,24.902,-21.241,-78.858,0,0,0,
,0.377,-0.898,-0.168,37.048,-18.311,-66.407,0,0,0,
,0.383,-0.893,-0.173,45.959,-21.973,-57.373,0,0,0,
,0.383,-0.901,-0.179,52.063,-27.832,-48.89,0,0,0,
,0.388,-0.901,-0.188,50.17,-21.729,-41.016,0,0,0,
,0.402,-0.886,-0.184,64.697,-18.067,-34.607,0,0,0,
,0.407,-0.877,-0.192,91.064,-20.997,-28.992,0,0,0,
,0.422,-0.871,-0.18,110.229,-20.081,-21.485,0,0,0,
,0.422,-0.875,-0.18,118.652,-25.757,-13.245,0,0,0,
,0.431,-0.886,-0.186,117.797,-29.358,-15.015,0,0,0,
,0.426,-0.898,-0.189,92.529,-37.72,-12.207,0,0,0,
,0.421,-0.911,-0.195,48.034,-45.227,-14.588,0,0,0,
,0.415,-0.906,-0.203,-9.461,-43.946,-16.663,0,0,0,
,0.417,-0.907,-0.193,-24.964,-48.34,-18.067,0,0,0,
,0.421,-0.907,-0.184,-21.424,-50.66,-17.518,0,0,0,
,0.431,-0.896,-0.179,25.756,-55.298,-13.489,0,0,0,
,0.439,-0.907,-0.177,69.885,-66.834,-11.292,0,0,0,
,0.448,-0.902,-0.175,94.299,-71.351,-6.531,0,0,0,
,0.445,-0.906,-0.162,101.379,-83.13,-5.982,0,0,0,
,0.444,-0.91,-0.161,93.383,-89.112,-4.09,0,0,0,
,0.438,-0.916,-0.152,71.777,-93.384,1.892,0,0,0,
,0.429,-0.903,-0.143,57.556,-90.455,11.718,0,0,0,
,0.421,-0.912,-0.143,55.786,-83.741,25.207,0,0,0,
,0.414,-0.907,-0.147,49.438,-69.153,43.579,0,0,0,
,0.404,-0.9,-0.142,52.368,-54.871,59.387,0,0,0,
,0.402,-0.891,-0.158,64.88,-28.626,78.002,0,0,0,
,0.401,-0.888,-0.165,70.861,-3.174,95.275,0,0,0,
,0.41,-0.873,-0.19,75.073,24.658,115.417,0,0,0,
,0.416,-0.878,-0.197,76.11,45.715,129.394,0,0,0,
,0.425,-0.89,-0.203,52.673,70.495,135.437,0,0,0,
,0.44,-0.893,-0.196,35.583,81.543,135.62,0,0,0,
,0.452,-0.918,-0.196,-2.991,71.96,116.516,0,0,0,
,0.461,-0.914,-0.2,-22.706,56.701,99.304,0,0,0,
,0.463,-0.911,-0.209,-35.462,38.757,84.35,0,0,0,
,0.469,-0.887,-0.23,-27.71,29.174,68.969,0,0,0,
,0.467,-0.879,-0.242,6.164,24.169,55.847,0,0,0,
,0.459,-0.877,-0.25,31.005,32.104,43.09,0,0,0,
,0.463,-0.867,-0.244,57.8,40.649,28.686,0,0,0,
,0.452,-0.881,-0.23,78.979,44.006,10.742,0,0,0,
,0.447,-0.899,-0.212,63.049,44.189,-5.31,0,0,0,
,0.432,-0.888,-0.201,54.199,41.931,-24.964,0,0,0,
,0.42,-0.888,-0.192,64.086,35.766,-41.321,0,0,0,
,0.399,-0.891,-0.207,58.593,36.865,-50.843,0,0,0,
,0.393,-0.887,-0.223,69.885,42.541,-56.946,0,0,0,
,0.385,-0.891,-0.247,106.994,52.063,-58.167,0,0,0,
,0.374,-0.911,-0.252,117.248,69.763,-56.153,0,0,0,
,0.372,-0.912,-0.246,110.229,83.679,-58.35,0,0,0,
,0.369,-0.909,-0.232,97.534,99.975,-64.881,0,0,0,
,0.371,-0.866,-0.199,116.76,111.694,-64.942,0,0,0,
,0.393,-0.818,-0.172,222.717,123.962,-41.199,0,0,0,
,0.375,-0.809,-0.201,299.011,124.939,-21.729,0,0,0,
,0.393,-0.817,-0.233,381.958,127.563,8.178,0,0,0,
,0.385,-0.9,-0.266,384.582,117.614,17.7,0,0,0,
,0.388,-0.974,-0.311,286.499,115.356,-0.733,0,0,0,
,0.393,-1.028,-0.345,95.459,118.53,-18.86,0,0,0,
,0.394,-1.001,-0.371,-77.027,125.732,-35.706,0,0,0,
,0.386,-0.995,-0.36,-199.036,120.3,-52.124,0,0,0,
,0.389,-0.951,-0.356,-286.683,125.61,-59.082,0,0,0,
,0.374,-0.904,-0.342,-308.838,138.733,-58.655,0,0,0,
,0.381,-0.861,-0.325,-291.81,158.813,-43.519,0,0,0,
,0.373,-0.846,-0.316,-254.639,170.166,-27.771,0,0,0,
,0.383,-0.856,-0.308,-238.892,182.19,-9.095,0,0,0,
,0.381,-0.852,-0.293,-231.385,188.415,2.075,0,0,0,
,0.391,-0.86,-0.29,-229.554,196.594,9.582,0,0,0,
,0.39,-0.868,-0.301,-250.123,193.847,21.911,0,0,0,
,0.398,-0.851,-0.292,-271.058,195.556,37.658,0,0,0,
,0.41,-0.844,-0.31,-278.565,201.599,51.33,0,0,0,
,0.425,-0.848,-0.314,-292.908,201.904,56.396,0,0,0,
,0.429,-0.829,-0.314,-307.862,201.904,64.697,0,0,0,
,0.432,-0.811,-0.302,-330.628,205.871,76.232,0,0,0,
,0.44,-0.802,-0.299,-331.604,212.341,86.486,0,0,0,
,0.447,-0.795,-0.295,-329.163,219.36,94.177,0,0,0,
,0.464,-0.788,-0.292,-316.59,225.219,103.637,0,0,0,
,0.473,-0.789,-0.274,-303.467,228.149,114.135,0,0,0,
,0.479,-0.81,-0.25,-297.547,223.693,121.338,0,0,0,
,0.488,-0.798,-0.23,-275.94,212.402,126.037,0,0,0,
,0.487,-0.804,-0.224,-231.446,197.265,130.676,0,0,0,
,0.498,-0.814,-0.224,-190.125,182.006,130.859,0,0,0,
,0.496,-0.811,-0.232,-144.288,168.884,128.967,0,0,0,
,0.505,-0.81,-0.242,-106.141,152.771,128.173,0,0,0,
,0.493,-0.807,-0.249,-67.566,143.982,126.281,0,0,0,
,0.499,-0.799,-0.26,-9.644,137.512,125.061,0,0,0,
,0.5,-0.807,-0.271,44.799,132.873,119.262,0,0,0,
,0.51,-0.801,-0.278,88.806,127.441,111.45,0,0,0,
,0.515,-0.808,-0.269,109.802,121.032,92.468,0,0,0,
,0.523,-0.787,-0.244,111.755,118.408,75.378,0,0,0,
,0.532,-0.762,-0.213,141.54,118.347,71.96,0,0,0,
,0.547,-0.746,-0.204,206.359,123.718,70.129,0,0,0,
,0.574,-0.766,-0.189,279.968,108.459,75.805,0,0,0,
,0.595,-0.81,-0.169,328.674,70.556,75.378,0,0,0,
,0.655,-0.84,-0.227,366.211,50.659,53.711,0,0,0,
,0.629,-0.913,-0.147,235.717,-24.842,59.448,0,0,0,
,0.641,-0.811,-0.115,128.357,-35.828,86.975,0,0,0,
,0.655,-0.738,-0.058,80.2,-79.102,94.543,0,0,0,
,0.559,-0.63,-0.121,243.347,-80.75,153.625,0,0,0,
,0.803,-0.869,0.111,296.875,-98.328,131.469,0,0,0,
,0.759,-0.509,0.075,208.679,-131.714,226.318,0,0,0,
,0.703,-0.659,-0.101,454.589,-130.372,122.741,0,0,0,
,0.726,-0.837,-0.144,359.985,-133.24,119.751,0,0,0,
,0.629,-0.719,-0.285,372.436,-115.662,141.357,0,0,0,
,0.588,-0.831,-0.456,457.763,-101.38,106.689,0,0,0,
,0.576,-0.956,-0.474,263.244,-80.506,120.239,0,0,0,
,0.552,-0.87,-0.405,19.836,-58.472,149.658,0,0,0,
,0.555,-0.798,-0.292,-16.419,-38.208,142.639,0,0,0,
,0.589,-0.912,-0.431,250.366,14.343,38.879,0,0,0,
,0.568,-0.958,-0.441,163.025,-28.748,56.396,0,0,0,
,0.576,-0.791,-0.41,-14.161,16.113,95.581,0,0,0,
,0.635,-0.753,-0.439,92.773,28.808,44.067,0,0,0,
,0.627,-0.885,-0.425,7.629,23.071,26.794,0,0,0,
,0.602,-0.82,-0.354,-93.995,39.856,56.884,0,0,0,
,0.582,-0.796,-0.236,-68.848,24.414,76.416,0,0,0,
,0.595,-0.786,-0.311,20.568,62.744,2.99,0,0,0,
,0.623,-0.752,-0.203,22.888,41.748,106.384,0,0,0,
,0.605,-0.78,-0.259,69.58,33.264,53.894,0,0,0,
,0.597,-0.843,-0.292,24.597,31.921,74.585,0,0,0,
,0.587,-0.802,-0.305,-43.03,40.466,88.195,0,0,0,
,0.604,-0.818,-0.323,-55.542,31.494,68.969,0,0,0,
,0.606,-0.812,-0.325,-72.144,35.644,59.631,0,0,0,
,0.602,-0.795,-0.335,-85.694,31.005,46.386,0,0,0,
,0.582,-0.754,-0.341,-81.91,29.846,42.175,0,0,0,
,0.592,-0.753,-0.367,-93.567,52.429,25.268,0,0,0,
,0.604,-0.757,-0.372,-137.269,61.523,12.451,0,0,0,
,0.612,-0.709,-0.342,-199.585,60.607,8.361,0,0,0,
,0.635,-0.65,-0.323,-186.829,50.72,1.586,0,0,0,
,0.626,-0.617,-0.309,-133.851,27.954,-4.151,0,0,0,
,0.641,-0.633,-0.319,-119.751,20.141,-18.128,0,0,0,
,0.667,-0.661,-0.342,-152.222,31.799,-33.57,0,0,0,
,0.692,-0.681,-0.34,-175.66,38.33,-37.781,0,0,0,
,0.706,-0.708,-0.349,-156.25,53.711,-44.312,0,0,0,
,0.711,-0.75,-0.367,-143.372,67.932,-63.538,0,0,0,
,0.68,-0.815,-0.348,-182.984,77.392,-75.989,0,0,0,
,0.692,-0.904,-0.337,-258.362,109.375,-114.258,0,0,0,
,0.71,-0.918,-0.288,-360.352,125.915,-140.137,0,0,0,
,0.693,-0.9,-0.28,-410.035,142.395,-186.036,0,0,0,
,0.657,-0.919,-0.254,-428.833,157.653,-233.277,0,0,0,
,0.607,-0.905,-0.233,-392.701,175.171,-258.728,0,0,0,
,0.596,-0.926,-0.138,-458.558,193.908,-280.091,0,0,0,
,0.562,-1.009,-0.088,-450.013,178.65,-307.74,0,0,0,
,0.557,-1.006,-0.094,-398.133,179.199,-331.727,0,0,0,
,0.549,-1.044,-0.112,-467.53,148.315,-365.845,0,0,0,
,0.516,-1.074,-0.056,-605.713,96.679,-389.649,0,0,0,
,0.474,-1.031,-0.05,-731.629,76.965,-408.997,0,0,0,
,0.462,-0.976,-0.029,-824.28,59.326,-411.377,0,0,0,
,0.463,-0.966,-0.026,-876.831,29.907,-425.11,0,0,0,
,0.47,-0.975,0.014,-954.468,-18.555,-422.852,0,0,0,
,0.459,-0.975,0.031,-1056.092,-65.857,-428.284,0,0,0,
,0.445,-0.96,0.012,-1187.989,-98.511,-421.57,0,0,0,
,0.413,-0.893,0.051,-1293.457,-119.324,-392.701,0,0,0,
,0.4,-0.815,0.062,-1341.797,-126.343,-373.169,0,0,0,
,0.389,-0.817,0.057,-1424.134,-140.076,-341.614,0,0,0,
,0.376,-0.868,0.004,-1597.291,-136.902,-298.34,0,0,0,
,0.362,-0.829,0.024,-1854.981,-122.132,-223.816,0,0,0,
,0.362,-0.731,0.157,-1987.916,-99.06,-150.696,0,0,0,
,0.444,-0.711,0.225,-2000,-165.467,-95.398,0,0,0,
,0.435,-0.667,0.293,-2000,-291.321,-15.442,0,0,0,
,0.369,-0.4,0.382,-2000,-403.138,49.743,0,0,0,
,0.296,-0.257,0.448,-2000,-420.655,128.173,0,0,0,
,0.173,-0.212,0.383,-2000,-341.065,225.158,0,0,0,
,0.165,-0.156,0.401,-2000,-196.656,284.24,0,0,0,
,0.164,-0.363,0.347,-1536.194,129.455,309.326,0,0,0,
,0.124,-0.333,0.276,-1304.627,331.787,288.269,0,0,0,
,0.121,-0.36,0.302,-1058.777,494.995,258.117,0,0,0,
,0.189,-0.24,0.434,-909.607,641.54,232.36,0,0,0,
,0.174,-0.154,0.603,-748.475,751.464,248.779,0,0,0,
,0.242,-0.035,0.742,-687.867,857.971,305.542,0,0,0,
,0.428,0.013,0.953,-569.642,921.692,382.934,0,0,0,
,0.622,-0.062,1.149,-491.883,911.132,453.552,0,0,0,
,0.81,-0.134,1.236,-434.998,858.459,460.51,0,0,0,
,0.929,-0.233,1.266,-430.848,778.93,378.051,0,0,0,
,0.956,-0.287,1.094,-411.683,699.524,228.454,0,0,0,
,0.961,-0.243,1.014,-278.26,595.703,65.124,0,0,0,
,0.952,0.106,0.951,-53.101,486.328,41.137,0,0,0,
,0.865,0.143,0.8,68.359,412.109,76.232,0,0,0,
,0.874,0.416,0.998,234.863,397.705,217.529,0,0,0,
,1.18,0.437,1.117,618.408,224.426,-64.698,0,0,0,
,0.869,0.073,1.033,585.51,57.739,57.373,0,0,0,
,0.699,0.032,0.921,377.99,0.366,20.874,0,0,0,
,0.835,0.167,0.984,382.385,-61.219,-39.002,0,0,0,
,0.689,0.089,0.983,319.03,-126.404,7.629,0,0,0,
,0.6,0.049,0.797,247.497,-126.221,-8.362,0,0,0,
,0.655,0.169,0.899,214.538,-130.31,11.779,0,0,0,
,0.596,0.045,0.735,51.208,-95.826,18.188,0,0,0,
,0.652,0.04,0.768,28.747,-83.497,7.019,0,0,0,
,0.648,0.001,0.77,-48.462,-71.656,16.174,0,0,0,
,0.636,-0.07,0.718,-95.643,-53.345,3.112,0,0,0,
,0.655,-0.058,0.736,-109.559,-39.185,-4.151,0,0,0,
,0.619,-0.084,0.707,-123.108,-23.926,-0.855,0,0,0,
,0.615,-0.095,0.691,-98.389,-5.188,-2.808,0,0,0,
,0.631,-0.086,0.715,-68.116,5.249,2.014,0,0,0,
,0.626,-0.095,0.693,-58.106,13,9.643,0,0,0,
,0.64,-0.103,0.679,-27.588,14.343,9.826,0,0,0,
,0.643,-0.078,0.705,-5.982,11.169,10.498,0,0,0,
,0.646,-0.09,0.711,-2.198,8.606,15.93,0,0,0,
,0.655,-0.089,0.71,13.549,4.882,17.822,0,0,0,
,0.658,-0.08,0.721,33.752,-0.55,14.343,0,0,0,
,0.652,-0.067,0.731,49.133,-5.433,12.39,0,0,0,
,0.652,-0.058,0.762,59.692,-14.161,9.582,0,0,0,
,0.657,-0.047,0.784,79.773,-25.757,6.042,0,0,0,
,0.65,-0.049,0.806,102.722,-43.274,-3.968,0,0,0,
,0.656,-0.051,0.813,102.478,-54.993,-11.902,0,0,0,
,0.656,-0.048,0.823,105.285,-69.642,-21.607,0,0,0,
,0.651,-0.053,0.819,103.21,-84.107,-32.959,0,0,0,
,0.654,-0.057,0.825,111.328,-94.178,-45.105,0,0,0,
,0.662,-0.042,0.821,126.403,-104.371,-56.153,0,0,0,
,0.659,-0.05,0.812,152.71,-117.798,-71.839,0,0,0,
,0.661,-0.061,0.796,143.982,-128.724,-81.055,0,0,0,
,0.672,-0.053,0.802,164.795,-139.161,-90.027,0,0,0,
,0.684,-0.073,0.809,217.407,-152.1,-96.924,0,0,0,
,0.698,-0.08,0.817,256.958,-167.359,-105.713,0,0,0,
,0.699,-0.085,0.83,337.219,-182.496,-115.845,0,0,0,
,0.7,-0.11,0.824,413.391,-189.209,-121.766,0,0,0,
,0.684,-0.135,0.789,488.769,-203.431,-131.592,0,0,0,
,0.687,-0.148,0.784,534.179,-224.305,-146.18,0,0,0,
,0.655,-0.169,0.793,584.289,-247.254,-166.26,0,0,0,
,0.68,-0.169,0.83,692.199,-272.339,-167.42,0,0,0,
,0.677,-0.225,0.861,828.186,-288.208,-190.979,0,0,0,
,0.689,-0.263,0.888,1029.602,-306.519,-215.394,0,0,0,
,0.666,-0.319,0.865,1247.436,-336.976,-242.31,0,0,0,
,0.641,-0.459,0.822,1330.688,-373.23,-273.682,0,0,0,
,0.612,-0.494,0.851,1308.471,-386.841,-274.292,0,0,0,
,0.612,-0.41,0.875,1410.156,-422.364,-258.423,0,0,0,
,0.583,-0.434,0.872,1599.243,-505.982,-266.907,0,0,0,
,0.47,-0.453,0.866,1724.365,-583.191,-263.489,0,0,0,
,0.347,-0.461,0.793,1838.684,-592.286,-229.004,0,0,0,
,0.252,-0.454,0.713,1939.758,-568.299,-191.468,0,0,0,
,0.211,-0.499,0.616,1907.348,-526.917,-165.589,0,0,0,
,0.212,-0.646,0.519,1569.03,-508.118,-171.265,0,0,0,
,0.185,-0.717,0.482,1061.401,-513.916,-141.114,0,0,0,
,0.169,-0.697,0.518,668.823,-484.986,-117.554,0,0,0,
,0.197,-0.67,0.558,553.711,-452.149,-92.835,0,0,0,
,0.199,-0.704,0.555,594.116,-437.928,-88.318,0,0,0,
,0.206,-0.772,0.507,719.543,-412.537,-85.633,0,0,0,
,0.238,-0.872,0.437,792.724,-411.988,-102.723,0,0,0,
,0.229,-0.9,0.357,750.854,-376.954,-100.342,0,0,0,
,0.187,-0.89,0.274,679.626,-354.065,-92.408,0,0,0,
,0.213,-0.864,0.231,588.562,-309.998,-82.032,0,0,0,
,0.217,-0.815,0.198,517.151,-266.602,-68.299,0,0,0,
,0.19,-0.853,0.209,463.073,-249.878,-50.66,0,0,0,
,0.258,-0.867,0.135,379.699,-162.903,-20.752,0,0,0,
,0.261,-0.88,0.142,295.044,-130.616,-14.161,0,0,0,
,0.276,-0.841,0.172,264.343,-96.436,-3.113,0,0,0,
,0.297,-0.845,0.148,387.268,-88.196,-7.386,0,0,0,
,0.295,-0.997,0.12,379.028,-109.131,-11.78,0,0,0,
,0.27,-0.949,0.152,250.793,-83.13,-15.625,0,0,0,
,0.24,-0.945,0.176,223.51,-76.477,-12.757,0,0,0,
,0.268,-0.95,0.177,226.989,-64.087,-8.057,0,0,0,
,0.251,-0.957,0.182,216.491,-78.736,-0.733,0,0,0,
,0.224,-0.953,0.173,206.176,-69.947,8.728,0,0,0,
,0.27,-1.04,0.208,87.463,-62.134,-3.846,0,0,0,
,0.28,-1.058,0.226,40.71,-74.036,-21.058,0,0,0,
,0.29,-1.047,0.239,10.376,-83.252,-33.204,0,0,0,
,0.341,-1.058,0.246,21.85,-94.666,-42.542,0,0,0,
,0.33,-1.064,0.258,16.845,-124.451,-44.129,0,0,0,
,0.334,-1.055,0.264,7.019,-121.399,-47.913,0,0,0,
,0.34,-1.042,0.281,6.225,-131.897,-54.139,0,0,0,
,0.347,-1.021,0.292,39.306,-145.386,-59.815,0,0,0,
,0.346,-1.011,0.289,69.763,-153.26,-57.251,0,0,0,
,0.344,-0.995,0.265,106.567,-151.429,-52.185,0,0,0,
,0.345,-1.002,0.248,122.07,-148.682,-28.077,0,0,0,
,0.298,-0.986,0.23,139.892,-138.306,-0.123,0,0,0,
,0.269,-0.969,0.216,150.207,-118.836,-5.005,0,0,0,
,0.223,-0.949,0.203,130.371,-96.436,4.699,0,0,0,
,0.21,-0.945,0.163,104.37,-65.186,33.996,0,0,0,
,0.118,-0.885,0.065,171.508,-32.227,75.805,0,0,0,
,0.055,-0.901,-0.07,219.543,25.512,124.511,0,0,0,
,0.007,-0.906,-0.19,190.673,127.624,169.433,0,0,0,
,0.001,-0.866,-0.238,147.766,253.662,199.524,0,0,0,
,0.02,-0.841,-0.23,110.595,371.521,221.679,0,0,0,
,0.017,-0.82,-0.161,104.187,465.21,241.15,0,0,0,
,0.031,-0.805,-0.071,118.286,513.549,260.864,0,0,0,
,0.028,-0.785,0.006,161.132,524.536,284.668,0,0,0,
,0.057,-0.769,0.014,241.577,512.817,304.016,0,0,0,
,0.079,-0.787,0.004,305.603,482.238,326.965,0,0,0,
,0.126,-0.807,-0.033,328.125,459.9,349.06,0,0,0,
,0.171,-0.822,-0.066,357.483,428.039,367.431,0,0,0,
,0.233,-0.854,-0.098,376.22,417.114,382.568,0,0,0,
,0.275,-0.892,-0.116,369.323,417.907,392.761,0,0,0,
,0.341,-0.935,-0.112,339.355,411.987,399.841,0,0,0,
,0.369,-0.99,-0.103,290.161,399.353,386.779,0,0,0,
,0.374,-1.021,-0.075,234.253,376.464,360.351,0,0,0,
,0.365,-1.029,-0.065,205.505,351.318,333.618,0,0,0,
,0.353,-1.042,-0.045,192.627,308.654,306.274,0,0,0,
,0.362,-1.024,-0.051,213.501,265.808,281.738,0,0,0,
,0.379,-1.021,-0.074,261.535,210.815,256.591,0,0,0,
,0.417,-1.001,-0.105,290.405,172.912,233.337,0,0,0,
,0.522,-1.053,-0.157,316.101,157.898,184.57,0,0,0,
,0.56,-0.608,0.087,247.009,129.516,228.515,0,0,0,
,0.731,-1.144,-0.168,712.768,89.721,87.829,0,0,0,
,0.611,-1.013,-0.38,660.4,171.02,28.564,0,0,0,
,0.645,-1.316,-0.327,379.15,150.695,-24.17,0,0,0,
,0.579,-0.914,-0.284,85.876,201.477,-14.344,0,0,0,
,0.548,-0.843,-0.133,-41.687,139.221,-69.764,0,0,0,
,0.519,-0.802,-0.086,23.498,92.834,-73.121,0,0,0,
,0.509,-0.771,-0.08,61.767,59.631,-54.078,0,0,0,
,0.478,-0.703,-0.1,155.944,26.855,-15.503,0,0,0,
,0.472,-0.714,-0.137,249.817,8.3,22.705,0,0,0,
,0.478,-0.693,-0.17,280.151,4.882,58.837,0,0,0,
,0.487,-0.681,-0.218,319.213,2.441,98.205,0,0,0,
,0.512,-0.7,-0.257,326.233,-3.663,127.807,0,0,0,
,0.558,-0.742,-0.277,323.73,-16.358,155.7,0,0,0,
,0.593,-0.71,-0.291,350.036,-34.852,196.106,0,0,0,
,0.618,-0.761,-0.34,326.172,-42.176,190.551,0,0,0,
,0.615,-0.815,-0.357,187.744,-75.745,188.354,0,0,0,
,0.68,-0.855,-0.394,-48.096,-72.876,168.701,0,0,0,
,0.701,-0.852,-0.252,-268.372,-155.884,167.175,0,0,0,
,0.684,-0.711,-0.314,-390.625,-127.381,161.743,0,0,0,
,0.728,-0.74,-0.251,-305.42,-130.555,143.921,0,0,0,
,0.682,-0.69,-0.249,-185.852,-137.391,164.611,0,0,0,
,0.631,-0.699,-0.322,-28.992,-112.549,165.771,0,0,0,
,0.614,-0.741,-0.321,99.426,-111.206,192.993,0,0,0,
,0.642,-0.708,-0.277,27.221,-74.952,203.491,0,0,0,
,0.603,-0.709,-0.266,57.128,-95.581,200.195,0,0,0,
,0.603,-0.765,-0.246,7.141,-90.332,184.814,0,0,0,
,0.595,-0.715,-0.224,8.361,-100.037,201.233,0,0,0,
,0.584,-0.488,-0.197,135.376,-82.886,227.478,0,0,0,
,0.738,-0.808,-0.392,443.359,-68.299,98.266,0,0,0,
,0.72,-0.914,-0.472,516.662,-96.375,133.667,0,0,0,
,0.619,-0.943,-0.678,334.777,-53.467,96.984,0,0,0,
,0.668,-1.047,-0.477,14.77,-31.983,51.086,0,0,0,
,0.655,-0.809,-0.458,-98.816,3.112,64.941,0,0,0,
,0.654,-0.863,-0.365,-89.844,5.859,9.765,0,0,0,
,0.629,-0.786,-0.289,-121.582,22.888,5.371,0,0,0,
,0.637,-0.729,-0.254,-50.66,29.663,-19.471,0,0,0,
,0.634,-0.723,-0.252,6.469,19.47,-28.26,0,0,0,
,0.622,-0.734,-0.242,-20.752,13.366,-32.776,0,0,0,
,0.613,-0.703,-0.245,-52.308,9.155,-26.49,0,0,0,
,0.617,-0.675,-0.245,-42.969,1.037,-19.715,0,0,0,
,0.629,-0.682,-0.283,16.174,-0.733,-4.09,0,0,0,
,0.633,-0.689,-0.307,27.71,-2.259,6.408,0,0,0,
,0.635,-0.703,-0.316,32.47,-3.113,5.798,0,0,0,
,0.635,-0.715,-0.328,30.212,-3.785,5.432,0,0,0,
,0.634,-0.719,-0.324,33.264,-4.151,2.502,0,0,0,
,0.626,-0.723,-0.331,35.583,-2.137,-2.137,0,0,0,
,0.637,-0.733,-0.322,27.771,-1.831,-10.804,0,0,0,
,0.635,-0.727,-0.308,1.831,-7.142,-9.4,0,0,0,
,0.632,-0.698,-0.31,8.85,-2.32,-8.606,0,0,0,
,0.639,-0.713,-0.317,30.944,-3.663,-9.034,0,0,0,
,0.635,-0.732,-0.329,27.587,-0.367,-10.56,0,0,0,
,0.63,-0.722,-0.327,27.221,6.652,-14.344,0,0,0,
,0.624,-0.731,-0.32,24.414,10.986,-16.419,0,0,0,
,0.623,-0.725,-0.308,16.54,14.16,-18.189,0,0,0,
,0.63,-0.717,-0.301,4.089,18.371,-21.668,0,0,0,
,0.631,-0.697,-0.286,-3.846,12.512,-19.349,0,0,0,
,0.629,-0.691,-0.272,-8.606,7.019,-16.541,0,0,0,
,0.622,-0.666,-0.327,-5.005,3.906,-5.433,0,0,0,
,0.657,-0.7,-0.259,32.714,-5.555,-17.334,0,0,0,
,0.62,-0.68,-0.259,41.198,-23.621,17.273,0,0,0,
,0.648,-0.702,-0.267,62.866,-27.588,-3.907,0,0,0,
,0.643,-0.687,-0.278,84.411,-37.11,14.038,0,0,0,
,0.707,-0.701,-0.313,194.152,-5.066,-2.198,0,0,0,
,0.677,-0.756,-0.347,176.452,-42.115,-4.761,0,0,0,
,0.637,-0.755,-0.363,121.032,-14.771,-16.907,0,0,0,
,0.665,-0.737,-0.362,57.8,8.3,-7.752,0,0,0,
,0.673,-0.695,-0.31,25.512,-3.296,-3.785,0,0,0,
,0.66,-0.654,-0.305,107.91,1.037,28.808,0,0,0,
,0.665,-0.702,-0.333,91.552,-7.019,41.992,0,0,0,
,0.673,-0.739,-0.362,66.772,-9.949,45.532,0,0,0,
,0.699,-0.761,-0.387,24.78,-7.935,44.433,0,0,0,
,0.697,-0.744,-0.379,-59.021,-9.644,45.105,0,0,0,
,0.722,-0.707,-0.355,-110.779,4.76,26.855,0,0,0,
,0.754,-0.72,-0.334,-135.56,7.629,-11.231,0,0,0,
,0.755,-0.749,-0.345,-121.216,12.207,-75.806,0,0,0,
,0.749,-0.738,-0.326,-98.511,25.268,-87.586,0,0,0,
,0.731,-0.702,-0.274,-83.008,42.175,-109.314,0,0,0,
,0.703,-0.71,-0.254,-71.167,61.95,-141.236,0,0,0,
,0.697,-0.802,-0.255,-122.681,69.397,-179.688,0,0,0,
,0.672,-0.808,-0.266,-185.73,90.148,-190.674,0,0,0,
,0.686,-0.797,-0.271,-204.956,109.497,-223.633,0,0,0,
,0.678,-0.825,-0.271,-223.755,117.37,-248.414,0,0,0,
,0.661,-0.84,-0.257,-251.038,124.817,-269.776,0,0,0,
,0.646,-0.871,-0.253,-287.537,130.554,-299.195,0,0,0,
,0.642,-0.897,-0.223,-251.404,128.479,-322.571,0,0,0,
,0.63,-0.853,-0.236,-183.35,128.967,-342.652,0,0,0,
,0.629,-0.936,-0.274,-180.542,132.141,-394.959,0,0,0,
,0.584,-0.974,-0.273,-318.116,118.774,-405.03,0,0,0,
,0.559,-0.99,-0.246,-514.161,122.192,-433.289,0,0,0,
,0.54,-0.899,-0.2,-600.342,131.836,-434.327,0,0,0,
,0.567,-1.021,-0.252,-658.143,125.549,-495.484,0,0,0,
,0.526,-1.019,-0.225,-840.943,114.685,-488.038,0,0,0,
,0.513,-0.998,-0.198,-1010.865,130.981,-517.334,0,0,0,
,0.514,-0.978,-0.21,-1177.491,133.3,-534.424,0,0,0,
,0.484,-0.952,-0.15,-1334.473,118.042,-543.824,0,0,0,
,0.442,-0.926,-0.135,-1497.376,116.272,-547.303,0,0,0,
,0.419,-0.873,-0.102,-1634.827,112.793,-535.157,0,0,0,
,0.397,-0.847,-0.02,-1783.997,63.72,-511.17,0,0,0,
,0.385,-0.999,-0.082,-1992.005,21.545,-491.333,0,0,0,
,0.342,-1.123,-0.069,-2000,-6.531,-467.896,0,0,0,
,0.201,-0.79,0.012,-2000,83.252,-379.456,0,0,0,
,0.186,-0.181,0.117,-2000,81.237,-238.038,0,0,0,
,0.215,-0.329,0.08,-2000,-46.509,-233.521,0,0,0,
,0.002,-0.427,0.03,-2000,47.729,-226.075,0,0,0,
,-0.123,-0.261,-0.077,-2000,288.635,-167.847,0,0,0,
,-0.121,0.12,-0.007,-2000,531.982,2.624,0,0,0,
,0.069,0.415,0.24,-2000,671.447,103.942,0,0,0,
,0.132,0.118,0.264,-2000,723.816,177.856,0,0,0,
,0.16,-0.005,0.435,-1904.969,868.347,250.488,0,0,0,
,0.453,-0.02,0.701,-1509.034,951.355,321.777,0,0,0,
,0.57,-0.132,0.873,-1099.366,916.381,327.88,0,0,0,
,0.702,-0.111,1.084,-834.046,865.661,341.064,0,0,0,
,0.78,-0.159,1.222,-599.732,767.212,310.73,0,0,0,
,0.853,-0.174,1.239,-446.534,651.367,262.39,0,0,0,
,0.858,-0.236,1.19,-316.773,547.18,189.941,0,0,0,
,0.837,-0.222,1.081,-321.961,468.872,101.745,0,0,0,
,0.824,-0.034,0.977,-232.85,433.166,30.517,0,0,0,
,0.87,0.152,0.898,-148.377,375.488,31.799,0,0,0,
,0.757,0.09,0.833,-2.625,339.721,29.052,0,0,0,
,0.833,0.226,0.868,280.822,275.329,61.523,0,0,0,
,0.875,0.208,0.908,438.354,208.557,102.539,0,0,0,
,0.777,0.069,0.812,395.996,186.95,97.473,0,0,0,
,0.786,0.09,0.906,457.641,161.56,55.603,0,0,0,
,0.759,0.095,0.961,487.915,107.238,52.185,0,0,0,
,0.716,0.064,0.949,460.815,51.879,49.072,0,0,0,
,0.692,0.056,0.889,387.39,18.981,40.466,0,0,0,
,0.674,0.02,0.859,298.156,-12.696,23.498,0,0,0,
,0.648,0.024,0.809,204.589,-25.574,12.512,0,0,0,
,0.655,-0.001,0.797,156.067,-31.189,3.234,0,0,0,
,0.651,-0.041,0.77,94.604,-28.87,-3.968,0,0,0,
,0.657,-0.049,0.739,21.301,-20.447,-20.264,0,0,0,
,0.675,-0.064,0.738,-19.593,-14.344,-41.626,0,0,0,
,0.685,-0.08,0.735,-66.04,-15.931,-45.716,0,0,0,
,0.688,-0.084,0.711,-52.613,-22.889,-50.66,0,0,0,
,0.688,-0.094,0.709,-45.35,-29.847,-56.58,0,0,0,
,0.685,-0.097,0.697,-43.091,-31.25,-59.571,0,0,0,
,0.676,-0.1,0.677,-42.359,-28.809,-63.782,0,0,0,
,0.671,-0.094,0.692,-21.485,-26.185,-60.608,0,0,0,
,0.673,-0.079,0.696,19.287,-23.316,-46.814,0,0,0,
,0.67,-0.085,0.699,63.903,-23.377,-39.307,0,0,0,
,0.669,-0.081,0.711,85.815,-19.165,-30.457,0,0,0,
,0.668,-0.083,0.728,112.671,-20.02,-21.79,0,0,0,
,0.663,-0.071,0.732,132.69,-23.743,-19.043,0,0,0,
,0.669,-0.059,0.744,146.911,-26.551,-15.625,0,0,0,
,0.667,-0.058,0.75,159.607,-34.302,-14.222,0,0,0,
,0.663,-0.055,0.769,151.062,-40.345,-13.977,0,0,0,
,0.671,-0.059,0.777,145.568,-44.8,-15.686,0,0,0,
,0.677,-0.061,0.783,145.568,-55.542,-23.438,0,0,0,
,0.677,-0.074,0.794,142.761,-71.473,-27.527,0,0,0,
,0.685,-0.081,0.799,147.033,-90.149,-34.363,0,0,0,
,0.684,-0.102,0.813,156.067,-106.507,-49.5,0,0,0,
,0.675,-0.102,0.814,168.518,-123.597,-63.05,0,0,0,
,0.659,-0.127,0.81,169.006,-143.799,-81.543,0,0,0,
,0.644,-0.113,0.83,146.301,-156.617,-95.032,0,0,0,
,0.653,-0.131,0.856,153.686,-175.721,-107.361,0,0,0,
,0.663,-0.146,0.87,179.382,-198.365,-128.235,0,0,0,
,0.658,-0.161,0.884,203.491,-226.258,-155.091,0,0,0,
,0.652,-0.196,0.878,228.149,-251.526,-182.251,0,0,0,
,0.647,-0.213,0.86,301.574,-270.997,-202.698,0,0,0,
,0.647,-0.238,0.863,427.429,-285.157,-229.31,0,0,0,
,0.655,-0.261,0.878,523.193,-294.495,-258.545,0,0,0,
,0.66,-0.311,0.91,493.042,-305.848,-271.607,0,0,0,
,0.661,-0.307,0.891,486.206,-321.473,-263.001,0,0,0,
,0.632,-0.334,0.834,627.136,-344.483,-273.072,0,0,0,
,0.651,-0.362,0.816,800.598,-374.817,-280.152,0,0,0,
,0.662,-0.415,0.844,864.929,-371.827,-284.974,0,0,0,
,0.633,-0.446,0.821,835.266,-380.921,-305.054,0,0,0,
,0.602,-0.404,0.826,913.94,-397.034,-297.486,0,0,0,
,0.578,-0.39,0.838,1098.266,-421.509,-303.833,0,0,0,
,0.546,-0.411,0.83,1299.987,-435.73,-296.814,0,0,0,
,0.501,-0.402,0.792,1567.26,-433.35,-291.748,0,0,0,
,0.454,-0.474,0.757,1781.921,-439.026,-295.533,0,0,0,
,0.39,-0.545,0.707,1808.288,-419.739,-292.969,0,0,0,
,0.313,-0.487,0.61,1895.752,-361.817,-210.206,0,0,0,
,0.3,-0.491,0.561,1935.547,-381.714,-176.331,0,0,0,
,0.277,-0.546,0.514,1904.235,-412.537,-136.109,0,0,0,
,0.283,-0.569,0.456,1801.818,-458.497,-98.45,0,0,0,
,0.298,-0.66,0.368,1566.65,-494.019,-64.759,0,0,0,
,0.288,-0.717,0.278,1315.124,-492.798,-16.114,0,0,0,
,0.285,-0.715,0.204,1128.234,-467.53,15.502,0,0,0,
,0.311,-0.74,0.165,949.218,-444.581,41.198,0,0,0,
,0.299,-0.77,0.152,756.775,-406.8,77.88,0,0,0,
,0.305,-0.777,0.1,664.001,-352.112,106.994,0,0,0,
,0.304,-0.809,0.05,668.762,-295.777,129.455,0,0,0,
,0.286,-0.835,0.015,766.235,-231.08,158.325,0,0,0,
,0.275,-0.848,-0.012,911.255,-159.241,195.495,0,0,0,
,0.283,-0.914,-0.041,1007.629,-116.15,225.952,0,0,0,
,0.304,-1.005,-0.062,933.96,-92.591,241.577,0,0,0,
,0.32,-1.087,-0.078,748.352,-82.764,232.666,0,0,0,
,0.342,-1.066,-0.072,323.242,-91.431,164.184,0,0,0,
,0.323,-1.042,-0.081,146.484,-106.934,131.042,0,0,0,
,0.32,-0.985,-0.075,32.226,-118.47,114.196,0,0,0,
,0.313,-0.945,-0.071,12.023,-127.381,99.609,0,0,0,
,0.222,-0.611,-0.197,199.463,-49.988,119.445,0,0,0,
,0.421,-1.296,0.005,304.382,-167.054,67.321,0,0,0,
,0.301,-0.916,-0.082,267.578,-96.68,41.748,0,0,0,
,0.344,-1.086,-0.061,235.839,-169.678,38.024,0,0,0,
,0.347,-1.002,-0.119,176.696,-139.466,6.836,0,0,0,
,0.348,-1.013,-0.131,174.926,-148.865,-11.597,0,0,0,
,0.343,-1.022,-0.147,143.554,-128.235,-35.157,0,0,0,
,0.344,-0.991,-0.138,122.07,-109.986,-46.326,0,0,0,
,0.343,-0.98,-0.121,149.109,-93.995,-55.42,0,0,0,
,0.336,-0.995,-0.114,164.55,-78.309,-62.5,0,0,0,
,0.333,-0.998,-0.093,156.067,-64.515,-61.036,0,0,0,
,0.333,-1.004,-0.086,134.643,-60.242,-67.017,0,0,0,
,0.342,-1.016,-0.089,93.75,-55.726,-72.327,0,0,0,
,0.347,-1.022,-0.086,33.752,-45.777,-66.163,0,0,0,
,0.355,-1.04,-0.074,-28.931,-24.17,-44.8,0,0,0,
,0.345,-1.048,-0.053,-78.98,0.793,-15.992,0,0,0,
,0.334,-1.053,-0.019,-108.887,33.203,24.475,0,0,0,
,0.312,-1.023,-0.013,-116.394,79.223,63.903,0,0,0,
,0.3,-1.007,-0.011,-110.901,123.169,99.365,0,0,0,
,0.295,-0.992,-0.035,-125.733,164.184,127.258,0,0,0,
,0.281,-0.942,-0.061,-163.636,200.012,171.264,0,0,0,
,0.263,-0.945,-0.089,-192.872,238.708,182.006,0,0,0,
,0.239,-0.915,-0.121,-188.05,278.564,203.125,0,0,0,
,0.231,-0.882,-0.146,-166.687,304.382,219.36,0,0,0,
,0.24,-0.856,-0.167,-134.217,326.11,233.337,0,0,0,
,0.237,-0.843,-0.197,-130.372,341.613,245.178,0,0,0,
,0.252,-0.825,-0.223,-141.541,351.44,247.924,0,0,0,
,0.257,-0.849,-0.223,-187.561,355.896,240.783,0,0,0,
,0.283,-0.845,-0.201,-229.493,350.83,221.923,0,0,0,
,0.281,-0.828,-0.183,-223.206,330.81,196.899,0,0,0,
,0.284,-0.826,-0.19,-206.116,307.556,171.447,0,0,0,
,0.291,-0.813,-0.199,-191.773,284.729,151.367,0,0,0,
,0.309,-0.81,-0.221,-168.58,272.155,130.066,0,0,0,
,0.339,-0.799,-0.24,-115.906,276.245,106.018,0,0,0,
,0.362,-0.834,-0.251,-50.11,290.71,86.975,0,0,0,
,0.405,-0.89,-0.254,-38.331,310.547,70.983,0,0,0,
,0.423,-0.935,-0.199,-51.27,315.796,57.556,0,0,0,
,0.464,-0.962,-0.134,-62.073,310.363,36.987,0,0,0,
,0.481,-0.952,-0.104,-63.66,295.166,17.028,0,0,0,
,0.5,-0.937,-0.089,-44.678,283.264,6.652,0,0,0,
,0.502,-0.905,-0.063,-36.438,267.212,12.634,0,0,0,
,0.518,-0.881,-0.074,-15.686,255.92,22.888,0,0,0,
,0.519,-0.845,-0.054,14.465,247.253,37.231,0,0,0,
,0.512,-0.862,-0.059,41.137,240.661,58.471,0,0,0,
,0.522,-0.888,-0.062,35.278,226.135,82.031,0,0,0,
,0.539,-0.896,-0.066,11.413,205.749,95.581,0,0,0,
,0.53,-0.907,-0.068,-40.65,188.11,103.393,0,0,0,
,0.512,-0.882,-0.084,-97.352,170.837,100.586,0,0,0,
,0.469,-0.865,-0.105,-149.353,158.569,99.06,0,0,0,
,0.486,-0.837,-0.097,-189.27,146.728,106.384,0,0,0,
,0.543,-0.814,-0.084,-153.748,122.375,113.403,0,0,0,
,0.576,-0.817,-0.095,-60.242,106.018,113.952,0,0,0,
,0.579,-0.818,-0.123,10.681,98.51,105.774,0,0,0,
,0.568,-0.803,-0.153,46.569,98.022,90.82,0,0,0,
,0.561,-0.776,-0.119,19.531,89.965,85.876,0,0,0,
,0.539,-0.858,-0.255,154.052,105.835,19.226,0,0,0,
,0.444,-0.817,-0.264,-59.632,90.393,20.019,0,0,0,
,0.452,-0.898,-0.267,-185.364,60.546,-25.147,0,0,0,
,0.433,-0.82,-0.229,-315.125,49.377,-30.518,0,0,0,
,0.433,-0.804,-0.202,-204.468,41.809,-30.152,0,0,0,
,0.451,-0.86,-0.233,-51.575,58.227,-28.26,0,0,0,
,0.478,-0.871,-0.206,36.254,68.847,-37.232,0,0,0,
,0.48,-0.891,-0.187,109.497,66.101,-42.664,0,0,0,
,0.504,-0.888,-0.152,86.425,62.255,-61.341,0,0,0,
,0.5,-0.82,-0.101,75.5,50.964,-77.027,0,0,0,
,0.514,-0.785,-0.09,98.938,44.738,-73.975,0,0,0,
,0.581,-0.688,-0.132,329.04,50.048,-39.246,0,0,0,
,0.606,-0.776,-0.152,510.07,37.353,-18.189,0,0,0,
,0.656,-0.844,-0.195,563.72,39.306,-24.964,0,0,0,
,0.665,-0.881,-0.213,454.345,28.442,-28.199,0,0,0,
,0.671,-0.889,-0.2,242.309,39.001,-33.875,0,0,0,
,0.607,-0.773,-0.123,112.609,26.367,-20.508,0,0,0,
,0.624,-0.709,-0.108,150.329,59.631,0.61,0,0,0,
,0.619,-0.684,-0.086,332.763,44.494,28.442,0,0,0,
,0.607,-0.753,-0.119,478.942,28.381,35.766,0,0,0,
,0.608,-0.807,-0.181,547.18,7.69,48.523,0,0,0,
,0.578,-0.861,-0.184,446.777,-21.668,51.513,0,0,0,
,0.571,-0.831,-0.213,369.751,-14.344,68.847,0,0,0,
,0.598,-0.787,-0.196,349.975,-18.006,91.919,0,0,0,
,0.577,-0.788,-0.233,362.487,-36.499,80.505,0,0,0,
,0.594,-0.838,-0.27,324.401,-44.617,72.448,0,0,0,
,0.591,-0.825,-0.286,243.652,-55.359,99.243,0,0,0,
,0.6,-0.807,-0.318,232.36,-46.57,94.848,0,0,0,
,0.63,-0.861,-0.297,180.481,-52.369,85.266,0,0,0,
,0.627,-0.842,-0.327,119.445,-60.791,77.514,0,0,0,
,0.636,-0.878,-0.32,56.03,-74.524,49.682,0,0,0,
,0.622,-0.882,-0.32,-63.05,-79.407,44.738,0,0,0,
,0.629,-0.844,-0.304,-113.953,-77.515,41.198,0,0,0,
,0.629,-0.82,-0.304,-77.515,-64.942,24.963,0,0,0,
,0.621,-0.862,-0.306,-47.852,-67.505,16.174,0,0,0,
,0.594,-0.833,-0.276,-53.956,-58.228,27.832,0,0,0,
,0.591,-0.782,-0.287,-20.874,-36.56,34.484,0,0,0,
,0.598,-0.772,-0.297,52.063,-36.316,27.771,0,0,0,
,0.573,-0.804,-0.315,66.955,-28.016,28.381,0,0,0,
,0.584,-0.819,-0.322,45.41,-21.485,17.822,0,0,0,
,0.576,-0.82,-0.328,2.868,-16.663,20.263,0,0,0,
,0.576,-0.815,-0.327,-17.945,-21.546,10.681,0,0,0,
,0.572,-0.804,-0.32,-26.673,-24.353,5.004,0,0,0,
,0.568,-0.794,-0.321,-11.353,-26.062,-4.883,0,0,0,
,0.573,-0.806,-0.324,-7.081,-24.353,-19.41,0,0,0,
,0.573,-0.803,-0.334,-6.531,-20.264,-28.992,0,0,0,
,0.579,-0.815,-0.324,-24.598,-18.982,-43.152,0,0,0,
,0.578,-0.768,-0.33,-21.973,-12.207,-39.002,0,0,0,
,0.581,-0.785,-0.324,-20.081,-12.146,-52.124,0,0,0,
,0.575,-0.769,-0.326,-23.499,-5.005,-47.425,0,0,0,
,0.587,-0.767,-0.324,-17.579,-3.724,-50.782,0,0,0,
,0.587,-0.78,-0.322,-7.447,-9.644,-47.608,0,0,0,
,0.591,-0.8,-0.293,-16.175,-22.339,-52.796,0,0,0,
,0.592,-0.795,-0.303,-46.082,-23.194,-55.481,0,0,0,
,0.593,-0.798,-0.309,-39.368,-31.128,-67.749,0,0,0,
,0.592,-0.813,-0.322,-51.209,-31.373,-77.698,0,0,0,
,0.587,-0.826,-0.39,-90.699,-27.771,-89.661,0,0,0,
,0.599,-0.758,-0.275,-197.571,-19.715,-44.007,0,0,0,
,0.58,-0.777,-0.337,-106.019,3.234,-104.187,0,0,0,
,0.607,-0.843,-0.308,-106.385,7.873,-71.351,0,0,0,
,0.6,-0.787,-0.317,-87.769,23.742,-74.036,0,0,0,
,0.621,-0.866,-0.317,-14.039,24.169,-106.141,0,0,0,
,0.595,-0.889,-0.338,-15.931,22.827,-126.16,0,0,0,
,0.589,-0.931,-0.221,-110.108,-1.954,-154.541,0,0,0,
,0.561,-0.777,-0.21,-109.253,26.306,-144.898,0,0,0,
,0.57,-0.762,-0.203,-3.174,23.071,-179.322,0,0,0,
,0.516,-0.787,-0.236,28.747,22.766,-177.369,0,0,0,
,0.492,-0.786,-0.239,-26.917,52.673,-168.946,0,0,0,
,0.483,-0.769,-0.241,-64.637,67.749,-146.912,0,0,0,
,0.472,-0.752,-0.266,-32.227,86.669,-131.958,0,0,0,
,0.478,-0.836,-0.254,-37.171,86.12,-126.77,0,0,0,
,0.473,-0.837,-0.255,-33.204,93.566,-115.418,0,0,0,
,0.491,-0.841,-0.23,-15.259,90.881,-114.014,0,0,0,
,0.492,-0.838,-0.23,3.967,76.66,-117.676,0,0,0,
,0.487,-0.842,-0.243,19.592,63.72,-119.935,0,0,0,
,0.483,-0.844,-0.245,16.967,49.133,-120.911,0,0,0,
,0.487,-0.84,-0.237,29.907,41.259,-126.282,0,0,0,
,0.491,-0.864,-0.254,48.4,35.156,-133.24,0,0,0,
,0.495,-0.91,-0.248,49.133,31.799,-141.907,0,0,0,
,0.493,-0.952,-0.236,16.723,25.329,-160.889,0,0,0,
,0.501,-0.991,-0.211,-26.795,26.062,-189.087,0,0,0,
,0.53,-1.022,-0.212,-78.675,23.681,-229.676,0,0,0,
,0.501,-1.062,-0.235,-165.345,23.132,-270.935,0,0,0,
,0.506,-1.086,-0.221,-269.654,17.883,-312.928,0,0,0,
,0.501,-1.126,-0.209,-371.033,22.888,-351.014,0,0,0,
,0.503,-1.142,-0.181,-470.154,24.475,-393.189,0,0,0,
,0.501,-1.152,-0.154,-572.022,22.766,-442.749,0,0,0,
,0.479,-1.15,-0.144,-674.561,19.958,-479.615,0,0,0,
,0.479,-1.168,-0.143,-819.397,23.559,-530.213,0,0,0,
,0.465,-1.147,-0.132,-985.596,28.076,-560.547,0,0,0,
,0.437,-1.122,-0.107,-1181.763,31.189,-589.173,0,0,0,
,0.414,-1.154,-0.129,-1509.156,40.649,-617.31,0,0,0,
,0.372,-1.061,-0.085,-1851.38,33.996,-612.427,0,0,0,
,0.335,-0.959,-0.046,-2000,21.789,-611.084,0,0,0,
,0.291,-0.866,-0.014,-2000,3.234,-588.013,0,0,0,
,0.224,-0.788,-0.076,-2000,-10.193,-536.499,0,0,0,
,0.112,-0.54,0.027,-2000,54.077,-453.248,0,0,0,
,0.092,-0.308,0.144,-2000,-6.165,-373.902,0,0,0,
,0.078,-0.107,0.228,-2000,-176.514,-279.48,0,0,0,
,-0.055,0.011,0.238,-2000,-192.322,-149.781,0,0,0,
,-0.187,0.085,0.278,-2000,-41.504,7.995,0,0,0,
,-0.101,0.082,0.286,-2000,146.362,100.463,0,0,0,
,-0.071,0.109,0.251,-2000,331.726,204.895,0,0,0,
,0.017,0,0.326,-1948.365,459.594,267.456,0,0,0,
,0.142,-0.124,0.52,-1547.547,556.64,366.394,0,0,0,
,0.281,-0.301,0.628,-1140.381,642.151,399.963,0,0,0,
,0.376,-0.311,0.747,-745.606,707.458,412.902,0,0,0,
,0.39,-0.293,0.745,-450.318,745.056,398.925,0,0,0,
,0.453,-0.25,0.763,-213.196,766.906,373.413,0,0,0,
,0.447,-0.249,0.878,-77.881,791.32,342.041,0,0,0,
,0.47,-0.189,0.97,-29.358,822.754,333.557,0,0,0,
,0.514,-0.108,1.03,161.682,832.458,374.389,0,0,0,
,0.573,-0.161,1.009,264.953,846.557,385.192,0,0,0,
,0.672,-0.068,1.129,340.881,837.951,421.508,0,0,0,
,0.801,-0.17,1.104,414.306,800.598,391.784,0,0,0,
,0.889,-0.173,1.109,442.016,765.197,312.317,0,0,0,
,0.903,-0.071,1.09,448.852,701.66,234.192,0,0,0,
,0.915,0.083,1.063,470.398,611.877,184.814,0,0,0,
,0.886,0.158,1.05,514.709,501.648,186.096,0,0,0,
,0.876,0.182,1.038,547.79,396.911,188.11,0,0,0,
,0.853,0.082,1.053,530.273,296.997,160.461,0,0,0,
,0.814,0.028,1.062,481.201,211.609,117.797,0,0,0,
,0.768,-0.004,1.046,390.747,135.803,75.195,0,0,0,
,0.696,-0.021,1.006,309.021,65.551,36.377,0,0,0,
,0.667,-0.005,0.987,236.511,3.967,10.376,0,0,0,
,0.609,0.001,0.943,142.028,-39.307,18.249,0,0,0,
,0.574,-0.033,0.852,91.308,-60.059,5.31,0,0,0,
,0.583,-0.022,0.847,43.945,-71.839,4.699,0,0,0,
,0.58,-0.068,0.772,-26.612,-70.496,5.615,0,0,0,
,0.594,-0.082,0.738,-67.994,-60.486,2.014,0,0,0,
,0.601,-0.092,0.713,-93.811,-47.059,6.591,0,0,0,
,0.604,-0.11,0.688,-111.145,-29.053,4.882,0,0,0,
,0.614,-0.114,0.677,-113.282,-12.269,3.723,0,0,0,
,0.625,-0.109,0.67,-113.343,4.699,-1.831,0,0,0,
,0.641,-0.126,0.662,-101.319,10.742,-8.24,0,0,0,
,0.644,-0.117,0.674,-89.295,17.883,-12.024,0,0,0,
,0.656,-0.103,0.697,-70.252,22.583,-13.306,0,0,0,
,0.672,-0.093,0.714,-57.74,27.587,-7.325,0,0,0,
,0.678,-0.074,0.721,-23.133,30.517,1.77,0,0,0,
,0.685,-0.037,0.747,-16.602,31.127,10.803,0,0,0,
,0.677,-0.034,0.759,-28.626,30.029,20.629,0,0,0,
,0.664,-0.023,0.757,-27.832,30.517,30.639,0,0,0,
,0.656,-0.018,0.757,-38.575,35.827,37.048,0,0,0,
,0.665,-0.052,0.697,-60.852,43.457,34.668,0,0,0,
,0.655,-0.034,0.738,-39.368,33.02,36.743,0,0,0,
,0.663,-0.019,0.743,-16.358,23.376,36.682,0,0,0,
,0.679,-0.046,0.748,-25.391,10.376,38.696,0,0,0,
,0.682,-0.052,0.743,-24.231,3.051,34.484,0,0,0,
,0.703,-0.068,0.756,-14.222,-5.127,28.015,0,0,0,
,0.714,-0.072,0.773,10.376,-20.508,19.226,0,0,0,
,0.734,-0.082,0.805,34.484,-41.26,11.962,0,0,0,
,0.747,-0.078,0.824,67.565,-92.835,-3.968,0,0,0,
,0.746,-0.092,0.843,98.388,-120.179,-18.921,0,0,0,
,0.73,-0.095,0.839,129.821,-158.509,-38.392,0,0,0,
,0.725,-0.114,0.859,173.217,-197.266,-60.608,0,0,0,
,0.735,-0.149,0.877,216.674,-231.568,-93.567,0,0,0,
,0.742,-0.171,0.894,273.925,-261.719,-133.057,0,0,0,
,0.755,-0.201,0.916,360.656,-281.922,-168.335,0,0,0,
,0.785,-0.204,0.884,497.009,-303.406,-216.858,0,0,0,
,0.741,-0.278,0.839,636.169,-330.811,-266.846,0,0,0,
,0.727,-0.27,0.756,853.454,-342.713,-334.9,0,0,0,
,0.688,-0.339,0.741,1049.133,-330.933,-395.447,0,0,0,
,0.698,-0.34,0.753,1207.885,-295.838,-433.655,0,0,0,
,0.686,-0.345,0.779,1407.837,-280.762,-457.337,0,0,0,
,0.638,-0.331,0.786,1602.661,-264.1,-450.013,0,0,0,
,0.584,-0.243,0.706,1886.657,-223.694,-430.787,0,0,0,
,0.556,-0.485,0.662,1999.694,-229.432,-457.459,0,0,0,
,0.486,-0.575,0.607,1999.694,-160.279,-428.467,0,0,0,
,0.49,-0.58,0.567,1999.694,-97.046,-388.977,0,0,0,
,0.48,-0.646,0.481,1999.694,-77.759,-390.686,0,0,0,
,0.426,-0.654,0.383,1999.694,-85.083,-350.892,0,0,0,
,0.367,-0.609,0.311,1999.694,-118.897,-302.308,0,0,0,
,0.282,-0.499,0.245,1999.694,-134.339,-227.662,0,0,0,
,0.246,-0.458,0.168,1999.694,-131.287,-136.78,0,0,0,
,0.199,-0.463,0.151,1999.694,-148.804,-45.105,0,0,0,
,0.195,-0.493,0.134,1999.694,-145.264,64.88,0,0,0,
,0.23,-0.584,0.091,1999.694,-150.94,160.766,0,0,0,
,0.273,-0.705,0.013,1999.694,-208.313,197.692,0,0,0,
,0.285,-0.796,-0.057,1822.326,-278.87,203.186,0,0,0,
,0.322,-0.835,-0.172,1564.636,-293.702,215.271,0,0,0,
,0.409,-0.969,-0.277,1269.653,-326.477,175.415,0,0,0,
,0.427,-1.091,-0.384,842.041,-347.718,137.573,0,0,0,
,0.445,-1.147,-0.425,434.326,-322.632,93.322,0,0,0,
,0.461,-1.1,-0.418,148.132,-283.997,63.415,0,0,0,
,0.463,-1.028,-0.368,75.256,-252.259,23.559,0,0,0,
,0.457,-0.974,-0.335,150.085,-233.338,-7.019,0,0,0,
,0.452,-0.957,-0.338,248.657,-210.328,-35.096,0,0,0,
,0.444,-0.95,-0.362,298.706,-187.989,-52.185,0,0,0,
,0.427,-0.956,-0.392,273.742,-165.406,-76.905,0,0,0,
,0.42,-0.971,-0.399,164.978,-162.11,-95.887,0,0,0,
,0.412,-1.011,-0.4,-6.104,-174.439,-124.878,0,0,0,
,0.383,-0.975,-0.346,-163.453,-157.593,-140.137,0,0,0,
,0.381,-0.931,-0.323,-224.366,-140.076,-152.405,0,0,0,
,0.375,-0.893,-0.31,-204.468,-129.151,-154.908,0,0,0,
,0.355,-0.886,-0.297,-180.42,-113.831,-148.987,0,0,0,
,0.338,-0.845,-0.282,-163.697,-90.516,-124.451,0,0,0,
,0.333,-0.822,-0.272,-122.376,-72.327,-92.957,0,0,0,
,0.303,-0.82,-0.256,-94.3,-65.918,-57.373,0,0,0,
,0.303,-0.802,-0.252,-68.543,-46.265,-8.057,0,0,0,
,0.32,-0.828,-0.273,-49.439,-30.945,30.151,0,0,0,
,0.365,-0.922,-0.297,-97.596,4.455,43.212,0,0,0,
,0.418,-1.001,-0.323,-210.267,45.288,34.118,0,0,0,
,0.48,-1.001,-0.312,-316.163,84.472,13.61,0,0,0,
,0.512,-1.003,-0.285,-400.086,91.491,-10.01,0,0,0,
,0.544,-0.922,-0.234,-426.331,103.82,-38.819,0,0,0,
,0.525,-0.872,-0.196,-369.751,98.816,-34.913,0,0,0,
,0.524,-0.858,-0.176,-291.016,97.961,-31.8,0,0,0,
,0.495,-0.849,-0.162,-193.848,104.919,-24.414,0,0,0,
,0.484,-0.868,-0.174,-141.602,111.45,-22.95,0,0,0,
,0.459,-0.872,-0.179,-124.39,121.093,-16.358,0,0,0,
,0.429,-0.852,-0.186,-121.216,126.22,-0.184,0,0,0,
,0.347,-0.836,-0.193,-113.221,140.625,19.043,0,0,0,
,0.319,-0.817,-0.208,-118.287,168.213,47.119,0,0,0,
,0.275,-0.803,-0.227,-129.09,201.172,77.331,0,0,0,
,0.237,-0.799,-0.247,-158.448,239.502,112.671,0,0,0,
,0.228,-0.828,-0.268,-218.811,278.808,145.324,0,0,0,
,0.218,-0.851,-0.259,-306.641,332.824,170.593,0,0,0,
,0.237,-0.858,-0.248,-369.812,368.225,189.27,0,0,0,
,0.241,-0.856,-0.23,-375.916,372.009,205.871,0,0,0,
,0.261,-0.829,-0.228,-349.793,370.849,221.435,0,0,0,
,0.291,-0.837,-0.256,-273.926,356.079,228.271,0,0,0,
,0.325,-0.879,-0.315,-243.531,346.801,222.107,0,0,0,
,0.427,-0.563,0.012,-106.995,318.542,333.496,0,0,0,
,0.646,-1.221,-0.134,383.545,228.21,103.637,0,0,0,
,0.406,-0.93,-0.26,267.639,259.155,124.084,0,0,0,
,0.525,-1.097,-0.354,110.229,210.815,70.19,0,0,0,
,0.467,-1.011,-0.392,-48.951,233.093,20.935,0,0,0,
,0.465,-0.944,-0.358,-183.716,227.478,20.507,0,0,0,
,0.484,-0.91,-0.272,-227.051,230.713,12.573,0,0,0,
,0.456,-0.748,-0.264,-219.178,232.849,39.062,0,0,0,
,0.494,-0.851,-0.169,-213.501,206.359,50.17,0,0,0,
,0.52,-0.685,-0.077,-215.21,183.593,110.962,0,0,0,
,0.607,-0.707,-0.073,-65.613,149.414,121.948,0,0,0,
,0.678,-0.707,-0.094,-3.174,130.249,155.334,0,0,0,
,0.683,-0.63,-0.094,17.639,121.704,168.64,0,0,0,
,0.793,-0.69,-0.056,62.439,139.77,168.701,0,0,0,
,0.798,-0.656,-0.112,184.936,67.749,180.908,0,0,0,
,0.785,-0.633,-0.152,210.144,39.245,221.13,0,0,0,
,0.741,-0.692,-0.034,166.748,-42.054,229.736,0,0,0,
,0.795,-0.586,-0.154,181.274,9.521,235.229,0,0,0,
,0.822,-0.69,-0.061,197.631,-64.759,233.276,0,0,0,
,0.782,-0.603,-0.133,311.34,-69.519,207.58,0,0,0,
,0.805,-0.717,-0.203,383.484,-69.703,171.875,0,0,0,
,0.769,-0.763,-0.254,310.119,-103.15,159.607,0,0,0,
,0.745,-0.776,-0.266,196.533,-107.727,150.329,0,0,0,
,0.726,-0.779,-0.237,89.294,-120.057,138.183,0,0,0,
,0.691,-0.731,-0.237,23.376,-105.286,145.446,0,0,0,
,0.699,-0.738,-0.229,19.836,-83.802,108.703,0,0,0,
,0.67,-0.75,-0.278,87.28,-81.665,112.487,0,0,0,
,0.64,-0.819,-0.287,51.94,-69.458,97.839,0,0,0,
,0.644,-0.743,-0.263,3.173,-17.945,114.563,0,0,0,
,0.702,-0.765,-0.256,54.077,-5.982,78.186,0,0,0,
,0.691,-0.776,-0.297,52.124,-3.235,74.585,0,0,0,
,0.674,-0.825,-0.274,7.812,-5.799,52.612,0,0,0,
,0.667,-0.762,-0.282,-44.19,19.714,54.809,0,0,0,
,0.689,-0.737,-0.267,-19.288,22.399,38.94,0,0,0,
,0.684,-0.742,-0.278,-20.569,16.601,24.536,0,0,0,
,0.674,-0.706,-0.292,-25.147,27.771,16.662,0,0,0,
,0.681,-0.694,-0.315,-6.104,45.959,7.507,0,0,0,
,0.688,-0.68,-0.326,21.057,68.359,16.784,0,0,0,
,0.7,-0.676,-0.308,55.786,71.411,26.672,0,0,0,
,0.692,-0.7,-0.28,79.65,59.204,24.108,0,0,0,
,0.685,-0.673,-0.233,169.372,32.775,4.882,0,0,0,
,0.677,-0.692,-0.245,198.181,12.023,-7.264,0,0,0,
,0.664,-0.685,-0.26,217.651,13.855,-11.475,0,0,0,
,0.671,-0.713,-0.27,206.665,19.043,-23.804,0,0,0,
,0.683,-0.735,-0.281,176.452,28.076,-28.138,0,0,0,
,0.685,-0.749,-0.293,112.671,37.048,-34.058,0,0,0,
,0.68,-0.756,-0.284,46.203,36.743,-30.579,0,0,0,
,0.678,-0.711,-0.257,42.663,42.907,-22.767,0,0,0,
,0.682,-0.696,-0.261,88.317,47.363,-28.199,0,0,0,
,0.683,-0.764,-0.265,96.862,43.151,-43.824,0,0,0,
,0.672,-0.768,-0.264,56.762,43.457,-42.054,0,0,0,
,0.682,-0.756,-0.267,35.888,43.457,-48.829,0,0,0,
,0.672,-0.767,-0.266,3.967,29.541,-58.533,0,0,0,
,0.658,-0.744,-0.25,-25.574,28.503,-58.411,0,0,0,
,0.657,-0.73,-0.26,-40.589,30.456,-62.623,0,0,0,
,0.663,-0.742,-0.258,-58.838,18.249,-62.439,0,0,0,
,0.658,-0.721,-0.243,-92.041,16.784,-56.153,0,0,0,
,0.667,-0.705,-0.254,-84.229,11.901,-61.951,0,0,0,
,0.676,-0.729,-0.254,-81.604,-0.794,-69.092,0,0,0,
,0.672,-0.712,-0.266,-88.623,-2.442,-69.519,0,0,0,
,0.688,-0.705,-0.29,-85.206,-4.944,-76.539,0,0,0,
,0.695,-0.694,-0.314,-84.107,-0.306,-76.477,0,0,0,
,0.693,-0.699,-0.31,-100.037,12.451,-93.201,0,0,0,
,0.701,-0.7,-0.306,-96.985,27.71,-90.699,0,0,0,
,0.703,-0.716,-0.293,-96.07,34.545,-114.808,0,0,0,
,0.717,-0.73,-0.3,-99.976,39.978,-148.682,0,0,0,
,0.727,-0.732,-0.288,-103.333,42.968,-178.04,0,0,0,
,0.712,-0.739,-0.278,-92.469,38.513,-207.215,0,0,0,
,0.698,-0.755,-0.269,-79.468,44.006,-229.31,0,0,0,
,0.684,-0.778,-0.261,-68.787,46.02,-252.198,0,0,0,
,0.661,-0.75,-0.236,-22.4,56.091,-262.207,0,0,0,
,0.642,-0.772,-0.241,34.973,60.119,-279.664,0,0,0,
,0.645,-0.871,-0.241,-13.55,57.128,-315.613,0,0,0,
,0.641,-0.897,-0.202,-100.159,52.124,-324.83,0,0,0,
,0.649,-0.889,-0.205,-141.114,53.527,-358.521,0,0,0,
,0.64,-0.963,-0.202,-195.252,27.832,-402.039,0,0,0,
,0.602,-0.969,-0.212,-298.279,32.531,-420.777,0,0,0,
,0.605,-1.009,-0.21,-437.623,33.996,-463.013,0,0,0,
,0.579,-1.005,-0.183,-597.535,22.033,-474.854,0,0,0,
,0.547,-0.968,-0.166,-730.774,26.062,-495.24,0,0,0,
,0.507,-0.916,-0.145,-798.89,26.733,-493.348,0,0,0,
,0.483,-0.931,-0.137,-835.938,8.3,-500.611,0,0,0,
,0.471,-0.939,-0.11,-861.084,0.671,-493.775,0,0,0,
,0.459,-0.96,-0.101,-897.461,-14.039,-491.517,0,0,0,
,0.434,-0.977,-0.071,-992.249,-39.612,-490.296,0,0,0,
,0.401,-0.999,-0.067,-1152.588,-61.097,-489.197,0,0,0,
,0.357,-0.92,0.008,-1292.481,-65.491,-461.609,0,0,0,
,0.341,-0.919,0.045,-1435.486,-84.595,-457.276,0,0,0,
,0.312,-0.875,0.118,-1603.272,-91.736,-415.65,0,0,0,
,0.294,-0.826,0.175,-1747.254,-109.864,-370.911,0,0,0,
,0.283,-0.715,0.203,-1794.19,-107.544,-297.913,0,0,0,
,0.282,-0.657,0.261,-1790.04,-127.625,-226.258,0,0,0,
,0.261,-0.602,0.265,-1761.597,-161.683,-156.739,0,0,0,
,0.236,-0.618,0.299,-1814.576,-180.726,-115.601,0,0,0,
,0.245,-0.604,0.346,-1952.149,-185.425,-62.745,0,0,0,
,0.183,-0.476,0.342,-2000,-102.601,9.643,0,0,0,
,0.139,-0.27,0.373,-1978.394,11.84,68.603,0,0,0,
,0.17,-0.299,0.263,-1840.333,101.501,158.508,0,0,0,
,0.039,-0.345,0.164,-1867.859,206.359,244.995,0,0,0,
,-0.039,-0.225,0.03,-1966.492,461.975,329.284,0,0,0,
,-0.037,-0.086,0.118,-1993.409,737.976,398.071,0,0,0,
,0.133,0.06,0.315,-1967.53,964.294,395.752,0,0,0,
,0.442,0.16,0.581,-1613.77,1025.756,363.891,0,0,0,
,0.688,0.037,0.813,-992.737,984.192,357.971,0,0,0,
,0.684,-0.06,0.932,-535.645,989.746,394.409,0,0,0,
,0.768,-0.22,1.039,-234.925,980.468,468.322,0,0,0,
,0.89,-0.427,1.095,-95.093,921.997,505.676,0,0,0,
,0.957,-0.447,1.072,-54.383,849.243,454.162,0,0,0,
,0.965,-0.384,1.089,49.987,767.089,346.008,0,0,0,
,0.912,-0.287,0.929,37.109,694.091,291.259,0,0,0,
,0.938,-0.181,0.902,190.49,602.6,264.282,0,0,0,
,0.939,-0.101,0.854,257.019,521.423,288.208,0,0,0,
,0.927,-0.086,0.801,286.682,455.2,279.174,0,0,0,
