TIMECODE,ACC_X,ACC_Y,ACC_Z,GYR_X,GYR_Y,GYR_Z,ECG_I,ECG_II,ECG_III,TAG
,0.965,0.142,0.215,61.462,26.245,-63.66,0,0,0,
,0.954,0.146,0.207,46.386,17.761,-65.613,0,0,0,
,0.95,0.137,0.209,23.437,3.967,-63.172,0,0,0,
,0.948,0.146,0.199,4.333,-3.724,-56.824,0,0,0,
,0.952,0.16,0.193,2.502,-12.085,-55.359,0,0,0,
,0.945,0.157,0.186,16.479,-19.654,-48.584,0,0,0,
,0.938,0.159,0.181,15.441,-29.786,-46.998,0,0,0,
,0.933,0.155,0.179,12.573,-30.213,-43.641,0,0,0,
,0.927,0.159,0.181,7.873,-35.828,-42.969,0,0,0,
,0.933,0.158,0.176,-0.977,-28.382,-46.204,0,0,0,
,0.948,0.158,0.149,-2.808,-18.189,-42.542,0,0,0,
,0.963,0.159,0.149,-15.625,-43.091,-40.101,0,0,0,
,0.942,0.155,0.155,-31.861,-46.448,-31.556,0,0,0,
,0.929,0.173,0.151,-42.237,-31.311,-29.725,0,0,0,
,0.93,0.177,0.148,-33.753,-22.095,-36.011,0,0,0,
,0.929,0.171,0.149,-20.63,-17.945,-34.729,0,0,0,
,0.92,0.169,0.148,-19.837,-16.053,-34.913,0,0,0,
,0.917,0.169,0.144,-25.574,-10.56,-33.509,0,0,0,
,0.92,0.177,0.137,-28.382,-15.748,-23.926,0,0,0,
,0.911,0.176,0.137,-16.785,-13.855,-14.222,0,0,0,
,0.909,0.176,0.124,-6.714,-3.54,-13.855,0,0,0,
,0.928,0.175,0.129,-13.062,3.723,-9.827,0,0,0,
,0.938,0.174,0.133,-15.686,8.178,-2.991,0,0,0,
,0.939,0.179,0.13,-17.212,22.766,-2.381,0,0,0,
,0.943,0.176,0.134,-10.682,28.686,1.037,0,0,0,
,0.944,0.163,0.133,-7.447,30.883,1.953,0,0,0,
,0.949,0.157,0.132,-25.33,32.287,6.408,0,0,0,
,0.959,0.16,0.131,-52.43,26.977,13.244,0,0,0,
,0.956,0.172,0.135,-59.205,28.259,24.047,0,0,0,
,0.952,0.182,0.148,-35.462,31.066,29.113,0,0,0,
,0.947,0.174,0.158,-6.958,43.029,28.808,0,0,0,
,0.936,0.162,0.162,13.977,51.574,34.24,0,0,0,
,0.924,0.152,0.169,20.629,54.992,33.325,0,0,0,
,0.923,0.145,0.169,17.639,57.312,32.043,0,0,0,
,0.928,0.145,0.166,12.695,55.358,26.916,0,0,0,
,0.932,0.143,0.159,8.361,50.048,20.69,0,0,0,
,0.933,0.143,0.159,-0.268,556.756,4498.348,0,0,0,
,0.938,0.148,0.164,-3.785,35.644,6.164,0,0,0,
,0.945,0.151,0.166,0.122,34.606,-4.334,0,0,0,
,0.947,0.152,0.161,4.577,35.461,-13.855,0,0,0,
,0.951,0.155,0.165,12.756,36.56,-26.612,0,0,0,
,0.946,0.149,0.162,12.085,39.123,-42.481,0,0,0,
,0.945,0.151,0.161,0.061,42.663,-51.88,0,0,0,
,0.944,0.157,0.164,-13.733,44.616,-67.994,0,0,0,
,0.945,0.162,0.162,-25.086,39.55,-81.238,0,0,0,
,0.947,0.17,0.167,-47.913,40.039,-109.375,0,0,0,
,0.947,0.186,0.152,-73.914,41.87,-113.343,0,0,0,
,0.936,0.192,0.135,-93.506,33.63,-127.686,0,0,0,
,0.932,0.211,0.115,-37.537,18.31,-133.606,0,0,0,
,0.939,0.2,0.137,52.795,-16.114,-150.391,0,0,0,
,0.939,0.13,0.158,90.576,-28.87,-173.401,0,0,0,
,0.936,0.098,0.15,45.532,-28.504,-157.959,0,0,0,
,0.942,0.101,0.135,-11.963,-20.569,-134.461,0,0,0,
,0.942,0.11,0.14,-43.824,-24.659,-114.747,0,0,0,
,0.947,0.126,0.152,-32.288,-13.916,-93.75,0,0,0,
,0.953,0.118,0.153,-17.701,11.901,-80.933,0,0,0,
,0.962,0.118,0.144,-19.959,48.339,-50.415,0,0,0,
,0.96,0.12,0.139,-20.386,49.377,-39.368,0,0,0,
,0.956,0.124,0.134,-10.437,55.725,-30.64,0,0,0,
,0.955,0.12,0.116,7.08,54.748,-24.964,0,0,0,
,0.964,0.12,0.119,22.583,48.523,-17.518,0,0,0,
,0.966,0.118,0.12,29.296,44.311,-8.973,0,0,0,
,0.96,0.114,0.124,30.578,42.846,-6.836,0,0,0,
,0.958,0.108,0.128,27.526,46.02,-8.606,0,0,0,
,0.955,0.111,0.124,16.784,50.415,-11.231,0,0,0,
,0.946,0.113,0.128,3.784,41.748,-12.879,0,0,0,
,0.935,0.115,0.126,-10.193,43.029,-21.851,0,0,0,
,0.943,0.124,0.115,-21.119,50.781,-31.495,0,0,0,
,0.952,0.13,0.109,-29.725,41.931,-37.659,0,0,0,
,0.952,0.137,0.113,-22.217,24.841,-38.941,0,0,0,
,0.95,0.141,0.116,-6.47,17.028,-44.251,0,0,0,
,0.951,0.14,0.12,6.774,17.944,-46.509,0,0,0,
,0.953,0.131,0.124,13,15.564,-45.105,0,0,0,
,0.953,0.13,0.127,11.474,16.479,-39.612,0,0,0,
,0.949,0.128,0.127,2.563,19.47,-37.232,0,0,0,
,0.949,0.131,0.121,-8.24,21.85,-33.753,0,0,0,
,0.95,0.138,0.117,-9.217,19.409,-31.861,0,0,0,
,0.959,0.142,0.116,-6.043,15.869,-26.368,0,0,0,
,0.959,0.142,0.117,3.54,12.085,-20.874,0,0,0,
,0.959,0.137,0.119,10.437,8.728,-13.245,0,0,0,
,0.956,0.134,0.119,10.376,4.089,-8.606,0,0,0,
,0.954,0.128,0.123,9.216,3.173,0.61,0,0,0,
,0.955,0.129,0.12,6.164,3.601,1.953,0,0,0,
,0.961,0.126,0.114,2.929,3.295,4.699,0,0,0,
,0.965,0.131,0.117,6.347,-3.113,8.606,0,0,0,
,0.957,0.129,0.12,18.737,-4.944,12.268,0,0,0,
,0.954,0.13,0.125,29.113,-1.526,9.338,0,0,0,
,0.95,0.123,0.125,43.335,-0.306,5.615,0,0,0,
,0.947,0.122,0.127,50.781,-2.32,2.99,0,0,0,
,0.94,0.122,0.126,42.968,0.732,-5.188,0,0,0,
,0.952,0.121,0.116,21.301,-3.174,-18.494,0,0,0,
,0.955,0.153,0.121,-8.484,-31.678,-15.992,0,0,0,
,0.948,0.137,0.12,50.659,-59.388,-59.876,0,0,0,
,0.952,0.119,0.115,97.534,-66.407,-75.379,0,0,0,
,0.955,0.096,0.129,92.651,-76.477,-88.074,0,0,0,
,0.947,0.075,0.139,68.42,-74.036,-83.68,0,0,0,
,0.951,0.084,0.147,46.752,-60.669,-90.027,0,0,0,
,0.953,0.081,0.146,28.32,-46.875,-79.773,0,0,0,
,0.947,0.094,0.155,9.765,-13.977,-63.782,0,0,0,
,0.951,0.093,0.147,0.732,2.38,-52.735,0,0,0,
,0.955,0.09,0.14,-7.691,12.634,-39.917,0,0,0,
,0.959,0.092,0.135,-20.081,13.916,-30.152,0,0,0,
,0.955,0.096,0.128,-10.865,13.305,-18.921,0,0,0,
,0.959,0.093,0.131,-2.625,13.244,-11.292,0,0,0,
,0.95,0.097,0.133,-22.767,11.413,-1.343,0,0,0,
,0.951,0.102,0.129,-18.067,10.925,0.732,0,0,0,
,0.953,0.097,0.13,-16.358,12.939,0.488,0,0,0,
,0.956,0.099,0.132,-7.752,14.16,-0.123,0,0,0,
,0.954,0.099,0.129,3.295,19.226,-2.869,0,0,0,
,0.945,0.095,0.13,-3.296,18.188,-4.334,0,0,0,
,0.944,0.098,0.134,-3.907,20.141,-10.56,0,0,0,
,0.94,0.1,0.134,3.479,27.771,-15.87,0,0,0,
,0.94,0.095,0.132,6.53,31.127,-22.95,0,0,0,
,0.949,0.09,0.135,-2.564,35.949,-27.832,0,0,0,
,0.955,0.099,0.134,-10.804,36.315,-33.997,0,0,0,
,0.958,0.104,0.132,-16.663,33.874,-37.354,0,0,0,
,0.956,0.107,0.133,-19.593,30.151,-39.307,0,0,0,
,0.954,0.112,0.137,-14.222,31.799,-43.702,0,0,0,
,0.953,0.111,0.143,-5.555,37.841,-45.594,0,0,0,
,0.956,0.109,0.136,-1.465,40.649,-45.166,0,0,0,
,0.958,0.109,0.136,-4.334,40.1,-39.307,0,0,0,
,0.959,0.111,0.133,-29.175,36.315,-37.537,0,0,0,
,0.958,0.129,0.131,-23.621,20.629,-24.659,0,0,0,
,0.96,0.12,0.132,-0.306,13.732,-19.288,0,0,0,
,0.962,0.108,0.133,5.188,7.873,-12.574,0,0,0,
,0.955,0.101,0.138,-1.465,5.615,-4.761,0,0,0,
,0.947,0.104,0.14,-5.799,6.53,-0.306,0,0,0,
,0.945,0.098,0.143,-11.109,15.564,0.183,0,0,0,
,0.946,0.108,0.137,-30.335,24.292,0.549,0,0,0,
,0.949,0.115,0.132,-25.147,26.977,-2.747,0,0,0,
,0.953,0.12,0.131,-16.541,27.832,-10.071,0,0,0,
,0.964,0.118,0.117,-7.996,22.461,-17.945,0,0,0,
,0.966,0.114,0.113,-5.982,14.465,-18.311,0,0,0,
,0.951,0.113,0.124,-3.113,2.807,-21.973,0,0,0,
,0.946,0.117,0.124,-2.625,2.197,-21.912,0,0,0,
,0.945,0.119,0.129,-4.517,6.958,-22.034,0,0,0,
,0.942,0.116,0.127,0.122,11.962,-22.583,0,0,0,
,0.947,0.116,0.119,1.709,10.681,-23.926,0,0,0,
,0.953,0.116,0.116,-1.648,5.004,-18.921,0,0,0,
,0.958,0.116,0.117,-0.123,3.295,-17.64,0,0,0,
,0.956,0.114,0.119,-1.038,6.774,-15.931,0,0,0,
,0.956,0.117,0.117,-2.015,7.08,-15.686,0,0,0,
,0.953,0.117,0.116,3.234,8.239,-14.161,0,0,0,
,0.949,0.113,0.12,5.127,9.826,-13.672,0,0,0,
,0.952,0.112,0.118,5.737,13.122,-14.283,0,0,0,
,0.952,0.112,0.119,4.211,12.451,-12.879,0,0,0,
,0.95,0.109,0.116,3.906,10.376,-14.588,0,0,0,
,0.953,0.109,0.118,2.99,11.535,-15.686,0,0,0,
,0.955,0.11,0.117,-1.343,13.855,-18.494,0,0,0,
,0.952,0.107,0.114,5.371,14.953,-17.884,0,0,0,
,0.952,0.099,0.108,25.024,10.131,-22.217,0,0,0,
,0.957,0.109,0.105,39.306,-1.404,-7.813,0,0,0,
,0.962,0.124,0.113,46.936,-21.485,-13.855,0,0,0,
,0.957,0.099,0.115,35.949,-26.795,-21.485,0,0,0,
,0.963,0.096,0.109,13.427,-39.734,-16.419,0,0,0,
,0.961,0.099,0.136,-23.133,-60.12,-16.724,0,0,0,
,0.956,0.102,0.156,-62.989,-65.308,-11.658,0,0,0,
,0.943,0.124,0.147,-75.135,-48.706,-3.602,0,0,0,
,0.947,0.142,0.142,-35.462,-40.955,-6.531,0,0,0,
,0.948,0.133,0.151,-1.343,-35.401,-7.813,0,0,0,
,0.949,0.115,0.152,-15.381,-23.621,-5.982,0,0,0,
,0.954,0.119,0.156,-18.86,-16.724,-5.372,0,0,0,
,0.952,0.124,0.144,-26.734,-16.785,-5.555,0,0,0,
,0.953,0.136,0.147,-18.006,-18.555,-5.433,0,0,0,
,0.953,0.127,0.141,-9.888,-17.762,-9.949,0,0,0,
,0.953,0.126,0.138,-10.743,-21.912,-11.292,0,0,0,
,0.951,0.125,0.141,-12.635,-30.274,-11.597,0,0,0,
,0.946,0.123,0.145,-9.4,-30.335,-9.827,0,0,0,
,0.947,0.129,0.139,-4.965,-824.208,649.662,0,0,0,
,0.952,0.125,0.142,-6.775,-31.922,-9.827,0,0,0,
,0.949,0.127,0.145,-5.249,-35.706,-10.315,0,0,0,
,0.946,0.131,0.148,0.244,-41.016,-10.01,0,0,0,
,0.942,0.126,0.145,3.051,-38.697,-9.949,0,0,0,
,0.943,0.124,0.15,9.216,-35.157,-0.489,0,0,0,
,0.948,0.122,0.151,23.132,-25.757,16.235,0,0,0,
,0.945,0.115,0.148,65.368,-5.127,60.058,0,0,0,
,0.926,0.144,0.166,59.143,-5.433,44.006,0,0,0,
,0.93,0.163,0.181,28.32,40.527,74.707,0,0,0,
,0.946,0.198,0.166,7.629,65.673,106.14,0,0,0,
,0.942,0.246,0.169,15.136,57.861,135.376,0,0,0,
,0.94,0.272,0.167,-19.776,55.603,152.343,0,0,0,
,0.964,0.285,0.152,-82.032,42.419,192.199,0,0,0,
,1.002,0.323,0.185,-151.856,-37.598,256.103,0,0,0,
,1.011,0.348,0.228,-270.447,-150.94,354.065,0,0,0,
,1.012,0.428,0.307,-418.03,-268.738,475.769,0,0,0,
,0.992,0.526,0.415,-587.464,-415.589,592.956,0,0,0,
,1.008,0.692,0.52,-790.406,-522.217,715.271,0,0,0,
,1.091,0.899,0.536,-943.604,-638.611,845.703,0,0,0,
,1.109,1.172,0.689,-986.573,-852.845,1020.019,0,0,0,
,0.924,1.462,0.879,-665.406,-890.625,1145.202,0,0,0,
,0.82,1.585,0.953,-110.84,-769.104,1233.703,0,0,0,
,0.996,1.457,1.062,210.022,-844.056,1262.878,0,0,0,
,1.037,1.365,1.131,176.513,-935.73,1406.25,0,0,0,
,0.995,1.408,1.109,16.845,-981.263,1576.049,0,0,0,
,1.107,1.646,1.061,-48.89,-1013.55,1801.88,0,0,0,
,1.185,1.868,1.01,90.698,-1054.017,1999.633,0,0,0,
,1.274,1.952,0.974,277.526,-1126.038,1999.694,0,0,0,
,1.441,2.007,0.955,308.044,-1236.329,1999.694,0,0,0,
,1.544,2.178,0.958,215.149,-1330.567,1999.694,0,0,0,
,1.642,2.297,0.865,71.716,-1410.828,1999.694,0,0,0,
,1.771,2.339,0.746,-70.923,-1494.996,1999.694,0,0,0,
,1.718,2.214,0.663,-97.535,-1507.874,1999.694,0,0,0,
,1.704,1.971,0.505,-120.85,-1474.976,1999.694,0,0,0,
,1.626,1.461,0.27,-141.846,-1428.711,1999.694,0,0,0,
,1.599,0.941,0.152,-226.868,-1372.254,1999.694,0,0,0,
,1.495,0.569,0.08,-349.488,-1239.808,1999.694,0,0,0,
,1.374,0.376,0.021,-367.005,-1086.976,1999.694,0,0,0,
,1.268,0.233,-0.03,-274.353,-931.092,1999.694,0,0,0,
,1.126,0.017,-0.049,-196.717,-783.081,1999.694,0,0,0,
,1.039,-0.207,-0.052,-202.515,-661.866,1999.694,0,0,0,
,0.888,-0.47,-0.1,-294.312,-532.471,1999.694,0,0,0,
,0.766,-0.65,-0.151,-413.88,-418.396,1999.694,0,0,0,
,0.657,-0.798,-0.175,-535.889,-307.251,1999.694,0,0,0,
,0.553,-0.884,-0.147,-586.548,-185.975,1999.694,0,0,0,
,0.476,-1.075,-0.093,-502.503,-58.899,1548.584,0,0,0,
,0.491,-1.358,-0.065,-270.264,82.763,977.295,0,0,0,
,0.612,-1.586,-0.072,24.475,239.624,311.767,0,0,0,
,0.69,-1.652,-0.111,189.27,391.967,-486.206,0,0,0,
,0.752,-1.687,-0.144,83.252,541.809,-1446.045,0,0,0,
,0.956,-1.68,-0.231,-310.425,677.063,-2000,0,0,0,
,1.289,-1.45,-0.235,-893.921,769.348,-2000,0,0,0,
,1.682,-1.062,-0.088,-1193.421,822.57,-2000,0,0,0,
,1.977,-0.679,0.123,-1087.708,864.318,-2000,0,0,0,
,2.127,-0.375,0.215,-761.353,909.973,-2000,0,0,0,
,2.23,-0.329,0.181,-460.816,957.336,-2000,0,0,0,
,2.483,-0.259,0.348,-462.464,886.596,-2000,0,0,0,
,2.908,0.79,0.391,-838.013,992.37,-2000,0,0,0,
,3.375,2.446,0.41,-1152.222,728.149,-2000,0,0,0,
,2.347,3.744,1.151,-23.682,601.318,-2000,0,0,0,
,1.68,3.465,0.272,1030.7,1772.522,-2000,0,0,0,
,3.715,2.832,0.229,1437.133,1999.694,-2000,0,0,0,
,3.999,2.311,0.145,-4.334,1611.572,-2000,0,0,0,
,3.062,2.828,0.395,-1702.942,473.51,-1923.035,0,0,0,
,1.949,3.526,0.528,-2000,-338.44,-1337.952,0,0,0,
,0.756,3.497,0.461,-1372.071,-475.953,-953.248,0,0,0,
,0.235,2.75,0.498,-52.369,-360.596,-679.261,0,0,0,
,0.197,1.854,0.647,704.712,-101.014,-598.877,0,0,0,
,0.252,1.209,0.83,883.911,-5.31,-478.821,0,0,0,
,0.302,0.959,0.812,364.563,21.301,-391.358,0,0,0,
,0.389,0.928,0.675,-68.787,-35.157,-447.022,0,0,0,
,0.517,0.904,0.51,-205.933,-110.352,-425.415,0,0,0,
,0.652,0.823,0.405,-110.291,-206.36,-392.456,0,0,0,
,0.789,0.701,0.4,-1.099,-267.579,-360.23,0,0,0,
,0.841,0.581,0.387,38.024,-266.419,-275.269,0,0,0,
,0.805,0.514,0.384,24.414,-223.267,-184.937,0,0,0,
,0.785,0.469,0.393,-18.128,-155.213,-160.523,0,0,0,
,0.796,0.446,0.369,-99.305,-114.808,-158.265,0,0,0,
,0.799,0.472,0.341,-231.69,-101.441,-151.673,0,0,0,
,0.807,0.504,0.298,-354.432,-103.089,-151.917,0,0,0,
,0.823,0.576,0.285,-368.287,-124.512,-142.273,0,0,0,
,0.859,0.613,0.303,-314.27,-157.471,-116.211,0,0,0,
,0.923,0.647,0.34,-265.809,-206.055,-45.044,0,0,0,
,0.962,0.724,0.35,-240.723,-281.922,66.65,0,0,0,
,0.985,0.817,0.385,-232.911,-342.102,192.321,0,0,0,
,0.996,0.869,0.4,-220.643,-389.771,335.754,0,0,0,
,0.966,0.93,0.43,-73.365,-450.684,485.656,0,0,0,
,0.892,0.939,0.461,75.927,-474.183,643.859,0,0,0,
,0.855,0.924,0.499,188.354,-502.808,769.836,0,0,0,
,0.816,0.943,0.525,292.053,-521.18,919.616,0,0,0,
,0.771,1.009,0.54,373.291,-518.738,1046.447,0,0,0,
,0.747,1.031,0.539,478.393,-548.523,1155.944,0,0,0,
,0.716,1.05,0.544,544.922,-620.24,1256.042,0,0,0,
,0.63,1.002,0.556,539.367,-741.883,1357.788,0,0,0,
,0.479,0.882,0.586,393.982,-886.109,1528.198,0,0,0,
,0.268,0.825,0.656,189.758,-940.491,1673.706,0,0,0,
,0.089,0.972,0.773,184.692,-900.513,1814.697,0,0,0,
,0.042,1.075,0.836,245.849,-800.66,1973.205,0,0,0,
,-0.008,1.15,0.679,243.774,-639.283,1999.694,0,0,0,
,-0.02,1.135,0.561,238.037,-486.512,1999.694,0,0,0,
,0.025,0.886,0.498,72.509,-408.997,1910.156,0,0,0,
,0.009,0.848,0.446,-63.355,-297.303,1871.582,0,0,0,
,0.028,0.739,0.37,-128.54,-178.772,1809.143,0,0,0,
,0.016,0.655,0.318,-126.038,-39.551,1760.925,0,0,0,
,0.008,0.635,0.283,-69.214,122.07,1695.434,0,0,0,
,0.007,0.609,0.283,6.897,320.007,1596.618,0,0,0,
,0.019,0.579,0.317,81.726,536.926,1445.251,0,0,0,
,0.022,0.552,0.384,142.456,755.432,1261.291,0,0,0,
,0.032,0.484,0.447,221.313,956.543,1040.649,0,0,0,
,0.088,0.346,0.489,372.07,1087.951,833.191,0,0,0,
,0.146,0.331,0.513,528.198,1171.325,688.11,0,0,0,
,0.229,0.262,0.551,429.016,1222.351,621.093,0,0,0,
,0.288,0.268,0.623,228.149,1276.123,536.865,0,0,0,
,0.251,0.247,0.662,72.326,1269.47,401.428,0,0,0,
,0.251,0.266,0.753,-33.692,1212.158,340.21,0,0,0,
,0.255,0.332,0.763,-78.98,1115.6,262.756,0,0,0,
,0.273,0.376,0.787,-134.827,1016.235,201.599,0,0,0,
,0.254,0.342,0.646,-188.172,940.918,168.396,0,0,0,
,0.314,0.203,0.566,-510.743,637.573,206.909,0,0,0,
,0.577,0.764,0.751,-591.736,141.784,337.28,0,0,0,
,0.406,0.784,0.82,-392.395,-255.433,250.976,0,0,0,
,0.06,0.515,0.856,-295.044,-423.279,97.717,0,0,0,
,-0.05,0.437,0.849,-468.934,-372.925,-0.123,0,0,0,
,-0.108,0.44,0.811,-696.778,-208.985,10.62,0,0,0,
,-0.138,0.552,0.756,-776.368,-49.317,82.153,0,0,0,
,-0.135,0.653,0.712,-768.128,46.447,68.969,0,0,0,
,-0.12,0.717,0.67,-722.413,118.225,74.89,0,0,0,
,-0.091,0.749,0.608,-684.51,152.526,89.721,0,0,0,
,-0.073,0.838,0.558,-535.157,116.333,102.478,0,0,0,
,-0.068,0.885,0.586,-271.668,-9.522,35.156,0,0,0,
,-0.092,0.819,0.574,-93.201,-80.811,-51.148,0,0,0,
,-0.12,0.693,0.643,-59.51,-171.998,-114.869,0,0,0,
,-0.15,0.63,0.674,-200.074,-124.329,-48.89,0,0,0,
,-0.152,0.661,0.639,-437.012,-31.678,1.22,0,0,0,
,-0.152,0.745,0.564,-589.356,14.892,-6.165,0,0,0,
,-0.128,0.848,0.502,-593.384,-25.391,-41.016,0,0,0,
,-0.132,0.885,0.522,-448.365,-114.258,-73.914,0,0,0,
,-0.166,0.84,0.512,-296.509,-149.72,-111.939,0,0,0,
,-0.187,0.778,0.548,-225.525,-128.357,-113.831,0,0,0,
,-0.201,0.749,0.545,-263.672,-53.406,-69.275,0,0,0,
,-0.187,0.785,0.571,-351.258,16.662,-29.48,0,0,0,
,-0.214,0.768,0.559,-479.676,57.067,19.165,0,0,0,
,-0.236,0.865,0.493,-610.779,97.29,55.542,0,0,0,
,-0.217,0.946,0.469,-619.873,119.567,57.251,0,0,0,
,-0.219,0.89,0.388,-529.175,144.958,20.324,0,0,0,
,-0.227,0.869,0.346,-492.249,166.687,70.373,0,0,0,
,-0.218,0.878,0.311,-482.056,168.823,58.654,0,0,0,
,-0.221,0.928,0.282,-377.625,142.822,54.199,0,0,0,
,-0.238,0.935,0.263,-236.451,106.384,-1.343,0,0,0,
,-0.197,0.869,0.319,-139.771,131.286,-36.927,0,0,0,
,-0.167,0.86,0.289,-43.702,189.209,6.836,0,0,0,
,-0.168,0.904,0.261,-13.611,160.949,1.648,0,0,0,
,-0.185,0.964,0.285,107.36,132.995,-38.88,0,0,0,
,-0.167,0.933,0.341,193.908,143.31,-53.345,0,0,0,
,-0.145,0.917,0.376,188.842,135.131,-32.776,0,0,0,
,-0.106,0.89,0.394,66.04,71.899,-39.917,0,0,0,
,-0.14,0.896,0.351,-41.199,1.159,-46.875,0,0,0,
,-0.186,0.894,0.322,-99.122,-17.823,-17.518,0,0,0,
,-0.17,0.956,0.312,-87.342,31.86,4.699,0,0,0,
,-0.151,0.874,0.316,-79.468,-5.799,-19.471,0,0,0,
,-0.159,0.847,0.231,-88.44,-0.916,-14.893,0,0,0,
,-0.133,0.836,0.258,-114.38,-56.336,-16.968,0,0,0,
,-0.175,1.091,0.215,129.211,-38.636,69.702,0,0,0,
,-0.168,1.014,0.352,302.002,-220.398,-118.164,0,0,0,
,-0.187,0.87,0.418,287.536,-196.351,-67.078,0,0,0,
,-0.191,0.903,0.44,243.469,-136.414,2.502,0,0,0,
,-0.211,0.875,0.41,220.398,-72.754,-14.222,0,0,0,
,-0.191,0.796,0.421,135.925,-14.1,-12.207,0,0,0,
,-0.171,0.755,0.401,-23.194,4.516,2.746,0,0,0,
,-0.172,0.775,0.342,-172.12,-25.574,15.625,0,0,0,
,-0.19,0.762,0.351,-294.495,-118.775,-15.32,0,0,0,
,-0.217,0.82,0.403,-361.451,-167.847,-21.546,0,0,0,
,-0.234,0.898,0.441,-345.887,-155.701,-13.733,0,0,0,
,-0.235,0.96,0.422,-278.199,-120.606,-46.753,0,0,0,
,-0.198,0.952,0.426,-162.415,-84.351,-76.172,0,0,0,
,-0.17,0.94,0.401,-79.407,-53.833,-44.312,0,0,0,
,-0.148,0.915,0.397,-68.848,-68.97,-55.909,0,0,0,
,-0.154,0.881,0.402,-98.572,-90.21,-43.274,0,0,0,
,-0.196,0.914,0.367,-159.546,-55.787,-0.061,0,0,0,
,-0.217,0.883,0.346,-219.483,7.263,1.709,0,0,0,
,-0.203,0.853,0.294,-298.768,73.425,57.373,0,0,0,
,-0.193,0.999,0.26,-342.164,86.975,74.829,0,0,0,
,-0.192,0.984,0.234,-234.314,54.138,9.948,0,0,0,
,-0.211,0.94,0.249,-104.371,6.408,0.122,0,0,0,
,-0.243,0.899,0.254,-74.402,10.253,-1.343,0,0,0,
,-0.263,0.907,0.259,-136.353,60.913,26.184,0,0,0,
,-0.271,0.979,0.274,-134.522,127.502,56.945,0,0,0,
,-0.278,1.061,0.267,-23.499,150.817,40.344,0,0,0,
,-0.251,0.919,0.304,113.647,156.494,45.715,0,0,0,
,-0.249,0.907,0.285,168.64,210.083,161.193,0,0,0,
,-0.244,0.955,0.267,278.015,220.153,186.706,0,0,0,
,-0.221,0.94,0.26,436.34,204.04,144.104,0,0,0,
,-0.231,0.823,0.254,522.888,164.428,121.215,0,0,0,
,-0.254,0.782,0.256,453.674,147.522,129.516,0,0,0,
,-0.255,0.819,0.269,266.235,182.067,85.571,0,0,0,
,-0.233,0.786,0.277,62.866,217.285,33.386,0,0,0,
,-0.199,0.859,0.279,-139.283,247.314,45.837,0,0,0,
,-0.151,0.98,0.288,-251.282,201.599,-1.404,0,0,0,
,-0.117,1.053,0.236,-261.719,152.832,-46.509,0,0,0,
,-0.076,1.035,0.206,-209.412,8.728,-116.761,0,0,0,
,-0.069,1.045,0.2,-141.114,-48.035,-129.151,0,0,0,
,-0.081,1.049,0.243,-38.514,-126.343,-143.067,0,0,0,
,-0.134,1.042,0.272,79.467,-185.242,-159.852,0,0,0,
,-0.189,0.981,0.315,101.501,-215.882,-195.557,0,0,0,
,-0.237,0.912,0.338,88.317,-241.211,-240.723,0,0,0,
,-0.214,0.867,0.466,85.388,-191.773,-255.982,0,0,0,
,-0.228,0.877,0.39,158.142,-56.58,-154.358,0,0,0,
,-0.237,0.755,0.365,27.282,-0.611,-167.42,0,0,0,
,-0.226,0.824,0.332,-164.429,99.731,-63.416,0,0,0,
,-0.207,0.997,0.258,-292.298,166.809,8.239,0,0,0,
,-0.166,1.019,0.237,-371.033,150.94,-21.058,0,0,0,
,-0.15,0.982,0.241,-373.108,85.632,-16.541,0,0,0,
,-0.165,0.941,0.191,-381.714,106.872,85.449,0,0,0,
,-0.159,1.075,0.085,-321.839,95.642,138.305,0,0,0,
,-0.142,1.043,0.07,-121.521,36.56,112.732,0,0,0,
,-0.154,1.029,0.09,88.684,-72.266,120.422,0,0,0,
,-0.193,0.999,0.072,240.844,-133.545,139.831,0,0,0,
,-0.196,1.048,0.112,341.797,-157.044,114.135,0,0,0,
,-0.194,1.128,0.124,476.867,-153.443,85.876,0,0,0,
,-0.191,1.058,0.119,616.15,-186.707,10.131,0,0,0,
,-0.172,0.98,0.16,713.317,-204.59,21.179,0,0,0,
,-0.155,0.901,0.254,730.163,-227.295,38.879,0,0,0,
,-0.171,0.744,0.272,621.032,-250.306,37.048,0,0,0,
,-0.197,0.748,0.321,507.019,-273.194,76.355,0,0,0,
,-0.237,0.768,0.377,450.378,-238.343,118.042,0,0,0,
,-0.263,0.739,0.459,361.572,-176.331,148.315,0,0,0,
,-0.27,0.771,0.486,256.836,-149.72,163.086,0,0,0,
,-0.283,0.731,0.469,190.307,-173.34,111.206,0,0,0,
,-0.313,0.756,0.491,187.255,-170.533,131.164,0,0,0,
,-0.334,0.815,0.445,322.387,-114.075,140.808,0,0,0,
,-0.349,0.794,0.411,491.088,-76.661,185.363,0,0,0,
,-0.378,0.787,0.428,611.755,-36.011,177.002,0,0,0,
,-0.39,0.814,0.457,683.654,-14.283,166.992,0,0,0,
,-0.358,0.857,0.522,728.454,-27.71,148.864,0,0,0,
,-0.335,0.76,0.557,839.477,-24.537,99.06,0,0,0,
,-0.352,0.718,0.574,923.156,-21.607,153.503,0,0,0,
,-0.354,0.739,0.613,932.8,-33.204,154.174,0,0,0,
,-0.339,0.674,0.599,760.192,-3.479,140.93,0,0,0,
,-0.314,0.62,0.552,521.972,23.254,108.825,0,0,0,
,-0.326,0.632,0.657,434.143,-15.564,111.267,0,0,0,
,-0.351,0.678,0.679,494.323,6.652,160.339,0,0,0,
,-0.321,0.686,0.726,507.263,-0.977,194.336,0,0,0,
,-0.318,0.685,0.735,543.09,-18.921,160.4,0,0,0,
,-0.332,0.591,0.744,600.036,8.544,166.565,0,0,0,
,-0.337,0.569,0.723,591.43,38.757,186.34,0,0,0,
,-0.337,0.55,0.689,505.737,63.171,172.18,0,0,0,
,-0.331,0.503,0.711,428.772,76.477,183.227,0,0,0,
,-0.336,0.467,0.752,339.05,79.345,216.491,0,0,0,
,-0.335,0.491,0.752,273.254,91.919,227.783,0,0,0,
,-0.34,0.438,0.76,219.848,63.598,166.748,0,0,0,
,-0.351,0.366,0.811,170.349,52.429,112.915,0,0,0,
,-0.345,0.386,0.753,64.819,87.524,166.198,0,0,0,
,-0.326,0.523,0.751,89.172,88.501,164.672,0,0,0,
,-0.353,0.498,0.765,208.007,50.293,98.51,0,0,0,
,-0.365,0.413,0.773,246.46,62.194,104.37,0,0,0,
,-0.352,0.383,0.787,212.89,58.837,77.636,0,0,0,
,-0.348,0.345,0.784,115.6,29.113,69.824,0,0,0,
,-0.365,0.335,0.78,18.676,4.76,96.74,0,0,0,
,-0.377,0.403,0.753,-34.119,-5.555,120.3,0,0,0,
,-0.398,0.489,0.709,-50.538,-9.644,124.45,0,0,0,
,-0.394,0.466,0.703,-44.495,-9.217,56.884,0,0,0,
,-0.378,0.374,0.693,-47.181,-6.531,50.415,0,0,0,
,-0.348,0.379,0.729,-93.079,-43.519,79.101,0,0,0,
,-0.37,0.404,0.773,-129.212,-76.661,102.722,0,0,0,
,-0.416,0.456,0.764,-130.127,-61.28,154.113,0,0,0,
,-0.452,0.511,0.723,-128.724,-7.019,168.884,0,0,0,
,-0.471,0.486,0.697,-201.539,27.038,201.355,0,0,0,
,-0.366,0.56,0.725,-126.831,49.072,122.863,0,0,0,
,-0.445,0.492,0.681,78.552,45.532,146.789,0,0,0,
,-0.465,0.482,0.708,90.759,67.321,153.381,0,0,0,
,-0.467,0.54,0.744,194.152,107.483,72.509,0,0,0,
,-0.479,0.516,0.8,433.349,219.299,126.831,0,0,0,
,-0.467,0.468,0.813,579.284,302.978,97.717,0,0,0,
,-0.465,0.581,0.902,656.005,354.736,16.357,0,0,0,
,-0.455,0.552,0.98,789.917,354.492,-58.96,0,0,0,
,-0.444,0.341,0.92,804.504,368.896,-43.885,0,0,0,
,-0.438,0.102,0.709,602.234,363.586,-56.763,0,0,0,
,-0.463,0.009,0.994,134.765,289.672,70.312,0,0,0,
,-0.207,0.115,1.269,-732.85,-33.02,52.246,0,0,0,
,-0.228,0.49,0.886,-904.236,-140.076,-8.606,0,0,0,
,-0.333,0.533,0.651,-641.907,-335.816,97.595,0,0,0,
,-0.435,0.41,0.679,-431.458,-337.037,59.936,0,0,0,
,-0.455,0.341,0.928,-425.721,-306.641,112.609,0,0,0,
,-0.332,0.468,1.022,-388.184,-371.521,97.839,0,0,0,
,-0.392,0.555,0.816,-221.009,-319.825,88.501,0,0,0,
,-0.488,0.567,0.649,42.053,-131.958,83.923,0,0,0,
,-0.463,0.467,0.641,279.297,83.862,20.263,0,0,0,
,-0.404,0.439,0.745,368.042,245.849,14.16,0,0,0,
,-0.416,0.485,0.787,396.606,371.887,-16.785,0,0,0,
,-0.44,0.508,0.881,454.04,454.04,-86.365,0,0,0,
,-0.429,0.367,0.828,498.779,517.028,-141.48,0,0,0,
,-0.394,0.162,0.551,508.484,565.49,-127.93,0,0,0,
,-0.269,0.209,1.44,35.827,249.45,127.685,0,0,0,
,-0.06,0.365,1.358,-481.873,-27.771,-76.355,0,0,0,
,-0.225,0.555,0.739,-288.575,-277.344,-1.709,0,0,0,
,-0.379,0.453,0.582,-215.455,-420.289,73.425,0,0,0,
,-0.502,0.323,0.68,-310.669,-401.49,-19.227,0,0,0,
,-0.457,0.346,0.903,-571.351,-324.891,38.33,0,0,0,
,-0.33,0.462,0.994,-560.12,-451.416,0.183,0,0,0,
,-0.461,0.536,0.753,-328.736,-362.915,77.514,0,0,0,
,-0.578,0.573,0.569,-31.006,-161.499,65.979,0,0,0,
,-0.556,0.459,0.597,245.483,57.922,-12.269,0,0,0,
,-0.507,0.372,0.763,419.494,234.314,-10.56,0,0,0,
,-0.524,0.434,0.824,516.357,378.54,-57.74,0,0,0,
,-0.537,0.538,0.888,583.252,505.432,-158.081,0,0,0,
,-0.542,0.475,1.01,706.421,594.604,-241.517,0,0,0,
,-0.523,-0.02,0.446,926.696,579.162,-287.903,0,0,0,
,-0.221,0.029,1.545,34.179,195.8,112.793,0,0,0,
,-0.195,0.43,1.151,-309.082,86.12,24.963,0,0,0,
,-0.399,0.747,0.781,301.086,-324.402,152.099,0,0,0,
,-0.482,0.394,0.738,569.519,-321.961,112.548,0,0,0,
,-0.557,0.055,0.831,516.113,-179.871,32.226,0,0,0,
,-0.487,0.023,0.939,23.376,-69.764,181.579,0,0,0,
,-0.479,0.238,0.977,-269.898,-33.326,247.131,0,0,0,
,-0.475,0.327,0.937,-283.753,-63.843,235.595,0,0,0,
,-0.496,0.283,0.867,-224.122,-57.312,222.107,0,0,0,
,-0.499,0.226,0.814,-272.095,-11.719,211.425,0,0,0,
,-0.503,0.229,0.758,-384.888,51.269,237.304,0,0,0,
,-0.488,0.271,0.729,-471.558,101.989,251.281,0,0,0,
,-0.457,0.308,0.719,-502.564,140.136,259.399,0,0,0,
,-0.421,0.365,0.705,-539.185,186.096,286.438,0,0,0,
,-0.386,0.423,0.705,-553.223,188.964,302.124,0,0,0,
,-0.356,0.437,0.744,-559.571,154.235,265.442,0,0,0,
,-0.355,0.427,0.729,-571.289,118.225,273.986,0,0,0,
,-0.361,0.45,0.706,-522.767,95.825,244.873,0,0,0,
,-0.383,0.409,0.702,-459.595,71.472,187.439,0,0,0,
,-0.388,0.367,0.707,-495.606,86.608,160.522,0,0,0,
,-0.391,0.377,0.696,-602.784,106.384,153.564,0,0,0,
,-0.387,0.428,0.677,-721.924,104.858,120.605,0,0,0,
,-0.383,0.489,0.665,-791.626,91.247,64.575,0,0,0,
,-0.371,0.519,0.674,-818.726,95.336,14.526,0,0,0,
,-0.358,0.514,0.685,-796.875,125.671,-9.4,0,0,0,
,-0.344,0.509,0.719,-730.957,148.498,15.991,0,0,0,
,-0.337,0.553,0.707,-681.702,163.879,24.536,0,0,0,
,-0.349,0.599,0.652,-662.354,188.476,19.226,0,0,0,
,-0.353,0.634,0.623,-677.002,200.561,-8.057,0,0,0,
,-0.341,0.668,0.625,-675.843,197.509,-41.871,0,0,0,
,-0.337,0.701,0.652,-590.76,184.875,-59.693,0,0,0,
,-0.335,0.725,0.675,-458.069,169.494,-67.261,0,0,0,
,-0.374,0.697,0.685,-328.675,194.397,-75.867,0,0,0,
,-0.314,0.633,0.702,-295.35,249.511,-69.031,0,0,0,
,-0.32,0.568,0.759,-372.437,307.983,-44.922,0,0,0,
,-0.306,0.608,0.656,-481.995,367.431,-5.982,0,0,0,
,-0.302,0.651,0.502,-613.831,372.497,-8.362,0,0,0,
,-0.275,0.763,0.488,-695.801,300.72,-65.979,0,0,0,
,-0.236,0.827,0.527,-495.85,180.359,-139.1,0,0,0,
,-0.245,0.904,0.54,-240.357,110.046,-97.29,0,0,0,
,-0.281,0.876,0.515,13,91.919,-148.987,0,0,0,
,-0.295,0.731,0.528,79.162,77.575,-157.593,0,0,0,
,-0.283,0.641,0.545,-87.891,73.547,-136.658,0,0,0,
,-0.278,0.628,0.482,-387.391,63.598,-130.494,0,0,0,
,-0.297,0.721,0.402,-593.811,18.432,-118.042,0,0,0,
,-0.301,0.825,0.444,-573.365,-34.974,-122.193,0,0,0,
,-0.31,0.892,0.485,-425.965,-49.988,-111.939,0,0,0,
,-0.324,0.851,0.511,-304.2,-18.616,-132.203,0,0,0,
,-0.307,0.793,0.485,-309.937,24.902,-130.738,0,0,0,
,-0.276,0.789,0.45,-390.931,53.772,-125.123,0,0,0,
,-0.246,0.818,0.409,-441.346,13.671,-116.028,0,0,0,
,-0.242,0.853,0.379,-419.678,-62.073,-99.793,0,0,0,
,-0.267,0.914,0.36,-372.864,-133.545,-74.707,0,0,0,
,-0.309,0.989,0.347,-257.752,-142.823,-66.224,0,0,0,
,-0.318,0.931,0.361,-190.186,-76.05,-107.85,0,0,0,
,-0.306,0.83,0.347,-194.764,13.916,-90.271,0,0,0,
,-0.282,0.837,0.296,-328.736,58.654,-31.922,0,0,0,
,-0.25,0.89,0.291,-420.227,65.002,-48.157,0,0,0,
,-0.237,0.915,0.267,-405.823,22.888,-51.331,0,0,0,
,-0.265,0.94,0.223,-332.459,-17.884,-50.721,0,0,0,
,-0.285,0.927,0.246,-270.813,-36.194,-55.054,0,0,0,
,-0.288,0.838,0.233,-286.255,-0.916,-69.825,0,0,0,
,-0.279,0.868,0.216,-346.07,28.747,-36.377,0,0,0,
,-0.271,0.955,0.196,-314.576,44.616,-40.711,0,0,0,
,-0.263,0.941,0.213,-190.796,25.024,-66.773,0,0,0,
,-0.264,0.911,0.227,-119.568,4.455,-71.167,0,0,0,
,-0.262,0.904,0.223,-88.807,7.629,-83.252,0,0,0,
,-0.255,0.92,0.234,-43.152,16.784,-85.206,0,0,0,
,-0.234,0.922,0.244,12.512,8.117,-92.102,0,0,0,
,-0.219,0.952,0.25,72.387,-7.264,-103.882,0,0,0,
,-0.209,0.97,0.229,159.179,-22.644,-150.452,0,0,0,
,-0.217,0.98,0.223,282.776,-50.232,-178.833,0,0,0,
,-0.214,0.936,0.234,403.381,-14.222,-246.521,0,0,0,
,-0.223,0.876,0.256,482.238,17.456,-240.845,0,0,0,
,-0.206,0.866,0.322,413.452,51.513,-202.82,0,0,0,
,-0.199,0.947,0.314,310.852,73.364,-182.129,0,0,0,
,-0.193,0.973,0.301,264.587,83.435,-182.129,0,0,0,
,-0.189,0.965,0.316,222.9,73.425,-164.307,0,0,0,
,-0.194,0.941,0.322,191.711,54.504,-144.349,0,0,0,
,-0.205,0.925,0.331,135.315,36.926,-113.343,0,0,0,
,-0.209,0.951,0.341,108.886,23.132,-97.474,0,0,0,
,-0.212,0.98,0.342,169.189,25.146,-101.441,0,0,0,
,-0.208,0.945,0.355,263.855,27.893,-104.31,0,0,0,
,-0.203,0.899,0.387,318.603,29.052,-105.347,0,0,0,
,-0.184,0.857,0.424,349.121,37.109,-91.797,0,0,0,
,-0.18,0.782,0.398,283.996,46.63,-74.28,0,0,0,
,-0.184,0.802,0.343,159.423,31.677,-48.096,0,0,0,
,-0.201,0.849,0.375,135.009,13.732,-36.805,0,0,0,
,-0.212,0.857,0.399,166.137,19.165,-40.894,0,0,0,
,-0.208,0.872,0.399,146.24,63.781,-45.899,0,0,0,
,-0.187,0.891,0.415,155.273,88.745,-57.862,0,0,0,
,-0.162,0.899,0.424,201.965,84.35,-83.008,0,0,0,
,-0.153,0.892,0.42,217.468,69.702,-82.398,0,0,0,
,-0.144,0.898,0.443,234.741,47.424,-95.643,0,0,0,
,-0.135,0.934,0.461,289.978,39.367,-91.37,0,0,0,
,-0.151,0.926,0.456,376.281,47.607,-110.23,0,0,0,
,-0.143,0.862,0.484,362.304,54.321,-130.738,0,0,0,
,-0.163,0.851,0.453,306.152,103.088,-97.474,0,0,0,
,-0.144,0.85,0.495,276.001,105.59,-107.911,0,0,0,
,-0.142,0.838,0.512,187.561,109.192,-98.877,0,0,0,
,-0.134,0.872,0.554,196.411,119.567,-91.675,0,0,0,
,-0.141,0.905,0.564,286.499,131.042,-96.619,0,0,0,
,-0.142,0.87,0.573,420.288,145.874,-119.019,0,0,0,
,-0.133,0.839,0.596,524.353,174.072,-121.216,0,0,0,
,-0.117,0.754,0.648,580.444,189.941,-159.913,0,0,0,
,-0.096,0.677,0.654,481.201,212.524,-127.93,0,0,0,
,-0.07,0.728,0.637,327.758,222.046,-73.548,0,0,0,
,-0.067,0.764,0.638,262.756,176.696,-88.379,0,0,0,
,-0.079,0.761,0.646,241.516,147.033,-83.68,0,0,0,
,-0.082,0.785,0.671,221.435,151.55,-72.266,0,0,0,
,-0.079,0.805,0.671,269.287,168.335,-96.924,0,0,0,
,-0.066,0.799,0.678,344.604,167.785,-89.478,0,0,0,
,-0.059,0.78,0.689,390.503,165.893,-92.652,0,0,0,
,-0.048,0.757,0.697,412.597,166.626,-94.056,0,0,0,
,-0.035,0.754,0.717,432.067,161.865,-84.656,0,0,0,
,-0.022,0.75,0.726,458.801,162.231,-88.623,0,0,0,
,-0.01,0.752,0.726,503.845,165.527,-75.745,0,0,0,
,-0.001,0.726,0.732,536.865,160.644,-74.524,0,0,0,
,0,0.682,0.736,539.917,152.71,-67.749,0,0,0,
,0.008,0.647,0.745,517.028,151.611,-57.007,0,0,0,
,0.013,0.633,0.736,490.356,147.644,-37.537,0,0,0,
,0.019,0.63,0.76,490.478,132.812,-26.978,0,0,0,
,0.029,0.604,0.802,504.577,115.6,-20.203,0,0,0,
,0.031,0.577,0.813,497.314,111.389,-6.714,0,0,0,
,0.039,0.592,0.851,482.91,95.031,-2.259,0,0,0,
,0.024,0.545,0.827,515.014,96.984,-6.226,0,0,0,
,0.03,0.505,0.831,458.13,86.975,26.367,0,0,0,
,0.026,0.5,0.826,398.071,92.651,22.766,0,0,0,
,0.039,0.499,0.85,380.249,78.552,34.484,0,0,0,
,0.042,0.506,0.854,383.361,67.565,39.611,0,0,0,
,0.037,0.504,0.863,411.316,44.616,36.621,0,0,0,
,0.033,0.485,0.88,426.635,49.56,34.484,0,0,0,
,0.048,0.405,0.844,458.007,92.834,36.987,0,0,0,
,0.06,0.365,0.853,462.158,68.42,21.789,0,0,0,
,0.057,0.337,0.847,465.332,49.682,29.785,0,0,0,
,0.052,0.302,0.859,464.843,23.681,23.071,0,0,0,
,0.052,0.269,0.869,435.852,14.77,29.174,0,0,0,
,0.056,0.238,0.886,390.258,-0.123,32.714,0,0,0,
,0.057,0.206,0.897,320.922,-24.048,37.536,0,0,0,
,0.056,0.21,0.897,247.924,-37.903,49.377,0,0,0,
,0.04,0.211,0.902,211.914,-63.172,42.48,0,0,0,
,0.043,0.197,0.913,168.518,-77.637,46.142,0,0,0,
,0.045,0.203,0.921,124.267,-88.99,52.246,0,0,0,
,0.039,0.215,0.953,34.912,-104.798,54.992,0,0,0,
,0.028,0.229,0.935,28.686,-102.478,50.231,0,0,0,
,0.019,0.225,0.931,32.714,-109.253,34.24,0,0,0,
,0.012,0.229,0.921,38.269,-119.446,31.127,0,0,0,
,-0.003,0.231,0.916,61.035,-136.902,16.296,0,0,0,
,-0.025,0.215,0.915,76.538,-154.053,4.577,0,0,0,
,-0.05,0.203,0.916,71.411,-142.334,-7.142,0,0,0,
,-0.069,0.205,0.906,38.086,-103.699,-20.752,0,0,0,
,-0.059,0.211,0.908,17.639,-64.82,-35.279,0,0,0,
,-0.044,0.22,0.917,6.958,-49.317,-20.935,0,0,0,
,-0.038,0.237,0.941,8.85,-44.373,-19.288,0,0,0,
,-0.039,0.275,1.026,137.39,-27.955,-22.461,0,0,0,
,-0.03,0.239,1.019,208.74,-12.33,-38.758,0,0,0,
,-0.012,0.173,1.016,204.956,-35.828,-30.64,0,0,0,
,-0.015,0.162,1.032,128.784,-63.782,-5.372,0,0,0,
,-0.029,0.201,1.041,74.646,-75.623,17.822,0,0,0,
,-0.036,0.215,1.028,84.961,-70.801,14.038,0,0,0,
,-0.039,0.199,0.998,101.379,-70.069,14.465,0,0,0,
,-0.04,0.188,0.981,86.975,-78.614,17.883,0,0,0,
,-0.042,0.2,0.976,80.2,-94.422,17.089,0,0,0,
,-0.049,0.202,0.973,99.731,-103.882,18.127,0,0,0,
,-0.055,0.191,0.973,117.736,-115.845,12.878,0,0,0,
,-0.068,0.171,0.975,113.403,-130.005,13.916,0,0,0,
,-0.073,0.175,0.959,101.013,-134.766,12.023,0,0,0,
,-0.075,0.186,0.924,75.927,-137.024,-5.127,0,0,0,
,-0.079,0.182,0.943,90.637,-170.838,-13.428,0,0,0,
,-0.097,0.187,0.945,159.118,-184.021,17.578,0,0,0,
,-0.111,0.148,0.963,187.439,-198.121,11.169,0,0,0,
,-0.124,0.121,0.986,153.015,-184.632,18.615,0,0,0,
,-0.132,0.127,0.98,115.478,-146.79,39.733,0,0,0,
,-0.122,0.124,0.964,74.157,-129.395,34.179,0,0,0,
,-0.125,0.139,0.96,54.016,-146.485,54.138,0,0,0,
,-0.147,0.153,0.959,72.998,-166.687,56.152,0,0,0,
,-0.173,0.148,0.969,103.515,-168.396,53.466,0,0,0,
,-0.187,0.149,0.984,120.239,-147.767,63.049,0,0,0,
,-0.189,0.139,0.997,139.587,-111.878,61.462,0,0,0,
,-0.18,0.121,0.979,149.658,-80.872,55.175,0,0,0,
,-0.167,0.111,0.96,147.461,-74.952,53.894,0,0,0,
,-0.164,0.113,0.938,169.189,-93.567,49.56,0,0,0,
,-0.18,0.104,0.934,218.689,-119.568,36.438,0,0,0,
,-0.191,0.077,0.925,257.08,-134.705,26.245,0,0,0,
,-0.226,0.017,0.874,276.001,-102.173,22.399,0,0,0,
,-0.215,-0.002,0.822,267.883,-58.899,22.033,0,0,0,
,-0.202,-0.012,0.773,267.517,-32.349,17.7,0,0,0,
,-0.188,-0.034,0.708,264.709,-24.781,-5.249,0,0,0,
,-0.19,-0.056,0.672,265.564,-31.922,-28.992,0,0,0,
,-0.211,-0.082,0.651,271.606,-22.706,-49.622,0,0,0,
,-0.219,-0.118,0.668,239.685,6.408,-54.932,0,0,0,
,-0.218,-0.123,0.719,152.404,106.75,-34.241,0,0,0,
,-0.213,-0.127,0.719,72.937,236.328,-31.983,0,0,0,
,-0.194,-0.124,0.724,17.334,349.975,-29.358,0,0,0,
,-0.173,-0.115,0.722,-53.04,428.039,-37.72,0,0,0,
,-0.173,-0.124,0.739,-147.706,444.213,-51.819,0,0,0,
,-0.193,-0.106,0.841,-256.47,443.176,-48.035,0,0,0,
,-0.217,-0.046,0.954,-345.643,499.145,-50.415,0,0,0,
,-0.242,0.037,1.076,-326.661,604.98,-81.421,0,0,0,
,-0.221,0.053,1.237,-215.332,753.357,-104.676,0,0,0,
,-0.165,-0.01,1.322,-169.739,924.133,-99.427,0,0,0,
,-0.057,-0.041,1.372,-274.353,1011.779,-76.05,0,0,0,
,0.089,0.002,1.427,-480.164,945.373,-59.754,0,0,0,
,0.218,0.101,1.432,-652.222,766.052,-46.509,0,0,0,
,0.284,0.225,1.402,-687.439,549.56,-25.33,0,0,0,
,0.304,0.314,1.347,-608.46,338.684,-11.292,0,0,0,
,0.312,0.331,1.305,-495.606,166.687,-16.846,0,0,0,
,0.295,0.307,1.241,-436.158,38.391,-9.217,0,0,0,
,0.292,0.302,1.197,-426.758,-68.848,-3.724,0,0,0,
,0.177,0.216,1.005,-250.489,-188.66,4.211,0,0,0,
,0.14,0.228,0.98,-296.631,-191.712,18.127,0,0,0,
,0.107,0.257,0.945,-314.515,-175.904,9.399,0,0,0,
,0.088,0.27,0.913,-311.646,-157.044,8.972,0,0,0,
,0.078,0.282,0.881,-317.139,-140.259,12.023,0,0,0,
,0.072,0.326,0.856,-305.787,-138.611,10.192,0,0,0,
,0.068,0.343,0.837,-263.977,-140.32,-5.066,0,0,0,
,0.053,0.35,0.829,-204.529,-145.325,-11.231,0,0,0,
,0.031,0.355,0.825,-134.949,-136.536,-13.733,0,0,0,
,0.027,0.343,0.821,-63.965,-108.643,-21.18,0,0,0,
,0.041,0.304,0.813,-76.783,-87.83,-29.541,0,0,0,
,0.028,0.315,0.83,-78.309,-107.911,-32.349,0,0,0,
,0.01,0.315,0.844,-58.228,-106.995,-38.269,0,0,0,
,0.004,0.293,0.863,-49.439,-80.018,-47.791,0,0,0,
,0.003,0.287,0.87,-76.722,-73.731,-51.88,0,0,0,
,0.011,0.293,0.866,-104.737,-80.079,-57.923,0,0,0,
,0.008,0.304,0.871,-131.287,-96.924,-65.918,0,0,0,
,-0.001,0.31,0.877,-155.945,-107.666,-75.44,0,0,0,
,-0.013,0.319,0.878,-184.998,-106.873,-82.337,0,0,0,
,-0.018,0.341,0.891,-211.548,-102.478,-90.149,0,0,0,
,-0.018,0.348,0.91,-234.131,-93.445,-96.924,0,0,0,
,-0.022,0.363,0.92,-264.527,-85.755,-89.844,0,0,0,
,-0.023,0.387,0.935,-296.021,-68.665,-84.168,0,0,0,
,-0.025,0.424,0.933,-334.229,-64.515,-82.642,0,0,0,
,-0.016,0.448,0.937,-352.784,-65.857,-74.341,0,0,0,
,-0.014,0.454,0.915,-369.263,-74.952,-80.75,0,0,0,
,-0.019,0.453,0.878,-426.636,-98.816,-64.881,0,0,0,
,-0.018,0.5,0.877,-476.014,-138.916,-54.993,0,0,0,
,-0.03,0.541,0.86,-472.901,-166.138,-67.566,0,0,0,
,-0.048,0.571,0.854,-428.345,-164.49,-59.327,0,0,0,
,-0.064,0.59,0.805,-348.633,-129.883,-59.815,0,0,0,
,-0.067,0.575,0.775,-282.959,-103.638,-59.754,0,0,0,
,-0.04,0.576,0.749,-309.205,-102.417,-63.782,0,0,0,
,-0.048,0.629,0.755,-321.656,-189.698,-81.238,0,0,0,
,-0.082,0.65,0.759,-231.873,-176.087,-68.055,0,0,0,
,-0.103,0.669,0.78,-145.508,-94.849,-36.072,0,0,0,
,-0.081,0.647,0.773,-67.383,-43.946,-52.308,0,0,0,
,-0.04,0.589,0.757,-31.25,-16.358,-48.829,0,0,0,
,-0.027,0.587,0.772,-44.739,-32.959,-13.062,0,0,0,
,-0.035,0.575,0.802,-84.656,-65.369,-28.687,0,0,0,
,-0.034,0.569,0.83,-157.776,-85.572,-29.419,0,0,0,
,-0.052,0.566,0.828,-150.757,-82.398,-23.987,0,0,0,
,-0.066,0.567,0.819,-175.904,-60.425,-37.964,0,0,0,
,-0.068,0.58,0.801,-184.449,-33.814,-39.734,0,0,0,
,-0.053,0.619,0.787,-154.725,-24.659,-37.537,0,0,0,
,-0.054,0.638,0.764,-113.77,-17.579,-52.552,0,0,0,
,-0.059,0.612,0.728,-107.789,-12.207,-67.627,0,0,0,
,-0.048,0.622,0.71,-88.379,-24.659,-74.097,0,0,0,
,-0.044,0.665,0.738,-48.035,-57.496,-68.421,0,0,0,
,-0.06,0.676,0.739,9.521,-62.073,-104.004,0,0,0,
,-0.024,0.687,0.724,116.088,-121.46,-34.18,0,0,0,
,-0.055,0.726,0.717,205.688,-127.93,-23.987,0,0,0,
,-0.053,0.699,0.719,339.66,-129.273,-50.049,0,0,0,
,-0.039,0.636,0.702,479.309,-118.164,-24.476,0,0,0,
,-0.017,0.629,0.709,530.151,-161.988,10.009,0,0,0,
,-0.013,0.578,0.736,592.956,-240.662,-33.448,0,0,0,
,-0.036,0.508,0.762,662.109,-264.588,-49.744,0,0,0,
,-0.075,0.422,0.755,661.377,-273.499,-50.354,0,0,0,
,-0.064,0.313,0.762,589.904,-267.579,-78.919,0,0,0,
,-0.063,0.276,0.754,461.792,-289.978,-116.883,0,0,0,
,-0.084,0.247,0.775,256.286,-350.342,-121.766,0,0,0,
,-0.11,0.273,0.82,50.659,-375.184,-168.824,0,0,0,
,-0.144,0.354,0.788,27.038,-342.957,-232.3,0,0,0,
,-0.155,0.325,0.783,68.603,-312.989,-289.307,0,0,0,
,-0.171,0.242,0.768,-8.789,-278.504,-320.984,0,0,0,
,-0.179,0.229,0.702,-189.82,-261.841,-353.455,0,0,0,
,-0.209,0.258,0.694,-414.795,-271.119,-390.503,0,0,0,
,-0.238,0.321,0.706,-647.461,-239.93,-408.143,0,0,0,
,-0.232,0.403,0.685,-824.219,-207.276,-442.627,0,0,0,
,-0.184,0.477,0.649,-932.801,-200.928,-476.014,0,0,0,
,-0.132,0.566,0.579,-964.295,-230.408,-482.422,0,0,0,
,-0.107,0.644,0.497,-939.148,-296.204,-490.601,0,0,0,
,-0.117,0.703,0.403,-873.291,-372.01,-491.15,0,0,0,
,-0.142,0.809,0.37,-700.013,-419.678,-471.375,0,0,0,
,-0.168,0.903,0.421,-434.693,-429.261,-432.435,0,0,0,
,-0.19,0.93,0.517,-175.415,-367.066,-416.199,0,0,0,
,-0.146,0.875,0.586,-19.532,-281.434,-395.02,0,0,0,
,-0.112,0.827,0.584,-42.115,-245.484,-377.747,0,0,0,
,-0.167,0.823,0.603,-163.88,-235.352,-351.197,0,0,0,
,-0.209,0.858,0.664,-276.551,-252.076,-293.396,0,0,0,
,-0.172,1.106,0.646,-18.738,-125.855,-366.639,0,0,0,
,-0.169,0.884,0.651,82.092,-118.775,-311.585,0,0,0,
,-0.092,0.99,0.678,17.761,-184.937,-306.946,0,0,0,
,-0.123,1.03,0.708,131.591,-252.686,-286.011,0,0,0,
,-0.207,0.956,0.76,276.062,-262.635,-261.048,0,0,0,
,-0.15,1.033,0.873,670.227,-301.392,-90.088,0,0,0,
,-0.181,0.897,0.869,600.341,-323.121,-73.06,0,0,0,
,-0.199,0.972,0.878,345.092,-379.151,-62.134,0,0,0,
,-0.336,0.818,0.786,525.573,-334.778,-84.778,0,0,0,
,-0.237,0.58,0.714,693.176,-131.897,-24.109,0,0,0,
,-0.231,0.559,0.718,588.317,-95.765,-24.17,0,0,0,
,-0.242,0.569,0.749,527.099,-43.091,-19.898,0,0,0,
,-0.185,0.546,0.765,463.195,3.173,-18.982,0,0,0,
,-0.148,0.575,0.782,517.151,13.183,7.385,0,0,0,
,-0.147,0.556,0.833,533.935,-21.607,36.804,0,0,0,
,-0.16,0.608,0.884,504.15,-41.443,38.635,0,0,0,
,-0.202,0.434,0.863,472.168,-6.165,6.836,0,0,0,
,-0.145,0.436,0.882,272.277,-12.024,39.489,0,0,0,
,-0.185,0.506,0.873,147.705,-34.913,27.404,0,0,0,
,-0.211,0.515,0.869,153.259,-50.538,46.142,0,0,0,
,-0.222,0.445,0.881,172.851,-41.382,5.981,0,0,0,
,-0.195,0.379,0.873,167.297,-28.077,-12.574,0,0,0,
,-0.183,0.4,0.914,167.846,-20.142,-5.188,0,0,0,
,-0.191,0.485,0.876,220.214,-7.63,1.831,0,0,0,
,-0.185,0.471,0.869,249.206,-12.146,-20.264,0,0,0,
,-0.179,0.375,0.904,184.082,-29.48,-37.11,0,0,0,
,-0.179,0.337,0.929,10.192,-30.762,-49.195,0,0,0,
,-0.187,0.417,0.921,-124.878,-39.551,-9.705,0,0,0,
,-0.218,0.478,0.893,-118.897,-29.725,-22.889,0,0,0,
,-0.222,0.502,0.869,-55.054,-7.019,-5.616,0,0,0,
,-0.212,0.469,0.856,-7.508,-0.611,-13.855,0,0,0,
,-0.209,0.443,0.84,-10.071,9.399,-9.949,0,0,0,
,-0.207,0.446,0.838,-43.213,22.155,-2.564,0,0,0,
,-0.208,0.463,0.849,-78.492,25.39,-2.991,0,0,0,
,-0.198,0.454,0.842,-99.61,29.663,-6.836,0,0,0,
,-0.206,0.472,0.858,-95.887,19.531,-3.174,0,0,0,
,-0.205,0.464,0.852,-103.699,28.198,-7.019,0,0,0,
,-0.188,0.461,0.855,-118.409,29.48,-19.959,0,0,0,
,-0.181,0.462,0.846,-126.709,27.893,-21.058,0,0,0,
,-0.182,0.478,0.859,-125.977,23.925,-17.884,0,0,0,
,-0.182,0.482,0.835,-119.568,34.973,-47.73,0,0,0,
,-0.174,0.475,0.825,-122.071,23.132,4.821,0,0,0,
,-0.168,0.484,0.817,-141.419,13.916,1.464,0,0,0,
,-0.167,0.474,0.801,-165.711,11.901,-4.334,0,0,0,
,-0.167,0.489,0.778,-178.101,1.586,-8.667,0,0,0,
,-0.18,0.48,0.762,-172.608,-26.246,-23.011,0,0,0,
,-0.183,0.525,0.757,-126.343,-44.556,-10.682,0,0,0,
,-0.189,0.554,0.767,-76.233,-54.81,-21.119,0,0,0,
,-0.206,0.521,0.761,-56.641,-56.519,-46.509,0,0,0,
,-0.216,0.506,0.752,-72.083,-36.622,-45.044,0,0,0,
,-0.209,0.539,0.757,-88.562,-17.762,-43.885,0,0,0,
,-0.2,0.551,0.77,-86.853,-6.47,-49.195,0,0,0,
,-0.201,0.558,0.777,-80.811,-3.54,-43.091,0,0,0,
,-0.209,0.545,0.786,-77.759,0.671,-38.941,0,0,0,
,-0.211,0.538,0.788,-83.313,5.798,-27.771,0,0,0,
,-0.211,0.539,0.786,-82.825,8.667,-27.527,0,0,0,
,-0.209,0.544,0.764,-65.979,16.906,-24.231,0,0,0,
,-0.207,0.544,0.764,-37.232,18.493,-23.316,0,0,0,
,-0.208,0.528,0.778,-17.945,19.348,-24.17,0,0,0,
,-0.194,0.54,0.773,-36.988,28.076,-12.879,0,0,0,
,-0.184,0.539,0.785,-97.718,-4.029,-37.11,0,0,0,
,-0.202,0.527,0.797,-202.576,-29.908,-45.899,0,0,0,
,-0.206,0.589,0.789,-241.333,-40.101,-38.086,0,0,0,
,-0.218,0.63,0.78,-222.657,-58.045,-41.748,0,0,0,
,-0.219,0.634,0.781,-166.932,-59.327,-60.914,0,0,0,
,-0.222,0.636,0.779,-96.314,-51.087,-46.326,0,0,0,
,-0.206,0.635,0.769,-71.595,-48.768,-40.589,0,0,0,
,-0.202,0.638,0.756,-70.008,-46.631,-50.599,0,0,0,
,-0.21,0.649,0.761,-67.627,-52.124,-44.129,0,0,0,
,-0.208,0.648,0.754,-41.382,-42.847,-47.852,0,0,0,
,-0.233,0.62,0.791,-15.015,-40.223,-31.983,0,0,0,
,-0.25,0.65,0.791,38.818,-34.852,-65.796,0,0,0,
,-0.203,0.613,0.811,47.851,-12.757,-57.007,0,0,0,
,-0.21,0.593,0.764,28.198,-18.189,-40.284,0,0,0,
,-0.231,0.588,0.755,10.986,-4.273,-44.495,0,0,0,
,-0.218,0.61,0.754,12.329,0.915,-45.594,0,0,0,
,-0.218,0.616,0.773,23.925,-1.954,-44.739,0,0,0,
,-0.22,0.618,0.78,3.479,9.46,-44.983,0,0,0,
,-0.215,0.612,0.766,-14.588,22.766,-43.702,0,0,0,
,-0.208,0.613,0.759,-21.363,23.254,-51.27,0,0,0,
,-0.218,0.625,0.748,6.164,31.433,-34.424,0,0,0,
,-0.229,0.579,0.743,-72.937,-5.677,-36.194,0,0,0,
,-0.238,0.634,0.762,-91.919,0.488,8.361,0,0,0,
,-0.252,0.659,0.76,-54.139,4.15,5.92,0,0,0,
,-0.274,0.681,0.81,29.052,6.713,51.147,0,0,0,
,-0.284,0.653,0.814,62.072,39.856,2.075,0,0,0,
,-0.262,0.657,0.83,56.335,39.184,40.771,0,0,0,
,-0.292,0.659,0.833,45.105,11.169,64.209,0,0,0,
,-0.319,0.657,0.877,24.047,2.929,106.323,0,0,0,
,-0.303,0.623,0.901,-18.311,9.46,114.135,0,0,0,
,-0.311,0.64,0.909,-97.474,19.531,159.301,0,0,0,
,-0.322,0.716,0.893,-174.683,12.451,193.786,0,0,0,
,-0.292,0.763,0.884,-189.087,-29.358,223.877,0,0,0,
,-0.309,0.765,0.88,-151.978,-65.125,264.587,0,0,0,
,-0.291,0.791,0.884,-121.705,-97.413,293.396,0,0,0,
,-0.263,0.851,0.89,-54.078,-138.611,333.923,0,0,0,
,-0.24,0.895,0.881,45.105,-168.03,372.253,0,0,0,
,-0.205,0.888,0.835,151.794,-196.473,411.621,0,0,0,
,-0.191,0.833,0.772,254.333,-234.375,469.36,0,0,0,
,-0.179,0.775,0.723,270.63,-287.476,515.197,0,0,0,
,-0.188,0.713,0.689,254.455,-343.506,558.96,0,0,0,
,-0.217,0.633,0.628,253.723,-373.658,597.351,0,0,0,
,-0.25,0.514,0.542,234.13,-390.442,615.844,0,0,0,
,-0.266,0.409,0.494,198.303,-409.119,634.582,0,0,0,
,-0.379,0.275,0.41,138.794,-330.933,581.726,0,0,0,
,-0.386,0.255,0.438,111.633,-245.057,502.807,0,0,0,
,-0.394,0.309,0.498,105.285,-137.757,410.766,0,0,0,
,-0.431,0.307,0.528,134.826,-4.273,305.725,0,0,0,
,-0.457,0.207,0.509,184.265,148.376,205.322,0,0,0,
,-0.452,0.091,0.466,172.79,283.569,133.178,0,0,0,
,-0.476,0.039,0.45,54.992,402.954,102.356,0,0,0,
,-0.507,0.085,0.555,-30.884,493.957,67.016,0,0,0,
,-0.558,0.156,0.704,-48.829,580.261,20.752,0,0,0,
,-0.562,0.263,0.805,10.437,686.584,-65.43,0,0,0,
,-0.517,0.432,0.892,123.901,748.169,-90.455,0,0,0,
,-0.408,0.489,1.17,699.035,589.965,-22.644,0,0,0,
,-0.385,0.413,0.891,651.367,467.712,29.907,0,0,0,
,-0.338,0.341,1.192,375.488,175.293,82.885,0,0,0,
,-0.333,0.298,1.042,433.105,-59.815,-62.317,0,0,0,
,-0.394,0.074,0.895,49.438,-228.333,72.753,0,0,0,
,-0.449,0.172,0.794,-536.438,-327.393,50.048,0,0,0,
,-0.482,0.387,0.786,-766.968,-376.038,9.765,0,0,0,
,-0.478,0.504,0.838,-589.844,-355.957,25.39,0,0,0,
,-0.403,0.446,0.806,-339.539,-401.795,58.837,0,0,0,
,-0.417,0.354,0.759,-187.012,-429.566,45.532,0,0,0,
,-0.473,0.308,0.698,-136.597,-346.863,65.551,0,0,0,
,-0.482,0.287,0.636,-153.26,-202.637,36.254,0,0,0,
,-0.466,0.257,0.638,-198.914,-36.011,51.086,0,0,0,
,-0.478,0.291,0.718,-218.567,142.639,26.794,0,0,0,
,-0.496,0.476,0.829,-49.988,354.187,-4.517,0,0,0,
,-0.507,0.605,0.881,272.766,529.297,-99.244,0,0,0,
,-0.518,0.536,0.979,639.892,648.132,-130.066,0,0,0,
,-0.501,0.26,0.841,760.131,684.814,-153.992,0,0,0,
,-0.494,-0.006,0.143,879.699,675.232,-166.748,0,0,0,
,-0.329,0.022,1.33,-295.838,467.529,385.437,0,0,0,
,-0.161,0.49,1.41,-803.223,-234.07,-97.901,0,0,0,
,-0.383,0.826,1.255,-166.138,-549.805,-46.998,0,0,0,
,-0.612,0.5,0.813,590.576,-332.093,112.182,0,0,0,
,-0.621,0.145,0.673,469.299,-115.906,95.336,0,0,0,
,-0.543,0.098,0.753,-69.825,-32.654,36.926,0,0,0,
,-0.474,0.308,0.899,-361.145,-81.421,73.425,0,0,0,
,-0.543,0.41,0.93,-199.707,-187.806,169.677,0,0,0,
,-0.572,0.402,0.872,-136.963,-113.526,163.757,0,0,0,
,-0.545,0.388,0.83,-106.873,-38.392,169.494,0,0,0,
,-0.524,0.379,0.799,-107.422,-19.654,168.396,0,0,0,
,-0.53,0.338,0.775,-193.421,-27.894,166.748,0,0,0,
,-0.546,0.337,0.753,-319.519,-10.376,152.893,0,0,0,
,-0.545,0.351,0.771,-401.673,49.865,135.498,0,0,0,
,-0.533,0.379,0.729,-407.959,151.245,135.254,0,0,0,
,-0.514,0.375,0.706,-361.084,235.473,143.554,0,0,0,
,-0.491,0.368,0.64,-315.979,312.683,171.508,0,0,0,
,-0.462,0.377,0.604,-301.026,344.238,189.026,0,0,0,
,-0.432,0.345,0.603,-326.355,315.063,180.664,0,0,0,
,-0.418,0.347,0.629,-355.591,254.516,196.411,0,0,0,
,-0.415,0.342,0.682,-421.021,206.421,182.983,0,0,0,
,-0.423,0.342,0.724,-508.789,190.551,149.231,0,0,0,
,-0.42,0.365,0.74,-593.445,223.449,131.713,0,0,0,
,-0.401,0.406,0.73,-652.71,290.1,99.426,0,0,0,
,-0.368,0.442,0.712,-654.725,326.049,72.57,0,0,0,
,-0.331,0.47,0.712,-615.906,308.715,55.053,0,0,0,
,-0.309,0.499,0.71,-582.581,259.765,29.113,0,0,0,
,-0.302,0.517,0.708,-564.881,211.059,4.333,0,0,0,
,-0.304,0.547,0.688,-556.885,186.279,-24.231,0,0,0,
,-0.291,0.557,0.675,-578.858,168.213,-61.829,0,0,0,
,-0.267,0.588,0.685,-586.487,140.808,-84.717,0,0,0,
,-0.258,0.651,0.7,-540.772,109.069,-80.323,0,0,0,
,-0.259,0.687,0.703,-465.027,80.078,-84.9,0,0,0,
,-0.274,0.682,0.695,-424.683,62.561,-94.727,0,0,0,
,-0.29,0.647,0.684,-430.664,69.091,-87.586,0,0,0,
,-0.281,0.692,0.679,-435.914,97.106,-62.378,0,0,0,
,-0.285,0.683,0.643,-420.594,98.083,-61.951,0,0,0,
,-0.281,0.755,0.603,-441.285,54.809,-54.017,0,0,0,
,-0.291,0.751,0.598,-416.321,31.555,-64.515,0,0,0,
,-0.304,0.737,0.581,-423.462,26.184,-52.979,0,0,0,
,-0.311,0.743,0.549,-440.43,31.921,-36.744,0,0,0,
,-0.315,0.763,0.537,-439.209,25.329,-36.072,0,0,0,
,-0.317,0.75,0.549,-435.242,14.77,-38.514,0,0,0,
,-0.329,0.735,0.538,-460.083,10.315,-10.987,0,0,0,
,-0.332,0.772,0.521,-469.056,20.568,-4.944,0,0,0,
,-0.315,0.868,0.518,-361.756,49.377,-8.24,0,0,0,
,-0.308,0.831,0.513,-166.932,24.963,-42.42,0,0,0,
,-0.317,0.702,0.519,-127.991,5.249,-33.997,0,0,0,
,-0.344,0.676,0.516,-235.23,13.427,7.934,0,0,0,
,-0.372,0.763,0.497,-357.605,67.565,8.789,0,0,0,
,-0.373,0.816,0.443,-248.536,235.901,7.324,0,0,0,
,-0.353,0.808,0.375,-186.28,272.766,34.851,0,0,0,
,-0.328,0.864,0.36,-167.115,228.21,38.024,0,0,0,
,-0.304,0.832,0.408,-155.213,128.357,-10.193,0,0,0,
,-0.3,0.797,0.475,-149.109,52.307,-5.677,0,0,0,
,-0.327,0.838,0.479,-188.904,27.465,28.747,0,0,0,
,-0.351,0.868,0.458,-204.651,22.338,16.906,0,0,0,
,-0.361,0.878,0.409,-148.377,60.791,4.394,0,0,0,
,-0.356,0.851,0.351,-79.102,76.965,-10.987,0,0,0,
,-0.34,0.851,0.329,-54.81,55.969,-27.222,0,0,0,
,-0.323,0.903,0.372,-9.705,15.747,-46.998,0,0,0,
,-0.339,0.833,0.35,59.265,-3.296,-86.609,0,0,0,
,-0.341,0.856,0.375,38.452,-8.301,-37.11,0,0,0,
,-0.33,0.897,0.411,53.955,-6.348,-68.482,0,0,0,
,-0.328,0.869,0.403,105.407,-2.137,-83.985,0,0,0,
,-0.327,0.838,0.386,147.583,0.549,-89.112,0,0,0,
,-0.323,0.806,0.391,164.917,-6.348,-90.638,0,0,0,
,-0.321,0.799,0.41,162.841,-13.611,-85.083,0,0,0,
,-0.316,0.791,0.432,138.855,-10.56,-77.698,0,0,0,
,-0.306,0.78,0.45,79.711,-2.686,-81.604,0,0,0,
,-0.314,0.786,0.432,34.179,20.141,-68.421,0,0,0,
,-0.309,0.814,0.467,2.197,36.743,-67.322,0,0,0,
,-0.293,0.826,0.44,-19.959,35.278,-63.721,0,0,0,
,-0.293,0.858,0.445,-5.921,22.644,-61.646,0,0,0,
,-0.3,0.856,0.435,31.86,14.892,-68.482,0,0,0,
,-0.29,0.836,0.428,78.186,13.549,-84.412,0,0,0,
,-0.289,0.836,0.421,107.299,-10.865,-95.032,0,0,0,
,-0.278,0.812,0.438,78.43,-57.129,-102.051,0,0,0,
,-0.276,0.755,0.443,11.23,-47.608,-69.581,0,0,0,
,-0.307,0.822,0.414,-125.428,-43.702,-36.255,0,0,0,
,-0.3,0.856,0.395,-115.357,-21.729,-55.787,0,0,0,
,-0.287,0.845,0.396,-96.985,-37.476,-44.434,0,0,0,
,-0.306,0.865,0.386,-93.079,-47.608,-24.598,0,0,0,
,-0.292,0.845,0.505,-67.994,-51.697,-47.791,0,0,0,
,-0.313,0.823,0.429,-146.363,-11.17,33.935,0,0,0,
,-0.314,0.866,0.407,-155.396,41.87,54.809,0,0,0,
,-0.308,0.853,0.338,-155.213,89.355,64.209,0,0,0,
,-0.299,0.869,0.317,-195.191,55.847,58.044,0,0,0,
,-0.317,0.89,0.347,-209.412,28.32,47.912,0,0,0,
,-0.346,0.934,0.342,-142.579,64.331,56.213,0,0,0,
,-0.342,0.919,0.357,-34.79,116.15,37.841,0,0,0,
,-0.323,0.89,0.36,62.377,123.962,43.701,0,0,0,
,-0.31,0.867,0.368,125.305,111.816,26.672,0,0,0,
,-0.303,0.827,0.385,125.671,76.294,-2.93,0,0,0,
,-0.295,0.808,0.426,81.481,45.166,-4.7,0,0,0,
,-0.31,0.824,0.428,33.935,37.048,9.948,0,0,0,
,-0.314,0.831,0.421,-4.578,34.362,4.516,0,0,0,
,-0.314,0.848,0.429,-22.522,28.93,0.671,0,0,0,
,-0.317,0.871,0.428,-2.015,25.146,-5.127,0,0,0,
,-0.31,0.892,0.456,43.457,32.714,-6.775,0,0,0,
,-0.305,0.899,0.414,112.793,19.104,-39.856,0,0,0,
,-0.312,0.869,0.437,196.35,-22.644,-45.594,0,0,0,
,-0.327,0.823,0.432,205.261,-16.053,-55.481,0,0,0,
,-0.331,0.814,0.433,161.621,-3.174,-41.443,0,0,0,
,-0.327,0.825,0.417,133.239,20.08,-47.913,0,0,0,
,-0.315,0.843,0.403,138,25.39,-48.401,0,0,0,
,-0.302,0.86,0.422,185.608,2.197,-54.078,0,0,0,
,-0.313,0.871,0.437,247.985,-10.376,-59.937,0,0,0,
,-0.323,0.858,0.452,302.856,4.333,-63.05,0,0,0,
,-0.32,0.845,0.469,380.432,32.226,-62.012,0,0,0,
,-0.307,0.809,0.466,417.48,48.889,-66.956,0,0,0,
,-0.299,0.776,0.463,384.887,36.377,-71.045,0,0,0,
,-0.314,0.788,0.483,340.576,27.099,-59.388,0,0,0,
,-0.318,0.81,0.505,332.031,44.006,-64.087,0,0,0,
,-0.318,0.836,0.529,364.257,66.894,-61.219,0,0,0,
,-0.29,0.767,0.527,391.296,83.374,-86.548,0,0,0,
,-0.315,0.829,0.558,365.966,60.302,-25.391,0,0,0,
,-0.302,0.827,0.585,489.38,112.854,-67.933,0,0,0,
,-0.273,0.742,0.604,550.476,120.666,-54.81,0,0,0,
,-0.288,0.775,0.632,523.132,101.684,-18.677,0,0,0,
,-0.282,0.756,0.637,572.021,119.934,-47.913,0,0,0,
,-0.266,0.7,0.654,599.182,109.497,-43.702,0,0,0,
,-0.279,0.692,0.68,572.509,94.909,-15.32,0,0,0,
,-0.28,0.666,0.708,567.077,115.478,-24.292,0,0,0,
,-0.273,0.639,0.711,517.456,116.394,-7.264,0,0,0,
,-0.266,0.634,0.723,477.783,114.624,4.394,0,0,0,
,-0.265,0.612,0.742,472.168,121.399,0.976,0,0,0,
,-0.258,0.595,0.755,437.988,130.981,15.625,0,0,0,
,-0.25,0.592,0.763,408.813,130.798,22.766,0,0,0,
,-0.248,0.582,0.781,378.173,119.018,23.071,0,0,0,
,-0.245,0.577,0.8,356.811,122.619,26.367,0,0,0,
,-0.244,0.576,0.797,352.295,131.958,35.644,0,0,0,
,-0.23,0.566,0.811,357.177,131.53,34.79,0,0,0,
,-0.22,0.555,0.826,354.797,121.032,50.415,0,0,0,
,-0.222,0.546,0.83,346.74,99.548,56.152,0,0,0,
,-0.233,0.52,0.816,348.388,75.805,57.434,0,0,0,
,-0.237,0.505,0.82,358.581,77.27,63.354,0,0,0,
,-0.236,0.49,0.821,364.624,78.064,59.814,0,0,0,
,-0.233,0.474,0.835,377.99,68.664,50.293,0,0,0,
,-0.228,0.462,0.852,397.216,62.622,50.354,0,0,0,
,-0.221,0.445,0.853,427.063,58.715,48.156,0,0,0,
,-0.212,0.425,0.853,447.998,39.123,45.166,0,0,0,
,-0.214,0.396,0.863,461.792,16.235,41.32,0,0,0,
,-0.212,0.364,0.88,451.233,14.038,41.687,0,0,0,
,-0.214,0.348,0.875,415.893,15.686,48.523,0,0,0,
,-0.214,0.353,0.88,369.995,9.033,57.983,0,0,0,
,-0.216,0.358,0.888,348.266,1.098,66.223,0,0,0,
,-0.216,0.337,0.883,353.82,10.864,61.035,0,0,0,
,-0.218,0.312,0.887,328.125,3.112,59.814,0,0,0,
,-0.212,0.281,0.898,328.674,-9.583,63.72,0,0,0,
,-0.216,0.269,0.921,309.814,-20.874,70.8,0,0,0,
,-0.215,0.255,0.935,287.841,-30.701,70.861,0,0,0,
,-0.215,0.234,0.95,269.592,-35.157,65.856,0,0,0,
,-0.215,0.224,0.97,251.587,-56.031,64.758,0,0,0,
,-0.223,0.221,0.97,239.074,-74.219,65.918,0,0,0,
,-0.233,0.211,0.971,222.107,-89.051,60.119,0,0,0,
,-0.237,0.202,0.973,193.908,-106.507,65.002,0,0,0,
,-0.25,0.198,0.963,164.672,-116.211,67.749,0,0,0,
,-0.259,0.193,0.953,144.165,-122.254,67.321,0,0,0,
,-0.268,0.198,0.94,126.281,-128.907,70.678,0,0,0,
,-0.278,0.208,0.941,131.164,-133.057,72.937,0,0,0,
,-0.283,0.198,0.949,149.17,-136.231,70.373,0,0,0,
,-0.288,0.187,0.947,155.212,-136.048,73.364,0,0,0,
,-0.295,0.181,0.939,160.217,-136.658,77.453,0,0,0,
,-0.299,0.176,0.937,171.264,-135.682,83.435,0,0,0,
,-0.306,0.165,0.953,190.368,-145.874,84.045,0,0,0,
,-0.316,0.139,0.957,196.594,-145.264,86.181,0,0,0,
,-0.328,0.124,0.953,172.851,-146.607,89.66,0,0,0,
,-0.336,0.12,0.935,160.583,-136.963,90.21,0,0,0,
,-0.348,0.111,0.918,151.672,-132.019,92.041,0,0,0,
,-0.352,0.111,0.911,135.009,-125.672,93.627,0,0,0,
,-0.36,0.11,0.902,116.088,-129.151,94.665,0,0,0,
,-0.364,0.107,0.908,118.042,-128.113,90.698,0,0,0,
,-0.371,0.095,0.904,121.338,-122.071,92.041,0,0,0,
,-0.372,0.093,0.912,117.736,-113.465,92.163,0,0,0,
,-0.369,0.09,0.923,130.981,-100.586,91.796,0,0,0,
,-0.365,0.076,0.926,148.376,-91.248,87.097,0,0,0,
,-0.37,0.066,0.95,170.837,-96.131,83.313,0,0,0,
,-0.377,0.05,0.963,188.903,-99.854,78.735,0,0,0,
,-0.39,0.033,0.96,200.134,-106.751,77.331,0,0,0,
,-0.399,0.018,0.956,197.815,-104.859,72.57,0,0,0,
,-0.409,0.001,0.937,180.297,-93.934,69.763,0,0,0,
,-0.408,-0.006,0.916,152.71,-84.839,63.354,0,0,0,
,-0.408,-0.005,0.913,129.333,-85.694,58.593,0,0,0,
,-0.412,-0.001,0.919,124.206,-87.83,61.95,0,0,0,
,-0.414,-0.006,0.924,137.451,-82.459,57.373,0,0,0,
,-0.41,-0.015,0.931,141.601,-79.407,55.664,0,0,0,
,-0.409,-0.027,0.917,143.127,-86.426,46.569,0,0,0,
,-0.413,-0.032,0.908,136.535,-103.821,46.203,0,0,0,
,-0.418,-0.037,0.894,135.07,-113.099,40.588,0,0,0,
,-0.42,-0.052,0.869,126.892,-112.427,35.705,0,0,0,
,-0.42,-0.053,0.843,109.619,-101.929,37.414,0,0,0,
,-0.409,-0.047,0.828,105.407,-99.854,29.541,0,0,0,
,-0.409,-0.04,0.768,114.746,-109.62,17.639,0,0,0,
,-0.409,-0.046,0.784,142.028,-135.132,0.366,0,0,0,
,-0.417,-0.078,0.795,143.188,-143.006,-4.7,0,0,0,
,-0.426,-0.09,0.793,100.036,-145.203,3.967,0,0,0,
,-0.431,-0.089,0.802,61.462,-122.437,-2.137,0,0,0,
,-0.442,-0.105,0.826,-54.2,-92.225,-8.484,0,0,0,
,-0.452,-0.085,0.821,-100.159,-80.262,-7.874,0,0,0,
,-0.465,-0.071,0.823,-118.226,-69.825,-18.921,0,0,0,
,-0.479,-0.057,0.819,-126.526,-54.688,-17.029,0,0,0,
,-0.496,-0.071,0.83,-132.203,-39.307,-30.884,0,0,0,
,-0.5,-0.062,0.849,-135.56,-18.799,-36.622,0,0,0,
,-0.499,-0.051,0.851,-122.193,19.897,-42.786,0,0,0,
,-0.499,-0.044,0.839,-105.896,48.828,-54.139,0,0,0,
,-0.487,-0.04,0.833,-81.604,75.378,-68.116,0,0,0,
,-0.47,-0.049,0.823,-79.895,107.238,-83.252,0,0,0,
,-0.45,-0.057,0.799,-109.559,138.794,-98.938,0,0,0,
,-0.42,-0.055,0.771,-156.495,166.32,-110.84,0,0,0,
,-0.398,-0.048,0.729,-209.656,179.687,-129.578,0,0,0,
,-0.383,-0.039,0.667,-283.326,180.542,-160.767,0,0,0,
,-0.38,-0.014,0.632,-358.826,196.777,-188.721,0,0,0,
,-0.385,0.025,0.641,-340.149,229.553,-223.938,0,0,0,
,-0.394,0.037,0.694,-267.395,298.278,-249.207,0,0,0,
,-0.398,0.032,0.744,-204.529,391.723,-261.048,0,0,0,
,-0.387,0.007,0.79,-206.299,480.774,-286.377,0,0,0,
,-0.366,-0.016,0.816,-286.011,541.565,-308.594,0,0,0,
,-0.345,0.018,0.865,-379.273,575.439,-331.971,0,0,0,
,-0.331,0.082,0.932,-405.457,583.252,-347.962,0,0,0,
,-0.317,0.13,0.998,-392.09,588.928,-348.45,0,0,0,
,-0.299,0.158,1.034,-424.073,584.777,-344.727,0,0,0,
,-0.272,0.196,1.062,-505.555,568.664,-334.168,0,0,0,
,-0.249,0.27,1.097,-595.215,520.813,-306.946,0,0,0,
,-0.221,0.338,1.132,-626.526,473.938,-303.406,0,0,0,
,-0.183,0.386,1.143,-632.264,403.076,-283.081,0,0,0,
,-0.163,0.433,1.138,-639.588,318.603,-273.194,0,0,0,
,-0.142,0.478,1.135,-650.696,234.375,-253.052,0,0,0,
,-0.126,0.522,1.113,-626.893,148.437,-220.093,0,0,0,
,-0.12,0.539,1.077,-578.98,79.223,-193.421,0,0,0,
,-0.125,0.542,1.021,-513.916,13.855,-170.227,0,0,0,
,-0.135,0.538,0.969,-461.304,-37.903,-140.503,0,0,0,
,-0.157,0.527,0.941,-424.561,-70.435,-127.137,0,0,0,
,-0.177,0.539,0.946,-377.869,-83.191,-119.935,0,0,0,
,-0.185,0.545,0.96,-328.736,-52.308,-111.695,0,0,0,
,-0.179,0.526,0.941,-268.311,2.38,-101.99,0,0,0,
,-0.163,0.506,0.907,-263.916,23.376,-85.816,0,0,0,
,-0.143,0.513,0.876,-289.612,20.324,-65.43,0,0,0,
,-0.141,0.52,0.847,-299.805,-7.447,-65.613,0,0,0,
,-0.158,0.519,0.822,-299.866,-28.87,-53.956,0,0,0,
,-0.174,0.525,0.807,-319.519,-28.077,-44.617,0,0,0,
,-0.179,0.535,0.807,-335.877,-6.958,-40.467,0,0,0,
,-0.165,0.521,0.845,-310.852,35.217,-12.452,0,0,0,
,-0.158,0.485,0.816,-325.684,60.058,33.02,0,0,0,
,-0.155,0.469,0.831,-457.703,64.575,49.438,0,0,0,
,-0.162,0.496,0.77,-690.003,65.429,59.204,0,0,0,
,-0.172,0.566,0.702,-842.164,55.175,70.19,0,0,0,
,-0.179,0.67,0.675,-860.169,32.226,69.519,0,0,0,
,-0.182,0.733,0.662,-781.8,5.737,40.039,0,0,0,
,-0.186,0.803,0.629,-678.589,2.197,39.001,0,0,0,
,-0.189,0.85,0.616,-563.66,13,28.564,0,0,0,
,-0.182,0.857,0.611,-437.684,29.174,18.432,0,0,0,
,-0.151,0.948,0.616,-260.376,43.701,45.349,0,0,0,
,-0.151,0.896,0.597,-6.653,18.615,-69.764,0,0,0,
,-0.129,0.83,0.623,204.773,-18.189,-99.976,0,0,0,
,-0.144,0.749,0.603,305.114,-31.983,-132.386,0,0,0,
,-0.134,0.683,0.657,309.936,-51.941,-167.359,0,0,0,
,-0.112,0.644,0.681,291.626,-30.884,-149.17,0,0,0,
,-0.083,0.651,0.69,230.102,-22.644,-114.258,0,0,0,
,-0.067,0.642,0.679,153.259,-73.182,-144.654,0,0,0,
,-0.043,0.607,0.719,79.528,-133.667,-123.414,0,0,0,
,-0.067,0.668,0.732,-14.893,-150.635,-61.463,0,0,0,
,-0.076,0.74,0.708,5.004,-155.396,-76.172,0,0,0,
,-0.071,0.732,0.737,59.143,-166.321,-66.712,0,0,0,
,-0.065,0.64,0.693,84.35,-158.02,-49.561,0,0,0,
,-0.079,0.677,0.639,23.376,-291.443,-44.617,0,0,0,
,-0.111,0.643,0.641,36.621,-339.539,-51.941,0,0,0,
,-0.139,0.642,0.638,21.362,-366.089,-61.829,0,0,0,
,-0.158,0.66,0.641,34.24,-378.174,-75.989,0,0,0,
,-0.185,0.671,0.627,97.839,-375.367,-87.708,0,0,0,
,-0.209,0.673,0.606,162.414,-370.789,-98.938,0,0,0,
,-0.236,0.67,0.585,203.003,-360.474,-129.151,0,0,0,
,-0.257,0.663,0.578,213.44,-347.474,-144.776,0,0,0,
,-0.287,0.658,0.568,218.933,-325.684,-157.471,0,0,0,
,-0.306,0.65,0.575,219.238,-298.157,-161.377,0,0,0,
,-0.323,0.649,0.592,212.951,-257.019,-149.292,0,0,0,
,-0.334,0.703,0.628,316.04,-107.178,-125.55,0,0,0,
,-0.336,0.693,0.642,399.719,-70.008,-118.897,0,0,0,
,-0.337,0.658,0.664,460.205,-40.223,-120.728,0,0,0,
,-0.326,0.636,0.713,479.431,-18.616,-122.62,0,0,0,
,-0.306,0.649,0.754,519.958,15.564,-124.512,0,0,0,
,-0.247,0.532,0.856,550.476,-0.184,-127.625,0,0,0,
,-0.228,0.502,0.835,487.609,-25.818,-138.306,0,0,0,
,-0.226,0.464,0.891,428.466,-81.36,-168.702,0,0,0,
,-0.186,0.423,0.845,321.045,-60.059,-183.228,0,0,0,
,-0.178,0.404,0.824,186.218,-117.981,-198.304,0,0,0,
,-0.132,0.429,0.847,48.706,-166.138,-245.85,0,0,0,
,-0.163,0.432,0.816,-135.621,-262.146,-237.793,0,0,0,
,-0.179,0.44,0.83,-257.386,-328.858,-300.293,0,0,0,
,-0.212,0.529,0.807,-303.894,-332.825,-311.097,0,0,0,
,-0.222,0.547,0.791,-246.766,-273.072,-310.059,0,0,0,
,-0.212,0.546,0.749,-125.977,-202.82,-321.412,0,0,0,
,-0.201,0.499,0.715,-48.279,-170.655,-327.515,0,0,0,
,-0.199,0.479,0.682,-51.026,-187.561,-359.559,0,0,0,
,-0.212,0.506,0.666,-38.086,-237.61,-394.043,0,0,0,
,-0.241,0.545,0.67,40.832,-263.062,-413.819,0,0,0,
,-0.27,0.561,0.684,112.609,-215.943,-430.726,0,0,0,
,-0.264,0.578,0.699,149.414,-126.893,-444.153,0,0,0,
,-0.229,0.592,0.711,169.983,-72.388,-442.566,0,0,0,
,-0.208,0.586,0.73,173.523,-59.021,-430.115,0,0,0,
,-0.214,0.579,0.753,169.555,-58.899,-400.696,0,0,0,
,-0.234,0.591,0.786,162.963,-44.556,-374.085,0,0,0,
,-0.239,0.587,0.843,142.822,-10.315,-366.15,0,0,0,
,-0.24,0.526,0.852,66.162,55.358,-354.065,0,0,0,
,-0.237,0.513,0.839,-116.394,108.703,-306.397,0,0,0,
,-0.236,0.517,0.867,-253.602,117.431,-262.635,0,0,0,
,-0.245,0.547,0.883,-389.161,123.535,-209.29,0,0,0,
,-0.256,0.606,0.86,-457.52,135.498,-175.049,0,0,0,
,-0.263,0.662,0.807,-465.455,161.438,-141.724,0,0,0,
,-0.253,0.702,0.768,-454.773,198.974,-123.78,0,0,0,
,-0.216,0.743,0.745,-441.346,212.524,-108.948,0,0,0,
,-0.17,0.789,0.742,-384.339,180.969,-87.769,0,0,0,
,-0.144,0.793,0.755,-288.758,118.957,-73.182,0,0,0,
,-0.12,0.822,0.789,-228.272,57.922,-10.132,0,0,0,
,-0.107,0.842,0.777,-233.887,-15.137,10.681,0,0,0,
,-0.12,0.827,0.738,-199.097,-96.314,-18.921,0,0,0,
,-0.148,0.803,0.68,-112.061,-110.047,-19.532,0,0,0,
,-0.159,0.786,0.659,51.635,-76.172,-13.062,0,0,0,
,-0.151,0.752,0.641,264.77,-13.916,-8.606,0,0,0,
,-0.141,0.685,0.635,410.705,20.935,-31.556,0,0,0,
,-0.128,0.616,0.656,448.364,24.719,-52.918,0,0,0,
,-0.12,0.571,0.702,421.02,37.597,-67.566,0,0,0,
,-0.11,0.558,0.754,334.228,62.744,-69.825,0,0,0,
,-0.09,0.553,0.789,227.783,84.35,-60.425,0,0,0,
,-0.08,0.543,0.812,62.316,67.871,-45.716,0,0,0,
,-0.078,0.58,0.782,-107.239,46.386,-36.866,0,0,0,
,-0.084,0.595,0.749,-193.726,23.132,-38.88,0,0,0,
,-0.096,0.63,0.742,-249.207,-18.982,-21.668,0,0,0,
,-0.107,0.643,0.729,-226.807,-52.613,-36.011,0,0,0,
,-0.131,0.666,0.692,-187.806,-49.622,-16.053,0,0,0,
,-0.14,0.705,0.687,-127.686,-32.349,-37.354,0,0,0,
,-0.134,0.708,0.684,-47.425,-10.376,-55.97,0,0,0,
,-0.133,0.705,0.692,27.71,5.92,-49.805,0,0,0,
,-0.127,0.687,0.697,81.787,15.319,-52.124,0,0,0,
,-0.122,0.679,0.683,111.633,15.319,-54.2,0,0,0,
,-0.116,0.666,0.684,132.446,-4.944,-51.514,0,0,0,
,-0.119,0.661,0.692,145.813,-16.419,-52.002,0,0,0,
,-0.125,0.649,0.696,143.432,-13.794,-51.27,0,0,0,
,-0.118,0.635,0.716,155.212,4.333,-32.532,0,0,0,
,-0.119,0.622,0.734,136.047,-5.738,-22.461,0,0,0,
,-0.117,0.629,0.749,103.82,-6.104,-20.997,0,0,0,
,-0.121,0.628,0.749,77.88,-10.01,-25.147,0,0,0,
,-0.127,0.603,0.753,60.363,-13.55,-37.537,0,0,0,
,-0.117,0.572,0.727,-87.464,1.342,-46.265,0,0,0,
,-0.118,0.593,0.739,-144.959,-28.382,-42.542,0,0,0,
,-0.127,0.614,0.743,-160.401,-52.735,-52.369,0,0,0,
,-0.128,0.638,0.758,-167.237,-56.519,-49.073,0,0,0,
,-0.12,0.65,0.773,-144.288,-51.697,-57.435,0,0,0,
,-0.112,0.658,0.765,-128.418,-44.678,-47.303,0,0,0,
,-0.113,0.675,0.744,-120.606,-37.293,-39.917,0,0,0,
,-0.112,0.683,0.73,-111.206,-41.016,-36.072,0,0,0,
,-0.113,0.688,0.73,-94.117,-41.382,-39.246,0,0,0,
,-0.113,0.674,0.748,-83.863,-24.476,-41.871,0,0,0,
,-0.129,0.681,0.709,-53.528,13.305,-32.288,0,0,0,
,-0.122,0.67,0.718,-16.663,28.686,-30.03,0,0,0,
,-0.111,0.658,0.741,-15.137,34.423,-6.958,0,0,0,
,-0.112,0.673,0.739,-45.289,33.508,0.244,0,0,0,
,-0.119,0.688,0.735,-63.721,29.541,-11.414,0,0,0,
,-0.119,0.692,0.719,-70.13,27.465,-10.071,0,0,0,
,-0.116,0.687,0.713,-68.787,18.432,-23.011,0,0,0,
,-0.127,0.678,0.703,-50.843,4.821,-12.635,0,0,0,
,-0.121,0.678,0.697,-50.415,8.361,-15.442,0,0,0,
,-0.123,0.693,0.701,-49.439,-2.93,-13.306,0,0,0,
,-0.126,0.688,0.695,-24.964,7.69,-12.879,0,0,0,
,-0.123,0.685,0.678,-23.194,9.46,-4.212,0,0,0,
,-0.113,0.671,0.674,-41.871,5.92,-7.325,0,0,0,
,-0.122,0.669,0.678,-53.406,2.258,-8.057,0,0,0,
,-0.123,0.669,0.683,-86.304,12.817,-3.357,0,0,0,
,-0.114,0.671,0.688,-132.081,13.305,-11.048,0,0,0,
,-0.117,0.669,0.693,-172.303,0.427,-19.288,0,0,0,
,-0.123,0.661,0.695,-236.268,-2.991,-23.926,0,0,0,
,-0.118,0.64,0.693,-359.925,-16.724,-42.847,0,0,0,
,-0.126,0.653,0.688,-510.193,-43.885,-61.951,0,0,0,
,-0.136,0.695,0.678,-620.362,-80.811,-86.182,0,0,0,
,-0.163,0.696,0.658,-710.511,-105.042,-110.474,0,0,0,
,-0.174,0.66,0.621,-885.987,-102.112,-120.118,0,0,0,
,-0.167,0.715,0.521,-1183.35,-105.408,-135.987,0,0,0,
,-0.148,0.863,0.48,-1320.557,-114.869,-166.199,0,0,0,
,-0.167,0.991,0.423,-1210.145,-106.507,-180.787,0,0,0,
,-0.195,1.04,0.366,-912.171,-65.308,-213.257,0,0,0,
,-0.205,1.057,0.359,-607.789,-17.395,-164.734,0,0,0,
,-0.181,1.077,0.362,-297.181,29.235,-121.827,0,0,0,
,-0.149,1.031,0.392,-113.404,52.673,-55.237,0,0,0,
,-0.166,1.016,0.374,-100.525,47.119,-13.245,0,0,0,
,-0.181,1.064,0.428,-60.059,29.296,-23.072,0,0,0,
,-0.16,1.029,0.41,18.31,91.003,12.756,0,0,0,
,-0.138,1.02,0.378,-33.265,97.839,68.725,0,0,0,
,-0.12,1.098,0.352,-45.289,92.285,132.202,0,0,0,
,-0.128,1.137,0.329,21.85,103.759,178.344,0,0,0,
,-0.129,1.117,0.322,90.148,105.59,217.712,0,0,0,
,-0.136,1.091,0.333,150.879,105.713,261.963,0,0,0,
,-0.144,1.056,0.366,228.698,111.45,313.781,0,0,0,
,-0.161,0.983,0.349,177.551,97.595,377.929,0,0,0,
,-0.169,0.999,0.361,167.663,77.819,419.738,0,0,0,
,-0.182,0.973,0.379,169.25,65.002,394.47,0,0,0,
,-0.192,0.943,0.408,194.885,67.688,413.452,0,0,0,
,-0.2,0.915,0.42,225.036,84.472,445.495,0,0,0,
,-0.218,0.861,0.434,256.103,88.623,448.303,0,0,0,
,-0.225,0.802,0.418,279.541,88.928,453.186,0,0,0,
,-0.232,0.743,0.384,303.405,62.927,469.482,0,0,0,
,-0.235,0.718,0.406,280.456,11.535,460.327,0,0,0,
,-0.246,0.704,0.421,224.06,-37.476,421.753,0,0,0,
,-0.255,0.72,0.425,191.345,-76.6,384.216,0,0,0,
,-0.265,0.707,0.363,209.777,-90.943,352.722,0,0,0,
,-0.249,0.698,0.289,311.889,-109.62,351.623,0,0,0,
,-0.234,0.719,0.279,442.199,-134.4,346.801,0,0,0,
,-0.24,0.667,0.275,634.826,-157.166,345.642,0,0,0,
,-0.254,0.452,0.223,768.371,-193.97,344.848,0,0,0,
,-0.267,0.424,0.281,708.618,-194.397,327.087,0,0,0,
,-0.301,0.422,0.374,436.279,-115.906,231.506,0,0,0,
,-0.318,0.427,0.433,341.98,-24.17,147.644,0,0,0,
,-0.321,0.429,0.46,250.793,91.43,104.614,0,0,0,
,-0.352,0.498,0.502,232.36,212.89,9.765,0,0,0,
,-0.389,0.518,0.578,310.547,361.328,-66.956,0,0,0,
,-0.415,0.458,0.649,382.141,516.479,-72.022,0,0,0,
,-0.439,0.479,0.822,399.841,677.002,-87.891,0,0,0,
,-0.455,0.58,0.895,429.748,834.35,-109.62,0,0,0,
,-0.45,0.606,1.031,479.736,959.655,-121.399,0,0,0,
,-0.452,0.743,1.253,513.305,1040.588,-148.377,0,0,0,
,-0.437,0.798,1.205,548.401,1063.598,-206.971,0,0,0,
,-0.336,0.739,1.066,703.247,921.569,-230.957,0,0,0,
,-0.241,0.637,0.782,827.026,783.752,12.878,0,0,0,
,-0.286,0.943,0.607,938.903,641.479,37.719,0,0,0,
,-0.079,0.534,1.253,-4.822,15.075,236.328,0,0,0,
,-0.04,0.629,1.292,-23.499,-457.093,-113.099,0,0,0,
,-0.281,0.651,0.888,816.955,-439.331,-53.223,0,0,0,
,-0.346,0.315,0.688,1163.513,-247.681,177.124,0,0,0,
,-0.333,0.078,0.708,839.965,-127.686,23.803,0,0,0,
,-0.185,0.008,0.834,290.649,-247.132,-47.059,0,0,0,
,-0.198,0.103,0.867,-215.027,-398.499,39.001,0,0,0,
,-0.366,0.256,0.867,-390.198,-308.655,-5.982,0,0,0,
,-0.377,0.489,0.877,-208.558,-60.425,-28.565,0,0,0,
,-0.261,0.581,0.872,323.425,147.216,-21.546,0,0,0,
,-0.257,0.499,0.946,783.691,296.203,-8.057,0,0,0,
,-0.314,0.293,0.915,899.719,407.104,-62.134,0,0,0,
,-0.335,0.194,1.062,679.382,497.131,-114.258,0,0,0,
,-0.432,-0.031,0.301,445.19,503.662,-297.303,0,0,0,
,-0.287,-0.309,1.479,-264.344,238.098,151.001,0,0,0,
,-0.018,0.103,1.493,-836.365,-139.893,-24.109,0,0,0,
,-0.225,0.709,1.119,-518.311,-249.024,-85.633,0,0,0,
,-0.348,0.599,0.815,-25.757,-274.537,148.742,0,0,0,
,-0.407,0.34,0.716,216.125,-135.621,64.086,0,0,0,
,-0.384,0.219,0.821,60.669,-96.314,114.135,0,0,0,
,-0.334,0.394,0.971,-17.701,-109.803,117.309,0,0,0,
,-0.318,0.366,1.028,103.759,-151.246,125.793,0,0,0,
,-0.34,0.267,1.019,120.971,-157.959,174.438,0,0,0,
,-0.364,0.25,0.997,11.84,-137.879,178.588,0,0,0,
,-0.364,0.255,0.958,-101.197,-84.473,200.622,0,0,0,
,-0.352,0.288,0.917,-192.627,-52.43,201.172,0,0,0,
,-0.337,0.331,0.886,-239.014,-37.598,214.172,0,0,0,
,-0.336,0.346,0.846,-252.625,-31.495,217.834,0,0,0,
,-0.343,0.368,0.848,-218.934,-27.771,212.829,0,0,0,
,-0.353,0.364,0.851,-169.861,14.099,209.961,0,0,0,
,-0.367,0.35,0.847,-127.564,87.585,202.697,0,0,0,
,-0.372,0.314,0.801,-108.033,178.161,187.622,0,0,0,
,-0.373,0.273,0.768,-135.315,250.122,198.913,0,0,0,
,-0.378,0.284,0.773,-195.13,276.794,214.721,0,0,0,
,-0.378,0.296,0.797,-237.244,286.438,217.468,0,0,0,
,-0.387,0.316,0.817,-251.648,316.955,227.966,0,0,0,
,-0.39,0.282,0.83,-277.1,382.019,226.074,0,0,0,
,-0.372,0.298,0.839,-324.83,471.74,216.064,0,0,0,
,-0.346,0.313,0.848,-397.461,541.015,216.308,0,0,0,
,-0.311,0.356,0.853,-438.965,575.134,196.411,0,0,0,
,-0.273,0.399,0.871,-437.378,606.445,155.517,0,0,0,
,-0.221,0.455,0.848,-397.095,643.066,135.131,0,0,0,
,-0.151,0.5,0.835,-322.083,668.518,124.206,0,0,0,
,-0.075,0.53,0.819,-233.399,634.582,98.083,0,0,0,
,-0.018,0.53,0.815,-153.687,539.001,69.397,0,0,0,
,0.015,0.527,0.807,-94.849,422.79,49.987,0,0,0,
,0.019,0.489,0.796,-38.514,330.383,49.987,0,0,0,
,0.026,0.453,0.8,-15.198,268.676,66.284,0,0,0,
,0.037,0.427,0.804,-39.246,219.909,90.087,0,0,0,
,0.053,0.4,0.805,-92.957,153.747,87.829,0,0,0,
,0.05,0.391,0.778,-151.123,70.19,80.383,0,0,0,
,0.019,0.384,0.77,-182.19,-15.564,82.641,0,0,0,
,-0.012,0.381,0.764,-219.788,-50.782,97.534,0,0,0,
,-0.038,0.392,0.761,-265.992,-63.233,92.163,0,0,0,
,-0.04,0.406,0.775,-310.425,-77.515,83.007,0,0,0,
,-0.053,0.429,0.763,-334.412,-90.271,66.772,0,0,0,
,-0.067,0.463,0.788,-326.172,-120.972,48.278,0,0,0,
,-0.09,0.497,0.821,-309.632,-129.151,33.203,0,0,0,
,-0.108,0.549,0.853,-290.65,-108.643,2.319,0,0,0,
,-0.113,0.59,0.888,-173.035,-73.121,-28.504,0,0,0,
,-0.099,0.614,0.875,3.295,-13.977,-67.383,0,0,0,
,-0.081,0.505,0.833,215.088,-21.851,-166.016,0,0,0,
,-0.076,0.427,0.841,229.614,-103.516,-174.134,0,0,0,
,-0.111,0.347,0.862,7.263,-149.292,-158.875,0,0,0,
,-0.138,0.385,0.855,-302.002,-117.615,-99.305,0,0,0,
,-0.154,0.484,0.827,-497.193,-50.965,-62.256,0,0,0,
,-0.149,0.592,0.76,-534.974,5.31,-38.575,0,0,0,
,-0.147,0.636,0.709,-465.516,2.99,-57.129,0,0,0,
,-0.152,0.625,0.68,-421.692,-27.955,-73.792,0,0,0,
,-0.163,0.558,0.695,-431.824,-48.157,-79.59,0,0,0,
,-0.179,0.552,0.676,-643.372,-68.055,-67.139,0,0,0,
,-0.193,0.71,0.666,-698.548,-47.547,-11.109,0,0,0,
,-0.194,0.807,0.674,-506.226,-22.767,-18.738,0,0,0,
,-0.178,0.842,0.663,-279.114,24.414,-60.975,0,0,0,
,-0.149,0.804,0.661,-29.664,6.469,-99.976,0,0,0,
,-0.118,0.723,0.669,130.188,-9.461,-112.61,0,0,0,
,-0.128,0.656,0.658,139.343,-32.105,-108.399,0,0,0,
,-0.132,0.651,0.671,80.627,-49.622,-90.638,0,0,0,
,-0.14,0.675,0.687,89.965,-51.819,-84.29,0,0,0,
,-0.142,0.652,0.687,146.545,-37.598,-96.619,0,0,0,
,-0.151,0.636,0.682,165.71,-17.823,-99.793,0,0,0,
,-0.151,0.629,0.698,140.625,5.371,-100.159,0,0,0,
,-0.147,0.63,0.712,143.676,38.635,-100.525,0,0,0,
,-0.142,0.597,0.717,125.183,73.425,-93.873,0,0,0,
,-0.112,0.581,0.729,40.1,84.045,-93.506,0,0,0,
,-0.112,0.704,0.733,-35.828,50.048,-95.032,0,0,0,
,-0.105,0.674,0.729,7.019,59.57,-119.751,0,0,0,
,-0.095,0.668,0.74,-3.235,45.959,-112.915,0,0,0,
,-0.1,0.677,0.738,-20.813,36.315,-106.08,0,0,0,
,-0.105,0.692,0.729,-9.644,29.785,-108.094,0,0,0,
,-0.1,0.718,0.721,64.148,-6.653,-117.31,0,0,0,
,-0.091,0.681,0.786,86.181,-15.015,-130.921,0,0,0,
,-0.098,0.676,0.791,23.254,30.7,-67.2,0,0,0,
,-0.103,0.719,0.767,-32.715,92.346,-26.185,0,0,0,
,-0.077,0.747,0.75,-45.716,91.98,-42.298,0,0,0,
,-0.072,0.735,0.734,187.5,100.341,-25.635,0,0,0,
,-0.037,0.682,0.794,210.327,73.181,-35.706,0,0,0,
,-0.037,0.69,0.804,176.452,78.552,5.615,0,0,0,
,-0.055,0.706,0.769,210.693,120.666,29.785,0,0,0,
,-0.039,0.676,0.745,254.211,139.953,13.855,0,0,0,
,-0.011,0.612,0.717,232.116,115.6,-8.851,0,0,0,
,-0.012,0.601,0.711,152.71,56.701,0.976,0,0,0,
,-0.031,0.631,0.725,147.033,-1.954,-6.226,0,0,0,
,-0.061,0.629,0.752,184.021,-33.081,-25.879,0,0,0,
,-0.062,0.605,0.8,202.392,-34.913,-47.181,0,0,0,
,-0.068,0.614,0.788,222.046,11.352,-31.189,0,0,0,
,-0.052,0.543,0.776,263.122,-59.021,-50.904,0,0,0,
,-0.08,0.548,0.788,245.361,-78.248,-31.8,0,0,0,
,-0.101,0.58,0.796,256.408,-63.111,-17.395,0,0,0,
,-0.097,0.604,0.799,379.943,-10.987,-1.77,0,0,0,
,-0.071,0.578,0.811,469.055,-55.42,50.72,0,0,0,
,-0.072,0.588,0.816,657.409,-39.856,75.256,0,0,0,
,-0.065,0.536,0.852,840.088,-62.745,37.231,0,0,0,
,-0.067,0.482,0.889,995.727,-67.444,57.006,0,0,0,
,-0.086,0.422,0.899,1094.116,-63.721,50.476,0,0,0,
,-0.101,0.361,0.873,1200.317,-54.81,8.789,0,0,0,
,-0.091,0.194,0.94,1137.573,-55.787,-15.931,0,0,0,
,-0.075,0.087,0.96,1098.632,-91.919,-20.569,0,0,0,
,-0.083,0.013,0.95,950.866,-116.089,29.541,0,0,0,
,-0.091,-0.019,1.031,811.95,-114.869,0.061,0,0,0,
,-0.125,-0.123,0.985,403.076,-91.309,6.774,0,0,0,
,-0.131,-0.111,0.99,363.098,-89.966,3.356,0,0,0,
,-0.137,-0.149,1.002,316.589,-102.051,-8.851,0,0,0,
,-0.149,-0.157,0.999,242.248,-101.258,2.197,0,0,0,
,-0.16,-0.129,1.001,172.485,-87.342,10.315,0,0,0,
,-0.158,-0.116,1.017,124.145,-89.966,-8.118,0,0,0,
,-0.163,-0.114,1.02,94.238,-94.483,-8.179,0,0,0,
,-0.182,-0.113,1.011,67.077,-99.366,-8.423,0,0,0,
,-0.189,-0.1,1.022,50.476,-90.394,-7.081,0,0,0,
,-0.192,-0.089,1.041,67.199,-62.561,-5.799,0,0,0,
,-0.188,-0.102,1.026,82.946,-44.129,-2.991,0,0,0,
,-0.182,-0.11,1.014,62.866,-44.434,-4.822,0,0,0,
,-0.179,-0.12,1.001,66.65,-55.726,-6.104,0,0,0,
,-0.188,-0.124,0.99,64.88,-65.003,-2.625,0,0,0,
,-0.185,-0.129,0.994,75.5,-66.346,-1.404,0,0,0,
,-0.185,-0.132,0.999,84.838,-72.327,-2.747,0,0,0,
,-0.189,-0.151,1.017,90.271,-81.177,-6.409,0,0,0,
,-0.19,-0.165,1.017,66.345,-79.529,-2.93,0,0,0,
,-0.195,-0.159,1,36.377,-80.933,-0.489,0,0,0,
,-0.198,-0.141,0.997,21.85,-83.558,0.61,0,0,0,
,-0.202,-0.134,1.029,23.01,-81.36,2.502,0,0,0,
,-0.202,-0.139,0.998,31.127,-80.384,0.976,0,0,0,
,-0.205,-0.143,0.997,30.578,-79.102,5.432,0,0,0,
,-0.206,-0.149,0.988,18.859,-84.046,2.99,0,0,0,
,-0.21,-0.15,0.988,12.817,-90.394,3.479,0,0,0,
,-0.215,-0.144,0.991,14.526,-88.562,6.103,0,0,0,
,-0.219,-0.145,0.99,28.259,-90.271,7.934,0,0,0,
,-0.226,-0.146,0.981,39.489,-91.919,10.925,0,0,0,
,-0.23,-0.149,0.978,41.87,-87.22,15.014,0,0,0,
,-0.23,-0.157,0.979,37.048,-84.473,15.686,0,0,0,
,-0.234,-0.165,0.972,24.902,-82.337,16.906,0,0,0,
,-0.233,-0.158,0.968,13.916,-83.985,18.676,0,0,0,
,-0.237,-0.15,0.971,12.146,-84.778,16.601,0,0,0,
,-0.243,-0.15,0.965,25.94,-92.102,16.418,0,0,0,
,-0.252,-0.188,0.97,37.048,-97.29,14.16,0,0,0,
,-0.259,-0.154,0.968,58.532,-92.347,8.239,0,0,0,
,-0.26,-0.17,0.968,74.89,-92.835,7.324,0,0,0,
,-0.262,-0.177,0.964,72.937,-102.417,6.042,0,0,0,
,-0.269,-0.18,0.956,70.8,-106.08,3.479,0,0,0,
,-0.277,-0.184,0.959,73.12,-110.474,-1.465,0,0,0,
,-0.285,-0.19,0.957,71.044,-108.765,-1.954,0,0,0,
,-0.288,-0.19,0.955,63.354,-101.197,-1.954,0,0,0,
,-0.29,-0.186,0.95,49.377,-93.934,-7.203,0,0,0,
,-0.291,-0.183,0.944,41.259,-95.643,-5.005,0,0,0,
,-0.292,-0.182,0.941,47.546,-99.915,-7.935,0,0,0,
,-0.298,-0.188,0.943,51.513,-103.76,-10.437,0,0,0,
,-0.3,-0.197,0.94,40.161,-99.06,-11.414,0,0,0,
,-0.306,-0.195,0.928,19.714,-96.741,-13.672,0,0,0,
,-0.306,-0.187,0.912,1.22,-89.173,-15.992,0,0,0,
,-0.315,-0.178,0.898,-10.743,-93.445,-16.297,0,0,0,
,-0.322,-0.179,0.916,-2.747,-85.694,-13.123,0,0,0,
,-0.323,-0.181,0.923,7.507,-67.566,-7.386,0,0,0,
,-0.322,-0.18,0.919,15.319,-57.19,-4.09,0,0,0,
,-0.325,-0.175,0.924,39.001,-55.298,-6.958,0,0,0,
,-0.329,-0.183,0.93,66.223,-48.768,-3.052,0,0,0,
,-0.329,-0.197,0.932,76.416,-40.467,-4.639,0,0,0,
,-0.328,-0.204,0.923,75.439,-34.79,-6.043,0,0,0,
,-0.328,-0.207,0.922,63.049,-36.499,-8.545,0,0,0,
,-0.331,-0.206,0.923,52.124,-42.847,-9.339,0,0,0,
,-0.336,-0.203,0.914,41.503,-43.03,-11.475,0,0,0,
,-0.34,-0.202,0.91,38.574,-38.025,-13.611,0,0,0,
,-0.338,-0.2,0.904,36.682,-33.692,-14.222,0,0,0,
,-0.339,-0.202,0.899,32.592,-31.495,-16.053,0,0,0,
,-0.34,-0.201,0.892,26.245,-33.081,-19.715,0,0,0,
,-0.346,-0.198,0.883,17.028,-28.26,-18.86,0,0,0,
,-0.351,-0.196,0.87,6.836,-15.442,-19.837,0,0,0,
,-0.352,-0.195,0.851,-8.301,-0.306,-25.086,0,0,0,
,-0.347,-0.182,0.85,-4.151,16.845,-22.644,0,0,0,
,-0.346,-0.191,0.844,5.737,34.24,-21.119,0,0,0,
,-0.345,-0.203,0.844,13.244,53.955,-22.706,0,0,0,
,-0.341,-0.208,0.846,16.235,74.035,-27.527,0,0,0,
,-0.33,-0.213,0.857,21.972,99.304,-26.795,0,0,0,
,-0.325,-0.222,0.854,26.672,114.807,-34.546,0,0,0,
,-0.318,-0.237,0.865,7.141,124.328,-43.702,0,0,0,
,-0.313,-0.238,0.86,-13.062,131.469,-58.716,0,0,0,
,-0.313,-0.217,0.851,-7.203,145.935,-70.984,0,0,0,
,-0.313,-0.218,0.824,3.051,171.997,-83.741,0,0,0,
,-0.307,-0.208,0.788,2.319,207.519,-91.431,0,0,0,
,-0.303,-0.204,0.773,-8.362,246.826,-92.041,0,0,0,
,-0.297,-0.217,0.77,-11.902,291.748,-94.483,0,0,0,
,-0.281,-0.248,0.774,-84.412,342.834,-91.736,0,0,0,
,-0.256,-0.243,0.806,-189.759,367.309,-101.807,0,0,0,
,-0.238,-0.218,0.857,-284.913,378.54,-100.22,0,0,0,
,-0.226,-0.183,0.902,-354.92,375.366,-112.671,0,0,0,
,-0.219,-0.155,0.959,-397.706,366.088,-116.15,0,0,0,
,-0.208,-0.123,1.002,-422.547,355.896,-125.672,0,0,0,
,-0.194,-0.091,1.041,-416.748,342.895,-127.808,0,0,0,
,-0.182,-0.058,1.057,-399.048,320.068,-133.484,0,0,0,
,-0.171,-0.036,1.076,-368.714,304.443,-136.475,0,0,0,
,-0.158,-0.032,1.12,-338.074,288.574,-130.31,0,0,0,
,-0.147,-0.016,1.151,-343.873,259.704,-127.137,0,0,0,
,-0.136,-0.019,1.196,-357.483,237.304,-129.029,0,0,0,
,-0.125,0,1.208,-390.564,220.031,-134.4,0,0,0,
,-0.12,0.018,1.2,-418.335,214.477,-134.156,0,0,0,
,-0.12,0.024,1.133,-449.646,219.97,-116.822,0,0,0,
,-0.109,0.068,1.068,-470.643,207.702,-93.689,0,0,0,
,-0.089,0.118,1.027,-453.553,162.902,-75.318,0,0,0,
,-0.082,0.153,1.022,-397.034,102.905,-58.045,0,0,0,
,-0.092,0.147,1.033,-355.957,52.673,-36.011,0,0,0,
,-0.104,0.141,1.055,-349.793,33.752,-22.156,0,0,0,
,-0.103,0.147,1.091,-318.848,31.433,-21.729,0,0,0,
,-0.101,0.151,1.049,-275.879,28.32,-17.395,0,0,0,
,-0.099,0.14,1.04,-251.648,14.16,-25.879,0,0,0,
,-0.102,0.12,1.025,-263.001,-4.456,-22.278,0,0,0,
,-0.108,0.113,1.007,-314.393,-14.832,-19.349,0,0,0,
,-0.109,0.138,1.002,-378.052,-18.25,-16.48,0,0,0,
,-0.107,0.168,0.996,-421.509,-12.818,-14.649,0,0,0,
,-0.102,0.208,0.99,-431.031,-12.452,-12.085,0,0,0,
,-0.099,0.228,0.965,-438.477,-12.879,-12.33,0,0,0,
,-0.101,0.228,0.955,-462.769,-18.311,-20.203,0,0,0,
,-0.099,0.246,0.953,-505.555,-28.199,-19.41,0,0,0,
,-0.102,0.272,0.951,-547.364,-41.81,-26.551,0,0,0,
,-0.109,0.325,0.95,-571.534,-51.087,-23.072,0,0,0,
,-0.123,0.367,0.934,-585.511,-51.636,-16.907,0,0,0,
,-0.127,0.381,0.889,-558.838,-46.998,-20.02,0,0,0,
,-0.121,0.425,0.883,-466.431,-31.495,-12.085,0,0,0,
,-0.116,0.444,0.875,-338.257,-25.94,-0.977,0,0,0,
,-0.108,0.439,0.88,-257.813,-61.707,-0.55,0,0,0,
,-0.112,0.43,0.887,-218.567,-74.769,-4.578,0,0,0,
,-0.129,0.426,0.88,-194.153,-77.271,-2.076,0,0,0,
,-0.141,0.429,0.892,-184.815,-57.496,3.418,0,0,0,
,-0.145,0.424,0.864,-192.139,-18.433,-2.869,0,0,0,
,-0.134,0.425,0.87,-212.83,15.075,-3.235,0,0,0,
,-0.127,0.443,0.877,-227.906,-8.301,3.051,0,0,0,
,-0.128,0.462,0.869,-240.845,-27.344,-2.869,0,0,0,
,-0.141,0.487,0.867,-238.282,-45.96,-8.667,0,0,0,
,-0.149,0.499,0.858,-211.731,-41.626,-9.156,0,0,0,
,-0.151,0.501,0.851,-190.552,-30.335,-4.334,0,0,0,
,-0.14,0.527,0.843,-194.397,-41.382,-3.663,0,0,0,
,-0.15,0.548,0.837,-159.607,-60.73,-1.343,0,0,0,
,-0.159,0.552,0.834,-96.802,-73.609,-3.54,0,0,0,
,-0.168,0.559,0.833,-26.917,-63.355,-2.137,0,0,0,
,-0.175,0.549,0.829,26.489,-40.223,0.549,0,0,0,
,-0.172,0.519,0.822,48.339,-26.001,0.427,0,0,0,
,-0.163,0.51,0.834,4.089,-32.959,13.671,0,0,0,
,-0.167,0.504,0.834,-25.025,-37.171,14.404,0,0,0,
,-0.172,0.514,0.837,-59.205,-32.532,12.329,0,0,0,
,-0.173,0.525,0.838,-62.867,-29.969,10.803,0,0,0,
,-0.169,0.535,0.848,-43.213,-23.987,10.437,0,0,0,
,-0.168,0.538,0.845,-16.968,-29.602,10.62,0,0,0,
,-0.17,0.531,0.854,9.521,-37.049,8.544,0,0,0,
,-0.173,0.51,0.852,10.253,-37.72,10.925,0,0,0,
,-0.176,0.52,0.84,8.178,-31.25,4.028,0,0,0,
,-0.171,0.501,0.813,29.48,-21.18,2.624,0,0,0,
,-0.171,0.483,0.85,-9.827,-10.56,9.46,0,0,0,
,-0.167,0.475,0.841,-95.459,-11.597,2.502,0,0,0,
,-0.164,0.508,0.828,-157.41,-14.771,12.023,0,0,0,
,-0.168,0.527,0.822,-148.377,-38.575,12.756,0,0,0,
,-0.183,0.527,0.827,-129.578,-49.683,31.372,0,0,0,
,-0.194,0.541,0.829,-111.268,-46.143,43.579,0,0,0,
,-0.212,0.53,0.815,-155.701,-49.317,63.842,0,0,0,
,-0.224,0.552,0.8,-250.611,-48.951,65.124,0,0,0,
,-0.227,0.62,0.791,-252.381,-39.002,61.462,0,0,0,
,-0.236,0.653,0.771,-122.071,-36.56,51.757,0,0,0,
,-0.24,0.64,0.779,74.585,-42.481,24.658,0,0,0,
,-0.231,0.574,0.805,189.148,-33.692,3.662,0,0,0,
,-0.215,0.54,0.824,194.885,-31.678,-2.686,0,0,0,
,-0.202,0.527,0.861,195.19,-54.322,-16.419,0,0,0,
,-0.181,0.492,0.878,187.194,-54.749,-14.832,0,0,0,
,-0.182,0.491,0.841,115.356,-75.135,-5.066,0,0,0,
,-0.185,0.504,0.843,61.828,-129.578,-10.621,0,0,0,
,-0.201,0.51,0.849,25.512,-152.649,4.516,0,0,0,
,-0.19,0.55,0.856,30.395,-141.907,-15.809,0,0,0,
,-0.19,0.521,0.808,122.192,-151.429,-44.251,0,0,0,
,-0.186,0.489,0.795,178.344,-189.698,-33.204,0,0,0,
,-0.188,0.455,0.794,143.493,-244.019,-38.453,0,0,0,
,-0.191,0.468,0.814,82.092,-279.114,-38.636,0,0,0,
,-0.2,0.498,0.828,114.013,-299.744,-55.298,0,0,0,
,-0.215,0.481,0.817,190.551,-294.739,-84.351,0,0,0,
,-0.224,0.442,0.781,259.643,-269.898,-112.671,0,0,0,
,-0.222,0.422,0.759,289.672,-249.634,-133.789,0,0,0,
,-0.212,0.424,0.736,321.167,-244.019,-160.889,0,0,0,
,-0.211,0.418,0.704,379.821,-256.226,-193.482,0,0,0,
,-0.21,0.386,0.704,451.538,-279.541,-236.023,0,0,0,
,-0.219,0.34,0.689,479.126,-271.851,-278.687,0,0,0,
,-0.314,0.401,0.723,-22.339,-25.33,-623.78,0,0,0,
,-0.329,0.507,0.809,-56.519,53.039,-629.029,0,0,0,
,-0.299,0.601,0.886,-19.837,141.235,-617.188,0,0,0,
,-0.282,0.65,0.936,81.604,191.772,-582.276,0,0,0,
,-0.274,0.634,0.978,185.058,195.007,-542.298,0,0,0,
,-0.264,0.603,1.024,241.394,188.049,-512.269,0,0,0,
,-0.243,0.59,1.07,281.982,174.743,-471.314,0,0,0,
,-0.227,0.588,1.088,320.373,150.756,-445.496,0,0,0,
,-0.222,0.544,1.087,332.153,96.679,-407.227,0,0,0,
,-0.227,0.504,1.069,307.373,28.503,-400.391,0,0,0,
,-0.253,0.424,1.022,129.699,-36.316,-295.655,0,0,0,
,-0.239,0.423,0.999,93.322,-14.527,-242.798,0,0,0,
,-0.225,0.424,0.94,46.691,-22.217,-216.004,0,0,0,
,-0.224,0.429,0.911,11.047,-50.293,-190.491,0,0,0,
,-0.225,0.442,0.877,43.518,-55.603,-165.589,0,0,0,
,-0.195,0.362,0.833,187.317,14.038,-164.368,0,0,0,
,-0.173,0.339,0.825,170.227,2.319,-169.556,0,0,0,
,-0.172,0.301,0.822,110.351,-39.368,-167.115,0,0,0,
,-0.195,0.289,0.848,-3.907,-72.693,-154.175,0,0,0,
,-0.229,0.29,0.837,-130.494,-75.257,-146.546,0,0,0,
,-0.244,0.333,0.906,-234.498,-66.712,-96.497,0,0,0,
,-0.221,0.497,0.962,-231.934,-82.032,-82.215,0,0,0,
,-0.241,0.432,0.966,-162.476,-98.206,-116.761,0,0,0,
,-0.249,0.383,0.958,-158.387,-94.849,-102.295,0,0,0,
,-0.248,0.401,0.935,-171.875,-74.585,-102.723,0,0,0,
,-0.235,0.411,0.899,-124.939,-59.266,-103.821,0,0,0,
,-0.208,0.391,0.853,92.285,0.305,-89.417,0,0,0,
,-0.194,0.328,0.829,88.012,47.424,-102.784,0,0,0,
,-0.167,0.346,0.813,-9.705,81.298,-88.99,0,0,0,
,-0.12,0.436,0.81,-59.876,98.999,-77.393,0,0,0,
,-0.167,0.229,1.038,-808.472,-170.227,-193.848,0,0,0,
,-0.297,0.369,0.926,-1061.829,-216.675,-506.958,0,0,0,
,-0.152,0.633,0.901,-1105.164,-38.025,-278.443,0,0,0,
,-0.173,0.709,1.145,-388.55,127.563,-87.525,0,0,0,
,-0.215,0.878,0.902,-12.696,483.459,-19.654,0,0,0,
,-0.172,0.756,0.928,-124.329,425.537,-183.289,0,0,0,
,-0.037,0.534,0.773,-52.002,460.998,-238.831,0,0,0,
,0.135,0.303,0.66,-46.936,86.731,-265.259,0,0,0,
,0.015,0.35,0.831,-104.493,-94.849,65.429,0,0,0,
,-0.14,0.589,0.802,-117.127,-142.151,128.906,0,0,0,
,-0.194,0.69,0.854,-70.618,-66.834,4.211,0,0,0,
,-0.189,0.676,0.857,-31.617,80.017,-33.509,0,0,0,
,-0.131,0.592,0.803,5.065,143.676,-77.515,0,0,0,
,-0.05,0.489,0.786,18.371,88.562,-87.403,0,0,0,
,-0.051,0.469,0.794,10.986,4.028,-26.551,0,0,0,
,-0.098,0.528,0.819,-2.503,-47.242,31.433,0,0,0,
,-0.135,0.572,0.827,-9.583,-35.767,27.465,0,0,0,
,-0.144,0.567,0.816,-11.414,-4.761,-2.137,0,0,0,
,-0.132,0.552,0.816,-5.066,28.747,-18.677,0,0,0,
,-0.119,0.541,0.806,-5.555,41.32,-23.56,0,0,0,
,-0.099,0.546,0.809,-3.113,13.916,-27.039,0,0,0,
,-0.105,0.551,0.804,-2.076,0.122,-21.973,0,0,0,
,-0.116,0.558,0.81,7.141,1.098,-21.424,0,0,0,
,-0.118,0.564,0.816,15.625,7.263,-28.199,0,0,0,
,-0.117,0.56,0.809,23.803,18.249,-35.584,0,0,0,
,-0.112,0.554,0.811,33.508,22.522,-39.917,0,0,0,
,-0.105,0.552,0.812,40.832,22.827,-40.894,0,0,0,
,-0.107,0.543,0.815,39.611,12.878,-44.434,0,0,0,
,-0.11,0.538,0.814,40.466,15.747,-49.256,0,0,0,
,-0.105,0.534,0.822,36.132,21.667,-43.824,0,0,0,
,-0.097,0.528,0.817,27.832,21.667,-36.072,0,0,0,
,-0.1,0.512,0.82,-55.603,33.63,-9.522,0,0,0,
,-0.105,0.553,0.812,20.324,22.766,-34.913,0,0,0,
,-0.063,0.553,0.828,-11.658,8.972,-42.237,0,0,0,
,-0.098,0.538,0.811,7.812,5.798,-39.185,0,0,0,
,-0.089,0.534,0.82,14.099,-5.921,-36.56,0,0,0,
,-0.096,0.544,0.807,10.437,-14.283,-22.522,0,0,0,
,-0.109,0.555,0.819,22.155,-29.175,-33.387,0,0,0,
,-0.103,0.557,0.819,30.212,-18.128,-31.189,0,0,0,
,-0.095,0.548,0.816,35.522,-23.072,-25.696,0,0,0,
,-0.089,0.536,0.822,33.203,-38.88,-6.592,0,0,0,
,-0.094,0.515,0.816,16.174,-53.162,8.361,0,0,0,
,-0.09,0.526,0.821,-2.686,-70.984,27.648,0,0,0,
,-0.096,0.51,0.828,-12.146,-112,9.46,0,0,0,
,-0.102,0.492,0.829,-41.626,-139.466,23.498,0,0,0,
,-0.11,0.522,0.798,-73.609,-179.078,31.189,0,0,0,
,-0.266,0.602,0.815,-9.095,46.325,118.652,0,0,0,
,-0.15,0.609,0.748,66.528,35.705,27.771,0,0,0,
,-0.17,0.636,0.803,68.115,-29.786,36.071,0,0,0,
,-0.242,0.638,0.801,32.104,-12.391,-4.151,0,0,0,
,-0.218,0.655,0.809,36.865,12.878,-1.16,0,0,0,
,-0.188,0.644,0.843,148.559,-9.339,37.78,0,0,0,
,-0.212,0.597,0.906,251.098,-42.42,96.069,0,0,0,
,-0.253,0.6,0.93,324.829,-41.077,129.699,0,0,0,
,-0.259,0.586,0.92,368.53,-46.143,145.019,0,0,0,
,-0.241,0.513,0.916,313.415,-39.612,145.019,0,0,0,
,-0.255,0.471,0.922,184.814,-50.904,153.503,0,0,0,
,-0.266,0.494,0.908,70.495,-36.56,168.213,0,0,0,
,-0.239,0.568,0.891,24.353,-4.883,179.931,0,0,0,
,-0.227,0.606,0.873,66.467,-30.03,179.748,0,0,0,
,-0.222,0.549,0.875,22.094,-28.809,209.655,0,0,0,
,-0.226,0.502,0.921,-29.175,-32.227,248.84,0,0,0,
,-0.231,0.553,0.962,40.71,-44.556,285.644,0,0,0,
,-0.212,0.491,0.939,38.086,-123.108,331.482,0,0,0,
,-0.209,0.518,0.925,-46.387,-175.11,350.525,0,0,0,
,-0.224,0.542,0.922,-57.312,-215.21,383.545,0,0,0,
,-0.232,0.545,0.91,-57.312,-241.578,407.592,0,0,0,
,-0.247,0.533,0.877,-49.805,-261.658,425.232,0,0,0,
,-0.252,0.536,0.849,-24.903,-284.485,445.373,0,0,0,
,-0.268,0.521,0.816,18.981,-295.472,464.965,0,0,0,
,-0.265,0.503,0.802,85.388,-320.069,466.43,0,0,0,
,-0.295,0.463,0.796,169.922,-332.276,477.417,0,0,0,
,-0.316,0.392,0.759,225.219,-334.961,478.393,0,0,0,
,-0.328,0.316,0.725,182.556,-337.342,482.116,0,0,0,
,-0.352,0.303,0.706,87.463,-323.182,488.952,0,0,0,
,-0.371,0.33,0.687,72.937,-302.124,451.538,0,0,0,
,-0.406,0.283,0.651,108.581,-270.935,454.162,0,0,0,
,-0.383,0.239,0.632,114.135,-247.254,441.528,0,0,0,
,-0.393,0.231,0.62,79.834,-213.379,421.753,0,0,0,
,-0.419,0.242,0.622,54.992,-169.8,394.531,0,0,0,
,-0.429,0.225,0.627,78.674,-114.441,362.915,0,0,0,
,-0.435,0.181,0.625,115.905,-62.561,335.571,0,0,0,
,-0.453,0.162,0.619,117.797,-6.836,294.983,0,0,0,
,-0.454,0.158,0.631,109.253,36.865,256.347,0,0,0,
,-0.469,0.162,0.637,135.681,81.176,221.862,0,0,0,
,-0.465,0.149,0.639,201.416,118.225,182.983,0,0,0,
,-0.468,0.12,0.644,295.837,152.465,162.292,0,0,0,
,-0.474,0.079,0.657,345.459,194.152,136.108,0,0,0,
,-0.486,0.071,0.703,352.295,255.737,93.017,0,0,0,
,-0.488,0.044,0.744,331.176,344.36,57.006,0,0,0,
,-0.501,0.031,0.819,289.856,460.388,33.569,0,0,0,
,-0.513,0.108,0.898,281.982,590.698,-27.222,0,0,0,
,-0.506,0.173,1.01,356.14,735.534,-64.698,0,0,0,
,-0.524,0.155,1.175,508.972,893.127,-104.981,0,0,0,
,-0.526,0.151,1.24,615.539,1025.573,-115.662,0,0,0,
,-0.439,0.132,1.021,595.092,1044.983,-21.912,0,0,0,
,-0.307,0.156,0.821,534.668,970.825,82.763,0,0,0,
,-0.249,0.294,0.526,457.275,716.797,-34.241,0,0,0,
,-0.157,0.274,1.049,129.272,207.031,74.585,0,0,0,
,-0.121,0.342,1.683,157.409,-263.001,-59.876,0,0,0,
,-0.408,0.225,1.242,759.216,-196.228,90.332,0,0,0,
,-0.397,-0.167,0.901,1023.315,-217.652,-34.546,0,0,0,
,-0.313,-0.268,0.826,715.698,-290.955,-70.13,0,0,0,
,-0.263,-0.261,0.91,210.022,-419.434,-85.022,0,0,0,
,-0.386,-0.197,0.985,-103.272,-422.486,-64.148,0,0,0,
,-0.426,-0.127,1,-154.908,-313.477,-75.074,0,0,0,
,-0.44,-0.015,1.045,-21.729,84.533,-36.988,0,0,0,
,-0.431,0.073,1.143,86.181,331.726,-52.735,0,0,0,
,-0.438,0.016,1.082,204.712,562.866,-97.229,0,0,0,
,-0.401,0.002,1.01,265.442,709.35,-69.642,0,0,0,
,-0.424,-0.065,0.558,153.625,508.484,-58.472,0,0,0,
,-0.06,-0.348,1.432,-316.895,-216.98,-149.598,0,0,0,
,-0.339,-0.094,1.351,-450.379,-71.473,150.634,0,0,0,
,-0.449,0.314,0.962,33.996,-67.627,118.103,0,0,0,
,-0.366,-0.027,0.812,198.486,-46.753,3.173,0,0,0,
,-0.332,-0.163,0.739,119.384,8.544,63.964,0,0,0,
,-0.29,-0.137,0.92,-89.661,-108.399,99.182,0,0,0,
,-0.329,-0.024,1.027,-174.317,-184.998,119.323,0,0,0,
,-0.397,-0.017,1.042,-137.269,-176.575,130.737,0,0,0,
,-0.405,-0.044,1.011,-98.633,-128.724,115.966,0,0,0,
,-0.377,-0.05,0.982,-121.766,-102.112,123.108,0,0,0,
,-0.37,-0.049,0.978,-164.368,-110.779,133.667,0,0,0,
,-0.383,-0.026,0.983,-193.177,-114.93,141.845,0,0,0,
,-0.391,-0.001,0.99,-212.525,-100.159,137.939,0,0,0,
,-0.391,0.008,0.987,-201.6,-81.421,130.859,0,0,0,
,-0.384,0.012,0.97,-185.303,-61.28,125.244,0,0,0,
,-0.38,0.004,0.969,-180.664,-41.687,133.545,0,0,0,
,-0.375,0.019,0.946,-179.627,-10.193,145.874,0,0,0,
,-0.379,0.019,0.905,-187.684,-4.822,156.005,0,0,0,
,-0.385,0.071,0.897,-204.285,27.832,168.274,0,0,0,
,-0.383,0.086,0.89,-175.477,76.965,166.32,0,0,0,
,-0.363,0.065,0.894,-143.006,130.737,161.01,0,0,0,
,-0.344,0.029,0.865,-137.33,171.997,161.865,0,0,0,
,-0.329,0.031,0.838,-169.922,182.617,191.345,0,0,0,
,-0.306,0.04,0.833,-222.168,166.32,202.209,0,0,0,
,-0.3,0.062,0.849,-275.513,130.493,203.735,0,0,0,
,-0.3,0.081,0.882,-305.359,104.37,202.453,0,0,0,
,-0.304,0.095,0.898,-304.993,97.534,196.289,0,0,0,
,-0.316,0.101,0.895,-286.805,114.196,191.406,0,0,0,
,-0.31,0.096,0.886,-276.795,145.507,175.598,0,0,0,
,-0.287,0.096,0.88,-274.598,168.213,172.851,0,0,0,
,-0.265,0.123,0.88,-268.555,160.644,170.41,0,0,0,
,-0.253,0.141,0.883,-254.273,119.323,164.734,0,0,0,
,-0.25,0.155,0.904,-215.455,78.674,153.381,0,0,0,
,-0.255,0.159,0.914,-177.369,50.964,140.014,0,0,0,
,-0.262,0.164,0.924,-131.348,53.161,120.422,0,0,0,
,-0.256,0.16,0.927,-84.9,59.814,106.14,0,0,0,
,-0.256,0.138,0.914,-49.134,68.298,95.764,0,0,0,
,-0.252,0.136,0.908,-30.884,57.8,93.2,0,0,0,
,-0.255,0.132,0.922,-23.987,51.513,77.514,0,0,0,
,-0.261,0.124,0.939,-24.231,48.156,65.246,0,0,0,
,-0.266,0.115,0.923,-34.546,69.946,53.588,0,0,0,
,-0.271,0.109,0.899,-31.373,93.383,47.119,0,0,0,
,-0.269,0.102,0.89,-26.612,105.285,46.203,0,0,0,
,-0.268,0.099,0.884,-23.316,116.15,41.32,0,0,0,
,-0.264,0.089,0.897,-28.016,114.868,35.705,0,0,0,
,-0.255,0.086,0.918,-50.721,123.596,23.803,0,0,0,
,-0.246,0.092,0.931,-67.933,127.929,9.216,0,0,0,
,-0.229,0.111,0.944,-68.909,130.615,-2.015,0,0,0,
,-0.218,0.126,0.952,-54.383,121.826,-17.762,0,0,0,
,-0.211,0.122,0.945,-43.702,112.121,-32.959,0,0,0,
,-0.212,0.119,0.947,-59.632,95.581,-36.988,0,0,0,
,-0.211,0.125,0.948,-78.614,81.726,-36.805,0,0,0,
,-0.216,0.145,0.954,-96.009,70.617,-35.645,0,0,0,
,-0.219,0.15,0.951,-115.601,70.312,-39.185,0,0,0,
,-0.219,0.175,0.943,-138.611,69.458,-37.964,0,0,0,
,-0.224,0.186,0.931,-151.734,63.537,-36.56,0,0,0,
,-0.234,0.199,0.923,-163.575,53.772,-25.757,0,0,0,
,-0.25,0.211,0.924,-165.65,52.673,-9.888,0,0,0,
,-0.258,0.231,0.924,-150.94,70.617,-5.127,0,0,0,
,-0.257,0.254,0.943,-133.851,112.121,-27.1,0,0,0,
,-0.24,0.293,0.992,-86.243,140.258,-45.777,0,0,0,
,-0.206,0.264,0.992,119.629,140.503,-75.44,0,0,0,
,-0.197,0.173,0.997,247.619,112.121,-77.637,0,0,0,
,-0.186,0.108,1.002,192.688,80.871,-71.534,0,0,0,
,-0.177,0.09,0.999,42.48,49.194,-76.233,0,0,0,
,-0.179,0.143,0.984,-94.544,24.719,-61.707,0,0,0,
,-0.193,0.203,0.977,-86.914,9.887,-69.764,0,0,0,
,-0.188,0.191,1.002,-9.888,36.987,-48.951,0,0,0,
,-0.185,0.146,0.993,-8.484,68.664,-14.1,0,0,0,
,-0.187,0.168,0.968,-112.549,55.725,-19.532,0,0,0,
,-0.191,0.212,0.964,-163.147,35.827,-26.551,0,0,0,
,-0.194,0.211,0.988,-174.073,10.803,-29.969,0,0,0,
,-0.205,0.268,0.961,-136.841,24.902,-5.555,0,0,0,
,-0.214,0.266,0.974,-99.427,-11.353,-35.95,0,0,0,
,-0.216,0.254,0.997,-97.901,-36.194,-52.002,0,0,0,
,-0.219,0.275,0.992,-63.294,-43.335,-43.091,0,0,0,
,-0.217,0.281,0.985,-18.86,-62.684,-50.538,0,0,0,
,-0.207,0.254,0.992,-9.583,-86.487,-61.402,0,0,0,
,-0.221,0.263,0.963,-31.128,-90.76,-46.814,0,0,0,
,-0.237,0.278,0.942,3.54,-75.745,-46.326,0,0,0,
,-0.239,0.255,0.933,48.217,-44.983,-33.936,0,0,0,
,-0.217,0.254,0.929,91.369,-21.363,-28.26,0,0,0,
,-0.207,0.224,0.934,122.314,-27.832,-24.048,0,0,0,
,-0.223,0.148,1.013,-99.305,-4.334,31.677,0,0,0,
,-0.224,0.205,0.998,-235.901,24.353,25.085,0,0,0,
,-0.231,0.234,0.981,-185.486,73.73,-4.761,0,0,0,
,-0.188,0.203,0.93,-163.514,112.671,-17.029,0,0,0,
,-0.155,0.209,0.921,-192.688,63.476,-14.344,0,0,0,
,-0.183,0.248,0.934,-211.731,17.517,-11.719,0,0,0,
,-0.203,0.275,0.951,-191.468,22.094,-20.813,0,0,0,
,-0.197,0.267,0.959,-140.503,32.104,-42.603,0,0,0,
,-0.196,0.268,0.959,-132.935,17.761,-37.964,0,0,0,
,-0.211,0.29,0.938,-178.528,5.615,-33.57,0,0,0,
,-0.219,0.325,0.924,-209.046,-7.508,-31.373,0,0,0,
,-0.226,0.354,0.921,-202.759,-15.32,-28.565,0,0,0,
,-0.23,0.361,0.925,-179.2,-14.222,-25.391,0,0,0,
,-0.225,0.388,0.983,-150.452,-5.188,-8.545,0,0,0,
,-0.194,0.332,0.935,-102.662,-4.395,-54.139,0,0,0,
,-0.217,0.319,0.912,-102.601,-72.144,-26.001,0,0,0,
,-0.273,0.356,0.882,-72.083,-46.082,-16.053,0,0,0,
,-0.262,0.35,0.85,-51.087,20.935,-41.321,0,0,0,
,-0.225,0.34,0.833,-59.876,38.269,-27.71,0,0,0,
,-0.21,0.345,0.849,-64.637,7.263,-30.03,0,0,0,
,-0.227,0.358,0.885,-67.2,-19.532,-17.151,0,0,0,
,-0.234,0.375,0.928,-52.369,-8.973,-21.18,0,0,0,
,-0.219,0.376,0.966,-6.348,7.995,-24.781,0,0,0,
,-0.21,0.357,0.962,50.842,15.258,-25.269,0,0,0,
,-0.221,0.324,0.943,72.326,11.535,-23.804,0,0,0,
,-0.221,0.317,0.923,29.113,8.117,-25.025,0,0,0,
,-0.219,0.334,0.927,-3.602,-11.109,-30.762,0,0,0,
,-0.225,0.35,0.923,-1.526,-19.41,-35.828,0,0,0,
,-0.235,0.344,0.918,1.648,-12.452,-32.898,0,0,0,
,-0.233,0.347,0.911,-7.081,-7.264,-27.71,0,0,0,
,-0.229,0.361,0.912,-13.977,-9.827,-26.246,0,0,0,
,-0.235,0.374,0.909,3.173,-14.405,-34.18,0,0,0,
,-0.236,0.372,0.916,37.353,-8.973,-18.616,0,0,0,
,-0.234,0.365,0.918,57.312,-11.292,-17.762,0,0,0,
,-0.23,0.352,0.931,47.912,-18.677,-17.884,0,0,0,
,-0.226,0.355,0.933,42.053,-30.518,-12.757,0,0,0,
,-0.229,0.364,0.945,61.157,-49.866,-5.127,0,0,0,
,-0.232,0.362,0.949,90.026,-59.754,-0.428,0,0,0,
,-0.233,0.349,0.952,99.548,-71.839,0.671,0,0,0,
,-0.229,0.351,0.948,97.106,-90.027,6.469,0,0,0,
,-0.235,0.351,0.945,99.487,-115.479,6.164,0,0,0,
,-0.249,0.342,0.948,86.12,-142.945,26.367,0,0,0,
,-0.267,0.355,0.928,76.416,-145.142,28.564,0,0,0,
,-0.272,0.36,0.92,99.182,-147.278,42.785,0,0,0,
,-0.252,0.348,0.908,130.066,-145.325,59.021,0,0,0,
,-0.287,0.335,0.897,137.329,-142.09,61.584,0,0,0,
,-0.291,0.35,0.905,154.174,-143.067,61.035,0,0,0,
,-0.297,0.352,0.915,219.848,-136.17,68.542,0,0,0,
,-0.306,0.286,0.925,378.357,-123.597,82.641,0,0,0,
,-0.312,0.269,0.936,406.128,-130.799,88.806,0,0,0,
,-0.322,0.232,0.944,428.588,-133.728,85.998,0,0,0,
,-0.325,0.195,0.937,432.067,-128.479,85.083,0,0,0,
,-0.318,0.174,0.941,414.062,-127.076,90.454,0,0,0,
,-0.324,0.171,0.934,394.165,-137.696,89.05,0,0,0,
,-0.342,0.166,0.929,403.625,-146.973,75.439,0,0,0,
,-0.35,0.14,0.922,418.579,-133.423,84.411,0,0,0,
,-0.347,0.128,0.925,432.434,-131.897,91.003,0,0,0,
,-0.37,0.114,0.919,434.753,-141.297,87.951,0,0,0,
,-0.375,0.082,0.921,417.907,-147.461,90.393,0,0,0,
,-0.397,0.057,0.941,368.896,-143.372,88.378,0,0,0,
,-0.4,0.044,0.934,384.704,-146.912,84.228,0,0,0,
,-0.416,0.032,0.923,395.08,-154.48,70.556,0,0,0,
,-0.424,0.014,0.924,399.597,-154.236,68.847,0,0,0,
,-0.421,-0.004,0.92,400.879,-148.743,73.181,0,0,0,
,-0.406,-0.011,0.918,411.132,-142.64,81.97,0,0,0,
,-0.396,-0.03,0.931,431.091,-146.363,83.374,0,0,0,
,-0.399,-0.054,0.923,454.589,-152.466,85.388,0,0,0,
,-0.413,-0.093,0.92,479.675,-156.8,82.763,0,0,0,
,-0.428,-0.129,0.895,486.999,-154.114,83.984,0,0,0,
,-0.437,-0.146,0.882,492.431,-153.809,79.162,0,0,0,
,-0.446,-0.167,0.882,501.892,-157.532,75.073,0,0,0,
,-0.46,-0.205,0.897,496.643,-157.837,68.359,0,0,0,
,-0.473,-0.237,0.891,449.463,-147.217,61.706,0,0,0,
,-0.473,-0.254,0.881,396.728,-140.809,58.105,0,0,0,
,-0.465,-0.262,0.876,350.769,-133.728,50.476,0,0,0,
,-0.465,-0.278,0.861,311.401,-134.217,43.823,0,0,0,
,-0.47,-0.285,0.854,251.77,-135.254,36.804,0,0,0,
,-0.48,-0.293,0.847,214.843,-136.536,31.616,0,0,0,
,-0.487,-0.297,0.842,172.119,-136.048,23.559,0,0,0,
,-0.492,-0.306,0.837,139.587,-136.841,11.962,0,0,0,
,-0.501,-0.313,0.832,112.732,-140.503,5.676,0,0,0,
,-0.513,-0.309,0.828,83.496,-140.442,-0.428,0,0,0,
,-0.518,-0.306,0.827,65.368,-137.513,-6.714,0,0,0,
,-0.52,-0.298,0.827,62.5,-134.827,-7.447,0,0,0,
,-0.523,-0.295,0.828,66.284,-131.043,-8.789,0,0,0,
,-0.521,-0.299,0.825,71.96,-125.977,-10.498,0,0,0,
,-0.527,-0.301,0.81,62.988,-127.198,-12.635,0,0,0,
,-0.537,-0.294,0.798,55.603,-123.963,-11.597,0,0,0,
,-0.537,-0.297,0.799,58.227,-119.69,-11.048,0,0,0,
,-0.533,-0.298,0.803,62.622,-112.854,-10.865,0,0,0,
,-0.533,-0.297,0.796,61.523,-110.108,-12.33,0,0,0,
,-0.531,-0.305,0.786,49.316,-101.441,-12.024,0,0,0,
,-0.538,-0.292,0.782,61.523,-84.473,-3.235,0,0,0,
,-0.541,-0.294,0.78,73.059,-81.055,-1.893,0,0,0,
,-0.542,-0.305,0.768,72.509,-74.83,-3.052,0,0,0,
,-0.542,-0.317,0.769,68.664,-70.984,-6.653,0,0,0,
,-0.545,-0.316,0.762,63.72,-59.021,-3.968,0,0,0,
,-0.551,-0.314,0.754,57.678,-50.11,-5.249,0,0,0,
,-0.551,-0.315,0.739,45.532,-40.528,-6.897,0,0,0,
,-0.548,-0.315,0.74,30.334,-31.8,-10.498,0,0,0,
,-0.542,-0.321,0.734,22.461,-20.142,-12.085,0,0,0,
,-0.543,-0.283,0.737,24.169,-3.296,-7.935,0,0,0,
,-0.543,-0.319,0.744,25.268,10.559,-9.278,0,0,0,
,-0.538,-0.321,0.736,14.953,26.184,-14.222,0,0,0,
,-0.537,-0.327,0.737,1.098,41.992,-19.654,0,0,0,
,-0.539,-0.327,0.73,-22.034,64.025,-23.804,0,0,0,
,-0.539,-0.329,0.728,-34.302,81.726,-26.49,0,0,0,
,-0.536,-0.321,0.721,-42.847,104.675,-23.621,0,0,0,
,-0.526,-0.317,0.706,-33.875,119.14,-25.635,0,0,0,
,-0.521,-0.327,0.706,-20.203,129.272,-28.809,0,0,0,
,-0.518,-0.331,0.71,-25.94,135.864,-35.767,0,0,0,
,-0.522,-0.333,0.71,-43.824,145.874,-44.19,0,0,0,
,-0.521,-0.324,0.721,-62.073,166.992,-52.613,0,0,0,
,-0.516,-0.318,0.721,-82.093,184.936,-63.111,0,0,0,
,-0.504,-0.316,0.732,-93.873,203.003,-71.717,0,0,0,
,-0.489,-0.311,0.747,-99.976,215.515,-82.337,0,0,0,
,-0.457,-0.289,0.759,-154.541,247.741,-110.596,0,0,0,
,-0.439,-0.266,0.768,-175.11,274.292,-115.052,0,0,0,
,-0.409,-0.246,0.774,-169.922,308.838,-116.822,0,0,0,
,-0.386,-0.24,0.782,-161.377,330.017,-111.023,0,0,0,
,-0.378,-0.245,0.8,-165.65,347.534,-101.502,0,0,0,
,-0.381,-0.239,0.816,-201.111,354.248,-102.601,0,0,0,
,-0.386,-0.224,0.833,-250.306,374.267,-110.535,0,0,0,
,-0.396,-0.195,0.838,-280.396,365.783,-116.456,0,0,0,
,-0.394,-0.17,0.839,-278.382,373.84,-121.705,0,0,0,
,-0.398,-0.162,0.857,-258.484,383.178,-120.179,0,0,0,
,-0.378,-0.158,0.952,-186.463,387.207,-119.507,0,0,0,
,-0.365,-0.153,0.998,-128.968,385.681,-124.268,0,0,0,
,-0.369,-0.179,1.041,-105.469,385.192,-121.277,0,0,0,
,-0.376,-0.188,1.069,-138.794,395.141,-113.892,0,0,0,
,-0.373,-0.166,1.072,-196.228,407.653,-108.582,0,0,0,
,-0.371,-0.146,1.078,-247.62,421.875,-102.417,0,0,0,
,-0.354,-0.127,1.085,-293.946,421.081,-94.483,0,0,0,
,-0.327,-0.086,1.08,-316.407,399.047,-72.51,0,0,0,
,-0.298,-0.038,1.062,-299.317,347.168,-47.425,0,0,0,
,-0.276,0.001,1.079,-237.183,279.968,-31.983,0,0,0,
,-0.261,0.006,1.113,-148.194,215.454,-28.565,0,0,0,
,-0.259,-0.023,1.145,-71.228,170.41,-25.94,0,0,0,
,-0.247,-0.059,1.145,-51.27,140.258,-24.964,0,0,0,
,-0.233,-0.07,1.128,-66.468,108.947,-30.762,0,0,0,
,-0.213,-0.079,1.111,-74.83,82.214,-34.607,0,0,0,
,-0.201,-0.093,1.086,-93.506,54.382,-40.467,0,0,0,
,-0.195,-0.096,1.066,-130.249,19.409,-45.533,0,0,0,
,-0.195,-0.078,1.059,-150.086,-15.87,-43.885,0,0,0,
,-0.2,-0.049,1.053,-149.109,-30.03,-43.335,0,0,0,
,-0.199,-0.001,1.022,-139.466,-21.607,-36.438,0,0,0,
,-0.201,-0.026,0.992,-128.052,-14.954,-30.701,0,0,0,
,-0.2,-0.027,0.975,-142.64,-3.052,-18.86,0,0,0,
,-0.195,-0.022,0.961,-168.396,0.366,-17.09,0,0,0,
,-0.195,-0.005,0.956,-195.679,1.037,-8.667,0,0,0,
,-0.205,0.003,0.963,-231.019,-8.179,-10.743,0,0,0,
,-0.205,0.023,0.969,-232.544,-12.513,-10.376,0,0,0,
,-0.205,0.039,0.989,-183.289,-25.086,-22.706,0,0,0,
,-0.207,0.037,0.978,-153.626,-35.157,-25.818,0,0,0,
,-0.208,0.032,0.973,-171.814,-46.509,-39.673,0,0,0,
,-0.212,0.042,0.971,-209.656,-60.73,-39.978,0,0,0,
,-0.203,0.077,0.976,-264.893,-83.741,-50.843,0,0,0,
,-0.217,0.102,0.962,-252.869,-102.784,-61.646,0,0,0,
,-0.222,0.118,0.976,-199.707,-107.239,-62.561,0,0,0,
,-0.233,0.112,0.982,-143.067,-112.488,-67.933,0,0,0,
,-0.243,0.114,0.979,-92.102,-98.45,-56.397,0,0,0,
,-0.251,0.101,0.964,-61.28,-80.567,-56.031,0,0,0,
,-0.253,0.084,0.971,-70.557,-60.486,-57.373,0,0,0,
,-0.245,0.071,0.963,-117.981,-48.096,-54.139,0,0,0,
,-0.238,0.087,0.962,-182.74,-43.946,-51.636,0,0,0,
,-0.241,0.099,0.963,-246.582,-52.796,-35.584,0,0,0,
,-0.245,0.154,0.96,-276.429,-57.801,-27.405,0,0,0,
,-0.254,0.186,0.977,-233.033,-53.284,-36.316,0,0,0,
,-0.253,0.198,0.976,-154.602,-42.481,-48.645,0,0,0,
,-0.258,0.169,0.975,-90.027,-32.715,-66.224,0,0,0,
,-0.252,0.158,0.947,-80.14,-23.621,-60.852,0,0,0,
,-0.257,0.168,0.943,-99.244,-21.973,-51.636,0,0,0,
,-0.247,0.156,0.959,-85.755,-22.217,-27.527,0,0,0,
,-0.253,0.156,0.964,-99.06,-30.152,-21.241,0,0,0,
,-0.254,0.164,0.973,-137.574,-46.875,-26.246,0,0,0,
,-0.26,0.19,0.989,-120.545,-49.683,-35.828,0,0,0,
,-0.257,0.183,1.008,-70.13,-60.364,-47.974,0,0,0,
,-0.262,0.188,0.998,31.066,-57.923,-62.378,0,0,0,
,-0.264,0.149,0.986,82.702,-68.177,-67.139,0,0,0,
,-0.264,0.138,0.955,36.132,-73.182,-72.388,0,0,0,
,-0.272,0.151,0.929,-13.306,-83.191,-82.276,0,0,0,
,-0.277,0.166,0.933,-37.171,-91.37,-77.21,0,0,0,
,-0.28,0.181,0.951,-42.847,-76.6,-68.848,0,0,0,
,-0.281,0.198,0.964,-23.316,-59.51,-50.477,0,0,0,
,-0.283,0.202,0.97,1.22,-58.35,-56.214,0,0,0,
,-0.288,0.188,0.968,11.657,-42.115,-60.425,0,0,0,
,-0.286,0.19,0.96,22.705,-42.969,-61.036,0,0,0,
,-0.302,0.178,0.939,31.433,-45.96,-58.35,0,0,0,
,-0.307,0.177,0.942,31.982,-38.88,-53.589,0,0,0,
,-0.312,0.175,0.931,12.39,-36.499,-56.824,0,0,0,
,-0.304,0.188,0.934,-10.56,-48.279,-60.73,0,0,0,
,-0.308,0.205,0.937,-18.738,-59.266,-61.036,0,0,0,
,-0.322,0.21,0.943,2.624,-51.758,-61.707,0,0,0,
,-0.321,0.207,0.939,25.024,-29.725,-64.82,0,0,0,
,-0.314,0.2,0.93,25.573,-12.94,-68.665,0,0,0,
,-0.306,0.202,0.894,8.3,3.54,-76.539,0,0,0,
,-0.309,0.192,0.91,75.805,57.678,-54.505,0,0,0,
,-0.309,0.169,0.899,129.821,86.425,-22.4,0,0,0,
,-0.309,0.13,0.893,164.55,109.314,-38.758,0,0,0,
,-0.284,0.127,0.905,118.347,102.661,-83.191,0,0,0,
,-0.281,0.151,0.931,-118.409,23.925,-74.402,0,0,0,
,-0.273,0.243,0.969,-142.456,3.295,-80.75,0,0,0,
,-0.287,0.254,0.981,-53.65,-15.137,-85.022,0,0,0,
,-0.29,0.239,0.992,-5.982,-24.964,-81.055,0,0,0,
,-0.293,0.232,0.994,12.085,-37.293,-91.126,0,0,0,
,-0.302,0.194,0.968,-1.404,-65.857,-73.67,0,0,0,
,-0.311,0.165,0.96,19.897,-66.651,-64.087,0,0,0,
,-0.344,0.164,0.943,12.207,-68.909,-65.979,0,0,0,
,-0.313,0.169,0.961,34.851,-79.102,-82.032,0,0,0,
,-0.324,0.163,0.978,98.022,-77.027,-90.21,0,0,0,
,-0.318,0.138,1.013,127.197,-63.721,-96.07,0,0,0,
,-0.319,0.14,1.019,101.562,-50.232,-73.548,0,0,0,
,-0.302,0.145,1.084,79.65,-67.017,-108.277,0,0,0,
,-0.289,0.178,1.046,107.666,-23.438,-82.337,0,0,0,
,-0.287,0.145,1.029,171.569,-30.884,-94.056,0,0,0,
,-0.267,0.099,0.985,133.117,-36.316,-104.065,0,0,0,
,-0.249,0.108,0.953,34.423,-82.581,-98.999,0,0,0,
,-0.24,0.15,0.931,0.061,-122.925,-113.465,0,0,0,
,-0.243,0.156,0.94,55.481,-152.588,-136.109,0,0,0,
,-0.242,0.126,0.922,104.614,-155.091,-159.058,0,0,0,
,-0.229,0.104,0.9,118.957,-160.401,-193.848,0,0,0,
,-0.228,0.092,0.882,105.224,-166.748,-217.591,0,0,0,
,-0.237,0.098,0.761,16.601,-108.094,-301.941,0,0,0,
,-0.253,0.106,0.752,-7.386,-82.154,-325.074,0,0,0,
,-0.259,0.114,0.748,-34.729,-43.091,-346.619,0,0,0,
,-0.268,0.129,0.75,-38.758,2.807,-374.024,0,0,0,
,-0.285,0.143,0.767,-31.311,38.208,-383.973,0,0,0,
,-0.308,0.147,0.781,-28.992,93.261,-399.17,0,0,0,
,-0.329,0.165,0.819,-28.199,119.079,-424.805,0,0,0,
,-0.337,0.181,0.855,15.197,162.17,-454.529,0,0,0,
,-0.346,0.172,0.868,63.781,208.923,-462.342,0,0,0,
,-0.339,0.183,0.878,60.241,250.793,-473.145,0,0,0,
,-0.307,0.247,0.905,57.434,290.649,-479.615,0,0,0,
,-0.199,0.329,0.999,188.049,276.611,-449.707,0,0,0,
,-0.19,0.304,0.946,142.578,225.036,-446.839,0,0,0,
,-0.2,0.301,0.933,61.584,153.32,-411.072,0,0,0,
,-0.226,0.309,0.945,-16.968,108.886,-397.278,0,0,0,
,-0.238,0.319,0.972,-58.472,100.952,-380.066,0,0,0,
,-0.18,0.347,0.963,-3.418,73.974,-385.926,0,0,0,
,-0.198,0.333,0.953,26.611,5.859,-384.4,0,0,0,
,-0.226,0.306,0.956,21.911,-35.706,-388.428,0,0,0,
,-0.256,0.292,0.975,-34.424,-45.777,-360.962,0,0,0,
,-0.264,0.305,0.995,-96.802,-32.959,-345.704,0,0,0,
,-0.226,0.372,0.965,-207.52,-37.11,-270.691,0,0,0,
,-0.245,0.418,0.969,-126.77,-38.086,-235.84,0,0,0,
,-0.255,0.425,0.987,27.099,-10.56,-205.567,0,0,0,
,-0.243,0.379,0.992,190.918,13.855,-184.327,0,0,0,
,-0.218,0.319,0.994,291.32,27.099,-173.951,0,0,0,
,-0.204,0.247,1.005,305.786,15.136,-163.086,0,0,0,
,-0.196,0.252,1.022,298.401,4.455,-143.494,0,0,0,
,-0.199,0.196,1.027,235.046,-21.668,-128.54,0,0,0,
,-0.195,0.14,1.071,52.795,-76.6,-126.038,0,0,0,
,-0.198,0.154,1.052,-104.31,-74.28,-109.742,0,0,0,
,-0.187,0.235,0.98,-167.542,-52.063,-96.375,0,0,0,
,-0.171,0.31,0.975,-125.733,-62.867,-75.013,0,0,0,
,-0.169,0.339,0.968,1.892,-45.716,-77.881,0,0,0,
,-0.163,0.264,0.959,83.374,-34.913,-86.548,0,0,0,
,-0.15,0.241,0.949,85.815,-26.551,-83.191,0,0,0,
,-0.139,0.254,0.936,80.444,-21.485,-70.435,0,0,0,
,-0.136,0.243,0.932,70.678,-23.499,-58.96,0,0,0,
,-0.135,0.226,0.931,38.696,-23.133,-54.932,0,0,0,
,-0.136,0.232,0.943,26.306,-21.18,-47.791,0,0,0,
,-0.138,0.223,0.953,6.591,-19.165,-46.753,0,0,0,
,-0.143,0.202,0.967,-27.527,-19.471,-46.998,0,0,0,
,-0.154,0.205,0.976,-58.228,-22.339,-46.509,0,0,0,
,-0.163,0.21,0.979,-85.572,-24.964,-52.857,0,0,0,
,-0.182,0.227,0.974,-156.922,-50.232,-61.524,0,0,0,
,-0.189,0.256,0.952,-151.673,-31.983,-62.928,0,0,0,
,-0.187,0.28,0.925,-123.352,-47.12,-70.191,0,0,0,
,-0.192,0.287,0.906,-105.042,-49.683,-61.829,0,0,0,
,-0.189,0.303,0.901,-88.685,-43.213,-57.373,0,0,0,
,-0.185,0.304,0.897,-66.285,-34.119,-58.106,0,0,0,
,-0.186,0.334,0.914,-44.861,-21.119,-45.716,0,0,0,
,-0.181,0.329,0.921,-12.818,-20.203,-44.373,0,0,0,
,-0.178,0.313,0.925,0.793,-16.968,-45.594,0,0,0,
,-0.184,0.309,0.925,3.784,-14.527,-42.481,0,0,0,
,-0.179,0.305,0.932,8.056,-10.193,-42.42,0,0,0,
,-0.178,0.302,0.938,21.911,-9.4,-40.345,0,0,0,
,-0.194,0.245,0.973,-157.776,-73.06,-94.422,0,0,0,
,-0.207,0.398,0.971,-86.304,-22.4,-74.341,0,0,0,
,-0.167,0.328,0.964,-23.255,-5.494,-37.11,0,0,0,
,-0.192,0.319,0.936,5.004,-17.395,-48.768,0,0,0,
,-0.197,0.275,0.915,-8.606,-20.081,-65.857,0,0,0,
,-0.199,0.31,0.899,-11.109,-0.306,-52.979,0,0,0,
,-0.19,0.324,0.914,0.61,3.967,-58.777,0,0,0,
,-0.182,0.321,0.932,6.225,-1.038,-54.261,0,0,0,
,-0.189,0.32,0.94,21.911,-6.226,-65.125,0,0,0,
,-0.23,0.314,0.887,-124.512,-69.031,-92.774,0,0,0,
,-0.25,0.323,0.912,18.005,29.602,-78.125,0,0,0,
,-0.189,0.35,0.929,41.442,34.729,-6.165,0,0,0,
,-0.19,0.315,0.935,55.053,31.189,-53.162,0,0,0,
,-0.2,0.373,0.901,-14.344,10.864,-35.279,0,0,0,
,-0.197,0.359,0.939,130.981,57.434,-39.917,0,0,0,
,-0.193,0.364,0.926,11.535,53.588,15.38,0,0,0,
,-0.174,0.317,0.906,61.523,23.62,-60.608,0,0,0,
,-0.177,0.321,0.934,58.532,45.837,24.108,0,0,0,
,-0.184,0.334,0.93,80.627,38.086,-11.658,0,0,0,
,-0.173,0.304,0.931,79.895,41.748,-9.766,0,0,0,
,-0.18,0.338,0.935,70.983,34.057,0.488,0,0,0,
,-0.169,0.3,0.943,79.162,26.245,-21.607,0,0,0,
,-0.177,0.259,0.942,68.115,21.179,-12.024,0,0,0,
,-0.188,0.284,0.926,13.794,18.554,0.061,0,0,0,
,-0.185,0.315,0.936,74.035,33.813,-3.663,0,0,0,
,-0.181,0.279,0.932,74.646,32.836,4.882,0,0,0,
,-0.185,0.269,0.908,-3.846,12.023,-16.785,0,0,0,
,-0.201,0.286,0.899,-57.068,2.38,-18.128,0,0,0,
,-0.18,0.378,0.937,1.464,31.555,22.888,0,0,0,
,-0.182,0.318,0.938,-70.069,23.681,30.151,0,0,0,
,-0.19,0.379,0.915,-47.486,37.841,36.499,0,0,0,
,-0.192,0.384,0.959,16.845,37.475,28.564,0,0,0,
,-0.208,0.374,0.94,49.011,55.358,78.308,0,0,0,
,-0.202,0.34,0.938,97.534,63.72,85.144,0,0,0,
,-0.201,0.316,0.913,96.13,76.782,116.943,0,0,0,
,-0.226,0.338,0.938,66.162,68.481,124.572,0,0,0,
,-0.227,0.295,0.952,-32.349,74.462,99.06,0,0,0,
,-0.211,0.312,0.955,-113.343,82.275,121.46,0,0,0,
,-0.213,0.34,0.961,-150.513,80.688,142.761,0,0,0,
,-0.219,0.367,0.966,-139.649,79.223,167.419,0,0,0,
,-0.208,0.366,0.979,-145.935,63.842,182.373,0,0,0,
,-0.204,0.367,0.992,-147.156,38.147,207.763,0,0,0,
,-0.219,0.374,1.006,-142.945,-12.452,241.882,0,0,0,
,-0.23,0.373,1.015,-161.377,-15.32,262.39,0,0,0,
,-0.237,0.363,0.999,-174.5,-21.851,281.25,0,0,0,
,-0.237,0.366,0.993,-181.214,-39.246,298.706,0,0,0,
,-0.246,0.355,0.993,-179.017,-46.021,313.659,0,0,0,
,-0.243,0.369,0.987,-166.321,-48.035,329.04,0,0,0,
,-0.231,0.377,0.989,-137.757,-57.618,336.609,0,0,0,
,-0.23,0.372,0.992,-95.643,-66.834,343.75,0,0,0,
,-0.233,0.372,0.983,-41.504,-78.003,350.402,0,0,0,
,-0.237,0.356,0.985,-6.165,-96.741,349.853,0,0,0,
,-0.238,0.327,0.981,3.112,-118.592,345.581,0,0,0,
,-0.243,0.328,0.97,3.784,-137.391,344.238,0,0,0,
,-0.258,0.316,0.959,-4.456,-162.964,335.327,0,0,0,
,-0.271,0.3,0.953,-30.518,-181.336,333.435,0,0,0,
,-0.28,0.312,0.943,-71.9,-192.566,332.092,0,0,0,
,-0.285,0.321,0.933,-110.962,-200.379,325.134,0,0,0,
,-0.29,0.331,0.929,-136.292,-207.398,343.567,0,0,0,
,-0.297,0.349,0.916,-119.324,-214.844,333.068,0,0,0,
,-0.304,0.355,0.891,-71.473,-226.258,339.782,0,0,0,
,-0.309,0.354,0.861,-22.461,-237.366,344.543,0,0,0,
,-0.298,0.321,0.779,26.55,-269.898,355.346,0,0,0,
,-0.292,0.268,0.668,71.289,-334.9,388.244,0,0,0,
,-0.286,0.268,0.649,106.689,-431.824,449.463,0,0,0,
,-0.3,0.341,0.726,71.777,-523.255,466.797,0,0,0,
,-0.348,0.342,0.794,-4.578,-564.698,435.485,0,0,0,
,-0.383,0.291,0.779,-50.904,-550.965,371.215,0,0,0,
,-0.399,0.248,0.749,-74.097,-494.202,322.754,0,0,0,
,-0.405,0.223,0.685,-94.788,-407.898,264.892,0,0,0,
,-0.41,0.229,0.638,-57.251,-327.82,225.891,0,0,0,
,-0.42,0.232,0.599,33.569,-220.887,177.917,0,0,0,
,-0.416,0.183,0.577,145.813,-117.127,143.554,0,0,0,
,-0.42,0.137,0.576,201.66,-6.47,118.164,0,0,0,
,-0.436,0.114,0.592,220.886,110.107,91.125,0,0,0,
,-0.448,0.101,0.597,275.756,231.689,73.486,0,0,0,
,-0.455,0.101,0.615,344.787,320.739,62.194,0,0,0,
,-0.475,0.108,0.68,362.671,424.865,40.161,0,0,0,
,-0.502,0.081,0.762,337.036,550.354,1.159,0,0,0,
,-0.511,0.042,0.829,289.245,669.616,-38.147,0,0,0,
,-0.496,0.042,0.896,304.992,755.981,-58.533,0,0,0,
,-0.479,0.11,0.983,428.161,801.757,-45.411,0,0,0,
,-0.462,0.167,1.04,592.163,793.457,7.751,0,0,0,
,-0.455,0.209,1.129,624.939,751.464,50.72,0,0,0,
,-0.441,0.207,1.209,568.359,665.222,0.122,0,0,0,
,-0.405,0.132,1.177,534.851,524.841,-9.583,0,0,0,
,-0.358,0.046,1.056,451.172,345.52,20.019,0,0,0,
,-0.313,0.026,1.017,335.144,103.698,35.888,0,0,0,
,-0.32,-0.063,1.175,5.92,-179.688,-4.151,0,0,0,
,-0.382,-0.024,1.175,-164.856,-324.402,-28.931,0,0,0,
,-0.417,0.075,1.096,-98.816,-387.024,-57.984,0,0,0,
,-0.389,0.026,0.964,-53.528,-430.298,-113.892,0,0,0,
,-0.376,0.026,0.852,-38.697,-411.072,-129.7,0,0,0,
,-0.372,-0.029,0.76,-26.307,-364.624,-120.911,0,0,0,
,-0.389,-0.039,0.762,-75.074,-271.18,-83.985,0,0,0,
,-0.423,-0.011,0.812,-139.466,-114.869,-63.904,0,0,0,
,-0.428,-0.014,0.887,-80.384,104.736,-27.466,0,0,0,
,-0.479,0.06,1.021,87.463,336.975,11.718,0,0,0,
,-0.47,0.105,1.059,308.838,567.382,-27.466,0,0,0,
,-0.492,0.059,1.102,422.546,809.692,-61.707,0,0,0,
,-0.412,-0.13,0.854,307.251,916.015,-56.397,0,0,0,
,-0.274,-0.147,0.664,-5.555,554.382,6.164,0,0,0,
,0.029,-0.451,1.133,-1051.514,-252.991,-278.992,0,0,0,
,-0.311,0.639,1.26,-467.53,-274.903,255.859,0,0,0,
,-0.464,0.686,0.943,283.447,-209.473,135.742,0,0,0,
,-0.335,0.134,0.828,692.016,-234.314,-76.05,0,0,0,
,-0.216,-0.207,0.891,328.186,-338.807,-39.856,0,0,0,
,-0.362,-0.215,0.959,-119.996,-378.54,-24.353,0,0,0,
,-0.411,-0.023,0.938,-256.958,-301.575,-27.955,0,0,0,
,-0.404,0.044,0.963,-173.279,-154.541,-67.933,0,0,0,
,-0.45,0.019,0.979,30.517,41.32,-46.082,0,0,0,
,-0.481,0.076,1.022,205.139,275.024,-69.214,0,0,0,
,-0.492,0.029,0.97,253.479,508.911,-127.686,0,0,0,
,-0.461,-0.031,0.886,225.158,686.889,-128.235,0,0,0,
,-0.35,-0.009,0.533,170.105,537.963,-118.958,0,0,0,
,-0.056,-0.372,1.333,-585.083,-207.642,-258.606,0,0,0,
,-0.455,0.171,1.295,-666.687,-103.15,199.157,0,0,0,
,-0.514,0.471,1.101,-170.899,-98.877,-27.588,0,0,0,
,-0.404,0.218,0.913,154.602,-48.89,23.498,0,0,0,
,-0.375,0.059,0.944,167.968,-118.226,26.245,0,0,0,
,-0.429,-0.073,1.042,-78.675,-198.914,67.81,0,0,0,
,-0.459,0.043,1.056,-330.689,-211.67,106.323,0,0,0,
,-0.454,0.114,1.032,-398.316,-203.125,108.276,0,0,0,
,-0.446,0.164,0.969,-335.083,-186.219,147.827,0,0,0,
,-0.439,0.196,0.911,-234.559,-172.364,157.47,0,0,0,
,-0.431,0.194,0.871,-115.357,-148.682,181.579,0,0,0,
,-0.418,0.183,0.851,-18.982,-126.465,200.378,0,0,0,
,-0.412,0.145,0.828,8.483,-108.948,216.308,0,0,0,
,-0.421,0.119,0.821,-18.677,-88.013,236.816,0,0,0,
,-0.426,0.12,0.817,-62.5,-57.801,245.605,0,0,0,
,-0.421,0.117,0.814,-102.539,-21.424,249.206,0,0,0,
,-0.405,0.125,0.816,-99.488,1.037,251.77,0,0,0,
,-0.401,0.139,0.837,-70.252,20.629,256.042,0,0,0,
,-0.399,0.148,0.828,-34.363,44.433,245.178,0,0,0,
,-0.387,0.141,0.829,6.53,61.706,236.023,0,0,0,
,-0.375,0.134,0.857,48.706,71.35,230.041,0,0,0,
,-0.364,0.13,0.885,69.885,87.158,216.003,0,0,0,
,-0.342,0.103,0.882,68.725,96.801,200.134,0,0,0,
,-0.34,0.076,0.87,67.26,103.149,201.782,0,0,0,
,-0.34,0.072,0.887,53.833,103.881,203.552,0,0,0,
,-0.337,0.057,0.897,46.508,109.924,187.439,0,0,0,
,-0.322,0.04,0.888,54.321,106.262,177.734,0,0,0,
,-0.313,0.021,0.895,45.837,91.064,164.428,0,0,0,
,-0.31,0.02,0.909,9.765,79.895,140.991,0,0,0,
,-0.312,0.013,0.912,1.648,68.176,119.018,0,0,0,
,-0.318,0.025,0.919,5.249,62.439,97.534,0,0,0,
,-0.325,0.015,0.92,15.38,57.861,72.815,0,0,0,
,-0.323,0.009,0.924,22.583,58.593,50.964,0,0,0,
,-0.312,0.016,0.92,18.005,51.757,31.738,0,0,0,
,-0.312,0.021,0.925,21.24,42.907,15.441,0,0,0,
,-0.318,0.013,0.919,20.752,37.902,3.479,0,0,0,
,-0.318,0.014,0.917,-5.127,38.33,-4.273,0,0,0,
,-0.325,0.028,0.92,-36.194,38.33,-8.179,0,0,0,
,-0.332,0.028,0.917,-39.978,42.175,-7.447,0,0,0,
,-0.338,0.032,0.921,-25.33,51.452,-8.118,0,0,0,
,-0.345,0.029,0.927,-2.259,54.077,-3.663,0,0,0,
,-0.351,0.025,0.939,10.986,53.649,-5.86,0,0,0,
,-0.356,0.012,0.943,14.709,54.138,-8.118,0,0,0,
,-0.361,0.009,0.94,7.385,57.251,-13.733,0,0,0,
,-0.368,0.015,0.941,-8.545,63.232,-18.921,0,0,0,
,-0.361,0.025,0.941,-20.325,72.509,-18.311,0,0,0,
,-0.348,0.044,0.942,-22.4,75.744,-18.067,0,0,0,
,-0.345,0.049,0.949,15.075,75.927,-16.297,0,0,0,
,-0.35,0.042,0.962,46.142,72.937,-7.691,0,0,0,
,-0.35,0.036,0.963,38.696,69.824,-7.386,0,0,0,
,-0.349,0.046,0.962,12.023,67.382,-2.686,0,0,0,
,-0.346,0.05,0.951,-18.982,66.345,2.441,0,0,0,
,-0.348,0.063,0.948,-54.932,64.331,9.582,0,0,0,
,-0.343,0.104,0.958,-46.509,68.298,15.502,0,0,0,
,-0.329,0.093,0.935,91.857,93.811,-32.654,0,0,0,
,-0.308,0.007,0.938,165.527,91.064,-33.631,0,0,0,
,-0.307,0.01,0.955,97.9,84.838,-21.058,0,0,0,
,-0.318,0.076,0.956,70.129,83.984,-3.602,0,0,0,
,-0.324,0.105,0.955,136.84,97.229,7.446,0,0,0,
,-0.32,0.068,0.955,207.031,111.999,15.808,0,0,0,
,-0.303,-0.021,1.004,84.289,79.895,23.376,0,0,0,
,-0.307,-0.041,1.001,68.908,62.5,17.273,0,0,0,
,-0.3,-0.054,1.002,36.987,43.212,1.403,0,0,0,
,-0.295,-0.046,0.996,-5.31,22.461,-7.813,0,0,0,
,-0.32,-0.019,0.972,-35.889,11.901,-8.728,0,0,0,
,-0.323,0.016,0.947,-50.599,24.414,-7.081,0,0,0,
,-0.32,0.014,0.958,-65.674,18.31,-2.259,0,0,0,
,-0.315,0.02,0.967,-60.12,21.545,1.464,0,0,0,
,-0.309,0.023,0.978,-30.884,25.329,-4.151,0,0,0,
,-0.304,-0.013,0.989,-15.137,23.254,-3.968,0,0,0,
,-0.3,-0.006,0.986,-15.32,24.902,-6.104,0,0,0,
,-0.3,-0.002,0.984,-16.663,26.184,0.244,0,0,0,
,-0.297,-0.006,0.978,-34.485,28.808,3.967,0,0,0,
,-0.287,0.017,0.979,-57.312,28.137,6.408,0,0,0,
,-0.292,0.026,0.977,-55.481,24.536,7.873,0,0,0,
,-0.296,0.025,0.991,-40.65,26.611,7.202,0,0,0,
,-0.295,0.017,0.996,-33.265,26.062,6.897,0,0,0,
,-0.294,0.019,0.997,-26.551,27.465,10.803,0,0,0,
,-0.287,0.008,1.006,-19.043,24.719,4.699,0,0,0,
,-0.277,-0.001,1.01,-17.884,22.522,4.943,0,0,0,
,-0.279,-0.003,1.008,-17.029,16.052,-4.639,0,0,0,
,-0.284,-0.007,1.002,-32.593,-0.367,-15.32,0,0,0,
,-0.288,-0.001,1.003,-52.308,-17.334,-21.546,0,0,0,
,-0.295,0.02,1.01,-84.412,-31.067,-14.283,0,0,0,
,-0.306,0.048,1.021,-115.357,-41.871,-17.029,0,0,0,
,-0.307,0.088,1.02,-97.901,-49.5,-9.217,0,0,0,
,-0.314,0.123,1.017,-15.015,-58.716,-3.174,0,0,0,
,-0.32,0.115,1.008,113.281,-75.44,2.807,0,0,0,
,-0.327,0.065,1.006,183.41,-90.821,15.625,0,0,0,
,-0.336,0.033,1.001,159.668,-105.835,20.324,0,0,0,
,-0.334,0.034,0.998,131.897,-114.747,28.747,0,0,0,
,-0.339,0.059,0.982,138.244,-113.892,34.423,0,0,0,
,-0.339,0.045,0.972,176.086,-123.169,36.193,0,0,0,
,-0.343,0.023,0.964,200.5,-127.381,36.987,0,0,0,
,-0.346,0.019,0.972,246.399,-144.532,38.208,0,0,0,
,-0.357,0.004,0.977,303.527,-161.988,37.963,0,0,0,
,-0.378,-0.081,0.943,282.714,-192.933,30.639,0,0,0,
,-0.396,-0.093,0.913,247.802,-200.745,38.024,0,0,0,
,-0.4,-0.085,0.92,239.074,-193.116,24.292,0,0,0,
,-0.403,-0.095,0.913,236.145,-190.064,28.198,0,0,0,
,-0.402,-0.085,0.911,243.652,-186.524,37.109,0,0,0,
,-0.413,-0.092,0.903,264.101,4922.598,2360.114,0,0,0,
,-0.442,-0.115,0.875,268.432,-150.391,54.931,0,0,0,
,-0.437,-0.128,0.868,272.705,-132.019,55.419,0,0,0,
,-0.43,-0.136,0.867,297.546,-124.451,61.584,0,0,0,
,-0.437,-0.149,0.869,316.223,-125.184,72.021,0,0,0,
,-0.444,-0.175,0.876,314.758,-122.01,68.908,0,0,0,
,-0.445,-0.219,0.861,281.25,-119.935,68.115,0,0,0,
,-0.451,-0.232,0.862,306.762,-122.132,69.519,0,0,0,
,-0.452,-0.257,0.866,299.926,-120.972,61.767,0,0,0,
,-0.453,-0.277,0.864,279.541,-123.658,54.87,0,0,0,
,-0.454,-0.273,0.856,270.568,-140.564,52.49,0,0,0,
,-0.459,-0.269,0.845,285.461,-128.968,50.231,0,0,0,
,-0.473,-0.264,0.849,318.603,-128.724,49.865,0,0,0,
,-0.479,-0.292,0.849,341.247,-121.705,49.804,0,0,0,
,-0.476,-0.331,0.85,333.679,-113.221,46.814,0,0,0,
,-0.481,-0.318,0.826,330.932,-94.727,70.739,0,0,0,
,-0.473,-0.363,0.829,254.76,-107.972,46.386,0,0,0,
,-0.48,-0.366,0.804,297.18,-106.568,49.682,0,0,0,
,-0.485,-0.401,0.804,290.832,-106.873,44.311,0,0,0,
,-0.494,-0.427,0.803,244.323,-101.502,38.391,0,0,0,
,-0.496,-0.426,0.798,191.65,-98.389,34.851,0,0,0,
,-0.496,-0.426,0.796,168.213,-94.483,28.015,0,0,0,
,-0.499,-0.439,0.803,155.212,-99.183,24.841,0,0,0,
,-0.51,-0.437,0.787,139.221,-102.967,21.484,0,0,0,
,-0.511,-0.428,0.794,141.967,-103.821,15.747,0,0,0,
,-0.509,-0.443,0.792,149.963,-106.446,15.625,0,0,0,
,-0.511,-0.444,0.772,123.108,-107.483,4.943,0,0,0,
,-0.515,-0.43,0.76,120.849,-108.46,2.136,0,0,0,
,-0.515,-0.432,0.752,118.164,-111.084,0.122,0,0,0,
,-0.518,-0.433,0.74,113.037,-107.422,0.244,0,0,0,
,-0.515,-0.431,0.728,92.834,-105.591,-7.996,0,0,0,
,-0.511,-0.434,0.698,81.787,-95.398,-15.564,0,0,0,
,-0.509,-0.441,0.687,64.758,-86.792,-17.029,0,0,0,
,-0.512,-0.44,0.673,37.658,-76.844,-23.926,0,0,0,
,-0.504,-0.419,0.659,17.456,-66.956,-24.17,0,0,0,
,-0.508,-0.42,0.651,5.004,-52.979,-28.687,0,0,0,
,-0.501,-0.428,0.64,-16.175,-36.316,-33.753,0,0,0,
,-0.493,-0.414,0.625,-41.993,-18.189,-42.237,0,0,0,
,-0.488,-0.4,0.607,-63.904,4.211,-47.547,0,0,0,
,-0.481,-0.393,0.59,-101.624,31.005,-50.171,0,0,0,
,-0.477,-0.384,0.569,-133.912,62.988,-51.514,0,0,0,
,-0.465,-0.365,0.559,-160.279,99.609,-57.251,0,0,0,
,-0.454,-0.356,0.549,-180.42,138.061,-69.642,0,0,0,
,-0.435,-0.35,0.554,-207.947,173.767,-87.83,0,0,0,
,-0.43,-0.348,0.579,-233.643,212.524,-100.037,0,0,0,
,-0.44,-0.358,0.61,-268.555,248.779,-114.258,0,0,0,
,-0.454,-0.371,0.645,-312.989,278.93,-126.709,0,0,0,
,-0.464,-0.361,0.679,-355.225,307.434,-128.479,0,0,0,
,-0.48,-0.337,0.718,-383.484,326.538,-139.71,0,0,0,
,-0.492,-0.338,0.775,-392.395,340.942,-139.832,0,0,0,
,-0.531,-0.321,0.818,-404.602,352.295,-145.508,0,0,0,
,-0.508,-0.301,0.851,-400.696,364.502,-151.062,0,0,0,
,-0.507,-0.305,0.895,-375.611,369.14,-148.682,0,0,0,
,-0.502,-0.305,0.932,-363.526,368.713,-148.804,0,0,0,
,-0.497,-0.306,0.979,-355.103,352.539,-152.894,0,0,0,
,-0.482,-0.282,1.004,-334.412,332.58,-155.396,0,0,0,
,-0.467,-0.273,1.028,-314.454,308.41,-157.044,0,0,0,
,-0.455,-0.256,1.041,-295.655,282.776,-158.509,0,0,0,
,-0.451,-0.225,1.036,-272.461,260.803,-145.63,0,0,0,
