TIMECODE,ACC_X,ACC_Y,ACC_Z,GYR_X,GYR_Y,GYR_Z,TAG
00:00:00:0,-0.223,-0.7,0.75,-29.419,16.601,-43.213,
00:00:00:16,-0.224,-0.718,0.765,-29.114,20.996,-62.684,
00:00:00:33,-0.218,-0.711,0.732,-74.707,24.108,-55.237,
00:00:00:50,-0.212,-0.685,0.728,-86.426,27.404,-53.894,
00:00:00:66,-0.21,-0.679,0.737,-71.167,21.972,-53.101,
00:00:00:83,-0.219,-0.693,0.753,-40.284,14.16,-62.256,
00:00:00:100,-0.218,-0.716,0.784,-72.205,8.972,-60.12,
00:00:00:116,-0.229,-0.703,0.743,-112.977,18.737,-62.378,
00:00:00:133,-0.19,-0.667,0.712,-149.414,26.672,-51.026,
00:00:00:150,-0.207,-0.632,0.71,-123.841,25.817,-48.523,
00:00:00:166,-0.195,-0.631,0.719,-68.055,19.287,-51.331,
00:00:00:183,-0.194,-0.649,0.737,-21.851,13.855,-45.105,
00:00:00:200,-0.202,-0.662,0.744,-11.475,16.723,-38.636,
00:00:00:216,-0.206,-0.656,0.734,-18.982,20.629,-30.091,
00:00:00:233,-0.2,-0.641,0.72,-18.189,25.329,-25.696,
00:00:00:250,-0.195,-0.64,0.718,5.188,25.573,-22.034,
00:00:00:266,-0.208,-0.669,0.762,53.222,10.925,-24.903,
00:00:00:283,-0.239,-0.692,0.763,52.551,14.16,-22.583,
00:00:00:300,-0.231,-0.701,0.77,10.925,15.197,-23.743,
00:00:00:316,-0.222,-0.694,0.747,-15.442,17.517,-20.691,
00:00:00:333,-0.217,-0.671,0.736,-27.71,19.836,-14.344,
00:00:00:350,-0.21,-0.671,0.749,-2.503,9.399,-19.715,
00:00:00:366,-0.216,-0.68,0.745,6.836,9.216,-21.424,
00:00:00:383,-0.212,-0.681,0.748,-2.442,8.728,-20.691,
00:00:00:400,-0.205,-0.681,0.749,-15.503,10.192,-17.884,
00:00:00:416,-0.219,-0.68,0.751,-16.907,4.577,-17.273,
00:00:00:433,-0.211,-0.671,0.739,-8.118,9.399,-22.339,
00:00:00:450,-0.214,-0.676,0.752,-7.508,9.582,-23.255,
00:00:00:466,-0.221,-0.675,0.745,-9.156,15.075,-21.912,
00:00:00:483,-0.214,-0.674,0.741,-10.254,11.901,-22.767,
00:00:00:500,-0.213,-0.684,0.752,-2.137,7.934,-29.48,
00:00:00:516,-0.222,-0.682,0.742,-10.621,11.901,-25.94,
00:00:00:533,-0.217,-0.682,0.748,-19.41,11.84,-30.274,
00:00:00:550,-0.219,-0.675,0.739,-24.353,13.855,-28.687,
00:00:00:566,-0.214,-0.675,0.738,-17.945,13.366,-26.49,
00:00:00:583,-0.214,-0.676,0.741,-10.743,8.789,-26.123,
00:00:00:600,-0.21,-0.676,0.739,-6.653,13.183,-22.95,
00:00:00:616,-0.215,-0.687,0.758,-5.433,9.887,-28.016,
00:00:00:633,-0.227,-0.692,0.755,-19.165,14.16,-29.175,
00:00:00:650,-0.22,-0.68,0.739,-32.776,16.662,-26.856,
00:00:00:666,-0.21,-0.666,0.729,-28.138,17.273,-27.039,
00:00:00:683,-0.211,-0.673,0.744,-10.865,13.671,-30.823,
00:00:00:700,-0.218,-0.675,0.743,-5.005,13.916,-28.626,
00:00:00:716,-0.216,-0.676,0.748,-10.498,14.709,-29.664,
00:00:00:733,-0.223,-0.683,0.739,-18.128,16.601,-29.053,
00:00:00:750,-0.211,-0.679,0.738,-13.977,15.441,-32.532,
00:00:00:766,-0.211,-0.679,0.736,-9.949,18.432,-28.687,
00:00:00:783,-0.215,-0.672,0.74,-14.1,19.775,-26.551,
00:00:00:800,-0.214,-0.678,0.744,-9.4,17.15,-28.077,
00:00:00:816,-0.223,-0.678,0.748,-7.569,16.662,-27.649,
00:00:00:833,-0.219,-0.678,0.741,-3.296,13.488,-29.725,
00:00:00:850,-0.214,-0.68,0.746,-12.024,18.493,-32.959,
00:00:00:866,-0.213,-0.681,0.74,-16.907,18.554,-29.602,
00:00:00:883,-0.219,-0.677,0.741,-14.832,18.859,-31.25,
00:00:00:900,-0.217,-0.681,0.74,-6.409,13.732,-31.495,
00:00:00:916,-0.22,-0.683,0.74,-3.907,15.441,-30.64,
00:00:00:933,-0.221,-0.691,0.743,-7.752,15.869,-30.823,
00:00:00:950,-0.218,-0.683,0.741,-14.588,15.808,-29.053,
00:00:00:966,-0.217,-0.679,0.744,-20.203,13.366,-30.457,
00:00:00:983,-0.212,-0.679,0.741,-15.931,15.014,-30.823,
00:00:01:0,-0.213,-0.683,0.745,-12.391,12.207,-28.748,
00:00:01:16,-0.218,-0.687,0.742,-6.592,15.136,-31.983,
00:00:01:33,-0.22,-0.679,0.735,-19.165,16.723,-28.443,
00:00:01:50,-0.214,-0.678,0.743,-17.151,18.249,-30.884,
00:00:01:66,-0.22,-0.677,0.74,-11.78,13.488,-26.123,
00:00:01:83,-0.219,-0.683,0.747,-10.315,9.704,-30.213,
00:00:01:100,-0.222,-0.687,0.736,-17.395,11.047,-27.1,
00:00:01:116,-0.21,-0.679,0.736,-22.461,12.085,-25.696,
00:00:01:133,-0.213,-0.679,0.734,-15.381,12.695,-25.879,
00:00:01:150,-0.216,-0.678,0.737,-15.076,18.066,-24.231,
00:00:01:166,-0.216,-0.677,0.746,-8.362,14.099,-25.696,
00:00:01:183,-0.222,-0.689,0.749,-11.902,16.113,-29.541,
00:00:01:200,-0.222,-0.657,0.747,-25.269,14.892,-26.429,
00:00:01:216,-0.22,-0.676,0.736,-27.344,17.456,-28.992,
00:00:01:233,-0.217,-0.673,0.737,-19.776,17.456,-31.678,
00:00:01:250,-0.215,-0.675,0.737,-9.034,15.747,-31.189,
00:00:01:266,-0.216,-0.678,0.743,-4.029,16.296,-32.105,
00:00:01:283,-0.214,-0.687,0.743,-2.625,17.089,-32.471,
00:00:01:300,-0.217,-0.688,0.742,-12.635,17.334,-29.358,
00:00:01:316,-0.218,-0.684,0.737,-20.813,19.043,-32.288,
00:00:01:333,-0.219,-0.679,0.736,-15.931,18.371,-30.518,
00:00:01:350,-0.217,-0.683,0.737,-9.888,17.15,-30.579,
00:00:01:366,-0.218,-0.687,0.741,-12.391,17.456,-29.786,
00:00:01:383,-0.215,-0.681,0.737,-15.931,19.287,-27.1,
00:00:01:400,-0.211,-0.677,0.738,-20.569,15.625,-23.133,
00:00:01:416,-0.213,-0.678,0.743,-10.132,17.028,-23.438,
00:00:01:433,-0.217,-0.679,0.74,-7.019,14.465,-22.828,
00:00:01:450,-0.218,-0.684,0.742,-7.508,16.296,-27.527,
00:00:01:466,-0.223,-0.685,0.737,-14.466,18.981,-25.025,
00:00:01:483,-0.218,-0.68,0.741,-18.25,15.991,-23.011,
00:00:01:500,-0.223,-0.685,0.75,-3.846,11.657,-26.307,
00:00:01:516,-0.225,-0.687,0.734,-9.705,15.014,-28.931,
00:00:01:533,-0.209,-0.684,0.738,-14.1,13.427,-27.405,
00:00:01:550,-0.209,-0.68,0.739,-10.437,14.77,-28.199,
00:00:01:566,-0.217,-0.686,0.749,-14.039,14.587,-30.152,
00:00:01:583,-0.223,-0.687,0.744,-18.677,12.329,-29.725,
00:00:01:600,-0.218,-0.679,0.738,-26.856,15.319,-28.138,
00:00:01:616,-0.219,-0.683,0.742,-16.053,11.901,-32.41,
00:00:01:633,-0.219,-0.679,0.733,-15.748,30.883,-30.091,
00:00:01:650,-0.217,-0.679,0.74,-12.146,13.427,-32.349,
00:00:01:666,-0.217,-0.683,0.735,-8.545,16.113,-32.959,
00:00:01:683,-0.216,-0.69,0.745,-13.428,19.104,-33.448,
00:00:01:700,-0.217,-0.686,0.737,-20.813,19.775,-34.974,
00:00:01:716,-0.216,-0.679,0.736,-23.072,23.925,-31.922,
00:00:01:733,-0.215,-0.677,0.737,-11.17,20.935,-32.471,
00:00:01:750,-0.213,-0.682,0.743,-10.865,20.568,-32.532,
00:00:01:766,-0.221,-0.686,0.743,-6.165,24.231,-32.471,
00:00:01:783,-0.219,-0.689,0.739,-15.442,20.263,-32.288,
00:00:01:800,-0.218,-0.688,0.741,-18.738,21.85,-31.617,
00:00:01:816,-0.219,-0.683,0.736,-24.353,21.362,-32.837,
00:00:01:833,-0.214,-0.679,0.737,-19.654,23.01,-31.006,
00:00:01:850,-0.214,-0.68,0.742,-10.56,22.216,-32.044,
00:00:01:866,-0.22,-0.682,0.736,-10.865,22.399,-29.969,
00:00:01:883,-0.217,-0.686,0.738,-11.17,25.451,-31.373,
00:00:01:900,-0.219,-0.687,0.739,-14.466,22.277,-30.274,
00:00:01:916,-0.218,-0.685,0.737,-18.372,28.076,-28.931,
00:00:01:933,-0.216,-0.679,0.733,-20.691,26.916,-27.894,
00:00:01:950,-0.212,-0.681,0.745,-17.518,29.174,-31.373,
00:00:01:966,-0.214,-0.682,0.742,-17.334,30.151,-30.64,
00:00:01:983,-0.214,-0.683,0.744,-19.959,24.902,-32.41,
00:00:02:0,-0.212,-0.68,0.736,-20.264,30.456,-34.852,
00:00:02:16,-0.213,-0.68,0.735,-22.278,26.306,-33.265,
00:00:02:33,-0.214,-0.682,0.741,-11.597,23.498,-32.837,
00:00:02:50,-0.219,-0.686,0.743,-7.752,18.737,-29.725,
00:00:02:66,-0.215,-0.698,0.741,-13.977,18.188,-29.541,
00:00:02:83,-0.217,-0.691,0.737,-26.49,18.371,-26.795,
00:00:02:100,-0.21,-0.68,0.736,-27.771,18.432,-25.025,
00:00:02:116,-0.207,-0.675,0.737,-19.349,15.319,-26.49,
00:00:02:133,-0.216,-0.678,0.743,-10.987,16.723,-24.537,
00:00:02:150,-0.215,-0.686,0.744,-8.973,15.075,-26.062,
00:00:02:166,-0.216,-0.683,0.741,-17.151,18.005,-21.912,
00:00:02:183,-0.214,-0.682,0.745,-16.602,16.357,-25.574,
00:00:02:200,-0.215,-0.682,0.743,-22.034,18.127,-23.987,
00:00:02:216,-0.213,-0.679,0.74,-20.874,16.967,-25.94,
00:00:02:233,-0.215,-0.682,0.742,-17.09,18.188,-26.551,
00:00:02:250,-0.214,-0.688,0.745,-15.809,18.676,-29.725,
00:00:02:266,-0.213,-0.683,0.741,-22.339,19.348,-28.321,
00:00:02:283,-0.212,-0.679,0.738,-26.246,20.752,-26.734,
00:00:02:300,-0.215,-0.677,0.738,-20.997,18.981,-25.635,
00:00:02:316,-0.215,-0.68,0.746,-15.442,21.301,-26.062,
00:00:02:333,-0.213,-0.686,0.747,-14.222,16.357,-27.405,
00:00:02:350,-0.214,-0.682,0.747,-23.621,21.423,-27.1,
00:00:02:366,-0.212,-0.682,0.745,-24.109,22.399,-31.25,
00:00:02:383,-0.214,-0.68,0.736,-18.921,19.287,-31.311,
00:00:02:400,-0.21,-0.677,0.741,-23.987,21.667,-29.297,
00:00:02:416,-0.211,-0.675,0.743,-17.823,20.629,-30.335,
00:00:02:433,-0.211,-0.68,0.744,-14.344,19.531,-30.152,
00:00:02:450,-0.216,-0.688,0.744,-14.954,22.949,-32.959,
00:00:02:466,-0.222,-0.685,0.746,-20.874,22.766,-29.175,
00:00:02:483,-0.21,-0.681,0.744,-26.978,24.231,-33.265,
00:00:02:500,-0.207,-0.676,0.743,-23.377,21.24,-32.41,
00:00:02:516,-0.209,-0.676,0.74,-23.682,22.705,-32.776,
00:00:02:533,-0.207,-0.673,0.741,-17.701,22.277,-32.349,
00:00:02:550,-0.211,-0.682,0.748,-12.024,20.263,-36.011,
00:00:02:566,-0.214,-0.686,0.747,-19.471,19.47,-31.067,
00:00:02:583,-0.21,-0.676,0.74,-17.212,19.775,-31.006,
00:00:02:600,-0.206,-0.67,0.739,-10.682,20.752,-28.321,
00:00:02:616,-0.215,-0.671,0.744,0.427,25.085,-21.973,
00:00:02:633,-0.237,-0.683,0.747,16.54,46.386,-26.123,
00:00:02:650,-0.198,-0.678,0.752,-38.392,57.495,-29.358,
00:00:02:666,-0.209,-0.674,0.748,-37.598,58.41,-36.56,
00:00:02:683,-0.207,-0.676,0.743,-31.006,59.875,-35.645,
00:00:02:700,-0.222,-0.68,0.747,-28.26,70.983,-48.035,
00:00:02:716,-0.212,-0.674,0.76,-42.786,82.397,-53.65,
00:00:02:733,-0.209,-0.678,0.76,-37.72,92.468,-56.458,
00:00:02:750,-0.23,-0.69,0.765,-30.823,109.13,-61.768,
00:00:02:766,-0.247,-0.694,0.767,-26.429,128.54,-65.735,
00:00:02:783,-0.289,-0.696,0.695,-21.119,175.537,-72.51,
00:00:02:800,-0.317,-0.728,0.839,0.732,208.923,-96.558,
00:00:02:816,-0.306,-0.717,0.9,53.405,273.437,-137.146,
00:00:02:833,-0.353,-0.688,1.057,66.101,375,-202.942,
00:00:02:850,-0.627,-0.846,2.004,345.092,315.979,-356.934,
00:00:02:866,-0.415,-1.274,1.99,366.088,-1.465,-326.294,
00:00:02:883,-0.273,-1.838,2.033,137.573,-316.346,-900.513,
00:00:02:900,-0.109,-2.552,2.318,-183.106,-711.243,-1243.47,
00:00:02:916,0.051,-2.459,2.317,-980.347,-1048.157,-1515.564,
00:00:02:933,0.064,-2.066,1.445,-1319.092,-2000,-2000,
00:00:02:950,0.187,-1.766,1.06,-1428.345,-2000,-2000,
00:00:02:966,0.277,-1.624,0.86,-1580.567,-2000,-2000,
00:00:02:983,0.496,-1.424,0.606,-1796.692,-2000,-2000,
00:00:03:0,0.76,-1.153,0.284,-1998.23,-2000,-2000,
00:00:03:16,1.152,-0.219,-0.633,-2000,-2000,-2000,
00:00:03:33,1.224,-0.011,-0.882,-2000,-2000,-2000,
00:00:03:50,1.137,0.033,-1.046,-1667.725,-1998.841,-2000,
00:00:03:66,0.9,-0.002,-1.123,-1166.626,-1814.637,-1870.911,
00:00:03:83,0.699,-0.01,-1.334,-1019.776,-1118.897,-1671.509,
00:00:03:100,0.756,0.195,-1.539,-1100.403,-411.56,-1499.085,
00:00:03:116,0.842,0.493,-1.678,-1058.106,292.175,-1201.905,
00:00:03:133,0.815,0.762,-1.644,-679.2,830.078,-745.301,
00:00:03:150,0.74,0.782,-1.427,-5.86,1247.07,-308.716,
00:00:03:166,0.721,0.551,-1.208,659.423,1716.125,83.801,
00:00:03:183,0.708,0.285,-1.078,1217.651,1988.83,411.01,
00:00:03:200,0.623,0.251,-0.941,1780.7,1999.694,711.181,
00:00:03:216,0.502,0.285,-0.867,1999.694,1999.694,1016.296,
00:00:03:233,0.479,0.343,-0.871,1999.694,1999.694,1334.655,
00:00:03:250,0.518,0.353,-0.819,1999.694,1999.694,1823.608,
00:00:03:266,0.616,0.087,-0.782,1999.694,1999.694,1999.694,
00:00:03:283,0.647,-0.121,-0.813,1999.694,1981.384,1999.694,
00:00:03:300,0.766,-0.337,-0.651,1999.694,1587.829,1999.694,
00:00:03:316,0.801,-1.223,0.247,1999.694,1466.858,1999.694,
00:00:03:333,0.329,-2.121,0.92,1999.694,1664.672,1999.694,
00:00:03:350,-0.113,-1.484,0.952,1999.694,1886.169,1999.694,
00:00:03:366,0.537,-1.802,0.892,1969.36,1652.282,1999.694,
00:00:03:383,0.957,-3.796,1.603,621.582,1270.935,1999.694,
00:00:03:400,0.306,-3.459,2.192,-1842.164,1256.164,1929.077,
00:00:03:416,0.132,-1.956,2.393,-1695.923,1162.536,1177.307,
00:00:03:433,0.237,-1.638,2.114,715.515,707.092,395.141,
00:00:03:450,-0.005,-1.608,1.658,1953.43,373.169,168.457,
00:00:03:466,-0.285,-1.328,1.393,1693.054,218.994,171.447,
00:00:03:483,-0.454,-1.151,1.073,662.719,221.252,140.747,
00:00:03:500,-0.301,-1.048,0.798,-296.631,300.171,51.086,
00:00:03:516,-0.03,-0.626,0.765,-649.964,387.512,84.899,
00:00:03:533,0.179,-0.581,1.015,-396.485,275.146,74.279,
00:00:03:550,0.265,-1.328,1.772,-669.861,14.404,-57.068,
00:00:03:566,-0.108,-0.699,1.291,-362.549,103.454,-238.404,
00:00:03:583,-0.083,-0.056,0.751,-875.794,126.281,330.017,
00:00:03:600,0.082,-0.092,0.531,46.081,-20.997,-0.123,
00:00:03:616,0.186,-0.634,0.661,821.594,-247.986,-256.47,
00:00:03:633,0.048,-1.049,0.759,697.387,-204.102,-58.533,
00:00:03:650,-0.077,-1.069,0.833,54.382,-29.908,-23.255,
00:00:03:666,-0.002,-0.773,0.771,-345.826,43.396,-68.848,
00:00:03:683,0.135,-0.621,0.628,-347.046,9.277,-107.789,
00:00:03:700,0.241,-0.786,0.513,10.986,-88.929,-241.028,
00:00:03:716,0.279,-1.233,0.535,341.797,-80.384,-355.591,
00:00:03:733,0.307,-1.473,0.646,435.608,-48.218,-460.144,
00:00:03:750,0.21,-1.339,0.626,39.367,68.664,-410.706,
00:00:03:766,0.103,-1.119,0.688,-280.884,111.267,-403.382,
00:00:03:783,-0.009,-0.935,0.728,-457.032,103.21,-471.314,
00:00:03:800,0.009,-0.848,0.756,-615.357,50.293,-534.18,
00:00:03:816,0.001,-0.804,0.749,-568.055,0.183,-583.069,
00:00:03:833,-0.112,-0.644,0.569,-401.368,64.27,-455.689,
00:00:03:850,-0.242,-0.399,0.64,-65.186,14.465,-366.822,
00:00:03:866,-0.319,-0.321,0.755,86.059,-36.072,-314.881,
00:00:03:883,-0.358,-0.352,0.739,71.167,-71.106,-255.616,
00:00:03:900,-0.321,-0.416,0.77,-84.29,-140.259,-156.311,
00:00:03:916,-0.345,-0.385,0.73,-257.142,-115.601,-76.539,
00:00:03:933,-0.333,-0.375,0.792,-394.41,-133.728,-46.753,
00:00:03:950,-0.258,-0.469,0.803,-718.201,-97.168,-162.781,
00:00:03:966,-0.427,-0.378,1.149,-749.939,-18.372,114.013,
00:00:03:983,-0.414,-0.231,0.99,-519.959,-18.799,104.675,
00:00:04:0,-0.357,-0.379,1.001,-223.877,-141.602,-53.956,
00:00:04:16,-0.162,-0.411,1.034,-130.127,-164.307,58.776,
00:00:04:33,-0.047,-0.336,1.002,-287.293,-94.117,87.219,
00:00:04:50,-0.081,-0.323,0.835,-249.146,-5.555,201.721,
00:00:04:66,-0.075,-0.595,0.878,47.119,-95.826,184.143,
00:00:04:83,-0.033,-0.652,1.358,-361.634,-99.915,238.159,
00:00:04:100,0.056,-0.533,1.323,-816.834,-66.224,146.24,
00:00:04:116,-0.042,-0.453,1.028,-647.889,-25.574,132.812,
00:00:04:133,0.023,-0.311,1.115,-329.834,60.424,135.925,
00:00:04:150,0.093,-0.496,1.078,204.528,16.296,34.973,
00:00:04:166,0.029,-0.864,1.085,408.264,-75.257,21.423,
00:00:04:183,0.015,-1.079,1.187,-453.492,-4.029,-166.687,
00:00:04:200,-0.141,-1.073,1.4,-1116.578,36.56,-120.606,
00:00:04:216,-0.171,-0.57,1.3,-1456.849,-11.536,-161.927,
00:00:04:233,-0.049,-0.435,1.401,-1441.468,-215.516,-145.874,
00:00:04:250,-0.041,-0.266,1.419,-1384.217,-295.594,-18.677,
00:00:04:266,-0.193,-0.113,1.12,-1374.207,-352.478,-79.834,
00:00:04:283,-0.279,-0.219,1.091,-1328.37,-316.895,-24.537,
00:00:04:300,-0.25,-0.254,1.259,-1222.168,-287.354,-138.672,
00:00:04:316,-0.246,-0.318,1.282,-774.842,-378.174,-196.534,
00:00:04:333,-0.444,-0.507,1.099,-509.949,-386.475,-262.269,
00:00:04:350,-0.627,-0.524,0.999,-560.364,-330.018,-342.652,
00:00:04:366,-0.65,-0.31,0.897,-553.101,-321.961,-363.221,
00:00:04:383,-0.558,-0.216,0.822,-549.439,-322.388,-503.479,
00:00:04:400,-0.58,-0.206,0.841,-548.157,-332.886,-565.613,
00:00:04:416,-0.648,-0.081,0.607,-495.362,-265.137,-536.194,
00:00:04:433,-0.59,0.084,0.493,-235.108,-212.281,-525.269,
00:00:04:450,-0.53,0.153,0.447,51.757,-92.041,-573.548,
00:00:04:466,-0.519,0.106,0.44,204.406,-2.503,-574.28,
00:00:04:483,-0.488,0.172,0.443,170.105,109.497,-490.601,
00:00:04:500,-0.47,0.213,0.39,142.395,211.303,-453.064,
00:00:04:516,-0.403,0.257,0.339,171.02,324.951,-487.305,
00:00:04:533,-0.428,0.207,0.523,370.971,388.549,-451.844,
00:00:04:550,-0.401,0.182,0.565,439.148,422.546,-389.344,
00:00:04:566,-0.365,0.207,0.595,507.019,447.265,-347.229,
00:00:04:583,-0.372,0.167,0.687,646.667,481.689,-289.124,
00:00:04:600,-0.327,0.092,0.731,708.435,490.173,-256.348,
00:00:04:616,-0.298,0,0.727,683.899,483.825,-225.159,
00:00:04:633,-0.247,-0.056,0.788,616.882,452.148,-246.888,
00:00:04:650,-0.274,-0.121,0.847,562.744,473.083,-228.821,
00:00:04:666,-0.188,-0.123,0.893,516.601,475.952,-220.704,
00:00:04:683,-0.165,-0.188,0.933,473.999,443.115,-235.108,
00:00:04:700,-0.157,-0.189,0.954,352.6,422.79,-213.135,
00:00:04:716,-0.14,-0.194,0.952,195.922,399.292,-187.134,
00:00:04:733,-0.112,-0.225,1.03,101.684,412.231,-174.744,
00:00:04:750,-0.057,-0.216,1.023,65.795,455.749,-180.909,
00:00:04:766,0.016,-0.214,0.988,57.128,466.491,-221.802,
00:00:04:783,0.001,-0.217,0.992,23.254,460.937,-170.655,
00:00:04:800,-0.037,-0.236,0.996,-0.977,470.153,-169.495,
00:00:04:816,0.105,-0.203,0.99,-72.571,481.079,-140.381,
00:00:04:833,0.112,-0.157,0.996,-92.225,437.561,-124.634,
00:00:04:850,0.111,-0.164,1.017,-114.747,415.527,-121.888,
00:00:04:866,0.158,-0.084,1.01,-94.239,363.586,-71.045,
00:00:04:883,0.113,-0.123,1.029,-43.702,324.768,-51.819,
00:00:04:900,0.15,-0.128,1.058,-9.339,292.968,-32.837,
00:00:04:916,0.128,-0.11,1.068,56.64,250.244,-9.705,
00:00:04:933,0.154,-0.151,1.043,89.355,216.125,-6.958,
00:00:04:950,0.164,-0.216,1.043,53.649,156.372,-8.484,
00:00:04:966,0.157,-0.227,1.039,-5.249,111.45,4.76,
00:00:04:983,0.15,-0.216,1.021,-35.279,54.321,-4.334,
00:00:05:0,0.111,-0.215,1.025,-73.182,19.165,-11.475,
00:00:05:16,0.043,-0.106,0.871,14.099,40.71,8.667,
00:00:05:33,0.19,-0.319,0.948,-100.098,107.727,-76.661,
00:00:05:50,0.243,-0.152,0.885,-122.254,45.959,17.883,
00:00:05:66,0.01,-0.126,0.999,-76.722,88.134,13.855,
00:00:05:83,0.141,-0.124,0.922,-22.706,116.821,-18.311,
00:00:05:100,0.156,-0.165,0.931,-42.359,98.755,6.652,
00:00:05:116,0.108,-0.14,0.982,-63.416,115.295,3.784,
00:00:05:133,0.14,-0.212,1.033,-56.58,103.515,-24.537,
00:00:05:150,0.173,-0.218,1.051,-65.003,90.454,-9.766,
00:00:05:166,0.197,-0.199,1.024,-51.026,61.889,-29.419,
00:00:05:183,0.181,-0.156,0.994,-45.166,27.282,-25.635,
00:00:05:200,0.149,-0.07,0.964,-50.171,3.906,10.192,
00:00:05:216,0.05,-0.092,0.967,14.282,4.882,-14.893,
00:00:05:233,0.091,-0.145,0.927,23.864,0.793,-14.466,
00:00:05:250,0.072,-0.138,0.925,-41.565,18.066,21.545,
00:00:05:266,0.058,-0.125,0.945,-46.875,32.531,-4.639,
00:00:05:283,0.045,-0.146,0.937,-37.781,45.654,-30.823,
00:00:05:300,0.062,-0.147,0.881,-28.931,123.901,-51.636,
00:00:05:316,0.051,-0.084,1.003,-35.035,176.513,-50.354,
00:00:05:333,0.063,-0.073,1.038,3.112,186.706,-54.81,
00:00:05:350,0.086,-0.066,1.063,47.729,184.997,-45.472,
00:00:05:366,0.093,-0.083,1.038,94.421,191.772,-33.692,
00:00:05:383,0.109,-0.13,1.027,103.027,202.514,-16.358,
00:00:05:400,0.107,-0.135,0.996,97.534,231.018,-16.419,
00:00:05:416,0.088,-0.189,1.002,90.148,260.131,-15.076,
00:00:05:433,0.088,-0.17,0.999,64.27,290.1,-3.296,
00:00:05:450,0.09,-0.229,1.03,4.882,293.762,-13.977,
00:00:05:466,0.095,-0.195,1.082,-37.415,301.025,2.197,
00:00:05:483,0.096,-0.143,1.117,11.779,292.053,5.92,
00:00:05:500,0.112,-0.121,1.086,53.649,304.809,12.634,
00:00:05:516,0.14,-0.11,0.989,66.528,337.402,7.507,
00:00:05:533,0.12,-0.2,0.945,42.846,358.337,0.488,
00:00:05:550,0.222,-0.152,0.906,21.545,391.784,70.068,
00:00:05:566,0.203,-0.36,0.968,-31.128,392.883,11.413,
00:00:05:583,0.262,-0.282,0.958,-98.328,439.148,59.997,
00:00:05:600,0.328,-0.244,0.996,-114.258,445.007,17.578,
00:00:05:616,0.396,-0.101,0.83,-57.862,448.059,33.691,
00:00:05:633,0.299,-0.158,0.875,11.962,395.507,28.32,
00:00:05:650,0.295,-0.044,0.823,34.423,400.329,52.185,
00:00:05:666,0.4,0.015,0.76,140.442,404.724,51.208,
00:00:05:683,0.414,-0.078,0.71,201.477,416.137,83.679,
00:00:05:700,0.448,0.01,0.664,179.077,452.331,190.796,
00:00:05:716,0.483,0.08,0.552,292.724,495.666,200.866,
00:00:05:733,0.585,-0.011,0.559,332.702,544.25,245.117,
00:00:05:750,0.627,0.02,0.583,391.418,555.114,308.227,
00:00:05:766,0.685,-0.002,0.553,445.19,570.251,292.968,
00:00:05:783,0.752,-0.092,0.527,480.224,570.861,294.799,
00:00:05:800,0.79,-0.133,0.583,492.187,558.838,302.612,
00:00:05:816,0.739,-0.138,0.64,531.067,522.705,331.848,
00:00:05:833,0.775,-0.281,0.829,566.528,484.069,252.197,
00:00:05:850,1.069,-0.125,0.743,593.628,388.61,267.028,
00:00:05:866,1.039,-0.29,0.858,630.31,172.363,173.462,
00:00:05:883,0.859,-0.233,0.754,585.205,119.629,248.718,
00:00:05:900,0.813,-0.034,0.819,593.261,25.268,251.587,
00:00:05:916,0.747,0.036,0.687,557.129,-15.87,274.109,
00:00:05:933,0.626,0.043,0.613,706.054,-61.768,279.113,
00:00:05:950,0.477,0.002,0.274,945.678,-1.954,247.985,
00:00:05:966,0.45,-0.255,0.359,1170.471,3.54,185.485,
00:00:05:983,0.419,-0.415,0.348,1053.955,80.2,235.717,
00:00:06:0,0.407,-0.34,0.448,871.521,138,268.066,
00:00:06:16,0.446,-0.221,0.56,852.722,169.799,274.047,
00:00:06:33,0.488,-0.118,0.364,997.131,236.755,230.529,
00:00:06:50,0.468,-0.474,0.396,1566.894,207.275,47.973,
00:00:06:66,0.453,-0.971,0.536,1478.454,149.536,-59.327,
00:00:06:83,0.481,-1.084,0.635,991.211,110.412,-139.588,
00:00:06:100,0.51,-0.737,0.54,489.868,138.855,-125.245,
00:00:06:116,0.895,-0.941,0.83,963.256,-61.097,-371.888,
00:00:06:133,1.075,-0.735,0.526,339.477,-93.567,-284.668,
00:00:06:150,0.794,-0.716,0.615,619.506,-216.98,-250,
00:00:06:166,0.495,-0.747,0.514,445.739,-217.896,-297.303,
00:00:06:183,0.553,-0.717,0.575,260.803,-182.251,-257.935,
00:00:06:200,0.558,-0.57,0.519,338.928,-127.686,-235.047,
00:00:06:216,0.449,-0.691,0.518,535.461,-119.08,-222.474,
00:00:06:233,0.355,-0.776,0.476,613.159,-85.206,-163.208,
00:00:06:250,0.411,-0.977,0.492,722.9,-33.143,-255.677,
00:00:06:266,0.554,-1.23,0.808,692.382,-88.135,-281.983,
00:00:06:283,0.636,-1.24,1.067,604.98,-217.896,-336.487,
00:00:06:300,0.795,-1.085,0.916,459.777,-294.312,-433.228,
00:00:06:316,0.805,-1.033,0.473,286.804,-316.346,-441.773,
00:00:06:333,0.6,-0.892,0.238,-58.899,-297.852,-278.382,
00:00:06:350,0.448,-0.823,0.13,-396.973,-198.548,-137.696,
00:00:06:366,0.397,-0.7,0.231,-594.056,-100.647,5.981,
00:00:06:383,0.337,-0.544,0.184,-396.851,-2.625,103.149,
00:00:06:400,0.331,-0.635,0.153,83.313,75.134,86.364,
00:00:06:416,0.289,-0.891,0.215,357.055,114.257,13.916,
00:00:06:433,0.27,-0.965,0.171,215.637,179.992,-38.269,
00:00:06:450,0.269,-0.906,0.145,-44.007,234.13,-68.238,
00:00:06:466,0.34,-0.807,0.208,-231.263,258.422,-101.258,
00:00:06:483,0.414,-0.714,0.246,-268.799,290.649,-119.019,
00:00:06:500,0.433,-0.552,0.186,-252.564,347.351,-94.666,
00:00:06:516,0.483,-0.518,0.111,-325.501,406.555,-132.63,
00:00:06:533,0.46,-0.514,0.17,-360.718,434.265,-76.172,
00:00:06:550,0.444,-0.399,0.188,-334.9,490.966,-15.381,
00:00:06:566,0.589,-0.529,0.226,-280.762,499.511,-106.263,
00:00:06:583,0.698,-0.494,0.241,-479.798,507.873,-38.392,
00:00:06:600,0.949,-0.246,0.397,-495.972,476.013,-6.897,
00:00:06:616,0.96,-0.328,0.39,-8.851,370.727,-77.515,
00:00:06:633,0.942,-0.489,0.403,46.814,261.291,-112.427,flipLH
00:00:06:650,0.911,-0.487,0.316,45.532,208.374,-136.048,
00:00:06:666,0.877,-0.644,0.279,140.93,105.102,-240.967,
00:00:06:683,0.854,-0.539,0.296,39.184,64.086,-254.212,
00:00:06:700,0.807,-0.379,0.229,208.496,22.277,-286.805,
00:00:06:716,0.74,-0.433,0.238,474.06,-23.438,-333.191,
00:00:06:733,0.609,-0.572,0.276,616.333,-80.506,-334.717,
00:00:06:750,0.533,-0.687,0.256,669.372,-103.943,-326.783,
00:00:06:766,0.464,-0.787,0.162,648.071,-104.554,-357.3,
00:00:06:783,0.444,-0.792,0.153,447.143,-108.277,-381.409,
00:00:06:800,0.458,-0.888,0.221,245.544,-116.15,-429.505,
00:00:06:816,0.437,-0.941,0.377,248.779,-169.068,-379.09,
00:00:06:833,0.425,-0.89,0.432,262.329,-148.926,-320.313,
00:00:06:850,0.47,-0.957,0.354,307.983,-172.12,-364.991,
00:00:06:866,0.464,-1.133,0.329,371.765,-240.052,-404.114,
00:00:06:883,0.437,-1.209,0.396,259.948,-273.987,-367.31,
00:00:06:900,0.427,-1.194,0.432,94.665,-251.465,-337.647,
00:00:06:916,0.434,-1.2,0.349,80.505,-229.126,-308.35,
00:00:06:933,0.395,-1.288,0.284,128.967,-202.881,-275.086,
00:00:06:950,0.366,-1.448,0.354,108.642,-219.91,-304.017,
00:00:06:966,0.416,-1.429,0.51,-173.035,-207.825,-306.275,
00:00:06:983,0.482,-1.332,0.562,-321.839,-228.455,-332.703,
00:00:07:0,0.447,-1.249,0.553,-270.569,-294.739,-358.216,
00:00:07:16,0.355,-1.316,0.474,-273.987,-352.539,-391.358,
00:00:07:33,0.325,-1.364,0.473,-515.015,-373.658,-389.954,
00:00:07:50,0.329,-1.36,0.431,-922.547,-400.452,-401.123,
00:00:07:66,0.324,-1.501,0.259,-1517.09,-440.613,-408.387,
00:00:07:83,0.236,-1.481,0.267,-2000,-414.246,-412.903,
00:00:07:100,0.221,-0.944,0.399,-2000,-361.206,-307.801,
00:00:07:116,0.266,-0.485,0.442,-1990.723,-320.862,-402.161,
00:00:07:133,0.292,-0.498,0.318,-1374.451,-268.494,-404.236,
00:00:07:150,0.215,-0.906,0.235,-1470.704,-222.596,-392.395,
00:00:07:166,0.07,-0.912,0.136,-2000,-43.58,-318.848,
00:00:07:183,0.008,-0.757,0.147,-2000,121.032,-245.606,
00:00:07:200,0.042,-0.61,0.228,-2000,202.819,-283.631,
00:00:07:216,0.143,-0.292,0.255,-2000,282.409,-302.552,
00:00:07:233,0.211,0.008,0.398,-2000,301.696,-379.029,
00:00:07:250,0.248,0.194,0.391,-2000,304.626,-407.41,
00:00:07:266,0.147,0.457,0.329,-2000,325.561,-420.899,
00:00:07:283,0.103,0.467,0.323,-1727.173,208.679,-511.902,
00:00:07:300,0.075,-0.002,0.449,-910.95,156.067,-714.478,
00:00:07:316,0.037,-0.127,0.65,-1042.115,321.289,-741.211,
00:00:07:333,0.106,0.366,0.571,-1424.866,551.086,-840.455,
00:00:07:350,0.306,0.786,0.506,-1103.028,588.256,-972.352,
00:00:07:366,0.421,0.814,0.506,-217.164,358.154,-846.497,
00:00:07:383,0.43,0.588,0.861,241.272,149.963,-725.403,
00:00:07:400,0.358,0.19,1.037,202.636,66.345,-699.28,
00:00:07:416,0.345,0.222,1.178,-285.706,73.73,-610.84,
00:00:07:433,0.479,0.191,0.59,-604.859,146.789,-633.789,
00:00:07:450,0.681,1.878,1.155,-1110.596,295.288,11.596,
00:00:07:466,0.845,1.687,0.835,235.168,-234.131,45.105,
00:00:07:483,0.864,0.92,0.783,1162.963,-792.176,300.476,
00:00:07:500,0.581,0.238,1.162,1409.546,-1003.052,467.895,
00:00:07:516,0.317,-0.003,0.982,832.702,-661.072,585.693,
00:00:07:533,0.203,0.079,0.819,371.948,-432.679,303.833,
00:00:07:550,0.304,0.179,0.802,139.892,-373.536,219.421,
00:00:07:566,0.311,0.289,0.875,53.405,-359.253,219.36,
00:00:07:583,0.219,0.437,0.971,22.583,-340.088,273.315,
00:00:07:600,0.178,0.44,0.945,49.621,-320.252,254.089,
00:00:07:616,0.169,0.388,0.924,113.525,-327.332,260.07,
00:00:07:633,0.144,0.429,0.896,236.206,-312.989,296.142,
00:00:07:650,0.136,0.546,0.853,479.919,-273.865,340.515,
00:00:07:666,0.169,0.526,0.775,698.12,-292.542,340.026,
00:00:07:683,0.168,0.369,0.764,790.527,-300.232,393.798,
00:00:07:700,0.146,0.286,0.811,743.835,-258.851,454.406,
00:00:07:716,0.118,0.233,0.884,701.782,-228.638,454.406,
00:00:07:733,0.063,0.128,0.963,666.259,-212.647,426.086,
00:00:07:750,0.025,0.093,1.024,612.304,-191.04,421.264,
00:00:07:766,0.031,0.106,1.105,683.044,-225.892,390.258,
00:00:07:783,0.073,0.136,1.105,753.906,-240.418,376.953,
00:00:07:800,0.125,0.068,0.994,767.578,-286.194,309.265,
00:00:07:816,0.087,-0.084,1.031,692.199,-331.055,298.217,
00:00:07:833,0.02,-0.184,1.068,450.012,-303.589,302.856,
00:00:07:850,-0.035,-0.192,1.132,57.617,-245.362,274.78,
00:00:07:866,-0.062,-0.143,1.179,-32.166,-225.586,269.775,
00:00:07:883,-0.021,0.157,1.296,275.207,-285.401,312.988,
00:00:07:900,0.056,0.117,1.141,696.777,-445.13,269.47,
00:00:07:916,0.056,-0.124,1.049,862.548,-550.477,287.414,
00:00:07:933,-0.01,-0.4,0.979,604.309,-583.252,296.02,
00:00:07:950,-0.084,-0.47,0.973,194.091,-532.959,340.576,
00:00:07:966,-0.099,-0.306,0.877,-66.346,-497.071,365.417,
00:00:07:983,0.012,-0.11,0.783,-85.144,-405.884,260.254,
00:00:08:0,-0.106,-0.262,0.697,160.156,-371.216,183.41,
00:00:08:16,-0.257,-0.122,0.85,65.918,-185.12,320.068,
00:00:08:33,-0.248,0.136,0.8,140.625,-46.265,348.449,
00:00:08:50,-0.327,0.016,0.837,508.3,-49.805,333.862,
00:00:08:66,-0.257,0.065,0.87,565.063,51.635,311.584,
00:00:08:83,-0.325,0.008,0.863,887.39,16.54,310.608,
00:00:08:100,-0.402,-0.136,0.882,1003.296,41.137,298.217,
00:00:08:116,-0.364,-0.114,0.848,1063.171,67.016,323.913,
00:00:08:133,-0.348,-0.188,0.812,1190.918,67.26,283.325,
00:00:08:150,-0.267,-0.339,0.77,1153.259,92.346,187.5,
00:00:08:166,-0.227,-0.417,0.835,1053.711,55.725,205.444,
00:00:08:183,-0.182,-0.392,0.705,1045.471,66.955,218.811,
00:00:08:200,-0.178,-0.554,0.662,1057.19,36.438,153.747,
00:00:08:216,-0.185,-0.684,0.656,908.691,48.645,119.262,
00:00:08:233,-0.194,-0.716,0.712,787.292,35.461,69.213,
00:00:08:250,-0.189,-0.732,0.709,688.964,37.536,21.24,
00:00:08:266,-0.173,-0.664,0.665,643.432,10.192,-0.611,
00:00:08:283,-0.172,-0.605,0.64,559.814,-1.282,-16.785,
00:00:08:300,-0.131,-0.541,0.691,525.39,-8.118,3.173,
00:00:08:316,-0.121,-0.539,0.721,547.18,-44.19,28.564,
00:00:08:333,-0.076,-0.535,0.655,554.809,-56.641,35.156,
00:00:08:350,-0.04,-0.604,0.614,585.754,-103.089,-13.245,
00:00:08:366,-0.047,-0.687,0.593,565.307,-130.738,13.244,
00:00:08:383,-0.033,-0.696,0.555,574.035,-153.626,42.114,
00:00:08:400,-0.037,-0.75,0.604,604.37,-216.431,40.771,
00:00:08:416,-0.062,-0.839,0.55,631.591,-278.504,-4.944,
00:00:08:433,-0.011,-0.955,0.558,625.244,-301.636,-34.424,
00:00:08:450,-0.04,-1.041,0.518,578.796,-357.117,-78.797,
00:00:08:466,-0.082,-1.025,0.513,462.951,-402.832,-137.757,
00:00:08:483,-0.128,-0.989,0.502,358.886,-428.528,-159.424,
00:00:08:500,-0.157,-0.959,0.485,272.4,-437.256,-183.411,
00:00:08:516,-0.166,-0.93,0.478,190.185,-418.641,-196.656,
00:00:08:533,-0.183,-0.907,0.487,164.428,-439.393,-212.525,
00:00:08:550,-0.271,-0.925,0.518,146.179,-475.953,-194.703,
00:00:08:566,-0.284,-0.928,0.528,99.853,-455.811,-177.369,
00:00:08:583,-0.293,-0.965,0.527,55.114,-418.213,-144.349,
00:00:08:600,-0.332,-0.924,0.561,14.282,-369.446,-94.971,
00:00:08:616,-0.406,-0.851,0.577,86.975,-352.539,-50.66,
00:00:08:633,-0.453,-0.861,0.552,122.497,-387.024,-57.496,
00:00:08:650,-0.481,-0.871,0.492,129.211,-361.451,-56.519,
00:00:08:666,-0.515,-0.888,0.421,118.164,-306.519,-57.312,
00:00:08:683,-0.538,-0.874,0.395,103.027,-232.361,-56.641,
00:00:08:700,-0.538,-0.906,0.384,92.163,-162.415,-79.834,
00:00:08:716,-0.519,-0.945,0.437,65.795,-156.25,-100.159,
00:00:08:733,-0.471,-0.952,0.472,7.446,-167.176,-135.254,
00:00:08:750,-0.436,-0.952,0.508,-29.419,-232.605,-155.579,
00:00:08:766,-0.412,-0.912,0.479,-33.936,-280.274,-159.241,
00:00:08:783,-0.411,-0.866,0.432,-14.954,-338.623,-165.955,
00:00:08:800,-0.406,-0.853,0.385,8.85,-374.146,-181.885,
00:00:08:816,-0.397,-0.875,0.374,-4.639,-422.669,-198.548,
00:00:08:833,-0.445,-0.901,0.393,-1.77,-460.999,-180.054,
00:00:08:850,-0.45,-0.925,0.413,-21.973,-450.44,-198.243,
00:00:08:866,-0.458,-0.949,0.422,-63.904,-432.801,-197.327,
00:00:08:883,-0.491,-0.909,0.441,-116.15,-418.763,-195.618,
00:00:08:900,-0.513,-0.89,0.512,-147.889,-416.443,-189.637,
00:00:08:916,-0.495,-0.756,0.35,36.254,-356.812,-146.668,
00:00:08:933,-0.654,-1.097,0.573,88.806,-450.44,-270.325,
00:00:08:950,-0.434,-0.902,0.363,-206.482,-237.305,-164.734,
00:00:08:966,-0.544,-0.902,0.427,-126.038,-291.871,-177.002,
00:00:08:983,-0.568,-0.911,0.416,-201.05,-188.843,-187.623,
00:00:09:0,-0.627,-0.796,0.343,-180.115,-49.683,-136.475,
00:00:09:16,-0.668,-0.743,0.307,-115.784,5.188,-115.54,
00:00:09:33,-0.648,-0.722,0.29,-27.161,63.537,-134.766,
00:00:09:50,-0.622,-0.775,0.294,39.367,95.642,-143.799,
00:00:09:66,-0.614,-0.797,0.328,28.015,157.226,-130.066,
00:00:09:83,-0.595,-0.782,0.349,52.429,177.429,-122.803,
00:00:09:100,-0.589,-0.78,0.35,85.083,188.903,-117.92,
00:00:09:116,-0.549,-0.746,0.345,71.777,191.223,-69.214,
00:00:09:133,-0.526,-0.745,0.346,86.608,198.181,-54.383,
00:00:09:150,-0.522,-0.757,0.344,68.481,188.11,-33.265,
00:00:09:166,-0.54,-0.746,0.355,55.053,180.481,0.244,
00:00:09:183,-0.527,-0.749,0.356,61.95,165.771,22.766,
00:00:09:200,-0.527,-0.801,0.355,66.955,142.089,26.184,
00:00:09:216,-0.538,-0.84,0.279,25.268,145.08,20.629,
00:00:09:233,-0.574,-0.875,0.406,-114.93,125.488,-6.653,
00:00:09:250,-0.462,-0.672,0.266,-101.746,137.207,51.269,
00:00:09:266,-0.559,-0.719,0.295,89.904,114.38,61.218,
00:00:09:283,-0.493,-0.832,0.331,83.618,115.478,19.409,
00:00:09:300,-0.449,-0.815,0.294,76.965,114.502,52.246,
00:00:09:316,-0.505,-0.886,0.358,66.345,132.995,52.734,
00:00:09:333,-0.471,-0.895,0.391,-4.883,153.015,33.386,
00:00:09:350,-0.464,-0.892,0.418,-46.021,145.63,32.165,
00:00:09:366,-0.435,-0.913,0.437,-72.754,132.568,6.225,
00:00:09:383,-0.425,-0.911,0.43,-99.305,114.746,6.958,
00:00:09:400,-0.434,-0.905,0.424,-101.685,102.539,1.892,
00:00:09:416,-0.455,-0.901,0.406,-110.23,77.88,-26.185,
00:00:09:433,-0.47,-0.899,0.419,-143.738,72.326,-47.425,
00:00:09:450,-0.496,-0.866,0.431,-159.974,67.321,-66.04,
00:00:09:466,-0.496,-0.849,0.407,-163.453,55.175,-86.914,
00:00:09:483,-0.447,-0.774,0.398,-104.859,8.606,-111.023,
00:00:09:500,-0.461,-0.75,0.403,-72.876,-11.597,-88.685,
00:00:09:516,-0.474,-0.724,0.405,-31.434,-28.504,-78.98,
00:00:09:533,-0.488,-0.731,0.401,20.629,-44.129,-73.365,
00:00:09:550,-0.499,-0.759,0.403,46.203,-51.697,-72.937,
00:00:09:566,-0.501,-0.753,0.411,53.405,-68.36,-61.768,
00:00:09:583,-0.509,-0.743,0.39,61.096,-80.872,-50.904,
00:00:09:600,-0.509,-0.736,0.375,73.608,-92.896,-39.673,
00:00:09:616,-0.503,-0.744,0.344,66.528,-89.478,-29.541,
00:00:09:633,-0.48,-0.753,0.327,64.086,-78.37,-29.541,
00:00:09:650,-0.471,-0.775,0.327,68.176,-64.209,-10.315,
00:00:09:666,-0.455,-0.785,0.333,54.443,-42.237,10.192,
00:00:09:683,-0.456,-0.792,0.347,51.208,-36.622,29.968,
00:00:09:700,-0.468,-0.812,0.375,51.818,-37.537,36.254,
00:00:09:716,-0.486,-0.818,0.386,44.128,-53.284,48.95,
00:00:09:733,-0.513,-0.83,0.388,17.639,-47.181,52.673,
00:00:09:750,-0.524,-0.83,0.405,-1.77,-35.157,55.786,
00:00:09:766,-0.61,-0.907,0.486,-94.117,139.465,51.208,
00:00:09:783,-0.642,-0.934,0.54,-159.913,176.33,38.391,
00:00:09:800,-0.629,-0.928,0.553,-205.262,221.618,24.841,
00:00:09:816,-0.614,-0.946,0.519,-218.262,274.78,-4.09,
00:00:09:833,-0.6,-0.995,0.52,-261.78,335.937,-36.988,
00:00:09:850,-0.578,-0.967,0.556,-328.919,386.352,-38.086,
00:00:09:866,-0.558,-0.9,0.598,-323.609,405.029,-42.603,
00:00:09:883,-0.556,-0.886,0.63,-281.25,411.743,-70.252,
00:00:09:900,-0.541,-0.887,0.654,-267.151,405.212,-94.239,
00:00:09:916,-0.514,-0.873,0.683,-276.185,389.099,-123.414,
00:00:09:933,-0.498,-0.857,0.704,-281.861,343.322,-153.992,
00:00:09:950,-0.464,-0.725,0.552,-194.275,208.191,-138.306,
00:00:09:966,-0.464,-0.714,0.499,-207.215,208.313,-102.906,
00:00:09:983,-0.482,-0.707,0.464,-195.679,210.022,-70.496,
00:00:10:0,-0.504,-0.732,0.43,-228.577,226.745,-75.867,
00:00:10:16,-0.52,-0.745,0.413,-306.58,249.755,-84.473,
00:00:10:33,-0.538,-0.703,0.426,-386.109,282.47,-85.572,
00:00:10:50,-0.545,-0.676,0.431,-417.176,325.988,-85.816,
00:00:10:66,-0.537,-0.685,0.47,-449.646,373.108,-96.192,
00:00:10:83,-0.506,-0.689,0.531,-466.98,393.798,-107.789,
00:00:10:100,-0.499,-0.704,0.593,-492.249,425.659,-139.527,
00:00:10:116,-0.46,-0.73,0.707,-533.02,466.613,-137.269,
00:00:10:133,-0.423,-0.709,0.893,-564.698,476.562,-139.466,
00:00:10:150,-0.372,-0.613,1,-423.584,285.827,-95.948,
00:00:10:166,-0.438,-0.676,0.987,-358.704,264.77,-89.417,
00:00:10:183,-0.393,-0.741,0.905,-383.912,301.757,-76.294,
00:00:10:200,-0.439,-0.821,0.858,-438.66,308.776,-114.258,
00:00:10:216,-0.511,-0.827,0.796,-599.06,367.553,-122.071,
00:00:10:233,-0.46,-0.732,0.744,-766.724,424.743,-141.968,
00:00:10:250,-0.493,-0.645,0.847,-767.029,426.147,-166.199,
00:00:10:266,-0.43,-0.454,0.929,-739.197,437.622,-118.47,
00:00:10:283,-0.412,-0.183,0.879,-601.014,421.63,-59.754,
00:00:10:300,-0.425,-0.181,0.773,-415.101,424.499,-68.116,
00:00:10:316,-0.414,-0.226,0.68,-287.903,499.633,-4.395,
00:00:10:333,-0.345,-0.271,0.608,-211.914,569.519,51.635,
00:00:10:350,-0.311,-0.384,0.545,-163.453,630.188,65.002,
00:00:10:366,-0.178,-0.452,0.516,-151.123,721.801,25.878,
00:00:10:383,-0.073,-0.583,0.556,-44.861,694.58,-54.2,
00:00:10:400,-0.018,-0.555,0.725,-34.913,667.48,-10.498,
00:00:10:416,0.044,-0.37,0.776,48.889,586.67,-11.109,
00:00:10:433,0.079,-0.311,0.86,130.249,340.149,-4.761,
00:00:10:450,0.103,-0.361,0.825,92.407,305.969,-45.166,
00:00:10:466,0.199,-0.421,0.817,-0.611,296.203,-64.82,
00:00:10:483,0.244,-0.394,0.868,-9.278,240.6,-55.298,
00:00:10:500,0.163,-0.425,0.906,47.851,222.9,-33.692,
00:00:10:516,0.097,-0.415,0.824,-164.917,215.82,-25.269,
00:00:10:533,0.102,-0.308,0.811,-142.395,214.05,10.376,
00:00:10:550,0.037,-0.283,0.849,-74.463,207.275,13.305,
00:00:10:566,0.003,-0.302,0.849,-53.223,233.703,25.512,
00:00:10:583,0.001,-0.363,0.875,-60.425,239.38,16.845,
00:00:10:600,0.013,-0.35,0.898,-47.73,241.516,18.493,
00:00:10:616,0.057,-0.379,0.962,-46.57,215.576,-5.494,
00:00:10:633,0.082,-0.287,0.94,12.512,188.72,1.159,
00:00:10:650,0.04,-0.349,0.957,55.481,189.331,-18.311,
00:00:10:666,0.119,-0.256,0.936,76.599,192.932,30.639,
00:00:10:683,0.067,-0.293,0.934,147.644,168.151,15.747,
00:00:10:700,0.063,-0.393,0.9,117.065,189.27,16.784,
00:00:10:716,0.068,-0.428,0.877,49.377,198.852,20.08,
00:00:10:733,0.061,-0.432,0.835,-19.288,232.36,-0.977,
00:00:10:750,0.067,-0.464,0.782,-84.9,263.733,-10.804,
00:00:10:766,0.07,-0.427,0.812,-134.095,317.016,6.897,
00:00:10:783,0.074,-0.389,0.822,-142.151,361.694,17.761,
00:00:10:800,0.073,-0.382,0.828,-165.467,400.879,18.005,
00:00:10:816,0.135,-0.261,0.846,-138.184,431.945,45.044,
00:00:10:833,0.156,-0.334,0.894,-43.641,444.213,-1.587,
00:00:10:850,0.213,-0.319,0.873,-31.25,456.298,42.358,
00:00:10:866,0.244,-0.208,0.914,70.678,416.076,36.254,
00:00:10:883,0.266,-0.237,0.856,174.56,400.39,-3.296,
00:00:10:900,0.39,-0.246,0.814,230.713,372.863,19.47,
00:00:10:916,0.443,-0.201,0.811,317.26,346.801,42.358,
00:00:10:933,0.45,-0.313,0.89,387.695,297.18,14.77,
00:00:10:950,0.654,-0.176,0.939,293.945,248.291,48.95,
00:00:10:966,0.606,-0.02,1.069,367.37,99.182,101.196,
00:00:10:983,0.552,0.151,0.938,437.744,30.273,171.997,
00:00:11:0,0.563,0.075,0.736,665.954,-7.019,178.527,
00:00:11:16,0.525,-0.146,0.58,735.229,-38.758,204.651,
00:00:11:33,0.406,-0.254,0.416,664.001,7.751,291.87,
00:00:11:50,0.245,-0.375,0.42,610.168,41.198,320.678,
00:00:11:66,0.181,-0.338,0.45,553.161,120.544,318.298,
00:00:11:83,0.24,-0.302,0.43,659.301,144.348,294.372,
00:00:11:100,0.277,-0.524,0.436,800.964,135.009,214.477,
00:00:11:116,0.343,-0.694,0.516,816.284,127.746,181.457,
00:00:11:133,0.49,-0.772,0.502,674.072,193.115,185.18,
00:00:11:150,0.576,-0.902,0.594,616.516,127.868,-8.973,
00:00:11:166,0.592,-0.857,0.696,538.696,101.013,-51.819,
00:00:11:183,0.635,-0.837,0.689,592.468,47.241,-139.893,
00:00:11:200,0.69,-0.868,0.709,556.335,-11.841,-228.638,
00:00:11:216,0.696,-0.867,0.695,385.803,-55.909,-275.513,
00:00:11:233,0.648,-0.813,0.843,320.068,-133.423,-264.161,
00:00:11:250,0.594,-0.73,0.779,416.381,-198.487,-275.208,
00:00:11:266,0.595,-0.795,0.733,502.563,-281.373,-321.534,
00:00:11:283,0.53,-0.848,0.601,389.77,-306.458,-263.55,
00:00:11:300,0.502,-0.954,0.54,250.305,-326.722,-304.322,
00:00:11:316,0.475,-0.992,0.544,-21.424,-318.97,-275.452,
00:00:11:333,0.431,-0.803,0.657,0.976,-338.99,-222.168,
00:00:11:350,0.396,-0.822,0.554,231.018,-302.979,-239.563,
00:00:11:366,0.375,-0.943,0.662,386.535,-328.125,-255.31,
00:00:11:383,0.294,-1.141,0.63,217.102,-322.815,-273.194,
00:00:11:400,0.237,-1.121,0.664,-251.648,-304.993,-296.692,
00:00:11:416,0.189,-0.978,0.593,-126.709,-292.237,-331.604,
00:00:11:433,0.141,-1.059,0.582,88.195,-261.292,-387.391,
00:00:11:450,0.06,-1.123,0.558,38.879,-232.544,-401.185,
00:00:11:466,0.022,-1.141,0.537,-158.02,-188.294,-417.725,
00:00:11:483,-0.002,-1.125,0.625,-413.636,-153.809,-398.011,
00:00:11:500,0.01,-0.948,0.638,-533.997,-128.113,-392.579,
00:00:11:516,0.04,-0.851,0.652,-458.497,-121.277,-423.89,
00:00:11:533,0.002,-0.991,0.612,-471.802,-137.757,-503.235,
00:00:11:550,0.014,-1.05,0.606,-861.023,-131.165,-487.366,
00:00:11:566,0.05,-1.052,0.525,-1383.912,-111.023,-512.024,
00:00:11:583,0.003,-0.999,0.501,-1809.51,-92.896,-553.833,
00:00:11:600,0.04,-0.802,0.498,-1963.929,-25.147,-602.723,
00:00:11:616,0.137,-0.231,0.669,-1571.9,15.258,-494.69,
00:00:11:633,0.232,-0.383,0.556,-1022.828,-62.745,-632.447,flipLH
00:00:11:650,0.164,-0.873,0.366,-1265.381,-25.147,-673.768,
00:00:11:666,0.053,-0.333,0.53,-2000,478.881,-679.017,
00:00:11:683,0.232,0.313,0.639,-2000,196.655,-869.996,
00:00:11:700,0.232,0.539,0.431,-2000,112.182,-921.082,
00:00:11:716,0.094,0.651,0.235,-2000,186.096,-835.572,
00:00:11:733,-0.015,0.602,0.164,-2000,262.207,-864.441,
00:00:11:750,-0.083,0.476,0.123,-1775.757,454.834,-910.218,
00:00:11:766,-0.082,0.52,0.223,-1301.209,602.722,-986.451,
00:00:11:783,0.048,0.66,0.443,-938.416,667.846,-1085.45,
00:00:11:800,0.202,0.82,0.62,-419.739,589.172,-1107.911,
00:00:11:816,0.209,0.944,0.493,-33.02,559.936,-1007.386,
00:00:11:833,0.266,0.811,0.821,311.218,385.131,-870.911,
00:00:11:850,0.266,0.741,1.017,-22.583,424.56,-753.052,
00:00:11:866,0.14,0.335,0.482,-113.099,416.137,-647.156,
00:00:11:883,0.954,1.99,2.117,-954.773,134.216,139.038,
00:00:11:900,0.434,1.66,0.957,-399.72,202.514,47.546,
00:00:11:916,0.59,1.603,1.158,262.451,-123.352,392.578,
00:00:11:933,0.674,0.776,1.137,1343.933,-906.434,583.923,
00:00:11:950,0.157,0.105,0.766,463.867,-488.526,416.687,
00:00:11:966,0.151,0.276,0.856,144.226,-357.727,332.946,
00:00:11:983,0.121,0.524,0.887,52.856,-293.946,310.669,
00:00:12:0,0.093,0.591,0.986,182.739,-317.261,310.852,
00:00:12:16,0.094,0.638,1.1,249.023,-319.031,359.558,
00:00:12:33,-0.01,0.835,0.864,483.825,-242.188,412.231,
00:00:12:50,-0.047,0.916,0.944,869.323,-208.435,539.611,
00:00:12:66,-0.058,0.969,1.01,1291.992,-201.416,641.906,
00:00:12:83,-0.132,0.784,1.008,1871.399,-241.517,721.862,
00:00:12:100,-0.235,0.492,1.101,1999.694,-297.242,775.146,
00:00:12:116,-0.356,0.226,1.075,1999.694,-255.005,754.577,
00:00:12:133,-0.329,-0.075,0.915,1984.069,-190.369,498.779,
00:00:12:150,-0.247,-0.561,0.763,1186.767,-144.715,142.334,
00:00:12:166,-0.477,-0.967,0.644,616.455,-48.401,231.201,
00:00:12:183,-0.438,-0.549,0.916,-205.018,251.037,252.014,
00:00:12:200,-0.314,-0.188,0.849,68.054,212.402,153.564,
00:00:12:216,-0.123,-0.511,0.765,91.674,250.183,-128.907,
00:00:12:233,-0.152,-0.454,0.83,-222.535,311.035,-149.964,
00:00:12:250,-0.091,-0.219,0.807,-295.472,343.383,-145.935,
00:00:12:266,-0.104,-0.143,0.825,-108.46,371.643,-116.944,
00:00:12:283,-0.039,-0.141,0.805,57.983,413.94,-117.554,
00:00:12:300,0.015,-0.24,0.778,74.462,460.144,-135.498,
00:00:12:316,0.104,-0.286,0.714,-11.841,504.15,-177.124,
00:00:12:333,0.094,-0.391,0.754,-55.359,480.896,-200.867,
00:00:12:350,0.097,-0.426,0.814,-227.478,528.93,-191.346,
00:00:12:366,0.16,-0.346,0.823,-344.666,515.564,-218.14,
00:00:12:383,0.109,-0.337,0.895,-493.042,492.797,-262.94,
00:00:12:400,0.129,-0.175,0.916,-616.333,477.905,-232.117,
00:00:12:416,0.325,0.099,0.968,-339.417,458.496,-110.047,
00:00:12:433,0.334,0.038,1.003,-240.174,339.66,-178.772,
00:00:12:450,0.156,-0.094,1.014,-210.328,341.552,-131.836,
00:00:12:466,0.304,-0.156,0.957,-300.538,333.862,-154.053,
00:00:12:483,0.369,-0.068,0.955,-388.184,296.692,-110.352,
00:00:12:500,0.346,-0.044,0.907,-337.525,296.875,-133.118,
00:00:12:516,0.315,-0.097,0.944,-390.748,280.761,-149.414,
00:00:12:533,0.296,0.051,0.892,-480.957,297.424,-91.492,
00:00:12:550,0.3,0.102,0.865,-476.99,332.763,-87.525,
00:00:12:566,0.38,0.129,0.878,-494.935,357.544,-53.772,
00:00:12:583,0.372,0.203,0.899,-472.901,356.445,-1.099,
00:00:12:600,0.379,0.248,0.927,-403.809,373.413,16.601,
00:00:12:616,0.404,0.309,0.93,-300.782,373.596,68.42,
00:00:12:633,0.423,0.28,0.941,-97.962,347.29,72.57,
00:00:12:650,0.454,0.208,0.906,63.781,360.595,87.707,
00:00:12:666,0.451,0.089,0.869,49.133,340.942,80.505,
00:00:12:683,0.449,0.13,0.814,-76.172,316.711,122.192,
00:00:12:700,0.441,0.218,0.911,-89.356,259.155,147.155,
00:00:12:716,0.41,0.227,0.887,-10.071,272.949,144.287,
00:00:12:733,0.437,0.281,0.788,44.86,221.618,115.234,
00:00:12:750,0.419,0.279,0.856,89.172,181.823,195.373,
00:00:12:766,0.389,0.335,0.737,178.772,248.352,173.339,
00:00:12:783,0.379,0.286,0.725,370.849,253.967,197.082,
00:00:12:800,0.422,0.209,0.719,374.939,270.935,216.43,
00:00:12:816,0.804,0.296,1.052,-110.596,94.055,433.41,
00:00:12:833,0.505,0.452,1.226,216.491,-101.685,309.936,
00:00:12:850,0.641,0.229,0.851,433.776,229.431,199.401,
00:00:12:866,0.75,-0.008,0.659,406.982,-76.6,235.29,
00:00:12:883,0.472,0.151,0.662,284.973,-119.019,353.82,
00:00:12:900,0.543,0.244,0.598,112.304,40.771,286.804,
00:00:12:916,0.614,0.185,0.54,12.085,2.929,295.105,
00:00:12:933,0.563,0.244,0.753,-24.353,-42.725,396.423,
00:00:12:950,0.675,0.433,0.916,69.152,-17.518,452.758,
00:00:12:966,0.584,0.454,0.882,320.373,-80.262,504.76,
00:00:12:983,0.552,0.342,0.949,489.074,-36.927,452.148,
00:00:13:0,0.622,0.331,0.78,518.798,-16.602,516.784,
00:00:13:16,0.555,0.273,0.689,663.269,-44.129,525.756,
00:00:13:33,0.553,0.067,0.608,701.843,8.85,445.373,
00:00:13:50,0.551,0.037,0.56,682.678,9.521,470.947,
00:00:13:66,0.531,0.093,0.666,712.097,15.075,483.398,
00:00:13:83,0.597,0.061,0.646,739.013,37.048,429.626,
00:00:13:100,0.579,-0.011,0.768,820.739,28.625,410.888,
00:00:13:116,0.622,-0.104,0.751,805.847,2.563,346.923,
00:00:13:133,0.508,-0.168,0.839,640.93,-15.564,343.811,
00:00:13:150,0.529,-0.048,0.857,556.701,-24.414,358.764,
00:00:13:166,0.535,-0.104,0.763,734.13,-52.735,221.191,
00:00:13:183,0.507,-0.362,0.693,810.974,-55.97,117.553,
00:00:13:200,0.449,-0.483,0.762,708.068,-81.36,78.674,
00:00:13:216,0.362,-0.409,0.771,545.959,-31.739,77.209,
00:00:13:233,0.307,-0.339,0.857,503.051,-49.988,44.189,
00:00:13:250,0.365,-0.351,0.847,455.261,-21.241,29.968,
00:00:13:266,0.314,-0.397,0.911,421.264,-23.804,15.564,
00:00:13:283,0.31,-0.456,0.935,369.384,0.061,-19.471,
00:00:13:300,0.333,-0.542,0.999,237.671,-12.391,-47.791,
00:00:13:316,0.271,-0.446,1.031,119.812,-48.951,-35.706,
00:00:13:333,0.301,-0.379,1.002,124.328,-75.684,-88.99,
00:00:13:350,0.3,-0.437,0.961,138.488,-66.712,-115.052,
00:00:13:366,0.294,-0.412,0.909,97.29,-67.688,-105.164,
00:00:13:383,0.214,-0.317,0.908,83.74,-30.518,-48.829,
00:00:13:400,0.284,-0.349,0.876,74.707,18.676,-53.589,
00:00:13:416,0.305,-0.399,0.899,8.544,29.785,-27.894,
00:00:13:433,0.369,-0.384,0.931,-47.852,41.626,-47.303,
00:00:13:450,0.383,-0.393,0.947,-78.675,45.532,-79.773,
00:00:13:466,0.388,-0.37,0.941,-113.77,27.038,-110.779,
00:00:13:483,0.367,-0.302,0.922,-115.479,13.122,-123.902,
00:00:13:500,0.363,-0.275,0.856,-97.046,18.676,-137.33,
00:00:13:516,0.381,-0.299,0.818,-84.168,32.165,-147.217,
00:00:13:533,0.389,-0.302,0.838,-120.667,43.701,-155.762,
00:00:13:550,0.4,-0.241,0.843,-157.532,59.326,-157.166,
00:00:13:566,0.423,-0.238,0.886,-148.499,55.175,-183.35,
00:00:13:583,0.44,-0.257,0.907,-156.128,46.691,-186.89,
00:00:13:600,0.406,-0.255,0.885,-187.134,42.846,-186.646,
00:00:13:616,0.413,-0.238,0.847,-186.89,36.926,-194.825,
00:00:13:633,0.408,-0.212,0.905,-175.538,9.826,-191.956,
00:00:13:650,0.431,-0.15,0.887,-145.691,-4.822,-195.801,
00:00:13:666,0.395,-0.101,0.907,-77.393,-33.326,-141.602,
00:00:13:683,0.389,-0.111,0.893,-9.888,-24.292,-143.86,
00:00:13:700,0.42,-0.177,0.845,7.995,-13.489,-117.371,
00:00:13:716,0.4,-0.273,0.855,-66.224,7.568,-92.896,
00:00:13:733,0.41,-0.263,0.875,-104.676,5.554,-87.586,
00:00:13:750,0.394,-0.234,0.943,-41.321,-8.545,-94.3,
00:00:13:766,0.383,-0.261,0.928,-32.959,-17.518,-95.337,
00:00:13:783,0.37,-0.265,0.907,-51.026,-19.837,-104.981,
00:00:13:800,0.36,-0.268,0.901,-76.783,-29.175,-109.131,
00:00:13:816,0.347,-0.277,0.883,-127.93,-19.593,-105.713,
00:00:13:833,0.348,-0.237,0.907,-167.542,-23.621,-86.976,
00:00:13:850,0.316,-0.22,0.9,-130.249,-16.968,-94.056,
00:00:13:866,0.345,-0.248,0.909,-92.347,-9.339,-105.286,
00:00:13:883,0.343,-0.238,0.891,-72.815,-14.527,-110.047,
00:00:13:900,0.301,-0.259,0.898,-58.777,-9.095,-108.704,
00:00:13:916,0.311,-0.261,0.89,-112.183,13.732,-101.38,
00:00:13:933,0.339,-0.198,0.87,-124.085,3.051,-92.102,
00:00:13:950,0.309,-0.155,0.928,-88.501,3.601,-82.703,
00:00:13:966,0.351,-0.074,0.928,-23.194,14.282,-62.561,
00:00:13:983,0.354,-0.068,0.926,97.29,1.342,-68.726,
00:00:14:0,0.35,-0.122,0.923,157.226,-2.808,-54.505,
00:00:14:16,0.349,-0.178,0.915,126.098,-6.165,-36.805,
00:00:14:33,0.339,-0.236,0.876,57.19,-9.095,-40.711,
00:00:14:50,0.357,-0.203,0.885,3.479,-19.41,-30.091,
00:00:14:66,0.336,-0.171,0.881,30.029,-25.818,-29.053,
00:00:14:83,0.369,-0.236,0.885,78.308,-34.424,-53.162,
00:00:14:100,0.363,-0.282,0.883,51.818,-30.518,-46.57,
00:00:14:116,0.348,-0.277,0.885,17.7,-16.541,-51.026,
00:00:14:133,0.354,-0.285,0.9,-2.015,-14.649,-60.975,
00:00:14:150,0.334,-0.276,0.921,-25.208,-15.137,-56.275,
00:00:14:166,0.337,-0.271,0.924,-42.359,-19.165,-67.078,
00:00:14:183,0.326,-0.213,0.943,-3.296,-36.194,-46.326,
00:00:14:200,0.318,-0.243,0.924,40.832,-23.377,-64.026,
00:00:14:216,0.334,-0.288,0.915,49.438,-28.687,-55.481,
00:00:14:233,0.307,-0.275,0.907,20.996,-17.029,-45.289,
00:00:14:250,0.315,-0.277,0.894,11.413,-7.569,-52.552,
00:00:14:266,0.304,-0.298,0.899,-1.282,-0.672,-55.603,
00:00:14:283,0.306,-0.285,0.921,-23.682,3.784,-52.43,
00:00:14:300,0.307,-0.272,0.938,-24.537,2.746,-57.435,
00:00:14:316,0.306,-0.257,0.943,-13.55,4.211,-49.622,
00:00:14:333,0.304,-0.268,0.929,-1.831,3.845,-54.444,
00:00:14:350,0.301,-0.284,0.908,-9.095,7.263,-53.711,
00:00:14:366,0.291,-0.286,0.909,-17.64,6.103,-56.763,
00:00:14:383,0.3,-0.285,0.909,-33.265,10.559,-65.308,
00:00:14:400,0.299,-0.286,0.922,-50.171,12.207,-63.721,
00:00:14:416,0.313,-0.258,0.931,-49.439,11.779,-61.036,
00:00:14:433,0.298,-0.257,0.93,-21.119,7.873,-65.247,
00:00:14:450,0.312,-0.261,0.924,-26.246,6.774,-71.106,
00:00:14:466,0.307,-0.266,0.916,-38.636,3.295,-77.393,
00:00:14:483,0.31,-0.26,0.913,-60.73,6.103,-68.177,
00:00:14:500,0.303,-0.244,0.916,-55.42,9.216,-60.852,
00:00:14:516,0.311,-0.25,0.92,-43.274,15.991,-57.435,
00:00:14:533,0.303,-0.252,0.92,-49.012,17.517,-50.965,
00:00:14:550,0.308,-0.257,0.917,-56.885,18.432,-53.894,
00:00:14:566,0.312,-0.232,0.924,-30.03,8.544,-44.922,
00:00:14:583,0.307,-0.236,0.918,-0.367,15.319,-50.721,
00:00:14:600,0.331,-0.281,0.921,-0.672,12.146,-55.298,
00:00:14:616,0.312,-0.258,0.922,-34.913,15.319,-38.88,
00:00:14:633,0.31,-0.249,0.915,-38.147,20.935,-46.631,
00:00:14:650,0.306,-0.229,0.915,-0.123,17.883,-36.255,
00:00:14:666,0.312,-0.244,0.916,11.901,18.066,-42.542,
00:00:14:683,0.309,-0.264,0.906,6.103,20.202,-38.514,
00:00:14:700,0.299,-0.272,0.933,-19.593,17.883,-37.232,
00:00:14:716,0.307,-0.229,0.915,-29.847,17.761,-28.992,
00:00:14:733,0.299,-0.241,0.908,7.873,13.916,-37.232,
00:00:14:750,0.291,-0.271,0.925,9.46,7.812,-45.411,
00:00:14:766,0.314,-0.246,0.917,-8.973,17.089,-31.189,
00:00:14:783,0.3,-0.257,0.926,14.099,10.315,-61.463,
00:00:14:800,0.311,-0.274,0.909,-2.015,10.803,-44.007,
00:00:14:816,0.307,-0.257,0.918,0.793,2.502,-44.19,
00:00:14:833,0.295,-0.245,0.896,2.38,11.352,-42.42,
00:00:14:850,0.293,-0.254,0.904,10.315,6.836,-51.758,
00:00:14:866,0.301,-0.246,0.911,-0.061,9.399,-44.19,
00:00:14:883,0.285,-0.229,0.891,11.962,20.752,-39.002,
00:00:14:900,0.306,-0.273,0.939,15.808,9.826,-52.674,
00:00:14:916,0.311,-0.246,0.91,13.488,9.704,-36.499,
00:00:14:933,0.287,-0.266,0.945,42.297,10.803,-47.547,
00:00:14:950,0.318,-0.262,0.916,21.423,8.911,-42.603,
00:00:14:966,0.283,-0.25,0.932,41.137,-1.099,-34.974,
00:00:14:983,0.31,-0.299,0.938,27.038,13.061,-49.439,
00:00:15:0,0.332,-0.254,0.893,19.714,4.699,-25.513,
00:00:15:16,0.282,-0.279,0.915,48.889,15.197,-50.049,
00:00:15:33,0.311,-0.281,0.903,32.531,-2.503,-49.073,
00:00:15:50,0.304,-0.262,0.901,35.705,-6.897,-38.025,
00:00:15:66,0.286,-0.266,0.853,33.386,26.184,-26.429,
00:00:15:83,0.275,-0.274,0.91,62.011,20.813,-32.532,
00:00:15:100,0.307,-0.19,0.871,69.091,37.597,-18.372,
00:00:15:116,0.294,-0.255,0.883,169.189,16.54,-38.086,
00:00:15:133,0.319,-0.275,0.876,135.925,33.447,-12.513,
00:00:15:150,0.277,-0.273,0.854,156.128,29.174,-18.311,
00:00:15:166,0.283,-0.293,0.836,168.029,54.565,-18.25,
00:00:15:183,0.302,-0.316,0.892,160.949,32.592,-28.26,
00:00:15:200,0.311,-0.29,0.857,132.409,8529.412,10544.176,
00:00:15:216,0.334,-0.189,0.853,186.34,33.874,3.112,
00:00:15:233,0.292,-0.255,0.857,330.81,25.024,-20.325,
00:00:15:250,0.319,-0.329,0.833,330.688,39.001,-11.841,
00:00:15:266,0.327,-0.311,0.803,330.078,51.269,18.493,
00:00:15:283,0.313,-0.37,0.806,321.96,49.499,-6.592,
00:00:15:300,0.325,-0.389,0.829,310.791,54.565,-10.132,
00:00:15:316,0.326,-0.39,0.869,313.11,38.757,-13.123,
00:00:15:333,0.335,-0.395,0.875,307.8,40.405,-21.851,
00:00:15:350,0.331,-0.389,0.83,315.734,36.682,-26.734,
00:00:15:366,0.301,-0.446,0.83,358.093,17.822,-56.153,
00:00:15:383,0.3,-0.47,0.874,303.405,-0.428,-48.584,
00:00:15:400,0.304,-0.485,0.819,246.765,19.714,-39.978,
00:00:15:416,0.298,-0.508,0.858,228.82,13.732,-46.326,
00:00:15:433,0.303,-0.495,0.839,240.112,15.319,-53.956,
00:00:15:450,0.313,-0.509,0.798,234.008,12.756,-62.439,
00:00:15:466,0.276,-0.541,0.797,263.122,20.385,-62.439,
00:00:15:483,0.245,-0.553,0.76,236.633,36.438,-47.486,
00:00:15:500,0.261,-0.574,0.764,215.149,56.64,-67.749,
00:00:15:516,0.302,-0.604,0.806,145.08,59.509,-79.285,
00:00:15:533,0.264,-0.57,0.799,96.435,68.603,-50.293,
00:00:15:550,0.253,-0.505,0.813,113.464,74.523,-58.899,
00:00:15:566,0.238,-0.511,0.726,166.015,90.332,-61.463,
00:00:15:583,0.257,-0.557,0.804,162.048,69.824,-54.017,
00:00:15:600,0.374,-0.553,0.768,33.203,109.13,-43.885,
00:00:15:616,0.369,-0.522,0.865,47.241,80.566,-7.813,
00:00:15:633,0.335,-0.532,0.869,81.359,72.387,-23.682,
00:00:15:650,0.369,-0.531,0.843,148.315,59.448,-45.227,
00:00:15:666,0.378,-0.567,0.802,212.646,37.841,-51.026,
00:00:15:683,0.361,-0.627,0.77,216.491,15.564,-72.937,
00:00:15:700,0.351,-0.652,0.733,147.644,14.892,-88.318,
00:00:15:716,0.337,-0.667,0.744,75.012,-1.587,-92.408,
00:00:15:733,0.307,-0.637,0.756,-6.531,7.751,-77.759,
00:00:15:750,0.314,-0.558,0.745,-38.758,25.756,-75.501,
00:00:15:766,0.329,-0.512,0.729,19.958,23.498,-85.144,
00:00:15:783,0.314,-0.526,0.724,102.722,19.165,-85.572,
00:00:15:800,0.305,-0.578,0.723,148.681,23.071,-79.956,
00:00:15:816,0.29,-0.624,0.708,133.484,36.01,-67.872,
00:00:15:833,0.282,-0.606,0.702,116.272,47.79,-60.914,
00:00:15:850,0.286,-0.629,0.703,129.638,37.353,-81.238,
00:00:15:866,0.293,-0.647,0.716,118.896,28.869,-84.412,
00:00:15:883,0.298,-0.634,0.714,91.613,37.414,-91.98,
00:00:15:900,0.309,-0.6,0.723,96.008,32.959,-98.694,
00:00:15:916,0.318,-0.595,0.719,113.769,27.832,-110.84,
00:00:15:933,0.319,-0.578,0.72,125.915,24.292,-104.126,
00:00:15:950,0.33,-0.58,0.724,160.705,2.38,-102.601,
00:00:15:966,0.336,-0.635,0.749,169.25,-23.987,-108.033,
00:00:15:983,0.346,-0.589,0.719,118.042,-25.696,-73.121,
00:00:16:0,0.347,-0.531,0.707,165.649,-25.94,-71.9,
00:00:16:16,0.344,-0.574,0.659,260.62,-47.425,-100.159,
00:00:16:33,0.333,-0.616,0.637,286.438,-65.186,-100.647,
00:00:16:50,0.297,-0.59,0.579,278.808,-43.335,-74.158,
00:00:16:66,0.257,-0.622,0.507,383.606,-27.771,-86.121,
00:00:16:83,0.237,-0.774,0.5,420.227,-46.936,-135.193,
00:00:16:100,0.206,-0.753,0.544,238.586,-8.789,-84.656,
00:00:16:116,0.214,-0.702,0.713,155.822,-2.869,-70.13,
00:00:16:133,0.342,-0.667,0.783,225.769,16.418,-120.606,
00:00:16:150,0.364,-0.701,0.734,508.911,-111.023,-148.865,
00:00:16:166,0.232,-0.838,0.641,600.158,-148.499,-170.594,
00:00:16:183,0.213,-0.899,0.59,496.276,-151.123,-203.125,
00:00:16:200,0.298,-0.828,0.543,263.916,-156.434,-163.147,
00:00:16:216,0.273,-0.781,0.619,320.861,-154.48,-169.007,
00:00:16:233,0.253,-0.759,0.507,337.524,-100.464,-158.02,
00:00:16:250,0.246,-0.741,0.532,467.163,-113.709,-170.899,
00:00:16:266,0.236,-0.796,0.561,543.274,-137.207,-126.954,
00:00:16:283,0.227,-0.797,0.464,562.317,-81.788,-130.494,
00:00:16:300,0.233,-0.85,0.493,638.733,-129.273,-126.282,
00:00:16:316,0.188,-0.971,0.41,643.31,-119.385,-146.302,
00:00:16:333,0.17,-0.929,0.434,297.546,-37.293,-85.206,
00:00:16:350,0.198,-0.786,0.445,293.457,-45.044,-80.994,
00:00:16:366,0.207,-0.898,0.413,557.983,-85.45,-98.084,
00:00:16:383,0.168,-0.947,0.39,494.262,-71.045,-56.519,
00:00:16:400,0.184,-0.922,0.365,431.152,-45.472,-51.819,
00:00:16:416,0.215,-0.997,0.346,421.936,-75.44,-88.685,
00:00:16:433,0.191,-0.985,0.361,456.054,-87.769,-64.393,
00:00:16:450,0.171,-1.047,0.351,512.268,-133.118,-135.193,
00:00:16:466,0.141,-1.07,0.339,491.76,-126.343,-117.31,
00:00:16:483,0.143,-1.039,0.306,447.631,-112.61,-119.019,
00:00:16:500,0.171,-1.074,0.271,462.402,-120.972,-155.213,
00:00:16:516,0.154,-1.113,0.258,486.633,-129.7,-178.589,
00:00:16:533,0.106,-1.152,0.245,475.708,-132.081,-195.191,
00:00:16:550,0.087,-1.225,0.272,428.527,-143.616,-225.159,
00:00:16:566,0.076,-1.253,0.207,285.949,-116.394,-231.995,
00:00:16:583,0.065,-1.256,0.222,273.986,-102.417,-265.87,
00:00:16:600,0.082,-1.294,0.204,252.197,-92.347,-323.243,
00:00:16:616,0.047,-1.28,0.208,217.468,-105.469,-330.994,
00:00:16:633,0.002,-1.297,0.153,170.227,-102.662,-384.339,flipLH
00:00:16:650,-0.027,-1.373,0.187,10.07,-115.906,-422.364,
00:00:16:667,-0.016,-1.346,0.153,-258.851,-93.323,-443.177,
00:00:16:683,0,-1.298,0.193,-447.754,-85.816,-482.239,
00:00:16:700,-0.06,-1.163,0.15,-492.432,-59.632,-460.694,
00:00:16:717,-0.061,-1.17,0.226,-463.44,-94.483,-524.781,
00:00:16:733,-0.002,-1.241,0.098,-635.01,-51.453,-529.908,
00:00:16:750,-0.029,-1.293,0.169,-951.661,-54.81,-537.354,
00:00:16:767,-0.049,-1.338,-0.014,-1351.502,-23.682,-624.939,
00:00:16:783,-0.029,-1.195,0.088,-1637.818,100.158,-594.3,
00:00:16:800,0.013,-1.043,0.094,-1736.451,148.559,-627.808,
00:00:16:817,-0.003,-1.061,0.184,-1789.673,176.574,-724.305,
00:00:16:833,-0.06,-1.036,0.199,-1981.873,249.817,-766.48,
00:00:16:850,-0.015,-0.862,0.027,-2000,448.303,-847.962,
00:00:16:867,-0.006,-0.787,0.117,-2000,575.012,-922.913,
00:00:16:883,-0.026,-0.599,0.155,-2000,711.059,-912.049,
00:00:16:900,-0.003,-0.284,0.32,-2000,770.263,-958.741,
00:00:16:917,0.091,-0.004,0.3,-2000,694.58,-1068.055,
00:00:16:933,0.094,0.053,0.27,-2000,643.127,-1123.658,
00:00:16:950,0.065,0.198,0.23,-2000,705.383,-1180.848,
00:00:16:967,0.02,0.15,0.135,-2000,788.635,-1314.759,
00:00:16:983,0.06,0.274,0.154,-2000,892.089,-1373.902,
00:00:17:0,0.147,0.723,0.271,-2000,976.867,-1409.424,
00:00:17:17,0.198,0.942,0.256,-1992.981,882.324,-1399.353,
00:00:17:33,0.273,1.236,0.342,-1282.349,797.851,-1300.293,
00:00:17:50,0.251,1.146,0.433,-527.649,566.589,-1236.878,
00:00:17:67,0.222,1.143,0.73,7.019,426.635,-1000.062,
00:00:17:83,0.215,0.983,0.951,163.025,403.747,-922.547,
00:00:17:100,0.271,0.91,0.947,280.761,407.898,-759.705,
00:00:17:117,0.179,0.207,0.593,561.706,274.963,-481.141,
00:00:17:133,1.015,1.909,2.448,-126.587,-169.312,-200.135,
00:00:17:150,0.648,1.168,1.079,-27.894,-94.91,-55.115,
00:00:17:167,0.508,1.152,1.068,-240.601,-2.381,214.599,
00:00:17:183,0.375,0.838,1.011,396.911,-469.422,304.87,
00:00:17:200,0.296,0.504,1.002,430.786,-478.028,411.01,
00:00:17:217,0.32,0.638,0.804,266.296,-317.933,367.126,
00:00:17:233,0.294,0.431,0.626,399.902,-270.569,271.118,
00:00:17:250,0.25,0.37,0.653,640.503,-276.123,305.847,
00:00:17:267,0.255,0.502,0.772,688.171,-203.919,289.428,
00:00:17:283,0.258,0.496,0.761,789.795,-227.173,312.622,
00:00:17:300,0.256,0.434,0.812,744.567,-225.464,356.079,
00:00:17:317,0.233,0.325,0.792,678.588,-209.473,371.582,
00:00:17:333,0.241,0.34,0.81,705.505,-219.361,465.576,
00:00:17:350,0.247,0.449,0.855,928.833,-241.028,567.321,
00:00:17:367,0.227,0.528,0.838,1415.893,-282.532,688.232,
00:00:17:383,0.212,0.531,0.743,1999.694,-457.276,777.465,
00:00:17:400,0.236,0.463,0.705,1999.694,-624.512,766.479,
00:00:17:417,0.238,0.207,0.638,1999.694,-731.019,619.69,
00:00:17:433,0.129,-0.067,0.636,1999.694,-756.043,497.863,
00:00:17:450,0.107,-0.506,0.709,1999.694,-933.045,403.32,
00:00:17:467,0.021,-0.574,0.694,1999.694,-904.114,377.136,
00:00:17:483,-0.031,-0.462,0.593,1999.694,-880.86,353.698,
00:00:17:500,-0.05,-0.59,0.428,1999.694,-952.454,159.79,
00:00:17:517,-0.091,-0.819,0.343,1999.694,-977.54,42.541,
00:00:17:533,-0.182,-1.054,0.367,1999.694,-848.084,48.767,
00:00:17:550,-0.247,-1.104,0.448,1590.271,-617.127,53.894,
00:00:17:567,-0.246,-1.156,0.536,946.96,-468.018,33.63,
00:00:17:583,-0.24,-1.137,0.628,527.465,-429.749,31.677,
00:00:17:600,-0.253,-1.078,0.619,176.391,-408.997,51.208,
00:00:17:617,-0.27,-0.996,0.645,-39.246,-359.07,50.17,
00:00:17:633,-0.288,-0.986,0.673,-120.606,-368.714,71.167,
00:00:17:650,-0.326,-0.986,0.647,-333.741,-328.492,102.234,
00:00:17:667,-0.335,-0.944,0.638,-581.116,-257.264,126.159,
00:00:17:683,-0.326,-0.895,0.662,-761.231,-212.098,139.343,
00:00:17:700,-0.334,-0.836,0.632,-780.823,-153.321,171.692,
00:00:17:717,-0.336,-0.723,0.7,-634.034,-128.235,192.688,
00:00:17:733,-0.315,-0.739,0.716,-399.903,-130.127,197.57,
00:00:17:750,-0.299,-0.738,0.713,-217.408,-131.226,206.97,
00:00:17:767,-0.288,-0.761,0.7,-114.808,-148.377,199.646,
00:00:17:783,-0.301,-0.809,0.623,-106.202,-141.114,196.777,
00:00:17:800,-0.277,-0.779,0.54,-142.945,-108.033,187.439,
00:00:17:817,-0.25,-0.829,0.505,-196.289,-95.032,152.526,
00:00:17:833,-0.271,-0.857,0.498,-301.88,-59.327,157.776,
00:00:17:850,-0.261,-0.854,0.537,-481.934,14.953,149.475,
00:00:17:867,-0.245,-0.856,0.594,-603.333,70.129,117.859,
00:00:17:883,-0.224,-0.78,0.668,-592.896,108.032,119.018,
00:00:17:900,-0.182,-0.685,0.795,-249.451,27.038,64.27,
00:00:17:917,-0.171,-0.732,0.828,-150.452,-24.72,41.015,
00:00:17:933,-0.177,-0.775,0.846,-156.434,-57.618,37.414,
00:00:17:950,-0.179,-0.756,0.833,-229.981,-61.768,34.79,
00:00:17:967,-0.165,-0.789,0.844,-339.356,-85.083,4.882,
00:00:17:983,-0.174,-0.894,0.848,-525.452,-109.803,-2.503,
00:00:18:0,-0.176,-0.929,0.895,-780.457,-96.375,-8.118,
00:00:18:17,-0.182,-0.899,0.915,-942.017,-106.751,-30.213,
00:00:18:33,-0.22,-0.841,0.955,-1010.437,-129.883,-48.34,
00:00:18:50,-0.292,-0.768,0.884,-990.906,-108.704,-67.994,
00:00:18:67,-0.322,-0.629,0.776,-804.871,-49.134,-83.558,
00:00:18:83,-0.257,-0.531,0.707,-619.751,-26.185,-153.26,
00:00:18:100,-0.237,-0.577,0.618,-526.734,14.282,-214.051,
00:00:18:117,-0.275,-0.558,0.66,-560.669,82.702,-200.501,
00:00:18:133,-0.299,-0.417,0.704,-553.284,171.142,-173.523,
00:00:18:150,-0.254,-0.238,0.641,-256.104,231.14,-147.889,
00:00:18:167,-0.259,-0.314,0.686,101.501,192.749,-176.819,
00:00:18:183,-0.27,-0.43,0.736,179.199,216.919,-173.157,
00:00:18:200,-0.275,-0.427,0.781,112.06,279.785,-131.287,
00:00:18:217,-0.264,-0.383,0.853,145.813,273.071,-123.963,
00:00:18:233,-0.235,-0.362,0.865,247.558,262.39,-129.639,
00:00:18:250,-0.223,-0.385,0.899,345.703,210.327,-122.132,
00:00:18:267,-0.228,-0.41,0.894,385.803,181.152,-106.263,
00:00:18:283,-0.214,-0.485,0.879,383.728,165.039,-92.286,
00:00:18:300,-0.203,-0.514,0.884,357.971,158.508,-81.727,
00:00:18:317,-0.206,-0.534,0.872,362.243,164.489,-80.994,
00:00:18:333,-0.17,-0.576,0.869,355.957,148.193,-93.506,
00:00:18:350,-0.149,-0.608,0.85,278.93,152.588,-78.736,
00:00:18:367,-0.112,-0.578,0.838,220.703,150.695,-69.519,
00:00:18:383,-0.143,-0.765,0.926,272.705,69.274,-130.066,
00:00:18:400,-0.01,-0.612,0.818,-194.764,148.376,1.709,
00:00:18:417,-0.038,-0.401,0.895,-109.131,133.239,-33.387,
00:00:18:433,-0.021,-0.498,0.784,88.378,104.614,-80.506,
00:00:18:450,-0.009,-0.701,0.871,54.138,105.774,-48.829,
00:00:18:467,0.099,-0.548,0.848,-136.902,163.635,23.193,
00:00:18:483,-0.047,-0.603,0.85,-23.499,111.511,-14.771,
00:00:18:500,0.016,-0.592,0.874,-88.135,152.038,27.038,
00:00:18:517,-0.004,-0.518,0.883,28.015,83.129,37.292,
00:00:18:533,-0.063,-0.611,0.926,78.064,52.612,6.836,
00:00:18:550,-0.015,-0.615,0.911,49.072,38.574,33.874,
00:00:18:567,-0.01,-0.563,0.862,102.966,4.577,22.644,
00:00:18:583,-0.053,-0.641,0.842,153.015,-30.213,-22.461,
00:00:18:600,-0.038,-0.651,0.865,101.928,-32.227,-14.466,
00:00:18:617,-0.068,-0.617,0.808,121.154,-38.147,6.408,
00:00:18:633,-0.122,-0.67,0.845,78.796,-33.326,-19.165,
00:00:18:650,-0.114,-0.591,0.815,58.837,-28.748,-2.137,
00:00:18:667,-0.17,-0.572,0.821,100.28,-29.908,-1.16,
00:00:18:683,-0.166,-0.583,0.782,99.792,-11.658,5.92,
00:00:18:700,-0.152,-0.565,0.741,85.754,22.766,10.864,
00:00:18:717,-0.145,-0.585,0.723,73.852,41.992,-7.935,
00:00:18:733,-0.176,-0.605,0.729,29.907,68.237,16.906,
00:00:18:750,-0.187,-0.581,0.733,-40.162,101.928,27.771,
00:00:18:767,-0.179,-0.547,0.753,-45.716,127.807,36.865,
00:00:18:783,-0.185,-0.588,0.775,-47.547,147.766,30.456,
00:00:18:800,-0.16,-0.584,0.772,-55.359,164.367,42.724,
00:00:18:817,-0.131,-0.578,0.777,-45.166,167.724,32.959,
00:00:18:833,-0.107,-0.597,0.782,-31.617,165.71,35.034,
00:00:18:850,-0.081,-0.585,0.796,-38.758,167.968,43.823,
00:00:18:867,-0.064,-0.585,0.814,-13.916,171.997,39.245,
00:00:18:883,-0.049,-0.615,0.822,-10.621,177.368,19.836,
00:00:18:900,-0.025,-0.599,0.807,-16.907,176.696,14.831,
00:00:18:917,-0.024,-0.594,0.802,-13.611,167.785,8.239,
00:00:18:933,-0.013,-0.613,0.807,-37.232,160.339,-2.991,
00:00:18:950,-0.02,-0.641,0.809,-73.67,148.254,-16.541,
00:00:18:967,-0.022,-0.602,0.826,-95.032,141.601,-14.283,
00:00:18:983,-0.03,-0.593,0.827,-73.365,127.746,-25.757,
00:00:19:0,-0.004,-0.615,0.811,-70.13,121.582,-36.744,
00:00:19:17,0.008,-0.624,0.807,-63.233,110.901,-33.326,
00:00:19:33,0.01,-0.608,0.781,-46.631,112.121,-29.114,
00:00:19:50,0.015,-0.654,0.792,-32.166,114.685,-33.081,
00:00:19:67,0.021,-0.626,0.805,-39.246,117.431,-31.617,
00:00:19:83,0.027,-0.617,0.835,-47.242,119.262,-31.678,
00:00:19:100,0.056,-0.616,0.852,-47.486,121.521,-34.79,
00:00:19:117,0.079,-0.587,0.835,-39.856,118.713,-30.762,
00:00:19:133,0.079,-0.585,0.846,-11.78,102.905,-33.265,
00:00:19:150,0.067,-0.549,0.865,12.451,102.111,-17.273,
00:00:19:167,0.075,-0.512,0.878,63.11,85.754,2.929,
00:00:19:183,0.067,-0.536,0.881,131.53,62.5,8.056,
00:00:19:200,0.075,-0.549,0.864,156.433,40.771,18.127,
00:00:19:217,0.066,-0.563,0.845,181.518,13.305,25.756,
00:00:19:233,0.075,-0.587,0.81,196.655,3.967,29.663,
00:00:19:250,0.082,-0.626,0.819,218.2,-1.893,34.729,
00:00:19:267,0.103,-0.633,0.848,254.455,-22.4,38.94,
00:00:19:283,0.101,-0.665,0.852,291.442,-43.763,34.423,
00:00:19:300,0.086,-0.688,0.828,294.311,-67.994,15.564,
00:00:19:317,0.047,-0.71,0.797,264.648,-79.407,4.638,
00:00:19:333,0.017,-0.728,0.75,225.525,-82.581,-5.86,
00:00:19:350,-0.019,-0.761,0.697,155.761,-78.248,-18.982,
00:00:19:367,-0.056,-0.773,0.67,37.475,-58.411,-24.048,
00:00:19:383,-0.082,-0.757,0.671,-102.784,-17.395,-16.968,
00:00:19:400,-0.095,-0.713,0.707,-191.346,21.972,-7.874,
00:00:19:417,-0.112,-0.67,0.713,-238.404,53.711,2.868,
00:00:19:433,-0.105,-0.648,0.737,-267.212,88.623,9.277,
00:00:19:450,-0.084,-0.656,0.769,-298.768,111.877,15.136,
00:00:19:467,-0.064,-0.63,0.795,-313.172,138.488,31.616,
00:00:19:483,-0.051,-0.615,0.81,-277.71,158.752,39.367,
00:00:19:500,-0.016,-0.607,0.795,-211.976,175.964,27.465,
00:00:19:517,0.006,-0.64,0.822,-150.879,180.175,28.32,
00:00:19:533,0.033,-0.659,0.831,-137.757,194.336,32.531,
00:00:19:550,0.042,-0.664,0.834,-103.76,196.411,35.888,
00:00:19:567,0.025,-0.683,0.853,-99.915,197.876,17.517,
00:00:19:583,0.051,-0.646,0.838,-97.596,195.617,16.601,
00:00:19:600,0.047,-0.645,0.844,-82.581,188.293,1.709,
00:00:19:617,0.089,-0.643,0.839,-94.605,184.692,-5.494,
00:00:19:633,0.111,-0.593,0.822,-64.698,184.265,-5.127,
00:00:19:650,0.121,-0.596,0.815,-54.139,174.499,-18.921,
00:00:19:667,0.108,-0.586,0.798,-55.542,172.973,-7.019,
00:00:19:683,0.108,-0.544,0.809,-49.805,170.593,6.347,
00:00:19:700,0.105,-0.544,0.805,-31.189,163.818,11.23,
00:00:19:717,0.111,-0.59,0.806,-38.697,161.56,9.094,
00:00:19:733,0.123,-0.599,0.804,-70.252,150.451,7.751,
00:00:19:750,0.111,-0.573,0.8,-81.421,143.493,17.395,
00:00:19:767,0.119,-0.567,0.793,-94.178,141.601,15.319,
00:00:19:783,0.125,-0.546,0.792,-74.036,151.733,27.099,
00:00:19:800,0.115,-0.562,0.784,-51.209,149.963,28.32,
00:00:19:817,0.121,-0.578,0.762,-45.655,158.447,27.954,
00:00:19:833,0.125,-0.591,0.754,-66.59,169.433,25.268,
00:00:19:850,0.125,-0.603,0.779,-104.859,184.631,28.869,
00:00:19:867,0.136,-0.595,0.799,-133.851,202.27,31.311,
00:00:19:883,0.123,-0.554,0.816,-111.573,218.811,46.386,
00:00:19:900,0.124,-0.522,0.821,-67.078,228.698,58.532,
00:00:19:917,0.141,-0.504,0.798,-10.926,218.933,74.401,
00:00:19:933,0.135,-0.531,0.805,26.001,252.441,84.716,
00:00:19:950,0.131,-0.565,0.804,7.934,266.906,94.909,
00:00:19:967,0.132,-0.522,0.804,14.465,271.789,111.633,
00:00:19:983,0.17,-0.528,0.75,31.189,279.052,95.764,
00:00:20:0,0.217,-0.581,0.782,-3.968,283.386,108.642,
00:00:20:17,0.231,-0.512,0.778,-36.255,304.565,144.897,
00:00:20:33,0.251,-0.439,0.739,7.69,323.12,168.701,
00:00:20:50,0.303,-0.435,0.719,66.101,324.585,166.748,
00:00:20:67,0.324,-0.478,0.674,93.994,325.073,168.823,
00:00:20:83,0.374,-0.492,0.66,18.737,333.496,159.423,
00:00:20:100,0.421,-0.438,0.687,-50.843,324.768,168.09,
00:00:20:117,0.416,-0.341,0.711,-74.524,302.368,172.241,
00:00:20:133,0.475,-0.368,0.813,-19.349,249.878,128.357,
00:00:20:150,0.705,-0.296,0.863,-59.937,197.998,50.659,
00:00:20:167,0.771,-0.277,0.842,29.174,98.266,40.161,
00:00:20:183,0.67,-0.239,0.771,129.821,18.249,52.917,
00:00:20:200,0.615,-0.108,0.696,312.866,-29.664,28.808,
00:00:20:217,0.504,-0.207,0.628,581.604,-92.652,-12.574,
00:00:20:233,0.411,-0.375,0.592,637.451,-114.136,-28.992,
00:00:20:250,0.377,-0.484,0.524,495.483,-113.16,-37.232,
00:00:20:267,0.353,-0.51,0.495,292.541,-93.811,-30.03,
00:00:20:283,0.35,-0.506,0.461,153.93,-54.749,-9.461,
00:00:20:300,0.357,-0.511,0.476,140.197,-33.02,-29.48,
00:00:20:317,0.362,-0.56,0.52,144.104,-13.428,-18.128,
00:00:20:333,0.319,-0.586,0.583,169.067,-10.01,9.765,
00:00:20:350,0.268,-0.505,0.686,249.084,6.408,49.987,
00:00:20:367,0.272,-0.501,0.651,449.829,20.996,12.207,
00:00:20:383,0.334,-0.617,0.566,578.674,7.08,-31.617,
00:00:20:400,0.363,-0.78,0.564,627.441,-22.095,-97.229,
00:00:20:417,0.305,-0.873,0.564,546.997,-19.165,-82.947,
00:00:20:433,0.286,-0.868,0.593,452.27,-11.719,-125.428,
00:00:20:450,0.311,-0.819,0.56,379.028,6.103,-147.4,
00:00:20:467,0.365,-0.728,0.552,423.156,-12.94,-169.617,
00:00:20:483,0.386,-0.724,0.441,489.318,-17.334,-211.182,
00:00:20:500,0.568,-0.778,0.786,767.334,-202.515,-308.655,
00:00:20:517,0.599,-0.881,0.577,726.318,-130.372,-296.326,
00:00:20:533,0.514,-1.052,0.497,861.877,-198.853,-387.574,
00:00:20:550,0.41,-1.147,0.38,609.008,-181.092,-372.132,
00:00:20:567,0.413,-1.092,0.502,197.387,-134.4,-335.633,
00:00:20:583,0.393,-0.884,0.527,112.121,-113.892,-273.804,
00:00:20:600,0.403,-0.778,0.428,220.031,-118.653,-277.1,
00:00:20:617,0.415,-0.925,0.488,372.009,-194.031,-312.867,
00:00:20:633,0.314,-1.001,0.491,332.519,-201.966,-270.997,
00:00:20:650,0.233,-1.015,0.373,245.971,-147.644,-263.306,flipLH
00:00:20:667,0.237,-1.112,0.34,266.906,-151.734,-281.617,
00:00:20:683,0.25,-1.053,0.43,112.06,-131.592,-241.456,
00:00:20:700,0.214,-0.956,0.429,80.932,-133.973,-243.897,
00:00:20:717,0.184,-0.989,0.398,156.494,-145.386,-273.987,
00:00:20:733,0.166,-1.078,0.386,225.83,-125.855,-278.26,
00:00:20:750,0.173,-1.091,0.424,174.743,-101.685,-236.695,
00:00:20:767,0.149,-1.095,0.428,109.802,-61.28,-227.723,
00:00:20:783,0.124,-1.112,0.425,75.5,-57.557,-233.033,
00:00:20:800,0.112,-1.118,0.461,-16.907,-67.2,-238.831,
00:00:20:817,0.105,-1.076,0.441,-126.709,-46.692,-243.714,
00:00:20:833,0.101,-1.069,0.428,-195.13,-46.692,-260.865,
00:00:20:850,0.064,-1.081,0.455,-275.025,-39.124,-250.916,
00:00:20:867,0.042,-0.964,0.492,-286.072,-33.265,-211.06,
00:00:20:883,0.048,-0.86,0.467,-190.674,-21.729,-217.469,
00:00:20:900,0.036,-0.831,0.469,-83.008,-22.828,-198.243,
00:00:20:917,0.026,-0.859,0.461,-37.903,-26.673,-189.27,
00:00:20:933,0.019,-0.913,0.442,-23.316,-3.663,-169.495,
00:00:20:950,0.024,-0.854,0.497,7.385,2.929,-124.329,
00:00:20:967,0.024,-0.812,0.473,94.055,-1.099,-109.62,
00:00:20:983,0.012,-0.827,0.462,233.154,-17.212,-99.305,
00:00:21:0,0.018,-0.919,0.468,278.747,-35.523,-93.934,
00:00:21:17,0.041,-0.994,0.424,196.655,-27.283,-101.563,
00:00:21:33,0.031,-1.035,0.429,72.082,-23.133,-101.014,
00:00:21:50,-0.015,-1.012,0.469,9.399,-20.63,-91.004,
00:00:21:67,-0.02,-0.949,0.545,64.819,-60.425,-99.244,
00:00:21:83,0.009,-1.001,0.543,127.197,-105.286,-140.87,
00:00:21:100,0.032,-1.076,0.545,90.026,-137.818,-140.564,
00:00:21:117,0.019,-1.12,0.483,-82.886,-151.429,-145.142,
00:00:21:133,0.004,-1.185,0.474,-266.053,-154.297,-149.048,
00:00:21:150,-0.014,-1.149,0.476,-398.255,-151.734,-155.335,
00:00:21:167,0.013,-1.087,0.488,-484.864,-142.334,-157.044,
00:00:21:183,0.039,-1.105,0.479,-522.278,-146.729,-181.397,
00:00:21:200,0.01,-1.153,0.462,-583.191,-140.503,-205.323,
00:00:21:217,0.01,-1.129,0.499,-658.265,-125.794,-226.563,
00:00:21:233,0.029,-1.081,0.5,-674.378,-130.31,-271.058,
00:00:21:250,0.036,-1.088,0.484,-733.46,-147.706,-323.731,
00:00:21:267,0.031,-1.101,0.449,-943.482,-144.165,-362.915,
00:00:21:283,0.027,-1.164,0.256,-1278.321,-115.174,-441.59,
00:00:21:300,0.034,-1.297,0.139,-1837.464,-38.392,-549.195,
00:00:21:317,-0.008,-1.263,0.173,-2000,123.291,-582.52,
00:00:21:333,0.029,-1.004,0.298,-2000,277.526,-584.717,
00:00:21:350,0.034,-0.718,0.388,-2000,314.88,-666.504,
00:00:21:367,0.05,-0.377,0.478,-2000,340.942,-704.834,
00:00:21:383,0.06,-0.077,0.435,-2000,323.242,-745.057,
00:00:21:400,0.062,0.082,0.33,-2000,306.945,-779.908,
00:00:21:417,0.018,0.169,0.237,-2000,349.609,-738.343,
00:00:21:433,-0.033,0.167,0.184,-2000,436.462,-711.853,
00:00:21:450,-0.08,0.096,0.178,-2000,569.275,-772.95,
00:00:21:467,-0.037,0.025,0.276,-1955.323,630.798,-858.033,
00:00:21:483,0.023,0.004,0.366,-2000,764.099,-980.957,
00:00:21:500,0.054,0.441,0.521,-2000,854.858,-1142.09,
00:00:21:517,0.116,1.122,0.424,-2000,983.764,-1243.348,
00:00:21:533,0.215,1.144,0.427,-1450.379,783.508,-1286.988,
00:00:21:550,0.34,1.346,0.687,-458.741,489.807,-1194.214,
00:00:21:567,0.367,1.159,0.889,575.622,157.592,-981.69,
00:00:21:583,0.321,0.795,0.864,1087.951,11.108,-756.409,
00:00:21:600,0.662,0.171,0.999,1231.811,-270.691,-478.882,
00:00:21:617,0.231,0.557,1.504,-1307.312,520.324,-515.015,
00:00:21:633,0.395,1.381,0.841,-960.328,73.242,71.838,
00:00:21:650,0.426,1.414,0.901,92.407,-392.456,232.483,
00:00:21:667,0.332,1.03,0.663,845.581,-647.034,351.074,
00:00:21:683,0.359,0.779,0.552,839.233,-548.279,383.117,
00:00:21:700,0.341,0.492,0.531,651.306,-445.435,346.374,
00:00:21:717,0.315,0.398,0.612,211.67,-185.914,270.568,
00:00:21:733,0.317,0.543,0.69,46.814,-67.078,245.3,
00:00:21:750,0.323,0.621,0.766,59.814,11.596,250,
00:00:21:767,0.387,0.778,0.924,275.451,3.784,341.186,
00:00:21:783,0.461,0.885,0.921,676.757,-108.704,538.391,
00:00:21:800,0.505,0.713,0.822,1221.984,-398.072,646.728,
00:00:21:817,0.458,0.484,0.898,1485.901,-568.97,736.389,
00:00:21:833,0.338,0.379,1.022,1548.889,-601.685,803.833,
00:00:21:850,0.284,0.364,1.016,1481.14,-613.77,812.683,
00:00:21:867,0.276,0.211,0.929,1312.439,-643.067,722.351,
00:00:21:883,0.219,0.121,0.979,1006.652,-563.416,708.923,
00:00:21:900,0.136,0.215,1.006,762.451,-469.117,742.431,
00:00:21:917,0.1,0.323,1.002,750.732,-419.556,726.989,
00:00:21:933,0.087,0.332,0.987,978.637,-471.924,722.961,
00:00:21:950,0.06,0.29,0.928,1206.115,-512.513,744.629,
00:00:21:967,0.02,0.174,0.887,1334.472,-520.325,731.262,
00:00:21:983,-0.075,-0.016,0.794,1425.293,-487.183,692.382,
00:00:22:0,-0.186,-0.274,0.844,1169.86,-456.665,582.153,
00:00:22:17,-0.217,-0.331,0.867,938.049,-447.205,568.542,
00:00:22:33,-0.261,-0.36,0.854,702.148,-403.077,575.561,
00:00:22:50,-0.306,-0.363,0.808,511.779,-353.455,554.748,
00:00:22:67,-0.305,-0.269,0.716,299.865,-225.647,493.835,
00:00:22:83,-0.306,-0.339,0.709,268.371,-205.933,343.139,
00:00:22:100,-0.399,-0.336,0.743,229.858,-142.64,391.967,
00:00:22:117,-0.413,-0.24,0.721,257.995,-45.289,396.85,
00:00:22:133,-0.401,-0.231,0.629,506.042,22.155,395.63,
00:00:22:150,-0.365,-0.295,0.675,715.881,38.757,330.444,
00:00:22:167,-0.338,-0.321,0.666,804.748,87.829,332.153,
00:00:22:183,-0.385,-0.471,0.682,738.403,165.1,304.504,
00:00:22:200,-0.35,-0.559,0.684,555.969,238.037,260.376,
00:00:22:217,-0.349,-0.57,0.718,419.983,305.175,246.826,
00:00:22:233,-0.312,-0.51,0.774,391.54,308.044,206.604,
00:00:22:250,-0.307,-0.58,0.788,368.774,323.242,146.728,
00:00:22:267,-0.252,-0.65,0.825,274.414,321.594,89.965,
00:00:22:283,-0.252,-0.649,0.853,185.119,320.861,63.964,
00:00:22:300,-0.244,-0.566,0.859,145.263,310.974,31.372,
00:00:22:317,-0.228,-0.551,0.835,131.958,302.246,-29.664,
00:00:22:333,-0.187,-0.582,0.837,65.795,286.132,-51.453,
00:00:22:350,-0.115,-0.503,0.922,33.325,222.717,-85.755,
00:00:22:367,-0.036,-0.469,0.984,55.786,170.776,-102.295,
00:00:22:383,0.002,-0.417,0.896,132.629,145.019,-56.153,
00:00:22:400,-0.027,-0.498,0.874,261.169,122.009,-81.055,
00:00:22:417,0.015,-0.519,0.983,350.341,67.749,-49.805,
00:00:22:433,0.097,-0.524,0.967,410.217,17.578,-47.974,
00:00:22:450,0.132,-0.582,0.996,476.318,-78.675,-68.177,
00:00:22:467,0.163,-0.603,0.934,484.924,-136.658,-54.749,
00:00:22:483,0.152,-0.568,0.862,568.908,-188.782,-43.641,
00:00:22:500,0.139,-0.606,0.828,670.471,-231.141,-46.448,
00:00:22:517,0.107,-0.69,0.739,733.764,-241.15,-42.542,
00:00:22:533,0.067,-0.772,0.684,671.63,-227.051,-28.321,
00:00:22:550,0.046,-0.825,0.748,547.058,-247.193,-3.846,
00:00:22:567,-0.051,-0.796,0.58,432.556,-135.071,37.536,
00:00:22:583,0.078,-0.749,0.59,250,-83.008,58.471,
00:00:22:600,-0.053,-0.671,0.616,255.859,-99.06,104.736,
00:00:22:617,-0.034,-0.754,0.557,287.353,-30.335,49.621,
00:00:22:633,-0.059,-0.835,0.612,259.826,-48.706,101.684,
00:00:22:650,-0.093,-0.814,0.631,184.692,5.676,108.337,
00:00:22:667,-0.059,-0.802,0.601,217.712,18.005,94.665,
00:00:22:683,-0.133,-0.846,0.63,256.775,15.808,71.716,
00:00:22:700,-0.112,-0.857,0.651,231.262,37.231,62.622,
00:00:22:717,-0.114,-0.842,0.678,221.191,15.014,68.42,
00:00:22:733,-0.129,-0.869,0.711,191.894,12.085,40.1,
00:00:22:750,-0.104,-0.896,0.72,166.748,2.929,33.752,
00:00:22:767,-0.131,-0.901,0.679,163.33,-3.052,9.704,
00:00:22:783,-0.155,-0.927,0.699,124.511,-4.7,-4.517,
00:00:22:800,-0.165,-0.849,0.689,83.129,-4.395,-4.578,
00:00:22:817,-0.203,-0.84,0.647,78.735,8.911,-3.785,
00:00:22:833,-0.195,-0.834,0.619,82.641,29.235,-18.677,
00:00:22:850,-0.182,-0.781,0.598,102.844,50.476,3.906,
00:00:22:867,-0.2,-0.841,0.607,138.916,67.932,-4.029,
00:00:22:883,-0.192,-0.879,0.584,171.692,79.589,10.009,
00:00:22:900,-0.191,-0.871,0.605,158.386,89.904,15.014,
00:00:22:917,-0.166,-0.88,0.562,114.074,105.774,2.929,
00:00:22:933,-0.155,-0.902,0.557,54.504,125.305,1.77,
00:00:22:950,-0.144,-0.873,0.569,24.414,146.911,6.713,
00:00:22:967,-0.128,-0.875,0.59,44.738,156.311,-9.949,
00:00:22:983,-0.119,-0.85,0.588,124.817,152.038,0.366,
00:00:23:0,-0.128,-0.89,0.546,133.972,151.367,-20.997,
00:00:23:17,-0.098,-0.891,0.537,76.965,172.119,-0.794,
00:00:23:33,-0.098,-0.874,0.526,33.081,188.964,15.747,
00:00:23:50,-0.061,-0.912,0.573,-7.203,227.478,36.254,
00:00:23:67,-0.054,-0.92,0.568,-18.006,228.942,57.128,
00:00:23:83,-0.062,-0.932,0.571,-26.795,243.713,79.834,
00:00:23:100,-0.048,-0.977,0.582,-43.519,244.079,79.345,
00:00:23:117,-0.026,-0.998,0.592,-79.468,250.793,103.393,
00:00:23:133,-0.002,-0.986,0.622,-100.831,253.845,125.61,
00:00:23:150,0.032,-0.992,0.608,-128.174,247.985,128.601,
00:00:23:167,0.075,-0.978,0.561,-198.609,259.765,135.62,
00:00:23:183,0.087,-0.928,0.583,-247.864,271.24,179.016,
00:00:23:200,0.132,-0.89,0.587,-257.691,271.24,187.988,
00:00:23:217,0.142,-0.897,0.568,-234.07,282.165,222.29,
00:00:23:233,0.17,-0.666,0.578,-334.839,315.734,322.815,
00:00:23:250,0.151,-0.66,0.503,-243.531,316.772,357.238,
00:00:23:267,0.132,-0.781,0.548,-200.562,337.158,321.167,
00:00:23:283,0.278,-0.655,0.736,-179.566,279.541,373.901,
00:00:23:300,0.195,-0.632,0.632,66.711,216.674,344.482,
00:00:23:317,0.226,-0.779,0.595,132.08,188.232,270.019,
00:00:23:333,0.217,-0.77,0.627,68.603,123.352,322.815,
00:00:23:350,0.203,-0.635,0.61,40.771,102.661,344.482,
00:00:23:367,0.234,-0.586,0.61,75.012,82.214,346.74,
00:00:23:383,0.26,-0.563,0.587,109.375,63.659,373.413,
00:00:23:400,0.247,-0.637,0.557,116.15,73.852,392.761,
00:00:23:417,0.282,-0.667,0.556,55.664,94.299,464.05,
00:00:23:433,0.237,-0.778,0.447,67.504,119.812,466.064,
00:00:23:450,0.252,-0.843,0.547,90.148,87.89,367.981,
00:00:23:467,0.27,-0.86,0.531,63.293,66.467,304.992,
00:00:23:483,0.314,-0.86,0.554,-8.423,62.316,280.456,
00:00:23:500,0.355,-0.807,0.543,-69.336,57.067,256.408,
00:00:23:517,0.369,-0.76,0.523,-80.201,56.64,204.712,
00:00:23:533,0.36,-0.735,0.489,-94.91,74.218,172.363,
00:00:23:550,0.373,-0.698,0.494,-134.461,78.125,158.325,
00:00:23:567,0.334,-0.641,0.553,-131.043,87.89,151.489,
00:00:23:583,0.313,-0.638,0.576,-115.662,84.594,121.887,
00:00:23:600,0.45,-0.586,0.497,-190.918,101.989,97.229,
00:00:23:617,0.418,-0.502,0.499,-137.818,94.848,156.189,
00:00:23:633,0.413,-0.555,0.376,-30.518,150.756,94.299,
00:00:23:650,0.458,-0.607,0.428,-35.34,160.522,79.406,
00:00:23:667,0.468,-0.5,0.447,-91.248,201.599,63.476,
00:00:23:683,0.489,-0.458,0.494,-36.194,213.501,30.334,
00:00:23:700,0.557,-0.477,0.677,37.963,184.997,-61.524,
00:00:23:717,0.652,-0.686,0.808,-80.201,115.661,-207.947,
00:00:23:733,0.861,-0.341,0.614,-279.847,146.911,-82.154,
00:00:23:750,0.668,-0.385,0.644,74.035,75.256,-161.255,
00:00:23:767,0.779,-0.471,0.566,125.488,71.106,-219.788,
00:00:23:783,0.757,-0.455,0.524,204.101,51.391,-180.359,
00:00:23:800,0.652,-0.46,0.515,226.806,45.776,-191.04,
00:00:23:817,0.572,-0.44,0.468,237.915,28.32,-193.116,
00:00:23:833,0.527,-0.445,0.476,294.433,-17.334,-230.774,
00:00:23:850,0.522,-0.46,0.344,346.557,-6.531,-233.826,
00:00:23:867,0.537,-0.57,0.28,463.684,24.658,-264.405,
00:00:23:883,0.471,-0.66,0.364,524.658,13.305,-279.541,
00:00:23:900,0.212,-0.691,0.423,550.903,10.681,-205.689,
00:00:23:917,0.15,-0.604,0.398,556.335,33.447,-256.653,
00:00:23:933,0.25,-0.938,0.21,563.293,-0.916,-393.433,
00:00:23:950,0.215,-0.975,0.303,511.657,57.251,-340.21,
00:00:23:967,0.223,-0.957,0.3,517.028,94.97,-291.443,
00:00:23:983,0.185,-0.913,0.383,603.027,89.05,-258.423,
00:00:24:0,0.156,-0.925,0.391,667.175,52.429,-278.565,
00:00:24:17,0.288,-1.072,0.286,669.86,17.761,-289.002,
00:00:24:33,0.376,-1.289,0.356,740.173,-21.912,-352.539,
00:00:24:50,0.283,-1.349,0.286,721.313,-73.487,-408.814,
00:00:24:67,0.292,-1.193,0.243,348.571,-33.326,-418.946,
00:00:24:83,0.334,-1.005,0.266,274.536,-83.741,-388.916,
00:00:24:100,0.304,-0.961,0.161,427.124,-117.432,-381.592,
00:00:24:117,0.339,-1.074,0.071,608.886,-136.048,-423.523,
00:00:24:133,0.3,-1.226,0.081,592.529,-141.541,-416.748,
00:00:24:150,0.172,-1.292,0.065,449.646,-130.372,-391.114,
00:00:24:167,0.135,-1.258,0.05,193.603,-108.216,-392.09,
00:00:24:183,0.138,-1.173,0.052,16.662,-93.934,-340.332,
00:00:24:200,0.198,-1.103,0.065,120.971,-48.768,-251.648,
00:00:24:217,0.136,-1.097,0.072,164.734,-69.031,-242.249,
00:00:24:233,0.103,-1.126,0.062,151.428,-92.102,-273.987,
00:00:24:250,0.117,-1.169,0.046,42.602,-91.858,-267.518,
00:00:24:267,0.111,-1.125,0.003,-64.698,-65.796,-254.822,
00:00:24:283,0.064,-1.11,0.015,-69.214,-57.74,-272.583,
00:00:24:300,0.044,-1.116,0.031,-79.285,-63.05,-277.649,
00:00:24:317,0.011,-1.11,0.044,-126.709,-48.951,-271.424,
00:00:24:333,0.002,-1.073,0.048,-125.123,-36.072,-267.273,
00:00:24:350,-0.007,-1.192,0.053,-121.582,-34.729,-306.519,
00:00:24:367,-0.016,-1.276,0.154,-193.726,-46.265,-322.998,
00:00:24:383,-0.026,-1.316,0.164,-327.576,-69.886,-373.536,
00:00:24:400,-0.039,-1.254,0.157,-464.539,-75.074,-384.888,
00:00:24:417,-0.039,-1.172,0.146,-496.949,-78.431,-410.584,
00:00:24:433,-0.051,-1.23,0.095,-578.919,-79.895,-430.359,
00:00:24:450,-0.083,-1.354,0.043,-871.949,-45.166,-427.063,
00:00:24:467,-0.122,-1.312,0.123,-1190.979,-19.898,-392.823,
00:00:24:483,-0.132,-1.052,0.156,-1242.615,35.095,-364.624,
00:00:24:500,-0.092,-0.908,0.256,-1006.165,29.541,-390.442,
00:00:24:517,-0.072,-0.927,0.186,-743.958,25.634,-392.701,
00:00:24:533,-0.078,-1.044,0.109,-742.92,60.73,-396.729,
00:00:24:550,-0.101,-1.207,-0.035,-1166.687,110.962,-408.753,
00:00:24:567,-0.111,-1.325,-0.02,-1920.289,218.078,-418.213,
00:00:24:583,-0.122,-1.289,0.094,-2000,340.698,-438.782,
00:00:24:600,-0.1,-1.054,0.204,-2000,452.209,-504.883,
00:00:24:617,0.028,-0.744,0.333,-2000,521.24,-533.875,
00:00:24:633,0.081,-0.541,0.329,-2000,525.207,-617.432,
00:00:24:650,0.038,-0.23,0.391,-2000,561.401,-629.456,flipLH
00:00:24:667,0.023,0.019,0.415,-2000,610.351,-640.992,
00:00:24:683,0.087,0.205,0.378,-2000,639.221,-698.121,
00:00:24:700,0.112,0.222,0.328,-2000,653.747,-781.434,
00:00:24:717,0.02,0.267,0.318,-2000,729.004,-774.598,
00:00:24:733,-0.066,0.255,0.39,-2000,765.991,-882.874,
00:00:24:750,-0.046,0.019,0.491,-1992.066,736.45,-1062.439,
00:00:24:767,-0.07,0.023,0.536,-1932.435,789.734,-1156.861,
00:00:24:783,-0.023,0.39,0.656,-1890.564,864.074,-1369.446,
00:00:24:800,0.095,0.733,0.512,-1424.988,849.853,-1585.694,
00:00:24:817,0.261,1.045,0.659,-620.362,663.757,-1553.528,
00:00:24:833,0.381,1.081,0.742,-114.441,480.346,-1443.665,
00:00:24:850,0.401,0.874,0.927,289.062,269.348,-1313.782,
00:00:24:867,0.423,0.86,1.562,-872.681,510.986,-742.371,
00:00:24:883,0.819,1.439,1.793,-1279.847,-12.818,-276.673,
00:00:24:900,0.456,1.442,1.1,-966.98,-15.137,99.365,
00:00:24:917,0.339,1.256,0.915,199.096,-469.361,291.992,
00:00:24:933,0.558,1.05,0.746,897.827,-733.582,372.619,
00:00:24:950,0.381,0.427,0.588,828.979,-640.87,391.723,
00:00:24:967,0.392,0.309,0.716,493.042,-533.326,377.441,
00:00:24:983,0.329,0.321,0.663,-22.034,-245.179,311.95,
00:00:25:0,0.36,0.553,0.753,-223.328,-90.455,275.94,
00:00:25:17,0.421,0.74,0.839,98.327,-114.197,395.752,
00:00:25:33,0.467,0.708,0.831,524.231,-278.931,512.146,
00:00:25:50,0.452,0.471,0.908,768.493,-432.007,575.439,
00:00:25:67,0.36,0.305,1.039,656.982,-427.002,624.084,
00:00:25:83,0.296,0.362,1.099,492.126,-356.141,668.823,
00:00:25:100,0.306,0.517,1.057,606.14,-366.517,730.59,
00:00:25:117,0.365,0.634,1.062,965.576,-466.797,820.068,
00:00:25:133,0.391,0.531,0.946,1405.334,-696.656,847.107,
00:00:25:150,0.291,0.193,0.854,1531.616,-835.755,747.802,
00:00:25:167,0.14,-0.037,0.914,1145.752,-757.081,712.402,
00:00:25:183,-0.016,-0.075,0.999,483.886,-591.858,707.519,
00:00:25:200,-0.105,0.15,1.099,-78.186,-418.519,762.512,
00:00:25:217,-0.099,0.431,1.075,-172.181,-329.529,805.236,
00:00:25:233,-0.078,0.599,0.946,328.064,-391.297,881.469,
00:00:25:250,-0.155,0.533,0.832,922.851,-470.765,904.174,
00:00:25:267,-0.304,0.347,0.789,1348.022,-449.891,859.069,
00:00:25:283,-0.407,0.219,0.735,1393.737,-318.055,822.631,
00:00:25:300,-0.357,0.006,0.632,974.426,-196.167,593.444,
00:00:25:317,-0.306,-0.076,0.547,611.389,-86.792,594.299,
00:00:25:333,-0.338,-0.021,0.516,516.113,19.47,719.177,
00:00:25:350,-0.401,0.069,0.512,679.26,133.85,793.884,
00:00:25:367,-0.335,0.034,0.468,991.699,232.788,770.263,
00:00:25:383,-0.289,-0.187,0.407,1243.408,359.985,667.236,
00:00:25:400,-0.132,-0.434,0.602,1070.861,344.116,572.876,
00:00:25:417,-0.119,-0.425,0.603,934.875,427.124,648.315,
00:00:25:433,-0.04,-0.475,0.61,949.035,441.589,496.765,
00:00:25:450,0.015,-0.755,0.658,980.102,317.443,302.185,
00:00:25:467,-0.034,-0.862,0.787,881.347,261.901,298.034,
00:00:25:483,-0.107,-0.755,0.743,853.698,256.836,208.374,
00:00:25:500,-0.13,-0.797,0.749,834.045,207.397,58.471,
00:00:25:517,-0.16,-0.814,0.865,736.694,191.711,-6.775,
00:00:25:533,-0.175,-0.729,0.998,662.597,156.677,-56.58,
00:00:25:550,-0.11,-0.683,1.064,616.577,103.027,-138.001,
00:00:25:567,-0.073,-0.582,1.111,631.958,15.38,-153.321,
00:00:25:583,-0.051,-0.565,1.054,646.362,-66.04,-191.468,
00:00:25:600,-0.024,-0.596,1.002,621.093,-117.798,-185.425,
00:00:25:617,-0.045,-0.61,0.963,586.914,-130.31,-145.264,
00:00:25:633,-0.222,-0.989,0.663,283.569,36.071,-144.471,
00:00:25:650,0.078,-0.878,0.713,-138.367,-95.52,-180.481,
00:00:25:667,-0.156,-0.444,0.665,-173.523,26.855,88.378,
00:00:25:683,-0.092,-0.386,0.786,106.079,-7.691,-12.452,
00:00:25:700,-0.146,-0.697,0.773,345.337,-21.973,-34.729,
00:00:25:717,-0.088,-0.806,0.85,132.69,25.573,24.902,
00:00:25:733,-0.097,-0.852,0.854,122.558,-23.133,-51.819,
00:00:25:750,-0.068,-0.798,0.816,101.745,-66.346,-73.792,
00:00:25:767,-0.093,-0.771,0.771,103.698,-90.21,-95.337,
00:00:25:783,-0.121,-0.759,0.723,64.209,-74.097,-95.398,
00:00:25:800,-0.166,-0.706,0.677,44.372,-64.881,-89.661,
00:00:25:817,-0.213,-0.658,0.651,73.181,-27.771,-79.529,
00:00:25:833,-0.255,-0.682,0.666,92.468,9.277,-68.421,
00:00:25:850,-0.256,-0.703,0.673,76.66,45.471,-46.326,
00:00:25:867,-0.248,-0.707,0.693,63.415,82.824,-20.691,
00:00:25:883,-0.219,-0.669,0.699,102.6,117.675,-4.212,
00:00:25:900,-0.196,-0.699,0.69,131.652,139.587,3.418,
00:00:25:917,-0.155,-0.723,0.672,116.882,162.475,20.874,
00:00:25:933,-0.14,-0.738,0.675,104.126,178.1,38.879,
00:00:25:950,-0.109,-0.77,0.684,74.279,195.861,26.367,
00:00:25:967,-0.084,-0.806,0.676,30.334,185.058,9.399,
00:00:25:983,-0.077,-0.86,0.667,-88.196,181.579,-17.456,
00:00:26:0,-0.037,-0.753,0.644,-176.148,187.744,-45.96,
00:00:26:17,-0.053,-0.722,0.645,-191.346,176.757,-47.73,
00:00:26:33,-0.002,-0.681,0.648,-214.905,187.439,-51.148,
00:00:26:50,-0.034,-0.655,0.655,-191.712,172.79,-55.054,
00:00:26:67,-0.039,-0.696,0.686,-177.979,168.029,-69.764,
00:00:26:83,-0.032,-0.685,0.701,-166.748,155.273,-68.726,
00:00:26:100,-0.049,-0.7,0.701,-136.658,140.258,-93.934,
00:00:26:117,-0.03,-0.72,0.688,-142.029,132.751,-102.845,
00:00:26:133,-0.01,-0.695,0.704,-151.612,118.347,-91.126,
00:00:26:150,-0.015,-0.707,0.711,-163.086,111.084,-94.178,
00:00:26:167,0.002,-0.713,0.727,-188.477,107.36,-95.093,
00:00:26:183,0.001,-0.68,0.727,-169.617,96.008,-106.507,
00:00:26:200,-0.003,-0.677,0.75,-150.94,87.158,-119.751,
00:00:26:217,0.016,-0.62,0.748,-138.306,69.702,-112.061,
00:00:26:233,-0.007,-0.591,0.744,-99.732,59.448,-107.666,
00:00:26:250,0.03,-0.567,0.739,-75.928,73.608,-104.493,
00:00:26:267,0.023,-0.585,0.72,-18.494,76.965,-96.009,
00:00:26:283,0.002,-0.592,0.722,20.813,96.191,-65.674,
00:00:26:300,-0.01,-0.588,0.73,33.752,119.262,-30.213,
00:00:26:317,-0.019,-0.626,0.76,21.789,126.709,-20.508,
00:00:26:333,-0.036,-0.652,0.803,-15.503,146.484,-6.47,
00:00:26:350,-0.113,-0.613,0.803,26.855,142.7,2.929,
00:00:26:367,-0.118,-0.576,0.76,46.203,144.104,26.367,
00:00:26:383,-0.136,-0.617,0.702,99.182,162.292,43.762,
00:00:26:400,-0.123,-0.665,0.708,95.031,195.068,78.796,
00:00:26:417,-0.123,-0.65,0.705,99.426,222.107,101.379,
00:00:26:433,-0.125,-0.692,0.714,112.487,246.582,82.58,
00:00:26:450,-0.016,-0.563,0.806,158.935,271.24,116.272,
00:00:26:467,-0.02,-0.639,0.68,450.683,216.858,56.762,
00:00:26:483,-0.062,-0.972,0.659,390.075,212.463,-15.076,
00:00:26:500,-0.007,-0.909,0.737,109.192,249.206,46.447,
00:00:26:517,0.045,-0.652,0.813,81.909,235.595,56.457,
00:00:26:533,0.047,-0.634,0.754,288.086,201.782,4.15,
00:00:26:550,-0.011,-0.702,0.709,401.611,178.222,23.559,
00:00:26:567,0.039,-0.71,0.693,382.141,181.762,40.344,
00:00:26:583,0.079,-0.78,0.685,350.586,184.387,51.208,
00:00:26:600,0.069,-0.867,0.7,304.199,179.016,43.09,
00:00:26:617,0.118,-0.889,0.715,251.037,167.785,0,
00:00:26:633,0.13,-0.891,0.71,207.946,131.408,-0.733,
00:00:26:650,0.128,-0.894,0.689,166.748,106.262,-22.828,
00:00:26:667,0.089,-0.81,0.624,109.558,101.135,5.432,
00:00:26:683,0.338,-1.123,0.771,201.66,20.996,-282.105,
00:00:26:700,0.545,-0.805,0.564,-73.609,-44.739,-54.871,
00:00:26:717,-0.113,-0.745,0.367,-37.964,-4.456,28.564,
00:00:26:733,0.123,-0.823,0.446,-159.79,131.775,-160.767,
00:00:26:750,0.41,-0.851,0.476,-215.516,168.701,-35.279,
00:00:26:767,0.191,-0.853,0.58,-200.44,183.105,40.222,
00:00:26:783,0.095,-0.757,0.638,-167.115,232.971,44.86,
00:00:26:800,0.106,-0.714,0.638,14.099,195.8,3.906,
00:00:26:817,0.129,-0.802,0.697,100.402,149.658,-8.973,
00:00:26:833,0.125,-0.821,0.684,72.021,118.652,16.662,
00:00:26:850,0.119,-0.711,0.706,96.313,110.901,47.729,
00:00:26:867,0.178,-0.655,0.684,229.919,109.13,79.04,
00:00:26:883,0.214,-0.753,0.666,324.035,102.417,100.83,
00:00:26:900,0.282,-0.81,0.651,322.631,118.103,123.291,
00:00:26:917,0.279,-0.716,0.712,345.703,101.501,174.316,
00:00:26:933,0.143,-0.781,0.629,449.524,53.711,181.274,
00:00:26:950,0.189,-0.91,0.594,378.418,54.87,134.826,
00:00:26:967,0.203,-0.926,0.538,317.016,42.48,188.72,
00:00:26:983,0.068,-0.962,0.539,293.151,24.536,163.696,
00:00:27:0,0.052,-0.938,0.495,253.234,30.7,128.784,
00:00:27:17,0.025,-0.905,0.536,247.131,25.94,124.206,
00:00:27:33,-0.023,-0.816,0.512,242.126,27.648,122.192,
00:00:27:50,-0.038,-0.831,0.437,271.24,49.621,115.661,
00:00:27:67,-0.066,-0.902,0.43,249.267,69.519,108.398,
00:00:27:83,-0.001,-0.947,0.336,102.905,115.6,99.975,
00:00:27:100,0.023,-0.974,0.353,0.793,152.526,124.267,
00:00:27:117,0.084,-0.935,0.368,-77.454,200.5,109.924,
00:00:27:133,0.129,-0.875,0.373,-57.801,227.356,99.67,
00:00:27:150,0.161,-0.824,0.379,-33.57,248.047,93.078,
00:00:27:167,0.195,-0.806,0.408,-95.093,267.334,103.881,
00:00:27:183,0.285,-0.762,0.408,-170.594,299.438,105.835,
00:00:27:200,0.343,-0.755,0.489,-209.595,296.02,116.821,
00:00:27:217,0.381,-0.639,0.47,-212.22,295.532,163.818,
00:00:27:233,0.406,-0.615,0.451,-71.167,264.038,146.85,
00:00:27:250,0.472,-0.693,0.368,-81.421,274.536,60.546,
00:00:27:267,0.557,-0.636,0.44,-42.725,253.601,109.13,
00:00:27:283,0.44,-0.683,0.481,30.578,208.862,72.326,
00:00:27:300,0.431,-0.766,0.498,-3.602,175.293,26.855,
00:00:27:317,0.384,-0.835,0.389,-70.008,156.982,-13.977,
00:00:27:333,0.366,-0.805,0.438,-119.385,116.394,-66.407,
00:00:27:350,0.36,-0.774,0.413,-225.831,102.111,-118.897,
00:00:27:367,0.374,-0.636,0.46,-201.172,99.731,-111.695,
00:00:27:383,0.337,-0.593,0.426,5.188,82.153,-98.572,
00:00:27:400,0.345,-0.704,0.424,214.294,62.866,-118.653,
00:00:27:417,0.352,-0.867,0.462,194.397,63.842,-96.68,
00:00:27:433,0.337,-0.943,0.476,9.46,81.543,-57.496,
00:00:27:450,0.342,-0.974,0.455,-243.531,105.285,-52.979,
00:00:27:467,0.341,-0.927,0.503,-464.844,130.371,-46.143,
00:00:27:483,0.497,-0.734,0.742,-281.373,79.834,-87.708,
00:00:27:500,0.569,-0.72,0.675,16.662,-2.625,-139.893,
00:00:27:517,0.447,-0.816,0.635,396.423,-138.672,-126.282,
00:00:27:533,0.308,-1.029,0.57,349.365,-206.299,-177.002,
00:00:27:550,0.323,-1.003,0.582,-25.208,-159.852,-146.973,
00:00:27:567,0.369,-0.915,0.447,-347.168,-127.564,-144.654,
00:00:27:583,0.369,-0.851,0.444,-534.79,-108.887,-136.719,
00:00:27:600,0.308,-0.703,0.515,-487.122,-79.895,-87.22,
00:00:27:617,0.283,-0.644,0.587,-197.388,-124.207,-67.933,
00:00:27:633,0.319,-0.69,0.639,-6.47,-161.377,-57.557,
00:00:27:650,0.336,-0.749,0.644,102.356,-208.924,-43.091,
00:00:27:667,0.296,-0.771,0.59,79.956,-214.478,5.859,
00:00:27:683,0.239,-0.854,0.415,54.016,-156.861,-25.33,
00:00:27:700,0.267,-0.821,0.524,105.163,-186.341,-29.419,
00:00:27:717,0.271,-0.795,0.486,92.773,-157.776,-0.977,
00:00:27:733,0.272,-0.769,0.477,207.031,-157.654,-3.907,
00:00:27:750,0.283,-0.705,0.489,383.056,-166.077,11.657,
00:00:27:767,0.319,-0.744,0.431,557.556,-174.378,-26.185,
00:00:27:783,0.306,-0.952,0.289,647.522,-157.654,-57.679,
00:00:27:800,0.245,-1.111,0.31,549.133,-167.786,-75.318,
00:00:27:817,0.207,-1.015,0.425,92.224,-63.05,-12.207,
00:00:27:833,0.252,-0.756,0.467,-10.926,-32.593,-22.156,
00:00:27:850,0.311,-0.66,0.417,275.39,-66.163,-57.312,
00:00:27:867,0.315,-0.8,0.411,518.798,-125.306,-76.844,
00:00:27:883,0.255,-0.945,0.385,542.663,-138.123,-63.294,
00:00:27:900,0.223,-0.999,0.336,371.887,-94.544,-61.707,
00:00:27:917,0.249,-0.994,0.328,260.559,-84.595,-86.731,
00:00:27:933,0.256,-0.942,0.317,257.324,-86.182,-94.422,flipLH
00:00:27:950,0.223,-0.937,0.339,310.852,-108.826,-125.245,
00:00:27:967,0.199,-0.952,0.375,301.391,-117.92,-138.306,
00:00:27:983,0.179,-0.965,0.332,222.107,-105.103,-141.846,
00:00:28:0,0.174,-0.95,0.318,149.353,-96.192,-144.043,
00:00:28:17,0.171,-0.958,0.349,126.953,-91.004,-104.615,
00:00:28:33,0.187,-0.959,0.347,128.54,-74.097,-94.727,
00:00:28:50,0.201,-1.017,0.308,115.783,-80.262,-112.549,
00:00:28:67,0.185,-1.048,0.302,45.654,-93.262,-116.456,
00:00:28:83,0.161,-1.058,0.259,-73.67,-80.994,-130.494,
00:00:28:100,0.174,-1.042,0.282,-153.809,-76.355,-164.185,
00:00:28:117,0.175,-1.005,0.297,-155.518,-61.341,-161.255,
00:00:28:133,0.17,-0.917,0.348,-79.834,-63.416,-153.077,
00:00:28:150,0.158,-0.85,0.318,44.677,-68.055,-138.001,
00:00:28:167,0.171,-0.905,0.322,140.075,-90.516,-148.499,
00:00:28:183,0.16,-0.97,0.268,100.647,-78.98,-125.428,
00:00:28:200,0.165,-1.012,0.252,-21.607,-61.951,-121.766,
00:00:28:217,0.166,-1.027,0.282,-131.47,-40.162,-110.657,
00:00:28:233,0.162,-0.942,0.353,-119.263,-28.382,-96.558,
00:00:28:250,0.157,-0.952,0.35,221.557,-78.675,-142.029,
00:00:28:267,0.128,-1.043,0.308,190.979,-88.379,-140.931,
00:00:28:283,0.111,-1.154,0.348,59.814,-94.056,-158.57,
00:00:28:300,0.083,-1.166,0.382,-84.046,-71.289,-148.621,
00:00:28:317,0.088,-1.133,0.475,-80.018,-91.553,-184.082,
00:00:28:333,0.054,-1.129,0.475,23.864,-106.812,-212.464,
00:00:28:350,-0.027,-1.254,0.434,0.793,-109.314,-240.174,
00:00:28:367,-0.019,-1.274,0.418,-162.598,-81.116,-227.417,
00:00:28:383,0.004,-1.3,0.449,-320.862,-88.379,-255.86,
00:00:28:400,0.012,-1.283,0.457,-463.746,-100.708,-290.406,
00:00:28:417,0.006,-1.262,0.441,-572.937,-123.841,-336.243,
00:00:28:433,-0.02,-1.255,0.423,-711.06,-134.949,-384.827,
00:00:28:450,-0.045,-1.138,0.35,-872.498,-96.924,-390.748,
00:00:28:467,-0.015,-1.022,0.423,-916.016,-91.248,-396.729,
00:00:28:483,-0.016,-1.031,0.433,-986.023,-101.258,-424.195,
00:00:28:500,-0.032,-1.013,0.431,-1117.005,-89.234,-426.636,
00:00:28:517,-0.052,-1.035,0.393,-1365.052,-63.904,-474.732,
00:00:28:533,-0.078,-1.01,0.269,-1707.459,6.591,-482.178,
00:00:28:550,-0.076,-0.987,0.218,-2000,106.079,-490.357,
00:00:28:567,-0.084,-0.869,0.279,-2000,201.599,-459.107,
00:00:28:583,-0.098,-0.652,0.349,-2000,284.668,-453.309,
00:00:28:600,-0.103,-0.48,0.287,-2000,389.099,-494.141,
00:00:28:617,-0.079,-0.341,0.414,-2000,412.17,-561.89,
00:00:28:633,-0.038,-0.13,0.528,-2000,464.111,-561.707,
00:00:28:650,0.008,0.023,0.54,-2000,382.446,-615.784,
00:00:28:667,0.005,0.129,0.512,-2000,320.556,-621.766,
00:00:28:683,-0.075,0.154,0.476,-2000,415.954,-612.549,
00:00:28:700,-0.133,0.191,0.404,-2000,514.77,-632.203,
00:00:28:717,-0.132,0.183,0.339,-2000,563.903,-698.731,
00:00:28:733,-0.121,0.2,0.332,-2000,666.565,-729.126,
00:00:28:750,-0.084,0.492,0.351,-2000,794.067,-877.381,
00:00:28:767,0.002,0.83,0.335,-2000,912.475,-1085.267,
00:00:28:783,0.154,1.114,0.245,-2000,994.812,-1203.675,
00:00:28:800,0.275,1.072,0.341,-595.887,516.113,-1108.399,
00:00:28:817,0.278,0.752,0.537,249.267,402.16,-1055.359,
00:00:28:833,0.357,0.588,0.838,490.295,396.972,-1097.962,
00:00:28:850,0.461,0.597,0.901,179.26,481.018,-1078.98,
00:00:28:867,0.632,0.818,0.943,-259.339,469.055,-991.7,
00:00:28:883,0.693,0.819,0.703,-331.849,353.454,-752.442,
00:00:28:900,0.791,1.058,0.96,-252.564,13.061,-360.718,
00:00:28:917,0.63,1.79,1.072,-862.549,304.443,16.235,
00:00:28:933,0.694,1.793,0.813,-134.461,-13.245,292.053,
00:00:28:950,0.719,0.993,0.634,743.957,-598.633,413.452,
00:00:28:967,0.535,0.382,0.641,841.43,-702.027,522.338,
00:00:28:983,0.352,0.142,0.615,509.46,-502.991,540.039,
00:00:29:0,0.261,0.349,0.751,-193.848,-213.318,266.174,
00:00:29:17,0.405,0.655,0.783,-793.335,47.729,83.19,
00:00:29:33,0.538,0.973,0.739,-627.93,45.471,233.642,
00:00:29:50,0.519,1.039,0.665,-11.597,-116.822,371.704,
00:00:29:67,0.419,0.771,0.614,663.94,-407.41,455.2,
00:00:29:83,0.342,0.536,0.61,873.23,-463.379,497.985,
00:00:29:100,0.298,0.458,0.659,900.573,-420.35,508.545,
00:00:29:117,0.305,0.477,0.675,871.948,-401.185,511.779,
00:00:29:133,0.291,0.358,0.54,763.672,-405.335,492.37,
00:00:29:150,0.276,0.322,0.617,523.315,-364.685,465.698,
00:00:29:167,0.22,0.369,0.711,301.025,-276.246,470.581,
00:00:29:183,0.135,0.539,0.775,276.428,-138.367,500.549,
00:00:29:200,0.15,0.781,0.836,600.036,-112.732,515.625,
00:00:29:217,0.184,0.841,0.749,1232.788,-211.121,566.223,
00:00:29:233,0.175,0.69,0.697,1944.641,-485.535,592.102,
00:00:29:250,0.121,0.393,0.698,1999.694,-677.185,585.876,
00:00:29:267,-0.011,-0.023,0.617,1999.694,-657.837,501.831,
00:00:29:283,-0.138,-0.304,0.658,1643.859,-451.844,427.551,
00:00:29:300,-0.177,-0.315,0.782,692.81,-237.183,286.438,
00:00:29:317,-0.155,-0.099,0.828,-105.957,11.108,240.722,
00:00:29:333,-0.144,0.288,0.908,-309.388,152.099,259.643,
00:00:29:350,-0.164,0.571,0.894,128.357,146.606,273.803,
00:00:29:367,-0.141,0.597,0.867,985.778,-57.801,317.199,
00:00:29:383,-0.12,0.349,0.909,1658.996,-284.607,322.143,
00:00:29:400,-0.176,0.03,0.932,1857.849,-344.727,316.589,
00:00:29:417,-0.213,-0.15,0.917,1697.998,-304.81,275.085,
00:00:29:433,-0.189,-0.272,0.931,1403.32,-282.776,213.44,
00:00:29:450,-0.143,-0.284,0.881,1191.406,-296.814,200.256,
00:00:29:467,-0.161,-0.233,0.824,1186.157,-318.726,203.43,
00:00:29:483,-0.217,-0.287,0.759,1259.399,-321.289,142.822,
00:00:29:500,-0.237,-0.43,0.795,1234.802,-298.462,106.079,
00:00:29:517,-0.191,-0.498,0.859,1071.167,-247.925,53.161,
00:00:29:533,-0.168,-0.517,0.901,903.686,-225.098,32.653,
00:00:29:550,-0.191,-0.501,0.963,814.087,-259.766,28.747,
00:00:29:567,-0.216,-0.446,1.089,855.407,-306.153,42.541,
00:00:29:583,-0.203,-0.37,1.016,1035.583,-354.004,39.917,
00:00:29:600,-0.243,-0.414,0.916,1244.812,-411.927,-0.855,
00:00:29:617,-0.337,-0.581,0.786,1361.145,-446.839,1.037,
00:00:29:633,-0.404,-0.652,0.731,1203.064,-406.861,-2.625,
00:00:29:650,-0.334,-0.704,0.688,840.759,-301.026,-28.504,
00:00:29:667,-0.33,-0.765,0.676,649.047,-285.462,-33.02,
00:00:29:683,-0.342,-0.78,0.688,507.995,-260.621,-18.494,
00:00:29:700,-0.339,-0.803,0.673,455.871,-288.331,-31.861,
00:00:29:717,-0.328,-0.87,0.666,382.934,-319.092,-45.227,
00:00:29:733,-0.331,-0.913,0.638,211.486,-305.237,-46.57,
00:00:29:750,-0.307,-0.878,0.625,-13.489,-252.381,-41.504,
00:00:29:767,-0.287,-0.805,0.618,-193.726,-208.802,-33.814,
00:00:29:783,-0.303,-0.741,0.633,-261.048,-188.416,-17.029,
00:00:29:800,-0.316,-0.689,0.693,-245.667,-197.022,-14.283,
00:00:29:817,-0.325,-0.71,0.721,-186.402,-226.746,-11.292,
00:00:29:833,-0.324,-0.738,0.745,-105.53,-269.715,-18.799,
00:00:29:850,-0.31,-0.757,0.73,-76.661,-267.823,-10.132,
00:00:29:867,-0.314,-0.728,0.697,-75.928,-246.827,1.709,
00:00:29:883,-0.339,-0.669,0.689,-35.584,-244.751,27.343,
00:00:29:900,-0.373,-0.658,0.674,51.269,-264.527,33.996,
00:00:29:917,-0.402,-0.692,0.65,110.046,-276.246,32.47,
00:00:29:933,-0.444,-0.724,0.618,129.333,-272.339,40.954,
00:00:29:950,-0.474,-0.735,0.571,112.548,-225.037,47.485,
00:00:29:967,-0.484,-0.741,0.555,94.726,-186.707,46.386,
00:00:29:983,-0.481,-0.754,0.548,72.265,-147.889,52.734,
00:00:30:0,-0.491,-0.771,0.569,52.856,-133.912,52.917,
00:00:30:17,-0.504,-0.772,0.572,16.296,-118.592,44.25,
00:00:30:33,-0.51,-0.781,0.564,-13.367,-107.544,27.16,
00:00:30:50,-0.491,-0.799,0.531,-47.12,-86.792,2.99,
00:00:30:67,-0.48,-0.814,0.52,-82.459,-44.861,-19.104,
00:00:30:83,-0.485,-0.794,0.528,-125.123,3.112,-22.217,
00:00:30:100,-0.492,-0.764,0.55,-136.109,41.137,-31.922,
00:00:30:117,-0.492,-0.757,0.577,-122.193,54.687,-43.58,
00:00:30:133,-0.508,-0.762,0.609,-98.45,60.913,-44.678,
00:00:30:150,-0.499,-0.78,0.656,-78.98,75.5,-53.284,
00:00:30:167,-0.479,-0.787,0.665,-65.003,102.844,-45.472,
00:00:30:183,-0.449,-0.802,0.677,-63.538,112.793,-49.317,
00:00:30:200,-0.421,-0.829,0.673,-81.421,130.981,-84.351,
00:00:30:217,-0.42,-0.904,0.7,-127.381,153.93,-103.272,
00:00:30:233,-0.436,-0.904,0.771,-187.317,188.903,-86.792,
00:00:30:250,-0.427,-0.889,0.824,-248.291,235.229,-106.385,
00:00:30:267,-0.39,-0.85,0.876,-281.25,296.081,-144.104,
00:00:30:283,-0.363,-0.812,0.881,-283.936,330.871,-183.228,
00:00:30:300,-0.36,-0.757,0.919,-254.7,338.867,-173.951,
00:00:30:317,-0.323,-0.659,0.891,-196.839,362.304,-153.016,
00:00:30:333,-0.267,-0.658,0.88,-75.135,349.365,-120.789,
00:00:30:350,-0.234,-0.69,0.877,8.361,311.584,-71.717,
00:00:30:367,-0.183,-0.725,0.862,26.672,264.221,-50.904,
00:00:30:383,-0.192,-0.766,0.809,42.663,179.931,-17.945,
00:00:30:400,-0.141,-0.701,0.65,37.902,56.579,67.749,
00:00:30:417,-0.168,-0.674,0.581,103.149,-11.414,144.043,
00:00:30:433,-0.246,-0.688,0.514,130.066,-41.993,192.199,
00:00:30:450,-0.341,-0.733,0.483,125.549,-58.96,216.491,
00:00:30:467,-0.381,-0.763,0.436,27.221,-11.414,202.514,
00:00:30:483,-0.399,-0.773,0.379,-115.235,38.391,163.452,
00:00:30:500,-0.41,-0.715,0.364,-168.702,56.274,132.385,
00:00:30:517,-0.361,-0.654,0.412,-209.961,95.764,117.431,
00:00:30:533,-0.252,-0.643,0.412,-204.224,153.625,96.801,
00:00:30:550,-0.196,-0.595,0.414,-179.688,198.913,59.326,
00:00:30:567,-0.204,-0.625,0.464,-109.864,226.318,-6.958,
00:00:30:583,-0.208,-0.582,0.608,-102.601,255.615,4.333,
00:00:30:600,-0.201,-0.545,0.651,-19.165,277.16,11.474,
00:00:30:617,-0.219,-0.585,0.739,99.426,227.234,-2.259,
00:00:30:633,-0.205,-0.635,0.77,169.555,165.1,5.798,
00:00:30:650,-0.26,-0.678,0.787,184.631,113.22,23.498,
00:00:30:667,-0.288,-0.713,0.766,153.564,84.899,16.601,
00:00:30:683,-0.344,-0.666,0.709,172.79,118.408,37.902,
00:00:30:700,-0.4,-0.679,0.704,237.426,136.718,52.734,
00:00:30:717,-0.445,-0.636,0.684,293.579,206.237,87.646,
00:00:30:733,-0.465,-0.648,0.67,388.427,279.907,73.608,
00:00:30:750,-0.453,-0.729,0.661,393.921,355.407,49.804,
00:00:30:767,-0.412,-0.72,0.646,373.23,406.677,55.908,
00:00:30:783,-0.372,-0.718,0.632,360.351,454.345,42.053,
00:00:30:800,-0.289,-0.782,0.604,351.257,474.426,23.132,
00:00:30:817,-0.261,-0.814,0.594,323.608,492.004,43.701,
00:00:30:833,-0.226,-0.819,0.612,307.678,503.234,42.846,
00:00:30:850,-0.155,-0.843,0.646,284.851,517.028,45.776,
00:00:30:867,-0.082,-0.9,0.662,233.825,510.986,46.997,
00:00:30:883,-0.025,-0.917,0.668,156.25,484.741,32.592,
00:00:30:900,0.014,-0.894,0.658,98.632,439.392,22.583,
00:00:30:917,0.031,-0.852,0.627,39.001,374.511,13.671,
00:00:30:933,0.056,-0.774,0.62,55.786,326.172,20.324,
00:00:30:950,0.085,-0.755,0.581,142.089,266.296,15.441,
00:00:30:967,0.118,-0.802,0.662,208.313,190.49,24.902,
00:00:30:983,0.037,-0.857,0.234,121.276,309.082,57.739,
00:00:31:0,0.235,-0.839,0.489,39.978,195.434,8.056,
00:00:31:17,0.209,-0.862,0.365,69.091,150.695,2.197,
00:00:31:33,0.14,-0.97,0.436,18.371,136.963,-10.01,
00:00:31:50,0.257,-0.967,0.475,-83.802,124.817,-15.137,
00:00:31:67,0.282,-1.063,0.518,-180.726,88.012,-36.438,
00:00:31:83,0.305,-1.055,0.636,-269.654,21.728,-57.19,
00:00:31:100,0.295,-0.945,0.697,-285.584,-82.703,-80.994,
00:00:31:117,0.159,-0.823,0.675,-222.168,-192.566,-86.609,
00:00:31:133,0.033,-0.724,0.627,-182.557,-266.175,-89.051,
00:00:31:150,0.001,-0.653,0.567,-123.536,-325.867,-87.891,
00:00:31:167,-0.065,-0.627,0.52,-57.679,-352.784,-66.59,
00:00:31:183,-0.124,-0.651,0.51,15.136,-360.413,-58.289,
00:00:31:200,-0.158,-0.669,0.515,80.505,-338.501,-28.626,
00:00:31:217,-0.162,-0.745,0.523,127.99,-316.285,-28.565,
00:00:31:233,-0.178,-0.832,0.598,119.995,-282.654,-18.921,
00:00:31:250,-0.209,-0.919,0.702,102.783,-262.146,-37.11,
00:00:31:267,-0.236,-0.982,0.785,77.819,-269.959,-74.036,
00:00:31:283,-0.226,-0.958,0.836,25.39,-306.885,-111.023,
00:00:31:300,-0.229,-0.88,0.805,-0.977,-320.679,-126.954,
00:00:31:317,-0.232,-0.83,0.745,15.319,-317.139,-130.738,
00:00:31:333,-0.242,-0.823,0.702,49.865,-292.481,-115.54,
00:00:31:350,-0.269,-0.868,0.668,64.392,-249.939,-103.882,
00:00:31:367,-0.297,-0.918,0.678,-6.653,-207.276,-96.863,
00:00:31:383,-0.333,-0.972,0.704,-138.733,-184.632,-111.451,
00:00:31:400,-0.378,-1,0.713,-341.309,-166.81,-122.254,
00:00:31:417,-0.407,-0.983,0.709,-549.622,-147.339,-141.297,
00:00:31:433,-0.476,-0.957,0.658,-770.997,-91.004,-156.617,
00:00:31:450,-0.563,-0.904,0.639,-954.651,1.342,-182.496,
00:00:31:467,-0.569,-0.834,0.684,-1090.455,98.755,-203.37,
00:00:31:483,-0.526,-0.717,0.735,-1122.193,160.278,-187.561,
00:00:31:500,-0.543,-0.649,0.76,-1050.538,212.036,-173.89,
00:00:31:517,-0.525,-0.617,0.791,-987.977,279.235,-179.2,
00:00:31:533,-0.519,-0.622,0.81,-953.37,332.58,-160.279,
00:00:31:550,-0.536,-0.629,0.838,-963.379,393.493,-168.641,
00:00:31:567,-0.498,-0.577,0.861,-969.422,441.406,-166.748,
00:00:31:583,-0.447,-0.44,0.928,-866.944,443.237,-124.878,
00:00:31:600,-0.398,-0.377,0.89,-612.732,428.772,-107.117,
00:00:31:617,-0.334,-0.422,0.817,-390.076,410.339,-81.177,
00:00:31:633,-0.241,-0.498,0.74,-289.673,438.354,-81.36,
00:00:31:650,-0.172,-0.56,0.694,-240.845,470.276,-57.312,
00:00:31:667,-0.143,-0.526,0.713,-195.862,500.122,-2.381,
00:00:31:683,-0.13,-0.52,0.658,-151.551,548.034,-2.381,
00:00:31:700,-0.048,-0.553,0.695,-121.827,559.143,0.488,
00:00:31:717,0.046,-0.578,0.681,-126.526,553.894,-20.569,
00:00:31:733,0.06,-0.64,0.681,-168.213,573.852,-9.644,
00:00:31:750,0.104,-0.664,0.696,-281.189,583.923,-35.706,
00:00:31:767,0.198,-0.619,0.836,-398.438,566.772,28.381,
00:00:31:783,0.15,-0.457,0.721,-460.45,624.633,0,
00:00:31:800,0.127,-0.45,0.913,-475.586,526.733,-28.382,
00:00:31:817,0.097,-0.351,0.978,-473.084,542.907,39.184,
00:00:31:833,0.176,-0.389,0.943,-349.244,552.612,29.113,
00:00:31:850,0.225,-0.512,0.931,-378.724,531.86,31.005,
00:00:31:867,0.229,-0.438,0.895,-470.52,489.441,71.899,
00:00:31:883,0.163,-0.3,0.877,-470.643,461.975,94.848,
00:00:31:900,0.196,-0.289,0.846,-397.339,483.581,79.65,
00:00:31:917,0.21,-0.278,0.736,-409.668,536.56,116.333,
00:00:31:933,0.268,-0.269,0.783,-459.534,546.692,148.376,
00:00:31:950,0.312,-0.076,0.744,-403.016,555.053,218.505,
00:00:31:967,0.343,-0.124,0.733,-307.068,506.347,150.146,
00:00:31:983,0.37,-0.252,0.764,-272.644,490.356,146.789,
00:00:32:0,0.429,-0.165,0.739,-247.925,463.195,174.865,
00:00:32:17,0.416,-0.226,0.725,-208.374,438.415,92.346,
00:00:32:33,0.458,-0.131,0.668,-208.558,441.284,182.556,
00:00:32:50,0.482,-0.018,0.66,-172.303,406.433,117.37,
00:00:32:67,0.563,-0.019,0.634,-128.113,430.42,82.153,
00:00:32:83,0.627,0.076,0.543,-72.51,414.734,103.149,
00:00:32:100,0.738,-0.441,1.05,-318.665,257.019,-143.799,
00:00:32:117,0.927,0.482,0.906,-227.539,363.159,394.348,
00:00:32:133,0.979,0.233,1.25,16.479,79.834,-74.769,
00:00:32:150,0.985,0.058,0.854,61.95,157.776,4.638,
00:00:32:167,1.029,0.178,0.763,18.127,-186.28,16.357,
00:00:32:183,0.661,0.275,0.893,40.893,-296.509,47.729,
00:00:32:200,0.589,0.317,0.67,211.242,-30.274,126.648,
00:00:32:217,0.701,0.271,0.396,388.61,-23.56,48.156,
00:00:32:233,0.636,0.007,0.457,466.797,-135.437,88.195,
00:00:32:250,0.626,-0.052,0.558,346.984,-39.124,162.841,
00:00:32:267,0.66,-0.006,0.555,315.857,-44.678,157.959,
00:00:32:283,0.698,-0.019,0.83,377.075,-216.126,140.564,
00:00:32:300,0.505,-0.165,1.156,909.546,-435.181,-20.813,
00:00:32:317,0.482,-0.241,0.97,608.886,-208.069,290.588,
00:00:32:333,0.444,-0.241,0.72,612.732,-337.586,162.414,
00:00:32:350,0.391,-0.418,0.516,603.332,-272.95,120.727,
00:00:32:367,0.36,-0.575,0.527,501.098,-282.837,101.989,
00:00:32:383,0.292,-0.516,0.607,337.219,-194.275,135.376,
00:00:32:400,0.176,-0.422,0.681,276.123,-114.197,178.894,
00:00:32:417,0.233,-0.413,0.775,220.276,-16.968,164.428,
00:00:32:433,0.226,-0.401,0.655,416.32,2.624,147.766,
00:00:32:450,0.178,-0.634,0.956,482.116,19.836,33.325,
00:00:32:467,0.25,-0.67,1.002,420.654,-12.696,50.598,
00:00:32:483,0.203,-0.727,1.015,381.775,-23.926,-62.195,
00:00:32:500,0.229,-0.778,1.13,288.269,-94.544,-138.184,
00:00:32:517,0.156,-0.623,1.017,162.048,-93.873,-140.503,
00:00:32:533,0.093,-0.524,0.998,119.934,-70.435,-141.602,
00:00:32:550,0.217,-0.622,1.021,-24.414,-27.71,-113.77,
00:00:32:567,0.286,-0.585,0.983,-178.833,53.222,-67.749,
00:00:32:583,0.239,-0.578,1.045,-175.232,90.271,-94.91,
00:00:32:600,0.162,-0.623,1.044,-191.59,98.755,-119.751,
00:00:32:617,0.231,-0.604,1.04,-333.435,143.066,-129.334,
00:00:32:633,0.26,-0.384,0.975,-257.325,135.498,-107.789,
00:00:32:650,0.108,-0.446,0.818,-60.547,160.156,-172.364,
00:00:32:667,0.155,-0.481,0.811,-123.414,184.57,-150.818,
00:00:32:683,0.084,-0.388,0.823,-250.061,207.397,-149.537,
00:00:32:700,0.196,-0.415,0.919,-366.578,205.383,-199.769,
00:00:32:717,0.311,-0.37,0.965,-461.609,181.396,-177.613,
00:00:32:733,0.336,-0.343,0.919,-454.712,152.404,-236.634,
00:00:32:750,0.324,-0.431,0.872,-484.986,115.478,-293.091,
00:00:32:767,0.29,-0.635,0.706,-778.504,123.84,-382.63,
00:00:32:783,0.341,-0.533,0.832,-1214.356,137.695,-377.808,
00:00:32:800,0.376,-0.19,0.802,-1294.495,111.267,-365.784,
00:00:32:817,0.334,-0.248,0.964,-963.501,-9.888,-516.297,
00:00:32:833,0.506,-0.292,0.885,-964.966,7.629,-513.367,
00:00:32:850,0.48,-0.191,0.823,-854.92,-41.871,-505.188,
00:00:32:867,0.364,-0.16,0.919,-819.336,-54.322,-515.32,
00:00:32:883,0.379,0.177,0.932,-753.235,-47.791,-378.418,
00:00:32:900,0.295,0.279,0.947,-434.144,-74.219,-303.284,
00:00:32:917,0.306,0.3,0.95,-161.927,-78.919,-251.709,
00:00:32:933,0.416,0.28,0.88,-27.771,-60.425,-123.291,
00:00:32:950,0.426,0.252,0.842,68.542,-44.861,-16.724,
00:00:32:967,0.457,0.238,0.835,122.558,-28.199,68.603,
00:00:32:983,0.447,0.332,0.927,141.113,-76.966,205.566,
00:00:33:0,0.403,0.468,0.98,172.058,-85.816,349.609,
00:00:33:17,0.449,0.455,0.847,308.899,-77.576,443.603,
00:00:33:33,0.513,0.347,0.749,452.819,-113.038,549.377,
00:00:33:50,0.499,0.275,0.684,585.083,-110.901,628.479,
00:00:33:67,0.519,0.205,0.607,688.598,-86.853,727.478,
00:00:33:83,0.53,0.091,0.592,884.826,-91.004,705.993,
00:00:33:100,0.552,0.029,0.626,987.854,-85.694,780.944,
00:00:33:117,0.521,-0.117,0.515,1105.468,-53.772,753.357,
00:00:33:133,0.572,-0.411,0.381,1143.859,4.882,655.151,
00:00:33:150,0.64,-0.767,0.553,1068.786,-81.849,436.889,
00:00:33:167,0.543,-0.715,0.563,666.748,3.906,528.747,
00:00:33:183,0.26,-0.486,0.584,808.288,41.015,331.665,
00:00:33:200,0.297,-0.513,0.479,1227.844,69.58,160.888,
00:00:33:217,0.329,-0.783,0.464,1376.526,63.049,-39.795,
00:00:33:233,0.25,-1.04,0.524,1194.58,133.972,-119.263,
00:00:33:250,0.109,-1.084,0.477,767.456,270.568,-154.297,
00:00:33:267,0.107,-0.984,0.622,434.143,313.354,-241.517,
00:00:33:283,0.129,-0.658,0.785,236.328,369.751,-211.06,
00:00:33:300,0.285,-0.411,0.861,269.836,339.111,-269.349,
00:00:33:317,0.309,-0.51,0.913,493.164,287.963,-376.465,
00:00:33:334,0.233,-0.66,0.921,546.386,244.201,-343.995,
00:00:33:350,0.226,-0.702,0.94,466.735,206.97,-313.904,
00:00:33:367,0.269,-0.718,0.839,351.135,195.617,-302.613,
00:00:33:384,0.322,-0.82,0.859,290.893,134.704,-348.755,
00:00:33:400,0.329,-0.849,0.876,35.4,103.454,-350.769,
00:00:33:417,0.345,-0.557,0.872,-200.989,161.56,-228.76,
00:00:33:434,0.42,-0.445,1.119,52.307,77.392,-262.207,
00:00:33:450,0.543,-0.389,0.819,283.081,91.369,-248.841,
00:00:33:467,0.504,-0.558,0.772,866.577,-186.646,-342.835,
00:00:33:484,0.269,-0.964,0.765,851.074,-241.944,-366.944,
00:00:33:500,0.313,-0.946,0.71,377.99,-143.677,-252.869,
00:00:33:517,0.428,-0.745,0.67,77.636,-106.141,-243.103,
00:00:33:534,0.396,-0.581,0.612,177.856,-127.442,-226.075,
00:00:33:550,0.309,-0.646,0.624,328.552,-160.584,-234.314,
00:00:33:567,0.22,-0.639,0.612,237.732,-128.174,-130.921,
00:00:33:584,0.274,-0.591,0.549,163.025,-114.38,-77.393,
00:00:33:600,0.308,-0.6,0.489,240.844,-110.779,-56.214,
00:00:33:617,0.318,-0.627,0.517,312.194,-110.718,-31.617,
00:00:33:634,0.297,-0.681,0.53,317.382,-93.567,-22.156,
00:00:33:650,0.259,-0.745,0.431,368.652,-46.936,8.606,
00:00:33:667,0.286,-0.682,0.52,522.705,-85.816,25.207,
00:00:33:684,0.342,-0.742,0.492,636.657,-114.075,-23.438,
00:00:33:700,0.348,-0.869,0.442,649.536,-131.409,-45.533,
00:00:33:717,0.325,-0.97,0.445,504.76,-119.996,-50.66,
00:00:33:734,0.301,-0.941,0.381,287.963,-62.256,-23.682,
00:00:33:750,0.319,-0.844,0.432,239.99,-56.214,-12.818,
00:00:33:767,0.306,-0.841,0.407,371.887,-57.557,-26.49,
00:00:33:784,0.321,-0.87,0.423,516.54,-105.408,-44.434,
00:00:33:800,0.293,-1.002,0.406,496.399,-126.343,-100.647,
00:00:33:817,0.282,-1.05,0.381,361.206,-129.7,-107.972,
00:00:33:834,0.267,-1.004,0.369,229.187,-111.084,-114.869,
00:00:33:850,0.275,-0.847,0.374,245.788,-114.197,-83.619,
00:00:33:867,0.222,-0.906,0.33,381.591,-116.15,-110.413,
00:00:33:884,0.169,-1.003,0.313,443.847,-108.094,-131.531,
00:00:33:900,0.234,-1.1,0.343,371.399,-96.131,-131.836,
00:00:33:917,0.183,-1.176,0.378,424.377,-187.012,-255.005,
00:00:33:934,0.112,-0.997,0.309,218.017,-112.427,-156.434,flipLH
00:00:33:950,0.196,-0.898,0.222,324.646,-75.013,-171.387,
00:00:33:967,0.145,-1.136,0.321,483.215,-111.268,-194.458,
00:00:33:984,0.077,-1.183,0.294,288.208,-62.745,-162.72,
00:00:34:0,0.135,-1.098,0.285,95.336,-41.016,-164.856,
00:00:34:17,0.149,-1.121,0.338,31.982,-59.082,-198.06,
00:00:34:34,0.131,-1.002,0.356,23.62,-72.632,-178.528,
00:00:34:50,0.13,-0.913,0.312,178.283,-91.858,-174.073,
00:00:34:67,0.096,-1.045,0.261,204.04,-94.117,-185.975,
00:00:34:84,0.083,-1.084,0.248,21.24,-67.749,-150.818,
00:00:34:100,0.094,-1.014,0.306,-139.1,-49.622,-125.794,
00:00:34:117,0.131,-0.95,0.326,-72.083,-64.82,-144.593,
00:00:34:134,0.163,-1.05,0.272,91.796,-83.863,-184.266,
00:00:34:150,0.121,-1.138,0.264,151.794,-90.21,-184.693,
00:00:34:167,0.06,-1.102,0.274,104.126,-68.36,-176.026,
00:00:34:184,0.045,-1.113,0.259,40.71,-56.031,-203.797,
00:00:34:200,0.046,-1.121,0.352,-44.129,-75.623,-203.186,
00:00:34:217,0.021,-1.063,0.387,-13.916,-85.389,-199.891,
00:00:34:234,0.018,-1.115,0.368,61.523,-101.807,-243.531,
00:00:34:250,-0.02,-1.189,0.365,55.847,-100.892,-232.544,
00:00:34:267,-0.091,-1.163,0.355,-18.738,-95.887,-220.581,
00:00:34:284,-0.074,-1.156,0.351,-128.663,-76.111,-213.623,
00:00:34:300,-0.067,-1.213,0.478,-276.917,-84.656,-200.135,
00:00:34:317,-0.079,-1.199,0.524,-396.424,-94.605,-182.862,
00:00:34:334,-0.052,-1.103,0.507,-373.719,-125.184,-195.191,
00:00:34:350,-0.037,-1.108,0.428,-303.894,-161.072,-210.877,
00:00:34:367,-0.08,-1.207,0.424,-369.507,-174.988,-217.408,
00:00:34:384,-0.129,-1.197,0.446,-541.871,-162.171,-180.664,
00:00:34:400,-0.136,-1.161,0.425,-712.891,-147.522,-180.787,
00:00:34:417,-0.112,-1.171,0.457,-867.249,-157.593,-199.28,
00:00:34:434,-0.099,-1.115,0.391,-969.239,-146.851,-206.482,
00:00:34:450,-0.062,-1.142,0.354,-1027.222,-138.245,-262.085,
00:00:34:467,-0.06,-1.248,0.309,-1210.938,-126.954,-294.861,
00:00:34:484,-0.089,-1.231,0.312,-1630.25,-83.252,-294.922,
00:00:34:500,-0.107,-1.128,0.358,-1998.353,19.104,-303.406,
00:00:34:517,0.126,-0.905,0.418,-677.918,-159.974,-455.201,
00:00:34:534,-0.036,-1.214,0.264,-1424.317,-43.213,-421.692,
00:00:34:550,-0.129,-1.261,0.093,-2000,211.303,-471.558,
00:00:34:567,-0.045,-0.835,0.408,-2000,400.634,-414.246,
00:00:34:584,0.119,-0.372,0.616,-2000,370.361,-579.834,
00:00:34:600,-0.026,-0.366,0.386,-2000,155.09,-845.154,
00:00:34:617,-0.151,-0.261,0.327,-2000,402.954,-963.501,
00:00:34:634,-0.104,-0.057,0.329,-2000,531.494,-1086.792,
00:00:34:650,-0.042,-0.006,0.306,-2000,601.501,-1236.512,
00:00:34:667,0.007,0.136,0.385,-2000,582.092,-1354.249,
00:00:34:684,0.264,0.961,0.18,-865.479,506.103,-1587.891,
00:00:34:700,0.277,0.918,0.406,-409.79,307.617,-1412.232,
00:00:34:717,0.142,0.795,0.473,15.747,221.191,-1209.168,
00:00:34:734,0.177,0.913,0.713,-395.691,442.627,-1194.458,
00:00:34:750,0.346,1.006,0.732,-246.521,383.361,-1142.64,
00:00:34:767,0.358,0.56,-0.057,220.459,272.4,-915.65,
00:00:34:784,0.741,0.994,2.445,-598.633,-170.411,-630.555,
00:00:34:800,0.604,1.51,1.52,-913.819,61.218,77.27,
00:00:34:817,0.419,1.932,0.848,-87.891,-74.341,133.056,
00:00:34:834,0.569,1.247,0.582,898.01,-727.662,421.386,
00:00:34:850,0.606,0.723,0.77,1096.496,-948.365,494.629,
00:00:34:867,0.408,0.31,0.679,765.625,-668.763,689.392,
00:00:34:884,0.223,0.248,0.715,386.23,-446.9,510.254,
00:00:34:900,0.163,0.264,0.76,-46.692,-226.319,278.503,
00:00:34:917,0.235,0.559,0.849,-130.005,-145.325,165.222,
00:00:34:934,0.291,0.723,0.685,47.18,-161.744,240.6,
00:00:34:950,0.315,0.602,0.667,174.255,-230.103,287.109,
00:00:34:967,0.277,0.49,0.796,92.224,-223.999,354.675,
00:00:34:984,0.21,0.566,0.887,-137.94,-100.769,416.198,
00:00:35:0,0.197,0.719,0.966,-19.837,-75.196,481.628,
00:00:35:17,0.208,0.855,1,495.849,-128.235,594.726,
00:00:35:34,0.249,0.854,0.856,1188.171,-406.861,707.641,
00:00:35:50,0.24,0.592,0.739,1709.594,-663.758,718.444,
00:00:35:67,0.121,0.394,0.869,1755.066,-655.03,744.69,
00:00:35:84,-0.155,0.531,1.021,1085.51,-423.645,683.899,
00:00:35:100,-0.146,0.545,0.949,1316.223,-487.977,687.683,
00:00:35:117,-0.141,0.568,0.853,1531.799,-488.16,701.843,
00:00:35:134,-0.145,0.339,0.782,1763.427,-511.963,644.287,
00:00:35:150,-0.233,0.063,0.852,1837.28,-499.207,632.385,
00:00:35:167,-0.345,-0.333,0.922,1313.842,-493.775,574.829,
00:00:35:184,-0.47,-0.385,0.908,564.636,-282.471,572.998,
00:00:35:200,-0.507,-0.214,0.891,133.667,-134.766,584.228,
00:00:35:217,-0.476,-0.088,0.839,115.539,-94.788,545.166,
00:00:35:234,-0.421,-0.036,0.792,302.856,-51.758,511.413,
00:00:35:250,-0.431,-0.196,0.79,571.472,-49.805,454.467,
