TIMECODE,ACC_X,ACC_Y,ACC_Z,GYR_X,GYR_Y,GYR_Z,ECG_I,ECG_II,ECG_III,TAG
,0.923,0.253,0.02,15.38,15.38,-36.56,0,0,0,
,0.92,0.245,0.021,7.202,18.859,-36.438,0,0,0,
,0.916,0.245,0.018,-29.358,21.057,-30.03,0,0,0,
,0.919,0.278,0.02,-36.438,17.395,-24.537,0,0,0,
,0.922,0.248,0.018,-46.326,20.019,-20.203,0,0,0,
,0.923,0.252,0.013,-51.27,22.216,-16.053,0,0,0,
,0.924,0.259,0.009,-43.824,18.31,-14.832,0,0,0,
,0.927,0.261,0.012,-22.889,15.686,-20.081,0,0,0,
,0.92,0.257,0.012,4.821,14.648,-23.926,0,0,0,
,0.918,0.251,0.014,22.705,16.052,-29.725,0,0,0,
,0.918,0.242,0.014,25.268,20.813,-33.081,0,0,0,
,0.919,0.237,0.019,15.93,20.752,-33.02,0,0,0,
,0.921,0.236,0.026,0.183,17.944,-30.213,0,0,0,
,0.918,0.239,0.028,-15.442,20.752,-28.321,0,0,0,
,0.916,0.248,0.015,-18.982,20.935,-30.335,0,0,0,
,0.921,0.255,0.008,-8.545,16.418,-32.898,0,0,0,
,0.924,0.251,0.013,12.207,9.338,-36.194,0,0,0,
,0.922,0.243,0.021,15.686,9.338,-37.781,0,0,0,
,0.916,0.236,0.024,-8.423,15.319,-36.316,0,0,0,
,0.912,0.236,0.015,-37.903,22.033,-33.509,0,0,0,
,0.915,0.248,0.01,-57.679,24.719,-27.894,0,0,0,
,0.915,0.259,0.009,-60.669,21.362,-27.039,0,0,0,
,0.915,0.263,0.007,-41.687,26.245,-29.602,0,0,0,
,0.913,0.276,0.005,-3.724,24.231,-36.683,0,0,0,
,0.92,0.27,0.008,29.663,26.001,-41.382,0,0,0,
,0.921,0.247,0.013,35.583,27.343,-42.908,0,0,0,
,0.919,0.233,0.022,4.272,24.658,-35.157,0,0,0,
,0.92,0.239,0.022,-42.359,30.151,-26.001,0,0,0,
,0.921,0.254,0.021,-62.928,31.677,-23.011,0,0,0,
,0.919,0.274,0.009,-42.969,32.226,-25.879,0,0,0,
,0.921,0.278,0.014,1.098,21.423,-30.884,0,0,0,
,0.922,0.264,0.02,38.757,15.258,-34.79,0,0,0,
,0.924,0.243,0.029,38.208,15.93,-35.035,0,0,0,
,0.923,0.227,0.03,-4.09,19.653,-27.344,0,0,0,
,0.928,0.237,0.024,-49.439,24.719,-20.325,0,0,0,
,0.942,0.257,0.018,-69.336,27.282,-22.217,0,0,0,
,0.942,0.266,0.019,-55.42,19.531,-25.147,0,0,0,
,0.928,0.261,0.017,-34.302,13.855,-25.452,0,0,0,
,0.916,0.246,0.017,-35.462,17.822,-24.414,0,0,0,
,0.913,0.265,0.007,-28.504,17.761,-24.537,0,0,0,
,0.912,0.279,0.008,9.948,8.117,-27.161,0,0,0,
,0.907,0.259,0.016,46.569,9.582,-30.64,0,0,0,
,0.908,0.237,0.023,41.809,19.775,-33.631,0,0,0,
,0.913,0.23,0.016,-1.038,26.306,-25.94,0,0,0,
,0.916,0.247,0.011,-33.57,23.864,-21.912,0,0,0,
,0.919,0.268,0.011,-25.269,18.737,-26.49,0,0,0,
,0.914,0.266,0.01,2.99,21.606,-30.152,0,0,0,
,0.92,0.26,0.008,17.15,23.498,-34.974,0,0,0,
,0.922,0.25,0.01,18.615,13.977,-33.265,0,0,0,
,0.92,0.249,0.013,8.728,15.502,-27.466,0,0,0,
,0.912,0.244,0.016,-9.522,20.385,-24.048,0,0,0,
,0.917,0.243,0.007,-27.527,29.724,-19.104,0,0,0,
,0.923,0.248,0.007,-33.326,26.001,-16.175,0,0,0,
,0.921,0.257,0.005,-27.283,19.043,-17.09,0,0,0,
,0.918,0.262,0.001,4.15,24.108,-27.71,0,0,0,
,0.928,0.257,0,28.869,24.536,-40.589,0,0,0,
,0.928,0.244,0.014,38.086,18.005,-44.495,0,0,0,
,0.912,0.234,0.022,20.629,28.869,-41.871,0,0,0,
,0.909,0.237,0.025,-10.804,38.024,-37.842,0,0,0,
,0.909,0.25,0.012,-22.706,42.297,-34.852,0,0,0,
,0.921,0.256,0.014,-14.466,32.287,-30.457,0,0,0,
,0.924,0.254,0.022,-1.648,23.315,-28.016,0,0,0,
,0.926,0.246,0.025,6.713,23.071,-28.321,0,0,0,
,0.931,0.238,0.023,2.685,19.775,-24.842,0,0,0,
,0.932,0.237,0.017,-5.433,10.315,-23.011,0,0,0,
,0.93,0.239,0.015,-14.588,1.953,-20.386,0,0,0,
,0.93,0.238,0.016,-25.208,-3.113,-19.959,0,0,0,
,0.928,0.237,0.014,-34.974,-4.334,-19.715,0,0,0,
,0.921,0.237,0.02,-47.852,-9.156,-17.64,0,0,0,
,0.914,0.242,0.016,-60.669,-5.555,-18.128,0,0,0,
,0.915,0.241,0.011,-67.566,-5.555,-20.935,0,0,0,
,0.92,0.246,0.011,-71.534,-7.325,-24.842,0,0,0,
,0.921,0.257,0.012,-64.148,-5.799,-31.311,0,0,0,
,0.919,0.252,0.017,-49.256,2.99,-47.608,0,0,0,
,0.917,0.257,0.016,-62.806,2.502,-43.641,0,0,0,
,0.913,0.269,0.024,-63.782,2.319,-41.443,0,0,0,
,0.912,0.271,0.026,-53.223,8.789,-44.312,0,0,0,
,0.921,0.277,0.014,-5.86,16.479,-47.608,0,0,0,
,0.917,0.265,0.02,4.699,17.578,-46.631,0,0,0,
,0.915,0.258,0.025,-11.475,19.165,-41.504,0,0,0,
,0.917,0.264,0.014,-30.518,25.329,-37.964,0,0,0,
,0.919,0.276,0.017,-26.673,21.789,-34.607,0,0,0,
,0.918,0.284,0.02,0.061,15.502,-33.692,0,0,0,
,0.913,0.272,0.026,31.982,19.409,-37.903,0,0,0,
,0.913,0.256,0.035,34.851,15.564,-36.133,0,0,0,
,0.91,0.255,0.001,18.798,28.686,-32.776,0,0,0,
,0.918,0.25,0.024,6.774,29.785,-32.776,0,0,0,
,0.923,0.25,0.022,-3.54,30.456,-29.358,0,0,0,
,0.926,0.258,0.02,-10.01,22.827,-30.457,0,0,0,
,0.926,0.265,0.022,2.868,17.639,-30.03,0,0,0,
,0.922,0.263,0.024,26.306,19.409,-34.241,0,0,0,
,0.916,0.253,0.026,37.292,24.169,-34.852,0,0,0,
,0.917,0.243,0.031,24.475,22.094,-31.739,0,0,0,
,0.915,0.248,0.028,3.479,22.399,-25.879,0,0,0,
,0.923,0.27,0.036,-1.954,17.211,-22.156,0,0,0,
,0.926,0.281,0.042,13.916,23.132,-15.87,0,0,0,
,0.923,0.277,0.038,30.212,28.503,-13.672,0,0,0,
,0.931,0.277,0.035,33.691,27.893,-4.639,0,0,0,
,0.932,0.286,0.028,38.391,23.986,-0.306,0,0,0,
,0.93,0.292,0.025,58.593,11.047,2.136,0,0,0,
,0.913,0.281,0.03,84.899,2.868,3.784,0,0,0,
,0.91,0.255,0.032,44.433,12.695,15.502,0,0,0,
,0.914,0.261,0.029,29.419,16.601,16.052,0,0,0,
,0.913,0.268,0.023,37.658,19.958,9.643,0,0,0,
,0.919,0.265,0.023,61.95,22.338,1.403,0,0,0,
,0.916,0.268,0.027,95.275,18.981,-8.912,0,0,0,
,0.912,0.258,0.034,122.558,19.165,-17.945,0,0,0,
,0.906,0.234,0.038,123.535,26.001,-23.377,0,0,0,
,0.909,0.22,0.042,88.623,27.587,-25.391,0,0,0,
,0.915,0.223,0.038,47.79,33.752,-20.081,0,0,0,
,0.917,0.245,0.039,24.963,30.395,-23.56,0,0,0,
,0.92,0.257,0.032,37.414,29.602,-30.64,0,0,0,
,0.918,0.256,0.033,71.167,25.634,-40.589,0,0,0,
,0.911,0.236,0.046,130.432,22.216,-54.749,0,0,0,
,0.91,0.22,0.048,89.782,24.902,-49.561,0,0,0,
,0.911,0.226,0.044,32.409,23.01,-39.307,0,0,0,
,0.912,0.24,0.045,-9.095,28.625,-31.983,0,0,0,
,0.916,0.255,0.033,-18.738,28.442,-33.143,0,0,0,
,0.919,0.278,0.026,8.3,25.756,-41.016,0,0,0,
,0.921,0.279,0.029,59.875,17.944,-50.11,0,0,0,
,0.915,0.269,0.04,109.069,16.235,-57.801,0,0,0,
,0.909,0.25,0.054,122.009,25.451,-60.12,0,0,0,
,0.916,0.24,0.054,98.449,28.503,-55.787,0,0,0,
,0.916,0.23,0.057,53.222,27.832,-45.227,0,0,0,
,0.917,0.234,0.063,-1.465,28.808,-32.593,0,0,0,
,0.923,0.301,0.06,39.184,11.657,-23.377,0,0,0,
,0.923,0.311,0.081,81.237,19.775,-23.743,0,0,0,
,0.927,0.324,0.081,121.826,36.865,-19.776,0,0,0,
,0.919,0.332,0.092,183.776,34.851,-4.639,0,0,0,
,0.924,0.346,0.161,202.392,21.179,10.681,0,0,0,
,0.937,0.377,0.218,216.98,31.127,20.69,0,0,0,
,0.98,0.421,0.261,209.045,28.015,49.621,0,0,0,
,0.989,0.486,0.265,225.708,-2.869,70.373,0,0,0,
,1.023,0.58,0.414,354.675,-137.94,119.14,0,0,0,
,1.039,0.644,0.705,543.823,-186.158,189.758,0,0,0,
,1.057,0.694,0.807,529.602,-110.901,250.366,0,0,0,
,1.413,1.039,0.816,809.631,-452.027,540.344,0,0,0,
,1.397,1.007,1.005,1037.475,-632.813,664.917,0,0,0,
,1.403,0.978,1.118,1070.617,-696.106,733.215,0,0,0,
,1.508,0.989,1.107,973.938,-752.015,753.967,0,0,0,
,1.732,1.233,1.029,999.45,-1178.65,1011.047,0,0,0,
,1.796,1.306,1.008,1269.531,-1342.041,984.985,0,0,0,
,1.79,1.223,0.949,1534.484,-1455.933,906.982,0,0,0,
,1.897,1.173,1.101,1681.701,-1695.862,907.959,0,0,0,
,2.018,1.135,1.218,1604.004,-1825.867,904.174,0,0,0,
,1.998,1.085,0.971,1598.938,-1909.241,914.917,0,0,0,
,1.876,1.026,0.829,1781.372,-2000,883.728,0,0,0,
,1.773,0.852,1.011,1926.208,-2000,765.014,0,0,0,
,1.757,0.71,1.125,1856.933,-2000,643.615,0,0,0,
,1.701,0.642,0.933,1603.515,-2000,557.495,0,0,0,
,1.654,0.858,0.918,1510.315,-2000,530.151,0,0,0,
,1.571,0.922,0.836,1713.134,-2000,415.771,0,0,0,
,1.524,0.75,0.69,1916.565,-2000,246.154,0,0,0,
,1.49,0.49,0.694,1835.571,-2000,166.32,0,0,0,
,1.407,0.399,0.723,1623.291,-2000,149.658,0,0,0,
,1.332,0.497,0.421,1298.462,-2000,121.399,0,0,0,
,1.249,0.64,0.159,1350.402,-2000,80.017,0,0,0,
,1.074,0.503,0.075,1647.216,-2000,-35.767,0,0,0,
,0.915,0.335,0.172,1641.601,-2000,-148.011,0,0,0,
,0.84,0.203,0.004,1287.963,-2000,-177.247,0,0,0,
,0.796,0.206,-0.3,823.791,-2000,-121.766,0,0,0,
,0.682,0.156,-0.693,650.573,-2000,11.23,0,0,0,
,0.409,0.083,-1.079,775.634,-2000,252.258,0,0,0,
,0.325,-0.013,-1.043,954.04,-2000,288.208,0,0,0,
,0.26,-0.18,-1.147,1024.719,-2000,272.644,0,0,0,
,-0.079,-0.36,-1.578,160.644,-1338.257,320.739,0,0,0,
,-0.116,-0.214,-1.568,39.978,-978.028,202.697,0,0,0,
,-0.121,-0.158,-1.486,118.896,-605.408,95.092,0,0,0,
,-0.154,-0.207,-1.495,186.157,-261.597,38.818,0,0,0,
,-0.144,-0.256,-1.531,138.488,-2.991,34.301,0,0,0,
,-0.167,-0.283,-1.536,-34.485,230.896,26.245,0,0,0,
,-0.166,-0.144,-1.447,-303.711,423.462,-7.386,0,0,0,
,-0.15,0.016,-1.424,-537.354,663.696,-61.341,0,0,0,
,-0.121,0.074,-1.425,-576.172,903.503,-116.272,0,0,0,
,-0.066,0.03,-1.462,-609.986,1154.785,-159.058,0,0,0,
,0.022,0.05,-1.43,-732.666,1427.063,-215.821,0,0,0,
,0.1,0.116,-1.496,-1042.969,1656.311,-268.311,0,0,0,
,0.152,0.21,-1.741,-1393.189,1935.058,-334.534,0,0,0,
,0.275,0.423,-1.865,-1578.37,1999.694,-460.083,0,0,0,
,0.463,0.512,-1.949,-1492.249,1999.694,-612.305,0,0,0,
,0.766,0.593,-1.986,-1458.252,1999.694,-729.615,0,0,0,
,1.145,0.641,-2.14,-1654.053,1999.694,-863.77,0,0,0,
,1.72,0.662,-2.344,-1758.301,1999.694,-1037.293,0,0,0,
,2.19,0.664,-2.349,-1710.389,1999.694,-1073.182,0,0,0,
,2.594,0.553,-2.054,-1387.635,1999.694,-1014.161,0,0,0,
,3.607,0.416,-1.318,-1381.409,1999.694,-940.308,0,0,0,
,3.999,0.869,-1.92,-1933.106,1999.694,-425.843,0,0,0,
,3.999,1.864,-1.352,-2000,1999.694,-515.625,0,0,0,
,3.999,1.25,-0.732,-1350.464,1999.694,-1048.707,0,0,0,
,3.999,0.822,-0.218,-810.12,1999.694,-1146.302,0,0,0,
,3.999,0.629,0.678,-639.466,1999.694,-1288.392,0,0,0,
,3.999,0.136,0.707,-585.755,1999.694,-1381.714,0,0,0,
,3.999,-0.466,0.278,-853.089,1999.694,-1174.744,0,0,0,
,3.999,-0.304,0.237,-1375,1999.694,-849.366,0,0,0,
,3.999,0.294,0.783,-1563.721,1999.694,-561.341,0,0,0,
,3.999,0.529,1.141,-1430.176,1738.281,-344.91,0,0,0,
,3.68,0.729,1.229,-1335.816,1380.615,-170.227,0,0,0,
,2.98,0.733,1.126,-1141.602,1181.457,-75.196,0,0,0,
,2.44,0.493,0.906,-1019.593,1096.252,-64.209,0,0,0,
,2.22,0.289,0.629,-1258.301,937.683,-6.165,0,0,0,
,1.904,0.255,0.569,-1807.984,636.23,94.116,0,0,0,
,1.591,0.385,0.445,-2000,466.858,133.361,0,0,0,
,1.374,0.536,0.235,-2000,276.184,160.339,0,0,0,
,1.233,0.702,0.039,-2000,-53.528,184.692,0,0,0,
,1.103,0.988,0.059,-2000,-384.217,129.76,0,0,0,
,0.794,1.207,0.25,-1606.324,-213.379,105.407,0,0,0,
,0.744,0.904,0.112,-634.949,106.872,-64.148,0,0,0,
,0.943,0.519,0.04,-305.176,296.814,-78.003,0,0,0,
,0.986,0.321,-0.186,-374.39,201.416,54.382,0,0,0,
,0.993,0.188,-0.25,-622.986,-15.748,173.462,0,0,0,
,0.911,0.154,-0.329,-911.499,-139.588,291.015,0,0,0,
,0.842,0.244,-0.428,-997.986,-191.224,274.414,0,0,0,
,0.821,0.305,-0.459,-718.873,-284.424,218.078,0,0,0,
,0.777,0.229,-0.432,-450.501,-239.258,171.081,0,0,0,
,0.852,0.078,-0.306,-398.316,-135.804,121.093,0,0,0,
,0.914,-0.164,-0.409,-561.28,-77.454,154.419,0,0,0,
,0.894,-0.333,-0.551,-963.868,-196.839,254.455,0,0,0,
,0.807,-0.323,-0.595,-1608.948,-289.551,358.886,0,0,0,
,0.8,-0.036,-0.579,-2000,-267.212,353.149,0,0,0,
,0.883,0.14,-0.571,-1984.07,-212.586,297.668,0,0,0,
,0.956,0.105,-0.485,-1582.947,-215.332,304.443,0,0,0,
,0.976,-0.024,-0.29,-1326.294,-181.275,314.758,0,0,0,
,1.017,-0.145,-0.057,-1378.846,-122.925,296.325,0,0,0,
,1.025,-0.215,-0.013,-1637.208,1.159,301.818,0,0,0,
,1.069,-0.206,-0.109,-1935.059,92.346,287.963,0,0,0,
,1.128,-0.159,-0.25,-2000,89.721,276.184,0,0,0,
,1.135,-0.045,-0.325,-2000,-48.89,296.081,0,0,0,
,1.076,0.064,-0.29,-2000,-206.665,285.766,0,0,0,
,0.96,0.128,-0.203,-2000,-303.65,254.882,0,0,0,
,0.895,0.155,-0.103,-1975.77,-297.181,200.134,0,0,0,
,0.906,0.152,-0.045,-1948.609,-199.463,137.329,0,0,0,
,0.977,0.171,-0.046,-1925.354,-120.911,91.98,0,0,0,
,1.018,0.316,-0.141,-1815.552,-210.816,51.574,0,0,0,
,0.961,0.383,-0.166,-1596.314,-307.496,29.296,0,0,0,
,0.869,0.381,-0.163,-1321.167,-375.489,10.986,0,0,0,
,0.797,0.346,-0.161,-1073.06,-395.752,7.446,0,0,0,
,0.77,0.278,-0.164,-949.402,-384.278,20.263,0,0,0,
,0.761,0.19,-0.18,-940.43,-380.982,49.926,0,0,0,
,0.777,0.214,-0.151,-1008.79,-389.588,88.195,0,0,0,
,0.802,0.243,-0.108,-1072.083,-373.414,119.751,0,0,0,
,0.826,0.254,-0.074,-1098.816,-340.394,129.211,0,0,0,
,0.828,0.258,-0.096,-1114.991,-284.18,132.69,0,0,0,
,0.836,0.25,-0.135,-1140.625,-250.855,121.032,0,0,0,
,0.845,0.258,-0.167,-1158.997,-241.211,104.431,0,0,0,
,0.845,0.281,-0.173,-1149.659,-238.221,85.327,0,0,0,
,0.83,0.299,-0.157,-1104.798,-223.999,56.335,0,0,0,
,0.808,0.311,-0.122,-1045.777,-201.6,23.315,0,0,0,
,0.786,0.326,-0.096,-989.747,-166.321,-6.958,0,0,0,
,0.767,0.322,-0.1,-935.364,-103.76,-58.411,0,0,0,
,0.774,0.322,-0.128,-884.156,-63.782,-87.22,0,0,0,
,0.799,0.331,-0.14,-873.536,-49.5,-126.77,0,0,0,
,0.818,0.352,-0.122,-871.827,-39.795,-128.907,0,0,0,
,0.798,0.371,-0.08,-842.53,-55.603,-116.578,0,0,0,
,0.77,0.373,-0.033,-808.899,-26.429,-106.324,0,0,0,
,0.799,0.381,-0.009,-772.461,64.88,-116.272,0,0,0,
,0.893,0.4,-0.033,-732.483,168.823,-133.789,0,0,0,
,0.986,0.425,-0.081,-683.838,197.754,-126.709,0,0,0,
,1.057,0.447,-0.131,-627.442,177.734,-108.765,0,0,0,
,1.099,0.438,-0.192,-553.101,160.583,-87.83,0,0,0,
,1.113,0.385,-0.246,-426.148,75.927,-13.123,0,0,0,
,1.072,0.386,-0.199,-427.674,44.494,25.085,0,0,0,
,0.998,0.406,-0.114,-434.144,42.297,51.025,0,0,0,
,0.928,0.43,-0.029,-413.086,88.806,62.805,0,0,0,
,0.859,0.428,-0.013,-369.141,177.612,60.669,0,0,0,
,0.806,0.425,-0.045,-315.613,245.239,61.34,0,0,0,
,0.792,0.432,-0.068,-243.042,263.855,65.185,0,0,0,
,0.85,0.453,-0.1,-1.587,279.907,74.89,0,0,0,
,0.938,0.436,-0.119,128.479,280.944,82.275,0,0,0,
,1.025,0.416,-0.146,222.229,255.859,100.341,0,0,0,
,1.104,0.398,-0.155,280.09,203.369,128.967,0,0,0,
,1.144,0.38,-0.161,305.725,148.986,174.743,0,0,0,
,1.144,0.36,-0.158,300.109,101.928,219.299,0,0,0,
,1.047,0.306,-0.123,193.298,25.695,339.538,0,0,0,
,0.995,0.298,-0.084,112.121,28.442,395.385,0,0,0,
,0.958,0.303,-0.072,48.645,53.344,444.519,0,0,0,
,0.939,0.306,-0.078,15.93,78.43,473.571,0,0,0,
,0.928,0.302,-0.077,14.465,88.317,501.22,0,0,0,
,0.911,0.299,-0.075,22.277,78.247,521.362,0,0,0,
,0.891,0.297,-0.085,41.198,65.979,526.672,0,0,0,
,0.884,0.293,-0.087,68.481,36.804,521.179,0,0,0,
,0.883,0.283,-0.094,91.613,3.723,506.225,0,0,0,
,0.869,0.256,-0.043,83.862,-120.484,426.941,0,0,0,
,0.839,0.249,-0.02,55.786,-147.339,386.84,0,0,0,
,0.8,0.245,-0.009,14.099,-167.542,348.999,0,0,0,
,0.766,0.237,-0.011,-28.199,-184.205,303.344,0,0,0,
,0.758,0.233,-0.017,-76.661,-189.942,255.066,0,0,0,
,0.794,0.234,-0.025,-133.484,-180.42,187.378,0,0,0,
,0.845,0.241,-0.041,-183.594,-183.167,114.99,0,0,0,
,0.886,0.249,-0.041,-222.474,-205.506,34.484,0,0,0,
,0.892,0.268,-0.033,-249.207,-223.816,-53.223,0,0,0,
,0.876,0.287,-0.026,-276.123,-232.056,-138.55,0,0,0,
,0.859,0.295,-0.038,-266.236,-216.797,-235.84,0,0,0,
,0.858,0.298,-0.037,-270.752,-213.257,-317.017,0,0,0,
,0.867,0.306,-0.03,-253.113,-211.121,-382.019,0,0,0,
,0.909,0.32,-0.043,-242.615,-178.894,-443.177,0,0,0,
,1.058,0.327,-0.088,-235.169,-114.502,-520.142,0,0,0,
,1.262,0.308,-0.181,-252.625,-109.436,-575.562,0,0,0,
,1.391,0.282,-0.248,-325.684,-191.102,-579.59,0,0,0,
,1.376,0.266,-0.258,-479.615,-300.171,-548.584,0,0,0,
,1.232,0.285,-0.223,-651.795,-360.657,-505.31,0,0,0,
,1.075,0.345,-0.175,-819.519,-382.019,-447.022,0,0,0,
,0.962,0.361,-0.076,-898.987,-395.203,-353.699,0,0,0,
,0.83,0.347,0.005,-931.58,-384.095,-233.399,0,0,0,
,0.742,0.308,0.029,-950.257,-299.988,-126.893,0,0,0,
,0.753,0.275,-0.004,-978.394,-171.631,-49.622,0,0,0,
,0.847,0.259,-0.104,-1013.916,-78.248,29.541,0,0,0,
,0.939,0.312,-0.202,-1050.66,-134.766,140.503,0,0,0,
,0.954,0.311,-0.209,-1029.297,-267.823,209.961,0,0,0,
,0.875,0.33,-0.149,-951.355,-323.365,232.116,0,0,0,
,0.876,0.341,-0.114,-837.403,-296.631,200.988,0,0,0,
,0.86,0.35,-0.114,-718.14,-267.762,141.906,0,0,0,
,0.82,0.346,-0.114,-630.86,-281.861,98.083,0,0,0,
,0.746,0.329,-0.09,-585.755,-299.378,55.786,0,0,0,
,0.674,0.304,-0.065,-577.698,-286.133,7.934,0,0,0,
,0.628,0.312,-0.035,-578.37,-243.226,-36.805,0,0,0,
,0.622,0.34,-0.013,-580.018,-181.214,-91.553,0,0,0,
,0.649,0.368,0.004,-564.637,-116.639,-142.212,0,0,0,
,0.676,0.375,-0.023,-530.274,-55.359,-198.121,0,0,0,
,0.71,0.383,-0.065,-479.737,-34.607,-247.254,0,0,0,
,0.755,0.39,-0.077,-443.97,-38.819,-287.781,0,0,0,
,0.786,0.409,-0.07,-412.903,-48.096,-321.595,0,0,0,
,0.799,0.435,-0.041,-358.216,-49.988,-338.929,0,0,0,
,0.816,0.45,0.011,-298.218,-24.842,-345.154,0,0,0,
,0.806,0.442,0.033,-265.686,10.925,-329.895,0,0,0,
,0.799,0.418,0.015,-278.565,51.757,-308.167,0,0,0,
,0.816,0.413,-0.027,-310.975,72.204,-287.903,0,0,0,
,0.825,0.425,-0.045,-323.914,43.457,-253.724,0,0,0,
,0.79,0.452,-0.007,-306.153,-15.564,-205.933,0,0,0,
,0.746,0.485,0.052,-260.621,-17.334,-179.322,0,0,0,
,0.764,0.518,0.099,-162.598,63.354,-181.397,0,0,0,
,0.831,0.518,0.098,-75.135,151.062,-176.514,0,0,0,
,0.9,0.473,0.055,-26.49,182.861,-133.606,0,0,0,
,0.934,0.419,0.002,-62.073,152.282,-62.5,0,0,0,
,0.948,0.377,-0.032,-178.345,82.58,16.357,0,0,0,
,0.943,0.35,-0.042,-310.852,17.456,96.252,0,0,0,
,0.984,0.404,-0.044,-451.233,10.437,128.906,0,0,0,
,1.085,0.466,-0.056,-507.019,36.132,117.614,0,0,0,
,1.182,0.504,-0.101,-488.892,38.208,74.462,0,0,0,
,1.237,0.526,-0.151,-415.101,7.141,36.193,0,0,0,
,1.199,0.523,-0.191,-321.167,-54.871,11.108,0,0,0,
,1.097,0.502,-0.218,-212.159,-93.201,2.624,0,0,0,
,0.978,0.486,-0.211,-105.896,-119.812,23.559,0,0,0,
,0.894,0.465,-0.176,-5.921,-105.774,57.861,0,0,0,
,0.862,0.441,-0.126,105.163,-40.406,84.716,0,0,0,
,0.882,0.444,-0.091,212.036,63.354,99.06,0,0,0,
,0.926,0.471,-0.085,343.811,153.32,95.275,0,0,0,
,0.962,0.497,-0.084,510.742,209.472,85.876,0,0,0,
,0.98,0.489,-0.106,681.945,278.686,64.88,0,0,0,
,1.008,0.452,-0.142,862.854,313.598,49.316,0,0,0,
,1.048,0.418,-0.163,999.206,311.34,63.781,0,0,0,
,1.094,0.395,-0.17,1090.698,273.132,98.999,0,0,0,
,1.087,0.362,-0.163,1136.23,198.73,166.259,0,0,0,
,1.03,0.31,-0.162,1131.53,114.624,246.154,0,0,0,
,0.977,0.25,-0.154,1055.908,49.56,325.256,0,0,0,
,0.937,0.204,-0.136,914.489,-28.26,426.941,0,0,0,
,0.901,0.184,-0.093,711.609,-67.933,525.94,0,0,0,
,0.868,0.191,-0.051,535.156,-88.074,613.891,0,0,0,
,0.844,0.203,-0.02,382.263,-74.891,667.297,0,0,0,
,0.813,0.205,-0.014,282.714,-52.063,703.796,0,0,0,
,0.786,0.212,-0.011,185.852,-53.833,728.637,0,0,0,
,0.767,0.215,-0.036,96.679,-53.528,733.398,0,0,0,
,0.786,0.201,-0.072,48.095,-51.758,714.355,0,0,0,
,0.837,0.183,-0.116,-10.865,-78.431,691.223,0,0,0,
,0.862,0.167,-0.131,-74.402,-165.833,670.776,0,0,0,
,0.824,0.17,-0.095,-144.165,-244.507,648.376,0,0,0,
,0.751,0.187,-0.036,-196.045,-278.016,591.858,0,0,0,
,0.711,0.209,-0.006,-226.929,-249.817,501.098,0,0,0,
,0.715,0.222,-0.001,-231.995,-191.407,377.746,0,0,0,
,0.76,0.218,-0.011,-234.07,-154.908,245.849,0,0,0,
,0.798,0.219,-0.009,-256.653,-161.927,129.699,0,0,0,
,0.791,0.23,0.003,-292.542,-183.716,5.859,0,0,0,
,0.763,0.238,0.015,-332.703,-189.331,-117.737,0,0,0,
,0.725,0.242,0.012,-353.211,-183.594,-245.301,0,0,0,
,0.751,0.262,0.032,-379.822,-153.87,-383.362,0,0,0,
,0.876,0.301,0.035,-405.274,-89.417,-518.616,0,0,0,
,1.068,0.311,-0.015,-420.838,-15.076,-686.707,0,0,0,
,1.27,0.319,-0.105,-438.66,-22.461,-807.496,0,0,0,
,1.362,0.313,-0.165,-495.423,-102.173,-878.357,0,0,0,
,1.327,0.321,-0.128,-590.699,-176.148,-906.067,0,0,0,
,1.223,0.363,-0.103,-697.144,-215.943,-901.978,0,0,0,
,1.145,0.407,-0.041,-788.941,-223.084,-868.531,0,0,0,
,1.074,0.434,0.036,-851.99,-222.413,-802.063,0,0,0,
,0.998,0.452,0.09,-892.945,-203.431,-679.017,0,0,0,
,0.921,0.443,0.051,-919.007,-195.069,-552.613,0,0,0,
,0.87,0.403,-0.062,-892.395,-162.415,-414.978,0,0,0,
,0.885,0.365,-0.162,-838.196,-177.857,-278.687,0,0,0,
,0.932,0.345,-0.165,-768.311,-307.679,-0.061,0,0,0,
,0.932,0.353,-0.142,-739.014,-321.961,49.011,0,0,0,
,0.957,0.36,-0.137,-688.111,-296.265,32.775,0,0,0,
,0.884,0.417,-0.141,-595.643,-388.855,-122.071,0,0,0,
,0.772,0.411,-0.113,-562.134,-385.926,-203.553,0,0,0,
,0.696,0.375,-0.105,-493.836,-322.815,-297.303,0,0,0,
,0.682,0.364,-0.12,-430.176,-238.648,-368.409,0,0,0,
,0.704,0.368,-0.141,-395.997,-195.191,-419.434,0,0,0,
,0.73,0.377,-0.149,-381.348,-179.2,-454.163,0,0,0,
,0.773,0.397,-0.143,-371.155,-143.799,-487.549,0,0,0,
,0.813,0.424,-0.141,-356.446,-112.061,-513.001,0,0,0,
,0.832,0.453,-0.122,-324.83,-98.999,-515.625,0,0,0,
,0.835,0.484,-0.089,-279.175,-80.201,-501.526,0,0,0,
,0.814,0.498,-0.084,-204.346,-53.894,-477.478,0,0,0,
,0.794,0.494,-0.095,-121.338,-20.508,-440.979,0,0,0,
,0.774,0.477,-0.104,-51.453,-3.174,-394.41,0,0,0,
,0.761,0.474,-0.084,1.525,2.99,-335.816,0,0,0,
,0.757,0.488,-0.046,44.677,26.245,-274.292,0,0,0,
,0.76,0.505,-0.012,85.022,51.879,-223.084,0,0,0,
,0.777,0.525,0.005,132.812,93.627,-171.387,0,0,0,
,0.808,0.529,0.007,193.42,134.643,-131.958,0,0,0,
,0.867,0.528,-0.012,250.183,178.344,-81.665,0,0,0,
,0.914,0.502,-0.061,293.151,176.696,-12.207,0,0,0,
,0.947,0.46,-0.081,312.011,140.38,62.805,0,0,0,
,0.979,0.418,-0.089,276.184,106.079,147.155,0,0,0,
,1.018,0.389,-0.084,162.17,81.543,224.914,0,0,0,
,1.048,0.382,-0.072,4.577,52.551,287.902,0,0,0,
,1.064,0.409,-0.073,-110.962,56.396,309.387,0,0,0,
,1.073,0.455,-0.082,-168.519,71.167,299.804,0,0,0,
,1.065,0.499,-0.108,-126.221,89.477,265.93,0,0,0,
,1.057,0.535,-0.149,-3.174,120.544,221.191,0,0,0,
,1.08,0.55,-0.198,177.734,149.597,170.959,0,0,0,
,1.107,0.531,-0.243,423.645,156.738,144.287,0,0,0,
,1.126,0.474,-0.257,620.361,132.385,151.245,0,0,0,
,1.103,0.409,-0.254,700.195,108.154,178.65,0,0,0,
,1.047,0.374,-0.244,697.387,82.824,215.393,0,0,0,
,0.967,0.366,-0.212,684.631,75.988,259.277,0,0,0,
,0.921,0.38,-0.18,716.858,117.004,278.198,0,0,0,
,0.914,0.391,-0.197,785.583,188.903,277.588,0,0,0,
,0.941,0.385,-0.219,888.977,236.511,267.456,0,0,0,
,0.995,0.373,-0.227,975.463,262.329,251.648,0,0,0,
,1.025,0.343,-0.249,1023.193,251.281,250.305,0,0,0,
,1.041,0.317,-0.269,1042.724,233.764,255.493,0,0,0,
,1.04,0.281,-0.29,1021.545,191.345,281.311,0,0,0,
,1.03,0.257,-0.294,949.524,129.882,319.824,0,0,0,
,0.999,0.24,-0.268,852.844,62.988,377.319,0,0,0,
,0.946,0.232,-0.238,750.488,18.92,440.612,0,0,0,
,0.891,0.226,-0.213,650.207,7.69,493.164,0,0,0,
,0.847,0.228,-0.189,568.786,6.103,538.33,0,0,0,
,0.814,0.224,-0.181,491.577,26.123,571.411,0,0,0,
,0.796,0.224,-0.178,426.88,49.499,593.75,0,0,0,
,0.791,0.224,-0.179,372.68,72.021,596.191,0,0,0,
,0.784,0.223,-0.184,343.2,86.547,589.294,0,0,0,
,0.776,0.224,-0.187,327.209,97.717,569.152,0,0,0,
,0.77,0.229,-0.185,320.678,101.44,534.057,0,0,0,
,0.768,0.225,-0.181,317.505,99.731,491.088,0,0,0,
,0.76,0.219,-0.167,303.1,98.877,443.542,0,0,0,
,0.752,0.222,-0.149,280.09,94.299,386.535,0,0,0,
,0.745,0.227,-0.126,270.141,101.135,313.781,0,0,0,
,0.76,0.231,-0.11,273.437,111.755,250.061,0,0,0,
,0.785,0.224,-0.102,271.545,133.3,162.536,0,0,0,
,0.814,0.224,-0.094,247.985,140.38,82.641,0,0,0,
,0.837,0.225,-0.065,212.097,127.99,1.709,0,0,0,
,0.781,0.2,-0.054,-23.926,90.698,-238.221,0,0,0,
,0.777,0.205,-0.014,-125.733,87.707,-309.815,0,0,0,
,0.84,0.242,0.017,-209.778,140.075,-415.345,0,0,0,
,0.954,0.26,0.023,-266.846,209.777,-531.373,0,0,0,
,1.13,0.277,-0.004,-292.481,274.902,-671.021,0,0,0,
,1.278,0.293,-0.056,-340.516,280.578,-794.068,0,0,0,
,1.352,0.311,-0.084,-411.805,225.402,-872.315,0,0,0,
,1.278,0.326,-0.076,-456.665,145.63,-902.466,0,0,0,
,1.149,0.351,-0.044,-475.892,100.219,-910.706,0,0,0,
,1.07,0.358,-0.012,-468.689,85.693,-919.556,0,0,0,
,1.032,0.378,0.068,-475.892,77.148,-842.225,0,0,0,
,0.977,0.407,0.076,-510.437,36.315,-752.137,0,0,0,
,0.916,0.417,0.065,-534.974,-3.113,-663.086,0,0,0,
,0.88,0.405,0.045,-558.655,-21.424,-545.166,0,0,0,
,0.879,0.387,0.051,-599.06,-43.763,-408.265,0,0,0,
,0.899,0.371,0.054,-652.222,-54.627,-246.705,0,0,0,
,0.943,0.359,0.026,-697.937,-39.734,-108.948,0,0,0,
,1.018,0.359,-0.087,-781.311,-144.288,154.297,0,0,0,
,0.945,0.374,-0.108,-783.997,-189.759,157.959,0,0,0,
,0.871,0.414,-0.114,-734.986,-230.408,124.511,0,0,0,
,0.789,0.448,-0.119,-616.883,-244.69,50.659,0,0,0,
,0.742,0.456,-0.116,-472.962,-234.742,-42.969,0,0,0,
,0.716,0.447,-0.11,-306.275,-206.421,-134.522,0,0,0,
,0.735,0.428,-0.06,137.085,-39.612,-342.957,0,0,0,
,0.762,0.429,-0.037,238.952,29.846,-390.015,0,0,0,
,0.795,0.414,-0.028,304.748,106.933,-383.728,0,0,0,
,0.832,0.407,-0.036,306.518,147.949,-366.089,0,0,0,
,0.789,0.392,-0.049,221.679,54.626,-182.129,0,0,0,
,0.757,0.377,-0.024,209.472,50.231,-113.526,0,0,0,
,0.754,0.374,-0.018,202.942,67.321,-49.622,0,0,0,
,0.782,0.396,-0.02,192.382,72.57,2.258,0,0,0,
,0.823,0.414,-0.022,196.716,66.833,43.212,0,0,0,
,0.86,0.406,-0.016,220.642,72.57,69.946,0,0,0,
,0.906,0.393,-0.029,235.473,88.073,104.553,0,0,0,
,0.946,0.378,-0.055,231.018,86.731,146.789,0,0,0,
,0.976,0.354,-0.068,198.486,68.115,206.298,0,0,0,
,0.987,0.321,-0.098,124.023,57.678,263.733,0,0,0,
,1.016,0.304,-0.111,10.315,63.842,302.551,0,0,0,
,1.085,0.321,-0.132,-74.28,90.21,306.396,0,0,0,
,1.152,0.362,-0.147,-97.718,100.158,281.494,0,0,0,
,1.15,0.463,-0.15,-17.762,76.171,194.824,0,0,0,
,1.078,0.466,-0.158,99.182,84.594,145.996,0,0,0,
,1.025,0.432,-0.192,254.821,130.127,115.905,0,0,0,
,1.026,0.401,-0.236,409.851,143.371,117.614,0,0,0,
,1.018,0.347,-0.24,504.699,123.352,150.39,0,0,0,
,0.918,0.316,-0.181,549.865,107.971,231.689,0,0,0,
,0.848,0.322,-0.157,590.271,131.408,251.709,0,0,0,
,0.817,0.323,-0.139,663.208,196.411,254.699,0,0,0,
,0.845,0.325,-0.142,740.478,288.757,241.943,0,0,0,
,0.904,0.322,-0.182,837.036,334.961,220.703,0,0,0,
,1.025,0.28,-0.235,1020.019,320.251,172.851,0,0,0,
,1.049,0.261,-0.253,1035.461,291.992,172.18,0,0,0,
,1.048,0.236,-0.258,1032.898,243.286,191.955,0,0,0,
,1.016,0.21,-0.24,993.774,184.631,231.079,0,0,0,
,0.979,0.197,-0.203,912.231,137.329,270.568,0,0,0,
,0.927,0.19,-0.165,805.42,109.863,311.645,0,0,0,
,0.897,0.177,-0.136,686.279,95.886,349.06,0,0,0,
,0.873,0.171,-0.121,541.137,91.064,381.53,0,0,0,
,0.864,0.168,-0.095,398.62,79.895,413.94,0,0,0,
,0.846,0.169,-0.093,243.835,67.138,436.218,0,0,0,
,0.828,0.175,-0.078,121.582,51.452,455.81,0,0,0,
,0.782,0.185,-0.038,-133.728,21.789,419.372,0,0,0,
,0.791,0.192,-0.023,-200.684,-15.442,391.601,0,0,0,
,0.754,0.205,-0.002,-253.968,-44.983,340.759,0,0,0,
,0.728,0.211,0.01,-284.18,-57.007,278.442,0,0,0,
,0.723,0.213,0.036,-289.246,-64.393,198.669,0,0,0,
,0.742,0.219,0.056,-284.241,-51.453,98.755,0,0,0,
,0.778,0.23,0.06,-265.259,-40.711,-7.813,0,0,0,
,0.811,0.235,0.046,-254.761,-38.208,-123.902,0,0,0,
,0.815,0.24,0.02,-271.973,-66.651,-228.272,0,0,0,
,0.776,0.235,0.001,-309.754,-112.061,-330.323,0,0,0,
,0.727,0.251,0.027,-318.482,-141.968,-423.584,0,0,0,
,0.707,0.282,0.067,-294.922,-118.897,-527.527,0,0,0,
,0.732,0.307,0.09,-257.386,-54.932,-640.748,0,0,0,
,0.846,0.305,0.065,-223.938,48.645,-765.992,0,0,0,
,1.068,0.277,0.001,-237,131.652,-913.819,0,0,0,
,1.325,0.276,-0.111,-323.853,139.221,-1016.114,0,0,0,
,1.534,0.318,-0.224,-476.502,28.808,-1076.6,0,0,0,
,1.543,0.346,-0.262,-609.253,-119.385,-1070.618,0,0,0,
,1.422,0.396,-0.244,-709.351,-218.384,-1047.059,0,0,0,
,1.152,0.455,-0.089,-878.357,-290.284,-773.804,0,0,0,
,0.869,0.476,0.002,-809.327,-252.198,-430.787,0,0,0,
,0.73,0.448,0.014,-716.309,-203.431,-238.465,0,0,0,
,0.663,0.376,-0.002,-633.423,-84.412,-53.101,0,0,0,
,0.697,0.297,-0.037,-622.681,33.142,110.046,0,0,0,
,0.813,0.276,-0.086,-714.173,50.354,261.169,0,0,0,
,0.896,0.286,-0.13,-783.814,-21.729,392.761,0,0,0,
,0.918,0.302,-0.13,-806.458,-106.446,461.547,0,0,0,
,0.919,0.326,-0.137,-790.528,-134.278,479.187,0,0,0,
,0.928,0.35,-0.153,-755.494,-153.748,448.12,0,0,0,
,0.921,0.376,-0.158,-691.407,-209.717,393.798,0,0,0,
,0.893,0.387,-0.136,-624.634,-252.442,313.964,0,0,0,
,0.846,0.379,-0.113,-524.476,-254.761,242.187,0,0,0,
,0.811,0.353,-0.094,-420.533,-226.136,155.334,0,0,0,
,0.78,0.314,-0.069,-328.797,-183.655,85.571,0,0,0,
,0.759,0.284,-0.051,-314.026,-131.714,30.334,0,0,0,
,0.752,0.279,-0.044,-349.854,-78.064,-15.809,0,0,0,
,0.758,0.286,-0.044,-390.992,-24.964,-60.303,0,0,0,
,0.772,0.3,-0.042,-423.523,13.732,-104.187,0,0,0,
,0.813,0.319,-0.018,-423.768,45.959,-141.114,0,0,0,
,0.832,0.348,0.001,-394.165,73.73,-166.871,0,0,0,
,0.823,0.372,0.019,-321.289,75.195,-183.472,0,0,0,
,0.789,0.365,0.042,-241.272,82.092,-197.815,0,0,0,
,0.758,0.352,0.027,-173.951,102.234,-205.872,0,0,0,
,0.753,0.338,-0.016,-119.873,114.318,-225.342,0,0,0,
,0.789,0.337,-0.037,-69.458,106.262,-244.996,0,0,0,
,0.81,0.362,0.029,24.719,37.78,-242.066,0,0,0,
,0.8,0.368,0.072,67.993,73.608,-254.761,0,0,0,
,0.836,0.375,0.065,109.68,153.015,-268.494,0,0,0,
,0.888,0.363,0.028,139.892,177.49,-248.352,0,0,0,
,0.905,0.341,0.002,144.104,134.704,-181.824,0,0,0,
,0.88,0.307,-0.011,91.491,84.167,-94.3,0,0,0,
,0.848,0.268,-0.022,5.676,58.166,-22.034,0,0,0,
,0.858,0.235,-0.045,-101.807,70.983,42.114,0,0,0,
,0.916,0.263,-0.079,-218.323,72.753,90.576,0,0,0,
,1.01,0.296,-0.112,-294.617,78.674,107.055,0,0,0,
,1.157,0.313,-0.144,-294.19,111.999,61.95,0,0,0,
,1.323,0.336,-0.192,-250.855,130.066,11.901,0,0,0,
,1.374,0.342,-0.209,-215.394,63.415,-7.447,0,0,0,
,1.232,0.312,-0.219,-184.754,-18.921,-13.123,0,0,0,
,1.028,0.246,-0.188,-158.387,-24.659,-33.02,0,0,0,
,0.925,0.201,-0.188,-189.393,-6.592,-36.438,0,0,0,
,0.893,0.19,-0.153,-249.512,10.498,-16.358,0,0,0,
,0.891,0.213,-0.08,-273.255,33.264,1.037,0,0,0,
,0.896,0.236,-0.017,-260.498,85.388,11.291,0,0,0,
,0.9,0.256,-0.025,-211.731,161.682,1.159,0,0,0,
,0.915,0.269,-0.079,-108.094,204.528,-19.227,0,0,0,
,0.937,0.273,-0.124,47.973,201.233,-39.124,0,0,0,
,0.967,0.276,-0.139,211.12,170.898,-50.477,0,0,0,
,0.992,0.264,-0.129,369.629,133.789,-45.289,0,0,0,
,1.008,0.232,-0.091,463.44,108.886,-21.058,0,0,0,
,1.014,0.218,-0.079,499.572,104.004,22.522,0,0,0,
,1.002,0.211,-0.092,485.717,95.336,86.425,0,0,0,
,0.991,0.2,-0.142,469.665,84.045,141.845,0,0,0,
,1.007,0.2,-0.205,406.494,74.401,178.894,0,0,0,
,1.021,0.214,-0.233,347.473,17.761,199.707,0,0,0,
,1.003,0.216,-0.18,276.367,-31.25,227.111,0,0,0,
,0.971,0.217,-0.116,204.651,-22.034,290.771,0,0,0,
,0.921,0.225,-0.108,106.323,4.211,360.656,0,0,0,
,0.875,0.193,-0.121,-0.977,16.967,438.11,0,0,0,
,0.854,0.166,-0.129,-127.137,15.991,504.455,0,0,0,
,0.836,0.179,-0.134,-275.757,6.225,567.932,0,0,0,
,0.82,0.231,-0.128,-349.183,-6.958,601.257,0,0,0,
,0.815,0.269,-0.111,-312.745,-5.066,588.073,0,0,0,
,0.834,0.281,-0.096,-187.989,12.085,550.964,0,0,0,
,0.869,0.268,-0.092,-98.999,28.198,496.399,0,0,0,
,0.892,0.244,-0.087,-56.397,8.3,452.819,0,0,0,
,0.893,0.244,-0.062,-42.664,-32.044,412.597,0,0,0,
,0.875,0.239,-0.032,-6.409,-57.801,369.445,0,0,0,
,0.863,0.232,-0.019,26.794,-68.665,314.697,0,0,0,
,0.881,0.218,-0.003,60.363,-81.604,261.047,0,0,0,
,0.893,0.2,-0.004,66.65,-102.784,188.964,0,0,0,
,0.897,0.189,-0.008,30.944,-147.706,120.422,0,0,0,
,0.893,0.188,-0.002,-54.566,-196.717,41.992,0,0,0,
,0.872,0.189,0.006,-179.505,-241.944,-40.833,0,0,0,
,0.838,0.196,0.003,-329.529,-279.053,-113.343,0,0,0,
,0.813,0.215,0.006,-445.374,-308.838,-191.407,0,0,0,
,0.801,0.249,0.007,-507.569,-328.675,-265.992,0,0,0,
,0.809,0.281,0.01,-531.495,-352.112,-337.586,0,0,0,
,0.84,0.3,-0.01,-540.955,-351.441,-411.805,0,0,0,
,0.95,0.302,-0.072,-561.707,-319.581,-495.789,0,0,0,
,1.118,0.291,-0.183,-619.873,-332.947,-559.205,0,0,0,
,1.293,0.295,-0.311,-710.755,-401.185,-591.065,0,0,0,
,1.364,0.303,-0.34,-811.951,-525.208,-572.815,0,0,0,
,1.274,0.338,-0.323,-891.541,-621.766,-536.133,0,0,0,
,1.114,0.388,-0.273,-965.943,-652.588,-507.447,0,0,0,
,0.981,0.399,-0.204,-1000.428,-637.207,-461.853,0,0,0,
,0.839,0.387,-0.147,-978.882,-596.924,-392.273,0,0,0,
,0.736,0.359,-0.056,-921.631,-507.63,-306.641,0,0,0,
,0.706,0.338,-0.004,-854.676,-346.131,-237.977,0,0,0,
,0.981,0.342,-0.258,-519.837,-153.077,-42.664,0,0,0,
,0.977,0.324,-0.257,-522.034,-213.807,-5.738,0,0,0,
,0.977,0.326,-0.243,-552.002,-260.804,14.282,0,0,0,
,0.977,0.327,-0.205,-576.355,-287.537,20.69,0,0,0,
,0.936,0.322,-0.174,-608.765,-302.369,28.93,0,0,0,
,0.846,0.316,-0.139,-647.217,-293.213,31.677,0,0,0,
,0.817,0.325,-0.132,-670.105,-244.751,21.972,0,0,0,
,0.789,0.338,-0.11,-657.837,-182.618,9.155,0,0,0,
,0.766,0.351,-0.105,-615.601,-128.724,-5.433,0,0,0,
,0.749,0.36,-0.103,-547.852,-76.477,-34.241,0,0,0,
,0.742,0.361,-0.074,-466.797,-36.744,-70.252,0,0,0,
,0.752,0.37,-0.046,-392.334,13.061,-109.803,0,0,0,
,0.765,0.376,-0.034,-338.623,54.931,-149.659,0,0,0,
,0.79,0.39,-0.031,-280.64,90.21,-193.665,0,0,0,
,0.822,0.41,-0.023,-213.807,106.811,-230.957,0,0,0,
,0.831,0.425,0.024,-135.56,100.525,-249.573,0,0,0,
,0.821,0.427,0.067,-59.632,107.238,-251.465,0,0,0,
,0.802,0.424,0.061,-14.832,140.319,-249.634,0,0,0,
,0.804,0.406,0.022,16.662,176.635,-251.587,0,0,0,
,0.834,0.394,-0.004,22.461,159.24,-240.479,0,0,0,
,0.84,0.4,0.002,29.846,105.407,-208.985,0,0,0,
,0.837,0.423,0.048,64.697,82.763,-169.617,0,0,0,
,0.853,0.439,0.073,125.854,117.981,-146.119,0,0,0,
,0.895,0.439,0.051,203.674,156.494,-121.155,0,0,0,
,0.936,0.41,0.017,267.883,153.93,-79.346,0,0,0,
,0.948,0.374,-0.008,295.959,124.023,-34.913,0,0,0,
,0.935,0.344,-0.013,273.742,78.735,17.883,0,0,0,
,0.906,0.335,0.001,224.487,48.584,71.96,0,0,0,
,0.867,0.317,0.014,161.377,40.832,106.201,0,0,0,
,0.84,0.323,0.028,97.168,59.082,118.408,0,0,0,
,0.836,0.346,0.016,63.171,92.529,111.938,0,0,0,
,0.842,0.365,-0.012,85.876,109.558,92.895,0,0,0,
,0.847,0.363,-0.036,138.061,117.981,58.593,0,0,0,
,0.901,0.364,-0.063,202.331,162.231,-6.043,0,0,0,
,1.016,0.389,-0.099,273.071,201.721,-83.069,0,0,0,
,1.16,0.429,-0.128,372.497,184.631,-160.889,0,0,0,
,1.222,0.463,-0.146,471.374,117.614,-201.355,0,0,0,
,1.15,0.44,-0.144,583.068,55.481,-197.205,0,0,0,
,1.062,0.396,-0.171,666.992,45.471,-165.162,0,0,0,
,1.041,0.336,-0.224,679.138,41.198,-106.629,0,0,0,
,1.034,0.27,-0.246,632.446,-6.226,-11.841,0,0,0,
,1.012,0.234,-0.208,518.31,-60.608,101.806,0,0,0,
,0.994,0.26,-0.168,385.437,-56.336,171.508,0,0,0,
,0.966,0.306,-0.149,298.095,-33.326,223.571,0,0,0,
,0.908,0.317,-0.147,287.231,-13.001,254.516,0,0,0,
,0.829,0.303,-0.154,306.945,16.845,273.803,0,0,0,
,0.776,0.289,-0.172,331.298,64.819,275.451,0,0,0,
,0.78,0.292,-0.202,370.361,121.154,256.408,0,0,0,
,0.824,0.305,-0.233,471.862,152.282,204.467,0,0,0,
,0.862,0.3,-0.25,608.642,149.414,172.851,0,0,0,
,0.891,0.291,-0.256,718.75,142.639,123.291,0,0,0,
,0.924,0.282,-0.275,796.936,138.672,74.89,0,0,0,
,0.946,0.254,-0.303,824.951,111.206,32.775,0,0,0,
,0.936,0.205,-0.309,792.053,69.702,14.953,0,0,0,
,0.903,0.181,-0.297,693.481,33.325,22.338,0,0,0,
,0.88,0.185,-0.274,587.036,29.174,40.344,0,0,0,
,0.867,0.203,-0.25,475.586,40.649,57.678,0,0,0,
,0.877,0.205,-0.241,381.042,71.167,80.322,0,0,0,
,0.904,0.213,-0.247,293.579,111.572,99.609,0,0,0,
,0.914,0.224,-0.273,244.018,130.31,120.849,0,0,0,
,0.898,0.243,-0.282,232.91,128.601,135.131,0,0,0,
,0.874,0.25,-0.281,262.817,154.235,135.803,0,0,0,
,0.858,0.248,-0.273,312.927,163.574,119.506,0,0,0,
,0.863,0.239,-0.271,353.454,186.401,98.388,0,0,0,
,0.868,0.23,-0.26,379.699,200.378,76.416,0,0,0,
,0.857,0.216,-0.25,383.606,209.9,55.175,0,0,0,
,0.842,0.206,-0.225,358.825,226.867,29.419,0,0,0,
,0.839,0.207,-0.212,309.753,251.464,0.366,0,0,0,
,0.847,0.218,-0.202,262.573,273.62,-31.983,0,0,0,
,0.857,0.23,-0.198,231.018,279.235,-62.5,0,0,0,
,0.857,0.243,-0.194,215.515,280.456,-97.474,0,0,0,
,0.86,0.255,-0.185,210.693,275.207,-126.77,0,0,0,
,0.86,0.264,-0.172,220.764,267.944,-156.495,0,0,0,
,0.866,0.274,-0.156,227.905,268.798,-187.256,0,0,0,
,0.88,0.286,-0.154,237.732,266.174,-216.187,0,0,0,
,0.902,0.291,-0.151,252.075,256.164,-245.057,0,0,0,
,0.912,0.299,-0.143,263.61,239.318,-264.71,0,0,0,
,0.909,0.304,-0.134,270.324,220.825,-276.978,0,0,0,
,0.905,0.308,-0.117,275.94,214.05,-281.25,0,0,0,
,0.908,0.311,-0.107,276.733,207.641,-275.513,0,0,0,
,0.916,0.31,-0.098,261.596,195.251,-257.63,0,0,0,
,0.914,0.312,-0.086,229.309,178.405,-234.314,0,0,0,
,0.913,0.311,-0.075,194.885,162.048,-205.75,0,0,0,
,0.935,0.312,-0.075,142.456,164.245,-181.275,0,0,0,
,1.01,0.317,-0.111,92.468,179.748,-167.176,0,0,0,
,1.106,0.325,-0.166,45.349,152.526,-153.931,0,0,0,
,1.158,0.344,-0.173,30.151,75.805,-135.437,0,0,0,
,1.087,0.368,-0.123,53.1,12.756,-118.897,0,0,0,
,0.962,0.383,-0.053,112.548,1.709,-110.962,0,0,0,
,0.865,0.381,-0.014,182.006,41.381,-102.417,0,0,0,
,0.831,0.361,-0.008,228.82,100.647,-96.863,0,0,0,
,0.831,0.341,-0.022,223.083,111.755,-70.069,0,0,0,
,0.817,0.33,-0.034,191.406,77.026,-28.443,0,0,0,
,0.773,0.324,-0.061,168.579,34.118,17.211,0,0,0,
,0.753,0.318,-0.093,158.081,14.709,51.94,0,0,0,
,0.801,0.318,-0.113,149.17,22.033,78.43,0,0,0,
,0.892,0.308,-0.138,136.901,20.385,102.844,0,0,0,
,0.964,0.302,-0.153,117.92,1.525,118.164,0,0,0,
,1.007,0.311,-0.145,106.079,-6.287,124.817,0,0,0,
,1.01,0.342,-0.138,118.286,15.808,106.811,0,0,0,
,0.99,0.354,-0.136,169.006,60.607,70.922,0,0,0,
,0.967,0.348,-0.146,235.473,117.187,23.681,0,0,0,
,0.934,0.344,-0.16,312.378,159.301,-26.612,0,0,0,
,0.86,0.355,-0.17,501.526,210.571,-134.888,0,0,0,
,0.843,0.361,-0.163,622.314,239.868,-197.327,0,0,0,
,0.844,0.362,-0.156,725.525,265.014,-250.489,0,0,0,
,0.854,0.366,-0.152,841.98,280.395,-299.866,0,0,0,
,0.872,0.359,-0.137,929.199,294.128,-339.417,0,0,0,
,0.896,0.348,-0.136,988.952,306.335,-370.179,0,0,0,
,0.935,0.339,-0.145,1004.455,310.058,-396.546,0,0,0,
,0.958,0.333,-0.162,994.506,285.583,-407.959,0,0,0,
,0.945,0.337,-0.164,984.863,228.088,-405.762,0,0,0,
,0.906,0.348,-0.151,988.586,189.514,-399.476,0,0,0,
,0.875,0.349,-0.147,1005.92,166.015,-388.855,0,0,0,
,0.847,0.33,-0.151,1023.315,142.578,-358.582,0,0,0,
,0.818,0.313,-0.153,1014.526,111.084,-316.651,0,0,0,
,0.819,0.281,-0.152,842.59,88.684,-149.476,0,0,0,
,0.848,0.312,-0.165,785.4,81.176,-93.384,0,0,0,
,0.853,0.281,-0.171,740.539,67.016,-36.683,0,0,0,
,0.846,0.279,-0.172,712.28,68.725,9.521,0,0,0,
,0.855,0.28,-0.167,693.908,88.317,37.963,0,0,0,
,0.874,0.272,-0.173,656.921,106.628,64.331,0,0,0,
,0.884,0.265,-0.182,635.559,111.755,82.031,0,0,0,
,0.914,0.281,-0.204,439.026,258.239,83.435,0,0,0,
,1.025,0.292,-0.236,432.678,252.868,28.564,0,0,0,
,1.101,0.302,-0.26,422.546,225.158,-24.903,0,0,0,
,1.124,0.319,-0.26,386.23,176.147,-62.439,0,0,0,
,1.079,0.327,-0.264,380.615,143.127,-77.942,0,0,0,
,1.03,0.33,-0.266,401.001,132.507,-76.477,0,0,0,
,1.019,0.337,-0.28,427.551,137.756,-52.491,0,0,0,
,1.02,0.325,-0.279,455.383,132.751,-16.419,0,0,0,
,1.042,0.315,-0.289,470.398,144.226,16.296,0,0,0,
,1.065,0.315,-0.321,477.661,155.883,48.339,0,0,0,
,1.055,0.31,-0.356,492.37,145.874,77.575,0,0,0,
,1.001,0.295,-0.352,519.226,135.376,99.426,0,0,0,
,0.95,0.289,-0.325,562.133,160.4,104.492,0,0,0,
,0.93,0.304,-0.289,631.652,204.651,93.75,0,0,0,
,0.918,0.305,-0.248,720.276,271.057,81.115,0,0,0,
,0.91,0.304,-0.24,790.405,345.153,60.73,0,0,0,
,0.923,0.299,-0.269,843.994,399.047,25.756,0,0,0,
,0.954,0.292,-0.301,905.151,414.123,-3.113,0,0,0,
,0.973,0.283,-0.319,958.618,394.775,-19.837,0,0,0,
,0.956,0.272,-0.317,1006.897,355.957,-21.058,0,0,0,
,0.917,0.245,-0.29,1037.109,307.678,-11.719,0,0,0,
,0.87,0.225,-0.268,1032.592,283.142,6.286,0,0,0,
,0.838,0.211,-0.255,996.154,266.662,24.719,0,0,0,
,0.837,0.202,-0.247,940.551,261.352,40.527,0,0,0,
,0.845,0.2,-0.244,869.201,249.939,56.884,0,0,0,
,0.843,0.191,-0.234,794.983,227.05,70.556,0,0,0,
,0.833,0.193,-0.229,712.28,219.055,80.993,0,0,0,
,0.817,0.195,-0.233,626.892,204.712,87.829,0,0,0,
,0.804,0.197,-0.237,553.283,180.786,89.843,0,0,0,
,0.788,0.203,-0.227,488.464,159.912,91.552,0,0,0,
,0.784,0.213,-0.215,437.255,143.188,93.994,0,0,0,
,0.797,0.22,-0.201,378.662,142.151,92.041,0,0,0,
,0.812,0.218,-0.209,322.387,133.972,96.618,0,0,0,
,0.823,0.225,-0.21,267.883,114.685,105.59,0,0,0,
,0.833,0.241,-0.213,217.834,96.13,107.422,0,0,0,
,0.859,0.252,-0.204,188.72,91.247,100.769,0,0,0,
,0.905,0.256,-0.209,168.029,102.722,90.087,0,0,0,
,0.942,0.266,-0.218,157.287,93.811,86.547,0,0,0,
,0.953,0.27,-0.214,158.02,84.777,84.838,0,0,0,
,0.962,0.268,-0.213,161.132,100.463,76.294,0,0,0,
,0.972,0.264,-0.219,157.104,106.689,66.162,0,0,0,
,0.961,0.263,-0.209,144.592,104.919,54.626,0,0,0,
,0.939,0.268,-0.174,131.225,123.901,31.86,0,0,0,
,0.924,0.282,-0.148,135.986,138.672,7.507,0,0,0,
,0.921,0.298,-0.119,158.752,161.682,-22.156,0,0,0,
,0.945,0.3,-0.09,182.373,184.387,-53.406,0,0,0,
,1.014,0.297,-0.088,174.865,205.688,-86.914,0,0,0,
,1.154,0.286,-0.128,137.512,231.384,-124.878,0,0,0,
,1.25,0.271,-0.209,66.162,204.162,-149.781,0,0,0,
,1.308,0.266,-0.227,-14.832,98.266,-166.016,0,0,0,
,1.191,0.265,-0.131,-91.126,-6.897,-150.879,0,0,0,
,0.974,0.276,-0.058,-152.71,-55.359,-129.639,0,0,0,
,0.808,0.292,0.012,-185.547,-35.584,-129.395,0,0,0,
,0.71,0.299,0.038,-181.946,28.442,-146.302,0,0,0,
,0.703,0.306,0.051,-174.805,95.336,-171.631,0,0,0,
,0.729,0.311,0.043,-183.533,121.46,-179.139,0,0,0,
,0.737,0.332,0.028,-179.871,90.576,-174.927,0,0,0,
,0.742,0.346,0.014,-145.508,65.368,-165.101,0,0,0,
,0.774,0.337,-0.001,-103.028,63.598,-149.231,0,0,0,
,0.847,0.328,-0.02,-77.21,64.27,-114.197,0,0,0,
,0.937,0.309,-0.036,-68.97,47.851,-66.285,0,0,0,
,1.006,0.304,-0.035,-96.314,15.502,0.671,0,0,0,
,1.036,0.304,-0.036,-160.035,9.765,55.725,0,0,0,
,1.038,0.313,-0.056,-208.619,13.855,86.669,0,0,0,
,1.017,0.373,-0.074,-205.079,12.695,82.153,0,0,0,
,0.968,0.356,-0.07,-142.273,15.38,55.419,0,0,0,
,0.9,0.361,-0.063,-57.251,26.123,3.906,0,0,0,
,0.841,0.364,-0.06,49.499,48.584,-56.641,0,0,0,
,0.802,0.359,-0.053,156.86,73.547,-123.78,0,0,0,
,0.778,0.361,-0.05,265.625,94.665,-190.064,0,0,0,
,0.774,0.351,-0.059,353.759,113.342,-262.33,0,0,0,
,0.785,0.337,-0.063,396.667,118.469,-327.088,0,0,0,
,0.804,0.334,-0.059,409.912,119.629,-378.174,0,0,0,
,0.825,0.354,-0.054,420.105,116.638,-422.913,0,0,0,
,0.828,0.374,-0.05,452.88,108.52,-454.956,0,0,0,
,0.822,0.377,-0.041,487.976,120.056,-479.371,0,0,0,
,0.828,0.381,-0.041,511.963,127.624,-491.822,0,0,0,
,0.823,0.385,-0.047,538.147,121.643,-478.028,0,0,0,
,0.807,0.388,-0.04,558.288,104.431,-447.571,0,0,0,
,0.792,0.389,-0.032,574.035,109.008,-412.354,0,0,0,
,0.795,0.389,-0.034,584.167,113.647,-370.667,0,0,0,
,0.807,0.389,-0.037,593.628,111.328,-325.135,0,0,0,
,0.827,0.387,-0.046,602.295,102.966,-276.062,0,0,0,
,0.868,0.385,-0.051,611.633,104.614,-228.272,0,0,0,
,0.915,0.377,-0.056,606.933,89.233,-179.81,0,0,0,
,0.939,0.355,-0.065,579.223,65.795,-112.793,0,0,0,
,0.945,0.332,-0.074,506.103,41.137,-39.429,0,0,0,
,0.936,0.304,-0.09,403.747,23.437,41.137,0,0,0,
,0.925,0.299,-0.1,270.507,11.657,122.558,0,0,0,
,0.931,0.321,-0.103,161.316,25.695,156.128,0,0,0,
,0.938,0.337,-0.119,108.825,37.231,177.612,0,0,0,
,0.959,0.352,-0.122,94.36,68.298,169.922,0,0,0,
,1.018,0.378,-0.125,104.736,122.436,126.77,0,0,0,
,1.073,0.408,-0.137,145.385,143.737,71.533,0,0,0,
,1.084,0.44,-0.149,221.069,127.746,29.785,0,0,0,
,1.033,0.442,-0.157,329.223,109.008,-8.423,0,0,0,
,0.989,0.421,-0.182,443.908,109.497,-18.677,0,0,0,
,0.966,0.377,-0.212,498.291,82.885,17.883,0,0,0,
,0.943,0.334,-0.206,489.257,39.856,79.589,0,0,0,
,0.924,0.304,-0.18,449.218,28.015,154.297,0,0,0,
,0.935,0.325,-0.164,407.226,50.659,209.655,0,0,0,
,0.969,0.354,-0.183,409.362,87.89,241.15,0,0,0,
,0.983,0.351,-0.209,472.656,104.309,247.131,0,0,0,
,0.96,0.33,-0.226,543.884,109.253,248.291,0,0,0,
,0.919,0.315,-0.232,604.065,115.112,239.502,0,0,0,
,0.897,0.315,-0.238,687.988,139.221,219.543,0,0,0,
,0.905,0.313,-0.231,800.537,169.433,186.828,0,0,0,
,0.932,0.302,-0.229,890.442,208.068,150.94,0,0,0,
,0.986,0.291,-0.226,942.627,237.121,122.375,0,0,0,
,1.037,0.27,-0.26,955.566,246.276,103.21,0,0,0,
,1.044,0.235,-0.285,930.603,214.233,104.309,0,0,0,
,1.007,0.208,-0.285,866.821,163.574,129.272,0,0,0,
,0.954,0.208,-0.261,780.517,126.037,162.17,0,0,0,
,0.894,0.209,-0.232,698.852,101.684,192.749,0,0,0,
,0.854,0.206,-0.2,627.319,103.759,218.933,0,0,0,
,0.807,0.199,-0.184,538.574,110.229,242.431,0,0,0,
,0.776,0.196,-0.168,452.697,122.131,262.634,0,0,0,
,0.762,0.202,-0.161,358.276,139.709,273.437,0,0,0,
,0.762,0.21,-0.166,285.644,151.672,280.944,0,0,0,
,0.764,0.246,-0.171,230.102,143.737,286.682,0,0,0,
,0.766,0.224,-0.172,194.763,137.634,288.574,0,0,0,
,0.776,0.23,-0.169,175.476,125.854,280.09,0,0,0,
,0.798,0.231,-0.17,162.963,125.427,264.16,0,0,0,
,0.832,0.232,-0.159,150.695,119.018,249.267,0,0,0,
,0.849,0.227,-0.145,138.244,110.901,237.243,0,0,0,
,0.864,0.239,-0.129,125.122,109.069,224.548,0,0,0,
,0.897,0.24,-0.119,112.915,125.061,196.106,0,0,0,
,0.959,0.221,-0.12,97.656,131.897,163.574,0,0,0,
,1,0.221,-0.122,34.973,95.031,142.822,0,0,0,
,1.002,0.224,-0.115,-58.777,64.575,121.215,0,0,0,
,0.953,0.212,-0.077,-147.828,23.559,91.186,0,0,0,
,0.874,0.207,-0.041,-240.418,6.408,52.917,0,0,0,
,0.799,0.221,-0.017,-323.365,13,1.648,0,0,0,
,0.778,0.264,0.016,-364.93,37.902,-90.394,0,0,0,
,0.822,0.308,0.039,-346.558,86.731,-210.206,0,0,0,
,0.901,0.326,0.033,-288.208,122.314,-331.543,0,0,0,
,1.013,0.327,0.029,-229.065,128.723,-454.224,0,0,0,
,1.175,0.316,-0.015,-221.863,152.649,-577.515,0,0,0,
,1.326,0.314,-0.119,-279.969,107.483,-666.81,0,0,0,
,1.365,0.313,-0.174,-333.069,-22.095,-711.67,0,0,0,
,1.248,0.335,-0.129,-405.823,-171.082,-703.186,0,0,0,
,1.092,0.387,-0.048,-474.854,-212.586,-677.979,0,0,0,
,0.963,0.419,0.013,-499.817,-206.788,-632.386,0,0,0,
,0.886,0.427,0.054,-476.197,-168.702,-558.106,0,0,0,
,0.812,0.406,0.056,-443.055,-120.423,-444.519,0,0,0,
,0.764,0.388,0.034,-434.632,-83.374,-316.59,0,0,0,
,0.741,0.388,0.003,-421.814,-48.645,-195.862,0,0,0,
,0.753,0.38,-0.014,-388.428,-31.311,-70.008,0,0,0,
,0.787,0.376,-0.035,-338.99,-15.137,40.649,0,0,0,
,0.859,0.354,-0.053,-318.97,-10.193,134.46,0,0,0,
,0.941,0.336,-0.064,-307.679,-17.456,184.936,0,0,0,
,1.018,0.313,-0.092,-292.054,-7.203,206.909,0,0,0,
,1.077,0.318,-0.137,-302.308,-29.541,199.096,0,0,0,
,1.062,0.335,-0.153,-308.96,-95.276,172.912,0,0,0,
,0.958,0.363,-0.125,-279.48,-163.697,111.816,0,0,0,
,0.843,0.384,-0.084,-210.572,-160.462,24.719,0,0,0,
,0.756,0.38,-0.064,-103.638,-108.643,-85.999,0,0,0,
,0.71,0.358,-0.067,20.996,-42.664,-189.881,0,0,0,
,0.681,0.347,-0.079,127.258,8.972,-273.255,0,0,0,
,0.687,0.349,-0.082,185.058,39.611,-348.45,0,0,0,
,0.714,0.351,-0.084,233.154,73.669,-408.02,0,0,0,
,0.764,0.359,-0.078,258.117,104.858,-457.154,0,0,0,
,0.823,0.375,-0.072,273.132,119.079,-479.248,0,0,0,
,0.855,0.396,-0.064,289.611,118.164,-480.652,0,0,0,
,0.905,0.413,-0.045,302.063,117.492,-462.22,0,0,0,
,0.877,0.411,-0.048,305.725,122.619,-425.66,0,0,0,
,0.858,0.388,-0.07,304.321,109.13,-363.343,0,0,0,
,0.828,0.369,-0.069,295.227,79.04,-293.396,0,0,0,
,0.806,0.373,-0.055,290.71,79.345,-220.337,0,0,0,
,0.814,0.404,-0.026,303.65,91.613,-153.138,0,0,0,
,0.833,0.421,-0.004,333.801,101.562,-98.572,0,0,0,
,0.858,0.408,-0.004,377.197,127.38,-58.899,0,0,0,
,0.895,0.384,-0.024,402.893,144.043,-19.593,0,0,0,
,0.932,0.371,-0.043,390.503,121.765,36.865,0,0,0,
,0.937,0.35,-0.047,362.854,81.359,111.084,0,0,0,
,0.922,0.325,-0.037,311.218,50.109,182.006,0,0,0,
,0.907,0.302,-0.029,220.459,41.503,258.239,0,0,0,
,0.916,0.292,-0.036,111.633,55.786,306.03,0,0,0,
,0.959,0.306,-0.059,24.353,80.078,332.58,0,0,0,
,1.029,0.326,-0.091,-14.283,97.839,324.829,0,0,0,
,1.118,0.341,-0.131,8.911,109.619,290.771,0,0,0,
,1.189,0.367,-0.163,25.146,85.998,247.192,0,0,0,
,1.208,0.394,-0.184,57.251,37.17,209.838,0,0,0,
,1.143,0.378,-0.181,117.614,-8.545,177.917,0,0,0,
,1.039,0.344,-0.177,203.186,-25.513,176.757,0,0,0,
,0.955,0.31,-0.182,239.013,-20.508,210.327,0,0,0,
,0.914,0.279,-0.172,230.651,-12.513,252.868,0,0,0,
,0.903,0.261,-0.145,201.904,18.676,302.978,0,0,0,
,0.921,0.269,-0.136,175.537,65.612,342.163,0,0,0,
,0.933,0.291,-0.149,171.875,102.966,361.938,0,0,0,
,0.92,0.299,-0.168,211.975,118.286,360.962,0,0,0,
,0.901,0.291,-0.173,285.156,144.104,338.134,0,0,0,
,0.916,0.287,-0.176,368.835,181.396,302.856,0,0,0,
,0.979,0.252,-0.166,453.43,216.125,264.343,0,0,0,
,1.005,0.26,-0.173,518.737,210.51,244.445,0,0,0,
,0.979,0.234,-0.158,530.029,188.964,234.68,0,0,0,
,0.951,0.224,-0.142,513.427,198.547,214.05,0,0,0,
,0.948,0.227,-0.15,499.511,205.81,192.871,0,0,0,
,0.937,0.249,-0.153,486.694,182.19,176.696,0,0,0,
,0.889,0.207,-0.135,457.214,146.789,164.55,0,0,0,
,0.845,0.2,-0.114,414.734,134.521,145.08,0,0,0,
,0.809,0.203,-0.108,360.656,130.066,122.558,0,0,0,
,0.798,0.199,-0.108,307.373,128.051,93.078,0,0,0,
,0.805,0.195,-0.108,237.06,125.244,66.833,0,0,0,
,0.825,0.193,-0.092,155.456,119.506,43.029,0,0,0,
,0.834,0.204,-0.088,87.951,110.717,27.282,0,0,0,
,0.822,0.217,-0.088,37.475,99.365,11.413,0,0,0,
,0.82,0.217,-0.081,12.817,88.989,-11.231,0,0,0,
,0.828,0.216,-0.091,-17.029,73.974,-36.133,0,0,0,
,0.841,0.217,-0.095,-52.185,52.185,-63.721,0,0,0,
,0.84,0.224,-0.085,-88.074,15.869,-86.121,0,0,0,
,0.816,0.232,-0.065,-114.319,-13.489,-112,0,0,0,
,0.792,0.237,-0.039,-133.789,-28.199,-141.541,0,0,0,
,0.795,0.242,-0.029,-162.049,-22.828,-174.805,0,0,0,
,0.831,0.244,-0.034,-199.952,-27.71,-217.835,0,0,0,
,0.864,0.24,-0.041,-253.052,-49.073,-249.329,0,0,0,
,0.891,0.248,-0.05,-308.777,-83.191,-278.138,0,0,0,
,0.913,0.261,-0.071,-361.878,-112.305,-306.214,0,0,0,
,0.931,0.274,-0.084,-398.499,-153.565,-332.459,0,0,0,
,0.876,0.282,-0.073,-423.706,-204.102,-343.323,0,0,0,
,0.855,0.289,-0.058,-443.299,-237.732,-343.689,0,0,0,
,0.861,0.309,-0.056,-458.252,-208.13,-361.206,0,0,0,
,0.958,0.317,-0.106,-468.873,-153.687,-385.437,0,0,0,
,1.114,0.31,-0.187,-483.704,-146.241,-401.429,0,0,0,
,1.253,0.297,-0.253,-529.419,-181.885,-413.086,0,0,0,
,1.304,0.296,-0.286,-614.624,-237.122,-414.307,0,0,0,
,1.215,0.319,-0.264,-697.022,-283.326,-399.842,0,0,0,
,1.101,0.352,-0.204,-733.765,-262.818,-397.889,0,0,0,
,1.037,0.38,-0.151,-712.342,-159.668,-404.847,0,0,0,
,1.024,0.396,-0.114,-655.823,-61.951,-403.626,0,0,0,
,1.009,0.411,-0.098,-573.609,12.817,-395.874,0,0,0,
,0.96,0.436,-0.086,-487.183,49.377,-380.86,0,0,0,
,0.892,0.459,-0.073,-386.719,51.208,-348.694,0,0,0,
,0.802,0.432,-0.075,-284.363,39.55,-276.612,0,0,0,
,0.748,0.375,-0.073,-217.896,44.494,-189.942,0,0,0,
,0.747,0.323,-0.039,-204.163,69.213,-108.826,0,0,0,
,0.79,0.309,-0.02,-232.911,106.872,-2.076,0,0,0,
,0.857,0.331,-0.016,-283.692,104.492,88.195,0,0,0,
,0.906,0.322,-0.005,-323.914,82.885,157.959,0,0,0,
,0.93,0.291,-0.005,-362.61,84.106,193.359,0,0,0,
,0.957,0.296,-0.023,-397.156,90.271,202.27,0,0,0,
,0.974,0.326,-0.039,-385.56,76.171,192.627,0,0,0,
,0.952,0.345,-0.034,-314.637,40.771,163.208,0,0,0,
,0.906,0.345,-0.015,-242.249,19.226,114.563,0,0,0,
,0.872,0.325,0.014,-173.218,26.489,67.138,0,0,0,
,0.833,0.302,0.02,-131.043,41.198,28.137,0,0,0,
,0.814,0.303,0.017,-114.258,50.109,-1.77,0,0,0,
,0.81,0.304,0.018,-110.596,58.349,-28.809,0,0,0,
,0.814,0.343,0.021,-96.314,58.776,-57.618,0,0,0,
,0.819,0.321,0.019,-62.806,62.011,-88.623,0,0,0,
,0.832,0.33,0.022,-21.363,66.04,-118.592,0,0,0,
,0.835,0.327,0.017,22.888,71.106,-143.311,0,0,0,
,0.84,0.319,0.013,57.556,70.068,-166.81,0,0,0,
,0.832,0.31,0.016,68.542,60.058,-180.481,0,0,0,
,0.816,0.313,0.021,76.416,56.335,-191.163,0,0,0,
,0.8,0.329,0.019,94.299,62.439,-206.971,0,0,0,
,0.799,0.342,0.013,137.512,83.374,-231.385,0,0,0,
,0.82,0.347,-0.008,190.857,98.449,-251.16,0,0,0,
,0.833,0.345,-0.023,263.549,94.36,-268.006,0,0,0,
,0.844,0.338,-0.024,318.847,87.097,-272.4,0,0,0,
,0.844,0.322,-0.026,347.595,91.796,-268.921,0,0,0,
,0.857,0.309,-0.041,338.012,97.412,-252.808,0,0,0,
,0.872,0.292,-0.056,304.992,90.82,-210.877,0,0,0,
,0.886,0.283,-0.048,243.286,67.627,-159.424,0,0,0,
,0.895,0.269,-0.058,152.465,59.753,-101.319,0,0,0,
,0.894,0.263,-0.077,40.283,46.02,-45.044,0,0,0,
,0.88,0.268,-0.094,-70.984,20.629,3.601,0,0,0,
,0.86,0.29,-0.11,-152.222,8.056,34.973,0,0,0,
,0.878,0.306,-0.122,-192.627,27.16,42.053,0,0,0,
,0.929,0.297,-0.164,-211.487,59.753,36.804,0,0,0,
,1.007,0.301,-0.191,-236.634,77.453,30.7,0,0,0,
,1.108,0.313,-0.219,-254.578,85.449,18.249,0,0,0,
,1.202,0.326,-0.241,-254.212,89.233,2.868,0,0,0,
,1.265,0.302,-0.266,-233.582,84.961,2.563,0,0,0,
,1.249,0.252,-0.298,-213.074,61.34,32.226,0,0,0,
,1.146,0.154,-0.316,-204.346,6.225,76.294,0,0,0,
,1.042,0.05,-0.289,-237.061,-23.743,98.388,0,0,0,
,0.999,0.003,-0.235,-264.954,-16.175,47.729,0,0,0,
,1.047,0.009,-0.127,-235.474,8.606,-62.561,0,0,0,
,1.076,0.011,-0.058,-116.333,75.744,-163.758,0,0,0,
,1.026,-0.062,-0.119,66.467,138.061,-226.929,0,0,0,
,0.967,-0.19,-0.192,159.729,109.68,-266.236,0,0,0,
,0.928,-0.234,-0.175,103.332,61.096,-259.827,0,0,0,
,0.894,-0.22,-0.119,-39.063,49.56,-236.084,0,0,0,
,0.893,-0.184,-0.05,-116.944,78.979,-232.483,0,0,0,
,0.935,-0.166,-0.028,-114.869,128.906,-231.141,0,0,0,
,0.961,-0.179,-0.022,-24.17,126.403,-207.764,0,0,0,
,0.899,-0.085,-0.051,290.222,221.618,-167.847,0,0,0,
,0.971,-0.164,-0.055,426.696,185.852,-243.348,0,0,0,
,1.013,-0.224,-0.18,338.989,98.449,-198.975,0,0,0,
,1.024,-0.273,-0.187,6.774,-72.022,-134.644,0,0,0,
,0.943,-0.239,-0.123,-425.843,-149.598,-54.444,0,0,0,
,0.859,-0.089,-0.113,-885.498,-111.512,-22.217,0,0,0,
,0.853,0.015,-0.137,-1197.815,-57.923,-39.673,0,0,0,
,0.852,0.142,-0.185,-1193.482,-69.275,-38.697,0,0,0,
,0.82,0.181,-0.209,-946.289,-89.844,-48.218,0,0,0,
,0.784,0.126,-0.205,-727.539,-64.148,-53.162,0,0,0,
,0.807,0.151,-0.208,-616.578,-0.061,-52.369,0,0,0,
,0.882,0.181,-0.246,-526.001,37.109,-51.026,0,0,0,
,0.932,0.196,-0.263,-404.419,-0.977,-25.513,0,0,0,
,0.904,0.169,-0.235,-313.782,-67.139,10.742,0,0,0,
,0.863,0.149,-0.185,-310.12,-70.557,38.696,0,0,0,
,0.861,0.156,-0.167,-365.113,-45.166,58.349,0,0,0,
,0.879,0.189,-0.167,-402.771,-32.105,74.523,0,0,0,
,0.909,0.218,-0.178,-410.401,-30.457,87.097,0,0,0,
,0.944,0.236,-0.178,-409.302,-30.03,97.717,0,0,0,
,0.976,0.251,-0.19,-400.757,-37.11,105.713,0,0,0,
,0.993,0.269,-0.197,-387.696,-62.256,103.027,0,0,0,
,0.992,0.282,-0.198,-355.53,-84.778,94.116,0,0,0,
,0.986,0.309,-0.198,-317.322,-100.769,72.998,0,0,0,
,0.988,0.336,-0.193,-250.977,-124.756,43.701,0,0,0,
,0.979,0.334,-0.17,-143.494,-120.728,23.193,0,0,0,
,0.937,0.32,-0.157,-50.171,-133.789,8.3,0,0,0,
,0.913,0.296,-0.138,-2.747,-127.076,3.845,0,0,0,
,0.945,0.281,-0.128,-9.644,-101.807,5.004,0,0,0,
,1.051,0.251,-0.123,-45.105,-72.632,16.845,0,0,0,
,1.225,0.278,-0.154,-98.999,-35.279,48.278,0,0,0,
,1.394,0.263,-0.213,-167.908,-58.716,91.003,0,0,0,
,1.428,0.235,-0.251,-272.95,-139.161,166.504,0,0,0,
,1.252,0.197,-0.196,-400.147,-257.691,259.155,0,0,0,
,1.025,0.162,-0.115,-525.086,-287.232,338.073,0,0,0,
,0.84,0.166,-0.031,-565.43,-251.587,391.784,0,0,0,
,0.757,0.156,0.03,-524.476,-163.758,405.395,0,0,0,
,0.729,0.183,0.056,-400.757,-54.017,393.737,0,0,0,
,0.756,0.148,0.048,-237.488,55.664,385.559,0,0,0,
,0.841,0.093,0.021,-67.444,99.182,384.765,0,0,0,
,0.922,0.014,-0.026,46.997,71.96,414.245,0,0,0,
,0.96,-0.054,-0.061,74.707,-7.081,454.528,0,0,0,
,0.984,-0.08,-0.059,6.469,-84.595,468.017,0,0,0,
,0.997,-0.061,-0.061,-113.648,-126.221,446.35,0,0,0,
,0.993,-0.001,-0.055,-239.38,-173.157,401.306,0,0,0,
,0.959,0.065,-0.029,-304.871,-208.191,334.106,0,0,0,
,0.903,0.108,-0.006,-297.913,-187.928,262.939,0,0,0,
,0.871,0.15,-0.019,-259.766,-122.193,185.852,0,0,0,
,0.868,0.188,-0.075,-197.144,-75.318,114.318,0,0,0,
,0.852,0.198,-0.096,-94.666,-71.9,55.053,0,0,0,
,0.821,0.201,-0.066,-2.93,-76.111,-8.057,0,0,0,
,0.794,0.207,-0.024,39.062,-43.763,-72.327,0,0,0,
,0.783,0.225,-0.01,50.842,4.882,-141.602,0,0,0,
,0.792,0.242,-0.009,63.415,44.128,-217.225,0,0,0,
,0.808,0.262,-0.029,89.111,59.082,-250.611,0,0,0,
,0.83,0.28,-0.025,112.609,55.969,-285.645,0,0,0,
,0.83,0.297,-0.017,137.207,52.734,-309.754,0,0,0,
,0.816,0.312,-0.004,171.02,49.011,-329.407,0,0,0,
,0.786,0.318,-0.003,211.303,47.485,-338.196,0,0,0,
,0.765,0.311,-0.009,247.192,56.091,-341.675,0,0,0,
,0.773,0.31,-0.004,258.545,69.397,-343.384,0,0,0,
,0.8,0.322,-0.013,254.15,79.284,-340.821,0,0,0,
,0.833,0.332,-0.014,250.122,69.58,-335.083,0,0,0,
,0.859,0.344,-0.009,251.22,65.368,-329.407,0,0,0,
,0.895,0.357,-0.003,250.427,75.744,-322.022,0,0,0,
,0.928,0.357,-0.012,242.004,78.735,-303.833,0,0,0,
,0.955,0.352,-0.024,216.491,69.152,-270.386,0,0,0,
,0.954,0.341,-0.048,168.457,42.358,-222.046,0,0,0,
,0.944,0.329,-0.057,91.125,9.399,-164.734,0,0,0,
,0.94,0.329,-0.055,-3.479,-5.066,-102.051,0,0,0,
,0.94,0.349,-0.057,-99.183,-8.179,-49.561,0,0,0,
,0.949,0.391,-0.055,-136.231,13.916,-14.283,0,0,0,
,1.024,0.423,-0.058,-113.953,79.467,-26.246,0,0,0,
,1.126,0.445,-0.075,-51.27,121.215,-47.303,0,0,0,
,1.17,0.464,-0.091,26.977,114.807,-51.392,0,0,0,
,1.163,0.471,-0.119,137.268,103.088,-41.504,0,0,0,
,1.122,0.452,-0.169,236.999,71.838,-12.513,0,0,0,
,1.057,0.401,-0.196,300.659,16.54,55.419,0,0,0,
,0.995,0.351,-0.189,309.692,-30.213,149.658,0,0,0,
,0.968,0.333,-0.147,289.611,-32.105,228.759,0,0,0,
,0.956,0.344,-0.131,285.522,-2.198,288.513,0,0,0,
,0.943,0.362,-0.122,335.632,35.705,316.772,0,0,0,
,0.933,0.364,-0.13,433.532,95.886,308.41,0,0,0,
,0.937,0.35,-0.16,528.503,142.395,284.851,0,0,0,
,0.944,0.345,-0.192,619.323,168.029,253.479,0,0,0,
,0.941,0.342,-0.212,742.859,167.419,219.116,0,0,0,
,0.928,0.331,-0.211,868.53,160.827,179.687,0,0,0,
,0.909,0.307,-0.197,980.774,161.255,148.62,0,0,0,
,0.918,0.271,-0.202,1037.048,174.255,118.774,0,0,0,
,0.95,0.249,-0.22,1036.743,170.227,103.271,0,0,0,
,0.956,0.232,-0.233,995.117,128.234,107.91,0,0,0,
,0.932,0.222,-0.224,936.462,85.205,128.479,0,0,0,
,0.898,0.222,-0.205,871.46,62.744,150.085,0,0,0,
,0.886,0.218,-0.199,807.067,59.082,179.687,0,0,0,
,0.876,0.212,-0.2,730.713,49.865,213.745,0,0,0,
,0.865,0.205,-0.195,654.235,35.888,251.526,0,0,0,
,0.854,0.209,-0.191,573.12,34.057,277.099,0,0,0,
,0.859,0.223,-0.2,516.906,44.433,290.1,0,0,0,
,0.873,0.226,-0.217,489.624,43.701,301.269,0,0,0,
,0.87,0.213,-0.222,462.28,22.888,313.293,0,0,0,
,0.861,0.201,-0.213,416.565,17.15,325.805,0,0,0,
,0.859,0.199,-0.205,356.872,18.066,335.754,0,0,0,
,0.856,0.198,-0.196,292.968,17.089,341.858,0,0,0,
,0.858,0.196,-0.189,228.942,28.198,346.252,0,0,0,
,0.857,0.197,-0.18,154.602,45.41,347.168,0,0,0,
,0.861,0.206,-0.165,97.229,55.542,346.069,0,0,0,
,0.865,0.215,-0.146,63.537,79.589,332.702,0,0,0,
,0.883,0.22,-0.121,46.203,100.158,312.011,0,0,0,
,0.893,0.225,-0.107,18.92,112.671,293.396,0,0,0,
,0.907,0.231,-0.11,-17.09,113.952,256.591,0,0,0,
,0.902,0.23,-0.122,-47.913,93.444,211.914,0,0,0,
,0.865,0.221,-0.11,-63.66,54.382,170.349,0,0,0,
,0.822,0.225,-0.058,-67.322,38.269,120.361,0,0,0,
,0.801,0.241,-0.014,-58.472,54.199,57.434,0,0,0,
,0.792,0.257,0.014,-37.537,86.364,-28.077,0,0,0,
,0.821,0.264,0.032,-18.555,128.906,-126.954,0,0,0,
,0.927,0.261,0.015,-33.326,181.945,-244.812,0,0,0,
,1.076,0.257,-0.028,-79.285,199.157,-357.972,0,0,0,
,1.216,0.261,-0.067,-155.03,152.16,-439.148,0,0,0,
,1.24,0.26,-0.089,-246.399,70.007,-493.836,0,0,0,
,1.146,0.258,-0.073,-355.652,0.976,-512.513,0,0,0,
,1.003,0.276,-0.037,-449.036,-39.124,-513.55,0,0,0,
,0.885,0.306,0.011,-503.296,-46.448,-498.475,0,0,0,
,0.82,0.326,0.059,-527.283,4.943,-485.901,0,0,0,
,0.821,0.338,0.073,-528.992,83.862,-475.342,0,0,0,
,0.847,0.346,0.046,-517.518,118.652,-448.853,0,0,0,
,0.873,0.368,0.019,-494.69,116.455,-420.899,0,0,0,
,0.908,0.396,-0.002,-447.754,106.079,-398.377,0,0,0,
,0.972,0.415,-0.014,-373.23,94.848,-367.92,0,0,0,
,1.018,0.4,-0.012,-304.139,64.209,-315.979,0,0,0,
,1.016,0.377,-0.015,-280.823,18.981,-252.625,0,0,0,
,1.009,0.356,-0.011,-296.57,13.671,-188.233,0,0,0,
,1.04,0.363,-0.037,-319.031,32.959,-143.494,0,0,0,
,1.053,0.385,-0.065,-323.67,0.671,-105.347,0,0,0,
,1.005,0.377,-0.05,-307.007,-35.767,-97.29,0,0,0,
,0.918,0.37,-0.033,-297.12,-38.575,-117.127,0,0,0,
,0.865,0.381,-0.03,-272.278,-18.921,-148.316,0,0,0,
,0.839,0.398,-0.027,-210.144,5.92,-186.219,0,0,0,
,0.815,0.403,-0.041,-119.751,19.47,-224.244,0,0,0,
,0.797,0.402,-0.041,-19.104,28.32,-261.841,0,0,0,
,0.794,0.41,-0.038,74.401,40.222,-300.721,0,0,0,
,0.808,0.428,-0.042,196.289,61.767,-336.914,0,0,0,
,0.83,0.432,-0.043,322.692,68.786,-361.451,0,0,0,
,0.857,0.414,-0.025,419.067,68.969,-365.357,0,0,0,
,0.875,0.396,-0.013,454.223,81.42,-347.718,0,0,0,
,0.901,0.395,-0.012,451.11,88.073,-312.134,0,0,0,
,0.896,0.4,-0.013,446.289,65.612,-256.958,0,0,0,
,0.872,0.388,-0.017,446.838,45.593,-175.538,0,0,0,
,0.868,0.372,-0.017,444.458,47.851,-123.291,0,0,0,
,0.878,0.355,-0.035,434.143,37.719,-52.735,0,0,0,
,0.885,0.344,-0.032,414.917,13.183,15.075,0,0,0,
,0.881,0.331,-0.033,392.151,2.136,75.683,0,0,0,
,0.889,0.317,-0.036,366.455,2.197,127.014,0,0,0,
,0.894,0.31,-0.048,339.05,9.277,171.386,0,0,0,
,0.906,0.3,-0.065,308.899,14.404,208.068,0,0,0,
,0.92,0.286,-0.086,278.198,6.958,234.192,0,0,0,
,0.913,0.275,-0.092,245.239,-10.193,259.582,0,0,0,
,0.893,0.275,-0.09,212.28,-20.325,273.193,0,0,0,
,0.88,0.273,-0.079,189.209,-11.475,273.254,0,0,0,
,0.872,0.274,-0.086,170.776,2.319,267.151,0,0,0,
,0.89,0.273,-0.091,158.447,29.419,249.267,0,0,0,
,0.922,0.274,-0.105,146.85,46.203,224.365,0,0,0,
,0.966,0.283,-0.113,144.47,60.852,185.913,0,0,0,
,1.004,0.302,-0.127,146.789,61.889,146.24,0,0,0,
,1.018,0.312,-0.126,151.489,49.316,113.83,0,0,0,
,1.014,0.308,-0.124,172.424,48.095,83.19,0,0,0,
,1.006,0.293,-0.132,188.903,50.476,77.941,0,0,0,
,0.966,0.271,-0.144,170.044,21.423,104.675,0,0,0,
,0.916,0.255,-0.139,120.788,6.591,142.517,0,0,0,
,0.883,0.248,-0.137,59.875,15.441,181.457,0,0,0,
,0.87,0.262,-0.129,12.085,30.944,212.036,0,0,0,
,0.882,0.28,-0.123,-4.517,71.167,218.75,0,0,0,
,0.913,0.294,-0.136,13.427,115.722,198.242,0,0,0,
,0.92,0.295,-0.152,47.912,136.474,177.49,0,0,0,
,0.9,0.292,-0.166,94.177,148.62,144.226,0,0,0,
,0.882,0.291,-0.181,147.216,166.992,101.257,0,0,0,
,0.862,0.297,-0.177,224.426,178.588,51.086,0,0,0,
,0.832,0.302,-0.152,317.443,194.458,1.892,0,0,0,
,0.807,0.306,-0.134,418.457,230.713,-48.096,0,0,0,
,0.817,0.295,-0.115,499.755,285.034,-109.314,0,0,0,
,0.854,0.278,-0.132,542.236,331.482,-149.903,0,0,0,
,0.885,0.258,-0.15,538.635,327.392,-163.758,0,0,0,
,0.905,0.261,-0.149,507.873,314.941,-169.617,0,0,0,
,0.943,0.274,-0.156,480.713,310.974,-181.702,0,0,0,
,0.972,0.277,-0.162,473.449,289.734,-188.05,0,0,0,
,0.964,0.271,-0.149,463.073,256.225,-185.181,0,0,0,
,0.926,0.263,-0.142,436.828,240.173,-172.12,0,0,0,
,0.894,0.261,-0.138,400.024,232.238,-154.236,0,0,0,
,0.878,0.258,-0.128,371.093,222.351,-135.132,0,0,0,
,0.858,0.255,-0.122,339.172,218.628,-117.676,0,0,0,
,0.841,0.264,-0.116,310.241,211.853,-106.202,0,0,0,
,0.835,0.27,-0.117,301.941,209.411,-105.774,0,0,0,
,0.836,0.272,-0.12,306.64,205.2,-111.878,0,0,0,
,0.857,0.269,-0.125,310.058,197.754,-117.432,0,0,0,
,0.865,0.259,-0.097,293.884,172.668,-115.54,0,0,0,
,0.859,0.256,-0.131,266.113,144.104,-110.535,0,0,0,
,0.852,0.26,-0.131,235.778,120.971,-107.972,0,0,0,
,0.859,0.265,-0.137,206.115,107.055,-107.544,0,0,0,
,0.857,0.269,-0.132,184.021,84.716,-105.957,0,0,0,
,0.858,0.275,-0.124,163.452,77.026,-108.033,0,0,0,
,0.88,0.284,-0.125,144.592,84.533,-115.418,0,0,0,
,0.904,0.29,-0.144,132.934,71.106,-116.211,0,0,0,
,0.924,0.289,-0.149,125.244,51.879,-118.409,0,0,0,
,0.946,0.292,-0.16,113.647,35.705,-117.249,0,0,0,
,0.959,0.287,-0.162,99.487,9.46,-114.075,0,0,0,
,0.947,0.287,-0.164,83.923,-14.649,-104.615,0,0,0,
,0.943,0.291,-0.145,70.312,-24.048,-96.558,0,0,0,
,0.957,0.306,-0.138,66.528,-4.578,-100.281,0,0,0,
,0.995,0.312,-0.141,73.791,12.268,-110.779,0,0,0,
,1.07,0.31,-0.166,69.397,41.87,-130.982,0,0,0,
,1.171,0.306,-0.216,49.56,42.968,-151.734,0,0,0,
,1.229,0.3,-0.249,7.751,4.699,-160.584,0,0,0,
,1.182,0.301,-0.24,-40.284,-57.801,-149.964,0,0,0,
,1.052,0.312,-0.187,-72.51,-84.168,-132.691,0,0,0,
,0.9,0.318,-0.134,-71.473,-66.712,-107.544,0,0,0,
,0.789,0.325,-0.082,-46.387,-23.255,-89.051,0,0,0,
,0.741,0.33,-0.048,-19.349,60.913,-84.778,0,0,0,
,0.742,0.338,-0.066,3.479,131.958,-94.483,0,0,0,
,0.753,0.336,-0.093,41.137,133.239,-95.765,0,0,0,
,0.753,0.339,-0.104,108.52,99.731,-93.75,0,0,0,
,0.753,0.345,-0.101,156.128,78.918,-88.807,0,0,0,
,0.77,0.335,-0.093,211.181,76.11,-79.956,0,0,0,
,0.841,0.31,-0.084,223.693,93.017,-62.134,0,0,0,
,0.867,0.293,-0.079,185.852,112.793,-40.345,0,0,0,
,0.943,0.302,-0.075,127.197,140.991,-13.489,0,0,0,
,0.979,0.316,-0.087,79.467,147.216,11.901,0,0,0,
,0.975,0.329,-0.097,73.242,144.897,36.926,0,0,0,
,0.982,0.35,-0.111,106.201,170.715,42.419,0,0,0,
,1.012,0.364,-0.131,185.669,183.471,34.118,0,0,0,
,1.005,0.357,-0.136,293.335,153.808,35.339,0,0,0,
,0.958,0.347,-0.112,414.734,132.69,29.541,0,0,0,
,0.9,0.34,-0.088,517.151,158.569,13.855,0,0,0,
,0.883,0.322,-0.093,602.722,192.749,-11.292,0,0,0,
,0.89,0.289,-0.097,650.94,208.618,-30.884,0,0,0,
,0.845,0.267,-0.09,649.658,196.533,-37.476,0,0,0,
,0.856,0.271,-0.086,630.127,190.551,-50.843,0,0,0,
,0.85,0.284,-0.09,627.929,196.777,-76.661,0,0,0,
,0.864,0.289,-0.096,646.972,197.204,-106.934,0,0,0,
,0.871,0.281,-0.097,666.931,175.842,-125.428,0,0,0,
,0.869,0.274,-0.098,675.598,169.494,-138.306,0,0,0,
,0.869,0.273,-0.103,676.574,159.362,-148.56,0,0,0,
,0.862,0.275,-0.102,676.513,144.714,-149.048,0,0,0,
,0.839,0.272,-0.093,676.757,139.038,-143.067,0,0,0,
,0.815,0.271,-0.094,676.941,143.615,-136.048,0,0,0,
,0.805,0.271,-0.093,680.297,149.17,-130.555,0,0,0,
,0.8,0.271,-0.096,690.124,150.329,-119.507,0,0,0,
,0.795,0.264,-0.102,692.871,150.451,-112.61,0,0,0,
,0.822,0.258,-0.104,686.096,161.438,-105.53,0,0,0,
,0.866,0.25,-0.106,654.968,166.931,-104.004,0,0,0,
,0.908,0.243,-0.113,604.431,161.499,-93.811,0,0,0,
,0.938,0.243,-0.122,536.804,145.874,-78.492,0,0,0,
,0.948,0.242,-0.125,466.125,132.263,-58.106,0,0,0,
,0.95,0.248,-0.126,389.831,115.356,-30.945,0,0,0,
,0.935,0.248,-0.127,327.209,99.121,-3.54,0,0,0,
,0.901,0.254,-0.117,274.719,84.777,27.465,0,0,0,
,0.856,0.264,-0.1,240.112,91.308,52.124,0,0,0,
,0.846,0.276,-0.103,232.971,121.582,58.349,0,0,0,
,0.842,0.276,-0.109,242.37,145.752,58.41,0,0,0,
,0.837,0.262,-0.116,252.624,154.724,51.94,0,0,0,
,0.873,0.274,-0.122,256.958,192.26,23.803,0,0,0,
,0.958,0.291,-0.138,259.094,224.304,-25.147,0,0,0,
,1.035,0.295,-0.15,266.662,223.266,-74.219,0,0,0,
,1.09,0.303,-0.145,266.906,214.111,-129.334,0,0,0,
,1.096,0.319,-0.13,256.469,194.03,-156.556,0,0,0,
,1.054,0.331,-0.12,267.456,171.386,-161.988,0,0,0,
,1.007,0.328,-0.125,290.405,152.771,-139.039,0,0,0,
,0.979,0.319,-0.136,309.692,125,-94.361,0,0,0,
,0.959,0.315,-0.137,310.608,93.872,-36.377,0,0,0,
,0.937,0.314,-0.14,307.983,71.777,20.813,0,0,0,
,0.92,0.316,-0.149,317.871,56.884,57.983,0,0,0,
,0.922,0.32,-0.157,341.613,53.588,79.895,0,0,0,
,0.94,0.32,-0.176,384.765,66.345,83.19,0,0,0,
,0.96,0.307,-0.2,435.791,72.204,74.157,0,0,0,
,0.96,0.295,-0.218,482.116,68.664,60.546,0,0,0,
,0.942,0.284,-0.224,511.474,70.068,38.452,0,0,0,
,0.914,0.274,-0.218,531.982,75.805,16.967,0,0,0,
,0.882,0.268,-0.204,546.997,94.848,-1.465,0,0,0,
,0.866,0.266,-0.186,553.222,127.563,-16.785,0,0,0,
,0.888,0.27,-0.186,545.898,172.79,-29.114,0,0,0,
,0.921,0.27,-0.215,533.935,189.575,-34.058,0,0,0,
,0.933,0.273,-0.223,529.968,172.729,-24.476,0,0,0,
,0.913,0.276,-0.22,534.912,147.277,-4.822,0,0,0,
,0.898,0.267,-0.211,539.978,135.986,14.892,0,0,0,
,0.888,0.246,-0.204,532.043,135.864,41.992,0,0,0,
,0.884,0.233,-0.201,489.135,125.793,80.749,0,0,0,
,0.868,0.228,-0.188,432.067,123.657,111.877,0,0,0,
,0.855,0.229,-0.184,380.676,132.08,127.075,0,0,0,
,0.859,0.233,-0.192,341.064,145.263,131.713,0,0,0,
,0.871,0.238,-0.205,315.918,144.47,131.164,0,0,0,
,0.873,0.234,-0.208,302.673,132.08,123.169,0,0,0,
,0.866,0.228,-0.21,286.865,116.211,114.074,0,0,0,
,0.849,0.225,-0.197,267.7,108.764,100.036,0,0,0,
,0.832,0.219,-0.186,234.68,103.515,86.669,0,0,0,
,0.83,0.214,-0.177,188.72,106.872,70.617,0,0,0,
,0.835,0.215,-0.167,133.667,119.567,57.678,0,0,0,
,0.844,0.225,-0.163,74.401,127.685,46.508,0,0,0,
,0.86,0.242,-0.156,41.992,128.296,35.766,0,0,0,
,0.874,0.252,-0.149,21.728,130.737,23.071,0,0,0,
,0.891,0.25,-0.154,2.258,133.117,7.995,0,0,0,
,0.907,0.247,-0.155,-20.752,115.844,-2.381,0,0,0,
,0.909,0.251,-0.145,-49.195,96.618,-12.696,0,0,0,
,0.904,0.259,-0.12,-69.336,88.317,-28.016,0,0,0,
,0.894,0.279,-0.106,-79.407,95.52,-50.538,0,0,0,
,0.885,0.285,-0.091,-73.304,99.975,-72.449,0,0,0,
,0.883,0.297,-0.077,-60.12,106.262,-97.046,0,0,0,
,0.886,0.312,-0.063,-37.415,101.745,-122.254,0,0,0,
,0.887,0.314,-0.05,-14.527,79.65,-141.48,0,0,0,
,0.889,0.32,-0.029,-4.395,54.321,-157.044,0,0,0,
,0.899,0.325,-0.016,-12.635,34.484,-166.138,0,0,0,
,0.918,0.325,-0.012,-39.246,4.516,-168.274,0,0,0,
,0.99,0.327,-0.026,-79.712,0.732,-176.575,0,0,0,
,1.135,0.323,-0.098,-156.373,14.282,-203.186,0,0,0,
,1.29,0.314,-0.162,-266.602,-46.143,-211.914,0,0,0,
,1.31,0.332,-0.162,-390.259,-143.006,-205.628,0,0,0,
,1.167,0.362,-0.135,-444.825,-193.848,-194.764,0,0,0,
,0.975,0.382,-0.106,-444.642,-199.83,-192.872,0,0,0,
,0.816,0.378,-0.079,-392.64,-168.58,-184.571,0,0,0,
,0.732,0.386,-0.04,-333.619,-88.44,-190.491,0,0,0,
,0.727,0.408,-0.027,-256.958,3.54,-213.99,0,0,0,
,0.756,0.438,-0.049,-123.047,72.815,-247.742,0,0,0,
,0.776,0.454,-0.08,47.302,82.275,-278.138,0,0,0,
,0.772,0.442,-0.093,226.196,48.217,-289.124,0,0,0,
,0.762,0.4,-0.078,334.289,19.47,-278.199,0,0,0,
,0.784,0.368,-0.049,352.6,24.536,-248.963,0,0,0,
,0.836,0.358,-0.042,323.242,28.991,-192.872,0,0,0,
,0.884,0.353,-0.057,279.052,27.832,-120.362,0,0,0,
,0.92,0.333,-0.072,207.397,18.798,-49.256,0,0,0,
,0.936,0.306,-0.088,108.886,11.352,20.324,0,0,0,
,0.945,0.317,-0.098,1.098,9.155,78.857,0,0,0,
,0.957,0.365,-0.114,-35.462,29.724,104.675,0,0,0,
,0.973,0.395,-0.123,30.7,60.485,102.234,0,0,0,
,0.977,0.389,-0.131,150.573,87.951,82.824,0,0,0,
,0.948,0.375,-0.122,257.873,92.651,72.387,0,0,0,
,0.89,0.36,-0.116,362.793,104.614,65.063,0,0,0,
,0.854,0.345,-0.109,443.603,141.357,47.18,0,0,0,
,0.856,0.327,-0.117,499.328,173.339,27.893,0,0,0,
,0.877,0.311,-0.112,526.489,179.382,10.925,0,0,0,
,0.869,0.31,-0.096,543.09,182.495,-6.958,0,0,0,
,0.864,0.315,-0.091,565.612,199.463,-34.729,0,0,0,
,0.865,0.318,-0.091,588.562,216.552,-71.717,0,0,0,
,0.874,0.312,-0.091,614.99,221.862,-99.854,0,0,0,
,0.87,0.313,-0.077,632.995,212.097,-121.521,0,0,0,
,0.86,0.323,-0.066,655.09,203.735,-135.498,0,0,0,
,0.854,0.321,-0.071,682.739,194.397,-146.241,0,0,0,
,0.859,0.312,-0.073,697.692,182.19,-144.288,0,0,0,
,0.861,0.305,-0.08,700.5,147.888,-130.005,0,0,0,
,0.854,0.299,-0.081,686.584,115.844,-104.493,0,0,0,
,0.85,0.291,-0.085,665.1,100.952,-77.149,0,0,0,
,0.857,0.285,-0.093,631.53,83.374,-45.35,0,0,0,
,0.865,0.279,-0.103,593.689,83.068,-14.1,0,0,0,
,0.885,0.281,-0.11,550.354,85.449,8.361,0,0,0,
,0.901,0.282,-0.129,521.301,88.806,31.189,0,0,0,
,0.901,0.284,-0.133,509.521,91.491,45.044,0,0,0,
,0.899,0.282,-0.138,500.732,99.06,57.556,0,0,0,
,0.894,0.276,-0.141,490.661,115.783,62.805,0,0,0,
,0.886,0.27,-0.147,472.9,126.77,69.274,0,0,0,
,0.865,0.265,-0.137,447.387,134.155,74.585,0,0,0,
,0.844,0.263,-0.132,421.447,143.066,73.486,0,0,0,
,0.826,0.27,-0.13,397.461,160.217,65.49,0,0,0,
,0.815,0.278,-0.128,394.47,176.818,51.94,0,0,0,
,0.809,0.286,-0.122,403.503,196.899,33.386,0,0,0,
,0.835,0.291,-0.112,420.105,227.966,4.699,0,0,0,
,0.914,0.296,-0.108,422.18,280.212,-33.387,0,0,0,
,1.014,0.302,-0.137,410.949,305.847,-70.252,0,0,0,
,1.093,0.31,-0.15,393.676,277.526,-90.821,0,0,0,
,1.08,0.321,-0.142,372.07,218.567,-89.478,0,0,0,
,1.022,0.332,-0.132,370.361,192.016,-79.041,0,0,0,
,0.976,0.322,-0.153,383.361,180.603,-48.829,0,0,0,
,0.966,0.297,-0.169,374.939,160.461,1.464,0,0,0,
,0.951,0.266,-0.167,323.913,133.3,74.462,0,0,0,
,0.921,0.263,-0.151,263,130.981,150.268,0,0,0,
,0.891,0.282,-0.135,208.496,158.996,199.829,0,0,0,
,0.876,0.296,-0.145,207.153,215.026,214.111,0,0,0,
,0.888,0.306,-0.173,250.976,266.723,209.9,0,0,0,
,0.89,0.302,-0.207,318.725,286.621,196.655,0,0,0,
,0.878,0.296,-0.226,385.07,283.203,164.856,0,0,0,
,0.851,0.297,-0.232,466.186,280.822,123.535,0,0,0,
,0.832,0.299,-0.231,542.541,288.33,65.307,0,0,0,
,0.831,0.291,-0.235,612.304,309.631,9.887,0,0,0,
,0.832,0.277,-0.246,634.643,336.059,-42.664,0,0,0,
,0.847,0.276,-0.257,598.327,351.257,-81.299,0,0,0,
,0.863,0.275,-0.265,532.653,363.952,-112.854,0,0,0,
,0.882,0.291,-0.271,465.393,378.173,-134.156,0,0,0,
,0.907,0.33,-0.287,416.015,400.085,-144.959,0,0,0,
,0.924,0.373,-0.32,466.858,410.4,-156.495,0,0,0,
,0.939,0.409,-0.326,559.875,409.729,-170.777,0,0,0,
,0.934,0.413,-0.319,689.819,403.442,-189.515,0,0,0,
,0.918,0.374,-0.305,769.409,397.461,-196.9,0,0,0,
,0.881,0.334,-0.27,776.794,380.005,-182.007,0,0,0,
,0.853,0.329,-0.236,732.849,380.798,-155.579,0,0,0,
,0.844,0.334,-0.249,682.495,385.498,-135.376,0,0,0,
,0.842,0.333,-0.208,640.991,381.042,-120.911,0,0,0,
,0.838,0.32,-0.201,593.261,365.783,-97.535,0,0,0,
,0.821,0.317,-0.187,545.044,341.797,-75.745,0,0,0,
,0.809,0.329,-0.168,514.709,319.336,-60.364,0,0,0,
,0.805,0.332,-0.167,510.376,303.283,-55.97,0,0,0,
,0.812,0.32,-0.156,500.061,276.855,-57.007,0,0,0,
,0.818,0.304,-0.152,467.834,248.291,-56.397,0,0,0,
,0.833,0.3,-0.138,406.433,214.477,-55.97,0,0,0,
,0.846,0.302,-0.135,346.984,188.476,-55.176,0,0,0,
,0.865,0.3,-0.141,274.109,155.578,-56.702,0,0,0,
,0.877,0.297,-0.147,186.767,115.905,-50.293,0,0,0,
,0.885,0.296,-0.15,89.477,82.946,-44.678,0,0,0,
,0.889,0.32,-0.148,4.394,53.222,-38.025,0,0,0,
,0.891,0.374,-0.157,-42.725,31.372,-41.138,0,0,0,
,0.891,0.35,-0.165,-56.153,15.747,-47.486,0,0,0,
,0.883,0.352,-0.162,-54.81,2.929,-58.594,0,0,0,
,0.87,0.354,-0.15,-52.674,-5.86,-65.064,0,0,0,
,0.853,0.356,-0.133,-49.378,-6.836,-74.83,0,0,0,
,0.843,0.361,-0.129,-42.481,-2.198,-84.717,0,0,0,
,0.843,0.365,-0.125,-36.316,-5.738,-95.459,0,0,0,
,0.853,0.367,-0.122,-22.828,-22.583,-102.967,0,0,0,
,0.87,0.37,-0.115,-15.87,-37.354,-110.291,0,0,0,
,0.89,0.365,-0.112,-17.029,-59.998,-116.517,0,0,0,
,0.902,0.361,-0.112,-38.636,-85.45,-114.38,0,0,0,
,0.912,0.353,-0.106,-76.05,-116.272,-106.69,0,0,0,
,0.966,0.361,-0.107,-112.671,-119.69,-104.676,0,0,0,
,1.095,0.369,-0.143,-166.077,-109.131,-123.291,0,0,0,
,1.223,0.351,-0.204,-213.501,-155.518,-135.376,0,0,0,
,1.273,0.338,-0.228,-296.875,-224.854,-134.461,0,0,0,
,1.249,0.354,-0.241,-384.4,-270.813,-144.959,0,0,0,
,1.125,0.373,-0.234,-439.393,-318.909,-137.452,0,0,0,
,0.917,0.377,-0.163,-412.171,-353.028,-103.821,0,0,0,
,0.75,0.38,-0.079,-343.018,-307.373,-70.862,0,0,0,
,0.672,0.393,-0.027,-265.015,-187.867,-50.904,0,0,0,
,0.681,0.406,-0.018,-168.58,-43.824,-45.289,0,0,0,
,0.721,0.406,-0.058,-55.542,33.447,-34.241,0,0,0,
,0.789,0.399,-0.066,76.049,53.955,-16.175,0,0,0,
,0.855,0.378,-0.065,161.56,55.419,23.559,0,0,0,
,0.922,0.363,-0.073,237.548,40.954,75.012,0,0,0,
,1.028,0.338,-0.08,289.245,19.043,139.831,0,0,0,
,1.07,0.296,-0.095,279.663,-29.969,205.871,0,0,0,
,1.103,0.244,-0.091,180.664,-98.938,275.085,0,0,0,
,1.079,0.222,-0.07,31.433,-159.424,334.533,0,0,0,
,1.006,0.219,-0.05,-140.564,-186.28,372.436,0,0,0,
,0.929,0.239,-0.038,-267.884,-173.462,379.272,0,0,0,
,0.863,0.277,-0.03,-320.313,-143.494,352.356,0,0,0,
,0.804,0.313,-0.022,-286.499,-112.854,310.974,0,0,0,
,0.748,0.324,-0.02,-193.726,-69.275,257.385,0,0,0,
,0.714,0.334,-0.011,-79.773,-24.353,183.532,0,0,0,
,0.708,0.351,-0.015,16.479,19.409,94.543,0,0,0,
,0.724,0.362,-0.019,130.249,52.612,28.198,0,0,0,
,0.749,0.361,-0.004,226.257,71.228,-40.772,0,0,0,
,0.782,0.369,0.007,276.855,102.356,-93.628,0,0,0,
,0.789,0.375,-0.004,310.913,112.365,-124.512,0,0,0,
,0.787,0.386,-0.004,350.525,110.778,-135.56,0,0,0,
,0.786,0.393,0,377.746,116.333,-141.785,0,0,0,
,0.791,0.4,0.01,399.17,123.779,-139.161,0,0,0,
,0.78,0.388,0.002,420.105,137.085,-139.832,0,0,0,
,0.786,0.375,-0.006,423.889,140.38,-145.691,0,0,0,
,0.774,0.347,-0.011,386.84,153.93,-135.682,0,0,0,
,0.776,0.338,-0.014,296.753,161.316,-117.188,0,0,0,
,0.797,0.364,-0.006,220.459,147.522,-95.093,0,0,0,
,0.811,0.375,-0.003,199.646,124.206,-96.009,0,0,0,
,0.809,0.365,0.012,173.706,116.15,-84.534,0,0,0,
,0.807,0.357,0.021,122.253,112.671,-70.313,0,0,0,
,0.798,0.36,0.017,74.89,102.722,-54.566,0,0,0,
,0.793,0.352,0.006,32.165,97.229,-43.152,0,0,0,
,0.795,0.338,0.007,-16.114,80.871,-29.602,0,0,0,
,0.799,0.334,0.002,-83.374,68.603,-18.799,0,0,0,
,0.799,0.343,0.004,-138.062,53.222,-12.94,0,0,0,
,0.78,0.358,0.004,-158.387,41.32,-19.165,0,0,0,
,0.76,0.359,0.007,-148.682,40.954,-36.377,0,0,0,
,0.774,0.364,0.002,-136.963,70.007,-74.158,0,0,0,
,0.845,0.366,-0.018,-129.883,112.426,-122.681,0,0,0,
,0.959,0.376,-0.042,-121.521,124.328,-181.885,0,0,0,
,1.055,0.394,-0.043,-136.658,96.313,-228.455,0,0,0,
,1.112,0.407,-0.035,-181.275,67.077,-251.221,0,0,0,
,1.115,0.405,-0.05,-211.304,47.607,-240.967,0,0,0,
,1.1,0.393,-0.087,-254.09,21.545,-192.749,0,0,0,
,1.08,0.365,-0.126,-325.196,-23.377,-106.69,0,0,0,
,1.057,0.339,-0.135,-411.988,-68.909,-8.667,0,0,0,
,1.029,0.355,-0.117,-519.471,-90.455,90.576,0,0,0,
,1.011,0.386,-0.092,-581.482,-90.088,149.17,0,0,0,
,0.99,0.393,-0.076,-584.473,-56.214,163.269,0,0,0,
,0.961,0.4,-0.06,-552.43,-9.705,160.461,0,0,0,
,0.928,0.411,-0.068,-480.774,23.986,145.019,0,0,0,
,0.869,0.417,-0.078,-355.591,51.696,114.196,0,0,0,
,0.824,0.42,-0.087,-189.82,73.425,75.744,0,0,0,
,0.811,0.417,-0.081,8.483,100.769,31.555,0,0,0,
,0.832,0.416,-0.076,197.754,118.164,-18.799,0,0,0,
,0.858,0.382,-0.072,357.605,116.027,-56.763,0,0,0,
,0.891,0.329,-0.061,436.95,113.037,-82.337,0,0,0,
,0.957,0.313,-0.064,409.668,116.699,-95.032,0,0,0,
,1,0.301,-0.086,364.563,74.035,-78.003,0,0,0,
,0.985,0.282,-0.084,298.156,-2.381,-47.486,0,0,0,
,0.946,0.258,-0.069,190.979,-40.955,-15.931,0,0,0,
,0.932,0.247,-0.069,66.345,-52.124,20.141,0,0,0,
,0.928,0.246,-0.079,-76.905,-77.332,58.898,0,0,0,
,0.906,0.252,-0.073,-193.299,-100.464,103.271,0,0,0,
,0.877,0.276,-0.063,-255.86,-104.615,137.634,0,0,0,
,0.85,0.296,-0.058,-266.114,-89.173,159.179,0,0,0,
,0.833,0.297,-0.068,-243.714,-74.524,167.724,0,0,0,
,0.828,0.279,-0.085,-214.234,-67.2,172.79,0,0,0,
,0.839,0.267,-0.096,-196.289,-73.792,174.682,0,0,0,
,0.848,0.263,-0.085,-185.425,-87.342,157.409,0,0,0,
,0.85,0.257,-0.073,-176.453,-95.398,160.339,0,0,0,
,0.852,0.247,-0.066,-186.219,-94.788,138.305,0,0,0,
,0.851,0.242,-0.065,-219.056,-94.422,115.356,0,0,0,
,0.842,0.236,-0.058,-254.517,-104.004,86.242,0,0,0,
,0.834,0.237,-0.048,-296.753,-113.038,57.067,0,0,0,
,0.833,0.247,-0.038,-335.144,-122.803,24.047,0,0,0,
,0.845,0.247,-0.027,-371.46,-128.602,-8.301,0,0,0,
,0.868,0.249,-0.037,-411.194,-140.748,-45.96,0,0,0,
,0.889,0.266,-0.052,-450.562,-163.88,-85.999,0,0,0,
,0.895,0.279,-0.063,-477.723,-200.501,-125.123,0,0,0,
,0.879,0.292,-0.062,-495.728,-240.601,-163.88,0,0,0,
,0.861,0.297,-0.055,-488.16,-252.381,-207.276,0,0,0,
,0.866,0.299,-0.06,-476.441,-249.512,-253.296,0,0,0,
,0.889,0.299,-0.073,-477.295,-239.38,-290.467,0,0,0,
,0.918,0.302,-0.088,-480.591,-239.258,-320.557,0,0,0,
,0.916,0.32,-0.088,-467.164,-254.09,-346.07,0,0,0,
,0.899,0.335,-0.065,-435.669,-260.376,-371.155,0,0,0,
,0.879,0.341,-0.054,-400.33,-242.31,-401.246,0,0,0,
,0.92,0.329,-0.071,-381.958,-204.529,-434.327,0,0,0,
,1.034,0.318,-0.117,-407.227,-177.857,-460.389,0,0,0,
,1.149,0.313,-0.167,-467.286,-210.755,-457.154,0,0,0,
,1.193,0.312,-0.194,-548.523,-267.212,-431.153,0,0,0,
,1.212,0.329,-0.202,-623.414,-283.387,-412.72,0,0,0,
,1.217,0.333,-0.204,-701.477,-283.509,-385.437,0,0,0,
,1.134,0.328,-0.191,-783.509,-308.106,-331.116,0,0,0,
,1.008,0.337,-0.148,-841.065,-314.515,-275.757,0,0,0,
,0.898,0.355,-0.113,-873.108,-259.949,-238.16,0,0,0,
,0.846,0.373,-0.094,-858.582,-180.298,-207.215,0,0,0,
,0.823,0.381,-0.091,-795.838,-128.296,-172.791,0,0,0,
,0.784,0.383,-0.099,-703.37,-104.004,-135.193,0,0,0,
,0.777,0.39,-0.094,-617.981,-74.097,-104.676,0,0,0,
,0.792,0.387,-0.092,-490.723,-50.782,-62.561,0,0,0,
,0.819,0.341,-0.081,-385.865,-41.626,-8.301,0,0,0,
,0.847,0.272,-0.063,-345.398,-48.829,48.278,0,0,0,
,0.872,0.225,-0.048,-380.799,-55.542,106.445,0,0,0,
,0.897,0.2,-0.03,-458.863,-62.317,140.625,0,0,0,
,0.912,0.178,-0.034,-534.363,-62.561,164.367,0,0,0,
,0.927,0.171,-0.046,-613.099,-71.961,172.546,0,0,0,
,0.95,0.184,-0.056,-682.557,-81.482,172.851,0,0,0,
,0.97,0.209,-0.05,-689.454,-108.033,160.339,0,0,0,
,0.964,0.229,-0.033,-644.837,-108.033,144.897,0,0,0,
,0.925,0.244,-0.013,-573.487,-109.864,123.84,0,0,0,
,0.895,0.239,0.003,-502.015,-95.581,100.586,0,0,0,
,0.878,0.231,0,-465.76,-78.186,80.566,0,0,0,
,0.872,0.247,0.004,-447.815,-81.971,64.392,0,0,0,
,0.865,0.271,0.014,-423.401,-78.431,48.828,0,0,0,
,0.863,0.291,0.025,-383.973,-64.393,22.094,0,0,0,
,0.866,0.3,0.023,-329.468,-46.021,-7.874,0,0,0,
,0.871,0.312,0.018,-281.189,-31.495,-41.443,0,0,0,
,0.875,0.318,0.019,-234.436,-35.401,-73.731,0,0,0,
,0.854,0.322,0.022,-185.547,-38.514,-103.211,0,0,0,
,0.826,0.321,0.038,-150.086,-48.829,-131.47,0,0,0,
,0.791,0.322,0.043,-125.916,-44.617,-157.776,0,0,0,
,0.777,0.322,0.047,-116.333,-25.086,-183.655,0,0,0,
,0.799,0.334,0.039,-107.911,-6.531,-209.229,0,0,0,
,0.834,0.354,0.035,-76.294,2.929,-235.413,0,0,0,
,0.85,0.361,0.027,-27.955,-5.188,-254.883,0,0,0,
,0.849,0.35,0.028,15.319,-11.353,-266.48,0,0,0,
,0.858,0.346,0.023,29.052,0.244,-273.621,0,0,0,
,0.885,0.349,0.01,28.442,5.554,-261.475,0,0,0,
,0.903,0.346,-0.001,28.198,-5.677,-232.911,0,0,0,
,0.901,0.334,-0.003,10.498,-25.208,-175.049,0,0,0,
,0.893,0.326,0,-29.908,-31.8,-135.743,0,0,0,
,0.884,0.316,0.002,-89.539,-28.687,-76.355,0,0,0,
,0.87,0.31,-0.005,-167.481,-29.297,-16.785,0,0,0,
,0.852,0.314,-0.004,-232.239,-18.982,39.123,0,0,0,
,0.839,0.337,-0.004,-255.494,-7.386,76.538,0,0,0,
,0.844,0.355,0,-250.061,25.573,90.637,0,0,0,
,0.893,0.359,-0.014,-214.356,68.786,80.688,0,0,0,
,0.982,0.36,-0.039,-182.251,96.008,63.293,0,0,0,
,1.073,0.374,-0.07,-151.307,89.233,38.635,0,0,0,
,1.157,0.393,-0.091,-107.789,72.326,14.526,0,0,0,
,1.197,0.396,-0.109,-42.786,26.123,4.089,0,0,0,
,1.157,0.369,-0.115,-2.564,-22.339,45.532,0,0,0,
,1.089,0.322,-0.112,-23.133,-46.814,80.383,0,0,0,
,1.05,0.291,-0.11,-104.798,-39.673,152.221,0,0,0,
,1.018,0.28,-0.104,-209.29,-34.607,226.196,0,0,0,
,0.978,0.302,-0.066,-261.414,-17.884,284.912,0,0,0,
,0.938,0.321,-0.036,-251.038,34.729,312.927,0,0,0,
,0.895,0.314,-0.034,-184.815,100.891,314.636,0,0,0,
,0.869,0.293,-0.056,-98.389,152.343,302.185,0,0,0,
,0.853,0.279,-0.074,2.319,166.442,285.888,0,0,0,
,0.847,0.275,-0.073,111.816,157.287,258.3,0,0,0,
,0.867,0.274,-0.069,246.521,166.076,217.102,0,0,0,
,0.989,0.184,-0.079,476.623,115.905,123.169,0,0,0,
,0.986,0.168,-0.083,456.787,89.843,113.952,0,0,0,
,0.992,0.165,-0.086,408.935,75.683,102.661,0,0,0,
,1.003,0.152,-0.095,355.957,59.265,96.862,0,0,0,
,1.005,0.144,-0.101,277.282,38.33,103.454,0,0,0,
,0.99,0.143,-0.098,183.471,19.897,119.323,0,0,0,
,0.959,0.153,-0.098,102.417,13.671,134.704,0,0,0,
,0.921,0.164,-0.094,47.668,16.723,140.625,0,0,0,
,0.89,0.174,-0.091,18.31,23.742,142.273,0,0,0,
,0.863,0.183,-0.091,4.333,24.231,137.756,0,0,0,
,0.844,0.187,-0.089,-3.724,22.338,131.775,0,0,0,
,0.851,0.19,-0.088,-36.56,11.535,114.441,0,0,0,
,0.834,0.193,-0.076,-44.922,6.958,95.398,0,0,0,
,0.831,0.194,-0.069,-50.415,3.479,61.523,0,0,0,
,0.84,0.19,-0.063,-64.698,-0.489,27.282,0,0,0,
,0.856,0.185,-0.065,-106.446,-15.381,-7.996,0,0,0,
,0.863,0.191,-0.073,-165.711,-36.011,-51.514,0,0,0,
,0.855,0.203,-0.078,-230.286,-67.017,-96.436,0,0,0,
,0.84,0.228,-0.062,-282.654,-88.623,-146.485,0,0,0,
,0.833,0.257,-0.064,-303.406,-91.492,-201.966,0,0,0,
,0.898,0.3,-0.089,-289.246,-84.595,-334.717,0,0,0,
,0.91,0.317,-0.098,-303.101,-93.995,-354.92,0,0,0,
,0.905,0.336,-0.097,-309.571,-102.356,-368.226,0,0,0,
,0.895,0.356,-0.091,-289.246,-99.671,-376.282,0,0,0,
,0.89,0.37,-0.079,-245.728,-91.37,-380.127,0,0,0,
,0.893,0.37,-0.071,-210.144,-79.834,-375.733,0,0,0,
,0.943,0.352,-0.083,-249.024,-78.675,-304.322,0,0,0,
,0.999,0.36,-0.11,-298.218,-83.68,-269.471,0,0,0,
,1.084,0.363,-0.147,-342.896,-85.694,-241.15,0,0,0,
,1.158,0.365,-0.174,-383.179,-110.84,-213.99,0,0,0,
,1.178,0.374,-0.175,-420.105,-145.142,-180.115,0,0,0,
,1.144,0.382,-0.148,-437.989,-151.429,-154.114,0,0,0,
,1.042,0.382,-0.137,-439.881,-147.828,-123.841,0,0,0,
,0.929,0.369,-0.121,-431.214,-140.259,-90.394,0,0,0,
,0.846,0.361,-0.095,-432.984,-101.38,-68.787,0,0,0,
,0.834,0.378,-0.079,-430.787,-50.293,-55.787,0,0,0,
,0.83,0.391,-0.081,-388.123,-31.617,-35.828,0,0,0,
,0.799,0.393,-0.074,-309.632,-42.603,-12.818,0,0,0,
,0.759,0.393,-0.07,-237.244,-42.481,9.582,0,0,0,
,0.739,0.37,-0.067,-171.753,-26.978,33.325,0,0,0,
,0.82,0.327,-0.06,-145.813,19.836,108.215,0,0,0,
,0.863,0.327,-0.062,-156.739,32.531,146.606,0,0,0,
,0.885,0.328,-0.071,-153.626,47.546,168.579,0,0,0,
,0.911,0.325,-0.083,-133.118,77.026,176.452,0,0,0,
,0.94,0.321,-0.099,-107.666,95.642,172.241,0,0,0,
,0.972,0.325,-0.105,-69.397,100.647,165.283,0,0,0,
,0.981,0.33,-0.094,-1.709,102.6,152.038,0,0,0,
,0.953,0.336,-0.081,58.96,107.605,136.84,0,0,0,
,0.917,0.327,-0.066,141.845,127.197,112.915,0,0,0,
,0.898,0.316,-0.063,216.552,146.057,91.613,0,0,0,
,0.888,0.301,-0.064,267.883,153.991,71.472,0,0,0,
,0.874,0.297,-0.055,301.086,150.207,50.72,0,0,0,
,0.864,0.299,-0.046,325.561,149.353,24.597,0,0,0,
,0.855,0.303,-0.047,353.698,151.245,-4.151,0,0,0,
,0.849,0.301,-0.046,380.859,156.067,-33.936,0,0,0,
,0.86,0.293,-0.052,410.949,158.691,-86.548,0,0,0,
,0.873,0.301,-0.05,414.001,160.766,-91.492,0,0,0,
,0.881,0.301,-0.056,421.63,164.489,-93.201,0,0,0,
,0.892,0.303,-0.032,430.603,160.461,-95.948,0,0,0,
,0.899,0.303,-0.068,444.824,156.555,-95.643,0,0,0,
,0.869,0.292,-0.071,462.463,142.761,-76.966,0,0,0,
,0.868,0.295,-0.078,459.594,142.944,-75.318,0,0,0,
,0.879,0.298,-0.087,464.05,148.193,-79.468,0,0,0,
,0.894,0.301,-0.097,480.529,153.381,-91.309,0,0,0,
,0.932,0.303,-0.116,519.714,159.729,-136.658,0,0,0,
,0.916,0.298,-0.105,532.837,153.381,-153.321,0,0,0,
,0.885,0.293,-0.099,527.221,155.334,-170.227,0,0,0,
,0.872,0.296,-0.095,510.437,164.245,-185.547,0,0,0,
,0.87,0.305,-0.076,494.384,164.489,-197.327,0,0,0,
,0.873,0.309,-0.063,480.651,167.175,-197.571,0,0,0,
,1.001,0.342,-0.096,419.372,169.922,-181.397,0,0,0,
,1.027,0.347,-0.1,428.161,123.779,-141.724,0,0,0,
,1,0.338,-0.093,429.809,78.918,-116.517,0,0,0,
,0.96,0.317,-0.109,416.931,56.274,-53.345,0,0,0,
,0.949,0.301,-0.139,377.99,53.161,14.282,0,0,0,
,0.96,0.281,-0.162,331.054,30.273,98.877,0,0,0,
,0.961,0.277,-0.153,289.917,18.005,169.983,0,0,0,
,0.952,0.284,-0.135,269.531,38.33,219.726,0,0,0,
,0.957,0.286,-0.152,276.184,87.768,234.863,0,0,0,
,0.968,0.274,-0.183,303.161,130.249,232.36,0,0,0,
,0.91,0.25,-0.198,341.247,127.502,204.04,0,0,0,
,0.866,0.254,-0.182,373.108,137.39,185.058,0,0,0,
,0.832,0.251,-0.173,415.344,158.752,164.734,0,0,0,
,0.84,0.239,-0.181,446.289,179.565,143.066,0,0,0,
,0.801,0.226,-0.192,466.247,188.049,126.77,0,0,0,
,0.792,0.222,-0.198,469.36,192.505,109.192,0,0,0,
,0.789,0.226,-0.207,471.74,194.763,86.608,0,0,0,
,0.792,0.227,-0.211,483.764,204.956,51.086,0,0,0,
,0.806,0.233,-0.222,500,220.031,7.69,0,0,0,
,0.831,0.235,-0.233,515.564,243.774,-41.504,0,0,0,
,0.863,0.245,-0.24,526.001,256.652,-101.563,0,0,0,
,0.891,0.254,-0.25,539.734,280.517,-159.363,0,0,0,
,0.915,0.255,-0.257,531.799,290.1,-216.98,0,0,0,
,0.918,0.254,-0.262,553.833,295.776,-260.926,0,0,0,
,0.913,0.269,-0.259,556.274,304.87,-296.448,0,0,0,
,0.898,0.278,-0.244,567.443,312.5,-318.421,0,0,0,
,0.885,0.289,-0.225,591.125,332.885,-335.877,0,0,0,
,0.893,0.293,-0.208,615.234,365.295,-347.901,0,0,0,
,0.944,0.301,-0.236,648.376,353.21,-323.975,0,0,0,
,0.923,0.308,-0.228,665.466,326.11,-301.148,0,0,0,
,0.92,0.288,-0.214,699.157,302.795,-226.868,0,0,0,
,0.93,0.28,-0.219,672.546,306.823,-198.853,0,0,0,
,0.927,0.274,-0.225,646.545,298.584,-171.631,0,0,0,
,0.906,0.289,-0.216,626.403,300.171,-144.898,0,0,0,
,0.905,0.295,-0.225,647.033,301.513,-144.471,0,0,0,
,0.901,0.285,-0.218,675.781,289.917,-141.541,0,0,0,
,0.893,0.267,-0.202,680.847,277.588,-135.498,0,0,0,
,0.882,0.222,-0.192,652.221,265.93,-123.536,0,0,0,
,0.882,0.249,-0.193,601.318,257.385,-109.253,0,0,0,
,0.892,0.271,-0.207,559.814,192.443,-92.408,0,0,0,
,0.902,0.264,-0.208,569.213,173.462,-90.699,0,0,0,
,0.909,0.248,-0.206,553.955,155.029,-81.849,0,0,0,
,0.911,0.242,-0.202,522.094,142.578,-68.421,0,0,0,
,0.913,0.244,-0.199,472.229,136.23,-53.589,0,0,0,
,0.921,0.248,-0.203,437.866,125.732,-38.575,0,0,0,
,0.907,0.24,-0.179,331.298,44.555,15.502,0,0,0,
,0.904,0.241,-0.18,304.87,33.752,19.653,0,0,0,
,0.895,0.241,-0.175,285.461,20.202,20.568,0,0,0,
,0.884,0.239,-0.163,261.657,11.901,22.155,0,0,0,
,0.891,0.251,-0.154,238.83,10.253,17.7,0,0,0,
,0.934,0.266,-0.158,230.59,22.399,-0.55,0,0,0,
,0.965,0.267,-0.178,235.901,0.122,-6.226,0,0,0,
,0.965,0.263,-0.175,240.478,-28.016,-9.034,0,0,0,
,0.977,0.257,-0.175,217.651,-23.682,-18.25,0,0,0,
,1.018,0.252,-0.185,178.405,-19.532,-32.471,0,0,0,
,1.002,0.244,-0.179,123.779,-48.157,-33.814,0,0,0,
,0.934,0.249,-0.139,62.255,-62.317,-31.25,0,0,0,
,0.843,0.262,-0.092,13.794,-26.307,-38.025,0,0,0,
,0.843,0.276,-0.087,-11.536,24.047,-43.152,0,0,0,
,0.839,0.293,-0.104,-3.785,39.489,-53.162,0,0,0,
,0.828,0.313,-0.106,45.776,23.986,-60.486,0,0,0,
,0.828,0.337,-0.1,138.366,21.972,-77.759,0,0,0,
,0.859,0.337,-0.102,239.624,38.452,-104.248,0,0,0,
,0.922,0.312,-0.107,322.448,45.532,-113.038,0,0,0,
,0.977,0.283,-0.094,341.858,35.034,-99.671,0,0,0,
,0.998,0.275,-0.075,304.138,11.779,-72.754,0,0,0,
,0.981,0.269,-0.061,232.666,1.953,-34.668,0,0,0,
,0.945,0.252,-0.061,150.085,-17.762,4.089,0,0,0,
,0.894,0.232,-0.06,38.94,-31.617,56.03,0,0,0,
,0.864,0.233,-0.057,-69.397,-31.373,104.492,0,0,0,
,0.868,0.27,-0.056,-144.471,-5.555,131.897,0,0,0,
,0.883,0.313,-0.062,-116.944,22.216,137.451,0,0,0,
,0.897,0.328,-0.055,116.577,120.117,78.674,0,0,0,
,0.921,0.324,-0.057,224.121,169.189,33.63,0,0,0,
,0.95,0.315,-0.057,317.932,203.918,-0.794,0,0,0,
,0.956,0.3,-0.055,372.985,209.716,-30.274,0,0,0,
,0.937,0.292,-0.037,400.94,206.787,-55.359,0,0,0,
,0.905,0.301,-0.021,420.288,205.139,-76.539,0,0,0,
,0.878,0.307,-0.007,454.956,201.599,-108.033,0,0,0,
,0.854,0.296,-0.006,490.966,197.265,-105.225,0,0,0,
,0.853,0.271,-0.009,475.341,174.682,-125.855,0,0,0,
,0.857,0.267,-0.011,440.124,154.541,-133.057,0,0,0,
,0.861,0.27,-0.017,398.254,132.263,-139.1,0,0,0,
,0.862,0.281,-0.013,367.065,122.436,-144.654,0,0,0,
,0.866,0.287,-0.013,349.67,115.112,-146.79,0,0,0,
,0.864,0.289,-0.015,338.928,110.901,-143.799,0,0,0,
,0.859,0.286,-0.022,321.716,113.037,-137.33,0,0,0,
,0.837,0.288,-0.037,291.809,97.045,-104.554,0,0,0,
,0.836,0.293,-0.001,301.208,102.905,-99.06,0,0,0,
,0.852,0.292,-0.036,310.302,117.492,-106.324,0,0,0,
,0.875,0.281,-0.036,310.302,126.037,-113.77,0,0,0,
,0.897,0.272,-0.04,287.292,130.554,-116.089,0,0,0,
,0.909,0.265,-0.042,244.018,123.84,-109.986,0,0,0,
,0.907,0.267,-0.048,194.519,109.375,-100.342,0,0,0,
,0.91,0.273,-0.052,148.132,99.67,-85.938,0,0,0,
,0.904,0.275,-0.048,109.192,77.941,-70.74,0,0,0,
,0.876,0.283,-0.056,90.21,61.645,-53.223,0,0,0,
,0.854,0.277,-0.055,79.162,62.927,-43.519,0,0,0,
,0.838,0.271,-0.057,63.11,70.556,-33.814,0,0,0,
,0.835,0.267,-0.062,44.128,75.683,-28.626,0,0,0,
,0.831,0.269,-0.058,19.775,86.975,-28.992,0,0,0,
,0.828,0.269,-0.07,9.704,105.713,-36.438,0,0,0,
,0.848,0.268,-0.083,2.685,119.751,-49.256,0,0,0,
,0.879,0.271,-0.095,-5.127,134.521,-70.008,0,0,0,
,0.927,0.275,-0.106,-12.207,134.704,-94.971,0,0,0,
,0.993,0.289,-0.109,-17.395,146.789,-123.047,0,0,0,
,1.068,0.302,-0.125,-10.621,157.776,-153.687,0,0,0,
,1.108,0.302,-0.147,5.554,137.512,-166.138,0,0,0,
,1.109,0.286,-0.155,4.15,97.045,-154.358,0,0,0,
,1.069,0.246,-0.158,-31.189,56.884,-121.644,0,0,0,
,1.01,0.203,-0.161,-120.606,16.967,-62.623,0,0,0,
,0.944,0.168,-0.166,-245.972,-13.062,16.479,0,0,0,
,0.894,0.154,-0.146,-383.789,-21.18,88.501,0,0,0,
,0.878,0.158,-0.108,-495.85,8.728,135.07,0,0,0,
,0.898,0.174,-0.081,-557.618,71.228,144.043,0,0,0,
,0.94,0.188,-0.099,-557.618,149.963,131.164,0,0,0,
,0.974,0.19,-0.15,-490.052,203.064,108.276,0,0,0,
,0.986,0.19,-0.179,-361.573,180.603,81.237,0,0,0,
,0.978,0.181,-0.178,-217.469,156.86,41.626,0,0,0,
,0.959,0.187,-0.16,-60.364,143.371,1.953,0,0,0,
,0.967,0.188,-0.153,74.279,144.409,-48.462,0,0,0,
,0.978,0.158,-0.141,181.213,144.104,-94.483,0,0,0,
,0.993,0.125,-0.117,211.303,129.333,-105.53,0,0,0,
,0.999,0.101,-0.099,182.922,134.216,-99.183,0,0,0,
,1.025,0.095,-0.113,102.172,136.963,-83.497,0,0,0,
,1.05,0.076,-0.141,3.295,102.478,-47.608,0,0,0,
,1.034,0.052,-0.143,-106.263,36.01,-3.052,0,0,0,
,0.97,0.079,-0.09,-196.167,12.756,39.245,0,0,0,
,0.922,0.083,-0.085,-226.197,13.488,49.743,0,0,0,
,0.917,0.08,-0.094,-233.521,15.991,50.476,0,0,0,
,0.894,0.039,-0.127,-306.397,-22.95,53.833,0,0,0,
,0.874,0.022,-0.148,-412.171,-76.477,61.95,0,0,0,
,0.86,0.036,-0.144,-557.312,-129.883,79.467,0,0,0,
,0.855,0.083,-0.157,-640.992,-149.231,96.435,0,0,0,
,0.855,0.124,-0.156,-650.452,-158.143,99.182,0,0,0,
,0.858,0.134,-0.177,-605.286,-132.935,88.867,0,0,0,
,0.881,0.121,-0.2,-574.83,-123.108,78.125,0,0,0,
,0.908,0.114,-0.222,-572.937,-130.31,81.054,0,0,0,
,0.91,0.127,-0.244,-592.225,-148.316,81.909,0,0,0,
,0.911,0.143,-0.246,-605.591,-159.119,70.983,0,0,0,
,0.921,0.16,-0.258,-607.3,-155.762,47.485,0,0,0,
,0.927,0.169,-0.246,-607.422,-168.702,32.043,0,0,0,
,0.906,0.176,-0.237,-623.169,-173.89,20.874,0,0,0,
,0.889,0.187,-0.243,-649.659,-168.03,5.127,0,0,0,
,0.877,0.207,-0.259,-677.308,-169.678,-12.696,0,0,0,
,0.87,0.239,-0.257,-679.139,-184.449,-36.622,0,0,0,
,0.86,0.259,-0.254,-647.034,-186.707,-67.078,0,0,0,
,0.867,0.267,-0.256,-610.169,-177.552,-105.469,0,0,0,
,0.882,0.266,-0.273,-576.05,-176.636,-130.433,0,0,0,
,0.893,0.264,-0.283,-572.876,-193.543,-158.753,0,0,0,
,0.892,0.264,-0.289,-606.568,-209.9,-202.942,0,0,0,
,0.889,0.266,-0.293,-648.865,-216.797,-213.685,0,0,0,
,0.897,0.28,-0.287,-685.486,-210.206,-231.324,0,0,0,
,0.918,0.297,-0.291,-692.81,-202.149,-231.69,0,0,0,
,0.928,0.301,-0.298,-681.092,-192.078,-216.614,0,0,0,
,0.932,0.275,-0.303,-675.11,-178.345,-194.092,0,0,0,
,0.932,0.245,-0.318,-694.642,-171.204,-160.706,0,0,0,
,0.954,0.243,-0.32,-738.709,-158.326,-131.165,0,0,0,
,1.012,0.233,-0.33,-766.236,-125.916,-119.019,0,0,0,
,1.143,0.22,-0.373,-777.222,-86.67,-117.127,0,0,0,
,1.26,0.203,-0.438,-809.205,-74.646,-110.84,0,0,0,
,1.268,0.173,-0.491,-855.591,-126.038,-85.511,0,0,0,
,1.12,0.147,-0.435,-912.049,-187.623,-46.448,0,0,0,
,0.824,0.189,-0.222,-950.44,-73.67,-28.26,0,0,0,
,0.844,0.248,-0.113,-582.154,293.762,-85.755,0,0,0,
,0.878,0.224,-0.211,-396.729,290.893,-74.158,0,0,0,
,0.881,0.167,-0.263,-270.752,209.106,-29.664,0,0,0,
,0.885,0.124,-0.247,-224.122,117.492,23.071,0,0,0,
,0.912,0.119,-0.171,-225.831,47.119,62.5,0,0,0,
,0.953,0.128,-0.107,-268.738,35.827,81.543,0,0,0,
,0.968,0.129,-0.058,-318.787,39.367,84.838,0,0,0,
,0.98,0.134,-0.038,-391.297,63.415,62.805,0,0,0,
,0.998,0.156,-0.064,-484.925,90.576,68.359,0,0,0,
,1.006,0.17,-0.094,-537.11,76.11,65.673,0,0,0,
,1,0.176,-0.103,-559.815,37.78,78.613,0,0,0,
,0.971,0.199,-0.094,-553.956,7.995,91.919,0,0,0,
,0.944,0.228,-0.067,-502.991,-8.301,92.956,0,0,0,
,0.932,0.232,-0.025,-397.95,9.582,81.176,0,0,0,
,0.926,0.218,-0.007,-319.153,38.208,66.223,0,0,0,
,0.931,0.206,-0.008,-268.311,57.861,47.363,0,0,0,
,0.926,0.205,-0.012,-228.394,54.87,28.259,0,0,0,
,0.906,0.22,-0.003,-173.951,32.775,13.183,0,0,0,
,0.874,0.234,0.003,-108.826,27.099,-7.447,0,0,0,
,0.862,0.248,0.018,-19.227,33.752,-31.922,0,0,0,
,0.851,0.247,0.012,80.139,35.705,-52.308,0,0,0,
,0.859,0.238,0.027,155.822,23.62,-64.698,0,0,0,
,0.844,0.216,0.015,197.631,21.545,-68.482,0,0,0,
,0.875,0.221,-0.015,204.773,9.887,-82.825,0,0,0,
,0.895,0.232,-0.03,216.491,-10.682,-77.759,0,0,0,
,0.902,0.238,-0.039,252.502,-33.387,-47.181,0,0,0,
,0.898,0.242,-0.058,282.714,-45.716,-50.171,0,0,0,
,0.896,0.223,-0.061,288.818,-63.355,-46.204,0,0,0,
,0.907,0.209,-0.074,243.164,-65.796,-36.316,0,0,0,
,0.919,0.209,-0.089,172.668,-78.186,-17.151,0,0,0,
,0.923,0.217,-0.109,117.92,-90.76,7.812,0,0,0,
,0.909,0.229,-0.132,99.853,-108.033,40.893,0,0,0,
,0.877,0.225,-0.15,110.717,-125.428,67.443,0,0,0,
,0.848,0.21,-0.156,114.257,-130.86,79.773,0,0,0,
,0.861,0.198,-0.158,98.693,-108.033,81.726,0,0,0,
,0.879,0.192,-0.166,80.2,-89.783,83.252,0,0,0,
,0.883,0.187,-0.167,46.936,-85.633,79.162,0,0,0,
,0.876,0.184,-0.163,45.288,-67.2,66.04,0,0,0,
,0.906,0.187,-0.164,35.522,-26.795,49.011,0,0,0,
,0.978,0.196,-0.18,30.09,21.118,26.855,0,0,0,
,1.064,0.18,-0.227,28.381,32.592,21.606,0,0,0,
,1.099,0.157,-0.255,20.019,0.976,33.447,0,0,0,
,1.082,0.132,-0.256,-8.423,-49.5,58.532,0,0,0,
,1.012,0.114,-0.249,-36.499,-80.445,89.294,0,0,0,
,0.958,0.085,-0.232,-36.133,-100.831,111.755,0,0,0,
,0.907,0.028,-0.214,-57.923,-117.676,130.554,0,0,0,
,0.904,0.01,-0.139,-155.518,-117.005,126.587,0,0,0,
,0.97,0.031,-0.054,-307.19,-40.955,110.962,0,0,0,
,1.026,0.057,-0.073,-401.185,41.809,115.417,0,0,0,
,1.024,0.043,-0.148,-408.814,49.194,140.625,0,0,0,
,0.998,0.043,-0.169,-369.996,27.404,155.944,0,0,0,
,0.992,0.081,-0.15,-292.786,22.033,157.714,0,0,0,
,1.01,0.119,-0.125,-114.991,30.822,127.746,0,0,0,
,1.059,0.115,-0.119,95.947,62.194,93.078,0,0,0,
,1.076,0.055,-0.141,245.849,47.729,84.777,0,0,0,
,1.068,0.025,-0.137,266.418,12.756,99.06,0,0,0,
,1.057,0.035,-0.112,220.642,2.563,117.187,0,0,0,
,1.057,0.045,-0.113,174.011,11.718,135.864,0,0,0,
,1.041,0.029,-0.132,119.079,-2.198,167.602,0,0,0,
,1.003,0.026,-0.134,27.282,-32.349,196.594,0,0,0,
,0.947,0.051,-0.118,-78.431,-58.35,215.026,0,0,0,
,0.894,0.075,-0.101,-142.945,-64.026,214.355,0,0,0,
,0.872,0.107,-0.085,-191.712,-50.538,197.021,0,0,0,
,0.89,0.138,-0.08,-217.041,-28.443,178.894,0,0,0,
,0.987,0.15,-0.084,-200.074,3.418,168.09,0,0,0,
,0.994,0.126,-0.141,-207.825,-58.655,208.618,0,0,0,
,0.937,0.103,-0.125,-276.49,-134.888,250.061,0,0,0,
,0.885,0.095,-0.102,-379.578,-153.443,274.475,0,0,0,
,0.89,0.114,-0.097,-469.361,-147.522,287.109,0,0,0,
,0.892,0.123,-0.107,-509.095,-161.072,287.963,0,0,0,
,0.876,0.133,-0.099,-516.724,-180.664,274.353,0,0,0,
,0.853,0.15,-0.095,-510.193,-181.519,244.14,0,0,0,
,0.854,0.173,-0.088,-483.094,-167.725,198.791,0,0,0,
,0.865,0.185,-0.097,-445.679,-162.781,155.395,0,0,0,
,0.869,0.185,-0.102,-414.734,-165.955,113.342,0,0,0,
,0.887,0.184,-0.109,-419.8,-175.721,70.556,0,0,0,
,0.913,0.192,-0.116,-451.111,-192.627,24.353,0,0,0,
,0.935,0.202,-0.125,-481.507,-210.45,-25.33,0,0,0,
,0.94,0.213,-0.128,-516.053,-229.31,-70.435,0,0,0,
,0.92,0.223,-0.129,-560.364,-247.559,-115.235,0,0,0,
,0.895,0.233,-0.127,-582.093,-256.653,-153.87,0,0,0,
,0.88,0.244,-0.13,-617.371,-257.569,-190.125,0,0,0,
,0.862,0.258,-0.125,-643.372,-263.55,-222.229,0,0,0,
,0.837,0.268,-0.117,-657.044,-268.799,-250.061,0,0,0,
,0.86,0.289,-0.113,-662.232,-241.028,-292.725,0,0,0,
,0.965,0.306,-0.144,-669.983,-196.656,-349.793,0,0,0,
,1.119,0.309,-0.224,-685.059,-197.51,-403.016,0,0,0,
,1.248,0.307,-0.275,-724.732,-249.39,-431.275,0,0,0,
,1.283,0.314,-0.292,-796.814,-315.491,-434.449,0,0,0,
,1.203,0.332,-0.293,-865.906,-359.742,-404.969,0,0,0,
,1.057,0.368,-0.27,-938.294,-394.471,-340.088,0,0,0,
,0.921,0.351,-0.19,-1014.893,-379.395,-258.606,0,0,0,
,0.876,0.317,-0.129,-1054.383,-278.626,-183.289,0,0,0,
,0.83,0.297,-0.136,-1072.327,-186.402,-86.06,0,0,0,
,0.785,0.301,-0.143,-1064.393,-148.56,4.821,0,0,0,
,0.748,0.318,-0.147,-1029.908,-109.07,62.316,0,0,0,
,0.752,0.322,-0.138,-917.786,-62.745,94.36,0,0,0,
,0.794,0.307,-0.117,-724.793,-36.744,117.37,0,0,0,
,0.854,0.282,-0.078,-521.912,-27.71,138.488,0,0,0,
,0.899,0.19,-0.047,-385.193,-19.715,155.517,0,0,0,
,0.954,0.163,-0.056,-328.309,-3.235,159.973,0,0,0,
,1.023,0.134,-0.078,-350.525,-17.456,163.635,0,0,0,
,1.073,0.144,-0.087,-444.519,-68.055,164.611,0,0,0,
,1.065,0.177,-0.073,-560.242,-133.851,163.94,0,0,0,
,0.992,0.185,-0.052,-599.915,-170.35,157.959,0,0,0,
,0.921,0.201,-0.04,-637.146,-156.495,155.822,0,0,0,
,0.872,0.236,-0.053,-651.49,-127.076,158.142,0,0,0,
,0.83,0.269,-0.056,-599.732,-112.854,149.475,0,0,0,
,0.788,0.288,-0.036,-517.029,-93.506,124.511,0,0,0,
,0.774,0.288,-0.011,-430.298,-55.97,93.933,0,0,0,
,0.78,0.269,-0.011,-389.71,-5.31,55.603,0,0,0,
,0.799,0.257,-0.041,-402.283,5.432,23.925,0,0,0,
,0.802,0.26,-0.063,-439.331,-15.625,-9.522,0,0,0,
,0.79,0.286,-0.065,-453.98,-38.208,-52.063,0,0,0,
,0.771,0.319,-0.071,-411.805,-40.65,-103.699,0,0,0,
,0.756,0.333,-0.064,-331.36,-26.001,-161.438,0,0,0,
,0.753,0.329,-0.092,-233.399,8.361,-208.497,0,0,0,
,0.779,0.323,-0.055,-169.19,62.744,-251.954,0,0,0,
,0.809,0.314,-0.06,-139.588,99.304,-282.959,0,0,0,
,0.834,0.315,-0.076,-126.038,127.624,-306.702,0,0,0,
,0.837,0.335,-0.08,-107.056,131.347,-328.431,0,0,0,
,0.843,0.364,-0.056,-56.458,140.014,-353.333,0,0,0,
,0.862,0.377,-0.023,8.056,163.025,-369.019,0,0,0,
,0.898,0.353,0.032,60.363,184.631,-350.159,0,0,0,
,0.938,0.323,0.015,19.348,218.505,-304.322,0,0,0,
,0.967,0.303,-0.048,-86.304,191.04,-232.117,0,0,0,
,0.933,0.273,-0.094,-247.437,102.234,-141.358,0,0,0,
,0.879,0.301,-0.095,-364.136,11.23,-68.543,0,0,0,
,0.87,0.367,-0.063,-387.269,5.615,-20.142,0,0,0,
,0.933,0.403,-0.064,-313.477,69.397,-4.09,0,0,0,
,1.021,0.413,-0.08,-208.008,106.018,-15.564,0,0,0,
,1.099,0.411,-0.092,-85.572,115.783,-29.48,0,0,0,
,1.139,0.411,-0.12,4.455,135.864,-47.12,0,0,0,
,1.161,0.414,-0.169,102.05,132.141,-65.369,0,0,0,
,1.16,0.4,-0.196,212.463,98.388,-47.12,0,0,0,
,1.119,0.368,-0.186,285.156,46.814,7.812,0,0,0,
,1.053,0.321,-0.16,316.955,21.301,74.34,0,0,0,
,0.88,0.299,-0.121,375.793,77.087,223.877,0,0,0,
,0.878,0.296,-0.127,463.562,113.342,208.374,0,0,0,
,0.899,0.289,-0.152,557.129,131.836,181.762,0,0,0,
,0.912,0.284,-0.164,683.96,113.525,153.015,0,0,0,
,0.917,0.269,-0.157,766.235,99.609,120.3,0,0,0,
,0.943,0.243,-0.159,817.199,102.844,85.815,0,0,0,
,1.02,0.213,-0.182,811.828,98.632,71.472,0,0,0,
,1.064,0.192,-0.219,767.456,49.621,93.383,0,0,0,
,1.058,0.179,-0.244,694.641,-31.006,138.855,0,0,0,
,1.021,0.167,-0.235,587.524,-92.591,181.152,0,0,0,
,0.99,0.17,-0.226,473.693,-119.69,218.505,0,0,0,
,0.996,0.182,-0.223,397.522,-112.427,236.633,0,0,0,
,1.001,0.182,-0.244,334.045,-106.629,263.794,0,0,0,
,0.952,0.176,-0.24,286.621,-131.043,302.49,0,0,0,
,0.872,0.175,-0.212,229.187,-127.259,329.773,0,0,0,
,0.817,0.181,-0.201,182.434,-88.685,341.125,0,0,0,
,0.797,0.195,-0.2,151.001,-54.078,341.919,0,0,0,
,0.8,0.207,-0.203,147.033,-21.119,328.674,0,0,0,
,0.8,0.207,-0.216,168.396,-15.381,297.668,0,0,0,
,0.802,0.206,-0.214,191.528,-13.123,288.391,0,0,0,
,0.818,0.203,-0.222,203.674,-3.907,256.775,0,0,0,
,0.835,0.197,-0.236,207.702,-9.156,228.271,0,0,0,
,0.819,0.173,-0.219,149.658,-29.114,183.838,0,0,0,
,0.798,0.174,-0.187,9.521,1.098,129.455,0,0,0,
,0.798,0.189,-0.164,-60.059,31.738,84.35,0,0,0,
,0.814,0.199,-0.145,-105.347,68.969,22.888,0,0,0,
,0.842,0.235,-0.14,-122.498,90.21,-31.311,0,0,0,
,0.852,0.258,-0.119,-131.958,90.515,-89.966,0,0,0,
,0.842,0.27,-0.096,-145.447,83.618,-148.255,0,0,0,
,0.843,0.277,-0.089,-143.494,87.951,-212.708,0,0,0,
,0.854,0.289,-0.094,-140.32,81.665,-271.607,0,0,0,
,0.868,0.303,-0.091,-130.921,54.199,-317.078,0,0,0,
,0.904,0.318,-0.074,-118.47,16.174,-364.869,0,0,0,
,0.899,0.33,-0.055,-103.821,29.296,-412.476,0,0,0,
,0.946,0.348,-0.048,-86.304,29.296,-462.83,0,0,0,
,0.985,0.352,-0.048,-77.393,18.371,-496.033,0,0,0,
,1.061,0.36,-0.059,-87.281,29.968,-534.546,0,0,0,
,1.162,0.354,-0.096,-118.531,31.86,-556.031,0,0,0,
,1.218,0.353,-0.127,-177.43,-25.33,-537.781,0,0,0,
,1.206,0.351,-0.113,-258.606,-80.75,-490.723,0,0,0,
,1.164,0.354,-0.096,-348.816,-96.558,-444.153,0,0,0,
,1.085,0.362,-0.095,-429.932,-106.446,-376.221,0,0,0,
,0.997,0.378,-0.092,-465.882,-115.418,-297.12,0,0,0,
,0.914,0.377,-0.058,-462.22,-110.657,-250.245,0,0,0,
,0.861,0.371,-0.027,-444.092,-74.585,-195.984,0,0,0,
,0.826,0.374,-0.042,-433.533,-27.405,-159.363,0,0,0,
,0.804,0.371,-0.073,-413.269,-14.405,-134.949,0,0,0,
,0.789,0.38,-0.079,-363.343,-29.664,-117.432,0,0,0,
,0.776,0.395,-0.075,-277.283,-34.485,-99.244,0,0,0,
,0.774,0.404,-0.07,-157.898,-23.682,-87.037,0,0,0,
,0.791,0.4,-0.07,-14.466,4.211,-71.412,0,0,0,
,0.826,0.358,-0.073,82.763,26.733,-44.739,0,0,0,
,0.905,0.286,-0.086,35.095,39.306,47.607,0,0,0,
,0.952,0.29,-0.111,-42.908,48.828,95.214,0,0,0,
,0.982,0.31,-0.122,-83.13,44.982,128.601,0,0,0,
,0.976,0.325,-0.129,-68.116,37.841,150.94,0,0,0,
,0.931,0.335,-0.126,-8.545,40.649,157.837,0,0,0,
,0.891,0.332,-0.127,75.073,61.95,156.677,0,0,0,
,0.868,0.326,-0.122,178.527,85.022,142.883,0,0,0,
,0.859,0.312,-0.123,270.385,106.018,130.005,0,0,0,
,0.849,0.295,-0.119,338.256,116.394,110.29,0,0,0,
,0.837,0.284,-0.119,386.413,130.432,84.228,0,0,0,
,0.84,0.277,-0.119,409.851,146.789,52.185,0,0,0,
,0.847,0.274,-0.113,424.804,162.536,21.728,0,0,0,
,0.856,0.272,-0.102,435.608,171.569,-5.494,0,0,0,
,0.855,0.27,-0.098,440.979,183.532,-27.039,0,0,0,
,0.856,0.271,-0.103,439.758,192.566,-43.274,0,0,0,
,0.865,0.273,-0.104,441.955,199.829,-52.552,0,0,0,
,0.869,0.277,-0.105,454.528,194.641,-53.956,0,0,0,
,0.871,0.279,-0.114,496.521,189.941,-51.453,0,0,0,
,0.874,0.279,-0.118,514.77,184.57,-56.702,0,0,0,
,0.872,0.276,-0.115,547.79,177.795,-63.05,0,0,0,
,0.865,0.268,-0.114,572.57,179.87,-70.069,0,0,0,
,0.872,0.264,-0.114,587.402,195.495,-86.182,0,0,0,
,0.892,0.263,-0.128,597.656,210.022,-108.826,0,0,0,
,0.898,0.267,-0.138,608.154,205.078,-127.991,0,0,0,
,0.885,0.273,-0.135,661.438,212.768,-283.631,0,0,0,
,0.881,0.285,-0.138,649.536,222.107,-300.171,0,0,0,
,0.894,0.296,-0.151,652.771,226.806,-315.369,0,0,0,
,0.9,0.304,-0.142,665.405,222.351,-318.604,0,0,0,
,0.899,0.306,-0.129,680.053,227.783,-317.322,0,0,0,
,0.913,0.312,-0.139,681.457,240.478,-316.529,0,0,0,
,0.938,0.311,-0.157,675.964,247.009,-307.435,0,0,0,
,0.983,0.316,-0.166,672.485,243.347,-289.978,0,0,0,
,1.032,0.331,-0.165,666.565,238.586,-278.504,0,0,0,
,1.082,0.349,-0.166,674.621,234.375,-266.602,0,0,0,
,1.103,0.355,-0.175,694.336,217.407,-249.573,0,0,0,
,1.093,0.357,-0.193,722.778,192.932,-213.074,0,0,0,
,1.064,0.343,-0.209,750.732,151.306,-155.152,0,0,0,
,1.021,0.311,-0.206,756.713,109.192,-81.421,0,0,0,
,0.972,0.274,-0.197,706.604,71.289,3.54,0,0,0,
,0.94,0.267,-0.19,644.287,48.706,72.082,0,0,0,
,0.928,0.281,-0.212,577.453,44.86,109.924,0,0,0,
,0.923,0.288,-0.234,550.598,19.47,123.474,0,0,0,
,0.882,0.271,-0.247,541.504,-7.508,131.164,0,0,0,
,0.833,0.271,-0.248,547.424,-4.334,126.526,0,0,0,
,0.815,0.285,-0.273,583.313,12.268,106.384,0,0,0,
,0.829,0.296,-0.293,664.611,27.71,73.913,0,0,0,
,0.863,0.291,-0.309,760.498,48.339,35.217,0,0,0,
,0.893,0.269,-0.344,840.393,54.931,4.028,0,0,0,
,0.908,0.252,-0.368,887.939,42.846,-14.039,0,0,0,
,0.913,0.238,-0.377,908.935,34.24,-20.264,0,0,0,
,0.919,0.224,-0.372,891.235,32.531,-20.752,0,0,0,
,0.923,0.21,-0.36,844.787,35.888,-9.522,0,0,0,
,0.926,0.206,-0.339,768.554,43.151,12.085,0,0,0,
,0.927,0.21,-0.342,688.842,59.753,41.931,0,0,0,
,0.911,0.208,-0.351,611.633,68.115,74.401,0,0,0,
,0.89,0.216,-0.342,559.326,74.585,102.295,0,0,0,
,0.879,0.233,-0.325,532.531,97.106,119.873,0,0,0,
,0.879,0.241,-0.327,542.175,124.572,125.549,0,0,0,
,0.873,0.237,-0.326,569.336,137.268,125.488,0,0,0,
,0.864,0.226,-0.318,581.359,145.019,127.38,0,0,0,
,0.857,0.217,-0.312,578.552,157.898,125.671,0,0,0,
,0.848,0.214,-0.305,563.11,161.499,115.844,0,0,0,
,0.84,0.214,-0.296,539.428,167.907,105.102,0,0,0,
,0.824,0.22,-0.282,520.935,178.772,91.125,0,0,0,
,0.822,0.227,-0.273,503.173,202.392,69.58,0,0,0,
,0.819,0.226,-0.272,479.553,219.543,48.706,0,0,0,
,0.827,0.23,-0.257,442.321,226.257,36.315,0,0,0,
,0.841,0.243,-0.24,389.465,239.624,26.306,0,0,0,
,0.859,0.257,-0.237,340.332,252.014,18.859,0,0,0,
,0.87,0.274,-0.232,303.894,246.46,17.639,0,0,0,
,0.87,0.301,-0.219,305.236,235.168,16.601,0,0,0,
,0.882,0.307,-0.211,326.782,234.497,16.296,0,0,0,
,0.887,0.307,-0.211,358.581,222.351,18.798,0,0,0,
,0.937,0.303,-0.201,389.709,206.421,5.798,0,0,0,
,0.957,0.295,-0.192,375.366,184.875,3.112,0,0,0,
,0.955,0.284,-0.178,341.491,165.283,11.84,0,0,0,
,0.947,0.281,-0.154,280.761,162.292,19.226,0,0,0,
,0.94,0.283,-0.134,221.557,163.208,31.555,0,0,0,
,0.937,0.288,-0.105,163.757,161.804,41.992,0,0,0,
,0.962,0.296,-0.091,110.229,191.772,33.569,0,0,0,
,1.029,0.302,-0.118,55.175,220.703,9.277,0,0,0,
,1.123,0.309,-0.162,10.986,212.89,-28.077,0,0,0,
,1.149,0.314,-0.172,-15.931,159.118,-53.406,0,0,0,
,0.92,0.337,-0.076,62.683,105.041,-119.446,0,0,0,
,0.814,0.336,-0.049,138.916,105.835,-125.916,0,0,0,
,0.754,0.345,0,269.958,176.452,-169.678,0,0,0,
,0.821,0.314,-0.017,380.92,203.613,-207.764,0,0,0,
,0.85,0.294,-0.04,378.784,168.64,-202.393,0,0,0,
,0.862,0.273,-0.061,339.294,122.131,-180.787,0,0,0,
,0.874,0.266,-0.062,293.396,70.8,-143.982,0,0,0,
,0.885,0.258,-0.06,241.699,40.588,-103.394,0,0,0,
,0.893,0.253,-0.054,183.41,25.329,-54.993,0,0,0,
,0.903,0.255,-0.062,136.047,33.264,-18.311,0,0,0,
,0.924,0.267,-0.082,119.384,50.72,3.173,0,0,0,
,0.943,0.279,-0.094,140.686,62.744,11.352,0,0,0,
,0.956,0.287,-0.091,195.556,86.425,8.728,0,0,0,
,0.992,0.291,-0.084,260.009,125.732,-5.677,0,0,0,
,0.935,0.252,-0.079,473.327,144.592,-61.219,0,0,0,
,0.915,0.229,-0.091,482.727,125.488,-75.684,0,0,0,
,0.888,0.215,-0.086,472.717,90.515,-86.365,0,0,0,
,0.846,0.211,-0.072,445.617,70.19,-100.403,0,0,0,
,0.82,0.218,-0.067,419.433,76.11,-125.489,0,0,0,
,0.822,0.23,-0.075,404.602,98.205,-160.523,0,0,0,
,0.83,0.236,-0.081,401.611,110.839,-187.806,0,0,0,
,0.833,0.247,-0.087,406.005,119.69,-208.374,0,0,0,
,0.828,0.256,-0.088,428.955,127.502,-223.877,0,0,0,
,0.828,0.258,-0.093,447.692,139.465,-232.972,0,0,0,
,0.837,0.252,-0.1,451.172,143.493,-237.427,0,0,0,
,0.851,0.247,-0.101,432.983,138.061,-231.263,0,0,0,
,0.856,0.252,-0.098,414.978,128.051,-223.877,0,0,0,
,0.855,0.256,-0.081,402.954,121.399,-213.746,0,0,0,
,0.838,0.253,-0.071,385.315,126.342,-197.998,0,0,0,
,0.834,0.247,-0.072,357.483,137.939,-181.153,0,0,0,
,0.85,0.247,-0.075,321.533,144.043,-163.819,0,0,0,
,0.879,0.25,-0.077,291.015,140.564,-145.997,0,0,0,
,0.894,0.254,-0.079,268.066,126.403,-127.991,0,0,0,
,0.906,0.257,-0.082,247.131,121.46,-121.705,0,0,0,
,0.93,0.26,-0.093,225.463,119.14,-117.676,0,0,0,
,0.953,0.262,-0.098,202.27,107.055,-113.343,0,0,0,
,0.951,0.264,-0.094,174.682,97.656,-106.69,0,0,0,
,0.943,0.267,-0.083,139.526,98.388,-96.741,0,0,0,
,0.936,0.263,-0.074,93.383,103.454,-80.811,0,0,0,
,0.92,0.261,-0.068,31.494,103.332,-50.171,0,0,0,
,0.902,0.262,-0.068,-16.297,107.177,-19.165,0,0,0,
,0.929,0.285,-0.078,-48.829,128.662,-7.752,0,0,0,
,0.998,0.315,-0.097,-33.509,143.005,-18.799,0,0,0,
,1.05,0.323,-0.103,26.794,128.234,-34.668,0,0,0,
,1.089,0.318,-0.097,83.129,123.291,-61.89,0,0,0,
,1.119,0.31,-0.107,111.389,116.821,-78.736,0,0,0,
,1.097,0.272,-0.126,95.398,73.669,-53.833,0,0,0,
,1.023,0.234,-0.136,37.414,13.488,4.516,0,0,0,
,0.963,0.222,-0.129,-70.069,-11.719,72.937,0,0,0,
,0.937,0.236,-0.125,-163.208,-7.569,137.329,0,0,0,
,0.927,0.257,-0.125,-187.256,4.028,185.18,0,0,0,
,0.915,0.276,-0.106,-142.029,29.724,210.754,0,0,0,
,0.914,0.274,-0.098,-62.073,81.481,210.266,0,0,0,
,0.932,0.255,-0.12,28.564,135.864,191.162,0,0,0,
,0.967,0.24,-0.158,111.023,149.475,169.067,0,0,0,
,0.994,0.238,-0.179,200.073,136.169,143.005,0,0,0,
,1.008,0.23,-0.178,294.738,111.877,110.046,0,0,0,
,1,0.217,-0.17,381.53,93.689,85.51,0,0,0,
,0.972,0.184,-0.162,435.73,77.636,67.993,0,0,0,
,0.939,0.157,-0.146,434.143,80.993,61.157,0,0,0,
,0.944,0.15,-0.139,383.117,93.322,50.842,0,0,0,
,0.945,0.148,-0.143,333.13,100.158,51.879,0,0,0,
,0.927,0.151,-0.14,276.184,85.327,56.701,0,0,0,
,0.896,0.153,-0.146,226.318,86.914,61.157,0,0,0,
,0.873,0.156,-0.15,194.091,75.927,65.856,0,0,0,
,0.857,0.166,-0.146,179.26,64.88,67.199,0,0,0,
,0.849,0.174,-0.136,183.349,77.941,59.692,0,0,0,
,0.861,0.173,-0.137,195.556,66.101,46.447,0,0,0,
,0.876,0.167,-0.143,197.631,64.819,36.132,0,0,0,
,0.882,0.161,-0.152,178.039,47.851,34.912,0,0,0,
,0.888,0.161,-0.161,136.779,32.836,33.813,0,0,0,
,0.893,0.171,-0.164,98.327,18.554,35.644,0,0,0,
,0.895,0.182,-0.16,65.856,6.591,39.245,0,0,0,
,0.89,0.191,-0.156,37.719,-1.954,40.893,0,0,0,
,0.89,0.197,-0.154,9.46,3.356,37.78,0,0,0,
,0.9,0.201,-0.151,-17.762,8.544,33.935,0,0,0,
,0.903,0.201,-0.152,-56.946,0.488,35.339,0,0,0,
,0.892,0.203,-0.152,-106.629,-16.541,36.56,0,0,0,
,0.881,0.213,-0.142,-147.034,-30.945,30.151,0,0,0,
,0.881,0.225,-0.135,-182.251,-38.453,18.859,0,0,0,
,0.875,0.225,-0.133,-210.694,-52.735,9.521,0,0,0,
,0.869,0.224,-0.135,-248.658,-62.256,-5.86,0,0,0,
,0.885,0.234,-0.138,-288.514,-72.083,-24.842,0,0,0,
,0.906,0.247,-0.143,-317.566,-80.201,-51.27,0,0,0,
,0.9,0.256,-0.152,-328.553,-99.366,-72.754,0,0,0,
,0.873,0.271,-0.151,-319.764,-109.925,-105.225,0,0,0,
,0.854,0.289,-0.136,-291.81,-101.807,-140.686,0,0,0,
,0.853,0.297,-0.128,-252.32,-77.149,-184.266,0,0,0,
,0.868,0.295,-0.13,-220.398,-62.317,-221.619,0,0,0,
,0.888,0.292,-0.129,-219.788,-60.486,-258.24,0,0,0,
,0.897,0.296,-0.121,-239.197,-71.717,-285.645,0,0,0,
,0.897,0.304,-0.115,-264.954,-91.858,-298.34,0,0,0,
,0.912,0.319,-0.126,-287.659,-95.276,-308.96,0,0,0,
,0.965,0.327,-0.148,-313.782,-96.68,-315.247,0,0,0,
,1.009,0.331,-0.174,-336.731,-127.869,-306.031,0,0,0,
,1.02,0.337,-0.177,-358.887,-162.293,-294.739,0,0,0,
,1.014,0.355,-0.176,-373.047,-162.903,-282.044,0,0,0,
,1.008,0.369,-0.179,-364.014,-144.104,-273.621,0,0,0,
,0.977,0.363,-0.169,-343.934,-137.085,-253.235,0,0,0,
,0.915,0.364,-0.136,-325.928,-124.146,-223.633,0,0,0,
,0.866,0.375,-0.102,-301.941,-86.548,-198.67,0,0,0,
,0.86,0.394,-0.089,-254.7,-30.823,-179.871,0,0,0,
,0.885,0.394,-0.095,-201.539,0.61,-156.067,0,0,0,
,0.898,0.381,-0.098,-151.246,-13.672,-120.85,0,0,0,
,0.885,0.373,-0.088,-124.939,-32.41,-72.937,0,0,0,
,0.88,0.367,-0.075,-112.427,-37.354,-26.673,0,0,0,
,0.955,0.348,-0.082,40.893,111.023,223.205,0,0,0,
,0.919,0.335,-0.065,145.08,130.31,202.209,0,0,0,
,0.882,0.322,-0.051,231.506,156.677,175.293,0,0,0,
,0.86,0.31,-0.052,291.992,172.241,149.78,0,0,0,
,0.835,0.306,-0.053,344.238,170.227,120.239,0,0,0,
,0.819,0.302,-0.045,398.01,171.142,86.975,0,0,0,
,0.814,0.295,-0.043,442.871,165.832,39.367,0,0,0,
,0.822,0.284,-0.042,466.858,163.269,-7.63,0,0,0,
,0.836,0.27,-0.054,469.543,160.034,-48.401,0,0,0,
,0.849,0.268,-0.069,450.744,147.461,-88.074,0,0,0,
,0.864,0.28,-0.077,438.537,137.085,-121.521,0,0,0,
,0.87,0.297,-0.078,454.345,134.277,-153.443,0,0,0,
,0.876,0.305,-0.074,488.647,146.057,-181.031,0,0,0,
,0.886,0.303,-0.095,524.475,152.649,-199.036,0,0,0,
,0.876,0.299,-0.109,550.964,144.409,-198.975,0,0,0,
,0.864,0.299,-0.113,574.279,145.263,-194.642,0,0,0,
,0.855,0.303,-0.114,603.393,142.028,-184.51,0,0,0,
,0.843,0.295,-0.102,635.192,144.165,-166.016,0,0,0,
,0.838,0.283,-0.107,648.01,163.757,-150.147,0,0,0,
,0.849,0.278,-0.124,637.39,180.42,-133.24,0,0,0,
,0.856,0.276,-0.139,625.61,175.293,-115.54,0,0,0,
,0.858,0.272,-0.138,614.746,165.832,-110.901,0,0,0,
,0.867,0.268,-0.146,596.74,171.63,-116.456,0,0,0,
,0.888,0.268,-0.153,572.265,180.114,-127.808,0,0,0,
,0.909,0.268,-0.155,540.527,183.349,-135.804,0,0,0,
,0.902,0.27,-0.159,507.69,176.88,-136.231,0,0,0,
,0.881,0.282,-0.153,480.59,178.772,-140.442,0,0,0,
,0.862,0.29,-0.15,466.125,194.519,-141.846,0,0,0,
,0.857,0.296,-0.147,465.026,200.561,-144.959,0,0,0,
,0.855,0.301,-0.148,467.041,211.12,-140.015,0,0,0,
,0.873,0.301,-0.15,470.947,228.21,-132.874,0,0,0,
,0.915,0.301,-0.172,466.613,238.891,-127.381,0,0,0,
,0.961,0.303,-0.183,463.562,232.666,-119.996,0,0,0,
,1.001,0.311,-0.173,458.679,222.351,-113.343,0,0,0,
,1.046,0.321,-0.186,454.223,230.163,-117.554,0,0,0,
,1.094,0.324,-0.219,464.599,228.515,-114.197,0,0,0,
,1.1,0.311,-0.256,472.29,196.838,-89.417,0,0,0,
,1.053,0.284,-0.264,466.369,152.771,-34.424,0,0,0,
,0.994,0.271,-0.247,446.594,133.789,25.756,0,0,0,
,0.958,0.28,-0.228,426.391,156.86,73.181,0,0,0,
,0.964,0.276,-0.219,426.33,202.27,97.229,0,0,0,
,0.966,0.27,-0.226,437.378,240.356,113.159,0,0,0,
,0.948,0.271,-0.252,450.683,261.108,113.342,0,0,0,
,0.927,0.273,-0.294,485.351,274.475,94.909,0,0,0,
,0.899,0.273,-0.301,553.65,271.24,69.397,0,0,0,
,0.857,0.273,-0.275,642.089,271.789,31.189,0,0,0,
,0.838,0.289,-0.249,751.403,300.781,-16.236,0,0,0,
,0.84,0.282,-0.248,868.774,341.552,-66.346,0,0,0,
,0.843,0.246,-0.259,917.48,345.276,-94.178,0,0,0,
,0.863,0.222,-0.254,907.837,342.468,-100.464,0,0,0,
,0.895,0.227,-0.252,862.182,334.167,-98.206,0,0,0,
,0.917,0.241,-0.254,821.96,304.077,-91.126,0,0,0,
,0.905,0.241,-0.246,802.429,265.38,-82.154,0,0,0,
,0.881,0.236,-0.231,768.676,242.736,-72.51,0,0,0,
,0.864,0.235,-0.225,721.374,226.562,-64.759,0,0,0,
,0.866,0.244,-0.214,676.696,206.054,-59.021,0,0,0,
,0.86,0.246,-0.196,628.601,180.42,-52.124,0,0,0,
,0.846,0.259,-0.176,586.242,163.025,-52.002,0,0,0,
,0.832,0.273,-0.171,548.339,149.109,-55.42,0,0,0,
,0.825,0.288,-0.172,529.785,125.488,-55.481,0,0,0,
,0.819,0.291,-0.175,517.883,89.843,-46.998,0,0,0,
,0.818,0.296,-0.176,508.239,54.687,-34.974,0,0,0,
,0.823,0.298,-0.17,489.318,22.888,-14.039,0,0,0,
,0.833,0.294,-0.172,458.13,-3.113,5.92,0,0,0,
,0.838,0.29,-0.164,411.499,-31.861,36.254,0,0,0,
,0.841,0.282,-0.157,335.876,-44.251,63.049,0,0,0,
,0.851,0.281,-0.151,243.103,-47.73,87.402,0,0,0,
,0.864,0.286,-0.156,155.273,-49.744,106.018,0,0,0,
,0.882,0.298,-0.175,84.289,-52.43,117.553,0,0,0,
,0.909,0.314,-0.191,55.481,-60.181,116.15,0,0,0,
,0.946,0.326,-0.202,56.579,-67.2,104.492,0,0,0,
,0.998,0.321,-0.21,57.922,-68.97,82.214,0,0,0,
,1.025,0.309,-0.219,39.245,-85.267,46.936,0,0,0,
,1.005,0.292,-0.213,5.859,-109.559,58.288,0,0,0,
,0.945,0.292,-0.188,-18.494,-115.357,56.091,0,0,0,
,0.888,0.302,-0.158,-26.429,-85.389,47.912,0,0,0,
,0.872,0.311,-0.134,-13.062,-46.448,32.104,0,0,0,
,0.878,0.313,-0.119,22.827,-14.893,12.023,0,0,0,
,0.901,0.309,-0.097,47.851,-2.198,-7.63,0,0,0,
,0.957,0.305,-0.09,50.903,23.681,-40.833,0,0,0,
,1.062,0.312,-0.132,32.653,27.71,-67.322,0,0,0,
,1.146,0.287,-0.186,0.183,-41.993,-85.694,0,0,0,
,1.169,0.252,-0.203,-84.351,-118.409,-84.595,0,0,0,
,1.134,0.232,-0.192,-220.948,-182.373,-73.548,0,0,0,
,1.019,0.237,-0.167,-374.024,-221.985,-53.223,0,0,0,
,0.875,0.251,-0.103,-461.182,-242.188,-27.1,0,0,0,
,0.731,0.272,-0.024,-493.164,-200.745,-7.813,0,0,0,
,0.649,0.295,0.017,-490.357,-82.154,-26.001,0,0,0,
,0.65,0.312,-0.004,-453.797,52.856,-73.304,0,0,0,
,0.7,0.317,-0.036,-370.85,109.436,-111.817,0,0,0,
,0.751,0.33,-0.048,-276.856,102.661,-147.767,0,0,0,
,0.793,0.335,-0.038,-189.454,91.186,-174.683,0,0,0,
,0.86,0.319,-0.013,-127.869,82.458,-187.378,0,0,0,
,0.944,0.309,-0.011,-111.329,93.322,-184.998,0,0,0,
,1.021,0.306,-0.022,-135.376,74.768,-161.133,0,0,0,
,1.073,0.302,-0.025,-168.091,42.602,-118.287,0,0,0,
,1.066,0.299,-0.02,-216.858,18.92,-74.158,0,0,0,
,1.02,0.289,-0.011,-276.978,5.92,-25.879,0,0,0,
,0.963,0.309,-0.02,-307.007,4.455,-2.381,0,0,0,
,0.905,0.336,-0.021,-277.588,0.366,0.549,0,0,0,
,0.842,0.343,-0.012,-193.238,-4.578,-15.503,0,0,0,
,0.795,0.328,0.003,-95.704,14.16,-47.73,0,0,0,
,0.778,0.316,0.01,-29.541,49.865,-92.102,0,0,0,
,0.775,0.307,-0.001,19.104,63.598,-132.142,0,0,0,
,0.769,0.307,-0.007,64.636,68.359,-174.683,0,0,0,
,0.769,0.304,-0.004,99.792,78.674,-226.624,0,0,0,
,0.783,0.309,-0.008,129.455,94.604,-279.297,0,0,0,
,0.804,0.316,-0.014,162.17,105.102,-336.365,0,0,0,
,0.823,0.326,-0.011,201.599,111.267,-387.146,0,0,0,
,0.821,0.338,-0.01,250.549,115.844,-428.833,0,0,0,
,0.808,0.341,0.002,289.001,120.178,-462.281,0,0,0,
,0.815,0.344,0.015,318.542,140.442,-485.901,0,0,0,
,0.842,0.347,0.024,329.162,145.691,-500.245,0,0,0,
,0.856,0.358,0.039,329.773,135.498,-491.333,0,0,0,
,0.855,0.37,0.043,328.918,121.948,-470.948,0,0,0,
,0.874,0.384,0.037,335.632,122.314,-450.135,0,0,0,
,0.913,0.387,0.012,345.092,117.309,-411.194,0,0,0,
,0.959,0.377,-0.014,342.224,84.411,-350.953,0,0,0,
,0.996,0.359,-0.028,307.617,29.724,-270.264,0,0,0,
,1.001,0.34,-0.036,236.999,-20.569,-164.795,0,0,0,
,0.986,0.32,-0.053,128.967,-60.608,-61.585,0,0,0,
,0.97,0.307,-0.058,-5.677,-84.961,45.105,0,0,0,
,0.96,0.328,-0.069,-115.601,-82.215,133.667,0,0,0,
,0.994,0.356,-0.073,-181.946,-40.467,173.156,0,0,0,
,1.073,0.367,-0.097,-195.13,30.273,183.593,0,0,0,
,1.136,0.385,-0.123,-170.716,40.039,176.574,0,0,0,
,1.146,0.407,-0.142,-123.78,40.649,156.25,0,0,0,
,1.106,0.416,-0.159,-18.921,50.476,121.093,0,0,0,
,1.029,0.411,-0.175,127.38,47.546,95.153,0,0,0,
,0.953,0.401,-0.186,268.921,31.189,89.477,0,0,0,
,0.905,0.373,-0.171,398.315,29.357,100.097,0,0,0,
,0.872,0.335,-0.144,465.088,31.616,127.929,0,0,0,
,0.846,0.306,-0.095,482.055,48.706,162.231,0,0,0,
,0.84,0.307,-0.124,473.327,80.322,193.542,0,0,0,
,0.875,0.281,-0.14,479.126,118.957,211.425,0,0,0,
,0.936,0.304,-0.178,496.46,139.892,224.304,0,0,0,
,0.987,0.29,-0.212,517.151,129.272,240.6,0,0,0,
,1.001,0.281,-0.225,537.597,96.374,259.704,0,0,0,
,0.991,0.278,-0.218,561.767,84.655,268.615,0,0,0,
,0.979,0.272,-0.217,589.355,89.782,272.4,0,0,0,
,0.982,0.255,-0.213,609.68,100.891,270.691,0,0,0,
,1.007,0.24,-0.218,599.914,120.544,270.141,0,0,0,
,1.024,0.229,-0.222,557.556,122.985,274.231,0,0,0,
,0.994,0.216,-0.227,506.164,108.52,288.147,0,0,0,
,0.946,0.211,-0.215,433.593,102.783,306.579,0,0,0,
,0.901,0.215,-0.203,371.154,115.722,324.89,0,0,0,
,0.873,0.219,-0.193,329.895,124.878,344.726,0,0,0,
,0.849,0.222,-0.181,307.434,135.803,356.628,0,0,0,
,0.827,0.229,-0.164,301.452,150.695,362.304,0,0,0,
,0.826,0.235,-0.16,307.983,174.621,354.065,0,0,0,
,0.838,0.234,-0.165,329.528,187.744,342.102,0,0,0,
,0.84,0.224,-0.166,353.271,177.185,334.106,0,0,0,
,0.838,0.22,-0.162,366.272,165.649,317.993,0,0,0,
,0.833,0.215,-0.158,371.032,158.203,295.654,0,0,0,
,0.828,0.209,-0.148,368.408,151.001,266.052,0,0,0,
,0.822,0.201,-0.142,354.004,139.16,235.229,0,0,0,
,0.819,0.193,-0.126,323.242,136.108,202.148,0,0,0,
,0.816,0.184,-0.107,272.094,127.685,166.198,0,0,0,
,0.822,0.184,-0.094,190.429,127.136,128.967,0,0,0,
,0.841,0.186,-0.089,91.186,125.732,88.256,0,0,0,
,0.868,0.194,-0.084,-7.203,119.445,38.818,0,0,0,
,0.871,0.193,-0.062,-94.666,104.126,-1.404,0,0,0,
,0.854,0.23,-0.031,-170.411,85.022,-40.345,0,0,0,
,0.838,0.252,0.003,-213.562,91.674,-91.126,0,0,0,
