TIMECODE,ACC_X,ACC_Y,ACC_Z,GYR_X,GYR_Y,GYR_Z,TAG
00:00:00:0,-0.207,0.701,0.684,-10.193,17.334,-27.832,
00:00:00:16,-0.209,0.696,0.681,-2.198,17.456,-29.114,
00:00:00:33,-0.207,0.695,0.686,4.333,20.507,-34.607,
00:00:00:50,-0.204,0.683,0.677,-4.883,18.188,-31.434,
00:00:00:66,-0.204,0.689,0.686,-7.569,16.479,-28.626,
00:00:00:83,-0.207,0.694,0.69,-10.926,18.005,-26.673,
00:00:00:100,-0.21,0.697,0.677,-4.212,22.522,-30.64,
00:00:00:116,-0.203,0.689,0.677,-2.869,24.108,-30.213,
00:00:00:133,-0.204,0.683,0.68,-7.691,20.629,-28.321,
00:00:00:150,-0.204,0.7,0.696,-13.55,16.601,-24.964,
00:00:00:166,-0.208,0.694,0.681,-12.146,15.93,-27.955,
00:00:00:183,-0.206,0.688,0.68,-0.367,19.531,-30.762,
00:00:00:200,-0.2,0.679,0.683,-6.165,17.639,-31.25,
00:00:00:216,-0.202,0.684,0.684,-16.236,12.023,-23.743,
00:00:00:233,-0.205,0.697,0.69,-15.442,13.732,-26.49,
00:00:00:250,-0.211,0.687,0.683,-9.339,29.48,-31.189,
00:00:00:266,-0.207,0.694,0.686,-16.297,15.686,-27.527,
00:00:00:283,-0.205,0.68,0.676,-16.419,15.502,-33.02,
00:00:00:300,-0.205,0.691,0.688,-19.593,13.366,-28.687,
00:00:00:316,-0.209,0.69,0.684,-25.696,11.901,-29.358,
00:00:00:333,-0.212,0.696,0.684,-23.987,16.113,-28.321,
00:00:00:350,-0.203,0.689,0.672,-29.664,14.526,-35.096,
00:00:00:366,-0.205,0.69,0.689,-20.081,13.244,-31.495,
00:00:00:383,-0.207,0.697,0.683,-24.353,13.794,-27.039,
00:00:00:400,-0.212,0.701,0.68,-7.874,12.817,-28.138,
00:00:00:416,-0.207,0.695,0.689,-0.611,15.686,-34.424,
00:00:00:433,-0.209,0.677,0.683,-4.822,12.817,-33.143,
00:00:00:450,-0.207,0.685,0.687,-16.114,13.671,-28.626,
00:00:00:466,-0.207,0.688,0.681,-21.79,12.878,-27.283,
00:00:00:483,-0.206,0.689,0.673,-7.752,10.62,-29.541,
00:00:00:500,-0.206,0.69,0.681,-9.644,9.277,-29.297,
00:00:00:516,-0.213,0.695,0.717,-17.456,8.056,-27.344,
00:00:00:533,-0.211,0.695,0.683,-7.935,10.376,-31.739,
00:00:00:550,-0.208,0.696,0.686,-0.428,10.009,-28.321,
00:00:00:566,-0.209,0.677,0.685,-4.029,11.718,-34.607,
00:00:00:583,-0.203,0.673,0.692,-14.466,15.808,-31.861,
00:00:00:600,-0.205,0.686,0.687,-27.527,11.718,-28.321,
00:00:00:616,-0.213,0.704,0.682,-20.691,12.817,-23.865,
00:00:00:633,-0.212,0.7,0.679,-6.348,16.113,-29.236,
00:00:00:650,-0.21,0.689,0.681,2.746,17.822,-29.847,
00:00:00:666,-0.207,0.681,0.681,-2.808,14.343,-29.786,
00:00:00:683,-0.211,0.682,0.697,-8.667,11.535,-31.25,
00:00:00:700,-0.202,0.685,0.693,25.878,21.362,-32.41,
00:00:00:716,-0.204,0.656,0.717,-0.489,15.197,-31.006,
00:00:00:733,-0.209,0.672,0.688,-26.856,18.92,-22.767,
00:00:00:750,-0.209,0.697,0.684,-28.077,15.441,-23.438,
00:00:00:766,-0.212,0.698,0.683,-7.203,12.146,-26.185,
00:00:00:783,-0.213,0.701,0.682,-2.381,8.178,-23.011,
00:00:00:800,-0.217,0.685,0.69,9.033,11.657,-31.556,
00:00:00:816,-0.209,0.667,0.688,-5.433,13.916,-31.983,
00:00:00:833,-0.207,0.667,0.686,-23.072,11.596,-26.246,
00:00:00:850,-0.21,0.683,0.687,-31.128,13.183,-23.56,
00:00:00:866,-0.218,0.683,0.685,-5.921,10.253,-32.044,
00:00:00:883,-0.21,0.676,0.689,-11.414,10.864,-32.166,
00:00:00:900,-0.21,0.68,0.685,-19.593,10.925,-27.71,
00:00:00:916,-0.216,0.681,0.687,-21.668,8.483,-24.72,
00:00:00:933,-0.21,0.69,0.689,-15.442,10.742,-25.513,
00:00:00:950,-0.216,0.689,0.693,-16.419,6.897,-24.842,
00:00:00:966,-0.219,0.695,0.69,-7.264,9.033,-23.682,
00:00:00:983,-0.217,0.684,0.69,-6.775,10.192,-27.588,
00:00:01:0,-0.214,0.675,0.682,-4.456,9.826,-28.199,
00:00:01:16,-0.214,0.68,0.692,-18.555,10.07,-25.94,
00:00:01:33,-0.217,0.687,0.692,-20.02,10.864,-25.33,
00:00:01:50,-0.21,0.68,0.69,-15.32,18.493,-27.955,
00:00:01:66,-0.218,0.688,0.686,-23.499,18.249,-22.217,
00:00:01:83,-0.223,0.692,0.687,-8.301,16.54,-26.001,
00:00:01:100,-0.216,0.681,0.685,-7.63,20.69,-29.847,
00:00:01:116,-0.216,0.677,0.688,-9.522,18.798,-27.771,
00:00:01:133,-0.217,0.679,0.69,-18.616,16.784,-30.64,
00:00:01:150,-0.218,0.691,0.688,-18.372,16.113,-26.185,
00:00:01:166,-0.217,0.694,0.686,-12.207,16.052,-30.091,
00:00:01:183,-0.215,0.675,0.684,-5.738,18.249,-31.495,
00:00:01:200,-0.212,0.677,0.69,-18.189,14.526,-28.504,
00:00:01:216,-0.219,0.675,0.687,-29.297,15.319,-26.49,
00:00:01:233,-0.218,0.677,0.688,10.376,23.071,-39.002,
00:00:01:250,-0.206,0.666,0.69,-13.123,17.089,-35.34,
00:00:01:266,-0.218,0.681,0.688,-25.269,15.686,-25.147,
00:00:01:283,-0.22,0.696,0.684,-21.729,18.493,-27.832,
00:00:01:300,-0.217,0.692,0.687,0.122,20.446,-30.396,
00:00:01:316,-0.217,0.679,0.696,1.22,23.376,-33.509,
00:00:01:333,-0.221,0.674,0.691,-14.588,18.981,-30.274,
00:00:01:350,-0.219,0.69,0.692,-9.095,18.432,-27.222,
00:00:01:366,-0.217,0.691,0.679,-6.104,19.836,-32.654,
00:00:01:383,-0.214,0.675,0.686,5.371,20.507,-33.692,
00:00:01:400,-0.21,0.673,0.691,-7.996,19.775,-33.143,
00:00:01:416,-0.217,0.679,0.688,-13.306,15.747,-28.809,
00:00:01:433,-0.216,0.695,0.688,-11.475,19.226,-29.664,
00:00:01:450,-0.22,0.68,0.717,0.671,20.629,-32.105,
00:00:01:466,-0.215,0.678,0.698,0.915,24.719,-30.457,
00:00:01:483,-0.215,0.676,0.685,-1.893,18.859,-28.016,
00:00:01:500,-0.218,0.686,0.69,4.699,23.62,-27.466,
00:00:01:516,-0.213,0.676,0.69,-4.273,20.263,-33.143,
00:00:01:533,-0.215,0.674,0.69,-10.926,22.033,-30.762,
00:00:01:550,-0.211,0.684,0.693,-17.456,19.531,-29.541,
00:00:01:566,-0.218,0.688,0.696,-7.508,20.813,-29.358,
00:00:01:583,-0.217,0.688,0.697,-4.212,25.329,-29.786,
00:00:01:600,-0.211,0.68,0.705,-2.015,24.292,-28.443,
00:00:01:616,-0.22,0.675,0.69,-3.052,23.437,-27.955,
00:00:01:633,-0.213,0.682,0.695,4.76,26.184,-28.687,
00:00:01:650,-0.211,0.676,0.694,-2.442,25.207,-30.579,
00:00:01:666,-0.217,0.676,0.703,1.464,23.62,-27.832,
00:00:01:683,-0.213,0.68,0.699,-5.31,26.062,-30.03,
00:00:01:700,-0.21,0.674,0.692,2.929,26.306,-29.664,
00:00:01:716,-0.213,0.675,0.705,2.258,23.864,-29.297,
00:00:01:733,-0.217,0.671,0.698,-5.372,22.888,-27.955,
00:00:01:750,-0.216,0.671,0.699,-4.212,23.986,-31.8,
00:00:01:766,-0.21,0.674,0.698,-3.785,24.536,-29.541,
00:00:01:783,-0.214,0.672,0.701,-1.77,23.193,-28.504,
00:00:01:800,-0.212,0.672,0.703,-3.724,27.221,-28.687,
00:00:01:816,-0.212,0.671,0.699,-7.203,30.029,-29.602,
00:00:01:833,-0.215,0.683,0.713,4.211,30.273,-27.71,
00:00:01:850,-0.217,0.668,0.702,2.197,33.996,-32.715,
00:00:01:866,-0.21,0.675,0.713,5.615,35.095,-27.588,
00:00:01:883,-0.215,0.67,0.705,4.455,36.987,-22.706,
00:00:01:900,-0.213,0.672,0.712,16.296,45.349,-27.466,
00:00:01:916,-0.204,0.661,0.708,14.526,51.635,-30.579,
00:00:01:933,-0.204,0.657,0.708,11.291,50.109,-23.316,
00:00:01:950,-0.206,0.681,0.714,6.652,49.56,-22.156,
00:00:01:966,-0.212,0.682,0.705,10.986,50.537,-24.842,
00:00:01:983,-0.212,0.675,0.71,28.015,51.757,-29.297,
00:00:02:0,-0.209,0.66,0.709,16.906,53.161,-25.757,
00:00:02:16,-0.201,0.656,0.723,15.747,51.696,-27.039,
00:00:02:33,-0.2,0.666,0.715,8.789,53.772,-27.588,
00:00:02:50,-0.2,0.666,0.711,9.521,49.865,-33.204,
00:00:02:66,-0.199,0.67,0.716,20.507,48.645,-29.664,
00:00:02:83,-0.196,0.651,0.707,22.277,48.889,-35.401,
00:00:02:100,-0.194,0.659,0.718,-3.052,35.827,-31.373,
00:00:02:116,-0.193,0.659,0.708,-4.09,32.898,-38.025,
00:00:02:133,-0.187,0.651,0.717,4.455,31.066,-35.95,
00:00:02:150,-0.189,0.646,0.721,-0.55,29.846,-35.889,
00:00:02:166,-0.193,0.653,0.729,-11.658,27.526,-32.166,
00:00:02:183,-0.199,0.659,0.729,-9.278,29.48,-34.18,
00:00:02:200,-0.197,0.656,0.73,-5.066,35.583,-36.255,
00:00:02:216,-0.197,0.654,0.729,-3.113,44.372,-34.485,
00:00:02:233,-0.205,0.658,0.776,5.859,73.852,-27.955,
00:00:02:250,-0.212,0.67,0.77,23.315,100.952,-24.781,
00:00:02:266,-0.214,0.673,0.836,62.622,243.042,-21.119,
00:00:02:283,-0.223,0.71,0.892,62.988,295.959,-8.851,
00:00:02:300,-0.284,0.825,1.022,107.666,373.901,49.377,
00:00:02:316,-0.371,0.986,1.18,275.756,476.501,118.103,
00:00:02:333,-0.414,1.14,1.502,733.581,571.777,173.462,
00:00:02:350,-0.475,0.132,2.015,1172.79,182.19,204.589,
00:00:02:366,-0.118,0.512,2.149,166.32,-80.506,139.709,
00:00:02:383,0.53,1.161,1.712,-869.446,-597.229,171.875,
00:00:02:400,0.534,2.341,2.131,-186.219,-1029.847,856.079,
00:00:02:416,0.097,2.441,2.11,865.417,-1406.922,1362.793,
00:00:02:433,0.609,1.348,1.29,1059.997,-2000,1611.572,
00:00:02:450,0.611,1.53,0.848,948.852,-2000,1848.449,
00:00:02:466,0.61,1.512,0.479,1278.198,-2000,1999.694,
00:00:02:483,0.628,1.163,0.176,1824.768,-2000,1993.591,
00:00:02:500,0.53,1.015,0.04,1999.694,-2000,1832.641,
00:00:02:516,0.562,0.5,-0.207,1999.694,-1943.543,1264.282,
00:00:02:533,0.635,0.281,-0.386,1999.694,-1925.965,855.102,
00:00:02:550,0.84,0.106,-0.395,1999.694,-2000,467.712,
00:00:02:566,0.784,-0.335,-0.855,1022.583,-2000,750.488,
00:00:02:583,0.624,-0.457,-1.181,497.07,-2000,758.484,
00:00:02:600,0.448,-0.562,-1.361,239.318,-2000,836.731,
00:00:02:616,0.301,-0.611,-1.437,163.086,-1999.329,872.131,
00:00:02:633,0.193,-0.625,-1.509,196.594,-1821.106,863.342,
00:00:02:650,0.057,-0.659,-1.571,229.858,-1428.223,664.306,
00:00:02:666,-0.076,-0.826,-1.61,127.807,-1019.776,385.742,
00:00:02:683,-0.167,-0.992,-1.592,-76.05,-457.947,145.63,
00:00:02:700,-0.204,-1.042,-1.488,-543.396,169.922,-125.428,
00:00:02:716,-0.218,-0.991,-1.349,-1115.662,918.213,-506.043,
00:00:02:733,-0.17,-0.891,-1.4,-1483.521,1592.529,-909.424,
00:00:02:750,-0.112,-0.697,-1.51,-1478.821,1999.694,-1247.986,
00:00:02:766,-0.02,-0.521,-1.433,-1361.329,1999.694,-1556.641,
00:00:02:783,0.1,-0.45,-1.237,-1271.485,1999.694,-1860.657,
00:00:02:800,0.207,-0.451,-1.08,-1253.418,1999.694,-2000,
00:00:02:816,0.078,-0.289,-0.528,-1850.159,1999.694,-1869.507,
00:00:02:833,-0.032,-0.171,-0.34,-1890.809,1999.694,-1971.741,
00:00:02:850,-0.07,-0.089,-0.07,-1811.951,1999.694,-2000,
00:00:02:866,0.125,0.185,0.608,-1568.116,1999.694,-2000,
00:00:02:883,0.435,0.847,1.288,-1939.271,1999.694,-1793.396,
00:00:02:900,0.569,1.518,1.361,-2000,1987.732,-1671.448,
00:00:02:916,0.436,1.993,0.914,-2000,1999.694,-2000,
00:00:02:933,0.502,2.506,0.333,-1909.668,1965.026,-1761.048,
00:00:02:950,0.606,2.817,0.983,-108.155,1332.214,-1476.441,
00:00:02:966,0.069,2.026,1.901,1135.925,1355.713,-1295.411,
00:00:02:983,-0.224,1.244,2.083,1565.796,1089.111,-820.435,
00:00:03:0,-0.12,0.77,2.033,941.894,737.915,-510.071,
00:00:03:16,0.101,0.498,1.676,-28.016,476.867,-617.493,
00:00:03:33,0.217,0.513,1.389,-1089.173,193.176,-684.693,
00:00:03:50,0.181,0.725,1.097,-1704.224,-39.368,-517.212,
00:00:03:66,0.109,1.07,0.775,-1689.087,-107.727,-433.533,
00:00:03:83,-0.052,1.251,0.441,-910.645,39.306,-336.243,
00:00:03:100,-0.21,1.135,0.516,186.279,247.131,-155.823,
00:00:03:116,-0.261,1.984,1.737,1088.928,253.479,276.855,
00:00:03:133,-0.027,0.916,1.28,401.489,124.939,181.579,
00:00:03:150,-0.224,-0.284,0.366,636.413,116.333,-15.686,
00:00:03:166,-0.362,0.205,0.964,238.037,81.237,221.069,
00:00:03:183,-0.111,0.492,0.886,-663.453,54.809,-79.285,
00:00:03:200,0.067,0.653,0.704,-722.596,66.955,-295.35,
00:00:03:216,0.086,0.883,0.667,-608.216,18.188,30.456,
00:00:03:233,-0.009,1.054,0.709,-324.585,-1.954,90.026,
00:00:03:250,-0.113,0.988,0.595,125.488,164.672,81.543,
00:00:03:266,-0.023,0.955,0.563,328.552,269.836,128.601,
00:00:03:283,0.155,0.955,0.605,476.257,300.781,161.865,
00:00:03:300,0.297,1.125,0.823,-50.599,165.649,222.046,
00:00:03:316,0.285,1.232,0.957,-156.311,3.723,405.273,
00:00:03:333,0.093,1.081,0.815,-176.392,-86.609,555.114,
00:00:03:350,-0.113,0.957,0.605,-185.303,-122.559,597.839,
00:00:03:366,-0.243,0.949,0.521,-188.111,-117.432,609.802,
00:00:03:383,-0.305,0.806,0.68,-25.208,-35.096,566.101,
00:00:03:400,-0.294,0.553,0.64,73.608,22.338,477.295,
00:00:03:416,-0.288,0.289,0.5,188.293,52.246,383.85,
00:00:03:433,-0.315,0.295,0.528,249.084,52.185,309.204,
00:00:03:450,-0.32,0.239,0.524,224.487,120.666,186.645,
00:00:03:466,-0.303,0.228,0.608,183.166,162.231,97.229,
00:00:03:483,-0.365,0.606,0.941,153.015,47.973,53.772,
00:00:03:500,-0.367,0.525,0.997,177.795,70.373,17.028,
00:00:03:516,-0.332,0.586,0.919,-70.313,-12.391,61.584,
00:00:03:533,-0.208,0.539,0.857,-41.26,-8.789,-27.588,
00:00:03:550,-0.202,0.494,0.868,-6.775,3.173,-72.388,
00:00:03:566,-0.181,0.479,0.872,-99.305,9.094,-189.393,
00:00:03:583,-0.087,0.485,0.832,-21.851,64.575,-244.385,
00:00:03:600,-0.193,0.758,0.864,-50.66,-33.692,-142.518,
00:00:03:616,-0.188,0.626,0.839,154.419,44.494,-246.094,
00:00:03:633,-0.201,0.486,0.913,112.06,24.841,-203.125,
00:00:03:650,-0.17,0.514,0.721,18.554,30.639,-220.459,
00:00:03:666,-0.241,1.103,0.775,136.474,-15.625,7.507,
00:00:03:683,-0.307,0.927,0.978,507.08,119.018,-124.817,
00:00:03:700,-0.245,0.721,0.822,456.482,155.151,-24.903,
00:00:03:716,-0.271,0.791,0.916,439.27,102.539,28.808,
00:00:03:733,-0.316,0.784,0.829,575.5,95.398,77.392,
00:00:03:750,-0.319,0.634,0.932,705.871,80.993,94.36,
00:00:03:766,-0.37,0.54,0.955,1322.082,-10.804,117.248,
00:00:03:783,-0.25,0.386,1,1658.752,74.035,291.992,
00:00:03:800,-0.22,0.115,1.064,1588.562,6.042,202.636,
00:00:03:816,-0.302,0.141,0.951,1113.647,-34.607,285.034,
00:00:03:833,-0.341,0.234,0.854,843.75,30.273,255.92,
00:00:03:850,-0.204,0.269,0.923,1273.254,349.243,345.947,
00:00:03:866,-0.126,0.14,0.945,1158.874,381.225,348.632,
00:00:03:883,-0.081,0.106,0.95,822.143,352.661,323.12,
00:00:03:900,-0.076,0.105,0.866,429.626,303.833,312.072,
00:00:03:916,-0.044,0.123,0.822,380.798,324.463,318.969,
00:00:03:933,-0.001,0.14,0.752,540.893,353.088,350.463,
00:00:03:950,0.034,0.017,0.821,840.576,394.592,302.368,
00:00:03:966,0.067,-0.137,0.853,933.227,423.217,289.672,
00:00:03:983,0.096,-0.25,0.963,740.539,385.681,188.781,
00:00:04:0,0.129,-0.266,0.962,304.443,304.138,109.558,
00:00:04:16,0.138,-0.216,0.97,-0.061,207.702,91.247,
00:00:04:33,0.01,0.064,0.901,-11.78,76.843,214.599,
00:00:04:50,-0.007,-0.004,0.984,518.615,162.475,207.58,
00:00:04:66,0.066,-0.25,0.985,874.45,243.957,41.565,
00:00:04:83,0.117,-0.39,0.97,488.83,158.691,-26.673,
00:00:04:100,0.106,-0.337,0.921,-27.283,3.234,27.343,
00:00:04:116,0.014,-0.259,0.898,336.547,109.741,33.996,
00:00:04:133,0.038,-0.325,0.902,367.553,147.033,45.288,
00:00:04:150,0.035,-0.37,0.946,195.007,105.529,35.644,
00:00:04:166,0.03,-0.344,0.926,62.072,74.279,88.501,
00:00:04:183,0.035,-0.272,0.931,26.733,61.523,-0.184,
00:00:04:200,0.052,-0.32,0.963,121.521,59.753,-25.696,
00:00:04:216,0.042,-0.444,0.895,100.28,86.731,-102.967,
00:00:04:233,0.002,-0.334,0.883,-291.077,-7.081,-19.898,
00:00:04:250,-0.011,-0.223,0.863,-337.83,27.404,-74.585,
00:00:04:266,0,-0.115,0.845,-310.364,6.225,27.587,
00:00:04:283,-0.009,-0.132,0.817,-30.518,64.514,-22.522,
00:00:04:300,-0.041,-0.166,0.903,240.478,104.065,42.541,
00:00:04:316,0.02,-0.484,0.989,140.686,155.09,11.23,
00:00:04:333,0.041,-0.454,1.011,-58.777,114.746,-0.611,
00:00:04:350,0.048,-0.406,1.006,-128.724,109.253,-5.249,
00:00:04:366,0.048,-0.299,1.017,-168.396,85.205,21.911,
00:00:04:383,0.044,-0.307,1,-86.182,106.811,-16.48,
00:00:04:400,0.041,-0.224,1.043,22.827,80.749,77.453,
00:00:04:416,0.014,-0.258,1.107,204.406,95.214,50.781,
00:00:04:433,0.022,-0.39,1.107,332.275,123.901,64.514,
00:00:04:450,0.006,-0.409,1.018,353.21,122.619,99.792,
00:00:04:466,-0.032,-0.431,1.121,208.618,49.072,70.739,
00:00:04:483,0.047,-0.433,1.046,65.551,63.049,43.945,
00:00:04:500,0.049,-0.486,0.922,85.022,92.346,35.217,
00:00:04:516,0.042,-0.493,0.998,11.84,44.738,2.136,
00:00:04:533,0.038,-0.512,0.972,-102.906,47.485,28.747,
00:00:04:550,0.041,-0.462,1.013,-182.557,17.578,-13.489,
00:00:04:566,0.033,-0.498,0.96,-315.186,16.113,-50.354,
00:00:04:583,0.053,-0.411,0.88,-400.025,43.64,-46.509,
00:00:04:600,0.086,-0.284,0.758,-429.322,52.856,-34.363,
00:00:04:616,0.099,-0.09,0.912,-221.07,4.089,54.321,
00:00:04:633,0.044,-0.363,0.916,517.028,137.634,-84.595,
00:00:04:650,0.065,-0.538,0.917,256.164,102.111,-141.541,
00:00:04:666,0.133,-0.037,0.846,-420.166,-0.123,71.96,
00:00:04:683,0.098,0.013,0.914,17.517,78.857,64.697,
00:00:04:700,0.108,-0.344,0.782,393.066,249.206,-138.001,
00:00:04:716,0.211,-0.521,0.887,306.091,291.87,-194.886,
00:00:04:733,0.302,-0.648,0.872,-16.602,253.906,-203.309,
00:00:04:750,0.295,-0.428,0.894,-218.75,132.202,-9.034,
00:00:04:766,0.217,-0.348,0.949,-72.998,113.037,-51.087,
00:00:04:783,0.19,-0.367,0.899,-35.218,207.336,-134.217,
00:00:04:800,0.192,-0.477,0.852,-146.851,253.54,-257.019,
00:00:04:816,0.182,-0.472,0.797,-350.098,369.873,-216.797,
00:00:04:833,0.189,-0.301,0.672,-473.145,403.93,-140.381,
00:00:04:850,0.19,-0.239,0.649,-396.18,397.461,-185.608,
00:00:04:866,0.213,-0.241,0.694,-400.452,441.955,-211.365,
00:00:04:883,0.257,-0.188,0.703,-604.859,542.175,-225.22,
00:00:04:900,0.334,-0.155,0.686,-647.95,488.037,-262.879,
00:00:04:916,0.408,0.121,0.687,-771.973,318.725,13.794,
00:00:04:933,0.336,0.115,0.728,-754.639,208.374,13.977,
00:00:04:950,0.884,0.754,2.746,-185.486,-233.887,91.98,
00:00:04:966,0.319,-0.736,0.371,986.206,948.791,-916.748,
00:00:04:983,0.693,-0.872,1.338,-478.272,-563.843,-528.687,
00:00:05:0,0.343,-0.097,0.478,-1292.908,360.168,352.356,
00:00:05:16,0.507,0.604,0.546,-602.356,-315.979,197.937,
00:00:05:33,0.401,0.128,0.777,111.877,-328.064,-170.044,
00:00:05:50,0.266,-0.06,0.978,140.564,-306.275,102.111,
00:00:05:66,0.303,0.066,1.175,-102.234,-243.409,90.82,
00:00:05:83,0.087,-0.116,0.894,-172.242,-164.368,125.549,
00:00:05:100,0.104,0.291,0.982,-911.988,-271.241,391.479,
00:00:05:116,0.054,0.603,1.029,-597.107,-348.816,490.478,
00:00:05:133,-0.182,0.514,1.754,420.349,-50.354,433.96,
00:00:05:150,0.04,0.133,1.963,1014.099,112.365,107.91,
00:00:05:166,0.276,-0.439,1.827,991.699,-104.981,40.832,
00:00:05:183,0.196,-0.588,1.549,422.607,-423.34,238.342,
00:00:05:200,-0.064,-0.184,1.23,17.211,-493.287,466.613,
00:00:05:216,-0.274,0.101,0.664,93.811,-179.81,414.734,
00:00:05:233,-0.254,-0.019,0.869,591.919,159.79,270.446,
00:00:05:250,0.047,-0.162,0.581,470.886,345.153,145.935,
00:00:05:266,0.161,0.127,0.559,264.282,285.095,432.312,
00:00:05:283,0.049,0.087,0.387,276.855,294.677,407.104,
00:00:05:300,0.203,-0.036,0.583,344.299,481.14,327.819,
00:00:05:316,0.25,-0.477,0.679,337.28,716.858,-41.81,
00:00:05:333,0.456,-0.642,0.74,125.183,840.637,-217.347,
00:00:05:350,0.589,-0.737,0.6,-80.323,746.948,-251.648,
00:00:05:366,0.703,-0.689,0.51,-467.957,469.909,-195.008,
00:00:05:383,0.638,-0.476,0.33,-880.372,257.751,-6.47,
00:00:05:400,0.604,-0.069,0.379,-1104.004,3.173,131.469,
00:00:05:416,0.502,0.128,0.451,-884.888,-5.372,125.366,
00:00:05:433,0.391,0.039,0.467,-411.438,105.163,-74.463,
00:00:05:450,0.426,-0.14,0.624,-268.128,158.508,-175.599,
00:00:05:466,0.505,-0.244,0.844,-601.746,70.8,-158.875,
00:00:05:483,0.439,-0.156,0.81,-1097.474,-23.865,0.244,
00:00:05:500,0.394,0.12,0.776,-1326.478,-141.175,122.802,
00:00:05:516,0.357,0.334,0.744,-1267.823,-322.815,161.499,
00:00:05:533,0.319,0.433,0.784,-1244.019,-429.627,156.311,
00:00:05:550,0.353,0.542,0.97,-1162.232,-562.806,236.389,
00:00:05:566,0.259,0.687,1.517,-1117.493,-87.464,76.049,
00:00:05:583,0.19,0.892,1.22,-1170.166,-253.785,163.513,
00:00:05:600,0.167,0.611,1.311,-620.728,-196.9,228.21,
00:00:05:616,0.135,0.704,1.339,-278.077,-30.64,183.776,
00:00:05:633,0.23,0.231,1.198,-453.614,-239.808,165.405,
00:00:05:650,0.312,0.346,1.134,-455.567,-196.534,214.172,
00:00:05:666,0.294,0.247,0.904,-523.926,-201.477,158.996,
00:00:05:683,0.228,0.343,0.874,-467.591,-222.168,214.233,
00:00:05:700,0.179,0.512,0.901,-187.928,-209.351,233.154,
00:00:05:716,0.099,0.545,0.997,3.418,68.298,113.647,
00:00:05:733,0.167,0.673,1.129,15.502,92.102,167.602,
00:00:05:750,0.158,0.579,1.106,7.995,29.846,196.838,
00:00:05:766,0.1,0.355,0.906,19.531,-66.529,220.825,
00:00:05:783,0.025,0.415,0.801,148.315,-63.111,339.294,
00:00:05:800,0.007,0.653,0.855,244.14,-91.004,471.008,
00:00:05:816,-0.001,0.51,0.734,336.731,-22.217,342.468,
00:00:05:833,0.045,0.415,0.873,436.279,-18.006,369.323,
00:00:05:850,0.131,0.182,0.68,251.037,102.539,211.425,
00:00:05:866,0.129,0.114,0.679,86.059,58.41,221.74,
00:00:05:883,0.183,0.078,0.708,53.649,54.382,235.29,
00:00:05:900,0.242,0.143,0.891,20.996,102.234,256.591,
00:00:05:916,0.309,0.181,0.986,4.821,100.28,223.938,
00:00:05:933,0.349,0.14,0.976,-16.724,113.708,98.571,
00:00:05:950,0.35,0.126,0.933,-135.437,71.899,68.847,
00:00:05:966,0.324,0.27,0.894,-362.366,-65.369,183.838,
00:00:05:983,0.256,0.432,0.86,-455.384,-139.039,215.393,
00:00:06:0,0.16,0.461,0.877,-475.892,-152.405,206.482,
00:00:06:16,0.074,0.467,0.96,-408.204,-78.919,136.413,
00:00:06:33,0.047,0.385,0.987,-384.278,-130.433,54.687,
00:00:06:50,0.03,0.365,0.915,-508.301,-190.003,68.115,
00:00:06:66,0.02,0.433,0.864,-625.794,-231.507,70.556,
00:00:06:83,0.03,0.536,0.885,-619.141,-209.778,51.147,
00:00:06:100,0.122,0.5,0.812,-525.513,-169.129,-19.288,
00:00:06:116,0.131,0.526,0.829,-408.997,-110.657,-30.518,
00:00:06:133,0.158,0.519,0.799,-365.235,-76.111,-49.195,
00:00:06:150,0.157,0.576,0.822,-343.079,-50.11,-59.876,
00:00:06:166,0.142,0.558,0.756,-360.657,-27.832,-92.53,
00:00:06:183,0.123,0.584,0.793,-362.671,-21.729,-109.131,
00:00:06:200,0.111,0.58,0.839,-389.466,-32.166,-130.005,
00:00:06:216,0.097,0.53,0.805,-447.022,-51.697,-155.152,
00:00:06:233,0.098,0.581,0.799,-492.371,-102.478,-145.935,
00:00:06:250,0.086,0.696,0.736,-571.412,-145.386,-121.949,
00:00:06:266,0.066,0.762,0.717,-559.815,-174.988,-127.991,
00:00:06:283,0.058,0.787,0.715,-489.808,-168.274,-119.446,
00:00:06:300,0.062,0.748,0.71,-412.72,-160.706,-111.451,
00:00:06:316,0.049,0.705,0.79,-332.215,-164.124,-104.004,
00:00:06:333,0.022,0.677,0.835,-381.592,-195.862,-68.238,
00:00:06:350,-0.006,0.683,0.841,-532.776,-272.461,-57.007,
00:00:06:366,-0.029,0.72,0.777,-582.276,-306.519,-59.815,
00:00:06:383,-0.06,0.798,0.729,-547.547,-330.445,-38.758,
00:00:06:400,-0.089,0.855,0.686,-417.42,-302.491,-41.382,
00:00:06:416,-0.032,0.904,0.672,-108.704,-210.389,-35.584,
00:00:06:433,-0.007,0.939,0.668,-5.188,-214.173,-7.264,
00:00:06:450,-0.032,0.942,0.697,144.653,-220.765,14.892,
00:00:06:466,-0.076,0.885,0.699,273.071,-195.252,32.348,
00:00:06:483,-0.097,0.854,0.71,327.758,-187.134,56.579,
00:00:06:500,-0.114,0.919,0.737,392.089,-216.553,87.219,
00:00:06:516,-0.141,0.91,0.703,508.667,-212.647,117.492,
00:00:06:533,-0.17,0.855,0.709,672.668,-204.773,139.526,
00:00:06:550,-0.175,0.793,0.736,767.517,-183.777,151.611,
00:00:06:566,-0.167,0.72,0.727,737.609,-186.768,161.255,
00:00:06:583,-0.145,0.701,0.736,753.173,-184.082,162.292,
00:00:06:600,-0.134,0.701,0.723,800.537,-182.373,173.401,
00:00:06:616,-0.128,0.692,0.717,901.001,-176.575,182.312,
00:00:06:633,-0.095,0.637,0.662,1021.545,-158.57,192.688,
00:00:06:650,-0.078,0.625,0.658,1145.813,-137.391,199.707,
00:00:06:666,-0.071,0.576,0.685,1286.804,-114.197,189.819,
00:00:06:683,-0.057,0.486,0.691,1402.221,-75.196,149.109,
00:00:06:700,-0.011,0.428,0.683,1520.385,-26.978,105.102,
00:00:06:716,0.038,0.323,0.632,1608.825,3.54,85.266,
00:00:06:733,0.074,0.232,0.567,1622.192,-65.552,123.291,
00:00:06:750,0.052,0.183,0.567,1668.396,-98.999,148.864,
00:00:06:766,0.026,0.203,0.63,1760.62,-110.352,163.452,
00:00:06:783,0.017,0.192,0.624,1803.283,-67.933,153.076,
00:00:06:800,-0.034,0.13,0.659,1747.07,-22.95,148.132,
00:00:06:816,-0.067,0.097,0.618,1638,87.097,209.411,
00:00:06:833,-0.075,-0.031,0.658,1540.527,225.83,195.129,
00:00:06:850,-0.114,0.01,0.595,1326.233,300.293,226.318,
00:00:06:866,-0.179,-0.116,0.645,1284.973,403.32,237.976,
00:00:06:883,-0.229,-0.23,0.686,1280.273,510.315,254.699,
00:00:06:900,-0.192,-0.38,0.791,1194.03,550.781,213.562,
00:00:06:916,-0.166,-0.625,0.805,1030.7,621.643,159.362,
00:00:06:933,-0.137,-0.681,0.857,887.451,666.381,14.648,
00:00:06:950,-0.122,-0.866,0.962,568.298,537.048,-279.969,
00:00:06:966,-0.106,-1.029,1.123,798.767,552.673,-182.557,
00:00:06:983,-0.054,-1.08,1.245,1273.742,612.243,6.164,
00:00:07:0,0.03,-0.65,1.242,1268.188,676.147,-289.917,
00:00:07:16,0.283,-2.41,1.985,1403.259,436.767,-1242.981,
00:00:07:33,-0.016,-1.633,1.565,1783.569,660.4,-366.822,
00:00:07:50,-0.21,-1.214,0.288,953.674,-171.082,-997.437,
00:00:07:66,-0.127,-1.964,1.182,1372.009,-385.071,-968.689,
00:00:07:83,-0.119,-1.283,0.553,1039.856,-17.151,-301.453,flipRH
00:00:07:100,-0.088,-1.3,0.7,-8.789,-257.019,-609.192,
00:00:07:116,-0.154,-1.023,0.779,-154.053,-146.241,-320.252,
00:00:07:133,-0.055,-0.923,0.932,-247.254,-203.186,-340.577,
00:00:07:150,0.008,-0.951,0.983,-213.44,-304.444,-481.019,
00:00:07:166,-0.049,-1.126,0.753,-364.869,-264.954,-478.028,
00:00:07:183,-0.144,-1.125,0.324,-688.843,-133.545,-401.246,
00:00:07:200,-0.148,-0.823,0.329,-1227.967,6.469,-353.699,
00:00:07:216,-0.081,-0.577,0.438,-1271.973,117.981,-304.078,
00:00:07:233,-0.01,-0.35,0.515,-893.677,126.831,-198.609,
00:00:07:250,-0.003,-0.294,0.655,-471.253,80.444,-193.421,
00:00:07:266,-0.068,-0.337,0.721,3.662,33.874,-402.222,
00:00:07:283,-0.145,-0.613,0.765,227.295,16.784,-542.298,
00:00:07:300,-0.228,-0.724,0.705,144.409,102.234,-497.742,
00:00:07:316,-0.26,-0.786,0.361,-466.065,411.132,-361.756,
00:00:07:333,-0.194,-0.599,0.322,-837.281,572.448,-287.903,
00:00:07:350,-0.141,-0.383,0.346,-1025.635,665.344,-201.6,
00:00:07:366,-0.087,-0.256,0.485,-894.288,642.334,-216.675,
00:00:07:383,-0.114,-0.113,0.588,-650.269,632.751,-171.448,
00:00:07:400,-0.053,-0.346,0.676,-372.803,677.185,-343.506,
00:00:07:416,0.029,-0.457,0.584,-422.181,760.803,-212.647,
00:00:07:433,0.04,-0.3,0.772,-808.838,740.539,51.635,
00:00:07:450,0.076,-0.087,0.992,-829.468,641.54,34.179,
00:00:07:466,0.096,-0.098,1.161,-667.542,419.006,-96.07,
00:00:07:483,-0.006,-0.217,1.169,-582.886,265.503,-283.875,
00:00:07:500,-0.084,-0.402,1.168,-645.02,180.603,-279.236,
00:00:07:516,-0.094,-0.377,1.127,-748.902,150.94,-99.671,
00:00:07:533,-0.106,-0.214,1.062,-771.363,7.934,-89.051,
00:00:07:550,-0.141,-0.235,0.967,-677.002,-57.679,-90.577,
00:00:07:566,-0.19,-0.236,0.89,-634.644,-28.382,-69.153,
00:00:07:583,-0.209,-0.182,0.954,-557.068,-44.861,-23.926,
00:00:07:600,-0.232,-0.191,1.024,-473.206,-33.081,-50.232,
00:00:07:616,-0.24,-0.246,1.029,-458.191,26.55,-45.838,
00:00:07:633,-0.185,-0.256,0.981,-439.698,134.277,39.733,
00:00:07:650,-0.124,-0.176,0.959,-466.675,160.278,152.588,
00:00:07:666,-0.077,-0.116,0.953,-400.086,138.916,119.14,
00:00:07:683,-0.058,-0.129,0.94,-350.586,101.379,54.443,
00:00:07:700,-0.069,-0.145,0.995,-388.184,78.186,15.014,
00:00:07:716,-0.041,-0.07,1.11,-530.213,71.899,95.214,
00:00:07:733,-0.031,-0.044,1.123,-561.097,45.166,83.679,
00:00:07:750,-0.006,-0.033,1.091,-562.745,53.222,109.253,
00:00:07:766,0.024,0.008,1.047,-560.852,33.447,207.275,
00:00:07:783,-0.019,0.163,0.957,-520.935,13.61,299.255,
00:00:07:800,-0.05,0.282,0.977,-327.637,9.948,302.734,
00:00:07:816,-0.025,0.268,0.899,23.925,-19.104,55.114,
00:00:07:833,-0.075,0.109,0.902,185.363,-148.743,-144.898,
00:00:07:850,-0.185,-0.027,0.893,210.815,-143.189,-176.27,
00:00:07:866,-0.205,-0.066,0.861,100.769,-31.922,-31.556,
00:00:07:883,-0.192,0.009,0.847,-11.17,43.579,104.492,
00:00:07:900,-0.141,0.095,0.863,-30.701,111.999,127.563,
00:00:07:916,-0.09,0.124,0.905,-3.296,120.666,78.552,
00:00:07:933,-0.053,0.107,0.949,14.648,119.506,78.247,
00:00:07:950,-0.043,0.068,1.001,7.141,118.774,66.65,
00:00:07:966,-0.051,0.038,1.055,-26.185,111.084,101.806,
00:00:07:983,-0.059,-0.006,1.101,-60.608,112.793,79.101,
00:00:08:0,-0.081,-0.034,1.082,-94.056,132.873,66.711,
00:00:08:16,-0.085,-0.021,1.035,-144.41,158.752,103.149,
00:00:08:33,-0.105,0.057,1.019,-197.144,176.513,123.535,
00:00:08:50,-0.128,0.17,1.019,-169.861,203.43,155.029,
00:00:08:66,-0.135,0.272,0.999,-43.946,238.708,208.13,
00:00:08:83,-0.129,0.367,1.005,86.059,240.295,258.117,
00:00:08:100,-0.079,0.35,0.996,275.879,268.737,244.14,
00:00:08:116,-0.068,0.296,0.986,480.346,269.775,249.878,
00:00:08:133,-0.056,0.176,1.003,598.755,271.24,231.018,
00:00:08:150,-0.04,0.072,1.133,700.805,263.366,305.542,
00:00:08:166,0.031,-0.224,1.175,705.566,177.246,85.571,
00:00:08:183,-0.176,-0.251,0.927,162.231,144.592,222.229,
00:00:08:200,-0.158,0.024,1.105,20.935,236.633,523.071,
00:00:08:216,0.055,0.088,0.88,344.055,348.51,463.562,
00:00:08:233,0.141,-0.001,0.943,479.675,162.719,348.327,
00:00:08:250,0.041,-0.226,0.853,493.042,140.014,145.385,
00:00:08:266,-0.037,-0.256,0.86,250.061,170.044,330.871,
00:00:08:283,0.078,-0.164,0.82,110.046,265.93,412.902,
00:00:08:300,0.18,-0.102,0.778,25.085,236.023,381.225,
00:00:08:316,0.218,-0.089,0.803,-0.55,211.67,300.903,
00:00:08:333,0.282,-0.143,0.87,34.668,202.636,271.728,
00:00:08:350,0.535,-0.234,1.753,-201.355,-217.164,217.712,
00:00:08:366,0.985,-0.56,2.047,-67.078,197.876,296.753,
00:00:08:383,0.736,-0.306,0.673,681.579,-80.75,22.766,
00:00:08:400,0.318,-0.289,0.233,-103.455,-417.603,-176.514,
00:00:08:416,-0.041,0.056,0.579,-367.676,-177.674,116.333,
00:00:08:433,0.556,-0.156,1.116,-13.794,168.396,-46.631,
00:00:08:450,0.679,-0.341,0.787,128.845,66.406,-144.043,
00:00:08:466,0.134,-0.271,1,-428.406,-199.097,-532.41,
00:00:08:483,0.066,-0.333,1.037,-482.3,-15.625,-387.085,
00:00:08:500,0.174,-0.243,0.971,-468.934,87.524,-152.649,
00:00:08:516,0.213,-0.114,1.001,-652.771,28.93,-169.556,
00:00:08:533,0.076,0.078,0.975,-835.999,1.892,-239.014,
00:00:08:550,0.046,0.219,1.106,-831.665,-10.804,-144.227,
00:00:08:566,0.058,0.314,1.138,-658.936,20.446,-142.151,
00:00:08:583,0.045,0.364,1.146,-562.867,-36.133,-56.763,
00:00:08:600,-0.021,0.379,1.139,-404.053,-56.336,-136.963,
00:00:08:616,-0.134,0.313,0.996,-310.425,-20.569,-222.168,
00:00:08:633,-0.13,0.204,0.966,-271.058,55.175,-114.685,
00:00:08:650,-0.136,0.239,0.906,-265.87,108.703,46.203,
00:00:08:666,-0.12,0.319,0.906,-225.22,175.659,110.412,
00:00:08:683,-0.071,0.357,0.867,-25.757,255.066,171.325,
00:00:08:700,-0.01,0.318,0.74,159.973,297.363,89.965,
00:00:08:716,0.036,0.224,0.655,220.092,292.419,70.983,
00:00:08:733,0.121,0.145,0.708,338.134,286.987,123.108,
00:00:08:750,0.165,0.127,0.793,352.661,299.499,191.772,
00:00:08:766,0.375,-0.058,0.925,539.123,280.273,-5.677,
00:00:08:783,0.371,-0.167,0.907,333.557,155.7,50.354,
00:00:08:800,0.417,-0.215,0.896,269.226,125.488,53.039,
00:00:08:816,0.463,-0.236,1,14.77,16.845,18.554,
00:00:08:833,0.43,-0.146,1.02,-120.362,-6.104,101.928,
00:00:08:850,0.406,-0.158,0.843,91.919,-33.753,-33.265,
00:00:08:866,0.454,-0.346,0.791,-301.941,-76.05,-375.367,
00:00:08:883,0.27,-0.151,0.632,-945.679,-107.972,-15.32,
00:00:08:900,0.171,0.269,0.691,-1045.899,-23.865,354.309,
00:00:08:916,0.156,0.397,0.706,-969.361,-31.617,409.79,
00:00:08:933,0.262,0.315,0.938,-739.93,-93.567,153.869,
00:00:08:950,0.287,0.248,1.112,-574.769,-64.698,-80.262,
00:00:08:966,0.312,0.222,1.277,-546.204,-147.278,-220.887,
00:00:08:983,0.369,-0.03,1.198,-665.772,-117.127,-238.953,
00:00:09:0,0.374,0.362,0.958,-1043.457,-232.544,55.114,
00:00:09:16,0.194,0.532,0.823,-1027.1,-380.005,136.108,
00:00:09:33,0.062,0.673,0.802,-1331.299,-445.069,185.119,
00:00:09:50,0.095,0.518,1.02,-1037.232,-295.777,-59.388,
00:00:09:66,0.064,0.626,0.913,-637.94,-209.412,-81.849,
00:00:09:83,-0.005,0.625,0.871,-417.298,-140.686,-56.58,flipRH
00:00:09:100,0.004,0.52,0.874,-255.127,-76.355,-143.616,
00:00:09:116,0.026,0.526,0.845,-311.585,-49.195,-105.53,
00:00:09:133,0.031,0.551,0.862,-426.819,-45.838,-88.44,
00:00:09:150,0.024,0.62,0.874,-404.175,-32.532,-62.378,
00:00:09:166,0.007,0.65,0.897,-309.327,-41.016,-29.48,
00:00:09:183,0.013,0.611,0.946,-238.343,-60.914,-31.189,
00:00:09:200,0.011,0.593,0.944,-219.056,-87.525,-12.757,
00:00:09:216,0.01,0.584,0.934,-204.834,-103.821,-13.123,
00:00:09:233,0.003,0.584,0.935,-232.727,-127.442,8.667,
00:00:09:250,-0.003,0.563,0.938,-268.86,-146.668,2.319,
00:00:09:266,-0.042,0.577,0.906,-364.136,-168.641,5.493,
00:00:09:283,-0.049,0.61,0.923,-385.865,-166.199,4.272,
00:00:09:300,-0.049,0.662,0.932,-362.977,-170.105,12.817,
00:00:09:316,-0.058,0.671,0.931,-327.515,-170.594,2.685,
00:00:09:333,-0.059,0.734,0.869,-283.326,-169.861,44.128,
00:00:09:350,-0.058,0.816,0.856,-215.027,-177.674,94.421,
00:00:09:366,-0.053,0.821,0.906,-95.643,-201.111,109.069,
00:00:09:383,-0.06,0.783,0.867,134.216,-216.736,129.15,
00:00:09:400,-0.072,0.783,0.804,341.003,-226.99,176.025,
00:00:09:416,-0.066,0.778,0.743,504.516,-212.281,205.566,
00:00:09:433,-0.061,0.787,0.719,612.121,-190.125,243.408,
00:00:09:450,-0.047,0.751,0.773,729.98,-172.73,249.267,
00:00:09:466,-0.026,0.69,0.737,915.71,-172.852,255.737,
00:00:09:483,0,0.61,0.7,1137.146,-165.894,252.685,
00:00:09:500,0.013,0.53,0.622,1274.047,-130.066,223.755,
00:00:09:516,0.021,0.499,0.59,1483.398,-72.693,200.744,
00:00:09:533,0.019,0.483,0.642,1639.587,-63.355,198.791,
00:00:09:550,0.019,0.38,0.671,1793.701,-66.468,165.771,
00:00:09:566,0.011,0.271,0.721,1918.64,-61.28,170.593,
00:00:09:583,0.029,0.073,0.747,1950.683,-55.664,151.977,
00:00:09:600,0.024,-0.054,0.694,1939.88,-20.447,73.12,
00:00:09:616,0.031,-0.059,0.627,1754.333,-29.664,170.776,
00:00:09:633,0.031,-0.044,0.555,1596.313,-3.846,184.021,
00:00:09:650,0.026,-0.026,0.674,1558.715,23.254,198.303,
00:00:09:666,0.008,-0.054,0.701,1745.3,143.615,147.644,
00:00:09:683,0.036,-0.086,0.669,1777.649,189.941,260.864,
00:00:09:700,0.066,-0.232,0.699,1806.091,319.03,290.832,
00:00:09:716,0.073,-0.284,0.7,1721.374,410.888,314.758,
00:00:09:733,0.053,-0.507,0.795,1685.241,602.295,228.21,
00:00:09:750,-0.028,-0.501,0.748,1716.247,816.528,283.813,
00:00:09:766,-0.058,-0.551,0.777,1568.42,719.848,134.277,
00:00:09:783,-0.073,-0.902,0.854,1382.69,432.067,-235.169,
00:00:09:800,-0.085,-1.299,1.116,1229.492,215.698,-116.578,
00:00:09:816,-0.075,-1.183,0.877,1035.034,303.527,122.009,
00:00:09:833,-0.064,-0.963,0.357,932.983,179.382,-405.457,
00:00:09:850,0.182,-2.315,1.483,638.733,-494.69,-943.543,
00:00:09:866,-0.167,-1.537,0.617,888.061,229.98,22.888,
00:00:09:883,-0.045,-1.593,0.81,37.719,-225.281,-305.359,
00:00:09:900,-0.13,-1.387,0.891,-383.545,-165.406,-242.981,
00:00:09:916,-0.024,-1.242,0.799,126.77,-168.58,-372.864,
00:00:09:933,-0.077,-0.992,0.582,-62.012,-196.351,-311.951,
00:00:09:950,-0.092,-1.112,0.547,172.241,-239.136,-363.648,
00:00:09:966,-0.095,-1.094,0.512,18.554,-194.153,-386.292,
00:00:09:983,-0.067,-1.187,0.544,-69.581,-183.594,-505.799,
00:00:10:0,-0.07,-1.139,0.472,-216.309,-119.385,-404.725,
00:00:10:16,-0.077,-1.068,0.507,-489.319,-89.905,-381.531,
00:00:10:33,-0.088,-0.963,0.619,-649.231,-68.177,-423.89,
00:00:10:50,-0.076,-0.904,0.748,-731.69,-58.655,-439.27,
00:00:10:66,-0.088,-0.832,0.785,-762.207,-82.398,-467.896,
00:00:10:83,-0.106,-0.828,0.821,-886.17,-91.797,-484.559,
00:00:10:100,-0.118,-0.805,0.864,-892.212,-135.437,-518.25,
00:00:10:116,-0.151,-0.736,0.854,-865.845,-135.865,-526.368,
00:00:10:133,-0.209,-0.621,0.797,-860.169,-138.672,-497.864,
00:00:10:150,-0.263,-0.559,0.686,-892.09,-70.74,-488.343,
00:00:10:166,-0.287,-0.477,0.601,-830.567,-13.306,-455.445,
00:00:10:183,-0.261,-0.428,0.628,-727.845,38.024,-440.125,
00:00:10:200,-0.267,-0.449,0.502,-469.666,148.498,-343.14,
00:00:10:216,-0.266,-0.358,0.478,-424.683,181.579,-244.507,
00:00:10:233,-0.285,-0.358,0.534,-511.78,204.223,-264.222,
00:00:10:250,-0.328,-0.185,0.552,-423.706,312.5,-214.966,
00:00:10:266,-0.343,-0.182,0.633,-286.56,294.494,-186.219,
00:00:10:283,-0.302,-0.433,0.575,-68.116,403.32,-348.206,
00:00:10:300,-0.259,-0.516,0.402,-327.576,563.903,-2.198,
00:00:10:316,-0.272,-0.234,0.551,-717.896,648.315,99.365,
00:00:10:333,-0.198,-0.129,0.735,-668.03,673.156,81.787,
00:00:10:350,-0.14,-0.158,0.801,-433.716,566.528,-30.152,
00:00:10:366,-0.21,-0.327,0.936,-458.191,460.632,-166.26,
00:00:10:383,-0.195,-0.513,0.983,-593.567,522.155,-116.333,
00:00:10:400,-0.146,-0.349,1.044,-879.639,515.686,100.036,
00:00:10:416,-0.097,-0.156,1.157,-901.612,416.748,70.373,
00:00:10:433,-0.064,-0.149,1.201,-685.852,250.488,-28.138,
00:00:10:450,-0.123,-0.243,1.176,-645.508,126.526,-114.685,
00:00:10:466,-0.118,-0.304,1.136,-701.539,116.76,-101.868,
00:00:10:483,-0.105,-0.228,1.091,-760.743,91.857,-21.912,
00:00:10:500,-0.108,-0.128,1.035,-726.075,61.828,-3.968,
00:00:10:516,-0.097,-0.117,0.987,-639.222,17.517,-50.66,
00:00:10:533,-0.099,-0.116,0.955,-608.887,8.911,-19.349,
00:00:10:550,-0.112,-0.046,0.938,-578.797,34.606,62.866,
00:00:10:566,-0.101,0.017,0.964,-516.48,47.119,100.219,
00:00:10:583,-0.067,0.06,1.136,-456.482,-13.733,110.595,
00:00:10:600,-0.177,0.158,0.881,-239.136,130.554,276.489,
00:00:10:616,-0.022,0.145,0.955,54.443,75.744,156.555,
00:00:10:633,-0.058,0.016,0.873,143.798,-35.95,-143.25,
00:00:10:650,-0.139,-0.131,1.002,140.197,-63.05,-178.04,
00:00:10:666,-0.126,-0.228,1.061,6.103,43.09,-89.112,
00:00:10:683,-0.056,-0.167,1.161,-152.527,77.636,60.73,
00:00:10:700,0.009,-0.084,1.199,-196.839,62.744,20.324,
00:00:10:716,0.026,-0.053,1.151,-192.444,3.173,-15.748,
00:00:10:733,0.01,-0.011,1.11,-184.571,-24.17,-14.832,
00:00:10:750,-0.011,0.035,1.048,-157.959,-40.955,3.479,
00:00:10:766,-0.029,0.059,0.953,-96.558,-48.34,-31.617,
00:00:10:783,-0.072,0.041,0.863,-16.053,-57.862,-58.106,
00:00:10:800,-0.171,-0.039,0.74,-31.128,-99.122,-172.242,
00:00:10:816,-0.278,0.01,0.936,-101.99,-82.093,-68.482,
00:00:10:833,-0.23,0.015,0.827,-107.178,118.347,-62.439,
00:00:10:850,-0.198,0.119,0.888,-156.128,110.351,88.806,
00:00:10:866,-0.194,0.188,0.941,-90.638,172.851,64.575,
00:00:10:883,-0.146,0.186,0.918,102.844,175.72,89.904,
00:00:10:900,-0.117,0.162,0.98,221.191,140.93,64.697,
00:00:10:916,-0.08,0.093,1.041,359.069,112.671,50.964,
00:00:10:933,-0.036,-0.044,1.144,386.474,71.167,14.526,
00:00:10:950,-0.044,-0.193,1.165,280.395,43.151,-5.127,
00:00:10:966,-0.072,-0.258,1.146,88.684,73.669,57.067,
00:00:10:983,-0.07,-0.182,1.098,-88.868,107.91,132.263,
00:00:11:0,-0.048,-0.087,1.006,-134.034,112.304,117.431,
00:00:11:16,-0.088,-0.011,1.016,-142.456,77.331,76.416,
00:00:11:33,-0.081,0.051,1.084,-59.571,110.534,88.989,
00:00:11:50,-0.023,0.101,1.069,35.156,129.333,140.808,
00:00:11:66,0.023,0.14,1.076,146.423,115.539,152.282,
00:00:11:83,0.063,0.114,1.053,318.054,91.369,118.286,
00:00:11:100,0.093,-0.053,0.967,411.987,54.321,1.037,
00:00:11:116,0.088,-0.237,0.992,337.158,-18.799,-41.565,
00:00:11:133,0.058,-0.329,0.959,135.498,9.033,-24.72,
00:00:11:150,0.022,-0.225,0.913,-72.693,72.937,87.768,
00:00:11:166,0.026,-0.069,0.8,-128.174,113.281,108.947,
00:00:11:183,0.028,0.034,0.799,-34.668,87.524,67.993,
00:00:11:200,0.011,0.039,0.826,126.098,62.194,-12.269,
00:00:11:216,0.009,-0.058,0.916,202.758,48.95,-57.435,
00:00:11:233,0.039,-0.146,0.942,206.604,97.9,-66.346,
00:00:11:250,-0.017,-0.119,0.885,92.712,118.53,36.865,
00:00:11:266,0.088,-0.098,0.952,146.789,214.782,38.086,
00:00:11:283,0.088,-0.17,0.93,93.933,48.4,-46.814,
00:00:11:300,0.026,-0.225,1.022,12.451,43.579,-116.7,
00:00:11:316,0.008,-0.253,1.005,-137.085,34.301,-56.275,
00:00:11:333,0.007,-0.164,1.056,-237.488,49.621,-26.978,
00:00:11:350,0.026,-0.109,1.069,-302.918,-10.865,-25.208,
00:00:11:366,0.012,-0.072,1.139,-314.209,-59.266,-43.946,
00:00:11:383,-0.02,-0.074,1.148,-307.862,-88.013,-40.589,
00:00:11:400,-0.058,-0.045,1.141,-314.759,-99.854,-6.714,
00:00:11:416,0.005,-0.043,1.207,-329.041,-152.894,16.113,
00:00:11:433,-0.246,0.198,1.012,-190.308,23.315,177.856,
00:00:11:450,0.049,0.044,0.845,107.971,125.915,-0.306,
00:00:11:466,-0.014,-0.09,0.953,34.24,-217.652,-78.675,
00:00:11:483,-0.182,-0.089,1.112,16.174,-24.109,-55.115,
00:00:11:500,-0.046,-0.163,1.026,18.92,105.346,64.88,
00:00:11:516,-0.014,-0.104,1.087,-59.693,32.47,26.489,
00:00:11:533,-0.017,-0.154,1.084,-69.764,29.174,-7.447,
00:00:11:550,-0.015,-0.118,1.068,-131.104,19.165,9.094,
00:00:11:566,0.011,-0.038,1.078,-143.311,45.227,67.382,
00:00:11:583,0.037,0.033,1.04,-91.858,27.221,72.815,
00:00:11:600,0.045,0.011,0.998,-23.194,-31.556,1.403,
00:00:11:616,-0.002,-0.029,0.991,6.103,-80.567,-28.87,
00:00:11:633,-0.034,-0.07,0.978,16.052,-46.448,-31.25,
00:00:11:650,-0.03,-0.085,0.934,11.352,-9.339,-20.142,
00:00:11:666,-0.018,-0.099,0.952,4.577,-6.531,-33.509,
00:00:11:683,-0.012,-0.114,0.972,-29.419,-4.334,-48.096,
00:00:11:700,-0.031,-0.071,0.994,-79.224,15.991,-39.063,
00:00:11:716,0.01,-0.046,0.962,-93.934,67.504,-13.794,
00:00:11:733,-0.007,-0.052,0.879,-154.664,-29.908,-94.239,
00:00:11:750,-0.09,0.058,1.108,-131.47,15.93,-39.612,
00:00:11:766,-0.005,-0.033,0.896,-109.375,75.622,-72.998,
00:00:11:783,-0.083,0.091,1.013,-91.98,3.662,-6.775,
00:00:11:800,-0.051,0.055,0.911,17.761,90.759,-47.425,
00:00:11:816,-0.066,0.01,0.895,33.996,15.197,-53.528,
00:00:11:833,-0.111,-0.027,0.92,27.038,57.067,-52.43,
00:00:11:850,-0.085,-0.044,0.887,-7.142,88.134,-27.466,
00:00:11:866,-0.087,-0.027,0.924,-46.57,74.523,-31.983,
00:00:11:883,-0.048,-0.052,0.978,-68.787,91.735,-47.73,
00:00:11:900,-0.039,-0.042,1.029,-115.357,77.331,-5.188,
00:00:11:916,-0.003,-0.033,1.087,-140.076,78.064,-16.663,
00:00:11:933,-0.023,-0.021,1.101,-152.283,51.696,6.225,
00:00:11:950,-0.037,0.01,1.081,-127.747,75.317,15.38,
00:00:11:966,-0.047,0.026,1.013,-87.464,65.856,15.075,
00:00:11:983,-0.118,0.058,0.994,-48.035,53.1,-1.038,
00:00:12:0,-0.199,0.072,0.935,8.117,103.82,-5.555,
00:00:12:16,-0.26,0.072,0.882,44.86,168.884,6.408,
00:00:12:33,-0.272,0.111,0.904,71.594,240.905,83.984,
00:00:12:50,-0.245,0.151,0.891,111.694,309.082,143.859,
00:00:12:66,-0.081,0.139,1.014,200.439,333.374,234.68,
00:00:12:83,-0.037,0.114,0.97,269.226,266.052,150.146,
00:00:12:100,-0.052,0.015,1.064,244.69,135.925,127.563,
00:00:12:116,-0.097,-0.091,1.038,229.797,168.64,171.875,
00:00:12:133,-0.119,-0.127,0.91,156.738,188.537,245.239,
00:00:12:150,-0.088,-0.048,0.86,37.597,218.567,355.163,
00:00:12:166,0.089,-0.013,0.899,84.045,263.855,394.165,
00:00:12:183,0.166,-0.08,0.786,132.873,257.69,285.705,
00:00:12:200,0.166,-0.123,0.888,39.917,174.743,273.681,
00:00:12:216,0.157,-0.124,1.03,-16.907,202.758,270.324,
00:00:12:233,0.377,-0.204,1.089,-104.676,176.941,286.316,
00:00:12:250,0.076,0.111,1.521,-94.666,33.264,305.603,
00:00:12:266,0.773,-0.189,2.23,-579.163,-108.399,363.403,
00:00:12:283,0.77,-0.157,0.871,910.644,106.323,27.648,
00:00:12:300,0.384,-0.24,0.188,-61.341,-304.383,151.306,
00:00:12:316,0.068,0.233,0.576,-338.99,-257.081,176.025,
00:00:12:333,0.431,0.006,1.353,71.106,-119.141,-79.773,
00:00:12:350,0.306,-0.13,0.754,423.584,52.978,-242.127,
00:00:12:366,0.269,-0.279,0.872,55.236,-174.622,-249.634,
00:00:12:383,0.133,-0.391,1.092,-297.852,-59.388,-369.751,
00:00:12:400,0.059,-0.254,1.008,-518.555,0.427,-180.664,
00:00:12:416,0.089,-0.137,1.064,-555.176,41.076,-74.158,
00:00:12:433,0.102,0.02,1.098,-582.276,13,-70.984,
00:00:12:450,0.038,0.146,1.11,-559.693,-13.55,-132.691,
00:00:12:466,-0.031,0.209,1.168,-529.908,-48.401,-212.464,
00:00:12:483,-0.074,0.214,1.213,-488.831,-52.43,-194.397,
00:00:12:500,-0.09,0.222,1.241,-380.494,-65.979,-165.162,
00:00:12:516,-0.1,0.262,1.161,-301.758,-86.304,-106.812,
00:00:12:533,-0.1,0.287,1.09,-206.727,-70.74,-53.284,
00:00:12:550,-0.073,0.327,0.992,-91.126,-50.721,45.593,
00:00:12:566,-0.09,0.353,0.831,28.381,-5.921,53.1,
00:00:12:583,-0.133,0.342,0.725,171.081,53.894,46.02,
00:00:12:600,-0.135,0.27,0.682,308.227,140.93,31.494,
00:00:12:616,-0.116,0.16,0.628,374.817,222.473,11.84,
00:00:12:633,-0.084,0.066,0.674,299.072,252.807,61.096,
00:00:12:650,-0.049,0.077,0.689,298.034,363.342,209.167,
00:00:12:666,0.032,0.154,0.579,405.883,478.82,310.791,
00:00:12:683,0.198,0.131,0.667,436.279,410.4,255.493,
00:00:12:700,0.407,-0.121,1.051,568.786,276.123,121.399,
00:00:12:716,0.38,-0.252,1.04,522.461,242.859,1.037,
00:00:12:733,0.455,-0.464,0.907,353.149,208.74,-17.762,
00:00:12:750,0.611,-0.562,1.085,-1.709,46.997,-21.363,
00:00:12:766,0.522,-0.382,1.072,-276.795,-69.764,14.831,
00:00:12:783,0.456,-0.284,0.95,-368.897,-72.51,-105.713,
00:00:12:800,0.455,-0.223,0.809,-453.553,-74.524,-140.442,
00:00:12:816,0.402,-0.061,0.696,-610.413,-67.017,-50.843,
00:00:12:833,0.278,0.153,0.679,-749.634,-52.185,-37.659,
00:00:12:850,0.165,0.315,0.731,-755.31,-13.489,-115.174,
00:00:12:866,0.035,0.308,0.748,-670.227,40.222,-223.938,
00:00:12:883,0.018,0.241,0.872,-632.019,78.674,-312.073,
00:00:12:900,-0.087,0.344,0.8,-906.067,68.908,-129.883,
00:00:12:916,-0.069,0.547,1.177,-1222.901,-51.331,53.711,
00:00:12:933,0.202,0.115,1.338,-1152.1,7.263,-7.996,
00:00:12:950,0.13,0.79,1.168,-1291.626,-237.61,526.672,
00:00:12:966,0.121,0.401,1.326,-1278.138,-272.828,168.884,
00:00:12:983,0.127,0.53,1.135,-542.908,-234.62,51.696,
00:00:13:0,0.028,0.514,1.055,-397.889,-194.886,206.482,
00:00:13:16,-0.001,0.547,0.94,-123.414,-148.743,77.636,
00:00:13:33,0.051,0.273,1.011,114.074,-104.126,13,
00:00:13:50,0.057,0.257,0.802,229.553,-52.796,-21.973,
00:00:13:66,0.075,0.205,0.87,0.976,-40.833,-10.132,
00:00:13:83,0.09,0.282,0.976,-266.846,-38.086,-19.532,flipRH
00:00:13:100,0.145,0.353,1.057,-392.395,-55.909,-41.016,
00:00:13:116,0.195,0.427,1.104,-446.656,-99.366,-25.818,
00:00:13:133,0.173,0.479,1.052,-394.043,-150.94,-58.045,
00:00:13:150,0.121,0.493,0.998,-286.805,-171.204,-78.98,
00:00:13:166,0.072,0.507,0.951,-299.5,-188.416,-65.186,
00:00:13:183,0.062,0.522,0.95,-303.345,-194.397,-78.919,
00:00:13:200,0.053,0.559,0.982,-312.195,-213.501,-57.984,
00:00:13:216,0.023,0.561,1.045,-234.131,-225.769,-96.192,
00:00:13:233,-0.013,0.511,1.07,-213.135,-247.925,-116.15,
00:00:13:250,-0.039,0.489,0.999,-214.173,-258.912,-112.366,
00:00:13:266,-0.022,0.549,0.931,-212.159,-267.212,-65.43,
00:00:13:283,-0.009,0.594,0.907,-161.133,-275.94,-79.651,
00:00:13:300,-0.056,0.593,0.887,-53.589,-278.687,-114.258,
00:00:13:316,-0.103,0.553,0.865,-1.954,-261.292,-118.653,
00:00:13:333,-0.107,0.571,0.813,-15.259,-242.554,-79.773,
00:00:13:350,-0.099,0.667,0.847,-37.11,-245.301,-28.87,
00:00:13:366,-0.121,0.77,0.845,39.917,-267.09,4.516,
00:00:13:383,-0.119,0.706,0.832,82.58,-269.898,28.564,
00:00:13:400,-0.104,0.67,0.772,278.015,-285.523,114.38,
00:00:13:416,-0.129,0.698,0.779,516.967,-281.739,304.077,
00:00:13:433,-0.112,0.62,0.821,820.861,-257.508,180.908,
00:00:13:450,-0.093,0.535,0.849,1242.553,-261.231,98.755,
00:00:13:466,-0.073,0.41,0.757,1442.138,-235.962,99.182,
00:00:13:483,-0.047,0.311,0.723,1400.39,-198.121,92.773,
00:00:13:500,-0.046,0.257,0.616,1338.44,-138.977,102.844,
00:00:13:516,-0.045,0.233,0.551,1407.47,-99.671,102.722,
00:00:13:533,-0.066,0.28,0.57,1388.794,-40.589,127.136,
00:00:13:550,-0.07,0.26,0.624,1394.592,38.208,46.814,
00:00:13:566,-0.055,0.167,0.646,1464.843,121.582,72.204,
00:00:13:583,-0.001,0.108,0.615,1803.1,205.322,154.052,
00:00:13:600,0.045,0.094,0.679,1957.336,241.15,186.828,
00:00:13:616,0.091,-0.047,0.792,1978.698,246.521,140.625,
00:00:13:633,0.113,-0.154,0.766,1950.866,308.532,214.904,
00:00:13:650,0.115,-0.215,0.762,1799.438,277.16,260.254,
00:00:13:666,0.093,-0.245,0.607,1483.093,335.754,270.507,
00:00:13:683,0.123,-0.402,0.693,1296.508,311.157,307.495,
00:00:13:700,0.104,-0.432,0.697,1213.623,349.914,341.613,
00:00:13:716,0.061,-0.434,0.745,1172.851,382.568,363.525,
00:00:13:733,0.006,-0.558,0.81,1176.208,411.071,330.871,
00:00:13:750,-0.016,-0.853,0.976,1148.376,451.965,329.528,
00:00:13:766,-0.004,-1.047,0.911,1016.906,449.89,435.18,
00:00:13:783,-0.011,-1.1,0.803,827.453,348.51,398.986,
00:00:13:800,-0.045,-1.315,0.976,768.798,223.449,217.468,
00:00:13:816,0.08,-1.215,0.834,624.084,211.975,-13.306,
00:00:13:833,-0.101,-1.871,1.42,1022.033,-39.002,-426.697,
00:00:13:850,-0.081,-1.189,0.557,348.571,-122.254,-379.212,
00:00:13:866,-0.112,-1.823,1.084,-330.872,-171.021,-635.987,
00:00:13:883,0.022,-1.43,0.846,-212.769,-162.354,-310.852,
00:00:13:900,-0.022,-0.885,0.579,-469.605,-160.645,-436.829,
00:00:13:916,0.071,-1.03,0.879,37.109,-307.862,-430.481,
00:00:13:933,0.006,-0.929,0.753,540.649,-266.785,-438.782,
00:00:13:950,0.018,-1.178,0.852,552.063,-349.61,-463.196,
00:00:13:966,-0.093,-1.173,0.694,315.246,-325.135,-537.598,
00:00:13:983,-0.148,-1.161,0.682,-339.966,-328.003,-546.509,
00:00:14:0,-0.134,-1.114,0.734,-674.744,-297.974,-513.489,
00:00:14:16,-0.105,-1.021,0.849,-819.764,-294.434,-549.5,
00:00:14:33,-0.124,-1.024,0.646,-797.852,-203.736,-539.246,
00:00:14:50,-0.15,-0.844,0.501,-924.073,-171.753,-498.719,
00:00:14:66,-0.208,-0.638,0.532,-1052.002,-139.588,-435.242,
00:00:14:83,-0.241,-0.489,0.675,-890.931,-181.397,-448.731,
00:00:14:100,-0.262,-0.345,0.686,-598.084,-149.842,-457.093,
00:00:14:116,-0.301,-0.349,0.671,-377.93,-81.788,-374.878,
00:00:14:133,-0.326,-0.405,0.617,-67.383,-19.959,-341.37,
00:00:14:150,-0.326,-0.444,0.565,14.77,65.734,-277.649,
00:00:14:166,-0.349,-0.469,0.463,-0.855,154.907,-193.238,
00:00:14:183,-0.341,-0.42,0.468,-129.883,229.614,-149.842,
00:00:14:200,-0.306,-0.4,0.368,-126.831,369.934,-122.376,
00:00:14:216,-0.273,-0.243,0.247,-103.577,469.665,-29.358,
00:00:14:233,-0.249,-0.15,0.275,-73.731,469.36,21.118,
00:00:14:250,-0.209,-0.238,0.332,200.439,493.591,-36.438,
00:00:14:266,-0.17,-0.277,0.347,310.119,566.955,28.381,
00:00:14:283,-0.133,-0.364,0.418,303.955,579.101,69.702,
00:00:14:300,-0.11,-0.48,0.562,234.802,584.289,88.501,
00:00:14:316,-0.105,-0.521,0.689,174.865,548.034,96.618,
00:00:14:333,-0.093,-0.599,0.812,44.799,483.459,65.002,
00:00:14:350,-0.044,-0.656,0.951,-70.069,390.442,27.16,
00:00:14:366,-0.037,-0.684,0.965,-190.613,338.928,-8.667,
00:00:14:383,-0.03,-0.64,0.961,-338.379,286.193,-22.217,
00:00:14:400,-0.013,-0.579,0.985,-399.964,257.934,13.61,
00:00:14:416,0.011,-0.527,1.047,-321.595,194.519,23.315,
00:00:14:433,0.004,-0.578,1.05,-224.915,167.48,10.253,
00:00:14:450,0.025,-0.612,1.011,-202.271,136.779,32.531,
00:00:14:466,0.079,-0.672,1.055,-268.128,100.219,40.832,
00:00:14:483,0.1,-0.668,1.069,-295.044,46.081,17.639,
00:00:14:500,0.069,-0.677,1.067,-314.698,-10.01,1.281,
00:00:14:516,0.031,-0.645,1.027,-321.045,-54.81,-26.062,
00:00:14:533,0.028,-0.611,0.993,-330.14,-101.441,-45.594,
00:00:14:550,0.005,-0.521,0.944,-343.201,-124.268,-40.894,
00:00:14:566,-0.018,-0.453,0.92,-299.927,-129.151,-27.344,
00:00:14:583,-0.052,-0.432,0.932,-233.033,-116.639,-8.728,
00:00:14:600,-0.086,-0.451,0.886,-148.316,-73.548,11.84,
00:00:14:616,-0.071,-0.49,0.862,-110.108,-39.124,33.081,
00:00:14:633,-0.06,-0.497,0.826,-107.361,-24.964,36.743,
00:00:14:650,-0.066,-0.451,0.8,-95.276,-21.363,41.626,
00:00:14:666,-0.086,-0.468,0.813,-70.801,-4.883,32.165,
00:00:14:683,-0.108,-0.448,0.789,-47.852,22.705,77.087,
00:00:14:700,-0.08,-0.453,0.824,-59.571,44.067,72.021,
00:00:14:716,-0.023,-0.459,0.848,-26.307,29.052,56.762,
00:00:14:733,-0.037,-0.487,0.848,8.239,-7.264,32.714,
00:00:14:750,-0.081,-0.506,0.89,27.16,-33.997,9.155,
00:00:14:766,-0.11,-0.542,0.911,23.071,-30.579,3.601,
00:00:14:783,-0.123,-0.551,0.912,-25.635,-13.123,9.765,
00:00:14:800,-0.135,-0.545,0.903,-123.78,3.784,13.61,
00:00:14:816,-0.115,-0.525,0.895,-194.519,31.738,12.023,
00:00:14:833,-0.089,-0.49,0.87,-221.314,26.794,11.962,
00:00:14:850,-0.114,-0.409,0.835,-190.796,32.47,28.808,
00:00:14:866,-0.136,-0.34,0.85,-100.281,45.715,56.518,
00:00:14:883,-0.135,-0.312,0.891,18.737,54.26,92.651,
00:00:14:900,-0.126,-0.333,0.938,201.965,76.66,136.535,
00:00:14:916,-0.135,-0.352,0.958,302.429,84.228,188.354,
00:00:14:933,-0.136,-0.42,1.022,365.173,81.054,197.998,
00:00:14:950,-0.129,-0.507,1.006,363.586,68.054,214.416,
00:00:14:966,-0.115,-0.57,1.03,336.181,8.911,231.079,
00:00:14:983,-0.251,-0.421,1.076,189.514,12.39,368.713,
00:00:15:0,-0.232,-0.482,1.119,351.684,7.507,301.086,
00:00:15:16,-0.185,-0.505,0.959,387.939,-6.409,355.407,
00:00:15:33,-0.201,-0.522,0.952,315.002,-40.589,414.184,
00:00:15:50,-0.219,-0.53,0.886,319.397,-10.926,423.584,
00:00:15:66,-0.191,-0.569,0.83,275.695,12.634,459.594,
00:00:15:83,-0.156,-0.582,0.786,184.509,45.044,483.642,
00:00:15:100,-0.12,-0.628,0.741,109.375,100.647,475.341,
00:00:15:116,-0.041,-0.78,0.678,1.709,147.338,437.133,
00:00:15:133,0.008,-0.841,0.631,-254.273,188.537,382.751,
00:00:15:150,0.084,-0.845,0.616,-508.606,251.648,341.735,
00:00:15:166,0.133,-0.697,0.747,-626.526,302.917,285.4,
00:00:15:183,0.42,-0.945,0.61,-418.152,307.495,-28.26,
00:00:15:200,0.561,-1.106,0.538,-722.718,232.177,-180.481,
00:00:15:216,0.456,-0.856,0.502,-938.172,290.039,-41.504,
00:00:15:233,0.467,-0.688,0.475,-1031.983,275.329,-222.474,
00:00:15:250,0.449,-0.634,0.394,-1220.337,269.348,-302.979,
00:00:15:266,0.356,-0.542,0.241,-1455.628,311.34,-286.56,
00:00:15:283,0.287,-0.345,0.151,-1779.175,417.907,-173.829,
00:00:15:300,0.266,-0.021,0.14,-1983.216,555.481,59.753,
00:00:15:316,0.29,0.085,0.198,-1996.46,638.488,355.651,
00:00:15:333,0.387,0.377,0.202,-1869.263,640.075,643.066,
00:00:15:350,0.438,0.516,0.43,-1801.758,315.002,653.198,
00:00:15:366,0.469,0.595,0.549,-1727.295,-57.007,402.771,
00:00:15:383,0.612,0.475,0.897,-1600.525,-550.354,31.982,
00:00:15:400,0.333,0.46,1.238,-1920.716,-226.929,-200.074,
00:00:15:416,0.223,0.596,0.91,-1919.434,-195.435,-65.491,
00:00:15:433,0.244,0.83,0.844,-1928.101,-255.31,202.697,
00:00:15:450,0.212,1.01,0.873,-1535.157,-215.76,149.536,
00:00:15:466,0.104,0.974,0.942,-940.064,-156.678,104.126,
00:00:15:483,0.114,0.863,1.416,-418.03,-239.136,173.462,
00:00:15:500,0.222,0.644,0.943,-121.582,-258.362,188.781,
00:00:15:516,0.146,0.575,0.835,-474.854,-352.539,215.332,
00:00:15:533,0.003,0.898,0.877,-320.435,-290.101,241.394,
00:00:15:550,-0.007,0.884,0.97,206.054,-219.3,244.751,
00:00:15:566,0.061,0.686,1.013,518.676,-208.924,214.355,
00:00:15:583,0.079,0.423,1.001,387.146,-193.116,126.587,
00:00:15:600,0.069,0.392,1.022,82.275,-215.394,126.098,
00:00:15:616,0.04,0.51,1.006,-103.028,-216.675,127.99,
00:00:15:633,0.025,0.595,1.009,-50.415,-182.129,96.435,
00:00:15:650,-0.002,0.586,1.076,-28.138,-178.162,55.603,
00:00:15:666,-0.039,0.562,0.98,-488.953,-249.756,16.967,
00:00:15:683,-0.051,0.637,0.912,-430.97,-227.967,-3.052,
00:00:15:700,-0.043,0.684,0.912,-263.062,-192.994,23.742,
00:00:15:716,-0.079,0.719,0.938,-216.98,-177.552,15.319,
00:00:15:733,-0.1,0.646,0.962,-230.53,-176.636,-7.996,
00:00:15:750,-0.105,0.614,0.924,-306.519,-188.05,-5.616,
00:00:15:766,-0.098,0.7,0.888,-342.957,-182.984,20.202,
00:00:15:783,-0.11,0.791,0.865,-239.075,-176.758,39.978,
00:00:15:800,-0.115,0.781,0.834,-64.148,-158.02,61.34,
00:00:15:816,-0.116,0.729,0.815,62.439,-144.104,96.191,
00:00:15:833,-0.149,0.737,0.795,98.327,-145.935,101.074,
00:00:15:850,-0.083,0.66,0.804,359.314,-155.945,137.573,
00:00:15:866,-0.093,0.672,0.739,425.598,-159.546,175.171,
00:00:15:883,-0.089,0.697,0.699,556.945,-145.508,217.285,
00:00:15:900,-0.067,0.702,0.666,771.484,-135.254,225.952,
00:00:15:916,-0.04,0.655,0.6,996.093,-117.859,248.657,
00:00:15:933,-0.039,0.657,0.548,1255.493,-62.439,278.564,
00:00:15:950,-0.043,0.671,0.495,1538.696,9.155,291.076,
00:00:15:966,-0.006,0.516,0.529,1859.741,45.105,236.389,
00:00:15:983,-0.003,0.344,0.526,1992.675,88.44,221.374,
00:00:16:0,-0.024,0.242,0.474,1999.694,127.685,212.341,
00:00:16:16,-0.039,0.159,0.393,1999.694,181.03,173.828,
00:00:16:33,0.059,-0.154,0.416,1999.694,345.581,214.294,
00:00:16:50,0.073,-0.245,0.473,1999.694,365.417,297.546,
00:00:16:66,0.109,-0.361,0.573,1999.694,411.316,360.351,
00:00:16:83,0.137,-0.479,0.669,1999.694,444.213,411.316,flipRH
00:00:16:100,0.104,-0.617,0.625,1574.89,662.17,-2.869,
00:00:16:116,0.101,-0.679,0.713,1294.006,541.198,-169.007,
00:00:16:133,0.058,-0.983,0.68,1122.619,277.099,-253.113,
00:00:16:150,0.056,-1.092,0.724,1035.278,351.684,-34.79,
00:00:16:166,0.041,-1.11,0.497,827.087,292.419,-252.32,
00:00:16:183,-0.041,-1.753,0.548,-415.467,238.159,43.64,
00:00:16:200,-0.086,-1.445,0.518,-877.32,239.99,-99.549,
00:00:16:216,0.182,-1.644,1.342,-444.092,39.184,-256.958,
00:00:16:233,-0.035,-1.563,0.752,-424.012,30.334,-260.56,
00:00:16:250,-0.042,-1.589,0.842,-598.389,27.343,-502.808,
00:00:16:266,0.046,-1.312,0.911,-720.581,-62.989,-490.662,
00:00:16:283,-0.003,-1.106,0.708,-838.318,-110.413,-534.852,
00:00:16:300,-0.099,-0.898,0.729,-604.187,-183.655,-524.659,
00:00:16:316,-0.113,-0.844,0.74,-366.211,-191.834,-562.989,
00:00:16:333,-0.128,-0.78,0.775,-105.164,-210.083,-574.097,
00:00:16:350,-0.176,-0.771,0.746,19.836,-213.501,-573.121,
00:00:16:366,-0.283,-0.819,0.576,-96.436,-136.78,-492.005,
00:00:16:383,-0.305,-0.742,0.486,-159.485,-32.654,-497.559,
00:00:16:400,-0.24,-0.586,0.501,-80.506,10.498,-459.229,
00:00:16:416,-0.211,-0.467,0.614,-33.265,2.014,-424.012,
00:00:16:433,-0.245,-0.448,0.713,38.147,-9.339,-414.917,
00:00:16:450,-0.31,-0.599,0.632,-13.55,121.948,-360.657,
00:00:16:466,-0.318,-0.7,0.443,-255.86,233.703,-250.55,
00:00:16:483,-0.245,-0.662,0.381,-703.919,348.755,-128.113,
00:00:16:500,-0.21,-0.389,0.389,-856.69,436.34,-40.894,
00:00:16:516,-0.258,-0.023,0.416,-828.919,467.895,101.257,
00:00:16:533,-0.053,-0.347,0.891,-533.204,321.289,-18.25,
00:00:16:550,0.02,-0.426,1.164,-845.337,129.821,-32.959,
00:00:16:566,-0.002,-0.512,1.123,-779.908,117.37,-91.98,
00:00:16:583,0.038,-0.507,0.992,-813.721,82.702,-9.339,
00:00:16:600,0.069,-0.415,0.986,-888.001,34.057,15.014,
00:00:16:616,0.096,-0.344,1.032,-849.793,-52.124,-13.672,
00:00:16:633,0.053,-0.325,1.038,-794.739,-123.78,-43.58,
00:00:16:650,-0.009,-0.348,1.053,-777.527,-176.636,-87.159,
00:00:16:667,-0.032,-0.333,1.078,-798.89,-189.698,-70.13,
00:00:16:683,-0.103,-0.215,0.823,-730.408,-92.225,-14.71,
00:00:16:700,-0.24,0.275,0.765,-476.99,-75.806,418.579,
00:00:16:717,0.056,-0.078,1.436,139.831,-216.858,151.794,
00:00:16:733,0.092,-0.338,0.81,952.942,-98.084,-476.136,
00:00:16:750,-0.119,-0.574,0.988,440.918,-280.518,-81.177,
00:00:16:767,-0.203,-0.715,0.929,169.25,-114.869,-238.526,
00:00:16:783,-0.182,-0.473,0.994,-480.042,-58.472,47.424,
00:00:16:800,-0.123,-0.261,0.994,-488.831,-53.65,-38.453,
00:00:16:817,-0.141,-0.17,0.934,-491.456,-72.144,-20.63,
00:00:16:833,-0.145,-0.147,0.859,-307.801,-72.632,-84.534,
00:00:16:850,-0.185,-0.127,0.77,-216.37,-41.321,-47.73,
00:00:16:867,-0.227,-0.094,0.752,-169.739,11.962,-9.278,
00:00:16:883,-0.229,-0.067,0.807,-86.426,75.195,23.376,
00:00:16:900,-0.234,-0.125,0.879,-19.471,124.817,19.958,
00:00:16:917,-0.229,-0.183,0.894,-6.226,154.052,37.536,
00:00:16:933,-0.225,-0.211,0.937,-46.387,175.964,66.65,
00:00:16:950,-0.201,-0.217,0.962,-27.222,214.477,98.144,
00:00:16:967,-0.166,-0.181,0.992,-15.992,232.544,155.456,
00:00:16:983,-0.119,-0.206,1.041,2.136,220.092,121.643,
00:00:17:0,-0.156,-0.189,1.01,-94.239,208.252,164.856,
00:00:17:17,-0.112,-0.198,1.008,-75.318,226.257,153.686,
00:00:17:33,-0.067,-0.193,1.04,-58.411,197.631,174.072,
00:00:17:50,-0.08,-0.223,1.002,-52.918,192.932,153.015,
00:00:17:67,-0.053,-0.235,0.979,-10.315,185.424,152.771,
00:00:17:83,-0.09,-0.197,0.987,-30.396,175.964,187.317,
00:00:17:100,-0.141,-0.189,0.959,-27.222,164.55,139.892,
00:00:17:117,-0.121,-0.247,0.926,-103.699,201.233,135.803,
00:00:17:133,-0.061,-0.2,0.892,-173.157,208.191,167.175,
00:00:17:150,-0.031,-0.163,0.85,-175.538,208.313,151.611,
00:00:17:167,-0.006,-0.172,0.874,-143.189,193.115,146.911,
00:00:17:183,-0.009,-0.179,0.84,-116.7,187.439,124.267,
00:00:17:200,0.055,-0.214,0.936,-131.165,162.841,104.858,
00:00:17:217,0.044,-0.248,0.759,-75.989,216.98,46.02,
00:00:17:233,0.037,-0.099,0.843,-239.319,178.344,201.11,
00:00:17:250,0.076,-0.154,0.933,-138.367,232.666,39.917,
00:00:17:267,0.192,-0.079,1.589,-298.584,14.709,65.856,
00:00:17:283,0.693,-0.438,1.786,-459.229,67.321,63.964,
00:00:17:300,0.56,-0.463,1.024,1228.088,-232.85,-637.696,
00:00:17:317,0.085,-0.5,0.699,-344.3,-199.402,59.448,
00:00:17:333,-0.056,-0.335,0.688,-226.502,-45.838,-7.752,
00:00:17:350,0.156,-0.103,0.82,-707.886,53.1,-87.952,
00:00:17:367,0.344,-0.122,0.972,-403.382,17.7,-142.334,
00:00:17:383,0.247,-0.064,1.041,-207.764,-55.848,-92.286,
00:00:17:400,0.052,-0.144,1.113,-74.28,-36.988,-254.273,
00:00:17:417,-0.027,-0.177,1.14,-140.564,5.92,-218.75,
00:00:17:433,0.001,-0.15,1.054,-221.07,33.691,-186.158,
00:00:17:450,0.022,0.058,1.113,-384.888,-20.203,-100.464,
00:00:17:467,-0.04,0.189,1.123,-523.926,-34.485,-98.694,
00:00:17:483,-0.075,0.21,1.307,-446.167,-96.741,-117.615,
00:00:17:500,-0.103,0.208,1.364,-198.06,-137.146,-6.775,
00:00:17:517,-0.117,0.18,1.312,105.896,-149.231,66.406,
00:00:17:533,-0.128,0.115,1.132,201.843,-149.414,5.004,
00:00:17:550,-0.078,0.006,1.061,63.598,-143.433,65.063,
00:00:17:567,-0.074,0.085,1.012,92.102,-168.885,141.418,
00:00:17:583,-0.145,0.035,0.954,170.837,-123.536,143.249,
00:00:17:600,-0.144,-0.007,0.838,277.16,-20.142,103.515,
00:00:17:617,-0.127,-0.084,0.763,275.207,72.143,83.923,
00:00:17:633,-0.037,-0.064,0.649,139.221,282.409,184.875,
00:00:17:650,0.016,-0.056,0.675,135.559,352.783,235.107,
00:00:17:667,0.04,-0.05,0.636,169.128,407.104,196.167,
00:00:17:683,0.117,-0.057,0.729,137.756,324.401,139.404,
00:00:17:700,0.269,-0.3,0.931,224.182,304.443,-82.398,
00:00:17:717,0.272,-0.55,0.969,165.527,219.604,-229.31,
00:00:17:733,0.201,-0.45,0.935,-444.458,177.307,58.898,
00:00:17:750,0.31,-0.195,0.96,-764.466,158.813,182.8,
00:00:17:767,0.386,-0.053,1.018,-561.341,39.245,51.025,
00:00:17:783,0.322,-0.054,1.01,-281.25,-51.514,-68.543,
00:00:17:800,0.28,-0.178,0.993,-59.754,-59.693,-217.53,
00:00:17:817,0.279,-0.302,0.913,-75.623,-47.425,-257.508,
00:00:17:833,0.25,-0.272,0.805,-347.535,-20.386,-223.572,
00:00:17:850,0.212,-0.108,0.793,-687.561,-7.508,-159.668,
00:00:17:867,0.144,0.102,0.782,-796.814,29.541,-125,
00:00:17:883,0.093,0.225,0.854,-783.753,49.255,-100.403,
00:00:17:900,0.036,0.325,0.836,-840.271,15.502,-92.957,
00:00:17:917,0.021,0.153,1.018,-827.82,35.4,-311.158,
00:00:17:933,0.015,0.237,0.906,-656.311,143.676,-160.889,
00:00:17:950,-0.016,0.45,0.681,-984.253,137.268,3.173,
00:00:17:967,-0.117,0.554,0.732,-1390.259,115.051,274.231,
00:00:17:983,-0.075,0.397,0.865,-1569.458,176.33,453.674,
00:00:18:0,-0.056,0.595,0.955,-1031.067,255.31,295.837,
00:00:18:17,-0.023,0.536,0.969,-536.255,255.554,104.919,
00:00:18:33,0.078,0.372,1.343,-359.864,133.545,-110.962,
00:00:18:50,0.229,0.191,1.09,-354.31,116.76,-180.664,
00:00:18:67,0.287,0.583,1.322,-797.669,-31.983,310.852,
00:00:18:83,0.241,0.627,1.056,-343.384,-98.694,77.636,flipRH
00:00:18:100,0.221,0.604,0.953,-153.87,-134.949,224.365,
00:00:18:117,0.168,0.551,0.947,49.255,-159.424,74.585,
00:00:18:133,0.129,0.377,0.865,10.07,-103.638,4.272,
00:00:18:150,0.094,0.365,0.882,-88.868,-81.91,39.856,
00:00:18:167,0.06,0.387,0.906,-217.041,-48.768,-22.522,
00:00:18:183,0.066,0.488,0.905,-272.339,-36.56,-10.682,
00:00:18:200,0.079,0.608,0.951,-250.733,-41.016,9.948,
00:00:18:217,0.05,0.666,0.917,-159.79,-50.66,10.559,
00:00:18:233,0.021,0.689,0.923,-104.798,-69.764,47.668,
00:00:18:250,0.009,0.678,0.946,-7.203,-93.934,47.668,
00:00:18:267,-0.002,0.639,0.931,60.73,-115.235,58.105,
00:00:18:283,-0.003,0.635,0.931,104.736,-129.639,92.102,
00:00:18:300,-0.01,0.624,0.94,159.729,-149.964,111.633,
00:00:18:317,-0.025,0.581,0.942,152.526,-166.993,113.037,
00:00:18:333,-0.05,0.582,0.935,93.383,-181.458,153.442,
00:00:18:350,-0.059,0.579,0.907,94.482,-179.627,161.56,
00:00:18:367,-0.047,0.58,0.89,116.577,-191.773,172.729,
00:00:18:383,-0.061,0.601,0.827,138.733,-191.163,202.087,
00:00:18:400,-0.092,0.699,0.774,234.802,-187.806,276.977,
00:00:18:417,-0.073,0.637,0.775,424.621,-219.91,242.981,
00:00:18:433,-0.07,0.594,0.723,650.573,-224.976,333.984,
00:00:18:450,-0.08,0.541,0.656,944.03,-213.623,328.674,
00:00:18:467,-0.047,0.302,0.618,1283.203,-215.21,229.675,
00:00:18:483,-0.036,0.348,0.61,1601.867,-202.088,277.465,
00:00:18:500,-0.038,0.205,0.584,1907.348,-189.026,159.668,
00:00:18:517,-0.021,0.025,0.611,1999.694,-125.367,174.377,
00:00:18:533,-0.004,-0.073,0.498,1999.694,-57.435,200.317,
00:00:18:550,-0.03,-0.09,0.481,1999.694,-17.151,174.255,
00:00:18:567,-0.032,-0.19,0.556,1999.694,-8.606,117.37,
00:00:18:583,-0.038,-0.238,0.605,1999.694,85.266,118.347,
00:00:18:600,-0.015,-0.344,0.62,1999.694,229.736,79.04,
00:00:18:617,-0.004,-0.513,0.705,1999.694,403.015,53.772,
00:00:18:633,0.045,-0.486,0.706,1999.694,568.359,-15.686,
00:00:18:650,0.08,-0.457,0.667,1767.639,485.717,-130.127,
00:00:18:667,0.08,-0.606,0.709,1319.275,341.613,-277.039,
00:00:18:683,0.036,-0.785,0.783,958.984,321.106,-117.981,
00:00:18:700,0.005,-0.799,0.801,633.361,360.656,104.858,
00:00:18:717,0.028,-0.874,0.809,324.524,324.707,165.954,
00:00:18:733,0.028,-0.963,0.9,177.734,286.193,224.121,
00:00:18:750,-0.032,-1.001,0.939,138.61,298.034,308.349,
00:00:18:767,-0.119,-1.095,0.884,150.39,290.344,307.861,
00:00:18:783,-0.133,-1.281,0.937,163.635,293.823,233.398,
00:00:18:800,-0.087,-1.314,0.797,513.794,218.872,-74.341,
00:00:18:817,0.135,-1.943,1.499,288.452,-186.768,-558.289,
00:00:18:833,-0.136,-1.581,0.893,-355.591,-261.658,-485.108,
00:00:18:850,-0.118,-1.484,0.948,-365.174,-107.789,-332.215,
00:00:18:867,-0.097,-1.011,0.711,-579.346,-141.724,-413.269,
00:00:18:883,-0.06,-1.026,0.797,-632.386,-183.838,-379.456,
00:00:18:900,-0.033,-0.863,0.717,-81.482,-196.167,-412.354,
00:00:18:917,-0.012,-0.985,0.787,39.123,-289.734,-434.205,
00:00:18:933,-0.124,-0.973,0.74,184.692,-271.973,-505.86,
00:00:18:950,-0.215,-0.991,0.67,-218.75,-221.131,-500.428,
00:00:18:967,-0.173,-1.019,0.693,-403.382,-142.395,-480.835,
00:00:18:983,-0.139,-0.761,0.619,-454.712,-104.493,-480.835,
00:00:19:0,-0.161,-0.589,0.632,-381.104,-148.743,-512.818,
00:00:19:17,-0.218,-0.445,0.623,-108.582,-136.658,-529.297,
00:00:19:33,-0.278,-0.399,0.639,8.422,-99.244,-475.647,
00:00:19:50,-0.298,-0.491,0.76,258.789,-65.857,-400.635,
00:00:19:67,-0.285,-0.634,0.659,386.047,87.341,-335.206,
00:00:19:83,-0.294,-0.722,0.601,265.808,148.437,-229.187,
00:00:19:100,-0.303,-0.72,0.435,-74.707,245.849,-179.627,
00:00:19:117,-0.314,-0.679,0.463,-584.168,314.636,-169.739,
00:00:19:133,-0.319,-0.331,0.429,-739.014,474.731,-119.996,
00:00:19:150,-0.239,-0.38,0.712,-700.562,483.642,-16.114,
00:00:19:167,-0.132,-0.476,0.771,-226.014,505.676,-46.387,
00:00:19:183,-0.12,-0.515,0.619,-320.252,571.655,49.194,
00:00:19:200,-0.109,-0.496,0.741,-448.548,514.343,55.542,
00:00:19:217,-0.093,-0.468,0.86,-718.079,500.244,54.199,
00:00:19:233,-0.069,-0.413,0.975,-737.61,426.941,36.743,
00:00:19:250,-0.058,-0.418,1,-772.767,346.13,1.464,
00:00:19:267,-0.069,-0.474,1.012,-789.917,284.118,-50.782,
00:00:19:283,-0.06,-0.482,0.979,-807.435,246.948,-14.832,
00:00:19:300,-0.049,-0.357,0.984,-940.003,185.974,58.776,
00:00:19:317,-0.018,-0.286,1.02,-924.134,101.745,41.809,
00:00:19:333,-0.029,-0.235,1.01,-776.612,11.108,30.578,
00:00:19:350,-0.065,-0.246,0.99,-648.072,-53.833,-19.959,
00:00:19:367,-0.081,-0.288,0.986,-570.984,-91.919,-47.913,
00:00:19:383,-0.076,-0.326,1.001,-550.782,-107.789,-41.565,
00:00:19:400,-0.076,-0.356,0.966,-531.495,-78.736,-2.808,
00:00:19:417,-0.199,0,0.589,-493.958,85.693,180.359,
00:00:19:433,-0.214,0.159,0.801,-431.458,-126.893,555.481,
00:00:19:450,0.132,-0.249,1.284,457.336,-169.617,-114.136,
00:00:19:467,-0.054,-0.315,0.729,722.778,-165.955,-90.21,
00:00:19:483,-0.213,-0.715,1.054,346.679,-208.497,-134.888,
00:00:19:500,-0.238,-0.675,0.926,-48.89,-41.932,-87.708,
00:00:19:517,-0.158,-0.57,0.982,-651.856,33.386,37.414,
00:00:19:533,-0.08,-0.291,0.931,-780.823,48.584,-9.095,
00:00:19:550,-0.101,-0.121,0.9,-737.732,19.287,45.959,
00:00:19:567,-0.115,-0.014,0.853,-490.906,-11.048,2.746,
00:00:19:583,-0.196,0.051,0.775,-226.258,11.84,19.714,
00:00:19:600,-0.222,0.04,0.751,-43.213,51.391,17.7,
00:00:19:617,-0.204,0.006,0.74,93.444,115.051,38.086,
00:00:19:633,-0.202,-0.027,0.789,196.655,167.663,82.092,
00:00:19:650,-0.16,-0.078,0.807,328.613,216.43,126.77,
00:00:19:667,-0.132,-0.317,0.954,560.119,196.228,140.258,
00:00:19:683,-0.103,-0.42,0.994,438.049,184.936,143.737,
00:00:19:700,-0.073,-0.452,1.054,208.007,159.057,166.32,
00:00:19:717,0,-0.591,0.997,-31.128,176.88,93.627,
00:00:19:733,-0.053,-0.391,0.866,-97.107,135.925,133.056,
00:00:19:750,-0.209,-0.219,1.112,-372.559,90.698,278.137,
00:00:19:767,-0.163,-0.241,1.038,-111.084,167.663,65.734,
00:00:19:783,-0.045,-0.305,0.837,-77.515,176.574,115.722,
00:00:19:800,-0.07,-0.288,0.818,-291.932,179.748,194.397,
00:00:19:817,-0.077,-0.266,0.807,-328.675,226.928,168.884,
00:00:19:833,-0.057,-0.223,0.796,-375.061,241.272,198.242,
00:00:19:850,-0.015,-0.208,0.841,-367.31,244.506,160.644,
00:00:19:867,0.055,-0.257,0.871,-330.323,258.239,107.544,
00:00:19:883,0.07,-0.187,0.714,-389.832,281.494,166.259,
00:00:19:900,0.111,-0.201,1.035,-543.824,272.094,182.129,
00:00:19:917,0.221,-0.32,0.82,-192.627,285.034,-18.067,
00:00:19:933,0.272,-0.391,0.868,-243.042,194.519,-9.034,
00:00:19:950,0.195,-0.461,0.812,-441.346,201.11,-51.087,
00:00:19:967,0.183,-0.296,0.85,-758.301,233.642,-51.026,
00:00:19:983,0.179,-0.116,0.869,-789.429,222.595,26.184,
00:00:20:0,0.197,-0.123,0.838,-679.322,238.891,-146.851,
00:00:20:17,0.171,-0.043,0.754,-931.092,249.694,-139.954,
00:00:20:33,0.153,0.074,0.807,-1246.521,257.324,65.246,
00:00:20:50,0.144,0.288,0.76,-1357.239,248.596,381.53,
00:00:20:67,0.19,0.345,0.867,-1755.005,113.098,491.943,
00:00:20:83,0.329,0.294,0.974,-1872.498,150.329,281.799,
00:00:20:100,0.384,0.482,1.262,-1644.898,-22.583,364.196,flipRH
00:00:20:117,0.381,0.386,1.376,-1567.322,-24.598,200.988,
00:00:20:133,0.332,0.846,1.154,-1135.56,-142.334,406.433,
00:00:20:150,0.201,0.817,1.103,-892.762,-151.856,503.173,
00:00:20:167,0.144,0.817,0.923,-160.889,-264.283,130.798,
00:00:20:183,0.128,0.544,0.943,199.096,-275.025,55.419,
00:00:20:200,0.059,0.479,0.769,156.677,-193.482,105.59,
00:00:20:217,0.071,0.336,0.991,97.9,-185.059,44.372,
00:00:20:233,0.074,0.393,0.937,-39.795,-135.804,44.738,
00:00:20:250,0.051,0.416,0.973,-177.552,-116.944,44.128,
00:00:20:267,0.046,0.448,0.937,-205.689,-91.065,16.784,
00:00:20:283,0.044,0.509,0.962,-200.257,-87.464,35.888,
00:00:20:300,0.04,0.554,0.956,-132.447,-88.196,20.202,
00:00:20:317,0.024,0.551,0.981,-85.755,-83.558,6.591,
00:00:20:333,-0.008,0.543,0.987,-80.262,-81.482,4.272,
00:00:20:350,-0.029,0.493,1,-98.206,-82.276,-8.301,
00:00:20:367,-0.029,0.452,0.979,-141.114,-83.435,-9.766,
00:00:20:383,-0.04,0.449,0.947,-224.366,-79.468,-14.039,
00:00:20:400,-0.039,0.489,0.954,-237.366,-73.792,-27.955,
00:00:20:417,-0.052,0.469,0.967,-256.958,-78.248,-49.988,
00:00:20:433,-0.066,0.497,0.948,-317.933,-54.017,-69.458,
00:00:20:450,-0.044,0.549,0.919,-324.036,-39.002,-37.659,
00:00:20:467,-0.02,0.667,0.952,-249.39,-47.73,2.563,
00:00:20:483,-0.034,0.691,0.957,-106.507,-69.764,-12.452,
00:00:20:500,-0.039,0.631,0.937,23.01,-96.741,-14.222,
00:00:20:517,-0.067,0.574,0.982,-37.903,-126.954,-0.428,
00:00:20:533,-0.074,0.589,0.918,-77.576,-128.235,18.676,
00:00:20:550,-0.056,0.635,0.873,-63.538,-128.235,63.781,
00:00:20:567,-0.055,0.681,0.85,50.476,-131.348,67.932,
00:00:20:583,-0.063,0.658,0.865,185.669,-142.09,76.416,
00:00:20:600,-0.078,0.617,0.877,260.009,-163.88,100.586,
00:00:20:617,-0.079,0.62,0.866,294.494,-170.35,133.911,
00:00:20:633,-0.062,0.593,0.824,374.45,-175.538,145.019,
00:00:20:650,-0.048,0.592,0.807,490.905,-189.209,183.105,
00:00:20:667,-0.055,0.573,0.777,639.465,-198.792,197.326,
00:00:20:683,-0.049,0.491,0.72,758.484,-206.971,183.838,
00:00:20:700,-0.036,0.464,0.678,818.725,-206.543,217.163,
00:00:20:717,-0.048,0.452,0.596,941.589,-177.674,217.041,
00:00:20:733,-0.047,0.494,0.59,1154.235,-129.273,240.539,
00:00:20:750,-0.034,0.484,0.602,1467.834,-100.708,239.318,
00:00:20:767,-0.013,0.348,0.592,1765.93,-80.689,211.914,
00:00:20:783,-0.03,0.245,0.597,1946.228,-64.637,173.462,
00:00:20:800,-0.015,0.105,0.608,1993.957,-30.152,150.207,
00:00:20:817,-0.001,-0.028,0.574,1999.694,19.043,228.515,
00:00:20:833,0.005,-0.147,0.646,1999.694,139.587,248.291,
00:00:20:850,-0.03,-0.165,0.643,1995.483,128.784,311.828,
00:00:20:867,-0.011,-0.198,0.751,1885.009,114.685,281.433,
00:00:20:883,0.016,-0.211,0.784,1629.028,144.226,273.437,
00:00:20:900,0.098,-0.216,0.726,1334.716,144.714,292.419,
00:00:20:917,0.136,-0.2,0.786,1112.487,103.149,300.598,
00:00:20:933,0.104,-0.274,0.739,937.927,170.166,319.702,
00:00:20:950,0.057,-0.344,0.683,932.312,154.358,376.403,
00:00:20:967,-0.028,-0.513,0.814,936.889,246.643,425.964,
00:00:20:983,-0.014,-0.761,0.857,749.755,350.341,490.173,
00:00:21:0,0.014,-1.075,1.023,414.367,234.558,502.99,
00:00:21:17,0.122,-1.196,1.069,-20.874,256.225,411.926,
00:00:21:33,0.104,-1.259,1.131,-512.94,73.242,159.423,
00:00:21:50,-0.006,-1.069,0.932,-971.619,103.881,135.62,
00:00:21:67,0.018,-0.631,0.52,-1429.017,221.923,-56.397,
00:00:21:83,-0.175,-0.939,1.481,-251.954,-297.547,-688.782,
00:00:21:100,0.106,-1.125,1.516,-650.208,-299.866,43.579,
00:00:21:117,-0.134,-0.572,1.449,-604.859,-152.71,-198.426,
00:00:21:133,-0.182,-0.699,1.03,-47.303,-413.514,-310.12,
00:00:21:150,-0.265,-0.555,0.904,131.164,-212.037,-101.868,
00:00:21:167,-0.189,-0.902,0.792,636.901,-274.842,-138.55,
00:00:21:183,-0.224,-0.884,0.612,1129.333,-97.29,-230.835,
00:00:21:200,-0.16,-1.181,0.651,1097.778,-141.297,-337.525,
00:00:21:217,-0.215,-1.194,0.621,744.384,-57.618,-510.56,
00:00:21:233,-0.304,-1.136,0.658,115.966,-52.124,-578.125,
00:00:21:250,-0.331,-0.942,0.611,-215.516,-8.484,-624.268,
00:00:21:267,-0.29,-0.763,0.542,-231.08,-21.363,-731.873,
00:00:21:283,-0.274,-0.622,0.565,-107.239,-6.226,-774.231,
00:00:21:300,-0.301,-0.555,0.584,118.469,16.662,-781.983,
00:00:21:317,-0.332,-0.539,0.631,301.269,100.097,-773.865,
00:00:21:333,-0.323,-0.679,0.576,406.677,290.039,-701.294,
00:00:21:350,-0.22,-0.652,0.483,283.447,377.075,-623.963,
00:00:21:367,-0.12,-0.643,0.62,-37.781,404.48,-593.689,
00:00:21:383,-0.099,-0.537,0.719,-362.427,389.831,-538.819,
00:00:21:400,-0.149,-0.566,0.893,-676.575,378.845,-485.169,
00:00:21:417,-0.192,-0.667,1.047,-1031.373,375.793,-501.16,
00:00:21:433,-0.032,-0.435,0.841,-1502.32,356.628,-471.436,
00:00:21:450,-0.032,-0.125,0.936,-1950.745,266.235,-318.482,
00:00:21:467,0.009,-0.068,1.136,-2000,201.843,-238.282,
00:00:21:483,-0.05,0.16,1.108,-1992.188,122.131,-117.798,
00:00:21:500,-0.091,0.179,1.211,-1759.4,20.324,-139.771,
00:00:21:517,-0.132,0.203,1.146,-1472.046,20.629,-127.32,
00:00:21:533,-0.168,0.171,1.119,-1248.353,-35.096,-99.305,
00:00:21:550,-0.2,0.23,0.84,-1105.408,31.189,-27.161,
00:00:21:567,-0.174,0.389,0.773,-877.808,-9.339,189.575,
00:00:21:583,-0.133,0.375,0.945,-513.733,-49.622,221.069,
00:00:21:600,-0.203,0.413,0.978,-227.356,-8.912,153.259,
00:00:21:617,-0.23,0.265,1.002,99.06,-10.926,25.695,
00:00:21:633,-0.246,0.112,0.999,239.38,-47.608,42.907,
00:00:21:650,-0.245,-0.195,0.887,154.235,-9.888,-75.623,
00:00:21:667,-0.255,-0.163,0.757,-89.539,-11.597,34.606,
00:00:21:683,-0.232,-0.149,0.841,-378.724,3.54,8.178,
00:00:21:700,-0.203,-0.049,0.803,-565.308,14.526,19.836,
00:00:21:717,-0.195,0.126,0.817,-611.329,-0.061,53.894,
00:00:21:733,-0.187,0.196,0.894,-474.793,-18.494,-18.189,
00:00:21:750,-0.186,0.195,0.874,-326.6,-19.349,-82.581,
00:00:21:767,-0.177,0.119,0.878,-290.467,-25.208,-132.63,
00:00:21:783,-0.147,0.039,0.791,-330.323,23.193,-155.64,
00:00:21:800,-0.134,0.084,0.762,-478.577,19.775,-109.131,
00:00:21:817,-0.141,0.119,0.821,-588.868,33.569,-162.476,
00:00:21:833,-0.182,0.192,0.831,-679.322,54.992,-162.415,
00:00:21:850,-0.17,0.21,0.892,-698.731,75.256,-205.445,
00:00:21:867,-0.172,0.216,0.846,-712.83,105.407,-196.228,
00:00:21:883,-0.158,0.275,0.894,-752.442,114.074,-165.284,
00:00:21:900,-0.182,0.284,0.879,-761.048,133.361,-213.868,
00:00:21:917,-0.208,0.343,0.866,-818.848,140.564,-190.552,
00:00:21:933,-0.159,0.389,1.005,-956.604,98.999,-159.79,
00:00:21:950,-0.131,0.479,1.022,-984.62,14.404,-136.658,
00:00:21:967,-0.172,0.569,1.069,-1062.378,-71.717,-94.422,
00:00:21:983,-0.206,0.636,1.053,-1029.786,-112.732,-17.334,
00:00:22:0,-0.208,0.745,0.998,-1036.683,-170.472,110.962,
00:00:22:17,-0.139,0.836,0.924,-911.988,-197.144,196.899,
00:00:22:33,-0.146,0.942,0.832,-745.667,-254.456,276.062,
00:00:22:50,-0.17,1.057,0.813,-496.827,-313.172,332.092,
00:00:22:67,-0.134,1.009,0.771,-107.239,-302.185,265.136,
00:00:22:83,-0.17,0.863,0.676,108.886,-302.369,259.094,
00:00:22:100,-0.201,0.716,0.575,157.104,-259.278,273.01,
00:00:22:117,-0.201,0.703,0.51,145.813,-205.506,354.675,
00:00:22:133,-0.19,0.716,0.443,228.637,-142.64,351.135,
00:00:22:150,-0.234,0.732,0.398,392.212,-49.622,341.674,
00:00:22:167,-0.28,0.698,0.432,643.554,74.279,335.449,
00:00:22:183,-0.3,0.57,0.456,952.087,190.551,293.396,
00:00:22:200,-0.344,0.321,0.511,1176.147,316.528,201.782,
00:00:22:217,-0.414,0.142,0.599,1233.825,415.466,126.953,
00:00:22:233,-0.409,-0.038,0.729,1180.236,489.99,37.597,
00:00:22:250,-0.409,-0.069,0.838,941.467,497.68,7.263,
00:00:22:267,-0.416,-0.101,1.01,590.881,450.988,-49.256,
00:00:22:283,-0.446,0.004,1.13,322.754,344.116,-26.673,
00:00:22:300,-0.432,0.16,1.192,119.506,243.469,-51.88,
00:00:22:317,-0.353,0.32,1.159,48.156,128.357,-36.011,
00:00:22:333,-0.274,0.475,1.211,164.856,37.17,12.512,
00:00:22:350,-0.269,0.571,1.154,373.962,-15.259,-18.311,
00:00:22:367,-0.315,0.47,1.221,484.192,-68.726,-64.698,
00:00:22:383,-0.291,0.398,1.156,545.166,-114.38,11.657,
00:00:22:400,-0.307,0.363,1.155,547.18,-154.908,38.208,
00:00:22:417,-0.32,0.331,1.157,544.006,-183.777,56.152,
00:00:22:433,-0.297,0.242,1.13,521.789,-182.923,53.344,
00:00:22:450,-0.302,0.188,1.002,446.167,-152.832,92.59,
00:00:22:467,-0.312,0.194,1.027,358.032,-125.245,131.286,
00:00:22:483,-0.309,0.208,1.039,366.333,-93.75,148.254,
00:00:22:500,-0.349,0.189,1.026,379.882,-59.937,134.216,
00:00:22:517,-0.396,0.161,0.994,390.075,-31.373,148.193,
00:00:22:533,-0.415,0.17,0.999,411.255,-20.508,211.853,
00:00:22:550,-0.479,0.205,0.951,444.336,2.38,241.638,
00:00:22:567,-0.503,0.14,0.962,413.147,16.906,235.534,
00:00:22:583,-0.506,0.099,0.917,433.96,43.701,287.414,
00:00:22:600,-0.563,0.055,0.893,400.512,73.303,292.785,
00:00:22:617,-0.567,-0.002,0.849,400.756,143.188,288.086,
00:00:22:633,-0.516,-0.048,0.797,395.141,242.431,342.956,
00:00:22:650,-0.48,-0.016,0.777,343.261,298.95,441.406,
00:00:22:667,-0.498,0.026,0.836,309.326,320.19,486.45,
00:00:22:683,-0.501,0.013,0.886,399.963,380.31,468.444,
00:00:22:700,-0.483,0.023,0.853,474.914,432.678,504.394,
00:00:22:717,-0.409,-0.02,0.913,516.479,450.561,508.361,
00:00:22:733,-0.353,-0.061,0.952,560.608,428.405,543.029,
00:00:22:750,-0.328,-0.087,0.921,574.768,417.48,556.152,
00:00:22:767,-0.254,-0.168,0.924,595.825,396.179,548.095,
00:00:22:783,-0.24,-0.224,0.869,618.53,398.62,546.753,
00:00:22:800,-0.199,-0.273,0.84,590.026,385.803,539.489,
00:00:22:817,-0.154,-0.295,0.822,528.137,374.511,541.442,
00:00:22:833,-0.122,-0.276,0.81,489.441,374.511,546.569,
00:00:22:850,-0.097,-0.284,0.807,472.9,389.77,518.005,
00:00:22:867,0.005,-0.346,0.842,459.045,422.119,500.427,
00:00:22:883,0.1,-0.455,0.84,467.651,415.1,404.297,
00:00:22:900,0.076,-0.423,0.711,374.511,414.489,483.886,
00:00:22:917,0.046,-0.385,0.803,334.594,346.435,448.791,
00:00:22:933,0.006,-0.427,0.812,351.867,401.733,377.685,
00:00:22:950,0.057,-0.422,0.76,381.53,498.108,345.825,
00:00:22:967,0.225,-0.484,0.787,370.605,571.106,283.203,
00:00:22:983,0.408,-0.594,0.815,348.816,551.941,279.968,
00:00:23:0,0.277,-0.463,0.887,284.301,232.483,395.935,
00:00:23:17,0.307,-0.435,1.31,566.406,18.92,237.182,
00:00:23:33,0.241,-0.835,0.868,442.932,302.673,24.231,
00:00:23:50,0.415,-0.74,0.696,141.967,410.217,183.41,
00:00:23:67,0.203,-0.459,0.596,-92.652,390.686,346.74,
00:00:23:83,0.519,-0.53,0.635,34.118,572.265,68.603,
00:00:23:100,0.604,-0.567,0.637,104.431,518.371,174.804,
00:00:23:117,0.656,-0.655,0.761,146.728,217.163,23.62,
00:00:23:133,0.495,-0.758,0.839,81.909,-12.269,-78.614,
00:00:23:150,0.388,-0.743,0.903,-130.188,51.025,-93.995,
00:00:23:167,0.373,-0.726,0.802,-288.636,238.647,-137.574,
00:00:23:183,0.32,-0.709,0.628,-438.233,235.29,-195.313,
00:00:23:200,0.327,-0.717,0.55,-567.078,212.646,-267.334,
00:00:23:217,0.333,-0.532,0.56,-708.13,257.568,-231.629,
00:00:23:233,0.505,-0.436,0.534,-675.599,326.965,-224.366,
00:00:23:250,0.618,-0.396,0.573,-615.906,241.027,-258.606,
00:00:23:267,0.717,-0.452,0.923,-443.604,-192.994,-451.355,
00:00:23:283,0.499,-0.618,1.039,-411.988,-201.6,-609.314,
00:00:23:300,0.4,-0.62,0.956,-565.918,91.186,-475.586,
00:00:23:317,0.525,-0.447,0.726,-662.293,144.226,-391.968,
00:00:23:333,0.461,-0.286,0.597,-676.819,105.346,-332.215,
00:00:23:350,0.416,-0.264,0.601,-560.852,47.729,-484.192,
00:00:23:367,0.316,-0.349,0.636,-534.302,43.823,-666.382,
00:00:23:383,0.275,-0.434,0.705,-546.326,140.014,-754.761,
00:00:23:400,0.327,-0.358,0.726,-625.916,234.558,-682.373,
00:00:23:417,0.386,-0.195,0.703,-743.348,149.78,-584.412,
00:00:23:433,0.326,-0.052,0.771,-988.587,17.15,-503.113,
00:00:23:450,0.248,0.087,0.866,-1224.488,-23.194,-455.933,
00:00:23:467,0.149,0.218,0.955,-1336.426,-77.759,-441.04,
00:00:23:483,0.063,0.29,1.026,-1217.103,-21.302,-427.552,
00:00:23:500,0.088,0.369,0.999,-874.695,4.516,-265.625,
00:00:23:517,0.055,0.372,0.904,-497.01,-28.443,-228.882,
00:00:23:533,-0.052,0.225,1.078,-426.758,0.976,-307.801,
00:00:23:550,0.039,0.082,1.088,-341.248,15.014,-342.652,
00:00:23:567,0.264,0.341,1.22,-470.276,26.55,-62.989,
00:00:23:583,0.183,0.404,1.162,-309.021,15.38,38.269,
00:00:23:600,0.143,0.307,1.17,-46.265,4.333,21.362,
00:00:23:617,0.177,0.117,1.141,93.078,6.652,10.986,
00:00:23:633,0.131,0.119,1.117,-51.941,10.498,99.792,
00:00:23:650,0.153,0.35,1.137,-236.084,14.038,208.191,
00:00:23:667,0.329,0.49,1.354,-136.719,-5.86,209.289,
00:00:23:683,0.425,0.598,1.471,13.61,-115.662,399.109,
00:00:23:700,0.375,0.655,1.422,270.568,-222.718,531.738,
00:00:23:717,0.255,0.689,1.298,568.847,-307.435,688.72,
00:00:23:733,-0.036,0.578,1.121,1064.331,-278.443,679.992,
00:00:23:750,-0.032,0.188,0.974,1575.5,-284.058,554.748,
00:00:23:767,0.071,-0.425,1.121,1870.788,-203.064,379.577,
00:00:23:783,-0.118,-0.62,0.612,1713.501,114.868,312.622,
00:00:23:800,-0.203,-0.699,0.563,955.566,-120.118,356.506,
00:00:23:817,-0.117,-0.497,0.422,89.416,133.056,424.56,
00:00:23:833,-0.164,-0.367,0.57,-5.799,90.21,350.769,
00:00:23:850,-0.058,-0.333,0.503,111.572,288.391,293.396,
00:00:23:867,0.175,-0.224,0.427,80.261,417.358,311.706,
00:00:23:883,0.375,-0.508,0.496,209.167,328.491,147.522,
00:00:23:900,0.212,-0.627,0.544,35.827,127.441,147.094,
00:00:23:917,0.201,-0.567,1.247,-194.275,201.416,342.468,
00:00:23:933,0.762,-0.854,1.103,153.503,265.258,-129.822,
00:00:23:950,0.851,-0.973,1.162,-165.467,-87.708,-161.744,
00:00:23:967,0.583,-0.614,0.681,-370.423,-6.897,-155.091,
00:00:23:983,0.565,-0.366,0.729,-218.811,-106.873,-231.385,
00:00:24:0,0.462,-0.465,0.679,-205.201,-69.642,-438.965,
00:00:24:17,0.343,-0.388,0.73,-421.448,-9.461,-405.579,
00:00:24:33,0.422,-0.202,0.888,-623.23,59.875,-367.493,
00:00:24:50,0.274,0.236,1.333,-696.228,-223.938,-275.757,
00:00:24:67,0.226,0.392,1.245,-622.437,-142.518,-118.592,
00:00:24:83,0.069,0.688,1.199,-350.281,-190.979,255.188,
00:00:24:100,-0.167,0.827,1.378,102.661,-121.338,241.15,
00:00:24:117,-0.28,0.549,1.253,802.063,-26.368,200.134,
00:00:24:133,-0.231,0.17,1.235,1143.127,14.709,280.273,
00:00:24:150,-0.152,-0.14,1.14,1212.036,45.532,365.905,
00:00:24:167,-0.129,-0.263,0.969,1090.576,47.18,478.637,
00:00:24:183,-0.149,-0.338,0.886,1113.83,47.058,524.475,
00:00:24:200,-0.152,-0.413,0.732,1090.088,99.243,544.128,
00:00:24:217,-0.119,-0.443,0.6,1018.371,148.986,597.412,
00:00:24:233,-0.077,-0.463,0.581,996.826,153.808,600.036,
00:00:24:250,-0.01,-0.48,0.553,988.098,186.584,593.078,
00:00:24:267,0.115,-0.562,0.604,943.542,223.755,512.268,
00:00:24:283,0.192,-0.666,0.586,880.798,257.324,449.89,
00:00:24:300,0.271,-0.715,0.562,660.156,244.751,395.813,
00:00:24:317,0.296,-0.755,0.524,434.143,232.36,397.094,
00:00:24:333,0.331,-0.706,0.528,239.99,226.623,458.313,
00:00:24:350,0.345,-0.56,0.495,161.499,256.225,410.583,
00:00:24:367,0.678,-0.713,0.886,303.222,221.313,224.548,
00:00:24:383,0.903,-1.053,1.072,410.583,89.355,-120.179,
00:00:24:400,0.858,-1.198,0.878,166.198,69.885,-122.254,
00:00:24:417,0.846,-1.001,0.639,-287.842,151.794,-67.139,
00:00:24:433,0.727,-0.747,0.443,-502.747,130.493,-152.222,
00:00:24:450,0.65,-0.818,0.354,-702.454,135.009,-498.108,
00:00:24:467,0.696,-0.639,0.345,-943.055,452.148,-447.327,
00:00:24:483,0.799,-0.403,0.35,-958.863,667.053,-306.397,
00:00:24:500,0.888,-0.273,0.38,-810.669,664.795,-336.304,
00:00:24:517,1.15,-0.407,1.027,-649.353,-43.58,-659.302,
00:00:24:533,0.924,-0.626,0.932,-565.43,-426.941,-1078.675,
00:00:24:550,0.407,-0.481,1.052,-928.589,-379.7,-627.259,
00:00:24:567,0.217,-0.142,0.52,-1040.894,272.033,-503.54,
00:00:24:583,0.484,-0.011,0.422,-916.993,340.759,-287.903,
00:00:24:600,0.329,0.156,0.612,-659.729,-309.266,-644.898,
00:00:24:617,0.035,-0.131,1.05,-910.157,-0.306,-523.621,
00:00:24:633,0.03,-0.121,0.883,-715.577,128.173,-434.754,
00:00:24:650,0.157,-0.003,0.851,-579.651,156.25,-290.467,
00:00:24:667,0.08,-0.235,0.767,-87.708,182.434,-580.323,
00:00:24:683,0.139,-0.169,0.716,-492.066,-17.823,-290.039,
00:00:24:700,0.33,-0.146,0.978,-605.652,-49.317,-387.024,
00:00:24:717,0.367,-0.018,0.883,-581.482,-56.702,-232.666,
00:00:24:733,0.231,0.07,1.015,-634.217,-86.609,-160.035,
00:00:24:750,0.17,-0.026,0.989,-352.601,2.929,-275.635,
00:00:24:767,0.203,-0.164,0.953,-318.543,22.583,-223.877,
00:00:24:783,-0.065,0.008,2.135,-274.72,-52.918,-253.602,
00:00:24:800,0.48,-0.323,0.981,307.861,-114.197,-677.857,
00:00:24:817,0.397,-0.151,0.747,333.13,-125.794,-404.664,
00:00:24:833,0.217,-0.097,0.589,-726.868,-371.766,235.962,
00:00:24:850,0.191,0.163,1.249,-934.327,-121.888,-216.553,
00:00:24:867,0.337,0.229,1.007,-506.714,-142.334,-102.784,
00:00:24:883,0.319,0.259,0.972,-65.796,-110.413,-34.363,
00:00:24:900,0.176,-0.062,1.124,187.988,-174.866,-182.557,
00:00:24:917,0.169,-0.249,1.074,83.374,-127.747,-184.144,
00:00:24:933,0.136,-0.305,0.959,-391.175,-185.975,-133.057,
00:00:24:950,-0.003,-0.105,0.893,-538.453,-161.194,1.098,
00:00:24:967,-0.059,0.026,1.074,-461.426,-92.652,-135.804,
00:00:24:983,0.033,0.045,1.057,-304.749,-105.164,-214.173,
00:00:25:0,0.082,0.062,1.084,-267.273,-124.695,-138.794,
00:00:25:17,0.031,0.157,1.029,-235.718,-115.418,-76.05,
00:00:25:33,0.047,0.415,1.134,-16.114,-116.517,220.642,
00:00:25:50,0.049,0.417,1.048,189.209,-135.498,316.406,
00:00:25:67,0.061,0.205,0.94,413.452,-140.442,260.376,
00:00:25:83,0.085,0.055,1.011,547.607,-129.517,242.736,
00:00:25:100,0.055,-0.099,0.787,458.679,18.432,211.67,
00:00:25:117,0.011,-0.213,0.799,-19.349,157.348,201.355,
00:00:25:133,0.09,-0.17,0.931,-327.637,158.935,246.887,
00:00:25:150,0.177,-0.059,0.941,-285.584,195.434,265.258,
00:00:25:167,0.275,-0.089,0.958,-99.61,166.992,159.179,
00:00:25:183,0.301,-0.175,0.948,-34.668,121.582,111.084,
00:00:25:200,0.271,-0.182,0.845,-181.031,108.581,150.512,
00:00:25:217,0.255,-0.068,0.741,-386.963,84.289,196.594,
00:00:25:233,0.249,0.009,0.623,-514.344,130.127,183.288,
00:00:25:250,0.247,0.074,0.563,-494.873,204.773,160.278,
00:00:25:267,0.247,0.111,0.715,-356.568,200.378,154.48,
00:00:25:283,0.236,0.078,0.712,-114.197,289.917,140.319,
00:00:25:300,0.288,-0.128,0.997,202.209,241.027,-137.635,
00:00:25:317,0.334,-0.198,0.807,-198.243,298.706,20.019,
00:00:25:333,0.411,-0.172,0.776,-486.695,224.548,12.268,
00:00:25:350,0.4,-0.085,0.748,-783.692,192.81,-33.265,
00:00:25:367,0.351,0.106,0.756,-1260.682,85.083,123.718,
00:00:25:383,0.277,0.38,0.961,-1613.221,-3.724,83.862,
00:00:25:400,0.259,0.491,0.854,-1111.023,106.14,37.17,
00:00:25:417,0.494,0.367,1.218,-552.124,-155.213,-45.716,
00:00:25:433,0.527,0.538,0.975,-600.22,-149.659,51.574,
00:00:25:450,0.314,0.509,0.989,-615.052,-218.934,197.509,
00:00:25:467,0.094,0.565,0.872,-483.826,-191.224,43.64,
00:00:25:483,0.193,0.429,0.894,-373.902,-188.416,-27.1,
00:00:25:500,0.24,0.455,0.87,-387.024,-174.317,-4.822,
00:00:25:517,0.182,0.498,0.889,-440.796,-157.776,7.385,
00:00:25:533,0.169,0.535,0.973,-386.658,-158.631,-55.787,
00:00:25:550,0.227,0.521,1.031,-345.887,-195.679,-60.059,
00:00:25:567,0.228,0.496,0.973,-368.042,-210.938,-78.186,
00:00:25:583,0.189,0.498,0.874,-455.506,-206.36,-50.965,
00:00:25:600,0.163,0.583,0.894,-540.772,-193.36,-39.063,
00:00:25:617,0.155,0.666,0.915,-531.189,-208.497,-49.256,
00:00:25:633,0.152,0.663,0.941,-413.392,-257.569,-52.918,
00:00:25:650,0.046,0.724,0.716,-596.558,-235.23,-1.831,
00:00:25:667,0.041,0.87,0.75,-414.978,-199.219,54.016,
00:00:25:683,0.016,0.947,0.83,-22.583,-231.507,59.875,
00:00:25:700,-0.052,0.869,0.909,208.068,-231.385,48.4,
00:00:25:717,-0.049,0.737,0.964,315.429,-261.841,39.856,
00:00:25:733,-0.011,0.654,0.94,284.546,-267.029,73.12,
00:00:25:750,-0.008,0.71,0.964,276.245,-285.462,120.239,
00:00:25:767,-0.01,0.644,0.973,347.168,-348.389,84.228,
00:00:25:783,-0.018,0.575,0.924,308.715,-388.794,81.054,
00:00:25:800,-0.049,0.533,0.846,132.873,-377.198,62.866,
00:00:25:817,-0.085,0.559,0.845,-31.739,-349.366,37.658,
00:00:25:833,-0.096,0.67,0.786,-122.437,-287.537,45.898,
00:00:25:850,-0.084,0.771,0.741,-31.983,-207.886,85.449,
00:00:25:867,-0.05,0.966,0.854,351.684,-241.883,171.936,
00:00:25:883,-0.055,0.688,0.862,1068.786,-368.042,220.703,
00:00:25:900,-0.033,0.579,0.741,1154.968,-374.39,231.384,
00:00:25:917,-0.016,0.535,0.681,1290.283,-349.427,211.364,
00:00:25:933,-0.044,0.539,0.666,1445.495,-294.434,232.544,
00:00:25:950,-0.037,0.464,0.692,1587.89,-276.062,210.144,
00:00:25:967,-0.004,0.354,0.581,1706.421,-186.219,206.726,
00:00:25:983,0.002,0.335,0.485,1661.987,-141.602,265.991,
00:00:26:0,-0.038,0.482,0.573,1745.117,-80.628,299.682,
00:00:26:17,-0.071,0.333,0.504,1999.633,-116.211,198.791,
00:00:26:33,-0.011,0.221,0.453,1999.694,-7.874,77.575,
00:00:26:50,-0.004,0.007,0.45,1999.694,10.559,198.73,
00:00:26:67,-0.03,-0.178,0.602,1999.694,167.48,371.826,
00:00:26:83,-0.006,-0.355,0.609,1999.694,567.749,495.788,
00:00:26:100,-0.05,-0.241,0.361,1999.694,560.913,37.17,
00:00:26:117,-0.037,-0.232,0.187,1999.694,317.382,-411.133,
00:00:26:133,-0.057,-0.268,0.174,1999.694,262.695,-546.814,flipRH
00:00:26:150,-0.106,-0.334,0.028,1999.694,246.276,-466.065,
00:00:26:167,-0.08,-0.961,0.336,1999.694,-97.596,-153.565,
00:00:26:183,-0.051,-1.197,0.36,1999.694,-13.55,471.252,
00:00:26:200,-0.144,-1.761,0.168,785.278,92.712,990.966,
00:00:26:217,-0.274,-1.752,0.241,264.038,176.33,720.092,
00:00:26:233,-0.25,-1.557,0.185,-185.425,256.897,509.887,
00:00:26:250,0.191,-2.893,1.92,-418.58,-248.108,-205.75,
00:00:26:267,-0.313,-1.719,0.263,187.255,148.376,-94.544,
00:00:26:283,-0.465,-2.305,0.549,-973.328,184.692,-282.776,
00:00:26:300,-0.366,-1.284,0.215,-1062.195,189.941,-310.303,
00:00:26:317,-0.257,-1.066,0.296,-1075.074,138.672,-401.246,
00:00:26:333,-0.142,-0.801,0.432,-476.868,43.823,-354.065,
00:00:26:350,-0.106,-0.902,0.455,66.406,-25.086,-225.586,
00:00:26:367,-0.181,-1.321,0.668,167.541,-81.788,-56.031,
00:00:26:383,-0.119,-1.36,0.622,-159.729,-79.285,-112.305,
00:00:26:400,-0.131,-1.303,0.473,-599.06,-57.557,-103.089,
00:00:26:417,-0.135,-1.178,0.452,-678.711,-62.195,-127.625,
00:00:26:433,-0.116,-1.023,0.555,-412.415,-122.681,-216.797,
00:00:26:450,-0.109,-1.03,0.746,-73.792,-183.167,-309.937,
00:00:26:467,-0.127,-1.182,0.901,111.755,-276.673,-393.86,
00:00:26:483,-0.173,-1.352,1.023,89.965,-343.384,-464.417,
00:00:26:500,-0.217,-1.415,0.98,-138.245,-388.916,-549.683,
00:00:26:517,-0.298,-1.222,0.786,-638.611,-382.752,-541.565,
00:00:26:533,-0.372,-1.007,0.782,-1372.193,-358.399,-453.37,
00:00:26:550,-0.375,-0.824,0.804,-1347.718,-405.884,-395.752,
00:00:26:567,-0.387,-0.606,0.769,-1114.38,-434.51,-425.415,
00:00:26:583,-0.4,-0.709,0.646,-945.13,-380.738,-291.443,
00:00:26:600,-0.38,-0.611,0.483,-820.679,-285.096,-60.791,
00:00:26:617,-0.379,-0.441,0.434,-883.912,-170.533,107.544,
00:00:26:633,-0.344,-0.259,0.522,-813.294,-120.667,320.434,
00:00:26:650,-0.323,-0.185,0.583,-578.186,-66.346,446.594,
00:00:26:667,-0.326,-0.214,0.54,-224.244,-26.978,418.945,
00:00:26:683,-0.367,-0.34,0.358,-208.802,62.805,329.834,
00:00:26:700,-0.294,-0.45,0.351,-251.099,221.13,412.231,
00:00:26:717,-0.242,-0.278,0.431,-245.85,383.422,734.863,
00:00:26:733,-0.215,-0.111,0.423,36.254,390.869,656.128,
00:00:26:750,-0.206,-0.194,0.351,253.234,313.781,400.146,
00:00:26:767,-0.175,-0.254,0.35,423.584,322.082,450.805,
00:00:26:783,-0.063,-0.329,0.266,574.401,366.821,484.497,
00:00:26:800,-0.023,-0.308,0.193,760.315,321.228,510.681,
00:00:26:817,-0.006,-0.353,0.181,1069.336,222.412,470.276,
00:00:26:833,0.026,-0.537,0.111,1388.549,134.521,374.939,
00:00:26:850,0.016,-0.732,0.084,1599.243,88.928,381.408,
00:00:26:867,-0.021,-0.846,0.06,1729.614,198.669,453.064,
00:00:26:883,0.021,-0.965,-0.041,1767.273,332.885,480.529,
00:00:26:900,0.135,-1.059,0.048,1798.462,294.25,394.226,
00:00:26:917,0.184,-1.197,0.19,1757.629,219.177,364.624,
00:00:26:933,0.169,-1.35,0.307,1456.115,201.965,355.285,
00:00:26:950,0.072,-1.444,0.276,987.243,295.654,256.103,
00:00:26:967,0.069,-1.344,0.421,271.667,303.833,162.597,
00:00:26:983,0.115,-1.167,0.578,-329.407,351.562,170.471,
00:00:27:0,0.153,-0.992,0.5,-356.873,307.129,98.816,
00:00:27:17,0.198,-0.931,0.44,-174.988,216.125,89.782,
00:00:27:33,0.187,-0.924,0.358,119.323,127.624,101.989,
00:00:27:50,0.132,-0.928,0.43,315.124,21.362,151.611,
00:00:27:67,0.05,-0.985,0.397,374.023,29.48,214.66,
00:00:27:83,0.067,-1.094,0.434,494.751,-35.767,174.133,
00:00:27:100,0.039,-1.146,0.276,374.939,4.821,195.922,
00:00:27:117,0.085,-1.1,0.168,434.753,16.845,272.705,
00:00:27:133,0.17,-1.044,0.171,533.935,-20.997,251.342,
00:00:27:150,0.165,-1.074,0.176,623.23,-104.615,191.04,
00:00:27:167,0.12,-1.211,-0.012,326.477,-23.499,125.549,
00:00:27:183,0.116,-1.41,-0.063,-30.457,-61.89,33.63,
00:00:27:200,0.091,-0.986,0.093,-387.696,31.433,189.697,
00:00:27:217,0.155,-0.845,0.062,-108.948,44.067,118.652,
00:00:27:233,0.235,-0.976,-0.066,214.233,-0.306,-10.315,
00:00:27:250,0.218,-1.115,-0.138,208.923,-14.893,22.277,
00:00:27:267,0.125,-1.119,-0.167,25.634,39.489,37.841,
00:00:27:283,0.088,-1.1,-0.096,-222.229,87.829,29.968,
00:00:27:300,0.086,-1.071,-0.074,-230.957,164.734,2.868,
00:00:27:317,0.188,-1.014,-0.116,-429.749,296.997,-31.495,
00:00:27:333,0.286,-1.037,-0.14,-443.299,345.153,-143.128,
00:00:27:350,0.26,-1.118,-0.116,-280.945,362.671,-186.524,
00:00:27:367,0.181,-1.221,-0.064,-441.163,353.515,-222.29,
00:00:27:383,0.233,-1.208,0.077,-863.587,404.113,-248.536,
00:00:27:400,0.295,-0.939,0.015,-1138.001,451.172,-171.998,
00:00:27:417,0.324,-0.701,0.028,-1244.629,434.57,-125.306,
00:00:27:433,0.345,-0.418,0.242,-1209.046,374.939,-82.398,
00:00:27:450,0.282,-0.429,0.325,-902.71,383.667,-239.441,
00:00:27:467,0.282,-0.606,0.281,-660.34,403.93,-204.895,
00:00:27:483,0.413,-0.587,0.344,-615.967,365.295,-70.618,
00:00:27:500,0.326,-0.598,0.321,-191.346,351.928,-15.87,
00:00:27:517,0.283,-0.803,0.434,24.536,384.033,-65.064,
00:00:27:533,0.354,-1.139,0.554,-139.954,342.59,-134.156,
00:00:27:550,0.405,-1.236,0.489,-604.981,339.111,-59.144,
00:00:27:567,0.342,-0.935,0.401,-1066.834,367.797,69.213,
00:00:27:583,0.25,-0.699,0.43,-1078.919,293.029,3.173,
00:00:27:600,0.286,-0.383,0.407,-1105.957,355.651,76.66,
00:00:27:617,0.375,-0.204,0.5,-689.942,314.392,153.381,
00:00:27:633,0.243,-0.695,0.558,-72.571,312.439,-93.384,
00:00:27:650,0.421,-1.099,0.658,-443.604,305.236,-102.051,
00:00:27:667,0.898,-0.583,1.409,-1461.06,-152.466,146.057,
00:00:27:683,0.198,-0.952,0.502,928.283,-89.661,-371.888,
00:00:27:700,0.269,-1.377,0.506,-271.241,14.709,-371.949,
00:00:27:717,0.539,-0.806,0.514,-1326.844,158.386,-2.137,
00:00:27:733,0.474,-0.242,0.582,-1098.755,8.789,4.089,
00:00:27:750,0.264,-0.415,0.813,-344.91,27.16,-193.97,
00:00:27:767,0.292,-0.72,0.659,-15.931,115.417,-231.202,
00:00:27:783,0.365,-0.887,0.666,-329.834,91.857,-189.026,
00:00:27:800,0.252,-0.695,0.773,-531.434,59.692,-9.888,
00:00:27:817,0.23,-0.493,0.973,-519.715,-8.362,-68.604,
00:00:27:833,0.192,-0.533,0.958,-395.325,-65.369,-160.462,
00:00:27:850,0.065,-0.765,0.975,-406.311,-120.423,-189.942,
00:00:27:867,0.105,-0.659,0.871,-609.253,-98.938,-138.367,
00:00:27:883,0.076,-0.345,0.919,-575.074,-133.301,-112,
00:00:27:900,-0.037,-0.442,0.917,-216.919,-104.92,-169.068,
00:00:27:917,0.076,-0.484,0.862,-149.231,-55.97,3.479,
00:00:27:933,0.125,-0.348,0.874,-339.295,-24.109,117.736,
00:00:27:950,0.052,-0.278,0.96,-290.589,-22.522,84.655,
00:00:27:967,0.106,-0.229,0.97,-140.015,-14.588,192.749,
00:00:27:983,0.21,-0.199,1.006,52.673,-55.97,299.438,
00:00:28:0,0.201,-0.298,0.963,240.905,-89.356,351.745,
00:00:28:17,0.202,-0.372,0.835,273.925,-89.905,369.445,
00:00:28:33,0.204,-0.631,0.623,359.741,-48.218,195.861,
00:00:28:50,0.287,-0.95,0.525,118.103,-37.293,32.959,
00:00:28:67,0.437,-0.987,0.535,-370.179,-66.529,250.366,
00:00:28:83,0.362,-0.648,0.432,-674.561,-89.966,421.02,
00:00:28:100,0.267,-0.483,0.474,-675.843,-99.488,300.476,
00:00:28:117,0.236,-0.541,0.394,-641.968,33.691,134.46,
00:00:28:133,0.303,-0.591,0.417,-634.705,130.005,105.468,flipRH
00:00:28:150,0.325,-0.559,0.471,-690.125,195.861,117.859,
00:00:28:167,0.348,-0.517,0.526,-717.774,233.032,68.542,
00:00:28:183,0.412,-0.522,0.645,-686.524,203.003,-47.852,
00:00:28:200,0.444,-0.612,0.739,-800.538,223.755,-141.541,
00:00:28:217,0.479,-0.553,0.815,-1069.275,242.492,-84.229,
00:00:28:233,0.457,-0.352,0.824,-1359.864,238.952,-67.017,
00:00:28:250,0.434,-0.172,0.833,-1430.481,214.904,-106.202,
00:00:28:267,0.414,-0.052,0.847,-1319.275,188.659,-123.78,
00:00:28:283,0.417,-0.028,0.957,-1170.838,121.032,4.15,
00:00:28:300,0.503,-0.064,1.115,-914.307,18.737,14.892,
00:00:28:317,0.495,-0.221,1.206,-720.643,-52.796,-306.885,
00:00:28:333,0.389,-0.07,0.968,-918.519,-51.148,-202.088,
00:00:28:350,0.321,0.036,1.051,-1189.332,-116.944,-73.365,
00:00:28:367,0.273,0.158,1.022,-1084.473,-122.803,-114.258,
00:00:28:383,0.297,0.202,1.08,-1041.565,-141.541,-72.022,
00:00:28:400,0.31,0.328,1.204,-1006.165,-284.058,-48.035,
00:00:28:417,0.228,0.332,1.124,-807.435,-305.054,-101.502,
00:00:28:433,0.186,0.341,1.037,-426.758,-323.792,-1.465,
00:00:28:450,0.185,0.32,1.007,-302.552,-345.337,-2.747,
00:00:28:467,0.171,0.311,1.01,-291.687,-340.76,-20.142,
00:00:28:483,0.085,0.331,0.995,-384.522,-245.24,31.86,
00:00:28:500,0.055,0.323,0.994,-360.535,-196.595,34.118,
00:00:28:517,0.05,0.328,1,-300.232,-179.017,33.325,
00:00:28:533,0.05,0.321,1.004,-340.638,-181.275,58.715,
00:00:28:550,0.051,0.33,1.033,-293.457,-210.633,7.141,
00:00:28:567,0.045,0.349,1.002,-248.169,-191.651,6.652,
00:00:28:583,0.036,0.341,1.059,-275.025,-193.36,11.352,
00:00:28:600,0.02,0.389,1.072,-274.659,-191.102,42.053,
00:00:28:617,0.004,0.464,1.055,-228.211,-197.144,67.26,
00:00:28:633,0.009,0.498,1.088,-97.535,-217.164,62.805,
00:00:28:650,-0.013,0.488,1.071,55.297,-234.742,59.57,
00:00:28:667,-0.039,0.454,1.049,151.062,-246.766,74.035,
00:00:28:683,-0.057,0.431,1.053,237.793,-263.916,69.519,
00:00:28:700,-0.002,0.439,1.01,335.083,-299.744,84.716,
00:00:28:717,0.029,0.438,0.959,347.351,-318.055,103.21,
00:00:28:733,0.03,0.441,0.853,352.172,-308.899,155.639,
00:00:28:750,0.024,0.421,0.787,430.603,-309.205,327.026,
00:00:28:767,-0.01,0.459,0.533,512.756,-252.686,745.483,
00:00:28:783,-0.016,0.592,0.442,271.362,-277.894,1155.944,
00:00:28:800,0.103,0.556,0.721,315.918,-257.325,828.857,
00:00:28:817,0.04,0.748,0.615,989.257,-163.086,341.43,
00:00:28:833,-0.04,0.453,0.72,1825.927,-224.06,276.916,
00:00:28:850,-0.076,0.342,0.538,1999.694,-92.408,283.203,
00:00:28:867,-0.024,0.101,0.376,1999.694,-75.745,261.718,
00:00:28:883,0.02,-0.051,0.263,1999.694,-84.29,293.762,
00:00:28:900,0.072,-0.249,0.338,1999.694,-56.336,334.533,
00:00:28:917,0.12,-0.455,0.357,1999.694,10.498,430.053,
00:00:28:933,0.102,-0.458,0.387,1999.694,72.021,518.371,
00:00:28:950,0.034,-0.506,0.366,1999.694,146.057,511.169,
00:00:28:967,0.019,-0.668,0.452,1999.694,132.629,428.405,
00:00:28:983,0.049,-0.654,0.529,1999.694,95.947,368.835,
00:00:29:0,0.107,-0.589,0.51,1838.745,113.647,311.279,
00:00:29:17,0.148,-0.841,0.573,1567.016,-21.424,59.57,
00:00:29:33,0.058,-0.95,0.598,1482.971,-42.786,34.118,
00:00:29:50,-0.098,-1.014,0.224,888.122,-76.6,245.849,
00:00:29:67,-0.027,-1.766,0.591,704.834,-102.967,467.712,
00:00:29:83,-0.148,-1.461,0.261,13.488,43.579,576.843,
00:00:29:100,-0.13,-1.669,0.368,-428.345,67.688,414.184,
00:00:29:117,-0.125,-1.47,0.074,-462.891,121.154,295.288,
00:00:29:133,0.264,-2.464,1.367,126.77,-171.631,-301.392,
00:00:29:150,-0.24,-1.724,0.253,-118.897,42.907,-138.306,
00:00:29:167,-0.199,-2.021,0.243,-474.732,148.254,-390.503,
00:00:29:183,-0.013,-1.424,0.495,-562.317,80.078,-493.47,
00:00:29:200,-0.012,-1.166,0.456,-617.92,4.882,-536.194,
00:00:29:217,0.014,-1.083,0.499,-193.36,-52.308,-493.592,
00:00:29:233,-0.021,-1.093,0.451,-85.083,-56.58,-410.035,
00:00:29:250,-0.072,-1.087,0.479,-19.776,-60.791,-397.461,
00:00:29:267,-0.097,-1.18,0.557,-51.514,-44.434,-384.705,
00:00:29:283,-0.099,-1.171,0.609,-211.243,-48.34,-416.626,
00:00:29:300,-0.12,-1.161,0.555,-391.175,-31.128,-412.293,
00:00:29:317,-0.117,-1.08,0.578,-462.525,-37.171,-399.292,
00:00:29:333,-0.101,-1.054,0.729,-303.956,-75.928,-401.307,
00:00:29:350,-0.127,-1.02,0.839,-208.069,-134.888,-425.904,
00:00:29:367,-0.186,-1.062,0.946,-424.012,-176.392,-438.599,
00:00:29:383,-0.261,-1.111,0.905,-741.089,-192.261,-466.553,
00:00:29:400,-0.35,-1.016,0.68,-1151.734,-143.555,-458.13,
00:00:29:417,-0.392,-0.926,0.453,-1339.844,-5.982,-364.075,
00:00:29:433,-0.292,-0.696,0.532,-1271.18,52.795,-225.647,
00:00:29:450,-0.267,-0.517,0.597,-1232.483,83.435,-127.564,
00:00:29:467,-0.293,-0.44,0.585,-944.275,183.227,-80.933,
00:00:29:483,-0.272,-0.485,0.493,-687.439,230.407,-37.781,
00:00:29:500,-0.193,-0.55,0.446,-540.162,257.751,-83.435,
00:00:29:517,-0.165,-0.525,0.534,-667.969,318.664,11.84,
00:00:29:533,-0.14,-0.483,0.617,-702.271,356.994,-38.758,
00:00:29:550,-0.156,-0.412,0.685,-823.426,451.172,-17.945,
00:00:29:567,-0.085,-0.381,0.657,-896.485,558.044,-39.856,
00:00:29:583,0.041,-0.358,0.566,-949.707,590.454,84.228,
00:00:29:600,0.06,-0.157,0.558,-921.265,501.892,253.296,
00:00:29:617,0.054,-0.029,0.523,-690.613,424.133,121.826,
00:00:29:633,0.074,-0.075,0.546,-455.262,327.819,-67.81,
00:00:29:650,0.108,-0.158,0.574,-286.072,279.297,-119.08,
00:00:29:667,0.088,-0.144,0.651,-252.93,253.54,19.226,
00:00:29:683,0.085,-0.209,0.704,-203.431,185.73,-80.506,
00:00:29:700,0.044,-0.318,0.746,-244.69,153.137,-116.272,
00:00:29:717,0.007,-0.339,0.772,-372.437,176.513,-17.762,
00:00:29:733,-0.026,-0.276,0.747,-452.82,193.176,11.047,
00:00:29:750,-0.029,-0.263,0.806,-500.184,182.739,-59.754,
00:00:29:767,-0.063,-0.294,0.871,-526.856,204.651,-75.379,
00:00:29:783,-0.072,-0.313,0.954,-605.896,240.417,-63.05,
00:00:29:800,-0.036,-0.31,1.047,-704.895,292.297,-21.18,
00:00:29:817,0.013,-0.256,1.056,-785.767,321.35,64.575,
00:00:29:833,0.054,-0.124,1.133,-819.764,264.099,89.965,
00:00:29:850,0.093,-0.084,1.183,-796.204,205.322,22.216,
00:00:29:867,0.095,-0.042,1.301,-664.795,-3.724,0.61,
00:00:29:883,0.116,-0.014,1.304,-612.793,-85.694,42.114,
00:00:29:900,0.088,0.043,1.315,-501.404,-183.35,88.623,
00:00:29:917,0.076,0.043,1.266,-341.553,-261.475,26.428,
00:00:29:933,0.03,0.014,1.203,-246.644,-351.38,-15.748,
00:00:29:950,-0.168,0.05,0.895,43.151,-228.272,44.189,
00:00:29:967,-0.169,0.031,0.728,135.07,-144.898,37.597,
00:00:29:983,-0.259,0.071,0.728,135.254,-119.141,23.437,
00:00:30:0,-0.248,0.09,0.711,206.054,33.02,22.888,
00:00:30:17,-0.237,0.126,0.656,172.79,125.061,52.795,
00:00:30:33,-0.184,0.19,0.722,243.53,194.397,134.46,
00:00:30:50,-0.107,0.178,0.85,351.135,237.487,64.697,
00:00:30:67,-0.033,0.072,0.927,410.034,251.098,2.014,
00:00:30:83,0.017,-0.039,0.925,370.178,283.386,68.481,
00:00:30:100,0.039,-0.063,1.022,293.457,251.403,177.856,
00:00:30:117,0.06,-0.107,1.114,250.549,235.778,121.46,
00:00:30:133,0.132,-0.274,1.202,163.94,172.424,64.392,
00:00:30:150,0.149,-0.408,1.234,21.667,23.315,-42.42,
00:00:30:167,-0.031,-0.345,1.13,-279.236,78.613,75.866,
00:00:30:183,-0.074,-0.048,1.138,-389.1,113.464,298.156,
00:00:30:200,0.082,0.06,0.916,78.186,78.918,52.368,
00:00:30:217,-0.123,-0.053,0.84,182.19,245.117,144.775,
00:00:30:233,-0.106,0.024,0.845,206.848,267.089,191.284,
00:00:30:250,-0.072,-0.001,0.807,298.645,313.171,161.804,
00:00:30:267,0.112,-0.129,1.033,242.065,302.002,195.19,
00:00:30:283,0.154,-0.181,0.86,126.342,299.011,191.589,
00:00:30:300,0.225,-0.171,1.054,-25.635,147.888,194.885,
00:00:30:317,0.159,-0.309,0.546,134.338,344.604,85.815,
00:00:30:333,0.232,-0.321,0.807,-123.108,92.59,152.954,
00:00:30:350,0.236,-0.222,0.742,-142.518,216.735,68.847,
00:00:30:367,0.886,-0.768,2.352,-518.311,-130.677,-60.303,
00:00:30:383,0.686,-0.124,0.106,129.821,115.966,-140.625,
00:00:30:400,0.13,-0.032,0.147,-394.349,-343.018,150.756,
00:00:30:417,-0.012,0.122,0.443,-453.186,-172.974,-375,
00:00:30:433,-0.04,0.033,0.564,-327.759,-35.584,-208.13,
00:00:30:450,0.073,-0.005,0.756,-183.777,182.006,-72.754,
00:00:30:467,0.154,-0.048,0.886,-125.672,143.432,-135.865,
00:00:30:483,0.113,-0.395,1.225,-505.555,181.884,-327.637,
00:00:30:500,0.31,0.152,1.159,-1038.758,5.92,-43.213,
00:00:30:517,0.13,0.273,1.126,-1093.689,-161.194,-186.402,
00:00:30:533,0.076,0.306,0.972,-1041.993,-89.173,-322.632,
00:00:30:550,0.04,0.453,0.795,-946.473,-132.447,-10.132,
00:00:30:567,0.014,0.519,0.741,-963.257,-95.337,149.902,
00:00:30:583,0.012,0.493,0.784,-525.757,74.768,29.907,
00:00:30:600,0.056,0.385,1.011,-193.177,105.529,37.658,
00:00:30:617,0.105,0.331,1.154,153.625,115.783,18.798,
00:00:30:633,0.172,0.107,1.219,137.634,72.815,-69.092,
00:00:30:650,0.292,-0.047,1.313,-218.75,-43.702,-110.84,
00:00:30:667,0.289,0.052,0.897,-534.363,-20.386,-58.716,
00:00:30:683,0.246,0.341,0.965,-1141.602,-203.37,152.649,
00:00:30:700,0.23,0.554,1.077,-959.778,-205.994,-71.412,
00:00:30:717,0.238,0.554,1.16,-843.75,-269.471,0.427,
00:00:30:733,0.222,0.535,1.155,-538.941,-289.124,-93.934,
00:00:30:750,0.202,0.475,0.969,-431.458,-294.678,-117.249,
00:00:30:767,0.185,0.529,0.882,-470.154,-302.796,-71.717,
00:00:30:783,0.141,0.644,0.871,-550.599,-316.224,-53.589,
00:00:30:800,0.087,0.64,0.908,-482.666,-313.721,-51.453,
00:00:30:817,0.076,0.703,0.9,-424.378,-293.885,58.044,
00:00:30:833,0.064,0.713,0.866,-450.806,-290.528,23.925,
00:00:30:850,0.033,0.727,0.799,-480.652,-291.138,-0.55,
00:00:30:867,-0.032,0.802,0.798,-437.989,-300.415,87.341,
00:00:30:883,-0.07,0.8,0.833,-387.757,-284.913,66.223,
00:00:30:900,-0.063,0.757,0.836,-259.705,-280.213,59.814,
00:00:30:917,-0.104,0.704,0.766,-134.034,-267.945,69.824,
00:00:30:933,-0.138,0.59,0.79,-104.798,-266.724,47.058,
00:00:30:950,-0.159,0.614,0.76,-50.232,-247.315,66.406,
00:00:30:967,-0.177,0.644,0.814,-98.755,-245.362,71.228,
00:00:30:983,-0.188,0.716,0.755,-103.516,-225.037,84.167,
00:00:31:0,-0.209,0.8,0.659,-45.411,-198.426,115.661,
00:00:31:17,-0.159,0.779,0.699,106.384,-168.457,128.845,
00:00:31:33,-0.139,0.815,0.683,401.367,-164.978,201.233,
00:00:31:50,-0.209,0.75,0.807,550.72,-167.298,182.373,
00:00:31:67,-0.188,0.631,0.766,729.675,-158.081,180.42,
00:00:31:83,-0.148,0.614,0.765,767.944,-161.438,245.3,
00:00:31:100,-0.12,0.571,0.789,758.117,-170.411,208.984,
00:00:31:117,-0.095,0.536,0.765,850.097,-183.716,240.6,
00:00:31:133,-0.084,0.546,0.713,932.861,-186.951,250.549,
00:00:31:150,-0.075,0.561,0.554,1070.434,-153.199,260.192,flipRH
00:00:31:167,-0.071,0.63,0.478,1215.332,-75.806,325.561,
00:00:31:183,-0.044,0.56,0.559,1452.27,-33.143,286.56,
00:00:31:200,-0.058,0.476,0.597,1767.944,-4.09,258.239,
00:00:31:217,-0.079,0.269,0.533,1994.262,71.289,189.209,
00:00:31:233,-0.073,0.18,0.395,1999.694,186.157,164.856,
00:00:31:250,-0.011,0.05,0.484,1999.694,233.093,215.088,
00:00:31:267,0.047,-0.047,0.56,1999.694,304.443,238.525,
00:00:31:283,0.074,-0.245,0.713,1999.694,329.101,367.248,
00:00:31:300,0.038,-0.303,0.623,1999.694,354.919,379.699,
00:00:31:317,0.045,-0.391,0.635,1940.246,311.95,367.859,
00:00:31:333,0.083,-0.428,0.649,1695.739,307.922,367.797,
00:00:31:350,0.132,-0.576,0.734,1446.96,263.183,375.671,
00:00:31:367,0.086,-0.638,0.727,1260.07,259.033,410.949,
00:00:31:383,0.027,-0.829,0.779,1034.24,263.366,471.862,
00:00:31:400,0.017,-0.98,0.724,937.866,321.655,533.935,
00:00:31:417,0.051,-1.052,0.697,849.365,247.985,473.266,
00:00:31:433,0.033,-1.215,0.632,784.668,185.547,211.364,
00:00:31:450,-0.096,-1.337,0.62,865.722,145.813,-2.93,
00:00:31:467,-0.158,-1.684,0.077,404.48,210.998,-184.388,
00:00:31:483,-0.205,-2.036,0.243,-287.476,60.424,-42.42,
00:00:31:500,-0.194,-1.899,0.472,-127.32,77.27,-382.935,
00:00:31:517,-0.111,-1.468,0.722,-966.126,20.69,-293.763,
00:00:31:533,-0.081,-1.167,0.599,-494.324,-6.348,-450.318,
00:00:31:550,-0.008,-1.097,0.678,-321.534,-84.107,-371.827,
00:00:31:567,0.031,-1.217,0.654,-250.672,-119.385,-386.963,
00:00:31:583,-0.026,-1.121,0.668,-96.68,-132.081,-399.353,
00:00:31:600,-0.013,-1.208,0.681,-52.796,-133.118,-376.282,
00:00:31:617,0.008,-1.264,0.627,84.411,-132.142,-405.701,
00:00:31:633,-0.08,-1.228,0.515,48.584,-141.785,-472.84,
00:00:31:650,-0.215,-0.938,0.613,-446.534,-146.058,-519.471,
00:00:31:667,-0.221,-1.026,0.626,-712.037,-27.039,-420.411,
00:00:31:683,-0.105,-0.861,0.654,-303.223,-90.821,-459.717,
00:00:31:700,-0.149,-0.8,0.64,-269.227,-49.195,-451.111,
00:00:31:717,-0.197,-0.754,0.644,-28.26,-45.594,-349.732,
00:00:31:733,-0.223,-0.689,0.693,300.476,-69.581,-304.932,
00:00:31:750,-0.37,-0.491,0.728,720.703,-53.223,-95.032,
00:00:31:767,-0.423,-0.537,0.662,490.539,20.263,21.057,
00:00:31:783,-0.403,-0.659,0.626,446.167,13.366,86.669,
00:00:31:800,-0.306,-0.549,0.72,329.956,7.446,222.412,
00:00:31:817,-0.257,-0.533,0.713,195.434,-22.156,313.964,
00:00:31:833,-0.265,-0.542,0.625,391.723,-73.426,341.186,
00:00:31:850,-0.298,-0.593,0.397,455.505,-28.443,339.538,
00:00:31:867,-0.265,-0.446,0.271,327.758,17.211,428.466,
00:00:31:883,-0.197,-0.453,0.38,196.167,-24.964,563.354,
00:00:31:900,-0.169,-0.488,0.465,424.499,-31.861,607.055,
00:00:31:917,-0.177,-0.584,0.401,540.405,13.671,590.82,
00:00:31:933,-0.095,-0.722,0.355,548.645,-6.409,542.053,
00:00:31:950,-0.044,-0.827,0.316,453.186,23.071,578.674,
00:00:31:967,-0.034,-0.784,0.326,213.44,-26.001,564.209,
00:00:31:983,0.062,-0.68,0.389,204.467,-69.519,545.959,
00:00:32:0,0.011,-0.883,0.275,676.757,-47.303,385.986,
00:00:32:17,0.054,-0.838,0.143,439.453,-11.841,431.091,
00:00:32:33,0.162,-0.95,0.083,562.744,-37.415,321.899,
00:00:32:50,0.242,-0.971,0.244,343.994,-62.256,364.135,
00:00:32:67,0.244,-0.964,0.334,193.298,-60.364,328.369,
00:00:32:83,0.313,-1.065,0.289,162.963,-31.434,206.604,
00:00:32:100,0.429,-1.093,0.216,113.037,-62.684,3.051,
00:00:32:117,0.505,-1.163,0.28,96.862,-130.921,-140.015,
00:00:32:133,0.501,-1.191,0.235,126.098,-136.536,-29.602,
00:00:32:150,0.407,-1.127,0.198,54.199,-148.926,-69.886,
00:00:32:167,0.344,-1.133,0.127,68.786,-126.831,-203.186,
00:00:32:183,0.335,-1.222,0.162,-57.923,-151.123,-362.977,
00:00:32:200,0.225,-1.065,0.22,-301.27,-84.229,-213.501,
00:00:32:217,0.144,-0.907,0.211,-312.806,-90.516,-288.331,
00:00:32:233,0.061,-0.816,0.243,-413.147,-49.012,-210.511,
00:00:32:250,-0.021,-0.7,0.224,-409.119,-1.77,-137.574,
00:00:32:267,-0.054,-0.669,0.187,-466.858,67.504,-91.431,
00:00:32:283,-0.038,-0.656,0.182,-456.727,155.944,19.836,
00:00:32:300,0.02,-0.569,0.185,-453.797,262.39,189.331,
00:00:32:317,0.067,-0.525,0.25,-397.522,223.266,246.399,
00:00:32:333,0.088,-0.547,0.365,-180.664,187.011,227.05,
00:00:32:350,0.119,-0.647,0.443,41.931,159.362,234.619,
00:00:32:367,0.139,-0.851,0.47,194.091,105.835,227.844,
00:00:32:383,0.11,-1.013,0.489,194.763,73.425,279.602,
00:00:32:400,0.102,-1.016,0.453,111.999,74.951,319.641,
00:00:32:417,-3.776,2.276,2.018,7918.377,3973.427,11457.982,
00:00:32:433,0.127,-0.904,0.401,228.759,-23.926,283.081,
00:00:32:450,0.11,-1.138,0.114,454.528,14.831,58.288,
00:00:32:467,0.122,-1.314,0.111,172.424,-31.067,63.476,
00:00:32:483,0.005,-0.999,0.028,-132.508,192.077,499.511,
00:00:32:500,0.135,-0.832,-0.023,-131.409,258.239,277.404,
00:00:32:517,0.299,-1.023,0.008,-125.855,305.42,176.452,
00:00:32:533,0.267,-1.136,0.103,-369.629,336.059,219.726,
00:00:32:550,0.498,-0.945,0.446,-453.431,459.289,477.295,
00:00:32:567,0.51,-1.568,0.087,730.896,271.057,-634.461,
00:00:32:583,0.476,-2.1,0.269,-126.282,302.795,-311.707,
00:00:32:600,0.423,-1.369,0.082,-1140.015,467.407,-68.604,
00:00:32:617,0.441,-0.662,0.091,-1469.91,491.577,-42.054,
00:00:32:633,0.455,-0.359,0.174,-1336.67,449.829,-6.958,
00:00:32:650,0.356,-0.36,0.324,-849.793,406.189,-249.146,
00:00:32:667,0.251,-0.644,0.318,-390.198,505.981,-382.691,
00:00:32:683,0.399,-0.834,0.24,-483.582,550.109,-376.77,
00:00:32:700,0.526,-0.809,0.486,-728.638,490.966,-231.934,
00:00:32:717,0.357,-0.73,0.521,-666.382,447.326,-260.804,
00:00:32:733,0.309,-0.762,0.64,-622.254,454.589,-313.477,
00:00:32:750,0.385,-0.772,0.57,-569.397,438.537,-369.202,
00:00:32:767,0.422,-0.678,0.661,-704.956,346.008,-277.1,
00:00:32:783,0.296,-0.466,0.639,-770.02,298.156,-232.117,
00:00:32:800,0.191,-0.399,0.57,-648.072,277.588,-286.438,
00:00:32:817,0.181,-0.511,0.498,-401.978,304.626,-244.019,
00:00:32:833,0.222,-0.634,0.576,-323.365,307.312,-168.702,
00:00:32:850,0.216,-0.704,0.547,-297.12,347.839,-116.456,
00:00:32:867,0.247,-0.786,0.437,-356.446,403.259,-184.815,
00:00:32:883,0.39,-0.738,0.511,-633.973,404.663,-141.297,
00:00:32:900,0.41,-0.541,0.601,-897.767,360.717,-66.04,
00:00:32:917,0.347,-0.447,0.658,-820.191,343.078,-73.304,
00:00:32:933,0.379,-0.473,0.862,-817.688,278.076,-132.874,
00:00:32:950,0.935,-0.56,2.104,-1022.461,-181.702,-202.637,
00:00:32:967,0.414,-1.093,0.686,1239.746,-49.317,-523.255,
00:00:32:983,0.416,-1.121,0.626,-332.52,-34.668,-166.504,
00:00:33:0,0.468,-0.411,0.684,-1023.743,-28.321,129.089,
00:00:33:17,0.35,-0.16,0.915,-553.956,-58.472,-56.397,
00:00:33:33,0.278,-0.391,0.942,166.748,-38.941,-72.144,
00:00:33:50,0.287,-0.705,0.827,422.912,4.211,-118.775,
00:00:33:67,0.288,-0.844,0.755,83.374,-8.667,-59.082,
00:00:33:83,0.291,-0.631,0.828,-243.287,-21.851,55.481,
00:00:33:100,0.231,-0.437,0.909,-142.395,-62.5,71.899,
00:00:33:117,0.167,-0.519,0.944,147.583,-104.981,-10.865,
00:00:33:133,0.168,-0.748,0.959,128.296,-166.26,-45.472,
00:00:33:150,0.199,-0.686,0.902,-113.16,-205.628,-0.611,
00:00:33:167,0.184,-0.471,0.898,-189.576,-242.554,73.364,
00:00:33:183,0.132,-0.347,0.814,76.416,-230.896,89.477,
00:00:33:200,0.12,-0.506,0.836,375.793,-186.341,75.134,
00:00:33:217,0.19,-0.703,0.745,481.445,-162.354,39.001,
00:00:33:233,0.225,-0.882,0.746,342.102,-146.119,38.635,
00:00:33:250,0.144,-0.989,0.633,138.122,-115.235,67.321,
00:00:33:267,0.268,-0.77,0.584,-696.778,-41.932,103.82,
00:00:33:283,0.458,-0.038,0.603,-1318.604,-92.347,472.412,
00:00:33:300,0.251,0.151,0.802,-1073.548,-198.975,499.45,
00:00:33:317,-0.014,-0.116,0.844,67.871,-158.448,354.187,
00:00:33:334,0.192,-0.448,0.644,424.743,-131.226,218.628,
00:00:33:350,0.285,-0.742,0.592,277.526,-151.123,122.253,
00:00:33:367,0.372,-0.814,0.511,-25.147,-85.144,244.812,
00:00:33:384,0.26,-0.924,0.45,-166.748,-27.649,98.449,
00:00:33:400,0.336,-0.999,0.413,-409.546,87.097,-30.701,
00:00:33:417,0.487,-0.832,0.342,-516.297,119.262,18.066,
00:00:33:434,0.449,-0.844,0.513,-466.553,59.631,-52.124,
00:00:33:450,0.376,-0.743,0.455,-487.366,221.191,-55.359,
00:00:33:467,0.435,-0.638,0.511,-674.805,265.442,-215.394,
00:00:33:484,0.482,-0.549,0.646,-1110.291,251.403,-184.388,
00:00:33:500,0.469,-0.185,0.548,-1457.459,352.295,17.456,
00:00:33:517,0.471,0.061,0.72,-1455.262,220.276,0.183,
00:00:33:534,0.402,0.101,0.864,-1336.976,169.738,-19.715,
00:00:33:550,0.32,0.033,0.879,-998.841,138.733,-65.43,
00:00:33:567,0.313,-0.075,0.898,-852.295,139.465,-108.399,
00:00:33:584,0.411,-0.12,1.021,-970.643,86.059,-25.94,
00:00:33:600,0.393,-0.211,1.115,-855.713,41.503,-31.556,
00:00:33:617,0.386,-0.312,1.266,-815.613,-67.627,-88.135,
00:00:33:634,0.332,-0.356,1.111,-941.468,-78.736,-71.351,
00:00:33:650,0.374,-0.105,1.048,-1207.764,-127.564,-34.913,
00:00:33:667,0.402,0.072,1.075,-1177.857,-215.516,-103.455,
00:00:33:684,0.373,0.169,1.058,-1023.194,-235.657,-41.382,
00:00:33:700,0.295,0.105,1.098,-746.827,-251.831,-24.048,
00:00:33:717,0.209,0.036,1.083,-440.857,-254.517,-120.911,
00:00:33:734,0.187,-0.01,0.99,-444.947,-228.577,-140.381,
00:00:33:750,0.261,0.077,0.999,-613.404,-236.634,-170.716,
00:00:33:767,0.319,0.157,1.035,-721.802,-247.986,-198.182,
00:00:33:784,0.294,0.281,1.054,-795.96,-256.348,-105.225,
00:00:33:800,0.239,0.335,1.04,-781.128,-262.024,-24.659,
00:00:33:817,0.204,0.336,1.123,-722.168,-303.956,-28.87,
00:00:33:834,0.17,0.361,1.028,-604.676,-272.522,-117.249,
00:00:33:850,0.16,0.357,1.048,-474.488,-290.65,-86.365,
00:00:33:867,0.14,0.4,1.075,-476.075,-279.297,-55.664,
00:00:33:884,0.106,0.428,1.102,-510.56,-268.738,-52.613,
00:00:33:900,0.082,0.433,1.114,-527.527,-256.226,-28.199,
00:00:33:917,0.064,0.474,1.076,-522.644,-242.859,5.981,
00:00:33:934,0.047,0.535,1.011,-519.043,-243.103,66.772,
00:00:33:950,0.003,0.517,1.01,-481.446,-260.865,222.473,
00:00:33:967,-0.014,0.532,0.943,-594.483,-266.785,551.208,
00:00:33:984,-0.037,0.587,0.934,-992.615,-335.816,901.794,
00:00:34:0,0.042,0.47,1.042,-1164.185,-310.975,971.923,
00:00:34:17,-0.004,0.594,0.961,-896.058,-243.409,1056.457,
00:00:34:34,-0.095,0.94,0.941,-866.211,-128.724,1161.865,
00:00:34:50,-0.137,1.258,0.512,158.508,-293.03,282.776,
00:00:34:67,-0.059,0.621,0.611,1281.921,-41.138,402.771,
00:00:34:84,-0.002,0.533,0.625,1299.011,-129.09,342.834,
00:00:34:100,0.021,0.578,0.584,1197.021,-95.154,374.939,
00:00:34:117,-0.005,0.65,0.628,1345.52,-133.912,464.538,
00:00:34:134,-0.003,0.526,0.668,1668.945,-101.624,419.616,
00:00:34:150,0.035,0.322,0.578,1983.093,-77.088,362.243,
00:00:34:167,0.043,0.252,0.56,1999.694,-107.056,381.347,flipRH
00:00:34:184,0.04,0.087,0.447,1999.694,-59.815,360.778,
00:00:34:200,0.034,0.036,0.381,1999.694,-25.452,342.895,
00:00:34:217,0.066,-0.057,0.385,1999.694,-32.532,370.91,
00:00:34:234,0.078,-0.081,0.432,1999.694,-12.879,388.244,
00:00:34:250,0.056,-0.11,0.429,1999.694,-29.114,429.748,
00:00:34:267,0.039,-0.21,0.471,1999.694,29.846,418.09,
00:00:34:284,0.063,-0.269,0.554,1999.694,122.558,416.931,
00:00:34:300,0.103,-0.232,0.554,1999.694,241.699,144.531,
00:00:34:317,0.125,-0.32,0.546,1995.117,357.544,-181.946,
00:00:34:334,0.117,-0.356,0.542,1921.814,450.134,-327.881,
00:00:34:350,0.104,-0.465,0.578,1620.788,183.715,-532.227,
00:00:34:367,-0.038,-0.799,0.36,1510.925,-258.423,-461.182,
00:00:34:384,-0.037,-1.006,0.579,1688.171,-149.964,50.659,
00:00:34:400,-0.112,-0.599,0.14,1491.394,116.455,417.968,
00:00:34:417,-0.02,-1.54,0.205,1107.971,-107.117,173.034,
00:00:34:434,-0.126,-1.921,0.31,610.412,9.277,302.063,
00:00:34:450,-0.288,-1.831,0.449,-649.109,216.247,622.741,
00:00:34:467,-0.206,-1.583,0.342,-813.172,245.117,177.917,
00:00:34:484,0.265,-2.626,1.465,-820.069,24.108,-57.862,
00:00:34:500,-0.427,-1.23,0.28,-636.109,310.241,-219.056,
00:00:34:517,-0.34,-1.835,0.421,-871.277,289.184,-359.559,
00:00:34:534,-0.135,-1.165,0.934,-600.22,164.55,-547.913,
00:00:34:550,-0.203,-1.06,0.548,-753.907,76.66,-515.442,
00:00:34:567,-0.208,-1,0.684,-533.936,66.406,-458.863,
00:00:34:584,-0.13,-0.9,0.703,-179.932,-77.637,-480.164,
00:00:34:600,-0.171,-0.902,0.632,-374.268,-29.602,-415.833,
00:00:34:617,-0.169,-0.874,0.594,-77.515,-35.035,-358.033,
00:00:34:634,-0.168,-0.968,0.542,-116.272,-21.241,-364.808,
00:00:34:650,-0.153,-1.046,0.58,-146.851,4.333,-339.539,
00:00:34:667,-0.142,-1.036,0.611,-408.143,9.155,-416.504,
00:00:34:684,-0.109,-0.982,0.656,-637.085,16.723,-458.802,
00:00:34:700,-0.095,-0.87,0.659,-826.844,6.347,-501.954,
00:00:34:717,-0.1,-0.765,0.683,-964.783,-9.095,-530.579,
00:00:34:734,-0.105,-0.693,0.743,-1045.472,-23.987,-550.354,
00:00:34:750,-0.107,-0.668,0.776,-1107.361,-56.397,-573.182,
00:00:34:767,-0.121,-0.63,0.761,-1198.304,-72.998,-604.615,
00:00:34:784,-0.128,-0.641,0.724,-1325.44,-60.852,-626.343,
00:00:34:800,-0.108,-0.576,0.672,-1362.183,-49.561,-631.287,
00:00:34:817,-0.104,-0.453,0.672,-1406.373,-53.101,-622.864,
00:00:34:834,-0.112,-0.326,0.705,-1358.826,-64.881,-626.526,
00:00:34:850,-0.095,-0.236,0.733,-1266.663,-87.159,-631.714,
00:00:34:867,-0.139,-0.177,0.748,-1155.152,-97.962,-645.935,
00:00:34:884,-0.165,-0.121,0.78,-1076.05,-124.268,-680.237,
00:00:34:900,-0.208,-0.075,0.794,-1004.456,-131.714,-706.299,
00:00:34:917,-0.256,-0.026,0.792,-937.195,-124.512,-721.558,
00:00:34:934,-0.262,0.011,0.695,-809.021,-45.472,-718.75,
00:00:34:950,-0.233,0.044,0.634,-812.561,-12.024,-686.585,
00:00:34:967,-0.267,0.167,0.624,-793.763,27.343,-651.123,
00:00:34:984,-0.358,0.129,0.893,-705.262,20.202,-734.62,
00:00:35:0,-0.427,0.193,0.764,-568.177,92.041,-613.099,
00:00:35:17,-0.398,0.062,0.835,-805.115,101.562,-576.111,
00:00:35:34,-0.435,0.183,0.704,-969.666,118.713,-570.679,
00:00:35:50,-0.414,0.384,0.664,-1154.236,137.817,-517.823,
00:00:35:67,-0.332,0.398,0.564,-1181.336,149.658,-497.986,
00:00:35:84,-0.382,0.639,0.494,-1256.531,105.713,-343.934,
00:00:35:100,-0.444,0.677,0.575,-1490.662,148.01,-461.487,
00:00:35:117,-0.455,0.696,0.444,-1566.041,261.535,-691.163,
00:00:35:134,-0.576,0.908,0.638,-1800.232,284.362,-623.658,
