TIMECODE,ACC_X,ACC_Y,ACC_Z,GYR_X,GYR_Y,GYR_Z,ECG_I,ECG_II,ECG_III,TAG
,-0.107,0.426,0.877,-9.156,7.568,-38.514,0,0,0,
,-0.067,0.432,0.881,-47.303,-6.653,-35.462,0,0,0,
,-0.087,0.432,0.894,-45.594,-11.902,-36.377,0,0,0,
,-0.109,0.438,0.896,-44.678,-15.259,-32.837,0,0,0,
,-0.119,0.444,0.905,-42.42,-15.686,-39.917,0,0,0,
,-0.116,0.447,0.898,-33.265,-13.855,-37.72,0,0,0,
,-0.105,0.435,0.893,-31.067,-12.513,-45.227,0,0,0,
,-0.089,0.425,0.883,-39.673,-9.888,-45.35,0,0,0,
,-0.082,0.42,0.883,-49.012,-12.391,-41.077,0,0,0,
,-0.099,0.44,0.913,-50.11,-18.128,-38.086,0,0,0,
,-0.121,0.461,0.899,-42.481,-15.076,-27.1,0,0,0,
,-0.12,0.463,0.902,-31.25,-20.508,-33.326,0,0,0,
,-0.115,0.46,0.891,-14.405,-17.212,-26.734,0,0,0,
,-0.113,0.436,0.877,-2.686,-13.001,-30.03,0,0,0,
,-0.108,0.418,0.882,-12.33,-13.977,-33.143,0,0,0,
,-0.108,0.431,0.893,-37.903,-19.288,-26.062,0,0,0,
,-0.111,0.445,0.901,-44.556,-27.283,-26.795,0,0,0,
,-0.108,0.459,0.911,-29.786,-27.1,-23.255,0,0,0,
,-0.115,0.455,0.89,-7.935,-21.058,-20.874,0,0,0,
,-0.12,0.433,0.874,-9.827,-16.114,-28.626,0,0,0,
,-0.128,0.423,0.863,-31.922,-8.24,-24.598,0,0,0,
,-0.127,0.441,0.879,-60.547,-12.024,-26.307,0,0,0,
,-0.125,0.462,0.896,-61.219,-8.973,-22.095,0,0,0,
,-0.126,0.467,0.913,-26.185,-6.958,-23.316,0,0,0,
,-0.115,0.424,0.867,-23.987,-3.907,-20.325,0,0,0,
,-0.114,0.431,0.86,-55.359,-6.165,-12.391,0,0,0,
,-0.123,0.45,0.871,-57.679,2.38,-12.269,0,0,0,
,-0.136,0.452,0.883,-43.885,6.469,-6.287,0,0,0,
,-0.138,0.461,0.906,-21.912,9.155,-18.067,0,0,0,
,-0.146,0.462,0.888,-20.508,15.869,-15.442,0,0,0,
,-0.13,0.448,0.878,-21.668,20.507,-24.598,0,0,0,
,-0.109,0.443,0.869,-27.527,22.827,-24.292,0,0,0,
,-0.113,0.444,0.867,-34.485,24.231,-24.781,0,0,0,
,-0.129,0.456,0.884,-35.401,22.094,-24.903,0,0,0,
,-0.145,0.463,0.906,-32.349,16.662,-25.269,0,0,0,
,-0.146,0.473,0.893,-21.058,16.174,-24.598,0,0,0,
,-0.136,0.457,0.881,-12.024,21.362,-31.067,0,0,0,
,-0.121,0.446,0.866,-14.344,20.507,-27.832,0,0,0,
,-0.121,0.444,0.866,-25.757,18.981,-27.1,0,0,0,
,-0.126,0.445,0.879,-37.781,16.662,-30.03,0,0,0,
,-0.126,0.464,0.896,-37.171,13.488,-28.504,0,0,0,
,-0.136,0.468,0.892,-24.659,14.77,-28.077,0,0,0,
,-0.133,0.465,0.888,-6.409,30.761,-34.241,0,0,0,
,-0.13,0.442,0.868,-9.522,17.211,-32.288,0,0,0,
,-0.137,0.448,0.874,-24.598,12.817,-26.123,0,0,0,
,-0.135,0.459,0.878,-31.8,14.709,-28.809,0,0,0,
,-0.13,0.465,0.893,-22.95,12.695,-27.344,0,0,0,
,-0.128,0.476,0.909,-6.226,6.225,-27.405,0,0,0,
,-0.137,0.466,0.886,16.357,9.277,-30.884,0,0,0,
,-0.126,0.454,0.873,14.465,5.676,-36.56,0,0,0,
,-0.128,0.449,0.862,-2.015,5.798,-33.692,0,0,0,
,-0.138,0.458,0.866,-5.677,5.737,-34.18,0,0,0,
,-0.132,0.456,0.895,-9.583,3.418,-35.828,0,0,0,
,-0.146,0.458,0.898,-2.32,8.483,-33.02,0,0,0,
,-0.138,0.453,0.882,10.437,11.413,-36.56,0,0,0,
,-0.118,0.435,0.869,0.915,19.104,-36.377,0,0,0,
,-0.12,0.439,0.873,-19.349,15.747,-30.152,0,0,0,
,-0.138,0.457,0.884,-25.635,18.31,-29.847,0,0,0,
,-0.145,0.477,0.913,-13.672,14.526,-31.067,0,0,0,
,-0.159,0.457,0.881,-9.095,25.512,-34.058,0,0,0,
,-0.123,0.443,0.878,-18.372,24.047,-38.941,0,0,0,
,-0.115,0.442,0.863,-28.26,22.949,-32.715,0,0,0,
,-0.124,0.446,0.87,-33.387,21.24,-32.044,0,0,0,
,-0.133,0.443,0.881,-50.232,26.916,-38.636,0,0,0,
,-0.13,0.454,0.901,-61.768,19.592,-35.706,0,0,0,
,-0.132,0.469,0.89,-59.388,26.672,-32.898,0,0,0,
,-0.137,0.467,0.876,-43.58,24.108,-38.147,0,0,0,
,-0.13,0.464,0.866,-35.645,29.419,-36.133,0,0,0,
,-0.127,0.458,0.876,-56.702,30.578,-40.345,0,0,0,
,-0.123,0.469,0.885,-55.115,24.841,-43.702,0,0,0,
,-0.134,0.481,0.915,-33.02,19.104,-39.368,0,0,0,
,-0.139,0.474,0.869,-16.48,25.024,-40.162,0,0,0,
,-0.12,0.453,0.854,-21.79,26.184,-48.462,0,0,0,
,-0.117,0.463,0.858,-33.265,27.465,-36.011,0,0,0,
,-0.131,0.465,0.872,-29.053,29.296,-38.941,0,0,0,
,-0.124,0.467,0.876,-26.123,32.409,-38.819,0,0,0,
,-0.124,0.482,0.904,-22.583,19.592,-36.927,0,0,0,
,-0.139,0.494,0.906,-5.127,23.742,-31.8,0,0,0,
,-0.136,0.481,0.873,16.54,28.32,-38.025,0,0,0,
,-0.114,0.449,0.86,22.094,30.029,-43.213,0,0,0,
,-0.112,0.447,0.854,-8.545,30.395,-37.964,0,0,0,
,-0.118,0.463,0.865,-30.213,32.043,-44.373,0,0,0,
,-0.122,0.481,0.882,-20.386,35.949,-50.293,0,0,0,
,-0.126,0.488,0.897,8.3,35.095,-50.721,0,0,0,
,-0.131,0.475,0.898,31.921,40.222,-49.439,0,0,0,
,-0.12,0.445,0.884,27.526,38.024,-48.768,0,0,0,
,-0.107,0.431,0.874,2.563,35.034,-41.199,0,0,0,
,-0.105,0.445,0.866,-26.246,32.592,-43.03,0,0,0,
,-0.115,0.466,0.877,-27.344,31.494,-47.425,0,0,0,
,-0.12,0.479,0.877,-9.217,34.912,-51.941,0,0,0,
,-0.115,0.478,0.895,14.343,32.409,-50.965,0,0,0,
,-0.118,0.462,0.881,21.301,27.648,-46.326,0,0,0,
,-0.109,0.444,0.883,5.798,20.996,-46.57,0,0,0,
,-0.097,0.447,0.875,-15.625,11.535,-38.331,0,0,0,
,-0.109,0.453,0.879,-26.49,13.305,-43.091,0,0,0,
,-0.112,0.469,0.878,-19.837,14.282,-42.542,0,0,0,
,-0.116,0.468,0.883,-8.179,15.625,-45.289,0,0,0,
,-0.115,0.463,0.888,-2.076,17.822,-40.528,0,0,0,
,-0.117,0.456,0.885,-14.039,15.319,-35.828,0,0,0,
,-0.116,0.453,0.881,-21.851,13.855,-36.194,0,0,0,
,-0.105,0.451,0.881,-23.621,16.784,-34.363,0,0,0,
,-0.106,0.454,0.874,-27.222,18.127,-32.837,0,0,0,
,-0.103,0.456,0.877,-27.039,22.399,-32.471,0,0,0,
,-0.112,0.459,0.9,-20.203,40.161,-36.133,0,0,0,
,-0.117,0.481,0.863,23.803,69.885,-28.931,0,0,0,
,-0.099,0.483,0.882,88.928,59.326,-44.922,0,0,0,
,-0.105,0.454,0.892,112.609,50.109,-38.514,0,0,0,
,-0.102,0.439,0.892,99.487,44.25,-38.514,0,0,0,
,-0.101,0.444,0.89,73.791,35.644,-34.241,0,0,0,
,-0.105,0.446,0.893,54.504,32.531,-36.683,0,0,0,
,-0.103,0.422,0.886,14.648,26.245,-42.298,0,0,0,
,-0.094,0.416,0.89,-26.673,19.592,-32.654,0,0,0,
,-0.098,0.446,0.896,-36.377,16.662,-26.246,0,0,0,
,-0.104,0.443,0.896,-20.935,16.052,-24.109,0,0,0,
,-0.098,0.422,0.891,-20.997,18.249,-17.762,0,0,0,
,-0.093,0.415,0.899,-39.917,6.958,-9.888,0,0,0,
,-0.097,0.432,0.897,-62.317,3.784,1.709,0,0,0,
,-0.106,0.452,0.894,-63.172,-1.343,0.854,0,0,0,
,-0.107,0.461,0.893,-50.049,4.333,3.479,0,0,0,
,-0.106,0.452,0.877,-31.678,14.465,0.427,0,0,0,
,-0.098,0.453,0.871,-8.912,19.47,-3.663,0,0,0,
,-0.099,0.441,0.872,-13.428,19.897,-14.893,0,0,0,
,-0.105,0.437,0.886,-42.786,15.136,-20.997,0,0,0,
,-0.105,0.463,0.91,-69.947,3.234,-32.593,0,0,0,
,-0.122,0.491,0.902,-47.486,0.122,-31.434,0,0,0,
,-0.125,0.485,0.883,5.981,10.131,-47.364,0,0,0,
,-0.104,0.455,0.865,47.668,15.808,-55.603,0,0,0,
,-0.095,0.432,0.878,32.287,5.615,-54.627,0,0,0,
,-0.103,0.423,0.885,-8.851,-1.099,-51.88,0,0,0,
,-0.105,0.447,0.912,-33.081,-11.658,-48.89,0,0,0,
,-0.119,0.461,0.901,-30.335,-5.616,-46.814,0,0,0,
,-0.115,0.447,0.889,-9.583,5.065,-48.89,0,0,0,
,-0.105,0.434,0.877,-0.245,15.075,-42.603,0,0,0,
,-0.108,0.435,0.882,-3.174,21.972,-37.415,0,0,0,
,-0.106,0.445,0.902,-4.212,29.296,-35.828,0,0,0,
,-0.114,0.45,0.894,-8.545,33.02,-30.152,0,0,0,
,-0.11,0.449,0.898,-3.174,29.419,-30.762,0,0,0,
,-0.109,0.444,0.888,-8.301,46.447,-28.199,0,0,0,
,-0.102,0.439,0.877,-10.071,33.447,-29.175,0,0,0,
,-0.095,0.439,0.873,-17.945,36.315,-35.767,0,0,0,
,-0.101,0.444,0.895,-22.4,34.362,-34.485,0,0,0,
,-0.11,0.464,0.903,-11.292,29.541,-34.79,0,0,0,
,-0.111,0.463,0.904,10.986,29.48,-35.523,0,0,0,
,-0.113,0.454,0.881,22.522,35.766,-32.898,0,0,0,
,-0.099,0.42,0.876,28.32,44.128,-30.579,0,0,0,
,-0.085,0.407,0.882,-5.494,50.72,-27.71,0,0,0,
,-0.095,0.425,0.894,-40.772,56.457,-21.973,0,0,0,
,-0.115,0.462,0.909,-46.998,78.369,-13.428,0,0,0,
,-0.121,0.477,0.92,-6.775,109.863,-13.916,0,0,0,
,-0.139,0.455,0.98,56.823,166.992,16.845,0,0,0,
,-0.103,0.437,1.083,96.069,197.143,34.484,0,0,0,
,-0.095,0.429,1.108,122.436,195.984,69.885,0,0,0,
,-0.168,0.616,1.38,559.326,138.916,151.55,0,0,0,
,-0.382,0.513,1.555,994.751,291.931,229.126,0,0,0,
,-0.259,0.355,1.901,1259.033,398.864,164.184,0,0,0,
,0.45,0.611,2.531,1021.179,-26.551,232.727,0,0,0,
,0.648,0.35,2.588,755.554,-654.847,263.061,0,0,0,
,0.748,0.727,2.998,360.107,-1413.27,459.777,0,0,0,
,0.546,1.078,3.057,538.391,-1993.775,558.105,0,0,0,
,0.504,0.787,1.785,1190.002,-2000,671.386,0,0,0,
,0.497,0.983,1.181,1018.127,-2000,858.337,0,0,0,
,0.508,1.055,0.673,1296.142,-2000,1023.132,0,0,0,
,0.643,0.891,0.33,1878.601,-2000,1053.833,0,0,0,
,1.224,0.29,-0.296,1748.23,-2000,783.63,0,0,0,
,1.291,0.368,-0.723,1247.436,-2000,761.779,0,0,0,
,1.237,0.222,-1.585,623.901,-2000,840.82,0,0,0,
,1.017,0.312,-2.449,261.047,-2000,847.107,0,0,0,
,0.513,0.156,-2.431,458.191,-1976.807,990.356,0,0,0,
,-0.203,-0.181,-2.416,734.497,-793.58,875.061,0,0,0,
,0.072,-0.762,-1.405,-921.936,1765.319,215.637,0,0,0,
,-0.079,-0.798,-1.327,-1957.093,1999.694,-124.756,0,0,0,
,-0.104,-0.719,-1.31,-2000,1999.694,-594.666,0,0,0,
,0.108,-0.613,-1.24,-2000,1999.694,-1176.026,0,0,0,
,0.222,0.112,-0.481,-2000,1999.694,-2000,0,0,0,
,-0.088,-0.065,-0.237,-1506.775,1999.694,-2000,0,0,0,
,-0.141,-0.231,0.026,-1350.831,1999.694,-2000,0,0,0,
,0.161,0.186,0.563,-1786.622,1999.694,-2000,0,0,0,
,0.277,0.61,0.762,-2000,1999.694,-2000,0,0,0,
,0.22,1.054,1,-2000,1999.694,-2000,0,0,0,
,0.445,1.656,1.071,-2000,1968.689,-1909.852,0,0,0,
,0.643,2.204,1.131,-1632.813,1710.144,-1658.265,0,0,0,
,0.472,2.421,1.281,-332.947,1517.089,-1347.657,0,0,0,
,0.07,1.898,1.432,1247.009,1568.908,-1045.533,0,0,0,
,0.145,1.199,1.869,1879.455,1508.85,-757.447,0,0,0,
,0.188,0.414,1.462,-661.622,329.895,-141.785,0,0,0,
,0.188,1.901,2.103,166.809,65.551,335.388,0,0,0,
,-0.168,0.085,1.77,685.608,326.66,-303.833,0,0,0,
,-0.246,-0.47,1.1,177.246,57.128,-289.978,0,0,0,
,-0.067,0.088,0.718,-956.238,-116.7,94.36,0,0,0,
,0.141,0.639,0.802,-1068.482,-134.888,207.336,0,0,0,
,0.009,0.67,0.791,-160.157,91.857,-35.096,0,0,0,
,-0.024,0.475,0.88,354.553,157.043,15.38,0,0,0,
,0.032,0.282,0.9,231.14,76.965,-32.288,0,0,0,
,0.027,0.308,0.842,-122.742,-25.94,0.915,0,0,0,
,-0.042,0.665,0.859,-285.157,-200.501,-19.959,0,0,0,
,-0.112,0.709,0.863,-43.58,-164.551,-31.739,0,0,0,
,-0.168,0.609,0.808,192.505,-135.498,-43.519,0,0,0,
,-0.136,0.445,0.997,238.281,-98.999,-79.529,0,0,0,
,-0.065,0.397,0.991,65.124,-163.819,-85.694,0,0,0,
,0.018,0.359,0.954,55.725,-154.969,-44.129,0,0,0,
,-0.002,0.305,0.97,17.273,-137.085,-66.285,0,0,0,
,0.017,0.33,1.001,-54.81,-199.463,3.784,0,0,0,
,0.04,0.512,1.117,98.999,-146.18,34.24,0,0,0,
,0.114,0.568,0.921,285.278,-254.09,-55.481,0,0,0,
,0.107,0.505,0.888,383.3,-310.181,2.197,0,0,0,
,0.005,0.364,0.897,664.062,-299.988,-89.295,0,0,0,
,-0.089,0.2,0.892,872.436,-247.559,-164.124,0,0,0,
,-0.12,0.153,0.943,824.096,-268.738,-235.84,0,0,0,
,-0.131,0.171,0.969,675.72,-309.693,-302.857,0,0,0,
,-0.117,0.187,1.046,717.895,-334.229,-383.118,0,0,0,
,-0.112,0.184,1.037,839.111,-306.458,-435.12,0,0,0,
,-0.149,0.212,1.079,873.779,-311.219,-442.078,0,0,0,
,-0.203,0.209,1.034,857.788,-312.806,-496.277,0,0,0,
,-0.252,0.203,0.975,872.253,-295.35,-532.837,0,0,0,
,-0.272,0.246,0.984,910.217,-239.502,-505.982,0,0,0,
,-0.336,0.277,0.889,944.641,-134.461,-454.102,0,0,0,
,-0.346,0.238,0.887,940.612,-36.255,-360.962,0,0,0,
,-0.307,0.091,0.824,773.01,42.297,-247.315,0,0,0,
,-0.283,-0.055,0.804,492.981,66.589,-205.628,0,0,0,
,-0.299,-0.068,0.834,164.062,50.842,-197.998,0,0,0,
,-0.318,0.004,0.894,51.635,61.767,-173.096,0,0,0,
,-0.281,0.048,0.907,81.604,95.214,-93.506,0,0,0,
,-0.334,0.083,0.897,105.651,121.704,-79.163,0,0,0,
,-0.294,0.002,0.881,90.576,138.122,-89.173,0,0,0,
,-0.206,-0.111,0.854,72.204,176.941,-51.087,0,0,0,
,-0.159,-0.122,0.899,-38.269,152.649,-59.937,0,0,0,
,-0.213,-0.007,0.892,-120.545,105.529,-61.951,0,0,0,
,-0.26,0.005,1.001,46.142,137.329,-82.398,0,0,0,
,-0.24,0.033,1.019,225.402,156.005,-49.317,0,0,0,
,-0.188,0.016,1.069,417.602,197.815,-27.1,0,0,0,
,-0.072,-0.338,0.958,-219.91,205.261,-28.748,0,0,0,
,-0.141,-0.036,1.13,-613.526,21.606,1.831,0,0,0,
,-0.129,0.223,1.159,-553.833,43.151,-2.137,0,0,0,
,-0.083,0.389,1.252,-353.089,-2.381,50.476,0,0,0,
,-0.185,0.285,1.159,-94.849,6.591,71.777,0,0,0,
,-0.162,0.095,1.223,1.098,1.77,126.831,0,0,0,
,-0.087,-0.036,1.15,-183.472,-83.252,197.815,0,0,0,
,-0.011,0.024,1.191,-413.086,-242.981,221.801,0,0,0,
,-0.052,0.114,1.15,-465.516,-365.235,258.972,0,0,0,
,-0.209,0.146,1.106,-184.937,-391.541,348.816,0,0,0,
,-0.176,0.026,1.119,-64.026,-377.93,347.412,0,0,0,
,-0.17,-0.181,1.199,-117.432,-395.997,320.19,0,0,0,
,-0.154,-0.26,1.21,-325.44,-529.541,317.443,0,0,0,
,-0.29,-0.167,0.991,-524.048,-619.69,300.903,0,0,0,
,-0.48,-0.118,0.797,-847.779,-533.936,266.296,0,0,0,
,-0.524,-0.123,0.799,-1017.395,-501.526,248.535,0,0,0,
,-0.462,-0.214,0.675,-989.38,-371.888,154.663,0,0,0,
,-0.365,-0.053,0.697,-953.003,-373.352,160.827,0,0,0,
,-0.372,0.139,0.463,-1303.833,-153.687,179.382,0,0,0,
,-0.31,0.078,0.395,-1718.079,-110.108,26.123,0,0,0,
,-0.354,0.168,0.434,-1903.138,-7.264,15.564,0,0,0,
,-0.667,0.769,0.45,-1797.364,132.08,31.25,0,0,0,
,-0.523,0.707,0.537,-1093.323,251.037,-45.289,0,0,0,
,-0.31,0.615,0.535,-618.592,300.903,-73.731,0,0,0,
,-0.319,0.566,0.439,-679.505,321.411,-9.217,0,0,0,
,-0.491,0.612,0.526,-766.602,359.619,-61.768,0,0,0,
,-0.53,0.731,0.383,-802.308,476.989,-61.219,0,0,0,
,-0.409,0.935,0.464,-930.909,559.631,-94.605,0,0,0,
,-0.264,0.941,0.526,-805.848,566.223,-124.146,0,0,0,
,-0.338,1.134,0.586,-381.775,550.354,22.033,0,0,0,
,-0.382,1.071,0.496,204.712,555.297,50.964,0,0,0,
,-0.142,0.778,0.61,807.067,620.056,-63.965,0,0,0,
,-0.196,0.526,0.926,523.62,445.922,79.956,0,0,0,
,-0.187,0.62,0.853,389.831,364.318,93.2,0,0,0,
,-0.273,0.721,0.798,432.8,283.142,64.88,0,0,0,
,-0.304,0.55,0.77,726.196,323.12,7.934,0,0,0,
,-0.181,0.38,0.816,932.067,346.374,-6.287,0,0,0,
,-0.097,0.257,0.903,846.496,341.186,-27.283,0,0,0,
,-0.129,0.419,0.826,86.364,249.572,-93.445,0,0,0,
,-0.109,0.525,0.772,12.878,232.727,-84.412,0,0,0,
,-0.05,0.5,0.774,294.922,307.373,-129.822,0,0,0,
,0.041,0.327,0.892,648.254,371.765,-199.402,0,0,0,
,0.029,0.186,0.837,327.331,401.123,-170.899,0,0,0,
,0.035,0.171,0.701,-250,384.399,-222.962,0,0,0,
,0.002,0.272,0.818,-479.798,332.519,-230.652,0,0,0,
,0.267,1.294,1.358,-289.917,145.568,38.513,0,0,0,
,-0.023,1.216,0.92,726.867,240.6,-152.527,0,0,0,
,-0.399,0.293,1.001,1577.209,404.235,-217.53,0,0,0,
,-0.351,-0.08,1.31,1079.162,341.674,-114.624,0,0,0,
,-0.224,0.574,0.93,18.859,-74.097,-18.799,0,0,0,
,-0.304,0.526,1.022,441.101,-8.362,6.103,0,0,0,
,-0.204,0.247,1.176,710.693,6.774,8.85,0,0,0,
,-0.2,-0.117,1.106,415.71,-91.919,-35.828,0,0,0,
,-0.222,-0.022,0.817,-212.952,-164.246,-94.178,0,0,0,
,-0.229,0.147,0.375,-269.959,7.507,-174.988,0,0,0,
,-0.176,0.045,0.472,274.109,297.668,-210.511,0,0,0,
,-0.061,0.164,1.418,-130.433,389.221,-128.54,0,0,0,
,-0.134,0.822,1.666,-395.081,98.022,-60.181,0,0,0,
,-0.168,1.04,1.318,-151.185,-154.908,-62.806,0,0,0,
,-0.14,0.535,0.882,438.964,-196.289,-80.933,0,0,0,
,0.252,0.241,0.866,86.059,44.311,-142.456,0,0,0,
,0.482,-0.114,0.422,-185.303,224.365,-455.201,0,0,0,
,0.682,0.741,0.782,-892.151,225.891,-141.236,0,0,0,
,0.596,0.625,0.667,-498.78,278.503,-290.345,0,0,0,
,0.518,0.685,1.011,-382.264,211.303,-120.301,0,0,0,
,0.401,0.76,1.173,-333.497,95.764,-122.376,0,0,0,
,0.227,0.973,1.019,-181.214,-7.691,-19.959,0,0,0,
,0.145,0.614,0.947,202.942,-60.608,-27.039,0,0,0,
,0.242,0.383,0.988,189.697,-124.695,-6.714,0,0,0,
,0.103,0.259,0.793,160.522,-95.398,26.916,0,0,0,
,0.001,0.088,0.796,140.625,-9.949,-15.503,0,0,0,
,0.064,0.459,0.945,13.61,44.799,18.31,0,0,0,
,0.039,0.535,0.844,145.385,93.322,41.87,0,0,0,
,0.047,0.414,0.93,382.568,112.854,91.796,0,0,0,
,0.002,0.127,1.139,416.87,61.096,79.284,0,0,0,
,-0.059,0.079,1.045,146.057,-17.09,5.615,0,0,0,
,0.001,0.286,0.989,19.47,-46.387,5.737,0,0,0,
,0.143,0.208,0.781,78.125,-6.592,-41.504,0,0,0,
,0.247,0.311,0.65,-79.834,31.616,-22.522,0,0,0,
,0.16,0.329,0.717,14.282,141.723,-13.733,0,0,0,
,0.113,0.246,1.052,28.686,196.472,-38.636,0,0,0,
,0.162,0.281,1.143,-258.362,146.423,-47.974,0,0,0,
,0.238,0.232,0.916,-481.629,98.999,-66.712,0,0,0,
,0.065,0.344,1.144,114.868,241.516,31.372,0,0,0,
,-0.012,0.194,1.317,26.184,182.739,19.775,0,0,0,
,-0.264,0.082,1.207,-100.464,78.796,27.832,0,0,0,
,-0.411,-0.165,0.989,-108.521,68.603,7.69,0,0,0,
,-0.391,-0.041,0.945,-314.759,128.601,0,0,0,0,
,-0.279,0.265,1.068,-290.039,151.184,54.565,0,0,0,
,-0.313,0.182,1.117,-12.391,149.047,56.091,0,0,0,
,-0.415,0.056,1.243,39.428,49.56,36.132,0,0,0,
,-0.287,0.118,1.246,-71.473,-54.2,-13.855,0,0,0,
,-0.113,0.305,1.046,-104.248,-146.302,-22.278,0,0,0,
,-0.129,0.382,0.692,-119.446,-144.227,-15.87,0,0,0,
,-0.105,0.532,0.807,223.51,-55.603,6.408,0,0,0,
,-0.06,0.11,0.98,444.213,-8.484,-82.947,0,0,0,
,-0.102,0.104,1.078,47.729,-90.271,-96.863,0,0,0,
,-0.13,0.381,0.996,-139.588,-110.596,-141.724,0,0,0,
,-0.02,0.412,1.032,-47.852,-111.451,-180.481,0,0,0,
,0.146,0.371,1.072,92.346,-84.229,-139.466,0,0,0,
,0.296,0.446,0.853,151.428,-117.188,-79.224,0,0,0,
,0.532,0.479,0.456,-78.98,-82.581,-109.742,0,0,0,
,0.73,0.101,0.033,-145.569,97.717,-199.402,0,0,0,
,0.821,0.265,0.63,-320.74,155.212,-57.923,0,0,0,
,0.519,0.656,0.852,-161.377,174.377,-34.424,0,0,0,
,0.429,0.679,0.647,-396.058,-138.245,13.244,0,0,0,
,0.438,0.672,0.548,-25.025,-77.759,58.654,0,0,0,
,0.298,0.162,0.564,205.017,74.523,2.075,0,0,0,
,0.206,-0.01,0.654,-141.358,167.846,16.662,0,0,0,
,0.278,0.411,0.952,-554.139,201.843,39.978,0,0,0,
,0.214,0.916,1.255,-479.31,104.126,122.741,0,0,0,
,-0.055,0.645,0.915,-58.533,117.492,77.575,0,0,0,
,-0.425,0.025,1.072,326.965,209.167,109.741,0,0,0,
,-0.63,-0.257,1.098,231.994,237.121,55.969,0,0,0,
,-0.45,-0.156,0.95,-180.054,292.48,-36.988,0,0,0,
,0.016,0.555,2.053,-246.521,24.536,21.606,0,0,0,
,-0.598,0.193,1.463,313.049,41.137,122.192,0,0,0,
,-0.745,-0.576,0.638,165.954,16.784,91.919,0,0,0,
,-0.14,0.167,1.134,-384.217,1.525,-48.89,0,0,0,
,0.088,0.482,1.198,-320.984,6.897,-16.419,0,0,0,
,0.218,0.316,0.671,-350.342,21.423,-49.622,0,0,0,
,0.218,0.328,0.879,-205.75,67.688,-22.156,0,0,0,
,0.161,0.566,0.923,-142.823,62.805,25.512,0,0,0,
,-0.002,0.481,0.963,132.446,51.391,16.296,0,0,0,
,-0.046,0.476,1.132,59.814,-63.416,45.959,0,0,0,
,-0.06,0.583,1.004,-65.003,-196.228,52.978,0,0,0,
,-0.125,0.507,0.946,112.793,-257.569,44.006,0,0,0,
,-0.14,0.323,0.966,222.046,-279.053,-14.161,0,0,0,
,-0.145,0.08,0.817,217.468,-280.091,-69.825,0,0,0,
,-0.23,0.115,0.737,118.469,-241.517,-80.445,0,0,0,
,-0.255,0.174,0.816,252.99,-162.72,-140.564,0,0,0,
,-0.178,0.202,1.047,274.963,-100.769,-175.965,0,0,0,
,-0.072,0.256,1.02,108.154,-69.275,-204.895,0,0,0,
,-0.007,0.279,0.888,-57.312,-55.97,-228.394,0,0,0,
,-0.122,0.503,0.963,8.178,-47.059,-196.534,0,0,0,
,0.054,0.535,0.869,245.849,-50.11,-200.196,0,0,0,
,0.243,0.599,1.126,368.286,-90.332,-179.993,0,0,0,
,0.39,0.383,1.117,324.89,-135.56,-220.032,0,0,0,
,0.631,0.31,0.712,103.088,-101.014,-184.754,0,0,0,
,0.69,0.063,0.438,26.733,50.354,-208.619,0,0,0,
,0.827,0.309,0.566,-256.47,169.311,-77.637,0,0,0,
,0.73,0.945,0.785,-257.203,181.213,72.326,0,0,0,
,0.333,0.773,1.205,223.816,122.436,24.841,0,0,0,
,0.168,0.307,1.004,31.005,-23.011,41.076,0,0,0,
,0.157,0.489,0.943,-216.309,-105.286,107.483,0,0,0,
,0.139,0.553,0.83,-15.442,-104.798,100.586,0,0,0,
,0.1,0.249,0.653,217.59,-8.851,62.133,0,0,0,
,-0.043,-0.154,0.64,210.51,152.771,1.281,0,0,0,
,-0.087,-0.129,0.886,-199.463,220.703,-14.649,0,0,0,
,0.029,0.57,1.168,-493.226,179.077,36.621,0,0,0,
,-0.1,0.696,1.233,-113.892,125,42.785,0,0,0,
,-0.143,0.316,0.965,75.256,90.148,67.993,0,0,0,
,-0.196,0.006,0.851,213.256,126.098,46.081,0,0,0,
,-0.244,-0.146,0.927,83.068,166.259,-30.579,0,0,0,
,-0.069,0.309,1.203,-210.511,129.943,-12.635,0,0,0,
,-0.157,0.414,1.268,-81.665,75.805,-7.691,0,0,0,
,-0.518,0.175,1.141,-12.452,18.981,-0.245,0,0,0,
,-0.709,-0.135,1.189,120.666,-1.16,-2.442,0,0,0,
,-0.315,-0.184,0.805,-184.327,67.26,-88.44,0,0,0,
,-0.241,0.363,1.19,-17.64,65.734,8.422,0,0,0,
,-0.272,0.203,1.183,164.734,4.028,-97.901,0,0,0,
,-0.219,0.47,0.979,52.307,-100.953,-89.356,0,0,0,
,-0.125,0.254,0.896,210.754,-115.296,-191.224,0,0,0,
,0.187,0.264,0.968,134.277,-142.029,-176.453,0,0,0,
,0.294,0.509,0.994,58.593,-163.086,-150.391,0,0,0,
,0.354,0.476,0.825,174.316,-144.288,-158.143,0,0,0,
,0.494,0.391,0.657,167.053,-72.388,-150.696,0,0,0,
,0.689,0.406,0.76,51.391,6.103,-133.179,0,0,0,
,0.817,0.469,0.742,-112.305,64.575,-88.685,0,0,0,
,0.663,0.455,0.721,23.071,113.098,-26.551,0,0,0,
,0.157,0.174,1.017,122.375,109.497,-31.311,0,0,0,
,0.064,0.59,1.065,-282.898,-53.589,52.49,0,0,0,
,-0.028,0.052,0.883,-35.706,-63.294,-5.433,0,0,0,
,0.124,0.247,0.867,-80.506,14.16,-13.367,0,0,0,
,0.159,0.199,0.855,-68.726,93.566,2.868,0,0,0,
,0.214,0.411,1.029,-159.546,94.848,33.203,0,0,0,
,0.21,0.491,0.978,-155.945,75.744,43.823,0,0,0,
,0.157,0.314,0.804,-88.562,97.473,24.108,0,0,0,
,0.104,0.183,0.88,-56.702,123.535,6.164,0,0,0,
,0.056,0.281,0.94,-187.073,150.512,27.404,0,0,0,
,0.078,0.613,1.217,-165.589,132.263,105.163,0,0,0,
,-0.072,0.402,1.212,31.86,96.374,97.412,0,0,0,
,-0.295,0.057,1.035,74.89,96.374,118.713,0,0,0,
,-0.276,-0.199,0.787,29.357,178.1,56.457,0,0,0,
,-0.218,-0.152,0.937,-52.674,263.427,40.283,0,0,0,
,-0.104,0.217,1.269,-166.81,252.929,39.123,0,0,0,
,-0.154,0.389,1.338,-56.458,179.626,73.73,0,0,0,
,-0.335,0.216,1.092,-16.541,81.481,93.872,0,0,0,
,-0.54,-0.007,1.042,86.853,43.823,66.711,0,0,0,
,-0.349,0,1.046,-30.457,-2.503,-8.545,0,0,0,
,-0.001,0.307,0.937,-141.358,-93.079,-99.366,0,0,0,
,-0.061,0.349,1.034,68.908,-87.525,-63.172,0,0,0,
,0.026,0.265,1.039,125.488,-93.567,-57.19,0,0,0,
,0.009,0.228,1.009,75.073,-86.243,-62.439,0,0,0,
,-0.097,0.184,0.911,15.075,-108.643,-81.36,0,0,0,
,-0.083,0.236,1.014,126.22,-125.489,-132.325,0,0,0,
,-0.099,0.141,1.135,109.619,-125.428,-137.94,0,0,0,
,-0.061,0.207,1.078,43.273,-156.983,-172.547,0,0,0,
,0.011,0.456,0.894,-22.4,-152.832,-194.519,0,0,0,
,0.136,0.598,0.904,106.689,-113.343,-161.377,0,0,0,
,0.167,0.163,0.787,389.953,-22.095,-193.299,0,0,0,
,0.132,-0.052,0.914,133.361,46.752,-180.603,0,0,0,
,0.206,0.212,1.142,-117.188,74.401,-188.782,0,0,0,
,0.137,0.092,1.023,-226.441,135.864,-268.616,0,0,0,
,0.072,0.347,0.877,-546.814,118.591,-200.684,0,0,0,
,0.158,0.714,0.908,-634.644,84.045,-164.063,0,0,0,
,0.421,0.629,0.848,-149.17,185.73,-160.401,0,0,0,
,0.659,0.32,0.735,-119.141,168.945,-188.294,0,0,0,
,0.946,0.579,0.854,-389.649,32.531,-22.828,0,0,0,
,1.186,0.912,1.033,-440.857,-193.421,121.887,0,0,0,
,1.136,0.763,1.175,-352.295,-258.423,139.221,0,0,0,
,1.081,0.947,0.884,-357.117,-549.744,366.027,0,0,0,
,0.625,0.859,0.986,-221.863,-633.728,422.485,0,0,0,
,0.224,0.684,0.709,-174.805,-678.223,441.406,0,0,0,
,-0.002,0.659,0.577,-196.595,-712.525,402.71,0,0,0,
,-0.193,0.562,0.436,-40.772,-650.574,283.264,0,0,0,
,-0.321,0.316,0.364,159.668,-485.047,154.602,0,0,0,
,-0.4,0.007,0.354,277.343,-300.11,94.848,0,0,0,
,-0.501,-0.086,0.462,269.348,-145.691,93.017,0,0,0,
,-0.653,-0.014,0.641,110.839,-90.699,26.123,0,0,0,
,-0.764,-0.009,0.867,96.557,-26.612,-116.272,0,0,0,
,-0.757,-0.173,0.949,30.456,49.621,-210.511,0,0,0,
,-0.707,-0.293,0.931,-296.57,58.105,-279.114,0,0,0,
,-0.577,-0.022,0.876,-425.171,81.665,-238.099,0,0,0,
,-0.465,0.188,1.049,-193.116,148.62,-242.981,0,0,0,
,-0.379,0.249,1.134,-6.714,220.276,-229.493,0,0,0,
,-0.33,0.23,1.1,-124.329,192.199,-264.771,0,0,0,
,-0.258,0.249,0.994,-157.227,210.083,-254.517,0,0,0,
,-0.196,0.259,0.792,-82.642,283.752,-247.071,0,0,0,
,-0.11,0.077,0.577,92.651,435.73,-324.769,0,0,0,
,-0.195,1.133,0.927,-433.655,243.164,115.234,0,0,0,
,-0.368,0.659,1.288,810.302,491.76,-341.065,0,0,0,
,-0.212,-0.114,1.289,251.464,302.734,-93.262,0,0,0,
,-0.14,0.261,1.314,-319.886,87.951,-197.144,0,0,0,
,-0.306,0.179,1.206,623.901,48.339,-34.668,0,0,0,
,-0.263,0.141,1.126,544.494,20.507,-45.533,0,0,0,
,-0.193,0.182,1.073,445.617,20.996,-29.175,0,0,0,
,-0.103,-0.181,0.812,232.544,84.35,-58.594,0,0,0,
,-0.04,0.072,0.616,55.175,153.442,-79.407,0,0,0,
,0.022,0.095,0.777,358.032,292.907,-133.728,0,0,0,
,0.106,-0.043,0.786,185.974,392.7,-184.876,0,0,0,
,0.26,0.561,1.13,-195.74,338.745,-179.444,0,0,0,
,0.071,0.671,1.116,-207.459,244.934,-198.426,0,0,0,
,-0.147,0.174,1.008,-193.665,232.36,-222.535,0,0,0,
,-0.012,0.471,1.432,-393.006,139.709,-116.883,0,0,0,
,0.042,0.273,0.899,87.097,208.557,-108.216,0,0,0,
,-0.069,0.096,1.117,141.906,238.952,-23.316,0,0,0,
,0.546,-0.115,0.968,-275.513,297.79,-113.221,0,0,0,
,0.823,0.639,0.713,-514.649,180.603,12.817,0,0,0,
,0.746,1.087,0.788,-478.028,11.352,93.078,0,0,0,
,0.711,1.004,0.91,-194.092,-88.562,114.074,0,0,0,
,0.776,1.099,0.972,-181.031,-404.175,244.323,0,0,0,
,0.394,0.838,1.076,62.133,-541.199,294.311,0,0,0,
,0.172,0.698,0.786,131.103,-568.909,379.943,0,0,0,
,0.04,0.599,0.617,-97.168,-541.016,399.963,0,0,0,
,0.024,0.543,0.623,29.846,-381.775,459.961,0,0,0,
,0.03,0.309,0.569,180.297,-208.191,438.659,0,0,0,
,-0.055,0.089,0.576,283.63,-81.482,401.55,0,0,0,
,-0.199,0.007,0.626,245.422,47.485,388,0,0,0,
,-0.323,-0.01,0.616,-4.456,160.156,342.285,0,0,0,
,-0.336,0.018,0.713,-196.045,258.117,246.948,0,0,0,
,-0.241,0.019,0.59,-436.097,337.646,177.856,0,0,0,
,-0.193,0.26,0.665,-413.514,380.554,184.692,0,0,0,
,-0.23,0.41,0.837,-110.047,447.265,125.061,0,0,0,
,-0.294,0.484,1.041,-19.532,444.702,121.704,0,0,0,
,-0.224,0.439,1.183,31.616,400.024,105.774,0,0,0,
,-0.128,0.457,1.117,-68.116,274.292,149.963,0,0,0,
,-0.148,0.377,1.006,-0.611,201.355,123.352,0,0,0,
,-0.132,0.383,0.947,189.026,180.786,151.062,0,0,0,
,-0.13,0.248,0.981,427.673,203.491,97.106,0,0,0,
,-0.146,0.133,1.073,429.992,193.054,85.876,0,0,0,
,-0.115,0.146,1.144,222.534,168.09,66.284,0,0,0,
,-0.099,0.205,0.88,-17.579,156.677,59.265,0,0,0,
,-0.002,0.288,0.699,-1.648,207.397,11.535,0,0,0,
,0.081,0.138,0.469,215.942,349.121,-61.829,0,0,0,
,-0.021,0.035,0.262,287.78,484.192,-52.002,0,0,0,
,0.338,0.554,2.79,602.905,98.938,-66.04,0,0,0,
,0.513,1.008,2.103,788.513,4.028,-8.851,0,0,0,
,-0.367,-0.285,0.785,381.042,-33.509,-225.769,0,0,0,
,-0.178,-0.003,0.768,-26.246,11.413,9.46,0,0,0,
,0.211,0.151,0.422,-131.775,98.51,-149.903,0,0,0,
,0.134,0.428,0.783,182.983,182.8,-35.828,0,0,0,
,0.099,0.086,1.317,466.369,215.881,-105.164,0,0,0,
,0.054,-0.005,1.513,23.681,72.387,-54.993,0,0,0,
,-0.119,0.139,1.303,-233.765,-49.195,-24.17,0,0,0,
,-0.202,0.135,0.888,-161.499,-90.638,-58.533,0,0,0,
,-0.102,0.511,0.736,-22.767,-73.365,-74.219,0,0,0,
,0.006,0.134,0.731,260.986,-29.053,-123.597,0,0,0,
,-0.055,0.005,1.106,241.943,-25.635,-104.065,0,0,0,
,-0.037,0.1,1.367,51.208,-68.116,-132.874,0,0,0,
,0.071,0.099,1.214,-106.507,-113.709,-175.904,0,0,0,
,0.157,0,0.837,-566.407,-187.623,-236.634,0,0,0,
,0.078,0.76,0.342,-591.736,-106.446,-123.78,0,0,0,
,0.262,0.622,0.624,144.348,78.43,-242.676,0,0,0,
,0.54,0.17,0.893,164.306,86.425,-249.146,0,0,0,
,0.549,0.387,1.054,-124.451,42.358,-231.446,0,0,0,
,0.609,0.496,1.129,-221.619,-5.86,-219.91,0,0,0,
,0.692,0.53,0.824,-333.802,-43.152,-173.523,0,0,0,
,0.667,0.665,0.61,-234.07,-5.31,-112.488,0,0,0,
,0.529,0.59,0.977,198.059,16.906,-96.985,0,0,0,
,0.444,0.334,1.004,130.676,-61.28,-35.34,0,0,0,
,0.516,0.409,0.778,-85.877,-136.658,25.756,0,0,0,
,0.472,0.472,0.794,-187.623,-162.232,69.03,0,0,0,
,0.286,0.625,0.803,-93.506,-159.424,116.394,0,0,0,
,0.075,0.389,0.764,170.105,-103.76,103.332,0,0,0,
,-0.026,-0.053,0.729,227.844,-14.039,67.26,0,0,0,
,-0.105,-0.245,0.823,-53.772,51.635,-1.526,0,0,0,
,-0.041,0.264,0.998,-519.349,41.626,0.122,0,0,0,
,-0.014,0.571,1.107,-442.566,26.428,-19.654,0,0,0,
,-0.086,0.338,1.05,-67.383,39.611,16.052,0,0,0,
,-0.301,-0.155,0.959,74.096,104.736,13,0,0,0,
,-0.282,0.27,1.311,-133.423,98.816,-9.461,0,0,0,
,-0.277,0.188,1.33,8.361,44.006,4.516,0,0,0,
,-0.445,-0.06,1.158,-9.705,3.418,13.183,0,0,0,
,-0.173,0.087,0.99,-313.355,-82.886,-147.522,0,0,0,
,-0.182,0.308,1.043,-282.41,-137.207,-109.803,0,0,0,
,-0.197,0.394,0.87,-127.93,-158.509,-130.738,0,0,0,
,-0.238,0.313,0.89,157.959,-137.757,-179.444,0,0,0,
,-0.212,0.036,0.939,226.684,-110.901,-226.258,0,0,0,
,-0.197,0.188,1.138,119.262,-115.296,-232.117,0,0,0,
,-0.201,0.295,1.289,142.944,-134.034,-268.86,0,0,0,
,-0.083,0.296,1.194,109.985,-203.858,-301.514,0,0,0,
,-0.109,0.269,0.877,22.522,-202.698,-326.477,0,0,0,
,-0.031,0.244,0.749,13.671,-108.094,-364.685,0,0,0,
,0.795,0.436,0.895,-289.368,140.869,-262.879,0,0,0,
,0.969,0.728,0.638,-470.887,94.299,-213.685,0,0,0,
,0.928,0.888,0.577,-407.41,82.458,-84.351,0,0,0,
,0.916,0.958,0.598,14.16,72.692,39.306,0,0,0,
,0.699,0.615,0.815,508.117,35.522,54.382,0,0,0,
,0.384,0.253,1.021,325.866,-70.618,100.769,0,0,0,
,0.481,0.56,0.513,-318.055,-141.175,182.129,0,0,0,
,0.117,0.489,0.568,164.734,-37.354,158.752,0,0,0,
,-0.187,0.122,0.906,343.444,118.164,100.097,0,0,0,
,-0.12,0.109,1.195,-80.323,130.066,33.081,0,0,0,
,0.039,0.213,1.215,-546.021,56.152,-31.25,0,0,0,
,-0.623,0.552,1.257,314.941,193.054,102.05,0,0,0,
,-0.938,-0.06,1.317,667.053,169.433,116.027,0,0,0,
,-0.6,-0.32,1.367,225.402,85.632,-94.178,0,0,0,
,-0.432,-0.341,1.164,-101.563,-2.747,-115.662,0,0,0,
,-0.602,-0.159,1.328,-276.795,-58.716,-95.948,0,0,0,
,-0.33,0.382,1.022,-514.466,-107.422,-117.31,0,0,0,
,-0.325,0.65,1.038,-72.144,-104.615,-34.302,0,0,0,
,-0.195,0.288,1.169,-122.376,-212.708,-174.805,0,0,0,
,-0.21,0.464,1.177,65.856,-222.596,-152.588,0,0,0,
,-0.111,0.307,0.978,201.355,-175.599,-179.871,0,0,0,
,-0.012,0.276,0.818,100.219,-90.455,-176.514,0,0,0,
,0.124,0.32,0.842,166.137,6.408,-215.699,0,0,0,
,0.32,0.323,0.485,-140.259,-95.154,204.101,0,0,0,
,0.229,0.65,0.603,-8.728,8.544,261.169,0,0,0,
,-0.031,-0.057,0.895,106.75,188.293,91.186,0,0,0,
,-0.11,0.066,1.019,-474.915,204.223,25.573,0,0,0,
,-0.01,0.505,1.156,-704.834,137.817,52.917,0,0,0,
,-0.044,0.771,1.142,-442.505,92.651,100.158,0,0,0,
,-0.422,0.39,1.093,179.26,110.107,112.365,0,0,0,
,-0.717,-0.092,0.984,327.636,124.878,121.521,0,0,0,
,-0.735,-0.357,1.137,224.243,154.358,41.687,0,0,0,
,-0.529,-0.078,1.725,79.467,10.681,-36.744,0,0,0,
,-0.653,0.048,1.53,40.649,-86.853,-36.805,0,0,0,
,-0.464,-0.046,0.986,-320.069,-171.631,-87.952,0,0,0,
,-0.24,0.424,1.153,163.33,-86.304,-34.668,0,0,0,
,-0.225,0.009,1.115,256.286,-80.75,-120.24,0,0,0,
,-0.286,-0.002,1.049,71.655,-110.474,-140.686,0,0,0,
,-0.255,0.204,1.007,-44.739,-114.441,-174.073,0,0,0,
,-0.188,0.491,1.034,49.743,-143.189,-128.846,0,0,0,
,-0.192,0.54,1.056,335.571,-164.185,-120.423,0,0,0,
,-0.138,0.331,1.005,460.022,-150.208,-131.409,0,0,0,
,-0.003,0.18,1.104,378.357,-136.841,-215.332,0,0,0,
,0.177,0.233,0.699,-4.7,-25.147,-255.86,0,0,0,
,0.759,0.506,0.822,-413.086,238.891,-179.993,0,0,0,
,0.955,1.174,0.935,-287.415,149.902,-49.744,0,0,0,
,0.913,0.77,0.67,150.634,138.977,-123.841,0,0,0,
,0.611,0.607,0.829,236.816,83.496,59.997,0,0,0,
,0.282,0.34,0.957,209.045,41.015,67.688,0,0,0,
,0.29,0.403,0.962,41.87,-76.233,173.156,0,0,0,
,0.329,0.398,0.736,13.916,-66.04,147.766,0,0,0,
,0.334,0.437,0.772,18.554,-39.734,223.877,0,0,0,
,0.091,0.168,0.72,176.147,28.259,172.546,0,0,0,
,0.185,0.314,0.941,-363.038,186.096,79.223,0,0,0,
,0.214,0.567,0.92,-410.828,189.514,130.005,0,0,0,
,-0.097,0.38,1.081,-87.769,224.792,128.418,0,0,0,
,-0.263,0.011,0.894,-40.284,265.319,121.948,0,0,0,
,-0.371,-0.143,1.083,-39.124,290.649,104.919,0,0,0,
,-0.659,-0.073,1.201,154.846,-39.551,-15.137,0,0,0,
,-0.472,-0.034,0.918,8.972,-98.877,-25.635,0,0,0,
,-0.37,-0.034,1.038,58.715,-76.844,-104.92,0,0,0,
,-0.113,-0.04,0.987,-129.456,-84.778,-171.021,0,0,0,
,-0.02,0.413,1.134,-219.422,-97.657,-121.033,0,0,0,
,-0.073,0.481,1.195,20.874,-134.034,-106.324,0,0,0,
,-0.311,0.149,1.168,224.792,-178.833,-93.995,0,0,0,
,-0.385,-0.043,1.156,177.307,-211.792,-146.607,0,0,0,
,-0.293,0.142,1.189,31.005,-253.418,-189.515,0,0,0,
,-0.243,0.229,1.031,123.718,-227.601,-193.726,0,0,0,
,-0.059,0.392,0.991,174.011,-164.612,-173.829,0,0,0,
,-0.002,0.207,0.846,245.117,-88.868,-185.608,0,0,0,
,0.016,0.185,0.968,300.72,-29.969,-152.771,0,0,0,
,0.073,0.096,0.858,193.664,20.568,-250.55,0,0,0,
,0.226,0.188,0.753,-68.787,46.081,-311.036,0,0,0,
,0.531,0.426,0.47,-398.255,127.441,-342.347,0,0,0,
,0.906,0.721,0.695,-357.483,160.4,-209.351,0,0,0,
,1.036,0.935,0.827,-53.284,181.152,-60.73,0,0,0,
,0.899,0.615,0.868,166.809,126.098,-38.697,0,0,0,
,0.494,0.599,1.063,88.806,-40.223,96.008,0,0,0,
,0.225,0.462,0.916,34.545,-143.433,103.149,0,0,0,
,0.285,0.45,0.702,-75.013,-233.887,105.529,0,0,0,
,0.413,0.533,0.629,-70.801,-233.765,178.833,0,0,0,
,0.221,0.284,0.709,179.748,-169.129,142.517,0,0,0,
,0.009,0.108,0.872,49.804,-104.981,151.001,0,0,0,
,-0.038,0.26,1.051,-169.922,-88.685,147.094,0,0,0,
,-0.022,0.444,1.124,-300.049,-99.793,136.23,0,0,0,
,-0.1,0.486,1.055,-225.464,-115.967,184.326,0,0,0,
,-0.195,0.193,1.036,-4.09,-78.003,170.898,0,0,0,
,-0.242,-0.127,0.921,-95.459,17.089,86.242,0,0,0,
,-0.178,-0.066,0.938,-606.202,54.87,12.085,0,0,0,
,-0.015,0.406,0.979,-1127.198,-16.236,4.821,0,0,0,
,0.043,0.691,0.943,-971.985,7.019,176.33,0,0,0,
,0.116,0.668,0.706,-752.808,-15.015,172.607,0,0,0,
,0.129,0.64,0.73,-683.838,-59.51,148.681,0,0,0,
,-0.021,0.753,0.87,-373.658,-189.881,84.838,0,0,0,
,-0.25,0.816,0.744,-348.511,-313.172,115.234,0,0,0,
,-0.421,0.618,0.936,-208.252,-346.802,25.146,0,0,0,
,-0.417,0.597,0.942,-6.897,-363.77,-11.902,0,0,0,
,-0.394,0.3,1.007,130.981,-341.675,-39.002,0,0,0,
,-0.343,0.084,0.85,46.02,-344.178,-92.286,0,0,0,
,-0.408,-0.024,0.861,-117.615,-336.976,-189.942,0,0,0,
,-0.381,0.122,0.831,-67.749,-306.824,-213.318,0,0,0,
,-0.371,0.23,0.777,173.767,-240.967,-238.282,0,0,0,
,-0.494,0.374,0.674,249.878,-115.235,-172.12,0,0,0,
,-0.486,0.192,0.786,438.171,-53.101,-189.393,0,0,0,
,-0.485,0.171,1.018,506.897,-18.982,-129.395,0,0,0,
,-0.304,0.039,1.04,550.415,18.92,-153.992,0,0,0,
,-0.238,0.055,1.033,485.839,11.169,-246.949,0,0,0,
,-0.352,-0.021,0.952,465.576,92.041,-300.904,0,0,0,
,-0.34,-0.132,0.98,295.776,127.258,-312.867,0,0,0,
,-0.154,0.152,1.245,230.774,94.726,-235.901,0,0,0,
,-0.208,0.51,1.471,186.218,1.159,-142.151,0,0,0,
,-0.329,0.315,1.2,351.562,7.812,-109.009,0,0,0,
,-0.161,0.119,0.964,270.568,5.127,-90.821,0,0,0,
,-0.069,0.169,0.741,96.74,-0.916,-122.559,0,0,0,
,-0.139,0.527,0.776,196.594,26.489,-134.217,0,0,0,
,-0.102,0.296,1.196,627.441,97.656,-62.012,0,0,0,
,-0.122,0.034,1.285,385.742,23.315,-51.392,0,0,0,
,-0.219,0,0.961,53.527,6.469,-51.209,0,0,0,
,-0.134,-0.012,0.823,57.556,50.415,-71.351,0,0,0,
,-0.175,0.183,0.847,215.088,86.364,-100.769,0,0,0,
,-0.185,0.213,0.966,358.52,145.202,-84.656,0,0,0,
,-0.134,0.13,1.177,374.755,163.452,-62.623,0,0,0,
,-0.154,0.092,1.15,64.88,156.921,-68.055,0,0,0,
,-0.102,0.032,0.996,-213.196,178.1,-96.497,0,0,0,
,-0.086,-0.068,0.772,-459.168,260.254,-149.598,0,0,0,
,-0.037,0.223,0.668,-395.325,327.392,-144.898,0,0,0,
,-0.105,0.231,0.947,-127.076,372.314,-195.679,0,0,0,
,-0.148,0.275,1.224,-226.38,327.575,-230.896,0,0,0,
,-0.068,0.182,1.288,-615.906,294.433,-244.385,0,0,0,
,0.103,0.052,1.052,-1261.414,230.407,-204.224,0,0,0,
,0.295,0.668,0.654,-1523.072,63.537,-63.416,0,0,0,
,0.516,1.419,0.673,-835.877,-26.246,162.963,0,0,0,
,0.678,1.229,0.945,193.054,24.719,-65.43,0,0,0,
,0.777,1.002,1.157,-307.312,-232.056,78.735,0,0,0,
,0.637,1.049,0.846,-235.169,-359.925,285.278,0,0,0,
,0.232,0.776,0.811,65.185,-312.073,361.084,0,0,0,
,-0.019,0.489,0.693,323.425,-212.342,400.817,0,0,0,
,-0.112,0.367,0.591,317.077,-128.846,452.514,0,0,0,
,-0.27,0.308,0.619,166.198,35.949,439.087,0,0,0,
,-0.423,0.279,0.66,-65.491,198.974,442.993,0,0,0,
,-0.502,0.265,0.658,-172.669,315.429,413.94,0,0,0,
,-0.481,0.323,0.586,-147.4,415.466,393.188,0,0,0,
,-0.426,0.34,0.543,26.489,491.088,349.121,0,0,0,
,-0.347,0.346,0.771,389.038,541.015,330.261,0,0,0,
,-0.338,0.303,1.001,472.168,569.824,330.932,0,0,0,
,-0.327,0.182,1.153,163.635,444.946,310.913,0,0,0,
,-0.278,0.205,1.023,-34.302,325.134,299.926,0,0,0,
,-0.249,0.308,0.929,-58.106,251.342,263.549,0,0,0,
,-0.19,0.33,0.911,198.608,275.451,213.867,0,0,0,
,-0.068,0.287,0.945,362.304,283.935,158.996,0,0,0,
,0.007,0.201,0.962,301.513,304.077,118.591,0,0,0,
,-0.004,0.134,0.796,28.564,314.88,127.502,0,0,0,
,-0.113,0.127,0.542,-138.977,360.962,119.201,0,0,0,
,-0.251,0.11,0.328,-33.448,509.399,52.856,0,0,0,
,0.281,-0.171,2.464,461.303,379.516,-246.582,0,0,0,
,0.933,0.877,1.76,650.634,31.433,128.051,0,0,0,
,-0.496,-0.53,0.975,7.08,55.481,-436.646,0,0,0,
,-0.734,0.229,1.246,-930.298,-101.99,239.624,0,0,0,
,-0.005,0.76,1.056,-420.777,-95.643,-123.108,0,0,0,
,-0.143,0.272,0.948,-48.279,-169.678,-118.653,0,0,0,
,-0.414,0.054,0.814,-15.686,-190.186,-151.856,0,0,0,
,-0.347,-0.179,0.779,-205.872,-144.776,-226.258,0,0,0,
,-0.067,0.199,0.834,-424.439,-106.69,-218.811,0,0,0,
,0.12,0.561,0.852,-418.58,-87.403,-228.455,0,0,0,
,0.325,0.766,0.666,-339.966,-39.368,-195.13,0,0,0,
,0.568,0.742,0.701,-168.702,33.203,-265.809,0,0,0,
,0.788,0.614,0.885,-57.618,47.485,-249.756,0,0,0,
,0.955,0.729,0.859,-353.272,-26.978,-149.964,0,0,0,
,0.924,0.836,0.582,-523.621,-52.796,-70.191,0,0,0,
,0.746,0.962,0.212,-142.395,29.541,-5.433,0,0,0,
,0.45,0.84,0.591,411.926,144.348,0.183,0,0,0,
,0.411,0.487,1.012,439.148,140.319,17.822,0,0,0,
,0.446,0.603,1.255,14.404,25.756,133.239,0,0,0,
,0.294,0.563,0.935,-192.2,-40.101,150.268,0,0,0,
,-0.193,0.567,0.646,202.148,229.675,96.252,0,0,0,
,-0.198,0.191,1.076,377.99,265.625,-30.762,0,0,0,
,-0.143,0.116,1.317,47.668,209.655,-15.32,0,0,0,
,-0.276,0.15,1.083,-270.63,172.973,-0.916,0,0,0,
,-0.49,0.318,1.154,-207.581,184.143,24.414,0,0,0,
,-0.633,0.355,1.226,72.876,193.481,26.794,0,0,0,
,-0.656,-0.029,1.132,363.586,178.772,-26.246,0,0,0,
,-0.574,-0.168,1.198,197.998,128.723,-44.983,0,0,0,
,-0.307,0.1,1.066,-260.926,25.268,-78.125,0,0,0,
,-0.249,0.485,0.843,93.627,-90.455,-139.771,0,0,0,
,-0.306,0.35,1.018,505.188,-77.637,-167.542,0,0,0,
,-0.204,-0.075,1.12,395.752,-90.088,-273.499,0,0,0,
,-0.025,0.188,1.152,-74.707,-154.725,-188.294,0,0,0,
,-0.019,0.438,1.08,-133.912,-198.792,-233.155,0,0,0,
,0.002,0.47,0.834,-68.482,-155.884,-279.48,0,0,0,
,0.145,0.497,0.564,5.92,-69.458,-358.216,0,0,0,
,0.486,0.651,0.877,172.912,16.967,-372.559,0,0,0,
,0.896,0.81,0.991,231.079,67.321,-264.893,0,0,0,
,1.003,0.54,0.797,279.602,79.223,-259.034,0,0,0,
,0.835,0.225,0.67,102.6,93.994,-185.547,0,0,0,
,0.803,0.502,0.44,-203.37,105.529,-14.344,0,0,0,
,0.745,0.895,0.559,11.23,77.514,73.181,0,0,0,
,0.688,0.668,0.653,364.929,23.376,85.754,0,0,0,
,0.494,0.187,0.683,348.999,-29.053,75.561,0,0,0,
,0.374,-0.164,0.557,-200.684,-38.88,20.385,0,0,0,
,0.328,0.222,0.652,-660.523,-26.551,133.3,0,0,0,
,0.085,0.981,0.962,-477.112,-30.457,189.453,0,0,0,
,-0.249,0.932,1.294,291.809,-37.842,139.343,0,0,0,
,-0.323,0.223,1.442,702.026,-92.041,81.97,0,0,0,
,-0.064,0.306,1.146,-294.922,77.636,67.749,0,0,0,
,0.02,0.447,1.18,-184.571,131.713,95.52,0,0,0,
,0.038,0.471,1.234,-34.18,145.08,168.457,0,0,0,
,0.007,0.337,1.141,47.729,142.578,199.524,0,0,0,
,-0.017,0.172,1.005,-55.848,194.458,229.492,0,0,0,
,-0.001,0.078,0.924,-223.938,313.72,236.877,0,0,0,
,0,-0.013,0.829,-333.619,384.399,216.735,0,0,0,
,0.001,0.206,0.817,-426.453,264.038,185.669,0,0,0,
,-0.167,0.355,0.781,-501.587,181.091,134.521,0,0,0,
,-0.241,0.507,0.875,-459.168,-21.302,92.59,0,0,0,
,-0.224,0.726,0.807,-129.822,-102.662,119.934,0,0,0,
,-0.337,0.536,1.166,289.734,-199.646,33.264,0,0,0,
,-0.355,0.381,1.259,319.091,-286.438,59.753,0,0,0,
,-0.235,0.427,1.029,180.359,-294.922,125.61,0,0,0,
,-0.213,0.345,0.957,239.318,-202.393,127.746,0,0,0,
,-0.219,0.243,0.867,154.174,-93.567,162.048,0,0,0,
,-0.228,0.067,0.787,97.29,50.415,115.356,0,0,0,
,-0.031,0.211,0.981,-1.16,157.043,11.84,0,0,0,
,0.033,0.377,0.983,-57.007,128.784,-2.32,0,0,0,
,0.165,0.491,0.876,74.768,117.126,-23.804,0,0,0,
,0.214,0.49,0.728,138.794,122.68,-33.02,0,0,0,
,0.187,0.418,0.719,157.959,148.376,-13.733,0,0,0,
,0.148,0.284,0.85,-97.596,276.672,-16.968,0,0,0,
,0.57,1.025,1.852,-35.157,-14.527,30.151,0,0,0,
,0.152,0.424,0.777,594.909,25.39,11.901,0,0,0,
,-0.45,-0.307,0.814,781.25,147.033,69.641,0,0,0,
,-0.237,-0.064,1.116,-120.667,163.391,-27.222,0,0,0,
,-0.012,0.216,1.078,373.474,175.476,-5.86,0,0,0,
,0.183,0.188,1.004,0.183,150.573,30.883,0,0,0,
,0.088,0.333,0.96,-22.156,140.625,122.009,0,0,0,
,-0.063,0.239,0.933,143.798,93.139,11.108,0,0,0,
,0.048,0.099,0.915,43.579,38.208,-37.842,0,0,0,
,0.042,0.162,0.792,-120.728,12.695,-21.851,0,0,0,
,0.062,0.535,0.928,-120.484,11.901,5.859,0,0,0,
,0.083,0.693,0.942,123.779,-15.87,-29.419,0,0,0,
,0.148,0.249,0.958,291.442,-52.369,-98.816,0,0,0,
,0.163,0.011,0.89,68.603,-68.116,-91.553,0,0,0,
,0.019,0.082,0.867,-90.943,-30.213,-95.52,0,0,0,
,0.066,0.389,1.014,-100.464,14.16,-85.816,0,0,0,
,0.191,0.551,1,76.66,34.79,-111.878,0,0,0,
,0.226,0.381,0.905,165.283,55.419,-130.616,0,0,0,
,0.768,0.451,1.087,-62.684,23.986,-163.88,0,0,0,
,1.001,0.576,0.834,-82.642,17.334,-114.441,0,0,0,
,1.074,0.536,0.554,-13.611,70.434,-70.557,0,0,0,
,0.689,0.467,0.684,89.355,100.097,-2.442,0,0,0,
,0.442,0.434,0.938,22.766,102.722,36.315,0,0,0,
,0.612,0.548,1.089,-65.979,41.87,48.461,0,0,0,
,0.676,0.518,1.19,43.457,-46.082,107.483,0,0,0,
,0.485,0.298,0.791,47.729,-65.857,157.959,0,0,0,
,0.306,0.129,0.569,15.197,11.474,154.358,0,0,0,
,0.098,0.194,0.755,-84.107,96.801,163.94,0,0,0,
,0.029,0.465,0.792,-84.717,137.817,131.713,0,0,0,
,0.084,0.349,0.865,69.58,124.817,66.04,0,0,0,
,0.206,0.178,1.027,-53.406,62.988,64.148,0,0,0,
,0.016,0.102,0.895,-140.32,29.174,89.172,0,0,0,
,-0.481,0.165,0.974,298.217,7.385,25.146,0,0,0,
,-0.52,-0.271,1.026,309.143,19.531,-32.105,0,0,0,
,-0.47,-0.289,1.098,97.106,22.522,-47.669,0,0,0,
,-0.5,-0.141,1.225,-69.519,-16.541,-87.22,0,0,0,
,-0.256,0.199,1.059,-291.626,-70.679,-169.495,0,0,0,
,-0.166,0.293,1.025,-204.407,-137.269,-189.515,0,0,0,
,-0.122,0.312,1.03,-97.046,-165.772,-187.684,0,0,0,
,-0.099,0.101,0.998,75.256,-130.555,-208.619,0,0,0,
,-0.054,-0.068,0.992,65.673,-82.886,-231.019,0,0,0,
,0.03,0.106,1.139,-127.991,-70.801,-187.684,0,0,0,
,0.07,0.392,1.204,-178.467,-113.343,-203.736,0,0,0,
,-0.088,-0.021,0.908,287.17,-67.688,-276.612,0,0,0,
,-0.022,0.203,1.109,33.325,-29.236,-251.831,0,0,0,
,0.075,0.37,1.144,149.475,54.687,-278.992,0,0,0,
,0.195,0.171,1.07,265.38,121.46,-339.966,0,0,0,
,0.238,0.134,1.127,41.931,171.264,-320.862,0,0,0,
,0.576,0.324,0.842,-656.556,263.61,-267.518,0,0,0,
,1.082,0.746,0.58,-871.155,165.588,-171.692,0,0,0,
,1.273,0.972,0.41,-538.819,52.917,-237.977,0,0,0,
,1.398,0.812,0.709,-429.322,-72.144,-70.008,0,0,0,
,1.385,0.823,0.662,-495.423,-215.21,101.501,0,0,0,
,1.316,0.89,0.762,-439.515,-546.326,246.887,0,0,0,
,0.813,0.903,1.04,-373.291,-762.269,356.079,0,0,0,
,0.5,0.813,0.929,-312.317,-820.923,362.732,0,0,0,
,0.261,0.754,0.791,-139.954,-866.639,353.088,0,0,0,
,0.061,0.661,0.706,42.846,-859.681,298.767,0,0,0,
,-0.177,0.635,0.662,303.65,-814.454,233.337,0,0,0,
,-0.422,0.625,0.737,304.809,-798.218,160.644,0,0,0,
,-0.537,0.484,0.663,156.311,-769.41,11.352,0,0,0,
,-0.623,0.17,0.499,-47.913,-670.655,-132.63,0,0,0,
,-0.743,0.059,0.37,-221.741,-565.735,-137.696,0,0,0,
,-0.804,0.158,0.455,-231.995,-447.449,-60.12,0,0,0,
,-0.738,0.17,0.651,235.901,-304.932,-18.86,0,0,0,
,-0.723,0.02,0.895,561.401,-194.397,-52.185,0,0,0,
,-0.656,-0.253,0.938,324.646,-187.073,-198.975,0,0,0,
,-0.51,-0.296,0.927,-105.286,-193.665,-260.254,0,0,0,
,-0.399,-0.163,0.843,-312.867,-166.26,-334.9,0,0,0,
,-0.442,0.11,0.924,-247.315,-142.09,-358.948,0,0,0,
,-0.558,0.181,1.08,123.596,-0.123,-315.979,0,0,0,
,-0.512,0.01,1.099,302.124,124.45,-242.798,0,0,0,
,-0.408,-0.14,1.138,241.821,148.01,-210.572,0,0,0,
,-0.359,-0.02,0.97,-73.914,83.068,-213.257,0,0,0,
,-0.312,0.1,0.899,79.467,140.93,-197.51,0,0,0,
,-0.282,0.128,0.869,344.299,245.971,-204.59,0,0,0,
,-0.236,-0.028,0.854,468.139,392.089,-224.122,0,0,0,
,-0.173,0.047,0.73,228.149,351.806,-207.154,0,0,0,
,-0.308,0.422,1.124,226.135,348.205,-221.07,0,0,0,
,-0.322,0.453,1.122,406.677,453.796,-156.006,0,0,0,
,-0.069,0.476,2.108,466.43,332.641,-52.124,0,0,0,
,0.062,0.683,1.233,219.787,135.681,-28.687,0,0,0,
,-0.301,-0.338,1.017,444.58,226.623,-102.845,0,0,0,
,-0.246,-0.311,0.994,-99.61,90.332,-65.552,0,0,0,
,-0.275,0.61,1.198,-185.791,-12.635,-44.922,0,0,0,
,-0.324,0.63,1.387,504.76,18.066,79.223,0,0,0,
,-0.184,0.118,1.145,658.874,-46.57,115.844,0,0,0,
,-0.146,-0.285,0.644,408.081,-59.449,46.63,0,0,0,
,-0.182,-0.391,0.62,211.242,43.579,-25.33,0,0,0,
,-0.105,-0.206,0.766,121.215,129.15,-129.761,0,0,0,
,-0.125,-0.127,1.073,195.007,199.585,-194.214,0,0,0,
,-0.101,-0.299,1.425,-162.293,154.052,-279.664,0,0,0,
,-0.063,-0.024,1.252,-684.51,27.404,-306.58,0,0,0,
,-0.32,0.331,0.767,-745.179,-19.104,-332.52,0,0,0,
,-0.374,0.635,0.776,-130.249,62.133,-242.432,0,0,0,
,-0.183,0.401,0.964,581.726,155.395,-232.789,0,0,0,
,0.057,0.137,1.031,364.685,163.574,-297.059,0,0,0,
,0.313,0.315,0.955,-139.283,140.38,-313.599,0,0,0,
,0.528,0.556,0.779,-277.771,187.622,-283.875,0,0,0,
,0.615,0.779,0.483,-499.268,258.422,-216.675,0,0,0,
,0.626,1.112,0.559,-355.591,312.378,-26.978,0,0,0,
,0.636,1.127,0.868,138.183,356.567,31.616,0,0,0,
,0.535,0.739,1.308,268.982,248.23,43.273,0,0,0,
,0.209,0.388,0.533,-1.465,-102.539,198.242,0,0,0,
,0.125,0.539,0.732,-85.572,-124.573,332.336,0,0,0,
,0.033,0.603,0.84,93.017,-25.94,331.909,0,0,0,
,0.006,-0.058,0.847,148.437,86.303,216.003,0,0,0,
,-0.065,-0.466,0.861,-116.578,147.338,161.804,0,0,0,
,-0.213,-0.561,0.5,-586.976,333.068,66.894,0,0,0,
,-0.279,-0.246,0.838,-902.649,455.505,40.161,0,0,0,
,-0.128,0.603,1.271,-797.608,415.039,174.804,0,0,0,
,-0.305,0.694,2.426,269.531,100.036,80.2,0,0,0,
,-0.505,-0.744,0.903,-114.502,92.468,86.181,0,0,0,
,-0.267,-0.069,1.232,-317.322,77.575,35.156,0,0,0,
,-0.282,0.197,1.24,-258.301,25.573,-6.958,0,0,0,
,-0.106,0.217,0.725,-292.298,44.921,-7.63,0,0,0,
,-0.02,0.191,0.891,184.936,76.232,-32.227,0,0,0,
,-0.073,0.101,1.167,283.691,64.636,-46.387,0,0,0,
,-0.04,0.285,1.3,115.722,-34.607,-55.237,0,0,0,
,-0.085,0.405,1.203,138.061,-122.803,-75.745,0,0,0,
,-0.184,0.244,1.005,234.985,-189.82,-135.743,0,0,0,
,-0.186,0.245,0.746,325.622,-162.598,-137.452,0,0,0,
,-0.164,0.09,0.792,498.535,-77.454,-202.698,0,0,0,
,-0.095,-0.01,0.956,351.44,-22.4,-227.234,0,0,0,
,0.062,0.253,1.202,121.154,-35.096,-232.3,0,0,0,
,0.117,0.344,1.12,51.635,-70.069,-283.204,0,0,0,
,0.134,0.229,0.821,-28.931,-49.927,-314.026,0,0,0,
,0.305,0.475,0.666,-84.29,12.023,-251.343,0,0,0,
,0.35,0.498,0.764,146.484,126.709,-239.319,0,0,0,
,0.449,0.386,0.883,185.241,159.423,-229.859,0,0,0,
,0.556,0.469,0.926,-2.869,137.939,-184.815,0,0,0,
,0.631,0.584,0.877,-184.693,72.265,-152.1,0,0,0,
,0.652,0.953,0.604,-265.32,37.597,10.376,0,0,0,
,0.494,0.801,0.659,154.907,51.269,-2.076,0,0,0,
,0.375,0.221,0.856,344.238,18.859,-2.991,0,0,0,
,0.278,0.188,1.019,1.342,-43.946,115.539,0,0,0,
,0.211,0.265,0.957,-221.436,-97.901,104.736,0,0,0,
,0.096,0.238,0.75,-249.573,-80.994,109.924,0,0,0,
,0.036,0.197,0.698,-279.175,-19.349,96.557,0,0,0,
,-0.042,0.414,0.911,-179.566,45.349,149.047,0,0,0,
,-0.186,0.233,1.209,128.418,82.031,86.853,0,0,0,
,-0.024,0.03,1.057,-208.802,20.507,78.674,0,0,0,
,-0.009,0.199,1.085,-200.013,33.996,101.074,0,0,0,
,-0.083,0.208,1.001,-196.961,71.044,111.328,0,0,0,
,-0.013,0.16,0.904,-218.201,85.388,104.614,0,0,0,
,0.076,0.289,1.007,-253.235,62.011,116.088,0,0,0,
,0.085,0.295,1.141,-206.665,-1.465,107.483,0,0,0,
,0.083,0.269,1.063,-306.397,-54.383,124.328,0,0,0,
,0.094,0.197,0.888,-362.61,-47.181,140.075,0,0,0,
,0,0.225,0.879,-452.088,-61.402,213.501,0,0,0,
,-0.098,0.33,0.98,-338.074,-93.506,284.79,0,0,0,
,-0.217,0.332,1.065,-202.332,-145.447,249.939,0,0,0,
,-0.308,0.295,1.002,-34.79,-138.062,197.082,0,0,0,
,-0.292,0.317,1.229,61.767,-251.526,179.809,0,0,0,
,-0.37,-0.046,0.736,98.877,-173.279,124.45,0,0,0,
,-0.435,0.114,1.133,53.161,-264.771,97.168,0,0,0,
,-0.421,0.214,1.098,76.843,-244.019,157.776,0,0,0,
,-0.414,0.014,1.063,299.072,-172.181,37.414,0,0,0,
,-0.384,-0.034,1.127,357.605,-118.897,75.195,0,0,0,
,-0.385,-0.026,0.996,230.529,-61.097,70.922,0,0,0,
,-0.384,0.044,0.938,85.388,3.234,79.406,0,0,0,
,-0.297,0.131,0.889,121.032,92.712,51.391,0,0,0,
,-0.226,0.178,0.796,189.148,165.161,29.235,0,0,0,
,-0.217,0.132,0.797,279.968,261.108,-13.733,0,0,0,
,-0.136,0.161,0.869,176.391,298.645,-28.138,0,0,0,
,-0.025,0.286,0.802,-38.697,338.134,-26.612,0,0,0,
,0.073,0.411,0.764,-33.509,376.342,-39.673,0,0,0,
,0.119,0.334,0.76,215.393,467.59,-116.456,0,0,0,
,0.23,0.34,0.876,169.677,437.683,-124.024,0,0,0,
,0.198,0.347,0.912,37.048,397.827,-80.445,0,0,0,
,0.152,0.304,0.905,-54.017,423.523,-78.309,0,0,0,
,0.22,0.478,0.846,-251.404,435.363,-21.241,0,0,0,
,0.218,0.518,0.843,-133.789,428.711,-6.775,0,0,0,
,0.331,0.438,1.181,151.916,334.228,-37.781,0,0,0,
,0.595,0.779,1.623,297.546,71.472,52.124,0,0,0,
,0.205,0.306,0.9,555.847,48.217,81.481,0,0,0,
,-0.178,-0.129,0.789,368.103,-18.616,118.103,0,0,0,
,-0.042,0.035,0.721,-102.662,9.582,18.31,0,0,0,
,0.088,0.093,0.784,-178.528,-68.299,-47.059,0,0,0,
,0.015,0.216,0.789,-159.363,-144.043,63.293,0,0,0,
,-0.068,-0.001,0.571,-61.585,-121.277,-106.446,0,0,0,
,-0.133,-0.123,1.139,-406.128,-190.735,-235.596,0,0,0,
,-0.046,0.557,1.47,-807.251,-206.727,-44.983,0,0,0,
,0.144,0.626,1.259,-444.642,-157.959,-167.664,0,0,0,
,0.001,0.349,0.969,125.793,-96.131,-18.494,0,0,0,
,-0.057,0.217,0.927,27.16,-55.176,-40.528,0,0,0,
,-0.034,0.227,0.894,24.108,-37.415,-42.786,0,0,0,
,-0.065,0.25,1.062,-21.058,-79.407,-62.012,0,0,0,
,-0.047,0.18,1.116,-118.775,-107.117,-95.704,0,0,0,
,-0.1,0.098,1.046,-216.675,-130.433,-80.201,0,0,0,
,-0.158,0.417,0.835,-259.095,-87.464,-17.64,0,0,0,
,-0.229,0.51,0.961,158.691,2.624,-13.367,0,0,0,
,-0.137,0.15,0.993,404.846,57.128,-89.356,0,0,0,
,-0.042,0.046,1.026,80.505,-6.836,-49.256,0,0,0,
,-0.151,0.13,0.973,-128.54,-39.124,-57.923,0,0,0,
,-0.067,0.205,0.883,-263.001,-38.636,-123.658,0,0,0,
,-0.128,0.399,0.884,-121.216,18.92,-72.022,0,0,0,
,-0.061,0.373,0.935,130.066,88.134,-142.579,0,0,0,
,0.175,0.233,1.03,75.744,70.739,-197.083,0,0,0,
,0.28,0.455,1.068,-73.548,2.075,-111.451,0,0,0,
,0.364,0.39,0.907,-73.365,-26.673,-163.575,0,0,0,
,0.56,0.366,0.746,-111.878,0.488,-192.139,0,0,0,
,0.542,0.417,0.845,-100.708,75.439,-99.671,0,0,0,
,0.617,0.462,1.003,-49.073,125.122,-111.39,0,0,0,
,0.702,0.478,1.203,-4.273,108.337,-57.19,0,0,0,
,0.651,0.572,1.016,-51.819,86.608,27.832,0,0,0,
,0.451,0.448,0.888,52.49,90.087,82.031,0,0,0,
,0.467,0.386,0.791,27.038,89.599,111.938,0,0,0,
,0.478,0.571,0.819,-7.264,73.303,184.082,0,0,0,
,0.49,0.388,0.768,156.372,82.58,164.367,0,0,0,
,0.378,0.108,0.773,129.089,75.866,177.917,0,0,0,
,0.146,0.16,0.9,-148.682,83.923,212.524,0,0,0,
,-0.076,0.255,0.966,-143.006,92.956,227.172,0,0,0,
,-0.272,0.158,0.923,-71.839,100.219,156.372,0,0,0,
,-0.415,0.3,0.955,-104.92,128.418,174.377,0,0,0,
,-0.479,0.146,1.105,84.228,140.564,89.416,0,0,0,
,-0.497,0.147,1.146,39.062,78.43,101.806,0,0,0,
,-0.606,-0.063,1.009,86.059,74.829,52.673,0,0,0,
,-0.672,-0.227,1.153,-4.09,78.247,10.131,0,0,0,
,-0.614,0.04,1.179,-200.135,26.062,-52.308,0,0,0,
,-0.388,0.198,0.992,-293.885,-20.02,-109.131,0,0,0,
,-0.112,0.378,1.062,-181.397,-73.06,-121.888,0,0,0,
,-0.115,0.288,1.051,-15.992,-87.83,-101.258,0,0,0,
,-0.147,0.11,0.941,41.137,-80.14,-120.545,0,0,0,
,-0.18,0.056,0.864,2.136,-41.26,-150.147,0,0,0,
,-0.082,0.19,0.912,-145.081,-21.18,-175.354,0,0,0,
,-0.17,0.443,1.004,7.934,-67.261,-157.044,0,0,0,
,-0.079,0.246,0.917,137.39,-71.289,-207.337,0,0,0,
,-0.184,0.127,1.014,178.833,-31.617,-175.11,0,0,0,
,0.003,0.285,1.17,74.34,-8.362,-249.329,0,0,0,
,0.212,0.291,0.889,70.251,79.956,-280.823,0,0,0,
,0.158,0.096,0.861,13.244,212.524,-249.512,0,0,0,
,0.253,0.316,1.019,-178.162,322.204,-219.666,0,0,0,
,0.376,0.532,1.108,-211.304,375.793,-188.721,0,0,0,
,0.452,0.532,1.017,-228.333,417.419,-155.274,0,0,0,
,0.694,0.562,1.045,-274.659,387.146,-51.758,0,0,0,
,0.934,0.763,0.786,-175.721,329.589,22.399,0,0,0,
,1.083,0.752,0.564,-226.197,218.2,-13.001,0,0,0,
,1.324,0.803,0.447,-399.353,50.048,149.475,0,0,0,
,1.395,0.901,0.578,-387.574,-179.2,282.104,0,0,0,
,1.14,0.778,0.789,-391.968,-464.356,421.753,0,0,0,
,0.829,0.972,0.943,-404.541,-759.217,569.091,0,0,0,
,0.499,0.819,0.765,-204.529,-866.7,613.464,0,0,0,
,0.189,0.68,0.57,-27.039,-867.249,545.044,0,0,0,
,-0.11,0.576,0.52,-38.575,-815.857,491.943,0,0,0,
,-0.382,0.467,0.432,-175.293,-735.535,361.694,0,0,0,
,-0.632,0.443,0.421,-277.894,-652.955,155.822,0,0,0,
,-0.728,0.359,0.579,-73.121,-497.132,36.01,0,0,0,
,-0.668,0.134,0.775,313.842,-339.478,47.058,0,0,0,
,-0.581,-0.178,0.862,189.148,-274.842,-52.185,0,0,0,
,-0.664,-0.163,0.702,-194.581,-359.375,-291.321,0,0,0,
,-0.7,-0.114,0.683,-482.544,-344.971,-282.41,0,0,0,
,-0.588,0.134,0.66,-531.495,-349.976,-303.65,0,0,0,
,-0.609,0.318,0.794,-138.733,-311.036,-401.612,0,0,0,
,-0.608,0.312,1.039,304.748,-203.98,-413.392,0,0,0,
,-0.535,0.115,1.16,375.305,-130.982,-403.687,0,0,0,
,-0.512,0.1,1.108,32.714,-182.679,-417.847,0,0,0,
,-0.511,0.228,1.056,-186.89,-182.496,-379.395,0,0,0,
,-0.469,0.291,1.02,-4.395,-92.102,-278.931,0,0,0,
,-0.397,0.216,1.034,308.166,22.277,-190.491,0,0,0,
,-0.356,0.059,1.135,542.236,122.985,-149.231,0,0,0,
,-0.32,-0.034,1.156,444.336,166.015,-121.094,0,0,0,
,-0.257,0.212,1.138,103.576,85.632,-46.753,0,0,0,
,-0.327,0.307,1.27,74.707,109.008,-37.11,0,0,0,
,-0.345,0.167,0.884,98.449,108.642,-72.266,0,0,0,
,-0.363,-0.015,0.829,333.923,173.462,8.483,0,0,0,
,-0.285,0.043,0.873,290.649,153.198,-72.51,0,0,0,
,-0.408,0.149,0.918,414.917,198.852,-131.531,0,0,0,
,-0.45,-0.13,0.83,394.531,275.085,-152.161,0,0,0,
,-0.333,-0.204,0.891,32.043,281.433,-164.673,0,0,0,
,-0.164,-0.073,1.258,-318.787,253.112,-234.192,0,0,0,
,-0.012,0.18,1.241,-749.146,191.528,-242.432,0,0,0,
,0.029,0.612,0.996,-953.614,142.639,-212.891,0,0,0,
,-0.076,0.88,0.852,-597.107,147.827,-140.137,0,0,0,
,-0.209,1.177,0.897,118.042,180.236,-31.495,0,0,0,
,-0.267,0.92,1.134,852.417,172.241,37.536,0,0,0,
,-0.146,0.229,1.196,1118.652,121.826,68.42,0,0,0,
,-0.173,-0.048,1.104,588.867,15.991,-1.648,0,0,0,
,-0.215,0.026,0.985,141.113,-34.974,-49.988,0,0,0,
,-0.209,0.099,0.864,138.916,-28.382,-110.291,0,0,0,
,-0.222,-0.032,0.633,103.82,35.095,-209.534,0,0,0,
,-0.013,-0.207,0.703,-107.85,159.24,-271.607,0,0,0,
,0.235,0.275,0.97,-552.735,125,-326.416,0,0,0,
,0.343,0.891,0.93,-944.031,79.467,-227.051,0,0,0,
,0.348,1.246,0.624,-995.667,65.551,-137.696,0,0,0,
,0.395,1.449,0.502,-741.394,105.896,-75.501,0,0,0,
,0.611,1.405,0.558,-182.19,184.631,-6.165,0,0,0,
,0.71,1.082,0.7,333.557,149.719,86.303,0,0,0,
,0.554,0.719,0.659,209.167,85.449,166.87,0,0,0,
,0.272,0.724,0.65,-42.054,5.859,238.891,0,0,0,
,0.112,0.766,0.639,-106.507,-9.705,237.243,0,0,0,
,0.082,0.568,0.473,77.819,50.231,233.337,0,0,0,
,-0.007,0.112,0.346,358.642,169.433,162.292,0,0,0,
,-0.227,-0.082,0.8,357.971,302.002,146.057,0,0,0,
,-0.389,0.037,1.286,143.432,313.964,134.765,0,0,0,
,-0.425,-0.096,1.412,-253.54,272.277,45.532,0,0,0,
,-0.334,-0.159,1.234,-612.793,225.952,29.052,0,0,0,
,-0.394,-0.106,1.233,-641.236,170.898,24.169,0,0,0,
,-0.795,0.98,1.32,268.188,210.754,219.238,0,0,0,
,-0.856,0.052,1.307,843.2,206.421,58.471,0,0,0,
,-0.334,-0.268,1.321,348.693,81.787,60.119,0,0,0,
,-0.124,0.126,1.192,-241.883,-7.264,-45.105,0,0,0,
,-0.216,0.395,1.057,-536.805,-20.691,2.807,0,0,0,
,-0.124,0.634,0.842,-227.295,7.934,31.616,0,0,0,
,-0.106,0.696,0.874,442.627,13.977,2.563,0,0,0,
,-0.184,0.357,0.965,990.539,3.967,-59.082,0,0,0,
,-0.155,0.078,1.213,940.368,-62.623,-139.71,0,0,0,
,-0.161,0.025,1.088,333.618,-148.987,-194.642,0,0,0,
,-0.202,0.176,0.804,17.456,-111.634,-222.474,0,0,0,
,-0.102,0.273,0.729,86.975,-23.926,-204.834,0,0,0,
,-0.089,0.374,0.852,321.228,77.941,-185.852,0,0,0,
,-0.139,0.226,1.079,491.577,113.769,-277.955,0,0,0,
,-0.076,0.049,1.166,321.472,129.699,-307.19,0,0,0,
,0.043,0.067,1.076,45.471,166.442,-310.975,0,0,0,
,0.123,-0.016,0.869,-312.989,281.86,-382.325,0,0,0,
,0.189,0.307,0.764,-618.897,309.57,-210.633,0,0,0,
,0.179,0.524,0.664,-671.57,319.519,-246.521,0,0,0,
,0.304,0.553,0.641,-745.179,316.894,-364.38,0,0,0,
,0.536,0.812,0.666,-857.483,238.464,-181.58,0,0,0,
,0.624,0.98,0.649,-563.416,159.301,-98.45,0,0,0,
,0.632,0.906,0.746,-171.631,8.117,-67.627,0,0,0,
,0.543,0.72,0.826,12.634,-176.331,29.968,0,0,0,
,0.325,0.631,0.863,9.887,-360.657,94.116,0,0,0,
,-0.006,0.616,0.819,19.104,-387.146,218.689,0,0,0,
,-0.25,0.478,0.776,162.17,-302.491,171.447,0,0,0,
,-0.371,0.351,0.837,275.817,-183.289,181.335,0,0,0,
,-0.443,0.238,0.864,248.718,-63.782,184.57,0,0,0,
,-0.451,0.197,0.837,131.286,58.349,130.493,0,0,0,
,-0.12,0.43,0.942,-0.184,259.399,71.35,0,0,0,
,0.01,0.363,0.93,127.014,257.629,55.969,0,0,0,
,0.104,0.358,0.947,176.635,229.431,88.073,0,0,0,
,0.16,0.385,0.939,153.259,201.66,91.613,0,0,0,
,0.296,0.402,0.769,-5.249,131.652,59.631,0,0,0,
,0.424,0.408,1.048,367.187,3.173,-6.165,0,0,0,
,0.522,0.377,0.98,817.199,20.385,-6.104,0,0,0,
,0.374,-0.163,0.662,642.456,-95.581,-235.718,0,0,0,
,0.185,-0.036,0.472,-16.419,-73.67,-18.921,0,0,0,
,0.215,0.699,0.63,-509.095,-1.099,-19.41,0,0,0,
,0.282,1.07,1.025,-160.096,52.551,-116.15,0,0,0,
,0.428,0.863,1.498,620.849,33.508,-69.336,0,0,0,
,0.35,0.168,1.471,558.715,-77.21,33.325,0,0,0,
,0.153,0.151,1.057,0.854,-177.308,215.759,0,0,0,
,-0.031,0.337,0.864,38.024,-115.784,264.831,0,0,0,
,-0.078,0.281,0.9,242.431,-13.428,175.903,0,0,0,
,0.072,0.021,0.774,-106.69,148.437,114.868,0,0,0,
,-0.097,0.197,0.956,-270.813,166.992,152.771,0,0,0,
,-0.088,0.57,1.004,-188.66,167.053,126.037,0,0,0,
,-0.049,0.499,1.013,94.299,176.208,109.497,0,0,0,
,-0.076,0.2,0.994,167.907,161.255,105.957,0,0,0,
,-0.288,-0.146,0.902,122.863,158.386,91.491,0,0,0,
,-0.574,-0.284,0.787,-4.456,180.786,49.377,0,0,0,
,-0.725,-0.103,0.916,-141.663,190.307,-36.255,0,0,0,
,-0.521,0.187,1.373,-94.788,154.052,-182.129,0,0,0,
,-0.225,0.26,1.63,83.007,5.798,-148.133,0,0,0,
,-0.11,0.255,1.368,104.126,-98.023,-91.797,0,0,0,
,-0.292,0.141,1.049,83.252,-128.54,-30.091,0,0,0,
,-0.284,0.128,0.896,95.581,-88.807,-120.606,0,0,0,
,-0.255,0.049,0.886,184.997,-7.752,-123.475,0,0,0,
,-0.166,0.005,1.129,61.157,-12.696,-184.876,0,0,0,
,-0.163,0.154,1.116,-90.821,-85.328,-176.148,0,0,0,
,-0.271,0.153,0.95,-16.602,-95.093,-195.618,0,0,0,
,-0.248,0.145,0.872,1.403,-65.613,-241.517,0,0,0,
,-0.172,0.175,0.912,89.294,-9.766,-261.536,0,0,0,
,-0.002,0.227,0.868,29.907,9.155,-302.735,0,0,0,
,0.182,0.359,0.797,3.356,40.588,-335.144,0,0,0,
,0.371,0.266,0.804,-29.541,106.262,-416.321,0,0,0,
,0.634,0.293,1.061,-215.027,106.567,-380.433,0,0,0,
,0.712,0.604,1.062,-147.095,96.13,-253.785,0,0,0,
,0.82,0.635,0.946,60.669,102.417,-248.658,0,0,0,
,0.95,0.471,0.9,133.3,104.797,-169.922,0,0,0,
,0.992,0.544,0.9,16.662,76.049,-1.16,0,0,0,
,0.696,0.45,0.762,95.214,64.086,63.049,0,0,0,
,0.354,0.068,0.699,22.705,78.552,84.961,0,0,0,
,0.406,0.212,0.74,-245.24,69.885,131.53,0,0,0,
,0.474,0.463,0.797,-243.348,44.738,150.879,0,0,0,
,0.402,0.618,1.127,-105.042,-37.781,211.242,0,0,0,
,0.287,0.501,1.082,57.861,-129.029,198.486,0,0,0,
,0.084,0.116,0.862,130.981,-140.076,205.139,0,0,0,
,-0.085,-0.016,0.788,-56.397,-85.694,191.528,0,0,0,
,-0.141,0.147,0.651,-203.858,39.489,172.424,0,0,0,
,-0.201,0.016,0.773,-73.67,165.893,104.309,0,0,0,
,-0.207,0.073,1.079,-225.953,219.238,93.139,0,0,0,
,-0.247,0.245,1.2,-260.926,200.317,92.834,0,0,0,
,-0.566,-0.091,1.227,-52.369,182.312,64.148,0,0,0,
,-0.589,-0.04,1.331,-118.592,114.502,25.817,0,0,0,
,-0.617,-0.001,1.206,-35.34,58.715,-7.142,0,0,0,
,-0.474,0.152,1.19,1.098,38.635,-49.134,0,0,0,
,-0.306,0.136,1.225,49.072,2.441,-76.355,0,0,0,
,-0.168,0.039,0.917,-88.807,-20.508,-87.769,0,0,0,
,-0.047,0.285,0.941,-148.865,-13.733,-7.019,0,0,0,
,-0.023,0.362,1.007,16.906,-22.156,-40.528,0,0,0,
,0.043,0.437,0.995,123.779,-34.302,-31.067,0,0,0,
,-0.015,0.307,1.107,151.916,-59.388,-55.542,0,0,0,
,-0.055,0.148,1.054,43.212,-120.24,-75.135,0,0,0,
,-0.069,0.195,0.808,-36.316,-118.775,-86.976,0,0,0,
,-0.094,0.247,0.836,1.281,-77.088,-110.779,0,0,0,
,-0.05,0.33,0.9,49.133,-44.8,-133.118,0,0,0,
,-0.023,0.275,0.914,78.735,-17.701,-161.927,0,0,0,
,0,0.266,1.038,68.969,-17.518,-165.406,0,0,0,
,-0.064,0.176,0.976,54.199,-25.879,-177.124,0,0,0,
,-0.101,0.121,0.933,-0.855,-1.282,-228.211,0,0,0,
,-0.008,0.364,0.979,-64.576,46.63,-229.859,0,0,0,
,0.086,0.44,1.041,118.774,130.554,-253.174,0,0,0,
,0.119,0.181,0.989,231.75,221.557,-250.916,0,0,0,
,0.172,0.184,1.118,160.156,302.734,-207.703,0,0,0,
,0.276,0.278,1.067,43.518,367.92,-200.867,0,0,0,
,0.301,0.361,1.056,-16.541,389.16,-185.608,0,0,0,
,0.462,0.395,0.969,-185.852,350.769,-185.914,0,0,0,
,0.749,0.589,0.811,-207.398,258.728,-98.389,0,0,0,
,0.97,0.616,0.653,-117.981,157.592,-103.516,0,0,0,
,1.114,0.437,0.521,-237.61,6.652,-34.119,0,0,0,
,1.354,0.666,0.718,-513.001,-251.77,208.13,0,0,0,
,1.264,0.71,0.626,-290.023,14642.769,3538.008,0,0,0,
,1.203,0.89,0.867,-295.044,-590.821,443.237,0,0,0,
,0.854,0.761,1.05,-240.235,-779.419,521.545,0,0,0,
,0.563,0.727,0.911,-373.597,-939.698,550.842,0,0,0,
,0.283,0.671,0.78,-447.998,-1058.167,521.179,0,0,0,
,-0.07,0.565,0.464,-525.391,-1013.855,387.817,0,0,0,
,-0.34,0.515,0.505,-468.689,-990.967,306.945,0,0,0,
,-0.551,0.547,0.442,-333.558,-845.276,194.885,0,0,0,
,-0.569,0.348,0.388,-17.456,-663.147,10.559,0,0,0,
,-0.53,0.223,0.47,270.996,-499.756,1.159,0,0,0,
,-0.69,0.06,0.626,341.735,-336.67,-58.411,0,0,0,
,-0.858,-0.28,0.696,174.865,-155.823,-165.467,0,0,0,
,-0.812,-0.396,0.724,-181.58,-108.948,-152.832,0,0,0,
,-0.745,-0.209,0.797,-369.568,-108.094,-234.742,0,0,0,
,-0.729,-0.08,0.921,-176.331,-69.642,-339.661,0,0,0,
,-0.666,-0.025,1.118,18.31,-35.645,-412.476,0,0,0,
,-0.568,-0.025,1.224,-36.072,-60.608,-452.576,0,0,0,
,-0.469,0.033,1.205,-249.39,-121.888,-473.633,0,0,0,
,-0.398,0.24,1.094,-312.623,-183.899,-419.922,0,0,0,
,-0.4,0.405,1.071,-64.209,-154.847,-357.361,0,0,0,
,-0.412,0.411,1.065,318.786,-70.679,-276.49,0,0,0,
,-0.376,0.299,1.293,549.194,25.756,-184.51,0,0,0,
,-0.528,0.336,1.047,409.057,45.654,-163.331,0,0,0,
,-0.418,0.253,1.041,419.006,117.248,67.26,0,0,0,
,-0.209,0.148,0.862,341.797,136.291,-19.288,0,0,0,
,-0.239,0.069,0.691,495.788,258.606,-71.717,0,0,0,
,-0.207,0.012,1.108,648.437,341.613,-43.824,0,0,0,
,-0.164,0.001,1.109,566.589,365.112,-80.323,0,0,0,
,-0.27,-0.261,1.106,431.091,376.526,-154.358,0,0,0,
,-0.346,-0.149,1.103,-52.674,305.908,-191.163,0,0,0,
,-0.28,0.234,1.328,-280.762,218.017,-183.228,0,0,0,
,-0.128,1.098,1.132,92.712,107.666,16.052,0,0,0,
,-0.252,0.136,0.857,637.573,209.838,-87.586,0,0,0,
,-0.188,0.31,1.199,436.828,79.834,31.982,0,0,0,
,-0.114,0.301,1.258,407.653,31.433,48.645,0,0,0,
,-0.083,0.173,0.936,288.818,44.555,85.083,0,0,0,
,0.064,0.079,0.783,195.678,115.173,90.332,0,0,0,
,0.103,0.107,0.778,-54.139,147.644,44.494,0,0,0,
,-0.022,0.479,0.75,-43.946,162.536,26.916,0,0,0,
,-0.136,0.211,0.924,363.525,265.197,55.297,0,0,0,
,-0.077,-0.14,1.291,378.418,245.971,58.166,0,0,0,
,-0.172,0.059,1.368,-7.019,124.755,30.517,0,0,0,
,-0.241,0.18,0.998,-187.256,62.683,21.606,0,0,0,
,-0.22,0.222,0.799,-98.267,29.419,9.155,0,0,0,
,-0.254,0.279,0.747,168.579,59.753,-31.983,0,0,0,
,-0.117,0.031,1.073,447.448,117.37,-18.555,0,0,0,
,-0.041,-0.177,1.241,273.437,107.36,-61.768,0,0,0,
,-0.079,-0.046,1.192,-50.049,65.918,-79.895,0,0,0,
,-0.117,-0.082,1.092,-171.448,59.265,-91.858,0,0,0,
,-0.261,0.071,0.726,-326.661,89.843,-158.631,0,0,0,
,-0.342,0.34,0.551,-47.242,174.377,-198.548,0,0,0,
,-0.16,0.059,0.95,423.523,301.635,-229.859,0,0,0,
,-0.003,-0.249,1.329,191.162,314.636,-303.04,0,0,0,
,0.032,-0.336,1.262,-397.156,327.209,-363.221,0,0,0,
,0.071,-0.312,1.036,-800.843,323.364,-412.781,0,0,0,
,-0.053,0.018,0.546,-1307.007,228.942,-461.365,0,0,0,
,0.069,1.422,1.445,-1074.097,33.325,-133.912,0,0,0,
,0.421,1.19,1.141,-98.938,187.439,-328.186,0,0,0,
,0.536,-0.002,0.806,-311.524,102.966,-524.903,0,0,0,
,0.933,0.741,0.781,-842.347,-177.735,-80.018,0,0,0,
,1.096,1.366,0.824,-637.269,-334.351,6.469,0,0,0,
,0.971,1.271,0.834,-114.136,-369.629,182.495,0,0,0,
,0.56,0.751,0.782,135.009,-459.412,209.472,0,0,0,
,0.145,0.608,0.763,-35.706,-575.989,335.754,0,0,0,
,-0.188,0.583,0.652,-39.978,-508.423,381.042,0,0,0,
,-0.345,0.387,0.627,93.078,-350.281,366.516,0,0,0,
,-0.381,0.203,0.615,160.888,-208.008,388.733,0,0,0,
,-0.364,0.115,0.668,146.301,-72.327,403.076,0,0,0,
,-0.364,0.037,0.638,-24.476,45.776,354.004,0,0,0,
,-0.361,0.093,0.697,-201.05,121.948,387.085,0,0,0,
,-0.366,0.232,0.776,-222.107,226.623,431.579,0,0,0,
,-0.383,0.228,0.844,-183.838,314.026,394.775,0,0,0,
,-0.421,0.173,0.916,-147.644,378.601,366.76,0,0,0,
,-0.444,0.143,0.929,-199.219,407.348,302.856,0,0,0,
,-0.402,0.178,0.887,-303.467,369.384,272.216,0,0,0,
,-0.299,0.251,0.914,-135.132,379.333,221.252,0,0,0,
,-0.18,0.292,1.009,29.357,356.323,192.26,0,0,0,
,-0.135,0.304,1.13,125.915,319.641,182.006,0,0,0,
,-0.16,0.253,1.11,108.093,313.476,169.433,0,0,0,
,-0.146,0.206,1.082,-1.038,295.227,154.358,0,0,0,
,-0.089,0.23,0.981,-61.036,255.92,137.756,0,0,0,
,-0.068,0.262,0.861,132.507,252.685,96.191,0,0,0,
,-0.077,0.267,0.911,354.004,276.184,44.433,0,0,0,
,-0.118,0.124,0.834,379.577,312.5,-36.988,0,0,0,
,-0.066,0.032,1.143,251.22,245.3,-122.193,0,0,0,
,0.316,-0.031,1.381,201.172,183.105,-267.395,0,0,0,
,0.284,0.359,0.813,150.695,141.601,-44.739,0,0,0,
,-0.405,0.058,0.861,126.526,275.207,-245.911,0,0,0,
,-0.362,0.279,1.346,68.542,265.442,4.333,0,0,0,
,0.039,0.245,1.47,-51.636,148.315,-241.211,0,0,0,
,0.032,0.042,1.31,-505.799,-48.951,-229.554,0,0,0,
,-0.061,0.084,0.981,-810.181,-197.754,-221.68,0,0,0,
,-0.283,0.648,0.392,-591.492,-39.551,-43.885,0,0,0,
,-0.279,1.115,1.013,200.622,126.587,-33.326,0,0,0,
,0,0.382,1.298,774.414,113.952,-152.894,0,0,0,
,0.211,-0.011,0.977,364.196,9.216,-74.341,0,0,0,
,-0.05,0.027,0.85,46.997,-4.578,-67.566,0,0,0,
,-0.162,0.201,0.842,4.699,31.86,-94.178,0,0,0,
,-0.061,0.348,0.873,171.386,85.51,-163.392,0,0,0,
,0.081,0.432,0.977,150.512,123.169,-187.073,0,0,0,
,0.273,0.484,0.962,41.687,87.402,-160.584,0,0,0,
,0.255,0.361,0.881,43.396,31.616,-170.472,0,0,0,
,0.174,0.286,0.814,-32.41,33.447,-117.981,0,0,0,
,0.103,0.096,0.701,-50.843,36.132,-187.134,0,0,0,
,0.066,0.271,0.67,-109.375,66.955,-173.523,0,0,0,
,0.145,0.634,0.966,-37.537,101.257,-201.844,0,0,0,
,0.296,0.442,1.163,82.946,34.973,-246.766,0,0,0,
,0.431,0.389,1.134,-8.912,-19.288,-191.285,0,0,0,
,0.529,0.544,0.89,-100.831,-46.387,-116.211,0,0,0,
,0.598,0.639,0.722,7.934,-11.475,-67.81,0,0,0,
,0.718,0.684,0.605,62.561,43.579,-28.87,0,0,0,
,0.613,0.542,0.799,188.232,57.128,19.226,0,0,0,
,0.557,0.194,0.848,121.399,25.695,14.221,0,0,0,
,0.453,0.184,0.876,-35.218,-8.057,99.853,0,0,0,
,0.331,0.364,0.846,-174.683,-24.964,132.873,0,0,0,
,0.307,0.5,0.85,-72.571,-30.03,136.596,0,0,0,
,0.333,0.551,0.868,-17.212,-27.039,167.358,0,0,0,
,0.269,0.317,0.854,53.649,-16.907,146.301,0,0,0,
,0.111,0.034,0.765,-51.209,18.249,140.319,0,0,0,
,-0.113,-0.043,0.716,-246.582,117.614,121.521,0,0,0,
,-0.25,0.23,0.872,-420.044,188.171,117.92,0,0,0,
,-0.404,0.423,1.064,-210.938,165.771,62.805,0,0,0,
,-0.534,0.16,1.314,64.453,138.733,-19.776,0,0,0,
,-0.519,-0.087,1.44,13.794,70.8,-40.894,0,0,0,
,-0.564,-0.09,1.302,-72.388,33.447,-43.091,0,0,0,
,-0.372,0.282,1.009,-73.853,-98.389,-109.07,0,0,0,
,-0.36,0.235,1.096,135.986,-97.596,-158.081,0,0,0,
,-0.285,0.145,1.128,127.746,-126.587,-162.049,0,0,0,
,-0.274,0.117,1.127,92.163,-148.987,-180.359,0,0,0,
,-0.261,0.254,1.096,88.073,-164.246,-182.862,0,0,0,
,0.126,0.124,0.938,102.6,14.526,-364.38,0,0,0,
,0.2,0.222,0.789,-20.386,73.059,-347.107,0,0,0,
,0.321,0.335,0.773,-111.878,123.779,-361.023,0,0,0,
,0.543,0.626,1.057,-15.809,116.027,-291.077,0,0,0,
,0.874,0.844,0.86,54.504,85.205,-234.559,0,0,0,
,0.835,-0.169,0.612,-227.723,157.531,-129.639,0,0,0,
,0.782,0.79,0.909,-342.225,79.467,225.952,0,0,0,
,0.42,0.826,0.979,48.767,-13.428,38.513,0,0,0,
,0.385,0.538,0.932,197.021,-101.075,121.521,0,0,0,
,0.396,0.321,0.841,20.446,-165.772,124.084,0,0,0,
,0.412,0.465,0.856,-20.63,-196.228,255.005,0,0,0,
,0.437,0.298,0.664,59.265,-171.326,200.317,0,0,0,
,0.163,-0.133,0.516,43.579,-72.632,124.878,0,0,0,
,-0.08,0.009,0.923,-241.883,2.319,204.895,0,0,0,
,-0.01,0.541,1.304,-363.587,-43.213,210.937,0,0,0,
,0.015,0.526,1.159,-145.997,-84.29,147.155,0,0,0,
,-0.166,0.082,0.938,62.5,-40.101,114.807,0,0,0,
,-0.305,0.004,0.892,-208.008,31.005,150.329,0,0,0,
,-0.406,0.091,0.884,-140.442,139.587,115.905,0,0,0,
,-0.408,-0.124,1.099,-101.38,207.458,-29.053,0,0,0,
,-0.231,0.171,1.393,-421.021,129.638,14.16,0,0,0,
,-0.315,0.261,1.178,-248.719,84.045,-2.93,0,0,0,
,-0.537,0.039,1.082,-77.881,62.988,-5.677,0,0,0,
,-0.598,0.269,1.338,-42.969,-18.921,14.892,0,0,0,
,-0.422,0.285,1.071,34.24,-89.356,-100.769,0,0,0,
,-0.335,0.267,1.222,147.4,-139.344,-88.257,0,0,0,
,-0.197,0.139,1.166,98.571,-197.937,-150.025,0,0,0,
,-0.331,0.103,1.046,113.22,-190.735,-128.663,0,0,0,
,-0.273,0.13,0.989,68.786,-148.316,-198.304,0,0,0,
,-0.095,0.286,0.939,125.549,-127.625,-258.484,0,0,0,
,0.093,0.3,0.886,196.472,-92.102,-338.379,0,0,0,
,0.358,0.326,0.924,84.472,-67.872,-314.087,0,0,0,
,0.534,0.492,0.872,-36.438,-39.185,-243.897,0,0,0,
,0.602,0.553,0.767,-88.746,14.831,-216.492,0,0,0,
,0.667,0.654,0.827,-109.192,44.799,-116.15,0,0,0,
,0.738,0.713,0.766,-8.789,32.287,-52.124,0,0,0,
,0.734,0.67,0.605,25.146,0.732,2.746,0,0,0,
,0.506,0.493,0.773,124.511,-53.345,20.202,0,0,0,
,0.48,0.306,0.89,-93.873,-188.355,13.549,0,0,0,
,0.476,0.598,0.591,-347.962,-259.522,158.935,0,0,0,
,0.333,0.41,0.36,-202.82,-218.873,42.358,0,0,0,
,0.093,0.297,0.536,-84.473,-130.31,85.815,0,0,0,
,-0.027,0.326,0.845,-38.88,-63.538,73.974,0,0,0,
,-0.1,0.298,1.118,-34.729,-65.003,63.171,0,0,0,
,-0.187,0.269,1.244,-141.114,-100.525,69.946,0,0,0,
,-0.197,0.293,1.165,-236.023,-125.489,113.952,0,0,0,
,-0.225,0.197,1.159,-250.855,-102.478,127.929,0,0,0,
,-0.254,0.142,1.147,-475.525,-63.904,169.983,0,0,0,
,-0.273,0.327,1.016,-812.317,-116.333,235.534,0,0,0,
,-0.227,0.52,1.011,-571.778,-132.63,305.114,0,0,0,
,-0.105,0.698,1.037,-215.76,-161.744,288.635,0,0,0,
,0.007,0.51,0.833,-238.465,-195.435,153.625,0,0,0,
,0.102,0.478,0.892,-479.554,-378.968,187.378,0,0,0,
,0.027,0.792,0.815,-596.009,-526.612,217.346,0,0,0,
,-0.317,0.552,0.968,-341.797,-544.861,-15.32,0,0,0,
,-0.48,0.582,0.66,-366.333,-544.678,74.768,0,0,0,
,-0.42,0.095,0.806,-5.86,-278.016,-126.221,0,0,0,
,-0.398,0.146,0.822,-62.745,-202.881,-115.235,0,0,0,
,-0.48,0.227,0.872,-136.841,-171.692,-168.763,0,0,0,
,-0.541,0.304,0.928,-113.587,-154.969,-128.296,0,0,0,
,-0.51,0.266,1.034,174.743,-94.605,-103.516,0,0,0,
,-0.45,0.184,1.086,267.334,-73.426,-96.131,0,0,0,
,-0.354,0.023,1.009,157.104,-53.162,-140.564,0,0,0,
,-0.334,0.398,0.882,-134.461,-124.39,-177.918,0,0,0,
,-0.359,0.548,0.897,181.64,-11.17,-133.057,0,0,0,
,-0.316,0.432,0.997,490.417,84.777,-81.849,0,0,0,
,-0.211,0.246,1.058,517.578,142.7,-74.036,0,0,0,
,-0.027,0.325,1.032,98.877,-0.306,3.234,0,0,0,
,-0.202,0.292,0.875,111.755,112.182,-111.512,0,0,0,
,-0.285,0.22,0.811,150.512,74.035,-113.709,0,0,0,
,-0.351,0.402,0.936,480.835,167.846,-58.716,0,0,0,
,-0.36,0.223,1.251,638.366,228.698,-75.318,0,0,0,
,-0.432,0.07,1.081,177.49,136.474,-80.445,0,0,0,
,-0.415,0.106,1.078,-127.198,112.304,-31.373,0,0,0,
,-0.284,0.301,0.889,-291.81,84.533,-11.841,0,0,0,
,-0.297,0.363,0.939,248.779,166.137,-37.11,0,0,0,
,-0.277,0.122,1.002,438.659,194.824,-72.632,0,0,0,
,-0.214,0.207,0.974,129.821,173.767,-72.632,0,0,0,
,-0.11,0.452,1.049,74.096,187.255,20.813,0,0,0,
,-0.118,0.409,1.017,116.394,190.673,46.508,0,0,0,
,-0.207,0.362,0.884,45.166,179.626,69.58,0,0,0,
,-0.26,0.346,0.826,190.857,199.035,41.32,0,0,0,
,-0.253,0.294,0.881,349.548,219.726,-5.127,0,0,0,
,-0.177,0.359,1.029,367.675,192.26,-26.001,0,0,0,
,-0.066,0.247,0.887,175.781,120.056,-78.186,0,0,0,
,-0.082,0.135,0.841,132.263,112.671,-119.263,0,0,0,
,-0.12,0.049,0.875,20.813,117.553,-162.72,0,0,0,
,-0.121,0.163,1.03,-153.87,121.887,-216.98,0,0,0,
,-0.182,0.226,0.94,-403.077,125.122,-287.781,0,0,0,
,-0.206,0.388,0.796,-478.089,172.363,-294.19,0,0,0,
,-0.151,0.325,0.823,-128.785,300.354,-292.725,0,0,0,
,0.087,-0.033,1.047,-610.596,419.616,-327.698,0,0,0,
,0.205,0.506,1.286,-1118.409,229.004,-201.966,0,0,0,
,0.231,0.89,0.863,-1425.477,66.04,-191.285,0,0,0,
,0.3,1.087,0.531,-1285.401,19.592,-164.49,0,0,0,
,0.521,1.423,0.727,-814.942,-86.121,-23.56,0,0,0,
,0.568,1.371,0.84,24.963,-72.327,19.531,0,0,0,
,0.5,1.172,1.148,347.595,-240.418,144.409,0,0,0,
,0.208,0.795,0.874,424.865,-335.45,249.023,0,0,0,
,-0.059,0.542,0.875,437.5,-318.848,256.713,0,0,0,
,-0.151,0.472,0.811,295.471,-317.383,323.852,0,0,0,
,-0.168,0.39,0.675,110.534,-256.958,303.894,0,0,0,
,-0.18,0.413,0.578,38.513,-174.073,335.022,0,0,0,
,-0.214,0.45,0.557,48.95,-62.5,349.792,0,0,0,
,-0.24,0.4,0.637,225.036,105.651,339.904,0,0,0,
,-0.236,0.304,0.721,318.359,242.248,334.045,0,0,0,
,-0.278,0.247,0.814,81.909,290.588,311.218,0,0,0,
,-0.326,0.405,0.636,-719.117,327.392,215.515,0,0,0,
,-0.236,0.646,0.719,-420.533,337.219,230.896,0,0,0,
,-0.204,0.674,0.825,129.272,379.577,181.823,0,0,0,
,-0.223,0.455,0.979,650.329,443.359,192.443,0,0,0,
,-0.222,0.219,1.099,685.608,446.106,189.453,0,0,0,
,-0.151,0.148,1.075,-216.065,183.654,124.878,0,0,0,
,-0.013,0.445,0.869,-221.192,177.978,-13.001,0,0,0,
,0.048,0.509,0.806,19.836,226.501,-9.034,0,0,0,
,-0.025,0.468,0.851,148.681,254.211,1.098,0,0,0,
,-0.148,0.323,0.893,188.964,329.467,-40.65,0,0,0,
,-0.155,0.189,0.897,-53.589,323.425,-84.961,0,0,0,
,-0.051,0.274,0.617,-635.437,272.4,-199.952,0,0,0,
,0.031,0.267,0.773,-640.137,246.887,-286.438,0,0,0,
,0.432,0.924,1.127,-1036.561,36.071,-104.187,0,0,0,
,0.199,0.973,0.324,-294.434,97.168,-260.315,0,0,0,
,-0.152,0.953,1.363,421.081,118.225,-221.009,0,0,0,
,0.022,0.753,1.13,227.356,116.333,25.94,0,0,0,
,-0.01,0.323,1.064,486.206,75.866,-195.435,0,0,0,
,-0.247,0.134,0.857,255.676,76.049,6.286,0,0,0,
,-0.106,0.664,0.741,-33.753,144.287,-5.188,0,0,0,
,-0.014,1.098,1.108,368.164,94.665,7.263,0,0,0,
,-0.023,0.401,1.119,892.456,8.728,-69.703,0,0,0,
,-0.075,-0.13,0.841,519.409,-80.323,-62.623,0,0,0,
,-0.233,0.566,0.894,481.201,16.479,-201.233,0,0,0,
,-0.006,0.298,1.2,589.843,39.856,-238.709,0,0,0,
,0.179,0.32,1.204,187.866,-13.367,-222.901,0,0,0,
,0.199,0.447,0.906,-45.472,-28.748,-213.135,0,0,0,
,0.352,0.613,0.778,-100.708,-9.278,-214.844,0,0,0,
,0.637,0.794,0.758,-124.817,-6.287,-196.656,0,0,0,
,0.906,0.818,0.56,-164.002,12.207,-173.768,0,0,0,
,1.064,0.626,0.424,-190.552,65.124,-164.307,0,0,0,
,0.929,0.498,0.259,-161.316,144.043,-94.971,0,0,0,
,0.463,0.673,0.673,29.602,206.054,-28.016,0,0,0,
,0.343,0.742,1.076,55.175,146.484,-25.33,0,0,0,
,0.408,0.575,0.96,-48.89,39.856,6.164,0,0,0,
,0.313,0.456,0.825,-119.202,-18.799,49.377,0,0,0,
,0.158,0.515,0.787,-102.601,-3.846,107.36,0,0,0,
,0.084,0.604,0.807,69.152,14.526,117.37,0,0,0,
,0.02,0.455,0.854,330.871,50.964,96.496,0,0,0,
,0.043,0.124,0.881,273.437,107.605,36.132,0,0,0,
,0.042,0.041,0.949,29.296,139.16,26.916,0,0,0,
,-0.097,0.092,1.028,-249.207,167.602,29.846,0,0,0,
,-0.308,0.247,1.023,-325.135,208.007,39.123,0,0,0,
,-0.493,0.407,1.096,-47.852,197.387,41.381,0,0,0,
,-0.614,0.243,1.239,341.125,129.272,29.541,0,0,0,
,-0.646,0.03,1.444,436.096,40.771,16.662,0,0,0,
,-0.434,-0.07,1.458,138.794,-117.005,-48.401,0,0,0,
,-0.068,0.107,1.002,-452.759,-193.299,-76.477,0,0,0,
,-0.093,0.629,0.771,-436.646,-166.077,44.982,0,0,0,
,-0.125,0.713,0.875,244.69,-107.422,-45.594,0,0,0,
,-0.087,0.031,1.257,476.867,-115.601,-112.183,0,0,0,
,-0.128,0.11,1.161,57.922,-176.514,-113.099,0,0,0,
,-0.132,0.248,0.79,-139.039,-181.397,-176.941,0,0,0,
,-0.106,0.44,0.668,-99.06,-101.624,-189.576,0,0,0,
,0.097,0.588,0.83,173.828,-32.288,-218.506,0,0,0,
,0.255,0.278,0.83,396.728,26.55,-281.189,0,0,0,
,0.299,0.033,0.979,240.417,54.26,-276.49,0,0,0,
,0.321,0.2,1.036,-137.452,18.432,-275.208,0,0,0,
,0.432,0.487,0.993,-312.317,-47.791,-245.362,0,0,0,
,0.493,0.718,0.717,-223.511,-82.825,-186.28,0,0,0,
,0.472,0.912,0.631,-28.87,-31.556,-94.483,0,0,0,
,0.52,0.518,0.705,356.567,37.353,-140.198,0,0,0,
,0.66,0.332,0.795,190.551,56.762,-46.326,0,0,0,
,0.593,0.517,0.863,24.231,26.428,44.494,0,0,0,
,0.445,0.417,0.847,8.117,-9.034,45.105,0,0,0,
,0.491,0.495,0.706,-79.59,-55.726,116.272,0,0,0,
,0.193,0.174,0.588,175.293,-9.156,45.654,0,0,0,
,0.005,0.227,0.959,143.676,44.677,91.491,0,0,0,
,0.133,0.484,1.272,27.16,-2.442,56.579,0,0,0,
,0.206,0.375,1.096,17.883,-50.293,59.448,0,0,0,
,0.093,0.459,1.104,-100.831,-102.417,183.899,0,0,0,
,-0.033,0.377,0.775,4.211,-81.177,188.354,0,0,0,
,-0.183,0.069,0.73,266.357,26.489,137.512,0,0,0,
,-0.091,0.041,0.98,119.629,81.726,94.177,0,0,0,
,0.056,0.364,1.123,-22.095,66.955,123.474,0,0,0,
,0.048,0.258,1.048,67.504,76.171,80.383,0,0,0,
,0.106,0.116,0.975,-42.42,76.416,101.196,0,0,0,
,0.078,0.235,1.03,-213.379,100.219,169.983,0,0,0,
,-0.081,0.358,1.144,-252.808,128.418,237.243,0,0,0,
,-0.083,0.353,1.14,-291.077,49.255,220.886,0,0,0,
,-0.009,0.428,1.063,-198.975,36.865,221.374,0,0,0,
,-0.003,0.202,0.91,-22.034,18.737,167.968,0,0,0,
,-0.006,0.226,1.031,-126.343,-115.845,182.434,0,0,0,
,-0.079,0.35,0.8,-96.619,-112.671,226.562,0,0,0,
,-0.35,-0.087,1.005,53.894,-149.598,4.821,0,0,0,
,-0.433,-0.09,1.218,-145.874,-257.081,90.148,0,0,0,
,-0.41,0.036,1.17,-18.616,-260.621,25.817,0,0,0,
,-0.435,0.013,1.08,139.465,-232.3,-15.87,0,0,0,
,-0.444,0.03,0.913,116.15,-169.251,-12.879,0,0,0,
,-0.336,0.284,0.775,-24.476,-75.745,-189.27,0,0,0,
,-0.374,0.312,0.898,125.915,-14.71,-68.36,0,0,0,
,-0.394,0.273,0.87,411.987,102.478,-94.117,0,0,0,
,-0.329,0.157,0.909,477.905,184.082,-195.374,0,0,0,
,-0.247,0.164,0.866,292.236,249.939,-159.424,0,0,0,
,-0.159,0.285,0.765,13.366,331.97,-141.175,0,0,0,
,0.003,0.418,0.788,-51.514,388,-157.227,0,0,0,
,0.136,0.573,0.679,-64.148,534.484,-175.538,0,0,0,
,0.187,0.617,1.187,323.486,352.783,-166.321,0,0,0,
,0.281,0.396,1.019,418.884,299.133,-82.276,0,0,0,
,0.263,0.282,1.016,205.993,233.215,-11.353,0,0,0,
,0.217,0.477,0.892,2.441,251.709,56.213,0,0,0,
,0.204,0.524,0.837,90.82,238.037,41.565,0,0,0,
,0.153,0.267,0.903,271.789,190.49,33.264,0,0,0,
,0.135,0.063,0.966,204.162,161.377,62.011,0,0,0,
,0.123,0.085,0.81,-131.287,230.224,67.81,0,0,0,
,0.186,0.169,0.686,-319.458,244.567,32.043,0,0,0,
,0.194,0.311,0.497,-285.584,321.777,43.273,0,0,0,
,0.238,0.283,0.775,18.31,292.297,48.767,0,0,0,
,0.745,0.588,1.476,233.154,150.512,-42.42,0,0,0,
,0.454,0.525,1.541,693.542,-34.485,192.321,0,0,0,
,0.116,-0.144,0.829,455.322,8.056,117.981,0,0,0,
,-0.071,-0.101,0.431,56.945,175.171,103.698,0,0,0,
,0.037,0.46,1.052,2.441,268.493,93.139,0,0,0,
,0.375,0.334,1.06,420.044,266.113,-57.801,0,0,0,
,0.253,-0.091,1.2,427.795,125.488,64.27,0,0,0,
,0.055,-0.022,1.074,-160.584,71.167,104.248,0,0,0,
,-0.063,0.513,1.125,-192.627,1.098,124.694,0,0,0,
,0.027,0.43,1.202,173.095,18.127,8.422,0,0,0,
,0.057,0.094,0.992,309.448,-13.55,25.329,0,0,0,
,-0.047,-0.082,0.79,100.769,11.901,34.973,0,0,0,
,0.032,0.009,0.842,-193.116,41.198,-6.47,0,0,0,
,0.139,0.312,0.847,-304.932,67.627,-11.658,0,0,0,
,0.12,0.316,0.915,-22.706,58.41,-34.302,0,0,0,
,0.218,0.108,1.03,-66.529,52.856,-48.096,0,0,0,
,0.182,0.121,1.023,-102.906,31.494,-23.682,0,0,0,
,0.173,0.144,0.945,-168.946,33.691,-32.593,0,0,0,
,0.153,0.382,0.943,-90.088,60.73,-8.545,0,0,0,
,0.217,0.328,0.921,74.279,81.787,-77.393,0,0,0,
,0.274,0.261,0.947,56.884,84.228,-88.501,0,0,0,
,0.285,0.112,1.041,45.532,56.945,-88.623,0,0,0,
,0.212,0.087,1.002,-66.59,50.72,-63.538,0,0,0,
,0.204,0.297,1.003,-6.958,61.706,-80.872,0,0,0,
,0.339,0.289,1.013,162.963,107.788,-108.46,0,0,0,
,0.285,0.17,0.838,217.834,120.422,-96.863,0,0,0,
,0.246,0.105,1.133,143.31,116.577,-100.098,0,0,0,
,0.207,0.114,1.031,46.936,104.98,-99.427,0,0,0,
,0.237,0.253,0.869,103.149,121.521,-141.846,0,0,0,
,0.263,0.177,0.967,156.067,138.549,-179.383,0,0,0,
,0.349,0.209,0.959,95.336,168.64,-185.669,0,0,0,
,0.314,0.209,1.039,108.459,160.461,-176.331,0,0,0,
,0.329,0.22,1.069,131.836,137.878,-182.862,0,0,0,
,0.34,0.169,0.898,207.458,129.943,-208.863,0,0,0,
,0.558,0.05,0.692,160.339,125.915,-238.892,0,0,0,
,0.733,0.009,0.667,-11.353,58.532,-197.388,0,0,0,
,0.966,0.057,0.923,-340.21,-116.822,-208.374,0,0,0,
,0.842,0.118,0.555,-359.253,-176.331,-4.822,0,0,0,
,1.076,0.459,1.322,-601.929,-381.409,31.616,0,0,0,
,0.928,0.377,1.218,-358.887,-634.156,232.177,0,0,0,
,0.778,0.379,1.061,-178.711,-658.02,306.274,0,0,0,
,0.755,0.348,0.979,-81.727,-746.766,285.583,0,0,0,
,0.723,0.373,0.931,38.513,-784.119,341.125,0,0,0,
,0.659,0.324,0.841,93.078,-796.448,308.654,0,0,0,
,0.315,0.261,0.688,102.417,-714.173,373.657,0,0,0,
,0.085,0.25,0.614,89.538,-613.831,361.084,0,0,0,
,-0.064,0.291,0.608,105.163,-539.917,312.5,0,0,0,
,-0.144,0.339,0.537,18.371,-425.721,235.168,0,0,0,
,-0.195,0.257,0.468,-105.164,-408.997,80.566,0,0,0,
,-0.334,0.229,0.393,-64.759,-302.491,-22.706,0,0,0,
,-0.59,0.164,0.537,110.901,-178.65,-20.081,0,0,0,
,-0.771,0.153,0.689,256.652,14.221,-57.557,0,0,0,
,-0.815,0.009,0.902,209.289,64.575,-216.614,0,0,0,
,-0.623,-0.159,0.858,-60.547,78.064,-357.239,0,0,0,
,-0.399,-0.274,0.753,-446.595,8.056,-410.828,0,0,0,
,-0.392,-0.049,0.808,-718.323,-128.052,-380.433,0,0,0,
,-0.621,0.085,1.005,-531.067,-79.102,-391.541,0,0,0,
,-0.714,-0.001,1.104,-196.167,101.989,-302.063,0,0,0,
,-0.584,-0.115,1.186,-141.48,129.15,-263.855,0,0,0,
,-0.405,-0.171,1.22,-264.832,82.336,-301.026,0,0,0,
,-0.278,-0.002,1.252,-367.249,-42.969,-284.79,0,0,0,
,-0.263,0.215,1.269,-250.245,-104.92,-279.908,0,0,0,
,-0.319,0.229,1.241,46.203,-80.506,-262.574,0,0,0,
,-0.319,0.067,1.188,331.97,20.935,-229.554,0,0,0,
,-0.234,-0.125,1.137,305.053,95.581,-203.797,0,0,0,
,-0.087,-0.207,1.095,76.843,156.921,-221.619,0,0,0,
,0.001,-0.083,1.005,-242.981,146.728,-207.337,0,0,0,
,-0.055,0.196,0.998,-311.219,163.086,-188.172,0,0,0,
,-0.15,0.293,0.929,-47.425,303.222,-176.087,0,0,0,
,-0.103,0.078,0.892,42.297,424.621,-190.247,0,0,0,
,-0.115,0.441,0.949,-304.505,283.813,-63.599,0,0,0,
,-0.444,0.704,1.01,-61.524,337.341,-13.916,0,0,0,
,-0.312,-0.126,0.825,425.232,504.699,-139.222,0,0,0,
,-0.042,-0.409,0.838,216.43,492.797,-172.181,0,0,0,
,0.075,-0.001,1.814,34.057,384.094,-259.827,0,0,0,
,0.239,1.116,1.582,141.174,160.827,16.601,0,0,0,
,-0.252,-0.36,0.91,398.498,167.48,-305.97,0,0,0,
,-0.206,-0.175,0.994,114.929,129.699,-86.304,0,0,0,
,-0.045,0.161,1.04,44.189,106.689,-179.627,0,0,0,
,-0.046,0.398,1.067,295.837,80.261,-169.312,0,0,0,
,0.02,0.029,1.114,496.46,65.49,-215.577,0,0,0,
,0.082,0.042,1.115,286.743,-3.113,-189.393,0,0,0,
,-0.058,0.08,1.053,271.24,-16.419,-220.704,0,0,0,
,-0.002,0.147,1.049,358.276,13,-255.738,0,0,0,
,-0.017,-0.04,0.991,495.849,40.161,-292.603,0,0,0,
,0.04,-0.225,0.822,346.74,80.017,-340.271,0,0,0,
,0.146,-0.273,0.922,131.469,136.535,-404.358,0,0,0,
,0.388,-0.051,0.862,-217.774,171.447,-479.31,0,0,0,
,0.501,0.498,0.467,-684.388,222.107,-436.646,0,0,0,
,0.629,1.168,0.666,-634.339,271.484,-199.036,0,0,0,
,0.885,0.89,0.939,-71.534,286.071,-223.389,0,0,0,
,0.979,0.441,1.003,-94.3,138,-94.849,0,0,0,
,0.298,0.493,0.739,-242.92,-165.589,189.697,0,0,0,
,0.221,0.656,0.93,-47.73,-185.059,198.059,0,0,0,
,0.242,0.5,1.123,164.367,-206.36,197.815,0,0,0,
,0.309,0.334,0.902,137.878,-233.643,266.052,0,0,0,
,0.221,-0.056,0.496,34.423,-151.429,180.969,0,0,0,
,0.126,-0.21,0.595,-151.734,-0.611,158.325,0,0,0,
,0.087,0.069,0.845,-520.874,68.298,207.153,0,0,0,
,0.05,0.072,1.091,-229.31,187.5,133.911,0,0,0,
,-0.015,0.127,1.543,-290.162,34.729,191.955,0,0,0,
,-0.243,0.321,1.481,-61.158,-27.588,253.051,0,0,0,
,-0.437,-0.134,0.955,-42.42,-63.782,82.763,0,0,0,
,-0.364,-0.172,0.772,-137.635,-23.011,118.835,0,0,0,
,-0.372,-0.22,1.133,163.452,27.648,-9.522,0,0,0,
,-0.39,-0.261,1.324,39.001,-23.743,-71.167,0,0,0,
,-0.392,-0.047,1.271,-232.911,-71.656,-50.11,0,0,0,
,-0.181,0.058,1.244,-226.319,-78.614,-90.882,0,0,0,
,-0.007,0.059,1.1,-257.569,-68.299,-93.934,0,0,0,
,0.027,0.203,0.802,-274.414,11.901,-43.519,0,0,0,
,-0.037,0.19,0.913,-4.761,92.102,-81.788,0,0,0,
,-0.04,0.158,1.055,127.136,112.121,-115.052,0,0,0,
,-0.061,0.077,1.19,137.268,72.448,-146.302,0,0,0,
,-0.127,0.047,1.216,67.138,-3.785,-164.368,0,0,0,
,-0.224,0.166,1.178,-56.153,-79.224,-172.181,0,0,0,
,-0.218,0.323,1.049,83.007,-113.099,-193.116,0,0,0,
,-0.1,0.221,0.986,287.353,-101.319,-217.164,0,0,0,
,0.02,0.152,1.035,308.715,-116.333,-225.769,0,0,0,
,0.002,0.212,0.969,330.139,-126.587,-245.789,0,0,0,
,-0.131,0.014,0.967,442.505,-84.473,-313.843,0,0,0,
,-0.008,0.003,0.909,147.644,-40.772,-361.756,0,0,0,
,0.127,0.126,0.869,25.329,18.737,-389.649,0,0,0,
,0.233,0.076,0.789,-60.242,95.153,-431.58,0,0,0,
,0.283,0.281,0.949,-125.794,98.266,-346.192,0,0,0,
,0.381,0.579,0.897,-96.558,104.248,-286.316,0,0,0,
,0.424,0.528,0.986,168.396,120.483,-332.825,0,0,0,
,0.486,0.312,1.076,165.405,84.899,-369.507,0,0,0,
,0.662,0.371,0.835,-274.109,1.892,-349.549,0,0,0,
,0.883,0.737,0.482,-30.64,-6.165,-50.721,0,0,0,
,0.721,0.361,0.664,339.538,26.489,-13.916,0,0,0,
,0.558,0.186,0.92,96.374,-37.842,110.839,0,0,0,
,0.465,0.458,1.136,-148.011,-130.433,278.503,0,0,0,
,0.442,0.545,1.128,-104.554,-197.754,291.32,0,0,0,
,0.289,0.441,0.823,-71.717,-205.445,342.529,0,0,0,
,0.091,0.003,0.361,73.73,-80.994,252.319,0,0,0,
,0.016,-0.223,0.463,-95.459,39.245,197.57,0,0,0,
,0.016,0.195,1.023,-194.275,70.8,299.926,0,0,0,
,-0.03,0.389,1.362,-131.897,62.927,211.12,0,0,0,
,-0.212,-0.147,0.79,-222.229,194.824,168.884,0,0,0,
,-0.275,-0.006,1.078,-250.855,248.108,175.659,0,0,0,
,-0.271,0.587,1.703,156.555,126.22,222.107,0,0,0,
,-0.462,-0.037,1.546,205.078,49.682,99.121,0,0,0,
,-0.542,-0.345,1.057,-90.394,-38.88,63.232,0,0,0,
,-0.554,-0.315,0.956,-136.963,18.676,0.061,0,0,0,
,-0.408,-0.002,1.25,-3.54,64.27,-32.593,0,0,0,
,-0.01,0.178,0.97,-17.151,76.965,-46.265,0,0,0,
,0.149,0.184,0.914,108.703,94.787,-17.151,0,0,0,
,-0.083,0.206,1.108,-73.975,22.399,-14.283,0,0,0,
,-0.144,0.071,0.847,40.832,25.024,-74.097,0,0,0,
,-0.13,0.004,0.906,84.35,39.55,-98.45,0,0,0,
,-0.09,0.181,0.978,98.51,30.578,-95.276,0,0,0,
,-0.055,0.373,1.315,237.548,9.765,-96.741,0,0,0,
,0.113,0.358,1.51,271.545,-81.604,-115.723,0,0,0,
,0.106,0.213,1.141,173.767,-142.884,-106.812,0,0,0,
,-0.069,-0.042,0.825,196.045,-55.42,-135.132,0,0,0,
,-0.078,0.005,0.868,239.074,37.78,-148.011,0,0,0,
,-0.05,0.164,1.046,338.745,106.628,-169.495,0,0,0,
,-0.007,0.068,1.226,385.07,123.413,-187.684,0,0,0,
,0.018,-0.031,1.23,297.119,110.778,-191.834,0,0,0,
,-0.007,-0.052,1.095,175.964,134.887,-197.937,0,0,0,
,0.328,0.289,1.025,-315.735,345.703,-181.824,0,0,0,
,0.672,0.608,1.201,-368.287,236.694,-173.89,0,0,0,
,0.976,0.361,1.107,-536.072,86.731,-234.925,0,0,0,
,1.151,0.357,0.956,-856.08,-285.767,-60.608,0,0,0,
,1.134,0.887,0.552,-668.824,-391.541,342.712,0,0,0,
,0.942,0.906,0.342,-289.002,-454.651,320.373,0,0,0,
,0.449,0.738,0.755,80.627,-444.642,501.892,0,0,0,
,0.09,0.377,0.748,308.471,-293.58,503.234,0,0,0,
,-0.094,0.126,0.797,166.442,-247.254,490.112,0,0,0,
,-0.316,0.086,0.783,-130.921,-212.403,495.3,0,0,0,
,-0.417,0.009,0.741,-300.904,-150.452,403.32,0,0,0,
,-0.45,-0.049,0.612,-186.585,-31.8,316.467,0,0,0,
,-0.405,-0.094,0.67,86.181,114.502,229.675,0,0,0,
,-0.317,-0.082,0.861,184.509,216.613,128.234,0,0,0,
,-0.032,0.156,1.078,-332.581,216.125,82.397,0,0,0,
,-0.056,0.275,0.994,-358.643,190.185,92.407,0,0,0,
,-0.079,0.252,0.801,-169.068,228.393,21.606,0,0,0,
,0.003,0.336,0.905,91.735,197.998,9.643,0,0,0,
,0.042,0.348,1.027,324.157,187.866,-13.611,0,0,0,
,-0.097,0.111,1.058,166.565,231.628,2.075,0,0,0,
,-0.103,0.091,0.926,-23.072,214.721,40.466,0,0,0,
,-0.052,0.209,0.831,27.282,227.783,35.278,0,0,0,
,-0.054,0.118,0.809,292.846,303.344,-18.677,0,0,0,
,0.122,-0.005,1.504,551.757,162.963,-143.433,0,0,0,
,0.364,0.168,1.458,522.949,-34.119,-89.905,0,0,0,
,-0.217,0.125,1.097,-329.041,-161.499,48.767,0,0,0,
,-0.006,0.399,0.955,-110.718,-90.332,14.587,0,0,0,
,0.006,0.153,0.834,313.598,-5.555,-101.624,0,0,0,
,-0.092,-0.096,0.977,240.539,10.437,-169.739,0,0,0,
,0.008,0.098,1.195,-289.185,-104.737,-135.254,0,0,0,
,0.018,0.433,1.119,-359.375,-221.802,-130.677,0,0,0,
,-0.153,0.286,0.76,-117.371,-222.352,-151.185,0,0,0,
,-0.195,-0.024,0.567,-2.747,-98.145,-201.6,0,0,0,
,-0.084,-0.059,0.806,-105.347,12.512,-229.92,0,0,0,
,0.003,0.283,1.194,-253.174,22.155,-195.435,0,0,0,
,-0.018,0.39,1.354,-198.487,-36.377,-177.857,0,0,0,
,-0.078,0.273,1.163,-93.689,-74.036,-144.898,0,0,0,
,-0.015,0.219,0.915,-48.951,-17.395,-172.73,0,0,0,
,0.027,0.167,0.885,14.587,75.317,-186.158,0,0,0,
,0.259,0.187,0.989,-16.541,124.145,-197.754,0,0,0,
,0.339,0.27,1.001,11.352,156.555,-178.101,0,0,0,
,0.478,0.363,1.037,-41.016,125.122,-176.88,0,0,0,
,0.627,0.541,0.941,-32.41,83.313,-149.17,0,0,0,
,0.664,0.437,0.776,130.676,81.237,-121.766,0,0,0,
,0.641,0.102,0.715,208.618,104.492,-103.943,0,0,0,
,0.713,0.138,0.762,-0.733,93.872,-33.448,0,0,0,
,0.555,0.402,0.853,25.94,70.495,0.793,0,0,0,
,0.437,0.247,0.933,-25.147,3.051,-7.203,0,0,0,
,0.517,0.446,0.916,-72.754,-56.153,55.481,0,0,0,
,0.406,0.358,0.815,18.493,-33.143,80.322,0,0,0,
,0.44,0.151,0.902,66.955,-24.659,116.821,0,0,0,
,0.298,0.187,0.944,-19.288,-17.151,151.245,0,0,0,
,0.2,0.362,1.106,-76.477,-29.48,151.489,0,0,0,
,0.355,0.42,1.09,-82.886,-66.529,136.963,0,0,0,
,0.305,0.388,0.988,-22.767,-83.313,209.533,0,0,0,
,-0.029,0.017,0.747,85.632,29.968,202.88,0,0,0,
,-0.217,-0.076,0.814,-2.259,153.869,200.744,0,0,0,
,-0.305,0.002,0.998,11.291,218.811,155.09,0,0,0,
,-0.209,0.131,1.161,-139.283,168.335,75.012,0,0,0,
,-0.413,0.215,1.161,-138.001,88.44,81.481,0,0,0,
,-0.706,-0.021,1.08,-109.009,9.887,24.292,0,0,0,
,-0.864,-0.165,1.097,-59.571,-11.231,-30.457,0,0,0,
,-0.702,-0.156,1.291,-39.795,-31.739,-111.573,0,0,0,
,-0.18,0.017,1.282,-150.818,-90.76,-187.806,0,0,0,
,-0.054,0.231,1.155,-102.845,-115.906,-107.483,0,0,0,
,-0.122,0.222,1.047,-93.873,-117.371,-129.395,0,0,0,
,-0.149,0.241,0.991,3.051,-97.718,-134.095,0,0,0,
,-0.155,0.008,0.84,-5.738,-74.524,-213.257,0,0,0,
,-0.068,0.031,0.766,-133.545,-40.528,-249.878,0,0,0,
,-0.057,0.1,0.872,-132.874,2.258,-279.48,0,0,0,
,-0.106,0.325,1.131,-93.201,24.963,-258.606,0,0,0,
,-0.038,0.386,1.237,-14.283,28.93,-271.851,0,0,0,
,0.037,0.252,1.181,48.339,26.489,-273.987,0,0,0,
,0.026,0.24,1.101,65.307,41.687,-234.498,0,0,0,
,0.024,0.218,0.947,81.604,91.552,-265.564,0,0,0,
,0.024,0.212,0.839,45.288,178.955,-289.551,0,0,0,
,-0.047,0.012,0.938,33.63,303.65,-346.68,0,0,0,
,0.285,0.219,1.184,-277.955,283.935,-335.755,0,0,0,
,0.618,0.532,1.55,-387.574,140.869,-240.54,0,0,0,
,0.91,0.676,1.097,-339.051,-31.128,-217.041,0,0,0,
,1.003,0.736,0.507,-320.679,-99.122,-164.551,0,0,0,
,1.185,0.644,0.584,-204.712,-181.702,-53.345,0,0,0,
,1.345,0.529,0.509,-157.715,-280.396,78.186,0,0,0,
,1.377,0.432,0.734,-194.886,-567.139,214.477,0,0,0,
,0.946,0.552,0.917,-238.892,-785.767,431.396,0,0,0,
,0.547,0.583,0.752,-331.665,-850.098,477.783,0,0,0,
,0.283,0.658,0.636,-327.576,-826.966,554.382,0,0,0,
,0.015,0.623,0.517,-189.27,-703.37,530.883,0,0,0,
,-0.221,0.454,0.533,121.521,-457.276,490.478,0,0,0,
,-0.374,0.271,0.744,271.606,-322.693,408.386,0,0,0,
,-0.487,0.043,0.822,182.556,-277.344,237.915,0,0,0,
,-0.568,-0.092,0.844,-19.104,-282.776,95.031,0,0,0,
,-0.599,-0.097,0.844,-216.736,-300.538,3.662,0,0,0,
,-0.563,-0.093,0.763,-338.135,-264.649,-111.023,0,0,0,
,-0.459,0,0.681,-312.134,-210.206,-131.714,0,0,0,
,-0.486,0.056,0.841,-122.742,-159.241,-177.43,0,0,0,
,-0.554,0.009,0.953,89.477,-49.988,-196.717,0,0,0,
,-0.569,-0.067,1.118,52.307,6.897,-233.582,0,0,0,
,-0.524,-0.01,1.125,-263.123,-6.714,-252.808,0,0,0,
,-0.46,0.196,0.979,-455.994,-32.044,-249.634,0,0,0,
,-0.411,0.352,0.862,-292.054,10.925,-219.605,0,0,0,
,-0.329,0.344,0.84,174.438,147.461,-181.885,0,0,0,
,-0.289,0.085,1.095,429.748,254.882,-180.787,0,0,0,
,-0.327,-0.025,1.008,307.373,348.266,-154.664,0,0,0,
,-0.194,-0.134,0.773,252.624,426.818,-181.58,0,0,0,
,-0.175,-0.305,1.129,304.809,484.13,-224.244,0,0,0,
,-0.006,0.614,2.757,-310.852,100.891,-77.82,0,0,0,
,-0.363,1.249,1.538,319.458,48.156,-174.256,0,0,0,
,-0.493,-0.64,0.851,454.467,87.646,-46.448,0,0,0,
,0.009,0.501,1.041,-254.761,-93.14,10.253,0,0,0,
,-0.167,0.614,0.868,373.596,25.085,-40.101,0,0,0,
,-0.08,0.037,0.784,649.414,93.811,12.512,0,0,0,
,-0.012,-0.048,1.205,556.091,125.122,22.399,0,0,0,
,-0.128,0.084,1.274,285.095,87.524,0.671,0,0,0,
,-0.206,-0.031,1.004,155.7,75.195,-35.706,0,0,0,
,-0.203,0.146,0.884,119.384,41.442,-67.383,0,0,0,
,-0.305,0.211,0.815,304.138,34.606,-140.442,0,0,0,
,-0.176,0.113,0.954,447.448,33.813,-169.739,0,0,0,
,-0.088,-0.042,1.081,338.134,39.306,-194.947,0,0,0,
,0.02,-0.23,0.592,-6.714,129.638,-262.207,0,0,0,
,0.242,-0.055,0.885,-317.261,164.917,-268.921,0,0,0,
,0.088,0.375,0.807,-452.82,232.849,-295.289,0,0,0,
,0.049,0.669,0.841,-183.96,266.784,-218.689,0,0,0,
,0.191,0.276,1.158,180.908,301.88,-206.482,0,0,0,
,0.135,0.076,0.99,-130.372,225.83,-219.3,0,0,0,
,-0.08,0.275,1.126,-174.256,220.764,-211.426,0,0,0,
,-0.21,0.071,1.224,-127.32,222.717,-222.229,0,0,0,
,-0.335,-0.196,1.084,-221.741,249.633,-246.582,0,0,0,
,-0.358,-0.528,0.921,-534.668,349.975,-346.314,0,0,0,
,-0.132,-0.336,0.689,-1114.319,366.088,-391.358,0,0,0,
,0.694,1.987,1.717,-1432.374,-244.751,254.882,0,0,0,
,0.696,1.48,0.899,-11.658,134.521,-416.81,0,0,0,
,0.701,0.492,0.868,-341.858,28.686,-250.245,0,0,0,
,1.154,1.124,0.906,-686.463,-341.309,316.345,0,0,0,
,1.045,1.192,0.773,-345.093,-470.276,318.176,0,0,0,
,0.518,0.867,0.792,97.168,-531.8,392.639,0,0,0,
,0.173,0.653,0.768,315.002,-437.073,471.008,0,0,0,
,0.071,0.483,0.639,141.113,-390.625,458.007,0,0,0,
,0.056,0.463,0.53,-38.331,-335.633,488.098,0,0,0,
,-0.005,0.373,0.628,102.478,-184.021,474.304,0,0,0,
,-0.08,0.151,0.614,195.312,-39.49,437.866,0,0,0,
,-0.194,0.17,0.6,-12.879,-25.757,486.084,0,0,0,
,-0.333,0.208,0.685,33.325,32.898,446.655,0,0,0,
,-0.381,0.16,0.774,142.028,147.216,342.529,0,0,0,
,-0.328,0.015,0.87,86.853,243.225,257.202,0,0,0,
,-0.309,-0.02,0.889,-137.024,254.394,250.976,0,0,0,
,-0.355,0.04,0.842,-291.382,260.192,236.938,0,0,0,
,-0.38,0.14,0.873,-245.728,302.917,197.631,0,0,0,
,-0.343,0.191,0.975,-174.805,315.002,140.869,0,0,0,
,-0.312,0.172,1.017,-149.414,283.386,89.66,0,0,0,
,-0.27,0.171,1.035,-119.996,230.468,54.626,0,0,0,
,-0.229,0.215,1.031,-54.2,208.679,41.137,0,0,0,
,-0.169,0.17,1.04,21.484,235.168,-8.851,0,0,0,
,-0.102,0.109,1.007,-38.269,237.793,-36.988,0,0,0,
,-0.087,0.185,0.936,-239.014,212.646,-56.153,0,0,0,
,-0.11,0.242,0.895,-203.248,207.336,-104.004,0,0,0,
,-0.184,0.188,0.836,-35.706,256.286,-148.56,0,0,0,
,-0.079,-0.024,1.322,86.853,195.861,-270.447,0,0,0,
,0.175,0.454,1.216,-183.899,-34.424,-27.1,0,0,0,
,-0.24,0.206,1.103,516.418,128.601,-405.579,0,0,0,
,-0.438,-0.145,1.053,174.194,105.163,-309.388,0,0,0,
,-0.219,0.338,1.152,-380.249,-14.344,-180.176,0,0,0,
,-0.202,0.627,1.255,-220.154,-94.971,-193.604,0,0,0,
,-0.301,0.458,1.116,91.552,-169.678,-229.31,0,0,0,
,-0.277,0.437,1.107,194.275,-232.789,-191.773,0,0,0,
,-0.195,0.26,1.05,408.325,-226.624,-232.972,0,0,0,
,-0.128,0.105,0.967,388.672,-177.552,-222.596,0,0,0,
,-0.097,0.078,0.92,297.363,-130.799,-251.893,0,0,0,
,-0.088,0.134,0.915,153.381,-88.257,-287.049,0,0,0,
,0.088,0.222,0.846,-66.285,-68.665,-343.506,0,0,0,
,0.229,0.475,0.675,-353.272,-27.649,-355.286,0,0,0,
,0.426,0.874,0.746,-347.535,17.639,-261.78,0,0,0,
,0.637,0.89,0.831,57.861,91.796,-285.096,0,0,0,
,0.835,0.582,0.91,154.724,116.699,-246.155,0,0,0,
,0.905,0.631,0.968,-94.239,59.631,-83.802,0,0,0,
,0.765,0.812,0.81,-140.809,2.136,28.869,0,0,0,
,0.498,0.729,0.663,88.684,1.098,88.684,0,0,0,
,0.445,0.627,0.61,175.903,2.807,140.686,0,0,0,
,0.44,0.54,0.649,138.549,30.761,191.894,0,0,0,
,0.377,0.307,0.865,144.287,52.673,174.743,0,0,0,
,0.303,0.369,0.997,-186.402,17.211,245.178,0,0,0,
,0.116,0.538,0.784,-286.683,40.405,254.211,0,0,0,
,-0.174,0.127,0.54,-19.288,197.937,163.208,0,0,0,
,-0.321,-0.369,0.615,-0.916,367.614,45.593,0,0,0,
,-0.374,-0.225,1.11,-433.289,375.427,52.978,0,0,0,
,-0.425,0.445,1.679,-463.99,299.865,110.046,0,0,0,
,-0.593,0.693,1.877,114.563,160.827,66.833,0,0,0,
,-0.889,-0.07,1.419,411.621,79.101,81.726,0,0,0,
,-0.874,-0.453,1.125,209.045,4.516,43.945,0,0,0,
,-0.69,-0.219,1.129,21.728,-11.17,2.197,0,0,0,
,-0.364,-0.006,1.058,-138.184,-6.165,-58.045,0,0,0,
,-0.109,0.388,1.082,-163.88,-27.405,-1.099,0,0,0,
,-0.059,0.405,1.007,101.379,4.882,-34.18,0,0,0,
,-0.171,0.202,0.951,134.765,-3.54,-85.389,0,0,0,
,-0.183,0.27,0.959,75.866,-22.95,-93.934,0,0,0,
,-0.153,0.384,1.062,152.16,-57.923,-129.456,0,0,0,
,-0.181,0.402,1.177,303.222,-101.441,-150.269,0,0,0,
,-0.123,0.305,0.962,234.375,-124.512,-227.906,0,0,0,
,-0.118,0.232,0.839,160.4,-82.886,-272.889,0,0,0,
,0.013,0.159,0.732,130.005,7.812,-325.196,0,0,0,
,0.069,0.147,0.811,131.347,111.145,-351.807,0,0,0,
,0.175,0.213,0.907,28.076,160.034,-355.469,0,0,0,
,0.304,0.408,1.085,29.48,142.944,-310.73,0,0,0,
,0.455,0.433,0.949,-30.945,103.088,-313.599,0,0,0,
,0.563,0.61,0.844,-158.081,94.421,-210.572,0,0,0,
,0.733,0.889,0.809,-99.427,100.341,-51.88,0,0,0,
,0.816,0.707,0.757,299.865,140.075,-78.003,0,0,0,
,0.802,0.384,0.566,341.735,149.963,-19.959,0,0,0,
,0.607,0.174,0.607,218.017,108.398,10.07,0,0,0,
,0.444,0.085,0.652,-48.157,73.12,11.413,0,0,0,
,0.436,0.512,0.858,-312.073,21.85,187.683,0,0,0,
,0.457,0.768,1.051,-175.232,-38.941,169.128,0,0,0,
,0.388,0.654,1.062,56.152,-101.624,248.047,0,0,0,
,0.284,0.096,0.765,214.538,-97.779,169.433,0,0,0,
,-0.075,-0.088,0.822,-14.466,-47.12,234.253,0,0,0,
,-0.235,0.194,0.83,-267.395,21.484,236.816,0,0,0,
,-0.143,0.292,0.983,-188.294,84.411,125.061,0,0,0,
,-0.014,0.109,1.083,-171.998,106.994,89.843,0,0,0,
,-0.108,-0.03,1.008,-419.861,101.257,85.876,0,0,0,
,-0.36,0.021,0.979,-427.002,141.784,122.192,0,0,0,
,-0.454,0.102,0.948,-372.437,166.565,76.965,0,0,0,
,-0.578,0.36,0.947,-86.06,189.819,107.788,0,0,0,
,-0.699,0.188,1.583,329.528,179.138,-18.616,0,0,0,
,-0.581,-0.071,1.789,232.299,-33.631,-110.535,0,0,0,
,-0.287,-0.003,1.244,-296.998,-225.037,-144.654,0,0,0,
,-0.236,0.24,0.882,-455.384,-238.892,-96.436,0,0,0,
,-0.196,0.554,0.844,-169.495,-162.415,-63.233,0,0,0,
,-0.179,0.446,0.928,339.721,-86.548,-131.958,0,0,0,
,-0.245,0.031,1.057,493.53,-56.885,-194.092,0,0,0,
,-0.129,0.121,1.288,181.945,-131.226,-175.354,0,0,0,
,-0.102,0.262,1.004,-44.922,-192.078,-234.436,0,0,0,
,-0.288,0.176,0.844,57.678,-141.114,-250.672,0,0,0,
,-0.216,0.176,0.832,-13.672,-66.285,-308.045,0,0,0,
,-0.071,0.296,0.846,-59.327,-8.362,-337.403,0,0,0,
,0.057,0.297,0.838,27.282,60.73,-381.348,0,0,0,
,0.241,0.296,1.019,37.719,80.078,-422.669,0,0,0,
,0.506,0.543,1.29,-47.12,8.483,-330.689,0,0,0,
,0.747,0.694,1.217,38.086,-48.218,-262.024,0,0,0,
,0.893,0.664,0.739,16.784,-73.487,-181.092,0,0,0,
,0.845,0.623,0.635,172.241,-17.945,-71.351,0,0,0,
,0.839,0.213,0.06,356.384,170.471,-125.367,0,0,0,
,0.775,-0.001,0.529,204.589,167.968,-7.813,0,0,0,
,0.567,0.375,1.013,-167.542,82.336,231.14,0,0,0,
,0.433,0.619,1.002,-251.099,18.493,162.902,0,0,0,
,0.431,0.311,0.839,-157.654,-46.021,41.87,0,0,0,
,0.455,0.665,1.008,-375.489,-112.183,286.255,0,0,0,
,0.435,0.839,1.11,-80.384,-156.8,275.451,0,0,0,
,0.364,0.488,0.727,217.163,-146.485,271.484,0,0,0,
,0.059,0.207,0.721,218.261,-70.496,275.634,0,0,0,
,-0.078,-0.032,0.602,-67.139,25.512,157.898,0,0,0,
,-0.043,-0.06,0.604,-279.847,183.105,95.275,0,0,0,
,-0.033,0.025,0.876,-486.084,234.008,54.931,0,0,0,
,-0.03,0.375,0.982,-469.91,291.32,97.595,0,0,0,
,-0.321,0.748,1.287,-358.887,227.295,138.244,0,0,0,
,-0.896,0.53,1.454,391.357,179.809,98.266,0,0,0,
,-1.141,-0.365,1.651,697.998,42.48,-67.566,0,0,0,
,-0.895,-0.514,1.355,49.865,-117.249,-125.184,0,0,0,
,-0.746,-0.209,1.036,-411.56,-174.317,-91.919,0,0,0,
,-0.498,0.079,1.113,-386.17,-169.617,-125.855,0,0,0,
,-0.163,0.381,0.873,-316.04,-144.41,-142.09,0,0,0,
,-0.191,0.468,0.874,149.17,-65.308,-49.927,0,0,0,
,-0.279,0.089,1.122,563.842,-11.658,-175.843,0,0,0,
,-0.215,-0.145,1.248,222.351,-28.565,-191.224,0,0,0,
,-0.041,0.119,1.091,-305.848,-72.876,-170.594,0,0,0,
,-0.011,0.543,0.979,-253.479,-100.831,-125.123,0,0,0,
,-0.131,0.663,1.008,166.809,-87.464,-159.302,0,0,0,
,-0.168,0.473,0.853,419.189,-66.895,-183.167,0,0,0,
,-0.152,0.154,0.9,502.99,-43.335,-258.667,0,0,0,
,-0.093,-0.073,0.931,307.129,-12.391,-308.35,0,0,0,
,0.108,0.126,0.834,-67.933,10.498,-314.637,0,0,0,
,0.136,0.321,0.89,3.906,95.398,-299.5,0,0,0,
,0.24,0.267,0.819,66.955,192.26,-371.155,0,0,0,
,0.464,0.464,0.986,-8.851,216.186,-276.917,0,0,0,
,0.672,0.752,1.196,36.254,161.132,-207.825,0,0,0,
,0.906,0.708,1.007,166.442,93.566,-119.935,0,0,0,
,0.871,0.504,0.635,204.528,102.05,-40.284,0,0,0,
,0.759,0.067,0.302,66.345,161.193,-126.526,0,0,0,
,0.694,0.382,0.718,-76.111,120.117,245.239,0,0,0,
,0.609,0.628,0.756,-111.39,36.804,195.129,0,0,0,
,0.453,0.626,0.979,116.821,-54.2,254.699,0,0,0,
,0.387,0.564,1.045,131.591,-162.537,289.611,0,0,0,
,0.317,0.568,0.932,63.72,-254.029,377.624,0,0,0,
,0.251,0.408,0.627,88.684,-240.662,368.774,0,0,0,
,0.141,0.162,0.467,133.422,-182.984,310.363,0,0,0,
,-0.09,0.202,0.723,97.473,-154.358,333.313,0,0,0,
,-0.189,0.39,1.074,1.831,-167.176,329.345,0,0,0,
,-0.239,0.42,1.301,72.815,-187.928,265.197,0,0,0,
,-0.233,0.203,1.094,-18.25,-229.004,187.011,0,0,0,
,-0.205,0.041,0.879,-164.917,-232.666,140.564,0,0,0,
,-0.22,0.02,0.76,-229.065,-185.73,103.881,0,0,0,
,-0.334,0.119,0.862,-324.585,-149.903,72.265,0,0,0,
,-0.424,0.23,0.978,-297.364,-126.526,36.743,0,0,0,
,-0.422,0.239,1.091,-135.437,-113.892,60.058,0,0,0,
,-0.33,0.105,1.133,-2.442,-127.869,16.906,0,0,0,
,-0.362,-0.162,1.062,148.132,-151.795,-28.565,0,0,0,
,-0.595,-0.366,1.05,111.145,-179.017,-136.17,0,0,0,
,-0.659,-0.503,1.072,48.889,-118.47,-168.396,0,0,0,
,-0.441,-0.591,1.189,125.122,-45.166,-174.927,0,0,0,
,-0.421,-0.555,1.252,-217.469,-44.007,-325.074,0,0,0,
,-0.426,-0.233,1.261,-476.014,-46.814,-330.689,0,0,0,
,-0.289,0.244,1.095,-289.063,-49.195,-238.343,0,0,0,
,-0.404,0.119,1.107,284.546,19.592,-240.845,0,0,0,
,-0.273,0.036,1.458,380.859,3.173,-158.814,0,0,0,
,-0.187,0.171,1.515,182.617,-92.408,-183.167,0,0,0,
,-0.214,0.114,1.098,143.859,-107.056,-208.497,0,0,0,
,-0.156,0.01,0.757,189.575,-27.405,-190.003,0,0,0,
,-0.067,0.194,0.644,186.096,52.856,-177.308,0,0,0,
,0.008,0.454,0.778,373.718,155.517,-126.526,0,0,0,
,0.053,0.291,1.092,619.445,195.129,-140.32,0,0,0,
,0.04,-0.033,1.136,369.323,163.086,-182.74,0,0,0,
,-0.012,0.093,0.969,-44.068,103.027,-241.822,0,0,0,
,0.067,0.038,0.584,-186.158,183.044,-322.449,0,0,0,
,0.323,0.093,0.823,-545.838,168.151,-349.61,0,0,0,
,0.372,0.623,0.931,-890.259,109.924,-305.176,0,0,0,
,0.332,0.872,0.815,-904.969,84.35,-236.634,0,0,0,
,0.376,1.066,0.687,-589.966,88.44,-63.599,0,0,0,
,0.362,1.033,0.524,-4.029,125.488,-18.25,0,0,0,
,0.271,0.64,0.832,377.746,107.727,-22.767,0,0,0,
,0.347,0.505,1.018,153.869,-2.198,90.21,0,0,0,
,0.363,0.729,1.105,-238.16,-147.889,179.199,0,0,0,
,0.248,0.951,1.02,-180.603,-212.22,281.25,0,0,0,
,0.1,0.85,0.645,81.42,-187.195,329.834,0,0,0,
,0.044,0.473,0.579,315.063,-129.456,338.073,0,0,0,
,0.085,0.314,0.755,283.386,-90.882,352.844,0,0,0,
,-0.061,0.142,0.817,128.418,-82.947,250.671,0,0,0,
,-0.273,-0.192,0.728,112.426,31.311,174.743,0,0,0,
,-0.332,-0.707,0.66,37.231,204.406,25.39,0,0,0,
,-0.399,-0.453,0.934,-568.116,267.944,-3.296,0,0,0,
,-0.493,0.305,1.471,-800.415,164.55,-48.645,0,0,0,
,-0.601,0.457,1.783,-12.696,43.579,-18.677,0,0,0,
,-0.729,-0.125,1.566,613.22,-63.782,-1.465,0,0,0,
,-0.448,-0.811,1.211,5.615,-123.047,-109.559,0,0,0,
,-0.165,0.089,0.888,-491.028,-175.843,-151.123,0,0,0,
,-0.227,0.3,0.985,125.671,-35.34,-156.8,0,0,0,
,-0.045,0.159,1.127,329.956,7.995,-93.995,0,0,0,
,-0.106,0.243,1.232,96.008,-25.147,-136.292,0,0,0,
,-0.15,0.234,1.037,143.066,-35.218,-116.272,0,0,0,
,-0.237,-0.005,0.87,289.245,-13.672,-144.288,0,0,0,
,-0.242,-0.081,0.981,244.262,1.098,-163.941,0,0,0,
,-0.217,0.171,1.077,161.438,-13.794,-193.909,0,0,0,
,-0.185,0.199,1.157,316.589,-21.485,-180.42,0,0,0,
,-0.168,0.037,1.104,277.71,-30.274,-183.594,0,0,0,
,-0.143,0,0.978,141.357,-11.536,-202.393,0,0,0,
,-0.15,-0.153,1.005,94.36,74.523,-219.422,0,0,0,
,-0.053,-0.54,0.779,-83.863,229.004,-281.128,0,0,0,
,0.047,-0.606,0.928,-681.275,278.93,-343.14,0,0,0,
,-0.096,0.034,1.23,-965.943,306.091,-330.628,0,0,0,
,-0.244,0.211,1.398,-979.493,344.299,-302.185,0,0,0,
,-0.105,0.29,1.129,-1201.539,271.545,-285.645,0,0,0,
,0.094,0.507,0.482,-1347.413,213.928,-270.691,0,0,0,
,0.291,0.899,0.377,-1053.345,177.795,-140.748,0,0,0,
,0.453,1.055,0.837,-170.044,151.001,-143.494,0,0,0,
,0.289,0.753,1.157,408.752,112.487,-229.065,0,0,0,
,0.124,0.727,0.957,224.975,-74.83,-18.982,0,0,0,
,-0.266,0.725,0.914,-140.625,-236.634,30.456,0,0,0,
,-0.548,0.815,0.698,-127.991,-239.38,123.84,0,0,0,
,-0.649,0.845,0.708,206.848,-104.371,226.867,0,0,0,
,-0.518,0.567,0.764,714.66,100.952,221.069,0,0,0,
,-0.34,0.487,0.84,647.583,173.767,227.111,0,0,0,
,-0.26,0.428,0.78,294.555,181.823,253.357,0,0,0,
,-0.248,0.535,0.785,121.582,234.436,304.321,0,0,0,
,-0.182,0.584,0.782,241.394,318.786,286.865,0,0,0,
,-0.067,0.418,0.817,541.259,406.005,211.12,0,0,0,
,0.123,0.185,0.819,597.046,434.509,215.942,0,0,0,
,0.289,0.168,0.899,281.921,385.986,205.017,0,0,0,
,0.386,0.282,0.943,77.636,321.96,172.851,0,0,0,
,0.371,0.296,0.981,150.695,288.269,165.283,0,0,0,
,0.353,0.299,0.967,253.296,292.663,204.345,0,0,0,
,0.362,0.146,0.877,364.318,277.526,192.382,0,0,0,
,0.333,0.022,0.747,350.219,259.521,166.015,0,0,0,
,0.286,0.116,0.714,221.862,260.254,133.361,0,0,0,
,0.286,0.274,0.638,319.03,333.191,103.576,0,0,0,
,0.379,0.223,0.519,666.015,400.879,48.889,0,0,0,
,0.459,-0.073,0.286,784.973,550.842,-12.024,0,0,0,
,0.388,-0.313,0.134,716.735,786.01,-2.564,0,0,0,
,1.108,-0.179,3.767,-263.916,74.523,-268.677,0,0,0,
,1.166,1.758,1.448,-431.58,396.667,403.747,0,0,0,
,0.195,0.288,1.373,821.106,-240.052,190.673,0,0,0,
,0.2,-0.599,0.951,463.928,76.904,133.361,0,0,0,
,0.379,0.205,0.954,-91.858,142.578,294.433,0,0,0,
,0.218,0.586,0.953,214.782,128.112,177.734,0,0,0,
,0.358,0.012,1.149,350.952,76.477,87.036,0,0,0,
,0.406,-0.089,0.943,231.811,96.008,132.812,0,0,0,
,0.165,-0.229,0.654,153.808,135.803,167.358,0,0,0,
,0.245,0.157,0.854,-71.9,275.329,145.141,0,0,0,
,0.315,0.382,1.141,122.863,236.023,102.844,0,0,0,
,0.358,0.169,1.254,204.223,164.55,72.387,0,0,0,
,0.273,0.049,1.119,181.335,102.661,98.571,0,0,0,
,0.038,-0.155,0.855,165.161,117.248,118.591,0,0,0,
,-0.05,-0.08,0.869,46.691,208.313,98.51,0,0,0,
,-0.134,0.276,0.975,117.126,285.339,93.994,0,0,0,
,-0.193,0.202,1.11,155.883,236.206,21.545,0,0,0,
,-0.29,0.036,1.101,98.144,180.297,10.864,0,0,0,
,-0.346,-0.134,1.074,51.513,147.766,7.385,0,0,0,
,-0.373,-0.151,1.091,-13.245,145.385,-5.127,0,0,0,
,-0.055,0.076,1.04,-41.382,135.742,-57.557,0,0,0,
,-0.099,0.094,1.073,59.265,67.81,-34.974,0,0,0,
,0.045,0.048,1.167,19.348,-2.198,-69.031,0,0,0,
,-0.072,0.171,1.111,18.249,-70.252,-3.296,0,0,0,
,-0.05,0.043,0.829,35.156,-115.967,-58.228,0,0,0,
,-0.098,-0.109,0.651,-35.218,-88.318,-77.942,0,0,0,
,0.033,-0.048,0.634,-173.706,-8.851,-126.221,0,0,0,
,0.153,0.02,0.736,-229.737,43.945,-152.039,0,0,0,
,0.3,0.051,0.891,-349.244,71.716,-181.885,0,0,0,
,0.595,0.145,1.183,-388.001,35.644,-222.229,0,0,0,
,0.721,0.238,1.187,-151.734,-71.534,-190.308,0,0,0,
,0.851,0.083,1.032,25.634,-81.238,-223.999,0,0,0,
,0.831,0.016,0.823,49.499,-68.055,-104.493,0,0,0,
,0.878,-0.049,0.794,-50.232,22.033,-112.061,0,0,0,
,1.08,0.085,0.809,-124.146,27.71,-55.726,0,0,0,
,1.054,0.056,0.621,-16.541,28.442,-16.846,0,0,0,
,0.671,-0.115,0.649,23.071,15.991,82.763,0,0,0,
,0.62,-0.114,0.788,-124.451,51.33,20.446,0,0,0,
,0.651,0.217,1.023,-198.731,28.503,48.584,0,0,0,
,0.6,0.211,1.128,-90.455,-55.176,21.362,0,0,0,
,0.527,0.218,1.011,12.207,-80.323,56.152,0,0,0,
,0.451,0.186,0.932,132.202,-108.887,66.833,0,0,0,
,0.218,-0.141,0.691,108.032,-60.242,29.907,0,0,0,
,0.236,0.227,1.212,157.531,-50.721,-21.119,0,0,0,
,0.291,0.082,1.031,246.948,-52.613,-25.879,0,0,0,
,0.199,-0.189,0.79,214.721,-1.587,-25.208,0,0,0,
,0.232,0.019,0.709,33.081,94.177,24.658,0,0,0,
,0.291,0.126,0.829,25.39,157.104,-26.612,0,0,0,
,0.357,0.038,0.983,0,188.171,-55.054,0,0,0,
,0.223,0.137,0.961,40.344,250,8.667,0,0,0,
,-0.095,-0.361,0.827,-0.245,316.894,-93.14,0,0,0,
,0.113,-0.184,0.349,-252.259,547.607,-59.327,0,0,0,
,0.643,1.604,3.653,-541.81,216.674,-92.53,0,0,0,
,0.097,0.109,0.778,85.022,-362.427,-298.523,0,0,0,
,-0.204,-0.081,1.263,-299.805,-377.869,2.441,0,0,0,
,0.223,0.4,1.272,-355.225,-537.415,-113.77,0,0,0,
,-0.059,0.177,1.359,-178.345,-699.891,0.488,0,0,0,
,-0.189,0.222,1.084,-201.294,-625.733,133.911,0,0,0,
,-0.295,0.093,1.055,-136.231,-597.901,96.801,0,0,0,
,-0.291,0.045,0.925,-91.187,-480.164,141.418,0,0,0,
,-0.303,0.08,0.978,-26.856,-344.178,173.95,0,0,0,
,-0.289,0.177,0.868,76.232,-197.083,169.616,0,0,0,
,-0.231,0.133,0.783,177.612,-81.849,154.724,0,0,0,
,-0.223,0.003,0.636,308.654,71.289,168.213,0,0,0,
,-0.129,-0.049,0.628,379.15,215.698,129.943,0,0,0,
,0.038,0.001,0.693,418.09,346.313,103.088,0,0,0,
,0.205,0.059,0.782,294.25,404.785,58.166,0,0,0,
,0.271,0.19,0.824,161.01,416.259,97.9,0,0,0,
,0.246,0.255,0.83,263.183,400.085,122.924,0,0,0,
,0.258,0.089,0.778,339.66,386.23,100.708,0,0,0,
,0.307,-0.024,0.739,264.221,391.54,106.323,0,0,0,
,0.393,0.004,0.722,123.962,382.08,126.403,0,0,0,
,0.303,-0.038,0.697,67.443,346.984,152.465,0,0,0,
,0.137,-0.022,0.724,16.174,388.305,155.212,0,0,0,
,1.237,-0.361,3.431,-582.398,-69.458,-395.081,0,0,0,
,0.283,0.756,0.709,397.705,-117.615,572.448,0,0,0,
,-0.624,-0.267,0.824,663.025,-106.08,23.559,0,0,0,
,0.276,-0.713,0.798,-22.461,190.918,-94.056,0,0,0,
,0.174,0.389,1.114,-138.062,185.547,356.689,0,0,0,
,-0.066,0.181,1.053,124.572,139.343,97.717,0,0,0,
,0.177,-0.166,0.966,-14.893,110.778,138.244,0,0,0,
,0.056,0.217,0.827,-162.171,105.529,185.18,0,0,0,
,0.136,0.073,0.898,-126.465,86.425,56.091,0,0,0,
,0.311,0.095,0.946,-138.062,74.096,75.744,0,0,0,
,0.376,0.194,1.072,-18.067,27.465,75.439,0,0,0,
,0.518,0.137,1.208,6.347,-53.528,44.738,0,0,0,
,0.524,0.105,1.086,-12.146,-110.169,77.331,0,0,0,
,0.354,0.073,0.765,-10.437,-91.98,77.209,0,0,0,
,0.248,0.195,0.76,-19.593,-28.504,75.988,0,0,0,
,0.411,0.19,1.027,29.541,-6.836,-40.833,0,0,0,
,0.437,0.069,1.082,93.933,-39.124,-36.927,0,0,0,
,0.382,0.037,1.108,38.147,-27.222,-78.858,0,0,0,
,0.442,0.184,1.003,51.94,10.131,-97.84,0,0,0,
,0.394,0.081,1.125,156.25,100.525,-183.167,0,0,0,
,0.903,0.074,0.948,103.576,124.145,-242.066,0,0,0,
,1.047,-0.777,1.161,-252.198,-81.238,-321.961,0,0,0,
,1.26,0.035,0.477,-603.089,54.565,-107.3,0,0,0,
,0.971,0.194,0.749,-391.541,-107.361,-140.442,0,0,0,
,1.172,0.031,0.507,-560.547,-139.1,-96.436,0,0,0,
,1.36,0.075,0.628,-799.622,-309.693,48.95,0,0,0,
,1.237,0.536,1.051,-767.456,-457.093,417.48,0,0,0,
,1.169,0.881,1.071,-460.572,-637.818,489.807,0,0,0,
,1.029,0.759,1.051,-141.724,-799.805,446.472,0,0,0,
,0.835,0.758,0.985,-95.154,-932.068,493.896,0,0,0,
,0.624,0.736,0.841,-115.967,-992.31,471.801,0,0,0,
,0.425,0.632,0.641,-187.806,-947.449,426.147,0,0,0,
,0.153,0.506,0.492,-396.424,-858.155,424.865,0,0,0,
,-0.047,0.448,0.512,-503.418,-795.044,525.512,0,0,0,
,-0.166,0.356,0.426,-515.442,-666.626,313.781,0,0,0,
,-0.272,0.177,0.329,-272.095,-538.514,106.994,0,0,0,
,-0.519,0.196,0.471,-450.745,-524.903,92.102,0,0,0,
,-0.826,0.201,0.609,-302.674,-421.57,-109.131,0,0,0,
,-0.823,0.015,0.71,-75.989,-322.632,-292.603,0,0,0,
,-0.532,-0.339,0.693,-257.691,-185.242,-431.336,0,0,0,
,-0.384,-0.325,0.577,-775.94,-288.147,-553.284,0,0,0,
,-0.492,0.221,0.779,-1127.137,-570.496,-703.125,0,0,0,
,-0.858,0.614,0.992,-703.492,-571.167,-863.343,0,0,0,
,-0.52,-0.191,1.187,-46.021,-378.296,-710.694,0,0,0,
,-0.482,0.13,1.012,-462.159,-553.528,-659.852,0,0,0,
,-0.552,0.476,0.953,-179.2,-493.103,-581.788,0,0,0,
,-0.589,0.425,1.015,558.349,-320.862,-467.957,0,0,0,
,-0.625,0.074,1.203,791.504,-179.932,-421.998,0,0,0,
,-0.48,-0.155,1.338,423.889,-150.818,-430.664,0,0,0,
,-0.234,0.001,1.181,-152.344,-275.513,-384.827,0,0,0,
,-0.292,0.335,0.934,-275.818,-341.614,-383.484,0,0,0,
,-0.379,0.491,0.874,304.26,-110.657,-254.456,0,0,0,
,-0.276,0.191,0.897,910.827,131.897,-148.987,0,0,0,
,-0.258,-0.148,0.966,982.849,264.709,-158.631,0,0,0,
,-0.293,-0.476,0.253,466.491,420.959,-251.893,0,0,0,
,-0.541,1.098,0.066,-624.756,-75.135,291.442,0,0,0,
,-0.837,0.102,1.018,1247.07,488.891,-317.688,0,0,0,
,0.042,-0.666,0.905,844.177,429.748,-26.734,0,0,0,
,0.203,-0.512,0.977,-118.47,224.609,-383.179,0,0,0,
,-0.134,0.21,1.335,-433.655,159.301,-363.892,0,0,0,
,-0.219,0.643,1.155,-309.998,113.403,-243.958,0,0,0,
,-0.193,0.566,1.019,-27.283,96.008,-118.226,0,0,0,
,-0.144,0.45,1.116,177.551,68.725,-76.355,0,0,0,
,-0.107,0.278,1.162,350.402,26.306,-91.004,0,0,0,
,-0.134,0.084,1.224,341.43,-32.837,-112.061,0,0,0,
,-0.125,-0.053,1,186.767,-29.602,-102.112,0,0,0,
,-0.105,0.256,0.739,147.766,72.876,-133.179,0,0,0,
,-0.123,0.178,0.943,359.558,90.148,-127.076,0,0,0,
,-0.121,0.047,1.195,419.311,73.303,-127.564,0,0,0,
,-0.193,-0.118,1.166,280.822,22.094,-132.813,0,0,0,
,-0.249,0.061,1.075,136.718,-10.437,-127.076,0,0,0,
,0.044,0.142,0.827,-39.429,120.117,-251.954,0,0,0,
,0.185,0.05,0.998,-321.473,140.686,-265.015,0,0,0,
,0.134,0.441,1.182,-584.29,124.511,-228.943,0,0,0,
,0.205,0.539,1.035,-675.11,117.736,-168.03,0,0,0,
,0.214,0.772,0.649,-707.093,128.845,-72.998,0,0,0,
,0.006,0.238,1.147,421.203,141.662,69.152,0,0,0,
,-0.024,0.298,1.09,-133.118,-51.514,73.303,0,0,0,
,0.093,0.643,0.885,-293.152,-119.507,166.32,0,0,0,
,0.161,0.684,0.779,41.381,-91.126,202.575,0,0,0,
,0.109,0.566,0.821,224.792,-62.806,246.521,0,0,0,
,0.077,0.527,0.76,202.514,-16.907,307.922,0,0,0,
,0,0.266,0.73,272.094,63.781,291.015,0,0,0,
,-0.116,-0.069,0.798,255.127,144.043,219.665,0,0,0,
,-0.15,-0.241,0.759,-84.839,185.547,148.376,0,0,0,
,-0.199,-0.213,0.949,-215.577,189.331,78.674,0,0,0,
,-0.314,-0.13,1.103,-146.607,169.494,31.189,0,0,0,
,-0.445,-0.156,1.455,49.682,122.253,27.099,0,0,0,
,-0.407,-0.408,1.482,113.342,48.095,16.357,0,0,0,
,-0.269,-0.532,1.203,18.92,-6.47,-47.547,0,0,0,
,-0.225,-0.4,1.058,-264.466,1.464,-110.535,0,0,0,
,-0.181,0.176,0.973,-218.567,-42.481,-85.022,0,0,0,
,-0.281,0.233,1.144,337.219,24.902,-51.27,0,0,0,
,-0.238,-0.137,1.243,508.606,11.474,-59.205,0,0,0,
,-0.118,-0.13,0.949,133.178,-18.006,-165.039,0,0,0,
,-0.079,-0.01,0.887,78.735,2.99,-201.111,0,0,0,
,-0.075,0.142,0.89,158.874,19.592,-192.444,0,0,0,
,-0.15,0.132,1.042,384.399,54.565,-183.838,0,0,0,
,-0.131,0.042,1.15,389.343,94.665,-171.387,0,0,0,
,-0.142,-0.218,1.067,284.912,144.592,-261.17,0,0,0,
,0.17,-0.081,1.344,-514.649,299.133,-277.1,0,0,0,
,0.008,0.175,1.104,-838.685,151.916,-362.122,0,0,0,
,0.027,0.231,0.866,-867.127,182.19,-368.103,0,0,0,
,0.413,0.605,0.746,-1253.357,41.076,-259.888,0,0,0,
,0.756,1.113,0.851,-1143.86,-190.613,-178.711,0,0,0,
,0.765,1.242,0.845,-743.653,-264.405,-68.299,0,0,0,
,0.464,1.232,0.675,-244.446,-384.095,148.742,0,0,0,
,-0.03,0.771,0.774,356.262,-204.834,136.535,0,0,0,
,-0.296,0.432,0.823,341.43,-189.454,144.775,0,0,0,
,-0.504,0.244,0.828,120.361,-179.2,141.174,0,0,0,
,-0.564,0.174,0.887,-53.284,-115.418,164.367,0,0,0,
,-0.462,0.157,0.824,-187.317,-54.871,207.641,0,0,0,
,-0.33,0.239,0.735,7.934,29.968,218.994,0,0,0,
,-0.295,0.165,0.758,289.123,147.766,173.767,0,0,0,
,-0.279,0.158,0.838,274.475,270.385,161.255,0,0,0,
,-0.206,0.207,0.951,-118.226,221.801,189.087,0,0,0,
,-0.098,0.32,0.959,-191.834,255.493,224.487,0,0,0,
,0.041,0.316,0.862,-49.012,299.804,162.17,0,0,0,
,0.074,0.259,0.815,105.529,302.185,124.817,0,0,0,
,0.085,0.221,0.866,202.209,323.12,86.975,0,0,0,
,0.2,0.321,0.946,77.087,317.443,69.763,0,0,0,
,0.34,0.481,0.922,-221.924,268.432,98.388,0,0,0,
,0.38,0.584,0.708,-236.939,262.573,150.085,0,0,0,
,0.311,0.53,0.559,126.587,371.399,153.015,0,0,0,
,0.181,0.079,0.494,547.18,492.492,-19.959,0,0,0,
,0.781,0.258,2.027,1432.739,127.197,-178.223,0,0,0,
,0.574,0.078,1.239,189.087,-21.79,66.65,0,0,0,
,0.039,0.192,0.568,-710.572,-73.792,-19.471,0,0,0,
,0.161,0.898,0.707,-303.223,91.247,521.728,0,0,0,
,0.316,0.311,0.749,376.587,268.432,-134.4,0,0,0,
,0.281,0.216,1.064,153.686,187.5,255.737,0,0,0,
,0.049,0.443,1.127,-50.538,146.911,276.672,0,0,0,
,-0.054,0.194,0.998,-9.217,153.076,232.666,0,0,0,
,-0.057,-0.066,0.807,-182.251,134.582,155.761,0,0,0,
,-0.026,-0.005,0.744,-282.471,169.006,165.039,0,0,0,
,-0.01,0.14,0.734,-306.519,225.647,126.403,0,0,0,
,-0.106,0.308,1.113,-134.583,230.102,170.349,0,0,0,
,-0.156,0.134,1.537,23.925,175.415,111.023,0,0,0,
,-0.158,-0.063,1.371,-67.261,55.236,101.928,0,0,0,
,-0.274,-0.214,0.941,-157.044,36.743,15.991,0,0,0,
,-0.327,-0.132,0.934,-202.027,40.71,-21.912,0,0,0,
,-0.212,0.097,1.058,-40.223,48.523,-22.156,0,0,0,
,-0.128,0.1,1.119,22.583,67.871,-17.456,0,0,0,
,-0.11,0.08,1.311,104.248,15.502,-17.518,0,0,0,
,-0.152,-0.172,1.223,48.4,-32.593,-106.202,0,0,0,
,-0.197,-0.076,1.064,-159.607,-90.088,-134.278,0,0,0,
,-0.297,0.127,1.07,-26.673,-118.103,-190.918,0,0,0,
,-0.171,0.214,1.053,162.78,-142.518,-199.707,0,0,0,
,-0.033,0.291,1.154,371.582,-150.452,-179.261,0,0,0,
,0.037,0.174,1.048,338.562,-150.025,-218.018,0,0,0,
,0.159,0.186,0.909,173.278,-105.896,-245.972,0,0,0,
,0.397,0.326,0.744,-32.471,-67.872,-276.49,0,0,0,
,0.549,0.553,0.639,-81.788,1.648,-187.012,0,0,0,
,0.583,0.699,0.773,52.49,85.937,-103.15,0,0,0,
,0.603,0.599,0.902,148.803,119.873,-80.323,0,0,0,
,0.618,0.664,0.773,-24.964,87.951,15.686,0,0,0,
,0.374,0.651,0.853,79.162,28.442,24.108,0,0,0,
,0.398,0.319,0.613,-72.449,-9.644,22.399,0,0,0,
,0.353,0.511,0.56,-169.8,18.188,139.343,0,0,0,
,0.229,0.354,0.724,-43.091,106.628,98.816,0,0,0,
,0.266,0.207,1.015,-96.68,132.873,125.427,0,0,0,
,0.26,0.367,1.14,-382.996,65.979,199.096,0,0,0,
,0.015,0.455,0.947,-318.665,60.974,196.899,0,0,0,
,-0.241,-0.14,0.703,-107.422,143.798,85.022,0,0,0,
,-0.236,-0.304,0.952,-220.887,194.03,63.354,0,0,0,
,-0.027,0.191,1.185,-437.684,157.226,96.13,0,0,0,
,-0.038,0.615,1.601,-269.715,71.899,148.742,0,0,0,
,-0.235,0.166,1.322,89.965,-9.339,106.018,0,0,0,
,-0.525,-0.344,1.046,166.87,-17.762,64.148,0,0,0,
,-0.527,-0.684,0.952,10.742,3.418,-74.769,0,0,0,
,-0.191,-0.246,1.349,-376.587,-32.532,-81.604,0,0,0,
,0.05,0.514,1.224,-475.281,-152.039,-21.546,0,0,0,
,-0.166,0.652,1.041,145.141,-103.821,-50.66,0,0,0,
,-0.197,0.139,1.136,466.613,-71.595,-120.118,0,0,0,
,-0.12,-0.027,1.104,178.222,-138.977,-186.219,0,0,0,
,-0.056,0.149,1.098,25.329,-188.477,-212.464,0,0,0,
,0.113,0.599,1.04,10.192,-221.436,-137.452,0,0,0,
,0.198,0.433,0.83,265.93,-125.977,-172.181,0,0,0,
,0.33,0.313,0.761,269.287,-48.584,-140.809,0,0,0,
,0.519,0.388,0.754,107.116,10.803,-127.076,0,0,0,
,0.624,0.486,0.814,-9.034,29.785,-81.788,0,0,0,
,0.546,0.582,0.693,-130.066,49.316,-46.021,0,0,0,
,0.35,0.783,0.547,-52.918,45.715,31.799,0,0,0,
,0.188,0.735,0.689,193.298,79.773,-1.77,0,0,0,
,0.309,0.462,0.883,269.592,72.692,102.6,0,0,0,
,0.41,0.283,0.9,40.161,31.555,120.971,0,0,0,
,0.174,0.054,0.593,-276.062,73.486,91.186,0,0,0,
,0.012,0.015,0.566,-479.126,163.696,43.396,0,0,0,
,0.058,0.498,0.834,-566.59,208.801,68.298,0,0,0,
,-0.074,-0.058,1.123,135.437,41.503,212.036,0,0,0,
,-0.394,-0.483,1.006,215.881,96.191,174.377,0,0,0,
,-0.487,-0.773,0.895,-233.033,168.64,1.281,0,0,0,
,-0.488,0.119,1.392,-501.16,11.474,-11.902,0,0,0,
,-0.592,0.409,1.794,69.397,-69.947,-64.026,0,0,0,
,0.001,-0.278,1.113,44.921,-156.861,-43.824,0,0,0,
,0.056,0.009,0.979,-56.641,-133.484,-45.166,0,0,0,
,-0.007,0.002,0.985,28.625,-63.111,-64.393,0,0,0,
,-0.108,0.394,1.075,-8.362,-81.849,-85.45,0,0,0,
,-0.164,0.292,0.968,204.956,-77.271,-143.677,0,0,0,
,-0.054,0.064,1.14,312.683,-149.598,-198.182,0,0,0,
,0.227,0.387,0.748,56.03,-161.011,-154.786,0,0,0,
,0.321,0.616,0.649,139.587,-27.832,-124.634,0,0,0,
,0.352,0.714,0.916,163.208,42.053,-59.449,0,0,0,
,0.507,0.642,0.843,185.363,24.475,-57.862,0,0,0,
,0.557,0.629,0.589,-62.867,2.685,-29.114,0,0,0,
,0.434,0.715,0.467,24.231,19.714,24.597,0,0,0,
,0.286,0.464,0.64,155.883,121.338,39.733,0,0,0,
,0.196,0.424,0.929,5.127,131.164,125.183,0,0,0,
,0.067,0.424,1.053,-138.245,100.28,144.348,0,0,0,
,0.054,0.298,0.971,-254.639,73.486,136.474,0,0,0,
,0.095,0.344,0.781,-460.206,70.8,150.573,0,0,0,
,-0.341,-0.242,1.254,211.67,228.271,150.268,0,0,0,
,-0.461,-0.316,1.774,183.41,56.03,74.585,0,0,0,
,-0.412,-0.243,1.425,-292.603,-80.872,-12.574,0,0,0,
,-0.318,0.075,1.013,-364.685,-156.983,26.367,0,0,0,
,-0.015,-0.001,0.754,-221.68,46.386,31.066,0,0,0,
,-0.006,0.285,0.966,64.819,98.144,-14.222,0,0,0,
,-0.059,0.015,1.091,11.474,56.579,-121.827,0,0,0,
,-0.08,0.387,0.978,-297.12,-81.543,-141.297,0,0,0,
,0.16,0.17,0.989,223.755,-140.564,-141.846,0,0,0,
,0.256,0.321,0.808,-36.56,-128.663,-115.113,0,0,0,
,0.31,0.423,0.77,-95.948,-72.998,-112.427,0,0,0,
,0.342,0.478,0.75,-179.688,-45.227,-89.844,0,0,0,
,0.237,0.831,0.705,-156.373,-38.025,-14.954,0,0,0,
,0.154,0.807,0.859,312.133,1.586,10.986,0,0,0,
,0.008,0.31,0.817,-240.418,-8.667,19.287,0,0,0,
,0.038,0.422,1.016,-116.822,56.823,82.702,0,0,0,
,0.034,0.347,0.955,-45.594,85.144,113.891,0,0,0,
,0.094,0.328,1.108,1.77,61.157,159.423,0,0,0,
,0.014,0.317,1.109,-40.162,4.943,177.795,0,0,0,
,-0.261,0.017,1.245,285.156,-57.312,151.428,0,0,0,
,-0.395,-0.406,1.234,339.904,-83.68,111.145,0,0,0,
,-0.314,-0.195,0.908,-90.638,-38.086,101.684,0,0,0,
,-0.105,-0.538,0.985,-305.42,142.334,-0.306,0,0,0,
,-0.002,0.175,0.827,-534.607,198.181,149.292,0,0,0,
,0.106,0.048,0.87,-563.904,211.547,109.314,0,0,0,
,0.219,0.699,1.355,-644.593,-93.506,285.827,0,0,0,
,0.064,0.246,1.03,-129.212,-54.505,43.579,0,0,0,
,-0.176,0.233,1.331,-277.405,-353.699,56.945,0,0,0,
,-0.321,0.44,1.176,38.635,-314.881,69.946,0,0,0,
,-0.443,0.415,1.223,585.876,-223.938,36.56,0,0,0,
,-0.42,-0.095,0.904,637.878,-20.02,10.62,0,0,0,
,-0.452,-0.038,0.755,538.696,109.314,-27.283,0,0,0,
