TIMECODE,ACC_X,ACC_Y,ACC_Z,GYR_X,GYR_Y,GYR_Z,ECG_I,ECG_II,ECG_III,TAG
,-0.199,-0.807,0.623,-37.11,-6.897,-57.19,0,0,0,
,-0.228,-0.825,0.642,-60.669,-8.423,-66.956,0,0,0,
,-0.243,-0.821,0.627,-128.418,11.291,-70.252,0,0,0,
,-0.216,-0.789,0.592,-175.477,18.92,-62.317,0,0,0,
,-0.205,-0.765,0.589,-113.221,-0.245,-49.622,0,0,0,
,-0.244,-0.797,0.591,-21.729,-13.184,-70.496,0,0,0,
,-0.254,-0.894,0.633,-50.11,-14.039,-110.718,0,0,0,
,-0.222,-0.904,0.615,-305.115,31.677,-95.826,0,0,0,
,-0.183,-0.745,0.627,-399.231,47.119,-37.537,0,0,0,
,-0.195,-0.637,0.649,-303.711,36.315,-37.964,0,0,0,
,-0.21,-0.633,0.666,-131.775,17.761,-51.758,0,0,0,
,-0.212,-0.707,0.681,14.77,4.089,-64.515,0,0,0,
,-0.241,-0.775,0.667,30.456,23.742,-58.594,0,0,0,
,-0.231,-0.756,0.651,-11.292,47.363,-39.978,0,0,0,
,-0.208,-0.72,0.646,-9.034,64.819,-42.298,0,0,0,
,-0.194,-0.706,0.656,41.137,56.579,-41.26,0,0,0,
,-0.219,-0.748,0.728,81.604,34.668,-59.449,0,0,0,
,-0.237,-0.81,0.7,58.349,55.847,-52.002,0,0,0,
,-0.183,-0.79,0.57,56.396,72.021,-63.904,0,0,0,
,-0.24,-0.746,0.577,11.657,54.748,-40.711,0,0,0,
,-0.349,-0.727,0.675,4.394,35.217,-18.494,0,0,0,
,-0.339,-0.762,0.719,68.725,31.066,-41.443,0,0,0,
,-0.146,-0.843,0.682,109.68,38.33,-83.069,0,0,0,
,-0.03,-0.845,0.592,41.87,39.672,-66.834,0,0,0,
,-0.077,-0.773,0.571,-7.142,5.31,-32.959,0,0,0,
,-0.264,-0.706,0.633,-47.852,-29.847,9.521,0,0,0,
,-0.422,-0.696,0.677,15.991,-24.659,14.221,0,0,0,
,-0.29,-0.794,0.676,141.357,-2.93,-30.396,0,0,0,
,-0.174,-0.868,0.577,139.831,-2.442,-46.265,0,0,0,
,-0.169,-0.881,0.605,89.294,-28.199,-32.044,0,0,0,
,-0.224,-0.806,0.628,-85.572,14.16,-15.076,0,0,0,
,-0.248,-0.719,0.686,-130.372,24.231,3.54,0,0,0,
,-0.215,-0.703,0.661,-16.846,19.592,-15.809,0,0,0,
,-0.151,-0.757,0.609,111.328,0.732,-47.608,0,0,0,
,-0.166,-0.812,0.583,116.394,-7.447,-44.251,0,0,0,
,-0.282,-0.801,0.6,9.216,7.751,-14.344,0,0,0,
,-0.375,-0.774,0.666,-37.11,22.583,-2.808,0,0,0,
,-0.324,-0.783,0.68,-2.686,40.954,-23.255,0,0,0,
,-0.171,-0.819,0.62,43.823,57.312,-74.463,0,0,0,
,-0.061,-0.842,0.583,19.348,40.283,-55.237,0,0,0,
,-0.112,-0.797,0.608,-44.251,17.395,-19.471,0,0,0,
,-0.28,-0.745,0.656,-86.914,8.361,-2.259,0,0,0,
,-0.359,-0.724,0.625,-28.382,6.774,-5.86,0,0,0,
,-0.238,-0.785,0.624,92.041,18.371,-25.696,0,0,0,
,-0.207,-0.855,0.568,82.092,-19.41,-68.299,0,0,0,
,-0.214,-0.858,0.61,-27.466,9.155,-34.607,0,0,0,
,-0.238,-0.741,0.647,-86.487,19.653,-7.508,0,0,0,
,-0.179,-0.748,0.624,3.906,13.366,-23.438,0,0,0,
,-0.135,-0.789,0.599,54.687,-1.038,-31.739,0,0,0,
,-0.191,-0.797,0.614,21.179,-9.949,-13.428,0,0,0,
,-0.338,-0.806,0.671,-15.992,-13.306,-19.471,0,0,0,
,-0.331,-0.777,0.631,-39.124,17.578,-5.555,0,0,0,
,-0.127,-0.813,0.609,-13.001,31.189,-36.805,0,0,0,
,-0.17,-0.781,0.627,-46.814,17.089,-31.128,0,0,0,
,-0.265,-0.751,0.658,-45.899,13,-19.654,0,0,0,
,-0.26,-0.761,0.635,1.403,16.601,-28.199,0,0,0,
,-0.229,-0.794,0.614,34.851,12.573,-34.058,0,0,0,
,-0.231,-0.817,0.6,1.831,17.334,-42.42,0,0,0,
,-0.243,-0.808,0.611,-22.217,19.043,-32.105,0,0,0,
,-0.244,-0.788,0.623,-35.096,28.198,-25.269,0,0,0,
,-0.213,-0.794,0.632,-27.527,38.635,-17.029,0,0,0,
,-0.172,-0.803,0.617,-15.503,33.63,-15.931,0,0,0,
,-0.181,-0.793,0.619,-25.452,6.897,-32.776,0,0,0,
,-0.224,-0.78,0.627,-35.645,-1.465,-41.443,0,0,0,
,-0.251,-0.767,0.635,-26.612,6.53,-24.414,0,0,0,
,-0.276,-0.767,0.62,-11.231,6.713,-14.161,0,0,0,
,-0.247,-0.793,0.627,11.047,14.526,-20.325,0,0,0,
,-0.193,-0.826,0.605,16.967,18.92,-18.555,0,0,0,
,-0.211,-0.821,0.604,-34.79,2.807,-41.748,0,0,0,
,-0.206,-0.79,0.63,-68.177,23.498,-26.429,0,0,0,
,-0.216,-0.768,0.636,-62.195,16.479,-29.175,0,0,0,
,-0.228,-0.755,0.63,-32.776,15.869,-25.452,0,0,0,
,-0.216,-0.761,0.617,-0.55,14.77,-34.424,0,0,0,
,-0.224,-0.786,0.62,15.441,6.713,-40.528,0,0,0,
,-0.249,-0.801,0.631,9.826,4.76,-31.861,0,0,0,
,-0.258,-0.805,0.594,-4.761,19.165,-31.617,0,0,0,
,-0.217,-0.792,0.617,-17.762,32.836,-13.184,0,0,0,
,-0.209,-0.802,0.614,-23.438,24.78,-47.852,0,0,0,
,-0.18,-0.794,0.624,-28.748,26.916,-37.781,0,0,0,
,-0.198,-0.783,0.63,-32.227,8.361,-36.133,0,0,0,
,-0.246,-0.777,0.64,-32.959,10.986,-27.71,0,0,0,
,-0.26,-0.773,0.631,-26.795,10.498,-17.701,0,0,0,
,-0.242,-0.785,0.624,-2.747,14.526,-21.851,0,0,0,
,-0.21,-0.793,0.62,-38.758,15.319,-25.818,0,0,0,
,-0.221,-0.779,0.629,-44.495,20.874,-19.227,0,0,0,
,-0.214,-0.773,0.632,-34.974,22.522,-23.377,0,0,0,
,-0.21,-0.782,0.629,-23.316,26.062,-28.931,0,0,0,
,-0.218,-0.785,0.634,-30.518,19.226,-28.809,0,0,0,
,-0.221,-0.776,0.623,-20.264,36.01,-30.152,0,0,0,
,-0.205,-0.809,0.65,-7.691,25.329,-41.504,0,0,0,
,-0.212,-0.819,0.635,-46.326,37.963,-43.641,0,0,0,
,-0.21,-0.789,0.631,-81.421,38.33,-32.105,0,0,0,
,-0.222,-0.723,0.625,-81.238,37.78,-30.396,0,0,0,
,-0.216,-0.797,0.65,-2.198,17.517,-25.635,0,0,0,
,-0.223,-0.808,0.632,-37.11,26.428,-23.438,0,0,0,
,-0.227,-0.803,0.665,-63.294,24.231,-27.039,0,0,0,
,-0.237,-0.782,0.636,-83.13,38.208,-33.204,0,0,0,
,-0.204,-0.747,0.624,-75.562,39.245,-26.001,0,0,0,
,-0.183,-0.741,0.624,-23.194,30.334,-29.908,0,0,0,
,-0.19,-0.755,0.643,-0.916,22.949,-25.94,0,0,0,
,-0.221,-0.777,0.665,-0.367,22.216,-27.955,0,0,0,
,-0.244,-0.793,0.662,-15.87,26.916,-32.166,0,0,0,
,-0.238,-0.755,0.641,-42.054,36.987,-34.913,0,0,0,
,-0.206,-0.763,0.627,-46.448,39.733,-38.636,0,0,0,
,-0.18,-0.751,0.629,-28.138,40.466,-37.842,0,0,0,
,-0.192,-0.757,0.632,0.976,33.203,-31.006,0,0,0,
,-0.216,-0.786,0.663,0.061,23.681,-33.814,0,0,0,
,-0.237,-0.805,0.67,-21.973,22.827,-34.974,0,0,0,
,-0.227,-0.781,0.644,-66.224,35.705,-24.964,0,0,0,
,-0.202,-0.751,0.624,-54.2,29.663,-23.743,0,0,0,
,-0.207,-0.756,0.633,-8.667,9.399,-30.64,0,0,0,
,-0.215,-0.782,0.652,0.671,9.216,-30.335,0,0,0,
,-0.215,-0.793,0.66,-18.311,11.169,-28.931,0,0,0,
,-0.219,-0.791,0.654,-38.697,14.953,-30.152,0,0,0,
,-0.216,-0.769,0.64,-53.345,18.798,-28.565,0,0,0,
,-0.208,-0.75,0.649,-50.66,30.334,-34.058,0,0,0,
,-0.209,-0.743,0.663,-37.659,34.179,-38.331,0,0,0,
,-0.213,-0.758,0.669,-27.71,36.987,-40.772,0,0,0,
,-0.224,-0.78,0.671,-28.992,50.048,-38.758,0,0,0,
,-0.224,-0.798,0.688,-50.843,51.513,-36.072,0,0,0,
,-0.236,-0.801,0.713,-57.923,45.471,-46.753,0,0,0,
,-0.276,-0.798,0.773,-92.041,54.26,-55.481,0,0,0,
,-0.335,-0.844,0.834,-109.803,101.928,-101.38,0,0,0,
,-0.29,-0.881,0.88,-183.35,180.114,-142.334,0,0,0,
,-0.275,-0.957,0.993,-228.028,192.871,-197.815,0,0,0,
,-0.377,-0.98,1.015,-333.252,261.779,-216.37,0,0,0,
,-0.487,-0.89,1.198,-351.502,215.515,-184.876,0,0,0,
,-0.492,-0.747,1.345,-296.631,131.469,-77.454,0,0,0,
,-0.304,-0.812,1.26,-63.355,-79.407,-254.822,0,0,0,
,-0.21,-1.225,1.417,387.939,-335.267,-574.707,0,0,0,
,-0.378,-1.627,1.498,-153.382,-406.189,-687.867,0,0,0,
,-0.486,-1.488,1.641,-909.058,-485.413,-714.783,0,0,0,
,-0.482,-1.35,1.765,-1029.969,-720.948,-912.903,0,0,0,
,-0.34,-1.396,1.713,-830.323,-997.376,-1151.734,0,0,0,
,-0.252,-1.388,1.555,-810.791,-1209.9,-1245.606,0,0,0,
,-0.185,-1.432,1.397,-858.338,-1375.55,-1437.562,0,0,0,
,-0.034,-1.501,1.279,-905.518,-1534.852,-1679.749,0,0,0,
,0.11,-1.572,1.283,-1043.335,-1755.433,-1911.133,0,0,0,
,0.153,-1.599,1.184,-1312.012,-1940.186,-2000,0,0,0,
,0.211,-1.394,0.931,-1651.124,-1999.634,-2000,0,0,0,
,0.286,-1.11,0.664,-1933.289,-2000,-2000,0,0,0,
,0.368,-0.776,0.316,-2000,-2000,-2000,0,0,0,
,0.479,-0.611,0.1,-1982.667,-2000,-2000,0,0,0,
,0.514,-0.449,-0.016,-1906.617,-2000,-2000,0,0,0,
,0.544,-0.249,-0.284,-1712.098,-2000,-2000,0,0,0,
,0.545,-0.136,-0.638,-1660.035,-2000,-2000,0,0,0,
,0.56,0.001,-0.881,-1583.497,-1994.141,-1936.585,0,0,0,
,0.499,0.074,-1.106,-1451.294,-1789.795,-1824.769,0,0,0,
,0.469,0.08,-1.247,-1173.157,-1468.689,-1767.151,0,0,0,
,0.418,0.074,-1.444,-946.351,-988.038,-1666.993,0,0,0,
,0.354,0.249,-1.691,-868.897,-437.745,-1525.269,0,0,0,
,0.27,0.719,-1.827,-815.674,174.865,-1309.021,0,0,0,
,0.243,1.092,-1.723,-641.665,6327.171,302.365,0,0,0,
,0.257,0.8,-1.012,311.645,1274.902,-236.817,0,0,0,
,0.177,0.52,-0.766,565.246,1398.437,120.3,0,0,0,
,-0.003,0.42,-0.633,756.897,1471.069,450.866,0,0,0,
,-0.167,0.457,-0.585,1119.079,1538.94,678.466,0,0,0,
,-0.235,0.473,-0.574,1769.104,1516.662,831.421,0,0,0,
,-0.245,0.446,-0.521,1999.694,1411.071,1073.425,0,0,0,
,-0.263,0.386,-0.423,1999.694,1206.848,1378.479,0,0,0,
,-0.296,0.276,-0.204,1999.694,981.811,1680.847,0,0,0,
,-0.475,0.136,-0.024,1999.694,908.447,1933.166,0,0,0,
,-0.707,0.055,0.05,1999.694,956.482,1999.694,0,0,0,
,-0.725,0.019,0.039,1999.694,983.703,1999.694,0,0,0,
,-0.487,0.029,0.222,1998.718,986.45,1999.694,0,0,0,
,-0.387,0.016,0.283,1617.126,1072.57,1999.694,0,0,0,
,-0.401,-0.013,0.098,1479.675,1178.772,1999.694,0,0,0,
,-0.274,-0.176,0.072,1584.228,1210.205,1999.694,0,0,0,
,0.012,-0.721,0.479,1999.694,1029.724,1999.694,0,0,0,
,0.1,-1.597,0.934,1999.694,959.167,1997.985,0,0,0,
,-0.021,-2.096,0.986,1579.712,1050.598,1999.206,0,0,0,
,-0.048,-1.984,1.033,897.949,1054.504,1715.881,0,0,0,
,-0.151,-1.774,1.156,474.182,980.957,1416.076,0,0,0,
,-0.337,-1.504,1.277,108.398,868.469,1262.39,0,0,0,
,-0.495,-1.19,1.212,-221.497,795.044,1113.708,0,0,0,
,-0.391,-0.992,1.135,-241.822,731.323,975.463,0,0,0,
,0.068,-1.003,1.086,227.6,581.054,647.277,0,0,0,
,0.24,-1.158,1.041,895.691,457.824,555.359,0,0,0,
,-0.011,-1.59,0.782,699.34,491.821,544.86,0,0,0,
,-0.334,-2.355,0.856,-545.289,496.521,22.155,0,0,0,
,-0.187,-1.636,1.84,-2000,584.594,216.369,0,0,0,
,-0.316,-0.219,1.408,-929.505,353.515,118.591,0,0,0,
,-0.242,0.498,0.658,-228.333,149.841,36.193,0,0,0,
,-0.006,-0.112,0.488,762.817,-91.126,-81.055,0,0,0,
,0.061,-0.814,0.491,1332.824,-100.892,-102.234,0,0,0,
,-0.113,-1.214,0.497,743.774,47.363,-18.25,0,0,0,
,-0.138,-1.115,0.649,84.533,175.232,13,0,0,0,
,-0.081,-0.884,0.758,-122.254,128.234,-8.973,0,0,0,
,-0.107,-0.736,0.681,-8.118,31.005,-16.358,0,0,0,
,-0.14,-0.733,0.62,172.607,-64.759,-51.27,0,0,0,
,-0.125,-0.829,0.642,274.902,-106.69,-97.535,0,0,0,
,-0.07,-0.851,0.68,174.987,-132.874,-106.324,0,0,0,
,-0.051,-0.878,0.713,43.273,-152.894,-126.282,0,0,0,
,-0.039,-0.897,0.663,-91.187,-160.34,-119.019,0,0,0,
,-0.05,-1.022,0.529,-230.469,-157.349,-157.471,0,0,0,
,-0.04,-1.181,0.472,-305.664,-176.453,-162.415,0,0,0,
,-0.03,-1.252,0.358,-171.936,-191.04,-261.963,0,0,0,
,-0.116,-1.179,0.337,-100.037,-139.588,-227.295,0,0,0,
,-0.155,-1.086,0.354,-194.153,-89.051,-255.616,0,0,0,
,-0.199,-0.995,0.378,-319.825,-11.841,-293.519,0,0,0,
,-0.224,-0.965,0.552,-437.073,-2.93,-292.176,0,0,0,
,-0.312,-0.754,0.622,-758.545,62.255,-290.894,0,0,0,
,-0.351,-0.474,0.614,-930.237,118.652,-323.182,0,0,0,
,-0.357,-0.336,0.656,-474.671,72.57,-315.857,0,0,0,
,-0.397,-0.337,0.682,34.668,27.038,-205.567,0,0,0,
,-0.428,-0.515,0.77,282.043,-24.353,-166.077,0,0,0,
,-0.362,-0.558,0.862,-30.457,-16.602,-109.498,0,0,0,
,-0.264,-0.457,0.876,-429.627,-24.598,-69.581,0,0,0,
,-0.141,-0.421,0.893,-578.736,-63.05,-50.171,0,0,0,
,-0.158,-0.449,1.074,-409.18,-140.564,15.136,0,0,0,
,-0.179,-0.544,0.971,-174.805,-223.877,89.782,0,0,0,
,-0.244,-0.615,0.94,-75.013,-220.704,56.518,0,0,0,
,-0.292,-0.679,0.854,17.273,-184.815,7.446,0,0,0,
,-0.283,-0.679,0.69,184.509,-124.329,-50.965,0,0,0,
,-0.29,-0.666,0.764,111.572,-39.856,-74.524,0,0,0,
,-0.269,-0.604,0.714,36.499,39.917,-84.107,0,0,0,
,-0.303,-0.607,0.69,125.793,55.419,-73.914,0,0,0,
,-0.316,-0.739,0.742,84.106,41.259,-106.69,0,0,0,
,-0.298,-0.753,0.762,-127.259,71.106,-117.554,0,0,0,
,-0.307,-0.674,0.669,-260.376,98.144,-142.212,0,0,0,
,-0.173,-0.613,0.639,-592.713,160.827,-173.89,0,0,0,
,-0.143,-0.498,0.651,-598.389,182.251,-49.744,0,0,0,
,-0.26,-0.422,0.743,-323.121,110.107,10.62,0,0,0,
,-0.173,-0.622,0.855,-305.664,56.091,-106.629,0,0,0,
,-0.148,-0.749,0.959,-402.039,1.586,-103.455,0,0,0,
,-0.174,-0.652,0.861,-642.762,91.613,-46.875,0,0,0,
,-0.061,-0.351,0.94,-472.596,93.505,-1.404,0,0,0,
,-0.071,-0.345,0.9,147.155,-84.717,-48.096,0,0,0,
,-0.161,-0.653,0.939,466.735,-203.858,-92.286,0,0,0,
,-0.095,-0.746,0.884,132.69,-141.541,-76.844,0,0,0,
,-0.027,-0.625,0.89,-163.819,-115.357,-41.138,0,0,0,
,-0.028,-0.442,0.912,-132.325,-114.869,-7.203,0,0,0,
,-0.039,-0.45,0.875,325.134,-181.214,-11.109,0,0,0,
,-0.058,-0.515,0.812,848.449,-203.186,23.742,0,0,0,
,-0.047,-0.747,0.666,1182.006,-198.609,-118.714,0,0,0,
,-0.098,-1.008,0.602,1307.983,-249.39,-164.063,0,0,0,
,-0.179,-1.166,0.518,879.272,-119.629,-244.935,0,0,0,
,-0.246,-1.108,0.546,245.117,-11.78,-278.87,0,0,0,
,-0.286,-0.851,0.606,-105.652,50.537,-273.255,0,0,0,
,-0.373,-0.722,0.6,-29.297,66.528,-266.053,0,0,0,
,-0.429,-0.634,0.594,228.942,59.753,-235.169,0,0,0,
,-0.387,-0.543,0.644,494.445,49.438,-255.31,0,0,0,
,-0.344,-0.516,0.622,763.366,32.653,-279.358,0,0,0,
,-0.392,-0.665,0.408,1101.623,7.934,-224.61,0,0,0,
,-0.497,-0.776,0.37,1178.772,42.297,-174.317,0,0,0,
,-0.493,-0.842,0.312,943.969,113.281,-197.51,0,0,0,
,-0.429,-0.832,0.339,619.934,161.193,-218.995,0,0,0,
,-0.455,-0.789,0.319,458.435,237.365,-191.285,0,0,0,
,-0.478,-0.765,0.427,435.974,241.516,-175.538,0,0,0,
,-0.515,-0.819,0.499,429.077,250.671,-158.448,0,0,0,
,-0.509,-0.807,0.483,399.17,239.441,-132.813,0,0,0,
,-0.501,-0.8,0.501,345.153,219.604,-113.465,0,0,0,
,-0.491,-0.768,0.471,298.462,212.28,-121.094,0,0,0,
,-0.484,-0.715,0.475,218.811,219.543,-126.404,0,0,0,
,-0.494,-0.833,0.425,120.178,239.196,-130.616,0,0,0,
,-0.526,-0.947,0.533,-140.87,265.564,-105.652,0,0,0,
,-0.536,-0.961,0.625,-576.477,294.311,-110.901,0,0,0,
,-0.505,-0.798,0.711,-787.537,309.509,-106.324,0,0,0,
,-0.5,-0.61,0.746,-630.555,258.117,-105.713,0,0,0,
,-0.455,-0.594,0.702,-346.985,202.514,-108.704,0,0,0,
,-0.387,-0.602,0.638,-26.673,165.405,-112.366,0,0,0,
,-0.359,-0.781,0.589,165.344,80.322,-92.347,0,0,0,
,-0.392,-1.065,0.507,-149.17,103.515,-114.075,0,0,0,
,-0.322,-1.15,0.568,-931.519,151.001,-143.433,0,0,0,
,-0.289,-0.826,0.593,-1459.595,215.637,-129.395,0,0,0,
,-0.358,-0.548,0.718,-1228.089,154.724,-58.167,0,0,0,
,-0.256,-0.279,0.68,-766.114,158.813,-76.844,0,0,0,
,-0.174,-0.463,0.744,-38.331,20.507,-96.375,0,0,0,
,-0.35,-0.85,0.74,319.213,-38.941,-31.006,0,0,0,
,-0.325,-0.776,0.677,99.304,27.954,-58.228,0,0,0,
,-0.285,-0.625,0.592,91.064,10.253,-36.377,0,0,0,
,-0.35,-0.736,0.61,149.475,-15.137,-30.884,0,0,0,
,-0.328,-0.844,0.606,-121.888,11.23,-59.449,0,0,0,
,-0.302,-0.757,0.654,-409.729,37.658,-46.448,0,0,0,
,-0.35,-0.631,0.697,-435.73,43.64,-39.795,0,0,0,
,-0.317,-0.518,0.73,-255.127,44.372,-59.144,0,0,0,
,-0.318,-0.556,0.762,-23.011,27.221,-35.34,0,0,0,
,-0.347,-0.625,0.768,161.987,8.361,-11.292,0,0,0,
,-0.349,-0.751,0.739,127.319,-7.081,-27.222,0,0,0,
,-0.327,-0.777,0.758,-76.661,-3.54,-22.034,0,0,0,
,-0.348,-0.638,0.721,-127.564,14.16,3.112,0,0,0,
,-0.35,-0.553,0.653,28.381,21.789,-5.921,0,0,0,
,-0.333,-0.618,0.661,216.125,18.249,-0.916,0,0,0,
,-0.366,-0.778,0.678,250.427,24.902,-15.381,0,0,0,
,-0.316,-0.8,0.656,66.284,42.968,-25.696,0,0,0,
,-0.324,-0.742,0.68,-53.528,24.658,-10.498,0,0,0,
,-0.348,-0.656,0.652,-52.735,39.489,1.586,0,0,0,
,-0.369,-0.686,0.668,47.668,15.564,10.559,0,0,0,
,-0.386,-0.781,0.683,49.987,18.615,11.474,0,0,0,
,-0.363,-0.696,0.655,18.798,30.334,-19.898,0,0,0,
,-0.351,-0.746,0.665,31.921,20.996,-41.382,0,0,0,
,-0.345,-0.748,0.713,-58.655,8.117,-54.566,0,0,0,
,-0.391,-0.792,0.732,-203.797,10.131,-61.646,0,0,0,
,-0.381,-0.768,0.764,-309.693,-1.099,-89.722,0,0,0,
,-0.414,-0.714,0.724,-305.664,-8.789,-80.933,0,0,0,
,-0.378,-0.575,0.677,-205.933,15.197,-95.032,0,0,0,
,-0.37,-0.519,0.577,39.184,51.208,-112.61,0,0,0,
,-0.398,-0.569,0.65,264.038,36.315,-93.445,0,0,0,
,-0.412,-0.717,0.655,269.348,59.204,-126.77,0,0,0,
,-0.395,-0.789,0.751,-59.51,31.921,-104.065,0,0,0,
,-0.44,-0.816,0.782,-389.039,11.352,-90.332,0,0,0,
,-0.43,-0.669,0.732,-689.759,48.523,-101.258,0,0,0,
,-0.338,-0.484,0.715,-626.954,5.615,-107.666,0,0,0,
,-0.391,-0.49,0.8,-260.132,-47.852,-104.126,0,0,0,
,-0.392,-0.601,0.677,-1.282,-89.478,-173.096,0,0,0,
,-0.37,-0.83,0.77,-57.984,-80.201,-144.165,0,0,0,
,-0.332,-0.967,0.554,-344.666,-61.158,-219.178,0,0,0,
,-0.401,-0.902,0.717,-853.943,-11.17,-266.175,0,0,0,
,-0.425,-0.414,0.764,-1104.981,65.551,-202.637,0,0,0,
,-0.428,-0.158,0.599,-412.049,112.304,-79.59,0,0,0,
,-0.529,-0.641,0.935,-232.117,-131.958,-268.494,0,0,0,
,-0.442,-0.568,0.434,-574.585,131.775,-177.674,0,0,0,
,-0.424,-0.57,0.824,-809.144,46.997,-250.55,0,0,0,
,-0.531,-0.305,0.723,-725.525,150.634,-208.313,0,0,0,
,-0.394,-0.185,0.692,-512.024,189.941,-181.336,0,0,0,
,-0.426,-0.229,0.706,-355.896,227.905,-129.212,0,0,0,
,-0.298,-0.465,0.877,-469.117,236.084,-133.484,0,0,0,
,-0.315,-0.46,1.025,-571.473,258.606,-118.226,0,0,0,
,-0.279,-0.336,1.021,-381.714,227.966,-122.62,0,0,0,
,-0.321,-0.26,0.985,-199.891,212.402,-107.972,0,0,0,
,-0.268,-0.171,0.924,-152.039,195.495,-37.171,0,0,0,
,-0.268,-0.226,0.926,-77.149,182.19,17.822,0,0,0,
,-0.249,-0.314,0.897,-3.968,170.654,58.471,0,0,0,
,-0.291,-0.553,0.179,74.035,212.219,2.136,0,0,0,
,-0.306,-0.552,0.68,-113.953,219.36,-7.142,0,0,0,
,-0.251,-0.355,0.673,-240.479,272.766,-30.762,0,0,0,
,-0.194,-0.274,0.703,-167.664,276.611,-12.94,0,0,0,
,-0.177,-0.312,0.875,-97.474,256.347,42.846,0,0,0,
,-0.237,-0.425,1.062,-101.319,198.73,81.543,0,0,0,
,-0.411,-0.25,1.401,-106.934,94.116,109.253,0,0,0,
,-0.481,-0.097,1.189,121.582,-30.945,134.338,0,0,0,
,-0.388,-0.279,0.861,256.164,-97.962,129.577,0,0,0,
,-0.297,-0.462,0.693,118.652,-2.869,65.124,0,0,0,
,-0.252,-0.456,0.785,-40.528,58.776,22.888,0,0,0,
,-0.285,-0.456,1.002,-141.907,84.228,-6.165,0,0,0,
,-0.317,-0.311,1.027,-192.139,76.721,-0.794,0,0,0,
,-0.292,-0.209,0.956,-100.464,50.537,5.554,0,0,0,
,-0.295,-0.283,0.888,-38.636,32.959,4.028,0,0,0,
,-0.29,-0.284,0.774,-92.652,74.951,16.601,0,0,0,
,-0.341,-0.477,0.853,-100.525,89.172,-16.419,0,0,0,
,-0.39,-0.47,0.965,-282.776,152.282,-54.871,0,0,0,
,-0.337,-0.198,1.078,-247.62,147.338,-77.637,0,0,0,
,-0.252,-0.141,1.125,-125.611,114.502,-62.134,0,0,0,
,-0.159,-0.212,0.992,3.479,70.678,-42.176,0,0,0,
,-0.17,-0.296,0.879,-18.128,85.205,-29.664,0,0,0,
,-0.2,-0.344,0.856,-66.407,111.877,-23.682,0,0,0,
,-0.258,-0.352,0.938,-83.13,131.286,-28.26,0,0,0,
,-0.302,-0.32,1.004,-74.28,119.445,-28.138,0,0,0,
,-0.273,-0.256,1.015,-49.927,95.092,-25.696,0,0,0,
,-0.234,-0.25,0.952,4.699,64.88,-25.269,0,0,0,
,-0.192,-0.174,0.911,-39.307,70.19,-16.846,0,0,0,
,-0.018,-0.242,0.859,-38.758,76.782,-48.34,0,0,0,
,-0.221,-0.336,1.014,79.65,65.063,21.301,0,0,0,
,-0.186,-0.35,1.057,106.323,-0.55,59.265,0,0,0,
,-0.127,-0.309,0.919,127.014,-8.606,55.297,0,0,0,
,-0.16,-0.384,0.9,164.611,-53.528,43.273,0,0,0,
,-0.139,-0.377,0.897,66.467,-31.434,9.155,0,0,0,
,-0.274,-0.301,0.969,57.556,-42.115,-4.456,0,0,0,
,-0.29,-0.24,0.924,77.819,-22.156,21.545,0,0,0,
,-0.358,-0.246,0.904,143.676,-28.199,55.053,0,0,0,
,-0.46,-0.175,0.92,69.336,-19.227,107.299,0,0,0,
,-0.26,-0.223,1.004,156.433,-53.223,106.506,0,0,0,
,-0.255,-0.376,1.04,303.222,-96.985,100.463,0,0,0,
,-0.236,-0.269,1.018,319.519,-118.103,104.065,0,0,0,
,-0.19,-0.095,1.007,400.94,-33.387,93.2,0,0,0,
,-0.252,-0.018,0.879,605.529,-33.509,159.668,0,0,0,
,-0.285,-0.298,0.796,556.64,-134.522,128.784,0,0,0,
,-0.386,-0.567,0.895,600.402,-235.962,141.601,0,0,0,
,-0.364,-0.56,0.777,517.028,-210.511,149.047,0,0,0,
,-0.487,-0.604,0.488,513.977,-207.825,148.315,0,0,0,
,-0.637,-0.725,0.459,211.12,-98.45,50.17,0,0,0,
,-0.545,-0.625,0.549,-374.024,51.391,24.902,0,0,0,
,-0.5,-0.265,0.683,-597.596,200.805,26.367,0,0,0,
,-0.413,0.021,0.845,-129.639,243.53,35.644,0,0,0,
,-0.399,-0.193,0.855,708.435,148.193,27.893,0,0,0,
,-0.391,-0.699,0.869,1244.873,34.484,-72.937,0,0,0,
,-0.414,-1.363,0.786,1042.663,-1.77,-263.672,0,0,0,
,-0.105,-1.426,0.804,-60.975,88.134,-294.617,0,0,0,
,-0.142,-0.527,0.785,-1029.358,159.301,112.609,0,0,0,
,-0.378,-0.012,0.708,-602.662,91.98,19.775,0,0,0,
,-0.172,-0.284,0.711,-65.186,42.663,-114.441,0,0,0,
,-0.153,-0.538,0.781,-42.298,60.424,-2.625,0,0,0,
,-0.121,-0.795,0.891,-229.798,46.325,-32.654,0,0,0,
,0.05,-1.091,1.219,-357.911,-54.81,-128.357,0,0,0,
,0.171,-0.817,1.181,-596.436,-80.445,-99.488,0,0,0,
,0.085,-0.469,1.114,-282.654,-235.169,-47.12,0,0,0,
,-0.076,-0.342,0.896,165.039,-335.083,-50.354,0,0,0,
,-0.042,-0.381,0.626,395.08,-363.16,-54.81,0,0,0,
,-0.127,-0.592,0.63,388,-403.504,-96.131,0,0,0,
,-0.259,-0.725,0.733,126.526,-358.277,-96.436,0,0,0,
,-0.188,-0.678,0.795,-194.397,-307.862,-93.567,0,0,0,
,-0.245,-0.459,0.757,-270.081,-299.622,-36.927,0,0,0,
,-0.333,-0.323,0.699,-42.481,-311.402,-19.715,0,0,0,
,-0.401,-0.373,0.625,265.075,-318.909,-9.522,0,0,0,
,-0.434,-0.48,0.583,372.009,-278.443,0.671,0,0,0,
,-0.433,-0.535,0.585,379.577,-225.22,-17.884,0,0,0,
,-0.454,-0.582,0.665,361.816,-187.928,-33.57,0,0,0,
,-0.472,-0.625,0.736,321.045,-138.245,-44.251,0,0,0,
,-0.46,-0.605,0.76,218.872,-65.552,-60.303,0,0,0,
,-0.462,-0.525,0.737,171.997,6.225,-29.358,0,0,0,
,-0.472,-0.461,0.694,256.713,46.142,-7.813,0,0,0,
,-0.495,-0.505,0.692,419.922,55.053,-4.029,0,0,0,
,-0.526,-0.628,0.739,525.94,43.945,-5.494,0,0,0,
,-0.55,-0.752,0.769,485.778,55.725,-22.706,0,0,0,
,-0.521,-0.8,0.774,325.622,85.022,-20.447,0,0,0,
,-0.467,-0.745,0.754,153.442,115.173,-6.653,0,0,0,
,-0.445,-0.672,0.714,115.661,138.488,-12.207,0,0,0,
,-0.47,-0.665,0.707,249.511,106.872,8.178,0,0,0,
,-0.511,-0.731,0.685,383.972,91.735,-12.513,0,0,0,
,-0.51,-0.818,0.657,332.031,87.707,-77.088,0,0,0,
,-0.485,-0.837,0.67,138.672,107.91,-113.526,0,0,0,
,-0.49,-0.76,0.703,-8.851,114.685,-111.634,0,0,0,
,-0.474,-0.646,0.711,-9.095,118.286,-117.615,0,0,0,
,-0.44,-0.6,0.661,117.736,120.605,-127.198,0,0,0,
,-0.41,-0.655,0.637,233.398,94.482,-137.94,0,0,0,
,-0.414,-0.772,0.668,201.782,88.378,-161.56,0,0,0,
,-0.389,-0.826,0.68,14.282,93.322,-174.256,0,0,0,
,-0.34,-0.749,0.697,-189.576,96.801,-158.875,0,0,0,
,-0.326,-0.581,0.664,-180.726,111.755,-119.507,0,0,0,
,-0.313,-0.516,0.628,5.371,95.825,-110.84,0,0,0,
,-0.324,-0.617,0.619,225.158,65.246,-93.689,0,0,0,
,-0.346,-0.745,0.641,222.046,54.687,-87.525,0,0,0,
,-0.355,-0.793,0.677,9.094,62.255,-86.365,0,0,0,
,-0.359,-0.743,0.689,-170.777,69.58,-53.528,0,0,0,
,-0.361,-0.661,0.689,-178.956,49.926,-22.278,0,0,0,
,-0.367,-0.58,0.68,-78.614,44.921,5.859,0,0,0,
,-0.364,-0.588,0.618,49.377,41.198,17.273,0,0,0,
,-0.365,-0.672,0.621,128.54,27.71,21.423,0,0,0,
,-0.376,-0.765,0.644,65.856,38.269,13.61,0,0,0,
,-0.365,-0.76,0.67,-77.332,52.185,15.869,0,0,0,
,-0.378,-0.717,0.667,-167.725,56.762,18.676,0,0,0,
,-0.386,-0.681,0.694,-163.208,62.622,18.005,0,0,0,
,-0.364,-0.611,0.676,-94.422,83.252,24.719,0,0,0,
,-0.362,-0.611,0.665,46.997,60.791,35.095,0,0,0,
,-0.387,-0.722,0.678,154.785,33.813,26.977,0,0,0,
,-0.37,-0.817,0.697,47.729,36.377,-2.015,0,0,0,
,-0.357,-0.762,0.692,-123.963,47.119,4.455,0,0,0,
,-0.379,-0.69,0.689,-119.812,38.33,10.864,0,0,0,
,-0.346,-0.677,0.69,-66.895,45.41,-6.348,0,0,0,
,-0.348,-0.711,0.663,-41.993,46.447,-22.644,0,0,0,
,-0.378,-0.779,0.734,-12.33,17.273,-34.668,0,0,0,
,-0.41,-0.717,0.706,-77.881,30.09,-27.039,0,0,0,
,-0.388,-0.683,0.703,-69.519,27.771,-46.143,0,0,0,
,-0.37,-0.664,0.692,-40.162,15.93,-35.584,0,0,0,
,-0.363,-0.658,0.667,-16.663,24.414,-34.729,0,0,0,
,-0.329,-0.67,0.653,-18.616,24.841,-51.087,0,0,0,
,-0.326,-0.678,0.646,-10.376,29.174,-35.157,0,0,0,
,-0.357,-0.704,0.669,11.413,21.606,-29.969,0,0,0,
,-0.358,-0.729,0.689,-19.959,24.169,-44.739,0,0,0,
,-0.364,-0.727,0.69,-93.445,26.184,-37.781,0,0,0,
,-0.367,-0.692,0.68,-109.131,18.798,-23.56,0,0,0,
,-0.356,-0.655,0.673,-85.877,15.014,-20.691,0,0,0,
,-0.351,-0.657,0.666,-38.819,12.939,-29.725,0,0,0,
,-0.356,-0.702,0.68,7.202,14.404,-32.41,0,0,0,
,-0.355,-0.719,0.699,-8.301,11.169,-32.593,0,0,0,
,-0.386,-0.738,0.694,-70.435,17.273,-36.438,0,0,0,
,-0.394,-0.719,0.675,-132.996,26.672,-32.959,0,0,0,
,-0.388,-0.693,0.699,-176.758,29.235,-45.472,0,0,0,
,-0.37,-0.654,0.703,-152.466,25.878,-36.194,0,0,0,
,-0.372,-0.631,0.699,-71.595,21.24,-41.443,0,0,0,
,-0.389,-0.661,0.709,0.854,10.62,-33.631,0,0,0,
,-0.404,-0.673,0.687,4.882,15.319,-34.058,0,0,0,
,-0.402,-0.699,0.675,-43.03,20.935,-48.768,0,0,0,
,-0.397,-0.715,0.68,-129.334,25.695,-63.111,0,0,0,
,-0.404,-0.733,0.708,-246.949,29.907,-78.858,0,0,0,
,-0.373,-0.677,0.728,-345.459,41.381,-78.736,0,0,0,
,-0.358,-0.603,0.732,-311.585,35.339,-82.093,0,0,0,
,-0.373,-0.596,0.74,-184.632,21.911,-74.097,0,0,0,
,-0.378,-0.658,0.75,-156.006,8.178,-88.929,0,0,0,
,-0.365,-0.698,0.734,-249.085,10.986,-93.75,0,0,0,
,-0.336,-0.641,0.725,-362.061,16.662,-93.018,0,0,0,
,-0.338,-0.573,0.744,-372.254,22.522,-87.22,0,0,0,
,-0.359,-0.542,0.753,-246.582,20.385,-77.881,0,0,0,
,-0.364,-0.565,0.757,-142.395,20.935,-81.177,0,0,0,
,-0.346,-0.578,0.752,-119.935,22.522,-90.455,0,0,0,
,-0.337,-0.564,0.771,-121.521,23.071,-74.769,0,0,0,
,-0.349,-0.555,0.791,-137.085,14.953,-55.848,0,0,0,
,-0.355,-0.581,0.797,-181.397,6.469,-57.435,0,0,0,
,-0.337,-0.551,0.783,-220.643,7.812,-42.908,0,0,0,
,-0.369,-0.537,0.774,-158.265,1.464,-36.988,0,0,0,
,-0.387,-0.561,0.78,-95.52,-5.616,-53.101,0,0,0,
,-0.381,-0.577,0.769,-108.582,12.878,-72.022,0,0,0,
,-0.384,-0.554,0.768,-109.559,18.859,-65.247,0,0,0,
,-0.397,-0.535,0.78,-95.704,23.864,-69.397,0,0,0,
,-0.394,-0.537,0.8,-103.211,19.775,-72.449,0,0,0,
,-0.405,-0.565,0.805,-139.1,10.498,-75.806,0,0,0,
,-0.404,-0.552,0.828,-225.708,0.732,-101.502,0,0,0,
,-0.404,-0.526,0.844,-221.619,-7.813,-115.418,0,0,0,
,-0.442,-0.533,0.842,-211.304,-17.151,-131.104,0,0,0,
,-0.455,-0.533,0.85,-242.554,-20.752,-143.128,0,0,0,
,-0.454,-0.502,0.853,-281.556,-24.72,-149.353,0,0,0,
,-0.447,-0.488,0.857,-286.255,-33.143,-154.541,0,0,0,
,-0.452,-0.477,0.873,-284.241,-51.087,-158.143,0,0,0,
,-0.45,-0.447,0.867,-300.782,-49.012,-161.072,0,0,0,
,-0.453,-0.395,0.861,-278.321,-51.514,-150.208,0,0,0,
,-0.469,-0.383,0.842,-203.797,-72.937,-152.161,0,0,0,
,-0.459,-0.386,0.839,-206.36,-67.261,-150.818,0,0,0,
,-0.467,-0.387,0.839,-223.755,-65.918,-124.39,0,0,0,
,-0.469,-0.421,0.825,-221.375,-45.899,-127.259,0,0,0,
,-0.454,-0.435,0.792,-238.404,-24.598,-138.245,0,0,0,
,-0.438,-0.357,0.786,-268.86,23.498,-130.738,0,0,0,
,-0.43,-0.308,0.789,-204.773,31.921,-105.469,0,0,0,
,-0.422,-0.358,0.817,-154.908,22.705,-108.826,0,0,0,
,-0.397,-0.379,0.842,-212.403,45.776,-93.384,0,0,0,
,-0.419,-0.393,0.842,-233.277,54.931,-81.91,0,0,0,
,-0.417,-0.349,0.845,-242.127,79.04,-82.52,0,0,0,
,-0.425,-0.276,0.859,-140.259,78.735,-64.82,0,0,0,
,-0.402,-0.299,0.864,-60.303,73.486,-68.482,0,0,0,
,-0.381,-0.285,0.86,-76.355,83.984,-43.763,0,0,0,
,-0.375,-0.221,0.855,-52.491,101.196,-12.146,0,0,0,
,-0.37,-0.242,0.791,27.038,112.854,18.798,0,0,0,
,-0.387,-0.372,0.759,17.578,148.376,11.901,0,0,0,
,-0.358,-0.411,0.791,-39.734,206.115,9.216,0,0,0,
,-0.331,-0.407,0.906,-15.686,242.004,-16.053,0,0,0,
,-0.304,-0.325,0.903,22.461,252.197,2.441,0,0,0,
,-0.342,-0.353,1.024,68.115,185.73,20.263,0,0,0,
,-0.353,-0.269,0.986,21.911,176.513,69.336,0,0,0,
,-0.389,-0.284,0.94,124.206,120.666,82.824,0,0,0,
,-0.392,-0.421,0.836,147.583,139.038,85.571,0,0,0,
,-0.381,-0.37,0.782,78.43,175.537,84.838,0,0,0,
,-0.381,-0.413,0.792,108.764,186.279,61.523,0,0,0,
,-0.355,-0.435,0.837,-4.334,226.928,39.489,0,0,0,
,-0.344,-0.392,0.922,-26.368,228.759,29.663,0,0,0,
,-0.3,-0.379,0.99,5.981,215.393,17.334,0,0,0,
,-0.269,-0.454,0.967,49.194,183.654,4.028,0,0,0,
,-0.293,-0.454,0.846,-23.804,204.895,1.342,0,0,0,
,-0.222,-0.402,0.819,-53.101,220.214,-8.728,0,0,0,
,-0.239,-0.334,0.853,-36.377,226.074,14.404,0,0,0,
,-0.202,-0.399,1.009,8.972,176.208,20.996,0,0,0,
,-0.219,-0.386,0.962,-3.785,137.451,31.066,0,0,0,
,-0.326,-0.433,0.909,-27.344,117.004,13.061,0,0,0,
,-0.352,-0.365,0.794,-11.231,128.418,2.807,0,0,0,
,-0.351,-0.493,1.055,-38.941,100.708,-33.204,0,0,0,
,-0.299,-0.339,1.08,-72.937,72.448,-26.856,0,0,0,
,-0.283,-0.307,0.942,-6.47,38.269,-26.978,0,0,0,
,-0.252,-0.472,0.815,11.169,26.306,-54.322,0,0,0,
,-0.255,-0.356,0.834,-73.853,72.631,-33.753,0,0,0,
,-0.231,-0.438,0.858,10.253,47.607,-65.491,0,0,0,
,-0.273,-0.423,0.987,-138.184,71.472,-40.284,0,0,0,
,-0.215,-0.329,0.98,-106.385,48.523,-48.157,0,0,0,
,-0.254,-0.282,0.96,-4.09,28.686,-34.18,0,0,0,
,-0.228,-0.31,0.909,37.536,33.996,-1.465,0,0,0,
,-0.25,-0.376,0.891,96.069,25.024,9.399,0,0,0,
,-0.274,-0.488,0.881,27.71,48.828,-0.55,0,0,0,
,-0.299,-0.461,0.899,-89.173,72.998,-20.935,0,0,0,
,-0.321,-0.418,0.943,-125.733,79.773,-44.8,0,0,0,
,-0.293,-0.393,0.928,-102.662,68.664,-57.557,0,0,0,
,-0.236,-0.353,0.866,-100.464,93.444,-55.787,0,0,0,
,-0.266,-0.307,0.982,-76.05,73.73,-36.072,0,0,0,
,-0.229,-0.252,0.851,-55.542,72.998,-1.404,0,0,0,
,-0.249,-0.356,1.032,-21.302,43.823,1.648,0,0,0,
,-0.202,-0.373,1.054,-2.015,-3.113,-6.714,0,0,0,
,-0.082,-0.331,0.963,5.798,-3.479,-9.522,0,0,0,
,0.015,-0.452,0.943,139.404,-36.56,-26.917,0,0,0,
,-0.13,-0.332,0.89,75.317,-26.673,17.7,0,0,0,
,-0.161,-0.373,0.858,128.845,-31.189,-12.452,0,0,0,
,-0.286,-0.412,0.928,76.477,-2.93,11.23,0,0,0,
,-0.242,-0.383,0.83,36.56,10.192,-12.207,0,0,0,
,-0.344,-0.294,0.975,-14.954,50.415,-53.894,0,0,0,
,-0.247,-0.244,0.878,101.562,11.108,-60.975,0,0,0,
,-0.37,-0.33,1.05,96.13,-25.025,-69.947,0,0,0,
,-0.222,-0.356,0.911,112.915,-0.916,-76.722,0,0,0,
,-0.229,-0.38,0.877,-9.949,-14.405,-67.994,0,0,0,
,-0.222,-0.309,0.836,-37.903,60.669,-58.472,0,0,0,
,-0.269,-0.379,0.871,-13.916,28.442,-76.416,0,0,0,
,-0.314,-0.434,0.887,-154.358,66.284,-103.089,0,0,0,
,-0.346,-0.368,0.945,-238.709,89.05,-121.827,0,0,0,
,-0.307,-0.287,1.051,-297.12,82.397,-85.877,0,0,0,
,-0.276,-0.228,1.03,-251.831,16.235,-60.486,0,0,0,
,-0.277,-0.243,0.968,-193.665,-46.448,-7.203,0,0,0,
,-0.278,-0.239,0.945,-139.649,-87.769,61.767,0,0,0,
,-0.27,-0.252,0.869,-125.306,-106.995,86.792,0,0,0,
,-0.252,-0.231,0.876,-203.797,-93.934,130.432,0,0,0,
,-0.25,-0.253,0.919,-251.404,-118.042,157.653,0,0,0,
,-0.222,-0.311,0.989,-285.645,-137.024,175.171,0,0,0,
,-0.145,-0.333,1.206,-216.797,-174.134,156.311,0,0,0,
,-0.161,-0.129,1.051,-91.492,-197.693,210.693,0,0,0,
,-0.204,-0.131,0.941,169.494,-230.652,236.267,0,0,0,
,-0.237,-0.349,0.906,283.447,-242.249,243.042,0,0,0,
,-0.286,-0.483,0.818,213.623,-210.206,214.538,0,0,0,
,-0.332,-0.505,0.79,117.309,-182.618,180.481,0,0,0,
,-0.339,-0.504,0.726,32.714,-154.297,143.371,0,0,0,
,-0.412,-0.489,0.754,-58.655,-131.47,112.06,0,0,0,
,-0.439,-0.44,0.795,-122.559,-115.662,115.112,0,0,0,
,-0.535,-0.47,0.896,12.207,-135.865,77.697,0,0,0,
,-0.488,-0.511,0.882,78.918,-145.081,39.856,0,0,0,
,-0.489,-0.468,0.89,144.714,-165.345,14.526,0,0,0,
,-0.391,-0.5,0.805,187.255,-170.166,-28.809,0,0,0,
,-0.364,-0.533,0.79,106.201,-154.725,-60.181,0,0,0,
,-0.285,-0.48,0.824,-46.57,-107.483,-70.069,0,0,0,
,-0.318,-0.368,0.864,-33.997,-122.498,-38.025,0,0,0,
,-0.336,-0.319,0.907,-14.405,-117.31,-26.49,0,0,0,
,-0.319,-0.326,0.938,42.663,-128.174,-19.227,0,0,0,
,-0.325,-0.306,0.901,91.796,-129.456,7.202,0,0,0,
,-0.328,-0.344,0.867,143.982,-124.207,14.648,0,0,0,
,-0.409,-0.413,0.872,192.321,-137.879,8.422,0,0,0,
,-0.455,-0.523,0.929,78.552,-116.7,-35.462,0,0,0,
,-0.449,-0.505,0.945,-45.655,-106.751,-32.349,0,0,0,
,-0.428,-0.4,0.932,-57.129,-110.84,-38.025,0,0,0,
,-0.371,-0.349,0.909,20.019,-129.029,-38.575,0,0,0,
,-0.345,-0.358,0.881,111.938,-148.682,-28.626,0,0,0,
,-0.331,-0.442,0.86,178.772,-163.941,-34.241,0,0,0,
,-0.355,-0.542,0.854,148.193,-170.594,-68.848,0,0,0,
,-0.395,-0.56,0.858,65.673,-147.4,-94.666,0,0,0,
,-0.406,-0.496,0.815,0.122,-100.708,-105.835,0,0,0,
,-0.387,-0.431,0.754,49.072,-91.98,-105.652,0,0,0,
,-0.423,-0.476,0.789,149.353,-112.793,-134.888,0,0,0,
,-0.484,-0.497,0.812,158.325,-101.502,-139.527,0,0,0,
,-0.505,-0.453,0.776,148.498,-69.031,-140.503,0,0,0,
,-0.499,-0.397,0.747,185.18,-39.063,-143.311,0,0,0,
,-0.476,-0.318,0.728,272.888,-11.292,-124.756,0,0,0,
,-0.453,-0.277,0.711,464.111,9.46,-90.699,0,0,0,
,-0.454,-0.285,0.677,727.05,3.723,-46.753,0,0,0,
,-0.47,-0.337,0.635,959.167,-10.315,-7.386,0,0,0,
,-0.532,-0.447,0.629,1106.872,-20.081,6.286,0,0,0,
,-0.566,-0.547,0.599,1107.238,14.099,0.976,0,0,0,
,-0.594,-0.681,0.587,926.941,24.475,-26.001,0,0,0,
,-0.571,-0.751,0.613,627.563,96.191,-39.002,0,0,0,
,-0.506,-0.759,0.652,236.45,131.958,-39.795,0,0,0,
,-0.413,-0.702,0.714,-97.29,160.583,3.662,0,0,0,
,-0.409,-0.636,0.782,-140.748,158.325,27.71,0,0,0,
,-0.414,-0.614,0.857,22.277,131.164,23.071,0,0,0,
,-0.395,-0.677,0.88,242.492,81.543,39.245,0,0,0,
,-0.404,-0.743,0.807,420.227,67.749,32.898,0,0,0,
,-0.468,-0.828,0.705,331.237,83.679,6.164,0,0,0,
,-0.472,-0.835,0.697,77.087,114.99,-30.091,0,0,0,
,-0.423,-0.714,0.682,-137.513,164.428,-57.801,0,0,0,
,-0.418,-0.635,0.688,-126.221,146.606,-59.021,0,0,0,
,-0.447,-0.644,0.719,-28.87,104.858,-62.012,0,0,0,
,-0.455,-0.726,0.724,-61.768,69.336,-88.257,0,0,0,
,-0.421,-0.71,0.714,-216.614,57.434,-91.309,0,0,0,
,-0.405,-0.612,0.716,-323.426,42.907,-67.872,0,0,0,
,-0.399,-0.509,0.68,-274.72,37.658,-45.166,0,0,0,
,-0.39,-0.52,0.679,-96.924,11.047,-27.344,0,0,0,
,-0.42,-0.641,0.688,8.85,14.526,-19.654,0,0,0,
,-0.445,-0.757,0.731,-99.366,20.507,-41.321,0,0,0,
,-0.437,-0.722,0.74,-276.673,49.499,-42.237,0,0,0,
,-0.421,-0.631,0.706,-316.468,60.974,-42.786,0,0,0,
,-0.386,-0.579,0.705,-257.386,67.26,-58.472,0,0,0,
,-0.357,-0.549,0.689,-178.589,92.041,-72.449,0,0,0,
,-0.368,-0.569,0.709,-6.409,77.453,-48.34,0,0,0,
,-0.432,-0.736,0.755,79.773,59.692,-73.304,0,0,0,
,-0.465,-0.817,0.787,-94.91,69.519,-131.287,0,0,0,
,-0.398,-0.665,0.75,-334.839,94.238,-124.451,0,0,0,
,-0.38,-0.472,0.716,-311.768,76.416,-92.713,0,0,0,
,-0.393,-0.467,0.711,-173.768,49.499,-81.238,0,0,0,
,-0.384,-0.52,0.717,-91.675,23.559,-71.289,0,0,0,
,-0.372,-0.576,0.753,-88.318,17.15,-73.731,0,0,0,
,-0.374,-0.621,0.788,-153.504,18.127,-73.731,0,0,0,
,-0.382,-0.581,0.796,-220.765,30.761,-59.327,0,0,0,
,-0.375,-0.497,0.777,-186.585,34.362,-42.42,0,0,0,
,-0.365,-0.447,0.764,-81.177,35.4,-26.246,0,0,0,
,-0.361,-0.464,0.737,36.01,30.578,-13.855,0,0,0,
,-0.388,-0.587,0.781,107.788,7.08,-3.54,0,0,0,
,-0.405,-0.653,0.815,-8.973,16.357,-8.301,0,0,0,
,-0.405,-0.602,0.804,-135.315,33.569,5.31,0,0,0,
,-0.416,-0.518,0.787,-91.065,22.583,15.808,0,0,0,
,-0.407,-0.516,0.76,18.066,3.845,7.141,0,0,0,
,-0.403,-0.551,0.733,62.805,7.629,0.61,0,0,0,
,-0.411,-0.595,0.722,49.926,16.113,-9.583,0,0,0,
,-0.439,-0.633,0.762,-18.738,27.771,-28.077,0,0,0,
,-0.442,-0.587,0.79,-102.662,44.616,-31.373,0,0,0,
,-0.463,-0.528,0.79,-74.585,33.752,-14.649,0,0,0,
,-0.455,-0.527,0.768,12.39,19.226,-26.49,0,0,0,
,-0.42,-0.547,0.738,47.058,19.958,-35.34,0,0,0,
,-0.417,-0.57,0.715,46.325,26.001,-38.025,0,0,0,
,-0.448,-0.611,0.74,9.216,35.583,-54.566,0,0,0,
,-0.453,-0.613,0.794,-84.839,57.861,-81.36,0,0,0,
,-0.426,-0.557,0.807,-130.433,58.837,-89.844,0,0,0,
,-0.423,-0.502,0.784,-52.613,44.006,-83.13,0,0,0,
,-0.413,-0.511,0.778,33.691,22.522,-85.816,0,0,0,
,-0.391,-0.533,0.748,57.617,23.925,-89.539,0,0,0,
,-0.391,-0.558,0.718,65.246,36.804,-76.355,0,0,0,
,-0.4,-0.62,0.737,33.264,39.184,-89.112,0,0,0,
,-0.424,-0.665,0.776,-100.708,59.814,-102.234,0,0,0,
,-0.426,-0.596,0.781,-248.169,82.885,-101.685,0,0,0,
,-0.419,-0.481,0.798,-225.708,75.622,-89.051,0,0,0,
,-0.388,-0.467,0.737,-122.62,53.588,-82.886,0,0,0,
,-0.391,-0.561,0.846,-85.633,7.873,-83.374,0,0,0,
,-0.403,-0.55,0.861,-140.015,4.272,-54.017,0,0,0,
,-0.403,-0.537,0.815,-153.321,-0.733,-59.937,0,0,0,
,-0.426,-0.56,0.805,-140.076,-14.649,-72.632,0,0,0,
,-0.448,-0.576,0.797,-207.886,-1.038,-95.948,0,0,0,
,-0.417,-0.501,0.784,-283.57,31.066,-104.981,0,0,0,
,-0.401,-0.422,0.807,-226.258,32.836,-89.356,0,0,0,
,-0.431,-0.445,0.833,-85.511,1.22,-73.67,0,0,0,
,-0.407,-0.512,0.825,-78.37,-4.639,-77.271,0,0,0,
,-0.395,-0.494,0.814,-147.828,0.061,-65.125,0,0,0,
,-0.394,-0.424,0.797,-134.644,7.324,-53.467,0,0,0,
,-0.379,-0.424,0.784,-55.115,6.591,-48.401,0,0,0,
,-0.392,-0.496,0.764,-24.231,11.108,-55.97,0,0,0,
,-0.389,-0.552,0.84,-161.072,28.381,-80.384,0,0,0,
,-0.408,-0.447,0.845,-288.392,59.143,-49.256,0,0,0,
,-0.405,-0.336,0.847,-194.153,51.574,-21.119,0,0,0,
,-0.371,-0.381,0.821,-33.936,24.231,-6.897,0,0,0,
,-0.383,-0.48,0.821,-5.066,8.3,6.042,0,0,0,
,-0.429,-0.519,0.85,-125.245,21.057,-3.479,0,0,0,
,-0.432,-0.441,0.859,-218.995,37.536,-0.794,0,0,0,
,-0.443,-0.342,0.847,-127.442,29.541,10.62,0,0,0,
,-0.419,-0.321,0.804,78.674,20.385,12.695,0,0,0,
,-0.422,-0.358,0.79,288.757,12.634,34.362,0,0,0,
,-0.447,-0.459,0.753,356.079,18.31,34.118,0,0,0,
,-0.453,-0.59,0.666,245.056,38.33,10.253,0,0,0,
,-0.407,-0.7,0.884,-138.245,52.856,-62.256,0,0,0,
,-0.444,-0.503,0.922,-335.022,90.332,-1.526,0,0,0,
,-0.443,-0.392,0.864,-95.765,36.865,-42.481,0,0,0,
,-0.428,-0.505,0.872,76.904,-16.419,-79.102,0,0,0,
,-0.442,-0.512,0.849,-23.56,4.577,-82.337,0,0,0,
,-0.438,-0.413,0.811,-101.014,24.658,-76.233,0,0,0,
,-0.441,-0.38,0.824,-50.721,22.094,-74.158,0,0,0,
,-0.436,-0.439,0.853,-25.94,15.686,-79.407,0,0,0,
,-0.442,-0.49,0.891,-45.777,5.432,-79.163,0,0,0,
,-0.454,-0.532,0.917,-105.652,-16.541,-100.037,0,0,0,
,-0.48,-0.527,0.922,-183.167,-39.429,-119.996,0,0,0,
,-0.5,-0.488,0.912,-269.288,-47.12,-131.653,0,0,0,
,-0.508,-0.402,0.862,-272.767,-67.261,-140.686,0,0,0,
,-0.527,-0.381,0.87,-243.226,-86.426,-120.118,0,0,0,
,-0.528,-0.375,0.866,-240.662,-94.361,-143.067,0,0,0,
,-0.483,-0.386,0.834,-261.353,-89.478,-154.297,0,0,0,
,-0.472,-0.38,0.81,-262.879,-76.111,-145.447,0,0,0,
,-0.477,-0.383,0.785,-222.962,-64.27,-148.865,0,0,0,
,-0.439,-0.37,0.765,-252.93,-21.668,-153.138,0,0,0,
,-0.398,-0.287,0.77,-247.437,26.428,-110.779,0,0,0,
,-0.379,-0.315,0.818,-162.537,12.451,-82.215,0,0,0,
,-0.381,-0.388,0.849,-141.175,14.77,-53.04,0,0,0,
,-0.427,-0.428,0.854,-193.482,29.968,-47.547,0,0,0,
,-0.441,-0.291,0.845,-220.765,78.796,-23.072,0,0,0,
,-0.467,-0.194,0.832,-60.181,67.504,-3.602,0,0,0,
,-0.448,-0.282,0.83,0,87.707,-9.705,0,0,0,
,-0.398,-0.346,0.808,-41.993,136.352,5.981,0,0,0,
,-0.395,-0.375,0.903,-166.504,233.642,27.038,0,0,0,
,-0.408,-0.35,0.893,-82.642,219.36,31.738,0,0,0,
,-0.433,-0.399,0.827,-106.69,234.497,0.671,0,0,0,
,-0.429,-0.309,0.776,-199.402,295.837,-18.372,0,0,0,
,-0.371,-0.245,0.831,-190.125,332.397,-32.593,0,0,0,
,-0.312,-0.198,0.969,-27.771,282.104,20.324,0,0,0,
,-0.359,-0.341,0.89,27.404,269.409,-0.611,0,0,0,
,-0.35,-0.243,0.904,-33.509,312.317,-12.757,0,0,0,
,-0.326,-0.221,0.975,38.086,296.142,-22.95,0,0,0,
,-0.277,-0.22,1.085,19.958,255.92,29.052,0,0,0,
,-0.292,-0.181,1.089,137.573,171.814,78.369,0,0,0,
,-0.271,-0.216,0.978,256.713,121.46,105.59,0,0,0,
,-0.326,-0.408,0.799,298.95,95.398,82.519,0,0,0,
,-0.304,-0.579,0.655,115.356,174.316,10.131,0,0,0,
,-0.294,-0.529,0.742,-100.22,263.794,-57.19,0,0,0,
,-0.219,-0.328,0.915,-156.556,282.104,-45.35,0,0,0,
,-0.347,-0.281,1.142,49.621,123.718,91.308,0,0,0,
,-0.392,-0.137,0.885,179.687,53.955,64.819,0,0,0,
,-0.227,-0.424,0.929,189.392,65.246,12.023,0,0,0,
,-0.21,-0.433,0.91,90.393,114.746,24.963,0,0,0,
,-0.2,-0.344,0.91,86.669,123.596,17.395,0,0,0,
,-0.252,-0.305,0.922,-2.503,153.32,-17.212,0,0,0,
,-0.27,-0.308,0.939,43.029,142.456,-37.842,0,0,0,
,-0.171,-0.326,0.926,16.662,179.626,-51.758,0,0,0,
,-0.174,-0.373,0.947,21.606,178.222,-57.557,0,0,0,
,-0.187,-0.359,0.997,-2.991,208.313,-52.613,0,0,0,
,-0.224,-0.262,0.958,52.063,206.848,-41.26,0,0,0,
,-0.192,-0.321,0.999,106.018,201.11,-35.157,0,0,0,
,-0.174,-0.329,0.963,130.127,184.021,-14.344,0,0,0,
,-0.095,-0.433,0.894,112.976,187.439,-30.518,0,0,0,
,0.022,-0.608,0.683,71.35,210.205,-81.177,0,0,0,
,-0.216,-0.343,1.011,-49.195,165.649,-55.542,0,0,0,
,-0.207,-0.3,0.99,5.004,107.788,-43.702,0,0,0,
,-0.137,-0.332,0.968,104.98,54.321,-17.151,0,0,0,
,-0.053,-0.522,0.909,112.487,14.831,-33.448,0,0,0,
,-0.024,-0.513,0.875,-7.996,28.503,-12.146,0,0,0,
,-0.089,-0.48,0.943,18.432,34.851,-47.242,0,0,0,
,-0.086,-0.402,0.925,130.31,24.169,-23.621,0,0,0,
,-0.101,-0.453,0.908,161.255,34.301,-27.527,0,0,0,
,-0.123,-0.476,0.991,46.386,2.502,-46.021,0,0,0,
,-0.129,-0.487,0.835,-56.397,55.481,-61.097,0,0,0,
,-0.145,-0.471,0.852,-77.454,57.067,-54.017,0,0,0,
,-0.212,-0.248,0.932,-13.977,65.795,-16.48,0,0,0,
,-0.167,-0.438,0.777,2.929,23.681,-8.118,0,0,0,
,-0.151,-0.498,0.767,-82.581,52.246,-56.458,0,0,0,
,-0.156,-0.464,0.927,-133.789,85.693,-62.561,0,0,0,
,-0.144,-0.42,0.996,-92.652,54.504,-70.13,0,0,0,
,-0.1,-0.384,0.992,-99.854,48.889,-71.228,0,0,0,
,-0.187,-0.272,0.942,-23.621,9.765,-33.692,0,0,0,
,-0.181,-0.412,1.006,-0.794,-34.729,-58.35,0,0,0,
,-0.145,-0.465,0.93,-94.727,18.859,-73.06,0,0,0,
,-0.15,-0.383,0.924,-88.013,41.381,-74.952,0,0,0,
,-0.159,-0.415,1.029,-119.935,35.217,-92.041,0,0,0,
,-0.037,-0.423,1.047,-121.033,44.555,-120.301,0,0,0,
,-0.111,-0.354,1.058,-52.796,24.169,-109.436,0,0,0,
,-0.071,-0.293,1.019,-24.781,1.342,-94.727,0,0,0,
,-0.087,-0.321,1.038,72.937,-10.132,-90.21,0,0,0,
,-0.083,-0.402,1.026,66.894,-41.687,-86.914,0,0,0,
,-0.058,-0.38,1.033,91.919,-35.157,-87.281,0,0,0,
,-0.046,-0.438,1.021,127.319,-28.382,-104.248,0,0,0,
,-0.135,-0.245,0.827,44.982,-19.898,3.479,0,0,0,
,-0.147,-0.345,0.831,-19.715,-37.598,27.771,0,0,0,
,-0.173,-0.399,0.874,-163.453,-41.443,39.489,0,0,0,
,-0.163,-0.365,0.912,-318.482,-40.528,50.048,0,0,0,
,-0.192,-0.201,0.958,-413.208,-35.401,69.702,0,0,0,
,-0.237,-0.041,0.925,-260.804,-59.51,126.709,0,0,0,
,-0.261,-0.087,0.833,70.556,-94.3,149.536,0,0,0,
,-0.282,-0.208,0.758,284.79,-111.451,177.124,0,0,0,
,-0.37,-0.373,0.756,329.834,-116.578,179.016,0,0,0,
,-0.358,-0.507,0.788,217.224,-118.164,113.586,0,0,0,
,-0.223,-0.502,0.876,2.319,-101.38,83.923,0,0,0,
,-0.184,-0.523,0.886,280.029,-258.484,92.102,0,0,0,
,-0.18,-0.69,1,264.709,-336.731,14.77,0,0,0,
,-0.244,-0.679,1.031,104.248,-327.698,66.406,0,0,0,
,-0.178,-0.422,0.945,-73.06,-317.933,164.001,0,0,0,
,-0.261,-0.183,0.825,62.622,-348.206,265.258,0,0,0,
,-0.26,-0.159,0.757,354.492,-344.971,256.469,0,0,0,
,-0.136,-0.256,0.883,680.175,-368.714,242.859,0,0,0,
,-0.061,-0.504,0.896,967.346,-398.499,184.875,0,0,0,
,-0.141,-0.825,1.001,1306.823,-509.278,124.328,0,0,0,
,-0.339,-0.956,1.084,1301.635,-556.519,104.187,0,0,0,
,-0.281,-0.633,0.884,960.571,-472.901,181.762,0,0,0,
,-0.288,-0.281,0.655,1026.062,-430.909,244.69,0,0,0,
,-0.335,-0.309,0.481,1466.247,-435.547,201.538,0,0,0,
,-0.321,-0.602,0.403,1652.16,-402.955,65.795,0,0,0,
,-0.29,-0.973,0.404,1291.809,-339.844,-44.861,0,0,0,
,-0.355,-1.316,0.52,593.505,-286.683,-115.54,0,0,0,
,-0.361,-1.263,0.574,-156.311,-143.982,-64.759,0,0,0,
,-0.304,-0.929,0.536,-693.726,-65.003,-39.185,0,0,0,
,-0.33,-0.692,0.526,-660.523,-45.594,-45.411,0,0,0,
,-0.335,-0.596,0.521,-435.73,23.132,-83.68,0,0,0,
,-0.261,-0.652,0.469,-166.932,64.27,-137.635,0,0,0,
,-0.273,-0.736,0.49,117.492,68.42,-128.846,0,0,0,
,-0.376,-0.906,0.582,281.128,63.232,-160.584,0,0,0,
,-0.463,-1.081,0.554,143.127,105.468,-217.347,0,0,0,
,-0.429,-1.034,0.512,-252.503,139.77,-242.92,0,0,0,
,-0.378,-0.79,0.501,-570.496,164.978,-220.581,0,0,0,
,-0.374,-0.621,0.503,-547.669,174.682,-218.811,0,0,0,
,-0.367,-0.551,0.498,-289.185,154.968,-227.417,0,0,0,
,-0.366,-0.621,0.578,24.78,102.356,-256.287,0,0,0,
,-0.408,-0.778,0.586,133.239,95.398,-283.081,0,0,0,
,-0.433,-0.888,0.642,-82.642,100.28,-306.946,0,0,0,
,-0.438,-0.782,0.664,-394.654,123.108,-269.654,0,0,0,
,-0.427,-0.602,0.662,-518.433,141.54,-257.691,0,0,0,
,-0.387,-0.465,0.697,-416.993,120.544,-257.325,0,0,0,
,-0.371,-0.432,0.717,-157.288,74.768,-217.896,0,0,0,
,-0.408,-0.534,0.759,104.004,16.113,-175.782,0,0,0,
,-0.45,-0.699,0.773,78.369,9.521,-176.758,0,0,0,
,-0.434,-0.719,0.786,-142.884,28.503,-155.091,0,0,0,
,-0.425,-0.631,0.759,-248.597,67.688,-119.263,0,0,0,
,-0.401,-0.55,0.732,-221.68,94.055,-101.746,0,0,0,
,-0.34,-0.551,0.707,-163.697,116.516,-135.254,0,0,0,
,-0.329,-0.593,0.767,-134.034,131.897,-128.113,0,0,0,
,-0.381,-0.648,0.84,-148.499,130.615,-106.141,0,0,0,
,-0.402,-0.685,0.865,-221.07,125.976,-105.774,0,0,0,
,-0.371,-0.638,0.869,-291.932,106.14,-85.816,0,0,0,
,-0.37,-0.576,0.822,-281.25,88.317,-57.679,0,0,0,
,-0.383,-0.559,0.776,-197.022,70.983,-31.8,0,0,0,
,-0.382,-0.6,0.755,-166.443,69.519,-45.227,0,0,0,
,-0.376,-0.677,0.801,-269.837,75.927,-68.909,0,0,0,
,-0.386,-0.667,0.875,-385.682,70.495,-66.956,0,0,0,
,-0.387,-0.624,0.87,-432.984,46.02,-73.609,0,0,0,
,-0.343,-0.527,0.833,-456.543,27.648,-58.045,0,0,0,
,-0.252,-0.336,0.775,-398.865,51.086,-42.664,0,0,0,
,-0.286,-0.325,0.748,-106.69,29.602,-17.395,0,0,0,
,-0.349,-0.516,0.804,225.586,-31.922,13,0,0,0,
,-0.42,-0.743,0.872,164.367,-26.001,-41.626,0,0,0,
,-0.412,-0.784,0.889,-190.918,23.071,-90.882,0,0,0,
,-0.362,-0.543,0.824,-439.759,58.227,-76.233,0,0,0,
,-0.365,-0.378,0.793,-349.976,31.311,-57.618,0,0,0,
,-0.371,-0.381,0.786,-153.87,2.99,-53.467,0,0,0,
,-0.375,-0.474,0.789,-55.237,-10.621,-41.321,0,0,0,
,-0.415,-0.576,0.836,-107.483,-9.217,-44.739,0,0,0,
,-0.438,-0.605,0.884,-238.221,0.122,-63.477,0,0,0,
,-0.386,-0.505,0.85,-349.488,12.329,-66.895,0,0,0,
,-0.345,-0.402,0.812,-291.565,2.929,-42.481,0,0,0,
,-0.382,-0.373,0.779,-171.387,2.197,-34.974,0,0,0,
,-0.39,-0.417,0.778,-71.717,2.197,-30.152,0,0,0,
,-0.433,-0.486,0.803,-16.419,3.601,-30.335,0,0,0,
,-0.458,-0.515,0.843,-85.328,29.907,-49.683,0,0,0,
,-0.431,-0.414,0.826,-138.001,53.466,-37.171,0,0,0,
,-0.422,-0.36,0.788,-33.081,33.569,-12.635,0,0,0,
,-0.401,-0.393,0.78,31.066,25.512,-13.794,0,0,0,
,-0.376,-0.417,0.773,-2.442,42.48,-7.508,0,0,0,
,-0.394,-0.422,0.809,-4.09,48.523,7.507,0,0,0,
,-0.412,-0.5,0.873,18.188,47.485,-2.076,0,0,0,
,-0.404,-0.508,0.9,-3.357,48.767,-17.273,0,0,0,
,-0.394,-0.474,0.86,-5.982,50.109,-21.424,0,0,0,
,-0.384,-0.455,0.811,23.132,52.246,-24.292,0,0,0,
,-0.373,-0.45,0.798,38.452,68.603,-26.673,0,0,0,
,-0.36,-0.444,0.799,39.978,80.444,-32.654,0,0,0,
,-0.374,-0.5,0.846,64.086,61.828,-34.485,0,0,0,
,-0.393,-0.561,0.895,-3.052,64.453,-52.918,0,0,0,
,-0.39,-0.494,0.878,-105.408,75.744,-48.645,0,0,0,
,-0.381,-0.391,0.833,-77.881,70.007,-43.58,0,0,0,
,-0.395,-0.432,0.838,25.756,39.917,-46.265,0,0,0,
,-0.378,-0.456,0.845,19.348,52.368,-46.936,0,0,0,
,-0.362,-0.418,0.815,11.169,65.918,-25.391,0,0,0,
,-0.36,-0.459,0.827,66.711,46.569,-34.058,0,0,0,
,-0.349,-0.455,0.822,36.315,59.021,-21.485,0,0,0,
,-0.377,-0.481,0.811,21.667,52.734,-18.921,0,0,0,
,-0.343,-0.544,0.905,-84.961,47.485,-54.932,0,0,0,
,-0.335,-0.493,0.901,-187.745,52.429,-32.105,0,0,0,
,-0.354,-0.421,0.888,-141.358,33.813,-30.396,0,0,0,
,-0.361,-0.447,0.883,-20.447,5.249,-39.978,0,0,0,
,-0.365,-0.495,0.889,14.038,-5.005,-50.782,0,0,0,
,-0.4,-0.506,0.881,-20.874,-2.808,-59.082,0,0,0,
,-0.384,-0.482,0.876,-109.07,5.92,-69.031,0,0,0,
,-0.369,-0.415,0.88,-127.93,9.155,-62.5,0,0,0,
,-0.355,-0.395,0.873,-73.609,-8.118,-55.054,0,0,0,
,-0.353,-0.429,0.868,-14.954,-27.771,-51.453,0,0,0,
,-0.356,-0.46,0.868,-32.105,-33.02,-61.341,0,0,0,
,-0.365,-0.447,0.861,-76.477,-22.95,-67.444,0,0,0,
,-0.376,-0.429,0.852,-88.013,-15.198,-74.585,0,0,0,
,-0.379,-0.438,0.867,-72.571,-20.569,-84.961,0,0,0,
,-0.38,-0.448,0.875,-94.544,-18.738,-89.6,0,0,0,
,-0.383,-0.416,0.868,-125,-16.114,-79.773,0,0,0,
,-0.402,-0.402,0.872,-99.244,-31.189,-74.769,0,0,0,
,-0.411,-0.42,0.865,-64.454,-39.063,-79.529,0,0,0,
,-0.396,-0.443,0.863,-89.051,-43.335,-86.304,0,0,0,
,-0.405,-0.427,0.879,-102.539,-40.955,-84.29,0,0,0,
,-0.379,-0.409,0.889,-102.295,-39.49,-87.098,0,0,0,
,-0.376,-0.402,0.861,-95.032,-45.838,-77.454,0,0,0,
,-0.382,-0.398,0.858,-101.38,-41.016,-73.609,0,0,0,
,-0.384,-0.396,0.836,-99.671,-31.556,-85.144,0,0,0,
,-0.376,-0.366,0.814,-123.902,-11.597,-77.149,0,0,0,
,-0.388,-0.344,0.83,-80.75,-8.789,-60.852,0,0,0,
,-0.381,-0.356,0.84,-39.551,-9.644,-56.153,0,0,0,
,-0.385,-0.394,0.854,-38.025,-1.831,-53.833,0,0,0,
,-0.407,-0.421,0.87,-59.51,0.793,-60.181,0,0,0,
,-0.403,-0.435,0.867,-118.226,10.437,-70.557,0,0,0,
,-0.416,-0.396,0.871,-154.236,12.023,-68.665,0,0,0,
,-0.405,-0.357,0.884,-133.179,12.146,-64.393,0,0,0,
,-0.408,-0.33,0.867,-68.665,4.333,-42.969,0,0,0,
,-0.395,-0.325,0.84,-17.579,-4.334,-24.353,0,0,0,
,-0.417,-0.378,0.89,35.461,-18.433,-25.574,0,0,0,
,-0.384,-0.401,0.893,-32.532,-15.809,-29.297,0,0,0,
,-0.411,-0.316,0.903,-46.998,-17.456,-2.137,0,0,0,
,-0.407,-0.354,0.868,16.723,-31.739,-7.935,0,0,0,
,-0.399,-0.408,0.831,35.583,-24.476,-15.137,0,0,0,
,-0.385,-0.407,0.793,-15.748,14.16,-22.156,0,0,0,
,-0.383,-0.37,0.794,-45.777,38.818,-24.781,0,0,0,
,-0.41,-0.388,0.843,-57.312,56.884,-37.354,0,0,0,
,-0.432,-0.354,0.932,-136.963,49.987,-44.739,0,0,0,
,-0.457,-0.317,0.959,-104.676,34.729,-47.974,0,0,0,
,-0.446,-0.298,0.943,-44.8,6.225,-39.856,0,0,0,
,-0.431,-0.286,0.898,18.432,-3.907,-15.076,0,0,0,
,-0.413,-0.333,0.878,73.303,-16.968,0.366,0,0,0,
,-0.407,-0.418,0.87,40.039,-9.583,-5.86,0,0,0,
,-0.416,-0.452,0.886,-68.482,10.07,-15.32,0,0,0,
,-0.413,-0.456,0.856,-169.007,46.264,-20.203,0,0,0,
,-0.418,-0.409,0.844,-261.475,76.599,-10.926,0,0,0,
,-0.362,-0.34,0.838,-258.789,109.619,36.193,0,0,0,
,-0.353,-0.281,0.865,-184.754,122.558,84.472,0,0,0,
,-0.386,-0.259,0.933,-102.906,137.207,90.087,0,0,0,
,-0.402,-0.313,0.961,-72.083,131.164,65.856,0,0,0,
,-0.443,-0.349,0.973,-103.821,139.465,28.747,0,0,0,
,-0.473,-0.355,0.881,-122.925,158.935,-15.625,0,0,0,
,-0.448,-0.283,0.815,-159.79,194.03,-33.143,0,0,0,
,-0.421,-0.23,0.845,-98.572,195.739,-2.442,0,0,0,
,-0.342,-0.309,0.921,-36.805,180.053,18.554,0,0,0,
,-0.365,-0.405,0.995,-23.499,146.057,18.188,0,0,0,
,-0.37,-0.421,1.005,-144.532,151.794,-21.912,0,0,0,
,-0.404,-0.343,0.949,-216.614,159.546,-69.581,0,0,0,
,-0.396,-0.239,0.893,-198.243,178.283,-87.769,0,0,0,
,-0.354,-0.167,0.892,-109.436,181.701,-67.322,0,0,0,
,-0.31,-0.227,0.945,-5.188,148.559,-24.72,0,0,0,
,-0.262,-0.349,0.982,-13.184,124.817,-19.471,0,0,0,
,-0.28,-0.356,0.95,-59.754,115.478,-30.03,0,0,0,
,-0.296,-0.346,0.872,-61.219,107.544,-56.031,0,0,0,
,-0.253,-0.125,0.856,8.85,144.836,-15.503,0,0,0,
,-0.21,-0.189,0.959,134.399,117.92,18.798,0,0,0,
,-0.253,-0.292,1.051,166.015,81.42,59.082,0,0,0,
,-0.266,-0.343,1.047,125.244,57.556,64.941,0,0,0,
,-0.345,-0.366,0.954,141.174,27.893,48.4,0,0,0,
,-0.344,-0.365,0.911,45.471,46.569,16.662,0,0,0,
,-0.346,-0.292,0.846,63.171,54.138,4.882,0,0,0,
,-0.304,-0.39,0.838,42.114,71.594,-22.156,0,0,0,
,-0.262,-0.367,0.861,-59.876,110.473,-6.653,0,0,0,
,-0.293,-0.378,0.927,-57.19,101.074,-25.513,0,0,0,
,-0.292,-0.392,0.941,-129.334,120.849,-60.73,0,0,0,
,-0.332,-0.324,0.891,-187.684,154.48,-112.61,0,0,0,
,-0.32,-0.201,0.838,-156.983,199.829,-126.099,0,0,0,
,-0.289,-0.215,0.88,-98.999,233.154,-118.531,0,0,0,
,-0.206,-0.302,0.925,-65.369,236.938,-102.417,0,0,0,
,-0.133,-0.34,0.962,-139.527,269.775,-102.906,0,0,0,
,-0.173,-0.283,0.991,-118.592,254.15,-104.981,0,0,0,
,-0.196,-0.298,1.035,-153.748,245.788,-137.024,0,0,0,
,-0.249,-0.142,1.038,-151.49,247.131,-119.141,0,0,0,
,-0.273,-0.134,1.027,-0.184,197.143,-106.08,0,0,0,
,-0.228,-0.186,1.035,59.021,193.664,-63.904,0,0,0,
,-0.184,-0.229,1.114,199.34,119.995,-16.846,0,0,0,
,-0.213,-0.342,1.06,213.928,119.629,6.591,0,0,0,
,-0.218,-0.402,1.064,220.947,48.034,7.568,0,0,0,
,-0.258,-0.264,0.92,149.902,89.05,-8.301,0,0,0,
,-0.256,-0.242,0.877,188.659,109.008,-29.725,0,0,0,
,-0.194,-0.377,0.951,193.481,122.68,-53.406,0,0,0,
,-0.205,-0.38,1.002,100.463,152.649,-67.078,0,0,0,
,-0.203,-0.333,1.005,79.345,143.188,-80.811,0,0,0,
,-0.216,-0.2,0.889,111.084,148.986,-54.993,0,0,0,
,-0.207,-0.289,0.8,202.758,141.296,-69.275,0,0,0,
,-0.134,-0.401,0.837,132.324,177.978,-75.013,0,0,0,
,-0.055,-0.37,0.924,77.392,193.359,-56.153,0,0,0,
,-0.093,-0.405,0.992,57.495,159.362,-39.063,0,0,0,
,-0.096,-0.431,0.943,168.945,138.61,-42.176,0,0,0,
,-0.181,-0.348,0.824,84.961,200.378,10.803,0,0,0,
,-0.212,-0.402,0.911,102.295,175.781,-41.443,0,0,0,
,-0.175,-0.539,0.967,-36.744,183.044,-72.754,0,0,0,
,-0.212,-0.466,0.911,-104.676,182.983,-100.892,0,0,0,
,-0.196,-0.35,0.819,-138.733,202.026,-122.193,0,0,0,
,-0.148,-0.383,1.026,-109.681,171.63,-152.527,0,0,0,
,-0.105,-0.383,1.128,-143.006,150.512,-85.877,0,0,0,
,-0.12,-0.188,1.054,-68.421,105.407,-30.274,0,0,0,
,-0.047,-0.319,0.971,69.091,56.396,-45.777,0,0,0,
,0.01,-0.381,0.911,46.752,103.82,-57.923,0,0,0,
,0.043,-0.393,0.978,13.671,139.526,-39.673,0,0,0,
,0.052,-0.461,0.945,52.734,116.211,-92.041,0,0,0,
,-0.086,-0.408,0.934,-144.593,129.394,-63.355,0,0,0,
,-0.148,-0.245,0.976,-101.38,131.164,-85.328,0,0,0,
,-0.158,-0.374,1.018,-1.77,116.577,-93.323,0,0,0,
,-0.039,-0.41,0.936,-41.626,134.033,-71.289,0,0,0,
,0.031,-0.343,0.936,-79.041,157.165,-54.993,0,0,0,
,0.092,-0.245,1.002,-18.433,149.841,-30.884,0,0,0,
,0.051,-0.236,1.093,92.956,106.811,-22.095,0,0,0,
,0.027,-0.286,1.151,65.918,76.843,-20.203,0,0,0,
,-0.071,-0.344,0.982,170.41,48.461,-12.024,0,0,0,
,-0.068,-0.487,0.972,196.899,56.03,-54.932,0,0,0,
,-0.094,-0.522,0.922,157.043,68.908,-29.236,0,0,0,
,-0.025,-0.535,0.803,116.027,74.035,-46.021,0,0,0,
,-0.063,-0.488,0.86,182.556,104.126,-50.232,0,0,0,
,-0.045,-0.548,0.879,209.167,43.212,-42.969,0,0,0,
,-0.08,-0.323,0.847,85.693,69.213,-36.194,0,0,0,
,-0.072,-0.095,0.727,119.384,36.621,66.223,0,0,0,
,-0.058,-0.258,0.769,273.62,-30.396,66.528,0,0,0,
,-0.162,-0.535,0.912,342.651,-109.925,62.377,0,0,0,
,-0.07,-0.743,0.988,182.373,-161.866,15.258,0,0,0,
,-0.023,-0.774,0.823,43.518,-124.817,-29.053,0,0,0,
,-0.032,-0.589,0.666,-23.804,-48.401,-37.415,0,0,0,
,-0.075,-0.291,0.737,-103.882,20.507,-5.372,0,0,0,
,0.002,-0.237,0.894,-60.975,23.498,-6.043,0,0,0,
,-0.057,-0.416,1.028,-72.632,-21.18,-5.127,0,0,0,
,-0.114,-0.484,1.122,-196.228,-65.064,-0.245,0,0,0,
,-0.016,-0.47,1.091,-118.775,-102.356,2.807,0,0,0,
,-0.076,-0.454,1.044,68.969,-146.18,-9.644,0,0,0,
,0.041,-0.495,0.922,105.896,-137.574,-33.02,0,0,0,
,-0.01,-0.348,0.814,66.101,-104.981,12.634,0,0,0,
,-0.048,-0.427,0.808,61.035,-90.882,-2.32,0,0,0,
,-0.055,-0.461,0.903,-49.195,-60.303,11.596,0,0,0,
,-0.043,-0.381,1.052,67.871,-59.571,21.85,0,0,0,
,-0.028,-0.488,1.131,240.295,-131.531,-3.357,0,0,0,
,-0.022,-0.52,1.069,223.51,-142.212,-8.789,0,0,0,
,-0.03,-0.419,0.963,192.382,-135.376,8.789,0,0,0,
,-0.081,-0.375,0.927,226.684,-118.592,1.342,0,0,0,
,-0.037,-0.539,0.893,188.842,-64.331,-38.575,0,0,0,
,-0.08,-0.472,0.992,53.466,-35.34,-10.376,0,0,0,
,-0.099,-0.48,0.88,75.134,-0.794,-63.721,0,0,0,
,-0.099,-0.568,0.854,51.757,17.517,-79.773,0,0,0,
,-0.107,-0.649,0.869,-81.299,43.64,-111.084,0,0,0,
,-0.045,-0.668,0.846,-307.435,12.512,-114.624,0,0,0,
,-0.091,-0.401,0.924,-526.551,-7.569,-45.411,0,0,0,
,-0.09,-0.177,1.002,-423.157,-92.896,10.192,0,0,0,
,-0.117,0.008,1,-327.332,-122.803,68.847,0,0,0,
,-0.242,0.023,0.928,-3.052,-231.568,191.528,0,0,0,
,-0.254,-0.228,0.908,25.512,-301.636,233.093,0,0,0,
,-0.219,-0.223,0.85,-205.994,-301.88,328.857,0,0,0,
,-0.215,-0.12,0.839,-391.419,-312.134,395.08,0,0,0,
,-0.22,0.02,0.847,-244.324,-225.708,371.765,0,0,0,
,-0.104,-0.326,1.031,350.158,-494.385,462.036,0,0,0,
,-0.252,-0.619,0.692,264.831,-273.621,169.067,0,0,0,
,-0.126,-0.652,0.995,667.907,-453.064,300.048,0,0,0,
,-0.32,-0.885,0.755,807.922,-476.746,13.427,0,0,0,
,-0.23,-1.007,0.752,540.527,-460.694,-110.596,0,0,0,
,-0.283,-0.875,0.71,78.125,-399.964,-118.897,0,0,0,
,-0.366,-0.647,0.791,-185.914,-378.357,-51.148,0,0,0,
,-0.385,-0.464,0.747,-164.124,-339.417,-59.082,0,0,0,
,-0.353,-0.395,0.708,24.719,-365.601,-74.891,0,0,0,
,-0.357,-0.436,0.713,303.65,-373.291,-113.221,0,0,0,
,-0.352,-0.49,0.675,508.85,-341.797,-96.741,0,0,0,
,-0.304,-0.484,0.645,562.805,-301.209,-107.422,0,0,0,
,-0.275,-0.398,0.578,600.525,-226.441,-73.06,0,0,0,
,-0.367,-0.446,0.515,718.75,-150.696,-44.556,0,0,0,
,-0.424,-0.479,0.549,837.219,-87.342,-7.508,0,0,0,
,-0.458,-0.597,0.584,888.061,-9.461,-30.457,0,0,0,
,-0.457,-0.798,0.582,913.757,14.709,-28.077,0,0,0,
,-0.407,-0.881,0.64,801.88,27.465,2.624,0,0,0,
,-0.377,-0.877,0.663,556.274,66.589,2.136,0,0,0,
,-0.335,-0.755,0.683,381.408,113.342,-24.292,0,0,0,
,-0.382,-0.724,0.582,288.757,143.493,24.353,0,0,0,
,-0.355,-0.765,0.796,233.764,132.568,26.855,0,0,0,
,-0.316,-0.867,0.859,169.494,94.421,1.159,0,0,0,
,-0.277,-0.865,0.882,16.052,114.196,5.859,0,0,0,
,-0.232,-0.713,0.838,-63.233,142.456,25.573,0,0,0,
,-0.211,-0.595,0.782,53.161,141.601,35.888,0,0,0,
,-0.213,-0.626,0.754,288.147,134.765,11.962,0,0,0,
,-0.245,-0.839,0.801,469.482,93.872,-5.005,0,0,0,
,-0.29,-1.146,0.816,357.422,64.514,-65.857,0,0,0,
,-0.296,-1.152,0.889,-33.875,36.743,-64.209,0,0,0,
,-0.307,-0.714,0.634,-381.043,50.659,-19.288,0,0,0,
,-0.351,-0.587,0.687,-203.431,-2.991,-7.386,0,0,0,
,-0.301,-0.682,0.568,131.836,-32.044,-94.239,0,0,0,
,-0.277,-0.795,0.575,254.943,-57.129,-85.328,0,0,0,
,-0.329,-0.935,0.604,100.952,-24.964,-85.877,0,0,0,
,-0.344,-0.884,0.616,-90.882,-12.085,-103.394,0,0,0,
,-0.309,-0.753,0.669,-161.56,-20.386,-117.859,0,0,0,
,-0.349,-0.768,0.636,-7.935,-42.725,-117.859,0,0,0,
,-0.351,-0.757,0.566,113.891,-32.044,-142.456,0,0,0,
,-0.351,-0.712,0.524,208.374,-16.602,-129.944,0,0,0,
,-0.349,-0.71,0.494,276.977,10.437,-136.475,0,0,0,
,-0.367,-0.793,0.499,276.611,34.179,-135.376,0,0,0,
,-0.374,-0.845,0.497,128.296,69.091,-143.311,0,0,0,
,-0.389,-0.846,0.501,-87.464,91.552,-129.822,0,0,0,
,-0.386,-0.723,0.593,-194.336,100.036,-87.769,0,0,0,
,-0.358,-0.684,0.581,-33.814,68.908,-108.948,0,0,0,
,-0.38,-0.76,0.508,147.461,48.461,-122.193,0,0,0,
,-0.365,-0.852,0.569,83.862,62.744,-125.733,0,0,0,
,-0.338,-0.88,0.521,-91.492,82.031,-129.883,0,0,0,
,-0.296,-0.778,0.538,-178.772,83.923,-114.685,0,0,0,
,-0.312,-0.672,0.566,-90.271,105.407,-68.665,0,0,0,
,-0.314,-0.748,0.617,51.208,64.27,-85.694,0,0,0,
,-0.293,-0.914,0.619,22.155,39.917,-83.863,0,0,0,
,-0.279,-0.953,0.646,-179.993,38.024,-85.755,0,0,0,
,-0.301,-0.865,0.595,-373.475,49.743,-82.093,0,0,0,
,-0.324,-0.781,0.63,-458.069,42.175,-81.299,0,0,0,
,-0.329,-0.718,0.697,-458.374,40.832,-77.637,0,0,0,
,-0.363,-0.646,0.661,-403.87,61.889,-56.214,0,0,0,
,-0.339,-0.636,0.677,-327.21,46.386,-70.069,0,0,0,
,-0.313,-0.671,0.679,-259.949,43.579,-62.439,0,0,0,
,-0.285,-0.656,0.666,-234.009,58.105,-68.665,0,0,0,
,-0.297,-0.641,0.677,-143.311,56.945,-41.687,0,0,0,
,-0.327,-0.659,0.714,7.873,49.011,-26.062,0,0,0,
,-0.338,-0.787,0.732,18.188,29.602,-42.359,0,0,0,
,-0.355,-0.888,0.743,-188.782,17.822,-53.04,0,0,0,
,-0.338,-0.767,0.747,-450.379,44.677,-45.777,0,0,0,
,-0.306,-0.571,0.704,-459.412,34.118,-33.997,0,0,0,
,-0.283,-0.456,0.673,-210.694,34.057,-30.213,0,0,0,
,-0.289,-0.503,0.661,100.891,41.32,-18.311,0,0,0,
,-0.295,-0.659,0.676,303.222,11.474,-12.94,0,0,0,
,-0.338,-0.902,0.727,158.813,10.437,-40.711,0,0,0,
,-0.366,-0.941,0.771,-255.188,30.334,-57.129,0,0,0,
,-0.316,-0.649,0.739,-534.363,50.415,-30.884,0,0,0,
,-0.329,-0.466,0.713,-341.431,22.888,-7.752,0,0,0,
,-0.334,-0.497,0.708,10.864,-12.33,-15.87,0,0,0,
,-0.335,-0.614,0.67,178.161,-1.221,-14.039,0,0,0,
,-0.341,-0.678,0.681,211.853,18.676,-9.156,0,0,0,
,-0.371,-0.77,0.727,138.427,25.329,-40.101,0,0,0,
,-0.366,-0.804,0.719,-36.377,32.714,-31.189,0,0,0,
,-0.332,-0.63,0.697,-211.06,59.631,-23.194,0,0,0,
,-0.339,-0.551,0.656,-56.214,38.635,-12.269,0,0,0,
,-0.341,-0.616,0.675,96.13,22.888,-26.734,0,0,0,
,-0.328,-0.695,0.688,109.497,34.606,-31.373,0,0,0,
,-0.338,-0.743,0.718,26.245,42.846,-38.636,0,0,0,
,-0.359,-0.729,0.757,-71.289,45.837,-39.734,0,0,0,
,-0.344,-0.649,0.75,-116.822,38.635,-41.504,0,0,0,
,-0.335,-0.584,0.725,-59.266,27.282,-21.18,0,0,0,
,-0.342,-0.609,0.705,48.95,16.723,-22.828,0,0,0,
,-0.324,-0.661,0.69,57.739,24.902,-26.429,0,0,0,
,-0.321,-0.693,0.714,20.813,31.738,-22.644,0,0,0,
,-0.332,-0.708,0.746,-44.861,37.353,-24.476,0,0,0,
,-0.338,-0.687,0.771,-74.707,35.949,-25.513,0,0,0,
,-0.323,-0.659,0.756,-55.298,20.69,-26.062,0,0,0,
,-0.314,-0.631,0.67,-32.776,22.888,-23.804,0,0,0,
,-0.322,-0.692,0.75,-25.086,4.15,-36.194,0,0,0,
,-0.349,-0.662,0.711,-17.456,23.925,-18.25,0,0,0,
,-0.325,-0.691,0.728,-29.297,15.625,-42.42,0,0,0,
,-0.335,-0.706,0.73,-66.407,17.15,-37.781,0,0,0,
,-0.329,-0.661,0.714,-94.239,18.066,-40.955,0,0,0,
,-0.325,-0.637,0.718,-58.594,13.794,-38.941,0,0,0,
,-0.325,-0.639,0.718,-19.165,7.019,-31.311,0,0,0,
,-0.311,-0.656,0.71,-19.837,-2.625,-32.41,0,0,0,
,-0.317,-0.665,0.749,-72.144,-4.334,-23.377,0,0,0,
,-0.349,-0.664,0.722,-124.207,-0.855,-18.433,0,0,0,
,-0.324,-0.629,0.73,-140.381,8.056,-17.762,0,0,0,
,-0.291,-0.606,0.706,-149.537,17.395,-18.311,0,0,0,
,-0.297,-0.609,0.727,-107.422,6.774,-4.761,0,0,0,
,-0.332,-0.64,0.778,-87.708,3.173,-2.747,0,0,0,
,-0.343,-0.643,0.766,-101.502,10.131,-2.869,0,0,0,
,-0.349,-0.619,0.766,-87.647,17.15,4.089,0,0,0,
,-0.338,-0.582,0.728,-16.175,16.479,8.3,0,0,0,
,-0.337,-0.627,0.647,87.402,22.522,-4.456,0,0,0,
,-0.358,-0.775,0.827,88.867,-18.189,-31.922,0,0,0,
,-0.355,-0.663,0.706,-46.509,23.986,-20.142,0,0,0,
,-0.324,-0.608,0.724,6.286,2.563,-23.255,0,0,0,
,-0.354,-0.649,0.719,44.86,-2.503,-22.767,0,0,0,
,-0.332,-0.663,0.717,-8.545,13.977,-30.579,0,0,0,
,-0.344,-0.662,0.743,-21.302,12.756,-24.903,0,0,0,
,-0.341,-0.671,0.758,-30.579,30.578,-44.495,0,0,0,
,-0.325,-0.65,0.75,-48.706,15.808,-40.345,0,0,0,
,-0.326,-0.644,0.741,-46.57,6.347,-47.73,0,0,0,
,-0.326,-0.683,0.735,-63.843,2.624,-62.5,0,0,0,
,-0.329,-0.684,0.735,-143.189,27.771,-65.857,0,0,0,
,-0.304,-0.604,0.734,-171.204,44.921,-61.036,0,0,0,
,-0.313,-0.554,0.743,-31.678,25.695,-28.626,0,0,0,
,-0.34,-0.611,0.747,79.101,4.089,-29.541,0,0,0,
,-0.325,-0.659,0.748,20.752,8.789,-32.654,0,0,0,
,-0.331,-0.65,0.739,-43.702,13.366,-21.546,0,0,0,
,-0.335,-0.633,0.744,-39.734,12.878,-25.818,0,0,0,
,-0.331,-0.626,0.729,-25.33,16.906,-26.978,0,0,0,
,-0.343,-0.64,0.744,-6.165,17.211,-31.617,0,0,0,
,-0.344,-0.643,0.731,-38.025,25.512,-39.917,0,0,0,
,-0.315,-0.613,0.735,-64.454,29.663,-28.199,0,0,0,
,-0.346,-0.605,0.751,-39.795,20.08,-9.583,0,0,0,
,-0.36,-0.63,0.741,-24.964,11.23,-13.611,0,0,0,
,-0.35,-0.645,0.75,-33.814,8.117,-18.494,0,0,0,
,-0.353,-0.655,0.761,-22.278,7.995,-28.199,0,0,0,
,-0.341,-0.656,0.769,-16.48,7.995,-41.687,0,0,0,
,-0.339,-0.621,0.769,-33.387,13.244,-38.575,0,0,0,
,-0.361,-0.609,0.788,-20.142,11.596,-43.702,0,0,0,
,-0.374,-0.618,0.794,-32.776,10.376,-50.415,0,0,0,
,-0.352,-0.62,0.813,-62.561,-7.63,-53.894,0,0,0,
,-0.383,-0.649,0.85,-77.637,-37.293,-47.425,0,0,0,
,-0.395,-0.645,0.821,-118.775,-39.856,-62.928,0,0,0,
,-0.383,-0.612,0.793,-111.145,-49.134,-70.801,0,0,0,
,-0.395,-0.612,0.781,-64.942,-65.247,-71.045,0,0,0,
,-0.383,-0.618,0.898,-197.937,-112.854,-8.606,0,0,0,
,-0.409,-0.533,0.734,-246.827,-7.691,-41.443,0,0,0,
,-0.365,-0.508,0.879,-196.961,-107.3,33.752,0,0,0,
,-0.38,-0.506,0.708,-180.542,16.296,-35.218,0,0,0,
,-0.428,-0.538,0.729,19.165,-88.074,39.184,0,0,0,
,-0.424,-0.589,0.724,79.956,-11.17,-63.111,0,0,0,
,-0.356,-0.702,0.789,36.071,-65.796,-98.511,0,0,0,
,-0.334,-0.765,0.866,-263.916,-97.413,-90.699,0,0,0,
,-0.434,-0.709,0.659,-426.087,36.987,-139.954,0,0,0,
,-0.427,-0.514,0.731,-320.191,17.639,-117.92,0,0,0,
,-0.463,-0.436,0.715,-182.557,6.958,-132.63,0,0,0,
,-0.438,-0.453,0.719,-100.281,12.756,-116.761,0,0,0,
,-0.404,-0.538,0.771,-93.75,-3.968,-111.206,0,0,0,
,-0.399,-0.573,0.808,-220.154,20.813,-107.911,0,0,0,
,-0.393,-0.546,0.807,-272.95,29.235,-95.093,0,0,0,
,-0.429,-0.435,0.765,-274.17,55.114,-56.275,0,0,0,
,-0.354,-0.352,0.689,-182.679,80.261,-22.278,0,0,0,
,-0.366,-0.425,0.764,-34.668,64.209,25.695,0,0,0,
,-0.259,-0.592,0.813,-17.09,82.763,18.676,0,0,0,
,-0.176,-0.651,0.865,-33.265,86.792,57.678,0,0,0,
,-0.18,-0.685,0.964,0.366,26.245,55.053,0,0,0,
,-0.155,-0.654,0.872,76.049,36.132,60.73,0,0,0,
,-0.188,-0.588,0.802,177.246,31.555,79.895,0,0,0,
,-0.243,-0.585,0.724,146.423,47.119,58.532,0,0,0,
,-0.215,-0.595,0.69,41.565,91.308,47.668,0,0,0,
,-0.215,-0.625,0.78,-32.532,76.965,59.204,0,0,0,
,-0.233,-0.61,0.839,-48.218,81.726,54.687,0,0,0,
,-0.275,-0.485,0.699,88.012,80.566,103.393,0,0,0,
,-0.418,-0.693,0.899,170.471,-51.636,64.27,0,0,0,
,-0.268,-0.743,0.664,43.029,-42.969,5.188,0,0,0,
,-0.385,-0.725,0.717,-8.545,-9.339,33.874,0,0,0,
,-0.331,-0.662,0.665,-100.892,8.239,-5.86,0,0,0,
,-0.335,-0.583,0.67,-126.343,54.687,-17.579,0,0,0,
,-0.34,-0.545,0.813,-103.15,48.461,-13.184,0,0,0,
,-0.327,-0.493,0.843,-128.785,45.837,-30.823,0,0,0,
,-0.433,-0.479,0.833,-117.005,35.644,-26.49,0,0,0,
,-0.485,-0.484,0.844,-148.804,33.996,-37.781,0,0,0,
,-0.545,-0.34,0.762,-147.522,41.565,-45.35,0,0,0,
,-0.606,-0.276,0.742,-130.86,42.663,-50.782,0,0,0,
,-0.624,-0.281,0.854,-139.466,50.231,-54.566,0,0,0,
,-0.523,-0.496,0.923,-21.241,56.945,-80.506,0,0,0,
,-0.496,-0.66,0.918,-74.036,76.416,-109.253,0,0,0,
,-0.445,-0.589,0.86,-210.206,59.143,-112.854,0,0,0,
,-0.41,-0.43,0.791,-218.14,60.669,-119.324,0,0,0,
,-0.346,-0.422,0.737,-142.09,64.575,-110.474,0,0,0,
,-0.293,-0.385,0.706,-199.707,97.351,-82.642,0,0,0,
,-0.32,-0.25,0.714,-302.796,115.661,-28.687,0,0,0,
,-0.257,-0.334,0.753,-219.361,137.939,9.643,0,0,0,
,-0.266,-0.577,0.93,-175.049,116.638,7.141,0,0,0,
,-0.184,-0.73,1.017,-205.872,82.153,-32.044,0,0,0,
,-0.232,-0.666,0.997,-185.608,41.32,-58.106,0,0,0,
,-0.143,-0.674,0.962,-150.879,14.343,-95.581,0,0,0,
,-0.025,-0.528,0.918,-128.174,29.541,-71.106,0,0,0,
,-0.038,-0.339,0.837,-90.699,38.452,-18.067,0,0,0,
,-0.041,-0.278,0.841,-28.26,48.645,31.189,0,0,0,
,-0.119,-0.469,0.909,89.721,24.475,49.255,0,0,0,
,-0.253,-0.543,0.955,49.377,27.221,57.067,0,0,0,
,-0.384,-0.553,0.932,92.59,-5.372,36.315,0,0,0,
,-0.375,-0.649,0.944,89.599,-21.363,-10.376,0,0,0,
,-0.301,-0.62,1.014,79.528,-59.998,-10.193,0,0,0,
,-0.247,-0.601,0.883,139.465,-88.013,-31.922,0,0,0,
,-0.27,-0.523,0.823,88.317,-91.675,3.356,0,0,0,
,-0.297,-0.511,0.764,102.172,-95.704,12.085,0,0,0,
,-0.381,-0.492,0.705,76.782,-67.078,11.474,0,0,0,
,-0.454,-0.426,0.66,21.789,-11.658,-5.31,0,0,0,
,-0.505,-0.359,0.691,-56.214,47.241,-24.72,0,0,0,
,-0.501,-0.253,0.77,-138.55,70.556,-21.912,0,0,0,
,-0.585,-0.111,0.96,-128.357,63.842,2.38,0,0,0,
,-0.518,-0.41,1.053,72.876,7.629,-31.434,0,0,0,
,-0.537,-0.566,1.079,25.695,-28.687,-30.091,0,0,0,
,-0.513,-0.529,0.942,7.019,-44.556,-84.534,0,0,0,
,-0.453,-0.485,0.817,-25.696,-33.02,-107.789,0,0,0,
,-0.412,-0.434,0.744,-25.452,10.559,-116.883,0,0,0,
,-0.304,-0.458,0.742,-69.642,55.175,-108.277,0,0,0,
,-0.309,-0.425,0.729,-155.64,96.191,-73.365,0,0,0,
,-0.297,-0.372,0.786,-266.358,108.154,-62.134,0,0,0,
,-0.273,-0.371,0.773,-225.22,122.985,-10.682,0,0,0,
,-0.323,-0.452,0.872,-138.672,113.952,-8.789,0,0,0,
,-0.248,-0.563,0.89,-114.685,102.539,-12.33,0,0,0,
,-0.301,-0.61,0.953,-126.587,78.186,-37.476,0,0,0,
,-0.256,-0.645,0.959,-174.256,51.757,-72.998,0,0,0,
,-0.224,-0.477,1.007,-218.323,57.8,-71.534,0,0,0,
,-0.084,-0.399,0.992,-37.171,25.146,-24.109,0,0,0,
,-0.051,-0.524,0.897,33.264,27.099,-4.7,0,0,0,
,-0.051,-0.585,0.729,-107.178,75.561,-15.748,0,0,0,
,-0.162,-0.56,0.672,-299.866,128.479,-71.473,0,0,0,
,-0.176,-0.362,0.864,-388.611,177.978,-69.092,0,0,0,
,-0.249,-0.239,1.074,-145.874,123.657,-22.828,0,0,0,
,-0.294,-0.339,1.17,73.974,3.784,19.226,0,0,0,
,-0.365,-0.491,1.093,112.243,-66.102,33.081,0,0,0,
,-0.355,-0.527,0.788,113.22,-59.388,-14.466,0,0,0,
,-0.293,-0.514,0.726,-5.799,2.685,-32.898,0,0,0,
,-0.256,-0.346,0.794,-12.635,40.527,-28.321,0,0,0,
,-0.191,-0.358,0.948,73.608,19.409,-23.743,0,0,0,
,-0.205,-0.33,0.964,164.917,0.793,10.437,0,0,0,
,-0.296,-0.402,0.901,218.994,1.037,15.564,0,0,0,
,-0.373,-0.44,0.866,153.076,10.009,5.981,0,0,0,
,-0.311,-0.474,0.9,131.408,4.394,-13.855,0,0,0,
,-0.342,-0.405,0.799,162.597,22.216,-4.334,0,0,0,
,-0.374,-0.402,0.751,175.232,25.085,15.564,0,0,0,
,-0.402,-0.413,0.74,108.703,55.481,10.925,0,0,0,
,-0.463,-0.419,0.823,15.38,56.823,5.737,0,0,0,
,-0.487,-0.358,0.82,-48.951,84.594,-2.747,0,0,0,
,-0.555,-0.349,0.952,7.385,49.804,-17.945,0,0,0,
,-0.475,-0.434,0.941,96.252,33.447,-37.964,0,0,0,
,-0.424,-0.489,0.872,123.657,52.368,-77.881,0,0,0,
,-0.382,-0.502,0.805,68.908,57.922,-81.543,0,0,0,
,-0.371,-0.543,0.763,-68.604,83.313,-115.906,0,0,0,
,-0.346,-0.41,0.729,-219.3,125.793,-109.742,0,0,0,
,-0.331,-0.261,0.751,-188.233,145.691,-79.041,0,0,0,
,-0.309,-0.281,0.792,-96.68,140.014,-59.082,0,0,0,
,-0.322,-0.529,0.891,56.884,47.424,21.484,0,0,0,
,-0.287,-0.763,1.112,-139.344,64.148,65.002,0,0,0,
,-0.252,-0.266,0.803,-108.033,34.729,-6.592,0,0,0,
,-0.261,-0.325,0.713,68.054,16.296,-26.551,0,0,0,
,-0.188,-0.476,0.883,-224.976,46.936,-24.72,0,0,0,
,-0.404,-0.312,1.241,-141.724,35.827,-9.034,0,0,0,
,-0.37,-0.302,0.849,16.967,13.305,27.343,0,0,0,
,-0.253,-0.528,0.826,23.498,40.222,-22.034,0,0,0,
,-0.184,-0.554,0.953,-44.129,16.723,-26.001,0,0,0,
,-0.106,-0.751,0.909,-88.685,38.208,-68.299,0,0,0,
,-0.069,-0.805,0.778,-223.145,69.091,-130.372,0,0,0,
,-0.003,-0.695,0.932,-314.759,143.493,-188.965,0,0,0,
,-0.067,-0.422,1.083,-213.562,56.091,-184.876,0,0,0,
,0.104,-0.499,1.154,-48.951,31.127,-168.335,0,0,0,
,-0.036,-0.507,1.195,82.763,-83.497,-119.019,0,0,0,
,0.022,-0.572,1.093,106.811,-127.869,-99.305,0,0,0,
,-0.261,-0.11,0.606,92.834,-75.257,-35.706,0,0,0,
,-0.405,0.004,0.611,79.101,-30.884,27.465,0,0,0,
,-0.404,-0.139,0.755,214.477,9.277,60.302,0,0,0,
,-0.456,-0.422,0.985,303.222,-20.63,70.861,0,0,0,
,-0.454,-0.651,1.062,298.034,-33.204,10.376,0,0,0,
,-0.351,-0.783,1.075,134.338,-41.321,-25.452,0,0,0,
,-0.332,-0.625,0.956,137.573,-48.035,-64.637,0,0,0,
,-0.276,-0.52,0.744,214.843,11.962,-95.337,0,0,0,
,-0.282,-0.246,0.601,135.009,119.14,-56.763,0,0,0,
,-0.266,-0.172,0.64,106.506,205.261,-15.564,0,0,0,
,-0.248,-0.248,0.723,38.024,177.673,25.329,0,0,0,
,-0.386,-0.552,0.934,-39.124,163.208,-11.292,0,0,0,
,-0.312,-0.712,1.005,-273.011,120.117,-6.531,0,0,0,
,-0.455,-0.547,0.98,-177.063,48.217,-29.358,0,0,0,
,-0.467,-0.525,0.92,-60.73,-43.519,-86.243,0,0,0,
,-0.375,-0.532,0.819,-17.029,-66.04,-46.387,0,0,0,
,-0.31,-0.57,0.729,-176.636,-79.285,-6.47,0,0,0,
,-0.319,-0.408,0.702,-360.352,-61.219,47.058,0,0,0,
,-0.327,-0.277,0.689,-346.009,-26.978,65.979,0,0,0,
,-0.286,-0.276,0.706,-238.221,30.273,72.998,0,0,0,
,-0.347,-0.328,0.846,-115.662,46.081,72.387,0,0,0,
,-0.281,-0.364,0.889,-21.912,65.368,70.312,0,0,0,
,-0.331,-0.412,0.909,149.414,19.104,82.214,0,0,0,
,-0.378,-0.578,0.986,160.034,-11.658,33.63,0,0,0,
,-0.295,-0.556,0.96,-30.579,-25.33,43.884,0,0,0,
,-0.378,-0.499,0.876,-9.949,-73.548,28.991,0,0,0,
,-0.353,-0.514,0.788,-52.185,-76.539,-2.381,0,0,0,
,-0.306,-0.413,0.687,-121.155,-49.805,17.578,0,0,0,
,-0.315,-0.279,0.713,-138.855,-24.476,41.137,0,0,0,
,-0.246,-0.377,0.864,-33.692,-18.921,52.978,0,0,0,
,-0.087,-0.6,1.048,-71.656,-50.843,31.433,0,0,0,
,-0.176,-0.536,1.021,433.899,-244.69,47.18,0,0,0,
,-0.191,-0.54,0.907,462.768,-257.081,25.756,0,0,0,
,-0.223,-0.572,0.808,406.372,-236.023,-7.386,0,0,0,
,-0.267,-0.652,0.778,309.143,-226.807,-54.078,0,0,0,
,-0.379,-0.657,0.956,103.332,-208.13,-19.165,0,0,0,
,-0.371,-0.472,0.936,3.356,-184.693,11.108,0,0,0,
,-0.334,-0.382,0.854,193.237,-207.825,24.597,0,0,0,
,-0.327,-0.451,0.73,499.328,-232.3,28.076,0,0,0,
,-0.364,-0.56,0.637,669.372,-239.685,11.84,0,0,0,
,-0.39,-0.666,0.613,674.377,-240.784,-28.504,0,0,0,
,-0.462,-0.769,0.606,566.711,-226.197,-76.355,0,0,0,
,-0.526,-0.826,0.623,382.141,-189.82,-120.606,0,0,0,
,-0.567,-0.786,0.618,127.075,-121.582,-148.987,0,0,0,
,-0.56,-0.638,0.596,-45.044,-45.105,-159.424,0,0,0,
,-0.562,-0.52,0.553,-18.067,7.507,-173.951,0,0,0,
,-0.564,-0.467,0.545,151.977,54.687,-187.134,0,0,0,
,-0.547,-0.51,0.523,307.434,79.101,-202.576,0,0,0,
,-0.483,-0.664,0.694,-166.932,151.123,-263.001,0,0,0,
,-0.405,-0.444,0.666,-272.583,189.148,-185.669,0,0,0,
,-0.365,-0.283,0.66,-70.618,203.552,-130.494,0,0,0,
,-0.339,-0.407,0.67,235.168,136.047,-106.08,0,0,0,
,-0.367,-0.74,0.767,280.578,90.637,-125.916,0,0,0,
,-0.364,-0.91,0.833,-185.181,113.952,-122.559,0,0,0,
,-0.259,-0.737,0.844,-658.326,164.489,-44.434,0,0,0,
,-0.286,-0.454,0.816,-675.599,182.251,21.057,0,0,0,
,-0.296,-0.304,0.786,-266.48,183.349,15.564,0,0,0,
,-0.317,-0.392,0.78,211.67,140.869,19.958,0,0,0,
,-0.386,-0.637,0.795,435.791,123.901,-6.409,0,0,0,
,-0.41,-0.864,0.826,214.66,143.554,-62.195,0,0,0,
,-0.371,-0.836,0.807,-243.592,175.293,-73.182,0,0,0,
,-0.319,-0.597,0.826,-465.149,158.447,-36.927,0,0,0,
,-0.329,-0.423,0.829,-344.483,137.329,-26.978,0,0,0,
,-0.322,-0.398,0.796,-20.447,94.726,-11.841,0,0,0,
,-0.352,-0.539,0.795,254.638,40.71,-3.479,0,0,0,
,-0.432,-0.782,0.819,182.006,32.531,-42.664,0,0,0,
,-0.393,-0.755,0.806,-207.154,63.964,-51.88,0,0,0,
,-0.336,-0.578,0.776,-464.783,73.486,-32.532,0,0,0,
,-0.27,-0.42,0.738,-400.391,93.689,-39.795,0,0,0,
,-0.293,-0.554,0.903,-185.608,22.705,-38.269,0,0,0,
,-0.382,-0.559,0.834,-22.4,33.813,4.333,0,0,0,
,-0.351,-0.596,0.84,40.954,28.503,-38.208,0,0,0,
,-0.365,-0.696,0.83,-2.015,13,-64.515,0,0,0,
,-0.357,-0.689,0.796,-236.268,36.01,-84.29,0,0,0,
,-0.386,-0.567,0.797,-383.973,59.082,-74.769,0,0,0,
,-0.392,-0.454,0.778,-328.736,61.34,-85.633,0,0,0,
,-0.381,-0.449,0.786,-234.314,52.429,-94.544,0,0,0,
,-0.381,-0.481,0.852,-184.144,40.405,-90.088,0,0,0,
,-0.365,-0.507,0.87,-215.455,35.766,-85.755,0,0,0,
,-0.364,-0.515,0.88,-239.563,15.564,-80.323,0,0,0,
,-0.367,-0.499,0.883,-266.907,9.277,-84.534,0,0,0,
,-0.358,-0.463,0.852,-239.991,2.624,-80.689,0,0,0,
,-0.391,-0.468,0.845,-170.105,-15.442,-96.375,0,0,0,
,-0.388,-0.469,0.846,-194.764,-2.808,-118.287,0,0,0,
,-0.369,-0.432,0.856,-244.751,0.732,-115.906,0,0,0,
,-0.37,-0.376,0.9,-227.112,-18.25,-105.713,0,0,0,
,-0.373,-0.401,0.908,-200.806,-31.922,-104.31,0,0,0,
,-0.342,-0.41,0.905,-197.083,-46.936,-90.027,0,0,0,
,-0.34,-0.382,0.878,-186.585,-52.552,-69.153,0,0,0,
,-0.368,-0.383,0.844,-108.826,-57.618,-53.711,0,0,0,
,-0.406,-0.428,0.807,-82.886,-41.26,-65.613,0,0,0,
,-0.369,-0.435,0.819,-136.536,-16.724,-75.074,0,0,0,
,-0.388,-0.401,0.836,-162.903,5.432,-64.148,0,0,0,
,-0.358,-0.37,0.849,-155.457,12.878,-64.331,0,0,0,
,-0.391,-0.363,0.87,-89.112,0.671,-43.03,0,0,0,
,-0.401,-0.389,0.86,-54.566,14.892,-32.105,0,0,0,
,-0.414,-0.432,0.867,-68.36,19.653,-35.218,0,0,0,
,-0.414,-0.406,0.844,-134.827,51.33,-41.382,0,0,0,
,-0.418,-0.327,0.835,-169.8,73.852,-36.133,0,0,0,
,-0.402,-0.245,0.834,-135.498,81.97,-20.203,0,0,0,
,-0.411,-0.255,0.856,-61.463,76.782,-6.348,0,0,0,
,-0.395,-0.271,0.854,-27.894,106.506,12.329,0,0,0,
,-0.38,-0.255,0.839,39.55,114.441,46.875,0,0,0,
,-0.409,-0.33,0.89,110.473,88.073,61.096,0,0,0,
,-0.373,-0.434,0.942,-9.949,92.529,50.476,0,0,0,
,-0.366,-0.412,1.031,-84.839,68.786,47.058,0,0,0,
,-0.406,-0.375,1.027,-9.888,26.306,28.93,0,0,0,
,-0.421,-0.329,0.95,41.32,21.179,13,0,0,0,
,-0.407,-0.241,0.91,82.702,8.911,31.311,0,0,0,
,-0.365,-0.293,0.936,139.099,-9.522,57.251,0,0,0,
,-0.325,-0.333,0.94,150.39,-17.334,89.05,0,0,0,
,-0.355,-0.394,0.913,239.38,-27.1,101.318,0,0,0,
,-0.278,-0.612,0.892,234.802,-35.889,42.48,0,0,0,
,-0.201,-0.778,0.829,72.448,16.052,-27.039,0,0,0,
,-0.046,-0.826,0.839,-76.05,71.411,-86.67,0,0,0,
,-0.022,-0.625,0.783,-261.17,129.882,-73.853,0,0,0,
,-0.151,-0.3,0.769,-329.407,156.86,-37.964,0,0,0,
,-0.218,-0.29,0.821,-146.851,117.126,-29.114,0,0,0,
,-0.287,-0.474,0.963,-61.646,81.42,-31.311,0,0,0,
,-0.342,-0.556,1.009,-75.745,48.095,-45.899,0,0,0,
,-0.417,-0.503,1.013,-128.785,5.31,-63.843,0,0,0,
,-0.468,-0.389,0.949,-115.418,-21.729,-75.196,0,0,0,
,-0.438,-0.349,0.906,-46.082,-57.801,-59.754,0,0,0,
,-0.402,-0.338,0.756,11.169,-62.378,-48.279,0,0,0,
,-0.456,-0.282,0.797,-27.955,-26.551,-15.503,0,0,0,
,-0.45,-0.146,0.784,-67.994,-30.579,16.784,0,0,0,
,-0.464,-0.222,0.821,27.404,0.793,0.305,0,0,0,
,-0.452,-0.351,0.877,40.588,-13.123,-1.465,0,0,0,
,-0.486,-0.336,0.896,-27.222,24.231,-22.644,0,0,0,
,-0.508,-0.311,0.885,-5.249,36.865,-27.649,0,0,0,
,-0.461,-0.373,0.899,9.582,9.948,-37.659,0,0,0,
,-0.41,-0.405,0.897,-26.246,-12.452,-16.785,0,0,0,
,-0.401,-0.4,0.859,5.065,-19.898,-28.016,0,0,0,
,-0.392,-0.476,0.831,23.864,-19.471,-51.819,0,0,0,
,-0.345,-0.534,0.85,-98.633,17.273,-84.961,0,0,0,
,-0.326,-0.419,0.892,-221.009,44.006,-82.215,0,0,0,
,-0.321,-0.321,0.902,-192.139,41.076,-66.59,0,0,0,
,-0.313,-0.271,0.874,-134.4,34.362,-30.518,0,0,0,
,-0.315,-0.297,0.866,-76.172,33.142,-17.273,0,0,0,
,-0.311,-0.345,0.841,-89.966,57.067,-8.851,0,0,0,
,-0.361,-0.266,0.907,-146.18,70.556,1.648,0,0,0,
,-0.332,-0.343,0.922,-25.818,43.823,2.38,0,0,0,
,-0.361,-0.378,0.915,-60.975,58.166,1.159,0,0,0,
,-0.378,-0.329,0.89,-44.068,62.133,6.408,0,0,0,
,-0.39,-0.374,0.915,-15.87,46.142,3.418,0,0,0,
,-0.336,-0.365,0.973,-67.139,44.372,1.77,0,0,0,
,-0.345,-0.288,1.006,-9.095,9.948,42.236,0,0,0,
,-0.289,-0.295,0.965,104.98,-13.245,65.368,0,0,0,
,-0.277,-0.386,0.931,191.528,-33.326,65.856,0,0,0,
,-0.238,-0.581,0.843,141.479,-10.926,23.498,0,0,0,
,-0.167,-0.631,0.815,-14.893,48.339,-13.733,0,0,0,
,-0.111,-0.46,0.877,-115.357,103.149,-33.081,0,0,0,
,-0.131,-0.176,0.994,-32.532,103.515,12.085,0,0,0,
,-0.2,-0.187,1.033,191.345,59.143,60.058,0,0,0,
,-0.274,-0.429,0.964,290.954,11.535,87.951,0,0,0,
,-0.37,-0.625,0.879,195.312,5.798,61.523,0,0,0,
,-0.415,-0.63,0.867,31.189,18.92,6.836,0,0,0,
,-0.421,-0.503,0.843,27.893,31.189,-34.852,0,0,0,
,-0.34,-0.628,0.848,138.733,-5.86,-75.074,0,0,0,
,-0.304,-0.557,0.807,-23.133,-1.648,-75.379,0,0,0,
,-0.246,-0.394,0.749,-58.106,1.831,-70.435,0,0,0,
,-0.269,-0.338,0.758,-14.649,1.892,-64.576,0,0,0,
,-0.281,-0.297,0.796,-67.139,26.062,-46.204,0,0,0,
,-0.393,-0.24,0.816,-75.013,62.5,-19.41,0,0,0,
,-0.474,-0.259,0.95,-82.215,70.495,-32.715,0,0,0,
,-0.487,-0.24,0.911,-161.683,96.496,-35.218,0,0,0,
,-0.589,-0.053,1.048,-64.026,47.607,25.817,0,0,0,
,-0.505,-0.227,1.043,195.8,-28.992,35.949,0,0,0,
,-0.495,-0.463,0.975,220.764,-44.129,34.668,0,0,0,
,-0.428,-0.504,0.832,152.343,-12.33,24.597,0,0,0,
,-0.39,-0.553,0.694,66.711,13.305,-28.504,0,0,0,
,-0.316,-0.487,0.658,-95.215,56.823,-49.195,0,0,0,
,-0.336,-0.378,0.709,-124.817,102.905,-61.829,0,0,0,
,-0.285,-0.425,0.748,-147.644,137.878,-63.538,0,0,0,
,-0.313,-0.362,0.856,-226.929,157.531,-45.716,0,0,0,
,-0.294,-0.325,0.905,-225.892,156.128,-33.265,0,0,0,
,-0.326,-0.29,1.01,-163.514,115.539,-1.709,0,0,0,
,-0.307,-0.343,1.047,-82.886,75.622,15.686,0,0,0,
,-0.346,-0.319,1.025,46.569,34.668,19.714,0,0,0,
,-0.336,-0.394,1.018,63.842,11.108,1.037,0,0,0,
,-0.336,-0.339,0.981,53.344,8.117,7.019,0,0,0,
,-0.274,-0.474,0.975,69.397,3.051,-7.325,0,0,0,
,-0.178,-0.448,0.959,38.269,23.681,28.869,0,0,0,
,-0.116,-0.601,0.85,141.479,18.737,19.165,0,0,0,
,-0.102,-0.766,0.732,3.723,51.818,-17.945,0,0,0,
,-0.194,-0.617,0.781,-278.321,126.648,-73.06,0,0,0,
,-0.271,-0.233,1.071,-261.78,122.863,-58.472,0,0,0,
,-0.264,-0.091,1.174,3.906,62.316,-1.709,0,0,0,
,-0.273,-0.243,1.103,237.915,-15.809,46.264,0,0,0,
,-0.264,-0.539,1.007,213.317,-51.026,30.639,0,0,0,
,-0.291,-0.516,0.903,98.755,-26.062,10.07,0,0,0,
,-0.283,-0.508,0.925,68.481,-11.658,-16.907,0,0,0,
,-0.24,-0.441,0.976,101.257,-32.654,-16.602,0,0,0,
,-0.138,-0.533,0.852,207.519,-31.067,-15.076,0,0,0,
,-0.219,-0.492,0.882,166.748,-50.477,11.23,0,0,0,
,-0.214,-0.454,0.815,162.719,-27.466,0.732,0,0,0,
,-0.251,-0.415,0.756,195.861,5.92,-14.71,0,0,0,
,-0.294,-0.31,0.723,202.209,45.166,8.728,0,0,0,
,-0.305,-0.294,0.739,203.247,73.547,33.447,0,0,0,
,-0.359,-0.421,0.908,183.654,30.944,66.406,0,0,0,
,-0.448,-0.363,0.89,235.962,-4.883,71.289,0,0,0,
,-0.564,-0.289,0.764,225.036,-13.367,73.242,0,0,0,
,-0.555,-0.455,0.8,305.969,41.809,35.156,0,0,0,
,-0.457,-0.723,0.854,273.681,67.016,-9.827,0,0,0,
,-0.416,-0.785,0.817,23.437,73.12,-71.045,0,0,0,
,-0.405,-0.512,0.771,-227.967,100.586,-59.571,0,0,0,
,-0.431,-0.391,0.705,-142.456,101.501,-76.355,0,0,0,
,-0.374,-0.424,0.549,-226.563,190.063,-67.383,0,0,0,
,-0.412,-0.207,0.601,-360.779,264.709,-39.307,0,0,0,
,-0.369,-0.338,0.713,-324.402,276.611,10.803,0,0,0,
,-0.318,-0.406,0.948,-438.66,288.33,17.639,0,0,0,
,0.162,-1.309,2.232,-99.854,-93.445,-334.168,0,0,0,
,-0.359,0.128,0.808,-362.915,45.532,6.408,0,0,0,
,0.027,-0.443,0.828,-187.867,35.4,78.491,0,0,0,
,0.164,-0.944,1.135,193.847,54.26,-43.641,0,0,0,
,0.147,-1.268,0.703,180.175,148.01,-98.877,0,0,0,
,-0.076,-0.686,1.057,-68.116,106.506,-161.133,0,0,0,
,-0.179,-0.503,1.105,-86.67,-23.56,-125.061,0,0,0,
,-0.17,-0.46,0.959,65.551,-62.745,-106.507,0,0,0,
,-0.261,-0.484,0.815,138.672,-108.277,-90.821,0,0,0,
,-0.249,-0.381,0.671,41.931,-60.12,-73.792,0,0,0,
,-0.28,-0.34,0.719,56.457,-25.696,-60.914,0,0,0,
,-0.207,-0.368,0.77,100.586,-13.245,-39.002,0,0,0,
,-0.254,-0.491,0.805,95.825,4.943,-40.772,0,0,0,
,-0.219,-0.549,0.864,-21.668,40.283,-41.81,0,0,0,
,-0.263,-0.378,0.861,65.49,26.245,-31.311,0,0,0,
,-0.283,-0.365,0.833,128.54,44.25,-12.207,0,0,0,
,-0.297,-0.267,0.817,175.781,39.245,29.48,0,0,0,
,-0.314,-0.279,0.833,193.664,27.099,62.377,0,0,0,
,-0.393,-0.328,0.793,229.919,38.94,76.416,0,0,0,
,-0.454,-0.555,0.924,137.268,33.569,37.963,0,0,0,
,-0.403,-0.618,0.937,77.575,67.871,17.7,0,0,0,
,-0.457,-0.559,0.864,56.701,78.491,-6.592,0,0,0,
,-0.397,-0.418,0.759,52.734,91.674,-14.161,0,0,0,
,-0.291,-0.501,0.653,133.789,91.796,-31.983,0,0,0,
,-0.319,-0.518,0.438,-170.899,154.052,-9.949,0,0,0,
,-0.416,-0.29,0.8,-500.611,224.365,11.474,0,0,0,
,-0.276,-0.732,1.342,-429.688,67.26,-107.361,0,0,0,
,-0.501,-1.42,2.28,-61.097,-151.307,-415.467,0,0,0,
,0.016,-0.091,0.186,-704.407,43.762,39.489,0,0,0,
,-0.687,0.532,0.671,56.396,-61.402,-29.175,0,0,0,
,0.075,-0.416,0.864,-49.439,-5.433,-34.18,0,0,0,
,0.286,-0.892,1.105,-7.142,-51.087,-179.871,0,0,0,
,0.161,-0.564,0.978,-309.327,32.653,-166.016,0,0,0,
,0.147,-0.534,1.117,-22.217,33.508,-190.308,0,0,0,
,0.183,-0.527,1.067,148.193,15.319,-149.537,0,0,0,
,0.035,-0.531,1.058,316.406,-17.029,-133.118,0,0,0,
,-0.055,-0.457,0.982,310.241,-53.406,-76.6,0,0,0,
,-0.184,-0.399,0.92,423.339,-55.298,-59.51,0,0,0,
,-0.414,-0.326,0.649,296.753,-14.405,-56.641,0,0,0,
,-0.49,-0.117,0.666,152.404,51.025,-7.874,0,0,0,
,-0.477,-0.209,0.754,233.032,20.202,-4.029,0,0,0,
,-0.408,-0.474,0.903,210.815,-0.061,1.281,0,0,0,
,-0.403,-0.61,0.992,219.177,-79.895,-3.846,0,0,0,
,-0.311,-0.777,0.999,235.534,-117.554,-45.838,0,0,0,
,-0.193,-0.661,0.868,127.685,-123.047,-26.062,0,0,0,
,-0.221,-0.472,0.79,268.31,-128.479,-23.987,0,0,0,
,-0.184,-0.582,0.691,366.333,-92.408,-53.589,0,0,0,
,-0.136,-0.537,0.689,171.692,-73.914,2.136,0,0,0,
,-0.202,-0.487,0.706,100.036,-102.112,37.475,0,0,0,
,-0.219,-0.618,0.694,-2.137,-132.264,31.494,0,0,0,
,-0.249,-0.641,0.723,-187.134,-139.588,57.312,0,0,0,
,-0.256,-0.591,0.711,-223.328,-170.044,76.538,0,0,0,
,-0.211,-0.648,0.7,-263.916,-224.06,93.383,0,0,0,
,-0.256,-0.378,0.852,-667.481,-195.496,157.531,0,0,0,
,-0.414,-1.001,0.585,870.971,-232.117,4.821,0,0,0,
,-0.36,-0.974,0.547,116.76,-150.513,13.305,0,0,0,
,-0.414,-0.564,0.626,-149.414,-115.235,42.846,0,0,0,
,-0.389,-0.433,0.651,66.467,-130.86,10.498,0,0,0,
,-0.395,-0.554,0.752,269.653,-202.942,-8.484,0,0,0,
,-0.442,-0.71,0.813,242.309,-204.285,-32.288,0,0,0,
,-0.338,-0.691,0.757,21.85,-190.674,-28.565,0,0,0,
,-0.358,-0.566,0.76,-28.26,-222.657,4.943,0,0,0,
,-0.363,-0.561,0.775,70.312,-230.652,-5.86,0,0,0,
,-0.281,-0.685,0.794,213.317,-281.25,-49.988,0,0,0,
,-0.282,-0.79,0.823,292.175,-296.509,-72.144,0,0,0,
,-0.314,-0.848,0.848,269.043,-292.603,-113.282,0,0,0,
,-0.299,-0.803,0.831,176.941,-276.673,-133.789,0,0,0,
,-0.342,-0.705,0.802,151.306,-304.627,-90.699,0,0,0,
,-0.436,-0.631,0.781,198.73,-307.618,-72.449,0,0,0,
,-0.439,-0.617,0.691,264.709,-304.139,-68.848,0,0,0,
,-0.442,-0.623,0.623,327.026,-297.12,-47.425,0,0,0,
,-0.469,-0.671,0.584,349.853,-292.115,-60.486,0,0,0,
,-0.53,-0.771,0.611,259.826,-285.035,-111.634,0,0,0,
,-0.553,-0.792,0.653,42.907,-243.653,-119.751,0,0,0,
,-0.53,-0.729,0.638,-177.735,-206.849,-115.296,0,0,0,
,-0.51,-0.625,0.609,-237.427,-182.496,-98.816,0,0,0,
,-0.503,-0.563,0.577,-145.142,-164.734,-81.788,0,0,0,
,-0.479,-0.563,0.548,7.385,-140.87,-73.548,0,0,0,
,-0.465,-0.61,0.539,141.906,-124.878,-65.308,0,0,0,
,-0.507,-0.704,0.537,198.608,-116.822,-67.627,0,0,0,
,-0.544,-0.774,0.594,145.263,-92.286,-90.332,0,0,0,
,-0.524,-0.772,0.605,55.297,-58.655,-73.487,0,0,0,
,-0.507,-0.72,0.592,-6.043,-50.049,-46.814,0,0,0,
,-0.499,-0.64,0.535,12.451,-20.447,-15.686,0,0,0,
,-0.435,-0.588,0.459,72.937,-17.701,-30.274,0,0,0,
,-0.472,-0.642,0.483,199.401,-64.698,-9.522,0,0,0,
,-0.582,-0.734,0.501,322.692,-63.355,9.521,0,0,0,
,-0.625,-0.858,0.535,275.512,-58.716,-61.463,0,0,0,
,-0.585,-0.875,0.54,69.397,7.141,-74.524,0,0,0,
,-0.531,-0.745,0.47,-97.596,65.612,-45.411,0,0,0,
,-0.534,-0.629,0.415,-48.279,91.796,-47.181,0,0,0,
,-0.572,-0.667,0.438,120.971,91.796,-112.183,0,0,0,
,-0.553,-0.717,0.391,227.172,144.47,-168.824,0,0,0,
,-0.626,-0.824,0.508,187.744,149.292,-127.015,0,0,0,
,-0.625,-0.792,0.524,49.682,208.984,-133.545,0,0,0,
,-0.529,-0.743,0.497,60.73,237.243,-139.1,0,0,0,
,-0.469,-0.633,0.438,116.577,247.985,-135.498,0,0,0,
,-0.511,-0.656,0.475,263,239.624,-127.808,0,0,0,
,-0.514,-0.751,0.427,351.684,243.652,-159.485,0,0,0,
,-0.494,-0.903,0.445,237.976,253.234,-200.318,0,0,0,
,-0.481,-0.929,0.461,-10.987,293.09,-165.223,0,0,0,
,-0.48,-0.838,0.525,-256.592,324.951,-140.381,0,0,0,
,-0.495,-0.669,0.561,-291.321,344.36,-107.117,0,0,0,
,-0.47,-0.583,0.596,-176.636,307.861,-90.149,0,0,0,
,-0.455,-0.685,0.606,18.798,242.37,-85.022,0,0,0,
,-0.457,-0.861,0.638,54.504,182.006,-94.91,0,0,0,
,-0.433,-0.887,0.64,-212.708,187.622,-112.366,0,0,0,
,-0.419,-0.745,0.603,-315.552,195.984,-69.153,0,0,0,
,-0.469,-0.637,0.6,-153.321,194.275,-58.472,0,0,0,
,-0.478,-0.67,0.619,-5.982,168.823,-87.952,0,0,0,
,-0.46,-0.791,0.659,-2.503,159.423,-124.573,0,0,0,
,-0.48,-0.812,0.69,-143.799,172.302,-113.709,0,0,0,
,-0.471,-0.715,0.67,-206.116,193.237,-107.789,0,0,0,
,-0.451,-0.619,0.657,-122.254,169.86,-75.013,0,0,0,
,-0.44,-0.616,0.615,-2.869,155.029,-64.576,0,0,0,
,-0.423,-0.662,0.599,55.053,132.263,-69.947,0,0,0,
,-0.448,-0.755,0.683,-1.77,111.45,-88.135,0,0,0,
,-0.442,-0.81,0.672,-192.078,110.046,-96.741,0,0,0,
,-0.412,-0.734,0.71,-445.74,112.304,-71.778,0,0,0,
,-0.374,-0.538,0.692,-480.957,123.352,-56.214,0,0,0,
,-0.372,-0.429,0.651,-214.234,134.948,-34.119,0,0,0,
,-0.392,-0.53,0.658,118.591,92.773,-52.002,0,0,0,
,-0.477,-0.713,0.692,204.651,84.899,-52.185,0,0,0,
,-0.447,-0.792,0.735,-0.977,89.416,-76.355,0,0,0,
,-0.426,-0.738,0.724,-267.395,102.111,-49.317,0,0,0,
,-0.414,-0.598,0.721,-353.272,97.106,-31.25,0,0,0,
,-0.411,-0.526,0.702,-271.546,87.463,-6.653,0,0,0,
,-0.393,-0.505,0.688,-137.879,89.66,0.732,0,0,0,
,-0.372,-0.563,0.651,-31.861,88.989,14.465,0,0,0,
,-0.401,-0.65,0.703,29.357,80.2,7.629,0,0,0,
,-0.416,-0.772,0.747,-94.178,77.453,-17.884,0,0,0,
,-0.4,-0.748,0.777,-340.516,84.472,-22.767,0,0,0,
,-0.385,-0.605,0.766,-468.323,70.312,-5.86,0,0,0,
,-0.38,-0.472,0.744,-364.624,57.617,23.254,0,0,0,
,-0.374,-0.454,0.708,-118.897,38.086,35.827,0,0,0,
,-0.382,-0.55,0.704,91.674,15.197,52.978,0,0,0,
,-0.417,-0.709,0.729,110.046,12.939,27.526,0,0,0,
,-0.409,-0.804,0.768,-107.727,35.461,0.305,0,0,0,
,-0.356,-0.441,0.758,-321.961,62.927,3.662,0,0,0,
,-0.375,-0.413,0.746,-25.635,48.828,30.517,0,0,0,
,-0.409,-0.515,0.742,211.914,37.292,41.198,0,0,0,
,-0.431,-0.642,0.763,241.333,42.663,18.615,0,0,0,
,-0.447,-0.74,0.791,78.979,56.152,-8.362,0,0,0,
,-0.403,-0.691,0.725,-154.969,77.392,-18.311,0,0,0,
,-0.362,-0.578,0.795,-297.852,58.593,-29.419,0,0,0,
,-0.403,-0.441,0.815,-189.576,44.372,-3.235,0,0,0,
,-0.382,-0.465,0.764,-9.827,21.362,-17.151,0,0,0,
,-0.373,-0.569,0.78,86.608,1.77,-20.02,0,0,0,
,-0.44,-0.693,0.799,7.873,21.606,-39.551,0,0,0,
,-0.388,-0.529,0.794,-171.387,53.466,-44.312,0,0,0,
,-0.351,-0.519,0.764,-112.732,44.738,-54.932,0,0,0,
,-0.334,-0.525,0.753,-59.51,37.963,-38.575,0,0,0,
,-0.362,-0.569,0.751,-38.575,44.128,-34.913,0,0,0,
,-0.394,-0.612,0.763,-98.938,55.053,-41.871,0,0,0,
,-0.369,-0.57,0.757,-188.599,68.542,-51.453,0,0,0,
,-0.36,-0.537,0.748,-258.423,77.148,-45.411,0,0,0,
,-0.356,-0.495,0.762,-262.757,85.754,-40.589,0,0,0,
,-0.366,-0.51,0.808,-216.98,71.838,-43.702,0,0,0,
,-0.371,-0.485,0.822,-158.509,77.148,-36.133,0,0,0,
,-0.352,-0.457,0.832,-90.577,65.368,-30.457,0,0,0,
,-0.361,-0.496,0.864,-13.611,45.898,-15.076,0,0,0,
,-0.39,-0.539,0.885,-56.214,31.066,-4.822,0,0,0,
,-0.414,-0.568,0.88,-179.2,33.02,-14.832,0,0,0,
,-0.41,-0.535,0.869,-249.512,26.428,-23.743,0,0,0,
,-0.39,-0.471,0.858,-237.671,18.859,-39.124,0,0,0,
,-0.393,-0.431,0.848,-125.184,9.521,-38.086,0,0,0,
,-0.395,-0.44,0.837,15.564,-9.583,-46.448,0,0,0,
,-0.381,-0.472,0.827,52.368,-13.55,-57.923,0,0,0,
,-0.368,-0.496,0.847,-9.766,-3.663,-55.726,0,0,0,
,-0.363,-0.473,0.85,-68.482,4.028,-45.35,0,0,0,
,-0.379,-0.481,0.844,-68.848,-6.165,-38.575,0,0,0,
,-0.405,-0.493,0.829,-76.539,-14.954,-30.396,0,0,0,
,-0.355,-0.49,0.809,-86.976,-11.963,-51.087,0,0,0,
,-0.381,-0.496,0.813,-66.651,-22.828,-33.081,0,0,0,
,-0.389,-0.481,0.809,-58.045,-13.367,-47.73,0,0,0,
,-0.362,-0.472,0.801,-32.898,-5.616,-53.711,0,0,0,
,-0.37,-0.475,0.8,-14.161,-1.099,-43.702,0,0,0,
,-0.388,-0.503,0.795,-55.115,10.681,-50.049,0,0,0,
,-0.383,-0.536,0.818,-140.809,16.54,-71.106,0,0,0,
,-0.362,-0.52,0.837,-263.062,26.733,-79.956,0,0,0,
,-0.323,-0.445,0.928,-335.144,16.296,-46.143,0,0,0,
,-0.373,-0.351,0.828,-230.103,36.621,-24.964,0,0,0,
,-0.357,-0.354,0.851,-15.931,16.784,-21.973,0,0,0,
,-0.377,-0.45,0.862,80.993,-0.184,-31.067,0,0,0,
,-0.402,-0.512,0.86,17.15,18.005,-41.443,0,0,0,
,-0.422,-0.519,0.878,-96.558,28.869,-52.369,0,0,0,
,-0.41,-0.523,0.846,-213.257,27.771,-79.285,0,0,0,
,-0.426,-0.48,0.841,-305.726,46.264,-75.623,0,0,0,
,-0.388,-0.368,0.834,-316.163,60.18,-65.186,0,0,0,
,-0.39,-0.341,0.916,-171.875,25.634,-50.599,0,0,0,
,-0.421,-0.37,0.888,-53.162,12.023,-55.603,0,0,0,
,-0.405,-0.456,0.885,-21.851,6.713,-62.623,0,0,0,
,-0.405,-0.473,0.895,-133.789,14.465,-82.154,0,0,0,
,-0.423,-0.41,0.897,-193.177,23.986,-85.389,0,0,0,
,-0.443,-0.374,0.896,-151.185,13.305,-84.229,0,0,0,
,-0.441,-0.362,0.889,-107.727,3.479,-86.121,0,0,0,
,-0.461,-0.388,0.913,-64.942,-16.48,-91.187,0,0,0,
,-0.461,-0.439,0.92,-97.718,-28.565,-112.061,0,0,0,
,-0.462,-0.456,0.94,-196.778,-24.903,-130.921,0,0,0,
,-0.461,-0.41,0.951,-297.669,-26.917,-144.104,0,0,0,
,-0.455,-0.337,0.933,-343.628,-23.438,-146.424,0,0,0,
,-0.442,-0.25,0.908,-316.04,-26.062,-132.996,0,0,0,
,-0.449,-0.298,0.889,-215.027,-62.073,-183.106,0,0,0,
,-0.419,-0.283,0.878,-253.785,-14.1,-137.696,0,0,0,
,-0.396,-0.219,0.928,-264.283,-16.358,-77.759,0,0,0,
,-0.4,-0.183,0.961,-87.037,-63.416,3.479,0,0,0,
,-0.421,-0.238,0.917,7.141,-63.904,2.014,0,0,0,
,-0.37,-0.28,0.88,27.771,-47.364,4.272,0,0,0,
,-0.36,-0.157,0.893,124.572,-11.719,34.79,0,0,0,
,-0.323,-0.126,0.837,354.858,-32.532,54.443,0,0,0,
,-0.314,-0.22,0.819,416.748,-34.607,60.302,0,0,0,
,-0.334,-0.292,0.847,346.496,-6.47,78.735,0,0,0,
,-0.368,-0.345,0.834,284.729,24.231,89.111,0,0,0,
,-0.446,-0.428,0.81,244.69,36.621,84.289,0,0,0,
,-0.423,-0.456,0.781,154.235,72.815,60.791,0,0,0,
,-0.502,-0.407,0.679,131.347,122.253,75.012,0,0,0,
,-0.514,-0.539,0.714,62.683,128.479,-6.958,0,0,0,
,-0.527,-0.502,0.714,-91.309,179.565,-33.509,0,0,0,
,-0.48,-0.386,0.766,-172.913,224.304,-43.335,0,0,0,
,-0.397,-0.412,0.875,-142.518,217.224,-58.167,0,0,0,
,-0.363,-0.389,0.962,-214.173,203.674,-25.208,0,0,0,
,-0.338,-0.342,0.944,-148.316,176.025,-20.142,0,0,0,
,-0.325,-0.36,0.893,-135.132,174.255,9.704,0,0,0,
,-0.254,-0.361,0.934,-57.557,159.301,-16.968,0,0,0,
,-0.171,-0.428,1.054,-34.485,142.822,-28.382,0,0,0,
,-0.072,-0.527,1.07,-50.538,112.182,-71.534,0,0,0,
,-0.049,-0.502,0.982,-141.968,155.395,-108.704,0,0,0,
,-0.086,-0.264,0.911,-163.819,185.18,-81.543,0,0,0,
,-0.099,-0.191,0.918,31.555,173.584,-52.185,0,0,0,
,-0.143,-0.308,0.981,157.043,143.676,-24.72,0,0,0,
,-0.237,-0.386,0.996,160.949,105.651,-3.296,0,0,0,
,-0.362,-0.474,1.005,172.546,45.715,-2.93,0,0,0,
,-0.4,-0.552,0.919,169.616,3.54,-9.339,0,0,0,
,-0.386,-0.605,0.909,165.039,-26.917,-44.861,0,0,0,
,-0.289,-0.713,0.74,192.443,-47.791,-93.079,0,0,0,
,-0.298,-0.682,0.729,16.723,-10.743,-113.221,0,0,0,
,-0.28,-0.423,0.662,-95.643,25.451,-83.497,0,0,0,
,-0.395,-0.264,0.67,-9.522,42.053,-74.463,0,0,0,
,-0.489,-0.198,0.687,-47.608,82.885,-44.556,0,0,0,
,-0.556,-0.137,0.787,-108.216,124.206,-49.195,0,0,0,
,-0.621,-0.001,0.947,-192.505,152.71,-34.485,0,0,0,
,-0.587,0.011,1.078,29.602,137.024,7.507,0,0,0,
,-0.492,-0.4,1.08,93.994,-3.052,-40.284,0,0,0,
,-0.433,-0.327,0.915,109.985,16.235,-54.688,0,0,0,
,-0.391,-0.294,0.802,131.164,43.09,-53.284,0,0,0,
,-0.33,-0.325,0.741,103.82,85.388,-46.509,0,0,0,
,-0.403,-0.297,0.751,-15.32,115.722,-20.63,0,0,0,
,-0.254,-0.477,0.905,-20.264,159.973,-4.212,0,0,0,
,-0.238,-0.493,0.882,-28.321,134.46,-7.874,0,0,0,
,-0.166,-0.433,0.923,-10.132,135.376,29.541,0,0,0,
,-0.108,-0.45,0.87,189.148,102.417,62.255,0,0,0,
,-0.082,-0.731,0.886,171.875,88.256,16.357,0,0,0,
,-0.035,-0.74,0.841,-39.612,126.342,34.484,0,0,0,
,-0.057,-0.707,0.894,-155.396,141.296,-27.161,0,0,0,
,-0.018,-0.495,0.934,-218.75,130.249,-7.019,0,0,0,
,-0.046,-0.216,0.967,-101.685,108.825,6.713,0,0,0,
,-0.044,-0.176,0.938,114.135,66.955,31.433,0,0,0,
,-0.107,-0.338,0.95,246.704,17.822,56.945,0,0,0,
,-0.212,-0.657,0.978,115.539,-7.996,14.892,0,0,0,
,-0.273,-0.619,1.028,165.466,-52.979,-37.354,0,0,0,
,-0.239,-0.725,0.911,237.06,-75.562,-85.755,0,0,0,
,-0.304,-0.708,0.819,115.905,-60.669,-104.248,0,0,0,
,-0.321,-0.571,0.717,-49.012,-11.78,-109.314,0,0,0,
,-0.31,-0.493,0.712,-97.413,34.484,-126.404,0,0,0,
,-0.374,-0.023,0.8,-69.581,111.999,-5.677,0,0,0,
,-0.426,-0.079,0.882,49.682,71.044,36.682,0,0,0,
,-0.502,-0.213,0.995,55.908,34.851,72.876,0,0,0,
,-0.475,-0.543,1.041,159.118,-7.874,10.681,0,0,0,
,-0.465,-0.674,0.979,59.204,-5.677,-38.392,0,0,0,
,-0.285,-0.342,0.86,177.612,36.987,-58.716,0,0,0,
,-0.256,-0.501,0.893,118.896,57.373,-31.556,0,0,0,
,-0.255,-0.496,0.875,-116.822,71.594,-11.536,0,0,0,
,-0.308,-0.414,0.776,-160.096,46.447,-3.663,0,0,0,
,-0.336,-0.352,0.731,-143.921,70.861,-5.066,0,0,0,
,-0.224,-0.8,1.221,-57.862,-30.64,-136.597,0,0,0,
,-0.092,-0.784,1.583,-434.388,-131.653,22.766,0,0,0,
,-0.132,-0.556,1.047,-143.738,-87.952,17.761,0,0,0,
,-0.158,-0.401,0.809,217.102,-130.005,8.361,0,0,0,
,-0.077,-0.719,0.889,177.063,-114.014,-95.948,0,0,0,
,-0.146,-0.441,0.9,-236.756,59.509,-122.315,0,0,0,
,-0.185,-0.46,0.99,-229.615,78.735,-102.478,0,0,0,
,-0.25,-0.462,1.017,-149.048,47.363,-107.361,0,0,0,
,-0.14,-0.449,0.931,-98.084,48.156,-88.868,0,0,0,
,-0.267,-0.485,0.873,-70.435,45.837,-113.709,0,0,0,
,-0.224,-0.389,0.798,-156.189,82.824,-123.902,0,0,0,
,-0.182,-0.292,0.809,-165.039,142.578,-113.221,0,0,0,
,-0.189,-0.238,0.869,-60.242,119.934,-97.107,0,0,0,
,-0.263,-0.362,1.076,-71.106,115.478,-97.413,0,0,0,
,-0.313,-0.286,1.064,-30.091,64.697,-55.176,0,0,0,
,-0.283,-0.365,1,15.502,58.105,-82.032,0,0,0,
,-0.312,-0.352,0.776,62.622,92.041,-66.895,0,0,0,
,-0.316,-0.562,0.944,8.789,123.413,-84.961,0,0,0,
,-0.396,-0.559,1.117,-45.899,74.768,-132.508,0,0,0,
,-0.3,-0.395,1.034,-98.45,90.026,-146.241,0,0,0,
,-0.366,-0.121,0.913,20.141,120.483,-118.409,0,0,0,
,-0.276,-0.479,0.922,10.925,130.371,-66.59,0,0,0,
,-0.169,-0.338,0.599,-21.851,191.345,-64.759,0,0,0,
,-0.492,-0.161,0.823,-60.791,162.902,-39.856,0,0,0,
,-0.224,-0.188,0.644,-106.873,213.989,-18.799,0,0,0,
,-0.454,-0.168,0.847,19.531,169.006,44.006,0,0,0,
,-0.215,-0.37,0.755,55.847,119.201,56.64,0,0,0,
,-0.385,-0.634,0.97,-32.837,43.701,46.63,0,0,0,
,0.006,-0.867,0.98,-272.767,41.015,-22.828,0,0,0,
,-0.079,-0.698,1.09,-226.929,-28.626,23.986,0,0,0,
,0.057,-0.725,1.101,-39.49,-64.393,-123.352,0,0,0,
,0.118,-0.554,0.89,-169.861,-59.876,-86.731,0,0,0,
,0.066,-0.235,1.015,-199.219,-4.212,-83.069,0,0,0,
,0.352,-0.354,0.984,0.671,-62.256,-92.041,0,0,0,
,0.207,-0.437,1.058,34.362,-67.627,-63.599,0,0,0,
,0.192,-0.451,1.085,34.057,-76.966,-60.547,0,0,0,
,0.072,-0.399,1.128,131.897,-108.826,-46.143,0,0,0,
,-0.066,-0.41,1.051,271.667,-117.615,-55.97,0,0,0,
,-0.209,-0.323,0.913,184.57,-126.526,-27.344,0,0,0,
,-0.349,-0.159,0.846,157.348,-104.248,22.644,0,0,0,
,-0.304,-0.171,0.924,320.617,-137.635,65.246,0,0,0,
,-0.264,-0.354,0.91,439.758,-163.697,70.983,0,0,0,
,-0.275,-0.533,0.984,419.677,-242.859,96.13,0,0,0,
,-0.23,-0.479,0.845,194.091,-207.886,120.849,0,0,0,
,-0.393,-0.374,0.83,167.297,-303.467,173.523,0,0,0,
,-0.279,-0.491,0.78,130.493,-296.753,125.854,0,0,0,
,-0.283,-0.461,0.815,-10.01,-369.263,158.142,0,0,0,
,-0.317,-0.317,0.877,-6.592,-387.696,180.297,0,0,0,
,-0.239,-0.361,0.857,190.002,-499.878,206.909,0,0,0,
,-0.278,-0.45,0.792,344.299,-580.079,219.36,0,0,0,
,-0.245,-0.526,0.62,426.757,-617.737,202.942,0,0,0,
,-0.34,-0.61,0.592,460.815,-722.352,167.114,0,0,0,
,-0.48,-0.631,0.551,378.601,-733.216,145.202,0,0,0,
,-0.516,-0.609,0.532,288.757,-707.459,115.295,0,0,0,
,-0.552,-0.551,0.576,204.895,-677.124,87.402,0,0,0,
,-0.587,-0.501,0.593,195.984,-621.582,75.439,0,0,0,
,-0.587,-0.462,0.596,239.441,-579.895,55.908,0,0,0,
,-0.622,-0.451,0.608,342.956,-514.283,33.996,0,0,0,
,-0.648,-0.478,0.547,468.933,-471.192,-1.893,0,0,0,
,-0.707,-0.542,0.517,588.989,-407.41,-31.189,0,0,0,
,-0.717,-0.584,0.49,624.572,-325.562,-78.736,0,0,0,
,-0.692,-0.615,0.495,562.927,-237.427,-92.102,0,0,0,
,-0.624,-0.609,0.48,459.961,-135.621,-109.681,0,0,0,
,-0.597,-0.633,0.49,449.279,-58.106,-90.088,0,0,0,
,-0.563,-0.667,0.533,502.929,-0.184,-99.915,0,0,0,
,-0.537,-0.769,0.576,541.32,36.377,-155.823,0,0,0,
,-0.522,-0.851,0.635,485.595,92.224,-124.024,0,0,0,
,-0.51,-0.879,0.623,337.89,126.709,-102.051,0,0,0,
,-0.499,-0.856,0.61,169.86,157.898,-91.858,0,0,0,
,-0.494,-0.801,0.598,63.964,176.33,-74.585,0,0,0,
,-0.487,-0.745,0.591,25.512,211.731,-67.261,0,0,0,
,-0.48,-0.724,0.602,78.308,221.13,-58.106,0,0,0,
,-0.492,-0.701,0.647,142.883,263.427,-41.016,0,0,0,
,-0.489,-0.735,0.634,213.195,241.943,-41.504,0,0,0,
,-0.479,-0.765,0.627,241.333,213.684,-14.771,0,0,0,
,-0.487,-0.804,0.604,170.288,194.152,-8.301,0,0,0,
,-0.479,-0.798,0.585,64.392,181.396,-2.808,0,0,0,
,-0.451,-0.747,0.55,10.62,180.175,1.892,0,0,0,
,-0.439,-0.74,0.539,51.147,156.921,14.16,0,0,0,
,-0.442,-0.763,0.565,84.533,119.629,27.893,0,0,0,
,-0.46,-0.795,0.58,45.227,83.496,16.479,0,0,0,
,-0.459,-0.816,0.598,-64.82,60.546,-1.099,0,0,0,
,-0.454,-0.81,0.617,-190.674,41.381,-3.907,0,0,0,
,-0.454,-0.77,0.593,-250.672,30.273,-9.705,0,0,0,
,-0.462,-0.715,0.571,-202.637,25.695,-3.418,0,0,0,
,-0.462,-0.689,0.587,-47.486,3.967,3.295,0,0,0,
,-0.454,-0.703,0.567,62.5,-3.174,2.807,0,0,0,
,-0.45,-0.752,0.548,84.411,-14.222,-3.602,0,0,0,
,-0.451,-0.779,0.537,28.808,-8.362,-3.846,0,0,0,
,-0.449,-0.774,0.547,-52.796,0.732,-4.517,0,0,0,
,-0.454,-0.752,0.561,-61.341,7.324,-1.038,0,0,0,
,-0.464,-0.749,0.566,-32.41,9.826,-5.738,0,0,0,
,-0.464,-0.763,0.57,0.366,5.065,-6.165,0,0,0,
,-0.466,-0.762,0.555,-26.795,12.329,-8.423,0,0,0,
,-0.465,-0.761,0.546,-67.994,11.596,-10.682,0,0,0,
,-0.466,-0.752,0.545,-139.832,23.742,-16.724,0,0,0,
,-0.446,-0.718,0.553,-174.256,36.499,-11.902,0,0,0,
,-0.446,-0.699,0.573,-140.381,42.114,-1.77,0,0,0,
,-0.469,-0.707,0.584,-65.308,39.062,3.784,0,0,0,
,-0.463,-0.729,0.595,-28.565,34.851,-1.282,0,0,0,
,-0.464,-0.746,0.596,-45.96,38.391,-7.508,0,0,0,
,-0.477,-0.741,0.568,-71.778,51.818,-6.043,0,0,0,
,-0.472,-0.74,0.567,-79.346,52.429,-14.039,0,0,0,
,-0.46,-0.73,0.556,-99.549,67.81,-19.043,0,0,0,
,-0.456,-0.718,0.56,-114.075,70.556,-20.081,0,0,0,
,-0.47,-0.732,0.568,-119.996,70.129,-18.677,0,0,0,
,-0.483,-0.758,0.582,-152.283,65.063,-29.541,0,0,0,
,-0.465,-0.751,0.612,-229.981,72.448,-39.124,0,0,0,
,-0.459,-0.723,0.605,-259.278,80.749,-31.8,0,0,0,
,-0.44,-0.665,0.623,-190.308,73.242,-27.344,0,0,0,
,-0.414,-0.609,0.614,-82.764,77.941,-21.729,0,0,0,
,-0.407,-0.645,0.6,63.476,58.105,-31.25,0,0,0,
,-0.427,-0.73,0.606,125.671,41.259,-42.786,0,0,0,
,-0.447,-0.788,0.607,33.203,53.222,-52.43,0,0,0,
,-0.443,-0.761,0.624,-88.623,65.429,-35.95,0,0,0,
,-0.455,-0.704,0.62,-119.385,74.951,-24.903,0,0,0,
,-0.457,-0.676,0.612,-65.613,67.443,-32.471,0,0,0,
,-0.46,-0.694,0.603,-30.64,68.603,-34.058,0,0,0,
,-0.455,-0.693,0.607,-39.307,73.669,-28.199,0,0,0,
,-0.468,-0.687,0.609,-44.068,78.674,-11.841,0,0,0,
,-0.493,-0.722,0.613,-49.683,92.773,-21.363,0,0,0,
,-0.497,-0.745,0.625,-134.278,82.702,-36.56,0,0,0,
,-0.483,-0.729,0.62,-246.644,103.21,-41.077,0,0,0,
,-0.454,-0.63,0.62,-288.697,134.399,-28.443,0,0,0,
,-0.433,-0.553,0.647,-208.008,139.648,-28.992,0,0,0,
,-0.434,-0.591,0.666,28.686,112.854,-42.054,0,0,0,
,-0.446,-0.713,0.681,152.832,85.937,-58.289,0,0,0,
,-0.432,-0.778,0.696,67.016,89.843,-67.017,0,0,0,
,-0.4,-0.751,0.66,-97.107,111.572,-58.228,0,0,0,
,-0.38,-0.633,0.616,-151.917,139.465,-14.893,0,0,0,
,-0.349,-0.572,0.604,-96.07,147.094,-9.888,0,0,0,
,-0.337,-0.645,0.625,29.48,110.595,-15.503,0,0,0,
,-0.346,-0.754,0.7,18.188,91.613,-25.269,0,0,0,
,-0.319,-0.819,0.711,-107.605,103.393,-54.932,0,0,0,
,-0.306,-0.801,0.73,-225.831,79.162,-55.115,0,0,0,
,-0.362,-0.718,0.72,-276.795,74.707,-42.725,0,0,0,
,-0.362,-0.646,0.707,-275.391,80.322,-65.247,0,0,0,
,-0.332,-0.607,0.713,-195.923,56.64,-52.979,0,0,0,
,-0.362,-0.624,0.719,-95.032,35.949,-34.546,0,0,0,
,-0.369,-0.651,0.722,-112.244,29.357,-35.279,0,0,0,
,-0.372,-0.687,0.704,-156.373,40.588,-42.969,0,0,0,
,-0.364,-0.678,0.703,-187.439,40.283,-38.269,0,0,0,
,-0.374,-0.665,0.711,-200.501,45.715,-42.298,0,0,0,
,-0.397,-0.647,0.732,-185.852,57.678,-52.002,0,0,0,
,-0.394,-0.619,0.736,-175.293,64.086,-57.19,0,0,0,
,-0.38,-0.624,0.734,-149.537,65.063,-58.899,0,0,0,
,-0.386,-0.675,0.713,-186.158,58.654,-70.496,0,0,0,
,-0.401,-0.705,0.727,-322.083,77.514,-92.896,0,0,0,
,-0.379,-0.609,0.682,-471.497,106.018,-84.351,0,0,0,
,-0.369,-0.523,0.814,-520.752,78.674,-65.003,0,0,0,
,-0.4,-0.465,0.794,-447.876,87.341,-65.979,0,0,0,
,-0.402,-0.435,0.864,-242.249,56.03,-16.175,0,0,0,
,-0.355,-0.446,0.789,-50.782,44.128,-30.213,0,0,0,
,-0.372,-0.564,0.762,-0.55,16.601,-41.199,0,0,0,
,-0.428,-0.643,0.812,-39.124,32.043,-43.763,0,0,0,
,-0.382,-0.574,0.772,-237.793,81.848,-80.811,0,0,0,
,-0.369,-0.483,0.8,-259.095,84.472,-60.73,0,0,0,
,-0.4,-0.439,0.82,-101.441,61.279,-45.411,0,0,0,
,-0.37,-0.497,0.814,-32.227,49.133,-44.19,0,0,0,
,-0.376,-0.537,0.811,-10.804,33.203,-31.556,0,0,0,
,-0.38,-0.596,0.847,-78.431,32.287,-49.744,0,0,0,
,-0.378,-0.619,0.823,-178.65,37.109,-62.623,0,0,0,
,-0.418,-0.618,0.835,-226.319,25.878,-88.99,0,0,0,
,-0.409,-0.552,0.832,-292.481,38.269,-117.554,0,0,0,
,-0.383,-0.477,0.835,-294.007,41.992,-124.146,0,0,0,
,-0.405,-0.415,0.821,-192.383,39.245,-95.643,0,0,0,
,-0.405,-0.408,0.811,-109.253,40.283,-89.844,0,0,0,
,-0.42,-0.457,0.855,-70.069,29.663,-86.548,0,0,0,
,-0.421,-0.512,0.871,-115.357,30.822,-96.924,0,0,0,
,-0.38,-0.506,0.861,-177.796,34.362,-105.957,0,0,0,
,-0.391,-0.458,0.853,-163.086,30.639,-97.413,0,0,0,
,-0.401,-0.429,0.843,-95.215,20.263,-101.136,0,0,0,
,-0.383,-0.428,0.804,-60.364,23.864,-106.568,0,0,0,
,-0.399,-0.444,0.833,-45.716,27.465,-105.103,0,0,0,
,-0.427,-0.489,0.846,-79.285,42.419,-114.258,0,0,0,
,-0.421,-0.492,0.889,-153.077,39.794,-117.127,0,0,0,
,-0.44,-0.446,0.932,-188.843,34.545,-99.427,0,0,0,
,-0.434,-0.306,1.009,-107.727,18.737,-69.825,0,0,0,
,-0.434,-0.276,1.004,148.864,-60.12,-31.434,0,0,0,
,-0.446,-0.389,0.936,316.772,-125.611,-49.256,0,0,0,
,-0.445,-0.551,0.861,224.06,-113.16,-95.643,0,0,0,
,-0.424,-0.588,0.748,-40.65,-8.484,-126.282,0,0,0,
,-0.448,-0.508,0.716,-233.277,80.444,-158.509,0,0,0,
,-0.431,-0.443,0.721,-355.408,161.499,-204.59,0,0,0,
,-0.417,-0.285,0.838,-231.202,213.623,-134.644,0,0,0,
,-0.423,-0.355,0.876,-181.397,172.607,-108.46,0,0,0,
,-0.401,-0.37,0.916,-224.854,181.091,-70.618,0,0,0,
,-0.376,-0.283,0.932,-178.406,168.151,-19.043,0,0,0,
,-0.391,-0.233,0.871,15.441,115.722,17.578,0,0,0,
,-0.394,-0.302,0.84,101.867,92.224,30.212,0,0,0,
,-0.388,-0.388,0.809,54.809,94.848,36.865,0,0,0,
,-0.336,-0.471,0.854,-16.236,109.68,23.742,0,0,0,
,-0.312,-0.436,0.776,-113.77,150.39,48.339,0,0,0,
,-0.315,-0.473,0.685,-102.478,184.631,-3.296,0,0,0,
,-0.267,-0.582,0.716,-190.674,247.802,-60.547,0,0,0,
,-0.236,-0.468,0.774,-329.773,315.002,-96.192,0,0,0,
,-0.178,-0.327,0.863,-340.394,325.805,-111.817,0,0,0,
,-0.147,-0.308,1.026,-307.679,278.869,-95.581,0,0,0,
,-0.01,-0.235,1.022,-271.546,254.516,-28.504,0,0,0,
,-0.039,-0.334,1.033,-74.83,176.757,-0.123,0,0,0,
,-0.001,-0.42,0.964,-27.588,151.062,13.855,0,0,0,
,-0.09,-0.39,0.992,-23.682,151.367,13.061,0,0,0,
,-0.102,-0.295,1.03,-25.269,143.982,3.662,0,0,0,
,-0.151,-0.211,1.088,76.843,121.154,15.564,0,0,0,
,-0.25,-0.213,1.093,186.401,66.894,53.588,0,0,0,
,-0.273,-0.334,0.981,289.001,14.831,82.58,0,0,0,
,-0.436,-0.526,0.955,349.304,-62.5,51.574,0,0,0,
,-0.335,-0.721,0.927,299.438,-79.59,-20.874,0,0,0,
,-0.347,-0.797,0.778,154.235,-62.012,-98.938,0,0,0,
,-0.324,-0.605,0.713,-147.4,37.841,-135.987,0,0,0,
,-0.285,-0.346,0.724,-198.853,57.617,-142.212,0,0,0,
,-0.279,-0.126,0.78,-178.223,77.575,-124.451,0,0,0,
,-0.343,-0.054,0.832,-145.325,81.115,-62.317,0,0,0,
,-0.46,-0.079,0.9,-74.158,73.425,-30.152,0,0,0,
,-0.581,-0.162,1.058,-102.173,57.861,-31.311,0,0,0,
,-0.5,-0.309,1.08,-80.872,49.316,-50.477,0,0,0,
,-0.542,-0.297,1.078,-33.692,20.263,-65.491,0,0,0,
,-0.394,-0.245,1.027,31.433,31.86,-75.928,0,0,0,
,-0.32,-0.349,0.984,28.747,47.607,-92.102,0,0,0,
,-0.292,-0.292,0.9,-82.337,70.373,-59.082,0,0,0,
,-0.312,-0.213,0.799,-64.454,74.035,-47.669,0,0,0,
,-0.267,-0.23,0.684,-125.916,119.079,-16.663,0,0,0,
,-0.164,-0.292,0.744,-119.751,160.095,-28.077,0,0,0,
,-0.121,-0.466,1.008,-160.34,163.208,-29.725,0,0,0,
,-0.071,-0.449,1.192,-127.015,104.187,-32.166,0,0,0,
,-0.011,-0.42,1.199,-5.616,23.62,-44.373,0,0,0,
,0.074,-0.486,1.003,-41.504,27.587,-55.726,0,0,0,
,0.056,-0.251,0.775,-159.852,83.923,2.929,0,0,0,
,0.062,-0.312,0.801,-84.717,97.656,-2.564,0,0,0,
,-0.072,-0.238,0.951,-49.866,125.793,36.743,0,0,0,
,-0.282,-0.271,1.119,99.609,69.03,9.582,0,0,0,
,-0.374,-0.417,1.231,131.591,-0.794,-7.996,0,0,0,
,-0.415,-0.476,1.253,89.965,-69.642,-38.208,0,0,0,
,-0.282,-0.51,1.04,121.826,-119.812,-80.567,0,0,0,
,-0.231,-0.49,0.877,54.138,-102.417,-111.634,0,0,0,
,-0.162,-0.343,0.721,-35.889,-30.64,-126.038,0,0,0,
,-0.131,-0.3,0.748,-67.994,28.32,-144.043,0,0,0,
,-0.143,-0.317,0.888,-158.57,75.317,-161.072,0,0,0,
,-0.223,-0.188,0.995,-227.295,117.675,-158.753,0,0,0,
,-0.344,-0.031,1.104,-143.494,107.971,-120.85,0,0,0,
,-0.425,0.048,1.004,16.296,98.388,-58.899,0,0,0,
,-0.468,-0.009,0.855,105.713,74.218,-15.015,0,0,0,
,-0.542,-0.17,1.053,86.486,58.837,-23.804,0,0,0,
,-0.381,-0.461,1.052,120.727,56.64,-62.623,0,0,0,
,-0.427,-0.426,0.933,-25.635,66.101,-89.783,0,0,0,
,-0.369,-0.216,0.859,-55.237,63.964,-98.816,0,0,0,
,-0.285,-0.253,0.85,81.359,49.438,-102.478,0,0,0,
,-0.232,-0.373,0.885,32.531,57.617,-102.967,0,0,0,
,-0.197,-0.326,0.896,-147.95,83.496,-76.783,0,0,0,
,-0.183,-0.175,0.791,-200.379,105.59,-39.978,0,0,0,
,-0.147,-0.193,0.795,-106.568,111.938,-23.926,0,0,0,
,-0.133,-0.296,0.822,-69.825,115.661,-0.611,0,0,0,
,-0.115,-0.397,0.942,-82.825,113.525,-18.738,0,0,0,
,0.027,-0.556,1.152,-94.971,55.969,-66.102,0,0,0,
,0.001,-0.638,1.077,-217.347,37.658,-115.052,0,0,0,
,-0.086,-0.362,0.939,-393.189,127.807,-121.766,0,0,0,
,-0.06,-0.032,0.951,-292.969,148.193,-99.122,0,0,0,
,-0.039,-0.092,1.134,-62.439,101.501,-80.872,0,0,0,
,-0.149,-0.211,1.232,13.732,52.734,-47.242,0,0,0,
,-0.243,-0.232,1.161,31.921,11.779,-37.232,0,0,0,
,-0.233,-0.328,1.088,38.024,5.493,-81.116,0,0,0,
,-0.217,-0.336,0.934,61.645,39.733,-97.84,0,0,0,
,-0.178,-0.322,0.806,-28.87,110.962,-140.198,0,0,0,
,-0.178,-0.282,0.851,-139.588,163.94,-180.726,0,0,0,
,-0.181,-0.235,0.932,-242.31,216.43,-178.528,0,0,0,
,-0.231,-0.16,1.041,-193.299,201.782,-168.824,0,0,0,
,-0.199,-0.172,1.099,-131.287,175.659,-154.969,0,0,0,
,-0.187,-0.067,0.965,-49.439,159.79,-105.591,0,0,0,
,-0.198,-0.11,0.886,15.686,145.691,-80.872,0,0,0,
,-0.107,-0.205,0.92,3.967,168.335,-59.876,0,0,0,
,-0.211,-0.343,1.03,27.282,125.122,-92.774,0,0,0,
,-0.102,-0.377,1.124,-124.939,139.404,-110.657,0,0,0,
,-0.178,-0.11,1.1,-42.908,127.441,-103.638,0,0,0,
,-0.178,-0.013,0.981,149.841,95.703,-51.148,0,0,0,
,-0.287,-0.034,1.015,300.415,93.444,13.366,0,0,0,
,-0.153,-0.216,0.89,384.765,101.501,30.334,0,0,0,
,-0.138,-0.369,0.812,333.313,54.504,27.71,0,0,0,
,-0.218,-0.479,0.791,145.446,83.129,-31.189,0,0,0,
,-0.226,-0.282,0.9,-127.991,139.038,-3.174,0,0,0,
,-0.286,-0.19,1.028,38.269,46.936,-8.24,0,0,0,
,-0.206,-0.307,1.024,73.303,-10.865,4.699,0,0,0,
,-0.186,0.038,0.642,-111.39,44.006,155.822,0,0,0,
,-0.322,0.26,0.665,-71.778,49.682,235.656,0,0,0,
,-0.12,-0.171,0.884,139.343,-26.551,136.84,0,0,0,
,-0.127,-0.517,0.933,15.991,30.09,152.771,0,0,0,
,-0.014,-1.167,1.894,166.137,-243.836,-71.656,0,0,0,
,0.022,-0.985,1.244,-287.72,-53.528,63.232,0,0,0,
,-0.055,0.041,0.78,-470.887,52.612,45.593,0,0,0,
,0.063,0.033,0.842,150.634,-90.76,-45.472,0,0,0,
,0.188,-0.507,1.009,185.547,-78.675,-122.315,0,0,0,
,0.049,-0.672,1.109,-209.168,3.662,-102.723,0,0,0,
,0.051,-0.658,1.535,-446.351,12.268,-264.283,0,0,0,
,0.036,-0.387,1.575,-267.945,-54.261,-229.187,0,0,0,
,0.058,-0.062,1.367,107.544,-109.681,-205.079,0,0,0,
,0.187,-0.101,0.682,660.705,-129.395,-143.555,0,0,0,
,-0.048,-0.327,0.726,204.834,-99.427,-192.872,0,0,0,
,-0.12,0.22,0.583,-409.729,155.456,13.794,0,0,0,
,-0.186,0.113,0.709,161.01,73.608,-24.964,0,0,0,
,-0.255,-0.404,0.915,230.041,137.695,-72.022,0,0,0,
,-0.349,-0.329,1.001,63.232,179.87,-21.729,0,0,0,
,-0.329,-0.292,1.061,48.95,142.578,-77.698,0,0,0,
,-0.317,-0.358,1.1,10.376,83.679,-77.21,0,0,0,
,-0.15,-0.3,1.119,-3.174,14.587,-45.716,0,0,0,
,-0.134,-0.199,1.111,175.903,-102.051,-8.851,0,0,0,
,-0.101,-0.259,1.048,262.146,-178.894,14.953,0,0,0,
,-0.056,-0.278,0.961,230.774,-151.795,53.711,0,0,0,
,-0.002,-0.256,0.881,187.561,-184.693,65.918,0,0,0,
,-0.032,-0.19,0.884,94.665,-190.674,104.431,0,0,0,
,-0.055,-0.017,0.944,103.454,-230.652,185.18,0,0,0,
,-0.144,-0.037,0.944,430.542,-375.061,285.339,0,0,0,
,-0.16,-0.323,0.831,712.036,-465.76,293.457,0,0,0,
,-0.247,-0.629,0.676,628.296,-540.345,301.941,0,0,0,
,-0.283,-0.652,0.693,101.806,-469.727,276.184,0,0,0,
,-0.156,-0.473,0.588,-329.773,-431.214,323.791,0,0,0,
,-0.243,-0.323,0.656,-352.234,-468.75,299.194,0,0,0,
,-0.266,-0.312,0.713,-237.305,-462.647,297.363,0,0,0,
,-0.254,-0.307,0.727,-41.81,-465.455,310.058,0,0,0,
,-0.245,-0.414,0.763,331.848,-601.197,335.632,0,0,0,
,-0.345,-0.604,0.808,412.719,-605.774,226.074,0,0,0,
,-0.332,-0.639,0.838,303.65,-601.807,230.835,0,0,0,
,-0.309,-0.528,0.795,161.56,-558.96,263.183,0,0,0,
,-0.336,-0.428,0.711,211.303,-535.218,309.143,0,0,0,
,-0.396,-0.407,0.662,444.397,-531.495,357.116,0,0,0,
,-0.474,-0.482,0.674,676.086,-527.344,343.322,0,0,0,
,-0.518,-0.562,0.71,784.362,-475.769,264.831,0,0,0,
,-0.535,-0.666,0.731,757.568,-388.184,212.829,0,0,0,
,-0.529,-0.706,0.75,751.037,-319.764,194.397,0,0,0,
,-0.537,-0.722,0.76,714.843,-237.549,152.16,0,0,0,
,-0.547,-0.728,0.767,641.662,-140.442,89.416,0,0,0,
,-0.528,-0.734,0.764,566.04,-63.233,28.93,0,0,0,
,-0.51,-0.739,0.775,487.976,-25.757,-23.133,0,0,0,
,-0.516,-0.741,0.762,413.513,22.338,-66.956,0,0,0,
,-0.517,-0.738,0.759,330.993,83.007,-109.62,0,0,0,
,-0.522,-0.748,0.8,262.451,134.704,-151.429,0,0,0,
,-0.461,-0.715,0.769,194.03,179.565,-188.233,0,0,0,
,-0.413,-0.669,0.723,169.922,189.453,-192.872,0,0,0,
,-0.403,-0.685,0.712,250.793,171.875,-198.121,0,0,0,
,-0.44,-0.777,0.698,216.797,174.865,-219.666,0,0,0,
,-0.42,-0.809,0.694,66.833,182.312,-211.548,0,0,0,
,-0.368,-0.705,0.602,-72.388,198.852,-192.2,0,0,0,
,-0.433,-0.627,0.623,-63.66,193.298,-121.216,0,0,0,
,-0.403,-0.613,0.631,52.124,192.443,-167.542,0,0,0,
,-0.366,-0.691,0.627,146.728,178.894,-181.58,0,0,0,
,-0.399,-0.751,0.687,120.178,181.213,-147.278,0,0,0,
,-0.405,-0.747,0.658,16.052,194.397,-158.753,0,0,0,
,-0.397,-0.717,0.624,-21.363,197.326,-170.289,0,0,0,
,-0.396,-0.691,0.643,42.114,182.861,-167.481,0,0,0,
,-0.401,-0.696,0.627,85.754,158.203,-156.25,0,0,0,
,-0.377,-0.724,0.625,82.58,149.109,-144.654,0,0,0,
,-0.373,-0.747,0.664,-20.02,128.601,-112.183,0,0,0,
,-0.393,-0.783,0.671,-187.561,107.91,-115.784,0,0,0,
,-0.398,-0.737,0.682,-334.29,100.28,-98.267,0,0,0,
,-0.381,-0.69,0.683,-351.075,76.782,-83.863,0,0,0,
,-0.385,-0.662,0.675,-293.641,57.495,-60.608,0,0,0,
,-0.364,-0.656,0.672,-256.714,44.128,-62.073,0,0,0,
,-0.337,-0.639,0.674,-247.254,34.545,-58.289,0,0,0,
,-0.353,-0.655,0.693,-241.761,23.742,-50.415,0,0,0,
,-0.374,-0.702,0.757,-308.899,32.104,-47.181,0,0,0,
,-0.386,-0.695,0.775,-356.446,37.841,-44.678,0,0,0,
,-0.393,-0.636,0.754,-324.83,44.982,-41.626,0,0,0,
,-0.37,-0.57,0.741,-212.647,34.179,-30.518,0,0,0,
,-0.351,-0.558,0.71,-104.432,17.334,-17.334,0,0,0,
,-0.356,-0.615,0.71,-49.378,-5.066,-16.419,0,0,0,
,-0.362,-0.68,0.752,-133.362,0.61,-34.974,0,0,0,
,-0.368,-0.674,0.765,-274.476,18.432,-37.903,0,0,0,
,-0.385,-0.571,0.767,-319.519,28.93,-19.165,0,0,0,
,-0.408,-0.499,0.766,-164.551,27.465,12.817,0,0,0,
,-0.396,-0.499,0.722,66.467,4.821,23.864,0,0,0,
,-0.389,-0.607,0.7,158.081,-8.545,18.737,0,0,0,
,-0.402,-0.715,0.712,28.381,20.874,-1.831,0,0,0,
,-0.384,-0.71,0.751,-187.195,45.532,-16.236,0,0,0,
,-0.366,-0.595,0.765,-277.344,63.964,-12.269,0,0,0,
,-0.317,-0.484,0.711,-168.885,88.195,-38.697,0,0,0,
,-0.355,-0.539,0.792,76.416,20.996,-4.578,0,0,0,
,-0.398,-0.586,0.808,233.337,17.517,1.648,0,0,0,
,-0.433,-0.734,0.734,184.082,20.752,-44.373,0,0,0,
,-0.444,-0.758,0.753,-17.64,44.372,-59.876,0,0,0,
,-0.41,-0.666,0.749,-272.339,76.599,-78.186,0,0,0,
,-0.383,-0.509,0.744,-319.397,83.129,-50.538,0,0,0,
,-0.383,-0.44,0.736,-157.837,62.255,-34.302,0,0,0,
,-0.371,-0.507,0.671,0.732,50.598,-39.673,0,0,0,
,-0.37,-0.617,0.785,26.367,17.456,-21.668,0,0,0,
,-0.385,-0.711,0.786,-72.205,26.184,-47.974,0,0,0,
,-0.398,-0.754,0.777,-229.371,43.701,-86.731,0,0,0,
,-0.366,-0.649,0.77,-373.536,66.101,-100.159,0,0,0,
,-0.381,-0.513,0.761,-351.014,65.612,-98.938,0,0,0,
,-0.377,-0.457,0.772,-206.604,51.269,-104.187,0,0,0,
,-0.37,-0.473,0.775,-46.57,28.32,-85.694,0,0,0,
,-0.366,-0.542,0.789,-23.438,15.502,-88.318,0,0,0,
,-0.352,-0.586,0.793,-132.569,28.991,-85.45,0,0,0,
,-0.343,-0.528,0.807,-226.197,50.048,-67.566,0,0,0,
,-0.347,-0.478,0.809,-199.585,43.64,-55.664,0,0,0,
,-0.344,-0.459,0.823,-119.446,33.508,-41.871,0,0,0,
,-0.338,-0.459,0.822,-41.138,32.714,-29.297,0,0,0,
,-0.341,-0.462,0.806,30.883,25.024,-8.301,0,0,0,
,-0.354,-0.512,0.788,82.031,13.366,0.427,0,0,0,
,-0.388,-0.589,0.828,-14.283,16.967,-9.156,0,0,0,
,-0.387,-0.55,0.843,-132.691,31.005,-7.142,0,0,0,
,-0.359,-0.489,0.841,-161.133,23.986,2.563,0,0,0,
,-0.331,-0.421,0.824,-51.026,23.193,4.516,0,0,0,
,-0.364,-0.493,0.815,125.122,-21.485,24.719,0,0,0,
,-0.396,-0.57,0.816,-44.678,-3.54,-17.518,0,0,0,
,-0.386,-0.503,0.806,-71.228,4.943,-27.71,0,0,0,
,-0.389,-0.483,0.789,-24.964,-3.724,-23.072,0,0,0,
,-0.393,-0.497,0.79,17.578,-13.184,-21.546,0,0,0,
,-0.376,-0.494,0.782,6.347,3.112,-25.94,0,0,0,
,-0.362,-0.508,0.786,22.888,1.037,-14.1,0,0,0,
,-0.395,-0.54,0.831,39.306,5.432,-9.156,0,0,0,
,-0.393,-0.574,0.838,11.291,2.868,-21.424,0,0,0,
,-0.36,-0.59,0.889,-56.031,-19.471,-26.185,0,0,0,
,-0.313,-0.521,0.964,-95.032,-12.146,-40.894,0,0,0,
,-0.32,-0.648,0.967,250.976,-218.445,-44.373,0,0,0,
,-0.407,-0.785,1.005,178.039,-290.406,-100.464,0,0,0,
,-0.448,-0.76,0.994,-164.917,-297.059,-145.02,0,0,0,
,-0.421,-0.563,0.962,-445.435,-301.453,-143.494,0,0,0,
,-0.421,-0.434,0.861,-373.597,-349.427,-138.489,0,0,0,
,-0.443,-0.425,0.782,-228.699,-377.747,-119.263,0,0,0,
,-0.45,-0.447,0.726,-219.483,-365.723,-108.826,0,0,0,
,-0.462,-0.428,0.683,-293.763,-324.646,-86.426,0,0,0,
,-0.483,-0.406,0.667,-352.601,-275.94,-75.684,0,0,0,
,-0.503,-0.388,0.626,-288.208,-230.835,-52.491,0,0,0,
,-0.522,-0.37,0.619,-178.833,-195.13,-11.902,0,0,0,
,-0.546,-0.394,0.593,-68.36,-147.522,4.76,0,0,0,
,-0.564,-0.423,0.572,-17.579,-90.394,15.441,0,0,0,
,-0.555,-0.374,0.526,-14.344,-0.489,20.996,0,0,0,
,-0.551,-0.359,0.484,55.969,76.782,34.606,0,0,0,
,-0.544,-0.355,0.492,158.508,147.766,51.879,0,0,0,
,-0.535,-0.424,0.52,268.31,214.355,45.41,0,0,0,
,-0.517,-0.563,0.564,336.547,250.976,32.653,0,0,0,
,-0.512,-0.643,0.575,214.05,316.467,9.948,0,0,0,
,-0.498,-0.596,0.622,-2.991,391.113,-7.142,0,0,0,
,-0.493,-0.469,0.624,-104.798,450.622,-8.484,0,0,0,
,-0.467,-0.391,0.735,21.057,446.716,-0.55,0,0,0,
,-0.441,-0.481,0.819,220.092,403.625,-19.043,0,0,0,
,-0.433,-0.629,0.85,287.597,368.896,-20.081,0,0,0,
,-0.41,-0.624,0.855,166.87,359.619,-11.963,0,0,0,
,-0.389,-0.53,0.804,52.246,364.868,-2.137,0,0,0,
,-0.378,-0.477,0.771,60.852,357.238,6.286,0,0,0,
,-0.368,-0.58,0.89,86.608,303.527,3.356,0,0,0,
,-0.337,-0.726,1.015,-64.026,252.746,-30.762,0,0,0,
,-0.293,-0.677,1.051,-286.499,224.792,-23.133,0,0,0,
,-0.288,-0.494,0.99,-299.012,185.913,6.652,0,0,0,
,-0.277,-0.376,0.9,-109.009,133.606,0.244,0,0,0,
,-0.29,-0.452,0.8,144.043,93.322,-2.442,0,0,0,
,-0.331,-0.616,0.847,208.923,71.472,-11.658,0,0,0,
,-0.339,-0.744,0.899,5.371,103.332,-63.599,0,0,0,
,-0.315,-0.626,0.916,-279.664,152.649,-72.083,0,0,0,
,-0.324,-0.421,0.885,-273.499,142.883,-49.012,0,0,0,
,-0.336,-0.386,0.848,-76.844,83.984,-46.204,0,0,0,
,-0.321,-0.508,0.919,3.967,22.644,-73.182,0,0,0,
,-0.337,-0.52,0.925,-135.315,50.903,-59.082,0,0,0,
,-0.345,-0.4,0.847,-139.039,54.809,-34.485,0,0,0,
,-0.348,-0.448,0.812,45.044,18.31,-32.898,0,0,0,
,-0.372,-0.606,0.866,10.131,15.014,-57.19,0,0,0,
,-0.392,-0.608,0.84,-206.788,78.186,-82.642,0,0,0,
,-0.371,-0.537,0.922,-312.745,80.871,-85.755,0,0,0,
,-0.409,-0.529,0.929,-245.301,39.55,-96.497,0,0,0,
,-0.442,-0.598,0.936,-226.685,9.704,-145.203,0,0,0,
,-0.422,-0.571,0.871,-325.379,28.381,-191.712,0,0,0,
,-0.468,-0.513,0.878,-365.296,27.221,-193.848,0,0,0,
,-0.48,-0.408,0.9,-405.823,31.86,-181.702,0,0,0,
,-0.407,-0.401,0.872,-362.61,13.427,-198.487,0,0,0,
,-0.357,-0.482,0.878,-342.652,-0.489,-236.329,0,0,0,
,-0.301,-0.476,0.862,-411.499,22.399,-235.596,0,0,0,
,-0.351,-0.423,0.838,-392.64,24.78,-228.211,0,0,0,
,-0.336,-0.376,0.83,-466.065,47.912,-257.569,0,0,0,
,-0.302,-0.255,0.864,-503.235,68.359,-198.548,0,0,0,
,-0.341,-0.213,0.859,-388.367,55.969,-166.687,0,0,0,
,-0.296,-0.284,0.812,-329.224,70.8,-144.715,0,0,0,
,-0.374,-0.368,0.874,-351.807,74.401,-149.903,0,0,0,
,-0.347,-0.376,0.811,-478.882,141.845,-169.678,0,0,0,
,-0.344,-0.25,0.871,-596.619,190.002,-166.26,0,0,0,
,-0.338,-0.099,0.932,-557.679,234.68,-151.734,0,0,0,
,-0.297,-0.027,0.965,-432.373,222.29,-97.596,0,0,0,
,-0.31,0.076,0.82,-183.167,289.856,34.484,0,0,0,
,-0.259,-0.414,1.009,-75.135,145.019,-99.61,0,0,0,
,-0.29,-0.282,0.963,-519.227,339.843,-78.736,0,0,0,
,-0.285,0.011,0.783,-317.322,336.303,-56.153,0,0,0,
,-0.302,-0.058,0.998,-209.534,294.006,-57.74,0,0,0,
,-0.149,0.095,0.939,-201.172,333.313,42.175,0,0,0,
,-0.159,-0.05,1.019,49.865,257.446,118.347,0,0,0,
,-0.124,-0.244,0.996,54.138,244.384,132.629,0,0,0,
,-0.172,-0.254,0.917,-82.093,266.174,80.505,0,0,0,
,-0.239,-0.182,0.93,-169.251,267.395,-6.531,0,0,0,
,-0.195,0.053,0.962,-219.117,320.068,-34.241,0,0,0,
,-0.148,0.15,0.987,8.361,262.085,2.319,0,0,0,
,-0.104,0.078,1.013,153.32,244.079,81.97,0,0,0,
,-0.151,-0.091,1.065,286.621,163.33,99.914,0,0,0,
,-0.16,-0.29,1.249,95.153,99.731,116.027,0,0,0,
,0.004,0.044,1.003,451.233,14.038,170.959,0,0,0,
,-0.152,-0.085,0.944,419.983,95.703,183.227,0,0,0,
,-0.079,-0.002,0.875,822.937,-12.085,264.648,0,0,0,
,-0.21,-0.379,1.084,775.024,-37.049,177.185,0,0,0,
,-0.572,-0.56,0.964,500.488,35.644,213.256,0,0,0,
,-0.03,-0.446,0.972,204.651,236.816,51.757,0,0,0,
,-0.14,-0.38,0.742,685.669,3.967,46.508,0,0,0,
,-0.162,-0.824,0.728,408.691,114.441,-144.959,0,0,0,
,-0.089,-0.749,0.572,-32.593,245.117,-128.418,0,0,0,
,-0.252,-0.691,0.723,-290.345,320.861,-209.29,0,0,0,
,-0.183,-0.496,0.824,-439.698,380.798,-177.247,0,0,0,
,-0.286,-0.26,0.954,-239.136,307.922,-124.939,0,0,0,
,-0.269,-0.45,1.09,-36.255,167.48,-149.781,0,0,0,
,-0.234,-0.607,1.108,-139.771,85.51,-120.85,0,0,0,
,-0.156,-0.391,0.982,-113.16,36.621,-72.022,0,0,0,
,-0.115,-0.358,0.855,71.35,-67.383,-85.267,0,0,0,
,-0.001,-0.346,0.788,23.315,-24.231,-62.867,0,0,0,
,-0.048,-0.333,0.778,1.525,-24.659,-62.256,0,0,0,
,-0.046,-0.469,0.891,-151.246,25.512,-78.309,0,0,0,
,-0.052,-0.389,1.089,-229.798,58.593,-55.909,0,0,0,
,-0.062,-0.264,1.163,-17.884,-13.672,-31.8,0,0,0,
,-0.067,-0.22,1.118,136.901,-59.937,-1.893,0,0,0,
,-0.14,-0.118,0.988,256.958,-105.347,63.354,0,0,0,
,-0.201,-0.254,0.877,304.443,-108.277,51.513,0,0,0,
,-0.269,-0.387,0.823,182.434,-57.862,55.236,0,0,0,
,-0.351,-0.411,0.79,83.068,18.493,13.244,0,0,0,
,-0.432,-0.277,0.777,48.95,91.186,11.718,0,0,0,
,-0.313,-0.355,0.898,129.821,135.009,-40.223,0,0,0,
,-0.175,-0.524,1.051,103.393,134.094,-54.566,0,0,0,
,-0.178,-0.501,1.106,-113.404,140.564,-72.754,0,0,0,
,-0.188,-0.189,1.051,-204.163,157.592,-37.11,0,0,0,
,-0.204,-0.15,0.968,1.403,110.595,-50.293,0,0,0,
,-0.136,-0.246,0.88,20.324,130.127,-23.804,0,0,0,
,-0.146,-0.214,0.795,-1.893,155.517,33.325,0,0,0,
,-0.095,-0.412,0.796,41.381,156.677,14.648,0,0,0,
,-0.04,-0.411,0.117,-314.759,325.378,81.054,0,0,0,
,0.391,-1.361,2.631,-26.307,-126.038,-381.592,0,0,0,
,0.196,-0.455,0.869,-760.498,217.224,169.311,0,0,0,
,0.03,0.482,0.741,-307.923,3.173,-46.021,0,0,0,
,0.468,-0.232,0.912,363.22,-126.893,-101.258,0,0,0,
,0.429,-0.498,1.009,306.03,-105.408,20.507,0,0,0,
,-0.1,-0.34,1.006,13.366,-122.986,-37.11,0,0,0,
,-0.332,0.013,0.777,142.334,-106.69,-3.174,0,0,0,
,-0.339,-0.07,0.749,211.731,-71.351,0.732,0,0,0,
,-0.284,-0.251,0.914,176.33,-49.622,13.488,0,0,0,
,-0.182,-0.495,0.968,3.051,-13.977,-127.442,0,0,0,
,-0.179,-0.265,0.834,-88.868,47.302,-112.122,0,0,0,
,-0.123,-0.037,0.792,-7.691,98.877,-82.764,0,0,0,
,-0.062,-0.05,0.882,138.977,89.782,-66.895,0,0,0,
,-0.165,-0.257,0.998,111.45,82.458,-32.41,0,0,0,
,-0.159,-0.645,1.079,11.169,54.931,-67.749,0,0,0,
,0.034,-0.621,0.861,-8.118,86.853,-108.46,0,0,0,
,0.029,-0.542,0.869,-92.102,80.749,-116.822,0,0,0,
,0.087,-0.36,0.875,-126.954,120.544,-109.192,0,0,0,
