TIMECODE,ACC_X,ACC_Y,ACC_Z,GYR_X,GYR_Y,GYR_Z,TAG
00:00:00:0,0.026,-0.575,0.843,36.743,80.81,-88.135,
00:00:00:16,0.061,-0.621,0.828,54.687,65.795,-85.022,
00:00:00:33,0.035,-0.647,0.822,31.799,38.024,-75.318,
00:00:00:50,0.023,-0.626,0.796,-5.31,17.456,-63.599,
00:00:00:66,0.037,-0.631,0.817,-40.894,1.709,-45.044,
00:00:00:83,0.025,-0.593,0.834,-65.857,-26.856,-26.673,
00:00:00:100,0.011,-0.604,0.815,-50.11,-28.626,-8.973,
00:00:00:116,0.012,-0.652,0.804,-57.435,-35.035,-2.137,
00:00:00:133,-0.012,-0.651,0.793,-92.713,-37.842,-16.358,
00:00:00:150,0.003,-0.651,0.793,-108.582,-19.471,-36.438,
00:00:00:166,-0.024,-0.617,0.839,-160.889,-7.264,-48.279,
00:00:00:183,-0.022,-0.553,0.866,-200.501,21.057,-47.12,
00:00:00:200,0.001,-0.522,0.841,-152.344,25.512,-47.73,
00:00:00:216,0.012,-0.515,0.867,-108.277,-0.794,-47.913,
00:00:00:233,-0.008,-0.495,0.853,-55.054,-25.147,-38.758,
00:00:00:250,-0.025,-0.519,0.864,21.545,13.916,-27.527,
00:00:00:266,0.008,-0.554,0.853,64.819,52.49,-35.523,
00:00:00:283,0.02,-0.58,0.854,52.307,40.954,-31.311,
00:00:00:300,0.01,-0.56,0.857,42.846,32.836,-27.894,
00:00:00:316,-0.006,-0.519,0.866,62.561,39.55,-32.227,
00:00:00:333,-0.021,-0.597,0.85,94.848,72.753,-60.547,
00:00:00:350,0.014,-0.546,0.855,127.624,87.585,-46.265,
00:00:00:366,-0.025,-0.615,0.83,147.705,112.548,-64.331,
00:00:00:383,0.03,-0.684,0.854,101.928,124.206,-54.017,
00:00:00:400,-0.006,-0.583,0.79,91.43,100.769,-42.603,
00:00:00:416,0.047,-0.704,0.813,40.954,90.332,-33.326,
00:00:00:433,0.116,-0.631,0.824,-10.132,-6.47,-15.992,
00:00:00:450,-0.009,-0.491,0.831,56.823,-47.059,8.3,
00:00:00:466,0.027,-0.605,0.83,114.196,2.136,22.216,
00:00:00:483,0.054,-0.63,0.815,116.027,-31.922,22.522,
00:00:00:500,0.015,-0.635,0.807,105.407,-49.256,27.282,
00:00:00:516,0.011,-0.644,0.806,73.974,-38.392,25.39,
00:00:00:533,0.015,-0.642,0.808,54.382,-31.006,24.719,
00:00:00:550,0.021,-0.641,0.806,37.658,-28.87,19.714,
00:00:00:566,0.018,-0.642,0.804,21.179,-24.109,15.258,
00:00:00:583,0.011,-0.641,0.805,-4.151,-22.828,11.84,
00:00:00:600,0.018,-0.641,0.802,-46.936,-23.621,16.54,
00:00:00:616,0.016,-0.619,0.805,-63.416,-24.903,15.258,
00:00:00:633,0.025,-0.616,0.813,-71.106,-20.325,10.986,
00:00:00:650,0.029,-0.604,0.81,-65.796,-29.541,10.986,
00:00:00:666,0.021,-0.602,0.812,-41.077,-37.415,5.127,
00:00:00:683,0.012,-0.602,0.805,-22.461,-40.528,1.648,
00:00:00:700,-0.002,-0.607,0.816,-7.386,-35.096,3.723,
00:00:00:716,0.002,-0.625,0.813,-6.043,-25.33,-0.855,
00:00:00:733,0.01,-0.63,0.808,-11.353,-21.119,-7.752,
00:00:00:750,0.01,-0.634,0.809,-16.785,-17.029,-16.785,
00:00:00:766,0.011,-0.631,0.803,-31.861,-17.151,-21.241,
00:00:00:783,0.01,-0.628,0.803,-40.284,-19.593,-29.48,
00:00:00:800,0.004,-0.625,0.81,-44.922,-8.545,-44.922,
00:00:00:816,0.008,-0.619,0.808,-41.626,-7.264,-51.148,
00:00:00:833,0.005,-0.617,0.811,-38.269,-1.343,-64.698,
00:00:00:850,0.004,-0.611,0.807,-30.457,13.732,-52.491,
00:00:00:866,0.004,-0.613,0.813,-26.612,18.127,-50.599,
00:00:00:883,0.005,-0.605,0.816,-22.217,23.742,-39.368,
00:00:00:900,0.01,-0.605,0.816,-14.1,23.986,-33.692,
00:00:00:916,0.017,-0.607,0.814,-4.517,23.376,-32.166,
00:00:00:933,0.011,-0.61,0.818,5.188,23.62,-28.138,
00:00:00:950,0.008,-0.618,0.812,9.948,27.526,-26.856,
00:00:00:966,0.015,-0.612,0.806,13.732,28.259,-27.039,
00:00:00:983,0,-0.628,0.812,8.606,23.132,-24.781,
00:00:01:0,0.015,-0.621,0.815,4.272,22.216,-19.959,
00:00:01:16,0.013,-0.624,0.812,-0.184,0.488,-23.743,
00:00:01:33,0.013,-0.625,0.813,-6.043,11.962,-22.095,
00:00:01:50,0.013,-0.619,0.814,-14.039,10.192,-24.964,
00:00:01:66,0.014,-0.619,0.781,-15.076,12.146,-24.781,
00:00:01:83,0.013,-0.619,0.81,-31.067,10.192,-24.109,
00:00:01:100,0.015,-0.622,0.811,-12.33,8.422,-22.156,
00:00:01:116,0.013,-0.62,0.811,-7.935,6.774,-21.18,
00:00:01:133,0.01,-0.624,0.808,-13.428,4.882,-17.334,
00:00:01:150,0.013,-0.624,0.809,-18.128,5.554,-18.25,
00:00:01:166,0.012,-0.621,0.809,-25.513,5.493,-16.114,
00:00:01:183,0.014,-0.615,0.813,-26.856,4.211,-17.09,
00:00:01:200,0.015,-0.614,0.811,-25.208,5.127,-20.081,
00:00:01:216,0.012,-0.613,0.819,-20.325,3.784,-20.081,
00:00:01:233,0.011,-0.614,0.811,-13.306,9.582,-20.569,
00:00:01:250,0.013,-0.616,0.811,-7.935,7.446,-21.485,
00:00:01:266,0.013,-0.619,0.809,-6.836,9.399,-20.02,
00:00:01:283,0.009,-0.621,0.811,-4.517,12.512,-17.456,
00:00:01:300,0.01,-0.615,0.811,-3.479,11.23,-15.87,
00:00:01:316,0.012,-0.612,0.817,3.418,11.962,-11.658,
00:00:01:333,0.013,-0.609,0.811,10.192,11.352,-9.095,
00:00:01:350,0.015,-0.617,0.81,19.775,15.197,-7.752,
00:00:01:366,0.018,-0.619,0.804,26.733,19.104,-10.315,
00:00:01:383,0.016,-0.626,0.804,27.71,17.7,-11.78,
00:00:01:400,0.019,-0.629,0.807,23.62,20.446,-12.33,
00:00:01:416,0.015,-0.633,0.804,18.31,18.859,-15.259,
00:00:01:433,0.016,-0.631,0.804,10.253,17.334,-15.931,
00:00:01:450,0.023,-0.635,0.807,3.051,19.348,-19.715,
00:00:01:466,0.025,-0.632,0.806,-4.151,19.226,-23.072,
00:00:01:483,0.025,-0.626,0.807,-7.752,18.859,-27.344,
00:00:01:500,0.024,-0.629,0.808,-8.362,16.174,-26.795,
00:00:01:516,0.021,-0.63,0.801,-10.865,16.662,-28.87,
00:00:01:533,0.022,-0.631,0.803,-12.085,14.343,-30.152,
00:00:01:550,0.021,-0.631,0.801,-12.94,15.136,-30.457,
00:00:01:566,0.02,-0.631,0.802,-16.663,14.465,-30.091,
00:00:01:583,0.022,-0.629,0.805,-20.386,13.855,-30.762,
00:00:01:600,0.021,-0.623,0.804,-17.579,11.169,-31.189,
00:00:01:616,0.022,-0.622,0.806,-11.536,16.052,-32.593,
00:00:01:633,0.021,-0.625,0.803,-7.996,13.916,-34.058,
00:00:01:650,0.023,-0.63,0.805,-10.621,16.296,-36.377,
00:00:01:666,0.022,-0.63,0.803,-8.973,20.324,-38.453,
00:00:01:683,0.022,-0.633,0.806,-10.621,13.488,-38.758,
00:00:01:700,0.019,-0.631,0.807,-14.161,13.61,-38.88,
00:00:01:716,0.021,-0.629,0.805,-10.376,13.671,-41.504,
00:00:01:733,0.021,-0.629,0.805,-8.973,13.794,-40.162,
00:00:01:750,0.021,-0.632,0.802,-12.696,9.887,-39.856,
00:00:01:766,0.021,-0.633,0.802,-16.236,12.634,-35.889,
00:00:01:783,0.019,-0.628,0.806,-17.518,10.681,-36.377,
00:00:01:800,0.018,-0.655,0.804,-13.123,12.329,-36.56,
00:00:01:816,0.018,-0.629,0.803,-12.33,12.634,-37.842,
00:00:01:833,0.017,-0.63,0.801,-12.452,13.549,-40.345,
00:00:01:850,0.017,-0.631,0.803,-13.672,11.657,-40.467,
00:00:01:866,0.02,-0.632,0.802,-16.053,15.258,-38.514,
00:00:01:883,0.02,-0.632,0.806,-19.959,12.451,-37.232,
00:00:01:900,0.02,-0.63,0.805,-21.668,12.268,-41.687,
00:00:01:916,0.018,-0.629,0.811,-16.663,13.061,-39.856,
00:00:01:933,0.017,-0.627,0.804,-17.212,12.878,-40.833,
00:00:01:950,0.02,-0.629,0.804,-14.832,14.77,-39.002,
00:00:01:966,0.016,-0.63,0.802,-14.771,12.512,-37.293,
00:00:01:983,0.017,-0.63,0.803,-16.602,16.54,-34.913,
00:00:02:0,0.018,-0.629,0.804,-16.236,11.352,-34.913,
00:00:02:16,0.018,-0.627,0.806,-16.724,13.488,-31.8,
00:00:02:33,0.019,-0.628,0.809,-11.048,12.878,-30.213,
00:00:02:50,0.016,-0.63,0.803,-11.719,14.404,-30.884,
00:00:02:66,0.016,-0.632,0.802,-13.428,13.427,-31.128,
00:00:02:83,0.017,-0.632,0.803,-15.32,12.817,-28.504,
00:00:02:100,0.019,-0.63,0.804,-14.283,13.244,-30.762,
00:00:02:116,0.017,-0.625,0.804,-16.846,9.826,-31.373,
00:00:02:133,0.017,-0.626,0.809,-12.513,11.962,-30.945,
00:00:02:150,0.02,-0.633,0.809,-9.217,10.376,-29.847,
00:00:02:166,0.019,-0.633,0.801,-12.024,7.812,-31.922,
00:00:02:183,0.02,-0.631,0.804,-17.273,9.277,-29.114,
00:00:02:200,0.021,-0.628,0.802,-15.686,10.986,-29.786,
00:00:02:216,0.018,-0.631,0.803,-16.297,8.544,-27.832,
00:00:02:233,0.017,-0.629,0.809,-14.588,10.498,-27.894,
00:00:02:250,0.017,-0.629,0.805,-18.128,8.85,-27.039,
00:00:02:266,0.015,-0.63,0.802,-19.227,8.239,-26.123,
00:00:02:283,0.018,-0.597,0.807,-21.424,10.803,-27.955,
00:00:02:300,0.017,-0.625,0.804,-18.372,8.544,-26.429,
00:00:02:316,0.018,-0.594,0.805,-17.334,10.253,-27.1,
00:00:02:333,0.02,-0.627,0.806,-13.245,10.437,-28.382,
00:00:02:350,0.018,-0.626,0.802,-13.367,12.329,-29.175,
00:00:02:366,0.017,-0.626,0.807,-13.062,11.291,-29.358,
00:00:02:383,0.017,-0.626,0.803,-13.733,7.69,-30.64,
00:00:02:400,0.016,-0.628,0.804,-11.048,11.657,-29.541,
00:00:02:416,0.018,-0.627,0.804,-10.071,10.925,-27.71,
00:00:02:433,0.017,-0.627,0.806,-8.423,10.192,-25.757,
00:00:02:450,0.018,-0.629,0.806,-9.278,9.643,-25.818,
00:00:02:466,0.019,-0.628,0.802,-7.935,12.207,-24.537,
00:00:02:483,0.016,-0.628,0.803,-9.278,13.977,-25.208,
00:00:02:500,0.018,-0.632,0.803,-8.118,11.474,-26.246,
00:00:02:516,0.02,-0.631,0.801,-11.231,11.291,-26.673,
00:00:02:533,0.017,-0.632,0.801,-13.367,12.023,-28.87,
00:00:02:550,0.018,-0.627,0.804,-30.64,10.864,-31.922,
00:00:02:566,0.018,-0.629,0.807,-13.245,12.39,-30.518,
00:00:02:583,0.023,-0.631,0.799,-11.841,12.573,-33.02,
00:00:02:600,0.02,-0.632,0.803,-14.71,13.977,-33.448,
00:00:02:616,0.018,-0.632,0.8,-15.748,12.146,-34.913,
00:00:02:633,0.019,-0.632,0.802,-11.597,13.427,-30.701,
00:00:02:650,0.019,-0.631,0.807,-13.184,12.939,-30.64,
00:00:02:666,0.023,-0.632,0.801,-15.259,11.657,-30.884,
00:00:02:683,0.018,-0.628,0.807,-14.771,11.352,-30.152,
00:00:02:700,0.017,-0.629,0.8,-13.245,12.39,-28.687,
00:00:02:716,0.018,-0.629,0.802,-9.095,15.075,-28.626,
00:00:02:733,0.02,-0.631,0.801,-8.24,11.352,-29.297,
00:00:02:750,0.019,-0.632,0.8,-10.987,14.831,-28.26,
00:00:02:766,0.016,-0.63,0.806,-9.888,13.061,-28.565,
00:00:02:783,0.019,-0.629,0.802,-11.658,13.916,-27.344,
00:00:02:800,0.019,-0.63,0.805,-9.278,16.662,-26.001,
00:00:02:816,0.018,-0.629,0.802,7.934,12.939,-11.292,
00:00:02:833,0.022,-0.619,0.815,12.756,9.643,-6.653,
00:00:02:850,0.013,-0.589,0.838,42.114,20.568,-7.813,
00:00:02:866,0.037,-0.562,0.881,44.616,12.634,-24.17,
00:00:02:883,0.047,-0.496,0.927,115.844,-58.96,-67.81,
00:00:02:900,0.099,-0.446,1.047,274.78,-239.93,-234.192,
00:00:02:916,0.252,-0.486,1.184,810.852,-317.872,-336.243,
00:00:02:933,0.317,-1.018,1.114,1485.473,-366.028,-486.023,
00:00:02:950,0.608,-1.671,0.844,1549.194,-648.804,-739.563,
00:00:02:966,0.526,-1.902,0.861,810.119,-1327.271,-1100.22,
00:00:02:983,0.046,-1.726,1.201,-143.555,-1753.968,-1232.178,
00:00:03:0,-0.024,-1.397,1.273,-640.87,-1914.368,-1164.551,
00:00:03:16,-0.079,-1.206,1.14,-619.629,-1984.314,-1395.264,
00:00:03:33,-0.203,-1.147,1.006,-687.806,-2000,-1553.101,
00:00:03:50,-0.351,-0.866,0.915,-719.056,-2000,-1617.005,
00:00:03:66,-0.447,-0.616,0.834,-803.467,-2000,-1733.887,
00:00:03:83,-0.544,-0.492,0.616,-915.039,-2000,-1778.748,
00:00:03:100,-0.577,-0.378,0.217,-993.836,-2000,-1741.7,
00:00:03:116,-0.547,-0.182,-0.154,-855.164,-2000,-1648.133,
00:00:03:133,-0.542,0.056,-0.415,-517.518,-2000,-1569.764,
00:00:03:150,-0.606,0.211,-0.485,3.356,-1845.032,-1463.99,
00:00:03:166,-0.633,0.311,-0.517,412.536,-1385.01,-1383.606,
00:00:03:183,-0.614,0.324,-0.522,623.901,-895.447,-1260.987,
00:00:03:200,-0.534,0.266,-0.523,441.772,-366.15,-1055.909,
00:00:03:216,-0.445,0.236,-0.52,32.775,49.621,-751.038,
00:00:03:233,-0.365,0.272,-0.517,-464.966,437.866,-481.934,
00:00:03:250,-0.296,0.307,-0.557,-760.132,761.84,-200.196,
00:00:03:266,-0.283,0.36,-0.567,-765.809,1055.297,139.892,
00:00:03:283,-0.297,0.357,-0.56,-466.004,1316.894,531.738,
00:00:03:300,-0.319,0.26,-0.493,16.723,1549.316,928.955,
00:00:03:316,-0.32,0.075,-0.362,568.969,1789.184,1247.375,
00:00:03:333,-0.344,-0.06,-0.042,912.719,1948.486,1513.916,
00:00:03:350,-0.433,-0.2,0.314,887.39,1999.694,1648.193,
00:00:03:366,-0.503,-0.396,0.514,619.567,1999.694,1666.809,
00:00:03:383,-0.463,-0.378,0.516,373.657,1999.511,1576.11,
00:00:03:400,-0.248,-0.314,0.522,233.398,1769.165,1353.637,
00:00:03:416,-0.249,-0.681,0.784,422.729,1500.488,1215.026,
00:00:03:433,-0.277,-1.193,1.097,588.379,1401.672,1033.935,
00:00:03:450,-0.411,-1.296,1.457,49.499,1320.739,779.052,
00:00:03:466,-0.371,-0.75,0.992,-100.037,1105.713,729.065,
00:00:03:483,-0.32,-0.5,0.832,-92.957,878.173,530.029,
00:00:03:500,-0.266,-0.743,1.004,172.729,911.926,380.066,
00:00:03:516,-0.089,-0.934,1.031,73.669,858.093,315.185,
00:00:03:533,-0.088,-0.892,1.1,-191.529,674.011,236.999,
00:00:03:550,-0.174,-0.692,1.09,-247.742,513.122,252.99,
00:00:03:566,-0.29,-0.341,0.766,-26.246,645.08,405.273,
00:00:03:583,0.201,-0.681,1.255,120.361,-224.549,90.026,
00:00:03:600,-0.384,-0.339,0.732,140.075,263.122,245.91,
00:00:03:616,-0.144,-0.699,0.969,55.969,125.854,-4.883,
00:00:03:633,-0.097,-0.763,0.973,-85.022,203.552,26.306,
00:00:03:650,-0.062,-0.726,0.885,-145.081,133.239,-24.353,
00:00:03:666,-0.144,-0.551,0.821,-122.376,129.089,-32.288,
00:00:03:683,-0.074,-0.598,0.808,-171.326,-2.747,-20.447,
00:00:03:700,-0.058,-0.593,0.776,-190.186,5.493,-23.316,
00:00:03:716,-0.074,-0.594,0.765,-170.716,13.366,-7.142,
00:00:03:733,-0.059,-0.621,0.766,-75.684,79.04,31.005,
00:00:03:750,-0.033,-0.638,0.75,-55.97,148.986,67.321,
00:00:03:766,0.011,-0.637,0.793,-88.868,92.163,24.231,
00:00:03:783,0.011,-0.656,0.823,-110.962,67.26,-18.616,
00:00:03:800,0.01,-0.672,0.859,-136.17,20.08,-44.19,
00:00:03:816,-0.038,-0.612,0.845,-138.611,-44.007,-54.139,
00:00:03:833,-0.047,-0.559,0.81,-129.151,-30.03,-33.02,
00:00:03:850,-0.045,-0.541,0.79,-94.727,-46.631,-27.588,
00:00:03:866,-0.011,-0.599,0.772,-66.407,-36.683,1.159,
00:00:03:883,-0.034,-0.589,0.801,-68.238,-79.651,-13.123,
00:00:03:900,-0.056,-0.569,0.683,-57.923,-75.074,-12.574,
00:00:03:916,-0.028,-0.516,0.808,-48.523,-45.105,7.812,
00:00:03:933,0.002,-0.597,0.93,-63.172,-95.398,75.195,
00:00:03:950,-0.004,-0.637,0.954,-32.288,-100.037,40.405,
00:00:03:966,-0.036,-0.6,0.881,-4.212,-168.763,-9.461,
00:00:03:983,-0.09,-0.5,0.83,43.762,-148.682,63.354,
00:00:04:0,-0.069,-0.557,0.784,141.601,-99.61,-41.504,
00:00:04:16,0.012,-0.62,0.845,247.131,-181.092,-114.136,
00:00:04:33,0.04,-0.877,0.776,251.77,-321.656,-313.66,
00:00:04:50,0.065,-0.937,0.659,322.387,-415.223,-479.187,
00:00:04:66,-0.046,-0.922,0.564,514.465,-450.379,-491.822,
00:00:04:83,-0.309,-1.025,0.6,520.019,-441.59,-658.326,
00:00:04:100,-0.384,-1.029,0.704,517.822,-301.453,-726.746,
00:00:04:116,-0.304,-1.023,0.608,519.287,-143.372,-757.508,
00:00:04:133,-0.394,-0.918,0.562,562.744,16.662,-826.416,
00:00:04:150,-0.38,-0.804,0.482,650.573,157.714,-945.313,
00:00:04:166,-0.424,-0.903,0.463,725.158,305.481,-1033.875,
00:00:04:183,-0.416,-0.928,0.439,720.642,478.088,-1051.941,
00:00:04:200,-0.398,-0.846,0.412,649.047,613.22,-1099.671,
00:00:04:216,-0.435,-0.711,0.463,624.633,705.2,-1105.53,
00:00:04:233,-0.442,-0.777,0.491,714.355,796.386,-1105.53,
00:00:04:250,-0.415,-0.789,0.488,808.899,873.169,-1052.979,
00:00:04:266,-0.38,-0.743,0.578,882.995,950.317,-984.559,
00:00:04:283,-0.406,-0.738,0.728,813.842,1040.649,-890.748,
00:00:04:300,-0.435,-0.624,0.83,604.919,1099.365,-801.941,
00:00:04:316,-0.423,-0.527,0.804,414.123,1100.341,-662.781,
00:00:04:333,-0.321,-0.473,0.775,432.617,1011.779,-517.029,
00:00:04:350,-0.278,-0.585,0.868,487.548,852.905,-387.757,
00:00:04:366,-0.258,-0.791,0.901,481.384,715.393,-286.194,
00:00:04:383,-0.275,-0.926,0.944,412.17,597.778,-150.086,
00:00:04:400,-0.297,-0.867,0.957,273.925,543.09,22.338,
00:00:04:416,-0.27,-0.7,0.848,39.245,507.019,144.226,
00:00:04:433,-0.254,-0.835,0.807,-314.881,494.079,204.528,
00:00:04:450,-0.157,-0.816,0.681,-625.245,439.087,357.971,
00:00:04:466,-0.001,-0.665,0.538,-776.795,371.399,520.752,
00:00:04:483,0.1,-0.249,0.427,-703.797,361.084,534.301,
00:00:04:500,0.129,-0.18,0.415,-170.411,141.052,350.036,
00:00:04:516,0.038,-0.648,0.707,34.118,47.241,192.016,
00:00:04:533,0.09,-0.907,0.763,-56.824,-3.235,185.852,
00:00:04:550,0.028,-0.86,0.747,-220.398,-31.8,249.878,
00:00:04:566,0.04,-0.7,0.666,-266.724,-0.489,318.237,
00:00:04:583,0.053,-0.639,0.654,-186.768,6.713,264.038,
00:00:04:600,0.001,-0.68,0.648,-122.925,16.662,218.078,
00:00:04:616,0.011,-0.665,0.658,-95.154,29.663,182.739,
00:00:04:633,0.03,-0.764,0.76,-80.933,68.42,179.199,
00:00:04:650,0.144,-0.875,0.805,-165.772,4.394,165.71,
00:00:04:666,0.069,-0.697,0.895,-111.512,-96.619,86.364,
00:00:04:683,-0.087,-0.67,0.78,100.097,-33.753,80.81,
00:00:04:700,-0.046,-0.619,0.7,190.307,-24.964,86.853,
00:00:04:716,-0.095,-0.584,0.633,287.292,4.882,77.514,
00:00:04:733,-0.094,-0.559,0.604,428.283,16.296,66.345,
00:00:04:750,-0.03,-0.625,0.589,611.206,27.16,20.874,
00:00:04:766,-0.008,-0.887,0.653,621.704,15.197,38.818,
00:00:04:783,0.014,-1,0.616,145.507,-17.762,33.142,
00:00:04:800,-0.03,-0.864,0.669,-131.287,-79.834,23.193,
00:00:04:816,-0.015,-0.777,0.691,-143.494,-76.661,1.77,
00:00:04:833,-0.012,-0.775,0.729,-8.301,-97.596,-0.916,
00:00:04:850,0.016,-0.821,0.638,-55.176,-78.186,-37.903,
00:00:04:866,0.041,-0.706,0.586,58.288,-135.56,-58.716,
00:00:04:883,-0.031,-0.835,0.626,114.013,-178.284,-139.466,
00:00:04:900,-0.046,-0.979,0.823,132.507,-252.076,-128.663,
00:00:04:916,-0.174,-0.984,0.884,223.327,-169.922,-130.372,
00:00:04:933,-0.158,-0.892,0.582,384.033,-96.497,-96.009,
00:00:04:950,-0.12,-0.799,0.506,443.481,-63.904,-171.875,
00:00:04:966,-0.165,-0.898,0.588,552.612,28.076,-210.022,
00:00:04:983,-0.106,-0.949,0.574,396.301,92.407,-228.394,
00:00:05:0,-0.044,-1.007,0.613,131.164,58.41,-286.56,
00:00:05:16,-0.031,-0.922,0.714,-166.321,27.221,-297.547,
00:00:05:33,-0.073,-0.754,0.715,-201.233,19.287,-290.284,
00:00:05:50,-0.115,-0.792,0.718,-105.652,4.394,-336.243,
00:00:05:66,-0.098,-0.967,0.673,-69.519,-14.954,-362.061,
00:00:05:83,-0.154,-0.947,0.673,-85.938,-65.003,-378.113,
00:00:05:100,-0.148,-0.878,0.723,-150.269,-72.632,-394.165,
00:00:05:116,-0.153,-0.826,0.666,-166.504,-80.14,-424.988,
00:00:05:133,-0.135,-0.649,0.687,-161.011,-142.273,-368.409,
00:00:05:150,-0.158,-0.621,0.718,5.432,-136.902,-352.234,
00:00:05:166,-0.162,-0.729,0.739,189.941,-186.219,-280.762,
00:00:05:183,-0.224,-0.754,0.796,122.497,-207.337,-230.896,
00:00:05:200,-0.284,-0.76,0.98,-166.199,-166.382,-166.504,
00:00:05:216,-0.184,-0.649,0.506,-301.27,103.271,-113.831,
00:00:05:233,-0.191,-0.561,0.522,-2.076,46.752,-53.956,
00:00:05:250,-0.176,-0.645,0.583,250.183,34.484,-2.503,
00:00:05:266,-0.163,-0.759,0.644,280.517,-10.682,79.284,
00:00:05:283,-0.179,-0.792,0.622,228.454,-0.733,127.563,
00:00:05:300,-0.154,-0.736,0.561,201.965,-101.258,207.824,
00:00:05:316,-0.172,-0.662,0.541,280.883,-225.464,213.806,
00:00:05:333,-0.185,-0.794,0.469,375.549,-300.171,199.34,
00:00:05:350,-0.184,-0.961,0.435,256.713,-434.693,244.873,
00:00:05:366,-0.208,-0.901,0.506,-74.524,-560.059,335.083,
00:00:05:383,-0.214,-0.771,0.583,-320.008,-624.146,362.426,
00:00:05:400,-0.247,-0.845,0.644,-406.434,-625.672,386.779,
00:00:05:416,-0.271,-0.957,0.672,-603.028,-610.962,415.527,
00:00:05:433,-0.282,-0.927,0.671,-784.913,-608.216,481.079,
00:00:05:450,-0.287,-0.843,0.647,-830.567,-604.065,525.451,
00:00:05:466,-0.293,-0.792,0.711,-793.702,-554.871,513.061,
00:00:05:483,-0.249,-0.886,0.691,-637.207,-499.512,475.28,
00:00:05:500,-0.31,-1.023,0.689,-566.407,-487.854,468.872,
00:00:05:516,-0.354,-0.965,0.664,-676.88,-443.116,455.993,
00:00:05:533,-0.357,-0.937,0.674,-895.02,-362.977,448.791,
00:00:05:550,-0.328,-0.896,0.684,-1110.84,-345.093,416.626,
00:00:05:566,-0.328,-0.775,0.661,-1139.649,-387.391,419.738,
00:00:05:583,-0.356,-0.7,0.656,-1085.938,-443.665,368.164,
00:00:05:600,-0.374,-0.67,0.651,-855.286,-420.105,451.66,
00:00:05:616,-0.391,-0.769,0.67,-799.5,-356.873,403.625,
00:00:05:633,-0.417,-0.853,0.715,-931.336,-268.738,338.928,
00:00:05:650,-0.411,-0.913,0.787,-1103.943,-209.229,236.206,
00:00:05:666,-0.391,-0.857,0.869,-1154.114,-201.111,237.182,
00:00:05:683,-0.428,-0.734,0.793,-1055.481,-199.585,184.326,
00:00:05:700,-0.343,-0.662,0.775,-996.277,-170.227,124.572,
00:00:05:716,-0.475,-0.719,0.779,-1145.325,-333.252,-54.444,
00:00:05:733,-0.631,-0.689,0.756,-1387.269,-212.403,-27.894,
00:00:05:750,-0.649,-0.555,0.723,-1656.312,36.132,60.73,
00:00:05:766,-0.581,-0.407,0.79,-1847.962,150.329,51.757,
00:00:05:783,-0.486,-0.148,0.826,-1683.899,135.925,34.606,
00:00:05:800,-0.512,-0.229,0.888,-1604.126,-34.18,-97.84,
00:00:05:816,-0.625,-0.114,0.942,-1428.65,-16.48,-192.872,
00:00:05:833,-0.625,-0.223,0.975,-1307.984,173.706,-283.692,
00:00:05:850,-0.564,-0.191,0.986,-1308.838,240.173,-431.702,
00:00:05:866,-0.519,-0.113,0.971,-1197.51,215.515,-490.235,
00:00:05:883,-0.514,-0.059,0.971,-1035.584,189.941,-572.266,
00:00:05:900,-0.478,0.009,0.931,-948.975,195.861,-616.639,
00:00:05:916,-0.45,0.051,0.871,-873.719,194.885,-650.208,
00:00:05:933,-0.443,0.041,0.837,-984.375,172.424,-675.66,
00:00:05:950,-0.429,0.075,0.812,-1179.505,198.791,-741.028,
00:00:05:966,-0.377,0.2,0.837,-1200.501,274.475,-705.75,
00:00:05:983,-0.29,0.348,0.86,-1106.69,362.793,-630.677,
00:00:06:0,-0.192,0.378,0.859,-1051.758,378.479,-567.322,
00:00:06:16,-0.112,0.335,0.817,-1021.546,379.272,-562.256,
00:00:06:33,-0.056,0.3,0.793,-1038.88,364.685,-616.333,
00:00:06:50,-0.04,0.273,0.727,-1107.3,383.178,-645.264,
00:00:06:66,0.031,0.341,0.741,-1289.673,421.203,-654.908,
00:00:06:83,0.077,0.551,0.784,-1291.443,480.102,-555.909,
00:00:06:100,0.173,0.717,0.743,-1160.584,464.477,-474.427,
00:00:06:116,0.334,0.877,0.679,-882.447,229.98,-349.427,
00:00:06:133,0.208,0.731,0.629,-722.962,124.328,-504.395,
00:00:06:150,0.147,0.665,0.613,-669.8,130.737,-490.235,
00:00:06:166,0.161,0.65,0.557,-670.472,182.983,-462.159,
00:00:06:183,0.184,0.642,0.494,-667.054,224.975,-453.919,
00:00:06:200,0.232,0.644,0.496,-679.383,258.178,-441.224,
00:00:06:216,0.295,0.716,0.416,-544.129,228.698,-393.25,
00:00:06:233,0.261,0.691,0.333,-375.123,196.35,-410.096,
00:00:06:250,0.249,0.51,0.356,-298.401,186.584,-505.433,
00:00:06:266,0.246,0.538,0.373,-376.099,174.865,-439.759,
00:00:06:283,0.257,0.628,0.368,-406.495,164.306,-433.35,
00:00:06:300,0.284,0.72,0.407,-415.894,119.079,-411.866,
00:00:06:316,0.282,0.806,0.432,-367.127,96.557,-395.813,
00:00:06:333,0.262,0.824,0.422,-282.349,118.591,-398.621,
00:00:06:350,0.276,0.813,0.397,-229.432,117.675,-383.118,
00:00:06:366,0.293,0.834,0.407,-255.555,88.684,-380.433,
00:00:06:383,0.311,0.82,0.432,-301.209,88.928,-377.198,
00:00:06:400,0.323,0.854,0.475,-310.608,108.642,-324.219,
00:00:06:416,0.295,0.891,0.46,-297.669,125.732,-303.04,
00:00:06:433,0.312,0.864,0.445,-284.119,155.578,-304.566,
00:00:06:450,0.328,0.852,0.396,-350.22,124.511,-312.012,
00:00:06:466,0.323,0.791,0.419,-416.077,116.699,-363.099,
00:00:06:483,0.327,0.886,0.361,-395.935,159.24,-299.866,
00:00:06:500,0.39,0.984,0.384,-333.558,165.039,-281.128,
00:00:06:516,0.41,0.734,0.454,-298.401,74.34,-347.657,
00:00:06:533,0.365,0.781,0.451,-416.687,57.251,-336.06,
00:00:06:550,0.389,0.798,0.407,-403.26,89.721,-306.519,
00:00:06:566,0.443,0.802,0.358,-388.001,90.271,-296.265,
00:00:06:583,0.424,0.768,0.354,-338.135,54.565,-305.787,
00:00:06:600,0.384,0.712,0.296,-279.969,80.078,-292.359,
00:00:06:616,0.389,0.764,0.263,-247.986,98.755,-223.206,
00:00:06:633,0.411,0.789,0.125,-254.822,119.934,-272.644,
00:00:06:650,0.518,0.828,0.211,-304.688,85.51,-255.127,
00:00:06:666,0.622,0.895,0.299,-373.902,22.399,-244.507,
00:00:06:683,0.622,0.906,0.328,-295.655,-2.198,-192.872,
00:00:06:700,0.614,0.944,0.241,-175.843,-18.86,-165.101,
00:00:06:716,0.587,0.791,0.181,-58.655,-66.468,-194.825,
00:00:06:733,0.485,0.597,0.048,-129.456,-131.897,-135.56,
00:00:06:750,0.463,0.679,-0.066,-302.063,-110.169,-169.8,
00:00:06:766,0.537,0.767,0.049,-352.417,-124.695,-130.249,
00:00:06:783,0.522,0.719,0.131,-293.885,-109.498,-160.706,
00:00:06:800,0.477,0.763,0.092,-266.236,-16.968,-157.715,
00:00:06:816,0.53,0.802,0.006,-207.093,25.695,-176.087,
00:00:06:833,0.573,0.888,0.016,-140.381,16.662,-176.27,
00:00:06:850,0.602,0.869,-0.004,-164.612,-4.639,-199.952,
00:00:06:866,0.617,0.872,0.022,-214.966,-62.928,-190.918,
00:00:06:883,0.616,0.934,0.048,-161.988,-70.74,-161.988,
00:00:06:900,0.628,0.915,0.018,-110.474,-54.871,-131.287,
00:00:06:916,0.653,0.915,0.026,-9.278,-43.58,-118.409,
00:00:06:933,0.636,0.886,0.011,74.34,-34.119,-91.126,
00:00:06:950,0.675,0.896,-0.005,139.16,-0.855,-53.528,
00:00:06:966,0.656,0.891,0.005,154.419,-51.453,-27.466,
00:00:06:983,0.604,0.917,0.005,194.336,-35.096,31.433,
00:00:07:0,0.624,0.896,-0.014,207.336,-20.386,43.884,
00:00:07:16,0.615,0.861,0.014,201.782,-52.552,74.279,
00:00:07:33,0.578,0.902,0.088,244.14,-21.18,124.389,
00:00:07:50,0.575,0.861,0.108,356.262,34.668,151.001,
00:00:07:66,0.518,0.866,0.128,415.649,36.621,192.566,
00:00:07:83,0.479,0.881,0.143,474.731,82.092,159.729,
00:00:07:100,0.447,0.728,0.155,455.017,102.722,184.57,
00:00:07:116,0.392,0.789,0.21,411.987,140.625,216.247,
00:00:07:133,0.382,0.713,0.208,392.028,209.594,214.843,
00:00:07:150,0.371,0.664,0.228,238.403,202.331,196.228,
00:00:07:166,0.369,0.71,0.256,122.253,204.406,162.414,
00:00:07:183,0.367,0.697,0.294,53.222,192.81,148.132,
00:00:07:200,0.348,0.737,0.314,41.198,198.364,157.104,
00:00:07:216,0.346,0.746,0.296,70.678,221.496,144.592,
00:00:07:233,0.326,0.751,0.268,67.565,223.632,87.097,
00:00:07:250,0.338,0.824,0.28,75.622,203.308,15.502,
00:00:07:266,0.335,0.863,0.294,145.507,200.561,-38.025,
00:00:07:283,0.373,0.887,0.276,241.333,212.951,-100.22,
00:00:07:300,0.411,0.815,0.281,308.96,163.574,-133.789,
00:00:07:316,0.446,0.73,0.312,312.194,132.08,-146.302,
00:00:07:333,0.486,0.746,0.347,302.063,99.67,-148.804,
00:00:07:350,0.494,0.723,0.361,293.09,40.161,-134.461,
00:00:07:366,0.482,0.729,0.386,243.957,-0.061,-130.005,
00:00:07:383,0.471,0.795,0.405,240.417,-31.8,-128.235,
00:00:07:400,0.464,0.752,0.402,242.004,-26.978,-112.549,
00:00:07:416,0.452,0.769,0.403,190.307,-35.584,-96.192,
00:00:07:433,0.429,0.644,0.369,95.336,-48.706,-99.366,
00:00:07:450,0.437,0.916,0.342,22.216,10.742,19.531,
00:00:07:466,0.496,0.795,0.3,106.323,10.437,-70.923,
00:00:07:483,0.448,0.875,0.37,118.652,-11.597,-40.406,
00:00:07:500,0.471,0.817,0.328,109.192,61.828,-42.481,
00:00:07:516,0.52,0.869,0.355,91.125,60.241,-36.316,
00:00:07:533,0.508,0.839,0.359,115.417,36.193,-44.983,
00:00:07:550,0.513,0.797,0.376,110.717,38.574,-15.381,
00:00:07:566,0.534,0.802,0.367,121.704,38.757,4.394,
00:00:07:583,0.526,0.797,0.372,140.38,10.192,15.808,
00:00:07:600,0.502,0.795,0.376,171.753,-5.616,16.052,
00:00:07:616,0.483,0.787,0.387,208.923,2.624,15.686,
00:00:07:633,0.511,0.719,0.396,188.11,8.911,19.531,
00:00:07:650,0.531,0.716,0.424,162.841,-6.226,38.208,
00:00:07:666,0.508,0.742,0.415,178.222,-25.94,41.809,
00:00:07:683,0.484,0.747,0.405,195.678,-54.322,35.461,
00:00:07:700,0.434,0.73,0.397,201.11,-104.065,9.338,
00:00:07:716,0.362,0.663,0.406,168.518,-113.953,-2.869,
00:00:07:733,0.334,0.7,0.402,161.682,-60.791,15.136,
00:00:07:750,0.316,0.632,0.354,137.573,-39.49,23.01,
00:00:07:766,0.308,0.699,0.358,73.73,-19.959,3.906,
00:00:07:783,0.327,0.682,0.363,62.255,-7.813,-13.123,
00:00:07:800,0.336,0.711,0.385,48.278,35.034,-20.691,
00:00:07:816,0.404,0.732,0.396,51.94,64.575,-25.94,
00:00:07:833,0.469,0.629,0.496,1.464,70.861,-25.635,
00:00:07:850,0.531,1.016,0.541,4.882,100.952,86.364,
00:00:07:866,0.606,0.845,0.491,113.403,35.583,-13.611,
00:00:07:883,0.542,0.886,0.539,169.311,-37.598,7.751,
00:00:07:900,0.521,0.797,0.484,258.117,-31.373,-2.381,
00:00:07:916,0.46,0.63,0.446,266.174,-52.857,22.277,
00:00:07:933,0.384,0.608,0.429,255.615,-8.973,10.376,
00:00:07:950,0.398,0.548,0.422,217.224,54.443,48.095,
00:00:07:966,0.408,0.661,0.497,167.724,33.264,18.127,
00:00:07:983,0.35,0.589,0.5,104.431,24.047,-3.785,
00:00:08:0,0.366,0.643,0.497,52.917,80.81,-35.157,
00:00:08:16,0.394,0.657,0.48,26.733,97.351,-34.119,
00:00:08:33,0.412,0.621,0.552,-12.024,133.789,-50.293,
00:00:08:50,0.539,0.991,0.479,90.515,162.719,20.507,
00:00:08:66,0.521,0.768,0.512,237.06,-1.893,-91.919,
00:00:08:83,0.387,0.683,0.58,209.533,-6.775,-63.965,
00:00:08:100,0.454,0.638,0.541,138.122,104.858,-44.068,
00:00:08:116,0.452,0.681,0.511,41.565,54.504,-8.484,
00:00:08:133,0.467,0.774,0.515,59.021,65.185,-22.034,
00:00:08:150,0.473,0.721,0.513,101.867,10.192,-29.297,
00:00:08:166,0.444,0.696,0.538,107.727,2.929,-37.293,
00:00:08:183,0.446,0.692,0.544,115.417,29.419,-19.837,
00:00:08:200,0.425,0.671,0.545,98.327,37.536,-15.564,
00:00:08:216,0.437,0.652,0.521,84.899,64.819,-17.823,
00:00:08:233,0.447,0.646,0.523,75.927,45.715,-32.776,
00:00:08:250,0.434,0.65,0.548,60.791,35.827,-39.49,
00:00:08:266,0.436,0.649,0.56,55.969,29.357,-54.627,
00:00:08:283,0.41,0.573,0.5,45.105,10.192,-68.299,
00:00:08:300,0.45,0.754,0.567,-5.555,22.338,-9.156,
00:00:08:316,0.461,0.676,0.571,28.137,-7.386,-62.623,
00:00:08:333,0.438,0.633,0.548,111.694,30.761,-90.577,
00:00:08:350,0.442,0.551,0.56,23.437,35.034,-60.547,
00:00:08:366,0.485,0.668,0.576,-37.171,62.194,-43.946,
00:00:08:383,0.52,0.717,0.568,0.915,39.55,-35.523,
00:00:08:400,0.505,0.677,0.598,8.117,-1.526,-59.632,
00:00:08:416,0.494,0.668,0.595,15.014,10.131,-53.101,
00:00:08:433,0.493,0.693,0.562,37.597,10.009,-31.983,
00:00:08:450,0.47,0.647,0.542,80.078,-3.174,-30.762,
00:00:08:466,0.425,0.609,0.541,99.548,-11.841,-29.786,
00:00:08:483,0.414,0.577,0.56,58.898,33.874,-14.954,
00:00:08:500,0.443,0.603,0.544,39.856,36.377,-27.955,
00:00:08:516,0.432,0.604,0.585,29.663,29.602,-1.16,
00:00:08:533,0.437,0.653,0.599,22.399,44.799,-6.714,
00:00:08:550,0.465,0.659,0.597,33.081,50.903,-3.846,
00:00:08:566,0.463,0.673,0.612,33.203,24.414,-1.221,
00:00:08:583,0.464,0.743,0.541,59.387,34.301,-13.55,
00:00:08:600,0.475,0.565,0.614,109.68,33.752,-13.184,
00:00:08:616,0.481,0.705,0.621,59.204,47.058,-17.945,
00:00:08:633,0.585,0.635,0.613,101.684,37.231,-32.654,
00:00:08:650,0.558,0.744,0.628,110.229,-20.508,33.203,
00:00:08:666,0.552,0.551,0.624,108.947,-24.414,-21.729,
00:00:08:683,0.559,0.646,0.604,132.568,-18.494,-14.893,
00:00:08:700,0.509,0.635,0.589,138.977,-14.832,2.258,
00:00:08:716,0.469,0.608,0.541,138.549,25.94,-46.692,
00:00:08:733,0.446,0.598,0.533,153.869,5.127,-93.445,
00:00:08:750,0.39,0.598,0.533,186.828,9.338,-125.123,
00:00:08:766,0.368,0.585,0.515,216.125,36.071,-172.425,
00:00:08:783,0.33,0.545,0.519,248.535,40.893,-203.248,
00:00:08:800,0.297,0.534,0.505,280.761,85.205,-230.347,
00:00:08:816,0.315,0.481,0.475,297.363,115.295,-271.729,
00:00:08:833,0.34,0.449,0.499,260.376,128.967,-288.697,
00:00:08:850,0.397,0.387,0.503,208.496,121.276,-262.818,
00:00:08:866,0.449,0.398,0.546,98.999,108.398,-224.488,
00:00:08:883,0.52,0.428,0.545,5.737,101.501,-178.833,
00:00:08:900,0.549,0.469,0.551,-98.206,41.87,-135.315,
00:00:08:916,0.574,0.549,0.571,-186.829,1.77,-105.53,
00:00:08:933,0.58,0.627,0.568,-218.384,-21.851,-69.825,
00:00:08:950,0.585,0.672,0.548,-217.469,-26.307,-57.435,
00:00:08:966,0.573,0.705,0.529,-182.435,-55.97,-32.959,
00:00:08:983,0.647,0.641,0.738,-351.502,-6.226,23.376,
00:00:09:0,0.66,1.364,0.613,-180.176,40.344,122.07,
00:00:09:16,0.811,0.682,0.583,200.195,-58.777,117.797,
00:00:09:33,0.675,0.909,0.602,114.563,-293.763,62.377,
00:00:09:50,0.57,0.654,0.463,273.254,-240.418,46.752,
00:00:09:66,0.494,0.471,0.327,276.062,-277.405,55.725,
00:00:09:83,0.391,0.473,0.324,309.265,-214.905,80.2,
00:00:09:100,0.363,0.46,0.387,322.692,-113.526,52.612,
00:00:09:116,0.367,0.511,0.47,272.277,0,46.325,
00:00:09:133,0.405,0.545,0.533,248.108,50.903,-41.138,
00:00:09:150,0.458,0.397,0.646,271.24,72.204,-53.711,
00:00:09:166,0.525,0.448,0.707,172.058,132.446,82.763,
00:00:09:183,0.563,0.579,0.592,124.511,220.581,136.047,
00:00:09:200,0.623,0.632,0.582,70.617,104.309,180.969,
00:00:09:216,0.629,0.648,0.646,73.791,-54.017,200.012,
00:00:09:233,0.552,0.608,0.703,88.44,-155.03,199.646,
00:00:09:250,0.447,0.636,0.717,257.263,-122.437,197.815,
00:00:09:266,0.379,0.526,0.651,532.348,7.934,97.045,
00:00:09:283,0.364,0.302,0.508,652.893,89.782,71.472,
00:00:09:300,0.385,0.187,0.562,567.26,139.343,59.143,
00:00:09:316,0.463,0.204,0.708,395.996,211.181,111.389,
00:00:09:333,0.51,0.525,0.734,346.923,264.038,189.087,
00:00:09:350,0.612,0.347,0.866,466.064,94.299,18.005,
00:00:09:366,0.535,0.277,0.9,515.014,3.662,30.761,
00:00:09:383,0.484,0.235,0.938,604.492,-33.326,-3.418,
00:00:09:400,0.473,0.119,0.973,577.88,-48.218,-24.659,
00:00:09:416,0.434,0.121,0.967,401.428,-56.824,-33.692,
00:00:09:433,0.422,0.201,0.921,262.207,-85.633,-31.495,
00:00:09:450,0.358,0.184,0.915,141.357,-174.378,-93.934,
00:00:09:466,0.293,0.19,0.976,45.166,-190.125,-111.695,
00:00:09:483,0.242,0.245,0.959,42.419,-150.574,-112.488,
00:00:09:500,0.307,0.374,1.004,30.883,-104.31,-69.886,
00:00:09:516,0.292,0.382,0.931,224.853,-64.454,-171.509,
00:00:09:533,0.314,0.249,0.947,239.257,-45.777,-157.41,
00:00:09:550,0.388,0.255,1.005,130.859,-29.847,-152.894,
00:00:09:566,0.451,0.319,0.967,75.927,-54.322,-146.058,
00:00:09:583,0.529,0.312,0.97,13,-48.523,-105.713,
00:00:09:600,0.789,0.378,1.355,-209.595,-98.389,-14.832,
00:00:09:616,0.583,0.61,0.821,-51.148,-150.025,-41.565,
00:00:09:633,0.338,0.204,0.733,161.071,-209.351,-153.504,
00:00:09:650,0.36,0.255,0.779,57.067,-25.086,-28.626,
00:00:09:666,0.516,0.365,0.779,-17.212,47.18,-24.537,
00:00:09:683,0.511,0.354,0.761,25.268,5.31,-34.79,
00:00:09:700,0.471,0.313,0.778,14.892,1.525,-56.702,
00:00:09:716,0.475,0.344,0.774,37.292,26.123,-52.369,
00:00:09:733,0.466,0.41,0.782,135.315,37.597,-45.777,
00:00:09:750,0.404,0.418,0.674,248.901,27.771,-75.806,
00:00:09:766,0.291,0.298,0.53,464.538,-3.663,-219.056,
00:00:09:783,0.23,-0.006,0.655,577.88,-16.846,-243.47,
00:00:09:800,0.22,0.011,0.706,425.232,157.165,-114.258,
00:00:09:816,0.321,0.149,0.714,339.782,211.609,-94.3,
00:00:09:833,0.354,0.134,0.778,442.077,117.859,-117.188,
00:00:09:850,0.319,-0.004,0.831,491.088,154.297,-117.676,
00:00:09:866,0.391,0.052,0.896,441.04,190.918,-28.87,
00:00:09:883,0.518,0.095,0.95,370.605,179.504,-69.947,
00:00:09:900,0.56,0.163,0.991,385.192,114.318,-72.327,
00:00:09:916,0.58,0.085,0.997,352.172,50.72,-160.706,
00:00:09:933,0.58,-0.018,1.025,243.164,-4.273,-179.139,
00:00:09:950,0.56,0.006,1.061,138,-81.971,-160.523,
00:00:09:966,0.503,-0.017,1.016,49.926,-69.153,-148.255,
00:00:09:983,0.476,0.09,0.895,-97.84,-29.664,-77.454,
00:00:10:0,0.549,0.266,0.908,-77.454,-26.429,-44.922,
00:00:10:16,0.526,0.299,0.895,9.033,-56.885,-75.257,
00:00:10:33,0.495,0.297,0.839,136.047,-22.339,-59.937,
00:00:10:50,0.444,0.253,0.708,349.609,-54.383,-116.272,
00:00:10:66,0.373,-0.079,0.712,605.285,-93.079,-214.295,
00:00:10:83,0.284,-0.349,0.735,526.306,-49.744,-235.413,
00:00:10:100,0.261,-0.467,0.794,215.332,27.221,-220.398,
00:00:10:116,0.385,-0.228,0.882,-100.708,142.273,-163.697,
00:00:10:133,0.499,0.069,0.891,-158.692,118.225,-114.747,
00:00:10:150,0.458,0.217,0.952,-47.242,41.076,-145.752,
00:00:10:166,0.464,0.218,0.948,112.182,15.869,-137.696,
00:00:10:183,0.535,0.141,0.976,263.122,-13.55,-93.75,
00:00:10:200,0.586,0.061,0.987,348.571,-19.593,-110.413,
00:00:10:216,0.613,-0.03,1.005,274.597,-37.781,-92.591,
00:00:10:233,0.582,0.065,0.903,194.824,-21.668,-50.782,
00:00:10:250,0.626,0.107,0.934,206.176,-46.021,-25.208,
00:00:10:266,0.614,0.037,0.938,301.513,-67.872,-31.983,
00:00:10:283,0.557,-0.029,0.838,335.266,-81.727,-47.913,
00:00:10:300,0.499,-0.063,0.845,348.571,-75.196,-47.303,
00:00:10:316,0.446,-0.13,0.856,416.809,-59.449,-44.19,
00:00:10:333,0.366,-0.255,0.863,303.955,0.244,-50.904,
00:00:10:350,0.376,-0.215,0.879,246.032,45.837,-13.245,
00:00:10:366,0.388,-0.184,0.862,213.073,61.523,-19.532,
00:00:10:383,0.462,-0.151,0.98,194.763,4.333,-1.343,
00:00:10:400,0.444,-0.212,0.957,226.257,-7.325,-57.007,
00:00:10:416,0.428,-0.238,0.926,256.408,-16.48,-40.406,
00:00:10:433,0.452,-0.248,0.947,257.934,-25.513,-19.471,
00:00:10:450,0.448,-0.203,0.927,229.187,-8.301,-29.175,
00:00:10:466,0.433,-0.236,0.954,244.995,3.418,-17.029,
00:00:10:483,0.472,-0.252,0.995,191.04,23.803,16.784,
00:00:10:500,0.466,-0.194,0.953,158.569,56.518,17.761,
00:00:10:516,0.446,-0.175,0.941,253.906,77.453,51.208,
00:00:10:533,0.491,-0.409,0.851,86.792,71.106,-58.228,
00:00:10:550,0.508,-0.38,0.918,-60.364,61.767,-32.959,
00:00:10:566,0.484,-0.318,0.952,-82.52,87.341,-25.513,
00:00:10:583,0.456,-0.258,0.944,23.803,132.629,-12.818,
00:00:10:600,0.45,-0.27,0.955,136.474,161.56,-0.489,
00:00:10:616,0.419,-0.296,0.932,212.463,193.115,6.042,
00:00:10:633,0.394,-0.288,0.824,182.8,241.272,-52.247,
00:00:10:650,0.495,-0.316,0.863,192.688,233.093,-122.376,
00:00:10:666,0.53,-0.315,0.838,214.599,163.879,-71.473,
00:00:10:683,0.51,-0.331,0.9,204.101,123.474,-148.56,
00:00:10:700,0.474,-0.359,0.79,197.631,155.151,-50.293,
00:00:10:716,0.446,-0.264,0.781,190.429,166.809,2.99,
00:00:10:733,0.428,-0.19,0.695,224.243,204.406,80.383,
00:00:10:750,0.449,-0.203,0.695,300.476,258.789,-59.754,
00:00:10:766,0.498,-0.263,0.633,296.997,260.254,0.061,
00:00:10:783,0.522,-0.216,0.63,331.604,220.153,-92.835,
00:00:10:800,0.536,-0.243,0.666,498.108,226.806,-10.254,
00:00:10:816,0.555,-0.239,0.626,638.061,257.812,-11.17,
00:00:10:833,0.639,-0.392,0.612,534.362,259.399,-80.75,
00:00:10:850,0.713,-0.497,0.717,309.936,158.02,-91.797,
00:00:10:866,0.702,-0.574,0.734,170.593,53.161,-153.382,
00:00:10:883,0.592,-0.509,0.674,-48.706,-14.1,-88.685,
00:00:10:900,0.541,-0.37,0.666,-146.424,3.845,-43.274,
00:00:10:916,0.589,-0.29,0.699,-126.343,23.315,5.371,
00:00:10:933,0.591,-0.261,0.709,-78.37,-2.564,-0.855,
00:00:10:950,0.568,-0.235,0.723,7.141,-33.692,-13.367,
00:00:10:966,0.564,-0.308,0.681,85.51,-39.307,-17.334,
00:00:10:983,0.523,-0.352,0.617,88.195,-49.073,-18.738,
00:00:11:0,0.513,-0.404,0.643,93.811,-27.283,-9.4,
00:00:11:16,0.487,-0.402,0.619,128.051,27.954,-6.104,
00:00:11:33,0.526,-0.424,0.638,160.827,82.946,-12.757,
00:00:11:50,0.56,-0.484,0.632,196.35,60.791,-38.758,
00:00:11:66,0.519,-0.539,0.635,130.31,34.851,-61.341,
00:00:11:83,0.506,-0.645,0.621,-3.54,25.207,-58.594,
00:00:11:100,0.509,-0.762,0.613,-245.728,9.277,-55.726,
00:00:11:116,0.499,-0.823,0.678,-577.21,-3.113,-90.76,
00:00:11:133,0.518,-0.834,0.786,-1039.856,-10.682,-126.77,
00:00:11:150,0.666,-0.452,1.183,-1399.109,-35.828,-97.962,flipLH
00:00:11:166,0.739,-0.025,0.922,-826.722,-42.969,-68.604,
00:00:11:183,0.527,-0.141,0.838,-525.696,-185.12,-174.866,
00:00:11:200,0.488,-0.272,0.823,-542.237,-130.494,-187.745,
00:00:11:216,0.458,-0.08,0.65,-407.288,-54.993,-64.759,
00:00:11:233,0.457,-0.014,0.736,-193.36,8.85,-63.233,
00:00:11:250,0.515,0.04,0.712,16.418,92.102,2.807,
00:00:11:266,0.555,-0.075,0.726,191.284,93.627,-10.56,
00:00:11:283,0.552,-0.244,0.751,265.869,79.528,-10.498,
00:00:11:300,0.557,-0.3,0.761,261.596,61.523,-9.156,
00:00:11:316,0.552,-0.325,0.743,265.747,60.302,-16.968,
00:00:11:333,0.546,-0.353,0.721,275.39,56.03,-37.842,
00:00:11:350,0.54,-0.369,0.738,294.738,56.274,-36.072,
00:00:11:366,0.555,-0.382,0.729,276.855,43.518,-59.082,
00:00:11:383,0.589,-0.383,0.759,289.672,41.565,-38.331,
00:00:11:400,0.614,-0.38,0.772,243.53,35.034,-63.721,
00:00:11:416,0.618,-0.349,0.774,254.76,30.029,-39.612,
00:00:11:433,0.599,-0.36,0.702,244.567,40.588,-61.402,
00:00:11:450,0.631,-0.364,0.712,196.655,15.319,-53.772,
00:00:11:466,0.667,-0.363,0.755,179.016,-26.551,-62.256,
00:00:11:483,0.683,-0.375,0.833,241.882,-52.796,-42.725,
00:00:11:500,0.671,-0.397,0.794,284.912,-69.886,-64.637,
00:00:11:516,0.651,-0.476,0.768,288.757,-89.051,-56.885,
00:00:11:533,0.641,-0.502,0.748,262.085,-116.639,-58.167,
00:00:11:550,0.593,-0.501,0.779,251.159,-140.442,-50.782,
00:00:11:566,0.555,-0.425,0.743,273.742,-138.55,-68.421,
00:00:11:583,0.529,-0.436,0.702,327.209,-136.963,-72.327,
00:00:11:600,0.488,-0.544,0.674,306.152,-154.358,-110.718,
00:00:11:616,0.45,-0.549,0.732,281.982,-151.612,-64.82,
00:00:11:633,0.432,-0.505,0.703,242.065,-104.065,-71.473,
00:00:11:650,0.45,-0.526,0.741,320.373,-84.168,-64.026,
00:00:11:666,0.42,-0.55,0.604,292.968,-60.486,-79.163,
00:00:11:683,0.434,-0.715,0.631,85.632,-92.102,-84.961,
00:00:11:700,0.408,-0.66,0.728,-130.005,-80.14,-49.073,
00:00:11:716,0.464,-0.467,0.81,-202.332,-48.218,-13.428,
00:00:11:733,0.514,-0.35,0.785,-100.464,-40.711,9.765,
00:00:11:750,0.498,-0.379,0.7,-71.656,-49.317,9.521,
00:00:11:766,0.517,-0.453,0.672,-78.492,-43.335,14.709,
00:00:11:783,0.584,-0.564,0.817,-84.473,-50.782,18.066,
00:00:11:800,0.632,-0.562,0.904,-46.326,-62.745,25.512,
00:00:11:816,0.652,-0.554,0.933,-3.724,-112.732,15.93,
00:00:11:833,0.626,-0.584,0.929,20.08,-171.265,1.586,
00:00:11:850,0.601,-0.524,0.854,-7.874,-223.389,-7.203,
00:00:11:866,0.587,-0.583,0.918,-7.691,-275.147,-16.419,
00:00:11:883,0.563,-0.56,0.965,3.845,-288.331,-2.198,
00:00:11:900,0.589,-0.516,1.034,73.608,-327.088,9.094,
00:00:11:916,0.567,-0.557,0.973,157.348,-352.539,-3.113,
00:00:11:933,0.559,-0.75,0.999,17.822,-444.397,-39.551,
00:00:11:950,0.503,-0.762,0.986,-201.233,-511.048,-10.132,
00:00:11:966,0.48,-0.753,0.998,-359.925,-562.256,-2.137,
00:00:11:983,0.474,-0.745,0.976,-495.362,-615.845,-9.522,
00:00:12:0,0.431,-0.734,0.921,-608.033,-682.496,-33.265,
00:00:12:16,0.4,-0.711,0.87,-732.483,-765.32,-68.238,
00:00:12:33,0.35,-0.656,0.807,-876.099,-789.368,-84.839,
00:00:12:50,0.301,-0.63,0.734,-1012.879,-815.125,-119.751,
00:00:12:66,0.285,-0.567,0.685,-1126.404,-819.214,-125.916,
00:00:12:83,0.27,-0.366,0.693,-1169.312,-862.549,-115.967,
00:00:12:100,0.181,-0.139,0.548,-1042.908,-845.52,-120.301,
00:00:12:116,0.131,-0.18,0.497,-947.205,-834.9,-228.882,
00:00:12:133,0.137,-0.318,0.386,-978.821,-808.106,-222.779,
00:00:12:150,0.128,-0.282,0.373,-1181.397,-858.216,-214.783,
00:00:12:166,0.075,0.11,0.118,-1007.752,-736.023,-248.047,
00:00:12:183,0.093,0.094,0.13,-1037.781,-757.996,-374.268,
00:00:12:200,0.031,0.027,0.113,-743.714,-690.003,-370.972,
00:00:12:216,-0.023,0.08,0.193,-614.319,-663.269,-315.064,
00:00:12:233,0.006,-0.037,0.053,-558.045,-599.976,-274.292,
00:00:12:250,0.043,-0.327,0.072,-866.7,-518.067,-300.965,
00:00:12:266,-0.203,-0.282,0.394,-1293.274,-494.629,-302.796,
00:00:12:283,-0.105,0.106,0.493,-1683.838,-375.061,-274.109,
00:00:12:300,-0.139,0.277,0.536,-1293.519,-261.231,-137.024,
00:00:12:316,-0.236,0.608,0.635,-618.897,-124.878,-76.172,
00:00:12:333,-0.324,0.616,0.681,164.489,17.456,1.22,
00:00:12:350,-0.25,0.614,1.109,482.727,332.702,135.559,
00:00:12:366,-0.173,0.588,1.451,483.337,483.642,134.704,
00:00:12:383,-0.217,0.549,1.641,507.263,577.88,65.063,
00:00:12:400,-0.259,0.547,1.725,444.336,589.965,8.117,
00:00:12:416,-0.331,0.717,1.748,340.088,568.359,7.873,
00:00:12:433,0.369,1.023,0.948,574.096,489.624,97.29,
00:00:12:450,-0.427,-0.738,2.486,1097.9,75.134,116.027,
00:00:12:466,-0.154,0.625,1.744,158.691,197.937,84.35,
00:00:12:483,-0.383,0.434,1.788,172.668,104.37,72.204,
00:00:12:500,-0.234,0.361,1.507,130.615,15.258,30.09,
00:00:12:516,-0.298,0.345,1.38,7.812,-35.95,-37.964,
00:00:12:533,-0.19,0.237,0.966,-301.636,-14.1,-145.081,
00:00:12:550,-0.185,0.231,0.968,-274.476,-23.743,-142.09,
00:00:12:566,-0.17,0.233,0.94,-180.176,-9.278,-121.338,
00:00:12:583,-0.129,0.226,0.926,-77.393,-12.635,-96.497,
00:00:12:600,-0.104,0.176,0.95,-49.012,-23.56,-98.511,
00:00:12:616,-0.102,0.21,0.967,-42.664,-31.617,-100.159,
00:00:12:633,-0.111,0.198,0.973,-122.559,-35.645,-102.051,
00:00:12:650,-0.125,0.203,1.003,-141.419,-23.804,-74.036,
00:00:12:666,-0.109,0.239,0.979,-100.525,-3.602,-33.081,
00:00:12:683,-0.094,0.24,0.945,-66.407,7.446,-13.184,
00:00:12:700,-0.074,0.16,0.914,-68.909,18.859,-16.053,
00:00:12:716,-0.082,0.151,0.954,-58.533,44.616,-3.418,
00:00:12:733,-0.086,0.158,0.955,30.395,69.641,3.173,
00:00:12:750,-0.095,0.163,0.971,98.632,100.952,4.638,
00:00:12:766,-0.07,0.236,0.934,184.875,109.13,9.643,
00:00:12:783,-0.09,0.231,1.005,21.362,65.673,-3.479,
00:00:12:800,-0.108,0.226,1.055,-56.092,52.917,7.507,
00:00:12:816,-0.122,0.234,1.093,-58.35,54.565,30.944,
00:00:12:833,-0.143,0.239,1.141,7.385,86.486,71.96,
00:00:12:850,-0.124,0.324,1.073,158.386,93.689,126.831,
00:00:12:866,-0.095,0.154,1.101,178.833,57.495,118.53,
00:00:12:883,-0.095,0.196,1.149,165.161,89.538,137.939,
00:00:12:900,-0.1,0.185,1.187,263.244,141.845,169.25,
00:00:12:916,-0.077,0.205,1.091,386.901,152.099,205.444,
00:00:12:933,-0.01,0.154,0.962,473.816,3.845,151.977,
00:00:12:950,-0.02,-0.071,0.939,245.178,-23.316,82.641,
00:00:12:966,-0.038,-0.21,0.981,-48.218,-10.682,62.683,
00:00:12:983,-0.053,-0.087,0.996,-193.97,11.718,87.341,
00:00:13:0,-0.087,0.089,0.967,-49.378,40.771,135.07,
00:00:13:16,-0.038,0.041,0.908,340.149,-29.419,50.598,
00:00:13:33,-0.066,0.005,0.932,209.655,-22.156,44.372,
00:00:13:50,-0.064,0.021,0.901,130.127,8.85,71.899,
00:00:13:66,-0.014,0.068,0.838,167.846,7.507,107.727,
00:00:13:83,-0.009,0.065,0.846,236.45,-42.481,99.853,
00:00:13:100,-0.07,-0.03,0.932,35.034,11.352,80.871,
00:00:13:116,-0.043,0.017,0.987,118.713,26.001,100.402,
00:00:13:133,-0.038,0.074,1.001,254.638,32.409,145.752,
00:00:13:150,-0.055,0.063,1.01,333.374,31.189,118.591,
00:00:13:166,-0.067,0.021,1.036,393.249,41.809,125.122,
00:00:13:183,-0.046,-0.089,1.088,354.37,69.336,130.859,
00:00:13:200,-0.028,-0.1,1.085,281.189,100.586,122.619,
00:00:13:216,-0.011,-0.143,1.11,238.342,103.149,154.663,
00:00:13:233,-0.025,-0.083,1.107,248.474,87.158,206.787,
00:00:13:250,-0.039,-0.025,1.051,278.137,121.032,257.934,
00:00:13:266,0.003,-0.122,1.013,239.013,122.131,200.5,
00:00:13:283,-0.038,-0.19,1.154,-10.193,46.875,140.319,
00:00:13:300,-0.041,-0.119,1.063,54.016,141.174,220.398,
00:00:13:316,-0.012,-0.126,1.019,111.267,153.808,194.702,
00:00:13:333,0.013,-0.22,0.997,69.946,91.613,176.635,
00:00:13:350,-0.03,-0.234,1.035,-39.307,48.034,145.324,
00:00:13:366,-0.013,-0.179,1.051,-60.181,72.326,147.461,
00:00:13:383,-0.002,-0.163,1.017,-40.894,116.76,147.705,
00:00:13:400,0.013,-0.156,1.015,-45.838,67.871,158.569,
00:00:13:416,-0.017,-0.138,1.015,-50.965,27.587,167.907,
00:00:13:433,-0.064,-0.134,0.991,-44.8,74.829,151.001,
00:00:13:450,-0.056,-0.177,0.941,-47.12,106.018,151.428,
00:00:13:466,-0.072,-0.216,0.898,-120.972,120.178,91.186,
00:00:13:483,-0.112,-0.245,0.902,-186.829,167.724,110.046,
00:00:13:500,-0.097,-0.235,0.875,-208.802,255.432,110.839,
00:00:13:516,-0.062,-0.235,0.825,-251.282,268.127,101.928,
00:00:13:533,-0.074,-0.23,0.78,-277.1,246.765,47.424,
00:00:13:550,-0.099,-0.194,0.797,-286.56,225.769,57.373,
00:00:13:566,-0.103,-0.182,0.763,-285.706,294.799,23.437,
00:00:13:583,-0.06,-0.183,0.795,-292.847,308.044,8.85,
00:00:13:600,-0.028,-0.113,0.838,-301.636,336.67,-36.072,
00:00:13:616,0.024,-0.082,0.858,-260.193,323.608,-107.85,
00:00:13:633,0.049,-0.04,0.892,-211.853,290.039,-153.077,
00:00:13:650,0.083,-0.005,0.938,-116.333,269.592,-160.096,
00:00:13:666,0.11,-0.001,0.978,-22.644,258.606,-175.11,
00:00:13:683,0.158,-0.021,1.018,63.232,206.604,-240.723,
00:00:13:700,0.199,-0.013,1.053,100.341,190.307,-249.573,
00:00:13:716,0.245,-0.009,1.091,148.925,162.414,-256.958,
00:00:13:733,0.301,-0.022,1.15,171.203,117.859,-264.71,
00:00:13:750,0.321,-0.04,1.191,169.922,54.382,-251.465,
00:00:13:766,0.295,-0.099,1.16,200.561,-65.003,-185.73,
00:00:13:783,0.278,-0.131,1.14,166.137,-85.083,-167.054,
00:00:13:800,0.245,-0.139,1.114,137.024,-97.29,-147.644,
00:00:13:816,0.29,-0.083,1.03,188.415,-192.261,-190.064,
00:00:13:833,0.097,-0.139,1.063,-259.888,-58.289,126.953,
00:00:13:850,0.269,0.203,0.942,-119.019,53.527,-122.681,
00:00:13:866,0.127,-0.228,0.927,-65.308,-160.401,-46.57,
00:00:13:883,0.092,-0.006,1.031,-79.285,-33.814,-56.641,
00:00:13:900,0.164,-0.148,0.987,-15.748,-2.869,-58.472,
00:00:13:916,0.108,-0.083,0.994,-48.523,-17.64,-29.541,
00:00:13:933,0.092,-0.12,0.92,-5.799,21.545,-78.248,
00:00:13:950,0.012,-0.17,0.876,-15.748,-16.053,-80.323,
00:00:13:966,-0.028,-0.25,0.843,-37.293,40.039,-95.52,
00:00:13:983,-0.002,-0.271,0.814,-86.731,52.246,-99.854,
00:00:14:0,-0.035,-0.27,0.865,-151.734,53.283,-90.088,
00:00:14:16,0.006,-0.275,0.907,-240.784,121.704,-96.558,
00:00:14:33,0.07,-0.218,0.946,-332.703,137.39,-108.948,
00:00:14:50,0.111,-0.143,0.984,-392.334,127.624,-170.472,
00:00:14:66,0.191,-0.119,1.071,-387.391,125.793,-170.899,
00:00:14:83,0.13,0.275,1.11,-475.831,123.596,-107.056,
00:00:14:100,0.315,0.424,1.02,110.595,113.525,-301.941,
00:00:14:116,0.13,-0.361,0.928,390.442,-113.282,-335.45,
00:00:14:133,-0.085,-0.493,1.115,-121.399,-17.884,-221.009,
00:00:14:150,0.231,0.144,1.052,-209.656,289.917,-205.445,
00:00:14:166,0.255,-0.15,1.033,-121.399,84.655,-243.103,
00:00:14:183,0.077,-0.018,1.119,-201.233,104.553,-167.603,
00:00:14:200,0.14,0.007,0.999,-199.341,231.384,-134.705,
00:00:14:216,0.112,-0.039,0.971,-227.295,173.278,-121.094,
00:00:14:233,0.074,-0.079,0.95,-248.169,234.619,-98.023,
00:00:14:250,0.109,-0.128,0.923,-306.946,266.296,-94.483,
00:00:14:266,0.171,0.011,0.991,-354.92,330.261,14.404,
00:00:14:283,0.315,-0.015,0.96,-255.799,253.234,-224.976,
00:00:14:300,0.164,-0.165,1.029,-223.938,118.286,-231.873,
00:00:14:316,0.177,-0.174,0.977,-313.843,252.563,-239.136,
00:00:14:333,0.258,-0.049,0.915,-387.879,201.599,-220.032,
00:00:14:350,0.217,-0.016,0.929,-351.014,181.457,-253.907,
00:00:14:366,0.217,0.037,0.909,-309.632,215.515,-235.718,
00:00:14:383,0.218,0.094,0.867,-262.94,252.99,-249.756,
00:00:14:400,0.266,0.136,0.856,-254.029,261.718,-237.305,
00:00:14:416,0.297,0.184,0.87,-222.84,266.54,-228.882,
00:00:14:433,0.3,0.205,0.821,-200.013,276.855,-206.116,
00:00:14:450,0.324,0.23,0.804,-209.595,283.874,-191.04,
00:00:14:466,0.432,0.289,0.767,-181.092,273.986,-217.225,
00:00:14:483,0.544,0.079,0.925,-298.768,234.436,-189.942,
00:00:14:500,0.661,0.539,0.943,-299.256,240.356,-45.166,
00:00:14:516,0.73,0.542,0.953,-234.131,77.331,-100.22,
00:00:14:533,0.66,0.697,0.913,53.955,2.014,-60.852,
00:00:14:550,0.609,0.421,0.746,307.922,-92.713,-131.165,
00:00:14:566,0.479,0.294,0.609,404.785,-187.928,-118.042,
00:00:14:583,0.306,0.161,0.488,419.128,-154.541,-115.113,
00:00:14:600,0.204,-0.016,0.468,334.106,-75.196,-96.802,
00:00:14:616,0.141,0.046,0.525,178.161,12.268,15.197,
00:00:14:633,0.226,0.077,0.619,157.653,248.23,52.673,
00:00:14:650,0.333,0.082,0.738,105.713,283.935,79.711,
00:00:14:666,0.399,0.21,0.857,102.6,302.978,58.044,
00:00:14:683,0.461,0.219,0.966,225.708,343.139,55.603,
00:00:14:700,0.516,0.181,0.981,381.347,339.477,21.728,
00:00:14:716,0.546,0.03,1.031,527.893,305.359,13,
00:00:14:733,0.506,-0.081,0.871,599.609,176.88,-37.964,
00:00:14:750,0.43,-0.275,0.966,656.982,9.155,-98.694,
00:00:14:766,0.311,-0.531,0.971,448.303,64.209,-61.402,
00:00:14:783,0.34,-0.429,0.987,181.152,146.545,4.882,
00:00:14:800,0.374,-0.264,0.893,122.985,169.189,5.554,
00:00:14:816,0.403,-0.062,1.005,97.168,164.795,-14.771,
00:00:14:833,0.429,-0.081,1.017,265.503,162.963,-66.04,
00:00:14:850,0.419,-0.118,1.025,342.651,134.643,-142.518,
00:00:14:866,0.407,-0.256,0.999,401.062,108.276,-224.122,
00:00:14:883,0.419,-0.359,0.999,344.848,49.804,-230.53,
00:00:14:900,0.373,-0.413,1.03,175.964,74.585,-169.251,
00:00:14:916,0.394,-0.259,0.965,68.359,139.648,-133.301,
00:00:14:933,0.443,-0.172,0.949,84.961,136.718,-144.715,
00:00:14:950,0.478,-0.157,0.927,127.258,117.675,-163.453,
00:00:14:966,0.5,-0.165,0.901,169.25,77.27,-194.275,
00:00:14:983,0.518,-0.199,0.873,152.343,78.308,-169.556,
00:00:15:0,0.522,-0.172,0.823,101.623,78.918,-145.997,
00:00:15:16,0.491,-0.135,0.762,52.368,109.192,-129.456,
00:00:15:33,0.516,-0.096,0.814,41.015,122.436,-113.282,
00:00:15:50,0.534,-0.043,0.789,57.922,120.483,-101.563,
00:00:15:66,0.581,-0.064,0.803,111.45,81.054,-128.479,
00:00:15:83,0.623,-0.144,0.896,170.349,16.54,-135.071,
00:00:15:100,0.584,-0.19,0.888,178.405,14.953,-92.286,
00:00:15:116,0.572,-0.168,0.834,157.287,18.676,-42.176,
00:00:15:133,0.61,-0.146,0.817,188.232,-17.151,-48.523,
00:00:15:150,0.59,-0.135,0.839,335.51,-88.257,-87.281,
00:00:15:166,0.517,-0.239,0.852,489.746,-81.91,-93.506,
00:00:15:183,0.478,-0.348,0.8,540.466,-35.401,-68.97,
00:00:15:200,0.45,-0.418,0.748,418.762,-1.038,-39.124,
00:00:15:216,0.463,-0.401,0.852,342.224,-26.429,-31.861,
00:00:15:233,0.421,-0.445,0.86,328.552,-63.111,-26.978,
00:00:15:250,0.426,-0.409,0.908,341.369,-48.34,25.695,
00:00:15:266,0.485,-0.496,0.976,306.457,-20.63,-6.287,
00:00:15:283,0.466,-0.481,0.956,268.432,-30.457,5.615,
00:00:15:300,0.433,-0.477,0.946,233.459,-39.978,-28.138,
00:00:15:316,0.417,-0.5,0.911,170.959,-16.419,-43.213,
00:00:15:333,0.42,-0.457,0.88,121.582,-25.757,-28.077,
00:00:15:350,0.426,-0.448,0.889,110.839,-29.358,-26.307,
00:00:15:366,0.426,-0.436,0.916,133.422,-13.672,-9.644,
00:00:15:383,0.431,-0.394,0.931,165.954,6.164,-8.301,
00:00:15:400,0.429,-0.353,0.851,186.34,37.536,-28.87,
00:00:15:416,0.435,-0.411,0.84,196.838,46.63,-57.618,
00:00:15:433,0.444,-0.424,0.803,138.427,57.312,-56.519,
00:00:15:450,0.446,-0.435,0.833,142.273,68.054,-28.199,
00:00:15:466,0.432,-0.487,0.813,21.057,51.086,-10.254,
00:00:15:483,0.45,-0.38,0.831,38.269,88.378,5.493,
00:00:15:500,0.449,-0.398,0.835,147.094,132.995,24.536,
00:00:15:516,0.481,-0.408,0.88,250.793,160.4,21.972,
00:00:15:533,0.477,-0.439,0.727,177.124,171.264,-44.312,
00:00:15:550,0.465,-0.409,0.721,149.17,126.098,-39.49,
00:00:15:566,0.439,-0.483,0.709,125.244,116.76,-96.436,
00:00:15:583,0.422,-0.447,0.691,71.899,117.431,-62.073,
00:00:15:600,0.422,-0.454,0.684,73.12,146.789,36.804,
00:00:15:616,0.394,-0.469,0.705,54.26,168.335,7.446,
00:00:15:633,0.463,-0.499,0.749,-13.672,180.969,10.009,
00:00:15:650,0.491,-0.521,0.735,-100.953,185.547,-20.63,
00:00:15:666,0.51,-0.539,0.703,-181.214,167.48,-14.1,
00:00:15:683,0.52,-0.348,0.752,-188.599,165.71,40.527,
00:00:15:700,0.523,-0.171,0.679,-31.983,181.64,-39.368,
00:00:15:716,0.543,-0.255,0.728,203.613,123.23,-61.707,
00:00:15:733,0.573,-0.368,0.635,361.267,155.883,-111.878,
00:00:15:750,0.537,-0.487,0.596,248.474,35.766,-62.928,
00:00:15:766,0.463,-0.44,0.627,132.568,4.943,-40.65,
00:00:15:783,0.471,-0.391,0.674,96.313,84.35,-6.043,
00:00:15:800,0.535,-0.37,0.63,78.613,138.794,-17.151,
00:00:15:816,0.617,-0.404,0.696,101.684,101.44,-37.659,
00:00:15:833,0.601,-0.46,0.655,100.952,38.086,-71.289,
00:00:15:850,0.584,-0.558,0.718,83.557,-8.851,-75.318,
00:00:15:866,0.546,-0.573,0.714,-41.199,-16.846,-31.006,
00:00:15:883,0.52,-0.511,0.688,-141.785,-5.494,-7.447,
00:00:15:900,0.513,-0.462,0.699,-180.115,-16.236,-25.025,
00:00:15:916,0.51,-0.432,0.696,-166.626,-21.241,-6.775,
00:00:15:933,0.522,-0.405,0.703,-114.38,-0.611,-24.72,
00:00:15:950,0.521,-0.451,0.689,-77.698,-10.315,-23.194,
00:00:15:966,0.509,-0.472,0.701,-89.417,-8.301,-29.175,
00:00:15:983,0.501,-0.52,0.708,-129.456,12.695,-5.433,
00:00:16:0,0.525,-0.501,0.757,-202.21,39.428,-13.428,
00:00:16:16,0.57,-0.502,0.764,-232.85,35.217,-36.438,
00:00:16:33,0.572,-0.476,0.778,-228.455,-12.207,-60.791,
00:00:16:50,0.522,-0.458,0.752,-238.831,-34.485,-95.948,
00:00:16:66,0.478,-0.433,0.7,-167.908,-14.283,-79.59,
00:00:16:83,0.487,-0.438,0.703,-165.223,7.873,-95.337,
00:00:16:100,0.492,-0.391,0.704,-113.099,25.39,-73.121,
00:00:16:116,0.482,-0.346,0.724,3.112,63.232,-47.486,
00:00:16:133,0.501,-0.354,0.701,93.261,93.566,-37.293,
00:00:16:150,0.508,-0.403,0.684,117.187,81.543,-36.622,
00:00:16:166,0.511,-0.431,0.671,78.308,72.021,-30.579,
00:00:16:183,0.53,-0.447,0.714,28.686,56.274,-43.091,
00:00:16:200,0.533,-0.399,0.724,35.4,68.115,-19.288,
00:00:16:216,0.558,-0.405,0.72,97.229,42.358,-42.054,
00:00:16:233,0.535,-0.412,0.677,117.92,19.409,-40.589,
00:00:16:250,0.535,-0.473,0.67,117.492,2.014,-65.43,
00:00:16:266,0.539,-0.468,0.692,85.327,20.996,-43.152,
00:00:16:283,0.551,-0.435,0.709,80.688,23.498,-45.35,
00:00:16:300,0.555,-0.448,0.718,102.966,0.305,-55.054,
00:00:16:316,0.55,-0.481,0.735,128.112,-21.851,-45.533,
00:00:16:333,0.556,-0.505,0.746,146.24,-11.475,-44.8,
00:00:16:350,0.573,-0.543,0.727,149.597,-5.31,-46.082,
00:00:16:366,0.58,-0.576,0.779,129.211,-24.537,-52.002,
00:00:16:383,0.537,-0.543,0.729,86.608,-20.325,-68.177,
00:00:16:400,0.507,-0.546,0.714,65.124,-24.292,-63.294,
00:00:16:416,0.49,-0.542,0.713,29.052,-14.893,-55.97,
00:00:16:433,0.5,-0.549,0.732,20.324,9.338,-46.387,
00:00:16:450,0.542,-0.521,0.734,27.343,22.033,-47.12,
00:00:16:466,0.545,-0.53,0.715,7.69,6.652,-69.947,flipLH
00:00:16:483,0.51,-0.545,0.705,-62.134,-10.743,-72.754,
00:00:16:500,0.491,-0.512,0.733,-127.381,-2.808,-58.35,
00:00:16:516,0.49,-0.435,0.715,-123.352,19.165,-27.283,
00:00:16:533,0.512,-0.423,0.724,-59.815,12.939,-28.504,
00:00:16:550,0.504,-0.441,0.708,-0.855,6.774,-33.509,
00:00:16:566,0.503,-0.47,0.709,15.808,6.591,-33.081,
00:00:16:583,0.507,-0.463,0.697,20.324,20.385,-23.987,
00:00:16:600,0.531,-0.458,0.703,31.738,17.761,-14.954,
00:00:16:616,0.53,-0.447,0.682,47.607,21.118,-14.1,
00:00:16:633,0.548,-0.503,0.698,43.762,4.821,-17.518,
00:00:16:650,0.56,-0.513,0.716,19.47,-2.808,-18.372,
00:00:16:667,0.566,-0.473,0.739,10.681,-13.611,-10.132,
00:00:16:683,0.56,-0.416,0.727,52.246,-8.667,0.488,
00:00:16:700,0.559,-0.433,0.711,108.825,-20.264,0.61,
00:00:16:717,0.572,-0.503,0.702,117.92,-37.72,4.089,
00:00:16:733,0.576,-0.537,0.714,84.961,-58.472,11.962,
00:00:16:750,0.565,-0.525,0.722,45.41,-71.656,17.761,
00:00:16:767,0.543,-0.493,0.705,44.982,-72.327,23.742,
00:00:16:783,0.516,-0.5,0.616,54.626,-59.632,34.606,
00:00:16:800,0.518,-0.563,0.605,0.122,-72.51,19.409,
00:00:16:817,0.456,-0.506,0.603,-43.03,-74.341,22.277,
00:00:16:833,0.403,-0.423,0.617,26.001,-41.932,23.254,
00:00:16:850,0.396,-0.393,0.55,182.067,9.033,5.981,
00:00:16:867,0.411,-0.467,0.529,343.444,30.517,-30.213,
00:00:16:883,0.41,-0.619,0.555,314.514,25.94,-72.876,
00:00:16:900,0.426,-0.638,0.605,245.971,47.546,-39.368,
00:00:16:917,0.461,-0.592,0.651,178.1,59.021,-69.336,
00:00:16:933,0.496,-0.581,0.652,197.998,48.339,-58.289,
00:00:16:950,0.516,-0.62,0.693,111.084,42.358,-84.778,
00:00:16:967,0.567,-0.603,0.747,46.203,35.217,-73.426,
00:00:16:983,0.593,-0.585,0.779,11.718,5.798,-78.492,
00:00:17:0,0.6,-0.549,0.834,0.244,-23.621,-72.998,
00:00:17:17,0.577,-0.528,0.797,40.527,-35.279,-57.618,
00:00:17:33,0.558,-0.559,0.734,59.875,-46.021,-45.533,
00:00:17:50,0.55,-0.571,0.715,55.725,-47.12,-32.959,
00:00:17:67,0.535,-0.59,0.729,50.842,-30.945,-14.405,
00:00:17:83,0.548,-0.586,0.745,73.12,-5.188,1.831,
00:00:17:100,0.552,-0.593,0.715,100.036,5.493,16.662,
00:00:17:117,0.575,-0.665,0.732,55.297,-30.396,-15.137,
00:00:17:133,0.563,-0.644,0.73,-18.372,-68.238,-15.809,
00:00:17:150,0.541,-0.608,0.734,-49.683,-87.952,-14.588,
00:00:17:167,0.514,-0.568,0.72,-29.602,-92.041,-12.635,
00:00:17:183,0.512,-0.528,0.706,55.053,-73.243,3.662,
00:00:17:200,0.58,-0.637,0.752,21.179,-120.484,-9.461,
00:00:17:217,0.607,-0.653,0.765,-51.88,-163.331,-21.79,
00:00:17:233,0.587,-0.584,0.774,-60.181,-188.599,-0.061,
00:00:17:250,0.614,-0.628,0.829,-19.227,-192.444,-6.104,
00:00:17:267,0.677,-0.792,0.888,-79.956,-228.516,-29.48,
00:00:17:283,0.704,-0.785,0.906,-205.872,-311.219,-27.832,
00:00:17:300,0.629,-0.719,0.897,-314.637,-390.686,-29.541,
00:00:17:317,0.576,-0.672,0.845,-341.065,-423.951,-23.743,
00:00:17:333,0.562,-0.65,0.812,-365.601,-457.947,-32.654,
00:00:17:350,0.523,-0.648,0.761,-373.169,-510.621,-69.336,
00:00:17:367,0.462,-0.613,0.731,-357.117,-546.814,-112.183,
00:00:17:383,0.417,-0.613,0.718,-271.729,-543.091,-138.001,
00:00:17:400,0.392,-0.623,0.656,-249.207,-542.725,-164.795,
00:00:17:417,0.365,-0.638,0.538,-347.901,-594.971,-226.502,
00:00:17:433,0.364,-0.69,0.521,-573.609,-695.191,-322.266,
00:00:17:450,0.352,-0.783,0.701,-857.422,-815.796,-368.653,
00:00:17:467,0.374,-0.63,0.678,-1222.352,-822.693,-329.956,
00:00:17:483,0.409,-0.327,0.5,-1221.192,-864.869,-328.553,
00:00:17:500,0.295,-0.115,0.295,-945.74,-932.984,-360.84,
00:00:17:517,0.145,-0.115,0.119,-688.599,-864.258,-483.704,
00:00:17:533,0.094,-0.294,0.008,-479.432,-755.921,-531.678,
00:00:17:550,0.052,-0.453,0.072,-657.715,-716.37,-547.425,
00:00:17:567,0,-0.575,0.139,-1175.477,-676.514,-649.659,
00:00:17:583,0.068,-0.53,0.315,-1773.255,-635.071,-641.358,
00:00:17:600,0.03,-0.319,0.514,-2000,-605.103,-679.078,
00:00:17:617,-0.128,-0.007,0.604,-2000,-452.637,-649.842,
00:00:17:633,-0.205,0.255,0.485,-2000,-284.79,-640.381,
00:00:17:650,-0.184,0.375,0.385,-2000,-63.111,-600.831,
00:00:17:667,-0.259,0.506,0.322,-1740.662,139.648,-554.261,
00:00:17:683,-0.21,0.666,0.518,-1319.397,242.248,-393.494,
00:00:17:700,-0.236,0.857,0.676,-977.173,385.559,-375.245,
00:00:17:717,-0.152,0.597,0.886,-766.602,520.507,-455.323,
00:00:17:733,-0.096,0.58,1.006,-458.863,664.611,-510.437,
00:00:17:750,-0.03,0.504,1.06,-224.183,706.176,-534.607,
00:00:17:767,0.011,0.589,1.096,-256.47,688.354,-525.818,
00:00:17:783,0.099,0.874,1.096,-175.782,595.581,-534.424,
00:00:17:800,0.854,1.721,1.306,163.33,381.652,164.917,
00:00:17:817,-0.24,-0.097,1.746,571.228,241.333,-294.251,
00:00:17:833,0.215,1.305,1.61,134.887,154.113,-94.971,
00:00:17:850,0.095,0.628,1.624,131.713,-21.973,-10.071,
00:00:17:867,0.028,0.631,1.479,71.899,-117.737,65.734,
00:00:17:883,-0.018,0.616,1.302,-176.88,-145.813,28.564,
00:00:17:900,0.027,0.541,1.115,-351.685,-149.964,-21.851,
00:00:17:917,0,0.516,0.971,-406.067,-105.53,-82.764,
00:00:17:933,0.043,0.557,0.794,-269.532,13.305,-171.814,
00:00:17:950,0.056,0.501,0.809,-253.602,33.569,-204.041,
00:00:17:967,0.071,0.498,0.87,-297.303,60.18,-225.708,
00:00:17:983,0.104,0.568,0.875,-260.621,66.833,-188.111,
00:00:18:0,0.111,0.536,0.884,-197.876,46.752,-155.701,
00:00:18:17,0.117,0.457,0.849,-178.345,24.841,-125.061,
00:00:18:33,0.119,0.393,0.819,-180.481,-0.855,-109.681,
00:00:18:50,0.12,0.387,0.828,-185.242,-16.358,-97.718,
00:00:18:67,0.126,0.4,0.804,-132.325,-8.728,-93.995,
00:00:18:83,0.148,0.424,0.776,-78.98,-4.151,-87.952,
00:00:18:100,0.143,0.457,0.774,-73.182,-1.954,-83.435,
00:00:18:117,0.143,0.489,0.775,-54.2,-0.428,-66.407,
00:00:18:133,0.155,0.503,0.805,-18.616,5.737,-38.392,
00:00:18:150,0.163,0.518,0.81,34.973,19.897,-15.686,
00:00:18:167,0.155,0.495,0.831,61.34,24.902,0.244,
00:00:18:183,0.171,0.479,0.823,46.02,15.319,1.892,
00:00:18:200,0.175,0.48,0.843,25.634,0.366,5.065,
00:00:18:217,0.176,0.498,0.879,36.743,-2.625,15.625,
00:00:18:233,0.192,0.531,0.87,142.517,-23.56,47.851,
00:00:18:250,0.175,0.538,0.871,244.445,-38.269,95.52,
00:00:18:267,0.183,0.513,0.873,211.547,-34.668,110.29,
00:00:18:283,0.186,0.485,0.87,154.724,-29.786,122.497,
00:00:18:300,0.188,0.502,0.885,107.544,-28.382,138.122,
00:00:18:317,0.165,0.533,0.901,137.756,-32.166,167.297,
00:00:18:333,0.143,0.564,0.9,245.971,-33.143,218.383,
00:00:18:350,0.121,0.552,0.886,349.426,-34.546,258.239,
00:00:18:367,0.106,0.5,0.874,378.418,-49.805,273.62,
00:00:18:383,0.089,0.423,0.89,297.058,-66.285,268.31,
00:00:18:400,0.067,0.393,0.91,217.712,-72.998,270.324,
00:00:18:417,0.038,0.404,0.924,195.373,-79.956,270.568,
00:00:18:433,0.008,0.395,0.934,232.299,-80.14,267.517,
00:00:18:450,-0.001,0.388,0.937,273.132,-82.764,263.183,
00:00:18:467,0.004,0.38,0.908,310.18,-83.069,260.742,
00:00:18:483,0.013,0.331,0.922,260.498,-87.281,215.271,
00:00:18:500,0.003,0.298,0.936,185.791,-87.342,182.861,
00:00:18:517,-0.008,0.299,0.954,113.83,-88.562,157.226,
00:00:18:533,-0.013,0.296,0.944,58.471,-80.933,127.502,
00:00:18:550,-0.016,0.309,0.948,35.766,-75.501,110.046,
00:00:18:567,-0.015,0.305,0.921,30.639,-78.919,93.75,
00:00:18:583,-0.027,0.314,0.912,29.663,-71.839,81.237,
00:00:18:600,-0.037,0.313,0.884,34.729,-62.134,69.274,
00:00:18:617,-0.038,0.318,0.886,33.691,-63.172,60.852,
00:00:18:633,-0.045,0.326,0.9,36.377,-44.861,51.757,
00:00:18:650,-0.047,0.333,0.911,42.541,-46.387,43.151,
00:00:18:667,-0.055,0.334,0.933,42.907,-38.514,31.005,
00:00:18:683,-0.056,0.319,0.935,34.179,-27.161,22.033,
00:00:18:700,-0.058,0.319,0.938,27.099,-19.043,14.892,
00:00:18:717,-0.06,0.307,0.932,10.62,-7.691,7.263,
00:00:18:733,-0.056,0.311,0.926,-8.667,2.441,6.164,
00:00:18:750,-0.053,0.336,0.923,-11.048,14.099,26.916,
00:00:18:767,-0.043,0.345,0.932,-10.926,6.652,4.882,
00:00:18:783,-0.048,0.334,0.952,5.981,8.483,8.239,
00:00:18:800,-0.047,0.338,0.961,23.742,12.695,17.028,
00:00:18:817,-0.045,0.335,0.983,48.339,24.536,28.747,
00:00:18:833,-0.046,0.333,0.99,60.119,39.733,42.114,
00:00:18:850,-0.039,0.317,0.988,60.058,52.063,62.866,
00:00:18:867,-0.026,0.373,0.957,50.17,45.837,58.96,
00:00:18:883,-0.021,0.334,0.961,27.282,45.959,67.016,
00:00:18:900,-0.023,0.33,0.967,-20.264,65.185,64.148,
00:00:18:917,-0.02,0.34,0.947,-7.63,80.932,77.087,
00:00:18:933,-0.019,0.351,0.92,39.978,85.998,85.266,
00:00:18:950,-0.017,0.34,0.917,47.851,80.078,64.819,
00:00:18:967,-0.029,0.286,0.93,28.198,76.171,52.917,
00:00:18:983,-0.024,0.293,0.945,-6.653,72.204,48.889,
00:00:19:0,-0.029,0.277,0.952,-27.771,69.458,36.438,
00:00:19:17,-0.038,0.279,0.961,-21.302,64.209,31.738,
00:00:19:33,-0.039,0.284,0.968,-5.249,60.241,26.489,
00:00:19:50,-0.037,0.275,0.982,10.559,52.124,19.531,
00:00:19:67,-0.031,0.28,0.99,19.226,43.701,21.118,
00:00:19:83,-0.014,0.283,0.981,12.695,36.865,26.306,
00:00:19:100,-0.015,0.295,0.973,2.319,33.081,19.348,
00:00:19:117,-0.01,0.292,0.975,-6.104,33.02,26.428,
00:00:19:133,-0.014,0.324,0.973,-4.029,29.48,15.502,
00:00:19:150,-0.017,0.327,0.957,19.653,27.038,22.583,
00:00:19:167,-0.028,0.311,0.963,24.108,21.667,14.404,
00:00:19:183,-0.037,0.302,0.963,28.503,22.522,12.695,
00:00:19:200,-0.044,0.302,0.962,43.273,29.968,28.686,
00:00:19:217,-0.052,0.328,0.965,45.227,37.597,23.864,
00:00:19:233,-0.048,0.315,0.96,32.592,40.527,24.902,
00:00:19:250,-0.044,0.3,0.96,9.094,40.1,11.474,
00:00:19:267,-0.053,0.292,0.967,-13.855,48.095,8.056,
00:00:19:283,-0.045,0.29,0.973,-22.4,45.837,7.812,
00:00:19:300,-0.047,0.287,0.975,-25.33,47.363,8.056,
00:00:19:317,-0.041,0.28,0.991,-10.865,50.964,7.934,
00:00:19:333,-0.038,0.286,0.988,10.009,56.457,8.422,
00:00:19:350,-0.021,0.295,0.979,25.451,43.518,-1.465,
00:00:19:367,-0.016,0.286,0.962,28.686,30.151,-5.982,
00:00:19:383,-0.011,0.278,0.967,19.043,23.559,-6.897,
00:00:19:400,-0.007,0.276,0.968,4.516,26.184,-12.818,
00:00:19:417,-0.01,0.289,0.976,10.559,25.451,-12.94,
00:00:19:433,-0.019,0.301,0.978,20.141,29.785,-8.484,
00:00:19:450,-0.021,0.298,0.963,24.658,28.32,-7.569,
00:00:19:467,-0.012,0.307,0.964,33.02,23.376,-8.728,
00:00:19:483,-0.005,0.289,0.971,29.235,25.024,-0.916,
00:00:19:500,-0.017,0.27,0.98,15.93,25.024,-12.207,
00:00:19:517,-0.045,0.247,0.998,33.508,40.771,8.606,
00:00:19:533,-0.055,0.239,0.963,88.806,51.94,52.856,
00:00:19:550,-0.025,0.352,0.975,91.308,28.686,41.748,
00:00:19:567,-0.05,0.292,0.973,142.578,15.502,12.939,
00:00:19:583,-0.058,0.25,0.976,193.298,15.014,8.911,
00:00:19:600,-0.072,0.216,0.961,231.14,11.901,11.901,
00:00:19:617,-0.071,0.209,0.964,322.143,1.953,15.502,
00:00:19:633,-0.057,0.194,0.964,404.174,12.512,14.526,
00:00:19:650,-0.025,0.187,0.944,432.983,20.935,19.775,
00:00:19:667,-0.014,0.153,0.952,426.941,26.489,-20.081,
00:00:19:683,-0.01,0.096,0.995,373.474,40.832,-28.077,
00:00:19:700,0.014,0.096,1.007,303.1,54.748,-47.181,
00:00:19:717,0.033,0.14,0.998,339.965,69.03,-23.377,
00:00:19:733,0.084,0.131,1.002,388.122,54.199,-29.297,
00:00:19:750,0.093,0.078,1.02,401.977,48.645,-34.729,
00:00:19:767,0.101,0.049,1.02,352.111,54.199,-26.307,
00:00:19:783,0.099,0.053,1.027,277.526,69.03,-37.842,
00:00:19:800,0.094,0.107,0.972,221.313,75.927,-34.241,
00:00:19:817,0.101,0.136,1.017,217.651,71.594,-21.058,
00:00:19:833,0.085,0.133,1.049,242.797,75.195,-24.659,
00:00:19:850,0.071,0.109,1.06,296.63,87.036,-4.334,
00:00:19:867,0.073,0.116,1.063,364.257,88.928,31.86,
00:00:19:883,0.051,0.129,1.062,467.956,91.125,60.73,
00:00:19:900,0.025,0.077,1.067,558.838,102.966,71.594,
00:00:19:917,0.013,0.022,1.072,564.209,111.755,75.683,
00:00:19:933,0,0.006,1.103,595.459,126.098,66.284,
00:00:19:950,-0.013,-0.02,1.116,628.418,143.432,67.871,
00:00:19:967,-0.025,-0.067,1.078,646.423,161.377,75.866,
00:00:19:983,-0.014,-0.069,1.045,640.808,170.227,80.2,
00:00:20:0,-0.027,-0.106,1.042,712.89,182.739,66.955,
00:00:20:17,-0.016,-0.183,1.042,779.846,200.561,119.567,
00:00:20:33,0.007,-0.304,1.064,629.15,233.825,108.215,
00:00:20:50,0.032,-0.274,1.059,499.267,229.614,80.871,
00:00:20:67,0.059,-0.266,1.031,441.345,219.665,59.631,
00:00:20:83,0.082,-0.386,1.071,402.893,158.386,68.786,
00:00:20:100,0.078,-0.399,1.089,216.247,105.713,65.918,
00:00:20:117,0.071,-0.372,1.076,108.886,114.257,51.757,
00:00:20:133,0.097,-0.34,1.076,40.527,94.665,99.792,
00:00:20:150,0.112,-0.336,1.037,-55.97,54.382,99.426,
00:00:20:167,0.124,-0.364,1.033,-145.203,-14.283,74.218,
00:00:20:183,0.103,-0.354,1.066,-232.605,-51.27,92.407,
00:00:20:200,0.072,-0.317,1.076,-194.825,-30.579,112.426,
00:00:20:217,0.092,-0.283,1.056,-138.733,-26.795,133.117,
00:00:20:233,0.113,-0.283,1.019,-90.821,-58.411,124.633,
00:00:20:250,0.113,-0.314,0.997,-50.415,-79.041,63.903,
00:00:20:267,0.1,-0.404,0.994,-55.909,-107.117,56.396,
00:00:20:283,0.081,-0.341,0.997,-74.097,-150.391,101.196,
00:00:20:300,0.046,-0.29,0.984,-71.045,-151.368,82.153,
00:00:20:317,-0.002,-0.232,0.913,-15.748,-89.051,39.489,
00:00:20:333,-0.014,-0.353,0.822,-115.357,-67.2,40.832,
00:00:20:350,0.005,-0.365,0.794,-183.228,-70.984,19.897,
00:00:20:367,-0.044,-0.333,0.82,-281.495,-93.384,33.813,
00:00:20:383,-0.063,-0.263,0.866,-280.335,-97.168,-68.787,
00:00:20:400,-0.126,-0.204,0.793,-208.313,-46.936,-107.605,
00:00:20:417,-0.12,-0.24,0.794,-170.044,63.842,-294.983,
00:00:20:433,-0.085,-0.243,0.705,-160.096,260.009,-154.786,
00:00:20:450,-0.051,-0.401,0.651,-210.572,372.497,-172.669,
00:00:20:467,0.002,-0.309,0.726,-222.657,371.093,-145.264,
00:00:20:483,0.01,-0.228,0.799,-130.86,434.326,-170.411,
00:00:20:500,0.039,-0.188,0.769,-47.181,496.093,-229.92,
00:00:20:517,0.158,-0.233,0.75,-38.941,449.157,-252.625,
00:00:20:533,0.176,-0.209,0.787,-54.017,280.7,-257.386,
00:00:20:550,0.146,-0.191,0.853,-52.247,243.896,-248.169,
00:00:20:567,0.182,-0.129,0.861,1.037,269.531,-245.911,
00:00:20:583,0.21,-0.164,0.858,39.489,240.966,-246.888,
00:00:20:600,0.182,-0.114,0.902,21.057,164.306,-208.008,
00:00:20:617,0.165,-0.16,0.934,-16.175,177.612,-206.238,
00:00:20:633,0.21,-0.141,0.981,-67.994,264.587,-117.31,
00:00:20:650,0.312,-0.15,0.959,-81.177,311.95,-87.281,
00:00:20:667,0.349,-0.146,0.916,-85.633,259.765,-77.942,
00:00:20:683,0.322,-0.134,0.887,-116.333,222.961,-45.899,
00:00:20:700,0.332,-0.059,0.889,-129.09,229.187,-26.123,
00:00:20:717,0.393,-0.065,0.878,-72.693,256.408,-41.321,
00:00:20:733,0.429,-0.044,0.911,-15.442,240.234,-39.673,
00:00:20:750,0.434,-0.024,0.928,60.485,231.994,-39.307,
00:00:20:767,0.565,0.048,1.113,127.502,430.359,185.363,
00:00:20:783,0.438,-0.384,0.979,346.374,27.954,-124.146,
00:00:20:800,0.416,-0.188,1.003,289.001,103.393,-24.414,
00:00:20:817,0.474,-0.304,0.933,262.207,75.378,-40.711,
00:00:20:833,0.404,-0.295,0.956,205.932,12.939,-2.076,
00:00:20:850,0.381,-0.285,0.965,181.884,11.901,-14.527,
00:00:20:867,0.371,-0.296,0.939,170.776,8.789,-9.095,
00:00:20:883,0.355,-0.321,0.934,152.404,-14.222,-31.556,
00:00:20:900,0.332,-0.325,0.907,131.958,19.836,-10.682,
00:00:20:917,0.334,-0.338,0.844,118.53,33.02,-20.081,
00:00:20:933,0.374,-0.27,0.899,128.54,-1.404,-108.704,
00:00:20:950,0.325,-0.322,0.886,155.212,23.254,-63.843,
00:00:20:967,0.279,-0.313,0.857,190.796,56.213,-57.312,
00:00:20:983,0.344,-0.861,0.888,-255.127,312.255,426.086,
00:00:21:0,0.473,-0.053,1.09,-84.351,-71.167,-66.529,
00:00:21:17,0.438,-0.13,0.913,98.144,-154.297,-100.037,
00:00:21:33,0.285,-0.396,0.781,199.707,-142.334,-65.674,
00:00:21:50,0.248,-0.357,0.865,78.613,-37.049,8.667,
00:00:21:67,0.353,-0.292,0.909,66.223,-8.118,14.77,
00:00:21:83,0.305,-0.35,0.944,93.689,-81.36,-25.025,
00:00:21:100,0.312,-0.389,0.926,4.089,-76.844,-99.244,
00:00:21:117,0.357,-0.341,0.97,20.996,-81.727,-177.796,
00:00:21:133,0.366,-0.328,0.94,198.242,-82.459,-175.049,
00:00:21:150,0.263,-0.528,0.819,194.824,-157.654,-206.604,
00:00:21:167,0.183,-0.409,0.872,-27.466,-105.164,-68.116,
00:00:21:183,0.259,-0.332,0.961,-72.571,13.61,-57.923,
00:00:21:200,0.328,-0.26,0.951,21.545,0.244,-52.674,
00:00:21:217,0.231,-0.26,0.887,89.782,-56.519,-67.322,
00:00:21:233,0.167,-0.253,0.887,75.683,-60.486,-48.401,
00:00:21:250,0.194,-0.244,0.901,62.316,-14.222,-7.752,
00:00:21:267,0.225,-0.294,0.892,71.106,-14.039,9.033,
00:00:21:283,0.222,-0.262,0.898,132.324,-17.518,-1.587,
00:00:21:300,0.273,-0.394,0.924,148.803,8.422,49.011,
00:00:21:317,0.242,-0.366,0.904,141.723,-29.114,-0.733,
00:00:21:333,0.266,-0.51,0.886,98.144,-5.86,1.22,
00:00:21:350,0.278,-0.51,0.908,19.165,-10.315,-1.16,
00:00:21:367,0.296,-0.51,0.925,19.897,0.671,-31.556,
00:00:21:383,0.302,-0.544,0.903,15.564,-7.264,-70.984,
00:00:21:400,0.304,-0.617,0.9,-51.087,4.333,-102.295,
00:00:21:417,0.278,-0.506,0.907,-67.505,-1.099,-140.931,
00:00:21:433,0.233,-0.453,0.958,-55.726,-9.644,-145.386,
00:00:21:450,0.173,-0.407,0.979,-68.36,2.258,-143.25,
00:00:21:467,0.143,-0.39,1.007,-78.431,13,-131.165,
00:00:21:483,0.131,-0.416,1.015,-100.525,33.874,-111.145,
00:00:21:500,0.145,-0.402,1.003,-154.725,5.554,-101.868,
00:00:21:517,0.108,-0.393,0.999,-161.133,-0.916,-87.891,
00:00:21:533,0.089,-0.395,0.998,-182.129,29.663,-66.59,
00:00:21:550,0.144,-0.4,0.982,-208.802,62.011,-71.228,
00:00:21:567,0.205,-0.434,0.997,-221.375,64.27,-64.454,
00:00:21:583,0.228,-0.41,0.991,-227.234,73.425,-39.795,
00:00:21:600,0.263,-0.372,0.95,-239.197,69.824,-48.279,
00:00:21:617,0.264,-0.353,0.898,-249.573,30.456,-73.609,
00:00:21:633,0.237,-0.367,0.899,-273.804,9.704,-63.172,
00:00:21:650,0.204,-0.274,0.863,-279.602,19.409,-36.805,
00:00:21:667,0.182,-0.227,0.8,-254.09,32.409,-37.537,
00:00:21:683,0.183,-0.245,0.776,-206.849,62.805,-68.848,
00:00:21:700,0.206,-0.233,0.839,-161.56,88.012,-83.802,
00:00:21:717,0.276,-0.31,0.923,-163.819,122.558,-76.783,
00:00:21:733,0.308,-0.293,0.954,-186.097,127.746,-31.495,
00:00:21:750,0.313,-0.237,0.94,-161.927,114.685,-26.246,
00:00:21:767,0.252,-0.274,0.915,-158.509,64.148,-28.626,
00:00:21:783,0.184,-0.288,0.937,-165.467,67.565,-8.667,
00:00:21:800,0.201,-0.292,0.947,-132.691,131.713,6.103,
00:00:21:817,0.192,-0.23,0.93,-66.102,131.897,2.746,
00:00:21:833,0.202,-0.231,0.864,-68.848,148.62,-43.885,
00:00:21:850,0.255,-0.158,0.9,-165.894,197.57,35.949,
00:00:21:867,0.354,-0.142,0.857,-181.458,154.846,-2.869,
00:00:21:883,0.338,-0.135,0.897,-120.423,144.958,-8.301,
00:00:21:900,0.414,-0.118,0.937,-39.368,203.186,24.414,
00:00:21:917,0.489,-0.157,0.976,-28.321,192.688,52.795,
00:00:21:933,0.491,-0.136,0.94,-19.593,144.714,52.856,
00:00:21:950,0.486,-0.078,0.891,-17.212,112.915,72.57,
00:00:21:967,0.485,-0.064,0.869,8.972,56.945,27.832,
00:00:21:983,0.434,-0.077,0.784,42.053,12.085,-13.184,
00:00:22:0,0.424,-0.126,0.711,61.95,-1.099,-35.889,
00:00:22:17,0.366,-0.098,0.654,79.834,-28.26,-52.735,
00:00:22:33,0.283,-0.118,0.631,100.097,11.23,-45.472,
00:00:22:50,0.284,-0.072,0.684,102.661,103.576,-16.541,
00:00:22:67,0.314,-0.071,0.721,81.115,178.833,-7.874,
00:00:22:83,0.397,-0.064,0.749,107.422,240.173,24.658,
00:00:22:100,0.429,0.007,0.657,268.493,213.195,10.681,
00:00:22:117,0.434,-0.109,0.718,392.273,138.488,9.643,
00:00:22:133,0.356,-0.344,0.682,554.504,61.462,-87.769,
00:00:22:150,0.246,-0.512,0.72,535.949,45.41,-82.825,
00:00:22:167,0.241,-0.619,0.783,355.468,157.104,-46.265,
00:00:22:183,0.282,-0.522,0.854,185.791,229.126,-12.024,
00:00:22:200,0.346,-0.414,0.917,87.097,239.257,-56.702,
00:00:22:217,0.379,-0.35,0.934,85.937,209.655,-101.868,
00:00:22:233,0.431,-0.296,0.952,269.47,150.39,-88.379,
00:00:22:250,0.409,-0.357,0.925,413.269,117.187,-88.379,
00:00:22:267,0.418,-0.49,0.947,425.232,122.131,-121.094,
00:00:22:283,0.438,-0.549,1.014,266.235,111.389,-95.398,
00:00:22:300,0.462,-0.474,1.064,151.672,96.008,-61.707,
00:00:22:317,0.471,-0.415,1.039,154.419,82.641,-48.584,
00:00:22:333,0.458,-0.398,0.994,210.876,29.846,-62.378,
00:00:22:350,0.399,-0.418,0.924,275.817,-8.057,-72.083,
00:00:22:367,0.346,-0.497,0.847,265.93,-32.593,-97.107,
00:00:22:383,0.347,-0.561,0.954,166.259,13.122,-38.147,
00:00:22:400,0.398,-0.527,0.934,142.944,47.912,-79.163,
00:00:22:417,0.42,-0.584,0.984,129.333,54.748,-28.87,
00:00:22:433,0.477,-0.531,0.962,110.534,66.345,-24.414,
00:00:22:450,0.479,-0.543,0.924,92.529,27.404,-52.063,
00:00:22:467,0.459,-0.555,0.873,42.724,-2.686,-63.416,
00:00:22:483,0.399,-0.499,0.803,17.456,-17.518,-72.693,flipLH
00:00:22:500,0.346,-0.468,0.758,31.433,2.685,-57.373,
00:00:22:517,0.367,-0.426,0.768,27.343,47.241,-25.025,
00:00:22:533,0.388,-0.439,0.744,15.38,47.485,-20.447,
00:00:22:550,0.383,-0.407,0.755,8.239,50.231,-7.386,
00:00:22:567,0.402,-0.426,0.759,31.372,58.288,-15.564,
00:00:22:583,0.407,-0.457,0.744,58.349,73.364,0.854,
00:00:22:600,0.414,-0.474,0.72,65.734,93.017,-0.916,
00:00:22:617,0.436,-0.519,0.738,41.687,97.229,-8.789,
00:00:22:633,0.457,-0.476,0.786,37.841,85.571,-8.484,
00:00:22:650,0.448,-0.423,0.768,85.083,71.838,-19.471,
00:00:22:667,0.449,-0.451,0.758,126.892,77.026,-23.987,
00:00:22:683,0.439,-0.47,0.728,121.887,85.754,-15.931,
00:00:22:700,0.444,-0.55,0.715,61.401,86.181,-15.992,
00:00:22:717,0.459,-0.583,0.741,-34.058,85.449,9.338,
00:00:22:733,0.46,-0.49,0.825,-57.74,90.515,-0.611,
00:00:22:750,0.482,-0.468,0.828,1.22,83.007,-2.564,
00:00:22:767,0.467,-0.469,0.798,38.391,79.711,-4.395,
00:00:22:783,0.471,-0.521,0.755,48.034,71.899,-14.527,
00:00:22:800,0.486,-0.546,0.749,23.986,33.264,-17.456,
00:00:22:817,0.466,-0.542,0.768,0.244,2.563,-28.382,
00:00:22:833,0.446,-0.495,0.774,36.987,-1.465,-52.124,
00:00:22:850,0.417,-0.496,0.779,60.669,-13.611,-53.162,
00:00:22:867,0.382,-0.465,0.747,77.392,-10.926,-46.936,
00:00:22:883,0.362,-0.488,0.696,94.787,12.573,-31.556,
00:00:22:900,0.367,-0.571,0.671,49.682,46.936,-20.203,
00:00:22:917,0.382,-0.632,0.681,-58.35,70.007,-18.433,
00:00:22:933,0.394,-0.574,0.709,-137.635,85.022,-26.917,
00:00:22:950,0.391,-0.508,0.704,-134.888,87.158,-39.063,
00:00:22:967,0.554,-0.371,0.984,-96.924,117.859,-13.733,
00:00:22:983,0.51,-0.484,0.712,111.45,7.324,-121.949,
00:00:23:0,0.388,-0.461,0.742,96.679,26.55,-103.394,
00:00:23:17,0.441,-0.47,0.696,89.05,62.194,-64.82,
00:00:23:33,0.532,-0.515,0.809,62.866,50.842,-65.491,
00:00:23:50,0.516,-0.425,0.807,82.336,16.54,-64.393,
00:00:23:67,0.505,-0.385,0.816,230.041,-6.348,-39.978,
00:00:23:83,0.492,-0.408,0.755,322.143,-16.175,-16.48,
00:00:23:100,0.5,-0.494,0.713,310.302,-13.916,-12.635,
00:00:23:117,0.541,-0.587,0.735,235.29,-19.043,-33.204,
00:00:23:133,0.564,-0.563,0.844,237.06,-17.945,-42.664,
00:00:23:150,0.602,-0.604,0.911,303.65,-22.706,-55.176,
00:00:23:167,0.635,-0.738,0.897,301.269,-52.185,-77.576,
00:00:23:183,0.636,-0.735,0.854,303.1,-160.584,-101.563,
00:00:23:200,0.591,-0.744,0.815,220.52,-200.623,-116.028,
00:00:23:217,0.518,-0.615,0.795,190.002,-252.198,-167.42,
00:00:23:233,0.458,-0.641,0.838,240.905,-238.282,-182.984,
00:00:23:250,0.445,-0.696,0.822,235.046,-217.774,-172.73,
00:00:23:267,0.453,-0.903,0.76,42.053,-260.987,-218.628,
00:00:23:283,0.487,-0.894,0.781,-127.381,-340.149,-213.501,
00:00:23:300,0.346,-0.638,0.801,-464.356,-462.037,-165.223,
00:00:23:317,0.316,-0.541,0.724,-349.244,-457.154,-176.026,
00:00:23:333,0.299,-0.667,0.699,-273.194,-446.228,-190.186,
00:00:23:350,0.343,-0.733,0.869,-451.539,-464.295,-171.57,
00:00:23:367,0.389,-0.688,0.925,-589.356,-502.259,-194.886,
00:00:23:383,0.423,-0.672,0.988,-641.724,-592.652,-234.925,
00:00:23:400,0.361,-0.649,0.865,-629.761,-680.054,-290.589,
00:00:23:417,0.296,-0.694,0.742,-672.242,-710.694,-328.309,
00:00:23:433,0.247,-0.773,0.686,-916.016,-747.864,-362.366,
00:00:23:450,0.175,-0.842,0.565,-1247.132,-752.503,-408.143,
00:00:23:467,0.139,-0.798,0.578,-1562.562,-753.663,-431.397,
00:00:23:483,0.1,-0.579,0.553,-1861.39,-705.811,-386.78,
00:00:23:500,0.093,-0.36,0.462,-1858.216,-624.024,-339.417,
00:00:23:517,0.056,-0.3,0.339,-1901.307,-594.3,-338.99,
00:00:23:533,0.028,-0.163,0.21,-1867.066,-523.987,-332.642,
00:00:23:550,-0.059,0.029,0.17,-1895.02,-416.687,-270.935,
00:00:23:567,0.041,0.098,-0.009,-1576.783,-317.139,-330.384,
00:00:23:583,0.06,0.007,0.086,-1495.057,-236.268,-408.57,
00:00:23:600,0.099,-0.222,0.13,-1578.003,-208.863,-557.251,
00:00:23:617,0.04,-0.239,0.21,-1863.343,-154.48,-610.718,
00:00:23:633,0.083,-0.099,0.205,-2000,-166.993,-588.562,
00:00:23:650,0.058,0.313,0.437,-1997.62,-125.672,-570.069,
00:00:23:667,-0.006,0.686,0.438,-1463.562,26.123,-617.493,
00:00:23:683,-0.033,0.767,0.479,-718.995,117.187,-599.549,
00:00:23:700,-0.142,0.8,0.548,-186.28,247.924,-703.919,
00:00:23:717,-0.19,0.796,0.767,-42.054,452.819,-690.186,
00:00:23:733,-0.129,1.077,0.877,209.289,572.57,-691.834,
00:00:23:750,-0.086,1.162,1.011,282.959,603.393,-694.397,
00:00:23:767,-0.048,0.844,1.221,245.91,590.942,-540.711,
00:00:23:783,0.933,0.662,0.852,571.594,289.489,-303.284,
00:00:23:800,-0.16,1.162,2.186,534.423,168.457,-222.413,
00:00:23:817,0.38,0.863,1.625,49.377,1.22,-112,
00:00:23:833,-0.017,0.797,1.709,76.232,-140.87,108.215,
00:00:23:850,0.081,0.693,1.31,244.079,-226.38,218.567,
00:00:23:867,0.074,0.453,1.14,-75.501,-287.964,120.971,
00:00:23:883,0.016,0.503,1.036,-290.65,-262.574,63.171,
00:00:23:900,-0.011,0.571,0.884,-215.332,-171.387,37.231,
00:00:23:917,-0.014,0.563,0.844,-167.786,-100.769,-3.663,
00:00:23:933,0.023,0.703,0.827,-140.87,-4.029,-30.518,
00:00:23:950,0.045,0.582,0.844,-85.694,24.475,-47.364,
00:00:23:967,0.039,0.635,0.866,-107.3,53.1,-40.711,
00:00:23:983,0.037,0.599,0.898,-64.331,64.819,-16.602,
00:00:24:0,0.052,0.582,0.918,-26.307,88.501,10.986,
00:00:24:17,0.102,0.479,0.852,18.066,76.782,53.772,
00:00:24:33,0.124,0.479,0.861,18.981,19.348,89.416,
00:00:24:50,0.105,0.399,0.918,-8.912,-26.49,102.295,
00:00:24:67,0.088,0.39,0.95,-34.974,-62.012,120.178,
00:00:24:83,0.062,0.408,0.919,27.771,-52.247,138.977,
00:00:24:100,0.056,0.39,0.858,44.189,-58.777,129.76,
00:00:24:117,0.062,0.392,0.823,83.984,-76.722,135.864,
00:00:24:133,0.046,0.355,0.813,58.105,-69.031,96.313,
00:00:24:150,0.031,0.411,0.861,94.543,-41.321,101.501,
00:00:24:167,0.035,0.452,0.877,193.969,-11.048,104.797,
00:00:24:183,0.013,0.529,0.939,397.827,15.38,138.672,
00:00:24:200,0.043,0.552,0.947,627.441,25.634,176.818,
00:00:24:217,0.051,0.507,0.942,722.778,41.198,203.064,
00:00:24:233,0.068,0.438,0.996,778.32,46.142,223.51,
00:00:24:250,0.062,0.474,1.051,867.981,59.143,274.597,
00:00:24:267,0.045,0.479,1.096,1008.911,94.848,323.364,
00:00:24:283,0.042,0.407,1.093,1158.264,128.54,342.285,
00:00:24:300,0.081,0.355,0.979,1278.747,73.059,387.817,
00:00:24:317,0.091,0.24,0.977,1215.82,36.132,333.923,
00:00:24:333,0.055,0.115,1.098,1051.086,11.047,338.928,
00:00:24:350,0.014,0.046,1.198,689.758,67.871,316.955,
00:00:24:367,0.048,0.136,1.108,456.054,117.92,341.552,
00:00:24:383,0.058,0.108,0.97,374.633,133.178,352.417,
00:00:24:400,0.084,0.09,0.888,373.596,95.214,313.171,
00:00:24:417,0.083,-0.031,0.921,208.435,73.974,280.944,
00:00:24:433,0.046,-0.121,0.939,-77.637,113.159,252.685,
00:00:24:450,0.029,-0.106,1.017,-327.759,160.705,237.609,
00:00:24:467,0.015,-0.04,0.943,-446.839,203.552,246.887,
00:00:24:483,0.061,0.066,0.933,-351.075,199.218,363.952,
00:00:24:500,0.103,0.083,0.903,-250.977,175.293,329.651,
00:00:24:517,0.096,0.065,0.836,-247.315,78.064,282.47,
00:00:24:533,0.04,-0.039,0.906,-444.458,55.358,188.903,
00:00:24:550,0.024,-0.064,0.908,-632.752,107.91,148.803,
00:00:24:567,0.034,-0.048,0.879,-829.651,213.134,185.852,
00:00:24:583,0.061,0.106,0.762,-755.127,172.546,291.259,
00:00:24:600,0.099,0.2,0.776,-713.379,170.471,242.736,
00:00:24:617,0.1,0.117,0.783,-769.043,166.748,238.281,
00:00:24:633,0.094,0.025,0.843,-1072.571,155.578,215.088,
00:00:24:650,0.118,0.256,0.879,-1132.691,161.926,262.939,
00:00:24:667,0.106,0.455,0.918,-1050.049,177.673,304.992,
00:00:24:683,0.148,0.565,0.942,-765.32,173.034,234.924,
00:00:24:700,0.138,0.589,0.924,-379.456,140.564,198.181,
00:00:24:717,0.096,0.447,0.853,-114.93,126.709,170.227,
00:00:24:733,0.076,0.397,0.787,-177.613,180.114,151.123,
00:00:24:750,0.083,0.372,0.81,-300.293,246.887,141.784,
00:00:24:767,0.117,0.413,0.819,-428.223,278.747,127.014,
00:00:24:783,0.111,0.507,0.92,-303.467,263.977,93.017,
00:00:24:800,0.129,0.567,0.863,19.958,204.528,75.988,
00:00:24:817,0.128,0.41,0.863,233.642,213.806,-7.935,
00:00:24:833,0.132,0.247,0.864,127.319,215.698,-14.832,
00:00:24:850,0.155,0.251,0.915,-49.622,175.964,-13.062,
00:00:24:867,0.145,0.368,0.93,-151.185,124.817,-15.137,
00:00:24:883,0.113,0.443,0.884,-82.215,77.819,-19.471,
00:00:24:900,0.093,0.442,0.848,45.959,86.914,-49.683,
00:00:24:917,0.092,0.456,0.859,151.062,116.15,-52.796,
00:00:24:933,0.083,0.464,0.878,265.93,168.64,-31.617,
00:00:24:950,0.086,0.447,0.842,264.282,201.049,-14.771,
00:00:24:967,0.151,0.379,0.875,175.964,157.837,-26.551,
00:00:24:983,0.117,0.346,0.883,54.87,92.773,-41.687,
00:00:25:0,0.106,0.389,0.887,13.61,134.46,-45.716,
00:00:25:17,0.123,0.361,0.867,54.565,195.129,-42.42,
00:00:25:33,0.151,0.4,0.843,-14.405,186.096,-81.36,
00:00:25:50,0.154,0.414,0.883,-56.275,187.255,-115.418,
00:00:25:67,0.18,0.468,0.935,-45.594,242.37,-104.859,
00:00:25:83,0.271,0.562,0.934,-1.038,244.018,-69.703,
00:00:25:100,0.338,0.593,0.873,-19.654,154.663,-67.872,
00:00:25:117,0.415,0.748,0.927,-31.495,56.579,-37.415,
00:00:25:133,0.426,0.656,0.84,123.901,-48.829,-70.557,
00:00:25:150,0.261,0.374,0.852,223.938,-231.69,-128.174,
00:00:25:167,0.103,0.384,1.006,170.105,-200.135,-89.661,
00:00:25:183,0.15,0.601,0.897,375.244,-28.992,-67.017,
00:00:25:200,0.165,0.39,0.85,612.182,-44.861,-174.866,
00:00:25:217,0.109,0.308,0.851,635.62,-33.753,-217.957,
00:00:25:233,0.131,0.29,0.872,637.39,38.513,-231.873,
00:00:25:250,0.167,0.23,0.896,655.029,62.866,-268.555,
00:00:25:267,0.175,0.216,0.931,637.756,89.111,-248.108,
00:00:25:283,0.228,0.167,0.949,620.3,112.487,-254.09,
00:00:25:300,0.261,0.146,0.975,444.091,70.19,-256.348,
00:00:25:317,0.29,0.202,1.026,358.276,3.906,-217.591,
00:00:25:333,0.294,0.207,1.084,295.288,-54.322,-193.238,
00:00:25:350,0.301,0.216,1.093,312.133,-70.862,-121.766,
00:00:25:367,0.309,0.308,1.081,384.155,-93.995,-92.713,
00:00:25:383,0.291,0.236,1.053,476.806,-148.621,-97.901,
00:00:25:400,0.213,-0.012,1.027,376.464,-195.984,-76.722,
00:00:25:417,0.174,0.139,0.98,189.697,-151.123,-36.072,
00:00:25:433,0.179,0.107,0.953,207.946,-161.316,-42.908,
00:00:25:450,0.083,0.018,0.93,162.597,-198.853,-55.359,
00:00:25:467,-0.001,0.089,0.882,127.014,-121.338,-46.998,
00:00:25:483,0.005,0.039,0.863,134.948,-39.612,-64.637,
00:00:25:500,0.01,-0.022,0.878,110.473,30.09,-66.773,
00:00:25:517,0.064,-0.049,0.88,40.222,99.121,-80.201,
00:00:25:533,0.096,-0.061,0.926,-34.485,93.139,-92.652,
00:00:25:550,0.115,-0.089,0.968,-114.014,98.144,-108.704,
00:00:25:567,0.15,-0.074,0.997,-184.815,121.154,-108.094,
00:00:25:583,0.191,-0.041,1.004,-258.667,124.694,-117.249,
00:00:25:600,0.201,0.02,1,-286.744,106.872,-123.169,
00:00:25:617,0.208,0.043,1.001,-282.044,101.074,-139.893,
00:00:25:633,0.224,0.056,0.989,-326.294,108.886,-135.56,
00:00:25:650,0.255,0.073,0.987,-396.119,103.21,-152.955,
00:00:25:667,0.257,0.179,0.994,-393.921,85.205,-161.438,
00:00:25:683,0.196,0.215,0.957,-324.036,87.036,-192.2,
00:00:25:700,0.221,0.282,0.92,-215.821,123.474,-148.621,
00:00:25:717,0.245,0.316,0.948,-95.52,129.15,-187.439,
00:00:25:733,0.245,0.226,0.955,18.371,140.503,-230.713,
00:00:25:750,0.289,0.184,0.985,28.015,156.616,-228.211,
00:00:25:767,0.368,0.132,1.031,-42.908,141.418,-225.464,
00:00:25:783,0.385,0.234,1.063,-86.67,128.54,-192.017,
00:00:25:800,0.401,0.281,1.041,3.906,58.654,-157.349,
00:00:25:817,0.344,0.217,0.976,98.51,-2.93,-144.776,
00:00:25:833,0.201,0.051,0.88,-45.716,-28.504,-102.417,
00:00:25:850,0.182,0.034,0.857,-153.199,-29.297,-90.577,
00:00:25:867,0.143,0.077,0.88,-235.84,-34.18,-72.876,
00:00:25:883,0.102,0.115,0.887,-274.72,13.61,-49.439,
00:00:25:900,0.11,0.15,0.874,-276.612,80.078,-48.035,
00:00:25:917,0.138,0.172,0.864,-249.756,135.376,-47.486,
00:00:25:933,0.16,0.182,0.855,-219.361,167.175,-67.994,
00:00:25:950,0.205,0.27,0.874,-191.59,168.945,-156.311,
00:00:25:967,0.295,0.287,0.923,-125,186.767,-217.53,
00:00:25:983,0.272,0.21,0.936,-21.851,135.803,-208.802,
00:00:26:0,0.257,0.23,0.911,49.56,204.101,-204.956,
00:00:26:17,0.337,0.161,0.898,66.955,241.577,-193.421,
00:00:26:33,0.344,0.202,0.876,32.898,230.896,-196.228,
00:00:26:50,0.381,0.195,0.843,17.273,224.487,-195.557,
00:00:26:67,0.38,0.22,0.817,-28.992,185.791,-230.652,
00:00:26:83,0.398,0.214,0.852,-29.358,152.71,-220.52,
00:00:26:100,0.41,0.244,0.867,-25.391,172.241,-206.91,
00:00:26:117,0.447,0.322,0.848,8.3,192.077,-216.309,
00:00:26:133,0.512,0.299,0.875,63.842,180.969,-182.312,
00:00:26:150,0.437,0.244,0.708,314.087,99.243,-131.104,
00:00:26:167,0.41,0.231,0.719,344.299,106.445,-114.319,
00:00:26:183,0.407,0.152,0.745,345.825,151.916,-117.554,
00:00:26:200,0.426,0.104,0.775,330.444,171.081,-67.749,
00:00:26:217,0.434,0.102,0.764,318.725,185.058,-40.528,
00:00:26:233,0.487,0.068,0.854,337.89,192.932,-18.799,
00:00:26:250,0.5,0.057,0.857,356.262,187.255,-9.705,
00:00:26:267,0.491,0.049,0.857,392.151,152.343,-22.767,
00:00:26:283,0.485,0.03,0.892,412.353,116.699,-35.95,
00:00:26:300,0.496,0.046,0.924,515.014,71.899,-10.926,
00:00:26:317,0.497,-0.002,0.902,626.098,70.922,-71.167,
00:00:26:333,0.512,-0.088,0.895,717.407,45.349,-84.473,
00:00:26:350,0.487,-0.173,0.888,693.786,-44.739,-108.704,
00:00:26:367,0.397,-0.255,0.855,538.452,-59.144,-125.916,
00:00:26:383,0.372,-0.246,0.884,445.617,-101.624,-90.149,
00:00:26:400,0.359,-0.258,0.921,374.023,-66.651,-127.015,
00:00:26:417,0.359,-0.243,0.906,282.837,9.46,-105.469,
00:00:26:433,0.427,-0.184,0.925,231.567,51.33,-105.835,
00:00:26:450,0.441,-0.189,0.909,209.9,33.569,-135.132,
00:00:26:467,0.43,-0.179,0.951,221.984,0.488,-138.062,
00:00:26:483,0.4,-0.195,0.972,225.036,-8.912,-138.55,flipLH
00:00:26:500,0.437,-0.208,0.989,246.521,38.818,-105.042,
00:00:26:517,0.512,-0.165,0.989,287.353,64.148,-100.342,
00:00:26:533,0.596,-0.073,1.067,438.049,5.432,-50.843,
00:00:26:550,0.549,-0.232,0.982,535.339,-46.143,-129.09,
00:00:26:567,0.51,-0.396,0.968,383.789,-77.576,-133.851,
00:00:26:583,0.499,-0.414,0.954,183.41,-54.932,-42.237,
00:00:26:600,0.506,-0.311,0.886,101.135,-50.171,-15.809,
00:00:26:617,0.469,-0.312,0.881,139.038,-61.89,-61.829,
00:00:26:633,0.421,-0.32,0.898,225.402,-50.232,-44.8,
00:00:26:650,0.383,-0.33,0.941,284.546,-35.157,-49.561,
00:00:26:667,0.343,-0.381,0.932,304.931,39.123,-29.419,
00:00:26:683,0.419,-0.38,0.905,283.142,79.162,-13.184,
00:00:26:700,0.483,-0.44,0.934,262.817,62.561,-43.03,
00:00:26:717,0.476,-0.453,0.949,219.299,32.836,-38.269,
00:00:26:733,0.447,-0.436,0.959,216.247,12.756,-50.66,
00:00:26:750,0.407,-0.438,0.948,228.271,18.432,-67.139,
00:00:26:767,0.392,-0.384,0.923,212.402,28.076,-91.126,
00:00:26:783,0.357,-0.348,0.802,301.88,28.869,-101.319,
00:00:26:800,0.347,-0.407,0.728,302.307,31.677,-89.905,
00:00:26:817,0.392,-0.543,0.757,174.011,26.062,-126.831,
00:00:26:833,0.39,-0.516,0.803,18.615,31.433,-91.553,
00:00:26:850,0.37,-0.39,0.789,-43.335,62.316,-74.219,
00:00:26:867,0.415,-0.327,0.793,35.827,106.567,-48.951,
00:00:26:883,0.463,-0.312,0.776,134.643,129.333,-42.725,
00:00:26:900,0.47,-0.333,0.721,200.988,110.168,-70.13,
00:00:26:917,0.488,-0.413,0.745,144.775,67.504,-48.462,
00:00:26:933,0.481,-0.381,0.75,50.903,41.015,-37.537,
00:00:26:950,0.487,-0.306,0.747,73.242,28.198,-27.71,
00:00:26:967,0.489,-0.288,0.779,170.959,-1.099,-11.292,
00:00:26:983,0.482,-0.285,0.728,281.921,1.648,-19.165,
00:00:27:0,0.458,-0.352,0.678,346.679,7.751,-78.919,
00:00:27:17,0.439,-0.418,0.648,378.662,-2.015,-60.608,
00:00:27:33,0.386,-0.521,0.645,327.026,-0.916,-42.054,
00:00:27:50,0.39,-0.562,0.692,259.277,35.217,6.103,
00:00:27:67,0.418,-0.526,0.727,206.604,52.185,25.94,
00:00:27:83,0.514,-0.578,0.733,312.255,-4.7,-60.547,
00:00:27:100,0.472,-0.695,0.729,196.96,-22.522,-53.406,
00:00:27:117,0.444,-0.674,0.761,46.569,-27.161,-48.951,
00:00:27:133,0.477,-0.566,0.803,-41.077,-30.091,-21.18,
00:00:27:150,0.464,-0.49,0.79,-23.072,-40.284,-1.77,
00:00:27:167,0.467,-0.466,0.794,-0.061,-44.617,-5.982,
00:00:27:183,0.455,-0.47,0.817,32.592,-61.036,3.906,
00:00:27:200,0.441,-0.459,0.822,63.415,-42.481,20.202,
00:00:27:217,0.456,-0.469,0.741,125.854,-25.696,44.799,
00:00:27:233,0.472,-0.523,0.731,149.963,-56.824,32.775,
00:00:27:250,0.431,-0.562,0.714,122.009,-74.463,28.259,
00:00:27:267,0.37,-0.605,0.701,37.536,-63.66,10.559,
00:00:27:283,0.356,-0.633,0.698,-42.298,-44.861,5.432,
00:00:27:300,0.321,-0.614,0.707,-97.413,-13.672,-2.076,
00:00:27:317,0.368,-0.544,0.757,-68.238,6.897,-21.363,
00:00:27:333,0.342,-0.547,0.766,4.882,20.324,-49.866,
00:00:27:350,0.363,-0.557,0.76,48.156,27.71,-60.914,
00:00:27:367,0.373,-0.579,0.755,52.368,37.048,-75.806,
00:00:27:383,0.389,-0.573,0.744,2.502,46.569,-75.562,
00:00:27:400,0.385,-0.571,0.758,-41.687,50.72,-78.492,
00:00:27:417,0.384,-0.537,0.768,-30.945,54.077,-81.604,
00:00:27:433,0.385,-0.502,0.738,45.166,57.739,-86.06,
00:00:27:450,0.41,-0.502,0.72,118.469,57.678,-73.67,
00:00:27:467,0.42,-0.523,0.68,141.784,48.461,-77.393,
00:00:27:483,0.437,-0.571,0.697,112.487,52.368,-48.279,
00:00:27:500,0.452,-0.527,0.717,84.228,52.246,-51.514,
00:00:27:517,0.476,-0.482,0.762,115.844,40.954,-41.504,
00:00:27:533,0.501,-0.42,0.772,201.782,35.827,-25.452,
00:00:27:550,0.524,-0.46,0.724,322.631,36.071,-16.541,
00:00:27:567,0.498,-0.541,0.645,306.945,4.76,-51.514,
00:00:27:583,0.456,-0.539,0.644,297.729,-4.09,-36.072,
00:00:27:600,0.494,-0.509,0.678,333.74,0,-0.855,
00:00:27:617,0.511,-0.62,0.689,452.942,4.943,8.361,
00:00:27:633,0.532,-0.749,0.681,349.609,-47.181,-36.805,
00:00:27:650,0.53,-0.751,0.706,287.963,-97.107,-45.533,
00:00:27:667,0.503,-0.791,0.685,245.605,-137.024,-73.853,
00:00:27:683,0.452,-0.74,0.658,190.063,-151.062,-76.294,
00:00:27:700,0.441,-0.662,0.616,199.157,-143.372,-74.83,
00:00:27:717,0.437,-0.62,0.629,299.316,-122.132,-74.524,
00:00:27:733,0.433,-0.719,0.641,292.846,-108.216,-133.301,
00:00:27:750,0.43,-0.763,0.62,343.567,-134.705,-137.94,
00:00:27:767,0.437,-0.861,0.639,270.935,-173.096,-130.555,
00:00:27:783,0.432,-0.842,0.704,167.846,-209.778,-133.301,
00:00:27:800,0.46,-0.893,0.751,91.003,-247.864,-161.988,
00:00:27:817,0.472,-0.993,0.815,-8.851,-336.853,-210.572,
00:00:27:833,0.428,-0.954,0.85,-172.791,-420.533,-215.638,
00:00:27:850,0.387,-0.85,0.796,-266.175,-452.515,-213.685,
00:00:27:867,0.368,-0.872,0.656,-349.976,-486.206,-253.968,
00:00:27:883,0.361,-0.906,0.69,-478.821,-544.678,-281.189,
00:00:27:900,0.33,-0.821,0.721,-505.066,-548.951,-275.879,
00:00:27:917,0.283,-0.898,0.601,-525.574,-523.255,-309.449,
00:00:27:933,0.286,-0.999,0.573,-786.683,-533.143,-326.111,
00:00:27:950,0.288,-0.848,0.62,-1069.397,-585.816,-384.217,
00:00:27:967,0.252,-0.612,0.61,-1167.847,-645.935,-409.485,
00:00:27:983,0.207,-0.644,0.618,-1101.624,-680.42,-437.012,
00:00:28:0,0.199,-0.731,0.524,-1174.012,-640.442,-466.37,
00:00:28:17,0.247,-0.815,0.456,-1596.619,-646.363,-477.173,
00:00:28:33,0.253,-0.625,0.479,-1933.655,-676.819,-530.884,
00:00:28:50,0.134,-0.298,0.581,-2000,-635.193,-555.542,
00:00:28:67,0.005,-0.06,0.369,-1922.303,-441.834,-514.771,
00:00:28:83,0.029,-0.164,0.184,-1753.418,-330.628,-509.156,
00:00:28:100,0.05,-0.314,0.213,-1939.332,-278.199,-650.513,
00:00:28:117,-0.091,-0.188,0.239,-2000,-159.974,-765.625,
00:00:28:133,-0.128,-0.121,0.431,-2000,-11.292,-725.525,
00:00:28:150,-0.097,-0.043,0.533,-1957.154,86.608,-628.907,
00:00:28:167,-0.109,0.012,0.521,-1998.108,177.551,-657.105,
00:00:28:183,-0.026,0.492,0.497,-2000,201.843,-704.956,
00:00:28:200,-0.038,0.51,0.615,-1999.451,166.565,-793.03,
00:00:28:217,0.015,0.595,0.727,-1763.123,301.635,-721.558,
00:00:28:233,0.039,1.22,0.883,-725.525,304.687,-673.706,
00:00:28:250,0.057,1.098,0.893,178.1,264.465,-556.275,
00:00:28:267,0.071,0.975,0.953,314.88,219.238,-502.93,
00:00:28:283,0.053,0.701,1.053,165.039,174.438,-498.719,
00:00:28:300,0.014,0.617,1.078,19.165,183.105,-453.736,
00:00:28:317,-0.154,1.807,1.827,5.676,5.371,115.234,
00:00:28:333,-0.15,0.412,1.288,407.776,12.451,-108.216,
00:00:28:350,0.359,1.326,1.084,297.607,-53.04,165.771,
00:00:28:367,-0.047,0.546,1.186,217.285,-65.552,20.813,
00:00:28:383,0.017,0.765,0.963,51.269,-76.294,112.487,
00:00:28:400,0.03,0.693,0.897,-130.127,-57.373,119.995,
00:00:28:417,-0.018,0.692,0.888,-139.771,4.089,113.891,
00:00:28:433,-0.022,0.525,0.871,-9.339,53.039,104.187,
00:00:28:450,0.01,0.449,0.831,-16.846,96.496,56.03,
00:00:28:467,0.038,0.515,0.888,-45.594,116.455,21.789,
00:00:28:483,0.015,0.479,0.916,-118.042,119.384,-12.085,
00:00:28:500,0.017,0.632,0.953,-36.805,105.896,29.785,
00:00:28:517,0.055,0.435,0.887,-2.686,67.199,16.784,
00:00:28:533,0.039,0.397,0.929,-45.472,29.846,9.338,
00:00:28:550,0.033,0.412,0.916,-124.634,13.794,-5.188,
00:00:28:567,0.02,0.472,0.899,-136.414,-0.855,-1.404,
00:00:28:583,0.022,0.522,0.871,-88.013,-9.888,15.686,
00:00:28:600,0.035,0.501,0.83,-36.805,-27.283,28.381,
00:00:28:617,0.041,0.482,0.83,-46.387,-37.293,18.31,
00:00:28:633,0.047,0.444,0.85,-92.53,-32.532,4.943,
00:00:28:650,0.044,0.454,0.845,-114.563,-17.212,-7.447,
00:00:28:667,0.044,0.455,0.823,-111.023,-22.461,-20.569,
00:00:28:683,0.029,0.461,0.803,-124.939,-17.945,-38.514,
00:00:28:700,0.02,0.459,0.797,-153.504,-3.785,-60.12,
00:00:28:717,0.038,0.497,0.824,-160.767,10.803,-70.496,
00:00:28:733,0.056,0.525,0.832,-126.587,20.019,-74.158,
00:00:28:750,0.057,0.511,0.821,-82.154,10.864,-73.67,
00:00:28:767,0.058,0.501,0.827,-83.985,-1.099,-77.454,
00:00:28:783,0.054,0.519,0.849,-92.225,-6.531,-77.515,
00:00:28:800,0.059,0.566,0.868,-68.238,-1.893,-66.529,
00:00:28:817,0.064,0.601,0.879,-10.071,7.568,-43.396,
00:00:28:833,0.073,0.597,0.842,41.992,-3.296,-20.325,
00:00:28:850,0.077,0.561,0.859,-7.386,-13.672,-8.057,
00:00:28:867,0.072,0.587,0.9,-58.594,-10.621,4.882,
00:00:28:883,0.062,0.662,0.925,-42.603,3.723,28.503,
00:00:28:900,0.059,0.702,0.944,39.55,33.813,68.969,
00:00:28:917,0.08,0.731,0.905,160.461,60.974,115.356,
00:00:28:933,0.08,0.732,0.9,313.354,61.157,172.973,
00:00:28:950,0.06,0.713,0.934,486.511,75.744,224.914,
00:00:28:967,0.059,0.692,0.942,733.093,82.031,297.973,
00:00:28:983,0.085,0.6,0.986,939.697,87.402,351.806,
00:00:29:0,0.088,0.495,0.976,1025.879,92.224,351.684,
00:00:29:17,0.077,0.429,0.977,1034.057,76.843,360.046,
00:00:29:33,0.071,0.368,0.962,938.171,80.932,373.352,
00:00:29:50,0.078,0.299,1.007,755.615,103.454,333.801,
00:00:29:67,0.056,0.268,0.973,651.733,124.328,347.229,
00:00:29:83,0.045,0.261,0.993,537.963,160.278,352.539,
00:00:29:100,0.071,0.312,0.924,534.607,175.109,370.788,
00:00:29:117,0.094,0.307,0.905,520.813,184.875,420.776,
00:00:29:133,0.104,0.169,0.906,406.128,181.762,341.797,
00:00:29:150,0.098,0.072,0.936,218.628,180.481,324.585,
00:00:29:167,0.059,0.14,0.995,197.204,176.635,343.689,
00:00:29:183,0.046,0.285,1.002,336.242,229.248,399.597,
00:00:29:200,0.104,0.294,0.91,462.951,255.31,382.69,
00:00:29:217,0.19,0.09,0.934,426.818,230.102,342.346,
00:00:29:233,0.191,-0.097,0.981,181.518,134.277,341.247,
00:00:29:250,0.121,-0.005,0.997,154.174,124.878,356.201,
00:00:29:267,0.092,0.123,0.914,314.331,184.692,438.903,
00:00:29:283,0.14,-0.033,0.825,357.544,212.158,349.304,
00:00:29:300,0.169,-0.147,0.814,149.353,89.965,238.525,
00:00:29:317,0.124,-0.078,0.886,-44.739,-11.109,208.984,
00:00:29:333,0.08,0.01,0.919,-69.092,6.53,182.983,
00:00:29:350,0.079,0.044,0.91,-21.546,34.851,203.064,
00:00:29:367,0.076,0.06,0.888,9.948,7.812,197.754,
00:00:29:383,0.049,0.072,0.93,17.639,-40.101,168.457,
00:00:29:400,0.001,0.021,0.922,-30.579,-58.838,156.005,
00:00:29:417,-0.036,-0.001,0.923,-91.553,-50.843,123.535,
00:00:29:433,-0.039,0.012,0.922,-69.092,-5.555,122.619,
00:00:29:450,-0.034,0.02,0.947,-32.166,46.63,94.665,
00:00:29:467,-0.022,0.002,0.938,-27.71,96.374,70.251,
00:00:29:483,0,0.014,0.913,-81.421,110.778,37.597,
00:00:29:500,0.004,0.013,0.885,-129.822,107.055,4.882,
00:00:29:517,-0.007,0.026,0.934,-145.386,118.835,-7.996,
00:00:29:533,-0.016,0.129,0.95,-83.008,195.861,10.925,
00:00:29:550,0.002,0.168,0.977,31.982,273.01,-2.076,
00:00:29:567,0.049,0.173,0.994,70.373,263.855,-23.072,
00:00:29:583,0.054,0.109,0.99,72.326,201.66,-55.542,
00:00:29:600,0.052,0.082,0.978,49.682,197.815,-111.39,
00:00:29:617,0.077,0.03,0.979,58.593,168.151,-138.977,
00:00:29:633,0.107,0.031,1.041,105.896,187.317,-179.322,
00:00:29:650,0.139,0.068,1.09,53.405,155.334,-158.936,
00:00:29:667,0.182,0.066,1.141,-25.33,117.309,-149.964,
00:00:29:683,0.207,0.129,1.111,-90.271,78.43,-125.794,
00:00:29:700,0.211,0.145,1.04,-122.498,13.732,-133.484,
00:00:29:717,0.182,0.176,1.003,-130.127,-44.922,-145.508,
00:00:29:733,0.158,0.222,1.012,-90.516,-39.917,-122.132,
00:00:29:750,0.172,0.252,1.014,30.029,-1.099,-95.032,
00:00:29:767,0.198,0.232,1.051,115.661,-12.635,-92.774,
00:00:29:783,0.194,0.203,1.076,194.824,-28.382,-86.914,
00:00:29:800,0.199,0.12,1.089,242.797,-47.303,-84.961,
00:00:29:817,0.262,-0.134,1.239,103.82,-26.978,23.742,
00:00:29:833,0.105,-0.265,1.072,-79.102,-75.684,4.821,
00:00:29:850,0.191,0.199,0.951,-52.002,21.179,-28.748,
00:00:29:867,0.114,-0.101,0.86,32.959,-32.227,-78.37,
00:00:29:883,0.121,0.06,0.954,-15.442,-3.418,-74.036,
00:00:29:900,0.15,0.004,1.025,9.338,-7.325,-92.652,
00:00:29:917,0.162,0.076,1.066,48.095,27.771,-87.464,
00:00:29:933,0.171,0.028,1.022,105.529,26.977,-87.403,
00:00:29:950,0.148,0.006,0.987,78.247,6.53,-108.033,
00:00:29:967,0.11,-0.018,0.96,39.428,-14.527,-114.991,
00:00:29:983,0.063,-0.04,0.932,-22.156,2.502,-102.417,
00:00:30:0,0.052,-0.046,0.951,-98.206,17.456,-99.854,
00:00:30:17,0.031,0.007,0.998,-167.237,26.489,-100.098,
00:00:30:33,0.036,-0.01,1.004,-204.651,69.274,-102.356,
00:00:30:50,0.039,-0.027,1.014,-260.132,82.763,-104.859,
00:00:30:67,0.038,0.007,1.03,-312.073,102.966,-114.319,
00:00:30:83,0.069,-0.001,1.161,-372.193,120.117,-123.536,
00:00:30:100,0.174,0.43,1.094,-190.674,166.626,-153.87,
00:00:30:117,0.082,0.018,1.064,31.799,54.321,-241.761,
00:00:30:133,-0.013,-0.256,1.086,-123.23,49.255,-281.311,
00:00:30:150,0.022,-0.112,1.111,-354.92,115.966,-219.544,
00:00:30:167,0.107,0.055,1.087,-383.179,187.622,-214.295,
00:00:30:183,0.164,0.101,1.083,-317.627,182.678,-248.047,
00:00:30:200,0.079,0.078,1.083,-281.8,171.63,-241.028,
00:00:30:217,0.032,0.049,1.078,-280.64,254.638,-206.788,
00:00:30:233,0.067,0.152,1.086,-307.557,319.275,-199.28,
00:00:30:250,0.205,0.132,1.075,-255.31,369.384,-253.724,
00:00:30:267,0.283,0.178,1.093,-301.575,300.415,-235.169,
00:00:30:283,0.245,0.173,1.054,-304.993,250.183,-259.949,
00:00:30:300,0.291,0.114,0.978,-336.06,236.694,-222.474,
00:00:30:317,0.217,0.09,0.91,-422.852,120.544,-235.901,
00:00:30:333,0.149,0.123,0.842,-380.433,241.15,-214.722,
00:00:30:350,0.247,0.124,0.778,-380.433,302.124,-200.196,
00:00:30:367,0.317,0.166,0.817,-396.668,283.386,-214.234,
00:00:30:383,0.348,0.174,0.848,-367.249,299.438,-216.37,
00:00:30:400,0.362,0.225,0.805,-344.544,282.348,-223.023,
00:00:30:417,0.277,0.269,0.775,-310.73,251.281,-236.634,
00:00:30:433,0.337,0.226,0.61,-416.443,274.292,-241.211,
00:00:30:450,0.364,0.301,0.589,-411.988,320.984,-237.183,
00:00:30:467,0.364,0.273,0.524,-420.655,347.473,-258.423,
00:00:30:483,0.434,0.292,0.454,-481.507,350.647,-289.673,
00:00:30:500,0.389,0.366,0.434,-451.416,364.99,-355.896,
00:00:30:517,0.551,-0.027,0.933,-748.841,466.98,-222.779,
00:00:30:533,1.281,1.79,1.519,-466.248,482.91,-237.061,
00:00:30:550,1.281,0.724,1.011,-177.735,260.254,-233.033,
00:00:30:567,0.901,1.051,0.59,44.677,39.733,-78.553,
00:00:30:583,0.915,0.699,0.544,-72.083,-136.719,-37.598,
00:00:30:600,0.756,0.882,0.506,80.993,-247.01,-96.985,
00:00:30:617,0.335,0.453,0.083,493.225,-10.743,50.964,
00:00:30:633,0.295,0.223,0.173,436.767,79.956,90.515,
00:00:30:650,0.387,0.271,0.396,316.894,290.405,128.723,
00:00:30:667,0.589,0.392,0.487,209.472,352.478,181.701,
00:00:30:683,0.781,0.489,0.685,206.665,259.033,200.439,
00:00:30:700,0.854,0.57,1.009,365.234,121.826,280.151,
00:00:30:717,0.552,0.234,0.627,996.399,-117.493,38.147,
00:00:30:733,0.423,-0.198,0.608,970.398,-135.193,50.781,
00:00:30:750,0.399,-0.395,0.728,687.011,-114.441,116.699,
00:00:30:767,0.454,-0.261,0.857,533.081,42.053,52.856,
00:00:30:783,0.439,-0.197,0.913,497.68,-66.59,-13.855,
00:00:30:800,0.35,-0.184,0.902,440.124,-168.091,-106.446,
00:00:30:817,0.26,-0.226,0.942,358.703,-223.145,-137.635,
00:00:30:833,0.253,-0.149,1.067,252.563,-177.979,-169.068,
00:00:30:850,0.337,0.069,1.219,150.817,-99.122,-82.947,
00:00:30:867,0.37,0.292,0.917,274.536,-64.942,-86.976,
00:00:30:883,0.315,-0.023,0.934,379.272,-182.496,-182.19,
00:00:30:900,0.242,0.096,0.683,259.216,-220.398,-143.25,
00:00:30:917,0.207,-0.062,1.003,396.545,-160.34,-243.103,
00:00:30:933,0.785,0.295,1.237,-190.979,92.956,419.677,
00:00:30:950,0.827,0.75,0.716,116.516,-162.11,51.574,
00:00:30:967,0.386,-0.058,0.689,573.059,-652.527,-361.451,
00:00:30:983,0.045,-0.131,0.842,380.798,-487.977,-75.745,
00:00:31:0,0.199,-0.056,0.943,291.748,-123.597,4.516,
00:00:31:17,0.393,-0.118,0.979,261.84,-100.098,4.638,
00:00:31:33,0.34,-0.159,1.049,185.485,-97.718,-54.749,
00:00:31:50,0.31,-0.18,1.103,110.778,-37.964,-98.755,
00:00:31:67,0.321,-0.172,1.162,90.454,-6.104,-99.305,
00:00:31:83,0.321,-0.184,1.164,92.468,18.615,-126.099,
00:00:31:100,0.366,-0.191,1.192,57.373,-5.127,-141.541,
00:00:31:117,0.306,-0.186,1.062,-4.822,-57.129,-148.377,
00:00:31:133,0.302,-0.095,1.047,-85.206,-79.041,-114.319,
00:00:31:150,0.181,0.031,1,-122.193,-94.605,-93.018,
00:00:31:167,0.158,0.069,0.969,-30.884,-58.533,-77.027,
00:00:31:183,0.165,0.046,0.939,16.967,-17.334,-50.477,
00:00:31:200,0.274,-0.029,0.987,-9.278,31.494,-47.547,
00:00:31:217,0.356,-0.048,1.192,-46.936,31.372,6.103,
00:00:31:233,0.395,0.135,1.053,55.358,33.447,9.948,
00:00:31:250,0.323,-0.015,0.948,280.334,-8.728,-20.63,
00:00:31:267,0.245,-0.187,0.91,209.228,-14.405,-40.955,
00:00:31:283,0.28,-0.221,0.961,33.508,42.968,-38.025,
00:00:31:300,0.347,-0.163,0.939,-74.646,59.509,-37.354,
00:00:31:317,0.355,-0.078,0.947,-46.936,49.194,-32.898,
00:00:31:333,0.26,-0.062,0.81,129.882,47.119,-86.182,
00:00:31:350,0.197,-0.201,0.734,91.308,74.89,-53.284,
00:00:31:367,0.365,-0.288,0.826,-297.852,186.157,-134.949,
00:00:31:383,0.393,-0.087,0.887,-379.822,173.095,-102.112,
00:00:31:400,0.48,0.01,0.996,-323.304,164.489,-119.446,
00:00:31:417,0.509,0.096,0.989,-198.121,72.937,-95.154,
00:00:31:433,0.482,0.083,0.958,-145.386,6.408,-75.623,
00:00:31:450,0.479,0.134,0.863,-138.55,-45.96,-80.689,
00:00:31:467,0.459,0.174,0.829,-110.718,-74.097,-103.028,
00:00:31:483,0.41,0.197,0.793,-14.832,-67.749,-97.962,
00:00:31:500,0.348,0.198,0.74,74.096,-28.931,-52.796,
00:00:31:517,0.326,0.165,0.703,161.621,46.814,-20.569,
00:00:31:533,0.35,0.106,0.643,200.683,96.862,-20.264,
00:00:31:550,0.354,0.028,0.671,141.052,108.581,-59.571,
00:00:31:567,0.381,0.022,0.782,97.9,144.226,-38.147,
00:00:31:583,0.407,0.074,0.808,175.048,170.044,10.864,
00:00:31:600,0.41,0.064,0.786,319.885,145.019,31.555,
00:00:31:617,0.436,-0.029,0.762,427.917,129.76,17.517,
00:00:31:633,0.439,-0.174,0.784,418.029,109.069,-8.667,
00:00:31:650,0.455,-0.198,0.866,314.88,77.941,-16.297,
00:00:31:667,0.436,-0.184,0.957,322.937,66.101,-61.585,
00:00:31:683,0.396,-0.172,0.933,415.466,68.359,-31.8,
00:00:31:700,0.355,-0.249,0.913,429.687,67.382,-55.42,
00:00:31:717,0.351,-0.342,0.949,367.92,78.552,-73.426,
00:00:31:733,0.37,-0.332,1.018,312.744,61.462,-105.652,
00:00:31:750,0.38,-0.345,1.094,239.807,35.217,-105.103,
00:00:31:767,0.362,-0.303,1.079,172.241,26.062,-83.802,
00:00:31:783,0.353,-0.309,1.071,120.666,13.732,-96.863,
00:00:31:800,0.369,-0.277,1.056,84.533,24.047,-104.493,
00:00:31:817,0.407,-0.256,1.098,68.176,41.565,-104.126,
00:00:31:833,0.416,-0.193,1.052,57.983,56.823,-94.971,
00:00:31:850,0.432,-0.12,0.997,31.982,51.635,-98.45,
00:00:31:867,0.383,-0.179,0.966,59.57,21.423,-136.658,
00:00:31:883,0.361,-0.148,0.942,23.925,21.484,-115.357,
00:00:31:900,0.314,-0.212,0.947,-46.814,42.114,-75.318,
00:00:31:917,0.369,-0.233,0.922,-122.376,88.44,-55.054,
00:00:31:933,0.416,-0.139,0.904,-136.231,94.726,-44.8,
00:00:31:950,0.425,-0.176,0.894,56.091,59.082,-28.565,
00:00:31:967,0.421,-0.188,0.86,204.834,58.593,-31.373,
00:00:31:983,0.431,-0.188,0.808,279.846,60.974,-21.058,
00:00:32:0,0.482,-0.317,0.81,273.071,48.706,-71.961,
00:00:32:17,0.49,-0.41,0.776,154.663,24.658,-74.707,
00:00:32:33,0.468,-0.415,0.828,61.157,7.446,-65.186,
00:00:32:50,0.419,-0.267,0.786,106.384,34.851,-23.377,
00:00:32:67,0.442,-0.188,0.783,214.05,69.641,-34.058,
00:00:32:83,0.48,-0.219,0.763,338.867,50.048,-83.252,
00:00:32:100,0.482,-0.412,0.816,265.075,12.268,-111.512,
00:00:32:117,0.458,-0.416,0.87,119.812,12.573,-59.571,
00:00:32:133,0.446,-0.323,0.877,61.401,31.616,-23.926,
00:00:32:150,0.456,-0.392,0.886,193.115,-31.983,-56.092,
00:00:32:167,0.442,-0.388,0.823,175.048,-37.537,-58.106,
00:00:32:183,0.434,-0.382,0.864,176.086,-48.096,-30.579,
00:00:32:200,0.432,-0.377,0.84,196.045,-30.64,-41.504,
00:00:32:217,0.424,-0.374,0.837,181.335,-27.771,-46.936,
00:00:32:233,0.457,-0.408,0.856,114.929,-22.95,-61.036,
00:00:32:250,0.473,-0.375,0.838,56.823,-27.527,-50.721,
00:00:32:267,0.475,-0.367,0.865,32.836,-45.472,-44.251,
00:00:32:283,0.453,-0.291,0.869,54.199,-51.636,-39.917,
00:00:32:300,0.413,-0.238,0.838,125.244,-66.773,-29.786,
00:00:32:317,0.377,-0.327,0.829,198.547,-69.214,-17.334,
00:00:32:333,0.314,-0.381,0.803,242.675,-58.228,19.897,
00:00:32:350,0.28,-0.504,0.813,182.434,-26.734,-27.405,
00:00:32:367,0.286,-0.533,0.82,142.944,20.08,-47.181,
00:00:32:383,0.332,-0.483,0.963,135.131,16.235,-68.36,
00:00:32:400,0.3,-0.366,0.898,227.661,27.71,-43.213,
00:00:32:417,0.451,-0.503,0.881,265.38,16.662,-33.143,
00:00:32:433,0.444,-0.492,0.9,168.945,-4.273,-38.575,
00:00:32:450,0.425,-0.446,0.924,125.549,2.258,-13.611,
00:00:32:467,0.445,-0.401,0.858,174.316,20.141,20.385,
00:00:32:483,0.458,-0.448,0.83,174.194,-2.137,-4.273,flipLH
00:00:32:500,0.469,-0.49,0.809,134.216,-18.86,-11.414,
00:00:32:517,0.5,-0.544,0.882,78.247,-46.509,-15.137,
00:00:32:533,0.493,-0.473,0.912,110.29,-61.402,-11.292,
00:00:32:550,0.485,-0.433,0.872,229.248,-72.754,-32.959,
00:00:32:567,0.446,-0.518,0.815,404.235,-78.309,-46.57,
00:00:32:583,0.466,-0.591,0.774,409.362,-80.567,-64.515,
00:00:32:600,0.456,-0.653,0.811,361.999,-114.136,-82.764,
00:00:32:617,0.42,-0.594,0.854,354.736,-130.86,-35.279,
00:00:32:633,0.437,-0.607,0.937,340.149,-133.362,-40.528,
00:00:32:650,0.491,-0.656,0.932,281.005,-191.651,-74.341,
00:00:32:667,0.482,-0.705,0.925,183.593,-310.242,-97.413,
00:00:32:683,0.414,-0.691,0.907,41.992,-366.7,-93.14,
00:00:32:700,0.386,-0.606,0.878,-20.02,-390.748,-53.894,
00:00:32:717,0.368,-0.633,0.846,-73.609,-421.448,-50.049,
00:00:32:733,0.374,-0.689,0.828,-159.79,-448.548,-57.679,
00:00:32:750,0.371,-0.791,0.931,-287.659,-495.911,-66.956,
00:00:32:767,0.342,-0.788,1.057,-399.903,-579.407,-115.479,
00:00:32:783,0.285,-0.703,1.098,-439.82,-627.564,-83.069,
00:00:32:800,0.218,-0.677,0.861,-425.232,-614.38,-124.024,
00:00:32:817,0.223,-0.738,0.853,-479.371,-613.892,-122.254,
00:00:32:833,0.192,-0.798,0.725,-563.355,-613.404,-176.758,
00:00:32:850,0.157,-0.843,0.753,-792.298,-601.075,-202.454,
00:00:32:867,0.208,-0.777,0.732,-1041.138,-601.136,-214.966,
00:00:32:883,0.221,-0.68,0.711,-1274.17,-676.819,-292.237,
00:00:32:900,0.161,-0.453,0.724,-1370.118,-759.583,-291.748,
00:00:32:917,0.071,-0.285,0.583,-1347.535,-751.893,-300.354,
00:00:32:933,0.132,-0.424,0.416,-1537.781,-777.894,-356.385,
00:00:32:950,0.251,-0.424,0.417,-1867.188,-812.073,-399.231,
00:00:32:967,0.141,-0.343,0.423,-2000,-780.091,-526.001,
00:00:32:983,0.048,-0.099,0.324,-2000,-675.721,-485.108,
00:00:33:0,0.049,0.109,0.339,-2000,-647.583,-488.099,
00:00:33:17,-0.059,0.157,0.504,-1520.875,-513.184,-542.298,
00:00:33:33,-0.119,0.066,0.53,-1488.404,-375.672,-579.163,
00:00:33:50,-0.09,0.058,0.494,-1599.488,-258.728,-604.31,
00:00:33:67,-0.097,0.38,0.445,-1081.421,-109.375,-515.503,
00:00:33:83,-0.168,0.398,0.355,-784.913,29.113,-519.349,
00:00:33:100,-0.119,0.625,0.584,178.833,341.491,-641.419,
00:00:33:117,-0.134,0.627,0.761,192.871,447.265,-642.945,
00:00:33:133,-0.138,0.61,0.828,365.844,500.732,-599.854,
00:00:33:150,-0.1,0.648,0.907,423.095,569.397,-579.468,
00:00:33:167,-0.108,0.747,1.054,428.039,622.436,-565.247,
00:00:33:183,0.28,0.03,1.438,788.879,64.392,-27.955,
00:00:33:200,0.05,1.552,1.643,133.484,22.461,190.918,
00:00:33:217,-0.111,0.841,1.491,257.202,-84.351,190.185,
00:00:33:233,0.022,0.55,1.201,36.315,-182.923,146.667,
00:00:33:250,-0.029,0.456,0.983,-167.054,-170.96,26.184,
00:00:33:267,-0.076,0.485,0.897,-148.011,-84.961,-33.631,
00:00:33:283,-0.082,0.506,0.809,-53.833,-4.517,-84.778,
00:00:33:300,-0.041,0.543,0.759,-56.519,44.738,-122.254,
00:00:33:317,-0.029,0.654,0.826,-59.937,63.11,-111.817,
00:00:33:334,0.002,0.575,0.862,-69.092,72.57,-95.581,
00:00:33:350,0.005,0.543,0.898,-94.178,66.406,-72.571,
00:00:33:367,0.022,0.481,0.913,-79.956,51.696,-65.857,
00:00:33:384,0.019,0.436,0.914,-68.604,30.456,-69.642,
00:00:33:400,0.017,0.437,0.915,-67.933,6.774,-77.82,
00:00:33:417,0.019,0.532,0.916,-26.185,-10.01,-45.594,
00:00:33:434,0.047,0.569,0.914,22.461,-8.545,-25.513,
00:00:33:450,0.072,0.555,0.905,52.368,-10.01,-18.738,
00:00:33:467,0.065,0.554,0.962,76.721,-13.672,0.183,
00:00:33:484,0.075,0.559,0.978,138.672,-13.977,32.47,
00:00:33:500,0.089,0.507,0.995,169.006,-8.057,61.157,
00:00:33:517,0.08,0.524,1.024,159.423,18.127,46.752,
00:00:33:534,0.094,0.472,0.956,121.582,25.573,44.86,
00:00:33:550,0.107,0.516,1.008,156.25,-13.733,111.084,
00:00:33:567,0.108,0.538,0.998,169.25,-36.744,147.766,
00:00:33:584,0.085,0.513,1.063,230.835,-36.744,189.575,
00:00:33:600,0.069,0.556,1.126,296.936,16.784,240.661,
00:00:33:617,0.075,0.554,1.056,334.106,75.988,227.6,
00:00:33:634,0.074,0.461,0.974,335.632,110.473,255.432,
00:00:33:650,0.096,0.426,0.942,384.094,82.275,304.26,
00:00:33:667,0.085,0.366,1.009,351.379,47.851,339.599,
00:00:33:684,0.02,0.392,1.156,421.142,101.196,370.239,
00:00:33:700,0.021,0.447,1.024,618.53,170.105,453.003,
00:00:33:717,0.12,0.546,0.932,841.308,121.399,515.319,
00:00:33:734,0.155,0.422,0.888,865.478,60.974,431.091,
00:00:33:750,0.134,0.194,0.909,691.528,-16.907,342.346,
00:00:33:767,0.089,0.081,1.006,314.819,-39.307,356.384,
00:00:33:784,0.024,0.118,0.9,69.397,-26.001,392.7,
00:00:33:800,0.031,0.195,0.844,-18.555,-7.325,455.688,
00:00:33:817,0.057,0.248,0.915,63.232,-7.569,463.623,
00:00:33:834,0.01,0.179,0.963,115.112,-17.029,436.706,
00:00:33:850,-0.026,0.216,1.001,165.222,-71.473,437.805,
00:00:33:867,-0.043,0.237,0.956,189.88,-73.975,413.208,
00:00:33:884,-0.052,0.226,0.926,194.213,-62.684,321.35,
00:00:33:900,-0.05,0.224,0.943,203.491,-76.661,278.198,
00:00:33:917,-0.08,0.122,0.859,177.734,-104.432,226.745,
00:00:33:934,-0.169,0.092,0.823,128.418,16.845,239.624,
00:00:33:950,-0.192,0.018,0.776,132.08,124.694,266.357,
00:00:33:967,-0.166,-0.039,0.799,97.473,185.302,351.196,
00:00:33:984,-0.171,-0.027,0.779,-26.123,206.421,359.436,
00:00:34:0,-0.196,0.017,0.725,-109.436,253.051,343.2,
00:00:34:17,-0.153,-0.03,0.764,-90.516,274.292,241.394,
00:00:34:34,-0.178,-0.05,0.759,-65.918,282.592,168.335,
00:00:34:50,-0.226,0.014,0.75,-11.658,390.075,131.164,
00:00:34:67,-0.19,0.07,0.776,162.353,520.324,79.345,
00:00:34:84,-0.125,0.097,0.83,287.048,564.514,31.616,
00:00:34:100,-0.089,0.135,0.862,371.765,546.753,-34.668,
00:00:34:117,-0.056,0.095,0.894,403.137,560.241,-101.38,
00:00:34:134,0.01,0.125,0.927,400.268,529.846,-160.767,
00:00:34:150,0.045,0.164,0.992,478.21,511.047,-213.44,
00:00:34:167,0.085,0.087,1.057,649.658,502.929,-181.336,
00:00:34:184,0.14,0.05,1.114,715.271,521.423,-140.503,
00:00:34:200,0.245,-0.055,1.04,619.201,504.638,-132.386,
00:00:34:217,0.302,-0.144,0.98,445.495,325.012,-168.152,
00:00:34:234,0.188,-0.188,0.948,303.527,134.765,-202.088,
00:00:34:250,0.113,-0.214,0.929,222.534,128.112,-182.068,
00:00:34:267,0.142,-0.214,0.98,72.876,184.509,-163.025,
00:00:34:284,0.157,-0.169,0.964,-46.631,159.301,-160.157,
00:00:34:300,0.211,-0.122,0.966,-96.436,154.541,-190.796,
00:00:34:317,0.235,-0.07,1.009,-98.023,117.675,-203.492,
00:00:34:334,0.241,0.018,1.043,-2.015,112.976,-184.449,
00:00:34:350,0.259,0.042,1.003,96.923,141.54,-174.805,
00:00:34:367,0.3,-0.011,0.972,168.884,119.018,-172.242,
00:00:34:384,0.297,-0.002,0.992,178.466,67.199,-154.48,
00:00:34:400,0.308,-0.036,1.018,199.218,40.466,-166.871,
00:00:34:417,0.282,-0.074,1.015,234.436,20.324,-149.537,
00:00:34:434,0.325,-0.102,1.022,263.366,7.812,-126.282,
00:00:34:450,0.369,-0.111,1.083,270.813,29.357,-32.349,
00:00:34:467,0.258,-0.275,0.921,119.995,56.762,-30.762,
00:00:34:484,0.362,-0.068,0.973,-28.382,38.024,17.028,
00:00:34:500,0.331,-0.142,0.987,22.461,-34.79,-42.176,
00:00:34:517,0.285,-0.162,1.021,33.142,-20.325,-13.245,
00:00:34:534,0.322,-0.131,1.017,41.259,6.652,4.516,
00:00:34:550,0.323,-0.149,1.03,74.89,-1.404,5.981,
00:00:34:567,0.311,-0.166,1.055,124.206,4.699,6.713,
00:00:34:584,0.334,-0.198,1.059,114.563,19.043,16.174,
00:00:34:600,0.35,-0.184,1.053,142.334,-3.846,6.286,
00:00:34:617,0.323,-0.214,1.018,138.916,-33.875,1.464,
00:00:34:634,0.285,-0.188,1.005,154.358,-62.378,-6.165,
00:00:34:650,0.26,-0.209,0.975,143.737,-64.881,-27.955,
00:00:34:667,0.22,-0.211,0.964,143.127,-75.196,-23.377,
00:00:34:684,0.189,-0.238,0.921,127.136,-70.13,-25.513,
00:00:34:700,0.106,-0.213,0.837,148.559,-69.336,-44.312,
00:00:34:717,0.143,-0.22,0.876,109.68,-97.901,-57.557,
00:00:34:734,0.148,-0.219,0.927,166.87,-123.78,-90.699,
00:00:34:750,0.11,-0.255,0.956,204.284,-82.093,-57.373,
00:00:34:767,0.134,-0.216,0.95,219.299,-40.223,-53.956,
00:00:34:784,0.133,-0.279,0.912,234.13,-52.369,-64.148,
00:00:34:800,0.081,-0.317,0.888,206.543,-80.201,-87.342,
00:00:34:817,0.042,-0.36,0.878,182.067,-67.872,-76.05,
00:00:34:834,0.035,-0.375,0.865,139.648,-24.903,-32.654,
00:00:34:850,0.021,-0.441,0.922,58.288,19.653,-45.96,
00:00:34:867,0.045,-0.414,0.946,-49.805,63.598,-59.51,
00:00:34:884,0.083,-0.389,0.943,-155.457,100.036,-83.191,
00:00:34:900,0.102,-0.347,0.955,-190.064,111.084,-91.492,
00:00:34:917,0.124,-0.359,0.957,-207.398,141.662,-101.014,
00:00:34:934,0.141,-0.346,0.949,-219.3,167.846,-105.408,
00:00:34:950,0.166,-0.372,0.947,-273.011,182.617,-109.742,
00:00:34:967,0.223,-0.4,0.973,-373.475,176.88,-112.305,
00:00:34:984,0.282,-0.4,1.021,-469.3,170.959,-98.328,
00:00:35:0,0.333,-0.306,1.063,-558.167,145.263,-82.398,
00:00:35:17,0.326,-0.208,1.06,-574.402,112.548,-89.234,
00:00:35:34,0.291,-0.145,1.045,-568.604,86.059,-90.577,
00:00:35:50,0.253,-0.124,1.03,-525.696,76.538,-123.047,
00:00:35:67,0.249,0.128,1.021,-461.426,103.454,-86.914,
00:00:35:84,0.23,-0.067,0.941,-165.223,79.406,-183.045,
00:00:35:100,0.154,-0.185,0.899,-142.151,88.989,-158.143,
00:00:35:117,0.162,-0.192,0.856,-227.478,119.262,-167.603,
00:00:35:134,0.207,-0.162,0.845,-286.072,113.769,-187.623,
00:00:35:150,0.188,-0.047,0.908,-278.016,123.535,-174.317,
00:00:35:167,0.184,-0.043,0.91,-221.253,180.603,-188.355,
00:00:35:184,0.189,-0.032,0.932,-232.422,161.804,-162.842,
00:00:35:200,0.185,-0.02,0.933,-222.718,189.453,-155.823,
00:00:35:217,0.214,-0.017,0.941,-174.5,237.609,-163.269,
00:00:35:234,0.266,-0.009,0.928,-158.326,234.985,-156.861,
00:00:35:250,0.271,-0.039,0.943,-136.841,208.496,-161.072,
00:00:35:267,0.278,-0.026,0.914,-130.86,205.627,-155.457,
00:00:35:284,0.318,-0.082,0.861,-149.353,190.429,-152.039,
00:00:35:300,0.349,-0.075,0.847,-191.102,177.063,-141.541,
00:00:35:317,0.356,-0.021,0.852,-208.069,176.88,-141.785,
00:00:35:334,0.36,0.053,0.852,-211.914,172.485,-151.612,
00:00:35:350,0.383,0.093,0.84,-172.73,160.461,-158.509,
00:00:35:367,0.425,0.1,0.856,-105.713,181.579,-147.767,
00:00:35:384,0.477,0.135,0.85,-26.856,196.655,-151.673,
00:00:35:400,0.492,0.135,0.85,25.329,141.845,-154.053,
00:00:35:417,0.491,0.197,0.832,74.401,131.958,-129.639,
00:00:35:434,0.502,0.078,0.806,135.498,101.013,-130.31,
00:00:35:450,0.475,0.033,0.817,114.196,39.306,-100.586,
00:00:35:467,0.428,0.039,0.847,148.132,44.372,-103.577,
00:00:35:484,0.435,0.008,0.88,211.486,115.234,-75.135,
00:00:35:500,0.455,-0.047,0.884,250.854,121.643,-84.351,
00:00:35:517,0.449,-0.118,0.832,194.152,57.678,-53.956,
00:00:35:534,0.406,-0.074,0.858,105.468,-34.18,-28.016,
00:00:35:550,0.394,-0.005,0.895,206.421,19.409,-7.508,
00:00:35:567,0.403,-0.075,0.94,354.065,56.884,-51.209,
00:00:35:584,0.392,-0.128,0.918,420.349,70.861,-60.12,
00:00:35:600,0.379,-0.151,0.9,445.8,88.012,-58.289,
00:00:35:617,0.389,-0.144,0.888,461.914,83.435,-55.237,
00:00:35:634,0.391,-0.187,0.865,503.601,74.279,-87.586,
00:00:35:650,0.409,-0.258,0.9,513.427,62.561,-88.623,
00:00:35:667,0.43,-0.282,0.915,469.177,59.448,-80.14,
00:00:35:684,0.451,-0.287,0.929,465.881,32.898,-94.178,
00:00:35:700,0.405,-0.255,0.831,556.152,-21.241,-71.9,
00:00:35:717,0.345,-0.362,0.821,648.864,-41.321,-110.779,
00:00:35:734,0.338,-0.52,0.875,505.432,32.775,-119.141,
00:00:35:750,0.38,-0.394,0.864,372.192,107.055,-113.282,
00:00:35:767,0.401,-0.314,0.844,506.103,66.894,-138.977,
00:00:35:784,0.396,-0.389,0.818,697.754,56.762,-185.73,
00:00:35:800,0.449,-0.59,0.808,626.342,113.83,-201.966,
00:00:35:817,0.504,-0.546,0.925,439.575,102.234,-143.128,
