TIMECODE,ACC_X,ACC_Y,ACC_Z,GYR_X,GYR_Y,GYR_Z,ECG_I,ECG_II,ECG_III,TAG
,-0.041,0.33,0.949,-1.587,2.38,-34.241,0,0,0,
,-0.041,0.329,0.95,-10.254,4.15,-32.715,0,0,0,
,-0.04,0.333,0.943,-16.053,-2.564,-27.771,0,0,0,
,-0.045,0.337,0.949,-19.532,-2.381,-29.419,0,0,0,
,-0.046,0.335,0.946,-22.95,-1.648,-27.894,0,0,0,
,-0.047,0.338,0.951,-23.377,-0.733,-27.344,0,0,0,
,-0.048,0.34,0.951,-21.424,-1.831,-27.955,0,0,0,
,-0.046,0.337,0.947,-18.616,1.037,-31.434,0,0,0,
,-0.045,0.336,0.95,-17.456,0.732,-32.349,0,0,0,
,-0.047,0.337,0.944,-21.241,1.281,-33.509,0,0,0,
,-0.049,0.338,0.948,-20.386,-3.479,-32.593,0,0,0,
,-0.048,0.343,0.941,-22.4,1.709,-31.189,0,0,0,
,-0.051,0.34,0.948,-20.508,2.197,-31.189,0,0,0,
,-0.049,0.342,0.944,-18.555,5.127,-30.213,0,0,0,
,-0.045,0.336,0.946,-17.456,7.995,-28.077,0,0,0,
,-0.046,0.338,0.949,-18.433,9.46,-29.358,0,0,0,
,-0.049,0.338,0.95,-16.175,10.681,-27.344,0,0,0,
,-0.047,0.338,0.948,-17.945,14.282,-27.955,0,0,0,
,-0.044,0.351,0.964,-25.635,15.564,-33.57,0,0,0,
,0.025,0.395,1.012,3.112,35.766,-67.994,0,0,0,
,-0.019,0.319,0.966,8.789,-4.7,-57.19,0,0,0,
,-0.056,0.384,0.937,33.813,32.836,-30.701,0,0,0,
,-0.049,0.32,0.936,66.284,55.236,-30.579,0,0,0,
,-0.03,0.298,0.947,56.274,52.734,-3.357,0,0,0,
,-0.034,0.293,0.955,35.949,46.264,-1.526,0,0,0,
,-0.037,0.295,0.952,7.385,42.663,4.699,0,0,0,
,-0.037,0.308,0.951,-15.381,43.09,3.54,0,0,0,
,-0.036,0.328,0.947,-19.959,39.672,5.371,0,0,0,
,-0.033,0.336,0.949,-17.518,30.029,2.014,0,0,0,
,-0.033,0.339,0.951,-9.766,25.024,-3.785,0,0,0,
,-0.036,0.336,0.955,-5.433,16.723,-10.682,0,0,0,
,-0.032,0.33,0.957,-4.395,10.62,-19.837,0,0,0,
,-0.032,0.328,0.954,-4.578,5.737,-29.053,0,0,0,
,-0.034,0.332,0.958,-3.296,-1.404,-36.927,0,0,0,
,-0.034,0.33,0.954,-2.259,-4.7,-41.687,0,0,0,
,-0.038,0.319,0.958,-2.869,-4.761,-45.166,0,0,0,
,-0.035,0.316,0.957,-8.606,-9.522,-46.204,0,0,0,
,-0.039,0.317,0.956,-15.748,-8.423,-46.204,0,0,0,
,-0.039,0.319,0.956,-26.001,-5.249,-41.382,0,0,0,
,-0.038,0.321,0.951,-29.786,-7.142,-38.453,0,0,0,
,-0.039,0.322,0.956,-30.579,-3.479,-35.279,0,0,0,
,-0.039,0.323,0.953,-28.809,-2.32,-31.373,0,0,0,
,-0.038,0.319,0.953,-33.387,-3.785,-29.908,0,0,0,
,-0.037,0.32,0.955,-36.255,-3.418,-28.565,0,0,0,
,-0.04,0.323,0.956,-41.199,-7.874,-27.832,0,0,0,
,-0.04,0.329,0.957,-43.885,-10.193,-28.26,0,0,0,
,-0.043,0.334,0.949,-41.199,-9.888,-26.307,0,0,0,
,-0.043,0.34,0.956,-36.011,-13.55,-29.114,0,0,0,
,-0.044,0.338,0.949,-30.091,-12.391,-28.199,0,0,0,
,-0.042,0.339,0.952,-23.133,-15.381,-28.748,0,0,0,
,-0.045,0.338,0.952,-18.189,-18.921,-27.588,0,0,0,
,-0.045,0.33,0.95,-13.184,-16.663,-29.297,0,0,0,
,-0.044,0.343,0.958,-15.87,-44.495,-6.958,0,0,0,
,-0.05,0.334,0.948,-10.01,-21.546,-32.288,0,0,0,
,-0.05,0.331,0.944,-7.019,-15.32,-17.273,0,0,0,
,-0.056,0.343,0.945,-1.954,-15.931,-19.227,0,0,0,
,-0.057,0.34,0.948,7.385,-6.47,-20.63,0,0,0,
,-0.054,0.334,0.95,13.61,-1.16,-18.982,0,0,0,
,-0.055,0.336,0.953,26.428,5.065,-17.09,0,0,0,
,-0.055,0.335,0.95,34.484,8.239,-12.94,0,0,0,
,-0.053,0.322,0.953,43.823,14.038,-10.132,0,0,0,
,-0.053,0.307,0.959,38.024,18.31,-9.034,0,0,0,
,-0.052,0.301,0.955,23.254,18.31,-6.226,0,0,0,
,-0.055,0.304,0.961,7.263,19.958,-10.071,0,0,0,
,-0.053,0.282,0.954,-3.785,18.371,-10.193,0,0,0,
,-0.055,0.318,0.958,-9.156,18.371,-16.602,0,0,0,
,-0.053,0.321,0.952,-11.353,14.526,-20.935,0,0,0,
,-0.05,0.322,0.954,-12.513,13.366,-25.33,0,0,0,
,-0.053,0.325,0.956,-8.484,12.023,-33.081,0,0,0,
,-0.051,0.319,0.954,-6.104,4.455,-39.734,0,0,0,
,-0.052,0.323,0.957,-2.686,5.065,-42.542,0,0,0,
,-0.05,0.312,0.956,1.281,0.244,-44.251,0,0,0,
,-0.052,0.308,0.96,-2.564,0.61,-46.692,0,0,0,
,-0.05,0.302,0.961,-7.935,5.127,-46.265,0,0,0,
,-0.052,0.306,0.961,-13.245,1.77,-43.58,0,0,0,
,-0.05,0.312,0.959,-18.555,-1.221,-41.81,0,0,0,
,-0.052,0.31,0.964,-16.663,0.915,-39.978,0,0,0,
,-0.053,0.313,0.96,-17.64,3.784,-37.537,0,0,0,
,-0.055,0.314,0.955,-21.18,5.676,-34.18,0,0,0,
,-0.053,0.314,0.96,-19.593,3.173,-33.631,0,0,0,
,-0.054,0.315,0.955,-22.706,7.08,-31.067,0,0,0,
,-0.055,0.316,0.958,-20.813,5.004,-32.959,0,0,0,
,-0.055,0.317,0.959,-19.41,6.408,-31.067,0,0,0,
,-0.054,0.316,0.953,-18.311,4.638,-33.692,0,0,0,
,-0.054,0.313,0.959,-18.738,4.821,-33.326,0,0,0,
,-0.05,0.313,0.958,-21.79,1.464,-34.241,0,0,0,
,-0.052,0.318,0.961,-21.058,4.577,-32.959,0,0,0,
,-0.054,0.315,0.956,-21.546,3.662,-31.678,0,0,0,
,-0.051,0.318,0.955,-18.921,1.098,-32.166,0,0,0,
,-0.056,0.316,0.957,-18.067,3.784,-29.114,0,0,0,
,-0.056,0.313,0.956,-15.87,1.22,-28.931,0,0,0,
,-0.054,0.316,0.956,-14.344,1.953,-29.358,0,0,0,
,-0.054,0.312,0.955,-18.86,1.098,-28.016,0,0,0,
,-0.056,0.313,0.957,-18.25,2.258,-27.588,0,0,0,
,-0.061,0.318,0.965,-17.64,-4.761,-1.526,0,0,0,
,-0.049,0.316,0.96,-19.41,-1.526,-35.157,0,0,0,
,-0.051,0.315,0.952,-20.508,-1.587,-22.583,0,0,0,
,-0.056,0.322,0.958,-17.701,-4.578,-23.621,0,0,0,
,-0.056,0.328,0.959,-17.579,-2.442,-10.132,0,0,0,
,-0.054,0.337,0.946,6.042,-0.733,1.098,0,0,0,
,-0.064,0.325,0.898,28.137,-2.442,-4.639,0,0,0,
,-0.075,0.276,1.003,59.021,-14.039,-57.679,0,0,0,
,-0.06,0.271,0.981,-5.616,-1.038,-13.55,0,0,0,
,-0.047,0.335,0.942,-1.038,-6.592,-17.884,0,0,0,
,-0.064,0.305,0.968,23.315,-28.382,-16.663,0,0,0,
,-0.073,0.319,0.959,26.001,-15.87,-9.4,0,0,0,
,-0.068,0.322,0.948,42.053,-12.757,-8.606,0,0,0,
,-0.064,0.303,0.969,78.186,-17.151,-12.024,0,0,0,
,-0.065,0.285,0.962,52.917,-11.353,-10.56,0,0,0,
,-0.068,0.296,0.963,28.198,-9.217,-16.602,0,0,0,
,-0.065,0.293,0.963,21.301,-8.24,-13.184,0,0,0,
,-0.066,0.295,0.959,15.319,-12.818,-22.4,0,0,0,
,-0.066,0.298,0.963,26.55,-15.564,-21.485,0,0,0,
,-0.074,0.281,0.963,15.686,-14.222,-32.654,0,0,0,
,-0.077,0.289,0.967,2.136,-11.597,-33.814,0,0,0,
,-0.075,0.287,0.964,-4.578,-12.085,-37.659,0,0,0,
,-0.078,0.287,0.963,-13.794,-5.799,-37.72,0,0,0,
,-0.075,0.289,0.958,-12.024,-4.883,-38.575,0,0,0,
,-0.075,0.286,0.964,-12.391,0.61,-38.208,0,0,0,
,-0.075,0.285,0.963,-16.541,5.92,-38.453,0,0,0,
,-0.073,0.281,0.962,-15.992,10.315,-39.124,0,0,0,
,-0.075,0.281,0.954,-18.555,16.784,-37.293,0,0,0,
,-0.076,0.282,0.964,-24.842,18.981,-37.903,0,0,0,
,-0.082,0.286,0.962,-28.931,24.475,-31.617,0,0,0,
,-0.078,0.291,0.962,-32.959,32.531,-28.687,0,0,0,
,-0.074,0.295,0.961,-28.992,33.691,-27.161,0,0,0,
,-0.072,0.295,0.962,-24.598,35.156,-26.246,0,0,0,
,-0.068,0.29,0.963,-22.095,36.01,-22.95,0,0,0,
,-0.064,0.288,0.971,-19.837,33.935,-25.391,0,0,0,
,-0.067,0.286,0.965,-24.476,34.851,-26.368,0,0,0,
,-0.066,0.29,0.968,-28.138,29.785,-30.945,0,0,0,
,-0.065,0.294,0.96,-32.532,35.766,-31.128,0,0,0,
,-0.069,0.294,0.967,-34.302,31.127,-33.143,0,0,0,
,-0.065,0.294,0.968,-33.814,31.372,-34.058,0,0,0,
,-0.062,0.295,0.963,-32.776,26.733,-33.814,0,0,0,
,-0.062,0.297,0.962,-32.532,30.822,-34.363,0,0,0,
,-0.062,0.297,0.963,-29.297,22.399,-37.11,0,0,0,
,-0.061,0.296,0.966,-25.879,26.184,-39.368,0,0,0,
,-0.058,0.296,0.964,-23.316,21.24,-38.269,0,0,0,
,-0.056,0.295,0.967,-23.804,14.709,-39.185,0,0,0,
,-0.057,0.3,0.959,-23.804,9.704,-39.795,0,0,0,
,-0.06,0.301,0.964,-23.072,3.906,-42.969,0,0,0,
,-0.058,0.308,0.963,-20.813,-1.465,-44.373,0,0,0,
,-0.056,0.306,0.965,-10.193,-11.109,-46.326,0,0,0,
,-0.061,0.306,0.966,-1.343,-10.01,-47.181,0,0,0,
,-0.062,0.299,0.967,6.897,-16.053,-48.34,0,0,0,
,-0.064,0.29,0.96,-5.249,-13.062,-50.415,0,0,0,
,-0.067,0.292,0.96,-19.41,-8.423,-46.998,0,0,0,
,-0.067,0.281,0.958,-17.09,-1.709,-45.289,0,0,0,
,-0.068,0.298,0.959,-1.526,5.31,-43.641,0,0,0,
,-0.067,0.287,0.962,-1.831,8.361,-41.932,0,0,0,
,-0.064,0.284,0.964,-4.517,14.221,-40.101,0,0,0,
,-0.058,0.282,0.962,-11.475,15.808,-38.636,0,0,0,
,-0.06,0.284,0.965,-18.006,17.578,-37.171,0,0,0,
,-0.063,0.291,0.963,-26.123,18.92,-35.218,0,0,0,
,-0.067,0.296,0.951,-27.649,28.808,-34.119,0,0,0,
,-0.065,0.302,0.959,-24.903,41.137,-30.03,0,0,0,
,-0.056,0.298,0.961,-39.368,68.725,-35.767,0,0,0,
,-0.055,0.298,0.955,-24.659,78.125,-17.762,0,0,0,
,-0.049,0.3,0.99,-7.508,106.75,-4.639,0,0,0,
,-0.048,0.304,0.998,24.963,138.061,35.278,0,0,0,
,-0.02,0.291,0.986,55.969,180.969,38.94,0,0,0,
,-0.014,0.189,0.986,47.79,155.151,55.542,0,0,0,
,-0.014,0.246,1.008,-46.875,147.949,77.026,0,0,0,
,-0.026,0.054,0.98,-195.618,121.215,100.036,0,0,0,
,-0.039,0.335,0.946,-132.63,126.037,63.781,0,0,0,
,-0.031,0.217,0.952,-236.878,74.829,26.916,0,0,0,
,-0.036,0.372,0.932,-179.993,72.876,49.072,0,0,0,
,-0.001,0.333,1.001,-117.493,48.523,18.066,0,0,0,
,-0.032,0.429,0.918,-13.062,36.315,58.654,0,0,0,
,-0.05,0.372,0.923,97.106,35.217,-12.879,0,0,0,
,-0.025,0.331,0.949,57.19,13.671,-23.011,0,0,0,
,-0.011,0.327,0.949,74.951,-1.648,-48.829,0,0,0,
,-0.008,0.299,0.951,75.439,-27.832,-75.379,0,0,0,
,-0.016,0.3,0.957,73.242,-50.904,-89.234,0,0,0,
,-0.022,0.3,0.957,74.157,-55.909,-106.08,0,0,0,
,-0.029,0.286,0.952,60.73,-66.529,-111.206,0,0,0,
,-0.005,0.367,0.996,49.499,-67.383,-99.427,0,0,0,
,-0.024,0.276,0.969,57.067,-64.515,-126.16,0,0,0,
,-0.023,0.25,0.984,14.465,-68.543,-84.656,0,0,0,
,-0.036,0.263,0.97,-21.241,-62.134,-87.525,0,0,0,
,-0.04,0.285,0.977,25.207,-35.157,-79.773,0,0,0,
,-0.03,0.25,0.965,13.305,-26.123,-73.487,0,0,0,
,-0.041,0.241,0.975,14.831,26.489,9.338,0,0,0,
,-0.04,0.239,0.976,-30.091,35.278,25.695,0,0,0,
,-0.039,0.255,0.97,-70.008,42.48,32.531,0,0,0,
,-0.041,0.31,0.974,-92.286,49.377,36.315,0,0,0,
,-0.035,0.292,0.965,-78.37,54.077,40.466,0,0,0,
,-0.029,0.32,0.964,-57.312,57.434,19.409,0,0,0,
,-0.024,0.315,0.963,-48.035,57.373,6.408,0,0,0,
,-0.018,0.322,0.978,-39.734,49.011,-4.334,0,0,0,
,-0.02,0.287,0.988,-56.458,31.555,-16.48,0,0,0,
,-0.035,0.274,1,-93.201,22.461,-14.1,0,0,0,
,-0.036,0.226,1.069,-149.231,31.921,23.803,0,0,0,
,0.263,0.22,1.861,-301.697,-27.283,138.855,0,0,0,
,0.488,0.34,1.843,-507.264,-236.451,273.498,0,0,0,
,0.544,0.549,1.594,-1044.556,-654.48,241.15,0,0,0,
,0.502,0.711,1.66,-1392.823,-1109.986,345.398,0,0,0,
,0.467,1.098,1.708,-1655.396,-1674.5,564.27,0,0,0,
,0.253,1.563,1.645,-1275.391,-1998.475,785.095,0,0,0,
,-0.004,1.563,1.424,-398.621,-2000,985.412,0,0,0,
,-0.096,1.088,1.103,206.543,-2000,1002.258,0,0,0,
,-0.033,0.769,0.844,539.856,-2000,1054.992,0,0,0,
,0.067,0.607,0.536,724.243,-2000,1141.174,0,0,0,
,0.018,0.492,0.279,913.147,-2000,1213.623,0,0,0,
,-0.094,0.323,0.108,1138.061,-2000,1230.285,0,0,0,
,-0.115,0.14,-0.167,1341.308,-2000,1214.965,0,0,0,
,-0.155,0.006,-0.538,1412.597,-2000,1197.265,0,0,0,
,-0.315,-0.074,-0.916,1274.231,-2000,1205.078,0,0,0,
,-0.529,-0.146,-1.142,964.721,-1970.459,1225.28,0,0,0,
,-0.664,-0.259,-1.266,641.601,-1436.707,1210.51,0,0,0,
,-0.717,-0.257,-1.375,276.489,-848.145,1124.389,0,0,0,
,-0.743,-0.449,-1.424,20.568,-238.465,939.148,0,0,0,
,-0.62,-0.373,-1.29,-317.505,331.298,595.764,0,0,0,
,-0.522,-0.256,-1.1,-567.81,961.181,65.063,0,0,0,
,-0.442,-0.354,-0.854,-906.128,1496.826,-459.473,0,0,0,
,-0.356,-0.422,-0.629,-1381.226,1921.692,-822.754,0,0,0,
,-0.274,-0.257,-0.439,-1605.713,1999.694,-1059.327,0,0,0,
,-0.247,-0.063,-0.277,-1323.121,1999.694,-1200.379,0,0,0,
,-0.267,-0.079,-0.171,-678.467,1999.694,-1268.738,0,0,0,
,-0.203,-0.088,0.091,-263.428,1999.694,-1176.941,0,0,0,
,-0.005,0.122,0.545,-153.626,1999.694,-1013.794,0,0,0,
,0.091,0.407,1.104,-480.774,1999.694,-825.379,0,0,0,
,-0.016,0.753,1.692,-752.503,1999.694,-787.964,0,0,0,
,-0.154,0.893,1.745,-461.792,1992.248,-820.313,0,0,0,
,-0.214,0.626,1.394,163.696,1911.743,-820.984,0,0,0,
,-0.02,0.308,1.434,392.578,1778.32,-663.941,0,0,0,
,0.199,0.499,1.702,16.174,1438.598,-414.612,0,0,0,
,0.103,0.84,1.965,-174.439,953.125,-417.603,0,0,0,
,-0.121,0.632,1.958,-134.217,662.292,-460.511,0,0,0,
,-0.233,0.533,1.615,-83.619,491.699,-447.632,0,0,0,
,-0.229,0.368,1.244,41.442,404.419,-396.79,0,0,0,
,-0.12,0.291,1.106,32.104,356.323,-330.994,0,0,0,
,-0.072,0.485,1.084,18.005,230.346,-228.028,0,0,0,
,-0.154,0.503,1.084,135.986,137.512,-206.482,0,0,0,
,-0.232,0.36,1.019,174.499,145.63,-210.572,0,0,0,
,-0.217,0.308,0.911,145.568,223.877,-203.919,0,0,0,
,-0.178,0.207,0.859,148.803,269.653,-220.887,0,0,0,
,-0.084,0.18,0.865,106.14,287.841,-207.886,0,0,0,
,-0.001,0.258,0.913,13.183,243.225,-148.926,0,0,0,
,-0.007,0.406,0.927,-37.598,209.35,-71.778,0,0,0,
,0.041,0.69,1.142,210.815,110.778,66.955,0,0,0,
,-0.061,0.217,1.178,179.931,9.582,-61.89,0,0,0,
,-0.113,0.252,1.077,0.488,28.381,25.268,0,0,0,
,-0.107,0.268,1.002,-64.331,33.569,3.906,0,0,0,
,-0.106,0.279,0.958,-86.426,25.695,-4.395,0,0,0,
,-0.108,0.293,0.951,-39.734,29.113,-20.813,0,0,0,
,-0.09,0.278,0.953,33.691,37.353,-38.697,0,0,0,
,-0.067,0.291,1.003,79.834,33.081,-34.18,0,0,0,
,-0.037,0.283,1.003,45.471,5.371,-18.494,0,0,0,
,-0.063,0.276,1.002,-49.317,-54.81,-13.489,0,0,0,
,-0.136,0.28,0.986,-149.476,-74.219,-9.522,0,0,0,
,-0.142,0.324,0.993,-210.511,-60.425,16.296,0,0,0,
,-0.129,0.348,1.016,-191.163,-88.501,23.254,0,0,0,
,-0.159,0.433,1.076,-82.52,-145.325,33.386,0,0,0,
,-0.222,0.422,1.103,39.306,-205.262,3.356,0,0,0,
,-0.276,0.349,1.088,44.25,-220.826,-0.123,0,0,0,
,-0.273,0.348,1.035,-42.725,-212.098,15.38,0,0,0,
,-0.261,0.365,0.981,-105.225,-227.662,38.391,0,0,0,
,-0.274,0.412,0.947,-142.701,-232.605,73.364,0,0,0,
,-0.27,0.448,0.913,-136.048,-202.881,103.332,0,0,0,
,-0.256,0.471,0.84,-90.577,-172.12,127.685,0,0,0,
,-0.26,0.452,0.788,-32.776,-141.175,162.353,0,0,0,
,-0.268,0.416,0.758,15.991,-83.985,206.421,0,0,0,
,-0.245,0.449,0.763,75.317,-12.574,262.878,0,0,0,
,-0.219,0.488,0.801,156.372,22.583,282.287,0,0,0,
,-0.178,0.53,0.826,264.953,57.434,278.503,0,0,0,
,-0.151,0.438,0.825,337.707,79.467,244.079,0,0,0,
,-0.13,0.289,0.823,384.399,81.298,235.229,0,0,0,
,-0.118,0.24,0.864,375.427,85.571,233.154,0,0,0,
,-0.113,0.14,0.899,393.921,89.538,230.041,0,0,0,
,-0.118,0.07,0.954,326.66,97.839,239.868,0,0,0,
,-0.106,0.091,1.017,200.744,114.502,249.511,0,0,0,
,-0.083,0.155,1.031,126.648,140.564,262.268,0,0,0,
,-0.089,0.153,1.003,114.441,146.423,264.404,0,0,0,
,-0.093,0.187,1.02,174.682,171.142,274.902,0,0,0,
,-0.032,0.065,1.049,272.216,190.551,239.624,0,0,0,
,-0.068,0.001,1.04,102.783,191.467,257.446,0,0,0,
,-0.042,0.132,1.012,-172.059,198.486,276.428,0,0,0,
,-0.038,0.266,0.985,-228.699,179.016,244.384,0,0,0,
,-0.039,0.384,1.003,96.923,173.584,240.905,0,0,0,
,-0.046,0.193,1.003,374.145,147.461,171.325,0,0,0,
,-0.053,-0.008,1.002,384.277,131.836,162.902,0,0,0,
,-0.064,-0.077,0.986,211.364,124.755,154.235,0,0,0,
,-0.075,-0.012,0.972,-5.677,113.83,141.357,0,0,0,
,-0.097,0.138,0.933,-86.06,127.014,120.91,0,0,0,
,-0.099,0.176,0.93,-5.982,156.128,81.054,0,0,0,
,-0.047,0.164,0.973,211.914,179.992,77.88,0,0,0,
,-0.015,0.067,1.021,352.234,149.963,46.997,0,0,0,
,-0.021,-0.046,1.032,295.837,115.722,5.065,0,0,0,
,-0.021,-0.096,1.018,117.065,93.689,-7.569,0,0,0,
,-0.026,-0.049,1.01,-95.032,71.899,12.207,0,0,0,
,-0.041,0.024,1.007,-259.461,57.983,30.456,0,0,0,
,-0.056,0.104,1.008,-339.051,56.64,45.471,0,0,0,
,-0.076,0.198,1.03,-302.857,67.016,44.189,0,0,0,
,-0.078,0.257,0.982,-186.219,96.313,35.095,0,0,0,
,-0.079,0.222,0.942,-51.087,131.042,30.944,0,0,0,
,-0.021,0.201,0.941,54.931,139.404,63.537,0,0,0,
,-0.026,0.092,0.975,90.026,73.425,5.127,0,0,0,
,-0.082,0.063,1.019,69.824,60.73,38.269,0,0,0,
,-0.093,0.034,1.064,3.845,99.792,27.404,0,0,0,
,-0.047,0.031,1.026,-83.741,130.615,25.451,0,0,0,
,-0.053,0.089,0.973,-135.804,114.685,41.381,0,0,0,
,-0.04,0.085,1.033,-157.593,112.915,23.315,0,0,0,
,0.021,0.139,1.056,-135.926,118.591,42.419,0,0,0,
,0.065,0.073,1.11,-60.242,67.077,2.075,0,0,0,
,0.1,0.126,1.105,-160.95,39.123,54.504,0,0,0,
,0.08,0.32,1.026,-220.581,-6.531,13.671,0,0,0,
,0.087,0.365,0.929,6.591,18.249,-73.487,0,0,0,
,0.093,0.421,0.933,218.078,-10.01,-29.908,0,0,0,
,0.063,0.372,1.029,520.935,-51.697,14.77,0,0,0,
,-0.016,0.042,1.014,669.983,-62.684,-29.602,0,0,0,
,-0.068,-0.267,0.937,356.384,-28.382,-37.049,0,0,0,
,-0.076,-0.171,0.886,-23.438,34.484,54.077,0,0,0,
,-0.047,-0.009,0.874,-174.622,56.213,50.17,0,0,0,
,-0.019,-0.02,0.844,-168.091,60.18,14.282,0,0,0,
,-0.029,0.092,0.915,-91.004,59.448,-5.372,0,0,0,
,-0.023,0.057,0.989,-1.282,65.979,-78.797,0,0,0,
,0.026,0.003,1.049,-0.977,36.804,-112.793,0,0,0,
,0.048,0.044,1.09,-54.078,1.77,-129.151,0,0,0,
,0.071,0.036,1.06,-101.197,-29.297,-169.007,0,0,0,
,0.085,0.092,1.092,-202.942,-74.769,-187.989,0,0,0,
,0.079,0.071,1.028,-283.081,-122.925,-222.474,0,0,0,
,-0.011,0.071,0.996,-455.079,-174.256,-160.828,0,0,0,
,-0.064,0.177,0.964,-554.261,-143.128,-110.84,0,0,0,
,-0.049,0.285,0.967,-539.734,-116.272,-73.853,0,0,0,
,0.006,0.387,1.004,-377.015,-99.549,-43.457,0,0,0,
,0.03,0.53,1.088,-66.651,-114.136,-15.564,0,0,0,
,0.026,0.295,1.032,19.653,-117.066,-51.88,0,0,0,
,0.094,0.254,0.971,-45.105,-113.709,0.122,0,0,0,
,0.094,0.351,0.992,-12.94,-186.707,27.526,0,0,0,
,0.119,0.442,1.054,-36.744,-221.802,64.941,0,0,0,
,0.073,0.485,0.986,76.477,-264.039,33.325,0,0,0,
,0.019,0.339,1.031,128.54,-264.466,76.843,0,0,0,
,-0.065,0.192,0.966,-246.766,-287.11,124.572,0,0,0,
,-0.175,0.28,0.96,-244.873,-304.871,127.99,0,0,0,
,-0.238,0.338,0.949,42.602,-270.081,143.31,0,0,0,
,-0.258,0.272,1.006,341.613,-263.184,135.131,0,0,0,
,-0.299,0.062,1.081,459.045,-276.978,101.257,0,0,0,
,-0.318,-0.003,1.055,301.635,-274.598,53.405,0,0,0,
,-0.278,-0.053,1.008,27.221,-263.245,-25.635,0,0,0,
,-0.261,0.009,0.964,-166.81,-247.559,-74.463,0,0,0,
,-0.257,0.05,0.91,-238.831,-238.526,-117.188,0,0,0,
,-0.274,0.049,0.82,-153.748,-195.313,-151.246,0,0,0,
,-0.264,0.059,0.736,64.453,-161.622,-175.843,0,0,0,
,-0.326,0.009,0.734,262.085,-118.897,-259.949,0,0,0,
,-0.306,-0.031,0.791,322.692,-66.468,-334.229,0,0,0,
,-0.368,-0.035,0.871,308.349,0.549,-376.465,0,0,0,
,-0.372,-0.045,0.95,271.545,82.214,-367.493,0,0,0,
,-0.395,-0.001,0.987,121.276,147.949,-330.689,0,0,0,
,-0.352,0.074,0.97,-15.503,190.002,-305.97,0,0,0,
,-0.375,0.251,1.044,-155.152,156.555,-272.461,0,0,0,
,-0.392,0.357,1.021,-170.838,174.438,-257.019,0,0,0,
,-0.341,0.37,0.951,-238.77,173.95,-173.584,0,0,0,
,-0.311,0.462,1.041,-305.97,126.648,-89.112,0,0,0,
,-0.384,0.479,0.972,-275.574,131.286,-27.771,0,0,0,
,-0.353,0.332,0.834,-272.644,165.527,13.122,0,0,0,
,-0.321,0.28,0.843,-349.305,117.492,118.896,0,0,0,
,-0.373,0.231,0.875,-369.202,111.938,185.852,0,0,0,
,-0.393,0.245,0.899,-262.879,101.013,181.03,0,0,0,
,-0.348,0.183,0.938,-97.229,116.211,165.283,0,0,0,
,-0.317,0.142,0.911,53.649,138.61,118.957,0,0,0,
,-0.205,-0.043,0.987,66.772,126.709,21.118,0,0,0,
,-0.031,0.156,1.272,171.325,26.977,-13.855,0,0,0,
,-0.138,-0.006,1.253,191.162,-48.829,-98.511,0,0,0,
,-0.146,-0.014,1.186,-75.074,-75.074,-96.741,0,0,0,
,-0.256,0.281,1.162,-121.521,-73.975,-61.829,0,0,0,
,-0.144,0.25,1.094,-20.325,-5.372,-79.651,0,0,0,
,-0.183,0.295,1.055,-9.156,-2.381,-25.574,0,0,0,
,-0.223,0.193,0.942,-14.405,48.889,-22.034,0,0,0,
,-0.154,0.163,0.916,-94.178,49.438,-2.381,0,0,0,
,-0.179,0.257,0.934,-75.257,30.883,5.432,0,0,0,
,-0.214,0.289,0.887,66.711,40.466,-10.926,0,0,0,
,-0.228,0.302,0.816,228.637,54.626,-32.227,0,0,0,
,-0.25,0.185,0.847,414.489,71.655,-63.721,0,0,0,
,-0.231,0.009,0.908,409.546,116.638,-79.651,0,0,0,
,-0.107,0.014,1.115,218.261,73.852,-66.407,0,0,0,
,-0.211,0.161,1.121,98.51,-17.579,-34.302,0,0,0,
,-0.214,0.191,1.043,59.021,2.319,-42.359,0,0,0,
,-0.183,0.221,0.955,65.734,11.657,-22.278,0,0,0,
,-0.175,0.234,0.962,123.657,46.02,-15.625,0,0,0,
,-0.083,0.198,0.988,214.172,54.626,-22.889,0,0,0,
,-0.069,0.075,0.994,255.737,43.518,-10.926,0,0,0,
,-0.079,-0.03,0.979,179.138,12.268,-11.536,0,0,0,
,-0.121,0.035,0.967,121.399,21.057,-15.32,0,0,0,
,-0.103,0.084,0.983,158.996,38.635,-28.199,0,0,0,
,-0.067,0.063,0.986,217.346,43.945,-34.058,0,0,0,
,-0.093,0.058,1.01,181.213,19.592,-13.977,0,0,0,
,-0.127,0.082,1.04,156.128,22.277,-13.245,0,0,0,
,-0.148,0.086,1.092,107.422,31.189,-21.79,0,0,0,
,-0.169,0.064,1.045,44.433,22.461,-39.49,0,0,0,
,-0.199,0.091,1.012,38.635,4.577,-31.495,0,0,0,
,-0.217,0.06,0.97,35.278,19.104,-31.006,0,0,0,
,-0.205,0.052,0.899,50.415,23.01,-14.039,0,0,0,
,-0.229,0.018,0.909,67.932,14.648,-17.518,0,0,0,
,-0.235,0.106,0.969,146.85,37.414,-24.903,0,0,0,
,-0.222,0.069,1.016,234.069,56.579,-29.602,0,0,0,
,-0.23,0.035,1.033,220.276,42.602,-32.227,0,0,0,
,-0.249,-0.027,0.973,176.88,41.992,-38.331,0,0,0,
,-0.277,-0.004,0.921,162.902,50.659,-23.804,0,0,0,
,-0.269,-0.004,0.951,200.439,78.186,-29.175,0,0,0,
,-0.271,-0.067,1.019,199.951,56.213,-19.898,0,0,0,
,-0.263,-0.11,1.007,160.522,81.848,-33.753,0,0,0,
,-0.27,-0.067,0.978,122.253,96.618,-21.485,0,0,0,
,-0.165,-0.061,0.935,102.111,119.506,-23.072,0,0,0,
,-0.024,0.052,1.327,98.816,63.476,-6.836,0,0,0,
,-0.15,-0.014,1.193,219.97,-38.514,-11.963,0,0,0,
,-0.098,-0.287,0.994,71.899,113.891,-60.608,0,0,0,
,0.02,-0.087,0.981,-87.159,22.399,-57.618,0,0,0,
,0,-0.081,0.955,-108.704,69.213,-83.252,0,0,0,
,0.063,-0.002,0.94,-71.961,52.429,-77.088,0,0,0,
,0.081,0.019,1.026,-81.971,60.363,-61.402,0,0,0,
,0.147,0.069,1.147,-34.668,21.789,-39.429,0,0,0,
,0.022,-0.085,1.151,-54.505,23.071,-33.692,0,0,0,
,0.088,0.007,1.134,-114.869,4.089,-14.71,0,0,0,
,0.073,0.093,1.06,-50.293,-13.062,-2.808,0,0,0,
,0.019,0.055,1.01,17.7,-39.917,23.437,0,0,0,
,0.056,0.076,1.107,7.202,-22.889,44.006,0,0,0,
,0.045,0.082,0.948,1.464,-22.156,46.386,0,0,0,
,-0.064,0.029,0.95,75.927,-9.583,43.212,0,0,0,
,-0.175,-0.101,0.964,113.647,-15.137,19.226,0,0,0,
,-0.412,-0.156,1.086,96.801,-46.204,16.906,0,0,0,
,-0.47,-0.261,0.85,0.549,10.62,-19.104,0,0,0,
,-0.509,-0.19,0.863,-48.462,-20.081,-24.903,0,0,0,
,-0.57,-0.149,0.826,-61.402,-0.611,-38.88,0,0,0,
,-0.492,0.09,0.908,77.209,38.818,-23.377,0,0,0,
,-0.402,-0.054,0.953,160.888,24.719,-13.672,0,0,0,
,-0.423,-0.062,0.972,129.76,3.479,3.601,0,0,0,
,-0.35,-0.141,0.928,108.337,51.94,-18.433,0,0,0,
,-0.255,-0.16,0.906,107.177,40.588,-57.801,0,0,0,
,-0.135,-0.142,0.953,76.66,94.848,-108.46,0,0,0,
,0.098,-0.048,1.056,30.944,126.281,-126.893,0,0,0,
,0.284,0.047,1.207,3.418,112.182,-116.333,0,0,0,
,0.334,0.065,1.23,-19.898,53.711,-98.328,0,0,0,
,0.344,0.113,1.104,-5.372,35.156,-70.862,0,0,0,
,0.137,-0.165,0.965,18.371,33.508,-45.899,0,0,0,
,0.196,-0.259,0.981,-87.83,60.119,-22.767,0,0,0,
,0.211,-0.204,1.129,-168.702,43.151,-31.311,0,0,0,
,0.171,-0.148,1.189,-230.652,5.31,-28.626,0,0,0,
,0.17,-0.007,1.23,-351.807,-20.935,-37.171,0,0,0,
,-0.002,0.222,1.07,-338.44,-56.824,-2.015,0,0,0,
,-0.2,0.239,0.965,-159.241,-47.791,27.648,0,0,0,
,-0.374,0.11,0.835,-20.081,-30.213,48.461,0,0,0,
,-0.553,-0.053,0.72,79.406,15.991,56.762,0,0,0,
,-0.642,-0.283,0.857,167.053,-10.926,48.217,0,0,0,
,-0.658,-0.47,0.909,4.028,22.338,-21.668,0,0,0,
,-0.488,-0.171,1.155,-208.069,3.845,-66.773,0,0,0,
,-0.423,0.056,1.011,-142.456,40.893,-62.806,0,0,0,
,-0.286,0.133,1.025,-19.837,-14.527,-41.504,0,0,0,
,-0.353,0.001,0.918,73.791,-5.372,-47.242,0,0,0,
,-0.225,-0.056,0.768,98.632,51.757,-44.19,0,0,0,
,-0.081,-0.127,0.778,112.426,99.731,-62.256,0,0,0,
,0.123,-0.122,0.912,84.35,154.907,-75.257,0,0,0,
,0.259,-0.072,1.044,20.874,134.399,-94.788,0,0,0,
,0.308,0.036,1.121,-39.917,117.37,-85.083,0,0,0,
,0.326,0.109,1.195,-29.786,71.777,-58.167,0,0,0,
,0.272,0.06,1.109,29.663,20.202,-23.987,0,0,0,
,0.09,-0.088,1.011,61.279,36.438,1.281,0,0,0,
,0.166,-0.105,0.992,20.385,45.776,25.329,0,0,0,
,0.081,-0.111,1.083,-32.471,40.283,45.837,0,0,0,
,0.057,-0.06,1.148,-77.515,30.944,52.856,0,0,0,
,0.135,-0.025,1.291,-108.704,-47.242,45.715,0,0,0,
,-0.178,-0.066,1.182,-117.127,-33.936,31.311,0,0,0,
,-0.253,-0.019,0.91,-181.458,-71.778,59.57,0,0,0,
,-0.413,-0.033,0.89,-106.019,4.943,41.442,0,0,0,
,-0.447,-0.017,0.875,-38.453,19.836,19.775,0,0,0,
,-0.474,0.006,0.905,-4.822,36.071,23.498,0,0,0,
,-0.549,-0.043,0.807,53.833,38.33,-2.442,0,0,0,
,-0.429,-0.037,0.951,-8.423,63.72,-14.161,0,0,0,
,-0.312,0.002,1.012,-46.387,37.536,-23.865,0,0,0,
,-0.264,0.027,1.027,-107.239,2.929,-32.41,0,0,0,
,-0.249,0.011,0.989,-67.749,-5.86,-58.228,0,0,0,
,-0.258,-0.117,0.874,-68.848,6.469,-92.774,0,0,0,
,-0.195,-0.093,0.774,-81.91,29.541,-114.93,0,0,0,
,-0.136,-0.104,0.768,-72.144,75.683,-139.222,0,0,0,
,0.022,0,0.541,-51.27,164.184,-133.179,0,0,0,
,0.145,-0.029,0.931,85.998,136.963,-158.509,0,0,0,
,0.303,0.08,1.251,43.579,112.609,-134.034,0,0,0,
,0.403,0.214,1.49,-11.414,78.735,-83.008,0,0,0,
,0.449,0.212,1.571,15.258,-23.804,-57.618,0,0,0,
,0.155,-0.08,1.156,44.372,-99.122,-27.71,0,0,0,
,0.054,-0.148,0.903,-51.27,-28.87,4.455,0,0,0,
,0.255,0.034,1.077,-90.638,29.602,25.756,0,0,0,
,0.166,-0.033,1.071,-23.438,-14.954,39.917,0,0,0,
,0.113,-0.073,1.04,-34.546,-4.029,64.392,0,0,0,
,0.057,-0.096,1.09,-60.364,-46.265,65.002,0,0,0,
,-0.234,-0.107,1.348,-111.634,-121.705,16.479,0,0,0,
,-0.143,-0.016,1.066,-262.085,-50.049,12.817,0,0,0,
,-0.234,0.095,0.993,-238.77,-26.368,-2.869,0,0,0,
,-0.251,0.172,0.856,-152.161,-37.415,-3.907,0,0,0,
,-0.262,0.189,0.834,4.516,-18.433,27.71,0,0,0,
,-0.33,0.121,0.754,133.239,-14.466,71.044,0,0,0,
,-0.457,-0.093,0.781,122.924,31.494,123.169,0,0,0,
,-0.541,-0.216,0.87,127.99,15.136,102.111,0,0,0,
,-0.348,-0.326,1.223,40.405,63.903,18.432,0,0,0,
,-0.281,-0.144,1.21,-128.724,15.136,-36.438,0,0,0,
,-0.32,-0.146,1.018,-224.366,6.042,-70.313,0,0,0,
,-0.237,0.063,0.799,-299.805,6.225,-84.473,0,0,0,
,-0.241,0.124,0.801,-163.392,-80.445,-107.727,0,0,0,
,0.25,0.187,1.124,157.776,100.28,-78.736,0,0,0,
,0.423,0.176,1.416,199.89,61.401,-35.95,0,0,0,
,0.357,-0.033,1.519,131.897,-11.78,-14.649,0,0,0,
,0.203,-0.253,1.093,-26.246,10.62,7.995,0,0,0,
,0.168,-0.171,0.989,-113.16,-32.044,23.62,0,0,0,
,0.197,-0.23,1.172,-203.248,1.159,14.587,0,0,0,
,0.17,-0.166,1.132,-301.514,-54.139,21.057,0,0,0,
,0.131,-0.082,1.2,-343.201,-34.913,13.366,0,0,0,
,0.144,0.044,1.163,-395.02,-19.532,12.939,0,0,0,
,0.046,0.118,0.96,-379.456,-32.227,21.362,0,0,0,
,-0.158,0.092,0.979,-332.276,-69.092,19.348,0,0,0,
,-0.353,0.29,0.928,-247.498,13.671,43.396,0,0,0,
,-0.393,0.278,0.932,-84.839,6.713,48.95,0,0,0,
,-0.437,0.212,0.953,52.49,3.967,57.861,0,0,0,
,-0.462,0.064,0.879,122.68,-4.944,59.082,0,0,0,
,-0.468,-0.018,0.842,132.751,-32.593,44.738,0,0,0,
,-0.398,-0.054,0.908,86.731,-23.621,15.319,0,0,0,
,-0.366,-0.097,0.775,2.136,-29.175,-5.677,0,0,0,
,-0.314,-0.044,0.76,1.586,-20.813,-49.012,0,0,0,
,-0.228,-0.014,0.785,95.031,27.648,-84.778,0,0,0,
,-0.028,0.003,0.898,168.274,74.462,-98.999,0,0,0,
,0.025,-0.017,0.912,109.253,50.964,-107.605,0,0,0,
,0.178,0.118,1.251,-1.587,95.459,-96.192,0,0,0,
,0.286,0.176,1.395,-97.474,65.002,-73.853,0,0,0,
,0.387,0.261,1.322,-178.406,9.399,-24.842,0,0,0,
,0.132,0.111,1.119,-118.348,-37.476,-8.789,0,0,0,
,0.233,0.095,1.086,-133.118,4.577,16.845,0,0,0,
,0.193,0.04,1.013,-188.172,8.667,19.714,0,0,0,
,0.126,0.105,1.012,-191.59,9.582,44.067,0,0,0,
,0.044,0.05,1.01,-157.837,18.188,45.471,0,0,0,
,-0.038,0.009,1.049,-175.965,28.381,49.56,0,0,0,
,-0.141,-0.015,1.073,-216.248,17.639,36.01,0,0,0,
,-0.157,-0.018,1.072,-270.935,3.051,22.888,0,0,0,
,-0.201,0.029,1.176,-312.134,-110.779,-8.423,0,0,0,
,-0.234,0.008,1.115,-366.394,-107.483,-20.447,0,0,0,
,-0.175,0.156,1.053,-468.262,-123.352,-24.17,0,0,0,
,-0.14,0.2,0.886,-471.253,-227.478,46.02,0,0,0,
,-0.136,0.233,0.878,-543.824,-267.273,51.391,0,0,0,
,-0.161,0.318,0.875,-528.199,-328.919,71.411,0,0,0,
,-0.228,0.357,0.874,-430.603,-381.47,48.95,0,0,0,
,-0.289,0.347,0.819,-292.42,-362.549,20.385,0,0,0,
,-0.327,0.293,0.788,-156.861,-343.995,-9.4,0,0,0,
,-0.342,0.226,0.712,-94.361,-328.309,-20.691,0,0,0,
,-0.354,0.192,0.655,-77.149,-338.44,-31.25,0,0,0,
,-0.417,0.131,0.615,-132.63,-338.379,-61.89,0,0,0,
,-0.433,0.086,0.602,-248.719,-294.678,-122.071,0,0,0,
,-0.464,0.259,0.583,-336.548,-229.92,-129.517,0,0,0,
,-0.502,0.489,0.637,-255.066,-125.306,-160.95,0,0,0,
,-0.471,0.637,0.672,25.817,32.775,-190.918,0,0,0,
,-0.4,0.552,0.703,290.161,140.38,-208.558,0,0,0,
,-0.353,0.337,0.726,441.284,150.817,-208.191,0,0,0,
,-0.379,0.167,0.802,370.483,183.654,-189.942,0,0,0,
,-0.326,0.193,0.912,204.467,231.628,-168.396,0,0,0,
,-0.227,0.327,1.06,158.569,212.585,-139.832,0,0,0,
,-0.142,0.271,1.22,242.187,96.74,-177.124,0,0,0,
,-0.115,0.171,1.215,166.565,67.26,-187.256,0,0,0,
,-0.119,0.127,1.142,29.419,56.823,-167.42,0,0,0,
,-0.131,0.14,1.072,-111.634,58.41,-149.414,0,0,0,
,-0.003,0.372,1.274,-53.284,-2.32,-129.334,0,0,0,
,-0.093,0.328,1.227,164.428,-21.912,-101.258,0,0,0,
,-0.128,0.238,1.204,276.245,-2.808,-89.417,0,0,0,
,-0.123,0.206,1.164,265.38,3.418,-59.449,0,0,0,
,-0.18,0.21,1.1,248.596,18.493,-37.354,0,0,0,
,-0.21,0.195,1.016,219.665,63.049,-25.391,0,0,0,
,-0.186,0.168,0.94,205.932,76.049,-33.509,0,0,0,
,-0.175,0.176,0.924,215.637,75.683,-26.795,0,0,0,
,-0.13,0.146,0.925,198.791,94.36,-21.607,0,0,0,
,-0.078,0.065,0.895,110.595,80.139,-0.733,0,0,0,
,-0.098,0.105,0.89,-55.664,30.7,11.108,0,0,0,
,-0.106,0.197,0.905,-127.808,19.775,8.85,0,0,0,
,-0.097,0.28,0.939,-51.88,18.432,11.474,0,0,0,
,-0.115,0.235,1.004,53.344,23.254,1.953,0,0,0,
,-0.131,0.166,0.984,107.605,19.226,-30.884,0,0,0,
,-0.117,0.071,1.039,128.906,-13.428,-40.039,0,0,0,
,-0.177,0.064,1.051,77.087,-15.748,-44.617,0,0,0,
,-0.142,0.106,1.075,34.851,-5.494,-40.284,0,0,0,
,-0.15,0.159,1.077,46.814,-18.006,-23.255,0,0,0,
,-0.168,0.169,1.083,83.618,-9.339,-6.592,0,0,0,
,-0.164,0.122,1.054,64.575,12.451,7.751,0,0,0,
,-0.129,0.107,0.997,11.718,-1.282,29.602,0,0,0,
,-0.161,0.082,0.991,-27.466,-36.622,25.695,0,0,0,
,-0.186,0.08,0.994,-59.876,-22.156,5.065,0,0,0,
,-0.187,0.142,0.988,-4.09,5.004,0.671,0,0,0,
,-0.164,0.166,1.002,81.176,18.249,-19.349,0,0,0,
,-0.136,0.135,0.992,130.859,2.99,-23.072,0,0,0,
,-0.143,0.087,0.958,92.163,-24.903,-7.569,0,0,0,
,-0.201,0.138,0.979,15.747,-20.142,5.371,0,0,0,
,-0.198,0.142,0.922,-8.484,-3.602,13,0,0,0,
,-0.219,0.148,0.934,42.785,-7.019,7.385,0,0,0,
,-0.242,0.102,0.894,88.195,6.042,4.577,0,0,0,
,-0.258,0.065,0.89,96.313,17.639,2.99,0,0,0,
,-0.287,0.061,0.959,92.712,35.583,0.366,0,0,0,
,-0.266,0.072,0.993,101.074,53.466,-9.644,0,0,0,
,-0.244,0.089,1.018,135.559,59.448,-14.344,0,0,0,
,-0.226,0.088,1.014,142.822,54.687,-11.292,0,0,0,
,-0.204,0.105,0.997,152.16,56.701,-10.01,0,0,0,
,-0.173,0.122,0.98,183.776,63.903,1.464,0,0,0,
,-0.162,0.123,0.981,221.252,63.354,12.085,0,0,0,
,-0.158,0.089,0.986,237.548,72.57,23.376,0,0,0,
,-0.155,0.063,0.987,226.684,73.547,29.907,0,0,0,
,-0.152,-0.039,1.008,222.595,67.81,6.286,0,0,0,
,-0.147,-0.103,1.012,128.784,66.589,-14.161,0,0,0,
,-0.133,-0.119,1.041,29.235,51.574,-28.687,0,0,0,
,-0.107,-0.066,1.062,-36.683,34.973,-40.65,0,0,0,
,-0.139,-0.011,1.02,-75.013,23.62,-44.19,0,0,0,
,-0.114,0.016,0.994,-82.886,21.179,-48.035,0,0,0,
,-0.12,0.029,1.002,-116.639,27.71,-42.847,0,0,0,
,-0.123,-0.003,1,-159.607,8.361,-51.27,0,0,0,
,-0.162,0.011,1.02,-193.665,8.361,-52.063,0,0,0,
,-0.188,0.076,0.999,-153.748,24.292,-67.872,0,0,0,
,-0.229,0.097,0.966,-109.314,30.273,-78.309,0,0,0,
,-0.22,0.086,0.937,-90.149,41.442,-73.365,0,0,0,
,-0.218,0.071,0.94,-101.563,34.668,-61.463,0,0,0,
,-0.193,0.108,0.968,-71.167,34.057,-50.354,0,0,0,
,-0.264,0.072,0.982,-32.227,43.396,-53.894,0,0,0,
,-0.235,0.06,0.984,-6.775,54.26,-54.81,0,0,0,
,-0.166,0.018,1.059,-26.917,62.927,-57.557,0,0,0,
,-0.133,0.089,1.037,6.897,54.565,-51.758,0,0,0,
,-0.156,-0.012,1.086,47.546,57.861,-54.505,0,0,0,
,-0.062,0.02,1.077,-36.316,45.349,-52.308,0,0,0,
,-0.077,0.041,1.019,-73.243,57.434,-76.05,0,0,0,
,0.025,0.096,1.019,-26.612,33.813,-58.289,0,0,0,
,-0.022,0.068,1.001,-21.668,28.869,-55.359,0,0,0,
,-0.017,0.089,0.957,3.845,61.767,-45.655,0,0,0,
,0.05,0.115,1.007,56.884,69.03,-27.771,0,0,0,
,0.114,0.102,1.053,52.612,70.129,-7.264,0,0,0,
,0.099,0.074,1.147,30.822,69.397,0.488,0,0,0,
,0.02,-0.001,1.197,-26.123,24.108,15.502,0,0,0,
,-0.016,0.064,1.189,-52.735,-4.029,15.625,0,0,0,
,-0.043,0.105,1.179,-62.012,-54.505,21.606,0,0,0,
,0.002,0.125,1.253,-118.287,-69.214,41.992,0,0,0,
,-0.075,0.135,0.945,-238.038,-69.764,45.288,0,0,0,
,-0.205,0.183,0.879,-136.109,-66.285,62.5,0,0,0,
,-0.237,0.019,0.806,-25.574,-25.513,50.842,0,0,0,
,-0.322,0.004,0.816,-46.082,-11.78,34.362,0,0,0,
,-0.405,0.007,0.804,-56.336,5.737,2.99,0,0,0,
,-0.473,0.006,0.806,-52.247,17.028,-21.668,0,0,0,
,-0.496,-0.045,0.849,-43.335,21.484,-40.711,0,0,0,
,-0.347,-0.012,0.924,-134.644,23.742,-33.57,0,0,0,
,-0.232,0.149,1.095,-172.181,-28.016,-26.917,0,0,0,
,-0.26,0.166,1.112,-78.125,-30.823,-36.744,0,0,0,
,-0.195,0.145,1.021,-3.54,18.859,-29.236,0,0,0,
,-0.237,0.062,0.963,35.4,20.263,-37.049,0,0,0,
,-0.191,0.078,0.959,76.477,34.179,-31.495,0,0,0,
,-0.203,0.038,0.956,102.111,41.503,-46.448,0,0,0,
,-0.148,0.042,0.967,98.755,58.776,-46.814,0,0,0,
,-0.081,0.096,0.985,95.398,76.843,-53.284,0,0,0,
,-0.016,0.098,1.037,94.604,88.989,-49.744,0,0,0,
,0.047,0.121,1.095,80.2,82.824,-40.528,0,0,0,
,0.105,0.088,1.11,58.837,73.791,-35.645,0,0,0,
,0.187,0.139,1.11,21.301,53.711,-23.011,0,0,0,
,0.112,0.02,0.995,42.175,38.513,-25.086,0,0,0,
,0.117,-0.05,0.9,2.38,61.767,-27.955,0,0,0,
,0.116,-0.01,0.911,-44.678,68.115,-28.565,0,0,0,
,0.094,0.054,1.022,-75.196,63.293,-19.959,0,0,0,
,0.04,0.083,1.177,-83.374,32.47,-7.935,0,0,0,
,-0.001,0.143,1.14,-110.718,-7.813,10.62,0,0,0,
,-0.191,0.164,1.351,-189.637,-140.992,6.53,0,0,0,
,-0.199,0.121,1.134,-218.934,-66.956,-5.31,0,0,0,
,-0.297,0.15,0.957,-232.789,-55.664,-10.193,0,0,0,
,-0.297,0.234,0.749,-160.157,-13.794,12.817,0,0,0,
,-0.53,0.073,0.688,151.733,24.414,43.335,0,0,0,
,-0.536,-0.197,1.017,168.029,27.771,12.634,0,0,0,
,-0.325,-0.086,1.267,-40.589,27.832,-2.015,0,0,0,
,-0.228,-0.004,1.252,-126.099,39.672,-38.331,0,0,0,
,-0.221,0.036,0.99,-202.637,32.898,-42.481,0,0,0,
,-0.188,0.19,0.936,-102.417,33.447,-67.994,0,0,0,
,-0.212,0.11,0.87,11.962,26.916,-83.924,0,0,0,
,-0.182,0.111,0.835,13.061,61.035,-76.355,0,0,0,
,-0.125,0.139,0.829,47.973,89.782,-71.534,0,0,0,
,-0.092,0.106,0.843,97.961,93.322,-72.449,0,0,0,
,-0.045,0.083,0.89,112.304,115.844,-72.693,0,0,0,
,0.05,0.102,0.947,125.915,130.432,-73.792,0,0,0,
,0.151,0.096,1.171,62.072,95.947,-54.749,0,0,0,
,0.15,0.072,1.228,24.841,49.682,-51.453,0,0,0,
,0.221,0.157,1.143,-9.522,13.855,-29.236,0,0,0,
,0.1,0.103,1.004,44.555,-1.221,-23.255,0,0,0,
,0.146,0.09,0.945,56.213,12.756,8.911,0,0,0,
,0.089,0.07,1.001,10.803,-37.415,44.86,0,0,0,
,0.053,0.028,1.15,-35.218,-39.063,27.893,0,0,0,
,0.089,0.036,1.236,-122.254,-40.162,11.901,0,0,0,
,0.011,0.159,1.054,-118.592,-52.124,38.757,0,0,0,
,-0.099,0.036,1.038,-63.294,-41.443,37.475,0,0,0,
,-0.125,0.06,0.967,-79.285,-45.166,58.349,0,0,0,
,-0.301,0.052,1.195,-31.617,-83.13,23.132,0,0,0,
,-0.235,0.093,1.13,-94.178,-56.336,12.39,0,0,0,
,-0.262,0.235,0.883,-140.686,12.756,53.405,0,0,0,
,-0.325,0.208,0.912,59.875,-30.701,62.5,0,0,0,
,-0.341,0.046,0.861,109.924,-5.86,60.73,0,0,0,
,-0.441,-0.053,0.78,81.543,0,48.889,0,0,0,
,-0.463,-0.186,0.906,81.909,-3.846,4.76,0,0,0,
,-0.264,0.027,1.045,-96.192,69.824,7.629,0,0,0,
,-0.246,0.21,1.138,44.128,32.043,6.103,0,0,0,
,-0.254,0.002,1.028,101.928,37.536,7.995,0,0,0,
,-0.318,-0.016,0.823,109.497,14.648,-2.625,0,0,0,
,-0.157,-0.068,0.715,148.925,83.679,-20.935,0,0,0,
,-0.222,-0.082,0.817,171.447,37.658,-54.383,0,0,0,
,-0.247,-0.178,0.815,208.252,6.836,-93.75,0,0,0,
,-0.056,-0.042,0.644,147.705,161.926,-73.487,0,0,0,
,0.157,0.165,1.15,142.089,112.487,-77.942,0,0,0,
,0.363,0.311,1.46,83.679,124.389,-56.092,0,0,0,
,0.471,0.441,1.676,89.294,28.503,-4.761,0,0,0,
,0.263,0.211,1.369,202.453,-88.013,15.991,0,0,0,
,0.158,-0.136,1.233,107.422,-26.673,42.968,0,0,0,
,0.283,-0.105,1.069,-106.995,-9.888,85.266,0,0,0,
,0.187,-0.086,1.039,-113.587,-38.575,104.675,0,0,0,
,0.13,-0.123,0.922,-95.948,-20.203,126.709,0,0,0,
,-0.097,-0.091,1.165,-99.366,-98.694,84.411,0,0,0,
,-0.099,0.068,1.04,-204.407,47.424,81.848,0,0,0,
,-0.149,0.274,0.852,-176.026,61.584,129.272,0,0,0,
,-0.338,0.149,0.934,114.135,28.137,120.117,0,0,0,
,-0.252,0.005,0.947,139.77,109.008,159.729,0,0,0,
,-0.247,0.012,1.032,43.945,84.777,170.715,0,0,0,
,-0.207,-0.034,1.068,82.275,93.75,160.461,0,0,0,
,-0.188,-0.175,1.043,53.711,71.044,135.681,0,0,0,
,-0.184,-0.247,0.986,-57.312,62.255,108.703,0,0,0,
,-0.13,-0.252,0.894,-190.979,46.081,71.594,0,0,0,
,-0.107,-0.191,0.915,-315.979,32.409,43.029,0,0,0,
,-0.072,-0.125,0.891,-452.942,10.07,29.296,0,0,0,
,-0.198,0.13,0.916,-634.034,-48.829,61.645,0,0,0,
,-0.293,0.441,0.802,-456.604,33.63,-1.343,0,0,0,
,-0.237,0.512,0.79,6.347,22.094,-64.27,0,0,0,
,-0.236,0.162,0.765,261.779,5.493,-60.12,0,0,0,
,-0.255,0.009,0.82,226.013,11.962,-46.387,0,0,0,
,-0.086,-0.002,1.081,165.405,93.566,-57.557,0,0,0,
,0.029,0.02,1.15,124.084,2.929,-109.62,0,0,0,
,-0.037,-0.006,1.204,103.698,-48.951,-153.687,0,0,0,
,0.014,-0.036,1.178,16.479,-56.824,-176.88,0,0,0,
,0.01,-0.012,1.134,-94.91,-77.942,-181.885,0,0,0,
,0.011,0.053,1.078,-158.02,-71.534,-156.617,0,0,0,
,0.033,0.137,1.075,-111.939,-48.584,-141.358,0,0,0,
,0.015,0.112,1.027,-7.63,-69.153,-152.894,0,0,0,
,0.016,-0.067,0.97,41.565,-64.515,-134.034,0,0,0,
,-0.123,-0.006,1.023,-70.313,-95.52,-120.179,0,0,0,
,-0.091,0.04,0.985,-94.727,-38.208,-86.914,0,0,0,
,-0.106,0.145,1.044,-69.642,-52.185,-84.107,0,0,0,
,-0.096,0.118,1.047,-13.001,-35.523,-99.183,0,0,0,
,-0.092,0.074,1.025,-10.071,-69.642,-99.488,0,0,0,
,-0.119,0.056,0.994,-51.88,-64.759,-95.948,0,0,0,
,-0.073,0.07,0.945,-107.605,-71.289,-83.008,0,0,0,
,-0.07,0.09,0.935,-136.78,-94.422,-65.003,0,0,0,
,-0.074,0.108,0.934,-175.293,-96.985,-46.448,0,0,0,
,-0.059,0.081,0.888,-196.717,-93.079,-33.814,0,0,0,
,-0.056,0.113,0.821,-224.305,-126.648,0.549,0,0,0,
,-0.105,0.161,0.792,-184.021,-156.861,5.554,0,0,0,
,-0.157,0.154,0.806,-106.019,-143.433,0.732,0,0,0,
,-0.19,0.162,0.859,-34.974,-102.234,-17.823,0,0,0,
,-0.228,0.142,0.913,62.988,-51.27,-54.322,0,0,0,
,-0.237,0.042,0.955,108.032,17.639,-101.258,0,0,0,
,-0.257,0.062,0.931,65.795,107.422,-71.351,0,0,0,
,-0.24,-0.052,0.933,-14.466,194.824,-122.864,0,0,0,
,-0.215,0.015,0.944,-177.491,233.703,-109.498,0,0,0,
,-0.211,0.217,0.998,-180.603,252.014,-97.107,0,0,0,
,-0.086,0.396,1.192,7.08,218.2,-121.216,0,0,0,
,-0.089,0.386,1.305,372.192,14.221,-70.069,0,0,0,
,-0.282,-0.008,1.225,389.404,15.197,-126.954,0,0,0,
,-0.271,-0.014,0.997,225.341,76.843,-136.17,0,0,0,
,-0.178,0.072,0.86,223.388,100.769,-160.096,0,0,0,
,-0.099,0.072,0.86,343.872,118.164,-81.543,0,0,0,
,-0.142,-0.02,0.897,400.024,92.407,-126.587,0,0,0,
,-0.112,-0.098,0.983,453.979,110.046,-107.3,0,0,0,
,-0.081,-0.195,1.158,395.019,112.671,-119.629,0,0,0,
,-0.081,-0.228,1.276,238.464,76.294,-145.02,0,0,0,
,-0.131,-0.164,1.34,77.209,33.325,-154.236,0,0,0,
,-0.148,-0.084,1.249,-44.007,-2.625,-162.354,0,0,0,
,-0.16,-0.027,1.112,-63.538,-14.466,-151.612,0,0,0,
,-0.137,-0.012,1.003,-37.049,-7.935,-132.996,0,0,0,
,-0.14,-0.019,0.943,3.784,10.009,-114.685,0,0,0,
,-0.133,-0.042,0.953,36.377,18.92,-120.911,0,0,0,
,-0.103,-0.055,0.973,61.584,28.869,-133.789,0,0,0,
,-0.094,-0.057,1.05,64.758,35.644,-143.372,0,0,0,
,-0.066,-0.074,1.055,73.242,25.756,-161.438,0,0,0,
,-0.108,-0.099,1.055,55.603,-6.104,-182.801,0,0,0,
,-0.122,-0.078,1.053,18.066,4.76,-195.13,0,0,0,
,-0.068,-0.032,1.077,-4.517,9.704,-200.257,0,0,0,
,-0.047,-0.048,1.114,-48.768,-7.569,-201.416,0,0,0,
,-0.001,-0.03,1.09,-181.641,-36.866,-180.603,0,0,0,
,0.005,0.05,1.003,-309.571,-87.769,-155.64,0,0,0,
,-0.03,0.237,0.902,-316.224,-139.527,-112.915,0,0,0,
,-0.068,0.424,0.979,-71.961,-197.937,-95.52,0,0,0,
,-0.149,0.328,1.079,63.415,-261.963,-5.372,0,0,0,
,-0.295,0.274,1.062,142.944,-234.803,72.021,0,0,0,
,-0.291,0.075,0.973,114.441,-183.96,147.461,0,0,0,
,-0.321,0.065,0.85,-17.884,-129.456,240.417,0,0,0,
,-0.324,0.061,0.756,-63.843,-87.281,271.911,0,0,0,
,-0.315,0.034,0.69,-33.326,-14.832,295.715,0,0,0,
,-0.293,0.022,0.775,117.004,61.523,283.02,0,0,0,
,-0.208,-0.044,0.884,252.014,126.403,252.624,0,0,0,
,-0.135,-0.126,1.022,259.155,150.146,220.703,0,0,0,
,0.031,-0.098,1.328,272.4,109.436,195.068,0,0,0,
,-0.01,-0.146,1.25,247.192,47.241,132.568,0,0,0,
,-0.05,-0.196,1.156,156.921,23.498,86.853,0,0,0,
,-0.007,-0.109,1.131,52.734,21.789,43.335,0,0,0,
,0.001,-0.052,1.151,41.626,42.114,37.719,0,0,0,
,-0.007,-0.063,1.037,53.222,74.768,24.658,0,0,0,
,0.081,-0.199,0.934,54.809,57.8,19.836,0,0,0,
,0.036,-0.147,0.811,-60.364,-23.438,17.273,0,0,0,
,-0.005,0.008,0.907,-168.03,-43.213,1.281,0,0,0,
,0.008,0.146,0.908,79.589,13.122,-17.212,0,0,0,
,0.058,-0.088,0.995,267.883,38.452,-48.584,0,0,0,
,0.069,-0.212,1.088,110.534,-6.165,-11.536,0,0,0,
,-0.064,-0.1,1.109,-22.095,-44.861,-37.049,0,0,0,
,-0.077,-0.118,1.048,-49.378,-38.269,-39.063,0,0,0,
,-0.129,-0.064,0.999,-8.118,-51.575,-54.688,0,0,0,
,-0.15,-0.14,1.002,81.848,-19.288,-79.895,0,0,0,
,-0.148,-0.146,1.036,41.87,-13.916,-48.279,0,0,0,
,-0.157,-0.122,1.06,12.817,4.882,-28.382,0,0,0,
,-0.161,-0.126,1.001,-13.55,-0.733,2.868,0,0,0,
,-0.154,-0.093,1.01,-34.058,-21.241,-20.691,0,0,0,
,-0.191,-0.108,0.946,13.305,11.169,-17.64,0,0,0,
,-0.17,-0.062,0.961,57.861,14.587,-9.705,0,0,0,
,-0.171,-0.049,0.998,102.478,13.488,-5.31,0,0,0,
,-0.151,-0.032,1.002,140.258,-0.733,15.319,0,0,0,
,-0.16,-0.059,0.996,171.753,-5.066,37.109,0,0,0,
,-0.133,-0.145,0.985,196.472,0.122,44.616,0,0,0,
,-0.095,-0.238,0.995,179.992,5.127,38.879,0,0,0,
,-0.126,-0.281,1.002,118.957,9.033,23.681,0,0,0,
,-0.14,-0.325,1.008,18.249,11.352,1.525,0,0,0,
,-0.146,-0.256,1.022,-99.732,13.244,-21.729,0,0,0,
,-0.153,-0.146,1.008,-120.545,28.381,-37.171,0,0,0,
,-0.168,-0.112,0.98,-106.568,28.808,-38.453,0,0,0,
,-0.157,-0.07,0.974,-76.722,20.629,-23.255,0,0,0,
,-0.164,-0.014,1.001,-3.602,29.113,-21.363,0,0,0,
,-0.166,-0.049,1.044,57.373,25.329,-13.184,0,0,0,
,-0.172,-0.156,1.017,53.772,23.193,-6.592,0,0,0,
,-0.202,-0.174,0.96,-41.932,14.709,-10.132,0,0,0,
,-0.193,-0.102,0.884,-10.254,43.029,-19.593,0,0,0,
,-0.191,-0.106,0.863,72.326,31.738,-38.269,0,0,0,
,-0.213,-0.125,0.879,171.508,61.218,-58.533,0,0,0,
,-0.18,-0.191,0.956,179.809,81.97,-64.087,0,0,0,
,-0.137,-0.23,0.978,117.248,84.533,-70.923,0,0,0,
,-0.076,-0.213,0.991,12.756,98.205,-70.801,0,0,0,
,0.058,-0.073,1.378,-38.575,58.715,-63.355,0,0,0,
,0.149,-0.067,1.288,84.655,-0.306,-57.557,0,0,0,
,0.034,-0.29,0.942,-54.993,3.54,-58.167,0,0,0,
,0.049,-0.163,0.87,-103.76,7.995,-34.668,0,0,0,
,0.029,-0.288,0.978,21.728,17.883,-58.411,0,0,0,
,0.013,-0.348,1.093,-59.632,14.709,-62.989,0,0,0,
,-0.03,-0.24,1.104,-164.917,8.178,-60.425,0,0,0,
,-0.029,-0.129,1.159,-160.828,-6.653,-37.171,0,0,0,
,-0.071,-0.115,1.109,-103.394,-20.569,-24.964,0,0,0,
,-0.065,-0.103,1.063,-92.835,-14.893,-7.325,0,0,0,
,0,-0.04,1.087,-103.638,-5.555,14.038,0,0,0,
,-0.033,-0.035,0.978,-59.449,-20.203,28.991,0,0,0,
,-0.09,-0.096,0.937,65.551,-7.081,34.179,0,0,0,
,-0.229,-0.167,0.852,84.655,8.972,42.053,0,0,0,
,-0.341,-0.18,0.948,106.567,5.981,41.076,0,0,0,
,-0.383,-0.31,0.951,102.295,28.259,25.94,0,0,0,
,-0.344,-0.252,0.992,48.523,67.138,30.761,0,0,0,
,-0.279,-0.204,1.037,29.357,56.823,42.724,0,0,0,
,-0.228,-0.143,1.035,34.24,36.254,55.236,0,0,0,
,-0.177,-0.193,1.061,76.782,10.253,46.264,0,0,0,
,-0.183,-0.154,1.042,23.315,-1.954,51.574,0,0,0,
,-0.121,-0.122,1.008,71.411,4.699,51.513,0,0,0,
,-0.118,-0.144,1.02,107.544,-1.16,40.222,0,0,0,
,-0.112,-0.263,0.888,101.013,5.371,28.015,0,0,0,
,-0.151,-0.326,0.854,25.146,19.226,-4.456,0,0,0,
,-0.077,-0.331,0.815,-72.388,52.551,-38.025,0,0,0,
,-0.04,-0.269,0.912,-141.907,71.35,-64.942,0,0,0,
,0.091,-0.182,1.07,-209.778,74.951,-86.365,0,0,0,
,0.236,-0.079,1.266,-267.212,60.058,-89.783,0,0,0,
,0.215,-0.032,1.237,-277.405,-22.461,-66.773,0,0,0,
,0.101,-0.144,1.093,-208.68,-32.471,-56.519,0,0,0,
,0.086,-0.201,0.944,-275.025,-42.969,-50.171,0,0,0,
,0.069,-0.103,0.893,-322.998,-18.677,-62.195,0,0,0,
,0.064,-0.035,0.976,-312.623,-16.724,-69.581,0,0,0,
,0.08,0.083,1.032,-290.039,10.437,-30.152,0,0,0,
,-0.038,0.08,1.036,-214.234,-26.368,-7.325,0,0,0,
,-0.123,-0.008,1.033,-112,-16.48,10.315,0,0,0,
,-0.242,-0.062,0.945,-92.225,-27.161,2.685,0,0,0,
,-0.39,-0.1,0.853,-60.914,-11.353,-5.249,0,0,0,
,-0.502,-0.162,0.794,-16.541,2.258,-15.015,0,0,0,
,-0.547,-0.196,0.858,21.728,3.051,-39.917,0,0,0,
,-0.406,-0.235,0.978,-35.523,15.014,-58.96,0,0,0,
,-0.279,-0.029,1.147,-86.976,0.976,-47.486,0,0,0,
,-0.192,-0.023,1.12,-17.273,-14.466,-40.528,0,0,0,
,-0.275,-0.086,1.074,48.461,20.996,-39.185,0,0,0,
,-0.135,-0.109,0.92,68.847,48.278,-19.959,0,0,0,
,-0.117,-0.167,0.908,99.06,80.749,-37.049,0,0,0,
,-0.047,-0.161,0.968,93.933,96.923,-56.946,0,0,0,
,0.137,-0.143,0.98,47.546,109.314,-52.979,0,0,0,
,0.187,-0.149,1.109,25.512,111.694,-54.627,0,0,0,
,0.228,-0.066,1.095,-35.828,51.147,-41.443,0,0,0,
,0.209,-0.023,1.143,6.347,76.477,-22.644,0,0,0,
,-0.024,-0.068,1.004,43.273,33.386,-13.428,0,0,0,
,0.004,-0.013,0.922,102.05,75.5,33.813,0,0,0,
,0.056,-0.053,0.953,133.056,89.172,55.114,0,0,0,
,0.087,-0.068,0.986,127.685,87.402,76.538,0,0,0,
,0.047,-0.134,1.017,113.586,73.181,81.787,0,0,0,
,0.028,-0.134,1.073,105.041,61.462,82.58,0,0,0,
,-0.038,-0.181,1.097,95.825,34.606,58.532,0,0,0,
,-0.036,-0.109,1.182,2.929,24.231,54.809,0,0,0,
,-0.089,-0.018,1.087,-24.414,-4.151,31.921,0,0,0,
,-0.198,-0.029,0.949,58.593,-5.616,31.982,0,0,0,
,-0.253,-0.08,0.839,83.923,0.915,51.452,0,0,0,
,-0.379,-0.171,0.665,129.455,8.85,48.645,0,0,0,
,-0.414,-0.256,0.872,177.612,42.663,29.174,0,0,0,
,-0.235,-0.165,1.107,116.577,78.247,18.005,0,0,0,
,-0.182,-0.128,1.241,133.484,42.846,17.944,0,0,0,
,-0.194,-0.268,1.156,108.825,17.15,0.854,0,0,0,
,-0.236,-0.358,0.948,38.513,20.324,-18.067,0,0,0,
,-0.128,-0.299,0.816,-12.879,65.124,-50.66,0,0,0,
,-0.194,-0.222,0.772,-22.278,90.454,-70.618,0,0,0,
,0.027,0.066,0.58,1.098,136.535,-16.053,0,0,0,
,-0.11,-0.079,0.618,275.512,67.199,-35.889,0,0,0,
,0.297,-0.147,1.161,238.769,213.44,-18.433,0,0,0,
,0.255,-0.061,1.243,150.879,83.923,-43.091,0,0,0,
,0.346,-0.216,1.42,136.352,50.598,-33.57,0,0,0,
,0.369,-0.257,1.312,-31.006,-0.123,-49.317,0,0,0,
,0.045,-0.43,1.049,-68.848,-31.8,-67.139,0,0,0,
,0.156,-0.296,0.86,-152.649,-17.701,-49.134,0,0,0,
,0.186,-0.197,0.976,-93.445,26.672,-12.513,0,0,0,
,0.258,-0.116,1.143,-96.436,24.292,32.47,0,0,0,
,0.129,-0.111,1.127,-23.011,-20.63,62.866,0,0,0,
,0.106,-0.211,1.044,5.798,20.996,73.73,0,0,0,
,0.028,-0.161,1.029,-32.41,6.103,71.655,0,0,0,
,-0.042,-0.153,1.02,-17.212,20.874,73.242,0,0,0,
,-0.136,-0.159,1.278,71.35,-96.619,73.303,0,0,0,
,-0.114,-0.305,0.931,-81.177,102.417,45.959,0,0,0,
,-0.146,-0.051,0.922,-84.717,18.615,48.461,0,0,0,
,-0.106,-0.232,1,31.311,22.094,51.33,0,0,0,
,-0.19,-0.278,1.03,-44.19,-6.897,30.029,0,0,0,
,-0.323,-0.313,1.016,-80.689,-29.175,-6.592,0,0,0,
,-0.449,-0.446,0.889,-136.048,-57.007,-51.331,0,0,0,
,-0.535,-0.416,0.861,-170.655,-45.289,-99.366,0,0,0,
,-0.125,-0.203,1.095,-210.877,15.014,-137.879,0,0,0,
,-0.173,-0.061,1.019,-212.647,-49.622,-128.785,0,0,0,
,-0.293,-0.106,0.696,-112.793,-56.702,-115.906,0,0,0,
,-0.147,-0.126,0.602,-15.564,20.813,-103.882,0,0,0,
,-0.122,-0.056,0.529,45.471,24.902,-102.662,0,0,0,
,0.082,-0.054,0.679,164.367,91.98,-84.351,0,0,0,
,0.21,-0.056,0.988,219.848,114.502,-74.158,0,0,0,
,0.348,0.003,1.266,252.136,97.9,-50.782,0,0,0,
,0.47,-0.042,1.46,200.073,66.955,-35.035,0,0,0,
,0.35,-0.137,1.322,279.602,-130.127,30.334,0,0,0,
,0.14,-0.479,1.315,179.199,49.377,-6.348,0,0,0,
,0.245,-0.254,1.099,-42.298,-108.277,30.7,0,0,0,
,0.216,-0.3,0.869,-63.599,29.235,82.58,0,0,0,
,0.155,-0.328,0.814,-10.132,0.244,99.487,0,0,0,
,0.072,-0.358,0.828,16.479,32.226,110.351,0,0,0,
,-0.098,-0.413,0.87,19.592,55.542,86.731,0,0,0,
,-0.246,-0.419,1.074,-22.095,76.965,51.33,0,0,0,
,-0.198,-0.393,1.212,-132.325,122.07,21.606,0,0,0,
,-0.19,-0.277,1.26,-236.634,83.313,1.525,0,0,0,
,-0.123,-0.164,1.099,-304.749,102.05,10.925,0,0,0,
,-0.148,-0.066,1.063,-267.395,51.147,17.211,0,0,0,
,-0.129,-0.058,0.915,-220.276,38.635,30.517,0,0,0,
,-0.176,-0.049,0.879,-117.31,-14.527,34.729,0,0,0,
,-0.193,-0.123,0.792,-71.473,2.685,26.794,0,0,0,
,-0.203,-0.161,0.785,-64.27,13.183,3.173,0,0,0,
,-0.049,-0.149,0.96,-92.957,55.969,-23.621,0,0,0,
,0.087,-0.175,1.062,-118.409,33.63,-55.664,0,0,0,
,0.131,-0.175,1.049,-179.688,-0.489,-81.299,0,0,0,
,0.075,-0.218,1.059,-240.113,-38.331,-107.972,0,0,0,
,0.168,-0.248,1.081,-350.525,-18.006,-120.118,0,0,0,
,0.202,-0.291,1.051,-498.475,-56.519,-136.963,0,0,0,
,0.167,-0.317,1.084,-650.33,-81.849,-166.748,0,0,0,
,0.188,-0.272,1.042,-744.873,-74.219,-213.501,0,0,0,
,0.166,-0.226,1.01,-831.116,-99.915,-242.92,0,0,0,
,0.151,-0.14,0.97,-959.351,-139.527,-233.826,0,0,0,
,0.025,-0.133,0.924,-1120.545,-193.36,-222.352,0,0,0,
,-0.047,0.068,0.915,-1211.731,-202.393,-210.572,0,0,0,
,-0.072,0.407,0.892,-1057.19,-203.186,-215.394,0,0,0,
,-0.046,0.517,0.844,-789.063,-158.143,-256.714,0,0,0,
,-0.013,0.522,0.795,-469.239,-186.158,-232.422,0,0,0,
,-0.055,0.362,0.852,-290.711,-287.049,-248.108,0,0,0,
,-0.129,0.276,0.967,-320.13,-356.141,-246.582,0,0,0,
,-0.253,0.245,0.917,-473.755,-368.653,-217.102,0,0,0,
,-0.329,0.31,1.003,-595.52,-365.113,-245.789,0,0,0,
,-0.308,0.348,0.837,-706.604,-302.247,-149.048,0,0,0,
,-0.345,0.445,0.694,-718.995,-324.83,-92.041,0,0,0,
,-0.405,0.482,0.6,-667.115,-319.947,-20.874,0,0,0,
,-0.478,0.552,0.612,-505.433,-284.363,32.714,0,0,0,
,-0.523,0.563,0.639,-289.856,-211.792,59.936,0,0,0,
,-0.534,0.531,0.714,-19.288,-89.966,71.777,0,0,0,
,-0.459,0.447,0.775,145.08,35.4,72.204,0,0,0,
,-0.353,0.416,0.853,203.308,112.426,72.998,0,0,0,
,-0.284,0.351,0.85,282.165,139.526,60.363,0,0,0,
,-0.271,0.386,0.872,394.409,119.812,67.26,0,0,0,
,-0.272,0.498,0.942,610.534,120.849,59.997,0,0,0,
,-0.235,0.494,1.01,917.358,176.269,26.489,0,0,0,
,-0.121,0.242,1.061,1096.313,164.428,-31.922,0,0,0,
,-0.122,0.074,1.11,1018.31,102.6,-26.185,0,0,0,
,-0.145,0,1.143,803.1,80.566,-26.795,0,0,0,
,-0.134,0.021,1.173,643.493,96.74,-15.32,0,0,0,
,-0.073,0.12,1.104,605.102,74.218,-17.701,0,0,0,
,-0.068,0.08,1.101,617.736,70.495,-5.127,0,0,0,
,-0.014,-0.084,1.108,520.507,73.425,1.77,0,0,0,
,0.018,-0.157,1.053,246.765,52.795,14.404,0,0,0,
,-0.007,-0.062,1.016,23.193,47.912,29.357,0,0,0,
,-0.035,0.032,1.026,-48.096,70.495,24.963,0,0,0,
,0.002,0.126,1.042,29.541,95.886,6.164,0,0,0,
,0.022,0.098,1.009,143.737,106.445,-9.217,0,0,0,
,0.06,0.021,0.988,198.486,74.401,-12.818,0,0,0,
,-0.015,-0.09,1.057,164.001,3.479,-14.405,0,0,0,
,-0.036,-0.094,1.072,-2.564,1.953,-0.55,0,0,0,
,-0.068,-0.006,1.021,-83.558,1.586,-2.198,0,0,0,
,-0.092,0.065,1.002,-28.687,19.592,8.728,0,0,0,
,-0.128,0.075,0.998,50.048,20.507,-2.503,0,0,0,
,-0.119,0.016,1.002,80.444,27.648,14.77,0,0,0,
,-0.107,-0.011,1.004,0.976,23.925,38.513,0,0,0,
,-0.121,0.034,1.017,-99.488,12.878,49.987,0,0,0,
,-0.11,0.093,1.003,-90.027,23.132,54.199,0,0,0,
,-0.118,0.095,0.981,14.099,18.493,36.132,0,0,0,
,-0.13,0.03,0.98,107.544,6.408,18.31,0,0,0,
,-0.158,-0.047,1.002,126.281,16.967,2.441,0,0,0,
,-0.174,-0.091,1.022,77.819,24.231,-21.729,0,0,0,
,-0.159,-0.055,1.016,73.242,22.277,-44.129,0,0,0,
,-0.163,-0.06,1.05,49.987,1.709,-61.28,0,0,0,
,-0.096,-0.023,1.007,4.577,0.732,-61.402,0,0,0,
,-0.089,0.035,0.975,-4.761,-9.217,-41.993,0,0,0,
,-0.069,0.036,0.971,25.329,5.981,-26.062,0,0,0,
,-0.045,0.007,0.973,22.399,-5.616,-30.762,0,0,0,
,-0.065,-0.019,0.98,6.164,5.371,-37.964,0,0,0,
,-0.067,-0.032,0.971,6.164,4.638,-51.514,0,0,0,
,-0.089,-0.018,0.964,15.197,-7.874,-67.078,0,0,0,
,-0.077,0.009,1.064,79.773,-29.419,-131.104,0,0,0,
,-0.13,-0.113,1.058,87.463,-1.831,-88.685,0,0,0,
,-0.179,-0.059,1.079,-61.158,-3.602,-74.769,0,0,0,
,-0.194,0,1.069,-76.6,-4.334,-49.866,0,0,0,
,-0.207,-0.04,1.029,-61.341,10.192,-41.138,0,0,0,
,-0.205,-0.002,1.021,-44.922,22.705,-23.987,0,0,0,
,-0.172,-0.052,1.01,-16.114,45.837,-38.819,0,0,0,
,-0.162,-0.048,1.012,-34.119,40.222,-35.34,0,0,0,
,-0.12,0.051,1.012,-13.367,42.48,-17.212,0,0,0,
,-0.125,0.052,1.002,37.17,25.878,-14.649,0,0,0,
,-0.1,0.035,0.998,62.683,36.071,0.305,0,0,0,
,-0.104,0.028,1.012,88.684,42.541,-10.132,0,0,0,
,-0.101,-0.014,1.024,102.966,52.734,-13.855,0,0,0,
,-0.097,-0.016,1.051,87.768,45.898,-14.1,0,0,0,
,-0.082,-0.026,1.037,73.486,35.522,-11.78,0,0,0,
,-0.097,-0.02,1.015,43.029,22.827,-10.682,0,0,0,
,-0.094,-0.006,0.995,29.357,23.742,-4.883,0,0,0,
,-0.094,0.005,0.966,34.24,17.944,0.671,0,0,0,
,-0.107,0.029,0.958,94.177,18.554,-2.991,0,0,0,
,-0.123,0.033,0.994,179.626,32.165,-0.489,0,0,0,
,-0.128,-0.039,1.041,248.718,36.377,0.61,0,0,0,
,-0.166,-0.135,1.076,224.121,17.822,-4.517,0,0,0,
,-0.166,-0.175,1.102,120.056,20.752,4.943,0,0,0,
,-0.204,-0.155,1.04,33.935,-4.578,3.173,0,0,0,
,-0.114,-0.126,1.007,-99.915,-82.764,7.568,0,0,0,
,-0.062,-0.105,0.947,-245.057,-70.435,48.156,0,0,0,
,-0.135,0.088,0.984,-142.151,-103.211,77.819,0,0,0,
,-0.197,-0.124,0.866,53.772,-49.378,60.607,0,0,0,
,-0.158,-0.136,0.933,-51.087,-47.425,57.19,0,0,0,
,-0.21,-0.066,1.009,-16.602,-5.982,43.762,0,0,0,
,-0.147,-0.101,1.045,17.456,16.357,28.747,0,0,0,
,-0.129,-0.109,1.061,-47.059,12.268,22.277,0,0,0,
,-0.106,-0.089,0.976,-75.44,9.338,5.981,0,0,0,
,-0.107,-0.09,0.849,-64.576,28.991,-8.545,0,0,0,
,-0.077,-0.017,0.885,-31.434,45.837,-2.564,0,0,0,
,-0.033,0.028,0.94,46.691,54.382,7.08,0,0,0,
,-0.082,0.03,1.001,106.506,57.251,25.756,0,0,0,
,-0.086,-0.036,1.045,145.63,62.133,34.484,0,0,0,
,-0.092,-0.163,1.066,95.153,58.96,34.606,0,0,0,
,-0.108,-0.198,1.05,-4.7,31.25,11.535,0,0,0,
,-0.127,-0.201,1.033,-51.087,25.268,-20.997,0,0,0,
,-0.153,-0.15,1.043,-96.436,23.742,-35.462,0,0,0,
,-0.145,-0.114,1.017,-114.136,29.296,-54.261,0,0,0,
,-0.139,-0.094,0.978,-122.986,40.222,-48.523,0,0,0,
,-0.086,-0.106,0.919,-156.311,37.353,-42.481,0,0,0,
,-0.081,-0.083,0.957,-166.687,46.875,-49.866,0,0,0,
,-0.031,-0.093,0.983,-179.688,45.471,-60.73,0,0,0,
,-0.028,-0.078,0.997,-208.435,35.156,-80.445,0,0,0,
,-0.019,-0.055,0.948,-207.398,54.26,-78.37,0,0,0,
,0.02,0.016,0.959,-200.806,59.082,-89.661,0,0,0,
,0.074,0.146,1.046,-132.63,57.434,-65.613,0,0,0,
,0.113,0.205,1.129,-29.297,29.602,-34.485,0,0,0,
,0.035,0.124,1.125,9.948,3.418,-5.31,0,0,0,
,0.018,0.044,1.083,22.155,8.789,19.714,0,0,0,
,0.005,-0.016,1.081,32.165,1.525,33.203,0,0,0,
,-0.025,-0.149,1.105,-19.837,-2.137,32.287,0,0,0,
,-0.046,-0.144,1.15,-133.179,-17.579,41.32,0,0,0,
,-0.074,-0.119,1.144,-219.056,-43.213,3.845,0,0,0,
,-0.146,-0.003,1.116,-307.74,-56.885,-6.958,0,0,0,
,-0.171,0.12,1,-308.472,-37.659,-11.048,0,0,0,
,-0.207,0.183,0.869,-212.159,-30.213,-0.245,0,0,0,
,-0.27,0.148,0.763,-103.638,-36.194,3.54,0,0,0,
,-0.379,0.049,0.653,0.549,-10.315,10.925,0,0,0,
,-0.461,-0.133,0.609,112.671,26.245,-11.719,0,0,0,
,-0.364,-0.095,0.826,125.793,112.854,-9.522,0,0,0,
,-0.188,0.03,1.122,134.887,119.14,-0.061,0,0,0,
,-0.133,0.101,1.296,150.207,56.396,-0.55,0,0,0,
,-0.174,0.011,1.266,118.896,18.554,-10.01,0,0,0,
,-0.153,-0.05,1.122,25.329,-3.357,-13.245,0,0,0,
,-0.13,-0.08,1.034,-24.476,7.324,-45.35,0,0,0,
,-0.167,-0.166,0.86,19.165,-15.198,-86.67,0,0,0,
,-0.06,-0.118,0.854,26.184,64.27,-89.844,0,0,0,
,0.048,-0.003,0.919,46.203,81.909,-113.587,0,0,0,
,0.136,0.051,1.109,46.752,68.908,-125.245,0,0,0,
,0.261,0.238,1.394,-12.269,49.377,-81.116,0,0,0,
,0.228,0.181,1.246,6.713,-13.55,-59.754,0,0,0,
,0.06,-0.004,1.039,26.55,-8.423,-28.992,0,0,0,
,0.057,-0.165,0.886,-4.09,31.982,-17.09,0,0,0,
,0.046,-0.175,0.922,-79.529,11.535,-16.297,0,0,0,
,0.039,-0.132,1.003,-143.006,-6.714,-22.4,0,0,0,
,-0.009,-0.025,1.079,-193.726,-42.969,-44.983,0,0,0,
,-0.023,0.104,1.144,-285.828,-35.401,-25.391,0,0,0,
,-0.063,0.206,1.075,-244.629,-78.309,-14.649,0,0,0,
,-0.198,0.21,0.976,-93.567,-33.081,19.836,0,0,0,
,-0.239,0.11,0.869,-16.48,-35.34,46.447,0,0,0,
,-0.336,-0.002,0.804,37.17,-26.917,55.419,0,0,0,
,-0.401,-0.11,0.69,66.467,-6.592,49.865,0,0,0,
,-0.503,-0.282,0.795,41.442,6.774,-11.536,0,0,0,
,-0.362,-0.149,1.01,-80.628,57.861,-30.03,0,0,0,
,-0.213,0.078,1.242,-107.911,47.363,-26.49,0,0,0,
,-0.139,0.151,1.339,-54.017,-1.465,-11.78,0,0,0,
,-0.141,0.118,1.183,-9.827,-19.898,-19.349,0,0,0,
,-0.118,-0.013,1.072,17.028,-28.748,-49.683,0,0,0,
,-0.18,-0.092,0.759,31.066,-33.204,-67.627,0,0,0,
,-0.159,-0.128,0.639,77.941,27.771,-68.177,0,0,0,
,-0.148,-0.134,0.687,58.044,66.162,-91.797,0,0,0,
,0.03,-0.059,0.775,39.611,116.394,-78.858,0,0,0,
,0.119,0.011,1.035,9.338,123.291,-78.003,0,0,0,
,0.322,0.146,1.318,-69.947,98.144,-71.839,0,0,0,
,0.401,0.264,1.48,-149.537,47.424,-55.542,0,0,0,
,0.186,0.135,1.16,-89.844,-51.209,-39.124,0,0,0,
,0.017,-0.022,0.89,-21.363,20.935,-15.564,0,0,0,
,0.086,-0.041,0.876,-27.649,41.992,14.343,0,0,0,
,0.083,-0.014,1,-38.147,47.485,23.437,0,0,0,
,0.055,0.049,1.165,-32.776,41.198,13.244,0,0,0,
,-0.032,0.057,1.211,-45.716,39.794,-14.893,0,0,0,
,-0.01,0.196,1.164,-191.04,-14.527,18.066,0,0,0,
,-0.192,0.152,1.067,-125.916,-43.702,-3.663,0,0,0,
,-0.267,-0.035,0.838,-130.31,-25.086,-36.805,0,0,0,
,-0.438,0.013,0.709,-127.625,10.192,-52.613,0,0,0,
,-0.463,0.003,0.623,-32.776,43.457,-54.078,0,0,0,
,-0.466,-0.074,0.883,77.331,30.517,-54.871,0,0,0,
,-0.272,0.093,1.168,79.162,60.241,-39.978,0,0,0,
,-0.248,0.074,1.307,30.212,22.888,-42.542,0,0,0,
,-0.197,0.032,1.247,-51.026,-32.776,-32.837,0,0,0,
,-0.235,0.001,1.057,-59.693,-62.378,-50.599,0,0,0,
,-0.151,-0.023,1.028,-47.791,-51.819,-54.383,0,0,0,
,-0.209,-0.056,0.838,-27.344,-24.781,-77.759,0,0,0,
,-0.112,-0.075,0.747,67.81,48.339,-74.28,0,0,0,
,-0.025,-0.043,0.79,69.03,88.317,-88.562,0,0,0,
,0.041,0.01,0.861,86.242,113.342,-85.511,0,0,0,
,0.163,0.082,1.047,62.316,134.033,-75.074,0,0,0,
,0.212,0.234,0.947,56.823,114.135,-29.358,0,0,0,
,0.181,0.102,1.166,131.286,72.021,-23.926,0,0,0,
,0.331,0.159,1.166,47.729,51.513,6.347,0,0,0,
,0.055,0.004,1.149,148.681,2.563,-12.024,0,0,0,
,0.177,-0.079,1.01,124.084,18.737,-13.489,0,0,0,
,0.161,0.052,1.069,55.114,-31.8,-19.593,0,0,0,
,0.17,0.093,1.217,28.137,-60.791,-35.523,0,0,0,
,0.203,0.275,1.026,-138.55,-68.299,9.094,0,0,0,
,-0.016,0.265,0.991,-45.594,-126.404,38.94,0,0,0,
,-0.088,-0.005,0.839,34.851,-46.509,38.635,0,0,0,
,-0.254,-0.04,0.856,13.305,-52.735,37.414,0,0,0,
,-0.3,-0.117,0.859,36.071,3.356,35.034,0,0,0,
,-0.389,-0.231,0.871,-0.123,11.535,12.756,0,0,0,
,-0.499,-0.315,0.866,-98.145,25.146,-17.579,0,0,0,
,-0.575,-0.252,0.994,-115.235,-5.86,-50.293,0,0,0,
,-0.252,0.078,1.544,-86.426,-7.935,-40.65,0,0,0,
,-0.474,-0.165,1.29,-215.088,-16.358,-98.572,0,0,0,
,-0.307,0.001,0.961,-257.203,2.746,-67.139,0,0,0,
,-0.284,0.119,0.967,-100.831,29.846,-83.252,0,0,0,
,-0.242,0,0.833,3.356,50.293,-83.985,0,0,0,
,-0.225,0.095,0.354,86.059,67.871,-26.917,0,0,0,
,-0.187,-0.057,0.674,205.566,90.148,-42.603,0,0,0,
,0.092,-0.027,0.789,219.177,123.169,-41.81,0,0,0,
,0.138,0.137,1.033,234.253,121.154,-31.067,0,0,0,
,0.3,0.139,1.321,251.281,100.83,-28.26,0,0,0,
,0.384,0.127,1.531,100.586,28.808,-22.217,0,0,0,
,0.395,0.113,1.298,-19.227,4.028,3.356,0,0,0,
,0.088,-0.15,1.057,7.141,-55.664,-2.442,0,0,0,
,0.096,-0.214,0.801,-6.47,7.69,11.596,0,0,0,
,0.208,-0.136,1.236,-30.884,20.996,17.273,0,0,0,
,0.315,0.105,1.095,-101.746,6.652,53.039,0,0,0,
,0.182,0.129,1.194,-49.744,-2.991,77.758,0,0,0,
,0.198,0.115,1.145,-82.154,-5.921,76.843,0,0,0,
,0.012,0.161,1.085,-71.717,-24.964,82.153,0,0,0,
,-0.146,0.03,0.846,30.822,-4.578,91.796,0,0,0,
,-0.318,-0.126,0.826,45.288,12.756,81.787,0,0,0,
,-0.35,-0.115,0.817,19.958,50.781,87.951,0,0,0,
,-0.394,-0.101,0.963,41.687,58.715,88.745,0,0,0,
,-0.386,-0.124,1.012,44.433,78.796,78.979,0,0,0,
,-0.359,-0.159,1.03,-10.498,61.279,62.988,0,0,0,
,-0.37,-0.138,1.102,-38.697,28.076,24.292,0,0,0,
,-0.204,-0.066,1.136,-119.202,27.71,13.855,0,0,0,
,-0.249,-0.011,1.115,-172.608,-31.189,-6.531,0,0,0,
,-0.216,-0.106,0.958,-122.01,-18.372,-23.682,0,0,0,
,0.003,0.011,0.846,-164.795,6.408,-19.165,0,0,0,
,-0.066,-0.068,0.772,-123.352,-25.147,-84.351,0,0,0,
,0.088,0.034,0.773,-65.064,19.165,-87.83,0,0,0,
,0.149,0.152,0.83,-5.494,6.164,-67.505,0,0,0,
,0.268,0.227,1.032,92.041,43.945,-32.288,0,0,0,
,0.337,0.2,1.048,133.056,54.382,14.099,0,0,0,
,0.137,-0.005,1.088,139.831,0.549,19.165,0,0,0,
,0.163,-0.058,1.367,74.768,20.446,12.451,0,0,0,
,0.225,-0.009,1.214,-39.551,14.404,2.075,0,0,0,
,0.085,0.014,1.223,-81.604,-18.677,37.78,0,0,0,
,0.027,-0.078,1.166,-42.42,-42.359,50.72,0,0,0,
,-0.154,-0.22,1.139,-92.652,-20.691,18.92,0,0,0,
,-0.176,-0.189,1.066,-138.794,-23.987,-23.377,0,0,0,
,-0.246,-0.144,1.052,-118.958,-41.993,-74.524,0,0,0,
,-0.191,-0.17,1.045,-171.082,-33.02,-132.264,0,0,0,
,-0.12,-0.011,0.922,-307.312,10.376,-165.772,0,0,0,
,-0.086,0.205,0.861,-178.528,-46.265,-130.494,0,0,0,
,-0.146,0.138,0.931,-12.207,-44.19,-136.292,0,0,0,
,-0.053,0.045,1.001,63.476,-30.945,-145.325,0,0,0,
,-0.015,-0.036,1.048,1.281,-102.173,-156.067,0,0,0,
,-0.053,-0.023,1.068,-135.315,-148.926,-160.523,0,0,0,
,-0.052,0.049,0.974,-264.527,-178.345,-152.955,0,0,0,
,-0.084,0.168,0.944,-276.551,-292.725,-130.188,0,0,0,
,-0.174,0.267,0.935,-194.519,-378.663,-113.099,0,0,0,
,-0.214,0.266,0.898,-68.177,-411.988,-110.108,0,0,0,
,-0.273,0.217,0.876,65.918,-424.744,-123.963,0,0,0,
,-0.319,0.124,0.866,138.122,-402.161,-131.348,0,0,0,
,-0.343,0.028,0.851,146.667,-349.488,-139.405,0,0,0,
,-0.348,-0.055,0.785,78.552,-282.776,-122.742,0,0,0,
,-0.343,-0.096,0.718,7.69,-222.474,-78.614,0,0,0,
,-0.333,-0.095,0.682,-62.012,-168.274,-15.198,0,0,0,
,-0.363,-0.055,0.731,-154.908,-102.478,8.239,0,0,0,
,-0.363,0.016,0.806,-243.348,-0.428,7.995,0,0,0,
,-0.348,0.074,0.885,-240.601,86.792,2.258,0,0,0,
,-0.305,0.129,1.007,-164.978,155.944,-5.677,0,0,0,
,-0.247,0.143,1.112,-88.074,198.12,-30.213,0,0,0,
,-0.184,0.094,1.085,-45.166,213.501,-65.369,0,0,0,
,-0.163,0.083,1.018,-60.059,197.082,-69.092,0,0,0,
,-0.171,0.134,0.984,-60.12,173.706,-73.914,0,0,0,
,-0.174,0.178,1.052,19.043,146.789,-65.552,0,0,0,
,-0.169,0.15,1.162,81.115,129.821,-61.463,0,0,0,
,-0.171,0.111,1.18,67.199,122.68,-52.735,0,0,0,
,-0.166,0.09,1.143,-12.207,130.981,-47.913,0,0,0,
,-0.136,0.096,1.065,-47.364,134.155,-32.959,0,0,0,
,-0.097,0.098,1.015,-50.049,132.263,-16.663,0,0,0,
,-0.066,0.112,0.992,-32.715,104.004,-11.353,0,0,0,
,-0.073,0.139,1.056,19.348,67.871,-13.733,0,0,0,
,-0.075,0.102,1.122,87.097,58.898,-27.771,0,0,0,
,-0.071,0.027,1.134,80.749,68.42,-46.936,0,0,0,
,-0.034,-0.001,1.002,2.929,90.759,-64.209,0,0,0,
,0.093,0.088,1.123,63.232,-17.029,-64.698,0,0,0,
,-0.107,-0.027,1.077,9.765,-54.932,-70.374,0,0,0,
,-0.065,0.07,1.028,-36.499,10.131,-50.293,0,0,0,
,-0.036,0.06,1.023,8.178,-6.287,-57.74,0,0,0,
,-0.088,0.036,1.032,31.066,-10.987,-43.824,0,0,0,
,-0.102,0.032,1.029,8.606,7.202,-34.241,0,0,0,
,-0.12,0.05,1.004,0.732,-1.831,-29.48,0,0,0,
,-0.139,0.049,1.002,25.756,6.286,-26.856,0,0,0,
,-0.133,0.026,0.994,60.424,17.517,-22.706,0,0,0,
,-0.095,0.003,0.974,62.744,4.455,-23.194,0,0,0,
,-0.143,0.019,0.975,62.5,10.742,-26.001,0,0,0,
,-0.127,0.017,0.981,64.025,17.944,-33.02,0,0,0,
,-0.126,0.032,1.004,57.861,22.033,-31.922,0,0,0,
,-0.124,0.054,1.022,72.204,22.461,-34.058,0,0,0,
,-0.109,0.05,1.022,78.735,25.573,-25.025,0,0,0,
,-0.125,0.041,1.019,70.983,17.883,-21.241,0,0,0,
,-0.126,0.041,1.006,77.026,21.972,-13.672,0,0,0,
,-0.134,0.036,1.008,102.783,22.461,-10.01,0,0,0,
,-0.149,0.003,1.01,112.365,31.494,-6.775,0,0,0,
,-0.161,-0.007,1.024,78.369,38.33,-20.813,0,0,0,
,-0.171,0.005,1.055,88.867,62.316,-37.11,0,0,0,
,-0.175,0.005,1.077,91.43,47.79,-31.922,0,0,0,
,-0.163,0.003,1.124,85.876,42.48,-17.029,0,0,0,
,-0.135,0.012,1.114,73.486,44.86,-17.579,0,0,0,
,-0.104,-0.006,1.031,57.067,25.085,4.028,0,0,0,
,-0.141,0.021,0.953,155.456,-3.296,57.983,0,0,0,
,-0.123,-0.007,0.937,195.129,14.587,70.556,0,0,0,
,-0.132,-0.068,0.92,206.787,19.165,53.344,0,0,0,
,-0.146,-0.118,0.909,167.846,31.86,33.081,0,0,0,
,-0.138,-0.123,0.856,113.098,48.095,11.962,0,0,0,
,-0.146,-0.086,0.853,72.876,52.734,-1.893,0,0,0,
,-0.125,-0.041,0.938,58.349,79.528,-20.63,0,0,0,
,-0.088,-0.005,1.003,64.514,79.345,-43.152,0,0,0,
,-0.094,-0.016,1.092,68.176,51.147,-44.8,0,0,0,
,-0.096,-0.043,1.053,35.156,33.203,-48.157,0,0,0,
,-0.115,-0.084,1.006,-22.828,9.033,-56.885,0,0,0,
,-0.134,-0.084,0.99,-52.796,9.643,-63.721,0,0,0,
,-0.13,-0.055,1.001,-2.808,24.78,-79.102,0,0,0,
,-0.117,-0.062,1.07,87.036,15.686,-84.168,0,0,0,
,-0.132,-0.112,1.147,164.306,-1.282,-69.947,0,0,0,
,-0.15,-0.199,1.1,112.609,7.08,-57.679,0,0,0,
,-0.151,-0.233,1.025,7.995,9.033,-39.063,0,0,0,
,-0.155,-0.201,0.983,-58.533,8.911,-40.223,0,0,0,
,-0.14,-0.181,0.955,-53.833,24.841,-42.542,0,0,0,
,-0.136,-0.141,0.958,-35.096,40.71,-56.702,0,0,0,
,-0.099,-0.107,0.973,-34.058,54.809,-51.27,0,0,0,
,-0.062,-0.072,1.014,-41.687,57.617,-44.068,0,0,0,
,-0.065,-0.058,1.022,-46.875,33.142,-48.096,0,0,0,
,-0.108,-0.036,1.044,-40.223,27.16,-40.162,0,0,0,
,-0.097,-0.04,1.051,-4.7,22.522,-37.964,0,0,0,
,-0.11,-0.091,1.026,-13.245,7.812,-45.655,0,0,0,
,-0.129,-0.136,1.01,-57.923,0.183,-53.162,0,0,0,
,-0.127,-0.118,0.998,-92.102,1.403,-67.139,0,0,0,
,-0.127,-0.081,1.028,-98.938,6.836,-72.754,0,0,0,
,-0.091,-0.072,1.056,-68.97,9.582,-67.383,0,0,0,
,-0.085,-0.041,1.021,-82.581,15.258,-71.289,0,0,0,
,-0.082,-0.086,0.94,-69.031,-2.198,-74.28,0,0,0,
,-0.112,-0.11,1.02,-94.422,-5.677,-73.182,0,0,0,
,0.01,0.016,0.939,-121.399,54.443,-33.509,0,0,0,
,0.031,-0.032,1.012,-14.344,43.945,-61.524,0,0,0,
,0.053,-0.001,1.012,-28.504,25.329,-21.79,0,0,0,
,0.024,-0.051,1.004,-21.79,34.729,1.953,0,0,0,
,0.041,-0.063,1.012,-56.031,34.729,20.935,0,0,0,
,0,-0.036,1.024,-60.73,7.08,16.601,0,0,0,
,-0.043,-0.033,1.03,-35.34,5.493,17.395,0,0,0,
,-0.058,-0.049,1.039,-39.185,-8.423,14.404,0,0,0,
,-0.05,-0.035,1.207,-122.986,-6.348,14.465,0,0,0,
,-0.074,0.044,1.046,-172.12,-19.532,20.263,0,0,0,
,-0.221,0.055,1.065,-77.027,-40.162,18.127,0,0,0,
,-0.208,-0.032,0.958,-46.326,-17.945,-3.296,0,0,0,
,-0.291,-0.035,0.947,-49.439,-39.49,1.77,0,0,0,
,-0.319,-0.082,0.79,-14.405,3.479,9.582,0,0,0,
,-0.38,-0.183,0.878,22.155,-4.944,-9.522,0,0,0,
,-0.278,-0.134,0.908,-31.311,34.668,-17.09,0,0,0,
,-0.243,-0.008,1.053,-69.519,18.188,-22.522,0,0,0,
,-0.156,0.051,1.13,-59.327,19.958,-13.733,0,0,0,
,-0.16,0.09,1.148,-8.24,-11.902,-2.137,0,0,0,
,-0.159,0.033,1.094,56.03,-24.17,2.746,0,0,0,
,-0.173,-0.068,1.02,55.725,-23.987,-3.113,0,0,0,
,-0.157,-0.088,1.002,12.207,-9.949,2.99,0,0,0,
,-0.147,-0.106,0.868,29.846,20.202,-19.043,0,0,0,
,-0.188,-0.153,0.831,53.588,32.898,-44.617,0,0,0,
,-0.074,-0.143,0.863,11.352,102.539,-46.814,0,0,0,
,-0.017,-0.085,0.962,-50.293,69.03,-68.482,0,0,0,
,0.029,-0.003,1.048,-64.82,85.632,-66.651,0,0,0,
,0.116,0.037,1.174,-54.993,77.148,-59.571,0,0,0,
,0.275,0.149,1.283,-97.901,32.043,-45.594,0,0,0,
,0.097,0.041,1.078,-55.054,-24.537,-45.472,0,0,0,
,0.064,-0.083,0.855,-54.261,-5.127,-31.434,0,0,0,
,0.08,-0.051,0.823,-64.759,12.756,-22.767,0,0,0,
,0.106,-0.014,0.925,-44.129,25.39,-6.348,0,0,0,
,0.057,-0.001,1.002,-54.444,12.817,3.54,0,0,0,
,-0.036,0.002,1.045,-45.533,6.836,1.77,0,0,0,
,-0.069,-0.004,1.162,-53.406,-3.296,2.685,0,0,0,
,-0.034,0.031,1.129,-183.838,10.07,-9.278,0,0,0,
,-0.152,0.119,1.114,-176.026,-72.083,7.385,0,0,0,
,-0.225,0.008,0.952,-117.249,-43.091,-17.334,0,0,0,
,-0.353,-0.005,0.789,-136.597,-56.397,-41.565,0,0,0,
,-0.489,-0.031,0.539,-52.002,7.69,-60.425,0,0,0,
,-0.496,-0.105,0.748,20.019,37.048,-69.092,0,0,0,
,-0.367,0.013,1,-28.26,109.192,-49.561,0,0,0,
,-0.243,0.15,1.259,16.296,87.158,-27.832,0,0,0,
,-0.177,0.106,1.332,90.332,29.541,-19.043,0,0,0,
,-0.207,-0.068,1.15,101.44,-7.447,-28.199,0,0,0,
,-0.131,-0.141,1.11,27.038,15.747,-54.322,0,0,0,
,-0.175,-0.251,0.852,-7.019,-36.927,-88.562,0,0,0,
,-0.111,-0.275,0.754,-34.363,81.298,-108.521,0,0,0,
,-0.008,-0.121,0.79,-63.904,78.979,-131.348,0,0,0,
,0.074,-0.03,0.915,-53.833,109.863,-126.16,0,0,0,
,0.208,0.077,1.063,-77.515,116.699,-111.39,0,0,0,
,0.241,0.147,1.189,-57.923,90.454,-88.501,0,0,0,
,0.317,0.168,1.26,-61.646,59.814,-40.65,0,0,0,
,0.079,0.031,1.084,-37.476,-12.574,-23.926,0,0,0,
,0.007,-0.11,0.929,-29.602,33.386,-8.728,0,0,0,
,0.072,-0.052,0.967,-68.604,43.09,3.356,0,0,0,
,0.071,0.056,1.05,-46.875,38.269,3.845,0,0,0,
,-0.035,0.12,1.105,-30.152,0,-20.874,0,0,0,
,-0.021,0.19,1.337,-118.714,12.329,12.573,0,0,0,
,-0.095,0.185,1.101,-113.892,-35.157,8.606,0,0,0,
,-0.179,0.059,0.955,-29.786,-21.485,1.159,0,0,0,
,-0.197,-0.013,0.787,-23.621,-21.302,-0.55,0,0,0,
,-0.276,-0.097,0.651,29.296,7.446,0.549,0,0,0,
,-0.377,-0.253,0.683,76.171,-5.738,-23.133,0,0,0,
,-0.282,-0.144,0.966,-37.354,79.345,-36.316,0,0,0,
,-0.116,0.129,1.239,-60.303,41.748,-44.739,0,0,0,
,-0.176,0.058,1.267,21.057,-30.396,-74.952,0,0,0,
,-0.172,0.009,1.077,-46.814,-19.349,-65.491,0,0,0,
,-0.161,-0.002,0.968,-40.894,-32.776,-70.191,0,0,0,
,-0.162,-0.089,0.942,-26.917,-21.18,-83.13,0,0,0,
,-0.094,-0.079,0.798,-11.536,19.348,-68.909,0,0,0,
,-0.089,-0.034,0.945,16.418,65.307,-75.379,0,0,0,
,0.047,0.027,0.993,-4.517,58.288,-73.243,0,0,0,
,0.133,0.121,1.143,11.901,71.899,-51.331,0,0,0,
,0.054,0.102,0.9,154.968,28.869,-45.289,0,0,0,
,0.151,0.071,1.067,198.791,125,14.038,0,0,0,
,0.328,0.106,1.122,154.052,30.456,35.034,0,0,0,
,-0.033,-0.161,1.125,176.88,20.019,29.724,0,0,0,
,0.056,-0.2,1.015,76.294,32.104,22.033,0,0,0,
,0.039,-0.084,1.069,8.606,32.714,11.169,0,0,0,
,0.06,0,1.121,21.85,37.841,23.315,0,0,0,
,0.154,0.112,1.237,-84.473,45.776,71.655,0,0,0,
,0.049,0.161,1.257,-36.072,-107.605,76.538,0,0,0,
,-0.017,-0.005,1.093,9.094,-13.184,80.322,0,0,0,
,-0.021,0.022,0.996,-73.609,-45.289,78.369,0,0,0,
,-0.06,0.05,0.735,-106.69,41.259,79.101,0,0,0,
,-0.156,0.071,0.78,65.185,-19.959,70.129,0,0,0,
,-0.337,-0.145,0.743,122.192,32.836,42.053,0,0,0,
,-0.432,-0.131,0.793,88.867,39.001,42.175,0,0,0,
,-0.547,-0.325,1.183,144.836,-56.275,-43.58,0,0,0,
,-0.275,-0.18,1.426,-120.301,31.86,-50.293,0,0,0,
,-0.32,-0.134,1.256,-306.519,-22.706,-104.187,0,0,0,
,-0.205,0.03,0.921,-337.22,30.09,-90.882,0,0,0,
,-0.194,0.147,0.879,-179.261,-11.841,-102.478,0,0,0,
,-0.167,0.111,0.572,-6.348,38.635,-71.9,0,0,0,
,-0.371,-0.104,0.604,198.181,-5.494,-82.52,0,0,0,
,-0.068,-0.023,0.708,232.91,142.7,-38.392,0,0,0,
,0.142,0.114,1.255,304.626,87.951,-43.274,0,0,0,
,0.05,-0.027,1.219,281.555,121.215,-58.716,0,0,0,
,0.279,0.119,1.234,213.928,105.163,-2.198,0,0,0,
,0.095,-0.261,1.03,78.613,-21.546,2.624,0,0,0,
,0.13,-0.3,0.84,-2.015,32.592,8.483,0,0,0,
,0.149,-0.226,0.909,-91.919,27.404,-7.752,0,0,0,
,0.185,-0.094,1.088,-126.709,44.128,-4.334,0,0,0,
,0.278,0.153,1.214,-197.937,22.766,34.668,0,0,0,
,0.208,0.183,1.277,-147.706,-73.853,45.532,0,0,0,
,0.061,0.064,1.195,-52.308,-66.163,21.667,0,0,0,
,0.029,0.038,0.827,-167.969,-13.184,48.339,0,0,0,
,-0.162,0.057,0.649,-30.396,-68.116,76.171,0,0,0,
,-0.323,-0.179,0.676,143.798,-2.625,70.068,0,0,0,
,-0.327,-0.203,0.732,107.238,36.743,56.884,0,0,0,
,-0.412,-0.17,0.922,71.533,46.386,35.644,0,0,0,
,-0.474,-0.207,1.015,86.059,39.123,-1.404,0,0,0,
,-0.264,-0.128,1.353,-5.677,22.033,-33.692,0,0,0,
,-0.248,-0.102,1.154,-187.439,30.09,-62.928,0,0,0,
,-0.141,-0.084,0.918,-228.76,25.695,-55.97,0,0,0,
,-0.099,0.025,0.832,-227.478,6.897,-67.81,0,0,0,
,-0.06,0.029,0.825,-79.224,-7.081,-73.121,0,0,0,
,-0.111,-0.022,0.964,121.093,6.774,-83.008,0,0,0,
,0.129,-0.017,0.974,189.453,-13.611,-59.449,0,0,0,
,0.091,-0.045,1.324,55.236,15.502,-66.407,0,0,0,
,0.252,0.007,1.018,-36.927,3.54,-26.368,0,0,0,
,0.035,-0.155,0.959,-70.984,9.399,-4.7,0,0,0,
,0.142,-0.081,0.909,-36.988,-1.099,-6.714,0,0,0,
,0.115,-0.063,1.195,10.681,6.53,13.366,0,0,0,
,0.189,-0.015,1.221,-45.411,37.353,45.715,0,0,0,
,0.16,-0.044,1.199,-93.079,46.814,60.669,0,0,0,
,0.167,0.009,1.101,-98.999,17.395,96.801,0,0,0,
,0.077,-0.07,1.115,-44.068,-10.01,97.412,0,0,0,
,0.066,-0.132,0.975,-108.46,-1.343,93.322,0,0,0,
,-0.058,-0.126,0.969,-141.297,-20.325,89.233,0,0,0,
,-0.022,-0.114,1.006,-158.875,4.638,61.035,0,0,0,
,-0.128,-0.101,0.932,-194.092,19.775,50.659,0,0,0,
,-0.202,0.005,0.867,-218.262,23.62,44.372,0,0,0,
,-0.227,0.074,0.847,-179.505,36.438,1.403,0,0,0,
,-0.23,0.138,0.892,-59.876,31.86,-12.757,0,0,0,
,-0.216,0.055,0.926,7.812,44.494,-12.696,0,0,0,
,-0.213,-0.045,0.956,-13.245,3.54,-16.48,0,0,0,
,-0.217,-0.085,0.963,-90.271,-11.292,-36.499,0,0,0,
,-0.162,-0.096,0.958,-136.841,-25.635,-64.759,0,0,0,
,-0.083,-0.088,1.001,-170.289,-43.396,-106.629,0,0,0,
,-0.03,0.004,1.116,-185.608,-86.121,-127.808,0,0,0,
,0.026,0.067,1.15,-175.293,-97.168,-152.527,0,0,0,
,0.053,0.053,1.183,-188.965,-133.24,-161.866,0,0,0,
,0.07,0.014,1.145,-254.883,-156.861,-153.992,0,0,0,
,0.08,-0.047,1.063,-363.099,-184.998,-133.545,0,0,0,
,0.058,-0.062,0.944,-522.522,-209.839,-98.999,0,0,0,
,0.017,0.111,0.845,-594.239,-281.006,-72.144,0,0,0,
,-0.132,0.274,0.843,-473.755,-323.548,-75.074,0,0,0,
,-0.193,0.362,0.822,-195.801,-311.463,-120.118,0,0,0,
,-0.243,0.09,0.772,262.39,-240.967,-165.162,0,0,0,
,-0.26,-0.099,0.739,233.581,-212.037,-152.71,0,0,0,
,-0.295,-0.142,0.758,74.035,-179.627,-127.442,0,0,0,
,-0.359,-0.038,0.845,-76.294,-102.784,-123.963,0,0,0,
,-0.355,0.136,0.931,-113.648,40.039,-138.672,0,0,0,
,-0.293,0.203,0.947,-31.434,133.3,-167.298,0,0,0,
,-0.235,0.157,0.915,32.409,180.053,-171.204,0,0,0,
,-0.194,0.096,0.967,32.592,179.199,-173.218,0,0,0,
,-0.171,0.171,1.048,4.028,140.808,-135.132,0,0,0,
,-0.168,0.227,1.152,24.231,118.286,-114.075,0,0,0,
,-0.17,0.216,1.168,51.879,102.539,-103.211,0,0,0,
,-0.159,0.189,1.154,37.353,92.529,-71.351,0,0,0,
,-0.092,0.228,1.198,97.595,-2.93,3.662,0,0,0,
,-0.138,0.065,1.118,119.812,-52.124,20.752,0,0,0,
,-0.173,0.079,1.087,61.279,-75.013,63.049,0,0,0,
,-0.161,0.078,1.051,13,-39.917,71.96,0,0,0,
,-0.159,0.116,1.042,5.493,-41.932,55.481,0,0,0,
,-0.098,0.088,0.984,67.932,22.949,16.601,0,0,0,
,-0.05,0.051,0.953,92.468,16.418,15.014,0,0,0,
,-0.047,0.025,0.945,60.18,-9.766,23.376,0,0,0,
,-0.083,0.068,0.956,6.469,-20.935,33.325,0,0,0,
,-0.068,0.038,1.005,149.78,67.993,-36.683,0,0,0,
,-0.054,0.01,1.001,132.812,76.477,-42.969,0,0,0,
,-0.006,-0.001,1.067,178.955,25.878,-54.932,0,0,0,
,-0.068,-0.119,1.069,140.014,-5.249,-76.966,0,0,0,
,-0.103,-0.085,1.041,22.766,1.464,-77.149,0,0,0,
,-0.073,0.003,0.925,61.157,83.618,-92.225,0,0,0,
,-0.072,0.156,0.994,70.922,31.189,-19.898,0,0,0,
,-0.109,0.091,0.99,182.312,88.012,18.92,0,0,0,
,-0.084,0.011,0.988,209.045,87.707,42.968,0,0,0,
,-0.113,-0.057,1.019,197.082,77.941,18.371,0,0,0,
,-0.095,-0.078,1.044,174.316,74.646,2.258,0,0,0,
,-0.056,-0.092,1.033,119.079,37.292,-16.846,0,0,0,
,-0.071,-0.058,1.026,76.11,11.596,-19.654,0,0,0,
,-0.067,-0.034,0.993,58.166,10.315,-20.264,0,0,0,
,-0.097,-0.009,0.993,66.284,-1.16,-21.851,0,0,0,
,-0.111,-0.002,1.002,63.354,-5.616,-24.414,0,0,0,
,-0.121,-0.003,1.045,76.171,9.338,-12.757,0,0,0,
,-0.105,-0.128,1.039,-36.805,-11.536,-7.569,0,0,0,
,-0.093,-0.107,0.996,-65.247,-15.32,-9.766,0,0,0,
,-0.085,-0.058,0.966,-62.439,-1.831,-13.672,0,0,0,
,-0.081,-0.038,0.986,-60.852,0,-32.044,0,0,0,
,-0.09,-0.037,1.035,-51.27,14.953,-13.306,0,0,0,
,-0.109,-0.004,1.035,-115.296,14.099,-22.828,0,0,0,
,-0.131,0.006,1.012,-91.675,12.573,-25.269,0,0,0,
,-0.136,0.031,0.968,-78.37,17.028,-21.363,0,0,0,
,-0.159,0.036,0.983,-40.65,13.916,-29.114,0,0,0,
,-0.178,0.03,0.974,35.644,27.526,-17.273,0,0,0,
,-0.181,-0.018,0.979,83.679,32.898,-10.01,0,0,0,
,-0.171,-0.033,1.002,105.468,33.63,3.479,0,0,0,
,-0.143,-0.103,1.025,85.083,21.911,3.845,0,0,0,
,-0.142,-0.087,1.038,34.301,6.958,4.211,0,0,0,
,-0.128,-0.101,1.007,12.939,15.441,-11.17,0,0,0,
,-0.133,-0.089,0.984,-20.081,20.141,-21.973,0,0,0,
,-0.113,-0.04,0.985,-25.025,28.991,-20.508,0,0,0,
,-0.117,-0.031,1.004,-0.489,30.212,-24.537,0,0,0,
,-0.095,-0.041,1.007,-10.56,37.78,-14.649,0,0,0,
,-0.076,-0.046,1.014,-34.18,22.522,-17.823,0,0,0,
,-0.07,-0.043,0.998,-48.035,13.305,-13.367,0,0,0,
,-0.069,-0.041,0.978,-48.279,10.437,-18.433,0,0,0,
,-0.076,-0.017,0.993,-37.476,17.456,-29.358,0,0,0,
,-0.087,-0.011,0.969,-6.958,20.385,-29.419,0,0,0,
,-0.13,-0.05,1.022,3.418,22.888,-30.03,0,0,0,
,-0.108,-0.061,1.021,0.305,36.804,-26.307,0,0,0,
,-0.103,-0.089,0.991,-12.818,38.208,-31.739,0,0,0,
,-0.055,-0.097,1.007,-39.917,34.423,-33.081,0,0,0,
,-0.098,-0.068,1.058,-64.454,32.836,-45.655,0,0,0,
,0.003,-0.002,1.065,-55.054,62.5,-57.74,0,0,0,
,0.056,0.064,1.142,-33.875,41.198,-50.11,0,0,0,
,0.073,0.111,1.134,10.009,50.781,-30.457,0,0,0,
,0.087,0.033,1.052,44.86,17.883,-19.959,0,0,0,
,-0.013,-0.021,0.984,45.532,-13.062,-11.353,0,0,0,
,-0.002,-0.08,0.931,15.93,14.282,-6.104,0,0,0,
,-0.01,-0.073,0.956,7.263,25.451,-2.137,0,0,0,
,-0.027,-0.122,1.004,6.042,12.573,-9.827,0,0,0,
,-0.062,-0.133,1.087,-49.683,-4.517,-20.874,0,0,0,
,-0.108,-0.014,1.094,-193.604,-7.447,-26.917,0,0,0,
,-0.133,0.034,1.069,-202.576,-19.471,-37.842,0,0,0,
,-0.14,0.094,0.955,-154.908,12.329,-24.048,0,0,0,
,-0.181,0.084,0.939,-50.049,-7.996,-18.067,0,0,0,
,-0.268,-0.001,0.861,52.734,-15.625,-17.334,0,0,0,
,-0.27,-0.012,0.796,30.517,53.894,16.601,0,0,0,
,-0.235,-0.11,0.96,56.64,6.897,10.803,0,0,0,
,-0.187,-0.093,1.042,55.786,50.903,2.746,0,0,0,
,-0.132,-0.08,1.077,-0.916,8.483,-12.33,0,0,0,
,-0.14,-0.064,1.065,-50.721,-17.823,-29.847,0,0,0,
,-0.152,-0.019,1.021,-70.008,-18.25,-43.03,0,0,0,
,-0.152,-0.006,0.969,-25.33,-5.188,-56.214,0,0,0,
,-0.133,0.015,0.953,45.41,12.695,-53.894,0,0,0,
,-0.123,0.005,0.996,110.412,0.244,-46.631,0,0,0,
,-0.106,-0.019,1.048,127.807,5.188,-40.101,0,0,0,
,-0.079,-0.007,1.063,114.441,-2.015,-32.41,0,0,0,
,-0.089,-0.04,1.038,96.801,-12.94,-32.349,0,0,0,
,-0.078,-0.022,1.039,83.435,-4.517,-33.143,0,0,0,
,-0.079,-0.047,1.06,76.721,-3.968,-35.706,0,0,0,
,-0.05,-0.08,0.936,58.898,4.516,-37.354,0,0,0,
,-0.073,-0.069,0.972,35.888,13.671,-54.139,0,0,0,
,-0.063,-0.041,1.001,58.654,-7.813,-62.684,0,0,0,
,0.044,-0.038,0.967,41.32,52.368,-42.359,0,0,0,
,0.05,-0.055,1.055,20.507,45.166,-35.035,0,0,0,
,0.084,-0.077,1.091,5.065,20.324,-24.842,0,0,0,
,0.098,-0.111,1.04,-29.664,23.742,-21.851,0,0,0,
,0.072,-0.119,0.97,-63.111,11.108,-7.142,0,0,0,
,0.041,-0.129,0.956,-70.435,22.766,7.324,0,0,0,
,0.01,-0.142,0.997,-94.422,21.606,9.46,0,0,0,
,-0.03,-0.104,1.049,-103.699,17.822,4.089,0,0,0,
,-0.071,-0.092,1.093,-120.85,0.488,-10.804,0,0,0,
,-0.039,-0.016,1.14,-207.032,1.403,-22.461,0,0,0,
,-0.108,0.073,1.046,-245.301,-31.617,-12.574,0,0,0,
,-0.152,0.099,0.994,-173.096,-29.847,-17.518,0,0,0,
,-0.246,0.029,0.818,-126.465,-27.832,-19.959,0,0,0,
,-0.295,0.03,0.77,-60.364,13.549,-7.691,0,0,0,
,-0.349,-0.079,0.778,89.538,24.536,-25.696,0,0,0,
,-0.252,-0.11,0.915,91.491,84.228,-24.353,0,0,0,
,-0.127,-0.031,1.118,49.743,48.584,-21.79,0,0,0,
,-0.114,-0.004,1.209,30.09,39.611,-18.311,0,0,0,
,-0.127,-0.044,1.158,9.704,1.831,-24.72,0,0,0,
,-0.13,-0.041,1.031,-6.104,-3.724,-32.105,0,0,0,
,-0.116,-0.024,0.982,31.677,1.892,-39.307,0,0,0,
,-0.091,-0.044,0.972,54.748,12.451,-36.988,0,0,0,
,-0.075,-0.054,0.943,64.086,17.639,-32.776,0,0,0,
,-0.037,-0.065,0.975,93.444,43.273,-49.439,0,0,0,
,-0.033,-0.05,1.02,91.491,25.512,-56.092,0,0,0,
,-0.047,-0.048,1.035,69.213,13.916,-48.768,0,0,0,
,-0.004,-0.043,1.059,31.799,50.842,-37.964,0,0,0,
,-0.099,-0.085,1.082,21.85,-23.743,-46.143,0,0,0,
,0.034,-0.063,1.063,-0.977,38.452,-36.255,0,0,0,
,-0.019,-0.082,1.036,-14.466,-5.066,-49.988,0,0,0,
,0.056,-0.062,1.047,-23.804,14.953,-38.208,0,0,0,
,0.076,-0.05,1.068,-41.81,7.934,-23.743,0,0,0,
,0.057,0.009,0.97,21.606,-24.353,9.216,0,0,0,
,-0.051,-0.08,0.917,42.724,-45.472,19.287,0,0,0,
,-0.073,-0.119,0.957,7.568,-32.776,19.287,0,0,0,
,-0.047,-0.096,1.063,-65.613,-31.128,13.977,0,0,0,
,-0.057,0.004,1.021,-163.697,-47.73,9.521,0,0,0,
,-0.167,0.007,1.039,-106.995,-46.875,-5.86,0,0,0,
,-0.173,-0.098,0.954,-97.046,-23.011,-23.987,0,0,0,
,-0.343,-0.132,0.78,-73.548,-16.175,-39.368,0,0,0,
,-0.351,-0.189,0.827,-41.687,12.023,-66.163,0,0,0,
,-0.21,-0.072,0.994,-46.021,74.585,-65.613,0,0,0,
,-0.132,0.041,1.194,5.798,19.47,-52.552,0,0,0,
,-0.186,-0.006,1.098,15.075,9.033,-46.998,0,0,0,
,-0.149,-0.001,1.02,37.414,8.3,-38.208,0,0,0,
,-0.129,-0.009,0.991,86.669,29.785,-29.358,0,0,0,
,-0.106,-0.023,0.998,106.14,27.587,-21.424,0,0,0,
,-0.135,-0.08,0.977,139.953,12.146,-28.443,0,0,0,
,-0.105,-0.074,0.902,144.47,43.029,-21.973,0,0,0,
,-0.067,-0.067,1.02,140.319,33.508,-23.804,0,0,0,
,-0.046,-0.08,0.957,119.69,50.231,-40.284,0,0,0,
,-0.079,-0.092,1.001,118.042,47.302,-32.532,0,0,0,
,0.004,-0.094,1.106,87.524,48.278,-38.697,0,0,0,
,0.057,-0.128,1.086,25.268,55.908,-36.133,0,0,0,
,0.114,-0.112,1.178,-47.974,-3.418,-31.495,0,0,0,
,0.06,-0.093,0.955,-79.529,17.7,-29.725,0,0,0,
,0.02,-0.074,0.984,-33.448,10.253,-16.846,0,0,0,
,-0.011,-0.079,0.998,-20.508,11.718,-3.785,0,0,0,
,-0.039,-0.063,1.035,-34.18,14.709,4.211,0,0,0,
,-0.093,-0.044,1.031,-33.753,-9.644,4.699,0,0,0,
,-0.178,0.08,0.998,-74.769,-31.556,13.061,0,0,0,
,-0.175,-0.078,0.895,14.587,-0.184,-3.357,0,0,0,
,-0.3,-0.196,0.687,32.409,-0.428,-17.456,0,0,0,
,-0.296,-0.243,0.853,31.189,37.109,-31.373,0,0,0,
,-0.077,-0.021,1.246,91.735,30.456,-18.189,0,0,0,
,-0.268,-0.181,1.319,41.809,36.926,-48.157,0,0,0,
,-0.181,-0.08,1.072,-47.364,41.442,-23.804,0,0,0,
,-0.146,-0.035,0.936,-6.47,67.81,3.479,0,0,0,
,-0.094,-0.022,0.946,67.627,51.086,17.517,0,0,0,
,-0.099,-0.034,0.979,131.958,63.781,22.094,0,0,0,
,-0.123,-0.112,0.924,156.25,68.237,24.292,0,0,0,
,-0.081,-0.131,0.908,151.55,92.224,25.085,0,0,0,
,-0.033,-0.141,0.942,138.061,85.815,7.263,0,0,0,
,-0.028,-0.159,0.976,124.572,83.374,-14.893,0,0,0,
,-0.029,-0.163,1.114,104.553,54.565,-39.368,0,0,0,
,0.01,-0.175,1.171,21.362,60.424,-58.35,0,0,0,
,0.05,-0.148,1.03,-47.242,30.334,-82.093,0,0,0,
,0.121,-0.107,1.043,-103.943,26.672,-77.21,0,0,0,
,0.156,-0.005,1.007,-114.075,8.606,-63.355,0,0,0,
,0.091,-0.052,0.947,-66.529,12.634,-39.246,0,0,0,
,0.085,-0.113,0.946,-19.959,2.502,-19.715,0,0,0,
,0.041,-0.144,0.999,11.962,-2.808,-7.019,0,0,0,
,-0.005,-0.189,1.05,-4.151,-4.578,-1.587,0,0,0,
,-0.036,-0.173,1.111,-57.557,-7.691,-6.287,0,0,0,
,-0.071,-0.142,1.095,-91.004,-24.781,-13.733,0,0,0,
,-0.05,-0.075,1.052,-125,1.77,-20.203,0,0,0,
,0.053,0.102,1.013,-131.775,31.982,-12.085,0,0,0,
,-0.054,0.06,0.91,-39.246,-2.015,12.512,0,0,0,
,-0.08,-0.057,0.844,47.668,15.197,4.76,0,0,0,
,-0.15,-0.089,0.88,76.232,8.911,8.85,0,0,0,
,-0.241,-0.196,0.909,113.708,-1.648,-13.306,0,0,0,
,-0.343,-0.366,1.064,82.153,-5.372,-41.382,0,0,0,
,-0.208,-0.293,1.214,-62.317,-4.517,-52.369,0,0,0,
,-0.203,-0.265,1.136,-165.101,3.845,-74.891,0,0,0,
,-0.161,-0.149,1.047,-236.573,16.723,-63.843,0,0,0,
,-0.117,-0.054,0.997,-205.018,30.395,-51.087,0,0,0,
,-0.115,-0.06,0.963,-124.756,17.761,-45.35,0,0,0,
,-0.015,-0.071,1.018,-92.286,34.118,-20.752,0,0,0,
,-0.29,-0.101,0.554,-42.603,-6.226,-18.982,0,0,0,
,-0.249,-0.158,0.644,73.669,77.636,-29.786,0,0,0,
,-0.041,-0.126,0.99,18.554,57.312,-42.542,0,0,0,
,0.226,0.12,1.29,73.425,24.353,-29.419,0,0,0,
,0.292,0.093,1.418,92.041,32.898,6.164,0,0,0,
,0.098,-0.164,1.123,125,-72.266,2.99,0,0,0,
,0.047,-0.323,0.902,85.388,43.579,22.705,0,0,0,
,0.073,-0.302,0.934,-29.358,-1.831,8.544,0,0,0,
,0.116,-0.225,1.068,-65.979,33.874,10.559,0,0,0,
,0.189,-0.127,1.212,-133.667,14.343,-0.184,0,0,0,
,0.163,-0.038,1.296,-166.382,-43.457,-0.55,0,0,0,
,0.134,-0.02,1.145,-168.763,-25.208,12.756,0,0,0,
,0.077,0.034,1.005,-158.143,-39.856,30.761,0,0,0,
,-0.014,-0.005,0.907,-85.022,-42.115,39.611,0,0,0,
,-0.094,-0.065,0.776,-41.565,-12.146,52.246,0,0,0,
,-0.158,-0.082,0.877,2.075,12.878,53.772,0,0,0,
,-0.23,-0.14,0.919,25.573,29.846,35.644,0,0,0,
,-0.002,-0.046,1.271,-24.353,10.437,13.427,0,0,0,
,-0.088,-0.07,1.272,-33.692,9.765,-4.578,0,0,0,
,0.008,-0.051,1.066,-63.721,-7.935,1.159,0,0,0,
,-0.075,-0.05,1.072,-98.328,-28.321,4.821,0,0,0,
,0.021,-0.072,0.929,-122.498,-19.532,10.07,0,0,0,
,-0.084,-0.064,0.914,-114.014,-34.241,3.479,0,0,0,
,-0.116,-0.126,0.778,-83.13,12.329,-3.724,0,0,0,
,-0.104,-0.099,0.837,-64.759,32.165,-4.212,0,0,0,
,-0.101,-0.135,0.864,-55.298,27.954,-24.964,0,0,0,
,-0.116,-0.191,0.912,-70.923,36.254,-71.656,0,0,0,
,-0.108,-0.215,0.994,-96.314,18.066,-110.474,0,0,0,
,-0.064,-0.238,1.068,-146.729,10.253,-148.743,0,0,0,
,-0.042,-0.24,1.148,-238.282,-9.827,-178.894,0,0,0,
,0.015,-0.216,1.185,-355.469,-68.421,-207.459,0,0,0,
,-0.01,-0.123,1.214,-470.459,-115.967,-228.211,0,0,0,
,0.022,-0.01,1.181,-594.788,-137.818,-252.869,0,0,0,
,0.028,0.084,1.111,-658.997,-192.627,-264.588,0,0,0,
,-0.011,0.188,1.05,-661.56,-236.268,-240.418,0,0,0,
,-0.065,0.283,0.939,-589.966,-249.756,-228.821,0,0,0,
,-0.076,0.332,0.78,-455.994,-278.931,-198.487,0,0,0,
,-0.192,0.369,0.789,-272.4,-402.832,-174.561,0,0,0,
,-0.33,0.343,0.837,-78.858,-409.18,-145.569,0,0,0,
,-0.371,0.266,0.867,82.702,-375.428,-129.639,0,0,0,
,-0.406,0.126,0.849,151.001,-326.722,-100.098,0,0,0,
,-0.422,0.007,0.789,99.304,-258.301,-63.05,0,0,0,
,-0.451,-0.016,0.728,-29.297,-186.402,-19.959,0,0,0,
,-0.469,0.048,0.716,-91.797,-83.741,18.737,0,0,0,
,-0.438,0.165,0.801,-44.312,35.217,65.368,0,0,0,
,-0.386,0.21,0.882,110.656,139.038,75.561,0,0,0,
,-0.328,0.102,0.894,248.962,226.623,63.903,0,0,0,
,-0.274,-0.049,0.889,237.609,290.954,63.171,0,0,0,
,-0.192,-0.07,0.937,110.046,331.115,71.838,0,0,0,
,-0.095,0.053,1.062,11.596,334.106,87.463,0,0,0,
,-0.007,0.199,1.16,22.399,298.034,90.148,0,0,0,
,0.038,0.296,1.229,146.667,217.346,88.012,0,0,0,
,0.038,0.208,1.241,257.385,134.948,68.359,0,0,0,
,0.028,0.104,1.232,233.886,68.054,60.363,0,0,0,
,0.006,0.076,1.156,165.832,-3.785,66.65,0,0,0,
,-0.065,0.016,1.087,82.275,-35.279,78.796,0,0,0,
,-0.041,0.081,1.074,-29.236,-25.025,78.674,0,0,0,
,-0.035,0.082,1.003,-32.349,-19.898,47.058,0,0,0,
,-0.051,0.063,0.987,-36.011,-25.818,40.893,0,0,0,
,-0.053,0.045,0.987,-18.86,-13.489,11.291,0,0,0,
,-0.057,-0.012,0.963,-2.32,9.765,-30.518,0,0,0,
,-0.067,-0.02,0.951,-14.1,46.02,-58.838,0,0,0,
,-0.066,-0.006,0.952,-55.481,60.73,-78.675,0,0,0,
,-0.066,0.022,0.958,-80.811,75.439,-84.961,0,0,0,
,-0.085,0.073,0.986,-35.767,68.847,-94.666,0,0,0,
,-0.032,0.134,1.186,231.079,17.211,-119.629,0,0,0,
,-0.088,-0.119,1.23,150.085,-36.805,-100.22,0,0,0,
,-0.118,-0.015,1.098,-9.461,-15.625,-88.196,0,0,0,
,-0.087,-0.019,1.052,-75.501,-33.57,-87.586,0,0,0,
,-0.112,0.045,1.021,-176.148,-25.025,-60.059,0,0,0,
,-0.087,0.134,0.984,-121.399,-18.372,-52.491,0,0,0,
,-0.109,0.151,0.953,31.86,-16.297,-50.599,0,0,0,
,-0.104,0.028,0.943,137.268,-8.179,-50.354,0,0,0,
,-0.087,-0.033,0.942,118.896,-20.203,-53.833,0,0,0,
,-0.093,-0.019,0.978,75.256,-27.527,-59.571,0,0,0,
,-0.084,0.048,1.001,112.243,-28.321,-45.899,0,0,0,
,-0.128,0.026,1.02,193.115,-18.86,-25.147,0,0,0,
,-0.128,-0.048,1.053,190.918,0.488,-24.659,0,0,0,
,-0.098,-0.096,1.06,165.649,-9.095,-36.56,0,0,0,
,-0.099,-0.137,1.034,78.918,-8.423,-40.467,0,0,0,
,-0.093,-0.052,1.012,-3.418,-28.077,-36.622,0,0,0,
,-0.135,0.025,1.018,31.127,-27.222,-43.274,0,0,0,
,-0.158,-0.025,1.034,55.786,4.821,-38.88,0,0,0,
,-0.162,-0.042,0.995,10.62,31.433,-25.391,0,0,0,
,-0.172,-0.029,0.981,-40.284,32.653,-25.33,0,0,0,
,-0.145,0.007,1.033,2.929,10.864,-46.204,0,0,0,
,-0.2,-0.035,1.025,55.053,33.508,-58.35,0,0,0,
,-0.144,-0.006,1.056,65.918,56.213,-54.81,0,0,0,
,-0.133,0.002,1.088,67.26,40.466,-62.256,0,0,0,
,-0.116,0.012,1.067,64.636,28.076,-43.274,0,0,0,
,-0.101,-0.012,1.027,68.908,5.615,-19.959,0,0,0,
,-0.104,-0.033,0.963,49.621,3.601,-5.188,0,0,0,
,-0.091,-0.071,0.955,29.724,1.525,4.394,0,0,0,
,-0.096,-0.087,0.952,11.352,12.146,4.211,0,0,0,
,-0.097,-0.04,0.949,77.026,46.508,-18.372,0,0,0,
,-0.116,-0.005,0.997,124.328,58.715,-15.381,0,0,0,
,-0.123,-0.011,1.056,154.724,53.1,-11.963,0,0,0,
,-0.147,-0.022,1.078,152.404,35.156,-9.705,0,0,0,
,-0.153,-0.061,1.05,134.948,33.569,-7.325,0,0,0,
,-0.147,-0.086,1.013,96.374,21.484,-8.667,0,0,0,
,-0.15,-0.069,0.977,89.721,23.193,-2.198,0,0,0,
,-0.155,-0.064,0.961,122.741,46.386,-4.09,0,0,0,
,-0.146,-0.121,0.967,158.386,46.752,-2.686,0,0,0,
,-0.144,-0.149,1.001,152.893,49.682,-3.418,0,0,0,
,-0.147,-0.162,1.028,146.972,56.701,-2.564,0,0,0,
,-0.139,-0.141,1.019,145.568,54.687,-6.348,0,0,0,
,-0.149,-0.153,1.01,130.432,48.461,-10.498,0,0,0,
,-0.152,-0.137,1.002,95.886,48.034,-12.696,0,0,0,
,-0.14,-0.13,1.034,68.969,52.49,-9.705,0,0,0,
,-0.105,-0.173,1.055,36.193,49.926,-10.621,0,0,0,
,-0.058,-0.201,1.081,-35.096,49.926,-14.649,0,0,0,
,-0.077,-0.228,1.081,-100.22,11.596,-47.181,0,0,0,
,-0.029,-0.194,0.993,-158.143,13.977,-55.97,0,0,0,
,-0.018,-0.149,1.002,-195.069,24.047,-58.167,0,0,0,
,-0.011,-0.095,0.998,-185.73,14.16,-70.252,0,0,0,
,0.019,-0.091,0.957,-177.43,14.77,-60.547,0,0,0,
,0.054,-0.086,0.983,-197.693,28.869,-43.885,0,0,0,
,0.081,-0.041,0.994,-205.933,20.752,-45.533,0,0,0,
,0.089,0.016,1.014,-146.729,14.709,-28.26,0,0,0,
,0.065,0.016,1.044,-66.834,22.644,-3.174,0,0,0,
,0.046,-0.031,1.041,-19.043,16.906,-4.639,0,0,0,
,-0.002,-0.06,1.004,-25.086,0,-5.188,0,0,0,
,-0.058,-0.09,0.973,-53.467,-2.32,-3.418,0,0,0,
,-0.08,-0.082,0.983,-90.821,-3.418,-3.846,0,0,0,
,-0.094,-0.056,1.018,-110.291,-8.789,-14.832,0,0,0,
,-0.105,-0.021,1.135,-99.183,-14.283,-19.593,0,0,0,
,-0.087,0.066,1.065,-115.052,7.507,-6.104,0,0,0,
,-0.165,0.071,1.047,-33.631,-29.602,5.065,0,0,0,
,-0.187,-0.001,0.972,42.114,-5.86,19.714,0,0,0,
,-0.243,-0.102,0.922,71.899,-22.461,21.911,0,0,0,
,-0.337,-0.202,0.873,133.545,-10.621,0.549,0,0,0,
,-0.338,-0.271,0.916,116.333,39.489,0.427,0,0,0,
,-0.268,-0.209,1.037,43.823,53.222,-8.24,0,0,0,
,-0.189,-0.125,1.144,15.991,50.17,-9.949,0,0,0,
,-0.152,-0.117,1.189,-22.706,2.929,-9.705,0,0,0,
,-0.139,-0.089,1.148,-44.678,6.103,-12.513,0,0,0,
,-0.117,-0.078,1.031,-12.085,8.3,-17.029,0,0,0,
,-0.094,-0.079,0.935,34.851,23.925,-17.518,0,0,0,
,-0.082,-0.034,0.818,105.346,33.752,-38.941,0,0,0,
,-0.03,-0.018,0.742,293.029,153.381,1.281,0,0,0,
,0.118,0.084,1.061,370.056,202.575,27.16,0,0,0,
,0.273,0.12,1.303,442.505,159.118,44.921,0,0,0,
,0.196,-0.226,1.235,372.558,-26.49,72.631,0,0,0,
,0.035,-0.511,0.932,237.793,-11.719,44.372,0,0,0,
,0.032,-0.594,0.845,-18.311,-11.414,-6.714,0,0,0,
,0.045,-0.423,0.912,-186.158,7.324,-47.669,0,0,0,
,0.024,-0.225,1.046,-204.041,-7.081,-67.2,0,0,0,
,-0.014,-0.085,1.164,-190.796,-3.846,-63.599,0,0,0,
,-0.056,-0.004,1.176,-160.584,-31.373,-47.059,0,0,0,
,-0.056,-0.009,1.273,-151.673,-42.847,-18.311,0,0,0,
,-0.089,0.051,1.043,-98.877,-44.556,3.479,0,0,0,
,-0.178,0.028,0.956,54.138,-26.368,30.273,0,0,0,
,-0.19,-0.084,0.799,187.133,5.065,31.738,0,0,0,
,-0.274,-0.195,0.658,280.944,16.601,20.69,0,0,0,
,-0.379,-0.407,0.677,350.952,47.363,-5.127,0,0,0,
,-0.264,-0.369,0.914,285.888,125.793,14.831,0,0,0,
,-0.062,-0.222,1.341,317.566,21.545,19.348,0,0,0,
,-0.207,-0.435,1.277,210.144,53.039,-22.706,0,0,0,
,-0.097,-0.351,1.07,9.765,46.997,-5.799,0,0,0,
,-0.1,-0.275,1.015,-75.196,38.391,-27.771,0,0,0,
,-0.053,-0.209,0.988,31.555,16.296,-21.363,0,0,0,
,-0.07,-0.363,0.944,64.392,20.08,-58.899,0,0,0,
,-0.07,-0.379,0.788,-52.308,65.918,-75.562,0,0,0,
,-0.022,-0.353,0.729,-117.981,106.079,-90.638,0,0,0,
,0.035,-0.315,0.923,-166.993,78.43,-113.465,0,0,0,
,0.132,-0.173,1.029,-207.032,65.551,-114.014,0,0,0,
,0.162,-0.043,1.144,-194.519,30.822,-97.168,0,0,0,
,0.176,-0.004,1.161,-129.456,-14.893,-60.852,0,0,0,
,0.094,-0.135,1.041,-78.003,-33.204,-50.171,0,0,0,
,0.027,-0.248,0.946,-92.164,-22.644,-38.758,0,0,0,
,0.057,-0.302,0.957,-126.526,-7.996,-33.081,0,0,0,
,0.083,-0.305,1.018,-195.374,-16.785,-52.918,0,0,0,
,0.038,-0.244,1.073,-240.174,-44.251,-65.735,0,0,0,
,0.005,-0.162,1.108,-229.432,-40.284,-75.623,0,0,0,
,-0.039,-0.126,1.112,-210.633,-67.933,-79.163,0,0,0,
,-0.005,-0.102,1.184,-251.465,-62.745,-61.524,0,0,0,
,-0.084,-0.026,1.02,-257.508,-76.05,-46.143,0,0,0,
,-0.142,-0.003,0.963,-145.264,-67.566,-22.034,0,0,0,
,-0.174,-0.073,0.885,-76.722,-45.227,-21.668,0,0,0,
,-0.216,-0.091,0.825,-39.673,-18.555,-9.522,0,0,0,
,-0.268,-0.15,0.73,18.92,-4.639,1.77,0,0,0,
,-0.312,-0.241,0.802,46.264,8.911,-2.381,0,0,0,
,-0.273,-0.298,0.895,0.122,35.4,-26.185,0,0,0,
,-0.194,-0.24,1.038,-89.234,48.461,-27.466,0,0,0,
,-0.153,-0.119,1.151,-84.351,47.058,-33.081,0,0,0,
,-0.113,-0.089,1.15,-15.442,37.78,-40.223,0,0,0,
,-0.106,-0.138,1.091,9.948,26.184,-43.885,0,0,0,
,-0.115,-0.167,0.977,-17.884,22.827,-49.988,0,0,0,
,-0.124,-0.237,0.875,-39.734,70.434,-57.435,0,0,0,
,-0.098,-0.189,0.83,-41.26,81.726,-66.529,0,0,0,
,-0.031,-0.182,0.841,-48.523,115.783,-68.848,0,0,0,
,0.047,-0.083,0.928,-25.208,130.188,-56.641,0,0,0,
,0.191,-0.008,1.043,8.3,145.507,-52.552,0,0,0,
,0.258,0.026,1.213,5.493,84.838,-40.162,0,0,0,
,0.313,0.009,1.248,-5.555,55.481,-6.104,0,0,0,
,0.124,-0.153,1.066,30.517,-13.001,9.399,0,0,0,
,0.057,-0.272,0.928,55.908,37.902,16.723,0,0,0,
,0.109,-0.278,0.965,-3.724,32.287,16.967,0,0,0,
,0.1,-0.198,1.02,-47.608,17.517,30.212,0,0,0,
,0.064,-0.155,1.057,-61.646,1.403,26.611,0,0,0,
,-0.003,-0.117,1.063,-45.105,-27.344,21.972,0,0,0,
,0.016,-0.094,1.319,-91.919,-33.936,18.92,0,0,0,
,-0.021,-0.017,1.122,-142.029,-38.941,21.24,0,0,0,
,-0.079,-0.019,1.069,-86.243,-50.11,31.005,0,0,0,
,-0.077,-0.068,1,-73.914,-48.768,27.526,0,0,0,
,-0.14,-0.075,0.917,-51.27,-43.946,25.817,0,0,0,
,-0.162,-0.136,0.879,3.234,-21.729,29.602,0,0,0,
,-0.21,-0.232,0.83,-15.625,-0.123,24.047,0,0,0,
,-0.284,-0.265,0.791,-16.602,11.657,10.986,0,0,0,
,-0.295,-0.319,0.941,-31.556,24.475,-25.757,0,0,0,
,-0.201,-0.19,1.07,-126.526,40.405,-53.528,0,0,0,
,-0.153,-0.002,1.133,-114.808,27.282,-63.66,0,0,0,
,-0.207,-0.04,0.981,-63.538,0.244,-96.253,0,0,0,
,-0.309,-0.057,0.755,-67.139,-3.663,-114.747,0,0,0,
,-0.286,0.116,0.459,49.499,71.289,-61.158,0,0,0,
,-0.526,-0.176,0.551,391.662,12.573,-60.852,0,0,0,
,-0.235,-0.288,1.039,526.062,74.279,-57.618,0,0,0,
,-0.066,-0.467,1.257,418.884,101.074,-101.868,0,0,0,
,0.224,-0.204,1.418,-28.626,312.011,-122.559,0,0,0,
,0.473,0.174,1.527,43.457,83.618,-112.61,0,0,0,
,0.542,-0.104,1.407,196.594,-54.871,-68.116,0,0,0,
,0.398,-0.265,0.84,29.663,65.307,14.648,0,0,0,
,0.274,-0.4,0.81,102.234,-54.688,33.569,0,0,0,
,0.346,-0.479,1.025,-37.842,25.146,59.204,0,0,0,
,0.397,-0.26,1.184,-166.443,-22.644,72.815,0,0,0,
,0.297,-0.192,1.27,-223.511,-47.242,84.35,0,0,0,
,0.136,-0.097,1.027,-296.021,-65.125,91.369,0,0,0,
,0.036,-0.042,0.912,-248.902,-63.172,89.416,0,0,0,
,-0.098,-0.109,0.778,-182.801,-64.454,92.407,0,0,0,
,-0.242,-0.218,0.832,-140.015,-50.049,73.486,0,0,0,
,-0.211,-0.169,0.935,-178.956,20.507,54.016,0,0,0,
,-0.214,-0.019,1.176,-150.635,9.338,39.611,0,0,0,
,-0.182,-0.037,1.243,-85.999,2.258,32.531,0,0,0,
,-0.166,-0.089,1.247,-122.742,-22.4,37.231,0,0,0,
,-0.163,-0.089,1.046,-163.941,-53.101,31.738,0,0,0,
,-0.161,-0.131,0.933,-173.279,-33.814,4.76,0,0,0,
,-0.22,-0.149,0.865,-143.372,-41.26,-31.128,0,0,0,
,-0.181,-0.056,0.676,-89.905,-28.687,-64.759,0,0,0,
,-0.192,-0.046,0.646,-15.137,-48.279,-95.765,0,0,0,
,-0.171,-0.171,0.681,27.282,-52.613,-129.822,0,0,0,
,0.049,-0.181,1.16,-166.199,-76.722,-174.134,0,0,0,
,0.028,-0.204,1.188,-222.535,-126.404,-214.234,0,0,0,
,0.023,-0.247,1.222,-288.514,-164.429,-257.569,0,0,0,
,0.11,-0.181,1.285,-406.861,-187.256,-299.866,0,0,0,
,0.121,-0.05,1.235,-471.436,-241.272,-313.721,0,0,0,
,0.063,0.058,1.175,-484.864,-273.56,-289.551,0,0,0,
,-0.005,0.066,1.004,-458.985,-265.625,-257.935,0,0,0,
,-0.061,0.058,0.83,-464.661,-264.039,-218.506,0,0,0,
,-0.109,0.094,0.748,-420.838,-345.948,-157.471,0,0,0,
,-0.242,0.176,0.773,-329.468,-388.489,-114.685,0,0,0,
,-0.332,0.204,0.781,-173.645,-371.155,-99.305,0,0,0,
,-0.399,0.152,0.762,-32.227,-319.214,-99.244,0,0,0,
,-0.461,0.064,0.698,47.973,-246.155,-99.183,0,0,0,
,-0.479,-0.052,0.633,42.358,-152.832,-86.243,0,0,0,
,-0.469,-0.118,0.625,-54.261,-66.773,-46.448,0,0,0,
,-0.461,-0.107,0.676,-191.468,35.888,-16.053,0,0,0,
,-0.422,0.04,0.863,-279.358,175.109,0.549,0,0,0,
,-0.318,0.191,0.991,-262.024,293.945,-15.87,0,0,0,
,-0.161,0.249,1.101,-178.772,335.876,-32.959,0,0,0,
,-0.081,0.275,1.111,-70.984,298.584,-34.302,0,0,0,
,-0.045,0.251,1.13,8.728,214.66,-35.096,0,0,0,
,-0.057,0.221,1.142,40.71,134.155,-8.057,0,0,0,
,-0.077,0.216,1.221,101.684,60.546,9.582,0,0,0,
,-0.043,0.19,1.312,138.061,-10.01,-2.015,0,0,0,
,-0.134,0.056,1.164,139.465,-45.166,11.779,0,0,0,
,-0.127,0.116,1.088,27.832,-36.072,11.169,0,0,0,
,-0.129,0.129,1.042,76.965,-20.02,24.231,0,0,0,
,-0.147,0.05,0.998,97.106,10.253,4.516,0,0,0,
,-0.13,0.004,0.975,61.502,10384.972,5168.923,0,0,0,
,-0.108,-0.005,0.939,24.169,88.501,-4.395,0,0,0,
,-0.072,0.006,0.925,-16.968,102.783,-3.418,0,0,0,
,-0.013,0.16,1.017,66.833,50.354,-2.808,0,0,0,
,-0.072,0.076,1.063,172.729,0.305,-44.739,0,0,0,
,-0.116,0.02,1.079,153.32,20.263,-32.593,0,0,0,
,-0.071,0.005,0.999,4.821,13.61,-1.893,0,0,0,
,-0.101,0.046,0.976,-4.395,-1.893,-25.086,0,0,0,
,-0.12,0.055,0.984,10.192,5.371,-19.959,0,0,0,
,-0.149,0.054,0.998,31.677,26.977,-33.387,0,0,0,
,-0.149,0.048,1.027,70.434,42.358,-41.993,0,0,0,
,-0.148,0.025,1.044,83.129,27.648,-34.974,0,0,0,
,-0.161,0.002,1.034,56.274,23.742,-9.339,0,0,0,
,-0.178,0.019,1.012,14.099,17.395,3.967,0,0,0,
,-0.183,0.056,1.021,41.565,33.691,-2.198,0,0,0,
,-0.2,0.025,1.034,80.322,66.467,-41.687,0,0,0,
,-0.153,0.043,1.008,98.388,107.238,-23.438,0,0,0,
,-0.075,-0.019,0.991,68.42,30.944,6.774,0,0,0,
,-0.076,-0.01,0.943,59.753,27.038,7.446,0,0,0,
,-0.068,-0.005,0.961,63.171,23.254,-3.968,0,0,0,
,-0.039,0.002,0.993,90.698,58.044,-61.585,0,0,0,
,-0.075,-0.033,1.063,125.793,45.776,-89.844,0,0,0,
,-0.161,0.015,0.997,-3.968,31.921,-16.358,0,0,0,
,-0.161,0.013,0.968,27.099,38.696,-0.733,0,0,0,
,-0.156,0.006,0.96,54.565,52.368,8.606,0,0,0,
,-0.155,-0.011,0.979,73.73,57.739,10.986,0,0,0,
,-0.152,0.024,1.006,103.21,72.082,10.681,0,0,0,
,-0.12,0.014,1.014,183.288,78.247,18.737,0,0,0,
,-0.098,-0.034,1.016,222.168,62.072,39.489,0,0,0,
,-0.072,-0.112,1.014,188.293,60.485,59.875,0,0,0,
,-0.064,-0.124,1.01,119.567,47.607,67.016,0,0,0,
,-0.066,-0.148,1.011,68.786,38.757,60.241,0,0,0,
,-0.06,-0.139,1.003,41.931,34.545,49.255,0,0,0,
,-0.037,-0.092,1.001,57.983,22.277,24.292,0,0,0,
,-0.067,-0.095,0.984,74.401,1.159,14.648,0,0,0,
,-0.096,-0.116,1.007,69.519,1.281,14.526,0,0,0,
,-0.092,-0.128,1.002,37.414,6.652,9.948,0,0,0,
,-0.095,-0.11,1.012,-8.24,-3.785,7.507,0,0,0,
,-0.087,-0.089,1.009,-25.025,8.056,-12.757,0,0,0,
,-0.102,-0.1,1.021,-36.683,10.131,-22.95,0,0,0,
,-0.11,-0.102,1.006,-49.012,19.47,-34.485,0,0,0,
,-0.125,-0.092,0.986,-64.82,22.644,-41.565,0,0,0,
,-0.117,-0.119,0.96,-107.666,36.254,-43.519,0,0,0,
,-0.111,-0.066,0.966,-113.282,38.452,-35.645,0,0,0,
,-0.092,-0.059,0.997,-55.603,57.434,-41.993,0,0,0,
,-0.104,-0.095,0.996,-72.693,29.174,-55.237,0,0,0,
,-0.115,-0.079,0.966,-89.478,31.982,-68.604,0,0,0,
,-0.166,-0.095,0.964,-81.604,45.227,-81.421,0,0,0,
,-0.079,-0.017,1.043,-65.857,64.025,-48.157,0,0,0,
,-0.082,-0.066,1.03,26.977,36.193,-56.763,0,0,0,
,-0.063,-0.08,1.031,-32.776,49.011,-37.11,0,0,0,
,-0.052,-0.053,0.998,-43.641,23.986,-58.777,0,0,0,
,-0.053,-0.047,0.97,-34.546,30.883,-59.205,0,0,0,
,-0.023,-0.066,0.952,-37.354,26.977,-61.524,0,0,0,
,-0.041,-0.072,0.977,-41.077,29.235,-72.449,0,0,0,
,-0.027,-0.081,1.011,-50.782,16.296,-68.604,0,0,0,
,-0.015,-0.1,1.051,-86.67,-2.747,-63.05,0,0,0,
,-0.03,-0.102,1.029,-118.409,3.784,-60.608,0,0,0,
,0.023,-0.049,1.082,-119.019,12.207,-60.975,0,0,0,
,0.072,-0.038,1.104,-99.61,-5.738,-59.937,0,0,0,
,0.035,-0.021,1.131,-91.919,-29.969,-40.894,0,0,0,
,0.01,0.004,1.13,-69.703,-30.152,-25.757,0,0,0,
,-0.006,0.034,1.136,-36.011,-44.312,-6.592,0,0,0,
,-0.016,0.038,1.129,-22.4,-54.932,10.07,0,0,0,
,-0.052,0.012,1.084,-33.997,-88.746,19.409,0,0,0,
,-0.004,0.014,1.162,-111.39,-67.383,22.461,0,0,0,
,0.009,0.088,0.871,-115.54,-26.673,39.917,0,0,0,
,-0.143,-0.071,0.797,58.41,-28.382,20.141,0,0,0,
,-0.222,-0.126,0.797,46.875,-3.785,15.625,0,0,0,
,-0.251,-0.161,0.777,73.059,20.141,5.798,0,0,0,
,-0.342,-0.265,0.801,111.572,4.455,-16.297,0,0,0,
,-0.343,-0.304,0.941,26.123,48.095,-57.618,0,0,0,
,-0.214,-0.176,1.033,-107.239,50.231,-73.487,0,0,0,
,-0.172,-0.028,1.159,-140.076,28.991,-82.093,0,0,0,
,-0.13,0.046,1.168,-100.953,19.592,-77.576,0,0,0,
,-0.141,0.044,1.126,-45.472,1.648,-64.454,0,0,0,
,-0.135,0.006,1.033,-31.739,8.239,-52.613,0,0,0,
,-0.148,-0.016,0.974,-22.339,12.146,-45.411,0,0,0,
,-0.102,0.008,0.925,1.159,50.293,-28.382,0,0,0,
,-0.108,-0.015,0.946,52.185,42.663,-7.081,0,0,0,
,-0.067,-0.046,0.858,84.472,62.561,-3.357,0,0,0,
,-0.014,-0.038,1.024,49.072,88.501,5.676,0,0,0,
,-0.077,-0.129,1.014,17.761,37.109,-15.198,0,0,0,
,0.08,-0.042,1.049,-37.354,58.288,-0.611,0,0,0,
,-0.043,-0.103,1.136,-80.506,14.587,-43.519,0,0,0,
,-0.016,-0.132,0.991,-102.112,-19.165,-56.214,0,0,0,
,0.041,-0.043,1.02,-175.171,16.235,-50.293,0,0,0,
,0.004,-0.046,1.042,-150.025,-13.001,-92.652,0,0,0,
,0.158,0.048,0.968,-140.381,35.339,-71.656,0,0,0,
,0.103,0.085,0.991,-99.366,1.77,-78.919,0,0,0,
,0.096,0.075,0.992,-48.279,0,-38.819,0,0,0,
,0.034,0.029,1.042,-7.386,10.681,-12.024,0,0,0,
,-0.016,0.007,1.078,-11.658,2.624,-1.77,0,0,0,
,-0.046,0.01,1.143,-29.664,-10.865,5.676,0,0,0,
,-0.096,0.015,1.215,-38.697,-59.327,6.774,0,0,0,
,-0.062,0.001,1.395,-153.443,-34.424,5.798,0,0,0,
,-0.081,0.076,1.063,-240.54,-56.397,5.493,0,0,0,
,-0.194,0.109,0.993,-132.63,-57.435,20.507,0,0,0,
,-0.213,-0.037,0.861,-49.622,-41.81,10.376,0,0,0,
,-0.279,-0.112,0.82,-49.5,-29.602,4.333,0,0,0,
,-0.333,-0.162,0.596,-37.293,20.385,-8.912,0,0,0,
,-0.356,-0.267,0.792,-25.513,31.799,-45.289,0,0,0,
,-0.169,-0.094,0.999,-107.361,95.947,-58.594,0,0,0,
,-0.113,0.117,1.181,-98.267,71.35,-63.66,0,0,0,
,-0.094,0.11,1.237,-28.26,40.405,-54.871,0,0,0,
,-0.17,-0.006,1.128,-54.139,2.563,-55.237,0,0,0,
,-0.116,0.023,1.035,-125.184,11.23,-45.35,0,0,0,
,-0.165,-0.011,0.995,-121.399,-10.926,-76.966,0,0,0,
,-0.12,0.035,0.917,-76.233,16.601,-76.294,0,0,0,
,-0.142,-0.009,0.861,-20.997,45.471,-74.463,0,0,0,
,-0.09,0.002,0.856,-3.724,78.369,-66.651,0,0,0,
,-0.035,0.041,0.948,-7.447,105.102,-59.51,0,0,0,
,0.045,0.104,1.032,20.263,113.098,-48.706,0,0,0,
,0.117,0.113,1.109,36.682,106.506,-45.105,0,0,0,
,0.043,0.006,0.996,-29.297,22.338,-13.611,0,0,0,
,0.063,0.009,0.948,-3.846,38.452,-7.691,0,0,0,
,0.078,0.035,0.964,24.536,46.264,-3.052,0,0,0,
,0.062,0.055,1.02,50.231,46.264,8.667,0,0,0,
,0.062,0.041,1.054,56.03,39.672,13.244,0,0,0,
,0.028,0.02,1.11,43.09,-1.831,26.184,0,0,0,
,-0.019,-0.032,1.272,-32.105,-12.696,4.394,0,0,0,
,0.073,0.096,1.185,-164.612,-28.809,8.789,0,0,0,
,-0.005,0.19,1.041,-174.805,-1.16,9.216,0,0,0,
,-0.042,0.166,0.992,-95.215,-58.594,13.549,0,0,0,
,-0.156,0.109,0.943,-56.397,-28.138,29.846,0,0,0,
,-0.229,0.033,0.873,-26.978,-10.01,34.24,0,0,0,
,-0.312,-0.093,0.834,2.197,21.667,20.996,0,0,0,
,-0.344,-0.206,0.737,10.315,43.396,-18.616,0,0,0,
,-0.168,-0.042,1.095,-34.729,82.641,-82.581,0,0,0,
,0.003,0.114,1.316,36.865,-48.706,-85.999,0,0,0,
,-0.27,-0.028,1.106,-96.314,-7.691,-71.106,0,0,0,
,-0.206,0.057,0.807,-86.121,-73.975,-72.51,0,0,0,
,-0.216,0.019,0.875,4.821,-18.25,-87.403,0,0,0,
,-0.144,0.011,0.93,67.749,-3.418,-97.962,0,0,0,
,-0.104,0.04,1.039,119.262,-39.917,-90.027,0,0,0,
,-0.093,0,1.004,127.99,21.911,-89.539,0,0,0,
,-0.104,0.007,1.048,104.004,21.179,-102.051,0,0,0,
,-0.039,0.009,1.105,79.406,-5.982,-108.46,0,0,0,
,-0.059,0.026,0.936,62.683,32.531,-93.201,0,0,0,
,-0.016,0.056,0.927,71.655,112.609,-72.571,0,0,0,
,0.172,0.118,1.029,109.314,72.815,-41.748,0,0,0,
,0.255,0.044,1.007,64.331,36.621,37.536,0,0,0,
,0.089,-0.169,1.115,53.955,-10.987,26.428,0,0,0,
,0.216,-0.136,1.098,-84.839,7.812,36.682,0,0,0,
,0.102,-0.111,1.143,-173.157,-38.758,13.305,0,0,0,
,0.126,-0.045,1.113,-202.637,-36.255,15.258,0,0,0,
,0.043,0.079,1.015,-252.564,-4.517,24.963,0,0,0,
,-0.011,0.12,0.98,-207.276,-22.339,39.245,0,0,0,
,-0.082,0.128,0.969,-109.986,-11.902,58.593,0,0,0,
,-0.178,0.019,0.971,-48.951,-10.254,38.635,0,0,0,
,-0.196,-0.042,0.959,-66.04,0.366,21.301,0,0,0,
,-0.213,-0.085,0.961,-98.511,0.244,0.549,0,0,0,
,-0.177,-0.09,0.999,-160.584,-0.489,-17.334,0,0,0,
,-0.149,-0.07,1.021,-220.887,-10.071,-35.401,0,0,0,
,-0.099,-0.034,1.06,-274.842,-33.448,-49.927,0,0,0,
,-0.081,-0.028,1.059,-328.248,-41.626,-82.886,0,0,0,
,-0.038,0.036,1,-357.178,-60.852,-105.591,0,0,0,
,-0.055,0.091,0.977,-337.769,-92.102,-131.897,0,0,0,
,-0.016,0.127,0.987,-328.919,-98.816,-142.212,0,0,0,
,-0.001,0.149,0.987,-332.825,-109.131,-146.485,0,0,0,
,0.016,0.173,0.991,-322.754,-125.794,-148.499,0,0,0,
,-0.01,0.173,0.966,-319.825,-151.673,-134.095,0,0,0,
,-0.046,0.16,0.932,-339.539,-166.81,-124.817,0,0,0,
,-0.081,0.159,0.912,-377.015,-165.406,-109.07,0,0,0,
,-0.086,0.142,0.839,-454.285,-174.5,-82.703,0,0,0,
,-0.161,0.168,0.852,-551.88,-229.432,-47.364,0,0,0,
,-0.245,0.244,0.819,-612.488,-253.663,-18.25,0,0,0,
,-0.301,0.317,0.804,-601.746,-251.404,10.986,0,0,0,
,-0.35,0.388,0.785,-508.362,-252.259,11.535,0,0,0,
,-0.379,0.359,0.782,-390.564,-216.553,27.343,0,0,0,
,-0.393,0.332,0.76,-300.965,-179.505,36.987,0,0,0,
,-0.419,0.369,0.748,-170.166,-137.024,22.522,0,0,0,
,-0.425,0.393,0.784,-10.682,-56.702,0,0,0,0,
,-0.389,0.421,0.855,205.627,16.967,-30.335,0,0,0,
,-0.334,0.382,0.932,396.545,71.655,-71.473,0,0,0,
,-0.285,0.302,0.956,501.77,102.295,-97.84,0,0,0,
,-0.243,0.225,0.965,491.15,126.037,-118.348,0,0,0,
,-0.199,0.248,1.009,410.278,134.826,-102.112,0,0,0,
,-0.163,0.272,1.066,326.294,138,-74.891,0,0,0,
,-0.137,0.241,1.087,220.764,129.943,-42.725,0,0,0,
,-0.135,0.251,1.085,140.564,123.413,-2.808,0,0,0,
,-0.123,0.275,1.066,104.553,114.929,14.953,0,0,0,
,-0.1,0.245,1.044,134.521,102.905,16.479,0,0,0,
,0.015,0.312,1.234,206.787,45.532,4.821,0,0,0,
,-0.019,0.127,1.123,291.32,-38.514,-12.269,0,0,0,
,-0.104,0.046,1.062,211.181,-64.759,-0.55,0,0,0,
,-0.122,0.102,1.022,159.729,-62.012,-24.048,0,0,0,
,-0.11,0.134,1.025,194.641,-42.115,-59.693,0,0,0,
,-0.129,0.053,0.995,194.519,13.366,-71.717,0,0,0,
,-0.085,0.035,0.978,108.154,65.856,-65.857,0,0,0,
,-0.059,0.03,0.921,-40.528,92.834,-38.392,0,0,0,
,-0.053,0.114,0.904,-153.443,111.023,6.774,0,0,0,
,-0.052,0.253,0.968,-129.7,118.103,43.945,0,0,0,
,-0.043,0.363,1.094,102.172,88.806,42.114,0,0,0,
,-0.065,0.132,1.144,276.916,56.152,-42.542,0,0,0,
,-0.147,-0.024,1.095,162.78,44.311,-21.912,0,0,0,
,-0.163,0.038,1.034,23.01,54.443,-35.706,0,0,0,
,-0.156,0.095,1.007,30.822,50.781,-41.138,0,0,0,
,-0.137,0.082,1.003,43.823,49.438,-40.223,0,0,0,
,-0.131,0.101,0.998,22.705,31.494,-34.119,0,0,0,
,-0.116,0.116,0.994,15.441,30.151,-31.556,0,0,0,
,-0.087,0.111,0.98,-1.709,28.808,-23.316,0,0,0,
,-0.071,0.109,0.987,-12.879,10.803,-23.865,0,0,0,
,-0.07,0.13,0.954,30.151,9.277,-21.18,0,0,0,
,-0.079,0.136,0.955,56.884,13.488,-25.696,0,0,0,
,-0.104,0.135,0.983,80.261,14.709,-17.273,0,0,0,
,-0.114,0.145,0.998,92.102,27.465,-26.734,0,0,0,
,-0.132,0.139,1.031,109.192,36.987,-26.612,0,0,0,
,-0.152,0.113,1.038,124.511,43.335,-14.649,0,0,0,
,-0.149,0.083,1.018,119.995,46.997,-5.921,0,0,0,
,-0.148,0.077,1.006,120.849,47.241,6.225,0,0,0,
,-0.136,0.06,1.015,123.901,60.241,9.46,0,0,0,
,-0.131,0.036,1.037,97.595,63.415,0.305,0,0,0,
,-0.117,0.023,1.037,60.119,68.603,-10.987,0,0,0,
,-0.115,0.056,1.014,52.185,61.95,-14.466,0,0,0,
,-0.11,0.061,0.985,70.19,54.321,-21.79,0,0,0,
,-0.12,0.086,0.987,72.387,45.776,-19.715,0,0,0,
,-0.12,0.088,1.004,80.383,54.443,-22.034,0,0,0,
,-0.113,0.084,1.039,106.262,46.081,-12.818,0,0,0,
,-0.122,0.01,1.052,125.61,54.87,-18.86,0,0,0,
,-0.116,-0.039,1.039,87.951,49.926,-23.682,0,0,0,
,-0.131,-0.068,1.006,27.343,28.259,-36.805,0,0,0,
,-0.131,-0.016,0.979,-18.494,29.419,-48.89,0,0,0,
,-0.11,0.041,0.961,-7.63,17.028,-34.852,0,0,0,
,-0.132,0.052,0.932,53.711,16.967,-17.701,0,0,0,
,-0.112,-0.026,0.936,90.332,30.456,-16.48,0,0,0,
,-0.101,-0.035,0.952,24.353,28.93,-20.997,0,0,0,
,-0.085,0.005,0.967,-7.386,36.071,-27.955,0,0,0,
,-0.073,0.022,0.987,-17.945,50.903,-33.326,0,0,0,
,-0.066,0.032,1,-43.519,60.302,-29.602,0,0,0,
,-0.029,0.053,1.07,-46.082,60.058,-9.339,0,0,0,
,-0.065,0.028,1.111,-43.519,73.364,2.319,0,0,0,
,-0.014,0,1.128,-45.838,68.725,12.451,0,0,0,
,-0.076,0.035,1.073,-1.343,79.162,14.77,0,0,0,
,-0.028,0.025,1.022,54.87,78.857,28.32,0,0,0,
,-0.064,0.009,1.004,70.251,48.584,23.803,0,0,0,
,-0.103,0,0.978,38.574,48.523,11.962,0,0,0,
,-0.098,0.038,0.984,16.052,52.063,-6.531,0,0,0,
,-0.086,0.044,0.994,-4.395,44.128,-33.631,0,0,0,
,-0.108,0.037,0.982,-27.161,25.695,-52.735,0,0,0,
,-0.112,0.054,0.998,-29.114,26.611,-62.867,0,0,0,
,-0.103,0.05,0.978,-9.156,26.367,-70.801,0,0,0,
,-0.074,0.035,1.005,4.394,26.306,-67.749,0,0,0,
,0.065,0.068,1.071,-4.578,52.734,-58.655,0,0,0,
,0.143,0.028,1.153,-13.062,1.098,-81.055,0,0,0,
,0.188,-0.03,1.182,-54.078,-43.519,-102.601,0,0,0,
,0.149,-0.094,1.13,-157.105,-74.158,-135.743,0,0,0,
,0.122,-0.027,1.045,-245.85,-94.544,-140.686,0,0,0,
,0.068,0.081,0.989,-193.299,-95.826,-118.409,0,0,0,
,0.033,0.062,0.989,-109.742,-71.839,-84.961,0,0,0,
,0.061,0.038,1.128,-160.462,-43.702,-38.636,0,0,0,
,-0.006,0.076,1.043,-212.098,-44.678,-23.133,0,0,0,
,-0.11,0.128,1.042,-182.557,-52.185,2.197,0,0,0,
,-0.136,0.073,0.988,-149.414,-47.791,-20.63,0,0,0,
,-0.245,0.058,0.936,-125.916,-47.73,-41.993,0,0,0,
,-0.273,0.093,0.904,-78.797,-24.414,-49.561,0,0,0,
,-0.322,0.084,0.822,-17.823,-9.156,-53.04,0,0,0,
,-0.399,-0.014,0.767,31.555,-22.95,-66.529,0,0,0,
,-0.388,-0.009,0.845,6.836,32.836,-56.519,0,0,0,
,-0.248,0.057,0.949,-19.349,56.091,-37.415,0,0,0,
,-0.208,0.164,1.089,3.173,65.673,-18.433,0,0,0,
,-0.176,0.175,1.13,80.749,52.856,-11.109,0,0,0,
,-0.167,0.128,1.102,149.658,37.475,-9.339,0,0,0,
,-0.139,0.043,1.018,173.706,46.325,-9.156,0,0,0,
,-0.124,-0.058,1.016,146.667,49.682,-28.016,0,0,0,
,-0.098,-0.068,0.892,136.23,57.8,-40.162,0,0,0,
,-0.055,-0.049,0.895,127.136,101.928,-32.959,0,0,0,
,-0.032,-0.038,0.947,101.196,128.845,-44.922,0,0,0,
,0.062,0.008,1.042,71.777,123.108,-48.34,0,0,0,
,0.119,0.049,1.103,25.451,108.398,-61.707,0,0,0,
,0.2,0.126,1.188,-14.039,98.144,-37.415,0,0,0,
,0.187,0.128,1.188,8.422,48.828,-32.593,0,0,0,
,0.162,0.111,1.053,68.054,4.699,-6.897,0,0,0,
,0.108,0.036,0.918,130.676,27.893,6.652,0,0,0,
,0.111,-0.011,0.901,148.01,38.208,23.925,0,0,0,
,0.119,-0.005,0.968,115.722,50.231,39.306,0,0,0,
,0.064,-0.002,1.048,82.519,29.419,44.189,0,0,0,
,-0.001,-0.008,1.097,53.466,1.892,37.963,0,0,0,
,-0.027,-0.065,1.329,44.738,-120.606,12.756,0,0,0,
,-0.06,-0.19,1.15,-178.04,-13.245,-32.349,0,0,0,
,-0.145,-0.086,1.027,-339.661,-131.226,-59.693,0,0,0,
,-0.169,-0.025,0.826,-337.159,-60.486,-78.431,0,0,0,
,-0.375,0.033,0.631,-245.362,-76.294,-101.441,0,0,0,
,-0.391,0.017,0.769,-152.894,-4.395,-100.525,0,0,0,
,-0.257,0.195,1.077,-97.962,11.169,-62.745,0,0,0,
,-0.215,0.244,1.214,10.742,57.067,-15.931,0,0,0,
,-0.217,0.145,1.115,114.196,75.134,3.418,0,0,0,
,-0.183,0.048,0.994,143.859,105.59,38.513,0,0,0,
,-0.106,0.001,0.963,154.724,115.905,52.307,0,0,0,
,-0.08,-0.002,0.975,161.804,100.769,58.471,0,0,0,
,-0.043,-0.009,1.002,188.171,108.581,41.076,0,0,0,
,-0.13,-0.142,0.905,160.583,121.948,2.746,0,0,0,
,-0.021,-0.078,0.876,96.435,127.136,-14.649,0,0,0,
,-0.023,-0.06,0.925,22.888,107.666,-42.725,0,0,0,
,0.031,0.023,0.941,-25.696,108.703,-55.603,0,0,0,
,0.098,0.087,1.008,-7.081,100.463,-65.735,0,0,0,
,0.18,0.211,0.874,76.538,81.298,-52.857,0,0,0,
,0.218,0.151,1.003,143.066,57.312,-34.79,0,0,0,
,0.368,0.162,1.289,179.382,6.774,-18.433,0,0,0,
,-0.029,-0.099,1.175,285.339,-105.469,-66.529,0,0,0,
,0.054,-0.253,1.068,68.115,18.005,-54.444,0,0,0,
,-0.003,-0.291,1.139,-92.591,13.977,-91.919,0,0,0,
,0.047,-0.239,1.144,-248.23,0.061,-105.164,0,0,0,
,0.016,-0.081,1.068,-307.557,-8.24,-99.732,0,0,0,
,0.015,0.078,1.009,-253.724,-11.78,-64.393,0,0,0,
,0.018,0.148,1.066,-155.03,-21.363,-32.776,0,0,0,
,0.035,0.2,1.087,-63.965,-42.847,-6.226,0,0,0,
,-0.078,0.124,1.005,26.55,-22.4,22.522,0,0,0,
,-0.061,0.034,0.958,68.725,-2.015,43.518,0,0,0,
,-0.093,-0.037,1.021,75.378,4.943,30.7,0,0,0,
,-0.091,-0.078,1.01,46.081,5.371,24.169,0,0,0,
,-0.174,-0.149,0.909,-35.096,22.277,10.742,0,0,0,
,-0.274,-0.223,0.953,-32.044,6.53,-13.306,0,0,0,
,-0.101,-0.119,1.026,-101.624,40.832,-12.513,0,0,0,
,-0.118,-0.043,1.107,-179.932,31.189,-16.419,0,0,0,
,-0.104,-0.016,0.998,-202.576,27.71,-10.682,0,0,0,
,-0.102,0.024,0.964,-168.946,46.63,-6.958,0,0,0,
,-0.073,0.066,0.901,-103.577,69.702,-13.489,0,0,0,
,-0.085,0.082,0.863,-58.228,58.227,-10.254,0,0,0,
,-0.091,0.158,0.872,58.227,62.072,5.249,0,0,0,
,-0.289,-0.013,0.713,239.502,32.104,-16.053,0,0,0,
,-0.165,0.013,0.82,242.492,158.264,19.958,0,0,0,
,-0.009,0.046,0.987,254.821,106.75,-2.869,0,0,0,
,0.08,0.056,1.173,265.869,103.942,-1.465,0,0,0,
,0.176,0.053,1.182,219.97,50.415,-11.353,0,0,0,
,0.274,0.001,1.225,138.244,-14.283,-20.02,0,0,0,
,0.375,0.011,1.303,19.348,-5.799,-14.832,0,0,0,
,0.088,-0.2,0.862,60.607,-120.24,-45.655,0,0,0,
,0.14,-0.137,0.868,10.559,32.898,1.159,0,0,0,
,0.161,-0.086,0.942,-11.719,-17.762,-10.498,0,0,0,
,0.097,-0.073,1.108,26.367,18.066,-2.564,0,0,0,
,0.061,-0.137,1.352,23.925,-61.28,-15.686,0,0,0,
,0.162,-0.082,1.357,-150.879,28.808,8.178,0,0,0,
,0.056,0.049,1.167,-282.532,-60.425,8.606,0,0,0,
,0.086,0.157,0.948,-160.645,2.929,57.922,0,0,0,
,-0.037,0.059,0.934,22.277,-55.542,34.24,0,0,0,
,-0.079,-0.102,0.872,-3.602,9.704,46.508,0,0,0,
,-0.166,-0.086,0.894,-38.269,-2.198,45.227,0,0,0,
,-0.155,-0.114,1.019,5.798,37.597,32.714,0,0,0,
,-0.104,-0.131,1.051,-46.265,38.33,16.357,0,0,0,
,-0.06,-0.044,1.091,-84.412,24.963,12.451,0,0,0,
,-0.059,-0.011,1.045,-84.656,9.521,1.342,0,0,0,
,-0.05,0.006,1.002,-96.985,-9.766,8.667,0,0,0,
,-0.067,0.051,0.914,-86.731,-5.372,9.033,0,0,0,
,-0.044,0.049,0.885,-33.143,7.202,7.873,0,0,0,
,-0.059,-0.017,0.822,-3.968,12.451,5.615,0,0,0,
,-0.069,-0.028,0.797,6.836,26.733,1.525,0,0,0,
,-0.095,-0.075,0.96,37.109,21.728,-25.33,0,0,0,
,0.045,-0.055,1.018,-1.77,38.208,-36.805,0,0,0,
,-0.005,0.001,1.114,-9.949,13.794,-31.556,0,0,0,
,0.056,0.03,1.131,-12.391,36.071,-21.912,0,0,0,
,0.18,0.07,1.19,-79.834,-5.921,-0.428,0,0,0,
,0.131,0.049,1.164,-85.022,-43.213,9.948,0,0,0,
,0.096,-0.03,0.994,-82.764,-19.227,12.39,0,0,0,
,0.067,-0.05,0.833,-120.911,-36.683,9.582,0,0,0,
,0,-0.004,0.89,-91.919,2.563,5.127,0,0,0,
,-0.008,-0.002,0.902,-35.523,10.315,-0.245,0,0,0,
,-0.071,-0.03,0.922,-1.465,39.062,-7.325,0,0,0,
,-0.091,0.003,0.947,44.799,30.944,-23.499,0,0,0,
,-0.166,-0.015,0.924,69.946,43.823,-38.086,0,0,0,
,-0.185,-0.033,1.07,90.271,12.878,-42.969,0,0,0,
,-0.206,-0.066,0.945,83.19,36.865,-41.26,0,0,0,
,-0.168,-0.021,1.03,16.235,39.062,-36.866,0,0,0,
,-0.147,-0.021,0.984,24.108,-0.306,-27.039,0,0,0,
,-0.222,-0.064,0.925,73.73,9.704,-41.687,0,0,0,
,-0.133,-0.081,0.895,124.511,25.39,-49.744,0,0,0,
,-0.004,-0.065,1.129,90.148,6.652,-68.604,0,0,0,
,0.069,-0.057,1.143,22.766,-10.865,-82.215,0,0,0,
,0.054,-0.021,1.039,-39.002,-8.789,-51.819,0,0,0,
,0.18,-0.026,1.27,-101.624,-38.086,-26.917,0,0,0,
,0.253,-0.051,1.05,-158.387,-18.006,-30.518,0,0,0,
,0.116,-0.15,1.017,-153.077,-61.28,-23.133,0,0,0,
,0.198,-0.162,0.929,-191.468,20.752,-15.992,0,0,0,
,0.186,-0.157,0.992,-255.066,-16.663,-13.916,0,0,0,
,0.194,-0.078,1.05,-299.683,-0.977,-9.644,0,0,0,
,0.15,-0.074,1.037,-321.228,-35.279,-20.874,0,0,0,
,0.056,-0.081,1.005,-415.162,-51.392,-20.63,0,0,0,
,0.014,-0.046,0.976,-490.601,-49.744,-34.241,0,0,0,
,0.018,-0.043,0.99,-507.142,-68.299,-55.848,0,0,0,
,-0.003,-0.022,1.055,-525.269,-101.197,-117.554,0,0,0,
,0.047,-0.056,1.047,-516.663,-109.253,-173.218,0,0,0,
,0.081,-0.026,1.048,-619.935,-122.193,-206.665,0,0,0,
,0.092,0.085,1.054,-692.505,-180.42,-232.789,0,0,0,
,0.141,0.189,1.01,-708.985,-226.38,-223.023,0,0,0,
,0.126,0.267,0.962,-683.655,-324.097,-210.389,0,0,0,
,0.039,0.286,0.981,-692.2,-443.97,-201.05,0,0,0,
,-0.039,0.322,0.982,-720.337,-477.539,-223.999,0,0,0,
,-0.099,0.361,0.956,-659.119,-480.713,-248.414,0,0,0,
,-0.136,0.382,0.891,-511.048,-460.267,-277.222,0,0,0,
,-0.176,0.431,0.797,-288.697,-455.75,-316.529,0,0,0,
,-0.249,0.452,0.721,-12.024,-447.266,-360.535,0,0,0,
,-0.331,0.429,0.682,273.498,-411.988,-415.101,0,0,0,
,-0.367,0.349,0.657,418.701,-369.873,-471.68,0,0,0,
,-0.415,0.243,0.678,459.35,-314.515,-518.25,0,0,0,
,-0.434,0.238,0.73,449.89,-211.243,-523.987,0,0,0,
,-0.429,0.349,0.738,493.042,-92.164,-500.061,0,0,0,
,-0.412,0.528,0.749,681.701,31.616,-468.201,0,0,0,
,-0.391,0.462,0.768,841.43,102.111,-468.811,0,0,0,
,-0.324,0.25,0.832,826.049,160.278,-430.054,0,0,0,
,-0.276,0.096,0.92,591.186,166.442,-334.839,0,0,0,
,-0.273,0.088,1.015,200.378,152.588,-230.652,0,0,0,
,-0.27,0.235,1.066,-131.043,168.029,-144.776,0,0,0,
,-0.247,0.406,1.017,-260.437,184.021,-79.651,0,0,0,
,-0.22,0.463,1.014,-162.293,180.969,-62.745,0,0,0,
,-0.197,0.407,1.007,-3.357,177.856,-29.48,0,0,0,
,-0.16,0.315,1.017,156.555,163.818,-32.654,0,0,0,
,-0.106,0.206,1.033,255.249,142.395,-20.264,0,0,0,
,-0.078,0.122,1.057,265.38,94.116,-19.41,0,0,0,
,-0.079,0.121,1.106,226.196,50.964,-14.1,0,0,0,
,-0.074,0.162,1.126,213.073,28.564,-3.724,0,0,0,
,-0.074,0.141,1.127,223.022,7.69,-5.372,0,0,0,
,-0.07,0.103,1.109,190.734,-0.061,9.521,0,0,0,
,-0.066,0.083,1.068,130.798,3.295,25.817,0,0,0,
,-0.067,0.076,1.035,66.04,19.348,41.076,0,0,0,
,-0.046,0.096,0.988,41.442,41.015,58.654,0,0,0,
,-0.043,0.11,0.984,65.918,54.138,74.89,0,0,0,
,-0.051,0.063,0.997,88.623,74.462,68.42,0,0,0,
,-0.039,0.048,0.997,141.479,97.29,40.466,0,0,0,
,-0.004,0.034,1.003,202.27,97.045,8.239,0,0,0,
,0.005,-0.026,0.986,233.276,82.336,-19.715,0,0,0,
,0.027,-0.022,1.082,178.344,50.842,-32.227,0,0,0,
,0.012,-0.003,1.084,160.095,8.544,-65.43,0,0,0,
,-0.019,-0.01,1.065,156.982,8.789,-70.923,0,0,0,
,-0.021,0.02,1.055,127.014,5.737,-69.886,0,0,0,
,-0.042,0.028,1.054,102.172,-3.846,-38.453,0,0,0,
,-0.074,0.005,1.046,66.894,12.634,4.76,0,0,0,
,-0.089,0.023,1.008,21.911,32.104,46.936,0,0,0,
,-0.098,0.041,0.963,54.138,55.481,75.927,0,0,0,
,-0.092,0.039,0.982,89.599,63.049,84.167,0,0,0,
,-0.064,-0.009,1.001,105.835,55.786,67.871,0,0,0,
,-0.058,-0.015,1.022,78.857,35.095,54.992,0,0,0,
,-0.062,0.033,1.016,95.459,32.104,17.089,0,0,0,
,-0.048,0.042,1.01,155.639,42.724,-17.334,0,0,0,
,-0.067,0.031,0.994,181.701,40.283,-16.846,0,0,0,
,-0.064,0.005,1.009,193.725,38.635,-5.921,0,0,0,
,-0.073,0.013,1.039,164.428,21.423,15.93,0,0,0,
,-0.093,-0.016,1.035,163.208,23.803,12.939,0,0,0,
,-0.083,-0.022,1.051,157.165,20.935,15.136,0,0,0,
,-0.084,-0.024,1.052,166.809,12.878,17.822,0,0,0,
,-0.066,-0.06,1.04,170.532,4.15,26.001,0,0,0,
,-0.067,-0.068,1.013,157.653,-0.245,33.569,0,0,0,
,-0.06,-0.074,0.998,131.408,0.305,24.292,0,0,0,
,-0.045,-0.07,0.989,110.839,12.329,15.258,0,0,0,
,-0.027,-0.062,0.988,113.22,17.944,6.347,0,0,0,
,-0.037,-0.067,0.999,119.201,13.122,8.911,0,0,0,
,-0.062,-0.075,1.021,116.455,13.183,-2.686,0,0,0,
,-0.092,-0.11,1.03,105.713,15.93,-7.386,0,0,0,
,-0.102,-0.119,1.026,98.266,11.901,-5.86,0,0,0,
,-0.121,-0.145,1.007,99.121,1.037,-8.179,0,0,0,
,-0.144,-0.163,1.003,89.111,0.976,-8.057,0,0,0,
,-0.167,-0.142,1.013,79.956,9.643,-29.419,0,0,0,
,-0.151,-0.108,1.051,104.675,27.893,-43.091,0,0,0,
,-0.119,-0.131,1.067,114.624,37.536,-34.119,0,0,0,
,-0.072,-0.159,1.036,72.692,31.677,-21.058,0,0,0,
,-0.04,-0.168,1.003,27.526,19.775,-4.7,0,0,0,
,-0.044,-0.172,0.979,-8.484,12.146,-8.362,0,0,0,
,-0.067,-0.105,0.959,-18.189,21.972,-18.067,0,0,0,
,-0.086,-0.09,0.989,27.221,39.428,-40.711,0,0,0,
,-0.078,-0.114,1.01,56.579,37.292,-23.621,0,0,0,
,-0.081,-0.146,1.032,80.139,19.775,-7.63,0,0,0,
,-0.09,-0.231,1.034,65.918,8.789,-10.254,0,0,0,
,-0.05,-0.278,1.034,-1.77,1.098,-11.963,0,0,0,
,-0.07,-0.265,1.019,-73.426,-10.254,-39.795,0,0,0,
,-0.09,-0.213,1.016,-109.62,11.23,-65.918,0,0,0,
,-0.055,-0.189,1.01,-126.587,32.653,-74.158,0,0,0,
,-0.049,-0.166,1.029,-153.26,37.719,-82.642,0,0,0,
,-0.081,-0.142,0.979,-148.682,42.236,-81.665,0,0,0,
,-0.018,-0.078,1.012,-119.812,82.214,-65.979,0,0,0,
,-0.065,-0.108,0.93,-79.346,53.527,-57.373,0,0,0,
,-0.092,-0.113,0.996,-66.468,89.233,-37.72,0,0,0,
,-0.06,-0.121,0.889,-55.298,86.486,-35.828,0,0,0,
,-0.119,-0.145,0.924,-49.317,123.901,-36.194,0,0,0,
,-0.012,-0.105,0.932,-67.017,122.741,-36.56,0,0,0,
,-0.018,-0.091,1.002,-61.646,112.548,-44.312,0,0,0,
,0.059,-0.103,1.007,-94.178,110.962,-52.369,0,0,0,
,0.149,-0.073,1.05,-153.077,80.017,-66.04,0,0,0,
,0.081,-0.066,1.088,-198.365,35.583,-84.107,0,0,0,
,0.101,-0.081,0.949,-220.459,10.437,-82.947,0,0,0,
,0.068,-0.032,0.916,-167.725,25.451,-88.44,0,0,0,
,0.088,-0.032,0.905,-131.47,1.464,-74.524,0,0,0,
,0.107,-0.048,0.944,-116.272,24.353,-73.792,0,0,0,
,0.178,-0.017,1.016,-96.985,50.048,-77.698,0,0,0,
,0.187,-0.04,1.087,-69.153,28.381,-65.674,0,0,0,
,0.132,-0.039,1.052,-64.576,12.329,-55.909,0,0,0,
,0.1,-0.052,1.05,-64.576,-10.743,-51.026,0,0,0,
,0.076,-0.045,1.08,-66.285,-36.255,-44.251,0,0,0,
,0.135,-0.013,1.198,-83.558,-44.007,-44.556,0,0,0,
,0.098,0.01,1.052,-119.446,-61.768,-39.978,0,0,0,
,-0.002,0.023,1.019,-107.3,-99.488,-12.452,0,0,0,
,-0.098,0.011,0.965,-22.522,-70.984,-7.203,0,0,0,
,-0.182,-0.039,0.933,37.719,-43.457,-3.54,0,0,0,
,-0.28,-0.08,0.941,76.599,-13.977,-11.048,0,0,0,
,-0.341,-0.14,0.953,91.43,8.667,-24.048,0,0,0,
,-0.402,-0.204,0.966,87.829,8.056,-41.321,0,0,0,
,-0.386,-0.218,0.974,11.84,30.639,-59.449,0,0,0,
,-0.266,-0.107,1.036,-49.622,49.438,-54.383,0,0,0,
,-0.176,0.011,1.071,-18.799,26.55,-42.115,0,0,0,
,-0.118,0.076,1.102,41.87,13.427,-20.63,0,0,0,
,-0.07,0.074,1.068,97.229,6.836,-2.076,0,0,0,
,-0.07,0.041,1.021,136.535,4.089,14.77,0,0,0,
,-0.124,-0.048,0.83,162.231,26.367,34.545,0,0,0,
,-0.096,-0.097,0.826,156.86,103.332,51.086,0,0,0,
,-0.029,-0.114,0.836,156.921,98.51,55.481,0,0,0,
,0.036,-0.114,0.999,139.221,108.764,64.453,0,0,0,
,0.219,-0.057,1.149,112.426,113.159,78.491,0,0,0,
,0.182,-0.118,1.178,106.079,55.053,72.631,0,0,0,
,0.167,-0.174,1.19,54.809,35.034,63.964,0,0,0,
,0.1,-0.276,1.001,-14.222,-8.973,39.917,0,0,0,
,0.041,-0.282,0.906,-91.919,15.991,27.099,0,0,0,
,0.151,-0.239,0.916,-150.879,40.832,2.319,0,0,0,
,0.179,-0.167,0.944,-188.477,35.644,-21.119,0,0,0,
,0.2,-0.08,0.969,-189.698,39.367,-17.395,0,0,0,
,0.188,-0.013,0.975,-146.18,20.996,-24.109,0,0,0,
,0.159,-0.039,1.012,-136.475,10.376,-18.616,0,0,0,
,0.155,-0.012,1.091,-204.102,-3.54,-5.799,0,0,0,
,0.19,0.02,1.178,-292.969,-22.583,-10.132,0,0,0,
,0.087,0.044,1.137,-244.751,-77.21,5.859,0,0,0,
,-0.035,0.049,1.08,-155.701,-73.487,24.231,0,0,0,
,-0.094,-0.09,1.016,-131.592,-70.679,25.756,0,0,0,
,-0.203,-0.098,0.98,-130.066,-55.298,30.7,0,0,0,
