TIMECODE,ACC_X,ACC_Y,ACC_Z,GYR_X,GYR_Y,GYR_Z,TAG
00:00:00:0,0.15,-0.621,0.787,-4.883,16.784,-44.8,
00:00:00:16,0.153,-0.619,0.753,-4.578,15.991,-41.382,
00:00:00:33,0.161,-0.621,0.78,4.028,14.282,-42.298,
00:00:00:50,0.164,-0.619,0.778,5.981,11.657,-46.875,
00:00:00:66,0.159,-0.613,0.781,18.737,-0.245,-60.852,
00:00:00:83,0.152,-0.622,0.783,34.179,-15.625,-79.224,
00:00:00:100,0.146,-0.625,0.789,41.015,-20.02,-80.811,
00:00:00:116,0.146,-0.624,0.791,55.481,-24.598,-86.426,
00:00:00:133,0.144,-0.65,0.779,48.339,-7.569,-62.989,
00:00:00:150,0.156,-0.651,0.775,30.395,-6.165,-65.308,
00:00:00:166,0.149,-0.648,0.772,14.16,-9.339,-65.613,
00:00:00:183,0.14,-0.645,0.78,6.958,-11.841,-63.233,
00:00:00:200,0.135,-0.639,0.777,5.737,-5.433,-51.026,
00:00:00:216,0.14,-0.644,0.777,10.559,0.305,-54.81,
00:00:00:233,0.144,-0.651,0.774,10.62,-0.367,-56.885,
00:00:00:250,0.133,-0.648,0.777,0.732,-0.184,-46.204,
00:00:00:266,0.136,-0.649,0.774,-1.038,4.699,-39.49,
00:00:00:283,0.136,-0.646,0.777,-1.709,8.3,-31.556,
00:00:00:300,0.138,-0.649,0.772,-1.221,11.413,-28.748,
00:00:00:316,0.139,-0.648,0.771,-0.55,10.742,-28.809,
00:00:00:333,0.137,-0.648,0.774,0,18.493,-31.495,
00:00:00:350,0.135,-0.645,0.775,3.479,22.766,-28.748,
00:00:00:366,0.137,-0.646,0.775,2.624,23.254,-24.231,
00:00:00:383,0.141,-0.649,0.774,-0.977,18.554,-25.269,
00:00:00:400,0.138,-0.651,0.772,-4.456,16.052,-27.283,
00:00:00:416,0.137,-0.65,0.771,-5.921,20.507,-22.156,
00:00:00:433,0.138,-0.645,0.773,-11.536,23.376,-25.818,
00:00:00:450,0.144,-0.645,0.77,-7.081,21.423,-23.438,
00:00:00:466,0.145,-0.647,0.767,-5.31,16.235,-29.114,
00:00:00:483,0.143,-0.648,0.761,-3.479,9.643,-33.02,
00:00:00:500,0.139,-0.651,0.766,-10.865,6.286,-32.898,
00:00:00:516,0.138,-0.646,0.768,-14.893,5.615,-38.88,
00:00:00:533,0.136,-0.643,0.768,-8.179,4.882,-34.485,
00:00:00:550,0.141,-0.643,0.767,-3.785,7.629,-34.485,
00:00:00:566,0.14,-0.653,0.77,-5.433,7.873,-35.401,
00:00:00:583,0.143,-0.652,0.766,-7.386,4.333,-38.819,
00:00:00:600,0.139,-0.65,0.771,-8.24,6.164,-36.56,
00:00:00:616,0.14,-0.649,0.772,-5.31,7.629,-34.485,
00:00:00:633,0.137,-0.65,0.775,-1.587,7.202,-34.79,
00:00:00:650,0.136,-0.661,0.771,-1.343,11.23,-35.645,
00:00:00:666,0.139,-0.657,0.762,-7.813,6.164,-35.523,
00:00:00:683,0.136,-0.651,0.767,-8.912,3.295,-34.974,
00:00:00:700,0.133,-0.649,0.765,-2.747,8.178,-31.25,
00:00:00:716,0.139,-0.651,0.768,0.305,10.681,-29.602,
00:00:00:733,0.143,-0.657,0.768,-15.564,16.601,-32.837,
00:00:00:750,0.142,-0.652,0.768,1.037,12.939,-36.499,
00:00:00:766,0.137,-0.648,0.767,7.568,9.033,-37.415,
00:00:00:783,0.135,-0.648,0.763,18.615,6.042,-43.946,
00:00:00:800,0.136,-0.648,0.768,29.541,2.258,-46.265,
00:00:00:816,0.13,-0.655,0.763,30.761,8.606,-45.594,
00:00:00:833,0.134,-0.667,0.753,20.752,12.085,-40.65,
00:00:00:850,0.136,-0.677,0.756,-7.63,10.986,-37.781,
00:00:00:866,0.136,-0.667,0.763,-30.152,11.657,-34.424,
00:00:00:883,0.135,-0.652,0.765,-29.297,12.023,-31.189,
00:00:00:900,0.136,-0.655,0.769,-17.884,18.92,-32.715,
00:00:00:916,0.14,-0.663,0.761,-13.489,14.16,-27.039,
00:00:00:933,0.135,-0.664,0.762,-23.194,8.667,-29.969,
00:00:00:950,0.135,-0.66,0.767,-24.231,10.742,-28.992,
00:00:00:966,0.134,-0.654,0.767,-21.79,12.207,-30.457,
00:00:00:983,0.133,-0.659,0.775,-13.977,16.357,-34.485,
00:00:01:0,0.143,-0.648,0.754,-11.597,18.554,-35.584,
00:00:01:16,0.135,-0.663,0.759,-5.066,12.573,-36.133,
00:00:01:33,0.134,-0.672,0.75,-9.095,12.512,-34.607,
00:00:01:50,0.133,-0.668,0.758,-29.175,10.62,-35.462,
00:00:01:66,0.135,-0.655,0.761,-37.049,6.958,-38.331,
00:00:01:83,0.133,-0.643,0.769,-31.861,7.629,-39.673,
00:00:01:100,0.136,-0.65,0.766,-16.541,8.178,-40.894,
00:00:01:116,0.135,-0.661,0.762,-15.381,12.329,-40.101,
00:00:01:133,0.135,-0.66,0.765,-21.302,7.263,-41.016,
00:00:01:150,0.135,-0.653,0.766,-16.907,6.225,-37.72,
00:00:01:166,0.133,-0.653,0.771,-9.705,9.277,-34.302,
00:00:01:183,0.136,-0.664,0.765,-8.728,9.399,-30.335,
00:00:01:200,0.135,-0.659,0.762,-10.804,8.911,-33.387,
00:00:01:216,0.133,-0.658,0.761,-13.428,7.324,-33.997,
00:00:01:233,0.132,-0.656,0.762,-15.503,8.483,-32.166,
00:00:01:250,0.133,-0.654,0.767,-14.222,11.596,-33.204,
00:00:01:266,0.132,-0.656,0.767,-10.987,12.39,-33.692,
00:00:01:283,0.134,-0.661,0.761,-9.034,10.376,-32.471,
00:00:01:300,0.135,-0.663,0.764,-7.752,8.483,-31.25,
00:00:01:316,0.131,-0.657,0.763,-10.743,8.117,-31.678,
00:00:01:333,0.132,-0.656,0.76,-8.789,12.023,-29.786,
00:00:01:350,0.131,-0.66,0.758,-5.005,8.667,-29.847,
00:00:01:366,0.131,-0.66,0.762,-8.789,9.338,-28.87,
00:00:01:383,0.132,-0.66,0.757,-9.766,8.728,-28.504,
00:00:01:400,0.134,-0.658,0.767,-14.222,10.925,-27.405,
00:00:01:416,0.135,-0.659,0.765,-12.207,10.925,-29.236,
00:00:01:433,0.133,-0.657,0.762,-14.1,9.643,-30.579,
00:00:01:450,0.133,-0.658,0.765,-11.658,12.939,-46.875,
00:00:01:466,0.133,-0.661,0.761,-13.001,10.498,-33.57,
00:00:01:483,0.133,-0.658,0.767,-15.259,6.591,-32.532,
00:00:01:500,0.133,-0.658,0.763,-12.391,8.667,-32.105,
00:00:01:516,0.128,-0.66,0.763,-11.841,8.422,-30.823,
00:00:01:533,0.13,-0.662,0.76,-12.879,11.779,-46.265,
00:00:01:550,0.133,-0.658,0.764,-16.541,8.117,-32.227,
00:00:01:566,0.132,-0.657,0.769,-12.574,10.192,-35.096,
00:00:01:583,0.132,-0.656,0.764,-13.062,6.774,-35.584,
00:00:01:600,0.13,-0.659,0.761,-6.958,12.695,-34.302,
00:00:01:616,0.132,-0.662,0.758,-11.048,9.948,-35.462,
00:00:01:633,0.129,-0.661,0.763,-0.061,6.042,-33.936,
00:00:01:650,0.133,-0.659,0.758,-12.879,8.544,-33.631,
00:00:01:666,0.13,-0.661,0.764,-14.222,8.117,-33.081,
00:00:01:683,0.129,-0.658,0.763,-16.663,9.948,-30.762,
00:00:01:700,0.132,-0.658,0.764,-13.733,8.972,-33.326,
00:00:01:716,0.131,-0.661,0.763,-11.658,9.826,-32.593,
00:00:01:733,0.134,-0.66,0.761,-14.222,7.141,-33.02,
00:00:01:750,0.129,-0.66,0.761,-14.161,8.422,-33.448,
00:00:01:766,0.127,-0.657,0.763,-13.672,5.92,-31.739,
00:00:01:783,0.13,-0.664,0.763,-11.109,11.047,-30.152,
00:00:01:800,0.129,-0.664,0.759,-12.33,10.742,-30.823,
00:00:01:816,0.132,-0.66,0.763,-15.748,10.559,-29.175,
00:00:01:833,0.133,-0.657,0.76,-13.733,6.53,-30.213,
00:00:01:850,0.127,-0.662,0.77,-10.987,9.338,-30.701,
00:00:01:866,0.133,-0.662,0.763,-10.01,8.789,-31.434,
00:00:01:883,0.133,-0.657,0.761,-12.024,6.103,-30.701,
00:00:01:900,0.13,-0.66,0.765,-6.958,5.127,-33.204,
00:00:01:916,0.131,-0.663,0.765,-5.982,8.85,-31.495,
00:00:01:933,0.13,-0.665,0.757,-8.545,5.737,-34.241,
00:00:01:950,0.13,-0.665,0.763,-10.987,10.009,-30.091,
00:00:01:966,0.131,-0.663,0.76,-11.353,4.028,-33.57,
00:00:01:983,0.131,-0.662,0.762,-11.109,6.286,-34.546,
00:00:02:0,0.13,-0.66,0.761,-10.376,8.483,-34.363,
00:00:02:16,0.125,-0.664,0.757,-13.245,10.253,-33.326,
00:00:02:33,0.129,-0.662,0.761,-13.916,5.737,-34.363,
00:00:02:50,0.122,-0.658,0.759,-17.456,8.361,-35.401,
00:00:02:66,0.127,-0.663,0.757,-12.33,11.047,-31.861,
00:00:02:83,0.13,-0.665,0.753,-14.649,13.244,-34.852,
00:00:02:100,0.128,-0.668,0.758,-21.912,14.709,-38.269,
00:00:02:116,0.126,-0.659,0.76,-27.527,17.822,-37.903,
00:00:02:133,0.127,-0.654,0.768,-21.912,18.981,-37.964,
00:00:02:150,0.131,-0.659,0.768,-14.893,18.371,-36.927,
00:00:02:166,0.128,-0.663,0.77,-10.498,14.587,-34.852,
00:00:02:183,0.128,-0.666,0.765,-11.597,14.099,-33.57,
00:00:02:200,0.129,-0.667,0.768,-15.686,14.587,-32.593,
00:00:02:216,0.128,-0.661,0.761,-16.114,4.943,-31.434,
00:00:02:233,0.127,-0.662,0.764,-12.146,10.253,-30.274,
00:00:02:250,0.131,-0.663,0.76,-10.743,13,-29.236,
00:00:02:266,0.129,-0.662,0.757,-10.621,11.047,-32.593,
00:00:02:283,0.129,-0.661,0.761,-13.916,10.742,-33.326,
00:00:02:300,0.127,-0.662,0.761,-13.733,12.634,-32.715,
00:00:02:316,0.13,-0.66,0.763,-13.428,12.451,-31.25,
00:00:02:333,0.126,-0.663,0.76,-14.405,11.657,-31.373,
00:00:02:350,0.129,-0.661,0.763,-13.55,10.559,-32.593,
00:00:02:366,0.126,-0.662,0.761,-13.123,9.216,-30.457,
00:00:02:383,0.127,-0.664,0.76,-11.109,11.474,-29.664,
00:00:02:400,0.128,-0.665,0.759,-14.039,7.751,-30.274,
00:00:02:416,0.13,-0.66,0.759,-14.283,8.239,-30.274,
00:00:02:433,0.126,-0.658,0.764,-30.884,9.704,-32.898,
00:00:02:450,0.129,-0.659,0.763,-11.536,10.07,-32.105,
00:00:02:466,0.127,-0.662,0.761,-8.484,10.62,-33.875,
00:00:02:483,0.126,-0.667,0.758,-10.254,10.131,-31.25,
00:00:02:500,0.127,-0.664,0.759,-12.085,13.183,-30.579,
00:00:02:516,0.128,-0.665,0.756,-11.292,14.038,-31.25,
00:00:02:533,0.128,-0.665,0.76,-16.48,12.756,-31.189,
00:00:02:550,0.128,-0.661,0.762,-15.931,10.315,-28.748,
00:00:02:566,0.126,-0.662,0.761,-11.414,9.033,-29.725,
00:00:02:583,0.126,-0.664,0.765,-11.048,7.385,-30.518,
00:00:02:600,0.129,-0.662,0.762,-11.17,10.376,-30.64,
00:00:02:616,0.126,-0.663,0.756,-12.024,7.69,-32.349,
00:00:02:633,0.122,-0.662,0.756,-13.733,11.596,-32.044,
00:00:02:650,0.127,-0.665,0.76,-12.269,12.939,-29.419,
00:00:02:666,0.127,-0.663,0.759,-15.381,14.16,-32.105,
00:00:02:683,0.128,-0.662,0.762,-12.574,12.756,-31.861,
00:00:02:700,0.13,-0.668,0.762,-11.292,9.521,-30.152,
00:00:02:716,0.131,-0.668,0.763,-13.367,9.521,-31.128,
00:00:02:733,0.127,-0.661,0.762,-15.442,8.422,-30.457,
00:00:02:750,0.126,-0.663,0.763,-8.606,9.765,-31.678,
00:00:02:766,0.126,-0.667,0.759,-11.109,9.277,-31.311,
00:00:02:783,0.127,-0.665,0.761,-13.977,10.62,-34.424,
00:00:02:800,0.125,-0.664,0.76,-12.574,9.033,-32.959,
00:00:02:816,0.126,-0.666,0.762,-14.466,10.803,-34.18,
00:00:02:833,0.125,-0.666,0.756,-15.137,10.009,-32.654,
00:00:02:850,0.127,-0.66,0.76,-17.029,9.46,-32.654,
00:00:02:866,0.126,-0.661,0.761,-14.893,13.183,-32.349,
00:00:02:883,0.127,-0.661,0.761,-12.146,10.742,-31.006,
00:00:02:900,0.125,-0.667,0.76,-11.17,11.047,-31.8,
00:00:02:916,0.126,-0.667,0.761,-14.405,12.085,-32.593,
00:00:02:933,0.126,-0.664,0.759,-13.001,9.765,-32.959,
00:00:02:950,0.125,-0.666,0.761,-13.916,9.46,-32.166,
00:00:02:966,0.126,-0.667,0.758,-13.367,5.737,-33.57,
00:00:02:983,0.124,-0.666,0.764,-15.381,7.141,-34.119,
00:00:03:0,0.127,-0.661,0.757,-12.635,10.315,-32.349,
00:00:03:16,0.124,-0.662,0.756,-13.611,8.85,-30.579,
00:00:03:33,0.12,-0.66,0.751,-8.667,15.93,-24.842,
00:00:03:50,0.123,-0.635,0.767,40.405,22.033,-23.133,
00:00:03:66,0.106,-0.628,0.804,158.996,35.156,-41.016,
00:00:03:83,0.114,-0.591,0.965,364.807,53.039,-95.215,
00:00:03:100,0.162,-0.556,1.271,756.164,44.067,-203.553,
00:00:03:116,0.436,-0.716,1.498,1248.962,11.108,-370.545,
00:00:03:133,0.651,-1.301,1.214,1717.834,-49.256,-604.432,
00:00:03:150,0.968,-2.296,0.694,1125.732,-400.696,-797.059,
00:00:03:166,1.008,-2.188,0.805,75.805,-1036.561,-1172.791,
00:00:03:183,0.679,-1.827,1.18,-582.581,-1624.573,-1535.218,
00:00:03:200,0.446,-1.753,1.374,-632.63,-1922.486,-1845.521,
00:00:03:216,0.289,-1.637,1.244,-424.012,-1987.916,-2000,
00:00:03:233,0.155,-1.502,0.99,-191.895,-1990.601,-2000,
00:00:03:250,0.096,-1.34,0.71,-171.875,-1989.563,-2000,
00:00:03:266,0.139,-0.997,0.374,-598.328,-2000,-2000,
00:00:03:283,0.102,-0.645,0.119,-1036.866,-2000,-2000,
00:00:03:300,0.153,-0.382,-0.097,-1239.869,-2000,-2000,
00:00:03:316,0.12,-0.047,-0.273,-1294.251,-2000,-2000,
00:00:03:333,0.001,0.154,-0.393,-1121.582,-1999.207,-2000,
00:00:03:350,0.034,0.235,-0.527,-877.93,-1859.009,-2000,
00:00:03:366,-0.019,0.259,-0.744,-658.875,-1536.316,-2000,
00:00:03:383,-0.117,0.526,-0.96,-468.628,-1172.425,-1804.444,
00:00:03:400,-0.27,1.13,-1.069,-283.143,-825.44,-1429.627,
00:00:03:416,-0.44,1.537,-1.089,-61.829,-389.222,-1053.284,
00:00:03:433,-0.533,1.507,-1.004,64.392,99.853,-529.297,
00:00:03:450,-0.506,1.197,-0.834,97.473,599.304,46.508,
00:00:03:466,-0.503,0.855,-0.634,142.395,1057.373,614.868,
00:00:03:483,-0.516,0.739,-0.498,225.341,1408.142,1083.007,
00:00:03:500,-0.51,0.645,-0.402,325.378,1696.716,1390.747,
00:00:03:516,-0.494,0.537,-0.311,364.807,1886.84,1571.289,
00:00:03:533,-0.457,0.376,-0.2,367.553,1980.102,1665.588,
00:00:03:550,-0.421,0.201,-0.031,363.83,1999.694,1723.938,
00:00:03:566,-0.443,-0.044,0.238,340.698,1999.694,1765.503,
00:00:03:583,-0.428,-0.177,0.417,326.11,1999.694,1772.766,
00:00:03:600,-0.396,-0.337,0.729,381.225,1999.694,1688.903,
00:00:03:616,-0.367,-0.455,0.844,521.118,1999.694,1647.522,
00:00:03:633,-0.236,-0.534,0.978,535.461,1999.694,1544.799,
00:00:03:650,-0.056,-0.681,1.074,800.842,1945.495,1380.31,
00:00:03:666,0.017,-0.95,1.046,1112.487,1695.984,1215.21,
00:00:03:683,0.111,-1.092,0.976,1122.558,1346.923,1034.057,
00:00:03:700,0.046,-1.307,1.089,811.706,1065.734,881.469,
00:00:03:716,0.025,-1.497,1.227,291.626,885.07,785.095,
00:00:03:733,0.101,-1.434,1.205,-226.99,727.722,788.208,
00:00:03:750,0.099,-1.072,1.072,-399.476,501.526,666.198,
00:00:03:766,0.081,-0.816,1.042,-157.105,338.44,461.914,
00:00:03:783,0.042,-0.76,1.025,305.664,220.947,234.497,
00:00:03:800,-0.024,-0.83,0.988,618.591,157.653,100.097,
00:00:03:816,-0.061,-0.945,0.949,682.129,154.113,78.918,
00:00:03:833,-0.027,-0.978,0.852,546.264,147.827,126.464,
00:00:03:850,-0.008,-0.958,0.812,273.681,107.971,174.743,
00:00:03:866,0.003,-0.882,0.775,42.48,103.576,218.75,
00:00:03:883,0.041,-0.783,0.745,-82.215,81.665,202.453,
00:00:03:900,0.032,-0.73,0.756,-78.064,46.447,124.328,
00:00:03:916,0.026,-0.715,0.733,29.113,30.639,59.814,
00:00:03:933,0.006,-0.684,0.729,158.874,-26.062,-6.287,
00:00:03:950,-0.022,-0.711,0.741,297.851,-42.359,-34.913,
00:00:03:966,-0.027,-0.776,0.72,353.332,-48.462,-51.636,
00:00:03:983,-0.022,-0.836,0.689,277.343,-84.717,-61.341,
00:00:04:0,-0.058,-0.793,0.656,191.223,-117.249,-62.317,
00:00:04:16,-0.069,-0.71,0.627,156.067,-143.677,-55.787,
00:00:04:33,-0.097,-0.651,0.604,224.975,-135.01,-51.758,
00:00:04:50,-0.111,-0.658,0.606,354.553,-92.53,-53.467,
00:00:04:66,-0.088,-0.723,0.626,454.467,-16.297,-39.368,
00:00:04:83,-0.024,-0.786,0.595,503.662,16.296,-37.72,
00:00:04:100,-0.004,-0.824,0.564,546.203,-23.255,-28.382,
00:00:04:116,-0.045,-0.82,0.535,604.065,-84.473,-39.124,
00:00:04:133,-0.058,-0.868,0.536,621.399,-48.523,-34.058,
00:00:04:150,-0.019,-0.908,0.498,608.642,-19.593,-34.485,
00:00:04:166,0.022,-0.93,0.473,552.002,-16.541,-18.372,
00:00:04:183,0.029,-0.89,0.428,455.322,-50.232,-28.077,
00:00:04:200,0.028,-0.864,0.448,419.799,-62.867,-31.006,
00:00:04:216,0.026,-0.929,0.438,382.568,-68.116,-21.363,
00:00:04:233,0.061,-0.962,0.431,321.655,-88.99,3.906,
00:00:04:250,0.082,-0.913,0.428,288.757,-117.737,12.146,
00:00:04:266,0.067,-0.838,0.428,371.215,-119.935,2.685,
00:00:04:283,0.027,-0.847,0.438,582.458,-55.176,-9.827,
00:00:04:300,0.025,-0.949,0.421,729.248,27.099,-18.555,
00:00:04:316,0.05,-1.063,0.371,675.903,57.556,-12.94,
00:00:04:333,0.049,-1.103,0.324,475.769,60.607,-12.94,
00:00:04:350,0.022,-1.02,0.321,68.908,65.734,-8.973,
00:00:04:366,0.005,-1,0.32,-10.804,72.57,0.122,
00:00:04:383,0.013,-1.009,0.329,-32.837,88.745,-3.846,
00:00:04:400,0.03,-1.011,0.343,-47.608,82.397,11.962,
00:00:04:416,0.012,-0.971,0.348,15.136,56.64,17.639,
00:00:04:433,0.007,-0.901,0.333,208.007,28.747,25.94,
00:00:04:450,0.002,-0.908,0.369,495.971,4.333,40.588,
00:00:04:466,-0.01,-1.04,0.311,414.672,22.216,7.263,
00:00:04:483,-0.01,-1.072,0.244,178.283,-3.357,-24.903,
00:00:04:500,0.009,-0.967,0.219,107.299,-5.555,-40.833,
00:00:04:516,0.022,-1,0.206,151.184,17.7,-70.74,
00:00:04:533,0.036,-1.034,0.191,120.361,10.742,-72.876,
00:00:04:550,-0.002,-1.003,0.205,8.728,7.873,-97.046,
00:00:04:566,-0.003,-1.028,0.198,-26.856,19.104,-97.352,
00:00:04:583,-0.026,-1.007,0.209,8.239,3.418,-82.52,
00:00:04:600,-0.025,-1.025,0.215,27.954,26.062,-132.203,
00:00:04:616,0.008,-1.01,0.191,19.836,11.047,-110.352,
00:00:04:633,-0.043,-1.031,0.216,3.723,-5.127,-119.202,
00:00:04:650,-0.007,-1.015,0.188,-15.992,1.525,-102.478,
00:00:04:666,0.034,-0.998,0.154,-33.875,-29.419,-121.277,
00:00:04:683,-0.061,-0.994,0.184,-12.574,-18.86,-139.893,
00:00:04:700,-0.014,-1.011,0.182,95.642,-20.508,-141.48,
00:00:04:716,-0.011,-1.01,0.211,203.796,-16.663,-152.955,
00:00:04:733,0.001,-1.002,0.169,279.174,-20.813,-147.156,
00:00:04:750,-0.038,-0.995,0.144,305.297,3.356,-144.776,saltLH
00:00:04:766,-0.019,-0.978,0.115,316.04,-3.724,-146.912,
00:00:04:783,-0.052,-1.003,0.103,311.035,-19.41,-157.593,
00:00:04:800,-0.066,-1.02,0.141,305.969,-27.039,-171.082,
00:00:04:816,-0.067,-1.02,0.106,327.209,-25.452,-183.899,
00:00:04:833,-0.092,-1.002,0.138,352.783,-33.204,-207.459,
00:00:04:850,-0.114,-0.991,0.131,368.774,-38.453,-229.92,
00:00:04:866,-0.09,-1.035,0.099,453.613,-53.772,-256.897,
00:00:04:883,-0.095,-1.024,0.034,605.041,-61.28,-286.377,
00:00:04:900,-0.156,-1.053,0.05,734.375,-19.532,-319.275,
00:00:04:916,-0.264,-1.142,0.052,739.135,15.869,-387.513,
00:00:04:933,-0.289,-1.316,0.006,536.499,31.616,-545.838,
00:00:04:950,-0.354,-1.409,-0.045,207.641,41.32,-578.125,
00:00:04:966,-0.391,-1.351,-0.065,-141.663,38.147,-607.178,
00:00:04:983,-0.457,-1.341,-0.039,-509.766,44.311,-654.969,
00:00:05:0,-0.495,-1.303,0.001,-738.526,57.983,-669.739,
00:00:05:16,-0.542,-1.329,0.029,-903.809,78.186,-702.332,
00:00:05:33,-0.556,-1.326,0.044,-1018.921,95.703,-722.046,
00:00:05:50,-0.564,-1.248,0.105,-1088.501,99.975,-751.465,
00:00:05:66,-0.608,-1.089,0.156,-1049.5,61.828,-822.144,
00:00:05:83,-0.587,-1.318,0.283,-952.149,85.815,-882.996,
00:00:05:100,-0.551,-1.066,0.322,-1183.167,-12.879,-789.734,
00:00:05:116,-0.609,-0.924,0.354,-1146.79,-57.801,-925.11,
00:00:05:133,-0.557,-1.041,0.368,-1069.886,-97.413,-941.285,
00:00:05:150,-0.534,-0.968,0.351,-1185.914,-177.979,-920.105,
00:00:05:166,-0.534,-0.854,0.351,-1258.973,-255.616,-915.223,
00:00:05:183,-0.513,-0.773,0.275,-1208.863,-289.734,-893.006,
00:00:05:200,-0.5,-0.746,0.18,-1249.756,-269.959,-876.099,
00:00:05:216,-0.464,-0.727,0.134,-1455.14,-245.24,-839.112,
00:00:05:233,-0.477,-0.584,0.128,-1662.598,-177.124,-839.051,
00:00:05:250,-0.507,-0.49,0.22,-1711.67,-25.574,-820.74,
00:00:05:266,-0.51,-0.392,0.237,-1704.041,180.481,-800.293,
00:00:05:283,-0.497,-0.341,0.146,-1655.274,394.47,-819.336,
00:00:05:300,-0.446,-0.332,0.025,-1500.55,609.924,-775.757,
00:00:05:316,-0.376,-0.343,0.087,-1398.194,835.632,-758.973,
00:00:05:333,-0.378,-0.297,0.198,-1419.739,1054.504,-772.828,
00:00:05:350,-0.364,-0.198,0.339,-1511.536,1292.785,-851.807,
00:00:05:366,-0.382,-0.114,0.56,-1635.437,1483.459,-941.04,
00:00:05:383,-0.365,0.015,0.723,-1814.026,1595.337,-1012.635,
00:00:05:400,-0.371,-0.039,0.789,-1993.226,1585.815,-1024.903,
00:00:05:416,-0.336,0.03,0.687,-2000,1456.237,-947.632,
00:00:05:433,-0.227,0.254,0.571,-2000,1189.026,-788.88,
00:00:05:450,-0.114,0.688,0.54,-1980.774,773.01,-542.237,
00:00:05:466,-0.107,1.293,0.77,-1372.01,285.339,-275.513,
00:00:05:483,-0.209,1.511,1.088,-226.99,56.335,55.908,
00:00:05:500,-0.209,0.811,1.048,806.213,-12.024,341.735,
00:00:05:516,-0.174,0.25,0.985,987.365,-311.585,516.784,
00:00:05:533,-0.299,0.284,1.024,935.852,-575.44,664.245,
00:00:05:550,-0.383,0.143,0.946,1105.407,-690.064,651.855,
00:00:05:566,-0.484,-0.161,0.715,1188.964,-679.322,527.343,
00:00:05:583,-0.548,-0.324,0.666,1005.554,-567.322,313.537,
00:00:05:600,-0.535,-0.225,0.841,639.343,-370.606,13.671,
00:00:05:616,-0.599,-0.175,1.027,159.607,-27.222,-261.414,
00:00:05:633,-0.575,-0.248,1.012,-419.8,398.01,-527.1,
00:00:05:650,-0.518,-0.158,0.912,-890.015,706.359,-722.535,
00:00:05:666,-0.425,0.067,0.756,-1151.124,887.268,-798.035,
00:00:05:683,-0.303,0.215,0.664,-1317.322,912.719,-805.359,
00:00:05:700,-0.184,0.413,0.619,-1404.48,764.526,-770.447,
00:00:05:716,-0.127,0.859,0.77,-1161.438,526.245,-604.065,
00:00:05:733,-0.145,1.079,0.997,-597.413,339.05,-381.348,
00:00:05:750,-0.153,0.935,1.006,-160.645,187.439,-158.814,
00:00:05:766,-0.177,0.884,1.088,126.526,-17.518,98.755,
00:00:05:783,-0.23,0.779,1.096,325.134,-214.417,293.884,
00:00:05:800,-0.252,0.614,1.067,447.204,-393.311,454.345,
00:00:05:816,-0.29,0.459,0.997,575.5,-542.115,535.644,
00:00:05:833,-0.339,0.355,0.92,676.88,-653.992,545.898,
00:00:05:850,-0.411,0.187,0.815,782.714,-685.486,468.872,
00:00:05:866,-0.465,-0.03,0.764,745.849,-653.443,352.661,
00:00:05:883,-0.493,-0.173,0.766,494.384,-559.998,192.505,
00:00:05:900,-0.54,-0.155,0.818,114.807,-366.944,-37.354,
00:00:05:916,-0.53,-0.1,0.763,-525.513,306.518,-580.75,
00:00:05:933,-0.471,-0.062,0.659,-821.656,640.503,-855.835,
00:00:05:950,-0.387,0.148,0.705,-1039.978,853.698,-1054.383,
00:00:05:966,-0.28,0.333,0.805,-1248.78,955.566,-1129.334,
00:00:05:983,-0.18,0.517,0.813,-1405.823,922.241,-1084.717,
00:00:06:0,-0.058,0.676,0.621,-1405.03,742.431,-864.563,
00:00:06:16,0.007,1.195,0.539,-1088.624,428.222,-488.099,
00:00:06:33,-0.027,1.545,0.672,-336.731,183.349,-99.915,
00:00:06:50,0.015,1.377,0.706,453.369,-28.26,269.775,
00:00:06:66,-0.095,1.025,0.857,898.254,-269.593,643.371,
00:00:06:83,-0.215,0.572,0.83,1135.192,-484.498,905.273,
00:00:06:100,-0.358,0.239,0.79,1235.229,-614.991,978.759,
00:00:06:116,-0.436,-0.082,0.72,1224.975,-588.318,831.054,
00:00:06:133,-0.422,-0.32,0.821,866.088,-495.057,462.524,
00:00:06:150,-0.458,-0.373,0.986,375.122,-262.513,6.225,
00:00:06:166,-0.479,-0.496,0.97,-181.519,119.995,-392.518,
00:00:06:183,-0.465,-0.282,0.871,-663.819,463.806,-744.629,
00:00:06:200,-0.39,0.116,0.791,-914.429,672.668,-940.735,
00:00:06:216,-0.283,0.505,0.799,-1033.204,724.975,-1071.717,
00:00:06:233,-0.172,0.683,0.658,-1019.776,671.936,-994.996,
00:00:06:250,0.052,0.842,0.468,-850.525,470.031,-719.239,
00:00:06:266,0.094,1.438,0.631,-563.66,159.668,-333.68,
00:00:06:283,-0.021,1.553,0.842,73.425,-40.284,18.188,
00:00:06:300,-0.026,1.249,0.906,516.418,-189.454,375.854,
00:00:06:316,-0.12,1.023,0.987,776.245,-356.995,658.569,
00:00:06:333,-0.205,0.758,0.968,931.518,-517.395,875.671,
00:00:06:350,-0.233,0.531,0.916,1084.655,-639.222,1018.921,
00:00:06:366,-0.276,0.288,0.824,1216.613,-747.925,1062.866,
00:00:06:383,-0.404,0.085,0.69,1300.72,-783.509,979.797,
00:00:06:400,-0.486,-0.108,0.668,1328.308,-698.182,778.991,
00:00:06:416,-0.511,-0.375,0.739,1102.356,-488.587,474.487,
00:00:06:433,-0.483,-0.542,0.855,447.021,-255.372,153.137,
00:00:06:450,-0.532,-0.466,0.846,-328.248,106.506,-241.517,
00:00:06:466,-0.503,-0.346,0.752,-806.58,503.234,-614.197,
00:00:06:483,-0.452,-0.142,0.764,-1088.562,838.806,-911.56,
00:00:06:500,-0.37,0.139,0.832,-1194.397,1044.555,-1139.893,
00:00:06:516,-0.264,0.222,0.884,-1333.619,1081.482,-1237.793,
00:00:06:533,-0.113,0.318,0.656,-1579.041,953.003,-1132.142,
00:00:06:550,0.04,0.872,0.556,-1684.998,612.915,-856.385,
00:00:06:566,0.012,1.707,0.71,-1203.797,240.966,-472.046,
00:00:06:583,-0.028,1.929,0.872,-296.143,80.566,-50.782,
00:00:06:600,-0.078,1.523,1.036,484.924,-149.292,326.904,
00:00:06:616,-0.102,1.044,0.997,809.814,-362.183,692.016,
00:00:06:633,-0.197,0.66,0.846,940.307,-557.312,922.668,
00:00:06:650,-0.289,0.352,0.838,1094.543,-698.487,1028.259,
00:00:06:666,-0.345,-0.066,0.782,1019.531,-698.914,888,
00:00:06:683,-0.362,-0.305,0.803,639.953,-614.136,578.552,
00:00:06:700,-0.413,-0.351,0.911,246.887,-457.337,180.236,
00:00:06:716,-0.459,-0.422,0.894,-95.093,-153.504,-179.688,
00:00:06:733,-0.443,-0.462,0.739,-446.778,195.251,-551.27,
00:00:06:750,-0.402,-0.194,0.658,-706.788,457.58,-854.981,
00:00:06:766,-0.329,0.151,0.661,-860.84,635.192,-1063.172,
00:00:06:783,-0.246,0.495,0.706,-993.226,687.866,-1188.843,
00:00:06:800,-0.11,0.706,0.694,-1090.882,647.949,-1142.884,
00:00:06:816,0.052,0.976,0.636,-1031.678,484.863,-891.846,
00:00:06:833,0.103,1.4,0.628,-822.388,240.051,-518.006,
00:00:06:850,0.055,1.701,0.761,-344.422,4.211,-97.352,
00:00:06:866,0.014,1.5,0.846,203.308,-141.236,319.824,
00:00:06:883,-0.043,1.123,0.818,606.445,-308.96,686.767,
00:00:06:900,-0.152,0.748,0.756,874.694,-496.033,955.81,
00:00:06:916,-0.223,0.443,0.759,1072.631,-593.445,1088.806,
00:00:06:933,-0.304,0.075,0.724,1026.123,-653.321,1034.668,
00:00:06:950,-0.395,-0.187,0.659,817.688,-605.774,831.726,
00:00:06:966,-0.411,-0.268,0.653,531.738,-473.694,461.181,
00:00:06:983,-0.451,-0.249,0.807,252.807,-254.578,38.879,
00:00:07:0,-0.487,-0.242,0.911,-109.07,93.994,-361.878,
00:00:07:16,-0.47,-0.14,0.911,-510.621,450.988,-726.746,
00:00:07:33,-0.423,0.104,0.865,-849.549,670.41,-963.318,
00:00:07:50,-0.33,0.488,0.83,-1078.248,754.211,-1075.013,
00:00:07:66,-0.227,0.777,0.652,-1222.84,687.805,-1022.828,
00:00:07:83,-0.062,1.021,0.446,-1161.866,506.713,-778.809,
00:00:07:100,-0.012,1.516,0.468,-796.509,216.858,-400.94,
00:00:07:116,-0.066,1.551,0.69,-103.333,-16.297,-23.133,
00:00:07:133,-0.078,1.351,0.879,339.416,-163.331,334.106,
00:00:07:150,-0.205,0.641,0.833,807.129,-424.439,885.742,
00:00:07:166,-0.289,0.362,0.791,923.828,-508.851,964.843,
00:00:07:183,-0.379,0.072,0.703,938.964,-555.848,865.478,
00:00:07:200,-0.399,-0.151,0.624,815.612,-529.297,619.506,
00:00:07:216,-0.42,-0.13,0.763,609.802,-453.98,329.895,
00:00:07:233,-0.482,-0.078,1.009,340.515,-225.342,-25.513,
00:00:07:250,-0.485,-0.183,1.054,-64.087,103.637,-341.858,
00:00:07:266,-0.458,-0.06,0.921,-576.111,419.128,-618.531,
00:00:07:283,-0.32,0.569,0.759,-1001.282,670.837,-906.495,
00:00:07:300,-0.202,0.673,0.703,-1052.674,614.196,-870.972,
00:00:07:316,-0.045,0.777,0.554,-1014.954,465.332,-629.151,
00:00:07:333,0.038,1.29,0.59,-742.798,201.965,-311.28,
00:00:07:350,0,1.586,0.753,-153.138,-11.231,110.229,
00:00:07:366,-0.04,1.291,0.797,494.201,-183.533,443.542,
00:00:07:383,-0.116,0.975,0.856,895.385,-361.756,784.423,
00:00:07:400,-0.246,0.719,0.866,1142.334,-543.702,978.515,
00:00:07:416,-0.344,0.441,0.84,1288.025,-659.241,1035.156,
00:00:07:433,-0.374,0.154,0.782,1358.093,-697.327,972.229,
00:00:07:450,-0.407,-0.22,0.671,1215.149,-661.927,829.406,
00:00:07:466,-0.482,-0.475,0.56,856.384,-602.784,546.447,
00:00:07:483,-0.592,-0.353,0.676,433.899,-442.566,172.18,
00:00:07:500,-0.62,-0.19,0.866,156.677,-118.287,-179.749,
00:00:07:516,-0.615,-0.174,0.94,-289.734,255.31,-497.437,
00:00:07:533,-0.59,-0.038,0.898,-770.691,582.641,-793.335,
00:00:07:550,-0.518,0.235,0.851,-1118.531,746.399,-929.017,
00:00:07:566,-0.378,0.521,0.83,-1436.463,752.197,-983.643,
00:00:07:583,-0.258,0.666,0.608,-1574.524,646.484,-843.75,
00:00:07:600,-0.119,1.108,0.453,-1427.308,383.178,-550.599,
00:00:07:616,-0.118,1.674,0.66,-814.454,81.604,-174.317,
00:00:07:633,-0.129,1.699,0.907,80.261,-125.123,220.031,
00:00:07:650,-0.19,1.213,0.98,778.93,-303.467,586.181,
00:00:07:666,-0.208,0.808,0.934,1218.872,-524.903,976.196,
00:00:07:683,-0.325,0.517,0.788,1604.248,-732.85,1127.99,
00:00:07:700,-0.434,0.245,0.623,1958.191,-859.192,1085.937,
00:00:07:716,-0.514,-0.103,0.564,1998.535,-849.366,898.986,
00:00:07:733,-0.467,-0.645,0.554,1486.389,-767.579,580.444,
00:00:07:750,-0.575,-0.696,0.851,530.456,-699.341,227.111,
00:00:07:766,-0.634,-0.344,0.949,-237.732,-288.086,-104.615,
00:00:07:783,-0.638,-0.291,0.792,-667.725,227.844,-425.782,
00:00:07:800,-0.573,-0.266,0.621,-960.145,574.707,-686.036,
00:00:07:816,-0.504,0.029,0.557,-1130.921,786.377,-872.864,
00:00:07:833,-0.416,0.322,0.645,-1258.362,844.848,-959.656,
00:00:07:850,-0.299,0.493,0.699,-1474.488,762.268,-935.12,
00:00:07:866,-0.232,0.705,0.656,-1555.665,575.256,-725.708,
00:00:07:883,-0.211,1.16,0.621,-1317.994,304.382,-411.255,
00:00:07:900,-0.202,1.531,0.689,-686.219,34.057,-21.18,
00:00:07:916,-0.258,1.449,0.797,255.92,-155.823,344.97,
00:00:07:933,-0.292,0.986,0.866,929.931,-347.413,660.4,
00:00:07:950,-0.373,0.59,0.829,1302.246,-525.208,883.728,
00:00:07:966,-0.471,0.393,0.77,1626.709,-686.89,980.957,
00:00:07:983,-0.514,0.082,0.696,1819.885,-737.366,924.621,
00:00:08:0,-0.546,-0.311,0.566,1613.037,-689.026,761.474,
00:00:08:16,-0.541,-0.641,0.543,974.182,-613.221,445.312,
00:00:08:33,-0.71,-0.441,0.814,250.061,-398.743,57.739,
00:00:08:50,-0.705,-0.215,0.923,-225.464,65.185,-289.063,
00:00:08:66,-0.669,-0.235,0.837,-715.21,519.714,-661.194,
00:00:08:83,-0.629,-0.163,0.748,-1146.668,851.257,-936.097,
00:00:08:100,-0.52,0.137,0.774,-1407.227,1016.784,-1110.23,
00:00:08:116,-0.383,0.416,0.768,-1664.429,990.783,-1127.808,
00:00:08:133,-0.239,0.637,0.564,-1730.591,806.03,-961.182,
00:00:08:150,-0.13,1.17,0.4,-1493.47,519.714,-619.324,
00:00:08:166,-0.17,1.781,0.611,-757.63,169.433,-209.656,
00:00:08:183,-0.204,1.71,0.844,217.163,-41.748,234.497,
00:00:08:200,-0.262,1.205,0.95,838.928,-220.826,587.646,
00:00:08:216,-0.278,0.819,0.954,1121.582,-427.369,934.875,
00:00:08:233,-0.336,0.57,0.811,1402.71,-627.564,1148.559,
00:00:08:250,-0.417,0.205,0.615,1680.053,-788.819,1161.926,
00:00:08:266,-0.495,-0.122,0.483,1879.638,-816.285,1002.807,
00:00:08:283,-0.496,-0.655,0.417,1551.33,-699.769,733.642,
00:00:08:300,-0.627,-0.764,0.826,801.391,-649.964,347.717,
00:00:08:316,-0.624,-0.407,1.044,112.121,-239.747,-57.862,
00:00:08:333,-0.679,-0.461,0.868,-486.573,350.769,-389.527,
00:00:08:350,-0.634,-0.43,0.613,-941.651,748.23,-756.531,
00:00:08:366,-0.56,-0.153,0.534,-1192.811,985.778,-949.463,
00:00:08:383,-0.411,0.203,0.6,-1382.813,1039.55,-1110.169,
00:00:08:400,-0.314,0.397,0.663,-1460.389,968.567,-1065.247,
00:00:08:416,-0.209,0.513,0.607,-1401.917,800.293,-924.561,
00:00:08:433,-0.079,0.982,0.643,-1161.072,524.047,-619.629,
00:00:08:450,-0.156,1.536,0.74,-517.456,272.216,-279.175,
00:00:08:466,-0.155,1.476,0.866,280.517,112.671,75.561,
00:00:08:483,-0.172,1.134,0.931,790.466,-51.026,363.098,
00:00:08:500,-0.226,0.684,0.838,947.631,-221.863,616.15,
00:00:08:516,-0.265,0.649,0.84,1106.506,-472.107,895.568,
00:00:08:533,-0.359,0.436,0.75,1453.003,-638.855,1003.112,
00:00:08:550,-0.421,0.163,0.521,1890.869,-760.682,1012.817,
00:00:08:566,-0.534,-0.122,0.371,1999.694,-764.1,877.075,
00:00:08:583,-0.569,-0.597,0.344,1999.694,-563.111,602.234,
00:00:08:600,-0.63,-1.118,0.747,1458.679,-471.131,339.294,
00:00:08:616,-0.614,-0.571,1.176,144.592,-214.356,-32.41,
00:00:08:633,-0.787,-0.241,1.289,-714.661,391.113,-349.549,
00:00:08:650,-0.732,-0.293,1.131,-1374.024,897.827,-648.987,
00:00:08:666,-0.667,-0.153,1.03,-1862.732,1129.15,-871.46,
00:00:08:683,-0.543,0.062,1.008,-2000,1183.288,-1048.035,
00:00:08:700,-0.412,-0.019,0.787,-2000,1164.123,-1020.203,
00:00:08:716,-0.07,0.296,0.38,-2000,804.443,-809.021,
00:00:08:733,-0.155,1.374,0.392,-2000,311.401,-482.117,saltLH
00:00:08:750,-0.238,2.015,0.597,-661.255,97.045,-105.225,
00:00:08:766,-0.242,1.442,0.859,682.129,-114.014,251.159,
00:00:08:783,-0.242,0.854,0.984,1203.796,-316.834,594.726,
00:00:08:800,-0.297,0.538,1.018,1445.495,-560.852,851.928,
00:00:08:816,-0.366,0.247,0.872,1549.194,-745.362,948.059,
00:00:08:833,-0.446,0.026,0.661,1642.944,-844.483,849.182,
00:00:08:850,-0.512,-0.316,0.527,1565.551,-719.178,639.282,
00:00:08:866,-0.436,-0.598,0.589,1006.53,-653.199,373.169,
00:00:08:883,-0.62,-0.407,0.955,324.524,-463.501,-25.025,
00:00:08:900,-0.627,-0.358,1.079,-180.237,-11.841,-306.092,
00:00:08:916,-0.623,-0.405,0.923,-807.618,486.023,-660.584,
00:00:08:933,-0.584,-0.221,0.804,-1219.117,791.198,-927.613,
00:00:08:950,-0.496,0.084,0.795,-1487.427,939.88,-1093.018,
00:00:08:966,-0.361,0.271,0.773,-1708.619,907.959,-1147.583,
00:00:08:983,-0.184,0.351,0.52,-1783.082,769.592,-1025.33,
00:00:09:0,-0.022,0.98,0.373,-1601.929,409.118,-691.468,
00:00:09:16,-0.096,1.698,0.613,-812.073,75.256,-308.35,
00:00:09:33,-0.16,1.56,0.866,249.267,-105.408,102.05,
00:00:09:50,-0.217,1.093,0.972,780.151,-266.785,426.452,
00:00:09:66,-0.275,0.794,0.972,969.848,-433.045,720.581,
00:00:09:83,-0.337,0.537,0.856,1082.824,-617.31,913.94,
00:00:09:100,-0.418,0.371,0.737,1231.628,-720.52,941.589,
00:00:09:116,-0.498,0.086,0.61,1338.501,-753.724,835.571,
00:00:09:133,-0.523,-0.28,0.54,1214.111,-624.268,636.535,
00:00:09:150,-0.461,-0.535,0.641,754.638,-527.649,363.098,
00:00:09:166,-0.598,-0.399,0.935,249.389,-313.233,20.69,
00:00:09:183,-0.588,-0.333,0.948,-174.378,123.657,-303.711,
00:00:09:200,-0.57,-0.339,0.811,-617.31,545.593,-672.364,
00:00:09:216,-0.53,-0.166,0.735,-983.399,859.863,-950.196,
00:00:09:233,-0.459,0.192,0.791,-1282.959,1005.371,-1130.921,
00:00:09:250,-0.317,0.453,0.813,-1593.567,963.256,-1221.802,
00:00:09:266,-0.177,0.467,0.529,-1652.527,816.711,-1037.964,
00:00:09:283,-0.029,0.953,0.34,-1491.211,533.691,-691.895,
00:00:09:300,-0.048,1.819,0.583,-739.136,126.648,-203.309,
00:00:09:316,-0.154,1.776,0.865,290.222,-51.941,175.048,
00:00:09:333,-0.138,1.058,0.944,899.719,-219.178,533.569,
00:00:09:350,-0.22,0.689,0.981,1068.786,-443.116,869.445,
00:00:09:366,-0.313,0.548,0.916,1200.134,-650.33,1062.133,
00:00:09:383,-0.395,0.285,0.741,1363.159,-759.4,1070.434,
00:00:09:400,-0.487,-0.038,0.6,1490.417,-773.316,944.03,
00:00:09:416,-0.524,-0.441,0.52,1269.897,-622.864,644.226,
00:00:09:433,-0.509,-0.507,0.773,691.711,-532.471,304.382,
00:00:09:450,-0.647,-0.369,1.043,183.96,-204.407,-85.144,
00:00:09:466,-0.62,-0.369,0.95,-291.443,241.088,-419.922,
00:00:09:483,-0.61,-0.258,0.828,-812.317,635.437,-774.781,
00:00:09:500,-0.551,0.082,0.806,-1160.096,872.192,-1013.184,
00:00:09:516,-0.43,0.38,0.858,-1438.355,909.729,-1179.871,
00:00:09:533,-0.263,0.389,0.667,-1610.657,834.045,-1145.508,
00:00:09:550,-0.068,0.603,0.322,-1600.77,625.793,-874.451,
00:00:09:566,0.008,1.406,0.39,-1171.753,259.704,-477.967,
00:00:09:583,-0.122,1.975,0.777,-292.359,-7.935,-47.547,
00:00:09:600,-0.162,1.425,0.901,596.069,-113.77,279.907,
00:00:09:616,-0.221,0.921,0.94,855.285,-254.395,668.823,
00:00:09:633,-0.251,0.7,0.934,952.514,-426.026,954.956,
00:00:09:650,-0.34,0.563,0.866,1061.828,-582.154,1122.619,
00:00:09:666,-0.408,0.342,0.699,1245.361,-686.829,1130.066,
00:00:09:683,-0.474,0.023,0.545,1503.723,-737.488,1047.18,
00:00:09:700,-0.538,-0.417,0.411,1586.364,-616.15,794.983,
00:00:09:716,-0.455,-0.761,0.499,1164.489,-558.228,490.6,
00:00:09:733,-0.601,-0.515,0.991,561.767,-406.8,57.128,
00:00:09:750,-0.611,-0.354,1.175,-14.771,40.222,-287.537,
00:00:09:766,-0.599,-0.303,0.769,-1217.225,891.174,-1016.419,
00:00:09:783,-0.524,0.055,0.773,-1522.461,1057.251,-1201.844,
00:00:09:800,-0.327,0.413,0.817,-1805.237,1006.164,-1302.369,
00:00:09:816,-0.239,0.449,0.591,-1905.823,860.473,-1219.971,
00:00:09:833,-0.029,0.68,0.255,-1712.22,585.937,-858.155,
00:00:09:850,-0.058,1.719,0.45,-1083.008,219.299,-367.981,
00:00:09:866,-0.167,2.031,0.823,86.364,-29.725,95.214,
00:00:09:883,-0.183,1.249,0.991,847.107,-146.973,436.157,
00:00:09:900,-0.23,0.76,0.972,992.431,-312.134,752.99,
00:00:09:916,-0.315,0.583,0.925,1053.161,-531.739,1011.169,
00:00:09:933,-0.42,0.421,0.792,1219.421,-653.931,1089.721,
00:00:09:950,-0.456,0.145,0.66,1450.622,-687.378,1004.638,
00:00:09:966,-0.644,-0.456,1.011,344.665,-331.849,-5.005,
00:00:09:983,-0.604,-0.326,1.085,-196.351,49.743,-336.182,
00:00:10:0,-0.627,-0.26,0.997,-784.119,457.702,-719.971,
00:00:10:16,-0.591,-0.051,0.928,-1170.289,708.679,-998.475,
00:00:10:33,-0.49,0.268,0.904,-1449.402,807.251,-1143.067,
00:00:10:50,-0.33,0.438,0.781,-1703.614,755.554,-1135.315,
00:00:10:66,-0.064,0.635,0.42,-1758.484,557.739,-834.29,
00:00:10:83,0.061,1.353,0.298,-1381.592,153.625,-381.287,
00:00:10:100,-0.046,2.005,0.608,-432.618,-119.385,49.438,
00:00:10:116,-0.136,1.553,0.818,570.678,-293.519,455.444,
00:00:10:133,-0.243,0.908,0.898,1013.61,-414.856,840.271,
00:00:10:150,-0.355,0.558,0.795,1231.872,-570.374,1082.458,
00:00:10:166,-0.537,-0.486,0.523,1182.006,-529.48,773.864,
00:00:10:183,-0.518,-0.475,0.727,567.26,-497.498,387.39,
00:00:10:200,-0.684,-0.386,0.897,132.812,-200.684,3.601,
00:00:10:216,-0.645,-0.506,0.823,-264.71,201.599,-371.46,
00:00:10:233,-0.641,-0.37,0.761,-755.066,552.673,-739.136,
00:00:10:250,-0.302,0.444,0.671,-1553.956,758.789,-1115.418,
00:00:10:266,-0.207,0.644,0.382,-1564.82,557.067,-887.085,
00:00:10:283,-0.063,1.242,0.322,-1166.81,245.666,-498.78,
00:00:10:300,-0.206,1.838,0.612,-353.699,-42.298,-39.246,
00:00:10:316,-0.252,1.513,0.832,602.111,-196.9,331.604,
00:00:10:333,-0.314,0.987,0.936,975.708,-335.572,671.63,
00:00:10:350,-0.375,0.602,0.902,1108.947,-486.451,891.235,
00:00:10:366,-0.489,0.449,0.795,1184.936,-648.621,1056.701,
00:00:10:383,-0.572,0.192,0.639,1333.496,-692.566,991.943,
00:00:10:400,-0.628,-0.093,0.544,1401.367,-610.596,823.608,
00:00:10:416,-0.554,-0.472,0.57,1086.67,-496.766,507.141,
00:00:10:433,-0.606,-0.452,0.845,540.588,-382.813,156.128,
00:00:10:450,-0.644,-0.394,1.027,58.41,-36.316,-221.558,
00:00:10:466,-0.635,-0.351,0.941,-453.675,362.915,-598.572,
00:00:10:483,-0.605,-0.186,0.855,-930.664,683.044,-953.675,
00:00:10:500,-0.526,0.13,0.881,-1242.188,843.994,-1172.547,
00:00:10:516,-0.396,0.352,0.928,-1507.752,832.397,-1301.514,
00:00:10:533,-0.207,0.299,0.576,-1662.842,697.265,-1156.739,
00:00:10:550,-0.063,0.756,0.272,-1582.459,383.178,-845.215,
00:00:10:566,-0.143,1.751,0.453,-799.561,75.5,-399.964,
00:00:10:583,-0.206,1.756,0.727,208.374,-118.287,-4.09,
00:00:10:600,-0.28,1.234,0.889,805.664,-260.682,347.961,
00:00:10:616,-0.329,0.823,0.862,922.668,-393.372,673.339,
00:00:10:633,-0.419,0.594,0.769,941.955,-533.57,859.008,
00:00:10:650,-0.494,0.404,0.65,996.46,-597.29,928.894,
00:00:10:666,-0.565,0.127,0.542,1043.945,-565.186,840.881,
00:00:10:683,-0.547,-0.162,0.54,905.7,-436.89,647.949,
00:00:10:700,-0.482,-0.295,0.765,527.832,-335.755,300.659,
00:00:10:716,-0.59,-0.187,1.07,167.541,-97.107,-7.081,
00:00:10:733,-0.554,-0.268,1.055,-221.985,287.414,-384.522,
00:00:10:750,-0.563,-0.208,0.959,-728.943,586.12,-755.86,
00:00:10:766,-0.498,0.043,0.894,-1027.039,756.775,-1020.752,
00:00:10:783,-0.335,0.22,0.781,-1266.663,743.469,-1097.107,
00:00:10:800,-0.194,0.36,0.441,-1402.832,552.856,-978.394,
00:00:10:816,-0.06,1.1,0.207,-1058.594,204.284,-556.275,
00:00:10:833,-0.198,1.833,0.548,-276.978,-115.113,-183.289,
00:00:10:850,-0.341,1.562,0.941,562.072,-319.214,265.686,
00:00:10:866,-0.374,1.037,1.05,747.375,-449.219,651.611,
00:00:10:883,-0.464,0.794,0.928,706.482,-576.477,890.503,
00:00:10:900,-0.549,0.585,0.752,836.303,-656.128,1004.455,
00:00:10:916,-0.579,0.328,0.639,1051.086,-654.053,987.609,
00:00:10:933,-0.58,0.057,0.632,1064.636,-618.348,840.942,
00:00:10:950,-0.525,-0.185,0.66,824.401,-529.664,590.515,
00:00:10:966,-0.618,-0.451,0.694,496.887,-334.717,263.733,
00:00:10:983,-0.558,-0.497,0.618,31.86,-103.577,-99.06,
00:00:11:0,-0.613,-0.338,0.581,-282.227,208.068,-408.814,
00:00:11:16,-0.557,-0.194,0.53,-395.081,530.578,-717.835,
00:00:11:33,-0.506,-0.032,0.633,-494.69,787.841,-1015.503,
00:00:11:50,-0.433,0.143,0.785,-753.357,966.858,-1181.519,
00:00:11:66,-0.331,0.303,0.865,-1226.563,994.873,-1223.145,
00:00:11:83,-0.287,0.61,0.727,-1653.748,858.459,-1137.635,
00:00:11:100,-0.164,0.988,0.404,-1573.182,636.901,-817.566,
00:00:11:116,-0.115,1.688,0.436,-994.08,315.979,-431.641,
00:00:11:133,-0.205,1.862,0.708,-39.795,98.51,51.757,
00:00:11:150,-0.238,1.414,0.96,652.71,-71.9,451.66,
00:00:11:166,-0.314,0.915,1.028,832.092,-257.386,780.029,
00:00:11:183,-0.332,0.673,1.022,860.351,-445.74,1048.645,
00:00:11:200,-0.427,0.459,0.892,855.041,-595.887,1107.971,
00:00:11:216,-0.531,0.199,0.693,1053.588,-652.283,1072.448,
00:00:11:233,-0.514,-0.161,0.609,1196.533,-612.793,863.22,
00:00:11:250,-0.512,-0.386,0.689,945.922,-535.95,445.373,
00:00:11:266,-0.677,-0.466,0.821,542.785,-357.727,31.677,
00:00:11:283,-0.572,-0.49,0.839,-64.209,-26.246,-358.155,
00:00:11:300,-0.611,-0.28,0.796,-510.926,331.176,-717.774,
00:00:11:316,-0.584,0.041,0.795,-810.975,644.836,-1013.367,
00:00:11:333,-0.519,0.309,0.825,-1006.226,796.936,-1189.637,
00:00:11:350,-0.357,0.456,0.763,-1222.291,811.584,-1226.319,
00:00:11:366,-0.235,0.51,0.483,-1406.617,655.029,-1051.331,
00:00:11:383,-0.064,0.972,0.239,-1213.624,442.688,-674.317,
00:00:11:400,-0.041,1.648,0.424,-614.319,79.589,-264.954,
00:00:11:416,-0.245,1.712,0.767,238.098,-79.285,142.7,
00:00:11:433,-0.24,1.189,0.885,781.799,-220.765,523.498,
00:00:11:450,-0.316,0.756,0.887,910.4,-369.507,812.988,
00:00:11:466,-0.384,0.545,0.854,996.032,-501.526,1009.155,
00:00:11:483,-0.455,0.359,0.694,1096.74,-605.957,1073.852,
00:00:11:500,-0.488,0.116,0.557,1225.708,-618.531,981.628,
00:00:11:516,-0.484,-0.238,0.532,1230.468,-547.12,736.023,
00:00:11:533,-0.429,-0.456,0.672,908.569,-446.534,335.754,
00:00:11:550,-0.611,-0.492,0.906,406.128,-208.497,-83.435,
00:00:11:566,-0.594,-0.384,0.928,-232.972,194.885,-449.341,
00:00:11:583,-0.604,-0.178,0.84,-708.558,555.786,-805.726,
00:00:11:600,-0.555,0.083,0.844,-1023.255,807.617,-1083.985,
00:00:11:616,-0.465,0.343,0.872,-1252.503,895.263,-1237.488,
00:00:11:633,-0.275,0.412,0.748,-1476.929,828.247,-1191.59,
00:00:11:650,-0.142,0.557,0.32,-1578.797,589.965,-938.05,
00:00:11:666,-0.046,1.368,0.296,-1195.984,273.254,-539.246,
00:00:11:683,-0.199,2.042,0.617,-225.708,24.169,-83.252,
00:00:11:700,-0.25,1.525,0.853,579.528,-100.22,327.88,
00:00:11:716,-0.299,1.061,0.945,829.467,-226.563,675.537,
00:00:11:733,-0.388,0.709,0.966,875.122,-372.01,919.983,
00:00:11:750,-0.469,0.529,0.888,875.671,-463.501,1077.636,
00:00:11:766,-0.514,0.273,0.732,901.916,-496.277,1021.85,
00:00:11:783,-0.52,-0.067,0.652,904.358,-454.895,830.505,
00:00:11:800,-0.467,-0.346,0.723,697.021,-393.799,491.455,
00:00:11:816,-0.499,-0.386,0.896,374.633,-266.602,87.097,
00:00:11:833,-0.597,-0.453,0.96,36.254,22.033,-242.798,
00:00:11:850,-0.549,-0.353,0.843,-381.226,326.11,-619.69,
00:00:11:866,-0.544,-0.026,0.804,-692.383,559.448,-926.331,
00:00:11:883,-0.473,0.249,0.821,-911.744,699.524,-1106.69,
00:00:11:900,-0.326,0.433,0.763,-1128.663,707.092,-1152.283,
00:00:11:916,-0.199,0.486,0.461,-1291.749,570.068,-973.145,
00:00:11:933,-0.09,1.062,0.317,-1146.119,358.032,-645.63,
00:00:11:950,-0.08,1.656,0.485,-559.205,100.525,-242.737,
00:00:11:966,-0.221,1.66,0.794,229.248,-56.031,156.738,
00:00:11:983,-0.225,1.219,0.931,637.024,-174.927,522.155,
00:00:12:0,-0.281,0.843,0.923,756.103,-324.402,820.129,
00:00:12:16,-0.356,0.616,0.857,864.074,-479.126,1007.019,
00:00:12:33,-0.431,0.402,0.718,994.323,-580.567,1069.824,
00:00:12:50,-0.48,0.117,0.624,1147.583,-622.132,978.454,
00:00:12:66,-0.51,-0.151,0.562,1240.234,-571.412,789.001,
00:00:12:83,-0.471,-0.419,0.636,1090.942,-509.888,454.223,
00:00:12:100,-0.574,-0.508,0.786,709.167,-375.306,92.834,
00:00:12:116,-0.566,-0.454,0.864,152.343,-89.966,-288.575,
00:00:12:133,-0.611,-0.227,0.901,-384.034,292.663,-651.001,
00:00:12:150,-0.59,0.038,0.892,-791.016,609.13,-937.439,
00:00:12:166,-0.539,0.287,0.92,-1125.062,804.443,-1134.705,
00:00:12:183,-0.452,0.512,0.861,-1419.861,843.017,-1226.441,
00:00:12:200,-0.315,0.498,0.61,-1599.244,766.296,-1097.352,
00:00:12:216,-0.137,0.768,0.203,-1569.275,595.031,-744.69,
00:00:12:233,-0.062,1.666,0.305,-1090.271,224.182,-303.894,
00:00:12:250,-0.224,2.005,0.704,-11.902,12.634,126.22,
00:00:12:266,-0.222,1.259,0.927,717.895,-89.661,463.195,
00:00:12:283,-0.412,0.418,0.832,874.817,-547.486,1139.099,
00:00:12:300,-0.494,0.168,0.572,1076.66,-638.062,1084.045,
00:00:12:316,-0.513,-0.212,0.452,1263.244,-608.521,866.272,
00:00:12:333,-0.491,-0.524,0.519,1112.854,-562.928,486.938,
00:00:12:350,-0.595,-0.493,0.911,704.345,-449.402,81.054,
00:00:12:366,-0.615,-0.388,1.077,135.925,-58.35,-300.843,
00:00:12:383,-0.651,-0.337,0.915,-511.353,393.798,-664.307,
00:00:12:400,-0.622,-0.099,0.747,-1035.889,727.966,-993.897,
00:00:12:416,-0.544,0.247,0.713,-1293.58,877.624,-1180.298,
00:00:12:433,-0.386,0.557,0.723,-1487.244,881.042,-1258.606,
00:00:12:450,-0.245,0.543,0.524,-1544.19,758.117,-1095.887,
00:00:12:466,-0.099,0.825,0.223,-1375.489,531.86,-747.742,
00:00:12:483,-0.008,1.695,0.381,-817.994,171.325,-289.734,
00:00:12:500,-0.256,1.907,0.813,164.306,-42.176,109.069,
00:00:12:516,-0.231,1.181,0.996,686.889,-132.996,441.955,
00:00:12:533,-0.311,0.726,0.973,714.904,-263.001,734.863,
00:00:12:550,-0.336,0.61,0.921,747.497,-413.575,969.177,
00:00:12:566,-0.432,0.443,0.777,868.347,-532.959,999.817,
00:00:12:583,-0.487,0.185,0.646,1015.197,-592.896,911.743,
00:00:12:600,-0.495,-0.202,0.625,1064.209,-536.744,672.607,
00:00:12:616,-0.615,-0.324,0.889,168.823,-115.418,-340.638,
00:00:12:633,-0.556,-0.175,0.88,-284.241,227.111,-666.932,
00:00:12:650,-0.545,0.035,0.873,-666.748,507.324,-952.759,
00:00:12:666,-0.494,0.252,0.89,-969.727,674.926,-1111.817,
00:00:12:683,-0.369,0.492,0.82,-1273.987,702.331,-1164.124,
00:00:12:700,-0.235,0.463,0.495,-1479.676,610.168,-1011.414,
00:00:12:716,-0.169,0.883,0.163,-1433.716,406.433,-687.867,
00:00:12:733,-0.097,1.649,0.285,-821.228,140.319,-298.34,
00:00:12:750,-0.251,1.81,0.618,133.606,-36.072,77.392,saltLH
00:00:12:766,-0.267,1.267,0.847,758.484,-154.419,409.668,
00:00:12:783,-0.327,0.838,0.941,883.606,-278.443,712.951,
00:00:12:800,-0.37,0.637,0.928,851.623,-383.606,928.039,
00:00:12:816,-0.437,0.473,0.813,839.355,-484.925,1012.756,
00:00:12:833,-0.469,0.27,0.648,913.879,-535.645,988.647,
00:00:12:850,-0.522,0.01,0.551,1060.424,-505.555,840.332,
00:00:12:866,-0.526,-0.266,0.55,1036.926,-425.66,544.983,
00:00:12:883,-0.488,-0.359,0.713,762.756,-356.507,217.651,
00:00:12:900,-0.624,-0.372,0.977,351.135,-132.691,-155.64,
00:00:12:916,-0.566,-0.317,1.027,-160.035,159.301,-448.243,
00:00:12:933,-0.601,-0.079,0.959,-681.275,487.609,-791.748,
00:00:12:950,-0.563,0.175,0.906,-1010.437,671.753,-1006.714,
00:00:12:966,-0.491,0.409,0.883,-1272.034,727.905,-1145.081,
00:00:12:983,-0.316,0.391,0.703,-1446.656,687.072,-1111.756,
00:00:13:0,-0.176,0.415,0.255,-1483.887,513.122,-822.815,
00:00:13:16,-0.135,1.318,0.281,-1177.43,221.984,-490.113,
00:00:13:33,-0.258,1.909,0.661,-244.263,-0.123,-125.916,
00:00:13:50,-0.285,1.468,0.914,592.407,-147.767,271.972,
00:00:13:66,-0.327,0.931,0.95,811.218,-254.639,574.218,
00:00:13:83,-0.375,0.648,0.889,845.214,-397.4,803.588,
00:00:13:100,-0.448,0.497,0.744,873.352,-542.664,900.573,
00:00:13:116,-0.498,0.316,0.62,909.851,-599.854,870.422,
00:00:13:133,-0.547,0.067,0.545,997.924,-557.312,731.567,
00:00:13:150,-0.549,-0.22,0.536,894.47,-440.735,468.628,
00:00:13:166,-0.515,-0.301,0.668,509.155,-344.727,130.615,
00:00:13:183,-0.655,-0.222,0.822,141.418,-114.869,-201.416,
00:00:13:200,-0.6,-0.176,0.847,-272.156,255.432,-497.498,
00:00:13:216,-0.594,0.028,0.816,-692.933,620.849,-812.928,
00:00:13:233,-0.55,0.263,0.827,-991.7,848.999,-1014.344,
00:00:13:250,-0.464,0.586,0.826,-1260.926,941.04,-1117.737,
00:00:13:266,-0.309,0.66,0.662,-1406.189,909.484,-1061.097,
00:00:13:283,-0.128,0.66,0.215,-1353.028,761.84,-738.038,
00:00:13:300,0.077,1.48,0.275,-1157.105,492.248,-322.51,
00:00:13:316,0.01,2.043,0.75,-446.106,85.937,94.726,
00:00:13:333,-0.139,1.48,1.063,345.214,-45.166,480.224,
00:00:13:350,-0.167,0.908,1.088,532.653,-221.741,829.101,
00:00:13:366,-0.241,0.764,1.002,602.966,-443.482,1186.035,
00:00:13:383,-0.406,0.507,0.782,852.844,-608.582,1299.133,
00:00:13:400,-0.5,0.195,0.571,1172.058,-741.089,1239.074,
00:00:13:416,-0.619,-0.19,0.444,1317.26,-697.815,1009.399,
00:00:13:433,-0.585,-0.437,0.427,1072.754,-647.522,681.396,
00:00:13:450,-0.598,-0.309,0.685,660.034,-598.084,253.784,
00:00:13:466,-0.745,-0.324,0.929,326.11,-294.007,-148.133,
00:00:13:483,-0.675,-0.346,0.915,-232.666,145.813,-465.394,
00:00:13:500,-0.653,-0.1,0.783,-734.498,510.559,-803.223,
00:00:13:516,-0.602,0.171,0.706,-997.315,715.271,-965.027,
00:00:13:533,-0.469,0.447,0.649,-1132.264,782.714,-1075.745,
00:00:13:550,-0.324,0.641,0.605,-1279.297,706.543,-1009.583,
00:00:13:566,-0.204,0.646,0.353,-1235.535,508.606,-748.291,
00:00:13:583,-0.115,1.155,0.445,-981.202,241.943,-418.885,
00:00:13:600,-0.197,1.689,0.799,-326.05,-66.407,-24.659,
00:00:13:616,-0.313,1.41,1.02,308.471,-237.122,329.589,
00:00:13:633,-0.339,0.901,0.957,558.838,-367.737,621.521,
00:00:13:650,-0.375,0.603,0.799,657.531,-544.617,836.425,
00:00:13:666,-0.491,0.565,0.711,787.78,-711.67,975.036,
00:00:13:683,-0.621,0.3,0.549,992.614,-773.865,944.702,
00:00:13:700,-0.707,0.02,0.414,1042.541,-710.144,787.597,
00:00:13:716,-0.718,-0.172,0.424,877.563,-598.633,548.767,
00:00:13:733,-0.695,-0.144,0.631,586.914,-479.92,197.387,
00:00:13:750,-0.627,0.031,0.791,-636.353,497.192,-753.968,
00:00:13:766,-0.605,0.21,0.738,-913.208,716.43,-930.359,
00:00:13:783,-0.487,0.464,0.708,-1096.619,784.362,-1023.804,
00:00:13:800,-0.378,0.613,0.612,-1238.038,724.365,-972.229,
00:00:13:816,-0.271,0.624,0.35,-1157.654,567.993,-700.989,
00:00:13:833,-0.17,1.175,0.32,-832.947,332.214,-319.764,
00:00:13:850,-0.283,1.643,0.586,-136.841,51.147,50.293,
00:00:13:866,-0.41,0.849,0.905,737.671,-312.561,719.543,
00:00:13:883,-0.508,0.566,0.813,797.546,-468.506,941.04,
00:00:13:900,-0.558,0.419,0.658,893.005,-571.961,1019.653,
00:00:13:916,-0.607,0.187,0.527,1015.869,-626.343,990.356,
00:00:13:933,-0.615,-0.09,0.395,1033.691,-602.906,858.093,
00:00:13:950,-0.633,-0.262,0.361,946.045,-549.439,619.995,
00:00:13:966,-0.656,-0.213,0.498,759.46,-465.638,280.273,
00:00:13:983,-0.755,-0.12,0.725,502.136,-241.272,-32.532,
00:00:14:0,-0.712,-0.135,0.874,47.912,173.95,-382.813,
00:00:14:16,-0.697,-0.07,0.842,-457.459,570.068,-713.868,
00:00:14:33,-0.644,0.06,0.823,-875.794,867.126,-981.324,
00:00:14:50,-0.558,0.187,0.78,-1184.632,984.68,-1074.036,
00:00:14:66,-0.449,0.39,0.635,-1417.542,928.466,-1101.319,
00:00:14:83,-0.306,0.607,0.399,-1401.978,741.15,-921.204,
00:00:14:100,-0.225,1.143,0.346,-1012.757,487.06,-654.969,
00:00:14:116,-0.277,1.574,0.604,-208.008,207.641,-256.104,
00:00:14:133,-0.335,1.369,0.883,382.446,4.394,135.131,
00:00:14:150,-0.421,1.044,1.019,605.957,-160.035,468.567,
00:00:14:166,-0.466,0.729,0.958,645.141,-307.862,740.6,
00:00:14:183,-0.515,0.633,0.851,720.947,-431.58,925.537,
00:00:14:200,-0.562,0.408,0.649,936.523,-515.381,978.149,
00:00:14:216,-0.583,0.186,0.495,1177.978,-529.053,918.701,
00:00:14:233,-0.58,-0.039,0.48,1286.743,-499.39,726.44,
00:00:14:250,-0.565,-0.246,0.532,1112.854,-415.406,408.325,
00:00:14:266,-0.689,-0.412,0.666,688.476,-222.352,115.417,
00:00:14:283,-0.61,-0.344,0.691,16.479,85.815,-211.914,
00:00:14:300,-0.637,-0.192,0.671,-407.105,446.899,-511.475,
00:00:14:316,-0.595,0.031,0.678,-717.286,790.283,-780.152,
00:00:14:333,-0.513,0.199,0.769,-962.342,976.379,-958.252,
00:00:14:350,-0.417,0.376,0.843,-1350.22,1002.014,-1046.57,
00:00:14:366,-0.277,0.611,0.775,-1615.54,867.187,-966.98,
00:00:14:383,-0.181,0.947,0.565,-1471.436,593.567,-709.839,
00:00:14:400,-0.188,1.445,0.593,-785.828,309.204,-303.345,
00:00:14:416,-0.258,1.482,0.738,56.152,78.552,137.573,
00:00:14:433,-0.337,1.195,0.953,691.04,-153.687,516.052,
00:00:14:450,-0.41,0.801,1.014,934.631,-338.623,801.33,
00:00:14:466,-0.478,0.525,0.952,1040.344,-527.649,961.12,
00:00:14:483,-0.519,0.28,0.828,1162.536,-650.147,991.943,
00:00:14:500,-0.551,0.104,0.721,1343.994,-687.5,923.156,
00:00:14:516,-0.561,-0.11,0.687,1430.053,-634.095,715.454,
00:00:14:533,-0.586,-0.315,0.764,1223.755,-502.015,407.653,
00:00:14:550,-0.597,-0.446,0.853,608.032,-254.212,66.711,
00:00:14:566,-0.642,-0.439,0.826,-109.559,107.055,-319.581,
00:00:14:583,-0.643,-0.271,0.726,-699.952,463.073,-645.752,
00:00:14:600,-0.612,0.02,0.763,-1002.686,754.333,-969.971,
00:00:14:616,-0.539,0.107,0.894,-1253.418,888.794,-1161.622,
00:00:14:633,-0.439,0.085,0.916,-1687.073,858.032,-1194.031,
00:00:14:650,-0.318,0.415,0.665,-1954.407,694.03,-1094.361,
00:00:14:666,-0.198,1.053,0.362,-1614.258,400.634,-774.598,
00:00:14:683,-0.219,1.583,0.37,-661.011,97.534,-335.938,
00:00:14:700,-0.256,1.542,0.646,363.708,-122.01,93.444,
00:00:14:716,-0.359,1.119,0.95,868.164,-294.556,476.989,
00:00:14:733,-0.422,0.73,1.002,915.466,-409.546,741.821,
00:00:14:750,-0.484,0.499,0.893,871.338,-508.851,915.588,
00:00:14:766,-0.542,0.392,0.706,982.727,-540.223,963.317,
00:00:14:783,-0.558,0.268,0.578,1205.627,-517.09,888.122,
00:00:14:800,-0.551,0.065,0.616,1320.8,-435.608,706.787,
00:00:14:816,-0.486,-0.245,0.667,1036.071,-298.035,423.706,
00:00:14:833,-0.606,-0.465,0.844,401.611,-66.712,71.533,
00:00:14:850,-0.569,-0.288,0.822,-360.352,220.703,-295.411,
00:00:14:866,-0.566,-0.133,0.784,-902.466,545.227,-598.816,
00:00:14:883,-0.549,0.091,0.85,-1139.283,787.719,-874.756,
00:00:14:900,-0.504,0.264,0.933,-1264.344,894.958,-1061.524,
00:00:14:916,-0.366,0.251,0.884,-1392.395,868.591,-1083.008,
00:00:14:933,-0.249,0.146,0.527,-1596.741,696.96,-926.331,
00:00:14:950,-0.104,0.8,0.224,-1468.384,391.296,-599.427,
00:00:14:966,-0.189,1.676,0.373,-688.721,104.37,-221.558,
00:00:14:983,-0.252,1.606,0.695,477.111,-152.527,163.452,
00:00:15:0,-0.328,1.015,0.975,972.473,-311.951,491.577,
00:00:15:16,-0.377,0.639,1.006,994.018,-436.036,746.093,
00:00:15:33,-0.478,0.456,0.852,912.597,-547.913,904.785,
00:00:15:50,-0.538,0.347,0.672,975.341,-597.474,916.565,
00:00:15:66,-0.555,0.226,0.551,1142.151,-606.324,834.045,
00:00:15:83,-0.554,-0.008,0.539,1226.44,-542.603,635.681,
00:00:15:100,-0.537,-0.263,0.643,1076.843,-434.754,354.431,
00:00:15:116,-0.652,-0.391,0.852,714.904,-227.845,30.395,
00:00:15:133,-0.588,-0.334,0.926,21.301,59.509,-290.894,
00:00:15:150,-0.633,-0.125,0.938,-638.916,421.569,-627.869,
00:00:15:166,-0.61,0.094,0.953,-1062.317,678.344,-910.462,
00:00:15:183,-0.561,0.296,0.972,-1339.417,811.95,-1071.778,
00:00:15:200,-0.272,0.185,0.484,-1704.224,638,-930.359,
00:00:15:216,-0.102,0.948,0.218,-1484.925,346.862,-582.764,
00:00:15:233,-0.186,1.751,0.439,-553.467,65.856,-195.191,
00:00:15:250,-0.23,1.54,0.713,527.221,-164.429,143.859,
00:00:15:266,-0.303,1.011,0.967,937.561,-324.158,494.812,
00:00:15:283,-0.375,0.673,1.009,970.764,-461.304,746.154,
00:00:15:300,-0.469,0.5,0.889,910.034,-572.266,907.104,
00:00:15:316,-0.52,0.333,0.692,1023.315,-635.254,960.51,
00:00:15:333,-0.547,0.14,0.491,1278.625,-636.17,898.864,
00:00:15:350,-0.552,-0.074,0.447,1448.913,-575.806,710.388,
00:00:15:366,-0.532,-0.29,0.636,1331.298,-454.895,370.666,
00:00:15:383,-0.688,-0.492,0.899,852.539,-261.841,11.962,
00:00:15:400,-0.616,-0.375,1.011,-44.678,103.515,-333.008,
00:00:15:416,-0.657,-0.153,0.98,-813.416,525.39,-683.716,
00:00:15:433,-0.614,0.091,0.95,-1335.145,779.846,-940.796,
00:00:15:450,-0.555,0.345,0.94,-1593.934,886.84,-1125.916,
00:00:15:466,-0.385,0.271,0.769,-1756.714,849.609,-1065.735,
00:00:15:483,-0.232,0.339,0.232,-1836.915,614.868,-828.614,
00:00:15:500,-0.092,1.306,0.099,-1303.04,291.137,-426.392,
00:00:15:516,-0.181,1.951,0.543,-117.981,-20.997,-10.621,
00:00:15:533,-0.282,1.33,0.933,810.119,-199.219,326.599,
00:00:15:550,-0.349,0.76,1.081,1008.545,-306.458,648.437,
00:00:15:566,-0.412,0.503,1.004,918.823,-439.515,870.91,
00:00:15:583,-0.496,0.387,0.83,901.916,-520.386,977.295,
00:00:15:600,-0.518,0.215,0.62,1021.118,-565.125,932.251,
00:00:15:616,-0.53,-0.024,0.502,1109.924,-537.72,752.685,
00:00:15:633,-0.521,-0.244,0.532,1030.7,-468.384,465.759,
00:00:15:650,-0.483,-0.343,0.754,736.328,-321.106,129.089,
00:00:15:666,-0.635,-0.433,0.876,269.287,-62.378,-200.013,
00:00:15:683,-0.622,-0.288,0.867,-348.999,300.598,-489.685,
00:00:15:700,-0.62,-0.006,0.875,-782.288,617.981,-803.65,
00:00:15:716,-0.591,0.219,0.932,-1106.08,789.489,-980.103,
00:00:15:733,-0.519,0.452,0.927,-1355.53,834.655,-1097.291,
00:00:15:750,-0.372,0.282,0.698,-1478.516,779.174,-995.423,
00:00:15:766,-0.193,0.41,0.209,-1552.002,561.828,-710.816,
00:00:15:783,-0.125,1.441,0.3,-1155.823,264.038,-336.548,
00:00:15:800,-0.268,1.876,0.688,-84.839,-34.302,22.461,
00:00:15:816,-0.3,1.291,0.986,687.805,-207.764,386.779,
00:00:15:833,-0.355,0.796,1.065,870.3,-339.234,668.213,
00:00:15:850,-0.41,0.58,1.011,857.91,-486.878,911.316,
00:00:15:866,-0.473,0.442,0.865,875.427,-605.225,1029.174,
00:00:15:883,-0.548,0.244,0.652,1016.723,-681.336,1008.606,
00:00:15:900,-0.566,0.038,0.49,1228.515,-683.96,895.202,
00:00:15:916,-0.589,-0.191,0.457,1405.944,-625.123,665.527,
00:00:15:933,-0.52,-0.405,0.551,1327.942,-525.757,331.421,
00:00:15:950,-0.678,-0.503,0.859,881.836,-348.633,2.197,
00:00:15:966,-0.637,-0.377,0.974,82.763,36.377,-323.609,
00:00:15:983,-0.652,-0.217,0.877,-653.565,455.139,-655.457,
00:00:16:0,-0.631,0.006,0.805,-1204.773,767.517,-903.138,
00:00:16:16,-0.587,0.283,0.82,-1505.677,905.761,-1054.566,
00:00:16:33,-0.459,0.371,0.766,-1694.092,903.198,-1119.202,
00:00:16:50,-0.358,0.237,0.483,-1753.785,770.691,-937.623,
00:00:16:66,-0.235,0.626,0.176,-1567.078,563.781,-594.422,
00:00:16:83,-0.196,1.631,0.386,-815.674,255.188,-233.521,
00:00:16:100,-0.306,1.687,0.761,290.893,-18.921,169.25,
00:00:16:116,-0.34,0.956,0.966,892.639,-168.58,446.289,
00:00:16:133,-0.424,0.528,0.963,952.697,-318.055,703.857,
00:00:16:150,-0.462,0.439,0.887,995.727,-471.863,882.019,
00:00:16:166,-0.566,0.29,0.779,1140.869,-580.811,879.638,
00:00:16:183,-0.574,0.036,0.618,1279.48,-605.408,816.04,
00:00:16:200,-0.582,-0.227,0.526,1369.567,-559.449,623.657,
00:00:16:216,-0.584,-0.403,0.536,1256.713,-466.858,301.452,
00:00:16:233,-0.726,-0.467,0.768,886.23,-314.515,-35.706,
00:00:16:250,-0.652,-0.35,0.915,253.54,23.803,-356.385,
00:00:16:266,-0.721,-0.227,0.93,-407.898,437.683,-659.302,
00:00:16:283,-0.734,-0.077,0.876,-947.754,792.175,-924.866,
00:00:16:300,-0.698,0.164,0.952,-1265.32,963.501,-1053.04,
00:00:16:316,-0.581,0.367,0.938,-1499.146,995.178,-1125.062,
00:00:16:333,-0.421,0.272,0.651,-1607.605,892.944,-991.272,
00:00:16:350,-0.225,0.584,0.105,-1484.437,683.349,-672.364,
00:00:16:366,-0.219,1.124,1.221,825.622,-181.763,298.339,
00:00:16:383,-0.199,0.594,1.229,883.361,-336.365,571.838,
00:00:16:400,-0.274,0.576,1.062,838.806,-507.264,799.499,
00:00:16:416,-0.361,0.452,0.859,908.813,-645.691,845.031,
00:00:16:433,-0.429,0.25,0.693,1070.068,-710.755,798.339,
00:00:16:450,-0.516,0.072,0.619,1235.534,-673.096,660.095,
00:00:16:466,-0.543,-0.106,0.646,1239.196,-548.706,469.177,
00:00:16:483,-0.503,-0.282,0.743,944.763,-380.86,198.669,
00:00:16:500,-0.613,-0.397,0.958,376.892,-139.344,-81.116,
00:00:16:516,-0.525,-0.236,1.009,-475.037,185.547,-376.954,
00:00:16:533,-0.535,0.161,0.891,-1370.85,775.573,-842.53,
00:00:16:550,-0.483,0.337,0.876,-1511.658,866.76,-1009.034,
00:00:16:566,-0.342,0.189,0.74,-1587.708,833.374,-947.51,
00:00:16:583,-0.24,0.211,0.327,-1649.231,657.043,-710.999,
00:00:16:600,-0.151,1.137,0.355,-1285.889,358.581,-357.239,
00:00:16:616,-0.279,1.665,0.652,-389.161,51.94,-7.142,
00:00:16:633,-0.379,1.324,0.843,615.295,-135.376,370.239,
00:00:16:650,-0.386,0.816,0.965,992.004,-314.759,669.372,
00:00:16:667,-0.469,0.526,0.952,1085.937,-482.727,859.802,
00:00:16:683,-0.532,0.31,0.845,1081.604,-601.929,919.677,
00:00:16:700,-0.595,0.148,0.721,1105.835,-641.907,845.703,
00:00:16:717,-0.619,-0.052,0.602,1078.247,-557.618,665.039,
00:00:16:733,-0.598,-0.258,0.588,848.938,-443.238,429.321,
00:00:16:750,-0.538,-0.283,0.71,496.643,-342.408,150.573,saltLH
00:00:16:767,-0.606,-0.195,0.902,103.027,-131.165,-130.982,
00:00:16:783,-0.585,-0.086,0.954,-313.538,222.29,-387.146,
00:00:16:800,-0.563,-0.011,0.907,-691.834,526.672,-652.466,
00:00:16:817,-0.521,0.153,0.895,-988.892,735.656,-846.192,
00:00:16:833,-0.463,0.327,0.855,-1234.62,803.466,-980.652,
00:00:16:850,-0.3,0.211,0.755,-1462.83,781.494,-1004.151,
00:00:16:867,-0.166,0.106,0.29,-1576.722,591.797,-762.94,
00:00:16:883,-0.036,0.923,0.321,-1369.568,322.082,-479.615,
00:00:16:900,-0.223,1.678,0.688,-502.686,6.897,-164.978,
00:00:16:917,-0.304,1.335,0.882,488.342,-127.869,167.48,
00:00:16:933,-0.335,0.848,0.988,781.799,-294.129,447.57,
00:00:16:950,-0.428,0.631,0.932,822.815,-430.787,677.734,
00:00:16:967,-0.508,0.496,0.795,886.474,-538.819,781.311,
00:00:16:983,-0.582,0.295,0.657,975.219,-550.477,750.488,
00:00:17:0,-0.605,0.102,0.597,1003.051,-494.202,635.986,
00:00:17:17,-0.616,-0.056,0.652,905.883,-364.258,435.608,
00:00:17:33,-0.565,-0.157,0.766,596.252,-218.384,187.072,
00:00:17:50,-0.561,-0.165,0.873,161.255,23.071,-95.459,
00:00:17:67,-0.595,-0.167,0.901,-345.459,328.796,-372.315,
00:00:17:83,-0.447,0.453,0.954,-1374.573,835.449,-991.639,
00:00:17:100,-0.322,0.308,0.759,-1495.24,788.391,-925.477,
00:00:17:117,-0.133,0.369,0.306,-1557.496,577.88,-670.35,
00:00:17:133,-0.069,1.187,0.275,-1147.889,244.812,-314.576,
00:00:17:150,-0.218,1.774,0.618,-169.495,16.906,-6.47,
00:00:17:167,-0.398,0.552,0.965,967.834,-524.414,857.422,
00:00:17:183,-0.499,0.396,0.801,995.91,-624.329,930.481,
00:00:17:200,-0.557,0.239,0.62,1126.648,-636.292,889.343,
00:00:17:217,-0.57,0.073,0.52,1224.731,-590.394,736.938,
00:00:17:233,-0.555,-0.121,0.567,1151.489,-479.615,486.511,
00:00:17:250,-0.53,-0.24,0.723,818.786,-320.435,170.837,
00:00:17:267,-0.644,-0.325,0.92,268.554,-45.044,-170.35,
00:00:17:283,-0.599,-0.226,0.932,-418.03,329.589,-436.463,
00:00:17:300,-0.609,-0.055,0.862,-920.105,668.701,-749.146,
00:00:17:317,-0.554,0.122,0.823,-1230.591,853.454,-906.922,
00:00:17:333,-0.45,0.346,0.842,-1441.346,908.874,-1070.252,
00:00:17:350,-0.314,0.253,0.679,-1552.979,854.858,-1042.359,
00:00:17:367,-0.23,1.777,0.664,-210.633,73.669,-174.683,
00:00:17:383,-0.23,1.28,0.869,606.079,-91.736,179.26,
00:00:17:400,-0.287,0.928,1.002,855.224,-243.409,461.12,
00:00:17:417,-0.427,0.564,0.865,842.346,-511.109,803.65,
00:00:17:433,-0.477,0.401,0.697,868.164,-590.577,792.48,
00:00:17:450,-0.521,0.213,0.572,948.059,-587.464,705.566,
00:00:17:467,-0.553,-0.026,0.519,959.655,-483.948,555.481,
00:00:17:483,-0.54,-0.231,0.569,804.626,-358.277,320.434,
00:00:17:500,-0.567,-0.103,0.947,-443.482,439.453,-520.813,
00:00:17:517,-0.564,0.014,0.888,-905.091,752.441,-826.783,
00:00:17:533,-0.477,0.229,0.842,-1188.416,895.507,-997.437,
00:00:17:550,-0.341,0.41,0.806,-1446.045,904.846,-1134.217,
00:00:17:567,-0.186,0.284,0.552,-1523.865,804.443,-989.319,
00:00:17:583,0.002,0.631,0.273,-1440.186,514.587,-697.083,
00:00:17:600,-0.213,1.281,0.942,699.524,-251.404,308.715,
00:00:17:617,-0.28,0.897,1.003,861.511,-427.247,615.966,
00:00:17:633,-0.373,0.727,0.927,878.173,-570.13,840.942,
00:00:17:650,-0.452,0.543,0.766,927.246,-666.81,923.828,
00:00:17:667,-0.517,0.358,0.597,1062.622,-693.36,914.062,
00:00:17:683,-0.541,0.151,0.519,1173.095,-631.287,802.063,
00:00:17:700,-0.53,-0.074,0.568,1095.337,-513.489,585.083,
00:00:17:717,-0.501,-0.227,0.69,763.672,-381.409,303.894,
00:00:17:733,-0.606,-0.286,0.864,308.838,-146.668,-9.827,
00:00:17:750,-0.538,-0.231,0.884,-211.06,167.053,-308.655,
00:00:17:767,-0.558,-0.069,0.837,-673.523,523.193,-640.931,
00:00:17:783,-0.513,0.098,0.836,-944.336,765.686,-887.207,
00:00:17:800,-0.44,0.298,0.891,-1162.11,896.24,-1037.11,
00:00:17:817,-0.295,0.453,0.861,-1383.423,866.333,-1099.244,
00:00:17:833,-0.176,0.318,0.425,-1449.158,740.417,-896.79,
00:00:17:850,-0.046,0.712,0.18,-1273.316,464.538,-623.963,
00:00:17:867,-0.086,1.664,0.393,-688.294,170.349,-279.358,
00:00:17:883,-0.256,1.671,0.755,313.903,-20.997,-0.855,
00:00:17:900,-0.227,1.14,0.995,811.706,-169.068,356.689,
00:00:17:917,-0.29,0.811,1.053,852.905,-298.401,622.68,
00:00:17:933,-0.357,0.678,0.973,753.173,-417.969,850.097,
00:00:17:950,-0.433,0.56,0.809,726.928,-492.127,903.747,
00:00:17:967,-0.479,0.396,0.68,796.63,-509.705,859.741,
00:00:17:983,-0.5,0.17,0.652,880.066,-449.585,734.863,
00:00:18:0,-0.493,-0.092,0.679,843.933,-329.651,542.297,
00:00:18:17,-0.465,-0.282,0.758,610.595,-202.21,270.324,
00:00:18:33,-0.487,-0.247,0.857,201.049,-38.147,-12.024,
00:00:18:50,-0.5,-0.159,0.875,-182.74,206.97,-316.285,
00:00:18:67,-0.472,-0.053,0.849,-519.471,444.458,-640.381,
00:00:18:83,-0.459,0.139,0.89,-802.491,630.188,-858.155,
00:00:18:100,-0.398,0.366,0.946,-1018.616,724.914,-1010.743,
00:00:18:117,-0.059,0.878,0.159,-1096.558,360.29,-552.43,
00:00:18:133,-0.108,1.618,0.385,-461.914,89.477,-244.385,
00:00:18:150,-0.222,1.593,0.787,372.192,-111.939,105.957,
00:00:18:167,-0.254,1.088,1.003,815.551,-227.234,404.113,
00:00:18:183,-0.316,0.746,1.048,825.5,-321.106,681.457,
00:00:18:200,-0.381,0.599,0.961,746.582,-390.442,850.708,
00:00:18:217,-0.454,0.437,0.84,716.919,-415.284,851.501,
00:00:18:233,-0.473,0.224,0.748,716.125,-380.616,740.905,
00:00:18:250,-0.468,0.011,0.717,621.765,-290.406,551.941,
00:00:18:267,-0.442,-0.189,0.78,407.592,-201.722,263.488,
00:00:18:283,-0.456,-0.176,0.898,154.663,-79.163,-27.466,
00:00:18:300,-0.47,-0.078,0.914,-362.915,333.984,-605.774,
00:00:18:317,-0.453,0.174,0.937,-656.311,512.207,-861.023,
00:00:18:333,-0.401,0.424,0.973,-918.885,591.858,-985.718,
00:00:18:350,-0.153,0.55,0.472,-1234.62,469.848,-748.597,
00:00:18:367,-0.067,1.016,0.294,-1062.623,280.212,-471.253,
00:00:18:383,-0.087,1.638,0.503,-406.922,64.331,-117.188,
00:00:18:400,-0.152,1.52,0.853,300.598,-123.352,222.961,
00:00:18:417,-0.288,0.601,0.923,620.727,-555.909,909.362,
00:00:18:433,-0.377,0.434,0.765,693.908,-670.655,941.284,
00:00:18:450,-0.449,0.23,0.635,852.905,-714.966,880.615,
00:00:18:467,-0.511,-0.004,0.536,971.74,-675.11,708.13,
00:00:18:483,-0.532,-0.193,0.517,931.518,-576.539,433.654,
00:00:18:500,-0.537,-0.238,0.627,712.158,-463.013,144.104,
00:00:18:517,-0.555,-0.224,0.757,366.882,-225.098,-164.124,
00:00:18:533,-0.61,-0.225,0.769,-81.849,103.271,-429.2,
00:00:18:550,-0.571,-0.064,0.653,-504.883,489.441,-711.06,
00:00:18:567,-0.558,0.124,0.655,-813.904,782.104,-914.551,
00:00:18:583,-0.472,0.538,0.714,-1057.251,977.6,-1046.143,
00:00:18:600,-0.307,0.768,0.825,-1260.132,1014.77,-1099.671,
00:00:18:617,-0.145,0.481,0.588,-1400.269,926.574,-903.748,
00:00:18:633,0.038,0.713,0.229,-1421.265,644.47,-531.311,
00:00:18:650,0.086,1.724,0.448,-867.615,246.154,-96.802,
00:00:18:667,-0.137,1.921,0.942,260.742,-42.725,269.592,
00:00:18:683,-0.094,0.954,1.072,880.798,-217.957,621.46,
00:00:18:700,-0.219,0.61,1.004,949.585,-468.567,881.652,
00:00:18:717,-0.377,0.607,0.946,1063.171,-696.289,1064.575,
00:00:18:733,-0.478,0.277,0.786,1274.597,-783.57,1043.884,
00:00:18:750,-0.573,-0.089,0.601,1286.132,-798.218,892.944,
00:00:18:767,-0.681,-0.268,0.544,1052.002,-689.454,610.901,
00:00:18:783,-0.67,-0.175,0.732,689.758,-535.889,246.948,
00:00:18:800,-0.697,-0.132,0.936,345.825,-229.31,-95.887,
00:00:18:817,-0.69,-0.201,0.962,-173.584,202.636,-383.728,
00:00:18:833,-0.636,0.007,0.891,-712.281,588.195,-710.572,
00:00:18:850,-0.564,0.289,0.843,-1056.763,808.41,-869.385,
00:00:18:867,-0.403,0.508,0.773,-1284.852,883.056,-991.578,
00:00:18:883,-0.249,0.382,0.554,-1404.603,836.12,-870.667,
00:00:18:900,-0.055,0.607,0.28,-1312.073,617.065,-604.554,
00:00:18:917,-0.028,1.441,0.502,-834.961,280.212,-254.639,
00:00:18:933,-0.139,1.668,0.843,38.33,13.488,52.612,
00:00:18:950,-0.238,1.152,1.002,650.573,-156.006,361.267,
00:00:18:967,-0.282,0.775,1.026,850.769,-327.82,649.597,
00:00:18:983,-0.343,0.619,0.979,819.03,-536.744,847.107,
00:00:19:0,-0.431,0.453,0.813,846.435,-691.773,922.912,
00:00:19:17,-0.503,0.208,0.608,1035.583,-782.288,917.114,
00:00:19:33,-0.572,-0.007,0.466,1289.55,-752.32,768.859,
00:00:19:50,-0.581,-0.164,0.524,1413.391,-686.646,516.784,
00:00:19:67,-0.552,-0.29,0.758,1176.452,-534.607,224.121,
00:00:19:83,-0.659,-0.399,0.942,528.625,-229.004,-95.215,
00:00:19:100,-0.626,-0.308,0.894,-216.431,163.391,-373.536,
00:00:19:117,-0.622,-0.162,0.744,-827.393,564.209,-700.318,
00:00:19:133,-0.569,0.068,0.73,-1204.163,828.003,-904.358,
00:00:19:150,-0.468,0.307,0.826,-1425.782,971.069,-1070.313,
00:00:19:167,-0.318,0.465,0.9,-1633.606,973.388,-1164.368,
00:00:19:183,-0.173,0.313,0.64,-1684.937,835.632,-964.905,
00:00:19:200,0.026,0.658,0.245,-1629.883,516.357,-609.07,
00:00:19:217,-0.018,1.815,0.46,-1080.628,96.374,-212.891,
00:00:19:233,-0.23,2.012,0.851,245.3,-144.288,158.203,
00:00:19:250,-0.196,1.206,0.992,981.75,-307.435,523.681,
00:00:19:267,-0.291,0.786,1.009,1075.317,-528.382,815.49,
00:00:19:283,-0.388,0.677,0.903,1004.882,-744.69,1025.146,
00:00:19:300,-0.513,0.446,0.712,1029.602,-870.179,1052.734,
00:00:19:317,-0.612,0.209,0.503,1138.977,-870.972,964.782,
00:00:19:333,-0.674,-0.019,0.45,1128.112,-731.629,778.259,
00:00:19:350,-0.629,-0.251,0.542,890.869,-563.416,504.394,
00:00:19:367,-0.711,-0.391,0.767,-88.013,-2.015,-162.537,
00:00:19:383,-0.663,-0.301,0.664,-559.51,364.685,-483.948,
00:00:19:400,-0.632,-0.113,0.626,-867.066,675.109,-737.366,
00:00:19:417,-0.57,0.172,0.705,-1051.209,863.525,-932.923,
00:00:19:433,-0.471,0.432,0.814,-1287.537,925.903,-1096.497,
00:00:19:450,-0.326,0.375,0.744,-1484.437,850.891,-1070.069,
00:00:19:467,-0.178,0.463,0.301,-1523.987,652.71,-782.898,
00:00:19:483,-0.045,1.181,0.231,-1229.676,301.025,-453.675,
00:00:19:500,-0.215,1.912,0.565,-398.56,-31.495,-88.562,
00:00:19:517,-0.336,1.514,0.852,667.724,-211.853,261.535,
00:00:19:533,-0.339,0.844,0.923,1022.522,-342.652,570.984,
00:00:19:550,-0.424,0.591,0.882,1052.124,-491.578,787.963,
00:00:19:567,-0.495,0.471,0.759,1006.836,-626.465,931.945,
00:00:19:583,-0.579,0.256,0.585,1093.75,-673.035,892.761,
00:00:19:600,-0.637,0.08,0.452,1254.028,-597.596,771.972,
00:00:19:617,-0.641,-0.093,0.448,1268.859,-468.323,523.376,
00:00:19:633,-0.608,-0.2,0.642,1005.737,-306.946,217.346,
00:00:19:650,-0.689,-0.376,0.848,502.136,-34.241,-86.792,
00:00:19:667,-0.64,-0.416,0.864,-147.217,329.04,-372.315,
00:00:19:683,-0.662,-0.229,0.845,-726.441,739.99,-722.229,
00:00:19:700,-0.619,0.088,0.95,-1057.74,997.802,-966.37,
00:00:19:717,-0.523,0.428,1.094,-1347.046,1120.056,-1190.674,
00:00:19:733,-0.336,0.242,1.056,-1499.573,1087.219,-1262.391,
00:00:19:750,-0.17,0.047,0.298,-1493.165,840.149,-988.038,
00:00:19:767,0.057,1.067,0.148,-1341.614,550.842,-660.035,
00:00:19:783,0.083,2.272,0.637,-671.936,8.056,-291.626,
00:00:19:800,-0.323,1.778,0.953,748.352,-141.541,-23.865,
00:00:19:817,-0.19,1.006,1.03,1189.026,-209.107,374.817,
00:00:19:833,-0.227,0.728,1.009,993.408,-411.56,625.305,
00:00:19:850,-0.336,0.618,0.9,695.678,-576.355,838.379,
00:00:19:867,-0.411,0.467,0.762,542.053,-628.846,867.492,
00:00:19:883,-0.503,0.289,0.64,531.005,-586.487,798.767,
00:00:19:900,-0.573,0.105,0.626,490.234,-418.946,665.405,
00:00:19:917,-0.53,-0.077,0.675,324.646,-164.002,449.89,
00:00:19:933,-0.439,-0.209,0.703,88.562,8.422,150.879,
00:00:19:950,-0.46,-0.318,0.723,-295.899,205.688,-171.326,
00:00:19:967,-0.433,-0.254,0.744,-704.895,444.763,-519.532,
00:00:19:983,-0.398,-0.026,0.825,-1038.514,612.182,-785.889,
00:00:20:0,-0.354,0.263,0.916,-1337.647,723.144,-978.699,
00:00:20:17,-0.222,0.439,0.831,-1594.056,698.852,-1033.875,
00:00:20:33,-0.105,1.098,0.203,-1090.455,399.109,-610.962,
00:00:20:50,-0.002,1.626,0.448,-413.086,241.15,-256.409,
00:00:20:67,-0.118,1.592,0.808,249.023,-37.11,39.611,
00:00:20:83,-0.184,1.086,0.998,437.805,-154.725,369.018,
00:00:20:100,-0.229,0.851,0.991,318.359,-318.177,666.198,
00:00:20:117,-0.32,0.829,0.86,278.991,-443.238,898.437,
00:00:20:133,-0.377,0.75,0.741,411.682,-540.711,994.69,
00:00:20:150,-0.441,0.587,0.661,577.148,-621.827,998.535,
00:00:20:167,-0.489,0.381,0.662,742.065,-662.293,924.743,
00:00:20:183,-0.569,0.067,0.602,902.465,-641.846,800.964,
00:00:20:200,-0.662,-0.253,0.474,878.54,-539.429,554.077,
00:00:20:217,-0.668,-0.299,0.48,634.948,-412.903,268.188,
00:00:20:233,-0.639,-0.156,0.563,389.16,-244.385,-85.022,
00:00:20:250,-0.654,-0.162,0.599,213.256,26.977,-406.678,
00:00:20:267,-0.62,-0.25,0.55,25.329,416.992,-736.695,
00:00:20:283,-0.563,-0.186,0.496,-236.023,757.202,-1051.209,
00:00:20:300,-0.498,0.119,0.611,-545.227,1054.992,-1314.637,
00:00:20:317,-0.377,0.458,0.786,-937.073,1228.271,-1458.741,
00:00:20:333,-0.172,0.606,0.792,-1413.819,1165.649,-1474.305,
00:00:20:350,-0.125,0.753,0.454,-1538.941,918.579,-1278.016,
00:00:20:367,0.121,1.268,0.131,-1093.812,690.185,-778.077,
00:00:20:383,0.201,2.233,0.496,-237.854,227.234,-287.293,
00:00:20:400,-0.043,1.878,1.107,699.707,-5.31,151.611,
00:00:20:417,-0.265,0.836,0.967,460.449,-477.723,893.249,
00:00:20:433,-0.307,0.657,0.791,641.845,-521.241,926.147,
00:00:20:450,-0.35,0.315,0.677,787.658,-503.968,770.752,
00:00:20:467,-0.432,0.058,0.697,790.283,-406.189,561.462,
00:00:20:483,-0.429,-0.155,0.759,606.994,-268.006,271.24,
00:00:20:500,-0.472,-0.214,0.837,228.759,-117.371,-50.721,
00:00:20:517,-0.466,-0.077,0.892,-197.632,110.717,-385.01,
00:00:20:533,-0.442,0.237,0.942,-531.373,323.913,-717.469,
00:00:20:550,-0.345,0.353,0.954,-810.669,494.812,-873.108,
00:00:20:567,-0.235,0.461,0.841,-1089.6,493.896,-900.696,
00:00:20:583,-0.136,0.704,0.556,-1240.784,383.422,-731.568,
00:00:20:600,-0.045,1.251,0.331,-854.859,173.645,-384.888,
00:00:20:617,-0.167,1.457,0.764,328.369,-217.835,294.372,
00:00:20:633,-0.242,1.055,0.938,451.904,-321.106,558.166,
00:00:20:650,-0.304,0.778,0.929,363.159,-395.081,780.395,
00:00:20:667,-0.383,0.573,0.767,283.386,-414.49,900.879,
00:00:20:683,-0.467,0.423,0.615,313.415,-384.888,857.483,
00:00:20:700,-0.503,0.272,0.548,343.75,-330.201,681.396,
00:00:20:717,-0.488,0.084,0.652,284.546,-261.658,438.537,
00:00:20:733,-0.474,-0.13,0.748,146.301,-146.363,127.014,
00:00:20:750,-0.497,-0.232,0.767,-47.974,13.122,-223.45,saltLH
00:00:20:767,-0.497,-0.116,0.754,-251.282,217.712,-520.02,
00:00:20:783,-0.41,0.162,0.761,-428.65,408.447,-855.286,
00:00:20:800,-0.396,0.435,0.844,-631.47,528.137,-1031.678,
00:00:20:817,-0.197,0.688,0.531,-990.723,437.866,-976.197,
00:00:20:833,-0.045,1.033,0.296,-812.439,294.067,-690.064,
00:00:20:850,-0.002,1.559,0.372,-422.12,56.579,-293.58,
00:00:20:867,-0.111,1.631,0.576,214.965,-110.23,97.473,
00:00:20:883,-0.156,1.231,0.806,555.908,-260.865,465.881,
00:00:20:900,-0.23,0.927,0.87,569.213,-376.526,768.859,
00:00:20:917,-0.395,0.556,0.7,569.091,-503.968,1085.632,
00:00:20:933,-0.449,0.396,0.548,683.044,-518.86,1064.392,
00:00:20:950,-0.516,0.182,0.484,803.405,-493.836,912.292,
00:00:20:967,-0.556,-0.053,0.54,776.611,-424.744,644.348,
00:00:20:983,-0.599,-0.18,0.668,484.924,-317.505,303.833,
00:00:21:0,-0.63,-0.131,0.807,116.76,-135.621,-23.438,
00:00:21:17,-0.65,0.092,0.903,-254.334,155.7,-364.441,
00:00:21:33,-0.618,0.283,0.898,-509.888,413.757,-647.767,
00:00:21:50,-0.522,0.44,0.859,-702.759,585.022,-828.37,
00:00:21:67,-0.392,0.452,0.711,-847.29,596.801,-913.331,
00:00:21:83,-0.288,0.45,0.445,-897.095,508.728,-866.028,
00:00:21:100,-0.152,0.884,0.32,-695.801,391.418,-627.564,
00:00:21:117,-0.203,1.045,0.956,419.86,-203.675,290.466,
00:00:21:133,-0.266,0.858,0.916,427.307,-349.976,538.452,
00:00:21:150,-0.328,0.773,0.799,438.354,-477.295,717.773,
00:00:21:167,-0.379,0.642,0.694,508.056,-573.426,824.34,
00:00:21:183,-0.428,0.448,0.595,640.564,-633.973,848.632,
00:00:21:200,-0.53,0.248,0.515,778.442,-623.352,791.809,
00:00:21:217,-0.558,0.066,0.511,802.551,-545.472,627.868,
00:00:21:233,-0.542,-0.109,0.594,611.328,-447.571,339.599,
00:00:21:250,-0.539,-0.224,0.673,255.432,-299.866,17.761,
00:00:21:267,-0.589,-0.218,0.676,-69.031,-22.889,-314.087,
00:00:21:283,-0.596,-0.083,0.63,-314.209,291.992,-665.162,
00:00:21:300,-0.591,0.177,0.651,-510.682,596.191,-936.524,
00:00:21:317,-0.515,0.416,0.631,-687.195,781.86,-1114.869,
00:00:21:333,-0.178,1.258,0.503,-542.054,567.199,-676.88,
00:00:21:350,-0.155,1.502,0.701,-70.435,345.581,-294.678,
00:00:21:367,-0.198,1.376,0.95,225.219,155.395,92.346,
00:00:21:383,-0.264,1.096,1.051,325.134,-25.94,388.977,
00:00:21:400,-0.302,0.903,1.085,332.153,-197.022,663.879,
00:00:21:417,-0.355,0.785,1.005,366.333,-329.834,819.763,
00:00:21:433,-0.396,0.583,0.87,454.834,-454.59,859.985,
00:00:21:450,-0.454,0.295,0.776,536.621,-539.429,805.359,
00:00:21:467,-0.516,0.12,0.732,549.56,-581.421,675.232,
00:00:21:483,-0.591,-0.025,0.711,489.929,-552.674,446.96,
00:00:21:500,-0.629,-0.098,0.692,371.399,-436.829,193.237,
00:00:21:517,-0.639,-0.112,0.668,198.73,-246.277,-111.817,
00:00:21:533,-0.619,-0.087,0.626,10.376,-12.452,-400.696,
00:00:21:550,-0.592,0.028,0.57,-179.871,252.99,-645.325,
00:00:21:567,-0.542,0.22,0.615,-332.642,476.806,-878.296,
00:00:21:583,-0.464,0.383,0.639,-519.593,642.639,-998.78,
00:00:21:600,-0.354,0.619,0.628,-726.746,672.912,-1013.916,
00:00:21:617,-0.266,0.888,0.612,-765.992,603.82,-905.152,
00:00:21:633,-0.171,1.04,0.577,-544.861,478.454,-644.288,
00:00:21:650,-0.12,1.225,0.626,-271.241,285.461,-308.106,
00:00:21:667,-0.185,1.297,0.807,63.476,80.688,-2.137,
00:00:21:683,-0.233,1.128,0.967,248.779,-130.677,347.412,
00:00:21:700,-0.277,0.928,0.983,313.659,-285.584,596.618,
00:00:21:717,-0.338,0.696,0.891,390.136,-420.716,794.738,
00:00:21:733,-0.408,0.504,0.752,500.793,-515.625,878.662,
00:00:21:750,-0.493,0.292,0.634,679.443,-551.148,831.359,
00:00:21:767,-0.509,0.057,0.65,725.219,-518.128,648.254,
00:00:21:783,-0.555,-0.132,0.698,533.752,-435.303,374.572,
00:00:21:800,-0.596,-0.218,0.739,238.952,-270.935,37.902,
00:00:21:817,-0.6,-0.193,0.712,-46.875,-45.227,-263.245,
00:00:21:833,-0.57,0.028,0.667,-277.039,219.238,-568.543,
00:00:21:850,-0.516,0.23,0.695,-437.561,416.198,-808.35,
00:00:21:867,-0.419,0.357,0.653,-685.303,513.977,-884.522,
00:00:21:883,-0.334,0.722,0.582,-848.755,480.224,-848.45,
00:00:21:900,-0.291,1.019,0.498,-710.633,389.282,-648.926,
00:00:21:917,-0.24,1.224,0.5,-329.468,263.916,-328.003,
00:00:21:933,-0.249,1.339,0.65,27.099,119.14,10.986,
00:00:21:950,-0.308,1.27,0.819,244.079,-33.753,360.046,
00:00:21:967,-0.354,1.003,0.9,321.045,-172.364,675.293,
00:00:21:983,-0.381,0.778,0.887,370.971,-309.327,923.217,
00:00:22:0,-0.438,0.575,0.775,518.737,-433.167,1091.98,
00:00:22:17,-0.492,0.354,0.641,811.401,-531.128,1135.315,
00:00:22:33,-0.49,0.032,0.569,1028.991,-633.545,1044.738,
00:00:22:50,-0.532,-0.29,0.581,996.46,-700.928,803.466,
00:00:22:67,-0.586,-0.463,0.646,835.815,-678.772,450.5,
00:00:22:83,-0.747,-0.449,0.768,632.263,-491.028,71.35,
00:00:22:100,-0.674,-0.336,0.808,261.718,-147.889,-309.693,
00:00:22:117,-0.685,-0.13,0.759,-113.16,279.663,-676.819,
00:00:22:133,-0.437,0.505,0.557,-1065.918,794.738,-1154.603,
00:00:22:150,-0.36,0.893,0.567,-938.721,677.368,-1001.954,
00:00:22:167,-0.274,1.08,0.645,-626.038,508.056,-755.188,
00:00:22:183,-0.286,1.284,0.851,-286.499,305.236,-428.162,
00:00:22:200,-0.313,1.279,0.989,-20.935,104.431,-5.738,
00:00:22:217,-0.346,1.145,0.998,165.161,-77.881,381.164,
00:00:22:233,-0.387,1.005,0.924,341.186,-246.705,690.796,
00:00:22:250,-0.441,0.744,0.842,561.889,-401.734,883.728,
00:00:22:267,-0.473,0.57,0.864,765.197,-552.979,1018.432,
00:00:22:283,-0.512,0.258,0.815,889.587,-634.4,1003.906,
00:00:22:300,-0.552,-0.002,0.723,946.411,-649.17,876.77,
00:00:22:317,-0.591,-0.247,0.637,829.956,-588.746,609.314,
00:00:22:333,-0.672,-0.409,0.62,552.063,-472.84,277.099,
00:00:22:350,-0.681,-0.374,0.652,164.367,-231.263,-108.338,
00:00:22:367,-0.678,-0.251,0.7,-147.095,81.054,-458.863,
00:00:22:383,-0.628,0.002,0.723,-427.247,437.683,-749.39,
00:00:22:400,-0.548,0.144,0.691,-677.43,699.463,-988.404,
00:00:22:417,-0.457,0.146,0.599,-1032.532,753.051,-1083.436,
00:00:22:433,-0.319,0.481,0.535,-1336.976,617.859,-1040.345,
00:00:22:450,-0.253,0.848,0.5,-1222.046,408.02,-826.905,
00:00:22:467,-0.209,1.206,0.563,-803.894,143.066,-493.775,
00:00:22:483,-0.304,1.407,0.726,-237.122,-66.163,-67.688,
00:00:22:500,-0.383,1.257,0.889,301.757,-225.769,365.844,
00:00:22:517,-0.477,0.947,0.893,591.491,-346.558,737.365,
00:00:22:533,-0.624,0.236,0.68,1315.124,-602.845,996.826,
00:00:22:550,-0.618,-0.019,0.668,1343.872,-555.664,835.205,
00:00:22:567,-0.676,-0.425,0.662,1018.615,-445.923,542.541,
00:00:22:583,-0.715,-0.396,0.677,371.093,-252.808,167.724,
00:00:22:600,-0.722,-0.337,0.638,-170.655,52.063,-200.318,
00:00:22:617,-0.713,-0.17,0.622,-577.271,395.568,-519.959,
00:00:22:633,-0.673,-0.032,0.632,-796.692,712.28,-810.425,
00:00:22:650,-0.618,0.189,0.713,-956.91,925.842,-1021.973,
00:00:22:667,-0.524,0.392,0.78,-1112.916,1017.089,-1085.755,
00:00:22:683,-0.389,0.439,0.667,-1189.454,967.285,-1005.249,
00:00:22:700,-0.286,0.713,0.5,-1065.064,783.386,-829.59,
00:00:22:717,-0.196,1.216,0.492,-541.443,516.906,-447.998,
00:00:22:733,-0.214,1.363,0.688,100.586,260.681,-38.636,
00:00:22:750,-0.263,1.222,0.958,603.149,-14.344,354.492,
00:00:22:767,-0.356,0.849,1.119,803.955,-240.723,688.049,
00:00:22:783,-0.443,0.519,1.046,877.746,-448.121,917.846,
00:00:22:800,-0.511,0.353,0.881,1014.404,-620.24,1026.062,
00:00:22:817,-0.562,0.208,0.712,1248.962,-741.578,988.708,
00:00:22:833,-0.611,0.01,0.635,1491.943,-802.124,844.848,
00:00:22:850,-0.62,-0.241,0.606,1608.947,-760.498,648.071,
00:00:22:867,-0.699,-0.524,0.638,1258.3,-626.221,387.695,
00:00:22:883,-0.719,-0.444,0.787,517.395,-388.306,56.823,
00:00:22:900,-0.74,-0.29,0.838,-296.936,3.295,-255.799,
00:00:22:917,-0.711,-0.203,0.767,-915.345,432.556,-552.552,
00:00:22:933,-0.675,-0.04,0.752,-1302.857,749.145,-784.729,
00:00:22:950,-0.612,0.133,0.823,-1527.649,954.467,-975.586,
00:00:22:967,-0.522,0.307,0.984,-1728.699,1009.704,-1087.525,
00:00:22:983,-0.397,0.395,0.916,-1862.793,922.302,-1014.71,
00:00:23:0,-0.237,0.558,0.514,-1469.422,677.978,-724.793,
00:00:23:17,-0.155,1.084,0.263,-565.796,363.342,-278.199,
00:00:23:33,-0.181,1.563,0.498,461.364,-22.828,110.107,
00:00:23:50,-0.347,1.237,0.953,1268.615,-296.692,422.668,
00:00:23:67,-0.392,0.49,1.034,1495.178,-511.353,663.086,
00:00:23:83,-0.529,0.203,0.876,1340.271,-702.637,838.684,
00:00:23:100,-0.62,0.139,0.672,1203.064,-788.941,867.431,
00:00:23:117,-0.662,-0.084,0.56,1061.95,-725.464,713.317,
00:00:23:133,-0.665,-0.231,0.656,736.45,-622.803,495.361,
00:00:23:150,-0.732,-0.22,0.818,317.199,-382.142,193.237,
00:00:23:167,-0.718,-0.341,0.803,-75.318,-27.222,-69.764,
00:00:23:183,-0.684,-0.335,0.727,-564.393,365.295,-330.506,
00:00:23:200,-0.656,-0.171,0.718,-947.144,652.832,-560.669,
00:00:23:217,-0.583,0.111,0.778,-1254.09,814.819,-738.892,
00:00:23:233,-0.476,0.258,0.844,-1528.626,863.952,-850.037,
00:00:23:250,-0.371,0.186,0.732,-1904.908,758.117,-799.744,
00:00:23:267,-0.28,0.499,0.451,-1919.556,530.09,-658.081,
00:00:23:283,-0.292,1.182,0.377,-1248.291,300.537,-310.791,
00:00:23:300,-0.298,1.509,0.533,-90.455,78.552,8.972,
00:00:23:317,-0.37,1.16,0.829,853.332,-117.066,324.279,
00:00:23:333,-0.404,0.636,0.952,1127.746,-276.49,557.373,
00:00:23:350,-0.49,0.382,0.916,1090.393,-455.384,739.99,
00:00:23:367,-0.565,0.293,0.742,1085.876,-571.289,787.475,
00:00:23:383,-0.65,0.025,0.582,1600.83,-534.607,555.236,
00:00:23:400,-0.617,-0.161,0.705,1763.427,-386.719,380.676,
00:00:23:417,-0.697,-0.421,0.942,1472.107,-61.707,118.347,
00:00:23:433,-0.652,-0.621,1.085,623.047,320.19,-108.338,
00:00:23:450,-0.674,-0.439,1.035,-480.713,711.914,-374.573,
00:00:23:467,-0.616,-0.001,0.839,-1287.598,920.044,-680.848,
00:00:23:483,-0.523,0.098,0.727,-1825.44,1008.117,-961.915,
00:00:23:500,-0.364,-0.089,0.448,-1999.817,1001.587,-1005.555,
00:00:23:517,-0.111,0.399,0.213,-1988.892,736.572,-838.013,
00:00:23:533,0.009,1.612,0.603,-1147.278,212.219,-450.257,
00:00:23:550,-0.294,1.632,1.055,201.049,26.367,-123.291,
00:00:23:567,-0.252,0.889,1.104,886.23,-76.05,172.79,
00:00:23:583,-0.474,0.494,0.835,717.651,-726.075,739.196,
00:00:23:600,-0.535,0.285,0.685,994.262,-761.719,701.294,
00:00:23:617,-0.615,0.022,0.632,1174.499,-697.144,620.666,
00:00:23:633,-0.609,-0.206,0.682,1075.683,-552.491,416.626,
00:00:23:650,-0.655,-0.407,0.809,657.714,-349.61,173.156,
00:00:23:667,-0.635,-0.444,0.867,23.986,-55.909,-144.227,
00:00:23:683,-0.652,-0.303,0.899,-580.506,278.442,-377.991,
00:00:23:700,-0.627,-0.107,0.881,-914.795,636.291,-616.394,
00:00:23:717,-0.598,0.089,0.796,-1046.57,866.333,-810.669,
00:00:23:733,-0.493,0.189,0.754,-1155.579,995.849,-952.698,
00:00:23:750,-0.328,0.004,0.501,-1320.191,1022.644,-850.647,
00:00:23:767,-0.13,0.367,0.355,-1590.943,755.92,-732.483,
00:00:23:783,-0.043,1.408,0.571,-1475.159,298.339,-420.227,
00:00:23:800,-0.316,1.68,0.841,-502.808,90.148,-191.59,
00:00:23:817,-0.227,1.25,0.899,460.083,-16.236,202.026,
00:00:23:833,-0.257,0.921,0.987,738.647,-238.587,513.855,
00:00:23:850,-0.341,0.717,1.038,808.41,-432.862,740.051,
00:00:23:867,-0.381,0.466,0.928,793.64,-580.262,866.272,
00:00:23:883,-0.47,0.265,0.777,790.222,-683.838,852.05,
00:00:23:900,-0.561,0.077,0.652,853.759,-666.199,738.342,
00:00:23:917,-0.62,-0.144,0.648,858.825,-537.232,527.526,
00:00:23:933,-0.636,-0.382,0.66,652.71,-335.267,274.963,
00:00:23:950,-0.62,-0.454,0.721,267.883,-137.085,-3.296,
00:00:23:967,-0.627,-0.319,0.759,-171.387,127.136,-270.386,
00:00:23:983,-0.528,0.066,0.75,-715.821,586.12,-743.836,
00:00:24:0,-0.44,0.156,0.807,-962.525,702.453,-836.976,
00:00:24:17,-0.331,0.273,0.726,-1296.57,686.462,-864.258,
00:00:24:33,-0.223,0.546,0.636,-1460.328,551.147,-753.235,
00:00:24:50,-0.168,1.048,0.684,-1278.382,337.646,-525.696,
00:00:24:67,-0.183,1.37,0.735,-746.216,147.461,-290.772,
00:00:24:83,-0.215,1.369,0.826,3.967,-26.49,63.171,
00:00:24:100,-0.251,1.121,0.886,453.125,-183.594,365.356,
00:00:24:117,-0.351,0.878,0.917,722.412,-347.779,623.84,
00:00:24:133,-0.424,0.607,0.848,869.567,-475.098,817.688,
00:00:24:150,-0.517,0.369,0.718,946.655,-591.553,872.619,
00:00:24:167,-0.606,0.162,0.651,1060.852,-579.285,794.983,
00:00:24:183,-0.649,-0.071,0.643,1122.192,-476.563,630.432,
00:00:24:200,-0.599,-0.332,0.688,934.326,-337.098,357.177,
00:00:24:217,-0.617,-0.454,0.779,489.746,-203.064,61.34,
00:00:24:233,-0.649,-0.436,0.776,-56.214,22.216,-238.465,
00:00:24:250,-0.614,-0.195,0.793,-489.869,267.212,-565.552,
00:00:24:267,-0.599,-0.004,0.817,-738.648,501.831,-798.706,
00:00:24:283,-0.55,0.187,0.882,-963.44,640.869,-980.347,
00:00:24:300,-0.429,0.267,0.898,-1317.444,666.198,-1021.79,
00:00:24:317,-0.334,0.277,0.67,-1678.04,553.039,-959.534,
00:00:24:333,-0.257,0.884,0.418,-1723.084,331.848,-709.046,
00:00:24:350,-0.276,1.557,0.458,-1086.792,101.562,-368.592,
00:00:24:367,-0.303,1.681,0.604,-96.192,-42.176,-12.513,
00:00:24:383,-0.319,1.319,0.766,632.019,-186.341,346.313,
00:00:24:400,-0.368,0.897,0.861,882.873,-301.27,677.429,
00:00:24:417,-0.413,0.631,0.865,918.274,-419.129,905.883,
00:00:24:433,-0.477,0.432,0.736,919.738,-531.922,1025.817,
00:00:24:450,-0.508,0.23,0.602,1013,-576.661,996.46,
00:00:24:467,-0.555,-0.02,0.525,1144.775,-532.837,825.195,
00:00:24:483,-0.553,-0.284,0.595,1034.912,-451.477,484.192,
00:00:24:500,-0.563,-0.423,0.764,678.405,-302.552,139.953,
00:00:24:517,-0.607,-0.461,0.858,165.954,-62.928,-200.379,
00:00:24:533,-0.604,-0.295,0.823,-395.264,246.704,-501.587,
00:00:24:550,-0.587,-0.058,0.743,-703.003,522.827,-790.284,
00:00:24:567,-0.549,0.091,0.733,-875.916,685.18,-957.337,
00:00:24:583,-0.448,0.217,0.731,-1083.313,753.845,-1034.058,
00:00:24:600,-0.345,0.328,0.666,-1339.661,700.683,-1027.283,
00:00:24:617,-0.253,0.624,0.509,-1444.397,546.814,-844.605,
00:00:24:633,-0.249,1.192,0.433,-1164.185,335.449,-561.402,
00:00:24:650,-0.277,1.581,0.557,-444.397,161.193,-242.798,
00:00:24:667,-0.31,1.463,0.751,302.307,7.995,137.512,
00:00:24:683,-0.334,1.107,0.854,636.047,-112.793,470.398,
00:00:24:700,-0.381,0.753,0.894,742.309,-258.24,732.666,
00:00:24:717,-0.407,0.585,0.889,807.129,-380.066,893.921,
00:00:24:733,-0.458,0.406,0.829,886.474,-506.653,959.472,
00:00:24:750,-0.462,0.21,0.691,1094.97,-609.07,951.477,
00:00:24:767,-0.497,-0.025,0.505,1530.395,-633.545,839.111,saltLH
00:00:24:783,-0.536,-0.266,0.421,1928.833,-609.009,556.701,
00:00:24:800,-0.552,-0.463,0.589,1945.19,-501.709,255.737,
00:00:24:817,-0.567,-0.619,0.859,1234.802,-312.012,-108.643,
00:00:24:833,-0.644,-0.322,1.021,110.839,43.457,-504.761,
00:00:24:850,-0.692,-0.066,1.005,-794.19,484.741,-818.543,
00:00:24:867,-0.651,0.034,0.932,-1352.417,812.194,-1054.993,
00:00:24:883,-0.553,0.055,0.835,-1896.851,919.494,-1134.949,
00:00:24:900,-0.428,0.401,0.629,-2000,842.468,-1040.772,
00:00:24:917,-0.308,0.927,0.377,-1998.902,655.822,-823.731,
00:00:24:933,-0.293,1.413,0.4,-1273.316,431.945,-490.906,
00:00:24:950,-0.262,1.512,0.619,-230.469,231.872,-54.932,
00:00:24:967,-0.314,1.243,0.923,556.945,47.607,328.308,
00:00:24:983,-0.379,0.823,1.097,829.345,-103.821,622.497,
00:00:25:0,-0.438,0.44,0.93,912.048,-486.573,890.503,
00:00:25:17,-0.508,0.21,0.723,1168.457,-622.01,823.059,
00:00:25:33,-0.57,-0.052,0.676,1453.308,-688.843,651.977,
00:00:25:50,-0.588,-0.317,0.72,1422.241,-630.555,406.189,
00:00:25:67,-0.689,-0.543,0.829,888.794,-489.624,127.746,
00:00:25:83,-0.669,-0.348,0.875,122.314,-228.333,-221.375,
00:00:25:100,-0.682,-0.191,0.771,-514.649,128.112,-493.958,
00:00:25:117,-0.64,-0.037,0.624,-921.082,504.516,-760.254,
00:00:25:133,-0.584,0.188,0.639,-1111.634,754.394,-925.782,
00:00:25:150,-0.476,0.407,0.711,-1265.931,887.451,-1011.414,
00:00:25:167,-0.358,0.488,0.761,-1563.355,860.962,-960.877,
00:00:25:183,-0.223,0.686,0.632,-1772.828,700.317,-807.496,
00:00:25:200,-0.122,1.1,0.508,-1567.017,467.529,-479.248,
00:00:25:217,-0.115,1.542,0.591,-750.489,228.698,-44.129,
00:00:25:233,-0.146,1.521,0.787,267.639,-9.949,393.615,
00:00:25:250,-0.23,1.094,0.954,1067.382,-232.544,713.317,
00:00:25:267,-0.33,0.644,0.943,1557.739,-501.343,971.496,
00:00:25:283,-0.469,0.335,0.771,1852.356,-745.362,1065.796,
00:00:25:300,-0.602,-0.001,0.641,1919.616,-880.921,960.937,
00:00:25:317,-0.618,-0.41,0.549,1573.059,-944.519,755.615,
00:00:25:333,-0.785,-0.527,0.673,852.356,-923.523,419.189,
00:00:25:350,-0.825,-0.248,0.788,185.547,-654.358,66.65,
00:00:25:367,-0.821,-0.234,0.681,-259.888,-209.9,-236.817,
00:00:25:383,-0.767,-0.173,0.533,-596.314,288.086,-510.621,
00:00:25:400,-0.722,-0.011,0.498,-753.052,664.245,-734.559,
00:00:25:417,-0.614,0.186,0.581,-911.133,925.293,-853.821,
00:00:25:433,-0.519,0.325,0.674,-1208.985,1019.653,-898.621,
00:00:25:450,-0.408,0.441,0.67,-1584.168,963.073,-886.597,
00:00:25:467,-0.284,0.596,0.539,-1848.023,778.015,-756.775,
00:00:25:483,-0.175,1.046,0.424,-1688.721,486.938,-460.083,
00:00:25:500,-0.247,1.57,0.607,-880.555,195.739,-124.878,
00:00:25:517,-0.245,1.434,0.822,184.692,-31.922,300.171,
00:00:25:533,-0.326,0.935,0.952,873.474,-217.469,600.647,
00:00:25:550,-0.351,0.543,0.906,1169.189,-443.848,835.632,
00:00:25:567,-0.467,0.472,0.779,1389.77,-663.086,980.468,
00:00:25:583,-0.551,0.189,0.591,1622.009,-813.843,915.588,
00:00:25:600,-0.628,-0.033,0.483,1765.075,-857.85,735.473,
00:00:25:617,-0.693,-0.25,0.589,1673.523,-788.819,523.742,
00:00:25:633,-0.692,-0.463,0.765,1100.891,-587.891,211.547,
00:00:25:650,-0.742,-0.327,0.854,256.775,-244.019,-80.567,
00:00:25:667,-0.701,-0.203,0.732,-466.797,224.426,-366.517,
00:00:25:683,-0.667,-0.04,0.597,-909.485,607.849,-630.494,
00:00:25:700,-0.57,0.165,0.655,-1110.901,894.653,-822.388,
00:00:25:717,-0.48,0.209,0.744,-1280.396,1021.484,-933.838,
00:00:25:733,-0.4,0.218,0.772,-1627.015,1013.366,-976.197,
00:00:25:750,-0.282,0.408,0.64,-1924.073,863.037,-887.452,
00:00:25:767,-0.196,0.797,0.47,-1866.089,590.149,-669.678,
00:00:25:783,-0.221,1.446,0.486,-1158.692,287.78,-317.139,
00:00:25:800,-0.235,1.549,0.625,-92.102,67.077,79.162,
00:00:25:817,-0.301,1.165,0.806,769.958,-144.959,434.448,
00:00:25:833,-0.347,0.789,0.91,1137.39,-351.197,749.267,
00:00:25:850,-0.442,0.609,0.908,1292.846,-541.993,949.157,
00:00:25:867,-0.522,0.353,0.748,1505.859,-696.656,1010.315,
00:00:25:883,-0.618,0.154,0.506,1856.872,-773.011,925.842,
00:00:25:900,-0.661,-0.03,0.462,1999.694,-754.822,738.952,
00:00:25:917,-0.728,-0.443,0.697,1992.065,-597.474,482.666,
00:00:25:933,-0.672,-0.642,0.998,917.419,-373.841,82.275,
00:00:25:950,-0.76,-0.374,1.065,-179.139,37.78,-274.231,
00:00:25:967,-0.731,-0.233,0.873,-1034.668,485.595,-587.464,
00:00:25:983,-0.66,0.013,0.771,-1511.048,821.899,-834.351,
00:00:26:0,-0.559,0.136,0.752,-1661.377,957.092,-1033.814,
00:00:26:17,-0.461,0.086,0.753,-1864.686,960.022,-1096.741,
00:00:26:33,-0.29,0.273,0.607,-1992.737,805.847,-1026.001,
00:00:26:50,-0.175,0.701,0.455,-1904.542,541.626,-803.284,
00:00:26:67,-0.203,1.397,0.459,-1205.75,250.915,-466.919,
00:00:26:83,-0.201,1.54,0.565,-165.101,25.085,-58.777,
00:00:26:100,-0.285,1.214,0.763,690.002,-202.271,315.857,
00:00:26:117,-0.345,0.884,0.876,995.3,-360.169,622.985,
00:00:26:133,-0.425,0.666,0.861,1133.728,-531.983,836.242,
00:00:26:150,-0.511,0.474,0.716,1269.653,-658.631,922.607,
00:00:26:167,-0.569,0.324,0.552,1541.198,-720.032,884.582,
00:00:26:183,-0.611,0.121,0.491,1839.538,-689.454,730.041,
00:00:26:200,-0.56,-0.199,0.612,1779.602,-558.106,526.062,
00:00:26:217,-0.658,-0.577,0.82,1002.746,-362.183,225.769,
00:00:26:233,-0.681,-0.355,0.931,-0.977,-39.307,-141.419,
00:00:26:250,-0.653,-0.25,0.774,-762.33,363.647,-388.367,
00:00:26:267,-0.613,-0.086,0.667,-1189.576,729.98,-668.03,
00:00:26:283,-0.559,0.128,0.7,-1309.693,952.514,-864.624,
00:00:26:300,-0.452,0.248,0.818,-1420.838,1054.748,-1003.357,
00:00:26:317,-0.325,0.155,0.819,-1725.22,998.23,-969.544,
00:00:26:333,-0.214,0.439,0.579,-1990.906,777.465,-861.695,
00:00:26:350,-0.115,1.175,0.325,-1792.054,429.016,-525.452,
00:00:26:367,-0.17,1.747,0.425,-789.551,157.226,-177.796,
00:00:26:383,-0.225,1.623,0.649,467.346,-78.919,227.6,
00:00:26:400,-0.34,1.074,0.944,1068.786,-236.451,563.842,
00:00:26:417,-0.385,0.696,1.009,1187.866,-406.556,825.5,
00:00:26:433,-0.472,0.495,0.9,1137.024,-552.491,998.718,
00:00:26:450,-0.538,0.32,0.703,1192.566,-659.485,1014.526,
00:00:26:467,-0.577,0.197,0.513,1430.297,-708.13,923.462,
00:00:26:483,-0.588,-0.003,0.547,1613.83,-657.837,709.594,
00:00:26:500,-0.581,-0.378,0.712,1404.113,-503.968,445.434,
00:00:26:517,-0.62,-0.598,0.899,668.335,-317.994,112.487,
00:00:26:533,-0.653,-0.393,0.931,-233.46,35.644,-208.497,
00:00:26:550,-0.613,-0.238,0.815,-889.893,417.785,-520.325,
00:00:26:567,-0.584,0.001,0.783,-1290.65,672.546,-788.086,
00:00:26:583,-0.532,0.225,0.899,-1479.859,803.344,-1016.907,
00:00:26:600,-0.406,0.186,0.934,-1693.848,796.325,-1069.581,
00:00:26:617,-0.312,0.138,0.648,-1970.398,606.079,-1023.377,
00:00:26:633,-0.191,0.794,0.265,-1848.145,306.518,-695.557,
00:00:26:650,-0.275,1.626,0.263,-933.716,63.11,-345.337,
00:00:26:667,-0.311,1.7,0.563,328.857,-187.073,74.401,
00:00:26:683,-0.397,1.18,0.851,949.096,-300.11,352.111,
00:00:26:700,-0.448,0.716,0.939,1004.455,-398.133,641.418,
00:00:26:717,-0.524,0.539,0.882,846.618,-470.52,824.829,
00:00:26:733,-0.57,0.498,0.71,786.865,-517.151,876.831,
00:00:26:750,-0.602,0.404,0.54,908.447,-533.02,812.744,
00:00:26:767,-0.587,0.171,0.481,1069.275,-507.752,671.875,
00:00:26:783,-0.591,-0.088,0.55,1087.158,-410.706,458.068,
00:00:26:800,-0.552,-0.307,0.64,846.618,-239.258,179.565,
00:00:26:817,-0.628,-0.473,0.77,263.183,22.888,-113.831,
00:00:26:833,-0.559,-0.314,0.764,-542.176,354.065,-505.433,
00:00:26:850,-0.519,-0.228,0.659,-1069.458,667.663,-831.482,
00:00:26:867,-0.495,0.073,0.695,-1329.407,938.049,-1168.885,
00:00:26:883,-0.472,0.334,0.803,-1404.664,1075.256,-1390.076,
00:00:26:900,-0.392,0.496,0.776,-1419.739,1095.092,-1471.619,
00:00:26:917,-0.205,0.558,0.5,-1460.083,966.491,-1283.57,
00:00:26:933,-0.105,1.077,0.191,-1244.751,714.233,-940.674,
00:00:26:950,-0.004,1.839,0.275,-514.283,410.827,-429.749,
00:00:26:967,-0.078,1.86,0.702,327.819,172.119,0.549,
00:00:26:983,-0.158,1.269,1.053,613.464,26.184,356.811,
00:00:27:0,-0.223,0.873,1.151,555.359,-122.193,643.615,
00:00:27:17,-0.25,0.822,1.136,380.981,-276.673,910.949,
00:00:27:33,-0.304,0.669,0.946,367.065,-387.452,1009.277,
00:00:27:50,-0.371,0.498,0.733,558.654,-505.982,1008.789,
00:00:27:67,-0.448,0.202,0.57,944.336,-587.037,898.864,
00:00:27:83,-0.488,-0.065,0.596,1219.238,-602.051,660.644,
00:00:27:100,-0.532,-0.275,0.694,1178.588,-541.26,381.286,
00:00:27:117,-0.542,-0.329,0.811,864.563,-364.991,40.832,
00:00:27:133,-0.609,-0.324,0.856,253.051,-75.745,-254.517,
00:00:27:150,-0.571,-0.04,0.791,-383.24,255.554,-586.243,
00:00:27:167,-0.56,0.21,0.749,-806.458,567.382,-857.605,
00:00:27:183,-0.498,0.407,0.771,-1053.04,734.863,-1014.954,
00:00:27:200,-0.349,0.462,0.742,-1234.192,789.611,-1058.106,
00:00:27:217,-0.201,0.487,0.609,-1450.074,689.331,-937.256,
00:00:27:233,-0.082,0.886,0.357,-1382.752,465.271,-653.504,
00:00:27:250,-0.075,1.43,0.385,-748.169,186.95,-311.158,
00:00:27:267,-0.139,1.549,0.649,91.857,-75.745,78.674,
00:00:27:283,-0.209,1.176,0.905,693.115,-263.977,436.096,
00:00:27:300,-0.286,0.83,0.966,925.72,-435.181,748.474,
00:00:27:317,-0.364,0.651,0.915,985.168,-568.543,940.551,
00:00:27:333,-0.442,0.503,0.734,1088.623,-683.472,1001.22,
00:00:27:350,-0.497,0.331,0.553,1318.176,-750.123,948.059,
00:00:27:367,-0.546,0.119,0.486,1574.585,-734.253,783.447,
00:00:27:383,-0.561,-0.129,0.606,1531.25,-623.658,496.215,
00:00:27:400,-0.655,-0.335,0.866,1096.374,-419.434,164.001,
00:00:27:417,-0.62,-0.28,0.991,122.009,-70.923,-181.458,
00:00:27:433,-0.658,-0.148,0.922,-596.741,287.353,-484.436,
00:00:27:450,-0.622,0.052,0.822,-1172.364,623.169,-743.775,
00:00:27:467,-0.558,0.323,0.798,-1453.614,813.232,-942.933,
00:00:27:483,-0.433,0.385,0.801,-1649.415,859.558,-1012.513,
00:00:27:500,-0.301,0.425,0.641,-1851.746,734.314,-961.548,
00:00:27:517,-0.143,0.935,0.376,-1661.5,511.474,-680.481,
00:00:27:533,-0.13,1.531,0.379,-885.254,258.728,-323.853,
00:00:27:550,-0.128,1.665,0.621,176.635,8.789,112.732,
00:00:27:567,-0.206,1.277,0.875,1037.78,-178.162,455.566,
00:00:27:583,-0.278,0.823,1.015,1470.092,-372.437,779.907,
00:00:27:600,-0.364,0.587,0.965,1675.293,-584.168,974.731,
00:00:27:617,-0.615,-0.086,0.381,1999.694,-979.859,750.915,
00:00:27:633,-0.643,-0.496,0.46,1887.695,-860.84,488.708,
00:00:27:650,-0.706,-0.744,0.682,969.848,-658.692,175.659,
00:00:27:667,-0.72,-0.434,0.777,-132.63,-300.721,-125.977,
00:00:27:683,-0.743,-0.194,0.69,-784.79,196.045,-379.029,
00:00:27:700,-0.646,-0.08,0.585,-1123.597,668.029,-559.144,
00:00:27:717,-0.534,0.098,0.638,-1227.723,1000.305,-706.971,
00:00:27:733,-0.453,0.244,0.8,-1403.992,1130.859,-793.213,
00:00:27:750,-0.274,0.301,0.891,-1881.836,1094.177,-849.244,
00:00:27:767,-0.113,0.178,0.642,-2000,756.469,-769.532,
00:00:27:783,-0.133,1,0.518,-2000,301.208,-525.33,
00:00:27:800,-0.422,0.823,0.915,1365.905,-514.649,619.018,
00:00:27:817,-0.496,0.616,0.962,1632.202,-733.521,864.257,
00:00:27:833,-0.602,0.309,0.859,1683.776,-889.039,942.321,
00:00:27:850,-0.657,0.102,0.696,1586.242,-953.431,913.33,
00:00:27:867,-0.702,0.003,0.537,1423.156,-900.696,782.898,
00:00:27:883,-0.774,-0.173,0.715,466.064,-483.521,229.126,
00:00:27:900,-0.76,-0.242,0.759,-94.361,-49.622,-83.313,
00:00:27:917,-0.697,-0.263,0.598,-649.292,381.408,-352.417,
00:00:27:933,-0.648,-0.177,0.527,-945.862,773.193,-577.088,
00:00:27:950,-0.561,-0.003,0.563,-1047.608,1016.418,-751.038,
00:00:27:967,-0.484,0.177,0.693,-1190.491,1143.921,-887.269,
00:00:27:983,-0.191,0.643,0.631,-1970.337,678.772,-802.857,
00:00:28:0,-0.184,1.237,0.472,-1468.628,398.315,-499.634,
00:00:28:17,-0.133,1.618,0.499,-273.804,99.609,-58.838,
00:00:28:33,-0.203,1.396,0.729,748.779,-149.842,385.559,
00:00:28:50,-0.298,0.939,0.918,1223.022,-369.69,717.834,
00:00:28:67,-0.421,0.666,0.976,1319.275,-588.257,988.586,
00:00:28:83,-0.532,0.481,0.837,1391.54,-742.432,1123.169,
00:00:28:100,-0.618,0.266,0.593,1650.634,-852.906,1100.83,
00:00:28:117,-0.675,0.038,0.379,1998.413,-882.447,981.079,
00:00:28:133,-0.64,-0.215,0.48,1999.694,-795.777,774.78,
00:00:28:150,-0.702,-0.728,0.863,1751.892,-636.353,431.64,
00:00:28:167,-0.781,-0.54,1.119,492.675,-313.904,51.147,
00:00:28:183,-0.768,-0.399,0.98,-586.914,181.457,-288.392,
00:00:28:200,-0.73,-0.284,0.745,-1288.819,581.298,-612.183,
00:00:28:217,-0.646,-0.072,0.713,-1564.637,843.75,-836.182,
00:00:28:233,-0.56,0.042,0.794,-1723.389,932.373,-992.005,
00:00:28:250,-0.434,0.074,0.779,-1979.615,867.981,-1020.569,
00:00:28:267,-0.295,1.388,0.341,-658.57,138.183,-294.8,
00:00:28:283,-0.316,1.349,0.581,469.665,-98.938,114.013,
00:00:28:300,-0.407,0.92,0.839,1154.052,-274.17,404.052,
00:00:28:317,-0.498,0.51,0.917,1244.506,-420.227,642.639,
00:00:28:333,-0.565,0.406,0.828,1225.525,-537.598,741.882,
00:00:28:350,-0.641,0.023,0.452,1999.694,-647.644,629.516,
00:00:28:367,-0.667,-0.236,0.406,1999.694,-582.764,539.001,
00:00:28:383,-0.661,-0.444,0.431,1999.694,-398.316,426.086,
00:00:28:400,-0.653,-0.649,0.673,1484.436,-138.428,213.989,
00:00:28:417,-0.712,-0.361,0.961,306.152,227.478,-96.314,
00:00:28:433,-0.698,-0.142,1.061,-859.07,737.121,-395.142,
00:00:28:450,-0.689,0.028,1.056,-1692.566,1151.306,-710.633,
00:00:28:467,-0.547,-0.154,1.093,-2000,1399.536,-927.796,
00:00:28:483,-0.425,-0.491,0.978,-2000,1356.628,-1105.591,
00:00:28:500,-0.252,-0.125,0.725,-2000,1086.792,-1179.566,
00:00:28:517,-0.217,0.808,0.482,-2000,745.788,-995.728,
00:00:28:533,-0.245,1.132,0.735,1066.04,-114.991,285.034,
00:00:28:550,-0.366,0.854,1.062,1376.098,-378.907,674.194,
00:00:28:567,-0.439,0.534,1.085,1257.934,-546.143,862.365,
00:00:28:583,-0.513,0.441,0.848,1192.443,-661.255,953.796,
00:00:28:600,-0.554,0.351,0.579,1496.154,-711.487,922.241,
00:00:28:617,-0.568,0.13,0.453,1917.968,-714.478,792.724,
00:00:28:633,-0.568,-0.215,0.64,1974.548,-583.802,612.243,
00:00:28:650,-0.566,-0.636,0.945,1213.806,-402.771,288.025,
00:00:28:667,-0.661,-0.423,1.053,-45.166,-80.994,-95.276,
00:00:28:683,-0.646,-0.271,0.91,-979.371,338.379,-401.49,
00:00:28:700,-0.612,-0.062,0.818,-1523.316,657.409,-682.19,
00:00:28:717,-0.522,0.021,0.865,-1686.707,845.581,-907.837,
00:00:28:733,-0.424,-0.017,0.877,-1891.236,867.797,-998.108,
00:00:28:750,-0.304,0.147,0.73,-2000,710.693,-957.154,
00:00:28:767,-0.213,0.681,0.445,-1959.9,438.415,-761.719,saltLH
00:00:28:783,-0.224,1.222,0.346,-1078.553,211.731,-468.079,
00:00:28:800,-0.228,1.368,0.489,78.857,-40.65,-53.833,
00:00:28:817,-0.326,1.128,0.82,865.478,-215.638,290.344,
00:00:28:833,-0.407,0.753,0.975,1094.543,-356.446,550.476,
00:00:28:850,-0.476,0.542,0.927,1038.635,-480.347,733.093,
00:00:28:867,-0.546,0.452,0.766,1056.091,-540.162,776.001,
00:00:28:883,-0.564,0.39,0.638,1216.186,-578.37,726.501,
00:00:28:900,-0.563,0.231,0.639,1391.845,-561.341,626.281,
00:00:28:917,-0.6,-0.228,0.867,130.859,-127.076,5.615,
00:00:28:933,-0.589,-0.117,0.844,-395.691,142.456,-241.333,
00:00:28:950,-0.558,0.001,0.829,-749.634,346.435,-445.557,
00:00:28:967,-0.515,0.057,0.836,-978.089,508.789,-612.122,
00:00:28:983,-0.464,0.024,0.803,-1209.9,565.307,-709.595,
00:00:29:0,-0.398,0.735,0.58,-1352.417,327.575,-576.416,
00:00:29:17,-0.383,0.99,0.544,-868.592,175.293,-368.897,
00:00:29:33,-0.392,1.029,0.557,-205.201,37.902,-90.516,
00:00:29:50,-0.412,0.949,0.651,358.886,-104.493,199.768,
00:00:29:67,-0.444,0.818,0.767,698.608,-234.07,468.2,
00:00:29:83,-0.48,0.663,0.814,895.63,-348.206,638.916,
00:00:29:100,-0.521,0.5,0.765,1007.934,-435.12,737.609,
00:00:29:117,-0.558,0.322,0.68,1175.415,-459.412,743.713,
00:00:29:133,-0.573,0.147,0.652,1336.059,-445.923,660.156,
00:00:29:150,-0.537,-0.05,0.737,1332.641,-367.005,504.821,
00:00:29:167,-0.55,-0.324,0.854,858.764,-231.141,269.47,
00:00:29:183,-0.544,-0.291,0.925,105.163,-56.519,-72.266,
00:00:29:200,-0.577,-0.203,0.921,-619.507,198.547,-347.168,
00:00:29:217,-0.578,-0.006,0.894,-1097.229,442.138,-626.831,
00:00:29:233,-0.531,0.136,0.889,-1372.742,581.726,-814.393,
00:00:29:250,-0.476,0.193,0.807,-1598.328,601.745,-890.137,
00:00:29:267,-0.391,0.384,0.605,-1669.129,530.151,-859.62,
00:00:29:283,-0.328,1.204,0.54,-11.902,90.393,-119.935,
00:00:29:300,-0.395,1.112,0.759,501.464,-37.354,204.895,
00:00:29:317,-0.436,0.86,0.891,707.58,-140.381,443.969,
00:00:29:333,-0.476,0.678,0.901,698.791,-244.629,633.911,
00:00:29:350,-0.511,0.588,0.822,698.974,-325.257,733.398,
00:00:29:367,-0.546,0.462,0.733,822.998,-383.973,743.164,
00:00:29:383,-0.564,0.262,0.653,1040.039,-407.105,684.143,
00:00:29:400,-0.549,0.031,0.686,1212.158,-382.691,568.298,
00:00:29:417,-0.505,-0.215,0.752,1066.65,-297.852,377.075,
00:00:29:433,-0.521,-0.418,0.82,556.762,-182.801,103.149,
00:00:29:450,-0.568,-0.276,0.814,-67.139,42.907,-204.712,
00:00:29:467,-0.478,0.157,0.838,-948.914,777.404,-955.567,
00:00:29:483,-0.429,0.315,0.899,-1322.205,833.13,-1056.458,
00:00:29:500,-0.363,0.526,0.804,-1694.764,770.813,-1020.63,
00:00:29:517,-0.286,0.759,0.491,-1711.548,595.52,-841.309,
00:00:29:533,-0.207,1.275,0.395,-1139.1,357.116,-506.836,
00:00:29:550,-0.231,1.561,0.543,-238.892,166.137,-76.294,
00:00:29:567,-0.266,1.345,0.812,575.927,-11.719,298.767,
00:00:29:583,-0.323,0.951,1.052,881.713,-189.881,633.911,
00:00:29:600,-0.385,0.665,1.11,870.178,-352.173,861.023,
00:00:29:617,-0.454,0.542,1.001,840.82,-496.399,961.303,
00:00:29:633,-0.501,0.376,0.773,980.041,-609.742,957.214,
00:00:29:650,-0.524,0.192,0.637,1307.861,-676.819,855.713,
00:00:29:667,-0.56,-0.019,0.604,1600.708,-665.101,657.531,
00:00:29:683,-0.569,-0.327,0.728,1580.505,-557.984,430.42,
00:00:29:700,-0.566,-0.455,0.885,863.708,-379.7,109.436,
00:00:29:717,-0.614,-0.239,0.838,-49.317,-90.638,-251.648,
00:00:29:733,-0.624,-0.071,0.715,-719.361,247.619,-523.072,
00:00:29:750,-0.589,0.164,0.72,-1054.566,554.687,-779.175,
00:00:29:767,-0.526,0.274,0.816,-1271.302,757.324,-930.054,
00:00:29:783,-0.431,0.182,0.799,-1617.432,804.504,-959.839,
00:00:29:800,-0.343,0.302,0.625,-1922.608,711.486,-863.953,
00:00:29:817,-0.244,0.771,0.425,-1750.855,509.399,-669.495,
00:00:29:833,-0.231,1.192,0.498,-996.888,263.733,-357.911,
00:00:29:850,-0.231,1.181,0.674,-59.632,41.503,-22.522,
00:00:29:867,-0.288,0.872,0.831,530.944,-193.177,322.692,
00:00:29:883,-0.355,0.694,0.92,839.416,-394.288,588.928,
00:00:29:900,-0.453,0.569,0.875,1010.498,-576.294,777.71,
00:00:29:917,-0.533,0.385,0.708,1233.032,-686.036,849.06,
00:00:29:933,-0.602,0.237,0.555,1630.249,-727.173,816.04,
00:00:29:950,-0.621,0.055,0.509,1933.044,-679.749,712.524,
00:00:29:967,-0.618,-0.214,0.645,1722.412,-550.171,534.729,
00:00:29:983,-0.618,-0.305,0.803,753.418,-338.135,189.148,
00:00:30:0,-0.679,-0.25,0.744,-120.728,45.654,-178.467,
00:00:30:17,-0.675,-0.198,0.599,-831.665,487.854,-472.779,
00:00:30:33,-0.619,0.058,0.66,-1167.054,840.454,-751.038,
00:00:30:50,-0.513,0.137,0.758,-1434.632,1047.729,-921.448,
00:00:30:67,-0.417,0.296,0.805,-1720.398,1050.842,-980.347,
00:00:30:83,-0.326,0.523,0.629,-1843.384,918.945,-910.706,
00:00:30:100,-0.241,0.921,0.508,-1502.564,627.197,-698.731,
00:00:30:117,-0.235,1.362,0.615,-723.572,340.149,-341.126,
00:00:30:133,-0.253,1.301,0.854,168.396,74.34,24.963,
00:00:30:150,-0.371,0.985,1.075,636.169,-148.072,355.896,
00:00:30:167,-0.4,0.757,1.142,800.048,-330.994,591.552,
00:00:30:183,-0.452,0.589,1.05,874.45,-503.724,754.333,
00:00:30:200,-0.515,0.385,0.867,1002.075,-616.456,773.864,
00:00:30:217,-0.565,0.252,0.76,1215.759,-663.819,690.368,
00:00:30:233,-0.593,0.029,0.747,1269.775,-619.629,494.445,
00:00:30:250,-0.646,-0.283,0.939,406.311,-272.767,-43.091,
00:00:30:267,-0.642,-0.171,0.853,-281.983,26.428,-334.351,
00:00:30:283,-0.58,-0.075,0.726,-743.653,348.51,-609.253,
00:00:30:300,-0.503,0.07,0.692,-975.098,573.974,-813.233,
00:00:30:317,-0.422,0.207,0.718,-1145.63,696.411,-947.449,
00:00:30:333,-0.328,0.394,0.729,-1325.196,695.984,-972.107,
00:00:30:350,-0.245,0.579,0.642,-1431.885,582.458,-885.987,
00:00:30:367,-0.178,0.891,0.562,-1273.316,394.409,-670.472,
00:00:30:383,-0.189,1.216,0.594,-785.096,199.829,-358.826,
00:00:30:400,-0.202,1.258,0.664,-129.944,0.366,24.658,
00:00:30:417,-0.248,1.131,0.786,383.361,-185.852,411.132,
00:00:30:433,-0.306,0.909,0.863,712.402,-371.766,707.214,
00:00:30:450,-0.385,0.699,0.838,869.934,-523.499,935.974,
00:00:30:467,-0.455,0.508,0.688,1048.156,-634.156,1023.559,
00:00:30:483,-0.517,0.329,0.592,1292.541,-705.445,998.352,
00:00:30:500,-0.574,0.095,0.542,1514.587,-697.144,848.51,
00:00:30:517,-0.569,-0.196,0.619,1437.378,-599.976,631.286,
00:00:30:533,-0.63,-0.442,0.818,911.438,-428.04,312.011,
00:00:30:550,-0.686,-0.316,0.863,114.502,-119.873,-27.649,
00:00:30:567,-0.643,-0.251,0.707,-519.593,258.3,-364.136,
00:00:30:583,-0.601,-0.107,0.603,-895.813,546.02,-654.602,
00:00:30:600,-0.529,-0.004,0.616,-1087.769,732.177,-850.342,
00:00:30:617,-0.463,0.212,0.7,-1274.598,789.367,-978.638,
00:00:30:633,-0.375,0.398,0.692,-1519.227,722.595,-961.853,
00:00:30:650,-0.309,0.688,0.596,-1573.914,559.448,-855.713,
00:00:30:667,-0.258,1.083,0.48,-1203.431,371.032,-591.065,
00:00:30:683,-0.276,1.346,0.489,-406.739,174.865,-227.051,
00:00:30:700,-0.297,1.333,0.667,341.125,11.413,181.335,
00:00:30:717,-0.361,1.055,0.828,787.048,-134.339,493.591,
00:00:30:733,-0.402,0.759,0.9,893.615,-277.71,743.53,
00:00:30:750,-0.459,0.592,0.873,921.63,-389.954,901.611,
00:00:30:767,-0.496,0.44,0.798,1000.732,-486.329,944.213,
00:00:30:783,-0.537,0.269,0.714,1209.045,-532.837,903.381,
00:00:30:800,-0.567,0.039,0.661,1498.047,-531.617,784.484,
00:00:30:817,-0.545,-0.11,0.611,1777.71,-492.127,652.16,
00:00:30:833,-0.564,-0.315,0.678,1878.234,-378.052,506.897,
00:00:30:850,-0.503,-0.619,0.715,1325.622,-223.938,262.756,
00:00:30:867,-0.544,-0.508,0.782,285.095,-44.861,-58.167,
00:00:30:883,-0.594,-0.321,0.728,-536.988,256.225,-367.554,
00:00:30:900,-0.576,-0.127,0.697,-992.432,570.19,-661.56,
00:00:30:917,-0.434,-0.005,0.936,-2000,922.058,-1155.701,
00:00:30:933,-0.31,0.495,0.73,-2000,726.989,-1117.31,
00:00:30:950,-0.276,1.002,0.48,-1908.082,464.538,-855.713,
00:00:30:967,-0.268,1.525,0.486,-757.63,218.689,-495.362,
00:00:30:983,-0.261,1.483,0.708,331.298,7.934,-58.716,
00:00:31:0,-0.343,1.18,0.984,879.943,-167.298,285.827,
00:00:31:17,-0.397,0.828,1.112,892.456,-314.942,566.345,
00:00:31:33,-0.461,0.657,1.018,738.281,-440.857,747.68,
00:00:31:50,-0.519,0.56,0.801,747.07,-527.1,818.847,
00:00:31:67,-0.556,0.427,0.64,947.204,-555.542,769.226,
00:00:31:83,-0.538,-0.155,0.781,1033.264,-425.477,392.822,
00:00:31:100,-0.615,-0.388,0.884,623.718,-249.939,148.315,
00:00:31:117,-0.52,-0.339,0.816,-58.533,-24.537,-172.669,
00:00:31:133,-0.513,-0.057,0.585,-831.91,481.506,-692.566,
00:00:31:150,-0.488,0.187,0.659,-889.954,667.358,-905.945,
00:00:31:167,-0.429,0.368,0.781,-967.225,784.729,-1046.753,
00:00:31:183,-0.336,0.273,0.77,-1219.056,767.212,-1047.303,
00:00:31:200,-0.144,1.103,0.444,-1496.399,380.676,-640.137,
00:00:31:217,-0.204,1.508,0.503,-766.236,180.786,-324.036,
00:00:31:233,-0.2,1.485,0.671,108.581,-10.132,114.013,
00:00:31:250,-0.275,1.177,0.869,635.681,-171.204,509.094,
00:00:31:267,-0.316,0.814,0.96,818.237,-302.674,809.204,
00:00:31:283,-0.398,0.566,0.932,799.133,-424.012,1028.442,
00:00:31:300,-0.453,0.412,0.768,839.599,-525.513,1110.29,
00:00:31:317,-0.497,0.178,0.592,1019.409,-575.501,1060.485,
00:00:31:333,-0.503,-0.065,0.551,1134.643,-578.492,874.817,
00:00:31:350,-0.509,-0.314,0.602,997.558,-531.739,597.229,
00:00:31:367,-0.645,-0.499,0.72,671.203,-373.475,269.409,
00:00:31:383,-0.597,-0.368,0.708,147.827,-136.353,-80.872,
00:00:31:400,-0.508,0.193,0.799,-823.975,551.757,-903.321,
00:00:31:417,-0.435,0.413,0.818,-1138.367,574.401,-989.563,
00:00:31:433,-0.359,0.695,0.728,-1316.163,486.694,-913.941,
00:00:31:450,-0.303,1.09,0.645,-1080.323,304.748,-654.053,
00:00:31:467,-0.304,1.323,0.684,-486.268,148.62,-342.408,
00:00:31:483,-0.323,1.339,0.78,178.222,-4.7,64.697,
00:00:31:500,-0.371,1.217,0.933,539.245,-135.132,398.498,
00:00:31:517,-0.402,0.903,0.983,628.784,-258.24,659.423,
00:00:31:533,-0.454,0.613,0.953,559.814,-348.694,828.125,
00:00:31:550,-0.509,0.465,0.865,607.116,-411.377,891.235,
00:00:31:567,-0.536,0.308,0.755,743.103,-420.777,847.961,
00:00:31:583,-0.532,0.098,0.76,783.752,-389.71,662.414,
00:00:31:600,-0.498,-0.15,0.803,572.021,-319.458,397.583,
00:00:31:617,-0.535,-0.173,0.712,-392.64,215.026,-504.029,
00:00:31:633,-0.512,0,0.734,-514.039,398.315,-731.934,
00:00:31:650,-0.468,0.154,0.776,-682.373,528.564,-904.175,
00:00:31:667,-0.422,0.199,0.696,-919.251,527.221,-925.965,
00:00:31:683,-0.361,0.519,0.577,-1077.82,431.884,-863.404,
00:00:31:700,-0.364,0.906,0.497,-910.096,284.912,-633.789,
00:00:31:717,-0.389,1.327,0.538,-394.227,143.921,-349.06,
00:00:31:733,-0.327,0.837,0.745,109.741,27.099,-142.09,
00:00:31:750,-0.422,1.083,0.888,273.254,-55.359,144.775,
00:00:31:767,-0.448,0.942,0.895,445.922,-135.193,392.395,
00:00:31:783,-0.442,0.637,0.85,421.447,-212.403,519.409,
00:00:31:800,-0.488,0.535,0.824,393.554,-293.213,603.21,
00:00:31:817,-0.517,0.475,0.849,418.457,-346.985,602.234,
00:00:31:833,-0.532,0.365,0.9,410.095,-361.268,538.635,
00:00:31:850,-0.543,0.165,0.905,301.635,-367.615,424.682,
00:00:31:867,-0.575,0.025,0.863,196.594,-363.038,286.316,
00:00:31:883,-0.622,0.002,0.779,112.854,-355.774,181.335,
00:00:31:900,-0.647,0.01,0.715,141.784,-320.74,36.132,
00:00:31:917,-0.627,-0.015,0.687,177.795,-266.358,-117.493,
00:00:31:933,-0.598,-0.046,0.689,126.648,-189.576,-301.209,
00:00:31:950,-0.571,0.062,0.654,-90.943,24.719,-631.592,
00:00:31:967,-0.548,0.246,0.677,-238.587,146.057,-792.42,
00:00:31:983,-0.52,0.411,0.675,-447.754,229.858,-853.577,
00:00:32:0,-0.48,0.627,0.645,-644.043,262.817,-840.577,
00:00:32:17,-0.427,0.86,0.639,-772.156,248.779,-740.906,
00:00:32:33,-0.372,1.036,0.567,-765.381,166.809,-493.653,
00:00:32:50,-0.363,1.191,0.539,-495.484,62.5,-193.97,
00:00:32:67,-0.403,1.268,0.611,-69.031,-30.03,162.475,
00:00:32:83,-0.434,1.123,0.724,326.721,-109.131,478.637,
00:00:32:100,-0.464,0.886,0.807,574.401,-179.383,742.859,
00:00:32:117,-0.488,0.609,0.797,685.608,-239.258,871.887,
00:00:32:133,-0.511,0.364,0.741,692.443,-304.627,866.272,
00:00:32:150,-0.537,0.108,0.734,647.155,-349.244,755.249,
00:00:32:167,-0.572,-0.125,0.732,518.005,-330.445,535.766,
00:00:32:183,-0.632,-0.276,0.661,306.945,-233.033,266.54,
00:00:32:200,-0.659,-0.268,0.618,72.692,-68.543,-29.297,
00:00:32:217,-0.661,-0.165,0.595,-163.269,153.503,-348.267,
00:00:32:233,-0.644,0.031,0.638,-381.836,407.165,-633.973,
00:00:32:250,-0.629,0.262,0.734,-689.515,611.755,-848.206,
00:00:32:267,-0.564,0.414,0.776,-1038.392,711.547,-947.632,
00:00:32:283,-0.486,0.504,0.627,-1336.67,664.367,-904.358,
00:00:32:300,-0.358,0.901,0.385,-1347.718,535.339,-679.749,
00:00:32:317,-0.292,1.393,0.404,-845.948,341.613,-374.329,
00:00:32:333,-0.312,1.538,0.587,-64.576,140.258,48.4,
00:00:32:350,-0.362,0.81,0.918,624.084,-185.425,736.023,
00:00:32:367,-0.419,0.553,0.868,715.942,-327.027,971.435,
00:00:32:383,-0.502,0.365,0.661,917.602,-440.247,997.497,
00:00:32:400,-0.545,0.138,0.566,1047.79,-491.944,838.562,
00:00:32:417,-0.56,-0.144,0.665,966.919,-489.747,588.44,
00:00:32:433,-0.595,-0.407,0.743,522.705,-369.751,247.436,
00:00:32:450,-0.663,-0.338,0.729,-11.597,-134.278,-92.102,
00:00:32:467,-0.67,-0.186,0.63,-317.078,164.978,-390.442,
00:00:32:483,-0.639,0.058,0.571,-423.035,407.898,-655.884,
00:00:32:500,-0.584,0.132,0.603,-546.998,586.059,-832.703,
00:00:32:517,-0.516,0.278,0.647,-773.621,653.686,-935.12,
00:00:32:533,-0.443,0.533,0.641,-1048.462,627.197,-921.204,
00:00:32:550,-0.397,0.832,0.58,-1103.516,544.799,-800.66,
00:00:32:567,-0.333,1.125,0.565,-881.775,399.17,-547.913,
00:00:32:583,-0.314,1.375,0.658,-399.231,202.697,-191.895,
00:00:32:600,-0.328,1.327,0.77,69.824,35.522,173.889,
00:00:32:617,-0.357,1.089,0.835,439.087,-134.583,538.208,
00:00:32:633,-0.404,0.831,0.886,668.518,-283.753,820.678,
00:00:32:650,-0.465,0.616,0.849,874.878,-425.049,971.191,
00:00:32:667,-0.516,0.407,0.756,1048.767,-540.833,1010.131,
00:00:32:683,-0.562,0.163,0.671,1199.768,-594.544,912.048,
00:00:32:700,-0.579,-0.087,0.674,1183.349,-592.347,704.04,
00:00:32:717,-0.624,-0.373,0.688,912.292,-511.17,418.701,
00:00:32:733,-0.651,-0.347,0.681,378.784,-311.097,68.42,
00:00:32:750,-0.666,-0.199,0.663,-10.254,-51.697,-218.811,
00:00:32:767,-0.661,-0.038,0.655,-334.168,255.432,-500.855,saltLH
00:00:32:783,-0.63,0.091,0.672,-543.457,538.696,-744.263,
00:00:32:800,-0.581,0.245,0.708,-779.236,700.927,-901.673,
00:00:32:817,-0.508,0.3,0.682,-1015.259,748.291,-959.9,
00:00:32:833,-0.45,0.364,0.551,-1263.123,682.312,-930.726,
00:00:32:850,-0.34,0.695,0.415,-1264.771,547.424,-776.612,
00:00:32:867,-0.286,1.179,0.482,-885.987,342.651,-512.269,
00:00:32:883,-0.321,1.362,0.667,-210.206,163.086,-166.504,
00:00:32:900,-0.353,1.166,0.812,315.246,5.065,172.973,
00:00:32:917,-0.394,0.928,0.907,565.551,-138.916,493.103,
00:00:32:933,-0.449,0.7,0.927,652.771,-263.794,715.026,
00:00:32:950,-0.515,0.563,0.834,741.455,-368.348,848.449,
00:00:32:967,-0.546,0.411,0.723,914.672,-452.393,870.788,
00:00:32:983,-0.573,0.192,0.648,1065.246,-484.009,791.748,
00:00:33:0,-0.606,-0.032,0.687,1054.992,-464.6,594.299,
00:00:33:17,-0.604,-0.209,0.758,816.345,-378.663,335.388,
00:00:33:33,-0.66,-0.307,0.814,381.652,-232.483,29.052,
00:00:33:50,-0.664,-0.149,0.789,-122.437,2.868,-251.16,
00:00:33:67,-0.639,-0.019,0.725,-393.86,266.54,-516.236,
00:00:33:83,-0.612,0.12,0.728,-602.601,461.853,-727.906,
00:00:33:100,-0.552,0.267,0.771,-794.8,586.059,-853.943,
00:00:33:117,-0.488,0.332,0.738,-1003.541,599.609,-871.155,
00:00:33:133,-0.417,0.543,0.618,-1195.191,526.977,-801.88,
00:00:33:150,-0.323,0.891,0.505,-1106.751,378.296,-568.543,
00:00:33:167,-0.332,1.36,0.697,-82.52,0.427,32.959,
00:00:33:183,-0.375,1.187,0.898,393.798,-142.884,348.083,
00:00:33:200,-0.407,0.93,0.95,639.709,-254.822,640.625,
00:00:33:217,-0.444,0.685,0.899,755.371,-339.722,863.647,
00:00:33:233,-0.507,0.486,0.776,870.849,-410.157,957.092,
00:00:33:250,-0.563,0.292,0.618,1074.585,-457.764,950.317,
00:00:33:267,-0.581,0.002,0.583,1163.879,-450.623,828.186,
00:00:33:283,-0.523,-0.286,0.652,978.515,-429.139,588.562,
00:00:33:300,-0.654,-0.469,0.792,661.438,-321.473,314.636,
00:00:33:317,-0.601,-0.403,0.793,117.37,-104.493,-16.48,
00:00:33:334,-0.666,-0.235,0.755,-301.331,159.668,-338.685,
00:00:33:350,-0.65,-0.066,0.687,-587.647,427.307,-610.352,
00:00:33:367,-0.62,0.118,0.707,-754.7,582.397,-782.41,
00:00:33:384,-0.517,0.372,0.697,-1050.049,661.316,-890.931,
00:00:33:400,-0.453,0.335,0.532,-1158.265,586.792,-752.198,
00:00:33:417,-0.376,0.691,0.439,-1052.674,439.209,-557.557,
00:00:33:434,-0.361,1.291,0.578,-614.869,242.126,-245.911,
00:00:33:450,-0.409,1.317,0.725,108.886,86.853,36.254,
00:00:33:467,-0.406,0.939,0.867,512.634,-74.158,331.482,
00:00:33:484,-0.438,0.693,0.959,641.784,-215.699,572.448,
00:00:33:500,-0.494,0.535,0.941,705.566,-335.083,712.402,
00:00:33:517,-0.546,0.401,0.859,788.33,-415.101,757.141,
00:00:33:534,-0.583,0.26,0.79,890.503,-463.379,713.134,
00:00:33:550,-0.58,0.059,0.781,914.367,-464.234,604.553,
00:00:33:567,-0.581,-0.12,0.765,819.641,-428.956,461.425,
00:00:33:584,-0.616,-0.25,0.698,624.023,-342.225,245.727,
00:00:33:600,-0.64,-0.245,0.665,416.992,-183.411,0.488,
00:00:33:617,-0.657,-0.135,0.721,128.723,36.01,-240.479,
00:00:33:634,-0.596,-0.003,0.769,-176.636,306.091,-482.666,
00:00:33:650,-0.617,0.076,0.761,-469.361,560.058,-681.763,
00:00:33:667,-0.575,0.213,0.796,-715.394,769.958,-849.183,
00:00:33:684,-0.524,0.394,0.838,-962.342,872.497,-946.106,
00:00:33:700,-0.433,0.359,0.765,-1199.28,862.304,-939.148,
00:00:33:717,-0.38,0.297,0.539,-1305.237,753.479,-804.322,
00:00:33:734,-0.193,0.714,0.461,-1234.07,581.176,-507.691,
00:00:33:750,-0.218,1.294,0.536,-736.206,286.132,-230.835,
00:00:33:767,-0.275,1.34,0.78,149.353,77.514,114.868,
00:00:33:784,-0.27,0.971,0.949,697.448,-139.71,439.026,
00:00:33:800,-0.343,0.602,1.041,876.587,-300.843,684.509,
00:00:33:817,-0.415,0.431,1.033,861.938,-439.454,795.898,
00:00:33:834,-0.496,0.277,0.931,810.424,-522.95,818.664,
00:00:33:850,-0.513,0.121,0.773,799.438,-553.467,759.826,
00:00:33:867,-0.545,-0.069,0.637,778.747,-540.223,618.713,
00:00:33:884,-0.604,-0.208,0.599,719.055,-457.032,389.526,
00:00:33:900,-0.617,-0.185,0.725,557.983,-328.797,117.004,
00:00:33:917,-0.63,-0.135,0.873,321.777,-134.827,-130.616,
00:00:33:934,-0.654,-0.138,0.909,-32.166,133.239,-339.905,
00:00:33:950,-0.637,-0.015,0.824,-378.846,382.202,-558.533,
00:00:33:967,-0.623,0.14,0.762,-633.667,554.382,-708.558,
00:00:33:984,-0.559,0.339,0.772,-809.205,673.645,-823.06,
00:00:34:0,-0.467,0.486,0.823,-939.026,704.589,-867.737,
00:00:34:17,-0.379,0.435,0.724,-989.014,657.409,-780.518,
00:00:34:34,-0.246,1.018,0.62,-697.144,337.89,-297.059,
00:00:34:50,-0.306,1.32,0.843,-139.954,158.386,-34.18,
00:00:34:67,-0.233,0.974,0.994,378.479,-10.193,263.427,
00:00:34:84,-0.275,0.73,0.997,495.056,-175.354,491.516,
00:00:34:100,-0.351,0.666,0.938,526.428,-304.078,667.236,
00:00:34:117,-0.382,0.527,0.888,598.022,-400.513,765.747,
00:00:34:134,-0.388,0.325,0.859,673.584,-446.595,799.621,
00:00:34:150,-0.413,0.125,0.822,715.942,-478.821,791.076,
00:00:34:167,-0.502,-0.072,0.713,688.781,-465.027,700.683,
00:00:34:184,-0.593,-0.193,0.627,633.178,-401.673,506.591,
00:00:34:200,-0.626,-0.219,0.648,531.005,-279.786,281.921,
00:00:34:217,-0.64,-0.176,0.82,-240.357,368.469,-461.06,
00:00:34:234,-0.615,-0.044,0.772,-574.891,583.923,-672.181,
00:00:34:250,-0.549,0.232,0.82,-865.723,728.759,-826.539,
00:00:34:267,-0.486,0.412,0.858,-1046.998,768.737,-927.857,
00:00:34:284,-0.225,0.893,0.56,-940.796,375,-443.36,
00:00:34:300,-0.265,1.335,0.719,-304.017,146.423,-114.014,
00:00:34:317,-0.29,1.178,0.856,343.567,-48.829,198.974,
00:00:34:334,-0.299,0.828,0.951,679.199,-230.408,472.656,
00:00:34:350,-0.372,0.558,0.96,768.615,-367.066,678.894,
00:00:34:367,-0.511,-0.044,0.738,656.494,-400.208,539.795,
00:00:34:384,-0.521,-0.148,0.756,447.998,-306.946,309.692,
00:00:34:400,-0.551,-0.139,0.87,253.723,-154.847,0.671,
00:00:34:417,-0.55,-0.136,0.94,6.713,61.035,-246.399,
00:00:34:434,-0.545,-0.067,0.968,-318.604,279.602,-510.621,
00:00:34:450,-0.533,0.132,0.967,-627.32,424.743,-691.102,
00:00:34:467,-0.481,0.332,0.946,-863.221,478.576,-785.096,
00:00:34:484,-0.403,0.358,0.787,-1005.921,449.707,-765.931,
00:00:34:500,-0.279,0.492,0.563,-1006.043,338.501,-584.168,
