TIMECODE,ACC_X,ACC_Y,ACC_Z,GYR_X,GYR_Y,GYR_Z,ECG_I,ECG_II,ECG_III,TAG
,-0.042,-0.518,0.846,94.604,85.205,19.714,0,0,0,
,-0.019,-0.545,0.865,80.2,93.627,-12.879,0,0,0,
,-0.022,-0.541,0.845,62.683,38.757,-11.17,0,0,0,
,-0.057,-0.563,0.856,4.15,-0.428,-47.73,0,0,0,
,-0.069,-0.508,0.866,-2.015,-0.672,-17.945,0,0,0,
,-0.067,-0.505,0.891,-2.015,-14.466,-26.185,0,0,0,
,-0.108,-0.471,0.869,3.479,-28.992,-19.959,0,0,0,
,-0.122,-0.458,0.878,37.414,-47.242,2.014,0,0,0,
,-0.133,-0.473,0.901,44.372,-72.571,-6.287,0,0,0,
,-0.129,-0.526,0.924,27.16,-29.114,-1.831,0,0,0,
,-0.098,-0.56,0.852,29.846,79.65,-20.447,0,0,0,
,-0.041,-0.53,0.851,-0.55,75.988,-1.648,0,0,0,
,-0.022,-0.516,0.851,-1.16,27.587,-33.509,0,0,0,
,-0.032,-0.506,0.869,10.009,-42.481,-39.124,0,0,0,
,-0.056,-0.494,0.87,30.517,-59.571,-42.908,0,0,0,
,-0.04,-0.245,1.003,157.165,-45.96,-71.351,0,0,0,
,-0.098,-0.594,0.729,131.286,-11.109,-111.695,0,0,0,
,-0.065,-0.722,1,143.493,-10.682,-56.275,0,0,0,
,-0.083,-0.641,0.822,104.004,24.169,-23.987,0,0,0,
,-0.076,-0.534,0.852,52.795,29.296,-6.897,0,0,0,
,-0.076,-0.542,0.83,8.239,38.696,-22.889,0,0,0,
,-0.069,-0.57,0.869,-5.005,42.297,-20.081,0,0,0,
,-0.064,-0.567,0.861,16.967,52.49,-17.029,0,0,0,
,-0.063,-0.513,0.854,54.992,52.368,-14.71,0,0,0,
,-0.055,-0.511,0.829,64.514,58.044,-22.95,0,0,0,
,-0.043,-0.55,0.847,90.576,43.945,-27.344,0,0,0,
,-0.041,-0.602,0.842,81.848,14.038,-36.622,0,0,0,
,-0.06,-0.623,0.826,1.342,-44.312,-44.312,0,0,0,
,-0.07,-0.597,0.841,-33.448,-44.495,-40.833,0,0,0,
,-0.076,-0.561,0.846,-38.269,-27.1,-36.56,0,0,0,
,-0.075,-0.554,0.849,-29.969,0.244,-35.096,0,0,0,
,-0.068,-0.569,0.846,-21.241,21.972,-34.729,0,0,0,
,-0.06,-0.589,0.846,-21.18,26.245,-31.739,0,0,0,
,-0.054,-0.593,0.836,-32.776,10.864,-37.415,0,0,0,
,-0.058,-0.581,0.836,-48.523,-14.71,-38.086,0,0,0,
,-0.064,-0.573,0.846,-66.59,-26.307,-42.359,0,0,0,
,-0.073,-0.577,0.85,-77.759,-26.429,-40.955,0,0,0,
,-0.08,-0.573,0.852,-82.459,-9.705,-37.598,0,0,0,
,-0.078,-0.566,0.855,-83.435,9.643,-35.401,0,0,0,
,-0.065,-0.559,0.853,-84.961,20.813,-35.95,0,0,0,
,-0.064,-0.56,0.859,-88.013,9.887,-41.504,0,0,0,
,-0.066,-0.56,0.858,-85.083,-2.198,-42.847,0,0,0,
,-0.072,-0.55,0.867,-84.717,-3.785,-44.861,0,0,0,
,-0.076,-0.554,0.878,-77.088,7.69,-48.157,0,0,0,
,-0.072,-0.555,0.89,-58.716,19.348,-52.002,0,0,0,
,-0.074,-0.553,0.873,-50.049,31.555,-63.05,0,0,0,
,-0.073,-0.538,0.855,-59.51,31.372,-55.359,0,0,0,
,-0.062,-0.524,0.852,-62.806,19.409,-52.674,0,0,0,
,-0.057,-0.534,0.852,-59.449,3.173,-56.519,0,0,0,
,-0.065,-0.546,0.841,-73.67,-19.288,-61.829,0,0,0,
,-0.076,-0.532,0.862,-80.384,-23.682,-53.406,0,0,0,
,-0.085,-0.52,0.86,-78.37,-2.869,-49.561,0,0,0,
,-0.08,-0.518,0.863,-65.918,18.92,-48.157,0,0,0,
,-0.074,-0.499,0.866,-47.669,20.996,-28.748,0,0,0,
,-0.067,-0.514,0.853,-27.161,17.578,-30.213,0,0,0,
,-0.068,-0.53,0.852,-26.123,-0.061,-25.33,0,0,0,
,-0.074,-0.539,0.86,-34.119,-9.705,-27.1,0,0,0,
,-0.083,-0.532,0.857,-44.861,-6.592,-24.537,0,0,0,
,-0.083,-0.528,0.865,-55.176,4.882,-20.813,0,0,0,
,-0.075,-0.527,0.889,-57.19,11.84,-16.785,0,0,0,
,-0.073,-0.531,0.885,-54.81,12.756,-22.95,0,0,0,
,-0.075,-0.516,0.876,-49.073,3.967,-23.743,0,0,0,
,-0.077,-0.51,0.878,-41.932,5.004,-22.828,0,0,0,
,-0.078,-0.513,0.876,-35.279,5.676,-25.635,0,0,0,
,-0.074,-0.526,0.881,-32.715,6.897,-26.123,0,0,0,
,-0.069,-0.524,0.878,-35.157,9.765,-28.016,0,0,0,
,-0.072,-0.519,0.886,-38.88,6.225,-26.368,0,0,0,
,-0.072,-0.524,0.88,-35.34,3.173,-31.556,0,0,0,
,-0.075,-0.524,0.88,-34.424,0.244,-29.847,0,0,0,
,-0.076,-0.516,0.876,-31.189,2.807,-30.64,0,0,0,
,-0.077,-0.513,0.882,-24.537,4.638,-28.687,0,0,0,
,-0.077,-0.511,0.888,-13.611,10.192,-29.419,0,0,0,
,-0.077,-0.506,0.89,8.667,18.005,-31.189,0,0,0,
,-0.075,-0.505,0.879,31.25,24.475,-33.936,0,0,0,
,-0.072,-0.513,0.89,46.63,24.353,-31.678,0,0,0,
,-0.071,-0.525,0.884,60.363,23.132,-36.316,0,0,0,
,-0.069,-0.523,0.895,76.294,23.62,-38.514,0,0,0,
,-0.073,-0.507,0.862,97.778,27.648,-43.641,0,0,0,
,-0.073,-0.498,0.861,116.027,26.367,-40.101,0,0,0,
,-0.065,-0.514,0.877,143.371,25.512,-44.922,0,0,0,
,-0.064,-0.542,0.869,167.419,14.648,-54.261,0,0,0,
,-0.094,-0.563,0.872,167.541,-2.625,-53.284,0,0,0,
,-0.079,-0.577,0.836,145.324,-11.902,-60.12,0,0,0,
,-0.086,-0.59,0.829,101.379,-8.362,-52.735,0,0,0,
,-0.09,-0.605,0.823,56.335,13.305,-50.293,0,0,0,
,-0.086,-0.596,0.836,7.08,32.775,-36.011,0,0,0,
,-0.079,-0.576,0.839,-18.86,47.851,-37.781,0,0,0,
,-0.073,-0.544,0.828,-21.363,45.837,-32.288,0,0,0,
,-0.093,-0.531,0.829,-3.846,35.705,-28.016,0,0,0,
,-0.061,-0.554,0.834,12.268,15.808,-27.283,0,0,0,
,-0.067,-0.575,0.843,8.85,-1.526,-27.588,0,0,0,
,-0.069,-0.582,0.845,-3.724,-8.057,-26.49,0,0,0,
,-0.071,-0.584,0.846,-19.349,-10.132,-29.053,0,0,0,
,-0.073,-0.574,0.849,-31.678,-10.315,-23.133,0,0,0,
,-0.073,-0.574,0.85,-43.641,-9.461,-25.33,0,0,0,
,-0.075,-0.579,0.857,-51.27,-7.813,-25.635,0,0,0,
,-0.075,-0.581,0.85,-54.444,-3.174,-25.025,0,0,0,
,-0.073,-0.571,0.853,-58.411,-4.029,-19.043,0,0,0,
,-0.071,-0.563,0.852,-56.641,-1.404,-26.734,0,0,0,
,-0.069,-0.553,0.853,-48.096,-8.423,-21.729,0,0,0,
,-0.068,-0.548,0.863,-30.762,-8.545,-29.053,0,0,0,
,-0.074,-0.555,0.857,-15.809,-19.471,-31.556,0,0,0,
,-0.079,-0.56,0.864,-6.165,-18.311,-36.866,0,0,0,
,-0.087,-0.565,0.861,3.418,-10.254,-41.748,0,0,0,
,-0.089,-0.562,0.849,0.244,-1.282,-37.293,0,0,0,
,-0.087,-0.559,0.84,-9.583,19.958,-28.87,0,0,0,
,-0.079,-0.56,0.847,-10.193,28.991,-23.56,0,0,0,
,-0.07,-0.562,0.85,-10.254,25.634,-24.109,0,0,0,
,-0.065,-0.563,0.846,-11.902,7.324,-25.208,0,0,0,
,-0.067,-0.558,0.835,-16.602,-15.87,-27.588,0,0,0,
,-0.077,-0.557,0.841,-14.527,-29.908,-20.813,0,0,0,
,-0.08,-0.563,0.841,-10.437,-24.292,-0.977,0,0,0,
,-0.083,-0.561,0.827,6.836,-32.288,45.166,0,0,0,
,-0.056,-0.479,0.862,145.08,-132.325,14.953,0,0,0,
,-0.084,-0.61,0.88,17.028,-69.947,-52.979,0,0,0,
,-0.106,-0.627,0.856,1.892,-38.208,-35.523,0,0,0,
,-0.103,-0.545,0.847,-9.705,-9.583,-33.936,0,0,0,
,-0.1,-0.559,0.833,-6.531,17.639,-29.786,0,0,0,
,-0.088,-0.582,0.853,2.441,28.198,-28.382,0,0,0,
,-0.081,-0.573,0.849,4.882,22.766,-28.504,0,0,0,
,-0.077,-0.565,0.837,8.3,10.315,-32.715,0,0,0,
,-0.078,-0.568,0.835,11.291,-6.165,-34.485,0,0,0,
,-0.083,-0.576,0.841,11.657,-6.958,-37.049,0,0,0,
,-0.09,-0.585,0.842,7.69,-13.123,-37.232,0,0,0,
,-0.063,-0.584,0.841,1.342,-3.602,-35.279,0,0,0,
,-0.098,-0.583,0.837,-5.616,6.164,-30.945,0,0,0,
,-0.095,-0.576,0.835,-8.057,19.775,-27.955,0,0,0,
,-0.087,-0.575,0.836,-10.621,25.085,-27.955,0,0,0,
,-0.08,-0.581,0.836,-12.94,22.705,-27.894,0,0,0,
,-0.08,-0.582,0.838,-17.151,4.638,-28.748,0,0,0,
,-0.085,-0.578,0.843,-21.546,-6.958,-32.105,0,0,0,
,-0.092,-0.576,0.836,-19.043,-8.24,-33.204,0,0,0,
,-0.1,-0.573,0.841,-17.823,5.493,-30.335,0,0,0,
,-0.098,-0.573,0.839,-30.945,29.785,-26.49,0,0,0,
,-0.085,-0.575,0.845,-8.789,40.527,-23.987,0,0,0,
,-0.075,-0.575,0.838,-8.484,36.621,-27.039,0,0,0,
,-0.074,-0.576,0.833,-6.775,15.808,-31.006,0,0,0,
,-0.078,-0.571,0.836,-6.348,-7.935,-30.457,0,0,0,
,-0.091,-0.579,0.844,-4.456,-12.452,-34.79,0,0,0,
,-0.092,-0.584,0.843,0.793,-2.137,-32.227,0,0,0,
,-0.09,-0.593,0.858,19.714,21.484,-25.391,0,0,0,
,-0.082,-0.606,0.847,20.385,36.01,-32.288,0,0,0,
,-0.075,-0.636,0.839,-28.26,46.264,-57.007,0,0,0,
,-0.081,-0.582,0.836,-72.205,30.7,-86.365,0,0,0,
,-0.1,-0.542,0.878,-80.689,38.94,-144.288,0,0,0,
,-0.133,-0.487,0.889,-35.767,55.236,-131.409,0,0,0,
,-0.153,-0.473,0.89,62.561,124.084,-174.622,0,0,0,
,-0.154,-0.614,0.875,-150.94,322.204,-314.82,0,0,0,
,-0.119,-0.702,0.822,-250.611,406.799,-196.839,0,0,0,
,-0.05,-0.632,0.792,-374.634,371.154,-160.767,0,0,0,
,-0.033,-0.614,0.788,-407.41,290.1,-199.402,0,0,0,
,-0.024,-0.524,0.835,-383.179,224.121,-106.141,0,0,0,
,-0.02,-0.451,0.844,-282.715,190.368,-93.384,0,0,0,
,0,-0.415,0.836,-118.958,153.137,-18.555,0,0,0,
,0.025,-0.431,0.841,32.226,35.339,1.709,0,0,0,
,0.014,-0.537,0.878,61.828,-62.806,-10.621,0,0,0,
,-0.028,-0.562,0.888,54.382,-100.525,38.33,0,0,0,
,-0.07,-0.547,0.871,28.991,-102.051,43.335,0,0,0,
,-0.08,-0.543,0.874,21.728,-59.021,52.673,0,0,0,
,-0.058,-0.544,0.887,7.446,-26.49,45.776,0,0,0,
,-0.029,-0.477,0.863,83.19,-36.56,73.73,0,0,0,
,-0.023,-0.534,0.88,57.067,-79.651,31.127,0,0,0,
,-0.045,-0.538,0.885,35.827,-101.685,36.682,0,0,0,
,-0.067,-0.522,0.879,41.015,-97.657,34.179,0,0,0,
,-0.088,-0.546,0.887,4.638,-64.942,4.638,0,0,0,
,-0.085,-0.543,0.888,-20.02,-14.466,14.16,0,0,0,
,-0.064,-0.543,0.894,-41.871,31.311,-1.16,0,0,0,
,-0.049,-0.539,0.882,-47.059,39.062,-13.855,0,0,0,
,-0.038,-0.526,0.867,-44.373,31.921,-16.48,0,0,0,
,-0.048,-0.525,0.876,-42.847,19.47,-16.846,0,0,0,
,-0.056,-0.536,0.871,-45.777,19.287,-18.982,0,0,0,
,-0.056,-0.525,0.863,-49.988,26.672,-16.907,0,0,0,
,-0.052,-0.504,0.854,-43.702,36.804,-18.25,0,0,0,
,-0.038,-0.491,0.858,-14.039,31.555,-18.799,0,0,0,
,-0.023,-0.503,0.856,14.648,15.075,-24.048,0,0,0,
,-0.022,-0.517,0.861,34.24,-15.503,-25.391,0,0,0,
,-0.036,-0.527,0.867,40.405,-39.612,-29.969,0,0,0,
,-0.052,-0.54,0.867,36.621,-42.847,-30.762,0,0,0,
,-0.059,-0.517,0.862,39.794,-32.044,-19.898,0,0,0,
,-0.056,-0.523,0.879,54.504,-24.537,-13.794,0,0,0,
,-0.049,-0.551,0.868,73.608,-29.847,-17.945,0,0,0,
,-0.048,-0.548,0.857,105.59,-45.777,3.601,0,0,0,
,-0.056,-0.55,0.849,91.857,-55.115,-2.137,0,0,0,
,-0.062,-0.546,0.859,84.228,-45.227,-8.667,0,0,0,
,-0.059,-0.552,0.858,68.664,-32.898,-8.606,0,0,0,
,-0.049,-0.571,0.861,63.293,-31.861,-20.386,0,0,0,
,-0.061,-0.592,0.853,33.935,-44.068,-31.983,0,0,0,
,-0.072,-0.566,0.85,8.972,-45.105,-30.945,0,0,0,
,-0.075,-0.536,0.859,10.192,-22.644,-35.035,0,0,0,
,-0.07,-0.537,0.858,30.639,-7.081,-38.453,0,0,0,
,-0.056,-0.563,0.854,47.241,-0.977,-42.237,0,0,0,
,-0.058,-0.588,0.855,40.1,-9.339,-48.401,0,0,0,
,-0.066,-0.584,0.846,24.841,-16.175,-49.195,0,0,0,
,-0.077,-0.564,0.845,12.023,-8.789,-42.725,0,0,0,
,-0.078,-0.562,0.846,17.578,14.77,-37.171,0,0,0,
,-0.07,-0.575,0.839,18.615,23.864,-36.866,0,0,0,
,-0.065,-0.578,0.84,11.779,23.437,-42.237,0,0,0,
,-0.061,-0.581,0.842,2.441,3.173,-33.753,0,0,0,
,-0.066,-0.587,0.84,-4.517,-5.433,-36.011,0,0,0,
,-0.073,-0.58,0.842,-14.588,-6.897,-31.678,0,0,0,
,-0.079,-0.584,0.844,-20.264,10.864,-32.166,0,0,0,
,-0.077,-0.587,0.84,-30.335,28.747,-36.866,0,0,0,
,-0.075,-0.589,0.844,-48.096,45.837,-44.251,0,0,0,
,-0.079,-0.578,0.868,-66.773,55.786,-62.378,0,0,0,
,-0.087,-0.556,0.935,-45.166,84.533,-103.15,0,0,0,
,-0.111,-0.489,0.994,56.457,173.523,-142.334,0,0,0,
,-0.098,-0.473,1.081,233.886,289.489,-182.801,0,0,0,
,-0.073,-0.579,1.427,64.025,286.621,-458.802,0,0,0,
,0.003,-0.849,2.016,53.161,368.713,-454.59,0,0,0,
,0.182,-0.861,2.393,77.087,258.117,-295.838,0,0,0,
,0.564,-1.129,2.538,501.587,299.865,-508.789,0,0,0,
,0.762,-1.088,2.153,588.867,72.876,-657.471,0,0,0,
,0.958,-0.945,1.536,869.445,-503.602,-965.638,0,0,0,
,1.079,-1.253,1.06,1542.297,-1286.744,-1493.775,0,0,0,
,0.745,-1.813,0.269,1829.162,-1853.821,-2000,0,0,0,
,0.176,-2.377,-0.397,838.562,-2000,-2000,0,0,0,
,-0.151,-2.205,-0.516,-1322.571,-2000,-2000,0,0,0,
,-0.347,-1.169,-0.53,-2000,-2000,-2000,0,0,0,
,-0.4,-0.066,-0.23,-2000,-2000,-2000,0,0,0,
,-0.122,0.672,-0.072,-2000,-1951.661,-2000,0,0,0,
,0.968,0.807,-0.453,-1954.102,-2000,-1605.713,0,0,0,
,0.491,0.322,-0.188,256.103,-2000,-2000,0,0,0,
,-0.694,-0.538,-0.797,242.797,-2000,-2000,0,0,0,
,-0.464,-0.203,-1.506,-899.109,-1465.638,-1930.481,0,0,0,
,0.217,1.497,-2.019,-2000,-756.409,-1369.751,0,0,0,
,0.072,2.864,-1.644,-2000,-930.603,-595.765,0,0,0,
,-0.706,1.469,-0.952,-501.526,-421.265,-397.4,0,0,0,
,-0.578,0.024,-0.877,745.727,234.558,387.573,0,0,0,
,-0.505,-0.107,-0.898,1184.814,830.078,569.58,0,0,0,
,-0.435,0.331,-0.74,1460.327,1151.794,798.034,0,0,0,
,-0.313,0.281,-0.544,1862.121,1322.631,952.514,0,0,0,
,-0.214,-0.118,-0.334,1715.942,1540.405,1088.256,0,0,0,
,-0.174,-0.387,-0.132,979.858,1819.702,1236.755,0,0,0,
,-0.154,-0.237,0.084,198.852,1999.389,1369.812,0,0,0,
,-0.099,-0.012,0.3,-142.212,1999.694,1431.64,0,0,0,
,0.003,-0.026,0.4,17.211,1999.694,1404.052,0,0,0,
,0.092,-0.159,0.671,233.642,1999.694,1429.016,0,0,0,
,0.078,-0.34,1.282,309.631,1999.694,1458.801,0,0,0,
,-0.072,-0.829,1.837,270.324,1999.694,1393.31,0,0,0,
,-0.202,-0.659,1.624,145.874,1622.802,1340.088,0,0,0,
,-0.527,-0.135,1.442,43.335,1477.417,1150.879,0,0,0,
,-0.43,-0.536,1.83,586.731,1680.725,844.543,0,0,0,
,-0.1,-1.236,2.001,947.326,1338.379,712.28,0,0,0,
,-0.233,-1.358,1.688,574.646,446.289,486.145,0,0,0,
,-0.647,-0.917,1.453,-35.584,135.315,438.354,0,0,0,
,-0.868,-0.414,1.226,-272.217,503.479,464.66,0,0,0,
,-0.565,-0.243,1.108,-363.465,943.664,425.72,0,0,0,
,-0.113,-0.345,1.13,-36.499,961.853,483.215,0,0,0,
,0.095,-0.594,1.2,245.117,566.772,156.005,0,0,0,
,0.005,-0.746,1.069,312.988,70.129,28.32,0,0,0,
,-0.241,-0.59,0.984,151.489,-82.703,19.287,0,0,0,
,-0.367,-0.465,0.864,65.307,109.741,-38.819,0,0,0,
,-0.299,-0.381,0.774,-30.396,332.946,-26.673,0,0,0,
,-0.181,-0.343,0.77,-106.202,305.114,-49.378,0,0,0,
,-0.139,-0.411,0.897,-245.545,209.716,-60.303,0,0,0,
,-0.125,-0.309,1.303,-219.483,170.898,-9.766,0,0,0,
,-0.082,-0.313,1.332,38.086,96.923,27.404,0,0,0,
,-0.072,-0.409,1.075,204.223,-6.714,68.542,0,0,0,
,-0.105,-0.477,0.886,218.322,-46.814,18.981,0,0,0,
,-0.124,-0.482,0.813,147.094,-11.414,10.009,0,0,0,
,-0.114,-0.472,0.78,85.998,58.166,5.493,0,0,0,
,-0.089,-0.474,0.777,50.476,82.275,2.075,0,0,0,
,-0.086,-0.462,0.835,0.061,71.777,-5.127,0,0,0,
,-0.107,-0.469,0.943,12.451,43.151,-15.015,0,0,0,
,-0.136,-0.477,1.01,47.79,16.174,-11.048,0,0,0,
,-0.143,-0.474,1.014,100.708,34.606,-1.099,0,0,0,
,-0.111,-0.451,0.958,169.494,62.866,5.859,0,0,0,
,-0.08,-0.437,0.901,210.205,58.41,-2.381,0,0,0,
,-0.062,-0.452,0.904,250.366,29.357,-18.25,0,0,0,
,-0.046,-0.524,0.933,227.966,-5.738,-13.916,0,0,0,
,-0.029,-0.638,1.018,136.169,-20.63,-13.489,0,0,0,
,-0.05,-0.654,1.047,30.456,-49.439,-13.916,0,0,0,
,-0.116,-0.564,1.084,-6.714,-105.591,-15.809,0,0,0,
,-0.16,-0.551,1.084,59.631,-148.56,-22.461,0,0,0,
,-0.173,-0.603,1.19,217.407,-180.848,-42.786,0,0,0,
,-0.171,-0.694,1.218,377.258,-263.977,-101.624,0,0,0,
,-0.162,-0.829,1.315,510.681,-419.19,-204.102,0,0,0,
,-0.095,-1.05,1.223,450.561,-564.148,-291.016,0,0,0,
,-0.185,-1.043,1.119,122.253,-684.693,-382.203,0,0,0,
,-0.296,-0.746,1.029,-162.354,-718.811,-502.259,0,0,0,
,-0.333,-0.593,0.917,-241.639,-686.463,-613.099,0,0,0,
,-0.321,-0.493,0.725,45.898,-696.839,-736.145,0,0,0,
,-0.342,-0.56,0.717,353.271,-740.052,-869.08,0,0,0,
,-0.407,-0.709,0.813,452.27,-828.858,-1075.806,0,0,0,
,-0.546,-0.89,0.824,201.355,-936.89,-1311.402,0,0,0,
,-0.712,-0.835,0.828,-189.515,-795.777,-1311.341,0,0,0,
,-0.748,-0.638,0.801,-442.139,-544.373,-1322.388,0,0,0,
,-0.639,-0.476,0.657,-486.939,-381.226,-1358.277,0,0,0,
,-0.572,-0.319,0.592,-407.959,-386.048,-1359.192,0,0,0,
,-0.59,-0.253,0.533,-214.478,-497.559,-1383.912,0,0,0,
,-0.666,-0.279,0.574,-33.997,-565.369,-1382.081,0,0,0,
,-0.721,-0.356,0.652,-28.382,-495.85,-1367.432,0,0,0,
,-0.709,-0.33,0.632,-231.446,-338.562,-1372.742,0,0,0,
,-0.621,-0.215,0.541,-455.445,-221.436,-1325.806,0,0,0,
,-0.55,-0.108,0.509,-591.675,-230.591,-1208.497,0,0,0,
,-0.525,-0.036,0.613,-603.455,-269.41,-1121.582,0,0,0,
,-0.54,0.027,0.598,-499.39,-304.688,-989.93,0,0,0,
,-0.565,0.039,0.512,-340.332,-333.13,-824.097,0,0,0,
,-0.588,0.001,0.409,-167.664,-318.421,-724.793,0,0,0,
,-0.636,-0.033,0.373,-187.134,-225.281,-682.618,0,0,0,
,-0.675,0.037,0.407,-317.627,-43.519,-614.991,0,0,0,
,-0.651,0.173,0.428,-448.731,132.019,-530.579,0,0,0,
,-0.609,0.252,0.467,-517.518,232.788,-445.069,0,0,0,
,-0.588,0.396,0.493,-561.707,304.87,-351.929,0,0,0,
,-0.59,0.486,0.586,-532.715,343.261,-254.151,0,0,0,
,-0.578,0.45,0.67,-410.645,320.861,-177.247,0,0,0,
,-0.598,0.261,0.715,-269.959,265.258,-95.704,0,0,0,
,-0.642,0.119,0.728,-245.301,222.9,-22.95,0,0,0,
,-0.692,0.25,0.638,-363.587,332.702,38.696,0,0,0,
,-0.685,0.484,0.592,-516.114,527.771,159.301,0,0,0,
,-0.592,0.438,0.625,-400.269,593.994,132.324,0,0,0,
,-0.538,0.158,0.801,-332.703,567.688,58.044,0,0,0,
,-0.441,-0.022,0.852,-371.582,407.348,-43.213,0,0,0,
,-0.618,0.093,0.908,-700.318,244.018,-20.508,0,0,0,
,-0.771,0.293,0.925,-710.511,294.067,-111.084,0,0,0,
,-0.795,0.37,1.018,-537.781,350.891,-81.849,0,0,0,
,-0.664,0.392,0.855,-329.834,432.067,-42.359,0,0,0,
,-0.592,0.326,0.726,-182.068,384.582,-68.787,0,0,0,
,-0.61,0.179,0.741,-144.776,241.882,-150.818,0,0,0,
,-0.701,0.006,0.657,-278.382,195.007,-288.453,0,0,0,
,-0.762,0.109,0.639,-451.539,242.248,-309.876,0,0,0,
,-0.791,0.265,0.658,-455.689,290.832,-304.749,0,0,0,
,-0.753,0.335,0.619,-404.236,378.173,-268.25,0,0,0,
,-0.694,0.381,0.559,-364.685,441.772,-153.504,0,0,0,
,-0.625,0.53,0.459,-293.824,479.37,13.916,0,0,0,
,-0.575,0.532,0.464,-216.98,466.797,-147.156,0,0,0,
,-0.542,0.49,0.448,-53.772,575.744,-86.426,0,0,0,
,-0.456,0.457,0.432,46.325,633.117,-99.671,0,0,0,
,-0.366,0.414,0.452,105.163,604.858,-152.1,0,0,0,
,-0.136,0.424,1.417,15.502,317.138,-149.048,0,0,0,
,-0.411,0.458,0.566,155.761,495.666,-127.991,0,0,0,
,-0.173,0.577,1.044,-68.604,242.92,131.591,0,0,0,
,-0.189,0.633,0.926,5.127,154.602,73.791,0,0,0,
,-0.25,0.645,0.787,121.154,33.081,150.085,0,0,0,
,-0.299,0.622,0.728,252.685,-15.87,204.773,0,0,0,
,-0.357,0.471,0.752,406.555,-40.833,240.783,0,0,0,
,-0.396,0.266,0.734,362.609,-41.443,288.025,0,0,0,
,-0.438,0.186,0.716,175.781,-37.171,304.748,0,0,0,
,-0.512,0.127,0.987,-83.069,-74.891,159.668,0,0,0,
,-0.582,0.24,0.846,-352.906,195.617,122.009,0,0,0,
,-0.498,0.662,0.843,-343.323,351.44,359.619,0,0,0,
,-0.441,0.638,0.768,11.352,304.809,274.353,0,0,0,
,-0.485,0.484,0.758,162.292,204.284,327.453,0,0,0,
,-0.571,0.388,0.785,201.172,179.016,275.207,0,0,0,
,-0.62,0.249,0.889,212.585,253.54,272.155,0,0,0,
,-0.616,0.131,0.932,241.272,305.359,203.918,0,0,0,
,-0.594,0.008,0.935,233.703,332.092,124.755,0,0,0,
,-0.578,-0.073,0.896,111.877,325.744,28.198,0,0,0,
,-0.566,-0.046,0.936,-38.269,321.96,-59.205,0,0,0,
,-0.559,0.126,0.97,-103.76,271.85,-230.347,0,0,0,
,-0.55,0.186,0.939,-66.712,259.094,-261.719,0,0,0,
,-0.526,0.236,0.891,-31.922,248.962,-335.328,0,0,0,
,-0.506,0.24,0.849,40.1,225.952,-366.761,0,0,0,
,-0.51,0.199,0.837,85.51,200.256,-398.316,0,0,0,
,-0.521,0.13,0.845,90.332,204.284,-424.5,0,0,0,
,-0.499,0.12,0.776,14.709,291.748,-422.974,0,0,0,
,-0.407,0.183,0.864,-85.328,325.866,-429.932,0,0,0,
,-0.358,0.236,0.86,-109.559,316.345,-461.365,0,0,0,
,-0.328,0.207,0.857,-125.977,308.96,-455.628,0,0,0,
,-0.276,0.32,0.874,-203.553,355.468,-393.311,0,0,0,
,-0.185,0.436,0.903,-205.933,365.234,-346.863,0,0,0,
,-0.094,0.504,0.923,-162.049,335.083,-283.997,0,0,0,
,0.006,0.505,0.935,-158.387,271.057,-196.839,0,0,0,
,0.086,0.5,1.229,-164.002,117.981,-94.544,0,0,0,
,0.1,0.423,1.224,-269.776,-12.207,-10.865,0,0,0,
,-0.068,0.669,0.84,-535.34,-127.503,66.223,0,0,0,
,-0.172,0.895,0.994,-275.94,-69.825,172.058,0,0,0,
,-0.099,0.62,0.805,165.344,89.843,232.055,0,0,0,
,-0.052,0.468,0.792,98.632,122.375,205.2,0,0,0,
,-0.074,0.36,0.904,45.959,85.632,169.922,0,0,0,
,-0.102,0.274,0.952,-46.204,153.259,138.366,0,0,0,
,-0.061,0.248,0.994,-198.67,251.22,82.458,0,0,0,
,-0.01,0.335,0.989,-321.045,284.912,52.551,0,0,0,
,0.008,0.427,0.99,-367.493,251.342,23.925,0,0,0,
,0.011,0.487,0.977,-340.638,230.774,3.356,0,0,0,
,0.022,0.552,0.977,-268.799,216.308,63.781,0,0,0,
,0.012,0.501,1,-140.931,120.727,67.077,0,0,0,
,-0.058,0.357,1.068,-101.685,19.165,33.447,0,0,0,
,-0.135,0.284,1.098,-146.912,11.901,15.38,0,0,0,
,-0.142,0.3,1.046,-165.772,65.002,2.624,0,0,0,
,-0.102,0.297,0.964,-187.439,71.594,-33.997,0,0,0,
,-0.112,0.334,0.932,-233.887,-4.09,-75.806,0,0,0,
,-0.167,0.393,0.951,-226.319,-75.684,-95.704,0,0,0,
,-0.224,0.464,0.992,-88.746,-91.675,-93.811,0,0,0,
,-0.232,0.495,1.003,99.731,-65.369,-81.299,0,0,0,
,-0.234,0.471,0.977,307.19,-54.688,-78.37,0,0,0,
,-0.264,0.504,0.887,473.877,-83.558,-54.017,0,0,0,
,-0.31,0.585,0.755,624.939,-104.493,-93.811,0,0,0,
,-0.291,0.449,0.729,876.587,-146.058,-167.542,0,0,0,
,-0.343,0.082,0.691,777.282,-217.896,-238.77,0,0,0,
,-0.443,0.114,0.632,411.316,-305.848,-182.129,0,0,0,
,-0.503,0.292,0.653,374.755,-256.104,-191.102,0,0,0,
,-0.489,0.23,0.633,455.383,-161.866,-283.204,0,0,0,
,-0.424,0.293,0.632,424.743,-150.452,-263.367,0,0,0,
,-0.397,0.365,0.693,402.404,-207.581,-277.405,0,0,0,
,-0.434,0.348,0.697,424.438,-224.488,-267.945,0,0,0,
,-0.444,0.318,0.709,411.255,-222.29,-296.265,0,0,0,
,-0.434,0.317,0.777,381.347,-216.98,-247.864,0,0,0,
,-0.388,0.281,0.828,369.018,-162.903,-182.068,0,0,0,
,-0.328,0.214,0.862,254.821,-131.043,-117.92,0,0,0,
,-0.295,0.261,0.894,65.429,-99.854,-59.632,0,0,0,
,-0.274,0.306,0.924,-103.577,-59.449,-60.181,0,0,0,
,-0.237,0.374,1.063,-256.958,-19.898,-22.278,0,0,0,
,-0.119,0.495,1.209,-318.299,79.223,95.581,0,0,0,
,-0.023,0.506,1.256,-354.004,45.593,122.314,0,0,0,
,-0.02,0.525,1.195,-416.504,21.118,212.463,0,0,0,
,-0.097,0.582,0.891,-289.185,87.768,224.67,0,0,0,
,0.028,0.377,1.233,-160.584,123.84,201.599,0,0,0,
,-0.042,0.466,0.895,-122.437,164.428,247.863,0,0,0,
,0.044,0.072,1.003,-30.457,232.238,137.573,0,0,0,
,0.039,0.177,1.044,-170.594,173.889,199.279,0,0,0,
,-0.011,0.068,1.032,-250.794,178.344,111.206,0,0,0,
,-0.034,0.19,1.099,-365.113,187.194,146.606,0,0,0,
,-0.041,0.212,1.07,-407.898,190.612,104.98,0,0,0,
,-0.05,0.274,1.065,-455.872,149.231,122.253,0,0,0,
,-0.09,0.316,1.052,-451.355,102.478,119.079,0,0,0,
,-0.13,0.327,1.034,-429.322,91.247,107.605,0,0,0,
,-0.157,0.3,1.038,-428.223,84.411,84.411,0,0,0,
,-0.175,0.312,1.035,-428.65,82.092,67.077,0,0,0,
,-0.203,0.33,1.017,-376.954,82.214,35.949,0,0,0,
,-0.219,0.358,0.999,-337.22,105.774,10.253,0,0,0,
,-0.218,0.359,0.986,-274.414,100.647,-22.583,0,0,0,
,-0.231,0.36,0.966,-233.338,70.678,-57.435,0,0,0,
,-0.278,0.349,0.968,-184.998,31.066,-104.432,0,0,0,
,-0.315,0.384,0.988,-152.955,43.701,-124.939,0,0,0,
,-0.298,0.423,0.975,-97.718,79.956,-156.189,0,0,0,
,-0.259,0.414,0.933,-50.843,54.077,-182.679,0,0,0,
,-0.271,0.455,0.901,-31.189,-31.617,-181.153,0,0,0,
,-0.315,0.478,0.871,41.442,-77.149,-220.093,0,0,0,
,-0.344,0.459,0.847,137.451,-70.862,-241.15,0,0,0,
,-0.345,0.432,0.806,212.097,-47.852,-251.221,0,0,0,
,-0.332,0.417,0.762,275.39,-48.829,-284.058,0,0,0,
,-0.329,0.425,0.757,326.172,-78.125,-276.795,0,0,0,
,-0.334,0.398,0.731,346.557,-107.605,-288.453,0,0,0,
,-0.354,0.415,0.703,349.609,-147.644,-274.903,0,0,0,
,-0.373,0.472,0.746,413.452,-157.532,-261.353,0,0,0,
,-0.379,0.305,0.645,437.988,-116.028,-273.072,0,0,0,
,-0.339,0.345,0.626,366.455,-147.095,-244.629,0,0,0,
,-0.343,0.369,0.661,348.816,-193.299,-253.174,0,0,0,
,-0.345,0.34,0.655,329.956,-177.735,-214.722,0,0,0,
,-0.335,0.307,0.677,281.616,-170.044,-196.473,0,0,0,
,-0.319,0.3,0.732,218.2,-138.733,-151.001,0,0,0,
,-0.287,0.322,0.782,91.552,-73.243,-89.844,0,0,0,
,-0.214,0.384,0.819,-58.167,-18.189,-31.25,0,0,0,
,-0.168,0.483,0.869,-158.936,-26.673,28.625,0,0,0,
,-0.144,0.557,0.971,-153.321,-24.048,65.551,0,0,0,
,-0.13,0.521,1.042,-73.853,28.076,94.36,0,0,0,
,-0.084,0.447,1.051,-29.969,113.891,150.207,0,0,0,
,0.017,0.45,1.419,-121.094,63.476,193.054,0,0,0,
,0.056,0.509,1.27,-308.777,148.193,350.952,0,0,0,
,-0.058,0.504,0.75,-324.585,93.566,201.172,0,0,0,
,-0.061,0.372,0.932,-276.001,96.435,290.527,0,0,0,
,-0.046,0.434,1.001,-218.811,148.315,308.654,0,0,0,
,-0.065,0.2,0.942,-212.647,167.175,135.009,0,0,0,
,-0.069,0.241,1.046,-389.527,181.701,193.115,0,0,0,
,-0.072,0.351,1.052,-413.697,261.23,146.423,0,0,0,
,-0.023,0.393,1.044,-376.099,300.354,165.466,0,0,0,
,0,0.396,1.023,-363.282,215.82,121.765,0,0,0,
,-0.039,0.412,1.037,-351.807,118.103,106.506,0,0,0,
,-0.112,0.396,1.068,-318.848,72.448,82.275,0,0,0,
,-0.159,0.372,1.056,-290.223,102.111,61.34,0,0,0,
,-0.148,0.368,1.038,-268.372,146.789,55.175,0,0,0,
,-0.132,0.358,1.005,-255.249,143.432,19.348,0,0,0,
,-0.122,0.359,0.988,-268.555,114.013,-10.437,0,0,0,
,-0.141,0.401,0.989,-265.442,53.405,-38.331,0,0,0,
,-0.196,0.461,0.972,-191.712,14.77,-65.369,0,0,0,
,-0.237,0.421,0.957,-48.34,32.165,-106.507,0,0,0,
,-0.232,0.398,0.909,-10.254,59.082,-112.977,0,0,0,
,-0.218,0.41,0.87,-3.907,30.639,-144.471,0,0,0,
,-0.239,0.394,0.832,-20.264,-22.095,-168.274,0,0,0,
,-0.264,0.416,0.82,-40.528,-42.725,-185.303,0,0,0,
,-0.272,0.447,0.789,-30.823,-51.514,-203.675,0,0,0,
,-0.259,0.462,0.748,5.615,-38.941,-225.22,0,0,0,
,-0.238,0.442,0.778,4.272,-54.688,-251.16,0,0,0,
,-0.236,0.427,0.81,-42.969,-54.261,-255.433,0,0,0,
,-0.225,0.456,0.857,-88.379,-46.448,-248.536,0,0,0,
,-0.221,0.53,0.876,-108.887,-45.716,-233.033,0,0,0,
,-0.206,0.574,0.879,-86.67,-46.753,-223.999,0,0,0,
,-0.193,0.593,0.875,-37.293,-64.148,-198.06,0,0,0,
,-0.206,0.615,0.845,32.959,-81.971,-174.378,0,0,0,
,-0.217,0.615,0.818,120.117,-96.985,-167.664,0,0,0,
,-0.232,0.595,0.795,172.973,-118.775,-165.162,0,0,0,
,-0.24,0.58,0.791,217.468,-121.949,-156.006,0,0,0,
,-0.247,0.555,0.795,275.634,-121.094,-147.583,0,0,0,
,-0.248,0.55,0.795,308.044,-120.728,-122.803,0,0,0,
,-0.257,0.556,0.807,364.441,-131.104,-139.771,0,0,0,
,-0.274,0.502,0.758,521.423,-158.936,-101.197,0,0,0,
,-0.288,0.484,0.713,576.294,-171.265,-119.324,0,0,0,
,-0.276,0.389,0.653,650.268,-141.48,-134.278,0,0,0,
,-0.269,0.294,0.642,619.079,-128.296,-139.283,0,0,0,
,-0.266,0.269,0.654,557.556,-76.355,-128.357,0,0,0,
,-0.234,0.168,0.702,429.931,-10.498,-130.738,0,0,0,
,-0.187,0.216,0.78,264.587,40.161,-51.087,0,0,0,
,-0.098,0.243,0.84,100.708,86.364,-28.26,0,0,0,
,-0.039,0.248,0.893,-65.674,80.932,20.996,0,0,0,
,0.002,0.234,0.955,-209.717,62.5,55.725,0,0,0,
,0.014,0.248,1.024,-355.408,37.414,77.941,0,0,0,
,0.081,0.339,1.211,-507.813,16.296,142.089,0,0,0,
,0.058,0.472,1.157,-482.85,10.07,271.057,0,0,0,
,-0.014,0.318,0.881,-444.703,-12.024,142.334,0,0,0,
,-0.123,0.248,0.847,-518.25,-54.932,88.989,0,0,0,
,-0.151,0.283,0.874,-673.645,93.139,115.295,0,0,0,
,-0.143,0.427,1.035,-780.335,169.555,78.918,0,0,0,
,-0.089,0.428,1.094,-584.168,309.631,29.174,0,0,0,
,-0.038,0.361,1.032,-518.982,325.622,54.443,0,0,0,
,0.006,0.428,1.014,-673.829,284.729,28.015,0,0,0,
,0.004,0.541,1.018,-724.366,189.392,-9.766,0,0,0,
,-0.055,0.636,1.032,-662.415,92.468,-67.505,0,0,0,
,-0.134,0.701,1.041,-478.943,103.149,-29.541,0,0,0,
,-0.128,0.608,1.003,-195.618,148.864,-16.419,0,0,0,
,-0.073,0.412,0.966,-75.44,145.019,-18.189,0,0,0,
,-0.058,0.323,0.908,-221.07,67.077,-66.163,0,0,0,
,-0.112,0.458,0.938,-471.924,-20.081,-116.15,0,0,0,
,-0.163,0.664,0.971,-570.13,-23.072,-112.549,0,0,0,
,-0.151,0.783,1.007,-449.097,-22.828,-120.667,0,0,0,
,-0.136,0.712,0.998,-96.924,-105.53,-122.559,0,0,0,
,-0.168,0.61,0.911,98.266,-218.14,-130.372,0,0,0,
,-0.239,0.669,0.83,199.646,-275.879,-142.64,0,0,0,
,-0.27,0.711,0.822,335.205,-317.383,-148.56,0,0,0,
,-0.339,0.578,0.729,450.683,-332.52,-158.02,0,0,0,
,-0.399,0.507,0.663,454.162,-341.187,-180.481,0,0,0,
,-0.468,0.5,0.61,527.343,-320.252,-203.98,0,0,0,
,-0.503,0.407,0.481,541.748,-221.375,-215.943,0,0,0,
,-0.46,0.387,0.41,450.866,-138.428,-185.059,0,0,0,
,-0.416,0.382,0.36,352.539,-112.732,-161.866,0,0,0,
,-0.378,0.424,0.383,237.793,-85.999,-122.681,0,0,0,
,-0.341,0.509,0.468,71.044,-4.761,-100.098,0,0,0,
,-0.28,0.622,0.57,-45.227,127.624,-65.125,0,0,0,
,-0.198,0.676,0.66,-97.107,262.207,-20.813,0,0,0,
,-0.076,0.72,0.754,-175.599,376.098,56.274,0,0,0,
,0.04,0.789,0.797,-272.034,440.673,149.658,0,0,0,
,0.14,0.866,0.957,-286.866,416.137,205.2,0,0,0,
,0.188,0.765,1.111,-175.843,346.496,225.463,0,0,0,
,0.218,0.623,1.23,-191.651,310.119,288.086,0,0,0,
,0.261,0.568,1.297,-263.428,286.743,296.142,0,0,0,
,0.307,0.545,1.298,-279.48,193.542,305.114,0,0,0,
,0.282,0.549,1.298,-298.462,-13.367,301.818,0,0,0,
,0.151,0.551,1.29,-214.844,-205.079,275.94,0,0,0,
,-0.044,0.565,1.232,-36.438,-295.777,242.981,0,0,0,
,-0.302,0.443,0.943,314.087,-194.886,112.548,0,0,0,
,-0.342,0.477,0.789,503.418,-159.729,45.227,0,0,0,
,-0.397,0.389,0.652,684.265,-229.126,-90.577,0,0,0,
,-0.559,0.307,0.563,820.556,-336.914,-180.298,0,0,0,
,-0.672,0.054,0.523,861.633,-292.176,-271.18,0,0,0,
,-0.66,0.032,0.451,560.485,-135.498,-288.819,0,0,0,
,-0.551,0.203,0.392,369.262,-71.045,-314.942,0,0,0,
,-0.48,0.248,0.404,249.267,-95.093,-343.934,0,0,0,
,-0.424,0.383,0.469,75.622,-95.154,-299.988,0,0,0,
,-0.351,0.531,0.592,-73.121,-2.076,-238.648,0,0,0,
,-0.24,0.65,0.722,-164.063,136.535,-188.233,0,0,0,
,-0.123,0.702,0.764,-254.029,298.889,-96.924,0,0,0,
,0.014,0.714,0.856,-410.645,395.202,8.85,0,0,0,
,0.196,0.726,1.164,-616.822,332.031,187.317,0,0,0,
,0.224,0.637,1.28,-601.014,310.73,207.031,0,0,0,
,0.236,0.506,1.275,-623.963,291.015,194.03,0,0,0,
,0.23,0.517,1.282,-665.711,147.949,193.847,0,0,0,
,0.08,0.58,1.209,-493.409,9.826,157.714,0,0,0,
,-0.135,0.572,1.1,-143.982,-70.069,105.59,0,0,0,
,-0.258,0.489,1.06,244.69,-76.477,18.676,0,0,0,
,-0.331,0.395,0.924,505.676,-83.008,-78.431,0,0,0,
,-0.368,0.372,0.78,701.904,-97.107,-120.179,0,0,0,
,-0.401,0.469,0.713,759.826,-165.406,-171.265,0,0,0,
,-0.473,0.507,0.504,888.916,-102.234,-188.721,0,0,0,
,-0.455,0.399,0.361,917.541,-32.898,-242.432,0,0,0,
,-0.3,0.003,0.421,357.238,-8.179,-213.196,0,0,0,
,-0.253,0.111,0.646,-146.302,88.317,-115.357,0,0,0,
,-0.196,0.378,0.839,-472.657,351.745,28.564,0,0,0,
,0.012,0.602,0.957,-632.569,529.724,108.337,0,0,0,
,0.183,0.739,1.082,-716.98,509.216,182.678,0,0,0,
,0.307,0.756,1.263,-717.591,317.382,204.773,0,0,0,
,0.326,0.703,1.415,-623.352,95.764,222.168,0,0,0,
,0.206,0.731,1.498,-469.3,-113.343,291.259,0,0,0,
,0.042,0.712,1.39,-180.909,-95.215,280.334,0,0,0,
,-0.007,0.605,1.225,85.632,-59.449,211.792,0,0,0,
,-0.12,0.514,1.084,203.186,-133.973,120.605,0,0,0,
,-0.309,0.378,0.948,371.643,-124.39,47.79,0,0,0,
,-0.39,0.206,0.771,579.284,-6.104,-76.905,0,0,0,
,-0.396,0.076,0.58,652.771,-59.998,-182.557,0,0,0,
,-0.512,0.034,0.443,668.274,-96.558,-246.338,0,0,0,
,-0.577,0.003,0.339,609.558,-27.832,-355.347,0,0,0,
,-0.504,0.006,0.269,415.649,76.355,-427.185,0,0,0,
,-0.334,0.194,0.414,92.102,69.336,-416.993,0,0,0,
,-0.17,0.442,0.63,-161.622,63.842,-260.621,0,0,0,
,-0.063,0.667,0.785,-314.27,65.673,-120.85,0,0,0,
,-0.021,0.766,0.954,-331.482,95.52,33.264,0,0,0,
,0.063,0.692,1.092,-398.011,207.214,97.045,0,0,0,
,0.172,0.673,1.186,-627.564,304.321,221.13,0,0,0,
,0.3,0.788,1.274,-767.518,303.833,315.368,0,0,0,
,0.382,0.861,1.383,-673.34,168.396,359.863,0,0,0,
,0.316,0.856,1.325,-442.933,40.893,439.758,0,0,0,
,0.185,0.642,1.232,-127.808,-137.024,389.648,0,0,0,
,-0.13,0.32,1.112,34.179,-309.815,321.777,0,0,0,
,-0.39,0.216,0.994,191.162,-180.603,302.124,0,0,0,
,-0.381,0.166,0.828,329.895,55.542,98.816,0,0,0,
,-0.292,0.215,0.688,458.13,12.817,-71.961,0,0,0,
,-0.344,0.229,0.647,645.446,-135.193,-206.849,0,0,0,
,-0.432,0.298,0.622,805.481,-165.406,-344.788,0,0,0,
,-0.406,0.269,0.56,981.079,-28.809,-474.122,0,0,0,
,-0.288,0.177,0.594,972.717,62.072,-524.964,0,0,0,
,-0.235,0.066,0.702,671.63,89.965,-504.944,0,0,0,
,-0.165,0.09,0.879,193.176,157.531,-362.122,0,0,0,
,-0.077,0.347,0.996,-260.315,279.174,-170.044,0,0,0,
,0.041,0.585,0.973,-533.631,337.097,-54.2,0,0,0,
,0.13,0.763,1.007,-754.517,241.638,53.833,0,0,0,
,0.136,0.852,0.958,-855.652,193.969,162.719,0,0,0,
,0.115,0.781,1.037,-773.072,100.158,231.018,0,0,0,
,0.096,0.396,1.183,-711.914,101.135,111.694,0,0,0,
,0.027,0.191,1.221,-766.419,115.173,73.486,0,0,0,
,-0.047,0.433,1.304,-786.927,82.275,130.005,0,0,0,
,-0.098,0.509,1.263,-375.611,182.739,-83.497,0,0,0,
,-0.016,0.532,1.018,51.696,202.575,-22.828,0,0,0,
,-0.084,0.493,0.939,439.758,-172.974,-202.942,0,0,0,
,-0.417,0.208,0.867,728.332,-446.961,-379.09,0,0,0,
,-0.607,0.196,0.802,764.465,-232.239,-257.569,0,0,0,
,-0.495,0.095,0.511,749.084,117.187,-427.185,0,0,0,
,-0.315,-0.06,0.343,560.73,43.884,-465.21,0,0,0,
,-0.288,0.008,0.368,197.265,-160.096,-431.519,0,0,0,
,-0.239,0.194,0.506,-184.327,-148.255,-378.785,0,0,0,
,-0.145,0.404,0.614,-445.74,-48.523,-241.456,0,0,0,
,-0.035,0.571,0.632,-617.493,106.75,-112.427,0,0,0,
,0.068,0.714,0.685,-768.86,207.458,16.357,0,0,0,
,0.181,0.85,0.821,-900.391,276.672,94.055,0,0,0,
,0.299,0.933,1.057,-979.859,266.662,117.736,0,0,0,
,0.362,1.003,1.257,-883.973,203.125,218.933,0,0,0,
,0.358,1.039,1.336,-629.151,142.151,343.139,0,0,0,
,0.348,0.9,1.26,-387.574,143.493,395.63,0,0,0,
,0.358,0.751,1.161,-339.6,103.637,377.929,0,0,0,
,0.292,0.632,1.143,-389.1,-116.883,347.046,0,0,0,
,0.063,0.567,1.166,-368.653,-393.616,330.566,0,0,0,
,-0.295,0.615,1.085,-141.419,-399.476,344.238,0,0,0,
,-0.435,0.493,0.9,231.323,-82.886,287.475,0,0,0,
,-0.38,0.342,0.695,471.435,123.962,158.935,0,0,0,
,-0.408,0.432,0.248,564.392,59.875,108.215,0,0,0,
,-0.612,0.392,0.737,906.189,-610.901,-119.751,0,0,0,
,-0.912,0.072,0.626,1069.946,-240.174,-421.082,0,0,0,
,-0.481,-0.056,0.473,944.213,278.991,-257.019,0,0,0,
,-0.225,0.427,0.395,509.277,-176.087,-297.974,0,0,0,
,-0.465,0.614,0.636,498.108,-470.215,-421.875,0,0,0,
,-0.474,0.522,0.614,555.969,-122.986,-335.267,0,0,0,
,-0.22,0.44,0.468,262.817,-14.527,-250.367,0,0,0,
,-0.174,0.499,0.475,-67.566,-83.985,-125.977,0,0,0,
,-0.153,0.546,0.7,-281.434,-30.701,-86.487,0,0,0,
,-0.06,0.509,1.006,-448.853,256.591,-73.975,0,0,0,
,0.124,0.55,1.28,-750.061,540.466,-48.829,0,0,0,
,0.371,0.759,1.5,-879.883,690.49,-49.195,0,0,0,
,0.683,1.054,1.62,-744.996,602.111,-0.672,0,0,0,
,0.78,1.329,1.43,-308.533,210.144,218.75,0,0,0,
,0.555,0.842,1.358,357.666,-357.422,144.104,0,0,0,
,0.068,0.343,1.229,303.711,-693.665,106.262,0,0,0,
,-0.495,0.304,1.084,271.911,-577.454,355.346,0,0,0,
,-0.596,0.132,0.809,570.129,176.574,177.673,0,0,0,
,-0.318,-0.16,0.385,468.139,226.745,-115.174,0,0,0,
,-0.459,0.012,0.322,290.527,-160.889,-70.496,0,0,0,
,-0.635,0.253,0.456,453.918,-164.002,-233.704,0,0,0,
,-0.57,0.244,0.351,557.495,-40.894,-343.934,0,0,0,
,-0.431,0.457,0.499,665.1,-13.55,-381.958,0,0,0,
,-0.263,0.387,0.611,812.133,22.338,-458.435,0,0,0,
,-0.137,0.239,0.736,686.706,-26.856,-384.949,0,0,0,
,-0.065,0.167,0.778,360.351,-25.818,-234.986,0,0,0,
,0.005,0.242,0.773,-55.909,19.226,-81.543,0,0,0,
,0.085,0.367,0.848,-462.098,29.48,-39.978,0,0,0,
,0.134,0.523,0.989,-796.082,40.832,94.726,0,0,0,
,0.173,0.679,1.115,-1017.64,95.886,158.691,0,0,0,
,0.203,0.789,1.276,-1094.3,121.643,161.193,0,0,0,
,0.23,0.782,1.409,-1013.55,127.685,163.757,0,0,0,
,0.256,0.822,1.497,-790.894,112.06,192.688,0,0,0,
,0.248,0.842,1.482,-437.928,74.157,240.539,0,0,0,
,0.176,0.798,1.32,-30.64,-7.935,284.484,0,0,0,
,-0.072,0.567,1.168,319.641,-225.098,193.969,0,0,0,
,-0.392,0.315,1.17,618.103,-245.911,151.977,0,0,0,
,-0.454,0.145,0.901,892.212,109.375,64.575,0,0,0,
,-0.442,-0.004,0.497,890.991,68.115,-175.904,0,0,0,
,-0.595,0.114,0.385,880.554,-193.055,-204.346,0,0,0,
,-0.606,0.115,0.163,801.941,11.474,-447.388,0,0,0,
,-0.428,0.117,0.175,592.712,-96.375,-506.348,0,0,0,
,-0.292,0.134,0.361,300.964,-179.261,-466.309,0,0,0,
,-0.164,0.227,0.546,-83.252,-178.162,-330.994,0,0,0,
,-0.096,0.423,0.8,-438.172,-89.661,-174.256,0,0,0,
,-0.025,0.65,1.078,-605.53,175.842,-1.587,0,0,0,
,0.116,0.714,1.321,-616.272,455.688,93.139,0,0,0,
,0.34,0.661,1.508,-856.568,527.343,135.559,0,0,0,
,0.531,0.936,1.446,-1074.646,415.588,410.034,0,0,0,
,0.565,0.999,1.494,-621.766,26.794,434.204,0,0,0,
,0.408,0.757,1.555,-275.879,-265.015,492.859,0,0,0,
,0.095,0.562,1.353,-43.824,-378.602,449.707,0,0,0,
,-0.277,0.382,1.233,156.128,-352.051,416.931,0,0,0,
,-0.451,0.207,1.065,366.577,-55.42,309.936,0,0,0,
,-0.384,0.044,0.797,498.962,200.134,140.686,0,0,0,
,-0.366,-0.015,0.537,564.087,98.632,-11.536,0,0,0,
,-0.458,0.063,0.465,692.505,-35.096,-153.748,0,0,0,
,-0.538,0.117,0.49,796.508,-40.955,-292.603,0,0,0,
,-0.52,0.177,0.498,825.012,6.225,-375.855,0,0,0,
,-0.276,0.083,0.54,483.581,-21.119,-432.801,0,0,0,
,-0.24,0.086,0.595,123.657,-53.162,-325.806,0,0,0,
,-0.223,0.158,0.758,-311.341,-47.242,-274.292,0,0,0,
,-0.171,0.247,0.997,-711.121,125.793,-209.534,0,0,0,
,-0.059,0.35,1.391,-952.82,326.416,-91.309,0,0,0,
,0.356,1,1.302,-1290.467,396.667,175.964,0,0,0,
,0.343,0.818,1.304,-842.652,116.882,102.417,0,0,0,
,0.258,0.685,1.277,-623.658,-24.292,170.715,0,0,0,
,0.122,0.569,1.192,-480.103,-124.512,34.423,0,0,0,
,-0.067,0.522,1.138,-290.65,-193.116,50.048,0,0,0,
,-0.299,0.452,1.091,21.972,-112.793,113.037,0,0,0,
,-0.32,0.33,0.934,269.104,225.158,47.912,0,0,0,
,-0.221,0.208,0.683,316.101,264.77,-31.8,0,0,0,
,-0.305,0.219,0.658,268.432,-146.241,-96.558,0,0,0,
,-0.524,0.27,0.736,321.96,-245.423,-129.273,0,0,0,
,-0.514,0.341,0.704,426.818,-51.392,-151.001,0,0,0,
,-0.383,0.459,0.591,468.872,-111.573,-191.712,0,0,0,
,-0.393,0.673,0.543,598.755,-229.676,-139.039,0,0,0,
,-0.362,0.733,0.499,819.091,-124.817,-221.802,0,0,0,
,-0.235,0.422,0.357,827.636,-41.565,-357.178,0,0,0,
,-0.194,0.107,0.355,502.258,-150.025,-346.619,0,0,0,
,-0.208,0.045,0.487,76.477,-150.818,-212.891,0,0,0,
,-0.141,0.254,0.738,-352.723,74.462,-27.039,0,0,0,
,0.024,0.472,1.034,-550.477,415.222,38.391,0,0,0,
,0.222,0.579,1.238,-672.608,604.126,36.193,0,0,0,
,0.442,0.713,1.331,-828.919,575.439,117.431,0,0,0,
,0.58,0.881,1.411,-822.632,351.379,242.492,0,0,0,
,0.592,0.93,1.5,-598.938,14.831,314.453,0,0,0,
,0.46,0.853,1.435,-335.45,-209.9,399.597,0,0,0,
,0.222,0.614,1.358,-27.283,-401.49,335.693,0,0,0,
,-0.132,0.45,1.264,110.412,-456.238,335.266,0,0,0,
,-0.356,0.408,1.099,353.576,-124.878,391.723,0,0,0,
,-0.257,0.299,0.818,641.723,200.195,171.692,0,0,0,
,-0.224,0.225,0.525,743.164,28.015,32.836,0,0,0,
,-0.471,0.284,0.476,962.951,-221.741,-64.454,0,0,0,
,-0.678,0.224,0.424,1230.346,-115.174,-235.047,0,0,0,
,-0.648,0.094,0.336,1408.508,44.616,-371.705,0,0,0,
,-0.242,-0.391,0.637,452.88,94.97,-367.92,0,0,0,
,-0.049,0.033,0.913,-295.777,-26.551,-173.218,0,0,0,
,0.049,0.376,0.934,-847.901,-121.766,-18.25,0,0,0,
,-0.045,0.77,0.878,-1207.154,-339.966,135.742,0,0,0,
,-0.107,0.964,1.045,-1184.021,-368.836,177.246,0,0,0,
,-0.129,0.862,1.169,-893.616,-136.841,282.47,0,0,0,
,-0.071,0.701,1.253,-778.382,96.74,373.169,0,0,0,
,0.082,0.491,1.435,-671.387,252.502,379.699,0,0,0,
,0.197,0.374,1.54,-629.212,286.682,347.107,0,0,0,
,0.223,0.475,1.666,-497.864,226.074,338.44,0,0,0,
,0.171,0.701,1.385,-174.866,244.751,402.649,0,0,0,
,0.076,0.577,1.205,393.31,21.362,163.879,0,0,0,
,-0.258,-0.007,1.049,755.554,-344.849,-24.964,0,0,0,
,-0.505,0.158,0.83,700.134,-206.177,126.526,0,0,0,
,-0.461,0.395,0.609,1005.859,-32.471,-126.404,0,0,0,
,-0.507,0.303,0.34,1128.357,-107.178,-225.953,0,0,0,
,-0.631,0.295,0.128,1145.813,-156.556,-224.488,0,0,0,
,-0.61,0.071,0.098,1040.405,-99.671,-304.566,0,0,0,
,-0.469,-0.251,0.164,763.916,-43.274,-310.975,0,0,0,
,-0.344,-0.218,0.399,181.701,-91.126,-191.59,0,0,0,
,-0.308,0.085,0.78,-478.76,-55.054,7.568,0,0,0,
,-0.174,0.456,1.133,-752.015,277.526,129.15,0,0,0,
,0.047,0.493,1.355,-599.183,577.392,43.09,0,0,0,
,0.278,0.295,1.555,-610.474,587.28,7.69,0,0,0,
,0.501,0.292,1.782,-808.106,293.274,88.378,0,0,0,
,0.53,0.523,1.851,-847.29,-98.206,262.268,0,0,0,
,0.346,0.791,1.731,-512.269,-385.01,387.024,0,0,0,
,0.054,0.734,1.536,28.198,-412.659,369.995,0,0,0,
,-0.124,0.286,1.366,414.856,-200.928,135.925,0,0,0,
,-0.263,0.006,1.073,344.604,-2.259,99.914,0,0,0,
,-0.44,-0.01,0.844,351.318,49.987,110.412,0,0,0,
,-0.552,0.037,0.651,484.13,205.017,-7.813,0,0,0,
,-0.539,0.039,0.414,586.12,245.605,-239.258,0,0,0,
,-0.569,0.145,0.309,679.321,96.069,-302.247,0,0,0,
,-0.631,0.308,0.285,812.744,57.983,-427.796,0,0,0,
,-0.58,0.222,0.239,879.699,59.753,-552.063,0,0,0,
,-0.416,0.09,0.285,817.199,-37.354,-568.97,0,0,0,
,-0.321,-0.067,0.471,682.739,-113.465,-454.041,0,0,0,
,-0.245,-0.122,0.722,348.632,-45.838,-284.607,0,0,0,
,-0.086,-0.03,1.037,-85.328,87.402,-84.107,0,0,0,
,0.062,0.157,1.263,-599.366,184.509,57.19,0,0,0,
,0.244,0.392,1.434,-919.617,196.838,224.182,0,0,0,
,0.352,0.522,1.445,-1014.405,59.265,343.872,0,0,0,
,0.35,0.435,1.447,-977.295,-253.663,410.095,0,0,0,
,0.152,0.312,1.434,-978.943,-492.31,439.758,0,0,0,
,-0.166,0.295,1.585,-853.943,-561.341,484.436,0,0,0,
,-0.455,0.345,1.577,-478.699,-81.727,471.74,0,0,0,
,-0.292,0.335,1.202,59.57,459.106,276.367,0,0,0,
,-0.147,-0.018,0.869,527.282,188.171,-54.017,0,0,0,
,-0.421,-0.184,0.809,679.87,-196.289,-89.905,0,0,0,
,-0.697,0.077,0.7,775.94,-83.252,-254.029,0,0,0,
,-0.65,0.202,0.507,887.451,135.681,-467.164,0,0,0,
,-0.553,0.157,0.32,980.407,265.014,-527.222,0,0,0,
,-0.42,0.081,0.285,758.056,234.497,-521.363,0,0,0,
,-0.263,0.048,0.557,307.861,131.408,-348.084,0,0,0,
,-0.155,0.072,0.779,-400.391,61.279,-78.186,0,0,0,
,-0.14,0.332,0.989,-1081.971,-81.91,115.234,0,0,0,
,-0.127,0.602,1.382,-1290.101,3.845,378.173,0,0,0,
,-0.004,0.527,1.494,-1263.001,317.688,384.765,0,0,0,
,0.254,0.364,1.57,-1406.373,389.526,426.635,0,0,0,
,0.476,0.613,1.609,-1288.575,180.908,535.156,0,0,0,
,0.273,0.618,1.385,-492.127,-69.336,464.721,0,0,0,
,-0.157,0.079,1.152,347.595,-17.029,149.658,0,0,0,
,-0.308,-0.244,0.998,565.612,246.46,-158.814,0,0,0,
,-0.234,-0.197,0.758,692.382,294.922,-267.762,0,0,0,
,-0.341,-0.107,0.749,641.906,-42.054,-442.261,0,0,0,
,-0.561,0.289,0.846,619.323,-107.422,-468.079,0,0,0,
,-0.522,0.442,0.493,636.963,37.475,-587.891,0,0,0,
,-0.408,0.334,0.327,578.247,-84.9,-622.681,0,0,0,
,-0.322,0.193,0.323,418.945,-101.99,-493.836,0,0,0,
,-0.183,0.024,0.451,86.669,-101.807,-352.845,0,0,0,
,-0.075,0.05,0.741,-404.786,-78.186,-151.062,0,0,0,
,0.044,0.273,1.077,-782.959,124.755,87.402,0,0,0,
,0.192,0.478,1.338,-1024.598,341.186,153.381,0,0,0,
,0.421,0.657,1.499,-1226.929,316.467,205.261,0,0,0,
,0.504,0.977,1.59,-1136.902,116.699,389.465,0,0,0,
,0.443,1.122,1.555,-497.132,-121.399,423.462,0,0,0,
,0.244,0.919,1.35,285.217,-35.645,371.338,0,0,0,
,0.063,0.465,1.042,932.556,23.864,214.965,0,0,0,
,-0.169,-0.139,0.924,1209.228,-137.33,-45.594,0,0,0,
,-0.47,-0.486,0.936,1203.979,-78.37,-17.518,0,0,0,
,-0.621,-0.416,0.75,989.868,196.594,-140.87,0,0,0,
,-0.634,0.054,0.52,935.302,208.007,-249.878,0,0,0,
,-0.7,0.053,0.376,1071.228,174.377,-442.627,0,0,0,
,-0.641,-0.194,0.267,935.119,135.192,-510.804,0,0,0,
,-0.483,-0.289,0.266,538.818,-17.945,-497.437,0,0,0,
,-0.363,-0.164,0.486,37.719,-114.502,-348.145,0,0,0,
,-0.218,0.126,0.938,-456.177,-141.724,-92.225,0,0,0,
,0.004,0.484,1.308,-670.044,131.591,112.854,0,0,0,
,0.23,0.576,1.428,-643.799,335.083,158.691,0,0,0,
,0.423,0.506,1.426,-691.407,276.123,274.719,0,0,0,
,0.55,0.324,1.567,-801.819,-50.721,320.434,0,0,0,
,0.472,0.208,1.735,-970.215,-392.09,365.173,0,0,0,
,0.306,0.498,1.728,-944.275,-613.709,583.313,0,0,0,
,-0.155,0.689,1.562,-310.547,-559.632,505.31,0,0,0,
,-0.441,0.319,1.304,558.96,-33.204,306.274,0,0,0,
,-0.414,-0.284,0.755,946.472,252.258,-57.007,0,0,0,
,-0.466,-0.518,0.536,755.798,-9.644,-134.522,0,0,0,
,-0.766,-0.054,0.394,696.533,-59.571,-184.266,0,0,0,
,-0.76,-0.052,0.261,826.294,210.632,-478.943,0,0,0,
,-0.524,-0.143,0.061,702.209,247.558,-506.226,0,0,0,
,-0.352,-0.062,0.271,342.712,5.371,-463.257,0,0,0,
,-0.251,0.087,0.564,-40.162,-69.214,-301.27,0,0,0,
,-0.139,0.298,0.876,-415.711,-57.373,-89.539,0,0,0,
,0.04,0.328,1.257,-489.258,98.877,31.799,0,0,0,
,0.204,0.17,1.481,-602.601,213.806,77.697,0,0,0,
,0.378,0.144,1.568,-1058.96,5.004,262.39,0,0,0,
,0.413,0.469,1.679,-1346.68,-393.982,483.703,0,0,0,
,0.201,0.91,1.685,-1058.96,-572.449,635.437,0,0,0,
,-0.07,0.878,1.495,-46.143,-407.105,641.479,0,0,0,
,-0.33,0.106,1.031,923.095,-194.947,336.731,0,0,0,
,-0.458,-0.558,0.803,1014.953,-40.955,98.693,0,0,0,
,-0.499,-0.573,0.654,737.976,-27.039,-48.462,0,0,0,
,-0.641,0.017,0.574,676.086,-144.593,-247.559,0,0,0,
,-0.756,0.143,0.526,954.04,50.659,-492.432,0,0,0,
,-0.589,-0.089,0.357,941.284,272.216,-598.084,0,0,0,
,-0.398,-0.18,0.361,584.838,155.883,-534.424,0,0,0,
,-0.354,-0.052,0.642,-13.428,26.489,-341.309,0,0,0,
,-0.24,0.311,0.954,-569.214,53.283,-37.598,0,0,0,
,-0.062,0.597,1.183,-825.501,168.579,183.227,0,0,0,
,0.098,0.496,1.299,-813.416,177.978,252.258,0,0,0,
,0.164,0.146,1.358,-971.802,62.439,307.067,0,0,0,
,0.141,-0.033,1.369,-1328.492,-142.395,350.891,0,0,0,
,-0.009,0.23,1.554,-1460.328,-372.803,425.781,0,0,0,
,-0.277,0.619,1.672,-929.993,-292.664,451.599,0,0,0,
,-0.334,0.554,1.397,254.821,135.62,259.826,0,0,0,
,-0.292,0.042,0.889,1045.349,194.58,-159.241,0,0,0,
,-0.469,-0.198,0.608,1061.035,-122.254,-289.917,0,0,0,
,-0.752,-0.048,0.568,925.842,-97.901,-399.842,0,0,0,
,-0.677,-0.089,0.452,905.761,327.819,-507.752,0,0,0,
,-0.428,-0.274,0.427,573.059,364.807,-506.47,0,0,0,
,-0.312,-0.071,0.658,-27.405,140.38,-322.144,0,0,0,
,-0.281,0.381,0.835,-461.304,15.686,-127.747,0,0,0,
,-0.189,0.701,0.879,-555.42,-12.085,66.65,0,0,0,
,-0.082,0.525,0.925,-318.848,-48.035,104.736,0,0,0,
,-0.067,-0.035,1.104,-400.696,-127.198,137.817,0,0,0,
,-0.047,-0.261,1.315,-1020.264,-72.327,193.42,0,0,0,
,0.026,0.112,1.455,-1663.514,1.648,276.855,0,0,0,
,0.091,0.818,1.539,-1582.52,-72.51,379.455,0,0,0,
,-0.002,1.205,1.511,-572.937,-84.839,416.198,0,0,0,
,-0.143,0.696,1.261,542.541,29.541,192.505,0,0,0,
,-0.291,0.105,1.07,897.033,98.938,-10.315,0,0,0,
,-0.419,-0.163,0.899,876.037,185.18,-59.021,0,0,0,
,-0.423,-0.153,0.762,790.405,236.511,-203.37,0,0,0,
,-0.485,0.008,0.571,852.417,121.46,-293.519,0,0,0,
,-0.637,0.043,0.473,891.113,62.011,-420.105,0,0,0,
,-0.632,-0.104,0.395,828.43,185.058,-427.857,0,0,0,
,-0.483,-0.135,0.416,563.781,152.282,-429.139,0,0,0,
,-0.33,-0.093,0.618,151.916,72.204,-331.421,0,0,0,
,-0.174,0.192,0.893,-231.507,12.695,-155.701,0,0,0,
,-0.056,0.499,1.077,-467.53,-14.771,4.394,0,0,0,
,0.053,0.43,1.181,-502.32,34.851,87.097,0,0,0,
,0.119,0.166,1.269,-728.577,18.066,224.304,0,0,0,
,0.155,0.144,1.455,-1178.711,-46.021,356.75,0,0,0,
,0.085,0.533,1.544,-1280.579,-4.395,483.093,0,0,0,
,-0.007,0.775,1.459,-738.648,175.476,454.284,0,0,0,
,-0.052,0.579,1.127,1.22,180.786,280.151,0,0,0,
,-0.279,0.106,0.891,559.57,-69.214,42.846,0,0,0,
,-0.555,-0.094,0.81,877.38,-17.64,-159.668,0,0,0,
,-0.57,-0.077,0.526,1027.954,132.507,-416.565,0,0,0,
,-0.579,0.061,0.429,1213.745,112.976,-551.392,0,0,0,
,-0.577,-0.104,0.382,1237.854,171.814,-629.883,0,0,0,
,-0.462,-0.319,0.388,950.927,159.423,-637.513,0,0,0,
,-0.29,-0.285,0.574,351.684,69.152,-523.987,0,0,0,
,-0.091,0.063,0.804,-335.938,4.028,-354.92,0,0,0,
,-0.001,0.418,0.929,-860.718,-107.239,-119.751,0,0,0,
,0.045,0.553,1.207,-1024.842,-160.157,84.045,0,0,0,
,0.031,0.346,1.405,-1005.555,-3.296,96.252,0,0,0,
,0.099,0.15,1.551,-1396.973,162.475,154.48,0,0,0,
,0.229,0.431,1.705,-1670.777,198.608,310.058,0,0,0,
,0.274,1.095,1.797,-1227.051,138.305,488.403,0,0,0,
,0.211,1.248,1.494,207.336,262.39,478.515,0,0,0,
,-0.028,0.195,1.032,1205.139,13,-18.189,0,0,0,
,-0.466,-0.352,0.889,1271.301,-140.809,27.832,0,0,0,
,-0.591,-0.332,0.544,1132.446,123.84,-142.273,0,0,0,
,-0.615,-0.23,0.338,1025.817,151.001,-388.001,0,0,0,
,-0.702,-0.137,0.125,958.313,181.213,-481.568,0,0,0,
,-0.604,-0.319,0.072,682.983,193.786,-622.01,0,0,0,
,-0.444,-0.282,0.305,161.438,86.181,-500.367,0,0,0,
,-0.303,0.03,0.681,-468.689,-14.222,-296.387,0,0,0,
,-0.147,0.509,1.105,-827.454,142.273,-6.653,0,0,0,
,0.057,0.705,1.227,-709.412,393.982,63.171,0,0,0,
,0.26,0.417,1.346,-630.31,427.002,47.424,0,0,0,
,0.441,0.169,1.566,-995.24,272.338,167.968,0,0,0,
,0.551,0.378,1.694,-1462.22,-63.965,372.375,0,0,0,
,0.492,0.903,1.607,-1373.475,-378.724,566.467,0,0,0,
,0.199,1.098,1.461,-633.484,-525.269,521.423,0,0,0,
,-0.269,0.579,1.243,331.97,-493.958,219.848,0,0,0,
,-0.561,0.112,1.079,758.361,-114.685,3.173,0,0,0,
,-0.533,-0.147,0.892,885.131,418.823,-74.097,0,0,0,
,-0.341,-0.231,0.64,809.692,392.578,-271.424,0,0,0,
,-0.458,-0.116,0.532,757.568,76.66,-363.77,0,0,0,
,-0.627,0.03,0.423,815.429,121.765,-477.295,0,0,0,
,-0.565,-0.031,0.321,720.825,280.578,-647.095,0,0,0,
,-0.143,0.148,0.856,-687.623,856.14,-394.104,0,0,0,
,0.129,0.401,0.958,-1019.471,1117.309,-209.351,0,0,0,
,0.418,0.604,0.999,-1189.27,1057.006,-122.071,0,0,0,
,0.649,0.692,1.131,-1260.315,731.567,-29.969,0,0,0,
,0.707,0.556,1.298,-1194.275,360.351,153.137,0,0,0,
,0.524,0.358,1.202,-1211.121,135.315,294.616,0,0,0,
,0.389,0.274,1.114,-1503.174,116.088,298.278,0,0,0,
,0.3,0.365,1.108,-1728.089,118.652,189.026,0,0,0,
,0.163,0.624,1.126,-1495.179,53.161,-6.653,0,0,0,
,-0.01,0.845,0.984,-747.803,135.315,-3.785,0,0,0,
,-0.026,0.696,0.853,80.017,301.025,-102.723,0,0,0,
,0.003,0.383,0.836,590.637,222.351,-316.956,0,0,0,
,-0.097,0.223,0.846,731.75,-55.42,-476.685,0,0,0,
,-0.293,0.522,0.942,789.367,-110.474,-413.697,0,0,0,
,-0.391,0.594,0.747,1285.339,-14.71,-385.498,0,0,0,
,-0.343,0.104,0.546,1443.542,49.072,-462.83,0,0,0,
,-0.313,-0.121,0.558,1037.109,-39.307,-499.146,0,0,0,
,-0.309,-0.155,0.474,383.545,9.521,-447.815,0,0,0,
,-0.259,0.43,0.543,-437.561,220.764,-212.525,0,0,0,
,-0.047,1.036,0.643,-709.9,507.873,39.245,0,0,0,
,0.29,1.157,0.744,-386.231,558.105,135.986,0,0,0,
,0.536,0.642,1.043,-193.665,490.417,97.106,0,0,0,
,0.682,0.097,1.434,-649.659,476.623,230.651,0,0,0,
,0.799,0.325,1.375,-1408.509,458.435,450.439,0,0,0,
,0.906,0.985,1.163,-1492.188,257.263,385.925,0,0,0,
,0.999,1.408,1.245,-844.483,116.882,283.02,0,0,0,
,0.879,1.266,1.153,376.587,-32.776,339.66,0,0,0,
,0.625,0.463,1.192,972.9,-300.904,26.611,0,0,0,
,0.31,-0.011,0.947,817.81,-528.992,-81.91,0,0,0,
,-0.116,-0.044,0.641,620.3,-690.796,-30.884,0,0,0,
,-0.461,0.088,0.569,587.036,-572.083,-105.957,0,0,0,
,-0.642,0.233,0.467,644.653,-322.327,-67.994,0,0,0,
,-0.66,0.226,0.253,746.338,-187.5,-77.332,0,0,0,
,-0.62,0.024,0.157,869.384,-193.116,-303.162,0,0,0,
,-0.372,-0.194,0.616,-107.422,51.879,-309.632,0,0,0,
,-0.117,0.196,0.847,-799.195,493.957,-161.56,0,0,0,
,0.243,0.718,1.124,-1131.714,810.058,-2.747,0,0,0,
,0.707,1.172,1.336,-1043.274,835.388,144.043,0,0,0,
,1.107,1.422,1.413,-665.039,492.675,239.441,0,0,0,
,1.222,1.253,1.38,-264.1,49.377,374.267,0,0,0,
,1.099,0.887,1.327,-134.705,-329.834,443.664,0,0,0,
,0.804,0.572,1.094,-242.92,-649.72,495.788,0,0,0,
,0.356,0.438,1,-284.363,-978.638,484.253,0,0,0,
,-0.248,0.434,0.761,-89.905,-1085.816,309.021,0,0,0,
,-0.712,0.27,0.573,537.719,-765.809,66.467,0,0,0,
,-0.778,0.012,0.412,1070.495,-123.291,-82.825,0,0,0,
,-0.551,-0.115,0.302,1114.563,182.373,-361.084,0,0,0,
,-0.391,-0.191,0.162,915.954,115.661,-504.578,0,0,0,
,-0.288,-0.212,0.46,572.998,-28.931,-612.488,0,0,0,
,-0.142,0.227,0.683,-96.863,143.798,-369.751,0,0,0,
,0.12,0.971,0.941,-571.778,395.08,2.624,0,0,0,
,0.416,1.242,1.096,-402.161,489.99,155.761,0,0,0,
,0.608,0.664,1.149,-133.912,350.463,124.084,0,0,0,
,0.634,0.165,1.085,-816.773,226.806,317.321,0,0,0,
,0.717,0.531,1.385,-1561.341,-55.42,501.22,0,0,0,
,0.68,1.257,1.477,-1244.385,-268.128,492.492,0,0,0,
,0.312,1.313,1.239,-23.377,-239.441,462.219,0,0,0,
,0.043,0.502,1.112,1093.567,-300.293,102.111,0,0,0,
,-0.249,-0.196,0.768,1266.113,-437.256,-272.583,0,0,0,
,-0.553,-0.227,0.622,911.865,-477.295,-225.098,0,0,0,
,-0.676,0.228,0.529,759.643,-144.165,-155.518,0,0,0,
,-0.532,0.178,0.196,864.929,190.796,-495.911,0,0,0,
,-0.318,-0.142,0.126,760.131,43.09,-593.262,0,0,0,
,-0.23,-0.189,0.331,86.669,-107.85,-483.643,0,0,0,
,-0.128,0.248,0.633,-713.562,103.149,-149.414,0,0,0,
,0.064,0.692,0.875,-973.694,471.801,58.227,0,0,0,
,0.377,0.853,1.287,-948.487,624.145,46.264,0,0,0,
,0.702,0.956,1.725,-903.321,527.832,227.661,0,0,0,
,0.948,1.204,1.805,-694.214,222.717,447.387,0,0,0,
,0.999,1.417,1.448,-184.082,-153.992,500.915,0,0,0,
,0.714,1.204,1.137,543.762,-563.599,561.096,0,0,0,
,0.157,0.056,0.703,1327.331,-759.827,84.289,0,0,0,
,-0.368,-0.499,0.62,669.922,-1031.983,-195.74,0,0,0,
,-0.903,-0.171,0.593,424.072,-508.484,101.013,0,0,0,
,-0.721,0.139,0.472,641.357,396.545,-169.556,0,0,0,
,-0.357,0.081,0.154,638.305,492.797,-413.941,0,0,0,
,-0.213,0.089,0.231,458.068,84.289,-408.997,0,0,0,
,-0.18,-0.026,0.56,257.446,-48.096,-416.626,0,0,0,
,-0.081,-0.001,0.956,-314.881,159.24,-235.962,0,0,0,
,0.106,0.357,1.327,-920.227,456.543,51.757,0,0,0,
,0.422,0.851,1.556,-1183.777,581.115,200.866,0,0,0,
,0.75,1.279,1.72,-1132.935,377.746,300.781,0,0,0,
,0.905,1.351,1.598,-615.235,7.812,414.489,0,0,0,
,0.811,1.051,1.422,-45.777,-371.216,545.044,0,0,0,
,-0.324,-0.149,0.768,590.576,-941.224,24.292,0,0,0,
,-0.799,-0.244,0.563,769.409,-367.981,-83.68,0,0,0,
,-0.594,0.023,0.29,838.745,272.277,-295.533,0,0,0,
,-0.413,0.217,-0.046,998.108,143.005,-481.385,0,0,0,
,-0.46,-0.036,-0.088,1350.158,-147.828,-702.454,0,0,0,
,-0.452,-0.392,0.35,930.297,-284.058,-732.117,0,0,0,
,-0.334,-0.043,0.728,-0.367,-34.302,-303.894,0,0,0,
,0.018,0.72,1.136,-900.696,337.219,120.483,0,0,0,
,0.42,1.359,1.412,-1008.79,446.106,367.126,0,0,0,
,0.651,0.95,1.723,-400.33,220.337,138.916,0,0,0,
,0.69,0.084,1.841,-558.716,-57.679,155.212,0,0,0,
,0.686,0.322,1.609,-1158.143,-321.289,579.223,0,0,0,
,0.428,0.999,1.303,-806.58,-610.962,671.997,0,0,0,
,-0.159,0.77,0.974,229.431,-705.445,252.014,0,0,0,
,-0.63,-0.015,0.748,1137.268,-250.733,-136.17,0,0,0,
,-0.574,-0.421,0.588,1228.149,280.883,-309.021,0,0,0,
,-0.486,-0.279,0.404,799.743,249.389,-315.979,0,0,0,
,-0.503,0.027,0.377,602.844,102.783,-416.932,0,0,0,
,-0.452,0.026,0.267,445.373,111.633,-523.133,0,0,0,
,-0.316,0.082,0.301,-41.504,-3.663,-435.547,0,0,0,
,-0.026,0.763,0.946,-964.783,180.481,60.424,0,0,0,
,0.164,0.695,1.487,-901.429,327.087,28.625,0,0,0,
,0.378,0.271,1.957,-1001.77,306.762,6.897,0,0,0,
,0.55,0.215,1.854,-1519.349,286.193,298.095,0,0,0,
,0.731,1.098,1.535,-1611.207,114.38,617.065,0,0,0,
,0.61,1.603,1.149,-672.181,-175.232,643.249,0,0,0,
,-0.702,0.048,0.773,1332.885,-408.57,-82.093,0,0,0,
,-0.86,-0.539,0.521,1457.092,213.684,-379.7,0,0,0,
,-0.573,-0.48,0.394,888.61,201.355,-468.262,0,0,0,
,-0.505,0.083,0.257,386.169,-55.664,-437.012,0,0,0,
,-0.46,0.375,0.11,113.342,-317.627,-624.573,0,0,0,
,-0.384,0.502,0.191,24.353,-338.013,-496.338,0,0,0,
,-0.227,0.488,0.51,125.976,-32.166,-401.429,0,0,0,
,-0.061,0.403,1.056,36.377,328.003,-269.776,0,0,0,
,0.22,0.322,1.412,-299.012,649.231,-147.461,0,0,0,
,0.532,0.52,1.489,-802.735,851.318,120.3,0,0,0,
,0.938,0.931,1.562,-1106.568,696.533,286.193,0,0,0,
,1.158,1.135,1.563,-845.643,71.533,490.722,0,0,0,
,0.888,0.759,1.432,-217.469,-677.308,599.243,0,0,0,
,0.176,0.349,1.038,-141.968,-981.446,553.039,0,0,0,
,-0.787,0.392,1.037,-6.47,-738.953,610.778,0,0,0,
,-0.828,0.174,0.913,877.746,626.892,152.099,0,0,0,
,-0.27,-0.384,0.395,941.406,419.311,-392.579,0,0,0,
,-0.497,-0.132,0.634,834.167,-336.548,-240.845,0,0,0,
,-0.755,0.299,0.657,817.321,-160.523,-477.539,0,0,0,
,-0.55,0.246,0.359,808.349,-40.284,-716.919,0,0,0,
,-0.355,0.063,0.252,763.549,-32.044,-713.013,0,0,0,
,-0.178,-0.2,0.508,572.204,-15.137,-769.776,0,0,0,
,-0.026,-0.16,0.802,-123.841,312.133,-460.694,0,0,0,
,0.253,0.245,1.296,-949.83,622.924,-194.397,0,0,0,
,0.562,0.81,1.588,-1418.396,587.036,-32.166,0,0,0,
,0.766,1.16,1.617,-1256.47,216.064,171.203,0,0,0,
,0.672,0.996,1.498,-974.488,-177.674,317.26,0,0,0,
,0.411,0.68,1.296,-750.123,-333.497,459.228,0,0,0,
,0.106,0.518,1.07,-592.835,-285.279,475.341,0,0,0,
,-0.282,0.383,0.994,-192.139,-146.302,434.021,0,0,0,
,-0.51,0.187,0.832,459.716,265.075,132.263,0,0,0,
,-0.291,0.044,0.546,799.621,4.15,-332.398,0,0,0,
,-0.433,0.415,0.424,513.61,-358.155,-420.411,0,0,0,
,-0.457,0.643,0.289,453.186,-421.387,-482.789,0,0,0,
,-0.317,0.542,0.17,681.762,-183.96,-437.012,0,0,0,
,-0.201,0.173,0.215,861.145,1.586,-465.943,0,0,0,
,-0.04,0.013,0.679,460.693,289.245,-274.109,0,0,0,
,0.169,0.166,1.202,-442.627,672.241,10.986,0,0,0,
,0.657,0.39,1.791,-1320.191,812.988,202.148,0,0,0,
,0.635,1.126,0.863,-1908.936,833.435,602.539,0,0,0,
,0.913,1.339,1.249,-1136.17,235.656,583.74,0,0,0,
,0.679,0.577,1.368,-408.631,-78.492,377.624,0,0,0,
,0.459,0.123,1.591,-503.724,-251.587,364.807,0,0,0,
,0.186,0.451,1.37,-538.392,-252.991,399.353,0,0,0,
,-0.151,0.67,1.163,2.807,-179.322,288.879,0,0,0,
,-0.291,0.381,1.048,779.724,154.663,164.062,0,0,0,
,-0.248,-0.092,0.838,1036.132,-19.165,-258.179,0,0,0,
,-0.481,-0.198,0.711,732.422,-357.117,-254.944,0,0,0,
,-0.685,0.102,0.629,514.465,-220.032,-251.404,0,0,0,
,-0.481,0.376,0.376,370.971,43.273,-383.118,0,0,0,
,-0.261,0.686,0.1,291.87,-1.343,-341.065,0,0,0,
,-0.153,0.714,0.252,514.953,-122.193,-370.057,0,0,0,
,-0.089,0.422,0.403,601.196,9.765,-260.254,0,0,0,
,0.046,0.273,0.74,314.636,207.458,-41.016,0,0,0,
,0.213,0.275,1.045,-214.966,419.555,158.447,0,0,0,
,0.39,0.467,1.176,-669.434,525.756,359.741,0,0,0,
,0.534,0.624,1.28,-874.268,417.358,469.665,0,0,0,
,0.603,0.669,1.394,-970.398,103.515,515.93,0,0,0,
,0.514,0.635,1.587,-850.159,-333.313,505.981,0,0,0,
,0.265,0.554,1.657,-555.542,-565.857,534.912,0,0,0,
,-0.085,0.614,1.508,-276.673,-529.358,565.124,0,0,0,
,-0.303,0.616,1.223,227.6,-208.008,489.929,0,0,0,
,-0.284,0.378,0.848,718.689,144.958,129.211,0,0,0,
,-0.309,0.27,0.536,898.742,-12.757,-53.589,0,0,0,
,-0.545,0.416,0.458,1142.822,-164.185,-106.873,0,0,0,
,-0.659,0.441,0.425,1390.686,-4.151,-286.194,0,0,0,
,-0.551,0.371,0.329,1392.028,100.83,-429.932,0,0,0,
,-0.501,0.066,0.123,1254.516,57.617,-633.24,0,0,0,
,-0.344,-0.309,0.236,1154.113,63.781,-679.993,0,0,0,
,-0.241,-0.615,0.47,726.745,-1.099,-502.198,0,0,0,
,-0.134,-0.526,0.976,-85.144,51.513,-233.033,0,0,0,
,0.018,0.019,1.343,-1040.04,397.522,35.034,0,0,0,
,0.29,0.747,1.502,-1403.199,640.319,111.877,0,0,0,
,0.649,1.21,1.506,-1151.917,559.875,201.477,0,0,0,
,0.804,0.936,1.568,-519.959,50.231,189.148,0,0,0,
,0.65,0.191,1.743,-328.98,-597.168,174.194,0,0,0,
,0.313,-0.114,1.563,-715.943,-766.358,358.276,0,0,0,
,0.01,0.25,1.296,-1067.444,-601.868,503.845,0,0,0,
,-0.214,0.6,1.14,-659.913,-269.959,385.925,0,0,0,
,-0.374,0.469,0.883,179.443,47.18,99.243,0,0,0,
,-0.454,0.254,0.61,674.865,244.567,-59.266,0,0,0,
,-0.407,0.13,0.477,949.218,277.404,-224.732,0,0,0,
,-0.363,0.137,0.542,927.551,67.932,-356.263,0,0,0,
,-0.49,0.458,0.617,947.937,48.156,-387.024,0,0,0,
,-0.42,0.413,0.323,1032.653,186.157,-584.107,0,0,0,
,-0.265,0.029,0.29,930.236,50.781,-675.232,0,0,0,
,-0.19,-0.117,0.442,586.853,-59.144,-465.699,0,0,0,
,-0.196,-0.197,0.739,148.376,-150.818,-367.859,0,0,0,
,-0.167,-0.062,1.103,-327.637,7.324,-155.945,0,0,0,
,0.062,0.428,1.384,-753.296,291.137,28.991,0,0,0,
,0.306,0.821,1.398,-924.744,379.028,150.817,0,0,0,
,0.47,0.712,1.38,-590.027,157.531,111.145,0,0,0,
,0.462,0.108,1.622,-471.558,-159.241,79.773,0,0,0,
,0.319,-0.054,1.634,-951.661,-258.728,422.79,0,0,0,
,0.239,0.461,1.484,-1232.972,-16.785,597.351,0,0,0,
,0.314,0.674,1.303,-943.726,274.353,338.989,0,0,0,
,0.237,0.505,0.925,-398.499,108.459,282.104,0,0,0,
,-0.247,0.323,0.756,112.06,-66.468,197.876,0,0,0,
,-0.419,0.38,0.6,460.693,354.309,-23.194,0,0,0,
,-0.155,0.396,0.341,735.473,351.135,-307.19,0,0,0,
,-0.339,0.392,0.484,969.055,80.322,-373.719,0,0,0,
,-0.342,0.201,0.445,969.787,96.435,-541.565,0,0,0,
,-0.253,-0.065,0.252,804.87,-43.519,-498.414,0,0,0,
,-0.156,-0.135,0.379,440.49,-171.204,-345.52,0,0,0,
,-0.04,-0.004,0.538,-85.206,-177.002,-179.017,0,0,0,
,0.052,0.274,0.76,-627.198,-149.72,32.714,0,0,0,
,0.183,0.523,1.212,-897.644,-63.66,231.933,0,0,0,
,0.246,0.603,1.48,-846.375,108.886,272.888,0,0,0,
,0.312,0.433,1.769,-893.982,68.115,249.755,0,0,0,
,0.325,0.438,1.817,-1026.307,22.766,317.871,0,0,0,
,0.391,0.909,1.966,-941.956,55.358,541.687,0,0,0,
,0.365,1.146,1.32,9.643,211.242,604.37,0,0,0,
,0.037,0.183,0.766,801.88,-365.845,-99.976,0,0,0,
,-0.555,-0.238,0.722,901.916,-470.398,-20.691,0,0,0,
,-0.683,0.082,0.484,969.238,120.849,-223.389,0,0,0,
,-0.401,0.134,0.097,953.247,264.221,-536.56,0,0,0,
,-0.342,0.096,0.179,903.93,26.306,-514.71,0,0,0,
,-0.376,-0.032,0.276,575.256,-27.1,-533.936,0,0,0,
,-0.256,0.089,0.462,136.84,-9.278,-384.888,0,0,0,
,-0.117,0.305,0.608,-314.881,-23.865,-187.134,0,0,0,
,-0.011,0.42,0.83,-559.388,13.977,-69.153,0,0,0,
,0.026,0.324,1.004,-643.555,134.033,-65.674,0,0,0,
,0.133,0.107,1.245,-936.402,290.893,-88.746,0,0,0,
,0.246,0.092,1.542,-1533.631,295.105,-77.088,0,0,0,
,0.348,0.528,1.912,-1918.519,120.239,48.523,0,0,0,
,0.365,1.099,1.821,-1624.451,21.24,193.481,0,0,0,
,0.413,1.333,1.619,-956.36,33.874,359.619,0,0,0,
,0.329,1.097,1.227,-30.213,-40.772,393.859,0,0,0,
,0.044,0.6,1.028,380.859,-375.611,166.748,0,0,0,
,-0.446,0.347,0.868,677.856,-159.913,223.816,0,0,0,
,-0.517,0.25,0.536,943.054,333.13,-73.487,0,0,0,
,-0.254,0.211,0.282,864.257,179.809,-336.731,0,0,0,
,-0.427,0.557,0.394,925.232,-214.6,-286.072,0,0,0,
,-0.476,0.576,0.327,973.816,-143.555,-513.489,0,0,0,
,-0.331,0.317,-0.047,989.746,-112.854,-551.392,0,0,0,
,-0.194,0.043,0.148,948.669,-124.39,-528.138,0,0,0,
,-0.066,-0.23,0.409,636.352,62.866,-361.39,0,0,0,
,0.104,-0.085,0.792,-272.522,264.587,37.353,0,0,0,
,0.273,0.244,1.094,-1149.353,523.071,257.08,0,0,0,
,0.51,0.628,1.371,-1535.157,503.662,317.443,0,0,0,
,0.66,0.89,1.569,-1635.682,145.996,378.357,0,0,0,
,0.549,1.143,1.79,-1187.012,-296.631,528.93,0,0,0,
,0.285,1.286,1.817,-355.225,-337.22,646.728,0,0,0,
,0.087,0.879,1.48,770.996,-83.924,464.904,0,0,0,
,-0.078,0.206,1.083,1177.978,-19.165,187.744,0,0,0,
,-0.349,0.052,0.807,1360.717,67.138,209.472,0,0,0,
,-0.418,0.29,0.554,1450.927,331.726,-16.724,0,0,0,
,-0.378,0.126,0.073,1617.309,454.528,-376.954,0,0,0,
,-0.425,-0.489,-0.028,1494.018,310.363,-549.439,0,0,0,
,-0.409,-0.835,0.076,858.276,216.674,-571.351,0,0,0,
,-0.242,-0.324,0.464,-41.81,54.321,-481.385,0,0,0,
,-0.059,0.677,0.772,-578.431,-54.261,-177.613,0,0,0,
,0.192,1.161,0.887,-531.678,3.234,-14.039,0,0,0,
,0.224,0.684,1.13,201.477,-120.423,13.244,0,0,0,
,0.189,0.005,1.426,24.475,-111.329,137.207,0,0,0,
,0.215,-0.26,1.564,-858.521,140.319,399.719,0,0,0,
,0.418,0.029,1.668,-1621.705,241.272,478.759,0,0,0,
,0.684,0.767,1.803,-1721.436,64.697,579.651,0,0,0,
,0.675,0.998,1.632,-602.051,-404.786,551.147,0,0,0,
,0.231,0.386,1.278,199.218,-884.156,281.189,0,0,0,
,-0.527,0.207,0.951,340.21,-780.579,480.224,0,0,0,
,-0.758,0.058,0.844,746.521,39.672,81.604,0,0,0,
,-0.419,-0.215,0.468,638.733,404.846,-306.702,0,0,0,
,-0.387,0.15,0.417,559.265,10.62,-256.775,0,0,0,
,-0.579,0.38,0.477,698.303,5.798,-461.853,0,0,0,
,-0.45,0.138,0.409,809.204,241.76,-597.168,0,0,0,
,-0.24,-0.081,0.482,522.216,171.325,-524.476,0,0,0,
,-0.098,-0.063,0.693,-57.435,60.363,-313.05,0,0,0,
,0.051,0.268,0.892,-640.32,88.256,-57.496,0,0,0,
,0.188,0.625,1.114,-1055.115,145.446,121.032,0,0,0,
,0.318,0.712,1.298,-1009.949,171.875,179.87,0,0,0,
,0.408,0.445,1.467,-1089.356,17.089,119.14,0,0,0,
,0.399,0.392,1.668,-1264.832,-294.983,262.329,0,0,0,
,0.223,0.742,1.607,-1112.061,-417.359,481.323,0,0,0,
,-0.059,1.029,1.424,-245.179,-68.604,508.667,0,0,0,
,-0.087,0.599,0.958,719.787,283.874,98.938,0,0,0,
,-0.221,-0.003,0.767,1063.598,-83.13,-203.736,0,0,0,
,-0.651,0.06,0.658,1168.09,-52.735,-130.494,0,0,0,
,-0.611,0.146,0.454,1268.188,316.955,-513.306,0,0,0,
,-0.494,-0.127,0.13,1191.284,299.804,-638.916,0,0,0,
,-0.431,-0.196,0.285,823.608,196.777,-692.81,0,0,0,
,-0.262,-0.072,0.464,209.289,158.874,-559.754,0,0,0,
,-0.051,0.322,0.662,-362.427,51.208,-371.277,0,0,0,
,0.087,0.611,0.797,-699.769,32.898,-148.316,0,0,0,
,0.21,0.693,1.046,-626.038,57.434,11.169,0,0,0,
,0.27,0.399,1.308,-484.253,181.335,41.381,0,0,0,
,0.418,0.147,1.546,-981.202,242.675,160.644,0,0,0,
,0.605,0.326,1.68,-1400.696,95.52,344.665,0,0,0,
,0.719,0.87,1.592,-1414.49,-219.849,521.118,0,0,0,
,0.487,1.158,1.393,-640.931,-520.691,688.72,0,0,0,
,-0.036,0.726,1.176,341.43,-636.597,424.804,0,0,0,
,-0.429,0.329,0.939,890.686,-159.119,242.065,0,0,0,
,-0.396,0.118,0.443,1077.575,252.136,-87.403,0,0,0,
,-0.299,0.205,0.253,1137.695,-7.874,-234.375,0,0,0,
,-0.514,0.105,0.229,1241.15,-123.963,-391.358,0,0,0,
,-0.511,-0.27,0.151,1124.817,25.207,-547.73,0,0,0,
,-0.34,-0.475,0.332,536.621,109.68,-477.478,0,0,0,
,-0.158,-0.249,0.59,-194.825,197.692,-223.816,0,0,0,
,0.055,0.198,0.927,-959.168,317.627,4.272,0,0,0,
,0.253,0.791,1.297,-1267.151,421.569,261.779,0,0,0,
,0.396,0.914,1.503,-874.817,301.391,251.159,0,0,0,
,0.453,0.413,1.768,-817.078,52.124,246.154,0,0,0,
,0.452,0.397,1.795,-1062.195,-167.969,505.859,0,0,0,
,0.425,0.842,1.685,-887.696,-265.564,729.004,0,0,0,
,0.169,0.761,1.28,9.521,-360.84,595.337,0,0,0,
,-0.258,0.235,1.013,710.266,-428.223,246.032,0,0,0,
,-0.542,-0.177,0.731,934.082,-51.331,34.79,0,0,0,
,-0.51,-0.15,0.513,836.609,169.433,-221.497,0,0,0,
,-0.443,0.362,0.429,943.603,117.431,-360.962,0,0,0,
,-0.443,0.418,0.426,1201.599,141.967,-563.172,0,0,0,
,-0.405,0.139,0.436,1317.993,121.826,-631.226,0,0,0,
,-0.358,-0.198,0.602,1126.22,142.456,-553.284,0,0,0,
,-0.271,-0.302,0.827,461.914,230.957,-349.06,0,0,0,
,-0.058,0.017,0.994,-378.907,287.414,-84.595,0,0,0,
,0.193,0.694,1.147,-1053.162,159.973,167.724,0,0,0,
,0.356,1.02,1.081,-821.106,58.837,282.104,0,0,0,
,0.294,0.173,1.133,-264.771,-205.079,61.035,0,0,0,
,0.174,-0.416,1.379,-811.524,-467.347,160.034,0,0,0,
,-0.012,0.011,1.527,-1608.399,-449.463,475.586,0,0,0,
,-0.088,1.086,1.653,-1401.49,-107.361,671.63,0,0,0,
,0.086,1.209,1.458,146.24,418.213,353.576,0,0,0,
,0.046,0.371,1.031,903.198,238.769,66.772,0,0,0,
,-0.234,-0.125,0.89,937.805,-76.111,6.286,0,0,0,
,-0.481,-0.058,0.754,766.418,-134.339,-232.544,0,0,0,
,-0.575,0.131,0.617,861.694,124.694,-440.735,0,0,0,
,-0.457,0.093,0.295,936.767,308.044,-538.758,0,0,0,
,-0.358,0.032,0.234,766.296,166.687,-640.32,0,0,0,
,-0.298,-0.035,0.292,492.92,4.15,-556.031,0,0,0,
,-0.171,0.04,0.482,94.36,-86.609,-457.703,0,0,0,
,-0.038,0.112,0.663,-348.633,-135.987,-328.431,0,0,0,
,0.062,0.205,0.79,-781.189,-107.3,-146.241,0,0,0,
,0.123,0.227,1.178,-1129.944,35.827,22.949,0,0,0,
,0.217,0.244,1.444,-1469.056,212.097,39.611,0,0,0,
,0.375,0.428,1.608,-1818.238,207.702,162.048,0,0,0,
,0.475,0.769,1.572,-1809.327,30.7,326.965,0,0,0,
,0.449,1.145,1.473,-1243.287,-144.776,497.192,0,0,0,
,0.219,1.133,1.297,-203.248,-198.609,523.498,0,0,0,
,-0.133,0.602,1.207,534.118,-253.663,271.301,0,0,0,
,-0.424,0.24,1.208,946.655,15.014,227.966,0,0,0,
,-0.432,-0.068,0.977,1117.187,464.965,4.028,0,0,0,
,-0.247,0.006,0.664,886.108,276.245,-162.842,0,0,0,
,-0.399,0.456,0.602,921.753,-123.414,-270.569,0,0,0,
,-0.597,0.438,0.453,1046.264,-60.486,-472.168,0,0,0,
,-0.453,0.2,0.177,1000.671,105.285,-605.53,0,0,0,
,-0.212,-0.217,0.221,708.435,17.028,-567.505,0,0,0,
,-0.106,-0.322,0.417,121.276,-56.275,-400.94,0,0,0,
,-0.023,-0.156,0.7,-605.957,-39.246,-188.355,0,0,0,
,0.086,0.296,0.955,-1250.428,62.683,79.223,0,0,0,
,0.224,0.571,1.032,-1609.742,242.309,199.463,0,0,0,
,0.39,0.67,1.247,-1704.529,191.894,218.505,0,0,0,
,0.459,0.623,1.508,-1760.56,-51.087,307.556,0,0,0,
,0.291,0.939,1.581,-1571.29,-310.181,539.001,0,0,0,
,-0.14,1.368,1.73,-612.549,-177.124,688.293,0,0,0,
,0.194,1.569,1.833,1213.867,670.837,346.496,0,0,0,
,-0.13,-0.549,0.14,1997.253,403.991,-469.056,0,0,0,
,-0.298,-0.721,0.884,628.54,-727.051,-33.326,0,0,0,
,-0.798,1.175,0.922,665.344,-301.514,-5.249,0,0,0,
,-0.486,0.583,0.153,1414.306,430.114,-570.252,0,0,0,
,-0.375,0.089,0.129,1266.113,15.686,-386.902,0,0,0,
,-0.429,-0.123,0.368,933.899,123.657,-453.614,0,0,0,
,-0.155,-0.338,0.488,364.318,266.662,-346.131,0,0,0,
,0.095,-0.083,0.854,-396.424,93.627,-143.311,0,0,0,
,0.178,0.524,1.041,-999.451,-88.257,135.192,0,0,0,
,0.228,0.974,1.054,-1052.674,-104.615,262.085,0,0,0,
,0.213,0.646,1.001,-627.991,-76.966,198.669,0,0,0,
,0.206,0.024,1.091,-734.681,-174.073,109.13,0,0,0,
,0.124,-0.114,1.351,-1253.418,-331.971,176.269,0,0,0,
,-0.194,0.471,1.449,-1458.802,-346.558,488.22,0,0,0,
,-0.411,1.083,1.76,-422.12,456.787,442.26,0,0,0,
,0.213,1.017,1.135,837.28,1234.68,-1.343,0,0,0,
,0.359,-0.058,0.548,1084.35,-73.67,-325.196,0,0,0,
,-0.698,-0.285,1.239,410.949,-1157.105,-12.757,0,0,0,
,-0.999,0.966,1.172,776.184,107.422,-159.424,0,0,0,
,-0.29,0.211,0.306,1100.769,627.624,-604.737,0,0,0,
,-0.243,0.127,0.202,948.547,-136.292,-374.939,0,0,0,
,-0.508,0.31,0.357,853.576,-171.998,-512.085,0,0,0,
,-0.363,-0.089,0.295,669.738,0.61,-483.033,0,0,0,
,-0.022,0.374,1.104,-992.554,39.184,34.118,0,0,0,
,0.135,0.687,1.291,-1202.332,173.523,138.977,0,0,0,
,0.32,0.763,1.357,-1042.664,234.68,170.044,0,0,0,
,0.471,0.414,1.496,-819.581,117.065,167.846,0,0,0,
,0.505,0.325,1.474,-892.212,-157.349,275.695,0,0,0,
,0.007,0.754,1.359,-426.758,-307.068,467.346,0,0,0,
,-0.221,0.789,1.272,513.122,256.897,356.628,0,0,0,
,-0.105,0.295,0.894,949.218,492.614,-21.973,0,0,0,
,-0.126,0.039,0.715,943.359,-21.912,-44.129,0,0,0,
,-0.523,0.339,0.8,985.595,-209.229,-165.833,0,0,0,
,-0.618,0.245,0.523,1101.501,74.646,-356.934,0,0,0,
,-0.523,0.119,0.3,1091.369,158.63,-474.183,0,0,0,
,-0.396,-0.105,0.249,815.551,144.958,-441.895,0,0,0,
,-0.224,-0.13,0.385,336.853,47.607,-358.216,0,0,0,
,-0.061,0.041,0.642,-228.15,-59.632,-229.004,0,0,0,
,0.051,0.307,0.807,-668.519,-131.104,-25.391,0,0,0,
,0.092,0.356,1.005,-1011.231,-161.56,130.31,0,0,0,
,0.273,0.335,1.608,-1939.942,75.988,253.173,0,0,0,
,0.359,0.813,1.57,-1841.614,83.496,398.193,0,0,0,
,0.334,1.541,1.615,-782.593,18.188,565.918,0,0,0,
,0.267,1.315,1.198,1112.609,344.421,198.059,0,0,0,
,-0.256,-0.474,0.515,1656.067,-107.056,-361.817,0,0,0,
,-0.589,-0.548,0.855,498.23,-419.617,-23.255,0,0,0,
,-0.617,0.689,0.81,458.13,62.805,-128.724,0,0,0,
,-0.335,0.278,0.369,754.76,239.441,-441.224,0,0,0,
,-0.388,0.19,0.398,507.934,-176.026,-242.066,0,0,0,
,-0.459,0.424,0.439,268.188,-248.352,-277.344,0,0,0,
,-0.446,0.323,0.209,74.096,-304.383,-190.613,0,0,0,
,-0.331,0.298,0.341,-127.137,-340.882,-75.684,0,0,0,
,-0.173,0.267,0.633,-610.108,-14.222,-15.198,0,0,0,
,-0.063,0.356,1.095,-879.212,337.707,6.286,0,0,0,
,0.2,0.487,1.564,-1157.898,609.314,-51.697,0,0,0,
,0.534,0.804,1.904,-1154.664,611.694,80.017,0,0,0,
,0.816,1.508,2.081,-697.327,199.524,354.736,0,0,0,
,0.696,1.774,1.696,609.741,-190.43,462.829,0,0,0,
,-0.199,0.08,0.987,1324.89,-612.366,141.723,0,0,0,
,-0.645,-0.323,1.252,698.425,-479.493,225.952,0,0,0,
,-0.598,0.409,0.731,601.867,465.332,120.788,0,0,0,
,-0.246,0.292,0.131,871.093,373.047,-198.914,0,0,0,
,-0.554,0.183,0.358,956.176,-105.652,-187.684,0,0,0,
,-0.631,0.428,0.472,1019.165,76.049,-315.308,0,0,0,
,-0.507,0.109,0.234,1000,-62.5,-360.047,0,0,0,
,-0.359,-0.182,0.337,854.248,51.635,-330.018,0,0,0,
,-0.103,-0.187,0.539,394.165,88.867,-215.882,0,0,0,
,0.074,-0.017,0.926,-197.327,58.776,-86.365,0,0,0,
,0.162,0.289,1.258,-730.713,93.078,141.174,0,0,0,
,0.289,0.477,1.479,-895.203,162.17,248.962,0,0,0,
,0.423,0.273,1.775,-1120.667,-70.313,389.404,0,0,0,
,0.412,0.598,1.752,-1174.561,-208.252,532.226,0,0,0,
,0.239,0.712,1.579,-558.777,-254.822,523.193,0,0,0,
,-0.133,0.29,1.427,291.809,-283.448,301.391,0,0,0,
,-0.51,-0.108,1.154,749.817,95.947,224.548,0,0,0,
,-0.456,-0.23,0.677,751.403,410.583,-199.891,0,0,0,
,-0.36,0.283,0.385,887.268,57.373,-318.116,0,0,0,
,-0.75,0.184,0.412,1097.717,-75.989,-489.93,0,0,0,
,-0.677,0.012,0.115,1108.642,194.763,-625.489,0,0,0,
,-0.466,-0.502,0.033,721.069,133.789,-573.182,0,0,0,
,-0.227,-0.365,0.174,-86.06,36.254,-369.019,0,0,0,
,-0.036,0.107,0.471,-898.377,-74.341,-268.921,0,0,0,
,0.128,0.536,0.68,-1522.4,-42.237,-39.856,0,0,0,
,0.243,0.561,1.295,-1547.608,69.03,-50.477,0,0,0,
,0.303,0.209,1.986,-1646.302,36.926,-133.484,0,0,0,
,0.376,0.839,2.233,-1999.695,49.56,264.465,0,0,0,
,0.606,1.818,1.894,-1330.384,152.526,574.646,0,0,0,
,0.34,1.507,1.129,124.206,-188.111,717.834,0,0,0,
,0.017,0.584,1.353,541.626,-726.502,134.338,0,0,0,
,-0.565,0.265,1.078,823.303,-224.549,458.557,0,0,0,
,-0.504,-0.199,0.752,856.445,515.93,-162.781,0,0,0,
,-0.242,-0.561,0.478,509.277,497.192,-136.963,0,0,0,
,-0.408,0.132,0.545,163.94,-28.809,-202.698,0,0,0,
,-0.617,0.519,0.598,371.826,11.291,-382.386,0,0,0,
,-0.411,0.536,0.439,505.066,1.342,-491.517,0,0,0,
,-0.401,0.677,0.414,527.832,-360.535,-431.458,0,0,0,
,-0.412,0.789,0.351,851.623,-355.103,-346.375,0,0,0,
,-0.314,0.376,0.339,1125.122,-202.637,-372.864,0,0,0,
,-0.217,-0.031,0.476,1194.336,18.066,-240.052,0,0,0,
,-0.112,-0.285,0.786,714.843,296.936,-66.04,0,0,0,
,0.091,-0.43,1.025,-105.652,600.891,23.254,0,0,0,
,0.338,-0.282,1.28,-1063.416,589.66,127.746,0,0,0,
,0.484,0.347,1.552,-1760.743,235.29,365.966,0,0,0,
,0.567,1.113,1.837,-1730.408,-176.148,478.21,0,0,0,
,0.365,1.399,1.803,-864.258,-393.433,594.787,0,0,0,
,-0.104,0.766,1.533,113.464,-477.906,643.188,0,0,0,
,-0.533,0.384,1.392,487.121,-89.417,650.634,0,0,0,
,-0.392,0.216,0.795,699.829,618.164,378.112,0,0,0,
,-0.152,0.023,0.24,758.728,294.983,181.091,0,0,0,
,-0.585,0.175,0.368,949.768,-94.788,172.729,0,0,0,
,-0.66,0.182,0.449,1216.003,238.342,-75.562,0,0,0,
,-0.446,0.141,0.18,1345.459,219.543,-222.352,0,0,0,
,-0.478,0.055,0.38,1460.266,105.041,-293.091,0,0,0,
,-0.374,-0.257,0.406,1436.157,298.95,-291.565,0,0,0,
,-0.071,-0.572,0.563,1017.334,281.616,-290.406,0,0,0,
,0.095,-0.673,0.876,281.982,185.058,-177.796,0,0,0,
,0.225,-0.494,1.261,-638.245,141.113,-53.223,0,0,0,
,0.391,0.156,1.604,-1397.095,36.132,236.389,0,0,0,
,0.443,0.521,1.714,-1188.111,-104.31,193.542,0,0,0,
,0.352,0.113,1.887,-844.3,-354.187,-5.982,0,0,0,
,0.193,0.149,1.8,-973.877,-430.054,223.022,0,0,0,
,0.048,0.573,1.576,-573.609,-351.197,346.435,0,0,0,
,-0.163,0.378,1.198,489.929,-202.088,207.702,0,0,0,
,-0.508,-0.078,0.752,1005.066,-29.114,-32.227,0,0,0,
,-0.695,-0.107,0.474,1127.624,231.262,-167.237,0,0,0,
,-0.671,-0.079,0.164,1198.059,635.131,-387.94,0,0,0,
,-0.432,-0.434,-0.028,1052.246,678.833,-613.343,0,0,0,
,-0.263,-0.47,0.3,433.349,336.914,-503.785,0,0,0,
,-0.1,-0.133,0.878,-316.651,164.123,-251.648,0,0,0,
,-0.031,0.339,0.951,-1019.654,155.944,91.735,0,0,0,
,0.167,0.642,1.337,-1158.204,143.737,232.116,0,0,0,
,0.255,0.336,1.592,-735.718,221.618,154.602,0,0,0,
,0.371,-0.05,1.572,-963.746,203.003,251.831,0,0,0,
,0.52,0.311,1.42,-1591.919,-249.207,459.167,0,0,0,
,0.252,0.542,1.305,-984.864,-530.884,417.236,0,0,0,
,-0.192,0.401,1.102,-236.878,-501.648,174.072,0,0,0,
,-0.611,0.18,1.029,301.147,-189.087,15.075,0,0,0,
,-0.521,-0.042,0.929,754.577,414.978,-154.725,0,0,0,
,-0.341,-0.198,0.668,801.147,426.269,-462.342,0,0,0,
,-0.513,-0.116,0.516,721.13,69.274,-508.789,0,0,0,
,-0.669,-0.093,0.397,797.668,147.522,-556.519,0,0,0,
,-0.501,-0.281,0.403,549.865,323.547,-686.402,0,0,0,
,-0.237,-0.183,0.557,-208.008,368.591,-417.847,0,0,0,
,-0.029,0.344,0.657,-1010.926,393.249,-141.541,0,0,0,
,0.211,0.833,0.91,-1369.568,454.651,144.104,0,0,0,
,0.4,0.862,1.318,-1161.133,394.287,155.639,0,0,0,
,0.532,0.44,1.627,-1139.283,235.901,95.459,0,0,0,
,0.62,0.181,1.76,-1481.446,58.96,300.72,0,0,0,
,0.582,0.56,1.411,-1562.867,-34.79,455.505,0,0,0,
,0.541,1.01,1.221,-1007.081,-127.686,376.709,0,0,0,
,0.276,0.799,0.979,18.371,-354.92,195.922,0,0,0,
,-0.168,0.202,0.961,601.013,-716.797,-195.252,0,0,0,
,-0.657,-0.095,0.963,758.422,-582.764,-353.699,0,0,0,
,-0.777,0.058,0.708,737.487,79.895,-325.989,0,0,0,
,-0.551,0.381,0.315,442.749,372.436,-515.076,0,0,0,
,-0.369,0.611,0.124,555.481,298.828,-542.42,0,0,0,
,-0.306,0.413,0.223,795.593,179.443,-594.239,0,0,0,
,-0.214,0.02,0.496,671.142,248.23,-609.864,0,0,0,
,0.435,1.047,0.919,-1454.102,946.472,424.377,0,0,0,
,0.698,1.22,0.969,-1340.577,820.922,349.731,0,0,0,
,0.941,1.016,1.348,-979.187,506.591,380.31,0,0,0,
,0.923,0.833,1.621,-448.548,-10.682,568.115,0,0,0,
,0.613,0.668,1.367,180.603,-238.16,606.323,0,0,0,
,0.315,0.389,1.098,745.91,-184.082,336.059,0,0,0,
,0.008,0.286,0.29,1088.195,-197.571,197.204,0,0,0,
,-0.436,-0.16,0.591,1790.344,-857.789,-240.418,0,0,0,
,-0.976,-0.646,0.501,1463.928,-552.552,-482.117,0,0,0,
,-0.773,-0.376,0.345,885.559,537.841,-358.094,0,0,0,
,-0.357,0.083,0.325,303.161,716.186,-590.882,0,0,0,
,-0.046,0.507,0.794,91.308,500.061,-532.288,0,0,0,
,0.225,0.588,1.188,242.126,306.335,-57.557,0,0,0,
,0.377,0.354,1.138,-157.654,289.978,93.139,0,0,0,
,0.53,0.273,1.007,-729.798,238.342,304.382,0,0,0,
,0.663,0.304,1.072,-1287.171,85.205,435.119,0,0,0,
,0.703,0.409,1.369,-1468.75,-259.705,467.712,0,0,0,
,0.54,0.602,1.585,-1101.258,-539.551,504.516,0,0,0,
,0.201,0.759,1.371,-319.214,-411.683,421.997,0,0,0,
,0.079,0.656,1.222,519.409,-119.385,125.427,0,0,0,
,0.054,0.165,0.992,1086.059,-46.082,-93.934,0,0,0,
,-0.079,-0.199,0.84,851.806,-439.759,-394.654,0,0,0,
,-0.338,-0.025,0.691,365.051,-531.311,-265.564,0,0,0,
,-0.5,0.281,0.477,383.117,-81.36,-250.611,0,0,0,
,0.074,0.386,0.661,77.758,281.067,-135.193,0,0,0,
,0.206,0.4,0.922,-288.941,310.363,19.409,0,0,0,
,0.398,0.389,1.383,-669.983,292.785,209.838,0,0,0,
,0.524,0.452,1.538,-978.516,94.665,405.273,0,0,0,
,0.561,0.587,1.35,-1073.609,-158.143,593.078,0,0,0,
,0.492,0.815,1.263,-916.687,-312.623,510.315,0,0,0,
,0.326,1.13,1.216,-121.766,-252.381,603.332,0,0,0,
,0.051,0.362,0.828,1169.006,-325.623,-2.564,0,0,0,
,-0.251,-0.388,0.533,1382.629,-475.098,-394.288,0,0,0,
,-0.572,-0.211,0.503,978.088,-290.833,-225.403,0,0,0,
,-0.506,0.184,0.196,717.651,176.513,-509.095,0,0,0,
,-0.213,0.099,0.217,531.005,167.114,-587.037,0,0,0,
,-0.128,0.18,0.539,246.338,-27.527,-339.905,0,0,0,
,-0.102,0.295,0.921,-79.773,40.771,-188.965,0,0,0,
,0.042,0.451,1.173,-427.369,269.226,30.456,0,0,0,
,0.251,0.647,1.312,-649.17,388.061,217.59,0,0,0,
,0.5,0.65,1.441,-712.525,331.909,278.625,0,0,0,
,0.665,0.489,1.525,-717.225,80.932,311.828,0,0,0,
,0.639,0.391,1.495,-597.413,-386.963,358.093,0,0,0,
,0.313,0.405,1.241,-299.317,-650.94,425.415,0,0,0,
,-0.024,0.348,1.033,315.612,-498.414,183.776,0,0,0,
,-0.236,0.033,0.843,895.263,-207.154,-187.561,0,0,0,
,-0.375,-0.051,0.578,888.977,-151.123,-379.822,0,0,0,
,-0.441,0.414,0.518,799.377,-49.256,-356.263,0,0,0,
,-0.342,0.348,0.263,1061.401,289.428,-562.989,0,0,0,
,-0.166,-0.107,0.396,1040.588,211.364,-625.794,0,0,0,
,-0.017,-0.06,1.017,-690.613,191.284,41.992,0,0,0,
,0.147,0.609,1.229,-1419.19,349.853,310.241,0,0,0,
,0.421,1.086,1.477,-1394.837,331.482,381.286,0,0,0,
,0.614,0.728,1.732,-737.549,0.183,244.506,0,0,0,
,0.532,0.07,1.701,-448.426,-437.561,229.919,0,0,0,
,0.246,0.22,1.282,-579.468,-615.662,414.428,0,0,0,
,-0.089,0.712,1.031,92.346,-279.175,269.592,0,0,0,
,-0.185,0.343,0.634,972.351,-0.55,-207.642,0,0,0,
,-0.336,-0.01,0.454,1122.314,-227.845,-466.858,0,0,0,
,-0.527,0.213,0.395,1044.738,-14.283,-388.855,0,0,0,
,-0.383,0.042,0.227,1141.54,359.13,-631.897,0,0,0,
,-0.179,-0.35,0.385,793.701,242.614,-602.662,0,0,0,
,-0.13,-0.282,0.793,-14.405,112.548,-303.589,0,0,0,
,-0.009,0.257,1.133,-897.889,228.393,12.39,0,0,0,
,0.208,0.943,1.395,-1287.903,321.838,262.39,0,0,0,
,0.443,1.117,1.454,-865.54,222.107,230.835,0,0,0,
,0.541,0.324,1.618,-470.032,-150.33,46.386,0,0,0,
,0.448,-0.158,1.451,-902.466,-462.708,263.183,0,0,0,
,0.249,0.086,1.255,-1140.198,-790.467,460.876,0,0,0,
,-0.24,0.5,0.889,-772.828,-637.696,304.016,0,0,0,
,-0.494,0.703,0.958,247.619,87.28,-3.54,0,0,0,
,-0.14,0.514,0.808,992.553,663.818,-288.392,0,0,0,
,0.012,0.476,0.64,1022.277,178.1,-354.371,0,0,0,
,-0.253,0.525,0.676,1097.656,-118.653,-407.349,0,0,0,
,-0.323,-0.041,0.409,1259.887,157.348,-608.277,0,0,0,
,-0.237,-0.64,0.396,963.501,126.159,-661.683,0,0,0,
,-0.121,-0.549,0.62,-111.268,181.518,-282.532,0,0,0,
,0.016,0.142,0.817,-1177.735,320.373,43.579,0,0,0,
,0.296,0.909,1.029,-1652.649,411.865,252.868,0,0,0,
,0.472,1.058,1.195,-1201.966,269.226,190.307,0,0,0,
,0.556,0.575,1.517,-870.667,-66.407,128.051,0,0,0,
,0.409,0.242,1.567,-730.347,-342.713,322.876,0,0,0,
,0.168,0.5,1.277,-660.462,-320.923,355.285,0,0,0,
,0.044,0.847,1.259,84.167,133.422,214.111,0,0,0,
,0.17,0.531,0.801,1023.254,434.265,-140.625,0,0,0,
,-0.007,0.042,0.583,1101.623,-413.269,-452.271,0,0,0,
,-0.594,0.069,0.504,1196.228,-406.678,-387.513,0,0,0,
,-0.585,-0.49,0.209,1070.19,254.15,-776.49,0,0,0,
,-0.32,-0.477,0.52,201.172,217.651,-589.295,0,0,0,
,-0.174,0.411,0.818,-895.081,169.922,-135.071,0,0,0,
,0.139,1.504,1.159,-1256.104,261.474,203.247,0,0,0,
,0.335,1.771,1.029,-440.979,267.151,253.234,0,0,0,
,0.375,0.547,1.009,275.695,58.471,87.036,0,0,0,
,0.423,-0.314,1.17,-43.213,-46.692,146.667,0,0,0,
,0.393,-0.523,1.164,-1083.13,-207.947,467.346,0,0,0,
,0.276,0.162,1.139,-1513.489,-462.83,584.655,0,0,0,
,-0.171,0.746,1.145,-988.16,-308.411,365.783,0,0,0,
,-0.17,0.646,1.16,331.604,494.629,-70.435,0,0,0,
,0.226,0.252,0.947,1005.493,582.702,-341.797,0,0,0,
,0.186,0.195,0.884,772.033,-393.006,-360.108,0,0,0,
,-0.362,0.695,0.904,688.659,-621.766,-307.312,0,0,0,
,-0.446,0.63,0.516,1003.967,-37.537,-490.54,0,0,0,
,-0.326,0.003,0.279,1063.293,76.416,-614.441,0,0,0,
,-0.236,-0.259,0.507,424.804,45.105,-423.401,0,0,0,
,-0.149,0.115,0.869,-447.571,234.253,-26.795,0,0,0,
,0.1,0.681,1.022,-1011.902,447.57,159.057,0,0,0,
,0.418,1.049,1.134,-1091.309,352.844,350.402,0,0,0,
,0.585,0.921,1.255,-825.745,104.187,398.193,0,0,0,
,0.57,0.403,1.299,-557.74,-260.132,368.835,0,0,0,
,0.392,0.087,1.191,-627.137,-492.371,426.574,0,0,0,
,0.044,0.114,1.055,-590.21,-512.085,316.101,0,0,0,
,-0.289,0.342,1.112,-140.686,-6.592,115.783,0,0,0,
,-0.007,0.45,1.032,543.945,611.206,-236.084,0,0,0,
,0.217,0.345,0.865,773.864,231.445,-343.689,0,0,0,
,-0.166,0.545,1.114,651.123,-426.087,-267.273,0,0,0,
,-0.507,0.629,0.985,876.709,-67.566,-286.011,0,0,0,
,-0.287,0.107,0.26,937.561,332.763,-515.809,0,0,0,
,-0.025,-0.145,0.378,573.486,75.622,-453.797,0,0,0,
,-0.079,0.174,0.506,59.448,-91.492,-183.655,0,0,0,
,0.014,0.323,0.734,-290.528,4.882,-139.832,0,0,0,
,0.174,0.434,0.998,-451.355,5.554,25.756,0,0,0,
,0.28,0.665,1.114,-475.831,27.038,244.262,0,0,0,
,0.34,0.579,1.052,-391.541,43.579,274.902,0,0,0,
,0.408,0.301,1.074,-525.269,-20.02,315.368,0,0,0,
,0.405,0.348,1.222,-782.105,-166.871,413.147,0,0,0,
,0.263,0.596,1.314,-689.148,-141.236,465.026,0,0,0,
,0.202,0.587,1.357,-267.518,122.741,270.08,0,0,0,
,0.209,0.501,1.252,184.509,271.911,119.995,0,0,0,
,0.07,0.387,1.11,623.84,144.226,36.499,0,0,0,
,-0.168,0.018,0.973,834.228,-32.532,-212.22,0,0,0,
,-0.495,0.064,0.767,831.909,-15.32,-280.823,0,0,0,
,-0.54,0.227,0.554,890.564,181.274,-504.456,0,0,0,
,-0.414,0.1,0.258,830.505,218.444,-593.873,0,0,0,
,-0.318,0.038,0.324,519.653,-18.555,-593.384,0,0,0,
,-0.241,0.199,0.633,70.007,-117.249,-385.682,0,0,0,
,-0.013,0.441,0.898,-320.801,-31.128,-210.083,0,0,0,
,0.205,0.633,1.172,-628.846,14.648,12.207,0,0,0,
,0.368,0.741,1.366,-582.642,47.973,257.507,0,0,0,
,0.443,0.497,1.329,-564.942,57.067,310.18,0,0,0,
,0.535,0.29,1.279,-782.837,-2.93,395.691,0,0,0,
,0.552,0.41,1.2,-938.111,-209.168,489.807,0,0,0,
,0.329,0.607,1.09,-719.483,-349.732,525.634,0,0,0,
,-0.065,0.585,1.056,-112.671,-217.896,334.167,0,0,0,
,-0.276,0.321,0.994,480.529,194.763,70.373,0,0,0,
,-0.139,0.031,0.872,826.538,480.835,-122.742,0,0,0,
,-0.049,0.03,0.772,821.716,196.777,-214.844,0,0,0,
,-0.285,0.279,0.752,821.106,-122.254,-404.297,0,0,0,
,-0.373,0.331,0.579,983.093,56.03,-535.889,0,0,0,
,-0.198,0.023,0.313,897.949,123.474,-624.39,0,0,0,
,-0.059,-0.07,0.475,386.657,-18.738,-408.509,0,0,0,
,0.032,0.094,0.723,-279.602,-11.78,-137.391,0,0,0,
,0.182,0.365,0.927,-852.662,70.922,111.755,0,0,0,
,0.337,0.741,1.119,-1215.455,130.005,368.652,0,0,0,
,0.422,0.928,1.093,-1225.464,136.901,509.033,0,0,0,
,0.5,0.588,1.025,-1144.837,179.26,404.052,0,0,0,
,0.563,0.259,1.06,-1237.549,158.874,375.854,0,0,0,
,0.515,0.119,1.327,-1263.672,-182.068,349.975,0,0,0,
,0.207,0.35,1.259,-861.573,-457.52,209.838,0,0,0,
,-0.21,0.798,1.151,-255.86,-155.457,77.148,0,0,0,
,-0.169,0.854,1.284,758.85,475.83,-2.747,0,0,0,
,0.039,0.537,1.066,1245.544,461.67,-40.345,0,0,0,
,-0.099,0.15,0.937,1120.3,-374.329,-351.99,0,0,0,
,-0.618,0.051,0.694,907.714,-672.303,-344.605,0,0,0,
,-0.838,-0.107,0.293,1027.71,-153.565,-466.614,0,0,0,
,-0.526,-0.238,0.181,588.806,237.487,-609.742,0,0,0,
,-0.29,0.286,0.365,-95.765,209.777,-331.971,0,0,0,
,-0.063,0.796,0.652,-404.602,192.749,-250.611,0,0,0,
,0.103,0.938,0.953,-265.748,208.862,-0.061,0,0,0,
,0.239,0.841,1.124,-194.214,266.296,223.571,0,0,0,
,0.375,0.501,1.237,-276.307,345.642,335.876,0,0,0,
,0.519,0.3,1.259,-598.938,363.708,373.352,0,0,0,
,0.662,0.386,1.271,-932.557,134.765,398.62,0,0,0,
,0.645,0.568,1.289,-929.627,-267.64,417.663,0,0,0,
,0.353,0.52,1.432,-609.436,-648.072,326.965,0,0,0,
,-0.025,0.416,1.4,-307.373,-612.854,124.145,0,0,0,
,-0.243,0.389,1.34,137.817,-230.042,-16.663,0,0,0,
,-0.199,0.206,0.947,740.905,38.269,-216.675,0,0,0,
,-0.24,0.091,0.567,876.281,-208.863,-442.994,0,0,0,
,-0.526,0.044,0.377,935.363,-444.153,-565.369,0,0,0,
,-0.636,-0.185,0.287,896.423,-165.101,-617.066,0,0,0,
,-0.467,-0.157,0.404,110.29,173.095,-556.031,0,0,0,
,-0.194,0.59,0.582,-634.217,391.113,-241.456,0,0,0,
,0.105,1.318,0.732,-786.744,415.527,92.956,0,0,0,
,0.311,1.492,0.869,-252.381,286.316,202.026,0,0,0,
,0.4,0.713,1.081,257.812,264.587,230.102,0,0,0,
,0.508,-0.004,1.233,-147.461,359.069,287.902,0,0,0,
,0.619,0.08,1.248,-873.475,276.184,484.008,0,0,0,
,0.04,0.731,1.229,-320.069,-367.249,363.342,0,0,0,
,-0.167,0.473,1.126,27.16,-140.198,204.589,0,0,0,
,-0.215,0.146,1.104,362.854,10.131,-24.964,0,0,0,
,-0.221,-0.136,1.039,480.407,8.422,-246.338,0,0,0,
,-0.315,-0.142,0.931,424.377,-181.275,-408.57,0,0,0,
,-0.531,0.252,0.769,446.228,-275.086,-501.465,0,0,0,
,-0.635,0.577,0.521,629.028,-2.503,-551.88,0,0,0,
,-0.485,0.556,0.347,947.265,216.491,-658.02,0,0,0,
,-0.319,0.165,0.27,882.507,145.324,-729.676,0,0,0,
,-0.194,0.03,0.441,204.651,85.632,-506.836,0,0,0,
,-0.073,0.459,0.653,-599.183,205.2,-202.21,0,0,0,
,0.127,1.008,0.876,-868.836,360.107,47.424,0,0,0,
,0.351,1.305,0.917,-579.834,417.053,193.359,0,0,0,
,0.505,0.86,1.095,-119.263,343.078,163.025,0,0,0,
,0.618,0.218,1.321,-212.708,329.406,194.519,0,0,0,
,0.701,-0.007,1.328,-790.711,200.988,375.366,0,0,0,
,0.672,0.295,1.259,-1115.601,-190.369,395.141,0,0,0,
,0.437,0.631,1.154,-1019.166,-393.677,351.379,0,0,0,
,0.18,0.857,1.124,-535.584,-269.043,243.469,0,0,0,
,-0.041,0.785,0.974,168.762,-90.76,106.628,0,0,0,
,-0.172,0.38,0.934,731.994,-64.942,-124.512,0,0,0,
,-0.299,0.038,0.866,844.482,-113.343,-281.861,0,0,0,
,-0.38,0.03,0.771,655.456,-93.75,-302.735,0,0,0,
,-0.378,0.397,0.676,524.475,-36.194,-254.151,0,0,0,
,-0.353,0.584,0.497,589.05,-18.189,-347.168,0,0,0,
,-0.343,0.591,0.195,748.779,25.207,-389.161,0,0,0,
,-0.215,0.323,0.205,783.081,23.864,-499.756,0,0,0,
,-0.081,0.102,0.388,511.657,67.199,-350.281,0,0,0,
,0.017,0.118,0.653,31.005,154.48,-177.857,0,0,0,
,0.151,0.397,0.968,-476.197,308.288,3.234,0,0,0,
,0.39,0.8,1.196,-557.435,451.538,237.732,0,0,0,
,0.573,0.905,1.291,-380.677,462.036,234.253,0,0,0,
,0.744,0.678,1.396,-313.355,262.451,225.341,0,0,0,
,0.786,0.483,1.452,-399.231,-49.866,287.536,0,0,0,
,0.679,0.433,1.48,-413.269,-389.832,377.258,0,0,0,
,0.409,0.382,1.302,-248.23,-526.734,363.037,0,0,0,
,0.07,0.283,1.089,-55.726,-490.967,244.567,0,0,0,
,-0.25,0.148,0.931,116.638,-342.652,112.548,0,0,0,
,-0.403,0.075,0.801,267.761,-59.449,7.08,0,0,0,
,-0.382,0.167,0.625,275.695,21.667,-184.327,0,0,0,
,-0.435,0.502,0.463,404.541,-148.499,-277.1,0,0,0,
,-0.53,0.652,0.385,730.957,-184.082,-432.801,0,0,0,
,-0.485,0.329,0.271,876.77,-127.808,-572.144,0,0,0,
,-0.364,0.169,0.345,692.566,-126.099,-492.981,0,0,0,
,-0.204,0.066,0.574,354.675,-38.331,-420.899,0,0,0,
,-0.044,0.183,0.898,-212.769,94.726,-212.83,0,0,0,
,0.142,0.608,1.097,-607.178,291.931,82.641,0,0,0,
,0.322,1.051,1.147,-641.968,368.469,257.263,0,0,0,
,0.601,0.238,1.506,-502.259,-47.608,388.122,0,0,0,
,0.485,0.173,1.407,-758.484,-259.705,488.22,0,0,0,
,0.319,0.306,1.408,-846.924,-417.603,438.842,0,0,0,
,0.104,0.551,1.381,-597.107,-404.114,363.098,0,0,0,
,-0.169,0.587,1.215,-17.518,-265.198,217.956,0,0,0,
,-0.358,0.357,1.07,553.161,-24.537,-56.946,0,0,0,
,-0.359,0.101,0.791,845.276,327.453,-205.811,0,0,0,
,-0.213,0.085,0.56,849.609,229.553,-390.503,0,0,0,
,-0.307,0.374,0.537,918.64,-59.51,-459.9,0,0,0,
,-0.472,0.321,0.41,1038.696,45.654,-660.828,0,0,0,
,-0.354,0.143,0.218,991.088,158.447,-698.792,0,0,0,
,-0.165,-0.022,0.229,616.027,14.648,-615.113,0,0,0,
,-0.125,0.066,0.395,22.705,-97.779,-384.034,0,0,0,
,0.003,0.34,0.675,-547.486,-64.881,-114.197,0,0,0,
,0.145,0.683,0.933,-906.8,16.357,162.048,0,0,0,
,0.271,0.823,1.203,-845.276,46.142,226.501,0,0,0,
,0.349,0.625,1.406,-806.641,89.965,263.672,0,0,0,
,0.481,0.446,1.572,-926.392,105.529,392.089,0,0,0,
,0.593,0.473,1.562,-933.716,-2.137,467.346,0,0,0,
,-0.325,0.512,1.268,-146.424,-500.184,427.246,0,0,0,
,-0.549,0.447,1.209,474.67,267.089,238.037,0,0,0,
,-0.246,0.248,0.708,696.594,578.552,-112.915,0,0,0,
,-0.235,0.325,0.572,737.609,-67.017,-170.899,0,0,0,
,-0.582,0.621,0.728,1004.882,-234.07,-243.836,0,0,0,
,-0.328,0.156,0.13,1049.926,1.831,-455.994,0,0,0,
,-0.262,-0.15,0.176,624.511,-212.403,-378.235,0,0,0,
,-0.168,-0.009,0.351,-21.119,-259.522,-246.644,0,0,0,
,0.011,0.414,0.507,-560.547,-195.069,-27.955,0,0,0,
,0.079,0.829,0.775,-847.29,-82.886,192.81,0,0,0,
,0.27,0.827,1.25,-575.501,-72.449,279.052,0,0,0,
,0.216,0.365,1.613,-338.685,1.709,231.018,0,0,0,
,0.267,0.123,1.816,-650.391,129.882,314.27,0,0,0,
,0.298,0.672,1.916,-857.361,154.235,574.951,0,0,0,
,0.351,1.425,1.824,92.834,418.457,774.475,0,0,0,
,0.083,0.481,1.032,994.69,69.397,92.895,0,0,0,
,-0.44,-0.555,0.976,912.719,-384.278,56.701,0,0,0,
,-0.707,-0.039,0.75,773.254,103.576,-39.307,0,0,0,
,-0.41,-0.022,0.251,759.948,361.389,-427.308,0,0,0,
,-0.445,0.232,0.266,793.213,84.777,-482.178,0,0,0,
,-0.463,0.229,0.262,752.563,56.213,-629.7,0,0,0,
,-0.31,0.136,0.312,595.031,-45.594,-611.939,0,0,0,
,-0.178,0.083,0.493,364.807,-118.103,-468.689,0,0,0,
,-0.063,0.039,0.715,76.171,-97.474,-342.957,0,0,0,
,0.07,0.049,1.059,-330.994,-102.845,-135.376,0,0,0,
,0.15,0.152,1.425,-657.532,26.306,37.78,0,0,0,
,0.269,0.345,1.526,-957.703,131.897,162.231,0,0,0,
,0.394,0.506,1.662,-1140.442,-63.904,250.183,0,0,0,
,0.356,0.754,1.645,-1091.675,-225.159,467.834,0,0,0,
,0.23,1.115,1.544,-561.646,-188.599,664.978,0,0,0,
,-0.044,0.575,1.243,308.593,-104.737,396.667,0,0,0,
,-0.334,-0.076,1.102,741.943,-39.063,168.823,0,0,0,
,-0.435,-0.409,0.851,677.185,294.006,99.121,0,0,0,
,-0.34,-0.25,0.646,432.495,197.631,-158.997,0,0,0,
,-0.45,0.257,0.642,561.828,66.528,-281.861,0,0,0,
,-0.488,0.469,0.576,817.566,139.648,-435.12,0,0,0,
,-0.39,0.345,0.402,943.481,141.296,-599.976,0,0,0,
,-0.279,0.09,0.337,921.203,89.721,-579.651,0,0,0,
,-0.154,-0.12,0.48,653.686,-37.049,-511.17,0,0,0,
,-0.034,-0.218,0.726,214.66,-25.269,-369.324,0,0,0,
,0.057,-0.022,0.931,-368.409,-13.916,-116.883,0,0,0,
,0.156,0.358,1.125,-818.421,-41.199,78.918,0,0,0,
,0.203,0.538,1.419,-886.048,-51.514,176.696,0,0,0,
,0.222,0.387,1.397,-771.668,-85.999,260.986,0,0,0,
,0.179,0.056,1.442,-923.035,-191.346,288.452,0,0,0,
,0.104,-0.001,1.442,-1319.52,-305.848,367.187,0,0,0,
,-0.061,0.305,1.352,-1516.236,-302.918,457.397,0,0,0,
,-0.213,0.718,1.534,-1089.844,-83.435,483.581,0,0,0,
,-0.107,0.968,1.437,61.34,502.868,523.62,0,0,0,
,-0.034,0.449,0.908,787.597,371.826,-91.919,0,0,0,
,-0.213,-0.074,0.894,919.677,-95.52,-70.374,0,0,0,
,-0.493,0.311,0.772,903.076,-73.731,-145.813,0,0,0,
,-0.43,0.496,0.593,1138.549,118.042,-357.3,0,0,0,
,-0.416,0.403,0.321,1395.507,171.63,-419.983,0,0,0,
,-0.378,0.062,0.165,1383.789,224.365,-459.656,0,0,0,
,-0.258,-0.334,0.24,973.755,136.352,-423.951,0,0,0,
,-0.172,-0.408,0.5,355.224,28.442,-257.813,0,0,0,
,-0.082,-0.11,0.793,-352.662,-21.607,-49.927,0,0,0,
,0.013,0.428,1.115,-791.993,-114.93,136.963,0,0,0,
,0.048,0.814,1.263,-871.216,-127.625,280.151,0,0,0,
,0.037,0.65,1.342,-416.138,-140.259,267.639,0,0,0,
,0.042,-0.029,1.454,-336.792,-187.256,217.773,0,0,0,
,0.041,-0.313,1.477,-886.902,-234.131,298.95,0,0,0,
,0.078,-0.095,1.391,-1348.877,-244.446,369.079,0,0,0,
,0.039,0.292,1.339,-1342.53,-164.978,446.655,0,0,0,
,-0.021,0.794,1.376,-501.221,57.617,549.743,0,0,0,
,-0.048,0.683,1.121,489.135,329.101,168.213,0,0,0,
,-0.182,-0.026,1.145,770.935,153.747,-100.953,0,0,0,
,-0.364,0.021,1.222,604.187,104.736,48.95,0,0,0,
,-0.342,0.245,1.016,655.517,290.039,-210.755,0,0,0,
,-0.331,0.108,0.673,783.02,150.817,-344.91,0,0,0,
,-0.519,0.232,0.607,935.852,134.216,-415.772,0,0,0,
,-0.46,0.265,0.289,1087.585,370.3,-556.58,0,0,0,
,-0.356,-0.042,0.189,985.656,284.24,-648.621,0,0,0,
,-0.265,-0.188,0.348,681.457,142.273,-523.316,0,0,0,
,-0.118,-0.245,0.677,292.48,14.099,-370.362,0,0,0,
,-0.001,-0.108,1.004,-211.67,-37.842,-198.182,0,0,0,
,0.115,0.335,1.257,-621.766,-96.68,18.005,0,0,0,
,0.162,0.535,1.291,-632.447,-108.277,81.359,0,0,0,
,0.18,0.366,1.185,-393.433,-145.447,113.159,0,0,0,
,0.173,-0.025,1.213,-425.293,-236.573,151.977,0,0,0,
,0.125,-0.105,1.166,-841.004,-297.913,246.093,0,0,0,
,0.044,0.008,1.164,-1211.487,-316.834,291.076,0,0,0,
,-0.09,0.22,1.218,-1308.472,-218.445,300.903,0,0,0,
,-0.197,0.47,1.285,-1061.463,14.709,343.017,0,0,0,
,-0.086,0.668,1.364,-438.843,392.883,281.005,0,0,0,
,0.132,0.641,1.184,214.233,481.628,162.353,0,0,0,
,0.054,0.286,1.056,575.866,83.313,4.943,0,0,0,
,-0.321,-0.006,1.196,501.709,-243.042,16.662,0,0,0,
,-0.465,0.282,1.125,514.831,114.257,17.761,0,0,0,
,-0.234,0.196,0.79,611.755,351.318,-220.459,0,0,0,
,-0.172,0.119,0.64,618.103,80.444,-186.463,0,0,0,
,-0.355,0.243,0.667,651.489,-28.26,-214.295,0,0,0,
,-0.432,0.195,0.575,700.317,62.316,-282.166,0,0,0,
,-0.379,0.065,0.532,633.117,71.289,-307.801,0,0,0,
,-0.318,-0.047,0.591,404.541,15.319,-243.042,0,0,0,
,-0.254,-0.052,0.739,114.868,-8.789,-175.66,0,0,0,
,-0.151,0.073,0.901,-157.898,-10.071,-80.384,0,0,0,
,-0.082,0.229,1.021,-342.469,-22.278,-12.146,0,0,0,
,0.008,0.299,1.129,-395.447,7.263,19.836,0,0,0,
,0.096,0.179,1.157,-373.291,55.725,18.737,0,0,0,
,0.15,0.018,1.179,-420.655,29.357,28.991,0,0,0,
,0.173,-0.035,1.233,-589.905,-36.927,43.273,0,0,0,
,0.145,0.061,1.277,-744.446,-82.581,72.815,0,0,0,
,0.094,0.216,1.321,-789.246,-41.138,98.266,0,0,0,
,0.058,0.468,1.298,-581.91,106.445,163.452,0,0,0,
,0.075,0.605,1.191,-145.752,275.329,184.448,0,0,0,
,0.148,0.462,1.093,183.166,304.321,73.547,0,0,0,
,0.059,0.278,0.954,295.349,32.348,128.112,0,0,0,
,-0.284,0.135,1.003,302.063,-169.617,119.995,0,0,0,
,-0.448,0.132,0.973,350.586,133.3,99.731,0,0,0,
,-0.259,0.011,0.724,387.756,343.017,-94.788,0,0,0,
,-0.245,-0.003,0.65,389.038,41.259,-115.479,0,0,0,
,-0.435,0.05,0.703,404.602,-102.478,-197.083,0,0,0,
,-0.395,0.049,0.656,392.639,-93.018,-329.59,0,0,0,
,-0.368,0.032,0.588,380.798,-244.812,-339.966,0,0,0,
,-0.387,0.044,0.69,377.99,-281.189,-295.96,0,0,0,
,-0.338,0.042,0.807,322.448,-137.207,-289.185,0,0,0,
,-0.207,0.035,0.863,147.827,-32.898,-260.193,0,0,0,
,-0.086,0.108,0.972,-82.642,11.413,-192.078,0,0,0,
,0.004,0.209,1.121,-348.45,48.278,-103.028,0,0,0,
,0.075,0.291,1.255,-529.297,81.481,-9.156,0,0,0,
,0.173,0.313,1.369,-621.644,107.727,79.345,0,0,0,
,0.227,0.258,1.396,-747.01,73.242,111.694,0,0,0,
,0.244,0.276,1.448,-900.574,-37.842,136.23,0,0,0,
,0.211,0.362,1.455,-850.525,-70.801,222.839,0,0,0,
,0.188,0.432,1.382,-653.321,-3.296,269.104,0,0,0,
,0.069,0.351,1.197,-260.437,-17.701,210.266,0,0,0,
,-0.323,0.04,0.781,420.349,423.95,-169.678,0,0,0,
,-0.234,0.088,0.702,441.04,132.385,-266.175,0,0,0,
,-0.43,0.301,0.792,604.492,-37.842,-294.007,0,0,0,
,-0.453,0.382,0.764,792.419,78.796,-394.165,0,0,0,
,-0.366,0.288,0.551,911.682,104.126,-449.28,0,0,0,
,-0.252,0.055,0.5,839.904,49.926,-472.107,0,0,0,
,-0.159,-0.083,0.558,546.447,-52.491,-434.327,0,0,0,
,-0.054,-0.125,0.583,145.324,-137.085,-308.472,0,0,0,
,0.026,0.113,0.815,-393.616,-321.412,-160.889,0,0,0,
,0.013,0.408,0.963,-645.264,-319.947,25.878,0,0,0,
,0.039,0.502,1.096,-654.602,-171.998,138.672,0,0,0,
,0.09,0.332,1.19,-591.98,-32.593,171.02,0,0,0,
,0.167,0.085,1.298,-735.84,27.221,228.149,0,0,0,
,0.203,0.045,1.334,-1061.158,-7.752,266.662,0,0,0,
,0.159,0.315,1.363,-1203.431,-64.026,395.385,0,0,0,
,0.066,0.708,1.357,-925.721,36.438,466.735,0,0,0,
,0.067,0.677,1.26,-285.523,255.188,322.57,0,0,0,
,0.028,0.41,1.08,185.669,137.268,225.219,0,0,0,
,-0.201,0.124,1.05,471.496,-59.144,146.972,0,0,0,
,-0.383,-0.116,1.026,571.289,72.082,16.845,0,0,0,
,-0.35,-0.171,0.938,499.511,197.204,-90.699,0,0,0,
,-0.326,0.046,0.893,453.125,130.066,-160.34,0,0,0,
,-0.37,0.248,0.868,559.265,52.368,-244.263,0,0,0,
,-0.411,0.293,0.769,680.969,4.394,-323.609,0,0,0,
,-0.441,0.258,0.666,743.286,-28.504,-377.015,0,0,0,
,-0.311,0.026,0.507,559.509,-31.006,-424.622,0,0,0,
,-0.25,0,0.536,276.855,-99.427,-302.979,0,0,0,
,-0.152,0.206,0.765,-106.08,-269.288,-195.984,0,0,0,
,-0.144,0.412,0.956,-244.019,-255.616,-85.816,0,0,0,
,-0.092,0.443,1.034,-173.34,-146.241,25.024,0,0,0,
,-0.002,0.238,1.08,-130.677,-40.833,57.739,0,0,0,
,0.057,-0.019,1.141,-257.935,-3.235,95.031,0,0,0,
,0.119,-0.169,1.211,-532.105,45.532,101.928,0,0,0,
,0.169,-0.096,1.279,-859.864,22.766,136.413,0,0,0,
,0.166,0.12,1.347,-1151.978,-72.815,173.339,0,0,0,
,0.113,0.461,1.392,-1164.429,-111.023,215.332,0,0,0,
,0.042,0.677,1.379,-819.947,-17.884,300.659,0,0,0,
,0.049,0.661,1.301,-389.649,135.742,295.776,0,0,0,
,0.045,0.496,1.185,-77.881,131.347,265.197,0,0,0,
,-0.184,0.238,1.148,170.166,-21.119,248.413,0,0,0,
,-0.399,0.122,1.087,393.493,138.855,220.214,0,0,0,
,-0.367,-0.052,0.917,441.345,342.834,-9.827,0,0,0,
,-0.346,0.106,0.696,448.913,113.464,-103.516,0,0,0,
,-0.603,0.244,0.615,833.862,83.435,-339.478,0,0,0,
,-0.548,0.305,0.465,868.835,37.231,-393.067,0,0,0,
,-0.547,0.126,0.33,855.896,15.808,-463.562,0,0,0,
,-0.401,0.015,0.382,648.864,-0.367,-356.385,0,0,0,
,-0.227,0.033,0.546,256.103,24.597,-311.402,0,0,0,
,-0.089,0.169,0.807,-126.282,66.833,-122.315,0,0,0,
,0.026,0.344,1.104,-532.349,147.949,82.458,0,0,0,
,0.156,0.331,1.363,-617.981,380.005,118.042,0,0,0,
,0.329,0.127,1.571,-684.998,476.928,157.409,0,0,0,
,0.472,0.027,1.569,-1039.307,383.728,193.664,0,0,0,
,0.566,0.31,1.691,-1355.286,1.77,310.424,0,0,0,
,0.473,0.747,1.558,-1157.959,-232.911,466.919,0,0,0,
,0.182,0.611,1.361,-337.586,-322.083,326.049,0,0,0,
,-0.535,0.018,1.028,375.061,100.219,141.662,0,0,0,
,-0.408,0.028,0.762,571.838,667.541,-95.643,0,0,0,
,-0.208,0.116,0.501,620.3,476.684,-286.927,0,0,0,
,-0.394,0.354,0.532,805.786,100.952,-287.232,0,0,0,
,-0.53,0.176,0.364,937.011,229.187,-513.794,0,0,0,
,-0.4,-0.171,0.434,767.883,80.017,-517.884,0,0,0,
,-0.434,-0.24,0.523,346.923,34.057,-465.271,0,0,0,
,-0.332,-0.235,0.674,-47.242,325.866,-395.081,0,0,0,
,-0.144,0.183,0.854,-667.664,509.216,-183.899,0,0,0,
,0.085,0.619,1.063,-758.423,659.423,-115.662,0,0,0,
,0.256,0.817,1.159,-307.373,640.625,2.685,0,0,0,
,0.329,0.481,1.163,39.55,507.08,-51.697,0,0,0,
,0.381,0.052,1.238,-176.026,372.741,17.334,0,0,0,
,0.425,-0.087,1.259,-810.12,361.328,194.03,0,0,0,
,0.491,0.048,1.295,-1372.62,271.545,256.103,0,0,0,
,0.498,0.391,1.266,-1509.4,108.276,307.922,0,0,0,
,0.413,0.65,1.234,-1141.846,-83.802,337.829,0,0,0,
,0.266,0.68,1.274,-567.933,-245.118,224.609,0,0,0,
,0.047,0.425,1.233,-0.428,-376.526,132.263,0,0,0,
,-0.184,0.189,1.069,343.994,-429.932,14.892,0,0,0,
,-0.356,0.129,0.93,468.017,-342.102,-71.961,0,0,0,
,-0.437,0.312,0.723,487.854,-215.516,-121.033,0,0,0,
,-0.417,0.397,0.51,589.477,-19.776,-249.207,0,0,0,
,-0.351,0.332,0.293,788.391,87.036,-349.244,0,0,0,
,-0.243,0.066,0.227,849.487,122.619,-467.591,0,0,0,
,-0.162,-0.16,0.394,527.282,92.834,-445.008,0,0,0,
,-0.07,-0.094,0.618,-38.208,217.529,-302.735,0,0,0,
,0.061,0.297,0.829,-615.723,398.864,-79.346,0,0,0,
,0.248,0.729,1.084,-870.179,501.526,102.6,0,0,0,
,0.43,0.959,1.173,-678.589,432.312,151.794,0,0,0,
,0.505,0.712,1.234,-462.342,234.985,165.222,0,0,0,
,0.489,0.388,1.269,-525.757,3.784,256.164,0,0,0,
,0.434,0.196,1.298,-808.594,-114.502,278.93,0,0,0,
,0.381,0.317,1.357,-972.291,-172.303,267.761,0,0,0,
,0.346,0.542,1.435,-674.805,-212.342,240.661,0,0,0,
,0.29,0.776,1.311,-145.02,-270.752,229.553,0,0,0,
,0.109,0.723,1.091,512.756,-414.734,106.689,0,0,0,
,-0.137,0.576,0.887,852.478,-441.59,-15.931,0,0,0,
,-0.292,0.536,0.743,983.947,-284.119,-33.081,0,0,0,
,-0.269,0.6,0.587,1061.401,-87.464,-90.821,0,0,0,
,-0.23,0.393,0.335,1241.516,11.596,-228.15,0,0,0,
,-0.219,-0.04,0.21,1266.113,26.184,-297.303,0,0,0,
,-0.206,-0.303,0.307,874.633,32.47,-301.941,0,0,0,
,-0.154,-0.208,0.499,133.545,146.301,-60.547,0,0,0,
,-0.055,0.084,0.693,-439.515,309.753,53.161,0,0,0,
,0.07,0.354,0.888,-873.291,350.769,124.878,0,0,0,
,0.167,0.449,1.106,-1017.457,314.27,173.767,0,0,0,
,0.228,0.334,1.259,-1182.251,233.215,127.99,0,0,0,
,0.299,0.318,1.401,-1455.933,135.07,194.213,0,0,0,
,0.37,0.538,1.569,-1470.704,-65.308,227.966,0,0,0,
,0.316,0.88,1.441,-1002.991,-229.248,321.594,0,0,0,
,0.198,0.968,1.243,-188.233,-229.981,238.891,0,0,0,
,0.056,0.748,1.048,436.218,-280.335,62.988,0,0,0,
,-0.191,0.483,0.778,772.705,-453.614,-108.887,0,0,0,
,-0.465,0.207,0.939,997.863,-520.752,-204.346,0,0,0,
,-0.514,0.048,0.969,815.307,3.723,-328.614,0,0,0,
,-0.249,0.263,0.607,598.327,256.408,-327.149,0,0,0,
,-0.16,0.719,0.433,476.806,-128.113,-272.889,0,0,0,
,-0.394,0.773,0.122,741.821,-210.267,-267.518,0,0,0,
,-0.334,0.271,0.18,1133.606,-41.138,-494.202,0,0,0,
,-0.189,-0.3,0.391,1000.183,176.452,-486.084,0,0,0,
,-0.094,-0.341,0.664,245.178,331.115,-208.558,0,0,0,
,0.085,0.052,1.044,-538.086,499.694,-36.683,0,0,0,
,0.313,0.741,1.234,-953.858,643.432,244.201,0,0,0,
,0.586,1.223,1.31,-683.655,584.655,330.139,0,0,0,
,0.726,0.924,1.291,-5.249,307.129,179.931,0,0,0,
,0.716,0.138,1.452,245.422,-77.027,82.092,0,0,0,
,0.531,-0.266,1.381,-323.304,-376.038,254.272,0,0,0,
,0.361,0.089,1.282,-866.883,-550.965,457.092,0,0,0,
,0.131,0.57,1.232,-747.071,-503.357,427.124,0,0,0,
,-0.136,0.597,1.084,-36.072,-388.367,187.988,0,0,0,
,-0.318,0.31,1.042,530.639,-248.719,-43.946,0,0,0,
,-0.411,0.192,0.937,684.204,84.838,-102.906,0,0,0,
,-0.327,0.329,0.768,785.888,392.212,-176.514,0,0,0,
,-0.194,0.299,0.637,964.843,442.81,-360.962,0,0,0,
,-0.152,-0.283,0.45,919.738,393.982,-392.762,0,0,0,
,-0.07,-0.51,0.638,349.121,312.255,-326.294,0,0,0,
,-0.069,-0.18,0.799,-669.495,291.687,-20.264,0,0,0,
,0.075,0.597,1.051,-1391.846,353.942,118.713,0,0,0,
,0.152,1.055,1.09,-1059.205,365.6,237.426,0,0,0,
,0.213,0.708,1.219,-185.303,265.38,85.51,0,0,0,
,0.24,-0.005,1.271,-53.345,248.047,-72.632,0,0,0,
,0.316,-0.305,1.302,-715.516,207.336,122.436,0,0,0,
,0.43,0.015,1.382,-1318.177,-30.64,175.476,0,0,0,
,0.429,0.677,1.268,-1303.467,-274.964,234.68,0,0,0,
,0.258,1.005,1.137,-544.983,-394.776,237.548,0,0,0,
,-0.022,0.767,0.954,307.434,-331.116,0.976,0,0,0,
,-0.14,0.421,0.867,706.97,-108.033,-176.026,0,0,0,
,-0.119,0.334,0.675,708.252,96.374,-189.881,0,0,0,
,-0.123,0.372,0.401,806.03,-21.912,-392.334,0,0,0,
,-0.177,0.152,0.331,886.413,23.193,-449.158,0,0,0,
,-0.152,-0.016,0.462,803.161,120.056,-380.494,0,0,0,
,-0.063,-0.075,0.636,431.274,333.801,-272.095,0,0,0,
,0.092,0.066,0.798,-80.933,534.484,-127.442,0,0,0,
,0.314,0.413,0.995,-532.349,608.825,30.151,0,0,0,
,0.501,0.777,1.134,-675.965,484.375,189.819,0,0,0,
,0.629,0.947,1.273,-416.932,273.01,291.381,0,0,0,
,0.664,0.639,1.36,-11.414,63.598,239.746,0,0,0,
,0.61,0.117,1.377,75.5,-132.386,178.466,0,0,0,
,0.514,-0.106,1.223,-220.581,-293.152,289.978,0,0,0,
,0.205,0.263,1.013,-126.343,-351.258,186.157,0,0,0,
,-0.026,0.166,0.921,298.339,-273.072,-58.472,0,0,0,
,-0.25,0.05,0.841,522.033,-15.931,-162.476,0,0,0,
,-0.265,0.212,0.745,566.65,260.803,-253.54,0,0,0,
,-0.122,0.43,0.619,701.599,400.512,-348.999,0,0,0,
,0.016,0.198,0.424,871.399,311.279,-418.396,0,0,0,
,0.01,-0.208,0.33,541.626,16.54,-296.387,0,0,0,
,-0.017,0.111,0.82,-588.685,-402.771,31.555,0,0,0,
,-0.172,0.621,1.099,-796.265,-193.299,120.178,0,0,0,
,-0.041,0.777,1.103,-311.524,358.703,206.482,0,0,0,
,0.248,0.601,0.981,-192.322,581.298,115.295,0,0,0,
,0.461,0.333,0.908,-256.592,469.665,182.434,0,0,0,
,0.53,-0.007,1.172,-355.347,100.219,172.18,0,0,0,
,0.468,-0.174,1.411,-773.682,-141.541,243.042,0,0,0,
,0.418,0.27,1.471,-1186.646,-164.734,385.437,0,0,0,
,0.431,1.047,1.372,-802.247,-77.027,465.881,0,0,0,
,0.345,0.893,1.125,462.585,-84.168,50.293,0,0,0,
,0.167,0.023,0.875,980.59,-246.705,-271.424,0,0,0,
,-0.075,-0.31,0.7,629.089,-362.915,-215.027,0,0,0,
,-0.34,-0.041,0.691,222.656,-283.631,-164.917,0,0,0,
,-0.356,0.44,0.644,155.883,162.536,-228.882,0,0,0,
,-0.096,0.478,0.388,510.315,471.74,-362.732,0,0,0,
,0.078,0.142,0.488,689.941,259.582,-429.2,0,0,0,
,0.084,-0.133,0.631,471.862,222.412,-305.787,0,0,0,
,0.124,-0.142,0.898,-92.225,260.62,-134.827,0,0,0,
,0.249,0.176,1.122,-712.952,380.31,40.161,0,0,0,
,0.445,0.629,1.207,-904.602,383.728,171.447,0,0,0,
,0.609,0.851,1.333,-735.169,245.727,249.817,0,0,0,
,0.721,0.81,1.37,-420.96,6.53,279.846,0,0,0,
,0.69,0.505,1.253,-53.772,-248.475,240.6,0,0,0,
,0.545,0.155,1.167,123.596,-457.642,165.649,0,0,0,
,0.281,0.021,1.08,232.116,-579.529,164.489,0,0,0,
,-0.054,0.138,1.012,354.98,-460.938,131.225,0,0,0,
,-0.206,0.26,0.971,543.09,-15.992,-8.118,0,0,0,
,-0.073,0.34,0.737,707.702,272.155,-180.664,0,0,0,
,0.032,0.274,0.597,911.56,210.754,-303.589,0,0,0,
,0.016,-0.006,0.548,1073.303,143.798,-376.099,0,0,0,
,0.009,-0.353,0.561,850.219,32.104,-452.942,0,0,0,
,0.122,-0.252,0.61,306.518,-84.473,-369.629,0,0,0,
,0.173,0.158,0.731,-116.7,-241.211,-202.393,0,0,0,
,0.141,0.472,0.833,-352.601,-343.811,-5.433,0,0,0,
,0.102,0.621,0.932,-373.658,-328.736,78.43,0,0,0,
,0.089,0.52,0.996,-337.586,-201.111,142.334,0,0,0,
,0.157,0.247,1.1,-364.441,-16.419,198.059,0,0,0,
,0.28,0.033,1.242,-565.918,97.473,219.482,0,0,0,
,0.404,0.069,1.424,-781.189,3.234,274.78,0,0,0,
,0.432,0.751,1.498,-436.341,-156.617,415.771,0,0,0,
,0.265,0.48,1.252,244.567,-255.86,181.579,0,0,0,
,-0.014,0.05,1.086,596.13,-381.104,41.137,0,0,0,
,-0.328,-0.11,0.881,648.864,-155.945,-23.621,0,0,0,
,-0.359,-0.002,0.708,603.027,215.881,-255.066,0,0,0,
,-0.208,0.245,0.493,778.198,367.431,-382.752,0,0,0,
,-0.12,0.168,0.37,981.201,250.854,-515.87,0,0,0,
,-0.109,-0.037,0.428,908.935,96.679,-547.913,0,0,0,
,-0.056,-0.206,0.663,575.012,75.683,-434.51,0,0,0,
,0.054,-0.126,0.924,47.302,155.578,-223.084,0,0,0,
,0.239,0.19,1.127,-549.744,191.528,-39.368,0,0,0,
,0.385,0.577,1.174,-782.837,134.765,129.577,0,0,0,
,0.469,0.603,1.249,-565.369,-21.851,122.009,0,0,0,
,0.427,0.217,1.298,-477.723,-175.049,223.571,0,0,0,
,0.371,-0.003,1.292,-798.035,-274.353,321.411,0,0,0,
,0.369,0.181,1.282,-1124.878,-292.725,431.335,0,0,0,
,0.356,0.532,1.279,-914.917,-207.398,517.944,0,0,0,
,0.269,0.559,1.224,-102.601,-97.413,400.634,0,0,0,
,0.097,0.12,1.103,483.276,-1.893,156.433,0,0,0,
,0.006,-0.125,1.003,675.903,84.838,4.577,0,0,0,
,-0.112,-0.097,0.753,624.572,125,-148.804,0,0,0,
,-0.139,0.192,0.594,700.927,67.138,-297.059,0,0,0,
,-0.161,0.247,0.454,973.571,125.732,-391.907,0,0,0,
,-0.143,-0.144,0.354,924.682,35.644,-495.24,0,0,0,
,-0.085,-0.263,0.44,493.713,-49.927,-378.846,0,0,0,
,-0.003,-0.128,0.723,-42.359,-72.51,-247.559,0,0,0,
,0.097,0.154,1.018,-582.825,-101.441,-54.322,0,0,0,
,0.18,0.555,1.161,-794.8,-65.003,154.113,0,0,0,
,0.222,0.609,1.265,-555.848,-64.515,163.391,0,0,0,
,0.242,0.262,1.314,-461.853,-109.681,188.842,0,0,0,
,0.308,0.062,1.347,-765.931,-171.814,287.78,0,0,0,
,0.333,0.246,1.39,-998.963,-246.155,397.827,0,0,0,
,0.362,0.597,1.428,-763.672,-263.672,482.422,0,0,0,
,0.347,0.87,1.341,-11.536,-131.348,476.501,0,0,0,
,0.212,0.543,1.174,892.028,-111.39,262.085,0,0,0,
,-0.026,-0.083,1.075,1158.203,-130.799,21.24,0,0,0,
,-0.194,-0.323,0.92,960.632,-12.696,-76.172,0,0,0,
,-0.26,-0.272,0.739,737.121,169.738,-270.935,0,0,0,
,-0.238,-0.239,0.5,618.835,255.676,-348.572,0,0,0,
,-0.205,-0.28,0.418,360.046,162.475,-469.605,0,0,0,
,-0.191,-0.212,0.59,30.395,-3.785,-464.539,0,0,0,
,-0.168,0.136,0.834,-282.593,-102.723,-333.863,0,0,0,
,-0.16,0.431,1.003,-392.334,-74.158,-186.768,0,0,0,
,-0.132,0.445,1.06,-280.457,102.539,-124.512,0,0,0,
,-0.056,0.276,1.038,-261.963,257.812,-69.336,0,0,0,
,0.071,0.106,0.996,-421.082,394.714,2.624,0,0,0,
,0.249,-0.038,1.062,-718.75,453.674,8.972,0,0,0,
,0.386,-0.094,1.175,-1054.2,373.23,63.598,0,0,0,
,0.468,0.085,1.306,-1375.306,141.723,143.005,0,0,0,
,0.461,0.48,1.342,-1368.287,-124.39,199.524,0,0,0,
,0.332,0.949,1.371,-847.168,-231.995,262.756,0,0,0,
,0.154,0.977,1.218,219.787,-151.49,235.046,0,0,0,
,0.033,0.231,1.049,960.022,-168.641,-94.91,0,0,0,
,-0.163,-0.357,0.92,939.026,-231.812,-232.789,0,0,0,
,-0.378,-0.317,0.863,583.801,-123.291,-171.448,0,0,0,
,-0.362,0.114,0.734,496.826,135.254,-295.166,0,0,0,
,-0.204,0.297,0.44,730.163,-113.099,-496.827,0,0,0,
,-0.24,0.075,0.478,614.38,-106.751,-478.089,0,0,0,
,-0.164,-0.061,0.528,284.607,57.067,-349.976,0,0,0,
,-0.043,-0.043,0.699,-257.386,207.641,-191.468,0,0,0,
,0.131,0.183,0.971,-852.601,361.328,-26.185,0,0,0,
,0.321,0.58,1.207,-1267.579,444.58,143.676,0,0,0,
,0.53,0.86,1.416,-1211.548,380.92,233.215,0,0,0,
,0.684,0.828,1.625,-927.735,194.824,254.394,0,0,0,
,0.726,0.768,1.72,-580.628,-113.465,406.921,0,0,0,
,0.577,0.632,1.559,-64.698,-293.335,404.297,0,0,0,
,0.33,0.381,1.332,345.031,-252.991,373.474,0,0,0,
,-0.066,0.118,1.089,608.764,-207.581,285.339,0,0,0,
,-0.319,-0.205,0.924,885.62,77.148,39.733,0,0,0,
,-0.363,-0.485,0.472,778.442,403.076,-272.4,0,0,0,
,-0.286,-0.435,0.293,408.569,329.162,-449.097,0,0,0,
,-0.21,0.011,0.365,173.889,173.523,-489.258,0,0,0,
,-0.248,0.229,0.43,-2.137,48.156,-538.025,0,0,0,
,-0.204,0.411,0.565,-116.211,106.567,-453.675,0,0,0,
,-0.011,0.484,0.808,160.644,308.044,-333.008,0,0,0,
,0.175,0.336,0.937,416.442,411.255,-229.432,0,0,0,
,0.326,0.071,0.997,212.463,432.495,-147.95,0,0,0,
,0.491,0.069,1.041,-316.834,340.82,87.707,0,0,0,
,0.599,0.316,1.135,-886.902,99.67,254.943,0,0,0,
,0.654,0.534,1.278,-977.54,-219.849,366.76,0,0,0,
,0.549,0.502,1.446,-699.891,-501.343,368.713,0,0,0,
,0.377,0.263,1.583,-385.376,-622.376,349.06,0,0,0,
,0.233,0.167,1.458,-92.957,-434.266,327.88,0,0,0,
,0.154,0.134,1.229,352.6,-177.185,211.181,0,0,0,
,0.053,-0.006,0.894,651.123,-129.212,-66.712,0,0,0,
,-0.148,-0.027,0.697,598.632,-252.808,-242.554,0,0,0,
,-0.311,0.378,0.426,515.075,-209.839,-262.146,0,0,0,
,-0.308,0.406,0.334,674.499,-55.298,-476.38,0,0,0,
,-0.242,0.198,0.303,679.504,86.608,-439.759,0,0,0,
,-0.133,0.052,0.478,540.954,186.218,-399.414,0,0,0,
,0.011,0.035,0.765,247.131,325.622,-208.924,0,0,0,
,0.19,0.05,0.979,-42.908,542.968,-147.339,0,0,0,
,0.394,0.104,1.116,-384.034,586.975,-92.102,0,0,0,
,0.636,0.269,1.242,-639.222,380.737,28.32,0,0,0,
,0.713,0.391,1.467,-737.977,-86.304,127.868,0,0,0,
,0.543,0.422,1.56,-701.111,-519.837,280.395,0,0,0,
,0.318,0.445,1.491,-597.352,-612.427,351.196,0,0,0,
,0.16,0.47,1.284,-305.298,-461.243,338.745,0,0,0,
,0.092,0.239,1.073,150.879,-361.206,225.158,0,0,0,
,0.046,-0.107,1.053,450.073,-308.411,65.795,0,0,0,
,-0.071,-0.324,1.076,422.363,-257.019,-4.7,0,0,0,
,-0.286,-0.066,1.073,317.932,-172.608,10.986,0,0,0,
,-0.337,0.304,1.104,425.109,63.537,-98.877,0,0,0,
,-0.251,0.526,0.816,689.148,176.88,-279.602,0,0,0,
,-0.256,0.36,0.573,947.754,92.224,-434.815,0,0,0,
,-0.251,0.019,0.345,1045.898,232.238,-450.745,0,0,0,
,-0.077,-0.284,0.298,723.083,201.049,-505.616,0,0,0,
,0.018,-0.282,0.415,149.78,55.297,-346.68,0,0,0,
,0.104,0.001,0.659,-365.662,-18.372,-129.09,0,0,0,
,0.193,0.344,0.893,-716.248,-49.744,48.889,0,0,0,
,0.254,0.615,1.041,-732.056,26.672,151.123,0,0,0,
,0.277,0.468,1.208,-461.609,53.711,133.056,0,0,0,
,0.311,0.046,1.361,-494.141,73.852,172.729,0,0,0,
,0.353,-0.245,1.472,-928.772,20.568,242.553,0,0,0,
,0.386,-0.025,1.508,-1442.444,-121.521,346.679,0,0,0,
,0.407,0.626,1.628,-1309.388,-204.285,521.545,0,0,0,
,0.395,1.092,1.476,-277.405,-99.244,534.546,0,0,0,
,0.197,0.317,1.226,728.637,-350.525,176.147,0,0,0,
,-0.23,-0.325,1.109,885.681,-554.81,-25.818,0,0,0,
,-0.539,-0.167,0.975,579.284,-233.338,53.894,0,0,0,
,-0.403,0.201,0.652,583.862,153.625,-304.078,0,0,0,
,-0.215,0.41,0.404,934.265,132.263,-383.728,0,0,0,
,-0.287,0.275,0.203,1184.448,-2.381,-483.46,0,0,0,
,-0.297,-0.125,0.209,1179.138,1.831,-567.566,0,0,0,
,-0.207,-0.402,0.418,831.726,95.214,-446.228,0,0,0,
,-0.069,-0.368,0.77,214.599,207.763,-273.804,0,0,0,
,0.064,-0.11,0.982,-456.238,379.333,-92.957,0,0,0,
,0.241,0.314,1.265,-932.19,398.254,17.761,0,0,0,
,0.464,0.679,1.478,-1026.734,304.87,156.677,0,0,0,
,0.586,0.708,1.546,-659.852,99.304,198.12,0,0,0,
,0.567,0.252,1.698,-206.177,-231.385,140.503,0,0,0,
,0.453,0.105,1.689,-334.473,-476.014,302.063,0,0,0,
,0.283,0.395,1.5,-107.3,-490.784,417.236,0,0,0,
,0.049,0.201,1.218,567.871,-370.362,222.107,0,0,0,
,-0.323,-0.246,0.863,846.435,-265.564,101.806,0,0,0,
,-0.575,-0.389,0.62,760.498,85.815,-56.824,0,0,0,
,-0.443,-0.067,0.315,680.42,470.581,-163.208,0,0,0,
,-0.275,0.159,0.073,862.121,374.878,-366.517,0,0,0,
,-0.271,-0.084,0.18,902.282,97.9,-460.694,0,0,0,
,-0.037,-0.196,0.803,674.011,-69.397,-371.46,0,0,0,
,-0.107,-0.479,0.688,65.979,34.118,-90.76,0,0,0,
,0.149,0.036,1.171,-1271.607,-213.074,-32.898,0,0,0,
,0.103,0.645,1.407,-1273.072,-78.858,218.628,0,0,0,
,0.169,0.494,1.484,-411.56,318.847,138.122,0,0,0,
,0.445,-0.097,1.605,-282.776,416.381,80.749,0,0,0,
,0.676,-0.24,1.623,-811.89,138.061,237.915,0,0,0,
,0.746,0.327,1.566,-1024.72,-332.398,477.661,0,0,0,
,0.462,0.62,1.377,-441.529,-700.196,432.312,0,0,0,
,-0.079,0.174,1.177,226.318,-806.092,292.297,0,0,0,
,-0.644,-0.171,1.019,612.06,-461.243,277.954,0,0,0,
,-0.626,-0.423,0.842,583.801,417.602,-51.087,0,0,0,
,-0.272,-0.269,0.421,394.348,626.77,-157.776,0,0,0,
,-0.228,0.026,0.386,455.261,166.259,-208.619,0,0,0,
,-0.434,0.081,0.579,570.556,45.776,-318.055,0,0,0,
,-0.346,0.063,0.584,516.662,212.89,-433.106,0,0,0,
,-0.12,0.006,0.604,368.164,119.14,-435.364,0,0,0,
,-0.038,-0.015,0.741,144.409,-12.024,-276.246,0,0,0,
,-0.002,-0.071,0.823,-101.075,9.704,-171.265,0,0,0,
,0.077,-0.085,1.021,-427.857,149.536,-72.937,0,0,0,
,0.213,0.054,1.201,-809.388,266.235,30.761,0,0,0,
,0.409,0.244,1.437,-1079.651,233.093,84.777,0,0,0,
,0.552,0.344,1.645,-1217.591,-18.555,209.838,0,0,0,
,0.552,0.416,1.809,-1139.893,-376.893,426.88,0,0,0,
,0.422,0.612,1.776,-925.049,-520.997,654.235,0,0,0,
,0.192,0.986,1.458,-273.072,-274.048,780.09,0,0,0,
,0.035,0.434,0.918,625.549,-13.062,301.941,0,0,0,
,-0.264,-0.409,0.559,1135.315,-117.859,142.089,0,0,0,
,-0.644,-0.738,0.363,1045.227,234.924,99.792,0,0,0,
,-0.445,-0.533,0.219,720.703,522.277,-205.689,0,0,0,
,-0.285,-0.069,0.378,797.668,337.768,-396.424,0,0,0,
,-0.318,0.079,0.539,867.248,191.955,-539.002,0,0,0,
,-0.156,-0.14,0.81,603.454,-71.167,-540.223,0,0,0,
,0.017,-0.236,1.029,166.137,-85.816,-424.134,0,0,0,
,0.139,-0.09,1.212,-395.203,-164.734,-108.765,0,0,0,
,0.144,0.303,1.362,-926.392,-210.328,25.207,0,0,0,
,0.238,0.607,1.526,-879.395,-105.103,191.284,0,0,0,
,0.381,0.531,1.668,-540.101,-110.535,309.448,0,0,0,
,0.377,0.249,1.599,-261.17,-218.262,446.777,0,0,0,
,0.063,0.188,1.416,-80.262,-253.602,671.325,0,0,0,
,-0.154,0.128,1.244,319.824,45.776,531.311,0,0,0,
,-0.136,-0.195,0.851,759.033,412.475,249.267,0,0,0,
,-0.142,-0.629,0.578,868.591,302.185,-0.733,0,0,0,
,-0.342,-0.504,0.568,724.365,314.148,-161.072,0,0,0,
,-0.211,-0.196,0.394,747.192,435.18,-518.677,0,0,0,
,-0.193,-0.314,0.419,750.061,270.568,-527.588,0,0,0,
,-0.095,-0.251,0.786,495.3,144.409,-489.685,0,0,0,
,0.168,-0.269,1.27,88.317,150.634,-363.16,0,0,0,
,0.222,-0.105,1.105,-636.963,-124.268,-77.698,0,0,0,
,0.212,0.175,1.335,-1109.498,-459.229,28.869,0,0,0,
,0.113,0.21,1.412,-998.597,-303.101,198.486,0,0,0,
,0.202,-0.076,1.479,-958.374,-115.479,184.204,0,0,0,
,0.39,-0.266,1.573,-1197.999,-195.557,265.625,0,0,0,
,0.286,0.179,1.481,-1209.29,-420.716,702.942,0,0,0,
,-0.176,0.416,1.372,-419.312,-247.742,539.917,0,0,0,
,-0.306,0.06,1.038,294.067,296.997,147.094,0,0,0,
,-0.182,-0.251,0.571,537.414,350.586,-135.865,0,0,0,
,-0.334,-0.171,0.571,634.277,176.269,-264.161,0,0,0,
,-0.411,0.356,0.469,930.908,368.103,-468.384,0,0,0,
,-0.283,-0.002,0.35,1093.017,440.673,-636.414,0,0,0,
,-0.14,-0.203,0.458,915.893,297.668,-552.002,0,0,0,
,-0.019,-0.322,0.711,532.104,143.554,-462.098,0,0,0,
,0.152,-0.17,1.032,1.525,-38.269,-334.046,0,0,0,
,0.251,0.163,1.141,-393.067,-196.167,-105.469,0,0,0,
,0.216,0.32,1.168,-561.463,-436.28,-17.273,0,0,0,
,0.135,0.184,1.31,-447.632,-445.069,136.596,0,0,0,
,0.083,-0.048,1.252,-522.278,-266.297,203.064,0,0,0,
,0.146,-0.234,1.306,-923.401,-212.891,284.973,0,0,0,
,0.183,-0.123,1.402,-1195.191,-236.084,420.288,0,0,0,
,0.152,0.349,1.532,-997.62,-241.822,574.768,0,0,0,
,0.071,0.384,1.424,-187.317,-20.325,412.048,0,0,0,
,-0.09,-0.141,1.224,360.901,6.713,216.003,0,0,0,
,-0.259,-0.314,1.109,427.246,102.356,159.24,0,0,0,
,-0.32,-0.107,0.943,450.866,261.474,-69.519,0,0,0,
,-0.305,0.073,0.686,718.994,361.206,-299.5,0,0,0,
,-0.314,0.116,0.533,957.641,355.346,-426.087,0,0,0,
,-0.325,-0.194,0.351,916.687,431.823,-603.028,0,0,0,
,-0.157,-0.437,0.325,630.981,338.684,-572.388,0,0,0,
,-0.005,-0.429,0.628,95.153,114.074,-405.579,0,0,0,
,0.094,-0.035,0.798,-565.125,-234.864,-236.451,0,0,0,
,0.052,0.429,1.02,-961.548,-495.118,-251.526,0,0,0,
,-0.002,0.475,1.138,-756.897,-299.317,-150.391,0,0,0,
,0.179,0.191,1.235,-397.889,-109.192,-34.363,0,0,0,
,0.173,-0.236,1.072,-628.724,-79.773,58.898,0,0,0,
,0.158,-0.134,1.295,-1245.972,-108.704,286.682,0,0,0,
,0.209,0.61,1.501,-1423.707,-84.29,455.383,0,0,0,
,0.338,0.827,1.518,-583.252,-33.57,397.949,0,0,0,
,0.144,0.008,1.395,-70.374,-236.512,233.093,0,0,0,
,-0.255,-0.005,1.376,46.63,-202.881,381.286,0,0,0,
,-0.337,0.104,1.262,377.746,301.513,185.18,0,0,0,
,-0.191,-0.073,0.898,624.572,407.348,-75.379,0,0,0,
,-0.304,-0.011,0.796,779.48,209.594,-170.105,0,0,0,
,-0.512,0.12,0.598,996.46,358.215,-363.038,0,0,0,
,-0.369,-0.083,0.297,1025.817,547.973,-575.623,0,0,0,
,-0.204,-0.237,0.377,764.648,311.584,-605.225,0,0,0,
,-0.211,-0.556,0.054,58.349,-30.152,-276.246,0,0,0,
,-0.242,0.554,0.727,-1082.154,-745.789,-174.256,0,0,0,
,-0.323,0.684,0.941,-611.634,-189.454,-176.697,0,0,0,
,-0.148,0.274,1.05,-189.026,422.79,-154.541,0,0,0,
,0.272,0.036,1.152,-282.776,575.256,44.738,0,0,0,
,0.542,0.044,1.347,-495.667,323.791,241.272,0,0,0,
,0.614,0.072,1.482,-659.607,50.903,285.339,0,0,0,
,0.559,0.089,1.626,-708.741,-256.043,379.882,0,0,0,
,0.406,0.171,1.71,-686.28,-454.102,400.634,0,0,0,
,0.225,0.434,1.585,-516.297,-490.906,476.013,0,0,0,
,-0.025,0.52,1.435,119.69,-425.66,415.954,0,0,0,
,-0.309,0.114,1.09,846.984,-109.498,250.061,0,0,0,
,-0.482,-0.274,0.684,982.788,167.968,-2.991,0,0,0,
,-0.485,-0.289,0.399,775.329,331.604,-202.149,0,0,0,
,-0.221,-0.063,0.484,268.005,138.733,-478.638,0,0,0,
,-0.11,0.059,0.794,43.273,119.079,-328.248,0,0,0,
,-0.01,0.11,1.087,-208.191,147.522,-192.81,0,0,0,
,0.122,0.241,1.306,-425.232,211.609,37.841,0,0,0,
,0.27,0.361,1.381,-530.396,271.118,179.382,0,0,0,
,0.438,0.315,1.381,-579.102,222.961,227.844,0,0,0,
,0.567,0.198,1.331,-656.128,-2.32,317.688,0,0,0,
,0.536,0.075,1.278,-787.415,-372.742,384.521,0,0,0,
,0.264,0.131,1.206,-952.393,-702.454,506.347,0,0,0,
,-0.075,0.233,1.226,-804.322,-732.605,488.891,0,0,0,
,-0.407,0.213,1.251,-339.661,-414.246,287.841,0,0,0,
,-0.388,-0.011,1.155,277.282,39.001,73.425,0,0,0,
,-0.518,0.053,0.797,539.795,19.409,-377.747,0,0,0,
,-0.484,0.317,0.611,775.817,277.71,-512.757,0,0,0,
,-0.344,0.189,0.478,888.855,353.027,-619.69,0,0,0,
,-0.199,-0.021,0.522,572.754,287.658,-509.095,0,0,0,
,0.175,0.324,1.086,-1039.978,228.21,110.717,0,0,0,
,0.296,0.615,1.286,-1208.558,234.008,263.733,0,0,0,
,0.414,0.576,1.472,-1040.589,146.911,230.041,0,0,0,
,0.462,0.334,1.54,-856.324,-0.428,227.661,0,0,0,
,0.419,0.284,1.502,-742.737,-158.02,269.836,0,0,0,
,-0.211,-0.101,1.054,506.836,-152.222,-125.245,0,0,0,
,-0.337,-0.195,0.951,656.677,-3.479,-259.644,0,0,0,
,-0.475,0.053,0.709,588.867,33.935,-326.722,0,0,0,
,-0.504,0.27,0.471,753.234,163.757,-479.615,0,0,0,
,-0.44,0.056,0.309,926.086,269.226,-610.352,0,0,0,
,0.019,0.264,0.814,-644.165,295.471,-157.654,0,0,0,
,0.271,0.83,1.104,-886.048,456.237,127.685,0,0,0,
,0.483,0.83,1.313,-449.28,418.09,102.111,0,0,0,
,0.572,0.184,1.46,-325.745,237.304,-0.428,0,0,0,
,0.62,0.011,1.376,-1010.254,71.533,344.116,0,0,0,
,0.649,0.476,1.322,-1267.64,-183.472,480.163,0,0,0,
,0.526,0.767,1.35,-727.417,-375.061,417.785,0,0,0,
,0.254,0.457,1.248,179.992,-468.079,241.699,0,0,0,
,-0.118,0.031,1.077,695.617,-469.666,1.525,0,0,0,
,-0.42,-0.275,0.983,806.457,-275.147,-121.155,0,0,0,
,-0.521,-0.106,0.815,621.276,4.394,-195.008,0,0,0,
,-0.496,0.209,0.59,509.643,95.092,-347.474,0,0,0,
,-0.484,0.239,0.365,626.77,145.324,-401.856,0,0,0,
,-0.357,0.013,0.366,627.746,186.279,-473.572,0,0,0,
,-0.263,-0.022,0.504,157.043,197.937,-268.128,0,0,0,
,-0.091,0.211,0.69,-372.01,330.505,-76.233,0,0,0,
,0.13,0.499,0.849,-699.158,502.502,82.092,0,0,0,
,0.345,0.603,1.054,-765.015,559.021,130.432,0,0,0,
,0.556,0.374,1.343,-790.039,431.945,113.891,0,0,0,
,0.66,0.153,1.542,-1157.105,195.617,246.46,0,0,0,
,0.658,0.343,1.552,-1455.506,-134.034,432.006,0,0,0,
,0.482,0.776,1.389,-1250.245,-321.656,492.492,0,0,0,
,0.336,0.974,1.246,-515.809,-216.736,441.101,0,0,0,
,0.204,0.668,1.087,296.081,-88.257,271.484,0,0,0,
,0.055,0.055,1.025,698.852,-339.295,-127.137,0,0,0,
,-0.329,-0.244,0.937,638.794,-448.67,-122.803,0,0,0,
,-0.611,-0.142,0.826,658.386,-197.754,-193.055,0,0,0,
,-0.539,0.047,0.584,566.772,127.136,-459.717,0,0,0,
,-0.408,0.368,0.263,535.522,204.04,-441.163,0,0,0,
,-0.315,0.435,0.183,655.822,95.275,-504.212,0,0,0,
,-0.252,0.191,0.317,703.979,54.626,-510.376,0,0,0,
,-0.151,0.009,0.639,327.819,177.246,-374.634,0,0,0,
,0.018,0.166,0.906,-408.02,515.686,-127.198,0,0,0,
,0.284,0.7,1.116,-938.416,792.541,153.381,0,0,0,
,0.633,1.169,1.212,-944.947,802.246,362.976,0,0,0,
,0.909,1.11,1.366,-474.549,440.796,357.971,0,0,0,
,0.916,0.544,1.431,-215.149,40.405,419.433,0,0,0,
,0.713,0.175,1.193,-391.785,-315.369,564.148,0,0,0,
,0.511,0.152,1.077,-589.051,-462.098,492.736,0,0,0,
,0.265,0.29,0.994,-462.769,-370.118,454.712,0,0,0,
,0.021,0.518,0.918,50.109,-169.373,436.157,0,0,0,
,-0.147,0.359,1.003,819.824,-87.952,124.511,0,0,0,
,-0.197,0.026,1.05,1216.613,34.423,-9.583,0,0,0,
,-0.233,0.084,0.898,1225.891,23.254,40.222,0,0,0,
,-0.403,0.03,0.666,1299.499,-103.15,-262.085,0,0,0,
,-0.613,-0.302,0.512,1370.178,-137.146,-478.516,0,0,0,
