TIMECODE,ACC_X,ACC_Y,ACC_Z,GYR_X,GYR_Y,GYR_Z,TAG
00:00:00:0,0.04,0.183,0.938,-22.217,-30.335,-29.114,
00:00:00:16,0.016,0.223,0.979,27.343,-37.11,-38.147,
00:00:00:33,0.023,0.193,0.994,38.513,-7.752,-31.067,
00:00:00:50,0.043,0.177,0.997,24.108,-9.644,-16.907,
00:00:00:66,0.044,0.16,0.992,-2.076,-10.071,-8.362,
00:00:00:83,0.03,0.175,0.987,-36.133,-7.142,-12.269,
00:00:00:100,0.024,0.215,0.988,-44.068,-1.648,-7.447,
00:00:00:116,0.014,0.224,0.987,-23.621,-0.428,-8.484,
00:00:00:133,0.024,0.197,0.983,-11.353,5.859,-12.818,
00:00:00:150,0.037,0.191,0.995,-8.362,4.272,-20.691,
00:00:00:166,0.03,0.192,0.979,-16.236,2.197,-29.236,
00:00:00:183,0.033,0.203,0.996,-22.034,2.441,-42.054,
00:00:00:200,0.032,0.213,0.985,-25.025,-0.916,-47.486,
00:00:00:216,0.024,0.23,0.977,16.845,1.403,-36.744,
00:00:00:233,0.02,0.205,0.992,40.832,5.615,-24.659,
00:00:00:250,0.028,0.17,0.984,43.396,8.911,-20.752,
00:00:00:266,0.03,0.169,0.989,28.259,10.681,-17.151,
00:00:00:283,0.035,0.171,0.989,8.728,11.962,-24.537,
00:00:00:300,0.028,0.188,0.992,-6.043,17.15,-26.185,
00:00:00:316,0.029,0.204,0.992,-7.935,18.432,-31.311,
00:00:00:333,0.028,0.212,0.997,16.235,18.31,-40.467,
00:00:00:350,0.012,0.197,0.978,-5.249,4.638,-32.898,
00:00:00:366,0.034,0.207,1.001,-36.194,22.949,-53.406,
00:00:00:383,0.038,0.194,0.977,-87.464,-3.54,-39.063,
00:00:00:400,0.007,0.302,1.002,-193.116,-11.17,-12.085,
00:00:00:416,0.045,0.197,0.986,-83.497,20.629,-58.533,
00:00:00:433,0.03,0.203,0.978,-99.366,-26.612,-34.424,
00:00:00:450,0.001,0.231,0.977,-67.505,-8.362,-52.308,
00:00:00:466,0.03,0.225,0.975,-51.636,5.371,-47.852,
00:00:00:483,0.028,0.208,0.982,-39.063,-6.409,-59.998,
00:00:00:500,0.02,0.219,0.977,-45.533,0.061,-62.439,
00:00:00:516,0.041,0.234,0.978,-20.63,3.112,-62.623,
00:00:00:533,0.018,0.222,1.006,-4.029,-7.996,-57.129,
00:00:00:550,0.02,0.2,0.983,-10.132,6.164,-51.087,
00:00:00:566,0.029,0.209,0.972,-22.522,6.164,-51.026,
00:00:00:583,0.02,0.222,0.99,-22.461,2.807,-49.317,
00:00:00:600,0.02,0.214,0.991,-22.461,8.239,-47.913,
00:00:00:616,0.025,0.208,0.987,-30.274,9.46,-49.988,
00:00:00:633,0.029,0.206,0.984,-63.782,-7.447,-60.059,
00:00:00:650,0.032,0.196,0.999,-102.112,-21.607,-63.172,
00:00:00:666,0.034,0.194,0.989,-150.391,-33.204,-61.89,
00:00:00:683,0.031,0.223,0.997,-200.989,-51.514,-50.171,
00:00:00:700,0.026,0.23,0.992,-216.675,-60.791,-49.622,
00:00:00:716,0.009,0.283,0.985,-178.956,-66.834,-79.834,
00:00:00:733,0.003,0.291,0.972,-136.109,-66.712,-73.426,
00:00:00:750,0.001,0.295,0.959,-101.624,-58.106,-74.097,
00:00:00:766,-0.007,0.281,0.951,-50.11,-43.824,-68.97,
00:00:00:783,-0.006,0.256,0.969,-17.273,-27.771,-66.712,
00:00:00:800,0.01,0.238,0.962,-20.691,-7.691,-61.463,
00:00:00:816,0.01,0.234,0.956,-32.959,-0.306,-53.406,
00:00:00:833,0.006,0.244,0.964,-41.138,10.742,-44.19,
00:00:00:850,0.004,0.258,0.972,-46.936,19.226,-36.683,
00:00:00:866,0.002,0.269,0.97,-46.509,21.667,-27.71,
00:00:00:883,0,0.264,0.972,4.15,21.972,-18.128,
00:00:00:900,0.01,0.239,0.978,-12.024,23.254,-18.921,
00:00:00:916,0.02,0.183,0.978,-112.915,16.662,-19.288,
00:00:00:933,0.015,0.229,0.959,-221.985,5.004,-17.334,
00:00:00:950,0.011,0.268,0.939,-265.625,9.46,-20.935,
00:00:00:966,-0.007,0.335,0.946,-159.241,42.297,-61.829,
00:00:00:983,0.01,0.349,0.957,-115.113,61.523,-50.232,
00:00:01:0,0.012,0.324,0.957,-77.576,51.635,-55.054,
00:00:01:16,0.013,0.31,0.969,-66.712,45.471,-58.411,
00:00:01:33,0.026,0.315,0.967,-65.674,45.715,-50.782,
00:00:01:50,0.035,0.319,0.969,-70.069,30.212,-40.772,
00:00:01:66,0.031,0.325,0.954,-64.637,17.028,-30.396,
00:00:01:83,0.022,0.338,0.962,-51.392,2.868,-35.645,
00:00:01:100,0.016,0.331,0.961,-38.697,-2.503,-30.884,
00:00:01:116,0.013,0.324,0.951,-29.114,-1.893,-32.166,
00:00:01:133,0.013,0.334,0.947,-35.157,4.76,-25.818,
00:00:01:150,0.009,0.34,0.947,-17.823,15.319,-19.715,
00:00:01:166,0.015,0.323,0.947,-9.095,21.179,-24.476,
00:00:01:183,0.017,0.303,0.954,-18.616,18.432,-27.649,
00:00:01:200,0.019,0.311,0.96,-38.331,19.714,-28.382,
00:00:01:216,0.022,0.322,0.955,-47.974,20.752,-28.382,
00:00:01:233,0.022,0.332,0.949,-45.044,10.62,-29.969,
00:00:01:250,0.024,0.339,0.952,-12.574,11.047,-34.79,
00:00:01:266,0.025,0.319,0.948,-9.4,2.746,-39.002,
00:00:01:283,0.019,0.315,0.953,-22.644,-1.343,-39.917,
00:00:01:300,0.018,0.326,0.946,-34.119,7.08,-40.406,
00:00:01:316,0.017,0.333,0.947,-27.894,6.469,-41.81,
00:00:01:333,0.017,0.338,0.953,-21.668,9.704,-40.528,
00:00:01:350,0.022,0.331,0.949,-19.349,12.817,-32.593,
00:00:01:366,0.021,0.337,0.95,-16.541,7.934,-33.997,
00:00:01:383,0.022,0.343,0.951,-6.592,12.817,-34.18,
00:00:01:400,0.019,0.327,0.952,-3.602,11.596,-36.927,
00:00:01:416,0.024,0.328,0.956,-5.249,9.033,-35.096,
00:00:01:433,0.018,0.327,0.949,-6.897,5.676,-33.692,
00:00:01:450,0.016,0.336,0.952,-4.395,5.859,-33.204,
00:00:01:466,0.019,0.331,0.947,2.99,9.826,-27.955,
00:00:01:483,0.024,0.32,0.952,3.418,6.164,-30.762,
00:00:01:500,0.023,0.322,0.953,1.464,6.774,-26.673,
00:00:01:516,0.016,0.318,0.951,-6.592,4.394,-28.87,
00:00:01:533,0.015,0.326,0.952,-12.33,7.934,-28.382,
00:00:01:550,0.017,0.324,0.952,-17.884,7.69,-33.265,
00:00:01:566,0.015,0.331,0.956,-16.541,8.911,-30.823,
00:00:01:583,0.016,0.326,0.946,-11.597,7.446,-32.593,
00:00:01:600,0.017,0.331,0.949,-7.325,8.606,-32.471,
00:00:01:616,0.022,0.321,0.952,-5.738,9.399,-34.058,
00:00:01:633,0.023,0.318,0.954,-12.574,10.192,-30.274,
00:00:01:650,0.026,0.323,0.944,-14.832,5.981,-30.274,
00:00:01:666,0.02,0.32,0.952,-19.593,4.394,-29.725,
00:00:01:683,0.012,0.323,0.948,-25.269,6.652,-27.832,
00:00:01:700,0.014,0.332,0.95,-27.039,13.855,-28.321,
00:00:01:716,0.018,0.328,0.956,-22.4,11.901,-29.908,
00:00:01:733,0.022,0.32,0.957,-17.884,15.197,-29.969,
00:00:01:750,0.027,0.321,0.956,-20.203,13.732,-26.185,
00:00:01:766,0.027,0.325,0.954,-20.874,7.568,-24.414,
00:00:01:783,0.021,0.332,0.955,-19.471,4.882,-23.011,
00:00:01:800,0.021,0.333,0.952,-13.733,7.873,-24.231,
00:00:01:816,0.02,0.328,0.952,-8.728,7.446,-26.795,
00:00:01:833,0.021,0.323,0.954,-11.841,8.117,-28.87,
00:00:01:850,0.021,0.327,0.952,-14.222,3.54,-28.626,
00:00:01:866,0.02,0.325,0.95,-14.649,4.333,-29.969,
00:00:01:883,0.018,0.327,0.951,-15.87,6.225,-33.448,
00:00:01:900,0.02,0.324,0.957,-12.391,6.836,-31.8,
00:00:01:916,0.022,0.325,0.955,-11.292,5.493,-30.03,
00:00:01:933,0.019,0.319,0.952,-13.733,2.99,-27.588,
00:00:01:950,0.015,0.328,0.944,-14.649,6.408,-28.626,
00:00:01:966,0.016,0.326,0.953,-18.982,9.704,-30.396,
00:00:01:983,0.022,0.323,0.95,-22.583,6.103,-28.931,
00:00:02:0,0.017,0.324,0.952,-22.767,6.713,-25.391,
00:00:02:16,0.016,0.329,0.954,-24.842,8.483,-26.978,
00:00:02:33,0.016,0.331,0.948,-22.706,7.629,-27.466,
00:00:02:50,0.02,0.334,0.946,-17.212,8.667,-30.579,
00:00:02:66,0.018,0.325,0.948,-9.766,5.92,-35.523,
00:00:02:83,0.02,0.319,0.951,-16.724,7.202,-32.898,
00:00:02:100,0.021,0.322,0.95,-20.691,7.263,-36.927,
00:00:02:116,0.017,0.327,0.952,-21.058,8.728,-34.974,
00:00:02:133,0.015,0.325,0.954,-21.546,11.779,-39.307,
00:00:02:150,0.021,0.33,0.949,-20.997,10.864,-35.157,
00:00:02:166,0.018,0.333,0.953,-17.273,8.483,-35.889,
00:00:02:183,0.016,0.328,0.947,-16.297,8.483,-35.706,
00:00:02:200,0.017,0.329,0.953,-11.353,12.023,-39.063,
00:00:02:216,0.02,0.326,0.951,-13.123,10.07,-36.927,
00:00:02:233,0.022,0.325,0.955,-16.114,5.737,-36.927,
00:00:02:250,0.02,0.328,0.954,-16.053,8.972,-34.852,
00:00:02:266,0.021,0.327,0.95,-13.977,9.277,-34.974,
00:00:02:283,0.021,0.328,0.949,-13.489,8.239,-36.499,
00:00:02:300,0.019,0.324,0.95,-12.391,7.812,-39.124,
00:00:02:316,0.019,0.33,0.953,-10.743,9.399,-38.086,
00:00:02:333,0.018,0.33,0.959,-8.484,6.347,-35.767,
00:00:02:350,0.018,0.332,0.947,-1.16,9.216,-26.856,
00:00:02:366,0.023,0.327,0.952,5.249,8.178,-27.588,
00:00:02:383,0.019,0.319,0.951,1.525,6.408,-28.931,
00:00:02:400,0.016,0.321,0.951,-2.93,7.324,-30.64,
00:00:02:416,0.019,0.321,0.958,-6.531,8.483,-31.8,
00:00:02:433,0.02,0.32,0.961,-11.902,6.103,-30.762,
00:00:02:450,0.02,0.327,0.955,-10.437,6.286,-27.894,
00:00:02:466,0.018,0.328,0.958,-10.865,6.164,-26.917,
00:00:02:483,0.029,0.315,0.994,-40.467,12.878,-19.41,
00:00:02:500,0.059,0.242,1.05,-147.095,2.38,4.943,
00:00:02:516,0.145,-0.001,1.362,-877.442,-73.548,207.031,
00:00:02:533,0.3,0.31,1.68,-1002.991,-109.131,325.5,
00:00:02:550,0.45,1.134,1.876,-1020.936,-370.057,565.429,
00:00:02:566,0.507,2.117,1.852,-571.473,-731.202,737.609,
00:00:02:583,0.569,1.564,2.153,459.35,-1186.341,527.16,
00:00:02:600,0.507,0.831,2.255,643.066,-1676.88,621.154,
00:00:02:616,0.433,1.021,2.055,153.198,-1999.085,774.597,
00:00:02:633,0.367,1.181,1.787,1.281,-2000,906.86,
00:00:02:650,0.288,0.99,1.375,194.946,-2000,1088.623,
00:00:02:666,0.196,0.765,1.037,631.286,-2000,1173.339,
00:00:02:683,0.328,0.513,0.677,1060.18,-2000,1174.926,
00:00:02:700,0.551,0.296,0.17,1502.441,-2000,1097.351,
00:00:02:716,0.704,0.088,-0.474,1813.476,-2000,1011.963,
00:00:02:733,0.606,-0.023,-1.11,1811.218,-2000,875.915,
00:00:02:750,0.284,0.014,-1.648,1594.97,-2000,788.513,
00:00:02:766,-0.099,0.092,-2.09,1185.424,-2000,775.39,
00:00:02:783,-0.569,-0.201,-2.167,553.711,-1720.337,734.924,
00:00:02:800,-0.85,-0.74,-2.369,10.803,-531.373,554.138,
00:00:02:816,-0.786,-0.813,-1.886,-363.526,550.476,269.897,
00:00:02:833,-0.505,-0.434,-1.352,-793.091,1490.539,-87.464,
00:00:02:850,-0.376,-0.423,-1.173,-1097.413,1991.882,-484.681,
00:00:02:866,-0.217,-0.314,-1.012,-1318.787,1999.694,-757.569,
00:00:02:883,-0.089,-0.128,-0.702,-1250.855,1999.694,-929.444,
00:00:02:900,-0.072,-0.005,-0.306,-1073.914,1999.694,-980.103,
00:00:02:916,-0.072,0.14,0.164,-1002.015,1999.694,-972.229,
00:00:02:933,-0.046,0.358,0.558,-1089.783,1999.694,-891.785,
00:00:02:950,-0.058,0.402,0.794,-1148.865,1999.694,-826.539,
00:00:02:966,0.035,0.646,1.007,-1086.426,1999.694,-706.91,
00:00:02:983,0.161,1.017,1.333,-525.757,1999.694,-599.61,
00:00:03:0,0.229,0.964,1.848,205.566,1999.694,-561.951,
00:00:03:16,0.251,0.666,2.134,551.147,1983.215,-564.637,
00:00:03:33,0.292,0.339,2.085,319.58,1658.996,-520.752,
00:00:03:50,0.306,0.421,1.922,-61.463,1226.806,-391.48,
00:00:03:66,0.177,0.755,1.735,-114.93,799.377,-251.831,
00:00:03:83,-0.017,0.797,1.624,228.942,535.827,-193.665,
00:00:03:100,-0.087,0.567,1.546,573.425,411.621,-203.37,
00:00:03:116,-0.093,0.208,1.368,567.199,309.814,-210.938,
00:00:03:133,-0.128,0.026,1.177,341.064,225.158,-190.674,
00:00:03:150,-0.091,-0.005,1.059,104.004,207.336,-169.312,
00:00:03:166,0.002,0.165,1.054,-0.733,156.433,-128.174,
00:00:03:183,0.007,0.294,1.068,82.58,57.495,-127.198,
00:00:03:200,-0.028,0.284,1.092,112.243,8.117,-126.831,
00:00:03:216,-0.008,0.262,1.078,63.354,-4.09,-124.329,
00:00:03:233,0.014,0.213,1.002,-32.837,-45.777,-106.812,
00:00:03:250,-0.001,0.176,0.966,-128.846,-87.647,-76.966,
00:00:03:266,-0.039,0.241,0.942,-194.458,-119.568,-37.598,
00:00:03:283,-0.097,0.268,0.925,-167.115,-112.183,-19.165,
00:00:03:300,-0.107,0.247,0.929,-119.263,-62.012,-26.062,
00:00:03:316,-0.075,0.231,0.934,-108.277,-18.433,-38.086,
00:00:03:333,-0.051,0.247,0.926,-88.074,5.188,-51.514,
00:00:03:350,-0.039,0.241,0.941,-83.252,16.601,-57.679,
00:00:03:366,-0.041,0.265,0.985,-68.726,20.324,-53.772,
00:00:03:383,-0.032,0.28,1.01,-17.762,23.315,-47.608,
00:00:03:400,-0.033,0.252,1.027,15.319,0.915,-49.439,
00:00:03:416,-0.031,0.223,1.031,5.554,0.122,-46.875,
00:00:03:433,-0.05,0.208,1.002,-16.114,-17.212,-48.951,
00:00:03:450,-0.07,0.198,0.976,-46.509,-20.142,-52.796,
00:00:03:466,-0.075,0.214,0.966,-85.816,-22.156,-62.928,
00:00:03:483,-0.068,0.251,0.971,-106.69,-18.555,-75.501,
00:00:03:500,-0.061,0.29,0.985,-95.826,-23.743,-78.858,
00:00:03:516,-0.056,0.316,0.996,-72.205,-24.964,-71.228,
00:00:03:533,-0.062,0.315,0.989,-48.401,-29.664,-62.867,
00:00:03:550,-0.07,0.289,0.976,-50.354,-25.513,-60.486,
00:00:03:566,-0.07,0.278,0.985,-72.632,-22.767,-54.871,
00:00:03:583,-0.063,0.268,0.997,-66.468,-25.147,-54.505,
00:00:03:600,-0.062,0.237,0.99,-70.252,-32.776,-60.425,
00:00:03:616,-0.069,0.225,0.966,-96.863,-32.166,-63.904,
00:00:03:633,-0.06,0.264,0.983,-94.91,-19.104,-65.491,
00:00:03:650,-0.052,0.28,0.994,-51.026,-15.87,-60.242,
00:00:03:666,-0.064,0.266,1,-28.809,-18.982,-42.786,
00:00:03:683,-0.077,0.262,0.994,-13.611,-8.24,-22.583,
00:00:03:700,-0.073,0.256,0.99,-9.034,5.188,-4.822,
00:00:03:716,-0.072,0.249,0.963,-25.757,10.437,-0.061,
00:00:03:733,-0.078,0.252,0.956,-56.763,12.146,-7.752,
00:00:03:750,-0.066,0.257,0.988,-103.089,-2.808,-18.372,
00:00:03:766,-0.083,0.312,0.944,-109.07,-13.977,-19.593,
00:00:03:783,-0.074,0.308,0.955,-43.946,-4.639,-38.331,
00:00:03:800,-0.066,0.302,0.942,-28.565,0.427,-41.26,
00:00:03:816,-0.069,0.317,0.943,-18.555,-2.198,-45.289,
00:00:03:833,-0.079,0.306,0.968,-2.564,2.38,-50.904,
00:00:03:850,-0.078,0.29,0.971,4.638,8.606,-42.786,
00:00:03:866,-0.074,0.264,0.967,-5.127,12.878,-52.979,
00:00:03:883,-0.069,0.26,0.976,-29.602,12.146,-60.547,
00:00:03:900,-0.062,0.259,0.973,-56.58,6.591,-74.769,
00:00:03:916,-0.067,0.26,0.961,-112.305,-2.747,-77.332,
00:00:03:933,-0.085,0.318,0.967,-145.081,-5.494,-72.266,
00:00:03:950,-0.084,0.334,0.961,-108.704,-0.061,-67.505,
00:00:03:966,-0.08,0.324,0.951,-64.942,8.789,-58.472,
00:00:03:983,-0.071,0.318,0.953,-36.133,18.493,-53.894,
00:00:04:0,-0.068,0.308,0.967,-15.87,8.728,-43.763,
00:00:04:16,-0.071,0.297,0.973,-92.347,-19.715,-31.922,
00:00:04:33,-0.099,0.358,0.945,-184.937,-34.302,-5.249,
00:00:04:50,-0.097,0.418,0.877,-92.164,-0.611,-11.353,
00:00:04:66,-0.089,0.373,0.885,65.002,36.377,-27.405,
00:00:04:83,-0.062,0.331,0.96,172.546,63.11,-26.551,
00:00:04:100,-0.051,0.234,0.983,131.286,57.434,-21.851,
00:00:04:116,-0.049,0.228,0.943,89.721,51.757,-24.537,
00:00:04:133,-0.046,0.202,1.036,226.867,4.028,-102.417,
00:00:04:150,-0.061,-0.007,1.093,227.05,-33.936,-153.321,
00:00:04:166,-0.038,0.033,1.063,-11.841,-69.336,-136.414,
00:00:04:183,-0.037,0.189,1.085,-157.532,-124.756,-130.005,
00:00:04:200,-0.064,0.279,1.064,-113.221,-146.302,-99.122,
00:00:04:216,-0.092,0.303,0.985,-27.283,-151.734,-133.301,
00:00:04:233,-0.102,0.333,0.91,6.958,-142.518,-162.232,
00:00:04:250,-0.098,0.325,0.917,40.466,-141.602,-186.158,
00:00:04:266,-0.098,0.311,0.971,53.344,-145.691,-206.238,
00:00:04:283,-0.101,0.305,1.014,13.366,-162.903,-217.957,
00:00:04:300,-0.126,0.315,1.038,-5.616,-173.768,-214.234,
00:00:04:316,-0.141,0.301,1.016,2.197,-176.697,-213.623,
00:00:04:333,-0.142,0.306,0.991,4.943,-168.396,-207.154,
00:00:04:350,-0.123,0.318,0.96,25.329,-172.242,-189.087,
00:00:04:366,-0.137,0.33,0.962,73.974,-179.322,-151.917,
00:00:04:383,-0.154,0.33,0.989,153.625,-181.031,-131.653,
00:00:04:400,-0.169,0.296,1.025,227.05,-173.951,-110.535,
00:00:04:416,-0.182,0.265,1.03,290.954,-169.129,-108.399,
00:00:04:433,-0.197,0.223,1.009,342.956,-161.866,-112.732,
00:00:04:450,-0.22,0.174,1.01,369.873,-163.392,-104.92,
00:00:04:466,-0.222,0.173,0.997,375.183,-156.739,-102.662,
00:00:04:483,-0.215,0.191,1.022,406.433,-152.71,-94.788,
00:00:04:500,-0.209,0.151,1.023,450.622,-135.071,-102.601,
00:00:04:516,-0.218,0.134,0.996,436.828,-118.042,-100.159,
00:00:04:533,-0.22,0.144,0.983,402.343,-101.136,-94.3,
00:00:04:550,-0.21,0.134,0.991,375.122,-84.9,-83.802,
00:00:04:566,-0.168,0.12,0.983,328.186,-64.82,-65.125,
00:00:04:583,-0.115,0.169,0.996,311.34,-56.214,-53.04,
00:00:04:600,-0.093,0.174,1.028,351.562,-47.974,-37.415,
00:00:04:616,-0.061,0.124,1.013,377.075,-70.496,-3.907,
00:00:04:633,-0.096,0.146,0.973,391.784,-121.888,36.743,
00:00:04:650,-0.068,0.208,0.948,495.666,-157.288,128.479,
00:00:04:666,-0.034,0.229,1.036,634.887,-232.239,154.968,
00:00:04:683,-0.08,0.017,0.97,484.985,-365.845,265.747,
00:00:04:700,-0.131,0.024,0.929,336.792,-429.932,315.673,
00:00:04:716,-0.049,0.036,0.877,236.206,-545.96,366.699,
00:00:04:733,-0.167,0.014,0.932,222.534,-553.589,431.579,
00:00:04:750,-0.218,-0.009,1.04,174.011,-512.635,466.308,
00:00:04:766,-0.276,-0.135,1.057,89.721,-447.266,529.907,
00:00:04:783,-0.304,-0.011,1.067,79.406,-362.122,591.186,
00:00:04:800,-0.29,-0.355,0.995,81.726,-287.598,452.453,
00:00:04:816,-0.233,-0.673,0.834,-514.71,-305.481,358.947,
00:00:04:833,-0.279,-0.256,0.9,-709.839,-307.251,309.814,
00:00:04:850,-0.362,-0.049,0.965,-492.737,-212.525,301.086,
00:00:04:866,-0.385,0.232,0.744,-180.237,-91.37,323.303,
00:00:04:883,-0.398,0.002,0.657,137.39,24.536,300.109,
00:00:04:900,-0.426,-0.105,0.774,45.41,44.86,248.474,
00:00:04:916,-0.488,-0.189,0.972,-55.909,57.434,189.941,
00:00:04:933,-0.53,-0.184,1.108,-131.348,102.722,182.434,
00:00:04:950,-0.565,-0.126,1.093,55.236,191.955,126.587,
00:00:04:966,-0.583,-0.146,1.083,232.544,292.053,60.73,
00:00:04:983,-0.509,-0.216,0.981,311.34,349.731,-46.509,
00:00:05:0,-0.441,-0.294,0.82,292.419,386.413,-111.084,
00:00:05:16,-0.417,-0.338,0.755,233.703,411.193,-125.733,
00:00:05:33,-0.401,-0.386,0.751,140.869,425.232,-144.898,
00:00:05:50,-0.321,-0.392,0.983,26.489,447.082,-168.457,
00:00:05:66,-0.108,-0.413,1.314,-168.58,480.957,-191.712,
00:00:05:83,-0.095,-0.166,1.073,-567.444,337.402,-189.82,
00:00:05:100,-0.182,-0.081,0.813,-460.389,264.16,-184.327,
00:00:05:116,-0.145,-0.029,0.808,-197.998,280.578,-146.79,
00:00:05:133,-0.099,-0.037,0.872,3.662,170.654,-70.13,
00:00:05:150,-0.169,-0.128,0.972,91.674,61.523,-8.423,
00:00:05:166,-0.263,-0.229,0.957,-186.585,99.06,40.893,
00:00:05:183,-0.218,-0.327,0.874,-586.121,246.338,-15.564,
00:00:05:200,-0.147,-0.172,0.798,-712.525,350.647,-88.074,
00:00:05:216,-0.135,0.207,0.775,-483.826,324.096,-49.195,
00:00:05:233,-0.206,0.189,0.807,129.15,249.633,-59.51,
00:00:05:250,-0.249,-0.158,0.911,408.813,314.026,-125,
00:00:05:266,-0.201,-0.16,0.918,223.388,367.553,-60.73,
00:00:05:283,-0.184,-0.063,1.057,10.864,326.721,-81.482,
00:00:05:300,-0.169,-0.126,1.049,-81.299,336.853,-126.526,
00:00:05:316,-0.117,-0.043,0.953,-132.142,346.496,-135.804,
00:00:05:333,-0.068,0.014,0.895,-127.503,317.016,-164.856,
00:00:05:350,-0.052,0.3,1.153,-22.767,139.16,-65.43,
00:00:05:366,-0.182,0.266,1.168,149.231,-5.555,-91.37,
00:00:05:383,-0.279,0.013,1.105,222.595,35.949,-80.872,
00:00:05:400,-0.178,-0.059,1.041,176.696,98.144,-105.713,
00:00:05:416,-0.091,-0.138,1.02,-93.567,18.432,-109.498,
00:00:05:433,0,-0.158,1.055,-54.139,39.428,-190.918,
00:00:05:450,-0.06,-0.287,1.12,-190.796,57.556,-243.409,
00:00:05:466,-0.115,-0.264,0.975,-285.767,144.836,-308.35,
00:00:05:483,-0.016,0.035,0.915,-117.554,185.302,-283.265,
00:00:05:500,0.034,-0.266,0.808,-286.011,142.089,-267.945,
00:00:05:516,-0.028,0.178,0.88,-564.331,82.519,-14.71,
00:00:05:533,-0.147,0.557,1.135,-278.443,74.279,156.311,
00:00:05:550,-0.156,0.191,1.183,7.507,121.765,-15.381,
00:00:05:566,0.024,-0.069,1.125,80.932,99.914,-8.973,
00:00:05:583,-0.038,-0.337,1.028,74.279,50.048,-63.477,
00:00:05:600,-0.176,-0.295,1.007,-91.126,33.203,-17.945,
00:00:05:616,-0.19,0.04,1.115,-71.717,25.146,5.31,
00:00:05:633,-0.275,0.021,1.079,65.795,36.56,-43.03,
00:00:05:650,-0.242,-0.171,1.023,110.962,104.431,-77.759,
00:00:05:666,-0.225,-0.338,0.898,-157.349,198.242,-118.836,
00:00:05:683,0.038,-0.024,1.065,-390.015,181.152,-36.866,
00:00:05:700,0.201,0.545,1.21,-133.301,12.756,100.28,
00:00:05:716,0.144,-0.078,1,348.816,-12.452,-23.682,
00:00:05:733,-0.07,-0.443,0.668,-0.611,86.303,-84.839,
00:00:05:750,0.031,-0.011,0.781,-251.893,171.753,104.797,
00:00:05:766,-0.014,0.148,0.857,-147.339,188.842,25.573,
00:00:05:783,-0.117,0.01,1.304,35.949,90.942,39.794,
00:00:05:800,-0.126,-0.001,1.133,80.932,53.833,29.357,
00:00:05:816,-0.154,-0.048,1.003,118.164,40.893,27.648,
00:00:05:833,-0.03,-0.078,0.891,78.308,94.238,39.794,
00:00:05:850,-0.042,-0.133,1.057,32.531,83.313,27.221,
00:00:05:866,0.082,-0.01,0.977,-28.748,93.444,22.827,
00:00:05:883,0.186,0.087,0.841,-62.378,108.093,29.846,
00:00:05:900,0.236,0.167,0.954,-53.223,93.078,21.667,
00:00:05:916,0.147,0.046,0.905,11.413,82.702,-7.447,
00:00:05:933,0.096,-0.022,1.077,19.775,84.35,22.583,
00:00:05:950,0.029,-0.048,1.069,-21.729,87.829,-3.846,
00:00:05:966,0.032,-0.013,1.021,-53.101,76.11,-7.569,
00:00:05:983,-0.026,-0.05,1.04,-51.453,56.579,-22.889,
00:00:06:0,0.007,-0.04,1.101,-8.484,31.433,-47.181,
00:00:06:16,0.057,-0.079,1.161,-11.353,-3.968,-72.083,
00:00:06:33,-0.027,0.014,0.949,-82.642,22.522,-45.105,
00:00:06:50,0.05,-0.001,0.923,-6.714,41.198,-60.975,
00:00:06:66,-0.012,-0.047,1.077,30.578,29.907,-59.388,
00:00:06:83,-0.027,-0.064,1.056,-56.763,84.838,-36.927,
00:00:06:100,0.054,0.004,1.008,-59.327,77.575,-29.297,
00:00:06:116,0.07,0.018,0.955,-56.397,68.603,-37.171,
00:00:06:133,0.064,-0.07,0.995,-35.462,69.152,-42.176,
00:00:06:150,0.046,-0.08,1.107,-107.422,82.702,-30.457,
00:00:06:166,0.074,-0.034,1.052,-213.685,100.158,-37.781,
00:00:06:183,0.128,0.11,0.924,-205.506,101.44,-31.983,
00:00:06:200,0.13,0.158,0.916,-111.451,66.955,-51.514,
00:00:06:216,0.133,0.1,0.995,-10.621,42.602,-62.928,
00:00:06:233,0.031,-0.02,0.966,48.767,0.427,-62.5,
00:00:06:250,-0.048,-0.004,0.968,64.209,2.197,-49.805,
00:00:06:266,-0.032,-0.002,0.933,88.012,12.085,-74.585,
00:00:06:283,0.009,-0.005,0.822,90.942,-30.213,-61.036,
00:00:06:300,-0.073,-0.039,0.876,182.129,-96.314,-56.58,rollRH
00:00:06:316,-0.117,-0.027,1.013,242.004,-143.128,-73.548,
00:00:06:333,-0.247,-0.05,1.072,294.555,-211.853,-142.395,
00:00:06:350,-0.39,-0.021,1.292,238.891,-245.728,-196.289,
00:00:06:366,-0.429,-0.259,1.423,184.814,-151.429,-322.693,
00:00:06:383,0.17,-0.167,1.179,53.466,20.935,-279.541,
00:00:06:400,0.479,-0.105,0.645,0.732,84.411,-252.625,
00:00:06:416,0.285,-0.103,0.672,95.153,91.247,-96.131,
00:00:06:433,0.303,-0.165,0.759,18.005,196.289,-57.679,
00:00:06:450,0.367,0.129,1.016,-44.617,150.085,31.372,
00:00:06:466,0.084,0.051,1.144,10.498,102.783,-39.307,
00:00:06:483,-0.008,-0.067,1.078,-3.724,103.271,-72.327,
00:00:06:500,-0.038,-0.01,0.975,6.652,59.631,-75.013,
00:00:06:516,0.041,0.034,0.861,31.189,59.509,-132.264,
00:00:06:533,0.087,-0.015,0.917,60.73,15.747,-165.833,
00:00:06:550,-0.013,-0.197,1.134,-19.654,39.611,-202.149,
00:00:06:566,0.073,-0.165,1.028,-109.62,69.152,-175.293,
00:00:06:583,0.072,-0.143,0.969,-116.089,91.186,-161.866,
00:00:06:600,0.213,-0.033,1.034,-134.827,104.553,-109.07,
00:00:06:616,0.333,0.172,1.131,-36.133,44.555,-89.6,
00:00:06:633,0.186,0.026,1.142,69.336,20.324,-124.573,
00:00:06:650,0.302,-0.038,1.085,45.898,21.789,-91.065,
00:00:06:666,0.403,0.045,0.922,15.93,13.061,-74.219,
00:00:06:683,0.361,0.004,0.735,18.188,37.78,-56.946,
00:00:06:700,0.367,-0.028,0.842,24.108,32.592,-9.766,
00:00:06:716,0.361,-0.023,0.992,41.931,10.009,25.207,
00:00:06:733,0.173,-0.089,0.95,30.7,-62.195,4.577,
00:00:06:750,0.035,-0.066,1.13,-3.846,-76.172,32.226,
00:00:06:766,-0.082,-0.031,1.151,-3.052,-105.652,2.807,
00:00:06:783,-0.075,-0.094,1,14.221,-89.661,-26.429,
00:00:06:800,-0.128,-0.239,0.922,14.465,-52.43,-23.377,
00:00:06:816,-0.131,-0.209,1.019,-45.533,-24.048,13,
00:00:06:833,0.027,-0.027,1.116,-35.096,-36.072,31.86,
00:00:06:850,0.111,0,1.149,10.864,-52.369,22.338,
00:00:06:866,0.178,-0.014,1.008,73.913,-77.454,21.728,
00:00:06:883,0.054,-0.125,0.978,94.909,-70.984,27.648,
00:00:06:900,0.091,-0.172,0.894,66.467,-42.237,34.301,
00:00:06:916,0.02,-0.137,0.961,-18.555,-26.49,45.227,
00:00:06:933,0.049,-0.063,1.122,-13.245,-20.874,52.673,
00:00:06:950,0.005,-0.031,1.272,50.72,-54.81,71.96,
00:00:06:966,0.028,-0.012,1.039,78.735,-61.463,50.293,
00:00:06:983,0.114,-0.036,0.956,80.322,-57.923,53.588,
00:00:07:0,0.156,-0.073,0.685,68.42,-34.729,30.334,
00:00:07:16,0.013,-0.154,0.873,74.829,1.709,32.898,
00:00:07:33,0.033,-0.138,1.212,29.968,-2.381,15.38,
00:00:07:50,-0.071,-0.143,1.179,22.033,-18.555,-4.09,
00:00:07:66,0.01,-0.068,1.114,-8.118,-33.02,-16.968,
00:00:07:83,0.104,0.039,0.94,-16.175,-29.602,-8.973,
00:00:07:100,0.069,-0.068,0.848,78.369,-2.869,-28.382,
00:00:07:116,0.14,-0.088,0.818,58.044,22.522,-4.517,
00:00:07:133,0.026,-0.266,1.14,25.634,8.056,-20.997,
00:00:07:150,0.019,-0.141,0.985,-97.352,-5.738,-39.063,
00:00:07:166,-0.147,-0.134,0.984,-99.915,1.403,-30.579,
00:00:07:183,-0.093,-0.092,1.109,-51.453,-0.367,-35.462,
00:00:07:200,-0.021,-0.141,1.061,-16.114,6.774,-34.485,
00:00:07:216,0.089,-0.126,1.028,-44.617,6.53,-40.223,
00:00:07:233,0.004,-0.141,0.94,-29.541,20.996,-44.922,
00:00:07:250,-0.252,-0.228,1.032,-73.121,75.195,-46.875,
00:00:07:266,-0.369,-0.348,1.231,-39.856,82.763,-37.049,
00:00:07:283,-0.365,-0.258,1.262,-54.383,54.748,8.911,
00:00:07:300,-0.198,-0.083,1.012,-36.072,57.678,-0.061,
00:00:07:316,0.044,0.074,0.96,-70.069,67.199,-34.913,
00:00:07:333,0.042,-0.154,1.126,-96.07,86.669,-12.33,
00:00:07:350,-0.005,-0.067,0.951,-81.971,99.182,-18.067,
00:00:07:366,0.19,0.114,0.83,-41.626,88.928,-23.926,
00:00:07:383,0.125,0.108,0.858,58.471,79.467,-58.655,
00:00:07:400,0.095,-0.161,0.952,99.06,89.538,-93.75,
00:00:07:416,-0.064,-0.276,0.998,-23.377,82.153,-86.976,
00:00:07:433,-0.105,-0.101,1.029,-97.413,84.533,-78.797,
00:00:07:450,-0.061,-0.027,1.023,-40.528,71.35,-96.375,
00:00:07:466,-0.028,-0.13,1.129,49.438,58.96,-122.803,
00:00:07:483,0.059,-0.162,1.125,23.437,63.354,-122.315,
00:00:07:500,0.144,-0.083,1.026,-44.556,62.194,-127.442,
00:00:07:516,0.293,-0.048,0.915,-66.956,91.919,-121.827,
00:00:07:533,0.294,-0.081,0.936,-58.045,114.38,-79.224,
00:00:07:550,0.344,-0.116,0.994,-18.982,119.445,-52.247,
00:00:07:566,0.235,-0.13,1.081,-41.016,127.563,-13.306,
00:00:07:583,0.128,-0.051,1.076,-29.847,103.698,14.343,
00:00:07:600,0.018,-0.12,1.081,6.958,99.487,-5.433,
00:00:07:616,-0.105,-0.171,1.112,3.906,81.115,-23.377,
00:00:07:633,0.08,-0.149,0.988,29.541,58.96,-122.986,
00:00:07:650,0.076,-0.103,1.01,-47.059,110.656,-93.628,
00:00:07:666,0.108,-0.116,1.031,-89.661,165.954,-86.731,
00:00:07:683,0.09,-0.173,0.938,-125.672,212.951,-84.351,
00:00:07:700,0.091,-0.211,0.996,-212.952,256.225,-74.769,
00:00:07:716,0.123,-0.112,0.991,-263.489,255.066,-73.365,
00:00:07:733,0.098,-0.046,0.996,-278.992,237.365,-90.394,
00:00:07:750,0.067,-0.015,0.989,-277.283,215.576,-108.521,
00:00:07:766,0.139,-0.028,1.085,-303.04,189.697,-135.193,
00:00:07:783,0.358,0.079,1.187,-301.514,115.051,-140.442,
00:00:07:800,0.342,-0.008,0.927,-352.601,63.476,-172.974,
00:00:07:816,0.419,0.06,0.839,-463.685,-2.076,-160.523,
00:00:07:833,0.476,0.103,0.792,-445.252,-89.478,-147.095,
00:00:07:850,0.618,0.174,1.089,-302.369,-249.024,-128.968,
00:00:07:866,0.583,0.209,0.855,-98.206,-330.384,-118.47,
00:00:07:883,0.786,0.11,1.065,-56.092,-470.093,-59.998,
00:00:07:900,0.738,0.204,1.051,93.811,-579.773,93.811,
00:00:07:916,0.606,0.056,1.05,96.069,-632.691,154.235,
00:00:07:933,0.62,0.11,1.027,-11.109,-667.542,202.88,
00:00:07:950,0.516,0.19,0.959,-27.955,-667.054,239.074,
00:00:07:966,0.456,0.177,0.832,-16.419,-620.118,234.741,
00:00:07:983,0.303,0.103,0.74,-15.442,-562.134,282.714,
00:00:08:0,0.155,0.011,0.699,-34.852,-452.454,333.984,
00:00:08:16,0.017,-0.019,0.623,-47.364,-319.886,339.172,
00:00:08:33,-0.13,-0.108,0.785,-59.815,-169.983,317.749,
00:00:08:50,-0.112,-0.088,0.789,-231.873,-41.932,247.253,
00:00:08:66,-0.077,0.044,0.79,-340.394,12.634,199.035,
00:00:08:83,-0.14,0.153,0.863,-248.597,18.676,164.856,
00:00:08:100,-0.275,0.033,0.909,-87.403,20.874,83.801,
00:00:08:116,-0.319,-0.097,0.935,-43.335,54.382,38.147,
00:00:08:133,-0.425,-0.146,0.927,-84.29,88.562,-5.249,
00:00:08:150,-0.573,-0.204,0.909,-127.442,137.939,-51.941,
00:00:08:166,-0.586,-0.176,0.89,-140.87,178.833,-97.657,
00:00:08:183,-0.58,-0.072,0.868,-49.378,190.673,-137.146,
00:00:08:200,-0.551,-0.094,0.92,125.366,240.661,-188.294,
00:00:08:216,-0.481,-0.2,0.962,126.037,313.11,-222.596,
00:00:08:233,-0.366,0.746,1.351,-119.08,164.123,80.139,
00:00:08:250,-0.169,0.211,1.655,195.068,38.024,-248.047,
00:00:08:266,-0.304,-0.29,1.094,347.107,10.437,-241.517,
00:00:08:283,-0.295,-0.258,0.755,17.334,49.499,-186.951,
00:00:08:300,-0.048,0.118,1.117,-40.039,36.865,-117.676,
00:00:08:316,0.101,0.468,1.494,239.563,-39.795,-53.284,
00:00:08:333,0.153,0.169,1.351,526.794,-69.458,-85.877,
00:00:08:350,0.051,-0.238,1.061,452.331,-32.166,-43.885,
00:00:08:366,-0.041,-0.265,0.807,161.499,41.198,-16.053,
00:00:08:383,-0.007,0.003,0.767,-23.621,84.167,14.038,
00:00:08:400,-0.013,0.088,0.773,17.456,87.463,-34.302,
00:00:08:416,0.024,-0.009,1.002,35.278,70.434,-48.218,
00:00:08:433,-0.03,-0.018,1.276,4.211,18.188,-38.697,
00:00:08:450,-0.045,0.033,1.195,-3.785,-19.898,-52.124,
00:00:08:466,-0.042,0.03,0.982,24.841,-33.692,-60.791,
00:00:08:483,-0.064,-0.025,0.911,107.299,-10.682,-70.74,
00:00:08:500,-0.09,-0.141,0.945,73.12,24.047,-80.262,
00:00:08:516,-0.089,-0.101,1.077,2.929,41.931,-71.412,
00:00:08:533,-0.066,-0.016,1.102,-8.667,57.251,-69.031,
00:00:08:550,-0.128,-0.076,1.007,30.334,67.138,-91.37,
00:00:08:566,-0.184,-0.082,0.938,56.152,77.331,-77.332,
00:00:08:583,-0.157,-0.025,0.987,95.642,85.754,-76.355,
00:00:08:600,-0.054,0.005,1.03,132.08,92.59,-85.755,
00:00:08:616,-0.084,-0.062,1.006,150.756,110.901,-134.827,
00:00:08:633,-0.094,-0.115,0.914,87.89,153.747,-155.823,
00:00:08:650,-0.066,-0.188,0.71,35.034,219.482,-141.541,
00:00:08:666,0.278,0,0.89,-16.419,216.797,-90.027,
00:00:08:683,0.398,0.186,1.115,10.192,155.456,-114.808,
00:00:08:700,0.25,-0.07,1.024,53.527,135.498,-167.298,
00:00:08:716,0.131,-0.178,1.028,-0.489,131.164,-111.878,
00:00:08:733,-0.104,-0.185,1.086,-19.41,150.879,-57.984,
00:00:08:750,-0.05,-0.027,1.154,-55.787,177.002,-70.557,
00:00:08:766,-0.028,0.097,1.087,-6.287,164.734,-103.699,
00:00:08:783,-0.054,-0.123,1.059,119.995,174.316,-140.87,
00:00:08:800,-0.102,-0.236,0.995,69.519,184.936,-128.846,
00:00:08:816,-0.06,-0.098,1.034,20.385,194.946,-108.094,
00:00:08:833,0.098,0.008,1.048,35.4,180.786,-159.974,
00:00:08:850,0.242,0.007,1.041,84.899,169.433,-178.101,
00:00:08:866,0.147,-0.111,1.043,77.514,181.701,-168.213,
00:00:08:883,0.16,-0.144,1.025,46.264,202.636,-150.818,
00:00:08:900,0.042,-0.097,1.041,47.729,216.491,-119.263,
00:00:08:916,0.037,-0.051,1.074,138.61,215.21,-97.657,
00:00:08:933,0.061,-0.049,1.146,287.353,251.648,-128.724,
00:00:08:950,0.072,-0.095,0.956,249.328,353.698,-131.226,
00:00:08:966,0.22,-0.274,0.704,12.756,489.563,-146.363,
00:00:08:983,0.834,0.308,0.732,-409.729,62.194,101.806,
00:00:09:0,0.795,-0.123,0.762,-401.49,-145.63,-129.212,
00:00:09:16,1.111,0.068,1.029,-383.545,-469.544,89.294,
00:00:09:33,0.714,0.061,0.974,-209.412,-660.706,136.169,
00:00:09:50,0.624,0.138,0.998,35.156,-966.004,344.909,
00:00:09:66,0.478,0.068,0.938,46.508,-942.139,381.897,
00:00:09:83,0.34,0.045,0.846,52.368,-847.535,385.315,
00:00:09:100,0.166,-0.018,0.813,49.438,-733.338,385.925,
00:00:09:116,0.056,-0.088,0.738,25.39,-573.548,356.384,
00:00:09:133,-0.056,-0.171,0.635,-38.88,-425.843,312.622,
00:00:09:150,-0.128,-0.22,0.636,-143.311,-288.331,265.136,
00:00:09:166,-0.239,-0.185,0.654,-266.053,-176.941,229.98,
00:00:09:183,-0.351,-0.144,0.726,-299.927,-58.533,184.204,
00:00:09:200,-0.382,-0.11,0.803,-280.091,43.151,127.014,
00:00:09:216,-0.456,-0.172,0.934,-254.395,107.605,73.547,
00:00:09:233,-0.492,-0.206,0.948,-280.152,142.639,33.386,
00:00:09:250,-0.534,-0.135,0.938,-273.499,161.987,-9.522,
00:00:09:266,-0.554,-0.09,0.933,-216.675,191.711,-48.768,
00:00:09:283,-0.541,-0.146,0.914,-157.837,217.834,-86.487,
00:00:09:300,-0.488,-0.17,0.855,-66.712,314.697,-141.419,
00:00:09:316,-0.411,-0.102,0.804,-79.895,367.492,-150.757,
00:00:09:333,-0.221,-0.086,1.333,-133.118,182.556,-180.542,
00:00:09:350,0.04,0.735,2.134,386.535,-95.765,96.679,
00:00:09:366,-0.502,-0.518,1.182,492.065,33.508,-414.612,
00:00:09:383,0.07,-0.389,0.781,-223.267,-62.867,-182.862,
00:00:09:400,-0.203,0.293,0.737,55.481,-69.581,-13.001,
00:00:09:416,-0.194,-0.25,0.876,294.799,22.705,-205.14,
00:00:09:433,-0.019,-0.082,1.447,95.031,22.033,-54.139,
00:00:09:450,-0.102,-0.062,1.315,-22.889,61.706,-95.643,
00:00:09:466,-0.026,-0.045,1.049,-70.435,54.931,-103.394,
00:00:09:483,-0.062,0.107,1.013,-83.191,22.644,-73.609,
00:00:09:500,-0.044,0.062,1.053,181.823,40.893,-68.055,
00:00:09:516,-0.005,-0.235,1.081,197.387,72.692,-59.327,
00:00:09:533,0.044,-0.131,1.052,27.465,81.787,-9.217,
00:00:09:550,0.075,0.02,0.989,-63.843,101.806,6.103,
00:00:09:566,0.133,0.051,0.926,-26.429,132.141,3.601,
00:00:09:583,0.09,-0.006,1.133,25.817,163.452,19.043,
00:00:09:600,0.054,-0.048,1.098,-3.235,159.118,25.268,
00:00:09:616,0.005,-0.014,0.965,-27.344,139.099,30.395,
00:00:09:633,-0.015,0.035,0.845,17.456,108.825,-1.831,
00:00:09:650,-0.059,-0.006,0.879,103.027,92.041,-52.43,
00:00:09:666,0.024,-0.077,1.082,85.51,88.806,-76.477,
00:00:09:683,0.008,-0.077,1.172,17.578,71.167,-63.111,
00:00:09:700,-0.012,-0.06,1.13,-2.137,57.067,-54.505,
00:00:09:716,0,-0.067,0.985,7.263,63.476,-46.265,
00:00:09:733,0.005,-0.051,0.915,31.311,74.34,-40.711,
00:00:09:750,-0.005,-0.065,0.931,46.081,107.483,-68.36,
00:00:09:766,0.021,-0.104,1.094,-0.367,121.399,-80.14,
00:00:09:783,-0.002,-0.088,1.1,-45.96,116.211,-70.923,
00:00:09:800,0.031,-0.052,1.002,-34.729,118.103,-68.604,
00:00:09:816,0.08,-0.005,1.012,-43.396,110.351,-80.445,
00:00:09:833,0.122,0.029,1.001,10.315,90.21,-91.309,
00:00:09:850,0.053,-0.075,1.022,44.921,89.294,-101.624,
00:00:09:866,0.019,-0.13,0.943,23.986,88.867,-90.455,
00:00:09:883,0.027,-0.131,0.978,6.042,107.727,-72.754,
00:00:09:900,0.048,-0.094,0.998,-7.691,91.613,-85.144,
00:00:09:916,0.051,-0.053,1.001,-15.748,80.017,-79.468,
00:00:09:933,0.013,0.026,0.995,-42.603,58.105,-71.534,
00:00:09:950,0.02,-0.103,0.961,104.553,81.481,-84.778,
00:00:09:966,-0.002,-0.202,0.974,83.496,94.665,-82.337,
00:00:09:983,0.073,-0.074,0.964,13,96.74,-93.995,
00:00:10:0,0.122,-0.036,0.986,-5.005,82.214,-89.234,
00:00:10:16,0.192,-0.054,0.971,-4.517,86.547,-118.164,
00:00:10:33,0.179,-0.107,0.914,-35.828,83.801,-121.705,
00:00:10:50,0.124,-0.117,0.909,-85.144,92.346,-109.131,
00:00:10:66,0.14,-0.036,1.011,-97.046,87.158,-84.839,
00:00:10:83,0.14,-0.002,1.111,-32.898,62.5,-91.797,
00:00:10:100,0.133,-0.095,1.111,-45.655,53.649,-106.812,
00:00:10:116,0.209,-0.043,1.016,-100.159,26.611,-70.313,
00:00:10:133,0.281,-0.011,0.98,-52.918,-4.395,-61.707,
00:00:10:150,0.33,-0.041,0.939,-13.855,-34.607,-48.584,
00:00:10:166,0.347,-0.013,0.858,-28.321,-71.839,-16.419,
00:00:10:183,0.343,0.011,0.735,-58.838,-91.126,-8.057,
00:00:10:200,0.323,0.06,0.863,-42.908,-130.86,29.296,
00:00:10:216,0.264,-0.045,1.017,10.742,-137.207,1.037,
00:00:10:233,0.257,-0.04,1.139,-14.039,-165.223,13.977,
00:00:10:250,0.166,-0.031,1.067,-26.673,-195.862,25.207,
00:00:10:266,0.079,-0.072,0.871,-23.011,-203.614,12.451,
00:00:10:283,-0.014,-0.035,0.979,-69.642,-199.28,37.902,
00:00:10:300,-0.076,-0.082,1.218,5.31,-163.88,6.774,rollRH
00:00:10:316,0.005,-0.158,1.09,-11.292,-146.18,-10.437,
00:00:10:333,0.047,-0.088,0.993,-48.706,-128.785,23.01,
00:00:10:350,0.149,0.002,1,-13.123,-119.324,42.297,
00:00:10:366,0.023,-0.104,0.891,-24.476,-85.022,19.775,
00:00:10:383,0.093,-0.173,0.917,-107.666,-31.25,23.071,
00:00:10:400,0.038,-0.07,0.97,-191.102,-5.555,39.428,
00:00:10:416,0.044,0.043,1.038,-158.875,-8.912,39.856,
00:00:10:433,0.005,0.031,1.115,-107.117,-23.194,14.16,
00:00:10:450,0.015,0.047,1.168,-74.463,-44.8,12.634,
00:00:10:466,-0.084,-0.042,1.031,-20.203,-49.866,-7.447,
00:00:10:483,-0.138,-0.157,0.943,2.258,-34.424,-9.095,
00:00:10:500,-0.178,-0.149,0.928,-49.134,5.676,-25.757,
00:00:10:516,-0.116,-0.045,1.054,-83.069,21.728,-23.072,
00:00:10:533,-0.048,-0.02,1.127,-75.135,10.315,-35.218,
00:00:10:550,-0.027,-0.06,1.018,-63.416,11.108,-37.476,
00:00:10:566,-0.009,-0.093,0.95,-55.726,26.489,-26.856,
00:00:10:583,0.002,-0.006,1.032,-77.393,21.85,-23.682,
00:00:10:600,0.02,0.017,1.06,-45.96,13.794,-29.419,
00:00:10:616,0.07,0.004,1.062,-27.1,2.197,-23.011,
00:00:10:633,0.095,-0.033,0.978,-41.199,12.085,-11.902,
00:00:10:650,0.001,-0.1,0.904,-46.57,37.048,-4.7,
00:00:10:666,-0.004,-0.014,1.08,-57.74,27.282,13.549,
00:00:10:683,-0.012,0.032,1.197,-26.978,5.737,8.911,
00:00:10:700,-0.028,-0.021,1.068,-19.288,0.122,13.427,
00:00:10:716,0.068,-0.009,1.029,-41.932,0.61,27.648,
00:00:10:733,0.009,-0.03,0.932,-5.066,14.526,10.803,
00:00:10:750,-0.023,-0.07,1.038,-7.874,15.075,22.522,
00:00:10:766,-0.062,0.001,1.062,-2.32,2.685,29.968,
00:00:10:783,-0.03,0.002,1,25.878,17.7,24.047,
00:00:10:800,0.028,0.008,1.014,-11.17,0.488,8.3,
00:00:10:816,-0.124,-0.08,0.932,15.869,10.192,-23.133,
00:00:10:833,-0.102,-0.061,1.022,0.305,-0.123,-7.142,
00:00:10:850,-0.048,-0.06,1.078,19.714,0.305,-12.024,
00:00:10:866,0.039,-0.011,1.032,-11.597,-23.926,-16.236,
00:00:10:883,0.059,0.05,1.025,-28.504,-42.725,-17.151,
00:00:10:900,-0.002,-0.04,0.91,10.437,-23.011,-17.823,
00:00:10:916,-0.031,-0.154,0.939,2.197,3.784,-5.31,
00:00:10:933,-0.075,-0.074,1.01,-26.734,7.202,9.338,
00:00:10:950,-0.018,-0.051,1.122,10.559,-0.977,13.061,
00:00:10:966,-0.023,0.064,1.136,-21.79,-32.898,10.131,
00:00:10:983,0.022,0.064,1.125,35.522,-35.828,5.31,
00:00:11:0,0.001,-0.033,0.99,102.172,-26.795,-12.513,
00:00:11:16,0.016,-0.066,0.931,86.731,-22.644,-6.409,
00:00:11:33,-0.018,-0.041,0.975,77.27,-21.668,-5.188,
00:00:11:50,0.011,-0.055,1.004,61.218,-11.475,1.464,
00:00:11:66,0.063,-0.038,0.987,25.146,0.488,0.427,
00:00:11:83,0.03,-0.023,0.959,13.427,15.747,-6.775,
00:00:11:100,-0.039,-0.091,0.953,-1.038,42.785,-20.508,
00:00:11:116,-0.079,-0.114,1.059,-49.561,70.983,-20.813,
00:00:11:133,-0.107,-0.127,1.096,-104.371,90.698,-17.029,
00:00:11:150,-0.133,-0.111,1.109,-114.93,87.524,-6.47,
00:00:11:166,-0.147,-0.115,1.156,-131.104,70.617,-5.677,
00:00:11:183,-0.115,-0.064,1.16,-115.052,39.062,4.089,
00:00:11:200,-0.162,-0.026,1.072,-73.792,19.775,-3.113,
00:00:11:216,-0.208,-0.075,1.017,-64.881,23.01,-31.861,
00:00:11:233,-0.176,-0.133,1.012,-102.784,24.414,-61.829,
00:00:11:250,-0.111,-0.116,1.024,-147.095,33.386,-77.088,
00:00:11:266,-0.068,-0.081,1.057,-223.328,32.409,-88.685,
00:00:11:283,-0.058,-0.03,1.051,-290.528,15.502,-94.544,
00:00:11:300,-0.046,0.089,0.912,-287.659,-0.061,-98.633,
00:00:11:316,-0.018,0.119,0.913,-112.366,6.408,-93.995,
00:00:11:333,0.009,-0.047,0.95,44.677,19.714,-132.935,
00:00:11:350,-0.005,-0.115,1.084,-13.611,13.366,-93.201,
00:00:11:366,-0.005,0.02,1.036,-70.496,10.681,-70.191,
00:00:11:383,-0.029,0.099,0.859,-39.734,34.79,-83.619,
00:00:11:400,0.087,0.063,0.818,9.46,104.553,-92.713,
00:00:11:416,0.225,0.019,0.981,-26.307,134.765,-90.088,
00:00:11:433,0.2,0.045,1.032,-91.37,96.374,-82.093,
00:00:11:450,0.133,0.142,0.985,-41.016,63.842,-48.645,
00:00:11:466,0.079,0.133,1.025,45.471,28.32,-52.674,
00:00:11:483,0.212,0.092,0.96,110.901,9.582,-43.763,
00:00:11:500,0.282,0.091,1.008,72.082,20.202,-36.927,
00:00:11:516,0.302,0.099,0.96,41.32,-3.052,-32.654,
00:00:11:533,0.258,0.127,0.821,61.157,-22.522,-20.874,
00:00:11:550,0.248,0.122,0.639,78.308,-15.992,-21.607,
00:00:11:566,0.2,0.074,0.898,118.469,-44.434,-9.522,
00:00:11:583,0.075,-0.079,1.134,79.834,-48.829,-46.814,
00:00:11:600,0.016,0.039,1.151,13.61,-80.75,-26.123,
00:00:11:616,-0.048,0.05,0.982,53.466,-90.271,-59.754,
00:00:11:633,0.008,-0.046,0.812,156.494,-66.407,-52.552,
00:00:11:650,0.028,-0.085,0.798,168.335,-58.838,-36.683,
00:00:11:666,-0.005,-0.099,1.181,152.588,-31.128,-22.583,
00:00:11:683,-0.052,-0.156,1.251,53.588,-8.362,-39.124,
00:00:11:700,0.015,0.029,1.126,15.075,-12.085,-3.968,
00:00:11:716,0.072,0.015,0.945,50.537,12.023,-26.429,
00:00:11:733,0.153,0.032,0.91,84.411,30.212,-11.292,
00:00:11:750,0.119,-0.033,1.054,91.552,44.616,-8.423,
00:00:11:766,0.111,-0.059,1.126,21.24,46.936,-8.362,
00:00:11:783,0.089,0.024,1.203,55.481,-0.489,26.306,
00:00:11:800,0.02,-0.112,0.944,11.657,25.573,-14.405,
00:00:11:816,0.035,-0.058,0.962,-46.326,18.737,21.301,
00:00:11:833,-0.002,-0.01,1.021,13.549,15.686,19.104,
00:00:11:850,0.025,-0.068,1.076,56.945,-1.465,9.338,
00:00:11:866,-0.035,-0.123,1.08,38.391,-13.062,17.334,
00:00:11:883,-0.122,-0.128,1.008,5.615,-23.255,-4.578,
00:00:11:900,-0.094,-0.055,1.031,23.254,-5.799,-11.475,
00:00:11:916,-0.114,-0.054,1.066,23.193,-9.949,-39.551,
00:00:11:933,-0.076,-0.081,1.074,20.568,-18.067,-37.415,
00:00:11:950,-0.08,-0.122,1.078,-3.357,-16.541,-32.654,
00:00:11:966,-0.026,-0.14,1.066,-32.105,-7.264,-15.442,
00:00:11:983,0.023,-0.185,1.049,-91.797,-26.551,-1.648,
00:00:12:0,0.066,-0.113,0.985,-80.079,-25.879,18.432,
00:00:12:16,0.062,-0.025,0.996,-30.64,-37.171,46.569,
00:00:12:33,-0.014,-0.056,0.976,12.146,-30.701,33.996,
00:00:12:50,-0.074,-0.119,0.971,37.414,-18.982,8.239,
00:00:12:66,-0.068,-0.061,0.975,-9.156,-21.363,-13.855,
00:00:12:83,-0.064,-0.035,1.046,-22.767,-28.382,-34.729,
00:00:12:100,-0.04,-0.002,1.084,-62.561,-47.547,-39.124,
00:00:12:116,0.019,-0.002,0.987,-52.735,-35.767,-36.316,
00:00:12:133,-0.004,-0.045,0.88,-16.297,-19.776,-54.749,
00:00:12:150,0.019,-0.131,0.913,-40.406,19.287,-71.961,
00:00:12:166,0.002,-0.098,0.989,-90.332,29.174,-72.205,
00:00:12:183,0.031,-0.008,1.014,-100.953,21.545,-59.815,
00:00:12:200,0.075,-0.042,0.884,-83.863,39.062,-43.335,
00:00:12:216,0.01,-0.14,0.738,-50.354,75.073,-60.975,
00:00:12:233,-0.074,-0.102,0.898,-68.055,125.305,-74.402,
00:00:12:250,-0.04,-0.048,1.256,-69.581,121.826,-63.233,
00:00:12:266,-0.013,0.086,1.3,-20.203,37.17,-44.8,
00:00:12:283,0.018,-0.04,1.123,17.456,5.371,-45.777,
00:00:12:300,0.114,0.036,1.007,-15.931,-26.673,-59.021,
00:00:12:316,0.083,0.058,0.995,50.781,-52.613,-77.942,
00:00:12:333,-0.002,-0.057,1.028,65.49,-69.886,-93.689,
00:00:12:350,-0.067,-0.094,1.172,58.227,-85.022,-73.243,
00:00:12:366,-0.126,-0.15,1.102,39.733,-84.046,-50.843,
00:00:12:383,-0.084,-0.136,0.94,33.569,-58.106,-19.593,
00:00:12:400,-0.034,-0.142,0.932,41.32,-16.053,-9.522,
00:00:12:416,-0.021,-0.098,0.923,10.376,13.183,6.958,
00:00:12:433,-0.02,-0.097,1.004,5.554,20.69,19.47,
00:00:12:450,0.023,-0.082,1.119,-56.519,15.808,20.752,
00:00:12:466,0.051,-0.037,1.1,-115.601,-3.602,40.832,
00:00:12:483,0.038,-0.079,1.084,-166.321,-14.405,45.715,
00:00:12:500,-0.023,-0.072,1.083,-270.874,-33.204,38.574,
00:00:12:516,-0.061,-0.01,1.093,-287.171,-53.956,50.72,
00:00:12:533,-0.016,-0.026,1.068,-240.052,-56.397,72.265,
00:00:12:550,-0.01,-0.014,1.013,-184.571,-80.933,86.914,
00:00:12:566,0.003,-0.02,0.931,-132.142,-82.642,84.35,
00:00:12:583,0.024,0.048,0.92,-93.14,-78.064,79.528,
00:00:12:600,0.076,0.047,0.905,-30.091,-50.477,68.42,
00:00:12:616,0.057,0.104,0.912,-6.348,-19.532,56.945,
00:00:12:633,0.079,0.011,0.897,43.212,30.822,48.706,
00:00:12:650,0.06,0.017,0.895,48.95,88.134,44.86,
00:00:12:666,-0.005,-0.053,0.963,-7.386,128.112,22.888,
00:00:12:683,0.007,0.047,1.032,-104.615,121.582,26.916,
00:00:12:700,-0.027,0.04,1.017,-112.915,112.732,18.249,
00:00:12:716,-0.049,0.007,1.059,-93.934,86.669,9.46,
00:00:12:733,-0.047,-0.056,1.104,-99.305,39.245,2.685,
00:00:12:750,-0.081,-0.02,1.328,-50.293,-43.763,-10.865,
00:00:12:766,-0.082,-0.164,1.105,-182.007,-77.637,-39.368,
00:00:12:783,-0.262,0.067,1.276,-68.726,-150.208,-6.47,
00:00:12:800,-0.274,-0.131,1.237,-39.917,-230.591,-34.241,
00:00:12:816,-0.336,-0.139,1.214,1.586,-293.58,-23.987,
00:00:12:833,-0.358,-0.127,1.178,18.859,-361.206,-30.579,
00:00:12:850,-0.346,-0.099,1.115,52.49,-421.204,-43.519,
00:00:12:866,-0.406,-0.099,1.023,29.113,-424.805,-45.289,
00:00:12:883,-0.401,-0.11,0.951,65.307,-406.25,-48.706,
00:00:12:900,-0.416,-0.125,0.865,70.007,-360.108,-46.875,
00:00:12:916,-0.421,-0.152,0.782,113.952,-275.33,-53.65,
00:00:12:933,-0.38,-0.152,0.698,88.134,-185.364,-83.497,
00:00:12:950,-0.333,-0.215,0.56,-60.791,-60.181,-121.888,
00:00:12:966,-0.234,-0.18,0.415,-170.472,90.332,-164.429,
00:00:12:983,-0.14,-0.065,0.606,-215.943,235.046,-191.529,
00:00:13:0,0.097,0.127,0.876,-256.775,337.402,-197.632,
00:00:13:16,0.199,0.298,1.007,-248.047,373.779,-174.134,
00:00:13:33,0.308,0.246,1.014,-290.772,372.192,-181.458,
00:00:13:50,0.377,0.214,0.978,-364.441,350.219,-153.687,
00:00:13:66,0.384,0.357,0.983,-316.651,305.725,-103.333,
00:00:13:83,0.354,0.479,1.092,-80.872,283.447,-73.426,
00:00:13:100,0.317,0.321,1.184,34.484,278.137,-63.477,
00:00:13:116,0.264,0.229,1.135,-16.846,270.507,-31.311,
00:00:13:133,0.23,0.036,1.094,-117.554,207.763,-56.824,
00:00:13:150,0.178,0.326,1.103,74.035,98.999,-22.583,
00:00:13:166,-0.15,0.045,1.009,127.929,118.286,-186.951,
00:00:13:183,0.005,-0.231,0.851,-51.148,141.174,-205.689,
00:00:13:200,-0.183,0.305,1.127,65.612,60.058,-141.663,
00:00:13:216,-0.169,-0.161,1.002,128.845,88.134,-233.765,
00:00:13:233,-0.256,-0.008,1.013,140.014,15.502,-137.513,
00:00:13:250,-0.199,-0.051,1.067,177.795,13.488,-166.321,
00:00:13:266,-0.143,-0.012,1.128,207.763,2.99,-155.762,
00:00:13:283,-0.123,-0.116,1.094,179.809,-16.602,-160.584,
00:00:13:300,-0.107,-0.163,1.029,129.272,-30.701,-159.424,
00:00:13:316,-0.046,-0.096,1.066,101.135,-34.79,-125.855,
00:00:13:333,-0.081,-0.112,1.015,127.502,-26.917,-124.146,
00:00:13:350,-0.069,-0.074,0.999,137.024,-17.518,-130.86,
00:00:13:366,-0.073,0.005,1.069,146.545,-13.672,-127.015,
00:00:13:383,-0.073,0.129,1.224,270.202,47.607,-238.648,
00:00:13:400,-0.05,-0.361,0.939,311.218,41.687,-139.405,
00:00:13:416,-0.023,-0.068,1.099,138.305,41.32,-20.691,
00:00:13:433,0.076,0.082,1.108,88.134,67.688,-43.091,
00:00:13:450,0.161,0.026,1.029,156.372,78.918,11.657,
00:00:13:466,0.168,0.012,0.954,185.119,79.284,25.817,
00:00:13:483,0.127,0.088,1.064,131.591,68.908,-3.174,
00:00:13:500,0.017,0.021,0.989,119.201,55.297,-39.49,
00:00:13:516,-0.034,-0.164,0.928,65.246,54.26,-60.791,
00:00:13:533,-0.076,-0.18,0.894,12.573,59.265,-87.159,
00:00:13:550,-0.042,-0.081,1.057,-45.777,34.484,-110.962,
00:00:13:566,0.035,0.049,1.077,9.277,-16.663,-109.742,
00:00:13:583,0.004,-0.039,1.019,96.435,-38.147,-117.737,
00:00:13:600,0.03,-0.053,0.94,86.181,-47.913,-114.258,
00:00:13:616,-0.004,-0.121,0.951,67.932,-15.992,-123.78,
00:00:13:633,0.08,-0.143,1.004,-44.617,23.864,-110.413,
00:00:13:650,0.116,-0.059,1.043,-120.301,53.222,-91.431,
00:00:13:666,0.068,-0.02,0.956,-76.233,65.856,-78.125,
00:00:13:683,-0.019,-0.136,0.926,-9.888,77.087,-75.684,
00:00:13:700,-0.052,-0.09,1.056,-8.606,73.669,-88.013,
00:00:13:716,-0.032,-0.067,1.067,-2.686,74.707,-92.286,
00:00:13:733,0.004,-0.117,1.139,-17.579,70.556,-79.102,
00:00:13:750,-0.014,-0.101,1.023,-37.964,55.236,-68.97,
00:00:13:766,-0.042,-0.087,0.931,-1.77,41.442,-73.182,
00:00:13:783,0.042,-0.097,0.948,98.938,43.884,-74.769,
00:00:13:800,0.076,-0.099,1.098,38.086,67.993,-89.356,
00:00:13:816,0.09,0,1.104,-74.402,78.491,-85.572,
00:00:13:833,0.066,-0.085,1.008,-77.82,94.543,-92.652,
00:00:13:850,0.042,-0.057,0.958,-88.318,79.162,-87.281,
00:00:13:866,-0.028,-0.082,0.962,20.263,90.271,-94.788,
00:00:13:883,-0.05,-0.193,1.039,40.466,92.956,-107.972,
00:00:13:900,-0.049,-0.211,1.133,-34.79,102.6,-108.643,
00:00:13:916,-0.025,-0.178,1.163,-125.306,112.793,-108.887,
00:00:13:933,-0.064,-0.141,1.142,-170.899,121.826,-106.568,
00:00:13:950,-0.058,-0.148,1.083,-121.766,134.216,-82.398,
00:00:13:966,-0.052,-0.22,1.022,-196.351,184.082,-66.285,
00:00:13:983,0.022,-0.123,0.978,-302.613,164.55,-47.181,
00:00:14:0,0.139,0.26,1.002,-253.54,43.945,-161.927,
00:00:14:16,0.262,0.259,1.039,-184.571,25.39,-208.008,
00:00:14:33,0.68,0.222,1.151,-274.659,-137.757,-177.796,
00:00:14:50,0.392,0.401,0.924,-105.652,-192.322,-117.493,
00:00:14:66,0.857,0.278,0.958,-339.112,-422.913,-139.344,
00:00:14:83,0.527,0.462,1.114,-49.012,-522.095,103.027,
00:00:14:100,0.52,0.329,1.111,-29.358,-549.683,135.864,
00:00:14:116,0.358,0.268,1.043,-68.909,-542.176,192.199,
00:00:14:133,0.319,0.309,0.955,-129.883,-517.212,249.023,
00:00:14:150,0.211,0.268,0.825,-141.968,-474.549,270.202,
00:00:14:166,0.127,0.224,0.807,-136.231,-397.706,300.903,
00:00:14:183,0.046,0.118,0.758,-162.903,-318.604,322.204,
00:00:14:200,-0.125,-0.019,0.752,-192.81,-218.873,372.802,
00:00:14:216,-0.235,-0.112,0.712,-236.939,-116.761,390.014,
00:00:14:233,-0.318,-0.146,0.764,-259.034,-27.1,363.159,
00:00:14:250,-0.345,-0.121,0.878,-219.727,37.658,309.692,
00:00:14:266,-0.421,-0.2,0.997,-197.693,80.627,259.338,
00:00:14:283,-0.406,-0.202,0.985,-239.808,98.327,216.491,
00:00:14:300,-0.423,-0.144,0.983,-237.061,109.069,176.818,
00:00:14:316,-0.417,-0.107,0.982,-155.823,115.295,119.384,rollRH
00:00:14:333,-0.368,-0.151,0.978,-117.798,134.094,69.58,
00:00:14:350,-0.297,-0.107,0.929,-107.056,155.883,24.169,
00:00:14:366,-0.203,-0.179,1.096,-53.894,107.299,-53.956,
00:00:14:383,-0.201,0.159,1.233,157.714,49.621,-39.246,
00:00:14:400,-0.051,-0.021,1.081,48.034,30.273,-107.117,
00:00:14:416,-0.225,0.048,0.987,86.608,29.235,-112.488,
00:00:14:433,-0.184,-0.067,0.695,52.856,105.835,-123.597,
00:00:14:450,-0.039,0.203,0.742,-163.758,32.775,-134.583,
00:00:14:466,-0.149,0.129,0.912,217.285,108.215,-147.583,
00:00:14:483,-0.161,-0.439,0.907,97.473,207.519,-208.558,
00:00:14:500,-0.125,-0.216,1.002,-287.964,230.529,-231.324,
00:00:14:516,-0.34,1.274,2.022,334.594,-84.168,-40.589,
00:00:14:533,0.005,-0.493,1.017,43.09,-31.556,-170.289,
00:00:14:550,-0.19,0.133,0.88,-77.759,-69.519,-70.374,
00:00:14:566,-0.118,-0.021,1.003,160.156,-30.762,-101.502,
00:00:14:583,-0.046,-0.083,1.095,66.955,-36.316,-82.764,
00:00:14:600,-0.118,0.078,1.14,37.658,-14.832,-63.233,
00:00:14:616,-0.114,0.036,1,59.936,-1.343,-39.673,
00:00:14:633,-0.108,0.025,1.022,81.359,12.512,-20.203,
00:00:14:650,-0.083,0.045,0.973,69.641,12.878,-14.405,
00:00:14:666,-0.078,0.049,0.98,97.29,17.456,-11.719,
00:00:14:683,-0.077,0.038,1.111,95.214,21.118,-11.963,
00:00:14:700,-0.078,0.017,1.05,46.264,23.01,-14.222,
00:00:14:716,-0.073,0.049,0.946,25.146,21.911,-20.691,
00:00:14:733,-0.107,0.02,0.95,79.162,20.996,-31.495,
00:00:14:750,-0.129,-0.016,1.024,88.501,12.146,-49.256,
00:00:14:766,-0.131,-0.027,1.108,77.392,7.507,-74.646,
00:00:14:783,-0.109,-0.001,1.079,17.211,-2.747,-80.811,
00:00:14:800,-0.099,0.005,0.958,29.663,-9.461,-84.839,
00:00:14:816,-0.137,0.025,0.973,103.637,-3.54,-86.914,
00:00:14:833,-0.094,-0.002,1.041,138.061,-6.47,-97.962,
00:00:14:850,-0.063,0.116,1.201,131.469,-33.448,-98.145,
00:00:14:866,-0.082,0.019,1.126,159.057,-33.814,-103.638,
00:00:14:883,-0.083,-0.078,0.966,128.845,-20.935,-108.094,
00:00:14:900,-0.121,-0.064,0.904,97.168,3.418,-117.005,
00:00:14:916,-0.008,0.083,0.841,91.857,17.028,-124.878,
00:00:14:933,-0.031,0.056,1.002,210.815,27.71,-124.207,
00:00:14:950,-0.034,-0.058,1.108,146.85,24.963,-118.226,
00:00:14:966,-0.11,-0.022,1.18,85.693,18.676,-89.905,
00:00:14:983,-0.099,-0.073,0.851,56.518,59.326,-123.78,
00:00:15:0,-0.061,-0.011,0.858,54.992,84.961,-130.982,
00:00:15:16,-0.044,-0.058,1.044,69.519,107.116,-130.188,
00:00:15:33,-0.058,-0.098,1.084,6.408,106.506,-130.127,
00:00:15:50,0.012,0.003,1.114,-44.068,110.901,-109.742,
00:00:15:66,0.083,0.135,1.007,11.901,104.553,-98.877,
00:00:15:83,0.156,0.17,0.973,26.306,87.341,-83.558,
00:00:15:100,0.107,0.09,0.994,79.895,99.243,-71.045,
00:00:15:116,0.041,-0.024,1.031,48.217,102.478,-63.172,
00:00:15:133,-0.026,-0.004,1.024,9.765,99.853,-59.998,
00:00:15:150,-0.07,-0.012,0.999,8.178,90.087,-75.257,
00:00:15:166,-0.096,-0.039,1.03,64.514,72.387,-84.9,
00:00:15:183,-0.122,-0.134,1.025,68.298,59.997,-118.164,
00:00:15:200,-0.158,-0.15,1.015,46.325,65.673,-127.198,
00:00:15:216,0.035,-0.015,1.069,90.698,60.241,-112.61,
00:00:15:233,0.081,0.004,1.013,119.629,68.298,-119.141,
00:00:15:250,0.161,0.044,0.985,108.581,73.303,-91.126,
00:00:15:266,0.127,0.026,1.015,85.815,93.017,-92.347,
00:00:15:283,0.084,-0.018,0.985,89.111,101.989,-87.098,
00:00:15:300,0.063,-0.051,1.072,64.819,102.783,-72.327,
00:00:15:316,0.065,-0.028,1.014,91.552,92.712,-47.12,
00:00:15:333,0.075,-0.05,0.942,130.92,103.088,-62.134,
00:00:15:350,0.152,-0.01,0.862,126.464,99.182,-50.354,
00:00:15:366,0.144,0.011,1.11,120.544,109.985,-42.664,
00:00:15:383,0.169,-0.034,1.121,19.165,81.115,-51.575,
00:00:15:400,0.089,0.023,1.008,35.705,50.781,-8.301,
00:00:15:416,0.179,-0.015,0.918,15.869,28.503,-3.968,
00:00:15:433,0.145,0.002,0.91,38.147,-6.958,-3.174,
00:00:15:450,0.071,-0.014,0.879,95.703,-34.18,-33.631,
00:00:15:466,0.123,-0.077,1.063,72.448,-34.241,-6.958,
00:00:15:483,0.061,-0.104,1.068,24.658,-54.139,-0.245,
00:00:15:500,0.036,-0.178,0.886,43.335,-45.35,-7.691,
00:00:15:516,-0.084,-0.197,0.96,-25.025,-19.837,-28.87,
00:00:15:533,-0.066,-0.167,1.051,-98.938,-8.851,-53.04,
00:00:15:550,-0.127,-0.167,1.137,-83.313,-14.1,-58.899,
00:00:15:566,-0.088,-0.218,1.087,-67.444,-16.297,-43.824,
00:00:15:583,-0.04,-0.191,1.027,-93.384,-10.254,-33.081,
00:00:15:600,0.005,-0.08,1.014,-113.343,-9.705,-16.297,
00:00:15:616,0.046,-0.01,0.977,-52.674,-14.832,-1.77,
00:00:15:633,0.018,-0.16,0.915,-32.715,18.981,2.502,
00:00:15:650,0.067,-0.185,0.96,-118.836,50.231,27.221,
00:00:15:666,0.084,-0.045,1.019,-131.409,55.664,43.701,
00:00:15:683,0.052,0.015,0.977,-108.948,38.33,38.757,
00:00:15:700,0.036,-0.014,0.929,-100.525,38.757,20.324,
00:00:15:716,0.033,-0.078,0.914,-125.489,65.307,12.756,
00:00:15:733,0.094,-0.086,0.98,-182.618,78.796,31.311,
00:00:15:750,0.147,0.005,1.031,-184.205,69.274,49.133,
00:00:15:766,0.082,0.011,0.956,-118.47,70.495,57.678,
00:00:15:783,-0.042,0.095,1.243,92.712,7.202,69.641,
00:00:15:800,-0.006,-0.147,1.15,-26.123,-13.55,40.039,
00:00:15:816,0.012,-0.07,1.072,-30.884,-8.851,81.481,
00:00:15:833,0.068,-0.059,0.931,-38.941,1.709,85.083,
00:00:15:850,0.008,-0.051,0.974,-5.677,14.343,71.044,
00:00:15:866,-0.022,-0.098,1.05,31.066,13.732,74.707,
00:00:15:883,-0.08,-0.161,1.196,7.263,4.943,86.425,
00:00:15:900,-0.113,-0.207,0.986,-42.42,13.122,88.928,
00:00:15:916,-0.09,-0.151,0.989,-52.552,21.118,73.73,
00:00:15:933,-0.102,-0.141,1.057,-32.837,16.845,54.87,
00:00:15:950,-0.042,-0.144,1.033,-54.2,-3.479,50.72,
00:00:15:966,0.046,-0.14,1.15,-11.78,-21.912,49.804,
00:00:15:983,-0.005,-0.084,1.039,-4.578,-30.518,50.231,
00:00:16:0,-0.03,-0.054,1.081,12.329,-32.959,56.03,
00:00:16:16,0.019,-0.092,1.045,-7.447,-33.448,57.312,
00:00:16:33,0.017,-0.122,0.964,-32.898,-28.931,65.612,
00:00:16:50,0.022,-0.143,0.877,-33.081,19.653,82.824,
00:00:16:66,-0.047,-0.238,1.083,-34.302,31.738,99.731,
00:00:16:83,-0.107,-0.21,1.094,-49.622,37.658,118.652,
00:00:16:100,-0.21,-0.288,1.035,-62.928,52.246,143.798,
00:00:16:116,-0.193,-0.232,1.003,-33.081,37.597,159.362,
00:00:16:133,-0.19,-0.234,1.057,38.513,60.913,171.203,
00:00:16:150,-0.146,-0.272,1.058,-45.227,72.937,167.419,
00:00:16:166,-0.121,-0.155,1.114,-220.948,83.801,188.72,
00:00:16:183,-0.055,-0.051,1.206,-378.296,105.041,232.91,
00:00:16:200,0.081,-0.021,1.211,-370.728,113.83,277.526,
00:00:16:216,0.191,0.021,1.014,-263.794,95.459,285.949,
00:00:16:233,0.211,-0.009,0.81,-191.834,80.749,292.419,
00:00:16:250,0.131,0.012,0.862,-168.152,75.622,314.575,
00:00:16:266,0.072,0.018,1.083,-150.513,76.599,271.85,
00:00:16:283,0.072,-0.01,1.159,-139.527,34.668,200.378,
00:00:16:300,0.104,-0.011,1.117,-28.016,-39.002,111.023,
00:00:16:316,0.034,0.057,1.145,217.468,-156.678,56.396,
00:00:16:333,-0.001,-0.012,1.192,412.231,-205.018,5.859,
00:00:16:350,0.005,-0.114,1.236,438.476,-284.668,-24.414,
00:00:16:366,-0.047,-0.226,1.182,440.734,-309.632,-13.916,
00:00:16:383,-0.106,-0.253,1.148,471.618,-336.67,18.432,
00:00:16:400,-0.192,-0.155,1.097,447.57,-348.755,24.231,
00:00:16:416,-0.272,-0.347,0.934,387.573,-305.054,-2.564,
00:00:16:433,-0.333,-0.401,1.011,436.218,-325.867,9.521,
00:00:16:450,-0.492,-0.622,0.975,210.51,-335.083,-79.712,
00:00:16:466,-0.572,-0.441,1.004,239.074,-307.19,-32.532,
00:00:16:483,-0.61,-0.178,0.963,286.01,-238.526,-63.904,
00:00:16:500,-0.693,-0.237,0.832,208.801,-182.557,-144.593,
00:00:16:516,-0.737,-0.23,0.71,49.743,-94.361,-175.782,
00:00:16:533,-0.695,-0.174,0.588,-7.508,43.701,-215.271,
00:00:16:550,-0.614,-0.112,0.468,-11.292,164.245,-203.919,
00:00:16:566,-0.496,-0.074,0.429,-106.263,301.941,-162.354,
00:00:16:583,-0.361,0.001,0.613,-200.745,384.704,-111.512,
00:00:16:600,-0.185,0.098,0.835,-360.596,462.341,-148.865,
00:00:16:616,-0.022,0.286,0.986,-453.797,496.032,-161.438,
00:00:16:633,0.058,0.31,0.982,-362.61,519.165,-158.143,
00:00:16:650,0.17,0.286,0.847,-221.802,531.433,-102.784,
00:00:16:667,0.366,0.368,0.86,-131.836,459.411,-49.744,
00:00:16:683,0.457,0.451,0.953,63.049,327.087,13.244,
00:00:16:700,0.423,0.335,0.999,207.458,272.888,24.536,
00:00:16:717,0.398,0.133,0.94,220.581,274.536,42.419,
00:00:16:733,0.462,-0.148,0.882,62.805,281.25,97.961,
00:00:16:750,0.515,-0.149,0.861,-133.606,254.882,101.44,
00:00:16:767,0.455,-0.087,0.916,-213.501,235.839,121.643,
00:00:16:783,0.385,-0.011,0.962,-192.444,233.581,118.896,
00:00:16:800,0.389,-0.039,1.056,-95.826,243.957,110.962,
00:00:16:817,0.368,-0.141,1.026,-66.224,266.784,109.558,
00:00:16:833,0.36,-0.159,0.978,-29.725,250.671,103.088,
00:00:16:850,0.363,-0.155,1.015,-139.588,207.214,105.224,
00:00:16:867,0.343,-0.118,0.912,-320.923,171.264,104.065,
00:00:16:883,0.489,0.33,1.309,-396.729,23.01,172.851,
00:00:16:900,0.45,0.298,1.49,-91.309,-95.581,147.705,
00:00:16:917,0.285,0.099,1.382,-20.02,-182.007,182.922,
00:00:16:933,-0.056,0.23,0.755,291.809,-91.248,184.021,
00:00:16:950,-0.053,0.055,0.679,522.644,59.692,145.874,
00:00:16:967,0.046,-0.165,0.832,497.741,162.78,138.366,
00:00:16:983,0.162,-0.146,1.024,350.219,172.18,169.433,
00:00:17:0,0.246,-0.162,1.124,249.511,69.213,164.123,
00:00:17:17,0.341,-0.092,1.076,192.81,-29.297,154.663,
00:00:17:33,0.153,-0.183,0.906,210.815,-22.4,167.968,
00:00:17:50,0.097,-0.381,0.874,183.166,20.752,173.706,
00:00:17:67,0.232,-0.262,0.98,59.631,31.066,199.768,
00:00:17:83,0.295,-0.149,1.096,93.933,10.253,183.776,
00:00:17:100,0.257,-0.191,1.03,106.872,-5.555,140.93,
00:00:17:117,0.181,-0.058,1.058,103.21,7.629,104.309,
00:00:17:133,0.264,-0.195,1.084,159.057,14.404,93.078,
00:00:17:150,0.347,-0.225,0.999,165.527,10.742,64.514,
00:00:17:167,0.329,-0.223,0.98,148.071,26.367,74.768,
00:00:17:183,0.325,-0.205,0.955,171.63,32.775,55.542,
00:00:17:200,0.276,-0.256,0.81,182.983,61.157,41.076,
00:00:17:217,0.321,-0.338,0.909,85.815,77.453,21.301,
00:00:17:233,0.308,-0.19,1.011,-8.118,53.527,8.972,
00:00:17:250,0.199,-0.098,1.02,58.288,40.222,2.075,
00:00:17:267,0.096,-0.244,1.063,125.305,42.297,-15.015,
00:00:17:283,0.088,-0.138,1.041,105.163,38.696,-12.574,
00:00:17:300,0.091,-0.16,0.975,134.033,48.034,-6.226,
00:00:17:317,0.131,-0.132,1.072,198.669,54.626,41.198,
00:00:17:333,0.21,-0.178,0.757,247.07,59.082,-5.127,
00:00:17:350,0.315,-0.342,0.83,102.6,56.884,-24.537,
00:00:17:367,0.305,-0.299,0.897,7.629,31.982,-21.973,
00:00:17:383,0.22,-0.175,1.013,-45.716,23.986,-19.349,
00:00:17:400,0.186,-0.164,1.092,39.917,32.898,-29.664,
00:00:17:417,0.133,-0.244,1.052,119.506,30.822,-14.222,
00:00:17:433,0.131,-0.29,0.956,119.567,34.057,-10.498,
00:00:17:450,0.133,-0.255,0.953,57.373,29.541,4.699,
00:00:17:467,0.138,-0.197,0.962,35.217,8.606,4.821,
00:00:17:483,0.203,-0.176,0.825,80.2,8.728,-20.935,
00:00:17:500,0.261,-0.331,0.828,76.232,18.92,-43.335,
00:00:17:517,0.297,-0.293,0.91,9.765,14.526,-25.147,
00:00:17:533,0.296,-0.273,0.975,15.502,15.686,-40.711,
00:00:17:550,0.219,-0.249,0.905,28.381,18.737,-47.669,
00:00:17:567,0.203,-0.319,0.845,47.79,22.033,-54.017,
00:00:17:583,0.221,-0.329,0.883,-16.724,30.639,-46.326,
00:00:17:600,0.179,-0.271,1.054,-58.838,22.094,-36.499,
00:00:17:617,0.115,-0.189,1.061,-37.598,15.38,-36.194,
00:00:17:633,0.122,-0.2,1.045,47.485,14.648,-34.974,
00:00:17:650,0.188,-0.268,0.905,95.52,14.831,-52.796,
00:00:17:667,0.207,-0.291,0.853,19.653,5.127,-54.566,
00:00:17:683,0.195,-0.272,0.893,-19.104,7.08,-41.993,
00:00:17:700,0.254,-0.319,0.949,-10.865,2.99,-47.242,
00:00:17:717,0.27,-0.288,0.951,-6.531,-4.334,-35.157,
00:00:17:733,0.239,-0.28,0.914,-7.935,-3.357,-49.561,
00:00:17:750,0.192,-0.249,0.952,-59.266,-14.527,-53.284,
00:00:17:767,0.138,-0.243,1.015,-70.496,-22.522,-54.261,
00:00:17:783,0.133,-0.257,1.041,-37.171,-32.349,-41.81,
00:00:17:800,0.103,-0.264,1.015,-3.052,-27.1,-25.94,
00:00:17:817,0.127,-0.211,0.918,-5.555,-15.809,-18.006,
00:00:17:833,0.207,-0.304,0.883,-3.296,-2.442,-16.114,
00:00:17:850,0.223,-0.358,0.921,-9.888,3.784,-1.465,
00:00:17:867,0.227,-0.286,0.962,-40.284,4.028,0.244,
00:00:17:883,0.22,-0.228,0.982,-32.349,9.216,-6.043,
00:00:17:900,0.204,-0.247,0.997,-7.813,-5.555,-2.747,
00:00:17:917,0.158,-0.276,0.96,4.821,-16.663,6.958,
00:00:17:933,0.137,-0.284,0.938,2.807,-6.104,11.901,
00:00:17:950,0.168,-0.276,0.921,-0.611,-1.404,5.676,
00:00:17:967,0.242,-0.297,0.909,-38.147,10.986,-7.691,
00:00:17:983,0.26,-0.296,0.93,-35.523,-6.043,-1.465,
00:00:18:0,0.248,-0.303,0.969,-33.448,-8.851,-6.287,
00:00:18:17,0.223,-0.262,1.022,-42.42,-9.339,-17.579,
00:00:18:33,0.21,-0.212,1.001,-41.26,-9.705,-25.574,
00:00:18:50,0.174,-0.252,0.905,-12.94,1.037,-20.874,
00:00:18:67,0.167,-0.288,0.997,-13.611,6.53,-15.503,
00:00:18:83,0.17,-0.241,1.054,2.258,13.366,-18.921,
00:00:18:100,0.176,-0.228,1.002,34.668,15.991,-15.442,
00:00:18:117,0.175,-0.272,0.936,65.429,19.409,-22.522,
00:00:18:133,0.18,-0.333,0.878,41.198,28.93,-17.762,
00:00:18:150,0.189,-0.286,0.936,-18.738,32.348,-0.733,
00:00:18:167,0.206,-0.222,0.983,-17.456,28.381,-6.714,
00:00:18:183,0.216,-0.255,0.99,6.286,22.766,-19.776,
00:00:18:200,0.184,-0.295,0.961,21.118,14.709,-8.606,
00:00:18:217,0.143,-0.253,0.91,-22.278,31.005,4.333,
00:00:18:233,0.139,-0.179,0.963,13.855,40.1,19.653,
00:00:18:250,0.12,-0.409,1.164,-121.094,-74.463,-106.019,
00:00:18:267,0.212,-0.287,0.978,10.742,31.921,-108.948,
00:00:18:283,0.245,-0.3,0.927,52.368,25.39,7.141,rollRH
00:00:18:300,0.219,-0.339,0.89,23.559,33.996,1.586,
00:00:18:317,0.266,-0.295,0.865,5.127,38.696,7.385,
00:00:18:333,0.338,-0.28,0.879,-11.658,36.499,-15.137,
00:00:18:350,0.324,-0.306,0.956,-34.424,6.042,-26.185,
00:00:18:367,0.271,-0.295,0.924,-45.166,-4.029,-41.932,
00:00:18:383,0.222,-0.277,0.945,-81.604,-19.715,-16.907,
00:00:18:400,0.156,-0.272,0.878,-69.947,-10.376,-36.133,
00:00:18:417,0.18,-0.26,0.931,-59.388,0.183,-41.81,
00:00:18:433,0.249,-0.319,1.019,-37.049,4.089,-47.425,
00:00:18:450,0.222,-0.295,1.037,-36.255,-0.916,-29.236,
00:00:18:467,0.2,-0.234,0.959,-18.494,-2.747,-29.908,
00:00:18:483,0.204,-0.261,0.89,-20.691,-0.184,-39.185,
00:00:18:500,0.221,-0.313,0.896,-51.148,-11.17,-41.016,
00:00:18:517,0.214,-0.296,0.921,-96.009,-8.362,-37.049,
00:00:18:533,0.182,-0.256,0.971,-88.807,-6.775,-39.612,
00:00:18:550,0.187,-0.201,1.028,-91.126,-6.409,-49.134,
00:00:18:567,0.158,-0.184,1.034,-39.307,-7.386,-47.486,
00:00:18:583,0.186,-0.282,0.979,-14.283,3.967,-46.57,
00:00:18:600,0.161,-0.292,0.954,-19.104,13.855,-28.748,
00:00:18:617,0.146,-0.263,0.986,-27.161,36.377,-15.87,
00:00:18:633,0.193,-0.196,1.015,-6.592,45.837,-18.128,
00:00:18:650,0.217,-0.239,0.989,37.536,38.635,-21.241,
00:00:18:667,0.218,-0.292,0.933,34.118,24.902,-8.912,
00:00:18:683,0.174,-0.26,0.897,10.803,24.536,8.361,
00:00:18:700,0.187,-0.23,0.919,-0.855,34.545,-8.545,
00:00:18:717,0.208,-0.253,0.94,-7.935,31.677,-20.203,
00:00:18:733,0.203,-0.285,0.977,-17.762,18.249,-3.968,
00:00:18:750,0.208,-0.268,0.971,-13.184,22.216,-2.686,
00:00:18:767,0.19,-0.249,0.961,-9.949,4.638,4.272,
00:00:18:783,0.175,-0.219,0.937,-17.395,5.554,-5.249,
00:00:18:800,0.163,-0.324,1.034,-37.171,-18.555,-34.058,
00:00:18:817,0.245,-0.133,0.897,-26.978,11.535,-54.932,
00:00:18:833,0.169,-0.289,1.021,16.113,19.714,21.057,
00:00:18:850,0.283,-0.319,0.943,-4.273,7.69,-7.63,
00:00:18:867,0.251,-0.315,0.861,-23.987,-7.996,21.24,
00:00:18:883,0.259,-0.307,0.859,-78.064,3.662,10.192,
00:00:18:900,0.272,-0.229,0.91,-108.643,-2.686,3.356,
00:00:18:917,0.202,-0.195,1,-100.342,-2.808,-26.978,
00:00:18:933,0.208,-0.195,1.087,-65.369,0.793,-47.242,
00:00:18:950,0.199,-0.229,0.971,-24.476,-20.142,-33.204,
00:00:18:967,0.097,-0.251,0.949,-31.861,-23.987,-15.992,
00:00:18:983,0.178,-0.215,0.935,-65.491,-5.982,-9.4,
00:00:19:0,0.204,-0.219,1.004,-52.43,-19.532,0.244,
00:00:19:17,0.221,-0.284,0.963,-38.331,-17.456,-7.142,
00:00:19:33,0.227,-0.26,0.932,-67.688,-30.762,9.155,
00:00:19:50,0.221,-0.282,0.955,-73.792,-24.598,6.347,
00:00:19:67,0.231,-0.219,0.955,-99.732,-33.57,19.836,
00:00:19:83,0.192,-0.156,0.995,-104.493,-36.133,16.967,
00:00:19:100,0.203,-0.242,0.985,-90.516,-33.753,2.868,
00:00:19:117,0.186,-0.277,0.965,-133.728,-28.321,12.939,
00:00:19:133,0.202,-0.252,0.981,-137.146,-10.437,18.188,
00:00:19:150,0.217,-0.231,0.995,-116.944,-5.555,23.62,
00:00:19:167,0.208,-0.229,0.963,-132.935,8.789,23.864,
00:00:19:183,0.227,-0.252,0.949,-189.148,18.859,17.822,
00:00:19:200,0.244,-0.249,0.927,-296.631,10.864,28.076,
00:00:19:217,0.218,-0.185,0.857,-358.582,-13.245,34.912,
00:00:19:233,0.211,-0.067,0.971,-262.696,-13.123,13.977,
00:00:19:250,0.231,-0.121,1.045,-173.401,7.202,-32.898,
00:00:19:267,0.21,-0.151,0.987,-186.158,8.606,-20.081,
00:00:19:283,0.168,-0.193,0.961,-227.478,17.761,-4.7,
00:00:19:300,0.208,-0.242,0.975,-275.879,43.762,-10.56,
00:00:19:317,0.273,-0.253,1.066,-349.732,35.034,3.662,
00:00:19:333,0.248,-0.085,1.077,-453.431,-4.151,55.481,
00:00:19:350,0.213,0.031,1.079,-408.631,6.53,13.61,
00:00:19:367,0.247,0,0.99,-337.769,-0.55,-5.066,
00:00:19:383,0.254,-0.09,0.874,-355.53,-44.312,-37.842,
00:00:19:400,0.237,-0.088,0.83,-393.006,-57.74,-49.195,
00:00:19:417,0.275,-0.044,0.881,-411.866,-59.754,-72.815,
00:00:19:433,0.389,-0.003,1.076,-454.163,-134.705,-78.675,
00:00:19:450,0.407,0.043,1.219,-415.528,-251.221,-42.847,
00:00:19:467,0.352,-0.018,1.217,-347.84,-324.83,-64.698,
00:00:19:483,0.31,0.06,1.264,-234.925,-499.329,-6.531,
00:00:19:500,0.284,0.039,1.181,-145.447,-505.005,-2.503,
00:00:19:517,0.309,0.09,1.12,-2.808,-499.939,6.958,
00:00:19:533,0.331,0.031,1.031,154.358,-482.605,-0.428,
00:00:19:550,0.312,-0.05,0.917,236.206,-446.228,-13.916,
00:00:19:567,0.176,-0.095,0.707,295.959,-187.989,6.53,
00:00:19:583,0.144,-0.107,0.728,247.985,-82.459,-19.165,
00:00:19:600,0.12,-0.144,0.649,188.232,-1.16,-54.505,
00:00:19:617,0.037,-0.178,0.62,70.434,41.565,-94.422,
00:00:19:633,-0.021,-0.097,0.735,-59.937,69.702,-131.409,
00:00:19:650,-0.112,-0.007,0.847,-119.568,99.365,-162.964,
00:00:19:667,-0.187,0.055,0.911,-86.731,157.653,-185.181,
00:00:19:683,-0.251,0.062,0.897,-54.444,204.589,-231.934,
00:00:19:700,-0.313,0.048,0.879,-39.368,255.554,-240.235,
00:00:19:717,-0.265,0.14,0.902,-75.501,281.128,-260.987,
00:00:19:733,-0.202,0.201,0.925,-91.919,278.137,-259.095,
00:00:19:750,-0.228,0.21,1.049,-69.336,266.479,-206.36,
00:00:19:767,-0.242,0.187,1.071,-17.334,281.189,-178.772,
00:00:19:783,-0.185,0.217,0.985,-13.245,280.456,-153.809,
00:00:19:800,-0.151,0.264,0.959,-34.485,257.751,-129.944,
00:00:19:817,-0.153,0.234,1.041,-56.824,200.195,10.925,
00:00:19:833,-0.132,0.338,1.025,113.525,190.124,34.973,
00:00:19:850,-0.101,0.221,0.97,271.301,191.772,55.664,
00:00:19:867,-0.149,-0.177,0.995,201.782,192.871,31.555,
00:00:19:883,0.052,-0.523,1.47,-81.727,-56.946,-44.861,
00:00:19:900,0.085,0.253,1.229,-133.118,-120.24,49.804,
00:00:19:917,-0.006,0.337,1.163,389.282,-63.599,-43.824,
00:00:19:933,-0.126,-0.15,1.075,534.24,55.419,61.34,
00:00:19:950,-0.075,-0.235,1.077,359.253,69.458,61.706,
00:00:19:967,-0.012,0.191,1.053,306.152,-98.633,130.798,
00:00:19:983,-0.166,-0.062,0.815,315.063,-71.534,113.342,
00:00:20:0,-0.095,-0.184,0.78,136.291,-35.157,90.21,
00:00:20:17,0.123,-0.19,0.942,16.418,-23.926,106.567,
00:00:20:33,0.153,-0.066,1.084,0.61,-33.265,172.363,
00:00:20:50,0.174,-0.133,1.068,128.418,-0.367,129.638,
00:00:20:67,0.259,-0.383,0.937,123.23,36.438,95.825,
00:00:20:83,0.33,-0.302,0.986,-52.247,48.156,132.446,
00:00:20:100,0.358,-0.093,1.007,-45.655,42.663,125.61,
00:00:20:117,0.299,-0.163,1.01,54.87,42.48,79.345,
00:00:20:133,0.248,-0.24,0.985,37.597,31.311,45.898,
00:00:20:150,0.251,-0.187,0.879,-48.89,36.193,16.54,
00:00:20:167,0.226,-0.14,0.949,-62.195,46.814,12.695,
00:00:20:183,0.202,-0.165,1.078,-19.41,56.884,-9.156,
00:00:20:200,0.119,-0.071,1.098,-17.762,67.81,-9.949,
00:00:20:217,0.082,-0.032,1.016,6.286,71.228,-15.442,
00:00:20:233,0.098,-0.115,0.993,-3.602,73.242,-39.246,
00:00:20:250,0.072,-0.055,0.955,-28.565,63.659,-11.902,
00:00:20:267,0.057,-0.104,0.999,-22.095,71.35,-22.889,
00:00:20:283,0.087,-0.125,1.036,-51.209,58.044,-24.17,
00:00:20:300,0.097,-0.095,0.979,-60.73,45.776,-20.997,
00:00:20:317,0.086,-0.125,0.959,-67.261,59.326,-22.4,
00:00:20:333,0.16,-0.087,0.932,-111.878,59.692,-25.696,
00:00:20:350,0.141,-0.119,0.98,-97.535,58.532,-9.827,
00:00:20:367,0.177,-0.103,1.06,-71.351,57.006,-12.391,
00:00:20:383,0.175,-0.082,1.062,-23.011,60.058,-14.527,
00:00:20:400,0.127,-0.088,0.986,-13.428,70.495,-11.597,
00:00:20:417,0.173,-0.16,0.967,-44.007,84.167,-33.02,
00:00:20:433,0.149,-0.115,1.003,-82.459,81.359,6.774,
00:00:20:450,0.125,-0.076,1.007,-48.951,82.946,4.699,
00:00:20:467,0.136,-0.095,0.971,0.671,79.406,0.488,
00:00:20:483,0.143,-0.14,0.971,-29.419,70.8,-7.935,
00:00:20:500,0.203,-0.109,0.993,-87.22,54.26,-7.264,
00:00:20:517,0.211,-0.055,0.975,-89.722,26.428,4.699,
00:00:20:533,0.135,-0.078,0.97,-78.797,20.141,3.356,
00:00:20:550,0.13,-0.089,1.033,-112.915,27.282,1.709,
00:00:20:567,0.145,-0.065,1.041,-119.141,22.583,10.803,
00:00:20:583,0.127,-0.075,1.05,-119.568,25.634,6.347,
00:00:20:600,0.203,-0.028,1.065,-152.161,27.648,-17.64,
00:00:20:617,0.194,0.031,1.022,-139.649,4.028,-19.227,
00:00:20:633,0.13,0.032,1.009,-90.149,19.47,-20.752,
00:00:20:650,0.104,-0.059,1.025,-62.256,29.48,-20.386,
00:00:20:667,0.142,-0.128,0.997,-86.67,50.903,-1.038,
00:00:20:683,0.303,-0.127,1.02,-194.825,94.36,-20.752,
00:00:20:700,0.434,-0.124,1.039,-259.583,79.04,-35.584,
00:00:20:717,0.508,-0.084,0.942,-289.49,50.598,-65.674,
00:00:20:733,0.575,-0.166,0.904,-355.225,6.286,-129.273,
00:00:20:750,0.665,-0.174,0.917,-498.352,-140.686,-94.544,
00:00:20:767,0.564,-0.156,1.089,-562.317,-242.676,-66.834,
00:00:20:783,0.742,-0.09,1.127,-488.648,-343.995,-5.494,
00:00:20:800,0.657,-0.001,1.192,-465.271,-486.084,8.3,
00:00:20:817,0.551,0.014,1.164,-381.653,-542.176,8.239,
00:00:20:833,0.536,0.072,1.158,-354.737,-592.896,10.864,
00:00:20:850,0.477,0.137,1.101,-283.631,-614.38,26.916,
00:00:20:867,0.461,0.178,1.051,-165.223,-621.399,14.404,
00:00:20:883,0.431,0.202,1.007,-37.232,-613.099,10.315,
00:00:20:900,0.356,0.186,0.944,161.743,-584.717,-21.668,
00:00:20:917,0.302,0.117,0.873,314.331,-526.001,-71.351,
00:00:20:933,0.257,0.078,0.785,393.798,-463.562,-130.738,
00:00:20:950,0.196,0.034,0.745,366.333,-383.973,-206.788,
00:00:20:967,0.122,-0.058,0.721,297.973,-303.345,-288.331,
00:00:20:983,-0.023,-0.191,0.695,277.099,-216.065,-401.368,
00:00:21:0,-0.109,-0.065,0.739,12.695,-133.545,-404.48,
00:00:21:17,-0.186,0.195,0.69,-136.597,-64.698,-451.722,
00:00:21:33,-0.351,0.102,0.579,-80.75,41.381,-557.984,
00:00:21:50,-0.371,0.026,0.566,0.793,148.071,-643.555,
00:00:21:67,-0.444,0.044,0.744,-9.461,208.068,-673.157,
00:00:21:83,-0.583,-0.012,0.847,-6.653,309.753,-688.355,
00:00:21:100,-0.562,-0.057,0.917,-193.055,391.906,-707.459,
00:00:21:117,-0.463,0.016,0.885,-476.319,404.541,-690.247,
00:00:21:133,-0.474,0.287,0.884,-521.241,359.497,-617.188,
00:00:21:150,-0.544,0.423,0.993,-334.717,375.061,-544.312,
00:00:21:167,-0.5,0.431,1.091,-124.939,367.492,-465.76,
00:00:21:183,-0.461,0.301,1.101,41.259,355.102,-424.195,
00:00:21:200,-0.347,0.199,1.074,24.963,336.364,-366.028,
00:00:21:217,-0.288,0.235,1.046,-56.397,303.711,-301.636,
00:00:21:233,-0.207,0.327,1.031,-65.125,284.362,-234.436,
00:00:21:250,-0.133,0.442,1.008,79.101,298.095,-192.2,
00:00:21:267,0.183,0.392,1.415,39.184,118.408,-86.243,
00:00:21:283,-0.015,0.801,1.595,352.05,-58.228,12.39,
00:00:21:300,-0.293,-0.234,1.03,519.775,73.181,-189.515,
00:00:21:317,0.276,-0.303,1.129,97.839,-30.701,-61.28,
00:00:21:333,-0.036,0.082,1.029,116.577,-40.528,3.112,
00:00:21:350,-0.019,-0.098,1.068,149.902,3.967,-63.965,
00:00:21:367,0.036,0.084,1.12,46.814,-33.081,11.962,
00:00:21:383,0.015,-0.242,0.56,187.622,57.495,-108.765,
00:00:21:400,0.217,-0.345,0.936,-43.274,52.124,-46.998,
00:00:21:417,0.192,0.137,1.044,-200.684,-7.447,55.908,
00:00:21:433,0.053,0.299,1.088,-9.522,-50.232,45.776,
00:00:21:450,0.004,0.017,1.079,164.123,-22.4,31.616,
00:00:21:467,-0.039,-0.195,0.911,100.708,22.277,3.356,
00:00:21:483,-0.005,-0.071,1.057,-111.512,40.832,28.686,
00:00:21:500,0.089,0.327,1.096,-42.298,-13.184,89.721,
00:00:21:517,-0.041,0.142,1.065,143.676,15.258,0.122,
00:00:21:533,0.079,-0.008,1.002,165.466,1.281,-18.921,
00:00:21:550,0.139,0.069,1.047,30.7,-12.33,-9.217,
00:00:21:567,0.124,0.087,1.048,69.946,-1.221,-35.462,
00:00:21:583,0.169,-0.004,1.007,123.169,7.202,-40.467,
00:00:21:600,0.14,-0.065,0.935,120.605,11.657,-35.401,
00:00:21:617,0.249,-0.052,0.951,70.312,22.705,-53.162,
00:00:21:633,0.218,0.001,1.011,36.499,12.878,-46.387,
00:00:21:650,0.14,-0.016,1.065,27.343,28.503,-54.261,
00:00:21:667,0.135,-0.009,0.98,44.86,41.503,-48.462,
00:00:21:683,0.085,0.031,1.02,45.654,33.508,-38.269,
00:00:21:700,0.118,0.057,0.941,138.916,6.53,-57.74,
00:00:21:717,0.083,0.116,0.977,294.128,-31.617,-69.397,
00:00:21:733,0.038,0.07,0.983,468.933,-34.058,-119.141,
00:00:21:750,0.003,-0.086,1.034,456.176,-25.818,-144.715,
00:00:21:767,0.069,-0.102,0.993,351.928,-36.377,-132.142,
00:00:21:783,0.069,-0.087,1.009,278.503,-20.02,-146.241,
00:00:21:800,0.009,-0.199,1.017,180.42,13,-165.223,
00:00:21:817,-0.011,-0.222,1.149,6.408,77.636,-144.532,
00:00:21:833,0.024,-0.152,1.004,-151.001,84.899,-127.808,
00:00:21:850,0.093,-0.027,1.036,-51.575,82.885,-112.244,
00:00:21:867,0.184,-0.026,1.007,23.193,77.209,-132.569,
00:00:21:883,0.092,-0.16,1.012,81.481,86.608,-131.592,
00:00:21:900,0.031,-0.204,1.099,32.165,113.464,-109.742,
00:00:21:917,0.044,-0.052,1.145,11.718,130.92,-83.252,
00:00:21:933,0.072,-0.027,1.036,94.482,141.784,-114.624,
00:00:21:950,0.133,-0.077,1.011,123.718,145.141,-122.803,
00:00:21:967,0.133,-0.121,0.991,117.309,133.484,-126.709,
00:00:21:983,0.048,-0.185,0.94,86.669,145.752,-138.306,
00:00:22:0,0.071,-0.095,1.068,20.263,152.832,-136.841,
00:00:22:17,0.053,-0.012,1.189,64.636,154.174,-147.522,
00:00:22:33,0.049,-0.06,1.124,133.85,156.738,-144.715,
00:00:22:50,0.064,-0.119,1.029,118.591,203.674,-115.784,
00:00:22:67,0.014,-0.466,0.622,-63.843,454.467,-155.823,
00:00:22:83,0.562,-0.381,1.033,-502.869,366.882,-86.182,
00:00:22:100,0.4,0.046,1.008,-575.196,291.381,-70.801,
00:00:22:117,0.608,-0.078,0.998,-290.406,220.886,-90.027,
00:00:22:133,0.744,-0.207,1.032,-286.011,47.424,-50.354,
00:00:22:150,0.792,-0.035,1.222,-225.708,-551.392,206.848,
00:00:22:167,0.428,-0.032,1.185,-182.984,-646.668,296.447,
00:00:22:183,0.477,-0.043,1.185,-25.269,-666.443,356.445,
00:00:22:200,0.48,-0.005,0.992,172.485,-682.801,374.633,
00:00:22:217,0.437,0.016,0.987,169.494,-711.06,398.803,
00:00:22:233,0.452,0.048,0.749,147.644,-640.686,361.511,
00:00:22:250,0.381,0.019,0.685,47.607,-574.769,341.797,
00:00:22:267,0.308,-0.002,0.623,-122.62,-512.269,328.491,
00:00:22:283,0.204,0.052,0.488,-283.081,-463.318,361.633,
00:00:22:300,0.031,0.154,0.49,-339.051,-364.075,386.291,
00:00:22:317,-0.066,0.12,0.563,-355.652,-226.136,374.878,rollRH
00:00:22:333,-0.164,0.035,0.631,-409.79,-86.548,341.674,
00:00:22:350,-0.205,0.017,0.762,-598.267,33.874,254.76,
00:00:22:367,-0.154,0.082,0.785,-835.816,141.906,158.325,
00:00:22:383,-0.224,0.157,0.72,-963.807,111.633,105.896,
00:00:22:400,-0.437,0.074,1.128,-273.072,172.546,-199.952,
00:00:22:417,-0.423,-0.11,1.222,-452.942,146.667,-298.096,
00:00:22:433,-0.499,0.02,1.123,-577.332,95.336,-345.704,
00:00:22:450,-0.514,0.172,0.991,-446.351,101.074,-380.555,
00:00:22:467,-0.504,0.096,1.012,-38.453,131.286,-415.284,
00:00:22:483,-0.486,0.027,1.189,59.692,171.997,-394.532,
00:00:22:500,-0.389,-0.074,1.252,39.917,183.227,-326.111,
00:00:22:517,-0.382,-0.002,1.19,14.953,147.155,-274.476,
00:00:22:533,-0.352,0.109,1.071,157.47,130.859,-239.136,
00:00:22:550,-0.319,0.101,0.958,401.977,109.069,-220.704,
00:00:22:567,-0.214,0.104,1.398,589.904,-140.442,-233.399,
00:00:22:583,-0.535,0.029,1.258,814.819,-69.581,-166.138,
00:00:22:600,-0.286,-0.27,0.972,515.686,8.056,-157.959,
00:00:22:617,-0.156,-0.091,0.619,342.102,36.926,-143.433,
00:00:22:633,-0.106,-0.433,0.692,459.594,89.233,-282.532,
00:00:22:650,-0.116,-0.411,0.69,111.877,255.188,-353.272,
00:00:22:667,0.227,-0.205,1.339,-309.205,181.274,-359.436,
00:00:22:683,-0.034,0.058,1.472,-477.723,200.927,-339.417,
00:00:22:700,-0.037,0.372,1.196,-319.703,138.488,-134.705,
00:00:22:717,-0.032,0.184,1.084,-122.01,106.14,-140.076,
00:00:22:733,-0.002,0.059,1.004,-96.924,81.359,-133.179,
00:00:22:750,-0.008,0.079,0.844,-132.019,67.627,-150.513,
00:00:22:767,0.005,0.013,0.975,-78.248,67.138,-157.776,
00:00:22:783,0.068,0.096,1.132,-64.82,28.93,-169.19,
00:00:22:800,0.052,0.18,1.104,-158.692,6.836,-176.819,
00:00:22:817,0.077,0.229,0.929,-267.151,-3.357,-159.79,
00:00:22:833,0.07,0.318,0.893,-133.24,-12.757,-138.611,
00:00:22:850,0.036,0.243,0.989,69.519,-11.963,-136.658,
00:00:22:867,-0.001,0.093,1.127,96.191,-6.592,-137.574,
00:00:22:883,-0.024,0.092,1.091,-12.33,-23.621,-155.762,
00:00:22:900,-0.046,0.138,1.082,-1.77,-36.072,-161.255,
00:00:22:917,0.008,0,1.024,73.425,-21.424,-161.744,
00:00:22:933,-0.044,0.071,0.975,35.888,-39.856,-157.593,
00:00:22:950,-0.001,0.097,0.96,56.274,-39.49,-156.556,
00:00:22:967,0.033,0.157,1.087,82.763,-44.068,-140.198,
00:00:22:983,0.007,0.094,1.026,127.685,-30.64,-111.329,
00:00:23:0,-0.018,-0.082,1.046,133.972,-12.635,-96.436,
00:00:23:17,-0.048,-0.171,0.996,9.338,17.211,-116.089,
00:00:23:33,-0.013,0.031,1.005,-109.803,-0.306,-142.945,
00:00:23:50,-0.01,0.3,0.911,-9.217,-9.522,-160.401,
00:00:23:67,0.017,0.251,1,235.595,-16.358,-159.363,
00:00:23:83,0.024,0.044,1.022,262.085,-15.381,-148.133,
00:00:23:100,0.065,-0.005,0.983,89.294,-6.409,-137.574,
00:00:23:117,0.067,0.088,0.975,-43.885,19.47,-141.541,
00:00:23:133,0.081,0.249,0.878,-36.56,5.493,-137.94,
00:00:23:150,0.033,0.282,0.959,196.167,17.822,-119.873,
00:00:23:167,0.036,0.041,1.019,207.946,28.442,-127.503,
00:00:23:183,-0.009,-0.034,1.021,49.255,33.447,-120.85,
00:00:23:200,0.022,0.06,0.977,-46.814,31.066,-122.193,
00:00:23:217,-0.018,0.046,0.904,33.203,26.367,-120.85,
00:00:23:233,-0.02,0.022,0.948,148.803,26.489,-126.282,
00:00:23:250,0.004,-0.009,0.993,182.922,47.485,-130.555,
00:00:23:267,0.053,0.012,1.106,57.373,43.09,-137.024,
00:00:23:283,0.052,0.094,1.004,-39.368,46.691,-121.277,
00:00:23:300,0.034,0.115,1.004,33.081,46.203,-114.747,
00:00:23:317,0.041,0.03,1.035,33.874,57.128,-114.991,
00:00:23:333,0.035,0.053,0.955,38.757,56.03,-108.765,
00:00:23:350,0.032,0.043,0.983,75.439,59.814,-122.559,
00:00:23:367,0.05,0.096,1.066,81.726,36.682,-113.77,
00:00:23:383,0.032,0.056,1.071,154.235,27.832,-104.371,
00:00:23:400,-0.002,-0.069,1.039,152.343,22.583,-108.277,
00:00:23:417,-0.004,-0.068,1.019,106.994,33.569,-117.981,
00:00:23:433,0.007,-0.008,1.024,53.955,35.461,-138.55,
00:00:23:450,0.039,0.067,1.004,46.63,27.954,-139.1,
00:00:23:467,0.002,0.014,1.047,192.505,26.489,-129.456,
00:00:23:483,0.008,-0.177,1.074,188.964,31.982,-125.184,
00:00:23:500,-0.034,-0.224,1.064,61.218,52.856,-113.038,
00:00:23:517,0.033,-0.109,1.022,-65.369,53.405,-127.564,
00:00:23:533,0.008,0.111,0.954,-46.204,35.034,-141.114,
00:00:23:550,0,0.13,0.963,121.643,31.982,-186.097,
00:00:23:567,0.033,-0.095,1.025,204.284,37.048,-184.937,
00:00:23:583,0.028,-0.185,0.995,80.139,43.945,-184.082,
00:00:23:600,0.062,-0.166,1.035,1.586,78.002,-181.153,
00:00:23:617,0.146,-0.002,1.047,-43.641,91.43,-147.767,
00:00:23:633,0.15,0.164,1.119,-53.711,92.224,-118.47,
00:00:23:650,0.14,0.133,1.103,24.231,93.933,-119.202,
00:00:23:667,0.127,0.069,1.088,33.386,83.984,-108.704,
00:00:23:683,0.125,0.033,1.069,46.875,57.067,-108.277,
00:00:23:700,0.071,0.022,1.058,104.004,35.949,-85.328,
00:00:23:717,0.051,-0.034,1.073,224.975,34.851,-87.464,
00:00:23:733,0.01,-0.219,1.012,255.615,68.603,-100.098,
00:00:23:750,-0.034,-0.205,1.078,182.312,68.664,-51.026,
00:00:23:767,-0.07,-0.183,1.133,147.4,63.781,-66.346,
00:00:23:783,-0.032,-0.253,1.152,74.462,44.189,-127.93,
00:00:23:800,-0.063,-0.118,0.755,-41.626,138.244,-69.458,
00:00:23:817,0.162,-0.054,0.901,-361.023,270.63,-46.692,
00:00:23:833,0.471,0.153,1.025,-577.759,211.975,17.883,
00:00:23:850,0.526,0.338,1.065,-596.619,52.49,20.141,
00:00:23:867,0.525,0.457,1,-502.564,-117.981,59.875,
00:00:23:883,0.442,0.401,0.814,-361.39,-245.423,42.541,
00:00:23:900,0.188,0.228,0.815,-232.3,-296.326,-0.306,
00:00:23:917,0.369,0.253,0.942,-571.167,-364.38,47.607,
00:00:23:933,0.281,0.388,0.987,-570.13,-516.541,67.871,
00:00:23:950,0.083,0.506,0.911,-400.513,-524.72,76.721,
00:00:23:967,0.012,0.366,0.764,-245.179,-466.37,44.494,
00:00:23:983,0.026,0.318,0.726,-202.637,-394.959,94.909,
00:00:24:0,0.002,0.292,0.752,-120.85,-317.505,154.724,
00:00:24:17,0.017,0.178,0.784,-86.121,-202.271,233.154,
00:00:24:33,0.014,0.047,0.841,-157.898,-116.394,286.438,
00:00:24:50,0.013,0.016,0.886,-282.715,-44.922,315.063,
00:00:24:67,-0.033,-0.012,0.869,-394.349,-3.907,300.903,
00:00:24:83,-0.079,0.031,0.85,-405.762,38.574,300.293,
00:00:24:100,-0.125,0.098,0.887,-298.34,74.707,273.071,
00:00:24:117,-0.157,0.075,0.916,-218.811,120.727,242.126,
00:00:24:133,-0.153,0.004,0.973,-133.851,163.025,217.163,
00:00:24:150,-0.15,-0.056,1.03,-125.794,178.283,186.462,
00:00:24:167,-0.17,-0.015,1.043,-170.35,159.729,172.973,
00:00:24:183,-0.178,0.052,1.058,-135.315,140.38,145.202,
00:00:24:200,-0.194,0.117,1.041,-24.109,128.234,116.943,
00:00:24:217,0.07,0.166,1.727,379.577,-144.837,-41.748,
00:00:24:233,-0.167,0.273,1.564,566.528,-119.263,81.054,
00:00:24:250,-0.136,-0.265,1.187,292.114,-26.49,-112.61,
00:00:24:267,-0.186,-0.01,0.935,97.656,-39.185,-43.335,
00:00:24:283,-0.136,0.002,0.816,218.017,38.94,-115.235,
00:00:24:300,-0.14,0.062,0.77,363.342,63.354,-166.687,
00:00:24:317,-0.184,-0.06,1.114,617.797,31.86,-232.422,
00:00:24:333,-0.187,-0.247,1.321,513.366,48.584,-229.371,
00:00:24:350,-0.137,-0.276,1.128,168.09,63.171,-227.478,
00:00:24:367,-0.11,-0.023,1.105,75.805,50.964,-177.185,
00:00:24:383,-0.09,0.032,1.024,244.445,-2.93,-192.383,
00:00:24:400,-0.099,0.086,1.027,534.057,-27.466,-154.114,
00:00:24:417,-0.121,-0.094,0.989,665.771,-11.78,-159.668,
00:00:24:433,-0.128,-0.366,1.044,479.065,33.203,-167.908,
00:00:24:450,-0.125,-0.293,0.993,195.8,49.682,-162.537,
00:00:24:467,-0.108,-0.168,1.019,142.578,54.748,-133.912,
00:00:24:483,-0.083,-0.08,0.953,239.563,43.273,-103.943,
00:00:24:500,-0.071,-0.046,0.972,414.489,54.809,-77.515,
00:00:24:517,-0.019,-0.154,0.85,462.341,90.21,-89.417,
00:00:24:533,0.108,-0.069,0.868,180.236,135.559,-72.815,
00:00:24:550,0.07,-0.04,0.896,-10.804,195.312,-84.107,
00:00:24:567,0.156,0.104,1.03,-198.731,188.903,-86.121,
00:00:24:583,0.079,0.156,1.198,-56.519,150.451,-109.498,
00:00:24:600,0.052,0.146,1.113,64.941,91.491,-137.269,
00:00:24:617,0.034,-0.009,1.021,68.969,68.847,-170.289,
00:00:24:633,0.151,-0.084,0.819,-95.459,70.556,-176.941,
00:00:24:650,0.062,-0.101,0.902,-64.026,81.054,-158.387,
00:00:24:667,0.036,-0.093,1.076,32.531,72.204,-135.926,
00:00:24:683,-0.002,-0.072,1.199,72.753,54.626,-118.47,
00:00:24:700,-0.011,-0.081,1.061,36.193,44.433,-113.526,
00:00:24:717,0.007,-0.083,1.031,27.71,49.255,-100.647,
00:00:24:733,0.011,-0.126,1.103,0.61,57.739,-77.576,
00:00:24:750,0.001,-0.109,1.029,35.827,64.819,-50.965,
00:00:24:767,0.017,-0.194,1.053,73.791,91.674,-59.266,
00:00:24:783,0.037,-0.12,1.021,-11.963,79.223,-60.425,
00:00:24:800,0.015,-0.05,1.008,64.758,71.838,-45.35,
00:00:24:817,0.012,-0.121,1.023,120.605,58.532,-60.914,
00:00:24:833,0.006,-0.159,1.072,140.625,43.151,-47.608,
00:00:24:850,0.013,-0.183,1.174,132.995,22.583,-39.063,
00:00:24:867,0.014,-0.161,1.21,148.559,-7.142,-27.1,
00:00:24:883,0.01,-0.188,1.151,164.123,-5.005,-18.555,
00:00:24:900,0.01,-0.222,1.045,98.816,12.207,-6.714,
00:00:24:917,-0.021,-0.189,0.924,81.481,65.124,9.948,
00:00:24:933,-0.01,-0.315,0.919,-8.606,140.747,-20.997,
00:00:24:950,0.055,-0.251,0.888,-203.797,166.565,-39.673,
00:00:24:967,0.044,-0.072,0.904,-244.751,158.447,-60.975,
00:00:24:983,0.055,-0.027,1.034,-101.075,158.752,-76.539,
00:00:25:0,0.132,0.001,1.134,1.648,128.967,-98.328,
00:00:25:17,0.205,0.079,1.3,87.646,45.41,-111.756,
00:00:25:33,0.182,-0.086,1.167,-41.199,-0.123,-167.542,
00:00:25:50,0.231,0.006,1.034,-201.416,-80.872,-161.011,
00:00:25:67,0.185,-0.051,0.968,-297.913,-155.396,-139.893,
00:00:25:83,0.238,-0.061,0.972,-398.987,-243.531,-203.003,
00:00:25:100,0.187,0.146,1.056,-356.141,-366.15,-150.818,
00:00:25:117,0.127,0.152,1.074,-103.882,-395.02,-159.729,
00:00:25:133,0.09,-0.001,1.077,26.794,-424.5,-171.021,
00:00:25:150,0.099,-0.058,1.046,-14.588,-442.017,-136.475,
00:00:25:167,0.056,-0.057,1.023,-94.117,-443.726,-107.789,
00:00:25:183,0.002,-0.044,1.002,-177.674,-423.401,-63.111,
00:00:25:200,-0.015,-0.02,0.944,-226.014,-375.855,-26.307,
00:00:25:217,-0.06,-0.019,0.863,-187.928,-335.022,5.493,
00:00:25:233,-0.105,-0.008,0.821,-96.253,-287.293,20.629,
00:00:25:250,-0.099,0.007,0.853,26.245,-247.681,44.738,
00:00:25:267,-0.103,0.006,0.886,89.599,-206.177,80.627,
00:00:25:283,-0.063,-0.054,0.846,78.002,-157.593,120.3,
00:00:25:300,-0.025,-0.061,0.784,6.469,-133.179,155.456,
00:00:25:317,-0.044,-0.006,0.756,-80.384,-113.526,179.565,
00:00:25:333,-0.041,0.07,0.727,-114.075,-61.951,202.026,
00:00:25:350,-0.017,0.12,0.708,-73.792,-4.395,220.398,
00:00:25:367,-0.004,0.057,0.723,-61.402,66.894,217.285,
00:00:25:383,-0.001,-0.016,0.745,-149.964,109.13,223.449,
00:00:25:400,-0.081,-0.091,0.751,-280.64,154.846,231.445,
00:00:25:417,-0.155,-0.12,0.827,-308.838,212.158,234.924,
00:00:25:433,-0.24,-0.139,0.894,-331.849,268.737,218.2,
00:00:25:450,-0.287,-0.149,0.959,-354.248,314.209,183.776,
00:00:25:467,-0.35,-0.158,0.985,-402.161,337.341,150.695,
00:00:25:483,-0.381,-0.14,1.017,-380.982,349.182,106.14,
00:00:25:500,-0.356,-0.111,1.083,-251.77,359.619,70.983,
00:00:25:517,-0.297,-0.147,1.154,-122.498,366.027,42.846,
00:00:25:533,-0.245,-0.179,1.202,-157.105,328.308,-0.123,
00:00:25:550,-0.21,-0.017,1.205,-187.134,287.048,-10.071,
00:00:25:567,-0.182,-0.024,1.2,-87.83,273.559,-67.81,
00:00:25:583,0.283,0.298,1.894,216.858,-109.131,-138.428,
00:00:25:600,-0.031,0.21,1.595,320.495,-102.051,-129.029,
00:00:25:617,-0.173,-0.358,0.828,135.986,60.546,-247.498,
00:00:25:633,0.043,-0.179,0.67,-234.07,88.684,-190.308,
00:00:25:650,-0.026,0.156,0.728,-159.974,128.479,-153.382,
00:00:25:667,0.119,0.237,1.081,140.38,152.465,-100.831,
00:00:25:683,0.092,0.069,1.345,262.207,107.116,-74.341,
00:00:25:700,0.002,-0.068,1.228,242.187,95.153,-34.607,
00:00:25:717,-0.118,-0.152,1.071,129.943,95.52,-44.312,
00:00:25:733,-0.156,-0.028,1.035,41.32,87.768,-12.879,
00:00:25:750,-0.11,0.07,0.987,150.573,74.218,-21.912,
00:00:25:767,-0.102,0.002,0.976,368.408,58.898,-28.565,
00:00:25:783,-0.133,-0.146,1.119,433.288,62.377,-37.72,
00:00:25:800,-0.079,-0.214,1.164,307.129,78.125,-54.688,
00:00:25:817,-0.052,-0.108,1.102,231.811,73.913,-53.894,
00:00:25:833,-0.076,-0.01,1.039,321.594,70.861,-32.044,
00:00:25:850,0.027,-0.012,0.984,334.9,65.612,-48.035,
00:00:25:867,0.021,-0.043,0.949,314.148,83.496,-33.448,
00:00:25:883,0.085,-0.149,0.843,259.826,123.291,-65.979,
00:00:25:900,0.145,-0.179,0.949,145.996,140.564,-45.044,
00:00:25:917,0.126,-0.126,0.975,23.498,123.962,-59.327,
00:00:25:933,0.099,-0.079,0.923,-20.813,116.088,-84.412,
00:00:25:950,0.102,-0.051,0.954,-119.385,125.61,-136.17,
00:00:25:967,0.076,-0.002,0.96,-92.469,117.981,-129.151,
00:00:25:983,0.069,-0.103,0.973,12.756,132.08,-145.081,
00:00:26:0,0.061,-0.21,0.955,-30.945,141.479,-145.02,
00:00:26:17,0.114,-0.107,1.018,-111.756,126.648,-142.945,
00:00:26:33,0.13,-0.021,1.036,-70.008,120.971,-141.541,
00:00:26:50,0.099,-0.132,0.995,16.723,141.418,-153.382,
00:00:26:67,0.075,-0.228,0.987,31.921,162.963,-145.325,
00:00:26:83,0.135,-0.184,1.016,25.085,176.086,-158.448,
00:00:26:100,0.204,-0.041,1.08,25.451,149.17,-137.818,
00:00:26:117,0.176,-0.043,1.074,142.456,131.591,-112.061,
00:00:26:133,0.148,-0.186,1.079,242.187,133.972,-88.074,
00:00:26:150,0.152,-0.214,0.989,209.716,146.484,-72.571,
00:00:26:167,0.163,-0.168,1.073,113.708,138.183,-64.454,
00:00:26:183,0.219,-0.09,0.992,67.871,127.197,-47.12,
00:00:26:200,0.236,-0.045,0.96,54.443,98.449,-44.129,
00:00:26:217,0.183,-0.046,0.954,119.506,90.026,-49.622,
00:00:26:233,0.204,-0.113,0.963,137.756,95.886,-73.487,
00:00:26:250,0.163,-0.169,1.03,120.605,105.224,-70.618,
00:00:26:267,0.134,-0.226,1.005,106.933,122.802,-61.707,
00:00:26:283,0.118,-0.311,1.09,78.735,148.925,-47.913,
00:00:26:300,0.177,-0.208,1.116,-3.113,161.499,-15.931,
00:00:26:317,0.183,-0.07,1.14,57.739,176.635,-16.175,rollRH
00:00:26:333,0.214,-0.058,1.122,152.038,204.101,-38.453,
00:00:26:350,0.219,-0.15,1.11,232.422,224.792,-23.255,
00:00:26:367,0.236,-0.22,1.08,312.133,259.948,-31.373,
00:00:26:383,0.232,-0.342,1.023,153.381,289.367,-9.217,
00:00:26:400,0.333,-0.33,0.931,-92.774,286.01,24.841,
00:00:26:417,0.355,-0.262,0.785,-201.111,231.75,32.775,
00:00:26:433,0.396,-0.084,0.678,-252.259,150.634,40.161,
00:00:26:450,0.419,-0.053,0.689,-188.843,63.049,23.681,
00:00:26:467,0.457,-0.175,0.787,-154.114,-75.44,-3.785,
00:00:26:483,0.492,-0.275,0.919,-222.84,-228.516,-19.593,
00:00:26:500,0.463,-0.269,0.95,-316.956,-331.849,-6.348,
00:00:26:517,0.243,0.07,0.824,-174.866,-323.914,25.878,
00:00:26:533,0.258,-0.098,0.846,-202.82,-294.129,55.908,
00:00:26:550,0.098,-0.089,0.88,-154.664,-241.944,41.87,
00:00:26:567,0.093,-0.151,0.864,-154.969,-165.284,35.888,
00:00:26:583,-0.005,-0.056,0.925,-167.237,36.499,52.002,
00:00:26:600,0.029,0.059,0.958,-202.454,70.129,89.416,
00:00:26:617,0.037,0.037,0.943,-159.668,90.881,77.148,
00:00:26:633,0.079,-0.012,0.989,-92.408,68.786,107.788,
00:00:26:650,0.103,-0.033,1.119,-29.969,-68.848,183.166,
00:00:26:667,0.098,-0.025,1.127,-56.946,-98.206,222.9,
00:00:26:683,0.052,0.003,1.105,-62.195,-111.084,255.371,
00:00:26:700,0.033,0.01,1.101,-42.542,-125.184,284.362,
00:00:26:717,0.013,-0.022,1.076,-32.532,-129.944,310.363,
00:00:26:733,0.001,-0.055,1.073,-27.649,-125.977,349.914,
00:00:26:750,0.03,-0.025,1.03,-28.931,-103.638,367.065,
00:00:26:767,0.015,0.02,0.974,-12.146,-68.97,369.873,
00:00:26:783,0.036,0.065,0.922,-0.55,-37.293,359.13,
00:00:26:800,0.058,0.031,0.899,34.118,-19.471,353.21,
00:00:26:817,0.104,0.021,0.928,80.261,-9.034,359.008,
00:00:26:833,0.15,-0.065,0.942,196.167,5.92,327.087,
00:00:26:850,0.157,-0.115,0.873,242.736,7.446,316.833,
00:00:26:867,0.157,-0.212,0.864,143.005,-9.278,274.902,
00:00:26:883,0.187,-0.179,0.894,-27.405,-31.617,282.776,
00:00:26:900,0.197,-0.096,0.953,-63.233,-22.706,258.056,
00:00:26:917,0.25,-0.108,0.962,-68.177,-7.813,227.172,
00:00:26:933,0.308,-0.153,0.93,-70.862,-0.977,204.528,
00:00:26:950,0.35,-0.199,0.948,-96.558,-9.705,192.077,
00:00:26:967,0.366,-0.216,0.978,-111.206,-23.194,184.448,
00:00:26:983,0.321,-0.209,0.98,-203.186,-34.18,184.021,
00:00:27:0,0.315,-0.16,0.978,-355.957,-47.913,209.594,
00:00:27:17,0.227,-0.152,0.89,-403.504,-43.946,188.903,
00:00:27:33,0.356,-0.158,1.15,-391.175,-137.207,107.544,
00:00:27:50,0.19,0.043,1.167,-315.735,-59.205,120.178,
00:00:27:67,0.21,0.118,1.198,-262.024,-103.821,101.867,
00:00:27:83,0.302,0.071,0.928,84.899,-10.193,42.297,
00:00:27:100,0.079,-0.236,0.79,-136.78,19.104,7.568,
00:00:27:117,0.24,0.302,1.056,-125.123,-43.457,106.75,
00:00:27:133,0.233,0.17,1.009,8.911,-5.249,5.371,
00:00:27:150,0.255,0.122,0.907,118.957,-15.87,32.348,
00:00:27:167,0.178,-0.029,0.923,253.112,-12.94,23.864,
00:00:27:183,0.238,-0.099,1.121,189.148,-45.96,76.904,
00:00:27:200,0.207,-0.043,1.082,119.934,-79.59,90.393,
00:00:27:217,0.06,0.177,0.961,-66.102,-143.311,74.34,
00:00:27:233,0,0.134,0.995,-63.233,-127.747,40.893,
00:00:27:250,-0.042,0.007,1.121,73.547,-74.646,17.089,
00:00:27:267,0.069,-0.019,1.234,50.72,-66.651,11.169,
00:00:27:283,0.041,-0.002,1.144,45.349,-33.631,39.245,
00:00:27:300,0.116,-0.063,1.097,107.483,-0.123,43.396,
00:00:27:317,0.195,0.007,1.052,38.147,-5.677,48.95,
00:00:27:333,0.252,0.055,0.929,24.597,-2.747,39.856,
00:00:27:350,0.214,-0.088,0.774,41.137,23.254,17.15,
00:00:27:367,0.17,-0.054,0.924,-18.25,1.892,33.508,
00:00:27:383,0.143,0.048,1.157,11.535,-8.301,27.832,
00:00:27:400,0.198,-0.003,1.08,78.369,-7.081,0.061,
00:00:27:417,0.137,-0.02,0.803,28.137,-12.391,2.685,
00:00:27:433,-0.015,-0.07,0.888,16.113,19.47,11.169,
00:00:27:450,-0.004,0.071,1.12,-60.303,-0.245,-0.611,
00:00:27:467,0.042,0.086,1.143,13.977,-9.583,-39.551,
00:00:27:483,0.13,0.033,1.016,7.019,-37.476,-54.566,
00:00:27:500,0.094,-0.004,0.859,-19.532,-44.068,-47.059,
00:00:27:517,0.016,-0.064,0.966,1.098,-31.678,-33.448,
00:00:27:533,0.096,-0.012,1.108,-8.789,-25.574,-37.415,
00:00:27:550,0.104,0.039,1.11,-7.935,-27.466,-25.391,
00:00:27:567,0.115,-0.042,0.968,40.588,-19.104,-15.137,
00:00:27:583,0.059,-0.025,0.944,-10.315,-19.532,0.427,
00:00:27:600,0.111,0.064,1.009,-42.847,-17.64,-18.738,
00:00:27:617,0.191,-0.043,0.982,-44.312,-38.575,-51.941,
00:00:27:633,0.193,-0.099,0.953,-52.369,-58.716,-40.406,
00:00:27:650,0.091,0.006,0.979,-77.149,-54.627,-26.368,
00:00:27:667,-0.021,0.097,1.103,-50.415,-37.11,-23.926,
00:00:27:683,0.057,-0.008,1.191,10.559,-34.302,-61.829,
00:00:27:700,0.125,-0.062,0.999,36.315,-42.908,-39.185,
00:00:27:717,0.039,-0.079,0.875,-8.24,-2.259,-6.287,
00:00:27:733,0.013,-0.059,0.993,-46.998,31.982,9.643,
00:00:27:750,0.041,0.048,1.088,-44.617,24.658,-7.508,
00:00:27:767,0.084,0.057,1.017,-22.522,9.399,-39.185,
00:00:27:783,0.148,-0.027,0.919,-21.668,2.624,-49.378,
00:00:27:800,0.08,-0.029,0.932,-64.393,2.014,-41.016,
00:00:27:817,0.085,0.006,1.04,-36.622,-0.733,-35.035,
00:00:27:833,0.033,0.007,1.083,10.437,-6.409,-49.012,
00:00:27:850,0.039,0.007,0.962,-21.912,-7.691,-60.364,
00:00:27:867,0.001,0.007,0.993,-41.199,10.925,-51.758,
00:00:27:883,0.024,-0.015,1.011,-59.571,22.338,-63.111,
00:00:27:900,0.049,0.026,1.1,-55.359,13,-59.205,
00:00:27:917,0.071,0.012,1.074,-23.377,11.352,-57.557,
00:00:27:933,0.108,0.019,0.946,-30.457,15.197,-44.495,
00:00:27:950,0.08,-0.053,0.94,-16.236,39.856,-48.34,
00:00:27:967,0.078,0,1.059,-21.546,30.212,-42.359,
00:00:27:983,0.115,0.07,1.11,-6.653,1.464,-55.97,
00:00:28:0,0.143,0.034,0.975,4.699,26.062,-77.82,
00:00:28:17,0.082,-0.03,0.894,-12.024,47.058,-76.416,
00:00:28:33,0.064,-0.048,0.979,-42.908,52.978,-68.787,
00:00:28:50,0.069,0.027,1.041,-60.852,41.015,-71.045,
00:00:28:67,0.118,0.065,1.026,-64.576,25.146,-101.563,
00:00:28:83,0.092,0.036,0.948,-66.468,25.451,-104.92,
00:00:28:100,0.053,-0.077,0.984,-42.298,45.41,-100.892,
00:00:28:117,0.087,0.021,1.033,-84.656,38.757,-87.525,
00:00:28:133,0.068,0.044,1.067,-64.759,34.606,-95.215,
00:00:28:150,0.04,0.007,0.981,-46.448,35.705,-92.835,
00:00:28:167,0.042,-0.003,1.007,-68.421,40.71,-90.76,
00:00:28:183,0.025,-0.005,1.007,-64.209,48.4,-88.074,
00:00:28:200,0.069,0.039,1.066,-83.069,40.893,-81.604,
00:00:28:217,0.135,0.043,1.025,-70.679,37.719,-73.731,
00:00:28:233,0.092,-0.01,1.019,-29.541,56.518,-58.594,
00:00:28:250,0.12,-0.032,1.001,-30.152,67.321,-64.148,
00:00:28:267,0.092,0.089,1.057,-67.933,60.424,-62.317,
00:00:28:283,0.157,0.067,1.002,-49.317,68.176,-86.976,
00:00:28:300,0.166,0.022,1.009,-69.642,89.721,-67.566,
00:00:28:317,0.172,-0.016,1.045,-48.951,117.92,-48.584,
00:00:28:333,0.143,-0.025,1.11,-16.663,135.864,-17.762,
00:00:28:350,0.131,-0.026,1.095,7.263,146.789,15.502,
00:00:28:367,0.12,-0.011,1.077,27.71,150.817,14.892,
00:00:28:383,0.093,0.072,1.01,-3.235,150.695,21.667,
00:00:28:400,0.136,0.078,1.017,-37.415,167.541,17.089,
00:00:28:417,0.197,0.041,1.034,-87.769,185.852,30.029,
00:00:28:433,0.232,0.024,0.989,-136.78,190.551,35.339,
00:00:28:450,0.246,0.014,0.982,-179.017,198.73,38.818,
00:00:28:467,0.222,0.081,0.998,-310.364,178.711,55.175,
00:00:28:483,0.234,0.062,0.966,-317.322,162.414,66.101,
00:00:28:500,0.247,0.084,0.945,-278.382,100.891,65.551,
00:00:28:517,0.157,0.198,1.062,-148.926,66.223,60.058,
00:00:28:533,0.178,0.144,0.953,-72.876,49.682,19.409,
00:00:28:550,0.173,0.108,1.017,-154.908,-68.97,16.113,
00:00:28:567,-0.156,-0.04,1.322,91.796,-457.825,-27.283,
00:00:28:583,-0.358,0.109,1.296,237.426,-545.472,19.531,
00:00:28:600,-0.412,-0.091,1.156,285.278,-629.212,-49.5,
00:00:28:617,-0.441,-0.063,1.047,293.151,-670.777,-31.311,
00:00:28:633,-0.444,-0.076,0.938,285.278,-671.204,-47.73,
00:00:28:650,-0.448,-0.096,0.852,281.555,-610.474,-54.078,
00:00:28:667,-0.412,-0.114,0.789,272.155,-531.067,-63.843,
00:00:28:683,-0.369,-0.097,0.745,248.718,-406.25,-73.365,
00:00:28:700,-0.331,-0.093,0.71,237.915,-282.532,-101.441,
00:00:28:717,-0.178,-0.113,0.618,-81.91,103.271,-183.35,
00:00:28:733,-0.109,-0.058,0.692,-198.426,198.608,-209.778,
00:00:28:750,-0.025,0.033,0.806,-246.827,282.226,-237.793,
00:00:28:767,0.068,0.084,0.837,-163.392,350.036,-310.12,
00:00:28:783,0.382,0.222,0.984,-270.02,403.869,-306.946,
00:00:28:800,0.522,0.221,1.061,-209.29,391.296,-271.363,
00:00:28:817,0.59,0.156,1.088,-48.645,337.341,-244.08,
00:00:28:833,0.598,0.166,1.173,56.091,166.87,-118.348,
00:00:28:850,0.561,0.123,1.186,78.857,134.277,-58.228,
00:00:28:867,0.507,0.088,1.072,110.29,143.859,-5.921,
00:00:28:883,0.432,-0.031,0.904,104.431,157.837,6.469,
00:00:28:900,0.373,0.008,0.804,34.362,156.005,31.372,
00:00:28:917,0.298,0.102,0.824,140.747,189.148,43.029,
00:00:28:933,0.315,-0.1,1.097,231.506,150.817,2.502,
00:00:28:950,-0.121,-0.383,0.681,343.383,-34.485,-133.179,
00:00:28:967,-0.114,-0.161,0.413,45.654,59.875,-8.118,
00:00:28:983,0.021,-0.105,0.578,-81.421,123.047,-97.413,
00:00:29:0,0.23,0.083,1.02,-45.716,32.836,-87.647,
00:00:29:17,0.221,0.205,1.278,-5.921,-20.691,-99.122,
00:00:29:33,0.183,-0.034,1.095,22.094,-63.965,-143.128,
00:00:29:50,0.155,-0.167,0.978,-40.772,-92.957,-102.601,
00:00:29:67,0.209,-0.058,0.912,-63.294,-101.502,-79.651,
00:00:29:83,0.218,-0.015,1.106,-20.325,-79.956,-62.134,
00:00:29:100,0.207,0.048,1.242,-6.165,-77.759,-21.18,
00:00:29:117,0.119,-0.042,1.097,43.457,-41.138,-28.992,
00:00:29:133,0.029,-0.132,0.942,20.813,1.281,8.483,
00:00:29:150,0.011,-0.088,0.984,-18.311,24.597,21.911,
00:00:29:167,0.072,0.015,1.069,25.634,29.602,26.123,
00:00:29:183,0.092,0.035,1.028,70.068,22.827,0.915,
00:00:29:200,0.065,-0.04,0.896,21.911,12.817,-35.279,
00:00:29:217,-0.006,-0.104,0.917,-30.213,-1.038,-58.411,
00:00:29:233,0.043,-0.056,0.999,-95.459,-33.814,-65.918,
00:00:29:250,0.071,0,1.051,-82.886,-81.727,-89.6,
00:00:29:267,0.027,-0.05,0.944,-75.379,-101.685,-112.488,
00:00:29:283,0.067,-0.112,1.067,-112.122,-100.953,-102.356,
00:00:29:300,0.057,-0.076,1.105,-102.601,-95.643,-110.413,
00:00:29:317,0.088,0.036,1.09,-158.02,-95.093,-90.638,
00:00:29:333,0.095,-0.129,1.073,-50.415,-52.247,-74.28,
00:00:29:350,0.064,-0.119,1.079,-58.777,-31.189,-55.787,
00:00:29:367,0.055,0.011,1.074,-62.867,-8.118,-30.03,
00:00:29:383,0.11,-0.075,1.073,-7.813,21.789,-17.884,
00:00:29:400,0.148,-0.055,0.907,-47.73,31.616,2.014,
00:00:29:417,0.083,-0.053,0.942,-26.429,63.293,-6.043,
00:00:29:433,0.082,0.014,1.022,-53.711,57.19,-15.442,
00:00:29:450,0.075,0.085,1.012,-84.229,43.09,-33.081,
00:00:29:467,0.118,0.003,0.995,-74.952,52.856,-39.49,
00:00:29:483,0.129,-0.067,0.906,-93.018,69.702,-40.162,
00:00:29:500,0.134,-0.011,0.874,-101.136,76.171,-23.804,
00:00:29:517,0.095,0.015,0.88,-75.074,65.002,-55.726,
00:00:29:533,0.041,0.072,1.041,-109.07,36.987,-71.412,
00:00:29:550,0.047,0.032,1.156,-71.412,9.338,-91.858,
00:00:29:567,-0.041,-0.011,1.027,-87.342,9.094,-102.601,
00:00:29:583,-0.022,-0.076,0.956,-69.397,23.559,-101.38,
00:00:29:600,0.046,0.008,1.055,73.608,20.813,-85.511,
00:00:29:617,0.047,-0.02,1.088,5.737,-15.137,-108.338,
00:00:29:633,0.035,0.009,0.905,-36.316,31.433,-46.936,
00:00:29:650,0.026,-0.031,0.932,43.151,44.311,-44.19,
00:00:29:667,0.018,0.169,0.867,143.005,80.078,-34.546,
00:00:29:683,0.12,0.147,1.114,-12.391,47.18,-14.344,
00:00:29:700,0.169,0.086,1.071,-161.194,34.668,-46.936,
00:00:29:717,0.118,-0.07,1.14,-136.231,9.887,-56.458,
00:00:29:733,0.094,0.028,0.968,-167.664,23.498,-45.105,
00:00:29:750,0.055,0.032,1.122,-124.146,28.137,-23.255,
00:00:29:767,0.075,0.031,1.077,-2.442,37.78,-8.118,
00:00:29:783,0.042,-0.045,0.996,6.469,52.246,3.601,
00:00:29:800,0.091,0.039,1.049,-28.626,57.678,5.004,
00:00:29:817,0.12,0.077,1.038,-21.668,60.485,-8.301,
00:00:29:833,0.17,0.04,0.986,-20.02,58.044,-6.348,
00:00:29:850,0.149,0.009,0.966,14.465,67.688,-8.973,
00:00:29:867,0.14,-0.04,0.974,19.043,85.632,-3.54,
00:00:29:883,0.141,0.059,0.937,-97.535,106.14,8.789,
00:00:29:900,0.076,0.03,0.977,-126.831,92.773,19.714,
00:00:29:917,0.08,-0.021,1.026,-199.707,82.092,9.277,
00:00:29:933,0.072,0.057,1.135,-288.636,44.433,30.761,
00:00:29:950,0.039,0.115,1.125,-279.236,20.263,10.681,
00:00:29:967,0.065,-0.001,0.974,-366.761,-55.115,-16.541,
00:00:29:983,0.082,0.111,1.02,-380.188,-79.407,-20.386,
00:00:30:0,0.144,0.159,1.221,-386.414,-177.613,-40.528,
00:00:30:17,-0.059,0.174,0.958,-82.764,-138.306,-42.359,
00:00:30:33,0.246,0.027,1.005,-391.846,-270.02,-80.689,
00:00:30:50,-0.101,0.512,1.249,-12.574,-329.834,48.645,
00:00:30:67,-0.057,0.041,1.179,61.523,-404.175,-71.778,
00:00:30:83,-0.181,0.115,1.174,43.029,-472.29,-13.916,
00:00:30:100,-0.233,0.085,1.079,59.448,-499.634,-41.443,
00:00:30:117,-0.277,0.003,1.017,120.788,-506.348,-45.35,
00:00:30:133,-0.313,0.003,0.98,184.082,-509.766,-52.796,
00:00:30:150,-0.349,-0.013,0.91,258.667,-497.803,-88.501,
00:00:30:167,-0.353,-0.073,0.838,280.334,-467.53,-142.579,
00:00:30:183,-0.331,-0.067,0.81,305.359,-410.279,-193.787,
00:00:30:200,-0.296,-0.072,0.791,330.322,-311.89,-248.108,
00:00:30:217,-0.26,-0.135,0.728,261.901,-204.346,-302.735,
00:00:30:233,-0.265,-0.128,0.684,180.114,-65.735,-305.298,
00:00:30:250,-0.144,-0.084,0.745,47.607,50.476,-337.647,
00:00:30:267,-0.13,-0.071,0.666,-65.613,128.601,-341.553,
00:00:30:283,-0.099,0.085,0.671,-82.337,167.419,-351.807,
00:00:30:300,-0.04,0.189,0.851,17.395,223.816,-371.766,
00:00:30:317,0.074,0.195,0.991,158.874,310.852,-393.006,rollRH
00:00:30:333,0.236,0.155,1.127,195.251,333.984,-373.719,
00:00:30:350,0.295,0.024,1.106,-20.508,329.773,-323.67,
00:00:30:367,0.434,0.219,1.028,-239.563,238.342,-205.628,
00:00:30:383,0.336,0.408,1.141,-107.3,153.32,-136.292,
00:00:30:400,0.341,0.277,1.171,181.701,129.15,-142.884,
00:00:30:417,0.306,0.004,1.139,244.506,96.008,-135.682,
00:00:30:433,0.225,-0.06,1.109,106.079,58.349,-112.977,
00:00:30:450,0.126,-0.016,1.052,-10.987,51.696,-102.356,
00:00:30:467,0.044,-0.022,0.969,-15.015,76.721,-100.464,
00:00:30:483,0.008,-0.029,0.906,43.151,108.154,-114.563,
00:00:30:500,0.12,0.157,1.113,96.923,11.962,-52.979,
00:00:30:517,-0.123,0.102,1.181,331.237,9.582,-64.148,
00:00:30:533,-0.027,0.008,1.101,321.106,31.921,-68.726,
00:00:30:550,-0.1,-0.045,0.94,225.586,51.147,-71.167,
00:00:30:567,-0.015,-0.021,0.814,134.155,73.181,-72.754,
00:00:30:583,0.041,-0.264,0.873,182.19,53.894,-169.007,
00:00:30:600,0.166,0.278,1.156,172.058,-20.997,-87.281,
00:00:30:617,0.075,0.082,1.102,75.744,48.4,-188.172,
00:00:30:633,0.227,0.052,0.957,-158.814,-8.118,-160.462,
00:00:30:650,0.189,0.084,0.976,-96.253,-7.203,-133.973,
00:00:30:667,0.144,-0.061,1.141,-47.974,-36.133,-112.427,
00:00:30:683,-0.029,-0.153,1.103,-99.366,-49.866,-82.703,
00:00:30:700,-0.094,-0.079,0.946,-114.197,-39.002,-58.472,
00:00:30:717,-0.081,-0.15,1.087,-37.903,-9.217,-46.631,
00:00:30:733,-0.13,-0.177,1.053,-21.119,6.713,-48.645,
00:00:30:750,-0.117,-0.1,1.036,-9.827,7.873,-20.813,
00:00:30:767,-0.101,-0.141,1.1,37.597,23.254,-15.381,
00:00:30:783,-0.081,-0.144,1.021,10.192,36.804,-11.475,
00:00:30:800,-0.076,-0.05,0.986,16.54,47.79,-13.306,
00:00:30:817,-0.023,-0.055,0.979,57.128,48.706,-21.18,
00:00:30:833,0.01,-0.039,1.026,39.489,36.254,-27.1,
00:00:30:850,0.017,-0.024,0.963,10.376,21.85,-27.527,
00:00:30:867,-0.02,-0.066,0.933,30.395,22.644,-44.068,
00:00:30:883,-0.023,-0.065,1.075,-7.447,11.352,-63.355,
00:00:30:900,0.031,-0.01,1.071,-57.923,-4.456,-68.299,
00:00:30:917,0.042,0,1.018,-44.251,-10.315,-59.876,
00:00:30:933,0.022,-0.068,1.049,-2.503,-2.869,-39.917,
00:00:30:950,0.011,-0.081,0.972,-50.965,13.916,-31.8,
00:00:30:967,0.012,-0.049,1.021,-72.754,27.404,-27.039,
00:00:30:983,0.007,-0.065,1.093,-76.05,37.17,-19.837,
00:00:31:0,-0.007,-0.016,1.119,-80.323,33.935,8.789,
00:00:31:17,-0.009,-0.102,1.005,-75.074,44.738,17.028,
00:00:31:33,-0.005,-0.051,0.964,-117.676,52.856,15.686,
00:00:31:50,0.033,0.024,0.961,-129.7,56.091,9.277,
00:00:31:67,0.061,0.051,1.036,-81.177,41.748,12.207,
00:00:31:83,0.059,0.008,1.04,-75.074,35.827,14.282,
00:00:31:100,0.031,0.003,0.999,-122.559,37.353,10.437,
00:00:31:117,0.059,-0.001,0.931,-125.977,46.63,8.85,
00:00:31:133,0.047,0.032,0.972,-108.216,41.687,3.295,
00:00:31:150,0.026,0.011,1.047,-84.839,29.541,4.821,
00:00:31:167,-0.021,-0.003,1.077,-88.257,7.141,12.146,
00:00:31:183,-0.06,-0.027,0.982,-101.807,-5.494,1.403,
00:00:31:200,-0.036,-0.017,0.969,-103.455,-8.606,-20.203,
00:00:31:217,-0.004,-0.044,1.047,-88.013,-32.288,-15.87,
00:00:31:233,0.002,-0.019,1.047,-81.665,-32.776,9.338,
00:00:31:250,0.027,-0.008,0.985,-91.858,-20.203,10.498,
00:00:31:267,0.019,0.049,0.984,-70.496,-15.442,17.761,
00:00:31:283,0.062,0.002,1.081,-51.575,-6.409,56.396,
00:00:31:300,0.011,0.047,1.031,-80.994,11.535,67.81,
00:00:31:317,-0.036,-0.001,0.987,-79.651,28.381,61.828,
00:00:31:333,-0.059,0.013,1.028,-94.971,25.878,62.255,
00:00:31:350,-0.058,-0.005,1.04,-81.421,8.667,51.696,
00:00:31:367,-0.046,-0.038,1.034,-67.261,-3.235,56.762,
00:00:31:383,-0.025,0.01,1.021,-75.013,-8.301,65.551,
00:00:31:400,0.005,0.042,1.013,-85.083,-16.602,64.331,
00:00:31:417,0.017,0.04,0.978,-66.163,-22.522,66.528,
00:00:31:433,0.021,0.077,0.921,-32.532,-28.504,74.462,
00:00:31:450,-0.026,0.003,1.024,28.076,-27.283,70.312,
00:00:31:467,-0.058,0.019,1.105,-19.165,-24.72,52.917,
00:00:31:483,-0.046,0.03,1.06,-61.829,-24.964,50.72,
00:00:31:500,-0.027,0.051,0.97,-57.312,-36.866,49.682,
00:00:31:517,-0.019,-0.05,0.909,1.709,-22.828,54.809,
00:00:31:533,-0.105,-0.021,1.067,36.01,-25.452,45.349,
00:00:31:550,-0.046,0.027,1.095,-41.871,-33.265,38.818,
00:00:31:567,-0.023,0.012,0.999,-50.232,-21.668,35.156,
00:00:31:583,-0.004,0.093,0.982,-42.054,-34.119,43.579,
00:00:31:600,-0.012,0.035,1.022,5.249,-15.748,49.926,
00:00:31:617,-0.029,0.041,1.016,-12.024,-27.344,44.677,
00:00:31:633,-0.021,0.062,1.03,-42.786,-16.175,34.973,
00:00:31:650,-0.035,0.056,1.046,-53.284,-19.837,27.221,
00:00:31:667,-0.054,0.05,1.033,-50.721,-25.33,22.949,
00:00:31:683,-0.06,0.024,1.01,-58.411,-34.668,21.545,
00:00:31:700,-0.067,-0.006,1.018,-16.297,-35.462,39.672,
00:00:31:717,-0.058,-0.045,1.045,8.606,-37.476,65.551,
00:00:31:733,-0.045,0.023,1.081,52.551,-42.603,97.168,
00:00:31:750,-0.087,-0.038,1.056,60.546,-28.626,115.356,
00:00:31:767,-0.092,-0.065,1.058,-21.729,-6.775,138.794,
00:00:31:783,-0.076,-0.039,1.101,-88.562,14.343,160.339,
00:00:31:800,-0.064,0,1.12,-155.823,25.085,173.706,
00:00:31:817,-0.034,0.046,1.054,-288.819,24.536,155.822,
00:00:31:833,0.025,0.12,0.981,-317.078,6.713,172.912,
00:00:31:850,0.018,0.174,0.929,-270.935,-2.198,141.235,
00:00:31:867,0.079,0.175,0.91,-275.635,-22.767,132.446,
00:00:31:883,0.045,0.166,0.932,-245.423,-25.147,130.859,
00:00:31:900,0.073,0.377,0.986,-238.77,-72.388,105.163,
00:00:31:917,0.023,0.279,1.117,22.461,-113.221,99.182,
00:00:31:933,-0.205,0.103,1.003,138,-138.916,7.08,
00:00:31:950,-0.18,-0.132,1.019,267.151,-182.74,-48.279,
00:00:31:967,-0.284,-0.172,1.019,253.479,-227.906,-77.21,
00:00:31:983,-0.364,-0.155,0.971,282.47,-256.531,-118.348,
00:00:32:0,-0.414,-0.209,0.928,286.193,-267.456,-175.843,
00:00:32:17,-0.431,-0.254,0.92,300.293,-245.24,-212.037,
00:00:32:33,-0.43,-0.283,0.935,296.692,-176.209,-261.658,
00:00:32:50,-0.384,-0.334,0.919,208.374,-103.455,-300.904,
00:00:32:67,-0.339,-0.232,0.88,141.967,-23.743,-308.045,
00:00:32:83,-0.298,0.003,0.911,36.499,41.442,-288.208,
00:00:32:100,-0.197,0.153,1.046,74.768,98.205,-236.084,
00:00:32:117,-0.066,0.236,1.156,187.805,158.935,-167.664,
00:00:32:133,0.055,0.22,0.909,91.919,229.37,-8.423,
00:00:32:150,0.104,0.257,1.003,129.211,265.197,32.775,
00:00:32:167,0.107,0.264,1.043,222.961,295.105,54.565,
00:00:32:183,0.096,0.224,0.769,284.118,329.406,24.841,
00:00:32:200,0.142,0.115,0.661,244.14,354.37,35.461,
00:00:32:217,0.169,0.004,0.791,198.303,362.976,81.787,
00:00:32:233,0.405,0.259,1.513,-34.119,149.658,159.423,
00:00:32:250,-0.079,0.055,1.754,254.028,89.477,142.761,
00:00:32:267,-0.107,-0.214,1.149,72.021,82.397,73.669,
00:00:32:283,-0.186,-0.128,0.787,-74.158,121.276,148.864,
00:00:32:300,-0.184,-0.179,0.828,-20.997,165.283,141.784,
00:00:32:317,-0.126,-0.129,1.023,66.223,177.612,167.724,
00:00:32:333,-0.14,-0.187,1.244,78.552,192.321,186.767,
00:00:32:350,-0.174,-0.145,1.152,63.11,198.852,189.819,
00:00:32:367,-0.158,-0.05,0.969,47.912,200.927,188.232,
00:00:32:383,-0.071,-0.063,1.017,106.872,191.162,196.106,
00:00:32:400,-0.09,-0.048,1.045,177.063,157.592,195.617,
00:00:32:417,-0.134,-0.047,1.113,242.553,130.066,186.584,
00:00:32:433,-0.134,-0.11,1.107,267.578,110.29,148.62,
00:00:32:450,-0.128,-0.159,1.082,246.948,91.43,123.535,
00:00:32:467,-0.196,-0.107,1.062,245.788,63.659,146.484,
00:00:32:483,-0.098,-0.104,0.983,268.127,29.419,112.976,
00:00:32:500,-0.108,-0.183,1.03,311.889,17.944,119.751,
00:00:32:517,0.083,-0.125,0.843,148.01,143.31,184.448,
00:00:32:533,0.192,-0.143,0.869,168.029,145.263,162.292,
00:00:32:550,0.219,-0.126,1.119,143.921,110.656,159.484,
00:00:32:567,0.262,-0.068,1.221,85.693,65.49,140.197,
00:00:32:583,0.221,-0.118,0.939,11.047,60.607,96.74,
00:00:32:600,0.227,-0.074,0.796,-18.25,79.773,86.425,
00:00:32:617,0.235,-0.091,0.992,-20.997,74.89,52.063,
00:00:32:633,0.268,-0.111,1.069,21.545,42.602,45.105,
00:00:32:650,0.213,-0.212,1.056,34.912,46.997,28.259,
00:00:32:667,0.259,-0.155,1.006,-21.851,38.452,33.996,
00:00:32:683,0.313,-0.097,0.931,10.742,33.874,-22.767,
00:00:32:700,0.286,-0.157,1.024,27.648,27.648,-19.227,
00:00:32:717,0.182,-0.258,0.991,16.479,48.339,-8.973,
00:00:32:733,0.17,-0.189,0.984,-55.054,67.321,3.295,
00:00:32:750,0.213,-0.045,0.971,-10.987,57.251,-4.944,
00:00:32:767,0.162,-0.173,0.912,78.491,52.002,-55.787,
00:00:32:783,0.15,-0.201,0.945,29.846,46.569,-47.059,
00:00:32:800,0.077,-0.197,0.993,-7.386,43.09,-57.923,
00:00:32:817,0.122,-0.148,1.049,-23.377,28.625,-77.149,
00:00:32:833,0.111,-0.183,0.929,-14.161,30.334,-116.822,
00:00:32:850,0.17,-0.186,0.921,-71.351,26.184,-122.62,
00:00:32:867,0.168,-0.156,0.989,-75.257,22.583,-122.864,
00:00:32:883,0.167,-0.193,1.034,-24.231,27.526,-122.01,
00:00:32:900,0.212,-0.18,0.971,-51.087,30.151,-136.17,
00:00:32:917,0.176,-0.188,1.051,-77.576,55.297,-108.277,
00:00:32:933,0.218,-0.135,1.134,-41.932,39.672,-115.113,
00:00:32:950,0.143,-0.172,1.017,3.295,39.794,-129.822,
00:00:32:967,0.17,-0.249,0.986,-28.26,51.208,-137.574,
00:00:32:983,0.208,-0.172,0.977,-109.681,45.41,-130.494,
00:00:33:0,0.196,-0.078,0.958,-187.195,23.376,-149.476,
00:00:33:17,0.151,-0.143,0.958,-137.391,15.258,-183.96,
00:00:33:33,0.079,-0.172,1.018,-145.264,0.427,-201.844,
00:00:33:50,0.132,-0.168,1.038,-86.609,-21.546,-191.102,
00:00:33:67,0.136,-0.199,0.995,-68.36,-13.123,-187.134,
00:00:33:83,0.259,-0.167,1.003,-157.41,4.089,-178.833,
00:00:33:100,0.286,-0.158,1.092,-166.199,22.399,-146.546,
00:00:33:117,0.297,-0.253,1.097,-225.22,58.715,-107.911,
00:00:33:133,0.342,-0.162,1.063,-310.547,75.073,-68.848,
00:00:33:150,0.243,-0.14,1.026,-297.791,89.782,-26.368,
00:00:33:167,0.185,-0.111,1.002,-239.685,109.924,-27.161,
00:00:33:183,0.2,-0.126,0.936,-208.374,134.582,-34.729,
00:00:33:200,0.224,-0.087,0.891,-220.765,145.263,-41.504,
00:00:33:217,0.271,-0.01,0.885,-258.179,140.197,-64.148,
00:00:33:233,0.367,0.036,0.935,-216.431,105.041,-107.483,
00:00:33:250,0.488,0.09,1.011,-130.799,35.705,-134.217,
00:00:33:267,0.638,0.033,1.183,-85.206,-108.216,-167.42,
00:00:33:283,0.612,0.047,1.145,-130.799,-246.827,-117.493,
00:00:33:300,0.72,0.234,1.124,-129.456,-408.753,-60.608,
00:00:33:317,0.675,-0.065,1.056,-208.191,-517.945,-78.797,
00:00:33:334,0.607,0.02,0.964,-288.575,-565.613,31.555,
00:00:33:350,0.514,0.062,0.903,-298.89,-587.891,15.258,
00:00:33:367,0.427,0.07,0.826,-283.753,-550.66,43.151,
00:00:33:384,0.377,0.041,0.743,-297.791,-506.409,69.946,
00:00:33:400,0.317,0.021,0.726,-384.4,-461.426,115.661,
00:00:33:417,0.209,-0.038,0.673,-399.292,-410.401,146.118,
00:00:33:434,0.127,0.051,0.708,-349.549,-358.765,147.644,
00:00:33:450,0.004,0.129,0.791,-216.309,-283.326,109.314,
00:00:33:467,-0.187,0.015,0.872,-179.139,-208.924,39.367,
00:00:33:484,-0.318,-0.064,0.93,-233.155,-122.254,-33.814,
00:00:33:500,-0.36,-0.022,0.943,-272.644,-69.581,-118.164,
00:00:33:517,-0.418,0.021,0.947,-270.569,-42.603,-197.327,
00:00:33:534,-0.467,0.076,0.933,-240.418,-15.992,-241.028,
00:00:33:550,-0.53,0.04,0.89,-182.19,13.671,-283.081,
00:00:33:567,-0.551,-0.008,0.912,-164.917,67.138,-296.753,
00:00:33:584,-0.503,0.004,0.917,-168.885,109.13,-311.89,
00:00:33:600,-0.475,0.036,0.982,-111.084,138.916,-309.754,
00:00:33:617,-0.425,0.054,1.045,-61.829,155.395,-306.275,
00:00:33:634,-0.36,0.025,1.076,-27.222,164.55,-289.673,
00:00:33:650,-0.313,-0.124,1.174,-216.248,74.462,-231.873,
00:00:33:667,-0.191,0.849,1.439,-60.914,-59.998,79.528,
00:00:33:684,-0.492,-0.233,0.959,419.86,76.66,-251.709,
00:00:33:700,-0.087,-0.293,0.886,60.058,44.25,-138.733,
00:00:33:717,-0.202,0.127,0.825,12.451,9.399,-94.605,
00:00:33:734,0.132,0.28,1.485,97.595,-35.035,-68.97,
00:00:33:750,-0.296,0.059,1.424,364.38,23.254,-66.407,
00:00:33:767,-0.095,-0.379,1.264,67.016,83.984,-107.972,
00:00:33:784,-0.04,0.119,1.145,-181.519,43.09,-29.725,
00:00:33:800,-0.179,0.243,0.942,-2.93,63.354,-42.237,
00:00:33:817,-0.034,0.087,1.117,147.4,67.443,-15.686,
00:00:33:834,-0.061,-0.007,1.177,228.881,57.861,17.456,
00:00:33:850,-0.094,-0.16,1.099,193.298,70.678,20.324,
00:00:33:867,-0.141,-0.03,0.98,35.766,68.542,13.244,
00:00:33:884,-0.114,0.159,0.959,30.09,44.189,3.234,
00:00:33:900,-0.103,0.07,0.92,202.27,16.784,-26.123,
00:00:33:917,-0.123,-0.112,0.931,207.214,-10.865,-49.012,
00:00:33:934,-0.133,-0.099,1.083,49.926,-20.569,-60.914,
00:00:33:950,0.004,0.046,0.972,-27.71,-28.443,-84.961,
00:00:33:967,-0.089,-0.017,0.937,5.981,-22.583,-104.798,
00:00:33:984,-0.016,-0.01,0.901,15.319,-23.255,-90.332,
00:00:34:0,-0.05,0.009,1.074,44.616,-27.527,-81.238,
00:00:34:17,0.009,-0.029,1.064,28.076,-2.198,-75.318,
00:00:34:34,-0.041,-0.084,0.957,-18.555,11.962,-72.022,
00:00:34:50,-0.106,-0.033,0.989,-49.622,36.377,-71.045,
00:00:34:67,-0.031,0.074,1.071,-68.604,25.207,-64.393,
00:00:34:84,-0.101,0.069,1.076,16.845,16.845,-75.074,
00:00:34:100,0.001,-0.019,1.012,-11.292,43.457,-86.304,
00:00:34:117,-0.005,-0.021,1.025,-82.947,50.17,-76.661,
00:00:34:134,0.041,0.054,0.928,-83.435,71.289,-64.209,
00:00:34:150,0.04,0.104,1.023,-49.195,70.983,-67.81,
00:00:34:167,0.034,0.087,0.989,45.105,66.406,-71.534,
00:00:34:184,0.118,0.016,1.003,13.794,74.34,-75.44,
00:00:34:200,0.126,0.111,1.088,-79.407,60.18,-68.055,
00:00:34:217,0.008,-0.005,0.961,27.343,105.651,-46.509,
00:00:34:234,0.084,0.101,1.118,-0.245,109.802,-20.081,
00:00:34:250,0.048,0.029,1.044,-7.264,126.22,-13.733,
00:00:34:267,-0.009,-0.124,1.008,2.136,171.325,12.573,
00:00:34:284,0.045,-0.007,1.024,6.347,211.181,46.142,
00:00:34:300,0.059,0.018,0.969,61.279,235.839,67.565,
00:00:34:317,0.1,0.083,1.118,81.848,230.407,90.759,rollRH
00:00:34:334,0.029,-0.019,1.133,53.283,245.3,72.265,
00:00:34:350,-0.018,-0.087,0.912,-4.7,259.46,65.673,
00:00:34:367,0.071,0.058,0.913,-33.57,246.582,66.65,
00:00:34:384,0.143,0.229,0.858,-20.813,194.58,27.16,
00:00:34:400,0.1,-0.085,0.98,-4.944,99.67,-86.365,
00:00:34:417,0.083,0.012,0.885,-105.53,66.162,-83.497,
00:00:34:434,0.115,0.115,0.872,-92.896,32.653,-125,
00:00:34:450,0.127,0.094,0.931,16.235,4.516,-123.597,
00:00:34:467,0.095,-0.021,1.125,62.255,6.897,-122.254,
00:00:34:484,0.114,0.076,0.939,-39.551,24.475,-95.52,
00:00:34:500,0.108,0.037,1.017,18.066,29.968,-93.384,
00:00:34:517,0.163,0.008,1.044,53.039,46.264,-80.811,
00:00:34:534,0.154,-0.006,1.058,5.676,52.124,-79.895,
00:00:34:550,0.13,0.028,1.045,-22.156,66.284,-62.684,
00:00:34:567,0.134,0.027,0.989,-3.052,65.612,-72.632,
00:00:34:584,0.134,0.044,0.959,13.916,74.279,-81.36,
00:00:34:600,0.182,0.076,0.983,24.414,74.585,-90.088,
00:00:34:617,0.197,0.049,1.023,25.146,77.819,-99.122,
00:00:34:634,0.122,-0.028,1.049,22.461,87.524,-110.535,
00:00:34:650,0.09,-0.026,1.069,-19.349,107.91,-100.892,
00:00:34:667,0.084,0.003,1.062,-23.987,128.906,-103.089,
00:00:34:684,0.107,0.012,1.043,4.028,153.076,-113.038,
00:00:34:700,0.136,-0.018,1.003,23.376,171.386,-116.761,
00:00:34:717,0.121,-0.063,0.97,32.714,179.382,-118.042,
00:00:34:734,0.09,-0.097,1.002,32.531,201.233,-127.137,
00:00:34:750,0.148,-0.002,1.155,-37.659,233.52,-130.738,
00:00:34:767,0.175,0.092,1.186,-73.182,239.502,-154.664,
00:00:34:784,0.163,0.033,1.178,-121.216,255.188,-173.34,
00:00:34:800,0.149,-0.104,1.113,-135.498,255.005,-169.251,
00:00:34:817,0.197,-0.127,1.001,-228.882,252.38,-96.619,
00:00:34:834,0.274,0.032,0.94,-254.456,254.455,-46.875,
00:00:34:850,0.373,0.207,0.886,-227.906,265.564,-88.562,
00:00:34:867,0.46,0.3,0.819,-166.077,219.299,-132.874,
00:00:34:884,0.464,-0.176,0.829,-96.253,20.813,-121.827,
00:00:34:900,0.542,0.04,0.711,-237.122,-36.805,-33.387,
00:00:34:917,0.382,-0.085,0.851,-355.042,-117.493,-24.231,
00:00:34:934,0.522,0.335,0.937,-379.822,-200.135,131.775,
00:00:34:950,0.258,0.292,0.913,-130.31,-240.113,142.944,
00:00:34:967,0.135,0.09,0.893,42.236,-201.783,142.822,
00:00:34:984,0.122,0.048,0.916,6.408,-188.538,161.804,
00:00:35:0,0.042,0.073,0.963,2.441,-155.701,147.033,
00:00:35:17,0,0.072,0.95,25.146,-96.253,113.769,
00:00:35:34,0.026,0.078,0.914,20.324,-41.443,88.012,
00:00:35:50,0.053,0.084,0.882,55.969,-8.851,76.11,
00:00:35:67,0.08,0.035,0.923,122.375,15.38,65.307,
00:00:35:84,0.141,0.007,0.991,124.206,22.338,54.748,
00:00:35:100,0.181,0.046,0.992,103.088,23.376,38.696,
00:00:35:117,0.214,0.006,0.959,59.814,23.864,11.352,
00:00:35:134,0.269,0.014,0.921,-1.221,13.488,8.483,
00:00:35:150,0.364,0.079,1.008,34.179,-50.782,33.63,
00:00:35:167,0.372,0.097,1.175,182.373,-114.991,36.865,
00:00:35:184,0.334,-0.04,1.176,195.495,-153.016,29.541,
00:00:35:200,0.311,-0.013,1.031,155.822,-152.588,51.696,
00:00:35:217,0.206,-0.063,0.781,90.82,-120.667,1.464,
00:00:35:234,0.364,0.026,0.649,72.876,-118.103,5.188,
00:00:35:250,0.388,0.168,0.778,256.225,-80.567,11.169,
00:00:35:267,0.415,-0.16,1.139,291.442,-119.019,-44.19,
00:00:35:284,0.298,0.072,1.087,132.69,-139.1,55.481,
00:00:35:300,0.197,0.048,1.028,-59.327,-157.776,-34.668,
00:00:35:317,0.057,0.011,1.083,-26.856,-144.104,36.987,
00:00:35:334,-0.069,-0.099,1.188,-19.288,-94.605,31.372,
00:00:35:350,-0.032,-0.095,1.194,-94.605,-72.449,26.367,
00:00:35:367,-0.008,0.033,1.138,-148.011,-69.581,32.348,
00:00:35:384,0.019,0.079,0.956,-161.255,-59.082,17.578,
00:00:35:400,0.014,0.042,0.93,-88.379,-34.363,6.897,
00:00:35:417,0.041,-0.079,1.02,-25.208,-1.404,-6.836,
00:00:35:434,0.155,-0.037,1.098,-96.558,7.507,7.202,
00:00:35:450,0.218,0.14,1.09,-162.659,-0.061,25.878,
00:00:35:467,0.271,0.162,0.962,-135.743,-0.733,18.737,
00:00:35:484,0.201,0.084,0.884,-57.068,0.549,9.765,
00:00:35:500,0.222,0.001,1.021,30.456,2.258,11.596,
00:00:35:517,0.169,0.052,1.113,11.901,-12.757,14.892,
00:00:35:534,0.208,0.033,0.872,-29.358,2.441,8.239,
00:00:35:550,0.169,0.042,0.862,-16.175,6.408,10.192,
00:00:35:567,0.112,0.045,1.058,33.935,9.094,15.991,
00:00:35:584,0.085,0.053,1.192,39.489,7.141,25.207,
00:00:35:600,0.109,0.011,1.004,-12.33,11.718,32.531,
00:00:35:617,0.076,0.034,0.892,-18.372,21.85,20.69,
00:00:35:634,0.051,0.036,0.914,-8.973,29.663,-7.935,
00:00:35:650,0.011,0.002,1.03,22.766,26.916,-14.527,
00:00:35:667,0.063,0.029,1.119,28.991,12.146,-9.278,
00:00:35:684,0.138,0.066,1.068,-3.418,14.282,-9.766,
00:00:35:700,0.115,0.062,0.908,-5.433,21.423,-20.752,
00:00:35:717,0.107,0.036,0.931,33.752,23.01,-29.175,
00:00:35:734,0.105,0.019,1.002,31.982,29.541,-33.753,
00:00:35:750,0.138,0.057,1.053,2.502,21.484,-28.87,
00:00:35:767,0.146,0.028,0.97,-16.419,34.668,-27.344,
00:00:35:784,0.11,-0.027,0.925,6.591,36.071,-34.79,
00:00:35:800,0.067,0.024,1,-17.823,20.568,-39.612,
00:00:35:817,0.043,0.046,1.089,12.39,6.652,-53.467,
00:00:35:834,0.076,-0.004,1.17,12.329,-19.41,-43.58,
00:00:35:850,0.045,0.057,1.073,11.169,-46.448,-29.969,
00:00:35:867,0.053,-0.034,0.888,66.711,-17.762,-47.425,
00:00:35:884,0.034,-0.097,0.84,14.587,16.723,-47.364,
00:00:35:900,-0.096,0.017,1.226,-8.423,-11.292,-70.679,
00:00:35:917,0.092,0.011,1.143,39.733,-7.447,-54.2,
00:00:35:934,0.032,-0.017,0.956,0.793,8.911,-33.692,
00:00:35:950,0.118,-0.009,0.889,-12.879,18.554,-35.462,
00:00:35:967,0.126,-0.015,0.869,-2.747,38.208,-43.519,
00:00:35:984,0.128,0.015,0.964,-24.414,47.302,-45.411,
00:00:36:0,0.157,0.038,1.001,-33.143,43.273,-42.176,
