TIMECODE,ACC_X,ACC_Y,ACC_Z,GYR_X,GYR_Y,GYR_Z,TAG
00:00:00:0,0,-0.647,0.801,37.475,-349.61,23.376,
00:00:00:16,-0.069,-0.681,0.717,-16.297,-312.806,-16.663,
00:00:00:33,-0.031,-0.671,0.844,-147.034,-248.719,-8.179,
00:00:00:50,-0.027,-0.585,0.821,-69.153,-183.106,-26.978,
00:00:00:66,-0.03,-0.636,0.844,-118.958,-132.996,-31.983,
00:00:00:83,-0.012,-0.608,0.842,-72.571,-96.253,-32.776,
00:00:00:100,-0.029,-0.607,0.868,-147.583,-100.708,-55.909,
00:00:00:116,-0.024,-0.565,0.843,-23.499,-80.384,-106.019,
00:00:00:133,-0.034,-0.537,0.858,-32.471,-63.355,-94.849,
00:00:00:150,-0.04,-0.516,0.878,58.044,-35.95,-93.384,
00:00:00:166,-0.039,-0.541,0.865,119.14,-6.226,-58.533,
00:00:00:183,-0.04,-0.613,0.848,129.699,11.962,-26.185,
00:00:00:200,-0.027,-0.626,0.828,140.808,32.775,-33.204,
00:00:00:216,-0.012,-0.617,0.807,141.113,38.33,-31.8,
00:00:00:233,-0.007,-0.628,0.797,128.479,32.165,-32.105,
00:00:00:250,-0.007,-0.65,0.792,103.393,28.808,-35.34,
00:00:00:266,-0.009,-0.657,0.787,65.734,20.629,-45.533,
00:00:00:283,-0.003,-0.649,0.786,31.799,10.864,-55.054,
00:00:00:300,-0.01,-0.633,0.788,5.432,5.676,-51.88,
00:00:00:316,-0.029,-0.417,0.988,89.904,35.278,-63.721,
00:00:00:333,-0.014,-0.774,0.79,99.67,48.584,-11.597,
00:00:00:350,0.017,-0.719,0.788,13.488,46.936,-42.115,
00:00:00:366,0.015,-0.619,0.783,-19.165,-18.189,-42.664,
00:00:00:383,-0.019,-0.607,0.794,-13.611,-49.317,-34.607,
00:00:00:400,-0.042,-0.646,0.804,-8.24,-11.17,-30.213,
00:00:00:416,-0.023,-0.643,0.803,-5.555,29.174,-29.969,
00:00:00:433,-0.002,-0.62,0.802,2.929,20.446,-42.237,
00:00:00:450,-0.003,-0.623,0.797,8.667,-10.071,-49.012,
00:00:00:466,-0.021,-0.635,0.802,17.578,-24.292,-50.599,
00:00:00:483,-0.03,-0.642,0.791,23.132,-13.611,-49.256,
00:00:00:500,-0.03,-0.643,0.791,23.132,3.112,-45.777,
00:00:00:516,-0.026,-0.653,0.788,16.052,5.737,-38.086,
00:00:00:533,-0.026,-0.656,0.791,4.333,7.324,-36.011,
00:00:00:550,-0.024,-0.651,0.787,-7.63,10.131,-30.518,
00:00:00:566,-0.019,-0.643,0.787,-13.672,11.84,-30.335,
00:00:00:583,-0.018,-0.64,0.792,-15.625,9.46,-30.457,
00:00:00:600,-0.019,-0.637,0.795,-10.804,0.732,-32.532,
00:00:00:616,-0.023,-0.636,0.792,-4.944,-1.77,-33.692,
00:00:00:633,-0.027,-0.641,0.792,0,-2.564,-33.631,
00:00:00:650,-0.027,-0.648,0.795,5.798,4.699,-30.64,
00:00:00:666,-0.023,-0.648,0.794,5.065,9.765,-27.894,
00:00:00:683,-0.023,-0.647,0.792,-0.061,15.747,-28.443,
00:00:00:700,-0.02,-0.652,0.79,2.258,13.122,-29.602,
00:00:00:716,-0.022,-0.649,0.791,-0.184,10.131,-31.739,
00:00:00:733,-0.022,-0.647,0.789,0.305,11.962,-29.602,
00:00:00:750,-0.023,-0.642,0.79,4.455,11.84,-30.457,
00:00:00:766,-0.021,-0.645,0.788,6.591,13.183,-45.166,
00:00:00:783,-0.021,-0.65,0.785,5.127,11.596,-30.274,
00:00:00:800,-0.022,-0.654,0.788,5.065,11.047,-30.64,
00:00:00:816,-0.022,-0.654,0.781,3.479,5.798,-30.701,
00:00:00:833,-0.024,-0.662,0.782,-1.16,9.277,-30.884,
00:00:00:850,-0.025,-0.664,0.791,-10.682,5.798,-30.579,
00:00:00:866,-0.026,-0.657,0.785,-20.569,8.239,-29.236,
00:00:00:883,-0.024,-0.646,0.788,-21.851,14.038,-25.086,
00:00:00:900,-0.024,-0.641,0.788,-13.306,18.249,-24.353,
00:00:00:916,-0.02,-0.645,0.787,-7.203,24.292,-20.691,
00:00:00:933,-0.018,-0.653,0.782,-3.052,21.423,-21.546,
00:00:00:950,-0.019,-0.661,0.781,-8.362,12.939,-25.757,
00:00:00:966,-0.021,-0.662,0.783,-16.419,5.981,-28.992,
00:00:00:983,-0.022,-0.659,0.782,-25.879,2.746,-27.344,
00:00:01:0,-0.021,-0.657,0.783,-27.344,10.803,-24.903,
00:00:01:16,-0.019,-0.654,0.786,-31.311,9.277,-23.133,
00:00:01:33,-0.015,-0.652,0.783,-34.18,5.859,-24.842,
00:00:01:50,-0.015,-0.646,0.782,-34.79,-0.123,-26.917,
00:00:01:66,-0.02,-0.644,0.786,-36.133,-6.775,-29.847,
00:00:01:83,-0.024,-0.646,0.788,-33.448,-8.912,-29.908,
00:00:01:100,-0.027,-0.642,0.791,-32.288,0.793,-29.419,
00:00:01:116,-0.029,-0.637,0.788,-28.382,3.112,-29.053,
00:00:01:133,-0.024,-0.639,0.785,-19.898,10.009,-27.832,
00:00:01:150,-0.024,-0.639,0.79,-8.728,9.704,-26.062,
00:00:01:166,-0.023,-0.64,0.785,-5.921,10.376,-26.917,
00:00:01:183,-0.021,-0.64,0.788,-2.076,12.268,-28.321,
00:00:01:200,-0.022,-0.644,0.79,3.723,10.376,-30.335,
00:00:01:216,-0.019,-0.645,0.787,7.507,11.23,-34.18,
00:00:01:233,-0.02,-0.646,0.785,10.009,5.249,-35.279,
00:00:01:250,-0.024,-0.648,0.789,14.892,2.136,-32.898,
00:00:01:266,-0.023,-0.655,0.785,16.418,13.488,-32.898,
00:00:01:283,-0.02,-0.65,0.781,17.273,16.967,-30.579,
00:00:01:300,-0.02,-0.655,0.784,18.981,12.268,-33.753,
00:00:01:316,-0.023,-0.659,0.783,21.728,9.399,-34.607,
00:00:01:333,-0.027,-0.656,0.782,22.155,10.498,-34.852,
00:00:01:350,-0.027,-0.657,0.782,22.644,13.366,-30.823,
00:00:01:366,-0.02,-0.662,0.775,23.864,18.676,-31.189,
00:00:01:383,-0.018,-0.664,0.776,18.798,15.197,-31.311,
00:00:01:400,-0.018,-0.666,0.774,18.554,8.606,-35.34,
00:00:01:416,-0.02,-0.664,0.776,13.366,-0.489,-39.612,
00:00:01:433,-0.026,-0.667,0.773,15.014,-1.587,-38.269,
00:00:01:450,-0.03,-0.671,0.774,7.141,-1.709,-37.537,
00:00:01:466,-0.024,-0.67,0.775,1.892,7.629,-35.706,
00:00:01:483,-0.026,-0.667,0.764,-0.367,8.483,-34.79,
00:00:01:500,-0.026,-0.673,0.776,-6.836,4.028,-33.509,
00:00:01:516,-0.025,-0.667,0.77,-11.231,3.54,-32.471,
00:00:01:533,-0.025,-0.666,0.772,-13.306,1.953,-33.387,
00:00:01:550,-0.026,-0.668,0.773,-14.466,0.183,-34.302,
00:00:01:566,-0.029,-0.666,0.772,-15.686,0.427,-36.133,
00:00:01:583,-0.028,-0.664,0.774,-12.207,-2.808,-34.058,
00:00:01:600,-0.031,-0.667,0.776,-13.245,4.638,-30.945,
00:00:01:616,-0.029,-0.667,0.772,-15.015,6.591,-30.213,
00:00:01:633,-0.029,-0.671,0.773,-17.762,7.934,-28.992,
00:00:01:650,-0.03,-0.665,0.771,-18.799,8.056,-30.396,
00:00:01:666,-0.031,-0.664,0.776,-18.311,9.887,-26.856,
00:00:01:683,-0.029,-0.664,0.777,-15.259,12.023,-27.832,
00:00:01:700,-0.028,-0.667,0.774,-11.536,12.023,-26.062,
00:00:01:716,-0.03,-0.668,0.772,-12.024,11.901,-26.49,
00:00:01:733,-0.029,-0.668,0.771,-9.522,14.831,-25.879,
00:00:01:750,-0.027,-0.664,0.77,-8.118,16.296,-25.818,
00:00:01:766,-0.024,-0.668,0.769,-7.752,13.366,-26.856,
00:00:01:783,-0.025,-0.672,0.767,-12.391,9.948,-28.443,
00:00:01:800,-0.027,-0.67,0.779,-15.381,7.446,-29.908,
00:00:01:816,-0.031,-0.674,0.772,-18.189,8.117,-28.748,
00:00:01:833,-0.029,-0.666,0.772,-21.058,14.709,-27.222,
00:00:01:850,-0.027,-0.661,0.774,-20.691,17.761,-27.344,
00:00:01:866,-0.026,-0.662,0.776,-13.916,16.662,-25.452,
00:00:01:883,-0.025,-0.664,0.773,-7.935,14.648,-28.016,
00:00:01:900,-0.027,-0.665,0.769,-5.677,11.718,-26.246,
00:00:01:916,-0.028,-0.675,0.769,-7.874,13.427,-26.856,
00:00:01:933,-0.026,-0.673,0.764,-14.039,13.549,-29.175,
00:00:01:950,-0.022,-0.671,0.771,-20.874,12.329,-28.931,
00:00:01:966,-0.024,-0.666,0.769,-22.461,9.155,-30.396,
00:00:01:983,-0.028,-0.664,0.773,-23.438,6.774,-29.419,
00:00:02:0,-0.029,-0.665,0.772,-20.691,6.225,-29.969,
00:00:02:16,-0.028,-0.667,0.773,-20.63,10.437,-29.236,
00:00:02:33,-0.027,-0.67,0.774,-21.058,6.164,-27.955,
00:00:02:50,-0.028,-0.668,0.772,-23.194,5.249,-29.908,
00:00:02:66,-0.03,-0.664,0.77,-24.964,10.131,-29.664,
00:00:02:83,-0.029,-0.667,0.773,-23.926,10.315,-30.152,
00:00:02:100,-0.027,-0.668,0.775,-21.607,13.061,-29.297,
00:00:02:116,-0.029,-0.669,0.773,-26.185,10.253,-27.344,
00:00:02:133,-0.028,-0.671,0.775,-26.673,15.014,-23.987,
00:00:02:150,-0.027,-0.668,0.774,-31.495,20.874,-20.935,
00:00:02:166,-0.023,-0.668,0.774,-34.241,19.226,-21.18,
00:00:02:183,-0.02,-0.664,0.774,-36.255,12.207,-25.391,
00:00:02:200,-0.024,-0.664,0.775,-39.49,7.324,-27.588,
00:00:02:216,-0.027,-0.663,0.775,-41.687,3.418,-25.574,
00:00:02:233,-0.028,-0.662,0.775,-43.091,10.742,-25.147,
00:00:02:250,-0.029,-0.66,0.777,-41.565,14.892,-23.682,
00:00:02:266,-0.027,-0.658,0.777,-41.81,13.671,-21.18,
00:00:02:283,-0.021,-0.66,0.779,-41.138,13.855,-22.156,
00:00:02:300,-0.022,-0.655,0.779,-41.321,10.803,-24.17,
00:00:02:316,-0.023,-0.653,0.783,-39.795,10.925,-25.574,
00:00:02:333,-0.023,-0.655,0.783,-43.091,7.873,-28.26,
00:00:02:350,-0.021,-0.65,0.784,-37.781,4.577,-26.551,
00:00:02:366,-0.027,-0.644,0.796,-18.25,2.868,-22.889,
00:00:02:383,-0.034,-0.646,0.794,7.995,10.925,-16.297,
00:00:02:400,-0.036,-0.675,0.796,19.348,21.545,-9.156,
00:00:02:416,-0.036,-0.664,0.759,18.554,38.696,-7.142,
00:00:02:433,-0.019,-0.664,0.736,-39.734,52.368,-6.653,
00:00:02:450,-0.005,-0.68,0.798,-80.994,52.002,-16.053,
00:00:02:466,-0.008,-0.642,0.779,-73.792,26.672,-20.813,
00:00:02:483,-0.019,-0.645,0.75,-87.586,11.169,-35.279,
00:00:02:500,-0.018,-0.618,0.818,-68.177,15.441,-33.326,
00:00:02:516,-0.012,-0.625,0.781,-33.081,24.78,-30.518,
00:00:02:533,-0.002,-0.626,0.779,-15.076,14.709,-29.114,
00:00:02:550,0.003,-0.655,0.781,-19.227,-6.836,-49.561,
00:00:02:566,-0.007,-0.655,0.79,-23.255,-36.499,-59.693,
00:00:02:583,-0.028,-0.656,0.789,-25.696,-40.101,-56.092,
00:00:02:600,-0.039,-0.659,0.799,-27.283,-19.043,-49.622,
00:00:02:616,-0.035,-0.648,0.785,-37.476,1.648,-39.917,
00:00:02:633,-0.03,-0.645,0.802,-15.686,4.394,-37.598,
00:00:02:650,-0.025,-0.636,0.792,-20.935,3.662,-33.875,
00:00:02:666,-0.026,-0.642,0.797,-10.987,4.882,-32.044,
00:00:02:683,-0.025,-0.641,0.792,-7.508,11.596,-32.044,
00:00:02:700,-0.022,-0.65,0.79,-12.085,11.901,-33.57,
00:00:02:716,-0.022,-0.657,0.787,-23.865,6.286,-33.692,
00:00:02:733,-0.026,-0.649,0.794,-27.222,3.845,-32.898,
00:00:02:750,-0.033,-0.643,0.795,-23.499,9.765,-30.335,
00:00:02:766,-0.037,-0.64,0.807,-16.419,22.216,-24.17,
00:00:02:783,-0.04,-0.641,0.801,-0.428,40.71,-16.846,
00:00:02:800,-0.037,-0.648,0.809,12.023,61.523,-9.522,
00:00:02:816,-0.025,-0.651,0.806,23.071,80.993,-7.081,
00:00:02:833,-0.017,-0.654,0.821,40.588,94.482,-8.789,
00:00:02:850,-0.026,-0.657,0.876,105.713,103.576,-8.362,
00:00:02:866,-0.05,-0.652,0.937,281.616,153.198,-4.883,
00:00:02:883,-0.123,-0.687,1.027,576.538,232.727,-32.837,
00:00:02:900,-0.222,-0.933,1.253,824.646,269.775,-223.572,
00:00:02:916,-0.034,-1.305,1.87,532.043,86.12,-415.223,
00:00:02:933,0.228,-1.425,1.501,455.444,-75.257,-679.993,
00:00:02:950,0.314,-2.011,0.886,148.071,-313.904,-1233.216,
00:00:02:966,0.822,-3.217,1.247,-289.124,-793.702,-1751.16,
00:00:02:983,0.459,-3.28,1.724,-913.636,-846.497,-1911.072,
00:00:03:0,0.451,-2.348,1.575,-1041.199,-998.902,-2000,
00:00:03:16,0.362,-1.933,1.294,-368.653,-1401.673,-2000,
00:00:03:33,0.11,-1.917,1.092,-206.055,-1652.405,-2000,
00:00:03:50,0.194,-1.579,0.749,-879.456,-1715.333,-2000,
00:00:03:66,0.518,-0.81,0.386,-1682.862,-1771.973,-2000,
00:00:03:83,0.784,-0.185,0.087,-2000,-1875.306,-2000,
00:00:03:100,1.067,0.22,-0.223,-2000,-1979.981,-2000,
00:00:03:116,1.142,0.42,-0.841,-1798.462,-1961.121,-2000,
00:00:03:133,1.336,1.088,-1.712,-1423.096,-1719.239,-2000,
00:00:03:150,0.789,2.319,-1.471,-2000,-924.927,-2000,
00:00:03:166,0.446,2.876,-1.519,-734.742,-536.133,-1211.609,
00:00:03:183,0.485,2.052,-1.602,265.564,-167.359,-204.529,
00:00:03:200,0.322,1.826,-1.692,668.579,600.891,744.201,
00:00:03:216,0.321,1.393,-1.062,675.048,1218.628,1455.749,
00:00:03:233,0.53,0.847,-0.568,916.259,1473.877,1811.645,
00:00:03:250,0.533,0.478,-0.287,1019.775,1608.947,1999.694,
00:00:03:266,0.385,0.232,-0.104,985.595,1760.192,1999.694,
00:00:03:283,0.287,0.041,0.052,872.68,1860.839,1999.694,
00:00:03:300,0.296,-0.2,0.265,754.028,1863.708,1999.694,
00:00:03:316,0.287,-0.569,0.75,700.378,1850.647,1999.694,
00:00:03:333,0.02,-0.561,0.951,937.927,1876.77,1999.694,
00:00:03:350,-0.199,-0.349,0.674,554.26,1905.883,1999.694,
00:00:03:366,-0.152,-0.474,0.63,284.423,1976.501,1997.985,
00:00:03:383,0.374,-1.431,1.251,695.8,1848.205,1597.778,
00:00:03:400,0.748,-2.064,2.02,436.096,1476.135,1649.475,
00:00:03:416,0.255,-2.205,2.27,-146.485,1373.169,1273.437,
00:00:03:433,0.237,-1.89,2.045,-650.757,1187.988,906.189,
00:00:03:450,0.256,-1.08,1.623,-575.623,955.749,681.518,
00:00:03:466,0.155,-0.498,1.333,-206.665,725.036,456.176,
00:00:03:483,0.078,-0.636,1.194,283.813,437.255,298.828,
00:00:03:500,-0.054,-0.953,1.734,788.147,30.7,271.789,
00:00:03:516,-0.422,-1.182,1.294,256.53,-2.137,143.493,
00:00:03:533,-0.428,-0.648,0.909,-584.046,246.765,229.065,
00:00:03:550,-0.291,-0.173,0.719,-672.974,348.449,162.475,
00:00:03:566,-0.092,0.306,1.196,-39.429,135.925,120.544,
00:00:03:583,0.107,-0.153,1.553,1581.298,-166.077,-5.494,
00:00:03:600,0.247,-0.376,0.711,1578.064,-172.547,261.84,
00:00:03:616,-0.122,-2.039,1.105,673.339,-178.589,84.777,
00:00:03:633,-0.162,-0.762,0.829,-151.123,62.622,-28.931,
00:00:03:650,0.05,-0.214,0.802,-134.766,94.421,25.085,
00:00:03:666,0.031,-0.445,0.869,-25.696,50.231,-21.668,
00:00:03:683,0.001,-0.594,0.901,55.664,63.72,-13.428,
00:00:03:700,0.036,-0.53,0.874,120.544,71.167,9.155,
00:00:03:716,0.04,-0.544,0.871,180.175,50.109,-0.916,
00:00:03:733,0.037,-0.662,0.855,164.245,41.809,-19.165,
00:00:03:750,0.049,-0.741,0.844,84.35,29.235,-37.11,
00:00:03:766,0.021,-0.654,0.834,-0.184,22.766,-60.425,
00:00:03:783,0.037,-0.631,0.86,-23.255,25.207,-85.572,
00:00:03:800,0.081,-0.671,0.847,-34.485,25.146,-103.943,
00:00:03:816,0.098,-0.853,0.834,-269.715,92.59,-105.469,
00:00:03:833,0.088,-0.638,0.861,-183.655,96.008,-111.084,
00:00:03:850,0.069,-0.495,0.824,72.082,96.313,-134.888,
00:00:03:866,0.118,-0.539,0.866,565.185,3.173,-200.135,
00:00:03:883,0.087,-0.71,0.948,924.011,-49.378,-259.583,
00:00:03:900,-0.012,-0.861,0.863,959.9,-41.443,-303.956,
00:00:03:916,-0.084,-0.907,0.752,747.009,-3.724,-325.989,
00:00:03:933,-0.121,-0.856,0.677,426.513,39.55,-332.703,
00:00:03:950,-0.124,-0.797,0.7,135.803,55.725,-342.225,
00:00:03:966,-0.12,-0.773,0.727,-106.751,54.016,-332.337,
00:00:03:983,-0.12,-0.74,0.727,-262.94,47.79,-313.965,
00:00:04:0,-0.128,-0.619,0.688,-359.009,64.025,-281.678,
00:00:04:16,-0.135,-0.502,0.666,-376.404,92.712,-256.653,
00:00:04:33,-0.087,-0.483,0.689,-302.979,104.309,-245.057,
00:00:04:50,-0.028,-0.609,0.675,-376.831,88.44,-236.756,
00:00:04:66,-0.032,-0.619,0.857,-557.74,69.213,-160.279,
00:00:04:83,-0.029,-0.507,0.829,-741.456,79.284,-145.02,
00:00:04:100,-0.102,-0.231,0.953,-559.876,102.356,-40.101,
00:00:04:116,-0.065,-0.244,0.908,-260.315,50.659,-41.016,
00:00:04:133,-0.039,-0.364,0.899,-57.373,51.513,3.967,
00:00:04:150,-0.03,-0.283,0.917,45.776,62.622,110.778,
00:00:04:166,-0.021,-0.35,0.898,250.793,30.578,103.027,
00:00:04:183,-0.021,-0.517,1.008,362.365,-43.702,185.669,
00:00:04:200,0.043,-0.589,1.057,284.24,-93.323,215.82,
00:00:04:216,0.053,-0.651,1.015,176.391,-154.786,229.309,
00:00:04:233,0.06,-0.638,0.972,50.598,-153.87,236.877,
00:00:04:250,0.065,-0.62,0.914,-39.856,-150.696,225.341,
00:00:04:266,0.043,-0.638,0.862,5.554,-153.26,223.449,
00:00:04:283,0.08,-0.755,1.042,122.68,-202.088,186.157,
00:00:04:300,0.024,-1.025,1.065,200.927,-231.873,80.383,
00:00:04:316,-0.009,-0.982,0.945,168.762,-185.975,11.474,
00:00:04:333,-0.021,-0.929,0.858,197.692,-175.538,-82.581,
00:00:04:350,-0.045,-0.939,0.76,301.757,-161.866,-197.632,
00:00:04:366,-0.061,-1.052,0.698,308.349,-144.41,-374.39,
00:00:04:383,-0.163,-1.157,0.713,38.94,-113.282,-470.276,
00:00:04:400,-0.251,-1.21,0.661,-362.549,-22.522,-546.448,
00:00:04:416,-0.238,-1.102,0.647,-617.066,20.324,-602.906,
00:00:04:433,-0.253,-0.878,0.673,-779.48,76.843,-636.414,
00:00:04:450,-0.294,-0.696,0.569,-858.033,178.711,-687.195,
00:00:04:466,-0.269,-0.542,0.618,-867.737,262.268,-698.06,
00:00:04:483,-0.253,-0.486,0.658,-834.29,333.313,-688.721,
00:00:04:500,-0.262,-0.494,0.621,-855.164,397.583,-697.144,mixLH
00:00:04:516,-0.228,-0.467,0.67,-839.295,452.942,-691.163,
00:00:04:533,-0.239,-0.373,0.593,-798.523,566.711,-690.247,
00:00:04:550,-0.216,-0.242,0.593,-651.062,623.413,-685.242,
00:00:04:566,-0.176,-0.149,0.662,-559.937,625.488,-646.851,
00:00:04:583,-0.117,-0.17,0.764,-472.535,601.257,-614.869,
00:00:04:600,-0.103,-0.226,0.759,-386.719,587.89,-588.44,
00:00:04:616,-0.121,-0.224,0.684,-302.063,606.933,-561.768,
00:00:04:633,-0.087,-0.169,0.645,-251.893,616.455,-526.856,
00:00:04:650,0.007,-0.022,0.665,-301.026,602.6,-412.232,
00:00:04:666,0.112,-0.031,0.76,-334.656,538.818,-375.184,
00:00:04:683,0.161,-0.183,0.878,-385.376,448.364,-402.1,
00:00:04:700,0.149,-0.214,1.013,-515.198,386.535,-292.908,
00:00:04:716,0.132,-0.145,1.085,-583.313,325.012,-271.79,
00:00:04:733,0.149,-0.09,1.075,-523.072,275.634,-260.865,
00:00:04:750,0.184,-0.079,1.046,-406.067,220.214,-241.7,
00:00:04:766,0.195,-0.086,1.026,-278.809,164.856,-222.84,
00:00:04:783,0.176,-0.049,1.001,-155.03,150.085,-187.012,
00:00:04:800,0.172,-0.035,0.967,-21.302,149.17,-184.144,
00:00:04:816,0.184,-0.105,1.004,120.849,125.854,-178.101,
00:00:04:833,0.17,-0.19,0.961,241.394,140.686,-162.171,
00:00:04:850,0.192,-0.21,0.944,360.168,139.526,-140.32,
00:00:04:866,0.229,-0.25,0.961,418.64,101.257,-132.508,
00:00:04:883,0.222,-0.288,0.975,403.625,82.275,-123.047,
00:00:04:900,0.218,-0.338,1.016,302.856,59.814,-104.493,
00:00:04:916,0.192,-0.336,1.052,183.41,45.41,-73.243,
00:00:04:933,0.18,-0.312,1.033,117.675,57.8,-65.003,
00:00:04:950,0.18,-0.278,0.986,119.201,44.067,-44.251,
00:00:04:966,0.149,-0.267,0.972,167.358,57.556,-58.838,
00:00:04:983,0.122,-0.287,0.926,223.755,83.007,-45.533,
00:00:05:0,0.113,-0.316,1,211.547,60.485,-30.335,
00:00:05:16,0.092,-0.331,1.012,181.823,72.509,-16.175,
00:00:05:33,0.064,-0.328,1.012,93.505,87.646,-12.818,
00:00:05:50,0.084,-0.298,0.998,-35.34,61.096,32.226,
00:00:05:66,0.078,-0.261,1.001,-199.646,40.649,68.847,
00:00:05:83,0.095,-0.272,1,-335.999,21.85,87.646,
00:00:05:100,0.137,-0.283,0.982,-470.459,-3.968,107.177,
00:00:05:116,0.179,-0.307,0.997,-638.611,-32.349,127.868,
00:00:05:133,0.198,-0.329,1.011,-812.928,-27.161,112.06,
00:00:05:150,0.227,-0.315,1.041,-915.223,-15.809,87.036,
00:00:05:166,0.248,-0.25,1.074,-871.582,-11.658,54.443,
00:00:05:183,0.256,-0.191,1.077,-687.745,-15.076,13.794,
00:00:05:200,0.237,-0.123,1.041,-473.084,-10.132,-32.41,
00:00:05:216,0.246,-0.065,0.973,-324.463,-8.728,-63.294,
00:00:05:233,0.201,0.006,1.024,-78.614,-28.26,-66.407,
00:00:05:250,0.181,-0.162,1.057,150.451,-85.999,-148.438,
00:00:05:266,0.148,-0.296,1.074,143.737,-114.502,-158.387,
00:00:05:283,0.088,-0.261,1.002,30.7,-99.244,-150.635,
00:00:05:300,0.072,-0.168,0.946,-7.752,-98.572,-160.34,
00:00:05:316,0.05,-0.098,0.933,35.339,-107.178,-159.729,
00:00:05:333,0.023,-0.105,0.946,73.669,-108.765,-172.486,
00:00:05:350,0.005,-0.1,0.942,74.34,-97.29,-168.641,
00:00:05:366,-0.028,-0.081,0.921,88.623,-73.731,-156.311,
00:00:05:383,-0.042,-0.053,0.93,160.217,-66.407,-145.203,
00:00:05:400,-0.066,-0.026,0.929,248.291,-52.002,-128.418,
00:00:05:416,-0.087,-0.057,0.924,319.946,-42.42,-133.912,
00:00:05:433,-0.101,-0.104,0.918,322.631,-24.842,-126.648,
00:00:05:450,-0.106,-0.133,0.903,289.489,-6.775,-112.732,
00:00:05:466,-0.104,-0.159,0.905,247.741,3.479,-112.488,
00:00:05:483,-0.123,-0.178,0.983,182.556,30.395,-121.46,
00:00:05:500,-0.114,-0.178,0.994,167.114,42.846,-121.827,
00:00:05:516,-0.097,-0.168,0.998,150.817,46.997,-121.094,
00:00:05:533,-0.089,-0.176,0.989,150.695,49.438,-112.427,
00:00:05:550,-0.052,-0.188,0.976,85.144,49.011,-73.304,
00:00:05:566,-0.037,-0.179,0.993,74.829,45.471,-58.899,
00:00:05:583,-0.026,-0.168,0.978,53.833,54.26,-33.448,
00:00:05:600,-0.01,-0.175,0.987,33.264,54.809,-20.997,
00:00:05:616,0.01,-0.197,0.98,-4.761,79.895,2.99,
00:00:05:633,0.114,-0.21,1.022,-98.572,78.491,72.937,
00:00:05:650,0.196,-0.27,1.026,-194.153,43.762,83.313,
00:00:05:666,0.229,-0.273,1.042,-305.115,39.428,97.473,
00:00:05:683,0.24,-0.259,1.038,-385.01,51.086,81.665,
00:00:05:700,0.264,-0.179,1.084,-371.521,42.663,98.266,
00:00:05:716,0.25,-0.148,1.029,-32.654,19.592,88.073,
00:00:05:733,0.246,-0.175,1.006,0.549,13.427,91.552,
00:00:05:750,0.241,-0.195,0.997,-18.921,16.296,96.069,
00:00:05:766,0.23,-0.204,0.997,-91.858,18.432,99.609,
00:00:05:783,0.212,-0.216,0.986,-162.293,25.085,94.055,
00:00:05:800,0.203,-0.204,0.996,-216.492,36.01,98.999,
00:00:05:816,0.207,-0.19,1.025,-247.681,32.531,94.665,
00:00:05:833,0.194,-0.149,1.034,-250.611,34.362,96.069,
00:00:05:850,0.194,-0.113,1.034,-224.366,23.986,93.078,
00:00:05:866,0.191,-0.158,1.04,-150.208,-14.832,61.035,
00:00:05:883,0.12,-0.128,1.028,-141.053,-12.146,44.189,
00:00:05:900,0.1,-0.12,1.023,-143.067,-11.048,33.691,
00:00:05:916,0.089,-0.102,1.006,-141.053,-12.146,27.099,
00:00:05:933,0.09,-0.089,1.027,-117.859,-29.236,14.892,
00:00:05:950,0.069,-0.125,1.021,-89.417,-37.354,5.981,
00:00:05:966,0.062,-0.094,1.025,-60.242,-45.96,-2.808,
00:00:05:983,0.045,-0.089,1,-40.528,-48.096,-16.419,
00:00:06:0,0.029,-0.136,1.054,-4.151,-79.59,-51.148,
00:00:06:16,-0.007,-0.166,1.061,-2.015,-79.712,-74.83,
00:00:06:33,0,-0.113,0.942,-26.856,-40.589,-75.379,
00:00:06:50,0.033,-0.038,0.929,27.465,-53.345,-86.548,
00:00:06:66,0.017,-0.049,0.955,119.384,-65.125,-107.85,
00:00:06:83,-0.022,-0.108,0.978,159.301,-64.881,-123.047,
00:00:06:100,-0.039,-0.123,0.975,140.808,-57.129,-132.203,
00:00:06:116,-0.044,-0.109,0.957,82.824,-48.218,-137.94,
00:00:06:133,-0.044,-0.092,0.952,59.57,-47.669,-138.733,
00:00:06:150,-0.041,-0.034,0.947,64.148,-45.716,-134.095,
00:00:06:166,-0.052,-0.065,0.927,146.057,-39.856,-145.081,
00:00:06:183,-0.06,-0.094,0.938,243.225,-38.453,-158.753,
00:00:06:200,-0.065,-0.14,0.941,277.832,-29.786,-170.35,
00:00:06:216,-0.056,-0.178,0.935,257.08,-16.724,-186.036,
00:00:06:233,-0.036,-0.183,0.941,200.134,-16.358,-188.538,
00:00:06:250,-0.041,-0.159,0.942,166.076,-8.057,-192.749,
00:00:06:266,-0.042,-0.136,0.948,158.996,-6.47,-198.365,
00:00:06:283,-0.043,-0.156,0.996,239.013,15.258,-194.458,
00:00:06:300,-0.028,-0.172,0.974,241.882,17.517,-193.787,
00:00:06:316,-0.008,-0.187,0.962,228.637,20.996,-183.106,
00:00:06:333,-0.003,-0.198,0.954,204.895,16.357,-176.087,
00:00:06:350,-0.011,-0.214,0.96,188.232,16.784,-167.664,
00:00:06:366,0.017,-0.219,1.026,45.349,43.335,-127.625,
00:00:06:383,0.028,-0.193,1.013,16.113,47.119,-102.112,
00:00:06:400,0.038,-0.16,1.023,19.836,45.837,-77.637,
00:00:06:416,0.045,-0.146,1.007,44.982,46.814,-54.444,
00:00:06:433,0.056,-0.161,0.992,60.241,42.297,-31.678,
00:00:06:450,0.071,-0.208,1.001,35.217,30.944,-11.841,
00:00:06:466,0.077,-0.26,1.01,-44.312,31.86,6.897,
00:00:06:483,0.088,-0.263,1.014,-149.964,35.827,37.78,
00:00:06:500,0.097,-0.22,1.014,-228.76,44.067,59.997,
00:00:06:516,0.104,-0.18,1.003,-233.948,51.635,80.078,
00:00:06:533,0.109,-0.15,1.013,-199.585,53.039,103.759,
00:00:06:550,0.116,-0.177,1.019,-181.092,45.471,110.473,
00:00:06:566,0.13,-0.163,1.038,-208.924,46.264,146.667,
00:00:06:583,0.148,-0.157,1.045,-224.488,40.283,166.381,
00:00:06:600,0.165,-0.146,1.051,-225.892,34.668,182.922,
00:00:06:616,0.18,-0.151,1.034,-209.473,25.817,195.617,
00:00:06:633,0.195,-0.173,1.029,-188.721,14.77,194.58,
00:00:06:650,0.205,-0.225,1.033,-189.881,5.127,182.922,
00:00:06:666,0.2,-0.255,1.037,-222.107,8.239,171.264,
00:00:06:683,0.187,-0.256,1.032,-255.921,26.55,154.419,
00:00:06:700,0.2,-0.222,1.04,-245.301,31.189,143.005,
00:00:06:716,0.201,-0.208,1.038,-207.337,24.902,118.652,
00:00:06:733,0.198,-0.234,1.04,-168.946,2.258,88.378,
00:00:06:750,0.166,-0.219,1.05,-194.642,-2.625,80.993,
00:00:06:766,0.143,-0.188,1.04,-229.065,6.164,60.363,
00:00:06:783,0.129,-0.148,1.043,-235.535,3.173,54.077,
00:00:06:800,0.122,-0.122,1.038,-222.474,-3.602,48.156,
00:00:06:816,0.112,-0.137,1.042,-193.604,-16.846,29.235,
00:00:06:833,0.085,-0.097,1.046,-178.833,-25.452,4.882,
00:00:06:850,0.073,-0.084,1.038,-172.242,-38.208,-1.16,
00:00:06:866,0.061,-0.09,1.037,-175.477,-35.523,-12.024,
00:00:06:883,0.048,-0.069,1.027,-184.266,-40.772,-12.879,
00:00:06:900,0.03,-0.035,1.022,-161.683,-38.819,-17.64,
00:00:06:916,0.028,-0.028,1.027,-111.695,-50.11,-20.63,
00:00:06:933,0.026,-0.022,1.027,-93.14,-59.51,-20.081,
00:00:06:950,0.026,-0.042,1.003,-83.741,-62.195,-30.335,
00:00:06:966,0.032,-0.032,1.017,-79.956,-73.731,-32.776,
00:00:06:983,0.018,-0.028,1.014,-93.14,-79.834,-46.936,
00:00:07:0,0,-0.042,0.998,-80.75,-78.37,-55.359,
00:00:07:16,0.005,-0.034,0.984,-57.373,-76.233,-57.251,
00:00:07:33,0.003,-0.009,0.978,-40.711,-74.524,-62.195,
00:00:07:50,0,-0.019,0.982,-9.278,-84.351,-75.928,
00:00:07:66,-0.016,-0.034,0.981,20.08,-83.069,-74.463,
00:00:07:83,-0.024,-0.04,0.976,25.329,-74.402,-78.736,
00:00:07:100,-0.032,-0.036,0.994,18.981,-75.989,-77.454,
00:00:07:116,-0.059,-0.011,0.981,14.404,-67.749,-72.327,
00:00:07:133,-0.058,0.007,0.956,78.308,-57.19,-72.022,
00:00:07:150,-0.077,0.035,0.93,205.322,-52.979,-68.726,
00:00:07:166,-0.094,0.024,0.889,369.323,-32.776,-74.83,
00:00:07:183,-0.098,-0.046,0.863,492.309,-4.456,-94.178,
00:00:07:200,-0.087,-0.104,0.867,499.45,15.564,-105.53,
00:00:07:216,-0.075,-0.169,0.865,420.349,39.001,-121.033,
00:00:07:233,-0.069,-0.198,0.916,309.021,38.33,-119.019,
00:00:07:250,-0.064,-0.201,0.962,199.524,45.837,-124.756,
00:00:07:266,-0.045,-0.165,1,122.863,36.865,-120.972,
00:00:07:283,-0.061,-0.147,1.008,154.48,-9.522,-142.701,
00:00:07:300,-0.058,-0.18,1.006,145.324,-13.062,-151.062,
00:00:07:316,-0.045,-0.171,0.979,102.295,10.62,-142.273,
00:00:07:333,-0.033,-0.174,0.994,142.456,14.282,-146.607,
00:00:07:350,-0.042,-0.191,0.986,147.4,25.878,-154.725,
00:00:07:366,-0.038,-0.212,0.976,126.648,37.109,-154.236,
00:00:07:383,-0.03,-0.193,0.992,79.65,44.555,-142.029,
00:00:07:400,-0.028,-0.172,0.984,30.273,61.401,-133.118,
00:00:07:416,-0.011,-0.161,0.975,12.756,72.021,-126.282,
00:00:07:433,0.03,-0.153,0.982,-2.625,71.838,-110.291,
00:00:07:450,0.004,-0.153,0.984,-16.846,81.359,-96.558,
00:00:07:466,0.02,-0.173,1.005,-62.195,78.369,-80.079,
00:00:07:483,0.041,-0.183,1.025,-142.273,73.791,-61.28,
00:00:07:500,0.056,-0.161,1.035,-187.989,73.669,-41.748,
00:00:07:516,0.067,-0.117,1.025,-185.364,81.176,-19.349,
00:00:07:533,0.071,-0.118,1.076,-107.056,61.767,-10.315,
00:00:07:550,0.072,-0.117,1.03,-67.444,77.88,7.507,
00:00:07:566,0.09,-0.116,1.026,-75.44,68.725,29.235,
00:00:07:583,0.109,-0.078,1.086,-62.684,50.17,72.692,
00:00:07:600,0.12,-0.143,1.057,-44.556,37.597,60.669,
00:00:07:616,0.136,-0.172,1.057,-62.561,32.653,86.731,
00:00:07:633,0.145,-0.158,1.054,-93.567,32.104,103.637,
00:00:07:650,0.165,-0.159,1.054,-121.094,15.625,104.675,
00:00:07:666,0.162,-0.169,1.034,-203.98,6.836,114.868,
00:00:07:683,0.162,-0.185,1.034,-284.79,-0.672,113.891,
00:00:07:700,0.146,-0.153,1.027,-378.418,16.113,129.394,
00:00:07:716,0.142,-0.11,1.031,-382.019,17.395,120.3,
00:00:07:733,0.145,-0.067,1.015,-341.614,27.954,131.469,
00:00:07:750,0.134,-0.034,1.002,-280.396,32.531,132.507,
00:00:07:766,0.141,-0.039,0.999,-236.451,33.63,130.737,
00:00:07:783,0.139,-0.084,1.018,-198.121,24.658,121.582,
00:00:07:800,0.126,-0.111,1.04,-193.36,26.001,113.708,
00:00:07:816,0.124,-0.1,1.033,-215.027,29.663,107.483,
00:00:07:833,0.115,-0.078,1.031,-210.633,34.484,99.67,
00:00:07:850,0.113,-0.062,1.035,-164.856,23.803,88.867,
00:00:07:866,0.096,-0.06,1.036,-130.494,14.587,79.773,
00:00:07:883,0.076,-0.047,1.027,-96.863,11.84,70.678,
00:00:07:900,0.06,-0.054,1.033,-38.025,2.502,57.617,
00:00:07:916,0.052,-0.077,1.045,-9.644,-6.165,48.828,
00:00:07:933,0.054,-0.094,1.038,-26.185,-13.733,33.081,
00:00:07:950,0.052,-0.09,1.047,-56.397,-21.119,14.953,
00:00:07:966,0.045,-0.086,1.045,-73.731,-28.748,-5.005,
00:00:07:983,0.018,-0.043,0.992,-96.436,-13.062,-11.719,
00:00:08:0,0.004,-0.121,1.143,1.281,-78.064,-74.707,
00:00:08:16,-0.025,-0.096,1.064,-11.231,-41.687,-56.702,
00:00:08:33,0.023,-0.002,0.962,-18.067,-32.044,-63.782,
00:00:08:50,0.048,0.041,1.001,46.997,-55.481,-84.412,
00:00:08:66,-0.002,-0.056,1.054,134.521,-74.524,-109.986,
00:00:08:83,-0.039,-0.094,1.057,124.145,-55.664,-122.62,
00:00:08:100,-0.034,-0.061,1.029,85.571,-32.532,-130.31,
00:00:08:116,-0.034,-0.025,1.019,103.82,-37.232,-133.301,
00:00:08:133,-0.049,-0.042,1.01,125.488,-44.19,-142.64,
00:00:08:150,-0.046,-0.082,0.998,96.557,-47.364,-156.311,
00:00:08:166,-0.043,-0.076,0.979,44.128,-52.674,-159.668,
00:00:08:183,-0.061,-0.046,0.97,22.949,-54.017,-165.406,
00:00:08:200,-0.077,-0.021,0.935,95.153,-37.842,-159.058,
00:00:08:216,-0.069,-0.018,0.908,228.515,-28.687,-156.617,
00:00:08:233,-0.07,-0.034,0.886,310.485,-20.813,-154.908,
00:00:08:250,-0.077,-0.073,0.868,358.337,-8.24,-165.223,
00:00:08:266,-0.078,-0.097,0.87,355.529,2.624,-159.607,
00:00:08:283,-0.073,-0.152,0.9,287.292,20.568,-164.612,
00:00:08:300,-0.069,-0.152,0.923,252.014,21.606,-162.293,
00:00:08:316,-0.072,-0.141,0.955,236.816,25.878,-153.748,
00:00:08:333,-0.06,-0.15,0.976,250.732,25.94,-155.335,
00:00:08:350,-0.05,-0.181,1.004,255.371,19.714,-153.565,
00:00:08:366,-0.038,-0.213,1.003,247.253,20.08,-155.64,
00:00:08:383,-0.031,-0.229,1.007,213.44,19.348,-149.72,
00:00:08:400,-0.037,-0.226,0.997,184.753,19.47,-150.513,
00:00:08:416,-0.042,-0.231,0.987,140.564,16.662,-152.222,
00:00:08:433,-0.046,-0.243,0.994,65.856,23.315,-148.621,
00:00:08:450,-0.04,-0.213,0.983,-16.053,37.475,-139.344,
00:00:08:466,-0.027,-0.186,0.988,-47.364,42.48,-130.372,
00:00:08:483,-0.027,-0.169,0.986,-38.819,52.734,-121.827,
00:00:08:500,-0.02,-0.152,0.973,-26.123,64.575,-102.784,mixLH
00:00:08:516,-0.004,-0.162,0.977,12.207,66.101,-94.056,
00:00:08:533,-0.003,-0.166,0.993,25.39,66.833,-72.937,
00:00:08:550,0.018,-0.171,1.007,6.408,66.406,-54.505,
00:00:08:566,0.034,-0.185,1.012,-7.508,69.336,-39.124,
00:00:08:583,0.051,-0.17,1.033,-30.823,67.871,-12.452,
00:00:08:600,0.063,-0.165,1.013,-19.349,64.514,-1.282,
00:00:08:616,0.076,-0.181,0.994,-16.358,58.776,15.625,
00:00:08:633,0.086,-0.22,0.991,-26.246,54.809,22.094,
00:00:08:650,0.082,-0.231,1.003,-89.6,64.453,42.541,
00:00:08:666,0.097,-0.203,1.008,-127.015,79.467,56.823,
00:00:08:683,0.115,-0.181,1.005,-114.869,92.895,69.03,
00:00:08:700,0.135,-0.171,1.033,-92.469,81.42,79.895,
00:00:08:716,0.146,-0.19,1.02,-105.286,67.688,90.698,
00:00:08:733,0.16,-0.2,1.023,-141.48,57.922,99.365,
00:00:08:750,0.15,-0.205,1.014,-192.688,63.11,110.656,
00:00:08:766,0.154,-0.188,1.033,-230.286,60.058,121.093,
00:00:08:783,0.169,-0.169,1.058,-271.79,54.138,128.967,
00:00:08:800,0.177,-0.144,1.04,-277.894,45.044,142.578,
00:00:08:816,0.193,-0.143,1.056,-253.54,19.47,147.4,
00:00:08:833,0.183,-0.153,1.05,-250,3.173,147.461,
00:00:08:850,0.177,-0.163,1.028,-270.935,-2.747,136.963,
00:00:08:866,0.165,-0.165,1.017,-269.227,-3.785,129.211,
00:00:08:883,0.147,-0.143,1.004,-262.207,8.606,127.807,
00:00:08:900,0.152,-0.135,1.003,-239.685,10.742,113.647,
00:00:08:916,0.151,-0.131,1.012,-222.474,13.732,96.252,
00:00:08:933,0.13,-0.127,1.023,-195.679,21.118,80.322,
00:00:08:950,0.107,-0.123,1.023,-130.677,27.099,66.894,
00:00:08:966,0.105,-0.114,1.051,-57.618,16.54,62.683,
00:00:08:983,0.09,-0.12,1.037,-18.494,6.774,53.039,
00:00:09:0,0.065,-0.135,1.043,-36.133,-14.954,23.803,
00:00:09:16,0.059,-0.127,1.026,-48.401,-17.579,4.394,
00:00:09:33,0.04,-0.131,1.008,-25.574,-15.076,-12.391,
00:00:09:50,0.044,-0.116,1.026,-4.273,-23.072,-19.837,
00:00:09:66,0.041,-0.118,1.019,-4.944,-25.086,-41.016,
00:00:09:83,0.049,-0.11,1.01,-9.522,-26.246,-48.035,
00:00:09:100,0.042,-0.101,1.023,19.714,-41.138,-63.111,
00:00:09:116,0.028,-0.107,1.031,29.48,-49.012,-78.064,
00:00:09:133,0.013,-0.115,1.035,38.818,-54.566,-86.67,
00:00:09:150,0.004,-0.109,1.043,43.518,-60.669,-96.558,
00:00:09:166,-0.004,-0.111,1.05,44.372,-74.402,-108.948,
00:00:09:183,-0.012,-0.087,1.044,69.336,-82.886,-108.887,
00:00:09:200,-0.029,-0.054,1.027,109.008,-88.562,-107.666,
00:00:09:216,-0.052,-0.055,1.005,183.105,-98.694,-108.338,
00:00:09:233,-0.067,-0.071,1,239.746,-100.953,-98.084,
00:00:09:250,-0.079,-0.093,0.982,281.616,-92.835,-99.915,
00:00:09:266,-0.089,-0.12,0.954,320.068,-86.304,-93.75,
00:00:09:283,-0.098,-0.14,0.951,334.045,-85.755,-97.046,
00:00:09:300,-0.114,-0.159,0.937,319.58,-72.388,-97.352,
00:00:09:316,-0.107,-0.162,0.914,313.598,-60.059,-99.793,
00:00:09:333,-0.094,-0.153,0.912,313.476,-48.584,-105.896,
00:00:09:350,-0.093,-0.187,0.918,338.44,-36.744,-113.709,
00:00:09:366,-0.099,-0.178,0.919,370.117,-22.95,-111.573,
00:00:09:383,-0.091,-0.203,0.909,366.943,14.099,-117.31,
00:00:09:400,-0.079,-0.232,0.893,360.962,18.615,-123.78,
00:00:09:416,-0.075,-0.267,0.896,351.562,25.207,-132.386,
00:00:09:433,-0.086,-0.301,0.899,330.444,35.522,-135.926,
00:00:09:450,-0.073,-0.327,0.94,265.991,44.25,-148.316,
00:00:09:466,-0.059,-0.339,0.954,175.659,56.396,-152.1,
00:00:09:483,-0.043,-0.316,0.956,97.595,55.664,-149.353,
00:00:09:500,-0.051,-0.294,0.952,69.091,46.63,-148.499,
00:00:09:516,-0.045,-0.308,0.953,52.673,45.593,-135.071,
00:00:09:533,-0.032,-0.288,0.95,38.147,61.767,-120.972,
00:00:09:550,-0.016,-0.289,0.947,56.213,73.73,-116.883,
00:00:09:566,-0.015,-0.308,0.961,71.716,76.843,-102.967,
00:00:09:583,-0.001,-0.316,0.986,69.213,80.566,-90.638,
00:00:09:600,0.01,-0.331,1.002,25.329,78.796,-73.67,
00:00:09:616,0.029,-0.306,1.006,-22.95,78.247,-50.904,
00:00:09:633,0.045,-0.278,1.004,-50.049,69.397,-22.095,
00:00:09:650,0.046,-0.258,0.984,-64.393,70.678,-4.883,
00:00:09:666,0.06,-0.279,0.951,-86.853,78.186,10.925,
00:00:09:683,0.067,-0.315,0.957,-141.724,76.721,46.691,
00:00:09:700,0.068,-0.307,0.992,-259.583,95.642,63.659,
00:00:09:716,0.095,-0.261,1.026,-329.834,100.463,81.42,
00:00:09:733,0.131,-0.208,1.037,-315.186,105.468,111.511,
00:00:09:750,0.185,-0.192,1.048,-235.718,88.073,128.906,
00:00:09:766,0.158,-0.215,1.035,-174.256,74.218,146.545,
00:00:09:783,0.184,-0.267,1.041,-168.274,45.044,153.381,
00:00:09:800,0.199,-0.315,1.059,-251.343,30.456,154.419,
00:00:09:816,0.207,-0.307,1.034,-356.08,26.611,165.039,
00:00:09:833,0.208,-0.26,1.036,-398.316,21.667,169.25,
00:00:09:850,0.207,-0.225,1.023,-374.39,10.009,160.095,
00:00:09:866,0.201,-0.233,1.019,-344.178,6.347,144.653,
00:00:09:883,0.203,-0.235,1.019,-334.534,16.723,135.498,
00:00:09:900,0.186,-0.215,1.018,-312.195,28.015,128.967,
00:00:09:916,0.189,-0.199,1.029,-269.898,22.644,118.469,
00:00:09:933,0.185,-0.191,1.028,-218.811,17.883,108.764,
00:00:09:950,0.173,-0.196,1.04,-169.434,0.732,90.82,
00:00:09:966,0.143,-0.208,1.026,-150.452,-0.367,72.204,
00:00:09:983,0.125,-0.204,1.018,-149.903,3.601,58.532,
00:00:10:0,0.103,-0.175,1.016,-137.635,2.136,54.26,
00:00:10:16,0.093,-0.162,1.013,-79.407,-7.508,44.555,
00:00:10:33,0.094,-0.154,1.028,-65.003,-13.245,39.123,
00:00:10:50,0.074,-0.157,1.008,-31.128,-24.476,29.907,
00:00:10:66,0.064,-0.17,1.026,-2.747,-38.636,18.127,
00:00:10:83,0.048,-0.16,1.029,-9.522,-36.866,6.897,
00:00:10:100,0.035,-0.172,1.019,4.638,-48.462,-10.987,
00:00:10:116,0.017,-0.156,1.015,7.568,-48.706,-13.184,
00:00:10:133,-0.006,-0.178,1.045,60.974,-63.05,-38.025,
00:00:10:150,-0.068,-0.242,1.118,151.855,-104.737,-66.407,
00:00:10:166,-0.05,-0.23,0.974,76.11,-70.496,-60.181,
00:00:10:183,0.01,-0.102,0.934,24.231,-59.876,-66.346,
00:00:10:200,0.004,-0.091,0.947,75.256,-69.825,-90.455,
00:00:10:216,-0.054,-0.167,1.008,125.976,-85.694,-94.91,
00:00:10:233,-0.086,-0.158,0.998,92.712,-66.773,-95.704,
00:00:10:250,-0.064,-0.12,0.972,49.987,-51.697,-100.464,
00:00:10:266,-0.06,-0.098,0.964,97.106,-59.632,-104.248,
00:00:10:283,-0.091,-0.123,0.977,150.268,-64.454,-102.784,
00:00:10:300,-0.097,-0.123,0.978,182.556,-58.777,-100.953,
00:00:10:316,-0.094,-0.118,0.945,250.305,-55.298,-94.117,
00:00:10:333,-0.104,-0.138,0.923,344.604,-51.27,-93.201,
00:00:10:350,-0.107,-0.201,0.912,386.963,-43.213,-105.774,
00:00:10:366,-0.094,-0.26,0.912,343.078,-25.452,-119.019,
00:00:10:383,-0.079,-0.285,0.926,264.343,-17.151,-134.888,
00:00:10:400,-0.068,-0.282,0.936,190.246,-8.545,-143.25,
00:00:10:416,-0.074,-0.257,0.928,180.847,0.427,-149.109,
00:00:10:433,-0.077,-0.246,0.938,228.82,8.056,-153.687,
00:00:10:450,-0.052,-0.305,0.944,225.219,38.33,-165.406,
00:00:10:466,-0.044,-0.308,0.954,202.27,40.222,-167.908,
00:00:10:483,-0.039,-0.31,0.95,182.129,48.034,-164.734,
00:00:10:500,-0.033,-0.315,0.941,176.818,51.269,-167.298,
00:00:10:516,-0.017,-0.326,0.959,36.621,67.688,-137.94,
00:00:10:533,-0.008,-0.295,0.965,14.038,70.007,-121.582,
00:00:10:550,-0.009,-0.285,0.956,27.893,74.279,-106.751,
00:00:10:566,-0.001,-0.286,0.965,41.503,75.988,-88.929,
00:00:10:583,0.002,-0.287,0.956,26.489,86.608,-64.637,
00:00:10:600,0.003,-0.278,0.959,22.827,92.59,-40.345,
00:00:10:616,0.015,-0.283,0.97,24.475,89.538,-17.456,
00:00:10:633,0.038,-0.301,0.968,9.277,86.731,3.112,
00:00:10:650,0.057,-0.323,0.965,-18.494,88.317,19.836,
00:00:10:666,0.06,-0.349,1,-52.063,73.852,39.062,
00:00:10:683,0.066,-0.355,1.035,-115.174,59.814,48.828,
00:00:10:700,0.083,-0.294,0.998,-166.016,68.908,82.214,
00:00:10:716,0.104,-0.264,1.006,-104.248,44.799,90.21,
00:00:10:733,0.103,-0.316,1.014,-47.425,24.292,94.97,
00:00:10:750,0.117,-0.355,1.004,-75.196,14.648,106.933,
00:00:10:766,0.147,-0.346,1.005,-156.739,2.136,118.957,
00:00:10:783,0.147,-0.341,0.997,-192.2,-0.672,125,
00:00:10:800,0.151,-0.325,0.978,-234.681,2.807,132.69,
00:00:10:816,0.164,-0.323,0.977,-280.701,-8.057,130.249,
00:00:10:833,0.164,-0.371,0.974,-400.452,-17.456,121.276,
00:00:10:850,0.162,-0.37,0.986,-550.721,-3.663,119.018,
00:00:10:866,0.163,-0.302,0.994,-654.053,10.253,119.201,
00:00:10:883,0.166,-0.243,1.002,-661.377,13.122,107.727,
00:00:10:900,0.161,-0.181,1,-627.869,19.043,99.853,
00:00:10:916,0.167,-0.164,0.996,-543.885,16.418,75.561,
00:00:10:933,0.156,-0.145,1.024,-461.792,15.258,70.556,
00:00:10:950,0.133,-0.12,1.016,-352.417,23.62,61.645,
00:00:10:966,0.117,-0.083,1.029,-220.643,24.475,54.199,
00:00:10:983,0.103,-0.087,1.015,-83.374,21.728,47.912,
00:00:11:0,0.088,-0.136,1.036,28.991,0.183,44.067,
00:00:11:16,0.072,-0.187,1.028,43.212,-3.907,26.916,
00:00:11:33,0.057,-0.201,1.025,16.174,-11.17,14.282,
00:00:11:50,0.031,-0.177,1.009,-53.406,-15.809,-11.963,
00:00:11:66,0.025,-0.15,1.002,-59.876,-17.762,-27.1,
00:00:11:83,0.024,-0.136,1.002,-30.274,-24.598,-41.871,
00:00:11:100,0.018,-0.133,0.998,0.854,-25.025,-52.063,
00:00:11:116,0.018,-0.14,1.015,31.311,-31.617,-67.444,
00:00:11:133,0.015,-0.16,1.018,35.888,-41.199,-79.468,
00:00:11:150,0.011,-0.155,1.024,23.62,-48.584,-88.196,
00:00:11:166,0.002,-0.15,1.034,35.888,-57.618,-100.342,
00:00:11:183,-0.018,-0.145,1.017,65.49,-66.59,-111.817,
00:00:11:200,-0.03,-0.132,1.021,86.853,-70.252,-117.432,
00:00:11:216,-0.046,-0.132,0.998,115.051,-68.543,-125.855,
00:00:11:233,-0.056,-0.116,1.003,171.142,-65.857,-128.296,
00:00:11:250,-0.065,-0.134,0.986,226.074,-66.59,-135.743,
00:00:11:266,-0.073,-0.159,0.985,266.052,-62.378,-140.503,
00:00:11:283,-0.083,-0.176,0.975,288.513,-58.167,-149.292,
00:00:11:300,-0.095,-0.18,0.963,289.978,-48.829,-152.283,
00:00:11:316,-0.102,-0.169,0.947,298.034,-34.302,-158.265,
00:00:11:333,-0.105,-0.168,0.939,321.35,-27.71,-164.612,
00:00:11:350,-0.11,-0.179,0.922,348.693,-13.977,-163.758,
00:00:11:366,-0.104,-0.18,0.908,364.99,2.319,-156.189,
00:00:11:383,-0.108,-0.192,0.882,402.16,15.502,-153.626,
00:00:11:400,-0.115,-0.221,0.892,419.86,29.907,-151.551,
00:00:11:416,-0.105,-0.256,0.893,396.423,42.846,-150.147,
00:00:11:433,-0.086,-0.287,0.909,349.731,53.039,-146.241,
00:00:11:450,-0.066,-0.326,0.931,292.785,52.673,-149.414,
00:00:11:466,-0.06,-0.354,0.971,214.477,45.776,-141.724,
00:00:11:483,-0.051,-0.349,0.978,140.564,47.607,-133.728,
00:00:11:500,-0.042,-0.339,0.986,85.388,38.818,-126.77,
00:00:11:516,-0.041,-0.337,0.967,62.072,37.902,-123.291,
00:00:11:533,-0.025,-0.33,0.96,35.766,42.297,-117.493,
00:00:11:550,-0.028,-0.318,0.951,26.062,45.898,-106.69,
00:00:11:566,-0.024,-0.306,0.936,25.512,64.88,-95.459,
00:00:11:583,-0.026,-0.307,0.959,33.02,70.983,-78.309,
00:00:11:600,-0.01,-0.319,0.967,46.814,62.927,-64.637,
00:00:11:616,0.013,-0.317,0.978,36.743,80.261,-44.861,
00:00:11:633,0.028,-0.314,0.969,47.119,88.317,-29.48,
00:00:11:650,0.038,-0.331,0.952,60.73,87.585,-21.302,
00:00:11:666,0.032,-0.355,0.937,54.077,98.449,-7.691,
00:00:11:683,0.031,-0.402,0.971,-6.897,104.248,9.46,
00:00:11:700,0.034,-0.361,0.996,-84.29,108.703,28.503,
00:00:11:716,0.031,-0.306,0.987,-142.762,114.196,53.833,
00:00:11:733,0.076,-0.273,0.964,-124.512,111.511,73.73,
00:00:11:750,0.081,-0.3,0.943,-94.727,101.867,86.547,
00:00:11:766,0.085,-0.335,0.938,-119.873,101.623,103.759,
00:00:11:783,0.099,-0.352,0.963,-215.577,97.412,124.267,
00:00:11:800,0.127,-0.353,0.993,-313.416,89.782,136.84,
00:00:11:816,0.156,-0.327,0.996,-395.997,82.58,143.859,
00:00:11:833,0.182,-0.301,1.004,-413.331,61.706,143.615,
00:00:11:850,0.189,-0.3,1.02,-411.866,39.062,140.93,
00:00:11:866,0.195,-0.33,1.041,-440.552,19.531,131.408,
00:00:11:883,0.202,-0.345,1.027,-520.63,10.315,123.291,
00:00:11:900,0.203,-0.297,1.019,-594.544,17.639,122.009,
00:00:11:916,0.19,-0.207,1.016,-574.219,20.813,118.347,
00:00:11:933,0.186,-0.169,1.016,-481.08,12.817,99.121,
00:00:11:950,0.179,-0.154,1.012,-394.349,18.859,92.041,
00:00:11:966,0.173,-0.157,1.024,-284.119,17.822,79.162,
00:00:11:983,0.169,-0.143,1.035,-197.571,23.132,74.951,
00:00:12:0,0.159,-0.15,1.02,-115.296,20.69,61.889,
00:00:12:16,0.155,-0.165,1.034,-45.289,10.009,50.354,
00:00:12:33,0.139,-0.21,1.033,-17.518,-4.517,31.25,
00:00:12:50,0.12,-0.215,1.043,-56.458,-11.658,24.292,
00:00:12:66,0.114,-0.199,1.036,-80.933,-21.607,12.39,
00:00:12:83,0.099,-0.178,1.029,-96.924,-30.823,2.014,
00:00:12:100,0.081,-0.148,1.032,-88.807,-39.246,-4.212,
00:00:12:116,0.075,-0.147,1.019,-58.777,-44.251,-21.241,
00:00:12:133,0.065,-0.15,1.026,-44.617,-51.575,-28.016,
00:00:12:150,0.053,-0.149,1.036,-31.189,-52.491,-38.208,
00:00:12:166,0.045,-0.156,1.034,-13.367,-69.153,-49.134,
00:00:12:183,0.027,-0.156,1.034,-17.884,-67.933,-51.758,
00:00:12:200,0.007,-0.146,1.039,5.065,-73.304,-58.289,
00:00:12:216,-0.004,-0.136,1.036,25.024,-81.055,-61.768,
00:00:12:233,-0.01,-0.128,1.022,33.813,-85.083,-66.59,
00:00:12:250,-0.021,-0.142,1.016,64.148,-89.783,-80.567,
00:00:12:266,-0.037,-0.121,0.993,74.462,-80.872,-83.069,
00:00:12:283,-0.039,-0.117,0.984,107.422,-85.144,-102.662,
00:00:12:300,-0.043,-0.088,0.976,131.897,-71.717,-106.446,
00:00:12:316,-0.049,-0.085,0.955,186.401,-66.895,-106.507,
00:00:12:333,-0.062,-0.106,0.939,267.761,-63.721,-103.638,
00:00:12:350,-0.061,-0.104,0.945,311.096,-60.12,-96.802,
00:00:12:366,-0.064,-0.112,0.932,371.46,-53.223,-92.469,
00:00:12:383,-0.07,-0.144,0.94,431.396,-57.373,-93.995,
00:00:12:400,-0.074,-0.183,0.899,458.13,-41.626,-92.53,
00:00:12:416,-0.077,-0.204,0.888,461.364,-29.541,-90.943,
00:00:12:433,-0.07,-0.221,0.855,456.97,-5.86,-102.234,
00:00:12:450,-0.07,-0.25,0.833,459.838,15.991,-105.835,
00:00:12:466,-0.059,-0.276,0.822,442.688,45.349,-116.089,
00:00:12:483,-0.058,-0.312,0.839,411.438,61.706,-121.094,
00:00:12:500,-0.059,-0.364,0.901,369.812,67.321,-126.831,mixLH
00:00:12:516,-0.033,-0.39,0.938,283.02,82.763,-127.991,
00:00:12:533,-0.007,-0.383,0.958,204.284,72.387,-123.963,
00:00:12:550,-0.006,-0.372,0.951,168.945,66.833,-124.878,
00:00:12:566,-0.002,-0.372,0.954,151.55,52.734,-123.78,
00:00:12:583,0,-0.395,0.947,136.657,50.72,-130.433,
00:00:12:600,0.002,-0.395,0.937,95.764,57.19,-126.099,
00:00:12:616,0.004,-0.386,0.918,49.133,67.627,-122.864,
00:00:12:633,-0.005,-0.379,0.9,23.315,78.918,-116.272,
00:00:12:650,-0.009,-0.359,0.92,0.976,89.355,-98.023,
00:00:12:666,-0.003,-0.346,0.944,12.512,105.102,-83.985,
00:00:12:683,0.025,-0.353,0.983,41.076,105.346,-78.492,
00:00:12:700,0.056,-0.366,0.98,35.766,103.82,-65.491,
00:00:12:716,0.06,-0.364,0.951,25.146,100.586,-47.12,
00:00:12:733,0.062,-0.368,0.919,5.004,94.97,-36.194,
00:00:12:750,0.059,-0.417,0.931,-43.396,78.43,-23.865,
00:00:12:766,0.067,-0.436,0.973,-136.963,93.322,-10.987,
00:00:12:783,0.126,-0.322,0.962,-275.818,109.863,16.906,
00:00:12:800,0.124,-0.32,0.964,-208.008,97.351,20.874,
00:00:12:816,0.111,-0.314,0.982,-200.013,98.327,38.94,
00:00:12:833,0.125,-0.335,1.002,-224.305,99.121,52.307,
00:00:12:850,0.14,-0.32,1.008,-260.621,95.153,69.519,
00:00:12:866,0.157,-0.29,1.003,-286.011,86.181,87.707,
00:00:12:883,0.159,-0.281,0.984,-257.447,75.622,96.923,
00:00:12:900,0.173,-0.375,1.018,-438.721,16.357,101.623,
00:00:12:916,0.182,-0.346,1.013,-606.08,19.775,100.158,
00:00:12:933,0.191,-0.286,1.009,-675.293,9.704,99.182,
00:00:12:950,0.192,-0.23,1.026,-677.002,-1.16,92.895,
00:00:12:966,0.181,-0.219,1.02,-663.941,-2.015,69.519,
00:00:12:983,0.178,-0.202,1.041,-656.189,0.183,59.997,
00:00:13:0,0.167,-0.154,1.045,-638.001,8.911,62.011,
00:00:13:16,0.165,-0.113,1.057,-587.769,1.831,50.354,
00:00:13:33,0.164,-0.082,1.076,-489.197,-12.635,44.494,
00:00:13:50,0.144,-0.036,1.076,-376.038,-18.433,46.814,
00:00:13:66,0.133,0.003,1.047,-257.264,-24.537,43.335,
00:00:13:83,0.126,-0.012,1.037,-148.56,-28.931,26.489,
00:00:13:100,0.097,-0.023,1.041,-79.834,-33.753,34.912,
00:00:13:116,0.083,-0.034,1.032,-20.447,-34.607,29.541,
00:00:13:133,0.084,-0.073,1.026,32.592,-41.932,23.132,
00:00:13:150,0.076,-0.107,1.026,54.504,-52.002,9.033,
00:00:13:166,0.061,-0.095,1.018,31.616,-50.538,2.38,
00:00:13:183,0.059,-0.082,1.004,1.953,-48.462,-16.48,
00:00:13:200,0.046,-0.079,1.008,0.244,-58.228,-25.025,
00:00:13:216,0.036,-0.064,1.027,17.517,-62.989,-33.081,
00:00:13:233,0.042,-0.055,1.01,47.729,-71.778,-42.298,
00:00:13:250,0.043,-0.06,1.01,107.055,-78.37,-51.941,
00:00:13:266,0.024,-0.083,1.02,143.249,-87.464,-61.524,
00:00:13:283,0.002,-0.091,1.016,144.897,-86.792,-68.665,
00:00:13:300,-0.005,-0.089,0.993,144.409,-81.055,-80.384,
00:00:13:316,-0.011,-0.084,0.987,154.48,-81.421,-85.45,
00:00:13:333,-0.023,-0.073,0.977,175.293,-63.416,-92.469,
00:00:13:350,-0.037,-0.07,0.977,215.21,-69.397,-96.314,
00:00:13:366,-0.055,-0.08,0.973,267.578,-55.237,-96.131,
00:00:13:383,-0.058,-0.115,0.956,307.983,-54.017,-103.638,
00:00:13:400,-0.071,-0.155,0.962,321.411,-47.608,-115.296,
00:00:13:416,-0.07,-0.18,0.955,295.593,-40.162,-128.724,
00:00:13:433,-0.054,-0.169,0.943,256.164,-27.894,-138.184,
00:00:13:450,-0.053,-0.148,0.931,255.493,-21.668,-148.316,
00:00:13:466,-0.067,-0.134,0.914,299.865,-12.146,-147.339,
00:00:13:483,-0.074,-0.138,0.904,352.539,7.568,-148.804,
00:00:13:500,-0.068,-0.148,0.894,385.254,26.062,-142.701,
00:00:13:516,-0.064,-0.175,0.903,405.944,33.447,-146.18,
00:00:13:533,-0.058,-0.205,0.914,399.17,42.968,-139.161,
00:00:13:550,-0.045,-0.233,0.922,374.206,53.833,-133.24,
00:00:13:566,-0.035,-0.267,0.936,341.919,52.429,-132.142,
00:00:13:583,-0.031,-0.294,0.949,282.043,57.617,-123.719,
00:00:13:600,-0.032,-0.316,0.96,218.444,54.504,-113.77,
00:00:13:616,-0.021,-0.317,0.945,154.419,62.988,-106.934,
00:00:13:633,-0.008,-0.305,0.911,118.164,72.143,-96.009,
00:00:13:650,-0.008,-0.313,0.895,109.924,83.923,-93.323,
00:00:13:666,-0.022,-0.33,0.868,94.787,109.802,-88.685,
00:00:13:683,-0.013,-0.329,0.919,59.57,122.619,-78.553,
00:00:13:700,0.006,-0.339,0.963,17.211,143.066,-73.67,
00:00:13:716,0.039,-0.322,0.982,-51.758,154.968,-59.082,
00:00:13:733,0.091,-0.286,0.988,-96.68,158.081,-42.054,
00:00:13:750,0.07,-0.269,0.968,-114.319,158.02,-22.522,
00:00:13:766,0.079,-0.283,0.99,-134.095,142.761,-5.677,
00:00:13:783,0.09,-0.294,1.03,-199.646,130.554,8.606,
00:00:13:800,0.112,-0.295,1.049,-294.251,126.831,32.714,
00:00:13:816,0.138,-0.263,1.037,-341.004,119.079,53.1,
00:00:13:833,0.157,-0.202,1.04,-326.233,107.849,72.204,
00:00:13:850,0.165,-0.203,1.032,-239.685,96.069,75.927,
00:00:13:866,0.176,-0.227,1.067,-196.473,79.223,92.712,
00:00:13:883,0.177,-0.257,1.092,-235.84,64.148,105.774,
00:00:13:900,0.19,-0.251,1.088,-307.312,56.884,118.896,
00:00:13:916,0.209,-0.227,1.064,-357.483,36.926,133.667,
00:00:13:933,0.215,-0.201,1.038,-372.559,17.944,137.085,
00:00:13:950,0.211,-0.21,1.023,-373.108,-1.893,138.061,
00:00:13:966,0.195,-0.155,0.993,-515.625,13.916,143.615,
00:00:13:983,0.205,-0.115,0.987,-488.648,23.925,146.484,
00:00:14:0,0.204,-0.086,0.998,-420.35,21.484,142.578,
00:00:14:16,0.2,-0.067,1,-336.976,24.475,136.23,
00:00:14:33,0.207,-0.08,1.014,-229.187,14.221,116.943,
00:00:14:50,0.202,-0.098,1.032,-167.359,4.394,109.13,
00:00:14:66,0.184,-0.113,1.013,-106.812,2.868,91.491,
00:00:14:83,0.168,-0.124,1.009,-52.979,-3.052,81.298,
00:00:14:100,0.162,-0.146,1.033,-47.486,-16.602,57.922,
00:00:14:116,0.144,-0.135,1.014,-81.849,-7.691,42.419,
00:00:14:133,0.139,-0.116,1.002,-93.811,-13.916,23.681,
00:00:14:150,0.128,-0.1,1.002,-128.418,-12.024,11.596,
00:00:14:166,0.124,-0.077,1.006,-153.016,-13.306,-6.287,
00:00:14:183,0.121,-0.057,1.018,-142.212,-16.114,-13.306,
00:00:14:200,0.11,-0.04,1.01,-109.681,-25.757,-22.644,
00:00:14:216,0.103,-0.031,1.015,-81.665,-34.79,-27.222,
00:00:14:233,0.081,-0.043,1.021,-47.303,-42.786,-33.143,
00:00:14:250,0.083,-0.047,1.042,-51.575,-57.129,-36.622,
00:00:14:266,0.09,-0.037,1.069,-64.576,-76.111,-45.105,
00:00:14:283,0.096,-0.028,1.08,-79.041,-111.451,-56.824,
00:00:14:300,0.062,-0.026,1.073,-90.699,-124.207,-69.703,
00:00:14:316,0.007,-0.011,1.035,-59.632,-117.676,-66.04,
00:00:14:333,-0.008,0.005,1.023,38.452,-121.277,-62.134,
00:00:14:350,-0.034,-0.034,1.031,196.35,-148.316,-83.374,
00:00:14:366,-0.049,-0.037,1.022,136.963,-148.499,-96.558,
00:00:14:383,-0.075,-0.02,1.001,96.74,-141.846,-99.61,
00:00:14:400,-0.09,0.01,0.972,127.563,-125,-92.041,
00:00:14:416,-0.098,0.037,0.93,244.69,-101.197,-82.398,
00:00:14:433,-0.1,-0.049,0.842,656.067,-15.87,-85.144,
00:00:14:450,-0.058,-0.119,0.787,745.178,27.16,-92.591,
00:00:14:466,-0.064,-0.185,0.794,799.926,49.438,-102.173,
00:00:14:483,-0.048,-0.262,0.788,794.799,96.374,-127.869,
00:00:14:500,-0.015,-0.342,0.819,714.294,101.928,-130.31,
00:00:14:516,-0.005,-0.382,0.886,564.941,106.323,-122.132,
00:00:14:533,0,-0.39,0.918,396.728,113.769,-114.258,
00:00:14:550,0.028,-0.381,0.978,60.119,55.114,-123.047,
00:00:14:566,0.026,-0.343,0.993,-8.24,36.926,-119.873,
00:00:14:583,0.007,-0.308,0.989,-26.734,31.799,-115.357,
00:00:14:600,0.008,-0.31,0.983,-18.738,27.893,-115.418,
00:00:14:616,0.004,-0.293,0.948,10.62,36.315,-111.329,
00:00:14:633,0.008,-0.3,0.962,32.592,35.034,-95.093,
00:00:14:650,0.007,-0.313,0.95,-18.921,50.964,-83.558,
00:00:14:666,0.018,-0.31,0.962,-81.727,55.969,-64.637,
00:00:14:683,0.026,-0.282,0.966,-135.437,72.326,-43.091,
00:00:14:700,0.049,-0.255,0.97,-151.49,82.519,-27.466,
00:00:14:716,0.067,-0.228,0.96,-153.748,93.139,-5.188,
00:00:14:733,0.093,-0.256,1.019,-195.069,89.904,60.241,
00:00:14:750,0.121,-0.229,1.013,-221.68,84.35,83.129,
00:00:14:766,0.155,-0.22,1.002,-197.449,73.791,91.735,
00:00:14:783,0.173,-0.251,1.023,-195.74,38.94,102.295,
00:00:14:800,0.166,-0.305,1.049,-234.498,29.48,103.637,
00:00:14:816,0.183,-0.323,1.058,-342.957,31.982,102.05,
00:00:14:833,0.195,-0.273,1.066,-420.472,28.381,121.338,
00:00:14:850,0.197,-0.23,1.06,-450.623,13.244,117.553,
00:00:14:866,0.209,-0.198,1.038,-455.445,0.244,121.46,
00:00:14:883,0.204,-0.202,1.02,-450.501,-14.039,113.952,
00:00:14:900,0.184,-0.21,1.04,-479.126,-14.161,106.628,
00:00:14:916,0.175,-0.205,1.049,-522.156,-5.921,102.661,
00:00:14:933,0.187,-0.156,1.056,-538.697,7.202,98.022,
00:00:14:950,0.203,-0.078,1.044,-456.299,3.112,96.252,
00:00:14:966,0.197,-0.051,1.045,-343.506,-10.621,77.697,
00:00:14:983,0.137,-0.125,1.064,-155.03,-37.476,52.185,
00:00:15:0,0.12,-0.123,1.034,-161.072,-29.297,37.78,
00:00:15:16,0.103,-0.096,1.02,-168.58,-27.405,33.386,
00:00:15:33,0.089,-0.058,1.014,-135.926,-36.438,29.846,
00:00:15:50,0.069,-0.068,1.035,-84.9,-43.824,10.681,
00:00:15:66,0.054,-0.089,1.012,-66.468,-44.983,3.234,
00:00:15:83,0.049,-0.097,1.023,-85.022,-47.669,-9.4,
00:00:15:100,0.032,-0.097,1.017,-105.042,-44.434,-21.546,
00:00:15:116,0.033,-0.066,1.005,-118.775,-34.424,-24.964,
00:00:15:133,0.033,-0.056,1.003,-103.089,-38.269,-41.748,
00:00:15:150,0.028,-0.046,1.017,-73.243,-47.425,-44.678,
00:00:15:166,0.026,-0.023,1.012,-70.618,-60.547,-45.777,
00:00:15:183,0.023,-0.031,1.023,-45.472,-75.867,-69.397,
00:00:15:200,-0.003,-0.014,1.001,12.207,-68.482,-63.843,
00:00:15:216,-0.011,-0.003,1.029,112.671,-75.501,-65.857,
00:00:15:233,-0.024,-0.021,1.022,167.541,-76.539,-72.693,
00:00:15:250,-0.028,-0.052,1.03,179.138,-83.13,-84.778,
00:00:15:266,-0.034,-0.058,1.04,149.902,-96.802,-87.281,
00:00:15:283,-0.094,-0.032,1.004,150.085,-96.009,-78.919,
00:00:15:300,-0.063,0,0.996,260.376,-96.07,-70.435,
00:00:15:316,-0.074,-0.002,0.968,368.042,-96.497,-64.331,
00:00:15:333,-0.084,-0.032,0.947,444.152,-92.225,-69.886,
00:00:15:350,-0.08,-0.036,0.895,504.455,-71.839,-53.528,
00:00:15:366,-0.086,-0.054,0.868,576.477,-59.205,-62.928,
00:00:15:383,-0.103,-0.088,0.849,645.691,-23.682,-57.251,
00:00:15:400,-0.081,-0.142,0.818,713.562,7.141,-70.435,
00:00:15:416,-0.075,-0.204,0.811,728.637,31.127,-71.289,
00:00:15:433,-0.066,-0.283,0.796,658.508,62.255,-84.839,
00:00:15:450,-0.05,-0.323,0.817,568.542,75.988,-75.074,
00:00:15:466,-0.051,-0.352,0.828,466.98,100.769,-76.6,
00:00:15:483,-0.04,-0.372,0.895,380.31,98.083,-82.154,
00:00:15:500,-0.038,-0.388,0.943,270.813,109.68,-88.379,
00:00:15:516,-0.011,-0.383,0.952,171.386,120.849,-90.943,
00:00:15:533,0.003,-0.359,0.931,103.271,124.45,-82.032,
00:00:15:550,-0.009,-0.374,0.959,72.876,122.497,-88.013,
00:00:15:566,-0.003,-0.382,1.008,16.113,128.662,-80.506,
00:00:15:583,0.022,-0.357,1.019,-28.199,134.582,-74.402,
00:00:15:600,0.053,-0.316,1.025,-35.279,122.375,-61.341,
00:00:15:616,0.059,-0.312,0.997,10.009,109.802,-61.524,
00:00:15:633,0.062,-0.35,1.02,56.945,88.195,-57.19,
00:00:15:650,0.062,-0.38,1.031,36.804,77.331,-47.73,
00:00:15:666,0.076,-0.389,1.035,-33.265,65.856,-42.664,
00:00:15:683,0.084,-0.357,1.005,-86.914,70.251,-27.649,
00:00:15:700,0.092,-0.32,0.964,-83.863,67.688,-18.86,
00:00:15:716,0.093,-0.328,0.929,-49.744,66.162,-11.475,
00:00:15:733,0.088,-0.372,0.944,-80.933,60.302,-4.273,
00:00:15:750,0.086,-0.38,0.965,-212.403,69.458,11.23,
00:00:15:766,0.103,-0.351,0.957,-322.083,81.42,28.381,
00:00:15:783,0.133,-0.309,0.986,-391.724,82.946,43.579,
00:00:15:800,0.159,-0.293,1.004,-425.782,63.598,50.842,
00:00:15:816,0.177,-0.288,1.034,-497.986,45.776,76.965,
00:00:15:833,0.194,-0.269,1.02,-592.408,36.132,72.937,
00:00:15:850,0.214,-0.245,1.029,-656.25,18.127,79.834,
00:00:15:866,0.207,-0.215,1.022,-697.266,9.216,91.735,
00:00:15:883,0.203,-0.165,1.041,-692.261,10.62,95.398,
00:00:15:900,0.206,-0.098,1.044,-640.625,15.747,110.534,
00:00:15:916,0.219,-0.052,1.045,-495.728,13.794,108.154,
00:00:15:933,0.223,-0.056,1.054,-342.652,-3.296,104.675,
00:00:15:950,0.206,-0.08,1.064,-212.281,-10.987,102.417,
00:00:15:966,0.187,-0.119,1.083,-112.244,-18.311,97.534,
00:00:15:983,0.172,-0.139,1.075,-62.195,-32.349,95.031,
00:00:16:0,0.163,-0.155,1.054,-45.227,-39.734,80.017,
00:00:16:16,0.137,-0.161,1.046,-55.359,-48.829,67.382,
00:00:16:33,0.109,-0.178,1.037,-77.149,-58.716,49.133,
00:00:16:50,0.091,-0.152,1.024,-111.329,-54.261,40.771,
00:00:16:66,0.074,-0.124,1.035,-118.287,-52.857,20.69,
00:00:16:83,0.063,-0.126,1.032,-106.446,-57.373,6.774,
00:00:16:100,0.049,-0.107,1.021,-96.985,-60.914,2.99,
00:00:16:116,0.038,-0.088,1.019,-81.177,-70.618,-8.545,
00:00:16:133,0.027,-0.087,1.02,-56.397,-80.018,-22.034,
00:00:16:150,0.013,-0.063,0.979,-50.782,-79.224,-23.743,
00:00:16:166,-0.02,-0.097,1.077,37.292,-120.484,-55.42,
00:00:16:183,-0.052,-0.078,0.966,91.308,-75.379,-30.274,
00:00:16:200,0.011,-0.055,0.963,128.112,-77.332,-41.748,
00:00:16:216,0.008,-0.079,0.982,154.113,-98.572,-60.242,
00:00:16:233,-0.029,-0.137,1.001,117.92,-105.408,-76.416,
00:00:16:250,-0.03,-0.122,1.008,-1.282,-94.361,-90.21,
00:00:16:266,-0.053,-0.083,0.975,-24.476,-91.675,-94.178,
00:00:16:283,-0.079,-0.062,0.989,56.884,-101.807,-97.474,
00:00:16:300,-0.083,-0.038,0.996,173.95,-106.629,-84.839,
00:00:16:316,-0.089,-0.048,0.987,263.549,-113.282,-92.835,
00:00:16:333,-0.094,-0.061,0.973,331.665,-108.826,-88.379,
00:00:16:350,-0.096,-0.098,0.946,385.315,-106.812,-100.464,
00:00:16:366,-0.105,-0.121,0.932,420.288,-96.924,-97.29,
00:00:16:383,-0.121,-0.141,0.869,440.796,-60.852,-101.319,
00:00:16:400,-0.117,-0.159,0.848,488.647,-29.175,-107.544,
00:00:16:416,-0.108,-0.187,0.827,554.992,12.634,-106.568,
00:00:16:433,-0.092,-0.234,0.833,564.27,34.301,-123.597,
00:00:16:450,-0.078,-0.3,0.861,507.873,54.199,-134.217,
00:00:16:466,-0.061,-0.354,0.895,415.771,62.805,-139.344,
00:00:16:483,-0.041,-0.381,0.933,306.701,68.115,-140.87,
00:00:16:500,-0.038,-0.375,0.964,188.72,75.805,-137.024,
00:00:16:516,-0.028,-0.345,0.947,100.769,73.364,-142.273,mixLH
00:00:16:533,-0.022,-0.308,0.935,62.805,65.856,-138.306,
00:00:16:550,-0.025,-0.305,0.944,53.1,58.593,-138.977,
00:00:16:566,-0.031,-0.308,0.945,40.161,61.34,-130.127,
00:00:16:583,-0.027,-0.299,0.948,8.911,70.983,-115.662,
00:00:16:600,-0.009,-0.287,0.947,-0.733,85.571,-107.789,
00:00:16:616,-0.005,-0.287,0.953,2.624,97.106,-94.117,
00:00:16:633,-0.006,-0.284,0.959,12.634,106.14,-80.201,
00:00:16:650,0.004,-0.296,0.96,-15.076,120.178,-68.299,
00:00:16:667,0.019,-0.31,0.965,-61.341,128.112,-46.692,
00:00:16:683,0.031,-0.315,0.981,-113.77,129.638,-36.133,
00:00:16:700,0.043,-0.306,0.986,-158.143,109.558,-18.433,
00:00:16:717,0.053,-0.298,1.007,-199.524,117.492,-11.109,
00:00:16:733,0.058,-0.293,1.012,-240.967,112.793,-0.306,
00:00:16:750,0.07,-0.271,1.032,-273.804,104.614,15.319,
00:00:16:767,0.086,-0.261,1.042,-282.837,89.294,30.822,
00:00:16:783,0.111,-0.264,1.089,-322.693,59.021,40.649,
00:00:16:800,0.131,-0.275,1.076,-401.246,51.208,47.302,
00:00:16:817,0.149,-0.253,1.052,-481.202,47.546,55.236,
00:00:16:833,0.165,-0.21,1.073,-560.73,40.344,67.932,
00:00:16:850,0.16,-0.184,1.059,-610.962,39.489,68.237,
00:00:16:867,0.173,-0.145,1.062,-638.916,36.987,84.533,
00:00:16:883,0.183,-0.096,1.052,-604.126,35.4,97.595,
00:00:16:900,0.184,-0.053,1.061,-533.02,26.672,104.919,
00:00:16:917,0.179,-0.035,1.046,-435.364,29.602,110.839,
00:00:16:933,0.188,-0.019,1.053,-340.699,19.226,115.051,
00:00:16:950,0.182,-0.047,1.054,-235.169,10.559,109.558,
00:00:16:967,0.179,-0.076,1.056,-143.189,-8.24,112.854,
00:00:16:983,0.159,-0.096,1.061,-85.206,-18.677,104.614,
00:00:17:0,0.142,-0.11,1.044,-51.331,-28.321,89.05,
00:00:17:17,0.113,-0.147,1.005,-31.434,-37.354,76.049,
00:00:17:33,0.097,-0.167,1.03,-63.355,-41.26,56.518,
00:00:17:50,0.083,-0.149,1.041,-100.586,-45.472,38.513,
00:00:17:67,0.07,-0.125,1.056,-96.07,-54.383,23.071,
00:00:17:83,0.056,-0.102,1.049,-59.876,-64.331,9.582,
00:00:17:100,0.053,-0.074,1.047,-47.73,-71.289,-4.395,
00:00:17:117,0.023,-0.082,1.036,-2.015,-83.497,-13.794,
00:00:17:133,0.002,-0.074,1.026,20.813,-82.947,-20.935,
00:00:17:150,-0.006,-0.069,1.003,37.963,-82.093,-32.105,
00:00:17:167,-0.021,-0.053,1,63.293,-78.98,-37.11,
00:00:17:183,-0.026,-0.046,0.998,93.078,-82.581,-40.284,
00:00:17:200,-0.027,-0.038,1.015,125.854,-100.403,-38.392,
00:00:17:217,-0.043,-0.04,1.011,157.409,-112.61,-34.546,
00:00:17:233,-0.047,-0.015,0.969,199.218,-120.118,-20.874,
00:00:17:250,-0.076,0.015,0.999,304.321,-147.034,-13.794,
00:00:17:267,-0.122,-0.037,0.991,469.421,-159.852,-22.339,
00:00:17:283,-0.105,-0.113,0.957,523.498,-149.292,-32.532,
00:00:17:300,-0.078,-0.148,0.924,459.472,-140.809,-50.171,
00:00:17:317,-0.098,-0.164,0.916,392.212,-133.301,-55.298,
00:00:17:333,-0.136,-0.153,0.883,402.038,-108.46,-40.223,
00:00:17:350,-0.136,-0.127,0.887,446.106,-78.614,-33.57,
00:00:17:367,-0.141,-0.174,0.879,500.915,-57.74,-52.002,
00:00:17:383,-0.138,-0.23,0.893,513.794,-29.725,-55.787,
00:00:17:400,-0.115,-0.245,0.896,499.755,-3.54,-58.35,
00:00:17:417,-0.109,-0.261,0.884,507.751,6.042,-58.411,
00:00:17:433,-0.12,-0.3,0.863,529.846,26.855,-70.801,
00:00:17:450,-0.11,-0.355,0.867,512.573,49.682,-86.365,
00:00:17:467,-0.096,-0.413,0.893,454.528,56.091,-91.858,
00:00:17:483,-0.069,-0.424,0.92,351.318,65.918,-97.168,
00:00:17:500,-0.05,-0.418,0.923,272.4,63.232,-103.394,
00:00:17:517,-0.05,-0.411,0.923,230.041,53.161,-111.39,
00:00:17:533,-0.056,-0.412,0.914,199.829,58.776,-119.202,
00:00:17:550,-0.059,-0.416,0.905,162.292,61.523,-115.723,
00:00:17:567,-0.062,-0.406,0.928,109.985,65.918,-107.178,
00:00:17:583,-0.048,-0.396,0.928,92.041,79.04,-106.507,
00:00:17:600,-0.026,-0.362,0.93,82.58,75.073,-90.21,
00:00:17:617,-0.041,-0.359,0.935,126.709,76.904,-77.393,
00:00:17:633,-0.048,-0.384,0.931,161.743,80.932,-66.468,
00:00:17:650,-0.032,-0.415,0.92,158.935,83.923,-52.185,
00:00:17:667,-0.021,-0.442,0.943,126.159,77.148,-35.645,
00:00:17:683,-0.009,-0.44,0.94,67.688,83.129,-21.18,
00:00:17:700,0.001,-0.426,0.913,28.259,95.825,-7.935,
00:00:17:717,0.011,-0.421,0.881,4.516,109.741,0.854,
00:00:17:733,0.023,-0.451,0.868,-12.818,113.891,7.507,
00:00:17:750,0.037,-0.501,0.965,-79.041,94.177,16.662,
00:00:17:767,0.046,-0.512,1.035,-234.07,75.317,26.733,
00:00:17:783,0.087,-0.444,1.018,-353.089,63.476,46.814,
00:00:17:800,0.118,-0.347,0.992,-338.135,39.856,63.598,
00:00:17:817,0.118,-0.369,0.957,-265.015,11.718,45.166,
00:00:17:833,0.122,-0.464,0.975,-294.312,-19.593,40.771,
00:00:17:850,0.11,-0.522,1.041,-482.605,-20.752,46.936,
00:00:17:867,0.123,-0.464,1.02,-738.16,9.338,54.748,
00:00:17:883,0.141,-0.297,1.016,-844.788,20.263,92.834,
00:00:17:900,0.141,-0.161,1.037,-767.64,12.39,92.59,
00:00:17:917,0.128,-0.178,1.031,-651.123,0.549,88.44,
00:00:17:933,0.114,-0.191,1.049,-580.445,-3.479,102.295,
00:00:17:950,0.103,-0.172,1.06,-546.326,8.239,116.76,
00:00:17:967,0.113,-0.113,1.054,-468.567,15.441,133.667,
00:00:17:983,0.127,-0.074,1.053,-313.721,1.403,143.676,
00:00:18:0,0.123,-0.117,1.049,-133.789,-20.508,136.718,
00:00:18:17,0.113,-0.2,1.067,-46.143,-35.157,122.802,
00:00:18:33,0.09,-0.264,1.067,-54.2,-40.589,104.004,
00:00:18:50,0.068,-0.27,1.045,-92.041,-31.739,94.482,
00:00:18:67,0.057,-0.242,1.036,-95.276,-33.997,81.665,
00:00:18:83,0.038,-0.237,1.018,-63.233,-42.603,60.974,
00:00:18:100,0.02,-0.233,1.011,-81.36,-46.448,45.288,
00:00:18:117,-0.002,-0.223,1.004,-88.379,-41.932,28.381,
00:00:18:133,-0.003,-0.21,0.993,-98.694,-38.697,10.009,
00:00:18:150,-0.017,-0.195,0.952,-68.36,-28.565,-1.038,
00:00:18:167,-0.072,-0.309,1.146,127.685,-122.193,-79.712,
00:00:18:183,-0.092,-0.332,1.013,5.127,-85.755,-72.205,
00:00:18:200,-0.013,-0.24,1.022,-48.584,-128.968,-113.343,
00:00:18:217,-0.006,-0.131,0.924,-86.426,-125.55,-95.276,
00:00:18:233,-0.011,-0.105,0.921,-23.133,-151.246,-120.057,
00:00:18:250,-0.102,-0.141,0.973,62.011,-166.321,-109.131,
00:00:18:267,-0.13,-0.139,0.982,61.767,-136.963,-101.258,
00:00:18:283,-0.1,-0.129,0.985,64.453,-137.452,-115.723,
00:00:18:300,-0.103,-0.148,0.973,81.42,-135.865,-114.075,
00:00:18:317,-0.132,-0.134,0.992,141.601,-143.616,-107.85,
00:00:18:333,-0.171,-0.122,0.977,188.415,-124.024,-108.216,
00:00:18:350,-0.174,-0.141,0.964,230.041,-108.46,-124.878,
00:00:18:367,-0.177,-0.148,0.955,247.375,-93.75,-115.967,
00:00:18:383,-0.166,-0.156,0.989,252.746,-91.736,-123.902,
00:00:18:400,-0.171,-0.175,0.978,220.398,-76.966,-127.747,
00:00:18:417,-0.181,-0.146,0.943,292.419,-63.233,-93.873,
00:00:18:433,-0.186,-0.125,0.916,440.429,-38.941,-80.506,
00:00:18:450,-0.189,-0.206,0.866,548.706,-9.827,-112.732,
00:00:18:467,-0.162,-0.281,0.851,540.832,16.906,-109.253,
00:00:18:483,-0.143,-0.313,0.851,494.384,33.752,-101.563,
00:00:18:500,-0.135,-0.334,0.858,444.152,44.982,-103.15,
00:00:18:517,-0.116,-0.369,0.859,402.038,58.96,-114.014,
00:00:18:533,-0.109,-0.392,0.874,352.295,60.058,-111.329,
00:00:18:550,-0.109,-0.436,0.881,279.602,66.04,-109.436,
00:00:18:567,-0.115,-0.396,0.902,229.431,63.659,-104.432,
00:00:18:583,-0.105,-0.395,0.887,192.871,68.969,-110.413,
00:00:18:600,-0.105,-0.395,0.884,160.339,64.025,-103.821,
00:00:18:617,-0.115,-0.396,0.901,137.329,64.331,-99.793,
00:00:18:633,-0.111,-0.382,0.929,117.797,70.8,-84.9,
00:00:18:650,-0.063,-0.362,0.925,120.422,86.12,-76.233,
00:00:18:667,-0.063,-0.354,0.914,155.639,83.252,-67.749,
00:00:18:683,-0.075,-0.37,0.884,185.547,96.557,-56.275,
00:00:18:700,-0.073,-0.398,0.853,182.19,123.84,-53.162,
00:00:18:717,-0.054,-0.433,0.855,131.347,130.127,-36.988,
00:00:18:733,-0.061,-0.453,0.899,55.908,130.92,-15.748,
00:00:18:750,-0.052,-0.45,0.982,-18.982,122.497,4.699,
00:00:18:767,-0.027,-0.413,0.988,-74.707,129.76,23.864,
00:00:18:783,0.015,-0.381,0.973,-36.377,124.817,32.47,
00:00:18:800,0.032,-0.416,0.94,45.349,108.703,26.001,
00:00:18:817,0.028,-0.495,0.948,51.635,83.313,19.714,
00:00:18:833,0.028,-0.564,1.005,-74.402,58.349,23.681,
00:00:18:850,0.042,-0.573,1.076,-284.18,40.222,33.142,
00:00:18:867,0.059,-0.471,1.033,-456.788,44.372,52.795,
00:00:18:883,0.082,-0.354,1.003,-449.219,26.062,59.57,
00:00:18:900,0.073,-0.363,1,-364.808,4.211,45.41,
00:00:18:917,0.057,-0.413,0.994,-395.813,0.244,45.227,
00:00:18:933,0.062,-0.422,1.033,-534.607,4.272,60.913,
00:00:18:950,0.062,-0.369,0.995,-691.407,26.123,76.232,
00:00:18:967,0.067,-0.293,0.998,-743.042,35.827,83.313,
00:00:18:983,0.071,-0.229,1.012,-709.778,32.592,93.2,
00:00:19:0,0.075,-0.192,1.023,-644.349,27.587,96.13,
00:00:19:17,0.074,-0.176,1.024,-583.374,30.639,99.731,
00:00:19:33,0.072,-0.161,1.029,-513.672,33.325,110.901,
00:00:19:50,0.078,-0.147,1.051,-410.645,24.658,110.717,
00:00:19:67,0.091,-0.158,1.039,-299.5,16.662,101.074,
00:00:19:83,0.085,-0.169,1.04,-206.177,-0.367,88.684,
00:00:19:100,0.054,-0.185,1.049,-143.433,-8.851,74.707,
00:00:19:117,0.032,-0.211,1.04,-116.028,-14.344,60.18,
00:00:19:133,0.013,-0.226,1.044,-103.577,-21.424,46.63,
00:00:19:150,-0.001,-0.225,1.04,-89.173,-36.744,34.057,
00:00:19:167,-0.007,-0.231,1.048,-88.868,-49.012,19.348,
00:00:19:183,-0.022,-0.224,1.038,-96.558,-58.899,1.892,
00:00:19:200,-0.042,-0.215,1.035,-107.911,-69.275,-18.555,
00:00:19:217,-0.061,-0.209,1.009,-150.574,-63.904,-34.119,
00:00:19:233,-0.06,-0.171,1.026,-158.326,-71.289,-46.631,
00:00:19:250,-0.069,-0.129,1.014,-119.324,-65.491,-48.218,
00:00:19:267,-0.072,-0.147,1.005,-48.645,-80.445,-72.205,
00:00:19:283,-0.068,-0.158,1.012,-40.467,-87.952,-83.313,
00:00:19:300,-0.079,-0.118,0.991,-60.914,-74.219,-92.896,
00:00:19:317,-0.091,-0.114,0.984,12.268,-81.727,-102.601,
00:00:19:333,-0.099,-0.09,1.003,46.691,-82.886,-94.91,
00:00:19:350,-0.105,-0.102,0.994,92.59,-85.755,-109.864,
00:00:19:367,-0.093,-0.094,0.99,109.68,-87.403,-108.46,
00:00:19:383,-0.119,-0.103,0.958,166.87,-89.173,-106.568,
00:00:19:400,-0.133,-0.126,0.966,238.464,-88.074,-97.718,
00:00:19:417,-0.136,-0.131,0.944,268.737,-75.989,-99.305,
00:00:19:433,-0.136,-0.147,0.937,282.348,-69.519,-108.155,
00:00:19:450,-0.131,-0.183,0.94,289.734,-70.069,-110.291,
00:00:19:467,-0.137,-0.199,0.95,268.859,-64.576,-110.779,
00:00:19:483,-0.14,-0.202,0.964,273.315,-67.994,-111.878,
00:00:19:500,-0.14,-0.185,0.946,290.039,-56.336,-109.498,
00:00:19:517,-0.14,-0.165,0.936,332.885,-42.786,-108.887,
00:00:19:533,-0.146,-0.167,0.887,388.244,-18.982,-109.986,
00:00:19:550,-0.148,-0.176,0.844,451.599,5.371,-100.403,
00:00:19:567,-0.146,-0.215,0.837,501.403,23.803,-98.145,
00:00:19:583,-0.151,-0.284,0.852,523.193,40.771,-101.014,
00:00:19:600,-0.134,-0.344,0.906,479.919,52.063,-98.145,
00:00:19:617,-0.109,-0.347,0.917,397.461,60.18,-88.868,
00:00:19:633,-0.109,-0.339,0.915,360.29,59.631,-82.764,
00:00:19:650,-0.126,-0.343,0.882,349.304,67.932,-81.604,
00:00:19:667,-0.114,-0.341,0.815,331.237,95.336,-79.407,
00:00:19:683,-0.112,-0.369,0.777,304.626,107.299,-74.036,
00:00:19:700,-0.137,-0.425,0.854,265.442,107.849,-62.623,
00:00:19:717,-0.124,-0.454,0.923,163.574,123.657,-59.021,
00:00:19:733,-0.083,-0.401,0.916,47.729,139.221,-33.692,
00:00:19:750,-0.069,-0.342,0.893,92.346,134.948,-22.278,
00:00:19:767,-0.086,-0.38,0.859,199.34,139.526,-32.776,
00:00:19:783,-0.087,-0.457,0.882,235.473,140.38,-35.584,
00:00:19:800,-0.08,-0.527,0.965,118.469,138.122,-20.325,
00:00:19:817,-0.064,-0.511,1.033,-30.03,139.16,-4.212,
00:00:19:833,-0.013,-0.424,1.043,-129.578,137.024,10.315,
00:00:19:850,0.027,-0.349,1.022,-73.304,115.112,26.55,
00:00:19:867,0.035,-0.388,1.015,83.435,80.566,21.24,
00:00:19:883,0.061,-0.5,1.029,108.947,52.246,20.874,
00:00:19:900,0.021,-0.563,1.039,-46.57,45.471,27.71,
00:00:19:917,0.045,-0.544,1.047,-251.221,54.443,35.034,
00:00:19:933,0.068,-0.477,1.018,-382.996,52.368,39.123,
00:00:19:950,0.078,-0.414,0.999,-392.884,38.452,40.893,
00:00:19:967,0.073,-0.419,0.986,-393.982,33.325,35.644,
00:00:19:983,0.07,-0.431,0.999,-440.125,27.526,37.536,
00:00:20:0,0.068,-0.417,1.02,-546.204,45.898,43.579,
00:00:20:17,0.083,-0.377,1.01,-634.095,38.818,44.128,
00:00:20:33,0.099,-0.298,1.007,-649.231,36.193,59.204,
00:00:20:50,0.105,-0.264,1.011,-585.328,19.409,54.992,
00:00:20:67,0.092,-0.252,1.035,-533.143,13.183,50.72,
00:00:20:83,0.083,-0.233,1.037,-480.164,13.732,48.461,
00:00:20:100,0.083,-0.205,1.058,-387.207,0.244,52.856,
00:00:20:117,0.071,-0.206,1.053,-275.33,-16.175,57.006,
00:00:20:133,0.076,-0.213,1.057,-186.768,-28.565,57.067,
00:00:20:150,0.057,-0.217,1.03,-133.728,-44.434,56.091,
00:00:20:167,0.041,-0.255,1.038,-119.935,-60.791,41.32,
00:00:20:183,0.017,-0.266,1.034,-166.382,-58.35,32.836,
00:00:20:200,0.005,-0.257,1.028,-188.66,-64.881,20.202,
00:00:20:217,-0.007,-0.238,1.01,-204.163,-58.777,16.845,
00:00:20:233,-0.026,-0.21,1.029,-199.524,-65.247,14.038,
00:00:20:250,-0.039,-0.204,1.02,-168.824,-69.581,5.065,
00:00:20:267,-0.036,-0.175,1.024,-144.471,-73.06,-3.602,
00:00:20:283,-0.043,-0.154,1.002,-105.774,-71.473,-22.278,
00:00:20:300,-0.054,-0.145,1.002,-58.411,-67.627,-35.828,
00:00:20:317,-0.09,-0.141,0.979,10.315,-62.623,-31.128,
00:00:20:333,-0.098,-0.152,0.979,82.214,-57.801,-38.453,
00:00:20:350,-0.093,-0.201,0.983,104.309,-59.021,-52.43,
00:00:20:367,-0.085,-0.236,0.994,66.528,-61.89,-70.862,
00:00:20:383,-0.09,-0.228,1.001,-4.883,-70.862,-85.633,
00:00:20:400,-0.133,-0.189,0.961,11.535,-66.407,-77.027,
00:00:20:417,-0.124,-0.157,0.979,105.102,-80.506,-73.792,
00:00:20:433,-0.14,-0.164,0.927,166.137,-64.637,-82.032,
00:00:20:450,-0.114,-0.173,0.908,190.857,-55.848,-92.469,
00:00:20:467,-0.123,-0.184,0.932,205.017,-64.087,-98.206,
00:00:20:483,-0.135,-0.204,0.925,205.993,-47.974,-110.047,
00:00:20:500,-0.131,-0.187,0.905,239.318,-41.016,-101.014,
00:00:20:517,-0.135,-0.157,0.908,299.438,-43.885,-91.492,mixLH
00:00:20:533,-0.148,-0.15,0.893,370.361,-25.025,-88.929,
00:00:20:550,-0.132,-0.153,0.868,449.218,-5.921,-76.783,
00:00:20:567,-0.124,-0.166,0.812,519.104,14.648,-73.06,
00:00:20:583,-0.138,-0.217,0.782,592.834,37.841,-66.529,
00:00:20:600,-0.152,-0.278,0.784,634.582,65.979,-67.933,
00:00:20:617,-0.142,-0.368,0.795,611.755,92.59,-75.928,
00:00:20:633,-0.098,-0.42,0.859,520.019,106.628,-69.336,
00:00:20:650,-0.082,-0.426,0.864,392.883,114.135,-63.843,
00:00:20:667,-0.078,-0.416,0.869,330.871,119.262,-63.66,
00:00:20:683,-0.092,-0.43,0.856,312.622,120.056,-68.238,
00:00:20:700,-0.091,-0.464,0.869,262.512,130.249,-78.309,
00:00:20:717,-0.079,-0.501,0.889,187.011,140.197,-76.477,
00:00:20:733,-0.068,-0.52,0.942,70.19,141.54,-68.177,
00:00:20:750,-0.061,-0.468,0.955,-62.073,151.184,-41.321,
00:00:20:767,-0.036,-0.408,0.966,-70.74,160.705,-34.18,
00:00:20:783,-0.023,-0.392,0.979,-0.061,154.968,-24.598,
00:00:20:800,-0.021,-0.457,1.02,21.362,127.075,-20.874,
00:00:20:817,-0.02,-0.481,1.034,-81.116,137.39,3.051,
00:00:20:833,0,-0.42,1.048,-181.824,135.803,34.484,
00:00:20:850,0.027,-0.376,1.037,-181.763,127.563,50.231,
00:00:20:867,0.068,-0.374,1.032,-96.863,110.839,58.654,
00:00:20:883,0.086,-0.4,1.007,-48.951,103.759,65.124,
00:00:20:900,0.093,-0.481,1.005,-31.25,83.19,48.4,
00:00:20:917,0.093,-0.513,1.025,-121.033,73.974,54.687,
00:00:20:933,0.107,-0.486,1.009,-230.896,72.753,51.269,
00:00:20:950,0.123,-0.445,0.974,-272.4,66.528,47.546,
00:00:20:967,0.127,-0.433,0.973,-274.903,37.963,36.926,
00:00:20:983,0.116,-0.461,0.985,-357.727,17.517,30.395,
00:00:21:0,0.107,-0.439,0.969,-502.747,16.052,31.494,
00:00:21:17,0.094,-0.376,0.947,-637.269,17.578,42.297,
00:00:21:33,0.077,-0.309,0.946,-692.2,19.165,53.039,
00:00:21:50,0.079,-0.248,0.955,-724.305,27.282,65.185,
00:00:21:67,0.088,-0.185,0.979,-709.168,26.55,72.204,
00:00:21:83,0.085,-0.157,0.979,-635.682,25.39,80.444,
00:00:21:100,0.082,-0.14,1.013,-562.256,16.906,89.05,
00:00:21:117,0.078,-0.115,1.024,-484.986,23.437,105.224,
00:00:21:133,0.08,-0.105,1.041,-362.732,15.136,111.145,
00:00:21:150,0.097,-0.096,1.076,-255.494,-4.212,114.135,
00:00:21:167,0.095,-0.119,1.076,-169.739,-16.724,111.633,
00:00:21:183,0.082,-0.158,1.074,2.868,-36.011,87.89,
00:00:21:200,0.083,-0.245,1.122,144.897,-74.952,84.716,
00:00:21:217,0.079,-0.278,1.129,156.677,-101.38,70.678,
00:00:21:233,0.033,-0.318,1.094,91.308,-115.418,31.677,
00:00:21:250,0.03,-0.296,1.066,20.324,-117.737,22.461,
00:00:21:267,0.005,-0.234,1.031,-8.362,-125,3.662,
00:00:21:283,-0.02,-0.226,0.991,0.915,-111.695,-20.935,
00:00:21:300,-0.022,-0.238,1.01,-6.714,-111.329,-38.269,
00:00:21:317,-0.029,-0.212,1.009,-40.284,-108.399,-41.321,
00:00:21:333,-0.035,-0.21,1.015,-35.889,-111.023,-55.42,
00:00:21:350,-0.061,-0.202,0.987,-2.32,-104.676,-58.045,
00:00:21:367,-0.058,-0.144,0.976,32.409,-92.408,-58.96,
00:00:21:383,-0.083,-0.11,0.912,84.411,-62.806,-71.534,
00:00:21:400,-0.088,-0.105,0.89,161.438,-51.697,-73.121,
00:00:21:417,-0.114,-0.13,0.885,224.975,-38.392,-62.989,
00:00:21:433,-0.113,-0.118,0.87,230.041,0.427,-57.19,
00:00:21:450,-0.144,-0.145,0.851,286.865,17.395,-57.862,
00:00:21:467,-0.157,-0.154,0.913,412.536,24.963,-39.49,
00:00:21:483,-0.119,-0.169,0.887,511.291,58.349,-34.668,
00:00:21:500,-0.081,-0.203,0.869,563.232,52.856,-42.603,
00:00:21:517,-0.092,-0.271,0.83,583.984,52.49,-54.688,
00:00:21:533,-0.108,-0.316,0.8,544.922,78.43,-53.406,
00:00:21:550,-0.089,-0.361,0.76,540.405,98.449,-66.468,
00:00:21:567,-0.07,-0.398,0.796,533.325,88.989,-67.2,
00:00:21:583,-0.081,-0.454,0.845,460.693,93.994,-80.14,
00:00:21:600,-0.059,-0.469,0.884,342.102,94.421,-83.68,
00:00:21:617,-0.048,-0.455,0.936,260.742,73.364,-79.773,
00:00:21:633,-0.043,-0.444,0.917,229.248,80.993,-96.68,
00:00:21:650,-0.039,-0.45,0.905,232.422,74.829,-111.695,
00:00:21:667,-0.058,-0.482,0.881,222.473,85.571,-125.672,
00:00:21:683,-0.066,-0.51,0.881,178.833,94.726,-128.846,
00:00:21:700,-0.062,-0.525,0.918,85.327,110.29,-126.526,
00:00:21:717,-0.052,-0.439,0.905,-15.809,127.929,-105.347,
00:00:21:733,-0.036,-0.395,0.897,-26.795,144.226,-89.051,
00:00:21:750,-0.022,-0.383,0.881,51.391,168.945,-90.21,
00:00:21:767,-0.01,-0.422,0.88,128.845,179.199,-80.14,
00:00:21:783,0.004,-0.472,0.925,124.45,186.279,-68.787,
00:00:21:800,0.026,-0.482,0.968,13.244,188.049,-33.143,
00:00:21:817,0.059,-0.451,0.99,-103.699,191.589,-27.649,
00:00:21:833,0.093,-0.398,0.984,-139.1,187.927,-12.818,
00:00:21:850,0.107,-0.376,0.941,-94.422,184.448,-0.55,
00:00:21:867,0.115,-0.414,0.963,-19.898,157.165,12.146,
00:00:21:883,0.115,-0.473,1.022,-21.729,132.507,26.306,
00:00:21:900,0.149,-0.487,1.024,-110.23,119.384,39.306,
00:00:21:917,0.189,-0.478,1.012,-222.229,84.899,46.875,
00:00:21:933,0.204,-0.474,1.006,-314.576,47.973,49.194,
00:00:21:950,0.188,-0.47,0.998,-387.085,27.71,45.776,
00:00:21:967,0.183,-0.47,0.996,-479.126,2.502,51.452,
00:00:21:983,0.175,-0.458,0.984,-587.464,-2.503,49.926,
00:00:22:0,0.187,-0.397,0.993,-683.533,-7.142,60.607,
00:00:22:17,0.18,-0.307,0.974,-700.318,-4.09,72.387,
00:00:22:33,0.17,-0.264,0.976,-631.165,-10.193,62.439,
00:00:22:50,0.152,-0.272,0.986,-570.74,-8.728,64.514,
00:00:22:67,0.147,-0.276,1.009,-550.049,-3.357,63.659,
00:00:22:83,0.143,-0.255,1.01,-542.481,10.07,68.42,
00:00:22:100,0.156,-0.204,1.025,-495.789,4.821,63.232,
00:00:22:117,0.159,-0.183,1.03,-407.105,-9.888,55.664,
00:00:22:133,0.159,-0.182,1.051,-320.374,-28.931,38.696,
00:00:22:150,0.147,-0.193,1.055,-277.344,-41.26,24.658,
00:00:22:167,0.14,-0.184,1.05,-232.3,-51.636,21.545,
00:00:22:183,0.131,-0.184,1.043,-192.261,-73.548,12.39,
00:00:22:200,0.119,-0.191,1.052,-146.302,-84.961,6.469,
00:00:22:217,0.11,-0.211,1.045,-104.248,-96.436,-6.958,
00:00:22:233,0.094,-0.189,1.033,-110.84,-105.164,-10.376,
00:00:22:250,0.07,-0.161,1.012,-140.503,-98.999,-9.949,
00:00:22:267,0.053,-0.131,1.006,-110.84,-98.999,-22.95,
00:00:22:283,0.041,-0.114,1.016,-57.557,-106.934,-27.649,
00:00:22:300,0.001,-0.147,1.019,85.998,-114.197,-28.504,
00:00:22:317,-0.011,-0.164,1.011,131.591,-121.888,-30.152,
00:00:22:333,-0.027,-0.177,1.017,111.084,-129.456,-39.612,
00:00:22:350,-0.044,-0.157,0.998,77.636,-119.629,-45.533,
00:00:22:367,-0.052,-0.125,0.976,92.346,-113.709,-47.73,
00:00:22:383,-0.051,-0.086,0.95,124.206,-100.403,-49.378,
00:00:22:400,-0.057,-0.078,0.928,209.228,-94.361,-51.636,
00:00:22:417,-0.077,-0.103,0.921,296.63,-82.398,-42.42,
00:00:22:433,-0.08,-0.134,0.899,379.516,-65.247,-39.429,
00:00:22:450,-0.077,-0.169,0.904,432.067,-53.589,-40.711,
00:00:22:467,-0.073,-0.216,0.894,467.59,-39.063,-49.805,
00:00:22:483,-0.065,-0.229,0.885,443.176,-18.128,-53.162,
00:00:22:500,-0.075,-0.231,0.877,449.585,-10.682,-57.19,
00:00:22:517,-0.091,-0.249,0.838,503.296,19.165,-65.979,
00:00:22:533,-0.076,-0.284,0.822,561.584,36.438,-77.515,
00:00:22:550,-0.08,-0.333,0.812,569.885,57.983,-86.853,
00:00:22:567,-0.059,-0.364,0.787,527.832,90.271,-93.567,
00:00:22:583,-0.054,-0.375,0.78,470.886,107.91,-89.356,
00:00:22:600,-0.059,-0.382,0.786,432.067,123.596,-92.713,
00:00:22:617,-0.056,-0.438,0.846,392.456,130.615,-92.835,
00:00:22:633,-0.05,-0.451,0.881,351.867,134.338,-99.549,
00:00:22:650,-0.002,-0.47,0.917,276.733,137.451,-97.657,
00:00:22:667,-0.017,-0.467,0.927,207.519,131.958,-94.361,
00:00:22:683,-0.007,-0.467,0.92,182.983,127.99,-91.797,
00:00:22:700,-0.002,-0.486,0.916,162.841,122.741,-97.84,
00:00:22:717,0.002,-0.485,0.918,113.22,129.455,-94.849,
00:00:22:733,0.008,-0.503,0.916,74.218,127.868,-91.309,
00:00:22:750,0.016,-0.492,0.944,21.423,129.76,-62.378,
00:00:22:767,0.042,-0.488,0.957,-41.016,132.08,-54.749,
00:00:22:783,0.057,-0.477,0.963,-129.334,132.141,-38.208,
00:00:22:800,0.073,-0.437,0.976,-175.049,121.032,-19.837,
00:00:22:817,0.083,-0.446,1.004,-196.045,97.412,-8.484,
00:00:22:833,0.091,-0.45,1.023,-231.751,81.176,9.399,
00:00:22:850,0.113,-0.418,1.001,-240.906,73.974,23.376,
00:00:22:867,0.129,-0.406,0.974,-197.327,56.457,30.822,
00:00:22:883,0.14,-0.462,0.974,-201.966,31.677,24.963,
00:00:22:900,0.14,-0.509,0.979,-349.671,19.531,39.062,
00:00:22:917,0.153,-0.521,0.965,-580.994,18.188,38.391,
00:00:22:933,0.17,-0.468,0.958,-798.768,26.184,46.691,
00:00:22:950,0.175,-0.372,0.972,-936.097,36.01,55.664,
00:00:22:967,0.175,-0.271,1.007,-967.225,40.893,54.443,
00:00:22:983,0.171,-0.204,1.009,-893.372,50.659,51.818,
00:00:23:0,0.191,-0.129,1.057,-736.023,40.283,56.701,
00:00:23:17,0.195,-0.122,1.077,-506.043,21.545,54.26,
00:00:23:33,0.195,-0.117,1.056,-303.711,9.887,62.927,
00:00:23:50,0.186,-0.141,1.038,-158.326,-5.799,57.678,
00:00:23:67,0.152,-0.194,1.022,-78.003,-19.349,55.053,
00:00:23:83,0.139,-0.239,1.028,-95.826,-22.4,50.72,
00:00:23:100,0.137,-0.25,1.004,-172.242,-15.503,41.442,
00:00:23:117,0.125,-0.232,1.021,-245.667,-20.63,26.55,
00:00:23:133,0.109,-0.231,1.025,-286.683,-20.874,6.225,
00:00:23:150,0.097,-0.202,1.028,-323.365,-11.841,-0.55,
00:00:23:167,0.085,-0.141,1.047,-313.904,-16.541,-3.113,
00:00:23:183,0.069,-0.118,1.062,-248.414,-25.757,-8.301,
00:00:23:200,0.079,-0.101,1.083,-142.395,-66.834,-13.672,
00:00:23:217,0.06,-0.113,1.1,-92.286,-98.938,-25.574,
00:00:23:233,0.031,-0.142,1.073,-48.279,-114.869,-38.269,
00:00:23:250,0.01,-0.167,1.056,-24.231,-129.334,-42.969,
00:00:23:267,0.004,-0.12,1.056,-12.574,-138.428,-45.594,
00:00:23:283,0,-0.052,1.008,0.305,-128.235,-54.932,
00:00:23:300,0.003,-0.02,0.978,82.824,-136.719,-56.824,
00:00:23:317,-0.018,-0.031,0.971,193.542,-145.997,-53.772,
00:00:23:333,-0.046,-0.064,0.948,275.879,-132.508,-57.496,
00:00:23:350,-0.053,-0.099,0.92,337.036,-108.033,-51.209,
00:00:23:367,-0.046,-0.123,0.911,371.704,-95.032,-51.148,
00:00:23:383,-0.068,-0.16,0.915,360.901,-66.712,-62.317,
00:00:23:400,-0.066,-0.141,0.916,355.346,-59.082,-54.383,
00:00:23:417,-0.09,-0.108,0.895,444.885,-44.8,-33.814,
00:00:23:433,-0.088,-0.151,0.867,556.152,-21.607,-41.016,
00:00:23:450,-0.082,-0.215,0.829,598.449,2.197,-49.256,
00:00:23:467,-0.076,-0.292,0.819,597.534,17.639,-47.364,
00:00:23:483,-0.056,-0.361,0.851,533.813,16.113,-52.308,
00:00:23:500,-0.034,-0.398,0.869,460.083,26.672,-70.313,
00:00:23:517,0.002,-0.388,0.889,362.854,17.334,-82.52,
00:00:23:533,-0.016,-0.37,0.86,320.373,16.113,-94.91,
00:00:23:550,-0.034,-0.372,0.862,324.829,3.845,-111.878,
00:00:23:567,-0.059,-0.398,0.878,296.753,12.207,-118.409,
00:00:23:583,-0.055,-0.386,0.919,243.103,23.315,-106.446,
00:00:23:600,-0.03,-0.36,0.901,252.014,45.654,-99.854,
00:00:23:617,-0.022,-0.353,0.89,303.527,49.011,-99.671,
00:00:23:633,-0.029,-0.388,0.831,347.229,74.585,-109.253,
00:00:23:650,-0.028,-0.423,0.792,345.398,85.571,-111.268,
00:00:23:667,-0.046,-0.465,0.792,279.785,112.121,-108.033,
00:00:23:683,-0.043,-0.492,0.823,187.988,137.451,-99.06,
00:00:23:700,-0.021,-0.482,0.877,66.467,160.827,-87.342,
00:00:23:717,-0.007,-0.456,0.922,14.16,186.645,-63.843,
00:00:23:733,0.009,-0.432,0.926,31.066,207.397,-54.505,
00:00:23:750,0.028,-0.466,0.907,50.659,213.379,-51.148,
00:00:23:767,0.04,-0.523,0.973,6.53,195.129,-41.504,
00:00:23:783,0.046,-0.58,0.965,-161.744,181.091,-32.105,
00:00:23:800,0.076,-0.562,0.957,-389.039,161.987,-10.804,
00:00:23:817,0.09,-0.492,0.974,-567.627,138.122,13.794,
00:00:23:833,0.1,-0.437,1.033,-703.614,114.196,20.324,
00:00:23:850,0.123,-0.411,1.131,-800.477,86.792,30.151,
00:00:23:867,0.145,-0.333,1.122,-831.543,74.035,50.537,
00:00:23:883,0.171,-0.218,1.118,-711.731,49.926,70.8,
00:00:23:900,0.187,-0.189,1.133,-483.643,6.836,77.88,
00:00:23:917,0.185,-0.246,1.113,-347.535,-25.33,85.998,
00:00:23:933,0.189,-0.293,1.076,-312.561,-31.861,87.341,
00:00:23:950,0.187,-0.293,1.013,-350.525,-31.067,92.712,
00:00:23:967,0.177,-0.259,1.003,-361.451,-27.039,98.632,
00:00:23:983,0.161,-0.242,0.998,-346.741,-18.799,86.242,
00:00:24:0,0.154,-0.229,1.005,-327.82,-10.254,78.735,
00:00:24:17,0.148,-0.219,0.999,-309.388,8.911,72.876,
00:00:24:33,0.146,-0.205,1.015,-235.413,-1.221,75.927,
00:00:24:50,0.147,-0.235,1.068,-166.443,-28.016,63.964,
00:00:24:67,0.143,-0.274,1.073,-147.217,-53.467,52.856,
00:00:24:83,0.118,-0.25,1.037,-173.768,-62.745,54.504,
00:00:24:100,0.094,-0.21,1.011,-199.952,-74.646,44.311,
00:00:24:117,0.069,-0.179,1.021,-209.534,-74.341,32.226,
00:00:24:133,0.046,-0.171,0.998,-156.922,-76.6,29.602,
00:00:24:150,0.052,-0.154,0.997,-100.831,-76.539,24.719,
00:00:24:167,0.054,-0.149,1.002,-34.485,-70.435,14.099,
00:00:24:183,0.026,-0.176,1.011,22.033,-70.496,5.065,
00:00:24:200,0.009,-0.204,1.003,38.879,-69.153,-8.179,
00:00:24:217,0.021,-0.165,1.009,-3.296,-62.989,-14.405,
00:00:24:233,0.008,-0.161,0.996,23.437,-76.05,-28.809,
00:00:24:250,-0.009,-0.175,0.999,58.776,-80.262,-38.453,
00:00:24:267,-0.003,-0.178,0.984,66.589,-81.849,-52.491,
00:00:24:283,-0.019,-0.162,0.97,70.251,-77.698,-62.439,
00:00:24:300,-0.038,-0.151,0.962,112.182,-77.271,-66.834,
00:00:24:317,-0.043,-0.141,0.983,142.883,-72.388,-73.914,
00:00:24:333,-0.038,-0.129,0.975,191.894,-76.905,-81.727,
00:00:24:350,-0.052,-0.145,0.945,262.207,-71.656,-78.858,
00:00:24:367,-0.079,-0.154,0.947,349.426,-72.388,-71.778,
00:00:24:383,-0.085,-0.154,0.929,400.146,-56.763,-70.679,
00:00:24:400,-0.089,-0.193,0.908,456.604,-46.326,-80.994,
00:00:24:417,-0.091,-0.224,0.907,479.431,-37.476,-84.29,
00:00:24:433,-0.089,-0.256,0.879,497.07,-17.212,-84.717,
00:00:24:450,-0.081,-0.282,0.883,496.338,6.469,-89.356,
00:00:24:467,-0.074,-0.301,0.831,485.534,37.048,-103.394,
00:00:24:483,-0.044,-0.313,0.829,460.815,50.231,-120.667,
00:00:24:500,-0.06,-0.343,0.81,441.345,64.697,-125.184,
00:00:24:517,-0.062,-0.365,0.831,404.785,74.768,-127.259,mixLH
00:00:24:533,-0.047,-0.398,0.868,347.595,80.078,-129.578,
00:00:24:550,-0.044,-0.415,0.895,265.503,77.758,-112.183,
00:00:24:567,-0.029,-0.393,0.923,207.763,73.12,-106.507,
00:00:24:583,-0.013,-0.345,0.923,202.026,69.152,-102.417,
00:00:24:600,-0.009,-0.397,0.899,232.971,68.237,-107.666,
00:00:24:617,-0.019,-0.445,0.901,246.154,56.091,-100.22,
00:00:24:633,-0.029,-0.478,0.918,213.501,60.974,-92.286,
00:00:24:650,-0.017,-0.469,0.899,141.906,72.326,-79.956,
00:00:24:667,-0.002,-0.44,0.899,122.253,75.256,-68.848,
00:00:24:683,-0.007,-0.431,0.888,131.53,91.735,-57.129,
00:00:24:700,-0.004,-0.446,0.88,157.287,100.647,-49.988,
00:00:24:717,0.003,-0.475,0.905,153.564,104.37,-44.129,
00:00:24:733,0.01,-0.503,0.893,110.839,112.365,-32.593,
00:00:24:750,0.024,-0.501,0.91,41.503,107.177,-12.94,
00:00:24:767,0.029,-0.513,0.913,-25.635,101.318,-5.677,
00:00:24:783,0.044,-0.512,0.931,-87.525,99.487,1.159,
00:00:24:800,0.068,-0.5,0.947,-154.053,95.336,9.887,
00:00:24:817,0.079,-0.485,0.969,-199.891,82.153,21.606,
00:00:24:833,0.095,-0.493,0.974,-264.71,73.547,26.306,
00:00:24:850,0.113,-0.501,0.978,-355.896,61.767,34.79,
00:00:24:867,0.138,-0.494,0.999,-440.552,43.273,41.076,
00:00:24:883,0.153,-0.47,1.013,-550.782,24.292,44.616,
00:00:24:900,0.152,-0.446,1.022,-638.672,10.376,50.415,
00:00:24:917,0.15,-0.381,1.014,-702.027,7.995,64.331,
00:00:24:933,0.159,-0.302,1.017,-691.163,0.305,72.326,
00:00:24:950,0.158,-0.272,1.002,-633.667,-12.146,77.575,
00:00:24:967,0.151,-0.256,0.997,-570.313,-13.611,89.477,
00:00:24:983,0.159,-0.252,1.015,-522.828,-14.649,91.064,
00:00:25:0,0.16,-0.244,1.02,-471.802,-7.691,92.041,
00:00:25:17,0.168,-0.222,1.042,-410.706,-12.574,91.613,
00:00:25:33,0.16,-0.219,1.036,-328.98,-20.386,88.317,
00:00:25:50,0.146,-0.217,1.021,-266.907,-24.781,87.707,
00:00:25:67,0.137,-0.202,1.032,-198.67,-31.189,90.393,
00:00:25:83,0.123,-0.217,1.025,-133.423,-40.772,84.594,
00:00:25:100,0.115,-0.244,1.05,-105.286,-57.129,78.369,
00:00:25:117,0.091,-0.255,1.048,-104.126,-67.2,70.922,
00:00:25:133,0.075,-0.255,1.054,-101.075,-82.337,63.598,
00:00:25:150,0.065,-0.249,1.049,-103.15,-93.201,53.466,
00:00:25:167,0.042,-0.223,1.033,-106.202,-97.168,42.602,
00:00:25:183,0.022,-0.209,1.017,-79.773,-98.694,30.151,
00:00:25:200,0.01,-0.207,1.024,-50.477,-105.408,13.061,
00:00:25:217,-0.016,-0.199,1.004,-19.471,-96.009,9.216,
00:00:25:233,-0.018,-0.214,1.017,7.263,-99.366,-10.498,
00:00:25:250,-0.039,-0.23,1.027,16.662,-104.248,-19.532,
00:00:25:267,-0.052,-0.253,1.035,-1.343,-110.596,-39.917,
00:00:25:283,-0.071,-0.256,1.021,-54.078,-111.206,-54.017,
00:00:25:300,-0.092,-0.242,1.021,-95.826,-105.347,-68.238,
00:00:25:317,-0.095,-0.186,1.009,-87.525,-98.816,-83.069,
00:00:25:333,-0.09,-0.134,0.969,-49.439,-83.252,-96.863,
00:00:25:350,-0.085,-0.081,0.924,26.062,-64.454,-103.516,
00:00:25:367,-0.087,-0.069,0.889,136.901,-47.608,-101.441,
00:00:25:383,-0.088,-0.091,0.876,235.839,-34.058,-95.215,
00:00:25:400,-0.087,-0.122,0.858,300.964,-15.442,-89.539,
00:00:25:417,-0.098,-0.162,0.889,358.337,-11.17,-87.403,
00:00:25:433,-0.074,-0.204,0.925,381.897,-13.855,-98.389,
00:00:25:450,-0.062,-0.215,0.916,358.093,-17.518,-98.755,
00:00:25:467,-0.079,-0.166,0.907,369.567,-30.274,-83.619,
00:00:25:483,-0.107,-0.144,0.858,487.793,-24.231,-74.158,
00:00:25:500,-0.108,-0.175,0.808,608.093,-0.489,-78.37,
00:00:25:517,-0.109,-0.254,0.799,684.204,8.606,-79.834,
00:00:25:533,-0.115,-0.322,0.827,677.307,29.419,-74.036,
00:00:25:550,-0.093,-0.353,0.809,631.958,59.631,-70.679,
00:00:25:567,-0.066,-0.382,0.822,622.375,64.209,-78.064,
00:00:25:583,-0.066,-0.425,0.828,604.858,71.594,-78.248,
00:00:25:600,-0.072,-0.473,0.82,539.856,88.134,-87.891,
00:00:25:617,-0.063,-0.509,0.875,437.133,96.74,-79.773,
00:00:25:633,-0.055,-0.511,0.922,319.885,101.867,-66.407,
00:00:25:650,-0.027,-0.492,1.011,248.718,88.928,-51.819,
00:00:25:667,-0.01,-0.434,1.01,235.229,91.308,-34.607,
00:00:25:683,0.004,-0.417,0.991,343.444,77.819,-21.119,
00:00:25:700,-0.003,-0.469,0.947,437.866,66.467,-6.409,
00:00:25:717,0,-0.547,0.9,463.134,70.129,-0.061,
00:00:25:733,0.013,-0.602,0.876,391.235,73.242,21.179,
00:00:25:750,0.016,-0.625,0.855,285.095,75.134,43.273,
00:00:25:767,0.015,-0.624,0.843,171.508,76.232,51.635,
00:00:25:783,0.027,-0.63,0.811,84.594,82.641,54.626,
00:00:25:800,0.029,-0.652,0.794,4.577,81.359,54.443,
00:00:25:817,0.025,-0.717,0.824,-108.521,77.331,52.307,
00:00:25:833,0.028,-0.686,0.886,-261.719,65.063,53.039,
00:00:25:850,0.042,-0.626,0.903,-414.49,59.143,51.879,
00:00:25:867,0.061,-0.533,0.908,-441.59,52.734,61.767,
00:00:25:883,0.071,-0.48,0.876,-374.878,46.936,66.162,
00:00:25:900,0.083,-0.539,0.87,-306.458,31.799,56.518,
00:00:25:917,0.097,-0.627,0.903,-388.855,14.77,58.654,
00:00:25:933,0.129,-0.611,0.941,-590.516,18.005,61.035,
00:00:25:950,0.156,-0.54,0.952,-735.962,21.789,60.974,
00:00:25:967,0.164,-0.458,0.977,-724.244,9.033,59.448,
00:00:25:983,0.168,-0.46,0.995,-685.059,-11.597,33.813,
00:00:26:0,0.164,-0.471,1.016,-713.807,-17.212,24.414,
00:00:26:17,0.152,-0.434,1.027,-763.306,-11.658,27.404,
00:00:26:33,0.148,-0.367,1.057,-755.982,-13.611,20.813,
00:00:26:50,0.151,-0.297,1.039,-663.941,-20.874,16.784,
00:00:26:67,0.14,-0.234,1.025,-524.109,-29.419,16.906,
00:00:26:83,0.119,-0.234,1.019,-380.31,-50.232,1.77,
00:00:26:100,0.094,-0.279,1.01,-302.308,-49.073,-6.409,
00:00:26:117,0.088,-0.295,1,-315.979,-38.331,-10.926,
00:00:26:133,0.078,-0.28,1.009,-348.694,-35.706,-14.161,
00:00:26:150,0.07,-0.264,1.013,-355.408,-43.152,-20.63,
00:00:26:167,0.059,-0.253,1.013,-357.911,-50.354,-24.781,
00:00:26:183,0.036,-0.209,1.002,-368.531,-47.547,-29.358,
00:00:26:200,0.02,-0.16,1.026,-338.623,-49.622,-40.039,
00:00:26:217,0.006,-0.12,1.021,-269.043,-50.049,-38.208,
00:00:26:233,-0.001,-0.095,1.026,-158.265,-60.242,-35.828,
00:00:26:250,-0.017,-0.125,1.029,-47.181,-78.797,-34.974,
00:00:26:267,-0.023,-0.163,1.032,11.23,-86.243,-39.673,
00:00:26:283,-0.028,-0.163,1.016,-8.912,-96.497,-42.786,
00:00:26:300,-0.045,-0.16,1.009,-9.949,-103.76,-51.087,
00:00:26:317,-0.061,-0.122,1.003,-10.315,-107.3,-50.049,
00:00:26:333,-0.08,-0.118,0.987,61.584,-104.371,-59.327,
00:00:26:350,-0.096,-0.121,0.961,123.901,-91.858,-51.209,
00:00:26:367,-0.098,-0.147,0.956,187.866,-85.45,-62.134,
00:00:26:383,-0.094,-0.174,0.957,185.119,-74.952,-73.304,
00:00:26:400,-0.081,-0.177,0.968,148.01,-72.815,-83.252,
00:00:26:417,-0.081,-0.157,0.942,145.385,-60.852,-86.304,
00:00:26:433,-0.093,-0.1,0.918,213.745,-59.082,-76.661,
00:00:26:450,-0.134,-0.089,0.94,391.784,-59.205,-70.374,
00:00:26:467,-0.114,-0.12,0.885,529.724,-19.715,-66.163,
00:00:26:483,-0.095,-0.174,0.846,597.107,-13.184,-64.454,
00:00:26:500,-0.115,-0.226,0.846,612.854,-6.897,-64.27,
00:00:26:517,-0.123,-0.278,0.84,631.836,18.127,-66.529,
00:00:26:533,-0.09,-0.299,0.818,626.403,37.414,-66.224,
00:00:26:550,-0.083,-0.331,0.785,616.333,50.781,-71.656,
00:00:26:567,-0.081,-0.354,0.782,578.064,68.969,-68.482,
00:00:26:583,-0.07,-0.371,0.766,527.099,99.304,-73.731,
00:00:26:600,-0.057,-0.381,0.757,497.985,118.652,-67.139,
00:00:26:617,-0.068,-0.42,0.787,497.375,125.549,-60.12,
00:00:26:633,-0.075,-0.457,0.832,462.097,146.667,-53.101,
00:00:26:650,-0.05,-0.488,0.858,393.31,158.691,-49.927,
00:00:26:667,-0.026,-0.495,0.876,310.241,155.456,-35.706,
00:00:26:683,-0.014,-0.5,0.891,269.409,154.052,-34.058,
00:00:26:700,0,-0.512,0.9,259.46,155.822,-27.344,
00:00:26:717,0.017,-0.56,0.925,265.136,146.179,-26.551,
00:00:26:733,0.024,-0.598,0.941,231.079,143.31,-26.856,
00:00:26:750,0.039,-0.64,0.973,141.845,127.685,-28.382,
00:00:26:767,0.047,-0.618,0.979,18.737,130.127,-16.114,
00:00:26:783,0.063,-0.578,0.943,-30.762,132.751,-14.588,
00:00:26:800,0.062,-0.579,0.891,-28.199,117.553,-11.597,
00:00:26:817,0.057,-0.622,0.889,-99.122,104.553,-5.494,
00:00:26:833,0.065,-0.659,0.921,-294.983,99.304,-1.954,
00:00:26:850,0.094,-0.651,0.946,-554.444,94.482,-2.381,
00:00:26:867,0.124,-0.576,0.94,-789.856,80.81,10.376,
00:00:26:883,0.134,-0.462,0.972,-890.992,58.776,18.188,
00:00:26:900,0.121,-0.417,0.94,-916.81,50.17,12.207,
00:00:26:917,0.135,-0.416,0.982,-968.445,25.878,14.221,
00:00:26:933,0.138,-0.396,0.989,-1085.572,29.663,21.179,
00:00:26:950,0.153,-0.332,1.008,-1203.492,43.64,22.705,
00:00:26:967,0.163,-0.195,1.001,-1205.018,61.279,34.973,
00:00:26:983,0.168,-0.075,1.037,-1004.029,51.33,40.039,
00:00:27:0,0.158,-0.019,1.042,-741.333,36.01,40.954,
00:00:27:17,0.158,-0.021,1.08,-438.05,17.15,46.447,
00:00:27:33,0.154,-0.075,1.099,-216.736,1.831,44.86,
00:00:27:50,0.159,-0.13,1.096,-87.037,-21.058,40.954,
00:00:27:67,0.143,-0.184,1.07,-47.852,-34.668,29.052,
00:00:27:83,0.071,-0.2,1.012,-118.897,-41.016,7.934,
00:00:27:100,0.069,-0.173,1.001,-157.654,-28.26,-4.151,
00:00:27:117,0.072,-0.173,1.011,-172.974,-34.119,-24.109,
00:00:27:133,0.068,-0.175,1.031,-195.923,-33.326,-39.124,
00:00:27:150,0.061,-0.179,1.079,-220.154,-50.843,-60.303,
00:00:27:167,0.032,-0.166,1.089,-240.54,-48.768,-63.294,
00:00:27:183,0.028,-0.146,1.107,-221.253,-82.886,-72.266,
00:00:27:200,0.017,-0.084,1.103,-224.122,-103.089,-67.322,
00:00:27:217,0.003,-0.013,1.064,-181.275,-121.277,-68.299,
00:00:27:233,-0.03,0.039,1.011,-69.642,-118.714,-53.467,
00:00:27:250,-0.031,0.046,1.02,60.669,-127.686,-48.645,
00:00:27:267,-0.045,0.014,0.984,191.528,-119.263,-33.692,
00:00:27:283,-0.027,-0.039,0.969,251.953,-124.878,-38.636,
00:00:27:300,-0.029,-0.071,0.966,242.309,-120.179,-41.871,
00:00:27:317,-0.059,-0.099,0.983,222.595,-119.019,-46.082,
00:00:27:333,-0.072,-0.104,0.944,203.125,-92.469,-46.082,
00:00:27:350,-0.05,-0.058,0.925,261.291,-90.821,-37.232,
00:00:27:367,-0.063,-0.083,0.877,522.522,-47.242,-24.598,
00:00:27:383,-0.073,-0.11,0.832,568.908,-19.959,-31.434,
00:00:27:400,-0.076,-0.127,0.796,603.393,10.009,-37.049,
00:00:27:417,-0.108,-0.174,0.762,677.368,48.156,-39.551,
00:00:27:433,-0.11,-0.238,0.79,753.479,65.246,-37.72,
00:00:27:450,-0.106,-0.318,0.816,769.47,93.017,-48.035,
00:00:27:467,-0.083,-0.398,0.843,744.323,105.896,-54.749,
00:00:27:483,-0.064,-0.437,0.883,667.846,109.863,-49.195,
00:00:27:500,-0.051,-0.453,0.885,601.562,107.971,-44.007,
00:00:27:517,-0.045,-0.467,0.892,545.349,102.6,-62.317,
00:00:27:533,-0.049,-0.516,0.901,479.431,99.975,-87.769,
00:00:27:550,-0.038,-0.537,0.916,366.211,91.369,-92.286,
00:00:27:567,-0.036,-0.528,0.908,253.173,90.82,-83.13,
00:00:27:583,-0.035,-0.492,0.89,184.936,98.877,-81.055,
00:00:27:600,-0.015,-0.477,0.875,164.795,107.727,-92.774,
00:00:27:617,-0.016,-0.498,0.852,158.142,114.929,-98.023,
00:00:27:633,-0.027,-0.526,0.875,107.971,112.609,-88.44,
00:00:27:650,-0.038,-0.522,0.903,38.818,117.187,-71.961,
00:00:27:667,-0.023,-0.503,0.923,-38.147,124.145,-63.599,
00:00:27:683,0.014,-0.463,0.932,-64.942,124.511,-51.453,
00:00:27:700,0.039,-0.454,0.923,-37.354,119.934,-45.655,
00:00:27:717,0.051,-0.482,0.92,-17.945,109.253,-39.978,
00:00:27:733,0.056,-0.548,0.917,-57.129,99.609,-40.711,
00:00:27:750,0.055,-0.585,0.943,-192.261,93.017,-35.523,
00:00:27:767,0.077,-0.548,0.926,-376.282,98.449,-14.71,
00:00:27:783,0.101,-0.49,0.934,-496.949,98.022,-5.066,
00:00:27:800,0.11,-0.438,0.944,-546.021,94.299,-1.343,
00:00:27:817,0.122,-0.391,0.985,-546.753,84.716,8.911,
00:00:27:833,0.142,-0.357,0.999,-525.208,81.298,22.338,
00:00:27:850,0.17,-0.313,1.037,-463.929,48.278,31.066,
00:00:27:867,0.191,-0.309,1.033,-371.46,40.527,33.874,
00:00:27:883,0.205,-0.322,1.035,-288.514,11.352,42.785,
00:00:27:900,0.184,-0.335,1.014,-221.07,-2.259,51.635,
00:00:27:917,0.176,-0.345,1.008,-179.383,-13.977,55.786,
00:00:27:933,0.165,-0.367,1.004,-176.514,-23.438,56.884,
00:00:27:950,0.162,-0.365,1.009,-216.858,-30.152,69.274,
00:00:27:967,0.163,-0.357,1,-269.349,-37.11,70.983,
00:00:27:983,0.153,-0.334,0.994,-333.191,-41.871,75.561,
00:00:28:0,0.135,-0.314,0.999,-390.259,-42.481,75.439,
00:00:28:17,0.137,-0.309,1.015,-405.396,-50.171,73.242,
00:00:28:33,0.125,-0.282,1.027,-436.097,-48.706,79.406,
00:00:28:50,0.12,-0.267,1.037,-442.566,-54.81,66.894,
00:00:28:67,0.102,-0.23,1.03,-436.768,-55.115,72.326,
00:00:28:83,0.094,-0.193,1.032,-389.039,-67.444,70.434,
00:00:28:100,0.076,-0.182,1.034,-316.773,-81.055,64.941,
00:00:28:117,0.064,-0.185,1.046,-270.081,-86.914,48.278,
00:00:28:133,0.055,-0.131,1.042,-235.718,-79.041,43.212,
00:00:28:150,0.057,-0.062,1.041,-112.366,-85.267,37.048,
00:00:28:167,0.051,-0.072,1.036,25.207,-117.31,21.362,
00:00:28:183,0.016,-0.14,0.99,110.168,-118.897,7.263,
00:00:28:200,-0.053,-0.213,0.92,219.482,-87.342,24.658,
00:00:28:217,-0.038,-0.228,1.016,343.322,-115.296,32.898,
00:00:28:233,-0.038,-0.287,1.016,334.35,-118.592,12.451,
00:00:28:250,-0.021,-0.342,1.017,118.835,-143.86,-44.129,
00:00:28:267,-0.065,-0.283,1,65.063,-148.987,-51.087,
00:00:28:283,-0.084,-0.234,1.004,122.07,-152.771,-67.505,
00:00:28:300,-0.09,-0.211,0.975,206.97,-144.837,-71.961,
00:00:28:317,-0.099,-0.23,0.926,297.729,-128.479,-89.234,
00:00:28:333,-0.101,-0.244,0.923,331.115,-112.488,-99.06,
00:00:28:350,-0.112,-0.258,0.876,323.608,-74.83,-108.277,
00:00:28:367,-0.112,-0.236,0.839,325.256,-41.932,-107.85,
00:00:28:383,-0.122,-0.215,0.814,383.117,-23.194,-96.924,
00:00:28:400,-0.135,-0.228,0.804,458.252,15.38,-95.52,
00:00:28:417,-0.112,-0.273,0.77,492.614,62.377,-103.821,
00:00:28:433,-0.085,-0.283,0.738,501.281,93.75,-93.384,
00:00:28:450,-0.086,-0.308,0.713,531.677,108.276,-87.83,
00:00:28:467,-0.089,-0.353,0.701,540.039,139.16,-92.102,
00:00:28:483,-0.078,-0.385,0.728,509.033,166.259,-85.511,
00:00:28:500,-0.079,-0.433,0.773,451.843,189.392,-83.191,
00:00:28:517,-0.073,-0.485,0.853,375.549,195.434,-79.102,mixLH
00:00:28:533,-0.064,-0.525,0.916,266.845,188.11,-65.491,
00:00:28:550,-0.037,-0.54,0.955,195.129,173.828,-63.721,
00:00:28:567,-0.002,-0.535,0.971,152.221,151.184,-64.759,
00:00:28:583,0.006,-0.559,0.979,144.653,122.863,-76.477,
00:00:28:600,-0.002,-0.592,1.009,129.516,97.045,-76.783,
00:00:28:617,-0.004,-0.589,1.014,70.312,79.65,-79.773,
00:00:28:633,0.017,-0.561,0.989,-13.245,65.856,-79.651,
00:00:28:650,0.02,-0.55,0.963,-74.83,52.124,-82.398,
00:00:28:667,0.018,-0.554,0.962,-154.48,51.513,-76.294,
00:00:28:683,0.018,-0.537,0.944,-243.348,56.701,-63.721,
00:00:28:700,0.04,-0.504,0.94,-344.605,56.823,-53.223,
00:00:28:717,0.055,-0.454,0.924,-417.725,61.401,-38.269,
00:00:28:733,0.072,-0.416,0.924,-469.117,54.992,-26.673,
00:00:28:750,0.082,-0.409,0.923,-524.659,48.828,-13.245,
00:00:28:767,0.102,-0.408,0.917,-623.536,29.602,2.868,
00:00:28:783,0.112,-0.396,0.92,-755.738,20.324,21.301,
00:00:28:800,0.113,-0.326,0.934,-876.343,24.047,44.128,
00:00:28:817,0.112,-0.244,0.954,-886.048,38.696,64.636,
00:00:28:833,0.133,-0.195,1.006,-812.256,32.592,74.523,
00:00:28:850,0.149,-0.154,1.037,-694.458,29.541,88.134,
00:00:28:867,0.163,-0.158,1.051,-573.548,29.48,93.444,
00:00:28:883,0.173,-0.163,1.064,-421.143,20.446,104.797,
00:00:28:900,0.179,-0.19,1.092,-293.946,-3.724,99.853,
00:00:28:917,0.158,-0.211,1.093,-197.266,-16.907,100.525,
00:00:28:933,0.137,-0.227,1.098,-153.504,-32.166,88.806,
00:00:28:950,0.118,-0.218,1.077,-137.391,-37.72,82.763,
00:00:28:967,0.101,-0.218,1.061,-115.723,-47.852,76.049,
00:00:28:983,0.08,-0.216,1.051,-84.29,-56.458,72.021,
00:00:29:0,0.066,-0.218,1.053,-77.332,-64.454,71.96,
00:00:29:17,0.049,-0.2,1.033,-84.839,-74.341,66.101,
00:00:29:33,0.036,-0.219,1.038,-107.3,-81.971,53.161,
00:00:29:50,0.02,-0.182,1.029,-126.893,-89.356,42.236,
00:00:29:67,0.004,-0.156,1.032,-128.357,-108.887,35.217,
00:00:29:83,-0.008,-0.139,1.013,-118.592,-96.497,24.902,
00:00:29:100,-0.026,-0.13,0.992,-79.895,-89.966,21.423,
00:00:29:117,-0.036,-0.151,0.997,-21.546,-97.962,18.737,
00:00:29:133,-0.042,-0.181,1.012,-35.95,-96.375,5.371,
00:00:29:150,-0.04,-0.184,1.025,-111.695,-99.244,-19.165,
00:00:29:167,-0.04,-0.159,1.037,-187.745,-104.065,-36.377,
00:00:29:183,-0.066,-0.152,1.01,-237.854,-104.493,-53.223,
00:00:29:200,-0.097,-0.135,1.03,-185.669,-99.305,-46.082,
00:00:29:217,-0.115,-0.094,1.026,-45.105,-101.868,-35.645,
00:00:29:233,-0.101,-0.073,1.02,114.38,-113.16,-26.734,
00:00:29:250,-0.102,-0.085,1.022,206.482,-115.113,-38.514,
00:00:29:267,-0.098,-0.152,1.006,248.962,-130.738,-65.186,
00:00:29:283,-0.092,-0.189,1.009,189.88,-137.269,-74.158,
00:00:29:300,-0.119,-0.154,0.974,146.911,-129.09,-69.031,
00:00:29:317,-0.148,-0.118,0.932,201.477,-105.103,-70.191,
00:00:29:333,-0.147,-0.099,0.847,365.722,-69.886,-73.609,
00:00:29:350,-0.153,-0.111,0.803,507.019,-42.481,-65.796,
00:00:29:367,-0.156,-0.166,0.786,575.988,9.399,-95.215,
00:00:29:383,-0.122,-0.241,0.78,563.232,48.889,-111.329,
00:00:29:400,-0.11,-0.268,0.768,503.051,79.834,-99.427,
00:00:29:417,-0.12,-0.306,0.781,437.622,90.942,-112.977,
00:00:29:433,-0.125,-0.361,0.862,392.761,100.83,-120.972,
00:00:29:450,-0.119,-0.387,0.926,301.147,105.774,-111.878,
00:00:29:467,-0.099,-0.375,0.952,196.533,102.417,-117.005,
00:00:29:483,-0.081,-0.36,0.97,140.442,80.139,-123.047,
00:00:29:500,-0.087,-0.361,0.967,119.567,60.241,-129.09,
00:00:29:517,-0.083,-0.387,0.993,93.505,39.306,-137.146,
00:00:29:533,-0.083,-0.372,0.986,26.489,38.086,-134.095,
00:00:29:550,-0.083,-0.338,0.981,-14.222,51.391,-135.56,
00:00:29:567,-0.077,-0.313,0.95,-8.973,66.772,-133.606,
00:00:29:583,-0.077,-0.305,0.94,17.15,89.66,-125.794,
00:00:29:600,-0.078,-0.313,0.948,35.095,108.032,-118.897,
00:00:29:617,-0.07,-0.323,0.97,20.507,126.953,-106.385,
00:00:29:633,-0.058,-0.321,0.996,-1.282,134.216,-89.112,
00:00:29:650,-0.053,-0.297,0.992,-8.667,143.066,-68.36,
00:00:29:667,-0.035,-0.29,0.978,9.155,143.921,-51.026,
00:00:29:683,-0.027,-0.297,0.954,33.752,147.949,-37.598,
00:00:29:700,-0.003,-0.334,0.945,25.329,142.395,-34.974,
00:00:29:717,0.018,-0.394,0.973,-40.101,139.282,-34.18,
00:00:29:733,0.041,-0.429,1.003,-186.951,131.775,-29.786,
00:00:29:750,0.057,-0.396,1.01,-326.172,139.526,-18.86,
00:00:29:767,0.077,-0.311,1.011,-394.654,134.704,-6.653,
00:00:29:783,0.097,-0.249,1.007,-370.667,115.722,0.427,
00:00:29:800,0.104,-0.23,0.998,-323.853,99.792,9.155,
00:00:29:817,0.112,-0.267,1.018,-321.595,74.585,14.77,
00:00:29:833,0.105,-0.297,1.023,-405.213,69.274,27.587,
00:00:29:850,0.127,-0.275,1.039,-510.193,68.054,40.771,
00:00:29:867,0.155,-0.208,1.02,-544.861,73.12,54.809,
00:00:29:883,0.178,-0.16,1.023,-524.353,48.4,63.11,
00:00:29:900,0.17,-0.141,1.024,-483.094,36.987,66.528,
00:00:29:917,0.171,-0.163,1.053,-438.904,18.371,63.171,
00:00:29:933,0.16,-0.174,1.044,-429.688,27.282,67.199,
00:00:29:950,0.174,-0.141,1.037,-404.664,29.968,76.66,
00:00:29:967,0.168,-0.096,1.035,-334.595,15.014,78.857,
00:00:29:983,0.141,-0.112,1.035,-248.719,4.211,64.453,
00:00:30:0,0.116,-0.116,1.035,-195.984,3.601,62.622,
00:00:30:17,0.093,-0.123,1.037,-182.862,4.272,52.307,
00:00:30:33,0.087,-0.14,1.057,-170.777,0,41.931,
00:00:30:50,0.074,-0.141,1.064,-174.073,-11.109,29.174,
00:00:30:67,0.056,-0.153,1.075,-183.106,-18.067,11.596,
00:00:30:83,0.041,-0.153,1.065,-195.557,-34.363,-2.32,
00:00:30:100,0.025,-0.133,1.062,-204.895,-49.683,-17.151,
00:00:30:117,0.008,-0.097,1.071,-207.154,-61.341,-30.884,
00:00:30:133,-0.011,-0.095,1.051,-190.003,-75.318,-49.805,
00:00:30:150,-0.022,-0.067,1.061,-172.12,-85.572,-52.857,
00:00:30:167,-0.026,-0.037,1.046,-120.545,-94.422,-62.867,
00:00:30:183,-0.035,-0.033,1.044,-65.064,-110.535,-72.815,
00:00:30:200,-0.058,-0.041,1.022,-43.58,-112.488,-79.163,
00:00:30:217,-0.057,-0.022,1.002,-62.989,-110.718,-88.623,
00:00:30:233,-0.07,0.014,0.977,-40.65,-108.521,-86.365,
00:00:30:250,-0.093,0.03,0.97,30.7,-104.432,-82.337,
00:00:30:267,-0.092,0.025,0.968,75.378,-95.093,-82.459,
00:00:30:283,-0.098,0.001,0.95,137.512,-81.849,-85.206,
00:00:30:300,-0.09,-0.02,0.954,174.56,-83.497,-88.074,
00:00:30:317,-0.114,-0.059,0.965,162.597,-81.299,-84.717,
00:00:30:333,-0.119,-0.063,0.982,135.376,-77.82,-75.928,
00:00:30:350,-0.109,-0.021,1.008,127.075,-89.295,-65.796,
00:00:30:367,-0.11,0.033,0.995,179.321,-90.332,-61.89,
00:00:30:383,-0.101,0.028,0.995,281.494,-105.835,-51.697,
00:00:30:400,-0.124,0.012,0.978,365.295,-113.038,-36.194,
00:00:30:417,-0.125,-0.005,0.97,446.716,-108.094,-30.274,
00:00:30:433,-0.127,-0.047,0.909,542.785,-89.356,-35.645,
00:00:30:450,-0.111,-0.084,0.896,595.825,-81.665,-30.152,
00:00:30:467,-0.118,-0.118,0.881,657.714,-66.407,-26.917,
00:00:30:483,-0.123,-0.181,0.854,701.477,-34.668,-31.311,
00:00:30:500,-0.128,-0.25,0.84,712.158,-0.611,-48.768,
00:00:30:517,-0.109,-0.299,0.859,665.771,24.78,-57.435,
00:00:30:533,-0.103,-0.318,0.869,600.769,52.673,-53.101,
00:00:30:550,-0.094,-0.332,0.905,550.903,59.814,-55.726,
00:00:30:567,-0.09,-0.336,0.871,497.68,85.876,-54.505,
00:00:30:583,-0.08,-0.346,0.861,461.364,96.74,-53.467,
00:00:30:600,-0.083,-0.359,0.879,440.612,106.628,-36.255,
00:00:30:617,-0.066,-0.38,0.899,416.076,110.595,-29.053,
00:00:30:633,-0.05,-0.401,0.914,367.431,113.647,-10.682,
00:00:30:650,-0.034,-0.405,0.924,311.462,121.154,9.033,
00:00:30:667,-0.025,-0.396,0.915,274.78,135.192,31.86,
00:00:30:683,-0.019,-0.433,0.928,279.785,126.709,43.212,
00:00:30:700,-0.014,-0.49,1,245.91,110.229,61.95,
00:00:30:717,0.01,-0.508,1.04,112.365,102.905,71.838,
00:00:30:733,0.059,-0.473,1.033,29.663,90.942,90.698,
00:00:30:750,0.087,-0.474,1.02,40.222,52.917,88.073,
00:00:30:767,0.079,-0.516,0.986,54.687,40.466,78.918,
00:00:30:783,0.079,-0.568,0.98,-10.315,23.986,68.969,
00:00:30:800,0.071,-0.569,0.93,-175.232,34.179,72.509,
00:00:30:817,0.081,-0.54,0.953,-314.209,42.419,72.876,
00:00:30:833,0.095,-0.5,0.947,-440.674,57.006,69.641,
00:00:30:850,0.125,-0.473,0.968,-499.39,49.438,64.025,
00:00:30:867,0.136,-0.433,0.978,-563.111,49.499,60.913,
00:00:30:883,0.128,-0.421,0.984,-592.591,39.428,52.246,
00:00:30:900,0.123,-0.391,0.997,-621.949,42.602,49.621,
00:00:30:917,0.125,-0.352,1,-633.545,47.79,48.217,
00:00:30:933,0.124,-0.302,1.013,-616.761,44.738,50.17,
00:00:30:950,0.119,-0.282,1.024,-567.017,39.917,44.738,
00:00:30:967,0.118,-0.244,1.019,-488.343,36.621,49.865,
00:00:30:983,0.106,-0.207,1.026,-415.528,26.489,55.481,
00:00:31:0,0.093,-0.21,1.025,-320.801,12.878,52.856,
00:00:31:17,0.079,-0.231,1.03,-267.579,8.911,51.391,
00:00:31:33,0.064,-0.234,1.027,-247.803,3.723,49.987,
00:00:31:50,0.056,-0.238,1.039,-236.084,-7.264,43.64,
00:00:31:67,0.047,-0.226,1.041,-224.793,-17.579,40.1,
00:00:31:83,0.03,-0.235,1.037,-208.069,-30.64,25.085,
00:00:31:100,0.016,-0.217,1.033,-198.487,-42.725,20.629,
00:00:31:117,0.001,-0.174,1.025,-141.724,-54.871,22.461,
00:00:31:133,-0.018,-0.176,1.014,-76.6,-56.519,14.709,
00:00:31:150,-0.024,-0.206,1.005,-50.354,-61.646,-3.296,
00:00:31:167,-0.02,-0.229,1.015,-75.196,-68.665,-23.621,
00:00:31:183,-0.014,-0.235,1.045,-115.601,-82.825,-49.805,
00:00:31:200,-0.02,-0.201,1.078,-156.311,-93.628,-69.703,
00:00:31:217,-0.059,-0.18,1.041,-102.173,-104.798,-67.994,
00:00:31:233,-0.067,-0.14,1.03,9.277,-119.873,-61.158,
00:00:31:250,-0.075,-0.11,0.997,101.44,-120.24,-69.764,
00:00:31:267,-0.084,-0.132,0.966,191.467,-124.085,-85.999,
00:00:31:283,-0.081,-0.154,0.959,226.013,-116.761,-106.812,
00:00:31:300,-0.097,-0.201,0.895,230.896,-101.258,-127.137,
00:00:31:317,-0.108,-0.225,0.884,265.197,-98.633,-121.46,
00:00:31:333,-0.113,-0.226,0.888,259.46,-84.229,-134.644,
00:00:31:350,-0.111,-0.215,0.855,227.295,-51.453,-158.387,
00:00:31:367,-0.102,-0.194,0.868,226.44,-39.978,-165.955,
00:00:31:383,-0.103,-0.165,0.874,240.173,-37.72,-159.058,
00:00:31:400,-0.136,-0.13,0.884,327.087,-39.246,-143.555,
00:00:31:417,-0.16,-0.135,0.888,469.665,-19.165,-119.507,
00:00:31:433,-0.138,-0.175,0.869,593.078,2.502,-121.094,
00:00:31:450,-0.138,-0.269,0.833,620.727,16.967,-121.888,
00:00:31:467,-0.146,-0.346,0.857,588.44,21.24,-115.967,
00:00:31:483,-0.131,-0.388,0.894,484.436,30.761,-109.681,
00:00:31:500,-0.12,-0.403,0.926,415.527,24.047,-99.122,
00:00:31:517,-0.11,-0.407,0.936,372.253,24.414,-100.159,
00:00:31:533,-0.089,-0.401,0.926,344.604,23.864,-103.028,
00:00:31:550,-0.091,-0.421,0.888,325.256,27.587,-109.436,
00:00:31:567,-0.09,-0.449,0.867,291.442,34.484,-113.892,
00:00:31:583,-0.083,-0.463,0.888,227.539,44.311,-110.474,
00:00:31:600,-0.074,-0.447,0.904,159.912,52.307,-99.183,
00:00:31:617,-0.053,-0.414,0.923,128.418,55.542,-81.91,
00:00:31:633,-0.049,-0.378,0.872,137.939,82.946,-70.618,
00:00:31:650,-0.038,-0.386,0.83,179.931,106.018,-70.069,
00:00:31:667,-0.036,-0.447,0.808,197.448,123.169,-58.228,
00:00:31:683,-0.034,-0.536,0.931,142.7,103.454,-25.879,
00:00:31:700,-0.02,-0.577,1.018,-45.105,104.37,-13.428,
00:00:31:717,0.048,-0.541,1.047,-255.982,91.735,12.756,
00:00:31:733,0.109,-0.48,1.034,-360.352,55.603,22.766,
00:00:31:750,0.082,-0.453,1.001,-425.049,18.554,41.137,
00:00:31:767,0.016,-0.419,0.959,-484.314,21.911,67.932,
00:00:31:783,0.012,-0.382,0.98,-499.329,48.278,90.087,
00:00:31:800,0.069,-0.347,1.01,-487.793,63.781,97.839,
00:00:31:817,0.126,-0.29,1.028,-460.938,66.467,106.384,
00:00:31:833,0.135,-0.319,1.034,-373.047,62.683,119.506,
00:00:31:850,0.138,-0.344,1.038,-291.382,45.41,120.3,
00:00:31:867,0.146,-0.396,1.048,-291.321,28.137,114.441,
00:00:31:883,0.134,-0.434,1.032,-371.155,18.981,100.83,
00:00:31:900,0.136,-0.405,1.041,-448.914,19.226,99.731,
00:00:31:917,0.119,-0.33,1.027,-449.891,23.925,94.482,
00:00:31:933,0.112,-0.263,0.997,-381.714,21.057,85.937,
00:00:31:950,0.093,-0.248,0.995,-263.55,11.413,75.927,
00:00:31:967,0.069,-0.253,0.992,-168.274,16.052,81.909,
00:00:31:983,0.055,-0.251,0.982,-114.747,23.437,89.843,
00:00:32:0,0.045,-0.26,0.987,-105.103,22.033,89.904,
00:00:32:17,0.043,-0.266,0.988,-124.085,17.822,92.041,
00:00:32:33,0.04,-0.277,1.008,-166.26,5.127,83.801,
00:00:32:50,0,-0.291,1.033,-220.887,-4.7,71.35,
00:00:32:67,0.01,-0.283,1.042,-284.79,-12.635,64.453,
00:00:32:83,0.007,-0.262,1.051,-302.002,-27.222,52.978,
00:00:32:100,-0.002,-0.249,1.069,-273.011,-43.58,47.18,
00:00:32:117,-0.015,-0.255,1.085,-231.873,-68.116,33.569,
00:00:32:133,-0.026,-0.249,1.088,-205.75,-92.896,28.869,
00:00:32:150,-0.029,-0.211,1.055,-210.999,-99.488,-2.076,
00:00:32:167,-0.031,-0.204,1.064,-199.524,-127.076,-31.983,
00:00:32:183,-0.064,-0.167,1.045,-211.853,-130.066,-38.331,
00:00:32:200,-0.088,-0.139,1.026,-211.609,-127.381,-62.867,
00:00:32:217,-0.098,-0.131,1.002,-174.988,-125.061,-77.881,
00:00:32:233,-0.123,-0.133,0.992,-116.028,-124.085,-77.698,
00:00:32:250,-0.121,-0.115,1.006,-3.418,-134.583,-70.435,
00:00:32:267,-0.129,-0.117,0.974,70.556,-124.939,-75.257,
00:00:32:283,-0.128,-0.104,0.944,101.257,-124.451,-78.309,
00:00:32:300,-0.155,-0.114,0.89,149.78,-94.971,-81.849,
00:00:32:317,-0.145,-0.08,0.822,160.583,-57.496,-79.346,
00:00:32:333,-0.159,-0.079,0.806,235.839,-35.34,-73.365,
00:00:32:350,-0.173,-0.094,0.836,364.196,-9.583,-64.637,
00:00:32:367,-0.144,-0.13,0.845,476.318,19.958,-56.397,
00:00:32:383,-0.094,-0.167,0.879,539.489,20.874,-48.462,
00:00:32:400,-0.099,-0.195,0.864,561.157,29.785,-50.66,
00:00:32:417,-0.113,-0.255,0.82,574.279,33.874,-64.698,
00:00:32:433,-0.131,-0.329,0.82,578.918,40.649,-67.444,
00:00:32:450,-0.127,-0.381,0.86,539.428,44.738,-65.552,
00:00:32:467,-0.1,-0.392,0.906,454.467,44.189,-61.707,
00:00:32:483,-0.087,-0.394,0.937,366.516,26.611,-65.491,
00:00:32:500,-0.09,-0.384,0.953,308.776,22.094,-69.947,
00:00:32:517,-0.084,-0.401,0.928,275.207,19.104,-87.708,mixLH
00:00:32:533,-0.103,-0.408,0.927,207.031,14.16,-84.351,
00:00:32:550,-0.121,-0.409,0.913,157.287,18.188,-80.018,
00:00:32:567,-0.129,-0.39,0.95,82.763,17.517,-65.247,
00:00:32:583,-0.131,-0.353,0.978,35.461,26.855,-45.96,
00:00:32:600,-0.104,-0.31,0.978,36.499,41.626,-25.269,
00:00:32:617,-0.086,-0.303,0.956,82.336,44.616,-13.428,
00:00:32:633,-0.077,-0.346,0.93,141.418,50.659,0.061,
00:00:32:650,-0.056,-0.407,0.93,126.342,49.255,8.3,
00:00:32:667,-0.048,-0.457,0.902,60.363,57.495,23.01,
00:00:32:683,-0.043,-0.472,0.916,-67.566,57.434,33.569,
00:00:32:700,-0.038,-0.461,0.926,-182.496,78.674,61.95,
00:00:32:717,-0.012,-0.421,0.94,-216.065,95.336,56.823,
00:00:32:733,0.021,-0.437,0.972,-206.727,93.2,49.499,
00:00:32:750,0.053,-0.471,1.01,-269.41,73.669,40.405,
00:00:32:767,0.061,-0.477,1.03,-423.584,72.326,44.982,
00:00:32:783,0.085,-0.44,1.046,-571.961,70.495,32.714,
00:00:32:800,0.11,-0.398,1.05,-639.527,65.734,25.451,
00:00:32:817,0.123,-0.281,1.088,-642.395,34.24,-1.465,
00:00:32:833,0.117,-0.209,1.062,-607.361,44.372,13.732,
00:00:32:850,0.108,-0.15,1.049,-482.056,48.645,9.399,
00:00:32:867,0.112,-0.119,1.046,-291.81,26.916,14.282,
00:00:32:883,0.106,-0.137,1.016,-169.007,20.874,12.085,
00:00:32:900,0.091,-0.177,1.003,-82.215,11.657,7.202,
00:00:32:917,0.067,-0.22,1.016,-66.529,16.54,11.352,
00:00:32:933,0.067,-0.232,1.01,-89.966,19.592,8.117,
00:00:32:950,0.066,-0.226,1.011,-133.057,17.456,10.376,
00:00:32:967,0.038,-0.21,1.033,-189.27,-1.709,-1.831,
00:00:32:983,0.023,-0.202,1.032,-224.06,-7.752,-14.344,
00:00:33:0,0.012,-0.196,1.072,-230.896,-27.771,-25.147,
00:00:33:17,-0.008,-0.177,1.058,-248.902,-33.448,-30.03,
00:00:33:33,-0.022,-0.166,1.069,-232.972,-37.476,-36.927,
00:00:33:50,-0.033,-0.157,1.078,-184.021,-64.026,-41.687,
00:00:33:67,-0.051,-0.143,1.092,-136.048,-83.863,-54.81,
00:00:33:83,-0.054,-0.126,1.069,-109.253,-91.004,-65.369,
00:00:33:100,-0.067,-0.119,1.086,-90.882,-122.559,-78.553,
00:00:33:117,-0.096,-0.09,1.083,-90.699,-139.771,-83.558,
00:00:33:133,-0.113,-0.066,1.029,-81.421,-127.869,-88.257,
00:00:33:150,-0.117,0.007,0.989,-18.433,-119.935,-74.097,
00:00:33:167,-0.134,0.032,0.949,181.701,-112.793,-60.486,
00:00:33:183,-0.158,0.019,0.924,393.371,-106.385,-40.711,
00:00:33:200,-0.179,-0.025,0.911,514.709,-92.53,-40.772,
00:00:33:217,-0.171,-0.103,0.89,545.593,-64.881,-56.641,
00:00:33:233,-0.153,-0.141,0.885,526.001,-46.204,-38.331,
00:00:33:250,-0.156,-0.148,0.831,554.931,-9.217,-29.053,
00:00:33:267,-0.162,-0.201,0.776,612.732,28.991,-53.711,
00:00:33:283,-0.145,-0.271,0.758,632.019,58.776,-62.439,
00:00:33:300,-0.113,-0.333,0.744,576.172,85.266,-61.158,
00:00:33:317,-0.1,-0.379,0.796,493.347,72.265,-63.172,
00:00:33:334,-0.099,-0.396,0.867,377.929,60.363,-63.538,
00:00:33:350,-0.063,-0.385,0.922,286.804,54.077,-60.364,
00:00:33:367,-0.087,-0.346,0.924,250.061,50.231,-62.867,
00:00:33:384,-0.117,-0.366,0.885,258.972,41.32,-75.745,
00:00:33:400,-0.114,-0.381,0.859,254.089,48.156,-75.623,
00:00:33:417,-0.107,-0.414,0.889,243.713,51.208,-78.309,
00:00:33:434,-0.1,-0.416,0.906,187.866,61.279,-72.571,
00:00:33:450,-0.091,-0.403,0.892,140.319,81.054,-66.163,
00:00:33:467,-0.081,-0.402,0.89,128.662,94.604,-70.923,
00:00:33:484,-0.084,-0.425,0.88,141.174,115.234,-72.327,
00:00:33:500,-0.08,-0.476,0.907,128.967,120.788,-82.947,
00:00:33:517,-0.063,-0.487,0.98,11.718,129.699,-68.238,
00:00:33:534,-0.046,-0.48,0.987,-138.306,144.531,-68.97,
00:00:33:550,-0.005,-0.43,1.01,-275.513,134.338,-55.909,
00:00:33:567,0.011,-0.397,1.001,-343.689,125.427,-55.603,
00:00:33:584,0.029,-0.376,1.039,-363.648,109.008,-52.247,
00:00:33:600,0.034,-0.359,1.048,-395.63,102.295,-47.364,
00:00:33:617,0.051,-0.334,1.052,-428.589,95.764,-29.908,
00:00:33:634,0.074,-0.316,1.052,-440.064,96.801,-15.381,
00:00:33:650,0.104,-0.289,1.06,-468.873,77.758,5.249,
00:00:33:667,0.112,-0.278,1.046,-503.663,74.646,13.916,
00:00:33:684,0.13,-0.213,1.051,-549.317,66.528,50.354,
00:00:33:700,0.13,-0.19,1.059,-542.725,58.776,59.143,
00:00:33:717,0.146,-0.141,1.067,-506.592,52.368,87.707,
00:00:33:734,0.154,-0.116,1.064,-403.077,47.119,95.275,
00:00:33:750,0.158,-0.132,1.049,-242.432,34.851,101.257,
00:00:33:767,0.152,-0.151,1.053,-120.911,17.334,107.727,
00:00:33:784,0.136,-0.218,1.035,-72.327,7.751,94.543,
00:00:33:800,0.115,-0.258,1.055,-102.417,-2.808,92.163,
00:00:33:817,0.099,-0.271,1.047,-167.176,-4.822,82.885,
00:00:33:834,0.085,-0.254,1.03,-217.957,-14.527,73.974,
00:00:33:850,0.076,-0.214,1.045,-253.113,-26.917,64.636,
00:00:33:867,0.043,-0.168,1.024,-249.451,-27.71,55.603,
00:00:33:884,0.036,-0.162,1.061,-220.887,-36.316,41.626,
00:00:33:900,0.018,-0.144,1.038,-187.623,-36.988,36.682,
00:00:33:917,0.012,-0.151,1.06,-111.084,-53.223,32.348,
00:00:33:934,-0.001,-0.163,1.046,-82.947,-62.378,24.719,
00:00:33:950,-0.012,-0.167,1.049,-64.515,-92.896,14.404,
00:00:33:967,-0.035,-0.136,1.057,-29.236,-82.215,8.422,
00:00:33:984,-0.051,-0.056,1.012,158.264,-102.478,3.662,
00:00:34:0,-0.06,-0.08,1.025,300.781,-118.836,4.943,
00:00:34:17,-0.083,-0.143,1.015,356.628,-119.629,-3.602,
00:00:34:34,-0.094,-0.174,0.998,370.422,-113.831,-7.813,
00:00:34:50,-0.109,-0.173,0.936,436.95,-78.797,-33.326,
00:00:34:67,-0.124,-0.184,0.851,444.03,-42.298,-36.805,
00:00:34:84,-0.175,-0.189,0.855,504.76,-28.992,-31.617,
00:00:34:100,-0.199,-0.238,0.828,578.003,28.137,-41.748,
00:00:34:117,-0.123,-0.336,0.823,524.414,52.307,-66.773,
00:00:34:134,-0.1,-0.357,0.86,455.81,51.391,-69.092,
00:00:34:150,-0.102,-0.353,0.804,411.255,59.57,-62.012,
00:00:34:167,-0.108,-0.424,0.829,394.836,66.894,-74.402,
00:00:34:184,-0.088,-0.465,0.866,305.908,67.993,-67.994,
00:00:34:200,-0.067,-0.457,0.888,236.389,66.223,-66.468,
00:00:34:217,-0.054,-0.452,0.908,219.665,54.809,-74.952,
00:00:34:234,-0.056,-0.492,0.893,217.346,55.542,-95.398,
00:00:34:250,-0.063,-0.528,0.895,181.823,45.593,-101.441,
00:00:34:267,-0.083,-0.523,0.892,110.29,53.955,-97.962,
00:00:34:284,-0.072,-0.481,0.883,51.574,68.298,-99.06,
00:00:34:300,-0.066,-0.463,0.878,45.41,81.665,-103.089,
00:00:34:317,-0.066,-0.46,0.881,63.049,86.914,-98.999,
00:00:34:334,-0.06,-0.478,0.873,59.448,108.337,-102.051,
00:00:34:350,-0.047,-0.5,0.91,38.879,114.868,-96.436,
00:00:34:367,-0.014,-0.453,0.935,-24.476,124.084,-62.561,
00:00:34:384,-0.008,-0.456,0.921,-12.574,117.431,-50.66,
00:00:34:400,-0.002,-0.495,0.911,-53.467,112.06,-38.819,
00:00:34:417,0.008,-0.523,0.938,-176.514,109.924,-25.147,
00:00:34:434,0.038,-0.529,0.944,-382.447,109.375,-18.25,
00:00:34:450,0.08,-0.502,0.947,-568.543,110.351,-6.897,
00:00:34:467,0.101,-0.45,0.985,-719.178,97.839,8.117,
00:00:34:484,0.116,-0.392,1.007,-826.539,95.947,14.038,
00:00:34:500,0.133,-0.344,1.036,-879.7,81.054,18.737,
00:00:34:517,0.14,-0.272,1.04,-884.949,79.467,36.926,
00:00:34:534,0.148,-0.194,1.041,-817.933,76.538,56.884,
00:00:34:550,0.165,-0.143,1.03,-682.801,74.279,72.509,
00:00:34:567,0.184,-0.132,1.035,-525.269,51.086,80.017,
00:00:34:584,0.179,-0.169,1.068,-396.851,33.935,85.022,
00:00:34:600,0.17,-0.205,1.064,-334.717,28.076,86.364,
00:00:34:617,0.171,-0.221,1.049,-273.072,-2.137,98.388,
00:00:34:634,0.156,-0.231,1.038,-274.842,-13.245,86.242,
00:00:34:650,0.143,-0.213,1.04,-286.072,-11.841,79.04,
00:00:34:667,0.125,-0.209,1.035,-261.78,-23.499,66.955,
00:00:34:684,0.113,-0.199,1.055,-265.748,-25.879,52.856,
00:00:34:700,0.097,-0.167,1.032,-276.185,-19.227,36.499,
00:00:34:717,0.077,-0.138,1.015,-262.635,-0.611,17.517,
00:00:34:734,0.067,-0.093,1.018,-216.553,-10.987,8.789,
00:00:34:750,0.036,-0.082,1.024,-125.733,-13.794,-0.977,
00:00:34:767,0.016,-0.1,1.041,-31.373,-22.889,-4.395,
00:00:34:784,0.018,-0.107,1.065,20.752,-33.936,-10.315,
00:00:34:800,0.014,-0.142,1.087,50.537,-60.669,-27.466,
00:00:34:817,0.011,-0.198,1.11,30.273,-97.657,-49.988,
00:00:34:834,-0.03,-0.185,1.08,-2.442,-105.591,-47.547,
00:00:34:850,-0.032,-0.117,1.063,16.967,-124.573,-43.885,
00:00:34:867,-0.044,-0.061,1.016,65.063,-135.56,-48.34,
00:00:34:884,-0.075,-0.081,0.982,144.775,-141.053,-59.388,
00:00:34:900,-0.07,-0.103,0.987,188.903,-132.63,-67.261,
00:00:34:917,-0.077,-0.129,0.968,209.838,-126.16,-86.304,
00:00:34:934,-0.104,-0.169,0.946,245.117,-114.747,-90.21,
00:00:34:950,-0.102,-0.187,0.957,272.766,-112.183,-92.591,
00:00:34:967,-0.114,-0.18,0.947,253.784,-98.145,-93.995,
00:00:34:984,-0.11,-0.136,0.918,231.689,-76.6,-99.915,
00:00:35:0,-0.099,-0.087,0.903,274.536,-65.979,-96.314,
00:00:35:17,-0.098,-0.076,0.889,367.309,-55.42,-93.689,
00:00:35:34,-0.115,-0.096,0.869,480.224,-39.551,-81.971,
00:00:35:50,-0.119,-0.14,0.863,597.412,-28.382,-76.172,
00:00:35:67,-0.126,-0.224,0.848,654.968,-0.977,-89.356,
00:00:35:84,-0.113,-0.285,0.853,646.667,15.441,-91.37,
00:00:35:100,-0.102,-0.331,0.864,614.563,22.277,-101.075,
00:00:35:117,-0.103,-0.368,0.877,599.426,27.526,-97.046,
00:00:35:134,-0.104,-0.38,0.88,572.326,36.438,-89.844,
00:00:35:150,-0.081,-0.408,0.844,549.682,54.26,-108.948,
00:00:35:167,-0.064,-0.439,0.849,482.91,54.565,-117.981,
00:00:35:184,-0.071,-0.46,0.838,392.944,68.115,-124.451,
00:00:35:200,-0.079,-0.484,0.857,341.125,76.355,-123.841,
00:00:35:217,-0.071,-0.488,0.893,254.943,93.078,-126.831,
00:00:35:234,-0.059,-0.466,0.897,191.65,107.177,-122.437,
00:00:35:250,-0.058,-0.451,0.875,151.916,123.23,-119.141,
00:00:35:267,-0.068,-0.45,0.856,137.878,143.31,-114.014,
00:00:35:284,-0.067,-0.456,0.851,116.577,159.912,-102.417,
00:00:35:300,-0.057,-0.47,0.873,84.961,181.03,-86.182,
00:00:35:317,-0.036,-0.501,0.943,53.527,175.171,-78.614,
00:00:35:334,-0.004,-0.506,1.01,-33.875,169.25,-64.27,
00:00:35:350,0.021,-0.47,0.989,-94.727,163.879,-33.02,
00:00:35:367,0.041,-0.437,0.974,-66.102,149.597,-20.386,
00:00:35:384,0.054,-0.463,0.944,-40.467,135.07,-8.728,
00:00:35:400,0.064,-0.527,0.974,-106.69,104.797,-1.831,
00:00:35:417,0.075,-0.577,0.998,-320.923,87.219,6.286,
00:00:35:434,0.096,-0.531,0.974,-554.749,91.186,26.672,
00:00:35:450,0.12,-0.438,0.956,-675.049,68.664,47.058,
00:00:35:467,0.119,-0.398,0.957,-720.948,44.494,47.363,
00:00:35:484,0.113,-0.405,0.958,-815.064,33.508,49.804,
00:00:35:500,0.122,-0.367,0.976,-973.45,41.198,67.81,
00:00:35:517,0.13,-0.274,0.982,-1066.773,59.997,87.951,
00:00:35:534,0.162,-0.156,1.008,-1031.189,64.636,101.562,
