TIMECODE,ACC_X,ACC_Y,ACC_Z,GYR_X,GYR_Y,GYR_Z,ECG_I,ECG_II,ECG_III,TAG
,-0.146,0.379,0.927,-28.077,-1.16,-21.79,0,0,0,
,-0.154,0.381,0.923,-26.734,3.112,-20.325,0,0,0,
,-0.153,0.383,0.925,-22.583,5.798,-24.781,0,0,0,
,-0.149,0.379,0.924,-21.973,8.789,-26.001,0,0,0,
,-0.143,0.377,0.925,-20.813,9.338,-27.771,0,0,0,
,-0.142,0.38,0.925,-21.973,10.437,-29.297,0,0,0,
,-0.142,0.381,0.922,-22.278,9.094,-29.847,0,0,0,
,-0.146,0.38,0.921,-21.424,8.178,-30.701,0,0,0,
,-0.147,0.383,0.918,-19.349,8.606,-31.311,0,0,0,
,-0.146,0.382,0.924,-21.79,10.009,-34.18,0,0,0,
,-0.149,0.381,0.919,-20.142,9.948,-34.729,0,0,0,
,-0.15,0.382,0.922,-18.128,11.23,-34.546,0,0,0,
,-0.146,0.38,0.925,-16.907,9.887,-34.058,0,0,0,
,-0.144,0.379,0.922,-14.344,11.535,-35.157,0,0,0,
,-0.144,0.378,0.926,-13.55,13.427,-33.692,0,0,0,
,-0.148,0.378,0.928,-14.832,14.709,-33.692,0,0,0,
,-0.149,0.379,0.928,-15.015,13.855,-32.837,0,0,0,
,-0.144,0.381,0.925,-11.475,16.113,-34.607,0,0,0,
,-0.144,0.381,0.924,-9.461,17.028,-33.326,0,0,0,
,-0.139,0.379,0.922,-12.513,17.578,-33.692,0,0,0,
,-0.137,0.381,0.921,-14.222,16.113,-36.011,0,0,0,
,-0.139,0.378,0.923,-15.076,13.183,-37.049,0,0,0,
,-0.143,0.379,0.924,-13.55,13.916,-38.086,0,0,0,
,-0.141,0.379,0.922,-13.977,11.84,-37.659,0,0,0,
,-0.147,0.379,0.92,-18.189,10.437,-36.011,0,0,0,
,-0.148,0.378,0.921,-19.532,11.169,-35.828,0,0,0,
,-0.15,0.379,0.923,-14.771,12.268,-31.434,0,0,0,
,-0.15,0.377,0.927,-13.611,11.413,-29.175,0,0,0,
,-0.148,0.378,0.931,-11.658,15.014,-28.565,0,0,0,
,-0.152,0.376,0.93,-11.475,21.179,-32.715,0,0,0,
,-0.141,0.38,0.932,-12.269,21.667,-33.936,0,0,0,
,-0.135,0.379,0.929,-11.292,24.292,-36.927,0,0,0,
,-0.132,0.38,0.923,-13.245,27.038,-38.147,0,0,0,
,-0.132,0.381,0.921,-15.32,25.39,-35.157,0,0,0,
,-0.138,0.377,0.918,-18.555,24.108,-38.025,0,0,0,
,-0.136,0.378,0.918,-21.729,20.996,-36.927,0,0,0,
,-0.136,0.376,0.919,-23.316,13,-35.218,0,0,0,
,-0.136,0.377,0.914,-23.865,9.277,-33.997,0,0,0,
,-0.143,0.378,0.92,-28.504,0.305,-33.143,0,0,0,
,-0.144,0.381,0.923,-26.001,-2.747,-30.579,0,0,0,
,-0.149,0.383,0.92,-27.344,-2.32,-27.832,0,0,0,
,-0.146,0.381,0.923,-25.696,-7.508,-26.856,0,0,0,
,-0.143,0.383,0.925,-24.598,-1.648,-25.94,0,0,0,
,-0.143,0.384,0.924,-20.264,-1.77,-29.908,0,0,0,
,-0.14,0.377,0.925,-16.297,5.188,-24.903,0,0,0,
,-0.137,0.374,0.924,-17.64,10.192,-25.818,0,0,0,
,-0.137,0.375,0.927,-20.997,6.408,-23.804,0,0,0,
,-0.141,0.378,0.925,-23.133,10.925,-24.048,0,0,0,
,-0.143,0.385,0.921,-25.452,10.07,-24.903,0,0,0,
,-0.144,0.387,0.921,-21.973,11.596,-24.476,0,0,0,
,-0.148,0.387,0.917,-19.898,11.169,-25.574,0,0,0,
,-0.146,0.387,0.923,-19.349,11.474,-25.147,0,0,0,
,-0.146,0.383,0.917,-17.151,10.681,-25.452,0,0,0,
,-0.144,0.384,0.921,-18.006,11.596,-27.161,0,0,0,
,-0.143,0.378,0.915,-15.076,6.53,-25.696,0,0,0,
,-0.141,0.379,0.922,-22.889,0.488,-24.842,0,0,0,
,-0.14,0.381,0.921,-25.147,-1.343,-23.133,0,0,0,
,-0.143,0.384,0.922,-25.635,-5.86,-24.964,0,0,0,
,-0.146,0.386,0.923,-26.123,-3.235,-23.621,0,0,0,
,-0.148,0.386,0.918,-23.621,-3.174,-22.461,0,0,0,
,-0.15,0.385,0.928,-22.522,-2.381,-20.874,0,0,0,
,-0.16,0.377,0.92,-19.532,4.638,-23.194,0,0,0,
,-0.156,0.379,0.921,-1.282,13.916,-24.476,0,0,0,
,-0.153,0.388,0.929,-7.081,22.155,-26.734,0,0,0,
,-0.15,0.383,0.928,-7.691,21.728,-29.786,0,0,0,
,-0.147,0.389,0.923,-6.226,21.423,-22.278,0,0,0,
,-0.146,0.384,0.925,-1.343,23.925,-27.344,0,0,0,
,-0.139,0.378,0.917,-5.31,23.925,-26.856,0,0,0,
,-0.139,0.379,0.918,-16.602,17.7,-26.185,0,0,0,
,-0.146,0.386,0.923,-23.255,13.732,-27.466,0,0,0,
,-0.155,0.389,0.922,-15.931,21.545,-27.283,0,0,0,
,-0.152,0.386,0.921,-2.808,24.047,-27.832,0,0,0,
,-0.147,0.377,0.916,-6.47,20.629,-27.71,0,0,0,
,-0.154,0.385,0.922,-11.231,18.371,-28.382,0,0,0,
,-0.148,0.384,0.923,-10.621,15.808,-31.922,0,0,0,
,-0.149,0.381,0.926,-5.616,16.601,-33.753,0,0,0,
,-0.142,0.373,0.919,-14.954,16.296,-36.316,0,0,0,
,-0.139,0.381,0.916,-25.452,9.277,-33.692,0,0,0,
,-0.138,0.388,0.92,-25.391,5.859,-33.875,0,0,0,
,-0.134,0.386,0.916,-14.405,10.742,-34.119,0,0,0,
,-0.132,0.382,0.917,-16.907,5.92,-33.57,0,0,0,
,-0.147,0.387,0.925,-14.954,3.54,-35.584,0,0,0,
,-0.146,0.38,0.924,-11.353,8.422,-38.88,0,0,0,
,-0.147,0.382,0.928,-10.56,8.422,-37.964,0,0,0,
,-0.148,0.382,0.924,-15.686,10.009,-41.321,0,0,0,
,-0.144,0.383,0.928,-13.306,13.183,-40.772,0,0,0,
,-0.14,0.379,0.921,-12.513,14.709,-39.978,0,0,0,
,-0.139,0.378,0.926,-9.095,18.005,-39.49,0,0,0,
,-0.135,0.38,0.917,-6.897,20.324,-37.171,0,0,0,
,-0.135,0.378,0.922,-8.301,20.202,-37.659,0,0,0,
,-0.147,0.38,0.926,-10.865,15.991,-36.499,0,0,0,
,-0.146,0.38,0.926,-10.193,14.343,-36.255,0,0,0,
,-0.141,0.383,0.927,-10.132,17.028,-34.79,0,0,0,
,-0.147,0.379,0.925,-8.301,17.273,-35.401,0,0,0,
,-0.144,0.375,0.927,-6.409,21.667,-34.241,0,0,0,
,-0.136,0.375,0.925,-6.348,21.545,-32.959,0,0,0,
,-0.143,0.375,0.925,-6.592,20.874,-32.105,0,0,0,
,-0.137,0.378,0.924,-8.118,20.08,-30.823,0,0,0,
,-0.134,0.376,0.921,-7.447,20.141,-30.457,0,0,0,
,-0.135,0.373,0.927,-5.249,18.371,-30.457,0,0,0,
,-0.146,0.383,0.932,16.906,41.076,-24.598,0,0,0,
,-0.14,0.388,0.917,35.278,48.339,-20.874,0,0,0,
,-0.136,0.404,0.911,63.171,51.757,-18.799,0,0,0,
,-0.118,0.408,0.916,91.613,35.278,-21.729,0,0,0,
,-0.125,0.371,0.925,118.286,28.564,-23.621,0,0,0,
,-0.129,0.335,0.942,109.436,25.39,-26.368,0,0,0,
,-0.13,0.349,0.929,95.153,27.465,-19.104,0,0,0,
,-0.124,0.361,0.945,101.989,17.944,-19.227,0,0,0,
,-0.138,0.338,0.934,130.005,26.245,-23.377,0,0,0,
,-0.127,0.341,0.918,125.061,9.033,-6.958,0,0,0,
,-0.187,0.342,0.967,150.879,19.47,-9.705,0,0,0,
,-0.16,0.302,0.964,108.764,18.31,-30.03,0,0,0,
,-0.127,0.268,0.955,59.143,15.991,-24.598,0,0,0,
,-0.129,0.307,0.946,-11.109,4.15,-19.104,0,0,0,
,-0.142,0.321,0.959,-28.382,4.821,-26.917,0,0,0,
,-0.136,0.307,0.956,-33.265,13.061,-27.527,0,0,0,
,-0.124,0.321,0.946,-30.457,8.972,-24.048,0,0,0,
,-0.136,0.343,0.945,-17.029,5.188,-25.269,0,0,0,
,-0.15,0.329,0.951,13.183,8.667,-28.809,0,0,0,
,-0.145,0.335,0.946,18.249,10.498,-18.311,0,0,0,
,-0.145,0.335,0.948,25.024,14.16,-19.043,0,0,0,
,-0.125,0.336,0.915,61.645,13.855,-14.1,0,0,0,
,-0.115,0.369,0.949,75.622,11.169,-8.423,0,0,0,
,-0.133,0.299,0.95,129.699,30.944,-39.246,0,0,0,
,-0.098,0.299,0.92,94.116,28.991,-24.476,0,0,0,
,-0.06,0.345,0.938,112.915,11.962,-37.232,0,0,0,
,-0.07,0.226,1.004,205.139,25.573,-77.393,0,0,0,
,-0.143,0.105,1.005,119.873,7.934,-64.454,0,0,0,
,-0.165,0.259,0.961,-103.638,-31.006,-24.72,0,0,0,
,-0.136,0.435,0.939,-68.848,-1.099,12.268,0,0,0,
,-0.169,0.389,0.936,113.098,59.387,4.211,0,0,0,
,-0.157,0.269,0.965,177.368,68.298,-5.31,0,0,0,
,-0.124,0.208,0.966,116.516,59.204,-10.315,0,0,0,
,-0.135,0.231,0.982,28.564,23.986,-6.958,0,0,0,
,-0.145,0.254,0.968,-11.536,24.658,-15.992,0,0,0,
,-0.126,0.256,0.97,-34.363,23.193,-29.725,0,0,0,
,-0.115,0.248,0.97,-56.763,12.39,-36.255,0,0,0,
,-0.115,0.271,0.969,-82.337,-2.32,-38.941,0,0,0,
,-0.124,0.312,0.955,-56.336,-5.677,-36.622,0,0,0,
,-0.129,0.293,0.961,-22.339,4.699,-42.298,0,0,0,
,-0.122,0.272,0.965,-26.062,4.76,-37.171,0,0,0,
,-0.125,0.271,0.972,-36.194,-2.076,-33.081,0,0,0,
,-0.186,0.26,0.998,-26.246,-1.954,-27.1,0,0,0,
,-0.176,0.269,0.982,-3.724,29.235,-37.476,0,0,0,
,-0.096,0.276,0.963,-28.077,44.677,-35.645,0,0,0,
,-0.093,0.289,0.971,-37.781,28.381,-8.484,0,0,0,
,-0.129,0.275,0.971,-53.162,14.16,-18.25,0,0,0,
,-0.152,0.263,0.966,-43.152,23.315,-29.358,0,0,0,
,-0.144,0.244,0.985,-57.801,37.353,-32.715,0,0,0,
,-0.127,0.24,0.964,-108.704,39.001,-25.696,0,0,0,
,-0.111,0.262,0.968,-157.288,44.86,-16.175,0,0,0,
,-0.118,0.276,0.991,-163.208,65.49,-8.301,0,0,0,
,-0.121,0.283,1.001,-174.927,86.486,12.329,0,0,0,
,-0.128,0.292,0.989,-149.476,118.103,23.132,0,0,0,
,-0.138,0.313,0.988,-131.409,150.39,19.104,0,0,0,
,-0.121,0.306,0.989,-110.413,195.129,23.803,0,0,0,
,-0.109,0.301,0.997,-98.755,225.769,42.907,0,0,0,
,-0.115,0.302,1.021,-84.29,251.953,49.56,0,0,0,
,-0.124,0.287,1.019,-72.449,310.241,52.185,0,0,0,
,-0.114,0.289,0.991,-93.262,357.91,57.8,0,0,0,
,-0.076,0.346,0.979,-108.46,395.691,69.946,0,0,0,
,-0.051,0.38,0.937,-57.373,441.406,96.74,0,0,0,
,-0.025,0.468,0.907,44.738,452.514,114.807,0,0,0,
,-0.048,0.49,0.91,177.612,518.554,107.971,0,0,0,
,0.003,0.488,0.973,391.479,486.206,114.563,0,0,0,
,-0.013,0.361,1.023,564.026,529.968,67.138,0,0,0,
,0.015,0.036,1.084,449.096,548.95,39.367,0,0,0,
,0.082,-0.026,0.98,-30.579,512.573,77.758,0,0,0,
,0.1,0.137,0.94,-486.206,491.394,87.036,0,0,0,
,0.117,0.449,1.02,-506.775,524.597,106.201,0,0,0,
,0.084,0.695,1.125,-241.822,672.973,119.567,0,0,0,
,0.119,0.639,1.266,82.275,848.449,128.296,0,0,0,
,0.244,0.527,1.36,155.029,992.37,184.936,0,0,0,
,0.374,0.629,1.481,73.181,1046.447,285.522,0,0,0,
,0.501,0.922,1.742,289.611,1101.867,331.115,0,0,0,
,0.565,0.756,2.208,918.029,1189.758,243.713,0,0,0,
,0.651,0.252,2.708,1224.365,1115.295,149.109,0,0,0,
,0.886,0.084,2.845,732.666,676.88,158.447,0,0,0,
,0.985,0.169,2.867,-145.691,-44.8,148.193,0,0,0,
,0.748,0.524,2.62,-861.084,-897.828,188.903,0,0,0,
,0.762,0.92,2.021,-729.737,-1499.146,125.366,0,0,0,
,1.909,0.935,1.283,-282.105,-1471.802,198.791,0,0,0,
,2.845,1.366,-0.539,-307.496,-1998.23,1034.179,0,0,0,
,1.997,2.071,-1.325,314.575,-2000,1912.292,0,0,0,
,0.655,1.379,-1.602,1477.722,-2000,1999.694,0,0,0,
,0.402,0.842,-0.903,1999.694,-2000,1999.694,0,0,0,
,0.573,0.09,0.294,1999.694,-2000,1721.435,0,0,0,
,1.75,-0.963,0.386,1914.917,-2000,1430.786,0,0,0,
,2.058,-0.161,-0.575,639.709,-2000,1449.707,0,0,0,
,1.298,-0.18,-1.488,940.368,-2000,1158.508,0,0,0,
,0.536,-1.495,-2.463,1043.151,-2000,533.996,0,0,0,
,-0.337,-2.164,-3.106,-267.029,-2000,285.644,0,0,0,
,-0.379,-1.609,-3.341,-637.513,-985.901,138.305,0,0,0,
,-0.829,-2.162,-3.282,89.782,1453.247,-330.994,0,0,0,
,-0.367,-1.715,-2.085,329.956,1999.694,-855.957,0,0,0,
,0.473,-0.779,-0.998,509.643,1999.694,-1000.367,0,0,0,
,0.874,-0.161,-0.443,312.622,1999.694,-871.46,0,0,0,
,1.095,0.078,0.744,-238.099,1999.694,-753.418,0,0,0,
,1.329,-0.368,1.088,-1431.214,1999.694,-808.533,0,0,0,
,1.033,-0.726,1.375,-2000,1999.694,-958.863,0,0,0,
,0.538,-0.216,0.275,-2000,1999.694,-1417.176,0,0,0,
,1.39,1.908,0.26,-2000,1999.694,-1642.396,0,0,0,
,1.961,3.341,0.521,-936.89,1997.619,-1228.76,0,0,0,
,0.95,2.658,2.447,1013.977,1768.859,-999.268,0,0,0,
,0.015,0.604,2.739,1137.939,1674.56,-618.226,0,0,0,
,0.1,-0.589,2.401,-251.221,945.251,-466.614,0,0,0,
,-0.102,0.007,1.618,-1862.732,-28.016,-343.323,0,0,0,
,-0.276,1.157,1.168,-1851.807,-238.404,-220.826,0,0,0,
,-0.302,1.342,0.987,-604.737,142.151,-158.936,0,0,0,
,-0.285,0.617,1.233,162.231,425.232,-196.534,0,0,0,
,-0.176,0.136,1.375,-33.936,460.693,-167.42,0,0,0,
,0.068,0.507,1.086,-631.104,303.772,-100.769,0,0,0,
,0.573,1.628,1.257,-133.912,-117.981,129.943,0,0,0,
,0.175,0.65,1.942,1203.613,575.622,-168.457,0,0,0,
,0.437,-0.471,1.855,332.519,104.431,-15.931,0,0,0,
,0.294,0.155,1.471,-248.841,-183.716,52.368,0,0,0,
,0.148,0.265,1.308,-265.931,-82.215,-42.237,0,0,0,
,0.283,0.444,1.087,-280.396,-57.74,-29.541,0,0,0,
,0.121,0.43,0.996,-154.053,-6.287,-36.316,0,0,0,
,0.129,0.427,0.936,-55.97,21.484,-34.058,0,0,0,
,0.043,0.338,0.855,4.76,45.959,-47.181,0,0,0,
,0.081,0.41,0.845,-2.198,49.255,-40.162,0,0,0,
,0.1,0.421,0.832,-19.898,35.278,-33.753,0,0,0,
,0.098,0.427,0.855,-8.606,19.531,-23.621,0,0,0,
,0.09,0.381,0.83,-26.246,-1.709,-19.654,0,0,0,
,0.104,0.401,0.869,-52.185,-33.875,-15.076,0,0,0,
,0.111,0.381,0.871,-78.064,-62.439,-13.977,0,0,0,
,0.127,0.381,0.889,-96.802,-79.468,-13.611,0,0,0,
,0.089,0.348,0.855,-128.968,-100.769,-17.029,0,0,0,
,0.061,0.355,0.833,-158.509,-111.634,-7.63,0,0,0,
,0.008,0.348,0.817,-197.632,-118.531,-7.142,0,0,0,
,-0.057,0.217,0.829,-191.04,-97.718,-59.632,0,0,0,
,-0.198,0.067,0.785,-248.169,-106.568,-109.742,0,0,0,
,-0.245,0.272,0.795,-340.149,-159.058,-110.413,0,0,0,
,-0.284,0.359,0.827,-346.68,-128.296,-176.453,0,0,0,
,-0.272,0.364,0.854,-433.167,-125,-200.013,0,0,0,
,-0.205,0.407,0.893,-550.171,-134.888,-182.679,0,0,0,
,-0.129,0.456,0.856,-683.289,-144.471,-157.715,0,0,0,
,-0.096,0.504,0.797,-789.429,-135.437,-138.428,0,0,0,
,-0.083,0.5,0.756,-875.672,-93.934,-142.456,0,0,0,
,-0.025,0.549,0.747,-990.906,-108.399,-130.433,0,0,0,
,0.03,0.649,0.787,-1080.262,-136.597,-115.601,0,0,0,
,0.113,0.888,0.904,-994.202,-199.524,-81.849,0,0,0,
,0.211,1.232,0.977,-582.032,-233.338,-23.926,0,0,0,
,0.185,1.035,0.942,-214.661,-127.747,-45.289,0,0,0,
,0.196,0.65,0.885,-377.686,-116.761,-23.011,0,0,0,
,0.21,0.536,0.783,-803.101,-214.356,34.668,0,0,0,
,0.141,0.733,0.822,-1065.308,-266.724,36.56,0,0,0,
,0.085,0.891,0.813,-961.365,-267.945,6.53,0,0,0,
,0.1,0.836,0.767,-689.026,-212.22,-43.03,0,0,0,
,0.157,0.758,0.687,-471.619,-181.641,-59.082,0,0,0,
,0.172,0.728,0.579,-290.833,-143.433,-71.534,0,0,0,
,0.135,0.794,0.444,-150.147,-80.14,-80.445,0,0,0,
,0.167,0.895,0.434,-42.603,-3.846,-73.243,0,0,0,
,0.257,0.907,0.38,53.283,66.711,-29.236,0,0,0,
,0.226,0.84,0.432,108.337,88.562,-28.748,0,0,0,
,0.138,0.658,0.516,115.722,132.812,-31.739,0,0,0,
,0.17,0.714,0.684,57.495,129.455,1.098,0,0,0,
,0.219,0.697,0.787,-39.246,82.702,13.794,0,0,0,
,0.286,0.766,0.79,-101.746,-14.283,66.406,0,0,0,
,0.225,0.744,0.717,-209.595,-95.276,95.336,0,0,0,
,0.171,0.781,0.653,-209.839,-153.199,109.68,0,0,0,
,0.166,0.879,0.588,-230.347,-179.139,136.718,0,0,0,
,0.146,1.034,0.512,-242.066,-213.562,182.312,0,0,0,
,0.113,1.06,0.568,-219.3,-244.324,196.777,0,0,0,
,0.096,1.022,0.637,-210.816,-274.292,244.14,0,0,0,
,0.09,0.933,0.625,-220.215,-299.317,285.705,0,0,0,
,0.061,0.846,0.541,-257.874,-339.661,302.978,0,0,0,
,-0.019,0.772,0.44,-253.113,-332.703,314.148,0,0,0,
,-0.075,0.856,0.38,-183.289,-314.942,319.885,0,0,0,
,-0.143,1.077,0.359,160.278,-265.564,304.321,0,0,0,
,-0.194,1.04,0.365,458.984,-133.423,262.695,0,0,0,
,-0.133,0.791,0.43,511.352,-47.181,226.745,0,0,0,
,-0.078,0.693,0.503,426.88,-93.018,221.74,0,0,0,
,-0.115,0.835,0.54,371.093,-131.287,244.384,0,0,0,
,-0.158,0.81,0.514,326.965,-126.587,253.662,0,0,0,
,-0.148,0.704,0.473,182.556,-156.922,258.117,0,0,0,
,-0.176,0.643,0.454,-90.271,-215.149,266.479,0,0,0,
,-0.291,0.714,0.473,-266.297,-276.001,260.742,0,0,0,
,-0.347,0.853,0.596,-213.257,-314.331,248.657,0,0,0,
,-0.389,0.787,0.617,7.69,-278.748,224.304,0,0,0,
,-0.393,0.661,0.546,26.794,-256.714,230.468,0,0,0,
,-0.409,0.617,0.535,-204.041,-274.17,235.717,0,0,0,
,-0.451,0.637,0.474,-467.652,-288.88,260.07,0,0,0,
,-0.504,0.849,0.522,-626.709,-325.135,294.128,0,0,0,
,-0.537,1.085,0.558,-470.765,-332.215,331.359,0,0,0,
,-0.59,1.063,0.534,-92.164,-250.55,334.716,0,0,0,
,-0.57,0.872,0.534,133.239,-169.129,339.355,0,0,0,
,-0.527,0.785,0.516,150.634,-159.363,351.928,0,0,0,
,-0.553,0.783,0.578,27.771,-142.945,386.657,0,0,0,
,-0.572,0.794,0.644,-109.314,-147.217,421.753,0,0,0,
,-0.584,0.712,0.59,-270.203,-157.532,442.016,0,0,0,
,-0.576,0.808,0.528,-353.943,-233.033,477.661,0,0,0,
,-0.62,0.874,0.472,-273.743,-224.122,490.905,0,0,0,
,-0.65,0.761,0.455,-168.824,-177.857,504.028,0,0,0,
,-0.619,0.641,0.44,-194.153,-163.514,506.408,0,0,0,
,-0.583,0.654,0.415,-344.239,-182.801,521.667,0,0,0,
,-0.586,0.718,0.466,-472.901,-205.384,518.615,0,0,0,
,-0.612,0.714,0.408,-456.238,-199.524,522.705,0,0,0,
,-0.629,0.662,0.367,-399.903,-186.646,509.46,0,0,0,
,-0.613,0.66,0.329,-314.27,-161.377,485.901,0,0,0,
,-0.611,0.733,0.35,-175.354,-150.269,459.045,0,0,0,
,-0.643,0.811,0.384,-4.334,-118.042,432.922,0,0,0,
,-0.668,0.739,0.359,83.19,-63.904,429.748,0,0,0,
,-0.639,0.596,0.341,88.134,-28.626,421.386,0,0,0,
,-0.588,0.493,0.432,96.862,-19.776,361.877,0,0,0,
,-0.557,0.508,0.307,51.757,-29.175,310.058,0,0,0,
,-0.63,0.615,0.365,-52.552,-40.406,292.968,0,0,0,
,-0.697,0.613,0.311,40.1,-35.279,293.884,0,0,0,
,-0.704,0.557,0.242,89.965,27.832,263.855,0,0,0,
,-0.634,0.549,0.25,38.513,49.804,250.793,0,0,0,
,-0.621,0.561,0.289,57.251,61.218,222.778,0,0,0,
,-0.622,0.552,0.241,48.584,71.472,214.416,0,0,0,
,-0.625,0.54,0.184,21.362,70.068,201.416,0,0,0,
,-0.663,0.444,0.083,63.72,109.192,182.251,0,0,0,
,-0.687,0.43,0.053,148.193,197.631,115.356,0,0,0,
,-0.726,0.302,0.125,282.653,370.849,-2.015,0,0,0,
,-0.734,0.335,0.277,503.234,578.491,-131.409,0,0,0,
,-0.62,0.39,0.344,808.715,789.306,-292.603,0,0,0,
,-0.55,0.354,0.23,854.736,1044.006,-388.306,0,0,0,
,-0.486,0.262,0.37,849.426,1209.167,-532.349,0,0,0,
,-0.652,0.224,0.365,827.087,1366.272,-580.75,0,0,0,
,-0.641,0.281,0.351,622.009,1468.322,-575.013,0,0,0,
,-0.57,0.197,0.593,479.919,1488.83,-629.517,0,0,0,
,-0.528,0.117,0.476,429.443,1465.088,-607.056,0,0,0,
,-0.303,0.427,0.724,470.703,1331.298,-596.802,0,0,0,
,-0.017,1.022,1.091,663.757,1042.846,-407.898,0,0,0,
,0.059,1.19,1.443,935.119,800.598,-243.042,0,0,0,
,-0.011,0.764,1.54,846.74,500.915,-93.262,0,0,0,
,-0.128,0.404,1.53,362.609,57.128,62.683,0,0,0,
,-0.267,0.315,1.36,-258.484,-389.405,161.682,0,0,0,
,-0.365,0.438,1.187,-785.828,-695.374,233.825,0,0,0,
,-0.407,0.565,1.001,-927.918,-898.377,298.645,0,0,0,
,-0.372,0.59,0.796,-673.706,-980.957,311.401,0,0,0,
,-0.324,0.54,0.604,-268.006,-987.305,289.245,0,0,0,
,-0.409,0.383,0.392,102.966,-876.404,204.651,0,0,0,
,-0.624,0.209,0.138,395.385,-574.585,102.722,0,0,0,
,-0.864,0.004,0.19,631.652,-26.123,-53.223,0,0,0,
,-0.818,-0.046,0.825,617.37,630.31,-210.816,0,0,0,
,-0.238,0.377,1.049,292.053,764.343,-218.811,0,0,0,
,-0.172,0.758,1.078,224.121,797.119,-183.167,0,0,0,
,-0.584,0.449,1.057,166.931,1008.3,-260.621,0,0,0,
,-0.638,-0.449,0.56,48.645,1144.104,-302.308,0,0,0,
,-0.346,-0.117,0.19,-333.13,939.697,-255.555,0,0,0,
,0.187,1.063,0.74,-563.294,287.963,-130.188,0,0,0,
,0.112,1.205,1.32,-107.3,265.197,-226.746,0,0,0,
,-0.002,0.886,1.502,181.03,-62.256,-150.818,0,0,0,
,-0.22,0.374,1.126,42.846,-387.757,-18.982,0,0,0,
,-0.358,0.413,0.9,-460.938,-709.961,132.263,0,0,0,
,-0.463,0.497,0.866,-751.038,-880.677,128.784,0,0,0,
,-0.523,0.453,0.631,-858.704,-910.828,180.542,0,0,0,
,-0.554,0.422,0.308,-847.107,-902.039,215.271,0,0,0,
,-0.655,0.516,0.125,-521.18,-682.679,154.907,0,0,0,
,-0.837,0.513,0.334,201.66,-116.822,36.254,0,0,0,
,-0.678,0.435,0.748,714.538,435.119,-96.375,0,0,0,
,-0.379,0.514,0.731,698.608,640.564,-113.831,0,0,0,
,-0.417,0.563,0.83,616.211,754.394,-148.621,0,0,0,
,-0.575,0.225,0.658,592.407,919.128,-127.442,0,0,0,
,-0.47,0.013,0.744,382.873,960.754,-141.297,0,0,0,
,-0.146,0.433,1.138,132.568,610.473,-116.578,0,0,0,
,0.03,0.934,1.364,117.736,137.756,13,0,0,0,
,-0.071,0.839,1.429,338.012,-124.695,66.894,0,0,0,
,-0.186,0.368,1.385,186.523,-404.419,80.444,0,0,0,
,-0.253,0.264,1.028,-427.063,-787.415,169.555,0,0,0,
,-0.36,0.387,0.968,-1010.071,-1097.84,211.303,0,0,0,
,-0.401,0.487,0.736,-1229.31,-1231.263,256.713,0,0,0,
,-0.442,0.469,0.405,-1180.237,-1218.934,269.043,0,0,0,
,-0.579,0.44,0.205,-1010.743,-1023.743,263.122,0,0,0,
,-0.68,0.426,0.314,-718.628,-570.801,186.34,0,0,0,
,-0.624,0.431,0.241,-380.982,-112.671,91.857,0,0,0,
,-0.602,0.442,0.15,-9.766,335.632,-79.163,0,0,0,
,-0.677,0.241,0.183,200.134,723.327,-235.23,0,0,0,
,-0.625,0.177,0.306,150.573,963.745,-355.103,0,0,0,
,-0.411,0.415,0.678,-26.185,1006.225,-407.41,0,0,0,
,-0.299,0.658,0.947,-130.555,872.558,-359.864,0,0,0,
,-0.244,0.897,1.117,-93.934,598.571,-235.474,0,0,0,
,-0.199,1.085,1.137,3.051,286.743,-49.134,0,0,0,
,-0.191,1.094,1.189,68.481,-58.167,107.727,0,0,0,
,-0.283,0.857,1.14,63.415,-368.103,241.943,0,0,0,
,-0.405,0.657,0.92,-120.423,-614.991,337.219,0,0,0,
,-0.499,0.567,0.714,-375.245,-761.658,392.7,0,0,0,
,-0.493,0.475,0.681,-610.901,-856.568,398.315,0,0,0,
,-0.697,0.14,0.276,-737.183,-403.504,212.097,0,0,0,
,-0.711,0.239,0.408,-552.552,12.756,-3.724,0,0,0,
,-0.603,0.361,0.367,-185.059,349.609,-249.512,0,0,0,
,-0.646,0.388,0.377,-23.499,638.366,-426.026,0,0,0,
,-0.672,0.282,0.297,-94.544,830.688,-536.255,0,0,0,
,-0.53,0.537,0.447,-210.389,877.807,-618.042,0,0,0,
,-0.306,1.034,0.737,-186.463,743.225,-528.748,0,0,0,
,-0.104,1.393,0.943,20.935,439.209,-311.219,0,0,0,
,-0.133,1.431,0.944,357.422,52.551,-22.034,0,0,0,
,-0.314,1.146,0.937,572.998,-200.013,165.954,0,0,0,
,-0.441,0.746,0.846,423.584,-471.314,289.611,0,0,0,
,-0.471,0.447,0.654,69.885,-678.223,355.163,0,0,0,
,-0.547,0.279,0.423,-366.028,-775.94,365.905,0,0,0,
,-0.669,0.196,0.211,-686.463,-704.529,345.153,0,0,0,
,-0.751,0.157,0.267,-719.239,-380.433,237.793,0,0,0,
,-0.629,0.372,0.438,-354.737,83.923,-108.46,0,0,0,
,-0.498,0.528,0.431,86.12,418.09,-336.792,0,0,0,
,-0.5,0.494,0.41,296.692,664.245,-551.331,0,0,0,
,-0.601,0.418,0.32,329.528,841.98,-675.721,0,0,0,
,-0.571,0.417,0.349,287.963,932.129,-703.553,0,0,0,
,-0.255,0.776,0.514,331.054,814.392,-570.496,0,0,0,
,0.015,1.447,0.847,691.345,406.433,-367.005,0,0,0,
,-0.065,1.504,1.118,1129.089,130.493,-129.883,0,0,0,
,-0.277,0.815,1.177,1015.625,-152.649,33.935,0,0,0,
,-0.396,0.495,0.955,466.125,-569.336,208.191,0,0,0,
,-0.502,0.426,0.803,19.836,-815.369,256.836,0,0,0,
,-0.506,0.41,0.577,-388.916,-931.946,280.09,0,0,0,
,-0.581,0.238,0.279,-448.182,-804.2,226.44,0,0,0,
,-0.768,0.13,0.18,-306.092,-465.332,114.196,0,0,0,
,-0.784,0.21,0.516,-14.71,127.502,-118.47,0,0,0,
,-0.461,0.49,0.679,196.167,511.047,-358.582,0,0,0,
,-0.209,0.847,0.639,254.638,709.533,-382.019,0,0,0,
,-0.431,0.885,0.802,439.697,849.792,-440.979,0,0,0,
,-0.575,0.398,0.821,482.971,986.023,-448.67,0,0,0,
,-0.421,0.186,0.656,270.385,804.748,-412.171,0,0,0,
,-0.18,0.72,0.842,225.586,365.478,-268.86,0,0,0,
,-0.129,1.281,1.046,519.104,117.004,-110.535,0,0,0,
,-0.205,0.98,1.291,658.02,31.616,-64.087,0,0,0,
,-0.311,0.449,1.123,137.573,-276.551,63.049,0,0,0,
,-0.443,0.394,0.956,-628.785,-745.545,198.73,0,0,0,
,-0.535,0.603,0.735,-1052.552,-1001.404,282.592,0,0,0,
,-0.651,0.556,0.438,-1013.184,-990.052,275.39,0,0,0,
,-0.782,0.487,0.187,-658.326,-749.817,193.603,0,0,0,
,-0.8,0.482,0.393,-53.589,-188.111,15.564,0,0,0,
,-0.493,0.477,0.601,542.785,426.33,-89.905,0,0,0,
,-0.297,0.51,0.62,791.32,768.066,-167.176,0,0,0,
,-0.394,0.528,0.714,613.891,960.693,-262.818,0,0,0,
,-0.489,0.236,0.727,344.543,1046.203,-323.304,0,0,0,
,-0.427,0.206,0.642,4.577,885.009,-314.576,0,0,0,
,-0.168,0.953,0.794,-53.528,457.946,-202.454,0,0,0,
,-0.058,1.49,1.141,404.297,178.405,-101.746,0,0,0,
,-0.052,1.084,1.378,760.925,19.714,-36.438,0,0,0,
,-0.166,0.491,1.314,436.645,-359.559,67.321,0,0,0,
,-0.284,0.351,0.936,-190.003,-820.923,206.665,0,0,0,
,-0.366,0.484,0.776,-627.503,-1057.984,247.497,0,0,0,
,-0.397,0.427,0.509,-853.333,-1145.508,263.549,0,0,0,
,-0.482,0.343,0.088,-782.593,-1070.13,219.36,0,0,0,
,-0.676,0.389,0.069,-346.07,-688.05,33.447,0,0,0,
,-0.611,0.4,0.446,397.4,89.538,-194.886,0,0,0,
,-0.264,0.282,0.748,937.439,653.625,-243.287,0,0,0,
,-0.165,0.317,0.898,916.687,884.094,-265.992,0,0,0,
,-0.397,0.353,0.839,613.708,1054.87,-298.279,0,0,0,
,-0.632,0.014,0.653,174.926,1119.995,-365.662,0,0,0,
,-0.567,-0.157,0.562,-195.13,925.171,-386.292,0,0,0,
,-0.198,0.704,0.525,-245.972,432.373,-313.233,0,0,0,
,0.072,1.365,1.033,342.041,137.512,-279.602,0,0,0,
,0.017,0.922,1.489,735.778,-7.935,-265.442,0,0,0,
,-0.216,0.208,1.248,343.444,-385.56,-121.644,0,0,0,
,-0.397,0.189,0.642,-446.167,-883.24,78.369,0,0,0,
,-0.581,0.399,0.432,-1074.707,-994.874,119.873,0,0,0,
,-0.723,0.479,0.259,-1160.035,-816.529,74.34,0,0,0,
,-0.709,0.586,0.396,-775.086,-370.484,-86.976,0,0,0,
,-0.373,0.652,0.761,-146.79,194.763,-222.535,0,0,0,
,0.054,0.73,1.049,316.04,476.257,-205.75,0,0,0,
,-0.121,0.836,0.917,541.32,650.817,-198.365,0,0,0,
,-0.536,0.242,0.536,608.886,930.908,-285.401,0,0,0,
,-0.652,-0.123,0.31,496.887,898.559,-349.976,0,0,0,
,-0.296,0.56,0.554,311.828,540.283,-301.941,0,0,0,
,0.093,1.238,1.13,614.135,215.515,-284.729,0,0,0,
,0.08,0.794,1.582,701.172,42.175,-293.519,0,0,0,
,-0.123,0.216,1.331,64.514,-351.685,-119.385,0,0,0,
,-0.195,0.345,0.826,-871.644,-864.258,54.87,0,0,0,
,-0.393,0.553,0.52,-1281.983,-984.803,134.094,0,0,0,
,-0.553,0.713,0.502,-927.247,-820.618,69.213,0,0,0,
,-0.523,0.76,0.66,-12.574,-336.976,-108.338,0,0,0,
,-0.275,0.64,0.896,797.668,180.114,-176.087,0,0,0,
,-0.02,0.658,1.057,1141.052,486.938,-127.564,0,0,0,
,-0.205,0.481,0.939,885.131,729.187,-148.743,0,0,0,
,-0.465,-0.192,0.643,341.98,878.662,-261.414,0,0,0,
,-0.427,-0.236,0.46,-390.87,637.024,-278.809,0,0,0,
,-0.026,0.728,0.473,-939.026,187.988,-216.492,0,0,0,
,0.25,1.593,1.05,-580.567,-212.525,-79.102,0,0,0,
,-0.024,1.281,1.353,-6.47,-332.886,17.15,0,0,0,
,-0.301,0.589,1.114,148.01,-547.181,126.22,0,0,0,
,-0.427,0.409,0.569,-42.298,-760.743,269.287,0,0,0,
,-0.596,0.392,0.55,-18.921,-677.185,213.073,0,0,0,
,-0.706,0.277,0.641,334.594,-292.237,45.532,0,0,0,
,-0.564,0.174,0.862,652.893,92.712,-116.578,0,0,0,
,-0.299,0.423,1.185,691.833,335.571,-141.175,0,0,0,
,-0.127,0.737,1.364,570.678,396.789,-77.637,0,0,0,
,-0.406,0.289,1.059,223.938,616.821,-216.675,0,0,0,
,-0.374,-0.156,-0.073,-1045.777,338.134,-269.104,0,0,0,
,0.166,1.362,0.301,-998.23,-97.84,-97.107,0,0,0,
,0.258,2.008,1.216,58.654,-188.843,16.784,0,0,0,
,-0.208,0.862,1.268,801.025,-70.374,-43.152,0,0,0,
,-0.449,-0.028,0.898,631.103,-320.923,89.233,0,0,0,
,-0.535,0.022,0.61,14.526,-589.051,193.42,0,0,0,
,-0.649,0.265,0.663,-77.454,-434.876,88.256,0,0,0,
,-0.63,0.344,0.797,222.473,-38.086,-39.063,0,0,0,
,-0.376,0.448,1,341.247,326.843,-109.498,0,0,0,
,-0.06,0.61,1.315,155.151,370.422,-55.603,0,0,0,
,-0.174,0.547,1.281,-67.139,431.884,-112,0,0,0,
,-0.47,-0.146,0.751,-374.39,620.3,-209.29,0,0,0,
,-0.422,-0.274,0.214,-724.976,456.787,-213.807,0,0,0,
,-0.056,0.815,0.01,-759.583,83.74,-115.235,0,0,0,
,0.232,1.869,0.776,110.229,-88.623,35.034,0,0,0,
,0.058,1.36,1.375,1103.088,28.564,-87.464,0,0,0,
,-0.207,0.079,1.252,1089.904,-22.278,-78.797,0,0,0,
,-0.282,-0.192,0.872,173.523,-539.978,98.816,0,0,0,
,-0.41,0.17,0.7,-570.374,-750.367,145.019,0,0,0,
,-0.534,0.403,0.698,-545.777,-511.048,54.565,0,0,0,
,-0.491,0.458,0.797,-146.607,-91.492,-77.576,0,0,0,
,-0.194,0.514,1.046,125.671,160.278,-156.434,0,0,0,
,-0.027,0.722,1.166,230.346,195.434,-106.568,0,0,0,
,-0.233,0.582,1.035,301.696,322.937,-167.237,0,0,0,
,-0.508,-0.261,0.518,237.426,572.021,-310.73,0,0,0,
,-0.406,-0.498,0.189,-101.075,491.76,-358.399,0,0,0,
,0.079,0.539,0.041,-483.704,131.286,-237,0,0,0,
,0.41,1.495,0.878,-255.555,-215.088,-93.079,0,0,0,
,0.053,0.993,1.278,87.951,-213.99,-169.861,0,0,0,
,-0.268,0.228,1.188,-118.836,-388.123,-88.013,0,0,0,
,-0.475,0.191,0.802,-755.555,-756.836,104.187,0,0,0,
,-0.652,0.558,0.665,-979.187,-814.942,145.141,0,0,0,
,-0.787,0.759,0.773,-445.008,-424.073,-2.198,0,0,0,
,-0.566,0.733,1.002,196.594,22.277,-106.507,0,0,0,
,-0.205,0.862,1.238,614.807,199.768,-60.242,0,0,0,
,-0.294,0.887,1.241,630.615,340.82,-2.869,0,0,0,
,-0.582,0.245,0.628,500.488,611.877,-82.825,0,0,0,
,-0.657,-0.455,0.231,353.576,722.9,-212.708,0,0,0,
,-0.2,0.323,0.298,-85.267,462.402,-118.042,0,0,0,
,0.282,1.433,0.855,-127.808,84.594,78.979,0,0,0,
,0.14,1.145,1.302,116.516,50.293,17.028,0,0,0,
,-0.18,0.293,1.312,-72.815,-150.94,102.111,0,0,0,
,-0.314,0.227,1.041,-678.772,-549.439,317.932,0,0,0,
,-0.39,0.584,0.889,-1133.79,-789.124,420.227,0,0,0,
,-0.437,0.675,0.724,-982.911,-803.956,385.925,0,0,0,
,-0.455,0.491,0.426,-674.927,-714.173,321.716,0,0,0,
,-0.509,0.338,0.252,-433.533,-561.28,247.619,0,0,0,
,-0.632,0.327,0.282,-146.18,-210.755,93.2,0,0,0,
,-0.555,0.381,0.579,258.911,240.234,-52.735,0,0,0,
,-0.266,0.45,0.781,502.929,639.892,-126.404,0,0,0,
,-0.138,0.583,1.021,568.542,770.385,-151.307,0,0,0,
,-0.247,0.553,1.091,536.193,865.112,-181.153,0,0,0,
,-0.368,0.03,0.76,129.821,935.18,-227.967,0,0,0,
,-0.274,-0.106,0.547,-607.789,651.245,-223.816,0,0,0,
,0.03,0.814,0.701,-972.535,138.488,-114.563,0,0,0,
,0.111,1.372,0.743,-584.351,-49.195,-8.728,0,0,0,
,0.015,1.232,0.931,90.881,-110.962,51.452,0,0,0,
,-0.127,0.724,1.002,193.725,-246.46,125.732,0,0,0,
,-0.275,0.495,0.979,-144.104,-510.56,238.098,0,0,0,
,-0.386,0.601,0.86,-561.768,-707.764,324.401,0,0,0,
,-0.456,0.57,0.703,-796.509,-754.7,297.973,0,0,0,
,-0.541,0.451,0.447,-932.862,-704.59,298.217,0,0,0,
,-0.664,0.462,0.321,-900.147,-526.551,237.548,0,0,0,
,-0.727,0.575,0.457,-551.392,-100.586,49.316,0,0,0,
,-0.515,0.693,0.732,0.122,341.797,-130.433,0,0,0,
,-0.23,0.677,0.874,447.57,610.656,-230.408,0,0,0,
,-0.288,0.443,0.791,565.49,731.262,-286.744,0,0,0,
,-0.395,0.312,0.634,392.395,730.285,-283.509,0,0,0,
,-0.282,0.705,0.577,73.303,533.569,-210.877,0,0,0,
,-0.128,1.204,0.57,14.404,317.688,-101.929,0,0,0,
,-0.099,1.138,0.735,258.178,178.527,-9.583,0,0,0,
,-0.133,0.831,1.071,326.538,-51.148,115.966,0,0,0,
,-0.179,0.614,1.088,46.569,-332.276,262.756,0,0,0,
,-0.295,0.567,0.872,-288.208,-576.905,361.45,0,0,0,
,-0.445,0.512,0.564,-477.845,-611.451,379.15,0,0,0,
,-0.546,0.354,0.477,-566.834,-446.167,311.218,0,0,0,
,-0.546,0.233,0.404,-658.204,-180.909,178.283,0,0,0,
,-0.498,0.427,0.454,-578.919,133.3,21.301,0,0,0,
,-0.329,0.774,0.676,-182.312,392.456,-191.59,0,0,0,
,-0.202,0.82,0.864,385.254,562.439,-331.665,0,0,0,
,-0.293,0.508,0.679,597.229,649.353,-369.629,0,0,0,
,-0.351,0.298,0.57,278.32,599.67,-353.089,0,0,0,
,-0.228,0.522,0.501,-68.482,399.353,-287.11,0,0,0,
,-0.092,0.956,0.492,-107.727,215.026,-186.341,0,0,0,
,0.003,1.205,0.772,22.949,27.282,-62.378,0,0,0,
,-0.075,1.043,0.957,114.624,-151.917,101.867,0,0,0,
,-0.279,0.757,0.863,69.641,-372.803,229.736,0,0,0,
,-0.426,0.623,0.729,-22.156,-482.361,287.963,0,0,0,
,-0.499,0.481,0.58,-136.414,-471.009,258.422,0,0,0,
,-0.535,0.366,0.489,-236.084,-322.022,187.133,0,0,0,
,-0.519,0.373,0.559,-198.487,-74.83,27.771,0,0,0,
,-0.402,0.534,0.754,4.577,199.34,-113.404,0,0,0,
,-0.201,0.744,0.951,249.145,399.78,-175.721,0,0,0,
,-0.179,0.645,0.957,243.164,495.605,-226.99,0,0,0,
,-0.278,0.417,0.774,8.667,515.197,-207.825,0,0,0,
,-0.34,0.404,0.309,-280.03,397.277,-142.579,0,0,0,
,-0.23,0.916,0.244,-343.75,193.176,-87.708,0,0,0,
,-0.088,1.269,0.755,69.03,61.157,-56.458,0,0,0,
,-0.175,1.099,1.011,534.668,-55.726,65.124,0,0,0,
,-0.417,0.313,0.761,231.079,-366.761,203.064,0,0,0,
,-0.57,0.44,0.674,-167.908,-422.608,212.646,0,0,0,
,-0.642,0.521,0.722,-297.974,-227.417,126.77,0,0,0,
,-0.546,0.519,0.781,-320.557,29.052,32.653,0,0,0,
,-0.3,0.575,0.952,-631.287,184.692,-8.484,0,0,0,
,-0.114,0.748,1.175,-1104.371,166.442,-30.823,0,0,0,
,-0.337,0.232,0.744,-1449.036,246.154,-65.674,0,0,0,
,-0.485,-0.103,-0.217,-1406.922,150.94,17.273,0,0,0,
,-0.447,0.787,-0.708,-992.005,177.612,-205.567,0,0,0,
,-0.081,2.323,0.558,387.512,-7.447,-90.821,0,0,0,
,-0.115,1.875,1.062,1999.694,266.357,-13.733,0,0,0,
,-0.308,0.419,1.079,1999.694,456.298,-30.701,0,0,0,
,-0.255,-0.318,1.038,1203.308,58.837,171.325,0,0,0,
,-0.18,-0.008,1.037,-931.702,-432.19,265.747,0,0,0,
,-0.334,0.723,1.004,-1719.544,-580.994,325.927,0,0,0,
,-0.396,0.963,1.028,-1731.08,-462.098,248.718,0,0,0,
,-0.363,0.384,0.702,-1580.262,-268.494,125.244,0,0,0,
,-0.369,0.173,-0.67,-749.451,-267.762,119.812,0,0,0,
,-0.502,1.309,-0.621,189.758,-25.33,-109.192,0,0,0,
,-0.46,2.302,0.327,1999.694,119.629,14.16,0,0,0,
,-0.41,0.954,0.654,1999.694,786.499,-165.345,0,0,0,
,-0.383,-0.485,1.021,1999.694,1125.122,-387.269,0,0,0,
,0.056,-1.024,1.049,1303.039,428.527,-166.199,0,0,0,
,-0.652,0.451,0.589,-1881.775,-197.083,4.516,0,0,0,
,-0.546,0.408,-0.358,-1052.369,-111.878,-18.189,0,0,0,
,-0.301,1.507,-0.213,81.97,-150.696,63.598,0,0,0,
,-0.34,1.942,0.678,1904.052,134.948,35.705,0,0,0,
,-0.43,0.597,0.919,1999.694,730.102,-111.206,0,0,0,
,-0.085,0.292,1.121,-1291.749,-515.259,246.215,0,0,0,
,-0.469,0.712,0.997,-1650.391,-409.302,271.484,0,0,0,
,-0.595,0.371,0.914,-1592.408,-10.56,100.036,0,0,0,
,-0.387,0.12,0.011,-1232.666,20.202,91.491,0,0,0,
,-0.455,0.776,0.903,1999.694,927.429,-125.245,0,0,0,
,-0.301,-0.367,1.192,1999.694,1141.113,-234.192,0,0,0,
,0.037,-0.784,1.392,921.081,525.146,-112.244,0,0,0,
,0.074,-0.126,1.412,-916.932,-285.34,76.843,0,0,0,
,-0.349,0.268,1.171,-1681.763,-446.167,157.348,0,0,0,
,-0.301,0.353,0.663,-1960.694,-287.232,99.06,0,0,0,
,-0.073,1.192,0.337,-1507.203,-654.053,265.991,0,0,0,
,-0.334,2.001,0.535,31.982,-597.718,335.937,0,0,0,
,-0.51,1.362,0.911,1999.694,-35.34,167.419,0,0,0,
,-0.374,0.079,0.934,1999.694,325.988,41.565,0,0,0,
,-0.154,-0.547,0.921,1973.205,4.821,-24.781,0,0,0,
,-0.13,-0.293,0.768,534.179,-525.086,-6.104,0,0,0,
,-0.433,0.099,0.698,-195.008,-511.841,54.199,0,0,0,
,-0.584,0.13,0.674,-440.918,-122.925,7.995,0,0,0,
,-0.479,-0.041,0.71,-718.445,255.981,-42.42,0,0,0,
,-0.291,-0.14,0.904,-1377.503,499.328,-98.084,0,0,0,
,-0.131,0.058,0.834,-1832.642,459.106,-196.412,0,0,0,
,-0.676,0.803,0.573,956.787,587.341,-440.552,0,0,0,
,-0.146,0.884,0.887,1613.708,597.412,-401.551,0,0,0,
,0.083,0.701,1.297,1380.554,445.739,-283.814,0,0,0,
,0.004,0.42,1.596,432.312,5.798,-132.813,0,0,0,
,-0.272,0.455,1.38,-533.997,-536.377,96.374,0,0,0,
,-0.515,0.557,1.132,-920.472,-754.09,203.064,0,0,0,
,-0.578,0.571,0.922,-954.346,-762.146,268.859,0,0,0,
,-0.467,0.518,0.569,-786.377,-773.255,295.349,0,0,0,
,-0.433,0.512,0.327,-249.878,-638.062,228.454,0,0,0,
,-0.464,0.385,0.254,472.839,-229.248,90.881,0,0,0,
,-0.357,0.14,0.432,1126.22,290.161,-41.565,0,0,0,
,-0.174,-0.102,0.638,1323.12,720.031,-101.197,0,0,0,
,-0.14,-0.088,0.917,1016.845,855.896,-102.845,0,0,0,
,-0.249,0.142,1.317,465.026,769.958,-125,0,0,0,
,-0.391,0.233,1.406,-214.478,746.399,-161.744,0,0,0,
,-0.546,-0.503,0.934,-1090.76,779.419,-257.203,0,0,0,
,-0.437,-0.612,0.405,-1842.53,490.6,-235.047,0,0,0,
,0.067,0.599,0.142,-1969.3,-136.719,-192.994,0,0,0,
,0.346,2.252,0.8,-1091.858,-592.225,98.449,0,0,0,
,-0.081,2.577,1.319,1036.682,-376.77,147.338,0,0,0,
,-0.554,0.857,1.04,1999.694,-35.584,-6.653,0,0,0,
,-0.585,-0.179,0.946,1999.694,-111.634,-25.208,0,0,0,
,-0.387,-0.384,0.8,1191.711,-591.858,-17.212,0,0,0,
,-0.265,-0.119,0.689,300.232,-793.091,-9.522,0,0,0,
,-0.345,0.01,0.611,-98.023,-632.874,-18.982,0,0,0,
,-0.423,0.009,0.619,-321.9,-283.875,-70.618,0,0,0,
,-0.372,-0.016,0.688,-570.191,55.542,-78.431,0,0,0,
,-0.283,0.104,0.895,-816.102,254.821,-95.032,0,0,0,
,-0.294,0.322,1.254,-839.966,324.646,-155.701,0,0,0,
,-0.351,0.337,1.385,-832.52,430.297,-254.395,0,0,0,
,-0.491,-0.118,0.978,-1002.503,515.564,-315.125,0,0,0,
,-0.513,-0.346,0.561,-1360.962,349.548,-319.397,0,0,0,
,-0.228,0.596,0.023,-1590.455,-12.33,-190.308,0,0,0,
,0.095,1.951,0.353,-822.449,-316.102,9.155,0,0,0,
,-0.078,2.371,1.212,836.547,-224.671,16.54,0,0,0,
,-0.552,0.082,1.01,1531.616,-192.994,65.246,0,0,0,
,-0.4,-0.05,0.839,794.189,-627.32,135.681,0,0,0,
,-0.362,0.129,0.697,125.671,-739.197,162.353,0,0,0,
,-0.434,0.145,0.588,-129.944,-538.514,115.051,0,0,0,
,-0.45,0.061,0.547,-168.641,-216.98,38.513,0,0,0,
,-0.412,0.092,0.636,-116.944,105.346,-34.485,0,0,0,
,-0.352,0.286,0.976,29.724,344.543,-101.868,0,0,0,
,-0.261,0.516,1.293,255.798,461.425,-139.954,0,0,0,
,-0.377,0.355,1.218,243.286,600.036,-211.243,0,0,0,
,-0.557,-0.277,0.849,-92.652,683.96,-299.439,0,0,0,
,-0.455,-0.305,0.518,-806.946,430.297,-248.047,0,0,0,
,-0.064,0.673,0.109,-1087.586,32.775,-111.878,0,0,0,
,0.232,1.76,0.788,-432.801,-265.87,11.352,0,0,0,
,-0.13,1.677,1.343,540.771,-157.166,41.259,0,0,0,
,-0.469,0.636,1.183,1080.993,-171.998,13.671,0,0,0,
,-0.416,0.045,0.628,218.322,-489.747,66.162,0,0,0,
,-0.435,0.02,0.646,160.949,-185.73,8.117,0,0,0,
,-0.38,0.062,0.781,90.637,118.774,-49.988,0,0,0,
,-0.286,0.229,1.091,-13.977,288.025,-72.388,0,0,0,
,-0.275,0.471,1.269,-38.575,344.055,-120.85,0,0,0,
,-0.512,0.178,1.055,-121.827,510.62,-257.019,0,0,0,
,-0.688,-0.44,0.64,-427.735,582.824,-372.803,0,0,0,
,-0.41,-0.089,0.398,-1009.705,322.937,-272.583,0,0,0,
,0.054,1.125,0.284,-981.568,-99.976,-61.28,0,0,0,
,0.142,1.957,0.972,160.217,-169.495,64.392,0,0,0,
,-0.293,1.244,1.426,1164.672,-48.462,3.356,0,0,0,
,-0.47,-0.171,0.861,811.34,-471.07,74.89,0,0,0,
,-0.428,-0.097,0.708,235.534,-578.614,99.487,0,0,0,
,-0.452,-0.027,0.7,-66.834,-377.869,76.599,0,0,0,
,-0.447,0.048,0.85,-149.659,-101.441,31.982,0,0,0,
,-0.373,0.145,0.979,-131.287,94.909,-27.1,0,0,0,
,-0.329,0.277,1.188,-78.003,238.647,-105.713,0,0,0,
,-0.462,0.012,0.999,-94.788,399.047,-239.319,0,0,0,
,-0.554,-0.307,0.726,-426.27,465.881,-313.721,0,0,0,
,-0.318,0.001,0.509,-922.181,292.175,-266.541,0,0,0,
,0.025,0.85,0.484,-949.158,-32.105,-148.682,0,0,0,
,0.104,1.548,0.821,-91.187,-128.235,7.873,0,0,0,
,-0.194,1.166,1.237,758.911,-71.717,-21.973,0,0,0,
,-0.423,0.406,1.162,922.485,-186.829,12.512,0,0,0,
,-0.449,0.02,0.998,500.915,-485.962,48.584,0,0,0,
,-0.435,0.041,0.794,34.79,-624.817,78.064,0,0,0,
,-0.451,0.047,0.641,-233.948,-495.667,47.241,0,0,0,
,-0.448,0.07,0.632,-278.87,-267.029,-3.174,0,0,0,
,-0.42,0.161,0.7,-162.781,51.879,-75.196,0,0,0,
,-0.392,0.298,0.878,26.977,307.556,-158.875,0,0,0,
,-0.421,0.376,1.005,52.673,491.455,-238.16,0,0,0,
,-0.54,0.095,0.914,-65.552,684.326,-351.441,0,0,0,
,-0.567,-0.344,0.641,-504.517,796.692,-443.421,0,0,0,
,-0.284,-0.124,0.344,-1178.65,639.038,-364.319,0,0,0,
,0.157,0.99,0.567,-1381.531,168.09,-167.725,0,0,0,
,0.231,2.031,1.061,-571.717,-62.317,58.288,0,0,0,
,-0.163,1.548,1.315,611.633,-22.828,37.658,0,0,0,
,-0.439,0.49,1.06,1204.895,-69.519,71.228,0,0,0,
,-0.475,-0.011,0.995,907.104,-377.381,103.332,0,0,0,
,-0.399,-0.021,0.893,340.881,-644.349,102.722,0,0,0,
,-0.399,0.019,0.753,17.456,-612.061,54.504,0,0,0,
,-0.436,0.036,0.741,14.77,-374.207,-5.433,0,0,0,
,-0.398,0.081,0.789,161.193,-39.795,-84.29,0,0,0,
,-0.36,0.284,0.969,243.835,244.69,-118.836,0,0,0,
,-0.328,0.376,1.207,188.842,393.005,-182.862,0,0,0,
,-0.431,0.174,1.207,-23.072,532.898,-232.361,0,0,0,
,-0.513,-0.193,0.86,-561.768,578.064,-289.429,0,0,0,
,-0.427,-0.137,0.488,-1170.166,396.179,-238.343,0,0,0,
,-0.166,0.677,0.25,-1279.908,142.822,-142.884,0,0,0,
,0.083,1.573,0.659,-451.233,-28.321,-27.527,0,0,0,
,-0.038,1.608,1.236,610.534,3.234,-5.433,0,0,0,
,-0.281,0.676,1.204,1052.124,-41.077,9.216,0,0,0,
,-0.369,0.104,0.968,776.489,-335.511,81.848,0,0,0,
,-0.38,0.087,0.914,263.366,-626.16,121.582,0,0,0,
,-0.363,0.198,0.837,-101.014,-682.312,106.811,0,0,0,
,-0.365,0.144,0.695,-298.279,-568.726,56.823,0,0,0,
,-0.38,0.074,0.585,-457.825,-379.212,8.667,0,0,0,
,-0.424,0.121,0.627,-524.353,-132.935,-45.166,0,0,0,
,-0.451,0.291,0.795,-410.218,123.352,-112.61,0,0,0,
,-0.386,0.457,0.985,-108.704,336.609,-184.51,0,0,0,
,-0.376,0.372,1.165,110.901,471.252,-251.465,0,0,0,
,-0.375,0.184,1.083,-10.132,507.141,-266.785,0,0,0,
,-0.379,0.032,0.724,-373.414,429.138,-267.334,0,0,0,
,-0.319,0.315,0.358,-746.338,270.874,-231.385,0,0,0,
,-0.126,0.948,0.374,-611.451,106.018,-162.232,0,0,0,
,0.009,1.461,0.999,6.713,-36.011,-66.529,0,0,0,
,-0.186,1.096,1.177,544.86,-70.313,5.981,0,0,0,
,-0.351,0.502,1.127,579.223,-258.789,87.524,0,0,0,
,-0.421,0.317,1.009,310.485,-529.664,159.546,0,0,0,
,-0.438,0.247,0.876,93.017,-616.456,131.408,0,0,0,
,-0.431,0.135,0.709,-132.447,-567.566,90.087,0,0,0,
,-0.438,0.121,0.641,-357.605,-428.589,55.664,0,0,0,
,-0.468,0.282,0.737,-355.835,-202.027,9.094,0,0,0,
,-0.449,0.465,0.902,-109.436,105.041,-66.407,0,0,0,
,-0.317,0.344,1.022,38.269,468.811,-220.765,0,0,0,
,-0.518,-0.029,0.462,-76.844,514.709,-302.735,0,0,0,
,-0.535,0.006,0.133,-283.387,456.359,-345.948,0,0,0,
,-0.111,0.837,0.448,-148.377,249.939,-288.514,0,0,0,
,0.212,1.509,1.095,543.945,99.853,-141.724,0,0,0,
,0.026,0.991,1.292,951.11,78.186,-95.887,0,0,0,
,-0.256,0.36,1.019,672.241,-227.723,37.536,0,0,0,
,-0.442,0.252,0.965,165.161,-500.916,84.533,0,0,0,
,-0.51,0.247,0.908,-125.367,-534.119,67.321,0,0,0,
,-0.506,0.159,0.828,-250,-406.189,40.161,0,0,0,
,-0.505,0.155,0.791,-275.696,-211.792,17.334,0,0,0,
,-0.505,0.332,0.859,-187.745,27.832,-49.622,0,0,0,
,-0.415,0.56,1.063,50.72,245.605,-87.281,0,0,0,
,-0.391,0.54,1.213,296.753,404.968,-196.839,0,0,0,
,-0.55,0.109,0.965,198.12,538.269,-278.87,0,0,0,
,-0.497,-0.425,0.485,-555.298,511.84,-293.58,0,0,0,
,-0.112,0.197,0.211,-1169.617,162.17,-233.643,0,0,0,
,0.237,1.492,0.767,-1042.664,-201.905,8.667,0,0,0,
,0.129,1.902,1.106,-258.24,-157.715,187.683,0,0,0,
,-0.284,1.099,1.007,453.186,-173.035,232.971,0,0,0,
,-0.544,0.427,0.888,545.044,-329.59,318.298,0,0,0,
,-0.574,0.144,0.798,277.282,-478.15,282.47,0,0,0,
,-0.532,0.035,0.627,47.729,-475.281,222.534,0,0,0,
,-0.579,-0.002,0.547,-39.063,-301.575,120.605,0,0,0,
,-0.629,0.052,0.635,27.221,-35.157,-2.869,0,0,0,
,-0.575,0.25,0.861,302.002,285.583,-130.555,0,0,0,
,-0.391,0.445,1.088,467.529,511.291,-207.642,0,0,0,
,-0.309,0.323,1.248,253.296,602.966,-302.918,0,0,0,
,-0.396,-0.062,0.84,-312.989,643.798,-328.98,0,0,0,
,-0.384,-0.424,0.347,-1209.412,536.132,-329.956,0,0,0,
,0.005,0.556,0.093,-1667.359,135.07,-231.812,0,0,0,
,0.342,1.772,0.51,-1094.422,-146.424,-21.363,0,0,0,
,0.193,2.116,1.051,79.956,-92.53,143.432,0,0,0,
,-0.234,1.06,0.978,842.895,-66.956,171.997,0,0,0,
,-0.506,0.266,0.884,824.646,-230.164,259.826,0,0,0,
,-0.545,0.015,0.848,421.508,-443.848,226.623,0,0,0,
,-0.503,0.03,0.717,-19.593,-517.823,161.01,0,0,0,
,-0.544,0.074,0.573,-242.249,-409.302,62.866,0,0,0,
,-0.617,0.182,0.668,-207.215,-164.368,-34.119,0,0,0,
,-0.541,0.478,0.838,86.914,192.688,-137.452,0,0,0,
,-0.269,0.55,1.21,313.171,421.753,-233.399,0,0,0,
,-0.198,0.404,1.223,280.09,514.648,-321.778,0,0,0,
,-0.4,0.029,0.625,-197.327,579.895,-372.986,0,0,0,
,-0.446,-0.098,0.151,-931.336,408.447,-359.925,0,0,0,
,-0.095,0.919,0.186,-980.835,91.735,-280.64,0,0,0,
,0.278,1.925,0.888,55.542,44.555,-52.613,0,0,0,
,0.233,1.512,1.192,765.747,110.168,45.288,0,0,0,
,-0.101,0.545,0.973,625.305,-85.45,218.567,0,0,0,
,-0.456,0.287,0.895,147.033,-415.589,335.449,0,0,0,
,-0.649,0.256,0.81,-128.968,-511.719,311.401,0,0,0,
,-0.697,0.175,0.75,-103.882,-341.492,204.223,0,0,0,
,-0.637,0.125,0.733,-15.015,-89.722,67.749,0,0,0,
,-0.569,0.27,0.894,153.503,170.349,-52.491,0,0,0,
,-0.419,0.624,1.199,397.522,369.873,-126.038,0,0,0,
,-0.276,0.647,1.429,453.369,529.724,-202.82,0,0,0,
,-0.403,0.138,1.076,61.401,647.4,-304.444,0,0,0,
,-0.378,-0.478,0.336,-760.926,546.508,-285.34,0,0,0,
,-0.024,0.32,-0.167,-1261.231,126.342,-198.243,0,0,0,
,0.376,1.87,0.477,-576.539,-121.46,68.847,0,0,0,
,0.301,2.052,1.253,562.805,39.672,201.355,0,0,0,
,-0.126,0.723,1.077,979.187,61.462,228.637,0,0,0,
,-0.409,0.03,0.908,628.173,-241.761,374.267,0,0,0,
,-0.493,0.068,0.799,44.433,-513.916,387.207,0,0,0,
,-0.53,0.148,0.692,-94.788,-427.185,263.488,0,0,0,
,-0.588,0.043,0.651,7.934,-187.073,123.901,0,0,0,
,-0.564,0.038,0.765,123.108,103.088,-42.908,0,0,0,
,-0.397,0.345,1.031,284.607,277.099,-170.411,0,0,0,
,-0.25,0.517,1.162,365.417,444.03,-266.846,0,0,0,
,-0.293,0.293,0.994,219.665,562.317,-367.554,0,0,0,
,-0.352,-0.23,0.53,-429.261,638.733,-404.419,0,0,0,
,-0.003,0.048,0.276,-1170.655,306.274,-347.352,0,0,0,
,0.477,2.03,0.932,-277.71,-168.946,173.523,0,0,0,
,0.007,1.446,1.094,429.077,-96.985,241.272,0,0,0,
,-0.371,0.574,0.929,660.522,-132.935,311.218,0,0,0,
,-0.462,0.236,0.925,381.958,-365.723,382.751,0,0,0,
,-0.44,0.121,0.788,140.686,-444.825,302.307,0,0,0,
,-0.52,0.007,0.708,90.148,-345.643,200.866,0,0,0,
,-0.68,-0.067,0.66,164.428,-130.616,58.41,0,0,0,
,-0.758,0.04,0.862,304.87,181.701,-103.577,0,0,0,
,-0.523,0.472,1.224,509.399,403.076,-224.427,0,0,0,
,-0.293,0.626,1.439,524.78,519.409,-271.546,0,0,0,
,-0.381,0.276,1.251,113.769,595.52,-339.112,0,0,0,
,-0.419,-0.545,0.671,-740.845,611.45,-361.939,0,0,0,
,0.015,-0.096,-0.011,-1743.409,174.316,-263.245,0,0,0,
,0.53,1.541,0.192,-1586.243,-348.267,-0.306,0,0,0,
,0.458,2.629,0.883,-433.655,-297.791,408.935,0,0,0,
,-0.161,1.583,0.98,763.61,-50.538,310.363,0,0,0,
,-0.515,0.451,0.909,1195.739,40.283,363.281,0,0,0,
,-0.502,-0.025,0.803,668.518,-248.352,427.185,0,0,0,
,-0.449,-0.085,0.686,198.12,-398.377,316.955,0,0,0,
,-0.589,-0.08,0.649,52.612,-269.837,239.868,0,0,0,
,-0.714,-0.115,0.721,173.278,43.273,60.363,0,0,0,
,-0.592,0.142,0.97,398.742,301.513,-88.257,0,0,0,
,-0.319,0.475,1.273,541.931,473.693,-164.429,0,0,0,
,-0.185,0.408,1.35,264.343,533.142,-259.095,0,0,0,
,-0.329,-0.282,0.954,-558.96,592.773,-348.755,0,0,0,
,-0.248,-0.683,0.325,-1524.903,404.358,-348.145,0,0,0,
,0.271,0.507,-0.169,-1981.934,-140.686,-224.549,0,0,0,
,0.624,2.301,0.505,-1258.179,-486.756,217.041,0,0,0,
,0.203,2.538,1.039,365.295,-226.502,335.754,0,0,0,
,-0.338,0.957,0.95,1478.637,65.673,232.177,0,0,0,
,-0.504,0.069,0.885,1310.302,6.591,312.5,0,0,0,
,-0.339,-0.013,0.838,481.872,-356.812,334.411,0,0,0,
,-0.301,0.146,0.749,91.308,-419.617,294.983,0,0,0,
,-0.537,0.045,0.687,129.089,-192.322,204.101,0,0,0,
,-0.717,-0.035,0.768,317.871,93.811,41.015,0,0,0,
,-0.686,0.077,1.092,469.055,323.425,-104.371,0,0,0,
,-0.383,0.387,1.411,343.933,441.04,-224.61,0,0,0,
,-0.329,0.216,1.201,-83.985,466.552,-325.867,0,0,0,
,-0.415,-0.49,0.839,-927.185,470.398,-381.958,0,0,0,
,-0.033,-0.073,0.18,-1606.751,141.174,-300.599,0,0,0,
,0.466,1.408,0.117,-1569.581,-333.741,-30.091,0,0,0,
,0.45,2.607,0.756,-309.754,-294.983,377.197,0,0,0,
,-0.133,1.642,1.096,1016.052,-12.574,261.963,0,0,0,
,-0.513,0.382,1.004,1384.216,117.92,270.08,0,0,0,
,-0.499,-0.079,0.82,783.752,-221.863,414.489,0,0,0,
,-0.387,-0.005,0.765,244.995,-414.551,346.618,0,0,0,
,-0.487,0.001,0.726,114.257,-330.506,268.432,0,0,0,
,-0.648,-0.086,0.666,210.815,-89.6,116.882,0,0,0,
,-0.68,-0.01,0.816,343.2,170.105,-30.884,0,0,0,
,-0.51,0.198,1.119,468.078,385.864,-160.889,0,0,0,
,-0.254,0.377,1.376,363.891,456.848,-253.968,0,0,0,
,-0.329,-0.006,1.156,-166.199,506.591,-376.099,0,0,0,
,-0.339,-0.704,0.79,-1223.45,459.716,-423.096,0,0,0,
,0.075,0.011,-0.115,-1997.681,59.509,-269.349,0,0,0,
,0.59,1.711,0.091,-1919.983,-505.494,137.817,0,0,0,
,0.365,2.913,0.824,-280.03,-379.578,436.828,0,0,0,
,-0.308,1.536,1.051,1269.043,47.546,200.134,0,0,0,
,-0.607,0.257,0.968,1703.491,168.884,253.845,0,0,0,
,-0.483,-0.239,0.796,1067.077,-219.422,352.844,0,0,0,
,-0.369,-0.193,0.7,435.669,-404.725,253.906,0,0,0,
,-0.537,-0.151,0.644,234.069,-318.055,159.79,0,0,0,
,-0.714,-0.133,0.718,253.357,-73.548,10.864,0,0,0,
,-0.71,0.022,0.899,390.93,207.763,-124.268,0,0,0,
,-0.45,0.276,1.244,405.517,379.394,-216.248,0,0,0,
,-0.247,0.389,1.53,195.617,363.647,-323.365,0,0,0,
,-0.389,-0.214,1.113,-494.996,467.651,-431.519,0,0,0,
,-0.357,-0.832,0.514,-1508.179,321.411,-424.134,0,0,0,
,0.121,0.322,-0.277,-2000,-204.529,-199.83,0,0,0,
,0.565,2.183,0.049,-1527.71,-589.844,263.122,0,0,0,
,0.207,2.956,0.996,444.091,-233.338,365.417,0,0,0,
,-0.426,1.131,1.051,1609.924,206.604,155.151,0,0,0,
,-0.629,-0.055,1.027,1643.859,228.576,195.19,0,0,0,
,-0.452,-0.433,0.78,774.719,-253.357,265.686,0,0,0,
,-0.408,-0.226,0.651,204.773,-424.256,175.537,0,0,0,
,-0.641,-0.068,0.63,68.847,-229.432,99.853,0,0,0,
,-0.747,-0.002,0.791,212.646,113.281,-66.59,0,0,0,
,-0.576,0.16,1.068,365.966,400.329,-179.749,0,0,0,
,-0.259,0.357,1.431,310.852,493.225,-218.201,0,0,0,
,-0.271,0.074,1.325,-158.204,613.281,-371.644,0,0,0,
,-0.339,-0.692,0.913,-1153.809,645.385,-451.661,0,0,0,
,0.011,-0.207,-0.003,-2000,216.43,-270.691,0,0,0,
,0.526,1.478,-0.081,-1995.362,-483.704,5.981,0,0,0,
,0.437,3.008,0.835,-609.192,-328.431,399.109,0,0,0,
,-0.173,2.002,1.16,1152.71,49.194,184.57,0,0,0,
,-0.575,0.381,1.027,1795.776,279.541,188.964,0,0,0,
,-0.538,-0.281,0.881,1157.287,-86.731,319.213,0,0,0,
,-0.373,-0.238,0.806,424.316,-419.312,243.652,0,0,0,
,-0.516,-0.114,0.723,126.709,-421.936,167.724,0,0,0,
,-0.728,-0.143,0.71,160.156,-152.161,35.339,0,0,0,
,-0.747,-0.007,0.937,283.752,144.897,-121.582,0,0,0,
,-0.472,0.272,1.281,312.988,325.866,-200.684,0,0,0,
,-0.236,0.355,1.532,15.441,382.568,-306.824,0,0,0,
,-0.355,-0.462,1.113,-696.412,523.681,-451.905,0,0,0,
,-0.214,-0.696,0.37,-1784.791,290.832,-370.789,0,0,0,
,0.227,0.774,-0.286,-2000,-349.122,-136.414,0,0,0,
,0.566,2.493,0.35,-1242.371,-556.336,295.898,0,0,0,
,0.072,2.701,1.174,726.623,-120.362,287.17,0,0,0,
,-0.448,0.87,1.032,1911.377,218.689,173.767,0,0,0,
,-0.624,-0.202,0.901,1582.031,103.698,256.103,0,0,0,
,-0.454,-0.399,0.772,649.231,-336.731,273.193,0,0,0,
,-0.45,-0.17,0.72,77.392,-444.275,188.659,0,0,0,
,-0.681,-0.044,0.699,41.626,-259.888,85.754,0,0,0,
,-0.816,-0.026,0.759,269.043,66.955,-98.023,0,0,0,
,-0.596,0.16,1.058,434.509,380.981,-225.525,0,0,0,
,-0.197,0.436,1.404,274.78,421.325,-281.434,0,0,0,
,-0.178,0.123,1.292,-360.169,460.083,-389.954,0,0,0,
,-0.303,-0.6,0.68,-1264.161,422.302,-391.785,0,0,0,
,0.052,0.063,-0.113,-1972.657,-16.846,-189.026,0,0,0,
,0.388,1.612,-0.172,-1718.323,-408.387,179.26,0,0,0,
,0.209,2.765,0.986,275.085,-201.783,345.581,0,0,0,
,-0.361,1.331,1.055,1676.818,224.609,131.042,0,0,0,
,-0.609,-0.065,0.997,1844.116,342.285,126.281,0,0,0,
,-0.497,-0.523,0.712,807.251,-216.004,262.817,0,0,0,
,-0.454,-0.271,0.62,87.585,-445.923,164.306,0,0,0,
,-0.661,-0.055,0.543,-2.381,-301.697,75.927,0,0,0,
,-0.839,0.005,0.716,330.688,99.609,-96.497,0,0,0,
,-0.719,0.136,0.864,591.308,496.948,-223.755,0,0,0,
,-0.273,0.316,1.3,537.231,648.62,-228.15,0,0,0,
,-0.165,0.33,1.501,274.78,646.484,-297.242,0,0,0,
,-0.35,-0.268,1.219,-516.114,745.971,-349.122,0,0,0,
,-0.173,-0.375,0.684,-1345.948,367.981,-266.053,0,0,0,
,0.138,0.506,-0.103,-1595.765,-146.729,-138.733,0,0,0,
,0.443,1.999,0.705,-454.102,-253.54,155.456,0,0,0,
,0.315,2.114,1.462,875.793,27.465,263.061,0,0,0,
,-0.095,0.587,1.289,1461.242,160.034,154.907,0,0,0,
,-0.354,-0.17,1.096,1048.156,-181.336,255.066,0,0,0,
,-0.314,-0.089,0.984,124.45,-676.209,326.843,0,0,0,
,-0.327,0.095,0.782,-173.768,-721.497,239.685,0,0,0,
,-0.51,0.011,0.559,-168.519,-521.851,144.653,0,0,0,
,-0.658,-0.111,0.563,-90.699,-207.642,10.681,0,0,0,
,-0.546,-0.075,0.796,74.462,150.573,-98.877,0,0,0,
,-0.283,0.135,1.065,266.235,421.936,-161.499,0,0,0,
,-0.115,0.347,1.354,226.257,528.93,-197.632,0,0,0,
,-0.2,0.13,1.207,-176.331,659.057,-246.766,0,0,0,
,-0.337,-0.511,0.767,-949.891,698.974,-332.337,0,0,0,
,-0.079,-0.134,0.398,-1821.412,253.662,-235.047,0,0,0,
,0.299,1.161,0.015,-1679.322,-308.472,-56.275,0,0,0,
,0.375,2.391,1.033,-336.609,-241.272,216.186,0,0,0,
,-0.031,1.642,1.405,1038.208,-53.406,135.62,0,0,0,
,-0.48,0.243,1.099,1477.966,14.892,103.759,0,0,0,
,-0.58,-0.275,0.909,895.813,-342.469,176.696,0,0,0,
,-0.525,-0.173,0.76,89.538,-626.893,153.076,0,0,0,
,-0.557,0.024,0.66,-236.695,-513.367,99.426,0,0,0,
,-0.485,0.078,0.915,148.681,287.475,-92.347,0,0,0,
,-0.202,0.265,1.26,258.117,459.716,-131.043,0,0,0,
,-0.083,0.491,1.392,142.517,501.77,-173.523,0,0,0,
,-0.32,0.057,1.053,-232.361,688.964,-288.941,0,0,0,
,-0.418,-0.517,0.662,-858.582,652.71,-292.847,0,0,0,
,-0.028,0.141,0.077,-1409.607,221.252,-149.842,0,0,0,
,0.427,1.523,0.48,-932.251,-268.433,41.32,0,0,0,
,0.275,2.152,1.449,226.074,-228.638,170.837,0,0,0,
,-0.238,0.923,1.509,1109.863,-99.976,7.995,0,0,0,
,-0.512,-0.103,1.059,1037.658,-284.852,76.782,0,0,0,
,-0.48,-0.197,0.811,259.887,-737.671,139.099,0,0,0,
,-0.46,0.056,0.636,-380.799,-884.522,113.952,0,0,0,
,-0.588,0.183,0.489,-479.554,-698.975,65.612,0,0,0,
,-0.628,0.208,0.556,-242.249,-271.119,-24.842,0,0,0,
,-0.457,0.286,0.738,141.296,202.27,-137.146,0,0,0,
,-0.178,0.42,1.09,392.761,424.865,-189.454,0,0,0,
,-0.094,0.527,1.207,400.39,507.629,-189.576,0,0,0,
,-0.297,0.258,1.002,187.744,663.879,-233.948,0,0,0,
,-0.446,-0.257,0.642,-242.737,732.299,-272.644,0,0,0,
,-0.206,0.055,0.492,-731.019,433.044,-145.935,0,0,0,
,0.104,0.859,0.319,-757.386,120.483,-33.143,0,0,0,
,0.263,1.533,1.062,15.014,-92.957,52.368,0,0,0,
,-0.056,0.987,1.523,713.806,-104.615,1.77,0,0,0,
,-0.357,0.083,1.294,682.739,-284.363,24.658,0,0,0,
,-0.463,-0.13,0.921,126.342,-710.206,94.482,0,0,0,
,-0.542,0.055,0.71,-503.418,-878.296,104.797,0,0,0,
,-0.613,0.202,0.574,-693.238,-688.355,54.809,0,0,0,
,-0.605,0.242,0.598,-545.166,-338.99,-34.241,0,0,0,
,-0.415,0.354,0.809,-300.66,108.154,-123.719,0,0,0,
,-0.145,0.585,1.107,-80.506,317.749,-165.406,0,0,0,
,-0.008,0.695,1.286,4.943,434.875,-177.918,0,0,0,
,-0.191,0.353,0.952,-19.837,622.985,-213.501,0,0,0,
,-0.413,-0.145,0.465,-114.685,734.253,-288.758,0,0,0,
,-0.231,0.269,0.317,-308.228,466.552,-152.1,0,0,0,
,0.077,1.036,0.419,-88.379,193.847,-49.5,0,0,0,
,0.2,1.425,1.197,863.952,7.263,-46.631,0,0,0,
,-0.146,0.59,1.615,1291.32,14.831,-127.503,0,0,0,
,-0.346,-0.102,1.373,806.579,-265.198,-30.823,0,0,0,
,-0.382,-0.116,0.986,-62.745,-742.737,39.306,0,0,0,
,-0.489,0.124,0.725,-799.988,-873.963,76.477,0,0,0,
,-0.581,0.257,0.621,-1085.511,-704.651,67.932,0,0,0,
,-0.538,0.314,0.569,-1005.738,-426.941,-0.916,0,0,0,
,-0.403,0.486,0.698,-640.442,-72.632,-105.53,0,0,0,
,-0.193,0.72,1.02,-111.084,185.608,-192.933,0,0,0,
,-0.078,0.795,1.131,376.403,401.123,-172.73,0,0,0,
,-0.214,0.549,0.862,621.704,621.154,-180.664,0,0,0,
,-0.444,0.036,0.474,600.341,794.677,-265.748,0,0,0,
,-0.339,0.172,0.415,299.621,660.034,-150.025,0,0,0,
,-0.018,0.77,0.487,133.911,374.511,-27.405,0,0,0,
,0.135,0.906,1.017,567.26,178.711,-97.352,0,0,0,
,-0.066,0.398,1.453,720.276,13.305,-110.169,0,0,0,
,-0.238,0.018,1.366,275.512,-339.295,-29.908,0,0,0,
,-0.322,0.048,1.043,-362.915,-734.314,28.198,0,0,0,
,-0.421,0.164,0.772,-795.533,-843.75,52.856,0,0,0,
,-0.484,0.225,0.565,-921.143,-705.14,41.992,0,0,0,
,-0.495,0.323,0.512,-756.836,-392.579,-35.889,0,0,0,
,-0.417,0.492,0.656,-419.861,-16.175,-139.405,0,0,0,
,-0.218,0.679,0.989,0.732,311.462,-235.291,0,0,0,
,-0.021,0.834,1.213,307.434,441.284,-222.107,0,0,0,
,-0.222,0.574,0.955,473.083,670.471,-235.352,0,0,0,
,-0.496,0.068,0.51,502.136,843.139,-274.903,0,0,0,
,-0.338,0.345,0.57,354.614,591.797,-154.236,0,0,0,
,-0.035,0.905,0.602,427.124,373.901,-34.302,0,0,0,
,-0.009,0.757,1.251,873.657,259.033,-135.682,0,0,0,
,-0.137,0.158,1.606,773.193,30.578,-109.314,0,0,0,
,-0.165,-0.077,1.381,11.718,-418.702,-1.282,0,0,0,
,-0.261,0.104,1.089,-770.386,-866.7,72.143,0,0,0,
,-0.407,0.251,0.797,-1184.449,-955.75,109.497,0,0,0,
,-0.445,0.277,0.529,-1293.274,-867.188,121.338,0,0,0,
,-0.427,0.379,0.375,-1027.894,-615.54,80.871,0,0,0,
,-0.425,0.578,0.546,-442.383,-216.248,-54.017,0,0,0,
,-0.29,0.722,0.888,334.289,251.342,-181.092,0,0,0,
,-0.091,0.613,1.025,759.826,551.147,-211.304,0,0,0,
,-0.18,0.304,0.914,802.734,751.892,-202.454,0,0,0,
,-0.356,0.051,0.664,571.411,794.25,-205.14,0,0,0,
,-0.327,0.374,0.642,146.85,567.077,-114.991,0,0,0,
,-0.153,0.753,0.632,149.597,350.28,-50.66,0,0,0,
,-0.046,0.63,1.208,527.71,227.661,-135.254,0,0,0,
,-0.05,0.324,1.521,458.313,-81.36,-77.027,0,0,0,
,-0.14,0.172,1.332,-77.149,-481.507,30.822,0,0,0,
,-0.266,0.223,1.036,-631.714,-823.487,75.134,0,0,0,
,-0.361,0.248,0.816,-951.294,-932.312,80.444,0,0,0,
,-0.367,0.28,0.538,-1062.623,-881.043,104.065,0,0,0,
,-0.417,0.368,0.348,-820.618,-618.226,45.959,0,0,0,
,-0.473,0.508,0.508,-374.329,-191.163,-106.019,0,0,0,
,-0.381,0.56,0.766,167.541,319.824,-233.704,0,0,0,
,-0.114,0.689,1.076,468.628,570.373,-265.381,0,0,0,
,-0.151,0.59,1.094,497.863,748.657,-265.259,0,0,0,
,-0.407,0.082,0.776,324.463,900.94,-316.651,0,0,0,
,-0.448,0.004,0.576,-94.361,799.377,-265.931,0,0,0,
,-0.136,0.756,0.51,-489.991,406.311,-108.704,0,0,0,
,0.071,1.323,0.772,-128.724,221.069,22.461,0,0,0,
,0.014,1.039,1.537,369.079,94.36,-56.275,0,0,0,
,-0.179,0.331,1.514,175.476,-203.431,105.896,0,0,0,
,-0.236,0.17,1.038,-472.718,-725.586,280.7,0,0,0,
,-0.358,0.314,0.721,-935.181,-1015.137,329.406,0,0,0,
,-0.489,0.406,0.52,-881.348,-961.792,316.284,0,0,0,
,-0.566,0.384,0.381,-401.978,-601.502,163.208,0,0,0,
,-0.546,0.364,0.592,143.066,-95.52,-84.412,0,0,0,
,-0.319,0.402,0.883,528.564,363.159,-226.014,0,0,0,
,-0.035,0.583,1.156,584.777,538.818,-251.954,0,0,0,
,-0.155,0.394,1.078,413.818,687.317,-272.4,0,0,0,
,-0.403,-0.083,0.623,93.322,790.771,-302.796,0,0,0,
,-0.403,0.059,0.363,-299.439,633.484,-288.575,0,0,0,
,-0.112,0.976,0.495,-432.19,290.71,-168.335,0,0,0,
,0.133,1.486,1.105,141.54,95.52,-80.689,0,0,0,
,0.045,0.995,1.545,575.683,0.915,-70.008,0,0,0,
,-0.268,0.278,0.899,-463.746,-875.916,273.315,0,0,0,
,-0.395,0.458,0.689,-781.495,-1064.576,306.396,0,0,0,
,-0.493,0.429,0.425,-658.02,-952.942,270.141,0,0,0,
,-0.554,0.295,0.267,-280.03,-613.77,125.061,0,0,0,
,-0.529,0.271,0.464,148.132,-80.628,-121.216,0,0,0,
,-0.321,0.35,0.782,572.143,362.365,-266.968,0,0,0,
,-0.091,0.522,1.007,765.197,605.957,-313.965,0,0,0,
,-0.175,0.488,1.101,630.188,762.146,-337.952,0,0,0,
,-0.363,0.068,0.871,270.996,901.733,-378.052,0,0,0,
,-0.386,-0.105,0.483,-318.543,793.213,-360.535,0,0,0,
,-0.157,0.557,0.507,-804.932,406.372,-252.015,0,0,0,
,0.139,1.539,1.298,385.559,-65.064,-57.312,0,0,0,
,-0.121,0.845,1.457,658.264,-195.74,24.414,0,0,0,
,-0.296,0.242,1.162,242.126,-509.644,153.93,0,0,0,
,-0.424,0.384,0.598,-854.493,-1059.571,281.494,0,0,0,
,-0.541,0.357,0.323,-818.97,-911.866,245.3,0,0,0,
,-0.667,0.335,0.313,-465.027,-482.605,91.43,0,0,0,
,-0.625,0.403,0.664,131.286,111.938,-147.644,0,0,0,
,-0.2,0.538,1.11,667.968,569.091,-299.683,0,0,0,
,0.141,0.711,1.256,862.548,719.177,-259.949,0,0,0,
,-0.209,0.448,1.006,749.206,880.676,-257.142,0,0,0,
,-0.514,-0.141,0.573,304.87,953.247,-311.89,0,0,0,
,-0.438,-0.038,0.559,-340.516,701.965,-264.039,0,0,0,
,-0.032,0.803,0.352,-660.706,312.255,-169.251,0,0,0,
,0.245,1.549,1.083,-14.893,16.601,-67.933,0,0,0,
,0.103,1.23,1.515,500.976,-110.474,1.281,0,0,0,
,-0.201,0.302,1.231,418.518,-366.639,74.035,0,0,0,
,-0.308,0.156,0.984,-262.207,-876.282,231.506,0,0,0,
,-0.351,0.361,0.741,-925.415,-1152.222,286.132,0,0,0,
,-0.459,0.415,0.44,-992.493,-1068.848,267.7,0,0,0,
,-0.6,0.37,0.283,-646.79,-691.529,169.983,0,0,0,
,-0.601,0.437,0.589,2.746,-10.865,-90.088,0,0,0,
,-0.221,0.536,1.036,561.096,451.66,-263.123,0,0,0,
,0.089,0.58,1.073,786.926,728.881,-242.615,0,0,0,
,-0.18,0.333,0.766,675.109,890.93,-253.907,0,0,0,
,-0.432,0,0.482,385.192,910.827,-317.078,0,0,0,
,-0.407,0.211,0.6,-31.556,717.163,-303.223,0,0,0,
,-0.061,0.823,0.696,-231.751,391.845,-228.76,0,0,0,
,0.152,1.14,1.005,196.533,158.325,-131.348,0,0,0,
,0.085,0.858,1.427,385.131,-72.998,-52.308,0,0,0,
,-0.13,0.397,1.265,23.193,-434.693,85.632,0,0,0,
,-0.293,0.315,0.897,-498.78,-804.139,199.829,0,0,0,
,-0.382,0.389,0.698,-946.656,-979.981,227.05,0,0,0,
,-0.488,0.378,0.427,-1015.259,-898.621,216.43,0,0,0,
,-0.603,0.395,0.328,-684.571,-568.421,94.116,0,0,0,
,-0.619,0.502,0.61,-88.623,61.828,-151.612,0,0,0,
,-0.285,0.635,1.062,430.725,506.103,-289.673,0,0,0,
,0.08,0.802,1.334,703.613,701.233,-268.677,0,0,0,
,-0.121,0.685,1.121,601.013,839.538,-236.817,0,0,0,
,-0.422,0.071,0.691,234.13,907.165,-267.762,0,0,0,
,-0.397,0.033,0.419,-261.048,653.625,-230.53,0,0,0,
,-0.094,0.652,0.315,-768.433,381.591,-146.973,0,0,0,
,0.192,1.371,0.917,-374.024,75.805,-36.744,0,0,0,
,0.139,1.244,1.409,-25.513,-89.905,77.331,0,0,0,
,-0.108,0.515,1.208,-81.055,-344.483,217.468,0,0,0,
,-0.307,0.291,0.819,-478.028,-734.742,381.347,0,0,0,
,-0.423,0.418,0.544,-704.834,-900.391,395.08,0,0,0,
,-0.609,0.491,0.362,-401.612,-687.378,285.339,0,0,0,
,-0.68,0.416,0.418,157.837,-238.282,59.387,0,0,0,
,-0.515,0.353,0.647,640.808,280.517,-204.956,0,0,0,
,-0.181,0.462,1.083,894.531,542.785,-343.995,0,0,0,
,0.117,0.723,1.326,910.644,572.448,-303.65,0,0,0,
,-0.086,0.589,1.143,737.426,635.498,-245.24,0,0,0,
,-0.367,-0.098,0.646,258.361,739.868,-258.606,0,0,0,
,0.252,1.683,0.978,-241.15,-118.714,12.268,0,0,0,
,0.111,1.429,1.397,436.767,-166.687,120.361,0,0,0,
,-0.182,0.524,1.212,617.553,-331.421,185.424,0,0,0,
,-0.315,0.175,0.819,201.416,-714.661,329.589,0,0,0,
,-0.421,0.262,0.557,-296.021,-883.362,322.876,0,0,0,
,-0.567,0.319,0.417,-361.023,-698.243,237.609,0,0,0,
,-0.629,0.273,0.511,-35.828,-281.922,25.695,0,0,0,
,-0.48,0.281,0.762,472.168,241.272,-163.819,0,0,0,
,-0.153,0.444,1.136,804.382,553.161,-263.306,0,0,0,
,0.123,0.688,1.284,828.369,638.549,-219.666,0,0,0,
,-0.108,0.495,1.027,664.611,795.898,-220.765,0,0,0,
,-0.394,-0.169,0.583,302.917,884.948,-280.335,0,0,0,
,-0.323,-0.109,0.51,-318.726,617.431,-225.22,0,0,0,
,0.176,1.003,1.498,360.534,-110.84,-0.733,0,0,0,
,-0.094,0.371,1.289,167.236,-405.518,104.858,0,0,0,
,-0.31,0.223,0.947,-372.986,-770.752,219.543,0,0,0,
,-0.413,0.358,0.805,-790.467,-925.782,241.943,0,0,0,
,-0.471,0.368,0.633,-874.329,-833.802,210.754,0,0,0,
,-0.364,0.587,0.885,159.973,304.382,-184.082,0,0,0,
,0,0.779,1.23,739.135,548.828,-265.381,0,0,0,
,0.062,0.726,1.183,980.102,678.65,-242.615,0,0,0,
,-0.234,0.142,0.761,816.223,832.153,-249.39,0,0,0,
,-0.373,-0.333,0.452,274.597,733.581,-247.803,0,0,0,
,0.263,1.251,1.381,113.952,-84.778,-59.632,0,0,0,
,0.015,0.631,1.409,163.391,-206.604,19.775,0,0,0,
,-0.222,0.172,1.002,-342.041,-577.21,154.968,0,0,0,
,-0.36,0.258,0.717,-880.127,-825.989,225.158,0,0,0,
,-0.487,0.381,0.513,-1007.386,-766.419,192.321,0,0,0,
,-0.611,0.458,0.474,-639.71,-415.101,60.791,0,0,0,
,-0.575,0.508,0.67,-119.996,46.814,-117.615,0,0,0,
,-0.264,0.597,1.036,348.51,405.212,-250.733,0,0,0,
,0.074,0.735,1.385,550.842,475.83,-276.123,0,0,0,
,0.051,0.605,1.218,527.343,516.601,-243.47,0,0,0,
,-0.222,0.031,0.684,301.574,615.783,-233.338,0,0,0,
,0.069,1.087,0.806,-207.276,58.288,-110.901,0,0,0,
,0.055,0.936,1.25,-25.696,-33.57,-56.946,0,0,0,
,-0.093,0.408,1.057,-265.015,-227.601,66.223,0,0,0,
,-0.251,0.325,0.808,-743.47,-530.335,177.49,0,0,0,
,-0.391,0.527,0.603,-925.049,-624.756,205.566,0,0,0,
,-0.532,0.611,0.514,-642.823,-442.2,123.108,0,0,0,
,-0.586,0.597,0.643,-121.827,-81.36,-39.917,0,0,0,
,-0.382,0.6,0.98,318.664,265.686,-191.956,0,0,0,
,-0.081,0.72,1.293,561.401,364.868,-269.776,0,0,0,
,-0.11,0.415,0.907,208.923,402.038,-161.805,0,0,0,
,-0.299,-0.031,0.437,-103.211,339.782,-164.612,0,0,0,
,-0.202,0.302,0.234,-475.403,202.392,-125.184,0,0,0,
,0.046,1.027,0.46,-387.757,71.167,-64.148,0,0,0,
,0.135,1.283,1.061,-78.431,-41.443,-8.362,0,0,0,
,-0.029,0.753,1.12,25.329,-100.831,95.398,0,0,0,
,-0.189,0.264,1.021,-306.397,-315.979,193.725,0,0,0,
,-0.303,0.223,0.796,-900.513,-541.993,248.169,0,0,0,
,-0.425,0.66,0.657,-1051.941,-13.062,-118.409,0,0,0,
,-0.129,0.992,0.933,-810.303,111.572,-243.47,0,0,0,
,0.007,0.988,0.672,-340.455,152.16,-286.011,0,0,0,
,-0.121,0.743,0.401,29.968,183.227,-274.353,0,0,0,
,-0.192,0.68,0.242,216.613,198.303,-270.081,0,0,0,
,0.028,1.03,0.645,577.209,56.335,68.054,0,0,0,
,-0.111,0.723,0.816,507.324,-93.689,162.231,0,0,0,
,-0.285,0.502,0.745,302.002,-223.877,216.369,0,0,0,
,-0.422,0.497,0.637,149.109,-272.583,198.303,0,0,0,
,-0.486,0.599,0.595,263.427,-148.438,96.618,0,0,0,
,-0.422,0.74,0.741,700.195,99.914,-73.426,0,0,0,
,-0.261,0.771,0.945,1255.005,295.288,-220.276,0,0,0,
,-0.132,0.842,1.098,1571.472,432.617,-264.344,0,0,0,
,-0.097,0.643,1.124,1329.712,515.991,-222.046,0,0,0,
,-0.224,-0.076,0.611,759.277,657.837,-206.299,0,0,0,
,-0.196,-0.365,0.272,184.143,554.87,-231.385,0,0,0,
,0.063,0.362,0.19,-230.835,360.046,-82.398,0,0,0,
,0.381,1.401,0.918,-203.858,25.207,65.734,0,0,0,
,0.244,1.301,1.18,255.432,12.085,145.568,0,0,0,
,-0.107,0.512,1.177,595.52,-13.611,98.877,0,0,0,
,-0.315,0.055,0.708,-180.787,-537.659,202.453,0,0,0,
,-0.421,0.369,0.68,-258.301,-479.187,132.629,0,0,0,
,-0.493,0.488,0.849,79.956,-180.726,-6.104,0,0,0,
,-0.372,0.454,1.096,575.073,178.588,-127.808,0,0,0,
,-0.085,0.49,1.269,736.328,359.375,-163.636,0,0,0,
,0.064,0.495,1.296,543.884,377.746,-157.471,0,0,0,
,-0.069,0.084,0.958,264.587,478.759,-177.43,0,0,0,
,-0.127,-0.147,0.517,-60.12,439.636,-147.156,0,0,0,
,0.191,0.956,1.218,241.76,33.996,60.424,0,0,0,
,-0.015,0.273,1.238,209.838,-111.145,66.894,0,0,0,
,-0.154,0.026,1.17,-255.249,-426.697,141.54,0,0,0,
,-0.294,0.111,0.92,-763.428,-672.181,156.555,0,0,0,
,-0.574,0.459,0.651,-612.122,-389.649,42.846,0,0,0,
,-0.468,0.604,0.906,-68.177,12.695,-117.798,0,0,0,
,-0.136,0.649,1.154,500,298.706,-207.276,0,0,0,
,0.065,0.706,1.351,720.092,384.582,-180.237,0,0,0,
,-0.187,-0.241,0.391,-47.547,511.352,-122.01,0,0,0,
,0.075,0.413,-0.054,-348.816,229.736,58.471,0,0,0,
,0.411,1.381,0.809,-70.984,-10.987,150.695,0,0,0,
,0.296,1.091,1.331,392.334,26.062,173.523,0,0,0,
,-0.05,0.189,1.31,442.077,-47.791,121.46,0,0,0,
,-0.215,-0.133,1.072,-100.403,-415.833,263.427,0,0,0,
,-0.303,0.039,0.824,-725.403,-701.966,265.442,0,0,0,
,-0.414,0.215,0.655,-833.741,-639.283,202.331,0,0,0,
,-0.538,0.319,0.596,-544.434,-377.076,86.425,0,0,0,
,-0.517,0.41,0.807,-96.497,-11.78,-73.304,0,0,0,
,-0.268,0.525,1.1,422.363,261.23,-167.725,0,0,0,
,-0.013,0.665,1.307,714.111,408.569,-172.181,0,0,0,
,-0.047,0.434,1.249,612.671,526.794,-185.303,0,0,0,
,-0.193,-0.207,0.839,179.138,655.944,-201.355,0,0,0,
,-0.003,-0.288,0.33,-354.798,444.336,-145.569,0,0,0,
,0.26,0.527,0.248,-726.685,108.52,-15.137,0,0,0,
,0.437,1.396,0.91,-506.165,-129.212,119.506,0,0,0,
,0.2,1.271,1.257,-29.664,-126.587,189.087,0,0,0,
,-0.264,0.105,1.016,-11.841,-361.512,249.328,0,0,0,
,-0.338,0.116,0.803,-382.019,-553.711,250.122,0,0,0,
,-0.464,0.206,0.654,-433.533,-474.06,168.579,0,0,0,
,-0.558,0.257,0.712,-186.341,-208.069,36.438,0,0,0,
,-0.451,0.313,0.909,155.334,128.296,-118.653,0,0,0,
,-0.179,0.486,1.124,427.734,303.711,-214.417,0,0,0,
,0.008,0.614,1.324,510.009,347.839,-208.558,0,0,0,
,-0.046,0.429,1.233,324.707,413.635,-197.449,0,0,0,
,-0.167,-0.062,0.877,-36.988,465.82,-163.269,0,0,0,
,0.042,0.047,0.506,-434.693,227.05,-87.708,0,0,0,
,0.219,0.673,0.156,-534.729,48.767,13.488,0,0,0,
,0.346,1.432,0.854,-182.74,-106.568,147.888,0,0,0,
,-0.194,0.395,1.16,294.983,-162.659,213.928,0,0,0,
,-0.275,0.149,1.008,-34.913,-435.181,328.369,0,0,0,
,-0.294,0.204,0.827,-260.987,-566.04,292.236,0,0,0,
,-0.401,0.191,0.713,-289.368,-464.417,204.406,0,0,0,
,-0.491,0.189,0.781,-30.945,23.01,-41.993,0,0,0,
,-0.328,0.387,1.008,260.803,267.578,-178.772,0,0,0,
,-0.14,0.569,1.229,460.754,400.695,-231.08,0,0,0,
,-0.122,0.469,1.256,411.56,489.38,-258.24,0,0,0,
,-0.224,-0.043,0.865,20.141,598.632,-254.151,0,0,0,
,-0.074,-0.175,0.505,-494.141,401.367,-218.934,0,0,0,
,0.187,0.609,0.171,-832.154,113.037,-91.614,0,0,0,
,0.387,1.465,0.636,-444.825,-79.346,91.491,0,0,0,
,0.225,1.504,1.252,149.231,-69.031,192.138,0,0,0,
,-0.134,0.624,1.156,505.676,-53.833,170.105,0,0,0,
,-0.316,0.123,1.041,231.323,-266.541,277.038,0,0,0,
,-0.328,0.192,0.952,-194.947,-535.279,318.603,0,0,0,
,-0.403,0.286,0.862,-349.183,-537.415,249.511,0,0,0,
,-0.553,0.207,0.726,-289.49,-381.348,150.756,0,0,0,
,-0.589,0.162,0.718,-153.199,-123.414,29.968,0,0,0,
,-0.441,0.298,0.942,90.393,168.151,-119.873,0,0,0,
,-0.215,0.512,1.131,367.92,356.628,-207.947,0,0,0,
,-0.042,0.617,1.373,419.922,398.986,-224.488,0,0,0,
,-0.107,0.249,1.092,176.574,485.595,-213.074,0,0,0,
,-0.153,-0.276,0.635,-241.822,476.562,-194.642,0,0,0,
,0.107,0.232,0.288,-741.7,169.433,-111.084,0,0,0,
,0.284,1.099,0.243,-644.471,-86.731,33.203,0,0,0,
,0.259,1.689,1.095,45.288,-120.545,185.913,0,0,0,
,-0.068,0.976,1.223,641.235,-18.738,141.296,0,0,0,
,-0.261,0.173,1.12,555.603,-158.143,205.749,0,0,0,
,-0.298,0.058,0.931,116.455,-469.91,285.156,0,0,0,
,-0.405,0.193,0.786,-180.848,-533.692,208.007,0,0,0,
,-0.55,0.205,0.706,-180.848,-355.103,120.788,0,0,0,
,-0.566,0.152,0.732,-26.062,-85.572,-15.198,0,0,0,
,-0.381,0.236,0.944,207.946,180.786,-155.762,0,0,0,
,-0.185,0.502,1.119,440.796,320.434,-209.656,0,0,0,
,-0.074,0.66,1.392,544.372,372.07,-210.816,0,0,0,
,-0.134,0.343,1.216,341.125,483.093,-229.432,0,0,0,
,-0.216,-0.433,0.73,-192.383,553.466,-262.146,0,0,0,
,0.052,-0.173,0.317,-959.534,199.401,-162.964,0,0,0,
,0.351,0.87,0.106,-1205.567,-155.64,-5.31,0,0,0,
,-0.001,1.337,1.237,155.029,-207.154,240.661,0,0,0,
,-0.337,0.402,1.178,465.637,-181.397,247.375,0,0,0,
,-0.36,0.354,0.661,-423.768,-567.261,367.065,0,0,0,
,-0.579,0.177,0.537,-333.069,-381.714,250.061,0,0,0,
,-0.688,0.073,0.547,-185.12,-78.309,84.899,0,0,0,
,-0.584,0.176,0.81,88.317,270.568,-125.367,0,0,0,
,-0.333,0.41,1.002,375.183,496.582,-251.16,0,0,0,
,-0.112,0.628,1.323,521.362,502.075,-302.369,0,0,0,
,-0.128,0.627,1.26,377.502,481.872,-250.733,0,0,0,
,-0.305,-0.123,0.772,-116.089,586.242,-248.475,0,0,0,
,-0.182,-0.22,0.352,-706.482,399.047,-233.704,0,0,0,
,0.162,0.719,-0.059,-1039.49,46.386,-67.505,0,0,0,
,0.421,1.925,0.829,-415.711,-225.586,215.332,0,0,0,
,0.068,1.727,1.247,498.413,-118.775,252.685,0,0,0,
,-0.332,0.522,1.154,994.14,-26.734,220.947,0,0,0,
,-0.433,-0.066,0.947,647.033,-253.357,349.731,0,0,0,
,-0.423,-0.004,0.814,-35.828,-524.476,322.326,0,0,0,
,-0.497,0.11,0.724,-307.007,-483.582,247.985,0,0,0,
,-0.604,0.131,0.64,-295.716,-249.207,151.977,0,0,0,
,-0.581,0.155,0.795,-87.22,87.097,-14.893,0,0,0,
,-0.033,0.676,1.438,483.032,422.729,-244.568,0,0,0,
,-0.191,0.183,1.034,-5.982,538.147,-208.863,0,0,0,
,-0.231,-0.397,0.461,-575.684,460.998,-190.613,0,0,0,
,0.07,0.217,-0.087,-1165.528,127.99,-96.314,0,0,0,
,0.396,1.506,0.442,-836.792,-174.927,133.545,0,0,0,
,0.25,1.99,1.327,97.737,11860.267,8662.498,0,0,0,
,-0.421,-0.013,1.031,876.892,-174.561,268.859,0,0,0,
,-0.402,-0.153,0.79,363.403,-466.187,289.367,0,0,0,
,-0.479,-0.03,0.69,22.705,-457.764,163.513,0,0,0,
,-0.579,0.034,0.698,-24.72,-226.441,54.565,0,0,0,
,-0.553,0.102,0.858,136.474,88.256,-114.869,0,0,0,
,-0.096,0.424,1.315,243.103,415.771,-308.35,0,0,0,
,-0.258,-0.285,0.803,-239.808,539.245,-338.746,0,0,0,
,-0.093,-0.311,0.301,-838.562,284.973,-280.579,0,0,0,
,0.26,0.868,-0.029,-1058.228,-136.78,-79.224,0,0,0,
,0.401,2.241,0.875,225.586,-225.403,252.136,0,0,0,
,-0.353,-0.402,1.04,1179.016,-212.708,217.59,0,0,0,
,-0.267,-0.097,0.953,260.254,-613.953,227.661,0,0,0,
,-0.414,0.124,0.82,39.856,-575.989,180.359,0,0,0,
,-0.636,0.038,0.668,188.476,-303.65,53.649,0,0,0,
,-0.64,-0.078,0.761,356.628,10.131,-72.571,0,0,0,
,-0.44,0.02,0.978,443.603,283.142,-130.494,0,0,0,
,-0.135,0.289,1.384,168.09,453.186,-153.016,0,0,0,
,-0.241,-0.172,1.109,-434.51,550.476,-210.999,0,0,0,
,-0.273,-0.772,0.71,-1223.999,474.792,-239.502,0,0,0,
,-0.029,-0.173,0.095,-1891.724,83.984,-115.052,0,0,0,
,-0.086,1.355,1.219,1156.921,-86.914,106.445,0,0,0,
,-0.345,0.127,1.103,1604.614,-72.022,103.332,0,0,0,
,-0.374,-0.266,0.908,976.806,-430.359,176.33,0,0,0,
,-0.252,0.05,0.879,323.181,-815.857,189.331,0,0,0,
,-0.324,0.277,0.747,281.555,-809.632,190.551,0,0,0,
,-0.541,-0.292,0.733,1005.859,176.941,-103.028,0,0,0,
,-0.422,-0.106,0.937,930.114,465.454,-104.554,0,0,0,
,-0.21,0.095,1.208,689.758,597.534,-38.392,0,0,0,
,-0.156,0.159,1.369,216.186,612.426,-42.42,0,0,0,
,-0.328,-0.428,1.23,-682.618,716.613,-134.034,0,0,0,
,-0.363,-0.983,0.954,-1910.096,533.203,-207.825,0,0,0,
,-0.001,-0.366,0.434,-2000,-34.485,-125.061,0,0,0,
,0.302,0.945,0.134,-2000,-543.091,-55.237,0,0,0,
,0.269,2.403,0.744,-934.205,-538.331,294.494,0,0,0,
,-0.107,1.987,1.251,1053.466,-188.294,241.943,0,0,0,
,-0.437,0.425,1.221,1987.06,107.238,143.921,0,0,0,
,-0.581,-0.193,0.709,-164.917,-605.347,134.216,0,0,0,
,-0.781,-0.134,0.678,-285.645,-266.358,58.41,0,0,0,
,-0.694,-0.128,0.843,-186.585,174.194,-43.641,0,0,0,
,-0.372,0.016,1.113,-179.383,467.529,-102.173,0,0,0,
,-0.115,0.138,1.423,-261.719,539.672,-197.266,0,0,0,
,-0.21,0.045,1.396,-543.335,572.937,-273.56,0,0,0,
,-0.34,-0.624,0.941,-1206.543,614.929,-311.89,0,0,0,
,-0.122,-0.504,0.229,-1971.924,236.633,-269.165,0,0,0,
,0.259,0.941,-0.21,-2000,-263.672,-88.44,0,0,0,
,0.604,2.62,0.884,-629.029,-536.133,255.493,0,0,0,
,0.031,2.12,1.373,1035.644,-196.839,157.226,0,0,0,
,-0.37,0.503,1.283,1755.493,-41.443,117.736,0,0,0,
,-0.464,-0.183,0.947,1100.219,-458.68,316.406,0,0,0,
,-0.403,-0.019,0.778,127.441,-803.101,298.828,0,0,0,
,-0.585,0.102,0.635,-267.334,-736.573,264.343,0,0,0,
,-0.81,-0.04,0.527,-329.041,-428.833,143.615,0,0,0,
,-0.734,-0.108,0.602,-366.272,-24.231,-16.236,0,0,0,
,-0.443,0.065,0.835,-197.937,332.641,-169.373,0,0,0,
,-0.248,0.299,0.985,177.429,489.38,-293.457,0,0,0,
,-0.26,0.336,1.077,449.096,643.066,-372.254,0,0,0,
,-0.366,0.003,0.887,456.359,755.066,-417.847,0,0,0,
,-0.428,-0.461,0.552,-46.082,830.139,-453.003,0,0,0,
,-0.208,-0.316,0.434,-911.988,598.022,-430.176,0,0,0,
,0.172,0.62,0.311,-1319.275,185.302,-325.928,0,0,0,
,0.453,1.667,0.941,-814.637,-192.444,-120.118,0,0,0,
,0.252,1.796,1.337,-15.809,-304.383,68.725,0,0,0,
,-0.245,0.848,1.047,551.818,-363.282,155.639,0,0,0,
,-0.484,0.322,1.073,464.172,-559.205,255.676,0,0,0,
,-0.506,0.313,0.997,-87.525,-840.088,356.689,0,0,0,
,-0.478,0.348,0.873,-413.208,-939.82,345.764,0,0,0,
,-0.607,0.179,0.648,-550.415,-861.634,315.002,0,0,0,
,-0.797,0.01,0.46,-577.149,-622.864,218.261,0,0,0,
,-0.853,0.054,0.58,-473.45,-172.181,29.296,0,0,0,
,-0.555,0.288,0.848,-44.19,374.023,-196.839,0,0,0,
,-0.161,0.452,1.055,469.604,611.206,-341.492,0,0,0,
,-0.131,0.377,1.108,681.335,732.605,-404.48,0,0,0,
,-0.303,0.217,0.842,633.484,787.902,-390.686,0,0,0,
,-0.44,-0.079,0.524,141.418,835.754,-413.758,0,0,0,
,-0.222,0.146,0.409,-471.253,610.595,-392.334,0,0,0,
,0.126,0.868,0.407,-596.009,322.387,-289.673,0,0,0,
,0.369,1.388,1.034,-150.208,66.589,-163.208,0,0,0,
,0.209,1.235,1.28,90.21,-131.714,74.096,0,0,0,
,-0.161,0.707,1.01,59.143,-375.061,224.914,0,0,0,
,-0.459,0.482,0.967,-89.051,-589.051,318.359,0,0,0,
,-0.558,0.408,0.865,-321.289,-704.468,342.773,0,0,0,
,-0.608,0.265,0.677,-498.658,-660.767,305.114,0,0,0,
,-0.67,0.127,0.552,-554.627,-481.812,218.017,0,0,0,
,-0.671,0.152,0.605,-392.273,-108.46,47.79,0,0,0,
,-0.499,0.315,0.87,-7.874,301.452,-154.786,0,0,0,
,-0.232,0.503,1.071,381.347,530.151,-268.921,0,0,0,
,-0.104,0.527,1.227,520.568,623.474,-312.439,0,0,0,
,-0.251,0.27,0.976,430.359,708.923,-320.557,0,0,0,
,-0.38,-0.133,0.463,-109.009,747.497,-294.373,0,0,0,
,-0.18,0.269,0.335,-732.239,498.474,-270.325,0,0,0,
,0.146,1.088,0.3,-765.748,233.703,-138.611,0,0,0,
,0.34,1.794,1.213,-226.746,-7.63,33.691,0,0,0,
,0.043,1.299,1.326,156.372,-104.371,189.575,0,0,0,
,-0.295,0.564,1.011,206.848,-309.754,342.346,0,0,0,
,-0.417,0.399,0.89,-42.969,-579.041,462.158,0,0,0,
,-0.447,0.396,0.761,-229.615,-666.748,440.918,0,0,0,
,-0.491,0.231,0.641,-213.135,-553.528,341.613,0,0,0,
,-0.559,0.024,0.698,189.88,33.447,-35.035,0,0,0,
,-0.407,0.174,0.933,509.094,343.872,-260.498,0,0,0,
,-0.213,0.423,1.019,741.577,532.104,-380.31,0,0,0,
,-0.223,0.355,1.059,704.04,658.264,-440.369,0,0,0,
,-0.348,0.031,0.856,381.958,786.01,-459.656,0,0,0,
,-0.317,-0.254,0.545,-241.761,777.221,-468.873,0,0,0,
,0.002,0.22,0.476,-982.422,475.097,-392.151,0,0,0,
,0.303,1.143,0.449,-983.216,59.387,-253.724,0,0,0,
,0.368,1.825,1.046,-417.908,-162.232,-40.711,0,0,0,
,0.016,1.505,1.196,174.987,-208.558,116.15,0,0,0,
,-0.256,0.72,0.984,431.457,-290.101,220.276,0,0,0,
,-0.319,0.416,0.898,180.175,-534.18,342.895,0,0,0,
,-0.313,0.364,0.822,-129.639,-760.926,367.736,0,0,0,
,-0.38,0.223,0.625,-286.927,-783.875,323.181,0,0,0,
,-0.516,0.01,0.446,-311.463,-628.602,221.862,0,0,0,
,-0.692,0.183,0.758,-73.06,87.463,-190.308,0,0,0,
,-0.383,0.456,1.158,122.924,389.038,-369.446,0,0,0,
,-0.162,0.549,1.263,181.762,461.853,-433.96,0,0,0,
,-0.329,0.166,0.937,-48.462,571.228,-439.698,0,0,0,
,-0.395,-0.073,0.428,-539.917,557.251,-411.56,0,0,0,
,-0.109,0.603,0.341,-1058.35,268.127,-340.149,0,0,0,
,0.166,1.578,0.353,-800.599,2.929,-140.686,0,0,0,
,0.145,1.984,1.01,139.526,-32.044,9.765,0,0,0,
,-0.167,1.223,1.148,662.841,-29.419,123.779,0,0,0,
,-0.351,0.501,0.978,674.926,-169.8,239.624,0,0,0,
,-0.418,0.279,0.85,219.787,-469.239,325.5,0,0,0,
,-0.478,0.291,0.73,-119.324,-556.031,305.908,0,0,0,
,-0.577,0.154,0.668,-162.781,-139.588,72.57,0,0,0,
,-0.479,0.228,0.783,25.94,159.851,-94.117,0,0,0,
,-0.301,0.39,0.943,250.305,398.742,-260.254,0,0,0,
,-0.171,0.473,1.096,362.182,511.535,-335.572,0,0,0,
,-0.096,0.48,0.462,-448.853,410.705,-359.559,0,0,0,
,0.214,1.23,0.649,-402.771,113.037,-259.705,0,0,0,
,0.274,1.515,0.994,22.033,-27.161,-57.74,0,0,0,
,0.04,1.136,1.066,348.571,-143.921,120.056,0,0,0,
,-0.228,0.63,0.913,337.341,-328.248,239.624,0,0,0,
,-0.365,0.512,0.856,161.438,-505.372,326.049,0,0,0,
,-0.388,0.424,0.711,69.03,-526.001,299.255,0,0,0,
,-0.427,0.262,0.593,59.326,-391.846,213.256,0,0,0,
,-0.457,0.157,0.625,46.325,-161.683,112.793,0,0,0,
,-0.419,0.186,0.77,84.472,106.262,-29.541,0,0,0,
,-0.295,0.306,0.989,209.411,352.844,-182.923,0,0,0,
,-0.159,0.478,1.125,245.483,463.012,-266.358,0,0,0,
,-0.24,0.385,0.968,198.425,554.443,-312.867,0,0,0,
,-0.307,0.19,0.715,-61.646,563.903,-312.867,0,0,0,
,-0.141,0.394,0.649,-509.827,356.628,-265.198,0,0,0,
,0.074,0.848,0.644,-658.081,132.629,-200.806,0,0,0,
,0.146,1.158,0.862,-355.774,-33.143,-58.045,0,0,0,
,0.052,1.223,1.14,-4.273,-206.665,121.582,0,0,0,
,-0.21,0.822,1.075,115.356,-345.948,227.966,0,0,0,
,-0.437,0.333,0.547,-57.557,-487.427,280.151,0,0,0,
,-0.504,0.176,0.533,3.295,-231.629,150.695,0,0,0,
,-0.461,0.167,0.721,78.857,36.865,-31.556,0,0,0,
,-0.301,0.28,0.937,232.605,300.903,-176.636,0,0,0,
,-0.111,0.452,1.165,296.875,423.401,-262.391,0,0,0,
,-0.278,0.116,0.411,-542.481,483.947,-301.575,0,0,0,
,-0.067,0.74,0.403,-724.854,233.764,-246.949,0,0,0,
,0.1,1.392,0.548,-229.737,78.369,-132.447,0,0,0,
,0.047,1.476,1.091,606.872,20.629,-18.433,0,0,0,
,-0.181,0.75,1.139,801.208,-72.022,75.317,0,0,0,
,-0.305,0.253,0.99,488.281,-330.018,174.682,0,0,0,
,-0.343,0.234,0.833,-53.04,-604.859,233.947,0,0,0,
,-0.383,0.318,0.652,-403.565,-617.188,205.261,0,0,0,
,-0.444,0.273,0.565,-558.045,-436.402,141.296,0,0,0,
,-0.431,0.275,0.635,-493.042,-128.113,18.188,0,0,0,
,-0.335,0.379,0.852,-184.266,168.09,-144.959,0,0,0,
,-0.132,0.492,1.111,110.168,367.736,-261.719,0,0,0,
,-0.08,0.493,1.147,218.628,452.697,-338.868,0,0,0,
,-0.231,0.305,0.887,163.879,565.063,-348.389,0,0,0,
,-0.292,0.22,0.547,-65.43,534.607,-320.069,0,0,0,
,-0.145,0.714,0.542,-216.431,297.241,-261.597,0,0,0,
,0.037,1.244,0.624,110.29,149.658,-191.468,0,0,0,
,0.093,1.298,0.93,754.15,86.486,-86.426,0,0,0,
,-0.022,0.788,1.232,822.998,-58.35,-9.583,0,0,0,
,-0.165,0.322,1.181,322.754,-346.253,130.981,0,0,0,
,-0.297,0.306,1.055,-355.896,-721.558,235.168,0,0,0,
,-0.449,0.413,0.764,-776.246,-842.347,288.757,0,0,0,
,-0.547,0.375,0.559,-897.767,-755.86,246.887,0,0,0,
,-0.547,0.379,0.474,-707.459,-500.916,142.456,0,0,0,
,-0.472,0.465,0.62,-307.923,-153.626,-21.546,0,0,0,
,-0.255,0.56,0.863,164.55,209.961,-166.138,0,0,0,
,0.027,0.614,1.105,412.048,407.043,-237.183,0,0,0,
,-0.042,0.448,1,424.194,541.504,-249.085,0,0,0,
,-0.249,0.017,0.664,198.12,681.823,-269.227,0,0,0,
,-0.257,-0.019,0.457,-188.111,535.583,-252.625,0,0,0,
,-0.072,0.655,0.454,-432.435,273.681,-196.412,0,0,0,
,0.055,1.262,0.5,-90.271,135.131,-109.436,0,0,0,
,0.012,1.252,1.106,489.074,44.86,-91.248,0,0,0,
,-0.132,0.565,1.282,438.11,-153.382,-19.837,0,0,0,
,-0.225,0.253,1.039,-122.803,-543.885,115.173,0,0,0,
,-0.346,0.379,0.83,-617.92,-857.85,184.997,0,0,0,
,-0.487,0.519,0.592,-771.729,-874.146,197.204,0,0,0,
,-0.592,0.518,0.437,-581.665,-640.137,113.586,0,0,0,
,-0.575,0.493,0.512,-235.779,-271.79,-57.19,0,0,0,
,-0.377,0.527,0.789,101.135,130.249,-220.643,0,0,0,
,-0.066,0.658,1.083,301.941,341.735,-292.664,0,0,0,
,0.042,0.558,1.132,373.535,469.787,-326.172,0,0,0,
,-0.128,0.28,0.829,266.845,597.778,-303.406,0,0,0,
,-0.239,0.256,0.494,129.76,540.039,-255.249,0,0,0,
,-0.22,0.694,0.435,60.302,374.694,-241.761,0,0,0,
,-0.069,1.078,0.587,264.587,294.738,-198.182,0,0,0,
,-0.019,0.986,0.922,551.635,210.022,-163.208,0,0,0,
,-0.086,0.486,1.283,327.697,-13.001,-115.479,0,0,0,
,-0.153,0.286,1.103,-409.729,-440.186,50.293,0,0,0,
,-0.278,0.455,0.898,-919.373,-748.963,144.897,0,0,0,
,-0.443,0.618,0.601,-995.972,-814.454,189.209,0,0,0,
,-0.578,0.669,0.473,-657.227,-621.338,129.76,0,0,0,
,-0.58,0.619,0.508,-181.092,-249.573,-16.114,0,0,0,
,-0.392,0.588,0.759,279.052,141.662,-171.814,0,0,0,
,-0.112,0.673,1.04,539.978,362.304,-245.728,0,0,0,
,0.013,0.727,1.165,563.903,457.336,-260.498,0,0,0,
,-0.124,0.445,0.914,478.942,574.157,-239.136,0,0,0,
,-0.286,0.146,0.527,344.787,608.032,-223.267,0,0,0,
,-0.213,0.489,0.448,113.586,399.292,-148.682,0,0,0,
,-0.046,1.042,0.41,183.96,274.109,-68.97,0,0,0,
,0.035,1.159,0.785,691.528,234.619,-57.007,0,0,0,
,-0.02,0.584,1.303,745.239,108.398,-79.773,0,0,0,
,-0.113,0.1,1.19,195.312,-216.187,60.424,0,0,0,
,-0.213,0.246,1.003,-594.849,-667.42,165.039,0,0,0,
,-0.36,0.49,0.79,-961.731,-833.008,206.237,0,0,0,
,-0.49,0.506,0.54,-887.024,-748.536,170.288,0,0,0,
,-0.543,0.506,0.443,-606.507,-489.869,87.463,0,0,0,
,-0.484,0.572,0.564,-162.415,-155.335,-50.11,0,0,0,
,-0.3,0.63,0.852,269.043,221.435,-184.144,0,0,0,
,-0.055,0.658,1.115,483.886,418.762,-234.559,0,0,0,
,-0.008,0.515,1.127,464.416,518.676,-225.464,0,0,0,
,-0.153,0.197,0.739,242.736,573.669,-187.012,0,0,0,
,-0.243,0.259,0.421,-66.773,441.04,-121.338,0,0,0,
,-0.161,0.753,0.39,-280.762,250.244,-77.942,0,0,0,
,-0.052,1.16,0.538,-15.076,198.852,-17.701,0,0,0,
,-0.009,0.976,1.213,281.921,111.938,-32.166,0,0,0,
,-0.072,0.499,1.264,51.452,-143.677,106.506,0,0,0,
,-0.216,0.398,0.988,-512.085,-579.834,257.141,0,0,0,
,-0.375,0.592,0.783,-738.465,-789.917,307.739,0,0,0,
,-0.498,0.612,0.571,-529.236,-699.402,273.376,0,0,0,
,-0.523,0.485,0.49,-176.636,-429.017,147.094,0,0,0,
,-0.447,0.394,0.548,108.459,-112.305,12.023,0,0,0,
,-0.313,0.419,0.747,364.318,211.853,-141.846,0,0,0,
,-0.149,0.579,0.98,544.86,400.695,-211.548,0,0,0,
,-0.077,0.623,1.148,578.186,530.395,-241.822,0,0,0,
,-0.167,0.326,0.918,449.646,644.348,-252.869,0,0,0,
,-0.262,0.035,0.515,111.694,626.22,-221.619,0,0,0,
,-0.181,0.403,0.436,-242.981,393.31,-184.815,0,0,0,
,-0.004,0.994,0.441,-169.739,193.054,-119.141,0,0,0,
,0.073,1.225,1.132,371.826,97.595,-92.652,0,0,0,
,-0.016,0.64,1.337,434.692,-58.838,-36.255,0,0,0,
,-0.131,0.268,1.08,-73.487,-443.787,114.685,0,0,0,
,-0.256,0.425,0.894,-669.678,-800.232,213.195,0,0,0,
,-0.415,0.561,0.627,-794.312,-850.159,230.59,0,0,0,
,-0.534,0.51,0.434,-553.894,-654.541,149.78,0,0,0,
,-0.546,0.462,0.432,-208.374,-278.382,19.775,0,0,0,
,-0.397,0.49,0.668,139.038,109.375,-156.8,0,0,0,
,-0.166,0.598,0.978,452.453,401.001,-241.7,0,0,0,
,-0.027,0.71,1.207,584.411,543.335,-260.254,0,0,0,
,-0.099,0.502,1.042,508.361,661.377,-244.08,0,0,0,
,-0.266,0.138,0.591,214.599,705.261,-214.661,0,0,0,
,-0.29,0.254,0.399,-89.539,527.404,-156.739,0,0,0,
,-0.103,0.822,0.397,-171.692,324.157,-123.719,0,0,0,
,0.055,1.182,0.88,302.49,235.962,-69.031,0,0,0,
,0.06,0.8,1.406,517.212,52.063,-54.566,0,0,0,
,-0.091,0.299,1.248,102.661,-311.219,109.375,0,0,0,
,-0.224,0.315,0.982,-554.322,-726.868,235.29,0,0,0,
,-0.383,0.497,0.756,-890.992,-880.738,275.94,0,0,0,
,-0.481,0.482,0.519,-814.881,-783.814,245.3,0,0,0,
,-0.524,0.406,0.42,-550.965,-487.366,135.376,0,0,0,
,-0.467,0.445,0.582,-209.595,-94.117,-45.594,0,0,0,
,-0.272,0.569,0.867,244.445,286.865,-199.097,0,0,0,
,-0.038,0.692,1.132,554.016,487.609,-264.588,0,0,0,
,-0.013,0.57,1.138,621.643,628.051,-280.335,0,0,0,
,-0.179,0.189,0.772,455.566,722.9,-271.058,0,0,0,
,-0.22,0.196,0.46,147.888,588.745,-217.347,0,0,0,
,-0.126,0.766,0.443,-105.713,347.595,-155.579,0,0,0,
,0.034,1.17,0.635,291.137,256.103,-101.563,0,0,0,
,0.108,0.973,1.322,697.692,143.188,-113.526,0,0,0,
,0.012,0.389,1.401,431.152,-140.931,14.221,0,0,0,
,-0.119,0.227,1.061,-287.11,-568.665,167.663,0,0,0,
,-0.296,0.413,0.887,-798.096,-843.262,229.126,0,0,0,
,-0.421,0.483,0.687,-934.144,-836.67,227.111,0,0,0,
,-0.476,0.426,0.534,-790.467,-692.81,164.428,0,0,0,
,-0.49,0.418,0.449,-510.987,-410.645,43.335,0,0,0,
,-0.429,0.524,0.611,-69.764,2.441,-126.77,0,0,0,
,-0.213,0.647,0.943,347.656,350.647,-259.522,0,0,0,
,-0.046,0.671,1.079,596.374,524.597,-314.881,0,0,0,
,-0.101,0.468,1.041,557.373,642.456,-312.073,0,0,0,
,-0.207,0.116,0.7,261.108,686.34,-277.894,0,0,0,
,-0.164,0.273,0.516,-125.977,475.647,-213.318,0,0,0,
,-0.034,0.788,0.39,-242.676,296.386,-152.466,0,0,0,
,0.057,1.18,0.587,221.679,201.416,-91.492,0,0,0,
,-0.05,0.438,1.251,444.946,-183.533,31.799,0,0,0,
,-0.183,0.194,1.004,-109.314,-543.885,145.08,0,0,0,
,-0.308,0.357,0.802,-632.264,-823.792,203.369,0,0,0,
,-0.441,0.456,0.597,-763.489,-782.837,192.321,0,0,0,
,-0.55,0.429,0.49,-552.308,-525.33,78.064,0,0,0,
,-0.525,0.431,0.608,-179.139,-166.932,-76.966,0,0,0,
,-0.348,0.551,0.841,195.373,197.448,-236.39,0,0,0,
,-0.091,0.7,1.125,436.401,371.765,-291.016,0,0,0,
,0.013,0.633,1.175,491.516,493.286,-299.805,0,0,0,
,-0.128,0.198,0.806,383.972,612.609,-288.697,0,0,0,
,-0.197,0.081,0.502,153.686,523.437,-246.277,0,0,0,
,-0.056,0.65,0.405,-78.309,303.772,-153.748,0,0,0,
,0.057,1.122,0.468,222.839,229.614,-96.375,0,0,0,
,0.118,1.101,1.137,717.224,141.967,-107.422,0,0,0,
,0.024,0.437,1.36,646.728,-7.019,-47.974,0,0,0,
,-0.087,0.129,1.13,0.244,-375.367,84.411,0,0,0,
,-0.226,0.316,0.938,-671.753,-749.451,173.706,0,0,0,
,-0.392,0.457,0.734,-977.906,-791.504,180.297,0,0,0,
,-0.508,0.394,0.568,-912.171,-633.301,106.628,0,0,0,
,-0.537,0.423,0.52,-670.533,-366.15,-11.17,0,0,0,
,-0.452,0.598,0.712,-186.768,2.868,-159.241,0,0,0,
,-0.042,0.752,1.202,665.954,480.407,-313.904,0,0,0,
,-0.087,0.408,1,652.465,624.45,-288.575,0,0,0,
,-0.199,-0.014,0.565,378.357,655.09,-259.034,0,0,0,
,-0.108,0.311,0.483,-40.955,393.554,-192.261,0,0,0,
,0.033,0.973,0.355,-23.072,231.506,-78.98,0,0,0,
,0.083,1.248,0.729,539.306,179.565,-40.223,0,0,0,
,0.039,0.754,1.313,797.912,72.631,-54.871,0,0,0,
,-0.066,0.151,1.25,383.484,-172.547,54.87,0,0,0,
,-0.163,0.127,1.016,-463.807,-635.743,185.608,0,0,0,
,-0.326,0.366,0.83,-954.773,-843.689,226.928,0,0,0,
,-0.518,0.363,0.601,-1151.062,-776.49,201.904,0,0,0,
,-0.602,0.265,0.467,-1255.005,-597.718,119.812,0,0,0,
,-0.591,0.308,0.479,-1310.059,-307.801,4.028,0,0,0,
,-0.456,0.573,0.666,-1052.369,34.973,-172.974,0,0,0,
,-0.233,0.889,0.945,-424.683,231.079,-315.613,0,0,0,
,-0.075,0.812,1.033,91.308,393.371,-391.541,0,0,0,
,-0.07,0.48,0.799,272.338,481.75,-349.244,0,0,0,
,-0.096,0.456,0.453,195.373,442.566,-254.761,0,0,0,
,-0.01,0.866,0.454,83.496,281.067,-187.745,0,0,0,
,-0.029,0.802,1,982.422,79.711,124.817,0,0,0,
,-0.119,0.317,1.056,582.275,-121.338,232.36,0,0,0,
,-0.219,0.248,0.994,-59.754,-415.039,301.88,0,0,0,
,-0.385,0.322,0.799,-565.186,-530.884,309.021,0,0,0,
,-0.53,0.32,0.656,-708.191,-408.997,218.444,0,0,0,
,-0.544,0.406,0.62,-503.052,-153.87,73.181,0,0,0,
,-0.411,0.625,0.86,12.573,163.757,-120.972,0,0,0,
,-0.198,0.75,1.12,594.848,371.826,-262.085,0,0,0,
,-0.057,0.686,1.226,846.557,493.286,-307.74,0,0,0,
,-0.076,0.342,0.983,705.505,561.279,-275.208,0,0,0,
,-0.118,0.077,0.649,293.396,512.268,-244.935,0,0,0,
,0.047,0.555,0.393,-179.383,257.568,-125,0,0,0,
,0.179,1.241,0.383,-146.241,123.474,31.311,0,0,0,
,0.194,1.438,0.967,348.571,12.573,122.375,0,0,0,
,0.018,0.812,1.227,581.848,-45.411,195.861,0,0,0,
,-0.147,0.28,1.108,250.793,-304.749,305.297,0,0,0,
,-0.276,0.22,0.934,-289.978,-652.527,391.723,0,0,0,
,-0.398,0.278,0.661,-591.248,-735.474,368.652,0,0,0,
,-0.529,0.252,0.44,-537.781,-593.14,280.151,0,0,0,
,-0.612,0.258,0.399,-207.764,-277.955,105.896,0,0,0,
,-0.554,0.348,0.667,319.58,178.894,-109.436,0,0,0,
,-0.275,0.391,1.018,807.006,496.521,-283.753,0,0,0,
,-0.042,0.432,1.184,1030.822,642.395,-327.088,0,0,0,
,-0.047,0.422,1.207,868.835,641.113,-303.589,0,0,0,
,-0.197,0.057,0.806,388.244,711.059,-292.176,0,0,0,
,-0.126,-0.036,0.485,-239.441,532.898,-240.357,0,0,0,
,0.107,0.598,0.34,-612.793,230.957,-162.476,0,0,0,
,0.252,1.289,0.692,-209.351,97.412,-27.832,0,0,0,
,0.194,1.309,1.346,317.077,12.634,69.091,0,0,0,
,-0.037,0.562,1.317,463.745,-111.145,112.915,0,0,0,
,-0.26,0.104,1.01,125.61,-396.607,209.533,0,0,0,
,-0.518,0.264,0.655,-564.881,-326.844,70.556,0,0,0,
,-0.412,0.36,0.781,-253.479,-7.325,-51.941,0,0,0,
,-0.212,0.499,0.986,160.156,271.911,-167.664,0,0,0,
,-0.077,0.577,1.165,527.832,441.772,-233.826,0,0,0,
,-0.046,0.488,1.185,589.721,529.602,-248.78,0,0,0,
,-0.099,0.041,0.682,175.354,530.029,-214.173,0,0,0,
,0.045,0.423,0.578,-111.573,302.856,-140.625,0,0,0,
,0.163,0.929,0.607,-8.851,131.286,-30.03,0,0,0,
,0.156,1.032,1.089,358.398,19.165,15.136,0,0,0,
,0.017,0.536,1.221,390.014,-108.643,52.734,0,0,0,
,-0.123,0.148,1.203,-6.958,-388.733,110.595,0,0,0,
,-0.225,0.181,1.037,-562.073,-686.158,186.096,0,0,0,
,-0.334,0.291,0.806,-946.289,-779.419,196.899,0,0,0,
,-0.419,0.294,0.567,-1034.852,-683.96,149.109,0,0,0,
,-0.491,0.33,0.468,-855.103,-435.975,75.256,0,0,0,
,-0.474,0.486,0.669,-398.987,-41.993,-77.82,0,0,0,
,-0.276,0.621,0.935,203.491,316.833,-223.755,0,0,0,
,-0.159,0.246,0.859,531.128,609.314,-205.323,0,0,0,
,-0.218,0.053,0.575,204.589,504.333,-183.106,0,0,0,
,-0.023,0.495,0.496,-194.031,274.536,-96.07,0,0,0,
,0.157,1.053,0.477,14.831,142.517,17.517,0,0,0,
,0.17,1.077,1.177,461.303,41.198,26.001,0,0,0,
,0.005,0.517,1.3,432.739,-89.966,92.956,0,0,0,
,-0.111,0.143,1.167,-38.819,-391.297,182.8,0,0,0,
,-0.217,0.24,0.99,-647.461,-693.36,258.484,0,0,0,
,-0.376,0.348,0.759,-932.984,-703.186,265.075,0,0,0,
,-0.513,0.275,0.555,-988.038,-531.678,186.279,0,0,0,
,-0.543,0.306,0.56,-822.571,-282.349,71.228,0,0,0,
,-0.447,0.554,0.78,-361.329,48.217,-98.816,0,0,0,
,-0.224,0.765,1.035,350.83,345.642,-214.295,0,0,0,
,-0.016,0.73,1.262,769.104,497.253,-246.155,0,0,0,
,-0.047,0.434,1.105,791.015,582.519,-206.421,0,0,0,
,-0.177,-0.015,0.701,499.389,611.938,-184.937,0,0,0,
,-0.11,0.215,0.442,-0.794,399.292,-112.122,0,0,0,
,0.069,0.789,0.294,-177.063,191.406,-29.48,0,0,0,
,0.111,0.793,1.363,669.128,17.761,21.667,0,0,0,
,-0.035,0.183,1.204,465.393,-148.804,113.952,0,0,0,
,-0.132,0.067,1.015,-233.338,-516.236,202.087,0,0,0,
,-0.3,0.223,0.78,-797.425,-663.269,238.586,0,0,0,
,-0.445,0.205,0.626,-970.948,-496.705,163.513,0,0,0,
,-0.459,0.192,0.618,-860.352,-224.427,36.071,0,0,0,
,-0.341,0.439,0.797,-494.324,72.692,-129.883,0,0,0,
,-0.182,0.753,1.06,170.044,280.944,-222.107,0,0,0,
,-0.099,0.783,1.224,720.031,497.314,-312.439,0,0,0,
,-0.159,0.349,0.941,851.745,678.772,-348.145,0,0,0,
,-0.227,-0.171,0.599,555.359,747.436,-367.737,0,0,0,
,0.043,0.179,0.528,81.787,511.474,-287.903,0,0,0,
,0.312,1.014,0.613,-100.464,220.337,-121.582,0,0,0,
,0.371,1.373,1.127,179.565,61.34,-5.494,0,0,0,
,0.132,0.896,1.378,357.727,-59.876,68.237,0,0,0,
,-0.214,0.239,1.05,-336.548,-581.788,263.916,0,0,0,
,-0.303,0.331,0.906,-730.408,-715.516,292.602,0,0,0,
,-0.428,0.287,0.677,-801.392,-658.753,249.023,0,0,0,
,-0.514,0.292,0.581,-590.577,-479.859,166.565,0,0,0,
,-0.525,0.381,0.673,-164.49,-129.151,4.089,0,0,0,
,-0.381,0.459,0.952,400.573,199.951,-182.618,0,0,0,
,-0.131,0.526,1.103,759.155,436.218,-236.756,0,0,0,
,-0.022,0.492,1.152,777.649,496.032,-241.639,0,0,0,
,-0.144,0.172,0.929,471.313,580.444,-236.023,0,0,0,
,-0.164,-0.177,0.661,-12.94,568.359,-232.544,0,0,0,
,0.07,0.237,0.446,-483.704,310.669,-148.926,0,0,0,
,0.23,0.997,0.426,-440.918,82.641,-19.654,0,0,0,
,0.247,1.38,1.01,37.475,5.004,90.881,0,0,0,
,0.071,0.937,1.237,422.912,-88.257,126.953,0,0,0,
,-0.144,0.307,1.117,403.381,-251.77,180.542,0,0,0,
,-0.499,0.231,0.598,-223.328,-452.21,148.62,0,0,0,
,-0.542,0.264,0.66,-65.857,-143.86,21.972,0,0,0,
,-0.382,0.383,0.939,220.642,163.818,-105.164,0,0,0,
,-0.128,0.534,1.142,550.72,401.184,-153.992,0,0,0,
,-0.008,0.522,1.237,630.554,534.973,-152.588,0,0,0,
,-0.08,0.199,1.025,478.759,647.155,-169.068,0,0,0,
,-0.125,-0.193,0.734,74.279,648.803,-161.622,0,0,0,
,0.055,0.061,0.567,-337.83,379.516,-105.225,0,0,0,
,0.218,0.776,0.604,-351.319,117.675,-6.287,0,0,0,
,0.212,1.097,1.022,55.603,77.087,56.701,0,0,0,
,0.101,0.687,1.398,271.057,-35.096,52.124,0,0,0,
,-0.034,0.183,1.264,6.774,-276.307,116.394,0,0,0,
,-0.183,0.165,1.071,-491.333,-604.554,190.124,0,0,0,
,-0.33,0.276,0.873,-813.416,-655.457,209.594,0,0,0,
,-0.458,0.278,0.733,-800.538,-527.1,138.244,0,0,0,
,-0.494,0.349,0.734,-493.653,-285.157,35.705,0,0,0,
,-0.389,0.511,0.894,-25.025,26.001,-96.68,0,0,0,
,-0.17,0.658,1.06,531.25,278.503,-173.645,0,0,0,
,-0.055,0.649,1.125,815.246,463.44,-191.04,0,0,0,
,-0.14,0.203,0.9,757.812,636.169,-233.948,0,0,0,
,-0.159,-0.189,0.694,398.01,670.776,-227.234,0,0,0,
,0.054,0.098,0.565,-59.449,434.387,-139.466,0,0,0,
,0.263,0.749,0.698,-160.34,92.59,-52.918,0,0,0,
,0.226,1.047,1.054,193.298,-9.827,27.221,0,0,0,
,0.089,0.61,1.269,462.341,-75.196,26.55,0,0,0,
,-0.013,0.141,1.146,159.057,-316.834,97.29,0,0,0,
,-0.109,0.184,1.002,-353.15,-638.733,171.692,0,0,0,
,-0.281,0.267,0.799,-656.067,-724.427,180.175,0,0,0,
,-0.469,0.245,0.615,-676.026,-609.436,126.464,0,0,0,
,-0.541,0.227,0.511,-526.856,-373.902,44.616,0,0,0,
,-0.488,0.314,0.708,-240.174,6.469,-88.623,0,0,0,
,-0.239,0.46,0.998,188.293,315.49,-193.543,0,0,0,
,0.002,0.604,1.17,491.577,513.794,-199.463,0,0,0,
,0.009,0.513,1.212,476.135,607.36,-166.748,0,0,0,
,-0.135,0.048,0.899,229.919,713.012,-176.575,0,0,0,
,-0.127,-0.236,0.591,-104.371,580.81,-174.561,0,0,0,
,0.116,0.346,0.491,-423.462,298.95,-102.478,0,0,0,
,0.294,1.048,0.486,-181.275,157.104,2.502,0,0,0,
,0.302,1.019,1.208,306.213,81.726,-25.269,0,0,0,
,0.082,0.308,1.362,245.544,-43.091,-3.296,0,0,0,
,-0.064,-0.002,1.105,-265.015,-418.335,102.478,0,0,0,
,-0.182,0.208,0.954,-866.272,-699.891,162.841,0,0,0,
,-0.324,0.34,0.764,-1069.031,-722.29,145.874,0,0,0,
,-0.439,0.378,0.611,-925.293,-565.552,79.162,0,0,0,
,-0.494,0.521,0.675,-542.054,-270.813,-16.297,0,0,0,
,-0.387,0.656,0.883,-18.433,78.186,-158.57,0,0,0,
,-0.137,0.733,1.172,451.782,364.624,-235.413,0,0,0,
,0.028,0.623,1.292,615.417,491.943,-245.911,0,0,0,
,-0.039,0.186,1.007,468.872,609.192,-235.474,0,0,0,
,-0.01,0.082,0.687,121.215,464.294,-148.621,0,0,0,
,0.125,0.654,0.54,-143.006,180.542,-20.386,0,0,0,
,0.17,1.198,0.658,79.528,70.007,93.627,0,0,0,
,0.112,0.995,1.216,465.637,47.241,103.942,0,0,0,
,-0.018,0.37,1.335,378.967,-77.027,153.503,0,0,0,
,-0.22,0.396,0.99,-662.171,-677.613,375.366,0,0,0,
,-0.381,0.463,0.797,-640.015,-660.462,345.642,0,0,0,
,-0.472,0.398,0.604,-367.92,-521.119,255.554,0,0,0,
,-0.481,0.327,0.588,16.784,-270.63,133.972,0,0,0,
,-0.392,0.287,0.767,391.784,35.644,-29.969,0,0,0,
,-0.181,0.32,0.941,712.219,285.278,-114.319,0,0,0,
,-0.078,0.371,0.979,698.425,460.51,-139.527,0,0,0,
,-0.087,0.221,0.995,439.026,533.569,-151.978,0,0,0,
,-0.089,-0.017,0.866,-58.228,542.846,-136.231,0,0,0,
,0.014,0.152,0.667,-460.572,329.162,-100.586,0,0,0,
,0.086,0.584,0.494,-661.255,166.32,-41.993,0,0,0,
,0.206,0.984,0.842,-473.267,25.695,17.089,0,0,0,
,0.173,1.011,1.176,-148.682,-97.901,120.178,0,0,0,
,-0.061,0.629,1.16,-44.068,-254.456,192.871,0,0,0,
,-0.22,0.417,1.001,-175.843,-427.857,266.113,0,0,0,
,-0.275,0.423,0.92,-303.956,-551.819,297.485,0,0,0,
,-0.275,0.39,0.781,-264.893,-552.124,248.718,0,0,0,
,-0.368,0.265,0.651,-144.654,-463.623,167.602,0,0,0,
,-0.463,0.232,0.639,-14.344,-269.227,65.673,0,0,0,
,-0.448,0.254,0.773,217.224,9.46,-65.308,0,0,0,
,-0.333,0.311,0.921,460.388,306.091,-187.134,0,0,0,
,-0.225,0.4,1.08,446.716,447.021,-214.234,0,0,0,
,-0.24,0.25,1.064,210.083,541.076,-248.536,0,0,0,
,-0.261,0.029,0.863,-242.554,550.598,-254.761,0,0,0,
,-0.092,0.162,0.711,-713.562,397.216,-238.16,0,0,0,
,0.123,0.805,0.678,-876.343,141.296,-130.372,0,0,0,
,0.225,1.303,0.955,-647.583,-38.575,12.085,0,0,0,
,0.097,1.242,1.031,-223.694,-140.32,142.089,0,0,0,
,-0.151,0.828,1.077,-14.893,-290.894,249.694,0,0,0,
,-0.313,0.638,1.003,0.732,-474.305,347.473,0,0,0,
,-0.387,0.567,0.916,-21.424,-555.481,387.39,0,0,0,
,-0.376,0.411,0.693,9.643,-539.612,338.867,0,0,0,
,-0.43,0.222,0.596,51.208,-440.613,245.605,0,0,0,
,-0.493,0.133,0.596,129.821,-261.536,111.938,0,0,0,
,-0.501,0.161,0.738,326.355,3.662,-32.776,0,0,0,
,-0.399,0.324,0.88,593.383,270.507,-161.011,0,0,0,
,-0.266,0.35,0.924,589.477,476.623,-235.901,0,0,0,
,-0.224,0.139,0.967,254.577,549.499,-302.43,0,0,0,
,-0.215,0.1,0.795,-304.139,493.591,-270.264,0,0,0,
,-0.091,0.199,0.693,-996.582,376.77,-245.423,0,0,0,
,0.165,0.682,0.635,-1293.824,130.127,-160.218,0,0,0,
,0.249,1.316,0.701,-981.507,-130.127,41.198,0,0,0,
,0.112,1.581,0.85,-284.668,-204.285,218.75,0,0,0,
,-0.14,1.065,0.857,459.961,-171.875,250.488,0,0,0,
,-0.286,0.626,0.883,690.49,-283.02,320.678,0,0,0,
,-0.34,0.464,0.843,616.76,-387.391,333.74,0,0,0,
,-0.347,0.25,0.752,496.643,-412.354,267.089,0,0,0,
,-0.518,-0.051,0.606,218.811,-188.172,53.222,0,0,0,
,-0.539,0.046,0.787,269.348,57.251,-112.366,0,0,0,
,-0.452,0.244,0.988,485.962,300.842,-230.164,0,0,0,
,-0.309,0.284,1.115,402.282,449.829,-307.19,0,0,0,
,-0.272,0.105,1.085,5.554,484.497,-351.929,0,0,0,
,-0.211,-0.111,1.019,-835.877,474.304,-360.108,0,0,0,
,0.236,0.926,0.286,-1864.258,-42.786,-149.353,0,0,0,
,0.304,2.019,0.513,-953.37,-257.935,148.071,0,0,0,
,-0.027,2.036,0.877,409.973,-90.76,199.279,0,0,0,
,-0.326,1.01,1.011,1279.052,2.563,189.697,0,0,0,
,-0.42,0.36,0.906,1241.577,-154.358,296.203,0,0,0,
,-0.389,0.197,0.864,725.586,-360.169,312.255,0,0,0,
,-0.394,0.184,0.741,359.802,-434.937,273.498,0,0,0,
,-0.499,0.145,0.653,231.201,-346.07,175.232,0,0,0,
,-0.549,0.104,0.639,273.437,-134.034,72.998,0,0,0,
,-0.495,0.086,0.78,428.955,108.093,-72.51,0,0,0,
,-0.368,0.283,0.959,541.748,315.124,-128.724,0,0,0,
,-0.235,0.379,1.166,479.431,426.147,-167.847,0,0,0,
,-0.235,0.196,1.252,138.733,487.121,-210.938,0,0,0,
,-0.262,-0.268,1.039,-575.867,541.87,-248.414,0,0,0,
,-0.096,-0.25,0.563,-1541.199,339.782,-173.462,0,0,0,
,0.174,0.696,0.156,-1966.126,-141.48,-64.637,0,0,0,
,0.306,2.053,0.509,-1242.676,-414.002,258.422,0,0,0,
,-0.082,2.236,1.002,455.81,-88.562,261.718,0,0,0,
,-0.351,0.956,1.118,1506.836,105.041,184.814,0,0,0,
,-0.414,0.184,0.951,1439.331,-68.543,276.123,0,0,0,
,-0.341,0.003,0.886,806.884,-400.269,303.894,0,0,0,
,-0.33,0.094,0.778,436.279,-486.939,259.155,0,0,0,
,-0.438,0.007,0.669,423.095,-98.389,47.546,0,0,0,
,-0.408,0.003,0.762,541.504,142.151,-55.115,0,0,0,
,-0.335,0.134,0.932,640.503,370.117,-128.113,0,0,0,
,-0.274,0.222,1.119,563.049,510.864,-173.34,0,0,0,
,-0.28,0.177,1.23,170.837,564.88,-218.506,0,0,0,
,-0.336,-0.332,1.135,-634.644,649.963,-288.636,0,0,0,
,-0.198,-0.601,0.702,-1690.247,426.757,-279.664,0,0,0,
,0.157,0.279,0.205,-2000,-123.352,-153.443,0,0,0,
,0.347,1.636,0.437,-1815.735,-514.954,55.175,0,0,0,
,0.031,2.473,0.879,-115.906,-222.352,237.915,0,0,0,
,-0.32,1.47,1.023,1233.154,7.568,130.127,0,0,0,
,-0.489,0.373,1.007,1698.974,41.931,146.057,0,0,0,
,-0.484,-0.075,0.904,1194.58,-303.772,168.396,0,0,0,
,-0.373,0.025,0.881,536.743,-541.443,188.476,0,0,0,
,-0.366,0.158,0.821,264.587,-586.182,162.597,0,0,0,
,-0.446,0.084,0.68,259.826,-482.789,70.556,0,0,0,
,-0.503,-0.017,0.623,329.589,-299.012,-29.358,0,0,0,
,-0.533,-0.003,0.65,454.651,-60.669,-130.494,0,0,0,
,-0.498,0.047,0.842,648.62,241.394,-188.843,0,0,0,
,-0.297,0.215,1.148,694.336,434.265,-168.335,0,0,0,
,-0.153,0.312,1.405,511.413,400.512,-179.383,0,0,0,
,-0.293,0.095,1.508,-166.077,457.763,-218.873,0,0,0,
,-0.481,-0.899,0.983,-1351.99,598.266,-330.201,0,0,0,
,-0.228,-0.903,0.191,-2000,223.205,-254.334,0,0,0,
,0.218,0.643,-0.397,-2000,-293.58,-73.121,0,0,0,
,0.493,2.411,0.036,-1912.415,-674.195,285.034,0,0,0,
,-0.627,1.15,1.204,1794.433,239.38,25.878,0,0,0,
,-0.654,0.036,1.036,1924.255,215.881,103.149,0,0,0,
,-0.403,-0.215,0.932,1147.094,-251.893,164.611,0,0,0,
,-0.243,0.076,0.931,405.212,-553.711,189.392,0,0,0,
,-0.369,0.23,0.875,89.477,-550.965,165.771,0,0,0,
,-0.458,0.16,0.774,-3.846,-418.702,102.661,0,0,0,
,-0.48,0.08,0.704,-24.17,-228.943,30.578,0,0,0,
,-0.478,0.053,0.723,0.488,-38.392,-48.645,0,0,0,
,-0.436,0.135,0.888,128.234,153.076,-123.78,0,0,0,
,-0.331,0.314,1.077,207.275,254.089,-142.518,0,0,0,
,-0.328,0.358,1.235,136.596,322.387,-171.998,0,0,0,
,-0.432,-0.162,1.153,-421.204,515.686,-251.709,0,0,0,
,-0.432,-0.765,0.774,-1365.784,499.206,-314.515,0,0,0,
,-0.123,-0.363,0.236,-2000,114.135,-246.582,0,0,0,
,0.167,1.08,0.027,-2000,-363.77,-83.924,0,0,0,
,0.209,2.352,0.327,-1131.897,-466.675,134.704,0,0,0,
,-0.281,2.277,0.945,617.675,-56.458,22.766,0,0,0,
,-0.486,1.046,1.202,1622.497,146.972,55.236,0,0,0,
,-0.514,0.232,1.074,1413.696,-46.143,153.381,0,0,0,
,-0.394,0.107,1.007,612.365,-424.561,228.759,0,0,0,
,-0.344,0.313,0.935,21.362,-589.478,281.067,0,0,0,
,-0.397,0.291,0.783,-146.607,-547.608,233.093,0,0,0,
,-0.482,0.18,0.656,-54.81,-396.302,148.071,0,0,0,
,-0.55,0.133,0.583,119.201,-154.602,51.147,0,0,0,
,-0.616,0.075,0.644,408.508,148.132,-90.027,0,0,0,
,-0.533,0.104,0.857,672.851,441.894,-216.98,0,0,0,
,-0.324,0.312,1.116,721.618,529.663,-238.77,0,0,0,
,-0.253,0.419,1.359,451.11,525.268,-250.55,0,0,0,
,-0.412,-0.207,1.225,-356.324,643.31,-323.487,0,0,0,
,-0.45,-0.788,0.736,-1571.534,506.164,-340.455,0,0,0,
,-0.109,-0.095,-0.306,-2000,-20.691,-275.086,0,0,0,
,0.302,1.632,0.016,-2000,-607.972,-7.081,0,0,0,
,0.072,3.195,0.501,-283.326,-377.991,309.021,0,0,0,
,-0.403,1.857,0.98,1591.674,93.078,60.73,0,0,0,
,-0.603,0.348,0.937,1999.694,233.032,170.044,0,0,0,
,-0.559,-0.235,0.855,1506.225,-262.085,228.088,0,0,0,
,-0.443,-0.221,0.745,541.809,-549.5,207.885,0,0,0,
,-0.561,-0.03,0.667,35.644,-544.8,184.448,0,0,0,
,-0.707,0.042,0.598,-58.472,-269.715,84.167,0,0,0,
,-0.61,0.084,0.714,150.085,115.6,-25.269,0,0,0,
,-0.379,0.233,0.857,454.223,431.335,-141.175,0,0,0,
,-0.256,0.277,1.075,540.527,578.308,-208.252,0,0,0,
,-0.211,0.301,1.235,331.482,637.39,-233.338,0,0,0,
,-0.359,-0.145,0.984,-256.348,771.972,-316.468,0,0,0,
,-0.358,-0.513,0.587,-1095.948,621.215,-326.539,0,0,0,
,-0.045,0.247,-0.053,-1862.793,163.696,-201.966,0,0,0,
,0.272,1.739,0.096,-1318.055,-309.327,102.356,0,0,0,
,0,2.492,1.143,315.673,-130.494,114.807,0,0,0,
,-0.421,1.069,1.259,1513.244,175.354,-29.664,0,0,0,
,-0.539,-0.012,1.017,1502.746,43.273,9.948,0,0,0,
,-0.429,-0.189,0.876,603.332,-478.882,94.421,0,0,0,
,-0.418,0.074,0.799,-65.735,-699.891,82.824,0,0,0,
,-0.564,0.18,0.648,-259.827,-589.112,37.17,0,0,0,
,-0.649,0.19,0.61,-174.073,-288.575,-37.171,0,0,0,
,-0.511,0.257,0.797,80.2,86.914,-131.409,0,0,0,
,-0.283,0.4,0.979,342.712,355.102,-151.795,0,0,0,
,-0.136,0.507,1.218,480.957,475.708,-156.189,0,0,0,
,-0.194,0.407,1.279,304.321,588.379,-169.861,0,0,0,
,-0.403,-0.167,0.93,-267.395,760.009,-256.714,0,0,0,
,-0.326,-0.352,0.502,-1020.508,563.11,-204.834,0,0,0,
,-0.034,0.422,0.131,-1535.828,79.406,-69.519,0,0,0,
,0.182,1.688,0.672,-925.415,-170.411,111.328,0,0,0,
,-0.004,1.847,1.236,321.716,-2.747,93.75,0,0,0,
,-0.265,0.784,1.259,1079.528,38.574,33.508,0,0,0,
,-0.368,0.211,0.998,849.182,-231.69,160.278,0,0,0,
,-0.408,0.109,0.905,280.09,-544.678,186.828,0,0,0,
,-0.552,0.193,0.763,-225.647,-411.377,150.146,0,0,0,
,-0.543,0.192,0.794,-171.204,-132.935,93.322,0,0,0,
,-0.446,0.243,0.924,90.942,146.667,16.967,0,0,0,
,-0.338,0.382,1.106,404.968,358.886,-20.569,0,0,0,
,-0.396,0.171,1.179,436.279,659.729,-140.076,0,0,0,
,-0.487,-0.426,0.833,-94.361,756.225,-247.803,0,0,0,
,-0.307,-0.427,0.56,-968.506,513.427,-194.336,0,0,0,
,0.068,0.576,0.279,-1391.053,50.964,-60.608,0,0,0,
,0.301,1.683,0.868,-921.326,-175.721,76.782,0,0,0,
,0.092,1.635,1.238,114.318,-133.667,90.698,0,0,0,
,-0.249,0.738,1.173,767.822,-166.138,107.849,0,0,0,
,-0.352,0.273,0.925,752.319,-399.17,193.054,0,0,0,
,-0.447,0.107,0.708,414.123,-585.511,181.457,0,0,0,
,-0.495,0.067,0.589,40.588,-550.721,144.104,0,0,0,
,-0.503,0.053,0.526,-225.403,-346.497,87.219,0,0,0,
,-0.446,0.142,0.65,-234.253,-91.919,6.713,0,0,0,
,-0.325,0.295,0.829,-29.175,216.125,-73.975,0,0,0,
,-0.187,0.409,1.01,152.649,415.344,-137.94,0,0,0,
,-0.226,0.305,1.009,142.639,604.492,-202.21,0,0,0,
,-0.351,-0.001,0.811,-87.586,743.469,-285.218,0,0,0,
,-0.365,-0.231,0.513,-542.115,733.215,-320.252,0,0,0,
,-0.076,0.322,0.384,-907.166,395.08,-196.534,0,0,0,
,0.178,1.295,0.547,-565.43,109.741,-46.265,0,0,0,
,0.18,1.571,1.096,325.805,93.078,-53.528,0,0,0,
,-0.09,0.834,1.341,811.157,31.677,-46.998,0,0,0,
,-0.219,0.262,1.157,648.498,-232.85,71.167,0,0,0,
,-0.274,0.088,0.996,138.916,-582.703,135.192,0,0,0,
,-0.364,0.128,0.799,-335.389,-718.811,145.263,0,0,0,
,-0.476,0.166,0.704,-550.599,-631.714,108.52,0,0,0,
,-0.528,0.218,0.657,-468.506,-358.216,6.836,0,0,0,
,-0.483,0.313,0.798,-138.916,7.873,-129.151,0,0,0,
,-0.299,0.433,1.077,166.32,307.434,-233.765,0,0,0,
,-0.12,0.553,1.246,299.072,414.062,-289.612,0,0,0,
,-0.186,0.441,1.13,279.48,550.171,-330.628,0,0,0,
,-0.433,-0.153,0.64,31.86,727.417,-434.998,0,0,0,
,-0.273,-0.11,0.423,-413.331,566.589,-330.262,0,0,0,
,0.075,0.887,0.28,-605.896,211.486,-71.778,0,0,0,
,0.249,1.65,0.818,106.384,87.158,-44.19,0,0,0,
,-0.004,1.101,1.277,865.539,155.395,-148.743,0,0,0,
,-0.211,0.148,1.371,802.734,5.676,-114.075,0,0,0,
,-0.25,-0.075,1.131,45.898,-543.03,37.475,0,0,0,
,-0.294,0.231,0.978,-576.172,-896.851,104.065,0,0,0,
,-0.451,0.324,0.779,-807.984,-877.503,77.087,0,0,0,
,-0.533,0.228,0.612,-878.235,-665.039,21.179,0,0,0,
,-0.505,0.242,0.649,-930.542,-392.762,-41.932,0,0,0,
,-0.392,0.392,0.788,-880.249,-80.262,-150.757,0,0,0,
,-0.226,0.731,1.17,-183.838,276.428,-331.971,0,0,0,
,-0.278,0.312,0.955,-22.156,506.408,-415.711,0,0,0,
,-0.3,-0.015,0.528,-328.064,564.697,-436.951,0,0,0,
,-0.166,0.281,0.196,-754.029,409.729,-323.487,0,0,0,
,0.051,1.337,0.23,-575.745,69.763,-125.184,0,0,0,
,0.028,1.997,0.782,563.476,-13.062,-75.867,0,0,0,
,-0.154,1.286,1.17,1475.097,66.406,-77.82,0,0,0,
,-0.264,0.359,1.095,1531.555,-2.747,-24.659,0,0,0,
,-0.228,0.037,0.98,734.314,-426.697,123.962,0,0,0,
,-0.256,0.255,0.927,-181.092,-831.543,206.298,0,0,0,
,-0.419,0.4,0.726,-586.548,-859.62,224.121,0,0,0,
,-0.508,0.349,0.568,-685.73,-671.387,169.311,0,0,0,
,-0.491,0.285,0.492,-641.663,-395.752,74.34,0,0,0,
,-0.447,0.386,0.643,-427.674,-85.633,-60.975,0,0,0,
,-0.326,0.691,0.9,42.297,166.198,-181.702,0,0,0,
,-0.24,0.824,1.068,374.267,396.118,-213.013,0,0,0,
,-0.34,0.526,0.953,430.603,606.079,-261.658,0,0,0,
,-0.498,-0.126,0.514,152.099,755.554,-315.674,0,0,0,
,-0.358,-0.128,0.156,-384.461,697.815,-283.814,0,0,0,
,0.014,0.958,0.289,-488.282,387.268,-76.661,0,0,0,
,0.161,1.863,0.876,143.737,133.361,46.63,0,0,0,
,-0.332,0.378,1.252,1308.41,3.173,46.814,0,0,0,
,-0.346,-0.032,1.028,714.477,-364.991,154.419,0,0,0,
,-0.306,0.083,0.964,-32.227,-727.967,195.678,0,0,0,
,-0.396,0.201,0.758,-503.479,-736.023,189.514,0,0,0,
,-0.481,0.182,0.632,-590.76,-544.129,110.595,0,0,0,
,-0.488,0.221,0.673,-368.958,-240.235,-11.17,0,0,0,
,-0.413,0.439,0.893,82.519,84.655,-136.048,0,0,0,
,-0.232,0.606,1.165,486.084,344.726,-210.755,0,0,0,
,-0.124,0.523,1.247,579.223,526.611,-255.066,0,0,0,
,-0.282,0.114,0.934,304.504,678.894,-301.514,0,0,0,
,-0.364,-0.24,0.498,-231.019,736.084,-317.81,0,0,0,
,-0.074,0.313,0.26,-670.899,425.415,-179.627,0,0,0,
,0.195,1.746,1.055,388,111.511,-19.349,0,0,0,
,-0.104,0.832,1.317,937.622,81.543,-38.208,0,0,0,
,-0.261,0.21,1.135,764.465,-220.154,76.294,0,0,0,
,-0.289,0.081,0.998,213.928,-629.395,147.4,0,0,0,
,-0.314,0.194,0.939,-256.226,-832.032,162.536,0,0,0,
,-0.384,0.195,0.702,-442.261,-791.993,123.047,0,0,0,
,-0.472,0.157,0.531,-434.632,-626.404,56.457,0,0,0,
,-0.572,0.205,0.586,-245.301,-327.027,-49.073,0,0,0,
,-0.555,0.424,0.868,105.102,29.846,-179.078,0,0,0,
,-0.292,0.597,1.256,481.628,283.203,-210.999,0,0,0,
,-0.176,0.596,1.516,690.979,410.644,-225.403,0,0,0,
,-0.322,0.19,1.216,338.928,535.766,-258.789,0,0,0,
,-0.501,-0.473,0.475,-298.096,541.687,-253.174,0,0,0,
,-0.239,0.12,0.086,-957.276,129.638,-52.002,0,0,0,
,0.108,1.504,0.269,-459.168,-110.169,145.263,0,0,0,
,0.175,1.811,1.031,650.94,71.472,-10.498,0,0,0,
,-0.134,0.683,1.311,1162.597,142.822,-59.388,0,0,0,
,-0.257,-0.023,1.083,808.776,-224.06,65.979,0,0,0,
,-0.317,0.059,0.895,104.614,-637.269,160.156,0,0,0,
,-0.454,0.226,0.716,-155.396,-605.774,142.212,0,0,0,
,-0.537,0.177,0.648,-92.652,-363.465,46.325,0,0,0,
,-0.518,0.1,0.708,64.636,-64.454,-37.842,0,0,0,
,-0.394,0.194,0.946,276.855,165.832,-95.52,0,0,0,
,-0.245,0.379,1.142,340.515,329.956,-90.699,0,0,0,
,-0.206,0.368,1.238,253.112,464.416,-124.756,0,0,0,
,-0.359,-0.056,0.962,-57.557,671.447,-232.789,0,0,0,
,-0.385,-0.505,0.572,-549.927,707.336,-276.978,0,0,0,
,-0.091,-0.053,0.285,-1115.418,422.424,-149.292,0,0,0,
,0.257,1.195,0.504,-1031.312,-49.988,33.874,0,0,0,
,0.229,1.685,1.081,-184.021,-45.777,-18.738,0,0,0,
,-0.088,1.003,1.371,534.546,-21.79,-59.815,0,0,0,
,-0.266,0.335,1.091,515.197,-310.181,56.152,0,0,0,
,-0.351,0.196,1.051,148.742,-644.837,107.177,0,0,0,
,-0.422,0.245,1.001,-194.825,-815.064,127.624,0,0,0,
,-0.441,0.184,0.885,-375.428,-798.523,64.514,0,0,0,
,-0.489,0.116,0.653,-569.397,-694.092,36.804,0,0,0,
,-0.585,0.122,0.575,-675.904,-474.427,-22.644,0,0,0,
,-0.624,0.274,0.689,-560.608,-122.498,-106.08,0,0,0,
,-0.465,0.581,1.068,-103.638,206.482,-206.36,0,0,0,
,-0.213,0.654,1.296,308.776,480.59,-259.217,0,0,0,
,-0.197,0.508,1.158,360.29,612.121,-294.19,0,0,0,
,-0.437,-0.188,0.518,44.433,778.93,-366.578,0,0,0,
,-0.304,-0.152,0.059,-441.285,636.901,-283.204,0,0,0,
,0.152,1.237,0.019,-553.101,204.162,68.969,0,0,0,
,0.378,2.135,0.743,348.693,87.646,115.051,0,0,0,
,0.005,1.129,1.32,1272.338,247.192,-85.267,0,0,0,
,-0.284,0.022,1.208,1144.836,66.162,27.343,0,0,0,
,-0.352,-0.148,0.991,292.541,-498.536,175.171,0,0,0,
,-0.406,0.106,0.876,-415.833,-765.564,203.247,0,0,0,
,-0.517,0.194,0.711,-736.695,-675.965,156.677,0,0,0,
,-0.573,0.168,0.623,-744.263,-429.993,81.298,0,0,0,
,-0.555,0.305,0.742,-457.276,-136.658,6.958,0,0,0,
,-0.461,0.537,1.048,121.093,215.393,-116.944,0,0,0,
,-0.198,0.581,1.302,536.071,462.585,-160.645,0,0,0,
,-0.166,0.377,1.188,550.659,619.201,-200.745,0,0,0,
,-0.369,-0.155,0.757,261.474,737.976,-309.449,0,0,0,
,-0.302,-0.242,0.329,-277.405,616.455,-260.193,0,0,0,
,0.062,0.78,0.236,-555.359,234.497,-49.683,0,0,0,
,0.326,1.595,0.881,-41.565,93.322,28.625,0,0,0,
,0.14,1.107,1.365,585.815,118.774,-77.454,0,0,0,
,-0.142,0.332,1.258,491.211,-143.006,46.447,0,0,0,
,-0.295,0.207,0.999,-20.508,-572.388,180.053,0,0,0,
,-0.364,0.291,0.979,-316.529,-771.668,185.791,0,0,0,
,-0.401,0.216,0.825,-440.064,-701.661,124.878,0,0,0,
,-0.424,0.056,0.612,-574.402,-604.615,68.603,0,0,0,
,-0.493,0.088,0.527,-578.919,-401.917,20.324,0,0,0,
,-0.561,0.276,0.731,-298.279,-56.336,-90.76,0,0,0,
,-0.45,0.502,1.075,199.279,288.94,-212.342,0,0,0,
,-0.257,0.656,1.231,588.684,480.102,-277.771,0,0,0,
,-0.235,0.542,1.256,601.562,592.163,-348.389,0,0,0,
,-0.496,-0.103,0.712,264.831,739.074,-441.407,0,0,0,
,-0.418,-0.298,0.303,-329.163,583.923,-386.963,0,0,0,
,0.04,0.898,0.161,-648.194,181.396,-52.43,0,0,0,
,0.392,1.958,0.739,79.406,36.499,101.196,0,0,0,
,0.086,1.307,1.286,820.8,169.372,-53.467,0,0,0,
,-0.273,0.306,1.282,812.072,51.696,32.531,0,0,0,
,-0.372,0.003,1.03,150.512,-446.534,202.514,0,0,0,
,-0.416,0.124,0.942,-373.719,-730.53,217.224,0,0,0,
,-0.512,0.199,0.775,-621.582,-699.463,192.627,0,0,0,
,-0.596,0.179,0.669,-598.999,-534.607,127.807,0,0,0,
,-0.621,0.24,0.642,-360.047,-235.474,50.903,0,0,0,
,-0.545,0.361,0.885,67.81,140.319,-75.013,0,0,0,
,-0.308,0.433,1.192,603.942,386.352,-165.101,0,0,0,
,-0.181,0.458,1.263,865.112,559.692,-212.525,0,0,0,
,-0.27,0.058,0.934,632.507,753.173,-323.487,0,0,0,
,-0.378,-0.564,0.525,-4.822,811.95,-401.856,0,0,0,
,-0.079,-0.093,0.168,-800.11,456.298,-234.986,0,0,0,
,0.375,1.349,0.439,-919.861,-51.819,74.157,0,0,0,
,0.399,2.04,1.002,-187.867,16.54,138.122,0,0,0,
,0.04,1.199,1.352,378.357,83.496,119.629,0,0,0,
,-0.217,0.48,1.109,304.077,-195.069,339.355,0,0,0,
,-0.37,0.337,1.04,-99.183,-568.97,471.984,0,0,0,
,-0.486,0.297,0.995,-294.922,-648.316,457.824,0,0,0,
,-0.585,0.097,0.814,-205.262,-531.434,351.379,0,0,0,
,-0.646,-0.035,0.653,-8.789,-320.923,235.29,0,0,0,
,-0.614,-0.051,0.727,201.538,-1.221,65.734,0,0,0,
,-0.468,0.091,0.978,508.85,259.948,-103.76,0,0,0,
,-0.343,0.21,1.138,846.13,453.186,-225.159,0,0,0,
,-0.355,0.097,1.199,811.462,686.584,-334.046,0,0,0,
,-0.376,-0.35,0.843,159.79,812.011,-417.42,0,0,0,
,-0.22,-0.59,0.512,-892.945,650.512,-454.041,0,0,0,
,0.158,0.288,0.157,-1782.837,189.819,-247.254,0,0,0,
,0.531,1.762,0.422,-1504.09,-263.428,45.837,0,0,0,
,0.354,2.33,0.838,-357.239,-126.221,233.154,0,0,0,
,-0.112,1.481,1.112,707.641,19.409,208.13,0,0,0,
,-0.396,0.45,0.907,1018.737,20.141,278.32,0,0,0,
,-0.427,0,0.921,653.076,-263.306,331.604,0,0,0,
,-0.4,-0.022,0.897,219.299,-514.832,312.378,0,0,0,
,-0.487,0.011,0.816,33.081,-478.699,238.952,0,0,0,
,-0.579,-0.041,0.766,93.505,-256.104,123.23,0,0,0,
,-0.594,-0.078,0.843,242.065,16.601,-29.297,0,0,0,
,-0.471,0.057,1.001,481.689,254.211,-150.757,0,0,0,
,-0.35,0.229,1.156,711.547,449.035,-246.521,0,0,0,
,-0.287,0.294,1.383,694.519,577.209,-314.393,0,0,0,
,-0.329,-0.122,1.247,29.174,770.813,-393.982,0,0,0,
,-0.229,-0.713,0.932,-1030.091,715.149,-384.766,0,0,0,
,0.124,-0.317,0.334,-2000,199.829,-221.924,0,0,0,
,0.494,1.194,0,-2000,-608.338,-18.921,0,0,0,
,0.466,2.666,0.46,-1064.026,-595.887,362.609,0,0,0,
,-0.052,2.397,0.929,656.86,-65.552,254.943,0,0,0,
,-0.309,0.916,0.999,1528.747,156.372,258.3,0,0,0,
,-0.368,0.075,0.95,1363.159,18.798,341.797,0,0,0,
,-0.318,-0.207,0.861,714.538,-378.846,340.698,0,0,0,
,-0.433,-0.141,0.753,230.407,-518.982,310.608,0,0,0,
,-0.63,-0.056,0.665,191.589,-366.394,204.467,0,0,0,
,-0.748,-0.046,0.718,418.274,-45.594,39.245,0,0,0,
,-0.598,0.017,0.947,729.309,285.034,-107.3,0,0,0,
,-0.331,0.238,1.211,952.087,496.276,-168.885,0,0,0,
,-0.229,0.237,1.447,847.29,603.942,-222.046,0,0,0,
,-0.298,-0.319,1.185,287.597,744.323,-325.623,0,0,0,
,-0.297,-0.949,0.749,-712.037,759.948,-365.723,0,0,0,
,0.124,-0.381,-0.06,-1929.017,197.815,-216.309,0,0,0,
,0.646,1.539,0.249,-1799.622,-622.071,3.723,0,0,0,
,0.45,2.874,1.117,-232.3,-358.094,353.759,0,0,0,
,0.017,1.523,1.232,1174.56,61.34,163.208,0,0,0,
,-0.187,0.247,1.163,1468.994,72.387,213.684,0,0,0,
,-0.176,-0.091,1.07,558.044,-536.194,378.112,0,0,0,
,-0.193,0.237,0.997,-97.168,-899.292,414.123,0,0,0,
,-0.419,0.291,0.745,-113.892,-790.589,389.77,0,0,0,
,-0.662,-0.008,0.626,162.658,-453.309,280.578,0,0,0,
,-0.721,-0.251,0.61,327.392,-89.112,152.588,0,0,0,
,-0.537,-0.231,0.796,434.326,205.017,7.202,0,0,0,
,-0.401,-0.032,0.961,646.24,467.041,-73.975,0,0,0,
,-0.328,0.011,1.137,769.165,694.213,-136.231,0,0,0,
,-0.339,-0.077,1.148,517.883,782.409,-189.82,0,0,0,
,-0.455,-0.562,0.897,-283.57,916.198,-347.962,0,0,0,
,-0.359,-0.993,0.597,-1352.356,801.818,-373.352,0,0,0,
,0.187,-0.193,0.243,-2000,210.022,-290.894,0,0,0,
,0.716,1.436,0.394,-1968.812,-505.005,-133.423,0,0,0,
,0.625,2.508,0.886,-825.684,-432.557,243.774,0,0,0,
,0,1.876,1.17,507.324,-108.155,190.307,0,0,0,
,-0.352,0.587,1.158,1083.374,61.889,186.767,0,0,0,
,-0.389,0.034,1.123,597.351,-182.496,329.528,0,0,0,
,-0.307,0,1.072,-89.966,-562.989,384.216,0,0,0,
,-0.413,0.119,0.947,-373.352,-633.118,357.422,0,0,0,
,-0.633,0.057,0.828,-286.316,-420.227,259.765,0,0,0,
,-0.718,-0.021,0.765,-75.013,-127.991,123.413,0,0,0,
,-0.622,0.026,0.893,122.985,173.645,-31.556,0,0,0,
,-0.482,0.214,1.052,339.721,371.154,-152.588,0,0,0,
,-0.377,0.24,1.249,479.37,550.171,-237.854,0,0,0,
,-0.397,-0.069,1.225,301.574,688.476,-325.684,0,0,0,
,-0.341,-0.54,0.928,-395.02,734.924,-365.723,0,0,0,
,-0.061,-0.406,0.338,-1238.709,451.66,-286.377,0,0,0,
,0.283,0.775,-0.036,-1553.162,-144.41,-153.26,0,0,0,
,0.622,2.352,0.733,-722.107,-376.16,199.279,0,0,0,
,0.302,2.065,1.239,504.516,-54.749,189.758,0,0,0,
,-0.163,0.733,1.118,1172.363,90.026,197.815,0,0,0,
,-0.384,-0.018,0.965,928.1,-177.063,308.105,0,0,0,
,-0.47,-0.194,0.886,325.683,-489.624,315.918,0,0,0,
,-0.582,-0.115,0.793,9.521,-514.405,241.882,0,0,0,
,-0.673,-0.078,0.715,36.071,-335.083,113.586,0,0,0,
,-0.587,0.008,0.969,397.888,197.631,-206.482,0,0,0,
,-0.35,0.243,1.208,488.952,382.324,-268.555,0,0,0,
,-0.235,0.163,1.307,296.63,506.713,-351.319,0,0,0,
,-0.286,-0.346,1.047,-370.362,650.024,-424.256,0,0,0,
,-0.075,-0.471,0.475,-1432.923,479.858,-308.777,0,0,0,
,0.324,0.639,-0.153,-1972.657,-85.755,-139.954,0,0,0,
,0.643,2.192,0.356,-1286.561,-417.786,235.29,0,0,0,
,0.22,2.518,1.11,205.322,-23.621,317.26,0,0,0,
,-0.171,1.106,1.092,1257.202,220.825,255.31,0,0,0,
,-0.349,0.159,0.91,1217.651,107.605,403.625,0,0,0,
,-0.308,-0.117,0.901,609.68,-291.871,467.163,0,0,0,
,-0.335,-0.072,0.859,240.539,-454.956,407.348,0,0,0,
,-0.5,-0.14,0.777,254.15,-362,286.926,0,0,0,
,-0.698,-0.235,0.711,393.554,-143.006,143.371,0,0,0,
,-0.742,-0.139,0.827,508.85,138.244,-30.213,0,0,0,
,-0.551,-0.008,1.034,743.591,361.877,-170.472,0,0,0,
,-0.298,0.16,1.336,808.532,523.132,-239.319,0,0,0,
,-0.216,0.059,1.483,423.828,556.884,-315.064,0,0,0,
,-0.37,-0.688,1.176,-622.437,746.887,-412.11,0,0,0,
,-0.138,-1.112,0.458,-1975.525,472.29,-321.106,0,0,0,
,0.272,0.07,-0.243,-2000,-120.789,-241.578,0,0,0,
,0.808,2.265,0.36,-2000,-948.426,149.658,0,0,0,
,0.361,3.284,1.075,35.949,-269.41,357.666,0,0,0,
,-0.203,1.504,1.032,1578.125,202.27,158.203,0,0,0,
,-0.409,0.152,0.933,1785.278,376.037,239.929,0,0,0,
,-0.335,-0.397,0.856,980.957,-110.657,241.821,0,0,0,
,-0.388,-0.289,0.776,168.762,-483.094,244.445,0,0,0,
,-0.575,-0.054,0.695,-79.59,-438.538,188.415,0,0,0,
,-0.751,0.008,0.734,125.854,-125.672,26.062,0,0,0,
,-0.626,0.026,0.968,482.849,261.596,-137.269,0,0,0,
,-0.322,0.173,1.214,648.925,443.786,-204.102,0,0,0,
,-0.146,0.238,1.506,529.541,514.77,-253.357,0,0,0,
,-0.235,-0.201,1.332,-97.168,658.203,-352.662,0,0,0,
,-0.295,-0.992,0.774,-1086.915,647.155,-374.268,0,0,0,
,0.092,-0.345,-0.183,-2000,157.959,-228.15,0,0,0,
,0.595,1.563,0.243,-1897.278,-659.119,49.621,0,0,0,
,0.424,2.9,1.044,-212.403,-353.516,294.799,0,0,0,
,-0.098,1.769,1.324,1413.879,121.46,84.655,0,0,0,
,-0.402,0.227,1.151,1815.063,314.331,122.131,0,0,0,
,-0.378,-0.468,0.957,1065.857,-114.014,185.363,0,0,0,
,-0.361,-0.354,0.809,196.228,-580.018,203.369,0,0,0,
,-0.5,0.056,0.678,-65.308,-609.559,181.762,0,0,0,
,-0.71,0.205,0.623,254.455,-252.381,61.279,0,0,0,
,-0.651,0.107,0.823,729.431,217.895,-94.971,0,0,0,
,-0.003,0.181,1.203,885.742,587.402,-127.076,0,0,0,
,-0.072,0.261,1.359,613.586,565.429,-146.668,0,0,0,
,-0.303,-0.274,1.108,-40.345,825.439,-253.663,0,0,0,
,-0.324,-0.816,0.664,-835.755,808.349,-254.09,0,0,0,
,0.034,-0.364,0.135,-1766.663,286.01,-143.128,0,0,0,
,0.422,1.076,0.393,-1642.212,-328.064,11.23,0,0,0,
,0.426,1.988,1.164,-514.283,-342.102,140.258,0,0,0,
,-0.059,1.292,1.509,634.277,-15.381,11.718,0,0,0,
,-0.288,0.268,1.207,929.26,-39.612,32.592,0,0,0,
,-0.314,-0.161,1.103,425.964,-459.9,80.627,0,0,0,
,-0.335,-0.087,0.934,-213.013,-785.157,100.891,0,0,0,
,-0.43,0.076,0.714,-599.366,-811.829,90.698,0,0,0,
,-0.549,0.169,0.556,-617.066,-624.939,52.307,0,0,0,
,-0.581,0.238,0.639,-267.273,-286.988,-41.748,0,0,0,
,-0.415,0.305,0.928,239.135,184.509,-145.203,0,0,0,
,-0.104,0.368,1.194,502.746,427.002,-137.635,0,0,0,
,0.049,0.429,1.44,512.878,458.74,-137.33,0,0,0,
,-0.143,0.113,1.249,194.152,603.82,-171.753,0,0,0,
,-0.324,-0.524,0.749,-343.873,696.167,-234.131,0,0,0,
,-0.152,-0.258,0.385,-1002.869,309.57,-70.496,0,0,0,
,0.109,0.779,0.163,-1103.028,-146.485,91.98,0,0,0,
,0.306,1.741,1.135,-53.162,-237.122,89.843,0,0,0,
,-0.061,0.967,1.581,847.107,42.663,-108.216,0,0,0,
,-0.275,0.045,1.326,855.102,-86.731,-73.731,0,0,0,
,-0.271,-0.132,1.157,222.656,-613.038,26.184,0,0,0,
,-0.346,0.106,0.995,-400.574,-885.56,64.453,0,0,0,
,-0.503,0.21,0.695,-631.836,-791.138,40.222,0,0,0,
,-0.588,0.205,0.467,-615.906,-580.689,-2.137,0,0,0,
,-0.551,0.309,0.559,-331.971,-241.394,-80.14,0,0,0,
,-0.381,0.456,0.827,83.679,161.987,-155.579,0,0,0,
,-0.102,0.57,1.121,436.828,432.556,-136.109,0,0,0,
,-0.004,0.617,1.348,543.213,501.037,-74.83,0,0,0,
,-0.189,0.305,1.169,367.004,657.226,-73.975,0,0,0,
,-0.371,-0.371,0.746,-75.501,792.236,-163.758,0,0,0,
,-0.25,-0.369,0.198,-677.857,556.091,-62.806,0,0,0,
,0.026,0.537,0.024,-935.852,180.847,64.453,0,0,0,
,0.314,1.406,0.892,-376.404,-80.079,52.795,0,0,0,
,0.032,1.015,1.464,556.823,6.225,-91.065,0,0,0,
,-0.254,0.206,1.369,766.113,-116.272,-60.364,0,0,0,
,-0.309,-0.017,1.09,348.144,-503.235,18.92,0,0,0,
,-0.396,0.059,0.89,-151.368,-717.041,12.329,0,0,0,
,-0.513,0.134,0.726,-374.146,-625.916,-17.456,0,0,0,
,-0.582,0.219,0.72,-366.761,-382.386,-66.04,0,0,0,
,-0.486,0.381,0.921,-199.28,-48.34,-110.718,0,0,0,
,-0.241,0.56,1.152,21.484,173.462,-108.216,0,0,0,
,-0.061,0.658,1.384,134.277,297.302,-82.154,0,0,0,
,-0.141,0.444,1.282,32.043,455.2,-100.22,0,0,0,
,-0.357,-0.254,0.749,-253.357,677.795,-188.172,0,0,0,
,-0.235,-0.299,0.389,-606.446,517.395,-93.567,0,0,0,
,0.015,0.653,-0.052,-765.87,106.933,105.713,0,0,0,
,0.224,1.668,0.776,-31.495,-91.675,166.076,0,0,0,
,-0.004,1.087,1.436,1127.38,152.099,-118.226,0,0,0,
,-0.219,-0.027,1.3,1331.482,169.433,-109.436,0,0,0,
,-0.178,-0.244,1.031,585.205,-396.424,44.555,0,0,0,
,-0.254,0.061,0.905,-160.95,-737.244,75.317,0,0,0,
,-0.46,0.235,0.751,-311.646,-637.818,50.72,0,0,0,
,-0.56,0.228,0.688,-162.293,-352.845,-41.81,0,0,0,
,-0.439,0.219,0.765,-13.306,-28.565,-107.727,0,0,0,
,-0.108,0.575,1.323,84.045,371.46,-51.819,0,0,0,
,-0.229,0.399,1.3,17.761,549.926,-85.511,0,0,0,
,-0.357,-0.292,0.854,-286.499,741.333,-179.627,0,0,0,
,-0.201,-0.366,0.478,-884.156,474.304,-89.905,0,0,0,
,0.043,0.517,0.099,-1092.225,32.531,78.43,0,0,0,
,0.267,1.565,0.804,-446.961,-266.114,147.583,0,0,0,
,0.042,1.405,1.453,705.688,-84.9,11.047,0,0,0,
,-0.225,0.402,1.345,1164.001,-35.218,-7.813,0,0,0,
,-0.201,0.065,1.166,723.693,-435.547,128.845,0,0,0,
,-0.206,0.141,1.037,117.553,-778.382,164.978,0,0,0,
,-0.325,0.202,0.808,-233.582,-767.64,169.616,0,0,0,
,-0.457,0.144,0.631,-453.186,-578.736,149.78,0,0,0,
,-0.508,0.149,0.615,-534.424,-347.657,116.088,0,0,0,
,-0.468,0.206,0.77,-388.916,-29.786,26.489,0,0,0,
,-0.347,0.369,0.974,-46.998,265.991,-35.462,0,0,0,
,-0.19,0.543,1.236,308.105,407.348,-34.485,0,0,0,
,-0.176,0.524,1.306,485.046,530.212,-56.153,0,0,0,
,-0.313,0.092,1.036,295.532,681.03,-149.231,0,0,0,
,-0.447,-0.78,0.51,-118.531,830.017,-266.48,0,0,0,
,-0.11,-0.588,0.067,-970.154,515.503,-141.907,0,0,0,
,0.298,0.786,0.111,-1278.382,-17.273,93.994,0,0,0,
,0.492,1.809,0.952,-496.033,-327.881,101.074,0,0,0,
,-0.028,1.244,1.501,603.698,-120.789,-85.083,0,0,0,
,-0.363,0.286,1.276,849.609,-185.059,6.652,0,0,0,
,-0.346,-0.011,0.91,413.025,-587.647,97.778,0,0,0,
,-0.471,0.018,0.725,-186.768,-744.629,83.068,0,0,0,
,-0.655,0.194,0.75,-524.842,-307.068,-44.434,0,0,0,
,-0.465,0.396,1.024,-319.825,3.479,-113.221,0,0,0,
