TIMECODE,ACC_X,ACC_Y,ACC_Z,GYR_X,GYR_Y,GYR_Z,TAG
00:00:00:0,-0.042,-0.485,0.899,-16.236,10.253,-28.687,
00:00:00:16,-0.042,-0.487,0.899,-17.64,14.221,-46.387,
00:00:00:33,-0.04,-0.486,0.9,-18.677,14.221,-31.861,
00:00:00:50,-0.04,-0.488,0.898,-17.884,13.61,-31.311,
00:00:00:66,-0.041,-0.483,0.895,-21.18,10.559,-30.518,
00:00:00:83,-0.041,-0.48,0.898,-19.104,11.474,-28.809,
00:00:00:100,-0.04,-0.483,0.895,-15.259,8.483,-30.579,
00:00:00:116,-0.041,-0.486,0.895,-16.724,11.108,-31.006,
00:00:00:133,-0.038,-0.483,0.899,-16.602,10.986,-29.48,
00:00:00:150,-0.042,-0.485,0.895,-15.442,9.094,-30.396,
00:00:00:166,-0.042,-0.485,0.901,-15.931,12.634,-30.518,
00:00:00:183,-0.039,-0.48,0.902,-23.194,8.911,-31.067,
00:00:00:200,-0.042,-0.479,0.9,-16.297,9.826,-31.434,
00:00:00:216,-0.038,-0.487,0.9,-16.663,9.643,-29.114,
00:00:00:233,-0.043,-0.485,0.897,-18.372,12.634,-31.678,
00:00:00:250,-0.043,-0.482,0.897,-17.884,7.324,-30.579,
00:00:00:266,-0.043,-0.485,0.896,-17.334,11.718,-30.335,
00:00:00:283,-0.043,-0.487,0.891,-18.128,13.366,-30.274,
00:00:00:300,-0.042,-0.484,0.901,-19.043,12.512,-30.518,
00:00:00:316,-0.041,-0.479,0.895,-17.151,13.61,-32.471,
00:00:00:333,-0.037,-0.48,0.897,-13.123,6.836,-30.701,
00:00:00:350,-0.036,-0.487,0.895,-14.405,5.554,-32.044,
00:00:00:366,-0.043,-0.49,0.901,-16.297,11.291,-30.457,
00:00:00:383,-0.044,-0.486,0.904,-19.837,11.901,-29.786,
00:00:00:400,-0.045,-0.481,0.901,-21.18,13.061,-30.152,
00:00:00:416,-0.044,-0.478,0.901,-16.48,15.686,-31.25,
00:00:00:433,-0.04,-0.478,0.901,-11.841,10.192,-31.678,
00:00:00:450,-0.042,-0.486,0.897,-12.207,7.934,-28.748,
00:00:00:466,-0.043,-0.486,0.897,-11.902,7.934,-28.077,
00:00:00:483,-0.042,-0.486,0.897,-14.161,5.004,-27.527,
00:00:00:500,-0.042,-0.485,0.899,-17.334,10.376,-29.725,
00:00:00:516,-0.044,-0.482,0.901,-17.884,9.582,-28.687,
00:00:00:533,-0.04,-0.481,0.901,-16.907,11.596,-29.114,
00:00:00:550,-0.043,-0.482,0.898,-18.433,10.253,-29.419,
00:00:00:566,-0.042,-0.482,0.894,-16.907,10.925,-29.175,
00:00:00:583,-0.042,-0.483,0.9,-14.344,13.671,-29.48,
00:00:00:600,-0.041,-0.482,0.9,-13.001,12.146,-28.382,
00:00:00:616,-0.044,-0.486,0.901,-12.574,10.62,-28.504,
00:00:00:633,-0.04,-0.489,0.897,-15.686,12.512,-29.786,
00:00:00:650,-0.042,-0.488,0.893,-18.25,15.258,-30.152,
00:00:00:666,-0.041,-0.483,0.895,-19.471,11.84,-29.908,
00:00:00:683,-0.041,-0.482,0.895,-15.564,10.925,-27.466,
00:00:00:700,-0.04,-0.482,0.902,-11.841,6.958,-30.03,
00:00:00:716,-0.044,-0.485,0.897,-14.588,8.667,-29.48,
00:00:00:733,-0.044,-0.484,0.901,-14.039,12.268,-27.588,
00:00:00:750,-0.046,-0.485,0.898,-30.335,9.887,-29.419,
00:00:00:766,-0.043,-0.485,0.898,-15.381,11.047,-29.541,
00:00:00:783,-0.044,-0.486,0.898,-16.48,11.84,-30.823,
00:00:00:800,-0.038,-0.487,0.899,-18.799,11.718,-29.297,
00:00:00:816,-0.039,-0.482,0.896,-16.785,12.695,-28.565,
00:00:00:833,-0.039,-0.483,0.899,-16.297,10.376,-28.26,
00:00:00:850,-0.041,-0.483,0.9,-15.931,12.329,-28.077,
00:00:00:866,-0.043,-0.483,0.898,-17.273,13,-28.016,
00:00:00:883,-0.041,-0.482,0.896,-18.189,9.582,-27.222,
00:00:00:900,-0.041,-0.485,0.898,-15.259,9.338,-28.87,
00:00:00:916,-0.04,-0.484,0.897,-14.527,11.84,-28.016,
00:00:00:933,-0.038,-0.484,0.897,-15.32,10.131,-28.443,
00:00:00:950,-0.041,-0.486,0.903,-15.625,9.582,-29.969,
00:00:00:966,-0.041,-0.487,0.895,-18.616,15.502,-29.419,
00:00:00:983,-0.039,-0.48,0.901,-21.058,11.657,-29.053,
00:00:01:0,-0.04,-0.48,0.895,-19.104,12.023,-29.908,
00:00:01:16,-0.043,-0.484,0.899,-14.222,12.39,-29.358,
00:00:01:33,-0.041,-0.485,0.898,-17.151,12.695,-30.274,
00:00:01:50,-0.042,-0.484,0.896,-14.344,12.268,-29.419,
00:00:01:66,-0.04,-0.486,0.897,-14.344,10.131,-28.992,
00:00:01:83,-0.041,-0.487,0.899,-13.062,12.329,-29.236,
00:00:01:100,-0.039,-0.485,0.897,-19.165,11.596,-29.847,
00:00:01:116,-0.04,-0.483,0.9,-18.86,11.84,-30.579,
00:00:01:133,-0.042,-0.481,0.899,-15.32,9.521,-31.983,
00:00:01:150,-0.041,-0.482,0.899,-15.076,9.094,-29.419,
00:00:01:166,-0.042,-0.484,0.901,-11.536,11.657,-31.617,
00:00:01:183,-0.041,-0.484,0.897,-12.94,10.131,-29.969,
00:00:01:200,-0.04,-0.489,0.893,-12.146,8.85,-28.626,
00:00:01:216,-0.041,-0.493,0.9,-13.672,10.62,-30.213,
00:00:01:233,-0.044,-0.488,0.899,-18.494,13.671,-29.053,
00:00:01:250,-0.044,-0.48,0.9,-20.569,15.014,-29.602,
00:00:01:266,-0.04,-0.476,0.898,-0.428,11.596,-30.213,
00:00:01:283,-0.042,-0.479,0.899,-8.545,8.117,-30.518,
00:00:01:300,-0.042,-0.488,0.897,-9.949,9.826,-31.739,
00:00:01:316,-0.039,-0.491,0.893,-14.893,9.948,-31.25,
00:00:01:333,-0.045,-0.489,0.9,-17.518,10.986,-30.335,
00:00:01:350,-0.041,-0.489,0.897,-13.916,8.239,-30.823,
00:00:01:366,-0.038,-0.485,0.897,-17.273,9.338,-28.992,
00:00:01:383,-0.038,-0.481,0.898,-16.114,11.779,-29.664,
00:00:01:400,-0.036,-0.481,0.894,-14.832,7.751,-29.48,
00:00:01:416,-0.042,-0.487,0.898,-14.039,10.681,-28.26,
00:00:01:433,-0.044,-0.481,0.899,-16.358,12.085,-28.26,
00:00:01:450,-0.046,-0.482,0.901,-16.48,12.695,-29.541,
00:00:01:466,-0.046,-0.489,0.896,-18.494,15.625,-28.565,
00:00:01:483,-0.044,-0.485,0.898,-20.752,15.625,-30.274,
00:00:01:500,-0.039,-0.483,0.9,-17.395,13.855,-29.297,
00:00:01:516,-0.04,-0.485,0.897,-13.733,13,-29.297,
00:00:01:533,-0.042,-0.484,0.898,-15.381,12.023,-29.053,
00:00:01:550,-0.044,-0.484,0.899,-14.161,8.3,-29.114,
00:00:01:566,-0.043,-0.485,0.9,-13.611,9.765,-28.687,
00:00:01:583,-0.04,-0.484,0.895,-18.311,11.535,-29.175,
00:00:01:600,-0.041,-0.484,0.898,-18.555,11.718,-31.006,
00:00:01:616,-0.038,-0.483,0.898,-15.992,10.803,-29.847,
00:00:01:633,-0.038,-0.483,0.898,-17.456,11.596,-29.969,
00:00:01:650,-0.042,-0.481,0.898,-13.611,10.559,-29.114,
00:00:01:666,-0.041,-0.482,0.901,-11.658,8.544,-29.602,
00:00:01:683,-0.044,-0.486,0.897,-10.926,8.789,-28.382,
00:00:01:700,-0.04,-0.488,0.896,-13.916,11.962,-29.969,
00:00:01:716,-0.043,-0.49,0.897,-18.372,10.986,-30.762,
00:00:01:733,-0.04,-0.485,0.898,-19.715,11.657,-30.762,
00:00:01:750,-0.038,-0.487,0.898,-23.255,10.742,-32.349,
00:00:01:766,-0.039,-0.482,0.898,-20.508,11.291,-31.861,
00:00:01:783,-0.039,-0.483,0.9,-19.349,9.277,-31.861,
00:00:01:800,-0.042,-0.482,0.901,-17.09,9.643,-30.884,
00:00:01:816,-0.046,-0.485,0.892,-12.818,9.826,-29.969,
00:00:01:833,-0.047,-0.487,0.9,-14.71,8.117,-30.274,
00:00:01:850,-0.043,-0.489,0.902,-18.311,8.422,-31.189,
00:00:01:866,-0.042,-0.488,0.897,-21.18,13.061,-31.006,
00:00:01:883,-0.041,-0.484,0.901,-20.325,11.169,-32.349,
00:00:01:900,-0.042,-0.483,0.897,-18.067,3.845,-33.57,
00:00:01:916,-0.042,-0.482,0.895,-18.616,9.399,-30.945,
00:00:01:933,-0.045,-0.479,0.899,-18.372,10.009,-30.884,
00:00:01:950,-0.042,-0.483,0.895,-18.006,7.751,-31.373,
00:00:01:966,-0.046,-0.483,0.897,-19.227,6.103,-32.105,
00:00:01:983,-0.045,-0.485,0.898,-16.175,7.934,-32.654,
00:00:02:0,-0.045,-0.488,0.9,-16.053,7.568,-32.776,
00:00:02:16,-0.044,-0.488,0.901,-16.968,10.131,-33.997,
00:00:02:33,-0.041,-0.491,0.898,-19.959,14.282,-30.335,
00:00:02:50,-0.049,-0.472,0.902,-18.25,12.207,-29.419,
00:00:02:66,-0.042,-0.48,0.899,-10.132,11.047,-30.335,
00:00:02:83,-0.044,-0.488,0.898,-16.175,10.925,-33.081,
00:00:02:100,-0.043,-0.483,0.898,-17.518,13.427,-30.396,
00:00:02:116,-0.045,-0.482,0.898,-12.269,7.446,-27.161,
00:00:02:133,-0.044,-0.488,0.895,-12.024,6.958,-26.551,
00:00:02:150,-0.043,-0.489,0.901,-14.222,8.178,-27.71,
00:00:02:166,-0.042,-0.479,0.898,-18.677,10.742,-26.795,
00:00:02:183,-0.041,-0.483,0.899,-15.442,6.958,-29.358,
00:00:02:200,-0.044,-0.485,0.903,-18.799,9.094,-27.588,
00:00:02:216,-0.047,-0.481,0.901,-18.799,13.794,-28.992,
00:00:02:233,-0.046,-0.482,0.901,-16.358,12.573,-29.908,
00:00:02:250,-0.048,-0.483,0.897,-16.114,12.573,-27.405,
00:00:02:266,-0.044,-0.487,0.896,-20.325,15.136,-26.734,
00:00:02:283,-0.042,-0.481,0.898,-18.982,13.183,-28.26,
00:00:02:300,-0.042,-0.484,0.895,-18.128,12.634,-29.053,
00:00:02:316,-0.043,-0.485,0.901,-17.762,11.596,-29.236,
00:00:02:333,-0.044,-0.482,0.899,-14.588,13.549,-28.382,
00:00:02:350,-0.045,-0.488,0.9,-16.602,10.437,-28.077,
00:00:02:366,-0.048,-0.484,0.896,-16.724,10.62,-28.321,
00:00:02:383,-0.046,-0.481,0.902,-19.593,13.549,-29.664,
00:00:02:400,-0.044,-0.481,0.901,-19.288,13.549,-28.382,
00:00:02:416,-0.042,-0.483,0.897,-17.701,12.329,-29.114,
00:00:02:433,-0.041,-0.483,0.899,-20.264,12.451,-29.48,
00:00:02:450,-0.048,-0.482,0.902,-12.94,13.549,-28.809,
00:00:02:466,-0.052,-0.49,0.901,-16.114,13.488,-31.311,
00:00:02:483,-0.064,-0.483,0.918,-19.532,26.733,-34.119,
00:00:02:500,-0.063,-0.492,0.915,-27.527,32.592,-30.701,
00:00:02:516,-0.054,-0.481,0.913,-38.758,48.584,-41.382,
00:00:02:533,-0.037,-0.502,0.897,-51.636,67.26,-49.866,
00:00:02:550,-0.032,-0.496,0.915,-87.769,73.852,-43.091,
00:00:02:566,-0.049,-0.441,0.92,-104.126,85.449,-32.41,
00:00:02:583,-0.03,-0.454,0.906,-75.013,71.167,-32.837,
00:00:02:600,-0.021,-0.477,0.902,-61.89,66.65,-28.748,
00:00:02:616,-0.016,-0.492,0.905,-82.825,78.735,-37.354,
00:00:02:633,-0.004,-0.481,0.896,-111.939,92.102,-36.988,
00:00:02:650,-0.003,-0.446,0.901,-115.784,94.543,-39.124,
00:00:02:666,-0.018,-0.442,0.913,-99.793,91.613,-38.269,
00:00:02:683,-0.036,-0.445,0.932,-84.961,98.999,-31.861,
00:00:02:700,-0.051,-0.453,0.955,-85.572,111.023,-27.161,
00:00:02:716,-0.058,-0.456,0.991,-106.324,138.061,-34.058,
00:00:02:733,-0.054,-0.453,1.033,-128.479,169.983,-49.927,
00:00:02:750,-0.078,-0.423,1.153,-121.521,221.374,-70.313,
00:00:02:766,-0.114,-0.41,1.407,-83.985,248.657,-91.248,
00:00:02:783,-0.089,-0.544,2.001,-45.105,167.724,-146.912,
00:00:02:800,0.005,-0.98,2.719,-65.125,-124.512,-286.683,
00:00:02:816,-0.068,-1.408,2.9,-208.558,-394.959,-414.124,
00:00:02:833,-0.369,-1.073,2.183,-420.044,-477.478,-479.248,
00:00:02:850,-0.082,-1.068,1.739,-880.31,-673.706,-666.871,
00:00:02:866,0.182,-1.376,1.389,-1172.608,-791.748,-1102.051,
00:00:02:883,1.055,-1.576,1.657,-1805.481,-694.275,-1293.091,
00:00:02:900,1.379,-1.203,1.738,-1438.599,-1086.792,-809.021,
00:00:02:916,1.281,-1.007,1.889,-873.414,-2000,-1367.066,
00:00:02:933,0.888,-1.457,1.806,-552.796,-2000,-1763.306,
00:00:02:950,0.797,-1.378,1.251,-967.713,-2000,-1811.402,
00:00:02:966,1.058,-0.981,0.435,-1185.242,-2000,-1671.875,
00:00:02:983,1.131,-0.458,-0.378,-1130.677,-2000,-1747.193,
00:00:03:0,0.58,0.691,-0.842,-904.908,-2000,-1677.43,
00:00:03:16,-0.261,0.848,0.405,-602.845,-2000,-1538.27,
00:00:03:33,0.156,1.052,-0.441,-532.776,-2000,-1661.377,
00:00:03:50,0.847,0.907,-1.118,-395.02,-1910.035,-1305.298,
00:00:03:66,0.04,1.905,-2.792,17.822,-1074.646,-845.093,
00:00:03:83,-0.845,3.226,-2.977,524.841,-7.996,-187.378,
00:00:03:100,-0.612,2.556,-1.992,786.132,1147.888,495.727,
00:00:03:116,0.246,1.075,-1.417,518.127,1942.016,907.837,
00:00:03:133,0.319,0.994,-1.252,350.83,1999.694,1407.287,
00:00:03:150,0.34,0.822,-0.994,651.55,1999.694,1726.989,
00:00:03:166,0.661,0.199,-0.587,983.276,1999.694,1806.884,
00:00:03:183,0.995,-0.357,-0.06,1151.184,1999.694,1711.853,
00:00:03:200,1.106,-0.788,0.527,1151.184,1999.694,1401.794,
00:00:03:216,0.877,-0.954,1.111,1758.789,1999.694,1153.564,
00:00:03:233,0.355,-0.49,1.166,1999.694,1999.694,1346.679,
00:00:03:250,-0.213,0.256,0.359,1991.943,1999.694,1654.541,
00:00:03:266,-0.18,-1.278,0.002,1999.694,1955.2,909.607,
00:00:03:283,0.305,-2.526,0.682,1825.744,1372.741,639.343,
00:00:03:300,0.093,-2.526,2.238,-274.17,1653.32,1151.428,
00:00:03:316,-0.293,-1.132,2.54,-1921.937,1976.989,1088.806,
00:00:03:333,-0.149,0.188,2.091,-1762.146,1911.499,850.219,
00:00:03:350,0.292,0.86,1.524,-183.594,1182.373,785.095,
00:00:03:366,0.341,0.143,1.311,1458.74,289.795,502.197,
00:00:03:383,0.117,-0.718,1.359,1822.57,-347.718,468.2,
00:00:03:400,0.009,0.024,1.324,-271.485,470.886,380.737,
00:00:03:416,0.157,-0.063,1.212,631.408,80.566,243.347,
00:00:03:433,0.111,-0.664,1.181,985.839,-272.889,109.314,
00:00:03:450,-0.143,-1.015,1.192,566.345,-191.407,36.438,
00:00:03:466,-0.297,-0.872,1.06,-144.349,121.765,87.158,
00:00:03:483,-0.107,-0.701,1.511,-349.488,54.809,37.353,
00:00:03:500,-0.204,-0.216,1.096,-249.024,71.106,56.335,
00:00:03:516,-0.125,-0.2,0.939,56.701,-30.396,20.019,
00:00:03:533,-0.028,-0.373,0.933,366.15,-140.87,-29.419,
00:00:03:550,-0.04,-0.567,0.845,312.072,-130.494,-31.373,
00:00:03:566,-0.024,-0.381,0.826,-191.468,78.491,-51.819,
00:00:03:583,0.012,-0.362,0.872,-91.187,52.795,-65.613,
00:00:03:600,0.004,-0.398,0.905,-12.513,35.4,-54.932,
00:00:03:616,-0.001,-0.436,0.921,-3.663,39.856,-51.575,
00:00:03:633,0.008,-0.404,0.987,-83.863,59.082,-35.584,
00:00:03:650,0.003,-0.36,0.986,-39.673,56.64,-27.1,
00:00:03:666,-0.022,-0.36,0.984,44.433,38.696,-27.71,
00:00:03:683,-0.049,-0.361,1.031,126.037,33.447,-21.546,
00:00:03:700,-0.086,-0.341,1.068,223.022,27.954,-8.728,
00:00:03:716,-0.16,-0.363,1.017,307.312,38.635,6.53,
00:00:03:733,-0.235,-0.385,0.911,350.097,61.34,32.226,
00:00:03:750,-0.28,-0.367,0.858,297.79,78.125,91.552,
00:00:03:766,-0.256,-0.29,0.877,302.246,66.162,132.629,
00:00:03:783,-0.199,-0.298,1.005,467.102,11.657,152.16,
00:00:03:800,-0.246,-0.318,0.944,717.895,-51.331,174.011,
00:00:03:816,-0.259,-0.398,0.916,1054.931,-73.365,197.631,
00:00:03:833,-0.143,-0.48,0.926,1391.906,-162.11,149.658,
00:00:03:850,-0.068,-0.574,0.778,1717.285,-199.585,107.116,
00:00:03:866,-0.047,-0.602,0.599,1910.217,-239.93,69.03,
00:00:03:883,-0.05,-0.749,0.545,1939.819,-296.082,36.377,
00:00:03:900,-0.055,-0.891,0.484,1775.756,-261.231,54.443,
00:00:03:916,-0.026,-0.984,0.378,1485.168,-199.402,48.889,
00:00:03:933,0.006,-0.962,0.322,1140.93,-125.855,82.397,
00:00:03:950,0.062,-0.995,0.349,864.318,-94.178,91.003,
00:00:03:966,0.093,-0.989,0.415,538.025,-71.473,116.577,
00:00:03:983,0.154,-0.907,0.5,350.708,-51.575,137.756,
00:00:04:0,0.182,-0.881,0.508,393.432,-59.876,110.717,
00:00:04:16,0.234,-1.074,0.449,510.864,-102.906,49.621,
00:00:04:33,0.177,-1.343,0.367,407.898,-101.197,-24.476,
00:00:04:50,0.079,-1.214,0.354,103.942,8.544,-38.453,
00:00:04:66,0.083,-0.96,0.367,3.784,68.664,-18.86,
00:00:04:83,0.091,-0.882,0.368,72.57,75.195,-9.156,
00:00:04:100,0.083,-0.94,0.379,101.867,75.378,-1.038,
00:00:04:116,0.083,-0.976,0.386,13.183,79.528,-3.663,
00:00:04:133,0.075,-0.955,0.371,-135.01,89.721,19.714,
00:00:04:150,0.078,-0.9,0.329,-147.278,141.357,-1.038,
00:00:04:166,0.072,-0.904,0.375,-96.192,127.319,-9.278,
00:00:04:183,0.051,-0.901,0.406,-81.971,103.515,-7.935,
00:00:04:200,0.041,-0.893,0.441,-76.539,80.139,6.347,
00:00:04:216,0.043,-0.901,0.468,-58.411,45.776,14.465,
00:00:04:233,0.046,-0.934,0.433,-53.772,24.414,8.606,
00:00:04:250,0.041,-0.969,0.375,-47.669,23.315,2.014,
00:00:04:266,0.051,-0.966,0.41,-31.617,23.62,-16.48,
00:00:04:283,0.064,-0.912,0.432,2.99,17.822,-25.94,
00:00:04:300,0.035,-0.937,0.389,33.63,5.615,-39.307,
00:00:04:316,-0.005,-0.906,0.409,26.733,17.028,-26.612,
00:00:04:333,0.018,-0.93,0.391,17.761,24.658,-40.65,
00:00:04:350,0.037,-0.927,0.387,-9.766,30.395,-39.246,
00:00:04:366,0.042,-0.918,0.382,-29.908,33.874,-45.105,
00:00:04:383,0.04,-0.897,0.382,-29.969,38.757,-45.96,
00:00:04:400,0.042,-0.902,0.388,-15.87,34.484,-48.829,
00:00:04:416,0.044,-0.92,0.389,-13.001,38.452,-51.514,
00:00:04:433,0.041,-0.927,0.402,-19.776,28.442,-51.636,
00:00:04:450,0.058,-0.923,0.4,-22.217,21.789,-53.162,
00:00:04:466,0.064,-0.934,0.387,-17.64,15.014,-60.73,
00:00:04:483,0.045,-0.935,0.388,-13.245,6.836,-63.355,
00:00:04:500,0.041,-0.936,0.389,-20.935,3.662,-71.9,
00:00:04:516,0.03,-0.93,0.378,-36.744,10.925,-66.468,
00:00:04:533,0.037,-0.928,0.399,-38.575,12.451,-62.745,
00:00:04:550,0.047,-0.946,0.385,-42.603,12.817,-58.594,
00:00:04:566,0.047,-0.939,0.387,-38.758,17.822,-59.388,
00:00:04:583,0.048,-0.94,0.383,-64.27,11.413,-55.787,
00:00:04:600,0.024,-0.922,0.401,-105.896,19.592,-48.157,
00:00:04:616,0.035,-0.951,0.397,-123.536,28.32,-54.932,
00:00:04:633,0.041,-0.949,0.409,-115.479,42.724,-52.552,
00:00:04:650,0.058,-0.959,0.398,-90.21,41.809,-78.675,
00:00:04:666,0.065,-0.954,0.395,-72.693,45.837,-84.351,
00:00:04:683,0.083,-0.936,0.395,-70.435,61.096,-91.065,
00:00:04:700,0.083,-0.931,0.381,-77.515,68.298,-100.281,
00:00:04:716,0.048,-0.924,0.383,-77.027,76.11,-98.633,
00:00:04:733,0.016,-0.916,0.394,-65.43,93.933,-96.558,
00:00:04:750,0.001,-0.905,0.406,-75.501,106.811,-95.093,
00:00:04:766,-0.003,-0.876,0.461,-94.91,105.651,-91.919,
00:00:04:783,0.011,-0.913,0.486,-91.858,91.186,-91.431,
00:00:04:800,0.016,-0.92,0.505,-58.838,67.443,-87.525,
00:00:04:816,0.006,-0.906,0.485,1.464,48.95,-85.816,
00:00:04:833,-0.003,-0.879,0.461,57.128,36.01,-87.403,
00:00:04:850,-0.004,-0.912,0.469,79.589,28.259,-82.947,
00:00:04:866,0.007,-0.942,0.486,34.179,24.414,-77.881,
00:00:04:883,0.012,-0.948,0.509,-16.297,17.7,-71.9,
00:00:04:900,0.009,-0.966,0.509,-65.552,12.756,-72.449,
00:00:04:916,0.031,-0.946,0.495,-49.622,11.474,-73.731,
00:00:04:933,0.013,-0.923,0.477,30.151,0.732,-79.651,
00:00:04:950,0.014,-0.921,0.477,112.609,-23.011,-94.727,
00:00:04:966,-0.018,-0.939,0.471,153.503,-33.753,-108.094,
00:00:04:983,-0.026,-0.966,0.471,169.128,-30.274,-130.86,
00:00:05:0,-0.028,-1.006,0.502,146.057,-36.499,-154.053,
00:00:05:16,-0.067,-1.042,0.491,77.697,-19.776,-176.087,
00:00:05:33,-0.082,-1.081,0.485,-11.109,4.699,-197.266,
00:00:05:50,-0.112,-1.088,0.369,-68.36,48.828,-226.197,
00:00:05:66,-0.105,-1.18,0.453,-110.779,49.072,-269.776,
00:00:05:83,-0.159,-1.158,0.469,-245.301,62.377,-295.289,
00:00:05:100,-0.19,-1.119,0.531,-309.144,73.913,-323.548,
00:00:05:116,-0.157,-1.145,0.566,-333.252,36.499,-384.034,
00:00:05:133,-0.182,-1.151,0.564,-406.678,7.934,-412.232,
00:00:05:150,-0.212,-1.143,0.541,-502.991,10.62,-446.9,
00:00:05:166,-0.22,-1.08,0.532,-592.835,30.151,-455.506,
00:00:05:183,-0.232,-1.021,0.526,-617.92,34.79,-484.559,
00:00:05:200,-0.223,-0.992,0.554,-623.536,23.437,-504.517,
00:00:05:216,-0.218,-0.982,0.568,-649.048,4.455,-530.64,
00:00:05:233,-0.226,-0.953,0.557,-718.384,1.77,-542.359,
00:00:05:250,-0.241,-0.927,0.561,-786.438,4.272,-560.669,
00:00:05:266,-0.237,-0.873,0.553,-850.769,12.085,-575.928,
00:00:05:283,-0.224,-0.793,0.554,-896.363,16.479,-580.018,
00:00:05:300,-0.218,-0.735,0.583,-938.66,10.986,-575.379,
00:00:05:316,-0.216,-0.711,0.6,-940.674,-3.846,-578.675,
00:00:05:333,-0.232,-0.679,0.614,-918.03,-14.71,-576.05,
00:00:05:350,-0.239,-0.617,0.64,-872.62,-22.583,-564.209,
00:00:05:366,-0.245,-0.543,0.667,-827.271,-31.861,-548.829,
00:00:05:383,-0.259,-0.49,0.672,-815.735,-45.594,-529.541,
00:00:05:400,-0.271,-0.475,0.662,-840.088,-51.636,-503.418,
00:00:05:416,-0.284,-0.471,0.66,-902.771,-41.81,-471.985,
00:00:05:433,-0.285,-0.456,0.666,-1019.043,-34.913,-438.904,
00:00:05:450,-0.307,-0.406,0.676,-1186.829,-4.395,-399.17,
00:00:05:466,-0.317,-0.286,0.681,-1350.464,57.556,-339.966,
00:00:05:483,-0.301,-0.182,0.68,-1415.65,100.952,-292.786,
00:00:05:500,-0.305,-0.14,0.663,-1363.77,124.145,-279.236,
00:00:05:516,-0.332,-0.134,0.68,-1317.811,151.245,-268.006,
00:00:05:533,-0.351,-0.111,0.696,-1305.726,229.37,-261.17,
00:00:05:550,-0.348,-0.009,0.721,-1291.81,349.975,-248.108,saltLH
00:00:05:566,-0.312,0.028,0.733,-1265.198,400.085,-266.175,
00:00:05:583,-0.306,0.058,0.813,-1268.738,457.641,-286.805,
00:00:05:600,-0.272,0.046,0.869,-1364.014,479.004,-322.51,
00:00:05:616,-0.296,0.128,0.907,-1434.082,572.937,-364.563,
00:00:05:633,-0.219,0.34,0.884,-1350.22,616.516,-401.307,
00:00:05:650,-0.169,0.449,0.9,-1097.046,567.505,-401.49,
00:00:05:666,-0.062,0.453,0.965,-879.334,457.885,-339.661,
00:00:05:683,0.026,0.443,1.065,-696.045,342.102,-232.056,
00:00:05:700,0.021,0.58,1.205,-433.838,183.166,-83.619,
00:00:05:716,0.014,0.631,1.284,-92.347,-50.965,82.702,
00:00:05:733,-0.068,0.398,1.196,189.697,-302.613,200.5,
00:00:05:750,-0.182,0.172,0.972,247.07,-402.71,289.734,
00:00:05:766,-0.198,0.095,0.753,277.526,-438.904,324.768,
00:00:05:783,-0.272,0.028,0.56,352.295,-349.305,249.817,
00:00:05:800,-0.389,0.039,0.663,271.118,-124.939,60.546,
00:00:05:816,-0.354,0.005,0.833,-22.828,163.696,-200.257,
00:00:05:833,-0.332,-0.043,0.895,-361.451,448.059,-460.816,
00:00:05:850,-0.299,0.191,0.963,-739.624,698.12,-616.7,
00:00:05:866,-0.171,0.421,0.829,-848.267,713.317,-639.832,
00:00:05:883,-0.166,0.573,0.709,-690.552,642.7,-557.74,
00:00:05:900,-0.009,0.767,0.749,-408.997,512.329,-375.733,
00:00:05:916,0.161,0.788,1.114,-150.452,306.579,-171.631,
00:00:05:933,0.149,0.663,1.3,69.091,51.147,31.494,
00:00:05:950,-0.056,0.47,1.258,237.793,-149.72,194.152,
00:00:05:966,-0.097,0.354,1.06,430.42,-304.749,308.044,
00:00:05:983,-0.16,0.171,0.814,537.841,-352.662,272.155,
00:00:06:0,-0.22,0.105,0.734,411.071,-217.591,107.422,
00:00:06:16,-0.266,0.072,0.78,82.275,65.795,-179.2,
00:00:06:33,-0.238,0.083,0.881,-332.947,403.625,-463.501,
00:00:06:50,-0.124,0.319,0.936,-827.698,647.583,-574.891,
00:00:06:66,-0.031,0.653,0.848,-898.072,650.695,-538.819,
00:00:06:83,0.009,0.768,0.77,-594.239,478.82,-406.617,
00:00:06:100,0.067,0.799,0.872,-176.941,294.25,-233.094,
00:00:06:116,0.152,0.868,1.162,134.704,116.638,12.878,
00:00:06:133,0.14,0.654,1.154,436.401,-149.231,191.04,
00:00:06:150,-0.037,0.331,1.113,518.676,-354.981,321.106,
00:00:06:166,-0.118,0.228,0.961,500.366,-416.321,395.202,
00:00:06:183,-0.182,0.103,0.761,509.704,-411.866,320.251,
00:00:06:200,-0.234,0.054,0.692,386.474,-239.685,131.652,
00:00:06:216,-0.271,0.037,0.716,96.496,49.194,-135.01,
00:00:06:233,-0.261,0.085,0.789,-304.566,358.642,-365.479,
00:00:06:250,-0.171,0.369,0.814,-662.72,604.675,-454.041,
00:00:06:266,-0.073,0.588,0.756,-638.916,592.102,-427.185,
00:00:06:283,-0.027,0.646,0.777,-390.32,457.763,-317.383,
00:00:06:300,0.078,0.669,0.965,-129.273,301.147,-165.284,
00:00:06:316,0.187,0.724,1.149,107.666,99.06,56.579,
00:00:06:333,0.112,0.512,1.083,330.444,-164.734,212.768,
00:00:06:350,-0.069,0.291,1.009,450.683,-299.256,321.472,
00:00:06:366,-0.098,0.182,0.914,492.614,-337.891,297.485,
00:00:06:383,-0.108,0.082,0.907,349.609,-228.211,121.765,
00:00:06:400,-0.121,0.059,0.892,32.348,-13.245,-80.872,
00:00:06:416,-0.163,0.054,0.837,-291.626,253.54,-290.65,
00:00:06:433,-0.076,0.342,0.882,-556.702,425.354,-409.607,
00:00:06:450,0.022,0.493,0.841,-596.802,401.794,-405.152,
00:00:06:466,0.032,0.526,0.864,-473.633,294.86,-319.947,
00:00:06:483,0.075,0.687,0.956,-259.156,182.922,-154.847,
00:00:06:500,0.159,0.827,1.03,50.048,-36.622,80.871,
00:00:06:516,0.12,0.674,1.081,365.844,-279.114,288.818,
00:00:06:533,-0.008,0.454,0.985,549.865,-406.189,390.38,
00:00:06:550,-0.069,0.339,0.883,573.425,-387.696,363.22,
00:00:06:566,-0.079,0.196,0.842,428.466,-274.72,211.975,
00:00:06:583,-0.134,0.046,0.803,43.701,-1.221,1.037,
00:00:06:600,-0.157,0.132,0.817,-400.269,308.471,-168.885,
00:00:06:616,0.002,0.277,0.795,-572.815,413.33,-269.349,
00:00:06:633,0.058,0.319,0.855,-505.372,395.996,-286.438,
00:00:06:650,0.101,0.459,0.925,-317.505,314.758,-222.474,
00:00:06:666,0.152,0.618,1.03,-18.128,144.287,-101.075,
00:00:06:683,0.128,0.596,1.131,287.475,-47.852,36.377,
00:00:06:700,0.087,0.469,1.16,474.365,-251.282,174.621,
00:00:06:716,-0.004,0.323,1.023,539.245,-386.109,264.77,
00:00:06:733,-0.206,0.232,0.931,483.337,-426.697,243.713,
00:00:06:750,-0.266,0.136,0.933,249.817,-323.548,153.381,
00:00:06:766,-0.251,0.113,0.923,-35.401,-137.94,22.033,
00:00:06:783,-0.213,0.18,0.953,-263.672,37.841,-119.69,
00:00:06:800,-0.103,0.297,0.94,-361.084,118.408,-209.229,
00:00:06:816,-0.067,0.332,0.939,-339.234,104.675,-236.695,
00:00:06:833,-0.042,0.407,0.997,-278.992,67.504,-191.346,
00:00:06:850,-0.002,0.547,1.05,-128.235,-13.428,-122.193,
00:00:06:866,0.061,0.607,1.107,71.838,-154.297,2.197,
00:00:06:883,0.022,0.509,1.104,282.959,-317.994,108.459,
00:00:06:900,-0.008,0.404,1.029,424.377,-444.764,200.744,
00:00:06:916,-0.039,0.304,0.927,482.971,-546.143,279.785,
00:00:06:933,-0.091,0.186,0.812,463.44,-604.981,313.964,
00:00:06:950,-0.2,0.085,0.628,455.81,-584.046,285.949,
00:00:06:966,-0.336,0.098,0.559,322.631,-404.48,170.654,
00:00:06:983,-0.349,0.159,0.691,83.984,-81.727,-49.683,
00:00:07:0,-0.268,0.105,0.827,-194.275,189.575,-289.368,
00:00:07:16,-0.233,0.121,0.819,-508.24,497.192,-496.399,
00:00:07:33,-0.21,0.281,0.803,-739.014,710.693,-629.212,
00:00:07:50,-0.095,0.419,0.838,-770.935,735.473,-630.982,
00:00:07:66,-0.007,0.63,0.84,-578.98,653.93,-518.494,
00:00:07:83,0.096,0.817,0.895,-258.24,493.042,-319.275,
00:00:07:100,0.225,0.823,1.15,34.179,247.863,-85.633,
00:00:07:116,0.282,0.64,1.316,241.394,-22.644,121.765,
00:00:07:133,0.112,0.411,1.227,376.953,-242.554,285.766,
00:00:07:150,-0.023,0.395,1.194,522.338,-399.537,414.611,
00:00:07:166,-0.056,0.245,1.103,698.181,-599.549,474.365,
00:00:07:183,-0.213,0.013,0.948,713.684,-675.721,445.739,
00:00:07:200,-0.315,-0.039,0.828,521.667,-554.932,334.289,
00:00:07:216,-0.37,0.012,0.785,263.061,-315.43,114.074,
00:00:07:233,-0.365,0.042,0.822,-40.955,-44.434,-124.39,
00:00:07:250,-0.31,0.071,0.886,-344.727,249.694,-372.498,
00:00:07:266,-0.226,0.297,0.953,-581.788,476.867,-537.598,
00:00:07:283,-0.122,0.402,0.951,-714.661,510.315,-582.947,
00:00:07:300,-0.089,0.512,0.847,-663.147,449.34,-513.062,
00:00:07:316,-0.063,0.655,0.788,-447.083,345.337,-364.624,
00:00:07:333,0.065,0.791,0.93,-142.762,189.697,-153.687,
00:00:07:350,0.164,0.673,1.123,102.966,-33.875,54.687,
00:00:07:366,0.057,0.488,1.205,268.676,-226.502,214.416,
00:00:07:383,-0.056,0.386,1.08,362.365,-348.328,332.58,
00:00:07:400,-0.133,0.221,0.9,433.532,-408.509,336.67,
00:00:07:416,-0.22,0.142,0.811,311.462,-281.556,212.036,
00:00:07:433,-0.195,0.119,0.869,-18.982,-49.5,46.264,
00:00:07:450,-0.139,0.096,0.892,-353.211,214.233,-162.72,
00:00:07:466,-0.137,0.173,0.822,-562.317,432.861,-344.788,
00:00:07:483,-0.054,0.314,0.894,-732.972,561.584,-462.342,
00:00:07:500,0.08,0.368,0.92,-782.166,550.293,-455.201,
00:00:07:516,0.112,0.509,0.913,-641.724,451.11,-384.522,
00:00:07:533,0.185,0.666,0.93,-377.625,281.677,-223.572,
00:00:07:550,0.244,0.731,1.017,-45.716,68.969,-48.584,
00:00:07:566,0.226,0.642,1.145,256.713,-159.668,144.714,
00:00:07:583,0.14,0.523,1.169,474.975,-363.099,305.236,
00:00:07:600,0.004,0.357,1.048,594.665,-534.79,405.761,
00:00:07:616,-0.116,0.204,0.879,602.356,-584.717,430.175,
00:00:07:633,-0.18,0.116,0.746,541.931,-510.437,357.849,
00:00:07:650,-0.217,0.101,0.703,439.514,-338.746,213.684,
00:00:07:666,-0.223,0.104,0.708,309.387,-142.579,25.756,
00:00:07:683,-0.247,0.056,0.718,90.393,75.134,-161.683,
00:00:07:700,-0.257,0.078,0.748,-174.134,325.256,-354.676,
00:00:07:716,-0.187,0.18,0.833,-444.214,510.986,-486.573,
00:00:07:733,-0.093,0.255,0.958,-622.986,591.064,-572.51,
00:00:07:750,-0.023,0.401,0.966,-701.416,579.284,-555.054,
00:00:07:766,0.043,0.566,0.876,-578.797,462.28,-441.407,
00:00:07:783,0.149,0.768,0.913,-325.135,284.484,-267.701,
00:00:07:800,0.239,0.791,1.031,-46.021,71.899,-67.139,
00:00:07:816,0.206,0.596,1.193,172.302,-145.508,100.769,
00:00:07:833,0.116,0.498,1.244,353.942,-310.791,242.37,
00:00:07:850,0.025,0.384,1.122,490.966,-456.727,332.092,
00:00:07:866,-0.039,0.269,0.899,562.866,-524.292,361.45,
00:00:07:883,-0.146,0.168,0.694,527.649,-468.445,291.32,
00:00:07:900,-0.309,0.116,0.618,364.074,-260.437,108.642,
00:00:07:916,-0.321,0.117,0.74,-1.282,62.988,-117.371,
00:00:07:933,-0.179,0.092,0.912,-395.325,388.427,-355.225,
00:00:07:950,-0.09,0.218,1.003,-741.089,627.441,-538.88,
00:00:07:966,0.019,0.389,1.025,-973.45,681.884,-613.831,
00:00:07:983,0.047,0.508,0.857,-919.129,589.599,-536.255,
00:00:08:0,0.094,0.67,0.686,-592.957,433.166,-389.161,
00:00:08:16,0.246,0.938,0.801,-147.034,242.126,-141.48,
00:00:08:33,0.368,0.918,1.148,301.025,-49.5,131.836,
00:00:08:50,0.28,0.525,1.158,586.425,-371.888,323.181,
00:00:08:66,0.061,0.413,1.181,656.067,-511.231,474.426,
00:00:08:83,-0.007,0.306,0.998,751.037,-667.359,584.045,
00:00:08:100,-0.094,0.11,0.778,844.482,-704.041,523.193,
00:00:08:116,-0.198,0.044,0.659,775.817,-545.411,368.042,
00:00:08:133,-0.247,0.054,0.736,513.061,-243.287,104.126,
00:00:08:150,-0.197,-0.003,0.877,60.058,70.129,-149.292,
00:00:08:166,-0.156,0.023,0.93,-452.332,408.325,-388.489,
00:00:08:183,-0.076,0.305,0.991,-853.577,613.647,-521.668,
00:00:08:200,-0.001,0.36,0.933,-958.436,592.102,-541.321,
00:00:08:216,0.001,0.439,0.769,-800.415,475.586,-457.825,
00:00:08:233,0.076,0.732,0.713,-438.904,370.422,-291.626,
00:00:08:250,0.251,1.013,0.976,65.002,127.014,-27.222,
00:00:08:266,0.327,0.806,1.188,507.995,-213.807,214.782,
00:00:08:283,0.125,0.414,1.093,730.407,-473.633,364.257,
00:00:08:300,-0.087,0.28,0.961,721.618,-531.922,447.692,
00:00:08:316,-0.171,0.217,0.807,633.972,-460.816,384.948,
00:00:08:333,-0.177,0.147,0.829,423.889,-231.751,213.989,
00:00:08:350,-0.115,0.055,0.92,132.385,23.742,16.235,
00:00:08:366,-0.118,-0.026,0.932,-226.502,294.922,-216.98,
00:00:08:383,-0.116,0.177,0.932,-621.155,528.259,-339.6,
00:00:08:400,-0.002,0.272,0.901,-811.646,562.805,-365.601,
00:00:08:416,0.05,0.48,0.838,-737.305,482.238,-293.152,
00:00:08:433,0.134,0.681,0.827,-443.543,334.167,-141.358,
00:00:08:450,0.26,0.857,0.997,6.286,71.106,99.121,
00:00:08:466,0.29,0.69,1.066,417.419,-213.135,292.175,
00:00:08:483,0.137,0.46,1.114,705.749,-454.102,446.777,
00:00:08:500,0.028,0.321,0.953,863.708,-626.77,575.561,
00:00:08:516,-0.083,0.172,0.741,971.862,-721.863,571.411,
00:00:08:533,-0.226,-0.003,0.602,880.615,-624.024,426.025,
00:00:08:550,-0.351,-0.107,0.714,466.613,-306.58,199.524,
00:00:08:566,-0.282,-0.135,0.875,-44.19,82.58,-31.495,
00:00:08:583,-0.25,-0.072,0.925,-399.231,353.393,-255.555,
00:00:08:600,-0.269,0.05,0.95,-686.097,550.476,-415.284,
00:00:08:616,-0.24,0.194,0.908,-812.317,580.139,-479.92,
00:00:08:633,-0.234,0.316,0.837,-750.367,548.95,-463.929,
00:00:08:650,-0.15,0.519,0.81,-580.506,428.283,-353.455,
00:00:08:666,-0.006,0.726,0.959,-306.519,260.681,-168.641,
00:00:08:683,0.082,0.746,1.172,57.983,-15.137,42.785,
00:00:08:700,0.025,0.561,1.237,314.27,-262.207,247.741,
00:00:08:716,-0.073,0.42,1.233,485.229,-460.572,409.729,
00:00:08:733,-0.056,0.257,1.074,645.813,-633.118,497.558,
00:00:08:750,-0.116,0.115,0.944,746.643,-660.157,449.463,
00:00:08:766,-0.192,-0.01,0.903,694.946,-521.302,259.216,
00:00:08:783,-0.195,-0.07,0.985,458.191,-285.645,0.122,
00:00:08:800,-0.127,-0.138,1.022,38.086,10.009,-226.014,
00:00:08:816,-0.138,-0.031,1.039,-427.491,319.702,-439.27,
00:00:08:833,-0.05,0.209,1.018,-864.136,498.596,-520.447,
00:00:08:850,0.012,0.356,0.936,-959.351,470.52,-510.621,
00:00:08:866,0.049,0.411,0.857,-885.804,365.783,-436.585,
00:00:08:883,0.125,0.661,0.936,-671.631,287.414,-269.104,
00:00:08:900,0.21,0.948,1.071,-260.498,98.693,-14.405,
00:00:08:916,0.217,0.798,1.105,252.685,-208.558,186.401,
00:00:08:933,0.078,0.558,1.071,575.256,-393.128,367.736,
00:00:08:950,-0.015,0.368,0.919,710.632,-508.789,475.28,
00:00:08:966,-0.103,0.213,0.776,688.232,-511.597,451.477,
00:00:08:983,-0.167,0.073,0.754,472.412,-378.296,328.613,
00:00:09:0,-0.178,-0.02,0.834,82.763,-101.929,131.042,
00:00:09:16,-0.162,-0.01,0.863,-236.451,170.044,-78.431,
00:00:09:33,-0.166,0.1,0.946,-507.142,372.009,-246.827,
00:00:09:50,-0.132,0.221,0.961,-697.022,456.421,-318.543,
00:00:09:66,-0.122,0.291,0.875,-677.185,415.405,-315.003,
00:00:09:83,-0.132,0.464,0.819,-503.479,343.322,-245.362,
00:00:09:100,-0.105,0.419,1.235,338.44,-202.759,167.602,
00:00:09:116,-0.177,0.309,1.171,490.417,-335.144,265.991,
00:00:09:133,-0.233,0.206,0.991,600.158,-470.826,310.608,
00:00:09:150,-0.269,0.063,0.879,618.652,-532.776,287.719,
00:00:09:166,-0.278,-0.057,0.823,525.817,-501.709,196.899,
00:00:09:183,-0.31,-0.034,0.841,-172.547,70.983,-348.572,
00:00:09:200,-0.228,0.078,0.909,-362.793,272.277,-519.104,
00:00:09:216,-0.194,0.228,0.954,-506.287,361.755,-649.353,
00:00:09:233,-0.235,0.246,0.886,-594.117,403.747,-711.487,
00:00:09:250,-0.215,0.39,0.86,-690.796,427.673,-685.12,
00:00:09:266,0.127,0.889,1.172,-97.535,-80.933,-56.58,
00:00:09:283,0.06,0.735,1.28,178.039,-288.331,170.166,
00:00:09:300,0.004,0.666,1.235,364.013,-485.779,398.986,
00:00:09:316,-0.061,0.494,1.104,524.719,-666.993,539.367,
00:00:09:333,-0.152,0.278,0.947,600.463,-765.076,565.796,
00:00:09:350,-0.271,-0.041,0.715,35.034,-119.08,26.245,
00:00:09:366,-0.208,-0.043,0.777,-253.235,217.956,-261.902,
00:00:09:383,-0.221,0.009,0.774,-522.278,527.099,-490.479,
00:00:09:400,-0.206,0.187,0.822,-757.325,721.984,-662.171,
00:00:09:416,-0.156,0.301,0.829,-918.519,788.635,-700.928,
00:00:09:433,0.201,0.996,0.966,-302.735,375.61,-151.795,
00:00:09:450,0.255,0.94,1.239,92.468,69.03,158.386,
00:00:09:466,0.161,0.671,1.287,405.639,-268.799,410.461,
00:00:09:483,-0.056,0.419,1.064,560.485,-460.328,592.773,
00:00:09:500,-0.224,-0.036,0.698,604.248,-629.639,575.561,
00:00:09:516,-0.352,-0.049,0.635,344.055,-357.422,331.726,
00:00:09:533,-0.344,-0.013,0.734,24.108,-39.124,39.733,
00:00:09:550,-0.275,-0.003,0.818,-268.128,270.507,-209.351,
00:00:09:566,-0.246,0.162,0.886,-499.146,521.789,-436.158,saltLH
00:00:09:583,-0.197,0.303,0.917,-699.707,610.962,-532.654,
00:00:09:600,-0.181,0.363,0.906,-766.785,586.181,-545.35,
00:00:09:616,-0.149,0.506,0.763,-708.313,536.132,-435.547,
00:00:09:633,-0.014,0.825,0.761,-430.787,424.316,-246.949,
00:00:09:650,0.132,1.026,1.036,-70.252,198.608,37.353,
00:00:09:666,-0.025,0.478,1.165,446.289,-325.379,456.115,
00:00:09:683,-0.129,0.417,1.077,561.645,-458.558,594.238,
00:00:09:700,-0.151,0.238,0.888,693.298,-595.826,642.7,
00:00:09:716,-0.214,0.025,0.68,723.327,-589.417,539.672,
00:00:09:733,-0.352,-0.063,0.598,512.695,-344.727,294.25,
00:00:09:750,-0.361,0,0.772,55.664,51.574,-30.274,
00:00:09:766,-0.219,0.036,0.98,-384.156,384.277,-321.717,
00:00:09:783,-0.148,0.224,1.144,-795.166,618.164,-555.481,
00:00:09:800,-0.1,0.45,1.197,-1096.253,632.873,-599.366,
00:00:09:816,-0.149,0.489,0.913,-1106.568,477.661,-471.436,
00:00:09:833,-0.183,0.608,0.595,-755.921,384.46,-365.601,
00:00:09:850,-0.001,0.932,0.742,-266.663,269.165,-152.161,
00:00:09:866,0.076,0.61,1.155,423.828,-243.836,306.091,
00:00:09:883,-0.112,0.365,1.105,506.836,-379.7,446.35,
00:00:09:900,-0.283,0.08,0.729,259.216,-194.825,157.043,
00:00:09:916,-0.244,0.077,0.81,-65.491,39.672,-61.097,
00:00:09:933,-0.244,0.118,0.86,-327.881,290.1,-297.242,
00:00:09:950,-0.227,0.307,0.963,-560.669,461.853,-473.755,
00:00:09:966,-0.147,0.411,0.984,-756.836,477.417,-521.424,
00:00:09:983,-0.16,0.429,0.864,-805.542,439.758,-494.812,
00:00:10:0,-0.107,0.586,0.767,-714.966,363.769,-396.485,
00:00:10:16,0.033,0.953,0.807,-454.224,228.759,-164.978,
00:00:10:33,0.139,1.053,0.98,-31.189,-19.227,97.9,
00:00:10:50,0.073,0.778,1.082,372.436,-267.701,340.149,
00:00:10:66,-0.04,0.58,1.067,585.083,-450.684,517.822,
00:00:10:83,-0.132,0.382,0.924,701.599,-579.529,607.605,
00:00:10:100,-0.249,0.193,0.674,737.365,-580.628,557.373,
00:00:10:116,-0.329,0.068,0.545,620.239,-408.753,365.051,
00:00:10:133,-0.358,0.073,0.633,216.858,-51.575,85.388,
00:00:10:150,-0.253,0.177,0.776,-184.266,277.16,-169.922,
00:00:10:166,-0.219,0.264,0.831,-503.724,546.386,-395.081,
00:00:10:183,-0.212,0.433,0.93,-734.498,682.373,-561.036,
00:00:10:200,-0.139,0.449,1.002,-957.276,675.476,-543.641,
00:00:10:216,-0.081,0.432,0.846,-955.933,585.022,-493.47,
00:00:10:233,0.009,0.62,0.65,-703.309,485.534,-361.268,
00:00:10:250,0.163,1.106,0.777,-224.06,329.101,-87.464,
00:00:10:266,0.283,1.153,1.087,282.898,-1.77,211.059,
00:00:10:283,0.177,0.597,1.078,639.221,-338.318,411.804,
00:00:10:300,-0.074,0.336,1.004,670.227,-428.284,527.588,
00:00:10:316,-0.144,0.292,0.876,655.395,-488.343,586.792,
00:00:10:333,-0.203,0.178,0.668,653.442,-471.192,496.765,
00:00:10:350,-0.351,0.098,0.603,513.244,-281.434,289.428,
00:00:10:366,-0.332,0.111,0.723,173.217,20.202,38.696,
00:00:10:383,-0.223,0.187,0.899,-193.726,276.001,-200.806,
00:00:10:400,-0.12,0.332,1.048,-532.654,463.501,-378.174,
00:00:10:416,-0.079,0.413,1.08,-762.452,487.426,-449.891,
00:00:10:433,-0.109,0.397,0.876,-833.802,463.684,-463.379,
00:00:10:450,-0.049,0.528,0.671,-720.581,416.748,-406.678,
00:00:10:466,0.093,0.908,0.803,-418.641,327.209,-236.573,
00:00:10:483,0.237,1.056,1.069,1.098,55.786,23.559,
00:00:10:500,0.174,0.75,1.123,332.519,-207.581,247.497,
00:00:10:516,0.021,0.559,1.074,526.55,-364.502,401.367,
00:00:10:533,-0.093,0.413,0.906,645.202,-477.601,466.858,
00:00:10:550,-0.183,0.255,0.792,642.578,-461.243,408.264,
00:00:10:566,-0.277,0.126,0.686,513.61,-309.998,228.576,
00:00:10:583,-0.334,0.105,0.729,201.721,-48.951,-16.358,
00:00:10:600,-0.235,0.19,0.854,-247.742,247.924,-247.559,
00:00:10:616,-0.161,0.283,0.948,-574.952,460.937,-450.989,
00:00:10:633,-0.088,0.416,1.022,-837.83,531.982,-548.706,
00:00:10:650,-0.073,0.406,0.9,-930.298,507.202,-550.049,
00:00:10:666,-0.019,0.532,0.72,-849.854,441.345,-495.24,
00:00:10:683,0.101,0.884,0.746,-516.907,316.101,-307.129,
00:00:10:700,0.213,1.119,0.923,-84.534,82.458,-15.931,
00:00:10:716,0.209,0.873,0.997,347.534,-213.868,225.647,
00:00:10:733,0.073,0.622,1.001,631.591,-404.725,436.889,
00:00:10:750,-0.022,0.472,0.886,793.579,-556.397,542.297,
00:00:10:766,-0.157,0.249,0.738,866.638,-604.859,537.658,
00:00:10:783,-0.274,0.048,0.59,827.453,-499.085,355.651,
00:00:10:800,-0.372,-0.006,0.672,444.213,-197.266,94.665,
00:00:10:816,-0.25,0.074,0.853,-92.896,150.817,-192.749,
00:00:10:833,-0.151,0.155,0.896,-541.321,435.485,-440.491,
00:00:10:850,-0.163,0.291,0.908,-806.214,602.234,-652.649,
00:00:10:866,-0.111,0.29,0.857,-953.248,649.719,-734.559,
00:00:10:883,-0.027,0.441,0.761,-967.041,629.821,-748.047,
00:00:10:900,0.136,0.773,0.698,-866.394,539.856,-577.637,
00:00:10:916,0.282,1.151,0.832,-481.934,323.669,-308.106,
00:00:10:933,0.392,1.201,1.039,-1.16,-42.115,35.644,
00:00:10:950,0.289,0.923,1.036,431.335,-324.83,302.673,
00:00:10:966,0.089,0.75,0.946,725.647,-491.028,503.418,
00:00:10:983,0.054,0.517,0.89,899.658,-642.151,607.971,
00:00:11:0,-0.032,0.241,0.778,887.817,-686.036,615.966,
00:00:11:16,-0.142,0.139,0.667,783.996,-592.102,536.193,
00:00:11:33,-0.27,0.062,0.604,659.729,-425.293,347.839,
00:00:11:50,-0.333,0.035,0.677,368.896,-139.1,85.998,
00:00:11:66,-0.272,0.051,0.796,-20.997,138.672,-167.542,
00:00:11:83,-0.177,0.1,0.873,-362.977,383.606,-405.03,
00:00:11:100,-0.137,0.296,0.917,-627.991,527.465,-569.519,
00:00:11:116,-0.076,0.416,0.922,-795.411,568.42,-638.306,
00:00:11:133,0.03,0.564,0.885,-817.81,505.066,-598.755,
00:00:11:150,0.076,0.769,0.853,-654.969,397.216,-455.628,
00:00:11:166,0.165,1.042,0.943,-325.928,208.374,-214.295,
00:00:11:183,0.237,1.103,1.095,106.262,-52.857,51.208,
00:00:11:200,0.161,0.859,1.127,444.702,-311.707,281.128,
00:00:11:216,0.031,0.673,1.082,605.041,-437.928,439.636,
00:00:11:233,-0.034,0.528,1.01,691.162,-541.504,531.25,
00:00:11:250,-0.091,0.368,0.909,715.942,-605.774,572.754,
00:00:11:266,-0.179,0.284,0.84,682.678,-612.122,552.307,
00:00:11:283,-0.239,0.248,0.818,600.952,-579.956,508.239,
00:00:11:300,-0.249,0.184,0.797,502.38,-536.988,442.871,
00:00:11:316,-0.279,0.12,0.746,412.475,-465.027,364.074,
00:00:11:333,-0.331,0.079,0.624,381.286,-368.409,271.484,
00:00:11:350,-0.482,0.012,0.499,376.159,-188.843,111.45,
00:00:11:366,-0.596,-0.008,0.603,225.708,135.07,-188.111,
00:00:11:383,-0.366,0.076,0.903,-244.629,481.384,-458.069,
00:00:11:400,-0.174,0.179,1.006,-731.446,780.456,-715.21,
00:00:11:416,-0.217,0.325,0.999,-1120.728,953.247,-910.34,
00:00:11:433,-0.256,0.305,0.829,-1324.83,1042.236,-999.634,
00:00:11:450,-0.107,0.556,0.703,-1337.83,1059.326,-996.216,
00:00:11:466,0.204,0.926,0.81,-1229.92,941.284,-814.576,
00:00:11:483,0.483,1.105,1.018,-885.743,628.906,-500.245,
00:00:11:500,0.479,1.124,1.183,-398.194,270.874,-164.124,
00:00:11:516,0.307,1.092,1.145,102.111,-69.764,150.512,
00:00:11:533,0.181,0.896,1.138,487.548,-320.984,406.982,
00:00:11:550,0.119,0.597,1.053,722.595,-546.021,562.988,
00:00:11:566,0.035,0.356,0.942,748.901,-672.242,647.4,
00:00:11:583,0.044,0.204,0.81,738.83,-737.61,682.19,
00:00:11:600,0.044,0.067,0.607,851.074,-780.091,637.451,
00:00:11:616,-0.089,-0.008,0.513,912.597,-735.047,474.487,
00:00:11:633,-0.247,-0.065,0.52,794.494,-553.406,260.254,
00:00:11:650,-0.364,-0.032,0.573,509.582,-240.723,1.403,
00:00:11:666,-0.363,0,0.656,92.956,86.425,-237.977,
00:00:11:683,-0.28,0.112,0.783,-336.121,424.499,-496.338,
00:00:11:700,-0.203,0.236,0.875,-690.613,659.851,-706.91,
00:00:11:716,-0.128,0.364,0.929,-953.492,791.748,-863.953,
00:00:11:733,-0.037,0.529,0.926,-1116.517,844.726,-898.499,
00:00:11:750,0.112,0.826,0.871,-1132.386,779.419,-783.265,
00:00:11:766,0.309,1.094,0.824,-877.198,566.589,-523.926,
00:00:11:783,0.407,1.187,0.931,-374.878,318.725,-256.47,
00:00:11:800,0.382,1.177,1.129,139.709,23.132,46.875,
00:00:11:816,0.301,0.941,1.217,491.333,-223.389,317.871,
00:00:11:833,0.157,0.59,1.019,693.359,-411.255,486.145,
00:00:11:850,0.095,0.496,0.987,809.448,-540.955,613.342,
00:00:11:866,0.14,0.303,0.851,901.428,-700.257,704.101,
00:00:11:883,0.047,0.104,0.652,966.43,-764.527,703.125,
00:00:11:900,-0.124,0.014,0.541,1047.729,-729.31,568.908,
00:00:11:916,-0.428,-0.14,0.759,103.82,169.983,-232.727,
00:00:11:933,-0.189,0.024,0.994,-463.623,524.841,-497.437,
00:00:11:950,-0.057,0.235,1.094,-880.127,699.768,-682.068,
00:00:11:966,-0.055,0.291,1.089,-1105.53,708.984,-772.034,
00:00:11:983,-0.111,0.286,0.813,-1208.924,676.818,-773.682,
00:00:12:0,-0.022,0.517,0.545,-1101.38,651.733,-684.571,
00:00:12:16,0.191,1.069,0.61,-688.66,534.851,-429.627,
00:00:12:33,0.357,1.313,0.963,-18.311,208.618,-127.625,
00:00:12:50,0.323,1,1.193,520.446,-148.926,184.082,
00:00:12:66,0.133,0.686,1.12,821.899,-372.01,419.006,
00:00:12:83,-0.002,0.467,1.042,968.811,-514.1,572.387,
00:00:12:100,-0.024,0.188,0.881,1046.692,-656.311,618.835,
00:00:12:116,-0.178,-0.017,0.716,966.003,-600.647,486.572,
00:00:12:133,-0.323,-0.043,0.795,669.677,-361.756,205.566,
00:00:12:150,-0.164,-0.045,1.014,140.075,-70.74,-34.302,
00:00:12:166,-0.024,0.042,1.172,-318.787,148.437,-233.887,
00:00:12:183,0.037,0.224,1.194,-621.827,192.077,-342.896,
00:00:12:200,0.007,0.186,1.02,-733.887,123.23,-358.094,
00:00:12:216,-0.03,0.259,0.788,-648.682,78.43,-340.577,
00:00:12:233,0.003,0.646,0.737,-267.212,29.846,-227.112,
00:00:12:250,0.055,0.914,0.872,254.76,-156.739,-15.748,
00:00:12:266,0.023,0.675,1.005,715.515,-383.484,139.648,
00:00:12:283,-0.16,0.341,1.025,852.844,-500.184,184.997,
00:00:12:300,-0.353,0.185,0.951,682.312,-405.884,117.126,
00:00:12:316,-0.453,0.132,0.895,313.903,-125.977,-107.422,
00:00:12:333,-0.263,0.214,1.006,-307.312,223.632,-315.247,
00:00:12:350,-0.128,0.162,1.001,-850.769,524.109,-553.223,
00:00:12:366,-0.121,0.418,1.106,-1194.092,709.35,-697.144,
00:00:12:383,-0.01,0.416,0.968,-1324.524,588.44,-622.01,
00:00:12:400,-0.021,0.228,0.657,-1205.201,529.724,-581.36,
00:00:12:416,0.143,0.66,0.511,-800.477,482.116,-391.114,
00:00:12:433,0.302,1.301,0.754,-111.329,235.778,-49.134,
00:00:12:450,0.363,1.033,0.97,627.929,-172.852,230.041,
00:00:12:466,0.109,0.421,1.027,903.198,-435.181,408.569,
00:00:12:483,-0.119,0.22,0.995,870.178,-500.916,504.089,
00:00:12:500,-0.188,0.097,0.878,771.789,-511.353,496.521,
00:00:12:516,-0.174,-0.035,0.793,666.32,-412.598,306.091,
00:00:12:533,-0.152,-0.057,0.86,357.788,-197.022,46.691,
00:00:12:550,-0.12,-0.004,0.917,-66.346,56.945,-197.266,
00:00:12:566,-0.115,0.094,0.957,-402.222,266.418,-398.743,
00:00:12:583,-0.048,0.343,1.045,-619.568,345.092,-492.615,
00:00:12:600,-0.021,0.258,0.964,-767.395,280.334,-483.582,
00:00:12:616,-0.006,0.328,0.758,-848.267,266.723,-444.397,
00:00:12:633,0.079,0.792,0.647,-542.725,221.923,-261.597,
00:00:12:650,0.139,1.252,0.824,86.425,18.554,-4.09,
00:00:12:666,0.146,0.944,1.017,689.392,-304.688,252.563,
00:00:12:683,-0.043,0.512,1.099,905.944,-470.276,375.488,
00:00:12:700,-0.176,0.25,0.977,846.313,-507.752,427.185,
00:00:12:716,-0.239,0.156,0.85,628.479,-410.279,337.036,
00:00:12:733,-0.195,0.161,0.869,281.25,-179.749,162.719,
00:00:12:750,-0.119,0.167,0.908,-103.028,52.063,-8.667,
00:00:12:766,-0.093,0.181,1.005,-382.569,237.06,-178.65,
00:00:12:783,-0.024,0.347,1.101,-602.539,287.109,-252.198,
00:00:12:800,-0.001,0.25,1.016,-691.895,226.745,-246.094,
00:00:12:816,-0.03,0.342,0.789,-656.006,207.885,-217.713,
00:00:12:833,0.006,0.643,0.72,-343.873,152.832,-118.226,
00:00:12:850,0.062,0.89,0.891,73.608,-6.531,51.94,
00:00:12:866,0.067,0.677,1.102,469.848,-225.464,187.378,
00:00:12:883,-0.079,0.371,1.147,584.9,-367.859,284.851,
00:00:12:900,-0.203,0.219,1.011,532.409,-388.916,313.659,
00:00:12:916,-0.228,0.173,0.857,442.993,-342.347,232.544,
00:00:12:933,-0.218,0.094,0.791,236.084,-183.594,60.302,
00:00:12:950,-0.171,0.101,0.851,-124.146,49.499,-102.173,
00:00:12:966,-0.124,0.164,0.911,-437.317,260.437,-265.809,
00:00:12:983,-0.083,0.398,1.046,-616.333,357.544,-365.845,
00:00:13:0,-0.05,0.331,0.995,-758.973,294.25,-357.483,
00:00:13:16,-0.09,0.337,0.811,-819.092,278.686,-322.205,
00:00:13:33,-0.022,0.602,0.73,-587.037,235.778,-205.811,
00:00:13:50,0.038,1.009,0.827,-67.749,91.552,5.065,
00:00:13:66,0.081,0.913,1.025,463.806,-147.828,194.58,
00:00:13:83,-0.023,0.574,1.132,797.729,-362.183,347.046,
00:00:13:100,-0.131,0.364,1.078,869.079,-456.482,467.529,
00:00:13:116,-0.139,0.238,0.891,846.191,-538.086,527.71,
00:00:13:133,-0.158,0.053,0.629,799.072,-558.777,451.965,
00:00:13:150,-0.253,-0.1,0.53,543.457,-370.545,252.014,
00:00:13:166,-0.282,-0.081,0.66,32.348,31.799,-15.931,
00:00:13:183,-0.147,0.043,0.852,-389.954,372.07,-254.273,
00:00:13:200,-0.074,0.129,0.97,-705.933,591.125,-446.778,
00:00:13:216,-0.059,0.221,1.039,-965.577,667.663,-568.055,
00:00:13:233,-0.098,0.236,0.919,-1124.451,619.934,-562.134,
00:00:13:250,-0.098,0.388,0.676,-1070.252,555.603,-485.901,
00:00:13:266,0.001,0.868,0.618,-617.981,476.257,-305.42,
00:00:13:283,0.159,1.271,0.927,86.792,200.439,13.244,
00:00:13:300,0.185,0.879,1.15,674.56,-179.139,295.654,
00:00:13:316,-0.044,0.5,1.188,865.051,-353.699,446.716,
00:00:13:333,-0.174,0.309,1.039,915.344,-469.056,558.105,
00:00:13:350,-0.212,0.126,0.865,902.954,-514.1,519.958,
00:00:13:366,-0.236,-0.034,0.742,769.897,-383.912,326.965,
00:00:13:383,-0.22,-0.041,0.842,352.844,-104.371,91.98,
00:00:13:400,-0.131,-0.025,0.945,-143.799,209.594,-156.922,
00:00:13:416,-0.087,0.14,1.065,-500.977,441.528,-375.245,
00:00:13:433,-0.028,0.304,1.103,-810.242,496.154,-446.167,
00:00:13:450,-0.089,0.249,0.916,-940.857,433.41,-435.608,
00:00:13:466,-0.118,0.394,0.717,-918.396,392.578,-375.123,
00:00:13:483,0.011,0.857,0.727,-572.266,319.763,-173.768,
00:00:13:500,0.134,1.182,0.996,59.692,72.57,89.843,
00:00:13:516,0.12,0.85,1.138,704.712,-290.711,325.5,
00:00:13:533,-0.068,0.504,1.193,997.802,-482.605,485.962,
00:00:13:550,-0.15,0.318,1.028,1125.854,-608.704,598.755,saltLH
00:00:13:566,-0.195,0.1,0.774,1143.737,-687.073,588.501,
00:00:13:583,-0.253,-0.107,0.656,991.821,-605.652,421.753,
00:00:13:600,-0.279,-0.177,0.756,445.8,-278.382,167.724,
00:00:13:616,-0.168,-0.121,0.927,-193.36,113.769,-87.83,
00:00:13:633,-0.092,-0.021,1.022,-626.77,412.292,-313.904,
00:00:13:650,-0.033,0.236,1.082,-934.998,558.227,-464.722,
00:00:13:666,-0.075,0.221,1,-1106.751,522.705,-477.173,
00:00:13:683,-0.17,0.287,0.768,-1065.125,465.881,-451.416,
00:00:13:700,-0.091,0.564,0.665,-821.9,406.311,-319.397,
00:00:13:716,0.056,0.975,0.864,-248.841,257.934,-106.751,
00:00:13:733,0.149,0.981,1.098,375.427,-47.852,155.761,
00:00:13:750,0.027,0.59,1.159,816.894,-329.041,330.993,
00:00:13:766,-0.132,0.334,1.1,925.598,-468.934,471.374,
00:00:13:783,-0.148,0.185,0.956,937.561,-537.781,553.405,
00:00:13:800,-0.179,-0.003,0.73,937.194,-561.28,480.163,
00:00:13:816,-0.285,-0.176,0.675,672.485,-414.734,220.031,
00:00:13:833,-0.335,-0.128,0.852,-10.193,19.836,-13.306,
00:00:13:850,-0.12,0.035,1.033,-593.018,376.953,-261.109,
00:00:13:866,-0.046,0.141,1.136,-986.023,578.43,-475.159,
00:00:13:883,-0.091,0.15,1.089,-1256.775,625.671,-567.444,
00:00:13:900,-0.152,0.218,0.864,-1285.34,591.919,-548.035,
00:00:13:916,-0.072,0.539,0.716,-959.9,489.502,-441.285,
00:00:13:933,0.05,1.041,0.824,-337.525,289.062,-200.928,
00:00:13:950,0.134,1.09,0.999,345.581,-34.79,78.674,
00:00:13:966,0.034,0.649,1.112,674.621,-318.116,314.575,
00:00:13:983,-0.106,0.392,1.079,707.763,-423.829,470.52,
00:00:14:0,-0.157,0.248,0.937,683.776,-473.694,535.705,
00:00:14:16,-0.197,0.11,0.796,642.456,-426.27,411.193,
00:00:14:33,-0.206,0.01,0.806,405.944,-217.591,186.645,
00:00:14:50,-0.127,0.01,0.908,5.554,89.355,-63.782,
00:00:14:66,-0.053,-0.007,0.972,-390.748,328.552,-285.95,
00:00:14:83,-0.072,0.214,1.048,-676.087,504.882,-462.525,
00:00:14:100,-0.06,0.212,0.982,-898.194,501.709,-487.915,
00:00:14:116,-0.104,0.302,0.853,-945.923,472.412,-465.821,
00:00:14:133,-0.041,0.535,0.747,-778.809,388.916,-345.52,
00:00:14:150,0.039,0.901,0.838,-330.384,236.389,-150.086,
00:00:14:166,0.112,0.999,1.006,189.514,-39.307,134.094,
00:00:14:183,0.059,0.716,1.1,622.192,-296.631,344.726,
00:00:14:200,-0.061,0.449,1.073,780.822,-452.942,505.188,
00:00:14:216,-0.119,0.274,0.96,806.579,-523.804,566.711,
00:00:14:233,-0.131,0.136,0.844,753.173,-513.916,503.479,
00:00:14:250,-0.125,0.004,0.769,585.388,-394.837,333.984,
00:00:14:266,-0.133,-0.011,0.808,226.318,-123.597,114.99,
00:00:14:283,-0.077,-0.005,0.876,-115.052,140.625,-107.544,
00:00:14:300,-0.086,0.069,0.943,-386.963,335.571,-293.213,
00:00:14:316,-0.069,0.196,0.993,-601.441,414.917,-400.757,
00:00:14:333,-0.097,0.219,0.935,-712.159,404.297,-422.547,
00:00:14:350,-0.13,0.338,0.847,-710.45,375.732,-396.729,
00:00:14:366,-0.103,0.598,0.797,-533.509,298.523,-287.232,
00:00:14:383,-0.041,0.823,0.875,-166.565,175.781,-113.16,
00:00:14:400,0.001,0.771,1.003,222.961,-26.368,86.608,
00:00:14:416,-0.043,0.548,1.087,568.969,-182.435,231.018,
00:00:14:433,-0.111,0.395,1.054,774.292,-302.063,355.59,
00:00:14:450,-0.121,0.302,0.991,884.765,-403.382,433.471,
00:00:14:466,-0.118,0.165,0.878,879.333,-486.695,449.096,
00:00:14:483,-0.233,-0.009,0.812,711.486,-439.087,329.773,
00:00:14:500,-0.318,-0.101,0.845,364.257,-246.766,145.324,
00:00:14:516,-0.296,-0.069,0.94,-45.899,53.161,-88.318,
00:00:14:533,-0.157,0.025,1.072,-401.123,288.025,-302.247,
00:00:14:550,-0.048,0.246,1.175,-752.503,435.058,-444.458,
00:00:14:566,0.001,0.293,1.164,-949.158,378.418,-457.398,
00:00:14:583,-0.059,0.262,0.974,-977.417,269.714,-396.729,
00:00:14:600,-0.091,0.434,0.732,-728.272,196.167,-300.171,
00:00:14:616,-0.027,0.824,0.736,-174.988,102.966,-117.432,
00:00:14:633,0.075,0.91,0.943,394.043,-147.095,113.037,
00:00:14:650,0.032,0.491,1.098,690.734,-371.216,263.244,
00:00:14:666,-0.162,0.267,1.055,679.321,-396.668,318.786,
00:00:14:683,-0.249,0.237,0.953,620.117,-316.163,278.503,
00:00:14:700,-0.198,0.196,0.867,541.015,-210.511,171.63,
00:00:14:716,-0.118,0.096,0.844,383.178,-44.068,20.935,
00:00:14:733,-0.093,0,0.86,26.855,157.776,-144.471,
00:00:14:750,-0.115,-0.048,0.827,-375.794,392.334,-315.491,
00:00:14:766,-0.06,0.162,0.953,-706.177,542.724,-422.974,
00:00:14:783,0.06,0.196,0.977,-977.54,518.798,-423.768,
00:00:14:800,0.02,0.261,0.888,-1037.415,458.862,-379.639,
00:00:14:816,0.009,0.557,0.793,-800.477,391.174,-266.297,
00:00:14:833,0.073,0.883,0.842,-202.637,195.19,-49.866,
00:00:14:850,0.129,0.791,0.98,437.255,-67.261,166.015,
00:00:14:866,0.013,0.544,1.07,872.68,-290.528,315.429,
00:00:14:883,-0.136,0.308,1.002,971.313,-411.316,404.052,
00:00:14:900,-0.256,0.146,0.932,791.931,-398.011,374.206,
00:00:14:916,-0.253,0.045,0.959,390.747,-203.309,223.205,
00:00:14:933,-0.12,0.044,1.009,-101.014,40.71,51.574,
00:00:14:950,-0.058,0.05,1.017,-432.251,256.286,-153.687,
00:00:14:966,-0.077,0.204,1.064,-647.95,395.08,-312.012,
00:00:14:983,-0.012,0.231,1.049,-816.04,395.202,-352.478,
00:00:15:0,0.005,0.308,0.976,-837.83,336.486,-317.688,
00:00:15:16,-0.004,0.515,0.842,-627.442,244.079,-204.041,
00:00:15:33,0.024,0.559,1.112,724.792,-345.337,325.134,
00:00:15:50,-0.104,0.356,1.026,870.422,-472.962,450.988,
00:00:15:66,-0.244,0.234,0.859,959.35,-528.26,463.806,
00:00:15:83,-0.295,0.037,0.726,916.198,-497.376,359.558,
00:00:15:100,-0.305,-0.104,0.793,535.644,-286.133,151.306,
00:00:15:116,-0.169,-0.131,0.946,-97.535,78.247,-69.092,
00:00:15:133,-0.07,-0.068,0.959,-525.513,336.425,-290.039,
00:00:15:150,-0.099,0.046,0.973,-812.684,503.357,-465.516,
00:00:15:166,-0.076,0.068,0.913,-1011.231,551.941,-549.134,
00:00:15:183,-0.059,0.251,0.895,-1076.294,524.414,-539.856,
00:00:15:200,0.001,0.571,0.83,-895.997,408.752,-424.439,
00:00:15:216,0.043,0.846,0.891,-464.051,222.168,-240.784,
00:00:15:233,0.084,0.897,1.027,89.599,-36.072,1.037,
00:00:15:250,0.043,0.704,1.14,529.052,-259.4,225.219,
00:00:15:266,-0.05,0.564,1.097,892.883,-428.894,389.038,
00:00:15:283,-0.108,0.414,0.985,1157.104,-583.13,487.915,
00:00:15:300,-0.192,0.193,0.823,1277.465,-701.783,482.36,
00:00:15:316,-0.278,-0.102,0.751,1018.005,-654.908,363.159,
00:00:15:333,-0.321,-0.189,0.851,412.658,-337.037,125.427,
00:00:15:350,-0.15,-0.086,0.942,-282.41,82.702,-86.06,
00:00:15:366,-0.045,0,1.001,-644.165,328.491,-340.088,
00:00:15:383,-0.05,0.072,1.069,-980.713,492.065,-515.259,
00:00:15:400,-0.036,0.145,1.023,-1239.136,518.066,-562.5,
00:00:15:416,0.002,0.336,0.871,-1282.715,416.442,-468.262,
00:00:15:433,0.002,0.671,0.71,-856.385,289.672,-311.158,
00:00:15:450,0.064,1.079,0.843,-129.7,80.017,-61.463,
00:00:15:466,0.118,0.913,1.027,623.474,-239.991,173.767,
00:00:15:483,-0.011,0.54,1.125,1042.785,-453.797,342.224,
00:00:15:500,-0.156,0.288,0.982,1171.692,-568.97,421.02,
00:00:15:516,-0.313,0.093,0.806,1052.307,-562.623,373.108,
00:00:15:533,-0.309,-0.044,0.796,624.511,-354.798,210.327,
00:00:15:550,-0.149,-0.081,0.881,-4.273,4.516,5.981,
00:00:15:566,-0.047,-0.073,0.944,-496.277,299.438,-235.596,
00:00:15:583,-0.028,0.248,0.887,-1223.45,557.434,-490.174,
00:00:15:600,0.011,0.53,0.768,-1012.513,440.185,-366.517,
00:00:15:616,0.048,0.909,0.814,-454.529,266.784,-154.541,
00:00:15:633,0.113,0.984,0.99,261.596,-40.467,98.877,
00:00:15:650,0.031,0.677,1.093,745.483,-291.26,293.029,
00:00:15:666,-0.131,0.459,1.031,1017.334,-414.551,418.579,
00:00:15:683,-0.29,0.274,0.916,1119.14,-480.286,421.081,
00:00:15:700,-0.314,0.052,0.871,953.918,-444.336,318.664,
00:00:15:716,-0.066,-0.092,0.974,-304.749,155.456,-70.008,
00:00:15:733,-0.058,0.005,0.94,-743.897,386.963,-278.016,
00:00:15:750,-0.044,0.145,0.978,-971.863,511.657,-443.055,
00:00:15:766,0.004,0.187,0.953,-1085.816,495.361,-473.572,
00:00:15:783,0.034,0.695,0.81,-720.215,289.184,-274.964,
00:00:15:800,0.084,0.984,0.874,-114.319,60.913,-55.848,
00:00:15:816,0.063,0.867,1.022,462.707,-219.422,176.086,
00:00:15:833,-0.008,0.607,1.071,877.441,-411.805,344.482,
00:00:15:850,-0.133,0.384,0.947,1058.41,-532.715,446.289,
00:00:15:866,-0.251,0.194,0.807,1053.161,-557.984,417.297,
00:00:15:883,-0.025,-0.078,0.994,-309.693,222.961,-203.614,
00:00:15:900,-0.038,-0.042,0.945,-703.431,465.026,-430.481,
00:00:15:916,-0.116,0.014,0.869,-1014.649,621.948,-597.29,
00:00:15:933,-0.044,0.209,0.874,-1223.999,691.894,-655.701,
00:00:15:950,0.054,0.493,0.851,-1214.112,592.163,-592.591,
00:00:15:966,0.088,0.721,0.834,-900.208,416.565,-471.985,
00:00:15:983,0.099,0.978,0.915,-399.781,224.365,-253.602,
00:00:16:0,0.14,1.004,1.014,140.686,-53.04,12.085,
00:00:16:16,0.073,0.773,1.075,522.033,-274.842,241.821,
00:00:16:33,-0.013,0.58,1.02,814.697,-409.18,397.827,
00:00:16:50,-0.107,0.402,0.905,997.375,-516.602,459.716,
00:00:16:66,-0.176,0.2,0.808,994.506,-553.894,427.002,
00:00:16:83,-0.203,-0.003,0.757,700.561,-436.219,277.099,
00:00:16:100,-0.19,-0.064,0.839,137.634,-94.3,37.109,
00:00:16:116,-0.053,0.031,0.96,-440.308,231.201,-199.219,
00:00:16:133,0.022,0.162,1.006,-753.602,437.378,-429.627,
00:00:16:150,0.001,0.217,0.985,-987.793,513.916,-568.665,
00:00:16:166,0.004,0.339,0.917,-1155.518,508.911,-579.163,
00:00:16:183,0.09,0.592,0.799,-1097.901,421.081,-489.258,
00:00:16:200,0.103,0.899,0.779,-679.2,264.526,-304.81,
00:00:16:216,0.166,1.097,0.92,-114.624,13.977,-36.438,
00:00:16:233,0.173,0.968,1.09,411.499,-236.512,215.149,
00:00:16:250,0.058,0.675,1.04,763.977,-426.575,414.978,
00:00:16:266,-0.084,0.499,0.923,940.124,-515.87,513.61,
00:00:16:283,-0.189,0.341,0.834,964.599,-522.034,459.045,
00:00:16:300,-0.174,0.171,0.822,736.999,-392.64,318.481,
00:00:16:316,-0.109,0.078,0.887,186.706,-162.781,139.831,
00:00:16:333,-0.056,0.04,0.911,-353.821,127.319,-60.059,
00:00:16:350,-0.073,0.134,0.912,-737.977,340.698,-241.272,
00:00:16:366,-0.015,0.252,0.94,-966.126,429.138,-359.498,
00:00:16:383,0.041,0.286,0.919,-1037.476,384.765,-378.235,
00:00:16:400,0.053,0.411,0.819,-910.828,301.33,-331.482,
00:00:16:416,0.059,0.67,0.72,-532.532,186.157,-205.262,
00:00:16:433,0.105,0.919,0.758,40.527,14.953,-7.019,
00:00:16:450,0.132,0.776,0.921,591.064,-239.991,207.031,
00:00:16:466,0.036,0.521,0.993,949.646,-392.395,337.768,
00:00:16:483,-0.055,0.354,0.954,1248.718,-474.915,425.598,
00:00:16:500,-0.076,0.274,0.741,1656.677,-538.147,471.984,
00:00:16:516,-0.151,0.212,0.538,1999.694,-567.078,395.813,
00:00:16:533,-0.15,0.013,0.542,1999.694,-660.157,193.359,
00:00:16:550,-0.213,-0.384,0.787,1425.659,-522.583,-7.081,
00:00:16:566,-0.282,-0.521,1.027,49.987,34.362,-100.159,
00:00:16:583,-0.095,-0.187,1.048,-840.943,440.307,-245.728,
00:00:16:600,-0.087,-0.025,0.96,-1073.487,546.569,-408.448,
00:00:16:616,-0.147,0.096,0.88,-1041.138,557.129,-470.032,
00:00:16:633,-0.128,0.367,0.834,-847.779,557.067,-432.068,
00:00:16:650,0.004,0.665,0.887,-444.031,415.954,-320.557,
00:00:16:667,0.108,0.617,0.989,-6.958,114.196,-225.953,
00:00:16:683,0.004,0.403,1.108,135.192,-82.032,-134.827,
00:00:16:700,-0.071,0.322,1.147,-59.998,-88.746,-44.251,
00:00:16:717,-0.144,0.427,1.082,-391.541,-23.499,40.649,
00:00:16:733,-0.105,0.434,1.092,-327.576,-28.626,18.554,
00:00:16:750,-0.097,0.423,1.099,-359.62,-15.625,-22.767,
00:00:16:767,-0.112,0.479,1.078,-440.735,36.377,-45.472,
00:00:16:783,-0.103,0.524,1.022,-487.915,56.335,-38.269,
00:00:16:800,-0.083,0.569,0.983,-495.972,58.349,-1.831,
00:00:16:817,-0.07,0.59,0.937,-401.673,36.254,60.607,
00:00:16:833,-0.066,0.616,0.947,-186.463,-17.273,127.075,
00:00:16:850,-0.076,0.394,0.911,232.727,-201.844,243.225,
00:00:16:867,-0.179,0.182,0.806,214.233,-204.834,223.083,
00:00:16:883,-0.162,0.028,0.815,-166.016,140.503,-92.225,
00:00:16:900,-0.021,0.051,0.86,-443.299,331.543,-284.729,
00:00:16:917,-0.062,0.089,0.8,-609.07,481.628,-505.127,
00:00:16:933,-0.091,0.202,0.816,-807.496,597.351,-627.808,
00:00:16:950,0.003,0.39,0.84,-943.116,589.904,-639.832,
00:00:16:967,0.049,0.56,0.799,-851.38,483.398,-565.003,
00:00:16:983,0.099,0.867,0.796,-574.585,316.894,-348.877,
00:00:17:0,0.113,0.821,0.999,812.133,-395.508,464.843,
00:00:17:17,0.032,0.59,0.98,1108.642,-605.164,598.999,
00:00:17:33,-0.08,0.337,0.857,1160.644,-710.572,659.668,
00:00:17:50,-0.168,0.093,0.712,1071.35,-704.712,591.552,
00:00:17:67,-0.248,-0.041,0.669,795.288,-491.15,385.07,
00:00:17:83,-0.078,0.018,0.921,-493.531,407.653,-465.149,
00:00:17:100,-0.072,0.133,0.856,-796.204,556.335,-610.962,
00:00:17:117,-0.037,0.309,0.817,-879.822,577.819,-649.048,
00:00:17:133,0.04,0.568,0.822,-815.247,486.389,-576.539,
00:00:17:150,0.119,0.827,0.861,-528.626,305.236,-389.405,
00:00:17:167,0.158,0.961,0.984,-116.822,76.294,-142.395,
00:00:17:183,0.05,0.759,1.113,675.903,-373.841,309.936,
00:00:17:200,-0.035,0.605,1.068,907.165,-493.409,433.776,
00:00:17:217,-0.091,0.404,0.953,1009.033,-594.239,509.948,
00:00:17:233,-0.165,0.21,0.778,1026.672,-622.498,485.901,
00:00:17:250,-0.191,0,0.968,-148.011,119.14,-97.657,
00:00:17:267,-0.043,0.061,1.008,-556.214,393.493,-333.985,
00:00:17:283,-0.056,0.164,0.994,-883.484,563.964,-519.104,
00:00:17:300,-0.055,0.168,0.907,-1052.979,628.296,-622.132,
00:00:17:317,0.114,0.659,0.845,-917.542,445.8,-469.422,
00:00:17:333,0.154,0.918,0.917,-517.64,242.797,-260.254,
00:00:17:350,0.165,0.984,1.057,-5.677,-1.526,-27.1,
00:00:17:367,0.104,0.838,1.156,446.167,-227.417,207.031,
00:00:17:383,0.006,0.659,1.111,757.202,-378.296,366.943,
00:00:17:400,-0.088,0.492,0.972,968.872,-487.305,436.645,
00:00:17:417,-0.161,0.273,0.812,934.753,-498.414,390.93,
00:00:17:433,-0.215,0.066,0.819,570.007,-348.511,230.285,
00:00:17:450,-0.19,-0.011,0.868,-7.691,-41.382,46.569,
00:00:17:467,-0.144,0.145,0.852,-540.284,261.413,-114.93,
00:00:17:483,-0.08,0.247,0.867,-775.757,429.626,-292.359,
00:00:17:500,0,0.272,0.923,-945.923,479.37,-365.54,
00:00:17:517,0.05,0.261,0.891,-942.933,403.442,-346.741,
00:00:17:533,0.087,0.395,0.803,-787.842,283.569,-255.738,
00:00:17:550,0.123,0.645,0.794,-366.761,126.953,-86.853,saltLH
00:00:17:567,0.176,0.852,0.929,231.628,-125.428,129.821,
00:00:17:583,0.119,0.703,1.052,769.714,-399.048,295.349,
00:00:17:600,-0.002,0.388,1.023,1035.217,-604.493,403.564,
00:00:17:617,-0.103,0.179,0.828,1018.676,-705.14,473.205,
00:00:17:633,-0.276,0.07,0.66,875.305,-655.945,408.386,
00:00:17:650,-0.383,0.01,0.589,581.176,-444.214,255.127,
00:00:17:667,-0.402,0.038,0.689,150.756,-117.432,42.907,
00:00:17:683,-0.298,0.073,0.879,-260.926,215.942,-198.304,
00:00:17:700,-0.216,0.127,0.987,-586.182,468.2,-420.044,
00:00:17:717,-0.165,0.281,0.985,-907.288,619.506,-553.162,
00:00:17:733,-0.122,0.362,0.902,-1041.016,625.793,-594.605,
00:00:17:750,-0.074,0.627,0.785,-988.465,573.059,-500.367,
00:00:17:767,0.064,0.894,0.788,-646.912,393.371,-306.58,
00:00:17:783,0.204,1.023,1.045,-115.296,150.024,-57.74,
00:00:17:800,0.256,0.848,1.173,353.576,-172.12,195.068,
00:00:17:817,0.03,0.603,1.142,638.733,-342.041,359.436,
00:00:17:833,-0.069,0.53,1.108,809.936,-474.366,468.994,
00:00:17:850,-0.117,0.311,0.978,837.402,-571.045,486.694,
00:00:17:867,-0.243,0.153,0.844,626.648,-512.696,422.668,
00:00:17:883,-0.203,0.062,0.856,-315.979,191.406,-167.969,
00:00:17:900,-0.129,0.141,0.835,-533.814,399.353,-364.441,
00:00:17:917,-0.085,0.335,0.87,-686.646,517.761,-503.296,
00:00:17:933,-0.032,0.358,0.894,-770.081,523.803,-557.251,
00:00:17:950,0.014,0.48,0.881,-830.14,470.153,-491.822,
00:00:17:967,0.11,0.679,0.835,-666.993,318.786,-303.345,
00:00:17:983,0.165,0.846,0.861,-242.432,111.816,-46.936,
00:00:18:0,0.193,0.922,1.002,310.241,-151.307,190.734,
00:00:18:17,0.143,0.711,1.132,793.762,-426.392,386.352,
00:00:18:33,0.034,0.438,1.079,1022.216,-598.633,498.23,
00:00:18:50,-0.058,0.254,0.953,1021.423,-668.58,565.857,
00:00:18:67,-0.084,0.127,0.734,999.267,-701.172,587.341,
00:00:18:83,-0.228,-0.001,0.562,980.163,-668.213,515.075,
00:00:18:100,-0.398,-0.099,0.508,824.585,-497.132,351.806,
00:00:18:117,-0.462,-0.118,0.667,360.046,-119.812,90.332,
00:00:18:133,-0.258,-0.063,0.862,-202.82,308.899,-211.67,
00:00:18:150,-0.122,0.063,0.953,-695.435,593.75,-448.182,
00:00:18:167,-0.108,0.066,0.921,-1067.444,744.445,-652.955,
00:00:18:183,-0.119,0.141,0.858,-1244.935,817.871,-724.915,
00:00:18:200,-0.011,0.47,0.799,-1134.461,747.009,-649.598,
00:00:18:217,0.123,0.85,0.881,-714.112,545.166,-435.303,
00:00:18:233,0.229,1.028,1.065,-76.783,215.881,-165.65,
00:00:18:250,0.21,0.908,1.212,452.026,-140.137,132.08,
00:00:18:267,0.038,0.698,1.175,821.655,-337.098,343.75,
00:00:18:283,-0.065,0.554,1.167,1033.63,-489.441,485.107,
00:00:18:300,-0.074,0.346,1.114,1134.948,-612,561.645,
00:00:18:317,-0.082,0.145,1.006,1091.552,-689.759,584.106,
00:00:18:333,-0.106,0.051,0.845,1028.686,-729.31,580.017,
00:00:18:350,-0.211,-0.022,0.753,915.344,-709.839,511.047,
00:00:18:367,-0.358,-0.168,0.772,491.15,-385.315,222.168,
00:00:18:383,-0.394,-0.173,0.818,205.444,-97.718,9.399,
00:00:18:400,-0.38,-0.131,0.867,-96.009,170.837,-231.934,
00:00:18:417,-0.319,-0.048,0.945,-441.773,446.167,-440.491,
00:00:18:433,-0.25,0.012,1.02,-763.794,612.915,-615.845,
00:00:18:450,-0.222,0.041,1.036,-1061.646,691.406,-699.646,
00:00:18:467,-0.177,0.26,1.002,-1252.198,687.622,-664.002,
00:00:18:483,-0.072,0.564,0.955,-1182.068,536.01,-480.53,
00:00:18:500,-0.063,0.864,0.975,-568.299,278.015,-202.759,
00:00:18:517,-0.035,1.03,1.127,234.985,-43.457,105.957,
00:00:18:533,-0.067,0.804,1.341,974.548,-382.264,359.68,
00:00:18:550,-0.15,0.372,1.363,1361.084,-656.311,501.342,
00:00:18:567,-0.22,0.087,1.21,1405.212,-772.95,551.208,
00:00:18:583,-0.229,-0.145,0.936,1126.831,-815.125,500.61,
00:00:18:600,-0.289,-0.35,0.73,604.98,-637.269,309.143,
00:00:18:617,-0.323,-0.381,0.755,-122.498,-203.064,35.827,
00:00:18:633,-0.129,-0.282,0.893,-674.805,212.768,-281.189,
00:00:18:650,-0.037,-0.128,0.964,-968.628,460.022,-535.218,
00:00:18:667,-0.045,-0.12,0.965,-1218.262,577.514,-726.38,
00:00:18:683,-0.11,0.015,0.904,-1399.17,653.015,-752.015,
00:00:18:700,-0.1,0.386,0.878,-1322.266,581.054,-675.538,
00:00:18:717,-0.077,0.793,0.739,-833.558,370.483,-420.472,
00:00:18:733,-0.063,1.04,0.768,-85.633,69.763,-133.118,
00:00:18:750,-0.057,0.623,1.034,869.201,-466.004,424.621,
00:00:18:767,-0.131,0.373,1.013,1046.325,-612.183,581.298,
00:00:18:783,-0.173,0.186,0.917,1164.428,-704.468,653.442,
00:00:18:800,-0.237,-0.001,0.767,1231.445,-744.751,641.174,
00:00:18:817,-0.34,-0.167,0.641,1162.841,-690.613,528.747,
00:00:18:833,-0.497,-0.322,0.631,808.105,-459.046,310.18,
00:00:18:850,-0.48,-0.404,0.794,201.11,-44.068,-0.916,
00:00:18:867,-0.284,-0.341,0.978,-499.085,348.327,-288.758,
00:00:18:883,-0.165,-0.127,1.035,-1009.278,622.375,-531.739,
00:00:18:900,-0.227,-0.041,0.956,-1304.749,733.886,-672.791,
00:00:18:917,-0.323,0.148,0.848,-1365.479,754.577,-697.083,
00:00:18:933,-0.277,0.508,0.762,-1143.616,649.17,-588.318,
00:00:18:950,-0.166,0.851,0.899,-610.779,427.185,-387.207,
00:00:18:967,-0.047,0.929,1.133,-33.02,106.018,-104.432,
00:00:18:983,-0.106,0.706,1.206,411.743,-156.739,122.741,
00:00:19:0,-0.18,0.523,1.151,650.634,-323.975,330.871,
00:00:19:17,-0.193,0.367,1.032,756.408,-434.998,457.336,
00:00:19:33,-0.24,0.15,0.92,713.745,-478.089,467.834,
00:00:19:50,-0.293,-0.068,0.859,510.864,-357.239,374.755,
00:00:19:67,-0.327,-0.106,0.887,183.105,-110.413,188.964,
00:00:19:83,-0.253,-0.037,0.945,-115.113,164.428,-33.265,
00:00:19:100,-0.198,-0.016,0.976,-361.512,338.745,-226.014,
00:00:19:117,-0.16,0.048,1.01,-615.54,471.435,-369.507,
00:00:19:133,-0.115,0.111,1.005,-792.359,502.258,-415.406,
00:00:19:150,-0.097,0.238,0.936,-775.513,427.246,-361.268,
00:00:19:167,-0.131,0.387,0.855,-569.703,308.044,-256.531,
00:00:19:183,-0.104,0.528,0.935,-236.878,160.4,-119.629,
00:00:19:200,-0.027,0.537,1.096,120.544,-44.495,51.33,
00:00:19:217,-0.054,0.343,1.099,403.564,-228.882,197.387,
00:00:19:233,-0.15,0.209,0.959,560.363,-343.628,260.437,
00:00:19:250,-0.215,0.093,0.793,537.841,-325.501,243.835,
00:00:19:267,-0.24,0.036,0.763,327.209,-158.387,114.685,
00:00:19:283,-0.164,0.064,0.929,-406.25,351.928,-229.554,
00:00:19:300,-0.225,0.142,0.953,-698.426,560.363,-382.019,
00:00:19:317,-0.156,0.221,0.965,-905.884,640.686,-454.956,
00:00:19:333,-0.081,0.385,0.929,-891.236,615.051,-412.232,
00:00:19:350,-0.037,0.506,0.882,-655.579,460.571,-321.412,
00:00:19:367,0.007,0.666,0.978,-274.537,321.289,-179.261,
00:00:19:383,0.067,0.722,1.049,132.812,100.28,20.385,
00:00:19:400,-0.018,0.37,1.133,664.489,-316.04,317.321,
00:00:19:417,-0.103,0.211,1.043,691.65,-416.504,384.948,
00:00:19:433,-0.112,0.076,0.951,633.056,-446.351,377.502,
00:00:19:450,-0.148,-0.033,0.843,542.053,-361.695,247.741,
00:00:19:467,-0.198,-0.042,0.86,316.833,-159.485,47.668,
00:00:19:483,-0.147,-0.019,0.906,-28.26,91.552,-163.88,
00:00:19:500,-0.123,0,0.946,-368.897,294.311,-345.704,
00:00:19:517,-0.109,0.114,0.96,-670.777,447.754,-473.572,
00:00:19:533,-0.077,0.205,0.937,-824.036,493.835,-513.062,
00:00:19:550,-0.005,0.629,0.902,-294.556,127.502,-164.246,
00:00:19:567,0.02,0.694,0.985,104.492,-57.373,19.409,
00:00:19:583,0.024,0.6,1.075,474.365,-268.982,204.101,
00:00:19:600,-0.06,0.402,1.047,754.333,-407.166,303.65,
00:00:19:617,-0.123,0.221,0.931,847.9,-473.023,340.454,
00:00:19:633,-0.169,0.063,0.837,769.836,-437.073,261.779,
00:00:19:650,-0.197,-0.028,0.865,393.676,-238.16,81.054,
00:00:19:667,-0.149,-0.028,0.94,-107.117,35.949,-113.831,
00:00:19:683,-0.094,0.042,0.964,-551.209,287.841,-280.518,
00:00:19:700,-0.099,0.141,0.966,-807.862,440.979,-436.89,
00:00:19:717,-0.035,0.188,0.946,-934.082,479.614,-495.85,
00:00:19:733,-0.001,0.331,0.908,-866.7,419.067,-460.144,
00:00:19:750,0.013,0.538,0.881,-612.061,308.41,-372.437,
00:00:19:767,0.044,0.751,0.917,-187.806,128.54,-204.224,
00:00:19:783,0.05,0.758,1.032,222.046,-66.163,-8.728,
00:00:19:800,0.019,0.596,1.118,553.466,-267.518,155.517,
00:00:19:817,-0.053,0.43,1.084,708.557,-413.514,286.193,
00:00:19:833,-0.106,0.32,1.008,742.553,-479.798,357.605,
00:00:19:850,-0.105,0.199,0.946,680.053,-478.15,319.213,
00:00:19:867,-0.142,0.106,0.893,543.335,-387.269,191.101,
00:00:19:883,-0.19,0.035,0.887,262.634,-195.069,33.325,
00:00:19:900,-0.182,0.006,0.911,-99.793,29.602,-136.109,
00:00:19:917,-0.129,0.062,0.943,-452.576,246.887,-279.053,
00:00:19:933,-0.055,0.179,0.954,-662.537,328.003,-365.479,
00:00:19:950,-0.04,0.215,0.921,-714.478,314.209,-380.249,
00:00:19:967,-0.045,0.359,0.883,-643.067,268.066,-342.591,
00:00:19:983,-0.028,0.563,0.852,-423.34,185.547,-235.291,
00:00:20:0,0.012,0.682,0.914,-75.318,28.564,-96.619,
00:00:20:17,0.037,0.631,1.062,226.623,-155.945,67.077,
00:00:20:33,0.004,0.508,1.099,472.9,-289.551,199.401,
00:00:20:50,-0.061,0.407,1.054,610.778,-396.485,293.884,
00:00:20:67,-0.104,0.323,0.993,648.376,-465.516,338.562,
00:00:20:83,-0.174,0.178,0.895,574.035,-483.033,327.942,
00:00:20:100,-0.282,0.08,0.821,400.512,-387.33,222.351,
00:00:20:117,-0.311,0.027,0.848,-91.431,29.846,-88.074,
00:00:20:133,-0.278,0.014,0.876,-317.444,223.877,-244.141,
00:00:20:150,-0.264,0.064,0.848,-474.976,378.479,-385.865,
00:00:20:167,-0.248,0.099,0.832,-569.153,466.797,-499.512,
00:00:20:183,-0.107,0.375,0.919,-644.959,520.996,-556.275,
00:00:20:200,-0.047,0.484,0.936,-610.657,427.49,-471.436,
00:00:20:217,0.018,0.57,0.95,-542.908,291.015,-299.5,
00:00:20:233,0.075,0.651,1.003,-349.366,133.484,-125.245,
00:00:20:250,0.1,0.69,1.097,0.549,-71.9,87.28,
00:00:20:267,0.056,0.662,1.144,396.179,-270.813,253.54,
00:00:20:283,-0.025,0.498,1.104,697.387,-424.317,367.797,
00:00:20:300,-0.083,0.321,1.042,769.47,-518.982,410.827,
00:00:20:317,-0.138,0.187,0.982,597.107,-508.912,377.38,
00:00:20:333,-0.193,0.062,0.923,308.227,-413.819,270.08,
00:00:20:350,-0.239,0.074,0.91,-27.71,-222.535,140.747,
00:00:20:367,-0.199,0.096,0.906,-252.869,-31.556,-18.25,
00:00:20:383,-0.062,0.23,0.901,-402.039,225.525,-275.574,
00:00:20:400,-0.009,0.318,0.905,-447.815,250.732,-310.914,
00:00:20:417,-0.004,0.349,0.836,-404.114,216.186,-291.382,
00:00:20:433,-0.015,0.434,0.78,-350.953,168.945,-235.535,
00:00:20:450,0.021,0.534,0.852,-247.071,103.82,-128.479,
00:00:20:467,0.099,0.626,1.021,-75.44,-41.993,37.292,
00:00:20:483,0.076,0.565,1.031,167.907,-218.323,157.409,
00:00:20:500,-0.059,0.454,0.984,381.775,-328.186,241.272,
00:00:20:517,-0.12,0.403,0.975,514.099,-382.447,285.461,
00:00:20:533,-0.172,0.368,1.01,497.314,-422.73,310.852,
00:00:20:550,-0.205,0.297,1.02,396.545,-442.261,325.683,
00:00:20:567,-0.24,0.236,0.975,319.275,-442.322,327.575,
00:00:20:583,-0.28,0.195,0.909,355.285,-436.036,315.979,
00:00:20:600,-0.308,0.237,0.917,439.087,-430.176,298.462,
00:00:20:617,-0.309,0.203,0.97,483.642,-436.829,269.531,
00:00:20:633,-0.289,0.102,1.002,458.923,-416.687,222.656,
00:00:20:650,-0.267,0.025,0.993,428.405,-378.907,174.377,
00:00:20:667,-0.266,-0.003,0.892,518.798,-353.516,117.859,
00:00:20:683,-0.35,0.11,0.806,659.79,-279.053,94.909,
00:00:20:700,-0.362,0.116,0.723,922.973,-214.722,62.805,
00:00:20:717,-0.363,0.054,0.725,1394.897,-107.727,3.906,
00:00:20:733,-0.337,0.029,0.723,1864.135,-24.292,-56.275,
00:00:20:750,-0.319,-0.028,0.701,1999.694,49.133,-120.362,
00:00:20:767,-0.314,-0.13,0.704,1999.694,116.882,-138.062,
00:00:20:783,-0.362,-0.261,0.729,1999.694,206.97,-100.586,
00:00:20:800,-0.359,-0.365,0.781,1999.694,280.639,-48.523,
00:00:20:817,-0.314,-0.415,0.855,1999.694,302.795,-7.691,
00:00:20:833,-0.278,-0.461,0.862,1999.694,245.178,18.249,
00:00:20:850,-0.281,-0.605,0.843,1966.735,134.094,34.057,
00:00:20:867,-0.292,-0.802,0.827,1632.568,50.476,38.513,
00:00:20:883,-0.284,-1,0.82,1138.916,-15.931,30.761,
00:00:20:900,-0.292,-1.104,0.811,695.495,-59.144,9.887,
00:00:20:917,-0.326,-1.089,0.807,356.506,-85.328,-21.607,
00:00:20:933,-0.35,-1.009,0.803,178.405,-102.112,-54.749,
00:00:20:950,-0.357,-0.921,0.79,2.502,-105.957,-61.829,
00:00:20:967,-0.347,-0.882,0.755,-184.082,-108.094,-63.599,
00:00:20:983,-0.354,-0.958,0.701,-533.02,-129.578,-61.097,
00:00:21:0,-0.365,-1.084,0.637,-1225.098,-128.54,-32.593,
00:00:21:17,-0.397,-1.061,0.66,-1990.052,-60.914,5.249,
00:00:21:33,-0.43,-0.782,0.731,-2000,114.685,26.855,
00:00:21:50,-0.411,-0.45,0.706,-2000,251.953,11.413,
00:00:21:67,-0.382,-0.244,0.659,-2000,311.889,-14.649,
00:00:21:83,-0.284,0.068,0.897,-2000,646.24,-319.153,
00:00:21:100,-0.107,0.161,1.074,-2000,721.496,-527.405,
00:00:21:117,-0.05,0.093,1.077,-1991.517,682.861,-662.903,
00:00:21:133,-0.24,0.076,0.87,-1948.06,733.093,-713.44,
00:00:21:150,-0.241,0.393,0.706,-1799.744,780.944,-639.466,
00:00:21:167,-0.043,0.761,0.744,-1197.51,565.734,-445.374,
00:00:21:183,0.087,0.86,0.899,-472.901,239.135,-223.938,
00:00:21:200,0.096,0.79,1.082,38.818,-50.171,-3.357,
00:00:21:217,0.013,0.545,1.05,257.019,-302.918,216.674,
00:00:21:233,-0.1,0.356,0.902,299.804,-420.655,363.83,
00:00:21:250,-0.207,0.26,0.79,345.642,-454.529,412.353,
00:00:21:267,-0.254,0.186,0.761,446.289,-438.416,358.947,
00:00:21:283,-0.268,0.091,0.749,456.604,-345.154,221.252,
00:00:21:300,-0.278,0.068,0.783,294.25,-177.43,27.221,
00:00:21:317,-0.266,-0.014,0.798,-17.945,39.123,-185.73,
00:00:21:333,-0.285,0.033,0.763,-282.288,264.892,-366.761,
00:00:21:350,-0.212,0.149,0.757,-469.422,417.846,-540.65,
00:00:21:367,-0.116,0.312,0.834,-591.187,511.291,-630.86,
00:00:21:383,-0.027,0.452,0.878,-660.828,514.282,-641.053,
00:00:21:400,0.03,0.609,0.871,-641.48,445.617,-550.782,
00:00:21:417,0.088,0.784,0.892,-474.549,325.927,-387.574,
00:00:21:433,0.154,0.939,0.994,-176.819,146.667,-160.889,
00:00:21:450,0.165,0.935,1.087,132.507,-101.197,90.637,
00:00:21:467,0.073,0.776,1.149,417.541,-296.387,295.837,
00:00:21:483,-0.02,0.617,1.11,574.035,-447.754,430.542,
00:00:21:500,-0.102,0.442,0.992,625.427,-556.336,518.982,
00:00:21:517,-0.169,0.278,0.827,629.272,-608.094,559.936,
00:00:21:533,-0.229,0.124,0.647,638.183,-535.279,493.591,
00:00:21:550,-0.324,0.101,0.581,580.383,-362.977,333.557,
00:00:21:567,-0.344,0.089,0.636,403.747,-88.623,86.731,saltLH
00:00:21:583,-0.247,0.051,0.83,122.009,171.325,-179.078,
00:00:21:600,-0.161,-0.037,0.921,-266.419,430.297,-416.077,
00:00:21:617,-0.135,0.158,0.959,-642.884,658.508,-607.178,
00:00:21:633,-0.036,0.321,0.986,-917.542,716.308,-685.181,
00:00:21:650,-0.013,0.339,0.865,-957.825,654.48,-661.622,
00:00:21:667,0.051,0.542,0.761,-839.783,595.886,-556.641,
00:00:21:683,0.204,0.979,0.82,-441.224,425.72,-300.477,
00:00:21:700,0.316,1.158,1.08,15.136,168.213,5.127,
00:00:21:717,0.256,0.891,1.169,481.811,-195.252,259.277,
00:00:21:733,0.002,0.617,1.212,644.958,-362.061,453.796,
00:00:21:750,-0.08,0.562,1.159,678.405,-484.131,602.844,
00:00:21:767,-0.102,0.419,1.031,723.877,-608.155,686.462,
00:00:21:783,-0.109,0.263,0.875,760.254,-681.275,718.322,
00:00:21:800,-0.092,0.105,0.75,801.574,-728.943,711.181,
00:00:21:817,-0.167,-0.05,0.574,803.1,-683.899,608.398,
00:00:21:833,-0.373,-0.116,0.501,691.955,-458.802,389.343,
00:00:21:850,-0.486,-0.132,0.645,379.028,-77.271,75.012,
00:00:21:867,-0.322,-0.111,0.902,-53.04,297.912,-209.473,
00:00:21:883,-0.157,-0.069,1.058,-497.437,598.755,-477.051,
00:00:21:900,-0.174,0.084,1.085,-873.719,776.794,-664.49,
00:00:21:917,-0.197,0.178,1.04,-1225.831,835.388,-753.968,
00:00:21:933,-0.164,0.317,0.85,-1341.309,811.889,-733.826,
00:00:21:950,-0.028,0.643,0.675,-1152.344,699.035,-581.788,
00:00:21:967,0.184,1.092,0.815,-677.491,498.901,-291.321,
00:00:21:983,0.303,1.297,1.172,-46.753,152.404,55.725,
00:00:22:0,0.226,0.93,1.299,511.963,-267.212,359.008,
00:00:22:17,-0.035,0.591,1.209,732.666,-473.389,576.172,
00:00:22:33,-0.144,0.487,1.114,766.54,-611.573,722.351,
00:00:22:50,-0.095,0.246,0.927,754.333,-741.394,773.376,
00:00:22:67,-0.152,0.061,0.728,688.72,-721.07,705.932,
00:00:22:83,-0.33,0.008,0.577,614.99,-523.072,509.643,
00:00:22:100,-0.452,-0.003,0.632,433.96,-239.808,204.589,
00:00:22:117,-0.346,-0.089,0.839,56.274,110.534,-67.505,
00:00:22:133,-0.225,-0.137,1.009,-367.859,414.795,-347.413,
00:00:22:150,-0.216,0.273,0.833,-1105.103,753.173,-698.182,
00:00:22:167,-0.115,0.496,0.754,-1018.311,676.88,-607.544,
00:00:22:183,0.062,0.789,0.755,-787.171,526.306,-390.748,
00:00:22:200,0.191,1.056,0.954,-334.229,258.789,-113.892,
00:00:22:217,0.23,0.985,1.219,122.009,-88.623,208.374,
00:00:22:233,0.08,0.656,1.147,449.951,-402.405,439.819,
00:00:22:250,-0.126,0.509,1.087,583.191,-552.002,599.426,
00:00:22:267,-0.181,0.37,0.934,670.227,-648.56,651.245,
00:00:22:283,-0.256,0.181,0.776,696.655,-649.781,548.889,
00:00:22:300,-0.334,0.062,0.676,520.141,-479.31,369.995,
00:00:22:317,-0.361,0.03,0.72,165.344,-193.116,141.906,
00:00:22:333,-0.314,0.039,0.82,-159.729,115.966,-111.512,
00:00:22:350,-0.264,0.111,0.863,-423.157,367.492,-331.238,
00:00:22:367,-0.221,0.268,0.87,-652.344,534.057,-499.634,
00:00:22:383,-0.225,0.276,0.842,-774.842,600.341,-594.727,
00:00:22:400,-0.149,0.404,0.79,-862.793,604.797,-592.957,
00:00:22:417,-0.016,0.597,0.749,-812.5,524.231,-468.445,
00:00:22:433,0.119,0.816,0.801,-515.748,351.989,-266.602,
00:00:22:450,0.018,0.594,1.065,542.541,-407.898,465.332,
00:00:22:467,-0.071,0.415,0.935,700.439,-560.364,569.458,
00:00:22:483,-0.343,0.077,0.655,356.445,-200.257,159.423,
00:00:22:500,-0.319,0.088,0.742,-27.1,145.263,-99.61,
00:00:22:517,-0.268,0.105,0.808,-335.633,415.832,-347.474,
00:00:22:533,-0.227,0.192,0.823,-580.14,648.01,-562.928,
00:00:22:550,-0.203,0.259,0.835,-772.828,752.868,-688.904,
00:00:22:567,-0.132,0.409,0.813,-883.851,779.602,-703.858,
00:00:22:583,0.003,0.657,0.736,-808.228,674.499,-592.957,
00:00:22:600,0.331,0.853,1.158,250.915,-114.075,265.747,
00:00:22:617,0.155,0.654,1.129,651.733,-375.489,480.346,
00:00:22:633,0.081,0.507,1.071,911.377,-606.507,643.371,
00:00:22:650,0.018,0.274,0.938,992.675,-745.423,678.894,
00:00:22:667,-0.179,0.129,0.769,917.114,-689.637,550.903,
00:00:22:683,-0.291,0.124,0.902,-140.809,200.561,-190.308,
00:00:22:700,-0.223,0.189,0.882,-456.665,440.918,-402.955,
00:00:22:717,-0.188,0.271,0.831,-622.559,619.934,-577.271,
00:00:22:733,-0.131,0.354,0.819,-710.572,705.261,-667.359,
00:00:22:750,-0.001,0.506,0.827,-727.173,702.148,-663.941,
00:00:22:767,0.14,0.665,0.874,-703.553,599.304,-544.495,
00:00:22:783,0.255,0.805,0.948,-561.585,413.025,-328.98,
00:00:22:800,0.332,0.878,1.069,-273.255,151.367,-55.787,
00:00:22:817,0.331,0.831,1.105,153.259,-128.663,199.524,
00:00:22:833,0.183,0.681,1.093,540.466,-371.705,402.343,
00:00:22:850,0.096,0.524,1.072,790.466,-546.692,517.089,
00:00:22:867,-0.43,0.208,0.694,455.444,-301.758,226.379,
00:00:22:883,-0.407,0.186,0.83,67.443,28.869,-7.447,
00:00:22:900,-0.223,0.212,0.993,-378.052,314.209,-231.324,
00:00:22:917,-0.114,0.38,1.002,-661.377,505.066,-391.053,
00:00:22:933,-0.109,0.437,0.947,-797.364,531.799,-460.083,
00:00:22:950,-0.082,0.455,0.865,-784.424,511.352,-444.764,
00:00:22:967,0.027,0.547,0.754,-651.001,421.814,-338.99,
00:00:22:983,0.163,0.742,0.807,-392.823,277.588,-149.17,
00:00:23:0,0.28,0.859,1.004,-109.498,39.672,89.477,
00:00:23:17,0.257,0.671,1.075,203.43,-206.543,279.297,
00:00:23:33,0.011,0.368,0.934,637.573,-524.964,489.685,
00:00:23:50,-0.257,0.084,0.817,84.961,-85.816,-4.822,
00:00:23:67,-0.209,0.14,0.885,-340.821,211.303,-237.183,
00:00:23:83,-0.136,0.257,0.894,-605.835,402.588,-437.5,
00:00:23:100,-0.079,0.403,0.931,-804.2,476.44,-533.57,
00:00:23:117,-0.045,0.485,0.891,-883.057,466.186,-518.006,
00:00:23:133,0.237,1.018,0.806,-112.671,22.522,49.865,
00:00:23:150,0.293,0.906,0.899,410.156,-284.607,330.932,
00:00:23:167,0.157,0.671,1.034,836.12,-503.54,519.958,
00:00:23:183,0.096,0.464,0.998,1051.025,-717.591,650.024,
00:00:23:200,0.024,0.247,0.862,1083.007,-852.234,720.398,
00:00:23:217,-0.058,0.116,0.694,1066.101,-917.298,731.689,
00:00:23:233,-0.148,0.009,0.55,1055.908,-935.608,690.857,
00:00:23:250,-0.328,-0.035,0.562,942.26,-802.185,553.65,
00:00:23:267,-0.434,-0.02,0.816,429.26,-283.692,103.82,
00:00:23:283,-0.438,-0.036,0.838,134.765,-23.621,-107.911,
00:00:23:300,-0.24,0.192,0.985,-780.152,647.583,-660.95,
00:00:23:317,-0.168,0.305,1.007,-958.252,697.998,-714.661,
00:00:23:333,-0.029,0.494,0.993,-1049.012,628.296,-641.663,
00:00:23:350,0.072,0.777,0.997,-897.339,480.835,-452.881,
00:00:23:367,0.111,1.034,1.07,-413.086,241.821,-214.783,
00:00:23:383,-0.104,0.522,1.175,898.193,-497.986,405.395,
00:00:23:400,-0.166,0.329,1.067,901.367,-620.24,475.097,
00:00:23:417,-0.182,0.18,0.947,755.432,-684.998,536.499,
00:00:23:433,-0.15,0.062,0.783,648.376,-726.746,564.392,
00:00:23:450,-0.199,0.005,0.652,628.845,-726.197,543.029,
00:00:23:467,-0.287,-0.009,0.597,646.911,-648.377,466.43,
00:00:23:483,-0.388,-0.038,0.563,689.819,-513.123,344.726,
00:00:23:500,-0.507,-0.107,0.523,673.034,-316.651,180.053,
00:00:23:517,-0.587,-0.112,0.601,481.079,0.061,-46.57,
00:00:23:533,-0.49,-0.068,0.793,6.408,382.507,-285.462,
00:00:23:550,-0.309,0.062,1.048,-509.949,711.059,-523.255,
00:00:23:567,-0.245,0.191,0.873,-1490.479,1047.973,-871.155,
00:00:23:583,-0.06,0.586,0.81,-1415.833,986.328,-767.579,
00:00:23:600,0.209,1.034,1.004,-1060.486,763.366,-491.883,
00:00:23:617,0.275,1.146,1.233,-422.12,374.511,-188.843,
00:00:23:633,0.143,0.957,1.279,138.855,-6.165,136.291,
00:00:23:650,-0.04,0.718,1.235,495.605,-254.273,393.493,
00:00:23:667,-0.087,0.488,1.143,665.771,-464.844,582.519,
00:00:23:683,-0.143,0.196,1.014,694.336,-591.187,629.15,
00:00:23:700,-0.25,0.032,0.858,565.063,-556.763,537.231,
00:00:23:717,-0.312,-0.012,0.764,282.409,-349.671,320.251,
00:00:23:733,-0.331,0.023,0.744,-94.666,-64.82,72.265,
00:00:23:750,-0.32,-0.019,0.78,-421.692,221.435,-206.727,
00:00:23:767,-0.266,0.048,0.815,-608.643,439.88,-413.025,
00:00:23:783,-0.163,0.209,0.878,-741.15,529.113,-535.34,
00:00:23:800,-0.101,0.352,0.91,-746.644,487.304,-530.64,
00:00:23:817,-0.078,0.473,0.814,-572.388,392.212,-430.237,
00:00:23:833,-0.06,0.64,0.76,-297.181,253.662,-257.142,
00:00:23:850,0.025,0.789,0.876,24.963,91.552,-17.029,
00:00:23:867,0.06,0.692,0.978,385.864,-154.419,225.036,
00:00:23:883,-0.027,0.515,1.01,660.095,-353.455,429.565,
00:00:23:900,-0.136,0.3,0.956,798.034,-499.451,544.372,
00:00:23:917,-0.2,0.115,0.858,857.238,-553.406,574.035,
00:00:23:933,-0.25,-0.073,0.756,864.318,-523.133,475.708,
00:00:23:950,-0.299,-0.222,0.79,650.268,-337.952,247.924,
00:00:23:967,-0.288,-0.122,0.859,302.673,-43.702,0.061,
00:00:23:983,-0.214,-0.002,0.892,-64.942,227.478,-277.832,
00:00:24:0,-0.216,0.168,0.937,-336.548,435.547,-515.686,
00:00:24:17,-0.17,0.165,0.986,-629.151,547.79,-672.303,
00:00:24:33,-0.17,0.264,0.99,-823.182,606.75,-711.121,
00:00:24:50,-0.11,0.435,0.917,-822.876,543.457,-646.119,
00:00:24:67,-0.011,0.693,0.862,-525.208,400.695,-452.515,
00:00:24:83,0.072,0.958,1.006,-80.75,176.818,-180.603,
00:00:24:100,0.103,0.905,1.112,295.349,-116.761,95.642,
00:00:24:117,-0.056,0.616,1.183,554.931,-321.839,307.19,
00:00:24:133,-0.137,0.428,1.141,669.86,-450.684,446.106,
00:00:24:150,-0.171,0.283,1.017,675.109,-531.8,538.879,
00:00:24:167,-0.216,0.149,0.867,643.859,-520.63,523.254,
00:00:24:183,-0.183,0.021,0.97,-131.836,198.486,-200.806,
00:00:24:200,-0.052,0.038,1.083,-507.996,441.65,-466.553,
00:00:24:217,-0.099,0.122,1.09,-889.649,595.214,-637.635,
00:00:24:233,-0.147,0.177,0.987,-1124.939,645.691,-699.28,
00:00:24:250,-0.086,0.408,0.93,-1096.558,582.702,-618.897,
00:00:24:267,0.138,0.885,1.012,335.998,-212.586,201.233,
00:00:24:283,0.001,0.61,1.122,649.841,-422.913,454.467,
00:00:24:300,-0.068,0.416,1.071,796.936,-591.675,592.041,
00:00:24:317,-0.129,0.169,0.929,803.833,-701.783,685.852,
00:00:24:333,-0.204,0.008,0.698,775.512,-674.927,624.206,
00:00:24:350,-0.149,-0.03,0.928,-319.764,272.461,-256.714,
00:00:24:367,-0.122,-0.015,0.999,-721.436,561.462,-555.054,
00:00:24:383,-0.124,0.037,1.001,-1110.718,712.463,-737.366,
00:00:24:400,-0.116,0.224,0.915,-1225.708,723.449,-744.629,
00:00:24:417,0.118,1.06,0.932,101.074,4.089,-7.203,
00:00:24:433,0.114,0.852,1.101,584.228,-315.979,308.776,
00:00:24:450,-0.092,0.53,1.109,853.942,-540.406,530.944,
00:00:24:467,-0.204,0.31,0.958,957.336,-667.237,659.423,
00:00:24:483,-0.294,0.075,0.798,977.6,-670.35,617.675,
00:00:24:500,-0.138,0.04,0.938,-137.024,164.367,-144.532,
00:00:24:517,-0.243,0.04,0.95,-497.193,409.057,-415.039,
00:00:24:533,-0.21,0.082,0.948,-870.728,580.261,-558.655,
00:00:24:550,-0.144,0.263,0.932,-1007.386,600.891,-555.481,
00:00:24:567,-0.075,0.454,0.896,-871.705,456.604,-460.694,
00:00:24:583,-0.026,0.743,1.062,526.428,-272.644,277.71,
00:00:24:600,-0.141,0.522,1.104,789.428,-427.43,445.495,
00:00:24:617,-0.174,0.278,1.013,893.676,-574.646,562.805,
00:00:24:633,-0.236,0.084,0.823,882.08,-598.267,564.209,
00:00:24:650,-0.309,-0.038,0.731,711.364,-498.719,409.057,
00:00:24:667,-0.304,-0.111,0.81,294.494,-206.788,148.986,
00:00:24:683,-0.18,-0.077,0.938,-217.286,118.286,-111.39,
00:00:24:700,-0.167,-0.056,0.98,-552.124,378.662,-383.667,
00:00:24:717,-0.206,0.014,0.95,-836.06,555.725,-596.07,
00:00:24:733,-0.182,0.176,0.938,-1008.057,653.503,-690.125,
00:00:24:750,-0.103,0.416,0.944,-1017.273,586.425,-669.922,
00:00:24:767,-0.038,0.63,0.911,-848.694,436.706,-548.035,
00:00:24:783,-0.005,0.892,1.113,330.139,-223.633,252.258,
00:00:24:800,-0.08,0.669,1.106,653.442,-413.819,463.867,
00:00:24:817,-0.149,0.45,1.022,838.501,-554.627,580.749,
00:00:24:833,-0.198,0.302,0.913,883.667,-614.747,638.549,
00:00:24:850,-0.226,0.185,0.799,822.57,-611.329,605.529,
00:00:24:867,-0.302,0.022,0.742,630.188,-504.395,455.078,
00:00:24:883,-0.36,-0.046,0.766,278.015,-246.888,224.121,
00:00:24:900,-0.309,-0.03,0.829,-143.128,93.383,-21.424,
00:00:24:917,-0.247,-0.005,0.893,-450.135,370.788,-276.734,
00:00:24:933,-0.207,0.084,0.921,-704.529,554.87,-466.126,
00:00:24:950,-0.193,0.095,0.928,-890.992,650.146,-606.995,
00:00:24:967,0.011,0.618,0.817,-888.55,422.424,-400.025,
00:00:24:983,0.074,0.872,0.859,-420.044,194.702,-130.738,
00:00:25:0,0.117,0.951,0.968,156.433,-112.671,174.194,
00:00:25:17,0.05,0.715,1.068,745.239,-392.762,393.676,
00:00:25:33,-0.088,0.418,1.043,1043.701,-598.755,541.076,
00:00:25:50,-0.187,0.164,0.914,1070.373,-702.149,621.154,
00:00:25:67,-0.279,0.015,0.737,949.768,-683.777,580.017,
00:00:25:83,-0.41,-0.082,0.645,738.281,-478.882,368.347,
00:00:25:100,-0.423,-0.069,0.717,320.434,-146.058,83.923,
00:00:25:117,-0.276,-0.03,0.88,-147.034,224.304,-235.718,
00:00:25:133,-0.209,-0.052,0.918,-595.887,524.597,-513.245,
00:00:25:150,-0.21,-0.02,0.897,-960.267,742.492,-750.184,
00:00:25:167,-0.197,0.091,0.833,-1145.936,862.487,-868.775,
00:00:25:183,-0.072,0.338,0.805,-1176.087,828.918,-882.019,
00:00:25:200,0.089,0.78,0.834,-1060.547,663.818,-694.275,
00:00:25:217,0.2,1.002,0.9,-652.588,378.601,-389.344,
00:00:25:233,0.227,1.082,1.097,-34.729,44.372,-43.702,
00:00:25:250,-0.049,0.399,1.049,1170.105,-744.69,656.311,
00:00:25:267,-0.126,0.152,0.945,1090.149,-824.036,715.271,
00:00:25:283,-0.175,0.04,0.792,866.516,-785.279,689.453,
00:00:25:300,-0.322,-0.042,0.664,672.973,-628.54,505.493,
00:00:25:317,-0.434,-0.067,0.786,316.04,-283.997,160.522,
00:00:25:333,-0.317,-0.082,0.991,-125.977,66.467,-191.102,
00:00:25:350,-0.238,-0.033,0.972,-566.346,410.339,-487.61,
00:00:25:367,-0.253,0.127,0.861,-901.795,645.263,-697.083,
00:00:25:383,-0.276,0.181,0.816,-1016.419,738.647,-802.491,
00:00:25:400,-0.158,0.416,0.823,-990.357,721.252,-799.5,
00:00:25:417,0.018,0.711,0.874,-837.952,583.007,-609.925,
00:00:25:433,0.112,0.927,0.99,-479.248,327.209,-326.783,
00:00:25:450,0.14,1.02,1.131,-83.13,47.912,6.286,
00:00:25:467,0.095,0.896,1.164,346.13,-253.785,278.686,
00:00:25:483,0.01,0.598,1.121,678.1,-470.337,464.172,
00:00:25:500,-0.068,0.356,1.034,864.99,-589.905,535.705,
00:00:25:517,-0.13,0.145,0.884,823.364,-657.654,545.654,
00:00:25:533,-0.2,0.018,0.736,599.121,-596.253,489.196,
00:00:25:550,-0.32,-0.034,0.653,306.884,-376.526,322.57,
00:00:25:567,-0.382,0.01,0.742,26.062,-52.185,36.377,saltLH
00:00:25:583,-0.257,0.005,0.854,-274.292,209.838,-244.751,
00:00:25:600,-0.213,0.041,0.793,-571.045,496.887,-482.361,
00:00:25:617,-0.224,0.186,0.692,-781.006,683.532,-627.991,
00:00:25:633,-0.149,0.238,0.74,-803.162,739.441,-716.675,
00:00:25:650,0,0.423,0.856,-811.89,702.819,-679.993,
00:00:25:667,0.141,0.66,0.872,-715.271,549.072,-494.507,
00:00:25:683,0.193,0.876,0.881,-393.677,302.368,-239.136,
00:00:25:700,0.231,0.911,0.957,68.542,26.062,43.945,
00:00:25:717,0.193,0.783,1.061,488.098,-251.831,316.223,
00:00:25:733,0.093,0.563,1.111,800.72,-458.741,476.135,
00:00:25:750,-0.002,0.323,1.069,945.251,-601.99,573.12,
00:00:25:767,-0.09,0.166,0.932,949.646,-672.486,606.689,
00:00:25:783,-0.192,0.064,0.763,873.535,-643.799,533.874,
00:00:25:800,-0.421,-0.025,0.666,711.731,-438.172,315.612,
00:00:25:817,-0.525,-0.075,0.788,314.514,-111.145,14.831,
00:00:25:833,-0.298,-0.065,1.042,-273.865,271.24,-318.604,
00:00:25:850,-0.146,0.032,1.08,-760.071,566.955,-591.797,
00:00:25:867,-0.176,0.162,0.988,-1096.802,741.577,-803.284,
00:00:25:883,-0.165,0.195,0.894,-1196.045,789.123,-886.658,
00:00:25:900,-0.008,0.467,0.875,-1199.891,756.042,-852.356,
00:00:25:917,0.197,0.87,0.852,-965.455,555.481,-604.737,
00:00:25:933,0.281,1.054,0.943,-458.68,244.201,-315.918,
00:00:25:950,0.254,1.034,1.047,113.586,-93.323,5.92,
00:00:25:967,0.138,0.853,1.096,522.094,-336.426,300.537,
00:00:25:983,0.06,0.613,1.075,808.41,-551.453,474.06,
00:00:26:0,-0.024,0.339,0.997,896.24,-672.181,577.942,
00:00:26:17,-0.067,0.209,0.864,878.418,-726.99,623.535,
00:00:26:33,-0.175,0.087,0.717,834.716,-718.75,562.805,
00:00:26:50,-0.356,-0.054,0.641,714.111,-567.933,370.483,
00:00:26:67,-0.458,-0.123,0.752,384.155,-254.029,77.453,
00:00:26:83,-0.277,-0.104,0.929,-84.168,86.12,-232.3,
00:00:26:100,-0.143,-0.053,0.951,-519.654,373.047,-497.62,
00:00:26:117,-0.149,0.071,0.89,-818.36,564.392,-709.168,
00:00:26:133,-0.137,0.095,0.837,-970.276,641.235,-816.773,
00:00:26:150,-0.005,0.347,0.853,-1041.932,628.784,-804.139,
00:00:26:167,0.149,0.745,0.88,-904.297,477.111,-603.516,
00:00:26:183,0.225,0.958,0.939,-439.454,173.095,-352.112,
00:00:26:200,0.203,0.962,1.039,71.472,-142.823,-69.642,
00:00:26:217,0.121,0.809,1.106,450.195,-380.127,185.608,
00:00:26:233,0.014,0.625,1.092,695.556,-559.021,368.53,
00:00:26:250,-0.087,0.435,0.994,770.935,-669.373,481.262,
00:00:26:267,-0.19,0.224,0.856,749.817,-712.891,496.582,
00:00:26:283,-0.305,0.062,0.686,667.175,-610.84,403.137,
00:00:26:300,-0.423,0.051,0.683,447.815,-362.488,173.339,
00:00:26:317,-0.329,0.08,0.846,59.082,-23.255,-119.751,
00:00:26:333,-0.211,0.013,0.963,-345.337,254.394,-406.922,
00:00:26:350,-0.206,0.062,0.92,-699.83,518.249,-652.283,
00:00:26:367,-0.156,0.199,0.865,-939.698,665.222,-800.721,
00:00:26:383,-0.035,0.456,0.86,-1054.932,693.969,-835.999,
00:00:26:400,0.098,0.626,0.868,-1001.832,576.11,-733.338,
00:00:26:417,0.183,0.751,0.853,-794.007,397.155,-564.881,
00:00:26:433,0.199,0.99,0.906,-436.402,190.918,-299.988,
00:00:26:450,0.207,1.068,0.976,6.591,-67.2,4.455,
00:00:26:467,0.098,0.85,1.013,383.972,-296.814,236.267,
00:00:26:483,-0.012,0.614,0.979,585.388,-419.739,409.057,
00:00:26:500,-0.105,0.442,0.893,697.631,-497.071,498.169,
00:00:26:517,-0.169,0.318,0.754,741.882,-510.926,509.46,
00:00:26:533,-0.247,0.183,0.605,692.443,-419.19,390.014,
00:00:26:550,-0.338,0.109,0.635,396.972,-166.077,146.606,
00:00:26:567,-0.288,0.098,0.81,-86.365,139.587,-93.201,
00:00:26:583,-0.188,0.143,0.923,-582.398,435.363,-299.988,
00:00:26:600,-0.136,0.31,0.918,-903.26,632.629,-480.103,
00:00:26:617,-0.062,0.367,0.902,-1106.69,661.071,-567.505,
00:00:26:633,0.052,0.368,0.859,-1175.904,607.422,-564.454,
00:00:26:650,0.178,0.578,0.756,-995.423,510.192,-440.064,
00:00:26:667,0.29,0.977,0.686,-446.412,270.568,-169.678,
00:00:26:683,0.355,1.161,0.802,165.588,-40.223,181.884,
00:00:26:700,0.267,0.829,0.882,672.851,-365.174,435.424,
00:00:26:717,0.057,0.489,0.992,818.359,-529.358,619.567,
00:00:26:733,-0.043,0.306,0.964,846.313,-621.888,733.337,
00:00:26:750,-0.127,0.155,0.795,871.399,-631.226,680.297,
00:00:26:767,-0.254,0.033,0.661,739.99,-494.629,424.072,
00:00:26:783,-0.363,0.074,0.71,299.56,-154.114,134.277,
00:00:26:800,-0.307,0.057,0.857,-190.735,203.857,-199.524,
00:00:26:817,-0.194,0.114,0.913,-578.614,478.088,-478.943,
00:00:26:833,-0.085,0.232,0.946,-827.21,587.341,-635.254,
00:00:26:850,0.005,0.363,0.872,-879.09,571.106,-656.922,
00:00:26:867,0.072,0.619,0.791,-662.842,460.693,-551.88,
00:00:26:883,0.195,0.971,0.834,-245.118,259.033,-290.223,
00:00:26:900,0.244,1.13,1.027,285.888,-40.711,10.131,
00:00:26:917,0.162,0.917,1.172,717.956,-339.417,298.767,
00:00:26:933,-0.014,0.676,1.139,1000.244,-528.26,485.534,
00:00:26:950,-0.072,0.494,1.094,1158.02,-698.121,623.535,
00:00:26:967,-0.065,0.218,0.909,1289.062,-832.581,668.213,
00:00:26:983,-0.179,0.018,0.705,1352.905,-818.055,577.636,
00:00:27:0,-0.319,-0.145,0.577,1211.731,-675.66,304.138,
00:00:27:17,-0.403,-0.176,0.806,568.054,-269.288,-27.955,
00:00:27:33,-0.133,-0.098,1.028,-312.378,179.26,-324.891,
00:00:27:50,-0.13,-0.002,1.048,-820.374,488.037,-594.544,
00:00:27:67,-0.172,0.157,1.009,-1209.656,662.902,-762.269,
00:00:27:83,-0.124,0.226,0.846,-1322.083,624.755,-745.179,
00:00:27:100,-0.021,0.387,0.765,-1160.34,494.445,-656.495,
00:00:27:117,0.108,0.92,0.76,-674.012,335.022,-392.151,
00:00:27:133,0.228,1.183,0.946,139.77,0.61,-91.98,
00:00:27:150,0.161,0.919,1.192,780.456,-382.142,198.73,
00:00:27:167,-0.044,0.565,1.168,1057.312,-594.422,398.681,
00:00:27:183,-0.122,0.373,1.065,1158.386,-764.222,565.612,
00:00:27:200,-0.117,0.17,0.851,1194.152,-888.123,676.33,
00:00:27:217,-0.174,0.006,0.633,1284.668,-922.669,661.377,
00:00:27:233,-0.284,-0.056,0.487,1388.916,-751.648,544.128,
00:00:27:250,-0.402,-0.076,0.45,1416.626,-545.227,263.549,
00:00:27:267,-0.532,-0.197,0.669,819.824,-159.424,-19.288,
00:00:27:283,-0.352,-0.272,1.074,-218.628,372.07,-297.852,
00:00:27:300,-0.177,-0.025,1.131,-1263.794,844.299,-485.596,
00:00:27:317,-0.251,0.094,1.067,-1934.205,1003.662,-631.958,
00:00:27:333,-0.365,0.014,0.791,-2000,1035.156,-677.247,
00:00:27:350,-0.231,0.517,0.657,-1961.67,1042.968,-583.558,
00:00:27:367,0.113,1.315,0.803,-1061.097,773.01,-261.841,
00:00:27:383,0.402,1.263,1.125,212.829,145.996,94.055,
00:00:27:400,0.227,0.727,1.329,815.857,-210.572,371.46,
00:00:27:417,0,0.53,1.247,1124.084,-429.749,623.657,
00:00:27:433,-0.135,0.468,1.117,1486.999,-595.887,783.02,
00:00:27:450,-0.082,0.276,0.984,1953.125,-832.764,835.998,
00:00:27:467,-0.059,-0.152,0.695,1999.572,-1165.528,771.545,
00:00:27:483,-0.359,-0.598,0.481,1638.855,-1055.787,534.484,
00:00:27:500,-0.701,-0.806,0.574,597.839,-526.795,305.114,
00:00:27:517,-0.476,-0.431,0.96,-586.976,166.931,11.84,
00:00:27:533,-0.111,-0.107,1.106,-1154.786,565.185,-335.755,
00:00:27:550,-0.252,-0.131,1.096,-1402.894,744.323,-598.023,
00:00:27:567,-0.407,-0.149,0.993,-1831.055,925.72,-733.704,
00:00:27:583,-0.345,0.235,0.769,-1899.354,922.729,-680.542,
00:00:27:600,-0.179,0.829,0.658,-1365.601,721.435,-430.909,
00:00:27:617,0.021,1.05,0.82,-260.437,303.894,-190.308,
00:00:27:633,0.079,0.994,1.15,508.3,-76.355,145.08,
00:00:27:650,0.005,0.651,1.267,994.506,-403.626,406.616,
00:00:27:667,-0.139,0.307,1.117,1214.05,-655.701,575.805,
00:00:27:683,-0.187,0.099,0.874,1202.087,-769.898,672.302,
00:00:27:700,-0.231,-0.116,0.713,1106.445,-769.593,598.632,
00:00:27:717,-0.287,-0.292,0.651,805.175,-550.538,354.858,
00:00:27:733,-0.342,-0.259,0.864,116.699,-91.736,78.125,
00:00:27:750,-0.209,-0.08,1.092,-1054.871,655.822,-482.178,
00:00:27:767,-0.258,0.07,1.036,-1493.348,868.103,-660.706,
00:00:27:783,-0.286,0.114,0.857,-1620.85,875.732,-652.222,
00:00:27:800,-0.194,0.335,0.822,-1487.793,731.079,-543.824,
00:00:27:817,-0.044,0.83,0.767,-988.77,522.033,-236.39,
00:00:27:833,0.05,1.178,0.984,4.089,172.241,82.214,
00:00:27:850,0.087,0.986,1.217,1002.746,-301.514,430.481,
00:00:27:867,-0.104,0.497,1.219,1851.501,-659.546,605.957,
00:00:27:883,-0.247,0.169,1.054,1999.694,-916.26,664.978,
00:00:27:900,-0.168,-0.11,0.859,1999.694,-1324.83,631.713,
00:00:27:917,-0.246,-0.584,0.721,1861.023,-1432.129,496.826,
00:00:27:933,-0.478,-0.875,0.601,572.143,-984.986,355.224,
00:00:27:950,-0.526,-0.454,0.708,-677.552,-191.102,148.315,
00:00:27:967,-0.296,-0.072,0.87,-1066.529,284.729,-250.855,
00:00:27:983,-0.265,-0.126,0.958,-1147.217,571.594,-573.121,
00:00:28:0,-0.323,0.06,0.991,-1483.887,883.85,-801.27,
00:00:28:17,-0.351,0.183,0.915,-1617.432,880.493,-763.611,
00:00:28:33,-0.3,0.36,0.802,-1517.334,697.815,-645.935,
00:00:28:50,-0.249,0.476,0.687,-1138.184,534.24,-449.036,
00:00:28:67,-0.118,1.088,0.801,-505.555,341.674,-110.596,
00:00:28:83,0.031,1.192,1.086,247.68,-57.19,294.372,
00:00:28:100,-0.036,0.591,1.138,943.786,-458.619,520.202,
00:00:28:117,-0.152,0.207,1.084,1286.071,-687.256,673.828,
00:00:28:133,-0.192,0.006,0.962,1388.672,-857.117,736.572,
00:00:28:150,-0.174,-0.223,0.816,1163.513,-923.096,709.228,
00:00:28:167,-0.307,-0.41,0.661,730.102,-730.652,519.775,
00:00:28:183,-0.516,-0.361,0.692,75.378,-252.198,225.036,
00:00:28:200,-0.447,-0.165,0.911,-532.166,256.897,-151.001,
00:00:28:217,-0.274,0.001,1.099,-956.971,639.648,-471.131,
00:00:28:233,-0.286,0.051,1.101,-1235.596,790.222,-657.654,
00:00:28:250,-0.369,0.092,0.949,-1325.806,810.852,-672.852,
00:00:28:267,-0.326,0.358,0.785,-1105.408,722.534,-576.661,
00:00:28:283,-0.191,0.821,0.723,-582.947,536.621,-336.67,
00:00:28:300,-0.039,0.953,0.972,124.939,226.257,-68.543,
00:00:28:317,-0.007,0.668,1.228,545.532,-100.342,213.44,
00:00:28:333,-0.101,0.333,1.201,653.381,-357.605,416.748,
00:00:28:350,-0.164,0.181,1.069,614.013,-467.652,540.283,
00:00:28:367,-0.161,0.048,0.904,594.604,-513.855,542.663,
00:00:28:383,-0.237,-0.084,0.793,531.311,-415.955,395.446,
00:00:28:400,-0.361,-0.112,0.794,313.11,-137.696,112.915,
00:00:28:417,-0.265,-0.054,1.029,-649.842,558.471,-457.886,
00:00:28:433,-0.295,0.033,1.024,-1116.272,791.626,-637.513,
00:00:28:450,-0.277,0.057,0.869,-1356.568,872.131,-692.444,
00:00:28:467,-0.196,0.381,0.753,-1325.135,838.073,-644.715,
00:00:28:483,0.023,0.838,0.839,-1000.733,634.521,-426.636,
00:00:28:500,0.132,0.944,1.132,-396.424,296.386,-164.429,
00:00:28:517,0.096,0.728,1.193,54.321,-66.651,172.668,
00:00:28:533,-0.071,0.652,1.132,359.619,-299.744,442.749,
00:00:28:550,-0.109,0.448,1.072,656.738,-543.641,625.488,
00:00:28:567,-0.136,0.114,1.017,788.94,-686.89,676.574,
00:00:28:583,-0.17,-0.082,0.879,763.733,-687.012,567.199,
00:00:28:600,-0.271,-0.112,0.768,530.456,-470.887,261.108,
00:00:28:617,-0.308,-0.025,0.786,93.872,-119.751,-64.026,
00:00:28:633,-0.289,-0.018,0.887,-382.264,238.708,-403.382,
00:00:28:650,-0.294,0.116,0.886,-761.902,530.883,-650.513,
00:00:28:667,-0.217,0.218,0.868,-985.718,665.344,-767.884,
00:00:28:683,-0.115,0.5,0.812,-1034.119,668.213,-720.887,
00:00:28:700,-0.053,0.739,0.797,-831.543,501.037,-525.574,
00:00:28:717,0.039,0.988,0.878,-371.399,267.273,-219.91,
00:00:28:733,0.125,1.062,1.048,172.485,-42.176,149.841,
00:00:28:750,0.067,0.866,1.081,701.721,-381.226,496.276,
00:00:28:767,-0.082,0.565,1.008,1030.029,-608.765,737.487,
00:00:28:783,-0.086,0.278,0.937,1212.28,-852.906,866.821,
00:00:28:800,-0.071,-0.074,0.813,1126.098,-957.154,895.446,
00:00:28:817,-0.223,-0.195,0.686,899.353,-820.008,724.243,
00:00:28:833,-0.39,-0.215,0.666,587.341,-488.892,359.558,
00:00:28:850,-0.438,-0.142,0.841,98.877,-9.888,-68.116,
00:00:28:867,-0.323,-0.165,0.968,-474.488,415.405,-421.387,
00:00:28:883,-0.304,0.053,0.86,-1175.721,887.878,-849.976,
00:00:28:900,-0.182,0.412,0.785,-1229.737,876.648,-809.632,
00:00:28:917,-0.056,0.748,0.785,-1025.147,686.218,-609.375,
00:00:28:933,0.004,0.938,0.91,-530.884,419.799,-340.088,
00:00:28:950,0.104,1.045,1.171,-75.074,108.276,31.799,
00:00:28:967,0.092,0.785,1.116,407.409,-227.051,350.891,
00:00:28:983,-0.1,0.618,0.987,766.113,-429.566,589.843,
00:00:29:0,-0.085,0.339,0.893,1078.735,-624.146,692.505,
00:00:29:17,-0.171,0.075,0.839,1132.324,-696.595,664.795,
00:00:29:33,-0.278,-0.146,0.733,917.724,-582.337,482.605,
00:00:29:50,-0.355,-0.184,0.82,428.955,-210.144,172.912,
00:00:29:67,-0.239,-0.13,0.942,-141.907,198.974,-142.518,
00:00:29:83,-0.219,-0.167,0.947,-607.605,505.981,-445.435,
00:00:29:100,-0.266,-0.126,0.915,-937.928,737.732,-685.669,
00:00:29:117,-0.219,0.066,0.902,-1137.574,824.463,-764.771,
00:00:29:133,-0.12,0.435,0.863,-1112,710.083,-695.618,
00:00:29:150,-0.046,0.846,0.917,-847.413,511.352,-480.408,
00:00:29:167,0.049,0.982,1.047,-301.636,165.588,-194.581,
00:00:29:183,0.06,0.821,1.13,212.768,-153.504,103.942,
00:00:29:200,-0.062,0.71,1.109,653.015,-390.564,351.684,
00:00:29:217,-0.126,0.492,0.986,993.591,-601.075,496.643,
00:00:29:233,-0.201,0.26,0.891,1185.791,-721.009,505.127,
00:00:29:250,-0.269,-0.018,0.764,1089.172,-714.844,408.447,
00:00:29:267,-0.393,-0.133,0.769,673.401,-488.831,192.138,
00:00:29:283,-0.38,-0.098,0.829,38.33,-107.361,-16.663,
00:00:29:300,-0.272,-0.002,0.879,-425.782,248.108,-265.809,
00:00:29:317,-0.254,0.065,0.858,-732.544,515.503,-514.466,
00:00:29:333,-0.223,0.128,0.876,-942.688,697.937,-683.228,
00:00:29:350,-0.141,0.161,0.916,-1044.556,757.812,-771.79,
00:00:29:367,-0.083,0.395,0.894,-1065.064,701.66,-729.248,
00:00:29:383,0.002,0.805,0.855,-938.416,551.208,-518.25,
00:00:29:400,0.119,1.007,0.974,-528.077,271.179,-244.873,
00:00:29:417,0.189,0.946,1.11,-24.231,-59.144,79.467,
00:00:29:433,0.117,0.803,1.098,509.765,-352.601,363.342,
00:00:29:450,0.005,0.604,1.057,943.115,-626.648,584.594,
00:00:29:467,-0.065,0.339,0.941,1214.843,-832.886,704.345,
00:00:29:483,-0.146,0.104,0.781,1325.622,-964.478,695.312,
00:00:29:500,-0.315,-0.12,0.618,1233.154,-888.855,534.118,
00:00:29:517,-0.511,-0.189,0.69,855.285,-561.951,225.463,
00:00:29:533,-0.411,-0.168,0.907,163.94,-116.028,-52.002,
00:00:29:550,-0.269,-0.084,1.018,-434.632,257.385,-315.918,saltLH
00:00:29:567,-0.299,0.106,0.983,-910.035,553.711,-519.043,
00:00:29:583,-0.294,0.098,0.899,-1179.2,687.805,-656.311,
00:00:29:600,-0.214,0.174,0.825,-1256.287,704.284,-700.44,
00:00:29:617,-0.071,0.627,0.772,-1171.265,630.493,-524.476,
00:00:29:633,0.085,1.011,0.852,-735.718,387.207,-276.917,
00:00:29:650,0.207,1.028,1.101,-65.491,-0.611,30.456,
00:00:29:667,0.127,0.763,1.14,449.218,-326.844,359.192,
00:00:29:683,-0.067,0.632,1.058,888.855,-570.191,596.618,
00:00:29:700,-0.096,0.454,0.942,1181.762,-800.171,754.028,
00:00:29:717,-0.139,0.138,0.806,1358.52,-998.658,815.368,
00:00:29:733,-0.252,-0.117,0.594,1320.739,-1060.975,803.161,
00:00:29:750,-0.493,-0.266,0.45,1109.13,-881.409,620.361,
00:00:29:767,-0.683,-0.283,0.661,666.32,-431.397,278.198,
00:00:29:783,-0.458,-0.147,0.906,103.82,19.958,-33.143,
00:00:29:800,-0.339,-0.103,0.98,-414.49,413.574,-325.867,
00:00:29:817,-0.426,-0.021,0.945,-954.59,726.989,-560.181,
00:00:29:833,-0.431,-0.021,0.849,-1309.937,902.099,-687.134,
00:00:29:850,-0.334,0.244,0.794,-1444.642,943.847,-704.895,
00:00:29:867,-0.119,0.716,0.852,-1310.608,796.692,-517.64,
00:00:29:883,0.037,0.876,0.984,-803.65,485.29,-303.04,
00:00:29:900,0.079,0.997,1.222,-207.52,148.925,8.85,
00:00:29:917,0.051,0.864,1.259,425.659,-206.604,324.951,
00:00:29:933,-0.114,0.563,1.087,890.442,-479.859,547.729,
00:00:29:950,-0.198,0.342,0.952,1205.505,-667.664,684.021,
00:00:29:967,-0.273,-0.001,0.824,1296.142,-814.148,655.029,
00:00:29:983,-0.411,-0.276,0.701,1048.767,-722.229,500.854,
00:00:30:0,-0.552,-0.361,0.707,467.773,-326.661,197.998,
00:00:30:17,-0.457,-0.251,0.883,-320.252,205.81,-184.449,
00:00:30:33,-0.32,-0.107,1.02,-1086.182,643.798,-545.044,
00:00:30:50,-0.33,-0.036,1.018,-1657.715,994.018,-912.598,
00:00:30:67,-0.345,-0.023,0.888,-1918.946,1181.213,-1151.795,
00:00:30:83,0.072,0.801,0.798,-1527.894,947.754,-1040.406,
00:00:30:100,0.243,1.067,0.949,-911.133,597.717,-754.944,
00:00:30:117,0.251,1.369,1.099,-376.099,208.74,-290.223,
00:00:30:133,0.203,1.157,1.102,151.733,-164.734,122.253,
00:00:30:150,0.018,0.843,1.007,582.885,-432.923,452.697,
00:00:30:167,-0.067,0.525,0.881,908.081,-607.483,631.897,
00:00:30:183,-0.129,0.406,0.828,1107.422,-723.572,716.308,
00:00:30:200,-0.165,0.09,0.613,1092.956,-783.02,651.428,
00:00:30:217,-0.393,-0.139,0.449,785.156,-551.697,404.358,
00:00:30:233,-0.243,0.127,0.811,-509.766,372.192,-230.225,
00:00:30:250,-0.145,0.165,0.905,-832.154,625.488,-530.213,
00:00:30:267,-0.18,0.084,0.863,-1047.73,776.855,-738.099,
00:00:30:283,0.091,0.552,0.659,-1146.973,813.293,-788.514,
00:00:30:300,0.27,0.97,0.808,-916.932,639.526,-564.087,
00:00:30:317,0.336,1.04,1.064,124.755,-22.644,124.389,
00:00:30:333,0.176,0.885,0.983,607.544,-328.736,412.78,
00:00:30:350,0.007,0.627,0.873,961.059,-544.739,619.018,
00:00:30:367,-0.034,0.358,0.802,1195.434,-695.435,723.877,
00:00:30:383,-0.211,0.041,0.569,1119.751,-777.771,743.591,
00:00:30:400,-0.391,-0.038,0.516,943.542,-576.416,531.311,
00:00:30:417,-0.484,-0.052,0.707,633.789,-251.831,197.021,
00:00:30:433,-0.302,-0.034,0.937,153.93,116.821,-83.924,
00:00:30:450,-0.171,0.077,1.013,-252.137,407.837,-354.248,
00:00:30:467,-0.204,0.137,0.981,-607.972,554.626,-525.391,
00:00:30:483,-0.206,0.178,0.861,-785.706,631.897,-605.957,
00:00:30:500,-0.127,0.399,0.79,-828.37,615.173,-596.436,
00:00:30:517,0.078,0.806,0.868,-757.813,492.553,-388.977,
00:00:30:533,0.218,0.998,1.024,-392.212,214.599,-100.586,
00:00:30:550,0.228,0.955,1.126,164.672,-100.831,171.814,
00:00:30:567,0.046,0.867,1.173,654.297,-369.629,426.757,
00:00:30:583,-0.032,0.68,1.16,1042.541,-563.355,615.173,
00:00:30:600,-0.059,0.382,1.02,1329.834,-738.77,730.407,
00:00:30:617,-0.094,0.169,0.828,1539.367,-855.225,785.888,
00:00:30:633,-0.164,-0.024,0.589,1617.065,-951.111,754.211,
00:00:30:650,-0.472,-0.234,0.52,1419.25,-782.41,511.169,
00:00:30:667,-0.707,-0.412,0.741,762.085,-378.907,178.222,
00:00:30:683,-0.476,-0.345,1.092,-193.299,179.138,-148.743,
00:00:30:700,-0.168,-0.121,1.225,-838.196,565.063,-451.661,
00:00:30:717,-0.221,0.036,1.159,-1270.386,772.461,-685.242,
00:00:30:733,-0.294,-0.003,1,-1497.803,830.932,-785.096,
00:00:30:750,-0.234,0.234,0.791,-1501.343,766.723,-736.817,
00:00:30:767,-0.056,0.703,0.736,-1255.738,613.464,-544.312,
00:00:30:783,0.118,1.093,0.887,-606.629,335.754,-238.038,
00:00:30:800,0.182,1.072,1.098,177.978,-74.463,115.051,
00:00:30:817,0.003,0.756,1.154,721.252,-393.25,410.522,
00:00:30:833,-0.161,0.487,1.069,991.088,-600.647,612.426,
00:00:30:850,-0.234,0.174,0.927,1040.344,-702.576,657.898,
00:00:30:867,-0.36,-0.078,0.802,932.129,-608.033,528.137,
00:00:30:883,-0.456,-0.157,0.784,533.508,-304.505,262.207,
00:00:30:900,-0.345,-0.126,0.946,9.521,68.847,-29.786,
00:00:30:917,-0.167,-0.087,1.059,-518.738,394.409,-342.652,
00:00:30:933,-0.19,-0.026,1.058,-878.846,603.088,-588.074,
00:00:30:950,-0.227,-0.022,0.989,-1131.226,712.341,-730.896,
00:00:30:967,-0.143,0.11,0.873,-1193.055,699.096,-762.513,
00:00:30:983,-0.061,0.369,0.772,-1077.088,619.506,-691.529,
00:00:31:0,0.06,0.801,0.789,-775.757,433.166,-449.646,
00:00:31:17,0.118,0.987,0.915,-244.141,142.395,-136.841,
00:00:31:33,0.046,0.93,1.014,337.402,-179.078,174.987,
00:00:31:50,-0.067,0.67,1.039,739.318,-451.416,427.978,
00:00:31:67,-0.164,0.373,0.952,916.748,-585.572,558.96,
00:00:31:83,-0.225,0.07,0.81,938.781,-611.39,547.668,
00:00:31:100,-0.268,-0.101,0.697,824.035,-497.498,373.596,
00:00:31:117,-0.282,-0.162,0.759,371.521,-169.19,81.97,
00:00:31:133,-0.187,-0.097,0.965,-212.952,206.543,-260.376,
00:00:31:150,-0.119,-0.019,1.061,-733.155,511.718,-531.556,
00:00:31:167,-0.16,0.137,1.078,-1001.343,677.124,-748.475,
00:00:31:183,-0.138,0.142,0.964,-1129.822,683.715,-827.21,
00:00:31:200,-0.068,0.281,0.8,-1165.833,650.39,-839.051,
00:00:31:217,0.076,0.655,0.736,-1054.81,557.006,-692.566,
00:00:31:233,0.203,1.155,0.842,-623.719,306.274,-337.098,
00:00:31:250,0.243,1.234,0.986,52.551,-80.811,60.73,
00:00:31:267,0.086,0.996,1.01,620.422,-391.846,373.779,
00:00:31:283,-0.058,0.709,0.991,928.466,-613.465,627.807,
00:00:31:300,-0.082,0.37,0.894,1004.455,-745.118,769.531,
00:00:31:317,-0.08,0.132,0.764,992.004,-801.88,854.126,
00:00:31:333,-0.102,-0.083,0.549,1015.808,-782.166,780.883,
00:00:31:350,-0.304,-0.214,0.463,975.83,-584.778,502.502,
00:00:31:367,-0.505,-0.241,0.663,641.052,-158.265,84.899,
00:00:31:383,-0.355,-0.131,1.034,-5.31,274.841,-260.315,
00:00:31:400,-0.055,0.064,1.264,-641.541,565.246,-531.922,
00:00:31:417,-0.115,0.137,1.145,-994.324,657.776,-697.327,
00:00:31:433,-0.243,0.072,0.872,-1115.418,666.87,-733.887,
00:00:31:450,-0.152,0.298,0.672,-1067.749,616.699,-732.544,
00:00:31:467,0.042,0.877,0.702,-811.524,505.249,-472.168,
00:00:31:483,0.196,1.233,0.973,-222.474,168.029,-118.653,
00:00:31:500,0.179,1.033,1.155,441.65,-224.183,221.13,
00:00:31:517,-0.078,0.716,1.112,819.091,-473.145,505.31,
00:00:31:533,-0.157,0.56,1.049,1000.976,-614.991,718.017,
00:00:31:550,-0.143,0.235,0.931,1130.493,-763.794,798.462,
00:00:31:567,-0.213,-0.025,0.769,1153.564,-775.33,778.137,
00:00:31:583,-0.337,-0.269,0.597,1040.344,-641.297,539.734,
00:00:31:600,-0.513,-0.325,0.788,525.085,-193.299,110.962,
00:00:31:617,-0.269,-0.153,1.163,-336.06,286.987,-310.547,
00:00:31:633,-0.088,-0.007,1.28,-960.816,609.68,-624.939,
00:00:31:650,-0.195,-0.001,1.155,-1315.186,713.073,-820.435,
00:00:31:667,-0.238,0.064,0.801,-1386.719,718.2,-836.121,
00:00:31:683,-0.091,0.558,0.676,-1171.021,626.342,-727.112,
00:00:31:700,0.097,1.039,0.758,-583.497,381.042,-391.419,
00:00:31:717,0.124,1.118,1.025,172.363,-9.339,-36.683,
00:00:31:733,-0.008,0.864,1.059,673.889,-322.754,327.942,
00:00:31:750,-0.186,0.589,1.017,914.856,-508.667,560.241,
00:00:31:767,-0.249,0.254,0.885,1007.507,-618.775,682.739,
00:00:31:783,-0.335,0.034,0.843,976.623,-573.182,595.642,
00:00:31:800,-0.329,-0.099,0.827,703.247,-390.015,390.991,
00:00:31:817,-0.219,-0.152,0.886,196.167,-93.018,130.92,
00:00:31:833,-0.088,-0.063,0.958,-328.309,226.013,-141.053,
00:00:31:850,-0.1,-0.048,0.974,-635.498,419.128,-411.316,
00:00:31:867,-0.136,0.021,0.992,-897.583,552.551,-587.708,
00:00:31:883,-0.084,0.089,0.925,-1030.701,582.702,-661.316,
00:00:31:900,0,0.387,0.904,-990.601,505.371,-614.075,
00:00:31:917,0.032,0.716,0.901,-640.992,303.1,-393.311,
00:00:31:933,0.034,0.974,0.996,-66.163,55.542,-134.278,
00:00:31:950,0.026,0.909,1.105,577.697,-271.607,178.588,
00:00:31:967,-0.081,0.621,1.117,969.787,-519.288,389.587,
00:00:31:983,-0.159,0.254,0.987,977.6,-689.881,495.91,
00:00:32:0,-0.258,-0.045,0.894,677.185,-618.164,411.01,
00:00:32:17,-0.196,-0.108,0.872,306.152,-388.977,217.224,
00:00:32:33,-0.076,0.011,0.932,-110.291,-92.896,-43.702,
00:00:32:50,-0.042,0.019,0.985,-414.185,105.713,-285.462,
00:00:32:67,-0.125,0.042,0.946,-604.126,251.22,-435.486,
00:00:32:83,-0.168,0.078,0.873,-604.737,298.339,-512.207,
00:00:32:100,-0.146,0.291,0.848,-464.783,273.437,-520.325,
00:00:32:117,-0.151,0.471,0.82,-304.627,201.416,-485.047,
00:00:32:133,-0.184,0.588,0.897,-294.861,187.011,-456.36,
00:00:32:150,-0.14,0.598,1.042,-440.125,168.151,-393.189,
00:00:32:167,-0.103,0.611,1.119,-548.401,131.286,-279.297,
00:00:32:183,-0.035,0.695,1.109,-427.308,-11.414,-86.792,
00:00:32:200,-0.04,0.771,1.034,-32.471,-185.975,99.121,
00:00:32:217,-0.078,0.806,1.001,525.39,-373.291,255.493,
00:00:32:233,-0.121,0.589,1.036,921.753,-531.617,371.338,
00:00:32:250,-0.142,0.325,0.994,987.548,-624.939,403.869,
00:00:32:267,-0.231,0.087,0.854,753.112,-647.706,410.4,
00:00:32:283,-0.314,-0.028,0.681,421.692,-533.265,371.887,
00:00:32:300,-0.357,-0.077,0.509,211.547,-326.6,240.173,
00:00:32:317,-0.435,-0.032,0.531,55.297,-31.434,1.464,
00:00:32:333,-0.305,0.044,0.767,-187.195,267.028,-290.406,
00:00:32:350,-0.175,0.051,0.883,-456.299,506.164,-518.982,
00:00:32:367,-0.25,0.169,0.893,-713.379,720.703,-735.108,
00:00:32:383,-0.296,0.164,0.834,-967.408,816.345,-822.754,
00:00:32:400,-0.265,0.234,0.745,-1095.643,863.464,-833.619,
00:00:32:417,-0.066,0.477,0.629,-1072.266,811.645,-730.103,
00:00:32:433,0.147,1.008,0.725,-780.701,638.244,-429.078,
00:00:32:450,0.298,1.188,0.99,-244.446,298.095,-54.017,
00:00:32:467,0.261,1.002,1.229,381.408,-97.107,265.564,
00:00:32:483,0.075,0.65,1.135,819.824,-409.485,525.756,
00:00:32:500,-0.073,0.461,1.079,1137.085,-576.111,668.151,
00:00:32:517,-0.038,0.228,0.96,1271.179,-785.157,766.54,
00:00:32:533,-0.153,0.022,0.774,1206.421,-832.398,740.112,
00:00:32:550,-0.366,-0.102,0.623,1013.244,-692.994,548.339,
00:00:32:567,-0.558,-0.17,0.712,599.243,-352.967,217.59,
00:00:32:583,-0.418,-0.093,0.952,-52.796,110.839,-107.972,
00:00:32:600,-0.101,0.052,1.067,-579.651,465.026,-378.602,
00:00:32:617,-0.136,0.189,1.002,-947.571,661.438,-577.21,
00:00:32:633,-0.229,0.083,0.874,-1109.009,734.13,-696.045,
00:00:32:650,-0.188,0.184,0.729,-1130.311,756.408,-714.722,
00:00:32:667,-0.003,0.63,0.724,-1000,682.922,-549.805,
00:00:32:683,0.166,1.025,0.821,-536.622,448.608,-246.888,
00:00:32:700,0.273,1.042,1.069,145.63,73.425,42.846,
00:00:32:717,0.191,0.748,1.121,677.795,-267.64,334.35,
00:00:32:733,0.006,0.49,1.057,1039.55,-478.15,508.422,
00:00:32:750,-0.044,0.266,0.98,1110.168,-624.207,600.097,
00:00:32:767,-0.146,0.083,0.9,1011.047,-636.597,600.036,
00:00:32:783,-0.301,0.02,0.846,781.982,-524.048,496.887,
00:00:32:800,-0.407,-0.011,0.891,450.561,-297.12,299.926,
00:00:32:817,-0.398,-0.003,0.938,18.798,-35.218,94.665,
00:00:32:833,-0.309,0.034,0.903,-376.893,255.249,-128.785,
00:00:32:850,-0.227,0.174,0.91,-637.33,442.321,-281.922,
00:00:32:867,-0.146,0.085,0.867,-712.647,520.813,-414.795,
00:00:32:883,-0.11,0.178,0.893,-733.338,575.561,-491.7,
00:00:32:900,0.012,0.419,0.929,-693.726,522.094,-428.833,
00:00:32:917,0.099,0.601,0.94,-492.249,338.928,-269.471,
00:00:32:933,0.11,0.635,0.99,-121.949,128.662,-93.018,
00:00:32:950,0.117,0.669,1.072,289.306,-104.615,127.99,
00:00:32:967,0.102,0.551,1.135,626.098,-325.44,306.213,
00:00:32:983,0.014,0.353,1.13,847.229,-502.32,392.517,
00:00:33:0,-0.058,0.154,1.032,879.943,-609.681,438.903,
00:00:33:17,-0.205,0.036,0.869,798.401,-578.736,411.865,
00:00:33:33,-0.436,-0.041,0.752,641.479,-415.894,241.15,
00:00:33:50,-0.581,-0.109,0.845,267.456,-104.493,-20.203,
00:00:33:67,-0.372,-0.094,1.117,-327.149,288.452,-342.408,
00:00:33:83,-0.149,-0.004,1.082,-851.136,582.031,-591.065,
00:00:33:100,-0.183,0.177,0.912,-1202.637,799.804,-756.958,
00:00:33:117,-0.16,0.133,0.719,-1266.48,859.436,-849.793,
00:00:33:133,-0.008,0.294,0.759,-1237.427,881.958,-873.719,
00:00:33:150,0.23,0.73,0.944,-1110.474,740.417,-678.467,
00:00:33:167,0.355,0.964,1.043,-777.894,408.508,-379.7,
00:00:33:183,0.266,0.978,0.979,-176.514,41.809,-39.734,
00:00:33:200,0.156,0.963,1.006,397.094,-267.579,274.78,
00:00:33:217,0.141,0.668,1.057,815.185,-532.227,483.398,
00:00:33:233,0.026,0.244,1.004,882.934,-691.712,563.72,
00:00:33:250,-0.097,0.034,0.896,738.037,-672.12,544.128,
00:00:33:267,-0.246,-0.017,0.708,541.015,-484.681,379.394,
00:00:33:283,-0.378,-0.018,0.73,247.497,-200.135,64.941,
00:00:33:300,-0.337,-0.107,0.901,-225.647,155.212,-246.033,
00:00:33:317,-0.166,-0.135,0.983,-743.348,514.099,-560.425,
00:00:33:334,-0.1,0.099,0.871,-1176.636,756.042,-749.085,
00:00:33:350,-0.031,0.222,0.698,-1290.589,836.67,-853.577,
00:00:33:367,0.07,0.416,0.602,-1189.515,794.922,-838.074,
00:00:33:384,0.247,0.749,0.645,-926.697,630.92,-628.418,
00:00:33:400,0.375,1.041,0.764,-452.515,358.154,-290.162,
00:00:33:417,0.396,1.078,0.892,255.798,-22.95,58.41,
00:00:33:434,0.279,0.884,0.887,877.441,-358.948,366.394,
00:00:33:450,0.175,0.594,0.919,1246.276,-622.498,552.002,
00:00:33:467,0.11,0.221,0.863,1242.859,-775.33,658.63,
00:00:33:484,-0.025,0.019,0.75,1086.609,-738.343,611.999,
00:00:33:500,-0.207,-0.02,0.746,830.993,-535.34,382.08,
00:00:33:517,-0.263,-0.014,0.937,323.608,-218.995,86.425,
00:00:33:534,-0.153,0.034,1.049,-284.546,145.568,-165.772,
00:00:33:550,-0.101,0.184,1.032,-641.724,400.085,-403.26,saltLH
00:00:33:567,-0.059,0.202,0.932,-827.393,505.127,-531.189,
00:00:33:584,0.039,0.353,0.893,-863.709,515.258,-558.106,
00:00:33:600,0.122,0.594,0.869,-695.679,432.373,-457.215,
00:00:33:617,0.184,0.886,0.904,-277.161,233.947,-265.442,
00:00:33:634,0.216,0.982,1.029,158.508,-25.452,6.713,
00:00:33:650,0.147,0.841,1.13,581.176,-257.752,239.868,
00:00:33:667,0.06,0.662,1.135,885.925,-474.488,427.795,
00:00:33:684,0.04,0.459,1.029,992.431,-642.151,555.908,
00:00:33:700,-0.036,0.21,0.831,987.671,-715.821,591.308,
00:00:33:717,-0.24,0.054,0.72,873.413,-624.695,424.194,
00:00:33:734,-0.356,-0.052,0.755,460.388,-332.459,183.838,
00:00:33:750,-0.315,-0.039,0.982,-198.182,118.042,-103.15,
00:00:33:767,-0.116,0.089,1.034,-806.519,464.111,-318.421,
00:00:33:784,-0.085,0.274,1.017,-1106.08,642.578,-500.611,
00:00:33:800,-0.047,0.273,0.97,-1146.485,642.761,-552.43,
00:00:33:817,0.003,0.205,0.791,-1014.893,553.65,-555.237,
00:00:33:834,0.068,0.523,0.715,-788.758,495.788,-432.74,
00:00:33:850,0.177,0.894,0.787,-304.322,284.118,-194.703,
00:00:33:867,0.237,0.912,0.965,274.17,-18.616,83.007,
00:00:33:884,0.125,0.705,1.082,749.023,-272.278,297.241,
00:00:33:900,0.008,0.462,1.097,1068.237,-492.127,456.359,
00:00:33:917,-0.08,0.232,0.973,1225.402,-616.333,505.676,
00:00:33:934,-0.162,0.029,0.816,1235.29,-658.814,410.278,
00:00:33:950,-0.247,-0.255,0.799,872.741,-512.391,138.488,
00:00:33:967,-0.256,-0.248,0.998,-25.635,-99.488,-99.61,
00:00:33:984,-0.01,-0.004,1.102,-826.233,280.273,-325.196,
00:00:34:0,-0.033,0.113,1.036,-1107.972,425.537,-533.326,
00:00:34:17,-0.086,0.121,0.952,-1161.499,497.436,-674.866,
00:00:34:34,-0.009,0.135,0.802,-1091.736,473.51,-722.596,
00:00:34:50,0.083,0.392,0.761,-917.786,409.484,-672.059,
00:00:34:67,0.157,0.87,0.742,-537.476,238.83,-440.125,
00:00:34:84,0.173,1.063,0.865,37.719,-32.288,-169.068,
00:00:34:100,0.112,0.859,0.993,542.053,-308.838,105.163,
00:00:34:117,-0.014,0.679,1.065,868.408,-480.164,323.608,
00:00:34:134,-0.087,0.509,1.01,1132.507,-626.648,454.895,
00:00:34:150,-0.136,0.297,0.846,1312.805,-724.915,513.061,
00:00:34:167,-0.195,0.077,0.697,1319.03,-766.48,437.317,
00:00:34:184,-0.331,-0.125,0.713,987.182,-545.533,198.791,
00:00:34:200,-0.312,-0.149,0.982,324.096,-186.585,-61.829,
00:00:34:217,-0.116,-0.047,1.14,-487.915,190.002,-235.23,
00:00:34:234,-0.09,0.104,1.103,-985.291,445.251,-430.298,
00:00:34:250,-0.107,0.209,0.999,-1258.118,574.951,-549.317,
00:00:34:267,-0.046,0.108,0.83,-1246.766,560.363,-610.779,
00:00:34:284,0.022,0.356,0.764,-1139.161,548.645,-588.379,
00:00:34:300,0.171,0.809,0.779,-754.883,404.907,-400.208,
00:00:34:317,0.25,1.026,0.949,-189.942,130.371,-154.053,
00:00:34:334,0.22,0.823,1.056,370.239,-183.472,100.463,
00:00:34:350,0.056,0.638,1.073,704.651,-375.55,322.692,
00:00:34:367,-0.038,0.478,0.982,910.095,-534.485,450.134,
00:00:34:384,-0.134,0.241,0.868,930.481,-592.286,435.485,
00:00:34:400,-0.211,0.026,0.815,702.636,-462.891,272.4,
00:00:34:417,-0.209,-0.011,0.911,192.321,-156.617,45.776,
00:00:34:434,-0.105,0.085,1.031,-345.276,148.986,-131.409,
00:00:34:450,-0.114,0.148,1.012,-668.396,370.3,-315.43,
00:00:34:467,-0.145,0.26,0.979,-848.755,495.239,-450.013,
00:00:34:484,-0.072,0.287,0.942,-942.2,511.963,-506.592,
00:00:34:500,0.001,0.322,0.867,-971.741,499.023,-504.273,
00:00:34:517,0.099,0.542,0.803,-873.475,418.579,-378.174,
00:00:34:534,0.182,0.861,0.773,-505.86,242.309,-134.888,
00:00:34:550,0.207,1.052,0.896,53.772,-28.931,144.714,
00:00:34:567,0.159,0.842,1.021,677.795,-291.26,365.539,
00:00:34:584,0.044,0.524,1.065,1065.918,-503.663,516.235,
00:00:34:600,0.005,0.282,0.934,1208.313,-664.307,605.774,
00:00:34:617,-0.095,0.057,0.718,1096.984,-739.197,594.299,
00:00:34:634,-0.191,-0.194,0.58,794.922,-625.855,416.137,
00:00:34:650,-0.306,-0.233,0.641,245.422,-225.22,147.766,
00:00:34:667,-0.227,-0.032,0.896,-316.407,214.538,-121.399,
00:00:34:684,-0.078,0.108,1.03,-698.487,466.125,-338.318,
00:00:34:700,-0.083,0.152,1.028,-878.052,619.079,-556.519,
00:00:34:717,-0.133,0.149,0.924,-994.507,681.945,-658.692,
00:00:34:734,-0.043,0.204,0.772,-1071.351,659.118,-704.407,
00:00:34:750,0.066,0.511,0.715,-1038.392,620.849,-593.995,
00:00:34:767,0.192,1.01,0.722,-662.11,446.533,-328.919,
00:00:34:784,0.275,1.217,0.927,-10.682,104.004,19.592,
00:00:34:800,0.191,0.959,1.087,646.667,-221.07,316.528,
00:00:34:817,0.008,0.706,1.121,1056.457,-444.519,553.222,
00:00:34:834,-0.057,0.412,0.954,1312.011,-616.578,669.677,
00:00:34:850,-0.163,0.142,0.767,1429.809,-706.665,610.778,
00:00:34:867,-0.274,-0.142,0.704,1204.345,-585.694,380.066,
