TIMECODE,ACC_X,ACC_Y,ACC_Z,GYR_X,GYR_Y,GYR_Z,TAG
00:00:00:0,0.013,0.308,0.956,-16.907,8.606,-30.03,
00:00:00:16,0.014,0.308,0.958,-15.442,10.498,-31.067,
00:00:00:33,0.016,0.307,0.959,-14.71,12.085,-30.335,
00:00:00:50,0.015,0.305,0.957,-15.076,12.207,-29.725,
00:00:00:66,0.017,0.304,0.959,-18.433,14.221,-29.969,
00:00:00:83,0.014,0.304,0.956,-18.128,11.047,-30.457,
00:00:00:100,0.016,0.304,0.959,-19.532,9.765,-28.992,
00:00:00:116,0.013,0.31,0.959,-21.058,10.864,-30.579,
00:00:00:133,0.014,0.309,0.959,-19.776,13.488,-30.884,
00:00:00:150,0.015,0.311,0.953,-16.663,11.474,-29.419,
00:00:00:166,0.016,0.306,0.956,-16.968,9.155,-28.87,
00:00:00:183,0.016,0.308,0.956,-18.799,9.643,-28.931,
00:00:00:200,0.015,0.312,0.958,-16.602,10.803,-31.311,
00:00:00:216,0.018,0.309,0.955,-16.114,11.84,-31.311,
00:00:00:233,0.016,0.307,0.955,-14.1,13.794,-30.945,
00:00:00:250,0.014,0.311,0.956,-15.137,9.765,-28.931,
00:00:00:266,0.014,0.305,0.955,-13.672,11.291,-28.931,
00:00:00:283,0.016,0.307,0.959,-16.663,9.033,-30.579,
00:00:00:300,0.014,0.313,0.956,-14.832,13.366,-29.847,
00:00:00:316,0.016,0.307,0.954,-20.081,10.681,-29.236,
00:00:00:333,0.015,0.31,0.956,-16.968,10.009,-30.579,
00:00:00:350,0.013,0.308,0.96,-17.701,9.521,-28.992,
00:00:00:366,0.015,0.307,0.956,-17.884,12.329,-29.786,
00:00:00:383,0.011,0.308,0.957,-18.067,11.413,-29.664,
00:00:00:400,0.013,0.305,0.957,-19.593,11.291,-30.701,
00:00:00:416,0.014,0.307,0.958,-21.058,11.413,-30.213,
00:00:00:433,0.015,0.31,0.959,-18.311,11.047,-29.175,
00:00:00:450,0.016,0.314,0.956,-17.395,10.925,-29.602,
00:00:00:466,0.018,0.305,0.956,-13.123,10.498,-28.748,
00:00:00:483,0.013,0.31,0.958,-15.503,6.347,-29.664,
00:00:00:500,0.013,0.307,0.957,-31.25,11.23,-30.823,
00:00:00:516,0.015,0.305,0.961,-16.114,10.376,-28.626,
00:00:00:533,0.015,0.309,0.956,-15.198,13,-31.25,
00:00:00:550,0.016,0.305,0.957,-18.982,10.803,-29.541,
00:00:00:566,0.016,0.309,0.957,-17.64,10.009,-29.541,
00:00:00:583,0.012,0.309,0.955,-18.86,11.352,-29.358,
00:00:00:600,0.016,0.307,0.958,-20.386,12.451,-28.443,
00:00:00:616,0.018,0.305,0.959,-21.729,8.85,-29.664,
00:00:00:633,0.018,0.311,0.959,-22.156,7.69,-29.725,
00:00:00:650,0.014,0.315,0.956,-18.25,8.667,-31.189,
00:00:00:666,0.015,0.317,0.958,-16.724,10.315,-30.274,
00:00:00:683,0.015,0.31,0.957,-14.527,11.108,-31.556,
00:00:00:700,0.012,0.307,0.958,-15.503,13.122,-30.091,
00:00:00:716,0.016,0.312,0.957,-16.968,15.197,-30.945,
00:00:00:733,0.018,0.308,0.955,-16.602,12.146,-29.358,
00:00:00:750,0.015,0.314,0.955,-14.222,8.972,-27.283,
00:00:00:766,0.014,0.31,0.959,-17.151,7.995,-28.931,
00:00:00:783,0.017,0.309,0.959,-17.029,10.803,-28.077,
00:00:00:800,0.016,0.307,0.956,-19.349,8.239,-29.786,
00:00:00:816,0.014,0.304,0.961,-22.217,9.521,-29.541,
00:00:00:833,0.013,0.31,0.958,-22.522,6.713,-30.457,
00:00:00:850,0.012,0.311,0.955,-22.583,10.681,-29.175,
00:00:00:866,0.011,0.311,0.958,-20.508,15.319,-31.006,
00:00:00:883,0.013,0.31,0.957,-14.893,14.038,-32.105,
00:00:00:900,0.014,0.311,0.957,-18.067,10.62,-29.236,
00:00:00:916,0.017,0.309,0.955,-14.466,10.803,-28.992,
00:00:00:933,0.018,0.307,0.956,-17.151,9.765,-28.992,
00:00:00:950,0.016,0.342,0.954,-19.288,8.361,-29.541,
00:00:00:966,0.012,0.31,0.961,-20.203,10.742,-29.969,
00:00:00:983,0.013,0.313,0.954,-19.776,8.606,-29.969,
00:00:01:0,0.017,0.311,0.957,-18.616,10.07,-31.617,
00:00:01:16,0.016,0.309,0.957,-22.156,8.728,-29.969,
00:00:01:33,0.012,0.309,0.956,-19.41,14.038,-28.26,
00:00:01:50,0.016,0.31,0.958,-18.372,10.07,-29.297,
00:00:01:66,0.017,0.31,0.955,-17.64,8.544,-29.114,
00:00:01:83,0.015,0.308,0.958,-20.997,10.192,-30.335,
00:00:01:100,0.014,0.31,0.959,-21.912,11.901,-29.725,
00:00:01:116,0.015,0.313,0.955,-23.072,9.399,-30.274,
00:00:01:133,0.013,0.316,0.954,-21.119,13.366,-30.03,
00:00:01:150,0.012,0.316,0.96,-16.358,13.855,-30.152,
00:00:01:166,0.017,0.314,0.961,-12.635,14.953,-30.152,
00:00:01:183,0.016,0.309,0.957,-15.564,13.244,-28.565,
00:00:01:200,0.014,0.313,0.954,-13.672,10.62,-29.541,
00:00:01:216,0.013,0.308,0.954,-15.198,6.469,-28.321,
00:00:01:233,0.014,0.316,0.955,-12.024,11.657,-30.213,
00:00:01:250,0.012,0.311,0.953,-15.442,12.817,-28.687,
00:00:01:266,0.015,0.313,0.957,-14.832,8.728,-27.832,
00:00:01:283,0.015,0.312,0.955,-16.724,10.131,-30.03,
00:00:01:300,0.015,0.308,0.957,-19.165,10.009,-29.48,
00:00:01:316,0.015,0.312,0.955,-15.992,10.681,-28.138,
00:00:01:333,0.017,0.31,0.957,-18.006,12.512,-29.48,
00:00:01:350,0.015,0.31,0.955,-15.381,10.009,-30.091,
00:00:01:366,0.011,0.312,0.959,-17.273,10.009,-30.091,
00:00:01:383,0.015,0.314,0.954,-17.579,11.718,-30.945,
00:00:01:400,0.013,0.312,0.955,-17.823,12.329,-15.748,
00:00:01:416,0.015,0.312,0.956,-19.959,9.765,-30.091,
00:00:01:433,0.019,0.307,0.958,-18.921,10.986,-29.969,
00:00:01:450,0.014,0.311,0.955,-17.701,11.23,-29.114,
00:00:01:466,0.017,0.313,0.955,-18.799,10.131,-27.405,
00:00:01:483,0.013,0.311,0.956,-18.189,12.451,-28.992,
00:00:01:500,0.013,0.31,0.957,-16.907,14.343,-27.771,
00:00:01:516,0.013,0.311,0.957,-18.006,13,-29.297,
00:00:01:533,0.011,0.31,0.956,-17.945,13.366,-29.053,
00:00:01:550,0.017,0.312,0.957,-20.569,10.07,-30.518,
00:00:01:566,0.017,0.309,0.955,-21.302,12.878,-29.602,
00:00:01:583,0.02,0.314,0.958,-21.973,9.277,-29.358,
00:00:01:600,0.018,0.318,0.957,-20.874,9.582,-27.955,
00:00:01:616,0.017,0.318,0.955,-1.221,7.934,-28.382,
00:00:01:633,0.01,0.311,0.957,-12.757,9.338,-27.588,
00:00:01:650,0.012,0.309,0.959,-16.48,13.732,-30.335,
00:00:01:666,0.012,0.31,0.954,-16.846,15.136,-30.823,
00:00:01:683,0.016,0.312,0.957,-20.081,11.535,-30.701,
00:00:01:700,0.019,0.314,0.957,-22.583,12.085,-30.274,
00:00:01:716,0.017,0.312,0.955,-20.508,11.474,-30.518,
00:00:01:733,0.018,0.314,0.956,-18.372,11.23,-28.992,
00:00:01:750,0.015,0.311,0.959,-16.846,11.779,-27.344,
00:00:01:766,0.017,0.315,0.955,-11.902,9.399,-27.222,
00:00:01:783,0.012,0.313,0.957,-14.893,7.507,-27.405,
00:00:01:800,0.013,0.314,0.955,-16.236,9.643,-28.138,
00:00:01:816,0.01,0.314,0.955,-18.677,11.901,-30.274,
00:00:01:833,0.011,0.311,0.956,-16.602,12.451,-31.678,
00:00:01:850,0.015,0.313,0.953,-17.334,13.366,-31.556,
00:00:01:866,0.019,0.309,0.957,-20.264,12.207,-29.541,
00:00:01:883,0.02,0.314,0.953,-18.189,10.986,-28.87,
00:00:01:900,0.017,0.313,0.955,-18.494,9.704,-28.504,
00:00:01:916,0.011,0.317,0.956,-18.189,9.155,-28.26,
00:00:01:933,0.009,0.318,0.957,-16.114,11.779,-28.931,
00:00:01:950,0.014,0.314,0.956,-16.175,11.596,-31.006,
00:00:01:966,0.013,0.313,0.955,-19.349,10.315,-30.518,
00:00:01:983,0.015,0.312,0.959,-19.959,11.596,-31.189,
00:00:02:0,0.014,0.311,0.956,-21.729,8.911,-29.908,
00:00:02:16,0.014,0.313,0.957,-20.325,13.488,-31.8,
00:00:02:33,0.015,0.317,0.954,-20.325,12.451,-30.701,
00:00:02:50,0.015,0.315,0.952,-20.447,10.253,-28.26,
00:00:02:66,0.013,0.317,0.957,-17.09,10.009,-28.016,
00:00:02:83,0.012,0.314,0.953,-18.616,10.131,-29.297,
00:00:02:100,0.013,0.317,0.96,-19.471,12.268,-30.884,
00:00:02:116,0.014,0.318,0.955,-18.86,13.61,-31.861,
00:00:02:133,0.015,0.315,0.958,-16.602,13.061,-31.128,
00:00:02:150,0.017,0.315,0.952,-16.358,10.742,-31.739,
00:00:02:166,0.016,0.31,0.959,-16.541,10.253,-30.152,
00:00:02:183,0.016,0.315,0.952,-18.982,12.268,-31.739,
00:00:02:200,0.016,0.316,0.956,-17.395,11.169,-29.969,
00:00:02:216,0.013,0.316,0.954,-19.288,9.826,-29.419,
00:00:02:233,0.011,0.316,0.954,-15.931,11.291,-29.969,
00:00:02:250,0.013,0.313,0.957,-16.785,10.131,-29.602,
00:00:02:266,0.011,0.316,0.955,-18.921,12.268,-30.03,
00:00:02:283,0.017,0.311,0.956,-19.654,9.643,-32.776,
00:00:02:300,0.013,0.316,0.951,-17.151,14.892,-30.823,
00:00:02:316,0.017,0.31,0.955,-17.823,10.803,-30.335,
00:00:02:333,0.017,0.319,0.951,-13.428,12.268,-28.992,
00:00:02:350,0.017,0.317,0.952,-13.916,9.46,-29.358,
00:00:02:366,0.015,0.313,0.955,-16.175,8.239,-27.283,
00:00:02:383,0.012,0.315,0.955,-16.968,6.164,-29.602,
00:00:02:400,0.01,0.316,0.955,-18.25,9.765,-29.847,
00:00:02:416,0.014,0.318,0.955,-15.686,11.84,-30.945,
00:00:02:433,0.016,0.312,0.955,-14.405,10.253,-31.128,
00:00:02:450,0.016,0.314,0.956,-13.306,9.338,-31.067,
00:00:02:466,0.016,0.312,0.955,-13.428,7.446,-28.87,
00:00:02:483,0.015,0.317,0.956,-13.184,10.986,-28.565,
00:00:02:500,0.012,0.314,0.951,-14.222,9.948,-29.664,
00:00:02:516,0.015,0.31,0.954,-14.527,9.155,-27.222,
00:00:02:533,0.014,0.313,0.954,-17.823,9.582,-27.161,
00:00:02:550,0.014,0.315,0.958,-18.006,6.408,-27.405,
00:00:02:566,0.011,0.318,0.955,-18.372,7.507,-28.87,
00:00:02:583,0.012,0.313,0.958,-13.55,9.704,-28.748,
00:00:02:600,0.009,0.314,0.962,-15.748,10.009,-29.847,
00:00:02:616,0.013,0.316,0.952,-11.78,15.319,-29.908,
00:00:02:633,0.021,0.314,0.953,-13.855,14.282,-31.861,
00:00:02:650,0.018,0.314,0.955,-12.452,9.399,-28.26,
00:00:02:666,0.012,0.311,0.956,-15.87,4.516,-28.748,
00:00:02:683,0.01,0.314,0.955,-15.809,6.469,-27.955,
00:00:02:700,0.013,0.314,0.954,-16.724,9.582,-28.748,
00:00:02:716,0.013,0.314,0.957,-16.968,9.887,-28.443,
00:00:02:733,0.012,0.341,0.957,-15.992,7.385,-29.297,
00:00:02:750,0.011,0.316,0.955,-15.503,6.469,-27.161,
00:00:02:766,0.012,0.316,0.954,-15.259,9.582,-29.175,
00:00:02:783,0.013,0.314,0.958,-16.297,12.695,-28.87,
00:00:02:800,0.01,0.317,0.955,-12.818,13.855,-30.579,
00:00:02:816,0.013,0.312,0.955,-13.916,10.62,-29.664,
00:00:02:833,0.016,0.309,0.956,-18.982,8.606,-27.955,
00:00:02:850,0.011,0.316,0.96,-17.701,7.08,-28.931,
00:00:02:866,0.011,0.314,0.959,-16.175,8.483,-30.03,
00:00:02:883,0.013,0.316,0.956,-15.931,10.07,-30.945,
00:00:02:900,0.011,0.311,0.958,-13.733,13.61,-30.091,
00:00:02:916,0.014,0.314,0.955,-15.503,10.864,-29.786,
00:00:02:933,0.014,0.342,0.953,-13.489,13.427,-27.955,
00:00:02:950,0.013,0.314,0.956,-18.616,10.315,-27.405,
00:00:02:966,0.012,0.311,0.953,-16.907,10.986,-26.368,
00:00:02:983,0.012,0.314,0.956,-18.677,9.948,-30.091,
00:00:03:0,0.012,0.314,0.954,-16.968,10.62,-31.311,
00:00:03:16,0.012,0.312,0.958,-18.067,9.826,-31.189,
00:00:03:33,0.009,0.317,0.954,-17.029,9.704,-28.26,
00:00:03:50,0.015,0.314,0.958,-13.794,13.305,-31.006,
00:00:03:66,0.014,0.317,0.955,-13.428,12.878,-28.565,
00:00:03:83,0.013,0.315,0.957,-12.513,12.817,-29.297,
00:00:03:100,0.015,0.314,0.956,-12.085,11.23,-29.48,
00:00:03:116,0.013,0.314,0.957,-11.963,11.718,-26.612,
00:00:03:133,0.01,0.312,0.957,-13.794,10.009,-29.541,
00:00:03:150,0.011,0.314,0.958,-11.841,12.573,-27.1,
00:00:03:166,0.01,0.317,0.958,-11.353,11.352,-27.771,
00:00:03:183,0.013,0.312,0.956,-13.001,10.864,-29.786,
00:00:03:200,0.009,0.313,0.961,-9.766,14.038,-30.03,
00:00:03:216,0.012,0.311,0.962,-12.024,16.296,-28.26,
00:00:03:233,0.011,0.313,0.955,-7.752,12.695,-27.71,
00:00:03:250,0.011,0.31,0.956,-9.888,15.686,-28.931,
00:00:03:266,0.014,0.311,0.957,-9.339,14.526,-28.321,
00:00:03:283,0.012,0.311,0.96,-9.583,13.671,-29.725,
00:00:03:300,0.012,0.316,0.956,-5.921,15.441,-29.847,
00:00:03:316,0.013,0.304,0.957,-5.921,15.93,-30.579,
00:00:03:333,0.016,0.311,0.956,-5.799,20.263,-15.686,
00:00:03:350,0.016,0.309,0.958,-3.357,15.991,-30.091,
00:00:03:366,0.014,0.311,0.957,-3.907,15.014,-29.541,
00:00:03:383,0.006,0.311,0.955,-4.09,12.878,-28.992,
00:00:03:400,0.012,0.307,0.964,-0.489,21.24,-29.419,
00:00:03:416,0.01,0.302,0.964,2.136,26.794,-29.175,
00:00:03:433,0.008,0.313,0.963,4.211,32.653,-26.307,
00:00:03:450,0.009,0.307,0.963,6.469,41.503,-32.898,
00:00:03:466,0.016,0.29,0.96,-2.137,43.09,-33.509,
00:00:03:483,-0.029,0.28,0.963,-31.922,40.71,12.878,
00:00:03:500,0.004,0.34,0.967,-12.146,68.786,-20.081,
00:00:03:516,0.008,0.312,0.983,-10.804,82.397,-23.194,
00:00:03:533,-0.008,0.294,0.968,-4.7,105.529,1.77,
00:00:03:550,-0.025,0.296,1.017,-3.602,161.682,35.583,
00:00:03:566,-0.079,0.349,1.15,73.059,240.844,42.175,
00:00:03:583,-0.159,0.244,1.416,203.064,438.781,41.198,
00:00:03:600,-0.11,0.088,1.918,222.473,579.406,81.726,
00:00:03:616,0.427,0.905,3.416,212.89,27.526,280.395,
00:00:03:633,0.657,1.2,3.517,-16.236,-285.523,511.108,
00:00:03:650,0.506,0.067,1.227,-256.836,-192.749,320.984,
00:00:03:666,0.645,0.776,0.482,-340.21,-969.422,925.415,
00:00:03:683,1.467,3.111,2.118,-367.127,-2000,1740.112,
00:00:03:700,0.728,2.512,2.645,1038.391,-2000,1387.634,
00:00:03:716,0.383,1.096,2.111,1603.759,-1991.211,1522.216,
00:00:03:733,0.701,0.947,1.651,1087.768,-2000,1771.24,
00:00:03:750,0.864,1.411,1.132,681.518,-2000,1999.694,
00:00:03:766,0.814,1.266,0.629,852.6,-2000,1999.694,
00:00:03:783,1.057,0.813,0.281,1175.293,-2000,1999.694,
00:00:03:800,1.387,0.443,-0.185,1444.336,-2000,1999.694,
00:00:03:816,1.606,-0.069,-0.824,1421.814,-2000,1849.548,
00:00:03:833,1.773,-0.719,-1.631,1001.464,-2000,1592.773,
00:00:03:850,1.449,-1.448,-2.344,505.554,-2000,1416.442,
00:00:03:866,0.657,-1.892,-2.565,-146.607,-2000,1311.096,
00:00:03:883,0.007,-2.258,-2.455,-382.142,-1162.537,928.222,
00:00:03:900,-0.309,-2.434,-2.519,-205.506,201.782,224.304,
00:00:03:916,-0.323,-2.347,-2.229,49.804,1509.399,-690.003,
00:00:03:933,-0.082,-2.213,-1.449,51.269,1999.694,-1412.293,
00:00:03:950,0.188,-1.855,-1.013,-614.075,1999.694,-1801.331,
00:00:03:966,0.294,-1.39,-0.596,-1253.113,1999.694,-1945.252,
00:00:03:983,0.397,-0.821,-0.129,-1601.319,1999.694,-1961.548,
00:00:04:0,0.508,-0.198,0.453,-1732.666,1999.694,-1920.411,
00:00:04:16,0.317,0.001,0.906,-2000,1999.694,-1999.573,
00:00:04:33,-0.061,0.133,1.164,-2000,1999.694,-2000,
00:00:04:50,0.033,0.175,0.406,-1983.948,1994.323,-2000,
00:00:04:66,1.405,3.182,-0.495,-424.378,1999.694,-932.435,
00:00:04:83,3.077,3.999,-0.005,1380.554,1999.694,-1083.802,
00:00:04:100,1.35,1.64,1.761,1999.694,889.282,-1332.52,
00:00:04:116,-0.043,-0.974,3.584,1955.322,824.707,-545.777,
00:00:04:133,-0.701,-1.11,2.705,-295.777,555.908,134.582,
00:00:04:150,-0.675,-0.569,1.353,-1984.437,183.532,-22.95,
00:00:04:166,-0.452,0.477,0.535,-2000,51.147,95.703,
00:00:04:183,-0.306,1.238,0.706,-1608.582,4.028,224.487,
00:00:04:200,-0.465,1.048,0.862,333.252,158.996,-198.06,
00:00:04:216,-0.466,-0.002,0.938,1631.591,386.84,-504.273,
00:00:04:233,-0.312,-0.707,1.09,1186.157,467.407,-529.969,
00:00:04:250,-0.034,-0.53,1.375,-119.69,288.086,-329.895,
00:00:04:266,0.131,0.142,1.323,-948.548,132.934,-192.872,
00:00:04:283,0.091,0.42,1.104,-1095.582,88.989,-198.06,
00:00:04:300,0.003,0.679,0.921,-901.856,67.993,-122.559,
00:00:04:316,-0.073,0.975,0.937,-454.773,65.612,-6.165,
00:00:04:333,-0.177,0.841,1.083,320.8,160.034,-64.576,
00:00:04:350,-0.181,0.263,1.222,698.73,250.854,-150.513,
00:00:04:366,-0.078,-0.118,1.306,390.197,222.778,-125.245,
00:00:04:383,0.067,-0.099,1.373,-419.495,0.122,-121.888,
00:00:04:400,-0.029,0.504,1.211,-800.721,-185.12,64.27,
00:00:04:416,-0.124,0.837,1.02,-389.649,-156.617,54.443,
00:00:04:433,-0.121,0.622,0.944,160.522,-26.978,-19.471,
00:00:04:450,-0.092,0.326,0.93,350.28,3.112,-3.357,
00:00:04:466,-0.081,0.162,0.931,238.403,-7.203,-10.621,
00:00:04:483,-0.073,0.123,0.922,83.923,-11.719,-18.006,
00:00:04:500,-0.079,0.139,0.89,-54.261,20.263,-27.283,
00:00:04:516,-0.028,0.283,0.932,-126.404,-10.315,-8.362,
00:00:04:533,-0.027,0.288,0.944,-132.752,-15.625,-28.199,
00:00:04:550,-0.046,0.33,0.916,-151.856,-28.26,-12.757,
00:00:04:566,-0.043,0.386,0.896,-100.037,-16.846,-2.564,
00:00:04:583,-0.032,0.431,0.946,23.254,-17.945,28.503,
00:00:04:600,-0.085,0.274,0.948,107.299,12.085,-17.09,
00:00:04:616,-0.113,0.246,0.934,49.682,13.305,5.065,
00:00:04:633,-0.119,0.368,0.885,34.668,31.799,48.156,
00:00:04:650,-0.093,0.425,0.931,134.094,60.546,35.4,
00:00:04:666,-0.093,0.276,0.943,181.823,95.031,-12.635,
00:00:04:683,-0.131,0.229,0.912,130.249,83.435,30.334,
00:00:04:700,-0.092,0.324,0.908,109.863,87.28,22.094,
00:00:04:716,-0.073,0.276,0.908,135.07,101.196,-17.456,
00:00:04:733,-0.077,0.287,0.914,126.403,82.702,-3.052,
00:00:04:750,-0.063,0.355,0.942,185.791,84.35,-1.16,
00:00:04:766,-0.063,0.301,0.956,216.003,90.515,-31.861,
00:00:04:783,-0.063,0.281,0.967,221.374,80.444,-27.588,
00:00:04:800,-0.053,0.285,0.997,230.651,77.331,-31.006,
00:00:04:816,-0.048,0.271,1.023,241.516,70.251,-36.988,
00:00:04:833,-0.038,0.229,1.036,231.75,73.852,-49.195,
00:00:04:850,-0.027,0.189,1.036,199.34,69.885,-51.331,
00:00:04:866,-0.007,0.173,1.041,150.085,54.26,-51.758,
00:00:04:883,0.007,0.176,1.055,121.032,42.541,-56.702,
00:00:04:900,0.009,0.161,1.056,97.473,35.949,-64.698,
00:00:04:916,0.036,0.178,1.06,102.295,27.038,-64.209,
00:00:04:933,0.044,0.099,1.038,67.077,36.621,-92.957,
00:00:04:950,0.043,0.091,1.024,3.234,23.01,-82.642,
00:00:04:966,0.053,0.113,1.002,-24.842,33.508,-81.482,
00:00:04:983,0.045,0.138,0.989,-28.504,29.48,-67.139,
00:00:05:0,0.017,0.152,0.983,-19.593,34.729,-60.547,
00:00:05:16,-0.011,0.158,0.984,-5.677,44.067,-46.265,
00:00:05:33,-0.06,0.162,0.979,-1.038,56.762,-36.622,
00:00:05:50,-0.044,0.164,0.992,8.361,65.918,-24.903,
00:00:05:66,-0.057,0.162,1.017,25.268,70.8,-14.893,
00:00:05:83,-0.068,0.157,1.042,34.118,71.289,-4.822,
00:00:05:100,-0.078,0.138,1.055,20.935,77.88,-6.104,
00:00:05:116,-0.069,0.134,1.063,-6.226,71.472,-3.235,
00:00:05:133,-0.06,0.135,1.05,-46.448,68.298,-2.137,
00:00:05:150,-0.048,0.143,1.039,-86.487,67.016,-1.038,
00:00:05:166,-0.033,0.169,1.029,-119.202,60.485,1.403,
00:00:05:183,-0.017,0.211,1.02,-118.226,55.542,9.765,
00:00:05:200,-0.011,0.18,0.984,-82.093,74.951,-15.259,
00:00:05:216,-0.014,0.177,0.985,-83.68,67.993,18.92,
00:00:05:233,-0.012,0.214,0.996,-91.675,62.866,21.24,
00:00:05:250,0,0.209,0.991,-91.736,70.007,14.892,
00:00:05:266,0.015,0.2,0.966,-120.484,62.133,19.043,
00:00:05:283,0.011,0.224,0.961,-127.808,53.344,33.386,
00:00:05:300,0.006,0.247,0.961,-91.797,69.03,38.574,
00:00:05:316,0.013,0.25,0.982,-44.19,82.275,38.452,
00:00:05:333,0.023,0.238,1.001,-16.175,90.026,42.175,
00:00:05:350,0.037,0.229,1,-20.264,78.552,49.804,
00:00:05:366,0.035,0.221,0.984,-33.143,64.086,50.72,
00:00:05:383,0.026,0.207,0.96,-52.491,54.992,49.56,
00:00:05:400,0.018,0.197,0.936,-52.43,48.339,42.175,
00:00:05:416,0.021,0.199,0.94,-41.687,43.273,29.663,
00:00:05:433,0.016,0.217,0.984,-43.457,44.555,21.911,
00:00:05:450,0.033,0.237,1.045,-59.693,39.672,16.174,
00:00:05:466,0.051,0.221,1.1,-97.168,23.864,24.353,
00:00:05:483,0.057,0.19,1.115,-156.556,4.211,59.631,
00:00:05:500,0.074,0.192,1.107,-274.231,-21.302,80.2,
00:00:05:516,0.1,0.252,1.119,-388.062,-72.815,136.108,
00:00:05:533,0.087,0.368,1.114,-540.894,-147.461,188.903,
00:00:05:550,0.052,0.459,1.109,-636.414,-205.811,210.51,
00:00:05:566,0.008,0.502,1.072,-640.137,-222.901,227.722,
00:00:05:583,-0.035,0.505,1.055,-564.637,-211.792,251.892,
00:00:05:600,-0.033,0.588,1.063,-491.639,-237.671,328.857,
00:00:05:616,-0.059,0.684,1.09,-343.445,-275.025,394.897,
00:00:05:633,-0.139,0.653,1.097,-185.547,-262.146,404.297,
00:00:05:650,-0.172,0.612,1.08,-84.29,-279.969,449.829,
00:00:05:666,-0.176,0.583,1.084,25.146,-320.862,474.731,
00:00:05:683,-0.183,0.499,1.037,196.289,-302.918,480.59,
00:00:05:700,-0.171,0.367,0.944,313.11,-272.278,483.764,
00:00:05:716,-0.159,0.259,0.857,328.735,-259.705,472.961,
00:00:05:733,-0.176,0.222,0.854,285.766,-250.855,462.341,
00:00:05:750,-0.206,0.273,0.867,203.003,-246.46,462.646,
00:00:05:766,-0.224,0.346,0.899,196.472,-253.724,463.989,
00:00:05:783,-0.247,0.345,0.943,312.683,-222.596,426.269,
00:00:05:800,-0.265,0.247,0.981,510.681,-177.185,392.517,
00:00:05:816,-0.254,0.12,1.002,625.305,-123.78,356.811,
00:00:05:833,-0.234,0.056,0.932,615.478,-107.789,334.777,
00:00:05:850,-0.222,0.087,0.849,477.234,-129.273,356.384,
00:00:05:866,-0.286,0.105,0.845,393.859,-116.211,335.51,
00:00:05:883,-0.341,0.087,0.907,424.56,-61.646,286.499,
00:00:05:900,-0.347,0.038,0.942,529.968,11.413,243.957,
00:00:05:916,-0.304,0.009,0.883,577.514,39.794,223.816,
00:00:05:933,-0.292,0.003,0.807,553.588,71.228,226.623,
00:00:05:950,-0.279,0.152,0.734,533.874,75.927,240.173,
00:00:05:966,-0.277,-0.281,0.889,915.832,333.435,-5.188,
00:00:05:983,-0.159,-0.275,0.95,701.416,298.401,-14.527,
00:00:06:0,-0.109,-0.165,0.943,476.623,196.594,31.921,
00:00:06:16,-0.213,-0.093,0.938,398.498,168.335,45.288,
00:00:06:33,-0.245,-0.059,0.924,455.2,199.951,30.761,
00:00:06:50,-0.157,-0.158,1.002,779.541,244.69,-12.574,
00:00:06:66,-0.066,-0.125,0.834,696.167,233.642,96.435,
00:00:06:83,-0.117,-0.177,0.743,601.44,206.726,105.346,
00:00:06:100,-0.245,-0.313,0.772,598.816,253.296,62.805,
00:00:06:116,-0.091,-0.286,0.851,430.847,240.295,47.79,
00:00:06:133,-0.137,-0.289,0.812,419.067,234.802,54.138,
00:00:06:150,-0.151,-0.38,0.843,436.157,288.208,14.77,
00:00:06:166,-0.101,-0.46,0.895,351.257,303.161,-8.423,
00:00:06:183,-0.075,-0.491,0.967,186.889,252.197,-9.461,
00:00:06:200,-0.072,-0.41,0.982,22.522,173.217,1.831,
00:00:06:216,-0.054,-0.357,0.995,-102.112,147.522,-25.818,
00:00:06:233,-0.022,-0.355,0.985,-154.297,121.093,-23.56,
00:00:06:250,-0.065,-0.389,0.953,-246.46,114.868,-17.029,
00:00:06:266,-0.135,-0.17,0.651,-525.635,49.377,119.384,canRH
00:00:06:283,-0.275,-0.009,0.523,-380.127,33.63,173.767,
00:00:06:300,-0.379,-0.444,0.906,588.501,444.824,-92.164,
00:00:06:316,0.107,-0.374,0.673,499.633,639.221,-37.72,
00:00:06:333,0.275,-0.642,1.165,145.202,407.714,-162.415,
00:00:06:350,0.212,-0.555,1.132,-430.481,268.371,-28.382,
00:00:06:366,-0.053,-0.153,0.91,-1144.837,52.673,197.204,
00:00:06:383,-0.248,-0.247,1.424,-952.149,18.371,-4.029,
00:00:06:400,-0.099,0.031,0.68,-804.688,103.393,169.311,
00:00:06:416,-0.038,-0.224,1.092,-428.894,70.8,4.638,
00:00:06:433,0.051,-0.221,0.905,-111.573,132.324,30.151,
00:00:06:450,-0.054,-0.163,0.807,-275.391,150.268,112.06,
00:00:06:466,-0.042,-0.43,1.205,-234.009,128.906,-116.394,
00:00:06:483,0.071,-0.178,0.878,-424.927,115.295,135.742,
00:00:06:500,0.006,-0.263,1.191,-739.747,44.311,49.56,
00:00:06:516,-0.002,-0.245,1.198,-843.14,32.409,-51.331,
00:00:06:533,-0.062,-0.123,1.318,-1719.544,-69.214,161.01,
00:00:06:550,-0.112,-0.499,1.017,-1992.859,-81.971,-150.086,
00:00:06:566,-0.117,-0.677,1.031,-2000,-166.138,-169.861,
00:00:06:583,0.064,0.187,0.653,-2000,25.573,-30.03,
00:00:06:600,0.17,0.617,0.939,-1795.899,6.591,-265.748,
00:00:06:616,0.149,0.304,1.028,-1013.489,162.902,-275.33,
00:00:06:633,0.256,0.702,0.797,-774.292,181.579,-133.118,
00:00:06:650,0.228,0.823,0.842,-351.99,188.598,-81.971,
00:00:06:666,0.245,0.705,0.972,144.531,210.876,-17.64,
00:00:06:683,0.26,0.449,1.072,506.103,210.693,38.879,
00:00:06:700,0.244,0.252,1.131,708.862,205.444,82.458,
00:00:06:716,0.222,0.147,1.099,799.133,168.701,101.745,
00:00:06:733,0.201,0.055,1.139,934.57,150.024,36.071,
00:00:06:750,0.244,0.17,1.104,1096.557,75.317,29.846,
00:00:06:766,0.225,0.356,0.996,1549.011,-42.481,28.32,
00:00:06:783,0.11,0.381,0.961,1999.694,-67.078,-24.72,
00:00:06:800,-0.003,0.106,1.094,1999.694,37.841,-126.343,
00:00:06:816,-0.051,-0.225,1.043,1999.694,129.394,-69.764,
00:00:06:833,-0.005,-0.481,1.068,1999.694,43.823,-158.753,
00:00:06:850,-0.049,-0.546,1.077,1999.694,-139.1,-64.026,
00:00:06:866,-0.198,-0.543,0.954,1759.887,-73.121,71.899,
00:00:06:883,-0.22,-0.451,0.79,1187.622,24.353,123.474,
00:00:06:900,-0.032,-0.276,0.601,788.696,-33.448,111.877,
00:00:06:916,-0.046,-0.13,0.491,883.361,-30.762,164.367,
00:00:06:933,-0.225,-0.405,0.531,1289.795,273.864,157.287,
00:00:06:950,-0.059,-0.801,0.762,1298.584,393.554,89.05,
00:00:06:966,0.138,-0.847,0.775,944.458,214.782,109.863,
00:00:06:983,0.055,-0.734,0.66,684.875,72.937,129.211,
00:00:07:0,-0.011,-0.683,0.51,584.411,75.256,135.742,
00:00:07:16,0.015,-0.727,0.45,537.841,109.68,118.225,
00:00:07:33,0.088,-0.702,0.432,517.761,142.395,112.365,
00:00:07:50,0.094,-0.816,0.381,464.538,211.547,70.678,
00:00:07:66,0.161,-0.916,0.594,255.859,219.97,18.432,
00:00:07:83,0.157,-0.988,0.63,-57.801,145.874,18.249,
00:00:07:100,0.053,-0.905,0.578,-380.372,47.79,17.822,
00:00:07:116,-0.033,-0.636,0.395,-649.842,9.826,34.301,
00:00:07:133,-0.022,-0.644,0.531,-436.097,-46.204,-3.418,
00:00:07:150,0.175,-0.888,0.709,162.353,252.929,-43.274,
00:00:07:166,0.225,-0.944,0.617,-432.862,145.752,86.303,
00:00:07:183,0.122,-0.487,0.801,-880.921,79.223,104.187,
00:00:07:200,0.15,-0.63,0.791,-1263.978,44.128,5.981,
00:00:07:216,0.469,-1.367,0.881,-2000,290.283,-195.313,
00:00:07:233,0.523,-1.16,0.931,-2000,50.354,63.903,
00:00:07:250,0.427,-0.652,1.087,-2000,-265.076,186.096,
00:00:07:266,0.188,-0.439,0.578,-2000,-424.317,144.47,
00:00:07:283,0.176,0.253,0.377,-2000,-330.262,241.027,
00:00:07:300,0.238,0.74,0.531,-2000,-219.178,0.366,
00:00:07:316,0.26,0.558,0.64,-1136.17,161.499,-260.621,
00:00:07:333,0.235,0.595,0.617,-533.265,204.101,-217.225,
00:00:07:350,0.254,0.054,1.071,-262.33,216.613,-333.863,
00:00:07:366,0.376,0.246,0.974,-195.984,287.17,-41.077,
00:00:07:383,0.358,0.599,1.163,-145.081,117.37,-19.104,
00:00:07:400,0.408,0.389,1.256,293.213,103.21,18.615,
00:00:07:416,0.438,0.213,1.247,532.348,12.329,42.358,
00:00:07:433,0.414,0.098,1.158,697.692,-52.735,71.044,
00:00:07:450,0.375,0.155,1.117,921.63,-82.154,97.168,
00:00:07:466,0.357,0.226,1.014,1180.969,-103.455,75.256,
00:00:07:483,0.324,0.293,0.923,1565.796,-167.42,57.19,
00:00:07:500,0.219,0.206,0.849,1999.694,-192.566,-2.381,
00:00:07:516,0.104,0.073,0.85,1999.694,-100.953,-70.374,
00:00:07:533,0.007,-0.249,0.84,1999.694,65.979,-173.829,
00:00:07:550,0.001,-0.589,0.969,1999.694,178.65,-272.461,
00:00:07:566,0.121,-0.814,0.951,1999.694,-29.236,-283.326,
00:00:07:583,0.031,-0.75,0.77,1999.694,-68.909,22.827,
00:00:07:600,-0.128,-0.814,0.747,1578.43,79.101,77.026,
00:00:07:616,0.008,-0.649,0.756,1017.089,21.179,67.871,
00:00:07:633,0.141,-0.218,0.791,861.511,-111.329,133.422,
00:00:07:650,-0.103,-0.562,0.602,1083.801,129.821,31.494,
00:00:07:666,-0.065,-1.05,0.392,1056.396,298.584,-86.365,
00:00:07:683,0.145,-0.689,0.747,595.031,201.66,87.951,
00:00:07:700,0.251,-0.939,0.71,604.431,142.273,-19.41,
00:00:07:716,0.281,-0.92,0.511,430.236,-7.203,-39.978,
00:00:07:733,0.183,-0.813,0.351,326.599,-41.504,-3.418,
00:00:07:750,0.238,-0.666,0.51,220.092,21.728,55.603,
00:00:07:766,0.213,-0.81,0.473,235.962,68.725,59.326,
00:00:07:783,0.274,-0.922,0.37,117.309,54.077,65.734,
00:00:07:800,0.269,-0.774,0.257,-31.556,-26.246,120.3,
00:00:07:816,0.16,-1.143,0.454,-38.331,118.53,20.935,
00:00:07:833,0.193,-0.883,0.408,-36.988,13.916,-82.52,
00:00:07:850,0.128,-0.919,0.338,-77.698,19.226,-75.379,
00:00:07:866,0.228,-0.772,0.426,-256.836,-36.072,-65.796,
00:00:07:883,0.17,-0.596,0.534,-278.809,-75.318,-7.081,
00:00:07:900,0.155,-0.7,0.536,-159.058,-1.77,-18.433,
00:00:07:916,0.095,-0.989,0.495,-406.434,89.965,-41.993,
00:00:07:933,0.132,-0.965,0.409,-752.259,84.899,-25.086,
00:00:07:950,0.071,-0.851,0.692,-1126.709,-57.923,80.139,
00:00:07:966,0.165,-0.503,0.539,-599.671,26.123,-16.358,
00:00:07:983,0.269,-0.649,0.541,-350.647,99.304,8.117,
00:00:08:0,0.196,-0.534,0.572,-324.341,174.804,7.324,
00:00:08:16,0.136,-0.642,0.729,-532.105,149.536,1.648,
00:00:08:33,0.117,-0.898,0.611,-1114.624,233.337,28.869,
00:00:08:50,0.191,-0.932,0.604,-1677.002,361.694,-7.203,
00:00:08:66,0.429,-1.003,0.878,-2000,363.22,-88.318,
00:00:08:83,0.754,-1.458,0.898,-2000,449.646,-64.82,
00:00:08:100,0.34,0.814,0.897,-2000,-915.467,466.613,
00:00:08:116,-0.079,0.846,1.043,-1777.833,-608.338,251.587,
00:00:08:133,-0.034,0.116,0.85,-36.499,20.263,-207.093,
00:00:08:150,0.424,-0.075,0.497,467.529,339.355,57.251,
00:00:08:166,0.683,-0.197,0.567,534.912,263.916,-33.57,
00:00:08:183,0.602,-0.231,0.848,609.741,130.005,-50.293,
00:00:08:200,0.449,-0.339,1.09,686.523,156.555,-108.094,
00:00:08:216,0.479,-0.419,1.256,694.519,138.855,-130.005,
00:00:08:233,0.561,-0.276,1.266,718.505,7.08,-81.849,
00:00:08:250,0.542,-0.154,1.121,875.427,-109.498,-67.078,
00:00:08:266,0.448,-0.062,0.984,1271.789,-191.468,-64.576,
00:00:08:283,0.038,-0.483,0.797,1999.694,-81.177,-193.421,
00:00:08:300,0.088,-0.459,1.038,1999.694,-197.876,-210.755,
00:00:08:316,0.135,-0.285,1.044,1999.694,-269.165,-35.645,
00:00:08:333,0.006,-0.428,0.539,1999.694,38.452,166.32,
00:00:08:350,-0.201,-1.023,0.306,1914.55,237.182,11.657,
00:00:08:366,-0.116,-1.322,0.315,1084.777,196.838,-38.514,
00:00:08:383,0.157,-0.882,0.318,376.953,32.47,76.294,
00:00:08:400,0.189,-0.548,0.443,150.756,19.592,213.806,
00:00:08:416,0.112,-0.599,0.486,374.694,169.677,216.247,
00:00:08:433,0.141,-0.937,0.461,596.923,305.603,109.008,
00:00:08:450,0.312,-0.97,0.431,371.582,230.957,57.312,
00:00:08:466,0.419,-0.879,0.483,210.022,-32.776,-51.819,
00:00:08:483,0.331,-1.017,0.512,221.984,30.151,-38.575,
00:00:08:500,0.325,-0.943,0.307,84.533,-65.491,-113.953,
00:00:08:516,0.201,-0.934,0.277,28.32,8.972,-90.943,
00:00:08:533,0.237,-0.895,0.443,-166.321,-2.564,-123.169,
00:00:08:550,0.241,-0.592,0.565,-141.541,-46.875,33.874,
00:00:08:566,0.152,-0.687,0.565,-227.723,-65.552,97.29,
00:00:08:583,0.187,-0.73,0.547,-48.768,-14.893,68.176,
00:00:08:600,0.266,-0.958,0.522,-188.538,-77.088,121.093,
00:00:08:616,0.087,-0.707,0.095,-243.409,73.12,140.503,
00:00:08:633,0.141,-0.976,0.487,-1367.859,218.383,-51.392,
00:00:08:650,0.297,-1.319,0.494,-1816.895,311.706,-213.257,
00:00:08:666,0.388,-1.295,0.362,-2000,407.226,-127.137,
00:00:08:683,0.379,-0.691,0.322,-2000,353.82,153.259,
00:00:08:700,0.385,-0.3,0.467,-2000,143.371,111.694,
00:00:08:716,0.389,-0.152,0.507,-2000,15.075,145.874,
00:00:08:733,0.351,-0.366,0.657,-2000,33.508,89.416,
00:00:08:750,0.508,0.096,0.775,-2000,-49.805,207.214,
00:00:08:766,0.551,0.892,0.838,-2000,-137.94,302.185,
00:00:08:783,0.436,0.562,1.432,-1000.977,-133.484,-94.544,
00:00:08:800,0.348,0.082,1.068,-192.139,113.708,-115.418,
00:00:08:816,0.555,0.251,0.967,-98.999,61.645,73.425,
00:00:08:833,0.609,0.235,1.068,299.255,-16.846,1.525,
00:00:08:850,0.543,0.171,1.053,899.231,-50.232,6.286,
00:00:08:866,0.469,0.036,1.036,1376.953,-79.956,-46.326,
00:00:08:883,0.504,-0.097,1.002,1754.516,-57.801,-88.501,
00:00:08:900,0.542,-0.228,1.024,1944.213,-106.446,-183.228,
00:00:08:916,0.506,-0.245,1.04,1999.511,-186.951,-161.072,
00:00:08:933,0.397,-0.316,0.994,1999.694,-228.882,-182.923,
00:00:08:950,0.194,-0.66,0.89,1999.694,-151.551,-216.004,
00:00:08:966,0.15,-0.656,0.814,1902.954,-206.727,-169.983,
00:00:08:983,0.151,-0.53,0.858,1652.16,-294.983,-157.959,
00:00:09:0,0.104,-0.494,0.802,1541.687,-200.501,-95.826,
00:00:09:16,0.07,-0.611,0.654,1526.428,-15.564,-45.289,
00:00:09:33,0.098,-0.692,0.415,988.159,63.781,32.47,
00:00:09:50,0.113,-0.772,0.52,694.336,93.75,6.164,
00:00:09:66,0.162,-0.793,0.536,488.281,72.326,58.044,
00:00:09:83,0.152,-0.713,0.45,426.452,124.633,146.667,
00:00:09:100,0.198,-0.779,0.423,366.516,158.325,141.235,
00:00:09:116,0.256,-0.773,0.422,277.893,136.23,148.132,
00:00:09:133,0.283,-0.847,0.454,263.122,130.432,117.431,
00:00:09:150,0.289,-0.977,0.468,285.217,79.223,60.18,
00:00:09:166,0.208,-1.044,0.299,355.774,137.512,-0.306,
00:00:09:183,0.252,-1.084,0.293,167.968,152.649,-48.279,
00:00:09:200,0.35,-0.82,0.329,3.662,76.965,-29.358,
00:00:09:216,0.317,-0.612,0.407,27.343,65.063,-15.381,
00:00:09:233,0.249,-0.749,0.52,69.519,86.364,-20.264,
00:00:09:250,0.311,-0.752,0.62,-35.035,28.198,3.295,
00:00:09:266,0.325,-0.689,0.615,-109.131,-60.914,48.95,
00:00:09:283,0.241,-0.721,0.572,-95.276,-84.839,75.195,
00:00:09:300,0.15,-0.734,0.672,-269.959,-143.311,157.653,
00:00:09:316,0.225,-0.815,0.505,-80.384,-92.286,33.996,
00:00:09:333,0.326,-1.041,0.599,-354.004,-163.392,72.753,
00:00:09:350,0.249,-0.735,0.113,-519.776,-47.608,155.517,
00:00:09:366,0.238,-1.18,0.525,-350.464,-112.671,-105.591,
00:00:09:383,0.301,-0.814,0.214,-698.975,25.146,197.631,
00:00:09:400,0.229,-1.098,0.1,-595.887,85.51,-129.7,
00:00:09:416,0.497,-0.936,0.354,-676.392,75.988,-16.419,
00:00:09:433,0.473,-0.778,0.251,-672.73,212.524,0.366,
00:00:09:450,0.392,-0.889,0.682,-1029.175,117.736,-55.481,
00:00:09:466,0.306,-1.039,0.783,-1155.213,142.883,-126.709,
00:00:09:483,0.419,-0.811,0.744,-1727.723,94.482,-16.663,
00:00:09:500,0.264,-0.571,0.31,-1816.346,273.986,-82.52,
00:00:09:516,0.339,-0.809,0.382,-1998.475,226.501,-142.762,
00:00:09:533,0.389,-0.552,0.586,-2000,165.1,96.252,
00:00:09:550,0.337,-0.153,0.855,-2000,144.531,42.968,
00:00:09:566,0.374,-0.182,0.886,-2000,147.338,-74.463,
00:00:09:583,0.643,-0.191,1.326,-2000,-228.333,18.798,
00:00:09:600,0.533,-0.046,0.887,-2000,-448.487,189.148,
00:00:09:616,0.163,0.414,0.444,-2000,-243.714,116.088,
00:00:09:633,0.284,0.345,0.592,-1771.424,-13.367,-212.708,
00:00:09:650,0.401,0.947,0.496,-930.237,95.031,279.174,
00:00:09:666,0.475,0.852,0.788,25.512,93.994,-45.227,
00:00:09:683,0.493,0.436,0.947,694.641,197.265,-45.227,
00:00:09:700,0.574,0.195,1.033,935.608,155.151,-5.799,
00:00:09:716,0.546,0.112,1.18,1058.654,23.62,-3.357,
00:00:09:733,0.494,0.05,1.155,1167.724,-38.819,16.601,
00:00:09:750,0.52,0.079,1.082,1356.506,-79.712,35.827,
00:00:09:766,0.526,0.114,0.994,1765.808,-168.641,41.198,
00:00:09:783,0.48,0.086,0.908,1999.694,-209.473,1.098,
00:00:09:800,0.377,-0.003,0.835,1999.694,-231.202,-104.004,
00:00:09:816,0.267,-0.334,0.76,1999.694,-148.499,-294.922,
00:00:09:833,0.245,-0.634,0.798,1999.694,-65.674,-378.907,
00:00:09:850,0.27,-1.037,0.854,1999.694,-122.498,-494.996,
00:00:09:866,0.247,-1.058,0.796,1999.694,-247.803,-221.07,
00:00:09:883,0.089,-0.889,0.725,1484.619,-177.063,50.354,
00:00:09:900,-0.02,-0.718,0.509,828.369,-65.43,135.803,
00:00:09:916,0.096,-0.381,0.4,584.594,-37.415,183.044,
00:00:09:933,0.172,-0.274,0.468,602.417,-4.7,112.426,
00:00:09:950,0.133,-0.635,0.486,701.965,111.328,144.287,
00:00:09:966,0.119,-0.895,0.429,644.287,167.907,208.435,
00:00:09:983,0.172,-0.824,0.349,484.68,157.898,253.479,
00:00:10:0,0.223,-0.788,0.326,405.578,184.204,238.281,
00:00:10:16,0.309,-0.792,0.351,327.514,177.673,199.707,
00:00:10:33,0.325,-0.851,0.36,281.005,158.386,171.814,
00:00:10:50,0.374,-0.942,0.499,235.168,123.718,98.083,
00:00:10:66,0.373,-1.15,0.329,360.534,90.881,-57.679,
00:00:10:83,0.377,-1.161,0.33,186.218,101.074,-79.041,
00:00:10:100,0.336,-0.918,0.435,-98.328,-8.24,-54.2,
00:00:10:116,0.28,-0.655,0.515,-169.8,-22.278,-58.96,
00:00:10:133,0.312,-0.59,0.427,-90.943,-24.964,-66.102,
00:00:10:150,0.27,-0.633,0.541,-140.198,-19.043,28.991,
00:00:10:166,0.163,-0.789,0.605,-378.785,-123.108,57.251,
00:00:10:183,0.265,-0.791,0.459,-30.213,-16.114,-46.631,
00:00:10:200,0.297,-0.973,0.474,-481.141,4.638,51.33,
00:00:10:216,0.267,-1.069,0.296,-585.755,75.5,-97.596,
00:00:10:233,0.271,-1.196,0.561,-1156.373,-3.54,-47.913,
00:00:10:250,0.281,-1.165,0.415,-1481.751,20.813,-126.404,
00:00:10:266,0.372,-0.89,0.239,-1680.665,159.24,-125.916,
00:00:10:283,0.291,-0.872,0.117,-1812.867,375.854,-129.822,canRH
00:00:10:300,0.43,-0.892,0.392,-1947.632,528.625,-220.459,
00:00:10:316,0.65,-0.927,0.499,-2000,520.141,-110.84,
00:00:10:333,0.83,-0.63,1.004,-2000,5.493,156.067,
00:00:10:350,0.622,-0.139,1.052,-2000,-388.794,281.555,
00:00:10:366,0.204,0.084,0.482,-2000,-322.571,247.741,
00:00:10:383,0.261,0.454,0.625,-2000,-348.572,285.705,
00:00:10:400,0.39,0.773,0.74,-1429.993,-135.682,189.819,
00:00:10:416,0.343,0.288,0.815,-367.493,165.71,-166.382,
00:00:10:433,0.465,-0.375,0.877,25.878,316.406,-267.09,
00:00:10:450,0.581,0.008,0.843,-397.339,152.465,127.197,
00:00:10:466,0.547,0.342,1.109,-279.908,-66.956,30.151,
00:00:10:483,0.404,0.26,1.211,290.832,-35.157,8.483,
00:00:10:500,0.439,0.082,1.106,614.502,11.474,-26.307,
00:00:10:516,0.533,-0.053,0.941,869.201,-20.508,-38.941,
00:00:10:533,0.594,-0.097,0.964,1187.5,-74.83,-39.002,
00:00:10:550,0.556,-0.097,0.966,1596.984,-143.616,-48.706,
00:00:10:566,0.482,-0.124,0.933,1990.539,-173.401,-114.258,
00:00:10:583,0.441,-0.161,0.843,1999.694,-212.098,-201.844,
00:00:10:600,0.392,-0.315,0.813,1999.694,-223.389,-291.077,
00:00:10:616,0.327,-0.486,0.815,1999.694,-207.581,-274.292,
00:00:10:633,0.298,-0.682,0.855,1999.694,-215.455,-256.897,
00:00:10:650,0.231,-0.835,0.847,1999.694,-221.68,-193.421,
00:00:10:666,0.14,-1.027,0.699,1608.093,-93.384,-2.625,
00:00:10:683,0.034,-0.947,0.464,900.268,-109.986,85.388,
00:00:10:700,0.05,-0.537,0.409,533.386,-131.165,176.696,
00:00:10:716,0.082,-0.43,0.449,433.96,-74.463,52.978,
00:00:10:733,0.071,-0.658,0.478,486.755,60.669,103.881,
00:00:10:750,0.097,-0.807,0.352,520.63,137.085,176.33,
00:00:10:766,0.119,-0.852,0.357,460.815,213.073,178.161,
00:00:10:783,0.242,-0.836,0.392,342.224,190.124,135.009,
00:00:10:800,0.293,-0.84,0.265,387.146,203.369,65.551,
00:00:10:816,0.335,-1.131,0.437,343.872,215.21,-66.346,
00:00:10:833,0.446,-1.022,0.503,154.358,120.666,-49.683,
00:00:10:850,0.333,-1.009,0.53,-47.181,96.191,-67.322,
00:00:10:866,0.364,-0.815,0.558,-217.408,-8.362,-109.07,
00:00:10:883,0.336,-0.53,0.532,-196.656,-86.304,-53.894,
00:00:10:900,0.234,-0.577,0.439,-80.384,-50.782,-13.55,
00:00:10:916,0.211,-0.62,0.292,-90.271,-6.104,36.071,
00:00:10:933,0.249,-0.785,0.32,96.313,60.241,9.399,
00:00:10:950,0.316,-0.843,0.196,24.841,95.459,60.852,
00:00:10:966,0.346,-0.93,0.316,15.564,119.629,54.382,
00:00:10:983,0.341,-0.917,0.417,-96.131,168.09,79.162,
00:00:11:0,0.284,-0.884,0.467,-533.387,114.135,106.872,
00:00:11:16,0.3,-0.59,0.333,-638.184,75.378,126.831,
00:00:11:33,0.246,-0.871,0.508,-848.633,135.192,96.069,
00:00:11:50,0.411,-1.042,0.624,-939.759,138.488,-17.64,
00:00:11:66,0.464,-0.822,0.56,-1301.087,242.37,126.464,
00:00:11:83,0.41,-0.788,0.638,-1485.474,208.191,8.789,
00:00:11:100,0.371,-0.914,0.838,-1907.349,200.378,25.512,
00:00:11:116,0.327,-0.57,0.715,-2000,208.191,122.07,
00:00:11:133,0.327,-0.676,0.62,-2000,167.602,55.725,
00:00:11:150,0.41,-0.769,0.661,-2000,115.417,240.173,
00:00:11:166,0.506,-0.681,0.808,-2000,-32.776,251.037,
00:00:11:183,0.638,-0.49,1.099,-2000,-251.404,160.888,
00:00:11:200,0.635,0.111,1.1,-2000,-432.435,274.719,
00:00:11:216,0.366,0.473,0.404,-2000,-297.547,251.037,
00:00:11:233,0.417,0.64,0.921,-1990.357,-353.516,167.358,
00:00:11:250,0.46,0.817,0.708,-878.113,-76.172,176.269,
00:00:11:266,0.551,0.727,0.832,-54.566,-50.843,5.371,
00:00:11:283,0.508,0.386,0.955,338.317,-10.865,-10.193,
00:00:11:300,0.552,0.258,1.034,466.369,-5.066,-14.649,
00:00:11:316,0.575,0.237,1.116,631.713,-56.275,-7.386,
00:00:11:333,0.489,0.273,1.036,843.505,-123.841,23.193,
00:00:11:350,0.42,0.241,0.935,1154.48,-127.564,9.033,
00:00:11:366,0.434,0.153,0.914,1420.959,-100.281,5.432,
00:00:11:383,0.404,0.132,0.836,1709.411,-139.1,-15.259,
00:00:11:400,0.372,0.172,0.865,1999.694,-189.637,-57.129,
00:00:11:416,0.359,0.062,0.972,1999.694,-165.467,-182.862,
00:00:11:433,0.345,-0.145,0.851,1999.694,-149.231,-257.874,
00:00:11:450,0.257,-0.47,0.612,1999.694,-63.172,-269.165,
00:00:11:466,0.178,-0.859,0.618,1999.694,-78.431,-340.943,
00:00:11:483,0.135,-0.943,0.82,1838.073,-213.807,-152.955,
00:00:11:500,0.202,-0.415,0.916,1298.401,-283.143,99.304,
00:00:11:516,0.151,-0.249,0.788,1291.626,-175.171,87.463,
00:00:11:533,0.1,-0.401,0.621,1459.9,-20.264,-29.053,
00:00:11:550,0.11,-0.64,0.491,1442.443,31.066,-134.034,
00:00:11:566,0.116,-0.858,0.399,1152.954,75.134,-173.951,
00:00:11:583,0.173,-0.976,0.367,798.706,63.11,-124.939,
00:00:11:600,0.274,-0.928,0.403,497.375,47.485,15.625,
00:00:11:616,0.267,-0.803,0.503,357.238,24.902,121.765,
00:00:11:633,0.248,-0.722,0.489,422.973,26.611,123.596,
00:00:11:650,0.153,-0.873,0.302,686.706,156.494,10.131,
00:00:11:666,0.204,-1.138,0.305,535.583,196.411,-124.512,
00:00:11:683,0.338,-1.058,0.405,198.364,83.557,-142.456,
00:00:11:700,0.314,-0.833,0.526,44.494,44.86,-35.157,
00:00:11:716,0.225,-0.714,0.562,-37.659,65.734,-10.987,
00:00:11:733,0.242,-0.641,0.53,-69.336,34.24,-17.701,
00:00:11:750,0.211,-0.617,0.454,-69.947,-0.489,6.897,
00:00:11:766,0.191,-0.659,0.491,-93.506,-22.217,69.824,
00:00:11:783,0.215,-0.785,0.414,140.991,46.814,67.321,
00:00:11:800,0.167,-0.747,0.134,-94.971,89.66,127.38,
00:00:11:816,0.18,-0.913,0.27,-106.019,115.173,39.184,
00:00:11:833,0.214,-0.873,0.47,-533.326,130.066,126.709,
00:00:11:850,0.181,-1.015,0.474,-914.49,194.824,24.353,
00:00:11:866,0.291,-1.06,0.448,-1404.48,264.465,-29.602,
00:00:11:883,0.41,-1.28,0.519,-1674.866,350.952,-139.344,
00:00:11:900,0.556,-0.988,0.381,-1998.536,332.824,118.713,
00:00:11:916,0.393,-0.558,0.409,-2000,212.524,217.468,
00:00:11:933,0.195,-0.55,0.628,-2000,100.952,29.602,
00:00:11:950,0.175,-0.571,0.571,-2000,142.822,83.618,
00:00:11:966,0.388,-0.694,0.844,-2000,88.806,34.118,
00:00:11:983,0.6,-0.714,0.851,-2000,23.437,79.589,
00:00:12:0,0.693,0.364,0.712,-2000,-213.074,468.2,
00:00:12:16,0.594,0.458,1.16,-2000,-415.955,-131.287,
00:00:12:33,0.288,0.652,1.034,-1478.089,-173.829,120.849,
00:00:12:50,0.367,0.605,1.085,-697.51,-142.762,-69.703,
00:00:12:66,0.412,0.168,0.989,-64.698,-12.452,-120.179,
00:00:12:83,0.501,0.151,0.848,17.273,16.601,9.704,
00:00:12:100,0.525,0.123,0.797,313.11,25.817,30.7,
00:00:12:116,0.499,0.297,0.847,877.136,20.629,110.046,
00:00:12:133,0.475,0.201,0.948,1402.404,-3.968,10.803,
00:00:12:150,0.458,0.091,0.955,1849.67,-30.091,-34.485,
00:00:12:166,0.439,-0.01,0.903,1999.694,-78.125,-59.693,
00:00:12:183,0.365,-0.176,0.774,1999.694,-62.134,-136.841,
00:00:12:200,0.365,-0.331,0.723,1999.694,-50.721,-227.662,
00:00:12:216,0.366,-0.497,0.656,1999.694,-45.777,-275.452,
00:00:12:233,0.328,-0.751,0.759,1999.694,-87.952,-287.049,
00:00:12:250,0.273,-0.993,0.924,1999.694,-227.906,-286.622,
00:00:12:266,0.224,-0.918,0.838,1725.708,-164.612,-47.547,
00:00:12:283,0.164,-0.837,0.76,1203.491,-134.644,13.977,
00:00:12:300,0.148,-0.681,0.697,781.86,-137.269,64.819,
00:00:12:316,0.163,-0.447,0.515,711.059,-115.54,96.069,
00:00:12:333,0.089,-0.576,0.358,809.631,-37.72,1.648,
00:00:12:350,0.031,-0.944,0.357,725.525,98.205,8.606,
00:00:12:366,0.19,-0.882,0.398,413.879,54.565,109.802,
00:00:12:383,0.209,-0.598,0.464,301.88,35.644,176.635,
00:00:12:400,0.156,-0.684,0.539,437.194,127.502,109.985,
00:00:12:416,0.235,-0.995,0.512,382.629,156.311,30.578,
00:00:12:433,0.252,-1.09,0.563,64.27,10.07,-21.729,
00:00:12:450,0.299,-0.839,0.215,162.292,-78.797,-37.659,
00:00:12:466,0.205,-1.007,0.346,270.202,137.268,-73.121,
00:00:12:483,0.344,-0.96,0.424,-121.338,57.922,-111.145,
00:00:12:500,0.241,-0.739,0.491,-446.228,2.563,-0.55,
00:00:12:516,0.2,-0.965,0.678,-529.48,-26.001,-73.243,
00:00:12:533,0.296,-0.591,0.417,-677.857,65.551,85.388,
00:00:12:550,0.215,-0.791,0.284,-677.247,40.832,-77.82,
00:00:12:566,0.187,-0.983,0.421,-836.792,94.97,-74.219,
00:00:12:583,0.306,-1.124,0.599,-1071.9,211.67,-100.464,
00:00:12:600,0.416,-1.102,0.555,-1567.2,238.891,-98.816,
00:00:12:616,0.319,-0.984,0.423,-1976.685,269.775,-46.143,
00:00:12:633,0.287,-0.532,0.344,-2000,291.504,119.629,
00:00:12:650,0.374,-0.083,0.379,-2000,206.421,123.108,
00:00:12:666,0.452,-0.222,0.765,-2000,153.625,21.911,
00:00:12:683,0.593,-0.432,1.602,-2000,22.094,44.921,
00:00:12:700,0.434,-0.228,0.791,-2000,69.702,236.267,
00:00:12:716,0.284,-0.291,0.548,-2000,67.138,139.221,
00:00:12:733,0.474,-0.071,1.059,-2000,-203.553,96.13,
00:00:12:750,0.431,0.057,0.886,-1625.489,-28.626,-63.721,
00:00:12:766,0.414,0.349,0.696,-1103.699,68.786,92.651,
00:00:12:783,0.525,0.189,0.849,-411.622,104.614,-138.55,
00:00:12:800,0.55,0.359,0.836,-68.36,123.413,75.134,
00:00:12:816,0.561,0.327,1.006,386.963,59.997,-16.175,
00:00:12:833,0.538,0.153,1.053,896.911,29.357,-39.917,
00:00:12:850,0.502,-0.041,1.031,1221.374,-26.551,-65.43,
00:00:12:866,0.505,-0.211,0.988,1499.939,-80.506,-105.591,
00:00:12:883,0.482,-0.331,0.824,1896.24,-87.647,-163.086,
00:00:12:900,0.446,-0.347,0.721,1999.694,-96.68,-224.488,
00:00:12:916,0.411,-0.521,0.772,1999.694,-141.297,-384.461,
00:00:12:933,0.324,-0.732,0.882,1999.694,-179.322,-382.081,
00:00:12:950,0.255,-0.815,0.953,1999.694,-176.758,-349.61,
00:00:12:966,0.296,-0.873,1.203,1999.694,-195.13,-373.23,
00:00:12:983,0.357,-0.728,0.949,1394.897,-146.424,-164.673,
00:00:13:0,0.178,-0.574,0.537,805.114,-75.44,-11.109,
00:00:13:16,0.01,-0.577,0.373,470.642,-51.148,-91.309,
00:00:13:33,0.094,-0.421,0.54,505.676,-27.222,-176.148,
00:00:13:50,0.205,-0.573,0.637,617.248,75.073,-140.442,
00:00:13:66,0.211,-0.747,0.575,564.88,129.211,51.147,
00:00:13:83,0.208,-0.684,0.497,490.661,89.477,89.843,
00:00:13:100,0.194,-0.757,0.504,516.845,146.789,55.053,
00:00:13:116,0.282,-0.885,0.542,361.206,113.952,-14.344,
00:00:13:133,0.341,-0.894,0.604,190.796,14.16,-3.418,
00:00:13:150,0.318,-0.804,0.576,199.34,-34.546,18.371,
00:00:13:166,0.251,-0.78,0.409,268.371,-19.654,8.606,
00:00:13:183,0.241,-0.86,0.304,241.027,8.239,-28.199,
00:00:13:200,0.214,-0.907,0.25,114.624,28.442,-34.79,
00:00:13:216,0.218,-0.917,0.374,-51.819,72.204,-34.485,
00:00:13:233,0.324,-0.901,0.459,-211.67,83.801,-32.471,
00:00:13:250,0.323,-0.797,0.462,-222.046,56.213,-10.621,
00:00:13:266,0.351,-0.765,0.427,-86.853,73.913,-24.964,
00:00:13:283,0.329,-0.819,0.338,-5.616,119.873,-6.836,
00:00:13:300,0.357,-0.826,0.372,-33.57,115.051,-6.043,
00:00:13:316,0.342,-0.855,0.495,-69.825,141.174,-5.066,
00:00:13:333,0.388,-0.881,0.605,-166.321,88.378,-21.973,
00:00:13:350,0.314,-0.745,0.671,-205.933,16.723,-37.354,
00:00:13:366,0.268,-0.658,0.78,-194.764,-39.063,-26.734,
00:00:13:383,0.289,-0.61,0.713,-133.423,-76.172,-30.457,
00:00:13:400,0.182,-0.59,0.59,-278.016,-122.925,67.932,
00:00:13:416,-0.04,-0.852,0.695,-510.193,-86.182,119.812,
00:00:13:433,0.062,-1.043,0.631,-508.912,-22.522,-10.132,
00:00:13:450,0.312,-1.11,0.496,-646.241,-76.172,-89.478,
00:00:13:466,0.33,-0.977,0.571,-955.384,-37.049,20.507,
00:00:13:483,0.245,-0.74,0.724,-1003.113,-6.348,17.761,
00:00:13:500,0.256,-0.419,0.702,-1161.255,50.354,89.843,
00:00:13:516,0.309,-0.785,0.714,-1396.363,237.182,-39.673,
00:00:13:533,0.52,-1.054,0.509,-1568.665,450.805,-147.522,
00:00:13:550,0.827,-1.088,0.671,-2000,443.481,5.615,
00:00:13:566,0.823,-0.922,0.905,-2000,111.755,248.718,
00:00:13:583,0.524,0.019,1.098,-2000,-303.284,472.473,
00:00:13:600,0.285,0.514,1.016,-2000,-531.495,355.651,
00:00:13:616,0.122,0.401,0.98,-1753.479,-400.208,161.987,
00:00:13:633,0.106,-0.298,0.754,-872.742,-11.048,-60.852,
00:00:13:650,0.404,-0.365,0.581,-774.964,181.64,160.583,
00:00:13:666,0.581,-0.188,0.632,-746.705,92.346,70.678,
00:00:13:683,0.494,-0.043,0.786,-593.323,12.756,19.226,
00:00:13:700,0.372,-0.072,0.918,-370.301,87.219,-57.435,
00:00:13:716,0.449,-0.118,1.008,-161.255,177.551,-100.342,
00:00:13:733,0.559,0.042,1.002,110.229,163.452,-11.902,
00:00:13:750,0.624,0.137,0.966,523.925,86.608,-18.067,
00:00:13:766,0.63,0.105,0.952,986.755,19.104,-48.951,
00:00:13:783,0.62,-0.003,0.913,1548.034,-55.787,-65.308,
00:00:13:800,0.56,-0.063,0.877,1993.835,-101.99,-85.938,
00:00:13:816,0.481,-0.129,0.839,1999.694,-181.092,-113.892,
00:00:13:833,0.334,-0.277,0.744,1999.694,-183.411,-167.542,
00:00:13:850,0.219,-0.546,0.77,1999.694,-78.248,-216.126,
00:00:13:866,0.195,-0.832,0.766,1999.694,-84.107,-322.632,
00:00:13:883,0.172,-1.017,0.809,1999.694,-88.379,-178.528,
00:00:13:900,0.093,-0.948,0.666,1875.732,14.953,64.025,
00:00:13:916,0.016,-1.015,0.693,1239.868,88.684,71.96,
00:00:13:933,0.063,-0.801,0.527,776.489,58.776,54.199,
00:00:13:950,0.051,-0.562,0.231,678.039,61.645,48.4,
00:00:13:966,-0.023,-0.57,0.197,726.379,233.642,140.564,
00:00:13:983,0.05,-0.849,0.188,717.468,388,100.463,
00:00:14:0,0.197,-1.152,0.273,567.077,387.39,1.403,
00:00:14:16,0.426,-0.965,0.456,385.315,259.46,37.597,
00:00:14:33,0.437,-0.759,0.518,357.727,135.315,47.058,
00:00:14:50,0.335,-0.945,0.483,353.149,111.328,-16.663,
00:00:14:66,0.441,-0.889,0.359,300.048,46.02,-44.495,
00:00:14:83,0.462,-0.708,0.257,214.233,47.241,33.142,
00:00:14:100,0.316,-0.703,0.253,100.769,79.406,100.219,
00:00:14:116,0.294,-0.852,0.313,-0.061,96.191,99.914,
00:00:14:133,0.327,-0.915,0.341,-80.567,46.875,90.332,
00:00:14:150,0.357,-0.838,0.328,-89.112,30.395,83.557,
00:00:14:166,0.309,-0.67,0.477,-280.213,5.249,170.837,
00:00:14:183,0.285,-1.025,0.458,-266.724,-74.341,-5.494,
00:00:14:200,0.518,-0.756,0.496,-425.66,-118.531,96.313,
00:00:14:216,0.397,-1.159,0.237,-439.759,-144.715,-146.119,
00:00:14:233,0.422,-0.818,0.318,-620.057,-184.266,49.987,
00:00:14:250,0.385,-0.817,0.557,-377.198,-185.975,-55.726,
00:00:14:266,0.283,-0.591,0.28,-489.319,-234.498,30.822,
00:00:14:283,0.208,-0.721,0.23,-52.124,-118.409,-67.078,canRH
00:00:14:300,0.367,-0.857,-0.055,-5.86,31.921,-101.685,
00:00:14:316,0.582,-0.753,0.27,52.185,115.417,18.188,
00:00:14:333,0.402,-0.959,0.49,-485.535,65.429,72.448,
00:00:14:350,0.321,-0.907,0.677,-611.084,6.836,1.098,
00:00:14:366,0.449,-0.606,0.661,-1091.065,12.878,108.337,
00:00:14:383,0.441,-0.879,0.467,-1067.933,43.457,-79.834,
00:00:14:400,0.393,-0.94,0.219,-1413.453,153.198,104.065,
00:00:14:416,0.378,-0.866,0.459,-1471.131,114.99,33.203,
00:00:14:433,0.362,-0.832,0.462,-1965.638,190.49,99.609,
00:00:14:450,0.441,-0.809,0.923,-2000,168.274,43.457,
00:00:14:466,0.629,-0.966,1.114,-2000,-5.372,83.496,
00:00:14:483,0.611,-0.796,0.824,-2000,-215.149,383.972,
00:00:14:500,0.323,-0.557,0.696,-2000,-415.039,333.068,
00:00:14:516,0.012,-0.772,0.374,-2000,-343.384,-216.309,
00:00:14:533,0.42,-0.341,0.199,-2000,87.158,-167.847,
00:00:14:550,0.786,0.46,0.361,-2000,-57.068,-322.388,
00:00:14:566,0.388,1.299,0.1,-2000,117.797,-4.456,
00:00:14:583,0.439,1.579,0.376,-689.576,230.529,-155.274,
00:00:14:600,0.595,0.991,0.792,387.329,238.037,-144.227,
00:00:14:616,0.549,0.607,1.08,789.611,215.637,-106.385,
00:00:14:633,0.588,0.358,1.26,879.272,195.984,-59.998,
00:00:14:650,0.641,0.319,1.248,1018.676,140.319,-3.235,
00:00:14:666,0.714,0.415,1.103,1401.306,67.749,45.959,
00:00:14:683,0.797,0.539,0.887,1978.576,-14.161,88.562,
00:00:14:700,0.762,0.613,0.687,1999.694,-76.539,91.43,
00:00:14:716,0.62,0.411,0.51,1999.694,-96.497,-6.836,
00:00:14:733,0.459,-0.073,0.496,1999.694,20.263,-304.871,
00:00:14:750,0.336,-0.938,0.463,1999.694,340.82,-614.991,
00:00:14:766,0.498,-1.613,0.633,1999.694,70.495,-727.906,
00:00:14:783,0.431,-1.65,1.046,1999.694,-290.039,-336.121,
00:00:14:800,0.297,-0.775,0.857,1580.932,-273.438,194.58,
00:00:14:816,0.095,-0.445,0.718,988.098,-111.695,254.516,
00:00:14:833,0.112,-0.267,0.463,936.95,17.7,121.093,
00:00:14:850,0.167,-0.272,0.258,1030.151,99.975,-72.266,
00:00:14:866,0.118,-0.732,0.249,1033.691,209.961,-105.652,
00:00:14:883,0.194,-0.774,0.191,862.671,221.008,86.608,
00:00:14:900,0.158,-0.654,0.178,750.427,245.3,140.075,
00:00:14:916,0.159,-0.792,0.204,764.343,330.139,37.719,
00:00:14:933,0.284,-0.945,0.214,457.397,301.696,-59.144,
00:00:14:950,0.4,-0.867,0.236,68.176,113.342,-98.145,
00:00:14:966,0.398,-0.732,0.524,-23.865,-6.592,-37.354,
00:00:14:983,0.469,-0.715,0.292,237.304,18.798,-117.127,
00:00:15:0,0.496,-0.822,0.254,191.406,111.328,-46.204,
00:00:15:16,0.49,-0.717,0.243,-185.059,14.953,-8.24,
00:00:15:33,0.398,-0.772,0.39,-524.964,-26.734,68.725,
00:00:15:50,0.39,-1.003,0.193,-288.392,-17.09,-104.187,
00:00:15:66,0.435,-0.737,0.167,-257.386,-36.927,24.658,
00:00:15:83,0.283,-0.714,0.469,-389.649,-26.368,30.09,
00:00:15:100,0.341,-1.02,0.49,-279.725,-2.503,-85.083,
00:00:15:116,0.456,-0.815,0.594,-557.862,0.183,65.612,
00:00:15:133,0.395,-0.905,0.609,-945.557,-95.887,-38.269,
00:00:15:150,0.404,-0.942,0.614,-1241.15,-59.205,3.479,
00:00:15:166,0.361,-0.872,0.342,-1377.503,57.8,40.405,
00:00:15:183,0.397,-0.889,0.271,-1396.119,183.715,-32.288,
00:00:15:200,0.496,-0.943,0.399,-1764.161,258.056,75.866,
00:00:15:216,0.462,-0.998,0.618,-2000,191.101,162.048,
00:00:15:233,0.438,-0.867,0.723,-2000,152.526,173.767,
00:00:15:250,0.566,-0.663,0.834,-2000,40.1,237.243,
00:00:15:266,0.644,-1,0.944,-2000,-109.192,122.924,
00:00:15:283,0.425,-0.528,0.354,-2000,-42.664,484.68,
00:00:15:300,0.442,-0.312,0.231,-2000,-267.945,169.128,
00:00:15:316,0.511,0.227,0.549,-2000,-390.564,59.631,
00:00:15:333,0.431,1.099,0.29,-2000,12.573,314.026,
00:00:15:350,0.518,1.33,0.496,-977.601,54.626,-98.389,
00:00:15:366,0.459,0.723,0.639,66.894,136.84,-192.933,
00:00:15:383,0.542,0.353,0.867,433.96,155.212,-123.23,
00:00:15:400,0.612,0.334,1.005,505.249,116.272,-48.829,
00:00:15:416,0.608,0.276,1.087,634.765,46.752,-28.321,
00:00:15:433,0.603,0.271,1.089,797.485,-6.226,10.009,
00:00:15:450,0.639,0.314,1.017,1072.998,-73.121,33.081,
00:00:15:466,0.635,0.245,0.817,1472.107,-92.347,62.255,
00:00:15:483,0.603,0.201,0.697,1971.923,-103.15,41.442,
00:00:15:500,0.583,0.123,0.588,1999.694,-89.478,-30.884,
00:00:15:516,0.593,-0.055,0.656,1999.694,-58.472,-137.391,
00:00:15:533,0.541,-0.213,0.724,1999.694,-22.706,-285.584,
00:00:15:550,0.44,-0.628,0.687,1999.694,59.326,-415.284,
00:00:15:566,0.428,-1.093,0.703,1999.694,40.283,-462.891,
00:00:15:583,0.435,-1.457,0.848,1999.694,-205.262,-449.891,
00:00:15:600,0.373,-1.154,0.919,1682.129,-285.218,-188.904,
00:00:15:616,0.358,-0.684,0.809,1166.137,-304.261,-8.851,
00:00:15:633,0.299,-0.345,0.713,1086.914,-221.009,56.396,
00:00:15:650,0.229,-0.301,0.472,1161.926,-69.031,24.475,
00:00:15:666,0.138,-0.569,0.18,1138.305,82.397,-104.554,
00:00:15:683,0.143,-0.844,0.142,906.677,140.014,-106.934,
00:00:15:700,0.209,-0.834,0.275,592.651,135.986,48.278,
00:00:15:716,0.226,-0.622,0.2,598.388,160.4,105.529,
00:00:15:733,0.156,-0.853,0.17,646.606,347.046,68.054,
00:00:15:750,0.343,-1.141,0.364,330.078,273.132,-147.156,
00:00:15:766,0.481,-0.828,0.503,-16.724,61.584,-38.575,
00:00:15:783,0.402,-0.688,0.41,-64.087,14.831,-36.866,
00:00:15:800,0.345,-0.598,0.487,-255.433,-38.758,43.335,
00:00:15:816,0.228,-0.733,0.516,-434.876,-31.922,11.352,
00:00:15:833,0.239,-1.18,0.429,-509.095,-82.215,-146.729,
00:00:15:850,0.354,-1.125,0.234,-858.643,-98.145,-100.831,
00:00:15:866,0.377,-1.085,0.479,-1069.336,-49.317,-98.389,
00:00:15:883,0.328,-0.752,0.328,-1284.424,43.64,-91.187,
00:00:15:900,0.313,-0.602,0.225,-1902.649,256.042,2.319,
00:00:15:916,0.389,-0.727,0.433,-2000,334.655,-13.245,
00:00:15:933,0.468,-0.853,0.631,-2000,299.621,96.801,
00:00:15:950,0.529,-0.941,0.822,-2000,213.501,266.052,
00:00:15:966,0.51,-0.66,0.743,-2000,88.684,438.171,
00:00:15:983,0.552,-0.27,0.796,-2000,-192.933,342.712,
00:00:16:0,0.429,-0.208,0.526,-2000,-265.625,134.094,
00:00:16:16,0.353,-0.242,0.451,-2000,-137.513,-103.089,
00:00:16:33,0.435,0.674,0.121,-2000,148.559,279.174,
00:00:16:50,0.604,1.17,0.387,-1209.839,104.675,19.775,
00:00:16:66,0.577,0.729,0.695,-49.866,74.34,-235.413,
00:00:16:83,0.512,0.307,0.857,492.309,171.508,-123.475,
00:00:16:100,0.583,0.405,1.022,670.105,137.085,-21.485,
00:00:16:116,0.61,0.365,1.102,1061.95,59.875,-23.987,
00:00:16:133,0.59,0.195,1.044,1423.401,16.357,-19.043,
00:00:16:150,0.584,0.086,0.894,1689.758,-10.56,-4.029,
00:00:16:166,0.571,-0.034,0.751,1971.008,-9.583,-57.557,
00:00:16:183,0.585,-0.121,0.63,1999.694,8.606,-105.347,
00:00:16:200,0.634,-0.176,0.691,1999.694,-12.269,-160.34,
00:00:16:216,0.576,-0.298,0.787,1999.694,-5.616,-246.094,
00:00:16:233,0.492,-0.558,0.732,1999.694,27.71,-266.48,
00:00:16:250,0.476,-0.828,0.788,1999.694,4.455,-292.176,
00:00:16:266,0.455,-1.192,0.893,1999.694,-190.308,-359.681,
00:00:16:283,0.417,-0.938,0.853,1843.444,-274.842,-93.689,
00:00:16:300,0.308,-0.698,0.652,1503.357,-217.469,38.574,
00:00:16:316,0.237,-0.594,0.479,1358.764,-123.902,23.193,
00:00:16:333,0.211,-0.649,0.374,1354.492,-16.541,-102.478,
00:00:16:350,0.243,-0.755,0.363,1259.887,49.499,-171.692,
00:00:16:366,0.227,-0.87,0.308,1018.798,129.882,-170.533,
00:00:16:383,0.265,-0.889,0.205,832.458,142.273,-99.366,
00:00:16:400,0.206,-1,0.21,714.294,241.211,-42.481,
00:00:16:416,0.328,-0.994,0.27,440.551,245.239,-28.626,
00:00:16:433,0.388,-0.725,0.294,211.609,157.348,1.464,
00:00:16:450,0.298,-0.691,0.367,71.533,121.46,3.54,
00:00:16:466,0.319,-0.697,0.495,24.475,83.74,26.672,
00:00:16:483,0.334,-0.793,0.438,46.691,58.593,49.255,
00:00:16:500,0.359,-0.948,0.36,53.772,78.002,-32.593,
00:00:16:516,0.399,-0.753,0.245,-190.186,14.343,65.673,
00:00:16:533,0.34,-0.756,0.211,-213.623,16.479,47.973,
00:00:16:550,0.333,-0.701,0.244,-273.316,62.133,115.356,
00:00:16:566,0.283,-0.824,0.463,-666.81,9.765,164.001,
00:00:16:583,0.321,-1.098,0.405,-529.419,12.634,-28.687,
00:00:16:600,0.387,-0.766,0.301,-917.054,9.033,157.104,
00:00:16:616,0.299,-0.943,0.263,-984.498,4.577,15.319,
00:00:16:633,0.369,-1.008,0.455,-1365.479,81.42,43.212,
00:00:16:650,0.466,-0.599,0.564,-1955.384,216.003,189.575,
00:00:16:667,0.481,-1.033,0.729,-2000,199.218,10.742,
00:00:16:683,0.593,-0.952,0.556,-2000,276.306,203.308,
00:00:16:700,0.672,-1.019,0.532,-2000,204.467,337.951,
00:00:16:717,0.687,-1.021,0.587,-2000,48.95,200.256,
00:00:16:733,0.698,-0.636,0.798,-2000,-101.746,357.91,
00:00:16:750,0.637,-0.344,0.764,-2000,-229.126,226.562,
00:00:16:767,0.515,-0.035,0.548,-2000,-328.858,412.841,
00:00:16:783,0.329,0.468,0.247,-2000,-147.889,265.564,
00:00:16:800,0.642,0.819,0.502,-1942.566,106.445,58.166,
00:00:16:817,0.674,1.356,0.382,-748.536,158.02,307.678,
00:00:16:833,0.709,0.957,0.712,223.51,-43.03,-133.362,
00:00:16:850,0.539,0.395,0.958,767.028,-0.061,-120.728,
00:00:16:867,0.538,0.222,1.036,907.776,58.166,-46.631,
00:00:16:883,0.623,0.279,1.013,1068.847,4.699,-15.503,
00:00:16:900,0.635,0.302,0.911,1358.642,-79.651,6.591,
00:00:16:917,0.596,0.235,0.8,1751.77,-123.78,28.747,
00:00:16:933,0.571,0.209,0.72,1999.694,-135.01,19.226,
00:00:16:950,0.548,0.152,0.642,1999.694,-142.945,-64.637,
00:00:16:967,0.508,0.014,0.7,1999.694,-112,-186.158,
00:00:16:983,0.408,-0.297,0.61,1999.694,18.676,-309.876,
00:00:17:0,0.405,-0.815,0.519,1999.694,118.835,-483.216,
00:00:17:17,0.445,-1.24,0.511,1999.694,-51.27,-532.166,
00:00:17:33,0.374,-1.193,0.678,1999.694,-258.362,-307.251,
00:00:17:50,0.254,-0.984,0.763,1871.765,-243.042,-128.724,
00:00:17:67,0.2,-0.796,0.694,1478.027,-118.47,-5.005,
00:00:17:83,0.198,-0.775,0.674,1214.111,-6.409,-29.847,
00:00:17:100,0.247,-0.675,0.401,955.627,34.118,-34.607,
00:00:17:117,0.256,-0.62,0.153,722.839,41.259,-35.401,
00:00:17:133,0.176,-0.834,0.181,552.185,118.774,-41.81,
00:00:17:150,0.243,-0.953,0.233,313.842,120.849,-39.002,
00:00:17:167,0.36,-0.732,0.411,269.897,29.846,18.981,
00:00:17:183,0.302,-0.649,0.429,343.078,33.813,32.043,
00:00:17:200,0.267,-0.905,0.478,328.308,52.917,-37.842,
00:00:17:217,0.362,-0.938,0.242,232.788,69.58,-88.379,
00:00:17:233,0.41,-0.804,0.079,-149.109,88.928,26.001,
00:00:17:250,0.263,-0.754,0.036,-531.983,59.326,77.514,
00:00:17:267,0.189,-1.018,0.206,-540.772,49.011,-14.832,
00:00:17:283,0.4,-0.682,0.232,-365.54,141.357,13.366,
00:00:17:300,0.318,-1.128,0.393,-723.206,42.907,-46.631,
00:00:17:317,0.294,-0.751,0.481,-1065.918,102.478,60.607,
00:00:17:333,0.207,-0.819,0.54,-1519.104,63.781,13.732,
00:00:17:350,0.235,-0.824,0.283,-1978.394,170.898,-27.649,
00:00:17:367,0.4,-0.751,0.339,-2000,267.883,16.601,
00:00:17:383,0.587,-0.912,0.618,-2000,352.111,-12.94,
00:00:17:400,0.726,-1.18,0.742,-2000,227.111,53.588,
00:00:17:417,0.714,-0.972,0.681,-2000,14.648,337.707,
00:00:17:433,0.626,-0.411,0.709,-2000,-248.414,425.598,
00:00:17:450,0.48,-0.009,0.263,-2000,-215.577,457.824,
00:00:17:467,0.615,0.438,0.212,-2000,-225.892,361.267,
00:00:17:483,0.645,0.736,0.421,-2000,-257.691,200.134,
00:00:17:500,0.446,0.801,0.608,-1319.642,-164.368,9.46,
00:00:17:517,0.33,0.84,0.616,-636.78,53.222,-20.02,
00:00:17:533,0.435,0.702,0.817,-68.238,144.409,-41.016,
00:00:17:550,0.504,0.619,0.934,443.115,143.005,-39.49,
00:00:17:567,0.486,0.459,1.055,828.369,77.514,-74.524,
00:00:17:583,0.498,0.384,1.029,1194.946,53.955,-52.308,
00:00:17:600,0.524,0.32,0.934,1549.682,27.71,-44.251,
00:00:17:617,0.537,0.234,0.801,1959.289,-0.916,-24.72,
00:00:17:633,0.578,0.153,0.735,1999.694,-79.773,-51.453,
00:00:17:650,0.571,-0.004,0.674,1999.694,-74.83,-169.434,
00:00:17:667,0.559,-0.228,0.671,1999.694,-39.002,-263.977,
00:00:17:683,0.526,-0.491,0.65,1999.694,-10.987,-344.239,
00:00:17:700,0.481,-0.951,0.619,1999.694,-33.387,-414.185,
00:00:17:717,0.473,-1.324,0.757,1999.694,-287.232,-423.462,
00:00:17:733,0.369,-1.014,0.812,1999.694,-355.469,-122.925,
00:00:17:750,0.266,-0.729,0.675,1796.386,-250.306,15.258,
00:00:17:767,0.158,-0.762,0.537,1435.669,-51.026,49.682,
00:00:17:783,0.202,-0.798,0.398,1066.284,36.56,13.977,
00:00:17:800,0.243,-0.719,0.207,801.33,40.161,-15.625,
00:00:17:817,0.213,-0.751,0.25,585.449,97.29,15.991,
00:00:17:833,0.28,-0.755,0.226,499.023,126.892,-5.066,
00:00:17:850,0.296,-0.774,0.253,598.693,204.284,49.072,
00:00:17:867,0.322,-0.965,0.244,596.191,240.051,-13.855,
00:00:17:883,0.381,-0.984,0.314,321.167,174.011,-34.119,
00:00:17:900,0.364,-0.849,0.317,79.162,48.461,-39.185,
00:00:17:917,0.275,-0.764,0.298,27.587,18.066,-36.988,
00:00:17:933,0.291,-0.776,0.371,-8.667,12.695,-29.786,
00:00:17:950,0.339,-0.714,0.397,-29.664,-6.226,-8.545,
00:00:17:967,0.338,-0.793,0.265,-84.107,37.658,-2.808,
00:00:17:983,0.358,-0.907,0.303,-111.206,49.133,-16.297,
00:00:18:0,0.357,-0.954,0.269,-310.914,44.555,-11.963,
00:00:18:17,0.272,-0.955,0.397,-660.096,29.052,40.832,
00:00:18:33,0.225,-0.909,0.665,-1187.256,-63.66,107.422,
00:00:18:50,0.232,-0.693,0.421,-1014.405,-59.51,29.724,
00:00:18:67,0.244,-0.875,0.228,-930.115,-57.557,-64.637,
00:00:18:83,0.327,-0.983,0.33,-856.568,-1.282,-23.682,
00:00:18:100,0.339,-0.836,0.536,-902.832,107.055,36.987,
00:00:18:117,0.352,-0.694,0.531,-1358.582,196.899,74.829,
00:00:18:133,0.325,-0.897,0.459,-2000,314.758,35.827,
00:00:18:150,0.374,-1.174,0.56,-2000,340.026,-58.899,
00:00:18:167,0.492,-1.165,0.416,-2000,386.23,260.498,
00:00:18:183,0.651,-1.201,0.34,-2000,239.013,220.031,
00:00:18:200,0.66,-0.591,0.389,-2000,53.222,452.392,
00:00:18:217,0.746,0.123,0.802,-2000,-322.266,354.126,
00:00:18:233,0.455,0.928,0.462,-2000,-381.653,647.583,
00:00:18:250,0.316,0.688,0.583,-2000,-294.983,-215.516,
00:00:18:267,0.384,0.498,0.481,-1704.957,34.606,-30.213,
00:00:18:283,0.6,0.92,0.286,-701.966,325.927,158.691,canRH
00:00:18:300,0.748,1.115,0.651,68.847,130.31,-22.95,
00:00:18:317,0.591,0.739,0.918,786.682,102.539,-133.057,
00:00:18:333,0.569,0.439,1.015,1233.947,155.273,-116.456,
00:00:18:350,0.655,0.34,1.065,1481.079,86.792,-48.401,
00:00:18:367,0.678,0.333,1.072,1690.551,-27.955,9.765,
00:00:18:383,0.661,0.175,0.994,1946.35,-128.052,-11.231,
00:00:18:400,0.667,-0.055,0.844,1999.694,-93.445,-51.758,
00:00:18:417,0.659,-0.126,0.776,1999.694,-124.329,-22.583,
00:00:18:433,0.572,-0.24,0.817,1999.694,-165.528,-103.699,
00:00:18:450,0.469,-0.288,0.852,1999.694,-161.622,-163.575,
00:00:18:467,0.367,-0.413,0.769,1999.694,-130.921,-202.088,
00:00:18:483,0.31,-0.522,0.628,1999.694,-118.226,-251.77,
00:00:18:500,0.282,-0.684,0.593,1999.694,-170.96,-294.312,
00:00:18:517,0.226,-0.904,0.596,1999.694,-95.581,-264.222,
00:00:18:533,0.207,-0.881,0.609,1951.416,-75.867,-135.071,
00:00:18:550,0.174,-0.838,0.622,1591.064,-50.232,-120.545,
00:00:18:567,0.189,-0.715,0.574,1260.315,3.479,-65.43,
00:00:18:583,0.207,-0.545,0.361,1084.716,23.01,-65.43,
00:00:18:600,0.175,-0.571,0.268,947.876,114.868,-78.125,
00:00:18:617,0.151,-0.907,0.128,749.572,201.172,-183.655,
00:00:18:633,0.272,-0.992,0.233,489.135,190.734,-88.379,
00:00:18:650,0.436,-0.811,0.498,335.144,92.285,-12.94,
00:00:18:667,0.513,-0.584,0.561,403.381,69.091,1.281,
00:00:18:683,0.412,-0.913,0.435,304.199,118.957,-54.139,
00:00:18:700,0.3,-1.107,0.389,-83.435,40.588,-23.743,
00:00:18:717,0.252,-0.862,0.378,-500.245,-23.987,-28.321,
00:00:18:733,0.219,-0.869,0.357,-741.639,-61.951,-25.086,
00:00:18:750,0.334,-0.74,0.384,-474.61,-48.523,-82.886,
00:00:18:767,0.329,-0.808,0.414,-599.427,-30.518,-9.339,
00:00:18:783,0.237,-0.805,0.54,-799.439,38.269,-1.831,
00:00:18:800,0.145,-0.8,0.435,-1539.307,78.43,59.509,
00:00:18:817,0.054,-0.915,0.328,-2000,171.875,1.525,
00:00:18:833,0.264,-1.221,0.494,-2000,312.317,-12.207,
00:00:18:850,0.594,-1.169,0.302,-2000,555.847,208.435,
00:00:18:867,0.749,-1.141,0.351,-2000,369.384,244.567,
00:00:18:883,0.686,-0.661,0.586,-2000,11.84,271.789,
00:00:18:900,0.505,0.087,0.621,-2000,-187.684,437.133,
00:00:18:917,0.499,0.679,0.79,-2000,-490.662,500.549,
00:00:18:933,0.432,0.994,0.942,-1929.688,-283.204,101.257,
00:00:18:950,0.452,0.752,0.73,-582.52,3.54,34.179,
00:00:18:967,0.581,0.199,0.728,-3.235,29.602,-116.028,
00:00:18:983,0.607,-0.009,0.741,60.791,60.791,-42.176,
00:00:19:0,0.564,0.145,0.866,99.853,41.015,10.559,
00:00:19:17,0.507,0.349,0.962,404.968,33.081,4.15,
00:00:19:33,0.526,0.338,1.013,857.36,25.94,-39.246,
00:00:19:50,0.568,0.279,0.975,1312.683,-22.889,-30.884,
00:00:19:67,0.599,0.196,0.865,1723.632,-21.851,-56.763,
00:00:19:83,0.629,0.149,0.791,1999.694,-52.002,-10.56,
00:00:19:100,0.538,0.091,0.671,1999.694,-103.76,-24.414,
00:00:19:117,0.464,-0.011,0.644,1999.694,-104.981,-98.389,
00:00:19:133,0.361,-0.409,0.644,1999.694,-51.575,-232.727,
00:00:19:150,0.318,-0.727,0.66,1999.694,-19.593,-242.432,
00:00:19:167,0.352,-1.021,0.732,1999.694,-205.323,-297.791,
00:00:19:183,0.306,-1.023,0.92,1901.977,-300.171,-102.295,
00:00:19:200,0.227,-0.76,0.713,1418.335,-202.637,135.803,
00:00:19:217,0.157,-0.717,0.533,994.323,-109.375,100.28,
00:00:19:233,0.162,-0.761,0.544,718.261,-65.735,44.616,
00:00:19:250,0.259,-0.544,0.571,696.289,-88.44,17.578,
00:00:19:267,0.23,-0.52,0.454,841.552,-63.66,-5.799,
00:00:19:283,0.16,-0.693,0.225,930.053,31.982,-73.06,
00:00:19:300,0.18,-1.093,0.231,759.216,162.963,-142.273,
00:00:19:317,0.379,-1.135,0.262,308.288,115.234,-6.836,
00:00:19:333,0.453,-0.607,0.335,228.942,-36.377,206.421,
00:00:19:350,0.352,-0.477,0.447,449.768,-2.32,194.213,
00:00:19:367,0.315,-0.706,0.357,628.784,75.988,45.654,
00:00:19:383,0.328,-0.991,0.152,631.958,92.163,-80.506,
00:00:19:400,0.283,-1.347,0.228,451.477,92.59,-116.456,
00:00:19:417,0.372,-1.143,0.21,229.492,54.626,-61.158,
00:00:19:433,0.352,-0.94,0.229,165.649,65.063,-102.295,
00:00:19:450,0.337,-0.973,0.192,118.835,121.032,-159.913,
00:00:19:467,0.395,-0.902,0.277,37.109,100.525,-179.81,
00:00:19:483,0.378,-0.883,0.345,29.541,83.374,-174.866,
00:00:19:500,0.33,-0.862,0.318,27.221,88.073,-176.026,
00:00:19:517,0.296,-0.972,0.314,4.516,105.957,-217.347,
00:00:19:533,0.322,-0.97,0.385,-152.344,78.308,-170.777,
00:00:19:550,0.376,-0.772,0.441,-325.806,51.391,-109.742,
00:00:19:567,0.369,-0.685,0.516,-350.892,36.743,-52.796,
00:00:19:583,0.339,-0.67,0.514,-276.368,28.015,-22.339,
00:00:19:600,0.3,-0.716,0.506,-198.975,-27.894,0.244,
00:00:19:617,0.307,-0.734,0.468,-92.286,-45.35,15.075,
00:00:19:633,0.264,-0.751,0.382,-141.053,-56.458,58.593,
00:00:19:650,0.128,-0.639,0.307,-342.347,-50.843,123.535,
00:00:19:667,0.179,-0.92,0.458,-227.539,-68.36,24.963,
00:00:19:683,0.334,-0.715,0.5,-453.736,-66.285,219.055,
00:00:19:700,0.256,-0.752,0.552,-410.462,-18.006,70.617,
00:00:19:717,0.277,-0.954,0.498,-656.434,-23.56,82.702,
00:00:19:733,0.36,-0.93,0.447,-783.692,38.208,61.889,
00:00:19:750,0.387,-0.864,0.322,-1097.962,147.644,169.128,
00:00:19:767,0.431,-1.375,0.389,-1146.363,233.764,-49.622,
00:00:19:783,0.53,-1.001,0.174,-1569.153,405.334,142.395,
00:00:19:800,0.565,-0.938,0.157,-1996.46,341.858,141.723,
00:00:19:817,0.521,-0.958,0.571,-2000,56.091,-43.702,
00:00:19:833,0.463,-0.694,0.808,-2000,22.216,3.906,
00:00:19:850,0.418,-0.76,0.555,-2000,164.611,4.028,
00:00:19:867,0.533,-0.715,0.714,-2000,32.348,257.995,
00:00:19:883,0.544,-0.419,0.544,-2000,-44.129,100.769,
00:00:19:900,0.538,0.13,0.636,-2000,-177.124,208.435,
00:00:19:917,0.472,0.709,0.845,-2000,-354.676,115.722,
00:00:19:933,0.167,-0.017,0.881,-2000,-260.926,-502.564,
00:00:19:950,0.12,-0.067,0.663,-1992.859,95.031,-114.014,
00:00:19:967,0.809,0.598,0.616,-1322.51,289.672,-66.346,
00:00:19:983,0.798,1.073,0.671,-661.499,135.009,11.535,
00:00:20:0,0.603,0.672,0.856,-9.888,130.615,-94.971,
00:00:20:17,0.624,0.542,0.951,380.737,161.071,-27.71,
00:00:20:33,0.658,0.398,1.071,727.295,95.214,-24.17,
00:00:20:50,0.68,0.199,1.114,954.895,27.954,-8.912,
00:00:20:67,0.687,0.182,1.101,1146.911,-45.899,28.808,
00:00:20:83,0.703,0.22,1.052,1415.771,-134.095,75.683,
00:00:20:100,0.676,0.28,0.966,1827.942,-226.563,112.671,
00:00:20:117,0.557,0.256,0.775,1999.694,-230.53,117.736,
00:00:20:133,0.454,0.117,0.742,1999.694,-186.768,32.104,
00:00:20:150,0.373,-0.275,0.715,1999.694,-85.877,-143.006,
00:00:20:167,0.3,-0.613,0.664,1999.694,-21.851,-237.854,
00:00:20:183,0.314,-0.858,0.708,1999.694,-150.086,-271.973,
00:00:20:200,0.264,-0.815,0.913,1999.694,-356.69,-210.694,
00:00:20:217,0.13,-0.68,0.733,1999.694,-253.418,20.813,
00:00:20:233,0.025,-0.714,0.536,1771.972,-67.627,49.316,
00:00:20:250,0.038,-0.826,0.405,1337.646,87.829,-25.757,
00:00:20:267,0.191,-0.732,0.292,1060.913,113.647,-54.932,
00:00:20:283,0.241,-0.633,0.232,971.13,95.886,-77.881,
00:00:20:300,0.151,-0.802,0.186,953.491,187.988,-89.722,
00:00:20:317,0.194,-1.001,0.304,793.579,241.577,-138.062,
00:00:20:333,0.353,-1.011,0.527,540.222,203.369,-64.637,
00:00:20:350,0.418,-0.732,0.479,400.329,91.308,27.16,
00:00:20:367,0.312,-0.827,0.412,365.173,100.891,-52.002,
00:00:20:383,0.368,-0.88,0.345,168.029,86.303,-72.205,
00:00:20:400,0.359,-0.889,0.356,-16.297,27.587,-88.44,
00:00:20:417,0.351,-0.898,0.295,-114.197,33.874,-65.735,
00:00:20:433,0.391,-0.775,0.383,-133.667,35.156,-53.162,
00:00:20:450,0.369,-0.684,0.305,-180.481,-7.447,-40.894,
00:00:20:467,0.296,-0.747,0.351,-189.331,14.343,9.765,
00:00:20:483,0.324,-0.88,0.397,-245.24,-8.057,-5.127,
00:00:20:500,0.328,-0.803,0.165,-110.23,49.743,41.992,
00:00:20:517,0.292,-0.693,0.118,-265.32,47.058,67.26,
00:00:20:533,0.266,-0.705,0.315,-116.517,43.518,59.875,
00:00:20:550,0.246,-0.642,0.193,-318.97,203.613,163.635,
00:00:20:567,0.194,-0.994,0.477,-663.941,147.766,64.27,
00:00:20:583,0.374,-0.953,0.518,-1092.408,147.277,104.553,
00:00:20:600,0.392,-0.951,0.363,-1437.928,215.088,111.572,
00:00:20:617,0.407,-0.828,0.39,-1571.351,255.31,110.29,
00:00:20:633,0.54,-0.892,0.694,-1650.208,201.538,-2.137,
00:00:20:650,0.546,-0.865,0.752,-2000,246.215,108.337,
00:00:20:667,0.462,-0.675,0.544,-2000,198.73,135.07,
00:00:20:683,0.367,-0.808,0.598,-2000,126.892,181.579,
00:00:20:700,0.404,-0.719,0.602,-2000,73.364,325.195,
00:00:20:717,0.508,-0.327,0.652,-2000,-6.348,365.051,
00:00:20:733,0.565,0.093,0.827,-2000,-112.427,234.436,
00:00:20:750,0.578,0.148,0.93,-2000,-238.221,163.757,
00:00:20:767,0.361,0.367,0.645,-2000,-225.708,329.345,
00:00:20:783,0.307,0.485,0.467,-1974.61,-36.011,116.577,
00:00:20:800,0.527,0.624,0.567,-1185.669,116.638,28.747,
00:00:20:817,0.529,0.455,0.703,-740.418,134.887,-81.055,
00:00:20:833,0.513,0.211,0.853,-616.028,185.791,-167.359,
00:00:20:850,0.569,0.493,0.955,-443.116,269.409,-38.208,
00:00:20:867,0.686,0.666,1.136,-99.183,221.923,-77.393,
00:00:20:883,0.739,0.599,1.212,263.61,147.461,-133.667,
00:00:20:900,0.771,0.635,1.134,493.713,84.716,-85.999,
00:00:20:917,0.745,0.84,0.999,749.023,6.53,59.448,
00:00:20:933,0.722,1.029,0.861,1309.509,-100.403,96.069,
00:00:20:950,0.697,0.93,0.78,1999.694,-255.799,59.265,
00:00:20:967,0.629,0.541,0.645,1999.694,-315.369,-116.639,
00:00:20:983,0.553,0.088,0.591,1999.694,-276.001,-264.405,
00:00:21:0,0.491,-0.341,0.497,1999.694,-169.8,-342.225,
00:00:21:17,0.44,-0.713,0.475,1999.694,-123.23,-435.242,
00:00:21:33,0.401,-1.112,0.48,1999.694,-224.366,-481.568,
00:00:21:50,0.318,-1.273,0.808,1999.694,-389.527,-393.86,
00:00:21:67,0.22,-0.937,0.951,1715.271,-367.005,-101.014,
00:00:21:83,0.141,-0.583,0.725,1335.815,-221.924,105.346,
00:00:21:100,0.061,-0.388,0.495,1162.109,-90.088,113.464,
00:00:21:117,0.038,-0.335,0.343,1064.209,41.259,-34.241,
00:00:21:133,0.078,-0.477,0.193,1068.603,135.498,-134.278,
00:00:21:150,0.103,-0.864,0.185,939.941,221.496,-155.213,
00:00:21:167,0.239,-0.855,0.353,629.028,174.56,-8.667,
00:00:21:183,0.401,-0.478,0.373,568.237,132.385,150.024,
00:00:21:200,0.383,-0.637,0.598,685.058,157.592,80.81,
00:00:21:217,0.386,-0.902,0.455,627.441,151.977,-22.278,
00:00:21:233,0.362,-1.13,0.245,410.156,92.834,-52.979,
00:00:21:250,0.351,-1.067,0.135,108.459,72.448,-3.663,
00:00:21:267,0.355,-0.904,0.232,-182.862,25.268,-30.701,
00:00:21:283,0.362,-0.785,0.267,-178.223,43.762,-46.143,
00:00:21:300,0.362,-0.687,0.366,-114.014,40.283,-34.607,
00:00:21:317,0.261,-0.828,0.505,-298.523,-5.433,-22.095,
00:00:21:333,0.347,-1.003,0.526,-101.441,-18.921,-125.184,
00:00:21:350,0.444,-0.59,0.417,-287.171,-14.649,30.761,
00:00:21:367,0.222,-1.069,0.481,-478.15,-64.576,-130.982,
00:00:21:383,0.33,-0.817,0.524,-670.227,12.695,-30.579,
00:00:21:400,0.408,-0.934,0.505,-803.956,-27.588,-101.502,
00:00:21:417,0.336,-0.604,0.451,-1118.103,33.874,98.693,
00:00:21:433,0.288,-0.895,0.496,-923.768,42.785,-103.455,
00:00:21:450,0.34,-0.959,0.432,-1074.28,150.573,41.381,
00:00:21:467,0.434,-0.741,0.475,-962.647,130.92,30.09,
00:00:21:483,0.371,-0.748,0.628,-1396.119,148.193,159.118,
00:00:21:500,0.322,-1.001,0.75,-1493.653,119.323,-156.189,
00:00:21:517,0.358,-1.39,0.459,-1995.362,281.067,-235.535,
00:00:21:533,0.468,-1.004,0.2,-2000,369.262,130.798,
00:00:21:550,0.527,-0.336,0.045,-2000,362.365,347.595,
00:00:21:567,0.614,-0.243,0.49,-2000,75.866,221.374,
00:00:21:583,0.691,-0.018,0.97,-2000,-190.674,-54.139,
00:00:21:600,0.571,0.124,0.927,-2000,-27.527,82.031,
00:00:21:617,0.393,-0.179,0.374,-2000,32.775,109.069,
00:00:21:633,0.447,0.345,0.397,-2000,-22.583,232.788,
00:00:21:650,0.566,0.999,0.63,-2000,47.302,60.424,
00:00:21:667,0.497,1.387,0.631,-1237.488,68.359,72.753,
00:00:21:683,0.65,0.539,0.975,-155.152,102.356,-285.157,
00:00:21:700,0.636,0.52,0.871,152.038,165.527,52.063,
00:00:21:717,0.677,0.627,1.034,413.879,78.002,-1.221,
00:00:21:733,0.689,0.47,1.029,878.418,-3.052,18.859,
00:00:21:750,0.66,0.444,0.986,1149.963,-74.28,59.082,
00:00:21:767,0.656,0.435,0.986,1451.416,-143.494,81.787,
00:00:21:783,0.66,0.345,1.01,1816.711,-229.554,49.316,
00:00:21:800,0.587,0.292,0.98,1999.694,-307.923,42.419,
00:00:21:817,0.504,0.082,0.824,1999.694,-320.435,-66.895,
00:00:21:833,0.432,-0.201,0.682,1999.694,-205.689,-161.683,
00:00:21:850,0.385,-0.559,0.563,1999.694,-103.821,-268.982,
00:00:21:867,0.396,-0.983,0.675,1999.694,-104.065,-369.935,
00:00:21:883,0.416,-1.194,0.797,1999.694,-206.36,-360.962,
00:00:21:900,0.398,-0.984,0.877,1995.788,-330.384,-249.817,
00:00:21:917,0.277,-0.712,0.887,1714.66,-334.412,-128.296,
00:00:21:933,0.164,-0.516,0.817,1554.016,-242.127,-55.909,
00:00:21:950,0.181,-0.261,0.674,1497.619,-127.625,8.606,
00:00:21:967,0.196,-0.197,0.434,1482.605,-0.916,-8.179,
00:00:21:983,0.099,-0.64,0.213,1282.104,172.363,-93.323,
00:00:22:0,0.097,-1.04,0.216,894.287,159.179,-125.55,
00:00:22:17,0.257,-0.796,0.237,600.28,79.04,32.104,
00:00:22:33,0.223,-0.533,0.281,651.428,83.679,112.365,
00:00:22:50,0.187,-0.672,0.402,818.603,204.651,45.715,
00:00:22:67,0.253,-1.054,0.329,653.625,223.388,-48.096,
00:00:22:83,0.311,-1.041,0.161,332.214,138.794,6.652,
00:00:22:100,0.273,-1.035,0.214,30.517,128.418,-5.31,
00:00:22:117,0.316,-0.855,0.238,-138.733,100.097,-22.644,
00:00:22:133,0.312,-0.691,0.217,-94.605,82.641,-36.438,
00:00:22:150,0.277,-0.767,0.167,-29.664,117.92,-71.839,
00:00:22:167,0.346,-0.774,0.254,-32.959,118.469,-53.711,
00:00:22:183,0.393,-0.736,0.456,-192.81,101.013,8.3,
00:00:22:200,0.367,-0.766,0.538,-525.33,71.228,78.918,
00:00:22:217,0.3,-0.777,0.435,-768.982,34.851,107.36,
00:00:22:233,0.239,-0.988,0.432,-935.303,-7.264,98.877,
00:00:22:250,0.361,-0.716,0.413,-583.741,-22.034,88.012,
00:00:22:267,0.31,-0.769,0.527,-714.051,-6.653,126.281,
00:00:22:283,0.31,-0.745,0.516,-624.329,33.813,140.197,
00:00:22:300,0.371,-1.029,0.617,-1019.715,64.148,58.471,canRH
00:00:22:317,0.459,-0.942,0.528,-1445.435,142.578,108.703,
00:00:22:333,0.504,-0.726,0.469,-1547.791,168.09,38.635,
00:00:22:350,0.443,-0.954,0.469,-1796.021,140.442,60.607,
00:00:22:367,0.406,-0.585,0.513,-1948.914,116.455,265.808,
00:00:22:383,0.414,-0.467,0.706,-1538.025,-43.58,106.811,
00:00:22:400,0.366,-0.164,0.532,-1246.46,23.315,215.149,
00:00:22:417,0.362,-0.576,0.687,-901.429,46.814,-58.411,
00:00:22:433,0.475,-0.415,0.587,-877.869,36.926,81.359,
00:00:22:450,0.469,-0.366,0.802,-1218.506,-18.372,171.02,
00:00:22:467,0.455,-0.473,0.927,-1358.277,-67.627,-3.235,
00:00:22:483,0.474,-0.238,1.169,-1914.124,-105.286,279.419,
00:00:22:500,0.497,-0.442,1.162,-2000,-111.695,2.136,
00:00:22:517,0.494,-0.706,0.885,-2000,-86.853,267.578,
00:00:22:533,0.455,-0.294,0.675,-2000,-109.131,256.958,
00:00:22:550,0.539,0.084,1.077,-2000,-280.274,161.377,
00:00:22:567,0.398,0.371,0.974,-1999.146,-111.268,169.677,
00:00:22:583,0.445,0.61,0.903,-1521.119,-59.021,7.629,
00:00:22:600,0.434,0.018,0.953,-1128.235,28.991,-186.768,
00:00:22:617,0.63,0.124,0.608,-850.464,193.115,-23.011,
00:00:22:633,0.635,0.86,0.823,-570.984,82.946,44.067,
00:00:22:650,0.544,0.763,0.997,11.047,104.614,-68.055,
00:00:22:667,0.644,0.494,0.96,484.741,96.557,-66.224,
00:00:22:683,0.644,0.391,0.998,799.377,1.342,-61.402,
00:00:22:700,0.598,0.295,1.017,1238.037,-73.243,-47.059,
00:00:22:717,0.599,0.263,0.863,1715.149,-89.844,8.728,
00:00:22:733,0.6,0.299,0.798,1999.694,-171.936,-52.369,
00:00:22:750,0.556,0.241,0.763,1999.694,-193.055,-120.301,
00:00:22:767,0.448,0.161,0.625,1999.694,-170.777,-148.926,
00:00:22:783,0.322,-0.204,0.563,1999.694,-80.872,-349.427,
00:00:22:800,0.258,-0.629,0.528,1999.694,-13.672,-440.796,
00:00:22:817,0.259,-1.104,0.667,1999.694,-85.999,-571.106,
00:00:22:833,0.195,-1.361,0.823,1999.694,-139.893,-353.943,
00:00:22:850,0.2,-1.018,0.79,1684.875,-88.501,36.682,
00:00:22:867,0.117,-0.7,0.61,694.824,-63.965,155.639,
00:00:22:883,0.172,-0.161,0.372,545.959,-78.492,179.199,
00:00:22:900,0.077,-0.302,0.275,811.523,44.555,-38.208,
00:00:22:917,0.042,-0.757,0.152,1033.447,264.038,-19.349,
00:00:22:933,0.158,-1.149,0.206,835.205,374.206,-31.922,
00:00:22:950,0.454,-1.086,0.469,515.564,244.262,74.646,
00:00:22:967,0.45,-0.645,0.428,362.182,108.825,108.947,
00:00:22:983,0.279,-0.862,0.438,301.574,124.389,-10.621,
00:00:23:0,0.448,-0.726,0.388,79.895,39.367,-7.325,
00:00:23:17,0.465,-0.547,0.26,59.57,-5.86,48.828,
00:00:23:33,0.299,-0.699,0.249,28.442,29.785,83.862,
00:00:23:50,0.262,-0.907,0.314,-77.576,20.202,29.174,
00:00:23:67,0.29,-0.841,0.253,-162.049,20.507,84.716,
00:00:23:83,0.282,-0.633,0.294,-283.081,-13.123,128.906,
00:00:23:100,0.269,-0.828,0.321,-113.221,-29.053,53.344,
00:00:23:117,0.42,-0.548,0.316,-33.997,38.574,156.982,
00:00:23:133,0.304,-0.873,0.408,-400.391,-14.527,160.827,
00:00:23:150,0.302,-1.096,0.565,-490.967,24.597,59.814,
00:00:23:167,0.43,-1.026,0.321,-821.289,19.043,38.024,
00:00:23:183,0.452,-0.778,0.335,-1094.239,47.851,118.286,
00:00:23:200,0.505,-0.748,0.199,-700.806,34.24,-57.251,
00:00:23:217,0.539,-0.642,0.253,-525.574,40.344,82.519,
00:00:23:233,0.516,-0.704,0.531,-218.628,19.287,-40.284,
00:00:23:250,0.481,-0.762,0.609,-406.495,75.317,3.662,
00:00:23:267,0.407,-0.956,0.59,-1001.16,106.872,-33.448,
00:00:23:283,0.431,-1.111,0.615,-1542.847,140.869,-56.336,
00:00:23:300,0.465,-0.864,0.659,-2000,155.639,199.401,
00:00:23:317,0.414,-0.953,0.576,-2000,204.101,65.002,
00:00:23:333,0.509,-0.867,0.601,-2000,209.533,284.179,
00:00:23:350,0.622,-0.564,0.799,-2000,70.922,420.349,
00:00:23:367,0.703,-0.447,1.008,-2000,-107.666,289.672,
00:00:23:383,0.515,0.22,0.749,-2000,-106.873,433.41,
00:00:23:400,0.421,-0.099,0.661,-2000,-158.509,-56.214,
00:00:23:417,0.504,0.681,0.58,-2000,2.136,261.23,
00:00:23:433,0.761,0.776,0.75,-736.695,101.318,-44.861,
00:00:23:450,0.719,0.913,0.714,214.233,68.237,28.137,
00:00:23:467,0.595,0.514,0.941,845.337,-7.996,-105.835,
00:00:23:483,0.662,0.063,1.135,1358.154,-89.478,-102.906,
00:00:23:500,0.646,0.007,1.092,1555.481,-174.988,-104.371,
00:00:23:517,0.618,-0.06,1.003,1746.948,-244.446,-114.441,
00:00:23:533,0.609,-0.152,0.847,1916.809,-260.376,-144.043,
00:00:23:550,0.589,-0.195,0.749,1999.694,-235.108,-189.698,
00:00:23:567,0.528,-0.265,0.704,1999.694,-218.323,-265.381,
00:00:23:583,0.456,-0.341,0.68,1999.694,-214.844,-368.653,
00:00:23:600,0.414,-0.508,0.727,1999.694,-198.914,-400.33,
00:00:23:617,0.394,-0.677,0.694,1999.694,-153.992,-393.372,
00:00:23:633,0.379,-0.852,0.739,1999.694,-164.246,-430.176,
00:00:23:650,0.353,-0.777,0.873,1861.694,-213.685,-264.649,
00:00:23:667,0.322,-0.436,0.748,1514.526,-199.28,-47.303,
00:00:23:683,0.203,-0.32,0.603,1363.586,-87.83,22.399,
00:00:23:700,0.061,-0.684,0.401,1153.381,82.153,-73.548,
00:00:23:717,0.141,-0.776,0.388,808.288,73.669,-89.234,
00:00:23:733,0.23,-0.549,0.402,583.74,16.784,8.667,
00:00:23:750,0.153,-0.506,0.345,585.815,55.419,97.045,
00:00:23:767,0.088,-0.621,0.272,678.894,158.569,132.385,
00:00:23:783,0.137,-0.857,0.276,570.861,206.237,113.403,
00:00:23:800,0.182,-0.884,0.164,292.968,203.308,131.164,
00:00:23:817,0.302,-1.035,0.533,-30.579,104.309,16.784,
00:00:23:833,0.502,-0.779,0.441,52.368,-5.005,-2.076,
00:00:23:850,0.531,-0.747,0.416,26.733,33.02,-7.081,
00:00:23:867,0.302,-0.9,0.399,-211.976,-63.172,49.865,
00:00:23:883,0.198,-0.678,0.444,-482.666,-123.597,58.837,
00:00:23:900,0.178,-1.096,0.562,-448.426,-167.664,-132.325,
00:00:23:917,0.38,-0.761,0.406,-449.83,-131.104,-80.628,
00:00:23:933,0.223,-1.021,0.242,-560.608,-163.514,-125.977,
00:00:23:950,0.292,-0.597,0.366,-692.2,-105.286,0.244,
00:00:23:967,0.196,-0.677,0.474,-676.819,-83.374,-62.317,
00:00:23:983,0.156,-0.908,0.461,-702.088,39.184,-66.102,
00:00:24:0,0.37,-1.016,0.453,-821.167,143.432,-162.476,
00:00:24:17,0.507,-0.936,0.438,-1392.09,214.904,-38.208,
00:00:24:33,0.565,-1.01,0.623,-1872.498,178.527,-80.323,
00:00:24:50,0.509,-0.945,0.884,-2000,68.725,81.604,
00:00:24:67,0.452,-0.969,1.18,-2000,-80.201,80.505,
00:00:24:83,0.279,-0.69,0.666,-2000,117.553,269.897,
00:00:24:100,0.314,-0.591,0.347,-2000,13.61,362.487,
00:00:24:117,0.448,-0.127,0.486,-2000,-174.317,333.862,
00:00:24:133,0.416,-0.152,0.576,-2000,-127.564,-41.81,
00:00:24:150,0.211,0.002,0.494,-2000,-81.36,-122.498,
00:00:24:167,0.334,0.162,0.616,-1800.171,281.677,-121.644,
00:00:24:183,0.693,0.924,0.539,-1097.168,315.979,15.502,
00:00:24:200,0.754,0.727,0.771,-292.42,197.937,-118.714,
00:00:24:217,0.629,0.382,1.005,251.77,138.244,-106.385,
00:00:24:233,0.591,0.412,1.01,608.581,133.667,39.428,
00:00:24:250,0.618,0.296,1.104,973.877,17.028,-13.123,
00:00:24:267,0.596,0.11,1.109,1375.549,-71.167,-8.301,
00:00:24:283,0.586,-0.037,0.998,1647.522,-112.305,-31.617,
00:00:24:300,0.602,-0.095,0.875,1916.504,-157.532,-91.126,
00:00:24:317,0.57,-0.1,0.801,1999.694,-182.129,-90.516,
00:00:24:333,0.482,-0.1,0.68,1999.694,-182.373,-185.12,
00:00:24:350,0.409,-0.241,0.687,1999.694,-168.457,-301.392,
00:00:24:367,0.346,-0.481,0.646,1999.694,-116.7,-386.963,
00:00:24:383,0.36,-0.783,0.705,1999.694,-93.445,-443.604,
00:00:24:400,0.401,-1.118,0.831,1999.694,-146.424,-453.858,
00:00:24:417,0.401,-1.116,0.894,1832.824,-218.567,-293.763,
00:00:24:433,0.328,-0.844,0.878,1155.944,-248.658,-97.962,
00:00:24:450,0.218,-0.656,0.769,764.831,-214.844,3.967,
00:00:24:467,0.143,-0.558,0.572,583.74,-142.64,77.27,
00:00:24:483,0.126,-0.446,0.448,559.997,-94.727,84.594,
00:00:24:500,0.147,-0.409,0.438,606.14,-79.529,43.212,
00:00:24:517,0.127,-0.575,0.382,686.523,-19.471,62.194,
00:00:24:533,0.067,-0.825,0.29,649.902,67.504,130.737,
00:00:24:550,0.054,-0.947,0.264,509.887,127.807,140.319,
00:00:24:567,0.179,-0.87,0.259,395.385,138.977,137.451,
00:00:24:583,0.28,-0.864,0.37,316.589,117.065,67.932,
00:00:24:600,0.344,-0.893,0.369,313.293,80.627,11.962,
00:00:24:617,0.402,-1.062,0.387,286.255,79.467,-55.97,
00:00:24:633,0.494,-1.016,0.349,169.372,29.541,-42.908,
00:00:24:650,0.501,-0.872,0.27,84.35,-21.058,-22.583,
00:00:24:667,0.434,-0.787,0.273,52.429,-18.311,-2.015,
00:00:24:683,0.37,-0.811,0.318,64.025,4.638,0.183,
00:00:24:700,0.344,-0.754,0.304,76.294,17.456,34.24,
00:00:24:717,0.283,-0.789,0.186,127.563,57.861,37.963,
00:00:24:733,0.248,-1.102,0.311,24.169,139.221,-14.893,
00:00:24:750,0.329,-0.898,0.271,-207.459,34.851,5.676,
00:00:24:767,0.171,-0.722,0.348,-204.773,49.865,9.094,
00:00:24:783,0.202,-0.774,0.54,-263.062,48.584,-53.223,
00:00:24:800,0.343,-0.527,0.362,-217.164,4.15,-43.457,
00:00:24:817,0.217,-0.717,0.28,-246.338,10.742,2.197,
00:00:24:833,0.203,-0.876,0.359,-364.563,63.537,15.075,
00:00:24:850,0.253,-1.066,0.515,-767.09,18.31,-6.653,
00:00:24:867,0.37,-1.179,0.598,-714.051,66.772,-126.465,
00:00:24:883,0.456,-0.852,0.458,-1139.649,1.831,61.95,
00:00:24:900,0.352,-0.869,0.517,-1048.768,-26.49,-85.572,
00:00:24:917,0.385,-0.618,0.56,-1093.689,-0.428,46.997,
00:00:24:933,0.393,-0.549,0.584,-738.953,-8.179,-23.926,
00:00:24:950,0.343,-0.301,0.536,-751.099,45.898,159.729,
00:00:24:967,0.235,-0.628,0.57,-623.047,23.437,-10.804,
00:00:24:983,0.285,-0.924,0.642,-638.672,84.411,4.394,
00:00:25:0,0.505,-0.852,0.595,-504.761,164.795,-24.17,
00:00:25:17,0.541,-0.795,0.513,-917.115,197.876,123.23,
00:00:25:33,0.514,-0.578,0.612,-1193.726,131.775,86.669,
00:00:25:50,0.435,-0.683,0.827,-1516.846,41.015,88.684,
00:00:25:67,0.428,-0.608,0.879,-1673.218,33.081,47.363,
00:00:25:83,0.428,-0.71,0.934,-1970.276,6.53,114.685,
00:00:25:100,0.365,-0.633,0.967,-2000,19.836,191.955,
00:00:25:117,0.391,-0.884,1.034,-2000,-24.353,56.274,
00:00:25:133,0.233,-0.277,0.295,-2000,6.591,4.211,
00:00:25:150,0.547,0.539,-0.001,-2000,298.339,-114.747,
00:00:25:167,0.791,1.527,0.148,-1987.793,132.873,-91.126,
00:00:25:183,0.641,1.352,0.386,-573.853,211.425,-12.452,
00:00:25:200,0.51,1.206,0.755,513.794,197.815,-134.644,
00:00:25:217,0.619,0.457,1.08,1047.424,158.569,-113.465,
00:00:25:233,0.614,0.067,1.216,993.286,124.328,-64.759,
00:00:25:250,0.544,0.158,1.245,802.246,39.184,-24.842,
00:00:25:267,0.561,0.238,1.215,788.391,-17.701,8.728,
00:00:25:283,0.634,0.227,1.113,991.394,-68.177,20.446,
00:00:25:300,0.663,0.265,0.931,1337.707,-113.038,24.475,
00:00:25:317,0.461,0.186,0.556,1999.694,-206.665,-150.696,
00:00:25:333,0.309,-0.481,0.585,1999.694,-24.72,-403.077,
00:00:25:350,0.301,-1.079,0.578,1999.694,118.408,-439.942,
00:00:25:367,0.44,-1.464,0.684,1999.694,-155.823,-453.125,
00:00:25:383,0.341,-1.153,0.962,1881.164,-407.593,-184.266,
00:00:25:400,0.186,-0.599,0.89,1345.825,-360.23,133.728,
00:00:25:417,0.066,-0.346,0.649,1260.315,-192.933,216.003,
00:00:25:433,0.004,-0.448,0.407,1278.747,32.47,96.801,
00:00:25:450,0.038,-0.609,0.252,1186.279,143.921,-26.734,
00:00:25:467,0.094,-0.813,0.149,916.87,201.538,-88.257,
00:00:25:483,0.127,-0.86,0.095,686.401,193.054,-61.829,
00:00:25:500,0.163,-0.907,0.19,509.338,227.478,-32.532,
00:00:25:517,0.432,-0.768,0.364,168.823,114.441,-76.355,
00:00:25:533,0.479,-0.769,0.342,60.852,53.466,-131.897,
00:00:25:550,0.476,-0.733,0.358,-95.581,13.549,-60.486,
00:00:25:567,0.347,-0.765,0.382,-251.709,0.732,-10.01,
00:00:25:583,0.294,-0.821,0.424,-443.543,-15.076,1.648,
00:00:25:600,0.221,-0.834,0.388,-652.771,-17.395,-4.151,
00:00:25:617,0.214,-1.105,0.356,-760.254,-62.439,-118.958,
00:00:25:633,0.407,-0.731,0.259,-651.734,-1.099,-24.109,
00:00:25:650,0.315,-0.628,0.379,-909.668,-29.541,81.665,
00:00:25:667,0.179,-0.761,0.537,-717.286,3.54,-41.626,
00:00:25:683,0.219,-0.882,0.572,-1119.935,96.679,32.104,
00:00:25:700,0.516,-0.859,0.763,-1902.161,193.908,26.123,
00:00:25:717,0.495,-0.923,0.649,-2000,204.589,167.846,
00:00:25:733,0.362,-0.897,0.561,-2000,180.908,203.43,
00:00:25:750,0.351,-0.838,0.499,-2000,116.882,195.678,
00:00:25:767,0.442,-0.66,0.54,-2000,92.529,181.152,
00:00:25:783,0.604,-0.459,0.411,-2000,23.742,193.176,
00:00:25:800,0.547,-0.088,0.248,-2000,9.765,16.113,
00:00:25:817,0.607,0.859,0.125,-2000,169.494,186.645,
00:00:25:833,0.794,1.22,0.392,-2000,195.129,-106.08,
00:00:25:850,0.571,1.738,0.324,-943.177,185.852,76.232,
00:00:25:867,0.542,1.17,0.757,181.823,180.969,-150.513,
00:00:25:883,0.57,0.507,1.023,667.846,165.649,-171.875,
00:00:25:900,0.57,0.259,1.124,719.299,113.891,-91.248,
00:00:25:917,0.55,0.341,1.158,679.077,46.142,-42.603,
00:00:25:933,0.575,0.475,1.086,808.227,-20.691,-0.733,
00:00:25:950,0.608,0.538,1.005,1107.483,-106.995,22.705,
00:00:25:967,0.597,0.525,0.914,1459.411,-166.443,41.137,
00:00:25:983,0.554,0.292,0.703,1999.694,-213.807,-17.579,
00:00:26:0,0.571,0.152,0.688,1999.694,-200.501,-99.854,
00:00:26:17,0.575,-0.063,0.714,1999.694,-180.359,-163.331,
00:00:26:33,0.521,-0.215,0.707,1999.694,-125.184,-183.777,
00:00:26:50,0.474,-0.556,0.738,1999.694,-55.298,-249.939,
00:00:26:67,0.46,-0.838,0.719,1999.694,-86.976,-237.977,
00:00:26:83,0.291,-0.664,0.88,1305.725,-265.076,42.114,
00:00:26:100,0.276,-0.381,0.818,1175.903,-240.418,146.545,
00:00:26:117,0.248,-0.019,0.546,1189.819,-123.658,329.101,
00:00:26:133,0.072,-0.014,0.205,1365.173,60.669,273.681,
00:00:26:150,-0.087,-0.799,-0.005,1429.016,301.88,-63.111,
00:00:26:167,0.018,-1.308,-0.014,1024.78,359.863,-187.684,
00:00:26:183,0.248,-1.294,0.32,519.592,239.013,-76.844,
00:00:26:200,0.382,-0.862,0.428,394.409,149.902,66.284,
00:00:26:217,0.342,-0.818,0.435,629.15,182.19,-20.325,
00:00:26:233,0.38,-1.058,0.44,658.325,206.115,-141.724,
00:00:26:250,0.467,-1.021,0.399,390.686,100.097,-145.691,
00:00:26:267,0.361,-0.875,0.337,180.175,11.596,-122.193,
00:00:26:283,0.229,-0.859,0.202,102.844,24.292,-127.991,
00:00:26:300,0.276,-0.827,0.178,77.758,102.6,-88.44,
00:00:26:317,0.402,-0.597,0.195,-5.372,137.695,26.001,canRH
00:00:26:333,0.408,-0.448,0.303,-34.424,137.268,103.027,
00:00:26:350,0.413,-0.645,0.425,33.935,180.786,117.309,
00:00:26:367,0.421,-0.891,0.486,-43.152,131.836,124.206,
00:00:26:383,0.445,-0.862,0.468,-108.216,27.71,151.428,
00:00:26:400,0.423,-0.872,0.398,-94.727,-15.503,116.211,
00:00:26:417,0.344,-0.958,0.401,-249.207,-83.069,116.76,
00:00:26:433,0.407,-0.966,0.324,-63.355,-82.886,-0.184,
00:00:26:450,0.505,-0.624,0.14,-141.48,-35.828,80.81,
00:00:26:467,0.337,-0.81,0.293,-313.477,-36.805,65.612,
00:00:26:483,0.382,-1.059,0.377,-106.873,40.771,-15.748,
00:00:26:500,0.474,-0.662,0.337,-200.684,16.113,101.196,
00:00:26:517,0.343,-0.894,0.363,-268.799,32.531,40.832,
00:00:26:533,0.326,-1.013,0.421,-424.439,18.066,30.334,
00:00:26:550,0.484,-0.881,0.381,-399.72,24.047,-2.259,
00:00:26:567,0.591,-0.477,0.396,-559.144,17.211,50.109,
00:00:26:583,0.41,-1.013,0.359,-448.243,21.606,-106.385,
00:00:26:600,0.483,-0.678,0.267,-399.781,32.47,42.48,
00:00:26:617,0.451,-0.645,0.511,-458.252,14.709,-3.296,
00:00:26:633,0.442,-1.073,0.52,-520.691,85.693,-149.781,
00:00:26:650,0.622,-0.76,0.514,-1081.299,131.958,40.893,
00:00:26:667,0.473,-0.967,0.558,-1853.821,134.094,8.3,
00:00:26:683,0.399,-0.737,0.515,-2000,203.43,105.102,
00:00:26:700,0.359,-1.295,0.543,-2000,270.935,-33.448,
00:00:26:717,0.447,-1.187,0.512,-2000,300.048,129.028,
00:00:26:733,0.603,-0.857,0.473,-2000,206.115,230.224,
00:00:26:750,0.686,-0.487,0.617,-2000,-92.225,151.001,
00:00:26:767,0.715,-0.19,0.648,-2000,-418.274,257.202,
00:00:26:783,0.219,-0.028,0.349,-2000,-294.495,-45.716,
00:00:26:800,0.358,0.66,-0.078,-2000,185.119,69.336,
00:00:26:817,0.789,0.89,0.404,-1826.661,199.463,-240.967,
00:00:26:833,0.639,1.234,0.46,-831.849,178.1,-41.199,
00:00:26:850,0.546,1.069,0.749,84.716,164.367,-124.024,
00:00:26:867,0.657,0.643,1.058,683.899,112.365,-124.146,
00:00:26:883,0.703,0.423,1.156,932.495,15.319,-74.158,
00:00:26:900,0.704,0.337,1.032,1095.642,-85.144,-34.974,
00:00:26:917,0.697,0.329,0.915,1349.548,-197.754,43.457,
00:00:26:933,0.67,0.311,0.872,1756.958,-286.744,33.935,
00:00:26:950,0.638,0.233,0.776,1999.694,-296.021,22.399,
00:00:26:967,0.632,0.188,0.706,1999.694,-299.622,7.324,
00:00:26:983,0.519,0.086,0.702,1999.694,-319.397,-84.473,
00:00:27:0,0.438,-0.226,0.85,1999.694,-265.809,-244.324,
00:00:27:17,0.415,-0.697,0.756,1999.694,-170.594,-326.661,
00:00:27:33,0.455,-1.167,0.856,1999.694,-210.267,-409.363,
00:00:27:50,0.482,-1.169,0.901,1999.694,-372.132,-323.121,
00:00:27:67,0.421,-0.736,0.846,1410.827,-433.899,-97.29,
00:00:27:83,0.195,-0.433,0.454,1319.763,-100.098,-89.478,
00:00:27:100,0.235,-0.547,0.358,1275.634,-0.55,-127.137,
00:00:27:117,0.221,-0.708,0.219,1109.192,99.792,-118.348,
00:00:27:133,0.208,-0.878,0.125,907.348,187.927,-32.288,
00:00:27:150,0.232,-0.86,0.123,704.651,223.693,54.321,
00:00:27:167,0.233,-0.753,0.232,545.959,226.318,60.73,
00:00:27:183,0.256,-0.692,0.315,427.307,227.234,40.405,
00:00:27:200,0.258,-0.693,0.364,295.959,184.753,10.925,
00:00:27:217,0.281,-0.693,0.457,208.496,112.365,-8.606,
00:00:27:233,0.276,-0.738,0.469,156.921,66.833,8.056,
00:00:27:250,0.352,-0.8,0.406,121.093,28.381,-55.848,
00:00:27:267,0.425,-0.734,0.262,52.185,16.723,-10.804,
00:00:27:283,0.317,-0.654,0.241,-249.329,11.291,104.553,
00:00:27:300,0.467,-0.677,0.268,-336.487,58.166,134.826,
00:00:27:317,0.248,-0.929,0.239,-617.859,10.192,54.321,
00:00:27:333,0.338,-0.85,0.606,-600.464,85.815,38.208,
00:00:27:350,0.46,-0.984,0.486,-811.219,62.744,-26.123,
00:00:27:367,0.51,-0.81,0.6,-1182.496,93.689,74.707,
00:00:27:383,0.481,-0.82,0.551,-1100.342,93.139,-67.2,
00:00:27:400,0.442,-0.917,0.445,-1393.982,137.756,45.654,
00:00:27:417,0.441,-0.727,0.438,-1199.28,96.801,45.349,
00:00:27:433,0.412,-0.678,0.606,-1211.304,56.884,106.811,
00:00:27:450,0.477,-0.555,0.724,-1056.519,72.998,45.837,
00:00:27:467,0.526,-0.75,0.762,-1453.675,79.956,64.636,
00:00:27:483,0.587,-0.944,0.692,-1681.214,-8.667,-120.118,
00:00:27:500,0.577,-0.865,0.704,-1997.01,-88.135,47.973,
00:00:27:517,0.479,-0.435,0.661,-2000,-98.084,117.92,
00:00:27:533,0.432,-0.427,1.033,-2000,-179.688,69.03,
00:00:27:550,0.432,-0.341,1.213,-2000,-133.118,147.888,
00:00:27:567,0.442,-0.39,0.931,-2000,-144.471,190.918,
00:00:27:583,0.386,-0.169,0.605,-2000,-175.171,282.47,
00:00:27:600,0.51,0.474,0.799,-1137.085,93.078,-218.262,
00:00:27:617,0.542,0.492,0.702,-539.551,251.159,-102.784,
00:00:27:633,0.624,0.884,0.792,32.836,212.646,-81.604,
00:00:27:650,0.615,0.697,0.982,581.054,145.019,-95.398,
00:00:27:667,0.628,0.392,1.01,998.169,106.018,-77.82,
00:00:27:683,0.622,0.2,0.945,1238.281,41.198,-48.218,
00:00:27:700,0.626,0.069,0.869,1447.815,5.371,-9.4,
00:00:27:717,0.646,0.002,0.831,1694.091,-29.786,-1.648,
00:00:27:733,0.659,0.018,0.725,1988.037,-77.698,-19.532,
00:00:27:750,0.658,0.036,0.591,1999.694,-115.479,-55.359,
00:00:27:767,0.573,-0.021,0.544,1999.694,-141.785,-144.349,
00:00:27:783,0.465,-0.287,0.584,1999.694,-152.649,-339.722,
00:00:27:800,0.35,-0.841,0.541,1999.694,-92.896,-493.653,
00:00:27:817,0.295,-1.526,0.651,1999.694,-153.931,-605.774,
00:00:27:833,0.26,-1.573,0.92,1999.694,-219.849,-404.847,
00:00:27:850,0.257,-0.996,0.999,1380.249,-220.215,-182.984,
00:00:27:867,0.228,-0.472,0.835,784.912,-143.616,-1.038,
00:00:27:883,0.105,-0.281,0.48,654.419,-16.968,-3.296,
00:00:27:900,0.087,-0.725,0.212,555.175,253.601,13.488,
00:00:27:917,0.153,-0.712,0.259,517.273,265.991,79.773,
00:00:27:933,0.181,-0.84,0.362,477.172,288.696,61.828,
00:00:27:950,0.325,-0.964,0.6,325.256,192.138,-35.096,
00:00:27:967,0.489,-0.799,0.658,207.458,22.094,-37.293,
00:00:27:983,0.266,-0.912,0.266,-30.213,-83.13,-41.199,
00:00:28:0,0.275,-0.818,0.277,-223.267,-73.548,-10.926,
00:00:28:17,0.257,-0.735,0.225,-362.732,-78.614,16.601,
00:00:28:33,0.143,-0.573,0.297,-510.621,-77.942,123.413,
00:00:28:50,0.227,-0.778,0.359,-118.287,-77.393,-41.993,
00:00:28:67,0.379,-0.646,0.517,-223.694,-88.257,155.883,
00:00:28:83,0.308,-0.89,0.434,-76.111,-84.412,-16.907,
00:00:28:100,0.364,-1.08,0.336,-216.98,-28.382,-5.249,
00:00:28:117,0.385,-0.834,0.537,-703.37,0.183,85.998,
00:00:28:133,0.367,-0.828,0.48,-1086.487,16.784,-13.245,
00:00:28:150,0.436,-1.052,0.453,-1268.616,75.439,-105.713,
00:00:28:167,0.188,-0.806,0.887,-2000,49.072,124.267,
00:00:28:183,0.337,-0.932,0.74,-2000,73.73,121.521,
00:00:28:200,0.52,-1.171,0.864,-2000,-14.588,130.127,
00:00:28:217,0.592,-0.975,0.537,-2000,-55.542,217.529,
00:00:28:233,0.446,-0.808,0.654,-2000,-376.648,-2.991,
00:00:28:250,0.295,-0.328,0.47,-2000,-267.823,61.096,
00:00:28:267,0.62,-0.016,0.592,-2000,118.591,-129.761,
00:00:28:283,0.851,0.729,0.774,-1544.19,11.047,117.736,
00:00:28:300,0.722,0.842,1.037,-893.189,-116.394,-61.341,
00:00:28:317,0.541,0.617,1.143,-285.279,-101.929,-92.286,
00:00:28:333,0.6,0.446,1.14,107.544,-46.387,-2.808,
00:00:28:350,0.55,0.311,0.787,824.279,-81.971,59.57,
00:00:28:367,0.514,0.435,0.741,1053.222,-58.777,86.547,
00:00:28:383,0.504,0.472,0.753,1440.551,-81.36,27.71,
00:00:28:400,0.475,0.393,0.796,1928.772,-141.968,-26.185,
00:00:28:417,0.46,-0.255,0.784,1999.694,-43.824,-94.3,
00:00:28:433,0.418,-0.579,0.728,1999.694,-86.243,-89.112,
00:00:28:450,0.388,-0.848,0.851,1999.694,-235.23,-131.348,
00:00:28:467,0.262,-1.01,1.005,1894.714,-361.023,-179.749,
00:00:28:483,0.169,-0.85,0.861,1320.8,-338.257,11.352,
00:00:28:500,0.091,-0.724,0.638,742.614,-265.076,99.731,
00:00:28:517,0.011,-0.647,0.467,267.7,-168.457,103.271,
00:00:28:533,0.078,-0.39,0.394,188.476,-127.869,67.504,
00:00:28:550,0.102,-0.293,0.362,499.328,-93.14,-22.4,
00:00:28:567,0.052,-0.497,0.281,879.943,6.958,-84.168,
00:00:28:583,0.029,-0.824,0.363,922.424,118.591,-147.522,
00:00:28:600,0.151,-0.977,0.456,563.598,142.151,-38.514,
00:00:28:617,0.292,-0.64,0.474,382.019,64.453,109.314,
00:00:28:633,0.24,-0.469,0.463,511.596,63.415,139.709,
00:00:28:650,0.216,-0.564,0.392,660.949,116.027,31.433,
00:00:28:667,0.179,-0.958,0.302,651.611,169.25,-85.022,
00:00:28:683,0.254,-1.16,0.236,552.063,159.423,-117.432,
00:00:28:700,0.359,-1.048,0.344,450.683,162.658,-49.195,
00:00:28:717,0.363,-0.959,0.659,283.203,154.113,11.779,
00:00:28:733,0.332,-0.757,0.669,20.935,95.581,-9.156,
00:00:28:750,0.324,-0.688,0.717,-166.871,3.479,-0.55,
00:00:28:767,0.312,-0.618,0.526,-219.483,-28.443,11.413,
00:00:28:783,0.207,-0.444,0.247,-320.557,-49.744,75.805,
00:00:28:800,0.119,-0.566,0.348,-214.783,36.01,139.465,
00:00:28:817,0.075,-0.658,0.713,-162.903,-18.494,57.556,
00:00:28:833,0.129,-0.832,0.859,-215.882,22.705,0.732,
00:00:28:850,0.423,-1.103,0.87,-632.447,106.994,-92.164,
00:00:28:867,0.746,-1.254,0.96,-1306.824,159.546,-154.664,
00:00:28:883,0.743,-1.258,0.897,-2000,196.106,-71.289,
00:00:28:900,0.532,-1.244,1.02,-2000,77.392,122.314,
00:00:28:917,0.281,-0.896,0.769,-2000,20.141,278.686,
00:00:28:933,0.163,-0.462,0.348,-2000,-45.411,339.782,
00:00:28:950,0.199,-0.039,0.246,-2000,-76.05,389.709,
00:00:28:967,0.175,-0.672,0.441,-2000,-52.002,-360.047,
00:00:28:983,0.274,-0.951,0.791,-2000,139.953,-358.338,
00:00:29:0,0.676,0.091,0.326,-2000,480.835,-38.575,
00:00:29:17,0.79,0.893,0.601,-1982.483,223.632,-227.967,
00:00:29:33,0.593,0.708,0.761,-1276.856,279.602,-160.34,
00:00:29:50,0.45,1.232,0.848,-706.299,210.083,-41.016,
00:00:29:67,0.535,0.94,1.071,59.692,203.735,-62.439,
00:00:29:83,0.578,0.413,1.1,547.241,146.179,-78.37,
00:00:29:100,0.557,0.116,1.135,633.117,73.608,-30.274,
00:00:29:117,0.534,0.124,1.115,602.661,3.845,-5.005,
00:00:29:133,0.564,0.254,0.99,702.209,-29.664,22.277,
00:00:29:150,0.6,0.332,0.885,1003.234,-79.163,77.758,
00:00:29:167,0.618,0.382,0.85,1493.408,-119.446,92.529,
00:00:29:183,0.567,0.28,0.814,1991.394,-153.809,41.442,
00:00:29:200,0.592,0.092,0.827,1999.694,-170.166,-8.728,
00:00:29:217,0.536,-0.042,0.792,1999.694,-137.574,20.141,
00:00:29:233,0.477,-0.388,0.734,1999.694,-84.534,-69.214,
00:00:29:250,0.39,-0.779,0.714,1999.694,-71.778,-163.086,
00:00:29:267,0.362,-1.19,0.69,1999.694,-182.19,-270.264,
00:00:29:283,0.26,-1.2,0.788,1966.552,-319.458,-229.493,
00:00:29:300,0.139,-0.972,0.79,1319.458,-276.246,-77.637,
00:00:29:317,0.067,-0.81,0.666,917.724,-183.777,-14.283,
00:00:29:333,0.059,-0.627,0.52,671.142,-87.769,44.616,
00:00:29:350,0.14,-0.325,0.359,600.525,-15.198,47.851,
00:00:29:367,0.189,-0.171,0.264,856.567,13,-37.049,
00:00:29:383,0.006,-0.514,0.252,1181.64,158.081,-84.717,
00:00:29:400,0.012,-0.898,0.194,1157.226,300.781,-98.633,
00:00:29:417,0.351,-0.885,0.457,409.668,185.119,107.238,
00:00:29:433,0.389,-0.554,0.499,312.744,103.332,142.089,
00:00:29:450,0.364,-0.745,0.465,439.148,154.541,51.33,
00:00:29:467,0.396,-0.944,0.506,293.151,103.271,-19.043,
00:00:29:483,0.402,-0.944,0.396,64.392,26.001,59.936,
00:00:29:500,0.281,-0.877,0.329,-149.72,5.92,94.177,
00:00:29:517,0.268,-0.774,0.298,-285.462,9.216,89.66,
00:00:29:533,0.173,-0.652,0.21,-460.144,36.621,120.483,
00:00:29:550,0.219,-0.947,0.228,-311.951,26.611,-34.485,
00:00:29:567,0.277,-0.655,0.25,-409.485,82.58,141.906,
00:00:29:583,0.311,-0.902,0.328,-405.274,78.613,-38.147,
00:00:29:600,0.361,-1.156,0.477,-670.533,191.955,-7.569,
00:00:29:617,0.367,-0.797,0.49,-1188.05,244.873,94.482,
00:00:29:633,0.265,-0.938,0.434,-1665.284,190.734,-41.565,
00:00:29:650,0.303,-1.079,0.404,-1942.383,351.806,-136.841,
00:00:29:667,0.526,-0.954,0.335,-2000,480.346,92.59,
00:00:29:683,0.558,-0.824,0.422,-2000,349.792,146.667,
00:00:29:700,0.615,-1.074,0.62,-2000,158.752,-20.935,
00:00:29:717,0.597,-0.986,0.739,-2000,116.15,228.271,
00:00:29:733,0.692,-0.465,0.723,-2000,-69.703,213.012,
00:00:29:750,0.734,0.236,0.951,-2000,-383.118,342.59,
00:00:29:767,0.477,1.092,0.825,-2000,-571.961,447.998,
00:00:29:783,0.255,1.121,0.246,-1899.048,-123.963,10.192,
00:00:29:800,0.594,1.126,0.356,-410.767,0.305,-51.392,
00:00:29:817,0.573,0.506,0.599,249.878,33.996,-135.865,
00:00:29:833,0.487,0.252,0.748,403.747,129.699,-106.568,
00:00:29:850,0.567,0.434,0.968,519.348,160.949,-60.914,
00:00:29:867,0.582,0.444,1.07,814.758,97.656,-64.393,
00:00:29:883,0.603,0.296,1.068,1121.154,27.038,-52.369,
00:00:29:900,0.587,0.255,1.003,1417.236,-50.599,-18.677,
00:00:29:917,0.55,0.216,0.95,1747.68,-144.165,5.249,
00:00:29:933,0.508,0.131,0.867,1999.694,-166.748,5.188,
00:00:29:950,0.551,-0.263,0.633,1999.694,-67.078,-132.752,
00:00:29:967,0.487,-0.437,0.653,1999.694,-73.853,-214.6,
00:00:29:983,0.394,-0.573,0.688,1999.694,-111.023,-192.017,
00:00:30:0,0.305,-0.8,0.797,1999.694,-160.462,-307.801,
00:00:30:17,0.248,-0.871,0.859,1999.633,-188.782,-220.398,
00:00:30:33,0.211,-0.722,0.719,1566.65,-122.498,-21.668,
00:00:30:50,0.156,-0.559,0.465,1176.147,-37.903,95.275,
00:00:30:67,0.104,-0.549,0.388,963.256,40.527,103.332,
00:00:30:83,0.155,-0.54,0.325,845.031,119.323,62.5,
00:00:30:100,0.239,-0.64,0.285,875.976,155.029,25.146,
00:00:30:117,0.226,-0.812,0.247,882.385,195.373,-26.429,
00:00:30:133,0.322,-0.875,0.269,629.699,154.968,-50.904,
00:00:30:150,0.282,-0.907,0.228,452.026,122.558,-83.374,
00:00:30:167,0.29,-0.841,0.23,243.652,80.017,-43.58,
00:00:30:183,0.317,-0.669,0.408,57.861,75.744,28.686,
00:00:30:200,0.377,-0.778,0.622,15.014,39.55,-28.321,
00:00:30:217,0.453,-0.809,0.504,42.419,39.672,-14.222,
00:00:30:233,0.398,-1.138,0.358,-132.081,33.081,-71.045,
00:00:30:250,0.39,-0.911,0.216,-430.909,-12.452,35.156,
00:00:30:267,0.361,-0.809,0.196,-507.691,21.423,-8.851,
00:00:30:283,0.294,-0.778,0.289,-659.485,25.268,27.648,
00:00:30:300,0.365,-0.753,0.344,-425.171,68.542,-21.485,
00:00:30:317,0.424,-1.053,0.557,-1233.887,192.138,-1.16,canRH
00:00:30:333,0.521,-1.064,0.433,-1917.115,222.656,86.608,
00:00:30:350,0.563,-0.904,0.601,-2000,91.491,91.003,
00:00:30:367,0.545,-0.542,0.767,-2000,18.249,118.835,
00:00:30:383,0.499,-0.502,0.764,-1802.674,3.418,99.792,
00:00:30:400,0.463,-0.54,0.698,-1843.812,51.696,205.383,
00:00:30:417,0.45,-0.345,0.644,-1967.469,75.744,214.721,
00:00:30:433,0.491,-0.708,0.794,-2000,2.624,141.174,
00:00:30:450,0.523,-0.771,0.923,-2000,-75.44,333.435,
00:00:30:467,0.479,-0.502,0.898,-2000,-159.974,324.524,
00:00:30:483,0.463,0.131,0.68,-2000,-203.736,325.744,
00:00:30:500,0.418,0.34,0.735,-2000,-237.793,147.644,
00:00:30:517,0.32,0.599,0.638,-2000,-165.833,161.071,
00:00:30:533,0.309,-0.144,0.648,-1558.533,-2.442,-260.315,
00:00:30:550,0.461,0.571,0.398,-1206.421,159.546,-14.283,
00:00:30:567,0.499,0.957,0.551,-486.451,161.56,-131.592,
00:00:30:583,0.559,0.722,0.883,220.153,170.41,-203.736,
00:00:30:600,0.614,0.585,0.989,650.94,180.908,-175.599,
00:00:30:617,0.633,0.462,1.082,835.815,121.826,-148.804,
00:00:30:633,0.645,0.374,1.065,1053.65,67.382,-117.249,
00:00:30:650,0.666,0.339,0.946,1410.461,1.159,-53.711,
00:00:30:667,0.683,0.266,0.853,1882.568,-58.289,-21.058,
00:00:30:683,0.631,0.215,0.81,1999.694,-63.599,26.733,
00:00:30:700,0.421,-0.335,0.527,1999.694,83.252,-335.022,
00:00:30:717,0.401,-0.712,0.431,1999.694,136.474,-418.152,
00:00:30:733,0.462,-1.212,0.589,1999.694,-79.041,-505.982,
00:00:30:750,0.371,-1.379,0.93,1999.694,-227.112,-336.06,
00:00:30:767,0.324,-0.982,0.934,1374.817,-205.262,-14.283,
00:00:30:783,0.104,-0.492,0.196,1194.213,107.971,-86.182,
00:00:30:800,0.158,-0.905,0.161,1070.434,172.79,-184.51,
00:00:30:817,0.305,-0.809,0.227,771.789,109.863,-74.891,
00:00:30:833,0.31,-0.635,0.292,697.754,104.37,44.189,
00:00:30:850,0.408,-0.928,0.392,547.668,112.976,-44.373,
00:00:30:867,0.423,-0.911,0.391,225.586,49.743,14.526,
00:00:30:883,0.439,-0.701,0.307,16.418,-19.654,39.367,
00:00:30:900,0.407,-0.668,0.208,-32.227,0.549,51.269,
00:00:30:917,0.381,-0.941,0.265,-54.139,70.19,0.671,
00:00:30:933,0.502,-0.729,0.308,-162.415,35.583,11.718,
00:00:30:950,0.227,-1.25,0.526,-856.751,-145.081,-111.451,
00:00:30:967,0.388,-0.895,0.294,-919.922,-83.191,-106.568,
00:00:30:983,0.323,-1.037,-0.015,-1034.974,-72.083,-188.538,
00:00:31:0,0.335,-0.729,0.211,-1215.516,2.197,-44.678,
00:00:31:17,0.382,-0.562,0.51,-1163.575,49.682,-83.741,
00:00:31:33,0.324,-0.603,0.578,-1553.406,104.126,14.099,
00:00:31:50,0.39,-0.915,0.793,-1666.81,107.788,-111.084,
00:00:31:67,0.642,-0.813,0.923,-1859.192,153.259,-17.09,
00:00:31:83,0.759,-0.942,0.914,-2000,166.626,57.434,
00:00:31:100,0.59,-1.297,0.738,-2000,131.591,98.755,
00:00:31:117,0.435,-0.973,0.678,-2000,5.981,496.887,
00:00:31:133,0.375,-0.539,0.575,-2000,-105.225,415.161,
00:00:31:150,0.465,-0.005,0.263,-2000,-106.629,363.464,
00:00:31:167,0.484,-0.255,0.707,-2000,-305.848,31.494,
00:00:31:183,0.22,-0.242,-0.033,-2000,56.396,40.344,
00:00:31:200,0.662,0.447,0.026,-2000,297.546,-161.072,
00:00:31:217,0.733,1.652,0.25,-1851.197,174.804,150.512,
00:00:31:233,0.513,1.672,0.52,-476.258,153.381,-103.699,
00:00:31:250,0.577,0.31,1.092,741.15,103.698,-86.06,
00:00:31:267,0.572,0.365,1.072,776.428,21.85,-62.806,
00:00:31:283,0.568,0.468,1.032,986.938,-26.978,-61.097,
00:00:31:300,0.588,0.624,0.925,1288.025,-105.042,-47.364,
00:00:31:317,0.598,0.66,0.792,1759.826,-175.904,-48.279,
00:00:31:333,0.63,-0.054,0.839,1999.694,-172.486,-213.99,
00:00:31:350,0.624,-0.373,0.817,1999.694,-127.686,-227.784,
00:00:31:367,0.569,-0.673,0.796,1999.694,-125.794,-246.582,
00:00:31:383,0.461,-0.775,0.755,1999.694,-177.491,-208.313,
00:00:31:400,0.36,-0.736,0.759,1999.694,-207.581,-139.649,
00:00:31:417,0.297,-0.683,0.755,1996.215,-214.295,-128.846,
00:00:31:433,0.283,-0.629,0.756,1890.747,-205.75,-114.685,
00:00:31:450,0.301,-0.503,0.734,1631.713,-190.857,-33.875,
00:00:31:467,0.22,-0.466,0.595,1410.034,-138.001,-11.719,
00:00:31:483,0.1,-0.605,0.42,1227.478,-38.697,-11.292,
00:00:31:500,0.06,-0.692,0.289,992.492,34.179,-53.162,
00:00:31:517,0.203,-0.593,0.236,563.11,147.216,100.158,
00:00:31:533,0.236,-0.551,0.28,547.973,201.66,122.802,
00:00:31:550,0.273,-0.944,0.461,470.703,225.158,20.507,
00:00:31:567,0.488,-0.894,0.425,322.204,125.183,-23.621,
00:00:31:583,0.588,-0.801,0.367,207.336,76.232,-24.598,
00:00:31:600,0.427,-0.992,0.273,30.517,53.527,60.119,
00:00:31:617,0.401,-1.033,0.433,-162.293,25.451,24.963,
00:00:31:633,0.414,-0.757,0.509,-426.941,-0.489,60.791,
00:00:31:650,0.274,-0.913,0.598,-928.345,-100.831,43.823,
00:00:31:667,0.302,-0.817,0.408,-899.903,-78.614,-39.49,
00:00:31:683,0.336,-0.869,0.174,-1034.302,-58.777,-17.212,
00:00:31:700,0.347,-0.904,0.315,-1035.035,-3.785,-49.195,
00:00:31:717,0.402,-0.742,0.573,-948.06,55.542,-93.384,
00:00:31:733,0.411,-0.88,0.661,-1400.147,106.445,-31.739,
00:00:31:750,0.49,-1.332,0.574,-2000,268.432,58.471,
00:00:31:767,0.528,-1.284,0.384,-2000,196.899,148.62,
00:00:31:783,0.542,-0.91,0.417,-2000,-10.804,331.054,
00:00:31:800,0.553,-0.444,0.687,-2000,-244.446,269.287,
00:00:31:817,0.419,-0.051,0.662,-2000,-233.338,111.511,
00:00:31:833,0.415,-0.312,0.559,-2000,-144.104,-289.124,
00:00:31:850,0.353,0.482,-0.033,-2000,182.434,202.209,
00:00:31:867,0.643,1.019,0.114,-1959.107,335.693,-53.284,
00:00:31:883,0.678,1.619,0.181,-715.577,234.497,114.685,
00:00:31:900,0.496,1.276,0.502,167.48,-8.24,-304.81,
00:00:31:917,0.608,0.551,1.09,1070.068,107.849,-45.777,
00:00:31:933,0.627,0.505,1.03,1269.836,9.643,-43.519,
00:00:31:950,0.612,0.456,0.927,1521.24,-54.2,-20.935,
00:00:31:967,0.598,0.417,0.753,1785.4,-72.083,8.728,
00:00:31:983,0.596,0.329,0.658,1999.694,-119.996,-27.832,
00:00:32:0,0.572,0.2,0.618,1999.694,-163.392,-58.96,
00:00:32:17,0.618,-0.006,0.625,1999.694,-149.903,-120.606,
00:00:32:33,0.561,-0.315,0.588,1999.694,-90.699,-112.854,
00:00:32:50,0.497,-0.779,0.591,1999.694,-25.025,-206.421,
00:00:32:67,0.426,-1.213,0.593,1999.694,-108.521,-318.848,
00:00:32:83,0.416,-1.26,0.878,1999.694,-303.284,-245.423,
00:00:32:100,0.35,-0.914,0.899,1640.38,-294.19,-51.819,
00:00:32:117,0.293,-0.636,0.715,1370.361,-219.178,65.612,
00:00:32:133,0.21,-0.582,0.598,1245.605,-148.743,84.472,
00:00:32:150,0.189,-0.452,0.55,1148.193,-74.646,66.101,
00:00:32:167,0.187,-0.368,0.367,1076.11,11.413,12.573,
00:00:32:183,0.146,-0.499,0.229,1021.179,97.778,-38.269,
00:00:32:200,0.084,-0.765,0.131,886.718,198.913,-50.782,
00:00:32:217,0.049,-1.073,0.1,637.451,275.085,-104.371,
00:00:32:233,0.423,-0.6,0.549,330.017,106.506,-85.389,
00:00:32:250,0.477,-0.732,0.519,291.87,92.834,-117.249,
00:00:32:267,0.472,-0.864,0.522,-16.663,26.916,-53.04,
00:00:32:283,0.419,-0.899,0.475,-328.003,-16.297,14.099,
00:00:32:300,0.382,-0.868,0.469,-485.047,-43.213,15.014,
00:00:32:317,0.315,-0.991,0.471,-670.716,-32.349,-23.621,
00:00:32:333,0.219,-0.778,0.35,-1097.84,3.051,69.397,
00:00:32:350,0.304,-0.954,0.482,-880.127,-93.079,-135.743,
00:00:32:367,0.429,-0.375,0.316,-701.294,-27.588,115.905,
00:00:32:383,0.279,-0.656,0.521,-194.519,-66.651,-96.741,
00:00:32:400,0.263,-0.82,0.652,-483.643,27.099,18.859,
00:00:32:417,0.346,-0.584,0.896,-1098.572,41.015,46.325,
00:00:32:433,0.365,-0.873,0.971,-1718.934,38.574,-86.365,
00:00:32:450,0.488,-1.151,0.947,-1999.573,125.732,-98.084,
00:00:32:467,0.581,-1.081,0.919,-2000,207.092,96.923,
00:00:32:483,0.658,-1.264,0.805,-2000,155.578,166.87,
00:00:32:500,0.596,-0.916,0.573,-2000,54.504,508.3,
00:00:32:517,0.545,-0.594,0.619,-2000,-194.153,375.976,
00:00:32:533,0.406,0.194,0.29,-2000,-150.086,401.672,
00:00:32:550,0.394,-0.521,0.723,-2000,-227.234,-534.79,
00:00:32:567,0.59,-0.166,0.228,-2000,182.678,-244.996,
00:00:32:583,0.691,1.177,-0.373,-2000,599.792,281.25,
00:00:32:600,0.867,1.815,0.073,-1116.333,163.696,-142.09,
00:00:32:617,0.519,1.064,0.675,-69.886,-33.57,-364.258,
00:00:32:633,0.645,0.677,1.097,652.282,-11.17,-41.26,
00:00:32:650,0.585,0.646,1.01,921.325,-109.192,-7.691,
00:00:32:667,0.609,0.746,0.875,1271.728,-157.166,63.232,
00:00:32:683,0.623,0.798,0.754,1796.447,-232.911,90.087,
00:00:32:700,0.577,0.619,0.704,1999.694,-294.007,-10.315,
00:00:32:717,0.557,0.261,0.757,1999.694,-276.673,-108.765,
00:00:32:733,0.523,0.012,0.76,1999.694,-184.754,-135.621,
00:00:32:750,0.522,-0.191,0.773,1999.694,-106.263,-138.794,
00:00:32:767,0.506,-0.345,0.82,1999.694,-77.21,-141.358,
00:00:32:783,0.494,-0.483,0.864,1999.694,-89.417,-146.973,
00:00:32:800,0.425,-0.554,0.815,1999.694,-181.58,-111.512,
00:00:32:817,0.123,-0.53,0.771,1999.694,-206.177,-27.955,
00:00:32:833,0.079,-0.534,0.683,1890.014,-67.383,13.305,
00:00:32:850,0.192,-0.366,0.499,1622.253,14.526,56.945,
00:00:32:867,0.197,-0.517,0.463,1474.914,59.265,-60.914,
00:00:32:883,0.146,-0.808,0.379,1406.616,117.92,-132.935,
00:00:32:900,0.184,-1.03,0.374,1098.51,183.166,-116.211,
00:00:32:917,0.339,-0.863,0.341,652.465,129.943,25.268,
00:00:32:933,0.214,-0.827,0.474,327.27,80.688,-161.438,
00:00:32:950,0.377,-0.774,0.541,303.588,14.343,-156.861,
00:00:32:967,0.488,-0.54,0.465,226.379,59.143,-41.81,
00:00:32:983,0.366,-0.754,0.406,-155.64,1.953,-12.513,
00:00:33:0,0.238,-0.832,0.478,-608.887,32.653,64.636,
00:00:33:17,0.216,-1.203,0.59,-1085.389,-18.799,-11.719,
00:00:33:33,0.29,-0.572,0.516,-1224.61,33.386,116.76,
00:00:33:50,0.205,-0.64,0.467,-1171.082,-42.359,7.263,
00:00:33:67,0.261,-0.777,0.453,-934.937,32.287,-59.571,
00:00:33:83,0.432,-0.799,0.493,-1015.809,186.34,-1.282,
00:00:33:100,0.557,-1.034,0.726,-1546.937,254.821,17.089,
00:00:33:117,0.653,-1.125,0.866,-2000,214.416,85.571,
00:00:33:133,0.525,-1.052,0.918,-2000,95.398,152.343,
00:00:33:150,0.391,-0.9,0.716,-2000,70.495,294.189,
00:00:33:167,0.364,-0.392,0.484,-2000,85.693,385.009,
00:00:33:183,0.53,-0.115,0.492,-2000,-23.499,215.088,
00:00:33:200,0.604,0.068,0.805,-2000,-233.582,56.396,
00:00:33:217,0.323,0.356,0.75,-2000,-231.873,171.508,
00:00:33:233,0.169,0.249,0.439,-2000,9.948,-191.529,
00:00:33:250,0.305,0.681,0.215,-2000,159.668,-24.109,
00:00:33:267,0.596,0.996,0.265,-1215.332,331.665,80.444,
00:00:33:283,0.648,1.603,0.515,-215.516,86.975,31.494,
00:00:33:300,0.515,1.005,0.885,681.823,54.626,-188.599,
00:00:33:317,0.522,0.528,1.018,1044.983,129.577,-146.241,
00:00:33:334,0.66,0.43,1.031,1121.032,100.341,-70.801,
00:00:33:350,0.645,0.51,1.031,1289.001,-10.315,-27.832,
00:00:33:367,0.599,0.451,1.007,1624.45,-100.708,-32.837,
00:00:33:384,0.597,0.313,0.877,1958.557,-109.925,-26.856,
00:00:33:400,0.68,0.136,0.893,1999.694,-137.085,-80.201,
00:00:33:417,0.665,0.036,0.914,1999.694,-180.298,-81.849,
00:00:33:434,0.59,-0.014,0.947,1999.694,-209.473,-93.628,
00:00:33:450,0.512,-0.224,0.941,1999.694,-183.655,-155.762,
00:00:33:467,0.458,-0.555,0.87,1999.694,-153.931,-211.914,
00:00:33:484,0.434,-0.617,0.829,1999.694,-232.911,-162.842,
00:00:33:500,0.393,-0.586,0.953,1814.087,-374.695,-109.436,
00:00:33:517,0.242,-0.493,0.929,1456.359,-383.301,-27.344,
00:00:33:534,0.122,-0.32,0.697,1397.094,-298.706,41.503,
00:00:33:550,0.069,-0.382,0.535,1423.339,-155.213,-49.927,
00:00:33:567,0.071,-0.597,0.398,1388,-21.119,-181.946,
00:00:33:584,0.122,-0.685,0.251,1299.133,50.17,-189.881,
00:00:33:600,0.158,-0.728,0.224,1207.763,78.979,-101.807,
00:00:33:617,0.165,-0.726,0.264,1085.327,130.92,-53.772,
00:00:33:634,0.2,-0.781,0.33,898.803,149.597,-104.92,
00:00:33:650,0.314,-0.809,0.574,646.362,132.934,-69.031,
00:00:33:667,0.412,-0.651,0.691,427.246,19.531,3.051,
00:00:33:684,0.351,-0.572,0.528,418.762,-27.1,74.707,
00:00:33:700,0.252,-0.686,0.341,442.871,12.756,64.392,
00:00:33:717,0.235,-0.877,0.312,301.269,75.012,81.176,
00:00:33:734,0.287,-0.887,0.32,130.005,72.998,16.601,
00:00:33:750,0.36,-0.875,0.451,54.382,54.931,-15.992,
00:00:33:767,0.343,-1.045,0.624,-164.612,37.841,-46.753,
00:00:33:784,0.257,-0.781,0.503,-594.727,-23.133,100.708,
00:00:33:800,0.134,-1.094,0.575,-746.582,-116.822,-44.922,
00:00:33:817,0.272,-0.615,0.37,-624.878,-17.09,16.296,
00:00:33:834,0.312,-0.892,0.338,-433.777,-49.073,-116.272,
00:00:33:850,0.295,-0.825,0.424,-600.037,26.672,49.255,
00:00:33:867,0.224,-0.803,0.434,-874.207,86.181,24.169,
00:00:33:884,0.133,-1.074,0.398,-1504.273,149.841,-52.918,
00:00:33:900,0.262,-1.256,0.457,-1453.98,253.601,-219.178,
00:00:33:917,0.57,-1.183,0.5,-1720.704,380.066,-160.95,
00:00:33:934,0.662,-0.732,0.576,-2000,281.067,104.431,
00:00:33:950,0.609,-0.418,0.84,-2000,8.85,53.466,
00:00:33:967,0.467,-0.352,1.057,-2000,-149.048,4.211,
00:00:33:984,0.354,-0.052,0.937,-2000,-108.582,223.51,
00:00:34:0,0.257,-0.499,0.745,-1972.413,-89.783,-181.153,
00:00:34:17,0.198,-0.542,0.45,-1952.393,15.319,11.047,
00:00:34:34,0.367,-0.267,0.546,-1947.571,129.943,42.907,
00:00:34:50,0.446,0.07,0.548,-2000,118.225,136.474,
00:00:34:67,0.412,-0.021,0.508,-2000,57.983,-12.452,
00:00:34:84,0.506,-0.386,0.782,-1937.5,-21.729,-390.87,
00:00:34:100,0.469,0.223,0.66,-2000,254.577,241.088,
00:00:34:117,0.589,0.901,0.748,-1994.324,165.222,124.267,
00:00:34:134,0.559,1.372,0.692,-1369.019,147.827,329.162,
00:00:34:150,0.579,1.295,1.029,-104.31,-5.799,-79.712,
00:00:34:167,0.503,0.739,1.045,733.703,99.792,-103.638,
00:00:34:184,0.575,0.376,1.056,976.135,146.057,-68.543,
00:00:34:200,0.676,0.325,0.985,1047.119,103.088,19.897,
00:00:34:217,0.671,0.46,0.944,1353.698,-2.442,73.059,
00:00:34:234,0.607,0.039,0.821,1999.694,-91.126,-9.278,
00:00:34:250,0.5,-0.221,0.736,1999.694,-112.244,-77.454,
00:00:34:267,0.418,-0.529,0.669,1999.694,-135.621,-135.01,
00:00:34:284,0.328,-0.874,0.638,1999.694,-156.678,-202.698,
00:00:34:300,0.275,-1.09,0.683,1999.694,-253.785,-237.671,
00:00:34:317,0.111,-0.701,0.644,886.657,-104.615,58.96,canRH
00:00:34:334,0.128,-0.573,0.476,835.51,-30.64,38.94,
00:00:34:350,0.111,-0.509,0.257,953.064,65.124,1.159,
00:00:34:367,0.096,-0.66,0.169,1082.092,190.368,-75.074,
00:00:34:384,0.15,-0.778,0.116,975.952,265.747,-108.582,
00:00:34:400,0.238,-0.882,0.18,756.897,282.959,-96.253,
00:00:34:417,0.379,-0.699,0.509,388.244,177.673,1.22,
00:00:34:434,0.452,-0.544,0.971,354.98,76.843,23.925,
00:00:34:450,0.425,-0.731,0.754,321.289,46.752,8.789,
00:00:34:467,0.333,-0.96,0.529,154.846,-16.297,54.626,
00:00:34:484,0.291,-0.832,0.302,57.067,-62.623,57.067,
00:00:34:500,0.332,-1.036,0.221,105.285,18.066,-52.735,
00:00:34:517,0.385,-0.916,0.175,98.999,25.756,-28.87,
00:00:34:534,0.321,-0.958,0.392,-5.188,31.311,-12.879,
00:00:34:550,0.259,-0.783,0.529,-226.258,15.136,62.133,
00:00:34:567,0.185,-0.845,0.609,-345.398,-61.829,-11.658,
00:00:34:584,0.36,-0.641,0.462,84.167,-4.09,-7.386,
00:00:34:600,0.339,-0.858,0.281,-49.5,-3.724,48.584,
00:00:34:617,0.386,-0.989,0.347,112.182,10.498,-41.016,
00:00:34:634,0.465,-0.719,0.275,-3.479,84.106,91.674,
00:00:34:650,0.287,-1.109,0.601,-382.081,9.46,57.922,
00:00:34:667,0.346,-0.979,0.547,-359.375,35.583,19.714,
00:00:34:684,0.361,-1.104,0.488,-658.387,-6.287,-24.17,
00:00:34:700,0.42,-0.871,0.196,-632.935,78.796,-58.228,
00:00:34:717,0.439,-0.937,0.239,-909.668,83.007,-135.865,
00:00:34:734,0.472,-0.696,0.31,-933.35,150.879,-7.203,
00:00:34:750,0.366,-0.677,0.542,-1320.862,95.275,32.531,
00:00:34:767,0.315,-0.792,0.636,-1276.185,101.135,-104.432,
00:00:34:784,0.299,-0.521,0.483,-1545.716,218.811,146.728,
00:00:34:800,0.325,-0.816,0.528,-1613.343,193.481,-95.581,
00:00:34:817,0.414,-0.695,0.547,-1994.507,243.774,141.723,
00:00:34:834,0.425,-0.757,0.53,-2000,199.951,-24.781,
00:00:34:850,0.443,-0.927,0.763,-2000,116.15,7.263,
00:00:34:867,0.543,-0.699,0.963,-2000,-26.123,166.198,
00:00:34:884,0.41,-0.329,0.606,-2000,52.856,205.261,
00:00:34:900,0.409,0.176,0.073,-2000,137.756,368.225,
00:00:34:917,0.644,0.687,0.616,-2000,-134.034,202.819,
00:00:34:934,0.566,1.08,0.752,-1991.944,-116.089,118.53,
00:00:34:950,0.441,1.073,0.824,-898.377,54.809,-64.087,
00:00:34:967,0.575,0.399,1.093,-141.297,109.069,-271.912,
00:00:34:984,0.68,0.502,1.024,19.897,143.982,55.664,
00:00:35:0,0.735,0.694,1.092,348.144,18.432,1.77,
00:00:35:17,0.651,0.658,1,923.584,-75.806,12.878,
00:00:35:34,0.589,0.601,0.866,1475.341,-124.39,36.193,
00:00:35:50,0.57,0.447,0.817,1969.055,-151.734,7.873,
00:00:35:67,0.566,0.187,0.784,1999.694,-156.067,-17.884,
00:00:35:84,0.644,0.009,0.815,1999.694,-165.039,-43.335,
00:00:35:100,0.619,-0.219,0.741,1999.694,-189.82,-58.777,
00:00:35:117,0.554,-0.336,0.759,1999.694,-231.507,-27.466,
00:00:35:134,0.468,-0.666,0.741,1999.694,-201.539,-94.544,
00:00:35:150,0.412,-0.954,0.703,1999.694,-177.185,-128.785,
00:00:35:167,0.403,-1.249,0.652,1999.694,-215.21,-264.405,
00:00:35:184,0.38,-1.163,0.714,1361.633,-291.199,-156.495,
00:00:35:200,0.295,-0.915,0.739,774.902,-278.748,-49.134,
00:00:35:217,0.198,-0.66,0.685,453.247,-228.028,5.676,
00:00:35:234,0.191,-0.348,0.578,454.223,-164.978,121.765,
00:00:35:250,0.201,-0.126,0.427,743.042,-98.206,64.27,
00:00:35:267,0.152,-0.208,0.252,1112.976,39.856,-17.029,
00:00:35:284,0.047,-0.734,0.124,1278.076,217.895,-155.335,
00:00:35:300,0.094,-1.163,0.238,828.064,234.253,-141.724,
00:00:35:317,0.213,-0.794,0.432,373.779,84.106,98.999,
00:00:35:334,0.197,-0.431,0.507,351.806,40.71,141.296,
00:00:35:350,0.192,-0.632,0.49,525.39,148.681,1.892,
00:00:35:367,0.293,-0.876,0.348,456.421,148.193,-59.693,
00:00:35:384,0.323,-0.968,0.227,261.718,87.158,-69.458,
00:00:35:400,0.305,-1.021,0.202,185.485,96.496,-95.398,
00:00:35:417,0.358,-1.061,0.33,63.659,137.146,-113.404,
00:00:35:434,0.405,-1.047,0.379,-53.406,123.169,-119.507,
00:00:35:450,0.467,-0.895,0.52,-76.905,83.129,-128.235,
00:00:35:467,0.499,-0.879,0.564,-75.379,72.937,-137.635,
00:00:35:484,0.536,-0.911,0.646,-103.638,19.348,-97.657,
00:00:35:500,0.54,-0.761,0.574,-84.534,-52.552,-27.71,
00:00:35:517,0.469,-0.571,0.331,34.057,-82.215,47.546,
00:00:35:534,0.345,-0.66,0.279,197.754,-3.174,59.753,
00:00:35:550,0.301,-1.131,0.441,115.783,92.651,-2.015,
00:00:35:567,0.38,-1.001,0.462,-162.476,1.953,61.157,
00:00:35:584,0.25,-0.765,0.383,-145.508,-44.678,34.545,
00:00:35:600,0.151,-0.773,0.555,-145.386,-48.096,10.07,
00:00:35:617,0.288,-0.602,0.466,-15.32,-83.68,-41.199,
00:00:35:634,0.198,-0.713,0.306,-127.991,-31.922,-20.935,
00:00:35:650,0.094,-0.655,0.119,-395.813,-16.297,3.662,
00:00:35:667,-0.028,-1.035,0.283,-559.693,-8.362,-108.887,
00:00:35:684,0.113,-1.003,0.201,-606.263,71.838,-49.256,
00:00:35:700,0.275,-1.01,0.228,-683.472,148.864,-112.671,
00:00:35:717,0.365,-0.794,0.237,-959.9,262.695,-49.012,
00:00:35:734,0.46,-1.086,0.474,-1647.889,370.178,-93.445,
