TIMECODE,ACC_X,ACC_Y,ACC_Z,GYR_X,GYR_Y,GYR_Z,ECG_I,ECG_II,ECG_III,TAG
,-0.068,0.429,0.907,-17.456,13.61,-23.316,0,0,0,
,-0.071,0.428,0.914,-12.635,12.023,-23.804,0,0,0,
,-0.074,0.436,0.905,-7.264,17.639,-28.321,0,0,0,
,-0.07,0.439,0.907,3.601,22.949,-34.913,0,0,0,
,-0.073,0.44,0.913,15.991,27.587,-38.636,0,0,0,
,-0.07,0.423,0.91,21.301,34.79,-43.763,0,0,0,
,-0.059,0.418,0.911,17.883,42.175,-41.748,0,0,0,
,-0.053,0.414,0.911,9.765,33.264,-42.237,0,0,0,
,-0.053,0.414,0.908,8.483,25.085,-37.171,0,0,0,
,-0.056,0.416,0.909,6.469,21.972,-35.584,0,0,0,
,-0.062,0.417,0.904,10.376,17.028,-34.058,0,0,0,
,-0.069,0.464,0.899,42.541,6.408,-38.575,0,0,0,
,-0.063,0.487,0.91,112.854,-8.301,-54.932,0,0,0,
,-0.063,0.478,0.909,180.847,-7.203,-48.401,0,0,0,
,-0.094,0.406,0.902,160.766,-29.297,-105.591,0,0,0,
,-0.023,0.171,0.98,-46.448,-44.19,-105.042,0,0,0,
,0.053,0.162,1.053,-36.316,-121.827,-135.376,0,0,0,
,-0.071,0.23,0.972,-148.316,-198.609,-118.287,0,0,0,
,-0.127,0.403,0.899,-164.734,-218.14,-180.176,0,0,0,
,-0.165,0.321,0.991,-176.026,-207.337,-250.489,0,0,0,
,-0.143,0.367,0.799,-123.291,-139.039,-221.68,0,0,0,
,-0.256,0.411,1.022,15.014,-126.709,-249.451,0,0,0,
,-0.158,0.426,0.993,52.002,-64.515,-269.043,0,0,0,
,-0.095,0.348,0.957,107.299,4.882,-197.449,0,0,0,
,-0.09,0.495,0.91,75.683,46.264,-114.441,0,0,0,
,-0.055,0.589,0.87,54.199,82.153,-92.53,0,0,0,
,-0.057,0.518,0.873,160.583,137.634,-61.158,0,0,0,
,-0.029,0.35,0.918,158.264,138.855,-76.6,0,0,0,
,0.005,0.361,0.902,80.322,98.877,-53.894,0,0,0,
,-0.002,0.397,0.898,-25.818,75.805,-37.415,0,0,0,
,-0.015,0.424,0.894,-57.068,58.776,-26.429,0,0,0,
,-0.01,0.46,0.877,-57.618,10.009,-28.138,0,0,0,
,-0.066,0.347,0.918,74.768,1.22,-49.866,0,0,0,
,-0.037,0.315,0.952,50.354,-17.334,-86.731,0,0,0,
,-0.035,0.371,0.904,-51.27,-26.978,-86.487,0,0,0,
,-0.017,0.412,0.912,-122.742,-55.237,-91.614,0,0,0,
,-0.024,0.446,0.896,-117.798,-59.082,-74.952,0,0,0,
,-0.058,0.359,0.937,-39.551,-30.152,-89.661,0,0,0,
,-0.052,0.355,0.947,-87.525,-36.499,-79.651,0,0,0,
,-0.061,0.393,0.942,-120.423,-38.453,-68.665,0,0,0,
,-0.073,0.373,0.928,-77.881,-8.179,-79.59,0,0,0,
,-0.062,0.412,0.92,-53.65,-9.583,-68.97,0,0,0,
,-0.045,0.459,0.936,25.024,-3.663,-87.281,0,0,0,
,-0.05,0.412,0.918,92.407,3.601,-105.164,0,0,0,
,-0.039,0.353,0.946,75.805,-9.522,-113.404,0,0,0,
,-0.059,0.379,0.941,-1.648,-26.123,-103.394,0,0,0,
,-0.061,0.433,0.906,-54.139,-13.062,-98.206,0,0,0,
,-0.06,0.466,0.892,-80.018,1.831,-79.529,0,0,0,
,-0.051,0.479,0.886,-91.492,18.493,-67.872,0,0,0,
,-0.046,0.509,0.884,-75.928,25.695,-32.959,0,0,0,
,-0.046,0.576,0.854,-36.377,34.179,-5.799,0,0,0,
,-0.073,0.511,0.87,115.966,64.27,-13.001,0,0,0,
,-0.071,0.398,0.887,176.391,85.205,-18.006,0,0,0,
,-0.034,0.353,0.921,134.399,55.603,-34.119,0,0,0,
,-0.045,0.362,0.9,66.65,31.799,-42.176,0,0,0,
,-0.032,0.386,0.908,18.432,6.713,-49.012,0,0,0,
,-0.027,0.362,0.926,32.714,1.77,-69.397,0,0,0,
,-0.036,0.337,0.946,33.264,-24.659,-98.389,0,0,0,
,-0.027,0.366,0.944,-20.142,-51.575,-97.657,0,0,0,
,-0.048,0.326,0.955,-15.442,-47.73,-111.573,0,0,0,
,-0.038,0.315,0.957,-61.585,-53.65,-117.31,0,0,0,
,-0.051,0.372,0.951,-109.253,-67.2,-101.502,0,0,0,
,-0.086,0.434,0.945,-87.464,-64.637,-95.52,0,0,0,
,-0.099,0.408,0.951,-28.016,-42.481,-109.742,0,0,0,
,-0.078,0.352,0.955,-1.648,-27.588,-132.447,0,0,0,
,-0.062,0.325,0.938,-36.072,-32.593,-137.33,0,0,0,
,-0.066,0.373,0.944,-76.722,-46.692,-135.682,0,0,0,
,-0.086,0.404,0.929,-47.791,-36.255,-117.798,0,0,0,
,-0.076,0.376,0.921,-5.555,-15.931,-110.718,0,0,0,
,-0.078,0.389,0.914,29.235,-10.01,-100.037,0,0,0,
,-0.077,0.393,0.924,45.349,1.098,-98.023,0,0,0,
,-0.056,0.411,0.923,34.729,3.967,-96.924,0,0,0,
,-0.062,0.425,0.923,30.212,9.46,-88.746,0,0,0,
,-0.044,0.396,0.923,42.053,11.535,-98.389,0,0,0,
,-0.067,0.394,0.917,32.165,4.577,-76.539,0,0,0,
,-0.06,0.392,0.917,44.677,12.939,-83.069,0,0,0,
,-0.045,0.379,0.916,49.194,10.681,-101.624,0,0,0,
,-0.094,0.382,0.921,37.597,11.047,-94.849,0,0,0,
,-0.005,0.436,0.929,40.1,15.197,-79.59,0,0,0,
,-0.03,0.425,0.92,19.531,12.451,-72.022,0,0,0,
,-0.008,0.355,0.926,14.77,14.16,-80.201,0,0,0,
,0.035,0.388,0.91,-22.95,-2.747,-69.336,0,0,0,
,0.011,0.384,0.923,-15.137,7.568,-52.063,0,0,0,
,0.042,0.369,0.887,-5.738,13.916,-36.805,0,0,0,
,0.02,0.339,0.903,4.821,17.334,-19.288,0,0,0,
,0.009,0.332,0.896,-7.203,29.174,-5.982,0,0,0,
,0.053,0.313,0.876,-40.467,28.381,3.784,0,0,0,
,0.139,0.456,0.958,4.089,-42.969,36.804,0,0,0,
,0.096,0.524,0.986,147.155,-95.276,73.852,0,0,0,
,0.011,0.359,0.938,266.357,-91.431,125.976,0,0,0,
,0.058,0.503,0.922,154.297,-101.502,262.207,0,0,0,
,-0.019,0.483,0.925,177.551,-57.74,266.418,0,0,0,
,-0.048,0.451,0.903,227.966,-7.264,303.1,0,0,0,
,-0.067,0.424,0.933,194.152,19.287,319.641,0,0,0,
,-0.153,0.379,0.919,130.981,26.733,312.317,0,0,0,
,-0.128,0.269,0.995,-23.621,27.526,309.57,0,0,0,
,-0.236,0.158,0.934,-186.219,33.325,286.926,0,0,0,
,-0.327,0.091,0.838,-389.039,74.279,236.023,0,0,0,
,-0.201,0.201,1.252,-364.991,13.122,158.874,0,0,0,
,-0.16,0.502,0.956,-96.375,65.124,140.442,0,0,0,
,-0.193,0.539,1.003,31.86,59.204,72.021,0,0,0,
,-0.249,0.085,0.838,-129.517,232.177,9.155,0,0,0,
,-0.085,0.103,1.032,-199.036,193.054,-64.759,0,0,0,
,0.002,0.224,0.906,-196.106,94.055,-145.325,0,0,0,
,-0.067,0.354,0.996,-149.781,49.133,-110.352,0,0,0,
,-0.049,0.447,0.914,-148.499,53.894,-48.645,0,0,0,
,-0.035,0.377,0.899,-77.759,54.687,-65.918,0,0,0,
,-0.017,0.393,0.937,-41.138,65.612,-14.954,0,0,0,
,-0.003,0.377,0.9,-48.584,44.067,-10.987,0,0,0,
,-0.029,0.372,0.923,-69.947,1.464,15.136,0,0,0,
,-0.06,0.37,0.942,-73.426,-15.32,29.724,0,0,0,
,-0.068,0.36,0.906,-78.614,-19.898,28.137,0,0,0,
,-0.073,0.366,0.941,-82.52,-28.565,22.094,0,0,0,
,-0.086,0.399,0.924,-77.82,-39.246,12.817,0,0,0,
,-0.096,0.434,0.908,-53.162,-44.129,-4.456,0,0,0,
,-0.1,0.45,0.92,-23.865,-33.143,-38.147,0,0,0,
,-0.096,0.427,0.916,2.868,-8.606,-41.382,0,0,0,
,-0.078,0.373,0.932,-0.489,14.404,-47.547,0,0,0,
,-0.071,0.366,0.938,-11.292,13.549,-41.626,0,0,0,
,-0.072,0.378,0.923,-24.048,11.108,-37.354,0,0,0,
,-0.073,0.401,0.921,-25.818,4.821,-33.753,0,0,0,
,-0.073,0.397,0.928,-22.706,-0.306,-33.387,0,0,0,
,-0.076,0.382,0.929,-28.443,-2.076,-30.884,0,0,0,
,-0.081,0.39,0.917,-31.617,2.807,-21.607,0,0,0,
,-0.085,0.416,0.92,-26.795,0.915,-26.917,0,0,0,
,-0.087,0.408,0.922,-11.475,7.629,-34.729,0,0,0,
,-0.084,0.395,0.926,-3.418,16.54,-37.11,0,0,0,
,-0.08,0.384,0.928,-1.954,21.118,-40.711,0,0,0,
,-0.078,0.378,0.926,-6.409,23.254,-40.467,0,0,0,
,-0.076,0.382,0.925,-14.649,25.329,-37.903,0,0,0,
,-0.074,0.39,0.922,-19.898,19.409,-35.706,0,0,0,
,-0.073,0.394,0.924,-24.476,18.981,-31.189,0,0,0,
,-0.075,0.402,0.918,-19.104,15.686,-32.349,0,0,0,
,-0.073,0.403,0.917,-10.926,15.014,-30.762,0,0,0,
,-0.074,0.393,0.925,-3.479,14.587,-31.983,0,0,0,
,-0.07,0.383,0.926,-5.616,15.258,-32.959,0,0,0,
,-0.072,0.377,0.925,-13.428,12.329,-31.434,0,0,0,
,-0.079,0.381,0.926,-21.607,10.986,-30.518,0,0,0,
,-0.076,0.389,0.921,-27.161,15.869,-27.955,0,0,0,
,-0.076,0.402,0.919,-19.227,10.498,-30.884,0,0,0,
,-0.073,0.413,0.915,-7.874,7.995,-28.992,0,0,0,
,-0.076,0.402,0.902,-6.104,5.065,-40.284,0,0,0,
,-0.058,0.387,0.931,-5.555,7.568,-48.829,0,0,0,
,-0.059,0.378,0.932,-20.813,-14.954,-32.471,0,0,0,
,-0.063,0.361,0.934,-44.983,-12.207,-16.297,0,0,0,
,-0.094,0.403,0.944,-24.476,-12.757,-22.217,0,0,0,
,-0.094,0.388,0.91,-0.245,2.197,-27.466,0,0,0,
,-0.093,0.397,0.93,73.608,-4.334,-87.891,0,0,0,
,-0.07,0.324,0.96,52.734,7.08,-76.477,0,0,0,
,-0.088,0.378,0.941,5.432,26.672,0.671,0,0,0,
,-0.069,0.529,0.898,26.733,35.217,5.859,0,0,0,
,-0.089,0.507,0.933,101.379,43.335,-0.306,0,0,0,
,-0.095,0.333,0.922,118.103,93.627,0.366,0,0,0,
,-0.043,0.296,0.952,90.21,67.382,8.789,0,0,0,
,-0.05,0.32,0.936,56.274,32.226,-2.869,0,0,0,
,-0.075,0.358,0.923,27.954,16.601,-5.31,0,0,0,
,-0.094,0.349,0.924,-10.132,-1.038,-28.138,0,0,0,
,-0.053,0.376,0.93,16.235,21.85,-18.372,0,0,0,
,-0.05,0.34,0.936,-0.061,-9.766,-18.494,0,0,0,
,-0.065,0.352,0.938,-11.475,-25.452,-27.1,0,0,0,
,-0.072,0.367,0.946,0.244,-12.207,-27.405,0,0,0,
,-0.077,0.366,0.938,5.127,-3.602,-26.49,0,0,0,
,-0.08,0.355,0.943,5.127,5.432,-28.992,0,0,0,
,-0.073,0.354,0.944,8.544,17.211,-23.682,0,0,0,
,-0.066,0.357,0.945,10.131,17.273,-23.926,0,0,0,
,-0.08,0.355,0.94,10.253,20.629,-21.912,0,0,0,
,-0.065,0.337,0.949,9.887,31.127,-27.832,0,0,0,
,-0.069,0.378,0.939,19.348,28.686,-14.771,0,0,0,
,-0.069,0.354,0.947,9.338,8.178,-14.71,0,0,0,
,-0.047,0.326,0.947,3.601,14.404,-29.297,0,0,0,
,-0.048,0.329,0.95,5.92,14.221,-30.701,0,0,0,
,-0.057,0.315,0.948,5.981,27.587,-23.377,0,0,0,
,-0.049,0.303,0.942,-18.738,19.165,-30.213,0,0,0,
,-0.052,0.323,0.938,-46.998,9.521,-33.997,0,0,0,
,-0.052,0.345,0.935,-51.392,4.577,-36.866,0,0,0,
,-0.055,0.365,0.939,-45.838,-7.325,-32.776,0,0,0,
,-0.07,0.367,0.938,-35.828,-9.766,-36.56,0,0,0,
,-0.076,0.353,0.945,-28.687,-4.273,-34.302,0,0,0,
,-0.068,0.345,0.944,-31.983,2.258,-37.049,0,0,0,
,-0.071,0.34,0.938,-38.636,5.859,-36.194,0,0,0,
,-0.067,0.347,0.947,-49.378,-1.587,-34.546,0,0,0,
,-0.068,0.358,0.946,-44.983,-2.015,-32.837,0,0,0,
,-0.073,0.366,0.944,-39.246,-4.639,-32.898,0,0,0,
,-0.071,0.364,0.912,-36.011,2.99,-31.983,0,0,0,
,-0.074,0.361,0.935,-36.133,3.906,-30.396,0,0,0,
,-0.072,0.351,0.937,-42.42,9.46,-30.03,0,0,0,
,-0.067,0.362,0.945,-36.316,7.385,-29.847,0,0,0,
,-0.07,0.36,0.94,-32.532,7.568,-30.701,0,0,0,
,-0.069,0.362,0.943,-32.593,8.972,-27.527,0,0,0,
,-0.07,0.369,0.936,-27.222,6.225,-28.26,0,0,0,
,-0.068,0.369,0.931,-27.588,10.376,-30.03,0,0,0,
,-0.065,0.365,0.932,-29.419,6.897,-29.725,0,0,0,
,-0.068,0.361,0.94,-31.006,7.019,-29.053,0,0,0,
,-0.071,0.357,0.934,-36.56,8.544,-29.725,0,0,0,
,-0.073,0.361,0.935,-38.88,9.338,-31.678,0,0,0,
,-0.071,0.368,0.935,-37.354,11.779,-29.114,0,0,0,
,-0.067,0.371,0.933,-32.288,16.784,-29.725,0,0,0,
,-0.071,0.381,0.939,-27.161,5.798,-28.321,0,0,0,
,-0.076,0.379,0.937,-21.424,11.657,-28.626,0,0,0,
,-0.071,0.375,0.938,-12.33,19.104,-29.236,0,0,0,
,-0.07,0.38,0.935,-3.418,26.794,-26.978,0,0,0,
,-0.06,0.359,0.931,-2.442,23.925,-29.419,0,0,0,
,-0.057,0.351,0.938,-11.475,10.253,-28.87,0,0,0,
,-0.066,0.362,0.94,-14.588,2.136,-27.955,0,0,0,
,-0.081,0.345,0.966,-9.461,-1.587,-22.828,0,0,0,
,-0.104,0.372,1.005,13,9.582,-4.761,0,0,0,
,-0.167,0.357,1.041,88.989,41.259,59.082,0,0,0,
,-0.209,0.344,1.236,346.557,183.593,128.906,0,0,0,
,0.083,0.083,1.746,458.74,102.966,321.289,0,0,0,
,0.289,1.05,1.718,588.928,-356.934,491.577,0,0,0,
,0.665,1.844,2.455,1287.048,-653.321,611.755,0,0,0,
,0.641,0.752,3.062,1816.833,-788.269,549.499,0,0,0,
,0.505,0.158,3.093,828.308,-1717.774,653.625,0,0,0,
,0.45,0.843,2.651,44.555,-2000,780.517,0,0,0,
,0.228,1.165,2.056,111.572,-2000,1070.007,0,0,0,
,0.276,0.964,1.575,401.001,-2000,1243.103,0,0,0,
,0.462,0.832,1.058,570.922,-2000,1392.944,0,0,0,
,0.458,0.641,0.562,683.105,-2000,1581.054,0,0,0,
,0.577,0.44,0.063,769.226,-2000,1650.024,0,0,0,
,0.645,0.051,-0.594,800.659,-2000,1601.806,0,0,0,
,0.704,-0.487,-1.204,592.834,-2000,1442.566,0,0,0,
,0.652,-1.3,-1.843,44.555,-1998.108,1181.701,0,0,0,
,0.349,-1.861,-2.137,-529.419,-1667.847,883.239,0,0,0,
,0.219,-1.843,-2.145,-820.008,-901.368,420.715,0,0,0,
,0.21,-1.584,-2.054,-783.265,1.892,-272.217,0,0,0,
,0.17,-1.509,-1.822,-541.016,832.946,-856.812,0,0,0,
,0.233,-1.036,-1.393,-464.6,1497.192,-1333.436,0,0,0,
,0.239,-0.775,-0.943,-453.492,1928.344,-1636.719,0,0,0,
,0.225,-0.594,-0.589,-428.894,1999.694,-1755.005,0,0,0,
,0.182,-0.387,-0.294,-394.288,1999.694,-1727.295,0,0,0,
,0.1,-0.163,0.008,-411.805,1999.694,-1689.637,0,0,0,
,0.091,0.16,0.302,-592.347,1999.694,-1657.715,0,0,0,
,0.179,0.773,1.025,-712.281,1999.694,-1580.445,0,0,0,
,-0.025,0.512,1.061,-880.677,1999.694,-1735.779,0,0,0,
,0.078,-0.049,0.752,-744.019,1999.694,-1648.072,0,0,0,
,0.787,1.468,0.959,-502.259,1999.694,-949.585,0,0,0,
,1.574,3.445,1.864,101.318,1616.394,-766.114,0,0,0,
,0.95,2.13,2.475,1257.995,1484.802,-632.142,0,0,0,
,0.13,0.426,2.373,1393.188,1604.004,-362.183,0,0,0,
,0.06,-0.278,1.914,548.767,1126.77,-203.37,0,0,0,
,-0.009,-0.263,1.656,-434.998,592.346,-178.345,0,0,0,
,-0.076,0.037,1.405,-899.109,259.643,-162.781,0,0,0,
,-0.061,0.358,0.846,-673.218,188.598,-128.479,0,0,0,
,0.037,0.375,2.542,307.006,-53.65,-303.894,0,0,0,
,0.031,0.41,2.294,475.708,242.859,-37.354,0,0,0,
,-0.031,-0.134,1.67,-75.074,66.162,-254.639,0,0,0,
,-0.103,-0.223,1.181,-619.935,-268.982,-180.787,0,0,0,
,-0.223,0.266,0.95,-539.124,-162.415,-59.449,0,0,0,
,-0.184,0.482,1.105,-227.356,-28.504,-0.489,0,0,0,
,-0.085,0.434,1.058,98.877,118.774,31.555,0,0,0,
,-0.029,0.14,1.002,314.148,199.768,-7.569,0,0,0,
,0.037,-0.063,0.948,189.758,151.367,-11.536,0,0,0,
,0.059,0.096,0.968,-10.01,57.739,-30.335,0,0,0,
,0.044,0.213,0.992,-82.581,39.672,-29.602,0,0,0,
,0.063,0.27,0.995,-120.85,-7.203,-4.212,0,0,0,
,0.017,0.35,0.951,-30.823,-13.611,11.413,0,0,0,
,-0.043,0.302,0.954,112.915,44.738,-0.245,0,0,0,
,-0.011,0.132,1.03,103.088,47.363,-20.997,0,0,0,
,0.012,0.195,1,9.155,-22.095,-24.659,0,0,0,
,0,0.155,0.985,-15.748,-9.766,-37.476,0,0,0,
,0.027,0.128,0.972,-69.031,-22.095,-46.875,0,0,0,
,-0.006,0.162,0.99,-133.118,-52.185,-41.993,0,0,0,
,-0.025,0.225,0.991,-132.752,-43.457,-39.551,0,0,0,
,-0.019,0.253,1.002,-84.656,-27.344,-20.752,0,0,0,
,-0.016,0.233,1.011,-40.406,-15.137,-19.715,0,0,0,
,-0.027,0.2,1.012,-16.236,-9.278,-20.63,0,0,0,
,-0.036,0.184,1.003,3.112,7.263,-33.448,0,0,0,
,-0.015,0.175,0.98,4.882,28.198,-27.222,0,0,0,
,-0.008,0.163,1.009,-5.127,20.69,-24.353,0,0,0,
,-0.018,0.2,1.054,-7.813,27.465,-19.715,0,0,0,
,-0.015,0.194,1.103,-73.914,9.399,-5.066,0,0,0,
,-0.047,0.265,1.25,-196.839,-66.407,21.606,0,0,0,
,-0.097,0.349,1.414,-285.584,-109.986,57.251,0,0,0,
,-0.073,0.417,1.514,-322.815,-157.044,81.787,0,0,0,
,-0.048,0.436,1.493,-468.811,-201.294,110.962,0,0,0,
,-0.04,0.304,1.333,-776.49,-205.14,114.807,0,0,0,
,-0.001,0.008,0.925,-1197.205,-250.123,97.717,0,0,0,
,0.016,0.08,0.617,-1687.317,-405.213,254.699,0,0,0,
,-0.065,0.526,0.518,-1969.178,-555.42,453.552,0,0,0,
,-0.274,0.822,0.606,-1980.225,-560.608,465.637,0,0,0,
,-0.349,0.836,0.747,-1731.873,-415.284,456.421,0,0,0,
,-0.356,0.723,0.669,-1396.18,-223.023,428.161,0,0,0,
,-0.308,0.675,0.493,-1141.236,-138.245,447.937,0,0,0,
,-0.294,0.561,0.46,-941.285,-77.881,386.291,0,0,0,
,-0.289,0.439,0.465,-854.065,5.432,315.673,0,0,0,
,-0.259,0.504,0.474,-888.306,48.4,316.894,0,0,0,
,-0.255,0.614,0.454,-752.137,87.402,291.87,0,0,0,
,-0.268,0.622,0.441,-468.445,148.681,212.036,0,0,0,
,-0.246,0.549,0.444,-213.685,232.238,116.638,0,0,0,
,-0.172,0.547,0.513,-100.037,252.258,50.109,0,0,0,
,-0.12,0.607,0.584,-81.482,231.567,13.122,0,0,0,
,-0.103,0.698,0.644,-62.928,197.937,-3.113,0,0,0,
,-0.109,0.722,0.717,-21.363,184.997,-22.644,0,0,0,
,-0.118,0.7,0.705,-2.137,168.701,-38.697,0,0,0,
,-0.136,0.704,0.704,-42.542,135.07,-48.157,0,0,0,
,-0.154,0.724,0.68,-109.436,95.52,-62.134,0,0,0,
,-0.126,0.715,0.673,-148.56,79.711,-78.186,0,0,0,
,-0.165,0.681,0.631,-228.272,92.163,-92.591,0,0,0,
,-0.141,0.726,0.593,-381.836,66.711,-85.083,0,0,0,
,-0.125,0.805,0.57,-443.299,33.63,-86.121,0,0,0,
,-0.142,0.87,0.573,-356.568,23.193,-84.29,0,0,0,
,-0.16,0.888,0.604,-224.427,32.348,-81.238,0,0,0,
,-0.138,0.912,0.539,-170.289,40.466,-21.851,0,0,0,
,-0.209,0.828,0.501,-192.261,65.063,-48.035,0,0,0,
,-0.191,0.88,0.535,-208.619,60.607,-46.082,0,0,0,
,-0.211,0.861,0.502,-10.498,90.21,-28.565,0,0,0,
,-0.186,0.819,0.478,-17.823,113.342,-21.424,0,0,0,
,-0.168,0.817,0.482,-66.773,110.901,-18.494,0,0,0,
,-0.199,0.821,0.52,-80.201,105.102,-36.011,0,0,0,
,-0.222,0.79,0.509,-79.529,127.929,-43.213,0,0,0,
,-0.2,0.819,0.523,-101.136,118.469,-37.781,0,0,0,
,-0.201,0.813,0.458,-83.435,131.286,-34.241,0,0,0,
,-0.186,0.863,0.468,-49.622,130.798,-28.504,0,0,0,
,-0.167,0.864,0.502,-64.82,109.436,-36.377,0,0,0,
,-0.163,0.838,0.519,-84.961,117.126,-27.1,0,0,0,
,-0.168,0.815,0.511,-101.868,90.393,-19.715,0,0,0,
,-0.197,0.824,0.503,-98.999,73.913,-25.269,0,0,0,
,-0.205,0.885,0.499,-72.388,63.72,-24.964,0,0,0,
,-0.206,0.88,0.486,-32.349,77.209,-31.128,0,0,0,
,-0.194,0.871,0.49,-34.974,84.594,-24.109,0,0,0,
,-0.176,0.859,0.498,-79.285,73.12,-16.602,0,0,0,
,-0.194,0.862,0.507,-81.849,63.11,-11.475,0,0,0,
,-0.197,0.886,0.508,-64.576,65.124,-1.465,0,0,0,
,-0.208,0.884,0.527,69.274,84.961,9.582,0,0,0,
,-0.193,0.896,0.572,103.515,80.444,8.606,0,0,0,
,-0.19,0.866,0.581,106.14,75.927,14.587,0,0,0,
,-0.194,0.837,0.572,63.11,61.34,19.775,0,0,0,
,-0.189,0.857,0.558,23.132,51.452,39.428,0,0,0,
,-0.179,0.883,0.535,17.639,53.1,46.447,0,0,0,
,-0.18,0.897,0.557,32.47,48.706,49.438,0,0,0,
,-0.199,0.905,0.565,23.559,33.996,63.964,0,0,0,
,-0.229,0.954,0.577,16.723,22.461,81.909,0,0,0,
,-0.253,0.974,0.586,59.997,18.005,98.877,0,0,0,
,-0.258,0.98,0.579,104.248,20.568,140.136,0,0,0,
,-0.257,0.973,0.593,181.03,22.583,138,0,0,0,
,-0.272,0.906,0.584,228.515,28.076,144.714,0,0,0,
,-0.276,0.823,0.576,243.469,36.987,143.127,0,0,0,
,-0.258,0.792,0.581,246.643,46.203,141.174,0,0,0,
,-0.24,0.792,0.585,246.521,52.246,132.751,0,0,0,
,-0.255,0.801,0.564,269.287,65.002,127.563,0,0,0,
,-0.263,0.819,0.548,324.951,78.43,123.962,0,0,0,
,-0.26,0.815,0.535,394.409,97.595,118.164,0,0,0,
,-0.252,0.764,0.546,450.134,113.952,109.436,0,0,0,
,-0.24,0.711,0.575,475.158,125.61,106.933,0,0,0,
,-0.229,0.654,0.602,483.581,132.751,88.317,0,0,0,
,-0.226,0.623,0.626,445.434,136.23,73.425,0,0,0,
,-0.222,0.623,0.638,392.822,134.765,62.439,0,0,0,
,-0.216,0.643,0.629,369.629,136.901,56.091,0,0,0,
,-0.203,0.635,0.639,364.257,146.179,48.706,0,0,0,
,-0.191,0.625,0.664,359.863,148.132,37.414,0,0,0,
,-0.199,0.604,0.675,356.506,155.334,30.883,0,0,0,
,-0.191,0.61,0.703,364.074,150.695,28.259,0,0,0,
,-0.175,0.59,0.703,382.141,166.809,23.681,0,0,0,
,-0.163,0.577,0.708,384.399,162.719,16.967,0,0,0,
,-0.173,0.574,0.721,363.891,157.226,12.878,0,0,0,
,-0.188,0.601,0.746,354.187,161.682,17.7,0,0,0,
,-0.199,0.591,0.771,357.605,167.968,16.113,0,0,0,
,-0.187,0.562,0.781,382.995,170.166,18.737,0,0,0,
,-0.164,0.549,0.782,436.584,176.208,18.432,0,0,0,
,-0.153,0.523,0.782,482.544,183.105,13.794,0,0,0,
,-0.163,0.501,0.817,475.647,177.246,9.521,0,0,0,
,-0.178,0.487,0.84,434.936,174.804,9.765,0,0,0,
,-0.17,0.462,0.871,392.639,183.288,7.141,0,0,0,
,-0.133,0.449,0.906,369.69,175.903,10.986,0,0,0,
,-0.062,0.517,0.975,396.24,98.449,20.446,0,0,0,
,-0.141,0.361,0.929,425.109,126.342,19.531,0,0,0,
,-0.097,0.411,0.901,392.639,122.985,11.108,0,0,0,
,-0.129,0.368,0.918,368.835,120.361,18.554,0,0,0,
,-0.119,0.366,0.923,325.5,114.807,10.681,0,0,0,
,-0.135,0.341,0.914,266.418,116.76,7.995,0,0,0,
,-0.127,0.351,0.922,227.295,116.027,5.554,0,0,0,
,-0.119,0.369,0.902,251.159,118.469,4.028,0,0,0,
,-0.126,0.356,0.907,306.884,134.033,1.403,0,0,0,
,-0.114,0.328,0.926,328.857,141.54,-2.015,0,0,0,
,-0.102,0.333,0.912,331.359,145.202,8.239,0,0,0,
,-0.095,0.314,0.94,349.304,143.615,7.507,0,0,0,
,-0.093,0.289,0.939,366.333,148.01,15.441,0,0,0,
,-0.092,0.243,0.947,359.68,146.484,10.742,0,0,0,
,-0.067,0.245,0.941,335.754,133.178,14.831,0,0,0,
,-0.067,0.219,0.955,321.96,130.981,10.864,0,0,0,
,-0.051,0.222,0.976,298.706,128.296,12.573,0,0,0,
,-0.061,0.205,0.984,270.141,117.92,11.352,0,0,0,
,-0.061,0.209,0.981,252.99,117.248,15.258,0,0,0,
,-0.058,0.195,0.991,231.079,112.304,9.887,0,0,0,
,-0.047,0.188,0.986,214.66,106.384,11.291,0,0,0,
,-0.047,0.17,0.987,198.852,97.473,10.986,0,0,0,
,-0.041,0.152,0.973,164.245,90.698,8.117,0,0,0,
,-0.047,0.161,0.966,145.752,85.449,5.554,0,0,0,
,-0.053,0.15,0.967,128.845,91.369,2.075,0,0,0,
,-0.041,0.171,0.981,129.821,82.092,5.432,0,0,0,
,-0.042,0.188,0.995,158.935,62.622,6.591,0,0,0,
,-0.046,0.168,0.987,209.9,82.275,9.643,0,0,0,
,-0.046,0.142,0.987,217.163,83.313,13.549,0,0,0,
,-0.045,0.137,0.991,211.242,83.007,14.831,0,0,0,
,-0.045,0.106,0.994,209.655,92.346,11.596,0,0,0,
,-0.031,0.072,1.002,185.974,92.346,7.69,0,0,0,
,-0.017,0.084,1.005,160.095,80.322,8.483,0,0,0,
,-0.024,0.081,0.998,160.766,75.134,2.197,0,0,0,
,-0.029,0.084,0.994,157.898,65.368,0.366,0,0,0,
,-0.033,0.078,0.991,140.991,67.199,-3.235,0,0,0,
,-0.024,0.074,0.997,150.329,65.49,-0.916,0,0,0,
,-0.012,0.071,0.995,170.715,66.833,0.305,0,0,0,
,-0.013,0.065,0.983,206.909,69.885,5.31,0,0,0,
,-0.019,0.079,0.982,265.808,70.922,11.352,0,0,0,
,-0.036,0.072,0.978,316.772,86.303,13.183,0,0,0,
,-0.031,0.048,0.985,357.544,101.196,20.935,0,0,0,
,-0.015,-0.007,0.995,375.976,114.318,17.334,0,0,0,
,0.012,-0.049,1.032,367.126,110.29,18.127,0,0,0,
,0.011,-0.093,1.03,328.613,98.083,9.887,0,0,0,
,0.016,-0.083,1.039,281.005,80.078,6.958,0,0,0,
,0.009,-0.086,1.016,247.924,73.425,1.586,0,0,0,
,0.002,-0.066,1.016,230.468,70.922,1.953,0,0,0,
,0.013,-0.055,0.998,238.83,73.425,5.31,0,0,0,
,0.016,-0.048,0.994,284.973,84.899,14.892,0,0,0,
,0.03,-0.075,0.997,313.964,89.355,17.822,0,0,0,
,0.025,-0.156,1.016,327.209,103.637,24.719,0,0,0,
,0.028,-0.182,1.027,247.68,94.116,18.371,0,0,0,
,0.045,-0.153,1.011,239.868,81.97,18.798,0,0,0,
,0.041,-0.119,0.994,287.719,76.11,26.794,0,0,0,
,0.034,-0.127,0.979,344.36,90.515,37.475,0,0,0,
,0.043,-0.154,0.976,402.404,103.21,46.936,0,0,0,
,0.048,-0.222,1.005,423.401,115.6,46.752,0,0,0,
,0.07,-0.286,1.02,387.756,111.816,44.616,0,0,0,
,0.083,-0.31,1.024,312.683,88.073,39.367,0,0,0,
,0.081,-0.286,0.999,257.995,62.744,40.161,0,0,0,
,0.092,-0.236,0.95,282.226,62.377,47.546,0,0,0,
,0.067,-0.234,0.941,360.717,76.965,57.312,0,0,0,
,0.081,-0.275,0.949,433.838,104.431,61.157,0,0,0,
,0.097,-0.357,0.963,452.453,110.778,59.448,0,0,0,
,0.109,-0.413,0.98,401.001,89.66,50.109,0,0,0,
,0.109,-0.408,0.966,341.43,64.941,45.654,0,0,0,
,0.101,-0.396,0.965,310.302,51.574,42.907,0,0,0,
,0.098,-0.388,0.937,303.161,47.485,39.001,0,0,0,
,0.103,-0.364,0.926,330.383,44.189,40.527,0,0,0,
,0.102,-0.387,0.903,369.323,49.865,42.602,0,0,0,
,0.106,-0.414,0.897,387.817,56.152,41.687,0,0,0,
,0.113,-0.439,0.887,397.155,60.18,42.541,0,0,0,
,0.112,-0.469,0.906,405.517,60.73,39.856,0,0,0,
,0.118,-0.49,0.903,410.766,66.101,40.283,0,0,0,
,0.126,-0.491,0.896,407.348,64.758,44.311,0,0,0,
,0.131,-0.517,0.874,397.766,64.514,44.921,0,0,0,
,0.143,-0.498,0.857,402.343,56.701,56.701,0,0,0,
,0.124,-0.509,0.838,424.987,74.279,59.57,0,0,0,
,0.136,-0.528,0.826,438.293,82.702,63.171,0,0,0,
,0.141,-0.569,0.83,437.072,90.82,65.307,0,0,0,
,0.15,-0.592,0.818,415.649,89.965,68.481,0,0,0,
,0.161,-0.619,0.82,398.132,93.75,67.627,0,0,0,
,0.175,-0.61,0.796,372.192,85.144,70.312,0,0,0,
,0.171,-0.597,0.78,380.249,81.604,76.477,0,0,0,
,0.176,-0.587,0.758,401.977,86.547,82.092,0,0,0,
,0.177,-0.6,0.749,434.753,93.078,86.914,0,0,0,
,0.193,-0.622,0.726,463.745,93.322,93.261,0,0,0,
,0.204,-0.625,0.7,497.741,94.299,100.341,0,0,0,
,0.199,-0.641,0.665,538.635,104.065,105.713,0,0,0,
,0.2,-0.67,0.625,588.867,116.272,100.586,0,0,0,
,0.183,-0.687,0.603,640.747,144.47,111.877,0,0,0,
,0.199,-0.754,0.621,645.263,176.269,106.811,0,0,0,
,0.242,-0.8,0.631,596.801,176.33,102.539,0,0,0,
,0.259,-0.843,0.642,518.921,170.837,93.322,0,0,0,
,0.274,-0.834,0.62,402.526,148.071,88.073,0,0,0,
,0.282,-0.788,0.626,327.27,124.023,90.332,0,0,0,
,0.279,-0.742,0.576,280.761,107.238,92.773,0,0,0,
,0.264,-0.749,0.569,293.884,110.229,95.764,0,0,0,
,0.278,-0.764,0.556,291.748,110.229,89.965,0,0,0,
,0.276,-0.816,0.549,253.051,112.976,87.829,0,0,0,
,0.291,-0.853,0.522,177.978,94.482,71.716,0,0,0,
,0.296,-0.855,0.524,118.042,72.448,51.879,0,0,0,
,0.3,-0.816,0.505,71.411,43.823,32.714,0,0,0,
,0.285,-0.778,0.491,76.477,39.489,22.399,0,0,0,
,0.28,-0.783,0.522,84.899,48.461,14.343,0,0,0,
,0.293,-0.814,0.501,65.918,37.902,-3.54,0,0,0,
,0.293,-0.849,0.526,35.095,29.052,-17.09,0,0,0,
,0.297,-0.829,0.514,-1.954,15.258,-28.077,0,0,0,
,0.296,-0.853,0.475,-54.017,6.897,-38.941,0,0,0,
,0.291,-0.941,0.548,-86.609,22.522,-57.801,0,0,0,
,0.314,-0.834,0.505,-140.137,-25.452,-62.317,0,0,0,
,0.291,-0.837,0.514,-130.86,-3.479,-77.881,0,0,0,
,0.349,-0.891,0.518,-167.603,-6.958,-108.765,0,0,0,
,0.37,-0.928,0.544,-276.917,-26.185,-144.654,0,0,0,
,0.354,-1.003,0.584,-519.776,-42.542,-191.407,0,0,0,
,0.343,-1.049,0.574,-849.06,-81.91,-237.122,0,0,0,
,0.337,-0.957,0.562,-1119.385,-141.907,-284.18,0,0,0,
,0.334,-0.895,0.549,-1299.866,-144.593,-323.182,0,0,0,
,0.365,-0.859,0.542,-1522.583,-145.203,-365.967,0,0,0,
,0.391,-0.854,0.509,-1833.191,-176.636,-397.583,0,0,0,
,0.394,-0.779,0.571,-2000,-257.996,-404.175,0,0,0,
,0.371,-0.644,0.632,-2000,-325.196,-408.814,0,0,0,
,0.358,-0.498,0.679,-2000,-394.288,-403.26,0,0,0,
,0.338,-0.323,0.639,-2000,-479.004,-368.775,0,0,0,
,0.269,-0.174,0.626,-2000,-558.655,-348.816,0,0,0,
,0.175,-0.075,0.562,-2000,-578.186,-336.548,0,0,0,
,0.111,0.057,0.642,-2000,-560.608,-314.637,0,0,0,
,0.087,0.036,0.688,-1998.658,-513.428,-312.867,0,0,0,
,0.143,0.013,0.679,-2000,-516.48,-295.96,0,0,0,
,0.174,0.082,0.62,-2000,-615.906,-250.367,0,0,0,
,0.061,0.3,0.648,-2000,-713.44,-181.763,0,0,0,
,-0.081,0.589,0.586,-2000,-742.676,-130.982,0,0,0,
,-0.173,0.708,0.583,-2000,-668.335,-109.314,0,0,0,
,-0.143,0.647,0.589,-1837.586,-584.778,-90.699,0,0,0,
,-0.069,0.56,0.614,-1659.241,-549.439,-47.73,0,0,0,
,-0.125,0.622,0.584,-1698.304,-578.125,-25.574,0,0,0,
,-0.22,0.681,0.527,-1760.01,-553.711,-32.227,0,0,0,
,-0.225,0.885,0.393,-1756.409,-539.856,-8.24,0,0,0,
,-0.261,1.053,0.372,-1496.094,-506.104,-3.357,0,0,0,
,-0.304,1.106,0.304,-1110.779,-453.797,8.85,0,0,0,
,-0.363,1.122,0.344,-624.268,-379.029,-10.315,0,0,0,
,-0.363,1.073,0.414,-204.895,-273.743,-47.364,0,0,0,
,-0.33,0.97,0.446,117.859,-192.627,-82.032,0,0,0,
,-0.308,0.876,0.542,225.219,-142.273,-125.55,0,0,0,
,-0.312,0.828,0.594,143.066,-110.962,-150.147,0,0,0,
,-0.339,0.86,0.597,-40.223,-92.164,-168.641,0,0,0,
,-0.341,0.955,0.595,-178.101,-70.313,-175.599,0,0,0,
,-0.32,1.018,0.578,-226.685,-45.594,-172.486,0,0,0,
,-0.301,1.025,0.534,-162.72,-17.456,-163.819,0,0,0,
,-0.288,1.016,0.491,-40.101,12.573,-162.781,0,0,0,
,-0.283,0.953,0.451,87.219,52.49,-167.603,0,0,0,
,-0.276,0.92,0.432,170.471,90.82,-172.608,0,0,0,
,-0.255,0.89,0.458,194.397,133.056,-176.514,0,0,0,
,-0.222,0.871,0.478,160.217,156.738,-164.368,0,0,0,
,-0.197,0.908,0.501,108.642,145.202,-148.926,0,0,0,
,-0.195,0.945,0.502,88.073,137.024,-119.996,0,0,0,
,-0.204,0.878,0.507,71.533,131.286,-97.29,0,0,0,
,-0.187,0.889,0.513,55.053,124.206,-80.811,0,0,0,
,-0.174,0.843,0.506,23.742,120.117,-65.918,0,0,0,
,-0.163,0.829,0.521,-35.096,97.045,-57.19,0,0,0,
,-0.162,0.868,0.512,-73.853,62.561,-32.776,0,0,0,
,-0.155,0.873,0.526,-59.388,54.321,-28.87,0,0,0,
,-0.17,0.864,0.507,-57.251,47.18,-22.278,0,0,0,
,-0.166,0.869,0.532,-50.965,37.231,-26.734,0,0,0,
,-0.165,0.867,0.559,-21.424,43.945,-25.574,0,0,0,
,-0.166,0.858,0.549,-1.77,42.48,-35.035,0,0,0,
,-0.162,0.861,0.558,-9.4,29.419,-34.424,0,0,0,
,-0.168,0.897,0.562,-10.621,20.141,-30.884,0,0,0,
,-0.169,0.856,0.539,-10.865,21.362,-29.358,0,0,0,
,-0.157,0.842,0.533,-32.593,16.174,-32.654,0,0,0,
,-0.155,0.817,0.506,-45.655,22.644,-39.49,0,0,0,
,-0.139,0.806,0.5,-78.248,22.033,-50.293,0,0,0,
,-0.13,0.826,0.488,-93.628,18.31,-54.078,0,0,0,
,-0.137,0.87,0.494,-74.524,13.122,-55.237,0,0,0,
,-0.153,0.88,0.497,-22.767,22.399,-53.223,0,0,0,
,-0.151,0.878,0.514,15.747,20.141,-59.51,0,0,0,
,-0.152,0.833,0.51,15.075,23.01,-61.646,0,0,0,
,-0.139,0.791,0.5,-19.959,19.897,-68.665,0,0,0,
,-0.121,0.796,0.502,-58.228,15.991,-74.341,0,0,0,
,-0.082,0.753,0.46,-99.427,38.086,-78.431,0,0,0,
,-0.136,0.895,0.484,-202.698,-66.285,-41.321,0,0,0,
,-0.167,0.989,0.47,-21.912,-29.48,-43.091,0,0,0,
,-0.098,0.887,0.475,42.663,-14.649,-48.951,0,0,0,
,-0.131,0.911,0.53,54.87,-29.664,-37.171,0,0,0,
,-0.13,0.927,0.549,71.35,-26.246,-36.194,0,0,0,
,-0.113,0.905,0.554,77.88,-40.833,-49.317,0,0,0,
,-0.153,0.834,0.478,67.871,-23.987,-55.97,0,0,0,
,-0.134,0.86,0.512,51.391,-29.175,-31.556,0,0,0,
,-0.115,0.819,0.466,80.017,-10.193,-44.556,0,0,0,
,-0.106,0.802,0.449,99.426,-1.709,-30.152,0,0,0,
,-0.086,0.885,0.454,188.842,-4.334,-23.499,0,0,0,
,-0.135,0.818,0.517,264.282,36.438,-49.561,0,0,0,
,-0.069,0.767,0.564,201.66,37.353,-53.65,0,0,0,
,-0.054,0.786,0.586,109.497,6.836,-49.073,0,0,0,
,-0.054,0.809,0.628,52.368,-20.386,-56.824,0,0,0,
,0.008,0.835,0.619,16.418,-30.884,-46.387,0,0,0,
,0.053,0.826,0.587,-37.659,-47.73,-41.81,0,0,0,
,0.036,0.874,0.567,-37.232,-82.337,-0.977,0,0,0,
,0.013,0.908,0.578,81.665,-101.319,9.094,0,0,0,
,-0.006,0.845,0.562,232.422,-100.22,9.582,0,0,0,
,-0.025,0.81,0.553,348.083,-113.648,0.427,0,0,0,
,-0.055,0.769,0.58,413.269,-151.368,-13.672,0,0,0,
,-0.119,0.675,0.519,488.83,-166.626,-52.43,0,0,0,
,-0.173,0.674,0.498,552.246,-156.739,-51.087,0,0,0,
,-0.194,0.801,0.446,735.229,-160.828,-34.668,0,0,0,
,-0.247,0.779,0.455,1073.73,-92.469,-67.688,0,0,0,
,-0.292,0.592,0.494,1341.43,6.836,-150.818,0,0,0,
,-0.295,0.386,0.546,1390.808,80.139,-224.854,0,0,0,
,-0.285,0.284,0.563,1306.091,98.205,-271.058,0,0,0,
,-0.285,0.353,0.553,1244.934,118.896,-281.617,0,0,0,
,-0.266,0.467,0.475,1326.904,203.857,-278.504,0,0,0,
,-0.216,0.446,0.461,1533.203,368.835,-302.674,0,0,0,
,-0.022,0.378,0.819,1799.682,430.481,-350.647,0,0,0,
,0.067,0.309,1.11,1807.556,401.916,-326.6,0,0,0,
,0.004,0.26,0.933,1479.797,370.91,-266.907,0,0,0,
,-0.156,0.145,1.822,819.091,461.67,-322.449,0,0,0,
,0.233,-0.165,2.08,-1630.86,-341.004,-85.022,0,0,0,
,0.368,1.086,0.443,-1158.509,-567.139,16.723,0,0,0,
,-0.509,0.427,0.747,-485.84,-130.616,-153.809,0,0,0,
,-0.414,0.172,1.277,-369.629,17.822,-217.713,0,0,0,
,0.154,0.451,0.854,-453.186,15.258,-54.017,0,0,0,
,-0.005,0.486,0.932,-214.722,-55.176,-47.913,0,0,0,
,-0.129,0.337,0.944,-62.867,4.577,-78.736,0,0,0,
,-0.007,0.356,0.93,-89.051,1.464,-58.289,0,0,0,
,0.024,0.404,0.847,-113.343,-1.526,-14.039,0,0,0,
,-0.005,0.386,0.916,-85.45,13.671,-36.316,0,0,0,
,-0.009,0.321,0.899,-105.469,44.616,-31.617,0,0,0,
,0.013,0.353,0.96,-159.241,7.141,-10.682,0,0,0,
,0.004,0.421,0.968,-184.51,-50.232,-2.381,0,0,0,
,-0.057,0.474,0.905,-141.541,-67.933,0.244,0,0,0,
,-0.088,0.494,0.904,-68.177,-60.303,2.258,0,0,0,
,-0.076,0.464,0.882,-14.405,-14.527,-14.832,0,0,0,
,-0.062,0.441,0.913,15.747,-3.724,-10.01,0,0,0,
,-0.042,0.415,0.902,9.704,23.254,-11.719,0,0,0,
,-0.031,0.398,0.93,4.943,18.859,-9.644,0,0,0,
,-0.025,0.399,0.912,-21.302,8.178,-12.879,0,0,0,
,-0.044,0.413,0.936,-38.697,-10.132,-11.536,0,0,0,
,-0.07,0.428,0.906,-49.744,-6.897,-11.841,0,0,0,
,-0.068,0.439,0.926,-36.988,5.31,-21.912,0,0,0,
,-0.051,0.436,0.9,-22.828,20.08,-21.851,0,0,0,
,-0.035,0.432,0.914,-6.348,26.306,-26.673,0,0,0,
,-0.032,0.4,0.907,-8.667,17.273,-21.729,0,0,0,
,-0.033,0.408,0.915,-29.725,7.568,-13.733,0,0,0,
,-0.039,0.415,0.913,-47.364,-1.465,-13.55,0,0,0,
,-0.042,0.428,0.903,-51.697,-2.015,-15.809,0,0,0,
,-0.045,0.446,0.909,-40.039,2.197,-14.771,0,0,0,
,-0.05,0.436,0.904,-24.292,3.479,-16.846,0,0,0,
,-0.051,0.422,0.907,-22.4,-6.104,-16.541,0,0,0,
,-0.046,0.441,0.908,-23.804,-7.203,-28.687,0,0,0,
,-0.051,0.437,0.902,-14.954,-6.958,-28.016,0,0,0,
,-0.052,0.436,0.905,-7.63,-4.273,-30.152,0,0,0,
,-0.055,0.427,0.904,-2.93,2.075,-29.053,0,0,0,
,-0.054,0.418,0.912,-2.869,-7.752,-33.753,0,0,0,
,-0.059,0.414,0.914,-12.452,-10.254,-35.279,0,0,0,
,-0.056,0.425,0.92,-15.686,-9.156,-30.335,0,0,0,
,-0.055,0.425,0.91,-23.621,-7.019,-27.039,0,0,0,
,-0.055,0.425,0.913,-26.734,-8.728,-23.438,0,0,0,
,-0.059,0.429,0.91,-27.405,0.549,-20.691,0,0,0,
,-0.058,0.43,0.91,-28.626,6.042,-22.095,0,0,0,
,-0.057,0.42,0.908,-27.466,8.544,-20.997,0,0,0,
,-0.059,0.416,0.909,-36.988,6.897,-18.128,0,0,0,
,-0.059,0.421,0.909,-41.748,2.502,-16.358,0,0,0,
,-0.06,0.427,0.905,-50.232,-0.611,-16.297,0,0,0,
,-0.062,0.435,0.904,-52.43,1.648,-17.029,0,0,0,
,-0.054,0.444,0.901,-45.899,7.507,-20.142,0,0,0,
,-0.053,0.447,0.896,-42.664,1.586,-19.654,0,0,0,
,-0.052,0.447,0.902,-33.57,6.897,-16.419,0,0,0,
,-0.059,0.433,0.903,-33.265,1.77,-14.893,0,0,0,
,-0.062,0.432,0.908,-35.34,-0.733,-16.358,0,0,0,
,-0.063,0.437,0.903,-34.974,1.281,-20.02,0,0,0,
,-0.061,0.438,0.9,-29.48,-1.221,-21.912,0,0,0,
,-0.06,0.437,0.9,-32.898,-3.479,-20.142,0,0,0,
,-0.063,0.439,0.894,-34.607,-4.761,-17.701,0,0,0,
,-0.066,0.448,0.898,-31.922,-3.724,-18.006,0,0,0,
,-0.063,0.453,0.901,-24.537,-1.709,-19.715,0,0,0,
,-0.064,0.446,0.898,-23.56,-2.991,-20.508,0,0,0,
,-0.068,0.43,0.907,-18.982,-3.907,-17.579,0,0,0,
,-0.074,0.431,0.905,-28.748,-9.766,-19.227,0,0,0,
,-0.073,0.438,0.901,-33.875,-7.386,-23.133,0,0,0,
,-0.065,0.451,0.901,-16.846,-4.639,-23.743,0,0,0,
,-0.063,0.447,0.894,-30.884,-2.137,-21.241,0,0,0,
,-0.069,0.443,0.901,-32.654,-4.7,-18.372,0,0,0,
,-0.072,0.444,0.893,-37.781,-3.54,-17.273,0,0,0,
,-0.072,0.452,0.902,-28.687,2.075,-21.851,0,0,0,
,-0.074,0.44,0.901,-27.832,0.671,-21.851,0,0,0,
,-0.074,0.439,0.902,-32.105,3.112,-22.583,0,0,0,
,-0.074,0.447,0.895,-36.316,0.915,-22.339,0,0,0,
,-0.074,0.457,0.895,-34.79,2.441,-20.508,0,0,0,
,-0.071,0.457,0.891,-31.983,9.399,-22.278,0,0,0,
,-0.068,0.449,0.897,-26.49,8.178,-24.353,0,0,0,
,-0.066,0.444,0.897,-32.288,4.15,-20.264,0,0,0,
,-0.074,0.451,0.894,-35.279,-1.648,-18.25,0,0,0,
,-0.077,0.456,0.893,-32.349,4.272,-17.701,0,0,0,
,-0.079,0.453,0.896,-23.377,3.173,-23.377,0,0,0,
,-0.072,0.453,0.895,-19.593,1.892,-25.33,0,0,0,
,-0.07,0.451,0.89,-22.522,2.502,-23.377,0,0,0,
,-0.077,0.46,0.891,-28.565,-1.648,-21.424,0,0,0,
,-0.08,0.461,0.889,-20.264,2.319,-22.095,0,0,0,
,-0.079,0.457,0.895,-13.184,2.99,-25.025,0,0,0,
,-0.08,0.446,0.894,-13.855,1.586,-26.001,0,0,0,
,-0.078,0.449,0.897,-14.039,-0.245,-22.889,0,0,0,
,-0.081,0.448,0.895,-16.358,-2.869,-23.865,0,0,0,
,-0.078,0.446,0.896,-23.316,-3.418,-24.781,0,0,0,
,-0.075,0.452,0.888,-30.457,-5.555,-25.147,0,0,0,
,-0.077,0.455,0.894,-31.067,-6.592,-22.095,0,0,0,
,-0.087,0.463,0.892,-29.48,-5.616,-21.79,0,0,0,
,-0.088,0.455,0.89,-25.391,-2.869,-22.278,0,0,0,
,-0.085,0.455,0.896,-20.325,1.342,-22.828,0,0,0,
,-0.082,0.446,0.896,-21.241,-1.038,-23.926,0,0,0,
,-0.082,0.444,0.898,-30.64,-4.883,-24.414,0,0,0,
,-0.082,0.45,0.891,-41.81,-10.56,-23.011,0,0,0,
,-0.087,0.465,0.889,-44.251,-11.475,-20.081,0,0,0,
,-0.084,0.467,0.886,-38.331,-4.09,-20.386,0,0,0,
,-0.085,0.462,0.89,-28.992,-3.357,-21.668,0,0,0,
,-0.086,0.453,0.89,-32.227,-7.813,-18.189,0,0,0,
,-0.085,0.453,0.886,-36.744,-10.926,-18.555,0,0,0,
,-0.089,0.457,0.898,-34.302,-19.593,-15.748,0,0,0,
,-0.065,0.456,0.873,-41.26,-8.179,-20.813,0,0,0,
,-0.09,0.459,0.897,-25.94,-12.879,-19.593,0,0,0,
,-0.09,0.461,0.866,-36.622,-6.958,-20.874,0,0,0,
,-0.092,0.467,0.901,-24.048,-14.466,-18.311,0,0,0,
,-0.091,0.454,0.877,-35.096,-10.376,-19.959,0,0,0,
,-0.094,0.464,0.893,-30.396,-13.367,-18.555,0,0,0,
,-0.094,0.457,0.877,-36.499,-7.813,-18.372,0,0,0,
,-0.097,0.464,0.888,-30.884,-5.127,-20.569,0,0,0,
,-0.098,0.463,0.883,-29.602,-1.831,-20.63,0,0,0,
,-0.095,0.465,0.891,-30.518,-0.977,-19.654,0,0,0,
,-0.097,0.463,0.883,-33.265,-5.494,-22.034,0,0,0,
,-0.094,0.472,0.879,-35.401,-6.104,-19.898,0,0,0,
,-0.099,0.472,0.878,-36.133,-6.043,-19.043,0,0,0,
,-0.105,0.475,0.883,-29.786,-0.428,-17.945,0,0,0,
,-0.112,0.472,0.878,-12.818,8.361,-5.127,0,0,0,
,-0.094,0.451,0.887,-2.198,14.648,-25.513,0,0,0,
,-0.083,0.463,0.881,-26.429,-2.991,-16.541,0,0,0,
,-0.106,0.472,0.883,-27.894,-4.639,-18.25,0,0,0,
,-0.102,0.471,0.883,-23.804,-2.869,-25.635,0,0,0,
,-0.098,0.475,0.884,-27.588,-5.188,-23.438,0,0,0,
,-0.103,0.479,0.875,-23.56,-5.86,-24.231,0,0,0,
,-0.105,0.474,0.876,-21.973,-3.602,-23.255,0,0,0,
,-0.104,0.476,0.888,-12.207,0.122,-25.696,0,0,0,
,-0.104,0.469,0.877,-15.442,0.915,-21.973,0,0,0,
,-0.107,0.47,0.884,-14.1,0.61,-22.95,0,0,0,
,-0.106,0.473,0.881,-9.766,3.479,-23.316,0,0,0,
,-0.106,0.465,0.888,-7.142,6.286,-22.95,0,0,0,
,-0.105,0.462,0.881,-17.518,2.99,-23.072,0,0,0,
,-0.105,0.467,0.882,-22.095,0.366,-24.659,0,0,0,
,-0.106,0.473,0.875,-25.452,-1.038,-23.194,0,0,0,
,-0.113,0.477,0.878,-21.851,1.648,-24.414,0,0,0,
,-0.115,0.476,0.879,-9.4,6.408,-25.696,0,0,0,
,-0.111,0.469,0.884,-5.433,11.84,-27.039,0,0,0,
,-0.105,0.462,0.885,-5.433,13.61,-28.077,0,0,0,
,-0.105,0.464,0.882,-10.376,9.46,-29.053,0,0,0,
,-0.104,0.47,0.885,-16.236,5.065,-27.466,0,0,0,
,-0.105,0.474,0.879,-17.09,2.197,-24.964,0,0,0,
,-0.111,0.473,0.875,-12.391,6.958,-26.001,0,0,0,
,-0.11,0.476,0.881,-6.897,7.568,-25.757,0,0,0,
,-0.111,0.462,0.883,-5.555,7.141,-26.307,0,0,0,
,-0.109,0.463,0.889,-8.728,8.483,-26.673,0,0,0,
,-0.106,0.465,0.885,-13.001,5.432,-26.612,0,0,0,
,-0.108,0.465,0.88,-14.039,5.676,-28.382,0,0,0,
,-0.105,0.471,0.883,-14.1,6.286,-24.842,0,0,0,
,-0.109,0.437,0.885,-14.832,4.333,-25.208,0,0,0,
,-0.108,0.467,0.883,-17.64,3.784,-24.598,0,0,0,
,-0.115,0.471,0.882,-17.823,1.342,-24.72,0,0,0,
,-0.114,0.468,0.885,-15.137,3.723,-25.025,0,0,0,
,-0.111,0.466,0.884,-14.527,9.521,-26.612,0,0,0,
,-0.11,0.467,0.885,-14.588,7.69,-26.978,0,0,0,
,-0.104,0.466,0.885,-16.175,6.103,-28.382,0,0,0,
,-0.109,0.458,0.888,-20.752,1.281,-25.818,0,0,0,
,-0.11,0.467,0.881,-26.612,3.112,-25.33,0,0,0,
,-0.113,0.47,0.879,-28.87,0.122,-25.696,0,0,0,
,-0.111,0.474,0.882,-24.72,2.99,-24.964,0,0,0,
,-0.111,0.473,0.881,-20.508,3.54,-23.621,0,0,0,
,-0.114,0.467,0.881,-19.349,4.089,-22.644,0,0,0,
,-0.112,0.463,0.884,-20.203,3.112,-25.086,0,0,0,
,-0.113,0.466,0.882,-25.757,0.183,-24.17,0,0,0,
,-0.114,0.476,0.878,-23.743,2.319,-26.917,0,0,0,
,-0.112,0.473,0.882,-16.785,4.455,-24.842,0,0,0,
,-0.108,0.472,0.882,-14.771,5.432,-24.598,0,0,0,
,-0.113,0.469,0.882,-23.743,1.953,-23.743,0,0,0,
,-0.118,0.473,0.879,-25.208,-0.489,-21.973,0,0,0,
,-0.117,0.473,0.877,-18.189,2.868,-24.476,0,0,0,
,-0.117,0.47,0.883,-12.207,3.845,-24.659,0,0,0,
,-0.114,0.466,0.885,-14.771,2.868,-27.771,0,0,0,
,-0.112,0.472,0.879,-13.855,2.319,-26.307,0,0,0,
,-0.113,0.473,0.879,-15.137,4.089,-25.879,0,0,0,
,-0.115,0.469,0.881,-12.574,6.408,-22.522,0,0,0,
,-0.12,0.467,0.881,-19.593,2.197,-25.025,0,0,0,
,-0.119,0.475,0.882,-17.029,2.929,-26.612,0,0,0,
,-0.12,0.479,0.878,-13.367,7.019,-25.025,0,0,0,
,-0.118,0.472,0.886,-8.484,8.178,-28.199,0,0,0,
,-0.116,0.463,0.88,-12.391,7.08,-29.541,0,0,0,
,-0.112,0.464,0.88,-15.137,8.117,-28.992,0,0,0,
,-0.117,0.474,0.881,-17.273,5.065,-25.818,0,0,0,
,-0.117,0.473,0.878,-16.114,8.056,-26.673,0,0,0,
,-0.119,0.472,0.878,-14.222,8.178,-25.269,0,0,0,
,-0.116,0.47,0.878,-11.963,9.704,-27.588,0,0,0,
,-0.119,0.463,0.882,-13.245,4.089,-26.246,0,0,0,
,-0.12,0.468,0.881,-16.175,3.54,-26.856,0,0,0,
,-0.12,0.473,0.881,-12.391,7.507,-27.832,0,0,0,
,-0.118,0.465,0.881,-11.78,9.216,-29.053,0,0,0,
,-0.116,0.469,0.884,-12.696,6.103,-27.222,0,0,0,
,-0.114,0.466,0.884,-15.32,7.751,-27.405,0,0,0,
,-0.117,0.468,0.88,-19.104,3.479,-28.626,0,0,0,
,-0.118,0.47,0.879,-20.142,6.591,-27.71,0,0,0,
,-0.12,0.472,0.88,-16.724,6.652,-27.466,0,0,0,
,-0.116,0.466,0.882,-13.55,6.774,-27.649,0,0,0,
,-0.119,0.463,0.88,-17.395,4.699,-26.978,0,0,0,
,-0.118,0.467,0.88,-20.997,2.014,-29.847,0,0,0,
,-0.118,0.472,0.875,-22.95,-1.404,-28.626,0,0,0,
,-0.123,0.479,0.877,-18.311,2.746,-28.565,0,0,0,
,-0.121,0.473,0.878,-15.259,5.432,-29.419,0,0,0,
,-0.124,0.469,0.882,-12.085,6.774,-29.053,0,0,0,
,-0.123,0.468,0.885,-9.583,8.178,-28.138,0,0,0,
,-0.12,0.465,0.879,-11.536,7.873,-28.931,0,0,0,
,-0.114,0.47,0.885,-13.001,13.305,-27.1,0,0,0,
,-0.12,0.463,0.884,-12.207,12.329,-28.26,0,0,0,
,-0.118,0.468,0.883,-14.405,9.277,-28.687,0,0,0,
,-0.117,0.471,0.877,-18.372,2.99,-29.419,0,0,0,
,-0.12,0.472,0.88,-15.625,5.432,-27.405,0,0,0,
,-0.118,0.474,0.881,-16.053,9.826,-26.917,0,0,0,
,-0.12,0.438,0.88,-13.916,6.469,-27.344,0,0,0,
,-0.122,0.47,0.882,-13.367,8.728,-29.236,0,0,0,
,-0.122,0.473,0.878,-10.071,9.704,-29.969,0,0,0,
,-0.116,0.47,0.879,-8.423,8.85,-31.8,0,0,0,
,-0.12,0.466,0.874,-10.315,3.54,-31.373,0,0,0,
,-0.117,0.466,0.886,-10.01,-5.799,-33.997,0,0,0,
,-0.121,0.469,0.881,-9.888,-3.968,-30.64,0,0,0,
,-0.127,0.47,0.879,-8.728,-1.282,-30.274,0,0,0,
,-0.118,0.473,0.876,-0.794,-2.869,-30.64,0,0,0,
,-0.121,0.459,0.882,-0.55,-9.766,-29.969,0,0,0,
,-0.124,0.46,0.886,-1.587,-3.846,-27.649,0,0,0,
,-0.118,0.464,0.888,-4.639,-2.381,-30.64,0,0,0,
,-0.123,0.462,0.882,-10.376,-2.015,-28.199,0,0,0,
,-0.124,0.47,0.886,-12.513,-0.55,-26.429,0,0,0,
,-0.126,0.467,0.883,-12.574,8.239,-27.222,0,0,0,
,-0.122,0.466,0.885,-12.024,9.643,-27.405,0,0,0,
,-0.123,0.458,0.883,-0.489,9.643,-25.879,0,0,0,
,-0.126,0.467,0.884,-15.686,10.437,-25.147,0,0,0,
,-0.124,0.465,0.88,-17.273,9.033,-27.527,0,0,0,
,-0.124,0.467,0.886,-13.977,8.972,-25.269,0,0,0,
,-0.121,0.466,0.881,-13.062,7.751,-27.832,0,0,0,
,-0.119,0.462,0.882,-11.17,4.638,-26.734,0,0,0,
,-0.123,0.463,0.887,-11.719,2.99,-25.269,0,0,0,
,-0.128,0.46,0.883,-14.771,1.464,-24.537,0,0,0,
,-0.127,0.466,0.889,-17.518,2.38,-26.795,0,0,0,
,-0.13,0.467,0.882,-18.616,3.051,-27.955,0,0,0,
,-0.129,0.469,0.881,-14.222,9.399,-27.161,0,0,0,
,-0.122,0.464,0.883,-8.606,10.376,-27.283,0,0,0,
,-0.123,0.458,0.885,-10.01,12.39,-26.246,0,0,0,
,-0.123,0.459,0.887,-16.785,10.864,-24.781,0,0,0,
,-0.122,0.467,0.882,-17.884,3.051,-29.725,0,0,0,
,-0.126,0.472,0.88,-13.916,-1.16,-26.368,0,0,0,
,-0.132,0.47,0.881,-7.019,-0.123,-26.49,0,0,0,
,-0.131,0.463,0.886,-3.296,1.648,-27.283,0,0,0,
,-0.127,0.454,0.885,-11.902,5.798,-28.565,0,0,0,
,-0.127,0.455,0.886,-15.137,0.549,-28.748,0,0,0,
,-0.128,0.461,0.884,-23.133,4.272,-28.443,0,0,0,
,-0.124,0.469,0.88,-18.738,2.99,-30.335,0,0,0,
,-0.123,0.472,0.88,-14.405,-1.282,-26.062,0,0,0,
,-0.127,0.462,0.889,-12.269,-1.282,-27.1,0,0,0,
,-0.125,0.461,0.884,-17.273,-3.357,-29.114,0,0,0,
,-0.125,0.461,0.886,-20.569,-3.663,-27.955,0,0,0,
,-0.135,0.463,0.885,-20.569,-2.991,-25.879,0,0,0,
,-0.132,0.465,0.875,-21.119,2.38,-27.222,0,0,0,
,-0.131,0.462,0.882,-16.907,1.953,-28.748,0,0,0,
,-0.131,0.461,0.882,-18.555,1.342,-28.26,0,0,0,
,-0.13,0.459,0.882,-15.992,1.281,-30.945,0,0,0,
,-0.13,0.465,0.883,-20.997,-3.785,-29.847,0,0,0,
,-0.132,0.467,0.88,-26.429,-2.808,-27.588,0,0,0,
,-0.133,0.466,0.879,-21.119,-2.442,-29.541,0,0,0,
,-0.131,0.468,0.878,-18.555,1.098,-28.321,0,0,0,
,-0.133,0.466,0.885,-15.198,1.037,-27.71,0,0,0,
,-0.132,0.459,0.884,-15.442,2.441,-27.894,0,0,0,
,-0.136,0.461,0.883,-21.302,2.38,-27.649,0,0,0,
,-0.137,0.468,0.878,-23.255,5.554,-28.26,0,0,0,
,-0.136,0.456,0.877,-24.537,7.629,-28.87,0,0,0,
,-0.134,0.464,0.883,-15.015,8.3,-31.128,0,0,0,
,-0.134,0.47,0.879,-15.442,9.582,-30.945,0,0,0,
,-0.132,0.47,0.878,-11.109,12.451,-31.189,0,0,0,
,-0.138,0.469,0.882,-8.362,13.916,-30.945,0,0,0,
,-0.136,0.471,0.884,-4.944,21.789,-31.861,0,0,0,
,-0.13,0.457,0.887,-1.587,24.231,-36.072,0,0,0,
,-0.124,0.455,0.888,-9.156,18.31,-35.218,0,0,0,
,-0.125,0.462,0.879,-20.02,17.517,-34.363,0,0,0,
,-0.131,0.471,0.879,-15.564,18.798,-32.288,0,0,0,
,-0.136,0.482,0.875,-0.428,16.113,-32.227,0,0,0,
,-0.135,0.469,0.89,16.357,20.202,-32.715,0,0,0,
,-0.131,0.447,0.889,5.554,17.883,-35.889,0,0,0,
,-0.125,0.456,0.884,-3.846,16.662,-36.866,0,0,0,
,-0.122,0.458,0.886,-11.109,17.456,-35.279,0,0,0,
,-0.127,0.467,0.881,-12.513,23.864,-30.274,0,0,0,
,-0.131,0.463,0.884,-5.982,28.32,-31.128,0,0,0,
,-0.128,0.458,0.888,-4.578,28.015,-31.434,0,0,0,
,-0.125,0.453,0.887,-9.766,27.038,-35.157,0,0,0,
,-0.127,0.456,0.888,-17.64,24.475,-39.002,0,0,0,
,-0.127,0.458,0.886,-22.522,24.719,-39.307,0,0,0,
,-0.133,0.455,0.88,-30.091,28.137,-43.824,0,0,0,
,-0.129,0.459,0.893,-33.57,31.311,-52.124,0,0,0,
,-0.122,0.455,0.896,-44.556,29.663,-53.528,0,0,0,
,-0.105,0.448,0.896,-60.242,16.357,-56.58,0,0,0,
,-0.092,0.441,0.901,-78.003,-0.794,-48.645,0,0,0,
,-0.078,0.427,0.919,-124.756,-41.321,-43.213,0,0,0,
,-0.088,0.41,0.934,-209.656,-76.294,-28.138,0,0,0,
,-0.101,0.427,0.937,-343.995,-101.868,-11.414,0,0,0,
,-0.143,0.45,0.921,-460.755,-117.493,-19.471,0,0,0,
,-0.145,0.508,0.923,-546.631,-73.182,-27.771,0,0,0,
,-0.154,0.565,0.877,-534.058,-70.496,-39.612,0,0,0,
,-0.145,0.607,0.808,-395.386,-52.613,-71.778,0,0,0,
,-0.164,0.609,0.826,-262.024,-5.982,-67.139,0,0,0,
,-0.157,0.621,0.832,-189.27,10.559,-38.575,0,0,0,
,-0.142,0.666,0.817,-141.968,-10.376,-31.922,0,0,0,
,-0.146,0.679,0.807,-46.692,-12.94,-15.87,0,0,0,
,-0.163,0.625,0.791,46.875,9.46,-25.696,0,0,0,
,-0.16,0.593,0.777,64.453,18.432,-23.743,0,0,0,
,-0.161,0.579,0.797,2.99,19.104,-22.583,0,0,0,
,-0.156,0.623,0.791,-54.383,1.342,-6.226,0,0,0,
,-0.185,0.651,0.796,-49.073,-1.709,6.652,0,0,0,
,-0.209,0.641,0.799,-8.484,13.366,8.789,0,0,0,
,-0.181,0.596,0.811,44.738,26.489,-7.264,0,0,0,
,-0.178,0.555,0.823,39.672,21.423,3.356,0,0,0,
,-0.176,0.561,0.829,8.422,14.587,3.051,0,0,0,
,-0.172,0.579,0.852,-42.237,0.244,4.821,0,0,0,
,-0.152,0.579,0.876,-99.488,-0.306,11.84,0,0,0,
,-0.14,0.583,0.863,-184.144,-14.771,25.94,0,0,0,
,-0.141,0.591,0.846,-251.587,-34.913,37.353,0,0,0,
,-0.152,0.595,0.813,-327.881,-42.908,45.776,0,0,0,
,-0.156,0.591,0.788,-421.57,-37.903,51.879,0,0,0,
,-0.149,0.584,0.762,-540.162,-44.251,62.011,0,0,0,
,-0.151,0.626,0.751,-626.465,-66.834,84.838,0,0,0,
,-0.181,0.693,0.748,-665.833,-98.877,96.13,0,0,0,
,-0.23,0.757,0.719,-605.469,-110.108,102.234,0,0,0,
,-0.255,0.777,0.706,-477.845,-99.122,105.346,0,0,0,
,-0.27,0.71,0.684,-342.652,-41.504,87.768,0,0,0,
,-0.252,0.655,0.648,-332.215,6.042,92.041,0,0,0,
,-0.232,0.684,0.615,-423.401,3.418,99.67,0,0,0,
,-0.248,0.751,0.6,-465.638,9.094,99.426,0,0,0,
,-0.277,0.69,0.613,-432.068,54.87,65.979,0,0,0,
,-0.254,0.702,0.636,-383.24,59.509,60.424,0,0,0,
,-0.252,0.703,0.641,-297.059,58.288,35.217,0,0,0,
,-0.268,0.658,0.642,-218.628,87.463,9.399,0,0,0,
,-0.241,0.642,0.632,-254.578,88.501,-11.719,0,0,0,
,-0.227,0.571,0.584,-320.801,108.52,-55.542,0,0,0,
,-0.194,0.547,0.585,-454.407,115.295,-76.905,0,0,0,
,-0.149,0.686,0.525,-593.384,95.764,-47.425,0,0,0,
,-0.157,0.787,0.553,-607.666,64.88,-67.444,0,0,0,
,-0.152,0.864,0.561,-543.396,54.626,-65.979,0,0,0,
,-0.138,0.839,0.549,-424.683,66.833,-70.679,0,0,0,
,-0.127,0.821,0.498,-351.502,43.701,-62.684,0,0,0,
,-0.128,0.85,0.502,-294.861,11.108,-68.36,0,0,0,
,-0.151,0.834,0.513,-187.561,14.282,-96.558,0,0,0,
,-0.167,0.755,0.471,-118.103,35.827,-93.628,0,0,0,
,-0.141,0.799,0.453,-152.649,35.217,-68.299,0,0,0,
,-0.113,0.873,0.467,-153.992,26.306,-72.388,0,0,0,
,-0.108,0.911,0.453,-125.916,33.752,-68.299,0,0,0,
,-0.123,0.898,0.43,-87.83,23.925,-78.064,0,0,0,
,-0.151,0.873,0.447,-57.496,18.92,-78.064,0,0,0,
,-0.164,0.889,0.461,-17.579,16.906,-75.257,0,0,0,
,-0.191,0.886,0.432,14.16,30.456,-73.304,0,0,0,
,-0.221,0.862,0.446,27.343,36.743,-81.91,0,0,0,
,-0.225,0.853,0.463,5.188,36.926,-83.924,0,0,0,
,-0.22,0.869,0.468,-29.847,31.555,-79.773,0,0,0,
,-0.204,0.879,0.482,-39.612,21.179,-73.67,0,0,0,
,-0.191,0.873,0.476,-35.828,11.84,-66.224,0,0,0,
,-0.177,0.835,0.439,-30.945,18.493,-55.237,0,0,0,
,-0.144,0.869,0.402,-19.898,27.465,-42.481,0,0,0,
,-0.12,0.868,0.43,48.4,37.902,-44.373,0,0,0,
,-0.101,0.831,0.447,110.351,56.03,-48.096,0,0,0,
,-0.077,0.792,0.491,112.487,54.443,-58.228,0,0,0,
,-0.074,0.792,0.487,38.452,53.1,-48.768,0,0,0,
,-0.099,0.828,0.458,-21.18,44.86,-40.101,0,0,0,
,-0.122,0.867,0.456,-12.146,48.156,-35.401,0,0,0,
,-0.122,0.898,0.46,41.076,52.856,-35.767,0,0,0,
,-0.142,0.852,0.475,71.289,64.88,-39.429,0,0,0,
,-0.171,0.839,0.469,1.953,59.082,-33.936,0,0,0,
,-0.17,0.817,0.486,-25.635,61.645,-43.641,0,0,0,
,-0.155,0.818,0.474,-43.274,67.565,-38.086,0,0,0,
,-0.154,0.832,0.48,-39.734,64.697,-44.983,0,0,0,
,-0.156,0.843,0.488,-21.668,69.03,-44.434,0,0,0,
,-0.153,0.867,0.506,-31.983,71.35,-43.03,0,0,0,
,-0.147,0.857,0.514,-65.186,67.443,-44.434,0,0,0,
,-0.148,0.866,0.486,-86.121,62.194,-33.814,0,0,0,
,-0.175,0.89,0.494,-72.205,62.072,-33.143,0,0,0,
,-0.162,0.897,0.513,-64.759,59.936,-45.411,0,0,0,
,-0.149,0.935,0.495,-56.336,42.236,-26.795,0,0,0,
,-0.152,0.978,0.507,-0.794,35.827,-11.841,0,0,0,
,-0.147,0.987,0.526,71.106,38.818,11.901,0,0,0,
,-0.147,0.927,0.498,116.333,43.884,22.033,0,0,0,
,-0.144,0.912,0.524,138.61,44.982,29.174,0,0,0,
,-0.141,0.885,0.542,134.46,49.926,24.414,0,0,0,
,-0.149,0.853,0.56,83.129,46.569,28.442,0,0,0,
,-0.15,0.865,0.541,11.657,32.836,37.902,0,0,0,
,-0.172,0.933,0.562,-29.297,17.639,57.312,0,0,0,
,-0.176,0.991,0.559,2.38,4.455,81.726,0,0,0,
,-0.188,0.987,0.576,73.12,-4.456,101.257,0,0,0,
,-0.208,0.966,0.581,121.46,-18.982,120.91,0,0,0,
,-0.244,0.837,0.571,285.034,26.001,137.512,0,0,0,
,-0.212,0.764,0.59,212.707,30.212,122.131,0,0,0,
,-0.215,0.807,0.585,133.484,17.211,121.46,0,0,0,
,-0.251,0.888,0.6,126.464,13.732,120.971,0,0,0,
,-0.273,0.915,0.589,175.109,18.005,128.723,0,0,0,
,-0.292,0.894,0.569,251.77,22.522,131.591,0,0,0,
,-0.266,0.836,0.543,576.599,66.772,116.821,0,0,0,
,-0.262,0.754,0.561,690.551,103.088,99.487,0,0,0,
,-0.248,0.695,0.598,701.782,122.192,84.472,0,0,0,
,-0.232,0.652,0.625,671.692,140.319,69.336,0,0,0,
,-0.227,0.624,0.657,654.846,153.015,51.086,0,0,0,
,-0.221,0.615,0.657,640.197,164.734,33.935,0,0,0,
,-0.212,0.628,0.663,647.644,169.25,33.02,0,0,0,
,-0.186,0.61,0.674,667.236,183.715,23.193,0,0,0,
,-0.175,0.558,0.684,659.24,199.035,17.211,0,0,0,
,-0.154,0.507,0.707,572.937,204.589,5.004,0,0,0,
,-0.151,0.503,0.744,484.863,194.336,0.061,0,0,0,
,-0.156,0.497,0.763,417.846,201.477,-11.353,0,0,0,
,-0.155,0.483,0.787,372.253,210.876,-22.583,0,0,0,
,-0.144,0.56,0.799,369.384,209.411,-21.18,0,0,0,
,-0.153,0.547,0.811,406.25,219.055,-30.945,0,0,0,
,-0.146,0.53,0.805,446.899,231.689,-32.471,0,0,0,
,-0.118,0.506,0.823,490.966,241.638,-31.617,0,0,0,
,-0.1,0.465,0.822,513.488,249.389,-30.152,0,0,0,
,-0.087,0.431,0.848,517.334,246.948,-32.166,0,0,0,
,-0.088,0.366,0.888,423.095,224.06,-38.208,0,0,0,
,-0.076,0.356,0.898,399.78,217.529,-36.072,0,0,0,
,-0.065,0.349,0.907,389.648,220.825,-37.415,0,0,0,
,-0.053,0.341,0.901,403.564,221.923,-35.706,0,0,0,
,-0.056,0.353,0.91,440.002,224.365,-32.532,0,0,0,
,-0.044,0.346,0.933,457.031,226.867,-29.847,0,0,0,
,-0.025,0.289,0.944,470.031,222.107,-26.062,0,0,0,
,-0.006,0.26,0.965,446.533,207.824,-17.762,0,0,0,
,-0.008,0.236,0.974,414.978,198.669,-14.405,0,0,0,
,-0.002,0.228,0.993,380.981,189.88,-13.062,0,0,0,
,0.013,0.207,1.001,363.464,183.838,-10.743,0,0,0,
,0.026,0.193,1.013,341.491,169.189,-6.47,0,0,0,
,0.03,0.189,0.998,316.162,153.259,-3.296,0,0,0,
,0.033,0.209,0.979,325.439,142.273,2.075,0,0,0,
,0.029,0.191,0.988,408.508,145.263,13.61,0,0,0,
,0.034,0.141,0.997,429.748,142.578,13.671,0,0,0,
,0.04,0.103,0.999,417.541,139.526,14.648,0,0,0,
,0.044,0.066,1.001,380.554,132.568,9.521,0,0,0,
,0.054,0.056,1.002,343.994,124.633,9.216,0,0,0,
,0.055,0.051,0.995,317.016,113.342,8.056,0,0,0,
,0.056,0.062,0.982,312.255,107.36,10.192,0,0,0,
,0.057,0.054,0.983,318.42,104.248,11.291,0,0,0,
,0.053,0.035,0.99,317.199,102.661,10.131,0,0,0,
,0.05,0.022,0.985,311.34,104.004,12.207,0,0,0,
,0.054,0.005,0.975,312.439,111.816,12.573,0,0,0,
,0.061,-0.013,0.978,313.903,114.502,13.794,0,0,0,
,0.072,-0.033,0.979,314.697,119.567,19.104,0,0,0,
,0.078,-0.056,0.98,291.809,111.755,14.892,0,0,0,
,0.074,-0.06,0.979,256.591,102.417,16.845,0,0,0,
,0.075,-0.049,0.974,232.605,101.623,17.578,0,0,0,
,0.079,-0.037,0.98,249.572,107.36,22.888,0,0,0,
,0.092,-0.05,0.98,280.7,112.732,27.404,0,0,0,
,0.104,-0.057,0.979,304.138,112.243,37.475,0,0,0,
,0.103,-0.085,0.969,317.871,109.924,42.053,0,0,0,
,0.104,-0.123,0.967,306.457,110.534,40.954,0,0,0,
,0.114,-0.147,0.963,275.085,109.314,40.344,0,0,0,
,0.112,-0.158,0.957,254.516,105.529,36.865,0,0,0,
,0.117,-0.149,0.951,249.817,95.52,40.588,0,0,0,
,0.13,-0.115,0.959,285.339,85.937,49.255,0,0,0,
,0.127,-0.103,0.968,364.135,89.172,62.194,0,0,0,
,0.118,-0.156,0.969,423.828,103.393,68.359,0,0,0,
,0.122,-0.223,0.961,434.509,111.389,69.458,0,0,0,
,0.128,-0.266,0.951,424.987,116.394,65.856,0,0,0,
,0.143,-0.298,0.968,392.822,120.056,56.457,0,0,0,
,0.16,-0.31,0.972,343.383,104.004,51.208,0,0,0,
,0.162,-0.298,0.982,294.799,89.66,49.987,0,0,0,
,0.161,-0.27,0.953,290.893,82.336,51.452,0,0,0,
,0.159,-0.245,0.93,339.904,83.496,60.791,0,0,0,
,0.164,-0.248,0.912,425.293,96.435,68.115,0,0,0,
,0.182,-0.297,0.928,507.507,111.816,69.091,0,0,0,
,0.192,-0.389,0.936,514.465,111.633,63.72,0,0,0,
,0.202,-0.438,0.932,457.702,92.407,57.983,0,0,0,
,0.193,-0.448,0.925,389.16,70.251,46.142,0,0,0,
,0.186,-0.422,0.917,353.698,59.448,41.626,0,0,0,
,0.197,-0.393,0.898,373.047,57.19,39.367,0,0,0,
,0.208,-0.398,0.887,432.922,62.316,44.677,0,0,0,
,0.206,-0.394,0.85,506.286,41.809,49.255,0,0,0,
,0.202,-0.382,0.821,653.198,54.321,63.415,0,0,0,
,0.188,-0.437,0.813,766.845,92.041,71.167,0,0,0,
,0.196,-0.538,0.815,817.016,119.934,62.744,0,0,0,
,0.213,-0.629,0.825,793.64,124.389,54.199,0,0,0,
,0.238,-0.626,0.803,749.511,114.563,54.321,0,0,0,
,0.237,-0.67,0.809,692.505,101.867,40.283,0,0,0,
,0.248,-0.621,0.753,653.442,72.753,51.574,0,0,0,
,0.224,-0.57,0.733,700.378,87.89,70.983,0,0,0,
,0.231,-0.595,0.714,764.831,116.821,81.481,0,0,0,
,0.251,-0.665,0.727,776.123,135.925,80.505,0,0,0,
,0.274,-0.732,0.705,706.848,110.962,78.308,0,0,0,
,0.285,-0.755,0.691,620.178,89.233,76.782,0,0,0,
,0.279,-0.725,0.646,564.636,65.856,93.505,0,0,0,
,0.263,-0.694,0.634,547.058,60.241,106.994,0,0,0,
,0.277,-0.688,0.588,557.983,58.654,110.595,0,0,0,
,0.276,-0.713,0.568,576.172,63.903,117.431,0,0,0,
,0.283,-0.743,0.551,582.092,62.439,113.647,0,0,0,
,0.292,-0.78,0.546,558.715,64.575,100.586,0,0,0,
,0.305,-0.823,0.523,498.84,46.814,82.214,0,0,0,
,0.308,-0.823,0.52,410.949,31.555,97.534,0,0,0,
,0.303,-0.804,0.478,330.078,1.953,94.238,0,0,0,
,0.295,-0.796,0.484,282.348,1.709,90.576,0,0,0,
,0.32,-0.828,0.476,247.924,-15.076,65.795,0,0,0,
,0.345,-0.895,0.492,190.368,-13.733,38.696,0,0,0,
,0.35,-0.896,0.482,116.882,-41.626,26.55,0,0,0,
,0.337,-0.913,0.475,30.212,-63.904,9.704,0,0,0,
,0.314,-0.83,0.415,-26.734,-77.393,13.549,0,0,0,
,0.334,-0.888,0.366,-58.533,-47.181,-17.945,0,0,0,
,0.329,-0.93,0.407,-80.567,-43.213,-24.781,0,0,0,
,0.334,-0.881,0.388,-89.539,-39.673,-37.781,0,0,0,
,0.331,-0.894,0.433,-78.675,-7.935,-48.523,0,0,0,
,0.362,-0.92,0.44,-137.024,-0.672,-74.097,0,0,0,
,0.388,-0.964,0.487,-224.244,-0.794,-100.892,0,0,0,
,0.405,-1.032,0.507,-397.461,-3.724,-152.894,0,0,0,
,0.425,-1.085,0.527,-702.759,-46.021,-222.657,0,0,0,
,0.401,-1.04,0.511,-1033.265,-102.784,-279.541,0,0,0,
,0.374,-0.996,0.506,-1366.272,-128.357,-341.553,0,0,0,
,0.369,-0.976,0.527,-1732.972,-117.92,-363.404,0,0,0,
,0.403,-0.997,0.543,-2000,-141.053,-397.583,0,0,0,
,0.456,-0.925,0.455,-2000,-220.704,-404.053,0,0,0,
,0.412,-0.343,0.426,-2000,-600.892,-356.324,0,0,0,
,0.329,-0.176,0.345,-2000,-673.829,-325.074,0,0,0,
,0.231,0.005,0.419,-2000,-726.38,-295.838,0,0,0,
,0.168,0.127,0.405,-2000,-733.46,-270.203,0,0,0,
,0.13,0.264,0.449,-2000,-709.961,-276.49,0,0,0,
,0.071,0.344,0.532,-2000,-687.317,-237.61,0,0,0,
,0.031,0.352,0.636,-1941.346,-632.935,-220.032,0,0,0,
,0.011,0.356,0.664,-1885.315,-602.662,-206.543,0,0,0,
,0,0.376,0.569,-1969.117,-622.254,-196.595,0,0,0,
,-0.052,0.585,0.494,-1999.939,-665.711,-158.326,0,0,0,
,-0.134,0.85,0.405,-1972.901,-658.57,-129.944,0,0,0,
,-0.29,1.083,0.464,-1427.063,-528.687,-139.832,0,0,0,
,-0.269,1.006,0.491,-1171.082,-453.736,-154.053,0,0,0,
,-0.228,0.931,0.506,-996.705,-412.11,-157.471,0,0,0,
,-0.22,0.961,0.557,-869.385,-389.405,-158.57,0,0,0,
,-0.239,0.97,0.553,-726.502,-331.055,-179.932,0,0,0,
,-0.245,1,0.55,-616.639,-280.213,-199.585,0,0,0,
,-0.25,1.082,0.496,-477.723,-221.924,-202.576,0,0,0,
,-0.241,1.141,0.464,-299.195,-161.683,-207.52,0,0,0,
,-0.234,1.118,0.463,-125.55,-110.474,-208.191,0,0,0,
,-0.245,1.022,0.48,-29.419,-54.2,-202.698,0,0,0,
,-0.212,1.025,0.499,-35.401,-21.973,-199.463,0,0,0,
,-0.207,1.019,0.498,-33.692,13.305,-192.444,0,0,0,
,-0.181,1.08,0.492,202.88,64.88,-127.198,0,0,0,
,-0.18,1.026,0.495,309.448,89.05,-93.995,0,0,0,
,-0.173,0.954,0.483,282.959,109.375,-93.262,0,0,0,
,-0.162,0.878,0.505,186.34,108.52,-81.116,0,0,0,
,-0.149,0.88,0.53,77.758,108.215,-63.233,0,0,0,
,-0.126,0.875,0.534,-8.179,96.008,-51.331,0,0,0,
,-0.116,0.885,0.523,-71.045,73.974,-37.842,0,0,0,
,-0.129,0.885,0.499,-71.106,66.589,-18.494,0,0,0,
,-0.115,0.916,0.49,-30.518,59.021,-16.541,0,0,0,
,-0.117,0.874,0.462,12.878,58.654,-13.062,0,0,0,
,-0.122,0.894,0.495,38.879,52.368,-11.414,0,0,0,
,-0.106,0.871,0.509,42.663,54.443,-8.851,0,0,0,
,-0.105,0.815,0.523,9.399,37.902,-12.33,0,0,0,
,-0.105,0.784,0.53,-44.617,32.775,-30.518,0,0,0,
,-0.087,0.805,0.525,-111.329,32.714,-20.874,0,0,0,
,-0.081,0.829,0.5,-182.129,21.789,-29.053,0,0,0,
,-0.095,0.879,0.486,-192.688,16.967,-28.26,0,0,0,
,-0.079,0.855,0.438,-11.475,40.039,-48.34,0,0,0,
,-0.041,0.978,0.514,48.339,42.602,-36.255,0,0,0,
,-0.083,0.991,0.523,-21.363,18.493,-14.161,0,0,0,
,-0.113,0.837,0.481,-75.867,10.925,-8.973,0,0,0,
,-0.075,0.91,0.503,-106.141,-16.114,-2.564,0,0,0,
,-0.036,0.881,0.525,139.587,-25.818,-60.608,0,0,0,
,-0.018,0.877,0.635,171.569,-41.321,-68.726,0,0,0,
,0.001,0.848,0.628,193.115,-21.851,-34.058,0,0,0,
,-0.039,0.762,0.664,78.064,-44.8,-65.491,0,0,0,
,-0.011,0.814,0.642,-91.553,-76.477,-43.519,0,0,0,
,-0.042,0.802,0.532,-164.917,-79.346,-44.129,0,0,0,
,-0.033,0.74,0.461,-181.885,-60.364,-64.576,0,0,0,
,0.045,0.784,0.449,-168.763,-63.538,-58.411,0,0,0,
,0.073,0.92,0.488,-81.665,-108.643,-43.457,0,0,0,
,0.056,0.944,0.516,82.092,-107.972,-23.194,0,0,0,
,0.054,0.866,0.557,227.417,-104.432,-14.1,0,0,0,
,0.067,0.797,0.553,242.065,-128.846,-2.625,0,0,0,
,0.035,0.731,0.522,177.185,-151.734,-6.226,0,0,0,
,-0.025,0.653,0.49,74.585,-153.992,-34.363,0,0,0,
,-0.067,0.645,0.477,-35.706,-161.805,-67.139,0,0,0,
,-0.11,0.66,0.423,-69.153,-153.077,-97.229,0,0,0,
,-0.166,0.635,0.424,-70.313,-132.264,-140.809,0,0,0,
,-0.214,0.685,0.468,-48.218,-127.686,-188.477,0,0,0,
,-0.248,0.743,0.49,7.507,-94.483,-251.526,0,0,0,
,-0.263,0.755,0.409,12.451,-94.727,-293.519,0,0,0,
,-0.225,0.941,0.327,148.193,-148.011,-271.119,0,0,0,
,-0.233,1.236,0.282,569.397,-158.997,-202.759,0,0,0,
,-0.286,1.209,0.359,1180.969,-65.552,-206.36,0,0,0,
,-0.097,0.498,0.627,1188.415,140.319,-289.734,0,0,0,
,-0.033,0.679,0.68,779.846,0.061,-224.427,0,0,0,
,-0.088,0.927,0.659,777.71,-52.308,-138.611,0,0,0,
,-0.14,1.015,0.687,1141.845,30.151,-129.334,0,0,0,
,-0.055,1.197,1.37,1377.746,38.024,-130.433,0,0,0,
,0.144,0.954,0.771,941.345,143.982,-20.264,0,0,0,
,-0.108,0.462,0.591,1112.182,140.075,-24.964,0,0,0,
,-0.154,0.328,0.927,1023.193,102.356,-10.743,0,0,0,
,0.02,0.357,0.983,996.032,181.64,0.244,0,0,0,
,0.137,0.365,0.998,1095.581,215.942,-2.991,0,0,0,
,0.099,-0.022,1.013,825.378,159.179,-87.647,0,0,0,
,0.134,-0.206,0.906,187.317,-57.007,-22.156,0,0,0,
,0.06,0.156,1.032,74.096,-119.812,23.681,0,0,0,
,-0.005,0.373,0.969,95.947,-79.407,27.099,0,0,0,
,0.004,0.434,0.947,177.612,-59.327,39.733,0,0,0,
,0.026,0.26,0.948,198.547,-10.071,11.413,0,0,0,
,0.042,0.144,0.969,120.849,-41.016,17.089,0,0,0,
,-0.014,0.254,0.972,47.607,-58.472,54.382,0,0,0,
,-0.04,0.254,0.975,24.231,-27.894,15.014,0,0,0,
,-0.031,0.223,0.96,-23.316,2.685,-10.56,0,0,0,
,-0.016,0.241,0.966,-59.266,7.019,-17.151,0,0,0,
,-0.002,0.273,0.968,-69.397,-8.912,-19.043,0,0,0,
,-0.011,0.281,0.966,-78.98,-18.067,-21.851,0,0,0,
,-0.011,0.276,0.953,-91.248,-10.01,-23.865,0,0,0,
,-0.006,0.267,0.953,-118.164,-13.001,-17.579,0,0,0,
,-0.014,0.295,0.943,-139.588,-9.034,-5.372,0,0,0,
,-0.006,0.309,0.954,-171.387,-13.55,-22.828,0,0,0,
,-0.004,0.317,0.966,-183.777,-43.702,-24.17,0,0,0,
,-0.022,0.338,0.938,-158.204,-41.077,-27.039,0,0,0,
,-0.027,0.319,0.977,-97.535,5.127,-17.823,0,0,0,
,-0.01,0.269,0.958,-144.227,-49.988,-32.654,0,0,0,
,-0.036,0.33,0.973,-140.686,-38.575,-15.259,0,0,0,
,-0.06,0.348,0.991,-102.478,-20.813,-1.221,0,0,0,
,-0.031,0.312,0.956,-121.949,5.432,-38.392,0,0,0,
,-0.023,0.354,0.943,-121.949,-30.274,-30.579,0,0,0,
,-0.051,0.369,0.951,-101.258,-14.588,-28.809,0,0,0,
,-0.029,0.343,0.947,-85.816,3.967,-29.297,0,0,0,
,-0.016,0.332,0.948,-78.797,-5.738,-27.283,0,0,0,
,-0.026,0.345,0.939,-79.468,-16.419,-26.795,0,0,0,
,-0.037,0.339,0.943,-84.595,-18.189,-30.823,0,0,0,
,-0.039,0.358,0.936,-88.746,-24.17,-27.161,0,0,0,
,-0.042,0.383,0.94,-83.619,-21.973,-26.49,0,0,0,
,-0.042,0.384,0.934,-73.548,-17.029,-22.461,0,0,0,
,-0.039,0.385,0.936,-62.684,-4.639,-26.185,0,0,0,
,-0.037,0.364,0.938,-53.956,0.244,-26.612,0,0,0,
,-0.039,0.354,0.943,-51.575,-5.494,-32.654,0,0,0,
,-0.044,0.359,0.938,-51.758,-9.156,-25.94,0,0,0,
,-0.047,0.364,0.947,-48.157,-2.625,-28.138,0,0,0,
,-0.045,0.366,0.939,-49.5,6.469,-27.649,0,0,0,
,-0.038,0.367,0.935,-50.171,5.676,-28.687,0,0,0,
,-0.035,0.38,0.926,-51.758,2.197,-26.856,0,0,0,
,-0.036,0.381,0.93,-52.491,-0.916,-26.185,0,0,0,
,-0.037,0.382,0.929,-47.486,-1.465,-25.513,0,0,0,
,-0.04,0.379,0.934,-40.406,1.953,-27.222,0,0,0,
,-0.041,0.36,0.935,-39.856,1.098,-29.48,0,0,0,
,-0.045,0.37,0.932,-46.936,-5.494,-27.405,0,0,0,
,-0.046,0.377,0.932,-49.378,-7.019,-28.87,0,0,0,
,-0.043,0.386,0.929,-48.34,-1.282,-25.513,0,0,0,
,-0.042,0.398,0.925,-42.786,-2.686,-23.011,0,0,0,
,-0.044,0.394,0.925,-40.711,-2.137,-23.072,0,0,0,
,-0.048,0.387,0.934,-34.241,-1.282,-22.095,0,0,0,
,-0.049,0.389,0.934,-27.405,0.671,-23.926,0,0,0,
,-0.048,0.379,0.933,-19.715,2.624,-28.504,0,0,0,
,-0.041,0.374,0.935,-22.767,1.77,-28.687,0,0,0,
,-0.039,0.372,0.934,-25.94,-3.846,-26.673,0,0,0,
,-0.039,0.376,0.924,-34.485,-17.64,-18.921,0,0,0,
,-0.042,0.382,0.923,-46.021,-26.978,-14.222,0,0,0,
,-0.047,0.378,0.924,-56.58,-16.968,-14.527,0,0,0,
,-0.055,0.387,0.922,-60.608,-19.227,-11.536,0,0,0,
,-0.053,0.393,0.921,-57.435,-19.41,-12.757,0,0,0,
,-0.055,0.385,0.931,-55.237,-15.137,-14.283,0,0,0,
,-0.054,0.382,0.925,-58.472,-19.165,-10.743,0,0,0,
,-0.062,0.394,0.928,-57.862,-17.884,-10.193,0,0,0,
,-0.066,0.405,0.927,-55.42,-10.682,-18.982,0,0,0,
,-0.067,0.402,0.925,-48.157,1.586,-21.546,0,0,0,
,-0.061,0.407,0.92,-46.204,-2.503,-25.818,0,0,0,
,-0.061,0.409,0.914,-42.664,1.22,-23.926,0,0,0,
,-0.064,0.409,0.919,-40.101,-2.564,-24.537,0,0,0,
,-0.06,0.397,0.921,-33.753,1.77,-26.185,0,0,0,
,-0.057,0.395,0.927,-33.143,-0.245,-25.391,0,0,0,
,-0.06,0.395,0.921,-36.56,-6.043,-24.659,0,0,0,
,-0.063,0.404,0.916,-37.11,-3.296,-22.828,0,0,0,
,-0.06,0.415,0.916,-38.819,-3.907,-23.438,0,0,0,
,-0.058,0.42,0.914,-34.546,-6.653,-21.79,0,0,0,
,-0.063,0.421,0.918,-27.71,-4.273,-19.349,0,0,0,
,-0.066,0.408,0.915,-23.56,-5.555,-20.813,0,0,0,
,-0.066,0.407,0.916,-19.532,-5.433,-16.724,0,0,0,
,-0.067,0.4,0.922,-22.95,-10.56,-18.921,0,0,0,
,-0.067,0.399,0.92,-27.1,-9.705,-18.433,0,0,0,
,-0.068,0.406,0.922,-26.551,-5.86,-20.63,0,0,0,
,-0.067,0.405,0.913,-25.94,-5.249,-20.142,0,0,0,
,-0.068,0.413,0.92,-28.138,-5.005,-16.663,0,0,0,
,-0.07,0.409,0.916,-30.701,-6.897,-15.198,0,0,0,
,-0.073,0.414,0.918,-32.166,-5.188,-13.977,0,0,0,
,-0.08,0.419,0.917,-25.452,-4.578,-15.503,0,0,0,
,-0.079,0.408,0.919,-21.119,6.103,-24.048,0,0,0,
,-0.076,0.41,0.916,-19.41,5.371,-25.818,0,0,0,
,-0.071,0.404,0.915,-20.813,4.516,-28.565,0,0,0,
,-0.071,0.417,0.914,-23.987,5.127,-27.161,0,0,0,
,-0.074,0.416,0.913,-24.109,1.709,-24.903,0,0,0,
,-0.077,0.412,0.915,-25.208,-0.061,-25.696,0,0,0,
,-0.08,0.417,0.914,-19.41,3.234,-26.734,0,0,0,
,-0.079,0.411,0.916,-13.855,9.033,-32.105,0,0,0,
,-0.073,0.414,0.917,-8.545,15.197,-33.081,0,0,0,
,-0.067,0.404,0.915,-9.461,11.23,-33.57,0,0,0,
,-0.068,0.408,0.913,-12.879,7.934,-27.588,0,0,0,
,-0.07,0.412,0.911,-14.954,6.164,-23.133,0,0,0,
,-0.075,0.412,0.916,-19.898,2.624,-22.339,0,0,0,
,-0.081,0.422,0.914,-16.297,5.432,-22.767,0,0,0,
,-0.078,0.41,0.915,-4.822,9.887,-30.457,0,0,0,
,-0.073,0.403,0.917,-8.118,9.643,-31.922,0,0,0,
,-0.071,0.408,0.918,-8.912,10.376,-31.373,0,0,0,
,-0.07,0.406,0.916,-9.278,11.596,-33.143,0,0,0,
,-0.068,0.407,0.918,-11.353,12.939,-32.105,0,0,0,
,-0.071,0.414,0.895,-16.602,8.239,-26.795,0,0,0,
,-0.082,0.401,0.922,-23.499,0.732,-31.739,0,0,0,
,-0.078,0.42,0.904,-20.63,10.315,-22.339,0,0,0,
,-0.079,0.406,0.927,-15.503,1.586,-35.523,0,0,0,
,-0.079,0.405,0.908,-13.245,11.535,-29.847,0,0,0,
,-0.076,0.408,0.925,-12.757,9.582,-37.415,0,0,0,
,-0.074,0.409,0.908,-13.611,13.366,-30.579,0,0,0,
,-0.072,0.415,0.918,-9.949,6.836,-32.288,0,0,0,
,-0.072,0.411,0.915,-13.55,11.535,-29.358,0,0,0,
,-0.072,0.406,0.921,-15.503,8.544,-27.832,0,0,0,
,-0.074,0.411,0.909,-16.663,11.108,-23.377,0,0,0,
,-0.078,0.411,0.921,-16.541,6.347,-26.246,0,0,0,
,-0.08,0.413,0.907,-13.672,10.681,-24.17,0,0,0,
,-0.076,0.407,0.922,-12.757,10.559,-28.809,0,0,0,
,-0.071,0.403,0.914,-12.391,12.207,-31.983,0,0,0,
,-0.069,0.405,0.922,-13.062,9.643,-29.969,0,0,0,
,-0.072,0.411,0.911,-16.785,8.728,-26.856,0,0,0,
,-0.076,0.418,0.916,-17.151,10.437,-27.222,0,0,0,
,-0.075,0.42,0.912,-10.621,12.146,-26.368,0,0,0,
,-0.071,0.404,0.921,-9.583,10.07,-29.48,0,0,0,
,-0.077,0.375,0.916,-17.518,3.54,-26.978,0,0,0,
,-0.078,0.417,0.915,-12.024,10.07,-28.443,0,0,0,
,-0.074,0.415,0.914,-6.958,9.338,-33.081,0,0,0,
,-0.072,0.408,0.915,-9.461,10.07,-33.265,0,0,0,
,-0.069,0.401,0.914,-11.841,6.042,-29.602,0,0,0,
,-0.076,0.411,0.916,-12.757,8.178,-25.818,0,0,0,
,-0.077,0.403,0.916,-13.672,9.521,-28.931,0,0,0,
,-0.074,0.396,0.924,-18.433,9.521,-29.419,0,0,0,
,-0.073,0.4,0.92,-24.964,3.967,-24.903,0,0,0,
,-0.077,0.42,0.913,-25.574,2.624,-22.889,0,0,0,
,-0.082,0.417,0.91,-19.959,7.507,-26.001,0,0,0,
,-0.081,0.41,0.92,-18.738,10.559,-27.832,0,0,0,
,-0.079,0.402,0.917,-19.654,11.901,-28.077,0,0,0,
,-0.076,0.406,0.917,-21.119,8.789,-29.175,0,0,0,
,-0.072,0.409,0.914,-20.02,9.765,-31.189,0,0,0,
,-0.072,0.416,0.916,-20.142,8.85,-29.236,0,0,0,
,-0.075,0.414,0.913,-14.832,10.131,-27.405,0,0,0,
,-0.075,0.415,0.912,-16.297,8.728,-25.757,0,0,0,
,-0.078,0.409,0.917,-16.541,10.62,-27.649,0,0,0,
,-0.074,0.41,0.918,-13.855,8.667,-30.884,0,0,0,
,-0.078,0.409,0.917,-11.048,8.361,-29.969,0,0,0,
,-0.077,0.404,0.916,-10.804,8.728,-30.152,0,0,0,
,-0.073,0.407,0.914,-11.353,8.178,-30.335,0,0,0,
,-0.077,0.409,0.915,-11.292,7.568,-27.222,0,0,0,
,-0.075,0.412,0.919,-11.719,6.652,-29.786,0,0,0,
,-0.076,0.413,0.912,-10.132,10.315,-31.189,0,0,0,
,-0.077,0.41,0.917,-11.109,8.606,-28.809,0,0,0,
,-0.078,0.413,0.91,-10.254,7.263,-27.161,0,0,0,
,-0.078,0.4,0.918,-10.926,8.483,-32.288,0,0,0,
,-0.078,0.405,0.919,-13.184,8.972,-31.861,0,0,0,
,-0.078,0.388,0.923,-23.865,-1.343,-29.419,0,0,0,
,-0.067,0.411,0.917,-30.03,10.986,-35.645,0,0,0,
,-0.079,0.418,0.913,-23.377,5.92,-30.823,0,0,0,
,-0.081,0.404,0.916,-18.921,10.986,-31.556,0,0,0,
,-0.077,0.413,0.92,-16.114,13.488,-29.358,0,0,0,
,-0.075,0.406,0.918,-17.579,7.446,-29.419,0,0,0,
,-0.077,0.41,0.915,-17.518,12.939,-28.199,0,0,0,
,-0.078,0.409,0.916,-14.283,13.488,-30.152,0,0,0,
,-0.073,0.409,0.918,-11.353,13.488,-29.419,0,0,0,
,-0.071,0.404,0.918,-13.855,13.366,-29.419,0,0,0,
,-0.073,0.405,0.92,-17.762,10.376,-30.579,0,0,0,
,-0.075,0.408,0.915,-20.691,9.338,-27.466,0,0,0,
,-0.075,0.408,0.913,-21.546,8.239,-26.978,0,0,0,
,-0.078,0.419,0.911,-18.372,6.591,-27.588,0,0,0,
,-0.08,0.406,0.917,-19.959,7.568,-29.908,0,0,0,
,-0.076,0.407,0.914,-18.311,9.582,-29.175,0,0,0,
,-0.076,0.409,0.916,-17.334,10.559,-31.8,0,0,0,
,-0.075,0.413,0.916,-13.123,7.934,-30.884,0,0,0,
,-0.073,0.408,0.913,-15.381,8.972,-31.006,0,0,0,
,-0.072,0.411,0.917,-14.039,8.667,-29.786,0,0,0,
,-0.074,0.407,0.913,-18.86,10.925,-31.434,0,0,0,
,-0.073,0.411,0.914,-19.593,6.591,-27.955,0,0,0,
,-0.074,0.412,0.913,-20.142,9.704,-26.49,0,0,0,
,-0.077,0.411,0.915,-19.532,6.774,-26.856,0,0,0,
,-0.081,0.415,0.915,-14.954,12.085,-28.809,0,0,0,
,-0.077,0.409,0.915,-12.391,13.061,-33.387,0,0,0,
,-0.072,0.405,0.917,-11.17,17.273,-34.363,0,0,0,
,-0.07,0.407,0.915,-15.32,8.361,-30.762,0,0,0,
,-0.074,0.408,0.915,-18.799,10.131,-29.358,0,0,0,
,-0.078,0.416,0.912,-18.311,12.817,-27.161,0,0,0,
,-0.075,0.406,0.916,-16.541,14.282,-30.03,0,0,0,
,-0.076,0.408,0.913,-12.94,13.732,-31.617,0,0,0,
,-0.074,0.413,0.914,-11.231,13.244,-30.396,0,0,0,
,-0.07,0.409,0.916,-11.231,13.305,-30.03,0,0,0,
,-0.071,0.406,0.912,-9.888,10.192,-28.565,0,0,0,
,-0.073,0.41,0.918,-14.1,8.911,-29.297,0,0,0,
,-0.071,0.411,0.911,-15.931,9.765,-30.457,0,0,0,
,-0.078,0.42,0.912,-15.076,8.056,-28.626,0,0,0,
,-0.081,0.414,0.919,-7.813,8.422,-33.081,0,0,0,
,-0.076,0.414,0.916,-3.357,11.291,-34.241,0,0,0,
,-0.071,0.404,0.912,-3.174,10.192,-37.354,0,0,0,
,-0.071,0.401,0.919,-1.099,7.141,-38.269,0,0,0,
,-0.07,0.418,0.912,5.615,-6.592,-40.833,0,0,0,
,-0.077,0.414,0.92,10.559,-11.048,-42.603,0,0,0,
,-0.079,0.411,0.902,7.507,-2.076,-51.758,0,0,0,
,-0.072,0.403,0.915,3.112,-2.442,-44.068,0,0,0,
,-0.082,0.375,0.924,4.394,-4.883,-43.152,0,0,0,
,-0.082,0.399,0.918,10.864,5.615,-44.495,0,0,0,
,-0.073,0.413,0.919,11.047,5.188,-44.129,0,0,0,
,-0.074,0.396,0.92,10.864,10.009,-45.899,0,0,0,
,-0.073,0.389,0.927,5.065,11.901,-43.519,0,0,0,
,-0.07,0.39,0.923,-2.93,13.855,-40.284,0,0,0,
,-0.07,0.385,0.92,-14.161,12.39,-34.363,0,0,0,
,-0.07,0.4,0.924,-19.959,15.319,-27.771,0,0,0,
,-0.07,0.407,0.916,-18.433,13.794,-29.236,0,0,0,
,-0.072,0.397,0.921,-16.358,18.188,-29.969,0,0,0,
,-0.07,0.399,0.92,-13.977,15.564,-29.664,0,0,0,
,-0.072,0.397,0.921,-16.48,14.099,-31.434,0,0,0,
,-0.071,0.403,0.922,-15.198,13,-31.25,0,0,0,
,-0.072,0.407,0.923,-8.057,10.192,-33.936,0,0,0,
,-0.071,0.408,0.926,0.305,8.911,-35.096,0,0,0,
,-0.069,0.403,0.917,4.882,6.103,-38.208,0,0,0,
,-0.07,0.392,0.921,-3.174,-0.184,-38.086,0,0,0,
,-0.073,0.394,0.925,-5.86,3.295,-34.668,0,0,0,
,-0.078,0.395,0.921,-6.775,4.699,-32.593,0,0,0,
,-0.071,0.401,0.924,-4.273,9.399,-34.363,0,0,0,
,-0.069,0.395,0.918,-1.954,7.568,-36.499,0,0,0,
,-0.068,0.392,0.923,-5.372,7.019,-35.584,0,0,0,
,-0.074,0.385,0.92,-10.254,8.178,-31.006,0,0,0,
,-0.072,0.388,0.929,-16.907,12.878,-30.457,0,0,0,
,-0.075,0.389,0.921,-24.17,13.977,-28.443,0,0,0,
,-0.073,0.4,0.921,-23.682,17.883,-25.391,0,0,0,
,-0.072,0.407,0.921,-16.968,14.404,-29.664,0,0,0,
,-0.069,0.397,0.924,-16.114,12.023,-29.297,0,0,0,
,-0.077,0.396,0.919,-13.367,7.08,-29.602,0,0,0,
,-0.076,0.395,0.928,-13.489,9.46,-31.8,0,0,0,
,-0.068,0.385,0.921,-14.771,16.54,-33.509,0,0,0,
,-0.062,0.39,0.918,-20.874,12.756,-29.969,0,0,0,
,-0.066,0.406,0.918,-21.119,7.385,-28.809,0,0,0,
,-0.071,0.405,0.913,-16.785,7.995,-26.551,0,0,0,
,-0.079,0.396,0.921,-15.015,5.554,-29.541,0,0,0,
,-0.079,0.393,0.926,-10.315,12.146,-34.852,0,0,0,
,-0.074,0.399,0.919,-11.048,15.93,-37.537,0,0,0,
,-0.066,0.406,0.922,-5.86,18.249,-41.077,0,0,0,
,-0.066,0.396,0.919,-4.822,18.371,-39.063,0,0,0,
,-0.066,0.393,0.922,-2.991,13,-37.11,0,0,0,
,-0.071,0.388,0.922,-9.156,15.93,-35.157,0,0,0,
,-0.074,0.388,0.921,-11.841,15.197,-37.476,0,0,0,
,-0.067,0.395,0.924,-13.672,19.714,-37.232,0,0,0,
,-0.065,0.397,0.922,-15.259,15.869,-42.054,0,0,0,
,-0.049,0.391,0.91,-56.702,15.93,-59.998,0,0,0,
,-0.065,0.421,0.909,-19.593,-21.302,-34.302,0,0,0,
,-0.107,0.399,0.922,-16.236,15.93,-41.504,0,0,0,
,-0.065,0.383,0.932,-7.081,33.63,-49.5,0,0,0,
,-0.047,0.403,0.922,-10.682,19.958,-39.002,0,0,0,
,-0.064,0.401,0.919,-12.635,10.681,-35.645,0,0,0,
,-0.066,0.396,0.928,-7.63,18.066,-35.096,0,0,0,
,-0.046,0.39,0.927,-8.789,14.587,-27.1,0,0,0,
,-0.067,0.404,0.922,-8.851,0.732,-16.846,0,0,0,
,-0.081,0.379,0.942,-16.663,3.479,-33.57,0,0,0,
,-0.08,0.42,0.914,-0.061,28.503,-27.466,0,0,0,
,-0.069,0.43,0.918,20.69,35.583,-38.819,0,0,0,
,-0.06,0.397,0.925,31.738,41.442,-40.955,0,0,0,
,-0.058,0.379,0.924,26.367,43.335,-41.81,0,0,0,
,-0.058,0.387,0.928,16.113,39.917,-39.978,0,0,0,
,-0.06,0.387,0.928,13.61,39.55,-41.321,0,0,0,
,-0.061,0.393,0.925,15.197,37.902,-45.594,0,0,0,
,-0.056,0.399,0.921,20.629,42.419,-47.73,0,0,0,
,-0.054,0.39,0.924,24.902,41.442,-52.063,0,0,0,
,-0.051,0.385,0.925,27.343,43.64,-54.322,0,0,0,
,-0.045,0.38,0.928,25.329,39.856,-61.524,0,0,0,
,-0.038,0.38,0.928,15.502,39.917,-79.834,0,0,0,
,-0.043,0.383,0.925,12.268,23.986,-81.788,0,0,0,
,-0.053,0.391,0.927,16.479,31.066,-78.614,0,0,0,
,-0.043,0.388,0.914,17.028,31.616,-97.962,0,0,0,
,-0.051,0.386,0.935,27.832,31.127,-76.783,0,0,0,
,-0.042,0.363,0.938,35.095,37.719,-85.144,0,0,0,
,-0.027,0.356,0.93,21.484,38.635,-62.317,0,0,0,
,-0.031,0.359,0.94,4.943,24.536,-75.623,0,0,0,
,-0.035,0.361,0.942,4.821,28.869,-70.252,0,0,0,
,-0.023,0.365,0.943,-5.738,32.714,-74.707,0,0,0,
,-0.038,0.384,0.941,2.868,29.357,-62.623,0,0,0,
,-0.046,0.359,0.942,0.915,34.118,-77.759,0,0,0,
,-0.038,0.362,0.94,11.596,49.255,-69.764,0,0,0,
,-0.02,0.361,0.941,13.183,50.72,-67.017,0,0,0,
,-0.021,0.358,0.944,8.239,52.002,-59.998,0,0,0,
,-0.028,0.349,0.943,5.371,49.682,-61.158,0,0,0,
,-0.019,0.337,0.949,-23.56,46.508,-58.35,0,0,0,
,-0.016,0.358,0.942,-42.603,45.532,-58.472,0,0,0,
,-0.014,0.365,0.921,-48.645,43.518,-59.998,0,0,0,
,-0.011,0.378,0.945,-49.012,36.865,-58.533,0,0,0,
,-0.019,0.373,0.914,-32.166,40.954,-55.603,0,0,0,
,-0.01,0.386,0.947,-30.701,44.86,-53.406,0,0,0,
,-0.01,0.354,0.945,-33.753,49.926,-58.96,0,0,0,
,0.005,0.348,0.975,-69.275,37.902,-58.594,0,0,0,
,-0.009,0.338,0.944,-79.834,47.607,-55.298,0,0,0,
,-0.011,0.34,0.963,-95.459,41.565,-52.185,0,0,0,
,-0.007,0.372,0.945,-72.937,64.575,-37.415,0,0,0,
,0,0.381,0.96,-28.077,72.631,-27.161,0,0,0,
,0.013,0.381,0.989,-15.503,47.119,-7.325,0,0,0,
,0.029,0.378,0.973,-61.341,20.08,6.713,0,0,0,
,0.014,0.401,0.992,-76.477,20.568,19.653,0,0,0,
,0.018,0.407,1.019,-80.201,28.564,19.836,0,0,0,
,0.056,0.43,1.09,-94.178,3.051,15.136,0,0,0,
,0.101,0.473,1.122,-298.279,-28.382,17.944,0,0,0,
,0.116,0.461,1.176,-400.208,-114.075,31.494,0,0,0,
,0.06,0.426,1.138,-544.739,-211.731,64.086,0,0,0,
,-0.017,0.439,1.041,-650.757,-278.016,69.946,0,0,0,
,-0.052,0.464,0.952,-676.453,-297.059,54.504,0,0,0,
,-0.048,0.437,0.891,-721.253,-275.147,24.108,0,0,0,
,-0.184,0.63,0.627,-1267.273,-337.281,96.984,0,0,0,
,-0.263,0.635,0.532,-1310.364,-281.006,122.07,0,0,0,
,-0.219,0.911,0.525,-1179.627,-275.696,232.666,0,0,0,
,-0.257,1.053,0.489,-732.911,-200.379,233.947,0,0,0,
,-0.335,0.957,0.484,-196.412,-69.519,205.261,0,0,0,
,-0.226,0.612,0.623,-21.363,68.542,172.058,0,0,0,
,-0.25,0.639,0.645,-125.855,80.749,162.414,0,0,0,
,-0.264,0.648,0.648,-151.246,121.521,140.014,0,0,0,
,-0.252,0.626,0.647,-151.734,159.546,101.867,0,0,0,
,-0.24,0.608,0.636,-164.368,188.354,69.03,0,0,0,
,-0.226,0.581,0.597,-179.139,216.98,35.034,0,0,0,
,-0.201,0.563,0.573,-187.867,235.656,6.652,0,0,0,
,-0.169,0.552,0.585,-214.6,236.328,-25.635,0,0,0,
,-0.134,0.597,0.627,-279.358,216.552,-43.763,0,0,0,
,-0.114,0.661,0.68,-306.092,181.457,-57.496,0,0,0,
,-0.104,0.699,0.704,-319.764,152.343,-76.722,0,0,0,
,-0.086,0.731,0.672,-328.614,109.619,-73.121,0,0,0,
,-0.045,0.697,0.611,-423.096,77.392,-77.515,0,0,0,
,-0.047,0.802,0.6,-481.873,37.17,-55.542,0,0,0,
,-0.068,0.872,0.595,-427.002,19.897,-50.721,0,0,0,
,-0.068,0.866,0.604,-372.254,21.667,-52.735,0,0,0,
,-0.032,0.968,0.523,-257.691,-5.066,-7.63,0,0,0,
,-0.033,0.885,0.572,-56.092,9.521,-61.463,0,0,0,
,-0.031,0.735,0.513,45.166,57.678,-55.237,0,0,0,
,-0.018,0.705,0.456,-34.79,58.837,-43.213,0,0,0,
,-0.051,0.847,0.449,-79.956,32.165,-21.058,0,0,0,
,-0.121,0.902,0.526,66.467,68.42,-37.659,0,0,0,
,-0.097,0.855,0.595,153.259,106.079,-30.152,0,0,0,
,-0.088,0.781,0.547,122.741,121.643,-5.982,0,0,0,
,-0.134,0.751,0.543,4.089,99.121,-15.076,0,0,0,
,-0.125,0.813,0.56,-71.595,92.651,-21.546,0,0,0,
,-0.148,0.877,0.619,-46.631,64.575,-29.48,0,0,0,
,-0.151,0.881,0.59,-1.831,76.66,-16.724,0,0,0,
,-0.125,0.881,0.557,24.78,67.688,-6.104,0,0,0,
,-0.118,0.913,0.583,72.387,59.265,10.131,0,0,0,
,-0.113,0.858,0.593,125.244,76.782,4.15,0,0,0,
,-0.106,0.817,0.59,166.198,88.989,13.549,0,0,0,
,-0.09,0.795,0.665,187.011,88.195,7.568,0,0,0,
,-0.102,0.796,0.691,154.113,76.965,7.08,0,0,0,
,-0.114,0.836,0.703,98.571,45.837,22.399,0,0,0,
,-0.121,0.86,0.693,45.471,22.399,38.757,0,0,0,
,-0.133,0.857,0.674,1.281,3.112,53.466,0,0,0,
,-0.129,0.853,0.675,-30.152,-19.898,69.03,0,0,0,
,-0.15,0.885,0.666,-21.546,-32.654,87.158,0,0,0,
,-0.19,0.896,0.688,36.377,-37.354,93.505,0,0,0,
,-0.204,0.917,0.704,102.111,-36.072,113.647,0,0,0,
,-0.214,0.912,0.715,179.626,-38.758,121.643,0,0,0,
,-0.222,0.868,0.693,208.923,-16.419,130.615,0,0,0,
,-0.207,0.793,0.683,175.171,-28.992,124.389,0,0,0,
,-0.219,0.775,0.654,145.874,-25.025,123.291,0,0,0,
,-0.226,0.795,0.647,158.142,-4.151,120.056,0,0,0,
,-0.223,0.789,0.635,196.594,13.427,109.619,0,0,0,
,-0.214,0.768,0.626,227.844,24.475,106.689,0,0,0,
,-0.205,0.764,0.608,316.711,38.574,98.938,0,0,0,
,-0.196,0.76,0.599,428.772,68.542,92.468,0,0,0,
,-0.181,0.72,0.608,496.154,91.43,86.792,0,0,0,
,-0.172,0.67,0.624,514.16,102.722,80.2,0,0,0,
,-0.171,0.644,0.658,502.807,109.741,62.805,0,0,0,
,-0.163,0.598,0.661,471.801,117.37,72.387,0,0,0,
,-0.156,0.583,0.69,434.387,119.262,61.462,0,0,0,
,-0.151,0.576,0.678,392.7,121.582,55.603,0,0,0,
,-0.157,0.59,0.701,364.013,125.732,51.696,0,0,0,
,-0.154,0.61,0.712,371.276,132.873,52.002,0,0,0,
,-0.156,0.631,0.726,411.132,148.193,54.931,0,0,0,
,-0.158,0.626,0.717,487.426,160.827,55.786,0,0,0,
,-0.145,0.607,0.729,566.04,181.396,56.64,0,0,0,
,-0.147,0.543,0.734,640.991,207.092,51.391,0,0,0,
,-0.14,0.494,0.772,680.542,225.769,51.391,0,0,0,
,-0.118,0.424,0.804,663.452,245.361,43.945,0,0,0,
,-0.092,0.397,0.848,585.449,247.802,46.63,0,0,0,
,-0.084,0.388,0.87,501.648,237.915,46.875,0,0,0,
,-0.094,0.386,0.9,421.875,227.966,40.1,0,0,0,
,-0.095,0.384,0.917,345.031,223.816,35.766,0,0,0,
,-0.082,0.378,0.915,305.053,211.425,35.583,0,0,0,
,-0.075,0.389,0.906,310.241,213.44,36.315,0,0,0,
,-0.066,0.381,0.901,322.876,215.576,32.775,0,0,0,
,-0.074,0.365,0.896,333.923,216.308,31.982,0,0,0,
,-0.077,0.368,0.938,360.839,214.416,30.944,0,0,0,
,-0.066,0.348,0.941,395.263,219.116,31.677,0,0,0,
,-0.04,0.324,0.947,428.222,217.773,36.499,0,0,0,
,-0.025,0.302,0.951,452.819,199.157,39.733,0,0,0,
,-0.031,0.261,0.944,449.34,192.566,35.034,0,0,0,
,-0.025,0.262,0.932,470.337,169.677,37.048,0,0,0,
,-0.043,0.282,0.954,520.141,166.137,40.832,0,0,0,
,-0.043,0.254,0.967,566.162,171.264,43.029,0,0,0,
,-0.025,0.217,1.01,607.971,162.231,47.485,0,0,0,
,-0.016,0.138,1.013,605.835,152.221,40.283,0,0,0,
,-0.005,0.061,0.995,547.912,126.526,34.606,0,0,0,
,0,0.093,0.984,487.548,103.637,28.137,0,0,0,
,0,0.052,0.986,456.726,103.027,19.836,0,0,0,
,0.012,0.027,0.992,430.175,105.041,13.671,0,0,0,
,0.029,0.026,0.993,392.395,95.275,14.343,0,0,0,
,0.028,0.006,0.999,355.468,89.477,10.192,0,0,0,
,0.028,-0.014,1.002,301.941,82.946,5.981,0,0,0,
,0.029,-0.024,1,177.795,62.622,-9.4,0,0,0,
,0.032,-0.021,0.982,145.996,67.016,-9.949,0,0,0,
,0.029,-0.01,0.994,142.089,64.758,-9.766,0,0,0,
,0.028,-0.003,0.994,156.555,69.702,-8.301,0,0,0,
,0.023,-0.004,0.993,173.339,68.115,-5.616,0,0,0,
,0.043,-0.06,0.979,185.058,66.833,-2.198,0,0,0,
,0.041,-0.086,0.981,154.052,53.161,-7.325,0,0,0,
,0.034,-0.073,0.97,129.333,45.837,-10.132,0,0,0,
,0.026,-0.055,0.984,124.328,43.518,-10.498,0,0,0,
,0.031,-0.05,0.982,135.62,53.527,-7.447,0,0,0,
,0.042,-0.054,1.001,161.499,60.18,-1.221,0,0,0,
,0.052,-0.082,1.003,170.776,59.509,0.305,0,0,0,
,0.057,-0.113,0.992,158.874,59.814,3.784,0,0,0,
,0.069,-0.11,0.987,145.568,55.969,11.23,0,0,0,
,0.067,-0.087,0.981,149.597,54.26,15.014,0,0,0,
,0.058,-0.082,0.994,176.757,58.898,21.118,0,0,0,
,0.076,-0.178,1.017,240.966,79.467,29.052,0,0,0,
,0.084,-0.202,1.022,195.556,67.932,28.198,0,0,0,
,0.082,-0.19,1.005,153.564,52.917,25.512,0,0,0,
,0.069,-0.172,1.003,140.014,54.748,20.202,0,0,0,
,0.076,-0.167,0.995,143.615,56.152,18.066,0,0,0,
,0.098,-0.201,0.976,190.49,53.894,22.461,0,0,0,
,0.095,-0.179,0.975,202.026,52.673,30.578,0,0,0,
,0.088,-0.194,0.958,219.909,61.279,31.433,0,0,0,
,0.091,-0.194,0.959,252.075,66.833,37.475,0,0,0,
,0.09,-0.215,0.973,289.734,75.5,41.565,0,0,0,
,0.096,-0.269,1.001,310.547,83.984,37.17,0,0,0,
,0.11,-0.3,1.007,285.278,72.753,32.653,0,0,0,
,0.114,-0.298,0.988,248.291,47.729,29.968,0,0,0,
,0.109,-0.221,0.954,260.864,24.719,37.597,0,0,0,
,0.102,-0.166,0.916,380.737,34.24,55.542,0,0,0,
,0.089,-0.201,0.901,528.442,81.176,71.228,0,0,0,
,0.104,-0.284,0.907,625.671,117.92,81.665,0,0,0,
,0.119,-0.416,0.933,626.098,143.554,75.073,0,0,0,
,0.135,-0.511,0.944,571.472,148.132,63.11,0,0,0,
,0.159,-0.534,0.962,439.392,124.511,48.584,0,0,0,
,0.161,-0.49,0.945,322.754,86.853,40.1,0,0,0,
,0.155,-0.373,0.906,304.809,60.607,48.584,0,0,0,
,0.143,-0.31,0.884,366.638,75.317,65.856,0,0,0,
,0.149,-0.352,0.904,465.271,106.506,81.176,0,0,0,
,0.172,-0.444,0.868,503.601,113.891,82.763,0,0,0,
,0.187,-0.502,0.852,507.324,103.942,84.228,0,0,0,
,0.186,-0.531,0.836,499.084,88.195,83.801,0,0,0,
,0.181,-0.502,0.794,519.47,82.214,90.271,0,0,0,
,0.167,-0.506,0.785,566.406,100.891,100.769,0,0,0,
,0.178,-0.532,0.786,625,131.103,109.863,0,0,0,
,0.198,-0.566,0.796,669.067,144.836,120.422,0,0,0,
,0.214,-0.593,0.779,693.115,145.507,129.516,0,0,0,
,0.217,-0.597,0.739,714.538,149.047,147.583,0,0,0,
,0.229,-0.598,0.676,766.052,162.963,161.071,0,0,0,
,0.234,-0.633,0.656,829.895,190.734,179.992,0,0,0,
,0.255,-0.671,0.632,863.159,211.303,192.566,0,0,0,
,0.258,-0.734,0.64,843.2,232.36,207.58,0,0,0,
,0.277,-0.785,0.633,753.845,234.741,213.745,0,0,0,
,0.286,-0.803,0.642,671.63,221.923,222.107,0,0,0,
,0.303,-0.821,0.646,603.881,211.486,218.139,0,0,0,
,0.327,-0.848,0.635,542.48,193.542,206.482,0,0,0,
,0.344,-0.841,0.636,476.44,150.512,197.143,0,0,0,
,0.343,-0.802,0.566,417.114,115.783,187.011,0,0,0,
,0.329,-0.799,0.543,368.713,89.904,174.499,0,0,0,
,0.336,-0.767,0.509,346.984,74.279,168.029,0,0,0,
,0.338,-0.813,0.488,345.337,77.27,144.348,0,0,0,
,0.354,-0.874,0.474,325.195,67.504,125.183,0,0,0,
,0.362,-0.905,0.475,278.076,53.894,100.83,0,0,0,
,0.365,-0.899,0.462,218.628,34.057,80.993,0,0,0,
,0.352,-0.898,0.47,161.071,23.925,62.316,0,0,0,
,0.369,-0.881,0.465,128.601,14.648,39.672,0,0,0,
,0.366,-0.867,0.445,111.389,13.366,26.184,0,0,0,
,0.381,-0.872,0.432,85.388,0.976,6.469,0,0,0,
,0.395,-0.858,0.415,71.472,-8.667,-11.597,0,0,0,
,0.392,-0.864,0.405,56.091,-12.452,-21.607,0,0,0,
,0.387,-0.876,0.393,33.752,-10.743,-35.523,0,0,0,
,0.382,-0.865,0.399,20.141,-11.963,-41.077,0,0,0,
,0.371,-0.845,0.4,12.939,2.746,-46.204,0,0,0,
,0.389,-0.861,0.407,-4.578,2.319,-53.467,0,0,0,
,0.387,-0.816,0.398,-10.254,-7.447,-51.27,0,0,0,
,0.384,-0.823,0.4,-6.897,6.591,-49.622,0,0,0,
,0.397,-0.857,0.408,-27.527,13.549,-57.679,0,0,0,
,0.428,-0.96,0.423,-108.643,17.273,-85.144,0,0,0,
,0.461,-1.049,0.423,-309.876,-11.719,-142.579,0,0,0,
,0.458,-1.118,0.463,-659.485,-54.932,-212.525,0,0,0,
,0.442,-1.118,0.447,-1014.1,-116.211,-281.8,0,0,0,
,0.401,-0.992,0.379,-1260.071,-143.738,-324.646,0,0,0,
,0.383,-0.927,0.371,-1402.894,-118.164,-364.258,0,0,0,
,0.429,-0.911,0.404,-1650.879,-91.675,-402.649,0,0,0,
,0.476,-0.896,0.472,-1921.57,-111.939,-412.293,0,0,0,
,0.465,-0.871,0.43,-2000,-140.931,-409.363,0,0,0,
,0.464,-0.725,0.523,-2000,-239.808,-363.709,0,0,0,
,0.427,-0.487,0.553,-2000,-333.069,-298.462,0,0,0,
,0.401,-0.231,0.641,-2000,-468.018,-267.334,0,0,0,
,0.354,-0.033,0.654,-2000,-535.218,-251.465,0,0,0,
,0.239,-0.018,0.653,-2000,-544.495,-214.478,0,0,0,
,0.161,0.048,0.654,-2000,-553.284,-173.645,0,0,0,
,0.106,0.092,0.787,-2000,-546.998,-156.25,0,0,0,
,0.096,0.006,0.865,-2000,-530.335,-127.442,0,0,0,
,0.135,0.127,0.683,-2000,-599.61,-72.876,0,0,0,
,0.107,0.273,0.587,-2000,-686.768,14.465,0,0,0,
,-0.006,0.585,0.372,-2000,-712.037,115.051,0,0,0,
,-0.087,0.776,0.427,-2000,-662.659,123.413,0,0,0,
,-0.1,0.799,0.404,-2000,-567.261,133.911,0,0,0,
,-0.047,0.736,0.379,-1929.505,-494.629,147.888,0,0,0,
,-0.043,0.786,0.315,-1708.375,-449.402,183.532,0,0,0,
,-0.092,0.86,0.434,-1610.23,-393.067,187.5,0,0,0,
,-0.106,0.874,0.385,-1531.434,-352.539,195.556,0,0,0,
,-0.114,0.995,0.327,-1334.29,-348.206,219.97,0,0,0,
,-0.152,1.159,0.255,-1029.908,-348.389,227.295,0,0,0,
,-0.198,1.159,0.346,-727.967,-318.36,220.764,0,0,0,
,-0.195,0.964,0.302,-493.958,-269.165,179.138,0,0,0,
,-0.158,0.895,0.211,-274.659,-266.419,94.726,0,0,0,
,-0.168,1.128,0.172,300.048,-250.55,63.171,0,0,0,
,-0.146,1.444,0.338,1109.802,-206.604,59.265,0,0,0,
,-0.139,1.401,0.474,1992.859,-134.4,75.378,0,0,0,
,-0.225,1.042,0.473,1999.694,-28.382,5.249,0,0,0,
,-0.273,0.491,0.571,1999.694,88.44,-161.377,0,0,0,
,-0.212,0.025,0.705,1997.802,101.501,-332.642,0,0,0,
,-0.085,0.124,0.825,637.634,-33.143,-312.195,0,0,0,
,-0.109,0.491,0.828,-513.062,-241.394,-278.077,0,0,0,
,-0.297,0.771,0.813,-950.196,-251.16,-246.033,0,0,0,
,-0.278,0.81,0.809,-1152.039,-205.14,-275.391,0,0,0,
,-0.157,0.707,0.76,-1287.293,-227.417,-296.875,0,0,0,
,-0.114,0.76,0.57,-1173.523,-297.486,-269.288,0,0,0,
,-0.17,0.953,0.392,-622.498,-258.057,-253.785,0,0,0,
,-0.195,1.103,0.387,-29.114,-110.291,-270.935,0,0,0,
,-0.169,0.987,0.398,345.825,22.766,-287.232,0,0,0,
,-0.191,0.787,0.439,417.358,88.562,-286.805,0,0,0,
,-0.15,0.863,0.592,284.484,95.336,-253.296,0,0,0,
,-0.104,0.88,0.624,85.266,82.946,-222.779,0,0,0,
,-0.124,0.831,0.631,-98.877,45.166,-175.477,0,0,0,
,-0.14,0.876,0.603,-247.681,5.127,-131.348,0,0,0,
,-0.147,0.891,0.526,-304.322,-1.404,-104.859,0,0,0,
,-0.164,0.943,0.479,-241.456,-0.306,-77.881,0,0,0,
,-0.173,0.987,0.449,-87.525,23.071,-59.632,0,0,0,
,-0.167,0.968,0.469,61.462,48.584,-49.012,0,0,0,
,-0.161,0.865,0.501,167.053,80.81,-38.514,0,0,0,
,-0.14,0.8,0.565,160.888,83.923,-37.049,0,0,0,
,-0.135,0.771,0.597,83.068,71.35,-35.401,0,0,0,
,-0.141,0.773,0.593,-19.898,54.87,-34.913,0,0,0,
,-0.139,0.819,0.599,-92.469,42.236,-29.419,0,0,0,
,-0.129,0.839,0.586,-92.286,44.25,-32.532,0,0,0,
,-0.111,0.827,0.555,-66.529,45.593,-34.424,0,0,0,
,-0.095,0.779,0.543,-55.298,53.588,-39.185,0,0,0,
,-0.103,0.816,0.57,-75.867,42.907,-44.922,0,0,0,
,-0.109,0.818,0.569,-83.802,38.879,-44.312,0,0,0,
,-0.117,0.826,0.599,-75.745,25.634,-49.073,0,0,0,
,-0.109,0.837,0.601,-48.768,12.695,-50.232,0,0,0,
,-0.113,0.815,0.581,3.234,5.737,-53.772,0,0,0,
,-0.112,0.8,0.583,36.071,-2.686,-63.294,0,0,0,
,-0.111,0.783,0.558,19.897,-3.296,-63.477,0,0,0,
,-0.104,0.799,0.581,-16.663,2.563,-70.191,0,0,0,
,-0.096,0.833,0.576,-67.444,0.732,-69.519,0,0,0,
,-0.095,0.865,0.572,-89.783,-6.531,-61.829,0,0,0,
,-0.097,0.881,0.564,-78.858,-5.249,-55.054,0,0,0,
,-0.063,0.858,0.541,-42.42,8.544,-53.467,0,0,0,
,-0.08,0.843,0.531,-9.949,22.583,-52.491,0,0,0,
,-0.07,0.841,0.535,27.404,31.799,-55.42,0,0,0,
,-0.044,0.741,0.545,61.34,68.481,-62.378,0,0,0,
,-0.124,0.863,0.564,-36.56,-11.109,-5.188,0,0,0,
,-0.147,0.844,0.555,42.846,33.02,-32.715,0,0,0,
,-0.068,0.866,0.562,91.796,23.498,-21.973,0,0,0,
,-0.084,0.909,0.574,164.917,9.704,-14.466,0,0,0,
,-0.11,0.85,0.578,226.989,16.967,-25.818,0,0,0,
,-0.076,0.816,0.562,194.641,12.146,-17.151,0,0,0,
,-0.072,0.824,0.599,201.477,-1.893,-8.179,0,0,0,
,-0.066,0.795,0.621,214.843,-3.724,-4.456,0,0,0,
,-0.071,0.805,0.634,225.219,30.334,13.977,0,0,0,
,-0.059,0.775,0.673,256.652,28.564,-4.456,0,0,0,
,-0.031,0.792,0.67,293.579,24.719,6.713,0,0,0,
,-0.028,0.765,0.673,326.049,22.827,-2.808,0,0,0,
,-0.017,0.679,0.679,272.827,31.799,-0.977,0,0,0,
,0,0.65,0.696,165.649,9.826,11.901,0,0,0,
,-0.004,0.673,0.724,87.646,-17.029,23.193,0,0,0,
,-0.005,0.689,0.727,95.214,-43.03,18.92,0,0,0,
,0.029,0.692,0.753,155.151,-72.754,12.451,0,0,0,
,0.067,0.742,0.73,189.819,-149.781,29.48,0,0,0,
,0.075,0.733,0.722,262.146,-195.557,41.015,0,0,0,
,0.083,0.624,0.668,246.704,-229.248,29.357,0,0,0,
,0.031,0.384,0.56,120.666,-253.785,-22.889,0,0,0,
,-0.059,0.35,0.585,-182.801,-345.032,-42.908,0,0,0,
,-0.148,0.481,0.637,-394.593,-397.156,-83.68,0,0,0,
,-0.237,0.609,0.651,-492.493,-429.688,-136.414,0,0,0,
,-0.313,0.638,0.612,-535.828,-415.955,-201.6,0,0,0,
,-0.331,0.577,0.561,-635.376,-384.278,-261.475,0,0,0,
,-0.312,0.579,0.513,-825.806,-404.297,-296.753,0,0,0,
,-0.326,0.661,0.438,-892.518,-410.706,-306.275,0,0,0,
,-0.341,0.792,0.409,-712.159,-374.878,-339.783,0,0,0,
,-0.305,0.958,0.425,-324.891,-272.889,-371.155,0,0,0,
,-0.263,0.963,0.355,241.76,-129.151,-406.434,0,0,0,
,-0.234,0.915,0.292,779.541,4.882,-419.129,0,0,0,
,-0.197,0.88,0.298,1204.589,118.774,-420.533,0,0,0,
,-0.156,0.868,0.417,1559.204,213.379,-422.547,0,0,0,
,-0.042,1.391,0.629,1955.444,23.62,-142.64,0,0,0,
,-0.17,1.436,0.874,1999.694,340.82,-96.924,0,0,0,
,-0.069,1.078,1.439,1999.694,371.338,-115.601,0,0,0,
,0.101,0.704,0.73,1237.243,270.019,-78.37,0,0,0,
,-0.162,0.42,0.775,1253.051,120.849,5.554,0,0,0,
,-0.207,0.279,0.842,1329.101,213.012,-33.326,0,0,0,
,0.012,0.301,0.982,1280.883,248.596,-93.873,0,0,0,
,0.161,0.139,1.157,974.304,268.31,-240.784,0,0,0,
,0.181,-0.569,0.826,284.668,13.61,-235.23,0,0,0,
,0.141,0.022,1.033,39.611,-97.107,24.047,0,0,0,
,0.122,0.09,1.015,23.315,-43.519,-24.231,0,0,0,
,0.078,0.187,0.935,-42.115,-76.844,-21.058,0,0,0,
,0.024,0.36,0.934,-76.172,-102.478,40.344,0,0,0,
,-0.047,0.361,0.967,-34.974,-54.261,47.851,0,0,0,
,-0.062,0.278,0.965,-51.697,-39.002,20.629,0,0,0,
,-0.058,0.285,0.957,-76.416,-27.039,25.085,0,0,0,
,-0.069,0.273,0.966,-97.535,-8.789,-1.038,0,0,0,
,-0.062,0.275,0.963,-114.014,-5.127,-12.757,0,0,0,
,-0.044,0.293,0.966,-124.268,15.869,-23.865,0,0,0,
,-0.023,0.285,0.959,-148.011,14.831,-21.302,0,0,0,
,-0.02,0.313,0.951,-163.941,1.403,-33.631,0,0,0,
,-0.006,0.283,0.967,-218.689,-15.625,-18.189,0,0,0,
,-0.041,0.384,0.962,-160.95,2.014,-7.63,0,0,0,
,-0.041,0.359,0.96,-148.926,-2.991,-26.917,0,0,0,
,-0.002,0.361,0.943,-152.894,-40.223,-29.908,0,0,0,
,-0.057,0.366,0.959,-99.305,-5.494,-20.63,0,0,0,
,-0.04,0.321,0.961,-89.6,-6.531,-29.602,0,0,0,
,-0.053,0.347,0.97,-70.435,-10.437,-31.25,0,0,0,
,-0.041,0.325,0.95,-69.275,14.099,-30.091,0,0,0,
,-0.026,0.358,0.943,-71.106,11.352,-30.823,0,0,0,
,-0.028,0.357,0.934,-79.163,7.507,-31.861,0,0,0,
,-0.027,0.34,0.935,-93.934,-2.564,-27.283,0,0,0,
,-0.042,0.369,0.945,-94.605,-13.428,-21.912,0,0,0,
,-0.046,0.36,0.947,-92.896,-10.498,-27.466,0,0,0,
,-0.052,0.377,0.929,-78.797,-15.076,-31.25,0,0,0,
,-0.06,0.373,0.946,-64.148,-3.846,-29.236,0,0,0,
,-0.094,0.369,0.933,-47.486,9.216,-29.48,0,0,0,
,-0.048,0.373,0.942,-38.147,13.427,-28.382,0,0,0,
,-0.033,0.374,0.929,-44.617,8.85,-30.701,0,0,0,
,-0.039,0.39,0.931,-43.519,8.544,-34.607,0,0,0,
,-0.035,0.376,0.926,-36.011,11.962,-33.509,0,0,0,
,-0.033,0.37,0.93,-35.279,6.103,-28.626,0,0,0,
,-0.044,0.366,0.931,-36.316,0.061,-29.541,0,0,0,
,-0.047,0.361,0.938,-39.978,-2.198,-30.579,0,0,0,
,-0.048,0.38,0.939,-35.462,-0.489,-31.8,0,0,0,
,-0.037,0.366,0.933,-54.383,-7.935,-46.021,0,0,0,
,-0.051,0.406,0.945,-26.856,1.098,-29.847,0,0,0,
,-0.046,0.381,0.925,-17.09,19.409,-38.392,0,0,0,
,-0.032,0.379,0.929,-17.395,10.437,-33.997,0,0,0,
,-0.046,0.376,0.929,-18.677,0.061,-30.945,0,0,0,
,-0.051,0.373,0.937,-16.053,6.774,-33.081,0,0,0,
,-0.041,0.356,0.932,-17.273,9.582,-29.786,0,0,0,
,-0.041,0.362,0.935,-22.889,-2.015,-28.321,0,0,0,
,-0.045,0.373,0.932,-27.588,-6.165,-30.823,0,0,0,
,-0.044,0.381,0.927,-34.18,-4.456,-28.565,0,0,0,
,-0.043,0.399,0.925,-31.861,-1.465,-26.917,0,0,0,
,-0.044,0.389,0.925,-27.894,2.136,-29.602,0,0,0,
,-0.049,0.38,0.929,-24.659,1.098,-28.626,0,0,0,
,-0.052,0.377,0.93,-27.649,-1.709,-30.884,0,0,0,
,-0.05,0.369,0.938,-27.1,-3.785,-24.842,0,0,0,
,-0.055,0.377,0.932,-26.917,0.427,-27.405,0,0,0,
,-0.052,0.383,0.935,-19.349,5.065,-36.866,0,0,0,
,-0.043,0.389,0.928,-16.419,13,-30.518,0,0,0,
,-0.039,0.385,0.922,-17.334,6.103,-37.232,0,0,0,
,-0.045,0.373,0.922,-40.589,-19.41,-45.533,0,0,0,
,-0.047,0.401,0.924,-33.081,-8.667,-18.189,0,0,0,
,-0.058,0.382,0.928,-20.02,-3.54,-24.231,0,0,0,
,-0.055,0.378,0.93,-18.433,4.882,-24.353,0,0,0,
,-0.053,0.379,0.931,-15.381,9.399,-23.865,0,0,0,
,-0.051,0.376,0.928,-13.123,7.69,-29.48,0,0,0,
,-0.043,0.382,0.93,-15.442,7.751,-26.856,0,0,0,
,-0.043,0.374,0.923,-25.94,2.685,-22.278,0,0,0,
,-0.047,0.383,0.928,-34.424,-7.874,-17.762,0,0,0,
,-0.053,0.392,0.925,-37.781,-9.644,-14.039,0,0,0,
,-0.06,0.377,0.929,-37.72,-9.217,-15.686,0,0,0,
,-0.059,0.392,0.932,-28.199,-4.273,-18.25,0,0,0,
,-0.054,0.375,0.932,-23.865,-1.099,-24.598,0,0,0,
,-0.057,0.385,0.932,-24.72,0.854,-23.743,0,0,0,
,-0.056,0.394,0.923,-22.583,4.516,-25.635,0,0,0,
,-0.055,0.391,0.926,-22.156,1.709,-24.842,0,0,0,
,-0.054,0.393,0.922,-23.316,2.014,-19.715,0,0,0,
,-0.053,0.392,0.924,-24.353,-2.808,-17.823,0,0,0,
,-0.054,0.382,0.928,-28.87,-8.606,-14.771,0,0,0,
,-0.066,0.389,0.929,-27.405,-9.949,-10.498,0,0,0,
,-0.071,0.39,0.93,-24.72,-0.977,-16.663,0,0,0,
,-0.07,0.39,0.932,-17.273,6.53,-25.757,0,0,0,
,-0.063,0.391,0.931,-8.851,14.038,-33.875,0,0,0,
,-0.058,0.396,0.925,-3.602,14.282,-34.79,0,0,0,
,-0.056,0.389,0.919,-24.476,-4.395,-19.043,0,0,0,
,-0.062,0.383,0.929,-23.743,-4.029,-19.104,0,0,0,
,-0.059,0.386,0.927,-23.072,1.22,-19.715,0,0,0,
,-0.061,0.385,0.927,-21.79,-0.367,-26.001,0,0,0,
,-0.065,0.383,0.927,-20.63,1.464,-23.499,0,0,0,
,-0.065,0.391,0.928,-22.706,2.075,-25.574,0,0,0,
,-0.064,0.402,0.917,-17.701,8.483,-23.926,0,0,0,
,-0.062,0.399,0.927,-14.588,4.76,-26.49,0,0,0,
,-0.06,0.39,0.922,-15.015,2.136,-23.133,0,0,0,
,-0.066,0.394,0.923,-14.649,-0.489,-21.363,0,0,0,
,-0.066,0.392,0.926,-11.292,0.793,-23.621,0,0,0,
,-0.06,0.384,0.925,-9.095,6.103,-25.818,0,0,0,
,-0.064,0.38,0.925,-11.17,1.953,-23.682,0,0,0,
,-0.064,0.373,0.925,-37.903,-12.513,-13.611,0,0,0,
,-0.074,0.408,0.93,-26.368,-8.484,-17.701,0,0,0,
,-0.077,0.397,0.923,-12.574,5.065,-27.466,0,0,0,
,-0.061,0.387,0.923,-15.503,5.249,-26.795,0,0,0,
,-0.063,0.399,0.931,-14.771,0.549,-24.292,0,0,0,
,-0.067,0.383,0.924,-13.977,8.117,-25.94,0,0,0,
,-0.063,0.388,0.927,-13.794,7.69,-23.987,0,0,0,
,-0.065,0.378,0.918,-16.175,5.798,-28.077,0,0,0,
,-0.066,0.39,0.935,-19.898,7.446,-27.161,0,0,0,
,-0.072,0.386,0.916,-25.879,2.99,-25.635,0,0,0,
,-0.071,0.436,0.925,-24.231,-0.061,-22.156,0,0,0,
,-0.071,0.396,0.916,-17.884,0.671,-24.537,0,0,0,
,-0.067,0.391,0.93,-16.419,8.728,-23.499,0,0,0,
,-0.067,0.384,0.926,-13.794,3.967,-30.762,0,0,0,
,-0.069,0.389,0.931,-11.78,7.812,-29.419,0,0,0,
,-0.064,0.387,0.929,-8.301,6.774,-31.128,0,0,0,
,-0.068,0.387,0.923,-10.987,5.493,-28.321,0,0,0,
,-0.068,0.399,0.924,-23.072,5.065,-23.804,0,0,0,
,-0.071,0.393,0.927,-19.898,7.141,-24.598,0,0,0,
,-0.071,0.395,0.924,-16.48,8.3,-23.926,0,0,0,
,-0.071,0.393,0.927,-10.01,9.887,-27.405,0,0,0,
,-0.067,0.382,0.924,-5.616,13.794,-31.128,0,0,0,
,-0.069,0.392,0.921,-22.583,3.295,-21.973,0,0,0,
,-0.074,0.399,0.923,-20.569,1.525,-22.461,0,0,0,
,-0.075,0.401,0.919,-17.212,7.629,-21.241,0,0,0,
,-0.078,0.396,0.927,-8.179,11.962,-27.283,0,0,0,
,-0.07,0.389,0.925,-4.578,16.113,-28.138,0,0,0,
,-0.066,0.38,0.927,-7.508,9.216,-31.617,0,0,0,
,-0.07,0.375,0.926,-11.658,8.239,-32.349,0,0,0,
,-0.068,0.383,0.928,-18.128,11.596,-28.382,0,0,0,
,-0.068,0.394,0.921,-17.701,6.958,-31.311,0,0,0,
,-0.071,0.397,0.924,-15.748,6.469,-26.123,0,0,0,
,-0.072,0.399,0.923,-14.71,9.887,-25.33,0,0,0,
,-0.074,0.387,0.931,-13.123,8.667,-28.748,0,0,0,
,-0.071,0.39,0.921,-11.658,15.564,-28.138,0,0,0,
,-0.075,0.382,0.934,-11.292,9.521,-35.401,0,0,0,
,-0.072,0.385,0.925,-7.569,18.981,-34.668,0,0,0,
,-0.066,0.381,0.928,-10.865,13.549,-38.514,0,0,0,
,-0.063,0.386,0.922,-15.259,12.085,-30.823,0,0,0,
,-0.068,0.386,0.926,-20.264,8.544,-27.466,0,0,0,
,-0.072,0.395,0.921,-22.095,5.249,-27.955,0,0,0,
,-0.075,0.399,0.927,-17.64,10.437,-27.161,0,0,0,
,-0.076,0.394,0.928,-13.428,11.413,-30.823,0,0,0,
,-0.068,0.386,0.929,-12.574,14.587,-33.448,0,0,0,
,-0.066,0.382,0.924,-12.269,12.573,-31.189,0,0,0,
,-0.063,0.389,0.933,-9.034,11.962,-30.579,0,0,0,
,-0.07,0.381,0.928,-13.245,10.681,-32.776,0,0,0,
,-0.07,0.385,0.929,-13.55,10.315,-29.541,0,0,0,
,-0.073,0.396,0.925,-17.395,12.329,-29.297,0,0,0,
,-0.07,0.391,0.925,-11.841,14.953,-30.152,0,0,0,
,-0.065,0.394,0.925,-11.353,12.634,-33.081,0,0,0,
,-0.063,0.38,0.927,-12.207,11.657,-31.495,0,0,0,
,-0.065,0.384,0.93,-14.1,13.305,-30.03,0,0,0,
,-0.067,0.386,0.925,-15.564,12.329,-29.725,0,0,0,
,-0.07,0.383,0.927,-13.916,13.549,-31.25,0,0,0,
,-0.068,0.393,0.926,-12.94,11.23,-30.762,0,0,0,
,-0.07,0.385,0.928,-12.391,13.122,-34.546,0,0,0,
,-0.068,0.394,0.921,-10.926,17.578,-31.189,0,0,0,
,-0.063,0.385,0.924,-11.658,10.131,-31.434,0,0,0,
,-0.068,0.389,0.927,-13.672,15.075,-29.297,0,0,0,
,-0.066,0.386,0.929,-10.132,12.451,-29.847,0,0,0,
,-0.067,0.378,0.928,-11.78,15.258,-31.617,0,0,0,
,-0.066,0.38,0.928,-12.94,13.244,-29.602,0,0,0,
,-0.068,0.382,0.933,-19.898,9.704,-31.678,0,0,0,
,-0.069,0.391,0.924,-20.752,6.836,-30.152,0,0,0,
,-0.068,0.394,0.924,-15.564,10.253,-30.03,0,0,0,
,-0.069,0.393,0.924,-12.146,14.282,-28.504,0,0,0,
,-0.069,0.377,0.926,-15.015,10.986,-30.945,0,0,0,
,-0.063,0.384,0.936,-17.884,6.897,-27.894,0,0,0,
,-0.068,0.385,0.926,-17.823,6.164,-29.236,0,0,0,
,-0.067,0.384,0.929,-16.663,8.3,-32.532,0,0,0,
,-0.062,0.387,0.927,-15.137,10.803,-30.823,0,0,0,
,-0.066,0.389,0.929,-11.841,4.516,-32.959,0,0,0,
,-0.07,0.391,0.927,-7.874,1.586,-33.875,0,0,0,
,-0.067,0.396,0.925,-4.273,-3.54,-37.049,0,0,0,
,-0.072,0.395,0.917,-1.831,-2.137,-34.852,0,0,0,
,-0.072,0.381,0.925,0.488,3.479,-38.514,0,0,0,
,-0.061,0.37,0.932,-5.249,6.042,-36.011,0,0,0,
,-0.065,0.37,0.922,-16.602,6.225,-31.739,0,0,0,
,-0.063,0.374,0.929,-32.959,-2.808,-28.321,0,0,0,
,-0.073,0.393,0.924,-24.964,7.324,-28.443,0,0,0,
,-0.07,0.388,0.931,-17.334,11.291,-28.26,0,0,0,
,-0.065,0.394,0.924,-14.466,13.916,-29.175,0,0,0,
,-0.072,0.388,0.926,-11.902,15.747,-28.199,0,0,0,
,-0.067,0.379,0.927,-14.405,16.723,-29.236,0,0,0,
,-0.068,0.382,0.93,-17.395,12.573,-28.443,0,0,0,
,-0.068,0.389,0.93,-12.818,12.878,-32.227,0,0,0,
,-0.065,0.392,0.927,-8.423,17.7,-33.081,0,0,0,
,-0.064,0.387,0.926,-7.935,15.686,-36.316,0,0,0,
,-0.063,0.377,0.927,-8.728,15.197,-34.485,0,0,0,
,-0.061,0.375,0.925,-18.738,13.061,-32.227,0,0,0,
,-0.065,0.385,0.929,-21.546,5.859,-27.771,0,0,0,
,-0.073,0.393,0.919,-19.349,14.343,-29.236,0,0,0,
,-0.067,0.389,0.927,-13.733,13.732,-31.861,0,0,0,
,-0.069,0.387,0.929,-9.522,14.282,-34.913,0,0,0,
,-0.065,0.38,0.928,-9.461,16.967,-37.903,0,0,0,
,-0.063,0.384,0.926,-11.109,18.676,-37.049,0,0,0,
,-0.063,0.379,0.925,-10.804,17.089,-36.56,0,0,0,
,-0.062,0.385,0.93,-14.222,13.61,-33.509,0,0,0,
,-0.066,0.392,0.927,-9.461,12.39,-31.25,0,0,0,
,-0.065,0.385,0.925,-2.076,17.395,-34.18,0,0,0,
,-0.063,0.379,0.928,-3.052,12.573,-36.316,0,0,0,
,-0.064,0.373,0.929,-7.081,12.451,-33.143,0,0,0,
,-0.065,0.373,0.933,-12.391,12.939,-30.091,0,0,0,
,-0.06,0.381,0.925,-14.283,13.183,-31.006,0,0,0,
,-0.094,0.384,0.924,-13.611,15.686,-29.541,0,0,0,
,-0.062,0.383,0.931,-15.381,14.648,-29.358,0,0,0,
,-0.062,0.372,0.931,-16.846,13.794,-28.443,0,0,0,
,-0.063,0.381,0.929,-19.593,10.009,-29.725,0,0,0,
,-0.062,0.384,0.925,-18.616,10.131,-28.87,0,0,0,
,-0.063,0.379,0.93,-24.72,7.629,-31.067,0,0,0,
,-0.059,0.385,0.926,-23.316,13.488,-30.091,0,0,0,
,-0.062,0.387,0.925,-19.532,13.855,-29.969,0,0,0,
,-0.058,0.38,0.931,-21.241,13.732,-31.922,0,0,0,
,-0.055,0.379,0.925,-23.682,12.573,-25.879,0,0,0,
,-0.055,0.379,0.929,-32.105,8.483,-25.086,0,0,0,
,-0.06,0.382,0.929,-36.866,6.347,-23.194,0,0,0,
,-0.062,0.394,0.925,-32.166,8.911,-21.302,0,0,0,
,-0.064,0.401,0.925,-22.706,8.117,-24.109,0,0,0,
,-0.07,0.391,0.928,-15.931,12.756,-28.138,0,0,0,
,-0.066,0.384,0.931,-13.306,12.756,-28.565,0,0,0,
,-0.058,0.376,0.932,-30.884,9.826,-29.053,0,0,0,
,-0.059,0.38,0.926,-23.316,10.253,-27.71,0,0,0,
,-0.058,0.389,0.924,-27.466,11.718,-26.246,0,0,0,
,-0.058,0.377,0.928,-28.626,8.422,-24.659,0,0,0,
,-0.06,0.381,0.928,-36.744,8.483,-22.034,0,0,0,
,-0.06,0.38,0.929,-40.162,11.108,-23.804,0,0,0,
,-0.062,0.385,0.932,-45.472,12.085,-21.973,0,0,0,
,-0.057,0.381,0.925,-51.331,12.023,-23.743,0,0,0,
,-0.055,0.384,0.928,-55.848,9.094,-17.029,0,0,0,
,-0.061,0.393,0.921,-61.097,8.972,-14.466,0,0,0,
,-0.068,0.414,0.924,-52.185,6.958,-15.32,0,0,0,
,-0.068,0.407,0.921,-40.589,9.704,-25.635,0,0,0,
,-0.063,0.401,0.918,-34.668,14.038,-27.344,0,0,0,
,-0.059,0.4,0.918,-32.41,10.192,-24.292,0,0,0,
,-0.061,0.401,0.916,-30.64,9.399,-24.72,0,0,0,
,-0.032,0.393,0.923,-33.57,7.385,-28.565,0,0,0,
,-0.065,0.404,0.919,-32.105,3.173,-29.48,0,0,0,
,-0.067,0.403,0.918,-30.762,2.685,-33.692,0,0,0,
,-0.069,0.421,0.92,-24.048,10.131,-34.607,0,0,0,
,-0.063,0.412,0.918,-15.015,13.61,-44.556,0,0,0,
,-0.055,0.4,0.922,-12.94,16.54,-43.396,0,0,0,
,-0.059,0.401,0.919,-17.823,14.038,-41.626,0,0,0,
,-0.065,0.387,0.931,-21.973,6.408,-37.964,0,0,0,
,-0.06,0.384,0.92,-34.363,8.789,-41.687,0,0,0,
,-0.051,0.387,0.924,-47.852,4.333,-36.072,0,0,0,
,-0.052,0.402,0.92,-52.674,-7.203,-34.668,0,0,0,
,-0.069,0.413,0.913,-62.623,-10.01,-37.476,0,0,0,
,-0.075,0.426,0.898,-53.833,2.075,-45.411,0,0,0,
,-0.068,0.432,0.919,-37.598,6.897,-59.388,0,0,0,
,-0.063,0.421,0.911,-18.616,16.296,-46.692,0,0,0,
,-0.07,0.401,0.916,-5.494,16.479,-43.763,0,0,0,
,-0.071,0.43,0.916,-8.301,33.935,-51.27,0,0,0,
,-0.062,0.416,0.915,8.972,43.518,-58.045,0,0,0,
,-0.055,0.413,0.914,13.061,46.264,-58.167,0,0,0,
,-0.051,0.405,0.917,14.953,39.978,-57.801,0,0,0,
,-0.051,0.401,0.917,13.549,38.574,-59.754,0,0,0,
,-0.052,0.409,0.901,14.221,40.466,-58.411,0,0,0,
,-0.056,0.406,0.931,16.113,42.114,-63.294,0,0,0,
,-0.051,0.399,0.909,19.714,46.386,-63.111,0,0,0,
,-0.045,0.408,0.94,23.925,46.325,-68.36,0,0,0,
,-0.047,0.401,0.919,30.212,54.443,-68.055,0,0,0,
,-0.04,0.4,0.928,31.555,53.649,-71.9,0,0,0,
,-0.032,0.393,0.917,35.4,51.513,-66.651,0,0,0,
,-0.024,0.39,0.923,31.494,45.898,-63.66,0,0,0,
,-0.023,0.382,0.921,28.686,41.931,-59.754,0,0,0,
,-0.022,0.381,0.928,14.831,33.691,-56.092,0,0,0,
,-0.016,0.372,0.932,-6.348,22.399,-56.214,0,0,0,
,-0.022,0.384,0.937,-21.363,17.639,-50.232,0,0,0,
,-0.038,0.377,0.943,-28.687,16.845,-45.899,0,0,0,
,-0.036,0.376,0.933,-41.748,30.334,-44.8,0,0,0,
,-0.029,0.374,0.955,-47.547,22.644,-50.293,0,0,0,
,-0.027,0.376,0.914,-77.21,30.7,-48.89,0,0,0,
,-0.018,0.395,0.942,-70.069,27.221,-53.345,0,0,0,
,-0.021,0.396,0.913,-63.172,42.175,-48.035,0,0,0,
,-0.022,0.404,0.936,-49.012,50.17,-42.481,0,0,0,
,-0.019,0.393,0.935,-60.791,61.096,-39.917,0,0,0,
,-0.006,0.385,0.952,-78.064,57.617,-41.565,0,0,0,
,-0.009,0.38,0.964,-79.895,55.114,-31.434,0,0,0,
,-0.005,0.384,0.977,-78.186,51.025,-14.222,0,0,0,
,0.003,0.393,1.003,-109.009,35.705,10.376,0,0,0,
,0.027,0.386,1.021,-144.776,20.446,17.028,0,0,0,
,0.09,0.467,1.085,-256.409,38.513,47.546,0,0,0,
,0.119,0.452,1.131,-366.822,-41.687,36.621,0,0,0,
,0.093,0.471,1.206,-416.687,-87.403,71.106,0,0,0,
,0.08,0.508,1.231,-471.009,-143.555,93.75,0,0,0,
,0.06,0.499,1.119,-619.751,-190.796,84.35,0,0,0,
,-0.009,0.416,1.014,-865.784,-260.682,78.613,0,0,0,
,-0.061,0.418,0.853,-1048.584,-315.369,108.886,0,0,0,
,-0.113,0.487,0.703,-1170.655,-300.843,105.896,0,0,0,
,-0.093,0.583,0.668,-1233.094,-331.055,120.605,0,0,0,
,-0.103,0.654,0.617,-1231.141,-293.03,119.323,0,0,0,
,-0.15,0.585,0.584,-1289.185,-263.672,68.298,0,0,0,
,-0.188,0.635,0.454,-1399.415,-243.348,149.78,0,0,0,
,-0.202,0.82,0.302,-1372.132,-245.423,235.595,0,0,0,
,-0.279,1.068,0.273,-1213.196,-206.849,218.017,0,0,0,
,-0.335,1.073,0.257,-799.927,-95.643,183.349,0,0,0,
,-0.319,0.978,0.236,-341.126,47.119,171.814,0,0,0,
,-0.27,0.842,0.249,-32.227,119.018,151.001,0,0,0,
,-0.253,0.791,0.272,53.894,152.71,151.855,0,0,0,
,-0.262,0.743,0.33,37.78,179.504,135.437,0,0,0,
,-0.278,0.716,0.39,-20.752,217.773,117.736,0,0,0,
,-0.266,0.721,0.471,-61.28,236.633,98.449,0,0,0,
,-0.254,0.714,0.514,-89.844,258.606,78.186,0,0,0,
,-0.24,0.708,0.533,-136.048,269.775,65.551,0,0,0,
,-0.226,0.732,0.548,-210.45,242.187,31.555,0,0,0,
,-0.223,0.703,0.545,-245.423,234.253,15.869,0,0,0,
,-0.211,0.71,0.554,-286.805,222.168,-6.043,0,0,0,
,-0.18,0.747,0.574,-352.234,188.781,-27.649,0,0,0,
,-0.172,0.793,0.573,-357.789,147.644,-41.81,0,0,0,
,-0.168,0.79,0.592,-336.121,132.202,-66.956,0,0,0,
,-0.136,0.768,0.558,-357.972,127.563,-74.463,0,0,0,
,-0.109,0.802,0.498,-412.537,108.886,-68.421,0,0,0,
,-0.103,0.871,0.447,-418.091,78.735,-71.351,0,0,0,
,-0.103,0.896,0.454,-346.436,67.26,-90.882,0,0,0,
,-0.085,0.929,0.477,-245.484,60.424,-96.009,0,0,0,
,-0.051,0.911,0.492,-133.057,62.072,-101.136,0,0,0,
,-0.049,0.877,0.419,-75.623,65.918,-95.032,0,0,0,
,-0.047,0.832,0.369,-74.524,73.913,-77.82,0,0,0,
,-0.037,0.998,0.354,-78.492,51.574,-51.819,0,0,0,
,-0.156,0.849,0.47,156.311,103.21,-91.675,0,0,0,
,-0.116,0.77,0.41,-9.766,101.074,-76.111,0,0,0,
,-0.129,0.776,0.332,-168.885,93.261,-48.523,0,0,0,
,-0.171,0.899,0.35,-232.239,67.138,-75.196,0,0,0,
,-0.126,1.054,0.459,-120.667,75.805,-80.384,0,0,0,
,-0.12,1.068,0.438,26.55,89.111,-55.848,0,0,0,
,-0.123,0.986,0.384,87.158,79.65,-36.683,0,0,0,
,-0.142,0.916,0.399,55.236,68.054,-21.18,0,0,0,
,-0.145,0.91,0.426,32.165,74.523,-14.771,0,0,0,
,-0.131,0.932,0.467,28.747,77.331,-9.461,0,0,0,
,-0.13,0.943,0.48,-2.442,65.856,1.892,0,0,0,
,-0.152,0.994,0.479,-33.875,39.123,35.339,0,0,0,
,-0.18,1.043,0.459,-2.808,29.235,61.889,0,0,0,
,-0.19,1.045,0.455,51.025,41.198,87.158,0,0,0,
,-0.17,1.006,0.445,70.617,42.541,103.149,0,0,0,
,-0.175,0.993,0.473,71.228,37.17,122.924,0,0,0,
,-0.189,0.964,0.476,69.397,38.452,138.061,0,0,0,
,-0.199,0.948,0.478,71.655,38.452,150.329,0,0,0,
,-0.196,0.959,0.483,75.744,36.56,161.377,0,0,0,
,-0.208,0.966,0.467,95.459,38.208,173.095,0,0,0,
,-0.221,0.981,0.471,133.422,46.997,179.199,0,0,0,
,-0.225,0.977,0.471,172.851,49.926,184.387,0,0,0,
,-0.239,0.927,0.463,229.919,64.941,186.096,0,0,0,
,-0.237,0.865,0.445,294.25,84.289,178.588,0,0,0,
,-0.22,0.849,0.461,346.74,102.6,166.015,0,0,0,
,-0.21,0.81,0.482,365.295,126.342,144.104,0,0,0,
,-0.204,0.796,0.495,367.492,130.859,129.211,0,0,0,
,-0.199,0.822,0.515,392.517,133.667,116.821,0,0,0,
,-0.202,0.807,0.499,454.895,148.437,107.116,0,0,0,
,-0.204,0.765,0.502,517.7,161.926,86.364,0,0,0,
,-0.18,0.755,0.519,553.833,180.114,77.758,0,0,0,
,-0.157,0.751,0.553,579.712,182.556,65.673,0,0,0,
,-0.155,0.721,0.582,563.415,195.617,55.664,0,0,0,
,-0.153,0.698,0.604,533.752,186.462,48.278,0,0,0,
,-0.168,0.664,0.593,513.366,197.021,42.053,0,0,0,
,-0.159,0.655,0.607,505.066,213.195,31.677,0,0,0,
,-0.123,0.67,0.64,478.332,218.444,29.663,0,0,0,
,-0.12,0.675,0.671,457.824,209.838,26.977,0,0,0,
,-0.14,0.689,0.704,454.773,207.946,31.066,0,0,0,
,-0.146,0.686,0.725,483.642,198.425,30.578,0,0,0,
,-0.166,0.61,0.687,506.225,208.313,28.076,0,0,0,
,-0.158,0.591,0.691,551.025,230.102,20.996,0,0,0,
,-0.12,0.585,0.738,587.097,237.976,10.315,0,0,0,
,-0.106,0.532,0.769,578.369,237.182,0.976,0,0,0,
,-0.114,0.515,0.802,530.578,225.463,-2.564,0,0,0,
,-0.121,0.515,0.826,483.337,215.637,-3.174,0,0,0,
,-0.116,0.509,0.832,465.881,207.885,1.464,0,0,0,
,-0.101,0.508,0.83,490.844,191.04,4.211,0,0,0,
,-0.104,0.496,0.84,566.345,186.462,3.051,0,0,0,
,-0.107,0.459,0.838,630.31,189.575,-5.249,0,0,0,
,-0.113,0.413,0.858,635.437,188.659,-11.353,0,0,0,
,-0.115,0.369,0.872,598.388,187.744,-16.907,0,0,0,
,-0.097,0.347,0.932,551.696,184.631,-22.706,0,0,0,
,-0.084,0.325,0.951,484.802,178.1,-23.072,0,0,0,
,-0.07,0.33,0.941,455.932,147.461,-23.804,0,0,0,
,-0.084,0.365,0.933,482.177,140.075,-18.86,0,0,0,
,-0.085,0.331,0.927,512.207,157.776,-23.316,0,0,0,
,-0.054,0.28,0.926,524.109,166.381,-19.288,0,0,0,
,-0.037,0.252,0.929,514.77,167.175,-14.649,0,0,0,
,-0.029,0.253,0.943,510.437,164.611,-10.804,0,0,0,
,-0.016,0.238,0.965,487.976,147.094,-13.306,0,0,0,
,-0.041,0.239,1.01,485.168,138.977,2.38,0,0,0,
,-0.026,0.238,0.984,523.071,158.996,8.178,0,0,0,
,-0.019,0.147,0.979,527.404,159.973,1.586,0,0,0,
,0.01,0.092,0.989,456.298,149.17,0.122,0,0,0,
,0.02,0.077,0.999,352.111,118.347,-1.282,0,0,0,
,0.004,0.093,0.989,293.701,100.28,2.441,0,0,0,
,0.02,0.147,0.998,313.964,98.938,7.446,0,0,0,
,0.016,0.128,1.008,351.989,117.859,7.995,0,0,0,
,0.024,0.114,1.005,375.244,106.689,17.517,0,0,0,
,0.015,0.065,0.994,401.55,106.933,26.062,0,0,0,
,0.012,0.052,0.989,418.823,113.342,24.719,0,0,0,
,0.019,0.011,0.987,408.752,110.29,24.841,0,0,0,
,0.027,-0.005,1.007,396.484,113.037,26.367,0,0,0,
,0.029,-0.049,1.022,365.295,110.717,15.869,0,0,0,
,0.042,-0.032,1.005,332.641,88.44,18.92,0,0,0,
,0.026,-0.024,0.991,329.04,83.19,17.089,0,0,0,
,0.031,-0.031,0.97,348.571,87.524,18.127,0,0,0,
,0.039,-0.057,0.968,363.83,110.901,18.249,0,0,0,
,0.069,-0.092,0.979,353.759,110.839,19.348,0,0,0,
,0.088,-0.131,0.99,328.613,113.098,20.996,0,0,0,
,0.097,-0.161,1.011,287.17,107.238,17.456,0,0,0,
,0.102,-0.158,1.016,239.563,88.562,19.714,0,0,0,
,0.085,-0.15,1.006,223.022,75.439,21.301,0,0,0,
,0.081,-0.155,0.992,213.134,75.439,18.005,0,0,0,
,0.077,-0.15,0.975,199.401,67.993,20.385,0,0,0,
,0.033,-0.155,0.983,202.148,72.998,20.446,0,0,0,
,0.072,-0.173,0.993,220.703,82.946,15.441,0,0,0,
,0.084,-0.206,0.997,222.29,84.533,13.061,0,0,0,
,0.083,-0.216,1.001,185.547,66.65,9.094,0,0,0,
,0.069,-0.205,0.988,161.926,57.739,3.54,0,0,0,
,0.071,-0.203,0.979,157.226,58.715,-0.794,0,0,0,
,0.085,-0.192,0.973,179.382,62.194,0.183,0,0,0,
,0.089,-0.176,0.961,234.924,61.157,6.591,0,0,0,
,0.087,-0.176,0.964,302.673,76.538,18.005,0,0,0,
,0.098,-0.212,0.958,355.774,81.604,24.169,0,0,0,
,0.084,-0.26,0.976,385.131,109.558,27.404,0,0,0,
,0.119,-0.329,0.97,332.58,104.614,22.644,0,0,0,
,0.135,-0.316,0.966,302.063,90.21,23.681,0,0,0,
,0.129,-0.318,0.964,295.593,89.172,28.198,0,0,0,
,0.133,-0.296,0.942,313.415,75.5,30.639,0,0,0,
,0.13,-0.301,0.925,352.234,80.078,38.269,0,0,0,
,0.135,-0.324,0.931,386.291,95.52,44.738,0,0,0,
,0.141,-0.381,0.927,393.921,101.501,44.982,0,0,0,
,0.149,-0.425,0.939,381.164,99.548,41.442,0,0,0,
,0.164,-0.414,0.918,376.159,84.35,46.02,0,0,0,
,0.153,-0.404,0.917,404.846,83.374,48.523,0,0,0,
,0.147,-0.382,0.897,462.158,98.083,59.265,0,0,0,
,0.148,-0.407,0.885,529.724,119.201,66.406,0,0,0,
,0.187,-0.548,0.869,517.151,120.178,64.086,0,0,0,
,0.193,-0.513,0.827,515.869,106.75,68.725,0,0,0,
,0.193,-0.487,0.812,568.359,112.426,83.923,0,0,0,
,0.204,-0.466,0.78,674.743,130.249,101.44,0,0,0,
,0.206,-0.511,0.777,779.297,160.949,119.14,0,0,0,
,0.219,-0.58,0.757,830.566,172.119,124.878,0,0,0,
,0.213,-0.684,0.75,797.668,179.626,120.178,0,0,0,
,0.232,-0.734,0.726,664.734,167.968,120.3,0,0,0,
,0.248,-0.768,0.706,608.52,163.879,103.759,0,0,0,
,0.263,-0.759,0.685,538.391,146.057,101.501,0,0,0,
,0.261,-0.689,0.612,493.286,126.587,83.862,0,0,0,
,0.267,-0.693,0.591,498.291,125.976,88.623,0,0,0,
,0.275,-0.725,0.583,512.024,142.028,83.984,0,0,0,
,0.288,-0.797,0.58,472.961,145.752,69.458,0,0,0,
,0.302,-0.831,0.589,404.174,130.005,66.528,0,0,0,
,0.309,-0.839,0.586,317.566,106.628,52.124,0,0,0,
,0.317,-0.813,0.589,262.878,86.669,43.884,0,0,0,
,0.318,-0.796,0.582,220.642,64.758,36.254,0,0,0,
,0.319,-0.793,0.547,191.162,50.231,28.747,0,0,0,
,0.338,-0.828,0.446,126.77,38.024,14.099,0,0,0,
,0.364,-0.896,0.485,38.513,-4.822,-20.386,0,0,0,
,0.375,-0.839,0.522,-9.949,-32.044,-40.772,0,0,0,
,0.338,-0.868,0.426,-60.303,-47.974,-78.797,0,0,0,
,0.339,-0.858,0.439,-109.681,-47.608,-100.037,0,0,0,
,0.345,-0.885,0.457,-189.515,-47.791,-136.536,0,0,0,
,0.354,-0.954,0.478,-334.778,-61.097,-183.411,0,0,0,
,0.335,-0.991,0.549,-547.791,-86.182,-232.178,0,0,0,
,0.312,-1.002,0.6,-801.026,-101.99,-282.166,0,0,0,
,0.294,-0.917,0.577,-1031.189,-153.748,-320.862,0,0,0,
,0.256,-0.799,0.565,-1347.657,-160.828,-359.559,0,0,0,
,0.284,-0.83,0.557,-1557.068,-155.579,-377.076,0,0,0,
,0.318,-0.797,0.588,-1833.252,-182.801,-393.555,0,0,0,
,0.33,-0.743,0.612,-2000,-235.352,-411.927,0,0,0,
,0.327,-0.624,0.633,-2000,-301.331,-403.748,0,0,0,
,0.307,-0.464,0.636,-2000,-385.987,-362.61,0,0,0,
,0.267,-0.178,0.682,-2000,-467.652,-288.147,0,0,0,
,0.208,-0.022,0.732,-2000,-489.075,-272.522,0,0,0,
,0.19,0.026,0.714,-2000,-461.06,-237.427,0,0,0,
,0.199,0.065,0.719,-2000,-474.427,-186.951,0,0,0,
,0.177,0.127,0.697,-1933.716,-484.62,-154.358,0,0,0,
,0.129,0.169,0.698,-1803.528,-463.746,-152.039,0,0,0,
,0.11,0.232,0.734,-1702.271,-441.224,-138.977,0,0,0,
,0.086,0.257,0.743,-1680.97,-456.36,-128.724,0,0,0,
,0.068,0.325,0.716,-1686.341,-508.118,-94.239,0,0,0,
,0.002,0.426,0.69,-1641.785,-562.806,-87.464,0,0,0,
,-0.091,0.511,0.69,-1566.285,-568.177,-108.643,0,0,0,
,-0.07,0.537,0.614,-1368.042,-516.48,-132.264,0,0,0,
,-0.063,0.591,0.562,-1323.853,-508.24,-133.851,0,0,0,
,-0.1,0.676,0.56,-1283.997,-502.625,-137.94,0,0,0,
,-0.164,0.76,0.536,-1227.601,-453.064,-137.024,0,0,0,
,-0.201,0.844,0.553,-1155.823,-392.823,-154.664,0,0,0,
,-0.214,0.927,0.567,-1047.242,-328.614,-160.157,0,0,0,
,-0.18,0.923,0.564,-921.204,-255.982,-162.476,0,0,0,
,-0.183,0.945,0.548,-794.068,-187.989,-166.748,0,0,0,
,-0.205,0.983,0.569,-652.161,-137.024,-179.383,0,0,0,
,-0.206,1.012,0.57,-527.405,-65.613,-198.914,0,0,0,
,-0.197,1.027,0.553,-415.467,-24.903,-206.238,0,0,0,
,-0.192,1.079,0.503,-318.177,-4.7,-187.561,0,0,0,
,-0.216,1.128,0.415,-238.526,14.282,-162.72,0,0,0,
,-0.249,1.092,0.386,-69.581,89.599,-127.564,0,0,0,
,-0.224,1.002,0.406,-15.809,120.3,-118.775,0,0,0,
,-0.2,0.919,0.448,-23.987,126.22,-112.61,0,0,0,
,-0.182,0.879,0.5,-76.844,114.318,-98.023,0,0,0,
,-0.172,0.901,0.513,-133.789,75.378,-83.802,0,0,0,
,-0.19,0.92,0.497,-148.377,50.415,-65.186,0,0,0,
,-0.195,0.926,0.482,-160.401,27.526,-50.843,0,0,0,
,-0.204,0.934,0.443,-163.269,16.479,-38.269,0,0,0,
,-0.218,0.9,0.417,-160.035,27.099,-40.039,0,0,0,
,-0.185,0.856,0.436,-177.308,37.78,-55.237,0,0,0,
,-0.152,0.884,0.44,-173.157,36.926,-53.528,0,0,0,
,-0.137,0.903,0.418,-130.86,33.02,-52.308,0,0,0,
,-0.02,1.021,0.506,-23.987,74.157,-50.049,0,0,0,
,-0.174,1.033,0.467,-129.395,-53.711,13.794,0,0,0,
,-0.192,1.015,0.463,-7.142,-3.724,18.005,0,0,0,
,-0.108,0.909,0.441,-57.557,3.051,20.568,0,0,0,
,-0.116,0.899,0.428,-112.427,-18.433,15.686,0,0,0,
,-0.13,0.947,0.416,-94.361,-24.659,20.874,0,0,0,
,-0.107,0.899,0.393,-60.73,-6.836,6.591,0,0,0,
,-0.088,0.914,0.392,-4.944,-13.733,2.929,0,0,0,
,-0.105,0.922,0.408,105.529,-3.174,-12.452,0,0,0,
,-0.081,0.966,0.419,220.825,17.883,-4.151,0,0,0,
,-0.106,0.86,0.385,305.297,38.147,-12.94,0,0,0,
,-0.132,0.874,0.505,256.958,17.395,-9.4,0,0,0,
,-0.141,0.921,0.456,181.579,8.361,20.629,0,0,0,
,-0.167,0.896,0.483,184.326,10.681,6.53,0,0,0,
,-0.177,0.879,0.501,166.504,10.437,5.554,0,0,0,
,-0.149,0.911,0.508,164.245,6.469,4.943,0,0,0,
,-0.123,0.905,0.528,182.19,8.3,-4.7,0,0,0,
,-0.036,0.911,0.594,237.793,-34.974,-5.494,0,0,0,
,-0.038,0.948,0.591,313.415,-54.322,18.249,0,0,0,
,-0.051,0.857,0.613,372.07,-27.71,-2.32,0,0,0,
,-0.025,0.732,0.572,305.236,-35.767,1.953,0,0,0,
,0.006,0.717,0.553,201.233,-77.515,11.291,0,0,0,
,0.028,0.741,0.549,132.812,-123.719,27.404,0,0,0,
,0.026,0.798,0.573,121.704,-164.429,40.161,0,0,0,
,-0.012,0.796,0.624,158.325,-220.948,39.428,0,0,0,
,-0.074,0.746,0.613,214.172,-234.925,20.568,0,0,0,
,-0.114,0.677,0.604,251.953,-246.46,-7.813,0,0,0,
,-0.145,0.619,0.56,217.956,-252.503,-40.711,0,0,0,
,-0.171,0.588,0.548,161.865,-252.259,-98.45,0,0,0,
,-0.197,0.611,0.542,23.925,-234.62,-133.728,0,0,0,
,-0.222,0.647,0.514,-140.625,-267.395,-172.486,0,0,0,
,-0.232,0.783,0.509,-32.898,-400.33,-192.688,0,0,0,
,-0.296,1.075,0.427,640.014,-396.363,-156.311,0,0,0,
,-0.286,0.527,0.491,1999.694,366.821,-370.911,0,0,0,
,-0.164,0.205,0.897,1999.694,434.997,-438.965,0,0,0,
,0.036,0.17,1.109,1999.694,275.94,-411.255,0,0,0,
,-0.269,0.185,0.715,545.593,262.085,-272.034,0,0,0,
,-0.155,0.242,0.821,-54.749,274.963,-268.433,0,0,0,
,0.021,0.388,0.929,-401.795,237.732,-236.451,0,0,0,
,0.105,0.563,1,-403.504,64.88,-131.104,0,0,0,
,-0.165,1.461,2.275,106.689,36.01,51.879,0,0,0,
,-0.11,0.51,1.056,-123.352,-54.444,-96.985,0,0,0,
,-0.211,0.199,0.581,-97.352,-71.595,42.663,0,0,0,
,-0.238,0.126,0.657,-175.477,-88.257,-53.162,0,0,0,
,-0.037,0.465,0.827,-11.658,-48.829,-10.376,0,0,0,
,-0.06,0.356,0.99,119.506,35.522,-60.608,0,0,0,
,0.01,0.308,0.966,-0.733,17.211,-66.834,0,0,0,
,0.001,0.286,0.912,-138.794,0.793,-61.463,0,0,0,
,-0.063,0.321,0.867,-220.643,-2.137,-40.223,0,0,0,
,-0.073,0.396,0.959,-194.886,9.887,-45.594,0,0,0,
,-0.047,0.442,1.091,-122.193,-8.789,-52.002,0,0,0,
,-0.066,0.395,0.974,-104.371,-5.616,-23.743,0,0,0,
,-0.089,0.408,0.903,-81.788,-15.564,-4.456,0,0,0,
,-0.092,0.391,0.926,-63.233,-2.076,-19.288,0,0,0,
,-0.076,0.401,0.921,-57.923,14.526,-12.452,0,0,0,
,-0.064,0.39,0.919,-61.89,30.334,-19.349,0,0,0,
,-0.054,0.383,0.932,-63.904,29.052,-22.339,0,0,0,
,-0.042,0.392,0.911,-86.243,19.348,-21.18,0,0,0,
,-0.049,0.42,0.911,-89.356,2.624,-13.001,0,0,0,
,-0.068,0.429,0.907,-74.097,4.577,-13.306,0,0,0,
,-0.078,0.418,0.915,-57.862,7.019,-14.832,0,0,0,
,-0.08,0.407,0.909,-57.679,10.925,-18.982,0,0,0,
,-0.081,0.42,0.917,-63.904,7.202,-18.494,0,0,0,
,-0.08,0.425,0.898,-59.449,8.483,-18.25,0,0,0,
,-0.074,0.435,0.915,-47.242,0,-20.508,0,0,0,
,-0.066,0.423,0.92,-37.842,4.76,-23.377,0,0,0,
,-0.057,0.431,0.907,-26.49,8.422,-16.419,0,0,0,
,-0.053,0.427,0.901,-17.945,0.183,-13.855,0,0,0,
,-0.069,0.405,0.918,-9.827,-5.066,-14.71,0,0,0,
,-0.08,0.397,0.919,-31.067,-11.719,-18.25,0,0,0,
,-0.079,0.416,0.91,-45.777,-13.001,-12.33,0,0,0,
,-0.079,0.433,0.911,-44.312,-5.188,-16.236,0,0,0,
,-0.07,0.429,0.908,-29.786,-0.733,-19.715,0,0,0,
,-0.057,0.432,0.918,-26.062,-8.545,-24.72,0,0,0,
,-0.064,0.432,0.91,-36.56,-13.245,-23.011,0,0,0,
,-0.08,0.451,0.897,-29.236,-11.048,-16.419,0,0,0,
,-0.086,0.441,0.908,-9.827,0.305,-18.067,0,0,0,
,-0.089,0.427,0.904,1.281,8.422,-16.846,0,0,0,
,-0.087,0.425,0.912,-1.16,9.033,-20.569,0,0,0,
,-0.076,0.417,0.901,-8.301,-6.043,-25.574,0,0,0,
,-0.073,0.427,0.919,-5.86,-5.494,-27.71,0,0,0,
,-0.073,0.425,0.908,-2.808,-0.55,-31.678,0,0,0,
,-0.064,0.423,0.912,-11.109,-3.907,-31.556,0,0,0,
,-0.073,0.424,0.91,-8.912,-6.592,-29.786,0,0,0,
,-0.082,0.413,0.915,-10.56,-1.954,-26.795,0,0,0,
,-0.089,0.419,0.91,-15.381,-5.005,-25.33,0,0,0,
,-0.093,0.423,0.909,-15.931,-3.174,-29.786,0,0,0,
,-0.084,0.43,0.909,-15.931,-7.569,-30.823,0,0,0,
,-0.08,0.43,0.905,-7.752,-8.118,-31.739,0,0,0,
,-0.075,0.422,0.91,2.197,-1.099,-35.645,0,0,0,
,-0.071,0.41,0.909,-4.517,-1.709,-33.448,0,0,0,
,-0.078,0.411,0.908,-18.616,-9.766,-30.518,0,0,0,
,-0.086,0.419,0.912,-21.241,-7.996,-29.175,0,0,0,
,-0.092,0.422,0.906,-19.471,-2.32,-26.612,0,0,0,
,-0.096,0.423,0.906,-16.968,0.732,-24.964,0,0,0,
,-0.096,0.423,0.905,-16.724,6.408,-25.879,0,0,0,
,-0.086,0.422,0.905,-15.381,10.803,-29.786,0,0,0,
,-0.078,0.422,0.911,-15.564,4.394,-28.382,0,0,0,
,-0.078,0.421,0.91,-15.198,4.15,-26.49,0,0,0,
,-0.08,0.413,0.908,-22.828,-0.306,-24.292,0,0,0,
,-0.093,0.426,0.908,-25.818,-14.527,-21.18,0,0,0,
,-0.097,0.428,0.908,-19.593,4.455,-22.461,0,0,0,
,-0.098,0.428,0.906,-12.513,5.249,-21.302,0,0,0,
,-0.092,0.432,0.911,-11.17,10.925,-24.17,0,0,0,
,-0.088,0.424,0.91,-7.325,8.178,-27.405,0,0,0,
,-0.083,0.416,0.911,-5.31,11.474,-28.748,0,0,0,
,-0.073,0.419,0.91,-7.935,3.112,-28.321,0,0,0,
,-0.082,0.416,0.91,-11.292,-1.221,-23.926,0,0,0,
,-0.089,0.415,0.91,-14.954,-1.038,-22.889,0,0,0,
,-0.091,0.421,0.911,-19.959,-4.395,-21.607,0,0,0,
,-0.092,0.424,0.908,-15.137,-3.846,-19.654,0,0,0,
,-0.094,0.419,0.911,-15.381,-3.113,-21.302,0,0,0,
,-0.091,0.423,0.907,-15.748,14.404,-22.828,0,0,0,
,-0.088,0.422,0.908,-15.564,3.051,-22.828,0,0,0,
,-0.089,0.422,0.914,-14.283,3.479,-24.781,0,0,0,
,-0.089,0.416,0.906,-17.884,5.554,-22.706,0,0,0,
,-0.086,0.419,0.908,-17.456,-1.404,-22.156,0,0,0,
,-0.093,0.416,0.913,-19.898,-3.846,-21.058,0,0,0,
,-0.098,0.422,0.909,-21.058,-3.357,-21.119,0,0,0,
,-0.099,0.436,0.906,-17.701,2.502,-21.058,0,0,0,
,-0.103,0.436,0.91,-9.156,12.939,-23.194,0,0,0,
,-0.091,0.423,0.908,-5.372,13.855,-25.33,0,0,0,
,-0.085,0.421,0.913,-11.597,6.286,-22.583,0,0,0,
,-0.089,0.424,0.911,-6.836,10.986,-22.278,0,0,0,
,-0.091,0.409,0.915,-1.16,8.3,-23.926,0,0,0,
,-0.092,0.409,0.919,-7.142,6.774,-24.781,0,0,0,
,-0.094,0.413,0.909,-17.945,2.258,-23.682,0,0,0,
,-0.097,0.422,0.911,-15.992,-4.029,-24.598,0,0,0,
,-0.1,0.424,0.908,-11.292,0.793,-24.292,0,0,0,
,-0.095,0.421,0.91,-7.019,2.38,-27.832,0,0,0,
,-0.09,0.418,0.91,-9.827,0.549,-27.161,0,0,0,
,-0.092,0.414,0.913,-13.367,-0.55,-26.368,0,0,0,
,-0.094,0.418,0.915,-14.405,0.732,-26.001,0,0,0,
,-0.097,0.415,0.909,-17.09,4.15,-24.414,0,0,0,
,-0.102,0.42,0.907,-15.87,3.234,-25.025,0,0,0,
,-0.1,0.422,0.91,-13.062,5.676,-26.185,0,0,0,
,-0.099,0.421,0.914,-12.391,4.211,-24.17,0,0,0,
,-0.094,0.426,0.91,-6.775,6.347,-25.025,0,0,0,
,-0.096,0.416,0.906,-9.766,3.662,-24.353,0,0,0,
,-0.097,0.421,0.911,-14.71,0.427,-19.227,0,0,0,
,-0.097,0.432,0.903,-13.001,1.831,-17.395,0,0,0,
,-0.101,0.424,0.904,0.061,7.69,-17.579,0,0,0,
,-0.097,0.408,0.917,5.065,11.108,-21.058,0,0,0,
,-0.102,0.396,0.919,-2.625,8.972,-20.02,0,0,0,
,-0.096,0.409,0.914,-17.334,3.54,-20.569,0,0,0,
,-0.095,0.418,0.906,-15.076,0.61,-17.945,0,0,0,
,-0.101,0.42,0.908,-6.409,-0.123,-17.64,0,0,0,
,-0.099,0.413,0.911,-4.822,2.868,-20.142,0,0,0,
,-0.099,0.411,0.922,-5.31,3.173,-20.935,0,0,0,
,-0.099,0.407,0.911,-13.428,0.549,-24.537,0,0,0,
,-0.106,0.416,0.915,-18.86,3.601,-21.424,0,0,0,
,-0.106,0.42,0.912,-15.442,0.488,-22.461,0,0,0,
,-0.103,0.415,0.911,-12.635,4.821,-22.889,0,0,0,
,-0.099,0.418,0.916,-4.883,7.507,-22.767,0,0,0,
,-0.1,0.411,0.913,-5.982,2.868,-24.476,0,0,0,
,-0.099,0.408,0.91,-13.062,2.99,-23.499,0,0,0,
,-0.098,0.419,0.909,-12.024,0.488,-23.743,0,0,0,
,-0.105,0.42,0.908,-8.179,-1.587,-22.95,0,0,0,
,-0.108,0.416,0.913,-5.982,-1.648,-20.752,0,0,0,
,-0.108,0.412,0.911,-7.203,2.441,-22.522,0,0,0,
,-0.105,0.407,0.918,-10.56,-0.245,-23.865,0,0,0,
,-0.11,0.404,0.909,-22.644,2.502,-27.588,0,0,0,
,-0.106,0.413,0.917,-22.278,5.188,-27.527,0,0,0,
,-0.103,0.411,0.908,-22.583,4.333,-29.053,0,0,0,
,-0.106,0.417,0.913,-20.447,8.728,-24.72,0,0,0,
,-0.105,0.416,0.909,-14.161,7.629,-25.879,0,0,0,
,-0.111,0.414,0.913,-12.574,10.376,-25.208,0,0,0,
,-0.104,0.417,0.913,-9.156,11.413,-26.49,0,0,0,
,-0.106,0.414,0.906,-10.498,7.568,-24.903,0,0,0,
,-0.11,0.412,0.917,-5.616,7.934,-27.161,0,0,0,
,-0.106,0.409,0.912,-10.376,13.122,-30.03,0,0,0,
,-0.105,0.412,0.916,-11.902,9.338,-27.832,0,0,0,
,-0.104,0.404,0.909,-17.273,7.873,-29.175,0,0,0,
,-0.103,0.412,0.913,-20.081,8.178,-29.175,0,0,0,
,-0.104,0.416,0.913,-12.94,8.789,-27.466,0,0,0,
,-0.105,0.412,0.912,-8.667,8.422,-29.236,0,0,0,
,-0.109,0.413,0.918,-6.897,10.986,-27.405,0,0,0,
,-0.11,0.406,0.915,-8.973,6.897,-28.87,0,0,0,
,-0.106,0.412,0.913,-14.527,8.422,-32.654,0,0,0,
,-0.106,0.41,0.913,-15.931,11.291,-30.03,0,0,0,
,-0.105,0.415,0.908,-14.466,9.704,-31.311,0,0,0,
,-0.101,0.409,0.914,-12.94,12.634,-31.434,0,0,0,
