TIMECODE,ACC_X,ACC_Y,ACC_Z,GYR_X,GYR_Y,GYR_Z,ECG_I,ECG_II,ECG_III,TAG
,0.901,-0.356,0.281,-47.73,40.344,-20.02,0,0,0,
,0.895,-0.346,0.278,-55.848,37.109,-29.908,0,0,0,
,0.885,-0.335,0.272,-55.542,30.761,-34.852,0,0,0,
,0.879,-0.324,0.267,-53.101,32.775,-41.321,0,0,0,
,0.883,-0.316,0.257,-45.716,36.377,-43.091,0,0,0,
,0.894,-0.311,0.255,-37.11,34.606,-40.65,0,0,0,
,0.893,-0.307,0.253,-28.931,27.954,-38.697,0,0,0,
,0.887,-0.302,0.259,-17.518,26.062,-32.776,0,0,0,
,0.883,-0.299,0.256,-3.357,26.611,-27.344,0,0,0,
,0.884,-0.299,0.258,15.564,31.921,-22.156,0,0,0,
,0.89,-0.303,0.256,27.587,34.301,-14.527,0,0,0,
,0.897,-0.306,0.262,42.48,36.743,-12.146,0,0,0,
,0.903,-0.314,0.263,53.955,33.02,-13.977,0,0,0,
,0.904,-0.324,0.264,63.293,29.602,-17.273,0,0,0,
,0.903,-0.335,0.267,61.645,27.526,-19.837,0,0,0,
,0.897,-0.336,0.27,55.114,29.357,-21.729,0,0,0,
,0.897,-0.34,0.271,51.94,32.898,-24.537,0,0,0,
,0.894,-0.34,0.271,44.738,33.691,-26.49,0,0,0,
,0.89,-0.342,0.271,33.081,36.621,-26.673,0,0,0,
,0.883,-0.341,0.271,20.568,36.315,-27.283,0,0,0,
,0.882,-0.339,0.266,10.498,38.452,-26.978,0,0,0,
,0.872,-0.339,0.267,4.211,38.635,-28.321,0,0,0,
,0.869,-0.342,0.269,-5.188,39.978,-26.978,0,0,0,
,0.878,-0.337,0.274,-7.142,39.306,-25.635,0,0,0,
,0.892,-0.335,0.278,-2.015,42.663,-24.353,0,0,0,
,0.913,-0.34,0.279,14.221,41.381,-26.246,0,0,0,
,0.926,-0.351,0.276,25.024,27.343,-29.419,0,0,0,
,0.926,-0.364,0.265,22.888,22.766,-33.875,0,0,0,
,0.914,-0.37,0.261,9.948,20.263,-38.392,0,0,0,
,0.905,-0.364,0.255,-8.545,17.395,-44.129,0,0,0,
,0.886,-0.344,0.251,-19.715,16.723,-47.669,0,0,0,
,0.878,-0.328,0.25,-22.583,20.629,-51.758,0,0,0,
,0.877,-0.321,0.249,-22.583,25.024,-50.049,0,0,0,
,0.884,-0.32,0.219,-30.518,30.456,-44.19,0,0,0,
,0.892,-0.317,0.254,-38.392,33.02,-33.753,0,0,0,
,0.896,-0.315,0.255,-27.955,35.461,-25.513,0,0,0,
,0.897,-0.329,0.253,-14.222,34.606,-25.574,0,0,0,
,0.903,-0.347,0.259,-10.804,34.24,-23.926,0,0,0,
,0.912,-0.359,0.254,-21.973,35.095,-26.368,0,0,0,
,0.913,-0.356,0.247,-34.302,30.639,-28.748,0,0,0,
,0.903,-0.35,0.243,-41.382,27.099,-32.593,0,0,0,
,0.901,-0.336,0.236,-43.396,30.639,-34.18,0,0,0,
,0.917,-0.333,0.233,-46.204,42.236,-29.847,0,0,0,
,0.957,-0.345,0.25,-53.406,56.091,-17.395,0,0,0,
,0.979,-0.355,0.264,-71.717,42.541,-12.391,0,0,0,
,0.945,-0.348,0.265,-88.501,14.282,-12.635,0,0,0,
,0.893,-0.33,0.259,-92.835,2.014,-23.316,0,0,0,
,0.878,-0.315,0.246,-81.177,13.183,-36.56,0,0,0,
,0.895,-0.302,0.238,-64.27,17.639,-44.861,0,0,0,
,0.898,-0.288,0.236,-45.899,11.901,-58.594,0,0,0,
,0.886,-0.285,0.238,-17.579,8.3,-63.904,0,0,0,
,0.871,-0.294,0.234,4.272,17.517,-60.181,0,0,0,
,0.868,-0.302,0.229,7.995,20.69,-49.5,0,0,0,
,0.865,-0.307,0.229,0.61,22.338,-35.218,0,0,0,
,0.869,-0.312,0.231,-4.395,23.925,-28.199,0,0,0,
,0.882,-0.321,0.244,4.76,29.541,-21.119,0,0,0,
,0.909,-0.338,0.25,23.01,36.377,-15.931,0,0,0,
,0.927,-0.358,0.258,28.015,31.86,-10.865,0,0,0,
,0.92,-0.374,0.259,13.061,27.099,-9.827,0,0,0,
,0.899,-0.375,0.26,-15.809,24.108,-13.855,0,0,0,
,0.89,-0.364,0.26,-34.302,23.742,-18.738,0,0,0,
,0.896,-0.359,0.253,-41.077,21.24,-33.57,0,0,0,
,0.904,-0.369,0.252,-51.087,17.211,-42.237,0,0,0,
,0.892,-0.369,0.249,-73.792,2.685,-50.843,0,0,0,
,0.872,-0.346,0.235,-88.562,-0.794,-46.021,0,0,0,
,0.864,-0.316,0.223,-75.989,3.234,-48.523,0,0,0,
,0.88,-0.305,0.215,-43.152,14.221,-48.279,0,0,0,
,0.92,-0.322,0.222,-8.362,19.592,-43.152,0,0,0,
,0.928,-0.341,0.229,-0.672,4.699,-38.086,0,0,0,
,0.903,-0.337,0.232,-8.606,-8.973,-28.016,0,0,0,
,0.881,-0.318,0.231,-2.808,-7.813,-31.25,0,0,0,
,0.886,-0.308,0.223,25.634,-0.184,-37.232,0,0,0,
,0.914,-0.323,0.231,43.64,10.07,-42.115,0,0,0,
,0.936,-0.339,0.242,33.691,12.573,-42.359,0,0,0,
,0.944,-0.337,0.264,8.056,16.113,-38.575,0,0,0,
,0.933,-0.326,0.268,-10.437,12.939,-36.866,0,0,0,
,0.917,-0.318,0.308,-17.701,12.634,-38.025,0,0,0,
,0.913,-0.321,0.282,-19.043,12.634,-46.265,0,0,0,
,0.913,-0.322,0.278,-29.908,10.925,-50.66,0,0,0,
,0.903,-0.316,0.276,-37.354,1.831,-55.726,0,0,0,
,0.881,-0.296,0.265,-34.852,-6.775,-60.059,0,0,0,
,0.862,-0.277,0.254,-23.926,-10.01,-59.449,0,0,0,
,0.862,-0.252,0.242,-3.907,-9.827,-54.139,0,0,0,
,0.872,-0.249,0.234,19.531,-8.851,-44.617,0,0,0,
,0.88,-0.253,0.228,50.476,-10.804,-35.584,0,0,0,
,0.884,-0.268,0.224,79.467,-9.4,-20.447,0,0,0,
,0.892,-0.287,0.22,107.116,-4.517,-1.099,0,0,0,
,0.904,-0.308,0.22,131.347,-2.137,15.808,0,0,0,
,0.908,-0.33,0.229,148.742,-5.677,29.296,0,0,0,
,0.904,-0.344,0.24,162.353,-8.057,34.484,0,0,0,
,0.9,-0.36,0.244,167.114,-4.822,34.973,0,0,0,
,0.902,-0.376,0.241,166.198,0.061,25.329,0,0,0,
,0.902,-0.394,0.24,150.573,0.976,12.695,0,0,0,
,0.891,-0.397,0.246,122.314,3.418,5.004,0,0,0,
,0.887,-0.384,0.252,97.412,7.873,-3.54,0,0,0,
,0.889,-0.373,0.259,90.271,11.169,-14.466,0,0,0,
,0.89,-0.345,0.266,83.313,10.253,-23.926,0,0,0,
,0.89,-0.388,0.271,61.34,12.207,-23.987,0,0,0,
,0.884,-0.385,0.268,31.433,19.226,-19.288,0,0,0,
,0.882,-0.372,0.271,10.253,22.766,-17.701,0,0,0,
,0.883,-0.366,0.266,6.408,28.259,-17.823,0,0,0,
,0.891,-0.372,0.267,3.112,31.372,-18.799,0,0,0,
,0.895,-0.378,0.263,-13.672,29.174,-20.386,0,0,0,
,0.891,-0.374,0.259,-35.767,29.113,-20.02,0,0,0,
,0.888,-0.361,0.256,-48.89,30.517,-24.353,0,0,0,
,0.89,-0.353,0.257,-49.622,27.587,-27.771,0,0,0,
,0.892,-0.348,0.255,-41.26,22.399,-31.739,0,0,0,
,0.888,-0.345,0.245,-39.49,18.066,-34.974,0,0,0,
,0.89,-0.34,0.243,-35.828,13,-33.875,0,0,0,
,0.893,-0.333,0.237,-26.612,10.07,-33.02,0,0,0,
,0.897,-0.329,0.236,-14.527,8.117,-31.006,0,0,0,
,0.901,-0.329,0.235,-3.113,3.662,-26.49,0,0,0,
,0.902,-0.333,0.234,5.249,-1.221,-22.706,0,0,0,
,0.901,-0.332,0.237,14.526,-2.198,-21.241,0,0,0,
,0.897,-0.333,0.245,25.573,-5.372,-19.654,0,0,0,
,0.9,-0.339,0.248,32.47,-3.907,-20.752,0,0,0,
,0.901,-0.345,0.249,29.724,-3.846,-22.156,0,0,0,
,0.937,-0.346,0.259,26.001,-5.799,-21.851,0,0,0,
,0.903,-0.347,0.258,18.493,-4.883,-23.133,0,0,0,
,0.902,-0.343,0.26,15.93,-5.005,-23.438,0,0,0,
,0.898,-0.342,0.258,10.315,-2.93,-24.842,0,0,0,
,0.901,-0.346,0.253,6.53,4.089,-26.062,0,0,0,
,0.91,-0.346,0.248,3.601,4.15,-27.1,0,0,0,
,0.901,-0.35,0.279,-3.663,-0.184,-26.062,0,0,0,
,0.895,-0.343,0.252,-6.592,0,-26.368,0,0,0,
,0.892,-0.346,0.249,-6.653,5.737,-27.283,0,0,0,
,0.893,-0.343,0.246,-7.569,4.455,-28.87,0,0,0,
,0.891,-0.339,0.244,-9.034,2.746,-28.382,0,0,0,
,0.886,-0.334,0.242,-8.118,2.136,-25.269,0,0,0,
,0.887,-0.328,0.243,-1.587,4.516,-23.255,0,0,0,
,0.89,-0.329,0.241,3.234,0.854,-20.935,0,0,0,
,0.892,-0.33,0.247,9.033,2.746,-15.381,0,0,0,
,0.895,-0.332,0.246,14.038,3.479,-12.757,0,0,0,
,0.9,-0.336,0.248,18.432,2.807,-10.01,0,0,0,
,0.898,-0.343,0.245,23.315,5.554,-10.987,0,0,0,
,0.9,-0.346,0.245,17.028,2.685,-11.841,0,0,0,
,0.896,-0.34,0.249,11.901,2.502,-13.123,0,0,0,
,0.893,-0.335,0.25,10.498,5.737,-14.954,0,0,0,
,0.9,-0.334,0.25,11.474,5.493,-15.381,0,0,0,
,0.899,-0.333,0.251,10.681,5.92,-14.222,0,0,0,
,0.895,-0.337,0.253,13.122,8.544,-13.062,0,0,0,
,0.893,-0.337,0.251,17.639,8.117,-12.696,0,0,0,
,0.89,-0.342,0.248,19.104,9.277,-12.574,0,0,0,
,0.889,-0.346,0.25,16.479,10.559,-13.306,0,0,0,
,0.893,-0.355,0.262,10.131,9.826,-11.963,0,0,0,
,0.894,-0.351,0.264,1.525,12.268,-8.789,0,0,0,
,0.893,-0.352,0.267,-5.799,9.399,-12.635,0,0,0,
,0.895,-0.356,0.257,-5.127,5.676,-15.931,0,0,0,
,0.894,-0.355,0.245,-12.269,3.112,-22.217,0,0,0,
,0.895,-0.351,0.247,-18.555,0.671,-26.429,0,0,0,
,0.894,-0.333,0.244,-18.677,3.234,-24.476,0,0,0,
,0.899,-0.321,0.241,-8.912,4.577,-26.429,0,0,0,
,0.9,-0.326,0.253,3.906,-3.235,-31.311,0,0,0,
,0.894,-0.328,0.25,2.99,-1.343,-24.598,0,0,0,
,0.897,-0.323,0.251,0.061,0.305,-22.278,0,0,0,
,0.9,-0.318,0.252,1.098,2.014,-20.447,0,0,0,
,0.902,-0.324,0.252,10.742,3.784,-20.691,0,0,0,
,0.905,-0.324,0.253,8.789,4.455,-20.142,0,0,0,
,0.906,-0.325,0.252,7.934,1.892,-19.837,0,0,0,
,0.902,-0.323,0.252,9.338,2.746,-21.851,0,0,0,
,0.9,-0.324,0.255,12.268,3.234,-21.363,0,0,0,
,0.896,-0.325,0.253,15.197,5.004,-20.02,0,0,0,
,0.897,-0.325,0.248,15.441,6.897,-18.86,0,0,0,
,0.897,-0.324,0.247,18.615,6.347,-17.456,0,0,0,
,0.896,-0.324,0.241,24.231,6.958,-13.977,0,0,0,
,0.901,-0.329,0.242,34.484,5.188,-13.916,0,0,0,
,0.899,-0.336,0.247,41.015,5.31,-14.283,0,0,0,
,0.897,-0.343,0.244,38.635,3.662,-13.733,0,0,0,
,0.901,-0.342,0.252,31.311,6.042,-13.489,0,0,0,
,0.903,-0.343,0.256,27.16,4.882,-16.175,0,0,0,
,0.9,-0.375,0.27,19.592,4.455,-18.189,0,0,0,
,0.896,-0.343,0.263,10.192,2.685,-21.485,0,0,0,
,0.892,-0.333,0.26,4.15,4.333,-23.804,0,0,0,
,0.891,-0.332,0.256,3.601,6.042,-23.865,0,0,0,
,0.891,-0.331,0.251,-2.747,7.629,-24.598,0,0,0,
,0.896,-0.33,0.25,-6.897,7.69,-22.706,0,0,0,
,0.894,-0.331,0.245,-4.944,10.925,-20.264,0,0,0,
,0.893,-0.336,0.242,-0.916,11.047,-21.058,0,0,0,
,0.898,-0.336,0.24,-0.306,12.39,-19.471,0,0,0,
,0.901,-0.338,0.237,-2.381,15.197,-21.546,0,0,0,
,0.904,-0.336,0.24,-3.724,14.587,-20.203,0,0,0,
,0.899,-0.334,0.245,-5.127,13.488,-22.706,0,0,0,
,0.891,-0.325,0.248,-8.362,15.258,-22.644,0,0,0,
,0.893,-0.322,0.254,-8.667,16.418,-22.156,0,0,0,
,0.899,-0.329,0.25,-8.667,23.681,-23.011,0,0,0,
,0.902,-0.328,0.253,-10.804,25.512,-22.217,0,0,0,
,0.901,-0.329,0.25,-11.048,22.277,-22.828,0,0,0,
,0.899,-0.331,0.242,-10.621,23.071,-23.194,0,0,0,
,0.898,-0.333,0.237,-16.236,22.583,-24.842,0,0,0,
,0.901,-0.33,0.237,-18.616,23.132,-25.086,0,0,0,
,0.899,-0.33,0.237,-13.977,22.522,-25.452,0,0,0,
,0.899,-0.332,0.244,-7.386,22.461,-25.818,0,0,0,
,0.9,-0.334,0.247,-4.029,21.972,-25.94,0,0,0,
,0.896,-0.337,0.25,-4.273,19.592,-26.185,0,0,0,
,0.891,-0.336,0.244,-4.517,16.662,-27.466,0,0,0,
,0.892,-0.337,0.247,-4.334,16.845,-27.466,0,0,0,
,0.895,-0.338,0.248,-6.653,18.92,-29.664,0,0,0,
,0.898,-0.337,0.25,-5.31,14.099,-29.541,0,0,0,
,0.898,-0.338,0.249,-2.747,14.038,-30.335,0,0,0,
,0.899,-0.337,0.245,-2.198,12.817,-32.593,0,0,0,
,0.897,-0.343,0.246,-9.217,12.207,-33.631,0,0,0,
,0.893,-0.338,0.246,-14.161,10.986,-36.194,0,0,0,
,0.896,-0.334,0.251,-12.94,14.221,-35.706,0,0,0,
,0.899,-0.333,0.251,-13.855,13,-36.988,0,0,0,
,0.893,-0.339,0.243,-19.593,8.789,-39.307,0,0,0,
,0.897,-0.346,0.254,-32.715,8.239,-34.79,0,0,0,
,0.898,-0.343,0.254,-44.495,-1.221,-40.894,0,0,0,
,0.89,-0.339,0.249,-47.974,2.624,-32.593,0,0,0,
,0.887,-0.321,0.244,-38.453,5.493,-32.837,0,0,0,
,0.888,-0.329,0.245,-19.715,7.69,-38.88,0,0,0,
,0.899,-0.341,0.248,-15.076,11.474,-38.819,0,0,0,
,0.9,-0.338,0.245,-18.006,7.629,-37.11,0,0,0,
,0.902,-0.35,0.256,-27.588,-3.052,-43.702,0,0,0,
,0.896,-0.338,0.252,-47.791,-0.55,-28.199,0,0,0,
,0.897,-0.335,0.253,-58.777,2.685,-31.495,0,0,0,
,0.9,-0.328,0.244,-43.641,6.713,-26.917,0,0,0,
,0.901,-0.326,0.244,-25.574,8.178,-26.307,0,0,0,
,0.897,-0.331,0.243,-5.677,10.498,-32.349,0,0,0,
,0.896,-0.335,0.243,0.671,11.962,-30.579,0,0,0,
,0.903,-0.342,0.249,4.821,6.469,-35.706,0,0,0,
,0.9,-0.346,0.261,-5.005,-2.076,-34.913,0,0,0,
,0.896,-0.338,0.252,-13.794,0.61,-30.762,0,0,0,
,0.895,-0.334,0.247,-6.531,6.469,-27.955,0,0,0,
,0.899,-0.336,0.25,6.774,8.239,-25.513,0,0,0,
,0.898,-0.338,0.25,14.282,7.385,-25.879,0,0,0,
,0.895,-0.346,0.248,12.146,5.432,-30.64,0,0,0,
,0.891,-0.344,0.254,5.676,4.821,-26.551,0,0,0,
,0.884,-0.34,0.256,1.648,7.812,-26.978,0,0,0,
,0.889,-0.339,0.258,2.746,9.216,-24.109,0,0,0,
,0.891,-0.338,0.261,7.568,8.728,-23.072,0,0,0,
,0.894,-0.344,0.263,5.676,5.249,-22.461,0,0,0,
,0.889,-0.357,0.263,-0.672,4.272,-21.302,0,0,0,
,0.887,-0.348,0.256,-10.56,4.577,-19.227,0,0,0,
,0.891,-0.339,0.251,-4.334,8.911,-15.931,0,0,0,
,0.9,-0.343,0.257,5.798,5.371,-21.729,0,0,0,
,0.901,-0.351,0.256,6.286,-0.611,-23.133,0,0,0,
,0.888,-0.346,0.257,-1.282,-2.015,-23.56,0,0,0,
,0.889,-0.337,0.257,-1.16,1.342,-22.828,0,0,0,
,0.894,-0.334,0.266,4.577,4.638,-22.278,0,0,0,
,0.899,-0.338,0.268,12.756,-0.55,-23.194,0,0,0,
,0.896,-0.338,0.265,9.826,0.793,-20.874,0,0,0,
,0.89,-0.332,0.261,9.277,2.746,-17.64,0,0,0,
,0.888,-0.325,0.251,16.784,6.164,-19.837,0,0,0,
,0.892,-0.329,0.257,25.817,5.249,-20.508,0,0,0,
,0.896,-0.337,0.257,33.264,3.723,-20.997,0,0,0,
,0.893,-0.337,0.252,25.329,4.028,-20.569,0,0,0,
,0.895,-0.336,0.257,26.489,-0.061,-17.395,0,0,0,
,0.892,-0.348,0.258,31.921,-2.381,-24.476,0,0,0,
,0.888,-0.355,0.258,24.597,-3.785,-24.903,0,0,0,
,0.885,-0.347,0.255,13.671,-1.16,-23.133,0,0,0,
,0.891,-0.338,0.259,13.244,3.173,-22.95,0,0,0,
,0.891,-0.333,0.26,17.761,2.441,-20.081,0,0,0,
,0.892,-0.328,0.265,25.085,2.075,-20.203,0,0,0,
,0.896,-0.335,0.26,31.066,2.99,-18.982,0,0,0,
,0.895,-0.34,0.257,28.32,-1.038,-19.227,0,0,0,
,0.893,-0.345,0.26,22.766,0.305,-18.921,0,0,0,
,0.897,-0.347,0.258,17.15,2.38,-19.104,0,0,0,
,0.894,-0.345,0.26,13.61,1.77,-19.654,0,0,0,
,0.894,-0.341,0.26,13.366,0.305,-21.912,0,0,0,
,0.896,-0.338,0.263,19.104,0.61,-21.607,0,0,0,
,0.89,-0.339,0.262,19.531,2.746,-22.278,0,0,0,
,0.892,-0.336,0.265,17.089,4.272,-19.593,0,0,0,
,0.893,-0.337,0.259,18.493,2.075,-19.959,0,0,0,
,0.892,-0.338,0.257,20.507,2.929,-20.874,0,0,0,
,0.89,-0.344,0.259,18.005,2.746,-21.851,0,0,0,
,0.891,-0.34,0.26,14.16,2.563,-18.555,0,0,0,
,0.892,-0.342,0.266,22.094,3.295,-22.461,0,0,0,
,0.89,-0.344,0.261,21.728,3.906,-20.02,0,0,0,
,0.891,-0.349,0.262,15.991,4.333,-18.311,0,0,0,
,0.893,-0.342,0.264,7.629,8.544,-16.724,0,0,0,
,0.894,-0.35,0.262,18.554,5.493,-21.363,0,0,0,
,0.892,-0.349,0.261,13.183,4.516,-19.288,0,0,0,
,0.894,-0.347,0.265,8.483,6.591,-18.494,0,0,0,
,0.893,-0.346,0.261,9.765,7.263,-19.532,0,0,0,
,0.886,-0.339,0.264,9.216,3.967,-21.424,0,0,0,
,0.885,-0.337,0.257,9.887,4.577,-22.278,0,0,0,
,0.881,-0.334,0.263,9.399,4.272,-23.56,0,0,0,
,0.882,-0.332,0.261,7.324,5.432,-21.058,0,0,0,
,0.891,-0.339,0.264,14.892,8.361,-19.349,0,0,0,
,0.89,-0.35,0.257,13.855,6.164,-20.63,0,0,0,
,0.888,-0.349,0.26,9.216,5.92,-20.569,0,0,0,
,0.891,-0.344,0.26,4.821,8.239,-19.898,0,0,0,
,0.891,-0.34,0.258,-0.245,7.446,-19.654,0,0,0,
,0.895,-0.336,0.26,-2.198,7.385,-17.762,0,0,0,
,0.897,-0.33,0.264,9.094,3.173,-18.25,0,0,0,
,0.899,-0.337,0.257,11.108,6.225,-18.616,0,0,0,
,0.901,-0.338,0.254,17.761,4.089,-18.555,0,0,0,
,0.896,-0.339,0.25,18.188,0.366,-23.987,0,0,0,
,0.89,-0.337,0.255,16.967,0.854,-25.513,0,0,0,
,0.893,-0.33,0.255,17.944,2.197,-26.307,0,0,0,
,0.898,-0.329,0.258,21.972,0.976,-25.33,0,0,0,
,0.894,-0.333,0.26,24.963,-2.32,-26.551,0,0,0,
,0.89,-0.337,0.259,25.329,-1.893,-24.414,0,0,0,
,0.891,-0.337,0.258,26.977,0.427,-23.499,0,0,0,
,0.889,-0.342,0.262,24.78,0.366,-23.865,0,0,0,
,0.886,-0.344,0.257,21.85,-1.709,-24.414,0,0,0,
,0.882,-0.345,0.239,10.864,0.305,-25.208,0,0,0,
,0.879,-0.354,0.229,-3.846,13,-24.842,0,0,0,
,0.887,-0.365,0.231,-35.584,28.747,-25.391,0,0,0,
,0.893,-0.361,0.235,-77.21,44.738,-24.72,0,0,0,
,0.888,-0.345,0.252,-137.757,54.992,-28.26,0,0,0,
,0.885,-0.328,0.278,-161.255,62.927,-28.687,0,0,0,
,0.883,-0.309,0.284,-162.171,63.171,-28.626,0,0,0,
,0.866,-0.292,0.276,-125.184,61.767,-27.466,0,0,0,
,0.859,-0.293,0.272,-79.163,65.673,-27.649,0,0,0,
,0.888,-0.32,0.256,-52.552,94.787,-11.536,0,0,0,
,0.942,-0.35,0.276,-63.355,102.234,2.807,0,0,0,
,0.951,-0.373,0.28,-92.164,84.167,5.798,0,0,0,
,0.994,-0.268,0.208,84.35,194.336,45.715,0,0,0,
,1.234,-0.413,0.361,143.798,308.532,50.415,0,0,0,
,1.338,-0.62,0.623,86.792,282.104,-37.415,0,0,0,
,1.342,-0.73,0.889,-93.75,369.384,-81.421,0,0,0,
,1.441,-0.64,1.06,-324.158,481.079,-245.118,0,0,0,
,1.706,-0.598,1.077,-636.841,620.849,-542.115,0,0,0,
,2.03,-0.737,0.963,-977.234,609.558,-851.502,0,0,0,
,2.314,-0.696,0.991,-1048.89,352.111,-967.041,0,0,0,
,2.332,-0.556,1.141,-842.347,-125.061,-1035.157,0,0,0,
,2.207,-0.481,1.332,-789.673,-512.269,-961.426,0,0,0,
,2.37,-0.771,1.502,-764.466,-888.428,-1058.411,0,0,0,
,2.563,-0.972,1.534,-844.605,-1506.531,-975.525,0,0,0,
,2.516,-1.182,1.514,-787.232,-2000,-980.286,0,0,0,
,2.544,-1.718,1.423,-435.364,-2000,-1116.517,0,0,0,
,2.163,-2.6,0.66,-720.765,-2000,-1679.261,0,0,0,
,1.691,-2.276,0.318,-1446.473,-2000,-1892.884,0,0,0,
,1.6,-1.788,0.003,-2000,-2000,-1957.947,0,0,0,
,1.747,-1.372,-0.391,-2000,-2000,-1808.35,0,0,0,
,1.77,-1.065,-0.558,-2000,-2000,-1490.784,0,0,0,
,1.649,-0.989,-0.631,-1999.878,-2000,-1409.119,0,0,0,
,1.431,-0.792,-0.781,-1915.04,-2000,-1342.774,0,0,0,
,1.172,-0.569,-0.868,-1758.912,-2000,-1261.902,0,0,0,
,0.988,-0.287,-0.955,-1606.019,-2000,-1159.852,0,0,0,
,0.809,0.038,-1.107,-1329.224,-2000,-1049.378,0,0,0,
,0.558,0.284,-1.246,-901.734,-2000,-970.215,0,0,0,
,0.29,0.425,-1.281,-482.178,-2000,-931.092,0,0,0,
,0.069,0.506,-1.31,-151.49,-2000,-889.527,0,0,0,
,-0.038,0.533,-1.227,29.052,-1608.704,-859.253,0,0,0,
,-0.036,0.508,-1.174,103.332,-1031.373,-768.25,0,0,0,
,0.041,0.602,-1.11,283.386,-463.318,-648.072,0,0,0,
,0.083,0.744,-1.018,518.921,99.67,-468.995,0,0,0,
,0.053,0.783,-0.936,560.608,585.083,-236.268,0,0,0,
,0.042,0.868,-0.853,470.703,947.204,-4.822,0,0,0,
,0.058,0.838,-0.735,325.988,1191.772,197.692,0,0,0,
,0.048,0.769,-0.658,175.476,1347.778,356.201,0,0,0,
,0.057,0.718,-0.599,48.95,1450.256,499.878,0,0,0,
,0.083,0.679,-0.555,57.312,1539.123,658.325,0,0,0,
,0.149,0.599,-0.495,204.345,1624.206,820.922,0,0,0,
,0.224,0.376,-0.433,433.471,1720.337,965.576,0,0,0,
,0.26,0.218,-0.437,764.221,1786.56,1109.314,0,0,0,
,0.287,0.136,-0.482,1160.461,1840.271,1295.349,0,0,0,
,0.308,0.017,-0.589,1617.736,1883.545,1494.323,0,0,0,
,0.524,-0.32,-0.573,1999.694,1998.779,1999.389,0,0,0,
,0.737,-0.583,-0.484,1999.694,1999.694,1999.694,0,0,0,
,0.896,-0.93,-0.441,1999.694,1999.694,1999.694,0,0,0,
,1.131,-1.165,-0.379,1987.732,1999.694,1999.694,0,0,0,
,1.191,-1.165,-0.44,1966.491,1999.694,1999.694,0,0,0,
,1.28,-1.125,-0.444,1773.986,1999.694,1999.694,0,0,0,
,1.411,-1.262,-0.318,1300.72,1999.694,1999.694,0,0,0,
,1.674,-1.536,0.477,769.226,1999.694,1999.694,0,0,0,
,1.938,-1.833,1.169,829.712,1999.694,1999.694,0,0,0,
,2.343,-1.739,1.277,1305.053,1999.694,1999.694,0,0,0,
,2.704,-1.422,0.303,1856.14,1999.694,1999.694,0,0,0,
,3.138,-1.761,-0.324,1999.694,1999.694,1999.694,0,0,0,
,3.498,-2.581,0.117,1999.694,1999.694,1999.694,0,0,0,
,3.296,-3.205,1.2,1021.179,1476.928,1867.981,0,0,0,
,2.512,-2.82,1.599,-462.464,1066.711,1598.755,0,0,0,
,2.161,-1.771,1.468,-1312.806,881.164,1133.789,0,0,0,
,2.32,-0.376,1.351,-1138.489,225.708,531.25,0,0,0,
,2.724,0.276,2.789,1503.173,-1047.364,-224.122,0,0,0,
,1.207,-1.802,1.855,1999.694,-1856.324,-1321.595,0,0,0,
,-0.013,-2.566,1.226,1527.221,-1025.025,-682.251,0,0,0,
,-0.145,-1.568,0.557,263.733,-171.509,-198.426,0,0,0,
,0.315,-0.755,0.239,-694.703,615.478,-2.381,0,0,0,
,0.793,-0.414,-0.225,-1297.73,620.91,87.402,0,0,0,
,0.913,-0.218,-0.393,-1062.562,262.512,20.019,0,0,0,
,0.707,-0.201,-0.304,-697.632,-169.8,93.933,0,0,0,
,0.47,-0.321,-0.173,-398.011,-148.926,77.636,0,0,0,
,0.812,-0.464,-0.107,-156.678,172.119,251.709,0,0,0,
,0.863,-0.556,0.014,-78.309,75.012,231.201,0,0,0,
,0.855,-0.662,0.149,-90.943,53.466,222.595,0,0,0,
,0.915,-0.686,0.306,-100.769,67.993,217.895,0,0,0,
,0.991,-0.671,0.363,-70.191,33.874,174.377,0,0,0,
,1.029,-0.625,0.387,-38.575,-56.275,132.263,0,0,0,
,1.007,-0.555,0.338,-11.536,-116.211,89.355,0,0,0,
,0.972,-0.49,0.285,15.991,-123.108,50.659,0,0,0,
,0.924,-0.431,0.183,14.77,-78.309,20.141,0,0,0,
,0.891,-0.408,0.171,-13.672,-44.8,-2.686,0,0,0,
,0.854,-0.42,0.185,-66.651,3.662,-9.705,0,0,0,
,0.798,-0.452,0.303,-76.05,8.239,-19.654,0,0,0,
,0.778,-0.511,0.29,101.623,-26.978,-42.481,0,0,0,
,0.771,-0.544,0.286,81.42,-26.307,-42.176,0,0,0,
,0.807,-0.56,0.285,49.743,-22.034,-33.265,0,0,0,
,0.819,-0.532,0.301,33.081,-38.025,-41.26,0,0,0,
,0.814,-0.553,0.322,34.118,-52.735,-36.683,0,0,0,
,0.817,-0.518,0.304,48.034,-53.345,-22.217,0,0,0,
,0.796,-0.467,0.257,75.195,-44.19,2.197,0,0,0,
,0.758,-0.435,0.218,96.862,-11.597,8.728,0,0,0,
,0.778,-0.521,0.229,-122.559,159.729,-1.404,0,0,0,
,0.844,-0.505,0.293,-222.718,146.545,-18.25,0,0,0,
,0.876,-0.446,0.356,-272.034,98.449,-15.686,0,0,0,
,0.858,-0.374,0.381,-209.778,57.251,-12.696,0,0,0,
,0.805,-0.346,0.322,-77.759,70.922,-17.151,0,0,0,
,0.799,-0.531,0.176,71.777,163.452,-41.443,0,0,0,
,0.811,-0.562,0.156,80.749,143.615,-80.323,0,0,0,
,0.799,-0.629,0.114,93.017,98.571,-105.469,0,0,0,
,0.781,-0.612,0.117,52.185,51.147,-83.558,0,0,0,
,0.775,-0.514,0.135,-3.418,30.456,-56.397,0,0,0,
,0.801,-0.528,0.216,103.576,22.033,-112.061,0,0,0,
,0.832,-0.576,0.205,100.28,3.601,-129.212,0,0,0,
,0.879,-0.625,0.181,128.479,-38.269,-135.682,0,0,0,
,0.904,-0.599,0.224,164.978,-121.338,-151.49,0,0,0,
,0.885,-0.577,0.277,176.33,-215.821,-175.843,0,0,0,
,0.822,-0.596,0.43,246.826,-464.051,-313.904,0,0,0,
,0.815,-0.605,0.324,229.736,-533.143,-307.679,0,0,0,
,0.819,-0.601,0.213,242.553,-627.625,-292.115,0,0,0,
,0.807,-0.54,0.19,383.728,-694.886,-221.619,0,0,0,
,0.759,-0.476,0.223,605.468,-679.749,-183.472,0,0,0,
,0.713,-0.536,0.231,748.962,-609.192,-161.805,0,0,0,
,0.706,-0.623,0.135,713.501,-497.498,-162.598,0,0,0,
,0.7,-0.691,0.063,456.054,-380.372,-164.795,0,0,0,
,0.719,-0.656,0.16,204.528,-349.366,-166.077,0,0,0,
,0.687,-0.635,0.159,11.84,-262.635,-155.945,0,0,0,
,0.685,-0.54,0.143,-53.162,-189.82,-123.352,0,0,0,
,0.7,-0.504,0.034,-37.171,-117.981,-107.605,0,0,0,
,0.738,-0.528,-0.004,-8.423,-107.85,-109.07,0,0,0,
,0.77,-0.597,0.071,-21.729,-167.664,-129.334,0,0,0,
,0.737,-0.602,0.16,-19.715,-209.229,-86.304,0,0,0,
,0.705,-0.578,0.149,-1.526,-173.584,-51.758,0,0,0,
,0.719,-0.576,0.131,54.321,-106.995,-33.204,0,0,0,
,0.757,-0.569,0.197,146.728,-86.06,-43.03,0,0,0,
,0.742,-0.662,0.251,174.316,-154.664,-64.881,0,0,0,
,0.682,-0.763,0.296,212.158,-165.894,-50.538,0,0,0,
,0.658,-0.751,0.273,232.055,-97.413,8.606,0,0,0,
,0.653,-0.655,0.193,339.05,-28.809,52.673,0,0,0,
,0.673,-0.655,0.188,425.109,25.634,58.715,0,0,0,
,0.69,-0.739,0.166,384.399,75.927,40.954,0,0,0,
,0.753,-0.847,0.238,202.27,102.295,-17.151,0,0,0,
,0.7,-0.869,0.292,-117.005,164.306,-77.515,0,0,0,
,0.75,-0.777,0.269,-285.584,225.647,-138.062,0,0,0,
,0.796,-0.777,0.272,-333.619,275.39,-169.8,0,0,0,
,0.9,-0.693,0.252,-329.102,244.384,-194.764,0,0,0,
,0.937,-0.696,0.306,-187.5,127.319,-220.459,0,0,0,
,0.911,-0.683,0.276,13.427,25.085,-188.66,0,0,0,
,0.869,-0.595,0.226,261.108,-57.068,-129.09,0,0,0,
,0.825,-0.544,0.207,486.938,-132.508,-79.041,0,0,0,
,0.757,-0.615,0.261,587.89,-162.476,-48.218,0,0,0,
,0.717,-0.611,0.266,538.94,-144.349,-13.062,0,0,0,
,0.73,-0.573,0.293,462.097,-116.456,2.746,0,0,0,
,0.72,-0.65,0.306,395.63,-83.741,5.92,0,0,0,
,0.795,-0.932,0.133,-26.429,11.474,-83.008,0,0,0,
,0.689,-0.665,0.248,-276.856,4.028,-51.575,0,0,0,
,0.762,-0.701,0.249,-242.493,13.366,-65.003,0,0,0,
,0.739,-0.741,0.297,-183.106,12.878,-72.022,0,0,0,
,0.771,-0.702,0.268,-119.08,7.202,-76.05,0,0,0,
,0.776,-0.798,0.219,-105.835,25.512,-85.267,0,0,0,
,0.785,-0.716,0.271,-112.915,32.714,-65.125,0,0,0,
,0.786,-0.62,0.284,-6.47,50.598,-29.664,0,0,0,
,0.807,-0.708,0.272,36.682,75.012,-33.509,0,0,0,
,0.806,-0.819,0.238,-39.429,82.519,-71.961,0,0,0,
,0.775,-0.823,0.184,-177.918,106.323,-107.85,0,0,0,
,0.753,-0.772,0.203,-316.407,138.122,-149.231,0,0,0,
,0.74,-0.671,0.224,-320.679,162.109,-157.288,0,0,0,
,0.722,-0.64,0.256,-180.359,172.729,-171.082,0,0,0,
,0.73,-0.712,0.236,-85.755,176.941,-191.834,0,0,0,
,0.743,-0.796,0.211,-146.851,183.41,-214.539,0,0,0,
,0.722,-0.811,0.193,-235.291,186.462,-234.436,0,0,0,
,0.712,-0.807,0.215,-320.252,180.359,-257.63,0,0,0,
,0.667,-0.803,0.231,-367.92,167.602,-278.138,0,0,0,
,0.655,-0.747,0.254,-331.116,146.301,-276.856,0,0,0,
,0.623,-0.681,0.234,-228.455,140.014,-256.226,0,0,0,
,0.606,-0.678,0.203,-101.868,155.883,-235.047,0,0,0,
,0.593,-0.755,0.165,-51.392,145.385,-235.169,0,0,0,
,0.582,-0.85,0.203,-120.911,146.24,-245.179,0,0,0,
,0.573,-0.825,0.26,-263.916,141.052,-239.808,0,0,0,
,0.549,-0.803,0.27,-385.804,144.287,-259.766,0,0,0,
,0.571,-0.772,0.246,-401.734,127.746,-252.564,0,0,0,
,0.575,-0.785,0.228,-344.361,112.304,-242.005,0,0,0,
,0.566,-0.755,0.176,-222.779,107.91,-219.422,0,0,0,
,0.55,-0.813,0.206,-107.789,103.881,-221.314,0,0,0,
,0.526,-0.867,0.286,-102.173,103.454,-223.511,0,0,0,
,0.516,-0.771,0.328,-146.119,95.275,-209.168,0,0,0,
,0.517,-0.754,0.304,-219.178,74.401,-230.957,0,0,0,
,0.513,-0.786,0.279,-271.424,71.96,-248.108,0,0,0,
,0.537,-0.827,0.235,-234.62,75.683,-244.263,0,0,0,
,0.504,-0.794,0.274,-203.003,97.473,-253.602,0,0,0,
,0.447,-0.83,0.367,-240.662,132.08,-244.019,0,0,0,
,0.482,-0.625,0.268,-291.871,126.464,-206.971,0,0,0,
,0.523,-0.55,0.279,-321.717,52.612,-233.277,0,0,0,
,0.478,-0.764,0.33,-152.894,7.934,-267.762,0,0,0,
,0.503,-0.887,0.376,-114.869,-45.716,-226.929,0,0,0,
,0.475,-0.639,0.464,40.71,-73.731,-168.152,0,0,0,
,0.413,-0.699,0.409,225.158,-55.298,-190.369,0,0,0,
,0.417,-0.789,0.383,248.291,-57.496,-198.365,0,0,0,
,0.439,-0.833,0.441,247.68,-63.721,-190.796,0,0,0,
,0.441,-0.844,0.395,204.223,-53.223,-189.087,0,0,0,
,0.459,-0.87,0.358,142.944,-68.116,-205.567,0,0,0,
,0.422,-0.852,0.375,176.941,-82.886,-197.571,0,0,0,
,0.415,-0.815,0.423,256.836,-80.689,-178.04,0,0,0,
,0.4,-0.866,0.476,280.212,-59.998,-176.453,0,0,0,
,0.355,-0.918,0.467,187.011,-31.861,-152.649,0,0,0,
,0.381,-0.907,0.406,83.252,-24.048,-151.429,0,0,0,
,0.361,-0.937,0.292,-28.26,10.559,-145.142,0,0,0,
,0.376,-0.896,0.169,-68.604,64.27,-106.751,0,0,0,
,0.341,-0.777,0.388,-59.144,63.232,-57.679,0,0,0,
,0.318,-0.687,0.41,19.104,95.336,-47.303,0,0,0,
,0.352,-0.678,0.372,266.601,83.984,-55.42,0,0,0,
,0.404,-0.832,0.294,399.17,83.984,-24.72,0,0,0,
,0.394,-0.908,0.301,270.63,45.349,-12.269,0,0,0,
,0.374,-0.813,0.297,127.258,41.626,20.263,0,0,0,
,0.399,-0.82,0.165,95.947,58.593,20.996,0,0,0,
,0.45,-0.848,0.285,14.038,25.024,-13.611,0,0,0,
,0.481,-0.869,0.332,-12.33,-14.771,-51.636,0,0,0,
,0.51,-0.857,0.338,26.123,-72.998,-61.951,0,0,0,
,0.502,-0.819,0.278,87.524,-114.624,-44.068,0,0,0,
,0.441,-0.837,0.201,270.324,-109.925,-69.703,0,0,0,
,0.434,-0.809,0.101,312.5,-95.459,-40.894,0,0,0,
,0.446,-0.835,0.025,325.805,-118.226,-99.793,0,0,0,
,0.443,-0.862,0.121,296.508,-192.322,-127.198,0,0,0,
,0.448,-0.807,0.213,418.335,-192.383,-76.416,0,0,0,
,0.451,-0.763,0.177,584.777,-193.665,-41.565,0,0,0,
,0.432,-0.752,0.147,824.707,-204.346,-29.053,0,0,0,
,0.436,-0.851,0.128,951.049,-211.182,-44.617,0,0,0,
,0.416,-0.975,0.17,861.816,-252.32,-60.975,0,0,0,
,0.379,-0.947,0.097,781.25,-235.047,-47.242,0,0,0,
,0.379,-0.874,0.13,772.033,-192.81,-17.64,0,0,0,
,0.374,-0.903,0.017,819.702,-133.728,-0.184,0,0,0,
,0.376,-1.024,-0.119,813.11,-77.759,-21.546,0,0,0,
,0.384,-1.168,-0.113,467.346,-103.211,-112.793,0,0,0,
,0.354,-0.984,0.122,191.528,-170.777,-8.24,0,0,0,
,0.392,-0.823,0.102,302.917,-156.739,1.831,0,0,0,
,0.458,-0.833,0.067,610.962,-229.371,-25.574,0,0,0,
,0.472,-0.982,-0.032,709.167,-227.662,-43.274,0,0,0,
,0.395,-1.252,-0.09,509.948,-214.783,-103.028,0,0,0,
,0.334,-1.023,-0.039,226.074,-161.377,-81.177,0,0,0,
,0.402,-0.764,-0.12,363.952,-87.281,-39.49,0,0,0,
,0.414,-1.116,-0.281,996.582,-167.603,-90.394,0,0,0,
,0.38,-1.017,-0.274,801.33,-164.185,-26.246,0,0,0,
,0.393,-0.813,-0.217,711.67,-142.762,-28.016,0,0,0,
,0.443,-0.711,-0.33,823.73,-128.174,18.066,0,0,0,
,0.462,-0.788,-0.414,980.102,-137.391,6.408,0,0,0,
,0.429,-0.852,-0.418,1028.32,-166.565,41.076,0,0,0,
,0.426,-0.85,-0.415,1038.696,-197.388,45.959,0,0,0,
,0.394,-0.852,-0.359,984.253,-190.308,8.972,0,0,0,
,0.407,-0.762,-0.362,964.477,-196.839,4.699,0,0,0,
,0.399,-0.863,-0.453,936.035,-218.75,-61.829,0,0,0,
,0.397,-0.917,-0.49,707.763,-206.971,-76.294,0,0,0,
,0.366,-0.81,-0.479,518.432,-182.74,-59.082,0,0,0,
,0.397,-0.693,-0.478,469.177,-134.522,-38.636,0,0,0,
,0.443,-0.708,-0.417,498.84,-129.456,-24.109,0,0,0,
,0.42,-0.761,-0.345,463.379,-119.08,-20.63,0,0,0,
,0.412,-0.813,-0.498,220.337,-89.417,-16.053,0,0,0,
,0.462,-0.78,-0.513,5.31,-73.548,2.197,0,0,0,
,0.478,-0.666,-0.437,-68.116,-58.167,51.269,0,0,0,
,0.471,-0.714,-0.47,-64.942,-31.556,72.57,0,0,0,
,0.482,-0.758,-0.526,-142.945,-3.113,76.232,0,0,0,
,0.476,-0.771,-0.555,-244.812,14.16,80.932,0,0,0,
,0.489,-0.667,-0.49,-260.071,-3.418,87.28,0,0,0,
,0.482,-0.709,-0.503,-294.007,-16.663,67.504,0,0,0,
,0.488,-0.716,-0.46,-286.133,-25.818,62.072,0,0,0,
,0.514,-0.695,-0.483,-113.77,-8.24,52.551,0,0,0,
,0.569,-0.738,-0.377,-24.048,-42.664,57.373,0,0,0,
,0.56,-0.775,-0.314,114.563,-71.778,68.847,0,0,0,
,0.48,-1.034,-0.438,-93.75,-13.672,-2.076,0,0,0,
,0.475,-0.872,-0.356,-411.866,35.278,-22.034,0,0,0,
,0.52,-0.693,-0.394,-547.181,91.247,16.845,0,0,0,
,0.536,-0.631,-0.455,-399.109,83.068,26.245,0,0,0,
,0.614,-0.667,-0.491,-44.739,89.538,58.227,0,0,0,
,0.587,-0.821,-0.467,153.808,21.667,15.808,0,0,0,
,0.486,-0.879,-0.417,121.093,-12.696,-11.109,0,0,0,
,0.499,-0.803,-0.4,83.679,16.479,-29.48,0,0,0,
,0.534,-0.827,-0.446,56.152,43.396,-66.773,0,0,0,
,0.505,-0.822,-0.498,63.232,72.753,-64.454,0,0,0,
,0.507,-0.76,-0.552,145.263,106.506,-50.904,0,0,0,
,0.52,-0.79,-0.572,219.97,103.454,-55.97,0,0,0,
,0.49,-0.774,-0.466,230.651,60.546,-60.608,0,0,0,
,0.467,-0.78,-0.531,216.613,90.576,-53.894,0,0,0,
,0.501,-0.793,-0.527,174.865,96.923,-59.876,0,0,0,
,0.481,-0.704,-0.575,152.404,98.083,-62.134,0,0,0,
,0.495,-0.667,-0.663,240.6,117.614,-47.791,0,0,0,
,0.519,-0.702,-0.65,353.759,99.365,-31.128,0,0,0,
,0.496,-0.64,-0.569,386.535,31.555,-54.505,0,0,0,
,0.505,-0.573,-0.533,533.264,13.427,-22.278,0,0,0,
,0.489,-0.709,-0.583,613.403,0.061,-49.744,0,0,0,
,0.444,-0.785,-0.562,537.841,11.23,-59.021,0,0,0,
,0.409,-0.713,-0.549,375.061,40.466,-64.331,0,0,0,
,0.428,-0.614,-0.625,335.632,71.838,-48.645,0,0,0,
,0.482,-0.655,-0.649,410.4,48.706,-35.706,0,0,0,
,0.463,-0.681,-0.594,484.192,23.498,-49.134,0,0,0,
,0.452,-0.732,-0.592,485.839,25.573,-61.097,0,0,0,
,0.441,-0.78,-0.62,393.371,22.644,-75.196,0,0,0,
,0.422,-0.731,-0.649,279.846,53.405,-74.158,0,0,0,
,0.432,-0.687,-0.733,228.82,78.247,-87.891,0,0,0,
,0.436,-0.606,-0.692,294.799,56.152,-99.732,0,0,0,
,0.438,-0.645,-0.58,322.509,54.504,-129.7,0,0,0,
,0.451,-0.686,-0.552,134.765,91.796,-112,0,0,0,
,0.364,-0.573,-0.745,-63.416,98.327,-112.305,0,0,0,
,0.489,-0.481,-0.637,102.966,170.654,-7.264,0,0,0,
,0.4,-0.72,-0.58,115.417,127.99,-22.583,0,0,0,
,0.314,-0.641,-0.595,-18.128,161.499,-30.152,0,0,0,
,0.415,-0.596,-0.614,-128.54,193.725,-21.851,0,0,0,
,0.435,-0.513,-0.603,-44.556,114.563,-24.598,0,0,0,
,0.409,-0.657,-0.698,-55.115,56.213,-68.36,0,0,0,
,0.366,-0.618,-0.713,-111.084,5.249,-81.91,0,0,0,
,0.377,-0.496,-0.609,-41.016,-11.597,-53.772,0,0,0,
,0.411,-0.634,-0.581,46.386,-8.789,-45.777,0,0,0,
,0.336,-0.718,-0.54,-112.305,-41.382,-54.749,0,0,0,
,0.338,-0.696,-0.607,-269.593,10.803,-26.001,0,0,0,
,0.409,-0.788,-0.678,-436.402,20.752,-45.105,0,0,0,
,0.426,-0.861,-0.692,-672.303,16.174,-51.331,0,0,0,
,0.409,-0.74,-0.614,-993.226,-11.841,-58.35,0,0,0,
,0.439,-0.644,-0.609,-1179.627,10.498,-101.99,0,0,0,
,0.463,-0.746,-0.576,-1079.102,39.489,-112.61,0,0,0,
,0.457,-0.81,-0.575,-1021.973,52.429,-110.596,0,0,0,
,0.468,-0.887,-0.654,-1000.916,87.524,-132.019,0,0,0,
,0.482,-0.938,-0.705,-1048.89,83.557,-162.659,0,0,0,
,0.494,-0.899,-0.574,-1028.199,62.866,-168.457,0,0,0,
,0.437,-0.861,-0.504,-983.765,65.612,-195.984,0,0,0,
,0.4,-0.845,-0.451,-841.858,96.74,-217.774,0,0,0,
,0.385,-0.902,-0.333,-744.812,133.911,-254.456,0,0,0,
,0.373,-1.001,-0.39,-838.685,181.64,-309.205,0,0,0,
,0.376,-1.05,-0.354,-854.493,231.201,-347.229,0,0,0,
,0.365,-1.091,-0.358,-931.519,261.474,-363.221,0,0,0,
,0.357,-0.926,-0.359,-932.435,253.967,-336.426,0,0,0,
,0.337,-0.899,-0.356,-824.83,249.023,-345.032,0,0,0,
,0.324,-0.969,-0.285,-711.426,254.15,-361.817,0,0,0,
,0.289,-1.011,-0.198,-696.289,261.047,-385.315,0,0,0,
,0.228,-0.955,-0.184,-706.543,249.633,-384.644,0,0,0,
,0.154,-0.859,-0.158,-616.517,233.642,-322.083,0,0,0,
,0.094,-0.761,-0.12,-530.152,226.379,-278.992,0,0,0,
,-0.001,-0.706,-0.051,-465.271,253.967,-223.999,0,0,0,
,-0.12,-0.583,0.106,-535.584,327.758,-141.541,0,0,0,
,-0.188,-0.499,0.194,-730.591,426.513,-10.682,0,0,0,
,-0.204,-0.657,0.224,-944.642,527.404,196.716,0,0,0,
,-0.152,-0.647,0.214,-1235.474,633.606,457.763,0,0,0,
,-0.133,-0.339,0.056,-1633.301,687.561,676.269,0,0,0,
,0.938,-1.096,0.606,-1000.611,542.297,703.918,0,0,0,
,1.247,-1.745,0.715,-392.029,284.057,460.449,0,0,0,
,1.214,-2.09,0.576,-182.373,93.994,210.693,0,0,0,
,1.017,-1.792,0.436,-186.524,-63.66,-191.651,0,0,0,
,0.762,-1.267,0.337,80.688,-211.731,-333.008,0,0,0,
,0.576,-1.035,0.274,391.113,-287.964,-470.704,0,0,0,
,0.217,-0.813,0.286,359.069,-254.273,-469.3,0,0,0,
,-0.218,-0.285,0.246,-204.224,-126.282,-350.708,0,0,0,
,-0.407,-0.051,0.179,-495.118,1.586,-182.251,0,0,0,
,-0.254,-0.081,0.136,-546.143,129.882,179.565,0,0,0,
,-0.093,-0.258,0.199,-455.628,236.511,500.305,0,0,0,
,0.15,-0.329,0.209,-224.305,237.609,723.266,0,0,0,
,0.479,-0.637,0.276,192.26,117.492,730.957,0,0,0,
,0.784,-1.363,0.489,543.579,-49.744,557.434,0,0,0,
,1.029,-2.043,0.609,422.912,-154.602,228.027,0,0,0,
,1.064,-2.036,0.544,-58.35,-144.471,-93.14,0,0,0,
,0.924,-1.605,0.403,-149.659,-153.931,-396.119,0,0,0,
,0.667,-1.229,0.326,115.295,-162.415,-618.592,0,0,0,
,0.405,-1.263,0.297,320.617,-144.532,-743.775,0,0,0,
,0.197,-1.138,0.318,73.12,-65.125,-762.879,0,0,0,
,0.044,-0.719,0.274,-322.693,39.184,-714.661,0,0,0,
,-0.07,-0.273,0.221,-480.652,123.108,-599.854,0,0,0,
,-0.227,0.111,0.232,-467.469,200.256,-401.246,0,0,0,
,-0.365,0.219,0.281,-478.577,274.292,-86.06,0,0,0,
,-0.206,-0.083,0.348,-410.706,335.937,293.518,0,0,0,
,0.076,-0.171,0.399,-331.727,372.314,638.977,0,0,0,
,0.514,-0.499,0.332,13.855,262.146,762.939,0,0,0,
,1.029,-1.19,0.444,554.077,45.41,624.206,0,0,0,
,1.293,-2.087,0.595,571.655,-105.896,223.632,0,0,0,
,1.194,-2.203,0.607,76.965,-43.885,-178.772,0,0,0,
,0.994,-1.64,0.441,-64.881,12.756,-498.597,0,0,0,
,0.694,-1.2,0.38,100.708,24.963,-707.642,0,0,0,
,0.346,-0.812,0.295,-125.123,107.36,-778.626,0,0,0,
,-0.122,-0.092,0.142,-717.713,226.623,-611.756,0,0,0,
,-0.476,0.322,0.138,-861.756,271.301,-361.695,0,0,0,
,-0.222,0.318,0.299,-541.26,314.148,161.01,0,0,0,
,-0.04,-0.051,0.34,-214.417,356.506,559.692,0,0,0,
,0.217,-0.225,0.22,77.636,302.063,777.038,0,0,0,
,0.579,-0.665,0.292,358.154,174.621,761.23,0,0,0,
,0.981,-1.462,0.595,453.857,61.95,504.089,0,0,0,
,1.153,-1.976,0.707,178.405,66.833,207.58,0,0,0,
,1.109,-1.839,0.634,-98.145,109.008,-114.808,0,0,0,
,0.96,-1.459,0.526,-127.808,63.964,-388.672,0,0,0,
,0.684,-1.213,0.53,-17.579,-16.968,-598.45,0,0,0,
,0.463,-1.049,0.488,52.673,-93.995,-648.621,0,0,0,
,0.114,-0.573,0.382,-310.059,-94.971,-568.604,0,0,0,
,-0.097,-0.033,0.265,-237.854,-101.624,-377.198,0,0,0,
,-0.274,0.214,0.237,78.308,-105.896,-39.368,0,0,0,
,-0.267,0.013,0.273,364.196,-66.895,283.447,0,0,0,
,0.367,-0.795,0.612,-37.781,271.85,619.018,0,0,0,
,0.989,-1.426,0.796,127.441,187.805,463.317,0,0,0,
,1.308,-1.899,0.752,-44.19,82.946,186.157,0,0,0,
,1.32,-1.842,0.741,-187.317,-6.104,-129.029,0,0,0,
,0.954,-1.494,0.619,-153.626,-92.53,-344.483,0,0,0,
,0.602,-1.048,0.552,-132.142,-146.912,-508.606,0,0,0,
,-0.093,-0.03,0.33,-642.334,-12.696,-406.189,0,0,0,
,-0.193,0.304,0.24,-385.132,-45.472,-121.705,0,0,0,
,-0.119,0.197,0.305,77.941,-116.517,305.359,0,0,0,
,-0.084,-0.214,0.376,308.593,-130.31,582.946,0,0,0,
,0.603,-1.166,0.566,856.506,-215.821,573.608,0,0,0,
,0.988,-1.997,0.599,746.154,-261.963,216.919,0,0,0,
,0.859,-2.037,0.598,200.866,-143.128,-66.468,0,0,0,
,0.746,-1.552,0.605,-20.997,-102.478,-327.759,0,0,0,
,0.565,-1.405,0.698,175.964,-154.969,-502.381,0,0,0,
,0.537,-1.343,0.645,229.065,-224.854,-613.831,0,0,0,
,0.509,-1.254,0.655,235.534,-317.994,-702.393,0,0,0,
,0.468,-1.068,0.576,188.537,-413.88,-756.226,0,0,0,
,0.28,-0.928,0.429,157.47,-490.662,-786.683,0,0,0,
,0.087,-0.642,0.229,-52.185,-482.483,-723.389,0,0,0,
,-0.197,-0.167,0.123,-366.761,-349.976,-587.037,0,0,0,
,-0.487,0.294,0.036,-520.997,-172.669,-372.559,0,0,0,
,-0.3,0.186,0.026,-303.345,284.973,565.246,0,0,0,
,-0.106,-0.132,0.27,-155.091,325.439,761.352,0,0,0,
,0.384,-0.752,0.62,406.433,205.383,887.756,0,0,0,
,0.96,-1.722,0.843,719.97,-15.015,772.216,0,0,0,
,1.187,-2.591,0.738,212.219,-131.714,413.391,0,0,0,
,1.02,-2.175,0.691,-264.1,-106.446,59.204,0,0,0,
,0.617,-1.533,0.533,-218.506,-118.348,-244.507,0,0,0,
,0.33,-1.001,0.412,-324.036,-83.191,-329.285,0,0,0,
,0.057,-0.568,0.36,-210.755,-56.824,-390.87,0,0,0,
,-0.171,-0.486,0.352,-208.374,-0.489,-270.752,0,0,0,
,-0.194,0.024,0.237,-460.144,109.192,-3.724,0,0,0,
,-0.299,0.211,0.246,-301.331,174.743,271.484,0,0,0,
,-0.185,0.147,0.273,-97.229,244.323,550.659,0,0,0,
,0.166,-0.326,0.342,211.12,269.592,761.23,0,0,0,
,0.685,-1.036,0.493,466.613,152.526,710.205,0,0,0,
,1.037,-1.63,0.624,449.096,18.859,495.544,0,0,0,
,1.121,-2.076,0.723,284.118,-36.316,173.156,0,0,0,
,1.046,-1.865,0.705,13.732,-28.565,-100.22,0,0,0,
,0.886,-1.614,0.589,174.865,-109.009,-397.95,0,0,0,
,0.668,-1.3,0.502,254.638,-156.189,-614.685,0,0,0,
,0.391,-1.012,0.375,218.75,-124.39,-716.065,0,0,0,
,0.11,-0.579,0.25,-32.105,-37.598,-593.934,0,0,0,
,-0.171,-0.052,0.151,-234.559,73.974,-372.925,0,0,0,
,-0.359,0.214,0.199,-299.988,197.265,-113.526,0,0,0,
,-0.33,0.273,0.278,-338.379,317.443,225.463,0,0,0,
,-0.04,-0.049,0.338,-159.974,385.803,552.246,0,0,0,
,0.237,-0.195,0.376,-48.096,391.906,797.302,0,0,0,
,0.636,-0.505,0.529,347.412,241.272,882.019,0,0,0,
,1.191,-1.324,0.715,825.012,-40.772,704.284,0,0,0,
,1.539,-2.197,0.682,754.76,-202.881,286.499,0,0,0,
,1.371,-2.269,0.618,246.276,-183.838,-176.331,0,0,0,
,1.062,-1.802,0.535,-14.893,-169.678,-565.979,0,0,0,
,0.803,-1.21,0.47,102.539,-143.555,-894.043,0,0,0,
,0.433,-0.872,0.216,124.694,-58.533,-968.689,0,0,0,
,-0.012,-0.502,0.025,-180.97,114.013,-797.791,0,0,0,
,-0.54,0.11,0.016,-572.327,290.039,-443.299,0,0,0,
,-0.726,0.423,0.184,-556.946,426.574,-105.103,0,0,0,
,-0.341,0.101,0.349,-365.479,515.197,372.314,0,0,0,
,-0.07,-0.091,0.326,-224.732,511.596,630.371,0,0,0,
,0.292,-0.248,0.385,24.108,389.648,759.704,0,0,0,
,0.82,-0.977,0.58,569.275,118.896,688.354,0,0,0,
,1.328,-2.101,0.718,635.742,-136.719,298.339,0,0,0,
,1.413,-2.407,0.668,88.44,-141.358,-61.524,0,0,0,
,1.145,-1.846,0.538,-6.104,-127.076,-462.159,0,0,0,
,0.859,-1.428,0.472,-10.315,-127.747,-697.144,0,0,0,
,0.634,-0.944,0.364,131.408,-108.887,-862.854,0,0,0,
,0.194,-0.691,0.291,26.001,12.878,-833.252,0,0,0,
,-0.179,-0.306,0.264,-441.163,193.237,-671.814,0,0,0,
,-0.352,0.14,0.221,-655.823,321.106,-373.536,0,0,0,
,-0.294,0.279,0.398,-477.784,378.234,-20.935,0,0,0,
,0.025,-0.111,0.473,-133.728,389.648,307.19,0,0,0,
,0.506,-0.583,0.404,249.572,289.734,426.88,0,0,0,
,0.947,-1.112,0.456,514.831,102.234,330.566,0,0,0,
,1.24,-1.827,0.542,301.147,-1.648,-52.369,0,0,0,
,1.1,-1.846,0.505,-135.621,37.963,-331.665,0,0,0,
,0.781,-1.28,0.428,-236.39,52.551,-440.674,0,0,0,
,0.474,-0.715,0.348,-116.7,47.668,-516.053,0,0,0,
,0.057,-0.297,0.227,-204.346,126.892,-502.93,0,0,0,
,-0.357,-0.108,0.193,-378.418,227.905,-290.406,0,0,0,
,-0.331,0.028,0.244,-326.966,276.611,98.693,0,0,0,
,-0.13,-0.084,0.39,-313.172,319.763,432.312,0,0,0,
,0.098,-0.31,0.395,-4.029,311.279,649.78,0,0,0,
,0.504,-0.56,0.4,316.772,187.683,685.669,0,0,0,
,0.983,-1.255,0.617,656.616,-16.297,475.525,0,0,0,
,1.264,-2.134,0.761,563.171,-152.405,69.274,0,0,0,
,1.272,-2.194,0.757,64.025,-142.09,-242.066,0,0,0,
,1.049,-1.582,0.675,-148.682,-189.637,-511.353,0,0,0,
,0.784,-1.41,0.63,174.255,-291.443,-704.285,0,0,0,
,0.477,-1.245,0.5,139.831,-313.477,-794.922,0,0,0,
,0.135,-0.673,0.227,-130.982,-253.907,-719.483,0,0,0,
,-0.325,-0.045,0.093,-326.6,-171.753,-577.82,0,0,0,
,-0.614,0.44,0.052,-281.861,-119.935,-316.163,0,0,0,
,-0.655,0.576,0.129,-3.907,-39.795,77.697,0,0,0,
,-0.438,0.31,0.253,136.901,61.157,486.572,0,0,0,
,-0.258,0.005,0.215,120.117,194.458,795.471,0,0,0,
,0.134,-0.15,0.223,102.722,243.408,970.276,0,0,0,
,0.721,-0.721,0.501,357.299,149.231,1006.164,0,0,0,
,1.324,-1.745,0.768,448.547,-10.132,828.735,0,0,0,
,1.499,-2.567,0.899,131.164,-64.148,487.976,0,0,0,
,1.432,-2.174,0.839,-123.963,-82.764,38.086,0,0,0,
,0.959,-1.838,0.674,-10.865,-193.116,-380.799,0,0,0,
,0.753,-1.322,0.543,-62.989,-205.14,-610.901,0,0,0,
,0.419,-1.001,0.398,48.278,-203.675,-779.847,0,0,0,
,0.118,-0.725,0.203,-189.515,-125.184,-705.262,0,0,0,
,-0.16,-0.118,0.034,-383.179,-34.241,-439.454,0,0,0,
,-0.529,0.506,0.009,-386.658,42.236,-122.315,0,0,0,
,-0.539,0.517,0.104,-56.641,74.035,230.407,0,0,0,
,-0.2,-0.024,0.293,128.906,153.625,550.659,0,0,0,
,0.264,-0.355,0.392,404.907,140.808,751.831,0,0,0,
,0.693,-0.822,0.536,556.03,55.603,780.09,0,0,0,
,1.128,-1.783,0.665,661.132,-129.212,434.692,0,0,0,
,1.151,-2.228,0.738,225.586,-167.237,124.817,0,0,0,
,1.007,-1.924,0.708,2.868,-186.341,-225.708,0,0,0,
,0.633,-1.636,0.506,-56.031,-226.258,-381.226,0,0,0,
,0.422,-1.004,0.405,-97.962,-243.531,-534.913,0,0,0,
,0.031,-0.636,0.312,-166.016,-182.496,-548.279,0,0,0,
,-0.199,-0.379,0.241,-170.533,-146.973,-378.785,0,0,0,
,-0.273,-0.086,0.149,-101.014,-104.187,-109.131,0,0,0,
,0.05,-0.37,0.187,215.149,99.609,699.035,0,0,0,
,0.41,-0.676,0.27,138.916,150.634,765.075,0,0,0,
,0.846,-1.137,0.482,311.889,106.567,693.054,0,0,0,
,1.201,-1.699,0.612,461.914,18.493,506.652,0,0,0,
,1.338,-2.067,0.583,249.939,-56.092,119.934,0,0,0,
,1.2,-1.964,0.578,96.252,-99.915,-283.936,0,0,0,
,0.977,-1.564,0.517,90.942,-185.364,-591.492,0,0,0,
,0.699,-1.226,0.475,61.584,-206.482,-841.492,0,0,0,
,0.469,-0.854,0.257,-10.682,-194.642,-867.249,0,0,0,
,0.039,-0.272,0.097,-347.107,-104.615,-713.196,0,0,0,
,-0.47,0.392,0.052,-556.702,21.179,-373.597,0,0,0,
,-0.742,0.682,0.098,-456.849,158.325,47.668,0,0,0,
,-0.361,0.259,0.288,-179.566,338.134,457.214,0,0,0,
,0.171,-0.177,0.271,-39.002,408.02,720.459,0,0,0,
,0.597,-0.655,0.406,212.524,342.224,800.109,0,0,0,
,1.161,-1.442,0.616,498.169,136.84,645.752,0,0,0,
,1.299,-2.149,0.682,255.859,73.12,254.455,0,0,0,
,1.292,-1.98,0.598,-74.341,57.495,-92.774,0,0,0,
,0.939,-1.621,0.442,-92.652,-43.274,-388.611,0,0,0,
,0.648,-1.214,0.417,-140.381,-104.676,-567.627,0,0,0,
,0.408,-0.857,0.299,-120.301,-102.723,-700.257,0,0,0,
,0.124,-0.605,0.075,-102.417,-81.788,-627.198,0,0,0,
,-0.2,-0.332,0.008,-190.369,-36.499,-423.34,0,0,0,
,-0.436,-0.139,0.045,-99.854,26.855,-128.357,0,0,0,
,-0.375,-0.119,0.092,-33.081,147.094,151.245,0,0,0,
,-0.126,-0.383,0.12,19.592,267.761,352.356,0,0,0,
,0.097,-0.478,0.125,-148.987,370.056,512.817,0,0,0,
,0.32,-0.5,0.249,-154.175,426.025,610.046,0,0,0,
,0.738,-0.64,0.431,120.422,364.807,690.124,0,0,0,
,1.245,-1.063,0.596,311.218,199.646,671.997,0,0,0,
,1.445,-1.427,0.66,247.863,76.782,426.941,0,0,0,
,1.293,-1.303,0.661,78.796,-13.062,169.922,0,0,0,
,1.057,-1.047,0.672,124.267,-106.019,-47.364,0,0,0,
,0.94,-1.001,0.664,220.764,-155.213,-230.408,0,0,0,
,0.798,-0.944,0.669,210.022,-166.138,-347.29,0,0,0,
,0.665,-0.807,0.639,167.541,-152.71,-394.043,0,0,0,
,0.591,-0.675,0.592,194.519,-154.786,-392.701,0,0,0,
,0.553,-0.583,0.454,367.248,-182.618,-350.159,0,0,0,
,0.364,-0.529,0.213,1288.025,-224.122,-112.244,0,0,0,
,0.305,-0.559,0.133,1446.594,-207.093,-48.645,0,0,0,
,0.269,-0.592,-0.016,1512.39,-166.016,9.643,0,0,0,
,0.275,-0.669,-0.118,1547.302,-119.263,73.303,0,0,0,
,0.29,-0.84,-0.123,1483.337,-90.271,121.154,0,0,0,
,0.301,-0.911,-0.111,1367.309,-50.721,179.382,0,0,0,
,0.322,-0.797,-0.19,1345.092,-11.963,256.042,0,0,0,
,0.369,-0.7,-0.27,1428.527,-7.447,281.311,0,0,0,
,0.398,-0.794,-0.39,1429.199,-9.095,260.62,0,0,0,
,0.423,-1.003,-0.408,1278.442,-14.466,187.988,0,0,0,
,0.457,-1.105,-0.39,1027.588,-37.537,148.376,0,0,0,
,0.477,-1.027,-0.337,796.63,-79.285,109.253,0,0,0,
,0.464,-0.908,-0.433,763.977,-80.994,70.434,0,0,0,
,0.473,-0.883,-0.518,899.231,-58.533,21.85,0,0,0,
,0.486,-0.943,-0.568,937.317,-28.809,-34.18,0,0,0,
,0.49,-0.956,-0.606,931.335,8.117,-90.088,0,0,0,
,0.483,-0.95,-0.568,880.005,42.968,-125.672,0,0,0,
,0.457,-0.902,-0.533,786.255,91.064,-151.612,0,0,0,
,0.411,-0.93,-0.553,683.654,117.614,-183.167,0,0,0,
,0.384,-0.889,-0.559,634.643,143.798,-196.473,0,0,0,
,0.382,-0.836,-0.487,548.217,174.804,-176.941,0,0,0,
,0.369,-0.805,-0.48,433.41,198.791,-174.317,0,0,0,
,0.359,-0.79,-0.544,369.201,224.304,-180.909,0,0,0,
,0.362,-0.803,-0.527,363.708,247.802,-166.932,0,0,0,
,0.32,-0.792,-0.491,244.445,231.628,-174.012,0,0,0,
,0.303,-0.829,-0.507,190.734,227.295,-183.899,0,0,0,
,0.307,-0.826,-0.546,124.755,217.102,-175.171,0,0,0,
,0.311,-0.777,-0.56,71.899,188.354,-174.073,0,0,0,
,0.31,-0.708,-0.644,132.995,182.19,-170.838,0,0,0,
,0.315,-0.739,-0.615,222.595,160.644,-165.162,0,0,0,
,0.297,-0.745,-0.6,188.659,143.798,-200.44,0,0,0,
,0.281,-0.811,-0.625,136.596,158.081,-205.201,0,0,0,
,0.285,-0.799,-0.605,49.072,152.16,-166.626,0,0,0,
,0.289,-0.711,-0.653,18.249,157.409,-163.331,0,0,0,
,0.299,-0.686,-0.663,76.782,151.489,-151.551,0,0,0,
,0.292,-0.72,-0.634,114.868,130.249,-156.861,0,0,0,
,0.267,-0.688,-0.635,83.313,112.121,-155.152,0,0,0,
,0.263,-0.668,-0.633,63.964,107.36,-152.039,0,0,0,
,0.275,-0.664,-0.617,68.786,91.98,-143.128,0,0,0,
,0.265,-0.669,-0.599,42.114,70.129,-132.325,0,0,0,
,0.254,-0.671,-0.574,-18.25,47.485,-128.357,0,0,0,
,0.256,-0.653,-0.583,-70.923,36.254,-109.009,0,0,0,
,0.287,-0.636,-0.584,-124.573,10.742,-51.209,0,0,0,
,0.293,-0.619,-0.604,-133.423,0.549,-8.606,0,0,0,
,0.302,-0.601,-0.62,-110.718,-8.301,24.292,0,0,0,
,0.317,-0.633,-0.641,-77.942,-21.973,61.096,0,0,0,
,0.314,-0.671,-0.651,-66.712,-39.917,79.589,0,0,0,
,0.309,-0.677,-0.642,-47.425,-47.364,85.083,0,0,0,
,0.281,-0.747,-0.684,-62.256,-29.786,69.397,0,0,0,
,0.278,-0.743,-0.714,-14.954,-22.828,56.152,0,0,0,
,0.258,-0.776,-0.722,25.512,-23.255,38.879,0,0,0,
,0.243,-0.771,-0.703,44.372,-20.813,20.08,0,0,0,
,0.231,-0.792,-0.678,56.091,-15.503,1.953,0,0,0,
,0.224,-0.764,-0.666,46.203,-9.461,-10.071,0,0,0,
,0.228,-0.778,-0.665,59.814,-1.526,-18.921,0,0,0,
,0.226,-0.775,-0.65,38.879,6.897,-24.659,0,0,0,
,0.229,-0.776,-0.636,-11.841,21.484,-34.607,0,0,0,
,0.241,-0.754,-0.633,-37.964,29.724,-33.631,0,0,0,
,0.257,-0.743,-0.642,-35.584,34.606,-30.152,0,0,0,
,0.276,-0.721,-0.638,-22.339,38.086,-24.842,0,0,0,
,0.291,-0.715,-0.634,-17.395,35.278,-19.227,0,0,0,
,0.306,-0.702,-0.629,-16.175,34.423,-4.7,0,0,0,
,0.33,-0.682,-0.654,-26.734,30.639,4.211,0,0,0,
,0.34,-0.654,-0.643,-20.142,10.376,16.54,0,0,0,
,0.335,-0.648,-0.625,7.568,-0.123,31.005,0,0,0,
,0.329,-0.654,-0.633,27.465,4.516,35.339,0,0,0,
,0.335,-0.686,-0.633,33.447,5.188,35.583,0,0,0,
,0.337,-0.696,-0.633,42.602,6.591,46.936,0,0,0,
,0.327,-0.724,-0.632,34.729,5.676,42.297,0,0,0,
,0.315,-0.739,-0.639,18.249,9.948,41.503,0,0,0,
,0.305,-0.75,-0.657,1.159,12.634,30.09,0,0,0,
,0.298,-0.733,-0.659,1.22,12.268,27.465,0,0,0,
,0.286,-0.768,-0.643,40.1,8.239,16.967,0,0,0,
,0.279,-0.775,-0.638,25.512,13.122,11.718,0,0,0,
,0.312,-0.778,-0.645,7.141,19.958,7.202,0,0,0,
,0.285,-0.766,-0.657,-8.545,25.329,-1.77,0,0,0,
,0.284,-0.757,-0.649,-10.743,23.315,-6.043,0,0,0,
,0.279,-0.754,-0.647,-10.01,23.742,-13.428,0,0,0,
,0.281,-0.747,-0.631,-5.982,27.832,-17.09,0,0,0,
,0.291,-0.75,-0.635,-18.25,26.489,-26.734,0,0,0,
,0.292,-0.748,-0.642,-35.157,22.949,-33.081,0,0,0,
,0.298,-0.718,-0.641,-35.584,24.841,-33.997,0,0,0,
,0.308,-0.714,-0.644,-18.616,20.324,-41.138,0,0,0,
,0.309,-0.708,-0.642,-0.123,15.197,-35.95,0,0,0,
,0.314,-0.71,-0.653,19.104,13.671,-46.265,0,0,0,
,0.323,-0.727,-0.643,24.169,9.582,-49.927,0,0,0,
,0.317,-0.726,-0.646,1.648,2.99,-47.425,0,0,0,
,0.31,-0.685,-0.643,3.051,3.967,-42.176,0,0,0,
,0.31,-0.694,-0.639,37.658,3.112,-38.331,0,0,0,
,0.303,-0.717,-0.635,29.052,0.976,-37.476,0,0,0,
,0.297,-0.71,-0.641,11.352,6.225,-30.884,0,0,0,
,0.303,-0.711,-0.642,-0.184,7.629,-28.992,0,0,0,
,0.306,-0.704,-0.639,9.887,4.089,-25.452,0,0,0,
,0.295,-0.731,-0.645,9.094,-2.564,-27.588,0,0,0,
,0.283,-0.716,-0.654,3.54,-0.184,-31.189,0,0,0,
,0.282,-0.719,-0.648,13.122,0.122,-28.382,0,0,0,
,0.272,-0.716,-0.647,22.277,-5.005,-26.795,0,0,0,
,0.261,-0.733,-0.632,27.343,-8.057,-28.504,0,0,0,
,0.259,-0.731,-0.627,8.178,-6.653,-32.776,0,0,0,
,0.269,-0.728,-0.64,6.286,-0.611,-34.058,0,0,0,
,0.277,-0.731,-0.632,-4.151,-8.057,-28.565,0,0,0,
,0.277,-0.714,-0.652,4.76,-6.47,-25.208,0,0,0,
,0.288,-0.717,-0.62,7.629,-19.654,-26.917,0,0,0,
,0.283,-0.696,-0.616,14.099,-37.476,-22.706,0,0,0,
,0.29,-0.709,-0.575,36.621,-60.059,-13.55,0,0,0,
,0.282,-0.714,-0.541,17.456,-93.445,-10.193,0,0,0,
,0.27,-0.71,-0.5,-43.58,-134.888,-3.296,0,0,0,
,0.259,-0.664,-0.423,-99.671,-176.758,18.615,0,0,0,
,0.263,-0.627,-0.407,-110.657,-225.647,47.851,0,0,0,
,0.298,-0.703,-0.519,-138.245,-256.043,60.974,0,0,0,
,0.387,-0.741,-0.561,-212.891,-261.048,72.082,0,0,0,
,0.427,-0.711,-0.624,-225.22,-290.955,84.411,0,0,0,
,0.433,-0.846,-0.593,-78.797,-269.959,19.47,0,0,0,
,0.444,-0.913,-0.55,-170.655,-259.156,-26.612,0,0,0,
,0.396,-0.826,-0.537,-300.66,-256.226,-31.006,0,0,0,
,0.368,-0.697,-0.542,-314.942,-233.582,-16.053,0,0,0,
,0.396,-0.683,-0.545,-208.741,-220.459,-10.621,0,0,0,
,0.413,-0.715,-0.532,-74.219,-234.925,5.615,0,0,0,
,0.405,-0.793,-0.495,-10.254,-256.043,-4.334,0,0,0,
,0.379,-0.867,-0.48,-102.051,-279.664,-29.541,0,0,0,
,0.353,-0.832,-0.429,-266.541,-282.471,-32.593,0,0,0,
,0.356,-0.717,-0.459,-280.213,-257.386,-11.475,0,0,0,
,0.411,-0.693,-0.493,-123.108,-242.127,18.615,0,0,0,
,0.453,-0.792,-0.505,15.075,-242.615,13.61,0,0,0,
,0.455,-0.913,-0.512,15.136,-254.761,-4.761,0,0,0,
,0.453,-0.985,-0.477,-91.492,-260.071,-51.514,0,0,0,
,0.459,-0.989,-0.544,-199.585,-237.854,-83.191,0,0,0,
,0.512,-0.888,-0.552,-212.342,-202.82,-98.755,0,0,0,
,0.528,-0.843,-0.533,-158.02,-186.524,-123.719,0,0,0,
,0.5,-0.875,-0.484,-108.765,-161.56,-148.316,0,0,0,
,0.483,-0.921,-0.438,-104.371,-124.329,-158.753,0,0,0,
,0.46,-1.002,-0.435,-214.661,-99.976,-194.275,0,0,0,
,0.427,-1.053,-0.423,-442.505,-97.779,-235.596,0,0,0,
,0.418,-1.001,-0.405,-642.823,-78.003,-248.291,0,0,0,
,0.424,-0.876,-0.351,-764.405,-69.397,-247.315,0,0,0,
,0.419,-0.76,-0.336,-731.69,-50.293,-238.709,0,0,0,
,0.443,-0.828,-0.372,-582.52,-11.292,-254.578,0,0,0,
,0.499,-1.001,-0.432,-465.821,27.221,-279.847,0,0,0,
,0.416,-0.97,-0.336,-766.785,139.465,-377.442,0,0,0,
,0.371,-0.77,-0.264,-725.892,180.847,-377.869,0,0,0,
,0.359,-0.756,-0.269,-487.549,205.81,-376.587,0,0,0,
,0.377,-0.815,-0.299,-235.169,214.233,-346.131,0,0,0,
,0.337,-0.938,-0.251,-281.067,195.556,-294.068,0,0,0,
,0.323,-0.916,-0.184,-363.77,206.787,-270.447,0,0,0,
,0.308,-0.851,-0.127,-474.244,217.59,-241.7,0,0,0,
,0.28,-0.818,-0.103,-559.205,223.144,-239.38,0,0,0,
,0.263,-0.818,-0.124,-618.47,233.093,-222.657,0,0,0,
,0.264,-0.882,-0.161,-676.209,249.084,-203.309,0,0,0,
,0.245,-0.867,-0.128,-705.445,240.966,-144.593,0,0,0,
,0.19,-0.717,-0.072,-714.844,250.183,-74.524,0,0,0,
,0.139,-0.606,-0.057,-608.948,249.511,-38.208,0,0,0,
,0.093,-0.642,-0.04,-457.642,254.882,-10.804,0,0,0,
,0.046,-0.694,-0.065,-454.468,264.587,66.345,0,0,0,
,-0.118,-0.76,0.002,-734.498,311.462,153.381,0,0,0,
,-0.275,-0.592,0.092,-1433.472,400.512,281.25,0,0,0,
,-0.297,-0.47,0.125,-1985.413,533.142,416.076,0,0,0,
,-0.063,-0.383,0.139,-2000,703.918,654.785,0,0,0,
,0.205,-0.344,0.09,-1980.591,774.047,875.671,0,0,0,
,0.7,-0.288,0.193,-1346.253,681.274,1017.517,0,0,0,
,1.287,-0.755,0.634,-303.101,353.271,1003.357,0,0,0,
,1.525,-1.866,1.014,337.158,22.033,641.906,0,0,0,
,1.491,-2.545,1.002,5.127,-44.495,133.117,0,0,0,
,1.348,-1.796,0.671,-323.426,-94.361,-234.131,0,0,0,
,1.113,-1.233,0.387,-86.426,-168.396,-634.278,0,0,0,
,0.664,-1.085,0.443,-20.997,-126.526,-823.182,0,0,0,
,0.19,-0.599,0.346,-404.114,13.61,-786.194,0,0,0,
,-0.186,0.121,0.229,-767.029,198.181,-673.829,0,0,0,
,-0.325,0.408,0.118,-756.592,389.526,-424.439,0,0,0,
,-0.233,0.208,0.185,-690.43,559.753,13.61,0,0,0,
,0.059,-0.193,0.556,-682.068,710.205,408.386,0,0,0,
,0.316,-0.344,0.591,-620.423,765.014,675.964,0,0,0,
,0.834,-0.786,0.752,-417.603,511.23,584.228,0,0,0,
,1.275,-1.726,1.116,-294.129,111.877,226.623,0,0,0,
,1.327,-1.92,1.017,-311.402,-106.385,-70.008,0,0,0,
,1.167,-1.609,0.804,73.608,-315.308,-334.229,0,0,0,
,0.891,-1.277,0.764,418.701,-463.746,-607.239,0,0,0,
,0.687,-1.3,0.577,468.261,-503.113,-838.868,0,0,0,
,0.195,-0.632,0.209,-51.087,-339.051,-806.824,0,0,0,
,-0.333,0.222,0.098,-331.299,-113.648,-677.247,0,0,0,
,-0.432,0.261,0.021,-253.174,108.764,-359.009,0,0,0,
,-0.342,-0.09,0.251,-280.213,362.732,77.941,0,0,0,
,-0.076,-0.144,0.389,-282.593,584.716,430.969,0,0,0,
,0.258,-0.23,0.333,-113.953,573.12,604.004,0,0,0,
,0.757,-0.85,0.67,105.713,348.693,495.239,0,0,0,
,1.227,-1.71,0.983,173.462,79.773,183.838,0,0,0,
,1.314,-2.048,0.911,-5.249,-80.872,-156.434,0,0,0,
,1.105,-1.626,0.728,90.026,-187.317,-410.767,0,0,0,
,0.83,-1.104,0.565,191.101,-258.912,-641.358,0,0,0,
,0.52,-0.788,0.375,298.645,-271.79,-783.143,0,0,0,
,-0.034,-0.208,0.117,-187.684,-73.365,-673.768,0,0,0,
,-0.365,0.167,0.081,-422.181,74.768,-416.138,0,0,0,
,-0.316,0.286,0.241,-451.783,268.31,6.53,0,0,0,
,-0.081,0.021,0.413,-380.677,448.425,352.905,0,0,0,
,-0.61,1.001,-0.034,-509.156,-3.418,-419.251,0,0,0,
,-0.751,1.223,-0.099,-55.481,119.69,159.851,0,0,0,
,-0.483,0.587,0.118,119.323,307.739,656.86,0,0,0,
,-0.237,0.2,0.122,-17.64,507.446,990.722,0,0,0,
,0.163,-0.063,0.246,-145.203,584.228,1109.985,0,0,0,
,0.575,-0.477,0.605,184.631,547.363,1172.485,0,0,0,
,1.034,-1.113,1.075,580.932,390.503,1114.135,0,0,0,
,1.516,-2.262,1.242,515.075,145.996,749.572,0,0,0,
,1.759,-2.7,1.217,60.791,-15.076,273.254,0,0,0,
,1.343,-1.98,1.075,92.712,-227.906,-138.977,0,0,0,
,1.135,-1.281,0.949,111.816,-371.888,-496.277,0,0,0,
,0.733,-1.267,0.808,486.938,-422.364,-894.349,0,0,0,
,-0.599,0.771,0.056,-777.894,5.004,-464.722,0,0,0,
,-0.637,0.851,0.241,-218.201,66.894,4.943,0,0,0,
,-0.269,0.224,0.434,44.433,192.993,495.056,0,0,0,
,0.134,-0.08,0.491,218.2,252.319,675.415,0,0,0,
,0.688,-0.485,0.692,457.641,98.083,732.36,0,0,0,
,1.197,-1.399,0.809,680.053,-164.063,487.609,0,0,0,
,1.283,-2.007,0.926,350.158,-260.437,188.903,0,0,0,
,1.086,-1.687,0.829,127.807,-276.062,-99.427,0,0,0,
,0.767,-1.342,0.629,20.385,-322.144,-247.071,0,0,0,
,0.578,-0.86,0.558,45.044,-317.383,-428.284,0,0,0,
,0.233,-0.632,0.383,-102.906,-248.658,-496.582,0,0,0,
,-0.083,-0.253,0.287,-355.713,-126.465,-366.333,0,0,0,
,-0.23,-0.19,0.282,14.099,105.041,455.261,0,0,0,
,0.053,-0.442,0.356,57.495,165.649,552.002,0,0,0,
,0.521,-0.871,0.623,239.38,91.247,498.84,0,0,0,
,0.88,-1.487,0.849,360.351,-39.734,303.588,0,0,0,
,0.985,-1.922,0.968,284.118,-131.47,30.944,0,0,0,
,1.044,-1.793,0.947,126.22,-221.802,-242.371,0,0,0,
,0.735,-1.421,0.778,138.427,-321.228,-476.868,0,0,0,
,0.529,-1.096,0.652,93.566,-386.231,-644.043,0,0,0,
,0.239,-0.546,0.399,-42.542,-312.928,-615.479,0,0,0,
,-0.153,0.015,0.142,-241.517,-178.528,-434.876,0,0,0,
,-0.503,0.443,0.113,-192.505,-46.448,-121.705,0,0,0,
,-0.146,-0.12,0.319,15.869,256.408,563.11,0,0,0,
,0.089,-0.223,0.229,-152.039,374.939,745.91,0,0,0,
,0.333,-0.368,0.434,-218.506,405.456,734.497,0,0,0,
,0.717,-0.875,0.789,-62.5,325.256,632.019,0,0,0,
,1.073,-1.624,0.99,-65.308,199.218,387.207,0,0,0,
,1.293,-2.025,0.98,-305.848,118.896,120.239,0,0,0,
,1.165,-1.619,0.836,-351.563,19.226,-134.949,0,0,0,
,1.02,-1.21,0.748,-50.965,-151.062,-421.753,0,0,0,
,0.681,-1.152,0.693,216.125,-233.094,-666.321,0,0,0,
,0.302,-0.877,0.53,-2.747,-163.575,-720.948,0,0,0,
,-0.172,-0.288,0.23,-402.71,5.798,-588.562,0,0,0,
,-0.472,0.213,0.207,-462.891,154.297,-324.769,0,0,0,
,0.219,-0.318,0.368,63.781,288.513,606.262,0,0,0,
,0.631,-0.687,0.581,-24.537,192.505,552.246,0,0,0,
,1.1,-1.477,0.962,-27.405,52.978,207.214,0,0,0,
,1.319,-1.881,1.071,-39.307,-10.926,-65.979,0,0,0,
,1.268,-1.687,0.98,74.401,-90.699,-340.821,0,0,0,
,1.168,-1.451,0.884,218.505,-246.766,-623.047,0,0,0,
,0.996,-1.223,0.738,280.395,-312.561,-871.705,0,0,0,
,0.678,-1.03,0.54,99.609,-333.985,-1022.645,0,0,0,
,0.363,-0.498,0.273,-210.206,-291.687,-987.427,0,0,0,
,-0.114,0.263,0.051,-593.445,-129.7,-786.438,0,0,0,
,-0.512,0.937,0.067,-545.533,44.067,-437.928,0,0,0,
,-0.606,0.909,0.177,-143.677,220.276,24.658,0,0,0,
,-0.225,0.284,0.323,89.233,399.78,469.299,0,0,0,
,0.028,0.066,0.19,27.465,526.977,737.06,0,0,0,
,0.297,-0.083,0.329,6.225,524.963,847.412,0,0,0,
,0.758,-0.785,0.842,332.885,386.291,761.596,0,0,0,
,1.266,-1.828,1.228,514.892,191.711,486.328,0,0,0,
,1.507,-2.339,1.171,180.603,87.951,191.528,0,0,0,
,1.289,-1.962,0.935,-23.56,-63.294,-214.6,0,0,0,
,0.989,-1.396,0.83,-47.364,-191.712,-491.639,0,0,0,
,0.692,-1.052,0.798,193.359,-283.753,-721.924,0,0,0,
,0.375,-0.952,0.631,240.844,-306.946,-831.238,0,0,0,
,0.051,-0.317,0.186,-176.331,-165.528,-708.68,0,0,0,
,-0.459,0.424,0.132,-466.614,36.987,-462.647,0,0,0,
,-0.581,0.664,0.122,-112.122,142.395,-102.662,0,0,0,
,-0.131,0.23,0.355,117.92,264.587,327.758,0,0,0,
,0.2,-0.248,0.404,205.139,398.01,592.834,0,0,0,
,0.725,-0.341,0.411,237.793,359.68,714.172,0,0,0,
,1.276,-1.003,0.689,440.49,165.1,480.529,0,0,0,
,1.541,-1.527,0.801,569.641,34.851,201.355,0,0,0,
,0.64,-1.054,0.721,-21.912,-105.347,-410.035,0,0,0,
,0.371,-0.917,0.637,53.527,-118.836,-466.492,0,0,0,
,0.162,-0.63,0.379,-33.02,-114.685,-402.955,0,0,0,
,-0.094,-0.1,0.185,-245.301,-36.805,-238.648,0,0,0,
,-0.483,0.329,0.227,-188.416,42.846,42.907,0,0,0,
,0.114,-0.456,0.683,201.782,316.406,804.748,0,0,0,
,0.675,-0.724,0.637,414.611,161.132,776.306,0,0,0,
,1.192,-1.623,0.81,397.522,-100.22,343.628,0,0,0,
,1.219,-2.138,1.032,118.53,-148.011,8.85,0,0,0,
,1.029,-1.884,0.98,3.784,-186.036,-244.935,0,0,0,
,0.773,-1.442,0.778,36.499,-299.5,-409.668,0,0,0,
,0.568,-0.973,0.542,31.189,-332.398,-552.369,0,0,0,
,0.171,-0.293,0.212,-254.456,-261.536,-503.296,0,0,0,
,-0.285,0.277,0.175,-281.922,-180.054,-297.364,0,0,0,
,-0.541,0.622,0.124,-105.774,-81.055,88.073,0,0,0,
,-0.418,0.349,0.387,56.945,79.65,508.545,0,0,0,
,-0.034,-0.128,0.407,218.078,212.585,880.371,0,0,0,
,0.309,-0.333,0.355,142.7,206.604,982.238,0,0,0,
,0.942,-0.968,0.585,268.615,2.38,765.258,0,0,0,
,1.41,-1.721,0.826,418.884,-169.007,476.684,0,0,0,
,1.297,-2.203,0.954,278.137,-237.061,88.501,0,0,0,
,1.044,-1.994,0.907,-4.639,-260.254,-185.791,0,0,0,
,0.856,-1.343,0.724,8.3,-339.966,-426.514,0,0,0,
,0.529,-0.91,0.486,-21.241,-329.773,-636.109,0,0,0,
,0.072,-0.491,0.356,-218.995,-218.018,-651.185,0,0,0,
,-0.28,-0.033,0.191,-394.41,-113.038,-427.308,0,0,0,
,-0.367,0.081,0.337,-180.359,-6.592,-149.476,0,0,0,
,-0.15,-0.062,0.529,-40.467,92.529,151.916,0,0,0,
,0.04,-0.278,0.413,51.269,188.903,361.023,0,0,0,
,0.277,-0.336,0.298,93.994,176.086,463.989,0,0,0,
,0.552,-0.76,0.564,242.126,76.904,386.901,0,0,0,
,1.002,-1.39,0.831,418.945,-88.196,185.913,0,0,0,
,1.089,-1.808,0.841,183.349,-189.698,-49.622,0,0,0,
,0.977,-1.642,0.789,40.771,-259.705,-291.199,0,0,0,
,0.761,-1.278,0.735,49.011,-340.699,-500.794,0,0,0,
,0.553,-1.123,0.685,157.714,-378.113,-673.157,0,0,0,
,0.422,-0.893,0.509,82.397,-351.014,-743.531,0,0,0,
,0.296,-0.678,0.343,51.147,-285.035,-721.253,0,0,0,
,0.085,-0.357,0.168,-66.834,-187.073,-581.604,0,0,0,
,-0.172,-0.037,0.17,-201.661,-48.829,-418.335,0,0,0,
,-0.222,0.148,0.092,-113.831,75.622,-202.21,0,0,0,
,-0.175,0.163,0.071,-101.502,224.304,63.781,0,0,0,
,-0.02,-0.031,0.209,-89.966,381.958,337.341,0,0,0,
,0.24,-0.297,0.297,-31.678,518.432,583.496,0,0,0,
,0.469,-0.463,0.37,242.92,545.654,763.61,0,0,0,
,0.778,-0.682,0.597,726.135,453.979,837.158,0,0,0,
,1.114,-1.107,0.628,951.233,293.274,769.775,0,0,0,
,1.218,-1.718,0.709,632.568,124.084,383.911,0,0,0,
,1.04,-1.597,0.75,158.813,85.083,135.559,0,0,0,
,0.899,-1.164,0.758,93.383,3.173,-63.599,0,0,0,
,0.807,-1.019,0.745,342.285,-85.328,-236.329,0,0,0,
,0.603,-0.952,0.737,499.084,-117.188,-340.76,0,0,0,
,0.468,-0.892,0.711,525.024,-118.348,-390.076,0,0,0,
,0.362,-0.599,0.566,761.535,-119.324,-237.793,0,0,0,
,0.362,-0.52,0.434,947.448,-139.588,-162.11,0,0,0,
,0.351,-0.503,0.319,1220.398,-182.068,-104.371,0,0,0,
,0.361,-0.518,0.216,1617.004,-208.863,-39.246,0,0,0,
,0.366,-0.56,0.122,1931.579,-245.179,22.644,0,0,0,
,0.346,-0.653,0.055,1999.694,-272.583,65.307,0,0,0,
,0.346,-0.723,-0.007,1999.694,-272.644,92.224,0,0,0,
,0.359,-0.772,-0.137,1999.694,-243.958,110.168,0,0,0,
,0.396,-0.752,-0.262,1937.5,-216.858,78.491,0,0,0,
,0.449,-0.788,-0.432,1841.43,-167.176,56.03,0,0,0,
,0.475,-0.928,-0.514,1696.411,-146.241,6.042,0,0,0,
,0.465,-1.039,-0.485,1440.918,-138.245,-9.644,0,0,0,
,0.432,-1.051,-0.442,1106.445,-102.723,-24.659,0,0,0,
,0.421,-0.988,-0.498,780.7,-60.303,-70.618,0,0,0,
,0.429,-0.963,-0.56,633.056,-34.913,-120.85,0,0,0,
,0.437,-0.887,-0.578,566.467,-40.894,-163.819,0,0,0,
,0.414,-0.835,-0.611,534.607,-40.772,-168.885,0,0,0,
,0.367,-0.879,-0.621,551.696,-26.734,-197.449,0,0,0,
,0.348,-0.906,-0.559,484.863,-2.808,-182.373,0,0,0,
,0.324,-0.847,-0.528,372.863,15.564,-182.984,0,0,0,
,0.313,-0.796,-0.517,286.621,33.996,-173.706,0,0,0,
,0.306,-0.8,-0.528,253.601,55.175,-166.626,0,0,0,
,0.309,-0.81,-0.541,250.976,65.185,-152.71,0,0,0,
,0.292,-0.805,-0.535,219.055,66.04,-131.409,0,0,0,
,0.279,-0.804,-0.493,150.085,67.199,-114.502,0,0,0,
,0.273,-0.792,-0.455,118.225,71.044,-105.164,0,0,0,
,0.267,-0.753,-0.463,75.256,76.355,-86.853,0,0,0,
,0.26,-0.799,-0.467,62.866,81.42,-68.116,0,0,0,
,0.256,-0.805,-0.484,5.249,78.674,-35.279,0,0,0,
,0.267,-0.801,-0.529,-27.955,86.975,-22.522,0,0,0,
,0.287,-0.722,-0.579,-33.204,71.35,-9.095,0,0,0,
,0.29,-0.728,-0.608,12.023,51.086,-28.748,0,0,0,
,0.285,-0.782,-0.562,17.639,27.221,-35.218,0,0,0,
,0.276,-0.79,-0.533,-7.691,24.597,-25.513,0,0,0,
,0.282,-0.764,-0.505,-12.757,21.484,-16.114,0,0,0,
,0.29,-0.769,-0.549,32.165,23.864,-30.945,0,0,0,
,0.302,-0.767,-0.584,103.759,33.874,-35.523,0,0,0,
,0.307,-0.814,-0.613,143.676,37.475,-54.444,0,0,0,
,0.308,-0.82,-0.577,126.037,29.846,-58.289,0,0,0,
,0.308,-0.778,-0.57,125.976,26.123,-68.848,0,0,0,
,0.309,-0.762,-0.603,190.551,39.978,-78.919,0,0,0,
,0.305,-0.829,-0.61,235.412,50.17,-92.53,0,0,0,
,0.299,-0.835,-0.599,208.191,53.405,-89.722,0,0,0,
,0.289,-0.81,-0.614,208.679,76.843,-96.436,0,0,0,
,0.286,-0.782,-0.636,207.763,76.171,-107.85,0,0,0,
,0.282,-0.78,-0.627,216.003,78.43,-114.319,0,0,0,
,0.269,-0.784,-0.606,194.03,74.951,-115.418,0,0,0,
,0.255,-0.772,-0.601,155.395,76.965,-110.596,0,0,0,
,0.248,-0.737,-0.612,145.813,90.148,-104.737,0,0,0,
,0.256,-0.73,-0.628,156.433,94.238,-98.877,0,0,0,
,0.248,-0.736,-0.633,128.296,97.045,-76.722,0,0,0,
,0.246,-0.728,-0.659,116.516,96.374,-77.637,0,0,0,
,0.25,-0.731,-0.649,106.872,87.829,-76.05,0,0,0,
,0.248,-0.713,-0.657,99.609,82.519,-69.703,0,0,0,
,0.246,-0.734,-0.661,110.29,77.209,-68.665,0,0,0,
,0.246,-0.708,-0.652,88.867,76.294,-59.082,0,0,0,
,0.242,-0.683,-0.663,74.585,68.603,-58.96,0,0,0,
,0.244,-0.688,-0.666,70.8,61.096,-60.12,0,0,0,
,0.247,-0.702,-0.665,62.622,56.213,-55.603,0,0,0,
,0.279,-0.691,-0.667,38.818,55.175,-48.523,0,0,0,
,0.256,-0.688,-0.663,28.503,49.926,-35.889,0,0,0,
,0.253,-0.675,-0.658,26.367,36.621,-23.133,0,0,0,
,0.257,-0.702,-0.664,44.372,37.17,-19.104,0,0,0,
,0.258,-0.708,-0.691,35.278,44.86,-6.104,0,0,0,
,0.258,-0.704,-0.686,33.63,41.809,-1.709,0,0,0,
,0.245,-0.69,-0.673,28.503,30.761,-3.724,0,0,0,
,0.236,-0.709,-0.662,35.705,33.569,-6.836,0,0,0,
,0.245,-0.732,-0.67,17.456,39.245,-16.968,0,0,0,
,0.246,-0.725,-0.688,7.629,44.433,-21.729,0,0,0,
,0.255,-0.722,-0.691,3.662,43.579,-27.955,0,0,0,
,0.253,-0.722,-0.687,2.807,35.095,-25.269,0,0,0,
,0.251,-0.697,-0.688,11.779,30.517,-22.339,0,0,0,
,0.244,-0.707,-0.674,15.319,18.737,-21.912,0,0,0,
,0.243,-0.706,-0.688,26.916,18.188,-20.569,0,0,0,
,0.239,-0.72,-0.676,30.09,16.723,-16.297,0,0,0,
,0.229,-0.723,-0.662,11.901,12.329,-12.452,0,0,0,
,0.222,-0.71,-0.661,-12.879,10.864,-11.353,0,0,0,
,0.227,-0.711,-0.659,-20.142,10.498,-4.883,0,0,0,
,0.225,-0.705,-0.666,-26.795,10.131,0.976,0,0,0,
,0.233,-0.706,-0.677,-18.738,12.756,9.765,0,0,0,
,0.23,-0.706,-0.672,-27.344,0.427,11.718,0,0,0,
,0.215,-0.711,-0.663,-30.03,-3.663,8.728,0,0,0,
,0.223,-0.719,-0.668,-32.41,-0.306,6.958,0,0,0,
,0.229,-0.721,-0.669,-40.345,-3.235,3.234,0,0,0,
,0.224,-0.727,-0.654,-90.699,-16.846,3.051,0,0,0,
,0.224,-0.72,-0.64,-113.221,-19.532,8.911,0,0,0,
,0.224,-0.707,-0.63,-137.696,-26.368,21.423,0,0,0,
,0.233,-0.695,-0.62,-146.424,-32.349,29.235,0,0,0,
,0.248,-0.665,-0.671,-114.747,-33.936,37.414,0,0,0,
,0.267,-0.675,-0.675,-35.95,-39.917,48.767,0,0,0,
,0.257,-0.759,-0.663,37.17,-52.308,36.071,0,0,0,
,0.258,-0.772,-0.679,6.408,-46.326,24.963,0,0,0,
,0.267,-0.762,-0.685,-8.606,-35.767,6.897,0,0,0,
,0.267,-0.759,-0.68,-18.738,-33.692,-1.893,0,0,0,
,0.267,-0.753,-0.661,30.639,-12.269,-16.236,0,0,0,
,0.259,-0.742,-0.662,10.681,-11.292,-19.837,0,0,0,
,0.262,-0.744,-0.641,-5.555,-8.362,-17.212,0,0,0,
,0.262,-0.742,-0.641,-36.988,-17.823,-9.705,0,0,0,
,0.26,-0.725,-0.573,-81.055,-47.059,-2.808,0,0,0,
,0.238,-0.814,-0.534,-225.953,-74.585,0,0,0,0,
,0.208,-0.952,-0.354,-565.43,-128.907,-22.156,0,0,0,
,0.146,-0.857,-0.249,-1036.438,-202.82,35.949,0,0,0,
,0.131,-0.594,-0.331,-1272.034,-210.877,122.558,0,0,0,
,0.207,-0.398,-0.416,-1135.315,-186.585,278.442,0,0,0,
,0.306,-0.373,-0.592,-788.147,-197.266,362.182,0,0,0,
,0.427,-0.951,-0.459,-1.221,-399.537,388.794,0,0,0,
,0.443,-1.141,-0.331,-254.944,-377.625,283.813,0,0,0,
,0.438,-1.26,-0.337,-612.977,-330.079,225.525,0,0,0,
,0.431,-1.148,-0.452,-1008.973,-261.475,182.922,0,0,0,
,0.468,-0.893,-0.63,-1004.944,-176.209,189.209,0,0,0,
,0.516,-1.129,-0.363,-248.291,-135.987,108.093,0,0,0,
,0.484,-1.279,-0.264,-436.707,-99.427,-12.452,0,0,0,
,0.479,-1.287,-0.315,-755.677,-19.776,-87.769,0,0,0,
,0.524,-1.189,-0.37,-1022.95,37.658,-143.494,0,0,0,
,0.57,-1.057,-0.384,-1109.437,63.598,-167.725,0,0,0,
,0.6,-1.036,-0.344,-1103.882,75.317,-238.465,0,0,0,
,0.587,-1.035,-0.187,-1211.06,48.339,-306.214,0,0,0,
,0.525,-0.946,-0.065,-1222.291,57.556,-334.9,0,0,0,
,0.436,-0.827,0.021,-1068.97,50.17,-345.765,0,0,0,
,0.378,-0.782,0.088,-900.33,40.649,-342.53,0,0,0,
,0.337,-0.8,0.071,-855.53,36.01,-341.065,0,0,0,
,0.267,-0.834,0.067,-951.844,35.461,-323.609,0,0,0,
,0.164,-0.761,0.041,-1164.612,40.71,-269.043,0,0,0,
,0.049,-0.584,0.044,-1323.487,63.903,-186.341,0,0,0,
,0.012,-0.465,0.056,-1320.252,102.844,-89.051,0,0,0,
,0.014,-0.465,0.046,-1251.587,136.413,15.014,0,0,0,
,-0.107,-0.289,-0.058,-1193.604,183.471,154.602,0,0,0,
,-0.44,-0.059,-0.049,-1187.623,266.906,346.557,0,0,0,
,-0.462,-0.146,0.171,-1141.236,404.113,538.635,0,0,0,
,-0.002,-0.734,0.441,-1191.041,565.551,770.385,0,0,0,
,0.584,-1.164,0.624,-1388.306,631.836,897.4,0,0,0,
,1.385,-1.25,0.817,-1458.863,486.328,825.744,0,0,0,
,1.921,-1.401,0.907,-946.534,239.685,512.817,0,0,0,
,1.875,-1.285,0.877,47.485,10.986,37.841,0,0,0,
,1.348,-1.302,0.881,634.887,-280.579,-408.448,0,0,0,
,1.054,-1.457,0.895,324.524,-298.218,-841.858,0,0,0,
,0.702,-1.041,0.67,-361.939,-192.81,-1005.799,0,0,0,
,0.256,-0.101,0.243,-1146.973,11.962,-934.693,0,0,0,
,-0.253,0.65,0.266,-1264.283,233.337,-705.994,0,0,0,
,-0.291,0.637,0.398,-794.739,353.698,-268.555,0,0,0,
,-0.068,0.098,0.481,-512.024,482.116,220.337,0,0,0,
,0.1,-0.122,0.457,-518.738,569.275,547.18,0,0,0,
,0.423,-0.253,0.418,-622.925,508.117,692.932,0,0,0,
,0.905,-0.554,0.844,-396.607,326.538,570.19,0,0,0,
,1.144,-1.352,1.021,-445.923,167.48,344.482,0,0,0,
,1.186,-0.987,1.057,6.897,30.456,171.203,0,0,0,
,1.209,-1.332,0.994,424.011,-196.167,-183.899,0,0,0,
,0.983,-1.072,0.729,500.671,-297.12,-435.303,0,0,0,
,0.678,-0.977,0.542,425.903,-327.271,-657.654,0,0,0,
,0.247,-0.595,0.322,65.734,-199.769,-647.767,0,0,0,
,-0.196,-0.131,0.196,-332.764,23.071,-500.672,0,0,0,
,-0.41,0.189,0.322,-494.812,269.897,-216.065,0,0,0,
,-0.1,-0.078,0.619,-298.706,441.406,126.587,0,0,0,
,1.132,-0.76,0.828,619.262,63.842,409.423,0,0,0,
,1.279,-1.299,0.893,716.125,-192.994,111.389,0,0,0,
,1.201,-1.575,0.894,458.557,-351.563,-224.854,0,0,0,
,1.066,-1.231,0.861,387.634,-416.199,-474.488,0,0,0,
,0.825,-0.939,0.669,428.833,-421.814,-724.671,0,0,0,
,0.45,-0.501,0.214,110.229,-305.909,-789.673,0,0,0,
,-0.112,0.063,0.07,-197.632,-73.182,-628.052,0,0,0,
,-0.553,0.164,0.277,-296.692,161.071,-272.339,0,0,0,
,-0.172,-0.185,0.541,-315.125,352.295,92.407,0,0,0,
,0.09,-0.428,0.633,-383.667,519.47,395.63,0,0,0,
,0.334,-0.384,0.581,-321.473,588.989,595.825,0,0,0,
,1.301,-0.885,0.815,311.584,80.932,421.447,0,0,0,
,1.385,-1.503,0.819,349.548,-271.485,52.49,0,0,0,
,1.191,-1.612,0.869,172.729,-472.596,-311.097,0,0,0,
,0.899,-0.977,0.866,182.556,-553.467,-499.39,0,0,0,
,0.69,-0.812,0.734,510.315,-592.469,-718.14,0,0,0,
,-0.259,0.076,-0.16,-311.158,-15.442,-578.492,0,0,0,
,-0.634,0.322,0.047,-562.256,271.667,-260.56,0,0,0,
,-0.306,0.054,0.459,-492.676,518.737,152.649,0,0,0,
,-0.024,-0.257,0.599,-425.477,755.371,522.949,0,0,0,
,0.281,0.027,0.342,-198.67,792.663,803.955,0,0,0,
,0.865,-0.231,0.449,205.322,544.25,853.637,0,0,0,
,1.523,-1.249,1.002,434.631,147.155,518.615,0,0,0,
,1.629,-2.138,1.05,284.851,-67.444,62.072,0,0,0,
,1.229,-1.583,0.884,9.948,-173.096,-216.065,0,0,0,
,0.957,-1.006,0.771,129.333,-263.794,-506.348,0,0,0,
,0.632,-0.994,0.64,310.058,-275.513,-735.413,0,0,0,
,-0.269,-0.109,0.103,-473.328,97.656,-574.952,0,0,0,
,-0.492,0.098,0.465,-403.931,270.813,-268.433,0,0,0,
,-0.156,-0.098,0.625,-255.066,407.348,102.6,0,0,0,
,-0.015,-0.219,0.573,-125.977,534.851,427.795,0,0,0,
,0.139,0.013,0.457,3.784,533.874,689.087,0,0,0,
,0.674,-0.321,0.625,256.713,325.927,781.005,0,0,0,
,1.564,-1.753,1.025,184.631,-220.093,220.581,0,0,0,
,1.321,-1.395,1.013,179.443,-305.787,-127.93,0,0,0,
,1.008,-1.109,0.877,323.547,-399.17,-476.075,0,0,0,
,0.809,-1.129,0.788,312.255,-429.627,-791.077,0,0,0,
,0.585,-0.912,0.502,38.696,-353.394,-879.212,0,0,0,
,0.264,-0.429,0.212,-247.01,-219.3,-791.504,0,0,0,
,-0.202,0.266,-0.003,-466.065,-10.315,-544.983,0,0,0,
,-0.532,0.496,0.234,-376.77,167.114,-222.107,0,0,0,
,-0.283,0.214,0.42,-123.719,321.594,238.83,0,0,0,
,0.015,-0.198,0.522,173.278,458.679,626.648,0,0,0,
,0.364,-0.193,0.387,356.14,444.702,885.498,0,0,0,
,1.009,-0.809,0.663,489.013,174.987,762.024,0,0,0,
,1.634,-1.697,0.826,405.944,-49.439,346.923,0,0,0,
,1.288,-1.619,0.771,201.172,-221.375,-474.183,0,0,0,
,0.971,-1.325,0.74,269.775,-244.568,-823.182,0,0,0,
,0.388,-1.188,0.882,-30.701,-91.126,-1033.143,0,0,0,
,-0.001,-0.62,0.767,-707.215,179.382,-1120.423,0,0,0,
,-0.204,-0.071,0.631,-1140.503,364.38,-1047.181,0,0,0,
,-0.066,0.229,0.473,-1101.807,394.531,-768.86,0,0,0,
,0.182,0.266,0.341,-836.121,370.117,-386.658,0,0,0,
,0.116,0.31,0.167,-614.258,412.902,37.658,0,0,0,
,-0.018,0.151,0.061,-353.028,470.214,353.332,0,0,0,
,0.273,-0.335,0.106,-200.684,517.578,549.133,0,0,0,
,0.639,-0.693,0.452,-130.921,568.115,601.867,0,0,0,
,0.924,-1.009,0.651,-44.434,528.93,585.388,0,0,0,
,1.104,-1.201,0.75,-89.966,-125.855,-213.929,0,0,0,
,0.799,-0.992,0.673,353.637,-357.911,-385.376,0,0,0,
,0.598,-0.959,0.574,687.622,-488.587,-460.816,0,0,0,
,0.285,-0.723,0.329,578.918,-487.977,-458.741,0,0,0,
,-0.096,-0.144,-0.097,306.457,-393.067,-322.571,0,0,0,
,-0.015,-0.494,0.917,216.308,269.043,507.202,0,0,0,
,0.538,-0.464,0.868,475.525,332.031,666.381,0,0,0,
,1.118,-0.976,0.793,727.722,45.532,505.371,0,0,0,
,1.348,-2.013,1.091,493.713,-283.814,-48.706,0,0,0,
,1.137,-2.112,1.234,-142.64,-380.738,-351.807,0,0,0,
,0.166,-0.25,0.239,-58.899,-646.912,-537.598,0,0,0,
,-0.277,0.163,0.154,-73.304,-480.347,-346.009,0,0,0,
,-0.425,0.489,0.167,-8.484,-234.192,18.066,0,0,0,
,-0.296,0.363,0.365,310.058,41.259,369.751,0,0,0,
,0.016,-0.106,0.557,669.799,287.292,678.833,0,0,0,
,0.335,-0.287,0.426,883.117,380.127,866.272,0,0,0,
,0.884,-0.74,0.539,910.766,209.777,783.447,0,0,0,
,1.553,-1.906,0.89,661.377,-107.483,291.32,0,0,0,
,1.53,-2.451,1.072,108.276,-255.555,-101.99,0,0,0,
,1.177,-1.681,0.882,-11.78,-370.911,-386.658,0,0,0,
,0.81,-1.25,0.766,220.947,-497.986,-657.898,0,0,0,
,0.598,-1.191,0.578,334.9,-534.729,-831.971,0,0,0,
,0.368,-0.758,0.224,34.545,-453.248,-842.591,0,0,0,
,-0.008,-0.138,0.001,-263.977,-307.068,-665.101,0,0,0,
,-0.683,0.654,0.023,-145.813,49.255,52.124,0,0,0,
,-0.483,0.257,0.251,-64.087,260.986,418.579,0,0,0,
,-0.203,-0.108,0.291,-17.823,457.031,680.114,0,0,0,
,0.269,-0.383,0.447,289.123,447.204,803.405,0,0,0,
,1.017,-1.339,0.808,551.147,211.547,660.461,0,0,0,
,1.479,-2.671,0.939,249.511,-10.376,135.376,0,0,0,
,1.243,-2.339,1.027,-257.386,-52.857,-119.141,0,0,0,
,0.944,-1.607,0.768,-213.074,-169.983,-438.05,0,0,0,
,0.554,-1.113,0.618,-43.824,-288.025,-602.356,0,0,0,
,0.251,-0.757,0.472,-93.14,-284.79,-698.487,0,0,0,
,-0.156,-0.265,0.225,-380.616,-164.551,-599.976,0,0,0,
,-0.447,0.281,0.125,-450.806,-30.579,-284.668,0,0,0,
,-0.504,0.546,0.24,-210.816,82.458,105.041,0,0,0,
,-0.288,0.103,0.381,11.596,208.435,468.322,0,0,0,
,-0.025,-0.091,0.3,22.094,343.689,690.673,0,0,0,
,0.293,-0.382,0.371,100.463,345.092,799.011,0,0,0,
,0.732,-1.068,0.734,153.869,218.383,741.027,0,0,0,
,1.178,-1.819,0.999,-35.462,72.326,496.399,0,0,0,
,1.248,-1.964,1.034,-238.465,-23.072,205.505,0,0,0,
,1.137,-1.731,0.986,-160.462,-176.575,-166.382,0,0,0,
,0.959,-1.422,0.812,11.23,-334.656,-450.745,0,0,0,
,0.642,-1.115,0.673,28.259,-407.044,-690.125,0,0,0,
,0.378,-0.772,0.369,-63.782,-362.366,-755.005,0,0,0,
,-0.061,-0.16,0.181,-432.312,-191.102,-624.451,0,0,0,
,-0.129,0.089,0.378,-38.208,220.214,353.454,0,0,0,
,0.15,-0.17,0.336,108.459,323.303,570.251,0,0,0,
,0.466,-0.497,0.524,221.74,297.607,645.141,0,0,0,
,0.826,-1.214,0.918,368.774,173.706,532.226,0,0,0,
,1.242,-1.828,0.992,340.088,-21.546,227.722,0,0,0,
,1.236,-1.991,0.963,167.663,-177.185,-177.857,0,0,0,
,0.906,-1.632,0.783,78.064,-311.89,-498.78,0,0,0,
,0.563,-1.262,0.623,166.992,-377.747,-755.677,0,0,0,
,0.225,-0.928,0.374,-22.583,-302.247,-833.802,0,0,0,
,-0.158,-0.389,0.145,-241.883,-133.728,-736.939,0,0,0,
,-0.499,0.142,0.078,-421.021,52.368,-488.526,0,0,0,
,-0.441,0.456,0.079,-262.391,197.692,-119.263,0,0,0,
,-0.287,0.25,0.243,-113.465,336.486,240.173,0,0,0,
,-0.052,-0.005,0.219,-80.506,480.713,530.944,0,0,0,
,0.14,-0.152,0.34,-193.177,600.769,682.067,0,0,0,
,0.583,-0.667,0.822,-13.672,565.734,731.628,0,0,0,
,1.335,-1.821,1.043,-19.898,-104.798,-272.461,0,0,0,
,0.964,-1.353,0.823,-39.856,-254.822,-563.05,0,0,0,
,0.655,-0.859,0.642,38.391,-313.66,-736.329,0,0,0,
,0.301,-0.51,0.303,123.474,-260.437,-691.285,0,0,0,
,-0.455,0.364,0.079,-123.841,117.614,-79.285,0,0,0,
,-0.326,0.279,0.271,-109.62,311.645,276.611,0,0,0,
,0.052,-0.188,0.391,10.559,441.711,520.507,0,0,0,
,0.373,-0.354,0.401,37.78,474.914,673.278,0,0,0,
,0.741,-0.847,0.734,203.308,338.806,623.718,0,0,0,
,1.292,-1.545,0.948,328.796,115.295,374.328,0,0,0,
,0.815,-1.309,0.772,54.504,-183.411,-738.221,0,0,0,
,0.592,-1.223,0.671,165.527,-208.497,-901.368,0,0,0,
,0.35,-0.889,0.353,-35.401,-171.326,-908.265,0,0,0,
,-0.029,-0.159,0.036,-316.04,-74.341,-738.526,0,0,0,
,-0.549,0.446,0.081,-302.979,30.395,-402.466,0,0,0,
,-0.736,0.577,0.107,18.371,131.652,33.02,0,0,0,
,-0.49,0.179,0.331,54.565,319.397,400.512,0,0,0,
,-0.124,-0.15,0.329,-31.25,485.962,676.635,0,0,0,
,0.258,-0.306,0.449,-59.449,529.419,825.134,0,0,0,
,0.862,-0.864,0.87,231.079,345.581,820.129,0,0,0,
,1.517,-1.874,1.029,245.483,68.908,502.99,0,0,0,
,1.637,-2.218,1.046,-53.345,-78.675,32.47,0,0,0,
,1.276,-1.784,0.944,-84.29,-233.765,-435.914,0,0,0,
,0.883,-1.254,0.953,46.63,-358.155,-679.078,0,0,0,
,0.609,-1.096,0.827,126.953,-369.751,-907.715,0,0,0,
,0.381,-0.845,0.55,-42.664,-309.327,-912.415,0,0,0,
,0.173,-0.336,0.244,-232.911,-243.103,-717.102,0,0,0,
,-0.161,0.226,0.171,-344.483,-134.644,-443.909,0,0,0,
,-0.381,0.584,0.052,-269.349,-19.654,-105.957,0,0,0,
,-0.352,0.423,0.177,-134.949,129.76,236.694,0,0,0,
,-0.034,-0.059,0.349,-193.482,320.251,524.475,0,0,0,
,0.24,-0.202,0.431,-343.995,490.112,729.797,0,0,0,
,0.638,-0.367,0.746,-243.653,506.652,830.261,0,0,0,
,1.219,-0.787,1.065,103.637,293.457,768.066,0,0,0,
,1.54,-1.578,1.15,280.822,33.386,365.539,0,0,0,
,1.387,-1.87,1.094,178.527,-165.223,-79.834,0,0,0,
,0.901,-1.499,0.936,53.527,-327.088,-282.471,0,0,0,
,0.577,-1.117,0.79,75.134,-396.973,-417.115,0,0,0,
,0.35,-0.837,0.605,152.771,-401.612,-450.928,0,0,0,
,0.072,-0.425,0.257,12.023,-314.759,-395.874,0,0,0,
,-0.61,0.251,0.08,-51.575,198.974,246.093,0,0,0,
,-0.185,-0.11,0.394,142.578,340.515,513.549,0,0,0,
,0.377,-0.703,0.703,304.87,372.741,649.109,0,0,0,
,1.018,-1.328,0.88,352.356,218.689,525.94,0,0,0,
,1.092,-1.722,1.016,-48.34,-123.658,-117.066,0,0,0,
,0.805,-1.413,0.837,12.634,-260.132,-366.578,0,0,0,
,0.519,-1.114,0.717,104.614,-363.16,-484.07,0,0,0,
,0.305,-0.675,0.407,-44.251,-331.238,-529.175,0,0,0,
,-0.045,-0.294,0.269,-110.413,-250.489,-412.049,0,0,0,
,-0.29,0.112,0.207,-115.967,-133.789,-151.368,0,0,0,
,-0.373,0.267,0.195,-81.971,24.292,76.232,0,0,0,
,-0.247,0.105,0.369,10.437,205.2,358.886,0,0,0,
,-0.023,-0.035,0.407,130.249,379.577,657.837,0,0,0,
,0.59,-0.235,0.53,469.482,442.505,1040.344,0,0,0,
,1.162,-0.658,0.752,899.047,183.166,1100.28,0,0,0,
,1.539,-1.599,0.753,709.045,-81.604,760.925,0,0,0,
,1.424,-1.95,0.835,8.85,-165.101,327.819,0,0,0,
,1.158,-1.279,0.868,-191.102,-215.455,70.434,0,0,0,
,1.03,-0.995,0.851,154.785,-299.5,-174.317,0,0,0,
,0.814,-0.993,0.705,411.865,-314.881,-378.174,0,0,0,
,0.654,-0.961,0.62,390.808,-288.819,-494.202,0,0,0,
,0.547,-0.821,0.572,286.01,-254.578,-511.963,0,0,0,
,0.463,-0.631,0.565,206.909,-239.502,-476.624,0,0,0,
,0.396,-0.497,0.57,231.323,-236.512,-421.692,0,0,0,
,0.379,-0.408,0.569,476.44,-258.728,-343.628,0,0,0,
,0.364,-0.353,0.552,767.944,-283.875,-254.822,0,0,0,
,0.352,-0.562,0.333,1708.923,-325.745,-101.136,0,0,0,
,0.315,-0.678,0.182,1892.517,-314.576,-83.68,0,0,0,
,0.31,-0.766,0.096,1997.436,-310.425,-83.985,0,0,0,
,0.306,-0.804,0.033,1999.694,-292.969,-68.238,0,0,0,
,0.302,-0.831,-0.074,1999.694,-257.264,-38.208,0,0,0,
,0.31,-0.882,-0.149,1978.82,-243.103,-54.566,0,0,0,
,0.313,-0.938,-0.206,1757.934,-222.962,-80.628,0,0,0,
,0.308,-1.019,-0.234,1480.041,-210.511,-109.436,0,0,0,
,0.308,-1.094,-0.267,1238.159,-190.125,-125.306,0,0,0,
,0.316,-0.958,-0.375,1094.055,-171.509,-96.253,0,0,0,
,0.334,-0.852,-0.375,1115.478,-161.133,-80.994,0,0,0,
,0.319,-0.829,-0.433,1114.074,-146.607,-89.356,0,0,0,
,0.301,-0.881,-0.451,1110.168,-132.203,-113.526,0,0,0,
,0.3,-0.898,-0.482,1024.231,-99.488,-130.31,0,0,0,
,0.306,-0.954,-0.509,938.781,-68.787,-163.025,0,0,0,
,0.296,-0.902,-0.448,749.755,-65.186,-155.762,0,0,0,
,0.276,-0.822,-0.423,584.716,-62.317,-176.331,0,0,0,
,0.252,-0.831,-0.409,479.736,-36.744,-205.323,0,0,0,
,0.255,-0.965,-0.585,460.754,39.306,-219.117,0,0,0,
,0.265,-0.891,-0.638,311.95,45.959,-198.792,0,0,0,
,0.265,-0.801,-0.678,296.569,51.269,-180.726,0,0,0,
,0.253,-0.907,-0.565,160.949,57.312,-123.719,0,0,0,
,0.24,-0.806,-0.528,-10.804,24.108,-104.737,0,0,0,
,0.222,-0.724,-0.537,-24.476,31.433,-90.943,0,0,0,
,0.239,-0.674,-0.537,63.171,35.888,-62.684,0,0,0,
,0.247,-0.741,-0.537,128.418,28.137,-48.768,0,0,0,
,0.233,-0.8,-0.511,86.547,20.324,-37.72,0,0,0,
,0.237,-0.781,-0.504,5.92,35.827,-36.622,0,0,0,
,0.264,-0.781,-0.577,-25.513,46.142,-46.631,0,0,0,
,0.285,-0.762,-0.594,-10.804,35.949,-33.692,0,0,0,
,0.276,-0.758,-0.585,5.676,2.929,-34.119,0,0,0,
,0.245,-0.792,-0.518,10.131,-15.32,-7.447,0,0,0,
,0.257,-0.792,-0.524,-13.733,-14.222,3.784,0,0,0,
,0.262,-0.816,-0.523,-42.725,-22.644,13.549,0,0,0,
,0.261,-0.839,-0.509,-98.694,-28.809,28.564,0,0,0,
,0.285,-0.709,-0.566,-151.856,-1.038,83.19,0,0,0,
,0.293,-0.749,-0.574,-49.256,-9.217,91.552,0,0,0,
,0.292,-0.808,-0.548,-11.048,-14.344,87.219,0,0,0,
,0.299,-0.833,-0.556,-26.307,-8.118,87.219,0,0,0,
,0.305,-0.812,-0.564,-51.27,-19.776,77.453,0,0,0,
,0.321,-0.819,-0.549,-40.589,-30.701,60.852,0,0,0,
,0.312,-0.793,-0.517,46.997,-45.472,66.711,0,0,0,
,0.316,-0.797,-0.535,96.923,-42.786,50.781,0,0,0,
,0.3,-0.829,-0.558,94.055,-40.528,37.353,0,0,0,
,0.315,-0.881,-0.56,79.589,-29.053,19.836,0,0,0,
,0.334,-0.869,-0.534,43.884,-28.748,52.49,0,0,0,
,0.349,-0.885,-0.513,59.875,-27.039,68.481,0,0,0,
,0.341,-0.726,-0.495,73.12,-87.952,113.403,0,0,0,
,0.274,-0.763,-0.537,-36.072,-68.665,21.301,0,0,0,
,0.292,-0.849,-0.543,-53.406,-17.762,10.376,0,0,0,
,0.36,-0.823,-0.541,-38.88,7.08,38.818,0,0,0,
,0.405,-0.794,-0.518,33.447,-14.649,76.538,0,0,0,
,0.358,-0.796,-0.592,155.944,-41.687,81.787,0,0,0,
,0.362,-0.768,-0.561,170.166,-113.648,75.744,0,0,0,
,0.312,-0.701,-0.513,-1.954,-172.791,57.006,0,0,0,
,0.311,-0.698,-0.553,44.128,-151.673,-31.922,0,0,0,
,0.343,-0.753,-0.619,129.15,-158.631,-30.213,0,0,0,
,0.346,-0.771,-0.625,181.213,-165.406,-10.743,0,0,0,
,0.371,-0.78,-0.599,259.033,-134.644,7.995,0,0,0,
,0.332,-0.709,-0.553,149.597,-184.998,49.255,0,0,0,
,0.303,-0.687,-0.54,97.9,-115.296,-43.702,0,0,0,
,0.348,-0.75,-0.586,112.976,-74.341,-53.528,0,0,0,
,0.37,-0.809,-0.614,69.519,-44.495,-53.04,0,0,0,
,0.399,-0.79,-0.626,24.963,-47.974,-34.668,0,0,0,
,0.383,-0.753,-0.593,-26.795,-52.002,-39.917,0,0,0,
,0.386,-0.729,-0.548,-78.797,-29.786,-63.965,0,0,0,
,0.423,-0.716,-0.515,-98.755,-10.621,-60.12,0,0,0,
,0.416,-0.717,-0.515,-70.191,39.245,-20.63,0,0,0,
,0.416,-0.761,-0.526,-44.922,59.509,-30.945,0,0,0,
,0.415,-0.8,-0.529,-81.36,68.542,-29.236,0,0,0,
,0.396,-0.796,-0.579,-200.318,89.965,-60.181,0,0,0,
,0.395,-0.787,-0.606,-312.195,121.093,-113.953,0,0,0,
,0.413,-0.808,-0.635,-379.212,140.991,-160.767,0,0,0,
,0.483,-0.822,-0.536,-275.879,109.863,-144.715,0,0,0,
,0.44,-0.814,-0.484,-221.985,25.207,-91.736,0,0,0,
,0.328,-0.778,-0.465,-256.775,9.887,-62.317,0,0,0,
,0.228,-0.866,-0.542,-399.231,37.048,-140.686,0,0,0,
,0.249,-0.992,-0.526,-639.466,111.755,-208.497,0,0,0,
,0.331,-1.033,-0.416,-923.645,150.94,-189.698,0,0,0,
,0.368,-0.912,-0.391,-1155.152,145.996,-96.985,0,0,0,
,0.366,-0.813,-0.437,-1126.587,134.033,-49.927,0,0,0,
,0.333,-0.744,-0.428,-1037.903,90.881,-20.081,0,0,0,
,0.314,-0.785,-0.386,-912.232,107.299,-40.833,0,0,0,
,0.316,-0.963,-0.422,-875.306,149.963,-62.745,0,0,0,
,0.342,-1.067,-0.392,-914.368,155.639,-85.144,0,0,0,
,0.363,-1.011,-0.349,-995.606,129.516,-51.27,0,0,0,
,0.389,-0.895,-0.261,-963.868,66.894,-2.503,0,0,0,
,0.367,-0.825,-0.182,-905.518,17.456,15.564,0,0,0,
,0.327,-0.833,-0.087,-777.161,13.916,6.774,0,0,0,
,0.257,-0.961,-0.12,-774.476,98.266,12.939,0,0,0,
,0.236,-1.013,-0.102,-910.401,127.624,3.784,0,0,0,
,0.164,-0.954,-0.015,-1207.093,205.993,-4.517,0,0,0,
,0.155,-0.781,0.096,-1269.715,236.389,-5.738,0,0,0,
,0.155,-0.766,0.03,-1132.386,259.826,-13.062,0,0,0,
,0.248,-0.741,-0.016,-962.525,183.838,13.794,0,0,0,
,0.272,-0.762,0.135,-805.848,80.017,59.57,0,0,0,
,0.119,-0.62,0.292,-706.788,58.593,125.549,0,0,0,
,-0.062,-0.43,0.312,-622.681,149.902,183.288,0,0,0,
,-0.104,-0.476,0.327,-557.19,226.074,269.47,0,0,0,
,-0.011,-0.633,0.32,-611.084,335.205,399.841,0,0,0,
,0.179,-0.831,0.443,-805.909,391.906,598.999,0,0,0,
,0.513,-0.615,0.29,-853.455,440.857,779.113,0,0,0,
,0.909,-0.727,0.457,-469.178,290.832,855.102,0,0,0,
,1.561,-1.806,0.986,63.781,-39.246,333.984,0,0,0,
,1.521,-1.78,0.858,-75.074,-70.252,-191.163,0,0,0,
,1.444,-1.438,0.659,-43.641,-84.656,-658.509,0,0,0,
,0.973,-1.218,0.621,-64.881,-46.875,-992.432,0,0,0,
,0.74,-1.071,0.487,-161.866,-23.133,-1111.939,0,0,0,
,0.429,-0.762,0.275,-313.538,13.549,-1077.21,0,0,0,
,-0.017,-0.178,-0.008,-531.739,115.478,-912.11,0,0,0,
,-0.546,0.379,-0.105,-759.156,234.375,-645.63,0,0,0,
,-0.691,0.612,-0.024,-750.123,345.092,-214.417,0,0,0,
,-0.461,0.094,0.239,-502.503,429.687,328.613,0,0,0,
,-0.137,-0.126,0.353,-383.606,500.183,742.981,0,0,0,
,0.226,-0.02,0.246,-63.355,437.011,1012.695,0,0,0,
,1.465,-1.194,0.624,1259.826,-214.722,1021.484,0,0,0,
,1.558,-2.389,0.687,891.296,-364.136,511.901,0,0,0,
,1.402,-2.382,0.686,17.517,-220.459,-16.358,0,0,0,
,1.174,-1.247,0.468,-29.175,-160.828,-350.464,0,0,0,
,0.862,-0.964,0.378,424.682,-163.269,-618.897,0,0,0,
,0.27,-0.974,0.239,293.274,-45.594,-742.737,0,0,0,
,-0.473,-0.072,0.147,-852.234,281.616,-319.092,0,0,0,
,-0.197,0.103,0.398,-537.964,321.35,157.348,0,0,0,
,0.093,-0.208,0.454,-90.027,320.068,449.096,0,0,0,
,0.481,-0.308,0.381,444.336,187.988,608.52,0,0,0,
,0.899,-0.906,0.481,876.648,-57.435,569.213,0,0,0,
,1.088,-1.914,0.575,543.945,-215.21,226.989,0,0,0,
,1.201,-2.092,0.53,-171.631,-154.969,-194.825,0,0,0,
,1.053,-1.296,0.356,-162.781,-122.62,-483.399,0,0,0,
,0.786,-1.049,0.34,281.25,-147.706,-692.444,0,0,0,
,0.389,-0.934,0.172,309.875,-70.923,-789.002,0,0,0,
,-0.167,-0.496,0.037,-285.096,106.323,-694.825,0,0,0,
,-0.402,-0.122,0.007,-514.344,224.06,-390.748,0,0,0,
,-0.167,0.014,0.274,-575.074,402.038,402.221,0,0,0,
,0.046,-0.068,0.218,-402.161,416.992,706.359,0,0,0,
,0.854,-0.623,0.556,289.795,195.922,1031.372,0,0,0,
,1.339,-1.208,0.595,530.09,-52.308,851.318,0,0,0,
,1.518,-1.925,0.548,194.58,-199.097,269.897,0,0,0,
,1.531,-1.823,0.55,-41.626,-187.134,-220.826,0,0,0,
,1.283,-1.081,0.556,262.329,-197.998,-638.916,0,0,0,
,0.985,-1.132,0.432,654.846,-165.894,-911.316,0,0,0,
,0.698,-1.15,0.247,445.129,-94.91,-974.122,0,0,0,
,0.248,-0.711,0.068,-178.04,77.209,-871.705,0,0,0,
,-0.416,0.05,0.064,-970.948,316.162,-546.509,0,0,0,
,-0.798,0.559,0.046,-1068.116,480.224,-72.022,0,0,0,
,-0.339,0.371,0.37,-587.281,520.141,448.059,0,0,0,
,0.19,-0.087,0.449,-150.635,469.604,760.925,0,0,0,
,0.727,-0.566,0.537,152.038,283.996,860.107,0,0,0,
,1.28,-1.32,0.758,304.931,10.742,717.529,0,0,0,
,1.493,-2.254,0.92,3.906,-135.987,201.721,0,0,0,
,1.469,-2.028,0.734,-293.824,-133.423,-268.616,0,0,0,
,1.109,-1.281,0.568,-139.527,-223.755,-614.197,0,0,0,
,0.783,-1.176,0.504,92.285,-242.249,-893.433,0,0,0,
,-0.193,-0.285,0.122,-866.15,193.969,-785.889,0,0,0,
,-0.653,0.328,0.096,-1231.812,434.509,-437.195,0,0,0,
,-0.468,0.41,0.398,-884.461,516.601,11.901,0,0,0,
,0.045,-0.091,0.573,-617.188,510.009,360.962,0,0,0,
,0.461,-0.506,0.601,-660.34,397.644,429.687,0,0,0,
,0.983,-0.875,0.851,-502.442,177.185,382.263,0,0,0,
,1.427,-1.557,1.037,52.734,-277.588,-121.888,0,0,0,
,1.332,-1.573,0.822,110.351,-421.753,-400.635,0,0,0,
,1.062,-1.147,0.771,119.934,-496.338,-661.744,0,0,0,
,0.788,-1.105,0.579,105.774,-493.897,-866.272,0,0,0,
,0.347,-0.558,0.116,-349.244,-331.788,-860.23,0,0,0,
,-0.205,0.146,-0.106,-765.198,-51.026,-685.059,0,0,0,
,-0.6,0.526,-0.039,-837.586,180.236,-316.346,0,0,0,
,-0.415,0.469,0.194,-678.406,359.192,52.368,0,0,0,
,-0.035,0.116,0.343,-477.845,500.915,380.432,0,0,0,
,0.2,0.053,0.27,-458.863,553.1,608.154,0,0,0,
,0.466,-0.216,0.457,-599.305,496.948,672.607,0,0,0,
,0.925,-0.725,1.036,-542.847,370.3,639.038,0,0,0,
,1.567,-1.399,1.361,584.411,-149.048,343.2,0,0,0,
,1.454,-1.455,1.099,926.574,-399.476,-33.692,0,0,0,
,1.209,-1.345,0.875,662.353,-548.523,-462.83,0,0,0,
,0.862,-1.21,0.713,496.154,-592.957,-715.76,0,0,0,
,0.336,-0.718,0.314,115.722,-462.098,-722.168,0,0,0,
,-0.358,0.149,0.075,-463.807,-157.105,-572.266,0,0,0,
,-0.805,0.685,-0.001,-470.704,88.501,-263.062,0,0,0,
,-0.584,0.515,0.289,-151.551,322.57,228.088,0,0,0,
,-0.229,-0.076,0.533,2.258,534.607,577.27,0,0,0,
,0.159,-0.041,0.33,92.407,602.722,795.349,0,0,0,
,0.751,-0.463,0.708,238.647,399.658,750.671,0,0,0,
,1.382,-1.228,1.142,524.292,78.979,552.795,0,0,0,
,1.48,-1.761,1.255,551.88,-145.264,213.562,0,0,0,
,1.328,-1.813,1.145,461.853,-284.119,-130.372,0,0,0,
,1.043,-1.238,0.936,250.366,-395.752,-354.248,0,0,0,
,0.784,-0.996,0.78,319.946,-462.708,-593.567,0,0,0,
,0.351,-0.727,0.392,141.418,-369.019,-643.128,0,0,0,
,-0.223,-0.044,0.132,-306.702,-116.15,-484.803,0,0,0,
,-0.419,0.309,0.339,-76.111,251.098,135.254,0,0,0,
,-0.181,-0.005,0.376,25.268,422.851,447.754,0,0,0,
,0.115,0.037,0.249,11.352,449.218,635.681,0,0,0,
,0.52,-0.479,0.62,48.584,317.505,624.023,0,0,0,
,1.028,-1.123,1.123,173.828,122.741,517.822,0,0,0,
,1.349,-1.594,1.204,423.584,-97.413,324.951,0,0,0,
,1.394,-1.724,1.031,517.761,-281.983,-50.354,0,0,0,
,1.033,-1.509,0.843,326.172,-405.945,-354.493,0,0,0,
,0.744,-1.211,0.78,310.241,-483.521,-614.502,0,0,0,
,0.387,-0.953,0.501,183.471,-418.091,-678.345,0,0,0,
,-0.098,-0.366,0.244,-139.771,-198.67,-590.943,0,0,0,
,-0.547,0.287,0.035,-399.048,44.128,-346.192,0,0,0,
,-0.603,0.443,0.158,-182.373,204.773,-19.776,0,0,0,
,-0.258,0.077,0.37,-37.354,365.478,350.647,0,0,0,
,-0.001,-0.107,0.313,-98.206,505.676,606.201,0,0,0,
,0.263,-0.18,0.316,-164.795,568.298,770.385,0,0,0,
,0.637,-0.508,0.732,-204.773,503.418,770.202,0,0,0,
,1.147,-1.062,1.15,-34.852,283.874,652.282,0,0,0,
,1.519,-1.54,1.266,178.833,-24.353,397.888,0,0,0,
,1.483,-1.695,1.163,365.783,-332.947,-8.973,0,0,0,
,1.229,-1.361,0.953,390.869,-541.993,-367.859,0,0,0,
,0.928,-1.053,0.678,501.098,-604.371,-661.56,0,0,0,
,0.367,-0.699,0.307,220.642,-399.414,-725.708,0,0,0,
,-0.143,-0.254,0.206,-237.427,-80.384,-566.102,0,0,0,
,-0.426,0.205,0.114,-627.015,256.286,-232.972,0,0,0,
,-0.3,0.343,0.307,-552.918,456.421,106.201,0,0,0,
,0.123,0.071,0.382,-249.085,509.521,400.94,0,0,0,
,0.458,-0.159,0.43,-89.783,411.804,536.926,0,0,0,
,0.797,-0.59,0.782,97.717,214.05,539.184,0,0,0,
,1.115,-1.067,1.072,355.896,-12.085,398.681,0,0,0,
,1.26,-1.532,0.984,531.128,-198.67,127.38,0,0,0,
,1.099,-1.555,0.802,435.058,-299.5,-184.571,0,0,0,
,0.9,-1.131,0.615,304.687,-353.699,-445.923,0,0,0,
,0.505,-0.828,0.361,204.04,-328.431,-619.873,0,0,0,
,0.017,-0.308,0.089,-189.454,-125.977,-551.026,0,0,0,
,-0.508,0.121,0.164,-524.292,168.579,-242.798,0,0,0,
,-0.517,0.046,0.529,-404.908,377.624,127.38,0,0,0,
,0.144,-0.318,0.581,-302.369,441.772,356.994,0,0,0,
,0.533,-0.432,0.554,-421.265,424.072,480.163,0,0,0,
,1.002,-0.61,0.731,-268.555,252.136,447.387,0,0,0,
,1.45,-0.957,0.891,73.242,1.159,246.093,0,0,0,
,1.346,-1.297,0.896,314.331,-229.065,-62.256,0,0,0,
,0.977,-0.998,0.706,436.645,-498.597,-504.578,0,0,0,
,0.782,-0.94,0.676,449.585,-505.005,-702.942,0,0,0,
,0.604,-0.752,0.353,371.032,-428.467,-752.869,0,0,0,
,0.307,-0.504,0.271,162.353,-279.664,-731.08,0,0,0,
,0.099,-0.26,0.04,8.361,-95.948,-589.051,0,0,0,
,-0.237,0.085,0.071,-325.379,195.861,-362.183,0,0,0,
,-0.442,0.361,0.034,-488.16,488.159,-15.992,0,0,0,
,-0.392,0.205,0.335,-431.946,723.999,295.654,0,0,0,
,0.14,-0.116,0.463,-358.948,848.816,578.186,0,0,0,
,0.605,-0.283,0.668,-460.45,780.883,687.683,0,0,0,
,1.214,-0.693,1.044,-329.834,508.911,662.414,0,0,0,
,1.777,-1.145,1.295,70.983,96.984,440.796,0,0,0,
,1.583,-1.518,1.235,500.427,-272.156,-18.372,0,0,0,
,1.241,-1.481,0.979,604.187,-547.852,-369.141,0,0,0,
,0.934,-1.248,0.915,610.168,-618.042,-697.815,0,0,0,
,0.636,-1.053,0.554,408.935,-536.744,-851.075,0,0,0,
,-0.262,-0.097,0.056,-296.448,-5.677,-580.75,0,0,0,
,-0.557,0.148,0.109,-411.072,257.385,-310.852,0,0,0,
,-0.363,0.09,0.21,-313.782,435.547,26.611,0,0,0,
,-0.125,-0.136,0.42,-230.591,586.12,293.213,0,0,0,
,0.227,-0.298,0.489,-143.311,636.779,439.514,0,0,0,
,0.639,-0.477,0.774,74.279,525.512,458.191,0,0,0,
,1.137,-0.939,0.874,494.69,274.292,398.62,0,0,0,
,1.432,-1.653,0.931,784.301,6.591,33.508,0,0,0,
,1.259,-1.876,0.902,358.093,-209.351,-305.542,0,0,0,
,0.982,-1.126,0.839,248.169,-378.418,-458.374,0,0,0,
,0.024,-0.529,0.137,-199.585,-217.591,-761.78,0,0,0,
,-0.372,0.021,0.186,-596.436,72.204,-511.78,0,0,0,
,-0.533,0.396,0.202,-498.291,292.968,-108.887,0,0,0,
,-0.427,0.277,0.323,-309.754,458.679,207.946,0,0,0,
,-0.019,-0.075,0.312,-289.978,583.374,454.528,0,0,0,
,1.439,-1.158,1.101,289.856,188.903,584.289,0,0,0,
,1.788,-1.638,1.029,459.472,-104.248,163.269,0,0,0,
,1.413,-1.741,0.881,408.935,-365.174,-307.923,0,0,0,
,1.086,-1.441,0.874,254.333,-541.871,-585.144,0,0,0,
,0.873,-1.221,0.762,215.149,-574.707,-790.039,0,0,0,
,0.575,-0.801,0.408,71.655,-503.663,-806.641,0,0,0,
,0.16,-0.204,0.054,-144.349,-333.741,-697.022,0,0,0,
,-0.403,0.493,-0.094,-421.021,-95.032,-395.997,0,0,0,
,-0.803,0.791,-0.091,-148.072,114.807,112.182,0,0,0,
,-0.619,0.473,0.134,69.091,371.338,515.197,0,0,0,
,-0.07,-0.019,0.248,24.169,527.954,769.287,0,0,0,
,0.354,-0.291,0.505,-66.102,540.71,936.462,0,0,0,
,1.027,-0.803,1.01,252.014,324.829,947.57,0,0,0,
,1.719,-1.816,1.074,515.38,14.587,629.638,0,0,0,
,1.798,-2.317,1.072,337.89,-212.83,111.633,0,0,0,
,1.289,-1.916,0.867,216.613,-380.127,-308.838,0,0,0,
,0.836,-1.434,0.78,189.209,-502.32,-604.615,0,0,0,
,0.622,-1.222,0.609,130.737,-482.422,-806.031,0,0,0,
,0.209,-0.629,0.099,-211.243,-314.331,-773.377,0,0,0,
,-0.42,0.08,-0.141,-639.649,-49.622,-556.824,0,0,0,
,-0.952,0.607,-0.205,-554.2,130.432,-108.948,0,0,0,
,-0.865,0.445,0.092,-229.065,361.084,283.508,0,0,0,
,-0.185,-0.191,0.263,-150.086,528.564,514.831,0,0,0,
,0.456,-0.551,0.743,-172.12,461.547,588.623,0,0,0,
,1.185,-1.066,1.071,142.761,204.895,540.222,0,0,0,
,1.484,-1.634,1.188,279.907,-53.406,243.896,0,0,0,
,1.494,-1.78,1.277,239.929,-257.752,-142.334,0,0,0,
,1.044,-1.626,1.062,214.66,-426.636,-396.302,0,0,0,
,0.793,-1.054,0.932,67.871,-512.635,-606.019,0,0,0,
,0.502,-0.815,0.682,-9.827,-466.614,-732.239,0,0,0,
,0.073,-0.222,0.271,-273.194,-321.106,-609.864,0,0,0,
,-0.369,0.401,0.093,-392.64,-130.494,-362.183,0,0,0,
,-0.622,0.694,0.073,-161.316,44.86,26.672,0,0,0,
,-0.409,0.359,0.285,67.382,222.534,379.15,0,0,0,
,0.07,-0.101,0.269,91.308,349.487,617.859,0,0,0,
,0.418,-0.319,0.449,95.764,364.624,743.286,0,0,0,
,0.819,-0.682,0.805,434.082,229.614,773.925,0,0,0,
,1.271,-1.538,1.047,700.073,-13.245,559.814,0,0,0,
,1.566,-2.339,0.957,348.755,-198.731,113.342,0,0,0,
,0.544,-1.152,0.646,226.379,-456.421,-652.588,0,0,0,
,0.322,-0.99,0.329,70.8,-378.357,-708.802,0,0,0,
,0.071,-0.631,0.114,-145.264,-246.644,-653.565,0,0,0,
,-0.226,-0.137,-0.063,-314.881,-76.844,-451.294,0,0,0,
,-0.534,0.174,-0.108,-350.708,106.018,-210.755,0,0,0,
,-0.619,0.172,-0.052,-200.257,279.968,103.515,0,0,0,
,-0.348,-0.223,0.086,-91.553,459.9,364.868,0,0,0,
,-0.013,-0.539,0.193,-382.019,645.263,523.803,0,0,0,
,0.338,-0.651,0.369,-615.296,798.095,586.914,0,0,0,
,0.807,-0.678,0.711,-597.168,761.169,612.609,0,0,0,
,1.273,-0.973,1.148,-279.114,572.204,524.597,0,0,0,
,1.596,-1.096,1.221,49.682,301.452,377.746,0,0,0,
,1.431,-1.144,1.23,320.19,18.676,122.009,0,0,0,
,1.187,-0.922,1.1,440.796,-201.172,-95.398,0,0,0,
,0.997,-0.819,1.044,538.086,-332.154,-337.647,0,0,0,
,0.738,-0.735,1.002,507.324,-363.038,-484.498,0,0,0,
,0.625,-0.61,0.901,464.05,-367.676,-520.63,0,0,0,
,0.548,-0.502,0.797,533.447,-372.925,-487.793,0,0,0,
,0.501,-0.405,0.715,636.169,-371.644,-430.115,0,0,0,
,0.461,-0.367,0.636,823.059,-363.77,-367.371,0,0,0,
,0.426,-0.36,0.566,1082.519,-344.544,-287.598,0,0,0,
,0.403,-0.361,0.496,1362.304,-328.675,-224.366,0,0,0,
,0.359,-0.373,0.395,1611.023,-314.515,-181.397,0,0,0,
,0.32,-0.468,0.311,1732.238,-317.505,-167.725,0,0,0,
,0.296,-0.655,0.206,1755.554,-306.519,-165.162,0,0,0,
,0.302,-0.783,0.07,1711.547,-302.613,-128.602,0,0,0,
,0.293,-0.913,0.009,1551.696,-310.975,-79.285,0,0,0,
,0.282,-0.998,-0.037,1326.599,-304.932,-68.421,0,0,0,
,0.27,-0.978,-0.064,1126.098,-278.321,-17.151,0,0,0,
,0.263,-0.898,-0.064,1031.555,-265.076,-31.556,0,0,0,
,0.265,-0.902,-0.124,1051.88,-213.257,-40.162,0,0,0,
,0.328,-0.995,-0.22,896.606,-162.354,-65.613,0,0,0,
,0.316,-1.021,-0.258,747.192,-149.109,-96.985,0,0,0,
,0.324,-0.964,-0.254,682.19,-146.363,-109.559,0,0,0,
,0.325,-0.8,-0.309,799.377,-117.981,-82.764,0,0,0,
,0.304,-0.839,-0.381,870.361,-96.375,-94.117,0,0,0,
,0.287,-0.93,-0.41,907.959,-87.647,-89.6,0,0,0,
,0.269,-0.974,-0.388,814.026,-76.783,-70.862,0,0,0,
,0.261,-0.961,-0.382,605.529,-62.317,-85.938,0,0,0,
,0.263,-0.902,-0.379,406.616,-52.796,-84.229,0,0,0,
,0.264,-0.842,-0.293,410.156,-62.317,-76.111,0,0,0,
,0.247,-0.843,-0.326,452.087,-57.068,-59.205,0,0,0,
,0.237,-0.816,-0.404,570.312,-48.523,-40.284,0,0,0,
,0.235,-0.768,-0.404,695.434,-47.181,-2.991,0,0,0,
,0.24,-0.82,-0.449,701.355,-57.496,-11.536,0,0,0,
,0.232,-0.927,-0.473,634.094,-56.275,-33.448,0,0,0,
,0.233,-0.959,-0.488,475.341,-42.42,-35.706,0,0,0,
,0.24,-0.943,-0.447,284.057,-36.194,-36.011,0,0,0,
,0.245,-0.902,-0.473,215.393,-29.602,-20.325,0,0,0,
,0.243,-0.824,-0.46,263.977,-25.696,20.08,0,0,0,
,0.246,-0.767,-0.433,365.295,-25.574,38.513,0,0,0,
,0.244,-0.789,-0.553,423.889,-4.7,51.147,0,0,0,
,0.26,-0.932,-0.58,365.539,8.178,18.554,0,0,0,
,0.287,-0.988,-0.538,195.984,-9.644,-3.174,0,0,0,
,0.296,-0.883,-0.499,79.65,-16.846,-3.479,0,0,0,
,0.312,-0.812,-0.54,66.589,-2.32,-25.33,0,0,0,
,0.31,-0.802,-0.547,162.231,10.192,-35.95,0,0,0,
,0.307,-0.876,-0.589,232.849,13.61,-44.495,0,0,0,
,0.285,-0.923,-0.553,195.129,13.183,-48.706,0,0,0,
,0.29,-0.776,-0.567,197.692,43.945,-67.322,0,0,0,
,0.286,-0.855,-0.579,205.139,52.002,-86.182,0,0,0,
,0.284,-0.862,-0.592,171.386,50.842,-92.835,0,0,0,
,0.286,-0.815,-0.583,85.876,43.701,-113.221,0,0,0,
,0.28,-0.768,-0.561,49.743,43.09,-111.329,0,0,0,
,0.265,-0.744,-0.574,66.65,52.795,-93.689,0,0,0,
,0.259,-0.719,-0.581,61.401,76.538,-71.473,0,0,0,
,0.268,-0.728,-0.599,80.2,56.152,-61.463,0,0,0,
,0.286,-0.763,-0.602,113.098,50.598,-53.711,0,0,0,
,0.299,-0.747,-0.557,122.436,34.24,-23.682,0,0,0,
,0.289,-0.772,-0.554,85.693,30.822,-25.879,0,0,0,
,0.281,-0.752,-0.589,50.048,44.738,-10.682,0,0,0,
,0.283,-0.774,-0.601,44.067,40.222,-5.188,0,0,0,
,0.291,-0.724,-0.606,-41.871,13.549,-19.043,0,0,0,
,0.291,-0.745,-0.569,3.112,22.277,-11.353,0,0,0,
,0.299,-0.789,-0.573,25.634,39.367,-6.958,0,0,0,
,0.293,-0.855,-0.569,-37.964,46.569,-5.005,0,0,0,
,0.276,-0.78,-0.57,-142.579,54.26,13.122,0,0,0,
,0.281,-0.695,-0.553,-187.073,56.335,14.587,0,0,0,
,0.289,-0.672,-0.56,-104.737,59.692,29.602,0,0,0,
,0.304,-0.729,-0.561,23.498,61.035,54.504,0,0,0,
,0.307,-0.785,-0.579,49.865,53.222,58.532,0,0,0,
,0.302,-0.844,-0.584,4.76,42.297,48.461,0,0,0,
,0.295,-0.757,-0.537,-85.633,36.926,41.137,0,0,0,
,0.294,-0.784,-0.542,-9.339,39.428,50.476,0,0,0,
,0.297,-0.779,-0.583,58.288,52.795,62.133,0,0,0,
,0.306,-0.795,-0.673,59.265,48.828,29.419,0,0,0,
,0.331,-0.868,-0.631,16.235,20.69,-21.912,0,0,0,
,0.321,-0.845,-0.574,-60.852,3.295,-15.992,0,0,0,
,0.3,-0.737,-0.53,-67.933,5.493,1.586,0,0,0,
,0.306,-0.769,-0.574,-16.48,15.93,-7.813,0,0,0,
,0.303,-0.779,-0.549,26.123,5.737,14.709,0,0,0,
,0.289,-0.722,-0.487,80.078,-5.188,22.522,0,0,0,
,0.271,-0.804,-0.565,68.725,8.972,21.423,0,0,0,
,0.274,-0.85,-0.616,-6.592,25.573,-0.489,0,0,0,
,0.302,-0.792,-0.587,-52.002,31.86,-0.794,0,0,0,
,0.3,-0.778,-0.587,-66.285,26.306,-10.804,0,0,0,
,0.285,-0.745,-0.554,-40.65,19.043,-6.775,0,0,0,
,0.282,-0.759,-0.56,9.826,28.93,-11.719,0,0,0,
,0.282,-0.773,-0.576,29.602,38.635,-13.184,0,0,0,
,0.282,-0.778,-0.602,21.423,42.602,-15.198,0,0,0,
,0.286,-0.757,-0.598,28.625,40.283,-20.813,0,0,0,
,0.291,-0.783,-0.598,36.193,42.663,-37.781,0,0,0,
,0.289,-0.812,-0.585,28.747,25.268,-43.641,0,0,0,
,0.277,-0.785,-0.566,5.676,10.925,-43.03,0,0,0,
,0.273,-0.764,-0.579,2.136,11.718,-39.673,0,0,0,
,0.273,-0.758,-0.591,22.277,11.962,-35.34,0,0,0,
,0.27,-0.799,-0.611,28.625,0.61,-29.969,0,0,0,
,0.256,-0.79,-0.575,-18.982,-17.945,-22.156,0,0,0,
,0.252,-0.777,-0.556,-27.527,-21.973,-28.504,0,0,0,
,0.255,-0.772,-0.538,-4.883,-31.678,-7.752,0,0,0,
,0.24,-0.809,-0.522,-39.551,-53.223,-8.667,0,0,0,
,0.214,-0.791,-0.51,-82.764,-57.068,5.859,0,0,0,
,0.211,-0.782,-0.528,-121.888,-55.481,12.39,0,0,0,
,0.248,-0.824,-0.553,-148.438,-54.566,11.535,0,0,0,
,0.309,-0.851,-0.584,-179.322,-37.476,14.587,0,0,0,
,0.41,-0.822,-0.618,-113.831,-23.682,24.841,0,0,0,
,0.48,-0.86,-0.619,-28.87,-46.57,7.995,0,0,0,
,0.473,-0.953,-0.577,14.648,-76.294,-21.18,0,0,0,
,0.425,-0.951,-0.559,-58.167,-84.046,-97.107,0,0,0,
,0.401,-0.934,-0.522,-118.287,-47.791,-150.33,0,0,0,
,0.382,-0.861,-0.529,-151.551,-37.72,-174.805,0,0,0,
,0.346,-0.817,-0.53,-108.094,-23.499,-171.204,0,0,0,
,0.331,-0.759,-0.547,18.371,-18.128,-186.89,0,0,0,
,0.291,-0.907,-0.475,-161.744,-67.261,-171.509,0,0,0,
,0.285,-0.766,-0.545,-169.312,-21.241,-189.148,0,0,0,
,0.314,-0.747,-0.542,-123.414,-32.227,-169.129,0,0,0,
,0.297,-0.912,-0.571,-141.053,-72.876,-215.638,0,0,0,
,0.215,-0.783,-0.543,-347.901,-20.752,-244.996,0,0,0,
,0.169,-0.754,-0.519,-226.685,-15.564,-218.75,0,0,0,
,0.145,-0.854,-0.553,-213.196,-27.1,-233.46,0,0,0,
,0.093,-0.977,-0.476,-308.655,-14.832,-228.15,0,0,0,
,0.042,-0.836,-0.387,-618.592,7.507,-206.788,0,0,0,
,0.011,-0.568,-0.292,-685.12,24.047,-187.806,0,0,0,
,0.004,-0.438,-0.292,-407.715,41.626,-112.122,0,0,0,
,-0.189,-0.528,-0.17,-729.798,-11.109,141.54,0,0,0,
,-0.304,-0.456,-0.063,-1400.635,27.832,252.746,0,0,0,
,-0.246,-0.365,-0.04,-1844.361,101.562,444.519,0,0,0,
,-0.147,-0.339,-0.051,-1912.903,202.758,740.234,0,0,0,
,0.11,-0.161,-0.179,-1533.204,268.798,1074.524,0,0,0,
,0.505,-0.365,-0.073,-1108.765,216.98,1381.53,0,0,0,
,1.687,-2.365,0.243,-715.332,-28.626,641.54,0,0,0,
,1.54,-1.925,0.225,-362.732,50.231,117.004,0,0,0,
,1.262,-1.579,0.109,204.651,71.289,-417.725,0,0,0,
,0.962,-1.715,0.134,244.201,188.903,-782.898,0,0,0,
,0.658,-1.464,0.134,-266.541,272.766,-922.852,0,0,0,
,-0.548,0.691,0.105,-1489.625,382.995,-468.567,0,0,0,
,-0.403,0.411,0.258,-876.343,388.61,172.241,0,0,0,
,-0.115,0.013,0.439,-247.925,446.228,797.424,0,0,0,
,0.183,0.036,0.279,420.898,390.014,1209.045,0,0,0,
,0.789,-0.459,0.14,1084.716,55.236,1343.933,0,0,0,
,1.279,-1.626,0.296,1069.885,-374.207,1051.696,0,0,0,
,1.363,-2.823,0.52,137.39,-470.459,437.866,0,0,0,
,1.316,-2.105,0.352,-354.432,-321.961,27.648,0,0,0,
,1.177,-1.305,0.196,324.524,-198.304,-326.477,0,0,0,
,0.805,-1.228,0.196,803.1,-85.267,-757.752,0,0,0,
,0.577,-1.597,0.102,477.172,64.148,-970.582,0,0,0,
,0.246,-1.142,0.067,-502.564,233.459,-872.62,0,0,0,
,-0.136,-0.026,0.091,-1017.09,311.279,-664.429,0,0,0,
,-0.467,0.673,0.063,-739.685,251.709,-346.436,0,0,0,
,-0.321,0.296,0.224,-222.168,121.032,230.713,0,0,0,
,0.057,-0.401,0.312,312.988,72.082,745.239,0,0,0,
,0.335,-0.282,0.177,568.42,-0.489,1015.258,0,0,0,
,0.762,-0.982,0.147,588.317,-168.152,952.331,0,0,0,
,1.236,-1.619,0.207,-845.948,-87.037,-394.288,0,0,0,
,1.09,-1.318,0.189,-279.053,-6.897,-691.224,0,0,0,
,0.85,-1.241,0.161,-31.983,69.946,-926.88,0,0,0,
,0.445,-0.958,0.07,-546.448,204.406,-986.207,0,0,0,
,-0.014,-0.339,0.016,-1260.01,321.838,-839.722,0,0,0,
,-0.276,0.316,-0.011,-1353.577,373.718,-513.794,0,0,0,
,-0.151,0.403,0.202,-739.258,387.085,28.015,0,0,0,
,0.002,-0.108,0.283,-90.699,391.479,497.985,0,0,0,
,0.253,-0.268,0.338,410.827,329.528,797.424,0,0,0,
,0.605,-0.741,0.34,142.151,123.596,760.437,0,0,0,
,1.034,-1.651,0.549,-549.195,-63.233,342.59,0,0,0,
,1.199,-1.39,0.66,-1001.587,-121.705,-299.561,0,0,0,
,1.065,-1.107,0.583,-243.042,-146.302,-533.814,0,0,0,
,0.813,-1.209,0.548,130.371,-169.373,-774.414,0,0,0,
,0.493,-0.936,0.427,-205.689,-47.059,-848.877,0,0,0,
,-0.001,-0.258,0.256,-883.484,151.062,-807.984,0,0,0,
,-0.317,0.32,0.128,-1045.166,289.184,-559.51,0,0,0,
,-0.314,0.353,0.286,-734.925,388.366,-121.521,0,0,0,
,-0.155,0.083,0.471,-384.888,486.999,407.653,0,0,0,
,0.135,-0.098,0.468,-87.525,483.52,751.281,0,0,0,
,0.48,-0.473,0.517,-155.091,331.237,834.411,0,0,0,
,0.987,-1.268,0.851,-372.62,107.605,620.422,0,0,0,
,1.276,-1.632,0.996,-456.36,-47.669,371.215,0,0,0,
,1.204,-1.539,0.851,116.516,-294.8,-341.797,0,0,0,
,1.014,-1.567,0.892,-0.428,-375.428,-733.765,0,0,0,
,0.877,-1.438,0.862,-192.322,-386.475,-966.675,0,0,0,
,0.73,-1.147,0.619,-248.23,-428.956,-1032.898,0,0,0,
,0.389,-0.36,0.233,-185.364,-407.105,-914.734,0,0,0,
,-0.233,0.314,-0.039,-46.021,-305.726,-744.324,0,0,0,
,-0.813,0.875,-0.072,-94.849,-161.072,-464.783,0,0,0,
,-0.58,0.454,0.206,9.887,139.038,9.46,0,0,0,
,-0.288,0.268,0.394,-73.121,431.457,523.132,0,0,0,
,0.092,0.198,0.268,-93.018,503.54,804.443,0,0,0,
,0.536,-0.401,0.541,-280.884,385.803,805.175,0,0,0,
,1.123,-1.163,1.078,-236.573,185.73,682.922,0,0,0,
,1.563,-1.505,1.266,235.962,-9.583,602.844,0,0,0,
,1.07,-1.434,0.839,-127.93,-333.313,-754.7,0,0,0,
,0.778,-1.281,0.763,-184.144,-356.995,-1011.841,0,0,0,
,0.471,-0.701,0.343,-369.69,-302.674,-976.197,0,0,0,
,-0.143,0.236,-0.077,-633.912,-123.597,-811.707,0,0,0,
,-0.682,0.975,-0.187,-493.775,-0.061,-546.631,0,0,0,
,-0.642,0.681,-0.044,-152.588,185.485,-27.649,0,0,0,
,-0.457,0.184,0.2,-126.831,479.858,458.984,0,0,0,
,-0.11,-0.03,0.282,-135.56,670.654,749.878,0,0,0,
,0.484,-0.489,0.665,-171.814,627.38,710.571,0,0,0,
,1.031,-1.269,1.205,-18.189,366.76,460.754,0,0,0,
,1.379,-1.893,1.4,193.481,22.888,227.539,0,0,0,
,1.241,-2.013,1.52,209.9,-223.572,-89.539,0,0,0,
,0.867,-1.629,1.25,-34.668,-399.353,-292.176,0,0,0,
,0.666,-0.948,1.019,-45.96,-475.037,-509.034,0,0,0,
,0.377,-0.852,0.817,113.159,-518.128,-639.1,0,0,0,
,0.109,-0.412,0.528,-94.605,-423.34,-600.953,0,0,0,
,-0.123,0.003,0.207,-144.349,-315.857,-453.797,0,0,0,
,-0.334,0.341,-0.036,-31.922,-188.904,-212.22,0,0,0,
,-0.42,0.44,0.032,75.012,-7.874,45.715,0,0,0,
,-0.381,0.054,0.276,-10.682,236.084,329.528,0,0,0,
,-0.228,-0.041,0.426,-143.677,517.151,636.047,0,0,0,
,0.064,-0.091,0.607,46.142,675.476,868.896,0,0,0,
,0.538,-0.51,0.891,408.508,538.086,932.556,0,0,0,
,1.043,-1.335,1.265,534.179,215.637,705.261,0,0,0,
,1.397,-1.925,1.304,427.551,-151.795,403.93,0,0,0,
,1.297,-1.931,1.348,218.872,-435.547,-49.5,0,0,0,
,1.06,-1.5,1.046,57.556,-631.165,-354.859,0,0,0,
,0.688,-1.087,0.83,20.446,-748.414,-639.71,0,0,0,
,0.276,-0.853,0.585,-147.767,-717.835,-754.517,0,0,0,
,-0.214,-0.129,0.292,-448.243,-536.133,-693.604,0,0,0,
,-0.436,0.468,0.013,-160.035,-31.25,-120.301,0,0,0,
,-0.289,0.204,0.175,-35.462,288.147,296.569,0,0,0,
,-0.098,-0.151,0.415,-47.486,550.964,634.521,0,0,0,
,0.302,-0.354,0.66,109.863,626.648,790.344,0,0,0,
,0.886,-0.868,0.916,443.481,393.921,684.082,0,0,0,
,1.127,-2.014,1.147,235.29,-269.165,-2.381,0,0,0,
,0.815,-1.777,1.142,137.939,-437.989,-288.88,0,0,0,
,0.648,-1.104,0.762,80.139,-489.197,-475.525,0,0,0,
,0.377,-1.003,0.599,162.902,-531.495,-690.979,0,0,0,
,0.099,-0.56,0.354,-98.755,-394.776,-662.903,0,0,0,
,-0.234,-0.002,0.132,-211.976,-206.727,-527.894,0,0,0,
,-0.4,0.29,0.089,-126.221,0.732,-299.134,0,0,0,
,-0.296,0.1,0.258,-48.89,270.019,-4.517,0,0,0,
,-0.095,-0.205,0.51,-75.562,552.673,312.5,0,0,0,
,0.062,-0.374,0.749,-61.585,746.887,556.335,0,0,0,
,0.425,-0.475,0.789,203.43,696.289,643.859,0,0,0,
,0.981,-0.964,0.81,365.295,357.544,467.59,0,0,0,
,1.372,-1.806,1.005,377.99,-54.444,48.217,0,0,0,
,1.196,-1.974,1.133,166.87,-298.951,-292.298,0,0,0,
,0.832,-1.543,0.943,-77.149,-401.978,-552.002,0,0,0,
,0.567,-1.019,0.755,-44.251,-474.06,-715.271,0,0,0,
,0.211,-0.573,0.367,-185.975,-416.016,-753.602,0,0,0,
,-0.146,-0.059,0.05,-348.206,-250,-648.377,0,0,0,
,-0.463,0.338,0.107,-314.209,-31.861,-418.03,0,0,0,
,-0.413,0.198,0.41,-145.203,260.376,-116.333,0,0,0,
,-0.203,-0.214,0.636,-94.605,606.628,236.999,0,0,0,
,-0.011,-0.352,0.748,39.856,831.604,523.681,0,0,0,
,0.269,-0.327,0.541,356.201,862.121,712.646,0,0,0,
,0.927,-1.693,1.213,-34.424,-411.499,-368.653,0,0,0,
,0.695,-1,0.768,-86.731,-447.449,-459.473,0,0,0,
,0.314,-0.621,0.427,-106.202,-453.37,-621.949,0,0,0,
,-0.025,-0.164,0.24,-262.635,-290.772,-556.824,0,0,0,
,-0.271,0.024,0.311,-250.061,-69.275,-390.137,0,0,0,
,0.003,-0.256,0.8,33.996,824.524,464.965,0,0,0,
,0.403,-0.094,0.535,353.698,767.456,602.05,0,0,0,
,0.92,-0.672,0.369,238.281,384.582,358.093,0,0,0,
,1.527,-1.718,0.728,-16.053,-51.209,-116.333,0,0,0,
,1.032,-1.613,1.171,-180.787,-215.516,-181.092,0,0,0,
,0.317,-0.654,0.444,-132.691,-388.367,-449.463,0,0,0,
,-0.013,-0.181,0.202,-293.274,-227.356,-393.128,0,0,0,
,-0.259,0.045,0.121,-235.047,-37.11,-227.967,0,0,0,
,-0.298,0.013,0.342,-188.904,211.975,-8.728,0,0,0,
,-0.179,-0.245,0.664,-117.859,506.286,256.836,0,0,0,
,0.006,-0.388,0.801,95.642,733.032,521.362,0,0,0,
,0.281,-0.274,0.643,392.578,760.376,667.053,0,0,0,
,0.753,-0.639,0.581,373.352,469.97,500.366,0,0,0,
,1.249,-1.533,0.821,207.58,62.805,120.91,0,0,0,
,1.111,-1.735,1.236,44.25,-236.39,-60.791,0,0,0,
,0.847,-1.398,1.282,191.284,-413.819,-203.614,0,0,0,
,0.582,-1.15,1.035,389.831,-557.74,-369.812,0,0,0,
,0.321,-0.627,0.491,213.745,-578.614,-434.998,0,0,0,
,-0.003,-0.221,0.449,-29.602,-488.587,-441.895,0,0,0,
,-0.132,-0.063,0.441,-2.137,-372.01,-270.264,0,0,0,
,-0.14,-0.058,0.486,80.2,-200.867,-37.598,0,0,0,
,-0.123,0.013,0.435,147.827,19.47,231.384,0,0,0,
,0.057,-0.345,0.589,180.359,215.393,388.916,0,0,0,
,0.337,-0.6,0.772,122.009,330.749,407.043,0,0,0,
,0.768,-0.958,0.8,86.669,224.426,214.233,0,0,0,
,0.951,-1.384,0.952,26.123,16.113,-22.278,0,0,0,
,0.825,-1.415,1.064,-9.644,-187.989,-171.265,0,0,0,
,0.546,-1.107,0.854,-55.909,-363.709,-287.415,0,0,0,
,0.371,-1.025,0.764,133.545,-490.845,-354.065,0,0,0,
,0.184,-0.721,0.386,13.671,-508.423,-364.624,0,0,0,
,-0.158,-0.114,0.064,-195.557,-433.777,-338.807,0,0,0,
,-0.246,-0.131,0.036,54.138,-318.421,-176.392,0,0,0,
,-0.321,-0.185,0.182,79.284,-56.824,79.956,0,0,0,
,-0.241,-0.45,0.536,93.872,269.592,322.143,0,0,0,
,-0.054,-0.643,0.64,30.334,624.023,534.301,0,0,0,
,0.143,-0.769,0.509,56.518,859.802,599.975,0,0,0,
,0.545,-0.499,0.247,-125.306,778.93,557.8,0,0,0,
,1.04,-0.889,0.655,-161.133,373.657,231.079,0,0,0,
,1.176,-1.328,1.158,33.325,-45.899,52.978,0,0,0,
,0.932,-1.38,1.342,60.73,-320.801,-113.465,0,0,0,
,0.84,-1.14,1.009,215.21,-515.442,-239.014,0,0,0,
,0.567,-1.016,0.803,182.129,-640.992,-413.941,0,0,0,
,0.387,-0.75,0.571,-2.381,-633.118,-479.676,0,0,0,
,0.03,-0.222,0.349,-240.418,-510.926,-399.964,0,0,0,
,-0.214,0.022,0.32,-94.239,-364.747,-263.977,0,0,0,
,-0.381,0.164,0.299,-17.09,-85.022,-29.358,0,0,0,
,-0.323,-0.061,0.463,46.752,270.08,256.347,0,0,0,
,-0.153,-0.394,0.631,-36.56,627.807,550.903,0,0,0,
,0.468,-0.549,0.548,10.498,585.937,585.632,0,0,0,
,0.933,-1.192,0.809,62.622,229.37,340.759,0,0,0,
,0.979,-1.644,1.141,55.847,-110.413,111.938,0,0,0,
,0.79,-1.699,1.2,40.283,-322.876,-79.529,0,0,0,
,0.708,-1.326,0.877,18.615,-490.662,-263.245,0,0,0,
,0.462,-1.047,0.577,70.434,-613.221,-394.532,0,0,0,
,0.099,-0.553,0.371,-122.925,-554.322,-429.566,0,0,0,
,-0.218,-0.134,0.26,-142.029,-400.818,-379.578,0,0,0,
,-0.389,-0.028,0.367,-205.506,-130.188,-250.794,0,0,0,
,-0.272,-0.215,0.586,-137.818,256.958,56.762,0,0,0,
,-0.048,-0.451,0.75,-134.339,630.249,367.065,0,0,0,
,0.095,-0.457,0.635,-7.813,831.176,530.517,0,0,0,
,0.52,-0.249,0.28,103.149,692.443,552.917,0,0,0,
,1.033,-0.833,0.506,125.488,259.216,257.385,0,0,0,
,1.143,-1.459,0.918,186.645,-109.559,-10.254,0,0,0,
,0.869,-1.652,1.129,20.935,-328.248,-223.267,0,0,0,
,0.747,-1.297,0.94,9.46,-434.327,-319.458,0,0,0,
,0.493,-0.929,0.614,120.239,-516.724,-440.613,0,0,0,
,0.196,-0.526,0.24,-32.654,-445.74,-500.245,0,0,0,
,-0.251,-0.13,0.382,-203.431,-18.921,-318.055,0,0,0,
,-0.148,-0.384,0.696,-210.877,322.937,-63.66,0,0,0,
,-0.014,-0.501,0.808,-162.537,694.03,221.984,0,0,0,
,0.108,-0.555,0.761,62.927,945.8,431.091,0,0,0,
,0.377,-0.422,0.341,342.773,985.778,595.459,0,0,0,
,0.82,-0.299,0.098,109.863,745.971,498.535,0,0,0,
,1.328,-1.64,1.081,73.73,-186.951,-299.073,0,0,0,
,0.902,-1.432,1.187,71.35,-337.647,-396.668,0,0,0,
,0.647,-0.953,0.762,152.954,-468.201,-461.914,0,0,0,
,0.276,-0.497,0.311,30.944,-472.29,-528.931,0,0,0,
,-0.098,0.015,0.207,-104.676,-353.638,-468.567,0,0,0,
,-0.204,-0.03,0.45,37.353,-192.383,-315.735,0,0,0,
,-0.136,-0.39,0.719,19.348,55.297,-122.864,0,0,0,
,-0.026,-0.55,0.913,-60.669,362.671,108.215,0,0,0,
,0.163,-0.48,0.98,144.409,614.746,332.458,0,0,0,
,0.462,-0.245,0.485,365.966,644.287,448.059,0,0,0,
,0.905,-0.592,0.158,164.062,365.478,195.861,0,0,0,
,1.265,-1.292,0.617,-53.284,20.019,-160.523,0,0,0,
,0.89,-1.222,1.069,-160.584,-138.001,-221.741,0,0,0,
,0.666,-1.043,1.057,10.437,-280.213,-285.828,0,0,0,
,0.462,-1.025,0.907,135.07,-350.464,-345.337,0,0,0,
,0.389,-0.813,0.675,74.89,-338.196,-378.968,0,0,0,
,0.197,-0.447,0.358,-112.305,-249.207,-355.225,0,0,0,
,0.062,-0.337,0.41,-124.146,-144.227,-275.879,0,0,0,
,0.096,-0.424,0.546,0.732,-29.541,-119.385,0,0,0,
,0.131,-0.414,0.627,2.136,90.332,8.239,0,0,0,
,0.25,-0.397,0.672,171.936,130.371,107.788,0,0,0,
,0.434,-0.432,0.678,495.056,85.083,150.451,0,0,0,
,0.542,-0.644,0.696,887.085,-14.222,115.356,0,0,0,
,0.599,-0.597,0.684,1541.748,-119.202,166.015,0,0,0,
,0.557,-0.653,0.603,1999.694,-231.873,188.293,0,0,0,
,0.536,-0.854,0.439,1999.694,-335.083,178.955,0,0,0,
,0.522,-1.014,0.261,1999.694,-390.87,169.067,0,0,0,
,0.505,-1.015,0.109,1999.694,-405.64,151.977,0,0,0,
,0.466,-1.029,-0.052,1999.694,-382.691,102.905,0,0,0,
,0.434,-1.061,-0.177,1999.694,-348.084,6.652,0,0,0,
,0.395,-1.046,-0.28,1999.694,-277.161,-31.739,0,0,0,
,0.358,-1.038,-0.314,1999.694,-194.458,-48.706,0,0,0,
,0.347,-0.913,-0.351,1999.694,-108.46,-19.471,0,0,0,
,0.326,-0.839,-0.454,1999.694,-50.293,4.15,0,0,0,
,0.295,-0.898,-0.595,1817.81,-37.598,-85.389,0,0,0,
,0.285,-0.927,-0.603,1341.369,-25.025,-175.965,0,0,0,
,0.267,-1.011,-0.614,858.093,12.817,-264.283,0,0,0,
,0.237,-0.955,-0.608,467.651,28.015,-306.153,0,0,0,
,0.219,-0.743,-0.644,291.565,36.926,-292.847,0,0,0,
,0.199,-0.64,-0.692,318.054,59.692,-269.532,0,0,0,
,0.178,-0.524,-0.752,411.377,46.386,-252.93,0,0,0,
,0.179,-0.629,-0.747,510.07,61.34,-257.325,0,0,0,
,0.158,-0.805,-0.715,368.713,70.678,-269.654,0,0,0,
,0.165,-0.709,-0.673,196.289,73.73,-255.677,0,0,0,
,0.175,-0.585,-0.704,219.238,101.562,-228.455,0,0,0,
,0.179,-0.674,-0.701,312.927,123.657,-221.314,0,0,0,
,0.168,-0.746,-0.695,246.276,126.831,-227.967,0,0,0,
,0.159,-0.738,-0.659,117.065,130.493,-229.737,0,0,0,
,0.156,-0.699,-0.66,39.489,137.756,-236.145,0,0,0,
,0.165,-0.661,-0.686,72.753,157.409,-233.948,0,0,0,
,0.181,-0.701,-0.7,125.549,167.053,-220.337,0,0,0,
,0.169,-0.721,-0.669,88.195,146.972,-215.394,0,0,0,
,0.148,-0.722,-0.671,26.672,134.582,-220.887,0,0,0,
,0.146,-0.724,-0.65,-10.926,135.559,-218.079,0,0,0,
,0.153,-0.72,-0.683,-18.677,136.474,-211.487,0,0,0,
,0.158,-0.688,-0.671,11.535,127.38,-197.937,0,0,0,
,0.142,-0.683,-0.679,62.866,126.464,-182.373,0,0,0,
,0.142,-0.703,-0.706,99.426,125.854,-176.758,0,0,0,
,0.142,-0.71,-0.694,85.815,123.596,-177.002,0,0,0,
,0.126,-0.721,-0.665,52.612,119.629,-173.035,0,0,0,
,0.118,-0.724,-0.647,19.653,124.939,-164.856,0,0,0,
,0.126,-0.676,-0.658,19.714,122.497,-149.353,0,0,0,
,0.116,-0.668,-0.689,49.621,112.609,-131.287,0,0,0,
,0.096,-0.683,-0.703,85.144,97.961,-102.112,0,0,0,
,0.083,-0.669,-0.723,114.929,87.036,-77.454,0,0,0,
,0.069,-0.652,-0.731,134.399,69.274,-55.97,0,0,0,
,0.058,-0.646,-0.73,162.414,64.88,-36.805,0,0,0,
,0.053,-0.671,-0.72,218.811,67.688,-26.551,0,0,0,
,0.053,-0.683,-0.729,262.451,78.491,-11.109,0,0,0,
,0.048,-0.697,-0.763,281.067,79.406,-9.644,0,0,0,
,0.04,-0.701,-0.782,255.554,70.312,-22.767,0,0,0,
,0.037,-0.7,-0.773,213.256,63.293,-35.035,0,0,0,
,0.032,-0.662,-0.769,194.03,70.251,-33.936,0,0,0,
,0.036,-0.67,-0.777,206.543,80.383,-43.03,0,0,0,
,0.036,-0.709,-0.761,189.026,77.636,-46.204,0,0,0,
,0.029,-0.707,-0.778,112.182,79.895,-58.777,0,0,0,
,0.032,-0.677,-0.777,58.715,93.139,-57.557,0,0,0,
,0.034,-0.657,-0.792,13.671,98.449,-58.96,0,0,0,
,0.039,-0.651,-0.802,3.784,98.755,-56.58,0,0,0,
,0.041,-0.621,-0.791,10.559,102.05,-46.509,0,0,0,
,0.04,-0.622,-0.766,17.456,94.36,-33.143,0,0,0,
,0.04,-0.617,-0.769,22.277,88.501,-29.297,0,0,0,
,0.051,-0.647,-0.745,14.648,85.205,-17.884,0,0,0,
,0.045,-0.644,-0.772,-28.992,73.73,-13.672,0,0,0,
,0.051,-0.626,-0.765,-36.805,75.927,-4.944,0,0,0,
,0.061,-0.634,-0.778,-44.19,64.086,-10.01,0,0,0,
,0.062,-0.623,-0.769,-14.527,54.26,-2.503,0,0,0,
,0.062,-0.625,-0.786,8.361,48.95,-2.93,0,0,0,
,0.061,-0.633,-0.783,29.907,45.044,-2.442,0,0,0,
,0.062,-0.664,-0.778,31.555,43.396,-3.235,0,0,0,
,0.057,-0.674,-0.795,-12.574,44.067,-2.93,0,0,0,
,0.057,-0.645,-0.797,-30.762,44.006,-2.93,0,0,0,
,0.062,-0.648,-0.791,-17.64,48.584,-1.465,0,0,0,
,0.092,-0.666,-0.779,-15.32,45.715,-4.151,0,0,0,
,0.052,-0.65,-0.776,-20.142,40.649,-9.949,0,0,0,
,0.057,-0.625,-0.768,1.892,42.236,-10.376,0,0,0,
,0.059,-0.66,-0.766,15.38,40.283,-10.498,0,0,0,
,0.049,-0.679,-0.77,-2.991,36.254,-14.588,0,0,0,
,0.051,-0.667,-0.766,-17.395,40.527,-13.794,0,0,0,
,0.051,-0.648,-0.778,-20.142,31.86,-19.41,0,0,0,
,0.044,-0.642,-0.766,-1.16,26.245,-11.109,0,0,0,
,0.039,-0.636,-0.743,-0.245,18.737,-8.728,0,0,0,
,0.037,-0.616,-0.766,17.883,16.54,-6.47,0,0,0,
,0.042,-0.632,-0.752,46.814,11.84,4.821,0,0,0,
,0.036,-0.645,-0.754,33.508,3.723,8.3,0,0,0,
,0.028,-0.651,-0.748,6.958,-5.066,5.249,0,0,0,
,0.03,-0.626,-0.747,-19.898,-13.489,-0.061,0,0,0,
,0.042,-0.596,-0.767,-3.724,-20.325,-0.672,0,0,0,
,0.054,-0.622,-0.767,43.151,-33.02,8.3,0,0,0,
,0.049,-0.643,-0.782,56.03,-44.556,9.46,0,0,0,
,0.053,-0.664,-0.802,64.758,-38.758,7.019,0,0,0,
,0.057,-0.678,-0.805,32.226,-38.88,2.746,0,0,0,
,0.049,-0.659,-0.803,37.658,-37.842,-0.367,0,0,0,
,0.05,-0.673,-0.804,33.569,-23.377,-2.564,0,0,0,
,0.046,-0.676,-0.795,11.23,-22.767,-5.86,0,0,0,
,0.039,-0.662,-0.807,0.427,-10.865,-10.132,0,0,0,
,0.041,-0.668,-0.798,0.61,-1.709,-11.231,0,0,0,
,0.04,-0.668,-0.808,-9.095,5.065,-18.494,0,0,0,
,0.041,-0.657,-0.808,-8.851,9.46,-18.982,0,0,0,
,0.041,-0.663,-0.788,-2.259,11.535,-19.288,0,0,0,
,0.03,-0.658,-0.772,-12.146,13.488,-23.011,0,0,0,
,0.027,-0.647,-0.779,-17.518,11.657,-22.706,0,0,0,
,0.032,-0.638,-0.763,-12.391,9.582,-23.072,0,0,0,
,0.036,-0.658,-0.752,-11.902,8.483,-24.72,0,0,0,
,0.031,-0.647,-0.777,-21.912,5.737,-27.771,0,0,0,
,0.033,-0.65,-0.764,-19.471,9.338,-26.856,0,0,0,
,0.033,-0.635,-0.743,-25.879,2.38,-29.969,0,0,0,
,0.028,-0.634,-0.665,-37.171,-3.54,-15.686,0,0,0,
,0.016,-0.653,-0.659,-117.249,-30.152,-7.874,0,0,0,
,0.027,-0.601,-0.631,-161.866,-48.035,14.099,0,0,0,
,0.037,-0.596,-0.603,-212.647,-90.149,41.503,0,0,0,
,0.034,-0.527,-0.661,-173.34,-135.071,67.321,0,0,0,
,0.055,-0.558,-0.639,-82.947,-166.382,106.384,0,0,0,
,0.078,-0.598,-0.718,-45.166,-209.107,114.624,0,0,0,
,0.104,-0.641,-0.728,2.929,-224.671,137.939,0,0,0,
,0.134,-0.713,-0.811,12.573,-238.709,123.84,0,0,0,
,0.171,-0.752,-0.767,1.159,-231.934,111.938,0,0,0,
,0.192,-0.734,-0.872,-0.245,-220.032,69.885,0,0,0,
,0.217,-0.76,-0.869,73.913,-182.007,41.626,0,0,0,
,0.208,-0.839,-0.884,52.612,-148.377,-6.104,0,0,0,
,0.196,-0.843,-0.888,-27.771,-81.665,-42.664,0,0,0,
,0.182,-0.799,-0.878,-109.314,-41.871,-67.139,0,0,0,
,0.172,-0.766,-0.835,-150.879,-10.437,-84.229,0,0,0,
,0.147,-0.747,-0.783,-177.613,5.615,-90.699,0,0,0,
,0.124,-0.724,-0.696,-215.394,8.3,-93.018,0,0,0,
,0.103,-0.723,-0.688,-238.892,12.146,-95.581,0,0,0,
,0.105,-0.694,-0.66,-220.154,14.831,-86.609,0,0,0,
,0.105,-0.733,-0.604,-242.127,-34.79,-93.323,0,0,0,
,0.091,-0.788,-0.58,-367.554,-68.238,-109.986,0,0,0,
,0.066,-0.717,-0.568,-460.694,-82.093,-105.469,0,0,0,
,0.083,-0.599,-0.609,-397.767,-82.459,-69.581,0,0,0,
,0.121,-0.635,-0.61,-295.044,-108.033,-26.612,0,0,0,
,0.113,-0.671,-0.596,-217.713,-142.456,6.836,0,0,0,
,0.097,-0.753,-0.553,-227.051,-173.218,28.32,0,0,0,
,0.089,-0.891,-0.499,-415.101,-188.66,32.348,0,0,0,
,0.075,-0.913,-0.44,-803.956,-207.337,51.086,0,0,0,
,0.061,-0.801,-0.368,-1253.663,-227.906,88.928,0,0,0,
,0.055,-0.681,-0.372,-1574.036,-230.591,146.057,0,0,0,
,0.073,-0.598,-0.443,-1651.185,-206.36,206.054,0,0,0,
,0.125,-0.589,-0.377,-1624.817,-165.711,325.073,0,0,0,
,0.134,-0.63,-0.326,-1625.55,-166.138,419.311,0,0,0,
,0.147,-0.613,-0.274,-1564.82,-145.386,534.546,0,0,0,
,0.186,-0.708,-0.261,-1573.609,-121.521,623.047,0,0,0,
,0.204,-0.825,-0.286,-1632.63,-62.561,727.844,0,0,0,
,0.162,-0.89,-0.309,-1718.873,39.428,876.098,0,0,0,
,0.149,-0.791,-0.238,-1664.734,206.054,1039.245,0,0,0,
,0.247,-0.706,-0.089,-1449.341,399.109,1176.88,0,0,0,
,0.524,-0.894,0.062,-1052.002,501.22,1152.221,0,0,0,
,0.898,-1.331,0.093,-844.91,432.922,901.062,0,0,0,
,1.306,-2.006,0.058,-979.371,227.539,363.891,0,0,0,
,1.47,-2.426,0.155,-1196.778,-50.843,-133.667,0,0,0,
,1.131,-1.572,0.095,-988.831,-141.846,-268.616,0,0,0,
,0.912,-0.899,0.221,81.176,-225.525,-610.657,0,0,0,
,0.354,-1.25,0.308,310.852,-141.48,-979.92,0,0,0,
,-0.057,-0.628,0.224,-988.526,64.453,-845.215,0,0,0,
,-0.526,0.337,-0.06,-1974.122,264.77,-636.109,0,0,0,
,-0.341,0.573,0.033,-1743.287,523.132,-204.895,0,0,0,
,0.056,0.01,0.47,-1049.256,736.023,525.94,0,0,0,
,0.196,-0.305,0.516,-503.724,896.362,955.078,0,0,0,
,0.582,-0.209,0.171,109.253,698.12,1155.822,0,0,0,
,1.189,-0.833,0.068,120.117,221.862,827.636,0,0,0,
,1.212,-2.02,0.7,-211.853,-247.132,24.597,0,0,0,
,0.991,-1.333,0.542,-78.37,-312.439,-169.861,0,0,0,
,0.846,-1.018,0.442,428.1,-384.339,-472.596,0,0,0,
,0.618,-1.295,0.542,651.123,-374.146,-702.881,0,0,0,
,0.506,-1.082,0.551,81.848,-251.16,-786.683,0,0,0,
,0.246,-0.594,0.386,-576.111,-102.234,-748.841,0,0,0,
,-0.037,-0.154,0.241,-852.539,40.893,-586.792,0,0,0,
,-0.169,0.095,0.292,-872.864,189.331,-299.805,0,0,0,
,-0.063,-0.168,0.542,-744.507,371.582,46.386,0,0,0,
,0.096,-0.407,0.72,-594.056,608.337,418.823,0,0,0,
,0.344,-0.325,0.423,-302.063,644.409,663.574,0,0,0,
,0.704,-0.517,0.258,-243.775,419.86,568.786,0,0,0,
,1.051,-1.309,0.59,-405.945,104.248,209.777,0,0,0,
,0.797,-1.084,0.71,-123.78,-343.018,-431.641,0,0,0,
,0.619,-0.951,0.366,149.109,-425.599,-539.978,0,0,0,
,0.172,-0.554,0.277,-346.436,-325.867,-529.541,0,0,0,
,-0.212,0.133,0.186,-585.144,-161.438,-440.735,0,0,0,
,-0.145,-0.115,0.44,-387.94,91.308,-127.625,0,0,0,
,0.049,-0.511,0.654,-378.479,343.383,182.556,0,0,0,
,0.193,-0.536,0.722,-260.254,533.447,461.853,0,0,0,
,0.406,-0.508,0.462,29.419,596.13,598.083,0,0,0,
,0.81,-0.681,0.434,-115.845,418.457,437.561,0,0,0,
,1.11,-1.397,0.748,-665.101,197.021,-42.237,0,0,0,
,1.104,-1.483,0.876,-794.373,9.521,-371.766,0,0,0,
,0.267,-0.386,0.229,-212.403,-302.613,-681.641,0,0,0,
,-0.068,-0.006,0.258,-342.652,-199.341,-547.486,0,0,0,
,-0.036,-0.033,0.413,-119.324,9.765,-215.271,0,0,0,
,0.002,-0.183,0.509,-70.435,267.761,123.474,0,0,0,
,0.169,-0.311,0.612,46.325,483.032,410.4,0,0,0,
,0.333,-0.552,0.73,182.067,611.084,556.335,0,0,0,
,0.58,-0.45,0.451,218.139,607.422,589.233,0,0,0,
,0.924,-0.588,0.394,-57.862,368.53,316.528,0,0,0,
,1.173,-1.224,0.761,-148.682,59.753,-69.519,0,0,0,
,1.068,-1.246,1.024,-91.309,-122.071,-194.764,0,0,0,
,0.943,-1.002,0.981,180.603,-263.428,-344.605,0,0,0,
,0.652,-0.944,0.763,422.79,-435.669,-649.537,0,0,0,
