TIMECODE,ACC_X,ACC_Y,ACC_Z,GYR_X,GYR_Y,GYR_Z,TAG
00:00:00:0,0.933,-0.332,0.022,-205.811,23.62,-50.415,
00:00:00:16,0.917,-0.344,0.025,-182.862,12.756,-68.116,
00:00:00:33,0.905,-0.351,0.031,-152.344,17.334,-61.524,
00:00:00:50,0.916,-0.342,0.033,-125.672,23.925,-62.5,
00:00:00:66,0.92,-0.346,0.029,-105.042,25.024,-71.534,
00:00:00:83,0.916,-0.359,0.036,-95.459,33.813,-63.843,
00:00:00:100,0.925,-0.377,0.023,-122.864,35.339,-66.956,
00:00:00:116,0.922,-0.383,0.035,-185.669,33.02,-70.252,
00:00:00:133,0.946,-0.39,0.082,-260.071,33.264,-61.219,
00:00:00:150,0.935,-0.377,0.094,-270.874,32.104,-71.595,
00:00:00:166,0.929,-0.372,0.087,-255.188,27.038,-61.646,
00:00:00:183,0.927,-0.349,0.075,-253.052,26.367,-79.224,
00:00:00:200,0.919,-0.351,0.062,-220.215,17.822,-87.342,
00:00:00:216,0.92,-0.311,0.049,-179.932,14.892,-105.225,
00:00:00:233,0.925,-0.317,0.055,-99.366,14.77,-134.522,
00:00:00:250,0.929,-0.324,0.039,-13.611,13.977,-156.495,
00:00:00:266,0.926,-0.329,0.038,45.898,13,-180.054,
00:00:00:283,0.925,-0.334,0.045,100.28,19.653,-189.82,
00:00:00:300,0.917,-0.355,0.047,136.779,23.803,-201.477,
00:00:00:316,0.893,-0.382,0.046,128.662,33.752,-203.003,
00:00:00:333,0.922,-0.389,0.056,-75.135,44.372,-147.583,
00:00:00:350,0.913,-0.377,0.073,-110.84,38.574,-126.954,
00:00:00:366,0.901,-0.366,0.088,-127.625,37.902,-106.629,
00:00:00:383,0.891,-0.358,0.099,-132.874,38.33,-83.374,
00:00:00:400,0.888,-0.353,0.098,-127.747,38.391,-62.561,
00:00:00:416,0.906,-0.367,0.108,-92.469,31.494,-33.265,
00:00:00:433,0.903,-0.446,0.069,-151.001,49.194,-33.448,
00:00:00:450,0.922,-0.502,0.045,-302.979,25.146,-43.946,
00:00:00:466,0.911,-0.437,0.059,-423.768,7.141,-27.71,
00:00:00:483,0.903,-0.356,0.069,-395.569,5.859,-20.63,
00:00:00:500,0.903,-0.561,0.036,-203.309,41.87,-35.706,
00:00:00:516,0.913,-0.573,0.024,-467.102,14.465,-50.293,
00:00:00:533,0.874,-0.48,0.043,-611.695,23.803,-28.809,
00:00:00:550,0.896,-0.434,0.051,-697.022,3.418,-34.607,
00:00:00:566,0.875,-0.311,0.078,-634.888,3.112,-21.424,
00:00:00:583,0.914,-0.607,0.012,-1115.479,44.677,-60.059,
00:00:00:600,0.899,-0.387,0.065,-1257.752,29.174,-82.337,
00:00:00:616,0.88,-0.178,0.127,-1020.752,25.573,-65.735,
00:00:00:633,0.87,-0.138,0.262,-573.914,28.137,-67.2,
00:00:00:650,0.876,-0.346,0.23,-285.828,61.035,-54.261,
00:00:00:666,0.922,-0.492,0.203,-374.512,53.039,-94.239,
00:00:00:683,0.898,-0.389,0.209,-433.533,34.179,-98.999,
00:00:00:700,0.892,-0.296,0.238,-319.458,10.253,-82.459,
00:00:00:716,0.891,-0.274,0.255,-133.545,-14.344,-69.764,
00:00:00:733,0.881,-0.253,0.212,29.724,-31.434,-66.04,
00:00:00:750,0.867,-0.138,0.165,252.746,-52.857,-60.181,
00:00:00:766,0.837,-0.037,0.226,707.092,-55.359,-24.414,
00:00:00:783,0.863,-0.288,0.172,1559.082,1.77,107.116,
00:00:00:800,0.889,-0.363,0.123,1551.33,19.714,149.963,
00:00:00:816,0.911,-0.411,0.062,1442.077,7.69,149.17,
00:00:00:833,0.921,-0.462,0.033,1265.075,-17.64,127.807,
00:00:00:850,0.932,-0.514,0,1022.4,-35.828,97.656,
00:00:00:866,0.94,-0.562,-0.013,721.679,-57.557,59.387,
00:00:00:883,0.932,-0.586,-0.005,414.428,-69.275,36.682,
00:00:00:900,0.919,-0.577,0.009,145.324,-55.664,33.691,
00:00:00:916,0.916,-0.533,0.025,-44.068,-23.438,39.062,
00:00:00:933,0.921,-0.476,0.045,-126.526,7.751,36.804,
00:00:00:950,0.919,-0.436,0.061,-115.54,39.306,22.461,
00:00:00:966,0.917,-0.421,0.07,-62.867,63.964,8.911,
00:00:00:983,0.911,-0.416,0.079,-0.061,80.017,-4.09,
00:00:01:0,0.909,-0.417,0.088,66.101,78.064,-17.945,
00:00:01:16,0.909,-0.43,0.101,108.886,57.128,-31.189,
00:00:01:33,0.897,-0.443,0.106,113.037,34.606,-42.542,
00:00:01:50,0.894,-0.443,0.11,93.872,9.399,-46.998,
00:00:01:66,0.888,-0.439,0.116,66.955,-9.217,-48.462,
00:00:01:83,0.882,-0.438,0.113,40.1,-21.912,-49.317,
00:00:01:100,0.873,-0.443,0.109,22.522,-23.682,-42.237,
00:00:01:116,0.881,-0.444,0.093,1.831,-15.625,-36.011,
00:00:01:133,0.885,-0.438,0.077,-13.794,-11.292,-32.349,
00:00:01:150,0.892,-0.434,0.065,-22.156,-10.987,-34.913,
00:00:01:166,0.893,-0.43,0.054,-33.387,-9.461,-40.039,
00:00:01:183,0.896,-0.435,0.051,-47.364,-7.63,-46.631,
00:00:01:200,0.899,-0.432,0.05,-66.468,-4.517,-49.744,
00:00:01:216,0.904,-0.422,0.047,-77.332,1.22,-50.171,
00:00:01:233,0.907,-0.411,0.047,-75.745,5.004,-53.528,
00:00:01:250,0.907,-0.396,0.049,-64.148,7.812,-55.115,
00:00:01:266,0.902,-0.394,0.053,-48.706,11.962,-55.481,
00:00:01:283,0.895,-0.393,0.049,-38.636,15.625,-54.81,
00:00:01:300,0.893,-0.391,0.055,-30.579,18.676,-49.378,
00:00:01:316,0.893,-0.383,0.056,-24.903,21.301,-44.129,
00:00:01:333,0.891,-0.382,0.056,-17.334,19.348,-39.368,
00:00:01:350,0.888,-0.383,0.058,-9.888,20.385,-30.03,
00:00:01:366,0.892,-0.38,0.059,-8.789,22.644,-21.119,
00:00:01:383,0.894,-0.384,0.061,0.488,23.986,-13.367,
00:00:01:400,0.894,-0.386,0.064,13.244,23.803,-5.433,
00:00:01:416,0.891,-0.395,0.067,29.235,24.597,-1.343,
00:00:01:433,0.897,-0.405,0.066,40.649,23.864,-0.489,
00:00:01:450,0.9,-0.414,0.065,43.273,21.911,-0.55,
00:00:01:466,0.901,-0.422,0.061,42.175,19.653,-2.808,
00:00:01:483,0.905,-0.423,0.062,37.292,20.202,-5.127,
00:00:01:500,0.909,-0.425,0.064,15.869,17.761,-7.63,
00:00:01:516,0.906,-0.425,0.064,28.747,17.028,-11.475,
00:00:01:533,0.907,-0.427,0.068,25.817,17.639,-11.597,
00:00:01:550,0.904,-0.428,0.067,22.827,16.479,-13.977,
00:00:01:566,0.903,-0.429,0.07,15.686,14.892,-14.588,
00:00:01:583,0.898,-0.424,0.068,8.361,12.329,-15.87,
00:00:01:600,0.893,-0.422,0.067,7.019,8.117,-18.555,
00:00:01:616,0.892,-0.422,0.067,2.868,7.385,-18.494,
00:00:01:633,0.892,-0.42,0.07,2.136,8.728,-19.227,
00:00:01:650,0.892,-0.417,0.072,-1.831,7.873,-17.945,
00:00:01:666,0.891,-0.412,0.065,-8.606,6.347,-18.677,
00:00:01:683,0.896,-0.412,0.068,-9.888,7.324,-15.381,
00:00:01:700,0.901,-0.411,0.066,-5.799,7.019,-15.381,
00:00:01:716,0.904,-0.409,0.062,-2.93,4.028,-15.992,
00:00:01:733,0.905,-0.412,0.063,-0.184,5.127,-14.832,
00:00:01:750,0.903,-0.417,0.066,-1.893,2.685,-18.677,
00:00:01:766,0.9,-0.415,0.062,-6.043,3.173,-17.64,
00:00:01:783,0.9,-0.413,0.064,-7.813,5.554,-18.616,
00:00:01:800,0.906,-0.41,0.059,-5.799,4.943,-22.522,
00:00:01:816,0.901,-0.41,0.06,-0.855,2.807,-28.87,
00:00:01:833,0.894,-0.403,0.062,4.333,0.854,-28.443,
00:00:01:850,0.893,-0.402,0.065,7.446,1.586,-27.71,
00:00:01:866,0.888,-0.402,0.066,8.85,4.882,-24.72,
00:00:01:883,0.891,-0.405,0.065,10.925,9.765,-20.752,
00:00:01:900,0.891,-0.405,0.064,9.765,9.948,-15.564,
00:00:01:916,0.896,-0.409,0.065,8.3,10.437,-13.55,
00:00:01:933,0.898,-0.416,0.068,12.817,7.751,-16.419,
00:00:01:950,0.894,-0.42,0.064,10.07,7.69,-15.686,
00:00:01:966,0.895,-0.422,0.07,3.601,7.08,-16.602,
00:00:01:983,0.897,-0.418,0.07,1.77,8.483,-17.884,
00:00:02:0,0.898,-0.421,0.071,-0.916,9.033,-21.79,
00:00:02:16,0.895,-0.417,0.068,-5.005,5.188,-24.537,
00:00:02:33,0.898,-0.414,0.068,-10.804,5.249,-24.231,
00:00:02:50,0.899,-0.408,0.068,-13.794,3.601,-27.955,
00:00:02:66,0.896,-0.403,0.071,-13.55,2.685,-26.978,
00:00:02:83,0.899,-0.415,0.067,-20.142,6.652,-27.71,
00:00:02:100,0.895,-0.441,0.072,-57.19,22.705,-23.438,
00:00:02:116,0.918,-0.492,0.042,-163.086,12.329,-25.147,
00:00:02:133,0.908,-0.453,0.058,-259.583,-5.616,-29.236,
00:00:02:150,0.89,-0.387,0.077,-244.507,-3.663,-29.48,
00:00:02:166,0.89,-0.35,0.086,-148.011,2.624,-32.654,
00:00:02:183,0.898,-0.357,0.089,-33.57,7.751,-36.194,
00:00:02:200,0.899,-0.384,0.083,38.757,9.765,-36.988,
00:00:02:216,0.899,-0.396,0.086,53.039,11.169,-27.771,
00:00:02:233,0.898,-0.402,0.093,43.09,13.794,-20.935,
00:00:02:250,0.902,-0.537,0.12,-74.341,46.264,-34.546,
00:00:02:266,0.922,-0.387,0.077,-1054.749,-4.639,-109.07,
00:00:02:283,0.909,-0.211,0.162,-806.092,-26.795,-148.743,
00:00:02:300,0.942,-0.266,0.323,-411.011,-30.945,-158.326,
00:00:02:316,1.072,-0.69,0.594,-546.204,-263.855,-505.127,
00:00:02:333,1.089,-0.754,0.858,-319.703,-342.286,-553.956,
00:00:02:350,1.112,-0.735,1.089,5.31,-383.606,-623.047,
00:00:02:366,1.185,-0.789,1.33,261.779,-421.448,-766.663,
00:00:02:383,1.408,-0.932,1.431,326.233,-536.927,-950.196,
00:00:02:400,1.657,-1.253,1.504,212.646,-806.702,-1188.05,
00:00:02:416,1.852,-1.537,1.814,75.134,-1203.003,-1327.759,
00:00:02:433,1.954,-1.618,2.14,0.305,-1641.663,-1465.516,
00:00:02:450,2.156,-1.959,2.232,48.767,-2000,-1684.083,
00:00:02:466,2.705,-2.216,1.535,200.012,-2000,-1997.803,
00:00:02:483,2.583,-2.044,0.744,88.195,-2000,-2000,
00:00:02:500,1.989,-2.069,0.383,-115.113,-2000,-2000,
00:00:02:516,1.706,-1.978,0.293,-604.554,-2000,-2000,
00:00:02:533,1.685,-1.62,0.219,-1057.19,-2000,-2000,
00:00:02:550,1.689,-1.167,0.016,-1101.136,-2000,-2000,
00:00:02:566,1.477,-0.694,-0.164,-900.208,-2000,-2000,
00:00:02:583,1.248,-0.354,-0.155,-698.06,-2000,-2000,
00:00:02:600,1.088,-0.194,-0.357,-541.504,-2000,-2000,
00:00:02:616,0.994,-0.177,-0.496,-489.747,-2000,-2000,
00:00:02:633,0.864,-0.035,-0.648,-516.297,-2000,-2000,
00:00:02:650,0.684,0.198,-0.687,-414.734,-2000,-2000,
00:00:02:666,0.439,0.309,-0.689,-216.187,-2000,-1980.958,
00:00:02:683,0.324,0.336,-0.652,-11.475,-1698.487,-1645.203,
00:00:02:700,0.222,0.391,-0.709,108.52,-1351.685,-1317.2,
00:00:02:716,0.144,0.458,-0.75,181.945,-1021.79,-1009.339,
00:00:02:733,0.069,0.506,-0.752,239.624,-633.179,-717.713,
00:00:02:750,0.016,0.543,-0.751,273.254,-324.036,-437.256,
00:00:02:766,-0.009,0.558,-0.729,291.687,1.586,-163.208,
00:00:02:783,-0.035,0.508,-0.729,241.638,298.767,95.581,
00:00:02:800,-0.057,0.474,-0.711,166.687,576.11,340.454,
00:00:02:816,-0.063,0.441,-0.738,143.249,832.641,598.51,
00:00:02:833,-0.054,0.414,-0.715,215.637,1107.849,869.445,
00:00:02:850,0.003,0.341,-0.607,339.355,1384.033,1141.357,
00:00:02:866,0.083,0.264,-0.509,442.932,1660.278,1398.376,
00:00:02:883,0.211,0.164,-0.471,513,1931.091,1658.02,
00:00:02:900,0.307,0.092,-0.452,570.8,1999.694,1886.84,
00:00:02:916,0.424,-0.057,-0.601,654.907,1999.694,1999.694,
00:00:02:933,0.54,-0.24,-0.562,678.65,1999.694,1999.694,
00:00:02:950,0.696,-0.272,-0.503,560.058,1999.694,1999.694,
00:00:02:966,0.818,-0.4,-0.143,300.415,1999.694,1999.694,
00:00:02:983,1.199,-0.833,0.087,81.237,1999.694,1999.694,
00:00:03:0,1.224,-1.232,0.472,-223.877,1999.694,1999.694,
00:00:03:16,1.507,-1.871,0.334,-437.378,1999.694,1999.694,
00:00:03:33,1.671,-1.393,0.637,-708.863,1999.694,1977.478,
00:00:03:50,1.75,-0.577,0.918,-1155.884,1999.694,1633.911,
00:00:03:66,2.102,-0.357,1.406,-1034.424,1999.694,1071.594,
00:00:03:83,2.144,-0.42,1.878,-919.678,1999.694,626.098,
00:00:03:100,2.071,-0.689,2.243,-363.892,1999.694,646.301,
00:00:03:116,1.86,-0.753,2.271,28.564,1999.694,733.398,
00:00:03:133,1.829,-1.068,1.961,199.646,1820.434,736.389,
00:00:03:150,1.955,-1.107,1.77,311.462,1296.569,792.724,
00:00:03:166,1.721,-0.741,1.669,151.55,802.307,556.823,
00:00:03:183,1.526,-0.478,1.617,420.837,433.838,270.202,
00:00:03:200,1.345,-0.702,1.419,784.423,178.344,-19.043,
00:00:03:216,1.187,-0.92,1.225,669.25,0.122,-251.343,
00:00:03:233,1.024,-0.85,1.116,309.509,-106.995,-424.866,
00:00:03:250,0.898,-0.626,0.913,138.122,-164.429,-485.108,
00:00:03:266,0.766,-0.467,0.772,160.339,-179.566,-508.606,
00:00:03:283,0.661,-0.418,0.631,214.904,-163.514,-503.357,
00:00:03:300,0.586,-0.406,0.535,257.568,-126.221,-468.323,
00:00:03:316,0.537,-0.422,0.552,277.404,-65.247,-429.322,
00:00:03:333,0.51,-0.569,0.492,175.109,26.245,-365.113,
00:00:03:350,0.577,-0.682,0.526,-97.29,86.364,-308.533,
00:00:03:366,0.651,-0.512,0.518,-360.169,115.112,-255.677,
00:00:03:383,0.65,-0.367,0.511,-340.516,111.572,-242.798,
00:00:03:400,0.653,-0.341,0.495,-157.898,99.06,-224.244,
00:00:03:416,0.656,-0.364,0.497,9.765,91.857,-179.932,
00:00:03:433,0.666,-0.423,0.502,192.749,85.144,-125.611,
00:00:03:450,0.692,-0.52,0.529,382.568,67.138,-69.153,
00:00:03:466,0.704,-0.572,0.504,546.997,35.095,-4.09,
00:00:03:483,0.729,-0.537,0.409,538.33,-48.584,2.197,
00:00:03:500,0.728,-0.534,0.416,462.036,-152.344,-83.435,
00:00:03:516,0.693,-0.589,0.459,409.179,-206.543,-178.772,
00:00:03:533,0.676,-0.628,0.404,406.555,-243.897,-185.486,
00:00:03:550,0.649,-0.633,0.339,501.098,-260.621,-144.898,
00:00:03:566,0.618,-0.625,0.366,616.76,-268.433,-105.469,
00:00:03:583,0.586,-0.678,0.393,535.4,-247.681,-118.958,
00:00:03:600,0.567,-0.765,0.441,228.088,-214.112,-193.055,
00:00:03:616,0.556,-0.746,0.456,-81.299,-151.49,-218.567,
00:00:03:633,0.591,-0.691,0.354,-221.802,-125.184,-180.298,
00:00:03:650,0.595,-0.587,0.325,-81.788,-86.304,-89.173,
00:00:03:666,0.598,-0.54,0.335,110.351,-59.51,-17.823,
00:00:03:683,0.598,-0.594,0.38,163.513,-34.302,-18.921,
00:00:03:700,0.618,-0.703,0.454,31.555,-51.575,-68.726,
00:00:03:716,0.575,-0.729,0.475,-200.44,-24.048,-97.84,
00:00:03:733,0.567,-0.604,0.372,-253.54,39.123,-53.467,
00:00:03:750,0.644,-0.519,0.297,-83.069,81.237,9.46,
00:00:03:766,0.653,-0.569,0.342,72.937,82.397,20.263,
00:00:03:783,0.67,-0.692,0.359,71.655,83.618,42.236,
00:00:03:800,0.664,-0.68,0.363,-35.645,114.685,70.739,
00:00:03:816,0.697,-0.59,0.269,-161.011,119.812,78.125,
00:00:03:833,0.722,-0.548,0.279,-227.845,103.454,50.842,
00:00:03:850,0.705,-0.543,0.333,-240.723,110.656,11.474,
00:00:03:866,0.711,-0.573,0.353,-189.515,144.104,-8.606,
00:00:03:883,0.741,-0.577,0.32,-120.545,159.057,5.004,
00:00:03:900,0.774,-0.626,0.331,2.014,151.855,37.536,
00:00:03:916,0.742,-0.569,0.287,38.452,159.179,73.364,
00:00:03:933,0.741,-0.436,0.175,86.792,186.767,131.713,
00:00:03:950,0.806,-0.382,0.287,215.576,162.353,152.099,
00:00:03:966,0.834,-0.629,0.344,150.817,79.895,93.627,
00:00:03:983,0.761,-0.628,0.433,-162.415,61.401,105.774,
00:00:04:0,0.793,-0.467,0.384,-298.829,51.94,152.099,
00:00:04:16,0.839,-0.433,0.342,-234.314,57.251,151.977,
00:00:04:33,0.857,-0.465,0.316,-82.337,51.147,175.171,
00:00:04:50,1.015,-0.646,0.385,-122.315,-75.745,127.136,
00:00:04:66,0.826,-0.657,0.436,-277.649,-101.258,12.512,
00:00:04:83,0.811,-0.516,0.436,-247.437,-107.605,34.301,
00:00:04:100,0.815,-0.518,0.356,-188.416,-100.892,5.676,
00:00:04:116,0.803,-0.52,0.396,-145.997,-107.972,-4.883,
00:00:04:133,0.773,-0.4,0.414,-52.674,-91.797,-48.706,
00:00:04:150,0.784,-0.55,0.453,160.888,-60.791,-76.722,
00:00:04:166,0.731,-0.526,0.503,143.31,-4.578,-122.132,
00:00:04:183,0.809,-0.442,0.559,185.058,-18.311,-84.656,
00:00:04:200,0.811,-0.281,0.527,308.96,-102.295,-25.269,
00:00:04:216,0.83,-0.301,0.455,564.514,-138.123,34.301,
00:00:04:233,0.849,-0.414,0.419,781.311,-131.897,74.096,
00:00:04:250,0.821,-0.522,0.39,793.396,-86.243,74.34,
00:00:04:266,0.844,-0.468,0.44,673.156,-61.158,48.339,
00:00:04:283,0.896,-0.505,0.442,577.087,-70.191,17.273,
00:00:04:300,1.006,-0.505,0.327,582.58,-154.664,26.123,
00:00:04:316,1.005,-0.615,0.292,720.337,-211.914,-34.302,
00:00:04:333,0.877,-0.672,0.36,589.538,-200.745,-101.197,
00:00:04:350,0.869,-0.688,0.365,385.62,-186.28,-176.148,
00:00:04:366,0.863,-0.565,0.429,494.69,-170.289,-208.313,
00:00:04:383,0.872,-0.644,0.357,780.578,-126.282,-245.118,
00:00:04:400,0.862,-0.685,0.28,914.917,-112.915,-272.95,
00:00:04:416,0.796,-0.689,0.245,1046.814,-76.416,-256.043,
00:00:04:433,0.787,-0.78,0.254,1182.006,-104.248,-250.611,
00:00:04:450,0.732,-0.835,0.204,1193.237,-103.943,-278.138,
00:00:04:466,0.705,-0.739,0.172,1128.54,-132.386,-286.011,
00:00:04:483,0.685,-0.728,0.048,1130.432,-147.644,-320.923,
00:00:04:500,0.633,-0.682,-0.049,1319.824,-139.527,-291.932,
00:00:04:516,0.592,-0.716,-0.071,1559.448,-137.696,-313.843,
00:00:04:533,0.559,-0.894,-0.165,1605.041,-140.992,-341.492,
00:00:04:550,0.445,-0.914,-0.165,1449.89,-132.386,-356.385,
00:00:04:566,0.48,-0.857,-0.155,1278.076,-137.818,-305.176,
00:00:04:583,0.404,-0.917,-0.166,1008.239,-106.507,-382.081,
00:00:04:600,0.402,-0.936,-0.197,742.065,-106.507,-358.094,
00:00:04:616,0.383,-0.886,-0.323,440.857,-113.343,-371.46,
00:00:04:633,0.393,-0.884,-0.313,278.747,-145.691,-370.728,
00:00:04:650,0.349,-0.863,-0.375,214.782,-121.644,-350.525,
00:00:04:666,0.255,-0.747,-0.306,263,-87.586,-265.381,
00:00:04:683,0.332,-0.772,-0.364,408.203,-59.876,-301.636,
00:00:04:700,0.33,-1.013,-0.33,293.029,-90.577,-347.779,
00:00:04:716,0.293,-1.011,-0.279,122.863,-100.892,-277.894,
00:00:04:733,0.342,-0.979,-0.223,-133.728,-81.665,-240.967,
00:00:04:750,0.323,-0.988,-0.264,-454.651,-27.344,-281.495,
00:00:04:766,0.253,-0.763,-0.2,-597.107,10.009,-250.367,
00:00:04:783,0.229,-0.727,-0.173,-696.106,49.194,-256.287,
00:00:04:800,0.316,-0.801,-0.199,-724.366,70.739,-227.295,
00:00:04:816,0.385,-0.772,-0.325,-691.468,70.617,-133.912,
00:00:04:833,0.393,-0.593,-0.206,-441.834,26.733,-64.454,
00:00:04:850,0.414,-0.825,-0.095,-158.326,-32.898,-97.168,
00:00:04:866,0.386,-0.789,0.01,-82.581,-25.208,-5.738,
00:00:04:883,0.328,-0.727,0.055,-28.931,10.925,5.371,
00:00:04:900,0.404,-0.894,-0.111,19.409,41.259,-0.428,
00:00:04:916,0.463,-1.035,-0.166,-74.036,81.054,-1.465,
00:00:04:933,0.497,-1.014,-0.16,-182.557,132.019,14.648,
00:00:04:950,0.389,-1,-0.086,-349.976,181.213,-70.435,
00:00:04:966,0.413,-0.968,-0.063,-500.855,221.984,-75.074,
00:00:04:983,0.45,-0.865,0.064,-377.015,190.551,-92.164,
00:00:05:0,0.427,-0.905,0.071,-155.213,167.48,-59.327,
00:00:05:16,0.429,-0.918,-0.007,-144.898,243.469,-14.771,
00:00:05:33,0.481,-0.812,-0.02,-22.156,289.306,19.043,
00:00:05:50,0.479,-0.949,-0.102,15.502,284.607,-55.115,
00:00:05:66,0.474,-0.989,-0.097,-194.886,282.653,-68.848,
00:00:05:83,0.493,-0.987,-0.087,-455.323,258.3,-101.319,
00:00:05:100,0.513,-1.049,0.035,-591.858,217.224,-65.308,
00:00:05:116,0.438,-0.879,0.143,-625.916,132.873,-62.134,
00:00:05:133,0.498,-0.781,0.014,-641.785,99.182,-53.223,
00:00:05:150,0.5,-0.794,0.027,-672.913,59.326,-137.574,
00:00:05:166,0.467,-0.942,0.01,-815.674,19.348,-173.401,
00:00:05:183,0.454,-0.962,0.108,-1043.824,-15.686,-238.221,
00:00:05:200,0.454,-0.771,0.233,-910.706,4.15,-156.556,grateLH
00:00:05:216,0.473,-0.662,0.22,-430.237,44.372,-81.91,
00:00:05:233,0.456,-0.942,0.206,-70.496,58.593,-51.514,
00:00:05:250,0.423,-1.087,0.224,-156.495,94.055,-71.473,
00:00:05:266,0.518,-0.947,0.311,-315.857,2.807,-67.322,
00:00:05:283,0.452,-0.886,0.271,-259.278,-13.611,-115.174,
00:00:05:300,0.378,-0.836,0.301,-308.533,33.02,-85.45,
00:00:05:316,0.401,-0.638,0.277,-375.672,75.744,-46.204,
00:00:05:333,0.338,-0.56,0.229,-401.001,88.317,-3.479,
00:00:05:350,0.56,-0.605,0.164,-183.899,-5.066,64.27,
00:00:05:366,0.53,-0.647,0.324,194.763,-270.142,98.388,
00:00:05:383,0.479,-0.718,0.291,748.535,-425.66,232.544,
00:00:05:400,0.441,-0.998,0.169,1052.795,-449.402,351.928,
00:00:05:416,0.336,-1.031,0.289,1073.181,-399.109,430.359,
00:00:05:433,0.44,-1.325,0.268,831.482,-233.887,421.447,
00:00:05:450,0.416,-1.324,0.281,237.609,-124.146,239.257,
00:00:05:466,0.602,-1.379,0.238,5.371,-1.77,77.636,
00:00:05:483,0.516,-0.991,0.346,-5.372,-43.885,-53.162,
00:00:05:500,0.516,-0.922,0.247,88.684,-42.542,-92.469,
00:00:05:516,0.482,-0.819,0.273,158.813,-2.198,-40.528,
00:00:05:533,0.505,-0.819,0.254,259.094,-2.93,-92.652,
00:00:05:550,0.455,-0.732,0.304,359.253,59.448,-126.77,
00:00:05:566,0.469,-0.881,0.196,104.126,43.701,-262.452,
00:00:05:583,0.478,-0.909,0.034,-108.094,426.33,-392.273,
00:00:05:600,0.42,-1.062,-0.02,-583.985,372.558,-319.825,
00:00:05:616,0.212,-0.948,-0.086,-893.494,361.145,-229.371,
00:00:05:633,0.123,-0.971,0.068,-804.017,339.782,-114.197,
00:00:05:650,0.258,-0.797,0.185,-436.28,241.333,91.857,
00:00:05:666,0.29,-1.099,0.107,-142.212,-79.102,-169.983,
00:00:05:683,0.353,-1.176,0.16,-71.045,44.372,-209.29,
00:00:05:700,0.345,-1.167,0.176,-213.562,210.205,-267.64,
00:00:05:716,0.406,-1.125,0.112,-375.489,290.649,-329.712,
00:00:05:733,0.499,-1.044,0.087,-437.256,288.513,-356.141,
00:00:05:750,0.42,-1.046,0.1,-114.441,400.756,-315.43,
00:00:05:766,0.493,-0.902,0.268,-260.437,349.548,-282.898,
00:00:05:783,0.278,-0.677,0.646,-398.865,253.051,-252.564,
00:00:05:800,0.24,-0.372,0.524,-421.509,114.318,-194.642,
00:00:05:816,0.252,-0.356,0.328,-402.405,-49.012,-104.554,
00:00:05:833,0.35,-0.764,0.352,35.949,-285.706,243.469,
00:00:05:850,0.261,-0.923,0.211,-150.025,-270.203,202.209,
00:00:05:866,0.276,-0.638,0.164,-164.612,-287.171,168.823,
00:00:05:883,0.203,-0.889,0.172,85.022,-250.489,210.876,
00:00:05:900,0.289,-1.167,0.23,274.109,-301.392,269.897,
00:00:05:916,0.342,-0.726,0.451,-52.796,-320.496,306.274,
00:00:05:933,0.415,-0.561,0.378,47.302,-316.224,367.065,
00:00:05:950,0.335,-0.747,0.484,-91.126,-284.424,430.114,
00:00:05:966,0.484,-0.535,0.507,82.824,-244.812,545.044,
00:00:05:983,0.602,-1.054,0.369,641.967,-144.349,587.951,
00:00:06:0,0.691,-1.34,-0.019,242.736,208.984,5.798,
00:00:06:16,0.731,-1.779,-0.22,-78.37,336.975,-237.854,
00:00:06:33,0.655,-1.455,-0.152,-299.622,361.206,-319.703,
00:00:06:50,0.514,-0.829,-0.133,76.171,367.004,-332.947,
00:00:06:66,0.499,-1.185,-0.274,587.951,459.533,-442.505,
00:00:06:83,0.398,-1.698,-0.16,273.986,533.63,-636.414,
00:00:06:100,0.324,-1.162,-0.049,-148.56,616.577,-710.45,
00:00:06:116,0.493,-0.966,0.262,-30.457,614.502,-675.782,
00:00:06:133,0.376,-0.615,0.395,-263.184,582.336,-632.874,
00:00:06:150,0.012,-0.179,0.809,-287.598,371.765,-632.752,
00:00:06:166,0.267,-0.12,1.158,-345.52,63.598,-384.461,
00:00:06:183,0.251,-0.788,0.622,451.172,-347.779,266.906,
00:00:06:200,0.217,-1.02,0.538,-96.497,-342.713,251.403,
00:00:06:216,0.362,-0.756,0.412,-450.806,-269.776,295.776,
00:00:06:233,0.349,-0.665,0.318,-475.586,-223.816,363.281,
00:00:06:250,0.47,-0.973,0.266,-127.137,-272.583,392.273,
00:00:06:266,0.388,-1.191,0.233,194.824,-270.142,378.479,
00:00:06:283,0.378,-0.875,0.377,-188.538,-298.279,322.876,
00:00:06:300,0.545,-0.683,0.276,-49.744,-322.876,319.519,
00:00:06:316,0.495,-0.913,0.28,99.792,-322.205,355.59,
00:00:06:333,0.456,-1.102,0.319,129.516,-265.87,351.379,
00:00:06:350,0.678,-0.958,0.098,375.915,-206.665,323.364,
00:00:06:366,0.664,-1.431,0.039,381.775,-97.962,136.84,
00:00:06:383,0.661,-1.132,0.064,210.876,9.033,-43.946,
00:00:06:400,0.601,-1.477,0.125,218.2,143.554,-220.276,
00:00:06:416,0.48,-1.041,0.201,-83.802,207.275,-285.218,
00:00:06:433,0.542,-0.913,-0.006,291.32,305.908,-299.622,
00:00:06:450,0.488,-1.459,-0.116,254.638,444.336,-446.717,
00:00:06:466,0.485,-1.169,-0.043,-32.471,525.451,-571.045,
00:00:06:483,0.518,-1.183,-0.151,-66.224,597.778,-664.002,
00:00:06:500,0.416,-0.898,0.13,-5.494,632.019,-677.43,
00:00:06:516,0.133,-0.772,0.415,-268.616,644.897,-731.812,
00:00:06:533,0.091,-0.217,0.778,-319.886,439.27,-599.427,
00:00:06:550,0.211,-0.083,0.856,8.117,253.784,-273.682,
00:00:06:566,-0.029,-0.365,1.037,-277.161,-13.794,-164.612,
00:00:06:583,0.264,0.127,0.757,7.812,-245.972,164.55,
00:00:06:600,0.279,-0.593,0.639,811.645,-459.107,327.88,
00:00:06:616,0.237,-1.271,0.445,472.412,-529.175,314.575,
00:00:06:633,0.322,-0.678,0.374,-17.09,-514.222,335.022,
00:00:06:650,0.287,-0.965,0.328,-119.629,-430.176,326.66,
00:00:06:666,0.44,-0.865,0.256,-195.435,-394.654,379.699,
00:00:06:683,0.504,-0.954,0.251,120.91,-309.144,511.84,
00:00:06:700,0.339,-0.879,0.331,-54.078,-283.692,456.97,
00:00:06:716,0.581,-0.935,0.155,190.612,-268.311,461.975,
00:00:06:733,0.546,-1.256,0.187,166.381,-216.553,395.202,
00:00:06:750,0.463,-1.104,0.27,-244.873,-168.274,262.207,
00:00:06:766,0.549,-0.978,0.131,-153.87,-141.297,196.838,
00:00:06:783,0.584,-1.23,0.055,177.734,-135.01,172.912,
00:00:06:800,0.646,-1.223,0.024,252.502,-106.019,131.408,
00:00:06:816,0.659,-1.441,-0.009,282.531,-0.855,27.343,
00:00:06:833,0.688,-1.405,-0.019,-6.531,103.515,-155.64,
00:00:06:850,0.582,-1.032,0.047,-285.95,167.541,-371.216,
00:00:06:866,0.514,-0.719,0.027,-59.754,228.088,-458.313,
00:00:06:883,0.571,-1.162,-0.048,267.212,394.714,-487.427,
00:00:06:900,0.507,-1.233,0.014,-38.269,539.306,-597.596,
00:00:06:916,0.527,-1.032,-0.065,-239.747,660.461,-701.477,
00:00:06:933,0.308,-0.916,0.045,-193.97,706.482,-775.269,
00:00:06:950,0.336,-0.776,0.407,-169.983,655.7,-708.863,
00:00:06:966,0.085,-0.301,0.744,-302.308,474.853,-628.968,
00:00:06:983,0.243,-0.107,0.6,-11.17,322.692,-362.244,
00:00:07:0,0.002,-0.377,0.947,-223.999,54.565,-252.015,
00:00:07:16,0.063,0.029,0.706,-277.283,-135.071,51.025,
00:00:07:33,0.235,-0.313,0.493,421.753,-327.576,295.41,
00:00:07:50,0.212,-1.2,0.406,440.612,-483.765,290.527,
00:00:07:66,0.036,-0.809,0.456,-328.675,-520.874,286.01,
00:00:07:83,0.271,-0.494,0.347,-149.17,-584.29,373.352,
00:00:07:100,0.286,-1.045,0.262,208.252,-574.524,459.655,
00:00:07:116,0.288,-1.204,0.357,123.779,-557.923,521.118,
00:00:07:133,0.444,-0.524,0.324,66.65,-475.708,637.024,
00:00:07:150,0.438,-1.037,0.22,386.047,-447.449,541.442,
00:00:07:166,0.467,-1.302,0.418,207.275,-385.743,419.86,
00:00:07:183,0.491,-1.374,0.266,-42.176,-294.068,317.443,
00:00:07:200,0.541,-0.943,0.28,-6.165,-169.861,205.139,
00:00:07:216,0.553,-1.494,0.006,31.738,-99.671,28.93,
00:00:07:233,0.484,-1.176,-0.062,-207.642,-17.151,-40.284,
00:00:07:250,0.531,-1.081,-0.096,-167.664,73.73,-116.456,
00:00:07:266,0.631,-1.4,-0.002,-98.084,215.637,-207.459,
00:00:07:283,0.625,-1.479,0.055,-265.564,354.492,-334.717,
00:00:07:300,0.563,-1.081,0.108,-409.974,403.076,-456.421,
00:00:07:316,0.592,-0.675,-0.015,-7.569,470.031,-467.347,
00:00:07:333,0.557,-1.241,-0.128,236.572,559.265,-567.383,
00:00:07:350,0.462,-1.263,0.009,-61.707,625.366,-656.128,
00:00:07:366,0.453,-0.846,0.108,-272.644,637.085,-681.031,
00:00:07:383,0.308,-0.619,0.42,-106.263,613.037,-655.518,
00:00:07:400,0.163,-0.212,0.631,35.522,84.045,-237.61,
00:00:07:416,-0.142,-0.388,0.992,-88.807,-192.017,-139.954,
00:00:07:433,-0.069,-0.101,0.671,-5.249,-313.538,167.114,
00:00:07:450,0.082,-0.848,0.499,596.252,-432.007,303.344,
00:00:07:466,-0.109,-1.018,0.419,1.709,-405.762,333.13,
00:00:07:483,0.234,-0.682,0.313,-119.873,-431.031,407.592,
00:00:07:500,0.209,-0.851,0.357,-270.935,-420.227,449.463,
00:00:07:516,0.367,-0.832,0.455,-222.535,-434.205,525.756,
00:00:07:533,0.281,-0.783,0.463,-184.815,-409.119,584.106,
00:00:07:550,0.498,-0.898,0.283,347.961,-440.369,685.608,
00:00:07:566,0.526,-1.171,0.286,435.608,-447.022,677.246,
00:00:07:583,0.475,-0.837,0.387,126.587,-426.331,598.999,
00:00:07:600,0.803,-1.217,0.089,529.297,-406.006,509.704,
00:00:07:616,0.619,-1.412,0.147,312.133,-352.478,356.933,
00:00:07:633,0.637,-1.172,0.138,120.422,-278.809,183.899,
00:00:07:650,0.739,-1.207,-0.106,315.124,-146.424,86.425,
00:00:07:666,0.798,-1.426,-0.158,463.44,56.091,-44.129,
00:00:07:683,0.692,-1.447,0.015,116.027,255.432,-297.12,
00:00:07:700,0.567,-1.009,-0.031,-289.49,361.755,-510.071,
00:00:07:716,0.637,-0.854,-0.149,98.693,477.6,-536.255,
00:00:07:733,0.504,-1.207,-0.187,214.66,573.059,-585.389,
00:00:07:750,0.41,-1.11,-0.104,9.582,627.258,-619.69,
00:00:07:766,0.33,-0.963,0.032,-82.886,640.991,-634.278,
00:00:07:783,0.232,-0.724,0.254,29.846,604.187,-582.276,
00:00:07:800,0.14,-0.799,0.471,41.626,495.605,-557.984,
00:00:07:816,0.119,-0.59,0.514,-18.738,385.07,-458.313,
00:00:07:833,-2.046,3.4,-2.118,7985.882,152.212,7340.124,
00:00:07:850,0.076,-0.244,0.827,27.282,-3.663,-138.245,
00:00:07:866,0.055,-0.194,0.723,-108.155,-105.896,47.668,
00:00:07:883,0.152,-0.225,0.564,141.784,-223.084,273.986,
00:00:07:900,0.277,-0.778,0.427,452.27,-359.62,381.897,
00:00:07:916,0.227,-1.088,0.311,101.074,-372.437,412.475,
00:00:07:933,0.216,-0.761,0.445,-366.272,-377.015,489.868,
00:00:07:950,0.537,-0.187,0.345,-200.013,-417.969,612.548,
00:00:07:966,0.359,-0.971,0.267,418.884,-396.119,694.58,
00:00:07:983,0.745,-1.014,0.202,922.729,-483.155,905.212,
00:00:08:0,0.755,-0.82,0.137,1004.516,-442.627,989.441,
00:00:08:16,0.63,-1.231,0.056,837.951,-374.756,684.997,
00:00:08:33,0.621,-1.478,0.106,260.315,-226.563,392.7,
00:00:08:50,0.64,-1.57,-0.079,-568.543,-140.442,26.062,
00:00:08:66,0.623,-1.121,-0.185,-463.868,1.464,-100.953,
00:00:08:83,0.565,-1.214,-0.182,-22.034,85.632,-138.001,
00:00:08:100,0.49,-1.273,-0.046,8.85,107.238,-171.57,
00:00:08:116,0.439,-1.007,-0.093,-155.701,145.996,-204.956,
00:00:08:133,0.491,-0.94,-0.13,-61.219,218.689,-224.915,
00:00:08:150,0.522,-1.087,-0.125,-164.734,312.988,-288.88,
00:00:08:166,0.589,-1.067,-0.116,-274.353,424.255,-345.887,
00:00:08:183,0.549,-0.997,-0.106,-286.927,553.161,-405.823,
00:00:08:200,0.591,-0.833,-0.041,-140.931,655.395,-421.265,
00:00:08:216,0.523,-0.998,-0.027,-140.503,690.368,-510.621,
00:00:08:233,0.531,-0.77,0.058,-208.68,713.501,-495.118,
00:00:08:250,0.288,-1.006,0.118,-383.667,658.081,-619.873,
00:00:08:266,0.265,-0.471,0.519,-377.564,567.932,-514.71,
00:00:08:283,0.202,-0.432,0.512,-254.822,454.773,-406.739,
00:00:08:300,0.169,-0.441,0.709,-32.41,253.845,-259.827,
00:00:08:316,0.226,-0.453,0.692,37.78,42.602,-64.698,
00:00:08:333,0.045,-0.345,0.727,-36.56,-113.099,40.71,
00:00:08:350,0.206,-0.67,0.493,18.127,-264.405,123.718,
00:00:08:366,0.154,-0.785,0.268,-196.9,-378.968,227.844,
00:00:08:383,0.261,-0.79,0.26,2.441,-461.304,393.432,
00:00:08:400,0.23,-0.839,0.296,-16.846,-504.822,486.877,
00:00:08:416,0.429,-0.947,0.14,280.456,-527.039,537.353,
00:00:08:433,0.412,-1.148,0.177,408.874,-479.737,552.307,
00:00:08:450,0.446,-1.228,0.217,428.161,-395.874,513.916,
00:00:08:466,0.526,-1.342,0.151,366.76,-299.744,424.194,
00:00:08:483,0.537,-1.197,0.124,59.509,-197.266,280.029,
00:00:08:500,0.484,-1.003,0.19,-166.504,-105.164,143.982,
00:00:08:516,0.472,-0.931,0.255,-368.775,-57.068,65.185,
00:00:08:533,0.499,-0.818,0.256,-337.403,-41.382,54.443,
00:00:08:550,0.461,-0.938,0.252,-277.527,-45.716,70.068,
00:00:08:566,0.53,-0.994,0.253,-218.995,-71.473,65.429,
00:00:08:583,0.541,-0.92,0.239,-117.005,-114.258,59.387,
00:00:08:600,0.566,-0.965,0.092,26.733,-135.437,33.081,
00:00:08:616,0.595,-1.117,0.047,158.508,-117.005,20.202,
00:00:08:633,0.59,-1.192,0.062,214.66,-28.26,8.85,
00:00:08:650,0.616,-1.263,0.09,164.184,113.708,-72.205,
00:00:08:666,0.577,-1.01,0.184,-94.544,214.843,-242.615,
00:00:08:683,0.538,-0.902,0.097,-330.262,314.148,-421.387,
00:00:08:700,0.677,-0.844,-0.009,-125.367,440.612,-433.533,
00:00:08:716,0.589,-1.154,0.094,-114.624,519.653,-521.79,
00:00:08:733,0.532,-0.886,0.166,-231.812,557.678,-577.149,
00:00:08:750,0.383,-0.859,0.253,-139.222,569.458,-625.55,
00:00:08:766,0.342,-0.789,0.477,-265.748,502.746,-623.658,
00:00:08:783,0.116,-0.362,0.58,-519.898,413.879,-556.275,
00:00:08:800,0.096,-0.291,0.781,-447.998,200.683,-368.47,
00:00:08:816,-0.022,-0.197,0.945,-306.214,-52.552,-65.979,
00:00:08:833,0.125,-0.43,0.627,-27.527,-231.324,140.075,
00:00:08:850,0.17,-0.899,0.356,109.558,-325.379,242.309,
00:00:08:866,0.294,-0.961,0.194,237.548,-402.832,334.045,
00:00:08:883,0.245,-1.033,0.338,106.079,-419.434,346.923,
00:00:08:900,0.219,-0.815,0.422,-321.351,-415.65,278.076,
00:00:08:916,0.538,-0.692,0.474,-35.096,-399.292,434.204,
00:00:08:933,0.434,-0.912,0.323,-207.093,-376.16,408.813,
00:00:08:950,0.595,-0.837,0.263,44.921,-317.505,539.856,
00:00:08:966,0.694,-0.959,0.246,18.31,-267.884,575.012,
00:00:08:983,0.731,-0.704,0.135,-5.555,-237.732,489.563,
00:00:09:0,0.771,-1.119,0.084,341.247,-192.139,350.463,
00:00:09:16,0.796,-1.211,-0.015,406.372,-115.296,207.397,
00:00:09:33,0.77,-1.322,-0.083,386.901,41.748,-15.564,
00:00:09:50,0.725,-1.392,-0.11,158.63,174.621,-226.685,
00:00:09:66,0.533,-1.069,0.062,-182.679,257.751,-379.273,
00:00:09:83,0.469,-0.821,0.038,-22.217,310.852,-384.461,
00:00:09:100,0.493,-0.979,-0.038,396.606,409.912,-295.655,
00:00:09:116,0.445,-1.204,0.029,350.952,470.581,-331.36,
00:00:09:133,0.352,-1.146,0.066,-1.831,523.376,-445.252,
00:00:09:150,0.467,-1.105,0.037,-58.045,553.222,-520.508,
00:00:09:166,0.368,-1.136,0.164,-193.055,581.665,-585.267,
00:00:09:183,0.432,-0.688,0.342,-70.618,559.57,-571.656,
00:00:09:200,0.14,-0.682,0.389,-115.967,561.523,-590.027,
00:00:09:216,0.166,-0.68,0.744,-253.724,402.221,-551.636,
00:00:09:233,0.032,0.163,0.788,-327.942,223.388,-284.974,
00:00:09:250,-0.032,-0.375,1.001,-158.692,-10.315,-57.74,
00:00:09:266,0.131,-0.084,0.744,-108.277,-172.974,276.733,
00:00:09:283,0.321,-0.687,0.432,580.078,-321.412,429.077,
00:00:09:300,0.235,-1.137,0.291,174.804,-387.269,388.244,
00:00:09:316,0.332,-0.819,0.345,-201.661,-445.008,368.347,
00:00:09:333,0.433,-0.839,0.37,-390.381,-469.666,344.116,
00:00:09:350,0.564,-0.92,0.26,-197.876,-489.563,418.701,
00:00:09:366,0.445,-0.75,0.384,-133.423,-484.009,487.182,
00:00:09:383,0.617,-1.107,0.224,390.564,-389.1,485.595,
00:00:09:400,0.592,-1.033,0.188,72.143,-329.895,276.184,
00:00:09:416,0.7,-1.143,-0.03,343.261,-199.219,173.217,
00:00:09:433,0.706,-1.369,-0.091,7.324,114.868,-244.324,
00:00:09:450,0.632,-1.122,0.072,-318.726,168.823,-414.185,
00:00:09:466,0.528,-0.774,0.216,-323.304,207.763,-480.896,
00:00:09:483,0.597,-0.794,0.074,165.588,260.009,-424.195,
00:00:09:500,0.567,-1.001,0.02,429.077,366.088,-393.86,
00:00:09:516,0.524,-1.104,-0.058,183.838,460.388,-476.624,
00:00:09:533,0.493,-1.013,-0.005,-174.561,517.334,-565.125,
00:00:09:550,0.372,-0.875,0.209,-263.428,534.668,-604.493,
00:00:09:566,0.248,-0.564,0.373,-257.691,559.875,-539.49,
00:00:09:583,0.028,-0.315,0.704,-197.083,317.505,-443.543,
00:00:09:600,-0.003,-0.309,0.752,-263.733,108.337,-280.091,
00:00:09:616,0.167,-0.688,0.584,465.088,-411.988,392.761,
00:00:09:633,0.221,-1.231,0.284,380.859,-467.347,387.634,
00:00:09:650,0.041,-1.009,0.293,-284.974,-437.378,340.759,
00:00:09:666,0.385,-0.784,0.249,-258.362,-466.004,356.323,
00:00:09:683,0.336,-1.122,0.103,-178.65,-408.509,353.088,
00:00:09:700,0.439,-1.006,0.171,36.01,-262.757,371.399,
00:00:09:716,0.484,-0.925,0.259,21.545,-259.278,373.169,
00:00:09:733,0.475,-1.006,0.379,-92.835,-226.258,348.083,
00:00:09:750,0.467,-0.72,0.384,-336.853,-253.235,272.583,
00:00:09:766,0.606,-0.846,0.226,4.455,-228.577,329.651,
00:00:09:783,0.594,-0.835,0.272,19.409,-159.668,266.052,
00:00:09:800,0.728,-1.081,0.12,148.986,-100.647,153.93,
00:00:09:816,0.777,-1.105,0.074,244.506,-21.18,71.35,
00:00:09:833,0.787,-1.234,0.168,353.942,81.42,-45.166,
00:00:09:850,0.668,-1.057,0.362,90.698,124.572,-157.898,
00:00:09:866,0.642,-0.744,0.249,140.38,212.524,-221.07,
00:00:09:883,0.694,-1.026,0.041,359.924,347.9,-280.274,
00:00:09:900,0.611,-1.101,0.148,136.108,456.665,-385.193,
00:00:09:916,0.508,-0.873,0.055,-163.269,561.279,-498.719,
00:00:09:933,0.484,-0.865,0.191,-17.029,601.745,-560.364,
00:00:09:950,0.186,-0.726,0.392,-298.523,611.816,-627.686,
00:00:09:966,0.212,-0.449,0.824,-245.423,434.265,-608.155,
00:00:09:983,0.255,-0.503,0.579,488.464,-238.465,241.333,
00:00:10:0,0.268,-1.07,0.346,658.691,-300.293,244.018,
00:00:10:16,0.081,-1.001,0.256,-69.947,-273.56,136.474,
00:00:10:33,0.434,-1.037,0.211,-254.944,-227.051,168.823,
00:00:10:50,0.3,-1.053,0.269,-509.217,-185.791,213.745,
00:00:10:66,0.457,-1.016,0.333,-327.637,-144.776,273.376,
00:00:10:83,0.527,-0.562,0.432,-255.616,-137.94,349.975,
00:00:10:100,0.452,-0.797,0.32,28.381,-167.359,362.243,
00:00:10:116,0.452,-0.959,0.34,134.46,-197.266,365.356,
00:00:10:133,0.683,-0.929,0.33,261.413,-197.388,348.755,
00:00:10:150,0.57,-1.086,0.277,145.752,-118.409,223.083,
00:00:10:166,0.641,-1.174,0.161,-44.861,-37.049,63.415,
00:00:10:183,0.671,-1.117,0.11,-203.553,56.335,-48.645,
00:00:10:200,0.772,-1.082,-0.005,-67.81,125.244,-138.794,
00:00:10:216,0.822,-1.22,-0.099,160.4,178.711,-230.286,grateLH
00:00:10:233,0.668,-1.102,0.094,34.484,214.782,-286.499,
00:00:10:250,0.581,-0.806,0.232,-46.57,208.679,-303.589,
00:00:10:266,0.628,-0.647,0.088,306.518,294.006,-258.851,
00:00:10:283,0.615,-1.135,-0.001,421.203,379.15,-351.807,
00:00:10:300,0.581,-1.126,0.008,101.562,442.993,-444.214,
00:00:10:316,0.636,-0.832,-0.069,-2.747,509.765,-454.224,
00:00:10:333,0.529,-1.151,0.13,128.357,536.377,-525.147,
00:00:10:350,0.462,-0.785,0.255,-186.036,588.379,-506.531,
00:00:10:366,0.252,-0.751,0.545,-235.047,499.511,-555.054,
00:00:10:383,0.027,-0.176,0.852,-374.024,-103.577,-22.644,
00:00:10:400,0.139,-0.242,0.618,184.692,-277.222,264.465,
00:00:10:416,0.222,-0.796,0.39,715.881,-388.916,400.634,
00:00:10:433,0.247,-1.349,0.175,403.869,-404.48,363.647,
00:00:10:450,0.233,-0.908,0.203,-149.048,-374.573,253.845,
00:00:10:466,0.112,-1.118,0.322,-475.281,-305.359,192.871,
00:00:10:483,0.5,-0.852,0.184,2.258,-298.279,319.519,
00:00:10:500,0.324,-1.327,0.061,317.199,-215.638,353.21,
00:00:10:516,0.4,-1.116,0.164,373.169,-172.059,299.804,
00:00:10:533,0.396,-1.386,0.091,197.754,-120.545,145.141,
00:00:10:550,0.369,-0.974,0.259,-304.505,-116.7,12.023,
00:00:10:566,0.375,-0.864,0.242,-405.091,-129.212,-83.68,
00:00:10:583,0.38,-0.807,0.277,-351.258,-114.502,-16.724,
00:00:10:600,0.309,-0.627,0.515,-421.448,-126.587,87.89,
00:00:10:616,0.5,-0.589,0.382,-22.095,-117.554,250.671,
00:00:10:633,0.591,-0.951,0.219,282.165,-102.601,356.384,
00:00:10:650,0.59,-0.923,0.267,162.963,-129.578,261.108,
00:00:10:666,0.691,-1.031,0.237,174.682,-89.112,156.555,
00:00:10:683,0.757,-1.111,0.15,247.314,34.484,45.715,
00:00:10:700,0.751,-1.42,0.155,162.292,182.678,-139.771,
00:00:10:716,0.746,-1.188,0.168,-84.29,237.793,-293.885,
00:00:10:733,0.689,-0.802,0.243,-82.215,237.609,-371.521,
00:00:10:750,0.651,-0.679,0.147,233.032,306.701,-378.357,
00:00:10:766,0.658,-1.102,0.067,495.666,393.615,-444.458,
00:00:10:783,0.596,-1.165,0.093,241.577,459.045,-533.814,
00:00:10:800,0.46,-1.014,0.026,-12.574,537.536,-616.517,
00:00:10:816,0.428,-0.852,0.195,79.345,585.022,-613.343,
00:00:10:833,0.301,-0.834,0.207,-24.109,591.064,-606.202,
00:00:10:850,0.141,-0.767,0.443,-104.92,510.009,-628.174,
00:00:10:866,0.158,-0.672,0.43,-226.929,405.151,-499.268,
00:00:10:883,-0.055,-0.428,0.731,-56.824,205.017,-351.807,
00:00:10:900,-0.085,-0.201,0.796,-248.23,18.554,-186.585,
00:00:10:916,-0.107,-0.03,0.591,-228.76,-132.569,2.868,
00:00:10:933,0.079,-0.596,0.39,112.854,-241.822,222.534,
00:00:10:950,0.009,-0.955,0.263,-195.191,-240.601,346.313,
00:00:10:966,0.07,-0.807,0.365,-384.217,-282.349,410.705,
00:00:10:983,0.157,-0.901,0.406,-601.929,-287.964,486.938,
00:00:11:0,0.117,-0.719,0.589,-766.053,-345.887,603.271,
00:00:11:16,0.634,-0.799,0.271,21.179,-403.626,816.589,
00:00:11:33,0.592,-1.182,0.218,232.605,-451.6,862.426,
00:00:11:50,0.733,-0.964,0.258,265.258,-482.483,798.95,
00:00:11:66,0.741,-1.22,0.08,404.663,-419.068,614.624,
00:00:11:83,0.867,-1.332,-0.135,459.289,-294.983,415.71,
00:00:11:100,0.819,-1.437,-0.081,353.21,-147.644,152.465,
00:00:11:116,0.815,-1.39,-0.137,342.956,28.686,-107.789,
00:00:11:133,0.723,-1.386,-0.073,123.474,147.705,-342.102,
00:00:11:150,0.553,-1.025,0.052,-148.072,215.271,-449.097,
00:00:11:166,0.483,-0.844,-0.043,81.237,322.204,-411.499,
00:00:11:183,0.458,-1.112,-0.112,256.408,425.293,-391.297,
00:00:11:200,0.402,-1.235,-0.015,122.314,492.675,-476.258,
00:00:11:216,0.467,-1.065,-0.052,-23.56,581.176,-526.368,
00:00:11:233,0.485,-1.097,0.052,-29.541,649.475,-588.44,
00:00:11:250,0.386,-0.926,0.155,-85.206,697.204,-610.535,
00:00:11:266,0.349,-0.86,0.389,-112.488,670.776,-647.217,
00:00:11:283,0.152,-0.701,0.604,-266.48,606.445,-644.837,
00:00:11:300,0.135,-0.442,0.859,-298.768,398.193,-555.054,
00:00:11:316,0.141,-0.228,0.865,-223.084,162.414,-338.318,
00:00:11:333,0.109,-0.134,0.822,-197.083,-26.673,-112.061,
00:00:11:350,0.13,0.024,0.616,-3.602,-176.392,133.789,
00:00:11:366,0.309,-0.613,0.392,406.372,-316.346,247.314,
00:00:11:383,0.067,-0.961,0.287,-114.502,-352.845,299.987,
00:00:11:400,0.366,-0.736,0.286,-26.368,-448.914,448.181,
00:00:11:416,0.104,-0.935,0.478,-567.872,-469.727,506.836,
00:00:11:433,0.572,-0.117,0.428,-50.721,-572.51,744.567,
00:00:11:450,0.691,-1.229,-0.014,851.623,-615.296,792.053,
00:00:11:466,0.387,-0.716,0.39,608.825,-688.05,770.996,
00:00:11:483,0.684,-0.829,0.234,1178.344,-633.484,722.9,
00:00:11:500,0.529,-1.432,0.101,993.896,-564.026,430.908,
00:00:11:516,0.924,-1.45,-0.001,678.405,-457.093,352.356,
00:00:11:533,0.651,-1.67,0.041,-190.613,-315.979,66.284,
00:00:11:550,0.743,-1.031,-0.181,-351.868,-176.697,2.868,
00:00:11:566,0.742,-1.092,-0.377,284.118,5.798,-64.454,
00:00:11:583,0.624,-1.359,-0.259,308.96,212.89,-156.495,
00:00:11:600,0.52,-1.402,-0.16,-238.648,329.467,-336.548,
00:00:11:616,0.458,-0.974,-0.224,-536.622,445.007,-406.067,
00:00:11:633,0.513,-0.94,-0.311,-231.568,639.343,-431.702,
00:00:11:650,0.461,-1.214,-0.146,-195.008,806.335,-514.832,
00:00:11:666,0.374,-1.043,-0.056,-273.072,948.242,-578.919,
00:00:11:683,0.48,-1.145,0.041,-241.7,988.464,-669.007,
00:00:11:700,0.301,-0.956,0.149,-290.894,1004.028,-660.584,
00:00:11:716,0.246,-0.988,0.492,-298.523,811.096,-740.967,
00:00:11:733,0.344,-0.562,0.591,-475.403,600.036,-649.353,
00:00:11:750,0.183,-0.336,0.905,-400.818,333.557,-552.063,
00:00:11:766,0.122,-0.135,0.975,-134.827,89.172,-268.128,
00:00:11:783,0.167,-0.201,0.86,62.744,-83.619,-37.659,
00:00:11:800,0.194,-0.268,0.731,265.625,-237.977,155.395,
00:00:11:816,0.309,-0.728,0.261,575.744,-340.088,224.792,
00:00:11:833,0.264,-0.963,0.154,283.569,-476.075,241.394,
00:00:11:850,0.287,-0.777,0.323,-188.538,-591.98,281.433,
00:00:11:866,0.049,-0.754,0.309,-777.955,-609.498,195.129,
00:00:11:883,0.34,-0.549,0.358,-291.687,-586.365,562.255,
00:00:11:900,0.407,-0.959,0.312,69.824,-588.501,680.42,
00:00:11:916,0.535,-0.851,0.062,481.933,-546.998,759.277,
00:00:11:933,0.508,-1.288,-0.009,789.123,-561.768,623.84,
00:00:11:950,0.296,-1.382,0.146,58.654,-476.99,406.982,
00:00:11:966,0.553,-1.266,0.048,-183.96,-367.432,294.128,
00:00:11:983,0.576,-1.292,-0.138,-266.114,-251.099,176.757,
00:00:12:0,0.786,-1.25,-0.271,138.183,-99.244,176.696,
00:00:12:16,0.699,-1.54,-0.272,345.153,68.054,19.531,
00:00:12:33,0.596,-1.385,-0.112,10.009,202.697,-137.146,
00:00:12:50,0.526,-1.013,0.027,-294.8,275.329,-288.941,
00:00:12:66,0.466,-0.727,-0.086,-149.781,363.159,-335.877,
00:00:12:83,0.542,-0.842,-0.079,182.19,476.562,-338.013,
00:00:12:100,0.461,-1.075,-0.037,86.486,597.534,-368.897,
00:00:12:116,0.43,-1.097,0.042,-243.592,695.251,-421.387,
00:00:12:133,0.477,-0.811,0.085,-318.726,734.558,-398.194,
00:00:12:150,0.417,-0.795,0.303,-126.038,690.307,-417.237,
00:00:12:166,0.266,-0.631,0.502,-241.822,640.258,-391.785,
00:00:12:183,0.186,-0.309,0.677,-397.095,425.171,-359.131,
00:00:12:200,0.061,-0.154,0.621,-617.981,253.112,-201.355,
00:00:12:216,0.291,-0.325,0.731,-561.097,5.981,133.3,
00:00:12:233,0.198,-0.094,0.617,-156.739,-94.117,470.642,
00:00:12:250,0.344,-0.449,0.487,597.351,-263.489,627.014,
00:00:12:266,0.349,-1.1,0.274,713.317,-363.221,639.282,
00:00:12:283,0.368,-1.013,0.197,583.801,-422.486,695.251,
00:00:12:300,0.546,-1.147,0.442,413.818,-515.32,676.88,
00:00:12:316,0.488,-1.077,0.381,-12.94,-489.93,613.769,
00:00:12:333,0.608,-0.994,0.346,173.095,-468.14,563.598,
00:00:12:350,0.627,-1.073,0.27,655.273,-320.984,485.229,
00:00:12:366,0.547,-1.361,0.219,38.635,-195.618,230.835,
00:00:12:383,0.564,-1.609,0.229,-973.023,-81.849,110.473,
00:00:12:400,0.664,-1.288,0.084,-1718.689,42.541,49.255,
00:00:12:416,0.683,-0.91,-0.022,-1618.653,138.794,-43.091,
00:00:12:433,0.73,-0.822,-0.013,-1231.019,165.832,-218.75,
00:00:12:450,0.647,-0.788,0.02,-1070.252,173.95,-452.759,
00:00:12:466,0.588,-0.678,0.272,-869.873,167.053,-578.309,
00:00:12:483,0.641,-0.636,0.35,-592.225,157.226,-618.103,
00:00:12:500,0.655,-0.595,0.407,-167.786,126.464,-610.108,
00:00:12:516,0.686,-0.554,0.444,446.106,114.318,-547.486,
00:00:12:533,0.61,-1.004,0.288,847.107,93.689,-668.152,
00:00:12:550,0.511,-0.834,0.386,772.338,106.628,-557.312,
00:00:12:566,0.428,-0.763,0.475,844.238,127.38,-384.339,
00:00:12:583,0.237,-0.807,0.535,1011.779,154.846,-146.241,
00:00:12:600,0.11,-1.051,0.274,666.565,-50.965,295.227,
00:00:12:616,0.134,-0.982,0.258,634.46,-115.601,349.548,
00:00:12:633,0.167,-1.112,0.292,783.264,-127.93,353.881,
00:00:12:650,0.263,-1.34,0.296,977.172,-154.541,376.831,
00:00:12:666,0.283,-1.118,0.185,920.715,-256.836,329.223,
00:00:12:683,0.272,-1.032,0.013,658.63,-315.125,202.575,
00:00:12:700,0.384,-1.019,-0.081,311.706,-344.361,122.985,
00:00:12:716,0.516,-1.124,0.003,207.092,-273.926,222.778,
00:00:12:733,0.541,-1.046,-0.064,76.11,-234.192,380.615,
00:00:12:750,0.526,-0.793,-0.07,0.854,-288.208,572.509,
00:00:12:766,0.532,-0.989,0.014,-410.218,-417.603,424.011,
00:00:12:783,0.682,-0.899,0.032,-674.439,-428.65,396.301,
00:00:12:800,0.724,-0.722,-0.005,-770.02,-310.242,171.814,
00:00:12:816,0.815,-0.497,-0.181,-758.789,-361.634,101.257,
00:00:12:833,0.493,-0.167,-0.078,-507.447,-409.607,24.597,
00:00:12:850,0.525,-0.19,0.167,-200.562,-270.325,-99.488,
00:00:12:866,0.519,-0.408,0.083,87.951,-177.796,-223.511,
00:00:12:883,0.523,-0.739,-0.141,14.404,-62.195,-300.782,
00:00:12:900,0.71,-0.813,-0.172,-238.77,83.496,-372.742,
00:00:12:916,0.63,-0.708,-0.119,-578.553,120.544,-530.518,
00:00:12:933,0.517,-0.754,0.117,-774.842,182.678,-680.787,
00:00:12:950,0.393,-0.776,0.112,-814.026,423.156,-616.7,
00:00:12:966,0.344,-0.643,-0.119,-670.533,687.683,-535.157,
00:00:12:983,0.585,-0.678,-0.221,-375.733,706.359,-460.938,
00:00:13:0,0.807,-0.733,-0.141,-146.729,428.405,-388.123,
00:00:13:16,0.787,-0.836,0.054,-14.1,240.539,-473.267,
00:00:13:33,0.665,-1.063,0.144,-37.415,221.74,-638.855,
00:00:13:50,0.661,-1.197,0.228,-237.244,348.693,-650.391,
00:00:13:66,0.638,-0.941,0.373,-339.966,438.354,-574.097,
00:00:13:83,0.482,-0.645,0.277,-70.374,476.989,-598.206,
00:00:13:100,0.364,-0.675,0.194,387.085,438.72,-617.249,
00:00:13:116,0.262,-0.818,0.171,540.832,216.735,-564.087,
00:00:13:133,0.151,-1.174,0.253,224.548,165.161,-518.006,
00:00:13:150,0.173,-1.197,0.612,-247.559,9.216,-330.323,
00:00:13:166,-0.023,-0.73,0.697,-930.542,-10.926,-254.7,
00:00:13:183,-0.239,-0.065,0.491,-1009.644,-40.589,-83.069,
00:00:13:200,-0.066,-0.283,0.555,-307.557,-330.567,42.541,
00:00:13:216,-0.023,-0.834,0.64,-114.808,-500.794,262.695,
00:00:13:233,0.076,-1.126,0.641,-279.236,-558.96,390.564,
00:00:13:250,0.082,-0.998,0.566,-584.229,-574.036,395.691,
00:00:13:266,0.343,-1.015,0.218,-320.923,-597.718,486.694,
00:00:13:283,0.352,-1.106,0.248,-164.917,-614.014,529.235,
00:00:13:300,0.296,-0.912,0.473,-209.046,-566.407,553.772,
00:00:13:316,0.685,-1.012,0.278,454.651,-562.684,586.242,
00:00:13:333,0.674,-1.429,0.173,730.407,-452.393,453.247,
00:00:13:350,0.581,-1.451,0.208,638.305,-288.941,266.906,
00:00:13:366,0.649,-1.579,0.17,492.981,-50.354,66.528,
00:00:13:383,0.607,-1.459,0.218,-67.81,191.406,-210.938,
00:00:13:400,0.594,-1.068,0.276,-496.949,365.173,-471.924,
00:00:13:416,0.57,-1.004,0.222,-240.418,526.489,-572.815,
00:00:13:433,0.51,-1.175,0.124,172.485,657.287,-584.595,
00:00:13:450,0.582,-1.291,0.126,320.922,695.068,-576.844,
00:00:13:466,0.488,-1.335,-0.146,33.508,733.52,-668.946,
00:00:13:483,0.48,-1.035,0.065,-94.727,750.549,-685.242,
00:00:13:500,0.104,-0.931,0.352,-174.622,763.733,-809.998,
00:00:13:516,0.228,-0.472,0.593,-125.245,673.523,-678.528,
00:00:13:533,-0.234,-0.421,0.77,-464.234,414.856,-752.198,
00:00:13:550,0.115,-0.141,0.454,-596.741,298.156,-389.1,
00:00:13:566,-0.021,-0.118,0.778,-515.198,12.146,-223.633,
00:00:13:583,-0.045,0.016,0.882,-325.501,-129.334,134.704,
00:00:13:600,0.093,-0.295,0.708,149.292,-324.036,360.901,
00:00:13:616,0.124,-0.677,0.615,258.789,-469.239,514.709,
00:00:13:633,0.171,-0.68,0.57,-19.288,-596.802,513.244,
00:00:13:650,0.266,-0.6,0.345,-137.94,-587.647,470.947,
00:00:13:666,0.427,-1.024,0.33,156.005,-599.427,578.125,
00:00:13:683,0.194,-0.924,0.375,-192.627,-488.16,624.267,
00:00:13:700,0.552,-0.832,0.233,480.896,-410.462,783.142,
00:00:13:716,0.354,-1.306,0.219,621.521,-308.655,696.106,
00:00:13:733,0.569,-1.291,0.211,513.61,-217.286,605.163,
00:00:13:750,0.54,-1.409,0.189,268.676,-67.444,348.022,
00:00:13:766,0.595,-1.411,0.101,-365.296,202.087,-257.691,
00:00:13:783,0.484,-1.054,0.21,-342.102,208.374,-325.257,
00:00:13:800,0.436,-0.847,0.317,-175.965,236.511,-402.405,
00:00:13:816,0.393,-0.941,0.164,20.08,324.218,-485.596,
00:00:13:833,0.446,-1.025,0.06,266.357,411.987,-497.62,
00:00:13:850,0.43,-1.264,0.05,276.733,461.059,-571.839,
00:00:13:866,0.247,-1.184,0.154,-33.509,471.862,-657.471,
00:00:13:883,0.293,-0.901,0.193,-152.649,468.322,-637.513,
00:00:13:900,0.228,-0.636,0.43,-0.245,402.221,-569.825,
00:00:13:916,0.067,-0.648,0.625,-4.822,256.347,-500.672,
00:00:13:933,0.097,-0.366,0.56,-9.522,209.594,-358.765,
00:00:13:950,0.067,-0.427,0.629,-27.161,130.859,-250,
00:00:13:966,0.036,-0.324,0.731,-175.415,19.104,-96.985,
00:00:13:983,0.047,-0.141,0.593,-181.763,-88.013,67.81,
00:00:14:0,0.121,-0.283,0.477,134.643,-192.872,248.962,
00:00:14:16,0.152,-0.752,0.43,233.398,-286.805,383.117,
00:00:14:33,0.207,-0.87,0.619,-26.734,-388.184,486.267,
00:00:14:50,0.187,-0.614,0.617,-257.386,-420.655,532.043,
00:00:14:66,0.451,-0.929,0.295,209.838,-421.265,570.068,
00:00:14:83,0.446,-1.282,0.261,360.962,-466.553,620.422,
00:00:14:100,0.357,-0.773,0.383,423.889,-449.402,658.569,
00:00:14:116,0.333,-1.121,0.202,541.259,-454.59,533.874,
00:00:14:133,0.379,-0.966,0.244,352.661,-380.31,530.639,
00:00:14:150,0.376,-1.384,0.272,58.471,-301.27,368.286,
00:00:14:166,0.38,-1.126,0.28,-453.186,-195.679,261.413,
00:00:14:183,0.444,-1.034,0.177,-557.007,-106.995,175.171,
00:00:14:200,0.547,-1.003,0.152,-264.771,-85.45,203.247,
00:00:14:216,0.554,-1.036,0.148,168.09,-66.712,196.899,
00:00:14:233,0.58,-1.27,0.131,364.38,-38.025,96.679,
00:00:14:250,0.546,-1.346,0.146,67.504,46.02,-82.459,grateLH
00:00:14:266,0.544,-1.185,0.193,-213.074,138.244,-269.227,
00:00:14:283,0.561,-1.074,0.172,-214.539,204.162,-361.023,
00:00:14:300,0.526,-0.975,0.257,28.381,281.616,-383.362,
00:00:14:316,0.522,-0.975,0.137,302.49,398.986,-400.025,
00:00:14:333,0.432,-1.152,0.048,285.461,475.952,-500.55,
00:00:14:350,0.451,-1.118,0.042,69.702,520.935,-589.112,
00:00:14:366,0.283,-0.962,0.065,-63.416,605.529,-647.706,
00:00:14:383,0.2,-0.592,0.229,-169.19,575.134,-653.138,
00:00:14:400,0.151,-0.305,0.359,-204.834,512.39,-530.396,
00:00:14:416,0.118,-0.179,0.583,-33.204,413.025,-290.589,
00:00:14:433,-0.018,-0.168,0.701,-155.823,102.661,-64.942,
00:00:14:450,0.101,0.317,0.758,-153.626,-167.847,225.402,
00:00:14:466,0.075,-0.111,0.588,152.771,-304.932,394.104,
00:00:14:483,0.189,-0.949,0.243,152.771,-382.142,526.672,
00:00:14:500,0.239,-0.819,0.214,123.779,-464.234,660.705,
00:00:14:516,0.353,-1.153,0.328,296.325,-535.34,730.346,
00:00:14:533,0.294,-0.994,0.493,128.906,-521.973,697.937,
00:00:14:550,0.514,-1.227,0.367,482.666,-465.577,678.161,
00:00:14:566,0.501,-1.494,0.292,408.996,-406.006,526.672,
00:00:14:583,0.492,-1.466,0.308,155.517,-316.224,374.511,
00:00:14:600,0.5,-1.05,0.337,-36.499,-207.398,289.123,
00:00:14:616,0.456,-0.945,0.481,-129.578,-103.516,211.67,
00:00:14:633,0.462,-0.971,0.524,-305.481,-65.125,99.67,
00:00:14:650,0.464,-0.94,0.482,-287.964,-83.252,89.477,
00:00:14:666,0.465,-0.889,0.409,-105.774,-133.362,122.07,
00:00:14:683,0.455,-0.927,0.383,-104.248,-216.736,129.15,
00:00:14:700,0.465,-0.724,0.436,-177.918,-263.855,160.766,
00:00:14:716,0.454,-0.748,0.424,-151.917,-299.683,217.773,
00:00:14:733,0.672,-0.572,0.245,207.458,-273.682,319.763,
00:00:14:750,0.61,-1.237,0.029,242.248,-196.473,247.436,
00:00:14:766,0.583,-1.067,0.117,280.822,-61.219,168.701,
00:00:14:783,0.635,-1.473,-0.062,415.588,127.38,-24.781,
00:00:14:800,0.572,-1.5,0.057,28.32,246.704,-325.135,
00:00:14:816,0.514,-1.04,0.162,-106.202,261.291,-481.812,
00:00:14:833,0.549,-1.022,-0.035,178.283,322.021,-515.076,
00:00:14:850,0.524,-1.223,-0.027,303.466,406.189,-564.27,
00:00:14:866,0.4,-1.274,0.024,-44.861,515.075,-679.322,
00:00:14:883,0.519,-1.027,-0.007,-278.626,629.821,-718.079,
00:00:14:900,0.351,-0.967,0.107,-522.095,681.762,-780.64,
00:00:14:916,0.379,-0.404,0.286,-370.24,687.011,-689.942,
00:00:14:933,0.134,-0.604,0.597,-365.296,584.411,-669.617,
00:00:14:950,0.399,-0.292,0.672,-225.22,459.289,-461.548,
00:00:14:966,0.178,-0.23,0.82,-232.056,192.566,-318.97,
00:00:14:983,0.104,0.004,0.876,-365.906,58.532,-117.554,
00:00:15:0,0.149,0.067,0.633,-296.631,-69.336,116.943,
00:00:15:16,0.308,-0.556,0.538,273.437,-218.995,376.403,
00:00:15:33,0.32,-1.101,0.245,206.787,-277.161,520.874,
00:00:15:50,0.378,-0.708,0.43,195.007,-393.677,604.553,
00:00:15:66,0.378,-0.78,0.582,69.091,-467.041,601.379,
00:00:15:83,0.579,-0.778,0.385,264.953,-570.557,631.103,
00:00:15:100,0.379,-1.039,0.552,276.611,-608.704,632.385,
00:00:15:116,0.659,-0.941,0.286,488.403,-586.365,704.712,
00:00:15:133,0.633,-1.206,0.191,471.435,-510.498,663.025,
00:00:15:150,0.565,-1.027,0.246,310.608,-371.216,525.879,
00:00:15:166,0.633,-1.337,0.15,167.785,-221.924,287.109,
00:00:15:183,0.642,-1.191,0.067,24.353,-82.154,117.675,
00:00:15:200,0.648,-1.435,-0.006,59.204,50.781,-83.13,
00:00:15:216,0.61,-1.362,0.01,-158.692,143.066,-259.705,
00:00:15:233,0.572,-1.138,0.075,-230.408,205.932,-345.459,
00:00:15:250,0.504,-0.924,0.235,-233.948,265.197,-364.319,
00:00:15:266,0.48,-0.842,0.141,-114.808,330.993,-373.291,
00:00:15:283,0.527,-0.928,0.042,101.928,447.509,-391.114,
00:00:15:300,0.518,-1.178,-0.018,-68.787,517.395,-536.499,
00:00:15:316,0.504,-1.056,-0.023,-224.488,569.336,-647.95,
00:00:15:333,0.55,-0.966,-0.028,-159.729,604.98,-671.753,
00:00:15:350,0.344,-0.821,0.006,-5.86,645.813,-669.312,
00:00:15:366,0.359,-0.801,0.281,114.685,575.317,-660.889,
00:00:15:383,0.207,-0.582,0.335,-111.451,504.882,-636.17,
00:00:15:400,0.152,-0.36,0.8,-103.638,212.707,-580.323,
00:00:15:416,0.142,-0.384,0.742,-69.947,23.437,-365.052,
00:00:15:433,0.198,-0.209,0.707,54.26,-177.918,-121.705,
00:00:15:450,0.139,-0.237,0.798,162.17,-347.29,83.923,
00:00:15:466,0.182,-0.313,0.61,359.008,-468.873,268.859,
00:00:15:483,0.224,-0.976,0.268,373.84,-539.734,368.591,
00:00:15:500,0.154,-0.812,0.347,135.803,-616.272,469.421,
00:00:15:516,0.297,-0.681,0.45,429.077,-627.259,592.407,
00:00:15:533,0.242,-1.355,0.429,191.101,-577.21,551.818,
00:00:15:550,0.44,-0.68,0.322,291.381,-476.929,587.829,
00:00:15:566,0.368,-1.519,0.289,209.594,-353.394,460.571,
00:00:15:583,0.359,-0.698,0.378,-215.332,-250.794,356.933,
00:00:15:600,0.423,-1.319,0.256,-144.227,-162.049,269.958,
00:00:15:616,0.438,-0.852,0.25,-326.661,-158.936,223.327,
00:00:15:633,0.522,-1.252,0.16,-59.449,-135.804,191.589,
00:00:15:650,0.326,-0.911,0.43,-395.874,-173.462,138.122,
00:00:15:666,0.569,-0.801,0.217,-8.851,-215.76,185.119,
00:00:15:683,0.54,-1.093,0.135,136.23,-255.31,206.237,
00:00:15:700,0.498,-0.96,0.103,103.027,-258.362,205.749,
00:00:15:716,0.612,-1.188,-0.087,307.129,-157.044,175.415,
00:00:15:733,0.54,-1.348,-0.038,302.307,3.601,57.006,
00:00:15:750,0.505,-1.334,0.029,51.635,154.846,-148.499,
00:00:15:766,0.463,-1.087,0.093,-268.25,226.806,-294.8,
00:00:15:783,0.43,-0.885,0.123,-211.121,270.691,-335.755,
00:00:15:800,0.535,-1.048,-0.031,101.44,316.162,-341.187,
00:00:15:816,0.473,-1.188,0.011,169.006,342.773,-412.232,
00:00:15:833,0.449,-1.21,0.047,159.362,378.418,-510.315,
00:00:15:850,0.511,-1.211,0.067,-2.381,451.843,-582.032,
00:00:15:866,0.431,-1.068,0.113,-125.55,536.865,-630.921,
00:00:15:883,0.285,-0.729,0.418,-259.827,576.538,-648.133,
00:00:15:900,0.341,-0.504,0.626,-255.31,496.887,-607.972,
00:00:15:916,0.083,-0.144,0.861,-376.526,347.107,-496.582,
00:00:15:933,0.139,-0.092,0.934,-275.391,93.933,-260.865,
00:00:15:950,0.208,0.027,0.912,-277.649,-119.568,54.016,
00:00:15:966,0.334,-0.182,0.725,330.993,-264.039,376.648,
00:00:15:983,0.38,-0.872,0.484,435.791,-345.887,431.213,
00:00:16:0,0.327,-0.763,0.477,2.502,-376.221,369.384,
00:00:16:16,0.435,-0.751,0.347,-34.302,-354.371,360.839,
00:00:16:33,0.296,-1.019,0.406,-379.944,-325.745,316.772,
00:00:16:50,0.592,-0.86,0.24,155.273,-344.605,439.941,
00:00:16:66,0.312,-1.191,0.25,29.113,-297.608,434.57,
00:00:16:83,0.463,-0.944,0.169,101.379,-307.129,414.367,
00:00:16:100,0.397,-1.182,0.177,-91.248,-252.259,353.454,
00:00:16:116,0.589,-1.053,0.164,-55.359,-208.069,341.125,
00:00:16:133,0.391,-0.964,0.279,-272.583,-124.268,251.098,
00:00:16:150,0.536,-1.046,0.101,37.475,-38.575,226.379,
00:00:16:166,0.576,-1.257,0.068,34.484,26.123,123.047,
00:00:16:183,0.572,-1.054,0.076,-48.951,82.885,-12.269,
00:00:16:200,0.588,-1.203,0.058,21.362,120.605,-131.714,
00:00:16:216,0.579,-1.167,0.102,48.645,123.291,-217.652,
00:00:16:233,0.507,-0.97,0.251,109.558,141.357,-260.682,
00:00:16:250,0.43,-0.976,0.314,82.824,199.157,-294.129,
00:00:16:266,0.452,-0.92,0.157,102.478,263.61,-326.722,
00:00:16:283,0.456,-1.023,0.098,220.092,326.782,-374.268,
00:00:16:300,0.402,-1.181,0.086,66.65,364.441,-493.47,
00:00:16:316,0.387,-1.035,0.115,-16.724,397.888,-560.242,
00:00:16:333,0.401,-0.937,0.136,67.993,433.288,-570.313,
00:00:16:350,0.319,-1,0.256,133.484,460.449,-573.182,
00:00:16:366,0.23,-0.84,0.497,23.315,447.387,-591.004,
00:00:16:383,0.102,-0.419,0.867,-113.16,313.842,-560.852,
00:00:16:400,0.099,-0.417,0.881,-220.398,150.207,-426.758,
00:00:16:416,0.134,-0.097,0.868,-368.592,0.122,-206.482,
00:00:16:433,0.121,-0.142,0.741,-52.613,-192.872,150.268,
00:00:16:450,0.252,-0.527,0.587,513.61,-354.187,446.472,
00:00:16:466,0.311,-1.074,0.484,325.012,-430.237,514.099,
00:00:16:483,0.225,-0.544,0.599,-253.602,-440.308,400.817,
00:00:16:500,0.451,-0.921,0.385,-135.682,-391.053,381.103,
00:00:16:516,0.465,-0.803,0.348,-254.944,-343.201,377.563,
00:00:16:533,0.275,-1.088,0.432,-447.876,-278.748,312.378,
00:00:16:550,0.535,-0.899,0.29,-109.009,-235.23,429.748,
00:00:16:566,0.51,-1.006,0.241,-44.068,-181.946,483.52,
00:00:16:583,0.209,-1.011,0.299,-226.075,-207.886,347.778,
00:00:16:600,0.607,-1.118,0.111,216.613,-207.703,391.174,
00:00:16:616,0.412,-1.116,0.292,-34.79,-196.595,312.378,
00:00:16:633,0.69,-1.222,0.081,254.943,-89.173,237.365,
00:00:16:650,0.634,-1.234,0.052,170.593,34.79,105.713,
00:00:16:667,0.647,-1.464,-0.077,118.103,132.812,-128.418,
00:00:16:683,0.559,-1.237,-0.054,-137.391,140.93,-238.16,
00:00:16:700,0.467,-0.908,0.132,-77.454,146.24,-271.058,
00:00:16:717,0.357,-0.831,0.162,163.696,198.425,-258.912,
00:00:16:733,0.439,-1.038,0.087,330.749,303.283,-281.556,
00:00:16:750,0.422,-1.297,0.04,90.942,366.211,-399.476,
00:00:16:767,0.46,-1.099,0.071,-126.099,451.843,-497.315,
00:00:16:783,0.477,-1.094,-0.03,-175.232,557.129,-560.486,
00:00:16:800,0.26,-0.972,0.256,-38.086,604.126,-618.47,
00:00:16:817,0.331,-0.911,0.401,-58.228,643.493,-659.668,
00:00:16:833,0.177,-0.762,0.643,-111.084,590.881,-742.981,
00:00:16:850,0.253,-0.692,0.881,-254.273,392.089,-718.567,
00:00:16:867,0.135,-0.281,0.839,-313.721,197.448,-593.811,
00:00:16:883,0.165,-0.192,0.776,-400.147,90.698,-359.986,
00:00:16:900,0.112,-0.156,0.94,-226.746,-106.751,-67.017,
00:00:16:917,0.223,-0.159,0.587,213.501,-212.708,275.268,
00:00:16:933,0.302,-0.774,0.424,667.602,-436.463,432.495,
00:00:16:950,0.15,-1.139,0.474,104.98,-544.312,419.311,
00:00:16:967,0.164,-0.266,0.572,-346.619,-566.895,459.35,
00:00:16:983,0.55,-0.811,0.293,206.115,-579.895,566.894,
00:00:17:0,0.221,-0.989,0.534,-190.247,-552.552,594.299,
00:00:17:17,0.482,-0.666,0.323,191.345,-486.206,670.044,
00:00:17:33,0.481,-1.373,0.202,467.285,-391.785,677.673,
00:00:17:50,0.411,-1.128,0.212,44.25,-321.412,533.813,
00:00:17:67,0.551,-0.982,0.237,104.797,-239.991,421.447,
00:00:17:83,0.644,-1.224,0.061,171.508,-146.363,269.897,
00:00:17:100,0.545,-1.414,0.103,-43.641,-85.511,50.354,
00:00:17:117,0.651,-1.092,0.04,-14.039,14.099,-26.123,
00:00:17:133,0.59,-1.215,-0.064,219.543,103.332,-156.861,
00:00:17:150,0.498,-1.27,0.07,8.667,174.499,-286.683,
00:00:17:167,0.43,-0.968,0.166,-238.953,201.66,-331.604,
00:00:17:183,0.445,-0.863,0.156,-136.963,219.848,-317.078,
00:00:17:200,0.465,-0.931,0.014,44.494,269.592,-286.683,
00:00:17:217,0.415,-0.987,0.096,133.911,352.295,-318.97,
00:00:17:233,0.377,-1.042,0.124,35.095,427.429,-386.353,
00:00:17:250,0.407,-1.034,0.019,-65.735,502.99,-446.839,
00:00:17:267,0.378,-0.989,0.116,-96.619,564.148,-493.226,
00:00:17:283,0.369,-0.932,0.266,-42.481,552.124,-518.982,
00:00:17:300,0.266,-0.818,0.466,-97.84,502.502,-520.569,
00:00:17:317,0.267,-0.741,0.469,-133.118,409.118,-492.31,
00:00:17:333,0.158,-0.61,0.86,-122.925,274.597,-411.622,
00:00:17:350,0.179,-0.393,0.787,-127.625,127.624,-246.216,
00:00:17:367,0.106,-0.377,0.742,-145.264,3.112,-121.766,
00:00:17:383,0.116,-0.32,0.771,-158.814,-128.785,63.232,
00:00:17:400,0.164,-0.296,0.621,165.283,-180.359,264.221,
00:00:17:417,0.259,-1.078,0.439,259.826,-241.578,279.602,
00:00:17:433,0.164,-0.95,0.342,-291.26,-218.628,261.596,
00:00:17:450,0.221,-0.926,0.427,-258.301,-250.916,284.668,
00:00:17:467,0.338,-0.982,0.412,-214.844,-217.591,386.84,
00:00:17:483,0.28,-0.847,0.483,-365.601,-245.972,393.859,
00:00:17:500,0.409,-0.817,0.471,-218.14,-270.63,472.839,
00:00:17:517,0.651,-0.766,0.335,92.529,-306.275,604.797,
00:00:17:533,0.42,-0.883,0.425,-46.998,-346.192,507.202,
00:00:17:550,0.534,-0.812,0.33,8.972,-373.536,489.38,
00:00:17:567,0.652,-1.027,0.209,334.838,-343.873,526.001,
00:00:17:583,0.569,-1.132,0.28,203.613,-304.749,401.611,
00:00:17:600,0.634,-1.213,0.133,164.428,-192.017,268.493,
00:00:17:617,0.617,-1.198,0.022,148.132,-24.353,120.3,
00:00:17:633,0.66,-1.394,-0.058,165.344,139.953,-120.362,
00:00:17:650,0.612,-1.333,0.031,-50.11,258.85,-325.379,
00:00:17:667,0.516,-1.098,0.146,-223.084,297.119,-449.524,
00:00:17:683,0.52,-0.908,0.039,47.485,354.98,-451.966,
00:00:17:700,0.477,-1.114,-0.082,326.965,402.526,-472.229,
00:00:17:717,0.392,-1.253,0.101,165.405,430.175,-553.833,
00:00:17:733,0.455,-1.156,-0.058,-140.137,508.178,-618.164,
00:00:17:750,0.314,-0.947,0.124,-52.613,540.71,-635.498,
00:00:17:767,0.326,-0.885,0.143,-9.095,589.111,-614.441,
00:00:17:783,0.172,-0.866,0.358,-25.696,545.41,-633.179,
00:00:17:800,0.451,-0.753,0.487,-158.692,442.993,-548.768,
00:00:17:817,0.059,-0.434,0.879,-245.789,229.797,-475.831,
00:00:17:833,0.087,-0.412,0.667,-322.022,137.573,-338.501,
00:00:17:850,0.178,-0.061,0.745,-214.539,-140.381,-134.156,
00:00:17:867,0.125,-0.164,0.77,13.244,-312.134,60.119,
00:00:17:883,0.216,-0.236,0.594,405.7,-402.161,279.968,
00:00:17:900,0.249,-0.805,0.437,723.999,-468.079,369.873,
00:00:17:917,0.367,-1.282,0.39,504.821,-511.597,339.05,
00:00:17:933,-0.004,-0.646,0.557,-320.618,-444.397,251.464,
00:00:17:950,0.367,-0.744,0.398,-123.536,-426.819,328.735,
00:00:17:967,0.431,-1.042,0.333,320.922,-408.204,474.426,
00:00:17:983,0.249,-1.207,0.446,128.173,-330.445,464.538,
00:00:18:0,0.376,-0.809,0.374,-100.037,-285.401,415.161,
00:00:18:17,0.181,-1.03,0.555,-317.322,-296.326,373.169,
00:00:18:33,0.698,-0.67,0.281,103.82,-319.886,516.784,
00:00:18:50,0.494,-1.173,0.43,71.167,-338.623,385.009,
00:00:18:67,0.593,-0.866,0.274,89.172,-296.875,383.178,
00:00:18:83,0.632,-1.117,0.187,335.51,-230.286,328.674,
00:00:18:100,0.596,-1.274,0.029,165.771,-143.067,127.014,
00:00:18:117,0.573,-1.26,-0.018,-7.569,-7.935,-18.433,
00:00:18:133,0.541,-1.28,-0.038,-133.545,113.769,-182.862,
00:00:18:150,0.539,-1.144,-0.022,-175.721,180.908,-274.842,
00:00:18:167,0.489,-1.028,0.157,-165.772,213.745,-295.105,
00:00:18:183,0.46,-0.975,0.301,-70.13,262.207,-290.162,
00:00:18:200,0.477,-0.85,0.104,46.997,358.642,-319.886,
00:00:18:217,0.453,-1.062,-0.005,110.29,462.646,-444.642,grateLH
00:00:18:233,0.458,-1.178,0.06,-60.73,535.827,-534.302,
00:00:18:250,0.398,-1.109,0.055,-239.075,609.741,-588.929,
00:00:18:267,0.383,-0.741,0.129,-127.259,659.79,-523.987,
00:00:18:283,0.341,-0.875,0.276,39.245,626.281,-532.715,
00:00:18:300,0.287,-0.621,0.312,-87.464,577.697,-460.083,
00:00:18:317,0.18,-0.374,0.684,-32.959,382.873,-351.258,
00:00:18:333,0.175,-0.409,0.486,113.037,276.55,-126.221,
00:00:18:350,0.112,-0.37,0.512,75.927,205.078,21.179,
00:00:18:367,0.169,-0.4,0.618,49.316,63.293,180.786,
00:00:18:383,0.183,-0.357,0.513,-42.359,-39.978,307.861,
00:00:18:400,0.29,-0.314,0.536,134.033,-147.583,415.1,
00:00:18:417,0.367,-0.818,0.507,287.414,-271.912,415.466,
00:00:18:433,0.417,-1.326,0.345,105.774,-357.483,392.883,
00:00:18:450,0.32,-0.974,0.438,-228.638,-403.626,397.827,
00:00:18:467,0.346,-0.888,0.495,-2.564,-436.951,453.491,
00:00:18:483,0.475,-1.106,0.35,419.494,-436.768,499.755,
00:00:18:500,0.357,-1.248,0.395,339.05,-373.475,461.914,
00:00:18:517,0.5,-1.095,0.409,151.001,-296.936,368.591,
00:00:18:533,0.285,-1.014,0.416,-436.097,-229.187,213.684,
00:00:18:550,0.591,-0.713,0.351,-295.166,-209.412,226.074,
00:00:18:567,0.395,-0.803,0.362,-88.562,-166.077,263.794,
00:00:18:583,0.598,-1.329,0.094,223.327,-158.081,249.572,
00:00:18:600,0.437,-1.016,0.272,-68.177,-116.333,229.248,
00:00:18:617,0.616,-1.005,0.038,235.168,-79.285,171.63,
00:00:18:633,0.64,-1.237,-0.024,306.579,-41.81,27.221,
00:00:18:650,0.588,-1.332,-0.028,175.415,32.409,-118.164,
00:00:18:667,0.573,-1.271,0.071,5.249,121.582,-231.446,
00:00:18:683,0.494,-1.066,0.221,-122.498,190.49,-312.195,
00:00:18:700,0.421,-0.822,0.238,-99.854,250.915,-356.751,
00:00:18:717,0.461,-0.787,0.118,84.045,344.909,-365.052,
00:00:18:733,0.452,-1.129,0.078,229.614,384.277,-421.448,
00:00:18:750,0.464,-1.147,0.078,52.368,412.597,-485.657,
00:00:18:767,0.398,-1.15,0.046,-178.101,448.913,-566.651,
00:00:18:783,0.373,-0.721,0.225,-115.235,473.449,-536.133,
00:00:18:800,0.304,-0.949,0.496,37.658,432.8,-594.056,
00:00:18:817,0.354,-0.81,0.696,-222.352,401.611,-543.519,
00:00:18:833,0.16,-0.314,0.89,-258.912,243.957,-489.624,
00:00:18:850,0.177,-0.371,0.708,-304.627,114.441,-377.991,
00:00:18:867,0.156,-0.204,0.789,-362.427,-86.182,-193.909,
00:00:18:883,0.176,-0.172,0.621,32.531,-195.862,54.931,
00:00:18:900,0.337,-0.854,0.397,570.068,-330.506,201.477,
00:00:18:917,0.089,-1.189,0.392,15.075,-322.205,194.275,
00:00:18:933,0.393,-0.742,0.444,-190.186,-379.883,299.56,
00:00:18:950,0.275,-0.698,0.358,-229.798,-387.146,224.426,
00:00:18:967,0.389,-1.252,0.531,-83.374,-423.401,298.767,
00:00:18:983,0.503,-0.969,0.314,362.06,-393.189,466.064,
00:00:19:0,0.598,-1.325,0.135,62.316,-377.503,294.799,
00:00:19:17,0.415,-0.534,0.332,-395.569,-293.946,274.414,
00:00:19:33,0.706,-0.887,0.019,234.741,-244.202,241.882,
00:00:19:50,0.536,-1.256,0.007,97.9,-170.655,128.418,
00:00:19:67,0.529,-1.114,-0.009,-52.124,29.357,14.16,
00:00:19:83,0.59,-1.364,-0.055,62.683,184.021,-102.845,
00:00:19:100,0.5,-1.285,0.06,-228.394,274.963,-254.212,
00:00:19:117,0.473,-0.828,0.175,-328.492,257.385,-301.636,
00:00:19:133,0.428,-0.877,0.059,179.809,253.418,-270.02,
00:00:19:150,0.336,-1.183,0.114,128.967,324.34,-334.473,
00:00:19:167,0.364,-1.167,0.09,-34.852,409.057,-382.325,
00:00:19:183,0.385,-1.205,0.121,-85.572,491.882,-477.906,
00:00:19:200,0.5,-1.062,0.108,-138.123,556.152,-512.757,
00:00:19:217,0.384,-0.987,0.305,-17.945,556.579,-586.426,
00:00:19:233,0.337,-0.983,0.399,-147.461,545.898,-616.456,
00:00:19:250,0.225,-0.615,0.603,-210.267,497.558,-616.944,
00:00:19:267,0.05,-0.418,1.024,-277.771,265.991,-514.649,
00:00:19:283,0.174,-0.352,0.838,-244.08,204.467,-325.745,
00:00:19:300,0.114,-0.126,0.845,-268.738,62.622,-132.325,
00:00:19:317,0.073,-0.038,0.755,-156.922,-88.929,70.8,
00:00:19:333,0.154,-0.2,0.584,255.249,-204.041,300.781,
00:00:19:350,0.197,-1.003,0.508,473.205,-310.852,332.885,
00:00:19:367,0.031,-1.346,0.53,-337.464,-256.47,281.982,
00:00:19:383,0.079,-0.537,0.571,-840.76,-241.822,312.5,
00:00:19:400,0.426,-0.772,0.379,81.726,-300.599,427.002,
00:00:19:417,0.396,-1.434,0.416,255.798,-325.501,469.177,
00:00:19:433,0.205,-0.982,0.62,-336.976,-325.379,377.746,
00:00:19:450,0.483,-0.812,0.366,62.683,-301.026,421.997,
00:00:19:467,0.604,-1.279,0.21,307.678,-309.205,379.821,
00:00:19:483,0.457,-1.225,0.332,-137.024,-268.128,216.247,
00:00:19:500,0.605,-0.998,0.125,75.5,-186.036,190.063,
00:00:19:517,0.468,-1.253,0.012,222.839,-102.234,30.822,
00:00:19:533,0.508,-1.288,0.006,315.49,-28.016,-87.098,
00:00:19:550,0.368,-1.286,0.181,58.532,45.471,-189.82,
00:00:19:567,0.386,-0.991,0.183,-148.438,91.003,-243.042,
00:00:19:583,0.394,-0.925,0.209,-160.889,119.873,-274.659,
00:00:19:600,0.37,-0.884,0.234,-63.05,174.743,-272.889,
00:00:19:617,0.348,-0.829,0.175,154.663,266.845,-266.907,
00:00:19:633,0.389,-0.986,0.085,390.319,350.647,-301.758,
00:00:19:650,0.375,-1.215,0.088,285.034,401.062,-400.269,
00:00:19:667,0.361,-1.224,0.052,-48.645,466.308,-508.606,
00:00:19:683,0.247,-0.908,0.376,-96.375,460.937,-553.223,
00:00:19:700,0.36,-0.862,0.468,0.854,469.299,-519.654,
00:00:19:717,0.097,-0.781,0.621,13.732,402.832,-555.42,
00:00:19:733,0.223,-0.632,0.863,-200.257,202.453,-455.567,
00:00:19:750,0.16,-0.251,0.718,-283.875,50.781,-298.462,
00:00:19:767,0.117,-0.162,0.766,-262.696,-72.083,-133.362,
00:00:19:783,0.069,-0.209,0.817,-133.423,-168.335,87.951,
00:00:19:800,0.241,-0.9,0.483,471.74,-252.198,353.393,
00:00:19:817,0.225,-1.396,0.372,26.916,-291.748,300.781,
00:00:19:833,0.167,-0.641,0.455,-622.681,-271.607,345.581,
00:00:19:850,0.246,-0.403,0.49,-384.583,-320.618,337.28,
00:00:19:867,0.415,-1.125,0.403,192.26,-352.173,400.329,
00:00:19:883,0.203,-1.023,0.534,-71.045,-294.983,447.754,
00:00:19:900,0.414,-0.956,0.376,-81.543,-277.588,400.207,
00:00:19:917,0.285,-1.02,0.362,-192.994,-250.184,368.835,
00:00:19:933,0.54,-0.927,0.247,-10.132,-237.366,409.118,
00:00:19:950,0.323,-1.196,0.357,-74.097,-237.488,292.48,
00:00:19:967,0.609,-0.975,0.219,108.52,-248.658,317.81,
00:00:19:983,0.353,-1.076,0.253,238.342,-199.524,218.811,
00:00:20:0,0.563,-1.242,0.06,591.858,-157.715,144.958,
00:00:20:17,0.404,-1.427,0.074,310.18,-56.641,-40.039,
00:00:20:33,0.473,-1.203,0.093,68.542,57.739,-174.622,
00:00:20:50,0.429,-1.15,0.166,-122.01,132.812,-276.307,
00:00:20:67,0.416,-0.953,0.276,-233.277,188.049,-308.228,
00:00:20:83,0.39,-0.86,0.268,-68.421,280.883,-325.806,
00:00:20:100,0.412,-0.886,0.239,179.138,370.422,-344.422,
00:00:20:117,0.416,-1.034,0.137,221.069,452.758,-414.734,
00:00:20:133,0.387,-1.164,0.108,82.763,469.482,-499.817,
00:00:20:150,0.456,-1.104,0.233,-142.518,446.655,-544.068,
00:00:20:167,0.229,-0.674,0.365,-108.521,476.074,-503.846,
00:00:20:183,0.437,-0.602,0.703,-25.574,177.49,-278.626,
00:00:20:200,0.09,-0.36,0.748,-217.835,41.503,-113.038,
00:00:20:217,0.172,-0.057,0.77,8.239,-65.308,70.129,
00:00:20:233,0.116,-0.383,0.644,233.459,-117.432,203.796,
00:00:20:250,0.201,-0.558,0.497,458.313,-147.461,317.199,
00:00:20:267,0.207,-1.148,0.325,239.135,-190.003,275.451,
00:00:20:283,0.175,-1.043,0.403,-127.015,-276.917,259.277,
00:00:20:300,0.195,-0.792,0.502,-0.245,-277.527,316.223,
00:00:20:317,0.207,-0.995,0.469,146.606,-296.265,327.087,
00:00:20:333,0.27,-0.89,0.502,39.733,-316.468,337.463,
00:00:20:350,0.303,-0.872,0.584,-170.594,-355.652,363.342,
00:00:20:367,0.473,-0.623,0.593,-287.11,-393.86,402.099,
00:00:20:383,0.437,-0.659,0.51,-28.809,-419.312,482.971,
00:00:20:400,0.551,-0.965,0.365,309.753,-377.747,559.204,
00:00:20:417,0.406,-0.911,0.499,73.547,-279.969,494.201,
00:00:20:433,0.648,-1.173,0.104,332.275,-148.926,372.009,
00:00:20:450,0.458,-1.443,0.191,146.911,-41.199,159.179,
00:00:20:467,0.521,-1.179,0.073,-180.848,269.348,-337.525,
00:00:20:483,0.394,-1.014,0.161,-306.58,297.79,-380.188,
00:00:20:500,0.385,-0.876,0.109,-122.01,348.571,-334.046,
00:00:20:517,0.404,-1.036,0.051,141.357,396.484,-342.469,
00:00:20:533,0.451,-1.16,0.035,29.174,441.589,-425.904,
00:00:20:550,0.347,-1.106,0.022,-102.601,475.952,-536.316,
00:00:20:567,0.274,-0.952,0.471,-17.09,473.877,-578.186,
00:00:20:583,0.282,-0.809,0.727,20.08,404.663,-542.969,
00:00:20:600,0.428,-0.866,0.693,-91.187,275.634,-512.696,
00:00:20:617,0.096,-0.244,0.931,-319.031,48.095,-438.538,
00:00:20:633,0.255,-0.167,0.585,-135.254,1.464,-270.874,
00:00:20:650,0.149,-0.284,0.812,27.221,-102.417,-117.371,
00:00:20:667,0.09,-0.424,0.766,20.629,-103.028,54.26,
00:00:20:683,0.342,-1.18,0.524,262.512,-140.748,214.904,
00:00:20:700,0.386,-0.493,0.435,-699.769,-197.815,209.655,
00:00:20:717,0.293,-0.916,0.325,96.496,-294.678,532.592,
00:00:20:733,0.33,-0.891,0.314,51.757,-274.414,528.32,
00:00:20:750,0.387,-0.904,0.438,-251.526,-287.415,495.361,
00:00:20:767,0.736,-0.854,0.207,77.514,-270.447,494.873,
00:00:20:783,0.494,-1.387,0.088,143.432,-234.864,292.236,
00:00:20:800,0.423,-1.007,0.131,137.451,-147.889,245.178,
00:00:20:817,0.583,-1.276,-0.013,665.161,-98.572,139.221,
00:00:20:833,0.48,-1.408,0.125,664.856,0.671,-3.602,
00:00:20:850,0.374,-1.545,0.128,29.602,116.027,-232.239,
00:00:20:867,0.41,-1.151,0.207,-410.584,155.273,-319.825,
00:00:20:883,0.422,-0.921,0.236,-247.681,163.452,-323.365,
00:00:20:900,0.4,-0.848,0.15,117.981,217.407,-311.524,
00:00:20:917,0.388,-1.243,0.053,353.21,412.414,-422.547,
00:00:20:933,0.324,-1.272,0.097,44.982,468.2,-554.505,
00:00:20:950,0.435,-0.973,0.098,-153.565,485.29,-558.594,
00:00:20:967,0.353,-0.815,0.265,33.081,457.153,-579.956,
00:00:20:983,0.337,-0.846,0.247,145.568,454.773,-537.11,
00:00:21:0,0.103,-0.657,0.43,58.349,358.825,-498.475,
00:00:21:17,0.07,-0.445,1.037,-106.019,119.384,-377.747,
00:00:21:33,0.185,-0.22,0.71,-239.197,28.015,-205.445,
00:00:21:50,0.199,-0.091,0.826,-248.719,-109.681,-37.11,
00:00:21:67,0.179,-0.077,0.863,-80.201,-213.318,205.749,
00:00:21:83,0.3,-0.229,0.681,496.765,-253.968,447.204,
00:00:21:100,0.335,-0.954,0.55,724.853,-347.718,462.829,
00:00:21:117,0.321,-1.292,0.5,-113.404,-378.602,421.692,
00:00:21:133,0.326,-0.271,0.656,-511.292,-374.39,435.485,
00:00:21:150,0.529,-0.985,0.379,32.653,-417.542,413.269,
00:00:21:167,0.174,-0.627,0.634,-272.706,-362.427,520.63,
00:00:21:183,0.454,-0.988,0.535,82.214,-341.797,600.708,
00:00:21:200,0.451,-0.98,0.461,-43.641,-346.253,652.282,
00:00:21:217,0.641,-1.033,0.242,196.045,-357.239,648.803,
00:00:21:233,0.48,-0.879,0.308,82.458,-328.919,614.135,
00:00:21:250,0.652,-1.159,0.21,441.284,-352.234,494.445,
00:00:21:267,0.484,-1.04,0.283,379.699,-299.561,408.203,
00:00:21:283,0.651,-1.281,0.009,609.069,-212.342,212.707,
00:00:21:300,0.539,-1.547,0.013,243.835,-66.346,-20.081,
00:00:21:317,0.557,-1.324,-0.084,-51.941,115.112,-204.468,
00:00:21:333,0.477,-1.335,-0.077,-305.726,227.295,-351.319,
00:00:21:350,0.412,-0.739,0.082,-215.516,349.792,-325.44,
00:00:21:367,0.453,-1.071,0.042,-48.157,432.373,-376.709,
00:00:21:383,0.446,-1.034,0.083,-88.868,499.694,-424.988,
00:00:21:400,0.592,-1.025,0.063,-56.58,509.033,-497.437,
00:00:21:417,0.446,-0.947,0.1,-24.476,559.936,-537.476,
00:00:21:433,0.432,-0.894,0.287,54.931,517.883,-567.994,
00:00:21:450,0.351,-0.829,0.411,20.874,512.756,-542.054,
00:00:21:467,0.443,-0.75,0.521,6.591,378.54,-511.963,
00:00:21:483,0.259,-0.429,0.662,-97.229,162.353,-348.084,
00:00:21:500,-0.005,-0.354,0.955,-1.404,-23.926,-182.984,
00:00:21:517,0.117,-0.462,0.718,80.871,-111.878,84.533,
00:00:21:533,0.106,-0.347,0.544,274.536,-191.346,293.823,
00:00:21:550,0.197,-0.604,0.494,482.422,-330.262,347.046,
00:00:21:567,0.213,-1.077,0.686,263.427,-400.452,217.163,
00:00:21:583,0.23,-1.05,0.464,-379.09,-434.205,107.116,
00:00:21:600,0.349,-0.851,0.332,-124.207,-437.195,180.786,
00:00:21:617,0.313,-0.875,0.12,49.316,-397.767,258.667,
00:00:21:633,0.227,-0.972,0.358,217.163,-460.206,348.693,
00:00:21:650,0.277,-0.85,0.507,104.858,-445.557,423.034,
00:00:21:667,0.336,-1.044,0.33,-42.054,-414.307,396.667,
00:00:21:683,0.485,-0.689,0.237,-24.72,-372.681,372.436,
00:00:21:700,0.347,-1.104,0.276,50.903,-325.257,239.929,
00:00:21:717,0.494,-0.87,0.227,183.899,-296.448,259.094,
00:00:21:733,0.487,-1.137,0.118,456.665,-190.003,236.755,
00:00:21:750,0.55,-1.344,0.022,353.271,-133.851,131.958,
00:00:21:767,0.487,-1.198,0.135,143.371,-58.655,28.93,
00:00:21:783,0.48,-1.135,0.062,37.719,0.915,-135.01,
00:00:21:800,0.467,-1.215,-0.015,-24.17,96.435,-273.865,
00:00:21:817,0.445,-1.086,0.042,-76.844,218.811,-359.192,
00:00:21:833,0.471,-1.079,0.051,-75.562,312.439,-401.917,
00:00:21:850,0.37,-1.075,0.067,-4.883,461.975,-413.331,
00:00:21:867,0.434,-0.912,0.17,-46.326,489.135,-419.8,
00:00:21:883,0.377,-0.871,0.287,-24.476,472.412,-437.195,
00:00:21:900,0.281,-0.813,0.265,-116.822,480.041,-421.021,
00:00:21:917,0.294,-0.707,0.437,-102.173,362.426,-411.622,
00:00:21:933,0.039,-0.705,0.723,-160.279,271.545,-368.226,
00:00:21:950,0.051,-0.37,0.75,-184.327,105.59,-204.712,
00:00:21:967,0.096,-0.496,0.653,-153.504,-31.556,-64.087,
00:00:21:983,0.059,-0.465,0.686,-164.246,-125.489,112.121,
00:00:22:0,0.102,-0.608,0.473,-35.462,-213.501,164.978,
00:00:22:17,0.061,-1.12,0.407,-15.198,-238.831,166.626,
00:00:22:33,0.171,-0.871,0.404,-93.75,-257.935,217.224,
00:00:22:50,0.132,-1.065,0.465,-179.81,-267.212,262.39,
00:00:22:67,0.195,-0.732,0.521,-284.058,-311.768,332.275,
00:00:22:83,0.279,-0.834,0.453,-103.211,-346.985,486.084,
00:00:22:100,0.421,-0.592,0.415,40.527,-398.499,584.106,
00:00:22:117,0.327,-0.867,0.565,82.092,-411.133,598.144,
00:00:22:133,0.543,-0.791,0.351,128.601,-362.122,629.333,
00:00:22:150,0.679,-1.043,0.275,236.145,-356.019,558.227,
00:00:22:167,0.644,-1.239,0.188,143.798,-258.118,363.22,
00:00:22:183,0.649,-1.194,0.15,57.922,-123.902,171.569,
00:00:22:200,0.693,-1.319,0.007,315.796,-9.339,12.695,
00:00:22:217,0.598,-1.413,0.007,290.161,120.605,-191.224,grateLH
00:00:22:233,0.491,-1.267,0.12,-55.359,212.89,-353.638,
00:00:22:250,0.43,-0.858,0.108,-203.919,231.933,-367.31,
00:00:22:267,0.425,-0.788,0.022,4.516,242.797,-337.891,
00:00:22:283,0.419,-1.044,0.04,136.352,244.995,-342.469,
00:00:22:300,0.369,-1.05,0.086,18.493,307.922,-343.628,
00:00:22:317,0.338,-1.056,0.117,-79.163,360.901,-413.025,
00:00:22:333,0.344,-0.916,0.151,-71.961,395.08,-429.017,
00:00:22:350,0.29,-0.889,0.2,41.137,417.297,-446.656,
00:00:22:367,0.313,-0.927,0.367,19.165,418.029,-466.37,
00:00:22:383,0.294,-0.801,0.433,-62.745,433.471,-429.627,
00:00:22:400,0.187,-0.75,0.548,-151.062,343.078,-425.66,
00:00:22:417,0.06,-0.359,0.639,-321.839,224.975,-338.013,
00:00:22:433,0.099,-0.351,0.676,-134.888,71.35,-183.899,
00:00:22:450,0.073,-0.449,0.757,-70.862,-65.125,24.047,
00:00:22:467,0.139,-0.46,0.57,141.357,-136.17,230.59,
00:00:22:483,0.218,-0.997,0.419,362.671,-198.914,290.283,
00:00:22:500,0.165,-0.99,0.407,22.644,-243.164,309.57,
00:00:22:517,0.212,-0.74,0.418,-172.608,-275.086,315.002,
00:00:22:533,0.245,-0.809,0.404,-250.855,-325.013,349.365,
00:00:22:550,0.22,-0.579,0.398,-148.743,-309.021,449.34,
00:00:22:567,0.377,-1.061,0.31,271.606,-326.661,528.32,
00:00:22:583,0.376,-0.984,0.401,115.844,-330.506,544.555,
00:00:22:600,0.55,-1.111,0.233,251.77,-339.051,484.13,
00:00:22:617,0.5,-1.099,0.416,110.29,-353.333,417.602,
00:00:22:633,0.667,-1.067,0.204,277.221,-334.961,299.011,
00:00:22:650,0.593,-1.343,0.204,305.603,-279.602,141.357,
00:00:22:667,0.607,-1.205,0.122,196.838,-160.035,-19.043,
00:00:22:683,0.562,-1.271,0.012,93.2,-19.776,-167.908,
00:00:22:700,0.483,-0.942,0.263,-11.17,278.015,-266.48,
00:00:22:717,0.444,-0.828,0.139,183.288,350.952,-313.721,
00:00:22:733,0.51,-1.096,0.023,312.194,411.377,-422.669,
00:00:22:750,0.318,-1.165,0.084,80.261,489.38,-536.56,
00:00:22:767,0.282,-1.146,0.224,-95.398,526.428,-638.245,
00:00:22:783,0.226,-0.948,0.337,-265.748,561.889,-633.728,
00:00:22:800,0.245,-0.724,0.421,-162.415,534.423,-610.108,
00:00:22:817,0.079,-0.679,0.53,-200.623,408.508,-573.853,
00:00:22:833,0.125,-0.384,0.585,-259.583,264.77,-439.881,
00:00:22:850,-0.051,-0.434,0.864,-259.522,56.64,-279.419,
00:00:22:867,0.078,-0.293,0.73,-207.154,-75.989,3.723,
00:00:22:883,0.099,-0.472,0.53,49.926,-156.434,164.795,
00:00:22:900,0.128,-0.828,0.413,200.439,-232.3,225.036,
00:00:22:917,0.175,-0.889,0.313,-26.062,-264.1,233.642,
00:00:22:933,0.211,-0.958,0.305,-240.906,-295.594,240.905,
00:00:22:950,0.107,-0.781,0.567,-546.998,-321.839,282.714,
00:00:22:967,0.351,-0.678,0.342,-136.109,-358.765,438.049,
00:00:22:983,0.344,-0.897,0.455,369.384,-427.369,583.618,
00:00:23:0,0.458,-1.059,0.399,380.676,-474.06,578.186,
00:00:23:17,0.319,-0.848,0.412,95.459,-436.28,484.924,
00:00:23:33,0.365,-0.989,0.242,25.268,-379.273,368.042,
00:00:23:50,0.485,-1.343,0.181,32.287,-326.722,290.039,
00:00:23:67,0.567,-1.016,0.147,168.09,-208.985,257.995,
00:00:23:83,0.534,-1.404,0.013,350.586,-39.185,126.159,
00:00:23:100,0.429,-1.014,0.125,-287.049,250.61,-333.374,
00:00:23:117,0.377,-0.881,0.191,-212.708,290.771,-333.497,
00:00:23:133,0.433,-0.93,0.089,22.583,382.019,-283.081,
00:00:23:150,0.403,-1.135,0.108,153.625,474.975,-304.261,
00:00:23:167,0.423,-1.108,0.042,44.86,569.885,-392.09,
00:00:23:183,0.36,-1.152,0.048,-34.668,646.789,-530.213,
00:00:23:200,0.284,-1.054,0.139,-100.769,661.193,-553.467,
00:00:23:217,0.337,-0.889,0.315,25.817,668.09,-513.428,
00:00:23:233,0.148,-1.163,0.526,-117.066,607.971,-562.684,
00:00:23:250,0.327,-0.565,0.671,-446.595,536.865,-475.892,
00:00:23:267,-0.047,-0.305,0.968,-617.676,274.17,-531.25,
00:00:23:283,0.088,0.054,0.752,-728.028,147.461,-281.8,
00:00:23:300,0.133,0.015,0.812,-346.253,-102.723,-33.753,
00:00:23:317,0.133,-0.162,0.687,109.069,-206.665,298.584,
00:00:23:333,0.271,-0.636,0.569,694.03,-329.529,492.248,
00:00:23:350,0.158,-1.318,0.359,415.161,-360.779,416.748,
00:00:23:367,0.296,-0.918,0.26,-135.315,-368.714,389.526,
00:00:23:383,0.13,-0.824,0.516,-548.34,-382.447,289.856,
00:00:23:400,0.438,-0.579,0.395,-193.482,-405.945,420.166,
00:00:23:417,0.309,-1.114,0.477,172.485,-388.916,531.372,
00:00:23:433,0.335,-0.694,0.433,96.313,-322.815,592.163,
00:00:23:450,0.446,-1.146,0.252,210.693,-290.467,524.658,
00:00:23:467,0.395,-0.86,0.429,-58.655,-282.227,515.197,
00:00:23:483,0.582,-1.077,0.287,65.368,-287.476,405.212,
00:00:23:500,0.483,-0.964,0.352,-23.011,-226.807,307.006,
00:00:23:517,0.514,-1.14,0.251,136.535,-152.649,212.646,
00:00:23:533,0.559,-1.158,0.21,224.426,-73.304,135.925,
00:00:23:550,0.509,-1.162,0.052,121.032,-6.897,7.873,
00:00:23:567,0.511,-1.186,0.016,213.256,55.358,-51.087,
00:00:23:583,0.527,-1.424,0.151,131.347,161.255,-124.573,
00:00:23:600,0.48,-1.312,0.273,-147.767,252.319,-214.722,
00:00:23:617,0.457,-0.952,0.307,-78.736,305.053,-288.697,
00:00:23:633,0.378,-0.892,0.212,155.029,366.821,-365.235,
00:00:23:650,0.402,-1.069,0.041,411.865,416.626,-425.415,
00:00:23:667,0.344,-1.257,0.061,354.675,458.984,-504.09,
00:00:23:683,0.316,-1.342,0.095,116.272,496.887,-600.342,
00:00:23:700,0.187,-0.943,0.247,-136.658,523.925,-615.845,
00:00:23:717,0.242,-0.714,0.372,-85.999,492.187,-615.357,
00:00:23:733,0.167,-0.351,0.881,-175.293,62.805,-273.804,
00:00:23:750,0.107,-0.052,0.796,-244.873,-46.753,-110.779,
00:00:23:767,0.118,-0.156,0.682,-241.761,-184.693,73.974,
00:00:23:783,0.265,-0.375,0.572,324.951,-285.096,304.87,
00:00:23:800,0.22,-1.307,0.396,185.302,-306.641,305.847,
00:00:23:817,0.343,-0.81,0.437,-150.208,-347.779,394.897,
00:00:23:833,0.356,-1.043,0.455,-168.03,-393.799,334.289,
00:00:23:850,0.454,-0.71,0.269,6.286,-391.053,373.535,
00:00:23:867,0.419,-1.36,0.202,306.213,-380.31,330.383,
00:00:23:883,0.107,-0.898,0.488,-425.049,-327.393,327.88,
00:00:23:900,0.329,-0.632,0.418,12.695,-286.744,438.72,
00:00:23:917,0.463,-1.189,0.212,313.354,-301.27,459.838,
00:00:23:933,0.575,-0.555,0.241,74.768,-261.475,434.57,
00:00:23:950,0.538,-1.501,0.156,312.072,-278.382,256.164,
00:00:23:967,0.482,-0.992,0.103,-62.806,-198.609,241.027,
00:00:23:983,0.559,-1.28,-0.04,505.859,-95.643,157.47,
00:00:24:0,0.543,-1.477,0.025,797.973,46.142,53.527,
00:00:24:17,0.42,-1.61,0.186,297.79,183.593,-243.714,
00:00:24:33,0.345,-0.852,0.083,-170.044,286.987,-467.774,
00:00:24:50,0.431,-1.081,-0.052,132.873,346.374,-484.375,
00:00:24:67,0.258,-1.249,0.054,48.4,431.945,-536.316,
00:00:24:83,0.302,-1.104,0.015,-139.588,515.93,-583.985,
00:00:24:100,0.293,-0.938,0.09,-202.82,588.134,-597.596,
00:00:24:117,0.216,-0.78,0.36,-132.813,593.139,-584.107,
00:00:24:133,0.22,-0.734,0.4,-110.962,578.552,-571.839,
00:00:24:150,0.122,-0.624,0.604,-249.573,497.131,-509.827,
00:00:24:167,0.21,-0.508,1.007,-290.772,297.79,-319.092,
00:00:24:183,0.226,-0.235,0.857,-344.727,162.231,-82.154,
00:00:24:200,0.279,-0.072,0.723,-243.042,0,23.193,
00:00:24:217,0.237,-0.18,0.6,-63.477,-146.973,97.29,
00:00:24:233,0.373,-0.804,0.325,209.716,-201.966,163.696,
00:00:24:250,0.182,-0.975,0.321,-93.262,-190.125,215.393,
00:00:24:267,0.362,-0.862,0.337,-176.758,-236.695,294.799,
00:00:24:283,0.312,-0.88,0.527,-429.688,-266.968,319.397,
00:00:24:300,0.353,-0.465,0.62,-329.346,-282.166,482.055,
00:00:24:317,0.371,-0.604,0.505,66.345,-352.173,502.075,
00:00:24:333,0.544,-0.943,0.322,287.719,-402.1,593.261,
00:00:24:350,0.301,-0.814,0.304,24.78,-324.036,486.816,
00:00:24:367,0.63,-1.257,0.192,270.263,-342.957,398.498,
00:00:24:383,0.491,-1.098,0.086,227.844,-273.011,416.504,
00:00:24:400,0.57,-1.332,0.008,458.74,-210.694,247.375,
00:00:24:417,0.468,-1.416,0.023,410.278,-87.464,119.262,
00:00:24:433,0.474,-1.498,-0.016,236.511,71.167,-93.567,
00:00:24:450,0.433,-1.382,0.068,-158.326,159.484,-280.823,
00:00:24:467,0.381,-0.958,0.097,-325.44,189.392,-318.116,
00:00:24:483,0.33,-0.832,0.08,-6.226,250.061,-326.294,
00:00:24:500,0.328,-1.079,0.117,242.92,320.251,-333.619,
00:00:24:517,0.414,-1.158,0.116,142.212,386.84,-380.677,
00:00:24:533,0.32,-1.145,0.152,-47.791,434.936,-495.423,
00:00:24:550,0.324,-0.936,0.2,-113.526,459.594,-522.034,
00:00:24:567,0.344,-0.761,0.416,66.406,460.937,-485.047,
00:00:24:583,0.334,-0.86,0.516,105.468,462.829,-476.258,
00:00:24:600,0.271,-0.733,0.617,-23.011,399.353,-430.237,
00:00:24:617,0.3,-0.492,0.582,-172.364,235.168,-370.484,
00:00:24:633,0.193,-0.349,0.782,-237.671,65.185,-277.222,
00:00:24:650,0.232,-0.162,0.785,-215.882,-83.313,-75.623,
00:00:24:667,0.145,-0.099,0.685,37.963,-166.138,133.361,
00:00:24:683,0.273,-0.491,0.527,623.596,-234.131,344.909,
00:00:24:700,0.205,-0.999,0.366,548.462,-253.54,418.396,
00:00:24:717,0.247,-0.941,0.292,174.438,-245.118,455.139,
00:00:24:733,0.327,-0.97,0.353,-154.053,-241.7,361.755,
00:00:24:750,0.195,-0.982,0.45,-593.75,-220.52,269.531,
00:00:24:767,0.709,-0.957,0.199,66.833,-292.054,432.129,
00:00:24:783,0.224,-1.152,0.316,124.45,-235.291,361.694,
00:00:24:800,0.555,-1.129,0.156,250.366,-247.315,364.685,
00:00:24:817,0.333,-1.275,0.152,83.801,-227.601,245.544,
00:00:24:833,0.486,-1.026,0.095,25.268,-137.94,198.974,
00:00:24:850,0.527,-1.389,0.11,-11.292,-97.107,19.104,
00:00:24:867,0.488,-1.109,0.217,-235.84,-45.227,-40.101,
00:00:24:883,0.484,-0.966,0.128,-72.571,-22.767,-100.647,
00:00:24:900,0.474,-0.999,0.051,69.58,-16.114,-117.798,
00:00:24:917,0.494,-0.988,0.077,243.896,20.69,-108.46,
00:00:24:933,0.479,-1.096,0.229,213.317,121.46,-163.697,
00:00:24:950,0.426,-1.119,0.287,-67.933,217.285,-264.527,
00:00:24:967,0.394,-0.925,0.137,-158.143,314.392,-337.464,
00:00:24:983,0.503,-1.027,0.036,128.54,382.263,-404.175,
00:00:25:0,0.366,-1.152,0.028,94.787,432.129,-468.018,
00:00:25:17,0.394,-1.103,0.039,22.094,453.613,-527.71,
00:00:25:33,0.237,-1.105,0.228,-137.024,450.5,-605.164,
00:00:25:50,0.286,-0.625,0.287,-99.305,448.669,-537.72,
00:00:25:67,0.223,-0.77,0.602,-38.758,344.299,-582.337,
00:00:25:83,0.254,-0.558,0.631,-272.644,338.256,-422.364,
00:00:25:100,0.15,-0.246,0.836,-218.018,164.917,-275.818,
00:00:25:117,0.174,-0.303,0.712,-11.719,113.525,-56.641,
00:00:25:133,0.182,-0.352,0.75,23.742,30.578,89.599,
00:00:25:150,0.222,-0.512,0.512,66.711,30.456,144.836,
00:00:25:167,0.335,-1.085,0.317,-49.012,4.577,53.222,
00:00:25:183,0.212,-0.918,0.398,-561.097,-5.921,82.763,
00:00:25:200,0.248,-1.012,0.399,-165.589,-72.693,275.94,
00:00:25:217,0.37,-0.886,0.502,-275.452,-155.823,383.422,
00:00:25:233,0.266,-0.403,0.476,-208.985,-218.262,446.35,
00:00:25:250,0.508,-1.083,0.407,129.882,-379.029,394.104,
00:00:25:267,0.414,-0.716,0.372,1.586,-400.208,481.628,
00:00:25:283,0.071,-0.789,0.643,-189.148,-367.554,407.837,
00:00:25:300,0.773,-1.206,0.271,319.152,-431.031,497.009,
00:00:25:317,0.496,-1.073,0.069,143.554,-336.243,516.967,
00:00:25:333,0.471,-0.937,0.034,462.341,-221.802,427.49,
00:00:25:350,0.603,-1.481,0.036,748.169,-151.49,225.036,
00:00:25:367,0.554,-1.557,-0.012,456.543,-18.921,-38.819,
00:00:25:383,0.461,-1.62,-0.007,12.39,115.051,-320.496,
00:00:25:400,0.441,-1.206,0.009,-304.444,157.409,-390.381,
00:00:25:417,0.346,-0.863,0.07,-112,185.18,-348.694,
00:00:25:433,0.354,-0.892,-0.026,272.827,292.968,-307.373,
00:00:25:450,0.339,-1.231,0.078,322.815,361.389,-393.799,
00:00:25:467,0.312,-1.199,0.062,-29.847,449.34,-469.727,
00:00:25:483,0.292,-1.064,-0.036,-128.357,488.891,-527.039,
00:00:25:500,0.19,-0.874,0.242,-59.327,431.701,-535.157,
00:00:25:517,0.301,-0.765,0.399,7.568,387.817,-480.774,
00:00:25:533,0.259,-0.708,0.513,14.465,372.253,-477.539,
00:00:25:550,0.43,-0.839,0.78,-89.966,259.887,-461.548,
00:00:25:567,0.204,-0.279,0.832,-332.886,103.515,-307.984,
00:00:25:583,0.262,-0.317,0.556,-314.454,6.958,-232.666,
00:00:25:600,0.26,-0.232,0.745,-351.99,-183.777,-7.447,
00:00:25:617,0.201,-0.124,0.599,80.993,-234.559,257.507,
00:00:25:633,0.27,-0.851,0.446,597.168,-263.672,311.401,
00:00:25:650,0.233,-1.282,0.334,100.769,-275.086,240.051,
00:00:25:667,0.194,-0.722,0.416,-469.056,-279.48,196.289,
00:00:25:683,0.259,-0.743,0.388,-350.159,-338.013,162.353,
00:00:25:700,0.338,-0.954,0.369,25.207,-355.347,333.984,
00:00:25:717,0.205,-0.894,0.501,-56.153,-289.49,406.677,
00:00:25:733,0.373,-0.772,0.468,-184.815,-259.522,427.063,
00:00:25:750,0.451,-0.712,0.428,-88.074,-317.627,439.148,
00:00:25:767,0.272,-0.599,0.371,86.975,-319.336,468.505,
00:00:25:783,0.309,-1.199,0.434,214.843,-360.047,497.802,
00:00:25:800,0.579,-0.899,0.296,246.887,-337.464,549.987,
00:00:25:817,0.656,-1.222,0.01,548.706,-239.991,443.603,
00:00:25:833,0.453,-1.297,0.143,382.629,-79.956,259.277,
00:00:25:850,0.602,-1.412,-0.083,301.269,65.918,-60.608,
00:00:25:867,0.533,-1.624,-0.153,73.852,180.114,-304.749,
00:00:25:883,0.437,-1.272,0.011,-134.583,225.952,-382.813,
00:00:25:900,0.361,-0.986,0.174,-91.004,266.052,-368.653,
00:00:25:917,0.369,-0.879,0.073,115.356,378.784,-322.327,
00:00:25:933,0.339,-1.162,0.027,112.365,426.33,-402.832,
00:00:25:950,0.374,-1.173,0.189,-203.431,466.308,-500.367,
00:00:25:967,0.306,-1.031,0.04,-411.133,508.117,-563.05,
00:00:25:983,0.368,-0.896,0.07,-176.575,490.966,-553.956,
00:00:26:0,0.218,-0.819,0.358,-23.743,459.838,-533.02,
00:00:26:17,0.4,-0.761,0.461,4.394,386.84,-519.227,
00:00:26:33,0.217,-0.757,0.576,-146.485,344.726,-539.612,
00:00:26:50,0.341,-0.597,0.791,-219.239,241.638,-481.324,
00:00:26:67,0.147,-0.157,0.923,-331.36,41.442,-300.721,
00:00:26:83,0.252,-0.162,0.64,-105.53,-72.327,-73.365,
00:00:26:100,0.129,-0.235,0.56,59.448,-173.462,160.888,
00:00:26:117,0.264,-0.522,0.379,518.249,-213.99,347.229,
00:00:26:133,0.34,-0.927,0.342,159.362,-264.466,360.29,
00:00:26:150,0.159,-1.036,0.622,-472.84,-260.804,293.213,
00:00:26:167,0.469,-0.62,0.359,-398.316,-283.936,365.539,
00:00:26:183,0.611,-0.957,0.247,173.401,-360.535,555.725,
00:00:26:200,0.416,-1.105,0.251,182.129,-364.93,544.922,
00:00:26:217,0.344,-0.995,0.238,174.438,-331.116,463.073,
00:00:26:233,0.466,-1.378,0.247,181.945,-306.641,327.27,grateLH
00:00:26:250,0.461,-0.953,0.136,46.63,-195.801,228.393,
00:00:26:267,0.478,-1.5,-0.017,221.557,-104.798,-27.588,
00:00:26:283,0.498,-1.258,-0.083,113.769,27.099,-111.573,
00:00:26:300,0.457,-1.358,-0.019,166.076,112.487,-245.728,
00:00:26:317,0.373,-1.103,0.138,-15.931,151.428,-247.315,
00:00:26:333,0.356,-1.146,0.038,66.894,311.645,-386.841,
00:00:26:350,0.312,-1.102,0.043,-16.114,390.136,-425.843,
00:00:26:367,0.348,-1.011,0.122,144.47,471.862,-438.599,
00:00:26:383,0.464,-1.182,0.214,64.819,516.113,-486.268,
00:00:26:400,0.279,-0.834,0.357,-7.813,591.125,-464.356,
00:00:26:417,0.326,-0.846,0.494,163.94,591.064,-466.309,
00:00:26:433,0.242,-0.698,0.426,-101.136,540.222,-463.807,
00:00:26:450,0.075,-0.219,0.927,-326.416,327.88,-375,
00:00:26:467,0.291,-0.298,0.506,-71.534,222.961,-143.25,
00:00:26:483,0.267,-0.422,0.808,-125.184,26.977,25.024,
00:00:26:500,0.124,-0.316,0.602,-277.649,-14.649,191.04,
00:00:26:517,0.269,-0.625,0.41,33.264,-120.606,253.173,
00:00:26:533,0.258,-1.139,0.352,-293.519,-250.672,247.741,
00:00:26:550,0.215,-0.54,0.571,-593.506,-312.623,382.934,
00:00:26:567,0.269,-0.542,0.377,-118.958,-347.596,434.448,
00:00:26:583,0.545,-1.374,0.471,303.1,-506.104,554.565,
00:00:26:600,0.294,-0.466,0.57,-290.528,-467.469,634.338,
00:00:26:617,0.623,-0.591,0.252,546.264,-493.409,774.414,
00:00:26:633,0.346,-0.817,0.374,206.359,-490.601,586.181,
00:00:26:650,0.498,-1.235,0.225,259.399,-452.759,426.513,
00:00:26:667,0.523,-1.25,0.091,383.239,-340.027,379.455,
00:00:26:683,0.774,-1.368,-0.194,900.451,-184.021,284.179,
00:00:26:700,0.568,-1.802,-0.203,732.91,-9.4,-20.02,
00:00:26:717,0.602,-1.61,-0.142,174.377,111.511,-242.676,
00:00:26:733,0.473,-1.264,-0.031,-289.002,164.795,-437.012,
00:00:26:750,0.45,-0.893,-0.018,-156.922,218.444,-473.938,
00:00:26:767,0.369,-1.023,-0.125,115.661,266.357,-487.183,
00:00:26:783,0.255,-1.215,-0.006,18.981,370.605,-496.521,
00:00:26:800,0.326,-1.06,0.05,-89.539,469.848,-500.733,
00:00:26:817,0.395,-1.038,0.09,-167.481,512.695,-502.32,
00:00:26:833,0.41,-0.915,0.253,-126.77,507.507,-544.129,
00:00:26:850,0.285,-0.848,0.359,-179.261,498.169,-570.618,
00:00:26:867,0.36,-0.792,0.638,-82.459,446.96,-561.524,
00:00:26:883,0.105,-0.584,0.485,-267.884,441.894,-510.743,
00:00:26:900,0.121,-0.504,0.861,-461.731,197.265,-425.599,
00:00:26:917,0.272,0.03,0.737,-280.457,75.561,-103.211,
00:00:26:933,0.277,-0.433,0.635,-74.341,-66.163,63.049,
00:00:26:950,0.269,-0.336,0.397,155.212,-101.563,264.587,
00:00:26:967,0.28,-0.959,0.394,248.047,-167.725,238.464,
00:00:26:983,0.156,-0.723,0.516,-241.883,-184.51,270.019,
00:00:27:0,0.272,-0.685,0.396,-182.984,-191.529,272.888,
00:00:27:17,0.312,-1.02,0.457,-362.671,-251.282,331.665,
00:00:27:33,0.414,-0.444,0.225,-105.652,-262.207,519.958,
00:00:27:50,0.333,-1.174,0.391,222.412,-364.991,530.09,
00:00:27:67,0.418,-0.653,0.282,29.357,-430.054,618.103,
00:00:27:83,0.328,-0.998,0.228,329.651,-440.735,575.622,
00:00:27:100,0.319,-1.05,0.375,160.095,-418.213,508.117,
00:00:27:117,0.667,-1.447,0.104,194.336,-359.742,364.441,
00:00:27:133,0.545,-1.054,0.015,108.52,-200.196,314.941,
00:00:27:150,0.481,-1.488,0.047,211.425,-102.845,73.791,
00:00:27:167,0.601,-1.249,-0.072,155.761,-1.709,-57.19,
00:00:27:183,0.499,-1.37,-0.01,84.533,93.933,-245.85,
00:00:27:200,0.436,-1.191,0.074,-179.688,145.019,-310.547,
00:00:27:217,0.424,-0.988,0.097,-83.497,183.715,-296.692,
00:00:27:233,0.358,-1.001,0.111,98.816,296.386,-316.224,
00:00:27:250,0.406,-1.219,-0.032,173.523,430.664,-413.697,
00:00:27:267,0.419,-1.3,0.095,57.006,525.817,-534.241,
00:00:27:283,0.414,-1.291,0.044,-227.051,627.502,-640.198,
00:00:27:300,0.467,-1.095,0.113,-262.024,656.738,-711.304,
00:00:27:317,0.391,-0.843,0.2,-169.739,656.86,-705.079,
00:00:27:333,0.368,-0.871,0.519,38.391,586.914,-697.205,
00:00:27:350,0.543,-0.865,0.766,-120.057,352.356,-640.137,
00:00:27:367,-0.099,-0.006,0.998,-445.862,259.704,-514.405,
00:00:27:383,0.244,-0.057,0.646,-258.973,146.118,-327.332,
00:00:27:400,0.071,-0.041,0.832,-165.589,-11.414,-91.065,
00:00:27:417,0.166,-0.198,0.552,90.21,-73.182,186.218,
00:00:27:433,0.253,-0.712,0.364,541.809,-170.716,334.777,
00:00:27:450,0.198,-1.189,0.472,144.531,-270.997,316.223,
00:00:27:467,0.219,-0.717,0.495,-350.525,-279.114,328.613,
00:00:27:483,0.186,-0.777,0.343,-528.016,-311.097,269.592,
00:00:27:500,0.551,-0.641,0.207,163.818,-368.164,524.109,
00:00:27:517,0.106,-1.121,0.367,106.323,-318.909,501.403,
00:00:27:533,0.388,-1.025,0.323,-118.531,-322.998,523.742,
00:00:27:550,0.415,-0.755,0.144,40.893,-265.32,580.81,
00:00:27:567,0.183,-1.317,0.308,-160.462,-201.6,390.38,
00:00:27:583,0.746,-1.318,0.15,-54.688,-230.652,396.301,
00:00:27:600,0.572,-1.092,0.095,59.326,-141.968,305.847,
00:00:27:617,0.53,-1.379,0.01,253.296,-81.299,102.539,
00:00:27:633,0.517,-1.323,0.07,115.417,-37.11,-21.302,
00:00:27:650,0.458,-1.262,0.037,-92.713,20.08,-171.875,
00:00:27:667,0.431,-1.115,0.083,-165.955,62.744,-209.229,
00:00:27:683,0.396,-0.923,0.198,178.283,216.186,-275.757,
00:00:27:700,0.443,-1.108,0.087,243.225,265.564,-393.189,
00:00:27:717,0.354,-1.119,0.063,122.802,305.175,-468.995,
00:00:27:733,0.333,-1.027,0.274,92.529,326.294,-511.048,
00:00:27:750,0.405,-0.843,0.331,64.697,373.047,-478.15,
00:00:27:767,0.292,-0.866,0.407,70.922,403.381,-508.545,
00:00:27:783,0.254,-0.703,0.512,62.5,327.453,-469.849,
00:00:27:800,0.517,-0.683,0.861,-8.484,82.153,-389.649,
00:00:27:817,0.145,-0.192,0.747,-176.514,24.169,-215.088,
00:00:27:833,0.302,-0.413,0.68,48.767,-146.485,-114.685,
00:00:27:850,0.103,-0.391,0.551,-39.978,-208.68,36.377,
00:00:27:867,0.183,-0.502,0.412,234.985,-278.077,138.916,
00:00:27:883,0.108,-0.936,0.365,-45.044,-326.966,184.936,
00:00:27:900,0.11,-0.475,0.491,-247.681,-349.854,354.858,
00:00:27:917,0.161,-0.747,0.463,-181.519,-377.808,408.63,
00:00:27:933,0.243,-0.794,0.425,1.586,-383.362,557.678,
00:00:27:950,0.233,-1.045,0.416,79.101,-405.152,672.485,
00:00:27:967,0.592,-1.256,0.211,236.938,-457.703,697.754,
00:00:27:983,0.203,-0.876,0.185,43.151,-388.123,684.448,
00:00:28:0,0.55,-1.32,0.195,66.894,-330.079,407.043,
00:00:28:17,0.616,-1.261,0.076,185.669,-226.99,320.068,
00:00:28:33,0.484,-1.47,0.054,121.093,-107.3,43.884,
00:00:28:50,0.597,-1.321,-0.036,147.338,45.41,-89.295,
00:00:28:67,0.496,-1.367,0.049,-38.392,192.199,-268.677,
00:00:28:83,0.437,-1.029,0.182,-381.897,253.357,-340.027,
00:00:28:100,0.412,-0.772,0.205,-295.472,270.63,-353.577,
00:00:28:117,0.473,-0.861,0.095,40.649,325.805,-330.262,
00:00:28:133,0.453,-1.144,0.012,192.016,382.995,-373.108,
00:00:28:150,0.41,-1.093,0.097,96.191,430.236,-406.373,
00:00:28:167,0.382,-1.033,0.085,54.626,504.211,-442.872,
00:00:28:183,0.3,-1.052,0.009,16.296,563.964,-473.023,
00:00:28:200,0.381,-0.931,0.162,5.432,520.752,-442.81,
00:00:28:217,0.328,-0.75,0.395,79.345,476.867,-380.982,
00:00:28:233,0.328,-1.011,0.396,15.93,407.226,-372.315,
00:00:28:250,0.106,-0.641,0.484,-155.213,364.441,-301.758,
00:00:28:267,0.318,-0.579,0.801,-365.052,71.35,-281.983,
00:00:28:283,0.18,-0.046,0.789,-556.458,-36.683,-145.264,
00:00:28:300,0.225,-0.118,0.711,-286.805,-142.579,-9.644,
00:00:28:317,0.212,-0.207,0.603,201.782,-181.336,241.15,
00:00:28:333,0.258,-0.872,0.363,482.666,-235.962,280.517,
00:00:28:350,0.193,-0.943,0.344,137.268,-298.218,369.262,
00:00:28:367,0.31,-0.935,0.374,-24.414,-359.559,375.915,
00:00:28:383,0.268,-0.852,0.475,-354.737,-383.606,357.727,
00:00:28:400,0.051,-0.419,0.626,-507.935,-386.658,404.968,
00:00:28:417,0.54,-0.939,0.504,205.688,-478.882,562.133,
00:00:28:433,0.54,-0.998,0.336,256.042,-498.414,683.349,
00:00:28:450,0.451,-0.858,0.26,481.018,-454.529,710.571,
00:00:28:467,0.337,-1.387,0.364,276.855,-444.642,473.938,
00:00:28:483,0.726,-1.343,0.111,81.726,-377.625,357.299,
00:00:28:500,0.493,-1.158,0.168,-70.008,-176.453,250.671,
00:00:28:517,0.627,-1.593,0.064,-83.374,-99.305,10.681,
00:00:28:533,0.689,-1.327,0.008,-43.824,36.56,-114.685,
00:00:28:550,0.652,-1.682,-0.045,-88.623,130.554,-349.671,
00:00:28:567,0.547,-1.253,0.141,-440.491,131.775,-453.614,
00:00:28:583,0.441,-0.771,0.245,-260.376,142.7,-516.968,
00:00:28:600,0.347,-0.745,0.1,128.418,244.812,-499.451,
00:00:28:617,0.313,-1.036,0.062,425.537,329.589,-488.953,
00:00:28:633,0.211,-1.14,0.089,373.047,410.339,-488.77,
00:00:28:650,0.156,-1.081,0.144,168.396,451.782,-525.391,
00:00:28:667,0.189,-0.929,0.329,6.958,435.363,-530.64,
00:00:28:683,0.146,-0.769,0.406,-55.298,457.397,-520.874,
00:00:28:700,0.148,-0.709,0.422,-54.993,421.936,-502.381,
00:00:28:717,0.003,-0.524,0.557,-102.295,343.994,-422.547,
00:00:28:733,0.255,-0.411,0.772,-81.238,153.015,-270.203,
00:00:28:750,0.143,-0.149,0.785,-160.767,17.822,-89.295,
00:00:28:767,0.194,-0.339,0.714,-100.708,-96.985,34.79,
00:00:28:783,0.255,-0.353,0.587,99.243,-168.457,208.313,
00:00:28:800,0.366,-1.003,0.337,314.209,-231.324,201.721,
00:00:28:817,0.226,-1.006,0.383,-62.195,-264.039,226.806,
00:00:28:833,0.446,-0.854,0.46,-108.46,-321.778,233.459,
00:00:28:850,0.248,-0.687,0.472,-450.074,-305.054,219.726,
00:00:28:867,0.429,-0.727,0.404,-150.208,-324.097,313.964,
00:00:28:883,0.47,-0.926,0.399,157.592,-341.37,468.444,
00:00:28:900,0.48,-0.858,0.403,123.535,-426.758,440.246,
00:00:28:917,0.55,-1.077,0.275,204.956,-465.882,339.599,
00:00:28:933,0.437,-0.886,0.364,129.455,-447.998,340.21,
00:00:28:950,0.315,-1.009,0.406,-90.943,-408.997,264.343,
00:00:28:967,0.535,-0.976,0.259,67.993,-382.386,338.684,
00:00:28:983,0.551,-0.791,0.088,341.858,-312.623,409.484,
00:00:29:0,0.399,-1.145,0.194,300.72,-278.687,301.086,
00:00:29:17,0.615,-0.944,-0.022,495.849,-184.815,246.887,
00:00:29:33,0.453,-1.432,-0.038,488.525,-89.234,45.898,
00:00:29:50,0.48,-1.324,-0.017,250.366,13.916,-70.923,
00:00:29:67,0.402,-1.241,0.038,37.597,97.106,-183.106,
00:00:29:83,0.361,-0.9,0.055,-69.825,170.105,-208.069,
00:00:29:100,0.369,-0.806,0.018,116.821,235.412,-191.04,
00:00:29:117,0.357,-1.018,0.097,189.819,247.985,-193.787,
00:00:29:133,0.281,-1.01,0.235,48.217,249.755,-214.234,
00:00:29:150,0.252,-0.908,0.087,-68.604,282.104,-242.981,
00:00:29:167,0.21,-0.853,0.114,26.001,336.12,-212.098,
00:00:29:183,0.245,-0.967,0.091,33.386,375.427,-201.661,
00:00:29:200,0.239,-0.786,0.154,51.818,385.803,-165.65,
00:00:29:217,0.33,-0.991,0.249,136.718,366.455,-186.646,
00:00:29:233,0.348,-1.02,0.27,33.081,346.008,-200.196,
00:00:29:250,0.254,-0.825,0.403,43.64,315.002,-206.177,
00:00:29:267,0.451,-0.916,0.422,172.851,280.029,-215.516,
00:00:29:283,0.255,-0.906,0.523,-12.879,273.742,-229.615,
00:00:29:300,0.183,-0.677,0.664,-141.968,210.998,-228.455,
00:00:29:317,0.294,-0.582,0.625,-102.356,114.013,-164.002,
00:00:29:333,0.248,-0.548,0.648,-232.056,24.231,-89.356,
00:00:29:350,0.114,-0.279,0.621,-331.604,-43.946,24.047,
00:00:29:367,0.14,-0.567,0.494,-261.353,-110.535,164.428,
00:00:29:383,0.186,-0.716,0.471,-310.852,-151.001,360.534,
00:00:29:400,0.264,-0.747,0.495,-335.45,-215.882,513.122,
00:00:29:417,0.322,-0.588,0.526,-337.159,-286.499,593.505,
00:00:29:433,0.602,-0.951,0.314,85.998,-412.72,652.465,
00:00:29:450,0.494,-1.108,0.374,126.587,-491.7,621.032,
00:00:29:467,0.536,-1.288,0.231,311.767,-494.507,591.064,
00:00:29:483,0.624,-1.243,0.26,471.984,-457.947,551.696,
00:00:29:500,0.528,-1.196,0.205,359.253,-321.167,366.821,
00:00:29:517,0.565,-1.568,0.039,272.155,-164.734,101.013,
00:00:29:533,0.627,-1.356,0.041,60.73,-54.505,-105.164,
00:00:29:550,0.61,-1.331,-0.027,7.08,69.397,-272.767,
00:00:29:567,0.506,-1.131,0.121,-177.735,158.569,-367.615,
00:00:29:583,0.448,-0.865,0.18,-222.168,212.341,-350.769,
00:00:29:600,0.389,-0.73,0.149,-26.673,276.184,-289.002,
00:00:29:617,0.461,-0.977,0.105,78.735,343.078,-324.585,
00:00:29:633,0.419,-1.027,0.049,-226.38,414.55,-449.524,
00:00:29:650,0.447,-0.918,0.038,-58.96,432.251,-443.116,
00:00:29:667,0.41,-0.938,0.136,42.846,452.087,-438.05,
00:00:29:683,0.335,-1.001,0.189,84.411,479.98,-489.747,
00:00:29:700,0.276,-0.974,0.314,-62.317,491.455,-518.555,
00:00:29:717,0.414,-0.934,0.467,-62.073,427.368,-529.847,
00:00:29:733,0.217,-0.697,0.515,-106.873,382.507,-482.3,
00:00:29:750,0.231,-0.753,0.777,-204.163,129.638,-467.041,
00:00:29:767,0.165,-0.231,0.749,-99.976,22.583,-212.769,
00:00:29:783,0.297,-0.545,0.58,103.942,-61.341,-24.598,
00:00:29:800,0.145,-0.466,0.697,55.175,-177.124,76.721,
00:00:29:817,0.244,-0.641,0.37,31.616,-199.524,95.092,
00:00:29:833,0.155,-0.733,0.304,-327.149,-200.501,50.598,
00:00:29:850,0.177,-0.725,0.343,-471.741,-183.472,138.061,
00:00:29:867,0.255,-0.763,0.413,-513.855,-175.293,250.671,
00:00:29:883,0.375,-0.693,0.297,-172.608,-201.111,413.513,
00:00:29:900,0.436,-1.096,0.35,85.998,-275.818,442.871,
00:00:29:917,0.354,-0.798,0.576,-76.905,-358.338,411.377,
00:00:29:933,0.439,-0.968,0.37,-49.744,-372.681,380.676,
00:00:29:950,0.547,-0.902,0.358,257.629,-421.509,471.435,
00:00:29:967,0.303,-0.942,0.508,98.877,-464.722,417.419,
00:00:29:983,0.459,-1.075,0.187,345.153,-428.345,399.109,
00:00:30:0,0.567,-1.103,0.14,524.475,-376.954,409.668,
00:00:30:17,0.309,-1.083,0.321,348.999,-291.138,278.015,
00:00:30:33,0.537,-1.606,-0.098,393.982,-100.647,103.454,
00:00:30:50,0.49,-1.48,0.061,-36.683,91.857,-106.446,
00:00:30:67,0.436,-1.016,0.142,-230.591,252.624,-371.827,
00:00:30:83,0.39,-0.909,0.061,66.101,287.78,-346.619,
00:00:30:100,0.465,-1.067,-0.035,287.414,328.064,-359.07,
00:00:30:117,0.341,-1.201,0.025,202.697,369.506,-437.439,
00:00:30:133,0.251,-1.186,0.135,-29.786,410.949,-548.829,
00:00:30:150,0.42,-0.942,0.189,-113.587,433.227,-572.754,
00:00:30:167,0.223,-0.652,0.586,-110.535,376.22,-546.936,
00:00:30:183,-0.02,-0.075,0.951,-229.737,139.038,-443.36,
00:00:30:200,0.291,-0.431,0.516,42.419,75.012,-186.463,
00:00:30:217,0.121,-0.396,1.012,-90.699,-151.368,-28.809,
00:00:30:233,0.167,-0.308,0.558,-28.809,-185.364,164.062,grateLH
00:00:30:250,0.213,-0.813,0.458,-270.386,-276.795,238.464,
00:00:30:267,0.247,-0.655,0.452,-495.057,-247.559,273.62,
00:00:30:283,0.513,-0.921,0.286,55.969,-284.485,378.967,
00:00:30:300,0.26,-0.916,0.645,-125.428,-287.598,396.545,
00:00:30:317,0.473,-0.851,0.451,-192.81,-307.496,380.676,
00:00:30:333,0.39,-0.744,0.294,-145.752,-307.801,378.845,
00:00:30:350,0.341,-0.945,0.334,95.52,-276.429,432.312,
00:00:30:367,0.548,-1.297,0.21,160.705,-268.189,405.578,
00:00:30:383,0.411,-0.896,0.268,44.982,-211.853,298.462,
00:00:30:400,0.515,-1.5,-0.066,337.097,-142.762,215.088,
00:00:30:417,0.37,-1.204,0.189,-27.405,-54.078,65.429,
00:00:30:433,0.519,-1.49,-0.167,9.46,96.13,-88.807,
00:00:30:450,0.45,-1.272,0.056,-200.196,218.261,-206.604,
00:00:30:467,0.413,-1.007,0.135,-209.168,280.029,-267.884,
00:00:30:483,0.382,-0.851,0.161,-54.322,289.795,-279.969,
00:00:30:500,0.42,-0.911,0.034,199.34,312.072,-275.818,
00:00:30:517,0.384,-1.116,0.024,317.26,328.735,-303.467,
00:00:30:533,0.236,-1.187,0.206,153.686,329.406,-408.081,
00:00:30:550,0.332,-1.035,0.174,27.404,369.384,-438.599,
00:00:30:567,0.327,-1.016,0.27,76.049,388.488,-451.661,
00:00:30:583,0.227,-0.812,0.378,172.973,403.93,-442.933,
00:00:30:600,0.264,-0.973,0.479,168.64,332.946,-495.24,
00:00:30:617,0.528,-0.823,0.948,-55.848,116.333,-493.164,
00:00:30:633,0.078,-0.226,0.535,-109.375,201.172,-348.145,
00:00:30:650,0.395,-0.664,0.698,173.767,37.841,-221.436,
00:00:30:667,0.153,-0.521,0.847,-247.376,-8.851,-124.878,
00:00:30:683,0.217,-0.264,0.531,-155.64,-4.639,28.137,
00:00:30:700,0.253,-0.672,0.475,84.899,-94.605,91.003,
00:00:30:717,0.211,-0.825,0.448,-113.77,-114.075,125.915,
00:00:30:733,0.154,-0.744,0.425,-334.351,-121.582,183.471,
00:00:30:750,0.171,-0.669,0.454,-337.83,-112.488,283.569,
00:00:30:767,0.595,-1.144,0.322,69.336,-258.851,500.122,
00:00:30:783,0.358,-0.572,0.416,-79.468,-282.349,492.126,
00:00:30:800,0.381,-1.41,0.411,225.158,-368.897,430.42,
00:00:30:817,0.683,-1.027,0.322,177.734,-371.644,477.722,
00:00:30:833,0.547,-0.958,0.216,234.13,-289.002,451.538,
00:00:30:850,0.375,-1.191,0.24,180.664,-233.704,294.922,
00:00:30:867,0.433,-1.338,-0.111,177.185,68.603,-70.13,
00:00:30:883,0.395,-1.412,0.08,84.228,136.596,-194.886,
00:00:30:900,0.371,-1.045,0.224,-115.662,157.837,-265.503,
00:00:30:917,0.363,-1.182,0.057,313.415,296.264,-324.402,
00:00:30:933,0.26,-1.189,0.052,153.076,371.521,-408.57,
00:00:30:950,0.348,-1.07,0.21,84.594,460.571,-458.68,
00:00:30:967,0.439,-1.037,0.378,-38.147,462.219,-529.358,
00:00:30:983,0.338,-0.857,0.571,-26.246,496.704,-509.522,
00:00:31:0,0.296,-0.18,0.583,95.581,41.87,-88.746,
00:00:31:17,0.262,-0.452,0.848,134.887,-155.457,120.788,
00:00:31:33,0.177,-0.397,0.519,212.646,-152.588,271.545,
00:00:31:50,0.227,-0.949,0.317,288.818,-174.012,264.953,
00:00:31:67,0.152,-0.961,0.388,-192.994,-151.551,203.552,
00:00:31:83,0.256,-0.731,0.378,-265.564,-100.098,199.951,
00:00:31:100,0.333,-1.068,0.325,-343.262,-80.079,177.673,
00:00:31:117,0.305,-0.711,0.485,-466.37,-91.248,217.468,
00:00:31:133,0.378,-0.74,0.394,-106.263,-117.859,296.569,
00:00:31:150,0.308,-1.017,0.418,-68.604,-153.26,307.006,
00:00:31:167,0.399,-0.822,0.352,45.41,-179.078,348.083,
00:00:31:183,0.602,-0.736,0.283,66.589,-203.614,305.847,
00:00:31:200,0.245,-1.025,0.625,-140.137,-252.259,289.001,
00:00:31:217,0.547,-0.776,0.262,89.294,-239.747,357.116,
00:00:31:233,0.378,-0.685,0.261,195.312,-190.979,416.626,
00:00:31:250,0.521,-1.585,0.163,303.588,-148.499,305.114,
00:00:31:267,0.268,-0.869,0.375,-223.389,-70.13,155.761,
00:00:31:283,0.613,-1.567,-0.147,300.842,59.448,4.333,
00:00:31:300,0.431,-1.517,0.154,-81.849,174.011,-199.891,
00:00:31:317,0.385,-1.197,0.194,-297.852,262.268,-347.596,
00:00:31:333,0.389,-1.027,0.191,-262.513,325.195,-374.451,
00:00:31:350,0.406,-0.901,0.212,-131.043,425.659,-382.447,
00:00:31:367,0.385,-1.004,0.171,-29.541,463.501,-454.346,
00:00:31:383,0.476,-1.013,0.222,-29.114,484.375,-523.804,
00:00:31:400,0.371,-1.111,0.244,-128.907,503.662,-599.793,
00:00:31:417,0.329,-0.74,0.354,-201.233,489.257,-593.75,
00:00:31:433,0.253,-0.755,0.549,-82.398,422.119,-574.463,
00:00:31:450,0.264,-0.501,0.631,-120.85,340.637,-503.907,
00:00:31:467,0.35,-0.582,0.514,-48.706,234.741,-431.946,
00:00:31:483,0.175,-0.09,0.693,-85.999,-68.543,-55.176,
00:00:31:500,0.196,-0.164,0.586,14.648,-141.602,181.213,
00:00:31:517,0.252,-0.406,0.488,328.796,-195.496,352.172,
00:00:31:533,0.15,-0.988,0.422,28.747,-189.454,343.261,
00:00:31:550,0.344,-0.472,0.564,-359.803,-145.203,383.911,
00:00:31:567,0.541,-1.106,0.442,146.911,-218.018,451.049,
00:00:31:583,0.469,-0.906,0.504,91.857,-265.442,439.026,
00:00:31:600,0.396,-0.952,0.528,-13.428,-317.566,387.695,
00:00:31:617,0.458,-0.699,0.355,152.832,-294.251,380.432,
00:00:31:633,0.456,-1.116,0.401,252.014,-329.956,372.497,
00:00:31:650,0.532,-1.007,0.154,144.836,-311.036,226.562,
00:00:31:667,0.393,-1.208,0.173,192.199,-186.951,126.464,
00:00:31:683,0.52,-1.325,0.071,274.536,-43.091,17.822,
00:00:31:700,0.529,-1.442,0.122,176.513,73.547,-172.425,
00:00:31:717,0.507,-1.132,0.217,-54.505,135.131,-318.848,
00:00:31:733,0.446,-0.894,0.204,-116.822,132.263,-366.883,
00:00:31:750,0.376,-0.8,0.183,47.363,162.353,-327.637,
00:00:31:767,0.366,-0.918,0.15,283.142,247.741,-277.955,
00:00:31:783,0.386,-1.168,0.109,310.119,347.778,-307.618,
00:00:31:800,0.282,-1.176,0.2,130.676,416.748,-421.143,
00:00:31:817,0.479,-1.164,0.241,62.866,447.876,-522.644,
00:00:31:833,0.42,-1.167,0.319,-88.929,449.157,-607.666,
00:00:31:850,0.369,-0.838,0.343,26.245,429.138,-589.234,
00:00:31:867,0.119,-0.88,0.38,108.215,406.189,-587.281,
00:00:31:883,-0.053,-0.412,1.02,-185.059,137.512,-519.837,
00:00:31:900,0.236,-0.254,0.351,87.097,198.852,-306.763,
00:00:31:917,0.178,-0.389,0.856,-206.971,-11.78,-287.72,
00:00:31:933,0.136,-0.016,0.821,-534.302,-31.556,-58.35,
00:00:31:950,0.273,0.019,0.642,29.357,-41.748,320.861,
00:00:31:967,0.311,-0.767,0.608,305.847,-120.545,472.595,
00:00:31:983,0.351,-0.834,0.598,77.27,-163.819,501.648,
00:00:32:0,0.393,-0.757,0.64,-282.593,-212.586,448.425,
00:00:32:17,0.359,-0.559,0.585,-605.103,-216.614,390.503,
00:00:32:33,0.612,-0.804,0.343,76.538,-229.92,528.381,
00:00:32:50,0.308,-0.909,0.782,-359.742,-246.766,466.43,
00:00:32:67,0.664,-0.875,0.293,-28.992,-269.165,506.591,
00:00:32:83,0.543,-0.968,0.335,27.343,-262.024,530.578,
00:00:32:100,0.455,-0.833,0.371,59.265,-246.277,492.614,
00:00:32:117,0.462,-1.136,0.202,147.338,-227.295,384.704,
00:00:32:133,0.597,-1.224,0.073,215.698,-180.115,303.955,
00:00:32:150,0.584,-1.489,0.02,149.475,-151.307,209.167,
00:00:32:167,0.451,-1.156,0.039,157.226,-65.308,78.857,
00:00:32:183,0.483,-1.517,-0.036,333.435,6.042,-74.341,
00:00:32:200,0.408,-1.21,0.192,92.895,37.841,-190.491,
00:00:32:217,0.381,-0.924,0.274,65.307,54.809,-246.888,
00:00:32:233,0.373,-0.91,0.212,144.836,75.134,-255.127,
00:00:32:250,0.424,-0.978,0.202,263.855,131.103,-279.786,
00:00:32:267,0.359,-1.07,0.184,233.093,219.909,-338.013,
00:00:32:283,0.411,-1.075,0.144,194.275,328.186,-410.035,
00:00:32:300,0.346,-1.212,0.198,27.16,407.531,-506.165,
00:00:32:317,0.278,-0.852,0.302,-122.803,427.551,-528.87,
00:00:32:333,0.365,-0.795,0.513,78.002,393.676,-500.306,
00:00:32:350,0.425,-0.841,0.483,88.44,359.802,-476.563,
00:00:32:367,0.287,-0.829,0.485,100.83,287.292,-472.229,
00:00:32:383,0.197,-0.601,0.759,-104.371,105.957,-390.32,
00:00:32:400,0.167,-0.32,0.598,158.752,33.142,-204.895,
00:00:32:417,0.268,-0.617,0.522,220.092,-2.076,-111.023,
00:00:32:433,0.086,-0.479,0.771,-165.894,-107.727,-105.591,
00:00:32:450,0.127,-0.009,0.515,-214.295,-120.606,71.167,
00:00:32:467,0.218,-0.435,0.476,160.339,-195.679,235.595,
00:00:32:483,0.28,-0.976,0.345,131.652,-209.961,371.338,
00:00:32:500,0.161,-0.86,0.506,-88.868,-223.206,427.917,
00:00:32:517,0.362,-0.892,0.47,-68.543,-218.018,431.274,
00:00:32:533,0.309,-0.947,0.474,-356.873,-238.038,381.164,
00:00:32:550,0.572,-1.012,0.333,-21.241,-260.01,423.462,
00:00:32:567,0.342,-0.819,0.571,-322.876,-288.575,398.132,
00:00:32:583,0.544,-0.818,0.458,-87.769,-304.017,440.246,
00:00:32:600,0.798,-0.901,0.225,350.341,-325.684,534.668,
00:00:32:617,0.35,-1.034,0.483,106.75,-302.796,363.83,
00:00:32:633,0.562,-1.079,0.214,189.758,-260.315,267.578,
00:00:32:650,0.484,-1.191,0.092,76.904,-169.8,140.93,
00:00:32:667,0.528,-1.324,-0.004,-110.23,131.775,-226.197,
00:00:32:683,0.532,-1.145,0.173,-173.829,189.087,-293.335,
00:00:32:700,0.483,-0.826,0.29,-131.348,190.429,-314.759,
00:00:32:717,0.39,-0.803,0.243,-14.344,215.149,-342.469,
00:00:32:733,0.466,-1.027,0.216,161.316,250.305,-365.052,
00:00:32:750,0.353,-1.095,0.21,2.319,303.283,-456.238,
00:00:32:767,0.373,-0.976,0.284,9.887,355.102,-513.123,
00:00:32:783,0.362,-1.03,0.236,-100.892,404.113,-577.82,
00:00:32:800,0.29,-0.729,0.491,-23.987,379.516,-555.97,
00:00:32:817,0.334,-0.756,0.57,-62.439,354.309,-518.86,
00:00:32:833,0.289,-0.682,0.501,-69.458,279.541,-499.268,
00:00:32:850,0.056,-0.372,0.908,-129.822,96.313,-417.42,
00:00:32:867,0.201,-0.191,0.748,8.361,-14.588,-191.651,
00:00:32:883,0.142,-0.378,0.736,66.467,-118.103,-12.024,
00:00:32:900,0.097,-0.37,0.602,-35.218,-177.796,119.69,
00:00:32:917,0.214,-0.675,0.386,126.709,-214.417,257.69,
00:00:32:933,0.111,-0.793,0.43,-148.621,-220.093,281.311,
00:00:32:950,0.185,-0.801,0.38,-130.005,-220.398,346.862,
00:00:32:967,0.208,-0.871,0.54,-335.633,-235.23,359.314,
00:00:32:983,0.27,-0.604,0.461,-201.172,-224.732,472.229,
00:00:33:0,0.464,-1.204,0.321,134.155,-277.466,523.864,
00:00:33:17,0.396,-0.781,0.463,-89.112,-265.503,461.853,
00:00:33:33,0.421,-1.239,0.332,-97.168,-259.4,388.305,
00:00:33:50,0.5,-0.672,0.387,71.777,-217.774,430.236,
00:00:33:67,0.343,-1.204,0.349,1.586,-230.225,313.232,
00:00:33:83,0.503,-1.007,0.12,48.95,-157.227,266.235,
00:00:33:100,0.463,-1.198,0.156,179.199,-85.083,219.665,
00:00:33:117,0.516,-1.264,0.074,298.645,37.109,78.125,
00:00:33:133,0.562,-1.468,0.182,191.04,147.705,-134.827,
00:00:33:150,0.554,-1.376,0.177,-212.525,181.152,-295.777,
00:00:33:167,0.519,-0.839,0.278,-260.865,169.433,-341.553,
00:00:33:183,0.412,-0.661,0.336,-53.894,174.804,-332.154,
00:00:33:200,0.443,-0.772,0.223,141.601,241.638,-304.566,
00:00:33:217,0.485,-1.058,0.213,196.838,296.753,-330.933,
00:00:33:233,0.439,-0.991,0.27,11.901,333.068,-413.392,
00:00:33:250,0.434,-0.877,0.296,1.77,357.238,-472.718,
00:00:33:267,0.421,-0.848,0.406,-55.97,357.299,-526.917,
00:00:33:283,0.236,-0.61,0.529,-51.148,366.394,-527.71,
00:00:33:300,0.307,-0.598,0.549,137.451,296.692,-439.942,
00:00:33:317,0.316,-0.616,0.733,103.698,154.663,-362.244,
00:00:33:334,0.13,-0.556,0.695,-48.584,83.129,-269.959,
00:00:33:350,0.098,-0.229,0.777,-157.044,-60.181,-102.845,
00:00:33:367,0.128,-0.303,0.647,44.555,-159.852,128.601,
00:00:33:384,0.183,-0.726,0.49,353.454,-223.877,318.664,
00:00:33:400,0.187,-0.901,0.395,243.408,-245.911,380.371,
00:00:33:417,0.217,-0.913,0.41,16.235,-255.982,361.572,
00:00:33:434,0.235,-0.861,0.481,-362.793,-299.256,297.18,
00:00:33:450,0.424,-0.564,0.417,-22.889,-342.835,432.312,
00:00:33:467,0.195,-0.992,0.569,-36.683,-381.043,412.963,
00:00:33:484,0.458,-1.291,0.272,199.89,-373.414,460.815,
00:00:33:500,0.57,-0.925,0.219,426.696,-297.547,493.896,
00:00:33:517,0.363,-1.384,0.294,229.126,-251.893,304.138,
00:00:33:534,0.619,-1.172,0.083,113.952,-154.358,149.292,
00:00:33:550,0.554,-1.493,-0.005,121.948,-71.228,2.868,
00:00:33:567,0.538,-1.255,0.029,105.59,56.945,-142.334,
00:00:33:584,0.511,-1.32,0.041,-5.433,182.434,-284.607,
00:00:33:600,0.442,-0.99,0.293,-128.54,245.117,-331.238,
00:00:33:617,0.419,-0.783,0.258,-39.185,280.944,-327.698,
00:00:33:634,0.436,-0.842,0.111,99.426,304.321,-346.131,
00:00:33:650,0.454,-1.089,0.151,164.062,309.753,-397.095,
00:00:33:667,0.395,-1.039,0.176,159.423,333.923,-411.499,
00:00:33:684,0.395,-0.976,0.243,290.649,360.839,-378.296,
00:00:33:700,0.38,-1.049,0.197,245.788,391.113,-417.237,
00:00:33:717,0.338,-0.865,0.286,65.002,386.596,-454.346,
00:00:33:734,0.235,-0.786,0.442,27.099,356.689,-500.184,
00:00:33:750,0.204,-0.821,0.891,-270.63,192.077,-532.227,
00:00:33:767,0.134,0.126,0.884,-177.185,67.077,-296.204,
00:00:33:784,0.136,-0.438,0.586,-25.208,14.16,-110.901,
00:00:33:800,0.134,-0.383,0.847,-191.956,-139.832,68.664,
00:00:33:817,0.16,-0.344,0.48,-7.996,-149.903,306.091,
00:00:33:834,0.259,-0.91,0.395,84.472,-245.484,357.91,
00:00:33:850,0.154,-0.789,0.482,-470.826,-250.489,310.669,
00:00:33:867,0.19,-0.526,0.496,-621.277,-254.761,321.167,
00:00:33:884,0.42,-1.061,0.358,-13.916,-323.914,479.248,
00:00:33:900,0.376,-0.899,0.47,-11.292,-324.463,538.696,
00:00:33:917,0.383,-1.292,0.421,0.305,-351.197,500.488,
00:00:33:934,0.474,-0.724,0.294,171.63,-308.96,514.343,
00:00:33:950,0.427,-1.471,0.299,178.161,-307.435,427.612,
00:00:33:967,0.609,-1.015,0.13,122.924,-252.991,369.079,
00:00:33:984,0.408,-0.921,0.317,109.253,-209.351,271.911,
00:00:34:0,0.573,-1.294,0.016,448.791,-148.011,149.353,
00:00:34:17,0.415,-1.177,0.266,374.755,-62.256,8.178,
00:00:34:34,0.555,-1.414,0.013,245.483,54.077,-164.917,
00:00:34:50,0.5,-1.388,0.053,-92.835,124.633,-310.975,
00:00:34:67,0.459,-0.999,0.195,-148.011,177.246,-373.047,
00:00:34:84,0.39,-0.938,0.134,-2.137,268.127,-361.268,
00:00:34:100,0.417,-1.001,0.09,118.774,380.92,-371.155,
00:00:34:117,0.406,-1.154,0.069,-30.884,437.194,-464.173,
00:00:34:134,0.398,-1.11,0.224,-151.185,475.83,-562.073,
00:00:34:150,0.46,-0.919,0.168,-166.321,483.337,-611.39,
00:00:34:167,0.408,-0.775,0.277,-2.259,450.5,-610.535,
00:00:34:184,0.37,-0.711,0.362,98.693,396.972,-600.22,
00:00:34:200,0.227,-0.713,0.814,-49.866,202.88,-612.549,
00:00:34:217,0.135,-0.295,0.517,43.151,182.556,-431.641,
00:00:34:234,0.219,-0.423,0.677,-49.439,31.799,-280.579,grateLH
00:00:34:250,0.062,-0.371,0.862,-78.431,-85.511,-83.619,
00:00:34:267,0.088,-0.26,0.557,15.197,-135.682,168.579,
00:00:34:284,0.179,-0.748,0.507,182.983,-221.131,286.621,
00:00:34:300,0.186,-0.989,0.435,-83.191,-278.748,303.711,
00:00:34:317,0.106,-0.615,0.489,-373.108,-296.57,339.599,
00:00:34:334,0.276,-0.912,0.375,-308.35,-308.35,378.418,
00:00:34:350,0.431,-0.947,0.252,-51.941,-317.994,507.019,
00:00:34:367,0.182,-0.838,0.484,-205.811,-296.021,505.432,
00:00:34:384,0.419,-0.939,0.261,160.278,-278.504,563.476,
00:00:34:400,0.406,-1.006,0.322,155.883,-287.11,520.874,
00:00:34:417,0.405,-1.073,0.213,187.988,-233.582,404.419,
00:00:34:434,0.504,-1.571,0.184,172.546,-215.21,277.282,
00:00:34:450,0.423,-0.805,0.266,-117.005,-116.089,146.667,
00:00:34:467,0.469,-1.373,0.008,197.509,-38.086,45.898,
00:00:34:484,0.45,-1.119,0.1,123.352,35.522,-37.415,
00:00:34:500,0.452,-1.235,0.047,137.085,129.455,-132.935,
00:00:34:517,0.395,-1.137,0.182,-11.048,181.457,-200.562,
00:00:34:534,0.379,-1.045,0.236,-102.173,196.716,-244.202,
00:00:34:550,0.324,-0.81,0.255,-45.777,227.05,-241.883,
00:00:34:567,0.365,-0.91,0.207,188.476,281.738,-260.071,
00:00:34:584,0.349,-1.124,0.162,233.459,333.435,-312.867,
00:00:34:600,0.438,-1.11,0.183,170.349,400.207,-383.789,
00:00:34:617,0.315,-1.175,0.238,-75.196,431.945,-529.664,
00:00:34:634,0.29,-0.743,0.405,-156.373,462.219,-540.223,
00:00:34:650,0.371,-0.745,0.612,-86.426,389.953,-508.851,
00:00:34:667,0.221,-0.582,0.491,-178.65,351.745,-424.744,
00:00:34:684,0.148,-0.35,0.851,-237.793,111.938,-302.674,
00:00:34:700,0.173,-0.125,0.681,-54.383,31.005,-25.94,
00:00:34:717,0.152,-0.381,0.632,71.716,-110.352,151.184,
00:00:34:734,0.195,-0.619,0.58,235.901,-215.821,280.639,
00:00:34:750,0.139,-1.02,0.376,-33.57,-217.774,257.69,
00:00:34:767,0.27,-0.805,0.432,-337.342,-278.931,281.494,
00:00:34:784,0.262,-0.811,0.512,-466.614,-329.163,315.063,
00:00:34:800,0.44,-0.771,0.306,-80.445,-351.014,438.537,
00:00:34:817,0.23,-0.915,0.43,-28.321,-346.497,504.577,
00:00:34:834,0.31,-0.768,0.298,113.342,-334.229,570.312,
00:00:34:850,0.502,-1.346,0.18,405.944,-338.807,542.297,
00:00:34:867,0.326,-1.152,0.269,-18.982,-268.555,409.484,
00:00:34:884,0.469,-1.146,0.239,56.335,-192.383,323.791,
00:00:34:900,0.582,-1.232,0.08,111.145,-105.408,195.556,
00:00:34:917,0.546,-1.24,0.026,134.765,41.931,19.226,
00:00:34:934,0.551,-1.259,0.027,89.538,170.715,-123.963,
00:00:34:950,0.556,-1.24,0.106,-37.354,234.863,-205.201,
00:00:34:967,0.494,-0.898,0.221,-194.153,229.187,-263.977,
00:00:34:984,0.47,-0.8,0.273,-86.365,218.261,-290.039,
