TIMECODE,ACC_X,ACC_Y,ACC_Z,GYR_X,GYR_Y,GYR_Z,TAG
00:00:00:0,0.942,0.271,0.063,21.179,18.859,-24.964,
00:00:00:16,0.939,0.268,0.061,23.559,17.211,-25.818,
00:00:00:33,0.941,0.268,0.061,21.85,14.77,-25.208,
00:00:00:50,0.939,0.271,0.06,19.348,15.197,-23.194,
00:00:00:66,0.94,0.271,0.064,15.93,13.122,-21.851,
00:00:00:83,0.939,0.272,0.062,13.488,11.413,-19.898,
00:00:00:100,0.933,0.269,0.063,16.601,7.873,-18.25,
00:00:00:116,0.93,0.269,0.065,19.348,3.784,-14.405,
00:00:00:133,0.924,0.266,0.073,21.545,3.723,-31.25,
00:00:00:150,0.937,0.255,0.07,20.568,7.324,-21.973,
00:00:00:166,0.945,0.256,0.066,12.512,7.568,-20.63,
00:00:00:183,0.948,0.267,0.072,7.019,2.746,-19.715,
00:00:00:200,0.943,0.278,0.076,4.394,0,-17.456,
00:00:00:216,0.939,0.287,0.077,11.047,3.234,-15.381,
00:00:00:233,0.94,0.283,0.069,21.85,6.042,-13.611,
00:00:00:250,0.934,0.273,0.064,23.681,8.117,-10.56,
00:00:00:266,0.935,0.271,0.056,24.414,11.474,-9.278,
00:00:00:283,0.94,0.268,0.056,28.991,11.657,-11.292,
00:00:00:300,0.941,0.257,0.053,29.724,9.582,-13.672,
00:00:00:316,0.94,0.253,0.056,24.231,4.943,-14.771,
00:00:00:333,0.935,0.255,0.056,7.69,3.845,-17.456,
00:00:00:350,0.937,0.258,0.055,-0.061,1.464,-19.41,
00:00:00:366,0.941,0.266,0.06,-4.639,2.441,-20.508,
00:00:00:383,0.938,0.27,0.058,-2.991,-2.015,-17.273,
00:00:00:400,0.929,0.275,0.057,-0.123,-1.221,-16.419,
00:00:00:416,0.933,0.272,0.064,3.906,2.624,-16.846,
00:00:00:433,0.946,0.269,0.064,8.606,6.713,-18.311,
00:00:00:450,0.954,0.262,0.061,4.821,4.394,-13.977,
00:00:00:466,0.952,0.259,0.06,-0.306,2.929,-12.207,
00:00:00:483,0.947,0.259,0.063,-6.897,2.99,-14.466,
00:00:00:500,0.945,0.262,0.068,-12.818,2.624,-16.053,
00:00:00:516,0.942,0.261,0.066,-17.151,1.648,-16.846,
00:00:00:533,0.934,0.261,0.065,-21.729,1.464,-18.677,
00:00:00:550,0.929,0.269,0.062,-20.508,2.868,-21.424,
00:00:00:566,0.925,0.275,0.065,-15.625,5.554,-22.889,
00:00:00:583,0.925,0.279,0.064,-7.325,4.577,-24.781,
00:00:00:600,0.927,0.281,0.066,-4.456,2.38,-25.635,
00:00:00:616,0.93,0.279,0.067,1.342,2.38,-27.771,
00:00:00:633,0.933,0.276,0.074,3.54,0.732,-30.091,
00:00:00:650,0.93,0.28,0.066,-3.663,5.615,-29.541,
00:00:00:666,0.94,0.288,0.065,-12.757,3.295,-27.527,
00:00:00:683,0.939,0.295,0.064,-14.466,0.915,-24.353,
00:00:00:700,0.938,0.296,0.066,-9.034,-1.587,-19.532,
00:00:00:716,0.937,0.291,0.063,-2.625,2.624,-16.297,
00:00:00:733,0.938,0.284,0.064,4.089,1.464,-16.724,
00:00:00:750,0.938,0.272,0.067,2.563,0.244,-17.456,
00:00:00:766,0.934,0.265,0.075,-14.832,-1.404,-17.64,
00:00:00:783,0.933,0.264,0.07,-8.24,2.746,-18.189,
00:00:00:800,0.936,0.271,0.073,-14.283,2.38,-20.874,
00:00:00:816,0.937,0.274,0.073,-14.344,0.488,-21.18,
00:00:00:833,0.939,0.281,0.071,-16.175,0.183,-20.874,
00:00:00:850,0.934,0.282,0.068,-15.137,-1.648,-21.241,
00:00:00:866,0.927,0.283,0.069,-8.912,1.098,-20.142,
00:00:00:883,0.921,0.283,0.069,-5.31,5.554,-20.508,
00:00:00:900,0.932,0.281,0.073,-2.625,8.789,-24.781,
00:00:00:916,0.944,0.279,0.062,-5.738,6.774,-23.133,
00:00:00:933,0.943,0.281,0.066,-4.639,4.455,-24.476,
00:00:00:950,0.932,0.288,0.068,-4.578,3.479,-23.377,
00:00:00:966,0.933,0.292,0.068,2.014,8.667,-24.842,
00:00:00:983,0.937,0.29,0.068,5.92,5.127,-24.109,
00:00:01:0,0.932,0.287,0.065,10.07,3.784,-21.485,
00:00:01:16,0.929,0.281,0.068,15.564,4.882,-21.302,
00:00:01:33,0.931,0.276,0.068,17.639,9.46,-24.781,
00:00:01:50,0.94,0.27,0.072,16.296,7.385,-24.842,
00:00:01:66,0.936,0.27,0.075,6.897,1.953,-22.706,
00:00:01:83,0.929,0.274,0.073,0.122,3.418,-22.767,
00:00:01:100,0.932,0.279,0.072,-3.602,3.234,-22.706,
00:00:01:116,0.935,0.276,0.074,-3.724,2.319,-24.292,
00:00:01:133,0.932,0.276,0.069,-6.165,4.76,-21.79,
00:00:01:150,0.93,0.28,0.065,-8.851,4.638,-19.837,
00:00:01:166,0.931,0.282,0.07,-5.616,4.455,-21.79,
00:00:01:183,0.934,0.282,0.069,-2.625,4.577,-21.18,
00:00:01:200,0.938,0.277,0.072,-6.47,3.051,-20.752,
00:00:01:216,0.935,0.277,0.076,-8.545,1.403,-19.41,
00:00:01:233,0.93,0.278,0.074,-10.193,1.22,-19.837,
00:00:01:250,0.933,0.28,0.077,-7.63,4.028,-21.363,
00:00:01:266,0.929,0.279,0.077,-8.24,1.648,-21.424,
00:00:01:283,0.928,0.282,0.073,-6.958,1.281,-19.165,
00:00:01:300,0.929,0.286,0.079,-7.508,2.99,-20.203,
00:00:01:316,0.932,0.284,0.07,-1.587,6.225,-20.02,
00:00:01:333,0.937,0.281,0.068,-0.855,4.882,-21.729,
00:00:01:350,0.935,0.277,0.07,0.244,2.441,-20.752,
00:00:01:366,0.929,0.276,0.073,-1.038,1.77,-23.377,
00:00:01:383,0.931,0.278,0.075,-0.611,5.859,-25.574,
00:00:01:400,0.938,0.278,0.071,-0.733,9.826,-25.635,
00:00:01:416,0.941,0.283,0.068,-1.831,7.995,-26.246,
00:00:01:433,0.938,0.289,0.07,2.685,8.361,-24.414,
00:00:01:450,0.94,0.292,0.075,10.192,7.202,-25.025,
00:00:01:466,0.936,0.286,0.075,16.296,10.192,-23.682,
00:00:01:483,0.934,0.279,0.075,15.625,10.559,-22.156,
00:00:01:500,0.934,0.275,0.076,16.235,10.803,-23.499,
00:00:01:516,0.937,0.266,0.074,11.84,13,-24.964,
00:00:01:533,0.94,0.267,0.067,2.624,13,-22.095,
00:00:01:550,0.945,0.275,0.068,-2.869,8.667,-21.729,
00:00:01:566,0.938,0.279,0.069,-0.306,9.704,-21.607,
00:00:01:583,0.935,0.279,0.072,2.441,7.141,-21.668,
00:00:01:600,0.935,0.276,0.07,2.075,7.446,-20.63,
00:00:01:616,0.932,0.277,0.07,1.098,4.577,-20.569,
00:00:01:633,0.931,0.28,0.07,2.075,6.774,-20.447,
00:00:01:650,0.935,0.279,0.072,1.403,5.188,-20.508,
00:00:01:666,0.932,0.282,0.072,2.38,-0.855,-19.532,
00:00:01:683,0.926,0.28,0.073,2.38,14.648,-19.043,
00:00:01:700,0.928,0.276,0.076,1.464,5.859,-22.706,
00:00:01:716,0.939,0.274,0.07,-5.005,6.042,-20.997,
00:00:01:733,0.945,0.275,0.065,-9.034,3.845,-21.241,
00:00:01:750,0.94,0.28,0.069,-9.156,-0.306,-19.654,
00:00:01:766,0.936,0.28,0.065,-4.883,3.173,-20.325,
00:00:01:783,0.937,0.279,0.074,-1.587,2.624,-23.377,
00:00:01:800,0.929,0.279,0.073,0.854,4.821,-23.499,
00:00:01:816,0.928,0.28,0.077,2.197,5.92,-22.828,
00:00:01:833,0.935,0.284,0.075,2.624,10.192,-22.706,
00:00:01:850,0.936,0.285,0.078,7.873,7.385,-24.537,
00:00:01:866,0.935,0.276,0.073,7.08,7.019,-21.058,
00:00:01:883,0.934,0.276,0.074,3.54,9.033,-18.616,
00:00:01:900,0.933,0.276,0.067,4.943,9.338,-20.752,
00:00:01:916,0.937,0.271,0.07,5.859,11.535,-23.011,
00:00:01:933,0.941,0.269,0.072,2.868,8.483,-24.231,
00:00:01:950,0.937,0.274,0.074,-8.667,5.065,-22.095,
00:00:01:966,0.925,0.281,0.071,-12.146,6.53,-23.194,
00:00:01:983,0.929,0.285,0.065,-6.287,7.08,-26.123,
00:00:02:0,0.933,0.287,0.061,0.854,10.925,-24.842,
00:00:02:16,0.933,0.286,0.069,3.906,7.019,-21.546,
00:00:02:33,0.933,0.289,0.076,11.352,8.728,-23.56,
00:00:02:50,0.932,0.286,0.077,19.226,9.765,-25.513,
00:00:02:66,0.939,0.278,0.074,20.446,11.474,-27.161,
00:00:02:83,0.937,0.279,0.074,11.718,11.413,-24.476,
00:00:02:100,0.936,0.285,0.076,6.347,6.897,-23.133,
00:00:02:116,0.935,0.285,0.077,12.634,8.667,-26.612,
00:00:02:133,0.934,0.277,0.076,18.127,10.864,-27.222,
00:00:02:150,0.938,0.274,0.08,13.732,12.939,-27.161,
00:00:02:166,0.943,0.286,0.078,7.873,11.718,-23.438,
00:00:02:183,0.939,0.291,0.079,13.549,11.352,-23.377,
00:00:02:200,0.929,0.285,0.078,23.62,12.085,-26.795,
00:00:02:216,0.931,0.28,0.076,25.146,14.282,-28.565,
00:00:02:233,0.938,0.283,0.077,19.958,13.855,-25.696,
00:00:02:250,0.933,0.287,0.076,21.179,12.817,-24.048,
00:00:02:266,0.929,0.282,0.075,24.841,12.085,-24.109,
00:00:02:283,0.932,0.274,0.077,22.338,13.732,-23.926,
00:00:02:300,0.935,0.277,0.072,14.77,14.465,-22.095,
00:00:02:316,0.937,0.282,0.067,13.732,15.991,-21.79,
00:00:02:333,0.935,0.283,0.069,21.789,12.146,-23.133,
00:00:02:350,0.937,0.276,0.068,23.559,12.573,-23.438,
00:00:02:366,0.935,0.271,0.071,16.906,9.277,-20.264,
00:00:02:383,0.936,0.271,0.069,11.779,10.925,-21.18,
00:00:02:400,0.937,0.277,0.075,7.812,13,-20.63,
00:00:02:416,0.937,0.28,0.072,14.16,12.573,-20.02,
00:00:02:433,0.932,0.275,0.078,16.174,12.512,-23.316,
00:00:02:450,0.933,0.272,0.078,12.573,12.451,-21.668,
00:00:02:466,0.936,0.276,0.075,4.76,11.108,-20.447,
00:00:02:483,0.933,0.284,0.073,6.652,7.385,-20.63,
00:00:02:500,0.932,0.277,0.071,14.038,8.544,-21.302,
00:00:02:516,0.925,0.274,0.071,9.399,11.779,-18.433,
00:00:02:533,0.926,0.279,0.063,8.667,17.395,-20.142,
00:00:02:550,0.94,0.274,0.063,11.108,16.113,-22.583,
00:00:02:566,0.947,0.272,0.068,9.948,12.451,-24.17,
00:00:02:583,0.942,0.277,0.068,4.821,8.178,-24.537,
00:00:02:600,0.932,0.28,0.073,2.624,7.08,-24.17,
00:00:02:616,0.929,0.283,0.072,7.873,13.244,-26.185,
00:00:02:633,0.932,0.284,0.072,10.803,18.615,-25.818,
00:00:02:650,0.933,0.282,0.072,11.657,16.357,-23.438,
00:00:02:666,0.938,0.28,0.073,15.197,13.855,-22.706,
00:00:02:683,0.939,0.274,0.071,20.324,15.258,-25.208,
00:00:02:700,0.935,0.273,0.07,23.315,13.794,-26.185,
00:00:02:716,0.937,0.269,0.073,20.69,10.437,-25.757,
00:00:02:733,0.931,0.269,0.075,8.667,10.803,-25.452,
00:00:02:750,0.931,0.273,0.07,3.723,11.352,-24.17,
00:00:02:766,0.935,0.273,0.067,0.915,12.39,-24.414,
00:00:02:783,0.934,0.278,0.062,1.586,11.535,-22.278,
00:00:02:800,0.932,0.275,0.064,3.112,12.573,-23.133,
00:00:02:816,0.935,0.277,0.061,15.014,16.113,-25.94,
00:00:02:833,0.94,0.271,0.062,16.601,16.235,-26.49,
00:00:02:850,0.942,0.268,0.068,13.366,13.855,-26.368,
00:00:02:866,0.935,0.268,0.074,3.723,13,-27.222,
00:00:02:883,0.932,0.275,0.073,-3.235,14.099,-29.847,
00:00:02:900,0.933,0.282,0.071,-1.221,15.564,-30.457,
00:00:02:916,0.932,0.289,0.066,4.516,15.197,-30.335,
00:00:02:933,0.93,0.289,0.066,12.634,15.258,-29.053,
00:00:02:950,0.93,0.288,0.068,18.493,16.601,-29.358,
00:00:02:966,0.932,0.288,0.072,23.193,16.662,-26.429,
00:00:02:983,0.937,0.285,0.072,23.193,15.991,-26.307,
00:00:03:0,0.937,0.28,0.069,24.902,13.794,-24.598,
00:00:03:16,0.929,0.273,0.065,22.522,13.61,-26.856,
00:00:03:33,0.936,0.27,0.065,13.732,13.366,-24.476,
00:00:03:50,0.937,0.272,0.062,6.286,13.61,-21.546,
00:00:03:66,0.936,0.274,0.061,4.455,8.239,-22.217,
00:00:03:83,0.931,0.274,0.057,10.742,9.46,-21.729,
00:00:03:100,0.93,0.27,0.056,15.075,11.108,-22.095,
00:00:03:116,0.934,0.263,0.055,15.38,10.498,-23.926,
00:00:03:133,0.941,0.264,0.061,10.925,10.681,-21.973,
00:00:03:150,0.94,0.268,0.065,5.188,11.291,-22.889,
00:00:03:166,0.94,0.269,0.067,6.897,9.521,-22.767,
00:00:03:183,0.942,0.266,0.071,8.544,7.019,-21.973,
00:00:03:200,0.939,0.263,0.073,2.502,5.188,-21.851,
00:00:03:216,0.939,0.265,0.073,-4.151,6.591,-20.081,
00:00:03:233,0.94,0.269,0.074,-8.057,6.286,-20.386,
00:00:03:250,0.943,0.273,0.072,-7.874,7.568,-19.715,
00:00:03:266,0.94,0.276,0.068,-6.653,7.324,-21.363,
00:00:03:283,0.94,0.273,0.067,-6.531,3.234,-19.043,
00:00:03:300,0.931,0.274,0.067,-7.752,1.953,-16.785,
00:00:03:316,0.926,0.276,0.065,-7.996,1.831,-17.029,
00:00:03:333,0.933,0.27,0.061,-5.738,6.042,-20.386,
00:00:03:350,0.941,0.268,0.057,-10.132,6.652,-21.851,
00:00:03:366,0.941,0.276,0.062,-11.475,2.136,-21.302,
00:00:03:383,0.939,0.281,0.066,-10.315,-0.123,-22.278,
00:00:03:400,0.937,0.287,0.064,-6.836,3.54,-20.997,
00:00:03:416,0.934,0.283,0.066,-2.381,3.845,-20.997,
00:00:03:433,0.934,0.281,0.071,0.61,5.31,-19.654,
00:00:03:450,0.937,0.279,0.071,0.732,6.591,-20.203,
00:00:03:466,0.939,0.276,0.065,4.943,7.69,-20.691,
00:00:03:483,0.939,0.271,0.066,6.347,4.15,-20.142,
00:00:03:500,0.965,0.267,0.077,5.676,4.394,-20.569,
00:00:03:516,0.934,0.266,0.069,1.098,6.042,-20.203,
00:00:03:533,0.937,0.272,0.068,-3.54,5.493,-21.424,
00:00:03:550,0.941,0.274,0.06,-5.249,6.042,-23.621,
00:00:03:566,0.939,0.273,0.059,-5.433,0.732,-18.494,
00:00:03:583,0.932,0.276,0.057,-4.456,3.967,-16.541,
00:00:03:600,0.932,0.278,0.053,1.037,6.652,-16.724,
00:00:03:616,0.932,0.274,0.061,5.859,7.202,-15.442,
00:00:03:633,0.934,0.268,0.031,3.784,6.103,-14.649,
00:00:03:650,0.936,0.27,0.07,-1.77,4.333,-17.456,
00:00:03:666,0.933,0.27,0.072,-6.714,2.136,-16.602,
00:00:03:683,0.93,0.274,0.077,-16.053,0.549,-18.311,
00:00:03:700,0.921,0.281,0.075,-15.32,-1.343,-20.997,
00:00:03:716,0.909,0.291,0.072,3.723,-0.916,-16.48,
00:00:03:733,0.902,0.292,0.067,24.353,10.986,-21.729,
00:00:03:750,0.914,0.299,0.073,55.725,12.756,-18.311,
00:00:03:766,0.937,0.287,0.091,67.077,10.07,-20.02,
00:00:03:783,0.953,0.262,0.1,39.55,6.469,-17.029,
00:00:03:800,0.967,0.228,0.084,-20.508,-6.409,-12.818,
00:00:03:816,0.965,0.256,0.076,-91.126,-14.893,-9.461,
00:00:03:833,0.961,0.296,0.072,-85.144,-11.719,-26.246,
00:00:03:850,0.977,0.332,0.051,-72.022,12.573,-55.115,
00:00:03:866,1.051,0.436,0.142,-3.357,48.584,-90.577,
00:00:03:883,1.128,0.541,0.33,121.765,80.383,-91.126,
00:00:03:900,1.097,0.591,0.768,280.09,23.132,13.061,
00:00:03:916,1.05,0.611,0.905,283.569,-35.645,190.002,
00:00:03:933,1.135,0.862,1.191,204.223,-161.56,343.2,
00:00:03:950,1.338,1.137,1.4,220.764,-249.512,420.898,
00:00:03:966,1.617,1.388,1.461,443.054,-433.35,547.119,
00:00:03:983,1.837,1.447,1.589,704.162,-745.057,669.738,
00:00:04:0,1.963,1.36,1.735,888.549,-981.385,801.269,
00:00:04:16,2.129,1.325,1.911,939.514,-1155.518,972.351,
00:00:04:33,2.345,1.379,2.002,941.101,-1316.895,1108.032,
00:00:04:50,2.659,1.456,1.802,1031.189,-1519.715,1140.38,
00:00:04:66,2.874,1.441,1.293,1175.781,-1876.832,1066.772,
00:00:04:83,2.839,1.307,0.926,1419.983,-2000,1039.001,
00:00:04:100,2.618,1.239,0.688,1581.115,-2000,1003.784,
00:00:04:116,2.386,1.134,0.506,1553.466,-2000,907.898,
00:00:04:133,2.269,1.118,0.382,1349.731,-2000,813.659,
00:00:04:150,2.171,1.092,0.245,1058.899,-2000,813.659,
00:00:04:166,1.998,1.054,0.101,854.858,-2000,926.513,
00:00:04:183,1.798,1.029,0.001,843.383,-2000,1057.067,
00:00:04:200,1.541,0.923,-0.113,959.045,-2000,1140.625,
00:00:04:216,1.323,0.81,-0.126,1075.866,-2000,1178.588,
00:00:04:233,1.153,0.58,-0.144,1074.951,-2000,1129.943,
00:00:04:250,0.997,0.407,-0.193,958.191,-2000,1094.482,
00:00:04:266,0.828,0.332,-0.221,840.088,-2000,1075.683,
00:00:04:283,0.64,0.276,-0.309,781.067,-2000,1040.039,
00:00:04:300,0.44,0.138,-0.386,763.488,-2000,990.6,
00:00:04:316,0.247,-0.024,-0.448,723.022,-2000,914.428,
00:00:04:333,0.045,-0.197,-0.533,671.447,-1845.704,818.603,
00:00:04:350,-0.072,-0.349,-0.569,586.547,-1693.421,714.965,
00:00:04:366,-0.203,-0.414,-0.571,436.157,-1492.798,617.797,
00:00:04:383,-0.284,-0.419,-0.566,279.724,-1249.329,499.878,
00:00:04:400,-0.309,-0.435,-0.633,170.166,-1019.715,365.844,
00:00:04:416,-0.336,-0.507,-0.684,133.3,-802.185,293.579,
00:00:04:433,-0.372,-0.564,-0.717,91.186,-587.281,239.074,
00:00:04:450,-0.409,-0.572,-0.718,29.663,-396.851,193.359,
00:00:04:466,-0.402,-0.532,-0.702,-3.663,-180.176,133.606,
00:00:04:483,-0.353,-0.504,-0.661,-5.005,18.981,77.636,
00:00:04:500,-0.294,-0.494,-0.601,-44.922,190.734,16.418,
00:00:04:516,-0.23,-0.491,-0.551,-146.18,349.67,-42.481,
00:00:04:533,-0.169,-0.451,-0.495,-319.947,503.051,-90.394,
00:00:04:550,-0.142,-0.419,-0.454,-489.624,639.526,-118.775,
00:00:04:566,-0.15,-0.341,-0.402,-561.768,772.338,-125.916,
00:00:04:583,-0.11,-0.278,-0.367,-564.27,925.964,-160.889,
00:00:04:600,0,-0.254,-0.376,-598.633,1052.246,-209.229,
00:00:04:616,0.068,-0.279,-0.474,-778.077,1123.108,-225.525,
00:00:04:633,-0.006,-0.284,-0.457,-1102.967,1154.785,-188.599,
00:00:04:650,-0.082,-0.319,-0.367,-1515.137,1317.016,-267.579,
00:00:04:666,0.023,-0.237,-0.2,-1904.603,1580.566,-482.972,
00:00:04:683,0.312,-0.098,-0.073,-2000,1743.591,-720.887,
00:00:04:700,0.507,0.124,0.018,-2000,1731.567,-948.853,
00:00:04:716,0.441,0.317,-0.148,-2000,1789.55,-1221.375,
00:00:04:733,0.452,0.496,-0.312,-2000,1873.23,-1521.912,
00:00:04:750,0.621,0.619,-0.372,-1999.451,1876.037,-1826.966,
00:00:04:766,0.85,0.839,-0.24,-1851.38,1836.364,-2000,
00:00:04:783,1.05,1.167,0,-1631.165,1818.847,-2000,
00:00:04:800,1.124,1.364,0.239,-1484.803,1904.785,-2000,
00:00:04:816,1.161,1.202,0.264,-1394.837,1999.694,-2000,
00:00:04:833,1.357,0.953,0.293,-1606.141,1999.694,-2000,
00:00:04:850,1.56,1.082,0.541,-1907.166,1999.694,-2000,
00:00:04:866,1.628,1.853,0.58,-1911.744,1999.694,-2000,
00:00:04:883,1.607,2.412,0.427,-1561.219,1999.694,-2000,
00:00:04:900,1.832,2.052,0.238,-1392.151,1999.694,-2000,
00:00:04:916,2.134,1.376,-0.195,-1500.611,1888.733,-2000,
00:00:04:933,2.27,1.224,-0.148,-1937.256,1467.712,-2000,
00:00:04:950,2.171,2.106,0.176,-1317.872,1213.928,-1679.688,
00:00:04:966,2.123,2.154,0.222,-451.416,1122.253,-1776.795,
00:00:04:983,2.125,2.117,0.135,403.747,959.9,-1805.604,
00:00:05:0,2.435,1.652,1.355,976.135,394.409,-1657.471,
00:00:05:16,3.999,1.592,2.626,-2000,-141.48,1070.373,
00:00:05:33,1.052,3.51,0.906,-1998.841,-1800.721,1093.75,
00:00:05:50,-0.299,1.545,-0.042,-238.465,-1023.865,163.635,
00:00:05:66,-0.091,0.635,-0.039,865.417,376.464,-223.999,
00:00:05:83,0.713,0.458,0.03,1201.049,1068.237,-510.804,
00:00:05:100,1.294,0.278,-0.374,1143.066,996.338,-435.975,
00:00:05:116,1.395,0.065,-0.474,1027.221,248.108,-151.307,
00:00:05:133,0.955,-0.068,-0.33,810.73,-331.91,47.607,
00:00:05:150,0.627,-0.028,-0.273,400.39,-439.942,104.553,
00:00:05:166,0.505,0.067,-0.331,102.905,-259.156,53.955,
00:00:05:183,0.608,0.11,-0.395,-18.982,-79.163,-45.35,
00:00:05:200,0.793,0.133,-0.392,-155.091,-40.833,-82.947,
00:00:05:216,0.866,0.231,-0.36,-221.741,-88.013,-18.128,
00:00:05:233,0.83,0.368,-0.27,-161.011,-81.482,-18.189,
00:00:05:250,0.823,0.51,-0.137,-1.77,25.756,-47.791,
00:00:05:266,0.916,0.639,-0.01,206.726,155.151,-84.717,
00:00:05:283,1.054,0.632,0.109,412.536,159.668,-65.857,
00:00:05:300,1.119,0.45,0.174,405.212,22.888,71.838,
00:00:05:316,1.059,0.308,0.167,394.226,-221.924,235.046,
00:00:05:333,0.922,0.249,0.196,422.668,-287.964,311.096,
00:00:05:350,0.841,0.118,0.186,479.431,-215.516,275.207,
00:00:05:366,0.793,0.255,0.322,85.815,-283.204,311.401,
00:00:05:383,0.772,0.464,0.371,-361.817,-206.849,356.384,
00:00:05:400,0.793,0.709,0.252,-480.408,-120.85,343.872,
00:00:05:416,0.86,0.878,0.144,-322.327,-81.849,337.463,
00:00:05:433,0.934,0.885,0.038,-117.31,-121.094,424.56,
00:00:05:450,0.947,0.971,0.027,-57.618,-211.976,555.175,
00:00:05:466,0.911,0.993,-0.02,-90.394,-231.385,637.695,
00:00:05:483,0.735,0.789,0.012,16.906,-250.794,761.291,
00:00:05:500,0.673,0.691,0.019,32.47,-223.633,783.752,
00:00:05:516,0.634,0.701,0.028,-13.489,-149.231,777.71,
00:00:05:533,0.638,0.69,0.008,-21.851,-106.507,721.557,
00:00:05:550,0.67,0.589,0.048,-54.017,-87.708,688.598,
00:00:05:566,0.66,0.502,-0.005,-124.329,-48.218,707.397,
00:00:05:583,0.652,0.631,-0.097,-226.563,-21.668,720.886,
00:00:05:600,0.647,0.792,-0.123,-247.559,-20.691,627.868,
00:00:05:616,0.641,0.732,0.018,-134.278,-34.485,571.411,
00:00:05:633,0.627,0.606,0.094,-18.86,-15.076,522.155,
00:00:05:650,0.58,0.595,0.04,100.219,51.025,483.154,
00:00:05:666,0.571,0.624,-0.032,244.384,115.478,418.457,
00:00:05:683,0.628,0.546,-0.039,296.63,105.957,334.472,
00:00:05:700,0.637,0.553,0.052,281.799,91.43,296.447,
00:00:05:716,0.615,0.593,0.09,243.591,155.029,224.304,
00:00:05:733,0.611,0.625,0.069,295.715,240.6,160.278,
00:00:05:750,0.624,0.608,0.041,392.028,317.321,70.251,
00:00:05:766,0.655,0.564,-0.056,466.491,360.046,-7.874,
00:00:05:783,0.688,0.563,-0.038,495.483,334.777,-50.11,
00:00:05:800,0.666,0.53,0.047,434.387,303.1,-68.604,
00:00:05:816,0.674,0.592,0.1,403.137,323.425,-124.817,
00:00:05:833,0.691,0.584,0.04,341.552,324.463,-134.888,
00:00:05:850,0.706,0.665,0.008,317.871,268.676,-151.795,
00:00:05:866,0.689,0.691,0.072,341.186,153.137,-124.329,
00:00:05:883,0.651,0.681,0.285,295.227,70.007,-96.68,
00:00:05:900,0.615,0.775,0.282,272.033,83.923,-117.31,
00:00:05:916,0.611,0.651,0.154,140.869,108.398,-100.769,
00:00:05:933,0.698,0.676,0.138,-156.556,68.054,-68.909,
00:00:05:950,0.654,0.81,0.138,-362.854,15.808,-23.865,
00:00:05:966,0.587,0.807,0.135,-380.982,22.033,-24.598,
00:00:05:983,0.596,0.685,0.128,-342.408,32.165,-19.288,
00:00:06:0,0.619,0.773,0.103,-284.852,102.295,44.799,
00:00:06:16,0.608,0.855,-0.006,-289.795,156.189,39.245,
00:00:06:33,0.619,0.885,-0.07,-242.554,188.11,61.706,
00:00:06:50,0.669,0.844,0.037,-307.007,112.304,93.383,
00:00:06:66,0.638,0.906,0.082,-439.515,104.675,140.869,
00:00:06:83,0.58,0.939,0.118,-361.084,135.131,128.54,
00:00:06:100,0.561,0.743,0.152,-198.426,139.282,97.961,
00:00:06:116,0.509,0.796,0.013,-106.385,177.368,96.435,
00:00:06:133,0.53,0.817,-0.089,-209.412,131.591,122.741,
00:00:06:150,0.587,0.798,-0.053,-447.51,108.703,98.571,
00:00:06:166,0.581,0.827,0,-428.833,57.739,111.084,
00:00:06:183,0.505,0.919,0.023,-332.215,34.973,107.91,
00:00:06:200,0.505,0.92,0.084,-295.411,4.333,87.951,
00:00:06:216,0.517,0.896,-0.003,-237.671,38.269,65.368,
00:00:06:233,0.615,0.83,-0.08,-155.762,12.085,64.148,
00:00:06:250,0.803,1.234,0.037,-261.109,-71.961,117.004,
00:00:06:266,0.608,1.226,0.038,-37.964,-72.205,186.035,
00:00:06:283,0.571,1.046,-0.035,104.004,54.382,140.747,
00:00:06:300,0.719,1.035,-0.091,175.232,96.862,165.71,
00:00:06:316,0.728,1.106,-0.055,218.2,104.919,208.374,
00:00:06:333,0.717,1.154,-0.084,260.131,148.071,260.192,
00:00:06:350,0.745,1.146,-0.115,136.84,141.723,294.983,
00:00:06:366,0.747,1.186,-0.083,-96.558,134.155,364.807,
00:00:06:383,0.682,1.298,-0.08,-230.103,147.4,455.871,
00:00:06:400,0.646,1.391,-0.019,-187.745,206.359,531.005,
00:00:06:416,0.578,1.411,-0.067,-33.753,287.414,629.272,
00:00:06:433,0.568,1.345,-0.155,58.654,295.166,681.213,
00:00:06:450,0.529,1.206,-0.096,39.672,198.486,757.507,
00:00:06:466,0.455,1.304,-0.123,-48.035,186.889,846.252,
00:00:06:483,0.405,1.424,-0.095,-68.97,217.163,890.197,
00:00:06:500,0.367,1.373,-0.074,183.105,294.86,963.195,
00:00:06:516,0.292,1.21,-0.141,287.353,333.923,1011.657,
00:00:06:533,0.224,1.075,-0.205,279.419,325.561,1022.583,
00:00:06:550,0.179,1.059,-0.216,75.927,309.814,1033.935,
00:00:06:566,0.134,1.107,-0.286,-175.232,321.045,1035.644,
00:00:06:583,0.122,1.201,-0.242,-125.916,316.894,1057.129,
00:00:06:600,0.058,1.121,-0.137,127.441,344.665,1062.072,
00:00:06:616,-0.05,0.971,-0.181,224.975,412.658,1041.626,
00:00:06:633,-0.06,0.844,-0.158,-2.198,440.246,990.234,
00:00:06:650,-0.093,0.945,-0.22,-192.933,433.838,986.633,
00:00:06:666,-0.2,0.938,-0.182,-211.792,406.372,968.872,
00:00:06:683,-0.327,0.928,-0.151,18.859,459.716,908.203,
00:00:06:700,-0.365,0.895,-0.133,214.904,559.814,808.41,
00:00:06:716,-0.3,0.795,-0.091,344.36,614.135,639.587,
00:00:06:733,-0.237,0.736,-0.04,507.507,650.817,563.049,
00:00:06:750,-0.206,0.609,0.023,556.274,644.287,494.69,
00:00:06:766,-0.207,0.556,0.007,473.327,628.54,480.468,
00:00:06:783,-0.217,0.514,0.056,267.151,573.547,380.554,
00:00:06:800,-0.231,0.591,0.071,199.646,555.359,350.586,
00:00:06:816,-0.188,0.474,0.1,263.488,502.014,308.654,
00:00:06:833,-0.209,0.418,0.215,277.832,427.429,345.886,
00:00:06:850,-0.273,0.466,0.221,209.167,368.347,364.807,
00:00:06:866,-0.311,0.501,0.125,88.562,306.457,314.697,
00:00:06:883,-0.368,0.565,0.074,70.007,259.704,284.179,
00:00:06:900,-0.31,0.623,0.101,101.501,232.116,269.043,
00:00:06:916,-0.344,0.678,0.169,156.616,204.162,277.526,
00:00:06:933,-0.398,0.679,0.167,253.296,186.584,302.185,
00:00:06:950,-0.414,0.639,0.16,284.057,158.935,297.485,
00:00:06:966,-0.426,0.645,0.164,296.081,149.292,284.668,
00:00:06:983,-0.446,0.623,0.169,273.01,131.347,270.446,
00:00:07:0,-0.448,0.705,0.199,317.749,126.892,268.188,drinkRH
00:00:07:16,-0.432,0.648,0.217,318.664,125.061,261.596,
00:00:07:33,-0.484,0.673,0.207,269.592,100.463,267.456,
00:00:07:50,-0.494,0.676,0.245,248.169,89.111,252.685,
00:00:07:66,-0.507,0.667,0.273,208.801,93.2,230.957,
00:00:07:83,-0.51,0.661,0.273,183.838,98.266,215.088,
00:00:07:100,-0.545,0.726,0.28,188.537,101.196,206.237,
00:00:07:116,-0.548,0.723,0.265,195.312,90.21,184.936,
00:00:07:133,-0.573,0.747,0.299,216.491,84.655,180.664,
00:00:07:150,-0.589,0.744,0.356,261.169,94.055,171.325,
00:00:07:166,-0.588,0.661,0.354,270.752,103.027,156.921,
00:00:07:183,-0.603,0.744,0.345,255.859,101.928,154.358,
00:00:07:200,-0.636,0.724,0.298,233.093,87.158,142.944,
00:00:07:216,-0.657,0.769,0.333,235.962,71.044,148.559,
00:00:07:233,-0.65,0.776,0.328,276.733,83.679,143.615,
00:00:07:250,-0.653,0.738,0.359,285.949,106.018,148.071,
00:00:07:266,-0.683,0.759,0.379,297.485,127.624,166.931,
00:00:07:283,-0.697,0.774,0.348,276.367,133.972,176.391,
00:00:07:300,-0.715,0.821,0.363,279.297,146.85,187.805,
00:00:07:316,-0.679,0.8,0.394,333.984,168.396,189.697,
00:00:07:333,-0.654,0.73,0.425,385.864,185.547,213.562,
00:00:07:350,-0.659,0.708,0.458,414.184,199.951,239.196,
00:00:07:366,-0.7,0.653,0.468,391.479,204.895,242.797,
00:00:07:383,-0.698,0.672,0.51,388.855,214.599,227.05,
00:00:07:400,-0.694,0.659,0.534,424.56,227.539,210.815,
00:00:07:416,-0.679,0.604,0.52,475.647,223.938,217.59,
00:00:07:433,-0.664,0.613,0.537,482.605,210.571,223.449,
00:00:07:450,-0.671,0.579,0.514,430.359,209.472,224.06,
00:00:07:466,-0.653,0.65,0.481,407.653,221.13,219.177,
00:00:07:483,-0.631,0.617,0.492,443.664,228.393,222.168,
00:00:07:500,-0.593,0.549,0.491,490.783,229.858,240.051,
00:00:07:516,-0.604,0.534,0.532,519.226,223.755,259.887,
00:00:07:533,-0.599,0.468,0.595,509.399,221.801,264.953,
00:00:07:550,-0.599,0.437,0.61,487.243,208.191,268.615,
00:00:07:566,-0.598,0.387,0.604,445.251,193.481,272.583,
00:00:07:583,-0.605,0.405,0.582,407.226,178.711,271.972,
00:00:07:600,-0.616,0.377,0.578,418.823,175.048,266.357,
00:00:07:616,-0.623,0.348,0.575,439.697,175.903,267.944,
00:00:07:633,-0.605,0.369,0.632,454.528,182.312,269.165,
00:00:07:650,-0.594,0.281,0.662,424.804,179.626,270.935,
00:00:07:666,-0.598,0.291,0.654,345.031,169.86,271.972,
00:00:07:683,-0.612,0.304,0.625,297.79,161.438,267.151,
00:00:07:700,-0.622,0.324,0.609,319.458,168.274,255.92,
00:00:07:716,-0.598,0.272,0.672,378.051,169.25,254.76,
00:00:07:733,-0.61,0.207,0.748,402.771,165.527,257.568,
00:00:07:750,-0.625,0.139,0.769,369.873,157.226,248.352,
00:00:07:766,-0.628,0.151,0.755,329.406,147.033,228.759,
00:00:07:783,-0.625,0.177,0.746,338.684,139.404,221.496,
00:00:07:800,-0.605,0.162,0.747,357.116,144.348,209.289,
00:00:07:816,-0.596,0.112,0.748,351.257,149.536,204.467,
00:00:07:833,-0.602,0.122,0.755,336.303,153.503,206.726,
00:00:07:850,-0.593,0.12,0.754,337.036,151.489,195.861,
00:00:07:866,-0.606,0.126,0.746,323.791,148.62,192.993,
00:00:07:883,-0.59,0.095,0.749,321.106,148.559,186.035,
00:00:07:900,-0.59,0.094,0.729,327.087,152.832,187.988,
00:00:07:916,-0.569,0.084,0.762,367.553,158.935,197.692,
00:00:07:933,-0.552,0.054,0.8,392.395,159.179,209.9,
00:00:07:950,-0.57,0.01,0.837,377.441,153.686,219.848,
00:00:07:966,-0.576,0.016,0.814,335.632,147.705,232.299,
00:00:07:983,-0.588,0.06,0.809,351.989,147.644,249.023,
00:00:08:0,-0.56,0.022,0.788,371.765,151.611,250.732,
00:00:08:16,-0.537,-0.024,0.782,406.738,150.268,246.582,
00:00:08:33,-0.528,-0.092,0.788,395.385,143.066,219.238,
00:00:08:50,-0.521,-0.141,0.79,395.324,139.77,226.074,
00:00:08:66,-0.498,-0.179,0.813,399.78,127.685,232.36,
00:00:08:83,-0.52,-0.211,0.821,362.976,120.056,222.656,
00:00:08:100,-0.514,-0.248,0.792,308.96,109.314,199.401,
00:00:08:116,-0.504,-0.226,0.752,276.55,103.454,175.171,
00:00:08:133,-0.496,-0.193,0.76,264.77,102.478,154.419,
00:00:08:150,-0.492,-0.2,0.768,253.112,108.154,132.446,
00:00:08:166,-0.474,-0.206,0.808,249.084,112.609,114.196,
00:00:08:183,-0.453,-0.25,0.799,227.661,111.755,96.923,
00:00:08:200,-0.425,-0.31,0.78,208.435,90.637,92.346,
00:00:08:216,-0.407,-0.302,0.779,173.095,65.246,74.035,
00:00:08:233,-0.451,-0.346,0.758,164.245,49.682,65.368,
00:00:08:250,-0.478,-0.385,0.766,89.111,33.386,37.17,
00:00:08:266,-0.474,-0.328,0.802,65.551,19.958,13.427,
00:00:08:283,-0.469,-0.303,0.869,66.04,9.216,4.882,
00:00:08:300,-0.478,-0.277,0.874,63.598,2.38,7.202,
00:00:08:316,-0.497,-0.267,0.834,39.245,-2.381,17.578,
00:00:08:333,-0.506,-0.262,0.775,60.974,-4.822,34.973,
00:00:08:350,-0.497,-0.258,0.786,92.407,-1.893,46.875,
00:00:08:366,-0.494,-0.288,0.805,113.952,5.676,43.457,
00:00:08:383,-0.5,-0.308,0.853,114.135,8.056,37.658,
00:00:08:400,-0.515,-0.307,0.872,97.9,6.042,33.081,
00:00:08:416,-0.526,-0.295,0.849,81.176,3.051,28.381,
00:00:08:433,-0.524,-0.306,0.795,83.252,9.277,26.123,
00:00:08:450,-0.501,-0.305,0.801,54.565,12.207,20.568,
00:00:08:466,-0.507,-0.316,0.797,56.701,19.104,15.564,
00:00:08:483,-0.494,-0.32,0.799,54.992,21.484,11.047,
00:00:08:500,-0.494,-0.318,0.788,73.852,24.658,4.455,
00:00:08:516,-0.486,-0.319,0.786,115.661,23.986,-2.198,
00:00:08:533,-0.472,-0.35,0.818,101.928,25.207,-16.663,
00:00:08:550,-0.465,-0.327,0.823,81.298,23.01,-17.029,
00:00:08:566,-0.473,-0.331,0.821,59.326,16.845,-20.874,
00:00:08:583,-0.463,-0.356,0.788,20.813,10.803,-21.79,
00:00:08:600,-0.455,-0.341,0.796,-21.058,-5.31,-14.832,
00:00:08:616,-0.466,-0.322,0.819,-44.922,-22.095,-19.349,
00:00:08:633,-0.475,-0.339,0.83,-57.862,-36.316,-26.978,
00:00:08:650,-0.489,-0.325,0.812,-58.167,-42.176,-18.86,
00:00:08:666,-0.5,-0.295,0.827,-29.297,-45.166,-4.944,
00:00:08:683,-0.513,-0.29,0.835,-1.16,-40.162,1.892,
00:00:08:700,-0.511,-0.294,0.842,-4.334,-31.25,5.92,
00:00:08:716,-0.504,-0.284,0.847,-19.165,-28.565,5.554,
00:00:08:733,-0.514,-0.266,0.822,-5.616,-24.414,8.728,
00:00:08:750,-0.534,-0.278,0.805,41.503,-22.706,13.916,
00:00:08:766,-0.523,-0.283,0.831,88.012,-16.663,5.737,
00:00:08:783,-0.516,-0.331,0.849,101.928,-13.733,-3.602,
00:00:08:800,-0.512,-0.332,0.84,73.669,-16.358,-10.315,
00:00:08:816,-0.532,-0.352,0.828,39.55,-17.579,-9.949,
00:00:08:833,-0.526,-0.34,0.789,18.676,-13.123,-17.945,
00:00:08:850,-0.518,-0.354,0.769,19.714,-7.142,-25.696,
00:00:08:866,-0.51,-0.337,0.765,14.099,0.488,-36.377,
00:00:08:883,-0.509,-0.361,0.774,-0.916,5.371,-45.533,
00:00:08:900,-0.509,-0.349,0.793,-24.964,4.943,-50.904,
00:00:08:916,-0.507,-0.335,0.821,-26.978,8.3,-55.603,
00:00:08:933,-0.49,-0.334,0.835,-39.368,11.962,-66.04,
00:00:08:950,-0.488,-0.335,0.824,-53.284,8.178,-69.153,
00:00:08:966,-0.495,-0.321,0.798,-69.092,-0.245,-68.604,
00:00:08:983,-0.502,-0.311,0.791,-78.064,-7.996,-65.735,
00:00:09:0,-0.5,-0.289,0.786,-62.745,-18.128,-66.407,
00:00:09:16,-0.474,-0.323,0.79,-55.603,-29.602,-65.796,
00:00:09:33,-0.457,-0.334,0.791,-65.735,-48.768,-66.529,
00:00:09:50,-0.487,-0.355,0.759,-97.535,-61.707,-64.82,
00:00:09:66,-0.534,-0.315,0.765,-119.69,-67.627,-69.031,
00:00:09:83,-0.541,-0.318,0.769,-118.531,-61.219,-88.807,
00:00:09:100,-0.534,-0.343,0.78,-132.508,-54.444,-108.155,
00:00:09:116,-0.471,-0.336,0.797,-165.101,-49.683,-132.386,
00:00:09:133,-0.484,-0.324,0.81,-186.341,-46.143,-149.476,
00:00:09:150,-0.474,-0.292,0.812,-212.403,-43.396,-167.969,
00:00:09:166,-0.482,-0.277,0.797,-238.038,-46.692,-187.317,
00:00:09:183,-0.486,-0.22,0.79,-242.432,-54.139,-204.59,
00:00:09:200,-0.489,-0.237,0.77,-219.971,-65.918,-222.29,
00:00:09:216,-0.465,-0.264,0.724,-229.248,-73.365,-237.61,
00:00:09:233,-0.461,-0.266,0.698,-284.058,-82.276,-254.761,
00:00:09:250,-0.486,-0.208,0.695,-323.853,-80.018,-275.452,
00:00:09:266,-0.499,-0.211,0.723,-318.36,-84.595,-296.021,
00:00:09:283,-0.475,-0.195,0.724,-331.788,-92.53,-324.036,
00:00:09:300,-0.429,-0.219,0.731,-340.882,-110.779,-359.192,
00:00:09:316,-0.422,-0.241,0.759,-400.208,-122.376,-386.109,
00:00:09:333,-0.444,-0.212,0.773,-494.08,-132.569,-403.687,
00:00:09:350,-0.519,-0.139,0.76,-553.162,-155.701,-414.978,
00:00:09:366,-0.547,-0.102,0.709,-566.651,-179.749,-448.975,
00:00:09:383,-0.475,-0.114,0.6,-588.257,-202.942,-496.766,
00:00:09:400,-0.442,-0.045,0.62,-613.099,-208.924,-523.682,
00:00:09:416,-0.476,0.045,0.645,-622.193,-188.416,-531.861,
00:00:09:433,-0.498,0.093,0.66,-648.682,-195.13,-522.522,
00:00:09:450,-0.497,0.072,0.595,-683.533,-217.591,-536.133,
00:00:09:466,-0.466,0.012,0.501,-792.298,-257.142,-545.411,
00:00:09:483,-0.476,0.183,0.562,-878.113,-286.866,-556.641,
00:00:09:500,-0.475,0.243,0.584,-872.742,-311.951,-562.867,
00:00:09:516,-0.484,0.291,0.569,-852.967,-351.319,-550.11,
00:00:09:533,-0.447,0.281,0.495,-833.68,-404.236,-539.978,
00:00:09:550,-0.427,0.228,0.37,-858.887,-470.398,-536.255,
00:00:09:566,-0.541,0.356,0.386,-941.224,-504.639,-524.292,
00:00:09:583,-0.59,0.429,0.395,-913.575,-511.902,-527.649,
00:00:09:600,-0.557,0.396,0.411,-891.846,-512.696,-512.024,
00:00:09:616,-0.537,0.361,0.351,-857.483,-514.222,-500.611,
00:00:09:633,-0.513,0.447,0.345,-838.868,-514.466,-504.456,
00:00:09:650,-0.51,0.499,0.249,-841.37,-542.298,-537.293,
00:00:09:666,-0.504,0.532,0.151,-920.166,-608.46,-577.942,
00:00:09:683,-0.535,0.496,0.027,-1009.217,-680.603,-631.165,
00:00:09:700,-0.505,0.608,0.076,-1045.228,-696.778,-692.627,
00:00:09:716,-0.467,0.813,0.157,-913.636,-657.166,-714.051,
00:00:09:733,-0.454,0.829,0.164,-708.863,-616.394,-721.68,
00:00:09:750,-0.464,0.776,0.036,-569.336,-638.062,-708.313,
00:00:09:766,-0.479,0.678,-0.156,-675.599,-710.877,-716.309,
00:00:09:783,-0.543,0.696,-0.182,-774.537,-780.335,-769.959,
00:00:09:800,-0.504,0.906,-0.06,-677.247,-748.475,-845.276,
00:00:09:816,-0.44,0.967,-0.018,-402.832,-661.072,-908.265,
00:00:09:833,-0.474,0.85,-0.096,-172.73,-577.637,-922.364,
00:00:09:850,-0.45,0.572,-0.227,-532.227,-580.445,-991.333,
00:00:09:866,-0.388,0.698,-0.31,-1002.808,-621.949,-1035.279,
00:00:09:883,-0.344,1.003,-0.234,-1035.645,-641.175,-1068.238,
00:00:09:900,-0.315,1.048,-0.071,-671.204,-596.802,-1083.863,
00:00:09:916,-0.282,0.844,-0.143,-163.086,-534.974,-1071.778,
00:00:09:933,-0.288,0.724,-0.157,96.801,-508.667,-993.348,
00:00:09:950,-0.208,0.816,-0.251,-183.35,-523.682,-1014.954,
00:00:09:966,0.068,1.001,-0.433,-703.98,-606.873,-1012.757,
00:00:09:983,0.149,1.326,-0.237,-941.773,-724.671,-1080.323,
00:00:10:0,0.077,1.712,-0.095,-564.27,-528.992,-1080.384,
00:00:10:16,-0.09,1.696,-0.249,38.208,-300.843,-934.144,
00:00:10:33,-0.13,1.439,-0.414,328.735,-252.076,-824.097,
00:00:10:50,0.083,1.345,-0.525,33.996,-265.809,-898.56,
00:00:10:66,0.237,1.465,-0.378,-250.061,-380.188,-901.551,
00:00:10:83,0.105,1.421,-0.162,-3.846,-358.765,-831.788,
00:00:10:100,0.072,1.183,-0.159,455.139,-172.242,-803.467,
00:00:10:116,0.189,1.203,-0.315,752.624,-60.852,-744.751,
00:00:10:133,0.399,0.98,-0.361,364.135,-97.718,-790.284,
00:00:10:150,0.411,1.038,-0.218,-51.636,-249.756,-808.716,
00:00:10:166,0.395,1.179,0.041,-75.623,-238.648,-722.962,
00:00:10:183,0.337,1.025,-0.172,59.57,-144.471,-723.755,
00:00:10:200,0.417,1.02,-0.289,258.361,-139.344,-698.548,
00:00:10:216,0.489,1.159,-0.276,436.279,-190.369,-646.79,
00:00:10:233,0.522,0.908,-0.342,142.822,-198.609,-647.644,
00:00:10:250,0.593,0.956,-0.14,-57.068,-251.587,-650.635,
00:00:10:266,0.513,1.059,-0.172,61.828,-178.833,-572.815,
00:00:10:283,0.533,0.89,-0.235,237.548,-120.118,-552.185,
00:00:10:300,0.613,0.906,-0.17,232.849,-136.414,-511.353,
00:00:10:316,0.592,0.893,-0.135,93.75,-165.833,-493.287,
00:00:10:333,0.6,0.907,-0.063,-2.259,-181.519,-479.432,
00:00:10:350,0.61,0.915,-0.142,-6.714,-151.612,-429.322,
00:00:10:366,0.647,0.922,-0.164,-1.038,-152.771,-403.016,
00:00:10:383,0.635,0.971,-0.151,85.144,-156.617,-332.154,
00:00:10:400,0.633,0.892,-0.166,83.618,-123.475,-297.608,
00:00:10:416,0.667,0.853,-0.179,21.484,-102.601,-287.415,
00:00:10:433,0.683,0.861,-0.174,-22.034,-95.276,-254.212,
00:00:10:450,0.671,0.86,-0.17,-11.231,-74.585,-218.628,
00:00:10:466,0.664,0.869,-0.155,17.334,-57.129,-182.312,
00:00:10:483,0.658,0.834,-0.137,3.051,-54.566,-160.096,
00:00:10:500,0.632,0.83,-0.12,-25.147,-46.204,-140.931,
00:00:10:516,0.619,0.855,-0.138,-23.743,-27.039,-125.428,
00:00:10:533,0.607,0.805,-0.152,-16.236,-41.321,-85.511,
00:00:10:550,0.595,0.759,-0.219,-236.084,-18.738,-75.867,
00:00:10:566,0.529,1.025,-0.177,-11.048,13.732,-13.794,
00:00:10:583,0.696,0.597,-0.071,-117.31,-122.254,-10.132,
00:00:10:600,0.672,0.738,-0.042,-185.303,-123.78,-3.907,
00:00:10:616,0.647,0.777,-0.045,-144.104,-105.103,-2.503,
00:00:10:633,0.644,0.77,-0.046,-96.192,-93.873,-13.428,
00:00:10:650,0.629,0.825,-0.062,-46.631,-67.2,-22.4,
00:00:10:666,0.659,0.814,-0.077,64.392,-59.815,-42.481,
00:00:10:683,0.718,0.768,-0.005,159.546,-95.093,-52.43,
00:00:10:700,0.758,0.664,-0.023,103.393,-109.62,-71.228,
00:00:10:716,0.876,0.696,-0.045,-5.921,-130.677,-100.831,
00:00:10:733,0.881,0.634,-0.063,-94.056,-194.031,-123.047,
00:00:10:750,0.851,0.632,-0.117,-114.869,-212.647,-106.202,
00:00:10:766,0.819,0.583,-0.145,-126.831,-287.171,-116.333,
00:00:10:783,0.805,0.587,-0.111,-34.668,-303.528,-81.788,
00:00:10:800,0.808,0.585,-0.073,44.494,-310.425,-115.662,
00:00:10:816,0.827,0.581,-0.035,89.904,-276.368,-169.739,
00:00:10:833,0.822,0.623,-0.089,95.52,-212.22,-189.942,
00:00:10:850,0.813,0.619,-0.135,175.781,-223.267,-209.229,
00:00:10:866,0.802,0.523,-0.078,242.431,-293.946,-251.343,
00:00:10:883,0.768,0.445,-0.093,265.38,-270.752,-250.672,
00:00:10:900,0.796,0.474,-0.04,146.667,-300.477,-232.666,
00:00:10:916,0.747,0.458,0.051,-47.547,-313.477,-280.213,
00:00:10:933,0.691,0.534,0.09,-187.928,-194.336,-333.191,
00:00:10:950,0.693,0.532,0.116,-261.78,-71.412,-441.773,
00:00:10:966,0.685,0.545,0.093,-254.029,48.4,-508.606,
00:00:10:983,0.662,0.556,0.061,-207.642,135.07,-587.647,
00:00:11:0,0.679,0.673,-0.165,12.39,265.319,-842.652,
00:00:11:16,0.67,0.69,-0.078,97.839,282.043,-903.199,
00:00:11:33,0.658,0.616,0.019,129.272,286.804,-941.651,
00:00:11:50,0.663,0.543,0.022,119.873,329.284,-945.923,
00:00:11:66,0.673,0.522,-0.044,114.013,372.131,-937.561,
00:00:11:83,0.709,0.503,-0.095,36.743,378.784,-927.308,
00:00:11:100,0.775,0.514,-0.116,-17.823,340.454,-903.26,
00:00:11:116,0.812,0.522,-0.136,18.005,248.169,-865.113,
00:00:11:133,0.833,0.452,-0.047,147.888,162.841,-818.848,
00:00:11:150,0.821,0.419,-0.034,275.879,171.875,-758.851,
00:00:11:166,0.828,0.425,-0.078,263.61,240.417,-631.409,
00:00:11:183,1.147,0.619,0.143,-701.783,-165.162,-285.523,
00:00:11:200,1.042,0.737,0.011,-499.817,-257.447,-161.683,
00:00:11:216,0.959,0.612,-0.124,-253.907,-231.995,-164.307,
00:00:11:233,0.91,0.388,-0.191,-157.41,-183.899,-116.517,
00:00:11:250,0.904,0.294,-0.234,-292.908,-137.635,-23.987,
00:00:11:266,0.855,0.389,-0.106,-74.341,-37.72,88.44,
00:00:11:283,0.861,0.27,-0.097,60.791,31.25,93.139,
00:00:11:300,0.905,0.231,-0.058,127.685,74.401,102.722,
00:00:11:316,0.939,0.25,-0.046,192.077,67.627,89.111,
00:00:11:333,0.965,0.229,-0.034,207.092,42.053,38.879,
00:00:11:350,0.984,0.073,-0.041,143.676,2.014,-10.498,
00:00:11:366,1.008,0.047,-0.042,22.522,-59.693,1.586,
00:00:11:383,0.965,0.11,-0.072,-75.928,-96.924,18.798,
00:00:11:400,0.916,0.208,-0.068,-66.773,-76.722,21.24,
00:00:11:416,0.912,0.228,-0.087,-25.391,-24.353,-24.659,
00:00:11:433,0.952,0.21,-0.088,19.592,15.564,-39.612,
00:00:11:450,0.908,0.292,-0.013,7.08,31.127,4.638,
00:00:11:466,0.922,0.308,-0.048,139.953,72.204,-11.963,
00:00:11:483,0.958,0.268,-0.034,240.905,103.942,-27.283,
00:00:11:500,0.98,0.236,-0.027,205.993,54.138,-30.274,
00:00:11:516,0.962,0.221,-0.062,135.437,16.052,-15.748,
00:00:11:533,0.915,0.24,-0.075,60.546,19.043,-5.616,
00:00:11:550,0.916,0.265,-0.079,65.307,26.306,-9.949,
00:00:11:566,0.929,0.24,-0.083,41.809,20.996,-14.893,
00:00:11:583,0.94,0.223,-0.079,-6.775,24.047,-15.381,
00:00:11:600,0.94,0.243,-0.076,-8.423,30.09,-6.531,
00:00:11:616,0.943,0.258,-0.057,-3.663,29.357,-10.193,
00:00:11:633,0.957,0.247,-0.034,17.7,31.677,-13.55,
00:00:11:650,0.955,0.243,-0.033,16.906,20.446,-14.588,
00:00:11:666,0.948,0.238,-0.044,24.169,12.268,-23.56,
00:00:11:683,0.94,0.227,-0.053,32.165,14.404,-22.95,
00:00:11:700,0.939,0.249,-0.077,45.044,13.305,-25.269,
00:00:11:716,0.945,0.246,-0.082,57.495,19.897,-29.786,
00:00:11:733,0.951,0.237,-0.081,52.551,22.399,-31.067,
00:00:11:750,0.953,0.245,-0.079,32.775,15.93,-29.114,
00:00:11:766,0.942,0.239,-0.072,7.873,12.573,-21.79,
00:00:11:783,0.928,0.255,-0.059,-3.54,10.864,-11.231,
00:00:11:800,0.917,0.254,-0.061,3.601,19.958,-10.621,
00:00:11:816,0.926,0.253,-0.046,13.183,30.334,-11.597,
00:00:11:833,0.946,0.243,-0.062,31.86,42.724,-17.579,
00:00:11:850,0.962,0.229,-0.066,40.527,39.917,-18.677,
00:00:11:866,0.971,0.231,-0.058,24.536,24.475,-0.428,
00:00:11:883,0.956,0.255,-0.056,24.292,9.399,-13.123,
00:00:11:900,0.948,0.271,-0.048,68.786,19.714,-17.945,
00:00:11:916,1.006,0.371,0.021,208.007,24.475,-51.148,
00:00:11:933,1.031,0.372,0.007,270.507,49.621,-94.422,
00:00:11:950,1.069,0.478,0.11,327.453,17.028,-90.271,
00:00:11:966,1.095,0.793,0.401,466.43,-100.586,13,
00:00:11:983,1.34,0.665,0.886,242.309,-182.618,369.445,
00:00:12:0,1.676,0.905,0.905,-275.635,-382.63,634.46,
00:00:12:16,1.871,1.697,1.107,-380.555,-673.035,990.356,
00:00:12:33,1.89,2.169,1.375,-66.59,-763.672,1222.107,
00:00:12:50,2.157,2.156,1.425,293.213,-858.033,1378.723,
00:00:12:66,2.456,1.879,1.407,460.449,-1112.244,1601.44,
00:00:12:83,2.603,1.778,1.186,600.097,-1401.49,1860.412,
00:00:12:100,2.64,1.93,0.931,877.136,-1779.053,1999.511,
00:00:12:116,2.55,1.851,0.811,1285.461,-2000,1986.389,
00:00:12:133,2.547,1.694,0.712,1625.549,-2000,1857.971,
00:00:12:150,2.54,1.458,0.385,1694.885,-2000,1710.205,
00:00:12:166,2.405,1.573,0.114,1650.268,-2000,1666.809,
00:00:12:183,2.324,1.61,0.019,1675.415,-2000,1646.606,
00:00:12:200,2.174,1.405,-0.125,1745.483,-2000,1661.926,
00:00:12:216,1.948,1.105,-0.114,1709.228,-2000,1727.478,
00:00:12:233,1.724,0.826,-0.06,1519.409,-2000,1754.394,
00:00:12:250,1.582,0.674,-0.113,1289.856,-2000,1748.718,
00:00:12:266,1.405,0.593,-0.194,1073.547,-2000,1741.211,
00:00:12:283,1.214,0.501,-0.283,973.755,-2000,1699.463,
00:00:12:300,0.997,0.368,-0.374,978.82,-2000,1650.085,
00:00:12:316,0.783,0.108,-0.461,1011.169,-2000,1545.166,
00:00:12:333,0.569,-0.139,-0.474,925.048,-2000,1411.499,
00:00:12:350,0.394,-0.27,-0.471,692.382,-2000,1268.249,
00:00:12:366,0.236,-0.315,-0.488,474.609,-2000,1165.344,
00:00:12:383,0.102,-0.383,-0.509,284.24,-1853.638,1057.067,
00:00:12:400,-0.011,-0.401,-0.423,129.15,-1622.315,928.222,
00:00:12:416,-0.042,-0.414,-0.453,49.865,-1351.38,801.452,
00:00:12:433,-0.061,-0.528,-0.537,12.451,-1088.99,703.796,
00:00:12:450,-0.145,-0.714,-0.704,-105.774,-888.367,649.292,
00:00:12:466,-0.31,-0.85,-0.804,-369.324,-714.905,634.338,
00:00:12:483,-0.452,-0.816,-0.759,-608.643,-509.034,561.096,
00:00:12:500,-0.481,-0.67,-0.723,-549.5,-267.212,438.049,
00:00:12:516,-0.486,-0.608,-0.696,-243.775,-36.805,352.844,
00:00:12:533,-0.505,-0.672,-0.622,103.21,152.099,313.903,
00:00:12:550,-0.49,-0.808,-0.569,286.316,366.333,210.632,
00:00:12:566,-0.309,-0.785,-0.479,83.129,662.292,-54.322,
00:00:12:583,-0.247,-0.742,-0.418,-76.539,727.661,-159.913,
00:00:12:600,-0.209,-0.719,-0.346,-239.991,807.678,-278.931,
00:00:12:616,-0.152,-0.696,-0.312,-432.618,903.808,-395.325,
00:00:12:633,-0.071,-0.625,-0.296,-651.062,1004.821,-498.719,
00:00:12:650,-0.023,-0.521,-0.375,-781.861,1096.557,-564.087,
00:00:12:666,-0.011,-0.307,-0.424,-703.553,1148.681,-593.873,
00:00:12:683,-0.019,-0.131,-0.381,-484.864,1252.502,-649.17,
00:00:12:700,0.041,-0.046,-0.31,-301.941,1459.289,-698.731,
00:00:12:716,0.136,-0.009,-0.155,-226.929,1645.874,-751.648,
00:00:12:733,0.252,-0.036,-0.031,-402.649,1776.428,-810.303,
00:00:12:750,0.322,-0.057,-0.023,-648.56,1841.674,-907.471,
00:00:12:766,0.307,-0.049,0.029,-986.084,1914.55,-988.16,
00:00:12:783,0.274,0.008,0.079,-1326.111,1999.572,-1083.069,
00:00:12:800,0.336,0.122,0.234,-1738.221,1999.694,-1252.259,
00:00:12:816,0.598,0.463,0.213,-2000,1999.694,-1539.734,
00:00:12:833,0.79,0.953,0.357,-2000,1999.694,-1712.281,
00:00:12:850,0.927,1.342,0.42,-1769.043,1999.694,-1999.939,
00:00:12:866,0.994,1.322,0.497,-1359.925,1999.694,-2000,
00:00:12:883,1.094,1.113,0.508,-1420.044,1999.694,-2000,
00:00:12:900,1.27,0.845,0.248,-1728.638,1999.694,-2000,
00:00:12:916,1.466,0.974,0.392,-1958.863,1999.694,-2000,
00:00:12:933,1.434,1.407,0.477,-1716.37,1876.587,-2000,
00:00:12:950,1.238,1.849,1.048,-1152.955,1625.732,-1827.881,
00:00:12:966,1.422,1.367,0.634,-1130.494,1999.694,-2000,
00:00:12:983,1.985,1.19,0.261,-1063.416,1937.744,-2000,
00:00:13:0,2.077,1.158,0.124,-830.811,1526.733,-2000,
00:00:13:16,2.04,1.223,0.276,-405.213,1293.579,-1862.671,
00:00:13:33,1.89,1.085,0.332,16.296,1151.55,-1720.643,
00:00:13:50,1.83,0.842,0.244,184.387,1118.652,-1585.572,
00:00:13:66,1.893,0.54,0.193,-15.198,1126.403,-1381.47,
00:00:13:83,1.992,0.417,0.269,-440.552,1057.617,-1054.566,
00:00:13:100,1.966,0.485,0.226,-767.151,871.948,-684.205,
00:00:13:116,1.957,0.641,0.224,-1036.499,701.355,-409.668,
00:00:13:133,1.983,1.028,0.505,-1186.463,438.293,-235.962,
00:00:13:150,1.828,0.592,0.579,-1637.269,213.989,-163.575,
00:00:13:166,1.344,1.504,0.828,-2000,-368.47,632.873,
00:00:13:183,0.947,1.681,0.751,-1244.324,-419.739,338.928,
00:00:13:200,0.673,1.194,0.397,-198.548,-107.056,138.244,
00:00:13:216,0.731,0.756,0.09,509.643,215.21,-21.302,
00:00:13:233,0.89,0.431,0.001,868.347,288.208,-65.918,
00:00:13:250,0.921,0.376,-0.135,910.766,190.368,84.716,
00:00:13:266,0.865,0.329,-0.189,753.296,-34.241,96.801,
00:00:13:283,0.775,0.312,-0.153,595.337,-156.25,148.742,
00:00:13:300,0.736,0.359,-0.126,502.441,-129.273,165.649,
00:00:13:316,0.744,0.377,-0.184,445.556,-46.509,160.888,
00:00:13:333,0.815,0.435,-0.213,426.818,26.306,169.067,
00:00:13:350,0.883,0.405,-0.215,449.34,45.593,178.344,
00:00:13:366,0.883,0.305,-0.218,401.855,52.612,166.442,
00:00:13:383,0.87,0.32,-0.214,249.878,52.795,244.629,
00:00:13:400,0.876,0.488,-0.131,164.978,50.17,312.683,
00:00:13:416,0.909,0.724,0.117,258.178,-15.564,350.952,
00:00:13:433,0.879,0.841,0.176,540.283,75.195,326.904,
00:00:13:450,0.93,0.829,0.097,899.841,212.524,294.983,
00:00:13:466,1.027,0.55,0.001,1104.98,207.885,301.269,
00:00:13:483,1.107,0.32,-0.006,951.294,97.045,474.121,
00:00:13:500,1.09,0.326,-0.023,518.554,-35.645,647.338,
00:00:13:516,0.991,0.433,-0.005,146.24,-165.955,716.797,
00:00:13:533,0.864,0.5,0.029,-74.524,-193.055,698.547,
00:00:13:550,0.794,0.509,0.024,-137.33,-131.348,659.24,
00:00:13:566,0.763,0.458,-0.039,-106.141,-103.15,647.949,
00:00:13:583,0.758,0.46,-0.041,28.808,-117.31,623.962,
00:00:13:600,0.769,0.52,0,65.795,-145.081,665.344,
00:00:13:616,0.75,0.557,-0.018,114.318,-154.664,630.249,
00:00:13:633,0.721,0.563,-0.017,182.006,-98.938,540.771,
00:00:13:650,0.727,0.5,0.022,394.714,-115.296,502.38,
00:00:13:666,0.72,0.439,0.102,620.483,-108.216,486.999,
00:00:13:683,0.686,0.354,0.099,630.127,-88.99,514.831,
00:00:13:700,0.656,0.454,0.034,456.421,-30.091,444.58,
00:00:13:716,0.684,0.618,0.013,334.289,-9.888,309.57,
00:00:13:733,0.73,0.502,0.07,299.865,-92.652,242.37,
00:00:13:750,0.729,0.4,0.173,129.76,-126.893,236.328,
00:00:13:766,0.73,0.504,0.176,-144.104,-85.694,225.525,
00:00:13:783,0.745,0.671,0.101,-234.498,-45.044,210.144,
00:00:13:800,0.756,0.713,0.085,-198.426,-26.307,178.527,
00:00:13:816,0.746,0.648,0.106,-123.719,-17.456,180.114,
00:00:13:833,0.728,0.677,0.097,-65.918,3.601,196.106,
00:00:13:850,0.748,0.708,0.17,-42.847,19.531,202.026,
00:00:13:866,0.743,0.684,0.156,-65.674,72.326,204.04,
00:00:13:883,0.756,0.655,0.074,-139.771,99.609,197.754,
00:00:13:900,0.783,0.569,0.075,-288.88,35.522,201.355,
00:00:13:916,0.754,0.604,0.095,-466.004,6.347,206.787,
00:00:13:933,0.727,0.742,0.11,-471.68,32.592,192.505,
00:00:13:950,0.732,0.69,0.086,-303.772,18.432,130.249,
00:00:13:966,0.685,0.671,0.034,-128.357,1.037,98.083,
00:00:13:983,0.636,0.705,0.015,-51.88,-14.954,63.293,
00:00:14:0,0.64,0.708,0.017,-67.994,-11.17,44.311,
00:00:14:16,0.624,0.74,0.053,-127.32,7.629,61.462,
00:00:14:33,0.608,0.761,0.017,-144.959,40.344,62.805,
00:00:14:50,0.597,0.786,0.014,-84.717,41.259,79.589,
00:00:14:66,0.572,0.86,0.069,-23.011,44.372,87.158,
00:00:14:83,0.55,0.815,0.069,-8.057,91.796,73.059,
00:00:14:100,0.578,0.805,0.021,-50.477,84.045,64.575,
00:00:14:116,0.56,0.839,0.024,-53.162,58.166,70.373,
00:00:14:133,0.521,0.871,0.008,-23.56,60.363,74.462,
00:00:14:150,0.514,0.872,0.027,52.795,80.871,58.105,
00:00:14:166,0.482,0.796,0.053,122.802,85.937,42.114,
00:00:14:183,0.499,0.729,-0.007,103.088,105.468,-13.001,
00:00:14:200,0.517,0.677,-0.001,56.457,70.983,-74.891,
00:00:14:216,0.544,0.757,0.03,78.369,55.175,-106.202,
00:00:14:233,0.589,0.789,0.09,125.671,56.457,-105.469,
00:00:14:250,0.597,0.779,0.082,99.182,86.547,-106.812,
00:00:14:266,0.611,0.783,0.037,29.296,104.675,-114.258,
00:00:14:283,0.625,0.771,-0.009,-27.771,100.525,-105.469,
00:00:14:300,0.656,0.764,-0.026,-195.801,70.312,-75.44,
00:00:14:316,0.64,0.745,0.011,-405.03,27.038,-45.166,
00:00:14:333,0.642,0.807,0.136,-466.492,2.807,-21.119,
00:00:14:350,0.597,0.839,0.108,-298.706,35.278,-25.635,
00:00:14:366,0.592,0.811,-0.02,-178.345,69.641,-43.335,
00:00:14:383,0.608,0.815,-0.097,-139.954,68.481,-10.193,
00:00:14:400,0.601,0.874,-0.039,-92.041,53.1,-0.672,
00:00:14:416,0.592,0.83,-0.018,-8.667,72.998,5.981,
00:00:14:433,0.584,0.836,0.05,72.204,91.796,2.685,
00:00:14:450,0.562,0.873,0.065,146.85,149.475,-17.273,
00:00:14:466,0.583,0.77,0.039,160.095,198.974,-64.27,
00:00:14:483,0.588,0.698,0.008,162.414,194.275,-96.985,
00:00:14:500,0.566,0.687,-0.072,130.371,195.373,-99.61,
00:00:14:516,0.593,0.794,0.061,199.768,181.64,-117.615,
00:00:14:533,0.538,0.778,-0.184,403.808,274.841,-195.74,
00:00:14:550,0.526,0.301,-0.166,93.566,246.154,-145.264,
00:00:14:566,0.751,0.82,-0.041,-255.372,137.024,-61.829,
00:00:14:583,0.653,0.98,-0.055,-186.524,15.502,38.452,
00:00:14:600,0.569,0.771,0.078,-93.262,-17.64,12.817,
00:00:14:616,0.564,0.808,-0.054,-97.657,45.288,25.329,
00:00:14:633,0.575,0.837,-0.167,-45.044,38.208,9.765,
00:00:14:650,0.55,0.828,-0.172,64.086,14.831,16.723,
00:00:14:666,0.545,0.684,-0.099,50.964,-0.489,17.395,
00:00:14:683,0.588,0.714,-0.02,-93.811,1.098,11.047,
00:00:14:700,0.582,0.819,-0.091,-189.637,25.695,13.061,
00:00:14:716,0.567,0.892,-0.062,-164.49,7.69,36.254,
00:00:14:733,0.566,0.879,-0.044,-88.623,5.737,61.096,
00:00:14:750,0.604,0.887,-0.044,-94.483,8.606,84.472,
00:00:14:766,0.643,0.791,-0.055,-239.136,5.92,94.055,
00:00:14:783,0.715,0.731,-0.097,-494.935,21.667,142.395,
00:00:14:800,0.784,1.117,-0.086,-403.565,-30.335,220.581,
00:00:14:816,0.713,1.248,0.005,-11.963,-21.729,243.347,
00:00:14:833,0.73,1.025,-0.03,416.381,110.901,220.886,
00:00:14:850,0.805,0.868,-0.076,488.83,168.213,269.348,
00:00:14:866,0.835,0.989,-0.104,222.168,152.649,340.698,
00:00:14:883,0.838,1.174,-0.076,-64.759,97.961,433.838,
00:00:14:900,0.765,1.222,-0.026,-216.98,80.993,507.385,
00:00:14:916,0.666,1.316,-0.06,-213.257,142.089,567.81,
00:00:14:933,0.57,1.42,-0.047,-16.785,216.797,649.109,
00:00:14:950,0.54,1.481,-0.16,104.858,280.456,700.744,
00:00:14:966,0.523,1.324,-0.219,187.622,279.907,752.868,
00:00:14:983,0.495,1.226,-0.128,222.168,201.843,835.449,
00:00:15:0,0.431,1.178,-0.013,198.059,155.334,856.811,
00:00:15:16,0.348,1.062,0.052,274.78,170.715,913.513,
00:00:15:33,0.27,1.093,-0.123,237.121,240.539,963.501,
00:00:15:50,0.274,1.127,-0.076,237.06,195.617,947.631,
00:00:15:66,0.212,1.098,-0.043,226.196,180.053,967.895,
00:00:15:83,0.144,1.026,-0.037,242.37,180.42,984.436,
00:00:15:100,0.134,1.104,-0.053,101.257,210.327,994.323,
00:00:15:116,0.125,1.152,-0.033,31.677,197.387,1003.357,
00:00:15:133,0.086,1.22,-0.103,80.2,225.097,1064.148,
00:00:15:150,0.017,1.275,-0.083,372.497,196.228,1102.844,
00:00:15:166,-0.046,1.17,-0.172,380.493,253.296,1074.89,
00:00:15:183,-0.095,1.154,-0.316,447.692,297.302,1077.514,
00:00:15:200,-0.087,1.123,-0.251,551.269,295.41,1063.232,
00:00:15:216,-0.076,1.018,-0.098,741.821,305.297,1032.226,
00:00:15:233,-0.097,0.792,-0.07,924.682,338.44,1023.315,
00:00:15:250,-0.085,0.725,0.018,825.622,311.706,1040.588,
00:00:15:266,-0.138,0.632,0.067,630.249,216.735,969.055,
00:00:15:283,-0.238,0.73,0.031,376.403,184.509,992.736,
00:00:15:300,-0.327,0.779,0.046,288.757,171.692,922.241,
00:00:15:316,-0.386,0.715,0.122,417.175,205.261,886.413,
00:00:15:333,-0.336,0.671,0.206,445.129,278.747,829.895,
00:00:15:350,-0.292,0.622,0.212,421.325,259.948,769.836,
00:00:15:366,-0.346,0.544,0.168,207.946,214.599,741.272,
00:00:15:383,-0.464,0.559,0.288,234.924,334.655,542.846,
00:00:15:400,-0.454,0.549,0.349,287.109,335.205,508.361,
00:00:15:416,-0.541,0.559,0.315,241.455,319.275,484.802,
00:00:15:433,-0.572,0.575,0.27,203.247,287.048,439.026,
00:00:15:450,-0.555,0.663,0.276,223.999,252.807,387.878,
00:00:15:466,-0.517,0.641,0.327,311.401,279.235,366.76,
00:00:15:483,-0.552,0.556,0.31,443.542,311.828,382.812,
00:00:15:500,-0.553,0.544,0.326,408.508,271.789,351.562,
00:00:15:516,-0.538,0.517,0.361,386.23,263.916,337.89,
00:00:15:533,-0.533,0.448,0.363,337.585,252.563,309.509,
00:00:15:550,-0.554,0.46,0.405,340.82,256.836,332.092,
00:00:15:566,-0.554,0.456,0.398,315.185,261.84,320.617,
00:00:15:583,-0.583,0.453,0.373,281.005,253.418,305.664,
00:00:15:600,-0.577,0.401,0.399,239.99,235.29,272.888,
00:00:15:616,-0.554,0.355,0.463,221.191,226.562,254.333,
00:00:15:633,-0.557,0.419,0.51,251.77,228.515,258.545,
00:00:15:650,-0.582,0.421,0.56,301.269,230.896,244.995,
00:00:15:666,-0.588,0.385,0.549,365.112,222.473,238.281,
00:00:15:683,-0.558,0.324,0.565,329.773,184.509,215.088,drinkRH
00:00:15:700,-0.573,0.34,0.552,321.899,176.818,208.13,
00:00:15:716,-0.569,0.241,0.613,190.368,140.625,162.414,
00:00:15:733,-0.591,0.256,0.625,135.131,125.732,147.766,
00:00:15:750,-0.573,0.282,0.647,121.46,101.928,139.16,
00:00:15:766,-0.606,0.3,0.623,119.506,91.674,128.296,
00:00:15:783,-0.629,0.3,0.582,110.534,73.425,114.807,
00:00:15:800,-0.611,0.304,0.525,125.244,55.847,104.37,
00:00:15:816,-0.608,0.34,0.553,146.728,40.649,97.106,
00:00:15:833,-0.62,0.306,0.602,161.377,41.32,87.585,
00:00:15:850,-0.646,0.331,0.634,136.352,39.978,75.561,
00:00:15:866,-0.646,0.299,0.63,119.995,22.277,68.298,
00:00:15:883,-0.651,0.337,0.652,105.224,12.939,72.631,
00:00:15:900,-0.688,0.322,0.631,62.316,1.586,55.847,
00:00:15:916,-0.709,0.36,0.595,66.894,2.746,60.974,
00:00:15:933,-0.737,0.371,0.684,158.874,52.49,68.542,
00:00:15:950,-0.728,0.374,0.689,186.645,73.669,78.125,
00:00:15:966,-0.758,0.364,0.756,140.319,67.077,71.716,
00:00:15:983,-0.779,0.437,0.754,211.914,81.176,134.399,
00:00:16:0,-0.786,0.443,0.71,242.859,90.148,143.188,
00:00:16:16,-0.777,0.413,0.679,298.401,113.525,154.48,
00:00:16:33,-0.776,0.38,0.733,313.903,125.122,161.56,
00:00:16:50,-0.758,0.376,0.788,342.529,145.935,188.232,
00:00:16:66,-0.73,0.354,0.794,378.051,158.02,214.843,
00:00:16:83,-0.715,0.309,0.737,421.753,168.64,244.567,
00:00:16:100,-0.718,0.265,0.694,454.712,181.274,261.779,
00:00:16:116,-0.699,0.22,0.673,475.525,195.678,281.067,
00:00:16:133,-0.692,0.167,0.721,441.04,204.162,264.282,
00:00:16:150,-0.673,0.128,0.774,419.494,208.374,248.047,
00:00:16:166,-0.643,0.156,0.746,388.733,197.876,237.365,
00:00:16:183,-0.646,0.083,0.78,392.273,175.354,236.511,
00:00:16:200,-0.648,0.083,0.77,401.184,186.218,244.629,
00:00:16:216,-0.644,0.043,0.737,402.526,198.303,226.623,
00:00:16:233,-0.615,0.046,0.705,394.409,202.697,208.618,
00:00:16:250,-0.636,0.053,0.668,355.041,197.143,210.876,
00:00:16:266,-0.625,0.078,0.698,358.154,204.712,194.458,
00:00:16:283,-0.57,-0.005,0.753,398.498,208.923,205.932,
00:00:16:300,-0.572,-0.051,0.742,387.268,195.434,226.745,
00:00:16:316,-0.563,-0.085,0.733,373.596,164.001,237.06,
00:00:16:333,-0.566,-0.052,0.734,395.08,143.371,248.962,
00:00:16:350,-0.549,-0.056,0.735,460.205,120.483,236.145,
00:00:16:366,-0.527,-0.103,0.781,467.712,96.374,212.89,
00:00:16:383,-0.507,-0.187,0.765,391.906,67.627,186.462,
00:00:16:400,-0.52,-0.235,0.776,313.049,37.353,196.96,
00:00:16:416,-0.549,-0.215,0.759,311.95,30.456,214.294,
00:00:16:433,-0.538,-0.211,0.754,338.256,43.762,201.294,
00:00:16:450,-0.516,-0.287,0.76,318.542,41.931,187.133,
00:00:16:466,-0.536,-0.289,0.726,256.836,41.687,196.899,
00:00:16:483,-0.55,-0.296,0.736,256.286,49.56,173.401,
00:00:16:500,-0.537,-0.302,0.767,259.094,59.57,171.875,
00:00:16:516,-0.558,-0.295,0.773,222.046,76.049,177.978,
00:00:16:533,-0.577,-0.266,0.775,216.613,86.669,160.156,
00:00:16:550,-0.547,-0.237,0.77,244.934,95.825,159.423,
00:00:16:566,-0.542,-0.278,0.749,267.273,97.9,160.095,
00:00:16:583,-0.519,-0.324,0.763,249.939,100.219,164.917,
00:00:16:600,-0.518,-0.315,0.773,246.338,101.318,178.833,
00:00:16:616,-0.505,-0.302,0.757,254.76,106.689,182.006,
00:00:16:633,-0.489,-0.322,0.759,259.094,101.013,178.588,
00:00:16:650,-0.484,-0.358,0.765,244.995,78.125,176.452,
00:00:16:667,-0.503,-0.382,0.775,257.324,85.937,172.302,
00:00:16:683,-0.466,-0.443,0.762,288.94,83.557,141.296,
00:00:16:700,-0.449,-0.436,0.738,333.191,87.097,128.357,
00:00:16:717,-0.436,-0.474,0.782,345.031,84.167,94.482,
00:00:16:733,-0.416,-0.502,0.787,285.278,79.773,91.613,
00:00:16:750,-0.422,-0.473,0.766,234.985,56.884,76.965,
00:00:16:767,-0.427,-0.475,0.759,213.379,46.691,48.889,
00:00:16:783,-0.406,-0.513,0.733,210.205,48.95,22.338,
00:00:16:800,-0.394,-0.543,0.716,182.556,44.982,12.329,
00:00:16:817,-0.418,-0.568,0.715,121.582,41.076,10.864,
00:00:16:833,-0.422,-0.533,0.704,76.294,39.123,7.385,
00:00:16:850,-0.421,-0.509,0.715,66.162,44.067,-1.221,
00:00:16:867,-0.431,-0.495,0.73,63.354,37.658,-11.048,
00:00:16:883,-0.454,-0.488,0.757,80.444,37.658,-6.592,
00:00:16:900,-0.45,-0.507,0.771,86.059,38.208,-15.748,
00:00:16:917,-0.433,-0.515,0.756,83.557,32.226,-23.011,
00:00:16:933,-0.446,-0.5,0.713,93.322,24.658,-14.527,
00:00:16:950,-0.467,-0.486,0.729,90.271,20.019,-21.851,
00:00:16:967,-0.466,-0.484,0.742,108.093,32.47,-21.607,
00:00:16:983,-0.447,-0.509,0.753,133.117,28.259,-22.522,
00:00:17:0,-0.449,-0.535,0.74,140.075,29.907,-14.466,
00:00:17:17,-0.441,-0.537,0.744,130.127,28.747,-22.156,
00:00:17:33,-0.428,-0.531,0.735,127.075,28.808,-25.208,
00:00:17:50,-0.425,-0.535,0.747,115.417,26.245,-26.734,
00:00:17:67,-0.437,-0.533,0.726,139.282,28.259,-17.395,
00:00:17:83,-0.443,-0.557,0.731,177.49,30.029,-20.874,
00:00:17:100,-0.421,-0.594,0.715,100.891,27.771,-24.17,
00:00:17:117,-0.429,-0.576,0.723,45.227,17.089,-35.706,
00:00:17:133,-0.441,-0.56,0.727,36.193,12.817,-33.509,
00:00:17:150,-0.437,-0.568,0.704,38.452,8.361,-41.443,
00:00:17:167,-0.441,-0.58,0.687,34.668,5.798,-38.697,
00:00:17:183,-0.441,-0.578,0.678,28.442,1.098,-41.443,
00:00:17:200,-0.435,-0.591,0.67,10.62,-2.137,-49.866,
00:00:17:217,-0.429,-0.596,0.686,-9.339,-5.127,-55.664,
00:00:17:233,-0.429,-0.582,0.686,-30.396,-8.423,-52.552,
00:00:17:250,-0.445,-0.587,0.686,-32.715,-12.452,-46.57,
00:00:17:267,-0.456,-0.576,0.711,-41.932,-9.4,-50.721,
00:00:17:283,-0.446,-0.549,0.751,-53.894,-9.095,-64.087,
00:00:17:300,-0.447,-0.537,0.768,-52.247,-14.283,-63.477,
00:00:17:317,-0.485,-0.54,0.745,-57.496,-25.208,-50.049,
00:00:17:333,-0.501,-0.535,0.706,-50.232,-20.752,-45.411,
00:00:17:350,-0.492,-0.514,0.694,-35.401,-10.437,-48.768,
00:00:17:367,-0.492,-0.509,0.704,-6.653,-4.395,-43.702,
00:00:17:383,-0.489,-0.516,0.722,23.742,4.455,-34.607,
00:00:17:400,-0.471,-0.544,0.736,26.245,7.385,-33.081,
00:00:17:417,-0.462,-0.564,0.725,3.723,9.521,-30.091,
00:00:17:433,-0.461,-0.569,0.698,-21.485,6.408,-36.805,
00:00:17:450,-0.462,-0.55,0.709,-32.837,3.418,-32.105,
00:00:17:467,-0.464,-0.545,0.708,-30.762,6.591,-39.124,
00:00:17:483,-0.444,-0.579,0.71,-35.645,4.272,-52.491,
00:00:17:500,-0.425,-0.578,0.699,-56.58,-2.808,-58.899,
00:00:17:517,-0.431,-0.516,0.709,-48.279,-14.405,-58.167,
00:00:17:533,-0.446,-0.52,0.713,-67.872,-23.438,-70.496,
00:00:17:550,-0.457,-0.53,0.732,-95.032,-30.884,-76.783,
00:00:17:567,-0.46,-0.52,0.752,-106.507,-32.532,-84.412,
00:00:17:583,-0.46,-0.537,0.753,-129.639,-31.8,-93.934,
00:00:17:600,-0.452,-0.525,0.748,-172.242,-33.081,-93.384,
00:00:17:617,-0.482,-0.491,0.74,-168.702,-36.438,-89.844,
00:00:17:633,-0.492,-0.498,0.717,-148.743,-31.922,-103.089,
00:00:17:650,-0.476,-0.516,0.707,-171.387,-28.626,-125.245,
00:00:17:667,-0.458,-0.491,0.727,-189.515,-24.292,-144.043,
00:00:17:683,-0.449,-0.46,0.735,-178.833,-21.607,-148.316,
00:00:17:700,-0.451,-0.466,0.736,-176.941,-20.813,-157.898,
00:00:17:717,-0.444,-0.474,0.717,-195.313,-20.569,-175.843,
00:00:17:733,-0.451,-0.487,0.691,-226.136,-33.387,-197.51,
00:00:17:750,-0.468,-0.48,0.702,-268.555,-39.002,-215.699,
00:00:17:767,-0.457,-0.458,0.706,-298.829,-36.011,-231.629,
00:00:17:783,-0.458,-0.422,0.729,-333.191,-43.213,-243.348,
00:00:17:800,-0.484,-0.412,0.719,-362,-47.791,-255.372,
00:00:17:817,-0.485,-0.403,0.712,-413.025,-50.599,-274.109,
00:00:17:833,-0.484,-0.361,0.725,-451.966,-60.425,-292.42,
00:00:17:850,-0.475,-0.335,0.718,-466.98,-65.918,-303.65,
00:00:17:867,-0.485,-0.305,0.718,-472.107,-70.862,-310.425,
00:00:17:883,-0.502,-0.288,0.685,-465.882,-78.125,-313.172,
00:00:17:900,-0.53,-0.289,0.675,-486.939,-81.788,-317.994,
00:00:17:917,-0.535,-0.222,0.694,-498.536,-81.604,-329.834,
00:00:17:933,-0.537,-0.166,0.703,-469.849,-83.374,-336.121,
00:00:17:950,-0.521,-0.136,0.697,-411.866,-82.947,-341.248,
00:00:17:967,-0.485,-0.128,0.715,-424.683,-85.083,-360.596,
00:00:17:983,-0.543,-0.12,0.769,-454.407,-93.262,-346.619,
00:00:18:0,-0.564,-0.083,0.846,-473.023,-100.037,-353.699,
00:00:18:17,-0.556,-0.104,0.831,-491.333,-114.075,-368.897,
00:00:18:33,-0.552,-0.13,0.737,-548.584,-127.015,-390.137,
00:00:18:50,-0.525,-0.11,0.643,-630.738,-153.077,-413.331,
00:00:18:67,-0.535,-0.011,0.608,-700.989,-173.218,-429.993,
00:00:18:83,-0.539,0.093,0.658,-693.421,-169.861,-451.722,
00:00:18:100,-0.525,0.112,0.679,-610.596,-162.354,-451.111,
00:00:18:117,-0.498,0.048,0.632,-553.711,-169.434,-450.806,
00:00:18:133,-0.519,0.053,0.619,-592.102,-186.646,-458.191,
00:00:18:150,-0.559,0.117,0.652,-684.327,-203.919,-500.611,
00:00:18:167,-0.582,0.18,0.663,-756.165,-210.755,-523.926,
00:00:18:183,-0.559,0.174,0.624,-797.974,-221.314,-537.415,
00:00:18:200,-0.528,0.196,0.588,-804.627,-218.628,-538.636,
00:00:18:217,-0.515,0.274,0.609,-804.444,-209.107,-551.087,
00:00:18:233,-0.533,0.352,0.585,-778.321,-229.187,-554.505,
00:00:18:250,-0.497,0.366,0.51,-756.653,-277.222,-569.947,
00:00:18:267,-0.449,0.331,0.427,-789.856,-328.186,-569.336,
00:00:18:283,-0.468,0.413,0.398,-809.144,-357.361,-567.627,
00:00:18:300,-0.492,0.453,0.421,-782.959,-352.051,-593.628,
00:00:18:317,-0.473,0.427,0.395,-728.455,-357.361,-585.389,
00:00:18:333,-0.438,0.437,0.388,-664.795,-375.794,-590.516,
00:00:18:350,-0.443,0.397,0.362,-681.946,-403.199,-619.324,
00:00:18:367,-0.503,0.441,0.325,-743.653,-441.651,-642.334,
00:00:18:383,-0.508,0.589,0.297,-711.487,-461.426,-697.388,
00:00:18:400,-0.476,0.556,0.235,-642.334,-485.291,-754.456,
00:00:18:417,-0.437,0.478,0.181,-562.378,-518.494,-804.017,
00:00:18:433,-0.412,0.453,0.004,-560.975,-568.787,-824.585,
00:00:18:450,-0.479,0.518,-0.025,-690.369,-621.338,-874.146,
00:00:18:467,-0.522,0.862,0.149,-679.017,-600.281,-944.214,
00:00:18:483,-0.381,0.776,0.11,-27.894,-431.58,-977.845,
00:00:18:500,-0.347,0.733,0.006,-379.09,-486.145,-991.761,
00:00:18:517,-0.41,0.83,0.161,-710.877,-530.457,-1016.846,
00:00:18:533,-0.385,1.08,0.258,-753.296,-467.652,-1026.612,
00:00:18:550,-0.355,1.205,0.09,-588.074,-387.33,-1061.341,
00:00:18:567,-0.373,1.159,0.046,-387.696,-357.056,-1034.974,
00:00:18:583,-0.333,0.922,-0.123,-608.582,-375.916,-997.376,
00:00:18:600,-0.173,1.094,-0.071,-981.812,-456.91,-957.886,
00:00:18:617,-0.188,1.284,-0.004,-918.641,-434.021,-904.297,
00:00:18:633,-0.147,1.243,-0.119,-627.015,-331.665,-894.288,
00:00:18:650,-0.17,1.13,-0.053,-301.392,-226.38,-860.413,
00:00:18:667,-0.194,1.141,-0.244,-191.346,-185.242,-879.09,
00:00:18:683,-0.063,1.073,-0.236,-450.806,-186.524,-847.657,
00:00:18:700,0.076,1.364,-0.279,-476.563,-194.642,-805.97,
00:00:18:717,0.027,1.391,-0.118,-226.258,-153.992,-771.18,
00:00:18:733,-0.051,1.303,-0.002,315.857,-32.715,-694.642,
00:00:18:750,-0.032,1.016,-0.164,554.016,57.19,-656.006,
00:00:18:767,0.16,0.978,-0.178,265.014,-19.532,-762.146,
00:00:18:783,0.236,1.161,-0.087,-9.339,-173.279,-761.719,
00:00:18:800,0.205,1.288,0.018,-3.968,-223.389,-714.661,
00:00:18:817,0.186,1.107,0.248,153.198,-217.347,-658.143,
00:00:18:833,0.179,0.996,0.124,313.232,-96.314,-625.489,
00:00:18:850,0.322,0.926,-0.153,223.327,-54.932,-637.879,
00:00:18:867,0.348,1.009,-0.135,52.551,-84.717,-641.602,
00:00:18:883,0.338,0.941,0.14,-4.944,-114.075,-646.607,
00:00:18:900,0.271,1.127,0.076,67.749,-33.875,-593.75,
00:00:18:917,0.377,1.038,0.003,144.958,21.057,-593.934,
00:00:18:933,0.437,0.968,-0.077,98.388,-18.189,-560.303,
00:00:18:950,0.461,1.036,-0.032,13.61,-71.595,-536.622,
00:00:18:967,0.487,0.986,0.051,18.615,-49.561,-465.332,
00:00:18:983,0.538,1.028,0.006,38.452,-26.246,-428.101,
00:00:19:0,0.568,0.953,-0.115,-34.241,-16.724,-389.771,
00:00:19:17,0.632,0.996,-0.031,-139.771,-66.224,-354.554,
00:00:19:33,0.605,1.086,0.003,11.108,17.7,-301.331,
00:00:19:50,0.592,0.991,-0.049,128.357,31.86,-270.203,
00:00:19:67,0.6,0.923,0.005,134.46,19.043,-253.235,
00:00:19:83,0.587,0.887,0.006,148.62,10.742,-232.483,
00:00:19:100,0.588,0.825,-0.018,96.374,-9.827,-239.991,
00:00:19:117,0.608,0.81,0.011,8.911,-17.701,-234.742,
00:00:19:133,0.611,0.853,-0.031,-5.127,-13.489,-208.924,
00:00:19:150,0.623,0.866,-0.005,9.643,-23.194,-193.543,
00:00:19:167,0.591,0.9,0.015,17.028,-0.428,-187.5,
00:00:19:183,0.598,0.92,-0.052,56.457,12.756,-179.017,
00:00:19:200,0.606,0.836,-0.04,16.601,-18.311,-163.697,
00:00:19:217,0.594,0.831,-0.032,-36.499,-29.175,-138.306,
00:00:19:233,0.599,0.866,-0.012,-71.045,-36.927,-132.081,
00:00:19:250,0.6,0.884,-0.044,-68.665,-27.527,-125.367,
00:00:19:267,0.561,0.839,-0.147,-329.468,-6.226,-77.82,
00:00:19:283,0.517,1.161,-0.165,-101.929,-22.278,-74.158,
00:00:19:300,0.605,0.861,-0.036,13.732,25.146,-26.307,
00:00:19:317,0.586,0.987,-0.042,96.252,26.794,11.23,
00:00:19:333,0.555,0.89,-0.036,188.781,43.518,-4.029,
00:00:19:350,0.586,0.789,-0.002,227.478,61.889,2.807,
00:00:19:367,0.61,0.756,0.006,201.355,62.072,-12.574,
00:00:19:383,0.616,0.732,0.01,169.555,49.926,-41.443,
00:00:19:400,0.608,0.658,0.006,144.653,47.668,-68.36,
00:00:19:417,0.623,0.665,0.025,86.975,34.301,-96.314,
00:00:19:433,0.582,0.716,0.031,69.824,37.353,-114.197,
00:00:19:450,0.606,0.828,-0.046,11.108,47.79,-83.13,
00:00:19:467,0.658,0.99,-0.109,-12.635,56.579,-61.768,
00:00:19:483,0.658,0.843,-0.01,27.465,-7.447,-45.777,
00:00:19:500,0.652,0.797,0.009,-27.1,-8.851,-40.162,
00:00:19:517,0.719,0.902,0,22.338,-32.593,-39.734,
00:00:19:533,0.753,0.947,0.09,124.267,-51.026,-24.903,
00:00:19:550,0.779,0.889,0.055,185.363,-36.805,-14.71,
00:00:19:567,0.806,0.756,-0.01,287.536,-98.755,-95.154,
00:00:19:583,0.872,0.676,0.015,362.365,-188.721,-132.63,
00:00:19:600,0.931,0.597,0.018,358.886,-266.907,-138.977,
00:00:19:617,1.002,0.501,0.025,242.248,-337.342,-128.907,
00:00:19:633,0.91,0.452,-0.014,-86.548,-486.329,-32.044,
00:00:19:650,0.79,0.423,-0.016,-222.657,-490.113,-60.181,
00:00:19:667,0.743,0.479,-0.069,-298.951,-432.496,-122.864,
00:00:19:683,0.714,0.498,-0.093,-307.373,-368.775,-216.126,
00:00:19:700,0.666,0.47,-0.072,-237.183,-289.246,-308.35,
00:00:19:717,0.605,0.46,-0.027,-174.317,-156.8,-401.185,
00:00:19:733,0.589,0.459,-0.109,-148.194,-32.471,-508.179,
00:00:19:750,0.589,0.551,-0.214,-89.051,44.189,-609.498,
00:00:19:767,0.571,0.587,-0.157,47.729,59.814,-695.069,
00:00:19:783,0.564,0.615,-0.062,163.818,60.302,-809.266,
00:00:19:800,0.575,0.646,0.016,231.994,92.346,-881.653,
00:00:19:817,0.582,0.635,0.091,208.374,130.066,-938.782,
00:00:19:833,0.619,0.69,0.144,62.683,161.255,-965.149,
00:00:19:850,0.631,0.723,0.14,-206.604,206.298,-991.15,
00:00:19:867,0.629,0.657,0.114,-533.326,228.942,-1010.682,
00:00:19:883,0.654,0.582,0.074,-824.036,240.234,-1018.067,
00:00:19:900,0.687,0.549,0.02,-998.475,239.502,-1004.273,
00:00:19:917,0.726,0.576,-0.042,-1060.853,214.233,-958.313,
00:00:19:933,0.747,0.614,-0.086,-1008.057,174.865,-907.166,
00:00:19:950,0.766,0.598,-0.057,-897.706,146.118,-887.879,
00:00:19:967,0.844,0.572,0.002,-714.905,98.083,-868.897,
00:00:19:983,0.911,0.59,-0.042,-498.841,65.612,-842.896,
00:00:20:0,0.964,0.581,-0.089,-321.045,15.564,-766.663,
00:00:20:17,1.009,0.515,-0.108,-175.721,-42.969,-721.863,
00:00:20:33,1.04,0.438,-0.139,-128.418,-82.825,-586.243,
00:00:20:50,1.091,0.384,-0.1,-298.462,-183.899,-401.673,
00:00:20:67,1.072,0.468,-0.1,-408.57,-252.564,-210.877,
00:00:20:83,1.017,0.413,0.002,-620.728,-135.926,61.218,
00:00:20:100,1.04,0.632,-0.057,-651.734,-63.294,266.784,
00:00:20:117,0.912,0.785,0.132,333.496,-103.699,-20.752,
00:00:20:133,0.908,0.41,0.087,666.32,6.53,-139.893,
00:00:20:150,1.039,0.197,0.035,733.276,-28.077,-150.208,
00:00:20:167,1.13,0.11,-0.019,614.318,-135.682,-60.975,
00:00:20:183,1.049,0.081,0.033,427.185,-154.664,141.723,
00:00:20:200,0.927,0.171,0.028,283.63,-108.582,214.782,
00:00:20:217,0.874,0.221,-0.007,233.154,-47.791,184.631,
00:00:20:233,0.901,0.237,-0.044,230.651,6.774,167.541,
00:00:20:250,0.938,0.235,-0.084,238.037,-17.945,162.963,
00:00:20:267,0.915,0.215,-0.1,234.436,-63.599,173.217,
00:00:20:283,0.875,0.195,-0.113,207.092,-103.028,162.414,
00:00:20:300,0.859,0.177,-0.115,170.654,-121.033,136.413,
00:00:20:317,0.858,0.155,-0.108,99.304,-136.719,121.582,
00:00:20:333,0.863,0.17,-0.089,23.62,-141.846,108.093,
00:00:20:350,0.861,0.214,-0.068,-42.298,-130.005,96.374,
00:00:20:367,0.85,0.263,-0.05,-62.684,-99.61,65.979,
00:00:20:383,0.843,0.298,-0.037,-44.617,-45.899,17.822,
00:00:20:400,0.87,0.316,-0.021,8.667,13.427,-31.8,
00:00:20:417,0.908,0.292,-0.03,69.946,63.842,-64.82,
00:00:20:433,0.937,0.318,0.042,197.692,85.205,-59.632,
00:00:20:450,0.909,0.289,0.044,206.115,161.499,-72.449,
00:00:20:467,0.967,0.227,0.118,98.877,204.589,-61.707,
00:00:20:483,1.041,0.211,0.138,-6.531,131.836,-16.419,
00:00:20:500,1.042,0.267,0.13,-44.495,33.569,6.103,
00:00:20:517,0.909,0.312,0.017,147.522,50.048,-43.396,
00:00:20:533,0.909,0.275,-0.007,171.264,47.668,-70.74,
00:00:20:550,0.947,0.252,-0.01,34.606,50.048,-80.689,
00:00:20:567,0.955,0.274,0.009,5.737,59.692,-56.275,
00:00:20:583,0.954,0.283,0.021,0.061,56.091,-47.608,
00:00:20:600,0.95,0.294,0.025,-16.541,47.546,-42.481,
00:00:20:617,0.947,0.312,0.024,-25.269,42.053,-36.072,
00:00:20:633,0.95,0.308,0.011,-13.001,55.664,-35.828,
00:00:20:650,0.965,0.288,-0.002,4.943,55.786,-35.279,
00:00:20:667,0.952,0.288,0.014,49.133,25.146,-12.94,
00:00:20:683,0.929,0.267,0.029,77.331,23.864,-13.855,
00:00:20:700,0.924,0.265,0.043,96.313,32.592,-16.907,
00:00:20:717,0.948,0.187,0.028,79.773,39.672,-47.974,
00:00:20:733,0.946,0.22,0.015,46.02,38.33,-49.988,
00:00:20:750,0.944,0.23,0.012,17.639,32.531,-52.002,
00:00:20:767,0.938,0.24,0.002,12.512,30.395,-45.96,
00:00:20:783,0.934,0.263,-0.005,-16.724,28.32,-40.833,
00:00:20:800,0.931,0.28,-0.014,-25.33,30.334,-44.922,
00:00:20:817,0.938,0.297,-0.021,-11.109,33.813,-40.467,
00:00:20:833,0.944,0.302,-0.028,14.831,35.034,-36.438,
00:00:20:850,0.956,0.308,-0.008,51.269,32.104,-26.001,
00:00:20:867,0.965,0.308,-0.012,55.053,49.011,-12.269,
00:00:20:883,0.948,0.319,-0.048,74.218,48.767,22.033,
00:00:20:900,0.944,0.539,0.274,240.905,-67.872,92.651,
00:00:20:917,1.002,1.079,0.911,534.118,-88.318,166.992,
00:00:20:933,1.045,1.353,0.597,717.224,61.828,301.635,
00:00:20:950,1.328,1.345,0.535,729.919,-91.492,410.034,
00:00:20:967,1.567,1.215,0.709,544.983,-351.441,700.5,
00:00:20:983,1.586,1.345,0.898,320.251,-492.31,1118.713,
00:00:21:0,1.561,1.629,1.113,131.408,-614.563,1461.609,
00:00:21:17,1.58,2.054,1.168,330.2,-644.104,1676.086,
00:00:21:33,1.741,2.169,1.037,786.926,-746.644,1725.83,
00:00:21:50,1.904,1.886,0.978,1240.417,-965.394,1718.628,
00:00:21:67,1.968,1.663,0.994,1539.734,-1241.333,1781.433,
00:00:21:83,1.972,1.611,1.141,1741.272,-1475.525,1843.322,
00:00:21:100,1.985,1.78,1.575,1983.154,-1632.874,1849.67,
00:00:21:117,2.147,1.84,1.802,1999.694,-1726.014,1720.092,
00:00:21:133,2.266,1.441,1.501,1999.694,-1897.339,1458.862,
00:00:21:150,2.465,1.225,1.047,1989.013,-2000,1333.679,
00:00:21:167,2.414,1.352,0.497,1653.503,-2000,1323.791,
00:00:21:183,2.07,1.512,0.333,1503.54,-2000,1341.613,
00:00:21:200,1.776,1.433,0.388,1421.02,-2000,1250.671,
00:00:21:217,1.615,1.25,0.437,1292.602,-2000,1281.128,
00:00:21:233,1.498,1.15,0.387,1143.249,-2000,1370.483,
00:00:21:250,1.392,1.092,0.235,1048.767,-2000,1423.584,
00:00:21:267,1.396,1.026,-0.079,1061.828,-2000,1366.699,
00:00:21:283,1.314,0.736,-0.253,1052.368,-2000,1283.569,
00:00:21:300,1.124,0.493,-0.322,987.243,-2000,1279.846,
00:00:21:317,0.851,0.326,-0.283,943.481,-2000,1283.752,
00:00:21:333,0.626,0.205,-0.228,879.882,-2000,1225.647,
00:00:21:350,0.531,0.063,-0.313,814.819,-1995.972,1097.473,
00:00:21:367,0.476,-0.095,-0.516,664.489,-1835.022,980.835,
00:00:21:383,0.394,-0.139,-0.635,380.798,-1734.375,902.221,
00:00:21:400,0.252,-0.166,-0.675,182.556,-1602.906,858.093,
00:00:21:417,0.11,-0.275,-0.74,109.802,-1448.975,845.153,
00:00:21:433,-0.008,-0.439,-0.745,117.981,-1283.265,822.387,
00:00:21:450,-0.122,-0.572,-0.766,129.882,-1107.911,817.932,
00:00:21:467,-0.249,-0.676,-0.797,155.334,-935.303,800.598,
00:00:21:483,-0.38,-0.764,-0.805,158.142,-737.732,735.778,
00:00:21:500,-0.463,-0.822,-0.779,146.911,-467.102,634.826,
00:00:21:517,-0.453,-0.86,-0.76,143.249,-200.684,469.787,
00:00:21:533,-0.394,-0.893,-0.737,131.897,25.39,340.881,
00:00:21:550,-0.353,-0.919,-0.717,100.158,203.064,237.732,
00:00:21:567,-0.33,-0.889,-0.719,22.338,372.863,125.488,
00:00:21:583,-0.296,-0.824,-0.74,-31.434,546.569,-15.076,
00:00:21:600,-0.259,-0.799,-0.736,-31.495,684.265,-135.987,
00:00:21:617,-0.225,-0.817,-0.718,-17.823,838.256,-264.71,
00:00:21:633,-0.172,-0.836,-0.687,-68.055,1015.014,-363.892,
00:00:21:650,-0.091,-0.768,-0.619,-181.824,1208.618,-472.779,
00:00:21:667,-0.011,-0.663,-0.555,-309.205,1399.658,-571.534,
00:00:21:683,0.071,-0.563,-0.522,-438.843,1593.872,-690.125,
00:00:21:700,0.167,-0.501,-0.527,-734.925,1764.709,-819.031,
00:00:21:717,0.259,-0.419,-0.454,-1190.064,1871.276,-913.025,
00:00:21:733,0.37,-0.245,-0.345,-1650.269,1956.787,-1021.058,
00:00:21:750,0.508,-0.024,-0.229,-1955.811,1999.633,-1141.785,
00:00:21:767,0.693,0.247,-0.091,-2000,1999.694,-1289.551,
00:00:21:783,0.835,0.483,-0.168,-2000,1999.694,-1515.137,
00:00:21:800,0.849,0.541,-0.371,-2000,1999.694,-1692.017,
00:00:21:817,0.981,0.808,-0.428,-2000,1999.694,-1776.185,
00:00:21:833,1.082,1.194,-0.352,-2000,1999.694,-1861.084,
00:00:21:850,1.008,1.257,-0.245,-1742.798,1999.694,-1999.939,
00:00:21:867,0.928,1.262,0.075,-1525.94,1999.694,-2000,
00:00:21:883,0.979,1.414,0.45,-1593.812,1999.694,-2000,
00:00:21:900,1.107,1.312,0.556,-1770.142,1999.694,-2000,
00:00:21:917,1.314,1.224,0.422,-1929.566,1999.694,-2000,
00:00:21:933,1.775,1.818,0.284,-1944.886,1999.694,-2000,
00:00:21:950,1.814,1.889,0.318,-1719.483,1771.728,-2000,
00:00:21:967,1.846,1.608,0.217,-1686.097,1445.739,-1974.122,
00:00:21:983,1.877,1.506,0.032,-1790.04,1194.885,-1759.827,
00:00:22:0,1.941,1.591,-0.148,-1697.571,932.739,-1628.052,
00:00:22:17,1.915,1.491,-0.261,-1365.296,648.01,-1549.012,
00:00:22:33,1.839,1.295,-0.34,-1209.229,413.513,-1492.188,
00:00:22:50,1.713,1.182,-0.499,-1266.907,260.62,-1356.873,
00:00:22:67,1.657,1.34,-0.587,-1197.388,145.996,-1358.521,
00:00:22:83,1.674,1.949,0.79,933.349,720.581,-1430.787,
00:00:22:100,3.118,-2.46,3.999,-2000,497.558,-1386.597,
00:00:22:117,3.154,3.786,-0.556,-2000,-346.314,1999.694,
00:00:22:133,0.346,3.989,0.872,-1135.56,-2000,380.371,
00:00:22:150,0.085,0.491,-0.054,1450.012,868.591,-219.422,
00:00:22:167,0.868,0.475,-0.231,1361.023,1065.063,-499.207,
00:00:22:183,1.253,0.338,-0.764,1239.868,839.843,-265.748,
00:00:22:200,1.154,0.175,-0.746,1126.342,-15.32,-101.197,
00:00:22:217,0.695,0.015,-0.454,971.191,-427.124,69.885,
00:00:22:233,0.475,-0.087,-0.319,688.659,-278.748,72.143,
00:00:22:250,0.766,-0.051,-0.376,225.341,213.989,0.488,
00:00:22:267,0.952,-0.02,-0.464,1.586,90.942,1.586,
00:00:22:283,0.91,0.057,-0.53,-179.078,-130.86,0.549,
00:00:22:300,0.862,0.123,-0.48,-271.79,-232.544,0.793,
00:00:22:317,0.894,0.226,-0.208,-174.744,-275.818,63.842,
00:00:22:333,1.034,-0.002,1.134,-464.905,146.85,129.028,
00:00:22:350,1.092,0.766,1.028,-368.287,346.13,321.594,
00:00:22:367,1.072,1.125,0.253,-290.223,242.859,90.271,
00:00:22:383,0.987,0.604,-0.11,122.924,-2.259,79.406,
00:00:22:400,0.881,0.516,-0.125,388.916,-174.622,66.589,
00:00:22:417,0.714,0.464,0.021,433.044,-158.753,-75.989,
00:00:22:433,0.64,0.537,-0.032,498.352,128.967,-60.425,
00:00:22:450,0.875,0.44,-0.074,525.573,7.629,324.585,
00:00:22:467,0.84,0.598,-0.073,63.232,6.836,586.486,
00:00:22:483,0.824,0.87,-0.255,-154.541,28.991,656.555,
00:00:22:500,0.892,0.978,-0.225,-60.669,-118.531,660.4,
00:00:22:517,0.835,0.779,-0.185,81.909,-169.678,698.12,
00:00:22:533,0.824,0.682,-0.088,191.589,-218.262,847.534,
00:00:22:550,0.844,0.755,0.02,203.674,-259.156,884.216,
00:00:22:567,0.779,0.754,0.053,221.679,-247.315,864.868,
00:00:22:583,0.693,0.67,0.03,185.241,-188.294,807.251,
00:00:22:600,0.722,0.612,0.048,104.736,-164.063,755.554,
00:00:22:617,0.707,0.548,-0.001,67.016,-110.23,700.5,
00:00:22:633,0.647,0.626,0.056,148.315,-65.186,660.705,
00:00:22:650,0.68,0.659,0.058,266.906,-34.363,587.341,
00:00:22:667,0.708,0.602,0.006,397.827,-69.581,489.013,
00:00:22:683,0.556,0.445,0.213,151.123,-70.679,369.567,
00:00:22:700,0.65,0.635,0.13,80.566,78.002,306.03,
00:00:22:717,0.669,0.776,0.007,158.386,163.025,196.045,
00:00:22:733,0.686,0.668,-0.071,299.499,186.34,115.722,
00:00:22:750,0.724,0.518,0.046,315.368,120.727,77.453,
00:00:22:767,0.67,0.547,0.075,193.725,182.739,66.65,
00:00:22:783,0.745,0.616,0.084,79.101,186.767,3.845,
00:00:22:800,0.732,0.65,0.059,35.583,181.823,-58.411,
00:00:22:817,0.664,0.674,-0.099,126.648,177.49,-57.74,
00:00:22:833,0.655,0.701,0.018,218.2,110.901,-78.919,
00:00:22:850,0.623,0.788,0.089,307.251,141.113,-95.032,
00:00:22:867,0.625,0.81,0.055,472.351,203.735,-148.682,
00:00:22:883,0.675,0.709,0.01,584.716,211.731,-186.951,
00:00:22:900,0.692,0.573,0.022,536.377,188.781,-173.951,
00:00:22:917,0.67,0.554,0.048,349.609,198.425,-74.952,
00:00:22:933,0.653,0.709,0.003,84.167,212.341,-46.57,
00:00:22:950,0.626,0.771,0.048,-43.213,206.848,-60.059,
00:00:22:967,0.616,0.798,0.025,-8.423,238.464,-70.252,
00:00:22:983,0.7,0.687,0.162,-227.601,197.937,-54.139,
00:00:23:0,0.71,0.584,0.138,-452.332,187.805,-85.999,
00:00:23:17,0.644,0.568,-0.067,-568.665,197.143,-90.943,
00:00:23:33,0.682,0.857,-0.008,-380.616,141.662,-44.312,
00:00:23:50,0.708,1.057,0.055,-92.53,125.671,46.752,
00:00:23:67,0.63,0.7,0.046,-438.721,66.162,92.773,
00:00:23:83,0.615,0.647,-0.054,-566.102,54.199,44.006,
00:00:23:100,0.613,0.7,-0.029,-632.752,50.964,13.183,
00:00:23:117,0.599,0.737,-0.045,-531.617,70.068,-20.142,
00:00:23:133,0.635,0.795,-0.044,-365.235,90.576,-23.987,
00:00:23:150,0.641,0.709,-0.065,-100.281,66.284,26.672,
00:00:23:167,0.697,0.87,-0.144,-349.366,102.417,107.849,
00:00:23:183,0.803,1.157,-0.14,-449.036,78.735,162.658,
00:00:23:200,0.79,1.203,-0.091,-286.622,65.246,235.107,
00:00:23:217,0.748,1.1,-0.125,-7.874,107.299,244.567,
00:00:23:233,0.749,1.01,-0.128,125.366,159.24,254.394,
00:00:23:250,0.787,0.99,-0.122,87.463,182.678,303.833,
00:00:23:267,0.811,1.066,-0.099,-67.688,153.564,403.991,
00:00:23:283,0.803,1.187,-0.082,-211.976,106.994,511.718,
00:00:23:300,0.75,1.187,-0.092,-307.373,72.082,571.716,
00:00:23:317,0.668,1.059,-0.086,-366.517,74.646,655.151,
00:00:23:333,0.605,1.196,-0.138,-319.947,136.047,739.99,
00:00:23:350,0.533,1.311,-0.254,-67.261,209.106,786.743,
00:00:23:367,0.464,1.215,-0.383,148.864,250.854,784.912,
00:00:23:383,0.405,1.11,-0.216,247.558,224.67,779.846,
00:00:23:400,0.348,0.951,-0.201,249.755,265.075,759.155,
00:00:23:417,0.287,0.836,-0.204,135.07,319.946,813.659,
00:00:23:433,0.306,0.992,-0.25,50.476,298.339,838.256,
00:00:23:450,0.249,1.046,-0.181,125.549,267.944,814.514,
00:00:23:467,0.164,0.889,-0.135,325.5,312.5,849.182,
00:00:23:483,0.166,0.933,-0.253,170.288,391.54,839.599,
00:00:23:500,0.202,1.026,-0.368,30.151,385.925,803.405,
00:00:23:517,0.155,1.151,-0.401,-0.855,354.553,856.14,
00:00:23:533,-0.014,1.127,-0.235,92.224,369.14,864.929,
00:00:23:550,-0.038,1.052,-0.197,111.511,423.645,883.911,
00:00:23:567,-0.044,1.052,-0.184,184.692,446.35,896.301,
00:00:23:583,-0.063,1.034,-0.187,225.097,446.045,911.987,
00:00:23:600,-0.138,0.897,-0.113,236.023,423.095,898.803,
00:00:23:617,-0.203,0.846,-0.081,228.698,432.19,901.794,
00:00:23:633,-0.207,0.816,-0.054,215.088,426.33,871.276,
00:00:23:650,-0.24,0.783,-0.034,195.068,437.194,854.919,
00:00:23:667,-0.268,0.696,-0.08,183.41,419.799,808.044,
00:00:23:683,-0.309,0.645,-0.059,128.051,371.826,771.362,
00:00:23:700,-0.32,0.683,0.008,133.484,367.859,716.369,
00:00:23:717,-0.347,0.692,0.012,199.585,371.093,693.725,
00:00:23:733,-0.458,0.654,0.026,284.912,386.291,663.757,
00:00:23:750,-0.404,0.694,0.015,409.484,388.244,655.395,
00:00:23:767,-0.43,0.655,0.057,510.62,365.844,637.451,
00:00:23:783,-0.504,0.568,0.103,500.061,306.03,537.841,
00:00:23:800,-0.486,0.567,0.091,507.568,295.654,479.431,
00:00:23:817,-0.443,0.576,0.127,517.517,287.536,448.303,
00:00:23:833,-0.496,0.558,0.158,521.301,276.001,423.156,
00:00:23:850,-0.524,0.54,0.208,497.68,242.797,398.437,
00:00:23:867,-0.538,0.513,0.217,436.035,222.412,359.68,
00:00:23:883,-0.525,0.521,0.251,388.488,206.421,314.087,
00:00:23:900,-0.535,0.509,0.247,358.337,192.505,280.456,
00:00:23:917,-0.543,0.503,0.211,298.706,175.781,258.178,
00:00:23:933,-0.551,0.607,0.228,301.086,160.888,242.859,
00:00:23:950,-0.569,0.536,0.246,274.658,147.338,213.562,
00:00:23:967,-0.595,0.581,0.251,267.089,137.573,208.313,
00:00:23:983,-0.639,0.558,0.31,268.859,144.775,191.894,
00:00:24:0,-0.644,0.563,0.324,231.384,145.813,175.781,
00:00:24:17,-0.667,0.555,0.332,206.604,126.037,159.24,
00:00:24:33,-0.676,0.575,0.351,175.72,114.196,138,
00:00:24:50,-0.683,0.584,0.333,176.757,121.765,145.324,
00:00:24:67,-0.714,0.663,0.34,209.594,128.967,148.376,
00:00:24:83,-0.719,0.624,0.341,215.271,135.192,142.944,
00:00:24:100,-0.718,0.647,0.384,217.773,131.591,147.277,
00:00:24:117,-0.749,0.614,0.402,227.111,130.31,151.733,
00:00:24:133,-0.741,0.595,0.409,226.135,124.511,157.104,
00:00:24:150,-0.722,0.609,0.402,226.135,130.249,171.508,drinkRH
00:00:24:167,-0.704,0.62,0.392,263.672,146.24,190.918,
00:00:24:183,-0.752,0.677,0.421,248.718,158.996,194.275,
00:00:24:200,-0.786,0.657,0.469,255.615,181.091,189.087,
00:00:24:217,-0.798,0.697,0.516,310.608,184.631,209.289,
00:00:24:233,-0.794,0.663,0.494,382.019,191.284,218.75,
00:00:24:250,-0.809,0.563,0.539,399.658,233.459,223.327,
00:00:24:267,-0.782,0.581,0.553,426.086,258.178,235.778,
00:00:24:283,-0.742,0.543,0.523,436.096,282.226,248.047,
00:00:24:300,-0.725,0.535,0.473,481.872,293.213,260.925,
00:00:24:317,-0.71,0.498,0.505,521.484,290.405,267.456,
00:00:24:333,-0.707,0.44,0.55,505.859,292.907,269.775,
00:00:24:350,-0.676,0.411,0.535,487.854,285.827,284.729,
00:00:24:367,-0.673,0.384,0.547,505.188,279.358,291.504,
00:00:24:383,-0.672,0.373,0.521,503.418,278.869,294.067,
00:00:24:400,-0.72,0.36,0.543,522.461,279.846,293.151,
00:00:24:417,-0.709,0.271,0.592,554.931,284.423,286.56,
00:00:24:433,-0.692,0.229,0.69,572.754,284.912,273.071,
00:00:24:450,-0.665,0.213,0.748,595.031,270.813,261.84,
00:00:24:467,-0.669,0.177,0.735,567.688,256.958,269.592,
00:00:24:483,-0.658,0.209,0.687,486.206,243.286,267.089,
00:00:24:500,-0.649,0.229,0.652,434.143,248.352,251.464,
00:00:24:517,-0.645,0.236,0.619,397.461,248.596,243.591,
00:00:24:533,-0.637,0.197,0.621,424.011,253.112,246.032,
00:00:24:550,-0.611,0.156,0.645,476.867,255.493,272.094,
00:00:24:567,-0.585,0.095,0.648,474.609,244.079,283.447,
00:00:24:583,-0.569,0.036,0.679,433.838,216.919,275.94,
00:00:24:600,-0.58,0.051,0.742,407.47,192.26,272.461,
00:00:24:617,-0.592,0.068,0.766,455.871,169.311,274.353,
00:00:24:633,-0.612,0.063,0.795,562.622,141.662,291.809,
00:00:24:650,-0.599,-0.011,0.764,546.936,107.91,304.138,
00:00:24:667,-0.586,-0.05,0.745,438.415,71.838,315.368,
00:00:24:683,-0.584,-0.003,0.714,390.747,52.551,332.336,
00:00:24:700,-0.572,-0.061,0.701,377.685,43.64,339.721,
00:00:24:717,-0.588,-0.06,0.663,414.184,52.124,370.422,
00:00:24:733,-0.572,-0.095,0.694,485.107,67.077,380.188,
00:00:24:750,-0.56,-0.175,0.729,500.671,78.674,385.07,
00:00:24:767,-0.544,-0.217,0.72,450.317,86.731,384.399,
00:00:24:783,-0.573,-0.273,0.729,371.521,84.899,355.957,
00:00:24:800,-0.568,-0.28,0.727,364.807,86.792,331.054,
00:00:24:817,-0.531,-0.314,0.769,375.61,90.576,302.246,
00:00:24:833,-0.518,-0.355,0.748,347.778,97.595,272.766,
00:00:24:850,-0.491,-0.355,0.744,309.753,89.904,244.018,
00:00:24:867,-0.478,-0.346,0.729,264.404,77.392,208.801,
00:00:24:883,-0.466,-0.387,0.697,217.102,66.345,164.245,
00:00:24:900,-0.458,-0.358,0.715,209.35,63.293,152.649,
00:00:24:917,-0.496,-0.377,0.725,221.191,73.425,131.103,
00:00:24:933,-0.506,-0.397,0.761,218.383,78.796,112.548,
00:00:24:950,-0.482,-0.413,0.776,197.57,68.481,86.486,
00:00:24:967,-0.468,-0.4,0.772,172.302,50.964,70.678,
00:00:24:983,-0.493,-0.408,0.763,173.767,33.813,73.852,
00:00:25:0,-0.529,-0.411,0.729,193.786,33.874,75.256,
00:00:25:17,-0.547,-0.399,0.752,229.553,42.785,71.533,
00:00:25:33,-0.532,-0.412,0.743,255.615,47.79,58.41,
00:00:25:50,-0.506,-0.429,0.743,235.534,40.344,62.377,
00:00:25:67,-0.501,-0.443,0.714,195.495,28.015,64.575,
00:00:25:83,-0.519,-0.465,0.703,181.823,24.169,67.199,
00:00:25:100,-0.5,-0.522,0.698,167.968,26.062,46.264,
00:00:25:117,-0.46,-0.534,0.717,153.442,26.245,20.629,
00:00:25:133,-0.46,-0.549,0.702,128.234,28.381,-1.648,
00:00:25:150,-0.454,-0.54,0.688,110.839,14.526,-18.677,
00:00:25:167,-0.479,-0.553,0.676,61.218,4.699,-38.697,
00:00:25:183,-0.478,-0.537,0.695,8.728,4.638,-68.177,
00:00:25:200,-0.489,-0.553,0.722,-55.298,15.319,-89.661,
00:00:25:217,-0.491,-0.517,0.722,-112.732,14.343,-93.811,
00:00:25:233,-0.517,-0.477,0.727,-140.076,15.075,-94.849,
00:00:25:250,-0.523,-0.445,0.722,-122.681,15.93,-110.23,
00:00:25:267,-0.533,-0.443,0.742,-102.967,18.127,-110.352,
00:00:25:283,-0.536,-0.397,0.748,-73.06,15.319,-104.371,
00:00:25:300,-0.537,-0.387,0.76,-36.438,15.808,-96.558,
00:00:25:317,-0.535,-0.387,0.765,-26.856,7.446,-80.323,
00:00:25:333,-0.556,-0.388,0.772,-22.095,-0.061,-65.796,
00:00:25:350,-0.542,-0.394,0.766,-13.977,-4.334,-58.411,
00:00:25:367,-0.541,-0.41,0.751,-4.578,-6.226,-41.26,
00:00:25:383,-0.547,-0.411,0.746,-6.958,-10.987,-29.175,
00:00:25:400,-0.549,-0.405,0.762,-7.386,-11.048,-30.579,
00:00:25:417,-0.545,-0.379,0.764,12.817,-10.498,-19.654,
00:00:25:433,-0.541,-0.391,0.764,45.959,-12.33,-23.865,
00:00:25:450,-0.536,-0.436,0.753,60.18,-12.452,-15.442,
00:00:25:467,-0.544,-0.426,0.745,58.654,-12.696,-12.574,
00:00:25:483,-0.548,-0.421,0.752,39.55,-11.658,-16.053,
00:00:25:500,-0.548,-0.418,0.767,10.925,-8.057,-19.41,
00:00:25:517,-0.534,-0.424,0.762,-0.367,-8.973,-26.307,
00:00:25:533,-0.558,-0.417,0.742,-4.151,-5.372,-20.081,
00:00:25:550,-0.564,-0.428,0.731,2.685,-0.733,-27.405,
00:00:25:567,-0.553,-0.409,0.713,10.864,-2.137,-30.518,
00:00:25:583,-0.561,-0.392,0.738,12.573,-0.489,-30.823,
00:00:25:600,-0.547,-0.388,0.744,18.981,0.122,-36.683,
00:00:25:617,-0.546,-0.395,0.736,16.357,-1.038,-29.664,
00:00:25:633,-0.558,-0.422,0.725,19.897,-1.587,-23.987,
00:00:25:650,-0.55,-0.411,0.738,37.292,4.821,-16.053,
00:00:25:667,-0.545,-0.42,0.76,64.453,5.615,-8.423,
00:00:25:683,-0.532,-0.419,0.777,47.668,2.197,-1.16,
00:00:25:700,-0.534,-0.43,0.758,-3.418,-10.743,1.525,
00:00:25:717,-0.545,-0.394,0.734,-53.956,-22.522,3.234,
00:00:25:733,-0.558,-0.378,0.741,-36.438,-21.302,-1.282,
00:00:25:750,-0.542,-0.379,0.757,19.531,-15.992,-2.198,
00:00:25:767,-0.553,-0.436,0.746,38.696,-14.161,1.403,
00:00:25:783,-0.558,-0.442,0.762,22.644,-15.564,-2.503,
00:00:25:800,-0.554,-0.454,0.743,11.779,-12.696,-11.963,
00:00:25:817,-0.552,-0.441,0.732,1.953,-6.287,-17.334,
00:00:25:833,-0.543,-0.436,0.727,2.197,-2.015,-24.781,
00:00:25:850,-0.566,-0.435,0.739,4.394,6.469,-34.546,
00:00:25:867,-0.548,-0.433,0.741,-3.602,10.315,-42.542,
00:00:25:883,-0.543,-0.438,0.734,-15.503,11.84,-43.152,
00:00:25:900,-0.551,-0.428,0.729,-30.091,14.282,-48.096,
00:00:25:917,-0.546,-0.429,0.74,-36.56,14.831,-54.383,
00:00:25:933,-0.553,-0.426,0.749,-34.485,16.052,-48.89,
00:00:25:950,-0.535,-0.417,0.759,-42.664,8.667,-50.721,
00:00:25:967,-0.54,-0.407,0.744,-27.649,5.92,-43.335,
00:00:25:983,-0.544,-0.41,0.71,-4.212,2.197,-40.467,
00:00:26:0,-0.551,-0.426,0.706,-4.578,-0.733,-41.81,
00:00:26:17,-0.541,-0.413,0.735,-11.231,-0.245,-51.026,
00:00:26:33,-0.541,-0.409,0.769,-16.175,1.159,-52.185,
00:00:26:50,-0.551,-0.417,0.767,-31.128,0,-52.247,
00:00:26:67,-0.557,-0.41,0.752,-45.105,-1.648,-56.031,
00:00:26:83,-0.56,-0.437,0.721,-46.57,-3.296,-62.378,
00:00:26:100,-0.546,-0.409,0.719,-59.082,-3.479,-66.712,
00:00:26:117,-0.549,-0.417,0.723,-67.078,0.732,-80.811,
00:00:26:133,-0.535,-0.409,0.743,-69.458,-4.029,-86.243,
00:00:26:150,-0.532,-0.419,0.732,-59.754,-4.517,-93.262,
00:00:26:167,-0.508,-0.426,0.718,-63.66,-11.902,-107.117,
00:00:26:183,-0.497,-0.45,0.708,-87.098,-17.945,-125.306,
00:00:26:200,-0.505,-0.445,0.691,-129.944,-22.156,-143.677,
00:00:26:217,-0.492,-0.438,0.681,-154.175,-21.973,-171.387,
00:00:26:233,-0.471,-0.449,0.685,-191.773,-18.433,-200.318,
00:00:26:250,-0.464,-0.427,0.69,-236.023,-14.039,-234.253,
00:00:26:267,-0.504,-0.409,0.689,-276.856,-4.822,-238.099,
00:00:26:283,-0.521,-0.382,0.702,-304.261,-4.456,-269.959,
00:00:26:300,-0.512,-0.36,0.721,-353.089,-8.301,-295.105,
00:00:26:317,-0.507,-0.316,0.712,-414.551,-19.227,-318.726,
00:00:26:333,-0.531,-0.275,0.679,-451.172,-19.043,-329.468,
00:00:26:350,-0.57,-0.286,0.647,-475.831,-16.114,-349.61,
00:00:26:367,-0.539,-0.195,0.685,-472.596,-5.86,-370.179,
00:00:26:383,-0.508,-0.233,0.721,-492.249,-2.625,-407.166,
00:00:26:400,-0.47,-0.197,0.706,-574.646,-27.527,-413.941,
00:00:26:417,-0.502,-0.207,0.683,-664.856,-49.622,-430.787,
00:00:26:433,-0.52,-0.158,0.661,-656.983,-66.651,-448.304,
00:00:26:450,-0.51,-0.135,0.672,-578.309,-76.416,-481.019,
00:00:26:467,-0.468,-0.099,0.681,-578.125,-85.938,-506.043,
00:00:26:483,-0.478,-0.056,0.611,-615.967,-119.385,-523.743,
00:00:26:500,-0.527,-0.028,0.552,-725.708,-154.175,-540.711,
00:00:26:517,-0.549,0.117,0.608,-765.076,-152.039,-559.082,
00:00:26:533,-0.515,0.187,0.668,-722.901,-145.203,-581.604,
00:00:26:550,-0.463,0.14,0.681,-742.371,-157.654,-578.675,
00:00:26:567,-0.427,0.169,0.609,-782.532,-198.06,-570.313,
00:00:26:583,-0.444,0.13,0.551,-853.821,-248.536,-563.66,
00:00:26:600,-0.503,0.283,0.52,-846.924,-288.331,-566.895,
00:00:26:617,-0.487,0.291,0.41,-804.871,-321.9,-576.783,
00:00:26:633,-0.493,0.313,0.404,-792.908,-357.666,-578.98,
00:00:26:650,-0.525,0.287,0.388,-805.298,-374.756,-612.366,
00:00:26:667,-0.408,0.368,0.37,-805.481,-406.189,-629.883,
00:00:26:683,-0.414,0.398,0.272,-836.182,-451.111,-649.231,
00:00:26:700,-0.462,0.475,0.239,-908.631,-497.132,-693.726,
00:00:26:717,-0.503,0.64,0.212,-1028.26,-525.269,-741.272,
00:00:26:733,-0.514,0.662,0.218,-1045.411,-560.12,-768.433,
00:00:26:750,-0.438,0.624,0.14,-811.707,-641.236,-809.144,
00:00:26:767,-0.415,0.553,-0.033,-713.868,-649.659,-859.131,
00:00:26:783,-0.439,0.666,-0.043,-797.974,-628.052,-910.035,
00:00:26:800,-0.455,0.71,-0.054,-991.456,-596.314,-961.915,
00:00:26:817,-0.457,0.861,-0.038,-1096.924,-601.502,-947.083,
00:00:26:833,-0.491,0.935,-0.096,-881.47,-665.467,-940.796,
00:00:26:850,-0.441,1.056,-0.091,-539.49,-686.097,-978.333,
00:00:26:867,-0.431,1.012,0.041,-410.645,-682.984,-1021.302,
00:00:26:883,-0.366,0.907,0.01,-596.375,-632.63,-1030.457,
00:00:26:900,-0.229,0.983,-0.022,-750.306,-618.775,-1042.115,
00:00:26:917,-0.25,0.921,-0.139,-593.811,-637.024,-1034.791,
00:00:26:933,-0.207,1.067,-0.185,-264.893,-611.573,-990.967,
00:00:26:950,-0.229,1.187,-0.254,-167.542,-595.093,-923.157,
00:00:26:967,-0.165,1.244,-0.313,-306.946,-544.556,-929.688,
00:00:26:983,-0.099,1.243,-0.243,-390.442,-564.698,-894.471,
00:00:27:0,-0.138,1.107,-0.277,-213.196,-544.8,-891.663,
00:00:27:17,-0.032,1.256,-0.302,119.384,-399.598,-863.587,
00:00:27:33,0.134,1.264,-0.366,180.725,-273.011,-889.466,
00:00:27:50,0.191,1.274,-0.291,145.568,-281.556,-752.747,
00:00:27:67,0.17,1.287,-0.23,48.4,-305.603,-775.391,
00:00:27:83,0.164,1.299,-0.074,-88.44,-316.102,-851.319,
00:00:27:100,0.184,1.323,-0.071,-69.886,-237.732,-824.158,
00:00:27:117,0.31,1.396,-0.248,-94.483,-183.594,-769.654,
00:00:27:133,0.377,1.244,-0.268,-89.478,-219.544,-739.441,
00:00:27:150,0.352,1.22,-0.165,-9.644,-234.436,-687.134,
00:00:27:167,0.33,1.158,-0.141,190.612,-169.129,-663.331,
00:00:27:183,0.395,1.052,-0.302,206.421,-96.375,-620.972,
00:00:27:200,0.464,0.982,-0.133,42.175,30.883,-573.121,
00:00:27:217,0.49,0.932,-0.167,40.649,50.048,-551.087,
00:00:27:233,0.51,0.991,-0.178,76.171,4.089,-498.23,
00:00:27:250,0.517,0.957,-0.154,63.781,-36.622,-478.211,
00:00:27:267,0.547,0.983,-0.132,1.525,-42.542,-458.558,
00:00:27:283,0.553,0.995,-0.147,-7.264,-46.509,-440.125,
00:00:27:300,0.558,0.968,-0.179,67.321,-45.044,-398.499,
00:00:27:317,0.582,0.815,-0.081,-15.748,-45.044,-364.197,
00:00:27:333,0.561,0.809,-0.133,-92.957,-59.021,-343.079,
00:00:27:350,0.585,0.862,-0.112,-173.096,-60.12,-351.746,
00:00:27:367,0.594,0.955,-0.156,-110.047,-62.317,-316.59,
00:00:27:383,0.595,0.966,-0.153,-14.222,-78.98,-291.443,
00:00:27:400,0.604,0.974,-0.12,72.753,-85.511,-260.498,
00:00:27:417,0.612,0.834,-0.105,17.639,-62.195,-198.426,
00:00:27:433,0.593,0.825,-0.131,-25.147,-43.885,-167.359,
00:00:27:450,0.6,0.826,-0.128,-52.796,-28.626,-157.166,
00:00:27:467,0.614,0.874,-0.145,-68.177,-16.907,-126.954,
00:00:27:483,0.613,0.892,-0.138,-69.031,-10.01,-104.065,
00:00:27:500,0.595,0.904,-0.147,-17.701,-1.343,-86.731,
00:00:27:517,0.581,0.871,-0.145,57.8,6.164,-69.031,
00:00:27:533,0.564,0.832,-0.132,87.89,15.625,-62.073,
00:00:27:550,0.567,0.808,-0.127,103.21,18.676,-54.566,
00:00:27:567,0.571,0.802,-0.123,113.525,14.892,-59.388,
00:00:27:583,0.578,0.771,-0.102,130.31,16.235,-59.937,
00:00:27:600,0.596,0.736,-0.128,122.619,9.887,-50.049,
00:00:27:617,0.605,0.72,-0.104,81.054,-11.231,-50.293,
00:00:27:633,0.602,0.751,-0.127,51.818,-1.648,-52.796,
00:00:27:650,0.625,0.784,-0.106,47.241,-4.151,-56.763,
00:00:27:667,0.624,0.786,-0.107,93.689,4.943,-52.796,
00:00:27:683,0.637,0.679,-0.114,125.915,-12.33,-40.162,
00:00:27:700,0.635,0.645,-0.097,58.776,-40.589,-53.833,
00:00:27:717,0.61,0.71,-0.09,26.428,-56.397,-74.219,
00:00:27:733,0.582,0.731,-0.104,49.316,-45.472,-99.61,
00:00:27:750,0.605,0.696,-0.122,27.71,-39.124,-107.056,
00:00:27:767,0.618,0.695,-0.125,-27.344,-43.885,-107.727,
00:00:27:783,0.632,0.734,-0.111,-48.829,-30.335,-117.615,
00:00:27:800,0.711,0.702,0.032,-70.069,-80.445,-98.206,
00:00:27:817,0.599,0.833,-0.193,-199.28,-14.466,-49.5,
00:00:27:833,0.562,0.863,-0.1,-12.635,-34.79,-48.829,
00:00:27:850,0.614,0.664,-0.105,-139.466,2.929,-73.792,
00:00:27:867,0.617,0.862,-0.143,-116.089,-37.171,-46.753,
00:00:27:883,0.58,0.807,-0.114,-70.618,-52.002,-79.102,
00:00:27:900,0.624,0.784,-0.053,-84.046,-49.439,-88.074,
00:00:27:917,0.615,0.752,-0.044,-132.264,-47.608,-113.404,
00:00:27:933,0.598,0.685,-0.115,-118.47,-20.691,-114.685,
00:00:27:950,0.652,0.726,-0.164,-102.784,-16.236,-127.015,
00:00:27:967,0.731,0.764,-0.137,-47.913,-56.397,-96.436,
00:00:27:983,0.691,0.794,-0.123,9.033,-85.45,-72.327,
00:00:28:0,0.661,0.767,-0.059,53.527,-65.796,-85.755,
00:00:28:17,0.669,0.763,-0.112,154.113,4.089,-95.337,
00:00:28:33,0.72,0.72,-0.101,131.897,-23.316,-64.881,
00:00:28:50,0.714,0.865,-0.148,107.116,6.652,-21.912,
00:00:28:67,0.717,0.728,-0.067,201.66,-30.03,-48.401,
00:00:28:83,0.71,0.693,-0.101,172.668,2.563,-53.04,
00:00:28:100,0.725,0.802,-0.137,156.494,4.943,-71.717,
00:00:28:117,0.812,0.822,-0.06,326.538,-31.739,-93.934,
00:00:28:133,0.9,0.687,-0.033,400.94,-38.208,-115.54,
00:00:28:150,1.013,0.608,-0.089,366.882,-11.414,-107.056,
00:00:28:167,1.063,0.516,-0.107,239.746,-130.616,-72.51,
00:00:28:183,0.978,0.448,-0.115,158.508,-206.055,-3.479,
00:00:28:200,0.899,0.475,-0.155,118.591,-249.268,45.593,
00:00:28:217,0.866,0.425,-0.09,85.449,-354.676,11.657,
00:00:28:233,0.806,0.41,-0.07,64.819,-350.342,12.939,
00:00:28:250,0.779,0.427,-0.066,-15.137,-295.777,-39.49,
00:00:28:267,0.762,0.419,-0.12,-125.977,-218.873,-89.112,
00:00:28:283,0.814,0.462,-0.093,-196.656,-218.811,-191.163,
00:00:28:300,0.769,0.446,-0.074,-210.267,-171.936,-275.635,
00:00:28:317,0.734,0.404,-0.149,-211.487,-114.014,-334.29,
00:00:28:333,0.739,0.482,-0.119,-118.409,-118.775,-335.755,
00:00:28:350,0.739,0.609,0.079,-37.659,-242.127,-318.116,
00:00:28:367,0.644,0.664,0.166,108.398,-241.578,-370.179,
00:00:28:383,0.589,0.598,0.175,137.939,-177.918,-466.98,
00:00:28:400,0.606,0.507,0.135,-45.289,-22.4,-640.381,
00:00:28:417,0.639,0.475,0.033,-252.869,82.397,-737.122,
00:00:28:433,0.637,0.507,-0.105,-455.445,157.287,-852.539,
00:00:28:450,0.648,0.505,-0.173,-619.812,169.433,-948.06,
00:00:28:467,0.663,0.549,-0.214,-653.626,185.547,-1015.748,
00:00:28:483,0.721,0.613,-0.163,-601.38,130.066,-1054.322,
00:00:28:500,0.757,0.614,-0.073,-421.753,79.895,-1076.05,
00:00:28:517,0.743,0.57,-0.043,-191.956,104.553,-1054.566,
00:00:28:533,0.727,0.54,-0.089,-67.2,157.043,-1023.743,
00:00:28:550,0.803,0.553,-0.158,-33.326,195.739,-1017.151,
00:00:28:567,0.926,0.559,-0.169,21.545,182.067,-1007.569,
00:00:28:583,1.003,0.583,-0.175,125.244,132.324,-943.238,
00:00:28:600,1.006,0.612,-0.126,299.316,75.866,-811.036,
00:00:28:617,1.04,0.485,0.099,216.735,-11.963,-673.829,
00:00:28:633,1.065,0.427,0.098,153.503,-23.865,-489.197,
00:00:28:650,1.04,0.422,0.044,44.616,-12.696,-371.949,
00:00:28:667,1.046,0.349,-0.091,-176.026,41.32,-260.315,
00:00:28:683,1.107,0.391,-0.218,-433.35,-6.409,-119.507,
00:00:28:700,1.05,0.454,-0.267,-606.019,-155.64,-3.724,
00:00:28:717,0.927,0.474,-0.169,-630.616,-273.377,85.266,
00:00:28:733,0.806,0.376,-0.053,-603.76,-221.68,120.483,
00:00:28:750,0.748,0.328,-0.067,-581.849,-55.176,152.343,
00:00:28:767,0.816,0.366,-0.131,-504.761,91.857,157.348,
00:00:28:783,0.906,0.313,-0.153,-435.12,84.655,91.064,
00:00:28:800,0.964,0.27,-0.08,-382.325,4.516,72.387,
00:00:28:817,0.955,0.364,0.036,-394.776,-17.395,90.21,
00:00:28:833,0.922,0.418,0.071,-372.925,120.788,71.044,
00:00:28:850,0.941,0.388,-0.037,-220.52,313.293,-10.865,
00:00:28:867,1.048,0.309,-0.055,-123.719,305.969,-67.994,
00:00:28:883,1.013,0.223,-0.132,109.619,6.408,23.437,
00:00:28:900,0.875,0.181,-0.103,228.271,-70.069,33.508,
00:00:28:917,0.79,0.149,-0.084,281.433,-8.301,12.023,
00:00:28:933,0.802,0.115,-0.092,285.278,86.181,-29.175,
00:00:28:950,0.865,0.106,-0.131,283.081,128.479,-57.618,
00:00:28:967,0.933,0.129,-0.147,189.819,17.028,-45.96,
00:00:28:983,0.91,0.176,-0.117,154.541,-16.175,-34.241,
00:00:29:0,0.922,0.251,-0.06,148.193,-4.944,-43.396,
00:00:29:17,0.964,0.358,-0.033,172.119,10.315,-62.256,
00:00:29:33,0.994,0.445,-0.037,186.279,-1.526,-63.782,
00:00:29:50,1.019,0.516,-0.052,223.816,-40.528,-72.083,
00:00:29:67,1.052,0.589,-0.043,269.104,-72.327,-26.368,
00:00:29:83,1.166,0.825,0.069,404.358,-135.804,58.96,
00:00:29:100,1.249,0.961,0.027,626.648,-183.35,112.732,
00:00:29:117,1.265,0.885,0.007,825.622,-320.313,267.273,
00:00:29:133,1.305,0.906,0.06,815.002,-466.065,419.799,
00:00:29:150,1.39,1.211,0.44,713.073,-667.969,670.532,
00:00:29:167,1.275,1.526,0.856,864.38,-601.197,921.264,
00:00:29:183,1.746,1.392,1.018,655.334,-880.433,1423.401,
00:00:29:200,1.854,1.564,1.027,562.744,-1059.876,1667.968,
00:00:29:217,1.935,1.738,1.195,765.136,-1191.407,1825.744,
00:00:29:233,2.01,1.821,1.455,1205.078,-1238.465,1875.61,
00:00:29:250,2.215,1.792,1.475,1578.674,-1302.247,1831.665,
00:00:29:267,2.435,1.491,1.285,1830.139,-1477.417,1713.806,
00:00:29:283,2.525,1.216,1.029,1836.731,-1760.254,1684.204,
00:00:29:300,2.411,1.078,0.942,1655.578,-2000,1740.234,
00:00:29:317,2.279,1.282,0.713,1345.764,-2000,1718.689,
00:00:29:333,2.199,1.432,0.519,1211.181,-2000,1653.259,
00:00:29:350,2.064,1.367,0.285,1177.734,-2000,1627.197,
00:00:29:367,1.927,1.212,0.042,1140.442,-2000,1642.395,
00:00:29:383,1.523,0.875,-0.225,1030.639,-2000,1723.327,
00:00:29:400,1.346,0.742,-0.245,987.304,-2000,1695.19,
00:00:29:417,1.183,0.564,-0.257,956.359,-2000,1642.7,
00:00:29:433,0.984,0.37,-0.285,870.544,-2000,1608.581,
00:00:29:450,0.744,0.225,-0.333,796.997,-2000,1608.459,
00:00:29:467,0.502,0.155,-0.396,834.533,-2000,1598.266,
00:00:29:483,0.33,0.094,-0.407,943.908,-1963.44,1515.625,
00:00:29:500,0.22,-0.051,-0.423,972.839,-1825.928,1343.567,
00:00:29:517,0.093,-0.176,-0.426,881.164,-1700.562,1222.107,
00:00:29:533,0.021,-0.271,-0.354,745.422,-1556.275,1068.237,
00:00:29:550,0.004,-0.377,-0.431,570.861,-1447.876,952.514,
00:00:29:567,-0.086,-0.525,-0.513,324.829,-1311.646,891.113,
00:00:29:583,-0.227,-0.572,-0.523,87.768,-1147.278,869.995,
00:00:29:600,-0.323,-0.589,-0.517,-78.37,-963.501,790.649,
00:00:29:617,-0.419,-0.625,-0.491,-108.826,-752.991,703.247,
00:00:29:633,-0.475,-0.66,-0.501,-59.144,-576.172,597.412,
00:00:29:650,-0.515,-0.728,-0.502,9.216,-381.958,499.084,
00:00:29:667,-0.512,-0.782,-0.506,48.645,-207.459,394.348,
00:00:29:683,-0.521,-0.796,-0.514,40.1,-38.88,303.833,
00:00:29:700,-0.49,-0.766,-0.499,42.724,105.896,188.11,
00:00:29:717,-0.448,-0.757,-0.475,68.969,233.947,84.106,
00:00:29:733,-0.414,-0.761,-0.427,87.89,353.759,-25.269,
00:00:29:750,-0.385,-0.763,-0.383,55.908,464.782,-115.906,
00:00:29:767,-0.351,-0.742,-0.379,-23.865,574.096,-205.75,
00:00:29:783,-0.304,-0.676,-0.425,-121.216,672.668,-307.007,
00:00:29:800,-0.238,-0.594,-0.413,-207.093,787.963,-418.885,
00:00:29:817,-0.126,-0.547,-0.401,-282.776,883.117,-554.627,
00:00:29:833,-0.057,-0.51,-0.359,-407.593,985.717,-653.626,
00:00:29:850,0.002,-0.476,-0.351,-604.737,1105.59,-769.837,
00:00:29:867,0.028,-0.388,-0.303,-754.761,1240.661,-855.469,
00:00:29:883,0.082,-0.262,-0.254,-833.497,1388.305,-985.535,
00:00:29:900,0.15,-0.169,-0.198,-837.403,1546.142,-1130.127,
00:00:29:917,0.264,-0.101,-0.217,-955.811,1680.725,-1302.674,
00:00:29:933,0.353,-0.068,-0.267,-1247.498,1772.033,-1440.43,
00:00:29:950,0.417,0.008,-0.173,-1665.223,1838.317,-1528.321,
00:00:29:967,0.486,0.334,0.017,-1939.515,1894.653,-1626.282,
00:00:29:983,0.521,0.687,0.114,-1974.427,1998.474,-1775.33,
00:00:30:0,0.574,0.882,0.172,-1934.449,1999.694,-1915.589,
00:00:30:17,0.576,0.911,0.255,-1970.459,1999.694,-1999.878,
00:00:30:33,0.595,1.034,0.014,-2000,1999.694,-2000,
00:00:30:50,0.737,1.162,-0.086,-2000,1999.694,-2000,
00:00:30:67,1.006,1.258,-0.323,-1999.939,1999.694,-2000,
00:00:30:83,1.273,1.367,-0.457,-1714.295,1841.797,-2000,
00:00:30:100,1.357,1.587,0.002,-1514.405,1537.597,-2000,
00:00:30:117,1.295,1.557,0.21,-1423.401,1658.02,-2000,
00:00:30:133,1.439,1.41,0.174,-1401.49,1881.775,-2000,
00:00:30:150,1.692,1.283,0.24,-1413.575,1958.923,-2000,
00:00:30:167,1.795,1.407,0.158,-1282.654,1980.224,-2000,
00:00:30:183,1.918,1.446,0.289,-1290.528,1802.429,-2000,
00:00:30:200,2.066,1.443,0.315,-1355.53,1615.112,-1971.924,
00:00:30:217,2.166,1.786,0.158,-1082.52,1392.944,-1870.606,
00:00:30:233,2.204,2.022,0.053,-476.014,997.619,-1848.267,
00:00:30:250,2.119,1.783,0.093,291.809,543.823,-1713.868,
00:00:30:267,1.954,1.29,0.247,716.064,178.711,-1437.195,
00:00:30:283,1.736,0.873,0.297,747.619,98.327,-1128.418,
00:00:30:300,1.671,0.57,0.542,303.65,157.287,-884.461,
00:00:30:317,1.884,0.277,1.302,-994.507,11.169,-395.935,
00:00:30:333,2.613,-0.25,1.588,-2000,-163.086,376.648,
00:00:30:350,1.58,2.815,0.299,-2000,-764.222,1143.066,
00:00:30:367,0.322,2.051,-0.053,-1348.023,-944.642,457.641,
00:00:30:383,0.166,0.989,-0.25,396.85,-150.757,-164.246,
00:00:30:400,0.665,0.433,-0.24,947.265,456.298,-589.844,
00:00:30:417,1.123,0.205,-0.406,929.016,534.179,-484.131,
00:00:30:433,1.199,0.093,-0.515,611.45,121.704,-213.257,
00:00:30:450,0.969,0.064,-0.388,212.951,-218.995,76.782,
00:00:30:467,0.758,0.214,-0.216,-41.138,-252.137,167.602,
00:00:30:483,0.701,0.324,-0.111,-33.081,-90.088,75.012,
00:00:30:500,0.836,0.262,-0.022,-36.988,76.782,-5.127,
00:00:30:517,1.002,0.194,0.055,-221.68,103.637,48.828,
00:00:30:533,1.052,0.309,0.082,-358.399,-20.325,110.168,
00:00:30:550,0.947,0.398,0.061,-352.478,-122.498,97.717,
00:00:30:567,0.803,0.409,-0.018,-236.268,-97.718,22.888,
00:00:30:583,0.787,0.451,-0.087,-52.308,50.659,-67.017,
00:00:30:600,0.869,0.455,-0.143,120.666,174.865,-128.785,
00:00:30:617,0.999,0.448,-0.056,211.364,125.488,-153.199,
00:00:30:633,0.984,0.454,-0.053,222.595,108.093,-110.474,
00:00:30:650,0.928,0.415,-0.12,217.041,65.246,-58.655,
00:00:30:667,0.87,0.37,-0.156,235.229,25.878,-50.66,
00:00:30:683,0.848,0.369,-0.156,282.592,34.912,-49.134,
00:00:30:700,0.861,0.381,-0.148,362.976,52.002,-70.557,
00:00:30:717,0.884,0.35,-0.148,422.851,82.641,-69.764,
00:00:30:733,0.912,0.279,-0.14,431.64,75.866,-63.05,
00:00:30:750,0.938,0.288,-0.116,354.614,36.438,-31.311,
00:00:30:767,0.939,0.349,-0.069,271.423,-18.494,-7.203,
00:00:30:783,0.912,0.388,-0.019,216.43,-55.359,13.732,
00:00:30:800,0.876,0.395,0.003,183.166,-69.703,36.56,
00:00:30:817,0.873,0.389,-0.014,147.522,-49.866,54.077,
00:00:30:833,0.907,0.358,-0.053,114.929,-63.721,101.867,
00:00:30:850,0.941,0.325,-0.073,12.817,-104.92,154.48,
00:00:30:867,0.95,0.326,-0.077,-148.133,-175.232,260.986,
00:00:30:883,0.954,0.497,-0.07,-301.27,-230.652,402.404,
00:00:30:900,0.924,0.687,-0.124,-343.873,-220.459,469.848,
00:00:30:917,0.894,0.674,-0.114,-230.469,-215.455,463.989,
00:00:30:933,0.865,0.609,-0.097,-73.792,-180.237,524.475,
00:00:30:950,0.862,0.621,-0.111,-32.349,-108.094,583.191,
00:00:30:967,0.902,0.671,-0.155,-29.053,-62.867,602.478,
00:00:30:983,0.927,0.674,-0.167,-28.504,-81.238,600.647,
00:00:31:0,0.878,0.589,-0.129,-35.401,-112.366,634.765,
00:00:31:17,0.75,0.487,-0.106,-34.546,-104.248,697.876,
00:00:31:33,0.703,0.509,-0.09,0.305,-93.689,778.259,
00:00:31:50,0.692,0.639,-0.076,2.563,-66.834,779.297,
00:00:31:67,0.715,0.736,-0.041,44.555,-50.293,706.421,
00:00:31:83,0.702,0.729,-0.032,203.43,-15.015,653.93,
00:00:31:100,0.715,0.652,-0.017,372.192,-10.865,610.351,
00:00:31:117,0.736,0.554,0.004,448.425,-64.331,637.024,
00:00:31:133,0.704,0.589,0.063,385.864,-129.639,643.859,
00:00:31:150,0.663,0.74,-0.013,326.172,-88.135,557.861,
00:00:31:167,0.682,0.619,0.044,238.647,-119.629,476.013,
00:00:31:183,0.657,0.617,0.162,117.981,-64.576,440.979,
00:00:31:200,0.631,0.698,0.078,67.565,36.682,402.526,
00:00:31:217,0.665,0.677,0.043,62.927,79.284,331.665,
00:00:31:233,0.663,0.668,0,72.876,130.676,279.297,
00:00:31:250,0.663,0.668,-0.013,77.026,167.907,235.107,
00:00:31:267,0.658,0.655,0.006,115.478,191.467,215.942,
00:00:31:283,0.642,0.654,-0.017,136.963,239.135,166.809,
00:00:31:300,0.646,0.659,-0.043,153.076,259.704,143.676,
00:00:31:317,0.636,0.682,-0.003,177.124,263.549,97.412,
00:00:31:333,0.624,0.66,0.015,207.641,292.846,45.288,
00:00:31:350,0.631,0.622,-0.048,217.102,326.66,-7.996,
00:00:31:367,0.685,0.604,-0.075,187.255,252.99,-33.387,
00:00:31:383,0.691,0.544,0.041,47.912,125.183,-104.798,
00:00:31:400,0.617,0.653,0.038,-69.886,133.117,-117.737,
00:00:31:417,0.593,0.687,-0.002,-34.363,184.57,-187.806,
00:00:31:433,0.624,0.638,-0.055,92.041,218.75,-232.239,
00:00:31:450,0.608,0.639,-0.05,218.933,215.026,-225.037,
00:00:31:467,0.615,0.663,-0.061,283.935,231.628,-216.797,
00:00:31:483,0.624,0.63,-0.1,330.871,272.277,-225.22,
00:00:31:500,0.663,0.617,-0.068,303.222,313.72,-225.22,
00:00:31:517,0.679,0.635,0.008,79.589,306.213,-219.361,
00:00:31:533,0.666,0.679,-0.029,-65.552,326.11,-175.11,
00:00:31:550,0.709,0.673,-0.042,-48.584,274.719,-92.835,
00:00:31:567,0.782,0.858,-0.091,-257.813,242.004,-9.278,
00:00:31:583,0.8,1.005,-0.11,-298.34,141.418,15.686,
00:00:31:600,0.744,0.944,-0.07,-198.853,67.199,66.223,
00:00:31:617,0.677,0.82,-0.027,-134.461,76.66,105.529,
00:00:31:633,0.644,0.614,-0.065,-356.629,67.504,139.221,
00:00:31:650,0.692,0.637,-0.069,-766.053,47.668,173.523,
00:00:31:667,0.666,0.877,-0.174,-608.033,62.683,165.466,
00:00:31:683,0.599,0.916,-0.067,-78.919,-8.912,132.629,
00:00:31:700,0.623,0.803,0.059,-237.793,-15.198,148.071,
00:00:31:717,0.751,0.925,0.012,-678.406,58.776,169.616,
00:00:31:733,0.972,1.47,-0.11,-440.247,57.19,293.457,
00:00:31:750,0.844,1.182,0.02,101.196,-46.143,256.591,
00:00:31:767,0.695,0.812,-0.101,498.352,113.525,295.593,
00:00:31:783,0.802,0.845,-0.333,293.457,241.882,329.956,
00:00:31:800,0.944,1.185,-0.333,-147.828,218.811,415.405,
00:00:31:817,0.864,1.513,-0.201,-192.444,230.529,528.686,
00:00:31:833,0.738,1.332,-0.104,-100.037,312.011,530.944,
00:00:31:850,0.626,1.082,-0.024,-106.202,315.979,562.439,
00:00:31:867,0.586,1.163,-0.17,-161.744,390.686,690.551,
00:00:31:883,0.594,1.365,-0.268,-91.98,393.554,768.066,
00:00:31:900,0.579,1.429,-0.275,89.294,379.272,790.893,
00:00:31:917,0.515,1.332,-0.259,255.859,385.131,809.021,
00:00:31:933,0.434,1.138,-0.247,328.186,394.287,864.318,
00:00:31:950,0.378,1.027,-0.257,360.839,389.526,917.419,
00:00:31:967,0.319,0.983,-0.31,390.808,372.192,961.792,
00:00:31:983,0.292,1.009,-0.26,313.903,346.435,960.571,
00:00:32:0,0.254,1.109,-0.195,193.237,355.407,942.932,
00:00:32:17,0.205,1.062,-0.191,154.419,415.71,940.49,
00:00:32:33,0.172,0.993,-0.179,169.555,426.88,963.501,
00:00:32:50,0.141,1.01,-0.221,-50.843,412.841,972.046,
00:00:32:67,0.086,1.018,-0.183,-35.035,412.841,983.093,
00:00:32:83,0.002,1.006,-0.151,153.869,463.195,1014.343,
00:00:32:100,-0.039,0.909,-0.081,234.008,499.267,979.004,
00:00:32:117,-0.061,0.838,-0.118,173.767,517.578,979.309,
00:00:32:133,-0.092,0.833,-0.159,70.8,510.62,918.884,
00:00:32:150,-0.136,0.887,-0.123,386.718,453.064,828.979,
00:00:32:167,-0.228,0.737,-0.054,399.475,444.213,824.096,
00:00:32:183,-0.314,0.645,-0.06,369.079,422.729,768.737,
00:00:32:200,-0.33,0.612,-0.05,362.426,359.985,695.8,
00:00:32:217,-0.329,0.521,-0.001,402.832,327.514,643.127,
00:00:32:233,-0.448,0.534,0.065,234.985,251.831,529.602,
00:00:32:250,-0.449,0.605,0.014,226.257,229.797,468.139,
00:00:32:267,-0.424,0.648,0.037,360.229,198.12,446.716,
00:00:32:283,-0.458,0.611,0.087,481.689,181.03,443.969,
00:00:32:300,-0.48,0.572,0.107,522.338,180.969,422.851,
00:00:32:317,-0.502,0.565,0.123,535.339,170.898,411.01,
00:00:32:333,-0.539,0.518,0.159,520.141,133.545,379.394,
00:00:32:350,-0.561,0.526,0.208,517.944,93.078,352.6,
00:00:32:367,-0.542,0.47,0.248,476.013,68.42,318.542,
00:00:32:383,-0.581,0.495,0.265,356.567,57.128,285.278,
00:00:32:400,-0.574,0.559,0.248,283.386,42.297,270.08,
00:00:32:417,-0.578,0.599,0.252,286.132,34.484,257.263,
00:00:32:433,-0.581,0.619,0.258,300.171,47.18,259.704,
00:00:32:450,-0.575,0.646,0.245,265.686,54.748,236.389,
00:00:32:467,-0.618,0.619,0.195,261.657,58.349,224.548,
00:00:32:483,-0.628,0.636,0.249,272.888,49.804,220.703,
00:00:32:500,-0.626,0.606,0.305,253.662,59.875,200.866,
00:00:32:517,-0.629,0.582,0.328,233.642,83.068,190.49,
00:00:32:533,-0.668,0.505,0.301,158.447,84.35,162.719,
00:00:32:550,-0.664,0.511,0.294,98.449,64.88,142.212,
00:00:32:567,-0.68,0.541,0.302,74.829,63.903,134.277,
00:00:32:583,-0.68,0.555,0.319,77.941,72.448,118.53,
00:00:32:600,-0.715,0.598,0.315,66.528,76.965,101.501,
00:00:32:617,-0.739,0.609,0.342,93.383,65.185,88.012,
00:00:32:633,-0.737,0.621,0.364,131.408,55.542,87.28,
00:00:32:650,-0.783,0.712,0.385,186.889,84.472,110.046,
00:00:32:667,-0.859,0.72,0.391,233.703,131.286,145.08,
00:00:32:683,-0.892,0.807,0.396,255.249,157.653,155.578,
00:00:32:700,-0.893,0.77,0.464,271.118,178.466,159.607,
00:00:32:717,-0.86,0.778,0.482,285.766,184.814,175.659,
00:00:32:733,-0.864,0.748,0.492,317.627,188.659,206.115,
00:00:32:750,-0.884,0.755,0.482,393.493,217.163,240.844,
00:00:32:767,-0.88,0.725,0.475,481.689,262.695,274.719,
00:00:32:783,-0.891,0.689,0.514,509.094,287.414,271.545,
00:00:32:800,-0.845,0.603,0.507,558.96,292.602,272.4,
00:00:32:817,-0.816,0.544,0.504,598.144,296.081,272.888,
00:00:32:833,-0.804,0.497,0.533,606.384,334.716,275.879,
00:00:32:850,-0.811,0.495,0.542,623.718,383.972,282.409,
00:00:32:867,-0.77,0.453,0.541,653.198,411.926,278.625,
00:00:32:883,-0.748,0.417,0.524,608.703,408.813,260.803,
00:00:32:900,-0.69,0.386,0.48,539.978,379.211,247.131,
00:00:32:917,-0.665,0.464,0.533,529.968,349.731,269.47,
00:00:32:933,-0.633,0.429,0.553,625.915,337.219,295.654,
00:00:32:950,-0.627,0.336,0.563,699.585,338.317,337.158,
00:00:32:967,-0.631,0.26,0.56,736.023,330.017,363.22,
00:00:32:983,-0.64,0.189,0.56,658.63,312.194,358.703,
00:00:33:0,-0.62,0.212,0.625,564.514,282.104,335.754,
00:00:33:17,-0.603,0.178,0.623,506.408,266.723,332.885,
00:00:33:33,-0.584,0.15,0.623,520.446,252.197,338.317,
00:00:33:50,-0.584,0.124,0.625,537.414,238.891,312.805,
00:00:33:67,-0.559,0.064,0.579,472.778,207.702,297.424,
00:00:33:83,-0.576,0.14,0.633,440.796,192.077,317.627,
00:00:33:100,-0.584,0.096,0.672,466.186,181.762,300.171,
00:00:33:117,-0.591,-0.017,0.737,431.152,166.442,300.232,
00:00:33:133,-0.618,-0.048,0.712,368.774,146.301,299.865,
00:00:33:150,-0.582,-0.018,0.791,398.071,154.174,269.897,
00:00:33:167,-0.585,-0.069,0.783,405.944,149.78,283.203,drinkRH
00:00:33:183,-0.59,-0.062,0.745,399.17,126.22,291.992,
00:00:33:200,-0.597,-0.075,0.714,389.526,111.816,274.047,
00:00:33:217,-0.568,-0.112,0.702,451.355,104.919,267.944,
00:00:33:233,-0.557,-0.124,0.725,509.765,112.182,275.329,
00:00:33:250,-0.581,-0.191,0.714,570.861,122.619,287.902,
00:00:33:267,-0.557,-0.241,0.716,613.281,123.901,284.301,
00:00:33:283,-0.529,-0.288,0.736,634.216,117.859,270.935,
00:00:33:300,-0.483,-0.331,0.788,603.21,101.013,268.31,
00:00:33:317,-0.46,-0.37,0.794,508.789,65.124,243.408,
00:00:33:334,-0.442,-0.354,0.747,386.901,25.878,248.596,
00:00:33:350,-0.458,-0.382,0.71,282.837,-12.33,259.704,
00:00:33:367,-0.491,-0.435,0.705,205.749,-36.316,224.609,
00:00:33:384,-0.495,-0.475,0.694,158.874,-37.781,207.275,
00:00:33:400,-0.524,-0.475,0.675,135.925,-28.321,213.928,
00:00:33:417,-0.533,-0.457,0.626,165.588,-11.78,170.227,
00:00:33:434,-0.533,-0.461,0.648,178.039,10.07,151.55,
00:00:33:450,-0.535,-0.46,0.656,193.115,22.644,134.277,
00:00:33:467,-0.535,-0.487,0.706,171.936,36.071,102.478,
00:00:33:484,-0.51,-0.505,0.724,130.493,44.25,74.89,
00:00:33:500,-0.488,-0.478,0.74,102.417,49.377,62.866,
00:00:33:517,-0.499,-0.459,0.744,120.971,58.288,56.64,
00:00:33:534,-0.498,-0.484,0.727,148.986,62.316,43.335,
00:00:33:550,-0.5,-0.497,0.744,96.801,47.973,26.916,
00:00:33:567,-0.51,-0.494,0.742,71.228,48.217,13.488,
00:00:33:584,-0.485,-0.461,0.736,100.891,41.32,18.493,
00:00:33:600,-0.495,-0.432,0.717,130.92,30.761,27.526,
00:00:33:617,-0.509,-0.428,0.694,172.546,32.531,24.78,
00:00:33:634,-0.499,-0.464,0.676,185.547,24.292,10.681,
00:00:33:650,-0.505,-0.483,0.698,161.193,22.827,8.606,
00:00:33:667,-0.501,-0.506,0.719,152.649,27.099,-4.212,
00:00:33:684,-0.487,-0.521,0.722,135.07,26.55,-5.616,
00:00:33:700,-0.488,-0.53,0.728,110.962,22.094,-10.254,
00:00:33:717,-0.485,-0.531,0.707,82.397,14.343,-25.147,
00:00:33:734,-0.493,-0.534,0.709,13,-0.306,-39.002,
00:00:33:750,-0.501,-0.483,0.714,-40.772,-4.883,-47.852,
00:00:33:767,-0.497,-0.473,0.721,-28.626,-7.386,-56.275,
00:00:33:784,-0.498,-0.477,0.72,21.362,-7.996,-45.411,
00:00:33:800,-0.513,-0.505,0.717,38.391,-7.508,-40.162,
00:00:33:817,-0.544,-0.526,0.691,28.503,-0.489,-36.56,
00:00:33:834,-0.538,-0.523,0.721,-6.47,7.629,-44.312,
00:00:33:850,-0.526,-0.493,0.717,-22.889,2.197,-43.885,
00:00:33:867,-0.527,-0.48,0.71,-15.625,-2.381,-41.871,
00:00:33:884,-0.525,-0.456,0.699,-9.827,-4.212,-39.734,
00:00:33:900,-0.537,-0.445,0.712,21.24,-1.465,-31.8,
00:00:33:917,-0.534,-0.466,0.735,39.672,1.892,-29.175,
00:00:33:934,-0.522,-0.469,0.736,47.119,6.408,-21.302,
00:00:33:950,-0.534,-0.486,0.733,53.588,7.385,-14.344,
00:00:33:967,-0.538,-0.496,0.729,56.335,7.324,-13.123,
00:00:33:984,-0.545,-0.511,0.698,37.17,4.638,-16.053,
00:00:34:0,-0.538,-0.51,0.71,8.728,5.188,-19.532,
00:00:34:17,-0.534,-0.497,0.704,21.728,8.422,-18.921,
00:00:34:34,-0.536,-0.5,0.707,37.414,10.864,-13.489,
00:00:34:50,-0.532,-0.475,0.707,47.973,10.131,-13.855,
00:00:34:67,-0.528,-0.488,0.699,50.476,12.451,-15.442,
00:00:34:84,-0.51,-0.488,0.7,39.611,9.155,-21.485,
00:00:34:100,-0.508,-0.508,0.696,24.719,8.483,-23.682,
00:00:34:117,-0.532,-0.515,0.687,25.512,12.573,-21.729,
00:00:34:134,-0.545,-0.502,0.694,29.296,22.033,-27.955,
00:00:34:150,-0.536,-0.515,0.692,47.18,29.663,-38.758,
00:00:34:167,-0.522,-0.538,0.711,42.541,26.733,-45.472,
00:00:34:184,-0.522,-0.551,0.728,15.747,19.714,-51.209,
00:00:34:200,-0.52,-0.535,0.736,-3.907,12.329,-48.89,
00:00:34:217,-0.525,-0.51,0.713,-25.879,3.54,-48.951,
00:00:34:234,-0.523,-0.502,0.675,-24.414,2.868,-56.031,
00:00:34:250,-0.511,-0.502,0.667,-18.86,1.525,-52.247,
00:00:34:267,-0.518,-0.516,0.665,-20.508,2.868,-55.848,
00:00:34:284,-0.521,-0.532,0.678,-21.424,4.15,-57.007,
00:00:34:300,-0.507,-0.528,0.686,-39.734,7.446,-62.439,
00:00:34:317,-0.51,-0.519,0.711,-42.42,5.737,-63.721,
00:00:34:334,-0.504,-0.527,0.713,-57.618,3.234,-78.248,
00:00:34:350,-0.506,-0.527,0.708,-81.299,-4.578,-89.722,
00:00:34:367,-0.513,-0.52,0.71,-102.539,-8.362,-96.497,
00:00:34:384,-0.497,-0.502,0.703,-111.695,-5.31,-121.094,
00:00:34:400,-0.497,-0.488,0.678,-107.056,-2.442,-129.944,
00:00:34:417,-0.487,-0.476,0.68,-104.615,-2.442,-142.945,
00:00:34:434,-0.474,-0.489,0.658,-118.653,-7.386,-159.729,
00:00:34:450,-0.467,-0.508,0.639,-147.95,-9.766,-185.425,
00:00:34:467,-0.458,-0.486,0.651,-161.499,-7.874,-203.492,
00:00:34:484,-0.466,-0.473,0.676,-163.331,-2.32,-228.699,
00:00:34:500,-0.444,-0.494,0.662,-190.979,1.586,-264.71,
00:00:34:517,-0.418,-0.495,0.635,-258.118,-10.56,-295.533,
00:00:34:534,-0.457,-0.484,0.602,-350.525,-25.818,-318.665,
00:00:34:550,-0.532,-0.442,0.584,-423.523,-38.025,-339.295,
00:00:34:567,-0.492,-0.338,0.629,-437.195,-30.335,-365.784,
00:00:34:584,-0.431,-0.302,0.662,-414.978,-26.062,-391.48,
00:00:34:600,-0.421,-0.348,0.653,-466.065,-51.88,-387.94,
00:00:34:617,-0.474,-0.35,0.631,-592.591,-96.131,-386.475,
00:00:34:634,-0.57,-0.324,0.613,-705.872,-124.329,-393.921,
00:00:34:650,-0.619,-0.199,0.692,-716.37,-122.376,-416.993,
00:00:34:667,-0.593,-0.138,0.738,-670.716,-124.329,-449.402,
00:00:34:684,-0.549,-0.22,0.766,-747.376,-143.616,-478.943,
00:00:34:700,-0.524,-0.188,0.71,-851.319,-187.256,-492.981,
00:00:34:717,-0.533,-0.11,0.632,-899.476,-215.088,-477.662,
00:00:34:734,-0.58,-0.021,0.622,-911.255,-217.164,-471.558,
00:00:34:750,-0.597,0.018,0.613,-903.077,-201.905,-472.168,
00:00:34:767,-0.614,0.107,0.671,-902.1,-199.769,-484.925,
00:00:34:784,-0.559,0.092,0.618,-889.405,-220.276,-492.615,
00:00:34:800,-0.544,0.094,0.583,-890.87,-246.277,-501.099,
00:00:34:817,-0.611,0.187,0.567,-860.23,-251.893,-506.165,
00:00:34:834,-0.69,0.265,0.632,-794.617,-237.122,-503.174,
00:00:34:850,-0.645,0.333,0.63,-756.958,-233.094,-506.592,
00:00:34:867,-0.582,0.269,0.511,-786.377,-255.31,-512.94,
00:00:34:884,-0.557,0.249,0.417,-880.249,-296.021,-529.786,
00:00:34:900,-0.561,0.441,0.433,-861.695,-311.463,-546.204,
00:00:34:917,-0.566,0.524,0.451,-772.278,-312.5,-554.078,
00:00:34:934,-0.532,0.529,0.457,-706.177,-333.374,-547.791,
00:00:34:950,-0.503,0.503,0.382,-727.539,-376.282,-550.354,
00:00:34:967,-0.551,0.535,0.332,-775.391,-439.942,-563.111,
00:00:34:984,-0.631,0.582,0.331,-804.017,-471.802,-597.779,
00:00:35:0,-0.643,0.708,0.434,-787.842,-467.957,-610.23,
00:00:35:17,-0.701,0.717,0.438,-745.911,-451.233,-603.394,
00:00:35:34,-0.658,0.596,0.37,-712.83,-459.961,-591.431,
00:00:35:50,-0.638,0.641,0.354,-713.868,-459.839,-597.229,
00:00:35:67,-0.678,0.766,0.38,-676.697,-415.772,-618.531,
00:00:35:84,-0.703,0.779,0.382,-677.491,-391.724,-631.226,
00:00:35:100,-0.69,0.832,0.33,-632.203,-383.362,-622.559,
00:00:35:117,-0.637,0.803,0.233,-580.079,-393.128,-621.705,
00:00:35:134,-0.633,0.879,0.232,-531.556,-372.01,-622.193,
00:00:35:150,-0.635,0.918,0.213,-428.345,-348.084,-613.709,
00:00:35:167,-0.574,0.864,0.191,-308.716,-341.797,-605.835,
00:00:35:184,-0.52,0.745,0.161,-200.196,-343.384,-589.905,
00:00:35:200,-0.441,0.544,0.064,-255.127,-359.07,-595.215,
00:00:35:217,-0.406,0.534,-0.019,-333.619,-372.254,-636.231,
00:00:35:234,-0.421,0.54,-0.005,-400.452,-365.113,-685.914,
00:00:35:250,-0.39,0.705,0.019,-286.499,-329.895,-752.869,
00:00:35:267,-0.386,0.641,-0.005,-207.093,-341.98,-772.889,
00:00:35:284,-0.349,0.573,-0.058,-318.055,-382.752,-794.8,
00:00:35:300,-0.349,0.727,-0.167,-407.654,-438.721,-774.781,
00:00:35:317,-0.405,0.848,-0.081,-396.363,-475.708,-805.726,
00:00:35:334,-0.369,0.921,-0.069,-238.648,-425.11,-831.727,
00:00:35:350,-0.279,0.898,-0.066,-165.711,-365.357,-859.009,
00:00:35:367,-0.214,0.824,-0.117,-212.83,-338.013,-854.92,
00:00:35:384,-0.199,0.84,-0.048,-308.96,-369.69,-856.202,
00:00:35:400,-0.22,0.921,-0.031,-330.018,-415.039,-861.39,
00:00:35:417,-0.105,1.045,-0.083,-346.497,-431.458,-918.702,
00:00:35:434,-0.084,1.15,-0.159,-298.829,-373.169,-864.991,
00:00:35:450,-0.013,1.286,-0.18,-205.628,-352.112,-862.366,
00:00:35:467,-0.083,1.189,-0.011,-41.504,-319.764,-805.603,
00:00:35:484,-0.009,1.07,-0.16,-69.031,-293.152,-853.394,
00:00:35:500,0.201,0.99,-0.257,-452.82,-334.595,-928.162,
00:00:35:517,0.21,1.177,-0.275,-548.706,-338.074,-881.775,
00:00:35:534,0.159,1.284,-0.146,-240.967,-291.871,-802.613,
