TIMECODE,ACC_X,ACC_Y,ACC_Z,GYR_X,GYR_Y,GYR_Z,TAG
00:00:00:0,0.955,0.118,0.082,15.502,-19.471,1.098,
00:00:00:16,0.955,0.112,0.092,2.868,-21.851,1.709,
00:00:00:33,0.958,0.099,0.097,-22.706,-24.476,-2.869,
00:00:00:50,0.967,0.107,0.092,-47.608,-28.138,-4.639,
00:00:00:66,0.974,0.13,0.091,-48.645,-38.025,-3.113,
00:00:00:83,0.975,0.145,0.087,-61.89,-48.462,-8.851,
00:00:00:100,0.968,0.16,0.093,-63.355,-57.373,0.854,
00:00:00:116,0.939,0.165,0.08,-56.336,-46.998,15.258,
00:00:00:133,0.938,0.182,0.072,-43.885,-28.321,25.207,
00:00:00:150,0.96,0.183,0.075,-13.428,-23.194,26.428,
00:00:00:166,0.962,0.16,0.092,10.803,-30.152,29.052,
00:00:00:183,0.953,0.141,0.097,4.516,-27.527,35.156,
00:00:00:200,0.948,0.134,0.092,-11.414,-15.137,31.555,
00:00:00:216,0.951,0.134,0.091,-15.992,-6.47,23.254,
00:00:00:233,0.947,0.095,0.096,-4.517,-10.376,13.977,
00:00:00:250,0.941,0.11,0.103,6.774,-16.663,6.408,
00:00:00:266,0.936,0.11,0.125,1.464,-17.945,1.586,
00:00:00:283,0.937,0.094,0.123,-7.325,-11.231,-1.16,
00:00:00:300,0.946,0.132,0.12,-10.193,-5.921,-4.517,
00:00:00:316,0.955,0.144,0.127,-10.743,-1.77,-9.705,
00:00:00:333,0.958,0.149,0.123,-11.902,-3.357,-10.132,
00:00:00:350,0.961,0.161,0.124,-7.813,-6.165,-7.264,
00:00:00:366,0.952,0.166,0.125,-2.32,-8.118,-5.616,
00:00:00:383,0.942,0.165,0.125,3.967,-3.479,-2.869,
00:00:00:400,0.939,0.162,0.125,8.667,1.77,-5.249,
00:00:00:416,0.938,0.165,0.128,13.183,2.929,-6.531,
00:00:00:433,0.939,0.168,0.129,17.028,4.882,-8.606,
00:00:00:450,0.939,0.171,0.127,20.324,5.798,-12.696,
00:00:00:466,0.94,0.177,0.129,27.71,7.995,-16.663,
00:00:00:483,0.944,0.179,0.131,31.799,4.943,-18.494,
00:00:00:500,0.951,0.182,0.128,34.606,7.446,-19.104,
00:00:00:516,0.957,0.179,0.127,36.804,4.516,-19.288,
00:00:00:533,0.96,0.179,0.117,35.766,-0.245,-15.32,
00:00:00:550,0.953,0.173,0.117,38.635,-2.93,-10.56,
00:00:00:566,0.945,0.166,0.124,37.658,-5.616,-7.081,
00:00:00:583,0.948,0.153,0.118,35.4,-2.32,-7.386,
00:00:00:600,0.953,0.144,0.113,28.564,-1.77,-8.606,
00:00:00:616,0.955,0.147,0.115,25.573,-1.343,-11.048,
00:00:00:633,0.951,0.15,0.118,24.902,-2.808,-14.344,
00:00:00:650,0.948,0.152,0.117,26.672,1.281,-18.372,
00:00:00:666,0.947,0.153,0.12,31.433,4.455,-19.715,
00:00:00:683,0.939,0.161,0.118,32.898,4.821,-17.884,
00:00:00:700,0.932,0.16,0.122,42.907,4.76,-23.865,
00:00:00:716,0.931,0.159,0.126,45.776,10.253,-23.438,
00:00:00:733,0.941,0.156,0.127,46.936,10.376,-24.781,
00:00:00:750,0.946,0.161,0.13,46.325,10.009,-22.889,
00:00:00:766,0.956,0.164,0.13,45.41,6.53,-22.583,
00:00:00:783,0.963,0.161,0.124,40.954,2.319,-22.217,
00:00:00:800,0.961,0.159,0.123,34.057,-4.212,-16.48,
00:00:00:816,0.958,0.159,0.117,24.902,-3.174,-15.137,
00:00:00:833,0.963,0.159,0.118,19.592,-5.677,-14.466,
00:00:00:850,0.964,0.165,0.119,11.596,-6.043,-11.109,
00:00:00:866,0.964,0.164,0.117,11.535,-7.752,-10.437,
00:00:00:883,0.964,0.157,0.117,10.986,-12.391,-7.142,
00:00:00:900,0.959,0.156,0.109,4.272,-13.611,-2.442,
00:00:00:916,0.953,0.158,0.113,4.821,-30.457,0,
00:00:00:933,0.947,0.153,0.112,13.61,-11.536,0.793,
00:00:00:950,0.944,0.146,0.12,16.235,-8.057,-0.611,
00:00:00:966,0.943,0.135,0.121,14.709,-8.484,-3.54,
00:00:00:983,0.943,0.133,0.122,4.943,-6.409,-7.752,
00:00:01:0,0.942,0.133,0.119,-6.836,-3.052,-14.039,
00:00:01:16,0.942,0.141,0.118,-18.494,-3.663,-20.569,
00:00:01:33,0.935,0.156,0.117,-17.518,-2.076,-27.1,
00:00:01:50,0.921,0.158,0.119,-14.283,-0.061,-25.696,
00:00:01:66,0.947,0.167,0.125,-9.156,14.953,-29.419,
00:00:01:83,0.971,0.166,0.119,-5.677,11.108,-26.978,
00:00:01:100,0.952,0.16,0.117,-6.714,-0.367,-22.034,
00:00:01:116,0.934,0.166,0.118,-7.203,4.638,-22.4,
00:00:01:133,0.939,0.174,0.122,-2.442,14.465,-29.48,
00:00:01:150,0.95,0.174,0.123,6.408,17.7,-31.189,
00:00:01:166,0.947,0.172,0.123,5.371,13.671,-30.64,
00:00:01:183,0.942,0.178,0.13,8.972,13.305,-30.579,
00:00:01:200,0.935,0.177,0.13,14.709,16.418,-30.579,
00:00:01:216,0.932,0.169,0.136,15.197,19.836,-30.396,
00:00:01:233,0.936,0.168,0.134,16.174,23.315,-29.419,
00:00:01:250,0.942,0.168,0.132,21.362,21.484,-31.311,
00:00:01:266,0.951,0.166,0.137,20.446,20.08,-32.41,
00:00:01:283,0.951,0.168,0.139,18.432,18.676,-31.067,
00:00:01:300,0.949,0.163,0.144,15.869,14.892,-30.762,
00:00:01:316,0.951,0.163,0.132,12.939,11.962,-28.443,
00:00:01:333,0.947,0.161,0.132,9.094,10.62,-25.879,
00:00:01:350,0.947,0.158,0.125,5.737,10.986,-23.621,
00:00:01:366,0.948,0.153,0.119,0.61,8.606,-22.4,
00:00:01:383,0.95,0.149,0.119,-1.893,6.958,-20.569,
00:00:01:400,0.946,0.151,0.115,-5.494,7.08,-22.034,
00:00:01:416,0.945,0.15,0.118,-7.996,6.042,-22.461,
00:00:01:433,0.952,0.152,0.117,-15.442,6.469,-24.72,
00:00:01:450,0.95,0.16,0.123,-18.25,0.915,-22.156,
00:00:01:466,0.942,0.166,0.128,-20.63,1.22,-21.058,
00:00:01:483,0.945,0.17,0.129,-18.128,5.31,-22.278,
00:00:01:500,0.951,0.173,0.13,-12.635,6.713,-20.447,
00:00:01:516,0.953,0.17,0.135,-5.616,4.211,-18.311,
00:00:01:533,0.954,0.17,0.135,-2.564,3.356,-18.616,
00:00:01:550,0.952,0.168,0.132,-1.709,2.99,-19.227,
00:00:01:566,0.948,0.163,0.128,-0.916,2.319,-19.165,
00:00:01:583,0.944,0.162,0.127,-3.235,1.77,-19.715,
00:00:01:600,0.941,0.159,0.125,-7.447,3.784,-20.752,
00:00:01:616,0.94,0.161,0.127,-8.606,6.652,-19.776,
00:00:01:633,0.944,0.162,0.124,-7.203,6.469,-22.339,
00:00:01:650,0.944,0.163,0.121,-7.203,5.432,-21.363,
00:00:01:666,0.94,0.165,0.13,-3.907,4.394,-22.522,
00:00:01:683,0.942,0.167,0.125,2.319,5.981,-23.865,
00:00:01:700,0.945,0.168,0.125,6.286,5.493,-25.513,
00:00:01:716,0.949,0.167,0.132,4.882,9.155,-25.147,
00:00:01:733,0.952,0.167,0.129,-1.343,7.629,-22.522,
00:00:01:750,0.95,0.169,0.128,-1.465,5.676,-20.142,
00:00:01:766,0.951,0.168,0.128,-1.648,5.249,-19.165,
00:00:01:783,0.946,0.166,0.124,0,6.469,-18.25,
00:00:01:800,0.945,0.162,0.12,-0.855,5.004,-17.64,
00:00:01:816,0.945,0.161,0.114,-1.648,3.479,-20.142,
00:00:01:833,0.95,0.166,0.099,-12.818,9.582,-22.706,
00:00:01:850,0.982,0.152,0.075,-43.213,15.625,-26.123,
00:00:01:866,0.998,0.155,0.059,-78.919,7.08,-20.081,
00:00:01:883,0.979,0.162,0.046,-103.394,-13.123,-9.461,
00:00:01:900,0.941,0.17,0.047,-103.821,-28.443,-11.048,
00:00:01:916,0.912,0.177,0.053,-105.103,-28.992,-18.128,
00:00:01:933,0.912,0.174,0.082,-104.248,-16.724,-17.395,
00:00:01:950,0.912,0.183,0.108,-77.271,-13.611,-12.146,
00:00:01:966,0.912,0.186,0.135,-26.368,-12.574,-8.423,
00:00:01:983,0.915,0.182,0.154,29.174,-7.081,-9.644,
00:00:02:0,0.92,0.171,0.18,67.627,-4.578,-14.039,
00:00:02:16,0.928,0.147,0.192,82.031,5.676,-16.541,
00:00:02:33,0.95,0.146,0.201,70.312,6.591,-24.842,
00:00:02:50,0.987,0.138,0.193,30.7,-6.47,-34.974,
00:00:02:66,0.988,0.128,0.168,-33.326,-10.01,-38.819,
00:00:02:83,0.958,0.133,0.136,-90.577,4.821,-31.922,
00:00:02:100,0.935,0.186,0.094,-139.222,10.437,-25.635,
00:00:02:116,0.948,0.177,0.116,-121.949,-8.057,-28.992,
00:00:02:133,0.933,0.171,0.116,-115.967,-5.86,-14.893,
00:00:02:150,0.925,0.206,0.118,-89.966,7.08,2.929,
00:00:02:166,0.945,0.242,0.148,-43.946,-2.747,2.014,
00:00:02:183,0.94,0.158,0.177,10.986,3.723,-19.776,
00:00:02:200,0.936,0.162,0.176,-18.372,8.606,-15.87,
00:00:02:216,0.934,0.175,0.181,-38.575,16.357,-17.884,
00:00:02:233,0.939,0.186,0.171,-15.809,21.301,-19.837,
00:00:02:250,0.954,0.19,0.174,-14.222,21.85,-25.025,
00:00:02:266,0.958,0.194,0.174,4.882,19.165,-26.917,
00:00:02:283,0.966,0.204,0.184,34.423,29.113,-32.105,
00:00:02:300,1.031,0.227,0.182,74.951,53.222,-46.998,
00:00:02:316,1.051,0.266,0.237,125.061,79.834,-67.627,
00:00:02:333,1.157,0.385,0.514,213.134,64.331,-111.939,
00:00:02:350,1.234,0.489,0.867,260.131,68.786,-71.412,
00:00:02:366,1.19,0.643,1.198,132.568,-66.468,174.438,
00:00:02:383,1.274,0.999,1.628,-273.743,-249.756,447.631,
00:00:02:400,1.743,1.798,2.306,-214.417,-501.465,686.218,
00:00:02:416,2.364,2.418,2.926,845.947,-797.181,1034.24,
00:00:02:433,2.746,1.45,2.968,1386.901,-1275.208,1184.326,
00:00:02:450,3.035,1.018,2.843,871.338,-1778.626,1437.194,
00:00:02:466,3.241,1.324,2.42,418.274,-2000,1521.362,
00:00:02:483,3.334,1.624,1.976,557.556,-2000,1519.47,
00:00:02:500,3.523,1.588,1.423,908.081,-2000,1455.993,
00:00:02:516,3.783,1.526,0.729,993.53,-2000,1422.729,
00:00:02:533,3.781,1.439,0.279,771.24,-2000,1480.59,
00:00:02:550,3.357,1.222,-0.207,615.539,-2000,1633.911,
00:00:02:566,2.782,0.863,-0.27,680.297,-2000,1863.403,
00:00:02:583,2.329,0.563,-0.179,831.909,-2000,1952.392,
00:00:02:600,2.077,0.326,-0.243,847.046,-2000,1889.465,
00:00:02:616,1.854,0.267,-0.476,721.069,-2000,1799.804,
00:00:02:633,1.591,0.241,-0.688,715.637,-2000,1645.691,
00:00:02:650,1.219,0.129,-0.72,727.783,-2000,1490.844,
00:00:02:666,0.888,0.04,-0.6,676.513,-2000,1266.479,
00:00:02:683,0.701,-0.035,-0.52,587.28,-2000,984.314,
00:00:02:700,0.543,-0.168,-0.556,447.998,-2000,798.095,
00:00:02:716,0.355,-0.294,-0.622,286.499,-1776.978,696.899,
00:00:02:733,0.217,-0.337,-0.669,156.189,-1462.891,640.197,
00:00:02:750,0.119,-0.386,-0.817,110.595,-1181.641,578.918,
00:00:02:766,0.021,-0.484,-0.913,13.549,-948.06,516.052,
00:00:02:783,-0.079,-0.505,-0.965,-201.355,-724.427,468.628,
00:00:02:800,-0.185,-0.443,-0.948,-327.637,-483.582,411.621,
00:00:02:816,-0.265,-0.417,-0.902,-263.062,-231.08,349.121,
00:00:02:833,-0.307,-0.442,-0.863,-76.783,19.897,282.959,
00:00:02:850,-0.313,-0.53,-0.79,138.427,242.92,210.876,
00:00:02:866,-0.278,-0.624,-0.753,240.356,453.064,139.526,
00:00:02:883,-0.212,-0.723,-0.715,182.495,653.076,43.029,
00:00:02:900,-0.157,-0.748,-0.667,10.986,825.561,-39.856,
00:00:02:916,-0.109,-0.684,-0.657,-183.594,997.985,-150.513,
00:00:02:933,-0.033,-0.526,-0.613,-360.047,1174.072,-302.124,
00:00:02:950,0.09,-0.387,-0.567,-408.631,1327.575,-497.254,
00:00:02:966,0.209,-0.35,-0.541,-422.913,1463.44,-694.703,
00:00:02:983,0.319,-0.418,-0.539,-530.335,1580.871,-867.066,
00:00:03:0,0.486,-0.415,-0.499,-783.57,1689.575,-1006.958,
00:00:03:16,0.702,-0.203,-0.5,-1102.845,1814.514,-1169.312,
00:00:03:33,0.968,0.156,-0.48,-1285.95,1948.425,-1407.288,
00:00:03:50,1.204,0.46,-0.349,-1190.186,1999.694,-1705.811,
00:00:03:66,1.398,0.476,-0.158,-944.153,1999.694,-1998.047,
00:00:03:83,1.718,0.502,0.07,-987.122,1999.694,-2000,
00:00:03:100,2.08,0.9,0.073,-1484.192,1999.694,-2000,
00:00:03:116,2.292,1.305,0.028,-1878.479,1999.694,-2000,
00:00:03:133,2.299,1.599,-0.032,-1933.716,1999.694,-2000,
00:00:03:150,2.107,2.141,0.327,-1569.52,1999.694,-2000,
00:00:03:166,1.866,2.231,0.606,-1120.057,1999.694,-2000,
00:00:03:183,1.867,2.053,0.95,-1018.738,1999.694,-2000,
00:00:03:200,2.378,1.892,1.176,-1244.385,1999.694,-2000,
00:00:03:216,2.82,2.28,1.013,-1273.987,1999.694,-2000,
00:00:03:233,2.82,2.664,1.026,-723.572,1999.694,-2000,
00:00:03:250,2.587,2.48,1.129,163.025,1999.694,-1971.863,
00:00:03:266,2.418,1.968,1.205,822.326,1825.195,-1712.647,
00:00:03:283,2.267,1.605,1.466,1116.638,1805.847,-1384.217,
00:00:03:300,2.64,3.114,3.999,-2000,1598.51,-612.854,
00:00:03:316,1.806,3.999,1.491,-1079.346,-433.899,1213.806,
00:00:03:333,0.37,0.971,1.08,408.142,-561.524,-129.09,
00:00:03:350,0.295,0.035,0.409,932.861,11.169,-189.331,
00:00:03:366,0.689,-0.147,0.086,330.139,493.164,-11.719,
00:00:03:383,0.904,0.12,-0.131,-196.228,228.881,-105.774,
00:00:03:400,0.814,0.268,-0.294,-215.76,140.93,28.259,
00:00:03:416,0.645,0.106,-0.367,-199.707,2.868,-14.771,
00:00:03:433,0.551,-0.049,-0.47,-334.046,-3.418,-145.386,
00:00:03:450,0.643,-0.045,-0.538,-500.428,76.782,-293.091,
00:00:03:466,0.77,0.083,-0.516,-527.588,64.392,-355.042,
00:00:03:483,0.774,0.175,-0.422,-342.713,8.361,-397.522,
00:00:03:500,0.714,0.216,-0.314,-43.213,37.414,-446.595,
00:00:03:516,0.781,0.184,-0.297,252.929,135.62,-534.241,
00:00:03:533,0.935,0.403,-0.194,619.873,161.621,-536.499,
00:00:03:550,1.239,0.444,0.263,819.091,26.489,-350.525,
00:00:03:566,1.424,0.41,0.836,71.35,-104.371,-256.531,
00:00:03:583,1.355,0.833,0.561,-502.991,-44.495,-1.954,
00:00:03:600,1.062,0.817,0.325,-250.428,-119.324,20.935,
00:00:03:616,0.953,0.462,0.183,7.812,-56.702,56.762,
00:00:03:633,0.954,0.318,0.136,-17.518,13.427,94.36,
00:00:03:650,0.963,0.356,0.088,-2.808,-4.883,123.047,
00:00:03:666,0.94,0.421,0.11,120.727,-22.278,88.867,
00:00:03:683,0.927,0.444,0.145,338.684,-2.625,-7.264,
00:00:03:700,0.901,0.377,0.125,527.526,22.277,-107.789,
00:00:03:716,0.881,0.263,0.098,598.571,22.277,-147.583,
00:00:03:733,0.933,0.271,0.093,494.629,14.404,-154.908,
00:00:03:750,0.965,0.276,0.082,395.446,-30.396,-131.348,
00:00:03:766,0.97,0.47,0.138,546.325,-67.261,-139.222,
00:00:03:783,1.026,0.975,0.172,1134.46,-66.895,-158.997,
00:00:03:800,1.065,0.784,-0.232,1783.203,-133.667,-383.973,
00:00:03:816,1.009,0.388,-0.151,1999.694,-335.999,-312.623,
00:00:03:833,0.923,0.01,0.025,1949.463,-384.888,-241.394,
00:00:03:850,0.952,-0.146,0.118,1672.973,-405.213,-124.085,
00:00:03:866,0.937,0.027,0.139,1533.325,-434.144,127.075,
00:00:03:883,0.847,0.011,0.059,1157.104,-440.674,253.112,
00:00:03:900,0.924,0.106,0.149,759.094,-481.873,391.296,
00:00:03:916,0.894,0.225,0.071,583.862,-448.243,580.993,
00:00:03:933,0.837,0.29,0.072,506.713,-344.056,742.553,
00:00:03:950,0.865,0.36,0.098,438.354,-196.106,728.149,
00:00:03:966,0.932,0.444,0.182,486.572,-306.824,846.74,
00:00:03:983,0.995,0.488,0.213,572.204,-467.347,737.487,
00:00:04:0,0.889,0.497,0.333,672.607,-639.405,809.082,
00:00:04:16,0.723,0.538,0.359,818.603,-635.01,848.999,
00:00:04:33,0.695,0.344,0.501,889.404,-548.706,773.254,
00:00:04:50,0.804,0.307,0.773,774.658,-421.998,847.778,
00:00:04:66,0.761,0.555,0.762,668.213,-228.089,867.004,
00:00:04:83,0.64,0.657,0.653,827.148,-45.838,722.29,
00:00:04:100,0.588,0.376,0.495,970.764,105.957,632.08,
00:00:04:116,0.59,0.161,0.369,877.014,223.449,674.804,
00:00:04:133,0.562,0.285,0.212,596.008,352.905,653.198,
00:00:04:150,0.694,0.412,0.281,588.989,386.23,564.087,
00:00:04:166,0.835,0.331,0.457,733.947,369.201,530.639,
00:00:04:183,0.807,0.265,0.376,741.455,394.958,467.163,
00:00:04:200,0.743,0.176,0.15,703.003,374.878,355.713,
00:00:04:216,0.739,0.027,0.111,651.55,251.77,293.274,
00:00:04:233,1.013,-0.482,0.418,418.823,-177.613,152.71,
00:00:04:250,1.222,-0.511,1.057,-143.555,-584.839,1.892,
00:00:04:266,0.673,-0.252,0.992,-139.466,-354.493,-501.465,
00:00:04:283,0.399,0.168,0.547,-16.419,-197.876,-166.138,
00:00:04:300,0.587,0.153,0.52,126.281,-301.88,-201.966,
00:00:04:316,0.757,0.817,0.291,-128.54,-328.98,-52.979,
00:00:04:333,0.768,1.286,0.721,251.22,-283.631,81.237,
00:00:04:350,0.654,0.775,1.026,787.719,-306.336,53.588,
00:00:04:366,0.326,0.38,0.754,661.071,-223.084,100.219,
00:00:04:383,0.305,0.204,0.694,225.647,-32.715,110.351,
00:00:04:400,0.345,-0.115,0.473,30.944,95.642,3.723,
00:00:04:416,0.312,-0.143,0.703,45.593,336.242,15.747,
00:00:04:433,1.031,-1.573,0.634,772.277,214.843,-1319.581,rollRH
00:00:04:450,0.135,-1.487,0.344,-369.141,386.047,-407.044,
00:00:04:466,0.629,0.458,0.462,-1058.472,138.427,-451.233,
00:00:04:483,0.825,1.619,0.598,-189.331,-28.687,-278.504,
00:00:04:500,0.574,0.611,0.672,490.051,-41.504,-627.137,
00:00:04:516,0.616,-0.124,0.838,336.853,-3.846,-536.927,
00:00:04:533,0.64,0.103,0.907,-73.609,52.002,-395.813,
00:00:04:550,0.633,0.408,0.824,-154.297,86.914,-383.606,
00:00:04:566,0.757,0.336,0.644,-38.147,94.421,-416.443,
00:00:04:583,0.786,0.22,0.644,-70.618,72.876,-413.208,
00:00:04:600,0.794,0.245,0.546,-91.675,69.702,-380.005,
00:00:04:616,0.779,0.351,0.646,-58.899,41.076,-338.257,
00:00:04:633,0.717,0.371,0.63,61.096,80.505,-293.274,
00:00:04:650,0.783,0.293,0.495,133.117,104.065,-250.123,
00:00:04:666,0.786,0.25,0.483,191.711,110.229,-173.279,
00:00:04:683,0.808,0.327,0.487,286.255,123.352,-90.394,
00:00:04:700,0.805,0.182,0.427,315.49,175.537,-8.728,
00:00:04:716,0.776,0.186,0.428,267.883,207.092,89.416,
00:00:04:733,0.752,0.177,0.463,229.797,227.417,168.884,
00:00:04:750,0.78,0.18,0.418,194.519,201.416,215.088,
00:00:04:766,0.824,0.282,0.438,166.32,139.648,188.415,
00:00:04:783,0.845,0.17,0.483,190.673,72.815,130.005,
00:00:04:800,1.095,0.099,0.508,124.267,-84.839,28.32,
00:00:04:816,0.9,-0.084,0.579,36.254,-72.266,-74.952,
00:00:04:833,0.973,-0.233,0.527,-109.986,0.244,-122.071,
00:00:04:850,1.029,-0.025,0.563,-197.022,8.667,-158.326,
00:00:04:866,1.065,-0.126,0.619,-263.794,-47.852,-161.499,
00:00:04:883,1.102,0.023,0.773,-395.081,-146.546,-75.318,
00:00:04:900,0.992,0.481,0.844,-311.402,-215.027,57.678,
00:00:04:916,0.885,0.163,0.907,-189.331,-235.474,119.995,
00:00:04:933,0.901,0.154,0.927,-279.541,-244.751,197.754,
00:00:04:950,0.886,0.261,0.936,-263.062,-255.249,249.084,
00:00:04:966,0.781,0.165,0.814,-129.273,-259.644,247.314,
00:00:04:983,0.655,0.025,0.711,-127.93,-261.048,224.06,
00:00:05:0,0.565,0.101,0.697,-147.4,-239.93,179.504,
00:00:05:16,0.467,0.178,0.669,-90.943,-189.393,114.807,
00:00:05:33,0.409,0.112,0.657,-103.272,-138.001,91.919,
00:00:05:50,0.369,0.289,0.605,-64.576,-34.852,34.423,
00:00:05:66,0.437,0.191,0.416,-86.426,93.994,-7.325,
00:00:05:83,0.507,0.375,0.39,-96.924,185.547,7.812,
00:00:05:100,0.615,0.464,0.423,32.653,226.867,-54.627,
00:00:05:116,0.647,0.388,0.466,89.843,266.174,-55.664,
00:00:05:133,0.699,0.236,0.501,205.81,310.241,-77.759,
00:00:05:150,0.727,-0.056,0.564,282.47,315.307,-147.217,
00:00:05:166,0.834,-0.162,0.499,157.043,209.289,-155.335,
00:00:05:183,0.954,0.062,0.536,125.549,59.997,-175.66,
00:00:05:200,0.933,-0.16,0.598,104.797,-22.461,-266.419,
00:00:05:216,0.942,0.121,0.536,-103.821,-45.472,-146.668,
00:00:05:233,0.761,0.385,0.517,-89.234,-10.498,-100.953,
00:00:05:250,0.752,0.426,0.548,-32.532,23.132,-19.471,
00:00:05:266,0.738,0.37,0.423,42.724,81.909,66.101,
00:00:05:283,0.778,0.041,0.493,158.142,70.922,64.88,
00:00:05:300,0.736,-0.094,0.658,92.651,56.274,52.917,
00:00:05:316,0.622,0.092,0.725,20.202,106.872,52.185,
00:00:05:333,0.592,-0.055,0.694,-79.834,151.062,20.813,
00:00:05:350,0.638,0.076,0.713,-142.823,137.634,14.953,
00:00:05:366,0.729,0.207,0.737,-120.118,92.712,18.249,
00:00:05:383,0.724,0.241,0.71,-42.664,84.472,11.413,
00:00:05:400,0.909,0.244,0.727,-128.296,3.295,18.737,
00:00:05:416,0.976,0.613,0.92,-34.546,-145.874,110.29,
00:00:05:433,0.905,0.275,0.85,-52.063,-187.073,88.928,
00:00:05:450,0.956,0.174,0.63,-173.951,-196.839,147.4,
00:00:05:466,0.979,0.248,0.633,-193.238,-234.253,195.678,
00:00:05:483,0.949,0.275,0.702,-158.814,-270.203,220.886,
00:00:05:500,0.851,0.318,0.703,-59.632,-262.024,216.674,
00:00:05:516,0.726,0.243,0.71,-3.052,-223.572,222.168,
00:00:05:533,0.599,0.232,0.697,47.119,-127.259,218.139,
00:00:05:550,0.565,0.08,0.734,25.024,-112.244,207.946,
00:00:05:566,0.537,0.197,0.822,-19.532,-118.287,173.095,
00:00:05:583,0.515,0.242,0.722,-30.152,-139.588,114.013,
00:00:05:600,0.432,0.243,0.7,28.93,-149.231,61.279,
00:00:05:616,0.338,0.306,0.625,26.428,-92.469,28.747,
00:00:05:633,0.299,0.278,0.507,31.86,-43.763,-0.367,
00:00:05:650,0.322,0.305,0.547,68.237,25.817,-1.77,
00:00:05:666,0.435,0.328,0.479,157.165,110.839,-16.358,
00:00:05:683,0.652,0.255,0.502,246.399,137.146,-8.179,
00:00:05:700,0.794,0.204,0.565,315.368,170.288,39.184,
00:00:05:716,0.862,0.104,0.533,331.421,151.794,47.973,
00:00:05:733,0.894,0.098,0.41,233.581,128.845,70.556,
00:00:05:750,0.802,0.214,0.514,171.569,140.442,51.757,
00:00:05:766,0.796,0.144,0.478,124.267,155.456,21.24,
00:00:05:783,0.726,0.217,0.55,29.785,154.235,24.414,
00:00:05:800,0.743,0.338,0.603,23.925,116.211,11.047,
00:00:05:816,0.7,0.343,0.657,55.969,58.715,-1.648,
00:00:05:833,0.665,0.297,0.763,58.715,3.295,-15.076,
00:00:05:850,0.655,0.328,0.896,80.871,-64.27,1.403,
00:00:05:866,0.623,0.189,0.857,86.731,-128.357,-17.518,
00:00:05:883,0.608,0.084,0.667,35.4,-135.193,-31.617,
00:00:05:900,0.686,0.219,0.625,-7.569,-107.85,-28.138,
00:00:05:916,0.626,0.141,0.53,40.1,-75.989,-32.654,
00:00:05:933,0.616,0.175,0.669,43.457,-6.714,2.319,
00:00:05:950,0.691,0.18,0.741,94.36,26.184,12.939,
00:00:05:966,0.675,0.158,0.696,53.222,62.5,40.405,
00:00:05:983,0.713,0.24,0.663,27.099,79.834,39.062,
00:00:06:0,0.762,0.307,0.705,24.963,5.127,36.743,
00:00:06:16,0.768,0.317,0.725,26.184,-25.696,31.86,
00:00:06:33,0.74,0.302,0.685,22.277,-49.622,12.329,
00:00:06:50,0.674,0.186,0.684,22.155,-47.852,2.746,
00:00:06:66,0.656,0.144,0.54,-49.5,-10.682,-24.048,
00:00:06:83,0.663,0.255,0.612,-60.608,-7.264,-15.686,
00:00:06:100,0.687,0.292,0.666,-31.678,-12.513,-13.062,
00:00:06:116,0.686,0.226,0.65,-28.931,-7.447,-3.724,
00:00:06:133,0.689,0.302,0.807,-17.945,-69.031,7.812,
00:00:06:150,0.717,0.247,0.61,-36.988,-36.988,16.906,
00:00:06:166,0.731,0.301,0.7,15.258,-49.561,25.085,
00:00:06:183,0.743,0.241,0.731,-8.912,-48.035,13.549,
00:00:06:200,0.713,0.276,0.663,-29.969,-49.378,11.535,
00:00:06:216,0.671,0.174,0.621,-59.937,-41.81,7.141,
00:00:06:233,0.629,0.163,0.642,-58.106,-92.347,24.169,
00:00:06:250,0.597,0.187,0.607,-47.974,-93.079,39.672,
00:00:06:266,0.584,0.311,0.776,1.098,-65.491,18.798,
00:00:06:283,0.634,0.266,0.782,-76.05,-65.796,25.146,
00:00:06:300,0.54,0.056,0.703,-163.575,-61.28,26.916,
00:00:06:316,0.591,0.286,0.729,-93.262,-56.519,62.133,
00:00:06:333,0.548,0.261,0.772,-42.786,-46.57,69.946,
00:00:06:350,0.645,0.303,0.666,-58.045,-42.237,98.999,
00:00:06:366,0.573,0.188,0.602,-80.933,-61.158,92.468,
00:00:06:383,0.603,0.332,0.604,-118.714,-34.119,82.885,
00:00:06:400,0.583,0.242,0.646,-61.829,-14.039,57.373,
00:00:06:416,0.6,0.331,0.816,-191.834,64.514,33.02,
00:00:06:433,0.661,0.45,0.788,-177.369,65.002,40.283,
00:00:06:450,0.708,0.491,0.776,-27.832,-13.001,210.51,
00:00:06:466,0.688,0.342,0.852,169.311,34.912,282.959,
00:00:06:483,0.674,0.239,0.745,263.733,168.823,364.563,
00:00:06:500,0.722,0.131,0.31,427.978,170.166,432.373,
00:00:06:516,0.734,0.22,0.398,470.398,178.283,488.464,
00:00:06:533,0.768,0.322,0.049,546.02,205.017,483.52,
00:00:06:550,0.781,0.285,0.365,516.052,196.045,399.109,
00:00:06:566,0.742,0.314,0.484,542.114,271.057,348.693,
00:00:06:583,0.636,0.16,0.553,675.415,242.675,217.224,
00:00:06:600,0.582,0.043,0.578,648.986,118.408,156.738,
00:00:06:616,0.474,0.401,0.859,318.786,-60.425,161.132,
00:00:06:633,0.211,0.587,1.123,214.294,-39.063,102.539,
00:00:06:650,0.594,0.455,0.957,384.094,-69.153,88.317,
00:00:06:666,0.65,-0.006,0.984,427.185,-208.558,76.66,
00:00:06:683,0.698,-0.073,0.95,164.978,-304.688,-8.362,
00:00:06:700,0.75,0.157,0.865,130.493,-342.835,-34.302,
00:00:06:716,0.733,0.385,0.601,16.967,-346.985,-43.03,
00:00:06:733,0.472,0.479,0.702,-40.65,-75.501,16.357,
00:00:06:750,0.619,0.447,0.68,74.218,2.807,28.442,
00:00:06:766,0.699,0.6,0.8,307.19,-31.922,53.527,
00:00:06:783,0.765,0.505,0.749,312.5,-91.248,-56.214,
00:00:06:800,0.722,0.531,0.607,294.067,-141.419,-159.607,
00:00:06:816,0.365,0.394,0.739,78.002,213.928,-565.796,
00:00:06:833,0.372,0.395,0.498,567.505,481.14,-688.599,
00:00:06:850,0.465,-0.586,0.583,268.982,409.607,-723.938,
00:00:06:866,0.42,-0.389,0.748,-103.638,185.485,-477.601,
00:00:06:883,0.157,-0.113,1.078,-267.762,178.65,-541.26,
00:00:06:900,0.103,-0.125,0.787,-615.113,104.98,-502.32,
00:00:06:916,0.48,0.563,0.758,-1029.358,86.486,-478.272,
00:00:06:933,0.372,0.478,1.574,-515.137,-303.162,-216.797,
00:00:06:950,0.418,-0.023,1.46,24.902,-345.948,-120.423,
00:00:06:966,0.265,-0.3,1.154,-93.018,-204.834,-255.066,
00:00:06:983,0.351,-0.221,0.815,-309.388,-117.493,-274.292,
00:00:07:0,0.515,-0.039,0.717,-378.785,-130.799,-196.106,
00:00:07:16,0.685,0.029,0.703,-332.825,-81.849,-151.917,
00:00:07:33,0.717,-0.056,0.54,-230.591,-5.433,-109.314,
00:00:07:50,0.679,0.274,0.541,-296.143,67.565,-128.846,
00:00:07:66,0.666,0.42,0.612,-284.974,109.192,-176.331,
00:00:07:83,0.694,0.303,0.648,-192.444,72.143,-139.466,
00:00:07:100,0.641,0.257,0.921,-22.706,57.678,-77.149,
00:00:07:116,0.643,0.062,0.93,-26.246,51.33,-40.833,
00:00:07:133,0.596,0.083,1.114,-37.903,89.965,-5.127,
00:00:07:150,0.549,0.132,0.77,-357.3,-43.58,-100.831,
00:00:07:166,0.639,0.338,0.697,-340.149,-35.34,-81.421,
00:00:07:183,0.583,0.131,0.801,-250.184,-108.887,-30.457,
00:00:07:200,0.534,0.263,0.645,-253.724,-36.683,77.392,
00:00:07:216,0.563,0.184,0.635,-259.827,48.4,22.949,
00:00:07:233,0.613,0.356,0.448,-65.674,108.886,73.303,
00:00:07:250,0.614,0.529,0.609,117.37,72.753,75.561,
00:00:07:266,0.566,0.256,0.574,144.104,85.327,-0.184,
00:00:07:283,0.728,0.173,0.655,174.438,62.988,-1.893,
00:00:07:300,0.631,0.265,0.7,69.763,51.269,6.164,
00:00:07:316,0.701,0.317,0.625,107.238,60.302,-16.053,
00:00:07:333,0.686,0.351,0.711,227.111,-10.01,4.76,
00:00:07:350,0.588,0.276,0.813,123.352,-61.341,6.225,
00:00:07:366,0.607,0.242,0.745,-121.705,-49.256,-13.123,
00:00:07:383,0.614,0.273,0.743,-121.399,-53.467,-17.212,
00:00:07:400,0.523,0.287,0.75,9.399,-73.731,-15.564,
00:00:07:416,0.545,0.269,0.802,68.725,-84.046,-31.556,
00:00:07:433,0.512,0.305,0.844,73.12,-75.684,-52.308,
00:00:07:450,0.524,0.259,0.864,40.71,-60.547,-63.843,
00:00:07:466,0.538,0.22,0.779,50.964,-37.232,-59.082,
00:00:07:483,0.529,0.19,0.754,80.017,-15.137,-40.589,
00:00:07:500,0.555,0.212,0.774,80.2,28.808,-30.152,
00:00:07:516,0.587,0.25,0.775,81.665,50.17,-28.748,
00:00:07:533,0.589,0.268,0.82,105.957,64.148,-25.757,
00:00:07:550,0.597,0.235,0.753,95.764,91.613,-41.016,
00:00:07:566,0.605,0.227,0.744,119.323,80.261,-39.978,
00:00:07:583,0.597,0.26,0.62,126.587,65.002,-43.335,
00:00:07:600,0.543,0.213,0.705,103.942,59.448,-77.393,
00:00:07:616,0.583,0.2,0.743,35.644,82.763,-100.159,
00:00:07:633,0.59,0.206,0.816,2.441,98.388,-124.573,
00:00:07:650,0.646,0.122,0.487,-4.334,89.782,-126.831,
00:00:07:666,0.768,0.511,0.644,45.471,-64.148,-89.905,
00:00:07:683,0.537,0.082,0.782,129.089,-137.391,-188.416,
00:00:07:700,0.681,0.15,0.789,-123.291,-139.954,-158.814,
00:00:07:716,0.622,0.295,0.78,-190.125,-129.639,-196.778,
00:00:07:733,0.727,0.247,0.684,-188.477,-98.572,-222.046,
00:00:07:750,0.812,0.398,0.408,-179.017,-57.373,-156.128,
00:00:07:766,0.782,0.468,0.425,-156.556,-99.854,-159.302,
00:00:07:783,0.786,0.369,0.437,-74.585,-66.346,-163.819,
00:00:07:800,0.909,0.273,0.582,-4.212,-74.402,-83.313,
00:00:07:816,0.862,0.288,0.867,-77.149,-142.151,-49.5,
00:00:07:833,0.809,0.136,0.692,-101.685,-91.553,-34.607,
00:00:07:850,0.823,0.052,0.715,-143.433,-55.481,-14.039,
00:00:07:866,0.78,0.037,0.691,-142.701,-21.546,55.175,
00:00:07:883,0.746,0.105,0.639,-105.347,8.972,69.397,
00:00:07:900,0.685,0.102,0.577,-27.649,-26.551,126.648,
00:00:07:916,0.608,0.114,0.541,-1.954,30.456,90.576,
00:00:07:933,0.632,0.219,0.362,2.685,126.403,84.106,
00:00:07:950,0.701,0.338,0.354,39.489,154.846,78.369,
00:00:07:966,0.691,0.392,0.49,63.171,179.382,87.158,
00:00:07:983,0.677,0.356,0.687,98.449,219.177,110.229,
00:00:08:0,0.775,0.379,0.974,97.534,147.705,143.982,
00:00:08:16,0.646,0.304,1.029,54.443,127.563,143.432,
00:00:08:33,0.6,0.228,0.951,-74.83,147.155,133.3,
00:00:08:50,0.587,0.3,0.236,196.045,203.186,84.655,
00:00:08:66,0.504,0.088,0.499,283.447,242.614,80.688,
00:00:08:83,0.484,-0.202,1.002,230.896,30.334,82.092,
00:00:08:100,0.409,0.058,1.208,-88.807,-56.641,44.921,
00:00:08:116,0.35,0.451,1.579,-70.557,-133.973,23.803,
00:00:08:133,0.301,0.133,0.841,-317.688,114.38,-245.484,
00:00:08:150,0.353,0.138,0.749,-497.925,65.673,-163.941,
00:00:08:166,0.452,0.135,0.694,-425.415,11.596,-109.131,
00:00:08:183,0.54,0.23,0.856,-285.828,-63.233,-42.908,
00:00:08:200,0.451,0.172,1.017,-168.58,-50.721,-39.795,
00:00:08:216,0.482,0.048,1.031,-159.058,1.525,-106.446,
00:00:08:233,0.483,0.093,0.984,-305.359,101.684,-123.78,
00:00:08:250,0.572,0.139,0.821,-561.524,180.42,-169.19,
00:00:08:266,0.693,0.452,0.417,-623.719,221.008,-175.232,
00:00:08:283,0.816,0.635,0.437,-635.865,216.674,-172.12,
00:00:08:300,0.783,0.58,0.483,-660.34,224.426,-236.39,
00:00:08:316,0.769,0.759,0.737,-649.292,256.958,-229.981,
00:00:08:333,0.676,0.628,0.401,-549.744,317.688,-265.809,
00:00:08:350,0.674,0.325,0.354,-531.495,230.224,-288.453,
00:00:08:366,0.733,0.335,0.495,-460.206,100.036,-177.857,
00:00:08:383,0.761,0.536,0.872,-197.327,13.183,-108.704,
00:00:08:400,0.692,0.546,0.884,-141.846,70.495,-209.107,
00:00:08:416,0.621,0.521,0.849,-308.228,158.813,-387.635,
00:00:08:433,0.521,0.258,0.702,-500.855,250.183,-467.286,
00:00:08:450,0.482,0.038,0.377,-543.335,358.947,-468.75,
00:00:08:466,0.503,0.361,0.382,-278.382,467.529,-407.837,
00:00:08:483,0.499,0.63,0.531,212.28,551.086,-420.105,
00:00:08:500,0.45,-0.111,0.452,330.566,338.195,-594.422,
00:00:08:516,0.456,-0.252,0.203,402.832,285.705,-330.872,
00:00:08:533,0.626,0.138,-0.016,955.505,150.207,-71.778,
00:00:08:550,0.537,-0.194,-0.059,1070.251,-30.823,-23.133,
00:00:08:566,0.514,-0.214,-0.091,604.492,117.065,15.136,
00:00:08:583,0.796,0.113,0.02,223.449,101.867,-43.763,
00:00:08:600,1.974,0.411,0.176,257.08,-152.466,73.181,
00:00:08:616,1.529,0.282,0.254,-62.195,-203.37,347.168,
00:00:08:633,0.407,0.025,0.376,95.153,-241.761,484.436,
00:00:08:650,0.402,0.174,0.413,-295.838,17.395,684.875,
00:00:08:666,0.598,0.688,0.244,-259.095,198.852,644.958,
00:00:08:683,0.967,0.58,0.63,793.029,-333.435,-66.529,
00:00:08:700,0.819,0.062,0.842,931.274,-606.934,-61.524,
00:00:08:716,0.464,-0.184,0.897,615.905,-441.834,165.405,
00:00:08:733,0.216,-0.13,0.883,193.664,-223.206,151.245,
00:00:08:750,0.33,0.243,0.871,-199.097,-16.236,48.278,
00:00:08:766,0.584,0.454,0.621,-223.145,28.686,43.945,
00:00:08:783,0.619,0.45,0.571,-8.851,-136.048,-1.526,
00:00:08:800,0.449,0.339,0.722,129.394,-227.356,-41.626,
00:00:08:816,0.446,0.369,0.823,163.635,-214.844,-35.95,
00:00:08:833,0.644,0.462,0.862,153.747,-230.408,-64.331,
00:00:08:850,0.681,0.416,0.748,244.873,-255.799,-66.59,
00:00:08:866,0.592,0.252,0.766,192.505,-248.536,-25.879,
00:00:08:883,0.61,0.208,0.703,88.745,-247.864,26.245,
00:00:08:900,0.652,0.413,0.756,74.585,-93.934,33.752,
00:00:08:916,0.79,0.612,0.606,156.128,32.592,-7.325,
00:00:08:933,0.744,0.182,0.421,189.575,93.994,-97.168,
00:00:08:950,0.802,0.023,0.417,60.485,99.975,-53.04,
00:00:08:966,0.841,0.252,0.518,-10.682,75.256,22.277,
00:00:08:983,0.775,0.326,0.855,115.295,-51.941,28.076,
00:00:09:0,0.682,0.308,0.754,37.597,-90.149,8.422,
00:00:09:16,0.601,0.251,0.759,27.221,-125.794,4.882,
00:00:09:33,0.576,0.233,0.817,26.977,-136.292,-10.926,
00:00:09:50,0.518,0.2,0.867,-7.874,-138.306,-19.471,
00:00:09:66,0.57,0.303,0.792,-25.025,-114.93,-29.053,
00:00:09:83,0.558,0.334,0.788,-32.593,-110.718,-32.898,
00:00:09:100,0.616,0.265,0.612,-51.209,-84.778,-57.007,
00:00:09:116,0.565,0.27,0.436,-92.286,-41.81,-79.651,
00:00:09:133,0.698,0.326,0.625,-43.58,13.244,-44.678,
00:00:09:150,0.686,0.131,0.823,-66.895,39.55,-37.11,
00:00:09:166,0.707,0.195,0.771,-75.074,59.448,-13.611,
00:00:09:183,0.643,0.257,0.757,-127.076,85.937,-4.639,
00:00:09:200,0.736,0.208,0.706,-80.018,38.818,-7.691,
00:00:09:216,0.694,0.431,0.679,-154.175,44.494,58.166,
00:00:09:233,0.627,0.449,0.772,-30.03,29.113,73.608,
00:00:09:250,0.718,0.441,0.874,-28.26,16.174,81.848,
00:00:09:266,0.667,0.216,0.617,-110.962,31.677,33.081,
00:00:09:283,0.634,0.332,0.463,-153.809,-29.786,50.17,
00:00:09:300,0.472,0.141,0.594,-138.855,-42.603,13.671,
00:00:09:316,0.5,0.203,0.673,-252.015,-1.831,-5.494,
00:00:09:333,0.478,0.349,0.734,-219.849,-27.1,-29.602,
00:00:09:350,0.472,0.267,0.738,-235.169,-33.081,-70.923,
00:00:09:366,0.536,0.427,0.874,-216.858,-79.407,-38.331,
00:00:09:383,0.517,0.489,0.805,-45.289,-99.549,-43.396,
00:00:09:400,0.55,0.394,0.795,40.466,-130.86,-74.158,
00:00:09:416,0.576,0.307,0.688,-34.424,-142.09,-88.685,
00:00:09:433,0.583,0.373,0.785,-83.497,-141.724,-83.008,
00:00:09:450,0.57,0.343,0.788,-58.411,-93.384,-108.704,rollRH
00:00:09:466,0.568,0.302,0.738,-65.796,-67.505,-85.328,
00:00:09:483,0.577,0.299,0.631,-74.646,-18.433,-47.669,
00:00:09:500,0.632,0.498,0.638,56.335,-37.354,-17.456,
00:00:09:516,0.593,0.39,0.715,202.575,-41.687,-30.213,
00:00:09:533,0.581,0.267,0.711,151.062,-38.025,-56.336,
00:00:09:550,0.584,0.22,0.648,-8.606,-33.448,-76.355,
00:00:09:566,0.565,0.28,0.584,-184.998,-57.984,-84.717,
00:00:09:583,0.538,0.404,0.702,-187.134,-93.628,-71.595,
00:00:09:600,0.54,0.47,0.733,-18.982,-136.414,-55.909,
00:00:09:616,0.483,0.348,0.903,106.018,-137.757,-31.983,
00:00:09:633,0.564,0.223,0.748,74.646,-104.187,-40.467,
00:00:09:650,0.592,0.248,0.598,45.837,-78.064,-12.269,
00:00:09:666,0.598,0.265,0.62,88.012,-106.08,-15.992,
00:00:09:683,0.671,0.274,0.572,106.872,-91.004,-0.916,
00:00:09:700,0.774,0.327,0.513,50.72,-6.897,-0.916,
00:00:09:716,0.768,0.301,0.586,66.345,32.959,12.695,
00:00:09:733,0.822,0.424,0.592,92.651,93.75,32.959,
00:00:09:750,0.803,0.326,0.637,61.096,107.116,35.888,
00:00:09:766,0.717,0.106,0.685,92.163,55.847,64.575,
00:00:09:783,0.741,0.319,0.713,-41.687,119.69,122.253,
00:00:09:800,0.665,0.399,0.685,122.802,149.841,141.784,
00:00:09:816,0.488,0.575,0.49,189.026,196.045,203.857,
00:00:09:833,0.693,0.406,0.715,393.921,191.955,273.193,
00:00:09:850,0.724,0.16,0.588,692.81,168.518,284.668,
00:00:09:866,0.695,0.132,0.525,718.139,198.73,302.002,
00:00:09:883,0.545,0.276,0.858,594.665,218.872,200.622,
00:00:09:900,0.433,0.771,0.791,475.769,272.216,284.484,
00:00:09:916,0.42,0.438,0.912,739.624,213.379,227.539,
00:00:09:933,0.487,-0.094,0.892,549.316,163.391,203.43,
00:00:09:950,0.512,0.129,0.812,418.335,85.632,160.827,
00:00:09:966,0.481,0.15,0.796,277.71,4.76,68.786,
00:00:09:983,0.395,0.151,0.839,205.993,-26.551,-44.739,
00:00:10:0,0.498,0.478,0.76,197.998,-11.841,-60.425,
00:00:10:16,0.547,0.299,0.782,289.917,-18.067,-108.216,
00:00:10:33,0.618,0.169,0.676,241.882,-23.743,-143.799,
00:00:10:50,0.671,0.16,0.632,126.403,-64.637,-107.972,
00:00:10:66,0.623,-0.057,0.771,-21.729,-61.707,-100.159,
00:00:10:83,0.649,0.222,0.731,-158.265,-9.888,-80.567,
00:00:10:100,0.638,0.222,0.697,-126.77,20.202,-85.877,
00:00:10:116,0.641,0.237,0.654,-118.958,24.963,-95.948,
00:00:10:133,0.653,0.199,0.614,-71.595,17.822,-80.628,
00:00:10:150,0.65,0.217,0.643,-4.639,-4.944,-40.528,
00:00:10:166,0.675,0.161,0.771,-82.459,-9.461,-17.884,
00:00:10:183,0.638,0.201,0.735,-59.815,-11.597,-28.382,
00:00:10:200,0.555,0.164,0.825,-94.483,-28.748,-28.626,
00:00:10:216,0.541,0.271,0.782,-46.326,-33.326,-24.537,
00:00:10:233,0.558,0.311,0.851,72.387,-57.618,-14.344,
00:00:10:250,0.514,0.141,0.832,204.895,-31.922,-17.029,
00:00:10:266,0.513,0.012,0.882,187.5,-36.744,8.483,
00:00:10:283,0.507,0.123,0.901,254.028,-40.528,20.996,
00:00:10:300,0.463,0.175,0.877,313.293,-38.636,70.617,
00:00:10:316,0.493,0.17,0.776,399.109,-22.828,103.576,
00:00:10:333,0.49,0.266,0.797,323.73,6.408,93.078,
00:00:10:350,0.583,0.193,0.812,318.42,40.71,34.24,
00:00:10:366,0.598,0.187,0.797,256.591,95.52,0.244,
00:00:10:383,0.649,0.197,0.803,213.256,110.717,-10.376,
00:00:10:400,0.651,0.088,0.857,195.617,72.57,-13.977,
00:00:10:416,0.696,0.092,0.769,163.879,-12.146,-17.64,
00:00:10:433,0.635,0.31,0.679,139.709,-99.61,-33.448,
00:00:10:450,0.692,0.298,0.671,133.667,-153.809,-51.331,
00:00:10:466,0.634,0.098,0.656,46.63,-144.898,-136.353,
00:00:10:483,0.589,0.363,0.64,-7.691,-149.964,-161.438,
00:00:10:500,0.675,0.212,0.409,-11.841,-94.117,-207.642,
00:00:10:516,0.635,-0.043,0.794,23.803,-87.098,-131.714,
00:00:10:533,0.471,0.406,0.771,72.448,-20.203,-148.621,
00:00:10:550,0.67,0.291,0.696,-36.988,73.364,-78.248,
00:00:10:566,0.695,-0.165,0.762,20.996,56.274,-155.213,
00:00:10:583,0.697,0.006,0.456,-45.96,105.835,-227.601,
00:00:10:600,0.65,-0.058,0.915,-94.605,21.972,-203.125,
00:00:10:616,0.594,0.048,0.853,-66.712,-43.824,-227.967,
00:00:10:633,0.88,0.411,0.85,-38.269,-56.702,-109.742,
00:00:10:650,0.753,0.219,0.897,-33.57,-31.617,-71.167,
00:00:10:666,0.819,0.348,0.893,-75.867,-52.735,-66.04,
00:00:10:683,0.839,0.176,0.657,-54.688,-7.996,-54.993,
00:00:10:700,0.829,0.248,0.683,-112.549,-36.988,-48.706,
00:00:10:716,0.865,0.247,0.724,-180.115,-39.307,-35.523,
00:00:10:733,0.897,0.235,0.748,-239.075,-41.504,-2.137,
00:00:10:750,0.812,0.128,0.672,-326.233,-18.616,3.356,
00:00:10:766,0.818,0.029,0.542,-345.032,-5.982,56.152,
00:00:10:783,0.835,-0.025,0.492,-468.628,-34.607,148.315,
00:00:10:800,0.777,-0.154,0.49,-598.206,-144.104,144.043,
00:00:10:816,0.76,0.599,0.594,-306.885,-220.948,421.692,
00:00:10:833,0.749,0.793,0.442,-102.601,-233.155,266.479,
00:00:10:850,0.569,-0.316,0.916,-63.538,-326.661,151.428,
00:00:10:866,0.44,0.378,0.863,-345.276,-218.079,242.187,
00:00:10:883,0.503,0.135,0.688,-196.9,-190.43,80.383,
00:00:10:900,0.459,0.104,0.657,-160.889,-105.53,84.716,
00:00:10:916,0.465,0.258,0.57,-93.018,-26.49,31.738,
00:00:10:933,0.5,0.173,0.698,-155.396,24.719,-6.592,
00:00:10:950,0.469,0.351,0.709,-192.566,97.9,-33.875,
00:00:10:966,0.488,0.335,0.692,-232.972,164.123,-41.443,
00:00:10:983,0.507,0.396,0.702,-275.696,181.64,-36.866,
00:00:11:0,0.5,0.383,0.763,-286.499,188.049,-14.771,
00:00:11:16,0.452,0.337,0.737,-380.005,269.043,13.916,
00:00:11:33,0.44,0.418,0.781,-399.109,304.565,-12.818,
00:00:11:50,0.474,0.344,0.766,-337.403,330.993,-26.001,
00:00:11:66,0.468,0.388,0.834,-300.232,307.678,-27.405,
00:00:11:83,0.503,0.084,0.752,-271.912,240.966,-93.506,
00:00:11:100,0.379,0.208,0.971,-481.873,205.627,-116.15,
00:00:11:116,0.547,0.509,0.846,-364.991,152.649,-133.851,
00:00:11:133,0.426,0.263,0.827,-321.473,102.172,-205.018,
00:00:11:150,0.45,0.32,0.642,-432.19,106.201,-211.243,
00:00:11:166,0.489,0.465,0.678,-357.422,98.022,-144.288,
00:00:11:183,0.463,0.367,0.78,-293.763,78.369,-162.11,
00:00:11:200,0.478,0.495,0.81,-260.376,61.279,-172.608,
00:00:11:216,0.491,0.418,0.77,-233.399,39.306,-236.023,
00:00:11:233,0.567,0.338,0.74,-190.125,10.131,-167.359,
00:00:11:250,0.543,0.437,0.717,-180.664,4.638,-131.165,
00:00:11:266,0.573,0.335,0.705,-101.624,10.864,-133.057,
00:00:11:283,0.559,0.353,0.734,-132.569,59.448,-132.63,
00:00:11:300,0.559,0.379,0.754,-177.796,111.328,-186.768,
00:00:11:316,0.593,0.411,0.561,-218.628,152.649,-191.407,
00:00:11:333,0.63,0.459,0.686,-134.034,51.391,-162.537,
00:00:11:350,0.605,0.51,0.81,13.977,-0.733,-82.581,
00:00:11:366,0.609,0.569,0.914,84.655,-22.522,-93.506,
00:00:11:383,0.571,0.449,0.855,95.764,27.465,-130.188,
00:00:11:400,0.657,0.423,0.65,73.608,61.645,-161.805,
00:00:11:416,0.667,0.27,0.458,126.464,30.517,-85.328,
00:00:11:433,0.619,0.269,0.455,97.412,24.169,-59.388,
00:00:11:450,0.679,0.261,0.454,149.047,32.959,-55.97,
00:00:11:466,0.737,0.39,0.599,177.734,17.334,-2.198,
00:00:11:483,0.706,0.486,0.554,331.298,34.362,11.657,
00:00:11:500,0.708,0.338,0.512,420.349,25.39,-31.983,
00:00:11:516,0.791,0.258,0.413,440.612,7.568,14.892,
00:00:11:533,0.751,0.278,0.382,436.584,23.803,69.763,
00:00:11:550,0.807,0.411,0.543,381.286,75.866,140.319,
00:00:11:566,0.725,0.436,0.561,288.818,87.951,117.859,
00:00:11:583,0.708,0.37,0.603,197.204,90.82,100.769,
00:00:11:600,0.693,0.313,0.651,141.967,102.05,98.877,
00:00:11:616,0.649,0.288,0.718,124.878,97.839,84.228,
00:00:11:633,0.661,0.278,0.75,45.715,86.364,61.95,
00:00:11:650,0.601,0.403,0.774,147.338,40.954,32.531,
00:00:11:666,0.565,0.275,0.712,116.821,40.039,21.484,
00:00:11:683,0.575,0.336,0.645,74.279,43.029,51.94,
00:00:11:700,0.64,0.258,0.502,120.117,12.634,65.429,
00:00:11:716,0.588,0.285,0.547,103.82,40.039,81.726,
00:00:11:733,0.584,0.158,0.626,31.127,103.088,7.08,
00:00:11:750,0.583,0.144,0.697,-86.426,173.034,-10.193,
00:00:11:766,0.634,0.182,0.711,-232.178,194.885,-51.758,
00:00:11:783,0.898,0.527,1.064,-221.314,-30.396,41.381,
00:00:11:800,0.575,0.226,0.84,-514.039,-78.736,4.638,
00:00:11:816,0.776,0.554,0.786,-566.59,-138.489,97.839,
00:00:11:833,0.709,0.428,0.695,-525.818,-191.895,88.317,
00:00:11:850,0.73,0.614,0.602,-414.124,-170.899,193.176,
00:00:11:866,0.665,0.298,0.613,-259.888,-150.513,114.502,
00:00:11:883,0.656,0.424,0.596,-303.345,-85.633,143.859,
00:00:11:900,0.61,0.368,0.571,-277.1,-54.993,64.392,
00:00:11:916,0.628,0.265,0.55,-297.547,-59.388,39.367,
00:00:11:933,0.615,0.359,0.629,-312.378,-88.746,28.076,
00:00:11:950,0.553,0.636,0.916,-218.262,-111.206,59.997,
00:00:11:966,0.616,0.369,0.865,-92.652,-178.406,-18.189,
00:00:11:983,0.434,0.387,0.835,129.089,-173.89,-26.001,
00:00:12:0,0.553,0.42,0.67,83.435,-188.477,-30.274,
00:00:12:16,0.418,0.416,0.652,177.002,-201.294,-63.538,
00:00:12:33,0.444,0.405,0.561,324.707,-293.335,-22.95,
00:00:12:50,0.362,0.32,0.694,396.301,-301.148,-56.763,
00:00:12:66,0.399,0.365,0.696,410.461,-302.613,-67.81,
00:00:12:83,0.334,0.269,0.748,444.091,-291.871,-120.789,
00:00:12:100,0.367,0.28,0.617,415.649,-226.868,-136.719,
00:00:12:116,0.432,0.325,0.438,402.893,-149.17,-192.261,
00:00:12:133,0.501,0.25,0.39,283.508,-9.583,-205.75,
00:00:12:150,0.55,0.548,0.362,225.769,144.775,-137.635,
00:00:12:166,0.612,0.506,0.335,441.162,276.611,-82.154,
00:00:12:183,0.717,0.252,0.292,386.047,398.925,-50.11,
00:00:12:200,0.849,0.248,0.484,239.196,479.492,-77.942,
00:00:12:216,0.807,0.34,0.498,237.121,554.077,-95.398,
00:00:12:233,0.987,0.263,0.514,295.959,479.919,-90.149,
00:00:12:250,0.839,0.516,0.989,187.805,239.624,5.188,
00:00:12:266,0.922,0.597,0.733,401.428,154.235,64.758,
00:00:12:283,0.749,0.365,0.854,297.058,102.05,76.477,
00:00:12:300,0.647,0.364,0.671,218.322,91.735,94.238,
00:00:12:316,0.693,0.161,0.565,180.236,68.542,111.023,
00:00:12:333,0.654,0.205,0.567,64.514,84.655,152.649,
00:00:12:350,0.606,0.019,0.641,-284.668,48.584,61.401,
00:00:12:366,0.569,0.332,0.778,-390.809,-1.221,-25.452,
00:00:12:383,0.538,0.356,0.829,-421.326,-97.718,-70.069,
00:00:12:400,0.446,0.411,0.859,-522.4,-161.927,-208.313,
00:00:12:416,0.387,0.263,0.956,-650.33,-317.139,-392.09,
00:00:12:433,0.495,0.638,0.903,-702.759,-467.347,-396.119,
00:00:12:450,0.426,0.878,0.992,-359.925,-411.927,-294.434,
00:00:12:466,0.528,0.019,0.807,169.433,-278.077,-281.067,
00:00:12:483,0.576,0.031,0.861,67.871,-203.064,-288.941,
00:00:12:500,0.623,0.155,0.81,-66.224,-154.786,-212.525,
00:00:12:516,0.604,0.26,0.645,-122.193,-136.231,-156.311,
00:00:12:533,0.606,0.363,0.698,-87.647,-140.442,-152.588,
00:00:12:550,0.577,0.241,0.627,-6.409,-131.165,-148.377,
00:00:12:566,0.568,0.17,0.601,-32.654,-73.365,-131.226,
00:00:12:583,0.596,0.266,0.651,-157.959,-12.513,-147.95,
00:00:12:600,0.645,0.36,0.638,-165.772,53.039,-169.8,
00:00:12:616,0.655,0.284,0.612,9.887,-35.035,-133.179,
00:00:12:633,0.568,0.136,0.6,-82.825,-70.923,-163.636,
00:00:12:650,0.62,0.278,0.681,-267.334,-60.364,-199.952,
00:00:12:666,0.623,0.416,0.655,-246.094,-31.983,-249.817,
00:00:12:683,0.604,0.376,0.721,-172.181,-66.651,-243.714,
00:00:12:700,0.653,0.357,0.661,-53.406,-101.441,-203.309,
00:00:12:716,0.661,0.265,0.648,-9.4,-125.061,-169.19,
00:00:12:733,0.67,0.205,0.735,-77.637,-98.389,-161.683,
00:00:12:750,0.698,0.281,0.742,-93.75,-54.566,-135.498,
00:00:12:766,0.586,0.271,0.835,-35.523,-73.182,-92.652,
00:00:12:783,0.561,0.334,0.85,-12.757,-98.511,-75.074,
00:00:12:800,0.484,0.366,0.874,-59.327,-146.424,-95.581,
00:00:12:816,0.509,0.317,0.808,-82.825,-153.87,-133.179,
00:00:12:833,0.545,0.368,0.819,-198.182,-168.885,-163.88,
00:00:12:850,0.564,0.286,0.75,-229.126,-155.335,-165.589,
00:00:12:866,0.625,0.334,0.699,-149.414,-159.607,-101.197,
00:00:12:883,0.627,0.279,0.691,-72.876,-151.307,-63.05,
00:00:12:900,0.637,0.242,0.682,-107.117,-140.198,-75.44,
00:00:12:916,0.621,0.246,0.647,-132.203,-134.4,-79.285,
00:00:12:933,0.665,0.37,0.639,-147.4,-140.809,-86.914,
00:00:12:950,0.635,0.384,0.532,-149.598,-179.688,-78.98,
00:00:12:966,0.632,0.35,0.603,-153.992,-145.691,-104.004,
00:00:12:983,0.668,0.283,0.613,-106.568,-86.853,-83.68,
00:00:13:0,0.681,0.253,0.679,-97.962,-55.237,-72.937,
00:00:13:16,0.651,0.214,0.723,-170.96,-99.488,-88.257,
00:00:13:33,0.633,0.29,0.68,-317.383,-173.035,-138.855,
00:00:13:50,0.645,0.336,0.696,-465.088,-282.105,-158.265,
00:00:13:66,0.605,0.424,0.65,-501.038,-409.302,-158.57,
00:00:13:83,0.538,0.443,0.579,-536.683,-514.1,-185.852,
00:00:13:100,0.407,0.476,0.578,-608.765,-539.124,-207.825,
00:00:13:116,0.368,0.429,0.788,-586.853,-444.397,-217.896,
00:00:13:133,0.394,0.331,0.83,-493.042,-378.174,-192.994,
00:00:13:150,0.406,0.317,0.901,-431.946,-366.272,-149.598,
00:00:13:166,0.411,0.424,0.891,-356.507,-366.944,-106.812,
00:00:13:183,0.45,0.523,0.799,-296.936,-394.532,-108.521,
00:00:13:200,0.428,0.515,0.712,-353.943,-410.889,-136.658,
00:00:13:216,0.385,0.52,0.732,-527.161,-343.628,-173.462,
00:00:13:233,0.406,0.459,0.75,-520.081,-272.522,-168.213,
00:00:13:250,0.39,0.494,0.903,-327.759,-209.473,-84.473,
00:00:13:266,0.433,0.468,0.844,-61.158,-137.146,12.085,
00:00:13:283,0.47,0.458,0.772,36.987,-86.548,68.42,
00:00:13:300,0.483,0.436,0.756,46.325,-59.571,66.65,
00:00:13:316,0.502,0.412,0.712,-21.363,-62.378,1.77,
00:00:13:333,0.5,0.449,0.695,-59.632,-75.989,-29.847,
00:00:13:350,0.488,0.471,0.717,-67.2,-107.483,-49.683,
00:00:13:366,0.475,0.492,0.721,-114.93,-127.686,-62.561,
00:00:13:383,0.414,0.547,0.65,-139.649,-145.508,-71.839,
00:00:13:400,0.351,0.522,0.684,-125.55,-136.048,-65.796,
00:00:13:416,0.302,0.5,0.695,-99.915,-110.413,-76.783,
00:00:13:433,0.316,0.497,0.735,-106.446,-81.604,-116.333,
00:00:13:450,0.361,0.46,0.753,-150.086,-63.477,-171.998,rollRH
00:00:13:466,0.459,0.446,0.675,-166.26,-78.919,-161.927,
00:00:13:483,0.511,0.539,0.625,-29.297,-69.886,-122.254,
00:00:13:500,0.497,0.485,0.674,81.054,-30.701,-107.85,
00:00:13:516,0.432,0.393,0.749,55.908,-27.955,-124.024,
00:00:13:533,0.431,0.42,0.809,-40.101,-32.227,-159.79,
00:00:13:550,0.445,0.433,0.724,-159.913,-47.974,-178.711,
00:00:13:566,0.431,0.518,0.677,-153.748,-44.373,-167.176,
00:00:13:583,0.451,0.539,0.686,-52.674,-2.564,-141.48,
00:00:13:600,0.464,0.562,0.729,63.232,17.089,-86.548,
00:00:13:616,0.414,0.489,0.835,118.591,22.827,-54.993,
00:00:13:633,0.413,0.473,0.842,76.599,6.836,-48.157,
00:00:13:650,0.389,0.522,0.769,28.869,-15.259,-64.637,
00:00:13:666,0.385,0.454,0.693,-20.813,-22.644,-78.675,
00:00:13:683,0.399,0.526,0.721,0.549,-32.288,-59.021,
00:00:13:700,0.402,0.539,0.803,57.556,-45.472,12.573,
00:00:13:716,0.398,0.521,0.815,87.829,-50.843,46.02,
00:00:13:733,0.457,0.507,0.795,59.204,-64.637,63.293,
00:00:13:750,0.54,0.463,0.697,20.019,-73.67,52.612,
00:00:13:766,1.843,-0.251,-0.869,129.211,-14.954,55.358,
00:00:13:783,0.804,0.47,0.666,79.406,65.795,40.1,
00:00:13:800,0.618,0.549,0.727,108.947,-26.49,122.436,
00:00:13:816,0.503,0.332,0.649,138.733,-7.752,164.428,
00:00:13:833,0.48,0.315,0.729,72.387,39.794,136.169,
00:00:13:850,0.431,0.489,0.766,29.968,94.421,73.181,
00:00:13:866,0.481,0.286,0.803,4.577,200.5,68.725,
00:00:13:883,0.507,0.43,0.482,114.746,205.81,131.836,
00:00:13:900,0.473,0.451,0.557,263.794,256.042,91.613,
00:00:13:916,0.562,0.229,0.609,191.04,261.963,2.014,
00:00:13:933,0.569,0.411,0.704,82.885,287.841,-82.703,
00:00:13:950,0.6,0.564,0.818,54.687,317.199,-19.776,
00:00:13:966,0.614,0.54,0.764,100.036,300.354,77.636,
00:00:13:983,0.536,0.536,0.612,277.404,290.039,167.663,
00:00:14:0,0.538,0.541,0.619,367.92,297.79,147.338,
00:00:14:16,0.506,0.345,0.832,293.701,341.919,53.772,
00:00:14:33,0.471,0.396,0.921,120.605,353.942,-21.058,
00:00:14:50,0.468,0.431,0.902,83.557,310.913,-0.489,
00:00:14:66,0.548,0.417,0.802,28.076,154.846,72.692,
00:00:14:83,0.526,0.626,0.639,98.388,64.819,161.499,
00:00:14:100,0.454,0.584,0.626,265.503,93.689,161.865,
00:00:14:116,0.382,0.343,0.782,319.03,232.36,104.614,
00:00:14:133,0.312,0.348,0.824,263.549,336.486,47.241,
00:00:14:150,0.386,0.289,0.679,276.794,392.883,-11.353,
00:00:14:166,0.471,0.375,0.589,305.481,400.573,-49.927,
00:00:14:183,0.483,0.549,0.68,377.014,379.821,-88.135,
00:00:14:200,0.468,0.293,0.815,387.573,340.515,-174.561,
00:00:14:216,0.509,0.3,0.71,276.306,326.049,-140.015,
00:00:14:233,0.58,0.375,0.657,213.44,272.766,-130.005,
00:00:14:250,0.602,0.404,0.577,194.03,208.068,-127.503,
00:00:14:266,0.632,0.391,0.629,191.955,172.912,-109.192,
00:00:14:283,0.586,0.307,0.795,166.504,187.805,-105.591,
00:00:14:300,0.581,0.237,0.773,145.324,222.534,-104.248,
00:00:14:316,0.627,0.182,0.669,168.518,197.815,-102.662,
00:00:14:333,0.619,0.211,0.61,151.55,179.809,-66.224,
00:00:14:350,0.66,0.31,0.591,176.696,96.252,-19.288,
00:00:14:366,0.658,0.345,0.555,213.867,70.068,24.231,
00:00:14:383,0.693,0.332,0.709,208.557,35.4,42.236,
00:00:14:400,0.681,0.337,0.695,172.729,25.878,46.325,
00:00:14:416,0.658,0.318,0.699,164.611,14.892,43.64,
00:00:14:433,0.593,0.259,0.646,154.907,32.653,30.639,
00:00:14:450,0.581,0.231,0.682,171.02,28.808,9.582,
00:00:14:466,0.586,0.209,0.73,103.698,27.954,-25.757,
00:00:14:483,0.58,0.263,0.781,36.377,42.724,-47.12,
00:00:14:500,0.571,0.326,0.756,43.579,54.016,-36.011,
00:00:14:516,0.612,0.285,0.684,66.345,59.936,-46.326,
00:00:14:533,0.626,0.246,0.648,73.791,55.969,-33.997,
00:00:14:550,0.645,0.206,0.712,60.302,57.312,-28.077,
00:00:14:566,0.65,0.268,0.742,19.653,55.297,-32.471,
00:00:14:583,0.636,0.283,0.744,22.461,57.251,-22.95,
00:00:14:600,0.635,0.301,0.682,79.711,62.622,-16.114,
00:00:14:616,0.632,0.184,0.622,137.146,70.007,-34.18,
00:00:14:633,0.665,0.17,0.655,55.419,64.758,-58.716,
00:00:14:650,0.617,0.275,0.759,-29.725,58.471,-55.909,
00:00:14:666,0.66,0.31,0.738,-1.282,67.871,-36.499,
00:00:14:683,0.657,0.291,0.677,41.626,61.645,-13.611,
00:00:14:700,0.666,0.281,0.7,53.344,49.926,-3.663,
00:00:14:716,0.682,0.317,0.759,29.541,23.864,16.906,
00:00:14:733,0.669,0.29,0.768,15.93,-5.738,30.212,
00:00:14:750,0.645,0.183,0.722,-2.381,-5.127,30.578,
00:00:14:766,0.64,0.195,0.677,-3.235,21.85,15.869,
00:00:14:783,0.606,0.18,0.67,27.465,61.096,14.465,
00:00:14:800,0.64,0.239,0.662,41.748,63.781,16.967,
00:00:14:816,0.674,0.305,0.683,36.01,67.321,24.963,
00:00:14:833,0.697,0.287,0.688,34.973,54.992,24.597,
00:00:14:850,0.659,0.246,0.689,2.563,53.039,28.93,
00:00:14:866,0.646,0.271,0.675,15.747,42.907,35.461,
00:00:14:883,0.626,0.307,0.744,38.024,18.615,53.833,
00:00:14:900,0.608,0.367,0.692,33.447,57.373,59.57,
00:00:14:916,0.678,0.198,0.648,1.831,60.791,43.151,
00:00:14:933,0.627,0.113,0.644,-8.24,62.439,45.776,
00:00:14:950,0.625,0.193,0.679,23.437,36.071,35.095,
00:00:14:966,0.593,0.283,0.67,55.175,35.095,33.386,
00:00:14:983,0.616,0.294,0.658,71.655,55.542,46.569,
00:00:15:0,0.63,0.345,0.663,111.45,82.458,49.926,
00:00:15:16,0.649,0.208,0.669,51.208,80.261,50.231,
00:00:15:33,0.6,0.205,0.689,28.93,74.707,43.457,
00:00:15:50,0.603,0.225,0.627,18.676,65.612,35.278,
00:00:15:66,0.637,0.232,0.654,16.601,42.968,38.513,
00:00:15:83,0.701,0.288,0.609,33.508,71.716,32.836,
00:00:15:100,0.679,0.329,0.527,119.751,111.877,33.508,
00:00:15:116,0.594,0.231,0.616,5.737,123.596,25.085,
00:00:15:133,0.587,0.346,0.699,41.015,133.911,28.747,
00:00:15:150,0.505,0.389,0.84,71.716,114.685,24.719,
00:00:15:166,0.537,0.364,0.895,-28.87,115.112,2.136,
00:00:15:183,0.556,0.272,0.781,-20.447,118.591,4.15,
00:00:15:200,0.555,0.189,0.707,42.602,106.201,13.122,
00:00:15:216,0.537,0.263,0.761,82.519,75.378,21.423,
00:00:15:233,0.672,0.343,0.777,103.027,41.32,29.174,
00:00:15:250,0.866,0.317,0.64,28.564,65.49,17.028,
00:00:15:266,0.814,0.203,0.489,16.662,141.296,28.015,
00:00:15:283,0.76,0.072,0.549,131.225,189.026,54.077,
00:00:15:300,0.737,0.113,0.666,194.519,167.236,72.753,
00:00:15:316,0.679,0.301,0.74,209.961,157.531,80.993,
00:00:15:333,0.619,0.308,0.721,205.078,173.156,86.975,
00:00:15:350,0.529,0.24,0.681,197.265,193.359,66.711,
00:00:15:366,0.602,0.247,0.64,155.761,160.583,15.502,
00:00:15:383,0.608,0.338,0.546,94.177,138.244,-28.992,
00:00:15:400,0.598,0.37,0.637,-4.578,100.952,-17.762,
00:00:15:416,0.649,0.36,0.794,-90.149,93.444,2.563,
00:00:15:433,0.593,0.254,0.803,-147.644,78.43,2.929,
00:00:15:450,0.549,0.241,0.829,-122.132,58.837,15.014,
00:00:15:466,0.52,0.203,0.809,-35.462,2.624,39.611,
00:00:15:483,0.249,0.629,0.531,278.747,95.336,22.827,
00:00:15:500,0.535,0.073,0.813,381.713,19.958,82.641,
00:00:15:516,0.489,0.156,0.837,12.023,3.723,12.023,
00:00:15:533,0.543,0.133,0.469,-283.509,-84.29,-111.695,
00:00:15:550,0.587,0.492,0.501,-363.038,-120.606,-129.456,
00:00:15:566,0.663,0.685,0.581,-175.843,-166.199,-72.205,
00:00:15:583,0.72,0.407,0.729,-34.852,-223.084,-30.152,
00:00:15:600,0.719,0.182,0.78,-108.582,-263.611,-25.757,
00:00:15:616,0.668,0.059,0.841,-203.858,-324.158,-37.354,
00:00:15:633,0.623,0.095,0.754,-349.488,-365.662,-76.172,
00:00:15:650,0.604,0.422,0.754,-339.905,-393.128,-98.511,
00:00:15:666,0.581,0.503,0.708,-172.181,-402.588,-105.286,
00:00:15:683,0.585,0.519,0.68,-155.945,-387.696,-88.196,
00:00:15:700,0.559,0.162,0.694,-109.009,-374.329,-82.093,
00:00:15:716,0.5,0.19,0.663,-132.813,-320.557,-128.235,
00:00:15:733,0.583,0.309,0.508,-221.68,-267.518,-168.152,
00:00:15:750,0.674,0.348,0.565,-180.726,-153.687,-194.886,
00:00:15:766,0.737,0.288,0.618,-131.409,-75.135,-191.895,
00:00:15:783,0.71,0.177,0.701,-104.371,-57.312,-181.885,
00:00:15:800,0.689,0.2,0.82,-74.524,-58.533,-171.021,
00:00:15:816,0.607,0.248,0.78,-0.245,-43.641,-138.062,
00:00:15:833,0.583,0.216,0.666,21.911,-67.566,-134.827,
00:00:15:850,0.642,0.353,0.783,-9.583,-77.881,-155.64,
00:00:15:866,0.674,0.406,0.816,-37.354,-75.684,-145.142,
00:00:15:883,0.687,0.34,0.834,-22.339,-69.214,-115.967,
00:00:15:900,0.678,0.318,0.861,-39.246,-48.157,-79.773,
00:00:15:916,0.639,0.278,0.783,-25.513,-28.626,-63.843,
00:00:15:933,0.641,0.306,0.684,-7.264,-27.771,-56.031,
00:00:15:950,0.662,0.308,0.593,2.38,-22.706,-50.904,
00:00:15:966,0.672,0.263,0.553,-3.724,-5.372,-50.171,
00:00:15:983,0.688,0.228,0.59,-1.587,26.489,-63.843,
00:00:16:0,0.692,0.241,0.628,-31.006,38.879,-68.299,
00:00:16:16,0.673,0.278,0.647,-29.847,39.367,-61.219,
00:00:16:33,0.657,0.352,0.669,32.775,28.015,-38.147,
00:00:16:50,0.647,0.309,0.695,16.662,21.545,-32.41,
00:00:16:66,0.628,0.285,0.729,-13.916,5.92,-21.058,
00:00:16:83,0.613,0.247,0.717,-55.909,-31.006,-16.724,
00:00:16:100,0.592,0.3,0.742,-75.196,-33.997,-12.146,
00:00:16:116,0.581,0.345,0.723,-37.964,-48.768,-11.109,
00:00:16:133,0.552,0.335,0.695,-40.833,-67.566,-2.076,
00:00:16:150,0.517,0.295,0.762,-42.115,-60.181,-19.715,
00:00:16:166,0.508,0.302,0.766,-85.389,-46.753,-35.279,
00:00:16:183,0.529,0.272,0.715,-109.253,-65.979,-34.852,
00:00:16:200,0.549,0.322,0.72,-87.342,-86.914,-22.583,
00:00:16:216,0.561,0.387,0.782,-62.195,-119.446,2.746,
00:00:16:233,0.566,0.369,0.773,-28.443,-118.103,25.39,
00:00:16:250,0.595,0.337,0.768,4.333,-101.746,40.466,
00:00:16:266,0.581,0.301,0.761,19.043,-88.623,44.433,
00:00:16:283,0.579,0.282,0.685,24.536,-80.14,44.494,
00:00:16:300,0.601,0.245,0.566,37.719,-70.984,37.902,
00:00:16:316,0.624,0.259,0.621,27.526,-39.673,23.803,
00:00:16:333,0.661,0.346,0.681,14.526,-18.86,20.324,
00:00:16:350,0.678,0.35,0.732,31.86,-10.804,32.47,
00:00:16:366,0.645,0.358,0.718,61.584,-2.442,41.198,
00:00:16:383,0.643,0.325,0.637,40.161,-6.592,40.954,
00:00:16:400,0.561,0.257,0.541,31.982,-0.794,31.86,
00:00:16:416,0.514,0.396,0.817,-9.278,30.212,-15.564,
00:00:16:433,0.514,0.388,0.916,-53.65,49.56,-51.697,
00:00:16:450,0.484,0.366,0.828,-62.5,94.665,-46.448,
00:00:16:466,0.6,0.322,0.744,-10.865,67.26,-41.871,
00:00:16:483,0.635,0.37,0.708,25.817,59.326,5.615,
00:00:16:500,0.617,0.363,0.716,68.847,50.537,34.057,
00:00:16:516,0.513,0.31,0.765,84.411,92.651,44.311,
00:00:16:533,0.459,0.348,0.947,36.193,123.047,12.451,
00:00:16:550,0.459,0.348,0.803,-76.477,106.994,-15.809,
00:00:16:566,0.508,0.395,0.669,-183.35,49.56,-26.001,
00:00:16:583,0.564,0.35,0.592,-203.125,-13.672,-20.508,
00:00:16:600,0.54,0.247,0.528,-133.851,-29.602,-19.837,
00:00:16:616,0.563,0.366,0.707,-99.06,-29.175,-22.889,
00:00:16:633,0.589,0.442,0.779,-138.245,2.136,-82.154,
00:00:16:650,0.632,0.371,0.602,-167.603,15.991,-99.61,
00:00:16:667,0.741,0.315,0.51,-128.479,7.873,-96.253,
00:00:16:683,0.745,0.334,0.55,-98.999,18.249,-41.748,
00:00:16:700,0.72,0.198,0.429,49.194,-24.292,28.076,
00:00:16:717,0.712,0.186,0.457,143.432,-81.36,116.15,
00:00:16:733,0.787,0.275,0.358,214.66,-178.772,196.96,
00:00:16:750,0.904,0.493,0.481,388.794,-287.171,329.895,
00:00:16:767,0.749,0.536,0.78,613.83,-232.239,424.804,
00:00:16:783,0.622,0.167,0.846,747.619,-125.123,450.927,
00:00:16:800,0.671,0.056,0.849,592.773,24.292,482.849,
00:00:16:817,0.641,0.143,0.82,494.69,211.242,476.989,
00:00:16:833,0.708,0.286,0.881,490.112,352.172,547.546,
00:00:16:850,0.736,0.293,0.828,538.33,398.193,568.42,
00:00:16:867,0.674,0.158,0.803,410.888,450.622,519.531,
00:00:16:883,0.574,0.117,0.563,344.665,480.59,292.663,
00:00:16:900,0.533,0.198,0.593,238.342,552.612,155.822,
00:00:16:917,0.508,0.549,1.114,267.089,405.517,70.983,
00:00:16:933,0.344,0.662,1.055,363.403,373.291,112.915,
00:00:16:950,0.352,0.498,1.005,314.636,346.008,79.711,
00:00:16:967,0.345,0.451,0.84,64.392,270.08,66.589,
00:00:16:983,0.321,0.113,0.637,125.915,305.42,38.757,
00:00:17:0,0.611,0.403,0.777,285.339,197.082,153.137,
00:00:17:17,0.517,0.299,0.602,316.711,264.709,132.263,
00:00:17:33,0.583,0.128,0.595,194.885,321.106,47.668,
00:00:17:50,0.628,0.238,0.692,100.708,311.828,35.644,
00:00:17:67,0.674,0.394,0.47,169.189,320.312,18.798,
00:00:17:83,0.703,0.366,0.407,189.453,194.519,9.277,
00:00:17:100,0.562,0.254,0.57,205.078,193.847,43.151,
00:00:17:117,0.619,0.08,0.878,117.492,158.569,49.255,
00:00:17:133,0.605,0.363,1.044,53.283,153.137,56.274,
00:00:17:150,0.61,0.308,0.954,155.761,98.205,25.695,
00:00:17:167,0.599,0.237,1.001,-19.532,-16.236,0.61,
00:00:17:183,0.467,0.303,0.669,-234.925,-13.306,-8.606,
00:00:17:200,0.557,0.546,0.669,-262.024,-37.598,14.587,
00:00:17:217,0.642,0.553,0.633,-87.891,-87.159,9.948,
00:00:17:233,0.653,0.319,0.582,117.248,-26.734,3.295,
00:00:17:250,0.629,-0.078,0.652,251.22,-40.833,-37.903,
00:00:17:267,0.509,-0.235,0.642,37.292,77.514,-70.191,
00:00:17:283,0.534,0.388,0.89,-188.843,112.854,-36.744,
00:00:17:300,0.577,0.751,0.924,-95.826,52.795,-37.72,
00:00:17:317,0.608,0.462,0.755,156.555,26.489,-100.708,
00:00:17:333,0.566,-0.099,0.576,226.318,51.574,-148.987,
00:00:17:350,0.647,0.191,0.642,-195.191,186.218,-123.108,
00:00:17:367,0.673,0.381,0.617,-51.514,176.941,-86.67,
00:00:17:383,0.704,0.384,0.606,140.197,152.343,-96.985,
00:00:17:400,0.764,0.14,0.397,180.908,80.078,-76.905,
00:00:17:417,0.674,0.13,0.682,76.538,110.595,-8.728,
00:00:17:433,0.724,0.236,0.814,-51.148,181.64,-49.622,
00:00:17:450,0.762,0.377,0.75,-71.412,187.683,-35.401,
00:00:17:467,0.741,0.344,0.509,7.08,154.113,-70.557,
00:00:17:483,0.678,0.201,0.426,101.44,121.032,-59.998,rollRH
00:00:17:500,0.666,0.176,0.531,81.359,118.957,-50.965,
00:00:17:517,0.704,0.208,0.656,-2.564,159.179,-65.796,
00:00:17:533,0.728,0.276,0.756,-69.764,153.625,-63.294,
00:00:17:550,0.675,0.336,0.654,-49.927,117.736,-61.158,
00:00:17:567,0.68,0.248,0.523,-1.221,70.068,-71.534,
00:00:17:583,0.625,0.216,0.574,-10.254,70.983,-51.819,
00:00:17:600,0.623,0.127,0.626,-38.453,127.014,-62.561,
00:00:17:617,0.723,0.238,0.779,-111.878,110.839,-54.017,
00:00:17:633,0.696,0.297,0.772,-46.326,47.058,-47.852,
00:00:17:650,0.673,0.261,0.707,30.578,12.756,-52.002,
00:00:17:667,0.709,0.213,0.577,29.846,6.53,-57.251,
00:00:17:683,0.709,0.184,0.484,-21.119,46.264,-42.664,
00:00:17:700,0.747,0.249,0.499,-53.162,65.612,-23.743,
00:00:17:717,0.755,0.353,0.587,-41.687,28.869,-5.982,
00:00:17:733,0.723,0.255,0.542,23.925,-11.841,-15.686,
00:00:17:750,0.661,0.165,0.567,57.434,-10.498,-0.489,
00:00:17:767,0.645,0.126,0.603,46.936,21.362,-6.897,
00:00:17:783,0.708,0.205,0.72,-11.414,27.832,-6.836,
00:00:17:800,0.664,0.247,0.799,4.455,15.319,-7.874,
00:00:17:817,0.63,0.175,0.833,48.95,-16.175,-36.377,
00:00:17:833,0.584,0.298,0.881,68.298,-64.637,-22.583,
00:00:17:850,0.444,0.291,1.119,-3.296,-95.704,-50.354,
00:00:17:867,0.518,0.16,1.103,-190.552,-110.108,-124.695,
00:00:17:883,0.655,0.151,0.957,-384.461,-140.87,-138.794,
00:00:17:900,0.732,0.156,0.741,-451.355,-140.198,-77.698,
00:00:17:917,0.804,0.217,0.597,-531.006,-145.447,-9.4,
00:00:17:933,1,0.15,0.79,-395.752,-137.879,81.054,
00:00:17:950,0.883,0.059,0.571,-441.895,-62.256,95.825,
00:00:17:967,1.149,0.344,0.591,-401.001,-150.879,202.88,
00:00:17:983,0.441,0.515,-0.214,-404.664,245.361,89.416,
00:00:18:0,1.036,0.537,0.312,-442.872,37.597,170.593,
00:00:18:17,1.011,0.843,0.715,-243.714,-125.245,307.19,
00:00:18:33,0.684,0.007,0.701,39.367,-54.932,174.377,
00:00:18:50,0.575,0.471,0.411,-363.221,29.785,317.627,
00:00:18:67,0.461,0.498,0.65,-383.118,-44.19,155.334,
00:00:18:83,0.4,0.287,0.538,-319.581,-3.418,67.749,
00:00:18:100,0.39,0.184,0.579,-479.187,-12.757,-22.461,
00:00:18:117,0.454,0.267,0.642,-491.883,-33.387,-18.189,
00:00:18:133,0.432,0.437,0.66,-376.038,-10.193,-31.25,
00:00:18:150,0.45,0.413,0.572,-393.128,8.483,-26.185,
00:00:18:167,0.447,0.577,0.549,-494.812,43.762,-43.335,
00:00:18:183,0.453,0.318,0.319,-423.89,101.501,-58.777,
00:00:18:200,0.593,0.591,0.407,-504.395,66.833,51.391,
00:00:18:217,0.635,0.425,0.452,-128.113,44.433,-86.914,
00:00:18:233,0.666,0.169,0.706,-61.219,23.62,-206.055,
00:00:18:250,0.67,0.258,0.515,-158.081,128.845,-185.975,
00:00:18:267,0.697,0.762,0.477,-81.36,-87.342,10.742,
00:00:18:283,0.685,0.562,0.726,-24.414,-147.95,-6.531,
00:00:18:300,0.602,0.484,0.602,-26.734,-86.243,20.263,
00:00:18:317,0.675,0.431,0.511,-101.319,-111.756,12.329,
00:00:18:333,0.713,0.553,0.682,-1.587,-253.724,114.502,
00:00:18:350,0.596,0.646,0.822,28.442,-318.543,121.338,
00:00:18:367,0.539,0.531,0.786,182.373,-300.293,75.927,
00:00:18:383,0.557,0.427,0.74,159.118,-266.175,50.781,
00:00:18:400,0.48,0.521,0.67,138.122,-267.334,79.589,
00:00:18:417,0.452,0.488,0.72,231.384,-258.728,74.462,
00:00:18:433,0.472,0.498,0.747,211.853,-254.944,61.096,
00:00:18:450,0.479,0.529,0.747,276.428,-245.972,61.34,
00:00:18:467,0.477,0.481,0.7,270.813,-232.3,36.193,
00:00:18:483,0.5,0.541,0.555,90.148,-192.2,54.931,
00:00:18:500,0.498,0.634,0.543,122.07,-202.393,91.369,
00:00:18:517,0.357,0.597,0.573,199.524,-215.149,97.106,
00:00:18:533,0.345,0.484,0.705,267.517,-205.689,64.025,
00:00:18:550,0.447,0.498,0.704,308.899,-191.529,43.029,
00:00:18:567,0.489,0.414,0.67,319.336,-179.627,-30.335,
00:00:18:583,0.653,0.383,0.702,149.536,-198.914,-32.166,
00:00:18:600,0.715,0.539,0.51,65.063,-176.087,-3.663,
00:00:18:617,0.669,0.527,0.524,136.657,-190.613,-27.955,
00:00:18:633,0.589,0.343,0.492,137.695,-145.508,-83.619,
00:00:18:650,0.51,0.306,0.414,66.772,-40.65,-130.921,
00:00:18:667,0.488,0.318,0.329,40.71,88.562,-217.408,
00:00:18:683,0.634,0.229,0.291,203.735,117.92,-271.912,
00:00:18:700,0.712,0.357,0.491,267.639,104.309,-234.131,
00:00:18:717,0.662,0.338,0.587,274.536,107.91,-266.48,
00:00:18:733,0.764,0.25,0.69,10.803,65.856,-274.903,
00:00:18:750,0.794,0.428,0.877,-208.435,-32.898,-147.706,
00:00:18:767,0.839,0.657,0.943,-170.96,-79.407,-129.456,
00:00:18:783,0.626,0.497,0.768,90.759,-145.874,-74.524,
00:00:18:800,0.621,0.608,0.681,93.75,-129.517,16.296,
00:00:18:817,0.68,0.509,0.622,174.072,-126.038,-24.537,
00:00:18:833,0.747,0.284,0.425,140.808,-94.727,-39.429,
00:00:18:850,0.845,0.348,0.386,70.739,-94.605,-0.367,
00:00:18:867,0.878,0.331,0.375,209.533,-105.591,16.906,
00:00:18:883,0.838,0.3,0.442,333.74,-50.049,51.635,
00:00:18:900,0.738,0.294,0.396,455.078,56.64,84.899,
00:00:18:917,0.676,0.26,0.595,362.854,50.048,56.823,
00:00:18:933,0.758,0.209,0.519,310.241,-20.203,59.753,
00:00:18:950,0.68,0.494,0.757,341.674,-33.387,123.779,
00:00:18:967,0.467,0.341,1.116,432.739,96.557,59.509,
00:00:18:983,0.398,0.227,1.015,361.45,174.804,37.353,
00:00:19:0,0.4,0.242,0.774,179.87,182.861,17.211,
00:00:19:17,0.447,0.265,0.806,150.817,132.446,0.122,
00:00:19:33,0.446,0.331,0.899,209.838,56.396,18.859,
00:00:19:50,0.468,0.459,0.977,271.484,22.888,18.859,
00:00:19:67,0.456,0.471,1.052,280.944,1.22,27.954,
00:00:19:83,0.398,0.289,1.003,215.454,13.366,2.441,
00:00:19:100,0.337,0.251,0.894,163.086,16.906,10.376,
00:00:19:117,0.402,0.218,0.765,117.431,13.732,-1.954,
00:00:19:133,0.551,0.162,0.647,97.473,26.062,-46.57,
00:00:19:150,0.611,0.234,0.605,109.985,66.955,-15.564,
00:00:19:167,0.678,0.181,0.584,198.364,139.343,-22.522,
00:00:19:183,0.696,0.155,0.649,290.344,177.429,5.371,
00:00:19:200,0.699,0.146,0.65,267.028,206.848,11.352,
00:00:19:217,0.734,0.16,0.544,210.998,187.072,23.681,
00:00:19:233,0.795,0.242,0.465,126.281,143.798,47.363,
00:00:19:250,0.804,0.37,0.465,87.951,182.861,48.828,
00:00:19:267,0.725,0.329,0.599,144.226,243.225,34.362,
00:00:19:283,0.651,0.17,0.58,73.364,243.652,-14.161,
00:00:19:300,0.683,0.282,0.744,-42.176,220.092,-13.855,
00:00:19:317,0.634,0.303,0.82,-22.95,178.161,-10.621,
00:00:19:333,0.582,0.248,0.932,-53.711,119.262,3.356,
00:00:19:350,0.588,0.31,0.85,-68.238,109.192,8.361,
00:00:19:367,0.516,0.242,0.737,-31.434,120.483,11.169,
00:00:19:383,0.427,0.266,0.933,38.208,61.523,25.817,
00:00:19:400,0.474,0.206,0.957,96.069,15.747,20.752,
00:00:19:417,0.541,0.233,0.868,76.294,-10.071,41.87,
00:00:19:433,0.557,0.194,0.775,87.219,-19.959,43.09,
00:00:19:450,0.566,0.161,0.668,71.411,49.194,50.048,
00:00:19:467,0.583,0.169,0.728,-21.058,122.07,45.532,
00:00:19:483,0.71,0.203,0.611,-17.029,193.664,39.856,
00:00:19:500,0.66,0.23,0.519,57.312,282.837,28.381,
00:00:19:517,0.677,0.109,0.473,90.271,366.027,35.888,
00:00:19:533,0.61,0.103,0.509,59.692,467.59,40.649,
00:00:19:550,0.557,0.128,0.502,26.306,626.464,35.583,
00:00:19:567,1.62,0.071,0.975,21.301,281.494,91.796,
00:00:19:583,0.655,0.584,1.246,91.247,279.541,26.611,
00:00:19:600,0.418,0.248,1.179,-9.949,161.743,48.706,
00:00:19:617,0.297,0.249,1.009,-56.58,89.477,-21.912,
00:00:19:633,0.402,0.117,0.796,-70.923,71.838,-76.355,
00:00:19:650,0.534,0.196,0.813,-117.249,9.887,-104.31,
00:00:19:667,0.598,0.316,0.854,-126.282,-30.518,-91.553,
00:00:19:683,0.623,0.192,0.782,-159.363,-67.017,-63.477,
00:00:19:700,0.673,0.193,0.628,-233.765,-56.702,-48.951,
00:00:19:717,0.703,0.269,0.321,-170.777,-0.184,-76.294,
00:00:19:733,0.757,0.204,0.417,-98.389,69.885,-46.814,
00:00:19:750,0.778,0.208,0.678,-52.796,133.3,3.784,
00:00:19:767,0.713,0.236,0.72,-60.242,123.718,12.512,
00:00:19:783,0.711,0.302,0.617,-78.797,104.492,7.507,
00:00:19:800,0.658,0.437,0.55,2.868,86.547,5.798,
00:00:19:817,0.641,0.211,0.627,83.19,65.368,-9.644,
00:00:19:833,0.681,0.231,0.682,39.856,61.828,-19.776,
00:00:19:850,0.698,0.299,0.596,-31.739,66.467,-27.588,
00:00:19:867,0.699,0.256,0.594,-13.001,56.579,-18.006,
00:00:19:883,0.64,0.176,0.614,-9.766,53.955,-9.888,
00:00:19:900,0.583,0.171,0.736,23.071,39.245,4.333,
00:00:19:917,0.48,0.236,0.808,78.308,20.69,-3.724,
00:00:19:933,0.484,0.279,0.912,47.058,-21.302,-39.612,
00:00:19:950,0.599,0.232,0.642,63.232,-136.109,-89.661,
00:00:19:967,0.617,0.241,0.518,71.228,-88.318,-93.689,
00:00:19:983,0.665,0.26,0.635,36.438,-67.994,-66.102,
00:00:20:0,0.724,0.322,0.656,40.649,-17.456,-59.571,
00:00:20:17,0.76,0.191,0.828,52.429,-45.594,-70.557,
00:00:20:33,0.624,0.27,0.611,33.325,-37.659,10.742,
00:00:20:50,0.668,0.228,0.672,31.311,-49.317,-7.081,
00:00:20:67,0.65,0.265,0.669,27.587,-66.224,-17.334,
00:00:20:83,0.648,0.251,0.735,23.62,-98.45,-32.105,
00:00:20:100,0.628,0.146,0.817,39.062,-145.203,-112,
00:00:20:117,0.544,0.223,0.798,-8.728,-170.777,-77.759,
00:00:20:133,0.627,0.332,0.579,-40.223,-127.564,-75.684,
00:00:20:150,0.573,0.049,0.679,-92.957,-139.71,-111.023,
00:00:20:167,0.72,0.454,0.446,-106.69,-111.634,-75.684,
00:00:20:183,0.694,0.184,0.575,19.043,-86.243,-76.294,
00:00:20:200,0.795,0.127,0.463,68.664,-5.921,-55.298,
00:00:20:217,0.839,0.361,0.578,5.859,13.732,45.837,
00:00:20:233,0.666,0.252,0.615,35.705,-9.827,-8.484,
00:00:20:250,0.596,0.245,0.744,-25.94,9.887,-6.47,
00:00:20:267,0.576,0.251,0.823,24.719,-12.33,-34.119,
00:00:20:283,0.624,0.182,0.852,58.654,-74.097,-75.623,
00:00:20:300,0.53,0.028,0.659,-128.724,-176.026,-154.053,
00:00:20:317,0.669,0.323,0.64,-46.204,-125.794,-105.408,
00:00:20:333,0.72,0.183,0.801,-37.781,-97.657,-71.595,
00:00:20:350,0.728,0.221,0.73,-70.252,-77.942,-48.279,
00:00:20:367,0.708,0.173,0.587,-131.531,-62.195,-28.504,
00:00:20:383,0.576,0.38,0.655,-196.412,23.742,67.565,
00:00:20:400,0.625,0.32,0.807,-261.658,-31.617,42.846,
00:00:20:417,0.342,0.89,0.13,-713.196,-231.446,-80.323,
00:00:20:433,0.044,-0.299,0.441,-1932.129,-229.615,-431.885,
00:00:20:450,0.553,1.286,0.526,-573.975,-409.302,-207.459,
00:00:20:467,0.729,0.116,0.613,73.913,-464.966,-282.105,
00:00:20:483,0.642,-0.006,0.675,-399.353,-419.068,-277.894,
00:00:20:500,0.613,0.619,0.703,-372.925,-369.935,-284.668,
00:00:20:517,0.588,0.489,0.767,-333.619,-300.965,-304.261,
00:00:20:533,0.615,0.382,0.832,-513.489,-231.324,-307.74,
00:00:20:550,0.529,0.414,0.846,-608.765,-147.278,-329.102,
00:00:20:567,0.632,0.222,0.808,-477.539,-169.373,-327.82,
00:00:20:583,0.609,0.129,0.774,93.933,-178.65,-147.034,
00:00:20:600,0.604,0.497,0.911,93.444,-123.352,-87.83,
00:00:20:617,0.558,0.44,0.819,131.775,-62.012,-96.741,
00:00:20:633,0.542,0.359,0.825,61.645,-17.029,-102.539,
00:00:20:650,0.566,0.363,0.731,-3.785,-13.428,-93.75,
00:00:20:667,0.533,0.312,0.716,-1.587,-0.977,-85.022,
00:00:20:683,0.591,0.357,0.72,-9.888,-18.311,-92.652,
00:00:20:700,0.595,0.466,0.703,53.283,-1.526,-72.144,
00:00:20:717,0.606,0.412,0.79,92.163,6.469,-49.622,
00:00:20:733,0.574,0.318,0.705,86.059,22.216,-31.739,
00:00:20:750,0.536,0.333,0.704,60.913,39.733,-40.589,
00:00:20:767,0.512,0.313,0.651,-49.256,56.396,-71.289,
00:00:20:783,0.544,0.374,0.693,-128.296,57.8,-88.807,
00:00:20:800,0.554,0.397,0.74,-77.027,35.644,-78.858,
00:00:20:817,0.5,0.343,0.634,-111.329,17.028,-53.284,
00:00:20:833,0.544,0.376,0.548,-201.966,40.161,-57.679,
00:00:20:850,0.633,0.421,0.694,-170.289,52.49,-52.002,
00:00:20:867,0.665,0.365,0.721,-49.195,55.053,-27.894,
00:00:20:883,0.673,0.304,0.687,25.451,67.871,-23.926,
00:00:20:900,0.603,0.242,0.613,77.392,51.757,-14.893,
00:00:20:917,0.527,0.188,0.464,6.774,42.358,-37.293,
00:00:20:933,0.699,0.232,0.332,-103.455,-0.916,-99.549,
00:00:20:950,0.879,0.367,0.458,-126.221,-87.525,-72.51,
00:00:20:967,0.659,0.215,0.374,-22.95,-116.761,28.93,
00:00:20:983,0.716,0.203,0.25,29.113,-289.734,57.556,
00:00:21:0,0.634,0.591,0.797,-43.091,-304.749,63.232,
00:00:21:17,0.574,0.617,0.845,39.001,-213.135,-11.78,
00:00:21:33,0.58,0.384,0.885,-87.83,-134.522,-79.956,
00:00:21:50,0.534,0.357,0.917,-206.116,-128.418,-92.102,
00:00:21:67,0.516,0.444,0.916,-189.576,-150.879,-70.008,
00:00:21:83,0.455,0.462,0.899,-116.7,-125.611,-62.867,
00:00:21:100,0.398,0.378,0.848,-71.473,-87.403,-60.486,
00:00:21:117,0.403,0.398,0.809,-54.444,-65.064,-58.411,
00:00:21:133,0.415,0.432,0.778,-56.397,-44.678,-42.969,
00:00:21:150,0.433,0.357,0.712,-56.458,-69.642,-5.494,
00:00:21:167,0.373,0.437,0.843,-42.664,-103.577,39.856,
00:00:21:183,0.372,0.473,0.87,-70.13,-102.723,36.071,
00:00:21:200,0.354,0.49,0.866,-117.737,-59.388,5.31,
00:00:21:217,0.354,0.404,0.751,-131.653,-33.265,-28.626,
00:00:21:233,0.508,0.454,0.703,-98.694,-109.864,-29.725,
00:00:21:250,0.54,0.521,0.582,-1.893,-147.217,7.263,
00:00:21:267,0.535,0.379,0.515,9.765,-172.425,33.325,
00:00:21:283,0.612,0.418,0.595,-45.105,-184.266,62.805,
00:00:21:300,0.631,0.428,0.789,-29.114,-98.877,28.93,
00:00:21:317,0.625,0.295,0.795,21.789,-28.26,-3.296,
00:00:21:333,0.606,0.23,0.683,68.603,23.498,10.803,
00:00:21:350,0.604,0.31,0.671,74.462,30.822,17.822,
00:00:21:367,0.602,0.398,0.634,81.909,24.292,19.714,
00:00:21:383,0.595,0.447,0.601,88.745,30.212,21.972,
00:00:21:400,0.6,0.48,0.67,78.064,53.283,23.925,
00:00:21:417,0.541,0.442,0.721,79.956,77.392,36.132,
00:00:21:433,0.499,0.395,0.729,57.373,100.28,-1.221,
00:00:21:450,0.48,0.354,0.719,21.24,85.815,-31.922,
00:00:21:467,0.412,0.391,0.763,-50.232,70.983,-89.783,
00:00:21:483,0.427,0.412,0.726,-57.19,53.649,-76.416,
00:00:21:500,0.468,0.48,0.775,-16.48,20.446,-52.979,rollRH
00:00:21:517,0.472,0.457,0.796,-18.555,2.441,-49.683,
00:00:21:533,0.487,0.405,0.763,-36.56,-11.719,-44.19,
00:00:21:550,0.536,0.47,0.768,-60.975,-40.101,-22.461,
00:00:21:567,0.537,0.505,0.774,-50.232,-58.594,-13.184,
00:00:21:583,0.527,0.459,0.755,-39.612,-69.397,-10.926,
00:00:21:600,0.514,0.481,0.835,-40.772,-34.363,-18.372,
00:00:21:617,0.448,0.373,0.781,-25.635,6.164,-32.41,
00:00:21:633,0.397,0.291,0.709,-50.66,20.202,-29.664,
00:00:21:650,0.441,0.362,0.66,-77.332,-1.893,-18.494,
00:00:21:667,0.492,0.49,0.664,-83.619,-28.016,-6.958,
00:00:21:683,0.483,0.498,0.667,-48.951,-32.288,-11.475,
00:00:21:700,0.52,0.419,0.616,-50.293,-44.312,-25.818,
00:00:21:717,0.561,0.401,0.564,-7.386,-59.876,-11.658,
00:00:21:733,0.601,0.358,0.615,35.339,-122.437,4.882,
00:00:21:750,0.585,0.419,0.743,11.901,-109.436,13.305,
00:00:21:767,0.526,0.475,0.788,-23.743,-48.768,-17.701,
00:00:21:783,0.487,0.375,0.707,-52.43,-10.437,-73.914,
00:00:21:800,0.501,0.371,0.601,-94.3,-27.894,-36.255,
00:00:21:817,0.517,0.452,0.646,-60.303,-51.331,-6.714,
00:00:21:833,0.551,0.449,0.664,15.686,-68.543,-5.555,
00:00:21:850,0.492,0.372,0.653,63.232,-97.107,14.465,
00:00:21:867,0.364,0.402,0.879,56.762,-90.821,38.147,
00:00:21:883,0.388,0.486,0.846,38.818,4.028,-31.311,
00:00:21:900,0.419,0.451,0.742,-90.149,-98.999,16.967,
00:00:21:917,0.438,0.62,0.755,-55.298,-155.64,61.584,
00:00:21:933,0.399,0.577,0.812,72.753,-153.016,78.857,
00:00:21:950,0.399,0.47,0.825,101.013,-134.278,59.387,
00:00:21:967,0.38,0.465,0.901,50.659,-86.792,10.437,
00:00:21:983,0.367,0.405,0.799,6.469,-64.576,-33.875,
00:00:22:0,0.414,0.423,0.712,-38.819,-61.524,-30.945,
00:00:22:17,0.491,0.385,0.596,-56.275,-47.242,-28.382,
00:00:22:33,0.504,0.429,0.671,-15.442,-36.56,14.465,
00:00:22:50,0.481,0.479,0.685,53.1,-11.78,19.653,
00:00:22:67,0.451,0.394,0.718,79.528,18.92,0.915,
00:00:22:83,0.424,0.37,0.702,61.157,23.315,-20.386,
00:00:22:100,0.442,0.41,0.707,42.724,17.944,-43.641,
00:00:22:117,0.455,0.434,0.736,7.385,10.803,-57.679,
00:00:22:133,0.483,0.43,0.725,-11.597,-39.551,-40.039,
00:00:22:150,0.474,0.438,0.748,-9.278,-101.685,-8.667,
00:00:22:167,0.426,0.465,0.734,-21.851,-150.94,3.906,
00:00:22:183,0.379,0.424,0.678,-32.593,-165.528,-13.245,
00:00:22:200,0.324,0.456,0.756,-73.975,-169.129,-35.706,
00:00:22:217,0.294,0.545,0.861,-110.352,-156.434,-65.369,
00:00:22:233,0.259,0.546,0.906,-104.371,-122.437,-80.323,
00:00:22:250,0.24,0.552,0.912,-86.976,-99.305,-68.177,
00:00:22:267,0.274,0.539,0.89,-30.64,-83.008,-66.407,
00:00:22:283,0.382,0.463,0.81,-8.057,-81.36,-48.096,
00:00:22:300,0.214,0.411,0.389,23.132,-46.814,-33.326,
00:00:22:317,0.459,0.684,1.248,-74.646,-73.243,-52.308,
00:00:22:333,0.545,0.445,0.731,43.396,-52.002,-87.952,
00:00:22:350,0.503,0.366,0.62,74.768,-15.931,-74.891,
00:00:22:367,0.529,0.455,0.747,95.642,29.785,-66.712,
00:00:22:383,0.598,0.321,0.681,82.519,13.549,-67.078,
00:00:22:400,0.505,0.379,0.792,55.969,-33.814,-8.484,
00:00:22:417,0.447,0.427,0.802,29.968,-93.445,7.873,
00:00:22:433,0.427,0.447,0.785,18.493,-93.934,-2.381,
00:00:22:450,0.449,0.447,0.731,0.671,-56.275,-34.79,
00:00:22:467,0.523,0.479,0.704,34.851,63.415,-75.379,
00:00:22:483,0.626,0.344,0.689,60.546,157.287,-102.234,
00:00:22:500,0.701,0.288,0.645,30.212,147.094,-62.806,
00:00:22:517,0.669,0.406,0.705,14.77,98.999,-5.616,
00:00:22:533,0.613,0.395,0.685,22.949,118.53,17.7,
00:00:22:550,0.675,0.482,0.703,77.697,196.655,42.297,
00:00:22:567,0.733,0.446,0.731,179.199,272.766,74.157,
00:00:22:583,0.738,0.34,0.689,233.886,315.734,78.247,
00:00:22:600,0.646,0.253,0.643,197.143,353.149,28.32,
00:00:22:617,0.596,0.287,0.78,85.51,361.694,-36.133,
00:00:22:633,0.571,0.422,0.739,-29.48,334.9,-44.19,
00:00:22:650,0.576,0.492,0.75,-23.316,354.553,-27.039,
00:00:22:667,0.52,0.542,0.743,35.461,392.395,-16.907,
00:00:22:683,0.439,0.463,0.714,82.275,397.766,-75.074,
00:00:22:700,0.395,0.365,0.791,80.322,337.707,-107.3,
00:00:22:717,0.349,0.377,0.843,53.527,334.167,-111.634,
00:00:22:733,0.384,0.418,0.702,33.996,402.343,-152.71,
00:00:22:750,0.494,0.439,0.74,96.557,447.204,-189.209,
00:00:22:767,0.622,0.455,0.665,154.297,406.433,-163.514,
00:00:22:783,0.619,0.407,0.586,203.613,302.795,-95.643,
00:00:22:800,0.555,0.369,0.696,248.779,206.97,2.99,
00:00:22:817,0.465,0.271,0.637,170.349,201.538,-18.677,
00:00:22:833,0.554,0.323,0.563,85.937,258.3,-79.407,
00:00:22:850,0.676,0.321,0.536,60.669,255.127,-138.55,
00:00:22:867,0.692,0.32,0.497,77.27,197.143,-122.803,
00:00:22:883,0.669,0.321,0.465,106.689,121.765,-82.764,
00:00:22:900,0.679,0.282,0.584,100.036,65.002,-48.401,
00:00:22:917,0.682,0.334,0.661,-23.499,65.734,-67.139,
00:00:22:933,0.685,0.383,0.6,0.854,42.419,-27.1,
00:00:22:950,0.65,0.388,0.638,100.525,-4.517,5.554,
00:00:22:967,0.599,0.368,0.727,122.68,6.286,25.268,
00:00:22:983,0.575,0.341,0.831,140.503,78.796,3.967,
00:00:23:0,0.544,0.273,0.654,68.786,154.113,-39.002,
00:00:23:17,0.583,0.349,0.688,26.428,139.831,-53.345,
00:00:23:33,0.607,0.4,0.652,101.318,119.812,-37.659,
00:00:23:50,0.573,0.405,0.584,212.463,84.106,-15.564,
00:00:23:67,0.61,0.328,0.737,231.994,93.811,-24.964,
00:00:23:83,0.698,0.35,0.683,113.037,119.201,-7.203,
00:00:23:100,0.757,0.406,0.688,159.912,77.514,5.554,
00:00:23:117,0.676,0.371,0.578,229.614,47.79,35.888,
00:00:23:133,0.628,0.253,0.557,252.258,47.729,16.784,
00:00:23:150,0.708,0.257,0.585,243.286,57.434,1.342,
00:00:23:167,0.76,0.292,0.612,210.876,80.322,13.916,
00:00:23:183,0.744,0.183,0.489,208.862,125.305,14.16,
00:00:23:200,0.78,0.185,0.557,231.384,88.928,40.71,
00:00:23:217,0.773,0.303,0.88,147.4,37.658,69.213,
00:00:23:233,0.606,0.304,0.739,130.188,51.452,86.181,
00:00:23:250,0.698,0.306,0.702,127.441,61.035,69.946,
00:00:23:267,0.619,0.265,0.654,83.984,46.203,77.636,
00:00:23:283,0.549,0.261,0.567,18.676,34.484,38.574,
00:00:23:300,0.501,0.259,0.698,-32.654,52.856,10.925,
00:00:23:317,0.577,0.278,0.815,-106.446,42.48,-4.883,
00:00:23:333,0.556,0.349,0.917,-117.554,35.583,-10.865,
00:00:23:350,0.558,0.409,0.862,-108.887,14.892,-19.288,
00:00:23:367,0.526,0.445,0.647,-85.022,4.821,-4.09,
00:00:23:383,0.571,0.374,0.669,-27.161,-30.762,4.028,
00:00:23:400,0.567,0.189,0.744,9.277,-26.673,-0.123,
00:00:23:417,0.599,0.222,0.751,-53.956,-10.804,0.549,
00:00:23:433,0.599,0.232,0.662,-71.106,6.408,-5.372,
00:00:23:450,0.601,0.287,0.648,-53.04,17.761,-7.142,
00:00:23:467,0.656,0.306,0.62,11.474,27.71,-6.775,
00:00:23:483,0.615,0.243,0.677,35.522,43.762,1.953,
00:00:23:500,0.631,0.275,0.76,21.545,36.926,5.737,
00:00:23:517,0.665,0.326,0.715,-8.973,19.958,-1.893,
00:00:23:533,0.728,0.425,0.625,-13.428,12.695,-2.991,
00:00:23:550,0.655,0.322,0.499,63.537,11.718,6.774,
00:00:23:567,0.608,0.263,0.573,94.543,21.118,-7.569,
00:00:23:583,0.708,0.301,0.645,28.991,32.714,-31.495,
00:00:23:600,0.677,0.251,0.615,-19.898,69.702,-32.166,
00:00:23:617,0.692,0.264,0.615,-22.522,46.447,-28.138,
00:00:23:633,0.727,0.311,0.662,-20.935,36.987,-27.527,
00:00:23:650,0.624,0.298,0.564,34.118,61.584,-22.889,
00:00:23:667,0.572,0.232,0.651,39.489,97.473,-38.392,
00:00:23:683,0.631,0.273,0.7,-7.142,120.544,-45.655,
00:00:23:700,0.645,0.279,0.722,-34.424,113.769,-51.331,
00:00:23:717,0.66,0.291,0.751,-24.72,83.74,-42.115,
00:00:23:733,0.639,0.39,0.733,7.263,50.72,-16.236,
00:00:23:750,0.597,0.335,0.699,27.893,54.138,-16.358,
00:00:23:767,0.602,0.328,0.669,10.498,81.726,-21.241,
00:00:23:783,0.666,0.347,0.678,-11.78,83.496,-26.185,
00:00:23:800,0.706,0.331,0.642,-25.269,80.505,-28.565,
00:00:23:817,0.691,0.311,0.567,-57.373,76.904,-22.889,
00:00:23:833,0.623,0.253,0.554,-53.956,90.271,-23.438,
00:00:23:850,0.669,0.256,0.588,-72.937,89.416,-33.692,
00:00:23:867,0.623,0.292,0.582,-46.204,118.53,-61.707,
00:00:23:883,0.615,0.263,0.645,29.113,110.595,-34.974,
00:00:23:900,0.534,0.235,0.754,54.382,85.51,-30.701,
00:00:23:917,0.49,0.278,0.795,15.564,65.063,-46.204,
00:00:23:933,0.423,0.336,0.789,-33.753,57.312,-51.697,
00:00:23:950,0.382,0.355,0.755,-98.572,27.71,-52.247,
00:00:23:967,0.38,0.376,0.783,-177.247,-16.785,-42.664,
00:00:23:983,0.382,0.413,0.747,-230.347,-53.833,-38.88,
00:00:24:0,0.466,0.418,0.772,-216.065,-126.709,-28.809,
00:00:24:17,0.46,0.399,0.828,-154.175,-182.862,-40.039,
00:00:24:33,0.434,0.306,0.75,-229.676,-256.043,-84.29,
00:00:24:50,0.443,0.311,0.598,-423.157,-271.18,-100.22,
00:00:24:67,0.485,0.467,0.644,-490.967,-263.794,-97.779,
00:00:24:83,0.641,0.551,0.804,-380.372,-341.492,-66.59,
00:00:24:100,0.629,0.413,0.813,-228.455,-341.919,-38.147,
00:00:24:117,0.604,0.373,0.799,-88.501,-335.022,-18.25,
00:00:24:133,0.62,0.289,0.653,-62.684,-336.609,-22.034,
00:00:24:150,0.685,0.391,0.628,-75.318,-327.942,-17.823,
00:00:24:167,0.639,0.528,0.755,3.906,-284.119,3.479,
00:00:24:183,0.609,0.435,0.737,66.04,-235.718,-8.362,
00:00:24:200,0.441,0.338,0.846,43.273,-155.091,-33.692,
00:00:24:217,0.375,0.294,0.82,15.197,-129.273,-76.6,
00:00:24:233,0.414,0.212,0.655,-65.674,-149.048,-116.456,
00:00:24:250,0.475,0.351,0.668,-56.458,-153.992,-141.053,
00:00:24:267,0.53,0.452,0.77,-0.061,-178.467,-137.33,
00:00:24:283,0.641,0.402,0.72,-49.256,-211.243,-134.4,
00:00:24:300,0.779,0.421,0.839,-138.184,-247.254,-102.417,
00:00:24:317,0.713,0.322,0.873,-127.747,-239.747,-65.064,
00:00:24:333,0.71,0.295,0.667,-76.905,-204.285,-50.232,
00:00:24:350,0.634,0.403,0.675,2.746,-150.757,-24.048,
00:00:24:367,0.654,0.354,0.727,72.631,-56.153,-20.874,
00:00:24:383,0.722,0.259,0.625,53.161,14.282,-20.386,
00:00:24:400,0.725,0.209,0.561,26.428,58.41,-9.766,
00:00:24:417,0.723,0.255,0.608,24.597,43.518,7.141,
00:00:24:433,0.744,0.366,0.59,-16.602,32.348,4.455,
00:00:24:450,0.719,0.346,0.606,-10.01,27.832,-10.865,
00:00:24:467,0.664,0.351,0.68,-71.839,44.86,-22.034,
00:00:24:483,0.632,0.319,0.606,-168.763,62.988,-48.218,
00:00:24:500,0.625,0.383,0.57,-130.86,35.583,-30.03,
00:00:24:517,0.604,0.459,0.713,-57.435,-16.114,-14.283,
00:00:24:533,0.576,0.481,0.763,-18.494,-66.468,4.211,
00:00:24:550,0.538,0.4,0.722,-23.133,-112.366,9.216,
00:00:24:567,0.511,0.346,0.755,-70.191,-146.851,15.075,
00:00:24:583,0.518,0.41,0.705,-126.587,-168.702,30.883,
00:00:24:600,0.498,0.471,0.704,-58.411,-177.43,47.668,
00:00:24:617,0.449,0.454,0.737,12.146,-198.487,67.138,
00:00:24:633,0.428,0.434,0.737,51.513,-229.676,88.928,
00:00:24:650,0.417,0.368,0.716,71.167,-255.372,105.774,
00:00:24:667,0.409,0.439,0.901,41.076,-220.643,100.83,
00:00:24:683,0.504,0.385,0.728,75.439,-78.309,25.451,
00:00:24:700,0.551,0.342,0.681,66.955,-34.058,1.403,
00:00:24:717,0.534,0.35,0.716,41.32,-20.813,6.347,
00:00:24:733,0.548,0.353,0.699,20.263,-22.644,-2.076,
00:00:24:750,0.532,0.399,0.71,-5.738,-29.847,-6.714,
00:00:24:767,0.508,0.475,0.682,-18.311,-18.616,-15.809,
00:00:24:783,0.602,0.425,0.566,9.765,11.413,-57.801,
00:00:24:800,0.671,0.344,0.658,57.678,36.132,-54.2,
00:00:24:817,0.667,0.365,0.656,54.565,50.659,-24.414,
00:00:24:833,0.554,0.341,0.719,55.603,65.795,-28.016,
00:00:24:850,0.507,0.293,0.716,17.822,69.702,-63.66,
00:00:24:867,0.531,0.362,0.766,-48.706,33.691,-98.572,
00:00:24:883,0.558,0.396,0.665,-120.057,-37.171,-97.657,
00:00:24:900,0.467,0.451,0.674,-72.815,-97.413,-42.603,
00:00:24:917,0.432,0.57,0.767,53.283,-74.952,-20.752,
00:00:24:933,0.467,0.484,0.828,221.313,50.048,-34.424,
00:00:24:950,0.461,0.332,0.83,272.583,135.864,-51.514,
00:00:24:967,0.47,0.249,0.712,193.664,167.114,-106.568,
00:00:24:983,0.557,0.136,0.699,58.837,111.023,-153.626,
00:00:25:0,0.648,0.26,0.636,-74.341,26.428,-122.01,
00:00:25:17,0.68,0.429,0.578,-47.181,-18.311,-84.29,
00:00:25:33,0.744,0.419,0.565,43.823,12.817,-65.308,
00:00:25:50,0.798,0.325,0.574,116.088,50.781,-37.659,
00:00:25:67,0.848,0.2,0.588,102.783,60.302,-25.696,
00:00:25:83,0.714,0.392,0.716,-14.71,112.732,79.101,
00:00:25:100,0.644,0.431,0.734,42.602,169.128,69.885,
00:00:25:117,0.631,0.397,0.665,110.473,200.073,49.072,
00:00:25:133,0.673,0.34,0.685,148.254,210.571,29.052,
00:00:25:150,0.679,0.294,0.739,134.155,199.463,39.123,
00:00:25:167,0.633,0.329,0.69,100.158,218.567,64.514,
00:00:25:183,0.553,0.288,0.615,113.159,239.624,48.034,
00:00:25:200,0.553,0.282,0.62,74.279,263.183,-5.86,
00:00:25:217,0.588,0.322,0.644,41.259,294.799,-54.505,
00:00:25:233,0.622,0.345,0.684,17.028,317.016,-84.229,
00:00:25:250,0.696,0.334,0.609,-7.935,307.067,-87.891,
00:00:25:267,0.711,0.301,0.541,12.268,261.474,-37.903,
00:00:25:283,0.626,0.24,0.597,68.237,224.304,5.188,
00:00:25:300,0.611,0.176,0.598,12.207,212.524,-32.715,
00:00:25:317,0.674,0.291,0.72,-144.41,206.604,-72.571,
00:00:25:333,0.724,0.489,0.607,-187.684,193.969,-39.551,
00:00:25:350,0.725,0.468,0.512,-63.843,163.635,-6.104,
00:00:25:367,0.629,0.333,0.605,63.781,119.506,51.513,
00:00:25:383,0.556,0.351,0.668,34.179,90.026,83.19,
00:00:25:400,0.573,0.409,0.782,74.218,121.765,47.485,
00:00:25:417,0.595,0.348,0.667,64.758,154.113,22.033,
00:00:25:433,0.597,0.326,0.607,82.641,155.944,24.841,
00:00:25:450,0.635,0.276,0.571,91.43,159.668,13.671,
00:00:25:467,0.596,0.282,0.598,48.4,185.363,25.451,
00:00:25:483,0.689,0.455,0.673,32.592,152.832,50.842,rollRH
00:00:25:500,0.722,0.5,0.809,58.227,140.014,107.666,
00:00:25:517,0.648,0.275,0.736,180.542,106.689,169.372,
00:00:25:533,0.701,0.438,0.819,186.157,64.575,170.349,
00:00:25:550,0.601,0.503,0.798,209.289,86.914,157.531,
00:00:25:567,0.595,0.439,0.592,230.346,101.196,128.296,
00:00:25:583,0.61,0.37,0.551,249.145,82.702,96.252,
00:00:25:600,0.609,0.384,0.543,175.293,83.068,68.786,
00:00:25:617,0.552,0.261,0.506,131.591,110.29,24.108,
00:00:25:633,0.51,0.224,0.53,105.713,110.412,4.516,
00:00:25:650,0.648,0.367,0.614,34.484,110.107,-20.081,
00:00:25:667,0.639,0.488,0.814,32.348,77.575,0.976,
00:00:25:683,0.611,0.416,0.842,6.286,62.072,10.986,
00:00:25:700,0.561,0.431,0.795,-26.429,50.109,36.682,
00:00:25:717,0.514,0.402,0.69,22.094,19.592,43.151,
00:00:25:733,0.499,0.325,0.696,44.555,6.53,24.597,
00:00:25:750,0.594,0.364,0.65,-10.804,-9.522,-2.991,
00:00:25:767,0.641,0.439,0.702,-37.049,6.286,6.225,
00:00:25:783,0.649,0.383,0.668,-17.273,26.123,13.061,
00:00:25:800,0.604,0.311,0.628,37.414,22.399,21.545,
00:00:25:817,0.615,0.359,0.58,88.501,22.522,7.141,
00:00:25:833,0.667,0.392,0.628,93.444,32.775,1.464,
00:00:25:850,0.686,0.304,0.609,45.776,66.406,0.061,
00:00:25:867,0.689,0.313,0.669,28.198,71.838,-1.221,
00:00:25:883,0.68,0.361,0.595,16.418,61.584,5.737,
00:00:25:900,0.607,0.352,0.589,101.196,50.415,7.141,
00:00:25:917,0.649,0.304,0.656,60.974,114.868,-32.288,
00:00:25:933,0.685,0.307,0.609,13.427,124.328,-48.706,
00:00:25:950,0.725,0.387,0.537,21.423,105.224,-39.673,
00:00:25:967,0.63,0.384,0.527,124.145,137.451,-30.823,
00:00:25:983,0.661,0.356,0.666,109.497,136.169,-30.64,
00:00:26:0,0.68,0.303,0.593,-1.099,85.571,-31.861,
00:00:26:17,0.665,0.328,0.537,28.381,97.778,-27.466,
00:00:26:33,0.626,0.301,0.498,121.093,138.366,-36.988,
00:00:26:50,0.597,0.295,0.654,131.713,162.658,-54.749,
00:00:26:67,0.571,0.214,0.718,81.42,203.735,-26.978,
00:00:26:83,0.53,0.1,0.863,2.929,244.812,-3.418,
00:00:26:100,0.498,0.145,0.814,101.806,273.071,13.305,
00:00:26:117,0.568,0.261,0.687,227.722,269.043,44.982,
00:00:26:133,0.627,0.462,0.638,397.949,261.901,57.434,
00:00:26:150,0.625,0.446,0.643,501.831,279.846,65.307,
00:00:26:167,0.647,0.49,0.613,502.746,312.439,87.402,
00:00:26:183,0.737,0.346,0.7,451.172,292.907,98.755,
00:00:26:200,0.704,0.367,0.779,291.565,232.544,128.662,
00:00:26:217,0.658,0.319,0.828,215.759,102.478,131.775,
00:00:26:233,0.536,0.129,0.653,102.478,-32.288,131.713,
00:00:26:250,0.442,0.003,0.654,-11.353,-88.135,145.63,
00:00:26:267,0.498,0.263,0.559,-14.771,-152.955,169.433,
00:00:26:283,0.557,0.156,0.574,45.715,-167.42,153.625,
00:00:26:300,0.674,0.387,0.667,-112.183,-169.678,140.564,
00:00:26:317,0.727,0.483,0.692,-249.695,-173.645,108.947,
00:00:26:333,0.714,0.526,0.651,-295.899,-236.878,48.217,
00:00:26:350,0.645,0.413,0.73,-501.16,-284.302,-2.686,
00:00:26:367,0.65,0.599,0.62,-701.111,-319.275,-75.745,
00:00:26:383,0.54,0.6,0.596,-575.623,-297.486,-107.239,
00:00:26:400,0.559,0.53,0.367,-240.113,-298.279,-110.23,
00:00:26:417,0.605,0.416,0.432,-2.442,-331.299,-138.367,
00:00:26:433,0.612,0.483,0.691,4.882,-363.282,-94.544,
00:00:26:450,0.727,0.338,0.748,-3.418,-404.419,-47.425,
00:00:26:467,0.722,0.091,0.803,-30.64,-404.725,-64.82,
00:00:26:483,0.674,0.396,0.516,90.576,-283.265,-119.812,
00:00:26:500,0.556,0.418,0.471,-64.942,-229.859,-113.587,
00:00:26:517,0.629,0.382,0.624,-205.262,-269.227,-119.873,
00:00:26:533,0.696,0.465,0.718,-88.074,-187.989,-130.921,
00:00:26:550,0.578,0.373,0.665,-168.213,-200.379,-122.376,
00:00:26:567,0.588,0.394,0.735,-216.309,-218.14,-138.245,
00:00:26:583,0.596,0.399,0.677,-161.316,-208.252,-121.216,
00:00:26:600,0.595,0.327,0.668,-162.415,-209.351,-108.704,
00:00:26:617,0.583,0.354,0.625,-163.208,-224.549,-113.343,
00:00:26:633,0.574,0.47,0.606,-111.817,-207.886,-83.863,
00:00:26:650,0.52,0.389,0.74,-106.446,-154.969,-80.75,
00:00:26:667,0.518,0.411,0.7,-139.039,-179.566,-96.009,
00:00:26:683,0.487,0.395,0.821,-123.78,-184.754,-116.089,
00:00:26:700,0.485,0.407,0.756,-166.687,-193.543,-115.601,
00:00:26:717,0.446,0.388,0.74,-112.671,-184.937,-121.094,
00:00:26:733,0.516,0.395,0.715,-27.344,-153.809,-92.102,
00:00:26:750,0.611,0.235,0.606,15.441,-155.274,-102.295,
00:00:26:767,0.551,0.328,0.751,40.161,-118.409,-68.238,
00:00:26:783,0.572,0.298,0.818,66.345,-72.815,-43.824,
00:00:26:800,0.583,0.383,0.777,91.613,-43.702,-15.931,
00:00:26:817,0.541,0.43,0.741,126.587,-0.794,16.113,
00:00:26:833,0.604,0.457,0.712,197.143,1.892,6.713,
00:00:26:850,0.576,0.418,0.682,216.674,-8.423,6.347,
00:00:26:867,0.545,0.412,0.74,154.419,-6.775,-2.076,
00:00:26:883,0.508,0.382,0.844,113.891,-8.973,-4.334,
00:00:26:900,0.518,0.393,0.854,89.294,-18.677,-18.982,
00:00:26:917,0.467,0.413,0.811,67.688,-24.414,-31.434,
00:00:26:933,0.471,0.433,0.802,28.259,-38.514,-69.764,
00:00:26:950,0.481,0.456,0.725,32.531,-38.514,-84.29,
00:00:26:967,0.507,0.394,0.687,16.967,-57.496,-94.605,
00:00:26:983,0.458,0.343,0.688,32.775,-62.195,-66.651,
00:00:27:0,0.445,0.221,0.718,33.264,-65.857,-51.209,
00:00:27:17,0.482,0.325,0.805,15.869,-76.844,-42.725,
00:00:27:33,0.5,0.339,0.798,13.732,-81.055,-23.926,
00:00:27:50,0.5,0.308,0.747,-12.574,-91.736,-13.184,
00:00:27:67,0.475,0.338,0.692,-38.025,-105.835,-2.076,
00:00:27:83,0.496,0.259,0.696,-34.913,-88.685,-17.701,
00:00:27:100,0.549,0.335,0.68,-8.301,-72.327,-20.142,
00:00:27:117,0.617,0.369,0.72,-49.439,-53.101,-25.879,
00:00:27:133,0.644,0.358,0.693,-39.795,-27.771,-13.123,
00:00:27:150,0.632,0.307,0.697,-41.565,-21.912,3.295,
00:00:27:167,0.618,0.373,0.697,41.565,-18.555,26.489,
00:00:27:183,0.608,0.32,0.717,60.546,-15.931,26.672,
00:00:27:200,0.604,0.378,0.735,42.968,-5.188,19.165,
00:00:27:217,0.617,0.411,0.727,37.17,12.451,6.469,
00:00:27:233,0.588,0.384,0.695,20.446,8.789,-4.944,
00:00:27:250,0.548,0.333,0.662,9.033,8.972,-11.353,
00:00:27:267,0.527,0.352,0.709,-0.977,5.371,-11.475,
00:00:27:283,0.509,0.339,0.745,13.916,-2.442,-10.743,
00:00:27:300,0.501,0.373,0.8,7.141,-8.179,-12.757,
00:00:27:317,0.498,0.393,0.799,-1.282,-14.771,-21.18,
00:00:27:333,0.473,0.373,0.777,-19.043,-21.485,-33.753,
00:00:27:350,0.452,0.358,0.733,-23.56,-21.973,-40.589,
00:00:27:367,0.424,0.345,0.791,5.127,-24.353,-29.419,
00:00:27:383,0.423,0.35,0.84,33.691,-34.546,-16.785,
00:00:27:400,0.424,0.39,0.843,30.944,-43.519,-14.466,
00:00:27:417,0.417,0.376,0.826,28.32,-47.974,-12.085,
00:00:27:433,0.409,0.343,0.763,9.521,-61.463,-18.189,
00:00:27:450,0.452,0.346,0.724,1.464,-70.801,-28.626,
00:00:27:467,0.455,0.372,0.783,0.183,-68.116,-23.987,
00:00:27:483,0.479,0.366,0.845,20.507,-60.669,-13.611,
00:00:27:500,0.471,0.366,0.882,29.419,-53.894,-0.55,
00:00:27:517,0.453,0.343,0.84,23.559,-31.556,7.812,
00:00:27:533,0.445,0.349,0.738,-1.893,-17.762,14.709,
00:00:27:550,0.433,0.365,0.737,48.523,1.953,13.916,
00:00:27:567,0.456,0.37,0.758,52.856,-5.982,5.798,
00:00:27:583,0.463,0.362,0.805,61.828,5.493,-7.081,
00:00:27:600,0.469,0.364,0.819,29.235,20.324,-16.663,
00:00:27:617,0.477,0.355,0.814,18.066,23.498,-19.41,
00:00:27:633,0.476,0.37,0.742,15.625,9.338,-31.311,
00:00:27:650,0.458,0.362,0.744,1.648,11.474,-37.598,
00:00:27:667,0.47,0.391,0.762,7.69,8.85,-39.429,
00:00:27:683,0.484,0.372,0.742,-0.733,-4.029,-39.673,
00:00:27:700,0.448,0.339,0.759,-1.221,-12.574,-30.274,
00:00:27:717,0.468,0.348,0.839,-16.602,-10.804,-38.025,
00:00:27:733,0.49,0.38,0.842,1.281,5.798,-54.688,
00:00:27:750,0.47,0.388,0.843,32.531,13.305,-39.368,
00:00:27:767,0.473,0.36,0.82,59.204,23.01,-34.852,
00:00:27:783,0.48,0.386,0.758,72.509,10.925,-27.466,
00:00:27:800,0.42,0.349,0.791,97.961,2.258,-10.865,
00:00:27:817,0.436,0.368,0.887,92.834,14.953,-35.645,
00:00:27:833,0.429,0.359,0.896,54.26,27.954,-42.481,
00:00:27:850,0.425,0.308,0.796,13.732,39.123,-48.89,
00:00:27:867,0.403,0.27,0.715,5.249,66.65,-46.753,
00:00:27:883,0.479,0.335,0.713,8.972,55.847,-49.988,
00:00:27:900,0.486,0.339,0.799,6.591,48.645,-66.163,
00:00:27:917,0.505,0.386,0.924,-17.273,57.495,-84.717,
00:00:27:933,0.479,0.352,0.908,-49.622,99.609,-116.211,
00:00:27:950,0.489,0.367,0.711,-106.507,122.009,-117.127,
00:00:27:967,0.498,0.35,0.619,-48.096,99.182,-95.887,
00:00:27:983,0.545,0.327,0.683,-20.935,80.139,-106.08,
00:00:28:0,0.612,0.325,0.703,12.756,66.406,-102.906,
00:00:28:17,0.666,0.303,0.614,4.394,41.809,-89.173,
00:00:28:33,0.655,0.246,0.463,-23.621,6.958,-65.979,
00:00:28:50,0.723,0.273,0.437,7.751,-21.424,-45.96,
00:00:28:67,0.729,0.321,0.574,68.542,-69.397,-15.931,
00:00:28:83,0.705,0.334,0.709,75.561,-65.369,-15.87,
00:00:28:100,0.788,0.343,0.684,36.56,-19.959,-36.255,
00:00:28:117,0.838,0.302,0.632,-30.03,50.354,-53.956,
00:00:28:133,0.77,0.253,0.559,6.713,66.345,2.502,
00:00:28:150,0.654,0.235,0.596,80.688,29.296,65.246,
00:00:28:167,0.572,0.316,0.71,109.375,-4.822,90.271,
00:00:28:183,0.584,0.345,0.77,115.661,1.892,50.293,
00:00:28:200,0.632,0.319,0.769,77.453,37.109,25.878,
00:00:28:217,0.647,0.331,0.7,30.639,59.936,22.644,
00:00:28:233,0.508,0.202,0.723,81.42,79.284,48.217,
00:00:28:250,0.53,0.308,0.769,38.452,73.242,43.212,
00:00:28:267,0.505,0.434,0.765,36.926,78.186,33.752,
00:00:28:283,0.528,0.393,0.77,59.326,82.824,-1.343,
00:00:28:300,0.479,0.16,0.541,9.826,120.971,-12.269,
00:00:28:317,0.631,0.275,0.679,2.807,82.031,7.202,
00:00:28:333,0.529,0.366,0.739,-8.851,66.467,12.207,
00:00:28:350,0.564,0.291,0.679,23.559,92.407,-2.564,
00:00:28:367,0.564,0.367,0.742,9.216,92.773,17.578,
00:00:28:383,0.549,0.252,0.687,10.376,108.215,6.774,
00:00:28:400,0.492,0.343,0.826,0.549,66.101,35.4,
00:00:28:417,0.479,0.372,0.803,16.662,58.044,22.094,
00:00:28:433,0.48,0.432,0.839,22.094,49.438,13.305,
00:00:28:450,0.459,0.366,0.816,60.73,57.983,16.54,
00:00:28:467,0.469,0.256,0.851,72.57,67.688,10.192,
00:00:28:483,0.502,0.286,0.748,55.664,95.886,7.324,
00:00:28:500,0.535,0.292,0.681,62.866,125.915,14.099,
00:00:28:517,0.577,0.271,0.693,48.523,138,18.005,
00:00:28:533,0.622,0.392,0.746,18.737,125.366,15.075,
00:00:28:550,0.557,0.41,0.76,62.866,127.99,19.226,
00:00:28:567,0.534,0.33,0.785,42.419,115.783,6.958,
00:00:28:583,0.499,0.337,0.835,14.099,101.684,3.784,
00:00:28:600,0.506,0.375,0.859,20.019,72.509,4.577,
00:00:28:617,0.444,0.356,0.864,86.608,34.912,20.202,
00:00:28:633,0.387,0.34,0.89,108.886,30.578,9.033,
00:00:28:650,0.373,0.368,0.877,74.035,39.733,-11.475,
00:00:28:667,0.409,0.338,0.812,59.814,43.64,-32.349,
00:00:28:683,0.422,0.263,0.78,50.964,38.757,-35.462,
00:00:28:700,0.465,0.335,0.791,29.968,24.414,-34.913,
00:00:28:717,0.492,0.299,0.795,14.343,25.756,-39.673,
00:00:28:733,0.528,0.285,0.77,-3.296,32.531,-34.607,
00:00:28:750,0.551,0.268,0.673,26.794,38.635,-27.955,
00:00:28:767,0.581,0.3,0.702,57.861,31.738,-16.358,
00:00:28:783,0.601,0.314,0.704,66.04,22.277,-2.93,
00:00:28:800,0.579,0.284,0.702,59.448,22.583,5.432,
00:00:28:817,0.6,0.279,0.737,10.498,31.005,-5.86,
00:00:28:833,0.597,0.359,0.705,15.686,29.663,-11.292,
00:00:28:850,0.587,0.275,0.619,39.184,28.503,-14.222,
00:00:28:867,0.595,0.284,0.687,2.441,12.634,-8.179,
00:00:28:883,0.6,0.355,0.752,-7.569,-2.259,-4.395,
00:00:28:900,0.58,0.303,0.761,-13.489,12.939,-12.513,
00:00:28:917,0.562,0.299,0.697,-4.761,19.775,-16.053,
00:00:28:933,0.566,0.283,0.729,-13.489,26.794,-21.485,
00:00:28:950,0.609,0.341,0.712,-30.335,31.982,-30.091,
00:00:28:967,0.597,0.337,0.705,-7.935,39.367,-21.241,
00:00:28:983,0.587,0.286,0.735,20.019,47.851,-15.625,
00:00:29:0,0.588,0.323,0.732,35.034,41.931,-15.564,
00:00:29:17,0.591,0.316,0.695,39.367,35.461,-18.799,
00:00:29:33,0.622,0.282,0.632,8.056,31.189,-25.696,
00:00:29:50,0.624,0.271,0.637,-26.978,40.588,-28.077,
00:00:29:67,0.606,0.343,0.73,-13.184,48.156,-28.199,
00:00:29:83,0.582,0.328,0.772,-6.287,66.162,-38.269,
00:00:29:100,0.577,0.323,0.753,-25.818,65.368,-38.208,
00:00:29:117,0.533,0.294,0.709,-31.8,72.815,-48.523,
00:00:29:133,0.555,0.285,0.685,-46.387,75.927,-55.359,
00:00:29:150,0.547,0.33,0.747,-54.261,89.66,-62.378,
00:00:29:167,0.548,0.34,0.812,-52.796,87.402,-70.74,
00:00:29:183,0.528,0.334,0.743,-47.974,79.589,-74.341,
00:00:29:200,0.455,0.337,0.759,-45.594,36.743,-64.331,
00:00:29:217,0.517,0.279,0.859,-66.956,12.817,-83.558,
00:00:29:233,0.49,0.404,0.848,-72.815,20.08,-68.055,
00:00:29:250,0.515,0.313,0.75,-58.35,25.756,-68.604,
00:00:29:267,0.51,0.269,0.718,-22.522,30.639,-54.444,
00:00:29:283,0.645,0.386,0.787,-37.72,20.324,-26.917,
00:00:29:300,0.683,0.341,0.664,-47.425,34.423,-37.964,
00:00:29:317,0.662,0.313,0.568,-22.95,56.579,-45.166,
00:00:29:333,0.655,0.282,0.607,-38.636,71.167,-54.688,
00:00:29:350,0.674,0.313,0.651,-41.321,71.96,-48.951,
00:00:29:367,0.638,0.34,0.615,-77.393,70.312,-65.857,
00:00:29:383,0.671,0.338,0.599,-95.032,79.223,-78.797,
00:00:29:400,0.708,0.377,0.629,-94.178,78.735,-82.947,
00:00:29:417,0.692,0.349,0.651,-87.647,79.895,-75.074,
00:00:29:433,0.635,0.292,0.625,-63.904,92.834,-68.421,
00:00:29:450,0.667,0.33,0.636,-88.868,146.545,-82.459,
00:00:29:467,0.697,0.317,0.644,-81.849,140.747,-72.571,
00:00:29:483,0.62,0.36,0.671,-39.246,137.085,-55.909,
00:00:29:500,0.597,0.341,0.688,-35.462,148.132,-53.711,
00:00:29:517,0.618,0.341,0.655,-21.851,172.424,-63.965,rollRH
00:00:29:533,0.593,0.357,0.685,-20.142,149.597,-65.43,
00:00:29:550,0.522,0.345,0.678,16.906,81.543,-63.599,
00:00:29:567,0.414,0.326,0.786,36.193,53.588,-37.842,
00:00:29:583,0.361,0.385,0.927,29.419,23.925,-26.062,
00:00:29:600,0.398,0.38,0.978,40.222,-21.485,-6.897,
00:00:29:617,0.438,0.365,0.924,52.063,-81.91,-1.831,
00:00:29:633,0.508,0.409,0.757,58.776,-116.211,-15.748,
00:00:29:650,0.542,0.328,0.637,38.147,-119.507,-23.377,
00:00:29:667,0.546,0.309,0.726,35.766,-105.652,-20.569,
00:00:29:683,0.569,0.31,0.784,36.132,-93.934,-28.87,
00:00:29:700,0.566,0.339,0.771,61.035,-92.713,-16.724,
00:00:29:717,0.578,0.348,0.742,68.42,-115.54,-2.808,
00:00:29:733,0.58,0.379,0.759,80.2,-142.64,24.108,
00:00:29:750,0.578,0.325,0.697,98.999,-171.265,41.87,
00:00:29:767,0.616,0.291,0.625,69.58,-168.152,13.916,
00:00:29:783,0.704,0.372,0.607,6.958,-151.795,-23.011,
00:00:29:800,0.706,0.348,0.643,-51.758,-135.804,-40.528,
00:00:29:817,0.685,0.291,0.646,-86.67,-104.065,-52.552,
00:00:29:833,0.652,0.274,0.653,-39.368,-49.805,-39.246,
00:00:29:850,0.656,0.239,0.689,0.244,-5.555,-24.964,
00:00:29:867,0.665,0.358,0.68,31.311,2.197,-14.771,
00:00:29:883,0.629,0.333,0.664,55.908,15.564,7.202,
00:00:29:900,0.62,0.327,0.692,59.692,6.713,11.596,
00:00:29:917,0.602,0.328,0.698,58.227,-3.724,12.085,
00:00:29:933,0.585,0.342,0.716,66.467,-16.968,7.69,
00:00:29:950,0.566,0.338,0.71,75.378,-31.373,8.667,
00:00:29:967,0.542,0.344,0.735,57.8,-47.486,8.3,
00:00:29:983,0.515,0.347,0.78,42.785,-83.191,9.948,
00:00:30:0,0.484,0.31,0.741,27.71,-122.01,-0.55,
00:00:30:17,0.414,0.387,0.825,-82.886,-149.292,-63.05,
00:00:30:33,0.385,0.361,0.845,-92.347,-150.391,-57.251,
00:00:30:50,0.344,0.328,0.838,-60.12,-170.777,-40.955,
00:00:30:67,0.247,0.238,0.793,-28.748,-159.058,-41.016,
00:00:30:83,0.399,0.306,0.905,-32.288,-196.045,-37.11,
00:00:30:100,0.473,0.313,0.928,25.207,-179.81,-22.461,
00:00:30:117,0.534,0.36,0.845,-23.377,-163.697,-50.049,
00:00:30:133,0.485,0.372,0.765,-4.944,-155.518,-44.373,
00:00:30:150,0.496,0.381,0.703,13.244,-138.245,-37.781,
00:00:30:167,0.475,0.262,0.796,22.583,-99.549,-35.157,
00:00:30:183,0.46,0.362,0.807,75.561,-70.252,-11.597,
00:00:30:200,0.455,0.348,0.775,44.128,-27.894,-37.415,
00:00:30:217,0.441,0.27,0.703,2.197,-3.418,-59.998,
00:00:30:233,0.544,0.318,0.725,-9.217,-79.59,-64.576,
00:00:30:250,0.585,0.325,0.726,35.278,-107.666,-68.238,
00:00:30:267,0.621,0.313,0.715,33.996,-98.084,-72.449,
00:00:30:283,0.672,0.326,0.786,-10.987,-62.561,-95.154,
00:00:30:300,0.73,0.22,0.687,52.551,-63.843,-57.862,
00:00:30:317,0.713,0.278,0.651,109.253,-42.908,-34.852,
00:00:30:333,0.682,0.292,0.654,137.695,-31.617,-25.635,
00:00:30:350,0.667,0.281,0.705,89.111,-24.842,-29.114,
00:00:30:367,0.594,0.389,0.777,32.348,-1.831,-26.185,
00:00:30:383,0.581,0.373,0.793,19.226,-7.203,-24.598,
00:00:30:400,0.508,0.337,0.78,65.795,-14.039,-0.489,
00:00:30:417,0.472,0.319,0.789,114.441,-52.613,-4.517,
00:00:30:433,0.469,0.222,0.757,79.223,-73.853,-27.039,
00:00:30:450,0.487,0.262,0.768,44.677,-80.994,-44.434,
00:00:30:467,0.512,0.276,0.764,-7.264,-69.458,-55.359,
00:00:30:483,0.551,0.307,0.815,-29.175,-68.116,-41.321,
00:00:30:500,0.514,0.323,0.811,52.978,-64.942,-1.099,
00:00:30:517,0.499,0.287,0.813,84.228,-70.984,6.836,
00:00:30:533,0.504,0.26,0.767,49.377,-75.501,-13.062,
00:00:30:550,0.514,0.301,0.788,9.094,-48.035,-38.086,
00:00:30:567,0.5,0.283,0.815,23.559,-28.687,-37.781,
00:00:30:583,0.483,0.299,0.841,13.549,-34.058,-30.091,
00:00:30:600,0.471,0.331,0.779,37.78,-53.467,-15.198,
00:00:30:617,0.459,0.268,0.805,31.372,-71.595,-19.349,
00:00:30:633,0.596,0.276,0.745,64.392,-92.652,-9.461,
00:00:30:650,0.586,0.267,0.784,89.965,-67.994,-5.31,
00:00:30:667,0.569,0.217,0.766,73.181,-32.471,-11.78,
00:00:30:683,0.588,0.264,0.791,70.312,-19.288,-14.283,
00:00:30:700,0.592,0.305,0.77,94.299,-10.071,-7.203,
00:00:30:717,0.62,0.303,0.706,103.393,-8.423,-21.546,
00:00:30:733,0.611,0.297,0.708,103.271,-0.916,-11.902,
00:00:30:750,0.562,0.24,0.704,95.825,9.155,-8.057,
00:00:30:767,0.514,0.249,0.72,58.41,17.822,-15.503,
00:00:30:783,0.497,0.229,0.719,23.376,26.062,-33.692,
00:00:30:800,0.454,0.229,0.761,-13.367,18.188,-45.533,
00:00:30:817,0.478,0.278,0.787,-33.143,-6.897,-52.124,
00:00:30:833,0.448,0.286,0.825,-12.635,-38.453,-50.232,
00:00:30:850,0.434,0.28,0.858,-20.813,-60.73,-54.444,
00:00:30:867,0.455,0.231,0.846,-34.302,-49.561,-63.172,
00:00:30:883,0.489,0.203,0.814,-14.466,-47.181,-62.623,
00:00:30:900,0.534,0.276,0.823,-10.254,-55.298,-65.613,
00:00:30:917,0.588,0.268,0.779,-1.709,-63.294,-45.289,
00:00:30:933,0.627,0.221,0.713,26.245,-67.261,-24.903,
00:00:30:950,0.891,0.225,0.598,-1.282,48.217,-13.184,
00:00:30:967,0.836,0.222,0.619,10.62,93.2,-5.86,
00:00:30:983,0.747,0.209,0.65,26.794,94.36,-3.418,
00:00:31:0,0.618,0.283,0.698,16.601,72.631,13.671,
00:00:31:17,0.579,0.279,0.765,15.258,39.184,15.564,
00:00:31:33,0.542,0.245,0.839,-15.809,49.072,23.193,
00:00:31:50,0.526,0.213,0.72,-27.955,83.923,22.461,
00:00:31:67,0.51,0.131,0.681,24.292,78.186,26.428,
00:00:31:83,0.517,0.323,0.807,-28.565,82.092,9.826,
00:00:31:100,0.489,0.356,0.877,-42.847,101.745,-5.677,
00:00:31:117,0.562,0.213,0.691,-55.787,104.675,10.315,
00:00:31:133,0.615,0.306,0.669,-13.367,71.167,15.747,
00:00:31:150,0.573,0.306,0.687,-13.733,95.153,26.367,
00:00:31:167,0.552,0.201,0.712,-65.613,129.699,-5.494,
00:00:31:183,0.544,0.23,0.683,-98.633,134.216,-14.405,
00:00:31:200,0.588,0.308,0.717,-102.967,129.089,-25.696,
00:00:31:217,0.581,0.339,0.754,-85.999,89.355,-12.269,
00:00:31:233,0.524,0.392,0.797,-70.008,104.553,-19.959,
00:00:31:250,0.463,0.296,0.833,-89.112,137.39,-45.838,
00:00:31:267,0.528,0.267,0.772,-128.174,141.845,-65.003,
00:00:31:283,0.534,0.39,0.808,-89.295,106.628,-32.41,
00:00:31:300,0.527,0.362,0.795,-28.199,98.205,-6.043,
00:00:31:317,0.522,0.22,0.663,36.56,100.83,2.929,
00:00:31:333,0.554,0.279,0.704,6.652,122.131,-4.334,
00:00:31:350,0.581,0.407,0.855,23.315,131.713,-17.823,
00:00:31:367,0.525,0.304,0.842,13.977,137.756,-9.583,
00:00:31:383,0.561,0.369,0.802,47.241,119.629,17.211,
00:00:31:400,0.498,0.244,0.71,47.79,137.146,6.652,
00:00:31:417,0.548,0.193,0.573,-8.423,171.386,-34.363,
00:00:31:433,0.628,0.274,0.614,-49.622,171.142,-70.618,
00:00:31:450,0.658,0.313,0.635,-59.021,168.884,-66.04,
00:00:31:467,0.648,0.329,0.667,10.62,148.132,-27.527,
00:00:31:483,0.656,0.329,0.671,12.512,132.08,-19.959,
00:00:31:500,0.585,0.352,0.748,-11.841,109.069,-40.772,
00:00:31:517,0.476,0.402,0.885,-47.364,62.316,-68.543,
00:00:31:533,0.485,0.392,0.852,-41.748,58.593,-66.59,
00:00:31:550,0.479,0.293,0.76,-57.068,70.983,-76.05,
00:00:31:567,0.504,0.261,0.742,-57.129,77.453,-81.727,
00:00:31:583,0.504,0.342,0.829,-69.458,82.275,-78.064,
00:00:31:600,0.518,0.335,0.85,-32.349,85.388,-59.998,
00:00:31:617,0.536,0.359,0.833,-19.471,90.393,-45.655,
00:00:31:633,0.525,0.254,0.747,3.479,108.459,-33.997,
00:00:31:650,0.556,0.287,0.762,-4.578,124.755,-36.133,
00:00:31:667,0.543,0.35,0.842,1.464,144.714,-33.814,
00:00:31:683,0.531,0.369,0.967,10.131,166.809,-24.659,
00:00:31:700,0.39,0.3,1.052,202.819,143.188,124.328,
00:00:31:717,0.411,0.446,1.02,264.282,19.775,148.864,
00:00:31:733,0.475,0.466,0.933,271.484,-45.289,176.147,
00:00:31:750,0.473,0.517,0.902,322.265,-114.869,209.533,
00:00:31:767,0.406,0.355,0.799,242.248,-148.56,201.355,
00:00:31:783,0.457,0.474,0.782,153.259,-235.901,201.11,
00:00:31:800,0.542,0.65,0.739,459.533,-264.71,332.275,
00:00:31:817,0.593,0.107,0.51,375.793,-251.16,211.364,
00:00:31:833,0.523,0.225,0.432,227.661,-200.562,164.184,
00:00:31:850,0.513,-0.008,0.41,161.499,-138.306,124.572,
00:00:31:867,0.514,0.061,0.401,83.007,-69.825,114.563,
00:00:31:883,0.499,0.194,0.494,134.094,45.41,97.351,
00:00:31:900,0.558,0.144,0.5,176.025,200.683,49.926,
00:00:31:917,0.658,0.198,0.473,123.169,256.958,26.916,
00:00:31:933,0.671,0.286,0.481,131.591,289.917,25.573,
00:00:31:950,0.72,0.273,0.536,154.419,260.192,16.723,
00:00:31:967,0.663,0.339,0.669,148.742,258.606,18.615,
00:00:31:983,0.707,0.234,0.636,118.408,257.385,-31.006,
00:00:32:0,0.847,0.233,0.891,9.704,67.26,-51.941,
00:00:32:17,0.73,0.251,1.096,-6.653,-12.391,-40.711,
00:00:32:33,0.546,0.445,0.88,-57.312,-42.786,-14.283,
00:00:32:50,0.425,0.191,0.749,-49.073,-68.543,8.667,
00:00:32:67,0.381,0.178,0.974,-70.252,-99.976,-2.625,
00:00:32:83,0.307,0.275,1.028,-88.501,-90.21,1.403,
00:00:32:100,0.292,0.32,0.989,-61.097,-102.295,28.625,
00:00:32:117,0.261,0.468,0.936,0.122,-138.306,36.621,
00:00:32:133,0.399,0.238,0.93,-19.837,-69.703,30.212,
00:00:32:150,0.525,0.257,0.944,-1.282,-1.648,44.372,
00:00:32:167,0.583,0.275,0.751,66.65,-4.639,73.974,
00:00:32:183,0.631,0.264,0.652,78.796,-5.86,110.901,
00:00:32:200,0.705,0.233,0.599,89.233,-8.423,134.643,
00:00:32:217,0.804,0.213,0.622,50.293,29.968,112.365,
00:00:32:233,0.816,0.343,0.721,20.263,92.834,73.974,
00:00:32:250,0.757,0.321,0.765,41.198,147.4,44.738,
00:00:32:267,0.663,0.276,0.701,85.144,185.608,41.442,
00:00:32:283,0.594,0.305,0.73,129.577,180.359,52.307,
00:00:32:300,0.54,0.33,0.729,96.008,146.118,38.391,
00:00:32:317,0.524,0.332,0.712,-23.377,-0.306,-39.978,
00:00:32:333,0.526,0.297,0.681,-16.114,-25.818,-50.477,
00:00:32:350,0.532,0.306,0.718,-18.799,-61.707,-50.232,
00:00:32:367,0.538,0.316,0.831,-43.274,-46.326,-61.768,
00:00:32:383,0.553,0.313,0.812,-23.194,-34.485,-54.2,
00:00:32:400,0.531,0.326,0.795,-46.204,-25.635,-55.481,
00:00:32:417,0.523,0.317,0.735,-15.625,-30.945,-54.322,
00:00:32:433,0.434,0.285,0.783,-30.64,-46.936,-55.237,
00:00:32:450,0.414,0.349,0.818,-35.279,-63.233,-53.589,
00:00:32:467,0.389,0.328,0.926,-67.688,-59.815,-55.726,
00:00:32:483,0.382,0.319,0.925,-61.89,-49.744,-49.5,
00:00:32:500,0.341,0.309,0.742,-77.271,-56.153,-71.9,
00:00:32:517,0.378,0.323,0.744,-108.521,-44.8,-89.173,
00:00:32:533,0.39,0.373,0.874,-132.447,7.019,-102.845,
00:00:32:550,0.498,0.326,0.912,-153.016,19.165,-108.582,
00:00:32:567,0.52,0.317,0.855,-70.435,8.178,-58.289,
00:00:32:583,0.582,0.226,0.766,-29.908,-2.686,-45.35,
00:00:32:600,0.625,0.255,0.693,-4.334,0.671,-26.001,
00:00:32:617,0.646,0.373,0.733,36.926,-7.935,-15.748,
00:00:32:633,0.625,0.295,0.738,71.472,-3.602,-15.625,
00:00:32:650,0.652,0.224,0.658,78.064,2.502,-0.428,
00:00:32:667,0.715,0.26,0.606,74.951,15.38,16.479,
00:00:32:683,0.729,0.274,0.642,51.269,20.996,4.333,
00:00:32:700,0.691,0.295,0.708,-6.409,31.677,-13.855,
00:00:32:717,0.701,0.291,0.735,-0.733,40.771,-24.292,
00:00:32:733,0.676,0.255,0.706,7.507,41.198,-24.476,
00:00:32:750,0.671,0.252,0.605,-16.602,27.221,-13.977,
00:00:32:767,0.602,0.162,0.557,-61.402,-2.198,3.906,
00:00:32:783,0.569,0.266,0.725,-144.593,-13.428,1.953,
00:00:32:800,0.547,0.367,0.828,-166.871,-25.025,-7.386,
00:00:32:817,0.502,0.395,0.827,-182.496,-17.212,-6.409,
00:00:32:833,0.498,0.371,0.746,-84.9,-12.635,3.051,
00:00:32:850,0.509,0.365,0.792,13.61,-35.889,22.033,
00:00:32:867,0.509,0.333,0.815,7.141,-4.761,14.526,
00:00:32:883,0.534,0.313,0.774,30.639,10.62,19.348,
00:00:32:900,0.562,0.374,0.717,53.527,16.784,23.01,
00:00:32:917,0.522,0.316,0.764,54.321,9.582,10.192,
00:00:32:933,0.488,0.344,0.776,26.367,-1.709,0.305,
00:00:32:950,0.502,0.364,0.758,14.892,-24.842,-14.771,
00:00:32:967,0.511,0.376,0.755,-1.709,-39.978,-27.894,
00:00:32:983,0.516,0.35,0.773,-27.832,-45.533,-36.805,
00:00:33:0,0.435,0.305,0.764,-4.822,-43.274,-29.541,
00:00:33:17,0.422,0.383,0.881,-1.343,-39.734,-12.146,
00:00:33:33,0.407,0.375,0.873,52.917,-46.692,6.774,
00:00:33:50,0.448,0.345,0.805,58.471,-52.674,11.596,
00:00:33:67,0.471,0.286,0.686,58.776,-70.923,7.263,
00:00:33:83,0.519,0.334,0.681,20.935,-71.351,-8.728,
00:00:33:100,0.492,0.367,0.812,-0.733,-90.76,-10.743,
00:00:33:117,0.485,0.351,0.877,-2.869,-88.44,-25.391,
00:00:33:133,0.477,0.396,0.815,-29.602,-93.14,-45.594,
00:00:33:150,0.464,0.342,0.75,-59.205,-108.826,-65.064,
00:00:33:167,0.445,0.376,0.775,-83.069,-126.648,-77.698,
00:00:33:183,0.452,0.374,0.785,-35.889,-141.358,-89.966,
00:00:33:200,0.403,0.366,0.879,-41.504,-155.823,-92.896,
00:00:33:217,0.368,0.367,0.922,-31.373,-157.105,-95.154,
00:00:33:233,0.351,0.392,0.921,-19.227,-166.565,-87.708,
00:00:33:250,0.357,0.409,0.91,4.15,-213.501,-121.644,
00:00:33:267,0.427,0.4,0.864,-11.536,-198.731,-152.71,
00:00:33:283,0.556,0.326,0.857,-33.265,-116.761,-213.44,
00:00:33:300,0.682,0.32,0.739,-28.199,26.672,-251.648,
00:00:33:317,0.819,0.301,0.696,-44.495,114.563,-260.071,
00:00:33:334,0.963,0.158,0.649,36.315,142.7,-221.436,
00:00:33:350,1.087,0.15,0.584,180.297,142.089,-122.925,
00:00:33:367,1.175,-0.07,0.479,255.615,122.68,-68.238,
00:00:33:384,1.283,0.068,0.435,132.385,55.969,13.671,
00:00:33:400,1.485,0.185,0.469,-21.119,-76.539,113.403,
00:00:33:417,1.173,0.131,0.26,-68.726,-52.369,249.084,
00:00:33:434,1.135,0.229,0.531,-146.363,-239.502,358.093,
00:00:33:450,0.934,0.505,0.553,-121.888,-139.954,335.937,
00:00:33:467,0.802,0.279,0.614,-86.548,-35.523,244.812,
00:00:33:484,0.684,0.26,0.509,-196.228,24.231,204.223,
00:00:33:500,0.587,0.435,0.54,-213.44,63.354,154.907,
00:00:33:517,0.515,0.475,0.572,-175.66,118.408,65.612,
00:00:33:534,0.346,0.349,0.579,-153.26,187.255,-5.127,rollRH
00:00:33:550,0.269,0.418,0.596,-215.271,237.182,-111.206,
00:00:33:567,0.132,0.282,0.561,-272.583,313.842,-303.284,
00:00:33:584,0.11,0.416,0.577,-392.212,341.43,-416.321,
00:00:33:600,0.096,0.44,0.618,-462.342,453.491,-574.524,
00:00:33:617,0.13,0.457,0.71,-383.057,424.133,-541.748,
00:00:33:634,0.159,0.526,0.811,-309.144,351.989,-517.945,
00:00:33:650,0.166,0.696,0.813,-252.991,279.846,-501.282,
00:00:33:667,0.081,0.678,0.88,-286.011,258.239,-509.217,
00:00:33:684,0.087,0.659,0.924,-346.741,211.914,-503.663,
00:00:33:700,0.137,0.468,0.817,-308.167,85.327,-399.659,
00:00:33:717,0.118,0.401,0.787,-225.403,110.29,-367.92,
00:00:33:734,0.198,0.366,0.69,-196.656,170.044,-362.122,
00:00:33:750,0.727,0.517,1.354,-265.198,-207.642,-299.561,
00:00:33:767,0.506,1.218,1.657,202.942,-335.45,-39.307,
00:00:33:784,0.481,0.085,1.343,22.461,-190.796,-66.163,
00:00:33:800,0.397,0.514,1.177,-301.941,-247.071,-66.285,
00:00:33:817,0.455,0.281,0.828,-55.481,-259.034,-12.269,
00:00:33:834,0.472,0.365,0.701,-26.673,-254.7,22.338,
00:00:33:850,0.519,0.416,0.682,94.604,-249.756,64.88,
00:00:33:867,0.524,0.462,0.685,174.743,-248.719,89.965,
00:00:33:884,0.497,0.327,0.701,165.791,13861.445,-614.326,
00:00:33:900,0.456,0.372,0.688,-44.251,-109.253,-84.168,
00:00:33:917,0.469,0.406,0.65,-70.496,-130.86,-121.582,
00:00:33:934,0.505,0.467,0.811,3.479,-189.454,-93.873,
00:00:33:950,0.578,0.536,0.908,14.282,-228.211,-78.492,
00:00:33:967,0.626,0.469,0.863,-30.396,-208.497,-87.342,
00:00:33:984,0.619,0.416,0.584,-1.282,-114.563,-60.059,
00:00:34:0,0.581,0.384,0.66,64.453,-86.426,-19.532,
00:00:34:17,0.586,0.279,0.648,39.611,-32.227,-15.87,
00:00:34:34,0.591,0.293,0.621,-4.456,3.906,-14.283,
00:00:34:50,0.529,0.297,0.566,37.414,8.483,8.667,
00:00:34:67,0.573,0.456,0.77,20.996,-44.434,11.23,
00:00:34:84,0.573,0.467,0.698,6.897,-54.932,-19.715,
00:00:34:100,0.58,0.421,0.551,-56.153,-66.468,-58.655,
00:00:34:117,0.594,0.404,0.538,-114.258,-63.172,-89.356,
00:00:34:134,0.58,0.387,0.712,-80.079,-55.359,-77.271,
00:00:34:150,0.552,0.373,0.791,-36.927,-56.641,-67.017,
00:00:34:167,0.5,0.434,0.852,-26.551,-52.735,-66.346,
00:00:34:184,0.459,0.385,0.81,-59.266,-57.984,-91.248,
00:00:34:200,0.458,0.394,0.736,-82.886,-67.933,-102.601,
00:00:34:217,0.478,0.359,0.694,-58.716,-84.534,-99.793,
00:00:34:234,0.552,0.348,0.653,-24.292,-91.248,-71.717,
00:00:34:250,0.574,0.382,0.724,-35.95,-82.093,-50.293,
00:00:34:267,0.583,0.411,0.714,-19.104,-58.838,-33.936,
00:00:34:284,0.6,0.459,0.698,-34.729,-39.917,-30.823,
00:00:34:300,0.585,0.42,0.671,-12.024,-18.494,-21.424,
00:00:34:317,0.561,0.352,0.695,1.831,-2.564,-1.221,
00:00:34:334,0.551,0.361,0.747,1.22,9.399,12.085,
00:00:34:350,0.523,0.314,0.774,3.967,21.179,36.377,
00:00:34:367,0.511,0.376,0.778,41.442,30.517,59.814,
00:00:34:384,0.549,0.548,0.7,40.466,15.441,44.921,
00:00:34:400,0.523,0.557,0.624,83.129,20.996,-11.414,
00:00:34:417,0.604,0.362,0.701,52.185,48.278,-53.833,
00:00:34:434,0.6,0.347,0.644,37.902,48.278,-46.387,
00:00:34:450,0.596,0.394,0.649,25.878,42.968,-43.763,
00:00:34:467,0.591,0.404,0.653,-0.184,37.109,-53.101,
00:00:34:484,0.555,0.391,0.708,-12.879,33.691,-59.937,
00:00:34:500,0.503,0.4,0.771,-4.517,18.859,-66.163,
00:00:34:517,0.504,0.403,0.716,-12.757,-2.381,-74.646,
00:00:34:534,0.474,0.394,0.738,-25.391,-18.799,-76.416,
00:00:34:550,0.456,0.405,0.754,-31.189,-37.293,-79.102,
00:00:34:567,0.449,0.382,0.748,-38.514,-56.458,-92.835,
00:00:34:584,0.474,0.377,0.745,-53.894,-66.468,-101.319,
00:00:34:600,0.502,0.39,0.768,-32.105,-60.975,-92.164,
00:00:34:617,0.491,0.367,0.794,2.136,-48.768,-73.975,
00:00:34:634,0.49,0.357,0.75,9.338,-45.105,-56.946,
00:00:34:650,0.498,0.395,0.789,19.287,-32.715,-33.57,
00:00:34:667,0.498,0.372,0.742,-0.489,1.648,-44.251,
00:00:34:684,0.486,0.383,0.747,-2.686,5.188,-57.496,
00:00:34:700,0.501,0.417,0.788,5.859,-2.747,-66.895,
00:00:34:717,0.498,0.42,0.755,15.014,-12.33,-70.557,
00:00:34:734,0.486,0.364,0.744,4.333,-12.269,-64.637,
00:00:34:750,0.463,0.357,0.745,6.286,-8.484,-47.913,
00:00:34:767,0.474,0.375,0.734,14.831,-31.189,-48.401,
00:00:34:784,0.478,0.419,0.752,1.22,-20.264,-49.866,
00:00:34:800,0.481,0.385,0.752,2.929,-19.165,-52.674,
00:00:34:817,0.458,0.396,0.815,1.342,-18.433,-51.392,
00:00:34:834,0.454,0.4,0.778,5.798,-9.278,-54.993,
00:00:34:850,0.432,0.38,0.765,-33.936,-10.621,-67.566,
00:00:34:867,0.442,0.43,0.833,-14.954,-17.762,-74.402,
00:00:34:884,0.421,0.397,0.787,-0.123,-28.931,-85.816,
00:00:34:900,0.451,0.361,0.771,-14.527,-29.847,-88.44,
00:00:34:917,0.464,0.376,0.803,32.531,-30.457,-61.646,
00:00:34:934,0.495,0.311,0.761,88.073,-31.8,-42.664,
00:00:34:950,0.534,0.369,0.784,90.82,-29.725,-38.147,
00:00:34:967,0.551,0.384,0.789,69.946,-20.203,-47.913,
00:00:34:984,0.612,0.407,0.706,79.223,1.281,-42.908,
00:00:35:0,0.608,0.351,0.597,129.943,32.714,-26.062,
00:00:35:17,0.652,0.338,0.568,193.42,53.1,-4.456,
00:00:35:34,0.678,0.373,0.628,208.923,62.5,16.113,
00:00:35:50,0.632,0.342,0.666,197.815,66.101,18.188,
00:00:35:67,0.64,0.384,0.627,139.526,57.373,12.756,
00:00:35:84,0.631,0.38,0.57,55.908,41.565,-10.865,
00:00:35:100,0.647,0.335,0.59,-1.954,26.306,-31.311,
00:00:35:117,0.622,0.327,0.694,-34.485,28.93,-31.067,
00:00:35:134,0.574,0.268,0.747,23.376,40.222,-12.207,
00:00:35:150,0.553,0.302,0.79,50.293,42.114,7.446,
00:00:35:167,0.55,0.333,0.785,59.814,32.653,20.019,
00:00:35:184,0.539,0.355,0.714,62.988,21.423,20.08,
00:00:35:200,0.54,0.365,0.713,45.593,9.155,12.695,
00:00:35:217,0.518,0.335,0.722,36.315,-7.508,3.234,
00:00:35:234,0.514,0.367,0.735,31.494,-25.391,-8.423,
00:00:35:250,0.5,0.373,0.777,35.827,-41.382,-14.588,
00:00:35:267,0.489,0.358,0.774,50.17,-53.772,-19.471,
00:00:35:284,0.483,0.362,0.796,45.898,-76.111,-29.969,
00:00:35:300,0.475,0.332,0.793,38.696,-93.445,-36.377,
00:00:35:317,0.457,0.308,0.77,43.029,-111.939,-30.091,
00:00:35:334,0.392,0.31,0.866,91.796,-126.16,-5.005,
00:00:35:350,0.284,0.285,1.016,173.645,-142.151,25.512,
00:00:35:367,0.272,0.439,1.071,238.342,-173.035,46.752,
00:00:35:384,0.366,0.469,1.064,241.272,-188.538,28.198,
00:00:35:400,0.482,0.495,1.072,205.017,-182.068,-18.25,
00:00:35:417,0.625,0.402,1,68.176,-124.146,-105.53,
00:00:35:434,0.723,0.378,0.886,65.918,-13.428,-150.147,
00:00:35:450,0.789,0.252,0.796,-16.724,68.237,-234.864,
00:00:35:467,0.801,0.097,0.547,58.532,204.895,-243.287,
00:00:35:484,0.926,0.091,0.225,155.212,247.192,-250.245,
00:00:35:500,1.164,0.06,0.222,202.453,132.69,-174.866,
00:00:35:517,0.99,0.25,0.372,134.643,73.73,12.023,
00:00:35:534,1.417,0.259,0.619,87.097,-300.232,163.269,
00:00:35:550,1.061,0.413,0.687,-12.024,-292.359,424.743,
00:00:35:567,1.107,0.246,0.606,17.761,-268.25,521.606,
00:00:35:584,1.067,0.435,0.486,111.816,-208.802,712.28,
00:00:35:600,1.062,0.508,0.46,231.445,-171.326,807.129,
00:00:35:617,0.971,0.498,0.52,323.181,-108.216,853.027,
00:00:35:634,0.847,0.47,0.523,347.046,-23.377,848.877,
00:00:35:650,0.714,0.452,0.517,232.36,71.106,739.502,
00:00:35:667,0.581,0.362,0.438,138,188.049,629.943,
00:00:35:684,0.437,0.081,0.41,66.467,226.806,540.893,
00:00:35:700,0.345,0.093,0.496,64.331,212.158,476.989,
00:00:35:717,0.294,0.252,0.546,-16.846,249.939,359.558,
00:00:35:734,0.204,0.194,0.549,-102.539,335.51,215.759,
00:00:35:750,0.087,0.114,0.589,-162.354,410.4,119.079,
00:00:35:767,0.071,0.137,0.622,-109.864,443.237,50.598,
00:00:35:784,0.14,0.157,0.741,-77.637,454.406,-31.067,
00:00:35:800,0.214,0.197,0.835,-121.399,457.702,-126.343,
00:00:35:817,0.175,0.208,0.884,-135.132,471.008,-173.951,
00:00:35:834,0.115,0.158,0.89,-172.974,441.406,-214.295,
00:00:35:850,0.183,0.186,0.908,-182.373,368.469,-240.052,
00:00:35:867,0.206,0.34,0.99,-81.971,349.182,-240.357,
00:00:35:884,0.277,0.416,1.06,-6.104,330.993,-245.911,
00:00:35:900,0.35,0.296,0.927,-238.465,399.963,-269.715,
00:00:35:917,0.393,0.258,0.794,-219.666,367.92,-256.226,
00:00:35:934,0.392,0.321,0.865,-137.818,356.689,-210.328,
00:00:35:950,0.959,0.76,1.546,92.163,-407.41,29.419,
00:00:35:967,0.12,0.497,1.295,365.539,-221.192,157.531,
00:00:35:984,0.289,0.031,1.073,88.134,-24.842,-25.574,
00:00:36:0,0.374,0.19,0.711,-187.989,-88.746,-153.565,
00:00:36:17,0.371,0.435,0.723,-196.656,-146.79,-177.247,
00:00:36:34,0.392,0.42,0.871,33.813,-191.712,-75.501,
00:00:36:50,0.418,0.537,1.09,54.565,-220.276,41.503,
00:00:36:67,0.549,0.494,1.062,74.096,-130.433,67.382,
00:00:36:84,0.58,0.348,0.543,-113.953,-77.088,-95.826,
00:00:36:100,0.543,0.33,0.586,-85.938,1.098,-93.445,
00:00:36:117,0.632,0.347,0.78,-16.724,-30.335,-41.26,
00:00:36:134,0.669,0.397,0.795,105.163,-29.297,-16.785,
00:00:36:150,0.636,0.351,0.731,89.538,8.117,-43.335,
00:00:36:167,0.535,0.412,0.782,23.498,-22.339,-66.529,
00:00:36:184,0.484,0.43,0.773,53.772,-36.316,-33.753,
00:00:36:200,0.454,0.359,0.794,15.197,-62.317,-31.25,
00:00:36:217,0.439,0.37,0.755,-31.311,-75.867,-69.458,
00:00:36:234,0.443,0.369,0.711,-83.435,-124.817,-112.61,
00:00:36:250,0.464,0.35,0.719,-100.22,-123.841,-134.949,
00:00:36:267,0.453,0.345,0.721,-99.305,-121.399,-137.391,
00:00:36:284,0.52,0.343,0.752,-80.567,-98.633,-130.86,
00:00:36:300,0.544,0.345,0.853,-93.14,-119.263,-113.221,
00:00:36:317,0.598,0.234,0.692,-57.618,-119.019,-99.854,
00:00:36:334,0.612,0.244,0.71,-92.347,-117.31,-94.971,
00:00:36:350,0.6,0.291,0.745,-43.152,-94.422,-79.285,
00:00:36:367,0.584,0.395,0.673,-21.668,-67.81,-48.035,
00:00:36:384,0.582,0.308,0.652,11.352,-34.424,-10.987,
00:00:36:400,0.619,0.43,0.733,119.629,-26.001,34.545,
00:00:36:417,0.634,0.369,0.689,138.244,-24.598,57.556,
00:00:36:434,0.619,0.33,0.657,119.018,-33.448,60.913,
00:00:36:450,0.628,0.398,0.695,84.045,-23.011,56.335,
00:00:36:467,0.668,0.31,0.626,29.357,14.831,-10.071,
00:00:36:484,0.65,0.338,0.638,21.484,-14.832,-20.264,
00:00:36:500,0.623,0.28,0.636,-1.709,-5.799,-28.748,
00:00:36:517,0.603,0.302,0.703,-24.598,-25.452,-31.434,
00:00:36:534,0.584,0.413,0.699,-30.03,-49.561,-57.801,
00:00:36:550,0.452,0.33,0.765,-10.56,-69.275,-78.858,
00:00:36:567,0.391,0.346,0.863,-8.423,-78.553,-72.754,
