TIMECODE,ACC_X,ACC_Y,ACC_Z,GYR_X,GYR_Y,GYR_Z,ECG_I,ECG_II,ECG_III,TAG
,-0.017,-0.5,0.891,-42.298,-24.537,-31.922,0,0,0,
,-0.012,-0.483,0.897,-58.35,-27.955,-28.382,0,0,0,
,-0.015,-0.452,0.898,-58.655,-35.767,-26.429,0,0,0,
,-0.021,-0.449,0.901,-41.565,-42.237,-26.612,0,0,0,
,-0.045,-0.448,0.903,-15.686,-42.481,-26.978,0,0,0,
,-0.065,-0.454,0.903,12.878,-39.978,-23.255,0,0,0,
,-0.065,-0.478,0.902,41.381,-31.739,-11.902,0,0,0,
,-0.066,-0.497,0.904,44.006,-17.334,-6.531,0,0,0,
,-0.069,-0.485,0.896,17.334,-6.043,-7.508,0,0,0,
,-0.064,-0.477,0.902,0.122,3.051,-4.639,0,0,0,
,-0.059,-0.46,0.907,-5.616,16.601,-3.724,0,0,0,
,-0.043,-0.451,0.903,10.009,28.259,1.648,0,0,0,
,-0.02,-0.457,0.902,26.306,35.583,-3.724,0,0,0,
,-0.02,-0.473,0.898,36.315,36.987,-14.832,0,0,0,
,-0.023,-0.483,0.895,36.071,41.565,-25.818,0,0,0,
,-0.024,-0.486,0.895,26.245,45.41,-33.936,0,0,0,
,-0.026,-0.486,0.893,17.089,49.621,-35.767,0,0,0,
,-0.027,-0.476,0.894,10.925,47.851,-35.401,0,0,0,
,-0.029,-0.47,0.897,10.681,45.288,-34.729,0,0,0,
,-0.028,-0.47,0.894,16.784,41.687,-33.509,0,0,0,
,-0.028,-0.476,0.893,26.428,39.245,-30.152,0,0,0,
,-0.018,-0.492,0.887,36.865,37.475,-26.673,0,0,0,
,-0.013,-0.503,0.883,34.301,33.508,-25.635,0,0,0,
,-0.013,-0.507,0.882,22.094,28.137,-29.236,0,0,0,
,-0.018,-0.504,0.882,3.845,21.057,-28.565,0,0,0,
,-0.021,-0.488,0.891,-7.691,19.043,-25.879,0,0,0,
,-0.023,-0.474,0.893,-7.935,12.512,-21.851,0,0,0,
,-0.021,-0.468,0.894,2.075,7.019,-17.701,0,0,0,
,-0.022,-0.473,0.896,16.052,1.586,-17.395,0,0,0,
,-0.021,-0.485,0.89,24.169,-0.794,-18.189,0,0,0,
,-0.018,-0.495,0.887,23.193,-0.55,-21.241,0,0,0,
,-0.016,-0.499,0.884,13.549,-5.799,-24.109,0,0,0,
,-0.015,-0.491,0.889,5.554,-6.958,-25.086,0,0,0,
,-0.015,-0.485,0.89,-0.428,-11.719,-27.405,0,0,0,
,-0.016,-0.479,0.894,-1.526,-16.785,-27.71,0,0,0,
,-0.021,-0.477,0.894,5.371,-20.02,-27.222,0,0,0,
,-0.024,-0.48,0.892,14.221,-25.513,-24.842,0,0,0,
,-0.029,-0.488,0.895,23.01,-27.588,-22.767,0,0,0,
,-0.035,-0.494,0.883,24.902,-27.588,-22.339,0,0,0,
,-0.034,-0.499,0.889,21.85,-28.809,-17.579,0,0,0,
,-0.032,-0.497,0.887,16.418,-28.321,-18.189,0,0,0,
,-0.032,-0.49,0.894,12.146,-26.795,-15.625,0,0,0,
,-0.033,-0.484,0.895,9.46,-25.269,-31.25,0,0,0,
,-0.032,-0.481,0.893,12.268,-27.649,-16.602,0,0,0,
,-0.035,-0.479,0.892,18.676,-26.429,-17.334,0,0,0,
,-0.036,-0.48,0.893,25.39,-25.757,-20.203,0,0,0,
,-0.037,-0.484,0.889,33.203,-24.231,-24.353,0,0,0,
,-0.042,-0.491,0.895,35.217,-21.18,-28.931,0,0,0,
,-0.043,-0.495,0.891,34.484,-16.358,-31.495,0,0,0,
,-0.041,-0.494,0.885,36.254,-13.672,-33.692,0,0,0,
,-0.043,-0.493,0.89,31.005,-12.696,-34.18,0,0,0,
,-0.046,-0.497,0.888,34.118,-9.583,-34.79,0,0,0,
,-0.046,-0.496,0.887,31.494,-7.874,-35.218,0,0,0,
,-0.049,-0.496,0.883,33.142,-2.503,-33.814,0,0,0,
,-0.05,-0.501,0.885,32.592,0.671,-34.424,0,0,0,
,-0.048,-0.51,0.882,27.465,3.356,-33.692,0,0,0,
,-0.047,-0.512,0.879,19.287,4.577,-33.081,0,0,0,
,-0.048,-0.509,0.882,11.413,10.192,-34.852,0,0,0,
,-0.051,-0.504,0.885,3.112,13,-34.241,0,0,0,
,-0.054,-0.497,0.887,1.525,17.456,-34.729,0,0,0,
,-0.052,-0.496,0.885,1.037,22.399,-32.715,0,0,0,
,-0.05,-0.499,0.888,3.845,29.48,-33.936,0,0,0,
,-0.051,-0.502,0.89,2.99,35.705,-35.584,0,0,0,
,-0.049,-0.504,0.887,-0.733,43.762,-36.56,0,0,0,
,-0.047,-0.503,0.89,-7.935,50.598,-40.039,0,0,0,
,-0.047,-0.504,0.888,-15.259,56.396,-39.307,0,0,0,
,-0.047,-0.501,0.882,-21.424,61.706,-37.842,0,0,0,
,-0.043,-0.501,0.884,-23.926,62.927,-36.56,0,0,0,
,-0.048,-0.502,0.885,-26.123,64.148,-32.349,0,0,0,
,-0.045,-0.502,0.885,-28.016,65.979,-27.588,0,0,0,
,-0.043,-0.499,0.889,-31.678,64.758,-22.339,0,0,0,
,-0.034,-0.499,0.882,-30.762,65.49,-18.067,0,0,0,
,-0.025,-0.5,0.884,-36.133,62.011,-13.367,0,0,0,
,-0.021,-0.5,0.881,-41.199,58.044,-10.926,0,0,0,
,-0.016,-0.493,0.883,-47.852,49.621,-9.522,0,0,0,
,-0.013,-0.485,0.886,-46.753,42.297,-7.63,0,0,0,
,-0.013,-0.486,0.888,-42.969,34.729,-1.465,0,0,0,
,-0.016,-0.486,0.889,-38.819,30.151,1.648,0,0,0,
,-0.019,-0.489,0.895,-36.866,24.353,7.507,0,0,0,
,-0.022,-0.49,0.886,-36.744,22.583,12.695,0,0,0,
,-0.023,-0.499,0.89,-44.129,22.766,20.324,0,0,0,
,-0.021,-0.499,0.893,-59.144,22.766,23.254,0,0,0,
,-0.023,-0.492,0.895,-73.121,29.663,28.015,0,0,0,
,-0.022,-0.485,0.902,-87.464,31.677,32.898,0,0,0,
,-0.016,-0.473,0.908,-97.718,36.438,39.306,0,0,0,
,-0.013,-0.461,0.907,-100.464,39.55,44.189,0,0,0,
,-0.009,-0.453,0.905,-99.793,39.917,46.447,0,0,0,
,-0.006,-0.453,0.908,-100.403,39.856,45.837,0,0,0,
,0.001,-0.411,0.906,-105.347,38.94,37.475,0,0,0,
,0.011,-0.413,0.911,-98.999,28.076,29.541,0,0,0,
,0.019,-0.394,0.922,-77.393,12.207,19.531,0,0,0,
,0.026,-0.384,0.918,-38.941,-4.944,10.986,0,0,0,
,0.026,-0.39,0.915,-0.428,-20.569,3.234,0,0,0,
,0.019,-0.41,0.91,30.029,-36.805,-10.621,0,0,0,
,0.007,-0.437,0.91,40.588,-43.702,-18.921,0,0,0,
,-0.007,-0.45,0.913,38.024,-47.12,-23.194,0,0,0,
,-0.016,-0.451,0.911,27.954,-39.795,-21.729,0,0,0,
,-0.015,-0.451,0.913,20.752,-36.011,-16.358,0,0,0,
,-0.013,-0.445,0.918,12.817,-26.795,-13.245,0,0,0,
,-0.014,-0.446,0.917,9.46,-21.18,-13.123,0,0,0,
,-0.009,-0.439,0.921,8.056,-15.748,-12.635,0,0,0,
,-0.008,-0.436,0.914,9.277,-10.437,-17.456,0,0,0,
,-0.009,-0.43,0.918,14.526,-6.348,-25.513,0,0,0,
,-0.015,-0.433,0.923,20.813,-2.442,-32.288,0,0,0,
,-0.015,-0.438,0.917,26.245,1.831,-35.279,0,0,0,
,-0.015,-0.438,0.912,29.174,9.887,-40.162,0,0,0,
,-0.015,-0.439,0.914,28.137,13.549,-44.19,0,0,0,
,-0.019,-0.439,0.911,30.578,18.798,-51.209,0,0,0,
,-0.018,-0.436,0.917,33.447,22.644,-54.261,0,0,0,
,-0.015,-0.44,0.912,37.597,25.878,-56.458,0,0,0,
,-0.012,-0.442,0.91,43.09,26.672,-61.951,0,0,0,
,-0.008,-0.445,0.913,48.767,27.404,-64.515,0,0,0,
,-0.013,-0.444,0.911,48.523,28.381,-68.238,0,0,0,
,-0.012,-0.449,0.91,53.588,27.832,-68.97,0,0,0,
,-0.012,-0.454,0.906,55.481,29.235,-70.74,0,0,0,
,-0.004,-0.455,0.906,58.593,28.503,-72.632,0,0,0,
,0,-0.451,0.906,59.875,27.343,-75.867,0,0,0,
,0.001,-0.459,0.903,68.725,23.559,-76.844,0,0,0,
,-0.005,-0.468,0.9,68.176,21.789,-77.82,0,0,0,
,-0.016,-0.473,0.897,69.763,15.014,-78.064,0,0,0,
,-0.018,-0.483,0.893,66.04,12.39,-77.271,0,0,0,
,-0.022,-0.488,0.889,53.833,5.31,-77.088,0,0,0,
,-0.036,-0.491,0.888,46.264,-1.404,-74.158,0,0,0,
,-0.036,-0.496,0.881,39.184,-5.616,-68.116,0,0,0,
,-0.028,-0.492,0.887,29.113,-12.635,-62.317,0,0,0,
,-0.022,-0.485,0.889,25.268,-25.757,-59.693,0,0,0,
,-0.011,-0.482,0.887,26.367,-33.448,-56.763,0,0,0,
,-0.008,-0.477,0.889,31.005,-44.861,-55.115,0,0,0,
,-0.015,-0.484,0.888,36.926,-51.392,-55.664,0,0,0,
,-0.02,-0.491,0.884,36.987,-56.58,-54.688,0,0,0,
,-0.028,-0.497,0.886,34.729,-64.393,-53.101,0,0,0,
,-0.038,-0.495,0.88,26.062,-63.111,-52.185,0,0,0,
,-0.048,-0.485,0.895,20.996,-66.346,-49.744,0,0,0,
,-0.057,-0.486,0.896,25.39,-62.5,-43.946,0,0,0,
,-0.094,-0.489,0.897,27.648,-57.19,-36.316,0,0,0,
,-0.065,-0.494,0.897,22.888,-44.678,-34.729,0,0,0,
,-0.066,-0.499,0.893,14.404,-32.715,-31.617,0,0,0,
,-0.064,-0.495,0.899,-0.733,-17.334,-34.302,0,0,0,
,-0.06,-0.482,0.901,-4.029,-7.874,-36.866,0,0,0,
,-0.058,-0.476,0.903,-0.245,-0.794,-38.514,0,0,0,
,-0.06,-0.473,0.897,6.103,6.347,-40.65,0,0,0,
,-0.063,-0.48,0.9,12.329,16.967,-43.946,0,0,0,
,-0.062,-0.494,0.892,6.225,28.442,-44.983,0,0,0,
,-0.059,-0.497,0.89,3.173,36.804,-42.298,0,0,0,
,-0.058,-0.497,0.886,-3.357,41.809,-41.26,0,0,0,
,-0.059,-0.496,0.891,-11.719,45.593,-34.729,0,0,0,
,-0.057,-0.496,0.895,-16.175,52.734,-30.945,0,0,0,
,-0.049,-0.489,0.892,-22.95,57.067,-28.992,0,0,0,
,-0.043,-0.484,0.893,-26.429,57.739,-26.551,0,0,0,
,-0.043,-0.481,0.895,-24.048,59.997,-24.842,0,0,0,
,-0.041,-0.482,0.893,-18.616,60.73,-21.607,0,0,0,
,-0.041,-0.488,0.89,-17.395,58.96,-20.081,0,0,0,
,-0.048,-0.492,0.893,-19.654,58.776,-15.198,0,0,0,
,-0.046,-0.491,0.895,-25.757,60.974,-10.804,0,0,0,
,-0.042,-0.483,0.895,-29.175,62.988,-6.409,0,0,0,
,-0.039,-0.482,0.895,-30.396,62.133,-3.296,0,0,0,
,-0.041,-0.481,0.896,-31.311,59.387,0.854,0,0,0,
,-0.038,-0.473,0.894,-31.434,57.434,5.798,0,0,0,
,-0.024,-0.471,0.894,-30.579,50.048,9.46,0,0,0,
,-0.014,-0.467,0.898,-25.818,43.945,9.521,0,0,0,
,-0.005,-0.464,0.895,-20.386,33.752,7.995,0,0,0,
,-0.005,-0.456,0.9,-12.513,22.277,3.234,0,0,0,
,-0.007,-0.456,0.9,-0.245,10.498,2.075,0,0,0,
,-0.007,-0.459,0.9,10.192,8.483,1.77,0,0,0,
,-0.015,-0.464,0.896,14.953,1.342,-0.794,0,0,0,
,-0.016,-0.467,0.897,18.005,-2.93,-2.442,0,0,0,
,-0.023,-0.471,0.899,15.014,-3.418,-2.869,0,0,0,
,-0.026,-0.473,0.901,12.939,-2.686,-3.785,0,0,0,
,-0.026,-0.475,0.901,9.277,-0.977,-3.235,0,0,0,
,-0.022,-0.475,0.901,6.713,0.854,-2.381,0,0,0,
,-0.018,-0.474,0.9,2.685,2.563,-4.456,0,0,0,
,-0.019,-0.474,0.9,1.159,0.366,-4.334,0,0,0,
,-0.018,-0.473,0.897,-1.404,2.441,-7.142,0,0,0,
,-0.021,-0.474,0.902,-5.677,3.54,-7.935,0,0,0,
,-0.023,-0.471,0.903,-8.789,6.347,-6.47,0,0,0,
,-0.021,-0.468,0.902,-9.583,5.798,-6.714,0,0,0,
,-0.024,-0.469,0.9,-7.813,7.385,-7.325,0,0,0,
,-0.024,-0.469,0.898,-12.269,6.836,-7.813,0,0,0,
,-0.023,-0.465,0.901,-11.231,6.042,-7.691,0,0,0,
,-0.028,-0.459,0.903,-4.151,8.422,-7.081,0,0,0,
,-0.03,-0.46,0.904,1.403,11.169,-5.433,0,0,0,
,-0.024,-0.47,0.908,5.127,16.357,-3.785,0,0,0,
,-0.025,-0.473,0.901,0.427,19.226,-3.418,0,0,0,
,-0.02,-0.475,0.903,-6.47,22.094,-5.616,0,0,0,
,-0.017,-0.471,0.898,-13.672,23.315,-9.095,0,0,0,
,-0.015,-0.466,0.898,-16.907,22.888,-11.414,0,0,0,
,-0.014,-0.458,0.9,-19.532,23.559,-15.686,0,0,0,
,-0.017,-0.456,0.911,-14.893,21.667,-16.663,0,0,0,
,-0.018,-0.456,0.914,-7.691,24.841,-16.236,0,0,0,
,-0.015,-0.462,0.903,-6.592,26.855,-16.236,0,0,0,
,-0.014,-0.462,0.902,-11.902,28.503,-18.006,0,0,0,
,-0.014,-0.467,0.905,-17.701,27.343,-21.058,0,0,0,
,-0.013,-0.461,0.906,-18.433,28.442,-21.241,0,0,0,
,-0.016,-0.456,0.899,-23.255,33.386,-18.982,0,0,0,
,-0.01,-0.46,0.901,-19.165,32.653,-18.738,0,0,0,
,-0.006,-0.468,0.901,-26.429,33.813,-20.264,0,0,0,
,-0.01,-0.478,0.908,-43.702,43.335,-24.72,0,0,0,
,-0.022,-0.488,0.909,-76.905,60.241,-32.166,0,0,0,
,-0.027,-0.498,0.911,-113.465,87.707,-42.481,0,0,0,
,-0.047,-0.517,0.941,-157.166,142.273,-62.256,0,0,0,
,-0.082,-0.484,0.975,-233.46,233.764,-93.018,0,0,0,
,-0.129,-0.433,1.03,-313.416,374.878,-136.597,0,0,0,
,-0.13,-0.359,1.092,-387.879,556.274,-172.547,0,0,0,
,-0.064,-0.284,1.135,-448.975,765.686,-180.359,0,0,0,
,0.086,-0.307,1.109,-404.114,865.661,-133.912,0,0,0,
,0.17,-0.216,1.146,-377.32,799.194,-99.549,0,0,0,
,0.177,-0.222,1.329,-296.143,714.477,-180.664,0,0,0,
,0.372,-0.464,1.814,-333.619,780.212,-144.165,0,0,0,
,0.689,-0.62,1.957,-663.269,666.32,-115.601,0,0,0,
,0.412,-0.43,1.938,-756.653,304.077,-202.82,0,0,0,
,0.339,-0.215,1.822,-413.88,257.08,-239.808,0,0,0,
,0.468,-0.1,1.805,210.571,159.057,-133.789,0,0,0,
,0.71,-0.526,1.942,495.727,11.169,-341.004,0,0,0,
,0.869,-0.941,2.287,228.21,-360.23,-460.022,0,0,0,
,0.946,-1.04,2.508,-199.097,-770.813,-501.038,0,0,0,
,1.009,-0.893,2.452,-611.268,-1188.721,-581.299,0,0,0,
,1.059,-0.628,2.223,-810.852,-1560.059,-655.213,0,0,0,
,1.175,-0.461,2.036,-780.091,-1904.48,-667.176,0,0,0,
,1.284,-0.372,1.627,-538.697,-2000,-636.719,0,0,0,
,1.331,-0.364,1.189,-332.398,-2000,-613.465,0,0,0,
,1.321,-0.443,0.687,-240.54,-2000,-590.21,0,0,0,
,1.227,-0.426,0.296,-223.023,-2000,-511.353,0,0,0,
,1.084,-0.325,-0.142,-237.183,-2000,-439.393,0,0,0,
,0.96,-0.238,-0.469,-208.619,-2000,-384.766,0,0,0,
,0.798,-0.148,-0.666,-122.071,-2000,-367.981,0,0,0,
,0.523,-0.053,-0.76,13,-2000,-410.523,0,0,0,
,0.326,0.001,-0.961,45.532,-2000,-510.56,0,0,0,
,0.263,0.018,-1.134,52.673,-2000,-567.566,0,0,0,
,0.1,0.039,-1.196,35.034,-2000,-655.945,0,0,0,
,-0.233,-0.027,-1.258,-61.341,-1887.818,-721.314,0,0,0,
,-0.465,-0.055,-1.341,-293.763,-1254.029,-677.735,0,0,0,
,-0.513,0.073,-1.433,-510.682,-661.133,-572.449,0,0,0,
,-0.568,0.276,-1.472,-585.328,-116.272,-529.602,0,0,0,
,-0.612,0.321,-1.411,-618.836,371.643,-491.944,0,0,0,
,-0.61,0.315,-1.281,-668.457,768.432,-418.519,0,0,0,
,-0.564,0.367,-1.095,-674.5,1122.558,-346.68,0,0,0,
,-0.507,0.412,-0.874,-624.085,1335.876,-251.831,0,0,0,
,-0.501,0.45,-0.663,-448.853,1518.432,-159.18,0,0,0,
,-0.535,0.408,-0.422,-248.963,1720.581,-69.397,0,0,0,
,-0.528,0.333,-0.248,-88.929,1889.892,33.508,0,0,0,
,-0.501,0.27,-0.042,73.12,1940.551,159.301,0,0,0,
,-0.555,0.232,0.154,234.68,1945.556,258.789,0,0,0,
,-0.609,0.194,0.28,381.286,1929.077,334.228,0,0,0,
,-0.589,0.095,0.459,492.675,1882.995,414.917,0,0,0,
,-0.545,-0.04,0.732,560.669,1829.528,482.849,0,0,0,
,-0.49,-0.194,0.922,562.927,1737.487,531.128,0,0,0,
,-0.472,-0.257,0.973,478.088,1602.722,558.593,0,0,0,
,-0.453,-0.246,0.928,401.184,1465.393,541.748,0,0,0,
,-0.457,-0.192,0.908,414.734,1358.154,490.783,0,0,0,
,-0.43,-0.185,0.975,464.05,1286.926,431.823,0,0,0,
,-0.349,-0.242,1.046,463.928,1199.035,357.544,0,0,0,
,-0.297,-0.325,1.139,417.663,1073.547,280.517,0,0,0,
,-0.286,-0.443,1.178,330.749,944.458,219.665,0,0,0,
,-0.308,-0.483,1.193,246.154,829.223,173.523,0,0,0,
,-0.316,-0.415,1.25,168.518,760.192,148.071,0,0,0,
,-0.277,-0.32,1.279,175.964,713.745,132.324,0,0,0,
,-0.255,-0.304,1.226,239.685,655.029,115.112,0,0,0,
,-0.253,-0.301,1.224,277.832,599.609,85.815,0,0,0,
,-0.284,-0.306,1.212,316.833,569.946,69.091,0,0,0,
,-0.246,-0.308,1.177,369.995,538.33,68.725,0,0,0,
,-0.212,-0.32,1.118,443.481,495.483,67.627,0,0,0,
,-0.203,-0.346,1.066,483.703,462.28,71.533,0,0,0,
,-0.207,-0.382,1.078,468.444,456.176,69.274,0,0,0,
,-0.174,-0.413,1.126,391.601,466.98,70.922,0,0,0,
,-0.114,-0.412,1.118,324.89,458.13,76.11,0,0,0,
,-0.08,-0.382,1.07,276.245,425.781,71.777,0,0,0,
,-0.08,-0.362,1.045,226.379,390.625,61.828,0,0,0,
,-0.083,-0.34,1.048,184.997,367.431,54.138,0,0,0,
,-0.068,-0.347,1.072,170.776,351.013,66.955,0,0,0,
,-0.031,-0.386,1.061,172.241,337.341,83.862,0,0,0,
,-0.013,-0.393,1.034,161.804,309.265,90.454,0,0,0,
,-0.014,-0.36,1.044,156.128,289.245,97.168,0,0,0,
,-0.002,-0.339,1.07,198.303,285.034,106.567,0,0,0,
,0.025,-0.396,1.074,244.934,288.147,109.68,0,0,0,
,0.05,-0.455,1.073,227.722,267.395,104.065,0,0,0,
,0.059,-0.449,1.095,176.086,240.722,92.346,0,0,0,
,0.069,-0.406,1.106,147.338,215.088,84.899,0,0,0,
,0.056,-0.398,1.104,139.587,191.955,73.181,0,0,0,
,0.048,-0.4,1.084,139.831,179.016,71.167,0,0,0,
,0.052,-0.41,1.054,118.896,170.776,73.73,0,0,0,
,0.048,-0.408,1.036,84.289,158.203,76.355,0,0,0,
,0.05,-0.406,1.007,41.565,149.475,87.585,0,0,0,
,0.031,-0.394,0.988,27.099,143.432,98.449,0,0,0,
,0.085,-0.421,0.96,36.071,147.522,110.901,0,0,0,
,0.129,-0.418,0.953,40.832,131.225,112.487,0,0,0,
,0.139,-0.448,0.947,-0.672,104.98,102.783,0,0,0,
,0.112,-0.394,0.875,3.54,103.759,99.853,0,0,0,
,0.148,-0.364,0.923,39.306,102.966,96.679,0,0,0,
,0.183,-0.448,0.916,17.517,70.068,55.236,0,0,0,
,0.191,-0.455,0.877,-12.33,42.236,-20.63,0,0,0,
,0.098,-0.411,0.855,15.625,4.943,7.995,0,0,0,
,0.064,-0.398,0.827,37.17,34.057,2.136,0,0,0,
,0.086,-0.454,0.879,63.537,49.133,-4.212,0,0,0,
,0.121,-0.564,1.048,93.322,-0.061,-44.19,0,0,0,
,0.12,-0.656,1.159,77.026,-88.013,-85.267,0,0,0,
,0.047,-0.627,1.11,-3.54,-135.376,-91.614,0,0,0,
,-0.018,-0.499,0.996,-55.787,-108.277,-57.984,0,0,0,
,-0.022,-0.396,0.918,-18.311,-59.571,-25.635,0,0,0,
,0.011,-0.358,0.899,79.895,-42.298,-22.034,0,0,0,
,0.056,-0.36,0.908,167.907,-55.237,-39.063,0,0,0,
,0.073,-0.388,0.922,228.271,-68.116,-49.683,0,0,0,
,0.073,-0.449,0.916,246.276,-67.933,-50.049,0,0,0,
,0.078,-0.526,0.903,207.153,-60.486,-53.406,0,0,0,
,0.079,-0.581,0.875,163.94,-44.8,-54.139,0,0,0,
,0.077,-0.602,0.853,92.529,-35.828,-56.336,0,0,0,
,0.065,-0.588,0.832,16.174,-31.739,-59.082,0,0,0,
,0.052,-0.558,0.853,-44.739,-24.903,-60.059,0,0,0,
,0.045,-0.523,0.878,-86.853,-17.701,-61.341,0,0,0,
,0.042,-0.495,0.888,-102.478,-14.466,-53.345,0,0,0,
,0.038,-0.478,0.89,-90.271,-11.963,-44.861,0,0,0,
,0.022,-0.481,0.92,-80.75,-2.32,-44.251,0,0,0,
,0.014,-0.495,0.922,-83.252,17.578,-50.049,0,0,0,
,0.017,-0.473,0.938,-110.474,42.358,-60.303,0,0,0,
,0.018,-0.454,0.959,-119.324,59.936,-71.778,0,0,0,
,0.028,-0.432,0.942,-102.356,75.5,-72.632,0,0,0,
,0.033,-0.436,0.945,-82.032,88.012,-70.313,0,0,0,
,0.035,-0.464,0.944,-71.289,97.656,-64.209,0,0,0,
,0.047,-0.472,0.946,-60.242,100.158,-59.388,0,0,0,
,0.054,-0.467,0.962,-45.777,104.248,-60.547,0,0,0,
,0.047,-0.441,0.976,0.427,98.877,-72.022,0,0,0,
,0.032,-0.415,1.014,87.524,91.857,-90.455,0,0,0,
,0.021,-0.447,1.062,217.041,87.097,-109.009,0,0,0,
,0.015,-0.519,1.091,357.422,62.744,-126.893,0,0,0,
,-0.016,-0.598,1.129,438.659,8.544,-124.634,0,0,0,
,-0.099,-0.681,1.132,415.1,-73.609,-152.405,0,0,0,
,-0.145,-0.857,1.111,268.615,-105.042,-129.7,0,0,0,
,-0.188,-0.862,1.045,0.915,-144.41,-126.648,0,0,0,
,-0.212,-0.701,0.987,-152.894,-167.359,-243.042,0,0,0,
,-0.263,-0.562,0.923,-67.688,-182.618,-332.459,0,0,0,
,-0.272,-0.595,0.889,111.999,-156.067,-456.727,0,0,0,
,-0.245,-0.701,0.86,158.264,-161.622,-588.685,0,0,0,
,-0.242,-0.797,0.846,44.494,-192.749,-696.656,0,0,0,
,-0.246,-0.819,0.836,-128.479,-220.887,-763.855,0,0,0,
,-0.238,-0.742,0.804,-264.405,-232.056,-779.48,0,0,0,
,-0.238,-0.641,0.785,-313.05,-232.727,-780.335,0,0,0,
,-0.24,-0.544,0.741,-299.012,-212.586,-775.757,0,0,0,
,-0.235,-0.469,0.691,-248.23,-177.185,-764.466,0,0,0,
,-0.227,-0.389,0.656,-214.234,-136.536,-745.057,0,0,0,
,-0.224,-0.308,0.617,-203.37,-90.699,-719.666,0,0,0,
,-0.228,-0.244,0.595,-208.374,-28.199,-678.528,0,0,0,
,-0.215,-0.208,0.574,-211.853,43.029,-597.779,0,0,0,
,-0.182,-0.197,0.572,-264.832,124.023,-515.259,0,0,0,
,-0.14,-0.189,0.572,-404.236,231.079,-429.627,0,0,0,
,-0.07,-0.185,0.635,-619.08,329.284,-331.91,0,0,0,
,0.004,-0.193,0.713,-834.839,433.349,-221.009,0,0,0,
,0.094,-0.184,0.833,-897.583,578.247,-146.18,0,0,0,
,0.19,-0.146,0.869,-733.887,691.04,-78.98,0,0,0,
,0.258,-0.076,0.83,-486.268,718.017,-40.039,0,0,0,
,0.283,-0.126,0.759,-249.939,686.889,-20.874,0,0,0,
,0.273,-0.188,0.753,-91.126,616.333,-18.25,0,0,0,
,0.263,-0.232,0.83,-30.457,516.113,12.207,0,0,0,
,0.243,-0.248,0.9,-76.783,445.678,43.762,0,0,0,
,0.223,-0.219,0.99,-104.065,367.37,74.523,0,0,0,
,0.187,-0.145,1.01,-80.506,300.598,102.111,0,0,0,
,0.144,-0.123,1.012,-35.157,258.728,121.948,0,0,0,
,0.132,-0.141,1.013,-39.368,242.309,143.066,0,0,0,
,0.127,-0.171,1.057,-16.541,203.674,151.672,0,0,0,
,0.136,-0.21,1.081,61.035,194.946,148.681,0,0,0,
,0.187,-0.18,1.087,167.846,193.725,131.042,0,0,0,
,0.176,-0.158,1.065,235.901,229.492,62.5,0,0,0,
,0.155,-0.23,0.965,204.651,273.864,2.563,0,0,0,
,0.142,-0.323,0.888,67.627,266.601,-12.391,0,0,0,
,0.212,-0.424,0.983,-0.184,210.571,-36.072,0,0,0,
,0.358,-0.471,1.361,-62.256,4.333,-4.517,0,0,0,
,0.374,-0.579,1.362,-249.39,-188.294,-97.718,0,0,0,
,0.137,-0.444,1.221,-446.412,-196.473,-89.722,0,0,0,
,0.062,-0.218,1.145,-270.691,-97.413,-49.012,0,0,0,
,0.068,-0.1,1.114,17.028,-43.885,-11.719,0,0,0,
,0.057,-0.115,1.053,137.085,-32.288,-4.212,0,0,0,
,0.075,-0.222,0.999,80.322,-5.188,-30.152,0,0,0,
,0.083,-0.337,0.887,-108.643,19.897,-54.444,0,0,0,
,0.067,-0.249,0.855,-280.762,4.638,-19.654,0,0,0,
,0.061,-0.057,0.842,-214.844,12.39,-12.513,0,0,0,
,0.107,-0.095,0.826,-25.208,41.32,-11.902,0,0,0,
,0.155,-0.249,0.915,-48.523,36.682,-47.425,0,0,0,
,0.176,-0.392,1.093,-266.114,-42.725,-130.433,0,0,0,
,0.333,0.002,0.961,52.185,-49.5,-73.67,0,0,0,
,0.303,-0.18,0.929,102.234,-72.693,-121.155,0,0,0,
,0.218,-0.133,0.892,0.61,-55.787,-86.121,0,0,0,
,0.21,-0.021,0.873,4.577,-51.026,-62.745,0,0,0,
,0.197,-0.106,0.838,75.927,-24.17,-71.717,0,0,0,
,0.142,-0.141,0.79,66.955,10.376,-85.022,0,0,0,
,0.072,-0.107,0.828,82.275,21.057,-99.793,0,0,0,
,0.025,-0.158,0.996,70.678,12.085,-107.178,0,0,0,
,-0.065,-0.197,1.114,-79.895,-36.438,-92.102,0,0,0,
,-0.192,-0.107,1.152,-154.175,-67.688,-54.688,0,0,0,
,-0.187,-0.032,1.165,-96.253,-72.693,13.855,0,0,0,
,-0.17,-0.119,1.116,122.314,21.484,57.556,0,0,0,
,-0.15,0.011,1.145,20.813,15.564,98.205,0,0,0,
,-0.123,-0.015,1.183,67.016,18.31,5.065,0,0,0,
,-0.063,-0.058,1.243,104.065,37.963,-86.243,0,0,0,
,0.001,0.044,1.287,212.219,60.607,-125,0,0,0,
,0.079,0.263,1.275,466.43,116.333,-170.96,0,0,0,
,0.254,-0.139,1.164,799.438,214.965,-375.611,0,0,0,
,0.214,-0.865,0.842,326.965,164.123,-388.367,0,0,0,
,0.07,-0.68,0.797,-303.284,36.621,-180.237,0,0,0,
,0.053,-0.026,0.76,-358.216,-45.472,-28.016,0,0,0,
,0.064,0.139,0.893,-99.976,-125.245,52.246,0,0,0,
,0.021,-0.208,0.979,-12.757,-153.199,-47.059,0,0,0,
,-0.005,-0.387,0.962,-183.106,-140.198,41.748,0,0,0,
,-0.058,-0.209,0.89,-300.171,-152.222,132.751,0,0,0,
,-0.124,-0.084,0.866,-181.214,-140.87,206.604,0,0,0,
,-0.126,-0.16,0.87,-0.916,-98.206,199.89,0,0,0,
,-0.103,-0.193,0.917,-51.697,-92.53,189.636,0,0,0,
,-0.113,-0.093,0.936,-200.867,-52.124,198.669,0,0,0,
,-0.08,-0.188,0.869,34.668,188.354,114.563,0,0,0,
,0.04,-0.256,0.792,-125.55,247.802,103.637,0,0,0,
,0.035,-0.084,0.842,-181.275,232.483,91.308,0,0,0,
,0.058,-0.092,0.862,-82.459,266.296,43.945,0,0,0,
,0.077,-0.183,0.852,80.505,323.181,26.062,0,0,0,
,0.26,-0.306,0.798,-177.063,351.135,-7.325,0,0,0,
,0.448,-0.202,1.094,-352.967,173.645,9.399,0,0,0,
,0.44,-0.076,1.106,-410.218,19.47,-0.184,0,0,0,
,0.244,-0.065,1.068,-261.597,10.131,-68.604,0,0,0,
,0.091,-0.172,0.991,-176.514,66.528,-60.73,0,0,0,
,0.14,-0.202,0.925,-166.748,109.863,-69.336,0,0,0,
,0.19,-0.204,0.929,-186.585,89.416,-90.943,0,0,0,
,0.153,-0.097,0.979,-200.257,62.133,-92.286,0,0,0,
,0.105,0.075,1.026,-168.641,73.913,-68.177,0,0,0,
,0.082,0.211,1.089,-68.116,90.332,-67.933,0,0,0,
,0.063,0.132,1.118,-13.001,80.932,-74.891,0,0,0,
,0.049,-0.014,1.164,-39.978,64.636,-49.683,0,0,0,
,0.028,-0.027,1.184,-89.295,17.273,0.183,0,0,0,
,0.019,-0.034,1.184,-91.614,0.305,9.704,0,0,0,
,0.029,0,1.13,-77.942,-20.142,48.217,0,0,0,
,0.043,0.009,1.081,-58.045,-45.655,56.579,0,0,0,
,0.046,-0.006,1.078,-47.425,-72.937,72.387,0,0,0,
,0.029,0.023,1.088,-81.971,-106.507,92.59,0,0,0,
,-0.037,0.068,1.039,-25.086,-97.962,135.498,0,0,0,
,-0.031,0.048,0.998,-11.231,-79.346,137.329,0,0,0,
,0.013,0.021,0.999,-35.95,-69.214,128.662,0,0,0,
,0.045,0.059,0.989,-66.163,-49.317,141.601,0,0,0,
,0.02,0.053,0.971,-86.731,-32.776,148.315,0,0,0,
,0.02,0.037,0.935,-58.533,-11.353,142.7,0,0,0,
,0.079,0.042,0.937,-30.396,10.803,130.981,0,0,0,
,0.13,-0.019,0.941,-10.437,34.606,117.859,0,0,0,
,0.154,0.049,0.853,-17.029,60.302,141.662,0,0,0,
,0.13,0.141,0.754,41.809,87.768,147.4,0,0,0,
,0.079,0.154,0.722,175.842,138.305,145.019,0,0,0,
,0.12,0.079,0.71,275.879,207.214,136.596,0,0,0,
,0.214,-0.036,0.81,343.444,257.812,144.592,0,0,0,
,0.292,-0.17,0.87,354.492,274.414,142.517,0,0,0,
,0.401,-0.212,0.959,322.265,241.455,134.521,0,0,0,
,0.451,-0.173,0.998,307.556,188.964,129.821,0,0,0,
,0.538,-0.228,1.347,294.677,33.813,88.562,0,0,0,
,0.576,-0.415,1.4,171.325,-70.801,23.498,0,0,0,
,0.35,-0.234,1.041,-38.88,-86.67,85.266,0,0,0,
,0.267,-0.036,0.911,36.987,-57.068,52.673,0,0,0,
,0.32,-0.176,0.839,152.71,-12.757,-8.606,0,0,0,
,0.372,-0.248,0.811,62.255,5.127,-46.631,0,0,0,
,0.392,-0.156,0.884,-37.781,1.648,-52.796,0,0,0,
,0.341,-0.087,0.944,-102.051,-2.015,-74.891,0,0,0,
,0.379,-0.038,1.047,-54.505,3.54,-107.85,0,0,0,
,0.327,-0.141,1.063,-48.829,-7.691,-129.456,0,0,0,
,0.298,-0.157,1.101,-141.541,-3.907,-195.618,0,0,0,
,0.286,-0.095,1.075,-94.361,-35.889,-174.012,0,0,0,
,0.258,-0.213,1.111,-199.524,-78.064,-221.07,0,0,0,
,0.217,-0.144,1.073,-358.033,-93.262,-210.083,0,0,0,
,0.129,-0.007,1.002,-370.972,-58.533,-180.726,0,0,0,
,0.053,0.012,0.991,-282.349,-1.648,-176.148,0,0,0,
,0.056,-0.01,0.979,-245.057,38.208,-187.195,0,0,0,
,0.054,0.041,0.962,-221.497,66.772,-144.593,0,0,0,
,0.064,0.038,0.955,-247.559,100.219,-120.362,0,0,0,
,0.087,0.08,0.919,-147.889,143.066,-115.967,0,0,0,
,0.103,0.052,0.921,-102.173,166.687,-110.291,0,0,0,
,0.117,0.023,0.956,-129.334,164.367,-111.878,0,0,0,
,0.134,-0.019,0.931,-153.748,158.264,-94.91,0,0,0,
,0.135,0.003,0.93,-159.79,129.699,-72.388,0,0,0,
,0.162,-0.026,0.874,-185.791,109.253,-33.204,0,0,0,
,0.184,0.048,0.859,-203.553,70.617,-27.588,0,0,0,
,0.16,0.135,0.9,-154.969,42.602,-35.279,0,0,0,
,0.175,0.064,0.948,-81.727,42.297,-44.495,0,0,0,
,0.208,0.016,0.99,-55.603,29.785,-26.368,0,0,0,
,0.196,0.008,0.997,-51.392,15.441,-28.26,0,0,0,
,0.183,0.03,0.968,-47.425,9.582,-22.522,0,0,0,
,0.203,0.08,0.946,-42.969,6.774,-14.405,0,0,0,
,0.215,0.123,0.963,-38.392,-6.592,-17.334,0,0,0,
,0.202,0.116,0.969,-22.583,0,-27.955,0,0,0,
,0.208,0.106,0.959,-8.728,14.465,-39.429,0,0,0,
,0.219,0.085,0.978,-6.897,26.062,-50.843,0,0,0,
,0.215,0.072,0.975,-9.217,26.977,-50.538,0,0,0,
,0.21,0.062,0.978,-11.231,31.799,-56.763,0,0,0,
,0.194,0.085,0.961,-15.87,32.165,-54.749,0,0,0,
,0.19,0.102,0.938,3.112,38.94,-64.698,0,0,0,
,0.186,0.111,0.963,22.216,40.71,-69.092,0,0,0,
,0.191,0.118,0.964,47.546,45.044,-70.923,0,0,0,
,0.219,0.069,0.969,64.575,44.25,-72.327,0,0,0,
,0.213,0.031,0.979,55.236,34.973,-73.06,0,0,0,
,0.22,0.031,0.988,36.438,24.475,-66.407,0,0,0,
,0.218,0.037,0.958,30.029,14.648,-69.458,0,0,0,
,0.201,0.055,0.963,21.179,2.563,-74.036,0,0,0,
,0.203,0.066,0.971,26.977,-4.7,-69.214,0,0,0,
,0.204,0.041,0.981,35.095,-10.926,-71.961,0,0,0,
,0.21,0.011,0.996,6.408,-21.302,-65.979,0,0,0,
,0.194,0.05,0.992,3.356,-31.983,-62.195,0,0,0,
,0.196,0.067,0.957,12.939,-32.776,-62.806,0,0,0,
,0.185,0.046,0.945,25.024,-29.175,-62.134,0,0,0,
,0.166,0.069,0.94,33.935,-19.165,-56.885,0,0,0,
,0.179,0.065,0.936,54.016,-11.963,-59.205,0,0,0,
,0.192,0.016,0.941,60.546,-3.296,-59.876,0,0,0,
,0.192,0.014,0.952,44.86,-3.968,-54.017,0,0,0,
,0.199,0.041,0.957,53.711,-2.869,-48.768,0,0,0,
,0.222,0.038,0.973,55.297,-9.217,-45.044,0,0,0,
,0.243,0.037,0.991,85.022,-16.114,-40.467,0,0,0,
,0.254,-0.025,1.002,106.262,-25.391,-47.974,0,0,0,
,0.282,-0.054,1.034,100.525,-36.56,-53.528,0,0,0,
,0.305,-0.016,1.083,87.768,-55.176,-60.547,0,0,0,
,0.334,0.03,1.096,114.196,-83.191,-71.534,0,0,0,
,0.347,0.049,1.11,149.841,-116.517,-101.685,0,0,0,
,0.33,0.044,1.097,158.569,-156.495,-135.315,0,0,0,
,0.288,0.049,1.127,171.936,-207.337,-168.946,0,0,0,
,0.236,-0.018,1.108,178.222,-246.094,-185.059,0,0,0,
,0.166,-0.037,1.088,131.958,-323.67,-192.627,0,0,0,
,0.024,-0.032,1.057,87.707,-353.638,-182.801,0,0,0,
,-0.107,0.02,1.018,102.417,-339.539,-123.108,0,0,0,
,-0.199,0.136,1.066,114.074,-361.939,-68.36,0,0,0,
,-0.185,0.099,1.033,93.933,-372.071,-75.257,0,0,0,
,-0.343,0.129,0.997,23.803,-394.104,-15.87,0,0,0,
,-0.355,0.238,0.979,23.498,-402.222,35.217,0,0,0,
,-0.432,0.178,0.959,93.566,-344.788,49.804,0,0,0,
,-0.396,0.074,0.887,118.042,-258.179,60.302,0,0,0,
,-0.367,0.063,0.818,46.081,-179.932,95.214,0,0,0,
,-0.352,0.119,0.805,23.864,-93.689,125.61,0,0,0,
,-0.316,0.113,0.792,73.425,-12.024,151.489,0,0,0,
,-0.287,0.112,0.782,112.304,42.724,182.861,0,0,0,
,-0.257,0.094,0.79,161.255,101.562,209.228,0,0,0,
,-0.196,0.025,0.811,165.344,130.859,235.29,0,0,0,
,-0.143,-0.005,0.896,181.03,167.48,263.305,0,0,0,
,-0.079,-0.077,0.968,215.271,198.181,278.625,0,0,0,
,-0.024,-0.103,1.006,262.756,212.585,304.565,0,0,0,
,0,-0.082,0.98,321.289,224.121,316.406,0,0,0,
,0.044,-0.119,0.959,381.591,221.618,300.598,0,0,0,
,0.077,-0.118,0.944,396.667,227.356,327.88,0,0,0,
,0.129,-0.131,1.031,428.1,234.13,340.026,0,0,0,
,0.208,-0.27,0.942,433.044,240.295,332.458,0,0,0,
,0.318,-0.308,0.969,311.035,214.477,325.012,0,0,0,
,0.372,-0.19,0.878,352.722,170.776,334.838,0,0,0,
,0.68,-0.379,1.358,294.555,-42.847,295.166,0,0,0,
,0.438,-0.565,1.295,40.222,-80.75,154.297,0,0,0,
,0.252,-0.307,1.066,-89.844,-67.872,197.937,0,0,0,
,0.433,-0.149,0.923,29.907,-39.978,192.993,0,0,0,
,0.396,-0.152,0.842,112.609,1.464,172.79,0,0,0,
,0.333,-0.239,0.851,2.502,-1.648,86.547,0,0,0,
,0.317,-0.275,0.833,-221.192,-9.827,34.545,0,0,0,
,0.288,-0.106,0.801,-370.972,13.427,31.066,0,0,0,
,0.291,-0.009,0.868,-333.924,67.688,18.676,0,0,0,
,0.264,-0.056,0.891,-226.197,150.146,6.53,0,0,0,
,0.285,-0.025,0.935,-157.349,190.185,2.563,0,0,0,
,0.316,-0.115,0.981,-88.257,180.053,-40.894,0,0,0,
,0.293,-0.206,1.017,-147.217,127.197,-70.313,0,0,0,
,0.237,-0.125,1.015,-163.147,124.023,-75.623,0,0,0,
,0.208,-0.066,1.014,-111.206,116.821,-63.05,0,0,0,
,0.195,-0.085,0.968,-18.799,128.845,-55.115,0,0,0,
,0.199,-0.148,0.991,-11.109,129.272,-64.331,0,0,0,
,0.189,-0.171,0.991,-87.891,109.741,-61.158,0,0,0,
,0.159,-0.098,0.99,-166.199,91.064,-38.025,0,0,0,
,0.128,-0.017,0.991,-86.731,106.201,-59.998,0,0,0,
,0.155,-0.096,1.024,-29.786,108.032,-66.834,0,0,0,
,0.171,-0.126,1.056,-20.325,94.787,-70.313,0,0,0,
,0.178,-0.119,1.067,-34.424,85.144,-78.553,0,0,0,
,0.188,-0.1,1.037,-40.162,67.382,-64.759,0,0,0,
,0.184,-0.074,0.997,-49.134,70.434,-69.642,0,0,0,
,0.175,-0.062,0.955,-45.411,74.951,-59.266,0,0,0,
,0.202,-0.03,0.933,-51.209,84.961,-54.017,0,0,0,
,0.191,-0.019,0.937,-84.473,91.125,-63.904,0,0,0,
,0.199,-0.011,0.947,-101.868,94.97,-77.21,0,0,0,
,0.216,-0.024,0.972,-88.074,93.689,-104.676,0,0,0,
,0.252,-0.097,1.001,-72.266,98.266,-99.427,0,0,0,
,0.251,-0.16,1.016,-68.726,96.496,-91.797,0,0,0,
,0.258,-0.145,1.004,-67.688,83.496,-84.473,0,0,0,
,0.258,-0.122,0.98,-56.275,68.237,-82.093,0,0,0,
,0.252,-0.094,0.962,-45.594,55.664,-74.524,0,0,0,
,0.239,-0.093,0.939,-32.898,54.26,-70.618,0,0,0,
,0.257,-0.093,0.933,-27.039,45.532,-63.355,0,0,0,
,0.273,-0.096,0.942,-45.655,34.668,-60.669,0,0,0,
,0.264,-0.088,0.947,-57.679,31.494,-50.965,0,0,0,
,0.265,-0.067,0.917,-41.138,37.292,-52.002,0,0,0,
,0.291,-0.059,0.917,-23.926,40.588,-49.988,0,0,0,
,0.298,-0.087,0.923,-13.916,41.931,-51.758,0,0,0,
,0.297,-0.081,0.919,-28.809,39.367,-54.078,0,0,0,
,0.27,-0.062,0.903,-31.8,38.391,-46.814,0,0,0,
,0.259,-0.023,0.891,-5.005,44.006,-42.237,0,0,0,
,0.249,-0.04,0.876,38.696,52.307,-38.208,0,0,0,
,0.246,-0.06,0.877,65.49,58.654,-44.007,0,0,0,
,0.248,-0.06,0.818,102.356,66.528,-30.274,0,0,0,
,0.318,-0.22,1.148,113.342,-29.175,-24.353,0,0,0,
,0.267,-0.18,1.145,53.161,-40.711,-18.25,0,0,0,
,0.326,-0.066,1.129,141.235,-53.04,-2.259,0,0,0,
,0.377,-0.129,1.125,205.505,-85.328,-33.936,0,0,0,
,0.453,-0.131,1.062,206.115,-127.198,-68.543,0,0,0,
,0.444,-0.144,0.997,207.824,-151.795,-88.196,0,0,0,
,0.445,-0.186,0.972,237.609,-159.607,-133.118,0,0,0,
,0.381,-0.289,0.981,243.042,-177.43,-118.226,0,0,0,
,0.293,-0.292,0.938,160.644,-182.679,-123.597,0,0,0,
,0.25,-0.221,0.992,203.125,-250.306,-98.694,0,0,0,
,0.122,-0.409,0.968,221.252,-312.684,-93.384,0,0,0,
,-0.022,-0.288,1.026,98.266,-348.145,-83.313,0,0,0,
,-0.013,-0.211,1.073,90.332,-430.237,-12.757,0,0,0,
,-0.198,-0.225,0.969,137.39,-425.599,-74.097,0,0,0,
,-0.219,-0.24,1.012,146.301,-423.34,-66.102,0,0,0,
,-0.238,-0.185,0.972,88.928,-377.137,-28.016,0,0,0,
,-0.245,-0.19,0.963,56.152,-367.981,1.403,0,0,0,
,-0.262,-0.051,0.923,88.012,-328.248,-3.846,0,0,0,
,-0.256,-0.009,0.924,126.77,-290.711,54.382,0,0,0,
,-0.258,-0.112,0.94,178.833,-266.907,104.614,0,0,0,
,-0.242,-0.207,0.93,220.214,-231.263,135.925,0,0,0,
,-0.229,-0.213,0.885,192.749,-192.078,149.78,0,0,0,
,-0.187,-0.205,0.925,114.563,-149.292,175.659,0,0,0,
,-0.12,-0.142,0.877,121.887,-112.061,204.345,0,0,0,
,-0.144,0.012,0.843,218.078,-91.736,252.807,0,0,0,
,-0.067,-0.224,0.833,243.225,-64.331,219.909,0,0,0,
,0.021,-0.269,0.861,84.655,-36.316,226.074,0,0,0,
,0.005,-0.27,0.828,-42.908,-9.644,212.036,0,0,0,
,0.104,-0.262,0.885,-156.983,10.498,205.261,0,0,0,
,0.048,-0.292,0.903,-136.536,54.26,233.52,0,0,0,
,0.046,-0.207,0.858,-132.019,109.924,251.403,0,0,0,
,0.109,-0.175,0.831,-302.124,159.912,174.072,0,0,0,
,0.136,0.202,0.863,-239.808,194.519,207.214,0,0,0,
,0.472,0.12,1.292,18.31,-2.32,207.275,0,0,0,
,-0.005,0.063,1.22,-338.746,-31.739,163.513,0,0,0,
,-0.005,0.309,1.119,73.364,47.668,221.862,0,0,0,
,0.128,-0.352,0.976,114.685,72.326,147.094,0,0,0,
,0.028,-0.219,1.004,-45.044,14.343,128.479,0,0,0,
,0.052,-0.196,1.158,-145.264,-81.849,101.257,0,0,0,
,-0.162,-0.053,1.16,-296.936,-140.931,110.473,0,0,0,
,-0.176,0.035,1.096,-27.466,-77.637,160.095,0,0,0,
,-0.153,-0.057,1.081,24.231,-54.627,166.32,0,0,0,
,-0.124,-0.095,1.096,53.222,-38.208,182.678,0,0,0,
,-0.071,-0.191,1.073,25.512,-36.927,183.838,0,0,0,
,-0.032,-0.168,1.084,-14.71,-43.519,179.687,0,0,0,
,-0.02,-0.111,1.096,-59.937,-42.42,170.898,0,0,0,
,0.021,-0.094,1.101,-59.021,-48.279,158.447,0,0,0,
,0.038,-0.145,1.014,-25.757,4.638,95.214,0,0,0,
,0.024,-0.136,1.042,-60.975,-2.442,67.871,0,0,0,
,0.018,-0.085,1.017,-83.497,1.098,49.743,0,0,0,
,-0.009,-0.03,1.005,-41.626,28.869,36.621,0,0,0,
,-0.024,-0.023,1.001,32.898,78.674,31.433,0,0,0,
,0.07,-0.105,0.835,192.993,109.985,59.082,0,0,0,
,0.098,-0.146,0.786,180.542,95.764,63.354,0,0,0,
,0.102,-0.155,0.817,179.992,79.589,60.119,0,0,0,
,0.126,-0.203,0.839,159.729,55.236,63.964,0,0,0,
,0.123,-0.216,0.902,137.695,33.752,62.805,0,0,0,
,0.05,-0.141,1.04,140.014,25.085,43.212,0,0,0,
,0.035,-0.145,1.061,170.532,49.316,30.639,0,0,0,
,0.083,-0.246,1.043,190.734,68.42,20.996,0,0,0,
,0.112,-0.286,1.057,140.136,47.18,8.239,0,0,0,
,0.16,-0.464,1.106,21.057,-14.161,-38.575,0,0,0,
,0.034,-0.098,1.039,-14.1,-5.433,-3.113,0,0,0,
,0.064,-0.223,0.966,0.244,17.517,-19.715,0,0,0,
,0.033,-0.151,0.988,-48.035,25.878,-28.565,0,0,0,
,0.04,-0.18,1.023,-45.105,41.87,-21.851,0,0,0,
,0.05,-0.204,1.018,-56.031,44.189,-18.677,0,0,0,
,0.047,-0.211,1.009,-68.604,35.4,-11.597,0,0,0,
,0.04,-0.218,1.014,-69.397,23.742,-1.343,0,0,0,
,0.049,-0.233,0.993,-67.078,13.305,9.46,0,0,0,
,0.058,-0.21,0.992,-74.036,-1.16,21.606,0,0,0,
,0.057,-0.176,0.988,-70.069,-8.789,32.348,0,0,0,
,0.069,-0.169,0.994,-49.988,-15.564,27.771,0,0,0,
,0.038,-0.141,0.988,-27.71,-11.292,26.245,0,0,0,
,0.052,-0.132,0.98,25.756,1.709,33.325,0,0,0,
,0.063,-0.146,0.972,78.308,20.202,36.071,0,0,0,
,0.085,-0.167,0.981,127.746,31.677,28.808,0,0,0,
,0.088,-0.134,1.008,202.514,44.555,4.455,0,0,0,
,0.054,-0.074,1.005,333.191,64.148,-33.081,0,0,0,
,0.025,0.047,1.017,523.315,89.538,-88.501,0,0,0,
,-0.077,-0.048,0.996,648.925,117.004,-105.591,0,0,0,
,-0.075,-0.146,0.961,718.567,118.957,-73.914,0,0,0,
,-0.096,-0.452,0.877,534.668,75.195,-48.279,0,0,0,
,-0.087,-0.451,0.915,240.478,-3.663,-13.184,0,0,0,
,-0.14,-0.336,1.003,102.905,-27.466,36.987,0,0,0,
,-0.08,-0.282,1.061,142.395,-28.382,89.111,0,0,0,
,-0.001,-0.36,1.043,110.412,-34.668,128.967,0,0,0,
,-0.007,-0.307,1.017,73.669,-46.326,191.04,0,0,0,
,0.245,-0.431,1.055,5.676,-138.672,157.165,0,0,0,
,0.275,-0.507,1.03,-2.93,-130.31,141.235,0,0,0,
,0.307,-0.528,1.004,-27.039,-118.287,97.9,0,0,0,
,0.351,-0.525,0.994,-26.978,-109.07,58.227,0,0,0,
,0.347,-0.509,0.974,-13.916,-102.601,11.169,0,0,0,
,0.346,-0.525,0.965,-4.273,-94.178,-49.561,0,0,0,
,0.345,-0.558,0.941,-25.513,-92.957,-121.888,0,0,0,
,0.338,-0.52,0.929,-64.026,-99.488,-183.472,0,0,0,
,0.318,-0.466,0.919,-93.201,-103.516,-250.061,0,0,0,
,0.281,-0.401,0.905,-91.553,-113.77,-316.712,0,0,0,
,0.252,-0.358,0.898,-72.388,-127.686,-368.409,0,0,0,
,0.214,-0.364,0.872,-57.19,-123.536,-417.176,0,0,0,
,0.171,-0.356,0.827,-52.857,-116.517,-455.262,0,0,0,
,0.145,-0.341,0.822,-60.73,-101.746,-493.958,0,0,0,
,0.088,-0.356,0.791,-91.187,-81.665,-548.645,0,0,0,
,0.041,-0.333,0.841,-161.744,-86.06,-519.898,0,0,0,
,0.022,-0.202,0.812,-174.927,-42.359,-511.536,0,0,0,
,-0.025,-0.167,0.787,-152.71,-0.367,-515.076,0,0,0,
,-0.104,-0.19,0.79,-143.25,23.925,-507.813,0,0,0,
,-0.121,-0.164,0.811,-127.564,64.758,-471.314,0,0,0,
,-0.123,-0.152,0.813,-85.877,109.436,-441.651,0,0,0,
,-0.118,-0.172,0.808,-71.961,139.404,-424.012,0,0,0,
,-0.173,-0.191,0.847,-97.535,178.527,-358.765,0,0,0,
,-0.187,-0.222,0.895,-68.848,277.71,-301.209,0,0,0,
,-0.191,-0.2,0.929,-55.481,291.504,-277.588,0,0,0,
,-0.181,-0.187,0.945,-20.997,308.532,-270.997,0,0,0,
,-0.161,-0.22,0.975,-19.532,310.241,-230.957,0,0,0,
,-0.145,-0.23,0.995,-62.806,290.649,-198.304,0,0,0,
,-0.055,-0.139,1.085,-133.179,222.046,-112.427,0,0,0,
,0.002,-0.172,1.065,-101.197,207.58,-80.445,0,0,0,
,0.053,-0.204,1.035,-122.01,181.518,-67.261,0,0,0,
,0.085,-0.193,1.022,-166.443,156.982,-41.748,0,0,0,
,0.094,-0.123,0.979,-187.867,139.465,-24.476,0,0,0,
,0.099,0.055,0.735,-207.154,103.942,24.658,0,0,0,
,0.237,-0.049,0.968,-154.053,59.57,25.94,0,0,0,
,0.098,-0.515,0.938,-208.741,139.343,-51.697,0,0,0,
,0.084,-0.286,1.147,-186.951,147.583,145.019,0,0,0,
,0.218,-0.21,1.411,-21.729,115.112,86.731,0,0,0,
,0.255,-0.496,1.452,-104.187,44.372,8.239,0,0,0,
,0.113,-0.425,1.286,-307.251,-31.861,23.925,0,0,0,
,-0.008,-0.071,1.108,-322.51,-45.533,65.673,0,0,0,
,-0.006,0.135,1.026,-153.443,-12.757,35.278,0,0,0,
,0.015,0.025,1.041,-41.504,11.596,-55.115,0,0,0,
,0.114,-0.153,1.012,-43.396,18.615,-95.887,0,0,0,
,0.11,-0.081,0.926,-88.807,80.932,-75.745,0,0,0,
,0.128,0.021,0.918,-15.87,106.506,-69.642,0,0,0,
,0.143,-0.049,0.918,41.137,121.582,-96.192,0,0,0,
,0.181,-0.137,0.909,14.77,113.83,-104.676,0,0,0,
,0.173,-0.129,0.935,-28.077,84.655,-101.197,0,0,0,
,0.148,-0.122,0.973,-25.818,81.787,-88.44,0,0,0,
,0.154,-0.141,0.999,14.099,88.562,-68.848,0,0,0,
,0.148,-0.181,0.993,15.075,75.012,-61.28,0,0,0,
,0.143,-0.168,1.014,-11.902,47.607,-61.219,0,0,0,
,0.129,-0.128,1.002,-29.786,27.771,-54.505,0,0,0,
,0.114,-0.107,0.989,-25.086,22.277,-50.721,0,0,0,
,0.112,-0.099,0.975,-10.376,22.338,-47.669,0,0,0,
,0.109,-0.083,0.987,2.441,26.489,-40.528,0,0,0,
,0.107,-0.094,0.996,13.427,30.761,-36.744,0,0,0,
,0.134,-0.112,1.003,6.591,30.517,-40.101,0,0,0,
,0.134,-0.123,1.003,-6.592,30.395,-35.828,0,0,0,
,0.142,-0.118,0.981,-21.79,27.893,-34.302,0,0,0,
,0.144,-0.108,0.994,-19.471,25.451,-35.584,0,0,0,
,0.134,-0.103,0.982,-19.288,34.912,-34.302,0,0,0,
,0.141,-0.096,0.99,-19.593,46.02,-31.861,0,0,0,
,0.151,-0.103,1.002,-11.17,48.889,-29.48,0,0,0,
,0.161,-0.108,0.999,-10.926,46.936,-25.208,0,0,0,
,0.153,-0.117,0.995,-21.363,41.748,-29.053,0,0,0,
,0.127,-0.092,0.986,-33.936,37.414,-26.795,0,0,0,
,0.131,-0.086,0.977,-30.091,39.428,-31.373,0,0,0,
,0.145,-0.111,0.992,-31.434,40.344,-31.434,0,0,0,
,0.143,-0.112,0.983,-35.279,39.245,-27.466,0,0,0,
,0.143,-0.088,0.963,-35.645,36.926,-25.025,0,0,0,
,0.139,-0.082,0.961,-27.1,33.691,-27.832,0,0,0,
,0.144,-0.072,0.971,-24.231,33.386,-28.443,0,0,0,
,0.162,-0.076,0.982,-26.123,27.71,-28.077,0,0,0,
,0.153,-0.077,0.99,-35.95,26.489,-27.771,0,0,0,
,0.173,-0.102,0.984,-16.907,26.123,-34.546,0,0,0,
,0.181,-0.107,0.973,-27.405,17.944,-33.875,0,0,0,
,0.171,-0.084,0.978,-42.298,14.77,-30.091,0,0,0,
,0.168,-0.061,0.982,-35.157,14.77,-27.466,0,0,0,
,0.179,-0.074,0.982,-28.321,11.962,-33.204,0,0,0,
,0.168,-0.084,0.991,-32.349,13.366,-33.326,0,0,0,
,0.167,-0.067,0.98,-35.34,14.648,-29.847,0,0,0,
,0.169,-0.064,0.993,-36.56,10.253,-31.678,0,0,0,
,0.154,-0.07,0.978,-36.744,11.962,-33.326,0,0,0,
,0.16,-0.072,0.98,-32.837,15.93,-33.814,0,0,0,
,0.162,-0.069,0.977,-22.339,13.549,-29.847,0,0,0,
,0.158,-0.058,0.977,-23.011,7.324,-26.734,0,0,0,
,0.149,-0.039,0.96,-15.87,6.774,-17.579,0,0,0,
,0.133,-0.057,0.929,1.892,8.117,-10.804,0,0,0,
,0.128,-0.081,0.886,39.184,18.066,-3.54,0,0,0,
,0.12,-0.048,0.876,59.204,22.644,9.826,0,0,0,
,0.113,-0.025,0.905,83.74,35.278,12.146,0,0,0,
,0.133,-0.051,0.92,115.844,49.865,12.512,0,0,0,
,0.149,-0.11,0.927,99.182,49.072,12.146,0,0,0,
,0.135,-0.066,0.912,94.787,49.926,23.498,0,0,0,
,0.171,-0.036,0.992,107.544,13.916,23.437,0,0,0,
,0.178,-0.195,1.054,57.861,-2.198,-23.865,0,0,0,
,0.11,-0.083,1.087,15.625,-18.494,33.081,0,0,0,
,0.108,-0.097,1.2,10.131,-43.824,9.155,0,0,0,
,-0.021,-0.084,1.102,-46.265,-45.166,34.729,0,0,0,
,-0.051,-0.11,1.074,-38.147,-33.204,25.634,0,0,0,
,-0.025,-0.147,1.066,-33.692,-16.358,40.466,0,0,0,
,0.052,-0.062,1.242,5.554,-54.566,45.227,0,0,0,
,0.067,-0.068,1.117,80.383,-81.421,56.457,0,0,0,
,0.078,-0.029,0.853,112.976,-16.724,111.023,0,0,0,
,0.182,0.107,1.007,349.792,-19.654,151.489,0,0,0,
,0.37,-0.298,0.994,279.541,-33.753,117.553,0,0,0,
,0.431,-0.112,1.066,134.582,-119.629,118.103,0,0,0,
,0.56,-0.093,1.17,183.838,-204.346,93.933,0,0,0,
,0.557,-0.196,1.186,185.791,-284.119,32.714,0,0,0,
,0.556,-0.207,1.164,169.738,-353.272,-14.1,0,0,0,
,0.576,-0.196,1.146,160.217,-396.302,-71.351,0,0,0,
,0.565,-0.171,1.114,150.268,-430.909,-125.184,0,0,0,
,0.514,-0.137,1.063,111.45,-448.121,-179.444,0,0,0,
,0.481,-0.122,1.007,79.956,-432.679,-233.948,0,0,0,
,0.457,-0.133,0.992,47.18,-411.683,-279.48,0,0,0,
,0.439,-0.13,0.946,-29.236,-386.597,-308.228,0,0,0,
,0.405,-0.092,0.887,-68.116,-353.394,-330.445,0,0,0,
,0.34,-0.072,0.796,-76.233,-319.519,-351.136,0,0,0,
,0.2,-0.083,0.731,-40.284,-283.631,-361.145,0,0,0,
,0.05,-0.093,0.712,-61.036,-216.126,-324.524,0,0,0,
,-0.11,-0.066,0.676,-120.179,-165.223,-273.926,0,0,0,
,-0.261,-0.012,0.67,-195.923,-96.375,-200.318,0,0,0,
,-0.396,0.036,0.66,-208.069,-23.499,-108.643,0,0,0,
,-0.492,0.06,0.697,-165.223,65.307,-16.114,0,0,0,
,-0.484,0.069,0.715,-72.144,158.203,74.646,0,0,0,
,-0.424,-0.012,0.75,10.62,242.492,146.789,0,0,0,
,-0.335,-0.07,0.816,42.785,306.701,212.341,0,0,0,
,-0.223,-0.116,0.872,40.771,341.613,253.173,0,0,0,
,-0.147,-0.152,0.9,41.87,351.745,280.7,0,0,0,
,-0.041,-0.205,0.932,82.275,344.421,300.964,0,0,0,
,0.099,-0.268,0.985,92.834,301.147,275.146,0,0,0,
,0.121,-0.274,1.001,40.344,269.897,243.469,0,0,0,
,0.139,-0.242,1,4.76,244.995,217.407,0,0,0,
,0.143,-0.251,1.004,50.537,231.994,158.325,0,0,0,
,0.139,-0.307,1.001,0.671,212.768,122.741,0,0,0,
,0.13,-0.278,0.996,-59.144,197.204,99.182,0,0,0,
,0.152,-0.271,0.975,-80.994,185.913,101.745,0,0,0,
,0.147,-0.275,0.968,-66.59,180.359,114.318,0,0,0,
,0.241,-0.352,1.13,-9.095,110.473,200.622,0,0,0,
,0.135,-0.425,1.181,-69.947,70.617,261.291,0,0,0,
,0.056,-0.226,1.14,-81.971,71.716,244.14,0,0,0,
,0.149,-0.004,1.234,15.686,-29.664,277.526,0,0,0,
,0.059,-0.153,1.072,11.047,-49.439,201.172,0,0,0,
,0.026,0.007,1.008,2.624,-38.269,181.091,0,0,0,
,0.055,0.002,0.984,50.537,-6.348,158.691,0,0,0,
,0.04,0.032,1.057,42.602,15.136,121.276,0,0,0,
,0.041,-0.014,1.041,45.227,36.926,88.256,0,0,0,
,0.064,-0.092,1.057,32.531,47.607,57.861,0,0,0,
,0.095,-0.144,1.043,-3.235,36.438,36.987,0,0,0,
,0.1,-0.125,0.998,-17.151,18.737,22.094,0,0,0,
,0.075,-0.103,0.951,-36.438,10.131,12.939,0,0,0,
,0.084,-0.046,0.923,-31.189,19.409,14.404,0,0,0,
,0.113,-0.06,0.956,-13.916,31.372,0.976,0,0,0,
,0.137,-0.109,0.989,-27.161,30.639,-8.24,0,0,0,
,0.139,-0.111,1.007,-41.626,18.737,-15.015,0,0,0,
,0.151,-0.132,0.995,-42.42,6.347,-22.95,0,0,0,
,0.172,-0.153,0.964,-66.895,-12.146,-35.645,0,0,0,
,0.167,-0.133,0.917,-115.052,-45.289,-45.716,0,0,0,
,0.154,-0.06,0.916,-142.334,-60.914,-49.012,0,0,0,
,0.148,-0.11,1.054,-75.684,-29.175,-34.729,0,0,0,
,0.136,-0.087,1.06,-33.204,-24.292,-32.715,0,0,0,
,0.12,-0.09,1.026,-6.531,-24.537,-29.725,0,0,0,
,0.11,-0.077,1,5.127,-22.4,-36.255,0,0,0,
,0.091,-0.076,0.991,-2.625,-12.269,-37.415,0,0,0,
,0.097,-0.077,0.994,0.427,2.807,-38.086,0,0,0,
,0.1,-0.08,0.989,-0.245,13.732,-39.429,0,0,0,
,0.105,-0.068,0.98,4.76,17.822,-39.612,0,0,0,
,0.098,-0.07,0.991,16.54,20.019,-39.856,0,0,0,
,0.096,-0.075,0.991,12.451,17.944,-37.781,0,0,0,
,0.093,-0.073,0.984,6.836,15.93,-38.086,0,0,0,
,0.089,-0.088,0.996,15.808,22.277,-39.124,0,0,0,
,0.089,-0.076,1,16.479,23.742,-37.72,0,0,0,
,0.086,-0.071,1.001,13.305,25.634,-35.279,0,0,0,
,0.086,-0.093,0.998,10.803,22.033,-36.499,0,0,0,
,0.093,-0.089,0.998,20.08,20.507,-32.532,0,0,0,
,0.083,-0.09,0.974,15.014,21.057,-32.837,0,0,0,
,0.093,-0.094,0.969,8.911,22.399,-29.725,0,0,0,
,0.098,-0.076,0.986,11.352,34.362,-23.255,0,0,0,
,0.11,-0.088,0.983,15.319,42.236,-24.598,0,0,0,
,0.108,-0.074,0.98,6.958,48.095,-29.908,0,0,0,
,0.111,-0.048,0.982,17.761,57.678,-30.884,0,0,0,
,0.135,-0.071,0.979,30.517,61.584,-36.316,0,0,0,
,0.145,-0.09,0.987,18.005,59.265,-43.396,0,0,0,
,0.152,-0.086,0.982,16.601,54.077,-44.678,0,0,0,
,0.17,-0.099,1.003,17.517,39.978,-60.547,0,0,0,
,0.171,-0.089,1.014,40.588,35.4,-71.228,0,0,0,
,0.169,-0.061,1.05,63.232,26.001,-92.286,0,0,0,
,0.17,-0.029,1.131,76.782,4.638,-125.916,0,0,0,
,0.144,0.037,1.189,101.318,-15.564,-165.833,0,0,0,
,0.169,0.006,1.235,127.807,-14.283,-247.986,0,0,0,
,0.197,-0.055,1.248,112.793,-21.119,-298.462,0,0,0,
,0.183,-0.164,1.17,75.622,-136.963,-407.227,0,0,0,
,0.041,-0.164,1.119,73.242,-188.416,-395.997,0,0,0,
,-0.038,-0.105,1.123,64.331,-239.624,-375.733,0,0,0,
,-0.052,-0.022,1.24,77.087,-336.976,-322.51,0,0,0,
,-0.166,-0.082,1.261,-15.015,-431.946,-309.571,0,0,0,
,-0.278,-0.05,1.164,-85.022,-472.657,-311.89,0,0,0,
,-0.353,-0.005,1.129,-78.919,-503.479,-289.49,0,0,0,
,-0.476,-0.071,1.057,-53.956,-491.15,-287.171,0,0,0,
,-0.525,-0.048,0.997,6.286,-441.102,-252.991,0,0,0,
,-0.541,-0.076,0.9,30.456,-378.54,-229.493,0,0,0,
,-0.516,-0.102,0.836,-3.54,-325.196,-195.74,0,0,0,
,-0.493,-0.101,0.839,-35.096,-266.541,-149.109,0,0,0,
,-0.457,-0.096,0.82,-71.595,-196.656,-90.577,0,0,0,
,-0.438,-0.061,0.801,-94.239,-127.808,-42.237,0,0,0,
,-0.42,-0.046,0.766,-61.707,-33.081,-0.367,0,0,0,
,-0.353,-0.076,0.741,6.774,60.913,27.771,0,0,0,
,-0.283,-0.137,0.727,52.002,145.813,37.841,0,0,0,
,-0.207,-0.193,0.772,29.235,223.388,35.644,0,0,0,
,-0.084,-0.241,0.86,-156.617,315.124,-44.617,0,0,0,
,-0.029,-0.252,0.834,-274.17,339.782,-54.749,0,0,0,
,-0.055,-0.158,0.77,-381.104,279.358,-32.532,0,0,0,
,-0.047,-0.069,0.812,-312.012,299.255,-47.425,0,0,0,
,0.078,-0.095,0.843,-39.856,368.957,-54.322,0,0,0,
,0.204,-0.24,0.844,74.035,380.066,-77.942,0,0,0,
,0.232,-0.309,0.807,-10.193,349.731,-119.141,0,0,0,
,0.229,-0.29,0.814,-107.483,333.984,-150.208,0,0,0,
,0.219,-0.215,0.815,-131.47,337.89,-162.293,0,0,0,
,0.233,-0.132,0.834,-95.093,360.656,-170.35,0,0,0,
,0.284,-0.121,0.842,-57.862,370.178,-207.581,0,0,0,
,0.323,-0.118,0.878,-75.867,341.491,-237.488,0,0,0,
,0.35,-0.059,0.933,-93.384,296.814,-239.319,0,0,0,
,0.351,-0.003,0.974,-53.406,250.732,-249.329,0,0,0,
,0.355,0.022,0.983,15.93,218.444,-243.836,0,0,0,
,0.376,-0.013,0.991,87.158,187.561,-246.399,0,0,0,
,0.387,-0.096,1.009,103.759,140.686,-253.052,0,0,0,
,0.371,-0.123,1.018,47.912,122.985,-251.648,0,0,0,
,0.366,-0.048,1.005,-16.053,73.608,-224.488,0,0,0,
,0.354,-0.075,0.992,-9.522,45.654,-222.229,0,0,0,
,0.331,-0.112,0.994,-46.082,32.165,-216.553,0,0,0,
,0.279,-0.1,0.977,-106.202,57.373,-201.477,0,0,0,
,0.265,-0.013,0.938,-99.61,86.181,-163.514,0,0,0,
,0.35,0.084,1.057,14.16,78.918,-130.066,0,0,0,
,0.379,0.002,0.984,78.369,57.556,-83.497,0,0,0,
,0.282,-0.16,0.861,15.991,128.296,-101.624,0,0,0,
,0.31,-0.156,0.875,-2.32,181.152,-55.726,0,0,0,
,0.312,-0.118,0.809,-81.543,234.436,-4.456,0,0,0,
,0.361,0.088,1.015,10.925,180.053,-16.48,0,0,0,
,0.431,0.175,1.167,123.352,82.763,-4.944,0,0,0,
,0.368,-0.115,1.157,172.607,33.63,-94.666,0,0,0,
,0.262,-0.161,1.188,107.238,-24.598,-134.766,0,0,0,
,0.273,-0.211,1.162,57.678,-34.485,-131.409,0,0,0,
,0.253,-0.146,1.087,-28.626,-47.425,-88.135,0,0,0,
,0.175,-0.073,1.036,12.207,-31.922,-69.275,0,0,0,
,0.177,-0.092,1.029,25.207,-18.311,-76.539,0,0,0,
,0.19,-0.087,1.04,84.045,-5.921,-67.994,0,0,0,
,0.207,-0.118,1.03,68.908,-5.799,-73.487,0,0,0,
,0.179,-0.139,1.002,14.587,-31.189,-89.417,0,0,0,
,0.142,-0.101,0.988,-10.254,-5.86,-86.487,0,0,0,
,0.13,-0.079,1.01,-8.484,17.761,-81.238,0,0,0,
,0.157,-0.076,1.008,-26.123,23.864,-84.839,0,0,0,
,0.197,-0.125,1.012,-54.139,20.935,-89.356,0,0,0,
,0.195,-0.087,0.986,-91.187,20.202,-99.976,0,0,0,
,0.199,-0.068,0.974,-108.704,29.052,-99.732,0,0,0,
,0.199,-0.082,0.974,-98.999,45.105,-103.333,0,0,0,
,0.211,-0.105,0.962,-95.154,54.809,-96.985,0,0,0,
,0.193,-0.11,0.961,-90.394,57.617,-103.882,0,0,0,
,0.2,-0.106,0.951,-70.13,61.279,-89.051,0,0,0,
,0.209,-0.086,0.923,-46.57,57.983,-79.651,0,0,0,
,0.215,-0.084,0.921,-22.889,56.03,-73.609,0,0,0,
,0.203,-0.081,0.928,-36.194,43.029,-70.069,0,0,0,
,0.202,-0.053,0.932,-45.594,35.217,-61.097,0,0,0,
,0.204,-0.057,0.924,-28.748,28.015,-67.261,0,0,0,
,0.206,-0.075,0.942,-6.104,29.174,-65.43,0,0,0,
,0.223,-0.076,0.949,5.92,27.587,-62.745,0,0,0,
,0.227,-0.067,0.965,1.403,20.263,-67.444,0,0,0,
,0.22,-0.059,0.991,-1.587,18.127,-67.81,0,0,0,
,0.23,-0.058,0.986,6.469,14.587,-63.965,0,0,0,
,0.235,-0.07,0.97,3.723,4.882,-67.444,0,0,0,
,0.218,-0.056,0.951,0.732,9.277,-65.247,0,0,0,
,0.222,-0.041,0.951,3.54,11.657,-60.975,0,0,0,
,0.242,-0.065,0.95,17.211,16.113,-62.989,0,0,0,
,0.241,-0.075,0.942,10.803,16.235,-61.951,0,0,0,
,0.231,-0.069,0.94,9.887,14.831,-58.716,0,0,0,
,0.235,-0.078,0.967,17.883,15.38,-58.472,0,0,0,
,0.237,-0.083,0.979,19.226,13.122,-56.092,0,0,0,
,0.229,-0.123,0.986,14.16,10.986,-53.101,0,0,0,
,0.229,-0.094,0.978,15.258,17.15,-48.279,0,0,0,
,0.23,-0.083,0.978,4.028,12.939,-44.678,0,0,0,
,0.227,-0.081,1.001,3.906,11.779,-46.814,0,0,0,
,0.232,-0.069,0.987,-5.494,9.033,-43.885,0,0,0,
,0.222,-0.043,0.961,-15.992,10.315,-44.556,0,0,0,
,0.218,-0.06,0.947,-4.944,17.761,-48.096,0,0,0,
,0.238,-0.095,0.963,3.418,24.841,-42.176,0,0,0,
,0.267,-0.112,0.987,-10.804,17.578,-33.143,0,0,0,
,0.268,-0.08,0.978,-17.518,6.042,-29.175,0,0,0,
,0.25,-0.052,0.96,-7.569,-0.061,-27.955,0,0,0,
,0.229,-0.056,0.934,13.977,10.925,-25.94,0,0,0,
,0.248,-0.088,0.938,25.573,17.089,-25.086,0,0,0,
,0.264,-0.091,0.94,3.54,14.77,-19.654,0,0,0,
,0.261,-0.054,0.94,-9.095,14.953,-14.1,0,0,0,
,0.276,-0.114,0.961,30.761,27.954,-10.804,0,0,0,
,0.265,-0.116,0.964,-4.883,20.141,-8.484,0,0,0,
,0.249,-0.058,0.97,-22.339,15.869,0.488,0,0,0,
,0.238,-0.053,0.942,-1.16,25.085,3.112,0,0,0,
,0.232,-0.086,0.943,0.61,28.747,6.958,0,0,0,
,0.238,-0.086,0.94,7.69,31.738,14.404,0,0,0,
,0.25,-0.11,0.955,22.277,37.597,17.7,0,0,0,
,0.265,-0.132,0.988,40.588,35.339,20.141,0,0,0,
,0.29,-0.135,0.998,53.588,14.465,23.681,0,0,0,
,0.306,-0.126,1.016,53.833,-7.752,24.658,0,0,0,
,0.322,-0.098,1.01,56.945,-29.419,26.977,0,0,0,
,0.387,-0.003,1.012,138.061,-108.521,2.075,0,0,0,
,0.411,-0.002,0.993,217.956,-129.029,-19.715,0,0,0,
,0.428,-0.082,0.951,286.01,-146.485,-44.8,0,0,0,
,0.401,-0.157,0.919,300.476,-153.809,-52.124,0,0,0,
,0.325,-0.149,0.875,244.751,-143.006,-62.378,0,0,0,
,0.186,-0.336,1.053,598.999,-189.454,-38.147,0,0,0,
,0.088,-0.478,1.236,478.759,-347.168,-96.741,0,0,0,
,-0.003,-0.589,1.301,284.484,-429.627,-94.3,0,0,0,
,-0.121,-0.541,1.278,50.964,-493.164,-86.67,0,0,0,
,-0.255,-0.376,1.259,10.315,-515.259,-72.449,0,0,0,
,-0.331,-0.367,1.253,61.157,-506.897,-71.045,0,0,0,
,-0.358,-0.399,1.192,77.392,-481.019,-72.632,0,0,0,
,-0.358,-0.417,1.092,51.33,-453.431,-61.219,0,0,0,
,-0.339,-0.406,1.02,-1.587,-407.471,-44.739,0,0,0,
,-0.308,-0.377,0.966,-87.037,-386.109,-20.874,0,0,0,
,-0.273,-0.328,0.91,-160.767,-350.892,7.873,0,0,0,
,-0.226,-0.301,0.832,-192.383,-307.19,43.273,0,0,0,
,-0.195,-0.264,0.795,-227.723,-257.874,98.816,0,0,0,
,-0.143,-0.186,0.762,-265.198,-211.976,148.254,0,0,0,
,-0.073,-0.122,0.709,-259.644,-165.345,173.523,0,0,0,
,-0.038,-0.107,0.679,-237.305,-126.709,190.368,0,0,0,
,-0.012,-0.041,0.66,-199.463,-100.892,208.801,0,0,0,
,0.019,0.016,0.646,-145.752,-85.328,205.627,0,0,0,
,0.077,-0.215,0.672,28.015,-45.411,178.283,0,0,0,
,0.118,-0.281,0.769,-88.685,-40.589,224.182,0,0,0,
,0.041,-0.12,0.868,-106.019,-1.099,283.203,0,0,0,
,0.009,-0.027,0.913,-45.105,60.974,326.66,0,0,0,
,0.019,-0.006,0.914,57.006,123.108,309.875,0,0,0,
,0.074,-0.035,0.882,146.85,157.837,329.651,0,0,0,
,0.099,-0.093,0.931,140.625,152.771,327.514,0,0,0,
,0.106,-0.139,0.97,103.698,133.484,320.8,0,0,0,
,0.082,-0.159,0.968,33.935,114.257,314.209,0,0,0,
,0.056,-0.13,1.017,-11.841,107.544,276.489,0,0,0,
,0.07,-0.19,1.017,-26.001,114.257,269.409,0,0,0,
,0.072,-0.123,1.028,-0.55,124.267,275.634,0,0,0,
,0.077,-0.096,1.026,50.415,134.277,260.681,0,0,0,
,0.079,-0.113,1.015,78.43,131.042,222.351,0,0,0,
,0.034,-0.149,0.996,96.679,116.15,203.186,0,0,0,
,0.037,-0.142,0.999,124.267,135.131,194.763,0,0,0,
,0.059,-0.179,0.97,151.733,153.625,173.706,0,0,0,
,0.066,-0.243,1.022,214.66,148.742,163.452,0,0,0,
,0.072,-0.315,1.053,187.683,109.192,143.676,0,0,0,
,0.047,-0.287,1.052,94.543,73.974,120.971,0,0,0,
,0.003,-0.249,1.072,46.875,56.579,112.304,0,0,0,
,-0.014,-0.218,1.067,56.274,62.316,137.878,0,0,0,
,-0.003,-0.19,1.062,40.1,56.64,154.297,0,0,0,
,0.114,-0.013,1.293,321.228,-123.841,80.627,0,0,0,
,-0.006,-1.034,1.19,-77.942,-191.163,-38.636,0,0,0,
,0.001,-0.193,1.178,-366.7,-263.001,121.765,0,0,0,
,-0.11,-0.27,1.085,-218.018,-221.131,124.145,0,0,0,
,0.057,-0.301,0.951,-242.798,-177.063,101.501,0,0,0,
,0.01,-0.135,0.917,-250.977,-129.395,103.759,0,0,0,
,-0.031,-0.06,0.906,-243.409,-71.412,100.952,0,0,0,
,-0.041,0.021,0.896,-159.974,-17.212,105.041,0,0,0,
,0.02,0.027,0.899,-55.97,11.657,102.172,0,0,0,
,0.052,-0.059,0.873,-46.692,18.371,88.684,0,0,0,
,0.059,-0.159,1.001,-102.478,11.352,51.269,0,0,0,
,0.012,-0.228,1.09,-102.723,43.823,45.715,0,0,0,
,-0.018,-0.198,1.195,-47.486,50.17,58.105,0,0,0,
,0.001,-0.185,1.092,40.161,70.19,72.082,0,0,0,
,0.008,-0.187,1.002,51.635,57.067,74.401,0,0,0,
,0.005,-0.184,0.989,19.531,40.588,65.795,0,0,0,
,0.02,-0.147,0.992,-15.564,34.179,64.575,0,0,0,
,0.032,-0.122,1.006,-14.1,39.184,61.157,0,0,0,
,0.032,-0.128,1.045,17.517,52.307,53.772,0,0,0,
,0.029,-0.142,1.054,40.405,67.565,48.4,0,0,0,
,0.05,-0.145,1.022,59.204,64.88,45.105,0,0,0,
,0.049,-0.162,0.998,37.719,51.818,33.63,0,0,0,
,0.056,-0.163,0.982,4.76,44.372,25.207,0,0,0,
,0.052,-0.153,0.981,-32.288,38.391,18.31,0,0,0,
,0.037,-0.107,0.975,-21.79,39.245,17.578,0,0,0,
,0.036,-0.095,0.966,14.587,51.147,18.676,0,0,0,
,0.036,-0.124,0.959,11.962,57.312,17.761,0,0,0,
,0.05,-0.125,0.99,1.342,57.251,14.038,0,0,0,
,0.044,-0.131,1.021,8.3,61.767,8.544,0,0,0,
,0.058,-0.152,1.035,21.789,65.307,2.563,0,0,0,
,0.067,-0.155,1.034,25.512,63.171,-9.522,0,0,0,
,0.069,-0.153,1.029,25.94,60.974,-26.307,0,0,0,
,0.073,-0.141,1.005,14.221,49.011,-44.678,0,0,0,
,0.071,-0.126,1,20.141,46.203,-58.289,0,0,0,
,0.067,-0.137,0.996,10.742,44.372,-75.684,0,0,0,
,0.049,-0.123,1.014,10.559,40.771,-84.717,0,0,0,
,0.045,-0.127,1.033,29.785,39.856,-83.13,0,0,0,
,0.041,-0.129,1.053,28.625,21.728,-81.238,0,0,0,
,0.079,-0.142,0.893,67.26,42.419,-72.998,0,0,0,
,0.092,-0.116,0.864,143.982,78.002,-78.125,0,0,0,
,0.145,-0.206,0.909,122.436,80.261,-81.727,0,0,0,
,0.136,-0.171,0.97,86.303,68.908,-91.37,0,0,0,
,0.14,-0.193,1.003,76.232,56.64,-100.708,0,0,0,
,0.096,-0.115,1.104,101.928,61.828,-120.118,0,0,0,
,0.073,-0.089,1.135,189.514,85.815,-126.16,0,0,0,
,0.053,-0.126,1.113,243.286,103.82,-137.391,0,0,0,
,0.04,-0.151,1.104,237.854,95.275,-157.41,0,0,0,
,0.037,-0.163,1.08,232.116,90.332,-190.796,0,0,0,
,0.061,-0.178,1.073,206.482,70.556,-226.258,0,0,0,
,0.055,-0.185,1.057,192.688,53.649,-243.897,0,0,0,
,0.037,-0.18,0.984,208.374,28.686,-242.615,0,0,0,
,0.026,-0.191,0.971,182.251,-37.598,-212.586,0,0,0,
,0.031,-0.169,1.129,145.019,-151.307,-200.806,0,0,0,
,-0.136,-0.104,1.141,-47.425,-291.871,-186.524,0,0,0,
,-0.204,-0.08,1.165,30.883,-353.943,-174.805,0,0,0,
,-0.212,-0.129,1.072,-30.152,-375.794,-165.589,0,0,0,
,-0.203,-0.071,1.046,13.488,-396.058,-106.08,0,0,0,
,-0.219,-0.156,0.975,18.798,-371.827,-52.491,0,0,0,
,-0.162,-0.165,0.863,13.916,-336.487,-0.123,0,0,0,
,-0.137,-0.096,0.838,61.584,-293.885,104.98,0,0,0,
,-0.208,-0.196,0.746,49.316,-232.422,153.503,0,0,0,
,-0.127,-0.102,0.761,24.719,-168.946,233.093,0,0,0,
,-0.163,-0.167,0.709,34.912,-75.806,261.352,0,0,0,
,-0.077,-0.084,0.756,52.185,-0.55,355.468,0,0,0,
,-0.077,-0.154,0.716,62.5,82.641,361.145,0,0,0,
,0.017,-0.161,0.694,61.035,109.802,395.324,0,0,0,
,0.025,-0.139,0.777,96.679,93.2,436.889,0,0,0,
,0.052,-0.245,0.774,106.628,117.248,415.161,0,0,0,
,0.065,-0.231,0.912,90.82,70.556,451.538,0,0,0,
,0.114,-0.373,0.902,92.224,86.059,399.719,0,0,0,
,0.126,-0.337,0.953,31.738,35.339,458.191,0,0,0,
,0.163,-0.355,0.938,96.74,32.592,408.752,0,0,0,
,0.152,-0.38,0.952,38.818,-11.353,444.213,0,0,0,
,0.248,-0.413,0.952,63.598,-28.626,397.644,0,0,0,
,0.2,-0.412,0.939,31.25,-32.105,397.033,0,0,0,
,0.21,-0.424,0.875,-4.029,-13.672,368.53,0,0,0,
,0.233,-0.396,0.885,22.705,-6.958,352.356,0,0,0,
,0.206,-0.425,0.877,-0.123,35.705,292.724,0,0,0,
,0.234,-0.45,0.889,-25.879,69.763,275.817,0,0,0,
,0.227,-0.436,0.891,-48.096,95.52,249.817,0,0,0,
,0.209,-0.403,0.887,-62.684,115.112,230.407,0,0,0,
,0.193,-0.382,0.885,-86.792,122.131,205.444,0,0,0,
,0.166,-0.346,0.909,-126.77,127.441,187.622,0,0,0,
,0.161,-0.36,0.927,-156.495,135.498,164.062,0,0,0,
,0.158,-0.361,0.936,-188.904,135.986,153.442,0,0,0,
,0.147,-0.303,0.929,-178.956,158.386,165.954,0,0,0,
,0.265,-0.128,1.109,3.295,88.989,129.272,0,0,0,
,0.3,-0.514,1.414,-3.846,-53.162,69.458,0,0,0,
,0.115,-0.714,1.324,-354.798,-69.519,8.483,0,0,0,
,0.035,-0.172,1.171,-335.572,-34.241,65.551,0,0,0,
,0.045,-0.102,1.004,-96.436,18.188,102.722,0,0,0,
,0.038,-0.112,0.963,-87.525,26.672,41.687,0,0,0,
,0.034,-0.022,0.959,-88.318,40.161,15.075,0,0,0,
,0.033,-0.055,0.952,-77.027,56.091,4.15,0,0,0,
,0.044,-0.141,1.004,-128.602,34.057,-17.518,0,0,0,
,0.031,-0.177,1.016,-102.845,27.71,-18.067,0,0,0,
,0.061,-0.216,1.022,-9.278,30.517,-24.109,0,0,0,
,0.072,-0.268,0.967,12.207,25.329,-25.391,0,0,0,
,0.095,-0.244,0.913,-10.071,1.831,-16.48,0,0,0,
,0.097,-0.165,0.884,-65.735,-31.495,-3.663,0,0,0,
,0.12,-0.17,0.976,-24.598,-46.936,16.723,0,0,0,
,0.148,-0.244,1.013,-4.456,-45.411,21.057,0,0,0,
,0.159,-0.299,1.03,-11.353,-54.871,9.216,0,0,0,
,0.163,-0.251,1.034,-31.067,-52.124,-0.123,0,0,0,
,0.142,-0.169,1,1.831,-35.767,-18.921,0,0,0,
,0.15,-0.178,0.931,-16.846,-40.039,-26.185,0,0,0,
,0.109,-0.122,0.904,-85.389,-49.134,-40.406,0,0,0,
,0.084,-0.097,0.927,-102.845,-36.866,-38.025,0,0,0,
,0.07,-0.186,1.008,-116.517,-40.406,-42.786,0,0,0,
,0.051,-0.153,1.04,-103.15,-43.702,-35.157,0,0,0,
,0.05,-0.144,1.053,-52.369,-34.607,-26.123,0,0,0,
,0.056,-0.134,1,9.216,-25.086,-24.598,0,0,0,
,0.076,-0.109,1.027,87.219,-15.442,-25.147,0,0,0,
,0.096,-0.138,1.009,144.592,-13.794,-28.565,0,0,0,
,0.109,-0.149,0.995,217.529,-15.442,-30.274,0,0,0,
,0.132,-0.203,1.009,300.109,-1.648,-42.176,0,0,0,
,0.162,-0.309,0.923,211.609,-3.113,-62.256,0,0,0,
,0.13,-0.254,0.844,93.566,-19.593,-64.515,0,0,0,
,0.1,-0.235,0.908,41.992,-34.058,-66.346,0,0,0,
,0.109,-0.266,0.958,48.584,-37.842,-61.28,0,0,0,
,0.108,-0.296,0.975,46.63,-43.763,-63.477,0,0,0,
,0.088,-0.256,0.967,36.315,-52.491,-65.43,0,0,0,
,0.063,-0.213,0.967,23.681,-53.162,-69.336,0,0,0,
,0.06,-0.194,0.978,11.779,-56.153,-63.782,0,0,0,
,0.046,-0.212,0.984,-2.869,-60.73,-62.256,0,0,0,
,0.037,-0.178,0.994,5.615,-63.477,-65.125,0,0,0,
,0.005,-0.191,1.026,6.042,-56.214,-64.515,0,0,0,
,0.011,-0.207,1.009,6.774,-45.716,-68.421,0,0,0,
,0.011,-0.189,0.999,13.366,-35.462,-72.388,0,0,0,
,0.022,-0.193,0.998,17.883,-29.908,-80.14,0,0,0,
,0.026,-0.198,1.005,13.61,-25.208,-87.708,0,0,0,
,0.017,-0.173,1.009,10.803,-18.616,-87.464,0,0,0,
,0.031,-0.189,1.01,36.682,-11.719,-97.596,0,0,0,
,0.039,-0.208,1.016,55.542,-11.475,-107.422,0,0,0,
,0.034,-0.211,1.026,77.453,-9.705,-117.31,0,0,0,
,0.027,-0.213,1.056,85.205,-9.644,-129.456,0,0,0,
,0,-0.182,1.095,85.571,-13.855,-143.555,0,0,0,
,-0.06,-0.126,1.231,270.996,16.662,-253.174,0,0,0,
,0.006,-0.298,1.283,386.108,17.334,-279.602,0,0,0,
,0.005,-0.358,1.124,438.598,-25.513,-281.189,0,0,0,
,-0.087,-0.275,0.969,428.588,-83.374,-265.748,0,0,0,
,-0.271,-0.432,1.011,177.124,-308.045,-264.527,0,0,0,
,-0.239,-0.092,1.083,-10.376,-424.317,-218.323,0,0,0,
,-0.336,-0.095,1.003,-12.33,-453.309,-79.346,0,0,0,
,-0.358,-0.017,0.947,7.751,-425.171,-6.287,0,0,0,
,-0.392,-0.076,0.865,87.89,-364.014,37.17,0,0,0,
,-0.376,-0.168,0.809,80.871,-309.144,51.574,0,0,0,
,-0.337,-0.236,0.661,25.451,-206.055,83.435,0,0,0,
,-0.263,-0.178,0.597,-84.412,-131.409,148.193,0,0,0,
,-0.22,-0.137,0.58,-187.256,-29.297,195.495,0,0,0,
,-0.054,-0.034,0.622,-137.024,219.482,250.915,0,0,0,
,0.044,-0.158,0.68,-5.616,333.496,245.483,0,0,0,
,0.127,-0.336,0.713,83.74,404.48,231.506,0,0,0,
,0.198,-0.408,0.768,61.218,417.602,232.605,0,0,0,
,0.247,-0.421,0.866,44.86,379.15,219.36,0,0,0,
,0.273,-0.359,1.02,380.127,285.217,225.463,0,0,0,
,0.254,-0.381,1.086,717.529,287.292,194.275,0,0,0,
,0.268,-0.649,0.95,909.484,337.585,140.503,0,0,0,
,0.255,-0.816,0.76,704.04,178.405,70.19,0,0,0,
,0.219,-0.774,0.819,340.637,-40.589,103.881,0,0,0,
,0.157,-0.46,1.155,344.787,-190.186,70.8,0,0,0,
,0.013,-0.851,1.008,210.205,-247.315,-20.264,0,0,0,
,-0.216,-0.675,1.001,15.869,-219.483,7.08,0,0,0,
,-0.142,-0.423,0.884,45.837,-145.691,108.642,0,0,0,
,-0.161,-0.349,0.857,87.341,-81.421,159.607,0,0,0,
,-0.145,-0.381,0.787,93.322,-4.395,140.319,0,0,0,
,-0.073,-0.325,0.948,106.14,-9.339,136.963,0,0,0,
,0.011,-0.573,0.98,-25.33,-39.124,100.158,0,0,0,
,-0.054,-0.535,1,-304.322,-62.684,71.899,0,0,0,
,-0.079,-0.417,0.994,-381.226,-52.613,80.322,0,0,0,
,-0.071,-0.433,0.994,-345.948,-1.709,71.106,0,0,0,
,-0.032,-0.408,0.968,-330.018,13.916,50.109,0,0,0,
,-0.03,-0.384,0.947,-373.108,12.207,28.076,0,0,0,
,-0.045,-0.287,0.989,-345.948,-0.367,0.61,0,0,0,
,-0.005,-0.285,1.022,-250.306,7.69,-3.479,0,0,0,
,0.01,-0.314,1.053,-156.983,23.254,-10.254,0,0,0,
,0.042,-0.411,1.044,-105.591,43.884,-8.606,0,0,0,
,0.037,-0.395,0.97,-74.585,51.513,-13.855,0,0,0,
,0.021,-0.374,0.964,-56.824,66.101,-12.696,0,0,0,
,0.019,-0.329,0.944,-32.593,72.265,-13.672,0,0,0,
,0.034,-0.349,0.927,-32.898,74.218,-14.344,0,0,0,
,0.037,-0.346,0.935,-48.829,63.11,-13.123,0,0,0,
,0.031,-0.362,0.913,-75.44,58.41,-7.813,0,0,0,
,0.036,-0.349,0.93,-89.173,44.555,-8.118,0,0,0,
,0.037,-0.343,0.936,-84.534,35.156,-6.165,0,0,0,
,0.043,-0.332,0.949,-75.562,25.634,-6.714,0,0,0,
,0.038,-0.343,0.924,-90.882,14.404,-12.024,0,0,0,
,0.044,-0.317,0.935,-87.281,8.85,-18.616,0,0,0,
,0.051,-0.347,0.979,-69.397,13.794,-18.86,0,0,0,
,0.081,-0.384,0.971,-33.081,27.404,-17.762,0,0,0,
,0.065,-0.358,0.963,-14.344,30.944,-15.992,0,0,0,
,0.076,-0.37,0.928,-3.357,42.236,-22.278,0,0,0,
,0.07,-0.342,0.928,-31.189,40.039,-33.204,0,0,0,
,0.071,-0.292,0.952,-61.951,34.851,-41.993,0,0,0,
,0.041,-0.267,0.973,-33.448,42.114,-43.702,0,0,0,
,0.02,-0.273,0.966,9.826,51.635,-35.95,0,0,0,
,0.022,-0.291,0.975,61.889,59.509,-35.218,0,0,0,
,0.025,-0.355,0.958,59.57,60.913,-33.814,0,0,0,
,0.032,-0.377,0.952,3.601,37.414,-34.424,0,0,0,
,0.012,-0.336,0.949,-37.537,15.991,-31.189,0,0,0,
,-0.007,-0.3,0.956,-52.674,5.432,-21.485,0,0,0,
,-0.012,-0.277,0.972,-31.8,7.019,-1.038,0,0,0,
,0.007,-0.289,0.977,-3.296,14.77,8.422,0,0,0,
,0.028,-0.315,0.968,-15.809,9.338,9.948,0,0,0,
,0.036,-0.312,0.964,-28.87,4.15,10.131,0,0,0,
,0.04,-0.307,0.954,-20.203,3.479,15.014,0,0,0,
,0.049,-0.317,0.941,-23.011,2.502,14.77,0,0,0,
,0.062,-0.339,0.942,-56.275,-7.019,6.042,0,0,0,
,0.049,-0.305,0.951,-72.144,-3.663,5.981,0,0,0,
,0.044,-0.287,0.972,-53.772,6.469,12.695,0,0,0,
,0.059,-0.29,0.982,-36.438,14.099,16.601,0,0,0,
,0.068,-0.308,0.966,-36.011,14.77,13.977,0,0,0,
,0.06,-0.308,0.951,-45.227,9.704,10.253,0,0,0,
,0.054,-0.283,0.945,-35.157,13.244,9.033,0,0,0,
,0.051,-0.303,0.956,-36.316,16.845,5.615,0,0,0,
,0.08,-0.322,0.993,-27.771,20.08,8.117,0,0,0,
,0.096,-0.32,0.996,-12.818,23.559,12.146,0,0,0,
,0.123,-0.318,0.996,9.765,19.47,9.826,0,0,0,
,0.143,-0.314,0.964,47.973,22.888,7.568,0,0,0,
,0.156,-0.313,0.932,96.801,29.907,1.464,0,0,0,
,0.108,-0.313,0.88,51.208,10.681,-20.264,0,0,0,
,0.092,-0.307,0.909,8.361,-1.526,-26.978,0,0,0,
,0.051,-0.277,0.943,-6.226,-11.536,-26.978,0,0,0,
,0.03,-0.278,0.952,1.464,-15.259,-22.706,0,0,0,
,-0.011,-0.297,0.984,0.793,-20.264,-27.1,0,0,0,
,-0.022,-0.287,1.016,7.507,-24.659,-22.278,0,0,0,
,-0.041,-0.273,1.028,-1.221,-31.861,-19.227,0,0,0,
,-0.063,-0.265,1.024,-28.504,-44.8,-15.87,0,0,0,
,-0.09,-0.27,1.015,-53.406,-51.026,-13.306,0,0,0,
,-0.102,-0.261,1.007,-68.97,-51.392,-4.456,0,0,0,
,-0.096,-0.248,1.005,-62.134,-45.716,6.347,0,0,0,
,-0.062,-0.273,0.998,-49.683,-43.824,17.578,0,0,0,
,-0.066,-0.271,1.005,-56.458,-49.073,17.028,0,0,0,
,-0.073,-0.232,1.004,-82.215,-48.096,10.07,0,0,0,
,-0.113,-0.162,0.987,-62.073,-19.41,11.84,0,0,0,
,-0.099,-0.106,0.95,9.399,42.968,43.701,0,0,0,
,-0.051,-0.131,0.897,94.543,121.948,67.382,0,0,0,
,0.059,-0.147,0.824,181.823,196.96,100.647,0,0,0,
,0.24,-0.259,0.786,268.31,201.233,154.602,0,0,0,
,0.363,-0.393,0.92,278.686,123.291,150.451,0,0,0,
,0.603,-0.623,1.269,220.642,-55.115,73.12,0,0,0,
,0.708,-0.592,1.213,112.609,-301.331,-26.673,0,0,0,
,0.739,-0.663,1.143,79.223,-379.944,-94.422,0,0,0,
,0.606,-0.56,1.052,14.587,-437.073,-160.401,0,0,0,
,0.519,-0.516,0.994,-14.405,-459.595,-228.028,0,0,0,
,0.456,-0.502,0.919,-8.179,-442.81,-262.269,0,0,0,
,0.385,-0.485,0.819,0.305,-391.785,-285.462,0,0,0,
,0.322,-0.469,0.766,17.089,-330.506,-282.532,0,0,0,
,0.258,-0.427,0.687,55.603,-254.639,-263.916,0,0,0,
,0.157,-0.325,0.673,113.952,-171.021,-240.54,0,0,0,
,0.104,-0.277,0.638,236.45,-79.346,-217.774,0,0,0,
,0.09,-0.289,0.587,366.394,17.822,-206.971,0,0,0,
,0.012,-0.187,0.546,481.506,102.722,-218.873,0,0,0,
,-0.104,-0.253,0.563,530.456,173.462,-267.823,0,0,0,
,-0.121,-0.422,0.548,477.356,236.145,-289.246,0,0,0,
,-0.177,-0.504,0.582,339.477,228.576,-255.494,0,0,0,
,-0.273,-0.485,0.659,229.187,239.99,-225.647,0,0,0,
,-0.355,-0.446,0.736,199.34,271.24,-198.853,0,0,0,
,-0.379,-0.453,0.827,163.818,296.692,-162.049,0,0,0,
,-0.357,-0.411,0.881,78.979,276.794,-135.804,0,0,0,
,-0.379,-0.328,0.96,48.889,234.741,-96.009,0,0,0,
,-0.388,-0.359,0.979,28.442,183.41,-80.811,0,0,0,
,-0.409,-0.406,1.007,-22.95,121.093,-67.566,0,0,0,
,-0.385,-0.451,1.025,-99.305,72.753,-32.776,0,0,0,
,-0.354,-0.353,1.07,-168.519,23.193,-6.897,0,0,0,
,-0.335,-0.292,1.042,-205.811,2.014,8.606,0,0,0,
,-0.33,-0.258,1.009,-208.374,-20.325,25.146,0,0,0,
,-0.287,-0.292,0.981,-246.705,-22.828,37.109,0,0,0,
,-0.236,-0.317,0.942,-351.136,-22.217,46.203,0,0,0,
,-0.18,-0.288,0.993,-412.232,8.789,36.621,0,0,0,
,-0.149,-0.289,0.999,-387.879,73.425,33.386,0,0,0,
,-0.127,-0.321,0.944,-338.318,109.68,57.128,0,0,0,
,0.059,-0.187,1.176,-223.999,-16.785,57.067,0,0,0,
,-0.017,-0.54,1.191,-336.06,-86.365,-58.106,0,0,0,
,-0.067,-0.358,1.069,-642.945,-111.206,-39.856,0,0,0,
,-0.182,-0.023,0.904,-574.28,-41.321,40.466,0,0,0,
,-0.071,-0.018,0.902,-292.908,27.221,90.576,0,0,0,
,-0.093,-0.166,0.95,-126.16,39.245,80.993,0,0,0,
,-0.104,-0.249,1.017,-162.964,38.086,39.428,0,0,0,
,-0.099,-0.147,1.131,-98.755,37.902,49.255,0,0,0,
,-0.129,-0.143,1.184,82.702,69.641,69.519,0,0,0,
,-0.09,-0.165,1.152,238.769,128.173,93.078,0,0,0,
,0.004,-0.323,1.049,206.848,124.511,95.153,0,0,0,
,0.008,-0.355,0.974,-2.808,62.927,65.124,0,0,0,
,-0.002,-0.31,0.936,-160.645,16.906,20.996,0,0,0,
,-0.007,-0.246,0.91,-194.519,7.629,8.789,0,0,0,
,-0.014,-0.174,0.926,-171.753,38.086,9.521,0,0,0,
,-0.01,-0.15,0.978,-127.076,67.443,16.601,0,0,0,
,-0.006,-0.32,1.038,-112.427,55.664,4.943,0,0,0,
,0,-0.3,1.067,-140.198,21.362,2.38,0,0,0,
,-0.017,-0.269,1.072,-113.709,-4.639,0.305,0,0,0,
,-0.018,-0.208,1.002,-55.359,-9.095,1.159,0,0,0,
,-0.04,-0.146,0.948,14.892,-1.404,3.601,0,0,0,
,-0.033,-0.126,0.936,104.309,10.803,7.385,0,0,0,
,-0.015,-0.139,0.927,198.791,40.161,13.366,0,0,0,
,0.015,-0.246,0.944,228.942,76.721,21.423,0,0,0,
,0.045,-0.345,0.936,145.874,67.321,7.385,0,0,0,
,0.047,-0.372,0.955,9.765,29.052,-12.146,0,0,0,
,0.029,-0.288,0.992,-86.243,-2.198,-14.222,0,0,0,
,0.01,-0.243,1.024,-59.144,14.587,-2.991,0,0,0,
,0.009,-0.24,1.01,6.408,22.949,5.615,0,0,0,
,0.018,-0.259,0.981,33.142,31.494,5.493,0,0,0,
,0.014,-0.293,0.968,28.015,34.79,1.831,0,0,0,
,0.03,-0.314,0.956,11.596,29.174,1.648,0,0,0,
,0.032,-0.282,0.935,-30.762,12.573,-2.442,0,0,0,
,0.027,-0.246,0.951,-40.406,7.629,-3.724,0,0,0,
,0.015,-0.224,0.964,-15.015,10.009,2.685,0,0,0,
,0.02,-0.259,0.993,3.356,12.146,2.38,0,0,0,
,0.031,-0.28,0.971,-8.545,3.112,3.173,0,0,0,
,0.025,-0.297,0.99,-25.086,0.427,2.258,0,0,0,
,0.031,-0.277,0.99,-12.574,4.699,-2.991,0,0,0,
,0.023,-0.269,0.97,-13.123,4.943,-9.888,0,0,0,
,0.015,-0.261,0.968,-19.715,5.188,-14.954,0,0,0,
,0.008,-0.241,0.971,-23.011,3.845,-11.719,0,0,0,
,0.024,-0.254,0.973,-29.358,-1.038,-5.31,0,0,0,
,0.016,-0.244,0.998,-41.626,-4.456,-8.912,0,0,0,
,-0.004,-0.211,1.002,-31.25,5.065,-3.663,0,0,0,
,-0.014,-0.193,0.997,11.596,18.676,4.882,0,0,0,
,-0.005,-0.236,0.972,32.898,22.583,17.761,0,0,0,
,0.009,-0.256,0.971,8.911,11.047,21.118,0,0,0,
,0.017,-0.271,0.977,-20.203,-4.456,19.165,0,0,0,
,0.004,-0.238,0.992,-42.42,-15.625,18.615,0,0,0,
,-0.002,-0.228,0.993,-29.969,-18.616,24.108,0,0,0,
,0.009,-0.255,0.972,-16.846,-17.64,26.001,0,0,0,
,0.015,-0.25,0.982,-30.457,-13.855,20.507,0,0,0,
,0.022,-0.242,0.987,-38.392,-7.935,17.883,0,0,0,
,0.007,-0.218,0.989,-50.782,-5.799,12.451,0,0,0,
,-0.006,-0.201,1.005,-35.828,0.732,16.235,0,0,0,
,-0.006,-0.209,0.988,-19.959,6.469,20.752,0,0,0,
,0.009,-0.233,0.999,-18.738,7.385,21.545,0,0,0,
,0.014,-0.239,1.009,-22.156,5.432,28.747,0,0,0,
,0.009,-0.22,0.991,-13.611,9.216,29.357,0,0,0,
,0.01,-0.215,0.956,-11.841,10.07,31.799,0,0,0,
,0.011,-0.223,0.965,-19.043,10.192,32.775,0,0,0,
,0.013,-0.224,0.98,-32.471,10.62,33.508,0,0,0,
,0.008,-0.207,0.99,-33.631,14.648,39.062,0,0,0,
,-0.003,-0.2,1.002,-17.334,19.775,44.616,0,0,0,
,-0.004,-0.192,1.002,7.019,25.024,48.156,0,0,0,
,0.01,-0.216,0.993,4.089,21.057,47.18,0,0,0,
,0.01,-0.201,0.971,-30.152,10.62,46.081,0,0,0,
,-0.007,-0.181,0.982,-54.993,3.723,52.185,0,0,0,
,-0.012,-0.162,0.992,-48.523,7.263,58.776,0,0,0,
,-0.02,-0.159,0.986,-26.673,10.131,62.255,0,0,0,
,-0.02,-0.161,0.982,-17.518,8.606,69.091,0,0,0,
,-0.022,-0.17,0.973,-14.832,10.315,77.026,0,0,0,
,-0.017,-0.166,0.959,-22.828,16.784,80.261,0,0,0,
,-0.019,-0.146,0.937,-27.405,27.526,86.792,0,0,0,
,-0.014,-0.13,0.968,-10.498,36.56,96.618,0,0,0,
,0.009,-0.189,0.968,20.507,57.251,96.557,0,0,0,
,0.016,-0.204,0.972,13.549,59.997,94.482,0,0,0,
,0.057,-0.232,1.009,-7.447,43.884,85.998,0,0,0,
,0.059,-0.251,1.06,-78.309,18.981,71.167,0,0,0,
,0.041,-0.186,1.053,-74.463,14.77,85.144,0,0,0,
,0.051,-0.206,1.044,-14.161,27.832,85.876,0,0,0,
,0.077,-0.213,1.012,-5.738,23.315,70.556,0,0,0,
,0.065,-0.216,0.99,-19.593,3.356,69.091,0,0,0,
,0.021,-0.164,0.965,-31.556,-11.475,65.124,0,0,0,
,0.004,-0.156,0.957,-26.185,-18.433,55.053,0,0,0,
,-0.03,-0.126,0.998,-35.828,-27.527,43.823,0,0,0,
,-0.044,-0.087,1.013,-17.456,-28.443,41.198,0,0,0,
,-0.04,-0.095,0.991,13.916,-42.908,65.246,0,0,0,
,-0.08,-0.133,1.022,-21.546,-75.989,78.918,0,0,0,
,-0.137,-0.108,1.043,-62.256,-71.595,78.491,0,0,0,
,-0.167,-0.044,1.058,-23.255,-32.349,87.341,0,0,0,
,-0.17,0.007,1.017,30.456,18.493,74.218,0,0,0,
,-0.174,0.054,0.925,63.964,62.194,37.17,0,0,0,
,-0.125,0.008,0.967,101.318,5.676,96.557,0,0,0,
,0.047,-0.106,1.01,242.309,-7.874,-6.653,0,0,0,
,-0.052,-0.496,0.929,-90.516,-26.429,-56.763,0,0,0,
,-0.009,-0.159,1.148,-190.125,-52.918,-9.888,0,0,0,
,0.06,-0.171,1.175,45.898,-20.569,23.132,0,0,0,
,0.181,-0.423,1.146,166.626,33.752,-20.02,0,0,0,
,0.341,-0.495,1.223,273.437,-32.898,-34.729,0,0,0,
,0.3,-0.601,1.255,264.77,-121.155,-38.636,0,0,0,
,0.251,-0.583,1.2,125.122,-179.444,-99.61,0,0,0,
,0.256,-0.499,1.135,52.429,-221.192,-177.308,0,0,0,
,0.175,-0.393,1.078,33.935,-236.145,-234.253,0,0,0,
,0.095,-0.28,0.989,37.536,-223.938,-281.373,0,0,0,
,0.04,-0.272,0.898,42.663,-202.576,-344.178,0,0,0,
,-0.003,-0.316,0.852,81.726,-178.589,-358.704,0,0,0,
,-0.081,-0.272,0.861,98.632,-139.71,-360.291,0,0,0,
,-0.143,-0.246,0.857,132.08,-71.412,-398.499,0,0,0,
,-0.179,-0.259,0.828,180.847,8.667,-454.041,0,0,0,
,-0.198,-0.239,0.825,178.466,95.52,-519.715,0,0,0,
,-0.212,-0.246,0.805,152.404,182.312,-612.305,0,0,0,
,-0.207,-0.263,0.773,136.352,255.432,-671.753,0,0,0,
,-0.186,-0.235,0.763,88.623,307.006,-725.037,0,0,0,
,-0.167,-0.21,0.838,-20.935,351.562,-765.992,0,0,0,
,-0.129,-0.208,0.883,-191.04,390.014,-770.874,0,0,0,
,-0.079,-0.159,0.894,-355.042,384.948,-817.994,0,0,0,
,-0.073,-0.125,0.867,-346.558,385.437,-870.484,0,0,0,
,-0.089,-0.036,0.826,-311.341,365.478,-887.391,0,0,0,
,-0.131,-0.11,0.843,-144.959,369.262,-954.407,0,0,0,
,-0.17,-0.16,0.878,48.339,385.131,-876.526,0,0,0,
,-0.163,-0.314,0.884,54.931,421.386,-798.584,0,0,0,
,-0.109,-0.49,0.913,-112.305,418.579,-778.931,0,0,0,
,-0.051,-0.429,0.961,-366.211,364.929,-704.224,0,0,0,
,-0.038,-0.213,0.973,-457.703,333.679,-621.033,0,0,0,
,-0.017,-0.062,0.952,-377.808,331.482,-563.477,0,0,0,
,0.009,-0.034,0.951,-304.566,316.528,-546.814,0,0,0,
,0.033,-0.01,0.981,-187.317,307.678,-535.34,0,0,0,
,0.081,-0.133,0.977,-125.611,293.335,-485.291,0,0,0,
,0.148,-0.186,0.955,-120.301,290.466,-423.89,0,0,0,
,0.187,-0.179,0.998,-138.001,218.567,-338.623,0,0,0,
,0.212,-0.114,1.025,-89.966,168.701,-284.058,0,0,0,
,0.221,-0.154,1.047,17.517,140.686,-251.709,0,0,0,
,0.215,-0.225,1.038,64.086,113.281,-222.718,0,0,0,
,0.205,-0.215,1.015,26.367,85.876,-171.998,0,0,0,
,0.202,-0.174,0.971,-4.517,69.213,-130.799,0,0,0,
,0.207,-0.142,0.944,3.967,62.316,-89.905,0,0,0,
,0.193,-0.168,0.929,23.254,73.913,-67.139,0,0,0,
,0.174,-0.143,0.943,50.415,62.622,-48.706,0,0,0,
,0.182,-0.146,0.928,67.871,101.684,-27.222,0,0,0,
,0.192,-0.172,0.909,71.35,127.685,-30.579,0,0,0,
,0.206,-0.16,0.938,44.616,126.037,-38.453,0,0,0,
,0.217,-0.203,0.968,-6.165,136.657,-42.969,0,0,0,
,0.224,-0.216,0.976,-55.848,138.366,-41.993,0,0,0,
,0.199,-0.205,0.967,-48.89,152.832,-21.363,0,0,0,
,0.201,-0.158,0.991,53.466,165.039,-29.48,0,0,0,
,0.264,-0.225,0.999,53.955,151.855,-21.851,0,0,0,
,0.279,-0.274,1.043,-28.504,79.956,-67.81,0,0,0,
,0.23,-0.257,1.043,-171.021,45.105,-87.098,0,0,0,
,0.162,-0.254,0.9,-280.945,58.715,-85.389,0,0,0,
,0.137,-0.145,0.887,-309.082,50.231,-94.849,0,0,0,
,0.112,-0.063,0.845,-326.539,54.687,-49.683,0,0,0,
,0.047,-0.048,0.833,-277.771,91.003,-40.65,0,0,0,
,0.04,0.036,0.87,-216.919,131.775,-47.974,0,0,0,
,0.115,0.107,0.977,-96.619,168.762,-49.195,0,0,0,
,0.183,0.08,1.042,62.377,178.161,-49.988,0,0,0,
,0.228,-0.143,1.077,97.656,175.598,-64.82,0,0,0,
,0.337,-0.244,1.3,-4.456,62.5,-95.154,0,0,0,
,0.33,-0.356,1.24,-196.167,-9.217,-84.168,0,0,0,
,0.208,-0.089,1.116,-247.315,-64.393,6.347,0,0,0,
,0.145,0.034,0.978,-104.371,-34.119,8.911,0,0,0,
,0.202,-0.04,0.924,-31.25,-14.832,-15.442,0,0,0,
,0.191,-0.046,0.895,-94.117,-16.48,-15.564,0,0,0,
,0.176,-0.012,0.898,-128.724,3.906,-37.964,0,0,0,
,0.235,0.051,0.978,-81.604,9.338,-25.025,0,0,0,
,0.234,-0.043,1.014,-15.564,28.381,-58.716,0,0,0,
,0.25,-0.063,1.049,-17.151,33.752,-49.5,0,0,0,
,0.229,-0.057,0.988,-40.101,35.888,-40.345,0,0,0,
,0.24,-0.07,0.97,-65.674,26.672,-44.373,0,0,0,
,0.245,-0.061,0.966,-80.567,20.874,-51.819,0,0,0,
,0.223,-0.031,0.956,-89.051,15.197,-51.88,0,0,0,
,0.191,0,0.927,-54.261,24.536,-59.327,0,0,0,
,0.178,0.012,0.931,-20.508,40.527,-53.162,0,0,0,
,0.187,-0.026,0.95,-15.198,46.02,-56.946,0,0,0,
,0.196,-0.042,0.989,-18.86,44.128,-49.927,0,0,0,
,0.213,-0.055,1.026,-39.368,34.79,-47.181,0,0,0,
,0.208,-0.018,1.015,-41.016,37.597,-41.382,0,0,0,
,0.223,-0.003,1.012,-21.79,41.381,-48.829,0,0,0,
,0.234,-0.012,0.987,-15.198,48.645,-56.824,0,0,0,
,0.235,-0.013,0.957,-23.56,57.617,-64.759,0,0,0,
,0.233,-0.009,0.934,-25.452,62.683,-68.848,0,0,0,
,0.243,0.006,0.935,-34.729,57.19,-78.248,0,0,0,
,0.246,0.03,0.952,-39.551,35.644,-82.276,0,0,0,
,0.201,0.035,0.927,-81.91,4.272,-78.003,0,0,0,
,0.141,-0.003,0.912,-164.185,-49.134,-67.505,0,0,0,
,0.1,-0.015,0.936,-197.083,-109.131,-39.063,0,0,0,
,0.067,-0.027,1.023,-125.794,-138.367,-9.705,0,0,0,
,0.088,-0.048,1.027,-87.342,-128.968,24.841,0,0,0,
,0.082,-0.049,1.033,-51.026,-99.61,57.251,0,0,0,
,0.08,0.031,1.028,-30.152,-66.59,96.984,0,0,0,
,0.103,0.041,0.957,15.686,-24.842,102.722,0,0,0,
,0.145,0.045,0.866,83.496,21.728,133.606,0,0,0,
,0.332,0.134,1.079,270.385,-41.932,135.681,0,0,0,
,0.344,0.075,1.192,412.78,-63.538,182.373,0,0,0,
,0.356,-0.189,1.096,318.725,-91.614,110.412,0,0,0,
,0.372,-0.244,1.084,173.095,-106.629,89.233,0,0,0,
,0.406,-0.053,1.128,194.03,-153.809,104.431,0,0,0,
,0.456,-0.11,1.167,283.569,-187.745,39.245,0,0,0,
,0.468,-0.221,1.142,281.005,-216.37,-21.851,0,0,0,
,0.479,-0.238,1.161,240.783,-224.793,-61.036,0,0,0,
,0.513,-0.225,1.112,190.246,-225.098,-93.262,0,0,0,
,0.526,-0.227,1.059,115.478,-229.248,-141.358,0,0,0,
,0.528,-0.193,1.031,54.443,-240.296,-178.284,0,0,0,
,0.507,-0.108,1.013,50.964,-237.549,-200.745,0,0,0,
,0.494,-0.065,0.989,81.176,-209.046,-229.859,0,0,0,
,0.504,-0.065,0.956,119.629,-180.054,-252.625,0,0,0,
,0.531,-0.087,0.877,166.87,-169.495,-257.508,0,0,0,
,0.533,-0.108,0.788,179.199,-170.411,-266.175,0,0,0,
,0.464,-0.122,0.773,137.451,-186.158,-310.486,0,0,0,
,0.386,-0.075,0.76,69.58,-192.566,-330.567,0,0,0,
,0.345,-0.053,0.726,76.049,-183.777,-343.995,0,0,0,
,0.278,-0.07,0.717,128.296,-171.509,-338.623,0,0,0,
,0.189,-0.125,0.704,182.19,-144.959,-332.52,0,0,0,
,0.096,-0.169,0.726,170.41,-109.192,-330.445,0,0,0,
,-0.008,-0.162,0.74,158.081,-67.505,-291.932,0,0,0,
,-0.126,-0.086,0.804,138.488,-25.147,-225.22,0,0,0,
,-0.231,-0.012,0.82,120.605,36.865,-160.279,0,0,0,
,-0.289,0.056,0.804,170.227,80.322,-106.69,0,0,0,
,-0.294,0.087,0.836,187.683,111.877,-85.206,0,0,0,
,-0.304,0.034,0.922,191.101,115.6,-45.899,0,0,0,
,-0.403,-0.007,0.987,168.823,129.15,-7.569,0,0,0,
,-0.485,-0.027,1.006,113.159,157.592,37.292,0,0,0,
,-0.532,-0.048,0.995,12.085,173.339,73.913,0,0,0,
,-0.534,0.042,1.039,-118.287,163.086,144.653,0,0,0,
,-0.554,0.188,1.048,-110.169,172.668,246.093,0,0,0,
,-0.549,0.228,1.053,6.225,177.185,319.58,0,0,0,
,-0.449,0.108,1.048,140.258,191.223,373.047,0,0,0,
,-0.35,-0.076,1.105,144.348,180.42,416.87,0,0,0,
,-0.205,-0.212,1.125,151.306,178.222,456.421,0,0,0,
,-0.044,-0.282,1.11,103.515,163.147,493.408,0,0,0,
,0.103,-0.316,1.098,56.335,135.559,506.958,0,0,0,
,0.188,-0.315,1.074,30.944,114.135,504.882,0,0,0,
,0.258,-0.289,1.068,25.573,102.661,487.426,0,0,0,
,0.34,-0.312,1.053,69.641,103.515,447.082,0,0,0,
,0.41,-0.331,0.976,150.146,114.929,397.277,0,0,0,
,0.424,-0.365,0.893,112.854,116.821,343.017,0,0,0,
,0.422,-0.377,0.85,20.629,110.351,298.706,0,0,0,
,0.378,-0.389,0.825,-95.52,124.45,246.276,0,0,0,
,0.35,-0.362,0.774,-183.045,147.583,187.744,0,0,0,
,0.377,-0.212,0.802,-203.553,149.963,119.812,0,0,0,
,0.535,-0.164,1.219,-138.855,-75.257,55.053,0,0,0,
,0.346,-0.277,1.171,-274.414,-112.793,-2.198,0,0,0,
,0.245,-0.104,0.976,-316.956,-143.616,-43.396,0,0,0,
,0.202,-0.024,0.938,-164.49,-109.681,-44.739,0,0,0,
,0.184,-0.112,0.889,-140.931,-92.408,-108.338,0,0,0,
,0.199,-0.147,0.974,-160.462,-42.176,-92.591,0,0,0,
,0.169,-0.064,1.034,-59.51,31.066,-21.058,0,0,0,
,0.154,-0.077,1.097,127.075,64.453,18.615,0,0,0,
,0.176,-0.253,1.058,176.574,79.895,24.047,0,0,0,
,0.211,-0.275,1.02,80.2,51.269,33.386,0,0,0,
,0.212,-0.199,0.99,-41.81,20.507,30.273,0,0,0,
,0.24,-0.094,0.949,-33.997,8.911,27.038,0,0,0,
,0.242,-0.128,0.927,-14.832,18.615,5.676,0,0,0,
,0.228,-0.111,0.917,-9.766,30.151,8.972,0,0,0,
,0.221,-0.063,0.897,3.173,42.846,5.798,0,0,0,
,0.211,-0.115,0.936,-4.761,50.476,-5.555,0,0,0,
,0.192,-0.146,0.96,-26.246,52.551,-12.085,0,0,0,
,0.166,-0.119,1.009,-9.461,51.879,-18.311,0,0,0,
,0.164,-0.147,1.024,6.347,48.767,-18.067,0,0,0,
,0.157,-0.154,1.02,3.051,47.851,-20.203,0,0,0,
,0.151,-0.151,0.996,-2.198,51.574,-24.903,0,0,0,
,0.189,-0.141,1.004,-37.598,48.156,-35.34,0,0,0,
,0.2,-0.111,0.977,-47.913,40.1,-32.105,0,0,0,
,0.196,-0.091,0.931,-38.514,43.09,-29.969,0,0,0,
,0.156,-0.103,0.931,-23.133,39.917,-39.551,0,0,0,
,0.193,-0.151,0.974,-10.498,37.902,-42.42,0,0,0,
,0.194,-0.131,1.002,-17.456,32.898,-33.57,0,0,0,
,0.169,-0.096,0.978,-54.261,10.986,-13.123,0,0,0,
,0.17,-0.085,0.968,-31.434,7.629,-12.452,0,0,0,
,0.173,-0.115,0.966,-19.471,-0.306,-2.503,0,0,0,
,0.17,-0.113,0.97,-15.686,-12.574,1.525,0,0,0,
,0.165,-0.111,0.98,-28.077,-20.997,11.291,0,0,0,
,0.158,-0.085,0.972,-15.32,-27.894,15.502,0,0,0,
,0.169,-0.109,0.982,-2.625,-29.969,17.883,0,0,0,
,0.166,-0.098,0.976,-19.837,-35.95,23.132,0,0,0,
,0.164,-0.078,0.994,-0.245,-31.128,22.949,0,0,0,
,0.173,-0.113,1.016,25.878,-23.377,32.47,0,0,0,
,0.188,-0.102,1,13.732,-26.612,39.489,0,0,0,
,0.204,-0.103,0.931,38.696,-5.86,17.15,0,0,0,
,0.219,-0.11,0.934,28.015,2.624,10.986,0,0,0,
,0.209,-0.11,0.947,1.648,6.225,10.498,0,0,0,
,0.225,-0.122,0.959,2.441,3.784,11.047,0,0,0,
,0.204,-0.118,0.954,-11.475,0.305,11.413,0,0,0,
,0.167,-0.101,0.979,-8.545,-10.56,10.742,0,0,0,
,0.175,-0.105,0.983,-6.531,-9.583,15.747,0,0,0,
,0.153,-0.102,0.985,-7.325,-10.376,14.831,0,0,0,
,0.158,-0.106,0.985,-24.903,-13.062,16.723,0,0,0,
,0.137,-0.092,0.984,-24.109,-18.433,12.573,0,0,0,
,0.134,-0.085,0.97,2.197,-21.119,12.085,0,0,0,
,0.119,-0.077,0.966,15.808,-26.246,12.756,0,0,0,
,0.129,-0.072,0.967,10.559,-34.241,11.291,0,0,0,
,0.151,-0.09,0.972,-1.465,-39.917,12.207,0,0,0,
,0.159,-0.101,0.971,-12.635,-37.842,15.441,0,0,0,
,0.176,-0.09,0.967,-5.738,-36.622,13.366,0,0,0,
,0.173,-0.082,0.971,-0.306,-33.997,2.136,0,0,0,
,0.189,-0.065,0.982,14.831,-31.25,-7.019,0,0,0,
,0.192,-0.076,0.979,32.959,-25.696,-23.316,0,0,0,
,0.173,-0.086,0.983,32.959,-18.86,-46.875,0,0,0,
,0.251,0.062,1.239,203.003,-112,-56.885,0,0,0,
,0.162,-0.184,1.119,220.52,-73.975,-107.972,0,0,0,
,0.057,0.011,1.04,104.858,-54.322,-106.873,0,0,0,
,0.076,0.139,0.983,194.275,-39.856,-141.663,0,0,0,
,0.046,-0.109,0.986,248.962,-41.565,-160.279,0,0,0,
,-0.009,-0.128,0.956,251.159,-31.067,-122.925,0,0,0,
,0.043,0.001,1.187,348.755,-98.206,-53.406,0,0,0,
,-0.037,-0.19,1.174,475.83,-121.644,-76.233,0,0,0,
,-0.05,-0.376,1.323,411.438,-219.971,-79.529,0,0,0,
,-0.087,-0.225,1.33,315.918,-290.955,-57.312,0,0,0,
,-0.156,-0.409,1.26,117.859,-362.977,-96.68,0,0,0,
,-0.207,-0.303,1.224,-72.327,-412.049,-110.047,0,0,0,
,-0.256,-0.154,1.158,-57.251,-408.875,-71.106,0,0,0,
,-0.296,-0.17,1.088,10.62,-372.01,-58.655,0,0,0,
,-0.334,-0.213,1.033,16.479,-326.966,-51.453,0,0,0,
,-0.344,-0.174,0.991,-9.278,-280.762,-33.692,0,0,0,
,-0.334,-0.136,0.95,-23.072,-221.314,-13.062,0,0,0,
,-0.311,-0.126,0.89,-56.458,-171.082,14.526,0,0,0,
,-0.294,-0.104,0.872,-92.957,-129.7,23.864,0,0,0,
,-0.268,-0.076,0.857,-102.356,-92.896,41.809,0,0,0,
,-0.24,-0.073,0.834,-77.271,-49.866,62.255,0,0,0,
,-0.218,-0.088,0.828,-39.856,-4.395,81.115,0,0,0,
,-0.188,-0.111,0.825,-21.424,45.837,96.801,0,0,0,
,-0.146,-0.103,0.823,-39.673,88.928,106.323,0,0,0,
,-0.105,-0.084,0.817,-52.43,120.605,114.441,0,0,0,
,-0.055,-0.096,0.826,-20.142,137.695,120.117,0,0,0,
,-0.007,-0.128,0.826,18.615,148.62,126.342,0,0,0,
,0.014,-0.147,0.861,36.865,153.869,117.859,0,0,0,
,0.031,-0.174,0.857,19.104,166.381,113.098,0,0,0,
,0.076,-0.192,0.857,5.981,172.912,114.196,0,0,0,
,0.107,-0.215,0.857,-20.813,169.067,133.606,0,0,0,
,0.135,-0.24,0.904,-43.519,167.114,155.029,0,0,0,
,0.149,-0.233,0.954,-62.317,163.513,174.621,0,0,0,
,0.149,-0.216,0.984,-1.282,169.067,201.721,0,0,0,
,0.139,-0.186,0.966,113.647,179.016,193.786,0,0,0,
,0.128,-0.165,0.946,214.904,179.504,175.659,0,0,0,
,0.14,-0.178,0.94,258.667,169.922,146.789,0,0,0,
,0.177,-0.193,0.908,224.243,154.113,106.384,0,0,0,
,0.222,-0.181,0.91,158.081,107.422,46.997,0,0,0,
,0.245,-0.15,0.948,116.699,56.457,26.245,0,0,0,
,0.25,-0.133,0.983,128.296,41.565,5.371,0,0,0,
,0.237,-0.156,0.991,187.255,48.156,-34.852,0,0,0,
,0.223,-0.206,0.965,188.659,78.613,-75.44,0,0,0,
,0.234,-0.223,0.954,168.579,108.215,-89.844,0,0,0,
,0.248,-0.251,0.892,122.68,129.028,-106.507,0,0,0,
,0.239,-0.271,0.879,109.314,128.173,-134.4,0,0,0,
,0.219,-0.284,0.875,110.412,109.985,-134.705,0,0,0,
,0.212,-0.329,0.947,93.811,99.914,-114.93,0,0,0,
,0.225,-0.327,0.939,36.438,108.032,-102.417,0,0,0,
,0.233,-0.336,0.911,-23.011,101.074,-89.417,0,0,0,
,0.248,-0.318,0.921,-24.353,109.985,-83.252,0,0,0,
,0.223,-0.255,0.933,20.874,123.23,-49.317,0,0,0,
,0.218,-0.232,0.918,61.34,162.841,-81.421,0,0,0,
,0.264,-0.34,0.902,-11.414,181.03,-86.487,0,0,0,
,0.264,-0.304,0.874,-123.23,164.917,-74.707,0,0,0,
,0.245,-0.238,0.834,-176.087,166.504,-89.051,0,0,0,
,0.236,-0.189,0.899,-170.838,140.014,-63.843,0,0,0,
,0.434,-0.195,0.897,-200.806,54.138,-60.181,0,0,0,
,0.35,-0.501,0.759,-533.326,-69.092,-131.165,0,0,0,
,0.322,-0.162,0.782,-755.127,-239.136,-55.664,0,0,0,
,0.401,0.074,0.984,-651.917,-245.301,-57.19,0,0,0,
,0.302,-0.1,1.302,-288.208,-106.934,-46.631,0,0,0,
,0.261,-0.084,1.413,-28.077,0.366,30.273,0,0,0,
,0.24,-0.08,1.356,137.268,30.029,-7.203,0,0,0,
,0.187,-0.297,1.237,97.595,19.47,-53.101,0,0,0,
,0.146,-0.364,1.044,-30.152,2.929,-46.57,0,0,0,
,0.131,-0.176,0.946,-114.869,7.568,-17.579,0,0,0,
,0.125,-0.037,0.953,-86.792,26.245,-17.395,0,0,0,
,0.131,-0.037,0.959,-11.536,48.767,-26.001,0,0,0,
,0.153,-0.078,0.955,-3.724,52.246,-40.65,0,0,0,
,0.159,-0.155,0.945,0.549,53.955,-54.017,0,0,0,
,0.191,-0.179,0.981,-27.955,35.583,-50.171,0,0,0,
,0.187,-0.181,0.967,-66.895,10.803,-44.617,0,0,0,
,0.164,-0.169,0.969,-64.087,11.413,-40.345,0,0,0,
,0.161,-0.09,0.954,-25.086,15.075,-27.527,0,0,0,
,0.171,-0.125,0.964,9.033,10.498,-43.335,0,0,0,
,0.173,-0.168,0.944,-1.709,1.525,-41.26,0,0,0,
,0.147,-0.143,0.963,-13.184,-5.555,-32.227,0,0,0,
,0.14,-0.141,0.972,12.39,-2.137,-25.33,0,0,0,
,0.137,-0.147,0.976,28.93,-5.249,-20.447,0,0,0,
,0.113,-0.166,0.976,39.123,-7.447,-17.09,0,0,0,
,0.119,-0.176,1.002,29.357,-10.682,-19.288,0,0,0,
,0.135,-0.184,1.017,14.648,-20.447,-12.635,0,0,0,
,0.134,-0.161,1.011,2.258,-22.339,-8.118,0,0,0,
,0.132,-0.121,0.992,16.357,-14.222,-2.747,0,0,0,
,0.141,-0.141,0.984,32.226,4.211,-8.728,0,0,0,
,0.181,-0.136,0.984,17.7,13.671,-9.217,0,0,0,
,0.171,-0.113,1.008,7.08,25.146,-13.916,0,0,0,
,0.19,-0.127,0.999,10.864,31.066,-17.823,0,0,0,
,0.217,-0.143,0.981,-14.588,28.869,-21.851,0,0,0,
,0.214,-0.128,0.971,-29.236,36.743,-20.997,0,0,0,
,0.22,-0.116,0.975,-24.048,42.968,-22.461,0,0,0,
,0.233,-0.126,0.972,-8.545,48.767,-25.269,0,0,0,
,0.224,-0.122,0.952,-16.907,45.288,-29.969,0,0,0,
,0.214,-0.125,0.953,-25.452,38.635,-31.128,0,0,0,
,0.217,-0.114,0.932,-26.917,37.841,-29.297,0,0,0,
,0.209,-0.118,0.939,-26.001,34.729,-32.044,0,0,0,
,0.184,-0.126,0.961,-3.235,36.499,-26.673,0,0,0,
,0.18,-0.157,0.974,20.874,34.362,-19.898,0,0,0,
,0.174,-0.168,0.988,29.235,31.066,-16.846,0,0,0,
,0.17,-0.158,0.987,38.024,36.499,-10.437,0,0,0,
,0.172,-0.169,0.972,37.78,41.259,-6.775,0,0,0,
,0.161,-0.159,0.979,21.179,43.457,-4.334,0,0,0,
,0.147,-0.138,0.986,14.343,48.339,-0.245,0,0,0,
,0.143,-0.137,0.972,9.582,55.542,-0.123,0,0,0,
,0.159,-0.149,1.026,-24.231,38.269,-11.048,0,0,0,
,0.171,-0.17,1.002,-53.223,28.076,-8.973,0,0,0,
,0.179,-0.146,0.982,-45.35,25.512,-5.249,0,0,0,
,0.207,-0.16,0.97,-24.048,17.822,-10.193,0,0,0,
,0.19,-0.129,0.954,-36.866,8.85,-14.649,0,0,0,
,0.2,-0.107,0.968,-15.259,3.051,-26.185,0,0,0,
,0.223,-0.122,0.961,18.127,2.441,-37.964,0,0,0,
,0.238,-0.127,0.976,51.269,-15.198,-49.561,0,0,0,
,0.214,-0.108,0.951,115.844,-23.804,-62.684,0,0,0,
,0.183,-0.083,0.956,172.668,-26.795,-90.455,0,0,0,
,0.158,-0.029,1.005,271.789,-28.321,-112.732,0,0,0,
,0.155,-0.095,1.026,330.505,-41.565,-147.522,0,0,0,
,0.136,-0.152,0.934,343.689,-70.252,-154.541,0,0,0,
,0.082,-0.202,0.902,335.937,-92.347,-165.345,0,0,0,
,0.083,-0.26,1.038,431.64,-138.245,-161.744,0,0,0,
,0.056,-0.306,1.186,523.62,-209.412,-149.17,0,0,0,
,-0.104,-0.469,1.247,306.884,-279.297,-171.387,0,0,0,
,-0.122,-0.515,1.259,308.044,-298.462,-174.5,0,0,0,
,-0.188,-0.571,1.204,171.997,-322.815,-193.848,0,0,0,
,-0.237,-0.463,1.151,53.1,-338.562,-197.327,0,0,0,
,-0.283,-0.392,1.12,46.63,-329.041,-179.322,0,0,0,
,-0.311,-0.423,1.08,32.287,-297.242,-153.199,0,0,0,
,-0.313,-0.401,1.02,-13.489,-255.738,-110.291,0,0,0,
,-0.296,-0.297,0.916,-39.612,-201.722,-68.97,0,0,0,
,-0.262,-0.207,0.847,-63.721,-155.03,-50.904,0,0,0,
,-0.207,-0.203,0.812,-115.54,-125.367,-34.79,0,0,0,
,-0.156,-0.219,0.776,-192.933,-89.234,-15.015,0,0,0,
,-0.103,-0.19,0.779,-244.263,-52.247,19.958,0,0,0,
,-0.026,-0.183,0.764,-240.845,-2.93,58.654,0,0,0,
,0.043,-0.197,0.768,-207.764,58.471,110.656,0,0,0,
,0.101,-0.157,0.756,-187.317,117.675,168.335,0,0,0,
,0.197,-0.055,0.731,-153.077,153.869,220.886,0,0,0,
,0.342,-0.021,0.696,-135.498,171.814,233.154,0,0,0,
,0.391,-0.089,0.707,-162.537,156.86,213.195,0,0,0,
,0.397,-0.143,0.765,-210.572,163.452,193.115,0,0,0,
,0.386,-0.143,0.839,-234.375,164.917,173.523,0,0,0,
,0.367,-0.172,0.836,-236.084,178.955,148.01,0,0,0,
,0.404,-0.168,0.889,-231.873,178.527,92.773,0,0,0,
,0.323,-0.2,0.912,-248.291,182.8,73.608,0,0,0,
,0.28,-0.216,0.966,-234.925,182.556,44.006,0,0,0,
,0.23,-0.239,0.99,-138.916,190.368,55.908,0,0,0,
,0.241,-0.243,1.042,-59.327,196.533,67.565,0,0,0,
,0.237,-0.241,1.023,-67.627,170.898,70.007,0,0,0,
,0.219,-0.245,1.03,-112.244,95.398,67.016,0,0,0,
,0.171,-0.269,1.031,-136.902,50.354,72.631,0,0,0,
,0.124,-0.211,1.108,-123.597,-23.072,110.046,0,0,0,
,0.147,-0.264,1.07,-30.274,-2.869,138,0,0,0,
,0.153,-0.289,1.081,10.315,-6.348,141.296,0,0,0,
,0.098,-0.267,1.069,-1.404,-8.057,126.098,0,0,0,
,0.131,-0.199,1.056,24.841,-18.067,123.291,0,0,0,
,0.09,-0.17,1.026,8.789,-30.03,124.939,0,0,0,
,0.099,-0.143,0.982,-21.485,-38.269,125.488,0,0,0,
,0.093,-0.125,0.948,-24.17,-15.625,101.745,0,0,0,
,0.077,-0.141,0.943,13.977,31.921,82.214,0,0,0,
,0.061,-0.151,0.931,40.344,78.857,23.132,0,0,0,
,0.062,-0.172,0.891,72.265,121.154,27.648,0,0,0,
,0.097,-0.173,0.915,99.06,65.307,77.88,0,0,0,
,0.243,-0.234,0.891,251.953,95.398,-103.943,0,0,0,
,0.156,-0.364,1.04,-12.085,33.691,-94.178,0,0,0,
,0.147,-0.31,1.054,-212.708,39.428,-178.711,0,0,0,
,0.082,-0.231,1.11,-380.494,30.822,-166.199,0,0,0,
,0.056,-0.17,1.074,-336.426,64.758,-218.262,0,0,0,
,0.04,-0.113,1.06,-295.411,56.03,-163.758,0,0,0,
,0.065,0.057,1.042,-141.846,63.354,-131.531,0,0,0,
,0.062,0.07,0.97,15.258,113.159,-185.914,0,0,0,
,0.024,0.005,0.98,35.522,95.947,-133.851,0,0,0,
,0.034,0.065,0.989,61.157,86.975,-155.701,0,0,0,
,0.021,-0.012,0.987,41.565,64.148,-151.307,0,0,0,
,0.004,0.029,1.004,-52.002,27.648,-115.174,0,0,0,
,-0.02,0.136,1.026,-37.537,15.93,-78.37,0,0,0,
,0.001,0.082,1.036,8.972,26.428,-45.166,0,0,0,
,0.042,0.077,1.065,64.331,45.776,-12.574,0,0,0,
,0.103,-0.014,1.073,51.33,25.329,3.845,0,0,0,
,0.141,-0.083,1.041,1.953,-1.282,24.536,0,0,0,
,0.178,-0.076,0.994,-5.677,-10.071,32.348,0,0,0,
,0.205,-0.084,0.951,44.25,-3.418,19.897,0,0,0,
,0.214,-0.172,0.971,19.958,-8.606,-6.348,0,0,0,
,0.159,-0.15,0.993,-78.125,-37.293,-38.819,0,0,0,
,0.13,-0.162,1.008,-100.953,-50.293,-28.809,0,0,0,
,0.12,-0.072,0.973,-113.892,-78.064,-17.762,0,0,0,
,0.108,-0.086,0.955,-86.914,-58.899,2.258,0,0,0,
,0.133,-0.064,0.959,-83.435,-65.796,9.46,0,0,0,
,0.123,-0.045,0.977,-65.125,-75.379,8.056,0,0,0,
,0.116,-0.037,0.993,-29.725,-70.496,11.23,0,0,0,
,0.119,-0.037,0.989,27.893,-53.833,17.089,0,0,0,
,0.116,-0.05,0.977,59.082,-54.261,22.399,0,0,0,
,0.125,-0.083,0.963,60.119,-49.866,21.728,0,0,0,
,0.129,-0.096,0.992,45.166,-60.547,20.019,0,0,0,
,0.12,-0.097,1.02,23.498,-63.355,14.77,0,0,0,
,0.11,-0.034,1.012,18.676,-54.383,13.061,0,0,0,
,0.092,-0.035,1.01,36.865,-39.49,17.944,0,0,0,
,0.074,-0.029,1.031,35.644,-40.039,24.169,0,0,0,
,0.067,-0.004,1.02,49.804,-35.889,27.771,0,0,0,
,0.087,-0.055,0.968,63.415,-26.551,27.71,0,0,0,
,0.1,-0.124,0.938,48.156,-32.959,6.836,0,0,0,
,0.098,-0.09,0.979,-4.212,-47.669,-5.982,0,0,0,
,0.083,-0.038,1.006,-9.949,-46.814,-2.259,0,0,0,
,0.084,-0.018,1.014,22.705,-34.18,0.488,0,0,0,
,0.099,-0.069,1.013,40.344,-22.644,-0.428,0,0,0,
,0.097,-0.096,1.017,29.663,-23.926,-6.653,0,0,0,
,0.097,-0.11,1,62.255,-11.292,-10.865,0,0,0,
,0.118,-0.168,1.001,67.443,-6.653,-30.884,0,0,0,
,0.124,-0.176,1.015,32.47,-17.212,-47.486,0,0,0,
,0.107,-0.118,1.037,4.699,-30.579,-56.336,0,0,0,
,0.101,-0.076,1.015,64.758,-19.288,-72.205,0,0,0,
,0.1,-0.053,1.008,102.783,-3.235,-98.572,0,0,0,
,0.081,-0.006,1.018,118.286,-3.846,-125.245,0,0,0,
,0.06,0.071,1.034,167.175,-12.33,-151.856,0,0,0,
,0.048,0.003,1.048,208.679,-19.41,-157.532,0,0,0,
,0.034,0.028,1.086,198.364,-50.599,-162.903,0,0,0,
,0.029,-0.005,1.13,201.782,-70.801,-134.217,0,0,0,
,0.046,0.009,1.125,194.458,-112.977,-103.455,0,0,0,
,0.007,0.017,1.067,164.917,-158.57,-65.918,0,0,0,
,-0.057,0.062,1.053,161.682,-188.355,-47.486,0,0,0,
,-0.08,0.145,1.091,214.172,-200.989,-5.86,0,0,0,
,-0.01,0.198,1.26,277.832,-286.499,50.354,0,0,0,
,-0.117,0.031,1.263,313.232,-348.328,96.862,0,0,0,
,-0.195,0.043,1.339,218.811,-424.622,158.386,0,0,0,
,-0.264,0.043,1.343,205.627,-482.056,201.294,0,0,0,
,-0.322,-0.043,1.214,184.814,-481.019,212.402,0,0,0,
,-0.353,-0.045,1.148,126.892,-471.619,236.145,0,0,0,
,-0.362,-0.06,1.048,51.757,-425.354,255.798,0,0,0,
,-0.331,-0.133,0.96,-109.498,-399.781,259.948,0,0,0,
,-0.358,-0.117,0.912,-262.574,-369.996,240.295,0,0,0,
,-0.409,-0.01,0.879,-261.841,-309.388,292.602,0,0,0,
,-0.423,-0.001,0.856,-181.214,-224.549,327.27,0,0,0,
,-0.417,-0.017,0.837,-87.22,-125.977,373.535,0,0,0,
,-0.386,-0.11,0.795,-6.531,-33.631,375.915,0,0,0,
,-0.36,-0.169,0.746,15.869,24.658,362.793,0,0,0,
,-0.335,-0.126,0.741,66.528,63.72,309.448,0,0,0,
,-0.312,-0.16,0.733,173.462,112.854,258.545,0,0,0,
,-0.246,-0.319,0.707,197.509,138,202.697,0,0,0,
,-0.184,-0.399,0.76,102.966,128.784,163.879,0,0,0,
,-0.182,-0.4,0.817,61.401,110.901,128.112,0,0,0,
,-0.213,-0.396,0.839,89.904,137.329,109.436,0,0,0,
,-0.192,-0.389,0.845,137.817,203.43,107.055,0,0,0,
,-0.108,-0.499,0.78,70.678,268.554,92.224,0,0,0,
,-0.055,-0.541,0.757,-140.137,279.113,18.798,0,0,0,
,0,-0.45,0.761,-296.326,270.446,-53.711,0,0,0,
,0.015,-0.323,0.791,-307.007,274.658,-127.808,0,0,0,
,0.014,-0.185,0.806,-195.862,326.782,-167.969,0,0,0,
,0.066,-0.134,0.82,-46.57,359.436,-192.994,0,0,0,
,0.209,-0.275,0.871,68.42,368.103,-247.803,0,0,0,
,0.315,-0.401,0.902,10.498,340.393,-284.058,0,0,0,
,0.332,-0.358,0.902,-92.286,294.494,-296.998,0,0,0,
,0.344,-0.262,0.886,-81.971,289.001,-280.335,0,0,0,
,0.377,-0.176,0.879,32.653,322.692,-241.028,0,0,0,
,0.413,-0.185,0.913,101.745,354.736,-199.402,0,0,0,
,0.474,-0.274,0.903,84.716,400.268,-182.373,0,0,0,
,0.527,-0.278,0.923,17.456,403.381,-165.833,0,0,0,
,0.553,-0.24,0.929,-32.654,396.423,-132.203,0,0,0,
,0.51,-0.12,0.89,-47.547,341.003,-85.877,0,0,0,
,0.444,-0.008,0.847,10.62,319.58,-57.373,0,0,0,
,0.447,-0.015,0.789,88.623,313.781,26.489,0,0,0,
,0.474,-0.043,0.862,135.986,287.78,22.461,0,0,0,
,0.449,-0.077,0.879,145.324,250.122,60.791,0,0,0,
,0.39,-0.108,0.77,128.173,277.649,80.078,0,0,0,
,0.509,-0.119,0.966,255.92,157.104,98.205,0,0,0,
,0.536,-0.389,1.343,272.277,15.869,-27.955,0,0,0,
,0.368,-0.752,1.369,-12.94,-15.32,-68.177,0,0,0,
,0.295,-0.581,1.293,-184.266,12.817,20.874,0,0,0,
,0.339,-0.32,1.242,-81.36,-8.362,93.017,0,0,0,
,0.221,-0.281,1.017,4.272,-2.991,45.166,0,0,0,
,0.103,-0.094,1.002,-36.072,30.395,21.423,0,0,0,
,0.074,0.1,1.048,14.587,89.599,35.461,0,0,0,
,0.078,0.068,1.126,191.894,140.197,-6.775,0,0,0,
,0.138,-0.173,1.091,287.17,172.607,-36.133,0,0,0,
,0.198,-0.345,1.003,245.544,198.852,-19.654,0,0,0,
,0.216,-0.376,0.99,144.226,201.355,-18.311,0,0,0,
,0.224,-0.41,0.987,-17.029,218.689,-15.076,0,0,0,
,0.249,-0.331,0.991,-159.119,201.782,-5.433,0,0,0,
,0.239,-0.187,0.943,-192.933,208.74,4.272,0,0,0,
,0.249,-0.136,0.902,-158.57,230.835,2.807,0,0,0,
,0.276,-0.168,0.862,-129.517,238.525,-4.395,0,0,0,
,0.326,-0.233,0.849,-149.537,225.83,-19.837,0,0,0,
,0.36,-0.235,0.863,-191.407,198.547,-12.574,0,0,0,
,0.344,-0.145,0.872,-189.27,171.875,0.671,0,0,0,
,0.327,-0.126,0.868,-127.503,165.527,-1.465,0,0,0,
,0.336,-0.182,0.86,-86.365,152.343,-3.174,0,0,0,
,0.331,-0.191,0.822,-50.538,126.342,3.356,0,0,0,
,0.342,-0.234,0.868,-42.969,125.976,10.559,0,0,0,
,0.352,-0.265,0.879,-72.51,94.604,15.441,0,0,0,
,0.323,-0.192,0.877,-83.435,55.908,21.484,0,0,0,
,0.295,-0.153,0.88,-23.865,41.137,18.981,0,0,0,
,0.306,-0.186,0.905,0,29.113,20.446,0,0,0,
,0.326,-0.195,0.901,18.615,14.221,31.555,0,0,0,
,0.319,-0.177,0.921,33.752,5.249,38.574,0,0,0,
,0.323,-0.158,0.936,73.12,17.15,38.269,0,0,0,
,0.347,-0.139,0.903,88.012,21.789,36.01,0,0,0,
,0.378,-0.113,0.887,94.848,36.987,31.555,0,0,0,
,0.385,-0.175,0.901,75.012,51.757,14.831,0,0,0,
,0.401,-0.23,0.962,25.878,48.156,11.657,0,0,0,
,0.387,-0.16,0.939,-7.813,45.532,19.287,0,0,0,
,0.402,-0.145,0.982,1.525,46.936,13.794,0,0,0,
,0.403,-0.141,0.931,18.737,48.706,-11.353,0,0,0,
,0.39,-0.143,0.929,19.836,42.846,-15.625,0,0,0,
,0.375,-0.148,0.976,20.935,45.532,-47.181,0,0,0,
,0.383,-0.121,0.978,41.87,38.147,-42.298,0,0,0,
,0.375,-0.15,0.96,94.848,23.62,-58.96,0,0,0,
,0.344,-0.19,0.917,146.667,40.588,-69.642,0,0,0,
,0.364,-0.237,0.914,167.358,43.579,-43.763,0,0,0,
,0.378,-0.276,0.91,157.531,41.87,-36.499,0,0,0,
,0.359,-0.246,0.925,114.807,26.977,-35.584,0,0,0,
,0.331,-0.213,0.966,94.848,17.028,-37.415,0,0,0,
,0.319,-0.209,0.939,122.558,14.77,-57.251,0,0,0,
,0.299,-0.195,0.974,197.326,9.216,-84.778,0,0,0,
,0.276,-0.196,1.027,233.825,1.464,-125.977,0,0,0,
,0.267,-0.177,1.1,262.024,-16.968,-165.101,0,0,0,
,0.209,-0.249,0.927,253.357,-22.95,-202.637,0,0,0,
,0.166,-0.329,0.85,206.665,-29.664,-215.577,0,0,0,
,0.178,-0.383,0.864,213.134,-65.186,-210.633,0,0,0,
,0.225,-0.526,0.91,203.369,-124.817,-235.047,0,0,0,
,0.202,-0.657,1.048,109.741,-275.574,-307.251,0,0,0,
,0.124,-0.679,1.148,-38.147,-375.794,-317.017,0,0,0,
,0.099,-0.602,1.247,-167.176,-428.223,-328.553,0,0,0,
,0.092,-0.51,1.21,-291.016,-443.787,-362,0,0,0,
,0.03,-0.405,1.087,-415.039,-484.498,-354.554,0,0,0,
,-0.034,-0.217,0.983,-446.228,-467.102,-345.765,0,0,0,
,-0.051,-0.136,0.889,-396.79,-410.645,-347.229,0,0,0,
,-0.043,-0.172,0.825,-342.286,-328.431,-338.196,0,0,0,
,-0.003,-0.23,0.753,-369.202,-210.999,-323.06,0,0,0,
,0.003,-0.214,0.678,-468.445,-108.887,-305.97,0,0,0,
,-0.001,-0.135,0.634,-497.071,8.056,-274.72,0,0,0,
,-0.011,-0.019,0.59,-400.818,103.637,-238.282,0,0,0,
,-0.002,0.01,0.579,-241.7,200.988,-234.192,0,0,0,
,0.059,-0.018,0.627,-88.746,265.93,-253.174,0,0,0,
,0.141,-0.152,0.734,-8.973,288.94,-250.672,0,0,0,
,0.181,-0.206,0.878,-174.439,245.361,-225.281,0,0,0,
,0.192,-0.053,0.941,-323.731,206.97,-203.064,0,0,0,
,0.223,0.049,0.993,-263.672,192.382,-179.749,0,0,0,
,0.264,0.038,0.998,-96.192,189.453,-144.471,0,0,0,
,0.293,-0.079,0.962,-54.444,146.85,-166.443,0,0,0,
,0.33,-0.196,1.009,-104.92,78.43,-182.251,0,0,0,
,0.34,-0.184,1.041,-174.073,17.211,-153.687,0,0,0,
,0.311,-0.093,1.081,-205.689,-27.161,-156.434,0,0,0,
,0.272,-0.095,1.055,-201.661,-31.067,-181.946,0,0,0,
,0.223,-0.1,1.009,-234.07,-34.18,-197.083,0,0,0,
,0.193,-0.051,0.951,-307.557,-23.316,-190.43,0,0,0,
,0.162,-0.042,0.881,-359.559,3.906,-193.055,0,0,0,
,0.262,0.113,1.042,-221.436,-85.572,-159.546,0,0,0,
,0.299,0.021,1.175,-69.947,-87.83,-202.088,0,0,0,
,0.143,-0.224,1.252,-106.019,-30.396,-246.888,0,0,0,
,0.085,-0.143,1.287,-282.227,-32.227,-186.524,0,0,0,
,0.194,-0.035,1.229,-235.23,-23.56,-197.51,0,0,0,
,0.168,-0.086,1.097,-181.397,-40.711,-174.195,0,0,0,
,0.106,-0.025,1.013,-193.604,-44.556,-138.062,0,0,0,
,0.042,0.061,0.921,-168.641,-14.893,-63.294,0,0,0,
,0.003,0.125,0.865,-88.562,26.306,-10.132,0,0,0,
,0.038,0.16,0.867,57.617,75.073,-5.127,0,0,0,
,0.093,0.15,0.941,171.02,83.923,-7.813,0,0,0,
,0.117,-0.019,0.979,174.926,73.242,-18.738,0,0,0,
,0.182,-0.124,1.026,61.157,21.972,-13.428,0,0,0,
,0.142,-0.116,1.062,-42.054,-45.289,31.494,0,0,0,
,0.087,0.003,1.066,-14.893,-28.382,98.144,0,0,0,
,0.088,0.069,1.011,74.523,-11.231,111.572,0,0,0,
,0.147,-0.018,0.945,110.351,5.31,106.262,0,0,0,
,0.172,-0.064,0.95,82.58,5.92,113.952,0,0,0,
,0.196,-0.053,0.951,47.851,5.859,115.051,0,0,0,
,0.23,-0.042,1.001,46.752,0.305,125.854,0,0,0,
,0.197,-0.039,0.995,57.861,-1.221,126.648,0,0,0,
,0.225,-0.069,1.003,81.787,10.009,124.084,0,0,0,
,0.203,-0.065,0.963,47.546,8.178,127.197,0,0,0,
,0.207,-0.074,0.966,11.291,11.169,118.957,0,0,0,
,0.228,-0.069,0.974,5.615,18.127,139.404,0,0,0,
,0.222,-0.047,0.98,53.649,31.86,142.944,0,0,0,
,0.266,-0.063,0.96,97.961,48.461,127.685,0,0,0,
,0.311,-0.109,0.931,75.256,41.259,104.065,0,0,0,
,0.302,-0.099,0.934,25.39,23.925,95.581,0,0,0,
,0.288,-0.048,0.96,14.587,19.836,92.041,0,0,0,
,0.338,0.015,0.945,99.548,32.653,58.105,0,0,0,
,0.367,0.011,0.908,215.637,38.513,2.685,0,0,0,
,0.367,-0.11,0.833,257.08,37.414,-54.871,0,0,0,
,0.322,-0.227,0.836,241.333,37.17,-62.806,0,0,0,
,0.239,-0.259,0.881,201.538,54.748,-52.185,0,0,0,
,0.23,-0.133,1.043,180.175,52.917,-18.067,0,0,0,
,0.16,-0.105,1.03,165.283,27.343,-5.799,0,0,0,
,0.102,-0.159,0.977,96.008,7.263,0.671,0,0,0,
,0.08,-0.1,0.96,46.997,-7.508,39.123,0,0,0,
,0.078,-0.086,0.984,19.958,-15.137,57.556,0,0,0,
,0.088,-0.086,1.03,10.437,-15.32,82.763,0,0,0,
,0.098,-0.085,1.056,9.277,-15.686,91.186,0,0,0,
,0.104,-0.108,1.042,4.455,-15.931,98.205,0,0,0,
,0.114,-0.099,1.016,-12.33,-20.447,110.839,0,0,0,
,0.129,-0.061,1.01,-13.611,-19.776,118.469,0,0,0,
,0.167,-0.06,1.014,8.117,-21.729,109.13,0,0,0,
,0.2,-0.094,0.992,20.752,-16.541,103.149,0,0,0,
,0.218,-0.102,0.978,18.676,-15.259,104.919,0,0,0,
,0.236,-0.048,0.998,39.123,-20.203,99.304,0,0,0,
,0.289,0.001,1.022,112.793,-43.335,87.524,0,0,0,
,0.362,-0.012,1.031,247.07,-89.234,90.026,0,0,0,
,0.398,0.029,1.193,382.019,-194.153,158.935,0,0,0,
,0.371,-0.247,1.188,377.685,-251.038,40.344,0,0,0,
,0.469,-0.168,1.295,371.704,-328.797,162.353,0,0,0,
,0.307,-0.275,1.228,313.903,-357.605,78.918,0,0,0,
,0.306,-0.247,1.142,252.929,-362.305,64.209,0,0,0,
,0.27,-0.221,1.046,211.242,-341.126,46.325,0,0,0,
,0.203,-0.223,0.981,153.381,-296.998,10.986,0,0,0,
,0.167,-0.262,0.885,16.54,-169.678,-36.805,0,0,0,
,0.139,-0.222,0.847,-22.644,-93.567,-48.462,0,0,0,
,0.131,-0.168,0.813,35.278,-13.123,-38.331,0,0,0,
,0.154,-0.176,0.782,123.23,64.209,-40.406,0,0,0,
,0.173,-0.192,0.756,176.269,105.896,-27.832,0,0,0,
,0.18,-0.226,0.757,186.523,142.028,-29.053,0,0,0,
,0.167,-0.262,0.761,140.686,160.705,-17.823,0,0,0,
,0.145,-0.254,0.769,94.909,177.551,13.977,0,0,0,
,0.127,-0.209,0.778,92.468,190.918,29.113,0,0,0,
,0.116,-0.177,0.775,131.347,196.106,52.612,0,0,0,
,0.112,-0.192,0.758,165.283,207.519,74.585,0,0,0,
,0.107,-0.264,0.733,146.728,194.641,73.181,0,0,0,
,0.085,-0.286,0.778,91.369,183.227,88.378,0,0,0,
,0.074,-0.265,0.848,29.296,177.49,103.82,0,0,0,
,0.092,-0.261,0.874,34.423,188.476,111.45,0,0,0,
,0.11,-0.28,0.913,80.444,199.401,113.037,0,0,0,
,0.099,-0.26,0.945,114.196,199.707,120.727,0,0,0,
,0.103,-0.299,0.964,140.93,204.651,96.13,0,0,0,
,0.106,-0.325,0.984,154.785,209.35,100.586,0,0,0,
,0.111,-0.305,0.973,137.695,200.439,108.459,0,0,0,
,0.115,-0.296,0.956,128.906,182.19,101.074,0,0,0,
,0.146,-0.315,0.973,115.295,165.405,79.589,0,0,0,
,0.172,-0.335,0.99,56.518,147.583,53.772,0,0,0,
,0.135,-0.289,0.982,15.441,131.652,79.956,0,0,0,
,0.231,-0.298,1.01,-31.434,48.706,16.601,0,0,0,
,0.345,-0.434,1.204,-124.207,-88.746,-64.148,0,0,0,
,0.22,-0.413,1.189,-271.363,-113.709,-15.748,0,0,0,
,0.12,-0.301,0.993,-320.862,-51.636,-3.235,0,0,0,
,0.201,-0.245,0.824,-301.087,-3.54,-0.672,0,0,0,
,0.255,-0.338,0.752,-452.088,-3.479,-18.616,0,0,0,
,0.246,-0.257,0.856,-625.611,-38.514,2.563,0,0,0,
,0.285,0.081,1.001,-495.972,2.746,79.467,0,0,0,
,0.289,0.051,0.897,-218.14,97.351,43.151,0,0,0,
,0.401,0.006,1.049,-137.391,96.374,82.397,0,0,0,
,0.342,-0.116,1.166,-114.685,90.698,18.127,0,0,0,
,0.308,-0.329,1.077,-223.511,64.88,24.841,0,0,0,
,0.252,-0.205,1.084,-264.71,50.476,111.023,0,0,0,
,0.24,-0.11,1.073,-149.842,62.072,101.562,0,0,0,
,0.228,-0.111,1.015,-64.82,83.007,69.824,0,0,0,
,0.226,-0.142,0.971,-59.449,76.843,40.649,0,0,0,
,0.251,-0.066,0.943,-62.073,78.552,35.095,0,0,0,
,0.242,-0.043,0.926,-22.706,85.083,31.616,0,0,0,
,0.242,-0.081,0.926,3.418,100.097,38.635,0,0,0,
,0.249,-0.143,0.954,6.897,110.229,52.612,0,0,0,
,0.268,-0.156,0.958,-32.959,92.468,67.627,0,0,0,
,0.276,-0.091,0.952,-53.406,70.861,75.5,0,0,0,
,0.259,-0.042,0.924,-14.893,53.161,81.787,0,0,0,
,0.255,-0.106,0.933,39.306,47.607,83.252,0,0,0,
,0.256,-0.133,0.931,58.41,35.339,80.383,0,0,0,
,0.252,-0.114,0.957,69.519,18.859,80.81,0,0,0,
,0.216,-0.1,0.945,79.956,4.089,76.904,0,0,0,
,0.197,-0.054,0.972,86.059,-6.287,84.838,0,0,0,
,0.21,-0.055,0.992,100.586,-12.757,96.435,0,0,0,
,0.214,-0.07,0.999,100.586,-10.56,103.881,0,0,0,
,0.233,-0.108,0.993,113.525,-7.142,100.402,0,0,0,
,0.26,-0.138,1.004,94.97,-8.667,95.642,0,0,0,
,0.281,-0.13,0.98,56.64,-6.897,83.862,0,0,0,
,0.294,-0.111,0.96,31.066,-5.738,76.965,0,0,0,
,0.298,-0.085,0.919,-1.16,-5.982,58.96,0,0,0,
,0.32,-0.061,0.925,10.681,5.188,47.607,0,0,0,
,0.35,-0.061,0.939,26.611,19.409,38.757,0,0,0,
,0.36,-0.097,0.948,26.306,29.907,23.864,0,0,0,
,0.373,-0.129,0.936,5.004,26.672,15.014,0,0,0,
,0.378,-0.132,0.918,-1.526,24.475,9.887,0,0,0,
,0.378,-0.132,0.884,11.23,20.019,-10.804,0,0,0,
,0.384,-0.15,0.873,23.376,10.925,-25.757,0,0,0,
,0.382,-0.129,0.872,17.334,3.662,-39.612,0,0,0,
,0.378,-0.086,0.879,21.545,3.173,-48.096,0,0,0,
,0.364,-0.087,0.909,22.338,-3.174,-54.261,0,0,0,
,0.335,-0.092,0.928,12.451,-13.794,-58.045,0,0,0,
,0.309,-0.097,0.932,13.855,-13.855,-62.806,0,0,0,
,0.299,-0.121,0.942,17.517,-10.071,-68.665,0,0,0,
,0.268,-0.131,0.969,15.869,-9.095,-64.331,0,0,0,
,0.243,-0.124,1.012,22.338,-16.419,-52.491,0,0,0,
,0.247,-0.146,0.997,4.76,-17.029,-50.049,0,0,0,
,0.258,-0.141,0.981,-3.846,-12.024,-37.049,0,0,0,
,0.258,-0.121,0.971,4.333,-3.907,-30.579,0,0,0,
,0.284,-0.104,0.963,13.794,1.281,-32.105,0,0,0,
,0.289,-0.112,0.968,12.817,0.244,-35.462,0,0,0,
,0.291,-0.118,0.942,2.502,5.249,-40.772,0,0,0,
,0.3,-0.115,0.904,-7.203,9.704,-42.115,0,0,0,
,0.292,-0.109,0.9,-16.846,12.451,-62.317,0,0,0,
,0.297,-0.119,0.937,-18.86,8.3,-52.796,0,0,0,
,0.311,-0.145,0.948,-20.02,10.925,-51.697,0,0,0,
,0.323,-0.131,0.947,-23.865,10.681,-49.439,0,0,0,
,0.302,-0.108,0.949,-31.189,12.023,-54.688,0,0,0,
,0.282,-0.101,0.942,-26.734,16.296,-55.42,0,0,0,
,0.262,-0.113,0.951,-32.959,20.69,-64.942,0,0,0,
,0.241,-0.122,0.986,-49.012,18.493,-57.862,0,0,0,
,0.244,-0.119,0.984,-69.031,15.808,-58.472,0,0,0,
,0.238,-0.098,0.994,-62.806,10.62,-54.078,0,0,0,
,0.232,-0.097,1.003,-34.485,8.483,-64.331,0,0,0,
,0.235,-0.09,1,-7.447,-1.038,-75.318,0,0,0,
,0.243,-0.081,0.996,-13.001,-26.612,-97.107,0,0,0,
,0.212,-0.066,1.009,-54.627,-47.791,-120.118,0,0,0,
,0.203,-0.07,1.093,-115.479,-74.769,-129.029,0,0,0,
,0.217,-0.082,1.161,-162.598,-113.831,-129.334,0,0,0,
,0.201,-0.045,1.159,-170.533,-127.137,-135.56,0,0,0,
,0.171,0.007,1.072,-121.094,-85.267,-142.395,0,0,0,
,0.175,-0.028,1.084,-40.833,-92.896,-160.035,0,0,0,
,0.163,-0.073,1.098,22.705,-81.177,-163.758,0,0,0,
,0.137,-0.057,1.018,110.168,-54.993,-165.589,0,0,0,
,0.098,-0.057,1.039,230.835,-42.115,-130.066,0,0,0,
,0.127,-0.088,1.166,271.179,-60.486,-131.47,0,0,0,
,0.158,-0.191,1.237,148.62,-127.381,-167.359,0,0,0,
,0.083,-0.23,1.239,33.813,-140.686,-142.518,0,0,0,
,0.075,-0.064,1.229,43.823,-206.177,-146.058,0,0,0,
,0.062,-0.227,1.149,70.922,-247.62,-211.182,0,0,0,
,0.001,-0.222,1.133,2.319,-298.706,-226.441,0,0,0,
,-0.035,-0.094,1.11,22.094,-322.327,-223.816,0,0,0,
,-0.044,-0.152,1.097,-11.231,-322.632,-217.408,0,0,0,
,-0.082,-0.091,1.061,-38.514,-321.961,-189.576,0,0,0,
,-0.062,-0.034,0.891,-1.282,-265.076,-114.075,0,0,0,
,-0.066,-0.095,0.806,-16.114,-226.99,-103.089,0,0,0,
,-0.058,-0.092,0.753,-66.346,-195.801,-94.849,0,0,0,
,-0.051,-0.093,0.715,-107.605,-149.109,-76.05,0,0,0,
,-0.024,-0.086,0.7,-92.347,-104.737,-53.101,0,0,0,
,0.005,-0.095,0.712,-88.685,-45.594,-36.316,0,0,0,
,0.018,-0.094,0.726,-75.928,29.602,-15.87,0,0,0,
,0.049,-0.078,0.746,-12.635,93.383,11.657,0,0,0,
,0.067,-0.072,0.728,55.297,141.174,21.118,0,0,0,
,0.069,-0.088,0.724,120.91,198.181,18.615,0,0,0,
,0.074,-0.084,0.743,196.899,251.648,8.239,0,0,0,
,0.076,-0.079,0.803,255.066,293.945,1.586,0,0,0,
,0.076,-0.079,0.848,273.01,338.012,-1.221,0,0,0,
,0.138,-0.116,0.866,229.37,366.638,-13.672,0,0,0,
,0.156,-0.181,0.884,182.251,356.079,4.882,0,0,0,
,0.195,-0.212,0.906,139.709,341.491,26.306,0,0,0,
,0.223,-0.252,0.929,121.338,314.087,55.664,0,0,0,
,0.245,-0.234,0.947,89.172,287.292,50.17,0,0,0,
,0.244,-0.187,0.986,120.239,256.469,74.157,0,0,0,
,0.221,-0.193,0.983,189.331,252.807,87.158,0,0,0,
,0.255,-0.184,0.96,181.335,232.727,122.863,0,0,0,
,0.264,-0.183,0.931,110.839,205.322,151.916,0,0,0,
,0.244,-0.154,0.867,80.139,165.649,147.766,0,0,0,
,0.29,-0.195,0.852,0.671,146.545,172.302,0,0,0,
,0.264,-0.177,0.802,5.737,88.44,159.24,0,0,0,
,0.317,-0.231,0.82,-40.101,60.669,156.677,0,0,0,
,0.325,-0.255,0.854,-153.87,41.259,178.65,0,0,0,
,0.336,-0.218,0.867,-175.415,39.367,200.988,0,0,0,
,0.371,-0.2,0.853,-108.155,52.002,207.763,0,0,0,
,0.418,-0.211,0.869,5.737,65.49,212.036,0,0,0,
,0.44,-0.199,0.889,75.622,100.769,205.261,0,0,0,
,0.459,-0.21,0.904,109.436,129.272,167.358,0,0,0,
,0.482,-0.224,0.897,85.083,149.17,126.098,0,0,0,
,0.518,-0.173,0.848,-28.077,139.221,126.831,0,0,0,
,0.519,-0.059,0.908,-36.133,117.187,127.929,0,0,0,
,0.831,0.08,1.347,117.92,-259.156,65.002,0,0,0,
,0.513,-0.417,1.383,-240.784,-202.21,-80.262,0,0,0,
,0.33,-0.495,0.992,-855.774,-182.129,-125.916,0,0,0,
,0.412,0.131,0.876,-768.494,-142.395,-21.729,0,0,0,
,0.335,0.046,0.873,-411.927,-63.782,-34.729,0,0,0,
,0.301,-0.2,0.937,-368.47,-64.209,-60.608,0,0,0,
,0.255,-0.068,0.997,-314.82,-59.021,-46.326,0,0,0,
,0.244,-0.064,1.026,-255.249,-38.575,-43.396,0,0,0,
,0.27,-0.021,1.073,-185.669,-25.269,-27.161,0,0,0,
,0.257,0.027,1.052,-84.9,-15.32,-9.949,0,0,0,
,0.232,-0.058,0.981,-15.686,-15.015,21.85,0,0,0,
,0.2,-0.042,0.943,-46.57,-17.029,50.781,0,0,0,
,0.207,-0.004,0.963,-69.336,-12.818,72.692,0,0,0,
,0.246,0.057,1.013,-49.378,-15.015,73.181,0,0,0,
,0.256,0.039,1.043,22.216,-16.602,69.946,0,0,0,
,0.269,-0.013,1.027,78.125,-6.897,58.288,0,0,0,
,0.279,-0.062,0.984,40.588,-30.274,42.663,0,0,0,
,0.283,-0.051,0.946,-13.245,-29.175,41.992,0,0,0,
,0.264,-0.029,0.911,-22.217,-19.471,42.541,0,0,0,
,0.274,0.018,0.907,-18.921,-4.456,42.968,0,0,0,
,0.289,0.062,0.951,-0.306,5.004,25.451,0,0,0,
,0.298,0.028,0.971,-21.241,9.643,8.483,0,0,0,
,0.295,-0.021,1.062,-88.135,6.591,19.836,0,0,0,
,0.264,-0.045,1.092,-132.935,16.784,-21.912,0,0,0,
,0.271,0.003,1.043,-158.997,28.503,-21.119,0,0,0,
,0.211,0.001,1.021,-126.831,37.231,-29.541,0,0,0,
,0.226,0,0.989,-100.159,42.846,-23.926,0,0,0,
,0.216,0.048,0.961,-110.291,47.302,-11.17,0,0,0,
,0.219,0.071,0.942,-84.473,52.978,-23.316,0,0,0,
,0.233,0.059,0.916,-75.074,60.424,-21.119,0,0,0,
,0.222,0.091,0.917,-46.814,67.871,-15.32,0,0,0,
,0.239,0.067,0.901,-1.343,77.087,-19.532,0,0,0,
,0.247,0.015,0.941,13.61,64.758,-35.889,0,0,0,
,0.268,-0.01,0.933,16.113,56.823,-28.748,0,0,0,
,0.27,0.018,0.929,13.794,46.814,-30.274,0,0,0,
,0.286,0.034,0.921,8.667,40.039,-32.532,0,0,0,
,0.297,0.063,0.926,8.606,39.428,-31.922,0,0,0,
,0.305,0.066,0.946,18.432,35.278,-41.932,0,0,0,
,0.302,0.036,0.941,9.216,30.761,-49.378,0,0,0,
,0.305,0.017,0.96,14.892,26.245,-52.308,0,0,0,
,0.305,-0.001,0.941,28.625,24.658,-58.35,0,0,0,
,0.309,-0.022,0.937,23.498,19.165,-68.36,0,0,0,
,0.309,0.003,0.945,20.874,14.343,-72.022,0,0,0,
,0.295,0.024,0.934,18.981,2.868,-73.731,0,0,0,
,0.279,0.045,0.916,6.408,-4.273,-74.707,0,0,0,
,0.275,0.041,0.92,13.122,-5.555,-74.036,0,0,0,
,0.266,0.032,0.943,30.822,-0.428,-75.623,0,0,0,
,0.274,0.019,0.956,38.94,-1.16,-74.891,0,0,0,
,0.271,-0.008,0.997,27.893,-9.4,-73.304,0,0,0,
,0.259,0.001,0.955,36.071,-10.376,-74.463,0,0,0,
,0.263,-0.002,0.977,40.954,-16.968,-76.661,0,0,0,
,0.27,0.016,0.962,57.067,-20.386,-73.548,0,0,0,
,0.261,0.011,0.937,61.767,-19.837,-74.219,0,0,0,
,0.264,0.014,0.943,45.349,-21.363,-73.914,0,0,0,
,0.272,0.01,0.967,30.761,-24.964,-78.003,0,0,0,
,0.265,0.018,0.973,26.733,-29.908,-74.402,0,0,0,
,0.261,-0.002,0.967,40.222,-28.626,-68.787,0,0,0,
,0.25,-0.019,0.946,48.278,-29.969,-67.933,0,0,0,
,0.244,-0.011,0.952,43.273,-33.143,-67.627,0,0,0,
,0.246,-0.015,0.968,39.489,-40.65,-64.82,0,0,0,
,0.258,-0.036,0.963,38.635,-44.129,-61.219,0,0,0,
,0.26,-0.003,0.963,27.893,-50.66,-58.899,0,0,0,
,0.269,-0.001,0.971,26.916,-53.467,-61.341,0,0,0,
,0.262,0.002,0.976,41.931,-50.354,-65.369,0,0,0,
,0.219,0.001,0.977,55.603,-45.35,-71.473,0,0,0,
,0.245,-0.02,0.979,69.458,-41.382,-74.036,0,0,0,
,0.248,-0.043,0.975,49.255,-36.133,-78.736,0,0,0,
,0.26,-0.027,1.003,36.804,-28.138,-83.863,0,0,0,
,0.255,-0.03,1.026,25.329,-20.203,-92.652,0,0,0,
,0.23,0.014,0.998,11.352,-8.973,-100.281,0,0,0,
,0.22,0.019,0.978,15.93,1.77,-106.507,0,0,0,
,0.215,0.007,0.967,16.418,10.253,-114.869,0,0,0,
,0.229,-0.011,0.975,0.366,14.526,-120.118,0,0,0,
,0.224,0,0.982,-2.808,13.977,-123.475,0,0,0,
,0.232,-0.016,0.985,9.704,12.268,-134.522,0,0,0,
,0.232,-0.034,0.969,2.319,7.08,-140.931,0,0,0,
,0.228,-0.007,0.965,3.601,0.854,-151.062,0,0,0,
,0.227,0,0.962,21.179,-5.066,-156.373,0,0,0,
,0.227,0.005,0.96,49.56,-10.193,-152.527,0,0,0,
,0.215,0.029,0.967,99.548,-8.728,-153.077,0,0,0,
,0.204,0.058,0.986,153.808,3.234,-158.509,0,0,0,
,0.229,0.055,1.045,185.791,8.239,-188.172,0,0,0,
,0.221,0.049,1.08,189.758,9.033,-221.985,0,0,0,
,0.185,0.03,1.065,172.546,-6.226,-252.564,0,0,0,
,0.124,-0.003,1.018,189.575,-30.518,-253.663,0,0,0,
,0.091,0.033,1.071,291.137,-73.731,-196.351,0,0,0,
,0.066,0.106,1.136,418.945,-103.882,-196.9,0,0,0,
,0.072,-0.075,1.311,306.03,-230.347,-133.362,0,0,0,
,-0.045,-0.034,1.377,180.114,-327.82,-105.835,0,0,0,
,-0.087,-0.112,1.307,17.578,-392.334,-99.61,0,0,0,
,-0.156,-0.011,1.223,-86.365,-434.327,-46.265,0,0,0,
,-0.205,0.074,1.151,-112.793,-439.026,-16.48,0,0,0,
,-0.208,0.055,1.08,-137.635,-415.101,8.789,0,0,0,
,-0.227,0.076,1.02,-187.256,-376.465,76.599,0,0,0,
,-0.219,0.109,0.948,-210.389,-314.82,117.187,0,0,0,
,-0.162,0.095,0.871,-210.144,-243.897,163.452,0,0,0,
,-0.161,0.106,0.8,-181.275,-166.993,207.946,0,0,0,
,-0.129,0.084,0.735,-143.738,-87.708,245.239,0,0,0,
,-0.072,0.067,0.717,-101.136,-19.349,269.958,0,0,0,
,-0.006,0.029,0.719,-73.975,41.687,284.179,0,0,0,
,0.047,-0.012,0.745,-62.806,97.106,292.053,0,0,0,
,0.103,-0.05,0.771,-45.716,133.117,296.386,0,0,0,
,0.124,-0.086,0.801,-24.353,162.658,291.687,0,0,0,
,0.149,-0.105,0.819,-26.429,187.011,270.996,0,0,0,
,0.169,-0.106,0.831,-25.147,208.923,252.807,0,0,0,
,0.233,-0.098,0.875,-10.743,208.007,241.821,0,0,0,
,0.244,-0.159,0.925,96.374,244.079,260.803,0,0,0,
,0.231,-0.136,0.902,173.828,275.085,261.352,0,0,0,
,0.253,-0.116,0.862,188.049,269.104,226.623,0,0,0,
,0.304,-0.146,0.873,205.993,251.342,165.771,0,0,0,
,0.336,-0.195,0.903,164.245,228.21,132.324,0,0,0,
,0.367,-0.283,0.943,95.764,201.172,122.436,0,0,0,
,0.359,-0.272,0.978,7.019,178.405,109.314,0,0,0,
,0.347,-0.162,0.946,-61.768,161.926,103.515,0,0,0,
,0.364,-0.106,0.949,-22.583,163.025,83.984,0,0,0,
,0.353,-0.115,0.973,20.324,148.498,63.415,0,0,0,
,0.352,-0.117,0.979,42.236,132.873,48.156,0,0,0,
,0.356,-0.129,0.942,73.73,105.651,32.653,0,0,0,
,0.357,-0.154,0.912,93.139,85.266,26.428,0,0,0,
,0.354,-0.178,0.936,53.588,65.795,2.075,0,0,0,
,0.38,-0.172,0.909,-6.165,52.551,-3.479,0,0,0,
,0.381,-0.162,0.867,-62.684,50.354,-15.076,0,0,0,
,0.365,-0.12,0.816,-63.05,55.664,-30.823,0,0,0,
,0.356,-0.069,0.767,-50.171,72.387,-39.002,0,0,0,
,0.493,0.115,0.931,65.612,-40.894,-52.491,0,0,0,
,0.56,0.244,1.207,371.46,-209.29,2.197,0,0,0,
,0.395,-0.311,1.126,487.426,-204.529,-39.49,0,0,0,
,0.375,-0.495,0.995,210.998,-179.322,-27.527,0,0,0,
,0.318,-0.076,0.953,211.547,-124.573,18.798,0,0,0,
,0.27,-0.05,1.008,335.266,-70.74,17.7,0,0,0,
,0.286,-0.169,1.12,264.282,-58.411,-30.884,0,0,0,
,0.194,-0.071,1.12,137.573,-32.41,-34.546,0,0,0,
,0.178,-0.085,1.12,143.493,-2.198,-31.8,0,0,0,
,0.163,-0.241,1.079,99.609,22.094,-31.434,0,0,0,
,0.149,-0.219,1.07,22.461,19.958,-28.443,0,0,0,
,0.151,-0.175,1.041,-25.94,26.977,-15.442,0,0,0,
,0.167,-0.149,1.023,-77.454,26.367,-3.113,0,0,0,
,0.199,-0.189,1.017,-94.544,34.362,-1.77,0,0,0,
,0.205,-0.17,1.012,-95.337,48.217,-5.433,0,0,0,
,0.209,-0.159,0.98,-108.46,56.03,-12.879,0,0,0,
,0.204,-0.157,0.981,-125.916,63.049,-20.997,0,0,0,
,0.208,-0.135,0.974,-148.926,65.185,-23.499,0,0,0,
,0.22,-0.064,0.965,-157.532,63.232,-30.091,0,0,0,
,0.23,-0.086,0.944,-146.241,69.58,-35.157,0,0,0,
,0.237,-0.093,0.936,-139.588,66.711,-39.795,0,0,0,
,0.236,-0.099,0.951,-135.254,62.133,-48.401,0,0,0,
,0.244,-0.103,0.942,-113.831,58.593,-48.279,0,0,0,
,0.249,-0.097,0.932,-83.924,57.861,-50.782,0,0,0,
,0.246,-0.091,0.923,-67.933,55.908,-50.11,0,0,0,
,0.268,-0.113,0.929,-61.219,47.79,-45.655,0,0,0,
,0.259,-0.095,0.917,-73.67,41.32,-46.387,0,0,0,
,0.254,-0.06,0.928,-74.83,35.705,-42.908,0,0,0,
,0.249,-0.056,0.928,-65.796,29.541,-49.073,0,0,0,
,0.261,-0.072,0.946,-67.505,21.972,-52.735,0,0,0,
,0.251,-0.084,0.963,-53.956,14.709,-57.129,0,0,0,
,0.254,-0.072,0.977,-23.499,11.108,-52.979,0,0,0,
,0.258,-0.102,0.976,-1.343,10.009,-59.266,0,0,0,
,0.257,-0.098,0.949,-1.099,3.784,-59.815,0,0,0,
,0.248,-0.061,0.945,15.258,3.845,-64.515,0,0,0,
,0.25,-0.061,0.951,11.962,10.742,-64.576,0,0,0,
,0.261,-0.075,0.964,1.953,14.709,-65.247,0,0,0,
,0.289,-0.095,0.974,-1.465,14.343,-69.336,0,0,0,
,0.3,-0.117,0.976,-5.921,19.226,-73.487,0,0,0,
,0.308,-0.083,0.972,-10.56,23.132,-75.135,0,0,0,
,0.301,-0.08,0.96,-36.499,20.813,-84.656,0,0,0,
,0.295,-0.086,0.967,-38.514,24.231,-90.149,0,0,0,
,0.319,-0.068,0.951,-24.048,28.32,-95.765,0,0,0,
,0.304,-0.076,0.94,-28.992,38.696,-103.882,0,0,0,
,0.299,-0.05,0.949,-54.627,45.776,-107.972,0,0,0,
,0.28,-0.05,0.984,-65.979,53.711,-105.53,0,0,0,
,0.272,-0.097,1,-49.561,55.725,-105.652,0,0,0,
,0.269,-0.126,0.991,-65.125,52.856,-103.211,0,0,0,
,0.225,-0.11,0.99,-78.309,49.438,-90.76,0,0,0,
,0.2,-0.074,0.969,-70.984,49.377,-86.304,0,0,0,
,0.175,-0.012,0.961,-52.063,49.865,-78.797,0,0,0,
,0.135,-0.03,0.979,-24.476,49.56,-79.224,0,0,0,
,0.153,-0.059,0.989,-7.203,42.114,-69.764,0,0,0,
,0.156,-0.079,0.99,1.22,33.935,-64.087,0,0,0,
,0.153,-0.089,0.994,17.273,30.09,-54.993,0,0,0,
,0.166,-0.09,1.004,34.545,29.174,-49.073,0,0,0,
,0.178,-0.069,1.046,49.621,33.02,-45.35,0,0,0,
,0.208,-0.04,1.061,82.336,44.616,-52.674,0,0,0,
,0.225,-0.025,1.054,119.384,48.339,-72.144,0,0,0,
,0.223,-0.024,1.075,118.591,48.584,-107.3,0,0,0,
,0.225,-0.029,1.067,102.844,43.212,-131.775,0,0,0,
,0.208,-0.036,1.109,72.937,37.658,-160.95,0,0,0,
,0.189,-0.06,1.085,84.777,34.851,-173.645,0,0,0,
,0.169,-0.099,1.016,120.727,34.729,-173.401,0,0,0,
,0.143,-0.108,0.999,170.776,37.292,-158.875,0,0,0,
,0.13,-0.119,1.035,264.831,26.184,-120.789,0,0,0,
,0.126,-0.141,1.086,319.336,-21.912,-89.966,0,0,0,
,0.085,-0.176,1.086,257.446,-91.919,-99.488,0,0,0,
,0.009,-0.242,1.015,120.91,-135.071,-120.118,0,0,0,
,-0.063,-0.14,1.096,82.885,-203.37,-73.792,0,0,0,
,-0.126,-0.103,1.072,181.518,-201.416,-31.983,0,0,0,
,-0.125,-0.189,0.993,168.518,-204.651,-42.969,0,0,0,
,-0.11,-0.231,0.989,67.565,-221.863,-51.697,0,0,0,
,-0.122,-0.169,1.004,-24.109,-234.314,-23.072,0,0,0,
,-0.129,-0.115,0.986,-80.689,-230.164,-15.442,0,0,0,
,-0.117,-0.094,0.963,-131.226,-218.995,-24.292,0,0,0,
,-0.104,-0.073,0.942,-144.043,-198.548,-19.104,0,0,0,
,-0.094,-0.059,0.908,-138.367,-164.612,0.61,0,0,0,
,-0.066,-0.119,0.895,-132.203,-123.78,-10.621,0,0,0,
,-0.03,-0.139,0.875,-119.873,-73.548,-2.93,0,0,0,
,0.026,-0.157,0.862,-107.605,-34.852,-0.733,0,0,0,
,0.072,-0.107,0.804,-109.864,-25.025,39.123,0,0,0,
,0.116,-0.085,0.788,-139.954,-11.353,-30.152,0,0,0,
,0.15,-0.124,0.817,-203.675,-36.316,-69.336,0,0,0,
,0.191,-0.043,0.881,-222.046,-61.402,-50.415,0,0,0,
,0.233,-0.01,0.888,-165.894,-59.327,-61.341,0,0,0,
,0.264,-0.03,0.904,-113.038,-69.703,-82.825,0,0,0,
,0.275,-0.063,0.905,-57.801,-72.083,-108.948,0,0,0,
,0.279,-0.099,0.879,-24.109,-64.27,-124.695,0,0,0,
,0.254,-0.133,0.883,-30.884,-58.899,-140.381,0,0,0,
,0.262,-0.096,0.904,-44.739,-42.847,-146.485,0,0,0,
,0.264,-0.073,0.948,-31.861,-27.649,-145.997,0,0,0,
,0.252,-0.052,0.957,2.502,-4.334,-150.452,0,0,0,
,0.249,-0.074,0.947,34.484,9.643,-169.434,0,0,0,
,0.234,-0.114,0.959,58.105,20.874,-186.341,0,0,0,
,0.225,-0.15,0.97,54.748,35.705,-181.519,0,0,0,
,0.231,-0.19,0.983,-2.076,43.151,-171.021,0,0,0,
,0.233,-0.171,1,-54.2,46.569,-163.758,0,0,0,
,0.229,-0.138,1.015,-70.008,61.279,-159.485,0,0,0,
,0.228,-0.122,1.012,-49.683,81.97,-151.917,0,0,0,
,0.226,-0.139,0.992,-36.744,96.252,-146.79,0,0,0,
,0.232,-0.162,0.977,-53.833,112.365,-141.053,0,0,0,
,0.246,-0.159,0.971,-94.361,114.868,-132.752,0,0,0,
,0.25,-0.096,0.924,-112.061,121.948,-106.995,0,0,0,
,0.353,0.126,1.06,1.037,56.152,-57.618,0,0,0,
,0.36,0.064,1.04,142.822,39.184,-23.865,0,0,0,
,0.329,-0.247,0.946,98.938,24.231,-106.934,0,0,0,
,0.354,-0.314,0.934,-20.508,-9.583,-101.563,0,0,0,
,0.338,-0.213,0.996,-143.25,-49.378,-22.706,0,0,0,
,0.235,-0.162,0.902,-179.627,-36.072,-22.034,0,0,0,
,0.228,-0.055,0.906,-78.248,-12.024,4.516,0,0,0,
,0.247,-0.077,0.973,8.483,27.16,5.676,0,0,0,
,0.223,-0.07,1.024,14.343,40.283,14.709,0,0,0,
,0.202,-0.039,1.07,15.625,36.743,18.798,0,0,0,
,0.185,-0.081,1.073,50.598,26.428,-1.465,0,0,0,
,0.165,-0.155,1.116,45.349,29.846,1.831,0,0,0,
,0.14,-0.113,1.156,10.803,36.132,1.22,0,0,0,
,0.155,-0.029,1.111,-20.203,36.865,12.939,0,0,0,
,0.165,-0.03,1.042,-16.663,45.837,1.159,0,0,0,
,0.157,-0.066,0.985,-21.058,63.11,-9.705,0,0,0,
,0.171,-0.067,0.977,-24.292,72.509,-18.372,0,0,0,
,0.183,-0.049,0.972,-28.626,74.523,-20.691,0,0,0,
,0.187,-0.072,0.979,-13.977,78.369,-23.499,0,0,0,
,0.194,-0.12,0.978,3.967,86.669,-13.611,0,0,0,
,0.191,-0.126,0.97,-1.16,80.261,-9.644,0,0,0,
,0.187,-0.083,0.975,-9.339,71.472,-1.038,0,0,0,
,0.179,-0.053,0.981,-14.283,73.852,-0.977,0,0,0,
,0.184,-0.062,0.985,-25.574,81.115,-0.306,0,0,0,
,0.194,-0.061,0.973,-35.523,83.618,-1.465,0,0,0,
,0.192,-0.065,0.979,-48.035,86.853,-7.935,0,0,0,
,0.204,-0.043,0.994,-53.711,90.515,-10.743,0,0,0,
,0.206,-0.042,1.008,-55.481,96.74,-17.09,0,0,0,
,0.218,-0.05,0.999,-60.73,102.966,-22.278,0,0,0,
,0.222,-0.058,0.999,-74.158,101.379,-28.687,0,0,0,
,0.22,-0.042,0.971,-97.474,97.534,-27.71,0,0,0,
,0.211,-0.034,0.954,-112.793,96.435,-36.133,0,0,0,
,0.213,-0.017,0.943,-122.559,96.252,-46.57,0,0,0,
,0.217,-0.017,0.958,-117.554,92.651,-56.153,0,0,0,
,0.216,-0.014,0.953,-104.981,92.346,-62.256,0,0,0,
,0.213,0.001,0.946,-88.44,94.909,-62.439,0,0,0,
,0.217,0.014,0.938,-62.806,90.881,-64.148,0,0,0,
,0.229,-0.028,0.951,-53.711,83.007,-67.261,0,0,0,
,0.236,-0.05,0.973,-56.153,74.462,-70.679,0,0,0,
,0.235,-0.02,0.957,-57.19,60.18,-69.031,0,0,0,
,0.226,-0.014,0.957,-53.589,55.786,-73.853,0,0,0,
,0.217,-0.005,0.949,-52.796,53.527,-73.121,0,0,0,
,0.201,0.002,0.981,-51.941,54.87,-75.074,0,0,0,
