TIMECODE,ACC_X,ACC_Y,ACC_Z,GYR_X,GYR_Y,GYR_Z,TAG
00:00:00:0,-0.326,-0.946,0.216,-23.499,37.231,-26.795,
00:00:00:16,-0.327,-0.948,0.224,-32.898,31.982,-28.321,
00:00:00:33,-0.32,-0.945,0.227,-45.044,24.536,-25.696,
00:00:00:50,-0.313,-0.94,0.233,-42.725,17.639,-25.757,
00:00:00:66,-0.309,-0.939,0.23,-36.622,3.662,-31.922,
00:00:00:83,-0.314,-0.939,0.231,-31.922,-2.869,-40.528,
00:00:00:100,-0.323,-0.945,0.226,-34.852,-12.269,-48.035,
00:00:00:116,-0.325,-0.933,0.23,-24.842,-21.18,-48.706,
00:00:00:133,-0.324,-0.945,0.233,-17.579,-22.95,-47.547,
00:00:00:150,-0.325,-0.953,0.233,-23.499,-24.292,-45.35,
00:00:00:166,-0.333,-0.944,0.237,-31.556,-19.837,-39.185,
00:00:00:183,-0.328,-0.941,0.241,-30.457,-14.71,-36.011,
00:00:00:200,-0.331,-0.941,0.247,-25.147,-8.118,-30.884,
00:00:00:216,-0.326,-0.941,0.239,-20.752,0.122,-26.673,
00:00:00:233,-0.324,-0.937,0.244,-19.349,1.953,-28.199,
00:00:00:250,-0.326,-0.937,0.242,-14.588,4.028,-32.837,
00:00:00:266,-0.329,-0.936,0.235,-13.306,6.164,-35.645,
00:00:00:283,-0.335,-0.945,0.231,-16.785,11.413,-35.218,
00:00:00:300,-0.33,-0.945,0.235,-26.062,15.441,-30.152,
00:00:00:316,-0.323,-0.942,0.236,-30.396,15.197,-27.466,
00:00:00:333,-0.323,-0.939,0.239,-27.283,17.578,-30.396,
00:00:00:350,-0.327,-0.934,0.238,-20.691,16.54,-32.41,
00:00:00:366,-0.329,-0.937,0.241,-11.353,15.197,-32.959,
00:00:00:383,-0.331,-0.938,0.243,-5.188,15.136,-29.847,
00:00:00:400,-0.329,-0.941,0.237,-1.221,15.319,-31.373,
00:00:00:416,-0.327,-0.945,0.235,-5.982,18.615,-28.87,
00:00:00:433,-0.328,-0.943,0.241,-12.452,19.897,-25.635,
00:00:00:450,-0.325,-0.939,0.238,-14.039,17.822,-25.086,
00:00:00:466,-0.323,-0.938,0.236,-9.217,19.043,-27.466,
00:00:00:483,-0.324,-0.941,0.237,-6.531,18.676,-29.664,
00:00:00:500,-0.326,-0.938,0.233,-8.423,14.831,-30.396,
00:00:00:516,-0.328,-0.945,0.231,-7.081,17.456,-34.852,
00:00:00:533,-0.331,-0.949,0.23,-14.527,18.066,-33.509,
00:00:00:550,-0.328,-0.946,0.235,-19.898,16.906,-28.138,
00:00:00:566,-0.329,-0.943,0.237,-22.156,14.038,-24.231,
00:00:00:583,-0.326,-0.94,0.235,-22.828,13.427,-22.156,
00:00:00:600,-0.32,-0.94,0.233,-20.203,8.728,-21.241,
00:00:00:616,-0.321,-0.937,0.237,-19.165,8.422,-24.842,
00:00:00:633,-0.323,-0.938,0.232,-15.931,5.065,-30.274,
00:00:00:650,-0.324,-0.942,0.231,-18.799,4.394,-33.875,
00:00:00:666,-0.324,-0.941,0.235,-21.973,-0.428,-37.171,
00:00:00:683,-0.328,-0.939,0.229,-21.912,0.122,-36.133,
00:00:00:700,-0.327,-0.94,0.235,-22.583,-5.249,-36.255,
00:00:00:716,-0.33,-0.944,0.236,-22.278,1.648,-34.241,
00:00:00:733,-0.329,-0.946,0.235,-22.706,-3.052,-28.199,
00:00:00:750,-0.331,-0.947,0.236,-26.429,5.554,-24.903,
00:00:00:766,-0.327,-0.942,0.238,-30.762,9.826,-23.316,
00:00:00:783,-0.328,-0.939,0.238,-31.25,7.263,-23.438,
00:00:00:800,-0.325,-0.938,0.239,-29.48,12.329,-24.476,
00:00:00:816,-0.323,-0.933,0.242,-26.917,7.507,-26.123,
00:00:00:833,-0.322,-0.937,0.241,-19.959,6.469,-28.992,
00:00:00:850,-0.322,-0.935,0.241,-14.527,2.136,-31.311,
00:00:00:866,-0.322,-0.941,0.24,-14.161,2.014,-33.936,
00:00:00:883,-0.327,-0.936,0.239,-9.095,0.244,-36.866,
00:00:00:900,-0.327,-0.938,0.236,-6.897,1.953,-39.063,
00:00:00:916,-0.33,-0.943,0.238,-6.531,5.615,-38.697,
00:00:00:933,-0.33,-0.94,0.239,-4.212,5.859,-36.988,
00:00:00:950,-0.329,-0.938,0.239,-4.09,7.141,-35.401,
00:00:00:966,-0.329,-0.938,0.236,-3.968,12.512,-34.302,
00:00:00:983,-0.323,-0.943,0.239,-3.235,14.343,-31.922,
00:00:01:0,-0.324,-0.942,0.237,-5.555,14.465,-34.668,
00:00:01:16,-0.326,-0.945,0.234,-8.423,13.61,-34.424,
00:00:01:33,-0.329,-0.945,0.234,-13.062,18.371,-33.204,
00:00:01:50,-0.33,-0.941,0.234,-16.48,20.324,-31.983,
00:00:01:66,-0.33,-0.939,0.231,-16.663,19.714,-29.664,
00:00:01:83,-0.332,-0.944,0.235,-19.349,18.92,-27.588,
00:00:01:100,-0.327,-0.944,0.233,-21.912,19.775,-25.33,
00:00:01:116,-0.323,-0.944,0.234,-24.781,18.005,-25.147,
00:00:01:133,-0.322,-0.94,0.241,-25.879,20.446,-25.574,
00:00:01:150,-0.324,-0.938,0.239,-24.048,19.958,-27.222,
00:00:01:166,-0.32,-0.936,0.244,-17.334,14.099,-32.532,
00:00:01:183,-0.327,-0.933,0.238,-12.146,11.047,-34.974,
00:00:01:200,-0.329,-0.939,0.239,-7.996,6.408,-33.204,
00:00:01:216,-0.326,-0.945,0.235,-8.973,7.141,-35.523,
00:00:01:233,-0.329,-0.939,0.233,-11.292,6.347,-34.18,
00:00:01:250,-0.325,-0.94,0.229,-13.306,3.662,-33.448,
00:00:01:266,-0.325,-0.943,0.234,-15.503,-1.954,-36.377,
00:00:01:283,-0.328,-0.936,0.233,-15.076,-3.724,-38.819,
00:00:01:300,-0.326,-0.94,0.234,-11.78,-3.296,-39.673,
00:00:01:316,-0.33,-0.941,0.232,-14.344,-3.479,-43.152,
00:00:01:333,-0.333,-0.944,0.236,-18.799,-2.32,-42.603,
00:00:01:350,-0.333,-0.944,0.235,-24.414,0.305,-37.903,
00:00:01:366,-0.336,-0.947,0.233,-23.011,5.004,-32.959,
00:00:01:383,-0.336,-0.946,0.238,-25.452,12.573,-25.94,
00:00:01:400,-0.335,-0.948,0.245,-26.612,23.803,-16.358,
00:00:01:416,-0.328,-0.939,0.241,-27.466,34.362,-5.005,
00:00:01:433,-0.328,-0.942,0.242,-28.687,36.438,-3.602,
00:00:01:450,-0.321,-0.937,0.243,-26.917,35.217,-2.747,
00:00:01:466,-0.32,-0.937,0.239,-22.034,34.362,-9.034,
00:00:01:483,-0.319,-0.939,0.236,-23.682,28.015,-11.17,
00:00:01:500,-0.322,-0.94,0.236,-27.161,22.094,-15.381,
00:00:01:516,-0.317,-0.936,0.235,-26.062,17.456,-18.738,
00:00:01:533,-0.317,-0.937,0.238,-25.574,11.413,-23.743,
00:00:01:550,-0.32,-0.941,0.238,-24.659,6.164,-28.077,
00:00:01:566,-0.317,-0.941,0.241,-25.696,1.22,-30.396,
00:00:01:583,-0.32,-0.94,0.245,-27.283,-13.855,-31.861,
00:00:01:600,-0.32,-0.937,0.247,-18.616,0.366,-31.861,
00:00:01:616,-0.323,-0.94,0.246,-13.977,2.624,-30.335,
00:00:01:633,-0.324,-0.942,0.245,-15.198,8.483,-29.725,
00:00:01:650,-0.326,-0.942,0.244,-16.663,10.681,-27.588,
00:00:01:666,-0.323,-0.946,0.246,-17.273,14.709,-24.17,
00:00:01:683,-0.315,-0.939,0.245,-19.776,14.343,-20.081,
00:00:01:700,-0.312,-0.938,0.245,-11.414,14.282,-21.058,
00:00:01:716,-0.314,-0.938,0.242,-8.423,11.901,-27.649,
00:00:01:733,-0.316,-0.94,0.243,-12.635,11.047,-30.884,
00:00:01:750,-0.32,-0.931,0.238,-11.292,7.751,-32.715,
00:00:01:766,-0.321,-0.941,0.239,-7.569,4.211,-34.241,
00:00:01:783,-0.318,-0.943,0.236,-9.461,7.934,-32.776,
00:00:01:800,-0.319,-0.939,0.238,-12.879,5.188,-35.34,
00:00:01:816,-0.318,-0.947,0.239,-13.001,11.108,-31.067,
00:00:01:833,-0.315,-0.942,0.244,-18.067,9.521,-31.495,
00:00:01:850,-0.318,-0.942,0.246,-18.799,9.46,-30.884,
00:00:01:866,-0.318,-0.939,0.246,-18.006,11.291,-29.541,
00:00:01:883,-0.321,-0.941,0.246,-9.4,13.427,-29.236,
00:00:01:900,-0.324,-0.941,0.245,-4.578,13.366,-28.992,
00:00:01:916,-0.324,-0.945,0.239,-9.461,18.737,-28.931,
00:00:01:933,-0.323,-0.946,0.24,-14.344,20.446,-22.522,
00:00:01:950,-0.318,-0.942,0.24,-16.846,20.752,-19.715,
00:00:01:966,-0.315,-0.941,0.237,-17.64,19.104,-22.339,
00:00:01:983,-0.31,-0.942,0.243,-17.701,16.296,-23.804,
00:00:02:0,-0.313,-0.942,0.24,-18.86,13.61,-28.199,
00:00:02:16,-0.317,-0.94,0.235,-14.893,10.742,-32.288,
00:00:02:33,-0.319,-0.941,0.243,-13.428,7.751,-31.495,
00:00:02:50,-0.317,-0.938,0.239,-10.071,6.103,-33.143,
00:00:02:66,-0.318,-0.941,0.236,-8.851,2.929,-31.067,
00:00:02:83,-0.32,-0.948,0.236,-13.611,3.234,-32.105,
00:00:02:100,-0.318,-0.943,0.237,-18.128,7.324,-31.189,
00:00:02:116,-0.319,-0.945,0.239,-21.973,7.202,-30.884,
00:00:02:133,-0.317,-0.945,0.245,-24.537,9.033,-29.419,
00:00:02:150,-0.316,-0.935,0.245,-23.011,8.911,-28.199,
00:00:02:166,-0.319,-0.939,0.241,-15.809,9.704,-31.067,
00:00:02:183,-0.322,-0.942,0.243,-11.292,9.948,-32.288,
00:00:02:200,-0.32,-0.943,0.241,-9.949,9.216,-29.48,
00:00:02:216,-0.32,-0.948,0.238,-13.001,11.474,-28.565,
00:00:02:233,-0.313,-0.945,0.239,-18.921,12.695,-27.161,
00:00:02:250,-0.314,-0.943,0.245,-23.316,5.859,-29.908,
00:00:02:266,-0.316,-0.936,0.243,-18.738,6.103,-32.532,
00:00:02:283,-0.315,-0.939,0.244,-13.855,3.295,-36.133,
00:00:02:300,-0.319,-0.937,0.24,-5.616,2.38,-36.866,
00:00:02:316,-0.32,-0.942,0.235,-4.151,0.549,-39.307,
00:00:02:333,-0.325,-0.942,0.23,-6.653,4.638,-37.903,
00:00:02:350,-0.321,-0.948,0.237,-9.583,6.408,-36.866,
00:00:02:366,-0.321,-0.946,0.238,-16.907,6.408,-32.898,
00:00:02:383,-0.318,-0.942,0.241,-20.142,9.277,-30.457,
00:00:02:400,-0.317,-0.942,0.247,-21.363,8.911,-29.664,
00:00:02:416,-0.317,-0.938,0.246,-17.395,8.239,-31.25,
00:00:02:433,-0.318,-0.937,0.244,-11.78,4.516,-35.645,
00:00:02:450,-0.324,-0.94,0.241,-2.564,6.225,-35.828,
00:00:02:466,-0.323,-0.944,0.237,-1.221,8.911,-35.584,
00:00:02:483,-0.323,-0.948,0.231,-2.32,10.681,-34.058,
00:00:02:500,-0.323,-0.95,0.231,-11.719,13.244,-32.898,
00:00:02:516,-0.319,-0.945,0.236,-20.447,9.765,-30.396,
00:00:02:533,-0.318,-0.941,0.241,-24.231,13.916,-29.48,
00:00:02:550,-0.315,-0.937,0.244,-20.752,8.972,-30.701,
00:00:02:566,-0.318,-0.935,0.241,-13.123,5.737,-34.974,
00:00:02:583,-0.321,-0.938,0.238,-0.916,5.31,-35.706,
00:00:02:600,-0.323,-0.942,0.237,-3.663,6.408,-39.063,
00:00:02:616,-0.328,-0.943,0.237,-8.423,5.554,-36.316,
00:00:02:633,-0.324,-0.945,0.235,-11.536,8.3,-32.532,
00:00:02:650,-0.322,-0.947,0.23,-11.353,8.911,-29.664,
00:00:02:666,-0.32,-0.943,0.236,-21.912,8.972,-30.579,
00:00:02:683,-0.318,-0.938,0.239,-22.828,5.615,-33.936,
00:00:02:700,-0.32,-0.938,0.242,-18.372,4.577,-33.02,
00:00:02:716,-0.323,-0.94,0.239,-12.085,3.295,-35.035,
00:00:02:733,-0.324,-0.941,0.234,-10.376,2.99,-35.096,
00:00:02:750,-0.324,-0.945,0.235,-11.597,5.737,-35.584,
00:00:02:766,-0.326,-0.95,0.229,-19.349,9.033,-31.495,
00:00:02:783,-0.324,-0.947,0.23,-28.016,13.305,-28.992,
00:00:02:800,-0.317,-0.949,0.232,-37.781,7.812,-26.123,
00:00:02:816,-0.319,-0.945,0.237,-44.983,9.033,-25.025,
00:00:02:833,-0.321,-0.938,0.245,-41.443,1.586,-28.748,
00:00:02:850,-0.324,-0.938,0.249,-35.706,3.112,-28.138,
00:00:02:866,-0.321,-0.937,0.254,-32.898,0.976,-26.856,
00:00:02:883,-0.321,-0.933,0.237,-16.419,-4.029,-26.307,
00:00:02:900,-0.325,-0.961,0.227,-20.63,-3.418,-24.292,
00:00:02:916,-0.319,-0.952,0.258,-41.443,-13.367,-11.536,
00:00:02:933,-0.327,-0.916,0.276,-14.649,-13.428,-9.583,
00:00:02:950,-0.324,-0.945,0.327,41.381,-2.747,-2.259,
00:00:02:966,-0.385,-0.981,0.395,117.37,67.871,16.418,
00:00:02:983,-0.357,-0.963,0.342,224.609,48.828,91.613,
00:00:03:0,-0.382,-1.039,0.595,553.588,-104.493,116.638,
00:00:03:16,-0.491,-1.249,0.836,1049.987,-155.945,130.676,
00:00:03:33,-0.537,-1.346,0.736,1570.861,-101.502,193.481,
00:00:03:50,-0.84,-2.043,0.194,1684.875,55.236,-52.43,
00:00:03:66,-0.922,-4,-0.215,354.187,101.013,-519.165,
00:00:03:83,-0.285,-3.318,0.02,-892.701,-208.374,-1181.58,
00:00:03:100,-2.199,-1.438,-0.495,-606.873,-846.558,-2000,
00:00:03:116,0.264,-2.925,0.164,-446.9,-293.885,-2000,
00:00:03:133,-0.548,-2.735,-0.521,-124.756,32.043,-2000,
00:00:03:150,0.171,-2.411,-0.831,-344.727,151.367,-2000,
00:00:03:166,0.398,-1.9,-0.822,-1005.555,328.125,-2000,
00:00:03:183,0.804,-1.251,-0.857,-1306.275,527.16,-2000,
00:00:03:200,1.065,-0.73,-0.87,-1414.734,652.404,-2000,
00:00:03:216,1.388,-0.542,-0.848,-1710.816,637.024,-2000,
00:00:03:233,1.74,-0.004,-0.937,-1938.477,567.505,-2000,
00:00:03:250,1.697,0.647,-0.94,-1821.534,559.509,-2000,
00:00:03:266,1.432,1.041,-0.724,-1453.064,639.709,-2000,
00:00:03:283,1.204,1.251,-0.505,-905.274,909.057,-2000,
00:00:03:300,0.984,2.34,-0.074,-510.315,1003.357,-2000,
00:00:03:316,0.921,3.198,0.292,-257.874,979.248,-1542.298,
00:00:03:333,0.806,2.982,0.313,-104.493,646.789,285.095,
00:00:03:350,0.526,2.36,0.454,408.691,445.434,1638.61,
00:00:03:366,0.534,1.425,0.299,1250.793,381.042,1999.694,
00:00:03:383,0.482,0.839,-0.002,1532.776,134.948,1999.694,
00:00:03:400,0.35,0.584,-0.139,1552.246,-211.182,1999.694,
00:00:03:416,0.232,0.478,-0.169,1545.593,-533.57,1999.694,
00:00:03:433,0.18,0.343,-0.142,1614.38,-656.067,1999.694,
00:00:03:450,0.199,0.173,-0.139,1698.303,-664.795,1999.694,
00:00:03:466,0.241,0.009,-0.153,1691.65,-610.047,1999.694,
00:00:03:483,0.224,-0.227,-0.207,1548.095,-560.242,1999.694,
00:00:03:500,0.108,-0.568,-0.239,1249.45,-494.507,1999.694,
00:00:03:516,-0.072,-0.779,-0.154,751.709,-456.543,1999.694,
00:00:03:533,-0.25,-0.98,-0.15,397.094,-318.36,1999.694,
00:00:03:550,-0.203,-1.12,0.027,601.867,-121.827,1999.694,
00:00:03:566,-0.025,-1.399,-0.041,776.428,25.329,1999.694,
00:00:03:583,0.318,-1.965,-0.038,434.143,-61.341,1999.694,
00:00:03:600,0.217,-2.471,0.049,71.411,-17.518,1999.694,
00:00:03:616,-0.073,-2.634,0.166,-107.85,56.518,1545.288,
00:00:03:633,-0.321,-2.488,0.306,198.974,148.193,947.448,
00:00:03:650,-0.529,-2.079,0.363,831.848,152.893,521.118,
00:00:03:666,-0.593,-1.811,0.369,1220.825,126.159,196.899,
00:00:03:683,-0.66,-1.738,0.308,967.895,75.256,99.243,
00:00:03:700,-0.634,-1.57,0.233,341.186,11.779,67.871,
00:00:03:716,-0.523,-1.55,0.32,-536.011,-83.68,45.166,
00:00:03:733,-0.594,-1.492,0.43,-882.325,-145.508,-8.118,
00:00:03:750,-0.529,-1.14,0.527,-834.656,-50.66,1.098,
00:00:03:766,-0.311,-0.83,0.5,-352.112,0.915,470.642,
00:00:03:783,-0.374,-0.842,0.538,17.944,-38.514,279.052,
00:00:03:800,-0.311,-1.017,0.51,124.694,40.222,445.251,
00:00:03:816,-0.2,-0.943,0.338,256.225,60.669,418.884,
00:00:03:833,-0.168,-1.092,0.23,31.066,69.58,337.219,
00:00:03:850,0.052,-1.286,0.268,-356.507,178.711,361.938,
00:00:03:866,0.047,-0.876,0.194,-282.898,200.5,579.589,
00:00:03:883,-0.038,-0.694,0.107,81.726,244.018,321.289,
00:00:03:900,0.03,-0.869,0.083,382.385,194.763,53.161,
00:00:03:916,0.056,-0.873,0.07,471.557,96.008,-56.092,
00:00:03:933,-0.038,-0.92,0.072,548.217,34.301,-142.029,
00:00:03:950,-0.069,-1.025,-0.066,440.734,45.166,-129.151,
00:00:03:966,-0.064,-1.059,-0.133,189.331,12.573,-24.72,
00:00:03:983,-0.114,-0.949,-0.131,8.972,-21.363,28.686,breakEggLH
00:00:04:0,-0.168,-0.923,-0.077,-76.355,22.155,81.604,
00:00:04:16,-0.1,-1,0.019,-46.875,98.205,83.984,
00:00:04:33,-0.048,-0.951,0.07,-23.804,61.096,43.09,
00:00:04:50,-0.073,-0.967,0.12,2.99,25.94,21.728,
00:00:04:66,-0.097,-0.927,0.13,59.57,7.751,7.69,
00:00:04:83,-0.115,-0.98,0.134,135.864,-17.518,-2.93,
00:00:04:100,-0.115,-1.077,0.128,102.172,-27.466,-2.32,
00:00:04:116,-0.1,-1.09,0.131,6.042,-48.279,8.606,
00:00:04:133,-0.102,-1.042,0.112,-58.045,-47.12,10.437,
00:00:04:150,-0.104,-1.008,0.116,-62.256,-52.613,13.244,
00:00:04:166,-0.109,-0.974,0.097,-50.415,-37.964,26.428,
00:00:04:183,-0.082,-1.02,0.094,-43.457,-21.241,27.16,
00:00:04:200,-0.066,-1.03,0.119,-76.172,-24.842,40.222,
00:00:04:216,-0.061,-1.064,0.2,-91.797,-31.739,10.131,
00:00:04:233,-0.057,-0.995,0.118,-102.784,-21.973,-24.903,
00:00:04:250,-0.061,-0.982,0.134,-114.441,-49.439,-38.88,
00:00:04:266,-0.095,-0.969,0.174,-58.228,-48.035,-61.28,
00:00:04:283,-0.101,-0.99,0.163,-2.015,-11.048,-45.105,
00:00:04:300,-0.087,-1.04,0.13,-7.264,13.244,-50.477,
00:00:04:316,-0.064,-1.019,0.119,-43.58,18.066,-46.936,
00:00:04:333,-0.062,-0.991,0.122,-66.651,9.033,-66.529,
00:00:04:350,-0.074,-0.954,0.093,-65.247,6.286,-81.788,
00:00:04:366,-0.061,-0.953,0.117,-73.243,-9.217,-104.859,
00:00:04:383,-0.063,-0.961,0.145,-51.575,-20.142,-127.808,
00:00:04:400,-0.056,-1.003,0.172,-40.406,-3.663,-151.246,
00:00:04:416,-0.04,-1.03,0.197,-15.625,7.873,-186.463,
00:00:04:433,-0.051,-1.019,0.192,10.07,6.469,-208.741,
00:00:04:450,-0.079,-1.023,0.202,73.547,8.606,-244.446,
00:00:04:466,-0.104,-1.082,0.182,185.608,20.446,-291.382,
00:00:04:483,-0.122,-1.149,0.136,341.369,30.883,-316.224,
00:00:04:500,-0.189,-1.193,0.125,559.021,-3.968,-414.917,
00:00:04:516,-0.283,-1.341,0.104,619.873,11.596,-453.919,
00:00:04:533,-0.343,-1.499,0.056,453.186,31.799,-461.487,
00:00:04:550,-0.391,-1.467,0.038,220.642,54.382,-423.584,
00:00:04:566,-0.418,-1.404,0.037,68.969,78.247,-392.945,
00:00:04:583,-0.432,-1.287,0.062,1.648,144.043,-392.823,
00:00:04:600,-0.418,-1.251,0.046,-159.058,155.944,-434.266,
00:00:04:616,-0.409,-1.177,0.098,-410.889,177.551,-422.364,
00:00:04:633,-0.591,-0.454,0.475,-588.99,-361.329,-2000,
00:00:04:650,-0.106,-1.143,0.005,-421.936,438.049,-163.392,
00:00:04:666,-0.215,-0.675,0.012,-316.04,174.072,-236.268,
00:00:04:683,-0.495,-0.836,0.057,-330.75,193.725,-569.153,
00:00:04:700,-0.434,-0.946,0.067,-522.644,261.596,-413.514,
00:00:04:716,-0.296,-0.689,0.012,-560.547,257.446,-369.385,
00:00:04:733,-0.293,-0.593,0.043,-463.074,214.843,-309.998,
00:00:04:750,-0.335,-0.708,0.098,-480.53,198.669,-303.65,
00:00:04:766,-0.334,-0.569,0.138,-365.296,202.88,-266.358,
00:00:04:783,-0.314,-0.509,0.182,-147.828,209.35,-224.427,
00:00:04:800,-0.32,-0.652,0.185,-44.312,199.768,-204.468,
00:00:04:816,-0.292,-0.716,0.204,-7.752,174.865,-147.889,
00:00:04:833,-0.255,-0.661,0.206,11.779,142.517,-75.867,
00:00:04:850,-0.256,-0.699,0.213,1.464,124.694,-46.753,
00:00:04:866,-0.251,-0.725,0.152,-7.691,110.717,-20.264,
00:00:04:883,-0.247,-0.693,0.199,2.99,75.378,33.813,
00:00:04:900,-0.259,-0.722,0.235,47.973,62.255,54.626,
00:00:04:916,-0.271,-0.791,0.223,86.364,46.508,70.434,
00:00:04:933,-0.28,-0.802,0.221,132.446,23.803,97.106,
00:00:04:950,-0.302,-0.839,0.244,137.39,-0.977,117.248,
00:00:04:966,-0.324,-0.906,0.252,103.149,-15.564,119.506,
00:00:04:983,-0.341,-0.937,0.249,71.96,-27.649,134.399,
00:00:05:0,-0.359,-0.93,0.259,6.958,-43.641,153.869,
00:00:05:16,-0.387,-0.918,0.28,-62.623,-53.04,156.005,
00:00:05:33,-0.415,-0.884,0.258,-62.745,-54.261,152.954,
00:00:05:50,-0.452,-0.864,0.256,-17.456,-38.575,155.334,
00:00:05:66,-0.478,-0.907,0.254,-1.099,-2.259,166.137,
00:00:05:83,-0.487,-0.952,0.232,-79.163,36.132,199.157,
00:00:05:100,-0.477,-1.011,0.244,-200.013,85.266,259.582,
00:00:05:116,-0.454,-0.955,0.256,-317.261,138.305,358.154,
00:00:05:133,-0.425,-0.839,0.263,-361.634,199.707,377.746,
00:00:05:150,-0.354,-0.716,0.353,5.065,207.824,218.2,
00:00:05:166,-0.24,-1.34,0.78,1310.913,42.175,-221.558,
00:00:05:183,-0.343,-2.032,0.175,644.226,-22.4,-114.197,
00:00:05:200,-0.283,-1.632,-0.047,-453.919,-47.242,-217.408,
00:00:05:216,-0.324,-1.082,-0.071,-1045.533,-60.364,-60.242,
00:00:05:233,-0.441,-0.696,0.125,-992.127,-44.434,-143.494,
00:00:05:250,-0.486,-0.574,0.349,-390.748,13.366,-236.145,
00:00:05:266,-0.45,-0.689,0.297,203.186,99.792,-277.1,
00:00:05:283,-0.385,-0.859,0.185,328.735,158.264,-294.556,
00:00:05:300,-0.347,-0.927,0.164,88.378,182.312,-188.66,
00:00:05:316,-0.342,-0.843,0.204,-187.317,223.266,-68.177,
00:00:05:333,-0.325,-0.807,0.319,-333.069,278.869,83.007,
00:00:05:350,-0.308,-0.82,0.378,-402.527,317.199,260.009,
00:00:05:366,-0.296,-0.727,0.259,-537.781,343.567,430.175,
00:00:05:383,-0.291,-0.588,1.204,-66.956,165.893,194.152,
00:00:05:400,-0.205,-1.325,0.739,1245.239,-2.076,-363.526,
00:00:05:416,-0.241,-1.925,0.236,223.022,-146.058,-245.545,
00:00:05:433,-0.157,-1.411,0.07,-800.11,-154.847,-44.739,
00:00:05:450,-0.208,-0.768,0.01,-1587.525,-101.014,150.39,
00:00:05:466,-0.364,-0.29,0.258,-1075.623,-178.772,-34.546,
00:00:05:483,-0.422,-0.327,0.434,-34.241,-82.337,-144.165,
00:00:05:500,-0.39,-0.619,0.311,771.24,34.973,-260.376,
00:00:05:516,-0.411,-1.116,0.092,514.282,169.189,-122.803,
00:00:05:533,-0.366,-1.242,0.089,-246.705,275.634,117.736,
00:00:05:550,-0.305,-0.734,0.142,-918.03,360.595,384.277,
00:00:05:566,-0.14,-0.525,1.886,-86.06,219.787,276.977,
00:00:05:583,-0.003,-1.216,0.882,1477.295,-77.393,-346.558,
00:00:05:600,-0.393,-1.971,0.244,471.618,-176.697,-314.82,
00:00:05:616,-0.28,-0.839,0.271,-1012.33,-42.664,51.94,
00:00:05:633,-0.345,-0.567,0.477,-544.617,-70.496,-47.181,
00:00:05:650,-0.453,-0.662,0.516,267.578,-76.966,-252.991,
00:00:05:666,-0.545,-1.089,0.335,681.64,-9.949,-457.825,
00:00:05:683,-0.547,-1.311,0.219,434.326,67.443,-429.627,
00:00:05:700,-0.493,-1.194,0.213,32.959,102.905,-431.702,
00:00:05:716,-0.514,-0.991,0.223,-153.565,133.667,-446.412,
00:00:05:733,-0.562,-0.785,0.234,-133.851,172.79,-476.929,
00:00:05:750,-0.582,-0.73,0.274,-0.977,240.783,-511.78,
00:00:05:766,-0.559,-0.73,0.267,150.756,307.556,-532.349,
00:00:05:783,-0.522,-0.742,0.244,180.542,354.248,-525.269,
00:00:05:800,-0.495,-0.83,0.279,116.516,378.173,-495.057,
00:00:05:816,-0.454,-0.872,0.357,-71.961,375.732,-427.063,
00:00:05:833,-0.41,-0.768,0.438,-223.511,360.656,-361.756,
00:00:05:850,-0.405,-0.666,0.466,-257.752,351.501,-307.373,
00:00:05:866,-0.399,-0.649,0.465,-249.146,346.008,-272.889,
00:00:05:883,-0.351,-0.668,0.491,-223.999,337.219,-208.069,
00:00:05:900,-0.308,-0.675,0.5,-234.498,306.945,-140.198,
00:00:05:916,-0.3,-0.683,0.548,-285.035,264.77,-89.844,
00:00:05:933,-0.301,-0.65,0.556,-341.858,230.346,-40.528,
00:00:05:950,-0.289,-0.63,0.555,-361.817,211.242,-13.001,
00:00:05:966,-0.258,-0.659,0.588,-320.313,186.462,7.263,
00:00:05:983,-0.266,-0.641,0.588,-219.178,164.123,13.794,
00:00:06:0,-0.282,-0.631,0.567,-70.008,163.269,14.77,
00:00:06:16,-0.286,-0.697,0.53,-3.785,170.227,12.39,
00:00:06:33,-0.283,-0.75,0.504,-77.881,170.227,31.799,
00:00:06:50,-0.288,-0.705,0.512,-222.84,172.668,66.162,
00:00:06:66,-0.303,-0.605,0.519,-222.229,195.984,80.2,
00:00:06:83,-0.321,-0.598,0.519,-102.295,212.89,71.899,
00:00:06:100,-0.245,-0.758,0.608,-16.846,162.231,79.467,
00:00:06:116,-0.228,-0.746,0.62,-59.693,92.773,152.282,
00:00:06:133,-0.281,-0.694,0.633,-51.697,85.998,134.521,
00:00:06:150,-0.297,-0.701,0.628,63.964,95.581,108.947,
00:00:06:166,-0.277,-0.748,0.647,95.703,115.417,120.361,
00:00:06:183,-0.243,-0.794,0.605,121.765,118.103,93.933,
00:00:06:200,-0.254,-0.79,0.553,172.851,101.257,92.956,
00:00:06:216,-0.259,-0.776,0.784,466.43,31.25,-0.977,
00:00:06:233,-0.304,-1.001,0.641,768.31,24.963,-77.454,
00:00:06:250,-0.3,-1.007,0.543,523.315,-21.424,-6.836,
00:00:06:266,-0.318,-0.817,0.495,489.868,-50.721,13.61,
00:00:06:283,-0.367,-0.793,0.463,463.256,-70.313,8.178,
00:00:06:300,-0.393,-0.822,0.417,449.829,-44.861,2.868,
00:00:06:316,-0.374,-0.987,0.36,360.473,-47.669,10.437,
00:00:06:333,-0.355,-1.016,0.411,145.324,-82.459,46.63,
00:00:06:350,-0.339,-1.028,0.489,-1.954,-94.727,51.147,
00:00:06:366,-0.326,-0.968,0.451,-43.274,-87.586,41.748,
00:00:06:383,-0.354,-0.894,0.407,-132.019,-71.839,25.878,
00:00:06:400,-0.348,-0.839,0.48,-101.868,-41.81,9.643,
00:00:06:416,-0.324,-0.848,0.539,-11.353,-20.63,-8.484,
00:00:06:433,-0.314,-0.945,0.563,55.603,-20.02,-32.349,
00:00:06:450,-0.321,-1.029,0.545,-36.194,-40.101,-42.115,
00:00:06:466,-0.336,-1.018,0.594,-155.152,-73.853,-26.246,
00:00:06:483,-0.404,-1.001,0.525,-276.429,-66.224,-22.156,
00:00:06:500,-0.4,-1.071,0.544,-407.776,-46.57,-38.025,
00:00:06:516,-0.413,-1.152,0.517,-683.045,-29.602,-16.907,
00:00:06:533,-0.432,-1.154,0.518,-947.876,-6.775,-13.489,
00:00:06:550,-0.444,-1.082,0.58,-1150.757,40.344,-5.555,
00:00:06:566,-0.445,-1.039,0.633,-1237.793,88.806,-56.458,
00:00:06:583,-0.396,-1.056,0.629,-1595.215,175.415,-141.968,
00:00:06:600,-0.336,-0.865,0.662,-1809.327,169.128,-118.714,
00:00:06:616,-0.324,-0.642,0.702,-1782.715,123.718,-151.917,
00:00:06:633,-0.313,-0.477,0.732,-1615.113,77.941,-170.411,
00:00:06:650,-0.303,-0.354,0.783,-1392.029,42.48,-195.069,
00:00:06:666,-0.297,-0.311,0.769,-1225.098,37.292,-203.003,
00:00:06:683,-0.273,-0.262,0.773,-1087.22,36.01,-183.472,
00:00:06:700,-0.248,-0.145,0.764,-955.75,2.075,-144.776,
00:00:06:716,-0.246,-0.093,0.808,-765.076,-24.231,-150.269,
00:00:06:733,-0.249,-0.072,0.799,-545.472,-37.415,-150.696,
00:00:06:750,-0.221,-0.106,0.79,-381.775,-37.659,-148.316,
00:00:06:766,-0.25,-0.136,0.779,-290.955,-47.242,-125.733,
00:00:06:783,-0.263,-0.132,0.779,-253.968,-63.416,-102.845,
00:00:06:800,-0.28,-0.12,0.791,-177.124,-75.684,-99.244,
00:00:06:816,-0.293,-0.125,0.788,-31.434,-76.905,-103.76,
00:00:06:833,-0.298,-0.152,0.788,68.298,-85.633,-125.977,
00:00:06:850,-0.33,-0.18,0.792,122.497,-92.408,-71.045,
00:00:06:866,-0.345,-0.194,0.788,141.418,-64.087,-46.692,
00:00:06:883,-0.344,-0.213,0.786,163.147,-34.607,-25.635,
00:00:06:900,-0.335,-0.246,0.793,180.542,-3.785,24.963,
00:00:06:916,-0.337,-0.252,0.787,206.054,10.376,35.095,
00:00:06:933,-0.323,-0.25,0.786,246.154,37.536,53.649,
00:00:06:950,-0.3,-0.235,0.769,295.654,44.067,71.35,
00:00:06:966,-0.276,-0.221,0.758,366.333,32.959,81.359,
00:00:06:983,-0.267,-0.204,0.735,454.834,-0.55,86.425,
00:00:07:0,-0.272,-0.204,0.728,600.708,-31.739,82.824,
00:00:07:16,-0.287,-0.208,0.716,804.077,-68.848,81.848,
00:00:07:33,-0.296,-0.327,0.783,1010.559,-81.727,70.739,
00:00:07:50,-0.29,-0.45,0.737,1020.019,-95.704,105.835,
00:00:07:66,-0.305,-0.435,0.688,1066.345,-164.612,118.53,
00:00:07:83,-0.349,-0.46,0.625,1314.636,-215.76,89.66,
00:00:07:100,-0.399,-0.55,0.595,1671.997,-215.088,51.818,
00:00:07:116,-0.42,-0.705,0.58,1927.734,-166.26,34.24,
00:00:07:133,-0.41,-0.891,0.568,1984.008,-117.676,10.681,
00:00:07:150,-0.436,-1.063,0.541,1919.372,-74.769,-6.165,
00:00:07:166,-0.451,-1.108,0.506,1637.329,-21.302,-9.888,
00:00:07:183,-0.442,-1.121,0.45,1341.369,6.469,-30.884,
00:00:07:200,-0.431,-1.179,0.473,966.919,1.159,-9.217,
00:00:07:216,-0.343,-1.197,0.521,615.356,-64.27,2.563,
00:00:07:233,-0.419,-0.917,0.388,332.458,-48.584,-52.918,
00:00:07:250,-0.413,-0.989,0.414,446.838,-37.476,-75.257,
00:00:07:266,-0.408,-1.044,0.415,398.376,-28.748,-86.487,
00:00:07:283,-0.424,-1.052,0.386,260.864,-44.922,-94.727,
00:00:07:300,-0.436,-1.018,0.353,174.377,-52.796,-111.878,
00:00:07:316,-0.44,-0.975,0.355,141.662,-50.293,-121.888,
00:00:07:333,-0.471,-0.921,0.326,138.366,-33.936,-140.381,
00:00:07:350,-0.514,-0.929,0.285,139.465,-8.789,-156.067,
00:00:07:366,-0.484,-0.957,0.306,69.885,-22.339,-124.878,
00:00:07:383,-0.458,-0.948,0.273,-36.377,-53.223,-106.202,
00:00:07:400,-0.498,-0.912,0.258,-139.832,-84.473,-97.046,
00:00:07:416,-0.499,-0.902,0.292,-193.543,-99.915,-90.76,
00:00:07:433,-0.461,-0.922,0.27,-205.628,-100.953,-85.267,
00:00:07:450,-0.447,-0.916,0.332,-160.34,-109.681,-99.06,
00:00:07:466,-0.425,-0.871,0.375,-10.254,-62.256,-136.78,
00:00:07:483,-0.417,-0.927,0.407,59.021,-50.415,-134.156,
00:00:07:500,-0.42,-0.966,0.356,-14.527,-31.128,-146.241,
00:00:07:516,-0.418,-0.89,0.333,-87.891,-0.245,-171.387,
00:00:07:533,-0.416,-0.926,0.292,-86.976,-5.433,-208.191,
00:00:07:550,-0.401,-0.977,0.276,-93.323,-18.25,-203.431,
00:00:07:566,-0.375,-0.967,0.346,-164.917,-30.762,-202.576,
00:00:07:583,-0.383,-0.922,0.387,-175.599,-61.463,-250.184,
00:00:07:600,-0.388,-0.848,0.33,-129.578,-69.031,-254.09,
00:00:07:616,-0.391,-0.833,0.291,-110.474,-77.759,-262.452,
00:00:07:633,-0.398,-0.839,0.218,-154.114,-121.216,-241.883,
00:00:07:650,-0.408,-0.79,0.263,-185.12,-143.982,-211.976,
00:00:07:666,-0.374,-0.732,0.253,-200.867,-195.008,-188.538,
00:00:07:683,-0.245,-0.77,0.418,-179.81,-290.345,-143.982,
00:00:07:700,-0.243,-0.705,0.415,-113.526,-362.244,-144.715,
00:00:07:716,-0.21,-0.655,0.375,-31.739,-417.664,-105.103,
00:00:07:733,-0.185,-0.602,0.336,26.001,-483.643,-36.072,
00:00:07:750,-0.187,-0.585,0.302,44.433,-542.664,39.978,
00:00:07:766,-0.212,-0.574,0.271,-10.071,-585.694,139.831,
00:00:07:783,-0.263,-0.573,0.225,-111.451,-619.69,259.277,
00:00:07:800,-0.34,-0.572,0.181,-210.938,-633.667,380.615,
00:00:07:816,-0.437,-0.511,0.127,-235.84,-637.635,513.122,
00:00:07:833,-0.503,-0.388,0.074,-118.531,-622.132,614.868,
00:00:07:850,-0.546,-0.38,0.016,173.828,-561.829,667.053,
00:00:07:866,-0.509,-0.605,-0.048,537.719,-502.869,697.326,
00:00:07:883,-0.462,-0.923,-0.154,758.117,-466.492,723.449,
00:00:07:900,-0.467,-1.173,-0.14,704.406,-438.965,718.628,
00:00:07:916,-0.515,-1.237,-0.159,528.381,-392.334,659.79,
00:00:07:933,-0.547,-1.17,-0.159,379.211,-356.812,581.482,
00:00:07:950,-0.552,-1.189,-0.144,355.285,-301.575,492.981,
00:00:07:966,-0.533,-1.239,-0.132,354.126,-254.334,405.456,
00:00:07:983,-0.391,-1.233,-0.015,305.847,-225.831,248.657,breakEggLH
00:00:08:0,-0.456,-1.182,0.015,313.171,-223.633,277.282,
00:00:08:16,-0.448,-1.12,-0.063,270.996,-223.572,209.655,
00:00:08:33,-0.456,-1.17,-0.059,129.211,-214.356,180.542,
00:00:08:50,-0.385,-1.191,-0.047,-117.188,-232.727,163.33,
00:00:08:66,-0.376,-1.074,-0.002,-265.931,-217.774,173.889,
00:00:08:83,-0.367,-1.013,0.03,-340.638,-194.947,160.4,
00:00:08:100,-0.345,-1,0.034,-283.997,-167.786,121.704,
00:00:08:116,-0.354,-1.005,0.052,-118.103,-153.016,82.214,
00:00:08:133,-0.406,-1.386,0.068,-51.758,-128.418,-14.771,
00:00:08:150,-0.346,-1.496,-0.038,-304.749,-97.779,-168.335,
00:00:08:166,-0.325,-0.898,0.018,-378.174,-84.351,-151.49,
00:00:08:183,-0.341,-0.678,0.06,-127.076,-67.2,-38.086,
00:00:08:200,-0.328,-1.049,0.049,114.624,-36.072,-58.045,
00:00:08:216,-0.319,-1.14,0.031,-2.625,-8.301,-74.524,
00:00:08:233,-0.299,-1.008,0.035,-109.192,13,-78.431,
00:00:08:250,-0.287,-0.925,0.024,-101.014,27.16,-66.956,
00:00:08:266,-0.279,-0.963,0.012,-66.895,43.273,-60.181,
00:00:08:283,-0.279,-1.029,-0.001,-104.493,48.767,-65.552,
00:00:08:300,-0.27,-1.043,-0.013,-160.645,43.029,-67.017,
00:00:08:316,-0.272,-1.015,-0.004,-194.947,31.555,-59.388,
00:00:08:333,-0.279,-0.977,0.012,-216.675,25.329,-50.354,
00:00:08:350,-0.268,-0.975,0.024,-220.765,16.967,-50.721,
00:00:08:366,-0.267,-0.985,0.025,-214.966,17.028,-54.627,
00:00:08:383,-0.271,-0.964,0.072,-166.443,11.596,-49.256,
00:00:08:400,-0.276,-0.953,0.103,-86.365,18.615,-52.247,
00:00:08:416,-0.277,-0.97,0.104,-29.786,19.836,-50.354,
00:00:08:433,-0.281,-1.003,0.097,-15.442,13.488,-44.495,
00:00:08:450,-0.282,-0.999,0.078,-37.72,4.272,-41.871,
00:00:08:466,-0.286,-0.994,0.072,-54.749,1.342,-34.546,
00:00:08:483,-0.296,-0.977,0.087,-64.576,-3.052,-28.565,
00:00:08:500,-0.303,-0.981,0.092,-65.247,4.455,-25.696,
00:00:08:516,-0.309,-0.992,0.085,-70.496,13.61,-24.781,
00:00:08:533,-0.344,-0.969,0.096,-72.51,21.179,-17.884,
00:00:08:550,-0.309,-0.952,0.101,-53.04,32.653,-25.086,
00:00:08:566,-0.301,-0.962,0.1,-25.513,33.63,-29.297,
00:00:08:583,-0.292,-0.977,0.095,-16.907,29.846,-33.387,
00:00:08:600,-0.283,-0.993,0.085,-25.147,20.507,-27.283,
00:00:08:616,-0.286,-0.99,0.082,-40.039,8.972,-22.278,
00:00:08:633,-0.286,-0.972,0.082,-54.017,2.136,-17.456,
00:00:08:650,-0.284,-0.967,0.08,-44.739,4.394,-18.433,
00:00:08:666,-0.283,-0.98,0.074,-56.031,1.648,-22.706,
00:00:08:683,-0.28,-0.993,0.073,-84.229,1.648,-22.095,
00:00:08:700,-0.282,-0.985,0.073,-113.465,3.173,-18.921,
00:00:08:716,-0.282,-0.971,0.085,-120.057,7.568,-19.165,
00:00:08:733,-0.279,-0.965,0.113,-99.244,7.263,-24.414,
00:00:08:750,-0.283,-0.96,0.126,-81.299,8.483,-28.077,
00:00:08:766,-0.283,-0.98,0.127,-70.008,10.009,-33.814,
00:00:08:783,-0.282,-0.979,0.129,-70.923,10.376,-35.34,
00:00:08:800,-0.282,-0.969,0.121,-63.294,8.85,-36.56,
00:00:08:816,-0.287,-0.96,0.124,-43.091,5.188,-35.157,
00:00:08:833,-0.287,-0.972,0.124,-19.837,3.356,-35.523,
00:00:08:850,-0.291,-0.981,0.122,-12.696,6.042,-33.204,
00:00:08:866,-0.291,-0.976,0.123,-10.498,4.211,-26.612,
00:00:08:883,-0.287,-0.976,0.115,-6.775,6.774,-22.461,
00:00:08:900,-0.288,-0.974,0.114,-7.691,9.033,-20.63,
00:00:08:916,-0.289,-0.976,0.112,-15.748,14.953,-18.982,
00:00:08:933,-0.301,-0.984,0.113,-3.296,27.71,-16.968,
00:00:08:950,-0.322,-0.98,0.145,63.964,54.626,-13.367,
00:00:08:966,-0.393,-1.015,0.187,168.396,106.994,-2.686,
00:00:08:983,-0.404,-1.055,0.265,362.304,133.117,-15.076,
00:00:09:0,-0.478,-1.029,0.286,707.458,131.775,-67.627,
00:00:09:16,-0.529,-1.067,0.118,1118.957,93.139,-178.711,
00:00:09:33,-0.542,-1.397,-0.076,1333.618,65.918,-287.049,
00:00:09:50,-0.567,-1.874,-0.292,882.507,35.522,-426.697,
00:00:09:66,-0.554,-1.922,-0.294,-29.725,27.71,-576.6,
00:00:09:83,-0.612,-1.471,-0.173,-617.676,58.166,-715.699,
00:00:09:100,-0.646,-1.096,-0.101,-580.75,145.813,-815.979,
00:00:09:116,-0.628,-0.879,-0.087,-226.807,252.014,-864.991,
00:00:09:133,-0.623,-0.826,-0.077,30.822,355.957,-855.042,
00:00:09:150,-0.538,-0.831,-0.089,49.865,430.42,-802.796,
00:00:09:166,-0.478,-0.756,-0.075,-77.759,471.435,-716.431,
00:00:09:183,-0.431,-0.636,-0.005,-188.721,493.896,-603.028,
00:00:09:200,-0.388,-0.52,0.029,-228.638,508.789,-449.402,
00:00:09:216,-0.339,-0.409,0.099,-204.529,502.258,-272.4,
00:00:09:233,-0.3,-0.34,0.122,-153.26,487.609,-120.179,
00:00:09:250,-0.25,-0.231,0.134,-71.839,459.045,24.902,
00:00:09:266,-0.19,-0.268,0.126,107.116,408.63,106.14,
00:00:09:283,-0.141,-0.43,0.111,197.631,361.816,194.641,
00:00:09:300,-0.1,-0.654,0.149,-4.761,278.076,294.311,
00:00:09:316,-0.091,-0.82,0.183,-357.422,198.608,385.376,
00:00:09:333,-0.117,-0.811,0.166,-594.788,150.756,470.337,
00:00:09:350,-0.159,-0.697,0.179,-641.114,140.442,533.142,
00:00:09:366,-0.211,-0.637,0.135,-467.041,149.719,550.232,
00:00:09:383,-0.225,-0.715,0.134,-223.572,143.005,545.593,
00:00:09:400,-0.255,-0.931,0.131,-59.144,144.958,545.532,
00:00:09:416,-0.329,-1.117,0.065,-72.388,164.55,553.161,
00:00:09:433,-0.403,-1.153,0.076,-187.256,195.8,522.4,
00:00:09:450,-0.364,-1.15,0.584,206.665,202.636,153.32,
00:00:09:466,-0.378,-1.828,0.351,1427.002,44.616,-281.25,
00:00:09:483,-0.453,-2.245,-0.077,111.328,-81.788,-168.885,
00:00:09:500,-0.352,-1.511,-0.165,-1094.605,-84.29,-239.441,
00:00:09:516,-0.43,-0.755,0.136,-1188.965,-113.16,-148.499,
00:00:09:533,-0.578,-0.567,0.355,-550.171,-91.126,-280.701,
00:00:09:550,-0.519,-0.655,0.309,110.717,12.939,-327.21,
00:00:09:566,-0.363,-0.774,0.15,262.024,52.551,-268.738,
00:00:09:583,-0.335,-0.825,0.025,-113.16,76.599,-121.888,
00:00:09:600,-0.36,-0.835,0.09,-692.078,117.492,90.271,
00:00:09:616,-0.41,-0.66,0.249,-1134.095,186.096,304.321,
00:00:09:633,-0.455,-0.277,0.341,-1111.39,301.33,501.648,
00:00:09:650,-0.451,-0.15,0.349,-785.401,394.653,553.344,
00:00:09:666,-0.283,-0.548,0.82,216.613,296.508,270.752,
00:00:09:683,0.042,-1.502,0.725,1953.125,-22.767,-221.924,
00:00:09:700,-0.38,-2.361,-0.01,579.895,-135.498,-227.478,
00:00:09:716,-0.25,-1.519,0.106,-909.79,-209.168,-117.92,
00:00:09:733,-0.297,-0.757,0.259,-1272.217,-236.451,-48.157,
00:00:09:750,-0.421,-0.407,0.253,-676.453,-205.018,-177.369,
00:00:09:766,-0.402,-0.336,0.237,109.68,-168.824,-215.394,
00:00:09:783,-0.38,-0.481,0.116,620.605,-82.703,-163.392,
00:00:09:800,-0.441,-0.779,0.051,355.163,56.823,0.976,
00:00:09:816,-0.454,-0.947,0.092,-444.458,220.214,238.342,
00:00:09:833,-0.41,-0.664,0.227,-952.088,420.471,484.008,
00:00:09:850,-0.172,-0.449,1.335,-915.101,342.59,542.785,
00:00:09:866,-0.173,-0.967,1.306,1409.484,107.116,78.552,
00:00:09:883,-0.508,-1.784,0.492,928.955,2.929,-141.175,
00:00:09:900,-0.293,-2.08,0.291,-173.584,-149.781,-176.514,
00:00:09:916,-0.268,-1.19,-0.005,-1435.242,-116.517,68.786,
00:00:09:933,-0.44,-0.543,0.273,-1433.716,60.18,-44.8,
00:00:09:950,-0.435,-0.374,0.605,36.315,-10.254,-205.262,
00:00:09:966,-0.489,-0.879,0.361,1017.395,33.935,-386.963,
00:00:09:983,-0.659,-1.585,0.204,743.164,100.097,-450.44,
00:00:10:0,-0.51,-1.382,0.166,-58.716,143.432,-477.478,
00:00:10:16,-0.515,-0.981,0.132,-403.199,159.79,-493.042,
00:00:10:33,-0.581,-0.825,0.251,-361.939,202.88,-493.409,
00:00:10:50,-0.532,-0.807,0.312,-132.935,240.051,-549.134,
00:00:10:66,-0.506,-0.824,0.298,9.094,286.438,-574.036,
00:00:10:83,-0.531,-0.818,0.291,17.15,336.914,-599.244,
00:00:10:100,-0.518,-0.765,0.276,-5.066,381.652,-600.647,
00:00:10:116,-0.489,-0.727,0.238,15.686,397.766,-568.421,
00:00:10:133,-0.463,-0.673,0.284,44.86,398.01,-492.615,
00:00:10:150,-0.424,-0.614,0.358,30.151,393.432,-424.012,
00:00:10:166,-0.375,-0.593,0.408,50.598,379.821,-378.479,
00:00:10:183,-0.32,-0.596,0.446,74.829,356.689,-313.599,
00:00:10:200,-0.281,-0.61,0.462,54.565,327.27,-257.142,
00:00:10:216,-0.273,-0.619,0.466,21.545,288.696,-208.924,
00:00:10:233,-0.28,-0.607,0.489,11.962,258.972,-151.795,
00:00:10:250,-0.28,-0.591,0.502,27.282,230.774,-105.286,
00:00:10:266,-0.282,-0.596,0.493,70.312,212.951,-70.374,
00:00:10:283,-0.273,-0.632,0.499,110.473,198.73,-37.72,
00:00:10:300,-0.265,-0.643,0.487,136.718,185.669,-4.09,
00:00:10:316,-0.259,-0.652,0.429,187.072,166.992,17.944,
00:00:10:333,-0.251,-0.704,0.429,236.633,134.704,47.79,
00:00:10:350,-0.244,-0.785,0.508,166.137,68.603,87.036,
00:00:10:366,-0.333,-0.672,0.522,71.167,-32.044,119.201,
00:00:10:383,-0.359,-0.745,0.458,278.747,-9.278,101.257,
00:00:10:400,-0.355,-0.894,0.391,347.412,6.408,95.764,
00:00:10:416,-0.362,-0.97,0.37,259.216,14.221,103.698,
00:00:10:433,-0.366,-0.959,0.372,118.591,12.939,119.934,
00:00:10:450,-0.368,-0.921,0.398,-18.677,3.784,143.921,
00:00:10:466,-0.405,-0.815,0.446,-29.114,-1.77,141.113,
00:00:10:483,-0.415,-0.823,0.45,132.202,18.005,110.351,
00:00:10:500,-0.391,-0.948,0.439,212.768,17.517,88.562,
00:00:10:516,-0.367,-1.046,0.455,139.77,4.882,79.773,
00:00:10:533,-0.373,-1.024,0.441,-34.607,-1.038,85.144,
00:00:10:550,-0.409,-0.96,0.441,-109.498,-5.799,71.96,
00:00:10:566,-0.431,-0.934,0.463,-96.863,1.342,55.664,
00:00:10:583,-0.406,-0.975,0.504,-51.148,5.004,25.146,
00:00:10:600,-0.388,-1.06,0.537,-96.314,-21.912,3.234,
00:00:10:616,-0.407,-1.045,0.527,-166.26,-31.739,-24.659,
00:00:10:633,-0.413,-0.999,0.528,-203.553,-38.086,-42.542,
00:00:10:650,-0.425,-0.969,0.536,-234.314,-44.678,-58.899,
00:00:10:666,-0.451,-0.92,0.501,-251.282,-34.729,-85.877,
00:00:10:683,-0.454,-0.939,0.511,-241.15,-23.316,-101.563,
00:00:10:700,-0.44,-0.953,0.511,-281.434,-15.809,-90.882,
00:00:10:716,-0.426,-0.915,0.537,-335.511,-7.752,-94.178,
00:00:10:733,-0.415,-0.933,0.602,-375.367,-23.743,-99.915,
00:00:10:750,-0.424,-0.941,0.592,-487.244,-36.011,-103.272,
00:00:10:766,-0.46,-0.883,0.581,-581.727,-31.861,-126.709,
00:00:10:783,-0.484,-0.849,0.584,-567.749,-2.259,-147.217,
00:00:10:800,-0.48,-0.893,0.584,-564.759,36.56,-164.307,
00:00:10:816,-0.475,-1.005,0.601,-696.412,78.002,-162.171,
00:00:10:833,-0.492,-1.121,0.531,-1056.641,121.399,-148.926,
00:00:10:850,-0.483,-1.072,0.506,-1547.852,198.73,-144.227,
00:00:10:866,-0.443,-0.824,0.536,-1766.663,219.909,-112.244,
00:00:10:883,-0.428,-0.619,0.638,-1761.292,185.119,-160.035,
00:00:10:900,-0.434,-0.562,0.714,-1630.005,154.907,-216.736,
00:00:10:916,-0.378,-0.571,0.753,-1530.091,156.494,-228.943,
00:00:10:933,-0.365,-0.497,0.765,-1487.305,136.474,-213.685,
00:00:10:950,-0.341,-0.424,0.772,-1453.064,69.458,-206.116,
00:00:10:966,-0.34,-0.375,0.758,-1436.524,8.667,-200.867,
00:00:10:983,-0.356,-0.29,0.732,-1419.373,-46.021,-187.623,
00:00:11:0,-0.343,-0.137,0.762,-1334.107,-105.042,-179.139,
00:00:11:16,-0.331,0.011,0.81,-1100.525,-170.655,-218.934,
00:00:11:33,-0.348,0.055,0.871,-840.76,-232.361,-215.149,
00:00:11:50,-0.381,0.049,0.844,-566.224,-223.938,-213.562,
00:00:11:66,-0.394,0.004,0.834,-414.612,-181.458,-190.796,
00:00:11:83,-0.397,-0.009,0.785,-371.46,-148.438,-153.138,
00:00:11:100,-0.393,0,0.767,-347.352,-147.461,-133.423,
00:00:11:116,-0.397,0.03,0.795,-300.721,-156.495,-130.249,
00:00:11:133,-0.417,0.028,0.793,-196.961,-170.594,-128.174,
00:00:11:150,-0.44,0.032,0.777,-110.596,-158.081,-117.127,
00:00:11:166,-0.458,0.051,0.779,-16.053,-126.16,-105.164,
00:00:11:183,-0.462,0.046,0.755,75.988,-81.91,-78.919,
00:00:11:200,-0.455,0.025,0.756,128.173,-38.392,-56.397,
00:00:11:216,-0.444,-0.021,0.746,148.681,-4.334,-30.03,
00:00:11:233,-0.448,-0.053,0.747,120.788,5.371,-21.058,
00:00:11:250,-0.453,-0.047,0.76,103.149,12.268,-13.977,
00:00:11:266,-0.461,-0.054,0.78,115.6,37.109,2.502,
00:00:11:283,-0.454,-0.093,0.78,151.672,72.876,18.981,
00:00:11:300,-0.435,-0.074,0.765,162.658,100.708,41.565,
00:00:11:316,-0.422,-0.07,0.768,173.339,107.422,50.72,
00:00:11:333,-0.423,-0.064,0.766,191.345,96.13,58.044,
00:00:11:350,-0.432,-0.078,0.771,206.848,97.717,68.481,
00:00:11:366,-0.434,-0.063,0.773,228.881,115.661,88.928,
00:00:11:383,-0.428,-0.043,0.76,279.235,136.108,109.497,
00:00:11:400,-0.414,-0.035,0.756,352.234,148.498,124.084,
00:00:11:416,-0.396,-0.024,0.751,454.834,138.244,146.118,
00:00:11:433,-0.389,-0.031,0.754,587.341,116.15,164.672,
00:00:11:450,-0.387,-0.054,0.757,767.7,86.303,176.941,
00:00:11:466,-0.398,-0.13,0.758,917.297,63.842,193.054,
00:00:11:483,-0.404,-0.208,0.754,969.848,79.406,225.219,
00:00:11:500,-0.39,-0.249,0.765,1043.029,106.018,249.755,
00:00:11:516,-0.369,-0.28,0.767,1174.072,95.153,244.567,
00:00:11:533,-0.362,-0.362,0.758,1420.349,38.696,209.167,
00:00:11:550,-0.363,-0.474,0.747,1687.927,-47.669,179.687,
00:00:11:566,-0.371,-0.616,0.71,1907.714,-103.882,149.109,
00:00:11:583,-0.411,-0.822,0.665,1964.355,-130.066,117.309,
00:00:11:600,-0.44,-1.081,0.621,1828.918,-124.817,121.765,
00:00:11:616,-0.435,-1.211,0.586,1438.659,-142.151,61.218,
00:00:11:633,-0.431,-1.169,0.569,1072.937,-163.453,42.846,
00:00:11:650,-0.469,-1.029,0.567,958.74,-173.645,12.512,
00:00:11:666,-0.515,-0.931,0.578,1060.974,-160.279,-42.359,
00:00:11:683,-0.542,-0.917,0.549,1137.756,-129.273,-100.037,
00:00:11:700,-0.471,-1.085,0.447,479.675,-100.892,-135.193,
00:00:11:716,-0.492,-0.951,0.473,286.56,-93.445,-130.127,
00:00:11:733,-0.506,-0.873,0.475,234.619,-76.539,-159.363,
00:00:11:750,-0.467,-0.909,0.516,200.683,-86.243,-169.373,
00:00:11:766,-0.463,-0.93,0.568,89.172,-96.863,-159.546,
00:00:11:783,-0.492,-0.871,0.549,26.916,-63.477,-185.242,
00:00:11:800,-0.447,-0.871,0.446,56.701,-22.95,-178.833,
00:00:11:816,-0.464,-0.914,0.383,37.719,2.075,-173.584,
00:00:11:833,-0.486,-0.955,0.326,-18.128,13.671,-159.913,
00:00:11:850,-0.492,-0.946,0.288,-75.501,10.376,-148.56,
00:00:11:866,-0.497,-0.907,0.305,-62.745,5.004,-150.879,
00:00:11:883,-0.498,-0.933,0.316,-53.345,6.774,-154.664,
00:00:11:900,-0.479,-0.952,0.317,-25.574,14.404,-152.527,
00:00:11:916,-0.479,-0.882,0.291,-68.116,2.502,-159.974,
00:00:11:933,-0.483,-0.864,0.244,-108.887,-3.113,-194.581,
00:00:11:950,-0.482,-0.877,0.238,-157.532,-9.034,-205.14,
00:00:11:966,-0.478,-0.845,0.269,-151.917,-13.184,-209.9,
00:00:11:983,-0.48,-0.828,0.283,-120.667,-18.982,-201.05,
00:00:12:0,-0.461,-0.83,0.291,-103.943,-30.823,-186.158,
00:00:12:16,-0.457,-0.826,0.313,-127.259,-50.66,-182.129,
00:00:12:33,-0.453,-0.804,0.318,-94.178,-71.717,-193.848,
00:00:12:50,-0.42,-0.828,0.411,29.541,-113.343,-230.164,
00:00:12:66,-0.359,-0.931,0.434,68.847,-169.129,-266.114,
00:00:12:83,-0.317,-0.905,0.415,-25.818,-245.789,-260.926,
00:00:12:100,-0.293,-0.811,0.405,-87.281,-313.904,-267.09,
00:00:12:116,-0.27,-0.761,0.401,-85.022,-374.573,-250.428,
00:00:12:133,-0.294,-0.736,0.417,-100.525,-424.073,-238.953,
00:00:12:150,-0.33,-0.691,0.414,-126.77,-469.483,-196.534,
00:00:12:166,-0.333,-0.632,0.39,-126.343,-511.963,-136.597,
00:00:12:183,-0.344,-0.61,0.338,-122.559,-557.435,-69.214,
00:00:12:200,-0.378,-0.573,0.286,-112.61,-610.596,17.395,
00:00:12:216,-0.457,-0.513,0.229,-87.098,-654.908,121.399,
00:00:12:233,-0.525,-0.46,0.171,-1.465,-679.688,210.083,
00:00:12:250,-0.562,-0.45,0.134,107.605,-666.565,320.678,
00:00:12:266,-0.556,-0.508,0.098,186.279,-638.062,425.72,
00:00:12:283,-0.587,-0.608,0.021,207.214,-607.911,520.263,
00:00:12:300,-0.638,-0.67,-0.104,145.63,-591.98,615.356,
00:00:12:316,-0.692,-0.662,-0.2,33.508,-559.754,686.828,
00:00:12:333,-0.715,-0.72,-0.195,28.442,-494.324,739.807,
00:00:12:350,-0.674,-0.89,-0.171,41.015,-421.204,813.598,
00:00:12:366,-0.667,-1.069,-0.106,19.287,-356.873,848.205,
00:00:12:383,-0.683,-1.025,-0.061,-120.362,-280.884,825.012,
00:00:12:400,-0.61,-1.106,-0.001,-19.715,-68.543,517.151,
00:00:12:416,-0.593,-1.154,0.052,-91.919,-51.636,461.486,
00:00:12:433,-0.577,-1.068,0.094,-203.248,-55.115,423.645,
00:00:12:450,-0.541,-0.994,0.134,-230.408,-61.219,390.503,
00:00:12:466,-0.485,-0.966,0.127,-172.059,-70.252,358.337,
00:00:12:483,-0.429,-1.005,0.141,-115.601,-83.619,314.941,
00:00:12:500,-0.375,-1.054,0.15,-134.156,-102.234,242.492,
00:00:12:516,-0.36,-1.176,0.197,-139.527,-104.493,85.632,
00:00:12:533,-0.337,-1.424,0.172,-148.255,-73.121,-49.927,
00:00:12:550,-0.332,-1.346,0.167,-253.663,-39.307,-143.433,
00:00:12:566,-0.32,-0.935,0.159,-417.237,-29.358,-99.366,
00:00:12:583,-0.31,-0.771,0.128,-325.135,-29.48,-32.837,
00:00:12:600,-0.276,-0.853,0.127,-250.061,-28.992,7.446,
00:00:12:616,-0.283,-1.012,0.164,-243.164,-18.982,10.681,
00:00:12:633,-0.286,-1.094,0.19,-320.74,7.263,-26.429,
00:00:12:650,-0.273,-1.053,0.198,-379.639,34.301,-55.115,
00:00:12:666,-0.287,-0.945,0.226,-415.467,48.767,-37.781,
00:00:12:683,-0.283,-0.925,0.206,-388.306,56.518,-54.566,
00:00:12:700,-0.255,-0.958,0.227,-312.806,45.715,-65.552,
00:00:12:716,-0.271,-0.955,0.237,-306.58,39.794,-66.834,
00:00:12:733,-0.266,-0.956,0.258,-280.274,20.202,-66.285,
00:00:12:750,-0.291,-0.956,0.284,-266.419,7.995,-59.998,
00:00:12:766,-0.293,-0.937,0.322,-254.578,-4.334,-62.073,
00:00:12:783,-0.313,-0.921,0.338,-227.601,-10.376,-64.637,
00:00:12:800,-0.342,-0.928,0.339,-155.762,-3.418,-46.936,
00:00:12:816,-0.334,-0.911,0.357,-118.226,2.319,-34.729,
00:00:12:833,-0.333,-0.899,0.374,-68.543,3.479,-26.978,
00:00:12:850,-0.325,-0.91,0.367,-10.56,9.521,-18.677,
00:00:12:866,-0.311,-0.913,0.361,21.057,16.113,-13.672,
00:00:12:883,-0.3,-0.926,0.347,35.888,15.808,-14.527,
00:00:12:900,-0.298,-0.927,0.325,32.226,19.714,-16.663,
00:00:12:916,-0.302,-0.92,0.314,24.963,21.606,-16.541,
00:00:12:933,-0.303,-0.922,0.309,12.023,27.282,-20.508,
00:00:12:950,-0.302,-0.927,0.31,-2.259,34.79,-26.368,
00:00:12:966,-0.293,-0.917,0.32,11.84,38.94,-35.157,
00:00:12:983,-0.297,-0.919,0.321,26.184,29.235,-35.584,breakEggLH
00:00:13:0,-0.302,-0.925,0.318,31.921,23.62,-32.898,
00:00:13:16,-0.305,-0.934,0.314,46.752,10.437,-35.401,
00:00:13:33,-0.3,-0.934,0.302,41.565,8.422,-31.8,
00:00:13:50,-0.303,-0.933,0.29,38.452,0,-30.396,
00:00:13:66,-0.301,-0.935,0.28,-4.822,-6.47,-32.532,
00:00:13:83,-0.3,-0.939,0.285,-25.513,-9.705,-29.969,
00:00:13:100,-0.3,-0.937,0.295,-43.396,-8.912,-29.786,
00:00:13:116,-0.305,-0.935,0.3,-57.557,-4.883,-30.64,
00:00:13:133,-0.305,-0.934,0.31,-70.679,-1.404,-31.739,
00:00:13:150,-0.316,-0.936,0.316,-75.257,3.173,-28.199,
00:00:13:166,-0.326,-0.94,0.324,-52.552,8.667,-21.058,
00:00:13:183,-0.355,-0.977,0.362,-15.076,21.667,-9.705,
00:00:13:200,-0.4,-0.977,0.413,-2.808,77.026,4.394,
00:00:13:216,-0.44,-1.005,0.422,64.697,146.545,-9.766,
00:00:13:233,-0.459,-1.001,0.407,234.619,105.163,-12.269,
00:00:13:250,-0.489,-1.023,0.417,392.7,48.889,35.095,
00:00:13:266,-0.558,-1.092,0.29,480.468,45.471,-54.627,
00:00:13:283,-0.517,-1.203,0.252,334.716,52.368,-245.85,
00:00:13:300,-0.446,-1.393,0.175,347.961,65.49,-335.144,
00:00:13:316,-0.438,-1.523,0.229,8.606,69.885,-517.64,
00:00:13:333,-0.439,-1.277,0.251,-207.215,102.356,-619.141,
00:00:13:350,-1.225,-0.483,0.185,-26.368,139.343,55.603,
00:00:13:366,-0.056,-1.162,0.376,-134.888,31.799,-1308.655,
00:00:13:383,-0.389,-0.746,0.255,225.341,258.85,-511.536,
00:00:13:400,-0.518,-0.852,0.224,293.396,250.915,-843.384,
00:00:13:416,-0.343,-0.835,0.183,260.498,271.179,-722.901,
00:00:13:433,-0.348,-0.692,0.213,270.507,277.404,-649.476,
00:00:13:450,-0.363,-0.617,0.238,310.058,302.124,-589.112,
00:00:13:466,-0.351,-0.647,0.24,278.686,331.909,-508.667,
00:00:13:483,-0.334,-0.702,0.197,156.311,341.003,-417.42,
00:00:13:500,-0.316,-0.73,0.169,-11.963,333.984,-316.285,
00:00:13:516,-0.318,-0.711,0.159,-211.426,313.049,-174.744,
00:00:13:533,-0.339,-0.621,0.205,-421.875,281.921,-37.11,
00:00:13:550,-0.387,-0.469,0.271,-583.68,266.784,93.322,
00:00:13:566,-0.377,-0.517,0.252,-518.738,272.216,142.761,
00:00:13:583,-0.383,-0.576,0.227,-419.983,278.32,225.586,
00:00:13:600,-0.409,-0.612,0.254,-317.627,303.527,304.443,
00:00:13:616,-0.434,-0.66,0.293,-268.006,368.591,388,
00:00:13:633,-0.44,-0.801,0.362,-313.05,449.096,438.598,
00:00:13:650,-0.41,-0.975,0.401,-443.421,540.161,460.571,
00:00:13:666,-0.323,-1.104,0.301,-653.199,612.793,487.548,
00:00:13:683,-0.273,-0.891,0.806,-519.593,515.197,313.11,
00:00:13:700,0.035,-1.309,1.286,1147.094,-121.094,-248.536,
00:00:13:716,-0.187,-1.904,0.487,581.237,-329.285,-247.315,
00:00:13:733,-0.498,-1.501,0.273,-728.455,-252.198,-235.962,
00:00:13:750,-0.478,-0.82,0.242,-1239.014,-136.597,-112.183,
00:00:13:766,-0.433,-0.435,0.334,-1120.423,-148.987,-100.342,
00:00:13:783,-0.447,-0.308,0.432,-357.85,-208.008,-225.586,
00:00:13:800,-0.474,-0.433,0.419,364.868,-156.373,-244.141,
00:00:13:816,-0.519,-0.799,0.323,451.599,20.813,-152.161,
00:00:13:833,-0.508,-1.173,0.27,-131.714,263,27.038,
00:00:13:850,-0.421,-0.901,0.274,-949.158,447.082,202.758,
00:00:13:866,-0.456,-0.302,0.315,-1253.113,531.005,340.026,
00:00:13:883,-0.482,-0.008,-0.219,-938.904,600.769,277.771,
00:00:13:900,-0.269,-0.483,1.71,349.853,333.435,-93.506,
00:00:13:916,-0.004,-0.914,0.769,1474.426,-110.657,-198.731,
00:00:13:933,-0.2,-1.461,0.472,695.373,-351.441,-216.919,
00:00:13:950,-0.376,-0.813,0.315,-261.78,-301.941,-0.123,
00:00:13:966,-0.363,-0.507,0.334,-327.271,-297.791,-3.418,
00:00:13:983,-0.379,-0.533,0.543,133.178,-257.691,-25.208,
00:00:14:0,-0.426,-0.712,0.357,363.281,-118.409,3.601,
00:00:14:16,-0.489,-0.872,0.242,113.586,106.079,98.999,
00:00:14:33,-0.496,-0.667,0.065,-250.611,325.378,272.155,
00:00:14:50,-0.483,-0.785,1.264,-2.808,394.409,219.787,
00:00:14:66,-0.198,-1.064,1.174,954.04,-15.748,-51.026,
00:00:14:83,-0.322,-1.665,0.731,469.36,-167.847,-113.099,
00:00:14:100,-0.502,-1.481,0.442,-419.617,-143.738,-176.209,
00:00:14:116,-0.489,-0.957,0.337,-923.645,-44.068,-100.22,
00:00:14:133,-0.419,-0.706,0.471,-867.432,10.253,-145.63,
00:00:14:150,-0.369,-0.541,0.465,-666.81,-42.786,-157.715,
00:00:14:166,-0.449,-0.469,0.535,113.525,-201.355,-294.434,
00:00:14:183,-0.623,-0.721,0.481,783.63,-275.025,-482.727,
00:00:14:200,-0.783,-1.194,0.491,709.9,-121.216,-479.004,
00:00:14:216,-0.65,-1.216,0.382,60.669,62.377,-403.504,
00:00:14:233,-0.533,-0.878,0.305,-341.126,78.43,-377.015,
00:00:14:250,-0.649,-0.682,0.329,-316.407,113.647,-428.956,
00:00:14:266,-0.688,-0.633,0.371,-161.072,218.322,-449.097,
00:00:14:283,-0.629,-0.631,0.415,7.995,303.1,-437.561,
00:00:14:300,-0.584,-0.649,0.476,96.618,333.374,-413.086,
00:00:14:316,-0.561,-0.646,0.516,106.811,345.642,-371.644,
00:00:14:333,-0.521,-0.578,0.524,101.135,351.562,-305.115,
00:00:14:350,-0.475,-0.466,0.491,138.244,348.51,-249.085,
00:00:14:366,-0.436,-0.457,0.488,207.458,357.666,-235.718,
00:00:14:383,-0.374,-0.59,0.548,255.188,364.502,-224.976,
00:00:14:400,-0.324,-0.699,0.558,156.25,347.961,-177.552,
00:00:14:416,-0.276,-0.756,0.565,13.61,315.673,-133.606,
00:00:14:433,-0.248,-0.715,0.567,-55.237,275.207,-79.773,
00:00:14:450,-0.27,-0.618,0.581,-64.148,233.398,-33.081,
00:00:14:466,-0.282,-0.572,0.586,-8.667,213.134,-35.218,
00:00:14:483,-0.257,-0.646,0.598,22.888,174.926,-36.133,
00:00:14:500,-0.212,-0.692,0.659,-106.446,121.826,46.325,
00:00:14:516,-0.241,-0.644,0.697,-221.192,76.049,59.936,
00:00:14:533,-0.24,-0.608,0.679,-101.99,59.326,56.579,
00:00:14:550,-0.292,-0.591,0.611,97.534,48.461,44.616,
00:00:14:566,-0.335,-0.701,0.579,298.584,71.655,-8.24,
00:00:14:583,-0.347,-0.775,0.502,336.303,100.341,9.521,
00:00:14:600,-0.364,-0.829,0.479,222.29,114.929,28.076,
00:00:14:616,-0.384,-0.818,0.484,59.57,116.699,67.932,
00:00:14:633,-0.397,-0.751,0.51,-64.331,130.493,94.238,
00:00:14:650,-0.384,-0.704,0.56,-50.66,147.4,111.023,
00:00:14:666,-0.369,-0.706,0.621,54.748,161.132,113.769,
00:00:14:683,-0.361,-0.721,0.642,157.653,149.231,118.835,
00:00:14:700,-0.372,-0.784,0.642,295.898,132.934,99.243,
00:00:14:716,-0.37,-0.848,0.708,284.179,105.896,124.084,
00:00:14:733,-0.348,-0.841,0.676,214.66,83.313,139.648,
00:00:14:750,-0.345,-0.795,0.602,199.829,59.326,104.492,
00:00:14:766,-0.355,-0.746,0.503,297.912,30.883,34.179,
00:00:14:783,-0.368,-0.79,0.494,408.203,-7.019,12.756,
00:00:14:800,-0.394,-0.87,0.505,520.202,-31.739,3.54,
00:00:14:816,-0.41,-0.96,0.512,440.246,-36.927,6.652,
00:00:14:833,-0.401,-0.975,0.472,272.522,-33.997,-4.639,
00:00:14:850,-0.41,-0.98,0.461,100.83,-78.614,1.525,
00:00:14:866,-0.433,-1.014,0.358,-57.129,-50.232,-50.293,
00:00:14:883,-0.435,-1.016,0.473,-274.72,-55.726,-56.031,
00:00:14:900,-0.43,-0.989,0.492,-450.989,-28.077,-37.964,
00:00:14:916,-0.421,-1.016,0.518,-619.446,-10.621,-67.933,
00:00:14:933,-0.409,-1.042,0.526,-803.65,7.507,-76.844,
00:00:14:950,-0.408,-1.005,0.568,-1020.569,20.324,-66.895,
00:00:14:966,-0.433,-0.937,0.608,-1210.389,47.851,-69.275,
00:00:14:983,-0.44,-0.9,0.63,-1405.518,83.496,-86.487,
00:00:15:0,-0.438,-0.851,0.683,-1539.979,107.849,-105.591,
00:00:15:16,-0.412,-0.801,0.741,-1659.363,130.31,-104.981,
00:00:15:33,-0.384,-0.712,0.742,-1739.686,118.896,-110.596,
00:00:15:50,-0.375,-0.606,0.755,-1734.131,71.838,-132.752,
00:00:15:66,-0.384,-0.547,0.764,-1688.172,12.39,-145.569,
00:00:15:83,-0.37,-0.418,0.854,-1655.579,-12.574,-146.058,
00:00:15:100,-0.361,-0.296,0.886,-1527.894,-49.561,-118.714,
00:00:15:116,-0.382,-0.293,0.84,-1369.996,-64.27,-188.782,
00:00:15:133,-0.371,-0.176,0.849,-1276.917,-49.073,-192.627,
00:00:15:150,-0.361,-0.084,0.854,-1135.743,-79.102,-184.388,
00:00:15:166,-0.363,-0.074,0.844,-997.498,-95.398,-164.551,
00:00:15:183,-0.35,-0.011,0.845,-882.813,-88.562,-152.466,
00:00:15:200,-0.349,0.066,0.832,-744.935,-111.268,-153.687,
00:00:15:216,-0.359,0.065,0.833,-571.289,-131.958,-143.433,
00:00:15:233,-0.375,0.025,0.81,-473.267,-125.794,-117.737,
00:00:15:250,-0.375,0.061,0.807,-428.162,-102.723,-101.563,
00:00:15:266,-0.363,0.062,0.82,-357.3,-109.742,-97.168,
00:00:15:283,-0.394,0.051,0.824,-145.63,-117.676,-83.313,
00:00:15:300,-0.403,0.073,0.821,-79.712,-101.99,-66.407,
00:00:15:316,-0.415,0.063,0.801,-5.005,-94.483,-57.557,
00:00:15:333,-0.426,0.048,0.797,53.283,-73.487,-52.124,
00:00:15:350,-0.43,0.033,0.788,102.295,-43.03,-40.528,
00:00:15:366,-0.427,0.018,0.788,135.864,-19.532,-28.931,
00:00:15:383,-0.429,-0.011,0.784,136.84,4.638,-8.362,
00:00:15:400,-0.418,-0.004,0.792,128.601,27.587,1.831,
00:00:15:416,-0.409,-0.009,0.797,141.113,38.696,16.784,
00:00:15:433,-0.405,-0.011,0.799,157.776,48.95,29.968,
00:00:15:450,-0.397,-0.007,0.798,194.58,56.945,39.062,
00:00:15:466,-0.401,-0.02,0.791,231.689,57.495,49.682,
00:00:15:483,-0.412,-0.035,0.779,263.305,60.424,55.664,
00:00:15:500,-0.423,-0.065,0.786,272.583,89.965,70.373,
00:00:15:516,-0.416,-0.08,0.794,271.545,135.864,91.247,
00:00:15:533,-0.387,-0.099,0.807,277.526,161.621,107.91,
00:00:15:550,-0.373,-0.104,0.823,292.968,149.536,120.849,
00:00:15:566,-0.375,-0.125,0.84,311.706,125.366,130.554,
00:00:15:583,-0.389,-0.136,0.916,412.475,114.502,165.466,
00:00:15:600,-0.381,-0.17,0.908,475.463,105.102,179.626,
00:00:15:616,-0.374,-0.198,0.915,527.893,71.899,185.73,
00:00:15:633,-0.37,-0.224,0.906,570.19,33.874,191.528,
00:00:15:650,-0.381,-0.234,0.957,680.847,-9.4,157.592,
00:00:15:666,-0.39,-0.288,0.968,800.354,-50.782,132.568,
00:00:15:683,-0.402,-0.357,0.977,990.661,-79.041,108.337,
00:00:15:700,-0.395,-0.409,0.948,1197.692,-115.784,69.458,
00:00:15:716,-0.409,-0.501,0.894,1380.554,-177.552,29.052,
00:00:15:733,-0.435,-0.618,0.846,1451.477,-227.662,-12.269,
00:00:15:750,-0.5,-0.646,0.803,1474.731,-238.587,-47.547,
00:00:15:766,-0.496,-0.691,0.741,1504.577,-267.518,-58.35,
00:00:15:783,-0.526,-0.735,0.696,1520.568,-266.663,-101.99,
00:00:15:800,-0.561,-0.791,0.67,1578.796,-256.165,-146.546,
00:00:15:816,-0.568,-0.848,0.64,1558.532,-209.595,-165.65,
00:00:15:833,-0.553,-0.89,0.591,1431.823,-162.537,-183.533,
00:00:15:850,-0.553,-0.881,0.548,1307.922,-113.77,-195.13,
00:00:15:866,-0.464,-0.909,0.559,1200.988,-102.173,-191.285,
00:00:15:883,-0.482,-0.906,0.6,906.738,-102.662,-180.664,
00:00:15:900,-0.556,-0.855,0.584,765.38,-39.978,-213.196,
00:00:15:916,-0.493,-0.849,0.562,740.905,-7.447,-224.488,
00:00:15:933,-0.485,-0.886,0.527,708.679,26.428,-217.774,
00:00:15:950,-0.487,-0.874,0.433,675.781,45.105,-226.136,
00:00:15:966,-0.506,-0.917,0.349,693.664,56.64,-266.48,
00:00:15:983,-0.552,-0.961,0.274,625.854,79.773,-263.55,
00:00:16:0,-0.546,-0.983,0.309,427.063,68.359,-234.742,
00:00:16:16,-0.5,-0.996,0.275,234.863,76.355,-231.934,
00:00:16:33,-0.541,-0.934,0.163,141.235,110.046,-236.145,
00:00:16:50,-0.582,-0.943,0.123,20.568,126.037,-238.77,
00:00:16:66,-0.539,-0.909,0.196,-110.84,100.463,-214.234,
00:00:16:83,-0.518,-0.857,0.239,-181.397,80.932,-236.206,
00:00:16:100,-0.526,-0.816,0.253,-195.74,65.918,-232.239,
00:00:16:116,-0.513,-0.832,0.304,-220.337,39.917,-233.948,
00:00:16:133,-0.477,-0.838,0.329,-201.844,18.188,-232.544,
00:00:16:150,-0.506,-0.756,0.295,-177.674,6.958,-253.357,
00:00:16:166,-0.519,-0.735,0.278,-185.669,1.953,-262.879,
00:00:16:183,-0.506,-0.761,0.282,-200.074,-9.278,-266.846,
00:00:16:200,-0.491,-0.747,0.304,-211.243,-26.673,-271.302,
00:00:16:216,-0.499,-0.756,0.302,-189.759,-42.359,-270.081,
00:00:16:233,-0.503,-0.761,0.301,-196.839,-58.655,-244.873,
00:00:16:250,-0.492,-0.75,0.305,-202.82,-68.909,-224.732,
00:00:16:266,-0.469,-0.721,0.302,-194.703,-86.243,-195.618,
00:00:16:283,-0.424,-0.736,0.341,-160.523,-125.611,-181.58,
00:00:16:300,-0.365,-0.716,0.393,-137.635,-196.351,-149.109,
00:00:16:316,-0.319,-0.705,0.412,-176.27,-268.982,-116.272,
00:00:16:333,-0.312,-0.64,0.42,-204.163,-353.882,-64.82,
00:00:16:350,-0.372,-0.571,0.436,-187.439,-416.016,4.455,
00:00:16:366,-0.431,-0.524,0.392,-52.674,-526.551,172.18,
00:00:16:383,-0.458,-0.523,0.363,-8.912,-569.764,273.498,
00:00:16:400,-0.477,-0.526,0.322,-14.161,-617.798,380.432,
00:00:16:416,-0.515,-0.509,0.27,-71.534,-663.819,462.219,
00:00:16:433,-0.55,-0.492,0.21,-95.826,-703.736,530.029,
00:00:16:450,-0.597,-0.499,0.151,-52.979,-728.455,591.797,
00:00:16:466,-0.64,-0.532,0.091,50.17,-737.183,649.475,
00:00:16:483,-0.635,-0.643,0.014,194.702,-725.342,706.054,
00:00:16:500,-0.593,-0.796,-0.028,299.133,-713.196,749.511,
00:00:16:516,-0.632,-0.868,-0.082,269.836,-697.51,775.024,
00:00:16:533,-0.687,-0.817,-0.146,224.243,-653.077,772.522,
00:00:16:550,-0.701,-0.808,-0.21,254.699,-571.656,748.962,
00:00:16:566,-0.683,-0.934,-0.254,278.747,-475.22,731.628,
00:00:16:583,-0.649,-1.076,-0.246,136.718,-405.152,716.369,
00:00:16:600,-0.628,-1.136,-0.179,-95.52,-310.425,675.293,
00:00:16:616,-0.596,-1.106,-0.146,-239.38,-217.713,614.563,
00:00:16:633,-0.556,-1.068,-0.109,-228.577,-127.625,540.832,
00:00:16:650,-0.478,-1.111,-0.076,-142.884,-58.594,472.107,
00:00:16:667,-0.448,-1.18,-0.026,-73.67,-18.189,416.015,
00:00:16:683,-0.404,-1.185,0.02,-108.338,1.953,351.867,
00:00:16:700,-0.361,-1.168,0.053,-148.072,10.498,297.119,
00:00:16:717,-0.325,-1.166,0.113,-201.477,-4.395,240.844,
00:00:16:733,-0.345,-1.462,0.228,-352.601,-43.58,147.766,
00:00:16:750,-0.364,-1.93,0.119,-770.081,-87.708,-9.766,
00:00:16:767,-0.375,-0.595,0.261,-778.809,-27.955,-112.793,
00:00:16:783,-0.343,-0.536,0.282,-321.778,-28.382,34.24,
00:00:16:800,-0.273,-0.837,0.278,-9.644,-28.077,62.377,
00:00:16:817,-0.278,-1.108,0.265,45.654,-15.809,21.728,
00:00:16:833,-0.279,-1.137,0.231,-92.896,5.004,-31.8,
00:00:16:850,-0.279,-0.974,0.21,-188.904,29.846,-53.528,
00:00:16:867,-0.274,-0.871,0.224,-134.949,39.489,-43.396,
00:00:16:883,-0.26,-0.874,0.223,-19.532,45.349,-38.147,
00:00:16:900,-0.255,-0.957,0.207,46.447,35.461,-52.979,
00:00:16:917,-0.259,-0.99,0.186,40.954,33.935,-58.35,
00:00:16:933,-0.276,-0.983,0.155,16.296,31.555,-54.017,
00:00:16:950,-0.282,-0.975,0.166,-6.592,21.118,-50.11,
00:00:16:967,-0.279,-0.983,0.172,-40.772,25.39,-47.242,
00:00:16:983,-0.288,-0.993,0.183,-76.111,26.733,-50.904,breakEggLH
00:00:17:0,-0.295,-0.986,0.189,-93.628,27.16,-43.274,
00:00:17:17,-0.309,-0.961,0.21,-103.577,27.893,-35.279,
00:00:17:33,-0.311,-0.936,0.226,-89.844,19.714,-31.373,
00:00:17:50,-0.305,-0.933,0.225,-50.904,16.784,-27.588,
00:00:17:67,-0.298,-0.959,0.21,-47.669,13.916,-34.79,
00:00:17:83,-0.297,-0.965,0.21,-70.374,7.629,-34.058,
00:00:17:100,-0.295,-0.96,0.217,-92.347,7.08,-32.654,
00:00:17:117,-0.293,-0.959,0.223,-95.765,9.826,-29.236,
00:00:17:133,-0.292,-0.954,0.226,-88.074,13.916,-31.861,
00:00:17:150,-0.295,-0.938,0.249,-46.509,18.859,-41.26,
00:00:17:167,-0.297,-0.948,0.249,-18.372,20.996,-41.077,
00:00:17:183,-0.294,-0.953,0.238,-0.733,17.395,-41.077,
00:00:17:200,-0.291,-0.956,0.238,7.019,14.221,-35.401,
00:00:17:217,-0.293,-0.956,0.23,9.155,10.803,-34.241,
00:00:17:233,-0.293,-0.956,0.229,1.281,10.07,-32.593,
00:00:17:250,-0.293,-0.96,0.225,-7.264,7.08,-31.678,
00:00:17:267,-0.293,-0.965,0.226,-10.071,6.042,-27.649,
00:00:17:283,-0.291,-0.961,0.227,-11.353,5.004,-25.513,
00:00:17:300,-0.293,-0.954,0.219,-12.513,7.141,-26.185,
00:00:17:317,-0.288,-0.95,0.217,-11.048,3.723,-27.344,
00:00:17:333,-0.288,-0.966,0.219,-17.579,2.258,-27.894,
00:00:17:350,-0.287,-0.95,0.218,-46.57,-0.123,-27.832,
00:00:17:367,-0.286,-0.95,0.226,-29.786,-3.418,-29.725,
00:00:17:383,-0.292,-0.957,0.231,-30.274,-4.395,-29.786,
00:00:17:400,-0.297,-0.957,0.237,-35.584,-1.038,-29.053,
00:00:17:417,-0.309,-0.962,0.238,-18.982,1.586,-25.818,
00:00:17:433,-0.347,-0.992,0.259,28.259,2.99,-14.954,
00:00:17:450,-0.397,-0.985,0.278,117.004,29.296,6.897,
00:00:17:467,-0.391,-0.93,0.351,283.264,50.476,15.197,
00:00:17:483,-0.396,-0.895,0.328,527.404,41.687,-39.673,
00:00:17:500,-0.496,-0.94,0.215,911.499,35.888,-120.972,
00:00:17:517,-0.56,-1.114,0.006,1152.16,5.859,-229.493,
00:00:17:533,-0.498,-1.376,-0.061,1068.237,-27.405,-318.848,
00:00:17:550,-0.494,-1.771,-0.1,660.217,-11.048,-381.897,
00:00:17:567,-0.484,-1.71,-0.017,-175.904,6.469,-560.669,
00:00:17:583,-0.054,-1.516,0.153,-545.899,172.973,-554.444,
00:00:17:600,-0.616,-1.006,0.094,-439.82,267.089,-336.304,
00:00:17:617,-1.955,-0.093,-0.08,-194.397,-84.595,-937.195,
00:00:17:633,0.16,-1.103,0.118,-351.624,323.303,-994.69,
00:00:17:650,-0.632,-0.643,0.146,2.075,497.314,-483.216,
00:00:17:667,-0.474,-0.884,0.06,-158.997,487.609,-801.758,
00:00:17:683,-0.31,-0.862,0.049,-330.933,460.327,-564.27,
00:00:17:700,-0.342,-0.676,0.097,-413.514,432.19,-469.3,
00:00:17:717,-0.327,-0.529,0.154,-423.218,409.423,-356.202,
00:00:17:733,-0.3,-0.495,0.199,-420.533,396.484,-255.921,
00:00:17:750,-0.284,-0.441,0.231,-361.329,390.747,-168.152,
00:00:17:767,-0.277,-0.41,0.258,-263.062,393.005,-85.511,
00:00:17:783,-0.286,-0.496,0.27,-226.502,381.53,-16.724,
00:00:17:800,-0.304,-0.578,0.244,-223.206,362.915,60.791,
00:00:17:817,-0.32,-0.616,0.249,-260.376,344.543,158.142,
00:00:17:833,-0.331,-0.684,0.263,-295.105,347.656,251.464,
00:00:17:850,-0.35,-0.739,0.261,-296.509,349.182,311.584,
00:00:17:867,-0.394,-0.772,0.351,-213.685,374.084,374.389,
00:00:17:883,-0.431,-0.84,0.386,-101.38,404.602,421.63,
00:00:17:900,-0.423,-1.059,0.323,-105.225,457.519,399.963,
00:00:17:917,-0.455,-0.78,-0.385,-380.982,511.596,381.836,
00:00:17:933,-0.218,-1.093,1.273,819.641,29.357,-120.301,
00:00:17:950,-0.391,-1.757,0.615,1028.198,-176.148,-268.982,
00:00:17:967,-0.475,-1.82,0.31,-200.257,-141.053,-197.449,
00:00:17:983,-0.384,-1.125,0.206,-952.881,-115.296,-187.317,
00:00:18:0,-0.438,-0.715,0.188,-1168.885,-155.945,-124.39,
00:00:18:17,-0.538,-0.452,0.318,-822.449,-189.27,-203.553,
00:00:18:33,-0.571,-0.391,0.41,-232.422,-152.527,-217.408,
00:00:18:50,-0.509,-1.041,0.225,28.686,168.762,22.766,
00:00:18:67,-0.405,-1.106,0.354,-668.885,306.03,165.588,
00:00:18:83,-0.388,-0.659,0.408,-975.892,410.949,320.922,
00:00:18:100,-0.455,-0.35,0.415,-913.086,481.689,366.272,
00:00:18:117,-0.467,-0.153,-0.154,-516.968,575.134,263.305,
00:00:18:133,-0.295,-1.487,0.18,-203.125,-158.326,-134.949,
00:00:18:150,-0.385,-0.756,0.332,-778.565,-230.286,-70.13,
00:00:18:167,-0.479,-0.445,0.342,-483.521,-357.483,-123.902,
00:00:18:183,-0.531,-0.553,0.655,15.991,-296.509,-114.93,
00:00:18:200,-0.426,-0.692,0.619,376.953,-89.844,-22.522,
00:00:18:217,-0.515,-0.773,0.455,-401.49,700.134,388.672,
00:00:18:233,-0.551,-0.478,-0.129,-354.432,809.509,537.78,
00:00:18:250,-0.037,-0.963,2.244,662.231,57.556,-2.93,
00:00:18:267,-0.183,-1.599,0.672,1213.379,-163.269,-424.927,
00:00:18:283,-0.572,-1.929,0.202,-346.07,-85.877,-248.475,
00:00:18:300,-0.42,-1.143,0.257,-1417.542,8.3,-122.864,
00:00:18:317,-0.363,-0.55,0.424,-1655.884,-34.546,-27.771,
00:00:18:333,-0.524,-0.27,0.664,-961.853,-183.228,-175.538,
00:00:18:350,-0.61,-0.404,0.705,205.383,-235.901,-325.928,
00:00:18:367,-0.694,-0.88,0.504,732.544,-193.482,-431.702,
00:00:18:383,-0.692,-1.308,0.423,333.252,-63.721,-381.897,
00:00:18:400,-0.48,-1.168,0.353,-377.015,-6.775,-439.637,
00:00:18:417,-0.512,-0.83,0.364,-635.682,-4.456,-444.458,
00:00:18:433,-0.608,-0.689,0.385,-543.03,43.762,-461.609,
00:00:18:450,-0.604,-0.625,0.413,-357.727,138.427,-463.318,
00:00:18:467,-0.571,-0.591,0.438,-167.237,184.204,-457.947,
00:00:18:483,-0.556,-0.592,0.469,-47.181,230.041,-440.186,
00:00:18:500,-0.523,-0.587,0.46,-31.128,281.494,-409.424,
00:00:18:517,-0.473,-0.556,0.448,-63.538,320.312,-386.963,
00:00:18:533,-0.437,-0.501,0.453,-55.726,347.351,-365.113,
00:00:18:550,-0.405,-0.478,0.491,26.733,362.243,-348.572,
00:00:18:567,-0.381,-0.473,0.527,128.112,359.069,-318.97,
00:00:18:583,-0.347,-0.485,0.51,258.3,345.642,-276.551,
00:00:18:600,-0.313,-0.55,0.513,357.91,309.265,-224.854,
00:00:18:617,-0.292,-0.62,0.555,266.418,262.146,-162.781,
00:00:18:633,-0.275,-0.639,0.571,57.19,209.533,-106.812,
00:00:18:650,-0.263,-0.599,0.607,-116.639,162.841,-49.866,
00:00:18:667,-0.261,-0.527,0.631,-167.42,132.202,-4.517,
00:00:18:683,-0.263,-0.472,0.635,-76.539,118.53,16.296,
00:00:18:700,-0.272,-0.48,0.611,82.153,110.473,17.395,
00:00:18:717,-0.295,-0.549,0.591,198.425,111.694,17.273,
00:00:18:733,-0.309,-0.628,0.58,214.721,114.99,42.114,
00:00:18:750,-0.292,-0.69,0.6,151.123,95.825,68.786,
00:00:18:767,-0.282,-0.695,0.66,46.814,56.518,103.271,
00:00:18:783,-0.322,-0.661,0.688,33.935,41.992,87.097,
00:00:18:800,-0.342,-0.677,0.669,136.535,44.372,69.641,
00:00:18:817,-0.402,-0.743,0.618,154.541,49.255,67.932,
00:00:18:833,-0.419,-0.746,0.62,119.323,63.72,70.434,
00:00:18:850,-0.411,-0.741,0.64,107.483,80.81,71.228,
00:00:18:867,-0.42,-0.75,0.614,124.206,104.431,67.382,
00:00:18:883,-0.426,-0.753,0.605,136.169,128.112,69.946,
00:00:18:900,-0.43,-0.75,0.578,145.568,148.437,60.485,
00:00:18:917,-0.422,-0.761,0.56,170.044,154.907,52.795,
00:00:18:933,-0.356,-0.815,0.815,227.722,33.386,24.78,
00:00:18:950,-0.348,-0.812,0.823,181.762,-2.198,18.066,
00:00:18:967,-0.343,-0.769,0.765,188.415,-5.86,3.723,
00:00:18:983,-0.38,-0.693,0.741,290.222,-8.667,-15.686,
00:00:19:0,-0.416,-0.655,0.664,491.516,12.268,-61.463,
00:00:19:17,-0.443,-0.693,0.603,695.984,37.109,-100.403,
00:00:19:33,-0.453,-0.8,0.508,732.483,48.767,-81.91,
00:00:19:50,-0.464,-0.91,0.461,562.133,27.343,-61.402,
00:00:19:67,-0.472,-0.971,0.43,422.302,10.315,-34.485,
00:00:19:83,-0.476,-0.996,0.434,228.271,3.479,-12.757,
00:00:19:100,-0.451,-1.052,0.497,24.841,-9.095,-14.161,
00:00:19:117,-0.415,-1.012,0.471,-85.206,-6.104,-14.405,
00:00:19:133,-0.425,-0.97,0.618,-290.101,-54.322,5.127,
00:00:19:150,-0.411,-0.923,0.563,-236.634,22.827,-65.003,
00:00:19:167,-0.398,-0.879,0.57,-263.672,30.944,-36.56,
00:00:19:183,-0.404,-0.934,0.562,-262.757,36.804,-82.032,
00:00:19:200,-0.408,-1.002,0.6,-313.111,60.18,-78.309,
00:00:19:217,-0.397,-1.086,0.569,-496.644,38.757,-79.529,
00:00:19:233,-0.394,-1.088,0.569,-748.658,26.306,-86.914,
00:00:19:250,-0.41,-0.986,0.58,-953.431,20.385,-94.056,
00:00:19:267,-0.44,-0.942,0.618,-1097.168,31.372,-116.028,
00:00:19:283,-0.442,-1.021,0.607,-1328.37,67.627,-125.306,
00:00:19:300,-0.418,-1.009,0.64,-1736.878,120.3,-89.173,
00:00:19:317,-0.432,-0.8,0.564,-1979.554,170.776,-51.514,
00:00:19:333,-0.388,-0.393,0.768,-1726.197,182.861,-155.03,
00:00:19:350,-0.342,-0.213,0.768,-1608.521,138.855,-250.245,
00:00:19:367,-0.326,-0.173,0.768,-1550.416,63.72,-222.535,
00:00:19:383,-0.332,-0.054,0.784,-1422.059,74.462,-197.754,
00:00:19:400,-0.305,0.036,0.799,-1220.215,90.026,-192.261,
00:00:19:417,-0.272,0.099,0.82,-992.005,53.344,-145.997,
00:00:19:433,-0.269,0.133,0.83,-808.106,12.39,-136.719,
00:00:19:450,-0.267,0.14,0.823,-631.104,-29.297,-141.724,
00:00:19:467,-0.278,0.166,0.823,-465.699,-77.027,-145.264,
00:00:19:483,-0.305,0.124,0.816,-316.895,-84.107,-150.147,
00:00:19:500,-0.31,0.157,0.797,-186.158,-57.251,-80.323,
00:00:19:517,-0.33,0.168,0.806,-96.863,-63.721,-65.003,
00:00:19:533,-0.351,0.153,0.81,-7.508,-45.533,-57.007,
00:00:19:550,-0.354,0.13,0.806,63.354,-5.982,-41.199,
00:00:19:567,-0.352,0.096,0.807,107.788,20.935,-22.828,
00:00:19:583,-0.313,0.077,0.791,129.089,30.212,-11.353,
00:00:19:600,-0.345,0.047,0.804,164.55,21.667,1.831,
00:00:19:617,-0.358,0.023,0.807,158.02,22.461,22.094,
00:00:19:633,-0.353,0.007,0.826,146.667,39.672,29.907,
00:00:19:650,-0.344,0.015,0.829,149.17,62.133,40.344,
00:00:19:667,-0.34,0.02,0.842,177.429,74.951,40.405,
00:00:19:683,-0.335,0.025,0.847,205.627,78.002,54.077,
00:00:19:700,-0.337,0.022,0.857,231.689,79.895,55.786,
00:00:19:717,-0.33,0.026,0.855,264.221,86.975,72.876,
00:00:19:733,-0.283,0.025,0.85,308.654,94.848,95.336,
00:00:19:750,-0.29,0.016,0.829,366.088,101.074,125.793,
00:00:19:767,-0.277,-0.003,0.817,417.846,79.406,146.118,
00:00:19:783,-0.292,-0.041,0.808,480.285,48.156,146.179,
00:00:19:800,-0.321,-0.091,0.818,538.757,53.588,142.273,
00:00:19:817,-0.326,-0.101,0.831,623.413,91.796,157.104,
00:00:19:833,-0.299,-0.116,0.857,743.164,125.488,169.189,
00:00:19:850,-0.276,-0.162,0.873,865.905,101.928,162.17,
00:00:19:867,-0.276,-0.235,0.892,962.646,37.292,137.756,
00:00:19:883,-0.3,-0.298,0.892,1042.724,-51.026,129.516,
00:00:19:900,-0.327,-0.327,0.911,1163.391,-136.536,118.713,
00:00:19:917,-0.361,-0.41,0.929,1357.055,-192.444,87.219,
00:00:19:933,-0.378,-0.487,0.92,1479.919,-223.206,99.731,
00:00:19:950,-0.378,-0.523,0.867,1659.057,-253.54,50.781,
00:00:19:967,-0.396,-0.628,0.798,1935.547,-328.675,-47.425,
00:00:19:983,-0.458,-0.763,0.717,1999.694,-391.846,-126.709,
00:00:20:0,-0.568,-0.958,0.638,1999.694,-334.9,-195.862,
00:00:20:17,-0.614,-1.091,0.575,1999.694,-191.407,-239.502,
00:00:20:33,-0.557,-1.131,0.481,1907.592,-129.761,-286.622,
00:00:20:50,-0.539,-1.171,0.504,1521.972,-123.108,-284.974,
00:00:20:67,-0.521,-1.075,0.53,1101.562,-110.169,-256.958,
00:00:20:83,-0.51,-0.956,0.495,839.233,-89.6,-281.922,
00:00:20:100,-0.511,-0.926,0.455,777.038,-72.083,-310.608,
00:00:20:117,-0.471,-0.995,0.495,610.839,-116.517,-242.676,
00:00:20:133,-0.517,-0.956,0.493,441.345,-151.185,-298.523,
00:00:20:150,-0.527,-0.993,0.436,347.229,-147.217,-293.213,
00:00:20:167,-0.522,-1.006,0.404,197.937,-145.997,-276.429,
00:00:20:183,-0.503,-0.982,0.429,61.035,-99.366,-263.001,
00:00:20:200,-0.507,-0.935,0.353,-38.941,-22.278,-256.348,
00:00:20:217,-0.54,-0.936,0.209,-112.671,48.645,-253.846,
00:00:20:233,-0.525,-0.925,0.175,-221.436,40.649,-211.914,
00:00:20:250,-0.493,-0.853,0.26,-303.467,14.221,-180.787,
00:00:20:267,-0.514,-0.806,0.279,-282.166,11.413,-193.848,
00:00:20:283,-0.513,-0.766,0.307,-278.138,5.737,-211.243,
00:00:20:300,-0.483,-0.85,0.356,-236.39,1.586,-243.47,
00:00:20:317,-0.446,-0.932,0.328,-233.094,4.089,-250.245,
00:00:20:333,-0.473,-0.83,0.309,-245.423,-10.254,-254.639,
00:00:20:350,-0.492,-0.721,0.311,-192.322,-16.053,-245.911,
00:00:20:367,-0.49,-0.699,0.287,-101.258,-8.179,-257.081,
00:00:20:383,-0.482,-0.749,0.273,-48.951,-13.916,-265.87,
00:00:20:400,-0.488,-0.798,0.282,-38.392,-29.358,-252.259,
00:00:20:417,-0.47,-0.782,0.306,-38.208,-58.716,-227.356,
00:00:20:433,-0.471,-0.707,0.357,42.846,-90.394,-209.046,
00:00:20:450,-0.434,-0.749,0.379,67.871,-136.048,-218.934,
00:00:20:467,-0.392,-0.769,0.381,46.142,-195.435,-205.567,
00:00:20:483,-0.382,-0.728,0.39,22.705,-259.034,-186.951,
00:00:20:500,-0.395,-0.686,0.391,24.475,-326.294,-159.607,
00:00:20:517,-0.424,-0.646,0.377,22.766,-385.193,-125.306,
00:00:20:533,-0.449,-0.61,0.367,21.24,-449.402,-86.853,
00:00:20:550,-0.47,-0.585,0.338,31.005,-498.414,-37.171,
00:00:20:567,-0.503,-0.569,0.308,20.629,-539.612,21.301,
00:00:20:583,-0.523,-0.559,0.282,-9.888,-584.412,92.712,
00:00:20:600,-0.539,-0.594,0.266,-54.2,-623.902,164.856,
00:00:20:617,-0.559,-0.566,0.226,-75.257,-669.556,236.084,
00:00:20:633,-0.59,-0.543,0.177,-75.196,-705.018,318.908,
00:00:20:650,-0.634,-0.516,0.145,-61.097,-725.342,395.507,
00:00:20:667,-0.673,-0.509,0.089,-46.082,-733.033,478.393,
00:00:20:683,-0.68,-0.572,0.018,-43.519,-718.079,573.608,
00:00:20:700,-0.67,-0.696,-0.062,-75.745,-691.529,633.789,
00:00:20:717,-0.668,-0.776,-0.123,-120.667,-667.359,693.42,
00:00:20:733,-0.686,-0.777,-0.147,-134.888,-628.235,727.722,
00:00:20:750,-0.687,-0.773,-0.15,-64.393,-553.589,744.445,
00:00:20:767,-0.666,-0.845,-0.144,56.03,-476.197,750.671,
00:00:20:783,-0.627,-1.009,-0.155,156.005,-403.077,744.567,
00:00:20:800,-0.598,-1.047,-0.115,89.05,-320.618,710.937,
00:00:20:817,-0.555,-1.038,-0.094,8.3,-231.324,641.113,
00:00:20:833,-0.524,-1.082,-0.086,-39.917,-158.387,556.762,
00:00:20:850,-0.496,-1.105,-0.081,-78.858,-100.953,488.525,
00:00:20:867,-0.484,-1.11,-0.029,-85.511,-63.172,429.199,
00:00:20:883,-0.472,-1.206,0.035,-112.366,-31.983,371.215,
00:00:20:900,-0.427,-1.13,0.065,-59.571,-24.598,317.26,
00:00:20:917,-0.397,-1.071,0.063,-30.945,-8.912,301.574,
00:00:20:933,-0.35,-1.148,0.057,-111.084,-23.438,144.775,
00:00:20:950,-0.347,-1.09,0.067,-137.696,-3.479,167.419,
00:00:20:967,-0.334,-1.04,0.064,-149.598,0.61,131.469,
00:00:20:983,-0.327,-0.972,0.07,-80.079,14.465,126.22,breakEggLH
00:00:21:0,-0.321,-0.96,0.065,-16.236,22.827,123.901,
00:00:21:17,-0.304,-1.015,0.096,-2.747,18.859,136.291,
00:00:21:33,-0.33,-1.374,0.134,-137.33,-1.77,112.243,
00:00:21:50,-0.349,-1.597,0.083,-346.741,7.812,-111.634,
00:00:21:67,-0.307,-0.972,0.11,-419.861,59.936,-103.577,
00:00:21:83,-0.344,-0.711,0.134,-235.108,47.729,-50.721,
00:00:21:100,-0.309,-0.788,0.16,15.747,14.221,14.587,
00:00:21:117,-0.315,-1.013,0.164,74.829,7.812,4.516,
00:00:21:133,-0.308,-1.082,0.136,-6.287,14.953,-36.805,
00:00:21:150,-0.296,-0.986,0.103,-56.458,26.001,-41.626,
00:00:21:167,-0.29,-0.938,0.09,-24.292,23.071,-36.377,
00:00:21:183,-0.289,-1.011,0.047,-96.497,45.288,-27.771,
00:00:21:200,-0.293,-0.998,0.04,-162.11,49.621,-22.034,
00:00:21:217,-0.301,-1,0.052,-193.787,48.4,-15.076,
00:00:21:233,-0.3,-0.973,0.093,-198.853,50.964,-7.813,
00:00:21:250,-0.298,-0.983,0.123,-169.312,48.706,-6.531,
00:00:21:267,-0.307,-0.988,0.127,-164.856,39.672,-4.334,
00:00:21:283,-0.308,-0.996,0.122,-179.993,22.399,3.54,
00:00:21:300,-0.312,-0.962,0.138,-209.473,9.338,23.193,
00:00:21:317,-0.282,-0.893,0.181,-177.552,3.906,-1.465,
00:00:21:333,-0.282,-0.943,0.177,-114.075,-2.808,-19.471,
00:00:21:350,-0.276,-0.963,0.192,-91.187,-9.827,-8.057,
00:00:21:367,-0.276,-0.982,0.183,-87.159,-9.766,-24.476,
00:00:21:383,-0.278,-0.96,0.175,-89.478,-4.334,-21.912,
00:00:21:400,-0.278,-0.95,0.169,-68.97,2.868,-17.151,
00:00:21:417,-0.266,-0.956,0.175,-34.729,4.577,-18.128,
00:00:21:433,-0.263,-0.972,0.165,-22.95,6.836,-21.546,
00:00:21:450,-0.264,-0.973,0.173,-18.86,8.178,-22.644,
00:00:21:467,-0.269,-0.969,0.173,-9.522,6.53,-23.194,
00:00:21:483,-0.282,-0.97,0.178,-2.991,7.873,-20.386,
00:00:21:500,-0.292,-0.972,0.167,-4.029,23.559,-7.203,
00:00:21:517,-0.289,-0.968,0.174,-8.973,27.893,-4.578,
00:00:21:533,-0.28,-0.962,0.178,-5.31,30.334,-6.592,
00:00:21:550,-0.275,-0.964,0.175,1.586,24.414,-9.034,
00:00:21:567,-0.271,-0.968,0.168,4.089,23.071,-11.78,
00:00:21:583,-0.272,-0.967,0.162,-2.686,20.752,-16.175,
00:00:21:600,-0.272,-0.963,0.156,-5.921,20.874,-17.456,
00:00:21:617,-0.271,-0.976,0.149,-6.043,16.723,-21.119,
00:00:21:633,-0.266,-0.981,0.147,-19.227,14.404,-19.471,
00:00:21:650,-0.263,-0.969,0.154,-30.884,14.892,-24.109,
00:00:21:667,-0.255,-0.958,0.147,-38.453,9.033,-30.335,
00:00:21:683,-0.271,-0.982,0.163,-36.683,-10.376,-38.147,
00:00:21:700,-0.269,-0.974,0.165,-37.964,-11.048,-38.086,
00:00:21:717,-0.269,-0.965,0.163,-29.541,-16.541,-36.499,
00:00:21:733,-0.274,-0.978,0.164,-20.508,-16.724,-34.302,
00:00:21:750,-0.283,-0.98,0.174,-22.95,-10.926,-30.335,
00:00:21:767,-0.278,-0.978,0.174,-24.72,-8.24,-27.588,
00:00:21:783,-0.28,-0.977,0.185,-11.231,-4.151,-23.987,
00:00:21:800,-0.283,-0.975,0.182,4.638,-2.198,-20.02,
00:00:21:817,-0.296,-1.004,0.189,39.733,3.051,-14.527,
00:00:21:833,-0.316,-1.021,0.219,88.562,11.413,1.953,
00:00:21:850,-0.328,-1.023,0.253,159.851,18.005,10.559,
00:00:21:867,-0.372,-0.887,0.156,666.504,-29.175,-44.434,
00:00:21:883,-0.395,-0.881,0.045,924.011,-37.842,-116.822,
00:00:21:900,-0.41,-1.148,-0.129,1031.189,-39.49,-221.924,
00:00:21:917,-0.356,-1.617,-0.173,691.284,67.382,-6.287,
00:00:21:933,-0.426,-1.733,-0.126,-19.288,100.097,-151.185,
00:00:21:950,-0.398,-1.419,-0.058,-590.699,117.981,-265.748,
00:00:21:967,-0.427,-1.107,0.04,-611.084,175.109,-353.699,
00:00:21:983,-0.544,-0.902,0.07,-368.836,194.702,-528.992,
00:00:22:0,-0.383,-1.062,0.113,-364.075,287.536,-479.92,
00:00:22:17,-1.88,0.177,-0.528,229.797,-8.912,-1607.972,
00:00:22:33,0.359,-1.34,0.088,-80.689,109.802,-990.601,
00:00:22:50,-0.546,-0.822,0.108,176.88,415.954,-309.021,
00:00:22:67,-0.606,-0.915,0.036,-135.865,393.066,-835.694,
00:00:22:83,-0.336,-0.898,0.042,-313.172,375.061,-642.151,
00:00:22:100,-0.374,-0.797,0.059,-306.824,340.82,-598.572,
00:00:22:117,-0.419,-0.713,0.09,-264.344,328.857,-547.974,
00:00:22:133,-0.409,-0.774,0.12,-335.511,324.951,-483.338,
00:00:22:150,-0.372,-0.731,0.13,-449.463,295.715,-411.683,
00:00:22:167,-0.373,-0.6,0.149,-464.661,264.404,-323.487,
00:00:22:183,-0.4,-0.581,0.171,-447.51,254.272,-238.404,
00:00:22:200,-0.411,-0.588,0.168,-417.054,247.68,-176.331,
00:00:22:217,-0.416,-0.5,0.192,-343.934,234.741,-93.995,
00:00:22:233,-0.439,-0.49,0.21,-273.743,225.708,-30.518,
00:00:22:250,-0.447,-0.543,0.219,-239.991,225.219,16.052,
00:00:22:267,-0.452,-0.548,0.217,-216.492,213.44,71.044,
00:00:22:283,-0.465,-0.566,0.209,-191.956,200.561,115.6,
00:00:22:300,-0.472,-0.656,0.202,-169.251,187.133,147.461,
00:00:22:317,-0.461,-0.686,0.207,-90.21,165.527,175.598,
00:00:22:333,-0.466,-0.726,0.22,2.075,129.089,206.176,
00:00:22:350,-0.487,-0.75,0.24,59.143,92.895,219.604,
00:00:22:367,-0.508,-0.752,0.234,81.237,69.824,221.74,
00:00:22:383,-0.515,-0.785,0.219,60.363,60.607,224.731,
00:00:22:400,-0.519,-0.861,0.26,-46.814,61.218,237.365,
00:00:22:417,-0.527,-0.901,0.356,-163.636,73.547,268.554,
00:00:22:433,-0.533,-0.877,0.446,-241.578,98.938,311.645,
00:00:22:450,-0.524,-0.895,0.473,-290.589,148.925,355.835,
00:00:22:467,-0.509,-0.956,0.378,-345.032,202.758,424.56,
00:00:22:483,-0.476,-0.978,0.325,-451.355,249.206,467.468,
00:00:22:500,-0.431,-0.723,0.413,-552.247,281.128,291.992,
00:00:22:517,-0.347,-1.104,1.242,1320.617,-257.508,-277.71,
00:00:22:533,-0.359,-1.912,0.624,1001.77,-336.426,-265.564,
00:00:22:550,-0.448,-1.723,0.238,-457.032,-238.343,-217.164,
00:00:22:567,-0.467,-0.98,0.146,-1251.709,-160.096,-138.367,
00:00:22:583,-0.523,-0.536,0.228,-1289.612,-173.096,-111.695,
00:00:22:600,-0.576,-0.423,0.359,-742.371,-180.054,-233.948,
00:00:22:617,-0.545,-0.748,0.254,314.27,128.662,-127.137,
00:00:22:633,-0.496,-0.963,0.257,-142.334,293.945,3.601,
00:00:22:650,-0.422,-0.745,0.299,-689.454,428.222,208.496,
00:00:22:667,-0.431,-0.45,0.429,-820.008,510.498,348.632,
00:00:22:683,-0.403,-0.364,0.506,-438.05,564.27,392.028,
00:00:22:700,-0.355,-0.568,1.403,177.246,399.719,96.191,
00:00:22:717,-0.111,-1.178,0.811,1743.713,-157.959,-397.095,
00:00:22:733,-0.275,-1.862,0.281,759.704,-321.961,-159.852,
00:00:22:750,-0.427,-1.143,0.121,-634.339,-203.553,0.061,
00:00:22:767,-0.39,-0.633,0.22,-989.869,-201.844,-74.585,
00:00:22:783,-0.401,-0.352,0.266,-489.502,-274.72,-66.834,
00:00:22:800,-0.479,-0.379,0.378,83.129,-262.33,-92.896,
00:00:22:817,-0.505,-0.568,0.442,439.575,-128.479,-90.21,
00:00:22:833,-0.508,-0.75,0.352,270.08,66.04,29.419,
00:00:22:850,-0.503,-0.837,0.282,-124.085,322.326,208.557,
00:00:22:867,-0.462,-0.71,0.336,-473.511,487.548,384.338,
00:00:22:883,-0.483,-0.865,1.401,-135.193,487.365,220.459,
00:00:22:900,-0.211,-1.478,1.276,1275.573,-154.602,-272.889,
00:00:22:917,-0.454,-1.811,0.644,476.318,-239.319,-124.878,
00:00:22:933,-0.535,-1.119,0.235,-534.241,-179.139,-169.8,
00:00:22:950,-0.435,-0.684,0.217,-858.582,-60.73,-105.713,
00:00:22:967,-0.374,-0.613,0.302,-740.418,-43.274,-96.192,
00:00:22:983,-0.429,-0.538,0.464,-391.785,-100.159,-144.104,
00:00:23:0,-0.537,-0.619,0.466,325.073,-175.782,-227.906,
00:00:23:17,-0.633,-0.915,0.319,685.547,-179.688,-349.915,
00:00:23:33,-0.664,-1.15,0.221,442.199,-112.366,-340.21,
00:00:23:50,-0.592,-1.085,0.245,8.544,-51.941,-344.91,
00:00:23:67,-0.595,-0.861,0.292,-136.048,11.535,-348.938,
00:00:23:83,-0.64,-0.693,0.261,-51.087,107.605,-377.442,
00:00:23:100,-0.658,-0.651,0.255,123.047,213.379,-400.879,
00:00:23:117,-0.657,-0.672,0.286,348.938,292.907,-405.884,
00:00:23:133,-0.649,-0.713,0.324,483.032,350.708,-372.071,
00:00:23:150,-0.611,-0.686,0.337,513.122,389.099,-318.909,
00:00:23:167,-0.578,-0.596,0.339,528.93,403.259,-260.01,
00:00:23:183,-0.561,-0.585,0.314,537.414,404.48,-224.61,
00:00:23:200,-0.52,-0.712,0.32,465.149,397.155,-206.421,
00:00:23:217,-0.468,-0.839,0.352,268.737,360.229,-161.133,
00:00:23:233,-0.433,-0.84,0.375,15.319,309.814,-111.268,
00:00:23:250,-0.43,-0.761,0.396,-128.418,265.319,-67.139,
00:00:23:267,-0.421,-0.706,0.409,-134.4,247.497,-42.542,
00:00:23:283,-0.404,-0.681,0.427,-33.57,241.516,-22.339,
00:00:23:300,-0.392,-0.688,0.434,73.364,237.365,-5.616,
00:00:23:317,-0.381,-0.736,0.425,113.525,227.234,-13.001,
00:00:23:333,-0.371,-0.763,0.414,112.854,211.425,5.249,
00:00:23:350,-0.369,-0.768,0.428,97.961,185.363,27.893,
00:00:23:367,-0.37,-0.759,0.428,78.002,156.86,42.358,
00:00:23:383,-0.357,-0.767,0.441,65.856,120.483,50.231,
00:00:23:400,-0.363,-0.758,0.49,5.615,86.242,84.716,
00:00:23:417,-0.409,-0.759,0.485,37.17,98.144,71.96,
00:00:23:433,-0.404,-0.776,0.455,84.289,116.394,80.2,
00:00:23:450,-0.396,-0.83,0.424,90.515,140.503,83.984,
00:00:23:467,-0.403,-0.854,0.402,50.903,154.48,103.698,
00:00:23:483,-0.396,-0.846,0.379,-26.978,168.701,113.342,
00:00:23:500,-0.389,-0.835,0.407,-40.345,164.367,115.6,
00:00:23:517,-0.379,-0.857,0.432,-23.194,160.156,114.807,
00:00:23:533,-0.372,-0.89,0.469,22.522,136.047,98.022,
00:00:23:550,-0.38,-0.919,0.504,77.087,108.215,82.336,
00:00:23:567,-0.372,-0.929,0.529,81.604,71.716,75.988,
00:00:23:583,-0.333,-0.924,0.543,88.012,30.578,52.917,
00:00:23:600,-0.345,-0.854,0.531,149.047,27.893,68.176,
00:00:23:617,-0.367,-0.808,0.472,289.245,32.714,6.958,
00:00:23:633,-0.392,-0.753,0.41,440.551,22.033,-48.035,
00:00:23:650,-0.417,-0.769,0.372,546.692,25.878,-105.469,
00:00:23:667,-0.445,-0.849,0.313,559.875,33.874,-109.131,
00:00:23:683,-0.45,-0.899,0.303,522.094,23.193,-74.646,
00:00:23:700,-0.436,-0.926,0.274,439.148,3.601,-42.786,
00:00:23:717,-0.426,-0.964,0.257,322.998,-36.072,-30.762,
00:00:23:733,-0.431,-0.961,0.266,231.628,-67.505,-29.419,
00:00:23:750,-0.438,-0.918,0.247,233.947,-57.74,-42.969,
00:00:23:767,-0.469,-0.936,0.204,156.311,-59.571,-23.011,
00:00:23:783,-0.467,-0.954,0.192,22.461,-40.833,-27.588,
00:00:23:800,-0.444,-0.953,0.191,-108.033,-33.204,-23.987,
00:00:23:817,-0.472,-1.038,0.313,-387.696,-142.334,58.227,
00:00:23:833,-0.431,-0.871,0.266,-249.695,0.61,-76.783,
00:00:23:850,-0.443,-0.874,0.262,-242.676,-2.381,9.277,
00:00:23:867,-0.442,-0.862,0.251,-149.109,11.352,6.225,
00:00:23:883,-0.432,-0.909,0.279,-152.1,37.231,18.798,
00:00:23:900,-0.414,-0.985,0.291,-251.954,49.926,3.173,
00:00:23:917,-0.4,-0.998,0.343,-375.916,42.297,16.784,
00:00:23:933,-0.433,-0.989,0.401,-447.998,38.147,24.169,
00:00:23:950,-0.438,-0.965,0.425,-515.381,39.245,17.273,
00:00:23:967,-0.45,-0.947,0.432,-548.584,46.264,3.845,
00:00:23:983,-0.481,-0.981,0.475,-582.459,48.278,-8.667,
00:00:24:0,-0.489,-1.048,0.457,-774.964,67.993,-12.33,
00:00:24:17,-0.473,-1.102,0.496,-1066.59,68.054,-11.475,
00:00:24:33,-0.483,-1.043,0.547,-1372.254,83.496,3.234,
00:00:24:50,-0.532,-0.93,0.578,-1544.434,109.985,-9.339,
00:00:24:67,-0.537,-0.888,0.647,-1618.042,150.024,-41.077,
00:00:24:83,-0.512,-0.905,0.637,-1659.18,173.401,-65.247,
00:00:24:100,-0.495,-0.86,0.676,-1789.307,202.697,-86.731,
00:00:24:117,-0.461,-0.757,0.695,-1844.178,192.993,-95.826,
00:00:24:133,-0.419,-0.643,0.698,-1825.318,146.789,-97.413,
00:00:24:150,-0.432,-0.553,0.729,-1685.12,107.971,-143.921,
00:00:24:167,-0.401,-0.427,0.779,-1609.253,122.863,-206.788,
00:00:24:183,-0.37,-0.334,0.832,-1443.97,131.347,-199.219,
00:00:24:200,-0.34,-0.313,0.87,-1309.754,118.896,-199.952,
00:00:24:217,-0.312,-0.274,0.859,-1223.084,107.727,-197.449,
00:00:24:233,-0.282,-0.143,0.849,-1143.799,50.781,-195.374,
00:00:24:250,-0.269,-0.026,0.873,-987.854,-17.456,-213.501,
00:00:24:267,-0.292,-0.013,0.876,-775.818,-79.773,-228.15,
00:00:24:283,-0.321,-0.052,0.862,-661.438,-79.224,-210.144,
00:00:24:300,-0.318,-0.008,0.841,-656.8,-55.298,-170.777,
00:00:24:317,-0.35,0.076,0.842,-349.244,-104.798,-149.353,
00:00:24:333,-0.362,0.064,0.823,-262.207,-74.646,-124.634,
00:00:24:350,-0.355,0.047,0.828,-185.791,-49.866,-112.366,
00:00:24:367,-0.35,0.046,0.811,-132.813,-40.284,-98.206,
00:00:24:383,-0.344,0.056,0.816,-78.553,-44.251,-74.646,
00:00:24:400,-0.346,0.051,0.814,-17.701,-46.448,-53.772,
00:00:24:417,-0.36,0.015,0.817,81.359,-52.735,-24.964,
00:00:24:433,-0.365,0.012,0.804,112.548,-31.8,-10.315,
00:00:24:450,-0.361,-0.001,0.792,151.001,-17.395,5.554,
00:00:24:467,-0.37,-0.018,0.81,200.439,-16.358,44.372,
00:00:24:483,-0.39,-0.027,0.82,224.609,-15.564,42.907,
00:00:24:500,-0.403,-0.026,0.821,260.742,3.234,53.344,
00:00:24:517,-0.399,-0.018,0.823,326.538,47.058,73.852,
00:00:24:533,-0.376,-0.01,0.823,390.319,78.186,97.229,
00:00:24:550,-0.35,-0.01,0.825,478.576,70.129,114.38,
00:00:24:567,-0.339,-0.021,0.836,583.13,36.193,121.765,
00:00:24:583,-0.35,-0.071,0.838,702.942,-5.005,116.638,
00:00:24:600,-0.358,-0.131,0.843,795.166,-13.672,134.521,
00:00:24:617,-0.357,-0.193,0.852,858.337,-13.977,154.48,
00:00:24:633,-0.352,-0.23,0.852,898.559,-35.523,159.423,
00:00:24:650,-0.346,-0.239,0.85,985.107,-78.919,154.297,
00:00:24:667,-0.353,-0.264,0.83,1178.039,-144.41,119.018,
00:00:24:683,-0.388,-0.338,0.807,1401.428,-208.68,83.129,
00:00:24:700,-0.432,-0.454,0.776,1662.658,-239.319,72.265,
00:00:24:717,-0.473,-0.575,0.733,1770.446,-223.023,84.411,
00:00:24:733,-0.507,-0.653,0.681,1838.256,-207.703,31.433,
00:00:24:750,-0.529,-0.814,0.539,1884.582,-145.691,-13.367,
00:00:24:767,-0.509,-0.896,0.501,1756.775,-141.297,-45.044,
00:00:24:783,-0.522,-0.986,0.529,1538.147,-129.151,-56.397,
00:00:24:800,-0.535,-0.993,0.533,1289.489,-72.571,-72.022,
00:00:24:817,-0.536,-0.992,0.455,1079.834,-28.687,-108.399,
00:00:24:833,-0.523,-1,0.433,916.87,-6.287,-103.699,
00:00:24:850,-0.504,-0.944,0.405,790.893,18.249,-126.16,
00:00:24:867,-0.535,-0.922,0.346,683.288,21.179,-166.016,
00:00:24:883,-0.553,-0.961,0.326,580.993,17.334,-178.956,
00:00:24:900,-0.547,-1.005,0.339,473.51,-3.663,-136.475,
00:00:24:917,-0.541,-1.003,0.309,243.042,-32.227,-88.562,
00:00:24:933,-0.539,-0.997,0.312,-14.527,-76.233,-100.281,
00:00:24:950,-0.542,-0.964,0.324,-159.363,-122.559,-69.336,
00:00:24:967,-0.545,-0.903,0.33,-209.046,-118.958,-73.609,
00:00:24:983,-0.502,-0.893,0.407,-164.307,-111.756,-98.816,
00:00:25:0,-0.501,-0.892,0.409,-68.665,-70.679,-126.648,
00:00:25:17,-0.499,-0.889,0.387,-51.636,-39.551,-121.094,
00:00:25:33,-0.499,-0.883,0.391,-74.097,-28.626,-125.611,
00:00:25:50,-0.502,-0.841,0.361,-72.876,-1.221,-131.226,
00:00:25:67,-0.495,-0.842,0.329,-43.946,6.164,-150.025,
00:00:25:83,-0.495,-0.849,0.313,14.953,17.273,-160.889,
00:00:25:100,-0.51,-0.877,0.304,25.695,19.775,-174.927,
00:00:25:117,-0.515,-0.89,0.285,-26.673,17.273,-170.777,
00:00:25:133,-0.505,-0.841,0.315,-55.909,15.136,-168.396,
00:00:25:150,-0.511,-0.8,0.329,-51.453,3.479,-167.603,
00:00:25:167,-0.525,-0.816,0.297,-26.795,-4.273,-174.256,
00:00:25:183,-0.548,-0.796,0.26,-31.678,-11.597,-165.223,
00:00:25:200,-0.554,-0.78,0.283,-77.576,-16.907,-161.988,
00:00:25:217,-0.531,-0.788,0.313,-125.611,-26.307,-164.246,
00:00:25:233,-0.553,-0.786,0.322,-131.775,-16.114,-165.833,
00:00:25:250,-0.543,-0.804,0.313,-126.587,-14.161,-162.537,
00:00:25:267,-0.532,-0.817,0.333,-141.114,-18.128,-153.504,
00:00:25:283,-0.54,-0.78,0.334,-163.575,-27.039,-149.17,
00:00:25:300,-0.542,-0.754,0.326,-142.64,-32.288,-152.222,
00:00:25:317,-0.53,-0.781,0.33,-78.003,-33.936,-149.048,
00:00:25:333,-0.495,-0.797,0.383,-56.58,-70.557,-149.231,
00:00:25:350,-0.461,-0.823,0.431,-71.656,-116.089,-159.18,
00:00:25:367,-0.436,-0.814,0.447,-130.249,-174.927,-166.077,
00:00:25:383,-0.435,-0.747,0.461,-156.373,-238.526,-152.588,
00:00:25:400,-0.431,-0.682,0.468,-131.836,-294.434,-137.207,
00:00:25:417,-0.443,-0.641,0.448,-39.856,-356.629,-111.939,
00:00:25:433,-0.451,-0.632,0.421,38.452,-416.26,-76.05,
00:00:25:450,-0.463,-0.617,0.373,108.825,-479.371,-39.978,
00:00:25:467,-0.494,-0.587,0.326,167.724,-531.373,10.742,
00:00:25:483,-0.515,-0.559,0.294,237.609,-565.003,58.41,
00:00:25:500,-0.532,-0.541,0.244,293.884,-590.027,122.68,
00:00:25:517,-0.527,-0.538,0.194,307.617,-605.347,200.012,
00:00:25:533,-0.517,-0.539,0.173,278.015,-612.061,286.56,
00:00:25:550,-0.527,-0.546,0.128,230.529,-620.118,377.563,
00:00:25:567,-0.553,-0.551,0.068,180.908,-635.254,460.449,
00:00:25:583,-0.553,-0.607,-0.011,185.424,-640.686,527.282,
00:00:25:600,-0.544,-0.688,-0.089,211.425,-636.048,593.811,
00:00:25:617,-0.571,-0.763,-0.114,220.764,-619.751,636.963,
00:00:25:633,-0.588,-0.8,-0.167,222.717,-582.093,667.48,
00:00:25:650,-0.589,-0.851,-0.192,225.036,-536.011,668.335,
00:00:25:667,-0.572,-0.963,-0.211,228.942,-458.497,650.695,
00:00:25:683,-0.559,-1.063,-0.225,175.903,-378.113,614.135,
00:00:25:700,-0.566,-1.11,-0.243,59.387,-292.481,569.458,
00:00:25:717,-0.577,-1.116,-0.231,-41.748,-216.431,502.563,
00:00:25:733,-0.571,-1.119,-0.203,-111.023,-138.367,468.078,
00:00:25:750,-0.561,-1.131,-0.144,-145.447,-76.355,414.001,
00:00:25:767,-0.42,-1.179,-0.064,-209.473,-24.72,311.828,
00:00:25:783,-0.509,-1.151,-0.083,-229.737,-6.714,293.945,
00:00:25:800,-0.464,-1.113,-0.037,-244.935,17.944,276.489,
00:00:25:817,-0.454,-1.056,0.015,-270.447,12.085,235.412,
00:00:25:833,-0.44,-0.966,0.061,-216.126,15.93,207.336,
00:00:25:850,-0.357,-1.029,0.056,-252.076,18.371,156.921,
00:00:25:867,-0.373,-0.98,0.082,-278.504,19.592,174.621,
00:00:25:883,-0.344,-0.912,0.101,-288.514,11.779,182.983,
00:00:25:900,-0.312,-0.857,0.112,-268.494,2.624,211.547,
00:00:25:917,-0.279,-0.843,0.114,-253.479,-4.456,234.863,
00:00:25:933,-0.266,-0.871,0.122,-211.548,-36.499,215.21,
00:00:25:950,-0.345,-1.821,0.076,-221.192,-46.082,-168.396,
00:00:25:967,-0.283,-1.208,0.097,-541.626,-1.221,-30.701,
00:00:25:983,-0.332,-0.714,0.115,-496.888,15.686,9.338,
00:00:26:0,-0.329,-0.674,0.12,-170.594,10.253,36.987,breakEggLH
00:00:26:17,-0.299,-0.918,0.132,72.448,26.55,-47.608,
00:00:26:33,-0.298,-1.163,0.097,38.94,20.019,-71.717,
00:00:26:50,-0.292,-1.034,0.115,-170.716,32.531,7.08,
00:00:26:67,-0.292,-0.927,0.137,-215.088,30.883,-12.452,
00:00:26:83,-0.278,-0.936,0.147,-140.87,39.367,-3.907,
00:00:26:100,-0.272,-0.988,0.141,-132.508,45.166,-2.381,
00:00:26:117,-0.269,-1.05,0.162,-141.297,47.302,-0.489,
00:00:26:133,-0.266,-1.011,0.193,-177.735,39.123,9.765,
00:00:26:150,-0.27,-0.948,0.198,-137.574,37.658,8.239,
00:00:26:167,-0.27,-0.918,0.197,-75.257,26.184,-5.677,
00:00:26:183,-0.274,-0.915,0.192,-5.433,10.681,-18.494,
00:00:26:200,-0.275,-0.937,0.18,24.841,2.258,-31.8,
00:00:26:217,-0.268,-0.963,0.17,41.076,0.488,-38.147,
00:00:26:233,-0.27,-0.986,0.155,35.827,-2.32,-42.237,
00:00:26:250,-0.276,-1,0.144,17.028,-7.996,-44.007,
00:00:26:267,-0.28,-0.977,0.146,-1.526,-16.907,-38.575,
00:00:26:283,-0.278,-0.952,0.139,-12.085,-16.846,-35.096,
00:00:26:300,-0.279,-0.969,0.147,-5.494,-15.381,-40.284,
00:00:26:317,-0.273,-0.978,0.154,-4.639,-14.649,-42.176,
00:00:26:333,-0.276,-0.972,0.159,-9.4,-10.987,-42.542,
00:00:26:350,-0.275,-0.961,0.157,-9.095,-12.269,-38.88,
00:00:26:367,-0.281,-0.978,0.166,0.549,-6.348,-42.481,
00:00:26:383,-0.283,-0.981,0.165,2.502,-3.235,-34.974,
00:00:26:400,-0.278,-0.98,0.166,-8.362,-0.245,-34.18,
00:00:26:417,-0.279,-0.97,0.167,-10.498,0.244,-32.593,
00:00:26:433,-0.282,-0.98,0.163,-10.071,7.507,-30.579,
00:00:26:450,-0.288,-0.968,0.153,-23.865,13.732,-26.551,
00:00:26:467,-0.282,-0.977,0.16,-20.935,18.859,-23.926,
00:00:26:483,-0.276,-0.978,0.152,-21.729,21.057,-21.363,
00:00:26:500,-0.268,-0.977,0.17,-23.011,16.784,-21.424,
00:00:26:517,-0.272,-0.962,0.158,-16.663,21.789,-20.63,
00:00:26:533,-0.274,-0.974,0.156,-4.09,16.723,-26.001,
00:00:26:550,-0.277,-0.966,0.148,-7.569,12.878,-21.729,
00:00:26:567,-0.276,-0.973,0.143,-8.606,9.887,-28.077,
00:00:26:583,-0.281,-0.977,0.137,-8.851,9.521,-24.659,
00:00:26:600,-0.282,-0.984,0.148,-2.564,4.821,-24.476,
00:00:26:617,-0.278,-0.994,0.15,2.38,4.516,-22.095,
00:00:26:633,-0.3,-1.003,0.175,12.817,30.883,-19.837,
00:00:26:650,-0.326,-1.018,0.211,61.462,27.648,-15.87,
00:00:26:667,-0.341,-1.049,0.274,134.582,48.767,-12.33,
00:00:26:683,-0.338,-1.078,0.322,222.412,65.856,-12.696,
00:00:26:700,-0.323,-1.066,0.33,341.674,71.533,-17.762,
00:00:26:717,-0.355,-1.006,0.281,527.526,61.828,-38.392,
00:00:26:733,-0.362,-0.975,0.193,726.745,35.095,-58.411,
00:00:26:750,-0.172,-1.285,0.022,684.692,79.711,-89.173,
00:00:26:767,-0.325,-1.385,-0.174,461.303,86.914,9.277,
00:00:26:783,-0.355,-1.465,-0.185,170.837,41.381,-224.244,
00:00:26:800,-0.388,-1.072,0.02,-414.673,68.298,-472.962,
00:00:26:817,-0.598,-0.772,-0.014,-212.037,75.012,-569.031,
00:00:26:833,-0.485,-1.379,-0.258,-412.537,237.976,-1790.101,
00:00:26:850,-0.285,-0.732,-0.045,-31.128,286.255,-290.711,
00:00:26:867,-0.663,-0.723,0.084,3.967,260.376,-830.506,
00:00:26:883,-0.443,-0.931,0.014,-52.613,343.261,-712.281,
00:00:26:900,-0.389,-0.954,-0.028,-133.484,306.64,-638.794,
00:00:26:917,-0.425,-0.772,0.003,-168.152,266.174,-510.01,
00:00:26:933,-0.444,-0.719,0.054,-257.935,279.907,-464.295,
00:00:26:950,-0.414,-0.74,0.081,-384.827,278.93,-438.477,
00:00:26:967,-0.408,-0.649,0.122,-380.799,262.268,-391.419,
00:00:26:983,-0.442,-0.629,0.171,-360.047,262.878,-349.793,
00:00:27:0,-0.433,-0.666,0.195,-401.246,271.972,-320.557,
00:00:27:17,-0.426,-0.565,0.217,-362.671,266.662,-283.631,
00:00:27:33,-0.464,-0.506,0.248,-245.728,268.249,-249.512,
00:00:27:50,-0.488,-0.572,0.23,-126.587,280.456,-219.483,
00:00:27:67,-0.492,-0.61,0.221,-2.32,276.001,-172.303,
00:00:27:83,-0.502,-0.609,0.212,63.232,261.718,-112.549,
00:00:27:100,-0.518,-0.7,0.218,78.125,252.929,-75.501,
00:00:27:117,-0.509,-0.806,0.219,66.589,242.004,-40.284,
00:00:27:133,-0.474,-0.846,0.244,14.709,222.229,1.098,
00:00:27:150,-0.458,-0.899,0.258,-79.529,183.471,24.292,
00:00:27:167,-0.476,-0.888,0.273,-187.867,149.475,26.672,
00:00:27:183,-0.496,-0.808,0.301,-234.681,127.624,27.587,
00:00:27:200,-0.515,-0.753,0.305,-207.093,124.084,10.62,
00:00:27:217,-0.525,-0.73,0.301,-119.812,118.225,-1.282,
00:00:27:233,-0.537,-0.718,0.303,5.065,119.629,-5.982,
00:00:27:250,-0.547,-0.714,0.303,116.027,113.891,3.54,
00:00:27:267,-0.556,-0.734,0.272,139.282,104.187,15.991,
00:00:27:283,-0.565,-0.746,0.268,98.755,94.482,35.339,
00:00:27:300,-0.571,-0.75,0.285,37.597,99.609,66.589,
00:00:27:317,-0.557,-0.745,0.33,-16.663,103.454,108.764,
00:00:27:333,-0.527,-0.804,0.37,-117.798,109.619,165.405,
00:00:27:350,-0.469,-0.899,0.417,-284.485,96.252,229.858,
00:00:27:367,-0.41,-1.019,0.429,-508.362,72.998,318.542,
00:00:27:383,-0.385,-1,0.42,-848.694,31.799,401.672,
00:00:27:400,-0.425,-0.758,0.434,-1138.062,46.875,457.519,
00:00:27:417,-0.466,-0.631,0.488,-1021.851,94.482,440.307,
00:00:27:433,-0.477,-0.647,0.56,-618.897,118.347,400.817,
00:00:27:450,-0.477,-0.775,0.549,-113.526,145.446,370.544,
00:00:27:467,-0.483,-0.816,0.433,75.073,135.376,364.929,
00:00:27:483,-0.497,-0.723,0.647,-36.255,82.885,164.245,
00:00:27:500,-0.502,-1.165,0.806,1299.133,-206.116,-332.398,
00:00:27:517,-0.488,-1.627,0.299,583.435,-97.413,-79.834,
00:00:27:533,-0.404,-1.25,0.173,-594.178,-26.49,-70.862,
00:00:27:550,-0.429,-0.796,0.231,-947.266,-92.286,-129.029,
00:00:27:567,-0.513,-0.552,0.374,-641.114,-139.466,-142.273,
00:00:27:583,-0.524,-0.477,0.489,-185.181,-102.112,-188.05,
00:00:27:600,-0.46,-0.586,0.626,273.925,-29.847,-176.392,
00:00:27:617,-0.379,-0.842,0.572,344.055,37.902,-94.239,
00:00:27:633,-0.368,-1.065,0.346,-102.234,149.902,84.289,
00:00:27:650,-0.404,-0.761,0.172,-764.222,248.779,276.611,
00:00:27:667,-0.48,-0.489,0.367,-1003.418,420.227,416.87,
00:00:27:683,-0.512,-0.008,0.002,-710.144,455.81,362.854,
00:00:27:700,-0.356,-0.75,1.478,1223.083,80.81,-291.565,
00:00:27:717,-0.298,-1.767,0.607,1315.918,-147.217,-281.006,
00:00:27:733,-0.456,-1.623,0.354,-43.519,-163.697,-82.825,
00:00:27:750,-0.473,-0.892,0.305,-942.933,-62.012,-94.117,
00:00:27:767,-0.436,-0.584,0.421,-929.261,31.555,-38.819,
00:00:27:783,-0.434,-0.537,0.495,-579.712,11.596,-105.042,
00:00:27:800,-0.48,-0.569,0.58,-171.692,-27.955,-161.133,
00:00:27:817,-0.579,-0.68,0.573,404.48,-101.685,-262.818,
00:00:27:833,-0.666,-0.919,0.414,677.124,-79.285,-325.867,
00:00:27:850,-0.675,-1.112,0.344,479.248,4.333,-339.783,
00:00:27:867,-0.592,-1.058,0.399,144.165,41.381,-375.794,
00:00:27:883,-0.574,-0.885,0.458,28.747,38.269,-406.678,
00:00:27:900,-0.653,-0.782,0.415,19.287,70.861,-439.698,
00:00:27:917,-0.631,-0.715,0.351,103.881,139.709,-462.159,
00:00:27:933,-0.613,-0.633,0.35,264.648,188.842,-438.416,
00:00:27:950,-0.598,-0.622,0.356,401.001,230.896,-420.472,
00:00:27:967,-0.57,-0.648,0.365,447.692,272.4,-390.442,
00:00:27:983,-0.531,-0.67,0.366,421.63,297.18,-329.346,
00:00:28:0,-0.495,-0.696,0.363,328.674,306.64,-292.786,
00:00:28:17,-0.467,-0.708,0.364,187.011,302.49,-245.362,
00:00:28:33,-0.437,-0.711,0.387,47.485,287.963,-205.018,
00:00:28:50,-0.416,-0.7,0.42,-50.721,257.751,-159.607,
00:00:28:67,-0.41,-0.666,0.441,-101.136,231.384,-127.381,
00:00:28:83,-0.398,-0.64,0.468,-87.159,208.374,-99.183,
00:00:28:100,-0.387,-0.617,0.486,-27.894,188.781,-70.008,
00:00:28:117,-0.371,-0.589,0.503,59.753,176.025,-34.79,
00:00:28:133,-0.366,-0.584,0.491,163.696,160.278,-9.4,
00:00:28:150,-0.36,-0.604,0.484,267.273,138.305,10.131,
00:00:28:167,-0.362,-0.634,0.452,359.375,115.844,35.705,
00:00:28:183,-0.313,-0.784,0.44,319.397,49.499,66.284,
00:00:28:200,-0.259,-0.813,0.549,-25.208,-56.153,188.049,
00:00:28:217,-0.359,-0.662,0.581,-167.908,-73.487,194.763,
00:00:28:233,-0.401,-0.618,0.525,37.353,-45.533,139.465,
00:00:28:250,-0.384,-0.683,0.484,363.403,-20.447,144.958,
00:00:28:267,-0.413,-0.75,0.398,596.679,30.517,107.36,
00:00:28:283,-0.441,-0.839,0.297,710.449,73.852,70.922,
00:00:28:300,-0.444,-0.947,0.257,686.34,87.585,66.101,
00:00:28:317,-0.436,-1.052,0.273,499.511,80.017,90.698,
00:00:28:333,-0.454,-1.068,0.293,197.937,65.124,104.065,
00:00:28:350,-0.47,-0.989,0.312,0.122,62.988,87.646,
00:00:28:367,-0.464,-0.928,0.346,-22.828,56.64,67.688,
00:00:28:383,-0.475,-0.908,0.37,38.269,51.635,28.625,
00:00:28:400,-0.474,-0.921,0.401,120.971,48.706,-4.7,
00:00:28:417,-0.46,-0.93,0.426,205.688,41.687,-30.884,
00:00:28:433,-0.471,-0.926,0.438,234.192,29.113,-55.787,
00:00:28:450,-0.49,-0.892,0.388,266.662,43.64,-76.05,
00:00:28:467,-0.497,-0.858,0.34,370.727,72.387,-108.46,
00:00:28:483,-0.479,-0.893,0.272,408.447,101.806,-104.493,
00:00:28:500,-0.421,-1.029,0.273,229.858,65.124,-92.469,
00:00:28:517,-0.386,-1.12,0.349,-139.283,-26.307,-51.392,
00:00:28:533,-0.431,-0.867,0.444,-306.763,-68.543,-6.958,
00:00:28:550,-0.462,-0.748,0.489,-201.844,-35.157,-26.001,
00:00:28:567,-0.434,-0.772,0.423,33.752,12.939,-25.208,
00:00:28:583,-0.409,-0.878,0.344,152.526,39.184,-49.805,
00:00:28:600,-0.396,-0.955,0.337,151.428,44.616,-74.646,
00:00:28:617,-0.445,-0.915,0.259,20.69,32.653,-108.033,
00:00:28:633,-0.455,-0.868,0.279,-22.095,13.671,-75.135,
00:00:28:650,-0.475,-0.77,0.254,-68.909,-8.851,-33.081,
00:00:28:667,-0.502,-0.735,0.247,-23.743,-11.414,-44.312,
00:00:28:683,-0.497,-0.792,0.217,7.934,-27.039,3.54,
00:00:28:700,-0.513,-0.836,0.221,26.001,-46.692,19.592,
00:00:28:717,-0.489,-0.876,0.25,40.649,-46.265,41.137,
00:00:28:733,-0.478,-0.875,0.199,52.368,-50.354,30.212,
00:00:28:750,-0.467,-0.916,0.279,-19.288,-52.185,55.175,
00:00:28:767,-0.466,-0.904,0.216,-49.134,-29.541,2.624,
00:00:28:783,-0.477,-0.921,0.231,-144.349,-19.471,33.264,
00:00:28:800,-0.455,-0.929,0.244,-223.45,-17.395,34.729,
00:00:28:817,-0.435,-0.942,0.285,-303.894,-27.771,32.898,
00:00:28:833,-0.435,-0.925,0.3,-389.1,-49.073,37.78,
00:00:28:850,-0.45,-0.923,0.33,-442.688,-51.575,37.597,
00:00:28:867,-0.47,-0.909,0.364,-467.53,-39.429,48.095,
00:00:28:883,-0.469,-0.973,0.449,-927.491,24.78,26.855,
00:00:28:900,-0.491,-0.931,0.501,-1050.171,49.499,40.222,
00:00:28:917,-0.51,-0.903,0.498,-1172.242,80.383,35.278,
00:00:28:933,-0.518,-0.916,0.539,-1292.725,118.652,3.906,
00:00:28:950,-0.488,-0.842,0.659,-1547.242,152.588,-21.424,
00:00:28:967,-0.481,-0.807,0.664,-1662.476,156.25,-44.983,
00:00:28:983,-0.456,-0.702,0.721,-1665.711,182.556,-71.228,
00:00:29:0,-0.446,-0.606,0.743,-1588.501,141.113,-96.375,
00:00:29:17,-0.427,-0.516,0.775,-1526.795,109.375,-106.873,
00:00:29:33,-0.444,-0.482,0.785,-1425.904,101.013,-102.967,
00:00:29:50,-0.42,-0.408,0.828,-1420.777,111.511,-170.35,
00:00:29:67,-0.402,-0.407,0.861,-1370.179,111.694,-149.964,
00:00:29:83,-0.388,-0.401,0.862,-1374.878,92.224,-147.034,
00:00:29:100,-0.349,-0.261,0.892,-1328.675,69.885,-180.481,
00:00:29:117,-0.333,-0.156,0.913,-1170.899,4.821,-184.937,
00:00:29:133,-0.345,-0.104,0.877,-1044.861,-36.011,-176.514,
00:00:29:150,-0.351,-0.025,0.87,-917.481,-44.678,-200.928,
00:00:29:167,-0.351,0.034,0.879,-746.582,-51.209,-185.608,
00:00:29:183,-0.35,0.042,0.864,-593.934,-56.519,-160.523,
00:00:29:200,-0.347,0.048,0.862,-407.044,-73.67,-147.644,
00:00:29:217,-0.361,0.044,0.865,-340.76,-90.577,-136.78,
00:00:29:233,-0.373,0.057,0.849,-290.528,-93.262,-116.7,
00:00:29:250,-0.385,0.081,0.841,-189.637,-93.14,-112.732,
00:00:29:267,-0.397,0.063,0.839,-99.488,-80.018,-97.474,
00:00:29:283,-0.4,0.059,0.826,-29.48,-52.918,-88.746,
00:00:29:300,-0.4,0.047,0.817,18.92,-42.298,-72.998,
00:00:29:317,-0.412,0.021,0.784,42.724,-41.81,-60.425,
00:00:29:333,-0.415,0.019,0.819,51.696,-23.865,-42.298,
00:00:29:350,-0.415,0.02,0.831,66.772,-9.278,-26.062,
00:00:29:367,-0.41,0.018,0.835,91.552,-1.648,-11.292,
00:00:29:383,-0.414,0.007,0.823,117.004,6.164,3.234,
00:00:29:400,-0.414,-0.001,0.823,140.197,14.77,8.85,
00:00:29:417,-0.405,-0.003,0.834,161.621,31.066,25.756,
00:00:29:433,-0.393,0.002,0.847,200.988,35.766,38.147,
00:00:29:450,-0.384,-0.002,0.847,250.061,30.639,47.851,
00:00:29:467,-0.382,0.024,0.846,426.391,1.892,57.006,
00:00:29:483,-0.382,0.041,0.856,566.711,-9.888,73.486,
00:00:29:500,-0.386,0.019,0.856,729.431,-19.715,80.505,
00:00:29:517,-0.384,-0.029,0.863,904.541,-30.945,76.232,
00:00:29:533,-0.387,-0.096,0.827,1075.927,-55.115,75.5,
00:00:29:550,-0.397,-0.177,0.794,1243.652,-94.971,81.726,
00:00:29:567,-0.426,-0.279,0.79,1350.647,-125.061,92.041,
00:00:29:583,-0.455,-0.378,0.784,1367.248,-125.245,103.759,
00:00:29:600,-0.47,-0.469,0.787,1352.05,-102.051,76.599,
00:00:29:617,-0.454,-0.512,0.761,1346.679,-90.394,63.293,
00:00:29:633,-0.454,-0.571,0.744,1348.755,-123.597,63.11,
00:00:29:650,-0.476,-0.61,0.697,1312.744,-155.884,53.283,
00:00:29:667,-0.507,-0.63,0.663,1265.197,-148.255,30.7,
00:00:29:683,-0.522,-0.662,0.632,1261.291,-124.695,15.258,
00:00:29:700,-0.511,-0.72,0.638,1230.346,-117.981,-9.766,
00:00:29:717,-0.508,-0.793,0.623,1156.921,-119.385,-32.654,
00:00:29:733,-0.506,-0.829,0.603,1044.006,-108.643,-39.551,
00:00:29:750,-0.514,-0.828,0.577,882.629,-97.901,-41.871,
00:00:29:767,-0.506,-0.798,0.541,763.366,-83.924,-43.457,
00:00:29:783,-0.496,-0.766,0.534,729.004,-87.281,-56.58,
00:00:29:800,-0.502,-0.774,0.521,797.851,-86.609,-80.75,
00:00:29:817,-0.51,-0.806,0.519,866.516,-70.984,-90.027,
00:00:29:833,-0.499,-0.833,0.517,883.789,-43.641,-92.286,
00:00:29:850,-0.5,-0.843,0.466,874.511,-19.165,-98.267,
00:00:29:867,-0.51,-0.868,0.424,896.606,6.836,-102.967,
00:00:29:883,-0.5,-0.893,0.372,890.991,29.296,-119.263,
00:00:29:900,-0.501,-0.91,0.297,809.875,28.747,-144.959,
00:00:29:917,-0.501,-1.015,0.323,672.729,-17.884,-144.349,
00:00:29:933,-0.505,-0.999,0.323,499.939,-42.847,-126.893,
00:00:29:950,-0.531,-0.959,0.217,183.654,-59.754,-129.212,
00:00:29:967,-0.526,-0.971,0.204,129.943,-58.96,-134.034,
00:00:29:983,-0.519,-0.962,0.21,72.448,-44.007,-142.579,
00:00:30:0,-0.518,-0.958,0.201,47.058,-5.616,-173.645,
00:00:30:17,-0.543,-0.958,0.095,31.494,41.32,-197.022,
00:00:30:33,-0.561,-0.937,0.075,-1.099,54.87,-203.919,
00:00:30:50,-0.531,-0.89,0.138,-63.416,33.386,-175.049,
00:00:30:67,-0.536,-0.854,0.167,-147.156,5.615,-196.778,
00:00:30:83,-0.557,-0.816,0.182,-206.36,-20.508,-216.309,
00:00:30:100,-0.548,-0.875,0.219,-250.794,-46.387,-212.037,
00:00:30:117,-0.518,-0.877,0.246,-309.021,-79.346,-202.027,
00:00:30:133,-0.511,-0.843,0.325,-340.882,-106.629,-201.416,
00:00:30:150,-0.525,-0.752,0.268,-150.635,-39.856,-261.902,
00:00:30:167,-0.561,-0.736,0.232,-82.032,-41.565,-230.652,
00:00:30:183,-0.539,-0.761,0.262,-52.002,-44.922,-230.591,
00:00:30:200,-0.531,-0.754,0.271,0,-29.847,-219.544,
00:00:30:217,-0.537,-0.788,0.268,47.485,-29.358,-217.408,
00:00:30:233,-0.539,-0.814,0.271,3.051,-53.284,-202.576,
00:00:30:250,-0.539,-0.785,0.266,-55.115,-70.191,-184.388,
00:00:30:267,-0.533,-0.753,0.256,-70.313,-80.018,-179.017,
00:00:30:283,-0.517,-0.783,0.246,-38.88,-95.948,-172.242,
00:00:30:300,-0.481,-0.805,0.28,-32.654,-131.714,-153.382,
00:00:30:317,-0.46,-0.787,0.316,-45.044,-187.378,-137.757,
00:00:30:333,-0.449,-0.718,0.355,-99.549,-319.764,-81.238,
00:00:30:350,-0.476,-0.663,0.344,-123.352,-392.334,-37.476,
00:00:30:367,-0.492,-0.615,0.315,-104.432,-457.764,17.211,
00:00:30:383,-0.521,-0.57,0.302,-44.678,-526.49,82.519,
00:00:30:400,-0.554,-0.538,0.276,16.723,-583.435,156.189,
00:00:30:417,-0.6,-0.52,0.214,64.392,-636.963,221.679,
00:00:30:433,-0.638,-0.523,0.156,67.016,-681.946,304.443,
00:00:30:450,-0.642,-0.511,0.107,9.643,-721.009,396.362,
00:00:30:467,-0.643,-0.505,0.046,-64.698,-742.981,494.934,
00:00:30:483,-0.648,-0.529,-0.031,-100.464,-741.211,578.186,
00:00:30:500,-0.641,-0.579,-0.112,-85.45,-721.802,665.466,
00:00:30:517,-0.649,-0.631,-0.185,-75.562,-687.256,741.088,
00:00:30:533,-0.642,-0.66,-0.205,-33.143,-638.123,786.377,
00:00:30:550,-0.613,-0.777,-0.224,52.246,-557.862,791.381,
00:00:30:567,-0.595,-0.931,-0.227,78.735,-468.201,781.982,
00:00:30:583,-0.578,-1.058,-0.222,-39.978,-355.53,756.775,
00:00:30:600,-0.514,-1.112,-0.224,-288.331,-151.673,646.484,
00:00:30:617,-0.469,-1.148,-0.179,-248.719,-75.135,562.317,
00:00:30:633,-0.44,-1.16,-0.113,-182.007,-10.498,479.248,
00:00:30:650,-0.425,-1.178,-0.051,-141.907,38.208,396.789,
00:00:30:667,-0.396,-1.188,0.028,-122.498,60.363,327.88,
00:00:30:683,-0.37,-1.134,0.025,-118.409,75.622,266.113,
00:00:30:700,-0.331,-1.091,0.041,-94.3,75.439,200.866,
00:00:30:717,-0.292,-1.091,0.079,-39.185,69.763,150.94,
00:00:30:733,-0.283,-1.144,0.14,-44.8,50.293,101.806,
00:00:30:750,-0.279,-1.312,0.176,-168.946,20.385,49.133,
00:00:30:767,-0.311,-1.5,0.128,-481.629,8.178,-66.895,
00:00:30:783,-0.294,-1.014,0.151,-623.536,36.254,-68.726,
00:00:30:800,-0.313,-0.746,0.19,-392.212,26.428,-57.801,
00:00:30:817,-0.277,-0.777,0.192,-90.271,10.437,-18.921,
00:00:30:833,-0.264,-0.913,0.17,12.085,13.855,-6.897,
00:00:30:850,-0.268,-1.029,0.122,-82.276,30.517,-16.48,
00:00:30:867,-0.265,-1.032,0.079,-213.746,37.475,-15.259,
00:00:30:883,-0.276,-1.044,0.08,-230.469,36.438,-32.776,
00:00:30:900,-0.293,-0.999,0.103,-245.85,48.828,-16.541,
00:00:30:917,-0.298,-0.975,0.109,-266.053,63.903,-18.433,
00:00:30:933,-0.314,-0.983,0.115,-263.062,78.125,-22.706,
00:00:30:950,-0.298,-0.988,0.147,-237.915,74.768,-39.124,
00:00:30:967,-0.289,-0.998,0.149,-241.333,59.204,-35.767,
00:00:30:983,-0.288,-0.927,0.192,-220.826,47.424,-18.433,breakEggLH
00:00:31:0,-0.296,-0.934,0.216,-153.321,24.475,-30.884,
00:00:31:17,-0.291,-0.962,0.221,-109.192,17.089,-28.687,
00:00:31:33,-0.297,-0.994,0.219,-115.845,5.493,-32.166,
00:00:31:50,-0.29,-0.985,0.214,-136.658,6.591,-11.78,
00:00:31:67,-0.296,-0.997,0.208,-132.264,1.403,-8.851,
00:00:31:83,-0.301,-0.97,0.215,-153.748,12.207,7.69,
00:00:31:100,-0.292,-0.952,0.226,-166.382,18.371,7.568,
00:00:31:117,-0.282,-0.949,0.232,-159.363,26.062,0.976,
00:00:31:133,-0.278,-0.952,0.236,-153.87,32.592,-0.367,
00:00:31:150,-0.275,-0.936,0.259,-141.663,40.344,-2.076,
00:00:31:167,-0.266,-0.922,0.283,-105.103,44.067,-7.508,
00:00:31:183,-0.254,-0.933,0.299,-69.581,48.278,-18.799,
00:00:31:200,-0.26,-0.934,0.265,-39.002,50.293,-26.734,
00:00:31:217,-0.256,-0.964,0.262,-9.522,35.339,-31.983,
00:00:31:233,-0.267,-0.947,0.256,-5.249,26.245,-26.001,
00:00:31:250,-0.27,-0.937,0.238,15.686,20.385,-30.701,
00:00:31:267,-0.284,-0.954,0.217,13.305,14.953,-35.035,
00:00:31:283,-0.276,-0.965,0.218,7.934,5.493,-31.983,
00:00:31:300,-0.275,-0.961,0.216,-6.47,0.976,-31.25,
00:00:31:317,-0.271,-0.972,0.217,-22.522,-7.325,-32.044,
00:00:31:333,-0.273,-0.968,0.238,-43.396,-11.902,-25.818,
00:00:31:350,-0.274,-0.961,0.241,-71.167,-11.597,-28.382,
00:00:31:367,-0.279,-0.957,0.236,-90.332,-12.391,-27.405,
00:00:31:383,-0.28,-0.948,0.239,-88.685,-7.019,-26.062,
00:00:31:400,-0.279,-0.944,0.251,-76.722,-8.484,-24.964,
00:00:31:417,-0.277,-0.944,0.251,-62.867,-6.165,-28.626,
00:00:31:433,-0.276,-0.944,0.259,-56.519,-4.212,-28.26,
00:00:31:450,-0.274,-0.948,0.261,-52.918,2.014,-26.978,
00:00:31:467,-0.284,-0.964,0.266,-61.646,8.117,-25.147,
00:00:31:483,-0.283,-0.968,0.263,-76.661,20.263,-20.081,
00:00:31:500,-0.277,-0.957,0.26,-88.807,20.507,-17.884,
00:00:31:517,-0.266,-0.937,0.263,-99.06,22.766,-11.902,
00:00:31:533,-0.278,-0.95,0.283,-69.092,17.578,-16.602,
00:00:31:550,-0.277,-0.942,0.268,-82.52,26.611,-10.498,
00:00:31:567,-0.276,-0.954,0.29,-64.942,21.118,-19.043,
00:00:31:583,-0.272,-0.934,0.278,-58.289,31.555,-6.653,
00:00:31:600,-0.271,-0.953,0.265,-55.603,30.7,-24.048,
00:00:31:617,-0.27,-0.939,0.283,-64.942,23.986,-13.306,
00:00:31:633,-0.269,-0.938,0.287,-73.792,33.264,-11.719,
00:00:31:650,-0.259,-0.942,0.27,-74.83,32.959,-16.846,
00:00:31:667,-0.253,-0.946,0.28,-66.712,29.052,-11.048,
00:00:31:683,-0.257,-0.943,0.275,-47.059,26.428,-20.142,
00:00:31:700,-0.271,-0.951,0.284,-47.791,23.132,-18.189,
00:00:31:717,-0.275,-0.963,0.304,-47.791,27.465,-13.062,
00:00:31:733,-0.263,-0.969,0.304,-44.19,28.015,-7.874,
00:00:31:750,-0.262,-0.961,0.317,-10.376,23.315,-8.423,
00:00:31:767,-0.271,-0.956,0.322,74.646,16.174,-7.447,
00:00:31:783,-0.286,-0.978,0.318,141.845,5.249,-0.184,
00:00:31:800,-0.288,-0.987,0.339,197.998,-14.954,9.094,
00:00:31:817,-0.27,-0.969,0.331,231.628,-31.922,6.103,
00:00:31:833,-0.26,-0.966,0.307,257.324,-36.683,-3.724,
00:00:31:850,-0.271,-0.978,0.288,264.953,-28.321,-10.987,
00:00:31:867,-0.271,-0.974,0.274,269.531,-33.509,-17.151,
00:00:31:883,-0.285,-0.962,0.253,299.499,-17.701,-22.4,
00:00:31:900,-0.275,-0.957,0.274,330.749,-21.485,-24.964,
00:00:31:917,-0.288,-0.972,0.263,308.654,-11.231,-40.894,
00:00:31:933,-0.302,-0.952,0.212,366.638,-3.968,-112.793,
00:00:31:950,-0.323,-1.083,0.183,462.768,-22.156,-183.106,
00:00:31:967,-0.353,-1.186,0.18,433.96,-33.753,-220.459,
00:00:31:983,-0.387,-1.163,0.163,312.744,-29.908,-263.672,
00:00:32:0,-0.416,-1.112,0.127,227.722,-7.813,-322.266,
00:00:32:17,-0.18,-1.223,0.082,203.796,82.336,-231.324,
00:00:32:33,-0.56,-0.987,0.118,244.873,175.171,-56.214,
00:00:32:50,-0.195,-1.296,0.257,116.027,18.066,-1324.28,
00:00:32:67,-0.31,-0.976,0.016,282.592,205.932,-317.688,
00:00:32:83,-0.568,-0.979,0.062,324.035,231.14,-545.96,
00:00:32:100,-0.423,-1.021,0.002,294.616,245.239,-514.954,
00:00:32:117,-0.448,-0.985,-0.017,271.545,261.291,-479.981,
00:00:32:133,-0.449,-0.921,-0.037,249.878,276.306,-441.468,
00:00:32:150,-0.439,-0.941,-0.032,157.348,297.973,-404.541,
00:00:32:167,-0.412,-0.958,-0.038,4.821,299.926,-362.122,
00:00:32:183,-0.386,-0.907,0.007,-139.71,295.532,-308.228,
00:00:32:200,-0.389,-0.864,0.058,-239.624,304.443,-274.842,
00:00:32:217,-0.386,-0.857,0.058,-319.703,308.593,-253.235,
00:00:32:233,-0.358,-0.803,0.104,-346.802,292.907,-215.21,
00:00:32:250,-0.371,-0.775,0.093,-363.831,294.677,-184.51,
00:00:32:267,-0.369,-0.774,0.125,-351.624,288.391,-173.829,
00:00:32:283,-0.376,-0.81,0.127,-303.894,286.377,-164.124,
00:00:32:300,-0.373,-0.84,0.135,-314.087,277.282,-136.231,
00:00:32:317,-0.366,-0.855,0.145,-375.489,263.488,-106.568,
00:00:32:333,-0.368,-0.851,0.17,-411.866,252.868,-86.365,
00:00:32:350,-0.379,-0.833,0.203,-410.218,238.769,-66.468,
00:00:32:367,-0.394,-0.829,0.223,-405.335,216.613,-64.331,
00:00:32:383,-0.402,-0.802,0.213,-406.128,215.698,-61.951,
00:00:32:400,-0.411,-0.789,0.229,-293.58,203.613,-84.9,
00:00:32:417,-0.429,-0.823,0.256,-163.025,184.814,-89.844,
00:00:32:433,-0.439,-0.851,0.3,-67.994,164.672,-84.168,
00:00:32:450,-0.438,-0.879,0.337,-39.612,141.174,-99.61,
00:00:32:467,-0.435,-0.906,0.344,-73.243,112.487,-112.915,
00:00:32:483,-0.443,-0.895,0.327,-134.766,87.524,-130.127,
00:00:32:500,-0.463,-0.87,0.31,-168.519,61.218,-143.494,
00:00:32:517,-0.485,-0.847,0.297,-145.569,37.17,-149.048,
00:00:32:533,-0.497,-0.822,0.308,-107.727,24.963,-149.903,
00:00:32:550,-0.501,-0.805,0.32,-103.211,14.892,-152.955,
00:00:32:567,-0.531,-0.808,0.32,-101.99,12.512,-160.462,
00:00:32:583,-0.504,-0.789,0.328,-118.226,13.305,-145.63,
00:00:32:600,-0.498,-0.736,0.313,-130.982,20.08,-121.705,
00:00:32:617,-0.497,-0.68,0.3,-131.043,30.578,-97.413,
00:00:32:633,-0.504,-0.625,0.283,-109.192,46.325,-65.308,
00:00:32:650,-0.5,-0.595,0.279,-63.599,67.382,-16.053,
00:00:32:667,-0.497,-0.599,0.283,-19.959,85.449,42.846,
00:00:32:683,-0.477,-0.647,0.297,-7.874,110.839,120.178,
00:00:32:700,-0.456,-0.715,0.312,-37.537,127.38,206.298,
00:00:32:717,-0.445,-0.745,0.341,-133.362,145.507,322.509,
00:00:32:733,-0.446,-0.748,0.354,-233.338,170.471,437.072,
00:00:32:750,-0.442,-0.81,0.355,-285.218,194.824,498.474,
00:00:32:767,-0.378,-0.884,0.381,-358.46,218.505,565.673,
00:00:32:783,-0.382,-0.885,0.4,-480.774,231.506,610.168,
00:00:32:800,-0.36,-0.837,0.359,-585.267,307.495,570.861,
00:00:32:817,-0.267,-1.049,1.215,80.871,112.915,-87.525,
00:00:32:833,-0.336,-1.614,0.79,1467.041,-282.227,-446.289,
00:00:32:850,-0.503,-1.66,0.344,352.234,-193.177,28.625,
00:00:32:867,-0.378,-1.115,0.148,-608.887,-108.887,-234.559,
00:00:32:883,-0.385,-0.658,0.156,-702.149,-102.478,-127.503,
00:00:32:900,-0.485,-0.585,0.384,-412.842,-138.367,-167.115,
00:00:32:917,-0.528,-0.663,0.415,-28.565,-103.577,-238.77,
00:00:32:933,-0.495,-0.633,0.403,96.679,-65.552,-167.298,
00:00:32:950,-0.457,-0.675,0.473,182.678,-29.419,-142.884,
00:00:32:967,-0.424,-0.835,0.421,111.877,31.25,-29.236,
00:00:32:983,-0.418,-1.034,0.441,-313.843,128.601,149.231,
00:00:33:0,-0.395,-0.88,0.4,-667.542,210.327,301.757,
00:00:33:17,-0.444,-0.652,0.473,-892.334,346.008,438.171,
00:00:33:33,-0.491,-0.153,0.009,-667.664,448.913,419.433,
00:00:33:50,-0.287,-0.975,1.364,842.285,86.12,-433.289,
00:00:33:67,-0.233,-1.643,0.637,1146.911,-218.323,-313.172,
00:00:33:83,-0.385,-1.256,0.271,14.343,-166.687,-10.376,
00:00:33:100,-0.405,-0.757,0.233,-479.859,-126.038,-150.94,
00:00:33:117,-0.345,-0.588,0.267,-463.746,-109.925,-39.551,
00:00:33:133,-0.379,-0.667,0.379,-315.186,-130.921,-105.225,
00:00:33:150,-0.44,-0.76,0.514,12.023,-145.142,-136.536,
00:00:33:167,-0.442,-0.83,0.507,274.17,-128.235,-167.908,
00:00:33:183,-0.431,-0.947,0.437,406.799,-103.15,-223.572,
00:00:33:200,-0.44,-1.037,0.359,397.827,-64.209,-259.827,
00:00:33:217,-0.468,-1.02,0.308,301.635,-26.246,-287.11,
00:00:33:233,-0.507,-0.988,0.305,209.411,12.146,-318.36,
00:00:33:250,-0.554,-0.947,0.318,137.268,44.433,-333.13,
00:00:33:267,-0.586,-0.855,0.327,120.239,80.261,-337.891,
00:00:33:283,-0.606,-0.775,0.338,182.067,117.187,-341.675,
00:00:33:300,-0.619,-0.747,0.307,255.188,160.766,-340.027,
00:00:33:317,-0.624,-0.748,0.287,297.912,193.176,-334.107,
00:00:33:334,-0.62,-0.732,0.291,318.725,228.21,-312.439,
00:00:33:350,-0.605,-0.709,0.29,307.373,254.211,-287.903,
00:00:33:367,-0.592,-0.692,0.291,293.457,272.949,-271.302,
00:00:33:384,-0.582,-0.671,0.304,295.41,284.423,-247.01,
00:00:33:400,-0.569,-0.691,0.313,311.157,283.63,-217.286,
00:00:33:417,-0.542,-0.727,0.323,301.025,268.127,-183.106,
00:00:33:434,-0.509,-0.746,0.33,238.037,246.704,-142.884,
00:00:33:450,-0.481,-0.771,0.331,162.231,219.116,-113.831,
00:00:33:467,-0.456,-0.795,0.325,64.392,192.566,-91.492,
00:00:33:484,-0.442,-0.784,0.341,3.54,162.109,-78.064,
00:00:33:500,-0.436,-0.768,0.351,2.807,144.897,-64.454,
00:00:33:517,-0.427,-0.762,0.366,57.861,129.028,-62.745,
00:00:33:534,-0.422,-0.779,0.364,128.234,117.248,-58.35,
00:00:33:550,-0.419,-0.789,0.345,153.32,109.619,-55.726,
00:00:33:567,-0.418,-0.806,0.332,158.508,93.017,-54.993,
00:00:33:584,-0.41,-0.833,0.325,156.433,76.66,-50.11,
00:00:33:600,-0.415,-0.844,0.331,134.399,67.81,-41.382,
00:00:33:617,-0.428,-0.839,0.331,111.633,61.34,-37.293,
00:00:33:634,-0.441,-0.826,0.339,108.886,57.739,-28.87,
00:00:33:650,-0.447,-0.782,0.345,113.22,56.762,-17.273,
00:00:33:667,-0.446,-0.808,0.339,118.103,53.649,-9.095,
00:00:33:684,-0.445,-0.819,0.325,113.769,54.565,-0.061,
00:00:33:700,-0.441,-0.824,0.315,88.501,47.668,15.747,
00:00:33:717,-0.421,-0.848,0.335,53.1,24.658,26.977,
00:00:33:734,-0.435,-0.847,0.351,5.249,6.103,38.513,
00:00:33:750,-0.445,-0.824,0.36,16.723,-5.066,40.771,
00:00:33:767,-0.447,-0.834,0.354,76.904,-7.142,42.358,
00:00:33:784,-0.458,-0.858,0.335,141.967,-9.339,33.447,
00:00:33:800,-0.467,-0.885,0.306,180.053,-4.883,36.132,
00:00:33:817,-0.474,-0.883,0.267,193.237,0.732,38.33,
00:00:33:834,-0.472,-0.904,0.255,199.768,-0.245,51.208,
00:00:33:850,-0.469,-0.926,0.262,166.015,-4.029,66.772,
00:00:33:867,-0.456,-0.937,0.263,97.106,-18.128,90.393,
00:00:33:884,-0.468,-0.897,0.25,69.58,-23.926,94.787,
00:00:33:900,-0.449,-0.895,0.245,103.393,-34.607,109.558,
00:00:33:917,-0.462,-0.883,0.236,131.53,-27.405,109.008,
00:00:33:934,-0.419,-0.912,0.229,208.374,-10.804,93.75,
00:00:33:950,-0.409,-0.941,0.284,217.102,-4.212,100.219,
00:00:33:967,-0.414,-0.949,0.267,194.152,21.667,53.649,
00:00:33:984,-0.402,-0.959,0.237,205.627,51.635,30.639,
00:00:34:0,-0.415,-0.894,0.2,222.534,81.543,13,
00:00:34:17,-0.453,-0.818,0.18,296.508,82.824,-28.321,
00:00:34:34,-0.461,-0.821,0.166,366.76,77.941,-41.26,
00:00:34:50,-0.487,-0.863,0.156,417.541,53.833,-51.819,
00:00:34:67,-0.506,-0.922,0.134,381.713,31.616,-42.969,
00:00:34:84,-0.504,-0.959,0.103,271.362,9.704,-9.217,
00:00:34:100,-0.518,-0.949,0.073,120.666,-21.302,-1.221,
00:00:34:117,-0.532,-0.964,0.094,-3.418,-45.472,21.057,
00:00:34:134,-0.504,-0.956,0.128,-127.503,-78.858,25.817,
00:00:34:150,-0.496,-0.946,0.188,-196.473,-97.779,28.381,
00:00:34:167,-0.487,-0.952,0.231,-173.645,-98.145,20.263,
00:00:34:184,-0.485,-0.965,0.203,-65.186,-43.396,-12.513,
00:00:34:200,-0.493,-1,0.137,-81.543,-20.081,-1.465,
00:00:34:217,-0.482,-1.06,0.159,-199.769,-16.48,-7.752,
00:00:34:234,-0.467,-1.093,0.198,-363.831,-9.4,-1.587,
00:00:34:250,-0.469,-1.074,0.241,-519.593,0.61,-4.395,
00:00:34:267,-0.474,-1.049,0.266,-605.408,15.38,-11.292,
00:00:34:284,-0.476,-1.045,0.265,-696.717,28.015,-14.954,
00:00:34:300,-0.481,-1.041,0.26,-865.784,38.147,-20.997,
00:00:34:317,-0.482,-1.042,0.288,-1078.248,44.189,-25.635,
00:00:34:334,-0.487,-1.015,0.332,-1305.42,54.321,-26.856,
00:00:34:350,-0.492,-0.97,0.378,-1466.309,64.27,-28.199,
00:00:34:367,-0.498,-0.928,0.423,-1554.078,81.665,-33.02,
00:00:34:384,-0.514,-0.864,0.458,-1607.483,121.948,-44.068,
00:00:34:400,-0.516,-0.841,0.514,-1582.764,169.189,-99.854,
00:00:34:417,-0.504,-0.827,0.539,-1513.001,175.354,-137.879,
00:00:34:434,-0.435,-0.742,0.639,-1437.317,191.04,-173.584,
00:00:34:450,-0.422,-0.624,0.71,-1212.952,138.183,-189.637,
00:00:34:467,-0.447,-0.619,0.756,-1059.815,111.694,-197.876,
00:00:34:484,-0.45,-0.644,0.703,-1101.807,122.131,-214.051,
00:00:34:500,-0.421,-0.632,0.667,-1204.224,108.581,-220.032,
00:00:34:517,-0.414,-0.547,0.68,-1229.065,54.26,-207.215,
00:00:34:534,-0.417,-0.5,0.79,-1195.374,-2.442,-222.962,
00:00:34:550,-0.432,-0.51,0.768,-1215.638,-11.78,-227.417,
00:00:34:567,-0.417,-0.476,0.759,-1261.414,12.573,-241.639,
00:00:34:584,-0.401,-0.319,0.765,-1199.158,-4.517,-221.436,
00:00:34:600,-0.406,-0.236,0.776,-1070.801,-56.763,-275.391,
00:00:34:617,-0.424,-0.167,0.791,-934.388,-41.565,-233.887,
00:00:34:634,-0.418,-0.119,0.801,-828.248,-23.743,-213.257,
00:00:34:650,-0.408,-0.084,0.807,-721.863,-0.489,-198.304,
00:00:34:667,-0.397,-0.091,0.802,-634.888,-12.391,-169.8,
00:00:34:684,-0.397,-0.093,0.816,-586.426,-22.522,-150.391,
00:00:34:700,-0.392,-0.036,0.831,-519.898,-45.594,-139.161,
00:00:34:717,-0.4,-0.021,0.83,-417.115,-72.754,-116.883,
00:00:34:734,-0.418,-0.022,0.837,-319.153,-65.674,-118.775,
00:00:34:750,-0.428,-0.025,0.829,-242.371,-45.289,-104.065,
00:00:34:767,-0.417,-0.044,0.81,-187.745,-29.602,-87.403,
00:00:34:784,-0.417,-0.018,0.807,-142.762,-25.452,-79.773,
00:00:34:800,-0.426,-0.011,0.804,-85.755,-34.119,-70.862,
00:00:34:817,-0.441,-0.024,0.803,-40.955,-22.583,-58.716,
00:00:34:834,-0.445,-0.024,0.803,-17.395,-3.724,-47.181,
00:00:34:850,-0.447,-0.019,0.801,18.432,11.169,-30.579,
00:00:34:867,-0.441,-0.014,0.806,76.294,20.08,-14.1,
00:00:34:884,-0.433,-0.027,0.799,106.14,28.259,4.76,
