TIMECODE,ACC_X,ACC_Y,ACC_Z,GYR_X,GYR_Y,GYR_Z,ECG_I,ECG_II,ECG_III,TAG
,1.074,0.241,0.09,369.201,-12.024,-198.67,0,0,0,
,1.025,0.195,0.089,302.124,-43.885,-125.733,0,0,0,
,0.976,0.149,0.093,182.495,-63.965,-39.551,0,0,0,
,0.941,0.133,0.104,13.183,-70.679,42.419,0,0,0,
,0.909,0.14,0.119,-168.457,-60.547,116.088,0,0,0,
,0.895,0.193,0.122,-265.381,-35.401,158.813,0,0,0,
,0.9,0.232,0.109,-303.833,-21.973,179.626,0,0,0,
,0.9,0.246,0.097,-289.795,-26.978,165.344,0,0,0,
,0.908,0.261,0.094,-239.93,-42.42,144.897,0,0,0,
,0.914,0.278,0.088,-163.147,-56.885,112.732,0,0,0,
,0.917,0.288,0.08,-54.566,-78.003,75.317,0,0,0,
,0.922,0.276,0.069,44.921,-93.873,32.226,0,0,0,
,0.927,0.225,0.068,92.59,-103.699,-0.367,0,0,0,
,0.931,0.189,0.063,74.523,-98.633,-11.475,0,0,0,
,0.942,0.187,0.047,-53.223,-76.477,-0.733,0,0,0,
,0.934,0.192,0.049,-112,-58.411,7.995,0,0,0,
,0.927,0.208,0.058,-153.687,-31.556,16.296,0,0,0,
,0.924,0.238,0.053,-156.678,-5.799,22.827,0,0,0,
,0.922,0.269,0.066,-55.848,30.639,15.625,0,0,0,
,0.925,0.263,0.072,30.334,44.921,9.887,0,0,0,
,0.93,0.248,0.082,77.575,52.429,8.361,0,0,0,
,0.93,0.239,0.089,119.018,56.884,5.493,0,0,0,
,0.928,0.229,0.097,141.723,59.631,0.854,0,0,0,
,0.923,0.22,0.109,152.71,62.439,-4.029,0,0,0,
,0.933,0.212,0.114,150.024,68.969,-9.522,0,0,0,
,0.94,0.208,0.121,131.408,67.138,-13.794,0,0,0,
,0.939,0.205,0.13,111.633,62.744,-16.907,0,0,0,
,0.937,0.201,0.125,85.632,57.495,-13.367,0,0,0,
,0.94,0.2,0.122,54.443,40.954,-14.832,0,0,0,
,0.934,0.202,0.125,20.263,25.573,-13.001,0,0,0,
,0.928,0.204,0.123,-4.517,8.911,-16.175,0,0,0,
,0.923,0.208,0.123,-22.156,2.014,-20.508,0,0,0,
,0.918,0.211,0.117,-33.997,1.22,-28.687,0,0,0,
,0.92,0.219,0.114,-37.415,3.112,-40.65,0,0,0,
,0.92,0.226,0.107,-33.448,2.197,-53.833,0,0,0,
,0.924,0.235,0.107,-18.799,6.042,-65.43,0,0,0,
,0.929,0.237,0.103,-0.733,7.202,-76.111,0,0,0,
,0.922,0.23,0.105,12.695,6.225,-82.032,0,0,0,
,0.912,0.228,0.102,17.028,7.568,-82.581,0,0,0,
,0.919,0.222,0.098,11.474,6.958,-84.229,0,0,0,
,0.921,0.221,0.098,-0.061,-0.611,-79.102,0,0,0,
,0.914,0.222,0.097,-11.231,-1.038,-72.937,0,0,0,
,0.913,0.22,0.088,-27.283,-2.686,-68.177,0,0,0,
,0.92,0.222,0.082,-41.626,-2.259,-65.247,0,0,0,
,0.927,0.223,0.081,-54.749,-4.639,-64.27,0,0,0,
,0.935,0.23,0.085,-63.477,4.577,-64.026,0,0,0,
,0.941,0.234,0.084,-63.843,14.343,-63.66,0,0,0,
,0.948,0.236,0.089,-64.087,20.019,-62.134,0,0,0,
,0.951,0.24,0.092,-63.538,20.752,-59.876,0,0,0,
,0.953,0.239,0.102,-63.721,27.282,-55.054,0,0,0,
,0.953,0.237,0.104,-69.092,27.404,-41.687,0,0,0,
,0.95,0.239,0.108,-70.984,21.179,-29.908,0,0,0,
,0.947,0.244,0.113,-67.933,20.446,-15.076,0,0,0,
,0.942,0.242,0.114,-57.19,13.916,-2.503,0,0,0,
,0.94,0.237,0.119,-47.364,12.023,7.629,0,0,0,
,0.939,0.231,0.118,-45.899,10.376,13.732,0,0,0,
,0.929,0.228,0.116,-43.213,7.629,14.77,0,0,0,
,0.926,0.227,0.116,-43.58,5.798,14.892,0,0,0,
,0.928,0.227,0.11,-49.683,2.319,8.972,0,0,0,
,0.931,0.224,0.109,-50.171,-4.151,2.075,0,0,0,
,0.93,0.223,0.105,-49.622,-3.113,-6.714,0,0,0,
,0.925,0.228,0.105,-51.209,-3.296,-14.588,0,0,0,
,0.929,0.228,0.101,-49.378,-1.343,-23.926,0,0,0,
,0.933,0.232,0.104,-49.866,0.366,-31.495,0,0,0,
,0.935,0.232,0.102,-52.185,1.586,-34.913,0,0,0,
,0.968,0.231,0.102,-48.401,3.54,-34.241,0,0,0,
,0.946,0.234,0.098,-51.636,2.38,-34.729,0,0,0,
,0.949,0.232,0.101,-50.904,-2.442,-30.335,0,0,0,
,0.946,0.236,0.106,-46.448,-3.54,-26.368,0,0,0,
,0.943,0.24,0.105,-39.978,-2.686,-21.485,0,0,0,
,0.943,0.238,0.102,-34.607,-4.639,-17.762,0,0,0,
,0.947,0.231,0.095,-30.945,-5.188,-17.884,0,0,0,
,0.943,0.226,0.091,-32.471,-12.574,-13.428,0,0,0,
,0.931,0.228,0.092,-31.739,-12.513,-8.484,0,0,0,
,0.923,0.231,0.088,-27.1,-2.137,-11.597,0,0,0,
,0.921,0.234,0.087,-12.391,2.014,-13.489,0,0,0,
,0.916,0.228,0.083,-0.855,4.516,-18.433,0,0,0,
,0.919,0.221,0.08,5.188,4.272,-20.203,0,0,0,
,0.916,0.213,0.077,-2.503,5.371,-20.569,0,0,0,
,0.917,0.213,0.075,-14.1,7.812,-22.889,0,0,0,
,0.923,0.216,0.07,-24.537,8.667,-26.795,0,0,0,
,0.931,0.222,0.069,-30.701,14.709,-33.814,0,0,0,
,0.94,0.226,0.068,-22.889,17.639,-40.162,0,0,0,
,0.938,0.226,0.073,-12.635,22.949,-45.533,0,0,0,
,0.937,0.229,0.074,-4.334,30.517,-52.857,0,0,0,
,0.945,0.231,0.074,0.854,38.94,-57.496,0,0,0,
,0.941,0.228,0.076,0.732,35.034,-59.021,0,0,0,
,0.936,0.226,0.079,-4.761,32.959,-59.754,0,0,0,
,0.927,0.229,0.084,-7.447,31.25,-60.059,0,0,0,
,0.921,0.231,0.085,-7.569,32.409,-61.585,0,0,0,
,0.925,0.235,0.088,-5.677,30.7,-59.266,0,0,0,
,0.924,0.234,0.085,-0.611,29.541,-59.754,0,0,0,
,0.923,0.233,0.088,0,27.771,-59.082,0,0,0,
,0.929,0.231,0.089,-0.55,23.559,-57.923,0,0,0,
,0.933,0.232,0.089,-3.968,22.949,-55.237,0,0,0,
,0.936,0.232,0.09,-10.254,20.019,-53.284,0,0,0,
,0.942,0.231,0.087,-19.898,15.686,-48.951,0,0,0,
,0.944,0.232,0.085,-27.405,11.962,-42.908,0,0,0,
,0.949,0.235,0.081,-31.8,12.39,-34.119,0,0,0,
,0.948,0.239,0.086,-32.349,8.544,-28.382,0,0,0,
,0.948,0.239,0.084,-28.26,9.46,-22.583,0,0,0,
,0.944,0.237,0.087,-22.828,9.521,-0.061,0,0,0,
,0.94,0.235,0.086,-19.593,10.07,-13.672,0,0,0,
,0.938,0.232,0.086,-18.067,10.803,-13.794,0,0,0,
,0.936,0.23,0.09,-18.86,6.408,-14.405,0,0,0,
,0.935,0.228,0.093,-13.794,3.356,-21.18,0,0,0,
,0.934,0.228,0.093,-13.245,-0.611,-23.621,0,0,0,
,0.927,0.228,0.094,-12.696,0.854,-27.1,0,0,0,
,0.925,0.227,0.095,-13.916,0.671,-31.983,0,0,0,
,0.927,0.226,0.098,-13.55,0,-35.096,0,0,0,
,0.925,0.228,0.097,-21.18,2.685,-34.852,0,0,0,
,0.929,0.228,0.093,-23.133,2.685,-35.95,0,0,0,
,0.927,0.229,0.096,-26.368,2.38,-36.255,0,0,0,
,0.929,0.232,0.095,-24.964,3.906,-35.706,0,0,0,
,0.927,0.235,0.094,-20.325,4.638,-33.814,0,0,0,
,0.93,0.236,0.097,-14.283,8.361,-34.119,0,0,0,
,0.94,0.231,0.091,-10.254,7.995,-33.814,0,0,0,
,0.947,0.229,0.092,-8.057,6.408,-36.316,0,0,0,
,0.942,0.232,0.101,-10.987,2.563,-37.232,0,0,0,
,0.935,0.232,0.097,-7.874,5.554,-36.744,0,0,0,
,0.933,0.231,0.098,-4.151,13.488,-39.368,0,0,0,
,0.932,0.232,0.099,-0.184,11.413,-40.772,0,0,0,
,0.931,0.228,0.096,-2.686,6.347,-39.49,0,0,0,
,0.928,0.222,0.098,-3.907,2.746,-35.035,0,0,0,
,0.923,0.221,0.096,-8.545,2.563,-34.79,0,0,0,
,0.924,0.221,0.09,-16.236,1.281,-33.997,0,0,0,
,0.924,0.227,0.095,-20.447,-1.404,-35.157,0,0,0,
,0.926,0.225,0.089,-20.203,1.098,-35.279,0,0,0,
,0.926,0.227,0.082,-19.349,5.188,-35.34,0,0,0,
,0.93,0.224,0.083,-19.715,3.845,-35.157,0,0,0,
,0.93,0.22,0.084,-24.659,6.958,-30.579,0,0,0,
,0.936,0.223,0.078,-30.03,9.582,-30.335,0,0,0,
,0.936,0.224,0.079,-38.331,4.455,-27.1,0,0,0,
,0.932,0.226,0.078,-40.039,5.737,-23.072,0,0,0,
,0.931,0.227,0.078,-36.56,8.3,-18.677,0,0,0,
,0.93,0.229,0.077,-33.265,11.047,-18.067,0,0,0,
,0.928,0.225,0.079,-28.077,16.601,-18.555,0,0,0,
,0.93,0.223,0.08,-24.353,20.263,-17.823,0,0,0,
,0.931,0.224,0.084,-23.499,22.094,-17.273,0,0,0,
,0.929,0.221,0.085,-24.048,23.437,-20.081,0,0,0,
,0.93,0.222,0.09,-20.508,23.681,-23.011,0,0,0,
,0.932,0.224,0.092,-16.663,24.597,-27.222,0,0,0,
,0.936,0.225,0.101,-11.963,30.883,-30.396,0,0,0,
,0.939,0.225,0.104,-11.841,31.982,-33.997,0,0,0,
,0.94,0.222,0.106,-12.024,31.616,-35.584,0,0,0,
,0.945,0.219,0.105,-12.696,25.634,-35.218,0,0,0,
,0.942,0.224,0.11,-20.691,17.944,-33.936,0,0,0,
,0.943,0.227,0.115,-24.781,14.831,-32.715,0,0,0,
,0.943,0.229,0.113,-26.246,11.352,-32.776,0,0,0,
,0.942,0.227,0.108,-24.292,10.315,-33.997,0,0,0,
,0.941,0.226,0.111,-20.752,8.361,-34.058,0,0,0,
,0.94,0.223,0.109,-24.17,5.981,-35.95,0,0,0,
,0.937,0.226,0.108,-22.706,-14.771,-38.697,0,0,0,
,0.935,0.228,0.107,-23.804,-4.273,-42.359,0,0,0,
,0.937,0.229,0.104,-26.917,-3.174,-44.373,0,0,0,
,0.931,0.23,0.102,-22.767,-6.47,-44.129,0,0,0,
,0.928,0.231,0.1,-20.02,-3.052,-44.922,0,0,0,
,0.929,0.232,0.095,-19.41,-7.935,-44.922,0,0,0,
,0.93,0.229,0.09,-21.729,-8.912,-44.312,0,0,0,
,0.933,0.23,0.087,-22.339,-9.217,-41.687,0,0,0,
,0.929,0.229,0.086,-26.673,-7.691,-38.147,0,0,0,
,0.926,0.234,0.089,-22.522,-7.63,-35.767,0,0,0,
,0.928,0.23,0.081,-21.851,-1.526,-34.058,0,0,0,
,0.936,0.225,0.07,-29.175,0,-32.837,0,0,0,
,0.942,0.224,0.069,-36.988,-5.799,-27.955,0,0,0,
,0.936,0.231,0.074,-39.185,-1.831,-25.391,0,0,0,
,0.927,0.233,0.075,-33.936,7.69,-25.513,0,0,0,
,0.925,0.232,0.077,-24.414,15.258,-27.405,0,0,0,
,0.93,0.227,0.076,-14.649,21.057,-29.725,0,0,0,
,0.93,0.224,0.082,-12.818,25.024,-30.518,0,0,0,
,0.928,0.221,0.083,-15.259,26.367,-29.419,0,0,0,
,0.927,0.224,0.087,-17.09,23.864,-30.518,0,0,0,
,0.929,0.225,0.092,-16.053,25.268,-32.227,0,0,0,
,0.93,0.227,0.094,-15.015,23.986,-34.424,0,0,0,
,0.936,0.228,0.096,-11.78,24.963,-36.499,0,0,0,
,0.936,0.224,0.098,-10.743,23.437,-37.232,0,0,0,
,0.939,0.224,0.096,-14.893,20.141,-36.866,0,0,0,
,0.934,0.223,0.098,-19.898,17.028,-36.438,0,0,0,
,0.941,0.226,0.095,-23.865,18.798,-34.546,0,0,0,
,0.936,0.226,0.099,-20.508,13.366,-31.556,0,0,0,
,0.936,0.225,0.095,-20.874,7.629,-32.044,0,0,0,
,0.936,0.224,0.094,-19.715,7.751,-32.166,0,0,0,
,0.932,0.224,0.092,-20.691,7.568,-33.509,0,0,0,
,0.935,0.224,0.091,-19.837,9.704,-35.096,0,0,0,
,0.936,0.224,0.09,-20.752,9.948,-36.683,0,0,0,
,0.932,0.224,0.088,-18.738,8.911,-37.415,0,0,0,
,0.936,0.224,0.086,-21.058,8.117,-38.88,0,0,0,
,0.936,0.226,0.09,-19.654,7.69,-39.307,0,0,0,
,0.932,0.228,0.087,-17.456,8.483,-38.269,0,0,0,
,0.935,0.224,0.087,-17.395,10.376,-37.232,0,0,0,
,0.932,0.222,0.083,-20.447,8.117,-36.988,0,0,0,
,0.932,0.224,0.083,-23.682,8.667,-36.744,0,0,0,
,0.928,0.226,0.084,-24.292,9.521,-36.56,0,0,0,
,0.931,0.227,0.085,-24.048,12.023,-35.95,0,0,0,
,0.932,0.225,0.079,-22.034,12.573,-35.645,0,0,0,
,0.935,0.227,0.077,-24.231,10.498,-36.255,0,0,0,
,0.934,0.224,0.082,-22.461,10.07,-35.889,0,0,0,
,0.931,0.224,0.084,-24.231,15.93,-32.105,0,0,0,
,0.934,0.224,0.088,-26.368,13.794,-30.701,0,0,0,
,0.935,0.224,0.085,-23.682,15.014,-28.504,0,0,0,
,0.937,0.223,0.087,-28.077,11.779,-25.574,0,0,0,
,0.937,0.222,0.086,-29.725,14.404,-26.612,0,0,0,
,0.937,0.226,0.084,-33.509,6.103,-24.72,0,0,0,
,0.932,0.224,0.089,-29.847,12.268,-26.062,0,0,0,
,0.932,0.224,0.088,-23.499,15.014,-27.527,0,0,0,
,0.933,0.219,0.083,-21.546,13.794,-29.48,0,0,0,
,0.942,0.216,0.078,-24.414,9.948,-29.969,0,0,0,
,0.944,0.216,0.081,-32.532,4.15,-29.053,0,0,0,
,0.934,0.223,0.081,-22.4,19.592,-32.837,0,0,0,
,0.937,0.221,0.081,-15.992,18.615,-30.945,0,0,0,
,0.938,0.215,0.084,-14.405,16.235,-27.588,0,0,0,
,0.935,0.212,0.09,-20.752,15.136,-27.771,0,0,0,
,0.933,0.212,0.084,-26.062,13.244,-26.917,0,0,0,
,0.935,0.215,0.084,-29.114,12.085,-27.71,0,0,0,
,0.937,0.217,0.083,-26.307,14.709,-27.527,0,0,0,
,0.937,0.217,0.086,-27.466,15.747,-30.091,0,0,0,
,0.935,0.216,0.084,-24.537,16.784,-33.265,0,0,0,
,0.933,0.214,0.081,-22.278,14.526,-31.189,0,0,0,
,0.932,0.213,0.078,-25.513,16.784,-36.622,0,0,0,
,0.928,0.217,0.086,-29.602,15.075,-38.88,0,0,0,
,0.928,0.221,0.087,-31.25,15.991,-42.42,0,0,0,
,0.93,0.226,0.087,-33.509,17.944,-47.73,0,0,0,
,0.933,0.234,0.088,-33.265,17.456,-51.026,0,0,0,
,0.932,0.253,0.094,-49.866,23.925,-54.078,0,0,0,
,0.924,0.274,0.109,-126.954,41.748,-42.176,0,0,0,
,0.912,0.254,0.177,-324.036,65.612,-24.903,0,0,0,
,0.909,0.386,0.245,-587.22,157.653,38.269,0,0,0,
,1.031,0.829,0.457,-525.696,176.818,173.706,0,0,0,
,1.164,1.218,0.52,-167.237,249.45,357.971,0,0,0,
,1.234,1.303,0.424,329.528,195.861,546.936,0,0,0,
,1.328,1.258,0.385,565.551,59.082,796.264,0,0,0,
,1.532,1.223,0.432,341.003,-201.233,1112.609,0,0,0,
,1.704,1.298,0.385,-99.793,-457.154,1544.616,0,0,0,
,1.841,1.497,0.283,-599.305,-698.487,1982.36,0,0,0,
,1.984,2.006,0.21,-814.087,-910.706,1999.694,0,0,0,
,2.097,2.449,0.183,-629.151,-972.84,1999.694,0,0,0,
,2.142,2.478,0.187,-161.194,-979.432,1999.694,0,0,0,
,2.219,2.241,0.135,183.044,-965.516,1999.694,0,0,0,
,2.177,1.976,0.036,371.215,-972.901,1999.694,0,0,0,
,2.015,1.117,-0.184,-37.049,-970.398,1999.694,0,0,0,
,1.964,1.069,-0.176,-10.865,-863.77,1999.694,0,0,0,
,2.164,0.929,-0.23,158.203,-680.42,1999.694,0,0,0,
,2.356,0.57,-0.316,588.134,-527.405,1999.694,0,0,0,
,2.345,0.221,-0.404,1208.007,-510.682,1999.694,0,0,0,
,1.632,-1.558,-0.904,1999.694,-1050.965,1999.694,0,0,0,
,1.299,-3.712,-0.869,1999.694,-1472.413,1999.694,0,0,0,
,0.079,-3.35,-0.543,1999.694,-685.914,1999.694,0,0,0,
,0.426,-1.736,-1.259,1999.694,-439.209,-426.697,0,0,0,
,-0.07,-1.91,-0.694,1999.694,606.811,-1700.928,0,0,0,
,0.569,-1.159,-0.636,-2000,1845.886,-2000,0,0,0,
,0.895,-1.131,-0.632,-2000,1849.426,-2000,0,0,0,
,1.294,-0.995,-0.62,-2000,1791.992,-2000,0,0,0,
,1.707,-0.59,-0.602,-2000,1582.031,-2000,0,0,0,
,1.925,0.03,-0.569,-1659.729,1329.651,-2000,0,0,0,
,1.205,0.764,-0.348,1999.694,1961.914,-2000,0,0,0,
,1.381,-0.209,-0.82,1999.694,1999.694,-2000,0,0,0,
,2.708,-1.259,-1.303,1999.694,1999.694,-2000,0,0,0,
,3.999,-1.51,-0.53,1338.379,1999.694,-2000,0,0,0,
,3.999,-0.325,0.939,-912.903,1999.694,-2000,0,0,0,
,3.999,0.751,1.46,-1913.392,1999.694,-2000,0,0,0,
,3.999,2.763,1.82,129.943,1999.694,-2000,0,0,0,
,2.902,3.789,-0.348,1999.694,1676.147,-2000,0,0,0,
,2.012,1.069,0.749,1999.694,434.448,-2000,0,0,0,
,2.728,-0.867,2.104,1999.694,-94.605,-1527.588,0,0,0,
,1.097,-1.514,1.301,-490.296,-40.589,770.752,0,0,0,
,0.778,-0.076,0.835,-2000,-201.722,697.937,0,0,0,
,1.324,0.505,0.418,-2000,-116.15,923.095,0,0,0,
,1.375,1.201,-0.075,-2000,-293.03,1287.353,0,0,0,
,0.914,1.5,0.43,-1978.028,-711.67,917.297,0,0,0,
,0.46,0.906,0.439,-651.001,-363.16,313.72,0,0,0,
,0.65,0.571,0.368,128.234,-321.045,328.125,0,0,0,
,0.902,0.322,0.283,141.113,-295.411,268.493,0,0,0,
,0.942,0.145,0.09,-242.005,-307.19,161.682,0,0,0,
,0.911,0.021,-0.045,-808.228,-395.691,165.1,0,0,0,
,0.932,0.044,-0.129,-1275.33,-487.977,232.849,0,0,0,
,0.989,0.095,-0.209,-1681.885,-535.889,316.711,0,0,0,
,0.975,0.182,-0.217,-1864.808,-578.553,449.951,0,0,0,
,0.844,0.268,-0.174,-1911.133,-552.43,577.453,0,0,0,
,0.733,0.347,-0.15,-1825.989,-443.482,615.478,0,0,0,
,0.755,0.397,-0.152,-1585.694,-324.28,595.947,0,0,0,
,0.855,0.426,-0.155,-1245.423,-227.967,573.303,0,0,0,
,0.929,0.436,-0.116,-891.602,-165.101,550.72,0,0,0,
,0.978,0.421,-0.06,-521.18,-78.614,533.874,0,0,0,
,1.022,0.376,-0.04,-224.915,11.596,510.254,0,0,0,
,1.071,0.31,-0.054,37.475,76.538,475.83,0,0,0,
,1.139,0.255,-0.08,209.655,108.52,454.895,0,0,0,
,1.173,0.209,-0.112,314.88,99.731,434.204,0,0,0,
,1.158,0.192,-0.103,367.614,57.251,424.255,0,0,0,
,1.09,0.201,-0.066,374.206,13.061,405.029,0,0,0,
,1.003,0.207,-0.033,360.717,-24.109,374.755,0,0,0,
,0.934,0.201,0.02,343.322,-50.66,338.134,0,0,0,
,0.894,0.186,0.071,328.796,-58.777,310.73,0,0,0,
,0.906,0.173,0.133,319.275,-62.378,288.269,0,0,0,
,0.972,0.183,0.263,310.363,-71.106,275.268,0,0,0,
,1,0.204,0.29,321.655,-38.025,279.541,0,0,0,
,1.03,0.198,0.251,288.818,-59.205,254.15,0,0,0,
,1.03,0.167,0.188,174.377,-135.621,221.313,0,0,0,
,0.979,0.135,0.174,27.771,-256.348,185.791,0,0,0,
,0.903,0.131,0.236,-144.165,-354.493,129.211,0,0,0,
,0.832,0.134,0.291,-331.116,-397.4,49.499,0,0,0,
,0.766,0.145,0.337,-511.963,-410.34,-61.402,0,0,0,
,0.717,0.161,0.343,-704.895,-401.734,-175.477,0,0,0,
,0.691,0.181,0.304,-878.296,-421.631,-302.002,0,0,0,
,0.702,0.214,0.257,-1092.164,-441.956,-405.701,0,0,0,
,0.739,0.277,0.211,-1312.745,-502.015,-522.034,0,0,0,
,0.769,0.343,0.174,-1496.949,-570.496,-605.286,0,0,0,
,0.792,0.423,0.148,-1629.578,-636.292,-675.721,0,0,0,
,0.821,0.491,0.109,-1688.721,-693.848,-729.432,0,0,0,
,0.835,0.522,0.081,-1648.926,-750.184,-763.428,0,0,0,
,0.824,0.523,0.063,-1530.091,-788.819,-757.63,0,0,0,
,0.813,0.509,0.046,-1398.133,-797.181,-740.418,0,0,0,
,0.807,0.483,0.034,-1278.321,-793.213,-728.272,0,0,0,
,0.801,0.438,0.035,-1180.359,-764.832,-720.276,0,0,0,
,0.802,0.391,0.037,-1130.86,-721.863,-717.408,0,0,0,
,0.817,0.356,0.03,-1120.118,-666.565,-719.483,0,0,0,
,0.841,0.333,0.016,-1128.357,-604.676,-725.647,0,0,0,
,0.865,0.329,-0.002,-1141.419,-553.223,-738.648,0,0,0,
,0.882,0.341,-0.014,-1137.635,-506.958,-758.667,0,0,0,
,0.898,0.361,-0.009,-1102.784,-464.905,-780.457,0,0,0,
,0.901,0.384,-0.002,-1020.02,-418.763,-799.134,0,0,0,
,0.898,0.396,0.007,-896.851,-366.456,-814.454,0,0,0,
,0.907,0.394,0.021,-783.02,-321.351,-821.839,0,0,0,
,0.916,0.371,0.041,-662.11,-264.771,-817.139,0,0,0,
,0.947,0.346,0.053,-604.371,-210.572,-808.777,0,0,0,
,1.009,0.322,0.04,-571.228,-156.25,-798.218,0,0,0,
,1.06,0.311,0.045,-565.979,-130.066,-765.809,0,0,0,
,1.055,0.317,0.061,-584.839,-109.009,-718.567,0,0,0,
,1.006,0.324,0.053,-615.357,-88.623,-665.528,0,0,0,
,0.986,0.296,0.028,-662.781,-81.971,-624.817,0,0,0,
,1.028,0.257,0,-748.23,-78.064,-586.365,0,0,0,
,1.097,0.235,-0.019,-839.478,-83.741,-516.663,0,0,0,
,1.128,0.248,-0.001,-949.158,-104.31,-452.393,0,0,0,
,1.085,0.314,0.045,-1002.808,-89.051,-368.042,0,0,0,
,1.025,0.369,0.063,-986.451,-54.81,-319.458,0,0,0,
,0.976,0.394,0.081,-894.959,-13.367,-299.683,0,0,0,
,0.94,0.406,0.102,-794.556,18.859,-279.664,0,0,0,
,0.923,0.429,0.116,-644.959,54.138,-248.414,0,0,0,
,0.94,0.435,0.112,-511.17,86.731,-229.554,0,0,0,
,0.983,0.408,0.094,-373.475,108.093,-194.031,0,0,0,
,1.024,0.363,0.06,-289.734,110.229,-150.696,0,0,0,
,1.064,0.336,0.036,-233.582,99.304,-96.802,0,0,0,
,1.076,0.31,0.028,-210.389,82.58,-24.292,0,0,0,
,1.057,0.3,0.047,-204.651,67.077,34.729,0,0,0,
,1.022,0.291,0.087,-220.398,76.294,90.026,0,0,0,
,0.98,0.276,0.106,-251.16,103.393,140.258,0,0,0,
,0.929,0.266,0.109,-294.373,129.76,160.827,0,0,0,
,0.881,0.255,0.118,-343.201,148.559,185.791,0,0,0,
,0.835,0.251,0.132,-390.564,173.645,204.895,0,0,0,
,0.803,0.256,0.136,-419.861,192.871,216.186,0,0,0,
,0.786,0.272,0.138,-424.134,207.763,216.797,0,0,0,
,0.765,0.294,0.138,-390.931,209.533,211.975,0,0,0,
,0.743,0.304,0.141,-332.52,207.214,202.88,0,0,0,
,0.725,0.311,0.166,-258.057,198.303,191.101,0,0,0,
,0.721,0.296,0.174,-187.989,201.172,173.339,0,0,0,
,0.727,0.275,0.159,-132.752,201.049,157.959,0,0,0,
,0.747,0.263,0.146,-80.994,178.833,144.165,0,0,0,
,0.765,0.252,0.135,-66.224,148.681,130.676,0,0,0,
,0.78,0.243,0.143,-49.866,104.492,114.685,0,0,0,
,0.797,0.24,0.168,-48.706,73.791,85.205,0,0,0,
,0.83,0.234,0.181,-62.439,51.025,49.987,0,0,0,
,0.88,0.224,0.166,-92.957,35.583,15.869,0,0,0,
,0.927,0.21,0.136,-146.363,8.3,-13.062,0,0,0,
,0.975,0.193,0.109,-234.62,-39.795,-37.598,0,0,0,
,1.01,0.184,0.113,-330.811,-83.374,-51.88,0,0,0,
,1.041,0.189,0.114,-428.711,-109.436,-50.171,0,0,0,
,1.081,0.198,0.109,-520.569,-117.615,-54.261,0,0,0,
,1.148,0.204,0.106,-622.559,-126.648,-64.209,0,0,0,
,1.247,0.206,0.092,-717.652,-122.498,-74.158,0,0,0,
,1.329,0.209,0.033,-786.316,-123.536,-78.675,0,0,0,
,1.366,0.225,0.008,-852.601,-157.288,-79.041,0,0,0,
,1.328,0.258,0.045,-895.386,-184.021,-90.21,0,0,0,
,1.206,0.309,0.13,-891.846,-167.969,-107.178,0,0,0,
,1.108,0.377,0.218,-823.243,-105.53,-132.996,0,0,0,
,1.06,0.408,0.22,-670.899,-30.274,-150.33,0,0,0,
,1.013,0.405,0.178,-479.554,2.258,-123.963,0,0,0,
,0.976,0.386,0.143,-317.749,-0.855,-78.309,0,0,0,
,0.988,0.336,0.121,-195.252,-15.076,-39.307,0,0,0,
,1.045,0.276,0.099,-135.193,-46.326,7.629,0,0,0,
,1.087,0.236,0.067,-96.436,-90.638,102.844,0,0,0,
,1.1,0.222,0.058,-75.562,-146.363,201.538,0,0,0,
,1.087,0.216,0.063,-89.051,-184.51,264.526,0,0,0,
,1.057,0.203,0.079,-115.052,-213.44,305.908,0,0,0,
,1.003,0.191,0.096,-146.18,-223.877,331.543,0,0,0,
,0.92,0.196,0.114,-181.58,-225.22,340.637,0,0,0,
,0.821,0.212,0.128,-210.022,-212.281,341.308,0,0,0,
,0.737,0.216,0.121,-232.422,-191.04,324.035,0,0,0,
,0.662,0.205,0.116,-253.235,-169.007,294.067,0,0,0,
,0.62,0.198,0.107,-272.706,-147.95,251.77,0,0,0,
,0.604,0.202,0.094,-287.171,-129.151,242.492,0,0,0,
,0.61,0.207,0.077,-291.687,-123.352,210.815,0,0,0,
,0.618,0.211,0.076,-283.265,-122.193,176.208,0,0,0,
,0.619,0.206,0.069,-264.954,-120.423,131.164,0,0,0,
,0.628,0.208,0.069,-245.606,-116.456,70.678,0,0,0,
,0.647,0.215,0.083,-226.685,-108.765,1.953,0,0,0,
,0.667,0.239,0.09,-207.154,-91.004,-74.952,0,0,0,
,0.668,0.252,0.078,-181.763,-76.294,-152.832,0,0,0,
,0.669,0.252,0.076,-155.823,-67.566,-241.883,0,0,0,
,0.675,0.245,0.098,-136.963,-36.805,-319.764,0,0,0,
,0.704,0.25,0.12,-138.245,5.432,-395.02,0,0,0,
,0.756,0.271,0.174,-161.622,54.87,-463.196,0,0,0,
,0.812,0.295,0.228,-179.383,123.169,-518.067,0,0,0,
,0.861,0.33,0.252,-183.899,191.894,-548.096,0,0,0,
,0.914,0.363,0.255,-156.983,239.868,-574.036,0,0,0,
,0.967,0.377,0.236,-119.568,266.479,-595.704,0,0,0,
,1.03,0.365,0.195,-81.482,260.864,-607.3,0,0,0,
,1.153,0.354,0.148,-50.11,230.835,-621.277,0,0,0,
,1.317,0.334,0.077,-54.078,193.969,-623.902,0,0,0,
,1.468,0.317,0.051,-67.688,92.956,-579.224,0,0,0,
,1.516,0.325,0.089,-94.3,-12.513,-479.676,0,0,0,
,1.415,0.353,0.127,-135.071,-61.89,-360.413,0,0,0,
,1.272,0.362,0.154,-172.913,-87.525,-255.616,0,0,0,
,1.165,0.35,0.156,-203.431,-78.675,-150.147,0,0,0,
,1.04,0.342,0.16,-177.979,-78.003,-3.968,0,0,0,
,0.947,0.338,0.169,-87.647,-51.941,129.821,0,0,0,
,0.954,0.324,0.152,59.814,-7.386,228.881,0,0,0,
,1.036,0.3,0.092,162.414,-0.794,328.613,0,0,0,
,1.062,0.268,0.064,209.289,-62.561,413.452,0,0,0,
,1.051,0.24,0.08,197.387,-115.967,482.177,0,0,0,
,1.048,0.189,0.077,132.385,-132.813,530.944,0,0,0,
,1.058,0.203,0.047,33.203,-147.339,537.78,0,0,0,
,1.023,0.206,0.032,-51.514,-182.923,573.242,0,0,0,
,0.968,0.214,0.05,-107.422,-193.116,603.332,0,0,0,
,0.898,0.218,0.067,-121.155,-171.814,625.061,0,0,0,
,0.845,0.217,0.031,-114.624,-140.87,633.667,0,0,0,
,0.798,0.214,0.065,-103.516,-116.456,631.469,0,0,0,
,0.745,0.213,0.067,-93.262,-93.384,617.92,0,0,0,
,0.698,0.227,0.074,-73.426,-70.74,588.501,0,0,0,
,0.665,0.242,0.084,-42.115,-42.786,540.222,0,0,0,
,0.661,0.252,0.11,10.986,-16.358,486.206,0,0,0,
,0.672,0.241,0.127,56.701,16.052,418.64,0,0,0,
,0.69,0.227,0.128,87.646,33.142,358.52,0,0,0,
,0.702,0.224,0.114,110.412,36.621,307.556,0,0,0,
,0.705,0.227,0.11,133.85,22.094,252.868,0,0,0,
,0.721,0.231,0.13,160.217,1.953,185.73,0,0,0,
,0.792,0.239,0.17,202.453,-18.921,30.212,0,0,0,
,0.835,0.232,0.159,208.007,-35.706,-50.293,0,0,0,
,0.881,0.209,0.154,187.805,-63.599,-134.156,0,0,0,
,0.922,0.184,0.134,122.436,-92.347,-204.285,0,0,0,
,0.947,0.163,0.124,19.653,-131.348,-269.165,0,0,0,
,0.95,0.166,0.167,-242.432,-162.964,-368.164,0,0,0,
,0.983,0.183,0.183,-364.991,-143.494,-437.012,0,0,0,
,1.069,0.204,0.176,-470.032,-113.282,-494.568,0,0,0,
,1.174,0.223,0.128,-547.547,-92.225,-568.36,0,0,0,
,1.258,0.241,0.089,-604.371,-106.934,-629.273,0,0,0,
,1.267,0.255,0.096,-656.556,-133.423,-676.392,0,0,0,
,1.164,0.286,0.129,-699.28,-137.94,-690.674,0,0,0,
,1.066,0.335,0.175,-688.172,-114.014,-713.746,0,0,0,
,1.049,0.367,0.195,-627.076,-62.012,-739.258,0,0,0,
,1.084,0.393,0.184,-511.902,-18.189,-730.164,0,0,0,
,1.096,0.396,0.177,-386.414,0.366,-688.599,0,0,0,
,1.088,0.377,0.19,-271.79,11.23,-628.54,0,0,0,
,1.079,0.329,0.193,-212.159,30.7,-548.706,0,0,0,
,1.061,0.281,0.158,-205.079,27.893,-459.9,0,0,0,
,1.044,0.248,0.119,-239.258,0.671,-364.258,0,0,0,
,1.033,0.231,0.086,-280.701,-40.894,-270.02,0,0,0,
,0.988,0.237,0.083,-337.525,-109.498,-179.81,0,0,0,
,0.896,0.249,0.102,-386.048,-162.476,-94.117,0,0,0,
,0.803,0.236,0.101,-432.19,-192.078,-41.199,0,0,0,
,0.65,0.221,0.097,-618.164,-176.88,16.418,0,0,0,
,0.655,0.252,0.082,-668.885,-155.518,1.037,0,0,0,
,0.669,0.278,0.07,-680.97,-144.165,-30.396,0,0,0,
,0.678,0.308,0.071,-643.433,-130.738,-66.59,0,0,0,
,0.67,0.323,0.074,-563.111,-112.305,-106.385,0,0,0,
,0.659,0.335,0.064,-459.168,-83.252,-153.748,0,0,0,
,0.674,0.336,0.056,-351.441,-55.726,-213.99,0,0,0,
,0.739,0.337,0.072,-134.644,-5.616,-300.66,0,0,0,
,0.744,0.322,0.095,-64.393,31.433,-319.642,0,0,0,
,0.75,0.302,0.122,-37.476,78.247,-338.562,0,0,0,
,0.781,0.306,0.141,-34.852,132.446,-346.375,0,0,0,
,0.835,0.326,0.154,-34.18,175.842,-345.704,0,0,0,
,0.903,0.347,0.176,-22.217,207.214,-335.572,0,0,0,
,0.918,0.364,0.186,2.929,238.952,-321.351,0,0,0,
,1.001,0.368,0.179,37.109,263.305,-308.594,0,0,0,
,1.112,0.36,0.165,75.195,281.86,-300.66,0,0,0,
,1.244,0.347,0.156,95.896,11219.068,13458.965,0,0,0,
,1.422,0.346,0.223,100.341,264.282,-185.486,0,0,0,
,1.45,0.355,0.247,107.116,265.564,-128.479,0,0,0,
,1.382,0.367,0.244,125.427,249.878,-57.496,0,0,0,
,1.27,0.349,0.202,170.959,212.585,25.085,0,0,0,
,1.162,0.34,0.168,238.159,148.315,123.718,0,0,0,
,0.955,0.281,0.161,721.557,-10.315,295.959,0,0,0,
,1.016,0.244,0.113,809.265,-75.135,315.551,0,0,0,
,1.042,0.208,0.096,844.421,-174.317,335.266,0,0,0,
,1.031,0.19,0.099,818.725,-253.785,352.234,0,0,0,
,1.049,0.199,0.115,743.286,-288.941,347.107,0,0,0,
,1.085,0.216,0.114,628.418,-301.697,331.604,0,0,0,
,1.09,0.239,0.126,512.512,-310.852,337.402,0,0,0,
,1.042,0.268,0.141,373.657,-290.589,372.802,0,0,0,
,0.985,0.281,0.119,265.075,-259.888,417.846,0,0,0,
,0.938,0.29,0.07,168.457,-233.155,480.285,0,0,0,
,0.905,0.294,0.026,116.394,-241.456,559.692,0,0,0,
,0.868,0.297,0.007,112.121,-262.818,650.329,0,0,0,
,0.837,0.292,0.007,145.691,-276.978,732.177,0,0,0,
,0.832,0.285,0.011,167.053,-283.448,802.856,0,0,0,
,0.842,0.277,0.009,159.179,-284.424,852.539,0,0,0,
,0.836,0.258,0.005,132.202,-280.884,881.042,0,0,0,
,0.826,0.232,-0.001,91.369,-277.527,898.437,0,0,0,
,0.806,0.218,0.015,44.86,-270.447,900.695,0,0,0,
,0.777,0.224,0.039,-0.123,-256.714,882.446,0,0,0,
,0.757,0.242,0.05,-31.434,-219.605,840.576,0,0,0,
,0.764,0.261,0.054,-34.913,-186.219,763.488,0,0,0,
,0.782,0.272,0.066,-25.94,-154.908,679.138,0,0,0,
,0.774,0.273,0.08,-8.606,-125.794,579.528,0,0,0,
,0.759,0.266,0.08,11.23,-95.765,479.858,0,0,0,
,0.753,0.251,0.084,25.512,-75.806,378.967,0,0,0,
,0.756,0.242,0.08,40.039,-61.585,278.381,0,0,0,
,0.767,0.234,0.084,51.147,-52.918,185.547,0,0,0,
,1.078,0.249,0.185,71.838,199.768,-513.306,0,0,0,
,1.032,0.274,0.283,94.726,301.147,-637.146,0,0,0,
,1.034,0.307,0.361,149.231,438.964,-770.508,0,0,0,
,1.019,0.327,0.386,212.585,552.673,-853.821,0,0,0,
,0.948,0.275,0.375,322.692,677.063,-939.576,0,0,0,
,1.066,0.153,0.259,260.803,653.503,-962.952,0,0,0,
,1.133,0.07,0.181,140.197,556.701,-916.321,0,0,0,
,1.165,0.007,0.117,-67.627,386.474,-808.045,0,0,0,
,1.158,-0.025,0.081,-311.951,208.496,-700.379,0,0,0,
,1.123,-0.004,0.072,-576.355,15.197,-602.539,0,0,0,
,1.067,0.051,0.091,-810.852,-126.404,-513.489,0,0,0,
,0.995,0.076,0.108,-1035.645,-216.919,-470.398,0,0,0,
,0.926,0.107,0.136,-1248.78,-264.344,-435.425,0,0,0,
,0.862,0.161,0.148,-1429.383,-265.076,-408.753,0,0,0,
,0.809,0.225,0.145,-1569.703,-242.432,-402.588,0,0,0,
,0.789,0.294,0.117,-1635.926,-214.478,-423.34,0,0,0,
,0.79,0.348,0.097,-1612.183,-186.585,-452.698,0,0,0,
,0.798,0.393,0.075,-1495.484,-175.843,-475.342,0,0,0,
,0.802,0.422,0.055,-1289.856,-168.824,-490.479,0,0,0,
,0.806,0.433,0.04,-1037.232,-171.692,-505.616,0,0,0,
,0.813,0.436,0.039,-798.157,-173.096,-518.128,0,0,0,
,0.82,0.426,0.038,-566.712,-173.157,-534.18,0,0,0,
,0.838,0.407,0.055,-383.606,-163.514,-552.247,0,0,0,
,0.851,0.38,0.076,-250.306,-141.968,-558.838,0,0,0,
,0.857,0.335,0.084,-192.933,-109.192,-558.899,0,0,0,
,0.873,0.313,0.102,-191.712,-72.266,-550.538,0,0,0,
,0.888,0.315,0.117,-233.826,-30.884,-525.635,0,0,0,
,0.894,0.325,0.13,-280.762,10.498,-482.117,0,0,0,
,0.9,0.34,0.132,-326.783,47.546,-436.036,0,0,0,
,0.93,0.353,0.12,-350.831,85.022,-383.24,0,0,0,
,0.953,0.364,0.109,-351.014,98.449,-320.557,0,0,0,
,0.997,0.367,0.1,-323.365,120.666,-258.484,0,0,0,
,1.114,0.374,0.088,-288.147,143.921,-220.704,0,0,0,
,1.294,0.383,0.091,-250.977,150.817,-184.815,0,0,0,
,1.377,0.407,0.118,-215.516,130.798,-98.267,0,0,0,
,1.234,0.419,0.156,-170.594,101.684,34.179,0,0,0,
,1.054,0.426,0.171,-119.629,103.393,127.258,0,0,0,
,0.959,0.384,0.133,-75.562,111.755,205.139,0,0,0,
,0.937,0.342,0.111,-16.785,99.609,318.969,0,0,0,
,0.989,0.323,0.109,47.485,99.487,451.355,0,0,0,
,1.115,0.319,0.106,116.76,95.52,578.918,0,0,0,
,1.244,0.301,0.091,181.518,73.303,736.145,0,0,0,
,1.316,0.267,0.07,242.675,43.335,902.649,0,0,0,
,1.363,0.224,0.051,284.729,4.211,1015.38,0,0,0,
,1.378,0.202,0.048,301.269,-31.311,1099.304,0,0,0,
,1.354,0.191,0.072,302.734,-72.388,1166.87,0,0,0,
,1.283,0.199,0.115,312.317,-78.003,1214.721,0,0,0,
,1.191,0.201,0.152,348.144,-51.819,1237.915,0,0,0,
,1.099,0.186,0.181,416.381,-18.86,1241.333,0,0,0,
,1.023,0.146,0.169,489.318,14.282,1228.088,0,0,0,
,0.986,0.107,0.183,516.418,20.08,1178.772,0,0,0,
,0.962,0.1,0.141,449.34,26.489,1121.154,0,0,0,
,0.944,0.086,0.118,338.317,-18.738,1052.673,0,0,0,
,0.902,0.061,0.117,227.05,-72.205,986.145,0,0,0,
,0.859,0.032,0.131,116.394,-121.888,918.151,0,0,0,
,0.825,0.008,0.143,10.131,-154.297,839.538,0,0,0,
,0.792,0.03,0.127,-118.042,-182.923,751.403,0,0,0,
,0.756,0.016,0.149,-234.131,-220.948,664.306,0,0,0,
,0.742,0.041,0.154,-304.139,-237.061,528.564,0,0,0,
,0.731,0.06,0.142,-345.52,-257.447,397.888,0,0,0,
,0.727,0.084,0.159,-362.793,-290.039,240.905,0,0,0,
,0.729,0.095,0.151,-367.92,-299.378,84.228,0,0,0,
,0.73,0.107,0.141,-364.136,-329.346,-84.107,0,0,0,
,0.712,0.115,0.15,-360.291,-361.634,-240.601,0,0,0,
,0.674,0.12,0.169,-356.324,-386.048,-370.301,0,0,0,
,0.656,0.112,0.177,-371.155,-391.968,-501.282,0,0,0,
,0.668,0.103,0.164,-429.566,-396.729,-610.047,0,0,0,
,0.768,0.087,0.119,-530.945,-400.635,-760.56,0,0,0,
,0.95,0.071,0.032,-660.096,-426.392,-938.843,0,0,0,
,1.144,0.086,-0.042,-839.539,-500.306,-1098.816,0,0,0,
,1.264,0.126,-0.058,-1008.301,-575.745,-1204.834,0,0,0,
,1.392,0.2,-0.008,-1134.034,-616.761,-1316.407,0,0,0,
,1.5,0.318,0.032,-1179.871,-593.873,-1410.828,0,0,0,
,1.488,0.414,0.064,-1136.048,-570.862,-1458.985,0,0,0,
,1.408,0.464,0.115,-1001.221,-521.119,-1507.447,0,0,0,
,1.354,0.41,0.077,-846.192,-444.886,-1520.569,0,0,0,
,1.328,0.308,0.063,-695.069,-393.189,-1478.272,0,0,0,
,1.319,0.22,0.042,-641.968,-333.313,-1379.7,0,0,0,
,1.319,0.178,-0.03,-686.829,-302.796,-1284.058,0,0,0,
,1.283,0.179,-0.029,-788.88,-301.148,-1158.692,0,0,0,
,1.235,0.217,-0.036,-910.706,-317.078,-1049.317,0,0,0,
,1.179,0.236,-0.039,-1025.086,-334.656,-965.455,0,0,0,
,1.105,0.237,-0.043,-1132.508,-353.455,-879.395,0,0,0,
,1.016,0.224,-0.05,-1258.24,-365.235,-799.012,0,0,0,
,0.937,0.215,-0.076,-1389.466,-368.653,-718.262,0,0,0,
,0.878,0.208,-0.112,-1541.199,-377.137,-642.395,0,0,0,
,0.838,0.215,-0.138,-1692.078,-389.161,-576.661,0,0,0,
,0.819,0.252,-0.147,-1798.096,-390.503,-517.395,0,0,0,
,0.815,0.307,-0.149,-1850.159,-380.494,-479.737,0,0,0,
,0.819,0.356,-0.15,-1825.379,-363.038,-457.764,0,0,0,
,0.826,0.388,-0.161,-1719.727,-336.853,-453.675,0,0,0,
,0.831,0.411,-0.172,-1549.561,-308.655,-453.919,0,0,0,
,0.837,0.434,-0.174,-1358.033,-278.748,-461.548,0,0,0,
,0.832,0.455,-0.164,-1127.686,-244.08,-490.113,0,0,0,
,0.819,0.468,-0.129,-907.105,-202.82,-524.414,0,0,0,
,0.807,0.46,-0.096,-681.153,-124.878,-552.552,0,0,0,
,0.809,0.419,-0.068,-532.593,-32.227,-575.562,0,0,0,
,0.817,0.377,-0.033,-464.844,55.053,-580.262,0,0,0,
,0.819,0.364,0.018,-454.834,157.531,-554.688,0,0,0,
,0.822,0.372,0.088,-468.934,255.737,-521.607,0,0,0,
,0.824,0.381,0.141,-487.671,370.605,-481.324,0,0,0,
,0.874,0.361,0.196,-490.845,465.393,-436.829,0,0,0,
,0.886,0.329,0.19,-448.304,516.845,-380.616,0,0,0,
,0.981,0.374,0.18,-402.161,519.47,-288.575,0,0,0,
,1.083,0.486,0.223,-408.814,461.364,-232.361,0,0,0,
,1.15,0.588,0.304,-383.667,381.836,-224.732,0,0,0,
,1.215,0.617,0.396,-246.033,320.129,-231.873,0,0,0,
,1.269,0.64,0.493,-61.585,272.766,-189.087,0,0,0,
,1.268,0.657,0.667,89.965,245.483,-118.103,0,0,0,
,1.23,0.63,0.837,224.548,295.166,-34.058,0,0,0,
,1.2,0.517,0.875,320.373,347.412,104.065,0,0,0,
,1.125,0.394,0.814,306.091,348.693,251.403,0,0,0,
,1.023,0.318,0.667,233.825,279.602,378.601,0,0,0,
,0.987,0.317,0.503,168.64,140.808,506.225,0,0,0,
,0.98,0.344,0.392,109.985,-22.339,595.092,0,0,0,
,0.963,0.373,0.355,118.103,-202.21,631.591,0,0,0,
,0.974,0.381,0.31,214.477,-290.772,660.766,0,0,0,
,1.04,0.362,0.244,348.51,-373.23,695.251,0,0,0,
,1.103,0.317,0.206,435.913,-426.148,725.952,0,0,0,
,1.172,0.261,0.187,453.247,-442.444,765.319,0,0,0,
,1.242,0.198,0.168,399.292,-425.965,817.077,0,0,0,
,1.252,0.137,0.161,249.755,-392.456,880.432,0,0,0,
,1.183,0.1,0.141,12.512,-334.778,957.214,0,0,0,
,1.116,0.119,0.088,-247.01,-273.316,1017.395,0,0,0,
,1.082,0.155,0.052,-411.744,-223.755,1060.73,0,0,0,
,1.033,0.175,0.037,-461.304,-182.618,1098.755,0,0,0,
,0.982,0.195,0.041,-441.773,-135.498,1125.732,0,0,0,
,0.958,0.21,0.012,-396.18,-86.487,1125.183,0,0,0,
,0.919,0.207,-0.007,-336.731,-72.876,1111.389,0,0,0,
,0.865,0.207,0.021,-279.419,-55.664,1074.34,0,0,0,
,0.83,0.213,0.051,-211.792,-29.786,1011.535,0,0,0,
,0.806,0.21,0.074,-133.728,9.338,921.569,0,0,0,
,0.782,0.192,0.074,-66.834,37.475,842.529,0,0,0,
,0.754,0.171,0.082,-14.466,49.804,747.009,0,0,0,
,0.726,0.167,0.089,23.01,56.823,638.794,0,0,0,
,0.693,0.166,0.084,56.64,52.49,525.94,0,0,0,
,0.676,0.165,0.102,81.176,39.733,382.446,0,0,0,
,0.675,0.165,0.127,108.215,39.856,235.962,0,0,0,
,0.742,0.133,0.217,114.257,78.735,-530.945,0,0,0,
,0.776,0.128,0.231,61.523,91.613,-671.021,0,0,0,
,0.814,0.114,0.23,-13.062,109.985,-808.289,0,0,0,
,0.921,0.096,0.22,-116.517,131.591,-961.06,0,0,0,
,1.105,0.083,0.181,-254.578,150.512,-1137.513,0,0,0,
,1.316,0.096,0.154,-425.843,151.184,-1294.739,0,0,0,
,1.48,0.167,0.134,-562.806,147.4,-1417.481,0,0,0,
,1.539,0.246,0.192,-642.884,143.31,-1505.25,0,0,0,
,1.515,0.324,0.302,-634.095,180.175,-1581.971,0,0,0,
,1.438,0.381,0.4,-562.195,240.905,-1610.596,0,0,0,
,1.307,0.404,0.426,-465.76,307.129,-1597.046,0,0,0,
,1.174,0.37,0.368,-410.889,358.032,-1551.941,0,0,0,
,1.144,0.272,0.27,-377.381,348.999,-1480.347,0,0,0,
,1.172,0.16,0.139,-400.208,294.86,-1330.689,0,0,0,
,1.21,0.072,0.016,-502.686,169.616,-1110.108,0,0,0,
,1.229,0.039,-0.052,-667.237,-29.786,-851.136,0,0,0,
,1.211,0.067,-0.087,-823.487,-231.08,-566.04,0,0,0,
,1.185,0.104,-0.077,-963.562,-385.132,-373.291,0,0,0,
,1.139,0.111,-0.06,-1127.32,-496.582,-185.12,0,0,0,
,1.066,0.121,-0.038,-1324.219,-556.824,-43.824,0,0,0,
,0.968,0.145,-0.011,-1541.26,-575.684,75.744,0,0,0,
,0.873,0.218,-0.003,-1731.751,-543.824,169.006,0,0,0,
,0.791,0.256,-0.01,-1876.526,-493.042,211.181,0,0,0,
,0.734,0.323,-0.026,-1920.533,-437.5,213.623,0,0,0,
,0.704,0.367,-0.033,-1886.963,-369.08,173.584,0,0,0,
,0.682,0.393,-0.043,-1755.311,-309.876,118.53,0,0,0,
,0.664,0.398,-0.033,-1571.534,-261.353,67.077,0,0,0,
,0.66,0.4,-0.019,-1318.482,-206.238,14.221,0,0,0,
,0.672,0.401,-0.008,-1063.477,-159.18,-43.58,0,0,0,
,0.703,0.395,0,-797.425,-112.488,-100.159,0,0,0,
,0.731,0.377,0.009,-586.243,-74.891,-164.246,0,0,0,
,0.755,0.344,0.036,-425.232,-44.983,-224.183,0,0,0,
,0.776,0.333,0.088,-313.599,-0.611,-273.682,0,0,0,
,0.781,0.345,0.128,-232.056,57.128,-311.89,0,0,0,
,0.788,0.349,0.16,-142.701,118.286,-348.572,0,0,0,
,0.802,0.346,0.2,-70.618,182.678,-374.512,0,0,0,
,0.833,0.341,0.239,-4.517,247.558,-384.095,0,0,0,
,0.861,0.345,0.297,42.968,307.495,-375.184,0,0,0,
,0.882,0.348,0.365,87.768,369.629,-356.934,0,0,0,
,0.9,0.343,0.423,130.798,438.354,-321.228,0,0,0,
,0.909,0.323,0.462,152.16,488.159,-277.466,0,0,0,
,0.924,0.286,0.47,140.747,518.127,-236.268,0,0,0,
,0.968,0.237,0.45,73.303,525.268,-207.703,0,0,0,
,1.04,0.206,0.395,-54.261,500,-194.153,0,0,0,
,1.145,0.199,0.325,-207.093,414.917,-186.402,0,0,0,
,1.274,0.233,0.314,-341.614,280.151,-173.218,0,0,0,
,1.335,0.308,0.33,-400.208,108.642,-134.4,0,0,0,
,1.294,0.388,0.353,-362.915,-25.879,-55.42,0,0,0,
,1.207,0.41,0.311,-246.155,-118.287,-3.174,0,0,0,
,1.101,0.375,0.243,-80.201,-227.234,78.186,0,0,0,
,0.989,0.314,0.219,46.936,-322.876,194.213,0,0,0,
,0.903,0.262,0.226,147.583,-373.719,317.688,0,0,0,
,0.898,0.225,0.23,186.706,-377.198,407.776,0,0,0,
,0.98,0.2,0.216,139.16,-370.118,486.572,0,0,0,
,1.067,0.182,0.202,-7.019,-383.118,572.265,0,0,0,
,1.101,0.195,0.188,-204.895,-393.067,651.001,0,0,0,
,1.13,0.255,0.156,-363.343,-372.559,723.083,0,0,0,
,1.186,0.305,0.103,-440.125,-359.742,756.286,0,0,0,
,1.203,0.329,0.071,-420.96,-366.211,800.293,0,0,0,
,1.098,0.342,0.045,-380.372,-375.428,855.896,0,0,0,
,1.007,0.341,0.046,-346.314,-376.282,876.22,0,0,0,
,0.925,0.351,0.059,-342.347,-345.337,876.037,0,0,0,
,0.865,0.353,0.08,-342.896,-310.486,874.572,0,0,0,
,0.815,0.357,0.115,-340.638,-251.526,866.577,0,0,0,
,0.77,0.366,0.139,-325.745,-180.298,852.966,0,0,0,
,0.726,0.365,0.136,-295.899,-103.516,835.998,0,0,0,
,0.691,0.371,0.133,-268.067,-45.716,809.204,0,0,0,
,0.672,0.373,0.13,-267.884,3.295,779.235,0,0,0,
,0.655,0.366,0.131,-279.541,42.419,738.403,0,0,0,
,0.648,0.377,0.13,-299.561,72.387,702.819,0,0,0,
,0.636,0.383,0.129,-298.706,99.121,659.179,0,0,0,
,0.624,0.395,0.141,-273.804,108.459,607.727,0,0,0,
,0.621,0.406,0.16,-220.337,119.323,549.438,0,0,0,
,0.623,0.414,0.173,-157.776,130.188,468.139,0,0,0,
,0.628,0.412,0.165,-97.413,127.807,376.037,0,0,0,
,0.639,0.402,0.154,-63.355,108.825,266.723,0,0,0,
,0.654,0.394,0.158,-64.27,79.773,153.93,0,0,0,
,0.682,0.392,0.169,-86.06,46.691,41.381,0,0,0,
,0.699,0.385,0.182,-101.136,22.522,-59.632,0,0,0,
,0.704,0.388,0.202,-106.507,1.098,-144.043,0,0,0,
,0.721,0.393,0.216,-101.136,-9.095,-234.62,0,0,0,
,0.744,0.394,0.231,-91.248,-9.766,-322.51,0,0,0,
,0.786,0.373,0.225,-79.224,-15.442,-423.279,0,0,0,
,0.868,0.342,0.205,-66.285,-14.71,-551.941,0,0,0,
,0.988,0.304,0.151,-73.243,-29.908,-684.082,0,0,0,
,1.103,0.277,0.101,-106.141,-82.703,-817.322,0,0,0,
,1.166,0.282,0.07,-174.988,-142.701,-925.049,0,0,0,
,1.174,0.319,0.098,-234.559,-209.595,-1022.278,0,0,0,
,1.153,0.401,0.17,-236.084,-221.741,-1113.892,0,0,0,
,1.116,0.407,0.231,-164.307,-181.885,-1191.529,0,0,0,
,1.088,0.405,0.256,-72.327,-116.456,-1232.422,0,0,0,
,1.104,0.351,0.218,5.188,-40.284,-1246.644,0,0,0,
,1.147,0.252,0.171,-12.574,-17.456,-1223.084,0,0,0,
,1.176,0.182,0.147,-88.623,-32.166,-1154.297,0,0,0,
,1.201,0.144,0.087,-258.545,-70.13,-1064.148,0,0,0,
,1.226,0.124,0.014,-449.28,-142.09,-977.234,0,0,0,
,1.238,0.129,-0.009,-652.344,-246.644,-890.992,0,0,0,
,1.225,0.168,-0.015,-820.862,-338.44,-803.589,0,0,0,
,1.163,0.196,0.002,-969.91,-393.799,-734.742,0,0,0,
,1.065,0.205,0.021,-1095.704,-413.147,-671.387,0,0,0,
,0.976,0.207,0.018,-1233.399,-403.504,-614.93,0,0,0,
,0.902,0.199,-0.006,-1379.578,-390.564,-571.473,0,0,0,
,0.854,0.198,-0.043,-1514.161,-381.165,-532.593,0,0,0,
,0.83,0.214,-0.06,-1647.522,-380.066,-498.597,0,0,0,
,0.811,0.248,-0.084,-1736.634,-373.902,-473.023,0,0,0,
,0.805,0.289,-0.102,-1772.156,-366.394,-457.642,0,0,0,
,0.8,0.334,-0.12,-1742.737,-362.061,-444.214,0,0,0,
,0.796,0.389,-0.118,-1643.555,-356.08,-449.891,0,0,0,
,0.805,0.435,-0.111,-1460.083,-339.295,-467.53,0,0,0,
,0.819,0.472,-0.099,-1231.141,-310.791,-493.348,0,0,0,
,0.806,0.486,-0.088,-945.191,-278.199,-512.757,0,0,0,
,0.783,0.481,-0.072,-655.579,-226.258,-531.983,0,0,0,
,0.771,0.466,-0.038,-411.011,-165.528,-552.308,0,0,0,
,0.776,0.429,0.015,-235.23,-92.041,-566.773,0,0,0,
,0.791,0.414,0.081,-132.447,1.281,-572.388,0,0,0,
,0.817,0.43,0.148,-62.073,111.755,-552.674,0,0,0,
,0.823,0.452,0.206,-10.193,221.13,-518.677,0,0,0,
,0.836,0.461,0.238,28.442,309.265,-486.817,0,0,0,
,0.875,0.445,0.254,37.231,390.747,-443.543,0,0,0,
,0.955,0.427,0.247,28.625,452.392,-401.185,0,0,0,
,1.076,0.421,0.21,3.051,484.924,-347.596,0,0,0,
,1.201,0.431,0.175,-26.612,466.613,-266.541,0,0,0,
,1.267,0.436,0.143,-46.875,399.231,-174.073,0,0,0,
,1.231,0.44,0.137,-50.293,279.663,-44.861,0,0,0,
,1.134,0.437,0.167,-33.02,162.048,74.462,0,0,0,
,1.073,0.429,0.194,20.752,114.624,165.466,0,0,0,
,1.085,0.428,0.204,96.557,85.022,247.436,0,0,0,
,1.093,0.448,0.22,205.383,29.968,354.736,0,0,0,
,1.08,0.465,0.247,333.923,12.329,425.232,0,0,0,
,1.12,0.468,0.229,520.935,20.08,462.097,0,0,0,
,1.197,0.458,0.186,720.092,4.089,499.145,0,0,0,
,1.269,0.423,0.136,950.988,-44.129,539.306,0,0,0,
,1.315,0.37,0.073,1136.535,-110.352,585.022,0,0,0,
,1.372,0.305,0.022,1279.419,-182.007,606.628,0,0,0,
,1.393,0.222,-0.003,1314.758,-291.321,637.451,0,0,0,
,1.335,0.144,0.025,1220.703,-391.541,691.65,0,0,0,
,1.176,0.076,0.082,953.735,-446.595,770.63,0,0,0,
,1.035,0.045,0.117,583.496,-424.988,838.195,0,0,0,
,0.937,0.055,0.122,189.697,-379.761,914.672,0,0,0,
,0.879,0.069,0.114,-147.278,-325.684,994.567,0,0,0,
,0.832,0.089,0.101,-456.177,-252.869,1071.045,0,0,0,
,0.802,0.133,0.075,-673.706,-174.866,1158.203,0,0,0,
,0.78,0.188,0.03,-824.158,-104.248,1227.722,0,0,0,
,0.774,0.251,-0.012,-888.245,-57.007,1271.179,0,0,0,
,0.764,0.3,-0.041,-864.014,-26.673,1277.038,0,0,0,
,0.759,0.327,-0.058,-762.757,-4.09,1252.075,0,0,0,
,0.768,0.336,-0.068,-624.024,9.704,1203.613,0,0,0,
,0.791,0.341,-0.081,-452.515,17.028,1134.094,0,0,0,
,0.829,0.34,-0.09,-291.077,5.493,1044.616,0,0,0,
,0.842,0.333,-0.082,-117.554,-6.836,949.89,0,0,0,
,0.839,0.315,-0.075,35.827,-19.104,821.899,0,0,0,
,0.829,0.283,-0.056,136.291,-26.49,678.344,0,0,0,
,0.802,0.249,-0.037,173.278,-14.527,553.65,0,0,0,
,0.766,0.238,-0.011,164.917,8.606,406.433,0,0,0,
,0.74,0.229,-0.007,137.573,51.147,272.888,0,0,0,
,0.757,0.21,-0.023,111.999,88.623,115.295,0,0,0,
,0.83,0.206,-0.043,86.12,117.065,-22.095,0,0,0,
,0.935,0.211,-0.059,63.72,129.272,-182.373,0,0,0,
,1.001,0.231,-0.027,54.443,141.479,-333.435,0,0,0,
,0.995,0.276,0.035,73.852,175.476,-482.911,0,0,0,
,0.947,0.343,0.152,143.798,243.347,-652.161,0,0,0,
,0.91,0.387,0.24,265.808,363.098,-817.322,0,0,0,
,0.889,0.415,0.369,434.265,477.172,-977.784,0,0,0,
,0.847,0.395,0.394,615.6,584.716,-1070.984,0,0,0,
,0.815,0.335,0.355,772.155,639.648,-1123.475,0,0,0,
,0.859,0.272,0.34,817.26,637.451,-1158.631,0,0,0,
,0.997,0.225,0.365,724.06,592.285,-1196.778,0,0,0,
,1.133,0.201,0.396,533.752,514.221,-1199.219,0,0,0,
,1.213,0.198,0.44,319.213,403.442,-1153.687,0,0,0,
,1.231,0.183,0.448,114.929,309.692,-1102.601,0,0,0,
,1.26,0.143,0.415,-116.822,213.134,-1058.167,0,0,0,
,1.275,0.102,0.362,-364.685,106.567,-976.075,0,0,0,
,1.219,0.119,0.341,-634.949,-5.555,-861.817,0,0,0,
,1.121,0.147,0.33,-906.8,-100.831,-772.522,0,0,0,
,1.044,0.183,0.288,-1171.387,-153.626,-708.741,0,0,0,
,1.015,0.24,0.228,-1395.63,-206.849,-650.33,0,0,0,
,1.005,0.322,0.165,-1516.602,-259.949,-600.281,0,0,0,
,0.99,0.43,0.122,-1525.635,-329.285,-544.495,0,0,0,
,0.953,0.516,0.07,-1420.044,-385.193,-487.732,0,0,0,
,0.917,0.56,0.042,-1199.585,-436.402,-448.914,0,0,0,
,0.886,0.569,0.043,-947.693,-461.609,-417.054,0,0,0,
,0.873,0.544,0.05,-690.674,-467.347,-393.677,0,0,0,
,0.869,0.505,0.055,-491.333,-449.83,-370.362,0,0,0,
,0.864,0.463,0.056,-382.081,-421.692,-343.079,0,0,0,
,0.855,0.428,0.055,-342.041,-388.794,-325.013,0,0,0,
,0.836,0.405,0.046,-357.239,-353.394,-304.993,0,0,0,
,0.83,0.402,0.03,-416.81,-329.529,-289.978,0,0,0,
,0.851,0.409,0.001,-509.888,-312.989,-283.02,0,0,0,
,0.883,0.465,-0.033,-560.059,-319.214,-269.471,0,0,0,
,0.906,0.482,-0.071,-587.769,-340.271,-252.503,0,0,0,
,0.936,0.53,-0.101,-570.984,-355.042,-239.014,0,0,0,
,0.992,0.578,-0.138,-508.118,-367.554,-231.324,0,0,0,
,1.117,0.624,-0.182,-420.716,-372.315,-234.375,0,0,0,
,1.29,0.678,-0.212,-248.597,-379.334,-224.61,0,0,0,
,1.389,0.736,-0.191,-5.372,-379.273,-158.57,0,0,0,
,1.298,0.757,-0.118,269.714,-326.355,-38.575,0,0,0,
,1.087,0.724,-0.032,546.753,-211.182,65.429,0,0,0,
,0.962,0.637,-0.001,740.295,-59.082,153.137,0,0,0,
,0.932,0.549,-0.001,875.793,78.735,260.131,0,0,0,
,0.957,0.512,-0.012,956.482,181.701,400.268,0,0,0,
,1.019,0.499,-0.045,1011.84,236.877,532.531,0,0,0,
,1.116,0.498,-0.068,1078.064,257.69,648.437,0,0,0,
,1.195,0.5,-0.084,1149.475,237.06,770.752,0,0,0,
,1.251,0.49,-0.098,1242.37,204.956,869.384,0,0,0,
,1.312,0.444,-0.122,1342.041,158.081,946.96,0,0,0,
,1.386,0.388,-0.142,1447.509,103.515,1003.54,0,0,0,
,1.422,0.304,-0.138,1542.114,29.907,1089.355,0,0,0,
,1.4,0.241,-0.115,1580.505,-36.072,1181.396,0,0,0,
,1.313,0.183,-0.084,1544.006,-81.421,1256.225,0,0,0,
,1.241,0.137,-0.065,1436.889,-110.413,1304.931,0,0,0,
,1.194,0.117,-0.047,1263.977,-130.555,1331.848,0,0,0,
,1.173,0.105,-0.042,1070.861,-133.851,1358.215,0,0,0,
,1.169,0.099,-0.036,854.37,-119.812,1375.488,0,0,0,
,1.156,0.097,-0.042,654.297,-87.83,1398.559,0,0,0,
,1.129,0.11,-0.061,511.169,-54.993,1420.227,0,0,0,
,1.12,0.136,-0.079,424.377,-12.94,1427.368,0,0,0,
,1.107,0.13,-0.103,378.112,21.911,1415.832,0,0,0,
,1.082,0.127,-0.109,361.816,53.344,1400.756,0,0,0,
,1.04,0.135,-0.104,368.225,94.421,1369.934,0,0,0,
,0.998,0.147,-0.097,399.902,140.564,1318.542,0,0,0,
,0.974,0.165,-0.095,455.688,190.185,1239.441,0,0,0,
,0.96,0.155,-0.086,481.689,237.609,1140.503,0,0,0,
,0.945,0.142,-0.097,486.145,283.752,1041.137,0,0,0,
,0.911,0.143,-0.103,465.942,311.279,935.608,0,0,0,
,0.87,0.138,-0.091,437.133,334.838,819.885,0,0,0,
,0.835,0.12,-0.072,388.794,372.375,698.486,0,0,0,
,0.802,0.111,-0.039,322.021,418.945,580.078,0,0,0,
,0.795,0.118,-0.017,250.61,474.914,465.515,0,0,0,
,0.863,0.134,-0.013,191.772,533.508,320.007,0,0,0,
,0.952,0.158,0.017,162.658,596.435,183.105,0,0,0,
,0.981,0.189,0.077,179.077,687.378,60.119,0,0,0,
,0.925,0.208,0.155,227.905,796.02,-37.049,0,0,0,
,0.845,0.238,0.284,339.599,891.967,-138.367,0,0,0,
,0.807,0.278,0.424,518.432,1016.662,-254.029,0,0,0,
,0.803,0.311,0.467,777.343,1146.484,-340.21,0,0,0,
,0.866,0.293,0.409,1029.907,1236.816,-416.199,0,0,0,
,0.972,0.227,0.392,1246.582,1263.427,-462.952,0,0,0,
,1.071,0.19,0.441,1388.549,1255.737,-481.202,0,0,0,
,1.139,0.15,0.462,1411.377,1250.976,-492.676,0,0,0,
,1.174,0.051,0.485,1277.71,1231.75,-513.489,0,0,0,
,1.214,-0.049,0.503,1000.671,1196.655,-534.18,0,0,0,
,1.274,-0.117,0.54,613.586,1141.54,-563.782,0,0,0,
,1.294,-0.154,0.549,187.805,1069.702,-580.323,0,0,0,
,1.24,-0.132,0.544,-170.044,976.013,-572.083,0,0,0,
,1.151,-0.052,0.533,-453.309,861.267,-573.487,0,0,0,
,1.086,0.003,0.522,-607.239,752.014,-608.338,0,0,0,
,1.034,0.055,0.508,-690.125,659.484,-630.86,0,0,0,
,0.998,0.126,0.501,-706.788,573.12,-654.969,0,0,0,
,0.989,0.191,0.513,-677.491,498.596,-691.407,0,0,0,
,0.983,0.243,0.515,-622.01,437.317,-741.822,0,0,0,
,1.001,0.26,0.519,-556.214,397.338,-786.377,0,0,0,
,1.046,0.273,0.515,-540.955,368.408,-814.27,0,0,0,
,1.053,0.296,0.427,-606.507,333.923,-852.173,0,0,0,
,1.062,0.331,0.31,-674.988,240.783,-884.949,0,0,0,
,1.073,0.352,0.179,-679.871,82.214,-883.484,0,0,0,
,1.058,0.392,0.092,-556.397,-99.183,-835.022,0,0,0,
,1.017,0.46,0.058,-304.871,-264.283,-792.481,0,0,0,
,0.997,0.502,0.036,-57.862,-382.813,-770.874,0,0,0,
,0.982,0.524,0.03,182.067,-476.746,-730.225,0,0,0,
,0.958,0.554,0.018,366.211,-523.682,-662.537,0,0,0,
,0.947,0.565,0.039,515.319,-537.415,-605.225,0,0,0,
,0.941,0.532,0.078,606.445,-503.785,-521.424,0,0,0,
,0.929,0.461,0.1,611.999,-444.581,-396.302,0,0,0,
,0.946,0.371,0.103,533.081,-359.436,-275.757,0,0,0,
,1.016,0.281,0.085,412.231,-277.222,-134.278,0,0,0,
,1.107,0.246,0.059,270.691,-208.191,28.076,0,0,0,
,1.188,0.274,0.044,157.714,-150.818,229.492,0,0,0,
,1.26,0.32,0.02,72.143,-98.572,351.196,0,0,0,
,1.306,0.365,-0.016,30.456,-70.557,474.06,0,0,0,
,1.298,0.392,-0.066,54.321,-64.148,569.458,0,0,0,
,1.236,0.402,-0.109,133.728,-80.14,632.751,0,0,0,
,1.119,0.399,-0.125,247.009,-104.676,694.702,0,0,0,
,1.01,0.385,-0.118,403.198,-112.854,734.741,0,0,0,
,0.961,0.356,-0.099,571.838,-101.502,760.192,0,0,0,
,0.972,0.32,-0.088,711.12,-75.806,773.925,0,0,0,
,1.001,0.283,-0.095,835.998,-47.059,800.109,0,0,0,
,1.031,0.261,-0.103,920.471,-30.091,822.021,0,0,0,
,1.069,0.244,-0.128,980.407,-10.621,827.636,0,0,0,
,1.109,0.222,-0.144,1011.718,-12.269,814.941,0,0,0,
,1.111,0.209,-0.124,1014.526,-21.119,804.443,0,0,0,
,1.081,0.218,-0.092,992.492,-10.132,788.513,0,0,0,
,1.043,0.221,-0.083,962.707,16.906,754.15,0,0,0,
,1.016,0.211,-0.108,923.217,38.024,716.919,0,0,0,
,0.982,0.189,-0.118,877.502,35.156,689.88,0,0,0,
,0.946,0.177,-0.104,808.593,26.916,677.185,0,0,0,
,0.937,0.183,-0.092,722.839,27.954,665.283,0,0,0,
,0.946,0.2,-0.085,670.105,18.798,655.273,0,0,0,
,0.98,0.209,-0.094,603.454,8.85,642.761,0,0,0,
,1.01,0.199,-0.131,548.095,-12.574,635.62,0,0,0,
,1.011,0.19,-0.148,482.116,-63.538,640.808,0,0,0,
,0.998,0.194,-0.142,424.743,-97.046,641.845,0,0,0,
,0.992,0.209,-0.13,378.54,-106.69,629.943,0,0,0,
,1.012,0.214,-0.112,338.806,-98.938,614.563,0,0,0,
,1.037,0.204,-0.13,306.823,-69.458,600.647,0,0,0,
,1.027,0.182,-0.16,256.225,-59.449,608.52,0,0,0,
,0.999,0.168,-0.163,194.397,-41.565,616.088,0,0,0,
,0.975,0.163,-0.162,109.13,-17.273,615.112,0,0,0,
,0.953,0.173,-0.132,34.24,28.869,615.356,0,0,0,
,0.932,0.189,-0.111,-15.87,81.543,610.717,0,0,0,
,0.935,0.205,-0.084,-33.448,159.179,593.811,0,0,0,
,0.982,0.214,-0.072,-35.828,236.633,556.64,0,0,0,
,1.081,0.222,-0.072,-17.762,315.857,506.836,0,0,0,
,1.195,0.22,-0.098,15.441,385.07,442.505,0,0,0,
,1.2,0.226,-0.087,63.903,417.968,401.855,0,0,0,
,1.051,0.25,0.01,119.873,461.547,362.121,0,0,0,
,0.913,0.269,0.114,191.833,550.72,273.132,0,0,0,
,0.82,0.279,0.176,285.4,659.118,184.753,0,0,0,
,0.788,0.295,0.244,414.306,741.943,116.516,0,0,0,
,0.801,0.305,0.245,580.322,822.998,58.044,0,0,0,
,0.872,0.299,0.222,731.323,872.009,-13.001,0,0,0,
,0.954,0.284,0.217,854.553,865.356,-77.271,0,0,0,
,1,0.274,0.255,908.935,815.49,-138.855,0,0,0,
,1.01,0.262,0.284,925.72,776.306,-215.271,0,0,0,
,1.038,0.229,0.297,919.922,730.774,-303.345,0,0,0,
,1.088,0.172,0.302,877.136,672.241,-395.447,0,0,0,
,1.097,0.125,0.338,787.597,631.042,-457.337,0,0,0,
,1.025,0.093,0.388,644.897,582.153,-504.761,0,0,0,
,0.932,0.068,0.408,479.614,554.443,-556.031,0,0,0,
,0.861,0.043,0.404,269.897,528.625,-616.944,0,0,0,
,0.817,0.062,0.394,78.247,508.178,-669.495,0,0,0,
,0.813,0.102,0.399,-110.901,480.468,-726.075,0,0,0,
,0.848,0.167,0.403,-247.437,458.618,-806.763,0,0,0,
,0.909,0.247,0.409,-298.096,425.109,-873.352,0,0,0,
,0.965,0.328,0.395,-272.339,386.474,-934.937,0,0,0,
,1.003,0.388,0.37,-185.364,336.425,-984.62,0,0,0,
,1.026,0.43,0.328,-71.045,282.653,-1021.302,0,0,0,
,1.039,0.435,0.25,22.094,216.858,-1050.354,0,0,0,
,1.055,0.427,0.168,104.126,115.112,-1059.144,0,0,0,
,1.076,0.428,0.097,186.584,-13.245,-1025.086,0,0,0,
,1.086,0.451,0.062,303.405,-139.649,-945.008,0,0,0,
,1.073,0.511,0.055,459.411,-250.123,-833.13,0,0,0,
,1.049,0.534,0.066,610.656,-326.477,-720.215,0,0,0,
,1.021,0.504,0.068,730.713,-359.498,-586.792,0,0,0,
,0.988,0.45,0.054,788.33,-361.878,-428.894,0,0,0,
,0.965,0.375,0.04,778.747,-355.347,-267.945,0,0,0,
,0.953,0.29,0.037,712.036,-347.229,-91.858,0,0,0,
,0.95,0.236,0.045,614.685,-323.792,86.425,0,0,0,
,0.972,0.218,0.048,475.586,-287.415,234.497,0,0,0,
,1.023,0.205,0.037,329.956,-243.164,348.022,0,0,0,
,1.106,0.22,0.029,181.396,-203.309,438.354,0,0,0,
,1.157,0.259,0.027,54.626,-178.04,522.949,0,0,0,
,1.125,0.312,0.047,-32.532,-154.847,580.81,0,0,0,
,1.031,0.38,0.06,-49.073,-106.751,597.473,0,0,0,
,0.996,0.428,0.038,5.554,-42.237,549.865,0,0,0,
,0.997,0.432,0.002,115.844,0.488,493.835,0,0,0,
,0.97,0.428,-0.011,272.155,15.808,465.332,0,0,0,
,0.955,0.426,-0.021,466.674,31.372,439.209,0,0,0,
,1.009,0.416,-0.054,680.053,49.621,400.207,0,0,0,
,1.093,0.377,-0.093,875.122,32.409,376.342,0,0,0,
,1.147,0.384,-0.103,1039.245,-13.672,374.389,0,0,0,
,1.182,0.335,-0.103,1134.216,-49.683,371.46,0,0,0,
,1.206,0.313,-0.118,1187.133,-74.463,385.315,0,0,0,
,1.212,0.29,-0.145,1206.237,-108.704,417.175,0,0,0,
,1.204,0.261,-0.187,1191.467,-147.156,456.482,0,0,0,
,1.16,0.226,-0.157,1142.7,-180.787,515.442,0,0,0,
,1.098,0.191,-0.137,1059.509,-198.914,582.153,0,0,0,
,1.038,0.168,-0.123,944.397,-190.247,652.404,0,0,0,
,1.002,0.153,-0.122,845.703,-170.227,721.435,0,0,0,
,0.975,0.149,-0.121,738.83,-148.621,791.076,0,0,0,
,0.956,0.157,-0.13,640.93,-124.024,860.229,0,0,0,
,0.936,0.165,-0.135,592.468,-93.506,914.062,0,0,0,
,0.923,0.16,-0.152,543.579,-68.787,956.054,0,0,0,
,0.929,0.157,-0.164,498.596,-47.913,980.346,0,0,0,
,0.945,0.158,-0.16,458.618,-29.48,994.506,0,0,0,
,0.972,0.165,-0.152,433.105,-3.846,991.577,0,0,0,
,0.973,0.166,-0.154,419.983,22.155,978.698,0,0,0,
,0.961,0.163,-0.143,402.954,48.706,947.692,0,0,0,
,0.949,0.154,-0.143,364.441,83.74,903.564,0,0,0,
,0.945,0.137,-0.144,293.457,121.704,842.163,0,0,0,
,0.931,0.134,-0.137,214.477,156.616,781.616,0,0,0,
,0.914,0.141,-0.124,126.281,204.956,715.637,0,0,0,
,0.9,0.148,-0.11,56.518,261.474,638.916,0,0,0,
,0.877,0.157,-0.085,-0.306,315.002,569.275,0,0,0,
,0.85,0.172,-0.047,-28.809,379.882,500.549,0,0,0,
,0.835,0.195,-0.004,-25.025,448.059,425.232,0,0,0,
,0.895,0.227,0.041,24.963,517.395,335.144,0,0,0,
,0.999,0.238,0.042,114.563,586.609,237.548,0,0,0,
,1.096,0.236,0.02,251.037,627.258,152.893,0,0,0,
,1.148,0.254,0.058,390.747,633.117,81.176,0,0,0,
,1.097,0.308,0.139,502.624,637.268,13.366,0,0,0,
,1.03,0.365,0.245,615.905,670.288,-109.436,0,0,0,
,0.998,0.395,0.355,730.59,727.844,-244.996,0,0,0,
,0.946,0.397,0.445,865.417,785.156,-328.919,0,0,0,
,0.889,0.357,0.479,954.162,827.148,-378.724,0,0,0,
,0.884,0.269,0.468,971.191,822.876,-395.203,0,0,0,
,0.925,0.175,0.465,877.014,774.17,-380.066,0,0,0,
,0.979,0.12,0.473,675.903,697.204,-338.135,0,0,0,
,1.025,0.11,0.482,377.685,594.177,-304.322,0,0,0,
,1.059,0.14,0.486,102.234,495.727,-282.227,0,0,0,
,1.103,0.202,0.491,-86.976,409.607,-271.607,0,0,0,
,1.112,0.265,0.51,-151.734,335.205,-251.954,0,0,0,
,1.06,0.291,0.538,-143.799,288.452,-252.93,0,0,0,
,0.974,0.295,0.531,-119.263,263.122,-257.996,0,0,0,
,0.903,0.276,0.495,-112.61,243.164,-276.368,0,0,0,
,0.835,0.257,0.445,-132.813,204.651,-295.96,0,0,0,
,0.799,0.246,0.413,-186.585,154.907,-326.355,0,0,0,
,0.792,0.243,0.381,-249.39,111.633,-357.239,0,0,0,
,0.799,0.248,0.337,-335.267,64.086,-386.475,0,0,0,
,0.795,0.268,0.287,-396.851,10.07,-403.992,0,0,0,
,0.788,0.29,0.245,-437.012,-44.739,-415.345,0,0,0,
,0.796,0.307,0.194,-443.787,-94.91,-428.956,0,0,0,
,0.824,0.317,0.155,-432.007,-137.452,-444.703,0,0,0,
,0.847,0.327,0.124,-399.292,-184.693,-452.759,0,0,0,
,0.859,0.339,0.111,-353.211,-217.53,-462.037,0,0,0,
,0.855,0.348,0.104,-300.66,-227.662,-473.45,0,0,0,
,0.862,0.356,0.097,-240.54,-221.68,-497.742,0,0,0,
,0.892,0.365,0.091,-194.519,-198.731,-519.898,0,0,0,
,0.922,0.377,0.09,-145.63,-156.983,-532.227,0,0,0,
,0.924,0.394,0.089,-93.262,-145.203,-528.382,0,0,0,
,0.921,0.398,0.084,-32.41,-102.051,-516.419,0,0,0,
,0.917,0.389,0.081,9.094,-69.581,-492.615,0,0,0,
,0.915,0.373,0.073,25.268,-28.565,-451.6,0,0,0,
,0.961,0.366,0.051,22.705,10.315,-409.79,0,0,0,
,1.074,0.364,0.026,19.348,44.86,-371.827,0,0,0,
,1.193,0.364,0.007,27.771,55.847,-304.932,0,0,0,
,1.257,0.371,0.011,52.246,62.683,-218.506,0,0,0,
,1.234,0.382,0.021,91.43,76.477,-117.249,0,0,0,
,1.199,0.39,0.032,143.005,101.867,-51.514,0,0,0,
,1.151,0.39,0.026,205.2,122.192,-1.16,0,0,0,
,1.03,0.392,0.055,266.479,128.296,72.815,0,0,0,
,0.908,0.388,0.081,330.749,154.235,124.939,0,0,0,
,0.835,0.376,0.096,402.71,193.115,150.879,0,0,0,
,0.821,0.38,0.106,486.145,214.294,168.579,0,0,0,
,0.866,0.39,0.109,588.317,230.957,181.64,0,0,0,
,0.923,0.383,0.091,677.978,229.37,201.538,0,0,0,
,0.969,0.36,0.072,747.863,206.115,227.6,0,0,0,
,1.009,0.354,0.052,825.256,163.94,255.432,0,0,0,
,1.058,0.349,0.028,867.92,120.422,281.494,0,0,0,
,1.107,0.322,0.007,924.987,59.326,304.626,0,0,0,
,1.117,0.28,0.009,953.674,1.342,352.539,0,0,0,
,1.07,0.244,0.026,944.03,-49.561,406.799,0,0,0,
,0.998,0.201,0.043,886.474,-74.036,468.505,0,0,0,
,0.95,0.177,0.045,788.757,-75.684,506.286,0,0,0,
,0.923,0.15,0.047,645.263,-80.994,549.133,0,0,0,
,0.9,0.143,0.052,495.056,-84.107,592.895,0,0,0,
,0.88,0.152,0.06,341.125,-78.675,631.164,0,0,0,
,0.865,0.174,0.052,237.243,-71.839,661.316,0,0,0,
,0.867,0.203,0.042,177.734,-67.627,679.199,0,0,0,
,0.867,0.214,0.026,159.362,-67.994,684.997,0,0,0,
,0.862,0.208,0.015,154.663,-82.093,684.997,0,0,0,
,0.848,0.199,0.016,154.541,-101.563,675.781,0,0,0,
,0.842,0.192,0.017,147.033,-102.784,656.921,0,0,0,
,0.873,0.179,0.031,126.648,-106.141,624.878,0,0,0,
,0.906,0.155,0.025,80.505,-100.037,590.393,0,0,0,
,0.92,0.15,0.003,10.986,-102.234,562.988,0,0,0,
,0.911,0.151,0.004,-52.247,-112,521.423,0,0,0,
,0.898,0.151,0.015,-114.991,-104.981,474.426,0,0,0,
,0.888,0.16,0.012,-167.969,-89.417,412.353,0,0,0,
,0.903,0.183,0.037,-205.14,-73.975,340.759,0,0,0,
,0.928,0.201,0.062,-223.938,-41.26,267.761,0,0,0,
,0.985,0.212,0.063,-218.689,2.624,181.274,0,0,0,
,1.06,0.208,0.034,-203.675,38.574,94.787,0,0,0,
,1.142,0.197,0.002,-185.669,56.945,-5.249,0,0,0,
,1.168,0.193,0.016,-180.054,62.622,-99.305,0,0,0,
,1.073,0.209,0.091,-167.481,85.022,-176.514,0,0,0,
,0.983,0.252,0.177,-141.968,155.212,-310.486,0,0,0,
,0.962,0.273,0.231,-101.807,237.976,-445.374,0,0,0,
,0.916,0.28,0.267,-29.358,311.157,-538.88,0,0,0,
,0.866,0.283,0.257,52.673,355.407,-598.938,0,0,0,
,0.869,0.266,0.236,114.502,380.737,-671.753,0,0,0,
,0.932,0.243,0.227,142.517,386.657,-728.821,0,0,0,
,1.007,0.227,0.229,141.967,369.201,-746.705,0,0,0,
,1.05,0.229,0.264,132.446,339.416,-732.483,0,0,0,
,1.084,0.221,0.274,131.652,326.843,-702.332,0,0,0,
,1.105,0.196,0.263,124.878,302.856,-663.208,0,0,0,
,1.116,0.142,0.244,79.773,264.16,-621.338,0,0,0,
,1.073,0.08,0.237,-35.462,188.903,-542.908,0,0,0,
,0.998,0.057,0.235,-208.497,94.97,-469.971,0,0,0,
,0.909,0.078,0.228,-410.523,32.165,-431.946,0,0,0,
,0.859,0.096,0.212,-607.178,-34.485,-419.19,0,0,0,
,0.838,0.118,0.181,-760.071,-91.309,-421.326,0,0,0,
,0.841,0.162,0.16,-886.353,-147.828,-424.988,0,0,0,
,0.844,0.224,0.135,-957.215,-196.045,-435.547,0,0,0,
,0.842,0.274,0.111,-978.638,-245.24,-449.097,0,0,0,
,0.843,0.314,0.085,-948.487,-279.786,-469.056,0,0,0,
,0.866,0.338,0.079,-877.137,-301.026,-493.042,0,0,0,
,0.892,0.353,0.072,-779.969,-311.524,-512.085,0,0,0,
,0.909,0.362,0.065,-686.402,-312.806,-528.199,0,0,0,
,0.915,0.367,0.062,-591.248,-303.711,-546.631,0,0,0,
,0.902,0.364,0.063,-516.907,-282.959,-555.237,0,0,0,
,0.876,0.365,0.083,-455.079,-247.681,-558.167,0,0,0,
,0.866,0.362,0.104,-406.983,-193.848,-554.383,0,0,0,
,0.859,0.362,0.123,-365.052,-133.545,-535.462,0,0,0,
,0.854,0.358,0.137,-341.614,-67.994,-495.301,0,0,0,
,0.859,0.352,0.14,-333.68,-4.273,-439.454,0,0,0,
,0.87,0.35,0.134,-344.239,48.523,-367.859,0,0,0,
,0.905,0.358,0.114,-347.535,88.317,-295.777,0,0,0,
,1.002,0.365,0.089,-327.515,119.323,-237.488,0,0,0,
,1.148,0.366,0.035,-295.96,137.939,-174.805,0,0,0,
,1.306,0.37,0.027,-243.287,117.431,-96.68,0,0,0,
,1.385,0.375,0.033,-206.055,82.58,-10.254,0,0,0,
,1.259,0.377,0.063,-173.401,36.315,107.116,0,0,0,
,1.092,0.376,0.101,-149.476,38.818,157.226,0,0,0,
,0.975,0.355,0.112,-123.719,69.458,197.815,0,0,0,
,0.893,0.343,0.134,-93.934,87.89,258.484,0,0,0,
,0.84,0.35,0.168,-48.951,123.108,325.866,0,0,0,
,0.868,0.36,0.202,13.427,174.072,376.831,0,0,0,
,0.971,0.378,0.203,105.407,214.843,428.283,0,0,0,
,1.053,0.386,0.195,223.999,223.205,502.929,0,0,0,
,1.111,0.378,0.174,377.075,212.341,567.688,0,0,0,
,1.168,0.361,0.134,541.137,185.669,614.38,0,0,0,
,1.247,0.338,0.088,679.504,134.277,651.245,0,0,0,
,1.295,0.287,0.057,802.185,37.597,696.472,0,0,0,
,1.22,0.218,0.078,867.553,-71.289,758.789,0,0,0,
,1.135,0.153,0.106,860.595,-148.011,800.048,0,0,0,
,1.036,0.09,0.129,767.028,-192.994,817.627,0,0,0,
,0.967,0.044,0.152,584.777,-208.741,830.2,0,0,0,
,0.902,0.028,0.187,352.722,-216.187,846.801,0,0,0,
,0.844,0.043,0.206,132.69,-189.698,854.797,0,0,0,
,0.808,0.071,0.208,-62.684,-150.147,844.177,0,0,0,
,0.794,0.109,0.185,-172.913,-117.981,815.918,0,0,0,
,0.79,0.145,0.162,-215.577,-105.469,781.616,0,0,0,
,0.783,0.172,0.154,-201.6,-111.695,731.994,0,0,0,
,0.782,0.191,0.149,-155.03,-115.174,668.762,0,0,0,
,0.795,0.203,0.143,-90.271,-127.259,590.881,0,0,0,
,0.829,0.202,0.137,-24.292,-142.579,497.558,0,0,0,
,0.867,0.167,0.131,14.953,-162.11,416.076,0,0,0,
,0.878,0.135,0.127,13.549,-190.552,333.923,0,0,0,
,0.884,0.134,0.137,-5.372,-207.459,262.024,0,0,0,
,0.884,0.133,0.148,-25.391,-213.013,188.232,0,0,0,
,0.879,0.132,0.164,-50.721,-213.257,120.91,0,0,0,
,0.878,0.126,0.164,-86.548,-201.905,41.503,0,0,0,
,0.886,0.114,0.162,-138.489,-204.041,-33.387,0,0,0,
,0.924,0.099,0.143,-211.853,-208.13,-116.211,0,0,0,
,1.007,0.093,0.097,-302.185,-216.797,-222.718,0,0,0,
,1.116,0.088,0.043,-411.194,-232.789,-334.656,0,0,0,
,1.196,0.112,0.032,-502.991,-268.067,-441.346,0,0,0,
,1.152,0.167,0.073,-552.857,-285.889,-516.785,0,0,0,
,1.08,0.227,0.151,-559.449,-247.803,-631.043,0,0,0,
,1.056,0.263,0.195,-555.298,-158.02,-764.1,0,0,0,
,1.007,0.269,0.212,-520.813,-99.488,-839.661,0,0,0,
,0.967,0.257,0.2,-484.986,-37.476,-880.616,0,0,0,
,0.989,0.234,0.215,-462.098,6.164,-909.18,0,0,0,
,1.036,0.195,0.162,-464.661,26.611,-903.504,0,0,0,
,1.065,0.17,0.133,-500.977,21.179,-871.094,0,0,0,
,1.098,0.164,0.097,-563.599,-3.968,-832.581,0,0,0,
,1.132,0.171,0.047,-618.348,-51.88,-794.861,0,0,0,
,1.167,0.168,0.02,-677.308,-125.061,-768.616,0,0,0,
,1.166,0.18,0.024,-753.113,-198.975,-739.869,0,0,0,
,1.112,0.192,0.033,-840.271,-245.362,-721.741,0,0,0,
,1.035,0.191,0.034,-942.627,-275.635,-720.337,0,0,0,
,0.969,0.186,0.01,-1035.218,-289.49,-716.858,0,0,0,
,0.891,0.359,-0.079,-1297.425,-306.519,-757.386,0,0,0,
,0.901,0.376,-0.096,-1184.144,-299.744,-758.118,0,0,0,
,0.894,0.39,-0.123,-1051.148,-292.054,-754.395,0,0,0,
,0.882,0.397,-0.137,-941.956,-283.57,-752.076,0,0,0,
,0.862,0.403,-0.141,-855.713,-267.884,-748.658,0,0,0,
,0.85,0.416,-0.117,-786.744,-243.409,-746.338,0,0,0,
,0.845,0.436,-0.076,-734.07,-189.27,-729.859,0,0,0,
,0.84,0.458,-0.031,-706.665,-109.864,-691.956,0,0,0,
,0.837,0.464,0.012,-700.013,-15.32,-635.987,0,0,0,
,0.842,0.467,0.059,-702.881,92.529,-553.467,0,0,0,
,0.861,0.464,0.088,-689.942,206.604,-444.092,0,0,0,
,1.327,0.481,0.093,-442.872,515.869,-95.032,0,0,0,
,1.319,0.488,0.107,-335.511,532.653,124.084,0,0,0,
,1.211,0.451,0.129,-218.811,533.203,277.771,0,0,0,
,1.128,0.404,0.142,-163.269,522.888,395.63,0,0,0,
,1.08,0.366,0.171,-157.532,483.215,507.385,0,0,0,
,1.004,0.358,0.221,-174.378,428.039,615.6,0,0,0,
,0.851,0.389,0.323,-147.889,375.61,762.024,0,0,0,
,0.875,0.427,0.343,-23.743,385.192,787.902,0,0,0,
,1.003,0.465,0.321,156.921,387.451,790.405,0,0,0,
,1.17,0.466,0.309,397.338,329.284,794.799,0,0,0,
,1.253,0.432,0.261,617.859,253.296,809.448,0,0,0,
,1.331,0.377,0.207,810.791,148.864,788.635,0,0,0,
,1.461,0.318,0.177,958.435,26.55,756.408,0,0,0,
,1.533,0.267,0.181,1137.939,-93.506,781.128,0,0,0,
,1.453,0.178,0.174,1274.414,-215.088,786.926,0,0,0,
,1.318,0.088,0.17,1256.042,-302.979,772.094,0,0,0,
,1.193,-0.002,0.158,1051.513,-372.62,743.103,0,0,0,
,1.084,-0.067,0.168,740.112,-428.65,732.544,0,0,0,
,0.99,-0.094,0.188,340.576,-455.262,747.924,0,0,0,
,0.922,-0.08,0.198,-55.603,-436.646,765.014,0,0,0,
,0.885,-0.013,0.183,-314.27,-395.813,776.367,0,0,0,
,0.859,0.057,0.154,-474.976,-347.657,783.691,0,0,0,
,0.827,0.111,0.125,-533.936,-312.439,767.273,0,0,0,
,0.778,0.144,0.088,-521.973,-279.541,738.769,0,0,0,
,0.736,0.16,0.071,-453.492,-256.958,674.56,0,0,0,
,0.71,0.189,0.078,-334.107,-240.235,589.05,0,0,0,
,0.689,0.216,0.086,-181.336,-210.511,471.008,0,0,0,
,0.674,0.209,0.097,-32.105,-182.435,324.707,0,0,0,
,0.677,0.179,0.09,199.585,-119.019,-8.118,0,0,0,
,0.696,0.164,0.09,243.164,-96.985,-180.542,0,0,0,
,0.712,0.136,0.089,227.234,-75.196,-365.052,0,0,0,
,0.736,0.124,0.082,168.823,-62.195,-519.715,0,0,0,
,0.768,0.124,0.076,101.867,-57.862,-657.654,0,0,0,
,0.797,0.153,0.083,27.587,-59.693,-787.293,0,0,0,
,0.83,0.135,0.109,-41.26,-62.195,-876.954,0,0,0,
,0.891,0.149,0.115,-124.939,-46.814,-977.051,0,0,0,
,0.984,0.14,0.088,-192.81,-41.26,-1062.378,0,0,0,
,1.104,0.105,0.02,-333.558,-50.965,-1146.424,0,0,0,
,1.239,0.061,-0.032,-515.076,-92.041,-1230.896,0,0,0,
,1.389,0.04,-0.04,-785.523,-147.583,-1263.489,0,0,0,
,1.47,0.06,-0.038,-1064.148,-177.613,-1268.25,0,0,0,
,1.501,0.111,-0.009,-1329.895,-195.923,-1271.729,0,0,0,
,1.485,0.199,0.056,-1529.908,-183.472,-1264.527,0,0,0,
,1.398,0.247,0.136,-1622.62,-157.471,-1236.023,0,0,0,
,1.274,0.259,0.159,-1690.491,-107.178,-1171.204,0,0,0,
,1.138,0.193,0.047,-1781.006,-92.347,-992.737,0,0,0,
,1.115,0.148,-0.015,-1823.304,-132.508,-875.733,0,0,0,
,1.107,0.123,-0.062,-1872.132,-196.106,-721.802,0,0,0,
,1.113,0.153,-0.098,-1910.706,-261.17,-564.27,0,0,0,
,1.103,0.233,-0.132,-1927.186,-341.065,-439.942,0,0,0,
,1.076,0.285,-0.135,-1902.771,-425.782,-364.441,0,0,0,
,1.041,0.317,-0.135,-1812.073,-487.366,-320.13,0,0,0,
,0.993,0.331,-0.141,-1677.002,-524.414,-296.448,0,0,0,
,0.933,0.338,-0.15,-1545.716,-560.486,-280.03,0,0,0,
,0.859,0.338,-0.151,-1415.65,-581.421,-279.053,0,0,0,
,0.788,0.323,-0.139,-1302.918,-579.041,-301.148,0,0,0,
,0.748,0.292,-0.125,-1229.737,-565.43,-339.6,0,0,0,
,0.734,0.273,-0.105,-1199.158,-528.748,-382.203,0,0,0,
,0.734,0.279,-0.096,-1206.238,-472.474,-414.673,0,0,0,
,0.735,0.3,-0.088,-1209.9,-409.424,-453.431,0,0,0,
,0.752,0.311,-0.081,-1190.674,-339.478,-501.648,0,0,0,
,0.771,0.32,-0.093,-1144.593,-266.114,-539.856,0,0,0,
,0.795,0.329,-0.101,-1074.891,-200.013,-569.947,0,0,0,
,0.795,0.349,-0.086,-875.794,-75.867,-590.638,0,0,0,
,0.78,0.348,-0.062,-789.978,-3.54,-588.868,0,0,0,
,0.772,0.325,-0.044,-753.052,68.847,-582.764,0,0,0,
,0.768,0.306,-0.021,-768.067,133.178,-564.637,0,0,0,
,0.773,0.316,0.017,-809.144,204.406,-539.063,0,0,0,
,0.798,0.338,0.072,-835.938,281.555,-514.405,0,0,0,
,0.833,0.358,0.117,-833.374,363.83,-485.23,0,0,0,
,0.896,0.379,0.132,-791.016,446.716,-448.182,0,0,0,
,1.063,0.422,0.143,-680.481,510.437,-442.933,0,0,0,
,1.329,0.52,0.172,-476.38,554.199,-430.176,0,0,0,
,1.404,0.615,0.189,-257.508,533.447,-329.59,0,0,0,
,1.307,0.682,0.256,48.706,508.361,-234.375,0,0,0,
,1.176,0.642,0.285,294.555,482.849,-186.097,0,0,0,
,1.071,0.547,0.318,467.712,431.274,-113.587,0,0,0,
,0.956,0.456,0.432,551.513,368.957,21.484,0,0,0,
,0.847,0.412,0.568,578.308,354.858,158.752,0,0,0,
,0.788,0.377,0.658,589.721,394.958,284.912,0,0,0,
,0.895,0.383,0.697,638.61,429.138,383.3,0,0,0,
,1.079,0.364,0.596,682.617,418.945,477.905,0,0,0,
,1.324,0.299,0.318,750.305,142.578,621.643,0,0,0,
,1.436,0.266,0.209,750.427,-85.389,640.503,0,0,0,
,1.446,0.208,0.164,750.793,-304.627,670.044,0,0,0,
,1.331,0.143,0.2,716.491,-485.535,723.755,0,0,0,
,1.204,0.096,0.251,567.749,-536.988,745.971,0,0,0,
,1.097,0.036,0.265,317.81,-529.236,753.418,0,0,0,
,1.013,-0.003,0.27,1.464,-484.62,768.798,0,0,0,
,0.933,0.009,0.25,-344.056,-418.213,804.26,0,0,0,
,0.879,0.068,0.217,-615.723,-329.407,831.909,0,0,0,
,0.851,0.134,0.185,-781.556,-268.372,834.533,0,0,0,
,0.843,0.205,0.165,-806.519,-213.318,827.819,0,0,0,
,0.846,0.257,0.151,-714.783,-179.566,811.767,0,0,0,
,0.841,0.288,0.128,-534.363,-166.81,778.869,0,0,0,
,0.827,0.298,0.106,-342.041,-170.227,727.6,0,0,0,
,0.823,0.283,0.094,-144.593,-191.956,664.367,0,0,0,
,0.823,0.24,0.094,-11.231,-223.145,594.238,0,0,0,
,0.819,0.177,0.105,58.166,-244.446,525.817,0,0,0,
,0.807,0.153,0.116,70.983,-254.273,466.247,0,0,0,
,0.808,0.139,0.113,45.41,-242.066,394.409,0,0,0,
,0.8,0.128,0.107,-6.226,-242.92,316.528,0,0,0,
,0.797,0.126,0.118,-64.026,-230.469,233.215,0,0,0,
,0.794,0.129,0.123,-130.372,-208.985,145.568,0,0,0,
,0.788,0.135,0.139,-230.225,-170.96,-36.927,0,0,0,
,0.765,0.135,0.154,-271.912,-154.602,-129.883,0,0,0,
,0.753,0.134,0.162,-319.153,-144.043,-233.704,0,0,0,
,0.782,0.133,0.146,-379.578,-141.419,-327.576,0,0,0,
,0.854,0.137,0.109,-445.862,-146.668,-450.135,0,0,0,
,0.956,0.147,0.059,-524.537,-173.279,-573.609,0,0,0,
,1.092,0.17,0.013,-581.482,-207.032,-735.474,0,0,0,
,1.237,0.181,0.008,-653.077,-229.676,-898.56,0,0,0,
,1.283,0.212,0.038,-717.896,-237.854,-1015.809,0,0,0,
,1.268,0.296,0.118,-745.423,-204.773,-1141.785,0,0,0,
,1.231,0.361,0.183,-716.797,-124.085,-1263.672,0,0,0,
,1.166,0.383,0.207,-637.879,-54.444,-1340.271,0,0,0,
,1.077,0.377,0.221,-552.247,12.268,-1352.784,0,0,0,
,1.058,0.305,0.251,-394.165,170.044,-1129.029,0,0,0,
,1.061,0.262,0.215,-388.855,173.584,-972.168,0,0,0,
,1.068,0.205,0.159,-397.095,158.325,-796.936,0,0,0,
,1.094,0.142,0.089,-438.416,112.976,-597.046,0,0,0,
,1.118,0.085,0,-533.448,26.123,-410.035,0,0,0,
,0.968,0.098,-0.005,-1065.674,-372.559,55.786,0,0,0,
,0.877,0.111,-0.004,-1237.427,-435.303,120.361,0,0,0,
,0.862,0.134,-0.015,-1407.227,-464.661,155.456,0,0,0,
,0.822,0.191,-0.023,-1544.8,-478.516,170.654,0,0,0,
,0.786,0.256,-0.035,-1637.391,-476.807,159.179,0,0,0,
,0.763,0.321,-0.043,-1651.307,-459.839,100.586,0,0,0,
,0.759,0.358,-0.037,-1587.159,-428.101,7.995,0,0,0,
,0.768,0.379,-0.026,-1444.458,-388.245,-88.929,0,0,0,
,0.779,0.393,-0.012,-1258.423,-343.873,-198.06,0,0,0,
,0.794,0.407,0.01,-1029.786,-290.162,-301.453,0,0,0,
,0.807,0.414,0.023,-786.683,-228.15,-410.584,0,0,0,
,0.813,0.35,0.074,-275.635,-60.73,-659.18,0,0,0,
,0.827,0.355,0.106,-211.731,0.244,-698.365,0,0,0,
,0.851,0.374,0.145,-160.767,64.88,-732.605,0,0,0,
,0.88,0.389,0.218,-110.901,128.296,-748.352,0,0,0,
,0.896,0.399,0.224,-55.848,199.035,-736.39,0,0,0,
,0.971,0.345,0.26,12.939,372.009,-585.083,0,0,0,
,1.047,0.324,0.24,-16.358,396.301,-522.034,0,0,0,
,1.167,0.31,0.21,-67.566,394.165,-441.407,0,0,0,
,1.285,0.317,0.193,-114.014,346.74,-353.699,0,0,0,
,1.324,0.323,0.182,-167.725,250.427,-230.652,0,0,0,
,1.083,0.323,0.248,-299.195,9.887,93.566,0,0,0,
,0.997,0.352,0.267,-285.401,-22.767,185.852,0,0,0,
,0.908,0.369,0.282,-228.76,-38.88,273.864,0,0,0,
,0.845,0.375,0.284,-139.527,-38.208,337.707,0,0,0,
,0.835,0.381,0.265,-11.536,-23.011,375.366,0,0,0,
,0.891,0.379,0.205,125,-22.4,385.192,0,0,0,
,0.977,0.375,0.132,277.282,-63.599,387.207,0,0,0,
,1.056,0.363,0.085,408.996,-142.334,404.174,0,0,0,
,1.101,0.327,0.08,528.808,-224.06,424.194,0,0,0,
,1.151,0.278,0.08,589.599,-270.325,440.185,0,0,0,
,1.203,0.248,0.059,585.998,-293.213,465.82,0,0,0,
,1.032,0.169,0.05,363.647,-350.525,616.15,0,0,0,
,0.967,0.152,0.042,256.042,-325.867,652.832,0,0,0,
,0.928,0.146,0.039,146.362,-292.237,698.425,0,0,0,
,0.889,0.155,0.044,33.569,-247.986,738.952,0,0,0,
,0.858,0.178,0.054,-50.66,-193.055,774.047,0,0,0,
,0.827,0.217,0.051,-113.465,-34.302,802.429,0,0,0,
,0.826,0.224,0.053,-84.168,2.624,793.213,0,0,0,
,0.831,0.229,0.043,-38.269,35.888,770.874,0,0,0,
,0.837,0.228,0.045,22.522,47.119,741.088,0,0,0,
,0.845,0.21,0.047,66.284,49.865,704.223,0,0,0,
,0.862,0.196,0.054,99.06,53.588,652.038,0,0,0,
,0.871,0.185,0.057,115.295,45.105,593.872,0,0,0,
,0.873,0.176,0.065,119.079,42.358,528.686,0,0,0,
,0.863,0.171,0.077,113.891,39.367,450.927,0,0,0,
,0.847,0.171,0.092,106.933,38.94,360.107,0,0,0,
,0.823,0.164,0.105,87.402,42.602,264.221,0,0,0,
,0.811,0.163,0.15,-17.884,67.627,-64.27,0,0,0,
,0.909,0.17,0.136,-54.749,81.787,-204.651,0,0,0,
,1.051,0.166,0.096,-101.258,79.223,-336.182,0,0,0,
,1.186,0.181,0.096,-141.236,59.997,-468.201,0,0,0,
,1.07,0.265,0.286,-171.936,151.001,-769.776,0,0,0,
,1.072,0.276,0.335,-127.93,231.384,-873.841,0,0,0,
,1.017,0.289,0.368,-88.501,283.813,-906.556,0,0,0,
,0.941,0.277,0.357,-74.769,316.467,-921.448,0,0,0,
,0.927,0.232,0.307,-82.52,338.012,-929.322,0,0,0,
,0.977,0.184,0.268,-125.916,325.683,-912.171,0,0,0,
,1.038,0.163,0.236,-198.182,274.353,-855.286,0,0,0,
,1.089,0.159,0.187,-279.419,203.308,-757.386,0,0,0,
,1.112,0.164,0.129,-346.314,99.914,-653.077,0,0,0,
,1.133,0.169,0.075,-385.498,-19.654,-543.763,0,0,0,
,1.159,0.155,0.045,-438.721,-131.165,-453.125,0,0,0,
,1.145,0.138,0.051,-534.18,-243.531,-365.662,0,0,0,
,1.068,0.134,0.072,-678.467,-323.609,-285.706,0,0,0,
,0.953,0.149,0.096,-846.009,-358.826,-235.718,0,0,0,
,0.86,0.185,0.104,-998.475,-355.164,-217.774,0,0,0,
,0.804,0.24,0.098,-1120.057,-323.121,-228.516,0,0,0,
,0.792,0.317,0.097,-1163.88,-294.495,-264.222,0,0,0,
,0.789,0.393,0.097,-1120.179,-260.743,-318.36,0,0,0,
,0.785,0.45,0.093,-982.544,-222.352,-382.081,0,0,0,
,0.793,0.481,0.083,-739.258,-189.148,-441.04,0,0,0,
,0.823,0.501,0.073,-437.195,-157.471,-501.526,0,0,0,
,0.855,0.498,0.053,-150.94,-125.611,-549.5,0,0,0,
,0.869,0.47,0.036,128.845,-134.583,-582.398,0,0,0,
,0.88,0.412,0.035,277.893,-135.01,-601.014,0,0,0,
,0.875,0.368,0.057,322.509,-137.452,-606.507,0,0,0,
,0.863,0.363,0.085,310.547,-121.644,-584.351,0,0,0,
,0.877,0.392,0.149,221.496,-44.922,-516.968,0,0,0,
,0.884,0.408,0.165,169.86,-3.174,-446.473,0,0,0,
,0.892,0.423,0.167,115.905,35.156,-370.85,0,0,0,
,0.912,0.434,0.146,80.505,66.406,-275.391,0,0,0,
,0.951,0.439,0.107,64.331,86.303,-176.026,0,0,0,
,1.043,0.45,0.084,95.947,100.769,-84.778,0,0,0,
,1.158,0.453,0.048,154.907,90.026,22.094,0,0,0,
,1.275,0.459,0.033,243.347,60.18,121.826,0,0,0,
,1.274,0.453,0.04,312.133,-5.127,262.39,0,0,0,
,1.128,0.427,0.078,364.868,-46.082,384.338,0,0,0,
,1.025,0.39,0.103,399.78,-25.086,447.021,0,0,0,
,1.033,0.352,0.097,423.828,6.347,486.328,0,0,0,
,1.026,0.344,0.097,448.73,11.718,562.5,0,0,0,
,0.966,0.36,0.112,496.826,30.944,634.704,0,0,0,
,0.969,0.366,0.112,574.646,46.814,651.306,0,0,0,
,1.046,0.36,0.077,662.048,64.27,650.573,0,0,0,
,1.102,0.345,0.05,755.615,42.541,686.096,0,0,0,
,1.133,0.334,0.032,840.515,6.225,688.72,0,0,0,
,1.182,0.317,0.009,896.85,-13.794,687.194,0,0,0,
,1.253,0.312,-0.03,961.425,-53.345,683.654,0,0,0,
,1.325,0.302,-0.056,1009.948,-105.103,697.57,0,0,0,
,1.291,0.267,-0.056,1042.358,-160.889,735.534,0,0,0,
,1.2,0.22,-0.035,1030.883,-188.111,783.874,0,0,0,
,1.128,0.177,-0.024,957.641,-181.641,840.942,0,0,0,
,1.059,0.139,-0.017,822.692,-168.702,878.662,0,0,0,
,0.999,0.116,-0.002,666.626,-148.133,942.321,0,0,0,
,0.944,0.111,0.015,485.229,-113.526,996.582,0,0,0,
,0.897,0.129,0.021,332.031,-62.745,1042.358,0,0,0,
,0.87,0.166,0.012,253.051,-18.616,1068.359,0,0,0,
,0.858,0.196,0.008,211.731,16.906,1075.439,0,0,0,
,0.838,0.201,0.006,206.176,43.335,1058.654,0,0,0,
,0.822,0.204,0.004,222.595,68.176,1032.043,0,0,0,
,0.807,0.204,-0.006,247.558,87.585,989.563,0,0,0,
,0.806,0.203,-0.009,280.029,96.923,932.922,0,0,0,
,0.806,0.192,-0.003,307.006,101.257,860.717,0,0,0,
,0.807,0.179,0.006,313.11,108.642,767.028,0,0,0,
,0.808,0.166,0.016,300.537,128.54,694.824,0,0,0,
,0.81,0.161,0.027,279.541,143.615,597.351,0,0,0,
,0.806,0.164,0.039,256.897,167.236,498.291,0,0,0,
,0.8,0.165,0.054,244.262,191.284,384.948,0,0,0,
,0.802,0.16,0.07,229.919,221.191,265.991,0,0,0,
,0.831,0.16,0.07,206.176,250.61,128.418,0,0,0,
,0.898,0.156,0.059,171.569,285.827,-28.931,0,0,0,
,0.97,0.15,0.059,130.798,307.373,-182.679,0,0,0,
,1.014,0.161,0.091,86.914,340.026,-339.966,0,0,0,
,0.99,0.187,0.167,54.931,388.916,-475.098,0,0,0,
,0.907,0.22,0.275,64.086,480.224,-620.118,0,0,0,
,0.855,0.279,0.385,118.652,594.116,-767.212,0,0,0,
,0.854,0.285,0.462,217.956,723.571,-904.725,0,0,0,
,0.899,0.296,0.489,329.895,831.909,-1026.795,0,0,0,
,0.986,0.273,0.441,442.932,922.607,-1115.906,0,0,0,
,1.094,0.215,0.397,494.018,940.368,-1175.477,0,0,0,
,1.188,0.159,0.404,476.684,898.681,-1190.308,0,0,0,
,1.232,0.094,0.394,392.334,806.884,-1137.574,0,0,0,
,1.236,0.019,0.354,246.704,681.579,-1055.542,0,0,0,
,1.233,-0.051,0.273,17.578,523.071,-961.365,0,0,0,
,1.243,-0.101,0.177,-234.681,321.655,-831.421,0,0,0,
,1.235,-0.077,0.116,-508.423,104.736,-666.443,0,0,0,
,1.183,-0.031,0.106,-769.837,-119.568,-513.001,0,0,0,
,1.119,0.015,0.122,-1004.7,-275.025,-390.503,0,0,0,
,1.059,0.072,0.143,-1229.737,-380.127,-289.978,0,0,0,
,1.023,0.149,0.161,-1399.415,-423.279,-230.225,0,0,0,
,0.989,0.229,0.157,-1526.368,-427.674,-190.369,0,0,0,
,0.953,0.333,0.135,-1582.52,-412.72,-178.772,0,0,0,
,0.926,0.411,0.097,-1541.504,-386.109,-200.989,0,0,0,
,0.91,0.466,0.075,-1370.972,-367.432,-238.648,0,0,0,
,0.897,0.489,0.054,-1126.099,-350.159,-293.702,0,0,0,
,0.892,0.489,0.045,-816.651,-335.022,-347.535,0,0,0,
,0.887,0.475,0.031,-539.307,-319.947,-410.584,0,0,0,
,0.876,0.46,0.023,-285.157,-307.74,-465.699,0,0,0,
,0.864,0.444,0.012,-87.647,-289.612,-531.067,0,0,0,
,0.862,0.422,0.003,36.56,-273.011,-607.483,0,0,0,
,0.877,0.411,-0.005,121.399,-256.775,-647.461,0,0,0,
,0.906,0.421,0.005,158.447,-233.582,-685.181,0,0,0,
,0.911,0.455,0.015,182.556,-211.487,-680.298,0,0,0,
,0.903,0.501,0.025,201.294,-176.575,-654.114,0,0,0,
,0.911,0.556,0.024,220.825,-142.151,-608.399,0,0,0,
,0.917,0.612,0.017,312.866,-112.122,-544.068,0,0,0,
,0.927,0.638,-0.012,441.772,-80.262,-459.351,0,0,0,
,1.034,0.641,-0.048,611.816,-29.847,-379.151,0,0,0,
,1.213,0.599,-0.07,744.69,3.234,-266.663,0,0,0,
,1.24,0.526,-0.069,860.901,-18.128,-42.054,0,0,0,
,1.142,0.466,-0.018,950.195,-18.86,200.744,0,0,0,
,1.083,0.402,-0.005,1007.385,20.446,359.802,0,0,0,
,1.115,0.363,-0.024,1013.427,38.696,511.963,0,0,0,
,1.115,0.345,-0.028,993.652,13.183,664.306,0,0,0,
,1.069,0.349,-0.02,1016.723,-9.461,776.916,0,0,0,
,1.06,0.345,-0.042,1072.265,-8.851,856.14,0,0,0,
,1.113,0.33,-0.08,1141.967,-24.292,902.282,0,0,0,
,1.182,0.31,-0.121,1232.055,-64.454,951.11,0,0,0,
,1.237,0.278,-0.145,1280.151,-106.385,984.863,0,0,0,
,1.277,0.234,-0.155,1299.56,-154.602,1020.507,0,0,0,
,1.313,0.179,-0.171,1259.826,-179.078,1036.865,0,0,0,
,1.316,0.135,-0.171,1168.335,-198.426,1055.42,0,0,0,
,1.264,0.103,-0.142,1043.701,-189.637,1074.401,0,0,0,
,1.188,0.115,-0.106,921.081,-137.024,1081.726,0,0,0,
,1.126,0.148,-0.096,794.86,-58.472,1054.809,0,0,0,
,1.104,0.174,-0.101,701.172,2.258,1004.882,0,0,0,
,1.087,0.204,-0.125,628.234,60.058,948.486,0,0,0,
,1.067,0.223,-0.159,598.571,88.745,891.174,0,0,0,
,1.042,0.219,-0.184,578.308,93.994,845.337,0,0,0,
,1.001,0.21,-0.182,569.824,75.805,804.87,0,0,0,
,0.974,0.209,-0.194,575.927,57.678,770.813,0,0,0,
,0.977,0.198,-0.219,582.153,30.517,741.516,0,0,0,
,1.001,0.173,-0.256,571.655,-2.198,720.153,0,0,0,
,0.997,0.149,-0.258,537.963,-50.538,722.351,0,0,0,
,0.954,0.139,-0.227,488.525,-65.918,726.379,0,0,0,
,0.933,0.141,-0.207,430.236,-37.537,713.44,0,0,0,
,0.927,0.139,-0.187,369.567,9.46,691.711,0,0,0,
,0.926,0.141,-0.165,300.903,60.974,665.161,0,0,0,
,0.923,0.144,-0.149,219.238,123.108,624.694,0,0,0,
,0.933,0.162,-0.143,143.432,182.19,572.692,0,0,0,
,0.933,0.186,-0.12,88.378,235.229,511.535,0,0,0,
,1.005,0.211,-0.094,75.683,339.721,328.43,0,0,0,
,1.082,0.187,-0.099,119.812,356.75,259.521,0,0,0,
,1.088,0.205,-0.062,177.734,374.206,221.679,0,0,0,
,1.038,0.265,0.025,221.74,368.408,164.489,0,0,0,
,0.962,0.311,0.103,276.611,422.119,61.035,0,0,0,
,0.903,0.314,0.167,372.924,468.75,-24.964,0,0,0,
,0.858,0.332,0.301,526.428,523.742,-87.891,0,0,0,
,0.807,0.36,0.391,676.452,614.868,-122.315,0,0,0,
,0.785,0.364,0.441,849.243,689.453,-157.105,0,0,0,
,0.764,0.336,0.467,980.713,730.529,-174.683,0,0,0,
,0.764,0.285,0.467,1054.26,748.474,-183.594,0,0,0,
,0.827,0.224,0.468,1048.156,728.149,-191.59,0,0,0,
,0.912,0.177,0.486,986.45,685.363,-194.703,0,0,0,
,0.972,0.142,0.505,877.563,626.892,-182.557,0,0,0,
,0.983,0.112,0.519,741.699,565.857,-186.402,0,0,0,
,0.991,0.068,0.498,546.814,511.84,-213.379,0,0,0,
,1.009,0.027,0.462,330.017,458.068,-257.081,0,0,0,
,1.022,0.037,0.432,105.102,410.827,-301.514,0,0,0,
,1.004,0.071,0.432,-87.769,362.06,-338.99,0,0,0,
,0.957,0.107,0.429,-229.187,333.374,-395.508,0,0,0,
,0.928,0.153,0.408,-355.225,320.739,-459.9,0,0,0,
,0.93,0.203,0.368,-443.421,304.443,-523.865,0,0,0,
,0.947,0.247,0.332,-486.451,277.221,-579.773,0,0,0,
,0.958,0.291,0.301,-469.239,241.211,-626.77,0,0,0,
,0.979,0.327,0.267,-391.114,201.599,-665.65,0,0,0,
,0.985,0.353,0.233,-263.672,159.24,-695.069,0,0,0,
,0.985,0.373,0.199,-116.578,111.999,-714.478,0,0,0,
,0.977,0.384,0.189,45.227,62.011,-730.286,0,0,0,
,0.966,0.387,0.174,184.265,22.216,-743.164,0,0,0,
,0.947,0.384,0.169,300.293,-16.297,-756.287,0,0,0,
,0.92,0.378,0.174,388.427,-42.176,-754.944,0,0,0,
,0.893,0.372,0.178,415.405,-51.209,-745.179,0,0,0,
,0.882,0.371,0.172,432.922,-50.782,-729.432,0,0,0,
,0.893,0.376,0.159,434.57,-51.88,-706.055,0,0,0,
,0.905,0.385,0.154,431.579,-58.594,-662.72,0,0,0,
,0.897,0.409,0.145,427.612,-73.121,-593.018,0,0,0,
,0.883,0.435,0.13,421.753,-79.895,-523.133,0,0,0,
,0.877,0.46,0.103,431.518,-91.553,-437.806,0,0,0,
,0.882,0.479,0.08,461.181,-105.896,-334.778,0,0,0,
,0.893,0.483,0.044,500.976,-122.925,-238.465,0,0,0,
,0.906,0.466,0.026,543.701,-141.968,-110.413,0,0,0,
,0.952,0.436,-0.03,583.557,-147.034,3.662,0,0,0,
,1.053,0.403,-0.02,605.774,-149.903,114.196,0,0,0,
,1.178,0.386,-0.05,612.915,-153.931,217.285,0,0,0,
,1.286,0.378,-0.045,598.877,-173.645,343.078,0,0,0,
,1.289,0.371,-0.027,584.35,-194.642,489.929,0,0,0,
,1.211,0.378,0.01,584.045,-180.115,595.459,0,0,0,
,1.163,0.369,0.004,588.195,-121.277,656.128,0,0,0,
,1.141,0.344,-0.017,592.651,-83.741,710.449,0,0,0,
,1.082,0.326,-0.015,595.459,-62.256,782.592,0,0,0,
,1.036,0.312,-0.018,610.412,-27.405,831.237,0,0,0,
,1.046,0.308,-0.044,638.244,5.127,846.801,0,0,0,
,1.11,0.307,-0.076,690.307,22.888,848.816,0,0,0,
,1.184,0.313,-0.098,780.517,16.723,846.313,0,0,0,
,1.22,0.328,-0.115,890.136,-8.301,837.524,0,0,0,
,1.244,0.345,-0.113,1025.817,-28.443,809.631,0,0,0,
,1.252,0.352,-0.132,1168.09,-41.932,764.831,0,0,0,
,1.256,0.33,-0.14,1268.615,-60.547,707.702,0,0,0,
,1.243,0.285,-0.147,1324.035,-84.046,660.766,0,0,0,
,1.193,0.244,-0.143,1332.763,-97.29,641.235,0,0,0,
,1.132,0.22,-0.127,1293.518,-101.319,641.357,0,0,0,
,1.076,0.189,-0.125,1206.604,-103.028,648.254,0,0,0,
,1.042,0.162,-0.12,1113.22,-111.512,668.579,0,0,0,
,1.018,0.143,-0.116,984.008,-125.977,696.533,0,0,0,
,1.003,0.134,-0.112,845.337,-136.963,733.764,0,0,0,
,0.998,0.137,-0.105,695.312,-144.959,764.709,0,0,0,
,0.996,0.151,-0.114,569.213,-140.503,790.039,0,0,0,
,0.999,0.163,-0.127,472.778,-136.048,807.739,0,0,0,
,0.999,0.175,-0.141,414.55,-132.874,818.969,0,0,0,
,0.998,0.166,-0.152,376.953,-121.216,823.791,0,0,0,
,0.973,0.156,-0.163,335.571,-101.624,834.167,0,0,0,
,0.968,0.151,-0.137,291.687,-78.553,824.279,0,0,0,
,0.953,0.151,-0.128,236.267,-41.321,818.176,0,0,0,
,0.937,0.155,-0.116,178.65,10.009,799.987,0,0,0,
,0.933,0.157,-0.118,116.027,60.424,769.409,0,0,0,
,0.942,0.158,-0.133,62.561,116.272,727.111,0,0,0,
,0.945,0.152,-0.14,16.235,162.414,682.739,0,0,0,
,0.931,0.155,-0.125,-26.123,212.28,635.803,0,0,0,
,0.933,0.174,-0.106,-63.843,279.174,565.124,0,0,0,
,0.946,0.182,-0.1,-89.783,352.111,495.422,0,0,0,
,0.961,0.193,-0.07,-95.276,428.527,410.888,0,0,0,
,0.962,0.208,-0.013,-78.492,514.648,316.955,0,0,0,
,0.954,0.244,0.045,-16.053,625.366,237.976,0,0,0,
,0.921,0.274,0.079,92.285,738.464,142.578,0,0,0,
,0.943,0.31,0.21,275.329,840.088,40.588,0,0,0,
,0.963,0.372,0.301,514.526,978.332,-51.453,0,0,0,
,0.938,0.419,0.394,789.672,1084.228,-136.719,0,0,0,
,0.87,0.432,0.448,1084.777,1183.96,-192.81,0,0,0,
,0.838,0.382,0.421,1308.838,1233.032,-260.376,0,0,0,
,0.854,0.292,0.364,1430.236,1222.168,-315.491,0,0,0,
,0.978,0.165,0.356,1409.668,1150.024,-387.33,0,0,0,
,1.104,0.028,0.375,1261.596,1022.461,-414.063,0,0,0,
,1.161,-0.096,0.448,1020.874,841.43,-372.742,0,0,0,
,1.163,-0.16,0.485,749.511,700.683,-314.637,0,0,0,
,1.193,-0.192,0.496,439.087,569.336,-311.951,0,0,0,
,1.217,-0.188,0.5,179.992,428.527,-287.232,0,0,0,
,1.163,-0.101,0.508,-31.067,312.561,-265.015,0,0,0,
,1.087,-0.046,0.529,-170.594,241.333,-300.599,0,0,0,
,1.03,0,0.524,-301.27,207.946,-362.366,0,0,0,
,1.003,0.058,0.517,-397.461,187.378,-442.322,0,0,0,
,0.991,0.108,0.498,-461.548,169.86,-531.8,0,0,0,
,0.984,0.16,0.462,-500.184,150.207,-613.465,0,0,0,
,0.985,0.215,0.411,-506.836,119.629,-691.346,0,0,0,
,0.987,0.25,0.349,-493.042,72.753,-755.799,0,0,0,
,0.979,0.276,0.289,-472.046,2.38,-808.716,0,0,0,
,0.959,0.297,0.236,-426.88,-73.243,-835.755,0,0,0,
,0.938,0.305,0.184,-371.338,-152.1,-848.694,0,0,0,
,0.921,0.304,0.138,-325.013,-224.122,-845.581,0,0,0,
,0.911,0.308,0.109,-289.429,-287.537,-833.924,0,0,0,
,0.908,0.326,0.086,-268.982,-342.896,-809.754,0,0,0,
,0.919,0.351,0.08,-246.46,-352.601,-783.387,0,0,0,
,0.931,0.382,0.07,-210.938,-355.835,-743.836,0,0,0,
,0.927,0.405,0.062,-168.396,-342.774,-695.862,0,0,0,
,0.906,0.427,0.078,-140.32,-313.111,-622.193,0,0,0,
,0.877,0.431,0.081,-128.357,-256.104,-537.476,0,0,0,
,0.861,0.428,0.069,-115.357,-186.524,-446.717,0,0,0,
,0.848,0.427,0.055,-92.53,-124.695,-337.83,0,0,0,
,0.86,0.42,0.052,-46.509,-52.491,-238.221,0,0,0,
,0.972,0.421,0.035,24.414,35.034,-164.246,0,0,0,
,1.167,0.44,0.009,120.544,108.337,-116.211,0,0,0,
,1.336,0.49,-0.015,231.506,147.155,-23.621,0,0,0,
,1.301,0.529,-0.001,363.769,132.934,108.947,0,0,0,
,1.145,0.536,0.028,526.55,157.348,168.151,0,0,0,
,1.049,0.489,0.01,656.616,189.819,187.5,0,0,0,
,0.991,0.428,0.004,758.667,186.523,241.516,0,0,0,
,0.896,0.386,0.042,817.566,167.602,336.975,0,0,0,
,0.841,0.364,0.075,854.431,180.481,406.494,0,0,0,
,0.907,0.355,0.085,889.343,207.397,445.922,0,0,0,
,1.059,0.352,0.052,918.518,206.482,483.703,0,0,0,
,1.103,0.344,0.021,962.28,153.686,539.489,0,0,0,
,1.134,0.338,0.006,1008.484,88.684,586.792,0,0,0,
,1.165,0.336,-0.018,1053.344,31.921,613.586,0,0,0,
,1.226,0.326,-0.059,1091.369,-39.429,621.032,0,0,0,
,1.278,0.299,-0.079,1123.474,-120.85,638.733,0,0,0,
,1.279,0.254,-0.075,1156.86,-200.318,682.556,0,0,0,
,1.224,0.2,-0.056,1139.648,-249.024,740.783,0,0,0,
,1.172,0.145,-0.046,1017.822,-262.696,790.527,0,0,0,
,1.122,0.089,-0.033,767.151,-265.809,851.135,0,0,0,
,1.067,0.062,-0.014,492.065,-260.193,934.265,0,0,0,
,1.024,0.062,0,163.025,-226.197,991.76,0,0,0,
,0.993,0.076,-0.002,-113.16,-179.932,1054.504,0,0,0,
,0.979,0.114,-0.025,-355.103,-124.024,1108.337,0,0,0,
,0.974,0.165,-0.046,-511.597,-80.872,1147.827,0,0,0,
,0.968,0.21,-0.067,-579.651,-50.293,1163.574,0,0,0,
,0.958,0.243,-0.077,-570.923,-23.377,1164.184,0,0,0,
,0.954,0.262,-0.087,-513.611,-2.747,1140.075,0,0,0,
,0.967,0.268,-0.102,-421.204,15.441,1096.801,0,0,0,
,0.981,0.269,-0.11,-329.529,18.005,1042.48,0,0,0,
,0.987,0.265,-0.087,-225.525,17.028,984.863,0,0,0,
,0.98,0.256,-0.058,-151.185,32.775,918.029,0,0,0,
,0.965,0.229,-0.044,-112.61,59.265,843.505,0,0,0,
,0.939,0.217,-0.044,-94.117,90.148,763.061,0,0,0,
,0.918,0.214,-0.044,-79.529,119.506,687.255,0,0,0,
,0.898,0.213,-0.035,-63.355,146.911,594.726,0,0,0,
,0.905,0.225,-0.032,-29.847,190.734,494.629,0,0,0,
,0.941,0.234,-0.036,27.465,236.755,384.033,0,0,0,
,0.979,0.236,-0.012,123.047,288.574,256.225,0,0,0,
,0.992,0.25,0.05,211.731,346.069,110.168,0,0,0,
,0.864,0.307,0.187,487.243,530.151,-181.58,0,0,0,
,0.791,0.335,0.277,672.119,638.977,-345.52,0,0,0,
,0.74,0.363,0.345,880.981,750.976,-504.578,0,0,0,
,0.707,0.376,0.363,1122.924,835.693,-628.052,0,0,0,
,0.715,0.339,0.329,1346.13,906.311,-756.226,0,0,0,
,0.923,0.162,0.251,1508.3,914.367,-988.404,0,0,0,
,1.061,0.041,0.263,1365.783,827.88,-1072.388,0,0,0,
,1.146,-0.063,0.283,1094.543,727.722,-1088.501,0,0,0,
,1.203,-0.158,0.285,767.883,611.267,-1078.064,0,0,0,
,1.257,-0.227,0.269,372.741,501.77,-1046.082,0,0,0,
,1.299,-0.252,0.279,-54.2,380.432,-977.967,0,0,0,
,1.254,-0.192,0.319,-456.91,272.522,-887.452,0,0,0,
,1.156,-0.098,0.345,-851.197,217.468,-837.586,0,0,0,
,1.097,-0.037,0.323,-1175.721,193.115,-834.961,0,0,0,
,1.077,0.025,0.279,-1436.097,164.795,-830.994,0,0,0,
,1.078,0.12,0.207,-1613.16,116.638,-826.722,0,0,0,
,1.111,0.209,0.126,-1706.604,49.011,-835.816,0,0,0,
,1.149,0.292,0.041,-1695.801,-54.749,-833.985,0,0,0,
,1.161,0.349,-0.016,-1602.601,-197.754,-813.294,0,0,0,
,1.144,0.375,-0.062,-1452.149,-314.331,-790.955,0,0,0,
,0.889,0.452,-0.007,-575.745,-73.914,-721.497,0,0,0,
,0.966,0.478,-0.006,-555.481,-31.128,-659.18,0,0,0,
,1.05,0.487,-0.018,-533.265,9.704,-570.252,0,0,0,
,1.149,0.494,-0.037,-498.78,47.546,-442.383,0,0,0,
,1.234,0.517,-0.036,-459.839,84.045,-296.692,0,0,0,
,1.214,0.546,-0.047,-421.265,113.098,-114.685,0,0,0,
,1.134,0.56,-0.025,-372.62,141.418,64.758,0,0,0,
,1.032,0.528,0.012,-303.467,208.618,219.421,0,0,0,
,0.92,0.479,0.063,-187.623,289.978,397.094,0,0,0,
,0.825,0.457,0.114,-77.881,380.676,585.998,0,0,0,
,0.783,0.456,0.17,53.039,483.825,722.534,0,0,0,
,0.824,0.471,0.203,215.332,580.505,823.12,0,0,0,
,0.92,0.483,0.217,432.983,660.522,897.766,0,0,0,
,1.026,0.486,0.127,659.729,698.974,971.801,0,0,0,
,1.159,0.491,0.071,893.982,666.565,1020.874,0,0,0,
,1.326,0.481,0,1100.769,569.03,1062.255,0,0,0,
,1.472,0.442,-0.05,1277.038,423.156,1090.088,0,0,0,
,1.552,0.369,-0.052,1419.983,227.111,1106.079,0,0,0,
,1.502,0.294,0.002,1508.239,63.598,1115.417,0,0,0,
,1.432,0.231,0.06,1587.768,-25.452,1136.413,0,0,0,
,1.322,0.155,0.093,1652.099,-75.44,1156.433,0,0,0,
,1.243,0.08,0.079,1646.179,-97.962,1161.621,0,0,0,
,1.172,0.012,0.057,1489.38,-145.997,1139.099,0,0,0,
,1.082,-0.029,0.065,1198.974,-208.924,1114.013,0,0,0,
,0.989,-0.041,0.095,805.542,-244.263,1085.876,0,0,0,
,0.925,-0.039,0.127,439.27,-234.436,1041.992,0,0,0,
,0.894,-0.02,0.147,113.098,-194.886,996.887,0,0,0,
,0.869,0.052,0.149,-105.225,-139.405,957.336,0,0,0,
,0.843,0.109,0.131,-211.792,-101.685,897.644,0,0,0,
,0.821,0.154,0.115,-221.619,-76.783,815.429,0,0,0,
,0.811,0.184,0.088,-159.363,-69.519,728.881,0,0,0,
,0.815,0.204,0.077,-57.801,-80.811,624.145,0,0,0,
,0.83,0.213,0.073,54.26,-102.784,505.493,0,0,0,
,0.843,0.199,0.063,159.79,-125.123,391.235,0,0,0,
,0.854,0.153,0.071,193.115,-156.434,267.761,0,0,0,
,0.833,0.118,0.09,182.129,-171.509,169.494,0,0,0,
,0.846,0.118,0.104,162.658,-155.518,67.199,0,0,0,
,0.863,0.117,0.098,119.262,-138.428,-24.964,0,0,0,
,0.878,0.114,0.096,67.382,-117.981,-111.084,0,0,0,
,0.959,0.102,0.077,-6.287,-82.642,-235.108,0,0,0,
,1.054,0.089,0.054,-111.756,-55.664,-350.708,0,0,0,
,1.085,0.108,0.105,-212.22,-27.527,-459.778,0,0,0,
,1.06,0.158,0.191,-261.414,53.405,-576.355,0,0,0,
,1.074,0.211,0.235,-245.728,164.734,-730.225,0,0,0,
,1.08,0.245,0.264,-179.627,253.357,-864.685,0,0,0,
,1.02,0.271,0.292,-90.455,325.317,-970.093,0,0,0,
,0.963,0.264,0.299,-20.63,379.211,-1059.876,0,0,0,
,0.958,0.231,0.287,26.489,414.917,-1116.7,0,0,0,
,0.997,0.18,0.237,41.626,420.227,-1135.743,0,0,0,
,1.138,0.001,0.042,-244.69,193.603,-1026.856,0,0,0,
,1.199,0.012,0.012,-435.425,54.565,-957.276,0,0,0,
,1.254,0.053,0.01,-629.029,-77.21,-887.269,0,0,0,
,1.241,0.091,0.028,-846.924,-178.406,-837.159,0,0,0,
,1.199,0.115,0.044,-1041.26,-234.375,-819.153,0,0,0,
,1.138,0.145,0.042,-1249.329,-256.409,-800.599,0,0,0,
,1.058,0.18,0.01,-1425.171,-271.79,-785.096,0,0,0,
,0.988,0.205,-0.023,-1583.863,-284.18,-774.781,0,0,0,
,0.942,0.221,-0.049,-1705.384,-295.289,-768.555,0,0,0,
,0.917,0.238,-0.057,-1776.917,-302.002,-753.479,0,0,0,
,0.899,0.271,-0.062,-1808.472,-299.866,-732.483,0,0,0,
,0.902,0.307,-0.045,-1781.983,-286.56,-723.389,0,0,0,
,0.915,0.348,-0.045,-1702.576,-264.344,-721.253,0,0,0,
,0.922,0.388,-0.053,-1573.243,-238.099,-717.225,0,0,0,
,0.901,0.415,-0.066,-1422.364,-226.502,-710.389,0,0,0,
,0.875,0.434,-0.077,-1228.699,-217.774,-709.229,0,0,0,
,0.846,0.435,-0.091,-1055.237,-212.403,-700.379,0,0,0,
,0.823,0.434,-0.087,-911.866,-197.266,-678.894,0,0,0,
,0.815,0.435,-0.069,-822.022,-176.636,-643.555,0,0,0,
,0.822,0.428,-0.037,-780.518,-131.226,-598.145,0,0,0,
,0.825,0.413,0.002,-772.767,-64.393,-525.208,0,0,0,
,0.871,0.4,0.046,-774.17,22.766,-454.468,0,0,0,
,1.01,0.391,0.088,-759.461,144.897,-388.428,0,0,0,
,1.154,0.38,0.072,-739.747,254.455,-284.18,0,0,0,
,1.238,0.388,0.047,-714.966,328.918,-158.509,0,0,0,
,1.225,0.415,0.054,-696.717,360.473,-20.935,0,0,0,
,1.157,0.427,0.067,-680.97,380.981,70.8,0,0,0,
,1.103,0.406,0.059,-650.391,399.414,138.061,0,0,0,
,1.053,0.381,0.053,-609.498,380.554,221.862,0,0,0,
,0.984,0.378,0.094,-567.81,346.374,316.711,0,0,0,
,0.901,0.385,0.145,-510.56,337.402,391.174,0,0,0,
,0.844,0.408,0.188,-424.012,349.914,449.279,0,0,0,
,0.854,0.444,0.212,-294.678,377.197,472.29,0,0,0,
,1.126,0.523,0.256,402.954,390.442,529.846,0,0,0,
,1.244,0.513,0.258,717.041,390.319,551.88,0,0,0,
,1.368,0.461,0.21,996.948,362.182,576.538,0,0,0,
,1.417,0.364,0.194,1271.179,251.587,640.319,0,0,0,
,1.343,0.257,0.168,1448.486,124.694,719.848,0,0,0,
,1.259,0.135,0.134,1496.276,-8.789,736.206,0,0,0,
,1.175,0.003,0.111,1357.727,-160.34,733.276,0,0,0,
,1.078,-0.085,0.147,1067.993,-304.139,736.084,0,0,0,
,0.97,-0.111,0.219,640.075,-389.466,743.774,0,0,0,
,0.894,-0.102,0.254,292.846,-402.1,748.474,0,0,0,
,0.837,-0.079,0.259,-69.947,-388.55,747.131,0,0,0,
,0.783,-0.025,0.242,-350.037,-364.808,739.807,0,0,0,
,0.738,0.033,0.231,-584.717,-334.9,722.656,0,0,0,
,0.714,0.087,0.217,-725.892,-304.627,670.959,0,0,0,
,0.736,0.139,0.192,-778.748,-270.264,608.52,0,0,0,
,0.787,0.186,0.156,-751.099,-258.789,538.818,0,0,0,
,0.835,0.213,0.105,-662.72,-274.109,460.632,0,0,0,
,0.859,0.224,0.077,-530.518,-315.186,380.31,0,0,0,
,0.88,0.222,0.066,-404.175,-363.16,284.912,0,0,0,
,0.89,0.219,0.068,-274.048,-397.095,175.048,0,0,0,
,0.886,0.215,0.071,-173.34,-419.007,85.51,0,0,0,
,0.892,0.186,0.088,-128.846,-406.617,-20.447,0,0,0,
,0.889,0.151,0.097,-139.222,-412.964,-108.033,0,0,0,
,0.86,0.139,0.108,-195.374,-394.471,-176.758,0,0,0,
,0.846,0.134,0.103,-276.978,-362.793,-244.812,0,0,0,
,0.93,0.117,0.053,-378.296,-322.083,-347.413,0,0,0,
,1.099,0.103,-0.018,-493.287,-302.063,-459.473,0,0,0,
,1.185,0.124,-0.068,-613.404,-345.154,-526.001,0,0,0,
,1.104,0.194,-0.009,-690.918,-388.367,-569.397,0,0,0,
,1.014,0.234,0.074,-729.493,-349.915,-681.397,0,0,0,
,1.037,0.26,0.098,-737.122,-267.09,-812.439,0,0,0,
,1.018,0.278,0.122,-714.478,-214.051,-879.151,0,0,0,
,0.929,0.291,0.142,-672.913,-148.987,-916.077,0,0,0,
,0.89,0.286,0.127,-630.249,-90.882,-955.811,0,0,0,
,0.942,0.264,0.113,-582.215,-39.978,-983.155,0,0,0,
,1.017,0.245,0.107,-554.749,-16.236,-971.375,0,0,0,
,1.048,0.248,0.126,-545.044,-6.653,-925.293,0,0,0,
,1.066,0.265,0.144,-540.528,10.925,-877.442,0,0,0,
,1.098,0.269,0.128,-522.889,25.329,-838.99,0,0,0,
,1.132,0.248,0.091,-510.315,20.08,-789.368,0,0,0,
,1.124,0.209,0.055,-528.504,-24.659,-727.539,0,0,0,
,1.066,0.19,0.033,-594.849,-97.535,-663.636,0,0,0,
,0.988,0.18,0.023,-697.449,-162.72,-610.108,0,0,0,
,0.928,0.17,0.019,-834.046,-209.473,-576.172,0,0,0,
,0.891,0.172,0.018,-993.042,-237.671,-551.453,0,0,0,
,0.866,0.2,0.013,-1135.376,-250.184,-527.955,0,0,0,
,0.856,0.236,0.011,-1256.409,-250.916,-513.733,0,0,0,
,0.865,0.277,0.002,-1319.581,-233.399,-509.095,0,0,0,
,0.884,0.307,-0.003,-1332.581,-215.271,-510.56,0,0,0,
,0.907,0.339,0.002,-1292.664,-196.473,-517.456,0,0,0,
,0.921,0.367,0.008,-1212.098,-174.317,-527.405,0,0,0,
,0.928,0.382,-0.006,-1101.136,-145.63,-541.138,0,0,0,
,0.941,0.386,-0.007,-975.342,-136.78,-561.829,0,0,0,
,0.918,0.38,-0.019,-893.799,-132.325,-564.759,0,0,0,
,0.877,0.38,-0.011,-823.792,-128.54,-568.177,0,0,0,
,0.863,0.38,0.006,-775.269,-108.887,-571.106,0,0,0,
,0.862,0.395,0.035,-747.254,-78.186,-566.529,0,0,0,
,0.866,0.405,0.084,-736.634,-30.701,-545.227,0,0,0,
,0.867,0.417,0.116,-730.103,35.461,-509.644,0,0,0,
,0.879,0.431,0.136,-719.178,101.135,-460.389,0,0,0,
,0.909,0.448,0.138,-683.716,158.203,-413.147,0,0,0,
,0.987,0.474,0.145,-620.057,215.942,-368.47,0,0,0,
,1.099,0.506,0.13,-515.137,261.352,-327.149,0,0,0,
,1.256,0.55,0.12,-373.536,299.377,-281.861,0,0,0,
,1.352,0.584,0.09,-215.516,298.828,-198.853,0,0,0,
,1.365,0.596,0.096,-10.621,264.16,-101.319,0,0,0,
,1.279,0.561,0.134,172.424,233.032,17.15,0,0,0,
,1.165,0.494,0.225,322.448,224.06,140.197,0,0,0,
,1.035,0.433,0.331,449.585,250.671,272.4,0,0,0,
,0.927,0.38,0.421,544.922,298.584,429.443,0,0,0,
,0.85,0.331,0.446,635.192,359.497,554.443,0,0,0,
,0.827,0.28,0.422,700.622,396.118,675.659,0,0,0,
,0.88,0.237,0.366,747.68,416.687,756.775,0,0,0,
,1.003,0.208,0.246,742.004,374.755,803.894,0,0,0,
,1.129,0.178,0.103,691.284,215.088,825.744,0,0,0,
,1.25,0.165,0.039,644.592,-55.298,838.562,0,0,0,
,1.295,0.169,-0.004,617.92,-300.904,851.257,0,0,0,
,1.304,0.171,-0.011,638.488,-535.95,835.876,0,0,0,
,1.268,0.144,0.018,656.86,-714.478,808.227,0,0,0,
,1.2,0.115,0.108,623.352,-791.687,781.86,0,0,0,
,1.117,0.093,0.173,472.229,-755.738,754.394,0,0,0,
,1.034,0.078,0.204,257.812,-662.232,738.22,0,0,0,
,0.951,0.08,0.218,4.272,-551.331,729.675,0,0,0,
,0.888,0.092,0.229,-176.087,-421.387,728.393,0,0,0,
,0.842,0.122,0.217,-276.246,-279.664,739.196,0,0,0,
,0.836,0.145,0.185,-304.139,-147.217,752.929,0,0,0,
,0.858,0.175,0.147,-288.819,-66.712,760.009,0,0,0,
,0.885,0.206,0.118,-221.985,-34.974,756.652,0,0,0,
,0.889,0.218,0.097,-138.184,-36.927,739.135,0,0,0,
,0.881,0.196,0.097,-59.266,-63.233,711.792,0,0,0,
,0.875,0.164,0.093,-11.536,-88.44,676.635,0,0,0,
,0.879,0.14,0.101,10.803,-124.085,639.953,0,0,0,
,0.876,0.132,0.119,23.315,-155.945,588.379,0,0,0,
,0.868,0.126,0.131,30.395,-171.875,506.897,0,0,0,
,0.855,0.118,0.142,22.216,-183.533,435.058,0,0,0,
,0.833,0.106,0.148,0.732,-186.951,338.806,0,0,0,
,0.808,0.102,0.171,-31.434,-179.993,237.365,0,0,0,
,0.791,0.097,0.182,-69.519,-160.218,119.934,0,0,0,
,0.774,0.098,0.177,-116.517,-144.776,7.202,0,0,0,
,0.76,0.096,0.176,-175.477,-125.245,-120.728,0,0,0,
,0.76,0.089,0.178,-242.127,-108.826,-243.775,0,0,0,
,0.79,0.094,0.183,-309.144,-89.783,-364.869,0,0,0,
,0.876,0.113,0.157,-354.493,-64.27,-505.494,0,0,0,
,0.986,0.124,0.111,-381.836,-55.909,-649.781,0,0,0,
,1.085,0.128,0.077,-422.974,-63.355,-804.81,0,0,0,
,1.131,0.133,0.079,-483.887,-72.876,-941.407,0,0,0,
,1.155,0.17,0.1,-546.204,-54.2,-1092.041,0,0,0,
,1.209,0.226,0.14,-570.862,-21.851,-1253.357,0,0,0,
,1.229,0.282,0.185,-559.754,23.376,-1368.653,0,0,0,
,1.152,0.322,0.225,-503.174,76.843,-1435.059,0,0,0,
,1.089,0.318,0.238,-422.974,131.042,-1479.249,0,0,0,
,1.104,0.258,0.212,-381.409,176.025,-1494.751,0,0,0,
,1.17,0.186,0.16,-402.222,191.04,-1453.858,0,0,0,
,1.223,0.139,0.083,-516.358,156.189,-1377.686,0,0,0,
,1.265,0.068,0.004,-695.191,76.294,-1272.706,0,0,0,
,1.31,0.039,-0.064,-924.683,-51.209,-1113.099,0,0,0,
,1.319,0.064,-0.094,-1152.283,-190.674,-927.613,0,0,0,
,1.289,0.122,-0.079,-1336.609,-296.936,-775.269,0,0,0,
,1.203,0.161,-0.056,-1507.264,-356.934,-642.456,0,0,0,
,1.111,0.181,-0.028,-1647.156,-371.277,-533.753,0,0,0,
,1.001,0.2,-0.039,-1781.983,-359.375,-440.735,0,0,0,
,0.909,0.216,-0.053,-1880.738,-344.483,-367.127,0,0,0,
,0.855,0.237,-0.074,-1934.998,-326.294,-328.797,0,0,0,
,0.83,0.268,-0.099,-1945.191,-316.59,-301.636,0,0,0,
,0.823,0.303,-0.122,-1924.378,-315.064,-290.345,0,0,0,
,0.826,0.334,-0.138,-1840.821,-318.238,-291.382,0,0,0,
,0.836,0.353,-0.145,-1707.459,-328.003,-303.894,0,0,0,
,0.835,0.361,-0.159,-1534.607,-338.196,-319.031,0,0,0,
,0.833,0.361,-0.167,-1356.995,-345.704,-340.149,0,0,0,
,0.828,0.359,-0.169,-1176.148,-344.178,-362.977,0,0,0,
,0.804,0.351,-0.172,-1012.94,-326.477,-387.391,0,0,0,
,0.785,0.341,-0.157,-886.597,-300.049,-416.748,0,0,0,
,0.738,0.35,-0.009,-625.428,-49.5,-498.23,0,0,0,
,0.756,0.341,0.037,-564.576,102.417,-532.288,0,0,0,
,0.835,0.323,0.059,-546.814,239.685,-557.618,0,0,0,
,0.999,0.342,0.08,-505.677,372.253,-590.394,0,0,0,
,1.158,0.396,0.098,-442.627,485.046,-595.704,0,0,0,
,1.138,0.496,0.099,-25.757,654.297,-491.394,0,0,0,
,1.038,0.428,0.087,90.576,636.413,-419.19,0,0,0,
,0.978,0.381,0.126,154.052,601.562,-302.552,0,0,0,
,0.915,0.354,0.199,190.612,569.458,-173.035,0,0,0,
,0.891,0.347,0.28,236.328,572.998,-20.997,0,0,0,
,0.938,0.356,0.32,312.011,609.253,110.473,0,0,0,
,1.052,0.364,0.323,392.456,609.497,245.239,0,0,0,
,1.161,0.329,0.303,470.581,552.429,400.817,0,0,0,
,1.286,0.304,0.322,543.396,432.617,528.869,0,0,0,
,1.408,0.287,0.277,593.505,321.106,663.818,0,0,0,
,1.532,0.25,0.243,671.814,133.056,776.916,0,0,0,
,1.529,0.176,0.219,752.868,-114.197,918.029,0,0,0,
,1.205,-0.052,0.242,512.146,-594.239,1052.002,0,0,0,
,1.088,-0.076,0.286,219.848,-650.147,1053.1,0,0,0,
,0.978,-0.053,0.326,-97.474,-630.005,1057.983,0,0,0,
,0.902,-0.007,0.315,-345.154,-566.224,1042.358,0,0,0,
,0.847,0.045,0.282,-528.931,-495.789,1005.554,0,0,0,
,0.808,0.076,0.219,-653.443,-440.003,959.716,0,0,0,
,0.762,0.099,0.21,-726.99,-389.588,898.925,0,0,0,
,0.734,0.123,0.161,-757.081,-354.004,832.031,0,0,0,
,0.725,0.151,0.156,-728.516,-347.352,745.605,0,0,0,
,0.735,0.189,0.152,-653.626,-337.586,641.662,0,0,0,
,0.77,0.218,0.132,-529.602,-334.168,519.714,0,0,0,
,0.807,0.193,0.069,-136.231,-414.368,118.408,0,0,0,
,0.805,0.164,0.067,-80.567,-440.491,-19.227,0,0,0,
,0.814,0.135,0.07,-86.182,-447.327,-140.076,0,0,0,
,0.833,0.126,0.065,-143.311,-440.125,-249.573,0,0,0,
,0.841,0.122,0.069,-233.216,-426.575,-335.999,0,0,0,
,1.116,0.117,-0.029,-526.795,-324.219,-676.026,0,0,0,
,1.237,0.152,-0.064,-622.925,-359.986,-757.874,0,0,0,
,1.125,0.3,0.095,-696.106,-318.116,-914.978,0,0,0,
,0.968,0.267,0.17,-505.982,-106.019,-970.032,0,0,0,
,0.974,0.216,0.16,-426.636,-43.091,-926.941,0,0,0,
,1.042,0.175,0.138,-371.216,-4.517,-821.045,0,0,0,
,1.084,0.171,0.153,-388.855,-14.1,-689.82,0,0,0,
,1.099,0.185,0.127,-477.478,-49.5,-579.651,0,0,0,
,1.098,0.197,0.121,-583.13,-86.731,-518.738,0,0,0,
,1.077,0.216,0.083,-753.296,-242.615,-462.037,0,0,0,
,1.003,0.203,0.084,-843.018,-264.771,-471.436,0,0,0,
,0.929,0.203,0.072,-917.908,-265.32,-493.164,0,0,0,
,0.868,0.198,0.062,-1024.353,-257.813,-524.659,0,0,0,
,0.833,0.202,0.046,-1135.315,-248.597,-552.796,0,0,0,
,0.815,0.225,0.033,-1244.202,-239.441,-578.736,0,0,0,
,0.817,0.259,0.028,-1311.646,-226.563,-607.056,0,0,0,
,0.832,0.298,0.036,-1324.524,-215.455,-632.203,0,0,0,
,0.85,0.337,0.047,-1265.625,-190.491,-654.541,0,0,0,
,0.859,0.366,0.06,-1156.067,-170.594,-669.434,0,0,0,
,0.854,0.384,0.051,-998.23,-152.894,-676.392,0,0,0,
,0.813,0.38,0.032,-847.962,-149.537,-672.73,0,0,0,
,0.831,0.372,0.026,-735.596,-162.964,-666.199,0,0,0,
,0.814,0.358,0.047,-698.06,-168.58,-659.79,0,0,0,
,0.806,0.354,0.089,-709.717,-160.218,-656.128,0,0,0,
,0.808,0.385,0.146,-729.798,-111.268,-642.518,0,0,0,
,0.834,0.428,0.207,-716.37,-43.824,-629.944,0,0,0,
,0.893,0.469,0.221,-673.768,42.663,-622.254,0,0,0,
,0.999,0.508,0.209,-610.413,102.417,-605.713,0,0,0,
,1.153,0.567,0.199,-510.743,134.216,-588.318,0,0,0,
,1.244,0.632,0.161,-385.498,140.38,-510.926,0,0,0,
,1.222,0.678,0.16,-235.84,110.046,-405.518,0,0,0,
,1.168,0.677,0.173,-73.182,115.234,-280.945,0,0,0,
,1.118,0.605,0.155,39.184,122.924,-143.677,0,0,0,
,1.063,0.517,0.168,109.253,121.887,-1.587,0,0,0,
,0.98,0.447,0.206,144.531,129.089,176.574,0,0,0,
,0.905,0.437,0.243,157.898,150.024,326.355,0,0,0,
,0.896,0.474,0.265,198.181,193.786,422.424,0,0,0,
,0.963,0.508,0.236,296.508,228.759,463.562,0,0,0,
,1.046,0.521,0.193,458.191,225.891,496.704,0,0,0,
,1.112,0.519,0.163,628.601,186.828,532.959,0,0,0,
,1.161,0.497,0.128,836.181,131.958,563.842,0,0,0,
,1.23,0.461,0.085,1044.372,70.373,599.121,0,0,0,
,1.299,0.39,0.042,1194.946,2.014,631.164,0,0,0,
,1.313,0.293,0.031,1288.574,-95.581,702.392,0,0,0,
,1.246,0.205,0.051,1281.799,-173.462,792.419,0,0,0,
,1.145,0.141,0.067,1163.818,-215.21,865.295,0,0,0,
,1.073,0.093,0.077,983.886,-235.474,923.523,0,0,0,
,1.038,0.067,0.072,741.638,-247.498,976.135,0,0,0,
,0.997,0.066,0.075,475.83,-257.386,1032.776,0,0,0,
,0.955,0.083,0.076,283.996,-248.719,1077.148,0,0,0,
,0.931,0.125,0.07,128.112,-225.342,1103.088,0,0,0,
,0.928,0.164,0.054,44.372,-201.722,1113.586,0,0,0,
,0.923,0.175,0.046,0.976,-185.73,1104.37,0,0,0,
,0.918,0.184,0.044,-14.954,-166.748,1085.51,0,0,0,
,0.915,0.187,0.046,-8.728,-148.499,1055.359,0,0,0,
,0.938,0.182,0.045,1.098,-130.921,1007.751,0,0,0,
,0.948,0.174,0.035,3.54,-122.071,957.885,0,0,0,
,0.945,0.16,0.04,-7.569,-119.935,899.109,0,0,0,
,0.926,0.149,0.042,-32.288,-113.16,826.599,0,0,0,
,0.911,0.147,0.038,-60.486,-107.239,757.995,0,0,0,
,0.886,0.146,0.048,-86.731,-100.464,668.945,0,0,0,
,0.859,0.152,0.068,-104.248,-84.107,565.368,0,0,0,
,0.842,0.157,0.077,-119.568,-58.533,479.004,0,0,0,
,0.836,0.17,0.091,-120.667,-35.95,366.882,0,0,0,
,0.87,0.181,0.093,-100.769,3.54,247.497,0,0,0,
,0.956,0.18,0.065,-69.581,38.513,100.647,0,0,0,
,1.036,0.174,0.047,-44.007,58.044,-37.598,0,0,0,
,1.026,0.163,0.061,-29.664,78.186,-167.42,0,0,0,
,0.943,0.183,0.161,-12.757,117.981,-310.181,0,0,0,
,0.899,0.212,0.237,20.629,211.425,-472.352,0,0,0,
,0.901,0.226,0.276,75.073,307.922,-645.386,0,0,0,
,0.87,0.235,0.292,147.033,374.084,-767.456,0,0,0,
,0.832,0.234,0.307,192.749,424.438,-881.409,0,0,0,
,0.846,0.204,0.303,210.937,466.735,-992.31,0,0,0,
,0.93,0.162,0.311,197.692,489.441,-1070.984,0,0,0,
,1.022,0.143,0.328,152.282,495.788,-1120.545,0,0,0,
,1.106,0.136,0.321,62.744,492.736,-1142.579,0,0,0,
,1.176,0.127,0.286,-47.181,457.519,-1158.143,0,0,0,
,1.235,0.087,0.232,-191.529,400.817,-1161.988,0,0,0,
,1.274,0.041,0.177,-361.817,306.518,-1120.118,0,0,0,
,1.258,0.046,0.142,-545.289,183.899,-1046.021,0,0,0,
,1.179,0.061,0.148,-770.569,49.133,-987.427,0,0,0,
,1.1,0.086,0.151,-1002.32,-41.138,-946.9,0,0,0,
,1.044,0.128,0.13,-1250.55,-104.859,-911.927,0,0,0,
,1.007,0.19,0.086,-1458.252,-162.598,-884.705,0,0,0,
,1.001,0.258,0.033,-1574.463,-222.107,-862.977,0,0,0,
,1.007,0.344,0.008,-1599.732,-281.983,-838.685,0,0,0,
,1.01,0.435,0.005,-1521.607,-331.36,-804.322,0,0,0,
,0.989,0.5,-0.004,-1344.666,-358.582,-779.297,0,0,0,
,0.971,0.537,-0.005,-1104.065,-364.075,-755.249,0,0,0,
,0.957,0.549,-0.006,-864.869,-355.286,-731.507,0,0,0,
,0.944,0.536,0.001,-633.057,-320.862,-694.458,0,0,0,
,0.92,0.514,0.021,-462.098,-288.086,-643.128,0,0,0,
,0.872,0.49,0.044,-349.671,-239.136,-583.68,0,0,0,
,0.835,0.474,0.057,-303.406,-180.42,-523.255,0,0,0,
,0.83,0.464,0.059,-300.66,-124.878,-476.197,0,0,0,
,0.846,0.476,0.057,-330.75,-77.149,-411.377,0,0,0,
,0.86,0.505,0.052,-353.028,-43.885,-335.022,0,0,0,
,0.879,0.539,0.031,-349.793,-21.424,-262.635,0,0,0,
,0.913,0.581,0,-301.27,-3.602,-189.393,0,0,0,
,1.001,0.62,-0.037,-195.069,12.268,-132.569,0,0,0,
,1.166,0.657,-0.068,-43.335,19.714,-77.027,0,0,0,
,1.307,0.679,-0.09,141.784,15.014,2.807,0,0,0,
,1.337,0.627,-0.063,313.72,1.892,150.695,0,0,0,
,1.265,0.536,-0.02,452.636,19.47,282.043,0,0,0,
,1.171,0.5,0.012,548.034,67.81,393.859,0,0,0,
,1.066,0.433,0.032,588.073,119.629,514.77,0,0,0,
,1.021,0.401,0.06,592.773,162.536,628.234,0,0,0,
,0.975,0.389,0.079,597.595,205.688,712.951,0,0,0,
,1,0.397,0.064,632.507,244.201,758.911,0,0,0,
,1.097,0.414,0.021,712.036,250.488,783.447,0,0,0,
,1.196,0.421,-0.027,821.594,214.111,810.547,0,0,0,
,1.279,0.417,-0.056,959.961,141.967,831.237,0,0,0,
,1.342,0.4,-0.081,1088.989,61.035,852.966,0,0,0,
,1.391,0.362,-0.108,1208.679,-10.804,857.849,0,0,0,
,1.408,0.304,-0.131,1284.729,-97.474,871.643,0,0,0,
,1.353,0.239,-0.112,1313.415,-172.425,907.776,0,0,0,
,1.243,0.181,-0.082,1282.47,-213.013,951.843,0,0,0,
,1.162,0.133,-0.053,1187.805,-220.154,990.844,0,0,0,
,1.099,0.098,-0.042,1025.085,-213.99,1022.4,0,0,0,
,1.048,0.08,-0.033,817.749,-198.853,1059.082,0,0,0,
,1.004,0.082,-0.025,624.206,-182.373,1085.083,0,0,0,
,0.958,0.106,-0.019,436.157,-155.579,1098.449,0,0,0,
,0.933,0.147,-0.027,317.199,-124.451,1094.238,0,0,0,
,0.925,0.169,-0.043,245.056,-97.962,1068.176,0,0,0,
,0.92,0.178,-0.062,208.435,-84.717,1023.681,0,0,0,
,0.914,0.182,-0.065,203.308,-75.806,989.135,0,0,0,
,0.901,0.186,-0.065,214.05,-68.299,938.293,0,0,0,
,0.889,0.182,-0.064,230.163,-55.787,884.887,0,0,0,
,0.892,0.171,-0.082,242.492,-49.012,821.35,0,0,0,
,0.889,0.157,-0.082,232.788,-43.213,750,0,0,0,
,0.886,0.136,-0.084,185.669,-37.171,682.8,0,0,0,
,0.862,0.121,-0.085,120.3,-27.527,608.886,0,0,0,
,0.838,0.12,-0.079,39.489,-2.381,539.306,0,0,0,
,0.814,0.13,-0.084,-32.41,31.799,451.965,0,0,0,
,0.825,0.144,-0.098,-78.858,71.35,342.651,0,0,0,
,0.921,0.148,-0.137,-120.911,124.511,214.294,0,0,0,
,0.986,0.151,-0.137,-144.532,163.147,94.421,0,0,0,
,0.895,0.189,-0.04,-139.588,213.684,4.455,0,0,0,
,0.8,0.24,0.11,-94.666,345.825,-138.55,0,0,0,
,0.771,0.29,0.221,-28.87,521.85,-322.022,0,0,0,
,0.732,0.32,0.24,103.698,687.317,-436.89,0,0,0,
,0.738,0.34,0.3,287.109,795.898,-565.43,0,0,0,
,0.811,0.341,0.274,492.248,929.565,-680.542,0,0,0,
,0.944,0.324,0.224,674.804,1011.474,-791.626,0,0,0,
,1.047,0.294,0.231,807.8,1034.301,-870.423,0,0,0,
,1.101,0.278,0.275,872.07,1026.794,-917.237,0,0,0,
,1.145,0.257,0.306,894.287,1024.78,-962.037,0,0,0,
,1.205,0.195,0.301,876.159,1001.342,-1007.447,0,0,0,
,1.261,0.08,0.295,805.236,926.269,-1012.024,0,0,0,
,1.244,-0.031,0.319,637.878,795.288,-944.092,0,0,0,
,1.15,-0.109,0.351,381.713,645.568,-842.347,0,0,0,
,1.058,-0.144,0.358,35.095,531.189,-763.977,0,0,0,
,1.002,-0.135,0.351,-313.233,431.457,-714.783,0,0,0,
,0.999,-0.061,0.356,-603.211,344.299,-675.538,0,0,0,
,1.035,0.039,0.373,-836.304,258.239,-674.5,0,0,0,
,1.078,0.164,0.368,-963.685,171.875,-677.918,0,0,0,
,1.098,0.28,0.345,-981.934,83.679,-696.9,0,0,0,
,1.085,0.372,0.302,-891.053,-7.569,-728.455,0,0,0,
,1.064,0.416,0.255,-762.391,-94.117,-761.78,0,0,0,
,1.05,0.429,0.212,-600.22,-169.495,-798.34,0,0,0,
,1.056,0.428,0.173,-466.492,-236.329,-821.717,0,0,0,
,1.066,0.444,0.142,-347.962,-310.425,-824.097,0,0,0,
,1.065,0.49,0.126,-243.531,-369.08,-814.27,0,0,0,
,1.063,0.555,0.134,-118.836,-408.143,-786.988,0,0,0,
,1.045,0.622,0.135,41.442,-417.054,-738.892,0,0,0,
,1.006,0.66,0.133,196.289,-406.189,-656.922,0,0,0,
,0.976,0.66,0.127,345.398,-371.033,-559.327,0,0,0,
,0.953,0.601,0.114,431.396,-316.285,-429.444,0,0,0,
,0.95,0.506,0.099,466.491,-274.598,-283.692,0,0,0,
,0.963,0.393,0.069,450.683,-229.004,-105.835,0,0,0,
,1.04,0.316,0.033,385.009,-188.416,75.5,0,0,0,
,1.197,0.312,-0.003,270.813,-170.777,226.379,0,0,0,
,1.314,0.354,-0.02,149.902,-200.196,391.784,0,0,0,
,1.25,0.379,0.013,62.866,-254.395,556.213,0,0,0,
,1.11,0.409,0.057,41.565,-238.831,656.677,0,0,0,
,1.075,0.421,0.062,53.772,-180.726,678.588,0,0,0,
,1.089,0.414,-0.018,99.243,-157.654,709.9,0,0,0,
,1.068,0.419,-0.037,175.354,-169.19,764.282,0,0,0,
,1.038,0.419,-0.047,284.973,-160.462,761.718,0,0,0,
,1.071,0.41,-0.08,412.658,-146.18,749.511,0,0,0,
,1.132,0.392,-0.109,572.509,-144.41,742.248,0,0,0,
,1.168,0.375,-0.129,741.577,-165.284,748.657,0,0,0,
,1.182,0.358,-0.141,880.676,-172.547,754.699,0,0,0,
,1.186,0.326,-0.166,1002.441,-173.096,757.751,0,0,0,
,1.187,0.277,-0.187,1072.998,-177.185,769.897,0,0,0,
,1.153,0.236,-0.204,1102.356,-177.369,802.063,0,0,0,
,1.092,0.188,-0.211,1096.374,-174.927,849.182,0,0,0,
,1.044,0.163,-0.204,1061.95,-161.316,890.136,0,0,0,
,1.018,0.14,-0.202,1000.549,-123.475,930.359,0,0,0,
,1.001,0.127,-0.211,930.969,-78.797,983.398,0,0,0,
,0.979,0.127,-0.214,858.764,-26.001,999.755,0,0,0,
,0.965,0.136,-0.217,811.523,31.433,1018.737,0,0,0,
,0.959,0.151,-0.194,779.968,96.008,1023.01,0,0,0,
,0.956,0.166,-0.192,762.329,175.171,1007.751,0,0,0,
,0.955,0.164,-0.213,752.441,232.36,956.176,0,0,0,
,0.951,0.155,-0.218,740.539,271.972,917.175,0,0,0,
,0.95,0.144,-0.215,699.035,295.166,844.482,0,0,0,
,0.956,0.142,-0.205,622.253,316.345,765.38,0,0,0,
,0.977,0.147,-0.184,525.573,336.12,669.555,0,0,0,
,0.98,0.152,-0.184,428.772,349.243,590.393,0,0,0,
,0.969,0.159,-0.175,357.849,353.149,517.212,0,0,0,
,0.963,0.162,-0.167,303.283,356.384,450.683,0,0,0,
,0.973,0.176,-0.152,248.657,357.177,396.484,0,0,0,
,0.976,0.194,-0.115,216.858,366.516,351.989,0,0,0,
,0.969,0.217,-0.066,208.862,395.324,323.608,0,0,0,
,1.002,0.231,-0.06,223.877,454.712,288.696,0,0,0,
,1.092,0.22,-0.1,234.619,505.432,252.624,0,0,0,
,1.17,0.197,-0.1,242.065,527.588,228.271,0,0,0,
,1.142,0.207,-0.026,250.183,555.542,234.985,0,0,0,
,1.055,0.24,0.049,273.986,639.16,212.951,0,0,0,
,1.035,0.265,0.142,326.599,735.656,156.616,0,0,0,
,1.038,0.303,0.229,434.448,845.947,114.929,0,0,0,
,1.015,0.341,0.304,597.046,967.468,92.59,0,0,0,
,0.968,0.352,0.334,809.387,1053.405,77.087,0,0,0,
,0.923,0.337,0.324,1002.99,1095.764,70.983,0,0,0,
,0.936,0.307,0.318,1137.817,1090.942,62.011,0,0,0,
,0.965,0.273,0.316,1221.801,1052.063,34.484,0,0,0,
,1.08,0.231,0.339,1231.567,972.778,-6.348,0,0,0,
,1.16,0.18,0.369,1204.467,862.426,-33.631,0,0,0,
,1.177,0.116,0.404,1135.925,739.196,-55.237,0,0,0,
,1.178,0.043,0.417,1036.438,640.869,-98.938,0,0,0,
,1.175,-0.043,0.411,879.089,533.508,-141.358,0,0,0,
,1.121,-0.11,0.431,678.161,430.114,-164.917,0,0,0,
,1.033,-0.121,0.479,424.865,343.383,-193.177,0,0,0,
,0.944,-0.076,0.494,170.349,310.974,-244.935,0,0,0,
,0.899,-0.032,0.473,-60.975,293.335,-316.224,0,0,0,
,0.883,0.013,0.436,-268.372,262.085,-404.786,0,0,0,
,0.891,0.08,0.388,-414.978,220.276,-481.324,0,0,0,
,0.909,0.142,0.344,-511.719,158.02,-548.096,0,0,0,
,0.917,0.205,0.302,-541.077,82.397,-612.061,0,0,0,
,0.928,0.248,0.26,-518.738,6.347,-668.519,0,0,0,
,0.94,0.283,0.225,-452.759,-70.557,-719.117,0,0,0,
,0.937,0.301,0.2,-371.766,-136.963,-752.991,0,0,0,
,0.934,0.318,0.182,-277.588,-201.722,-782.227,0,0,0,
,0.923,0.326,0.162,-195.496,-236.023,-801.636,0,0,0,
,0.912,0.329,0.15,-128.235,-262.879,-817.139,0,0,0,
,0.917,0.33,0.132,-88.685,-272.461,-828.125,0,0,0,
,0.94,0.337,0.127,-66.712,-276.673,-823.609,0,0,0,
,0.969,0.351,0.118,-50.965,-270.02,-808.35,0,0,0,
,0.987,0.371,0.116,-33.387,-260.926,-771.79,0,0,0,
,0.995,0.397,0.106,-7.935,-251.099,-724.427,0,0,0,
,1.001,0.425,0.069,11.169,-229.004,-664.185,0,0,0,
,1.009,0.453,0.033,28.442,-230.469,-585.999,0,0,0,
,1.015,0.477,0.009,53.649,-228.638,-484.742,0,0,0,
,1.049,0.49,-0.006,105.102,-213.013,-389.161,0,0,0,
,1.124,0.483,-0.025,181.091,-188.355,-281.495,0,0,0,
,1.164,0.462,-0.02,262.817,-170.227,-136.902,0,0,0,
,1.119,0.435,0.006,345.153,-145.935,21.179,0,0,0,
,1.056,0.409,0.023,395.691,-83.863,152.099,0,0,0,
,1.049,0.395,0.012,418.151,-20.813,235.962,0,0,0,
,1.046,0.395,0.002,429.016,6.042,324.951,0,0,0,
,0.998,0.409,0.011,463.44,21.606,401.794,0,0,0,
,0.952,0.422,0.004,534.546,42.907,441.345,0,0,0,
,0.958,0.432,-0.022,630.981,57.251,460.937,0,0,0,
,1.001,0.442,-0.063,760.864,50.109,459.9,0,0,0,
,1.054,0.438,-0.084,917.358,18.737,465.515,0,0,0,
,1.087,0.424,-0.089,1059.814,-17.151,481.567,0,0,0,
,1.11,0.39,-0.088,1189.514,-44.19,497.253,0,0,0,
,1.148,0.34,-0.098,1273.62,-62.073,507.812,0,0,0,
,1.21,0.312,-0.117,1325.256,-79.956,528.747,0,0,0,
,1.24,0.28,-0.128,1339.294,-123.352,573.303,0,0,0,
,1.213,0.251,-0.113,1321.533,-158.631,629.516,0,0,0,
,1.156,0.229,-0.104,1261.657,-179.627,684.692,0,0,0,
,1.115,0.21,-0.105,1172.424,-190.064,722.107,0,0,0,
,1.104,0.185,-0.105,1059.57,-200.074,766.235,0,0,0,
,1.1,0.175,-0.114,947.876,-214.173,822.082,0,0,0,
,1.1,0.17,-0.124,839.416,-228.516,869.873,0,0,0,
,1.089,0.171,-0.126,746.948,-244.507,918.945,0,0,0,
,1.088,0.175,-0.136,674.072,-249.268,957.58,0,0,0,
,1.098,0.176,-0.152,608.52,-253.785,988.22,0,0,0,
,1.094,0.165,-0.167,559.57,-261.475,1016.235,0,0,0,
,1.083,0.155,-0.165,506.286,-263.123,1037.231,0,0,0,
,1.073,0.15,-0.159,450.683,-235.23,1043.701,0,0,0,
,1.074,0.148,-0.154,377.075,-224.366,1037.841,0,0,0,
,1.089,0.147,-0.153,305.053,-188.965,1020.813,0,0,0,
,1.085,0.147,-0.155,225.647,-153.87,1002.197,0,0,0,
,1.073,0.143,-0.155,126.831,-108.765,971.069,0,0,0,
,1.053,0.139,-0.163,57.983,-53.894,941.772,0,0,0,
,1.043,0.143,-0.157,-32.471,6.103,905.212,0,0,0,
,1.073,0.147,-0.164,-110.169,78.247,853.759,0,0,0,
,1.146,0.153,-0.186,-182.007,163.635,799.194,0,0,0,
,1.162,0.153,-0.165,-232.544,240.661,761.047,0,0,0,
,1.08,0.166,-0.098,-246.705,343.933,726.44,0,0,0,
,1.022,0.199,-0.024,-239.624,479.431,641.845,0,0,0,
,0.978,0.228,0.032,-193.787,625.183,539.489,0,0,0,
,0.896,0.259,0.12,-94.544,756.775,452.453,0,0,0,
,0.799,0.291,0.213,63.293,889.282,359.802,0,0,0,
,0.742,0.322,0.292,290.954,1003.662,284.179,0,0,0,
,0.723,0.356,0.318,548.462,1096.923,196.35,0,0,0,
,0.771,0.353,0.289,851.928,1158.142,103.088,0,0,0,
,0.858,0.317,0.248,1092.956,1158.081,3.784,0,0,0,
,0.93,0.27,0.23,1237.548,1080.932,-75.806,0,0,0,
,0.971,0.19,0.261,1246.521,958.435,-185.791,0,0,0,
,0.997,0.107,0.34,1189.27,862.304,-297.73,0,0,0,
,1.042,0.01,0.422,1067.871,792.968,-418.213,0,0,0,
,1.083,-0.072,0.527,915.893,745.605,-523.865,0,0,0,
,1.047,-0.128,0.606,714.538,720.825,-597.596,0,0,0,
,0.975,-0.162,0.649,474.426,712.036,-672.791,0,0,0,
,0.91,-0.175,0.651,169.494,706.909,-756.531,0,0,0,
,0.878,-0.154,0.638,-129.7,698.242,-856.69,0,0,0,
,0.902,-0.099,0.612,-390.015,669.494,-950.318,0,0,0,
,0.971,-0.026,0.574,-611.573,612.732,-1068.543,0,0,0,
,1.052,0.044,0.504,-772.278,534.973,-1142.64,0,0,0,
,1.14,0.131,0.425,-859.009,405.273,-1194.764,0,0,0,
,1.207,0.217,0.343,-879.273,228.332,-1209.9,0,0,0,
,1.209,0.272,0.275,-849.549,40.71,-1187.745,0,0,0,
,1.157,0.322,0.226,-813.294,-157.898,-1133.484,0,0,0,
,1.104,0.361,0.159,-783.387,-288.147,-1079.651,0,0,0,
,1.048,0.435,0.095,-764.466,-438.416,-978.211,0,0,0,
,1.015,0.548,0.117,-697.998,-529.541,-866.822,0,0,0,
,0.984,0.652,0.153,-517.273,-550.477,-740.845,0,0,0,
,0.947,0.685,0.166,-267.273,-511.353,-614.747,0,0,0,
,0.908,0.627,0.152,15.502,-426.026,-485.84,0,0,0,
,0.933,0.526,0.114,188.11,-335.633,-348.633,0,0,0,
,0.946,0.446,0.076,258.056,-250.672,-223.694,0,0,0,
,1.04,0.402,0.026,235.412,-186.463,-100.769,0,0,0,
,1.206,0.406,-0.032,175.109,-137.757,-4.517,0,0,0,
,1.357,0.418,-0.074,121.215,-139.466,81.604,0,0,0,
,1.32,0.441,-0.046,108.459,-181.153,231.628,0,0,0,
,1.167,0.476,0.009,143.249,-153.382,298.278,0,0,0,
,1.098,0.479,0.007,210.205,-65.003,292.114,0,0,0,
,1.065,0.462,-0.016,286.438,-21.973,303.283,0,0,0,
,0.94,0.463,0.003,362.365,7.934,346.374,0,0,0,
,0.887,0.463,0.017,442.138,52.856,364.135,0,0,0,
,0.876,0.468,0.004,562.561,99.426,362.304,0,0,0,
,0.927,0.469,-0.035,701.233,126.281,364.013,0,0,0,
,1.002,0.461,-0.071,851.318,107.971,392.089,0,0,0,
,1.047,0.424,-0.095,958.557,66.711,439.026,0,0,0,
,1.091,0.383,-0.103,1027.343,19.836,483.154,0,0,0,
,1.133,0.364,-0.119,1078.857,-22.767,547.241,0,0,0,
,1.155,0.333,-0.123,1129.577,-59.815,612.426,0,0,0,
,1.152,0.278,-0.116,1148.681,-86.06,692.566,0,0,0,
,1.108,0.222,-0.1,1129.455,-105.774,778.32,0,0,0,
,1.061,0.178,-0.077,1054.138,-103.516,850.525,0,0,0,
,1.031,0.154,-0.056,949.401,-87.281,918.09,0,0,0,
,1.019,0.15,-0.046,807.922,-72.449,971.374,0,0,0,
,1.012,0.15,-0.037,656.677,-50.965,1017.639,0,0,0,
,1.003,0.125,-0.038,534.057,-35.95,1047.546,0,0,0,
,0.995,0.158,-0.041,404.235,-15.259,1066.955,0,0,0,
,1.002,0.16,-0.05,323.181,-2.991,1073.791,0,0,0,
,1.005,0.167,-0.063,256.591,7.507,1072.815,0,0,0,
,1,0.176,-0.074,212.829,8.361,1060.424,0,0,0,
,0.993,0.168,-0.094,171.814,8.117,1037.841,0,0,0,
,0.998,0.16,-0.062,118.347,23.254,999.755,0,0,0,
,1.007,0.152,-0.065,62.133,29.113,954.345,0,0,0,
,0.998,0.157,-0.052,8.117,37.353,910.888,0,0,0,
,0.966,0.165,-0.025,-34.852,60.241,860.168,0,0,0,
,0.946,0.166,-0.009,-74.891,85.815,791.32,0,0,0,
,0.941,0.154,0.006,-113.099,121.948,708.984,0,0,0,
,0.934,0.151,0.021,-158.997,139.526,614.074,0,0,0,
,0.94,0.159,0.031,-200.562,165.588,531.311,0,0,0,
,1.021,0.179,0.005,-241.944,197.387,395.996,0,0,0,
,1.12,0.188,-0.011,-286.499,208.007,271.911,0,0,0,
,1.064,0.211,0.051,-304.017,198.913,175.598,0,0,0,
,0.938,0.237,0.166,-288.392,244.751,60.73,0,0,0,
,0.883,0.275,0.253,-212.281,351.013,-100.892,0,0,0,
,0.876,0.312,0.331,-65.552,454.223,-244.629,0,0,0,
,0.852,0.351,0.404,158.203,559.021,-341.492,0,0,0,
,0.817,0.361,0.446,400.024,669.799,-445.435,0,0,0,
,0.843,0.334,0.44,654.48,737.548,-545.411,0,0,0,
,0.983,0.228,0.463,960.693,783.874,-680.176,0,0,0,
,1.038,0.164,0.498,993.774,755.432,-723.816,0,0,0,
,1.076,0.074,0.475,925.232,711.181,-766.114,0,0,0,
,1.141,-0.027,0.423,735.839,626.587,-806.58,0,0,0,
,1.181,-0.129,0.365,467.224,481.018,-818.848,0,0,0,
,1.157,-0.179,0.328,133.972,303.466,-783.509,0,0,0,
,1.076,-0.152,0.312,-201.722,114.929,-732.3,0,0,0,
,1.007,-0.106,0.304,-481.324,-17.456,-693.36,0,0,0,
,0.964,-0.05,0.283,-776.49,-114.808,-681.153,0,0,0,
,0.953,0.028,0.244,-1034.363,-199.585,-679.81,0,0,0,
,0.958,0.112,0.21,-1265.503,-252.869,-688.721,0,0,0,
,0.956,0.194,0.161,-1429.81,-316.468,-692.2,0,0,0,
,0.948,0.263,0.103,-1488.282,-361.573,-691.468,0,0,0,
,0.963,0.317,0.049,-1472.046,-407.349,-699.036,0,0,0,
,0.982,0.355,0.005,-1377.625,-452.393,-699.891,0,0,0,
,0.99,0.386,-0.006,-1223.145,-496.216,-699.158,0,0,0,
,0.979,0.404,-0.025,-1054.505,-507.813,-702.698,0,0,0,
,0.973,0.412,-0.043,-876.831,-505.86,-712.891,0,0,0,
,0.964,0.405,-0.049,-765.259,-487.488,-733.216,0,0,0,
,0.952,0.377,-0.027,-777.405,-463.929,-740.174,0,0,0,
,0.939,0.358,0.002,-903.809,-429.383,-729.615,0,0,0,
,0.924,0.419,0.008,-1029.969,-388.855,-665.345,0,0,0,
,0.893,0.564,-0.006,-1101.258,-356.385,-580.689,0,0,0,
,0.88,0.751,0.011,-1079.957,-340.699,-524.842,0,0,0,
,0.915,0.929,0.149,-985.169,-323.304,-465.027,0,0,0,
,0.927,1.061,0.208,-770.569,-239.747,-333.619,0,0,0,
,1.028,1.206,0.279,-518.006,-191.529,-182.19,0,0,0,
,1.186,1.278,0.267,-311.28,-143.067,-12.696,0,0,0,
,1.267,1.247,0.322,-168.946,-173.34,218.689,0,0,0,
,1.248,1.139,0.494,-176.758,-186.158,442.871,0,0,0,
,1.165,1.052,0.584,-265.748,-174.195,666.198,0,0,0,
,1.163,1.043,0.64,-368.103,-136.475,843.567,0,0,0,
,1.19,1.057,0.643,-405.579,-129.7,955.627,0,0,0,
,1.154,1.015,0.674,-344.91,-163.819,1042.541,0,0,0,
,1.084,0.936,0.69,-251.526,-200.379,1119.018,0,0,0,
,1.084,0.857,0.681,-195.679,-263.733,1171.203,0,0,0,
,1.224,0.802,0.599,-177.491,-332.459,1196.838,0,0,0,
,1.366,0.729,0.517,-215.516,-416.443,1217.895,0,0,0,
,1.409,0.604,0.472,-310.181,-512.696,1245.056,0,0,0,
,1.369,0.573,0.49,-433.289,-571.289,1295.227,0,0,0,
,1.269,0.589,0.468,-468.811,-539.002,1321.655,0,0,0,
,1.229,0.564,0.42,-390.442,-480.164,1307.006,0,0,0,
,1.191,0.514,0.343,-239.93,-407.044,1278.564,0,0,0,
,1.112,0.464,0.287,-99.427,-393.738,1237.487,0,0,0,
,1.004,0.338,0.26,87.951,-401.246,1156.86,0,0,0,
,0.91,0.245,0.247,201.538,-384.827,1081.665,0,0,0,
,0.819,0.125,0.192,246.948,-366.944,1000.976,0,0,0,
,0.694,-0.011,0.206,215.149,-373.963,885.742,0,0,0,
,0.577,-0.063,0.214,76.843,-347.535,784.668,0,0,0,
,0.501,-0.014,0.216,-92.652,-297.303,643.371,0,0,0,
,0.452,0.014,0.209,-168.702,-248.902,476.745,0,0,0,
,0.399,-0.001,0.155,-182.068,-205.079,381.164,0,0,0,
,0.367,0.015,0.156,-244.141,-185.975,295.227,0,0,0,
,0.359,0.064,0.162,-386.902,-164.429,208.374,0,0,0,
,0.403,0.137,0.136,-508.667,-138.733,119.629,0,0,0,
,0.402,0.142,0.11,-567.017,-142.518,69.58,0,0,0,
,0.342,0.126,0.103,-570.191,-119.507,69.397,0,0,0,
,0.302,0.139,0.103,-568.36,-68.604,47.485,0,0,0,
,0.306,0.19,0.063,-562.806,2.624,-20.081,0,0,0,
,0.329,0.226,0.025,-519.165,49.56,-134.156,0,0,0,
,0.333,0.236,0.025,-398.377,75.073,-248.597,0,0,0,
,0.343,0.268,0.072,-252.564,116.272,-362.366,0,0,0,
,0.396,0.291,0.043,-114.869,190.673,-499.695,0,0,0,
,0.554,0.26,-0.002,-1.16,265.442,-658.814,0,0,0,
,0.61,0.209,-0.028,15.747,231.872,-707.093,0,0,0,
,0.55,0.232,0.009,-25.757,220.886,-699.097,0,0,0,
,0.594,0.298,0.065,-93.323,296.325,-798.706,0,0,0,
,0.719,0.38,0.117,-110.413,356.933,-906.189,0,0,0,
