TIMECODE,ACC_X,ACC_Y,ACC_Z,GYR_X,GYR_Y,GYR_Z,ECG_I,ECG_II,ECG_III,TAG
,-0.356,0.753,0.554,-17.945,7.385,-28.626,0,0,0,
,-0.351,0.752,0.557,-14.344,10.07,-30.945,0,0,0,
,-0.355,0.755,0.558,-14.771,10.376,-30.152,0,0,0,
,-0.356,0.75,0.558,-16.175,11.901,-30.335,0,0,0,
,-0.353,0.75,0.556,-16.785,8.422,-30.762,0,0,0,
,-0.355,0.749,0.557,-18.921,8.544,-29.541,0,0,0,
,-0.355,0.751,0.557,-19.41,10.376,-29.48,0,0,0,
,-0.353,0.75,0.554,-17.64,9.643,-29.908,0,0,0,
,-0.354,0.753,0.557,-18.433,10.62,-30.762,0,0,0,
,-0.355,0.751,0.556,-17.456,8.239,-27.894,0,0,0,
,-0.353,0.751,0.556,-16.724,8.85,-30.152,0,0,0,
,-0.353,0.753,0.556,-15.564,7.263,-29.725,0,0,0,
,-0.355,0.749,0.554,-16.724,8.728,-31.373,0,0,0,
,-0.353,0.75,0.56,-15.32,6.164,-30.823,0,0,0,
,-0.356,0.72,0.556,-19.41,7.141,-30.518,0,0,0,
,-0.354,0.75,0.559,-15.686,8.3,-31.8,0,0,0,
,-0.35,0.753,0.553,-18.738,10.315,-29.847,0,0,0,
,-0.354,0.752,0.557,-17.029,10.07,-32.349,0,0,0,
,-0.355,0.751,0.556,-30.945,14.099,-30.823,0,0,0,
,-0.352,0.75,0.557,-16.358,12.085,-15.931,0,0,0,
,-0.353,0.751,0.56,-19.349,12.39,-33.02,0,0,0,
,-0.355,0.751,0.555,-18.799,13.305,-33.509,0,0,0,
,-0.351,0.751,0.558,-17.456,12.817,-33.326,0,0,0,
,-0.355,0.751,0.557,-20.447,15.747,-33.265,0,0,0,
,-0.354,0.753,0.558,-18.677,14.221,-34.241,0,0,0,
,-0.353,0.751,0.556,-16.907,14.465,-33.57,0,0,0,
,-0.352,0.75,0.559,-18.006,13.916,-33.509,0,0,0,
,-0.352,0.75,0.56,-17.518,14.892,-35.706,0,0,0,
,-0.353,0.752,0.557,-17.212,13.305,-34.974,0,0,0,
,-0.351,0.752,0.556,-19.288,14.16,-33.875,0,0,0,
,-0.352,0.753,0.557,-18.555,13,-33.936,0,0,0,
,-0.352,0.753,0.554,-18.067,12.695,-34.729,0,0,0,
,-0.351,0.752,0.554,-18.25,15.136,-33.081,0,0,0,
,-0.352,0.751,0.554,-15.87,16.784,-34.424,0,0,0,
,-0.352,0.755,0.557,-19.227,12.207,-34.729,0,0,0,
,-0.351,0.751,0.556,-15.198,13.366,-35.34,0,0,0,
,-0.349,0.751,0.555,-17.884,16.54,-35.523,0,0,0,
,-0.351,0.751,0.557,-18.738,16.54,-34.607,0,0,0,
,-0.35,0.755,0.557,-16.541,12.939,-34.18,0,0,0,
,-0.349,0.756,0.556,-13.733,16.54,-34.668,0,0,0,
,-0.351,0.751,0.559,-12.452,17.456,-34.363,0,0,0,
,-0.35,0.752,0.562,-14.771,13.366,-36.499,0,0,0,
,-0.349,0.752,0.554,-15.259,16.906,-34.546,0,0,0,
,-0.348,0.755,0.562,-16.358,14.892,-34.424,0,0,0,
,-0.349,0.753,0.56,-15.076,14.831,-33.204,0,0,0,
,-0.347,0.753,0.558,-14.039,13.183,-34.058,0,0,0,
,-0.347,0.751,0.552,-17.823,14.892,-34.363,0,0,0,
,-0.345,0.752,0.56,-18.128,12.817,-35.584,0,0,0,
,-0.348,0.753,0.557,-17.823,12.634,-35.096,0,0,0,
,-0.346,0.751,0.559,-14.466,16.174,-35.767,0,0,0,
,-0.348,0.753,0.558,-16.114,14.892,-33.753,0,0,0,
,-0.351,0.753,0.557,-18.128,14.038,-33.814,0,0,0,
,-0.345,0.755,0.56,-16.907,0.915,-34.363,0,0,0,
,-0.346,0.755,0.556,-16.663,12.573,-34.18,0,0,0,
,-0.346,0.752,0.559,-18.372,17.089,-34.18,0,0,0,
,-0.344,0.756,0.553,-17.334,14.526,-33.509,0,0,0,
,-0.348,0.754,0.555,-18.86,13.488,-33.57,0,0,0,
,-0.347,0.755,0.557,-18.555,15.014,-34.913,0,0,0,
,-0.346,0.753,0.559,-15.748,14.587,-33.448,0,0,0,
,-0.341,0.749,0.559,-16.785,14.038,-33.081,0,0,0,
,-0.344,0.755,0.559,-17.945,13.61,-31.067,0,0,0,
,-0.346,0.756,0.557,-20.447,10.925,-33.448,0,0,0,
,-0.346,0.759,0.557,-18.921,13,-34.363,0,0,0,
,-0.347,0.757,0.557,-16.236,12.023,-36.133,0,0,0,
,-0.348,0.755,0.556,-13.855,16.235,-35.096,0,0,0,
,-0.341,0.753,0.557,-13.855,13.488,-33.448,0,0,0,
,-0.341,0.751,0.564,-15.076,13.122,-34.974,0,0,0,
,-0.343,0.748,0.557,-20.386,12.512,-33.448,0,0,0,
,-0.34,0.757,0.551,-12.452,9.826,-28.199,0,0,0,
,-0.342,0.758,0.56,-10.621,11.535,-29.48,0,0,0,
,-0.344,0.752,0.557,-10.071,10.07,-29.786,0,0,0,
,-0.344,0.75,0.561,-14.344,8.85,-30.701,0,0,0,
,-0.342,0.755,0.56,-18.677,8.972,-29.847,0,0,0,
,-0.345,0.755,0.56,-16.602,5.737,-30.091,0,0,0,
,-0.344,0.756,0.559,-17.273,10.803,-30.091,0,0,0,
,-0.342,0.756,0.561,-14.039,10.986,-30.579,0,0,0,
,-0.347,0.753,0.56,-11.658,9.46,-29.541,0,0,0,
,-0.342,0.753,0.557,-13.123,8.667,-29.114,0,0,0,
,-0.343,0.753,0.561,-16.236,10.925,-27.222,0,0,0,
,-0.346,0.756,0.557,-17.151,8.239,-29.053,0,0,0,
,-0.343,0.756,0.558,-16.968,5.249,-28.504,0,0,0,
,-0.346,0.755,0.558,-15.809,7.751,-27.955,0,0,0,
,-0.344,0.755,0.556,-13.55,5.92,-30.274,0,0,0,
,-0.347,0.754,0.56,-12.085,6.164,-29.114,0,0,0,
,-0.344,0.753,0.558,-11.963,6.836,-30.579,0,0,0,
,-0.344,0.755,0.559,-14.527,3.967,-30.335,0,0,0,
,-0.345,0.752,0.558,-11.414,4.577,-31.311,0,0,0,
,-0.344,0.754,0.559,-13.916,4.699,-29.725,0,0,0,
,-0.347,0.753,0.556,-14.832,7.385,-29.236,0,0,0,
,-0.346,0.749,0.557,-15.564,6.713,-30.64,0,0,0,
,-0.345,0.754,0.559,-14.771,4.638,-31.189,0,0,0,
,-0.347,0.754,0.56,-18.189,5.798,-31.678,0,0,0,
,-0.344,0.756,0.56,-17.029,6.042,-28.321,0,0,0,
,-0.347,0.754,0.561,-15.625,7.263,-31.678,0,0,0,
,-0.346,0.755,0.561,-13.123,5.798,-30.152,0,0,0,
,-0.344,0.751,0.56,-13.367,11.047,-32.044,0,0,0,
,-0.346,0.755,0.56,-16.297,10.742,-31.006,0,0,0,
,-0.347,0.753,0.563,-16.114,8.789,-28.748,0,0,0,
,-0.345,0.756,0.559,-15.503,8.178,-31.189,0,0,0,
,-0.344,0.754,0.558,-15.87,7.446,-30.396,0,0,0,
,-0.346,0.753,0.555,-14.405,8.85,-30.64,0,0,0,
,-0.344,0.754,0.56,-13.001,10.376,-31.556,0,0,0,
,-0.347,0.751,0.558,-14.588,9.704,-31.556,0,0,0,
,-0.346,0.755,0.562,-15.748,9.948,-30.579,0,0,0,
,-0.346,0.754,0.559,-16.785,9.826,-29.908,0,0,0,
,-0.346,0.752,0.558,-16.114,12.146,-31.311,0,0,0,
,-0.344,0.755,0.557,-13.855,6.713,-29.664,0,0,0,
,-0.343,0.752,0.56,-13.123,5.493,-29.786,0,0,0,
,-0.344,0.752,0.563,-13.123,5.371,-31.983,0,0,0,
,-0.344,0.751,0.558,-14.832,7.69,-31.067,0,0,0,
,-0.347,0.751,0.558,-13.672,7.263,-30.396,0,0,0,
,-0.345,0.755,0.558,-14.161,6.958,-31.556,0,0,0,
,-0.344,0.751,0.562,-12.513,7.995,-29.175,0,0,0,
,-0.347,0.752,0.559,-12.085,8.789,-28.626,0,0,0,
,-0.347,0.752,0.558,-14.71,6.347,-29.908,0,0,0,
,-0.347,0.753,0.562,-16.114,5.798,-29.908,0,0,0,
,-0.345,0.752,0.558,-14.1,3.906,-28.809,0,0,0,
,-0.348,0.753,0.561,-15.564,7.385,-29.541,0,0,0,
,-0.347,0.752,0.557,-17.151,7.69,-30.091,0,0,0,
,-0.347,0.754,0.559,-14.283,5.432,-31.189,0,0,0,
,-0.348,0.754,0.561,-16.236,6.042,-28.077,0,0,0,
,-0.346,0.752,0.56,-14.222,6.897,-30.03,0,0,0,
,-0.347,0.751,0.563,-15.32,7.263,-29.236,0,0,0,
,-0.348,0.751,0.561,-15.503,6.53,-29.664,0,0,0,
,-0.345,0.751,0.562,-15.809,4.699,-29.664,0,0,0,
,-0.348,0.751,0.558,-16.236,6.286,-28.687,0,0,0,
,-0.346,0.752,0.559,-17.273,8.056,-28.382,0,0,0,
,-0.347,0.753,0.561,-15.564,7.08,-28.26,0,0,0,
,-0.347,0.751,0.56,-13.428,5.676,-28.443,0,0,0,
,-0.345,0.751,0.557,-16.053,7.385,-25.879,0,0,0,
,-0.349,0.753,0.557,-17.823,5.981,-28.87,0,0,0,
,-0.347,0.754,0.561,-20.447,3.906,-28.87,0,0,0,
,-0.349,0.753,0.554,-14.649,7.995,-31.311,0,0,0,
,-0.35,0.754,0.559,-11.353,5.127,-31.006,0,0,0,
,-0.348,0.752,0.56,-11.292,8.056,-31.678,0,0,0,
,-0.349,0.748,0.561,-11.475,6.591,-30.945,0,0,0,
,-0.35,0.751,0.559,-14.283,8.728,-31.739,0,0,0,
,-0.346,0.749,0.558,-16.663,6.713,-29.908,0,0,0,
,-0.35,0.75,0.56,-20.691,4.76,-27.527,0,0,0,
,-0.351,0.754,0.555,-14.893,6.958,-29.175,0,0,0,
,-0.35,0.755,0.559,-15.381,8.728,-27.527,0,0,0,
,-0.348,0.751,0.557,-13.123,10.253,-27.955,0,0,0,
,-0.348,0.751,0.558,-13.916,7.873,-28.382,0,0,0,
,-0.351,0.753,0.56,-18.555,7.446,-29.847,0,0,0,
,-0.346,0.753,0.558,-14.405,5.065,-30.274,0,0,0,
,-0.352,0.755,0.56,-16.663,6.591,-30.335,0,0,0,
,-0.349,0.752,0.562,-12.391,8.972,-30.335,0,0,0,
,-0.348,0.751,0.559,-12.635,9.948,-31.678,0,0,0,
,-0.347,0.747,0.558,-14.161,8.483,-28.87,0,0,0,
,-0.349,0.749,0.559,-16.297,8.789,-28.016,0,0,0,
,-0.352,0.753,0.561,-18.372,9.094,-29.48,0,0,0,
,-0.349,0.754,0.559,-15.809,8.178,-30.579,0,0,0,
,-0.35,0.754,0.559,-14.71,9.094,-28.748,0,0,0,
,-0.348,0.751,0.557,-13.733,8.85,-30.03,0,0,0,
,-0.348,0.751,0.562,-14.832,5.371,-30.335,0,0,0,
,-0.349,0.75,0.563,-15.625,6.469,-31.861,0,0,0,
,-0.349,0.751,0.558,-17.151,5.859,-29.664,0,0,0,
,-0.35,0.752,0.557,-17.334,4.577,-28.626,0,0,0,
,-0.349,0.75,0.558,-16.602,4.394,-31.434,0,0,0,
,-0.349,0.754,0.557,-15.442,6.897,-29.053,0,0,0,
,-0.351,0.751,0.56,-13.733,4.577,-30.274,0,0,0,
,-0.351,0.751,0.56,-13.794,4.882,-30.64,0,0,0,
,-0.352,0.751,0.558,-17.334,9.033,-29.786,0,0,0,
,-0.352,0.751,0.562,-15.992,9.216,-31.25,0,0,0,
,-0.35,0.75,0.557,-16.48,9.216,-30.884,0,0,0,
,-0.351,0.752,0.559,-13.367,7.446,-30.091,0,0,0,
,-0.353,0.753,0.559,-14.954,9.948,-30.579,0,0,0,
,-0.35,0.751,0.558,-13.428,10.681,-31.8,0,0,0,
,-0.35,0.753,0.556,-18.006,8.606,-30.945,0,0,0,
,-0.346,0.752,0.558,-15.32,11.047,-29.969,0,0,0,
,-0.348,0.752,0.56,-15.442,9.582,-30.518,0,0,0,
,-0.35,0.751,0.56,-16.785,10.07,-31.25,0,0,0,
,-0.35,0.749,0.564,-15.686,9.338,-30.945,0,0,0,
,-0.352,0.751,0.559,-17.823,10.192,-30.091,0,0,0,
,-0.347,0.752,0.564,-16.724,11.901,-32.715,0,0,0,
,-0.351,0.751,0.562,-14.954,12.268,-31.311,0,0,0,
,-0.349,0.751,0.557,-16.236,10.498,-32.837,0,0,0,
,-0.354,0.752,0.561,-17.884,15.014,-32.532,0,0,0,
,-0.361,0.758,0.565,-18.067,17.456,-38.086,0,0,0,
,-0.364,0.759,0.569,-18.677,21.606,-49.073,0,0,0,
,-0.367,0.772,0.593,-22.4,30.7,-58.655,0,0,0,
,-0.385,0.793,0.573,-2.32,33.63,-94.483,0,0,0,
,-0.435,0.819,0.586,-14.71,85.632,-136.658,0,0,0,
,-0.503,0.819,0.69,-79.834,162.353,-209.534,0,0,0,
,-0.661,0.759,0.868,-299.256,262.756,-287.842,0,0,0,
,-0.812,0.682,1.196,-600.525,342.224,-292.42,0,0,0,
,-0.877,0.602,1.37,-1088.196,406.921,-166.199,0,0,0,
,-0.596,1.516,1.729,-1890.259,118.652,468.75,0,0,0,
,-0.243,3.381,1.079,1740.722,-538.086,1909.24,0,0,0,
,-0.092,2.218,0.733,1999.694,-844.422,1999.694,0,0,0,
,0.09,1.789,0.446,1531.25,-1219.422,1999.694,0,0,0,
,0.41,1.663,0.036,1098.816,-1419.8,1999.694,0,0,0,
,1.047,0.662,-0.741,1711.853,-1545.166,1999.694,0,0,0,
,1.1,0.306,-0.843,1908.142,-1587.708,1999.694,0,0,0,
,1.05,-0.113,-0.937,1924.804,-1521.912,1999.694,0,0,0,
,0.871,-0.618,-1.02,1681.762,-1360.84,1999.694,0,0,0,
,0.65,-1.262,-1.033,1327.148,-1140.748,1999.694,0,0,0,
,0.419,-1.849,-0.99,1009.094,-905.457,1999.694,0,0,0,
,0.223,-2.589,-0.721,1226.745,-592.225,1325.073,0,0,0,
,0.151,-1.625,-0.939,1261.657,20.324,290.771,0,0,0,
,0.021,-1.209,-1.036,660.583,536.316,-1033.57,0,0,0,
,0.127,-1.626,-0.92,-484.925,775.879,-1828.858,0,0,0,
,0.27,-1.336,-0.827,-1919.8,827.27,-2000,0,0,0,
,0.381,-0.695,-0.66,-2000,908.203,-2000,0,0,0,
,0.45,-0.383,-0.469,-2000,995.727,-2000,0,0,0,
,0.578,-0.301,-0.355,-2000,1096.191,-2000,0,0,0,
,0.699,-0.197,-0.368,-2000,1152.893,-2000,0,0,0,
,0.761,0.03,-0.451,-2000,1164.062,-2000,0,0,0,
,0.759,0.346,-0.313,-2000,967.102,-2000,0,0,0,
,0.749,1.089,0.165,-2000,807.312,-2000,0,0,0,
,0.595,2.405,0.147,-1826.05,606.201,-2000,0,0,0,
,0.504,3.465,0.234,-451.905,327.087,-2000,0,0,0,
,0.361,3.565,0.345,437.011,322.204,-2000,0,0,0,
,-0.098,3.128,0.458,128.173,252.624,-1803.406,0,0,0,
,-0.393,2.722,0.417,-429.81,100.219,-1328.736,0,0,0,
,-0.532,2.434,1.04,-735.779,-139.466,-870.789,0,0,0,
,-1.717,3.999,0.623,923.278,-57.923,159.607,0,0,0,
,-0.209,-0.614,0.222,-4.212,167.236,-1.587,0,0,0,
,0.001,0.455,0.229,-644.837,-8.484,-162.049,0,0,0,
,-0.259,0.815,0.298,-493.103,154.419,-145.081,0,0,0,
,-0.014,0.747,0.233,135.986,248.047,-320.679,0,0,0,
,-0.019,0.912,0.556,274.047,103.637,-406.006,0,0,0,
,-0.534,2.451,0.267,-90.455,32.165,133.3,0,0,0,
,-0.068,1.193,0.321,1148.742,255.066,44.616,0,0,0,
,-0.308,0.391,0.34,671.02,143.005,59.997,0,0,0,
,-0.178,0.321,0.288,17.578,33.508,-86.792,0,0,0,
,-0.159,0.932,0.377,-304.81,-46.509,-60.12,0,0,0,
,-0.261,1.145,0.38,-296.326,-35.645,29.602,0,0,0,
,-0.276,0.885,0.308,-33.509,-73.487,6.469,0,0,0,
,-0.299,0.956,0.32,-39.734,-47.547,-20.874,0,0,0,
,-0.297,0.994,0.342,38.696,-24.781,-15.686,0,0,0,
,-0.267,0.884,0.337,115.539,1.892,-33.936,0,0,0,
,-0.251,0.878,0.348,68.359,5.493,-12.696,0,0,0,
,-0.224,0.864,0.336,29.113,6.652,-22.95,0,0,0,
,-0.226,0.911,0.328,-12.391,-3.296,-11.902,0,0,0,
,-0.223,0.899,0.338,7.69,0.793,-25.879,0,0,0,
,-0.251,0.91,0.334,7.812,5.065,-18.128,0,0,0,
,-0.264,0.898,0.328,38.024,15.319,-18.433,0,0,0,
,-0.285,0.904,0.328,40.466,19.409,-11.17,0,0,0,
,-0.293,0.892,0.338,38.635,19.836,-14.161,0,0,0,
,-0.303,0.898,0.351,9.094,21.057,-25.94,0,0,0,
,-0.302,0.911,0.356,-10.682,24.475,-42.481,0,0,0,
,-0.329,0.92,0.361,-35.523,29.846,-56.031,0,0,0,
,-0.419,0.942,0.387,-171.021,77.087,-61.28,0,0,0,
,-0.457,0.947,0.38,-297.059,95.947,-46.326,0,0,0,
,-0.492,0.948,0.318,-481.263,86.242,11.108,0,0,0,
,-0.521,1.135,0.184,-905.762,45.715,230.224,0,0,0,
,-0.539,1.34,0.233,-826.355,66.04,277.771,0,0,0,
,-0.567,1.37,0.26,-347.168,131.958,435.791,0,0,0,
,-0.506,1.17,0.23,82.946,165.039,534.668,0,0,0,
,-0.472,0.921,0.23,174.438,168.396,597.778,0,0,0,
,-0.428,0.773,0.231,77.209,179.199,608.825,0,0,0,
,-0.362,0.697,0.249,-69.031,208.374,557.251,0,0,0,
,-0.308,0.667,0.285,-131.958,236.755,467.041,0,0,0,
,-0.266,0.623,0.26,-136.78,259.46,363.525,0,0,0,
,-0.225,0.573,0.208,-129.09,273.132,262.329,0,0,0,
,-0.183,0.554,0.175,-199.585,276.428,171.02,0,0,0,
,-0.15,0.563,0.2,-304.017,265.014,61.889,0,0,0,
,-0.132,0.634,0.211,-411.255,262.512,-21.18,0,0,0,
,-0.125,0.767,0.216,-509.095,263.733,-71.656,0,0,0,
,-0.136,0.908,0.176,-466.248,260.742,-106.08,0,0,0,
,-0.159,0.998,0.092,-321.9,230.102,-182.984,0,0,0,
,-0.196,1.075,0.045,-202.21,178.161,-131.531,0,0,0,
,-0.241,1.085,0.091,-84.046,115.295,-105.286,0,0,0,
,-0.293,1.068,0.152,112.854,53.161,-94.91,0,0,0,
,-0.338,1.029,0.192,109.619,6.591,-28.077,0,0,0,
,-0.378,0.942,0.185,126.281,-20.203,-41.321,0,0,0,
,-0.415,0.932,0.174,99.243,-34.974,-14.161,0,0,0,
,-0.443,0.928,0.159,103.637,-20.203,7.019,0,0,0,
,-0.447,0.914,0.163,116.516,20.141,-0.245,0,0,0,
,-0.426,0.88,0.177,116.943,38.696,-14.161,0,0,0,
,-0.406,0.861,0.188,97.473,49.56,-17.09,0,0,0,
,-0.401,0.869,0.203,40.039,56.884,-21.485,0,0,0,
,-0.398,0.882,0.235,23.925,55.603,-27.771,0,0,0,
,-0.393,0.893,0.232,45.959,56.457,-27.71,0,0,0,
,-0.384,0.903,0.225,87.158,53.833,-28.199,0,0,0,
,-0.379,0.895,0.213,147.766,41.626,-28.626,0,0,0,
,-0.381,0.887,0.203,214.66,33.081,-33.57,0,0,0,
,-0.387,0.857,0.197,246.887,28.015,-46.57,0,0,0,
,-0.397,0.808,0.215,162.048,30.639,-40.345,0,0,0,
,-0.407,0.836,0.206,88.745,43.09,-28.565,0,0,0,
,-0.416,0.92,0.247,29.296,33.935,-11.292,0,0,0,
,-0.416,0.932,0.251,-24.537,27.893,-15.809,0,0,0,
,-0.408,0.939,0.29,36.01,19.897,-18.006,0,0,0,
,-0.413,0.956,0.274,65.063,9.826,3.173,0,0,0,
,-0.438,0.958,0.297,115.722,-2.564,14.465,0,0,0,
,-0.461,0.967,0.304,166.626,-0.55,27.16,0,0,0,
,-0.477,0.987,0.343,175.415,17.028,36.804,0,0,0,
,-0.469,0.987,0.339,188.415,47.363,44.677,0,0,0,
,-0.457,1.024,0.305,237.609,60.607,78.552,0,0,0,
,-0.447,1.105,0.317,259.887,77.331,133.117,0,0,0,
,-0.411,1.136,0.332,445.922,94.848,167.907,0,0,0,
,-0.356,1.051,0.358,678.466,62.439,218.383,0,0,0,
,-0.369,0.888,0.402,682.006,-28.199,323.913,0,0,0,
,-0.431,0.799,0.372,251.464,-60.059,424.316,0,0,0,
,-0.464,0.797,0.355,133.85,-51.514,390.991,0,0,0,
,-0.444,0.823,0.352,235.473,-12.757,398.132,0,0,0,
,-0.409,0.752,0.356,518.005,-36.377,368.103,0,0,0,
,-0.398,0.617,0.385,661.865,-53.04,312.011,0,0,0,
,-0.409,0.5,0.406,648.498,-53.528,252.136,0,0,0,
,-0.426,0.427,0.38,563.415,-22.95,171.02,0,0,0,
,-0.44,0.412,0.355,453.43,9.46,112.915,0,0,0,
,-0.479,0.443,0.345,360.107,45.288,52.612,0,0,0,
,-0.505,0.451,0.372,319.519,81.665,-26.246,0,0,0,
,-0.524,0.454,0.421,281.799,146.789,-91.736,0,0,0,
,-0.519,0.483,0.461,211.792,220.153,-173.706,0,0,0,
,-0.504,0.539,0.498,170.166,275.329,-271.546,0,0,0,
,-0.502,0.625,0.569,217.102,318.481,-356.751,0,0,0,
,-0.487,0.76,0.666,271.423,390.014,-446.351,0,0,0,
,-0.469,0.856,0.78,425.903,427.368,-519.41,0,0,0,
,-0.438,0.826,0.675,680.481,397.277,-544.19,0,0,0,
,-0.426,0.719,0.453,838.684,355.651,-423.279,0,0,0,
,-0.46,0.635,0.425,701.599,226.562,-153.016,0,0,0,
,-0.389,0.62,1.33,-931.763,-132.264,184.875,0,0,0,
,-0.418,0.917,0.786,-601.929,-203.736,-28.138,0,0,0,
,-0.463,1.029,0.356,-50.66,-81.727,106.323,0,0,0,
,-0.446,0.797,0.46,244.201,-146.973,264.343,0,0,0,
,-0.454,0.516,0.631,177.673,-216.004,146.484,0,0,0,
,-0.489,0.428,0.727,-68.543,-203.492,113.525,0,0,0,
,-0.467,0.514,0.824,-214.661,-36.744,52.124,0,0,0,
,-0.417,0.656,0.749,-87.952,46.752,-43.519,0,0,0,
,-0.42,0.803,0.673,124.206,177.429,-145.508,0,0,0,
,-0.423,0.753,0.656,425.232,249.572,-227.051,0,0,0,
,-0.436,0.65,0.509,483.52,318.969,-243.836,0,0,0,
,-0.412,0.178,-0.036,620.056,208.13,-288.758,0,0,0,
,-0.41,0.504,1.313,357.299,139.404,46.386,0,0,0,
,-0.266,0.575,0.744,-760.437,-108.521,223.205,0,0,0,
,-0.335,0.818,0.4,-205.384,-44.007,-180.115,0,0,0,
,-0.367,0.848,0.522,-13.489,-155.213,161.316,0,0,0,
,-0.406,0.634,0.706,-22.156,-235.291,110.046,0,0,0,
,-0.48,0.507,0.907,-198.853,-223.511,57.8,0,0,0,
,-0.48,0.551,0.909,-352.845,-77.454,63.964,0,0,0,
,-0.447,0.756,0.677,-164.002,27.221,-37.842,0,0,0,
,-0.458,0.792,0.652,430.969,246.032,-214.966,0,0,0,
,-0.484,0.601,0.563,549.621,266.845,-279.419,0,0,0,
,-0.496,0.035,0.175,707.397,130.005,-330.933,0,0,0,
,-0.632,0.363,1.4,-229.676,57.251,94.909,0,0,0,
,-0.417,0.843,1.039,-977.478,-11.475,203.247,0,0,0,
,-0.422,1.296,0.665,-623.719,-62.5,33.752,0,0,0,
,-0.418,1.167,0.504,180.847,-137.818,160.217,0,0,0,
,-0.436,0.712,0.479,734.741,-190.552,165.222,0,0,0,
,-0.602,0.472,0.68,507.629,-287.781,283.569,0,0,0,
,-0.731,0.372,0.725,-145.63,-248.169,369.384,0,0,0,
,-0.733,0.442,0.653,-658.204,-81.116,346.191,0,0,0,
,-0.668,0.569,0.551,-920.35,17.639,364.441,0,0,0,
,-0.616,0.667,0.467,-959.229,78.857,359.192,0,0,0,
,-0.613,0.641,0.413,-886.78,124.939,315.49,0,0,0,
,-0.621,0.534,0.374,-780.762,172.424,264.16,0,0,0,
,-0.62,0.506,0.336,-747.132,234.985,214.66,0,0,0,
,-0.594,0.525,0.45,-802.43,316.833,146.057,0,0,0,
,-0.503,0.556,0.521,-813.172,354.309,85.022,0,0,0,
,-0.428,0.6,0.476,-775.452,339.111,56.579,0,0,0,
,-0.395,0.623,0.442,-709.961,307.006,28.198,0,0,0,
,-0.385,0.642,0.403,-668.824,290.1,10.559,0,0,0,
,-0.375,0.688,0.408,-707.398,268.432,-13.245,0,0,0,
,-0.363,0.742,0.455,-735.474,244.14,-56.092,0,0,0,
,-0.346,0.769,0.49,-682.068,225.28,-74.28,0,0,0,
,-0.343,0.779,0.419,-553.162,197.692,-83.741,0,0,0,
,-0.361,0.801,0.372,-430.176,180.175,-92.225,0,0,0,
,-0.348,0.81,0.354,-315.491,161.743,-114.38,0,0,0,
,-0.344,0.865,0.352,-233.948,146.057,-130.616,0,0,0,
,-0.31,0.877,0.439,-130.86,110.962,-167.42,0,0,0,
,-0.349,0.819,0.418,3.662,72.876,-172.059,0,0,0,
,-0.384,0.772,0.4,-77.881,86.792,-142.701,0,0,0,
,-0.372,0.796,0.311,-194.397,108.337,-134.644,0,0,0,
,-0.368,0.849,0.355,-227.112,95.947,-148.377,0,0,0,
,-0.386,0.915,0.373,-97.962,73.364,-143.311,0,0,0,
,-0.382,0.922,0.36,26.611,67.138,-133.362,0,0,0,
,-0.343,0.889,0.394,140.014,59.082,-130.982,0,0,0,
,-0.328,0.818,0.406,161.071,43.273,-120.972,0,0,0,
,-0.36,0.834,0.359,13.794,46.814,-86.06,0,0,0,
,-0.389,0.892,0.397,-96.558,33.569,-84.595,0,0,0,
,-0.377,0.987,0.398,-9.705,19.775,-66.59,0,0,0,
,-0.376,1.005,0.388,202.392,-7.264,-63.111,0,0,0,
,-0.383,0.932,0.416,382.324,-36.683,-69.458,0,0,0,
,-0.412,0.823,0.402,441.162,-16.541,-44.739,0,0,0,
,-0.431,0.811,0.43,354.248,-13.245,-48.523,0,0,0,
,-0.411,0.757,0.44,289.978,1.098,-29.847,0,0,0,
,-0.41,0.749,0.458,174.926,11.596,-29.419,0,0,0,
,-0.429,0.786,0.438,93.933,20.446,-27.283,0,0,0,
,-0.394,0.769,0.493,56.762,8.972,-51.392,0,0,0,
,-0.399,0.791,0.505,87.341,-0.672,-38.819,0,0,0,
,-0.415,0.83,0.508,143.921,-1.709,-31.25,0,0,0,
,-0.411,0.827,0.516,181.091,0.61,-38.575,0,0,0,
,-0.427,0.819,0.487,204.101,5.004,-43.702,0,0,0,
,-0.445,0.823,0.522,229.37,7.69,-47.974,0,0,0,
,-0.452,0.857,0.561,298.523,19.897,-48.279,0,0,0,
,-0.452,0.878,0.584,426.147,36.315,-49.073,0,0,0,
,-0.462,0.854,0.575,593.567,48.278,-39.917,0,0,0,
,-0.48,0.869,0.571,799.255,72.692,-15.931,0,0,0,
,-0.481,0.903,0.605,1072.387,110.107,-28.748,0,0,0,
,-0.48,0.969,0.6,1381.225,137.39,3.356,0,0,0,
,-0.453,0.95,0.615,1716.858,163.208,44.006,0,0,0,
,-0.436,0.854,0.577,1962.219,165.039,77.514,0,0,0,
,-0.436,0.563,0.642,1999.267,110.351,120.422,0,0,0,
,-0.417,0.428,0.728,1966.125,106.262,173.767,0,0,0,
,-0.381,0.272,0.784,1738.769,106.628,184.753,0,0,0,
,-0.337,0.136,0.835,1439.27,101.257,155.456,0,0,0,
,-0.309,0.106,0.834,1193.969,86.303,143.127,0,0,0,
,-0.297,0.127,0.823,1047.119,40.405,122.802,0,0,0,
,-0.286,0.084,0.853,989.196,-9.217,101.013,0,0,0,
,-0.278,-0.029,0.885,887.329,-54.993,93.139,0,0,0,
,-0.282,-0.091,0.914,694.946,-88.135,83.984,0,0,0,
,-0.299,-0.096,0.909,486.084,-105.652,74.096,0,0,0,
,-0.324,-0.059,0.906,371.948,-119.873,69.641,0,0,0,
,-0.377,-0.034,0.849,363.098,-123.047,24.719,0,0,0,
,-0.397,-0.072,0.879,368.713,-116.944,10.315,0,0,0,
,-0.409,-0.134,0.89,328.857,-89.966,-7.019,0,0,0,
,-0.408,-0.182,0.905,205.139,-63.294,-17.64,0,0,0,
,-0.413,-0.16,0.898,61.889,-60.608,-17.701,0,0,0,
,-0.413,-0.106,0.87,-28.443,-53.711,-33.997,0,0,0,
,-0.408,-0.089,0.869,-41.077,-42.908,-45.411,0,0,0,
,-0.413,-0.091,0.874,-38.147,-37.171,-51.941,0,0,0,
,-0.417,-0.085,0.877,-43.885,-37.354,-59.815,0,0,0,
,-0.424,-0.079,0.883,-45.105,-25.513,-72.083,0,0,0,
,-0.421,-0.09,0.888,-60.852,-6.958,-77.088,0,0,0,
,-0.412,-0.078,0.893,-111.268,8.3,-77.21,0,0,0,
,-0.412,-0.05,0.886,-139.039,1.648,-75.013,0,0,0,
,-0.412,-0.036,0.869,-139.161,17.944,-79.041,0,0,0,
,-0.41,-0.049,0.86,-137.574,32.104,-86.426,0,0,0,
,-0.409,-0.054,0.858,-138.123,39.733,-93.14,0,0,0,
,-0.41,-0.06,0.857,-154.847,42.297,-98.938,0,0,0,
,-0.416,-0.06,0.853,-199.402,50.048,-122.681,0,0,0,
,-0.408,-0.055,0.851,-253.785,62.805,-142.701,0,0,0,
,-0.393,-0.04,0.832,-314.026,75.134,-163.88,0,0,0,
,-0.389,-0.042,0.823,-399.353,64.697,-189.637,0,0,0,
,-0.398,-0.046,0.83,-451.844,51.94,-201.111,0,0,0,
,-0.41,-0.021,0.848,-507.691,52.612,-200.074,0,0,0,
,-0.426,0.019,0.872,-600.037,74.157,-198.426,0,0,0,
,-0.411,0.083,0.835,-707.032,93.2,-226.563,0,0,0,
,-0.405,0.104,0.837,-800.354,100.708,-268.677,0,0,0,
,-0.39,0.111,0.914,-852.478,89.965,-261.475,0,0,0,
,-0.367,0.191,0.907,-887.452,66.04,-249.512,0,0,0,
,-0.372,0.275,0.924,-963.624,12.085,-244.996,0,0,0,
,-0.393,0.29,0.949,-1080.933,-36.622,-243.164,0,0,0,
,-0.409,0.31,0.924,-1238.099,-65.247,-229.615,0,0,0,
,-0.43,0.388,0.861,-1418.641,-80.994,-200.196,0,0,0,
,-0.44,0.495,0.809,-1521.119,-84.534,-175.232,0,0,0,
,-0.453,0.608,0.742,-1571.595,-65.308,-144.41,0,0,0,
,-0.461,0.677,0.695,-1582.52,-46.387,-114.747,0,0,0,
,-0.468,0.699,0.626,-1565.247,-40.65,-106.202,0,0,0,
,-0.474,0.752,0.623,-1547.608,-5.127,-95.52,0,0,0,
,-0.459,0.806,0.62,-1435.364,32.592,-62.317,0,0,0,
,-0.426,0.837,0.595,-1274.781,61.889,-41.321,0,0,0,
,-0.421,0.831,0.578,-1152.161,72.448,-26.429,0,0,0,
,-0.391,0.811,0.612,-1007.935,74.523,-35.096,0,0,0,
,-0.309,0.789,0.636,-872.803,3.967,-51.514,0,0,0,
,-0.365,0.783,0.651,-745.484,-33.997,-36.194,0,0,0,
,-0.428,0.834,0.583,-701.111,16.174,22.216,0,0,0,
,-0.382,0.853,0.554,-664.978,54.016,29.357,0,0,0,
,-0.377,0.885,0.522,-563.782,58.044,41.32,0,0,0,
,-0.394,0.97,0.477,-405.762,52.368,26.855,0,0,0,
,-0.402,0.971,0.449,-210.694,21.423,17.639,0,0,0,
,-0.418,0.943,0.415,-74.769,-5.738,32.959,0,0,0,
,-0.428,0.932,0.393,13.549,-18.067,28.564,0,0,0,
,-0.437,0.899,0.369,112.793,-34.546,20.385,0,0,0,
,-0.433,0.835,0.368,149.78,-37.842,20.752,0,0,0,
,-0.445,0.801,0.343,144.714,-33.57,4.211,0,0,0,
,-0.451,0.789,0.34,151.184,-22.217,-3.724,0,0,0,
,-0.44,0.757,0.375,138.794,-2.747,-1.343,0,0,0,
,-0.418,0.733,0.405,133.117,10.437,6.408,0,0,0,
,-0.404,0.771,0.43,78.064,16.479,16.113,0,0,0,
,-0.4,0.772,0.447,18.493,15.136,3.723,0,0,0,
,-0.422,0.795,0.402,-2.564,3.173,13.977,0,0,0,
,-0.452,0.819,0.408,-38.025,8.972,19.409,0,0,0,
,-0.408,0.841,0.414,7.751,19.287,2.075,0,0,0,
,-0.388,0.844,0.465,93.383,5.798,4.638,0,0,0,
,-0.383,0.792,0.459,120.971,-21.485,17.089,0,0,0,
,-0.403,0.749,0.482,21.118,-34.485,14.038,0,0,0,
,-0.415,0.714,0.483,-68.177,-21.729,-0.489,0,0,0,
,-0.417,0.739,0.411,-119.141,8.606,38.696,0,0,0,
,-0.433,0.79,0.359,-202.637,21.972,62.377,0,0,0,
,-0.457,0.834,0.373,-178.711,10.986,53.222,0,0,0,
,-0.453,0.862,0.36,-171.204,23.803,45.105,0,0,0,
,-0.429,0.855,0.354,-41.443,8.911,20.568,0,0,0,
,-0.43,0.835,0.363,36.01,-39.246,54.687,0,0,0,
,-0.454,0.839,0.382,-45.777,-64.209,87.768,0,0,0,
,-0.458,0.85,0.397,-139.71,-62.5,101.013,0,0,0,
,-0.454,0.886,0.406,-203.003,-58.838,108.581,0,0,0,
,-0.444,0.916,0.43,-99.366,-102.967,147.216,0,0,0,
,-0.431,0.96,0.422,-8.484,-130.616,192.871,0,0,0,
,-0.398,0.966,0.473,59.814,-181.763,213.989,0,0,0,
,-0.354,0.89,0.501,105.041,-251.831,241.394,0,0,0,
,-0.301,0.888,0.525,15.014,-346.375,298.401,0,0,0,
,-0.268,0.808,0.562,66.528,-480.347,265.808,0,0,0,
,-0.269,0.758,0.514,142.395,-572.327,281.86,0,0,0,
,-0.277,0.647,0.481,185.363,-661.927,234.497,0,0,0,
,-0.296,0.552,0.45,161.804,-717.102,157.898,0,0,0,
,-0.311,0.508,0.386,81.237,-742.249,94.909,0,0,0,
,-0.329,0.516,0.349,10.315,-756.653,-2.686,0,0,0,
,-0.364,0.534,0.338,-28.443,-757.142,-102.478,0,0,0,
,-0.392,0.564,0.265,36.438,-709.839,-238.892,0,0,0,
,-0.432,0.584,0.183,113.586,-660.889,-352.051,0,0,0,
,-0.502,0.546,0.109,191.65,-618.714,-479.493,0,0,0,
,-0.521,0.45,0.035,266.54,-547.486,-582.764,0,0,0,
,-0.537,0.426,0.001,268.921,-442.872,-668.641,0,0,0,
,-0.547,0.517,-0.013,172.058,-317.627,-751.526,0,0,0,
,-0.565,0.691,-0.032,37.475,-219.422,-829.895,0,0,0,
,-0.569,0.85,-0.033,32.165,-127.015,-903.321,0,0,0,
,-0.538,0.964,-0.049,63.354,-44.19,-931.458,0,0,0,
,-0.495,0.979,-0.03,165.832,-4.029,-935.547,0,0,0,
,-0.493,1.002,0.041,233.642,39.611,-871.033,0,0,0,
,-0.507,1.032,0.103,186.096,75.195,-792.42,0,0,0,
,-0.501,1.059,0.158,107.422,97.656,-696.045,0,0,0,
,-0.489,1.098,0.216,41.687,90.942,-613.77,0,0,0,
,-0.482,1.078,0.238,69.519,89.538,-536.011,0,0,0,
,-0.472,1.047,0.232,133.911,89.721,-440.186,0,0,0,
,-0.421,1.013,0.317,371.826,50.598,-275.696,0,0,0,
,-0.392,0.968,0.353,472.595,48.889,-225.281,0,0,0,
,-0.377,0.904,0.309,485.656,63.171,-196.412,0,0,0,
,-0.362,0.855,0.472,249.267,35.949,18.676,0,0,0,
,-0.428,1.224,0.472,-91.797,-54.566,102.295,0,0,0,
,-0.374,1.1,0.446,166.137,-42.359,-8.118,0,0,0,
,-0.351,0.982,0.494,503.173,-31.739,44.006,0,0,0,
,-0.359,0.994,0.454,802.551,-23.865,66.406,0,0,0,
,-0.305,0.909,0.48,937.683,-21.668,29.419,0,0,0,
,-0.286,0.756,0.508,875,-7.935,23.437,0,0,0,
,-0.29,0.744,0.565,751.281,1.525,4.699,0,0,0,
,-0.291,0.732,0.584,625.427,21.362,14.526,0,0,0,
,-0.286,0.744,0.589,511.352,50.659,23.193,0,0,0,
,-0.272,0.775,0.612,413.269,54.321,24.108,0,0,0,
,-0.264,0.76,0.603,325.988,37.719,31.738,0,0,0,
,-0.266,0.716,0.625,249.939,11.84,41.626,0,0,0,
,-0.277,0.695,0.638,148.62,-7.996,40.588,0,0,0,
,-0.294,0.692,0.657,20.324,-17.029,31.494,0,0,0,
,-0.299,0.693,0.63,-87.281,-8.484,14.831,0,0,0,
,-0.301,0.737,0.613,-152.344,-3.785,-2.076,0,0,0,
,-0.309,0.777,0.586,-175.538,-3.785,-22.522,0,0,0,
,-0.308,0.776,0.572,-168.58,-2.137,-44.373,0,0,0,
,-0.303,0.773,0.572,-152.894,6.469,-63.782,0,0,0,
,-0.293,0.771,0.561,-138.55,14.099,-74.158,0,0,0,
,-0.284,0.775,0.56,-118.226,15.686,-74.036,0,0,0,
,-0.284,0.781,0.558,-79.834,12.634,-66.285,0,0,0,
,-0.283,0.787,0.566,-71.778,9.216,-53.772,0,0,0,
,-0.282,0.778,0.558,-56.58,7.507,-40.711,0,0,0,
,-0.282,0.777,0.558,-42.481,10.131,-30.03,0,0,0,
,-0.283,0.77,0.56,-38.025,6.469,-18.006,0,0,0,
,-0.288,0.77,0.555,-37.11,10.62,-12.024,0,0,0,
,-0.291,0.768,0.563,-46.692,7.507,-10.254,0,0,0,
,-0.293,0.773,0.556,-51.453,13.061,-12.757,0,0,0,
,-0.292,0.786,0.556,-46.265,17.639,-16.785,0,0,0,
,-0.292,0.782,0.557,-39.551,18.554,-25.879,0,0,0,
,-0.291,0.778,0.56,-30.64,14.892,-28.809,0,0,0,
,-0.293,0.77,0.558,-32.959,15.136,-30.518,0,0,0,
,-0.292,0.771,0.555,-37.354,10.742,-33.57,0,0,0,
,-0.289,0.785,0.552,-40.223,11.901,-34.18,0,0,0,
,-0.286,0.783,0.548,-35.462,9.338,-34.546,0,0,0,
,-0.285,0.779,0.551,-28.504,3.234,-28.199,0,0,0,
,-0.288,0.784,0.547,-13.733,1.892,-21.485,0,0,0,
,-0.291,0.783,0.553,-4.578,14.648,-20.325,0,0,0,
,-0.292,0.776,0.552,5.493,-0.184,-20.752,0,0,0,
,-0.292,0.775,0.553,9.582,2.441,-22.706,0,0,0,
,-0.294,0.774,0.561,-13.855,0.793,-32.288,0,0,0,
,-0.296,0.778,0.557,-20.447,2.38,-38.208,0,0,0,
,-0.294,0.784,0.556,-17.395,12.207,-41.504,0,0,0,
,-0.292,0.786,0.562,-17.884,12.695,-47.669,0,0,0,
,-0.296,0.775,0.564,-28.565,14.648,-52.308,0,0,0,
,-0.308,0.783,0.591,-52.002,18.31,-66.773,0,0,0,
,-0.309,0.807,0.595,-126.221,23.498,-106.568,0,0,0,
,-0.309,0.847,0.608,-190.43,20.141,-170.777,0,0,0,
,-0.317,0.918,0.649,-324.707,44.433,-229.004,0,0,0,
,-0.399,0.872,0.59,-537.11,121.704,-231.812,0,0,0,
,-0.653,0.606,0.531,-1290.589,-142.64,446.96,0,0,0,
,-0.441,1.226,0.626,-1055.054,67.688,499.45,0,0,0,
,-0.352,1.552,0.48,-1011.78,-10.926,316.345,0,0,0,
,-0.567,1.504,0.459,-453.309,-5.188,482.055,0,0,0,
,-0.532,1.17,0.394,-45.777,5.981,575.439,0,0,0,
,-0.483,0.902,0.393,53.772,-19.959,648.01,0,0,0,
,-0.491,0.733,0.41,-4.273,15.869,704.895,0,0,0,
,-0.491,0.721,0.36,-64.026,68.786,758.3,0,0,0,
,-0.472,0.714,0.299,-61.219,131.469,750.549,0,0,0,
,-0.445,0.646,0.27,-20.264,159.057,733.276,0,0,0,
,-0.443,0.607,0.284,5.92,181.396,692.321,0,0,0,
,-0.443,0.6,0.295,-4.578,215.088,619.995,0,0,0,
,-0.424,0.592,0.285,-14.71,233.886,555.664,0,0,0,
,-0.408,0.569,0.277,0.61,234.985,488.464,0,0,0,
,-0.378,0.561,0.277,84.716,241.333,350.036,0,0,0,
,-0.324,0.476,0.38,132.751,250.732,69.702,0,0,0,
,-0.32,0.459,0.391,76.171,264.282,-30.335,0,0,0,
,-0.329,0.517,0.392,47.546,282.104,-122.254,0,0,0,
,-0.339,0.605,0.368,11.657,300.781,-183.899,0,0,0,
,-0.355,0.65,0.39,92.773,303.283,-264.771,0,0,0,
,-0.377,0.662,0.387,146.85,311.767,-317.078,0,0,0,
,-0.411,0.651,0.412,150.695,309.936,-371.399,0,0,0,
,-0.439,0.739,0.561,140.014,336.609,-414.002,0,0,0,
,-0.434,0.863,0.676,303.955,381.958,-500.672,0,0,0,
,-0.428,1.078,0.729,640.564,435.852,-589.173,0,0,0,
,-0.434,0.98,0.495,1090.21,423.584,-647.583,0,0,0,
,-0.43,0.686,0.175,1437.011,409.484,-500.123,0,0,0,
,-0.417,0.725,1.548,349.548,15.991,10.62,0,0,0,
,-0.452,0.714,1.35,-1185.303,-215.943,-21.241,0,0,0,
,-0.485,1.047,0.538,-507.264,-134.522,-62.073,0,0,0,
,-0.403,1.094,0.132,228.515,-76.111,168.335,0,0,0,
,-0.313,0.643,0.47,555.236,-148.438,190.551,0,0,0,
,-0.424,0.536,0.708,249.633,-259.4,205.627,0,0,0,
,-0.397,0.688,0.668,25.268,10.681,-59.693,0,0,0,
,-0.398,0.656,0.661,394.043,132.812,-171.082,0,0,0,
,-0.407,0.515,0.51,549.377,246.826,-236.084,0,0,0,
,-0.444,0.521,0.555,455.444,348.205,-315.247,0,0,0,
,-0.457,0.204,-0.113,190.368,367.309,-354.432,0,0,0,
,-0.456,0.387,1.52,-237.793,177.734,-23.133,0,0,0,
,-0.258,0.824,0.833,-1498.475,17.028,163.94,0,0,0,
,-0.346,1.399,0.336,-411.438,77.88,-136.719,0,0,0,
,-0.223,1.216,0.313,397.888,11.169,126.587,0,0,0,
,-0.25,0.687,0.5,748.779,-247.315,196.777,0,0,0,
,-0.57,0.435,0.903,621.765,-249.268,132.995,0,0,0,
,-0.388,0.442,0.671,63.781,166.137,-96.619,0,0,0,
,-0.397,0.644,0.577,45.227,296.753,-161.072,0,0,0,
,-0.43,0.768,0.774,349.853,422.607,-268.433,0,0,0,
,-0.427,0.376,0.759,230.835,327.942,-230.53,0,0,0,
,-0.422,0.679,1.787,-680.237,-245.972,63.171,0,0,0,
,-0.502,0.981,0.719,-677.918,-151.612,68.725,0,0,0,
,-0.515,1.215,0.342,105.835,-119.812,199.096,0,0,0,
,-0.354,0.889,0.339,776.733,2.075,201.11,0,0,0,
,-0.354,0.508,0.682,805.175,-184.266,247.436,0,0,0,
,-0.614,0.42,0.847,52.49,-315.125,378.54,0,0,0,
,-0.803,0.506,0.731,-484.925,-239.869,454.895,0,0,0,
,-0.787,0.697,0.645,-648.194,-90.394,455.444,0,0,0,
,-0.657,0.717,0.585,-553.772,15.808,533.386,0,0,0,
,-0.595,0.653,0.544,-500.794,8.728,555.847,0,0,0,
,-0.622,0.576,0.553,-546.875,14.16,497.802,0,0,0,
,-0.62,0.498,0.488,-597.962,64.025,411.804,0,0,0,
,-0.604,0.364,0.393,-698.304,126.342,354.98,0,0,0,
,-0.603,0.273,0.341,-827.82,168.09,314.758,0,0,0,
,-0.595,0.306,0.317,-1080.567,240.234,221.313,0,0,0,
,-0.545,0.442,0.383,-1280.64,344.604,96.313,0,0,0,
,-0.473,0.596,0.374,-1210.938,386.474,41.32,0,0,0,
,-0.401,0.696,0.342,-980.53,377.807,13.183,0,0,0,
,-0.351,0.678,0.324,-747.498,315.124,-27.039,0,0,0,
,-0.343,0.682,0.342,-646.912,293.274,-50.232,0,0,0,
,-0.337,0.746,0.376,-637.879,277.465,-95.459,0,0,0,
,-0.3,0.812,0.434,-591.004,267.151,-137.513,0,0,0,
,-0.251,0.832,0.442,-475.831,230.529,-138.855,0,0,0,
,-0.256,0.838,0.405,-367.127,192.321,-130.127,0,0,0,
,-0.287,0.828,0.357,-321.656,159.851,-127.747,0,0,0,
,-0.309,0.823,0.348,-329.59,126.526,-137.635,0,0,0,
,-0.316,0.844,0.434,-350.892,101.562,-153.748,0,0,0,
,-0.274,0.862,0.445,-336.426,64.27,-164.612,0,0,0,
,-0.244,0.893,0.508,-318.604,10.437,-194.886,0,0,0,
,-0.339,0.873,0.446,-200.318,-6.165,-146.973,0,0,0,
,-0.407,0.855,0.358,-141.297,24.292,-126.038,0,0,0,
,-0.393,0.836,0.329,-123.23,38.757,-115.235,0,0,0,
,-0.418,0.844,0.281,-96.863,59.326,-133.545,0,0,0,
,-0.429,0.876,0.287,-3.663,52.246,-185.242,0,0,0,
,-0.417,0.822,0.392,92.285,21.972,-204.285,0,0,0,
,-0.395,0.797,0.431,48.645,20.996,-167.542,0,0,0,
,-0.374,0.865,0.403,-67.2,-6.043,-180.298,0,0,0,
,-0.407,0.934,0.391,-11.231,-34.546,-153.748,0,0,0,
,-0.414,0.904,0.356,76.599,-24.414,-126.343,0,0,0,
,-0.425,0.902,0.372,110.839,-15.809,-108.216,0,0,0,
,-0.413,0.943,0.373,150.695,0.183,-112.732,0,0,0,
,-0.383,0.953,0.34,183.471,-0.611,-85.267,0,0,0,
,-0.401,0.965,0.343,214.538,-4.456,-88.623,0,0,0,
,-0.415,0.967,0.366,311.523,-5.372,-72.327,0,0,0,
,-0.413,0.937,0.37,435.547,-0.55,-47.547,0,0,0,
,-0.353,0.95,0.443,507.446,-17.579,-34.607,0,0,0,
,-0.392,0.868,0.449,660.827,-24.537,-55.664,0,0,0,
,-0.444,0.808,0.46,655.273,-13.367,-38.147,0,0,0,
,-0.457,0.76,0.461,588.928,-3.479,-18.921,0,0,0,
,-0.444,0.728,0.475,423.095,18.066,-11.597,0,0,0,
,-0.444,0.763,0.536,302.368,27.221,-16.175,0,0,0,
,-0.456,0.885,0.598,422.058,46.325,-18.433,0,0,0,
,-0.428,0.977,0.683,793.457,66.894,-46.387,0,0,0,
,-0.407,0.99,0.734,1339.111,77.941,-15.198,0,0,0,
,-0.421,0.913,0.721,1737.609,78.369,33.264,0,0,0,
,-0.439,0.813,0.713,1921.508,55.236,56.396,0,0,0,
,-0.482,0.711,0.776,1844.848,24.353,37.841,0,0,0,
,-0.522,0.588,0.779,1676.391,28.808,75.622,0,0,0,
,-0.537,0.526,0.788,1535.339,43.64,147.216,0,0,0,
,-0.491,0.454,0.876,1459.9,87.646,192.016,0,0,0,
,-0.443,0.411,0.918,1317.199,87.524,231.628,0,0,0,
,-0.415,0.354,0.857,1258.117,72.998,218.75,0,0,0,
,-0.396,0.305,0.807,1202.697,66.04,210.388,0,0,0,
,-0.4,0.215,0.774,1000.793,32.226,210.998,0,0,0,
,-0.405,0.178,0.834,834.716,17.7,182.617,0,0,0,
,-0.369,0.171,0.867,763.855,76.355,148.742,0,0,0,
,-0.323,0.09,0.873,725.219,88.195,139.038,0,0,0,
,-0.299,0.052,0.869,666.504,28.747,156.677,0,0,0,
,-0.31,0.023,0.879,570.678,-11.475,156.738,0,0,0,
,-0.339,0,0.854,444.946,-34.302,140.991,0,0,0,
,-0.347,0.001,0.857,329.162,-38.636,124.389,0,0,0,
,-0.346,-0.032,0.867,249.267,-27.649,88.745,0,0,0,
,-0.332,-0.008,0.863,195.861,-38.514,71.899,0,0,0,
,-0.332,-0.019,0.854,164.306,-49.012,57.006,0,0,0,
,-0.343,-0.016,0.856,127.746,-58.35,46.142,0,0,0,
,-0.362,-0.022,0.826,111.816,-71.351,42.907,0,0,0,
,-0.373,-0.016,0.848,99.365,-65.613,45.288,0,0,0,
,-0.381,-0.015,0.858,96.313,-51.392,31.616,0,0,0,
,-0.379,-0.02,0.856,90.82,-37.659,13,0,0,0,
,-0.374,-0.027,0.864,100.647,-31.922,-0.245,0,0,0,
,-0.372,-0.049,0.849,90.698,-34.607,-10.621,0,0,0,
,-0.378,-0.062,0.844,72.143,-36.072,-19.959,0,0,0,
,-0.376,-0.079,0.841,57.8,-26.123,-36.683,0,0,0,
,-0.374,-0.088,0.82,26.428,-17.395,-43.03,0,0,0,
,-0.375,-0.096,0.839,-28.199,-13.55,-52.002,0,0,0,
,-0.379,-0.071,0.823,-76.172,-0.977,-47.303,0,0,0,
,-0.379,-0.052,0.823,-87.952,18.737,-71.045,0,0,0,
,-0.376,-0.06,0.809,-78.858,29.785,-88.562,0,0,0,
,-0.383,-0.078,0.818,-97.901,33.386,-97.107,0,0,0,
,-0.387,-0.06,0.825,-138.611,48.523,-95.032,0,0,0,
,-0.39,-0.062,0.835,-159.058,58.96,-119.446,0,0,0,
,-0.386,-0.057,0.835,-194.092,73.242,-130.799,0,0,0,
,-0.383,-0.039,0.819,-226.014,80.749,-151.185,0,0,0,
,-0.376,-0.03,0.801,-256.043,75.805,-169.434,0,0,0,
,-0.373,-0.034,0.808,-292.542,76.599,-185.791,0,0,0,
,-0.371,-0.015,0.824,-341.126,83.496,-199.891,0,0,0,
,-0.361,-0.002,0.838,-392.151,73.974,-211.182,0,0,0,
,-0.361,0.023,0.855,-445.069,59.997,-216.553,0,0,0,
,-0.375,0.056,0.887,-475.464,48.217,-230.347,0,0,0,
,-0.394,0.089,0.864,-460.694,50.72,-245.606,0,0,0,
,-0.406,0.098,0.841,-437.378,74.646,-259.888,0,0,0,
,-0.396,0.099,0.835,-460.206,124.572,-282.837,0,0,0,
,-0.381,0.093,0.825,-508.851,141.479,-271.485,0,0,0,
,-0.356,0.132,0.89,-649.781,152.465,-287.293,0,0,0,
,-0.341,0.147,0.924,-831.543,81.298,-277.955,0,0,0,
,-0.368,0.221,0.885,-1050.171,50.476,-262.024,0,0,0,
,-0.397,0.294,0.852,-1274.048,39.611,-269.043,0,0,0,
,-0.402,0.377,0.84,-1467.896,33.63,-256.226,0,0,0,
,-0.395,0.475,0.837,-1680.97,16.296,-242.615,0,0,0,
,-0.397,0.573,0.825,-1901.978,-12.757,-209.412,0,0,0,
,-0.427,0.714,0.78,-1999.085,-33.02,-172.791,0,0,0,
,-0.45,0.85,0.688,-2000,-20.325,-152.039,0,0,0,
,-0.441,0.969,0.615,-1993.897,9.887,-115.357,0,0,0,
,-0.422,1.047,0.556,-1885.438,37.841,-46.387,0,0,0,
,-0.425,1.082,0.497,-1576.661,68.237,-42.542,0,0,0,
,-0.381,1.116,0.565,-1140.442,71.594,-28.565,0,0,0,
,-0.232,1.05,0.707,-732.544,-29.114,-92.041,0,0,0,
,-0.315,0.864,0.751,-345.276,-45.472,-73.731,0,0,0,
,-0.42,0.785,0.673,-388.184,33.63,15.197,0,0,0,
,-0.322,0.839,0.603,-505.982,42.785,7.812,0,0,0,
,-0.341,0.908,0.577,-568.787,21.179,25.085,0,0,0,
,-0.386,0.994,0.519,-475.403,14.648,91.491,0,0,0,
,-0.386,1.048,0.494,-308.533,3.845,112.06,0,0,0,
,-0.386,1.045,0.47,-143.555,-16.907,117.065,0,0,0,
,-0.392,1.012,0.424,-8.912,-18.616,145.324,0,0,0,
,-0.392,0.957,0.43,21.85,-38.269,196.411,0,0,0,
,-0.398,0.907,0.429,3.845,-53.65,240.356,0,0,0,
,-0.386,0.954,0.463,-41.016,-77.21,279.968,0,0,0,
,-0.364,0.96,0.409,-50.293,-93.995,331.359,0,0,0,
,-0.378,0.936,0.32,42.114,-158.814,371.46,0,0,0,
,-0.432,0.951,0.229,149.475,-191.651,421.814,0,0,0,
,-0.45,0.976,0.208,223.693,-168.946,413.635,0,0,0,
,-0.407,0.939,0.23,357.422,-190.552,409.546,0,0,0,
,-0.385,0.867,0.383,368.103,-231.568,421.264,0,0,0,
,-0.373,0.74,0.467,304.321,-243.775,418.029,0,0,0,
,-0.36,0.745,0.492,308.471,-273.743,412.048,0,0,0,
,-0.336,0.748,0.488,289.978,-334.473,399.841,0,0,0,
,-0.334,0.67,0.488,302.795,-387.879,356.994,0,0,0,
,-0.325,0.617,0.472,160.339,-447.51,348.999,0,0,0,
,-0.293,0.579,0.491,11.352,-496.705,240.356,0,0,0,
,-0.344,0.587,0.507,14.526,-521.607,174.621,0,0,0,
,-0.332,0.608,0.473,80.017,-524.231,102.966,0,0,0,
,-0.365,0.534,0.342,170.227,-526.612,-7.813,0,0,0,
,-0.415,0.431,0.229,372.924,-549.988,-76.416,0,0,0,
,-0.437,0.378,0.231,500.183,-556.946,-166.077,0,0,0,
,-0.47,0.383,0.232,499.817,-571.656,-327.82,0,0,0,
,-0.532,0.444,0.273,450.073,-560.486,-441.163,0,0,0,
,-0.57,0.47,0.286,424.438,-528.748,-560.059,0,0,0,
,-0.603,0.479,0.232,434.326,-496.644,-657.288,0,0,0,
,-0.645,0.452,0.121,389.343,-447.327,-736.023,0,0,0,
,-0.675,0.385,0.046,330.383,-370.423,-821.839,0,0,0,
,-0.676,0.425,0.019,224.853,-210.511,-865.479,0,0,0,
,-0.64,0.614,0.058,-67.383,-27.344,-879.212,0,0,0,
,-0.531,0.812,0.173,-336.06,57.556,-896.302,0,0,0,
,-0.464,0.931,0.188,-365.418,9.643,-886.536,0,0,0,
,-0.52,0.979,0.17,-302.247,6.774,-852.112,0,0,0,
,-0.568,0.999,0.146,-223.389,64.453,-780.274,0,0,0,
,-0.526,1.093,0.176,-182.129,109.13,-707.459,0,0,0,
,-0.469,1.116,0.285,118.347,91.919,-640.931,0,0,0,
,-0.483,1.067,0.361,299.804,96.862,-578.248,0,0,0,
,-0.47,0.975,0.39,314.026,96.496,-515.809,0,0,0,
,-0.469,0.892,0.387,233.032,89.355,-472.718,0,0,0,
,-0.458,0.86,0.382,74.707,83.923,-418.763,0,0,0,
,-0.43,0.888,0.372,-26.001,73.181,-380.127,0,0,0,
,-0.407,0.898,0.366,-25.025,64.086,-366.272,0,0,0,
,-0.382,0.79,0.334,38.086,75.012,-332.886,0,0,0,
,-0.374,0.998,0.51,-19.288,31.799,-59.144,0,0,0,
,-0.475,1.583,0.541,-157.654,-102.906,7.751,0,0,0,
,-0.399,1.42,0.486,351.013,-66.102,-80.445,0,0,0,
,-0.33,0.955,0.396,738.159,-22.522,-18.799,0,0,0,
,-0.265,0.855,0.491,272.583,26.489,-29.48,0,0,0,
,-0.267,0.998,0.529,229.858,15.625,16.418,0,0,0,
,-0.24,0.974,0.553,354.797,52.307,-34.302,0,0,0,
,-0.252,0.812,0.571,424.682,47.302,32.714,0,0,0,
,-0.231,0.751,0.54,417.541,76.11,-9.522,0,0,0,
,-0.24,0.754,0.567,310.669,66.528,1.037,0,0,0,
,-0.243,0.766,0.583,210.998,59.265,11.84,0,0,0,
,-0.248,0.774,0.585,167.358,55.297,11.23,0,0,0,
,-0.252,0.754,0.567,92.773,44.006,0.976,0,0,0,
,-0.267,0.746,0.563,7.019,27.221,-1.526,0,0,0,
,-0.277,0.816,0.52,-79.468,-11.902,-22.583,0,0,0,
,-0.271,0.828,0.511,-64.087,-14.954,-26.917,0,0,0,
,-0.267,0.818,0.502,-41.993,-19.104,-21.18,0,0,0,
,-0.266,0.804,0.504,-29.602,-17.64,-17.701,0,0,0,
,-0.267,0.811,0.512,-21.851,-16.48,-13.306,0,0,0,
,-0.269,0.788,0.531,6.774,-14.649,-13.733,0,0,0,
,-0.28,0.784,0.539,-2.808,-14.527,-17.09,0,0,0,
,-0.283,0.79,0.548,-17.456,-8.362,-12.94,0,0,0,
,-0.282,0.787,0.54,-16.724,1.098,-14.405,0,0,0,
,-0.288,0.791,0.541,-29.786,0.061,-11.414,0,0,0,
,-0.289,0.789,0.538,-38.086,2.319,-18.067,0,0,0,
,-0.288,0.791,0.529,-51.941,-1.954,-18.494,0,0,0,
,-0.284,0.798,0.524,-60.303,-2.259,-21.851,0,0,0,
,-0.284,0.803,0.517,-55.481,-4.822,-22.339,0,0,0,
,-0.282,0.811,0.511,-45.716,-4.883,-22.889,0,0,0,
,-0.279,0.806,0.517,-31.311,-8.912,-26.001,0,0,0,
,-0.277,0.805,0.513,-20.508,-18.25,-32.288,0,0,0,
,-0.28,0.806,0.513,-20.386,-17.518,-29.175,0,0,0,
,-0.28,0.806,0.505,-18.677,-19.227,-29.175,0,0,0,
,-0.287,0.808,0.52,-20.386,-15.686,-28.26,0,0,0,
,-0.297,0.806,0.519,-17.518,-8.851,-33.814,0,0,0,
,-0.313,0.803,0.54,-19.776,4.455,-39.978,0,0,0,
,-0.354,0.778,0.59,-51.819,54.809,-66.102,0,0,0,
,-0.389,0.787,0.607,-110.596,79.284,-73.67,0,0,0,
,-0.419,0.831,0.639,-198.487,110.412,-74.28,0,0,0,
,-0.415,0.876,0.586,-441.956,297.851,-478.089,0,0,0,
,-0.418,0.846,0.746,-419.617,82.885,-401.673,0,0,0,
,-0.009,1.305,0.341,-679.871,37.109,219.238,0,0,0,
,-0.495,1.302,0.388,-615.418,-99.06,382.019,0,0,0,
,-0.672,1.327,0.406,-173.34,-34.302,582.885,0,0,0,
,-0.433,1.18,0.405,223.144,-35.523,669.555,0,0,0,
,-0.399,0.991,0.412,446.777,-81.91,694.702,0,0,0,
,-0.371,0.584,0.398,340.271,-52.735,700.988,0,0,0,
,-0.369,0.552,0.435,217.834,-28.87,688.598,0,0,0,
,-0.38,0.621,0.417,150.512,14.038,682.922,0,0,0,
,-0.378,0.634,0.375,182.434,46.02,647.277,0,0,0,
,-0.371,0.601,0.338,247.253,56.152,563.11,0,0,0,
,-0.377,0.531,0.282,280.761,68.481,488.83,0,0,0,
,-0.381,0.453,0.306,279.602,86.669,403.625,0,0,0,
,-0.386,0.443,0.36,227.722,114.685,330.444,0,0,0,
,-0.38,0.422,0.385,157.776,146.667,245.422,0,0,0,
,-0.383,0.425,0.368,108.459,172.546,167.907,0,0,0,
,-0.393,0.436,0.351,79.711,193.481,93.444,0,0,0,
,-0.414,0.462,0.363,29.663,208.923,27.038,0,0,0,
,-0.437,0.511,0.398,-6.043,231.811,-50.904,0,0,0,
,-0.448,0.549,0.453,-5.066,247.07,-128.235,0,0,0,
,-0.455,0.574,0.464,108.947,261.901,-206.665,0,0,0,
,-0.454,0.58,0.477,256.713,265.38,-252.625,0,0,0,
,-0.45,0.587,0.508,349.609,273.437,-267.64,0,0,0,
,-0.46,0.581,0.555,362.487,279.48,-279.541,0,0,0,
,-0.477,0.589,0.583,317.749,290.527,-275.147,0,0,0,
,-0.491,0.608,0.622,245.483,294.494,-271.058,0,0,0,
,-0.505,0.621,0.654,194.091,304.199,-268.555,0,0,0,
,-0.518,0.661,0.72,196.594,321.289,-279.297,0,0,0,
,-0.52,0.788,0.853,255.005,346.008,-292.603,0,0,0,
,-0.507,0.878,0.957,414.184,367.248,-339.6,0,0,0,
,-0.498,0.748,0.808,601.257,348.51,-361.329,0,0,0,
,-0.497,0.498,0.659,838.379,342.773,-339.234,0,0,0,
,-0.377,0.186,0.575,768.859,417.175,-176.819,0,0,0,
,-0.285,0.545,1.221,-640.198,-35.218,259.521,0,0,0,
,-0.411,0.851,0.989,-642.395,-252.625,50.415,0,0,0,
,-0.478,0.914,0.592,31.372,-67.627,-63.294,0,0,0,
,-0.4,0.57,0.487,502.624,11.84,104.065,0,0,0,
,-0.363,0.372,0.628,367.492,-125.123,58.96,0,0,0,
,-0.425,0.348,0.914,-66.163,-223.389,6.897,0,0,0,
,-0.435,0.53,1.117,-297.669,-110.23,33.447,0,0,0,
,-0.392,0.706,1.037,-196.473,-2.076,-11.719,0,0,0,
,-0.393,0.736,0.681,3.295,79.834,-76.477,0,0,0,
,-0.431,0.56,0.492,318.725,135.925,-104.92,0,0,0,
,-0.49,0.458,0.485,300.903,216.735,-72.876,0,0,0,
,-0.457,0.104,0.201,218.628,283.752,-234.436,0,0,0,
,-0.313,0.294,1.131,-1.343,269.714,-38.086,0,0,0,
,-0.258,0.724,0.942,-677.613,-22.339,322.815,0,0,0,
,-0.332,0.936,0.581,-226.746,-33.509,-51.453,0,0,0,
,-0.316,0.665,0.474,254.272,-47.608,-94.3,0,0,0,
,-0.355,0.489,0.613,280.517,-149.476,44.311,0,0,0,
,-0.45,0.49,0.908,62.744,-199.769,55.358,0,0,0,
,-0.486,0.524,1.1,-104.615,-116.272,37.658,0,0,0,
,-0.438,0.583,1.019,-9.949,-19.532,21.728,0,0,0,
,-0.422,0.667,0.846,202.087,61.523,-27.405,0,0,0,
,-0.47,0.641,0.667,345.459,114.502,-67.017,0,0,0,
,-0.565,0.621,0.723,395.507,159.301,-116.456,0,0,0,
,-0.544,0.132,0.411,452.209,235.901,-227.784,0,0,0,
,-0.494,0.326,1.546,207.702,-18.433,-32.227,0,0,0,
,-0.487,0.769,1.218,-445.862,-247.559,314.941,0,0,0,
,-0.559,0.86,0.713,-135.254,-163.758,108.642,0,0,0,
,-0.51,0.754,0.67,288.452,-60.547,202.819,0,0,0,
,-0.426,0.49,0.567,485.046,-12.94,232.788,0,0,0,
,-0.476,0.314,0.704,328.979,-195.252,239.074,0,0,0,
,-0.606,0.294,0.773,-202.393,-340.638,363.647,0,0,0,
,-0.723,0.321,0.83,-641.541,-280.274,402.832,0,0,0,
,-0.722,0.345,0.745,-958.191,-145.508,427.612,0,0,0,
,-0.638,0.407,0.622,-1122.742,-18.677,442.016,0,0,0,
,-0.58,0.46,0.512,-1156.922,36.682,417.602,0,0,0,
,-0.561,0.527,0.472,-1050.538,75.012,367.981,0,0,0,
,-0.57,0.548,0.442,-863.648,134.155,291.87,0,0,0,
,-0.562,0.498,0.429,-688.843,195.495,214.782,0,0,0,
,-0.542,0.378,0.409,-578.675,248.657,153.198,0,0,0,
,-0.511,0.341,0.392,-612.305,301.635,116.943,0,0,0,
,-0.463,0.42,0.397,-793.519,346.679,70.373,0,0,0,
,-0.408,0.545,0.416,-902.649,345.886,24.536,0,0,0,
,-0.377,0.664,0.461,-884.705,321.899,-16.175,0,0,0,
,-0.349,0.751,0.471,-739.197,284.729,-59.205,0,0,0,
,-0.328,0.761,0.501,-577.332,233.276,-86.365,0,0,0,
,-0.319,0.72,0.51,-492.737,194.641,-83.252,0,0,0,
,-0.346,0.68,0.488,-496.949,151.306,-86.609,0,0,0,
,-0.364,0.706,0.51,-571.351,127.929,-87.403,0,0,0,
,-0.343,0.799,0.548,-613.77,136.169,-104.31,0,0,0,
,-0.303,0.88,0.515,-505.982,101.928,-116.15,0,0,0,
,-0.297,0.892,0.469,-380.127,55.603,-103.455,0,0,0,
,-0.336,0.847,0.457,-291.748,21.728,-94.483,0,0,0,
,-0.39,0.816,0.484,-240.235,4.577,-82.52,0,0,0,
,-0.404,0.801,0.499,-229.981,19.409,-78.064,0,0,0,
,-0.396,0.775,0.489,-237.61,35.461,-77.271,0,0,0,
,-0.402,0.748,0.497,-238.709,45.898,-85.267,0,0,0,
,-0.412,0.732,0.463,-258.667,67.321,-67.078,0,0,0,
,-0.395,0.762,0.466,-319.947,76.904,-58.35,0,0,0,
,-0.364,0.797,0.478,-317.078,38.147,-106.263,0,0,0,
,-0.375,0.786,0.479,-234.436,-15.564,-157.41,0,0,0,
,-0.398,0.793,0.454,-180.542,-39.612,-171.875,0,0,0,
,-0.402,0.754,0.391,-539.063,-91.797,-180.787,0,0,0,
,-0.421,0.91,0.337,-675.415,-122.254,-180.115,0,0,0,
,-0.446,1.026,0.244,-548.829,-108.094,-208.13,0,0,0,
,-0.459,0.981,0.201,-334.046,-106.263,-198.548,0,0,0,
,-0.454,0.902,0.21,-159.974,-97.596,-192.383,0,0,0,
,-0.42,0.892,0.272,-121.46,-90.088,-165.467,0,0,0,
,-0.408,0.932,0.322,-107.483,-60.975,-145.63,0,0,0,
,-0.406,0.966,0.306,-77.21,-29.358,-129.09,0,0,0,
,-0.405,0.953,0.41,36.926,-57.068,-132.935,0,0,0,
,-0.456,0.939,0.407,86.059,-38.758,-99.976,0,0,0,
,-0.446,0.959,0.351,107.36,-9.644,-62.928,0,0,0,
,-0.433,1.023,0.378,205.2,3.173,-37.293,0,0,0,
,-0.442,1.02,0.333,359.802,7.446,13.305,0,0,0,
,-0.424,1.047,0.355,479.553,-4.517,16.845,0,0,0,
,-0.442,1.028,0.426,641.357,-28.687,5.493,0,0,0,
,-0.465,0.965,0.402,864.929,-23.621,25.878,0,0,0,
,-0.475,0.891,0.422,991.821,-25.757,43.396,0,0,0,
,-0.456,0.861,0.611,1078.735,25.573,54.748,0,0,0,
,-0.455,0.865,0.628,1195.984,39.245,33.447,0,0,0,
,-0.462,0.75,0.591,1361.694,53.283,31.311,0,0,0,
,-0.488,0.762,0.635,1524.963,56.213,68.542,0,0,0,
,-0.537,0.876,0.667,1745.178,79.895,103.027,0,0,0,
,-0.552,0.898,0.657,1961.547,120.178,135.192,0,0,0,
,-0.503,0.702,0.619,1999.694,143.249,158.264,0,0,0,
,-0.491,0.491,0.685,1971.557,79.284,187.378,0,0,0,
,-0.489,0.37,0.754,1771.362,57.983,177.978,0,0,0,
,-0.463,0.315,0.812,1484.497,105.285,189.575,0,0,0,
,-0.417,0.239,0.794,1204.04,116.76,160.827,0,0,0,
,-0.318,0.089,0.837,703.979,-33.143,165.344,0,0,0,
,-0.317,0.031,0.834,612.671,-80.994,148.986,0,0,0,
,-0.317,-0.002,0.835,491.027,-97.962,137.146,0,0,0,
,-0.326,0.012,0.82,380.249,-109.925,124.755,0,0,0,
,-0.329,0.012,0.81,336.853,-110.84,96.923,0,0,0,
,-0.361,-0.008,0.827,287.719,-121.155,84.106,0,0,0,
,-0.374,-0.022,0.813,231.689,-87.22,51.147,0,0,0,
,-0.355,-0.054,0.797,153.015,-64.759,-1.526,0,0,0,
,-0.346,-0.077,0.791,58.654,-62.684,-18.433,0,0,0,
,-0.354,-0.045,0.761,-36.438,-63.416,-17.701,0,0,0,
,-0.373,0.005,0.746,-84.351,-57.373,-39.856,0,0,0,
,-0.376,-0.008,0.764,-51.819,-61.28,-93.628,0,0,0,
,-0.385,-0.02,0.752,-68.116,-53.345,-85.999,0,0,0,
,-0.39,-0.028,0.764,-166.077,-50.538,-109.253,0,0,0,
,-0.399,-0.017,0.768,-277.894,-37.659,-121.705,0,0,0,
,-0.397,0.004,0.76,-334.656,-14.954,-143.189,0,0,0,
,-0.401,0.001,0.754,-380.005,-1.831,-165.833,0,0,0,
,-0.415,0,0.743,-470.52,6.897,-185.547,0,0,0,
,-0.42,0.053,0.747,-578.125,34.668,-211.976,0,0,0,
,-0.412,0.107,0.737,-617.188,64.575,-257.691,0,0,0,
,-0.413,0.135,0.751,-637.452,75.683,-279.236,0,0,0,
,-0.417,0.134,0.729,-766.663,89.843,-301.697,0,0,0,
,-0.436,0.148,0.722,-979.065,106.628,-326.661,0,0,0,
,-0.443,0.195,0.741,-1204.102,136.596,-345.215,0,0,0,
,-0.412,0.279,0.745,-1311.89,176.086,-322.388,0,0,0,
,-0.38,0.422,0.719,-1370.362,175.048,-262.94,0,0,0,
,-0.36,0.481,0.686,-1448.914,126.464,-284.424,0,0,0,
,-0.367,0.483,0.684,-1550.66,57.067,-285.34,0,0,0,
,-0.422,0.498,0.686,-1764.405,18.066,-238.038,0,0,0,
,-0.49,0.567,0.65,-1998.963,13.977,-174.134,0,0,0,
,-0.506,0.714,0.592,-2000,33.447,-137.024,0,0,0,
,-0.491,0.885,0.472,-2000,52.551,-88.868,0,0,0,
,-0.479,1.1,0.373,-2000,70.556,-68.726,0,0,0,
,-0.461,1.228,0.381,-2000,80.261,-35.096,0,0,0,
,-0.457,1.267,0.386,-1705.506,76.66,27.282,0,0,0,
,-0.41,1.28,0.437,-1214.539,36.56,48.095,0,0,0,
,-0.367,1.182,0.599,-654.48,-73.304,57.067,0,0,0,
,-0.476,1.074,0.512,-418.641,-71.473,139.038,0,0,0,
,-0.428,0.984,0.42,-414.673,-31.8,164.367,0,0,0,
,-0.42,1.014,0.357,-338.929,-32.105,154.419,0,0,0,
,-0.444,1.093,0.3,-245.24,-23.316,150.146,0,0,0,
,-0.455,1.067,0.251,-64.393,-35.035,121.154,0,0,0,
,-0.455,1.015,0.227,121.765,-36.194,154.663,0,0,0,
,-0.486,0.96,0.214,144.043,-16.602,175.109,0,0,0,
,-0.476,0.953,0.215,83.496,-9.278,204.834,0,0,0,
,-0.457,0.971,0.249,69.152,-4.456,218.811,0,0,0,
,-0.466,0.935,0.272,122.192,-14.283,244.812,0,0,0,
,-0.463,0.859,0.24,175.72,-33.814,283.569,0,0,0,
,-0.479,0.846,0.164,148.193,-48.157,316.711,0,0,0,
,-0.489,0.839,0.169,158.63,-51.026,317.688,0,0,0,
,-0.512,0.783,0.192,291.687,-93.384,299.011,0,0,0,
,-0.489,0.701,0.212,431.884,-105.896,279.48,0,0,0,
,-0.444,0.705,0.237,510.681,-118.714,293.335,0,0,0,
,-0.391,0.742,0.261,535.827,-163.758,274.292,0,0,0,
,-0.367,0.734,0.337,538.147,-256.714,246.46,0,0,0,
,-0.34,0.547,0.395,134.338,-486.695,129.272,0,0,0,
,-0.352,0.552,0.369,69.885,-562.195,80.566,0,0,0,
,-0.387,0.548,0.338,12.634,-592.102,16.54,0,0,0,
,-0.452,0.513,0.343,-20.142,-612.793,-78.858,0,0,0,
,-0.502,0.494,0.342,-44.739,-607.483,-184.815,0,0,0,
,-0.536,0.523,0.285,-34.241,-576.539,-312.867,0,0,0,
,-0.572,0.564,0.241,7.385,-544.861,-452.149,0,0,0,
,-0.598,0.554,0.181,93.383,-508.789,-564.209,0,0,0,
,-0.628,0.509,0.113,175.048,-476.929,-642.823,0,0,0,
,-0.652,0.52,0.049,250.244,-415.711,-722.168,0,0,0,
,-0.67,0.689,0.018,170.837,-315.796,-797.364,0,0,0,
,-0.656,0.892,0.028,88.501,-221.314,-847.474,0,0,0,
,-0.59,1.013,0.061,130.493,-179.139,-867.798,0,0,0,
,-0.567,1.016,0.03,235.046,-182.129,-852.539,0,0,0,
,-0.602,0.888,0.017,307.556,-132.569,-823.792,0,0,0,
,-0.568,0.814,0.028,293.64,-46.936,-736.206,0,0,0,
,-0.534,0.93,0.06,121.338,12.085,-629.151,0,0,0,
,-0.519,1.052,0.126,-2.564,27.832,-588.379,0,0,0,
,-0.5,1.088,0.177,15.564,48.706,-553.223,0,0,0,
,-0.493,1.072,0.186,71.289,73.303,-520.874,0,0,0,
,-0.458,1,0.124,293.396,120.727,-427.185,0,0,0,
,-0.428,1.012,0.173,405.029,138.305,-367.188,0,0,0,
,-0.414,0.991,0.25,486.267,127.197,-349.793,0,0,0,
,-0.403,0.972,0.283,588.684,113.891,-327.698,0,0,0,
,-0.363,0.947,0.331,654.724,101.318,-304.139,0,0,0,
,-0.327,0.883,0.374,720.459,71.594,-301.331,0,0,0,
,-0.288,0.808,0.409,768.432,65.673,-274.353,0,0,0,
,-0.286,0.748,0.464,589.477,46.264,-213.074,0,0,0,
,-0.305,0.804,0.514,185.119,26.062,-95.093,0,0,0,
,-0.351,1.078,0.529,-255.555,-29.602,35.766,0,0,0,
,-0.352,1.139,0.468,-110.474,-23.987,-51.758,0,0,0,
,-0.304,1.007,0.403,155.944,-40.894,-0.55,0,0,0,
,-0.315,0.879,0.388,289.001,-37.903,-34.913,0,0,0,
,-0.327,0.776,0.403,227.844,-31.8,-58.533,0,0,0,
,-0.317,0.77,0.413,130.798,-21.302,-64.454,0,0,0,
,-0.302,0.81,0.447,76.294,-16.175,-64.148,0,0,0,
,-0.222,0.946,0.577,245.788,-49.439,-78.797,0,0,0,
,-0.208,1.01,0.53,333.74,-12.024,-198.731,0,0,0,
,-0.217,0.857,0.534,306.518,-5.372,-216.431,0,0,0,
,-0.261,0.76,0.55,150.024,-27.894,-150.208,0,0,0,
,-0.276,0.733,0.542,23.62,-17.456,-74.585,0,0,0,
,-0.265,0.744,0.522,-96.009,-13.245,27.038,0,0,0,
,-0.195,0.829,0.527,-185.303,-47.852,40.039,0,0,0,
,-0.217,0.812,0.495,-253.357,-65.247,31.799,0,0,0,
,-0.232,0.861,0.453,-297.425,-60.303,19.226,0,0,0,
,-0.239,0.863,0.431,-299.195,-17.212,-3.785,0,0,0,
,-0.237,0.878,0.404,-257.325,-28.199,5.31,0,0,0,
,-0.261,0.905,0.398,-174.195,-33.265,23.62,0,0,0,
,-0.271,0.903,0.403,-117.31,-21.058,24.597,0,0,0,
,-0.272,0.886,0.408,-73.304,-12.94,19.043,0,0,0,
,-0.27,0.871,0.41,-37.903,-2.869,15.625,0,0,0,
,-0.267,0.888,0.403,-1.343,2.38,15.197,0,0,0,
,-0.266,0.877,0.414,31.677,-2.442,12.023,0,0,0,
,-0.27,0.845,0.422,47.851,-7.264,8.239,0,0,0,
,-0.281,0.857,0.441,39.489,-15.32,-0.916,0,0,0,
,-0.284,0.843,0.436,21.484,-8.606,-9.583,0,0,0,
,-0.286,0.838,0.436,7.324,-1.038,-16.968,0,0,0,
,-0.312,0.851,0.434,-5.005,6.042,-24.72,0,0,0,
,-0.278,0.846,0.429,-18.616,12.268,-28.931,0,0,0,
,-0.276,0.845,0.425,-18.982,15.014,-30.396,0,0,0,
,-0.271,0.854,0.434,-11.841,14.099,-25.574,0,0,0,
,-0.271,0.849,0.429,-7.996,13.549,-21.119,0,0,0,
,-0.272,0.852,0.436,-2.991,10.192,-18.494,0,0,0,
,-0.273,0.86,0.427,4.333,7.995,-14.893,0,0,0,
,-0.275,0.861,0.432,15.686,4.272,-16.114,0,0,0,
,-0.277,0.858,0.432,13.794,4.699,-14.344,0,0,0,
,-0.28,0.849,0.435,9.338,-0.855,-17.884,0,0,0,
,-0.279,0.85,0.436,-0.977,1.525,-23.682,0,0,0,
,-0.278,0.855,0.428,6.469,0.061,-27.832,0,0,0,
,-0.31,0.853,0.429,18.92,-0.733,-32.41,0,0,0,
,-0.278,0.846,0.44,33.813,-3.846,-33.936,0,0,0,
,-0.278,0.845,0.448,29.052,-5.738,-35.645,0,0,0,
,-0.283,0.848,0.452,11.535,-0.977,-36.011,0,0,0,
,-0.293,0.839,0.452,-12.146,3.845,-45.716,0,0,0,
,-0.309,0.846,0.466,-50.11,18.737,-71.106,0,0,0,
,-0.32,0.856,0.498,-126.221,52.917,-112.549,0,0,0,
,-0.332,0.855,0.502,-238.16,98.632,-174.866,0,0,0,
,-0.337,0.876,0.502,-378.846,150.695,-256.531,0,0,0,
,-0.486,0.848,0.552,-471.07,-56.885,123.23,0,0,0,
,-0.505,0.865,0.508,-428.711,28.991,159.668,0,0,0,
,-0.338,1.105,0.444,-514.1,21.728,62.622,0,0,0,
,-0.441,1.22,0.441,-528.992,-41.077,85.449,0,0,0,
,-0.466,1.294,0.4,-397.644,-34.302,232.788,0,0,0,
,-0.448,1.356,0.378,-265.198,-64.82,376.526,0,0,0,
,-0.481,1.345,0.394,-63.721,-74.341,467.041,0,0,0,
,-0.495,1.195,0.375,131.164,-82.398,563.964,0,0,0,
,-0.484,1.072,0.359,224.426,-80.14,640.442,0,0,0,
,-0.451,0.956,0.324,215.82,-64.515,688.232,0,0,0,
,-0.429,0.846,0.319,165.161,-35.95,706.726,0,0,0,
,-0.415,0.799,0.31,94.97,12.085,720.825,0,0,0,
,-0.416,0.775,0.293,36.132,55.053,709.289,0,0,0,
,-0.403,0.732,0.277,33.874,81.909,685.18,0,0,0,
,-0.385,0.707,0.275,105.957,101.074,633.911,0,0,0,
,-0.359,0.593,0.3,139.221,108.52,455.871,0,0,0,
,-0.352,0.578,0.308,132.446,113.464,383.972,0,0,0,
,-0.347,0.541,0.308,124.694,120.178,320.8,0,0,0,
,-0.35,0.495,0.296,111.877,126.709,246.887,0,0,0,
,-0.359,0.484,0.284,98.51,134.277,185.302,0,0,0,
,-0.372,0.506,0.3,86.425,136.657,106.14,0,0,0,
,-0.375,0.512,0.316,106.933,145.385,30.273,0,0,0,
,-0.418,0.509,0.327,147.827,161.377,-111.023,0,0,0,
,-0.437,0.509,0.339,173.156,180.114,-177.247,0,0,0,
,-0.453,0.514,0.342,181.579,196.228,-231.629,0,0,0,
,-0.476,0.628,0.382,74.035,230.468,-314.087,0,0,0,
,-0.472,0.677,0.423,30.822,243.286,-348.084,0,0,0,
,-0.49,0.694,0.445,30.761,245.178,-366.7,0,0,0,
,-0.512,0.694,0.494,85.022,247.131,-384.766,0,0,0,
,-0.537,0.733,0.552,230.896,276.123,-402.344,0,0,0,
,-0.547,0.845,0.684,425.781,327.819,-433.533,0,0,0,
,-0.525,1.042,0.782,781.372,393.371,-470.398,0,0,0,
,-0.515,1.134,0.686,1043.457,444.519,-498.902,0,0,0,
,-0.533,0.761,0.449,1171.203,428.65,-485.169,0,0,0,
,-0.478,0.207,-0.056,1217.895,413.574,-391.541,0,0,0,
,-0.499,0.468,2.008,-260.621,296.814,146.484,0,0,0,
,-0.398,0.774,1.038,-1284.424,-117.981,122.07,0,0,0,
,-0.194,0.599,0.525,1168.029,-123.23,172.119,0,0,0,
,-0.374,0.289,0.816,777.526,-368.287,191.467,0,0,0,
,-0.598,0.133,0.944,57.006,-234.986,170.349,0,0,0,
,-0.505,0.36,0.885,-435.303,-34.18,155.151,0,0,0,
,-0.406,0.722,0.638,-540.223,114.257,36.132,0,0,0,
,-0.395,0.912,0.448,-193.97,213.379,-95.154,0,0,0,
,-0.442,0.18,0.254,552.795,280.09,-312.378,0,0,0,
,-0.348,-0.084,0.224,724.609,388.855,-340.943,0,0,0,
,-0.068,0.703,1.367,-421.265,130.493,277.588,0,0,0,
,-0.144,0.728,0.712,-842.164,-106.202,25.634,0,0,0,
,-0.493,0.651,1.106,-169.434,-192.933,-15.748,0,0,0,
,-0.435,0.726,0.861,94.848,-71.656,8.056,0,0,0,
,-0.448,0.745,0.529,313.781,23.071,-39.978,0,0,0,
,-0.528,0.636,0.494,497.985,100.952,-72.022,0,0,0,
,-0.405,1.017,1.066,-711.182,-56.824,188.11,0,0,0,
,-0.417,1.065,0.623,-323.304,-46.143,40.588,0,0,0,
,-0.376,0.865,0.511,275.756,-81.055,188.232,0,0,0,
,-0.366,0.522,0.542,531.189,-94.849,163.574,0,0,0,
,-0.48,0.393,0.806,77.514,-242.432,252.746,0,0,0,
,-0.62,0.349,0.845,-570.618,-260.865,348.632,0,0,0,
,-0.685,0.472,0.707,-1020.752,-195.374,415.649,0,0,0,
,-0.662,0.613,0.546,-1186.158,-91.309,453.979,0,0,0,
,-0.601,0.664,0.467,-1096.375,3.784,447.265,0,0,0,
,-0.563,0.623,0.435,-984.192,38.879,438.659,0,0,0,
,-0.566,0.573,0.398,-957.947,53.772,381.469,0,0,0,
,-0.568,0.527,0.271,-929.2,211.792,146.789,0,0,0,
,-0.517,0.526,0.299,-868.409,261.352,78.308,0,0,0,
,-0.465,0.533,0.317,-863.831,276.184,55.786,0,0,0,
,-0.415,0.584,0.344,-974.793,265.869,-3.418,0,0,0,
,-0.392,0.629,0.286,-1094.666,238.342,-52.857,0,0,0,
,-0.378,0.735,0.265,-1113.831,225.341,-96.985,0,0,0,
,-0.343,0.812,0.24,-1038.392,217.346,-131.897,0,0,0,
,-0.319,0.839,0.235,-898.194,185.119,-140.87,0,0,0,
,-0.319,0.889,0.221,-774.537,166.504,-143.006,0,0,0,
,-0.329,0.949,0.263,-677.735,167.785,-161.377,0,0,0,
,-0.318,0.977,0.25,-533.387,167.358,-174.622,0,0,0,
,-0.321,0.951,0.195,-365.235,147.033,-164.673,0,0,0,
,-0.346,0.918,0.203,-265.137,117.859,-166.077,0,0,0,
,-0.362,0.919,0.271,-248.169,96.435,-171.814,0,0,0,
,-0.357,0.925,0.297,-230.713,78.552,-169.19,0,0,0,
,-0.339,0.912,0.328,-213.685,59.326,-157.715,0,0,0,
,-0.315,0.847,0.344,-280.335,-13.367,-146.912,0,0,0,
,-0.339,0.875,0.358,-363.404,-75.501,-139.954,0,0,0,
,-0.389,0.957,0.296,-272.461,-64.454,-133.301,0,0,0,
,-0.387,1.027,0.231,-134.705,-15.625,-116.517,0,0,0,
,-0.382,0.97,0.183,-24.048,9.338,-123.597,0,0,0,
,-0.408,0.936,0.152,39.672,18.676,-143.86,0,0,0,
,-0.428,0.892,0.112,64.88,25.085,-150.574,0,0,0,
,-0.427,0.901,0.164,30.822,15.258,-150.879,0,0,0,
,-0.439,0.921,0.138,206.787,15.686,-175.354,0,0,0,
,-0.439,0.934,0.215,200.866,20.202,-130.921,0,0,0,
,-0.4,0.966,0.26,131.713,10.925,-170.594,0,0,0,
,-0.419,0.959,0.274,128.723,6.897,-121.094,0,0,0,
,-0.436,0.96,0.266,139.404,18.981,-86.426,0,0,0,
,-0.407,0.978,0.269,207.031,13.549,-68.36,0,0,0,
,-0.396,0.995,0.288,280.456,-14.71,-52.185,0,0,0,
,-0.397,1.015,0.35,370.117,-45.594,-52.735,0,0,0,
,-0.415,1.018,0.375,496.215,-68.848,-49.561,0,0,0,
,-0.423,0.968,0.314,613.891,-70.069,-67.994,0,0,0,
,-0.426,0.869,0.347,584.594,-75.562,-70.496,0,0,0,
,-0.494,1.015,0.449,386.352,-2.808,-66.102,0,0,0,
,-0.497,1.047,0.347,1108.886,12.207,32.531,0,0,0,
,-0.488,1.026,0.419,1215.759,17.639,61.462,0,0,0,
,-0.476,0.947,0.433,1260.925,27.832,65.185,0,0,0,
,-0.463,0.856,0.47,1249.572,28.259,101.379,0,0,0,
,-0.461,0.818,0.516,1179.565,28.503,167.724,0,0,0,
,-0.445,0.752,0.588,1117.92,37.109,191.528,0,0,0,
,-0.404,0.715,0.623,1124.878,43.64,226.928,0,0,0,
,-0.379,0.655,0.622,1133.117,41.015,227.356,0,0,0,
,-0.367,0.585,0.642,1147.583,13.305,217.773,0,0,0,
,-0.365,0.498,0.662,1101.318,-12.024,212.158,0,0,0,
,-0.372,0.443,0.675,981.506,-27.161,212.951,0,0,0,
,-0.368,0.389,0.71,854.004,-37.415,192.26,0,0,0,
,-0.36,0.338,0.718,729.309,-43.213,185.73,0,0,0,
,-0.372,0.307,0.732,605.957,-52.613,191.162,0,0,0,
,-0.37,0.296,0.737,498.474,-41.993,186.401,0,0,0,
,-0.362,0.281,0.73,394.104,-37.049,161.987,0,0,0,
,-0.358,0.262,0.726,322.876,-46.387,124.694,0,0,0,
,-0.368,0.247,0.724,246.154,-57.923,103.149,0,0,0,
,-0.388,0.238,0.717,186.706,-57.129,87.28,0,0,0,
,-0.399,0.242,0.731,125.671,-53.711,71.777,0,0,0,
,-0.405,0.246,0.743,74.951,-39.734,51.757,0,0,0,
,-0.404,0.242,0.742,36.132,-29.419,30.151,0,0,0,
,-0.399,0.243,0.741,-29.053,-19.593,-16.48,0,0,0,
,-0.402,0.237,0.741,-45.655,-17.945,-47.73,0,0,0,
,-0.412,0.24,0.737,-80.384,-26.856,-60.059,0,0,0,
,-0.43,0.264,0.738,-109.436,-20.63,-77.454,0,0,0,
,-0.44,0.274,0.747,-118.897,-7.63,-99.61,0,0,0,
,-0.443,0.281,0.754,-122.925,12.939,-113.892,0,0,0,
,-0.449,0.271,0.749,-155.335,40.222,-146.241,0,0,0,
,-0.455,0.26,0.742,-211.792,53.649,-155.64,0,0,0,
,-0.445,0.233,0.752,-295.777,70.922,-173.951,0,0,0,
,-0.437,0.251,0.732,-410.218,79.711,-184.144,0,0,0,
,-0.435,0.338,0.727,-512.696,83.496,-217.591,0,0,0,
,-0.41,0.389,0.71,-465.027,91.125,-234.192,0,0,0,
,-0.432,0.383,0.704,-591.309,40.222,-255.921,0,0,0,
,-0.448,0.424,0.695,-706.91,59.753,-255.555,0,0,0,
,-0.426,0.463,0.707,-784.302,79.101,-255.982,0,0,0,
,-0.409,0.492,0.703,-871.46,64.514,-254.395,0,0,0,
,-0.409,0.498,0.671,-991.578,35.522,-252.869,0,0,0,
,-0.435,0.498,0.631,-1197.937,17.273,-255.372,0,0,0,
,-0.458,0.805,0.51,-1770.386,73.425,-202.21,0,0,0,
,-0.439,0.94,0.457,-1755.433,60.18,-168.03,0,0,0,
,-0.447,1.018,0.437,-1667.664,44.128,-158.57,0,0,0,
,-0.475,1.072,0.412,-1516.48,49.682,-127.808,0,0,0,
,-0.477,1.142,0.393,-1308.106,77.697,-84.168,0,0,0,
,-0.361,1.153,0.495,-431.763,-42.42,-25.269,0,0,0,
,-0.431,1.07,0.456,-274.903,-59.571,32.714,0,0,0,
,-0.443,0.995,0.393,-299.5,-43.641,75.744,0,0,0,
,-0.395,0.974,0.384,-306.58,-23.621,85.815,0,0,0,
,-0.393,1.028,0.286,-392.884,40.527,142.7,0,0,0,
,-0.422,1.115,0.207,-375.733,47.424,157.653,0,0,0,
,-0.427,1.086,0.199,-191.651,33.813,152.649,0,0,0,
,-0.462,1.08,0.127,10.07,22.522,218.811,0,0,0,
,-0.483,1.045,0.142,128.357,2.075,181.884,0,0,0,
,-0.456,0.943,0.199,240.478,-3.235,186.218,0,0,0,
,-0.437,0.845,0.224,292.663,-52.063,203.308,0,0,0,
,-0.406,0.885,0.279,240.295,-49.134,231.933,0,0,0,
,-0.414,0.899,0.243,142.944,-49.988,267.883,0,0,0,
,-0.445,0.845,0.236,125.976,-53.101,266.418,0,0,0,
,-0.457,0.82,0.217,125.061,-39.673,280.273,0,0,0,
,-0.449,0.806,0.224,178.466,-15.809,272.888,0,0,0,
,-0.435,0.827,0.209,209.655,12.939,323.669,0,0,0,
,-0.462,0.845,0.184,208.374,-3.907,337.463,0,0,0,
,-0.514,0.857,0.271,210.083,-33.143,300.537,0,0,0,
,-0.503,0.813,0.213,229.797,-20.874,299.56,0,0,0,
,-0.487,0.761,0.341,280.09,-50.843,237.243,0,0,0,
,-0.478,0.737,0.308,293.64,-63.477,256.652,0,0,0,
,-0.493,0.72,0.27,259.582,-88.929,260.009,0,0,0,
,-0.512,0.71,0.236,186.828,-112.183,252.197,0,0,0,
,-0.542,0.727,0.197,157.653,-120.362,243.042,0,0,0,
,-0.566,0.771,0.218,169.983,-121.033,225.463,0,0,0,
,-0.548,0.766,0.304,222.839,-105.896,209.838,0,0,0,
,-0.52,0.727,0.37,280.273,-133.24,207.824,0,0,0,
,-0.506,0.706,0.375,299.255,-175.11,212.707,0,0,0,
,-0.515,0.684,0.398,309.021,-204.529,206.421,0,0,0,
,-0.478,0.678,0.369,289.489,-228.699,194.152,0,0,0,
,-0.444,0.65,0.379,259.277,-282.166,174.865,0,0,0,
,-0.444,0.603,0.389,228.515,-349.61,145.507,0,0,0,
,-0.473,0.574,0.386,260.254,-395.447,110.412,0,0,0,
,-0.508,0.588,0.362,354.858,-412.903,59.692,0,0,0,
,-0.53,0.628,0.326,486.511,-421.448,-18.555,0,0,0,
,-0.55,0.604,0.303,675.109,-421.692,-103.638,0,0,0,
,-0.561,0.56,0.3,860.778,-412.415,-203.492,0,0,0,
,-0.58,0.52,0.327,964.172,-389.405,-319.458,0,0,0,
,-0.615,0.511,0.293,1060.302,-369.08,-414.49,0,0,0,
,-0.688,0.541,0.22,1161.682,-343.995,-520.508,0,0,0,
,-0.722,0.497,0.149,1372.009,-337.464,-645.997,0,0,0,
,-0.809,0.432,0.151,1562.072,-234.62,-692.444,0,0,0,
,-0.814,0.406,0.196,1575.561,-75.501,-701.539,0,0,0,
,-0.843,0.416,0.353,1456.848,89.355,-757.142,0,0,0,
,-0.825,0.462,0.442,1344.543,219.97,-788.758,0,0,0,
,-0.79,0.522,0.514,1216.308,327.392,-779.786,0,0,0,
,-0.763,0.499,0.468,1100.769,385.62,-783.997,0,0,0,
,-0.72,0.376,0.42,1098.388,496.338,-727.539,0,0,0,
,-0.675,0.398,0.469,1099.792,637.573,-603.882,0,0,0,
,-0.614,0.432,0.501,1015.258,709.228,-547.547,0,0,0,
,-0.556,0.369,0.577,871.765,716.552,-546.753,0,0,0,
,-0.525,0.356,0.728,667.724,718.933,-528.931,0,0,0,
,-0.485,0.405,0.868,502.075,776.855,-480.408,0,0,0,
,-0.428,0.456,0.922,462.219,857.666,-454.407,0,0,0,
,-0.323,0.436,0.904,435.547,960.571,-435.73,0,0,0,
,-0.203,0.375,0.869,327.27,992.187,-434.327,0,0,0,
,0.146,0.405,0.973,239.135,958.862,-366.089,0,0,0,
,0.449,0.545,1.983,-405.091,-9.705,-222.84,0,0,0,
,-0.066,0.912,1.75,-902.344,-411.866,74.401,0,0,0,
,-0.336,1.183,1.316,-395.447,-284.119,55.358,0,0,0,
,-0.313,0.673,0.954,149.963,-279.786,-108.46,0,0,0,
,-0.298,0.348,0.766,280.578,-258.606,-54.627,0,0,0,
,-0.32,0.247,0.691,220.642,-192.322,-88.868,0,0,0,
,-0.315,0.243,0.67,69.458,-110.108,-66.834,0,0,0,
,-0.253,0.279,0.729,-9.095,-16.419,-84.534,0,0,0,
,-0.185,0.307,0.797,-35.645,-22.828,-97.596,0,0,0,
,-0.174,0.322,0.792,-72.51,-78.003,-100.22,0,0,0,
,-0.223,0.333,0.847,-85.206,-115.54,-125.061,0,0,0,
,-0.25,0.398,0.869,-93.018,-107.666,-101.258,0,0,0,
,-0.249,0.388,0.886,-54.322,-90.821,-116.089,0,0,0,
,-0.241,0.362,0.826,-92.713,-105.225,-96.131,0,0,0,
,-0.249,0.364,0.782,-96.741,-114.075,-101.868,0,0,0,
,-0.276,0.369,0.716,-114.014,-112.305,-111.39,0,0,0,
,-0.309,0.377,0.676,-95.887,-86.914,-146.119,0,0,0,
,-0.332,0.368,0.683,-94.91,-39.185,-192.2,0,0,0,
,-0.351,0.379,0.755,-89.234,-0.428,-187.073,0,0,0,
,-0.382,0.464,0.995,-34.18,-105.103,-48.584,0,0,0,
,-0.8,0.764,2.243,84.35,-297.608,172.485,0,0,0,
,-0.272,0.789,1.357,-411.072,-179.627,-227.784,0,0,0,
,-0.206,0.883,0.867,-242.249,32.714,153.198,0,0,0,
,-0.207,0.569,0.652,107.36,-231.263,122.314,0,0,0,
,-0.393,0.153,0.762,47.546,-526.917,-43.335,0,0,0,
,-0.604,0.261,0.913,-65.369,-261.536,-31.495,0,0,0,
,-0.532,0.437,0.913,-188.416,174.743,-155.701,0,0,0,
,-0.345,0.45,0.862,-217.286,354.37,-208.374,0,0,0,
,-0.242,0.448,0.841,-288.575,348.022,-154.175,0,0,0,
,-0.224,0.523,0.83,-315.43,255.31,-137.635,0,0,0,
,-0.242,0.629,0.835,-272.278,181.03,-110.291,0,0,0,
,-0.251,0.667,0.798,-152.283,137.634,-46.021,0,0,0,
,-0.246,0.574,0.792,-41.321,51.391,-34.485,0,0,0,
,-0.27,0.483,0.784,-28.26,11.901,-12.574,0,0,0,
,-0.288,0.513,0.806,-65.979,26.123,-3.907,0,0,0,
,-0.287,0.54,0.798,-82.764,54.077,-8.118,0,0,0,
,-0.267,0.557,0.798,-54.139,44.25,-16.968,0,0,0,
,-0.261,0.564,0.796,-30.884,9.826,-21.607,0,0,0,
,-0.269,0.558,0.795,-1.343,-34.18,-26.551,0,0,0,
,-0.286,0.546,0.812,24.78,-50.232,-31.617,0,0,0,
,-0.295,0.515,0.81,26.55,-42.298,-36.988,0,0,0,
,-0.295,0.513,0.813,15.319,-34.241,-39.185,0,0,0,
,-0.295,0.518,0.821,7.873,-24.781,-48.218,0,0,0,
,-0.291,0.52,0.816,1.098,-0.184,-52.369,0,0,0,
,-0.289,0.528,0.815,-3.357,-3.479,-52.552,0,0,0,
,-0.288,0.517,0.82,-6.104,4.272,-53.956,0,0,0,
,-0.286,0.519,0.819,-14.039,15.075,-55.237,0,0,0,
,-0.283,0.528,0.813,-17.395,22.338,-48.645,0,0,0,
,-0.281,0.546,0.812,-5.982,25.512,-42.176,0,0,0,
,-0.282,0.529,0.814,-3.724,22.033,-30.518,0,0,0,
,-0.287,0.503,0.82,-18.25,22.399,-21.302,0,0,0,
,-0.3,0.507,0.816,-36.255,38.33,-19.227,0,0,0,
,-0.3,0.524,0.823,-45.96,66.711,-23.316,0,0,0,
,-0.288,0.519,0.847,-77.576,77.575,-34.18,0,0,0,
,-0.271,0.523,0.833,-110.352,77.758,-44.495,0,0,0,
,-0.267,0.532,0.827,-142.701,71.289,-27.649,0,0,0,
,-0.275,0.546,0.835,-154.908,72.082,-20.386,0,0,0,
,-0.28,0.564,0.844,-159.546,78.979,-16.358,0,0,0,
,-0.276,0.623,0.861,-107.789,120.849,-10.071,0,0,0,
,-0.287,0.627,0.868,-85.511,149.109,-4.883,0,0,0,
,-0.296,0.566,0.878,50.781,172.973,-0.733,0,0,0,
,-0.286,0.533,0.886,84.777,53.955,14.16,0,0,0,
,-0.278,0.508,0.908,-56.031,27.893,11.901,0,0,0,
,-0.252,0.545,0.922,-259.949,-7.325,58.166,0,0,0,
,-0.216,0.623,0.92,-424.378,-90.21,125.427,0,0,0,
,-0.232,0.681,0.866,-460.755,-203.98,193.176,0,0,0,
,-0.278,0.727,0.847,-451.783,-310.486,278.442,0,0,0,
,-0.307,0.676,0.802,-482.117,-329.773,230.346,0,0,0,
,-0.331,0.646,0.78,-486.023,-348.633,223.083,0,0,0,
,-0.352,0.674,0.733,-507.447,-347.779,257.69,0,0,0,
,-0.357,0.684,0.718,-469.544,-336.976,275.207,0,0,0,
,-0.35,0.677,0.68,-383.667,-334.839,297.424,0,0,0,
,-0.363,0.673,0.652,-275.33,-338.807,304.992,0,0,0,
,-0.393,0.647,0.643,-180.848,-332.276,297.424,0,0,0,
,-0.43,0.595,0.627,-142.151,-308.289,294.616,0,0,0,
,-0.481,0.541,0.593,-198.243,-283.081,297.241,0,0,0,
,-0.529,0.529,0.563,-308.716,-238.099,308.654,0,0,0,
,-0.567,0.573,0.54,-445.923,-205.811,325.927,0,0,0,
,-0.614,0.613,0.516,-557.984,-174.134,330.932,0,0,0,
,-0.641,0.639,0.497,-582.52,-122.62,335.51,0,0,0,
,-0.635,0.647,0.482,-567.322,-64.515,322.204,0,0,0,
,-0.619,0.618,0.452,-522.278,-7.264,299.987,0,0,0,
,-0.616,0.584,0.433,-492.188,47.729,300.476,0,0,0,
,-0.62,0.564,0.41,-515.503,105.468,294.25,0,0,0,
,-0.609,0.557,0.409,-554.81,160.095,273.254,0,0,0,
,-0.585,0.562,0.416,-596.741,206.604,243.103,0,0,0,
,-0.558,0.547,0.433,-592.408,238.342,202.514,0,0,0,
,-0.542,0.563,0.409,-581.849,260.192,169.555,0,0,0,
,-0.512,0.594,0.386,-568.421,276.367,135.192,0,0,0,
,-0.49,0.658,0.39,-541.321,278.991,94.177,0,0,0,
,-0.469,0.689,0.404,-437.928,268.737,56.518,0,0,0,
,-0.447,0.694,0.401,-284.424,257.08,30.273,0,0,0,
,-0.43,0.685,0.385,-136.231,239.318,0.061,0,0,0,
,-0.423,0.671,0.406,-25.269,229.736,-35.645,0,0,0,
,-0.409,0.66,0.41,81.054,217.102,-80.933,0,0,0,
,-0.407,0.609,0.407,140.869,209.594,-127.442,0,0,0,
,-0.395,0.573,0.407,166.504,207.275,-190.186,0,0,0,
,-0.374,0.58,0.467,177.49,210.815,-261.353,0,0,0,
,-0.365,0.599,0.502,196.899,223.083,-337.22,0,0,0,
,-0.386,0.637,0.556,222.168,258.239,-403.26,0,0,0,
,-0.394,0.711,0.639,276.916,341.125,-483.826,0,0,0,
,-0.412,0.893,0.759,382.202,405.456,-538.697,0,0,0,
,-0.481,1.104,0.669,480.835,468.383,-587.403,0,0,0,
,-0.523,0.868,0.379,599.609,455.322,-607.178,0,0,0,
,-0.52,0.462,-0.044,1021.24,367.981,-511.78,0,0,0,
,-0.405,0.939,1.257,88.745,356.018,205.566,0,0,0,
,-0.367,1.068,1.318,-1407.532,-220.398,277.71,0,0,0,
,-0.462,1.398,0.594,-460.511,-129.212,-177.857,0,0,0,
,-0.359,1.011,0.162,640.808,-68.848,191.04,0,0,0,
,-0.308,0.595,0.482,891.601,-222.474,275.634,0,0,0,
,-0.475,0.397,0.737,278.015,-358.948,199.585,0,0,0,
,-0.519,0.281,0.842,-362.427,-240.662,174.621,0,0,0,
,-0.4,0.572,0.854,-489.136,-97.229,56.518,0,0,0,
,-0.397,0.859,0.675,-148.499,54.138,-89.6,0,0,0,
,-0.415,0.901,0.399,367.859,157.47,-153.748,0,0,0,
,-0.436,0.65,0.356,773.315,234.802,-238.404,0,0,0,
,-0.507,0.484,0.29,656.067,317.749,-325.684,0,0,0,
,-0.508,0.012,-0.1,617.614,308.899,-408.448,0,0,0,
,-0.448,0.579,1.175,362.365,554.809,21.24,0,0,0,
,-0.09,0.882,1.03,-1386.109,40.161,383.911,0,0,0,
,-0.167,1.203,0.419,-468.567,-1.16,-80.445,0,0,0,
,-0.226,0.962,0.359,290.344,-97.107,65.429,0,0,0,
,-0.346,0.611,0.612,244.995,-288.697,217.041,0,0,0,
,-0.531,0.525,0.97,55.236,-250.184,140.258,0,0,0,
,-0.521,0.552,0.945,-41.748,-57.435,88.073,0,0,0,
,-0.412,0.688,0.692,260.131,59.692,-39.49,0,0,0,
,-0.414,0.653,0.495,459.472,158.447,-134.583,0,0,0,
,-0.479,0.521,0.615,646.057,238.342,-244.202,0,0,0,
,-0.533,0.477,0.627,564.636,362.487,-349.976,0,0,0,
,-0.445,0.23,1.161,522.338,376.403,-279.114,0,0,0,
,-0.232,0.644,1.444,-1013.55,-221.436,245.971,0,0,0,
,-0.366,1,0.729,-886.536,-262.391,91.491,0,0,0,
,-0.465,0.931,0.432,-341.309,-258.362,91.369,0,0,0,
,-0.427,0.768,0.499,57.922,-147.217,213.501,0,0,0,
,-0.382,0.534,0.588,133.972,-141.846,136.23,0,0,0,
,-0.489,0.479,0.706,-481.629,-299.683,249.572,0,0,0,
,-0.644,0.503,0.711,-1046.143,-301.758,356.201,0,0,0,
,-0.705,0.612,0.62,-1351.258,-204.59,396.606,0,0,0,
,-0.639,0.77,0.536,-1286.622,-74.219,412.17,0,0,0,
,-0.561,0.829,0.413,-1009.278,-18.677,388.549,0,0,0,
,-0.549,0.818,0.362,-768.616,8.728,345.825,0,0,0,
,-0.582,0.764,0.367,-636.475,44.616,261.596,0,0,0,
,-0.617,0.671,0.364,-560.242,95.642,190.246,0,0,0,
,-0.61,0.523,0.259,-467.469,155.639,176.635,0,0,0,
,-0.597,0.502,0.214,-439.393,222.229,173.156,0,0,0,
,-0.59,0.591,0.217,-583.924,296.997,106.262,0,0,0,
,-0.555,0.683,0.215,-711.67,342.346,44.555,0,0,0,
,-0.503,0.745,0.228,-720.398,341.491,9.887,0,0,0,
,-0.469,0.747,0.245,-657.471,323.669,-2.808,0,0,0,
,-0.454,0.746,0.254,-606.69,312.317,5.188,0,0,0,
,-0.456,0.754,0.249,-599.488,301.574,10.803,0,0,0,
,-0.445,0.767,0.265,-580.506,295.471,-2.137,0,0,0,
,-0.433,0.784,0.255,-554.383,276.611,-16.602,0,0,0,
,-0.432,0.804,0.256,-522.4,249.939,-39.856,0,0,0,
,-0.42,0.817,0.285,-458.069,229.675,-63.782,0,0,0,
,-0.398,0.807,0.292,-376.831,188.842,-73.975,0,0,0,
,-0.386,0.809,0.297,-319.214,170.349,-78.919,0,0,0,
,-0.399,0.805,0.28,-294.983,137.695,-88.929,0,0,0,
,-0.413,0.814,0.286,-286.072,120.849,-96.802,0,0,0,
,-0.417,0.842,0.298,-277.222,114.99,-111.268,0,0,0,
,-0.414,0.839,0.285,-240.479,102.966,-128.235,0,0,0,
,-0.404,0.838,0.273,-198.182,97.106,-133.301,0,0,0,
,-0.404,0.844,0.277,-182.312,98.938,-147.889,0,0,0,
,-0.395,0.838,0.22,-164.307,96.13,-155.396,0,0,0,
,-0.338,0.887,0.298,-155.823,71.533,-158.02,0,0,0,
,-0.359,0.827,0.307,-93.018,25.146,-161.194,0,0,0,
,-0.414,0.873,0.223,-161.988,62.011,-162.842,0,0,0,
,-0.387,0.873,0.185,-132.264,43.212,-180.909,0,0,0,
,-0.42,0.865,0.106,-100.281,55.725,-174.5,0,0,0,
,-0.444,0.902,0.168,-82.947,45.898,-170.594,0,0,0,
,-0.451,0.944,0.239,-107.666,48.828,-179.383,0,0,0,
,-0.433,1.004,0.2,-24.781,52.124,-141.297,0,0,0,
,-0.406,0.972,0.242,29.052,19.714,-152.161,0,0,0,
,-0.434,0.967,0.248,70.251,-2.442,-131.104,0,0,0,
,-0.425,0.99,0.264,119.079,-1.16,-117.737,0,0,0,
,-0.413,0.985,0.284,179.687,-0.489,-96.192,0,0,0,
,-0.417,0.976,0.291,222.839,-1.099,-79.163,0,0,0,
,-0.437,0.989,0.29,325.683,-32.959,-81.116,0,0,0,
,-0.381,1.017,0.392,510.803,-27.222,-64.82,0,0,0,
,-0.424,1.021,0.355,617.736,-77.637,-45.411,0,0,0,
,-0.472,0.982,0.382,722.046,-92.408,-79.773,0,0,0,
,-0.49,0.944,0.399,763.305,-72.083,-43.763,0,0,0,
,-0.478,0.94,0.375,750.244,-29.664,-9.339,0,0,0,
,-0.484,0.964,0.376,719.299,-10.376,-4.517,0,0,0,
,-0.52,1.051,0.423,837.341,-9.827,-5.738,0,0,0,
,-0.538,1.136,0.485,1133.545,1.953,22.827,0,0,0,
,-0.504,1.142,0.493,1565.368,30.09,52.185,0,0,0,
,-0.464,1.065,0.465,1964.782,40.1,61.401,0,0,0,
,-0.44,0.954,0.492,1999.694,36.071,101.135,0,0,0,
,-0.432,0.781,0.544,1999.694,13.488,157.959,0,0,0,
,-0.447,0.642,0.635,1999.694,-33.448,207.214,0,0,0,
,-0.464,0.514,0.706,1999.694,-68.604,260.437,0,0,0,
,-0.454,0.396,0.72,1960.327,-51.453,263.916,0,0,0,
,-0.43,0.259,0.748,1695.739,-23.682,247.558,0,0,0,
,-0.388,0.127,0.742,1407.592,-22.156,216.552,0,0,0,
,-0.362,0.097,0.719,1135.131,-61.89,225.647,0,0,0,
,-0.362,0.115,0.732,877.441,-119.69,205.017,0,0,0,
,-0.374,0.088,0.803,775.39,-179.261,182.922,0,0,0,
,-0.387,0.051,0.845,655.761,-180.115,190.124,0,0,0,
,-0.39,0.031,0.851,511.291,-168.396,173.767,0,0,0,
,-0.39,0.044,0.821,377.014,-175.782,146.362,0,0,0,
,-0.403,0.048,0.795,311.767,-181.824,129.15,0,0,0,
,-0.423,0.03,0.773,271.606,-169.617,113.891,0,0,0,
,-0.435,0.015,0.758,241.455,-144.776,96.374,0,0,0,
,-0.444,-0.012,0.759,218.2,-130.31,79.284,0,0,0,
,-0.453,-0.025,0.772,188.659,-128.113,63.903,0,0,0,
,-0.464,-0.052,0.781,161.804,-118.47,36.682,0,0,0,
,-0.467,-0.067,0.787,122.192,-98.999,10.986,0,0,0,
,-0.471,-0.067,0.8,53.833,-86.304,-5.86,0,0,0,
,-0.477,-0.067,0.797,-10.132,-76.783,-25.33,0,0,0,
,-0.491,-0.061,0.796,-58.838,-64.454,-40.345,0,0,0,
,-0.501,-0.04,0.781,-85.572,-52.002,-57.862,0,0,0,
,-0.504,-0.026,0.786,-83.313,-29.236,-71.839,0,0,0,
,-0.507,-0.022,0.794,-80.811,-2.198,-83.863,0,0,0,
,-0.505,-0.027,0.804,-93.995,22.155,-95.459,0,0,0,
,-0.504,-0.028,0.798,-126.465,37.048,-106.202,0,0,0,
,-0.504,-0.024,0.793,-166.687,53.222,-112.244,0,0,0,
,-0.508,-0.025,0.8,-193.909,72.692,-119.385,0,0,0,
,-0.496,-0.001,0.8,-211.304,91.247,-136.414,0,0,0,
,-0.495,0.013,0.8,-217.53,107.422,-152.649,0,0,0,
,-0.489,0.005,0.807,-237.915,124.145,-170.472,0,0,0,
,-0.473,0.016,0.799,-295.838,137.634,-194.031,0,0,0,
,-0.459,0.026,0.774,-364.014,136.535,-211.487,0,0,0,
,-0.458,0.034,0.765,-447.754,127.258,-227.173,0,0,0,
,-0.468,0.057,0.753,-518.616,129.028,-239.869,0,0,0,
,-0.469,0.088,0.765,-595.704,145.019,-259.522,0,0,0,
,-0.473,0.116,0.768,-660.584,159.79,-278.687,0,0,0,
,-0.469,0.141,0.777,-733.399,176.635,-295.289,0,0,0,
,-0.45,0.156,0.786,-829.651,193.542,-314.942,0,0,0,
,-0.439,0.192,0.79,-950.013,198.181,-322.388,0,0,0,
,-0.433,0.244,0.798,-1144.959,187.805,-317.566,0,0,0,
,-0.423,0.298,0.791,-1333.558,160.095,-317.933,0,0,0,
,-0.418,0.372,0.785,-1544.007,120.239,-303.101,0,0,0,
,-0.434,0.476,0.758,-1762.818,70.8,-259.705,0,0,0,
,-0.457,0.589,0.719,-1922.059,33.203,-241.517,0,0,0,
,-0.482,0.733,0.666,-1957.825,25.024,-216.919,0,0,0,
,-0.484,0.825,0.603,-1959.961,25.756,-169.983,0,0,0,
,-0.488,0.897,0.561,-1962.281,14.648,-117.31,0,0,0,
,-0.507,0.973,0.502,-1943.665,10.498,-76.539,0,0,0,
,-0.534,1.044,0.445,-1839.539,32.348,-43.824,0,0,0,
,-0.53,1.108,0.387,-1577.332,69.58,-17.395,0,0,0,
,-0.507,1.122,0.378,-1212.037,85.937,6.774,0,0,0,
,-0.476,1.107,0.397,-841.004,83.618,39.672,0,0,0,
,-0.456,1.047,0.412,-550.538,72.021,70.617,0,0,0,
,-0.454,1.004,0.385,-348.816,61.706,90.576,0,0,0,
,-0.433,0.97,0.466,-218.934,20.141,75.622,0,0,0,
,-0.423,0.917,0.494,-111.023,-27.222,94.604,0,0,0,
,-0.447,0.891,0.457,-127.808,-46.631,128.906,0,0,0,
,-0.458,0.881,0.363,-122.986,-51.148,151.855,0,0,0,
,-0.464,0.908,0.302,-129.334,-50.904,148.437,0,0,0,
,-0.459,0.913,0.288,-116.089,-46.082,133.3,0,0,0,
,-0.456,0.909,0.256,-85.633,-46.509,137.451,0,0,0,
,-0.458,0.892,0.243,-51.148,-51.575,140.869,0,0,0,
,-0.448,0.885,0.262,-20.63,-55.298,134.094,0,0,0,
,-0.466,0.864,0.254,30.761,-66.834,136.169,0,0,0,
,-0.468,0.806,0.231,50.659,-76.111,142.761,0,0,0,
,-0.478,0.795,0.236,36.377,-76.294,160.705,0,0,0,
,-0.487,0.839,0.236,25.268,-59.754,140.258,0,0,0,
,-0.481,0.872,0.232,39.184,-61.585,137.146,0,0,0,
,-0.493,0.851,0.236,51.696,-68.36,136.84,0,0,0,
,-0.499,0.83,0.248,47.973,-69.825,141.296,0,0,0,
,-0.502,0.829,0.261,31.677,-72.022,155.151,0,0,0,
,-0.499,0.856,0.272,-3.052,-77.759,165.039,0,0,0,
,-0.498,0.873,0.293,-16.602,-94.361,181.213,0,0,0,
,-0.51,0.892,0.304,-2.808,-111.878,192.382,0,0,0,
,-0.495,0.877,0.282,31.616,-131.836,210.876,0,0,0,
,-0.473,0.834,0.284,-3.602,-153.809,231.323,0,0,0,
,-0.462,0.839,0.282,31.433,-198.67,229.492,0,0,0,
,-0.454,0.826,0.301,136.413,-232.605,234.68,0,0,0,
,-0.423,0.791,0.305,256.042,-278.016,215.942,0,0,0,
,-0.382,0.726,0.3,355.346,-318.238,175.415,0,0,0,
,-0.369,0.678,0.289,429.687,-348.816,128.845,0,0,0,
,-0.382,0.612,0.263,483.52,-377.991,64.819,0,0,0,
,-0.415,0.57,0.237,455.2,-401.307,-3.052,0,0,0,
,-0.463,0.549,0.216,404.235,-421.998,-83.497,0,0,0,
,-0.508,0.536,0.205,364.441,-439.209,-164.917,0,0,0,
,-0.537,0.507,0.194,329.773,-437.256,-235.657,0,0,0,
,-0.563,0.482,0.176,258.728,-428.284,-304.2,0,0,0,
,-0.587,0.485,0.147,129.394,-409.79,-362.183,0,0,0,
,-0.601,0.498,0.1,-26.429,-369.568,-422.913,0,0,0,
,-0.602,0.555,0.051,-118.348,-325.623,-473.572,0,0,0,
,-0.608,0.661,0.029,-167.176,-274.109,-502.381,0,0,0,
,-0.599,0.736,0.038,-130.127,-225.769,-542.298,0,0,0,
,-0.588,0.783,0.042,-24.476,-191.773,-565.43,0,0,0,
,-0.608,0.855,0.04,108.337,-176.453,-603.638,0,0,0,
,-0.616,0.862,0.073,259.765,-143.86,-645.081,0,0,0,
,-0.593,0.865,0.082,427.856,-102.967,-663.514,0,0,0,
,-0.579,0.839,0.123,518.493,-77.271,-687.439,0,0,0,
,-0.579,0.823,0.144,562.5,-50.538,-699.585,0,0,0,
,-0.573,0.851,0.156,534.973,-0.855,-694.519,0,0,0,
,-0.547,0.872,0.183,507.324,15.075,-693.848,0,0,0,
,-0.511,0.869,0.238,516.906,42.48,-655.213,0,0,0,
,-0.494,0.886,0.312,492.553,75.012,-606.507,0,0,0,
,-0.469,0.898,0.359,434.509,104.309,-551.575,0,0,0,
,-0.443,0.921,0.406,396.057,130.737,-494.446,0,0,0,
,-0.418,0.914,0.424,376.892,164.245,-446.351,0,0,0,
,-0.394,0.907,0.446,386.108,189.453,-376.221,0,0,0,
,-0.372,0.925,0.478,356.811,195.129,-297.181,0,0,0,
,-0.334,0.92,0.518,339.904,198.913,-275.147,0,0,0,
,-0.314,0.904,0.541,327.88,198.608,-231.812,0,0,0,
,-0.313,0.903,0.491,292.602,199.524,-193.604,0,0,0,
,-0.258,0.904,0.61,256.347,117.736,-113.465,0,0,0,
,-0.299,1.124,0.66,244.812,70.617,17.944,0,0,0,
,-0.324,1.039,0.67,255.371,41.381,-44.617,0,0,0,
,-0.372,0.933,0.682,434.082,-2.503,27.648,0,0,0,
,-0.335,0.84,0.59,347.351,-22.583,136.108,0,0,0,
,-0.286,0.802,0.565,255.737,4.638,63.11,0,0,0,
,-0.278,0.797,0.549,194.58,-6.958,25.024,0,0,0,
,-0.289,0.776,0.559,162.048,-14.405,-2.198,0,0,0,
,-0.295,0.745,0.566,118.103,1.953,-29.969,0,0,0,
,-0.285,0.765,0.572,66.406,21.057,-40.345,0,0,0,
,-0.27,0.82,0.555,47.668,31.189,-34.18,0,0,0,
,-0.261,0.834,0.548,66.772,24.475,-24.964,0,0,0,
,-0.263,0.802,0.546,95.825,10.925,-14.771,0,0,0,
,-0.267,0.798,0.556,129.76,1.586,-4.7,0,0,0,
,-0.267,0.794,0.567,150.39,-3.785,0.854,0,0,0,
,-0.269,0.75,0.575,162.963,-10.621,4.15,0,0,0,
,-0.271,0.765,0.57,168.09,-22.034,3.784,0,0,0,
,-0.284,0.767,0.583,184.753,-22.461,8.239,0,0,0,
,-0.291,0.766,0.597,184.509,-13.977,3.54,0,0,0,
,-0.291,0.741,0.611,174.011,-2.686,-9.766,0,0,0,
,-0.286,0.721,0.626,144.531,5.798,-21.18,0,0,0,
,-0.282,0.715,0.633,102.478,8.3,-28.565,0,0,0,
,-0.283,0.7,0.64,44.677,5.249,-29.358,0,0,0,
,-0.286,0.707,0.633,-80.445,14.831,-22.583,0,0,0,
,-0.288,0.727,0.617,-125.672,17.761,-23.194,0,0,0,
,-0.286,0.75,0.612,-141.419,18.493,-27.588,0,0,0,
,-0.286,0.746,0.603,-152.832,19.714,-31.739,0,0,0,
,-0.286,0.75,0.597,-153.687,16.479,-33.814,0,0,0,
,-0.279,0.754,0.588,-158.753,14.587,-37.72,0,0,0,
,-0.279,0.753,0.586,-155.213,7.812,-41.504,0,0,0,
,-0.28,0.77,0.577,-146.668,6.103,-46.57,0,0,0,
,-0.28,0.77,0.577,-137.818,2.38,-46.204,0,0,0,
,-0.282,0.766,0.565,-128.418,-3.54,-39.246,0,0,0,
,-0.28,0.787,0.559,-109.742,-9.461,-34.302,0,0,0,
,-0.283,0.79,0.553,-66.04,-11.902,-29.114,0,0,0,
,-0.28,0.795,0.551,-38.819,-12.635,-31.373,0,0,0,
,-0.284,0.79,0.555,4.333,-10.621,-33.081,0,0,0,
,-0.289,0.76,0.579,40.039,3.54,-26.001,0,0,0,
,-0.29,0.758,0.581,23.498,10.498,-30.518,0,0,0,
,-0.288,0.75,0.583,-1.465,11.23,-32.41,0,0,0,
,-0.292,0.75,0.58,-30.396,12.023,-32.105,0,0,0,
,-0.287,0.75,0.579,-53.711,13,-34.852,0,0,0,
,-0.29,0.773,0.583,-69.031,17.944,-39.673,0,0,0,
,-0.277,0.77,0.565,-74.769,17.028,-44.495,0,0,0,
,-0.284,0.774,0.572,-89.661,10.437,-38.392,0,0,0,
,-0.284,0.766,0.577,-128.296,7.69,-43.274,0,0,0,
,-0.286,0.767,0.577,-168.335,2.38,-50.599,0,0,0,
,-0.292,0.783,0.584,-219.3,6.286,-69.947,0,0,0,
,-0.298,0.791,0.567,-291.687,-1.526,-114.136,0,0,0,
,-0.313,0.801,0.582,-358.155,16.845,-142.518,0,0,0,
,-0.326,0.815,0.592,-467.469,77.758,-194.581,0,0,0,
,-0.338,0.805,0.589,-637.94,119.934,-257.996,0,0,0,
,-0.389,0.765,0.587,-814.698,169.494,-321.717,0,0,0,
,-0.514,0.913,0.615,-595.52,-101.99,209.655,0,0,0,
,-0.413,1.148,0.619,-385.254,92.224,210.815,0,0,0,
,-0.291,1.093,0.495,-276.612,-10.926,-5.494,0,0,0,
,-0.408,1.081,0.499,-161.805,-86.06,71.289,0,0,0,
,-0.438,1.056,0.485,-49.256,-83.313,151.977,0,0,0,
,-0.391,1.122,0.489,59.936,-106.629,249.817,0,0,0,
,-0.404,1.161,0.488,178.283,-125.306,307.678,0,0,0,
,-0.434,1.102,0.492,328.003,-122.681,356.75,0,0,0,
,-0.422,0.995,0.486,368.286,-106.69,415.588,0,0,0,
,-0.402,0.933,0.476,310.669,-95.093,458.618,0,0,0,
,-0.387,0.916,0.446,242.126,-78.248,495.483,0,0,0,
,-0.37,0.913,0.424,213.317,-63.416,532.104,0,0,0,
,-0.355,0.866,0.429,207.092,-53.711,559.692,0,0,0,
,-0.344,0.806,0.43,205.078,-40.894,578.796,0,0,0,
,-0.339,0.765,0.422,186.645,-22.217,585.449,0,0,0,
,-0.336,0.741,0.407,181.213,-2.93,588.195,0,0,0,
,-0.336,0.697,0.389,172.973,21.484,571.411,0,0,0,
,-0.338,0.643,0.379,160.583,45.532,554.016,0,0,0,
,-0.374,0.583,0.357,117.187,60.669,529.297,0,0,0,
,-0.351,0.55,0.355,67.749,71.655,492.553,0,0,0,
,-0.363,0.535,0.36,44.799,81.787,449.035,0,0,0,
,-0.371,0.515,0.365,59.448,88.134,407.348,0,0,0,
,-0.381,0.509,0.372,80.749,95.764,361.206,0,0,0,
,-0.398,0.5,0.375,90.393,104.309,304.931,0,0,0,
,-0.417,0.478,0.382,98.632,111.084,244.079,0,0,0,
,-0.431,0.438,0.371,92.407,125.488,176.391,0,0,0,
,-0.447,0.405,0.382,75.683,132.385,113.403,0,0,0,
,-0.47,0.386,0.408,37.719,142.944,47.729,0,0,0,
,-0.486,0.369,0.444,-14.527,158.996,-10.315,0,0,0,
,-0.493,0.402,0.477,-73.975,179.138,-67.872,0,0,0,
,-0.495,0.444,0.463,-127.259,197.082,-134.949,0,0,0,
,-0.499,0.471,0.457,-119.507,200.744,-210.511,0,0,0,
,-0.496,0.48,0.457,-102.234,200.988,-277.894,0,0,0,
,-0.481,0.502,0.49,-104.554,209.228,-341.37,0,0,0,
,-0.452,0.537,0.54,-123.23,228.637,-410.645,0,0,0,
,-0.434,0.571,0.547,-90.088,264.282,-478.577,0,0,0,
,-0.451,0.624,0.558,37.536,317.016,-541.626,0,0,0,
,-0.468,0.758,0.676,256.103,393.921,-632.874,0,0,0,
,-0.467,0.951,0.884,608.459,476.989,-720.581,0,0,0,
,-0.497,1.111,0.764,886.23,574.157,-830.445,0,0,0,
,-0.521,0.699,0.348,1103.027,532.837,-835.144,0,0,0,
,-0.473,0.121,-0.13,1361.633,500.488,-679.993,0,0,0,
,-0.234,0.668,2.055,-111.634,377.136,88.195,0,0,0,
,-0.244,0.848,1.587,-2000,-333.435,184.997,0,0,0,
,-0.481,1.481,0.672,-1200.196,-144.41,-84.839,0,0,0,
,-0.423,1.535,0.327,158.752,-168.58,268.066,0,0,0,
,-0.179,0.711,0.452,995.727,-152.283,135.62,0,0,0,
,-0.346,0.349,0.771,738.464,-390.87,145.08,0,0,0,
,-0.521,0.205,0.94,78.064,-254.578,111.938,0,0,0,
,-0.357,0.442,0.958,-236.512,-97.962,-20.874,0,0,0,
,-0.362,0.699,0.76,-254.151,74.462,-114.319,0,0,0,
,-0.396,0.736,0.521,-43.58,195.617,-163.88,0,0,0,
,-0.419,0.72,0.587,262.512,293.457,-224.793,0,0,0,
,-0.439,0.515,0.154,233.947,360.717,-296.936,0,0,0,
,-0.335,0.164,0.954,487.854,293.151,-218.323,0,0,0,
,-0.197,0.565,1.02,-1104.371,-204.163,281.799,0,0,0,
,-0.317,0.87,0.419,-663.575,-68.604,67.688,0,0,0,
,-0.336,1.126,0.317,-2.93,-62.378,76.294,0,0,0,
,-0.242,0.771,0.463,406.799,-95.643,29.541,0,0,0,
,-0.336,0.486,0.688,271.301,-254.822,14.221,0,0,0,
,-0.51,0.45,1.018,-118.164,-174.439,62.927,0,0,0,
,-0.465,0.615,0.959,-249.268,-17.09,33.569,0,0,0,
,-0.38,0.773,0.707,-52.735,121.154,-55.664,0,0,0,
,-0.406,0.778,0.469,116.027,203.735,-101.807,0,0,0,
,-0.463,0.761,0.594,266.784,271.789,-192.81,0,0,0,
,-0.494,0.523,0.056,333.618,320.251,-281.678,0,0,0,
,-0.36,0.709,1.572,108.52,144.47,-71.778,0,0,0,
,-0.364,0.718,1.221,-662.537,-204.529,160.156,0,0,0,
,-0.473,1.091,0.585,-384.644,-57.068,156.005,0,0,0,
,-0.463,1.056,0.519,130.31,-112.977,207.946,0,0,0,
,-0.498,0.439,0.788,163.208,-246.949,258.239,0,0,0,
,-0.647,0.473,0.796,-313.172,-230.53,297.241,0,0,0,
,-0.646,0.565,0.697,-606.202,-121.216,343.994,0,0,0,
,-0.541,0.628,0.613,-653.748,-52.918,360.901,0,0,0,
,-0.497,0.606,0.577,-642.64,-34.058,360.778,0,0,0,
,-0.547,0.502,0.502,-801.697,46.752,328.796,0,0,0,
,-0.559,0.496,0.433,-966.797,117.736,282.409,0,0,0,
,-0.539,0.505,0.316,-1068.848,187.5,220.825,0,0,0,
,-0.504,0.543,0.221,-1105.835,249.633,167.053,0,0,0,
,-0.469,0.627,0.198,-1086.853,294.311,125.61,0,0,0,
,-0.428,0.692,0.214,-1002.076,308.838,83.252,0,0,0,
,-0.397,0.748,0.233,-894.898,292.724,46.752,0,0,0,
,-0.385,0.744,0.274,-801.575,271.24,18.92,0,0,0,
,-0.374,0.734,0.255,-718.323,254.638,11.779,0,0,0,
,-0.367,0.745,0.278,-690.186,232.544,7.568,0,0,0,
,-0.357,0.766,0.276,-680.481,216.552,-3.602,0,0,0,
,-0.349,0.818,0.292,-658.814,188.537,-23.621,0,0,0,
,-0.354,0.86,0.292,-587.586,162.475,-56.946,0,0,0,
,-0.357,0.902,0.297,-471.07,136.291,-83.802,0,0,0,
,-0.355,0.896,0.323,-358.033,113.342,-121.399,0,0,0,
,-0.358,0.867,0.324,-258.728,105.224,-132.508,0,0,0,
,-0.361,0.842,0.305,-241.761,97.168,-131.104,0,0,0,
,-0.363,0.848,0.305,-241.394,97.9,-131.47,0,0,0,
,-0.359,0.868,0.302,-240.296,104.431,-134.583,0,0,0,
,-0.366,0.89,0.286,-253.052,91.247,-134.949,0,0,0,
,-0.378,0.872,0.296,-301.758,78.186,-152.71,0,0,0,
,-0.373,0.863,0.305,-336.853,78.674,-163.697,0,0,0,
,-0.352,0.889,0.305,-348.023,78.491,-168.946,0,0,0,
,-0.362,0.91,0.275,-299.256,76.477,-157.715,0,0,0,
,-0.341,0.937,0.271,-260.804,74.523,-137.269,0,0,0,
,-0.342,0.959,0.26,-222.474,47.058,-126.343,0,0,0,
,-0.37,0.921,0.212,-147.644,36.499,-137.146,0,0,0,
,-0.375,0.911,0.186,-106.995,43.029,-143.616,0,0,0,
,-0.365,0.929,0.162,-57.74,47.851,-158.936,0,0,0,
,-0.359,0.951,0.167,-30.518,41.503,-166.626,0,0,0,
,-0.367,0.954,0.207,-9.095,20.324,-175.354,0,0,0,
,-0.365,0.934,0.233,-0.184,15.686,-175.415,0,0,0,
,-0.367,0.911,0.194,-12.635,31.25,-180.97,0,0,0,
,-0.383,0.936,0.213,-72.205,30.334,-124.268,0,0,0,
,-0.39,0.965,0.252,-191.956,20.08,-132.447,0,0,0,
,-0.361,1.03,0.245,-87.708,9.216,-106.568,0,0,0,
,-0.351,1.023,0.242,57.739,-16.236,-75.013,0,0,0,
,-0.371,0.982,0.252,132.629,-41.504,-67.078,0,0,0,
,-0.38,1.007,0.273,216.735,-48.035,-65.003,0,0,0,
,-0.359,1.039,0.3,340.515,-64.637,-53.711,0,0,0,
,-0.354,1.004,0.331,446.716,-81.788,-39.795,0,0,0,
,-0.372,0.955,0.294,468.383,-69.642,-11.78,0,0,0,
,-0.401,0.963,0.259,415.466,-57.129,-13.855,0,0,0,
,-0.43,1.019,0.276,427.368,-40.223,-12.635,0,0,0,
,-0.442,1.071,0.337,562.378,-9.766,-25.025,0,0,0,
,-0.439,1.1,0.356,737.365,0.183,-27.894,0,0,0,
,-0.433,1.104,0.401,970.947,14.343,-18.677,0,0,0,
,-0.426,1.057,0.361,1237.548,22.461,29.602,0,0,0,
,-0.439,1.093,0.419,1362.365,6.958,83.19,0,0,0,
,-0.451,1.048,0.455,1476.013,12.268,73.608,0,0,0,
,-0.441,0.971,0.494,1600.158,15.625,101.257,0,0,0,
,-0.43,0.928,0.539,1691.833,24.475,158.752,0,0,0,
,-0.402,0.869,0.568,1779.724,35.644,189.392,0,0,0,
,-0.371,0.75,0.582,1844.177,20.935,206.054,0,0,0,
,-0.358,0.617,0.605,1818.725,-19.593,230.774,0,0,0,
,-0.357,0.501,0.647,1660.095,-62.806,257.873,0,0,0,
,-0.358,0.403,0.688,1476.257,-106.263,265.503,0,0,0,
,-0.351,0.316,0.721,1284.668,-114.624,255.127,0,0,0,
,-0.341,0.233,0.737,1095.947,-127.32,246.704,0,0,0,
,-0.338,0.177,0.75,896.484,-141.114,221.191,0,0,0,
,-0.33,0.123,0.759,714.355,-155.152,188.659,0,0,0,
,-0.339,0.114,0.753,559.021,-173.401,180.175,0,0,0,
,-0.351,0.123,0.763,442.993,-187.989,163.513,0,0,0,
,-0.368,0.122,0.765,345.886,-195.191,135.498,0,0,0,
,-0.39,0.11,0.762,278.137,-189.942,116.516,0,0,0,
,-0.403,0.085,0.763,206.97,-169.739,88.806,0,0,0,
,-0.417,0.074,0.752,123.291,-156.861,64.148,0,0,0,
,-0.428,0.094,0.76,53.039,-134.644,49.682,0,0,0,
,-0.438,0.111,0.773,27.099,-116.15,27.038,0,0,0,
,-0.446,0.114,0.781,15.502,-98.023,9.46,0,0,0,
,-0.454,0.108,0.779,-2.259,-85.694,-8.789,0,0,0,
,-0.488,0.114,0.784,-70.801,-63.66,-39.551,0,0,0,
,-0.488,0.134,0.79,-97.229,-30.823,-51.392,0,0,0,
,-0.488,0.14,0.789,-102.478,-10.498,-69.519,0,0,0,
,-0.489,0.144,0.787,-103.699,5.065,-79.834,0,0,0,
,-0.495,0.142,0.776,-110.901,19.836,-89.722,0,0,0,
,-0.502,0.154,0.784,-119.141,40.1,-100.892,0,0,0,
,-0.496,0.156,0.796,-119.873,65.979,-112.854,0,0,0,
,-0.483,0.147,0.803,-123.536,85.632,-129.761,0,0,0,
,-0.47,0.129,0.78,-204.285,93.933,-166.871,0,0,0,
,-0.467,0.145,0.772,-270.569,99.548,-187.073,0,0,0,
,-0.462,0.17,0.764,-328.858,114.624,-204.163,0,0,0,
,-0.455,0.192,0.755,-375.855,125.793,-218.201,0,0,0,
,-0.444,0.233,0.746,-574.341,161.316,-258.667,0,0,0,
,-0.437,0.243,0.767,-695.984,161.255,-296.448,0,0,0,
,-0.421,0.246,0.747,-810.364,159.912,-314.576,0,0,0,
,-0.413,0.291,0.769,-1000.123,144.775,-321.106,0,0,0,
,-0.414,0.377,0.783,-1179.322,108.154,-329.712,0,0,0,
,-0.416,0.426,0.798,-1369.996,91.796,-321.412,0,0,0,
,-0.428,0.502,0.726,-1527.222,82.275,-288.392,0,0,0,
,-0.437,0.579,0.674,-1728.15,61.828,-274.659,0,0,0,
,-0.446,0.672,0.617,-1886.841,43.029,-254.212,0,0,0,
,-0.456,0.789,0.558,-1964.417,42.236,-207.581,0,0,0,
,-0.461,0.932,0.492,-1966.065,59.57,-167.908,0,0,0,
,-0.466,1.043,0.401,-1898.682,67.443,-131.653,0,0,0,
,-0.466,1.109,0.34,-1756.897,68.115,-96.985,0,0,0,
,-0.46,1.105,0.315,-1568.36,71.411,-66.102,0,0,0,
,-0.456,1.112,0.299,-1398.682,88.989,-11.109,0,0,0,
,-0.453,1.143,0.255,-1178.345,117.37,31.982,0,0,0,
,-0.432,1.203,0.226,-896.851,118.103,57.8,0,0,0,
,-0.378,1.214,0.271,-572.998,70.373,46.447,0,0,0,
,-0.353,1.089,0.338,-284.18,-6.653,65.918,0,0,0,
,-0.379,0.97,0.316,-173.951,-23.133,116.882,0,0,0,
,-0.401,0.946,0.265,-174.256,-16.175,184.875,0,0,0,
,-0.369,0.958,0.255,-181.458,2.319,210.022,0,0,0,
,-0.352,0.998,0.266,-127.625,-4.151,206.115,0,0,0,
,-0.383,1.02,0.262,-25.147,-17.212,198.425,0,0,0,
,-0.385,0.955,0.2,97.534,-7.081,197.815,0,0,0,
,-0.39,0.899,0.149,121.276,-23.072,194.702,0,0,0,
,-0.405,0.88,0.141,137.878,-36.255,186.462,0,0,0,
,-0.414,0.912,0.151,171.569,-38.025,203.979,0,0,0,
,-0.398,0.998,0.192,201.233,-50.232,202.636,0,0,0,
,-0.412,0.951,0.24,284.118,-145.02,230.896,0,0,0,
,-0.447,0.914,0.228,264.465,-179.993,255.371,0,0,0,
,-0.443,0.84,0.266,211.303,-207.52,266.418,0,0,0,
,-0.397,0.849,0.262,146.484,-223.511,299.133,0,0,0,
,-0.381,0.877,0.285,148.559,-270.874,305.908,0,0,0,
,-0.395,0.866,0.279,262.39,-311.219,314.148,0,0,0,
,-0.421,0.842,0.275,436.767,-349.122,289.123,0,0,0,
,-0.435,0.781,0.278,591.674,-374.573,221.191,0,0,0,
,-0.454,0.705,0.258,739.746,-394.043,166.442,0,0,0,
,-0.465,0.629,0.245,811.035,-411.011,85.083,0,0,0,
,-0.48,0.56,0.251,794.616,-418.824,9.826,0,0,0,
,-0.495,0.5,0.271,690.063,-411.194,-68.116,0,0,0,
,-0.501,0.447,0.263,545.41,-392.701,-143.738,0,0,0,
,-0.518,0.464,0.23,413.391,-359.864,-222.901,0,0,0,
,-0.536,0.517,0.217,351.318,-317.81,-309.021,0,0,0,
,-0.554,0.583,0.212,371.521,-265.931,-394.227,0,0,0,
,-0.553,0.596,0.197,428.039,-225.037,-485.962,0,0,0,
,-0.562,0.561,0.17,472.168,-183.533,-547.303,0,0,0,
,-0.578,0.486,0.121,453.308,-139.405,-595.581,0,0,0,
,-0.595,0.502,0.116,339.05,-69.886,-620.545,0,0,0,
,-0.599,0.617,0.153,170.227,20.874,-660.767,0,0,0,
,-0.56,0.766,0.234,80.871,93.566,-692.749,0,0,0,
,-0.481,0.854,0.287,107.91,97.595,-705.262,0,0,0,
,-0.44,0.824,0.294,202.27,58.044,-704.712,0,0,0,
,-0.454,0.73,0.291,184.692,40.588,-679.322,0,0,0,
,-0.472,0.687,0.294,23.742,42.358,-624.329,0,0,0,
,-0.468,0.753,0.309,-191.651,46.081,-563.111,0,0,0,
,-0.442,0.863,0.317,-345.093,33.081,-553.894,0,0,0,
,-0.414,0.953,0.327,-351.746,8.972,-536.499,0,0,0,
,-0.39,1.029,0.326,-246.094,-23.865,-521.058,0,0,0,
,-0.379,1.05,0.334,-88.562,-56.275,-503.113,0,0,0,
,-0.38,1.018,0.34,54.687,-74.707,-481.202,0,0,0,
,-0.378,0.979,0.368,121.154,-81.665,-453.064,0,0,0,
,-0.368,0.962,0.42,103.454,-83.802,-415.467,0,0,0,
,-0.345,0.946,0.423,60.669,-72.205,-385.132,0,0,0,
,-0.321,0.948,0.41,11.535,-68.726,-343.995,0,0,0,
,-0.303,0.965,0.4,-4.761,-67.627,-310.059,0,0,0,
,-0.281,0.941,0.4,-31.006,-63.416,-277.1,0,0,0,
,-0.26,0.839,0.425,-127.259,-58.167,-220.643,0,0,0,
,-0.249,0.921,0.483,-414.49,-93.018,-22.767,0,0,0,
,-0.291,1.206,0.503,-700.562,-177.063,33.325,0,0,0,
,-0.287,1.171,0.466,-495.85,-173.523,-49.561,0,0,0,
,-0.287,1.023,0.348,-265.076,-176.941,49.682,0,0,0,
,-0.319,0.981,0.257,-209.778,-175.11,99.06,0,0,0,
,-0.374,1.126,0.276,-45.716,-140.381,158.386,0,0,0,
,-0.333,1.036,0.212,101.135,-45.289,78.857,0,0,0,
,-0.295,0.968,0.225,240.966,-29.786,26.672,0,0,0,
,-0.32,0.939,0.258,344.421,-5.433,-4.517,0,0,0,
,-0.323,0.922,0.288,414.489,59.326,-46.814,0,0,0,
,-0.3,0.905,0.306,467.59,107.666,-79.712,0,0,0,
,-0.276,0.921,0.351,480.468,120.239,-78.492,0,0,0,
,-0.249,0.895,0.391,452.636,112.732,-70.862,0,0,0,
,-0.235,0.853,0.423,408.691,89.355,-48.706,0,0,0,
,-0.235,0.814,0.456,307.617,59.326,-40.101,0,0,0,
,-0.242,0.79,0.46,200.317,39.062,-26.368,0,0,0,
,-0.245,0.819,0.46,93.627,27.404,-4.639,0,0,0,
,-0.251,0.853,0.442,0,13,13.122,0,0,0,
,-0.259,0.846,0.432,-26.429,-4.395,10.131,0,0,0,
,-0.273,0.871,0.416,-41.138,2.197,8.483,0,0,0,
,-0.275,0.882,0.41,-27.161,0.793,-7.386,0,0,0,
,-0.279,0.864,0.429,-23.987,4.028,-22.461,0,0,0,
,-0.281,0.867,0.412,-34.485,24.292,-23.255,0,0,0,
,-0.272,0.862,0.421,-29.786,21.301,-42.542,0,0,0,
,-0.266,0.849,0.43,-49.683,16.784,-51.209,0,0,0,
,-0.26,0.849,0.43,-72.205,12.451,-46.814,0,0,0,
,-0.261,0.863,0.417,-97.046,8.422,-42.359,0,0,0,
,-0.265,0.865,0.404,-104.004,3.54,-39.124,0,0,0,
,-0.268,0.872,0.394,-92.835,4.028,-35.401,0,0,0,
,-0.262,0.889,0.387,-67.383,7.385,-34.485,0,0,0,
,-0.262,0.89,0.387,-32.166,5.798,-29.602,0,0,0,
,-0.265,0.869,0.394,-8.301,-0.489,-23.987,0,0,0,
,-0.268,0.863,0.404,-0.123,1.281,-14.893,0,0,0,
,-0.266,0.87,0.407,-3.418,-0.611,-15.259,0,0,0,
,-0.263,0.869,0.412,-7.691,-7.081,-16.541,0,0,0,
,-0.268,0.854,0.409,-26.246,-11.719,-16.663,0,0,0,
,-0.271,0.866,0.405,-34.18,-5.066,-11.78,0,0,0,
,-0.274,0.872,0.398,-42.908,-7.508,-13.001,0,0,0,
,-0.276,0.868,0.396,-18.555,7.202,-27.344,0,0,0,
,-0.274,0.87,0.4,-13.977,6.652,-31.067,0,0,0,
,-0.276,0.867,0.399,-12.33,9.216,-32.166,0,0,0,
,-0.271,0.865,0.399,-17.09,7.263,-32.532,0,0,0,
,-0.272,0.871,0.403,-16.907,13.549,-33.997,0,0,0,
,-0.269,0.872,0.403,-20.874,11.047,-39.673,0,0,0,
,-0.269,0.862,0.402,-25.086,9.826,-37.354,0,0,0,
,-0.272,0.866,0.398,-32.349,7.263,-32.898,0,0,0,
,-0.272,0.867,0.396,-32.044,10.498,-33.997,0,0,0,
,-0.273,0.872,0.398,-32.532,10.437,-34.913,0,0,0,
,-0.269,0.87,0.397,-26.856,11.84,-36.255,0,0,0,
,-0.271,0.866,0.396,-41.993,10.131,-31.067,0,0,0,
,-0.27,0.873,0.387,-43.824,8.911,-33.081,0,0,0,
,-0.267,0.873,0.39,-36.56,12.512,-31.678,0,0,0,
,-0.265,0.872,0.39,-36.438,11.23,-25.391,0,0,0,
,-0.267,0.868,0.39,-34.607,4.76,-17.762,0,0,0,
,-0.27,0.871,0.391,-32.227,0.366,-11.109,0,0,0,
,-0.272,0.876,0.39,-26.062,0.732,-9.705,0,0,0,
,-0.272,0.873,0.388,-26.551,-2.808,-14.527,0,0,0,
,-0.273,0.878,0.385,-16.419,-0.123,-16.297,0,0,0,
,-0.277,0.866,0.384,-15.564,-5.677,-20.02,0,0,0,
,-0.282,0.882,0.386,-9.034,-5.127,-18.677,0,0,0,
,-0.28,0.88,0.386,-0.977,-4.029,-28.016,0,0,0,
,-0.281,0.878,0.386,12.756,-0.794,-35.096,0,0,0,
,-0.278,0.878,0.386,28.686,3.112,-35.889,0,0,0,
,-0.276,0.873,0.395,36.865,1.953,-41.199,0,0,0,
,-0.274,0.864,0.403,27.099,-3.296,-41.504,0,0,0,
,-0.275,0.865,0.409,7.446,-1.038,-44.983,0,0,0,
,-0.271,0.865,0.419,-25.757,-4.212,-48.706,0,0,0,
,-0.264,0.864,0.419,-69.458,-13.062,-49.195,0,0,0,
,-0.268,0.879,0.448,-130.677,-20.691,-44.922,0,0,0,
,-0.278,0.869,0.451,-261.963,-24.842,-45.838,0,0,0,
,-0.287,0.854,0.451,-420.289,-22.095,-67.322,0,0,0,
,-0.306,0.878,0.435,-589.051,-8.973,-100.831,0,0,0,
,-0.342,0.906,0.411,-755.799,13.977,-158.997,0,0,0,
,-0.441,0.997,0.45,-610.596,-37.293,-2.381,0,0,0,
,-0.454,1.149,0.329,-627.564,43.762,-10.987,0,0,0,
,-0.463,1.097,0.254,-553.284,-7.569,71.777,0,0,0,
,-0.544,1.232,0.208,-520.203,-42.298,357.91,0,0,0,
,-0.503,1.345,0.203,-382.569,36.254,375.366,0,0,0,
,-0.45,1.403,0.2,-127.869,66.406,442.871,0,0,0,
,-0.466,1.267,0.209,97.473,61.889,467.041,0,0,0,
,-0.482,1.118,0.212,223.327,93.078,542.175,0,0,0,
,-0.447,1.002,0.218,223.266,123.84,588.928,0,0,0,
,-0.414,0.924,0.219,201.294,146.179,607.483,0,0,0,
,-0.396,0.865,0.224,188.232,167.297,621.704,0,0,0,
,-0.376,0.828,0.219,190.734,178.039,617.736,0,0,0,
,-0.354,0.777,0.221,198.242,178.466,598.51,0,0,0,
,-0.343,0.725,0.217,202.514,172.241,558.288,0,0,0,
,-0.33,0.666,0.209,189.88,155.822,513,0,0,0,
,-0.324,0.635,0.204,161.132,141.418,466.43,0,0,0,
,-0.317,0.618,0.214,128.479,122.192,401.001,0,0,0,
,-0.318,0.588,0.231,124.511,105.102,328.186,0,0,0,
,-0.324,0.555,0.251,138.794,96.069,263.122,0,0,0,
,-0.333,0.531,0.26,132.873,94.116,199.768,0,0,0,
,-0.352,0.514,0.251,120.483,99.426,134.338,0,0,0,
,-0.372,0.518,0.242,87.707,105.041,78.918,0,0,0,
,-0.394,0.53,0.235,49.743,106.994,7.69,0,0,0,
,-0.414,0.532,0.241,31.677,119.14,-55.787,0,0,0,
,-0.434,0.581,0.244,-10.926,132.141,-101.258,0,0,0,
,-0.448,0.618,0.254,-75.379,144.226,-157.105,0,0,0,
,-0.454,0.644,0.285,-69.886,152.832,-223.633,0,0,0,
,-0.447,0.67,0.305,-48.218,154.846,-272.767,0,0,0,
,-0.434,0.7,0.32,1.22,146.179,-321.351,0,0,0,
,-0.439,0.694,0.315,71.044,133.911,-367.066,0,0,0,
,-0.464,0.698,0.353,140.442,138.244,-410.828,0,0,0,
,-0.484,0.742,0.463,191.284,184.204,-465.516,0,0,0,
,-0.502,0.858,0.539,347.412,254.455,-535.279,0,0,0,
,-0.518,1.072,0.495,664.795,329.834,-626.893,0,0,0,
,-0.545,1.178,0.341,1044.494,388.855,-672.364,0,0,0,
,-0.486,0.867,0.129,1468.017,457.824,-660.462,0,0,0,
,-0.083,0.846,1.388,735.046,111.694,-51.514,0,0,0,
,-0.461,0.644,1.262,-1557.435,-412.781,135.681,0,0,0,
,-0.786,1.438,0.407,-1027.955,-151.917,-100.464,0,0,0,
,-0.557,1.503,0.344,-9.217,76.66,304.809,0,0,0,
,-0.1,0.765,0.237,830.566,32.043,182.434,0,0,0,
,-0.246,0.486,0.566,608.642,-265.992,185.241,0,0,0,
,-0.567,0.353,0.627,-173.218,-283.814,236.694,0,0,0,
,-0.602,0.44,0.559,-490.662,-88.318,143.432,0,0,0,
,-0.502,0.74,0.469,-619.568,94.665,44.372,0,0,0,
,-0.405,1.032,0.467,2.807,164.428,-198.548,0,0,0,
,-0.327,0.907,0.272,739.807,208.374,-283.081,0,0,0,
,-0.355,0.584,0.337,1306.762,239.502,-398.438,0,0,0,
,-0.483,0.407,0.382,1007.141,281.555,-450.928,0,0,0,
,-0.362,0.15,1.093,448.913,307.922,-346.009,0,0,0,
,-0.183,0.674,0.878,-1958.252,-128.235,242.126,0,0,0,
,-0.468,1.585,0.053,-1409.729,-72.266,200.012,0,0,0,
,-0.319,1.752,0.178,56.274,24.719,200.134,0,0,0,
,-0.032,0.746,0.212,927.002,-51.697,125.732,0,0,0,
,-0.28,0.385,0.459,692.688,-341.126,186.584,0,0,0,
,-0.639,0.256,0.772,30.09,-255.921,224.182,0,0,0,
,-0.679,0.423,0.668,-349.671,-9.583,110.962,0,0,0,
,-0.515,0.778,0.413,-164.917,191.772,-107.666,0,0,0,
,-0.423,0.883,0.277,444.58,316.223,-260.193,0,0,0,
,-0.413,0.67,0.413,984.069,357.666,-374.085,0,0,0,
,-0.495,0.29,0.02,894.043,392.273,-554.139,0,0,0,
,-0.16,0.811,2.395,-171.387,87.524,-168.641,0,0,0,
,-0.469,1.11,0.943,-1530.457,-290.589,252.197,0,0,0,
,-0.754,1.864,0.272,-726.441,-132.63,153.869,0,0,0,
,-0.372,1.216,0.315,693.969,22.277,226.44,0,0,0,
,-0.211,0.593,0.325,1224.975,-81.238,158.325,0,0,0,
,-0.381,0.351,0.531,1074.768,-200.501,164.001,0,0,0,
,-0.636,0.212,0.624,241.821,-229.065,289.917,0,0,0,
,-0.741,0.339,0.543,-588.257,-126.893,308.593,0,0,0,
,-0.694,0.643,0.47,-1055.909,30.456,361.145,0,0,0,
,-0.619,0.895,0.442,-1101.197,97.168,380.066,0,0,0,
,-0.539,0.905,0.428,-950.562,87.829,359.253,0,0,0,
,-0.517,0.724,0.391,-813.233,79.223,305.297,0,0,0,
,-0.563,0.601,0.327,-810.486,101.074,284.118,0,0,0,
,-0.601,0.59,0.262,-954.468,172.79,273.071,0,0,0,
,-0.58,0.634,0.224,-1136.78,254.943,233.276,0,0,0,
,-0.527,0.702,0.196,-1185.547,319.397,184.57,0,0,0,
,-0.489,0.767,0.189,-1107.789,337.768,152.099,0,0,0,
,-0.466,0.808,0.18,-951.172,341.919,120.361,0,0,0,
,-0.44,0.787,0.167,-798.462,335.876,69.763,0,0,0,
,-0.423,0.769,0.155,-665.039,328.186,30.395,0,0,0,
,-0.401,0.757,0.184,-614.075,322.998,-15.931,0,0,0,
,-0.369,0.76,0.214,-561.646,310.974,-56.641,0,0,0,
,-0.34,0.769,0.219,-484.559,281.128,-90.332,0,0,0,
,-0.329,0.786,0.225,-428.894,257.385,-111.023,0,0,0,
,-0.32,0.805,0.255,-395.997,231.262,-145.752,0,0,0,
,-0.309,0.819,0.266,-377.442,213.745,-165.039,0,0,0,
,-0.307,0.837,0.257,-400.025,197.509,-170.289,0,0,0,
,-0.313,0.85,0.236,-419.251,192.81,-181.885,0,0,0,
,-0.321,0.877,0.21,-421.936,186.096,-174.744,0,0,0,
,-0.334,0.926,0.237,-393.799,170.898,-173.157,0,0,0,
,-0.344,0.959,0.226,-306.702,164.672,-176.331,0,0,0,
,-0.31,0.96,0.188,-185.364,134.765,-162.476,0,0,0,
,-0.276,0.981,0.389,-170.594,47.79,-168.58,0,0,0,
,-0.401,0.997,0.285,-78.309,51.879,-137.269,0,0,0,
,-0.367,0.971,0.218,-9.827,37.597,-132.813,0,0,0,
,-0.391,0.9,0.189,-2.93,22.155,-154.48,0,0,0,
,-0.435,0.902,0.15,-19.593,25.146,-157.288,0,0,0,
,-0.441,0.941,0.129,-49.317,28.503,-170.899,0,0,0,
,-0.45,0.942,0.111,-33.875,36.071,-179.871,0,0,0,
,-0.436,0.954,0.121,-34.79,24.597,-161.316,0,0,0,
,-0.422,0.988,0.164,-24.231,-3.296,-142.762,0,0,0,
,-0.395,1.025,0.177,78.308,-25.879,-80.994,0,0,0,
,-0.468,0.953,0.077,115.051,5.371,-44.678,0,0,0,
,-0.481,0.978,0.145,82.458,-5.555,-12.757,0,0,0,
,-0.427,0.998,0.122,150.39,-0.916,-13.306,0,0,0,
,-0.425,0.985,0.126,251.77,-20.691,-32.776,0,0,0,
,-0.419,0.955,0.201,333.252,-21.485,-36.805,0,0,0,
,-0.422,0.93,0.219,410.4,-21.729,-37.842,0,0,0,
,-0.412,0.92,0.282,445.678,-26.917,-25.696,0,0,0,
,-0.417,0.924,0.297,461.792,-22.278,-7.447,0,0,0,
,-0.423,0.943,0.286,472.595,-11.475,16.113,0,0,0,
,-0.426,0.909,0.299,449.157,-1.831,22.644,0,0,0,
,-0.441,0.929,0.289,416.32,21.484,29.174,0,0,0,
,-0.452,0.979,0.318,414.978,42.602,28.198,0,0,0,
,-0.459,1.04,0.354,502.929,61.523,24.536,0,0,0,
,-0.465,1.091,0.388,707.641,69.763,20.08,0,0,0,
,-0.459,1.068,0.401,931.091,75.256,34.362,0,0,0,
,-0.463,1.036,0.383,1172.912,68.359,100.341,0,0,0,
,-0.47,1.037,0.445,1309.936,47.668,164.611,0,0,0,
,-0.474,0.997,0.481,1427.856,30.029,180.542,0,0,0,
,-0.47,0.919,0.519,1514.038,11.23,200.195,0,0,0,
,-0.458,0.836,0.52,1578.796,11.535,212.158,0,0,0,
,-0.473,0.769,0.547,1586.547,-6.226,220.703,0,0,0,
,-0.46,0.685,0.565,1635.131,10.009,259.948,0,0,0,
,-0.432,0.599,0.599,1631.836,23.559,292.663,0,0,0,
,-0.413,0.522,0.614,1561.889,6.652,320.8,0,0,0,
,-0.404,0.441,0.65,1433.044,-31.678,301.757,0,0,0,
,-0.39,0.321,0.677,1286.926,-72.937,265.991,0,0,0,
,-0.384,0.212,0.749,1071.533,-121.338,240.295,0,0,0,
,-0.381,0.12,0.75,849.975,-151.001,220.825,0,0,0,
,-0.392,0.099,0.764,649.047,-153.687,226.684,0,0,0,
,-0.393,0.089,0.746,471.923,-141.785,195.251,0,0,0,
,-0.399,0.063,0.742,320.434,-149.842,150.879,0,0,0,
,-0.413,0.054,0.741,159.729,-166.687,122.253,0,0,0,
,-0.441,0.081,0.741,40.161,-163.697,102.356,0,0,0,
,-0.461,0.135,0.738,-29.297,-137.574,77.941,0,0,0,
,-0.455,0.153,0.721,-24.292,-107.117,36.438,0,0,0,
,-0.456,0.159,0.705,-6.653,-99.671,7.69,0,0,0,
,-0.468,0.157,0.69,3.295,-98.755,-23.255,0,0,0,
,-0.493,0.128,0.686,-3.785,-93.995,-55.664,0,0,0,
,-0.512,0.113,0.694,-72.693,-72.693,-72.815,0,0,0,
,-0.523,0.143,0.725,-164.49,-28.992,-78.186,0,0,0,
,-0.519,0.174,0.737,-206.788,16.601,-87.22,0,0,0,
,-0.498,0.2,0.742,-183.594,60.424,-107.666,0,0,0,
,-0.495,0.191,0.752,-154.969,63.72,-124.756,0,0,0,
,-0.497,0.176,0.766,-152.832,55.236,-142.029,0,0,0,
,-0.503,0.18,0.786,-179.81,60.974,-153.382,0,0,0,
,-0.476,0.197,0.787,-261.109,73.669,-195.679,0,0,0,
,-0.47,0.206,0.775,-315.918,56.762,-212.647,0,0,0,
,-0.472,0.222,0.76,-378.052,50.781,-223.755,0,0,0,
,-0.477,0.249,0.736,-435.73,50.048,-233.094,0,0,0,
,-0.485,0.267,0.714,-499.817,54.687,-245.423,0,0,0,
,-0.482,0.289,0.707,-560.242,68.054,-255.372,0,0,0,
,-0.478,0.31,0.701,-624.939,74.096,-259.583,0,0,0,
,-0.476,0.329,0.684,-714.173,72.204,-266.724,0,0,0,
,-0.476,0.347,0.655,-822.815,67.382,-285.767,0,0,0,
,-0.483,0.377,0.641,-977.601,59.387,-297.242,0,0,0,
,-0.489,0.437,0.654,-1109.559,56.884,-303.101,0,0,0,
,-0.503,0.501,0.644,-1250.733,41.503,-290.101,0,0,0,
,-0.511,0.576,0.599,-1347.107,37.109,-272.644,0,0,0,
,-0.511,0.617,0.568,-1507.447,13.549,-257.813,0,0,0,
,-0.503,0.646,0.536,-1740.845,-8.728,-225.098,0,0,0,
,-0.518,0.762,0.472,-1928.834,-1.282,-157.837,0,0,0,
,-0.519,0.898,0.421,-1990.418,8.606,-135.132,0,0,0,
,-0.518,1.021,0.347,-1968.262,26.001,-102.784,0,0,0,
,-0.533,1.155,0.267,-1833.436,39.489,-52.857,0,0,0,
,-0.547,1.185,0.226,-1551.697,52.307,-7.752,0,0,0,
,-0.541,1.176,0.211,-1262.696,63.049,33.63,0,0,0,
,-0.522,1.113,0.224,-965.271,68.237,55.847,0,0,0,
,-0.516,1.027,0.207,-725.464,70.373,95.642,0,0,0,
,-0.515,1.037,0.223,-612.366,65.307,116.638,0,0,0,
,-0.46,0.996,0.32,-570.984,26.794,107.544,0,0,0,
,-0.474,0.905,0.272,-585.144,-32.105,149.902,0,0,0,
,-0.518,0.932,0.154,-625.367,-27.222,196.411,0,0,0,
,-0.52,0.952,0.046,-606.873,2.685,174.743,0,0,0,
,-0.503,0.988,0.001,-536.194,39.917,168.457,0,0,0,
,-0.493,1.019,-0.013,-418.519,47.668,164.245,0,0,0,
,-0.489,1.019,-0.051,-231.69,44.921,175.048,0,0,0,
,-0.494,1.018,-0.036,-87.159,32.714,172.18,0,0,0,
,-0.51,0.991,-0.017,62.683,15.808,177.063,0,0,0,
,-0.524,0.965,-0.002,133.056,12.512,213.623,0,0,0,
,-0.526,0.94,-0.023,194.824,19.409,226.196,0,0,0,
,-0.519,0.967,0.024,236.816,33.691,243.103,0,0,0,
,-0.504,0.966,0.064,288.574,14.831,250.976,0,0,0,
,-0.495,0.922,0.085,326.599,-18.128,285.949,0,0,0,
,-0.498,0.899,0.07,328.186,-47.974,322.57,0,0,0,
,-0.514,0.88,0.128,355.957,-95.643,333.068,0,0,0,
,-0.512,0.855,0.175,431.396,-128.54,340.82,0,0,0,
,-0.499,0.799,0.184,516.662,-182.618,340.698,0,0,0,
,-0.498,0.755,0.212,576.355,-229.004,333.557,0,0,0,
,-0.502,0.721,0.229,611.938,-282.532,303.039,0,0,0,
,-0.519,0.681,0.226,634.399,-322.754,271.423,0,0,0,
,-0.537,0.636,0.229,623.535,-354.798,231.75,0,0,0,
,-0.553,0.604,0.22,575.744,-377.747,178.833,0,0,0,
,-0.562,0.594,0.211,514.77,-390.076,116.027,0,0,0,
,-0.567,0.601,0.191,446.167,-399.17,58.044,0,0,0,
,-0.576,0.601,0.174,391.174,-413.697,-0.245,0,0,0,
,-0.601,0.554,0.134,353.698,-428.101,-125.306,0,0,0,
,-0.605,0.531,0.115,327.819,-424.988,-180.237,0,0,0,
,-0.605,0.525,0.111,292.358,-425.599,-233.399,0,0,0,
,-0.594,0.536,0.085,248.535,-418.519,-282.105,0,0,0,
,-0.59,0.557,0.076,197.876,-413.453,-338.44,0,0,0,
,-0.587,0.599,0.05,173.767,-402.649,-408.387,0,0,0,
,-0.599,0.663,0.037,191.894,-380.127,-475.586,0,0,0,
,-0.604,0.732,0.021,242.37,-362.977,-549.012,0,0,0,
,-0.602,0.747,0.008,344.909,-335.816,-617.737,0,0,0,
,-0.6,0.717,0.006,442.871,-298.218,-668.396,0,0,0,
,-0.591,0.691,0.017,506.042,-246.644,-709.717,0,0,0,
,-0.576,0.701,0.02,482.849,-186.219,-739.136,0,0,0,
,-0.556,0.746,0.043,444.03,-126.893,-755.249,0,0,0,
,-0.543,0.893,0.114,428.161,-54.688,-790.101,0,0,0,
,-0.541,0.891,0.139,477.172,-22.461,-777.527,0,0,0,
,-0.517,0.844,0.146,498.779,18.554,-746.705,0,0,0,
,-0.488,0.855,0.15,496.826,53.405,-691.102,0,0,0,
,-0.459,0.963,0.188,482.544,65.307,-631.592,0,0,0,
,-0.444,1.026,0.269,516.906,53.955,-597.779,0,0,0,
,-0.443,0.993,0.326,541.626,55.053,-575.257,0,0,0,
,-0.436,0.888,0.36,479.126,73.974,-537.781,0,0,0,
,-0.422,0.814,0.372,311.34,80.322,-480.774,0,0,0,
,-0.386,0.823,0.372,117.553,88.867,-415.955,0,0,0,
,-0.349,0.916,0.369,-11.109,86.486,-365.601,0,0,0,
,-0.332,0.968,0.404,-33.204,68.42,-357.239,0,0,0,
,-0.328,0.944,0.394,51.574,70.373,-346.497,0,0,0,
,-0.322,0.869,0.453,77.27,52.551,-283.57,0,0,0,
,-0.289,0.976,0.539,-127.442,25.146,-56.092,0,0,0,
,-0.378,1.218,0.528,-361.512,-60.364,-1.648,0,0,0,
,-0.365,1.175,0.503,-214.661,-73.853,-80.933,0,0,0,
,-0.326,1.031,0.43,-35.218,-75.501,-22.156,0,0,0,
,-0.321,0.933,0.384,-10.376,-52.308,-27.039,0,0,0,
,-0.305,0.869,0.35,-6.775,-7.386,-104.615,0,0,0,
,-0.283,0.881,0.341,6.408,38.024,-132.264,0,0,0,
,-0.272,0.898,0.335,39.856,70.434,-146.912,0,0,0,
,-0.256,0.929,0.342,74.157,81.054,-137.757,0,0,0,
,-0.23,0.953,0.344,123.596,101.989,-123.658,0,0,0,
,-0.198,0.916,0.354,173.462,92.59,-115.235,0,0,0,
,-0.196,0.884,0.364,228.21,70.983,-77.942,0,0,0,
,-0.207,0.879,0.377,247.924,62.744,-30.091,0,0,0,
,-0.216,0.873,0.403,256.103,54.199,-3.174,0,0,0,
,-0.218,0.862,0.428,233.337,45.227,17.273,0,0,0,
,-0.217,0.878,0.444,186.706,37.048,48.034,0,0,0,
,-0.223,0.883,0.447,148.498,17.456,62.133,0,0,0,
,-0.242,0.861,0.447,122.558,4.455,57.006,0,0,0,
,-0.254,0.845,0.455,92.102,1.525,38.33,0,0,0,
,-0.255,0.863,0.457,48.523,10.253,7.812,0,0,0,
,-0.249,0.866,0.456,43.762,15.625,-21.851,0,0,0,
,-0.24,0.842,0.465,7.69,13.549,-39.063,0,0,0,
,-0.237,0.829,0.46,-34.729,4.272,-35.34,0,0,0,
,-0.243,0.834,0.457,-82.52,7.263,-25.208,0,0,0,
,-0.245,0.85,0.448,-110.718,5.493,-21.546,0,0,0,
,-0.241,0.863,0.467,-115.235,10.62,-22.95,0,0,0,
,-0.241,0.87,0.431,-101.746,9.521,-23.377,0,0,0,
,-0.242,0.902,0.427,-89.722,12.146,-26.917,0,0,0,
,-0.245,0.866,0.426,-76.172,14.648,-26.49,0,0,0,
,-0.247,0.865,0.416,-69.214,18.92,-26.917,0,0,0,
,-0.245,0.874,0.418,-57.435,22.338,-28.931,0,0,0,
,-0.247,0.869,0.424,-53.528,26.123,-32.959,0,0,0,
,-0.247,0.861,0.426,-59.021,25.756,-42.237,0,0,0,
,-0.247,0.86,0.425,-74.28,25.268,-44.495,0,0,0,
,-0.243,0.869,0.423,-80.384,25.146,-46.448,0,0,0,
,-0.24,0.877,0.417,-81.543,20.996,-52.247,0,0,0,
,-0.235,0.874,0.408,-73.06,18.249,-57.923,0,0,0,
,-0.231,0.876,0.407,-61.951,16.662,-54.566,0,0,0,
,-0.232,0.868,0.404,-61.89,11.047,-44.312,0,0,0,
,-0.238,0.869,0.405,-57.984,6.225,-29.297,0,0,0,
,-0.237,0.88,0.402,-52.369,6.897,-20.569,0,0,0,
,-0.239,0.882,0.398,-36.927,4.089,-19.715,0,0,0,
,-0.239,0.884,0.402,-21.485,6.652,-22.583,0,0,0,
,-0.239,0.875,0.404,-9.522,4.882,-23.56,0,0,0,
,-0.239,0.867,0.403,-8.667,3.112,-24.903,0,0,0,
,-0.242,0.875,0.404,-11.475,2.807,-22.583,0,0,0,
,-0.243,0.88,0.405,-9.278,5.371,-27.039,0,0,0,
,-0.245,0.875,0.404,-11.17,9.033,-34.119,0,0,0,
,-0.245,0.87,0.408,-15.137,9.582,-41.443,0,0,0,
,-0.244,0.869,0.41,-24.781,10.986,-44.007,0,0,0,
,-0.242,0.875,0.405,-26.856,14.099,-45.227,0,0,0,
,-0.241,0.884,0.407,-19.471,18.31,-51.27,0,0,0,
,-0.234,0.883,0.408,-9.4,20.446,-56.824,0,0,0,
,-0.231,0.868,0.408,-4.029,21.789,-56.397,0,0,0,
,-0.231,0.865,0.41,-11.78,19.043,-45.594,0,0,0,
,-0.234,0.872,0.405,-21.424,20.202,-36.499,0,0,0,
,-0.234,0.878,0.403,-19.715,22.277,-30.396,0,0,0,
,-0.235,0.885,0.401,-7.386,23.62,-29.053,0,0,0,
,-0.24,0.893,0.401,7.507,24.719,-32.349,0,0,0,
,-0.237,0.887,0.405,24.353,29.296,-42.298,0,0,0,
,-0.236,0.88,0.41,31.921,32.714,-45.96,0,0,0,
,-0.233,0.878,0.419,31.005,34.973,-52.918,0,0,0,
,-0.238,0.88,0.427,23.925,42.968,-63.294,0,0,0,
,-0.256,0.883,0.426,0.061,63.537,-67.444,0,0,0,
,-0.283,0.904,0.446,-35.889,104.919,-73.182,0,0,0,
,-0.277,0.93,0.461,-95.887,159.607,-93.201,0,0,0,
,-0.263,0.95,0.502,-208.069,193.054,-161.255,0,0,0,
,-0.367,0.883,0.519,-256.897,98.632,-113.709,0,0,0,
,-0.46,0.999,0.505,-282.593,115.295,19.836,0,0,0,
,-0.414,1.223,0.542,-137.33,195.068,144.287,0,0,0,
,-0.402,1.221,0.462,-123.902,10.498,428.466,0,0,0,
,-0.274,1.225,0.435,-223.572,44.799,445.312,0,0,0,
,-0.263,1.269,0.411,-250.428,-8.057,462.585,0,0,0,
,-0.345,1.262,0.369,-127.137,-4.029,482.299,0,0,0,
,-0.38,1.134,0.341,12.878,-25.818,567.382,0,0,0,
,-0.344,1.017,0.316,101.501,-33.631,627.136,0,0,0,
,-0.318,0.903,0.304,117.553,-45.227,657.47,0,0,0,
,-0.319,0.783,0.302,91.125,-42.298,673.95,0,0,0,
,-0.327,0.756,0.311,40.771,-22.706,678.039,0,0,0,
,-0.322,0.704,0.304,-19.776,4.089,668.213,0,0,0,
,-0.308,0.67,0.293,-56.092,33.264,657.226,0,0,0,
,-0.306,0.659,0.275,-68.604,51.635,630.31,0,0,0,
,-0.318,0.659,0.279,-44.617,71.044,595.031,0,0,0,
,-0.336,0.654,0.284,20.263,85.51,536.255,0,0,0,
,-0.349,0.613,0.304,101.623,98.51,466.797,0,0,0,
,-0.358,0.477,0.302,190.551,118.164,304.504,0,0,0,
,-0.36,0.435,0.29,116.516,132.568,215.942,0,0,0,
,-0.367,0.421,0.285,17.211,151.916,117.126,0,0,0,
,-0.375,0.451,0.27,-107.666,174.682,23.803,0,0,0,
,-0.394,0.491,0.294,-166.321,188.049,-86.731,0,0,0,
,-0.415,0.525,0.325,-127.015,209.961,-190.308,0,0,0,
,-0.432,0.533,0.37,-67.933,231.445,-289.673,0,0,0,
,-0.446,0.561,0.419,-35.645,256.469,-385.071,0,0,0,
,-0.446,0.642,0.421,-6.531,286.682,-479.493,0,0,0,
,-0.448,0.791,0.503,30.761,339.66,-578.98,0,0,0,
,-0.458,1.091,0.691,173.889,393.31,-662.11,0,0,0,
,-0.471,1.257,0.615,536.255,385.681,-785.645,0,0,0,
,-0.487,0.916,0.289,1155.151,320.312,-812.439,0,0,0,
,-0.317,0.345,0.3,1551.147,394.714,-460.755,0,0,0,
,-0.37,0.972,0.884,-292.603,12.451,401.977,0,0,0,
,-0.542,1.034,1.168,-1510.804,-359.314,61.279,0,0,0,
,-0.583,1.52,0.564,-775.818,-118.775,-43.152,0,0,0,
,-0.284,1.19,0.281,726.074,-22.767,216.674,0,0,0,
,-0.195,0.63,0.353,1049.194,-176.758,239.257,0,0,0,
,-0.409,0.35,0.672,537.048,-355.835,188.72,0,0,0,
,-0.582,0.233,0.679,-161.622,-257.203,192.321,0,0,0,
,-0.506,0.474,0.629,-630.249,-18.616,81.726,0,0,0,
,-0.429,0.761,0.575,-625.794,72.326,-96.619,0,0,0,
,-0.402,0.984,0.454,-49.927,149.902,-264.954,0,0,0,
,-0.396,0.881,0.393,686.889,213.867,-324.952,0,0,0,
,-0.427,0.707,0.38,890.014,263.61,-368.164,0,0,0,
,-0.386,0.129,0.201,888.427,252.319,-475.586,0,0,0,
,-0.317,0.723,1.024,-302.124,160.705,134.094,0,0,0,
,-0.314,0.832,0.67,-1178.345,-71.045,243.347,0,0,0,
,-0.343,1.341,0.364,-398.987,55.725,8.544,0,0,0,
,-0.213,1.047,0.31,706.176,12.512,18.92,0,0,0,
,-0.255,0.549,0.537,832.275,-220.276,89.355,0,0,0,
,-0.472,0.434,1.008,410.095,-187.623,-2.381,0,0,0,
,-0.546,0.407,0.954,-25.269,-23.194,-19.959,0,0,0,
,-0.432,0.781,0.628,-28.138,198.791,-189.881,0,0,0,
,-0.44,0.895,0.369,263.122,265.442,-283.692,0,0,0,
,-0.4,0.598,0.416,603.271,302.978,-337.159,0,0,0,
,-0.552,0.743,1.393,-360.474,-124.756,102.356,0,0,0,
,-0.6,0.965,0.998,-813.416,-233.033,65.612,0,0,0,
,-0.602,1.39,0.417,-321.9,-26.612,215.088,0,0,0,
,-0.359,1.043,0.315,567.749,45.288,319.763,0,0,0,
,-0.246,0.563,0.319,890.564,-42.359,149.719,0,0,0,
,-0.387,0.382,0.54,611.572,-187.5,190.307,0,0,0,
,-0.62,0.368,0.627,-342.286,-259.705,406.128,0,0,0,
,-0.714,0.5,0.617,-1022.156,-143.006,422.668,0,0,0,
,-0.644,0.687,0.595,-1390.198,5.92,427.612,0,0,0,
,-0.516,0.768,0.515,-1372.986,62.561,462.341,0,0,0,
,-0.485,0.727,0.398,-1266.175,74.218,434.814,0,0,0,
,-0.527,0.659,0.333,-1226.197,101.501,366.882,0,0,0,
,-0.567,0.623,0.271,-1181.092,170.044,290.039,0,0,0,
,-0.552,0.596,0.244,-1089.173,265.258,226.989,0,0,0,
,-0.515,0.613,0.222,-991.028,313.476,163.269,0,0,0,
,-0.498,0.658,0.195,-908.204,329.467,95.764,0,0,0,
,-0.466,0.714,0.203,-813.538,342.773,36.132,0,0,0,
,-0.428,0.76,0.225,-703.553,328.43,-4.029,0,0,0,
,-0.388,0.788,0.263,-572.449,288.33,-25.208,0,0,0,
,-0.376,0.794,0.287,-481.629,231.018,-36.866,0,0,0,
,-0.37,0.766,0.3,-444.642,191.833,-47.791,0,0,0,
,-0.365,0.741,0.271,-453.431,164.367,-61.036,0,0,0,
,-0.36,0.772,0.237,-497.681,135.192,-67.383,0,0,0,
,-0.363,0.839,0.238,-492.371,98.266,-89.905,0,0,0,
,-0.351,0.884,0.247,-406.983,60.424,-104.798,0,0,0,
,-0.314,0.903,0.297,-332.276,-7.019,-115.479,0,0,0,
,-0.371,0.835,0.276,-302.247,-35.035,-102.845,0,0,0,
,-0.423,0.86,0.205,-318.787,-18.494,-98.145,0,0,0,
,-0.404,0.855,0.149,-286.683,-5.005,-121.582,0,0,0,
,-0.398,0.845,0.13,-235.962,2.624,-127.259,0,0,0,
,-0.419,0.842,0.121,-225.464,12.756,-135.132,0,0,0,
,-0.424,0.853,0.151,-286.377,23.498,-125.184,0,0,0,
,-0.439,0.871,0.114,-401.368,53.894,-124.573,0,0,0,
,-0.457,0.965,0.051,-414.917,55.725,-150.574,0,0,0,
,-0.437,0.956,0.083,-363.953,27.954,-165.284,0,0,0,
,-0.434,1.022,0.098,-191.773,-4.761,-154.908,0,0,0,
,-0.45,1.016,0.102,-6.775,-26.246,-138.977,0,0,0,
,-0.449,0.962,0.101,83.923,-26.307,-122.254,0,0,0,
,-0.457,0.9,0.082,79.528,-15.931,-119.141,0,0,0,
,-0.469,0.903,0.074,25.512,6.164,-125.55,0,0,0,
,-0.454,0.926,0.065,11.962,25.695,-130.127,0,0,0,
,-0.435,0.933,0.096,24.597,23.071,-131.47,0,0,0,
,-0.46,0.968,0.097,77.636,21.24,-104.859,0,0,0,
,-0.472,0.988,0.187,12.756,-2.93,-96.741,0,0,0,
,-0.441,1.027,0.194,71.533,-1.893,-83.374,0,0,0,
,-0.438,1.015,0.17,151.489,-24.903,-64.576,0,0,0,
,-0.449,0.98,0.157,207.336,-24.353,-60.914,0,0,0,
,-0.446,0.97,0.199,269.226,-24.659,-55.97,0,0,0,
,-0.443,0.99,0.207,336.853,-28.077,-45.044,0,0,0,
,-0.443,1.015,0.236,422.241,-43.519,-33.57,0,0,0,
,-0.465,1.006,0.249,492.187,-77.698,-34.485,0,0,0,
,-0.488,0.935,0.22,547.912,-51.758,-29.664,0,0,0,
,-0.5,0.949,0.217,556.701,-22.583,-17.884,0,0,0,
,-0.502,0.953,0.237,520.141,22.461,-0.184,0,0,0,
,-0.508,0.993,0.262,492.859,44.128,-25.208,0,0,0,
,-0.508,1.006,0.268,550.659,72.387,-35.035,0,0,0,
,-0.491,1.01,0.241,754.882,98.083,-5.799,0,0,0,
,-0.467,1.076,0.277,958.679,101.257,54.687,0,0,0,
,-0.449,1.088,0.321,1127.624,67.077,77.514,0,0,0,
,-0.442,1.024,0.363,1277.404,32.898,81.115,0,0,0,
,-0.46,0.876,0.418,1323.486,6.469,93.505,0,0,0,
,-0.465,0.806,0.443,1259.704,7.324,138.244,0,0,0,
,-0.456,0.723,0.451,1100.341,1.525,170.959,0,0,0,
,-0.449,0.673,0.471,917.114,15.625,183.41,0,0,0,
,-0.443,0.658,0.495,768.066,8.972,204.223,0,0,0,
,-0.442,0.654,0.513,685.852,1.648,220.214,0,0,0,
,-0.439,0.641,0.539,657.959,-4.395,209.961,0,0,0,
,-0.436,0.569,0.599,612.304,-34.668,209.533,0,0,0,
,-0.449,0.544,0.609,562.561,-45.227,211.303,0,0,0,
,-0.448,0.529,0.616,514.16,-45.594,187.622,0,0,0,
,-0.443,0.506,0.614,478.82,-43.152,193.664,0,0,0,
,-0.445,0.485,0.608,452.942,-50.782,184.814,0,0,0,
,-0.46,0.464,0.625,428.344,-61.707,174.56,0,0,0,
,-0.471,0.43,0.644,421.997,-47.181,166.32,0,0,0,
,-0.478,0.403,0.665,390.442,-57.19,158.874,0,0,0,
,-0.477,0.383,0.67,346.679,-48.706,147.522,0,0,0,
,-0.473,0.363,0.667,283.02,-45.105,136.901,0,0,0,
,-0.48,0.351,0.666,223.022,-42.481,126.587,0,0,0,
,-0.488,0.338,0.667,174.621,-38.025,111.145,0,0,0,
,-0.491,0.33,0.679,132.385,-33.753,96.557,0,0,0,
,-0.496,0.312,0.68,90.698,-32.105,78.979,0,0,0,
,-0.493,0.308,0.688,37.841,-32.837,65.002,0,0,0,
,-0.499,0.32,0.691,-9.644,-28.016,50.537,0,0,0,
,-0.501,0.331,0.699,-34.363,-30.274,16.723,0,0,0,
,-0.505,0.333,0.683,-41.626,-22.644,12.451,0,0,0,
,-0.503,0.33,0.671,-49.683,-14.161,-4.944,0,0,0,
,-0.5,0.329,0.663,-62.195,-8.423,-25.33,0,0,0,
,-0.505,0.333,0.666,-71.473,-3.724,-44.312,0,0,0,
,-0.512,0.332,0.664,-75.989,6.836,-64.698,0,0,0,
,-0.514,0.33,0.666,-79.285,24.597,-84.29,0,0,0,
,-0.515,0.33,0.669,-90.943,37.475,-107.85,0,0,0,
,-0.506,0.329,0.669,-103.272,47.241,-132.325,0,0,0,
,-0.498,0.329,0.668,-123.597,56.64,-154.175,0,0,0,
,-0.494,0.336,0.669,-150.757,58.41,-176.453,0,0,0,
,-0.481,0.346,0.661,-181.763,57.373,-201.416,0,0,0,
,-0.481,0.352,0.646,-224.427,52.795,-224.915,0,0,0,
,-0.487,0.364,0.626,-288.269,47.058,-244.324,0,0,0,
,-0.482,0.362,0.616,-363.892,55.419,-262.757,0,0,0,
,-0.48,0.393,0.617,-462.464,67.077,-272.767,0,0,0,
,-0.475,0.434,0.626,-529.236,75.134,-286.377,0,0,0,
,-0.466,0.477,0.62,-577.149,74.462,-299.439,0,0,0,
,-0.459,0.502,0.605,-603.272,66.711,-311.463,0,0,0,
,-0.471,0.52,0.581,-669.068,47.485,-327.515,0,0,0,
,-0.5,0.55,0.581,-794.556,33.935,-323.914,0,0,0,
,-0.511,0.574,0.585,-906.189,62.072,-323.426,0,0,0,
,-0.497,0.621,0.591,-1051.331,58.532,-306.702,0,0,0,
,-0.487,0.673,0.565,-1189.515,36.743,-293.396,0,0,0,
,-0.494,0.73,0.518,-1342.225,7.507,-283.204,0,0,0,
,-0.504,0.782,0.46,-1463.44,-7.996,-258.24,0,0,0,
