TIMECODE,ACC_X,ACC_Y,ACC_Z,GYR_X,GYR_Y,GYR_Z,ECG_I,ECG_II,ECG_III,TAG
,-0.037,-0.97,0.278,-22.828,18.737,-24.292,0,0,0,
,-0.045,-0.966,0.282,-19.532,23.193,-31.434,0,0,0,
,-0.048,-0.957,0.29,-19.776,33.447,-32.898,0,0,0,
,-0.047,-0.966,0.286,-7.386,41.687,-40.406,0,0,0,
,-0.041,-0.994,0.285,13.916,41.687,-55.848,0,0,0,
,-0.025,-1.003,0.303,7.324,28.32,-61.036,0,0,0,
,-0.081,-0.963,0.269,-35.828,30.09,-51.758,0,0,0,
,-0.027,-0.985,0.263,18.798,5.127,-88.257,0,0,0,
,-0.035,-1.002,0.264,32.043,-10.743,-74.891,0,0,0,
,-0.056,-0.991,0.269,4.455,-18.433,-82.642,0,0,0,
,-0.057,-0.985,0.262,-20.813,-27.955,-80.262,0,0,0,
,-0.041,-0.995,0.219,-64.026,-38.453,-72.327,0,0,0,
,-0.045,-0.981,0.254,-122.193,-37.72,-41.81,0,0,0,
,-0.039,-0.962,0.276,-129.639,-38.086,-19.715,0,0,0,
,-0.03,-0.965,0.293,-115.235,-40.467,-11.109,0,0,0,
,-0.02,-0.977,0.293,-123.841,-46.082,-1.099,0,0,0,
,-0.022,-0.971,0.294,-147.278,-56.641,9.887,0,0,0,
,-0.019,-0.952,0.313,-142.09,-69.947,24.231,0,0,0,
,-0.016,-0.951,0.351,-83.985,-57.129,20.935,0,0,0,
,-0.008,-0.955,0.306,53.283,-30.884,-20.997,0,0,0,
,-0.032,-1.014,0.29,-21.18,-26.856,-31.861,0,0,0,
,-0.04,-0.986,0.304,-101.624,-21.973,-22.278,0,0,0,
,-0.03,-0.941,0.338,-70.984,-21.912,-21.912,0,0,0,
,-0.039,-0.943,0.352,-19.959,-15.87,-36.622,0,0,0,
,-0.053,-0.944,0.328,35.339,-6.348,-36.194,0,0,0,
,-0.039,-0.956,0.316,68.969,-7.081,-37.781,0,0,0,
,-0.041,-0.972,0.297,85.144,-5.127,-33.448,0,0,0,
,-0.035,-0.981,0.284,84.533,-1.831,-31.861,0,0,0,
,-0.044,-0.988,0.269,60.302,6.286,-33.936,0,0,0,
,-0.036,-0.996,0.267,17.944,6.286,-33.997,0,0,0,
,-0.04,-0.983,0.277,-22.889,9.948,-27.1,0,0,0,
,-0.039,-0.975,0.29,-48.035,12.268,-29.602,0,0,0,
,-0.036,-0.968,0.298,-49.073,17.7,-26.612,0,0,0,
,-0.041,-0.968,0.302,-35.218,15.258,-27.161,0,0,0,
,-0.043,-0.964,0.316,-16.663,16.967,-32.349,0,0,0,
,-0.038,-0.967,0.307,-8.728,19.714,-30.823,0,0,0,
,-0.04,-0.967,0.3,3.54,20.202,-28.016,0,0,0,
,-0.049,-0.965,0.299,4.272,26.123,-33.509,0,0,0,
,-0.033,-0.97,0.289,7.263,29.052,-34.546,0,0,0,
,-0.046,-0.971,0.291,-4.334,29.296,-26.673,0,0,0,
,-0.047,-0.954,0.289,-8.789,29.48,-22.583,0,0,0,
,-0.034,-0.959,0.294,-5.372,29.724,-25.879,0,0,0,
,-0.037,-0.964,0.291,1.831,37.353,-16.114,0,0,0,
,-0.041,-0.977,0.295,-3.54,34.301,-20.02,0,0,0,
,-0.037,-0.961,0.295,-4.639,40.527,-11.475,0,0,0,
,-0.028,-0.965,0.304,17.15,45.898,-10.071,0,0,0,
,-0.051,-0.972,0.302,30.883,51.818,-7.752,0,0,0,
,-0.045,-0.966,0.292,50.231,55.053,-0.794,0,0,0,
,-0.055,-0.985,0.261,60.363,53.649,2.685,0,0,0,
,-0.056,-1.003,0.249,54.565,58.288,10.009,0,0,0,
,-0.047,-1.011,0.245,7.446,50.781,5.004,0,0,0,
,-0.027,-1.007,0.257,-46.326,46.203,17.517,0,0,0,
,-0.024,-0.994,0.273,-81.177,35.644,22.399,0,0,0,
,-0.013,-0.98,0.286,-84.168,26.062,25.634,0,0,0,
,-0.009,-0.977,0.294,-70.74,23.803,20.813,0,0,0,
,-0.012,-0.961,0.298,-48.157,16.296,16.357,0,0,0,
,-0.012,-0.967,0.299,-21.607,15.38,11.291,0,0,0,
,-0.009,-0.955,0.307,15.014,9.948,4.821,0,0,0,
,-0.015,-0.953,0.302,44.921,12.573,-9.034,0,0,0,
,-0.015,-0.968,0.287,59.509,11.474,-31.678,0,0,0,
,-0.01,-0.974,0.273,43.518,6.469,-47.913,0,0,0,
,-0.004,-0.977,0.271,32.775,11.657,-38.269,0,0,0,
,-0.037,-1.003,0.263,-34.241,9.216,-28.687,0,0,0,
,0.003,-1.004,0.24,-83.924,33.203,-33.204,0,0,0,
,0,-0.993,0.274,-71.717,22.338,-47.791,0,0,0,
,-0.016,-0.948,0.302,-63.416,12.573,-46.021,0,0,0,
,-0.018,-0.945,0.305,-9.766,12.512,-41.382,0,0,0,
,-0.013,-0.978,0.295,28.686,10.742,-34.302,0,0,0,
,-0.015,-0.973,0.29,50.659,1.648,-26.795,0,0,0,
,-0.018,-0.969,0.288,73.791,0.549,-23.926,0,0,0,
,-0.014,-0.973,0.28,98.144,4.333,-17.334,0,0,0,
,-0.015,-0.982,0.279,110.778,-0.794,-8.728,0,0,0,
,-0.012,-0.976,0.259,114.685,1.22,-5.433,0,0,0,
,-0.018,-1.003,0.25,75.012,-5.799,-20.081,0,0,0,
,-0.011,-0.999,0.247,51.269,-4.639,-23.377,0,0,0,
,-0.019,-0.977,0.242,32.165,3.662,-24.109,0,0,0,
,-0.014,-1.003,0.234,-0.977,11.413,-23.804,0,0,0,
,-0.011,-1,0.238,-30.091,13.061,-22.644,0,0,0,
,-0.011,-0.98,0.25,-40.101,19.897,-23.743,0,0,0,
,-0.009,-0.979,0.252,-36.866,19.104,-26.185,0,0,0,
,-0.011,-0.982,0.257,-30.701,18.371,-28.199,0,0,0,
,-0.011,-0.979,0.255,-28.626,21.972,-35.767,0,0,0,
,-0.007,-0.98,0.254,-23.987,19.043,-35.401,0,0,0,
,-0.007,-0.976,0.26,-19.043,15.93,-39.673,0,0,0,
,-0.01,-0.976,0.259,-10.498,10.925,-47.059,0,0,0,
,-0.01,-0.984,0.252,-6.287,12.512,-45.716,0,0,0,
,-0.012,-0.994,0.25,-21.729,8.789,-45.227,0,0,0,
,-0.011,-0.991,0.247,-32.227,7.629,-41.932,0,0,0,
,-0.014,-0.984,0.253,-34.485,6.774,-39.49,0,0,0,
,-0.014,-0.985,0.256,-26.612,9.216,-37.293,0,0,0,
,-0.016,-0.983,0.253,-27.527,5.981,-37.11,0,0,0,
,-0.016,-0.987,0.254,-29.664,7.019,-32.959,0,0,0,
,-0.016,-0.985,0.257,-32.105,4.516,-29.602,0,0,0,
,-0.014,-0.978,0.26,-23.56,6.225,-28.748,0,0,0,
,-0.011,-0.98,0.263,-21.668,4.638,-30.457,0,0,0,
,-0.014,-0.983,0.261,-19.471,3.54,-32.044,0,0,0,
,-0.019,-0.98,0.262,-11.231,7.263,-29.969,0,0,0,
,-0.015,-0.981,0.258,-6.531,5.249,-29.725,0,0,0,
,-0.015,-0.98,0.26,-2.686,5.065,-31.311,0,0,0,
,-0.013,-0.984,0.257,-2.991,1.77,-31.434,0,0,0,
,-0.016,-0.982,0.254,-4.639,-0.794,-30.701,0,0,0,
,-0.015,-0.988,0.256,-9.034,0.915,-31.373,0,0,0,
,-0.017,-0.98,0.256,-15.137,2.319,-32.593,0,0,0,
,-0.014,-0.984,0.26,-14.039,7.568,-31.8,0,0,0,
,-0.019,-0.98,0.255,-12.391,10.315,-31.8,0,0,0,
,-0.018,-0.989,0.244,-25.818,12.023,-29.297,0,0,0,
,-0.015,-0.993,0.251,-55.787,15.258,-28.626,0,0,0,
,-0.016,-0.983,0.255,-78.492,17.883,-27.832,0,0,0,
,-0.014,-0.981,0.258,-83.924,20.996,-30.945,0,0,0,
,-0.014,-0.974,0.27,-87.403,23.132,-28.931,0,0,0,
,-0.013,-0.983,0.274,-77.454,20.202,-29.297,0,0,0,
,-0.012,-0.974,0.28,-64.209,15.686,-31.556,0,0,0,
,-0.013,-0.976,0.279,-47.059,10.925,-33.997,0,0,0,
,-0.017,-0.979,0.276,-32.776,8.178,-30.701,0,0,0,
,-0.016,-0.974,0.276,-19.898,2.99,-29.969,0,0,0,
,-0.014,-0.975,0.276,-14.161,0.549,-30.701,0,0,0,
,-0.015,-0.976,0.276,-8.423,3.356,-32.532,0,0,0,
,-0.012,-0.979,0.274,-0.733,4.516,-31.556,0,0,0,
,-0.013,-0.979,0.273,5.127,3.479,-32.105,0,0,0,
,-0.021,-0.981,0.273,11.718,10.192,-32.532,0,0,0,
,-0.012,-0.985,0.266,-0.55,10.07,-30.152,0,0,0,
,-0.015,-0.984,0.266,-15.992,7.69,-32.715,0,0,0,
,-0.013,-0.978,0.272,-18.25,5.127,-32.105,0,0,0,
,-0.011,-0.975,0.275,-15.259,2.502,-30.213,0,0,0,
,-0.018,-0.99,0.264,-35.767,-1.893,-33.02,0,0,0,
,-0.018,-0.979,0.272,-42.298,2.075,-31.189,0,0,0,
,-0.021,-0.969,0.309,-33.326,5.371,-25.513,0,0,0,
,-0.015,-0.972,0.279,-21.912,8.3,-24.109,0,0,0,
,-0.016,-0.971,0.281,-10.926,11.413,-24.781,0,0,0,
,-0.014,-0.975,0.277,3.356,11.535,-23.743,0,0,0,
,-0.014,-0.978,0.269,11.352,13.549,-23.804,0,0,0,
,-0.014,-0.983,0.268,12.207,11.962,-24.476,0,0,0,
,-0.015,-0.98,0.269,12.39,12.756,-22.461,0,0,0,
,-0.013,-0.985,0.27,12.207,10.62,-24.659,0,0,0,
,-0.011,-0.981,0.271,9.826,11.23,-25.879,0,0,0,
,-0.011,-0.983,0.27,12.146,8.972,-46.631,0,0,0,
,-0.013,-0.983,0.265,14.404,9.826,-31.739,0,0,0,
,-0.014,-0.983,0.262,17.273,14.16,-32.227,0,0,0,
,-0.012,-0.982,0.261,16.662,16.357,-33.265,0,0,0,
,-0.015,-0.977,0.26,15.991,17.395,-34.974,0,0,0,
,-0.013,-0.98,0.257,18.676,16.845,-36.683,0,0,0,
,-0.013,-0.987,0.256,10.376,17.7,-39.124,0,0,0,
,-0.016,-0.984,0.26,1.403,18.798,-39.185,0,0,0,
,-0.013,-0.986,0.252,-5.982,15.747,-40.528,0,0,0,
,-0.015,-0.983,0.257,-11.048,12.451,-39.185,0,0,0,
,-0.012,-0.981,0.243,-20.325,7.873,-31.128,0,0,0,
,-0.018,-0.984,0.249,-26.49,4.638,-31.983,0,0,0,
,-0.019,-0.986,0.252,-40.894,0.244,-34.18,0,0,0,
,-0.019,-0.978,0.261,-50.477,-15.259,-35.096,0,0,0,
,-0.019,-0.974,0.266,-41.321,-3.907,-32.349,0,0,0,
,-0.014,-0.977,0.266,-26.185,-3.846,-30.945,0,0,0,
,-0.009,-0.981,0.26,-15.198,-6.287,-31.25,0,0,0,
,-0.018,-0.988,0.253,-16.785,-8.179,-36.316,0,0,0,
,-0.018,-1,0.253,-30.457,-3.174,-35.828,0,0,0,
,-0.014,-0.996,0.257,-42.115,-1.526,-33.204,0,0,0,
,-0.012,-0.987,0.256,-44.068,-15.564,-34.79,0,0,0,
,-0.008,-0.965,0.257,-22.4,4.15,-17.395,0,0,0,
,-0.024,-0.985,0.267,-22.278,6.774,-21.424,0,0,0,
,-0.016,-0.992,0.285,-35.218,-0.855,-19.532,0,0,0,
,-0.022,-0.944,0.305,4.577,-10.743,-20.264,0,0,0,
,-0.007,-0.951,0.288,68.237,-10.743,-29.053,0,0,0,
,0,-0.973,0.274,119.751,-20.63,-35.401,0,0,0,
,0.001,-1.002,0.248,116.577,-17.029,-33.57,0,0,0,
,-0.005,-1.011,0.228,72.326,-10.376,-42.115,0,0,0,
,0.022,-1.003,0.247,-31.922,5.981,-34.607,0,0,0,
,0.012,-0.969,0.287,-26.185,1.831,-37.171,0,0,0,
,0.039,-0.962,0.331,59.936,8.85,-30.152,0,0,0,
,0.013,-0.978,0.34,170.41,18.554,-62.867,0,0,0,
,0.077,-0.976,0.355,354.919,19.226,-66.407,0,0,0,
,0.061,-0.996,0.375,548.034,11.413,-99.183,0,0,0,
,0.121,-1.071,0.463,888.672,83.496,-97.352,0,0,0,
,0.042,-1.187,0.517,1153.503,164.55,-96.924,0,0,0,
,-0.047,-1.318,0.527,1370.666,219.848,-91.126,0,0,0,
,-0.106,-1.681,0.543,1422.424,243.835,-83.741,0,0,0,
,-0.078,-2.571,0.252,796.386,231.262,-104.798,0,0,0,
,0.114,-2.966,0.03,-372.132,140.442,134.155,0,0,0,
,0.186,-2.529,-0.188,-1189.209,-40.711,167.968,0,0,0,
,0.344,-2.368,-0.206,-1261.292,-153.26,-365.54,0,0,0,
,0.664,-2.326,-0.382,-815.308,-205.567,-1285.279,0,0,0,
,0.699,-2.548,-0.509,-66.102,-453.919,-2000,0,0,0,
,0.492,-2.948,-0.647,260.803,-363.648,-2000,0,0,0,
,0.549,-2.789,-0.792,-71.289,-189.087,-2000,0,0,0,
,0.732,-1.971,-0.912,-643.982,-109.559,-2000,0,0,0,
,0.916,-1.173,-0.858,-1018.738,-107.85,-2000,0,0,0,
,1.069,-0.536,-0.721,-1312.684,-195.435,-2000,0,0,0,
,1.23,-0.024,-0.533,-1482.056,-337.586,-2000,0,0,0,
,1.308,0.361,-0.36,-1518.067,-434.571,-2000,0,0,0,
,1.352,0.546,-0.262,-1299.134,-426.331,-2000,0,0,0,
,1.398,0.503,-0.352,-893.921,-309.937,-2000,0,0,0,
,1.461,0.557,-0.409,-774.292,-231.751,-2000,0,0,0,
,1.519,1,-0.455,-1025.086,-234.498,-2000,0,0,0,
,1.42,1.683,-0.515,-1595.887,-327.21,-2000,0,0,0,
,1.244,2.387,-0.779,-2000,-306.397,-2000,0,0,0,
,0.772,3.999,-0.858,-2000,-80.384,-759.766,0,0,0,
,0.643,3.999,-0.817,-879.09,553.222,1020.141,0,0,0,
,1.01,3.768,-0.589,497.436,1147.644,1999.694,0,0,0,
,1.101,2.735,-0.118,1481.75,1507.751,1999.694,0,0,0,
,1.091,2.15,0.144,1999.694,1729.309,1999.694,0,0,0,
,1.216,1.75,-0.236,1999.694,1928.65,1999.694,0,0,0,
,2.107,1.395,-0.964,1999.694,1727.295,1999.694,0,0,0,
,3.882,-0.079,-1.605,1999.694,39.611,1999.694,0,0,0,
,2.498,-4,-0.375,1454.406,-200.562,1999.694,0,0,0,
,0.649,-3.046,-0.864,-820.008,-279.053,1999.694,0,0,0,
,1.645,-2.174,-0.647,-562.806,165.222,1999.694,0,0,0,
,1.474,-3.407,-1.136,990.966,653.442,1999.694,0,0,0,
,0.641,-4,-0.904,1233.154,496.46,1395.507,0,0,0,
,-0.389,-3.425,-0.137,282.348,318.725,903.869,0,0,0,
,-0.714,-2.388,0.255,-130.494,292.541,426.025,0,0,0,
,-0.826,-1.954,0.378,-182.923,287.048,142.822,0,0,0,
,-0.647,-1.59,0.371,-208.374,223.938,120.056,0,0,0,
,-0.512,-1.261,0.434,-191.651,176.696,183.838,0,0,0,
,-0.574,-1.086,0.591,-98.755,154.052,261.84,0,0,0,
,-0.457,-0.909,0.536,29.113,96.984,348.51,0,0,0,
,-0.362,-0.797,0.375,203.857,38.574,335.449,0,0,0,
,-0.276,-0.967,0.23,281.677,-15.076,374.572,0,0,0,
,-0.155,-1.104,0.179,36.56,-87.586,453.308,0,0,0,
,-0.056,-1.107,0.278,-300.477,-112,543.213,0,0,0,
,0.045,-1.112,0.392,-426.636,-78.492,616.15,0,0,0,
,0.219,-1.434,0.41,-221.741,-58.167,636.352,0,0,0,
,0.203,-2.607,0.116,-16.785,-96.436,212.524,0,0,0,
,0.044,-1.445,0.334,-598.389,-115.174,118.103,0,0,0,
,-0.3,-0.391,0.394,-686.402,-125.061,-41.626,0,0,0,
,-0.159,-0.897,0.228,223.205,-63.416,78.369,0,0,0,
,0.129,-1.08,0.274,-45.899,-36.499,217.895,0,0,0,
,0.066,-0.935,0.226,-226.441,1.159,241.516,0,0,0,
,0.157,-0.995,0.088,-121.521,-22.217,134.46,0,0,0,
,0.153,-1.164,0.175,-43.641,-10.254,55.114,0,0,0,
,0.024,-0.992,0.279,-49.744,-46.204,-51.636,0,0,0,
,0.006,-0.906,0.28,9.826,-30.64,-84.168,0,0,0,
,-0.069,-0.934,0.226,53.405,-47.486,-54.993,0,0,0,
,-0.018,-0.971,0.218,31.86,-49.134,2.441,0,0,0,
,-0.031,-0.939,0.203,-14.832,-66.59,16.052,0,0,0,
,0.035,-0.951,0.187,-32.898,-101.075,-14.588,0,0,0,
,0.1,-1.001,0.195,-42.237,-154.236,-0.855,0,0,0,
,0.083,-1,0.302,-30.945,-197.083,-2.808,0,0,0,
,0.076,-1.001,0.343,12.39,-193.116,-2.747,0,0,0,
,0.139,-1.005,0.347,75.622,-165.772,18.249,0,0,0,
,0.157,-1.023,0.445,126.953,-149.048,-7.508,0,0,0,
,0.098,-0.976,0.281,206.176,-9.644,-84.229,0,0,0,
,0.067,-0.962,0.275,152.832,-31.128,-51.636,0,0,0,
,0.012,-0.845,0.298,129.577,-38.697,-77.027,0,0,0,
,-0.021,-0.92,0.278,167.846,-23.255,-89.234,0,0,0,
,0.013,-1.028,0.217,264.099,-45.227,-90.455,0,0,0,
,-0.03,-1.07,0.18,259.765,-71.656,-77.21,0,0,0,
,-0.076,-1.011,0.157,288.635,-65.796,-79.895,0,0,0,
,-0.069,-1.085,0.171,380.859,-80.262,-113.038,0,0,0,
,-0.065,-1.182,0.177,341.98,-121.521,-144.593,0,0,0,
,-0.039,-1.342,0.198,157.776,-189.148,-225.647,0,0,0,
,-0.008,-1.415,0.19,16.418,-253.663,-334.717,0,0,0,
,-0.03,-1.456,0.162,-16.724,-277.283,-477.723,0,0,0,
,-0.063,-1.489,0.127,-154.297,-307.557,-612.854,0,0,0,
,-0.125,-1.491,0.157,-267.09,-323.06,-739.075,0,0,0,
,-0.176,-1.384,0.119,-226.99,-307.74,-834.717,0,0,0,
,-0.201,-1.388,0.092,-152.955,-288.086,-941.407,0,0,0,
,-0.22,-1.469,0.053,-242.981,-288.697,-1048.035,0,0,0,
,-0.276,-1.316,0.068,-322.876,-269.043,-1117.005,0,0,0,
,-0.309,-1.191,0.084,-324.891,-246.155,-1231.568,0,0,0,
,-0.337,-1.16,0.103,-340.455,-225.22,-1300.904,0,0,0,
,-0.365,-1.096,0.118,-380.86,-195.984,-1362.488,0,0,0,
,-0.384,-1.056,0.111,-475.281,-175.477,-1384.827,0,0,0,
,-0.409,-0.946,0.158,-549.195,-161.133,-1377.015,0,0,0,
,-0.438,-0.823,0.182,-564.637,-133.728,-1348.694,0,0,0,
,-0.446,-0.762,0.171,-644.898,-111.512,-1299.073,0,0,0,
,-0.448,-0.666,0.178,-805.787,-83.558,-1213.868,0,0,0,
,-0.468,-0.598,0.186,-1001.77,-58.594,-1147.095,0,0,0,
,-0.516,-0.514,0.213,-1240.784,2.197,-1073.853,0,0,0,
,-0.642,-0.304,0.056,-1959.046,334.655,-916.199,0,0,0,
,-0.647,-0.315,0.023,-2000,569.03,-912.903,0,0,0,
,-0.614,-0.25,0.14,-2000,836.547,-931.275,0,0,0,
,-0.57,-0.227,0.273,-2000,1156.616,-955.628,0,0,0,
,-0.543,-0.104,0.331,-2000,1467.834,-1009.827,0,0,0,
,-0.537,0.032,0.36,-2000,1694.946,-1059.815,0,0,0,
,-0.497,0.101,0.398,-2000,1866.15,-1110.474,0,0,0,
,-0.426,0.039,0.434,-2000,1927.49,-1180.298,0,0,0,
,-0.291,-0.041,0.452,-2000,1934.692,-1269.654,0,0,0,
,-0.045,0.071,0.437,-2000,1845.153,-1361.268,0,0,0,
,0.152,0.541,0.496,-2000,1617.004,-1341.004,0,0,0,
,0.295,1.298,0.647,-1933.167,1146.85,-1078.248,0,0,0,
,0.281,1.623,0.884,-1330.75,681.823,-809.449,0,0,0,
,0.122,1.587,1.091,-651.917,290.039,-397.522,0,0,0,
,0.064,1.427,1.219,38.024,38.208,17.395,0,0,0,
,-0.01,1.098,1.217,516.54,-161.683,474.731,0,0,0,
,-0.079,0.805,1.083,823.608,-403.748,877.014,0,0,0,
,-0.136,0.493,0.841,1202.209,-610.291,1081.726,0,0,0,
,-0.278,-0.014,0.47,1533.752,-739.136,1023.132,0,0,0,
,-0.418,-0.368,0.255,1689.697,-800.415,743.53,0,0,0,
,-0.473,-0.569,0.371,1593.505,-766.053,390.686,0,0,0,
,-0.505,-0.421,0.872,1176.33,-535.401,97.045,0,0,0,
,-0.581,-0.245,1.019,466.369,-50.66,-165.833,0,0,0,
,-0.625,-0.227,0.908,-320.801,466.43,-363.709,0,0,0,
,-0.581,-0.013,0.796,-995.301,911.316,-595.826,0,0,0,
,-0.422,0.155,0.751,-1238.404,1053.711,-750.061,0,0,0,
,-0.327,0.216,0.594,-1423.645,964.965,-814.026,0,0,0,
,-0.128,0.497,0.443,-1450.989,697.387,-734.986,0,0,0,
,0.038,1.021,0.597,-1108.704,206.543,-529.114,0,0,0,
,-0.079,1.605,1.009,-356.08,-194.519,-269.349,0,0,0,
,-0.142,1.41,1.31,635.498,-409.363,95.214,0,0,0,
,-0.196,0.637,1.095,1138.488,-518.921,428.222,0,0,0,
,-0.295,0.337,0.889,1367.675,-691.285,549.011,0,0,0,
,-0.332,0.091,0.739,1574.768,-796.936,500,0,0,0,
,-0.406,-0.36,0.578,1467.346,-764.893,254.76,0,0,0,
,-0.378,-0.38,0.695,1127.685,-566.407,-40.528,0,0,0,
,-0.448,-0.063,1.131,545.776,-107.85,-407.044,0,0,0,
,-0.513,0.038,1.287,-353.699,416.687,-633.667,0,0,0,
,-0.593,0.302,1.29,-1210.206,905.395,-810.486,0,0,0,
,-0.416,0.54,1.047,-1594.544,1130.737,-869.202,0,0,0,
,-0.302,0.199,0.542,-1864.502,1056.152,-843.995,0,0,0,
,0.076,0.451,-0.021,-1860.413,712.28,-577.271,0,0,0,
,0.071,1.864,0.757,-157.959,44.433,46.875,0,0,0,
,0.027,1.38,1.101,998.535,-38.453,361.084,0,0,0,
,-0.088,0.533,1.075,1414.306,-41.077,600.708,0,0,0,
,-0.133,0.255,0.976,1377.99,-217.225,787.109,0,0,0,
,-0.204,0.095,0.871,1374.633,-269.165,765.564,0,0,0,
,-0.229,-0.115,0.847,193.359,-77.393,170.166,0,0,0,
,-0.245,0.231,1.06,-180.298,196.289,-81.971,0,0,0,
,-0.282,0.379,1.218,-457.032,542.602,-381.653,0,0,0,
,-0.294,0.443,1.244,-693.787,790.466,-557.496,0,0,0,
,-0.254,0.236,0.963,-849.854,805.42,-646.363,0,0,0,
,0.054,1.449,0.789,-387.33,-196.106,48.095,0,0,0,
,-0.08,1.398,1.122,557.251,-448.975,168.762,0,0,0,
,-0.124,0.712,1.268,1216.125,-628.174,403.686,0,0,0,
,-0.206,0.101,1.062,1179.87,-810.73,520.324,0,0,0,
,-0.324,-0.175,0.791,940.002,-928.162,550.659,0,0,0,
,-0.423,-0.157,0.99,412.963,-416.932,-132.996,0,0,0,
,-0.451,-0.037,1.168,-171.204,45.715,-367.188,0,0,0,
,-0.485,0.073,1.211,-790.039,511.291,-572.937,0,0,0,
,-0.406,0.357,1.178,-1183.716,829.895,-701.661,0,0,0,
,-0.309,0.298,0.935,-1468.384,867.248,-642.334,0,0,0,
,-0.036,1.624,0.809,-726.807,-205.384,-39.856,0,0,0,
,-0.103,1.413,1.108,451.599,-309.876,270.202,0,0,0,
,-0.113,0.647,1.058,1081.359,-378.174,587.89,0,0,0,
,-0.218,0.264,0.963,1367.065,-513.184,743.591,0,0,0,
,-0.277,0.049,0.798,1505.127,-562.806,727.966,0,0,0,
,-0.348,-0.382,0.636,1295.349,-574.952,546.264,0,0,0,
,-0.391,-0.285,0.833,349.304,-227.662,12.573,0,0,0,
,-0.413,-0.085,1.032,-182.373,135.437,-265.931,0,0,0,
,-0.445,0.045,1.12,-721.436,538.33,-527.527,0,0,0,
,-0.45,0.327,1.185,-1131.226,886.169,-733.643,0,0,0,
,-0.352,0.484,1.072,-1289.49,1011.169,-793.091,0,0,0,
,-0.266,0.198,0.614,-1450.501,844.36,-776.185,0,0,0,
,0.025,0.268,0.237,-1488.709,545.288,-551.209,0,0,0,
,0.11,1.252,0.517,-1096.192,79.589,-217.225,0,0,0,
,-0.099,1.269,1.079,886.108,-257.386,391.967,0,0,0,
,-0.136,0.603,1.088,1417.114,-395.264,621.704,0,0,0,
,-0.232,0.231,0.974,1632.812,-521.241,726.867,0,0,0,
,-0.313,-0.188,0.752,1566.833,-587.281,655.334,0,0,0,
,-0.366,-0.53,0.581,1217.285,-609.986,473.266,0,0,0,
,-0.375,-0.517,0.621,742.37,-541.504,213.989,0,0,0,
,-0.366,-0.258,0.876,377.014,-323.426,-71.045,0,0,0,
,-0.419,-0.102,1.087,-51.087,84.594,-359.925,0,0,0,
,-0.455,0.044,1.195,-545.594,516.662,-615.052,0,0,0,
,-0.459,0.21,1.221,-991.15,875.366,-785.706,0,0,0,
,-0.375,0.329,1.006,-1172.486,984.68,-823.304,0,0,0,
,-0.247,0.061,0.52,-1365.723,842.163,-763.184,0,0,0,
,0.033,0.406,0.257,-1424.439,497.863,-503.54,0,0,0,
,0.098,1.403,0.554,-1021.18,65.002,-146.546,0,0,0,
,-0.076,1.738,0.967,-99.671,-203.492,105.713,0,0,0,
,-0.22,0.352,1.011,1721.252,-569.275,723.388,0,0,0,
,-0.252,-0.072,0.851,1701.66,-644.776,694.152,0,0,0,
,-0.278,-0.337,0.739,1299.499,-701.416,578.247,0,0,0,
,-0.311,-0.449,0.677,819.702,-641.297,361.633,0,0,0,
,-0.331,-0.4,0.728,378.723,-436.829,98.144,0,0,0,
,-0.377,-0.233,0.954,8.3,-69.825,-182.984,0,0,0,
,-0.417,-0.064,1.064,-439.148,333.923,-405.335,0,0,0,
,-0.463,0.105,1.177,-899.72,731.811,-607.422,0,0,0,
,-0.396,0.27,1.128,-1147.095,999.145,-696.289,0,0,0,
,-0.305,0.145,0.818,-1300.782,958.923,-672.913,0,0,0,
,-0.127,0.159,0.46,-1407.41,708.496,-569.764,0,0,0,
,0.036,0.836,0.559,-1203.003,346.496,-302.124,0,0,0,
,0.009,1.442,0.958,-598.328,-17.701,-20.264,0,0,0,
,-0.079,1.331,1.182,216.98,-202.759,190.551,0,0,0,
,-0.134,0.85,1.245,888.733,-400.33,432.678,0,0,0,
,-0.197,0.475,1.152,1267.212,-557.068,607.849,0,0,0,
,-0.244,0.096,0.901,1450.927,-674.317,656.738,0,0,0,
,-0.282,-0.262,0.712,1313.537,-753.907,582.519,0,0,0,
,-0.302,-0.453,0.58,944.824,-766.907,435.547,0,0,0,
,-0.341,-0.451,0.569,548.034,-616.578,207.153,0,0,0,
,-0.383,-0.373,0.737,229.431,-332.215,-75.44,0,0,0,
,-0.438,-0.196,0.897,-173.584,96.984,-319.153,0,0,0,
,-0.494,-0.07,1.016,-614.991,541.442,-536.988,0,0,0,
,-0.5,0.128,1.113,-1070.679,917.48,-687.256,0,0,0,
,-0.41,0.321,1.018,-1307.068,1106.506,-724.549,0,0,0,
,-0.338,0.203,0.63,-1448.975,981.689,-673.829,0,0,0,
,-0.091,0.438,0.35,-1409.974,639.587,-509.949,0,0,0,
,0.038,1.304,0.62,-960.511,193.603,-155.213,0,0,0,
,-0.001,1.625,1.115,-110.84,-187.928,121.215,0,0,0,
,-0.101,1.078,1.285,759.765,-349.122,382.263,0,0,0,
,-0.141,0.577,1.267,1269.714,-531.434,621.215,0,0,0,
,-0.22,0.303,1.079,1656.86,-703.125,738.037,0,0,0,
,-0.272,-0.094,0.798,1810.608,-804.932,692.566,0,0,0,
,-0.274,-0.471,0.66,1490.783,-843.689,565.673,0,0,0,
,-0.308,-0.601,0.607,929.809,-748.597,318.847,0,0,0,
,-0.345,-0.469,0.713,411.804,-478.943,27.465,0,0,0,
,-0.391,-0.303,0.872,5.31,-54.627,-243.47,0,0,0,
,-0.464,-0.215,0.924,-464.966,353.881,-439.27,0,0,0,
,-0.516,-0.082,0.981,-934.144,764.648,-618.287,0,0,0,
,-0.452,0.096,0.917,-1209.168,1041.259,-684.266,0,0,0,
,-0.398,0.112,0.695,-1356.69,1066.101,-648.072,0,0,0,
,-0.267,0.274,0.443,-1267.273,851.745,-540.406,0,0,0,
,-0.16,0.79,0.571,-850.403,526.55,-320.984,0,0,0,
,-0.162,1.246,0.981,-178.65,177.307,-26.856,0,0,0,
,-0.16,1.171,1.283,541.442,-55.115,218.2,0,0,0,
,-0.218,0.69,1.324,1105.102,-241.394,352.234,0,0,0,
,-0.27,0.334,1.231,1387.207,-438.172,474.487,0,0,0,
,-0.263,-0.514,0.745,591.552,-716.431,335.571,0,0,0,
,-0.323,-0.473,0.651,182.312,-575.806,128.296,0,0,0,
,-0.343,-0.332,0.735,-56.641,-310.12,-129.761,0,0,0,
,-0.361,-0.184,0.864,-306.885,68.603,-375.061,0,0,0,
,-0.419,-0.035,1.009,-612.488,480.285,-605.103,0,0,0,
,-0.379,0.247,1.14,-923.645,851.501,-783.448,0,0,0,
,-0.287,0.339,1.087,-1049.317,1093.75,-778.809,0,0,0,
,-0.202,0.117,0.665,-1003.235,1042.602,-707.215,0,0,0,
,-0.02,0.363,0.447,-788.331,752.807,-544.129,0,0,0,
,-0.005,0.953,1.231,990.539,-123.719,252.319,0,0,0,
,-0.015,0.248,1.178,1165.527,-397.828,321.35,0,0,0,
,-0.125,-0.011,1.14,905.151,-627.32,433.593,0,0,0,
,-0.237,-0.196,0.959,704.589,-732.789,434.082,0,0,0,
,-0.296,-0.421,0.788,518.432,-722.657,349.914,0,0,0,
,-0.314,-0.417,0.805,286.499,-545.472,153.869,0,0,0,
,-0.298,-0.266,0.925,0.061,-255.677,-112.61,0,0,0,
,-0.327,-0.271,0.915,-281.373,145.874,-361.634,0,0,0,
,-0.4,-0.189,0.999,-639.771,564.148,-582.398,0,0,0,
,-0.329,0.079,1.095,-945.801,954.406,-739.747,0,0,0,
,-0.243,0.065,0.975,-1098.511,1124.328,-749.512,0,0,0,
,-0.121,0.003,0.636,-1166.382,998.108,-664.917,0,0,0,
,0.047,0.48,0.492,-1010.437,668.09,-443.482,0,0,0,
,0.122,1.147,0.806,-530.396,277.71,-141.175,0,0,0,
,0.106,1.347,1.208,149.292,-23.499,93.933,0,0,0,
,0.049,0.952,1.295,729.858,-221.802,254.76,0,0,0,
,-0.014,0.597,1.33,996.215,-489.258,421.386,0,0,0,
,-0.11,0.389,1.213,1081.237,-673.096,563.354,0,0,0,
,-0.17,0.137,1.045,991.455,-805.115,599.365,0,0,0,
,-0.19,-0.087,0.9,743.835,-868.103,574.829,0,0,0,
,-0.198,-0.276,0.714,421.753,-835.511,486.084,0,0,0,
,-0.24,-0.339,0.632,161.438,-662.476,299.56,0,0,0,
,-0.275,-0.227,0.667,15.93,-388.611,71.472,0,0,0,
,-0.324,-0.202,0.78,-155.945,14.953,-144.104,0,0,0,
,-0.408,-0.146,0.942,-440.247,514.038,-361.878,0,0,0,
,-0.391,0.061,1.109,-790.711,935.18,-522.828,0,0,0,
,-0.346,0.158,1.122,-1024.231,1308.349,-585.877,0,0,0,
,-0.221,0.087,0.799,-1057.129,1325.927,-523.072,0,0,0,
,-0.087,0.149,0.552,-915.528,1040.222,-409.668,0,0,0,
,0.07,0.79,0.703,-647.461,656.494,-63.477,0,0,0,
,0.213,1.282,1.067,-306.092,179.931,250.793,0,0,0,
,0.177,1.07,1.33,194.641,-163.392,328.918,0,0,0,
,0.021,0.656,1.253,555.603,-394.532,456.482,0,0,0,
,-0.046,0.346,1.279,747.497,-724.854,595.398,0,0,0,
,-0.179,0.175,1.105,839.66,-884.095,669.983,0,0,0,
,-0.233,-0.141,0.863,785.644,-967.286,616.76,0,0,0,
,-0.278,-0.356,0.655,541.076,-951.478,505.981,0,0,0,
,-0.285,-0.378,0.614,281.067,-774.72,304.016,0,0,0,
,-0.363,-0.221,0.785,63.598,-397.461,20.446,0,0,0,
,-0.437,-0.063,0.953,-150.94,81.176,-240.296,0,0,0,
,-0.552,0.012,1.058,-533.143,630.31,-460.389,0,0,0,
,-0.493,0.189,1.093,-890.992,1078.796,-574.219,0,0,0,
,-0.351,0.143,0.932,-1088.379,1232.544,-542.237,0,0,0,
,-0.224,0.012,0.496,-1066.895,1003.479,-474.366,0,0,0,
,-0.037,0.483,0.476,-743.348,656.494,-186.707,0,0,0,
,0.094,1.232,0.822,-295.227,184.875,205.139,0,0,0,
,0.076,1.17,1.172,290.161,-124.146,313.232,0,0,0,
,-0.093,0.571,1.174,731.994,-309.449,368.713,0,0,0,
,-0.168,0.093,1.005,789.123,-518.677,429.26,0,0,0,
,-0.273,-0.023,0.961,716.858,-694.153,493.164,0,0,0,
,-0.351,-0.177,0.829,688.842,-703.736,422.668,0,0,0,
,-0.363,-0.354,0.81,518.188,-612.305,262.756,0,0,0,
,-0.384,-0.246,0.924,244.262,-346.497,16.54,0,0,0,
,-0.417,-0.116,1.063,4.394,34.545,-226.746,0,0,0,
,-0.51,-0.037,1.189,-348.694,515.808,-424.378,0,0,0,
,-0.479,0.176,1.23,-654.969,947.265,-558.167,0,0,0,
,-0.36,0.155,1.025,-796.143,1059.204,-550.66,0,0,0,
,-0.279,-0.074,0.569,-754.334,849.731,-487.793,0,0,0,
,-0.141,0.386,0.547,-571.839,521.545,-215.516,0,0,0,
,-0.032,1.079,0.828,-218.995,87.158,123.047,0,0,0,
,-0.05,1.002,1.096,319.946,-182.984,201.11,0,0,0,
,-0.097,0.447,1.152,695.251,-422.669,224.121,0,0,0,
,-0.209,0.197,1.173,744.751,-670.227,331.482,0,0,0,
,-0.297,0.047,1.041,792.419,-779.541,353.942,0,0,0,
,-0.369,-0.141,0.866,741.882,-812.561,308.105,0,0,0,
,-0.417,-0.232,0.757,614.502,-745.911,197.876,0,0,0,
,-0.423,-0.246,0.753,413.269,-568.36,37.353,0,0,0,
,-0.429,-0.136,0.866,204.528,-244.141,-170.35,0,0,0,
,-0.421,-0.079,0.942,51.696,112.365,-302.796,0,0,0,
,-0.443,0.035,1.002,-171.753,550.659,-448.06,0,0,0,
,-0.414,0.159,1.088,-354.004,915.954,-507.019,0,0,0,
,-0.306,0.109,1.093,-497.193,1127.319,-503.296,0,0,0,
,-0.171,0.011,0.851,-498.414,1059.936,-421.021,0,0,0,
,0.126,0.815,0.764,-125.977,365.6,84.777,0,0,0,
,0.241,0.886,1.034,249.084,-0.55,162.536,0,0,0,
,0.202,0.368,1.065,497.497,-284.913,92.59,0,0,0,
,0.098,0.12,1.231,399.414,-642.456,209.716,0,0,0,
,-0.115,0.186,1.16,503.845,-831.971,304.138,0,0,0,
,-0.23,-0.039,0.977,656.982,-861.145,295.349,0,0,0,
,-0.288,-0.272,0.789,559.814,-815.247,245.056,0,0,0,
,-0.286,-0.337,0.77,278.747,-664.368,132.324,0,0,0,
,-0.282,-0.205,0.989,-53.284,-358.765,-72.083,0,0,0,
,-0.308,-0.102,1.192,-315.979,130.188,-226.868,0,0,0,
,-0.367,-0.119,1.273,-595.52,665.832,-363.16,0,0,0,
,-0.326,0.124,1.155,-805.176,1139.343,-429.261,0,0,0,
,-0.21,0.259,0.786,-796.021,1197.509,-452.942,0,0,0,
,0.347,0.774,0.995,-221.436,114.257,47.424,0,0,0,
,0.17,0.652,1.248,17.395,-209.656,76.904,0,0,0,
,0.159,0.365,1.317,179.443,-574.952,179.626,0,0,0,
,-0.004,0.276,1.288,192.932,-795.289,327.331,0,0,0,
,-0.137,0.022,1.101,217.407,-902.222,332.519,0,0,0,
,-0.109,1.198,1.104,-135.437,3.601,177.856,0,0,0,
,-0.134,0.858,1.243,129.272,-218.934,435.058,0,0,0,
,-0.295,0.604,1.271,208.557,-380.982,672.79,0,0,0,
,-0.403,0.259,1.061,322.326,-504.944,767.517,0,0,0,
,-0.468,-0.085,0.854,397.4,-549.195,674.072,0,0,0,
,-0.46,-0.302,0.724,419.555,-502.625,458.618,0,0,0,
,-0.411,-0.392,0.816,248.169,-307.435,143.798,0,0,0,
,-0.419,-0.389,0.935,-119.019,14.648,-158.631,0,0,0,
,-0.444,-0.252,1.036,-534.668,417.724,-463.44,0,0,0,
,-0.446,0.072,1.226,-894.532,820.19,-706.36,0,0,0,
,-0.322,0.377,1.141,-1036.927,1135.131,-772.034,0,0,0,
,-0.173,0.27,0.657,-968.812,1043.213,-746.705,0,0,0,
,0.014,0.406,0.224,-634.339,690.551,-581.177,0,0,0,
,0.222,1.194,0.365,-140.32,188.11,-106.08,0,0,0,
,0.232,1.409,0.747,270.691,-101.38,118.896,0,0,0,
,0.04,0.949,0.951,523.071,-348.511,250.854,0,0,0,
,-0.144,0.532,1.159,476.257,-567.749,447.631,0,0,0,
,-0.306,0.32,1.127,393.982,-685.12,596.679,0,0,0,
,-0.414,0.11,0.959,433.715,-694.642,624.145,0,0,0,
,-0.442,-0.072,0.829,526.55,-626.648,523.742,0,0,0,
,-0.411,-0.157,0.829,435.485,-470.398,298.401,0,0,0,
,-0.391,-0.092,0.937,148.254,-224.732,43.64,0,0,0,
,-0.4,0.004,1.042,-193.421,110.473,-223.328,0,0,0,
,-0.441,0.221,1.206,-483.155,450.988,-457.886,0,0,0,
,-0.344,0.396,1.173,-639.222,705.017,-540.406,0,0,0,
,-0.305,0.177,0.813,-674.378,675.659,-536.499,0,0,0,
,-0.23,0.325,0.472,-566.224,460.815,-427.002,0,0,0,
,-0.141,0.9,0.583,-229.615,134.948,-112.061,0,0,0,
,-0.144,1.143,0.844,162.536,-136.292,140.075,0,0,0,
,-0.167,0.819,0.982,461.609,-401.978,280.578,0,0,0,
,-0.338,0.484,1.079,560.73,-604.676,410.217,0,0,0,
,-0.351,0.206,1.015,630.371,-724.732,467.285,0,0,0,
,-0.413,-0.011,0.87,658.752,-732.483,397.705,0,0,0,
,-0.421,-0.152,0.73,594.177,-653.321,241.455,0,0,0,
,-0.439,-0.209,0.742,359.008,-444.642,-5.127,0,0,0,
,-0.428,-0.079,0.878,50.476,-147.278,-273.804,0,0,0,
,-0.429,0.06,0.997,-292.359,232.666,-488.221,0,0,0,
,-0.43,0.36,1.23,-629.517,657.165,-699.952,0,0,0,
,-0.359,0.478,1.227,-752.198,961.67,-730.164,0,0,0,
,-0.247,0.274,0.844,-718.262,954.345,-711.304,0,0,0,
,-0.127,0.348,0.389,-524.476,747.558,-568.299,0,0,0,
,0.047,0.963,0.397,-136.841,370.117,-179.322,0,0,0,
,0.117,1.368,0.745,238.464,0.732,106.384,0,0,0,
,0.019,0.962,0.981,595.642,-209.656,161.865,0,0,0,
,0.019,0.444,1.215,604.309,-547.547,319.275,0,0,0,
,-0.107,0.373,1.269,559.997,-736.084,472.351,0,0,0,
,-0.169,0.154,1.069,726.257,-840.882,521.301,0,0,0,
,-0.215,-0.009,0.897,816.345,-847.596,475.341,0,0,0,
,-0.259,-0.154,0.739,844.726,-767.334,327.392,0,0,0,
,-0.288,-0.205,0.716,838.989,-577.454,83.374,0,0,0,
,-0.292,-0.125,0.824,804.992,-289.368,-133.423,0,0,0,
,-0.29,-0.095,0.934,636.23,107.91,-320.008,0,0,0,
,-0.352,-0.007,1.067,345.825,547.18,-485.23,0,0,0,
,-0.361,0.187,1.269,63.171,983.703,-616.517,0,0,0,
,-0.311,0.285,1.323,-237.793,1337.341,-625,0,0,0,
,-0.18,-0.014,0.956,-550.171,1311.706,-534.485,0,0,0,
,-0.109,-0.011,0.404,-782.837,1017.761,-447.083,0,0,0,
,-0.008,0.621,0.375,-872.437,658.813,-116.7,0,0,0,
,0.154,1.123,0.735,-779.236,183.532,170.227,0,0,0,
,0.109,0.975,1.091,-543.213,-130.005,197.326,0,0,0,
,0.007,0.639,1.18,-219.178,-370.179,289.489,0,0,0,
,-0.021,0.479,1.265,23.986,-606.873,489.685,0,0,0,
,-0.115,0.309,1.143,432.495,-684.632,545.776,0,0,0,
,-0.151,-0.104,0.883,639.465,-702.698,516.784,0,0,0,
,-0.165,-0.315,0.725,515.075,-675.049,397.522,0,0,0,
,-0.214,-0.31,0.656,355.224,-522.583,194.152,0,0,0,
,-0.219,-0.22,0.787,249.389,-249.939,-75.684,0,0,0,
,-0.231,-0.089,0.917,78.918,156.311,-295.044,0,0,0,
,-0.262,0.006,1.042,-189.942,604.126,-492.127,0,0,0,
,-0.227,0.192,1.16,-586.243,942.199,-599.122,0,0,0,
,-0.124,0.214,0.951,-884.461,1073.303,-596.497,0,0,0,
,0.044,0.268,0.621,-1016.236,879.699,-498.719,0,0,0,
,0.222,0.668,0.665,-927.247,488.098,-287.903,0,0,0,
,0.257,1.167,0.973,-640.076,119.079,-25.391,0,0,0,
,0.133,1.17,1.209,-193.665,-121.033,116.211,0,0,0,
,0.079,0.899,1.272,294.799,-325.684,301.574,0,0,0,
,-0.043,0.611,1.257,639.953,-486.939,520.691,0,0,0,
,-0.127,0.304,1.105,887.817,-616.517,631.286,0,0,0,
,-0.184,-0.053,0.858,883.484,-682.923,635.681,0,0,0,
,-0.239,-0.241,0.717,703.979,-671.265,515.319,0,0,0,
,-0.273,-0.268,0.655,501.098,-513.001,293.579,0,0,0,
,-0.341,-0.228,0.71,295.349,-226.502,39.367,0,0,0,
,-0.373,-0.167,0.864,-6.287,174.194,-216.248,0,0,0,
,-0.468,0.025,1.058,-403.626,584.777,-435.975,0,0,0,
,-0.47,0.254,1.282,-845.52,1024.047,-604.493,0,0,0,
,-0.366,0.196,1.24,-1132.752,1250.915,-567.933,0,0,0,
,-0.256,0.033,0.731,-1247.254,1093.139,-479.798,0,0,0,
,-0.085,0.457,0.413,-960.694,675.903,-286.927,0,0,0,
,-0.01,1.258,0.708,-361.939,211.059,74.585,0,0,0,
,0.02,1.409,1.092,352.722,-139.771,308.96,0,0,0,
,-0.095,0.809,1.141,781.86,-368.958,432.739,0,0,0,
,-0.189,0.369,1.158,968.383,-714.417,532.714,0,0,0,
,-0.267,0.198,1.099,1070.8,-877.503,626.159,0,0,0,
,-0.332,-0.063,0.908,1144.836,-917.969,592.59,0,0,0,
,-0.316,-0.351,0.755,866.455,-842.041,425.842,0,0,0,
,-0.376,-0.357,0.751,420.837,-641.785,196.289,0,0,0,
,-0.417,-0.25,0.833,14.831,-284.119,-54.2,0,0,0,
,-0.438,-0.22,0.916,-352.601,121.765,-267.823,0,0,0,
,-0.491,-0.057,0.994,-747.315,580.2,-453.003,0,0,0,
,-0.453,0.07,1.088,-1020.813,1009.277,-558.411,0,0,0,
,-0.402,0.099,0.966,-1122.376,1175.842,-538.086,0,0,0,
,-0.316,0.211,0.67,-1024.537,1038.757,-500.855,0,0,0,
,-0.175,0.601,0.55,-666.382,712.158,-296.326,0,0,0,
,-0.044,1.168,0.744,-152.344,251.77,-33.936,0,0,0,
,0.062,1.187,1.161,457.763,-112.977,115.478,0,0,0,
,-0.018,0.644,1.252,868.286,-342.408,161.865,0,0,0,
,-0.024,0.224,1.218,827.758,-725.586,274.78,0,0,0,
,-0.142,0.087,1.091,853.393,-969.849,334.655,0,0,0,
,-0.227,-0.151,0.85,967.834,-1106.202,290.649,0,0,0,
,-0.305,-0.412,0.596,941.467,-1105.896,170.288,0,0,0,
,-0.346,-0.501,0.528,717.834,-967.774,-37.842,0,0,0,
,-0.355,-0.279,0.73,481.323,-650.879,-310.364,0,0,0,
,-0.37,-0.098,0.968,186.706,-135.315,-524.048,0,0,0,
,-0.435,-0.109,1.014,-237,374.572,-679.993,0,0,0,
,-0.429,-0.015,1.019,-734.314,848.816,-737.732,0,0,0,
,-0.343,0.111,0.887,-1042.176,1155.273,-724.976,0,0,0,
,-0.234,0.291,0.631,-1141.114,1097.778,-625.916,0,0,0,
,-0.041,0.633,0.527,-1030.213,814.941,-434.998,0,0,0,
,0.174,1.174,0.86,-716.248,342.529,-178.65,0,0,0,
,0.216,1.297,1.376,-140.32,-60.364,-55.787,0,0,0,
,0.079,0.863,1.635,429.626,-333.008,93.566,0,0,0,
,0.031,0.334,1.308,620.971,-550.904,266.296,0,0,0,
,-0.101,0.307,1.208,674.133,-830.689,434.387,0,0,0,
,-0.167,0.178,0.998,784.607,-982.3,421.936,0,0,0,
,-0.223,-0.204,0.769,736.206,-970.52,291.748,0,0,0,
,-0.279,-0.296,0.646,495.361,-807.496,80.993,0,0,0,
,-0.325,-0.095,0.733,221.435,-483.643,-183.35,0,0,0,
,-0.344,-0.043,0.841,-134.766,-11.658,-394.898,0,0,0,
,-0.441,0.118,0.944,-579.102,447.937,-582.703,0,0,0,
,-0.413,0.239,1.048,-1008.057,891.662,-676.453,0,0,0,
,-0.332,0.173,1,-1286.072,1175.171,-634.461,0,0,0,
,-0.179,0.228,0.641,-1358.216,1118.835,-474.915,0,0,0,
,0.033,0.739,0.387,-1090.149,779.541,-202.454,0,0,0,
,0.205,1.331,0.611,-529.786,340.576,113.22,0,0,0,
,0.275,1.286,1.044,185.241,-65.796,276.611,0,0,0,
,0.109,0.827,1.31,666.809,-342.286,473.693,0,0,0,
,0.057,0.306,1.015,932.8,-518.372,607.544,0,0,0,
,-0.216,-0.351,0.626,840.088,-648.072,458.374,0,0,0,
,-0.268,-0.214,0.799,417.236,-398.499,208.984,0,0,0,
,-0.293,-0.157,0.97,4.516,30.578,-16.663,0,0,0,
,-0.363,-0.082,1.022,-495.85,517.334,-193.482,0,0,0,
,-0.389,0.119,1.105,-966.126,971.984,-358.155,0,0,0,
,-0.297,0.263,1.088,-1173.157,1301.513,-406.617,0,0,0,
,-0.202,0.204,0.768,-1188.538,1274.902,-375.55,0,0,0,
,-0.007,0.344,0.388,-967.408,978.332,-248.352,0,0,0,
,0.188,1.007,0.589,-548.035,502.014,42.114,0,0,0,
,0.227,1.238,1.028,47.119,132.385,197.143,0,0,0,
,0.095,0.858,1.386,525.451,-159.974,317.871,0,0,0,
,0.055,0.499,1.259,832.641,-358.765,477.295,0,0,0,
,-0.114,0.219,1.187,970.337,-585.45,575.195,0,0,0,
,-0.173,-0.004,0.971,980.835,-665.284,578.186,0,0,0,
,-0.219,-0.298,0.819,716.491,-664.551,450.561,0,0,0,
,-0.25,-0.297,0.83,358.093,-521.485,237.976,0,0,0,
,-0.264,-0.195,0.95,41.687,-238.892,-17.151,0,0,0,
,-0.296,-0.117,1.079,-337.037,169.799,-260.315,0,0,0,
,-0.364,0.056,1.205,-730.103,594.116,-480.591,0,0,0,
,-0.308,0.299,1.24,-983.826,994.323,-586.67,0,0,0,
,-0.222,0.27,0.941,-1001.099,1053.344,-576.966,0,0,0,
,-0.123,0.021,0.465,-900.147,836.914,-542.176,0,0,0,
,0.121,0.641,0.499,-708.558,411.56,-219.422,0,0,0,
,0.121,1.249,0.946,-337.22,-5.372,23.986,0,0,0,
,-0.004,1.023,1.119,249.328,-269.471,125.793,0,0,0,
,-0.109,0.711,1.324,619.262,-567.749,345.703,0,0,0,
,-0.231,0.432,1.215,895.935,-757.935,515.808,0,0,0,
,-0.317,0.09,0.96,941.223,-886.963,560.974,0,0,0,
,-0.378,-0.131,0.744,815.857,-903.138,494.018,0,0,0,
,-0.403,-0.259,0.691,599.06,-808.777,288.391,0,0,0,
,-0.41,-0.205,0.847,351.928,-559.205,10.681,0,0,0,
,-0.443,-0.143,1.037,9.582,-134.4,-244.873,0,0,0,
,-0.483,-0.094,1.161,-445.618,300.293,-458.741,0,0,0,
,-0.494,0.171,1.205,-830.689,755.859,-620.545,0,0,0,
,-0.422,0.357,1.14,-946.412,1013.366,-679.017,0,0,0,
,-0.321,0.141,0.729,-920.777,898.315,-689.759,0,0,0,
,-0.167,0.089,0.324,-771.729,596.313,-584.473,0,0,0,
,0,0.842,0.486,-496.094,179.931,-233.338,0,0,0,
,-0.073,1.194,0.874,36.071,-222.901,-84.9,0,0,0,
,-0.2,0.884,1.068,667.541,-433.533,28.747,0,0,0,
,-0.249,0.503,1.165,1009.338,-663.636,167.053,0,0,0,
,-0.344,0.25,1.033,1069.458,-811.829,284.057,0,0,0,
,-0.411,0.029,0.817,1017.883,-869.935,290.954,0,0,0,
,-0.428,-0.105,0.686,836.364,-841.431,225.341,0,0,0,
,-0.415,-0.205,0.602,572.754,-713.318,71.228,0,0,0,
,-0.401,-0.183,0.675,287.841,-451.6,-113.465,0,0,0,
,-0.395,-0.141,0.822,71.289,-59.937,-283.814,0,0,0,
,-0.41,-0.086,1.015,-240.967,368.591,-411.377,0,0,0,
,-0.396,0.082,1.237,-693.36,861.877,-501.648,0,0,0,
,-0.31,0.329,1.167,-913.514,1191.894,-489.808,0,0,0,
,-0.23,0.324,0.834,-963.929,1202.636,-500.061,0,0,0,
,-0.058,0.349,0.427,-808.533,914.795,-462.525,0,0,0,
,0.17,0.825,0.429,-478.882,493.591,-153.992,0,0,0,
,0.277,1.224,0.881,-125.977,6.286,59.753,0,0,0,
,0.107,0.918,1.21,295.837,-245.545,95.947,0,0,0,
,0.058,0.479,1.386,542.724,-574.219,226.501,0,0,0,
,-0.062,0.325,1.365,674.804,-784.18,415.649,0,0,0,
,-0.185,0.074,1.114,841.919,-887.085,441.65,0,0,0,
,-0.252,-0.162,0.846,788.879,-886.658,383.545,0,0,0,
,-0.292,-0.298,0.711,528.686,-794.739,199.951,0,0,0,
,-0.307,-0.186,0.839,259.826,-537.659,-57.496,0,0,0,
,-0.283,-0.1,1.007,61.584,-168.396,-291.382,0,0,0,
,-0.343,-0.027,1.066,-265.259,296.508,-460.389,0,0,0,
,-0.318,0.119,1.04,-595.093,722.473,-559.082,0,0,0,
,-0.298,0.09,0.936,-883.545,981.933,-557.007,0,0,0,
,-0.208,0.116,0.693,-1067.505,982.971,-478.577,0,0,0,
,-0.089,0.582,0.533,-1028.87,759.216,-282.593,0,0,0,
,-0.007,1.154,0.631,-632.264,414.978,-39.002,0,0,0,
,0.086,1.251,0.915,-88.074,75.744,123.291,0,0,0,
,0.067,0.901,1.135,277.771,-232.239,218.505,0,0,0,
,0.061,0.45,1.115,414.795,-541.077,340.393,0,0,0,
,-0.084,0.419,1.188,430.786,-740.784,531.067,0,0,0,
,-0.177,0.322,1.044,651.367,-845.215,587.524,0,0,0,
,-0.224,-0.06,0.819,725.891,-824.036,513.855,0,0,0,
,-0.28,-0.177,0.725,537.17,-676.453,308.227,0,0,0,
,-0.288,-0.093,0.822,299.072,-396.912,43.823,0,0,0,
,-0.275,-0.061,0.97,-39.246,15.93,-171.631,0,0,0,
,-0.33,0.023,1.057,-544.129,482.727,-354.615,0,0,0,
,-0.32,0.308,1.133,-1043.885,916.32,-491.028,0,0,0,
,-0.219,0.319,0.994,-1313.172,1170.776,-468.567,0,0,0,
,-0.099,0.241,0.546,-1404.725,1069.091,-422.791,0,0,0,
,0.081,0.726,0.389,-1128.296,741.943,-209.229,0,0,0,
,0.215,1.375,0.659,-552.735,318.298,116.882,0,0,0,
,0.173,1.352,1.004,144.653,15.38,293.151,0,0,0,
,0.105,0.827,1.201,633.484,-225.525,500.244,0,0,0,
,-0.024,0.499,1.231,759.094,-522.095,736.389,0,0,0,
,-0.161,0.261,1.041,1060.852,-684.876,810.669,0,0,0,
,-0.239,-0.201,0.774,1177.002,-765.137,716.858,0,0,0,
,-0.263,-0.441,0.671,904.052,-699.952,496.582,0,0,0,
,-0.284,-0.44,0.722,500.793,-485.108,181.518,0,0,0,
,-0.338,-0.354,0.852,36.315,-101.624,-129.761,0,0,0,
,-0.427,-0.151,0.941,-510.987,378.479,-403.382,0,0,0,
,-0.486,0.154,1.051,-960.45,845.031,-629.09,0,0,0,
,-0.407,0.309,1.102,-1282.959,1212.585,-696.473,0,0,0,
,-0.302,0.164,0.809,-1433.045,1226.623,-681.275,0,0,0,
,-0.152,0.284,0.406,-1273.743,969.421,-524.842,0,0,0,
,0.036,1.19,0.464,-709.046,531.433,-105.957,0,0,0,
,0.078,1.708,0.823,97.717,109.253,213.256,0,0,0,
,0.029,1.155,1.128,953.186,-207.886,419.922,0,0,0,
,-0.093,0.495,1.133,1198.181,-397.461,570.312,0,0,0,
,-0.195,0.028,1.021,1048.767,-681.031,627.868,0,0,0,
,-0.294,-0.029,0.886,875.305,-773.682,619.323,0,0,0,
,-0.318,-0.266,0.779,667.602,-757.081,437.255,0,0,0,
,-0.344,-0.349,0.777,338.134,-573.243,164.734,0,0,0,
,-0.366,-0.201,0.918,-17.456,-252.442,-109.314,0,0,0,
,-0.418,-0.052,1.056,-399.109,188.659,-360.657,0,0,0,
,-0.447,0.159,1.115,-740.723,590.759,-574.097,0,0,0,
,-0.385,0.277,1.068,-981.507,890.991,-622.864,0,0,0,
,-0.304,0.209,0.776,-1139.649,906.311,-600.159,0,0,0,
,-0.143,0.408,0.472,-1065.979,639.892,-457.825,0,0,0,
,-0.027,1.162,0.586,-631.531,254.455,-121.705,0,0,0,
,-0.023,1.333,0.888,32.226,-68.543,90.393,0,0,0,
,-0.095,0.958,1.09,480.407,-316.529,290.161,0,0,0,
,-0.144,0.607,1.205,708.13,-540.772,467.346,0,0,0,
,-0.249,0.335,1.144,847.473,-680.298,554.26,0,0,0,
,-0.32,0.055,0.977,877.136,-721.619,488.586,0,0,0,
,-0.346,-0.121,0.877,678.588,-677.124,346.069,0,0,0,
,-0.356,-0.159,0.862,380.127,-519.898,111.877,0,0,0,
,-0.365,-0.166,0.865,44.128,-285.401,-126.526,0,0,0,
,-0.378,-0.079,0.876,-267.884,27.343,-361.573,0,0,0,
,-0.412,0.121,0.882,-495.362,353.942,-580.567,0,0,0,
,-0.415,0.243,0.925,-643.616,693.42,-722.168,0,0,0,
,-0.385,0.383,0.983,-712.952,960.876,-827.698,0,0,0,
,-0.316,0.516,0.874,-645.508,1055.236,-843.934,0,0,0,
,-0.195,0.307,0.547,-494.507,957.336,-747.315,0,0,0,
,-0.001,0.572,0.4,-369.873,654.235,-391.236,0,0,0,
,0.165,1.224,0.623,-247.071,207.824,-36.866,0,0,0,
,0.103,1.227,0.941,82.153,-103.211,61.828,0,0,0,
,0.114,0.765,1.209,356.933,-451.844,227.478,0,0,0,
,-0.005,0.586,1.332,442.81,-704.895,444.152,0,0,0,
,-0.123,0.327,1.173,617.065,-853.577,531.677,0,0,0,
,-0.19,0.06,0.92,713.379,-923.829,500.488,0,0,0,
,-0.28,-0.146,0.71,692.505,-910.462,349.487,0,0,0,
,-0.303,-0.235,0.638,563.781,-796.204,110.168,0,0,0,
,-0.35,-0.204,0.754,397.888,-563.538,-187.317,0,0,0,
,-0.371,-0.047,0.915,170.288,-142.456,-427.308,0,0,0,
,-0.465,0.057,1,-164.917,282.287,-616.211,0,0,0,
,-0.476,0.273,1.127,-551.331,720.825,-743.164,0,0,0,
,-0.422,0.464,1.075,-841.492,979.736,-763.794,0,0,0,
,-0.293,0.407,0.69,-967.225,910.827,-725.281,0,0,0,
,-0.059,0.58,0.278,-920.105,575.012,-437.806,0,0,0,
,0.177,1.312,0.551,-648.011,1.342,-133.851,0,0,0,
,0.101,1.261,1.159,-195.801,-418.152,-12.696,0,0,0,
,-0.004,0.896,1.416,229.248,-606.751,200.988,0,0,0,
,-0.03,0.514,1.213,570.251,-796.387,394.958,0,0,0,
,-0.172,0.56,1.031,907.714,-908.326,556.152,0,0,0,
,-0.226,0.193,0.81,1211.486,-919.129,491.516,0,0,0,
,-0.264,-0.219,0.651,999.939,-860.535,299.56,0,0,0,
,-0.304,-0.163,0.654,643.493,-665.711,83.801,0,0,0,
,-0.373,-0.065,0.766,280.334,-325.928,-157.471,0,0,0,
,-0.413,0.042,0.796,-150.147,83.74,-348.938,0,0,0,
,-0.469,0.171,0.839,-578.248,524.231,-521.119,0,0,0,
,-0.417,0.373,0.933,-900.513,894.287,-586.365,0,0,0,
,-0.326,0.498,0.84,-1084.229,1088.073,-568.543,0,0,0,
,-0.163,0.533,0.531,-1065.491,1005.31,-488.953,0,0,0,
,0.082,0.773,0.374,-838.013,697.143,-270.325,0,0,0,
,0.243,1.265,0.634,-441.712,278.564,35.888,0,0,0,
,0.246,1.286,1.016,75.012,-41.321,201.477,0,0,0,
,0.118,0.84,1.222,514.587,-258.789,348.999,0,0,0,
,0.123,0.508,1.164,650.024,-519.837,549.133,0,0,0,
,-0.055,0.436,1.048,909.79,-645.02,609.375,0,0,0,
,-0.119,0.035,0.836,1050.048,-684.144,528.747,0,0,0,
,-0.174,-0.163,0.721,884.887,-639.893,376.159,0,0,0,
,-0.232,-0.158,0.726,623.901,-459.412,139.282,0,0,0,
,-0.275,-0.081,0.83,276.55,-163.636,-92.591,0,0,0,
,-0.346,0.034,0.902,-153.138,224.731,-292.969,0,0,0,
,-0.419,0.193,0.999,-555.054,629.577,-452.393,0,0,0,
,-0.396,0.315,1.045,-887.635,958.618,-494.996,0,0,0,
,-0.324,0.35,0.923,-1101.502,1137.146,-457.703,0,0,0,
,-0.167,0.415,0.578,-1070.191,1041.504,-370.179,0,0,0,
,0.011,0.751,0.384,-777.466,744.262,-130.555,0,0,0,
,0.179,1.205,0.597,-350.22,376.342,150.024,0,0,0,
,0.199,1.187,0.962,93.322,37.902,290.466,0,0,0,
,0.119,0.843,1.218,403.686,-233.033,445.007,0,0,0,
,0.027,0.713,1.31,640.747,-457.764,656.555,0,0,0,
,-0.079,0.48,1.203,912.414,-610.108,745.666,0,0,0,
,-0.155,0.14,1.016,1014.526,-714.722,765.686,0,0,0,
,-0.209,-0.132,0.802,892.944,-760.804,667.724,0,0,0,
,-0.337,-0.252,0.671,733.398,-682.984,436.279,0,0,0,
,-0.395,-0.193,0.763,552.368,-429.261,150.39,0,0,0,
,-0.445,-0.183,0.908,268.127,-43.885,-137.207,0,0,0,
,-0.563,-0.176,0.967,-219.422,397.277,-339.356,0,0,0,
,-0.589,0.046,1.077,-688.965,867.248,-532.105,0,0,0,
,-0.523,0.218,1.218,-943.238,1255.92,-610.047,0,0,0,
,-0.39,0.217,1.124,-1008.79,1403.564,-559.51,0,0,0,
,-0.179,0.323,0.635,-928.162,1233.886,-465.76,0,0,0,
,0.074,0.778,0.392,-595.093,822.387,-130.738,0,0,0,
,0.338,1.374,0.61,-165.284,214.66,197.937,0,0,0,
,0.324,1.238,1.073,323.059,-247.071,226.013,0,0,0,
,-0.004,0.608,1.256,592.346,-502.076,303.466,0,0,0,
,-0.013,0.25,1.256,567.321,-905.518,462.646,0,0,0,
,-0.245,0.27,1.131,540.222,-1010.804,594.36,0,0,0,
,-0.327,-0.002,0.89,618.347,-1023.682,506.775,0,0,0,
,-0.344,-0.172,0.774,472.168,-957.886,391.479,0,0,0,
,-0.393,-0.107,0.741,242.431,-750.245,189.453,0,0,0,
,-0.438,-0.058,0.762,29.174,-444.642,-28.077,0,0,0,
,-0.488,-0.017,0.829,-179.017,-37.11,-229.981,0,0,0,
,-0.539,0.026,0.915,-429.017,382.995,-391.602,0,0,0,
,-0.516,0.158,0.972,-608.216,727.844,-456.543,0,0,0,
,-0.437,0.251,0.884,-630.066,874.084,-469.91,0,0,0,
,-0.363,0.205,0.562,-625.061,753.357,-471.619,0,0,0,
,-0.212,0.371,0.361,-492.127,487.732,-343.873,0,0,0,
,-0.069,0.788,0.499,-250.672,110.473,-113.709,0,0,0,
,-0.084,0.945,0.847,86.303,-279.114,-49.988,0,0,0,
,-0.237,0.622,1.067,381.836,-524.903,31.677,0,0,0,
,-0.348,0.395,1.142,549.56,-720.765,160.156,0,0,0,
,-0.449,0.286,1.011,716.064,-792.237,242.614,0,0,0,
,-0.516,0.088,0.841,862.915,-750.367,198.791,0,0,0,
,-0.505,-0.041,0.747,771.728,-594.605,59.814,0,0,0,
,-0.51,-0.019,0.806,518.737,-318.36,-140.748,0,0,0,
,-0.497,-0.092,0.886,161.987,83.129,-325.318,0,0,0,
,-0.514,0.043,1.062,-277.588,523.193,-488.953,0,0,0,
,-0.464,0.258,1.207,-671.265,927.124,-561.036,0,0,0,
,-0.35,0.351,1.106,-889.893,1105.896,-528.87,0,0,0,
,-0.197,0.404,0.654,-950.135,948.608,-476.075,0,0,0,
,0.02,0.755,0.483,-732.178,553.1,-274.903,0,0,0,
,0.165,1.302,0.778,-326.355,105.285,13.794,0,0,0,
,0.125,1.139,1.12,251.892,-178.284,109.558,0,0,0,
,0.051,0.686,1.344,557.922,-493.409,273.193,0,0,0,
,-0.083,0.604,1.359,837.097,-696.351,483.032,0,0,0,
,-0.189,0.211,1.132,1078.796,-803.04,500.549,0,0,0,
,-0.26,-0.109,0.861,993.103,-850.769,427.795,0,0,0,
,-0.325,-0.224,0.751,753.967,-808.472,282.898,0,0,0,
,-0.342,-0.239,0.767,487.06,-624.268,76.11,0,0,0,
,-0.348,-0.197,0.825,196.472,-333.191,-134.522,0,0,0,
,-0.391,-0.072,0.873,-115.601,62.866,-323.304,0,0,0,
,-0.446,0.054,0.929,-404.541,459.228,-482.056,0,0,0,
,-0.452,0.222,0.992,-620.545,870.056,-549.683,0,0,0,
,-0.422,0.32,0.956,-693.726,1116.027,-528.138,0,0,0,
,-0.303,0.376,0.751,-611.939,1108.947,-511.231,0,0,0,
,-0.177,0.366,0.332,-341.797,893.066,-307.74,0,0,0,
,0.014,0.832,0.337,-158.326,527.221,39.245,0,0,0,
,0.199,1.172,0.715,59.265,45.227,245.849,0,0,0,
,0.129,0.753,1.071,336.486,-296.692,233.154,0,0,0,
,-0.009,0.295,1.175,482.055,-574.28,295.654,0,0,0,
,-0.105,0.267,1.25,480.59,-806.702,524.292,0,0,0,
,-0.223,0.162,1.08,677.124,-840.638,511.718,0,0,0,
,-0.264,-0.124,0.918,687.133,-782.41,437.744,0,0,0,
,-0.305,-0.172,0.911,423.706,-621.338,291.137,0,0,0,
,-0.304,-0.094,0.984,124.389,-328.064,93.444,0,0,0,
,-0.311,-0.038,1.113,-157.654,42.053,-75.623,0,0,0,
,-0.323,0.047,1.211,-478.211,479.858,-203.003,0,0,0,
,-0.298,0.252,1.29,-683.594,914.856,-261.475,0,0,0,
,-0.229,0.203,1.147,-755.616,1144.287,-207.886,0,0,0,
,-0.098,0.229,0.675,-744.263,1032.409,-190.857,0,0,0,
,0.014,0.546,0.413,-569.275,789.672,9.033,0,0,0,
,0.233,0.942,0.511,-288.636,397.277,219.421,0,0,0,
,0.246,0.923,0.838,-80.384,88.684,225.586,0,0,0,
,0.203,0.569,1.086,30.639,-210.45,217.041,0,0,0,
,0.006,0.455,1.25,-24.109,-440.186,349.243,0,0,0,
,-0.152,0.343,1.185,85.022,-526.551,423.034,0,0,0,
,-0.25,0.166,1.1,130.554,-531.25,449.096,0,0,0,
,-0.301,0.015,0.988,80.81,-470.887,425.537,0,0,0,
,-0.316,-0.094,0.874,-55.054,-335.572,308.776,0,0,0,
,-0.323,-0.099,0.848,-192.872,-110.23,142.639,0,0,0,
,-0.333,-0.1,0.845,-276.49,124.328,-12.94,0,0,0,
,-0.381,-0.085,0.86,-348.755,429.016,-154.297,0,0,0,
,-0.432,0.044,1.04,-420.716,757.019,-277.894,0,0,0,
,-0.427,0.278,1.195,-445.008,1120.605,-318.055,0,0,0,
,-0.33,0.566,1.062,-406.006,1194.275,-379.822,0,0,0,
,-0.251,0.298,0.644,-131.287,997.863,-432.373,0,0,0,
,-0.141,0.238,0.437,78.002,747.924,-323.06,0,0,0,
,0.108,0.63,0.557,94.97,405.639,-5.31,0,0,0,
,0.184,0.721,0.869,136.108,-140.198,61.645,0,0,0,
,-0.039,0.527,1.214,193.298,-473.145,99.914,0,0,0,
,-0.192,0.389,1.376,276.062,-738.282,230.896,0,0,0,
,-0.305,0.274,1.278,352.05,-907.288,327.148,0,0,0,
,-0.376,0.163,1.083,416.442,-973.999,365.417,0,0,0,
,-0.425,-0.011,0.85,448.669,-936.646,299.377,0,0,0,
,-0.448,-0.131,0.698,389.648,-814.82,163.452,0,0,0,
,-0.471,-0.109,0.69,240.722,-586.548,-43.396,0,0,0,
,-0.499,-0.074,0.817,93.933,-275.696,-273.987,0,0,0,
,-0.534,-0.014,0.999,-132.142,143.615,-451.355,0,0,0,
,-0.578,0.132,1.205,-391.297,601.562,-599.976,0,0,0,
,-0.504,0.437,1.223,-551.88,959.472,-654.236,0,0,0,
,-0.426,0.48,0.949,-539.551,1010.07,-680.054,0,0,0,
,-0.321,0.24,0.545,-348.328,764.526,-685.364,0,0,0,
,-0.125,0.465,0.414,-165.284,476.623,-396.729,0,0,0,
,0.136,1.019,0.699,-91.004,-36.744,-39.429,0,0,0,
,0.022,1.007,1.002,79.101,-412.842,-10.498,0,0,0,
,-0.212,0.642,1.185,322.692,-713.501,93.811,0,0,0,
,-0.257,0.492,1.236,434.814,-954.407,311.889,0,0,0,
,-0.354,0.305,1.094,616.699,-1059.693,392.395,0,0,0,
,-0.403,0.09,0.862,721.984,-1049.256,412.78,0,0,0,
,-0.407,-0.048,0.716,663.818,-915.223,314.819,0,0,0,
,-0.424,-0.128,0.682,455.261,-648.011,108.947,0,0,0,
,-0.434,-0.088,0.831,156.982,-265.564,-88.868,0,0,0,
,-0.431,0.045,1.049,-143.311,210.815,-272.217,0,0,0,
,-0.463,0.138,1.244,-438.477,693.786,-420.166,0,0,0,
,-0.38,0.263,1.156,-608.521,1078.857,-425.599,0,0,0,
,-0.273,0.407,0.759,-627.32,1058.471,-465.882,0,0,0,
,-0.197,0.392,0.433,-491.211,799.682,-472.718,0,0,0,
,0.117,0.553,0.537,-327.271,350.708,-259.034,0,0,0,
,0.225,0.627,0.987,-302.063,-84.351,-106.507,0,0,0,
,-0.041,0.717,1.299,-228.028,-396.485,66.406,0,0,0,
,-0.109,0.617,1.383,256.103,-630.982,172.912,0,0,0,
,-0.224,0.349,1.257,701.843,-749.756,303.527,0,0,0,
,-0.303,0.045,1.015,889.221,-805.603,303.955,0,0,0,
,-0.331,-0.202,0.828,759.582,-780.274,228.881,0,0,0,
,-0.361,-0.284,0.747,462.585,-655.091,56.152,0,0,0,
,-0.369,-0.215,0.817,197.815,-420.105,-136.597,0,0,0,
,-0.386,-0.105,0.863,-68.909,-54.871,-320.008,0,0,0,
,-0.467,-0.04,0.886,-317.872,364.807,-487.671,0,0,0,
,-0.441,0.132,1.052,-589.051,784.423,-615.296,0,0,0,
,-0.402,0.363,1.153,-762.818,1176.757,-630.677,0,0,0,
,-0.301,0.559,1.007,-827.576,1253.906,-654.969,0,0,0,
,-0.225,0.434,0.578,-650.025,1090.21,-656.25,0,0,0,
,-0.049,0.505,0.356,-355.225,842.346,-407.349,0,0,0,
,0.278,1.006,0.555,-184.388,337.646,-10.071,0,0,0,
,0.271,1.11,0.961,-122.681,-82.154,101.074,0,0,0,
,0.073,0.809,1.207,170.898,-368.164,160.095,0,0,0,
,0.002,0.658,1.339,337.097,-656.678,429.443,0,0,0,
,-0.115,0.491,1.187,576.049,-788.025,505.188,0,0,0,
,-0.183,0.181,0.903,792.358,-852.356,540.588,0,0,0,
,-0.246,-0.041,0.667,795.715,-841.187,484.13,0,0,0,
,-0.292,-0.177,0.548,639.404,-742.615,355.774,0,0,0,
,-0.309,-0.225,0.573,453.979,-528.931,146.301,0,0,0,
,-0.301,-0.099,0.804,242.309,-220.276,-44.007,0,0,0,
,-0.342,0,0.92,-20.325,217.59,-192.078,0,0,0,
,-0.408,0.026,0.953,-327.881,658.264,-322.449,0,0,0,
,-0.404,0.116,1.025,-616.639,1117.248,-391.48,0,0,0,
,-0.349,0.214,1.017,-804.81,1422.851,-381.165,0,0,0,
,-0.222,0.3,0.73,-867.188,1402.893,-383.24,0,0,0,
,-0.127,0.407,0.446,-708.68,1201.904,-321.778,0,0,0,
,0.122,0.781,0.418,-416.077,912.048,-21.241,0,0,0,
,0.387,1.073,0.657,-231.873,470.581,168.396,0,0,0,
,0.399,0.977,0.995,-93.323,56.518,219.97,0,0,0,
,0.171,0.781,1.221,163.635,-271.729,314.636,0,0,0,
,0.15,0.618,1.299,389.709,-589.905,513.733,0,0,0,
,-0.002,0.529,1.302,669.372,-757.813,634.277,0,0,0,
,-0.048,0.199,1.138,852.966,-860.291,681.152,0,0,0,
,-0.118,-0.054,0.94,807.922,-875.061,661.071,0,0,0,
,-0.228,-0.216,0.809,664.917,-749.817,539.245,0,0,0,
,-0.312,-0.264,0.828,426.33,-486.268,318.847,0,0,0,
,-0.33,-0.181,1.018,113.159,-164.734,103.088,0,0,0,
,-0.369,-0.113,1.194,-245.118,262.451,-106.385,0,0,0,
,-0.432,0,1.355,-696.656,670.349,-274.964,0,0,0,
,-0.359,0.317,1.308,-962.037,1032.898,-427.796,0,0,0,
,-0.249,0.262,0.941,-1002.442,1050.232,-490.54,0,0,0,
,-0.141,0.002,0.511,-890.076,756.225,-487.122,0,0,0,
,0.154,0.366,0.552,-762.085,297.912,-189.209,0,0,0,
,0.134,0.953,0.947,-619.141,-139.527,88.562,0,0,0,
,-0.03,1.08,1.14,-30.518,-426.331,165.588,0,0,0,
,-0.164,0.732,1.228,580.688,-633.24,278.076,0,0,0,
,-0.26,0.312,1.115,876.22,-788.514,392.028,0,0,0,
,-0.338,0.035,0.925,832.641,-834.9,417.419,0,0,0,
,-0.359,-0.085,0.805,622.375,-785.218,336.242,0,0,0,
,-0.371,-0.147,0.739,362.487,-609.131,160.949,0,0,0,
,-0.392,-0.154,0.769,84.167,-324.036,-31.189,0,0,0,
,-0.398,-0.102,0.852,-262.574,58.776,-216.919,0,0,0,
,-0.465,0.064,0.984,-553.406,459.9,-375.245,0,0,0,
,-0.464,0.22,1.123,-776.612,917.724,-514.527,0,0,0,
,-0.403,0.368,1.139,-839.966,1263.549,-553.589,0,0,0,
,-0.281,0.429,0.965,-772.156,1226.013,-596.68,0,0,0,
,-0.24,0.288,0.542,-537.354,1019.104,-647.644,0,0,0,
,-0.037,0.358,0.323,-267.151,763.733,-389.649,0,0,0,
,0.229,0.757,0.479,-245.85,264.587,-71.045,0,0,0,
,0.137,0.958,0.85,-230.652,-174.5,18.737,0,0,0,
,-0.099,0.824,1.065,70.129,-478.638,76.416,0,0,0,
,-0.208,0.66,1.205,346.252,-724.488,256.836,0,0,0,
,-0.353,0.439,1.065,589.355,-857.117,316.467,0,0,0,
,-0.456,0.157,0.948,719.543,-910.218,343.139,0,0,0,
,-0.476,-0.012,0.826,665.649,-891.907,330.017,0,0,0,
,-0.441,-0.104,0.776,295.044,-574.219,19.531,0,0,0,
,-0.434,-0.074,0.871,65.246,-276.612,-164.246,0,0,0,
,-0.457,0.02,0.947,-156.434,103.759,-336.914,0,0,0,
,-0.494,0.12,1.089,-405.579,495.971,-466.37,0,0,0,
,-0.435,0.331,1.133,-593.811,875.671,-540.955,0,0,0,
,-0.329,0.547,1.008,-654.969,999.267,-599.976,0,0,0,
,-0.249,0.44,0.658,-559.144,853.942,-626.343,0,0,0,
,-0.102,0.479,0.395,-360.169,619.812,-463.074,0,0,0,
,0.151,0.929,0.532,-225.098,207.397,-131.531,0,0,0,
,0.127,1.131,0.835,-43.396,-173.279,18.554,0,0,0,
,0.068,0.846,1.041,251.159,-503.357,106.384,0,0,0,
,-0.067,0.732,1.264,397.461,-791.626,326.233,0,0,0,
,-0.162,0.474,1.215,661.316,-928.956,414.367,0,0,0,
,-0.222,0.254,1.06,827.331,-975.281,479.614,0,0,0,
,-0.292,0.041,0.887,868.774,-876.893,423.034,0,0,0,
,-0.303,-0.069,0.812,768.554,-696.167,287.658,0,0,0,
,-0.328,-0.115,0.884,521.301,-319.336,61.035,0,0,0,
,-0.306,-0.091,0.925,222.839,58.898,-116.333,0,0,0,
,-0.202,0.235,0.814,-685.975,956.115,-507.752,0,0,0,
,-0.094,0.07,0.663,-824.707,867.37,-513.733,0,0,0,
,0.067,0.332,0.685,-903.87,628.234,-319.336,0,0,0,
,0.162,0.816,0.839,-836.67,257.08,-37.781,0,0,0,
,0.079,1.131,1.06,-493.714,-52.674,131.958,0,0,0,
,-0.086,0.447,0.999,1026.062,-620.057,544.738,0,0,0,
,-0.123,0.111,0.837,1117.859,-693.543,558.044,0,0,0,
,-0.223,-0.155,0.743,953.918,-658.265,461.303,0,0,0,
,-0.264,-0.23,0.805,649.292,-460.877,268.432,0,0,0,
,-0.27,-0.17,0.858,262.573,-104.248,57.251,0,0,0,
,-0.245,0.21,0.857,-784.302,1101.379,-422.547,0,0,0,
,-0.131,0.09,0.622,-868.287,1177.978,-449.952,0,0,0,
,-0.016,0.225,0.479,-853.516,1026.733,-350.403,0,0,0,
,0.169,0.662,0.626,-769.837,756.469,-115.967,0,0,0,
,0.246,1.046,0.885,-612.427,403.93,49.072,0,0,0,
,0.155,1.098,1.145,-295.227,121.826,120.361,0,0,0,
,0.039,0.896,1.338,107.605,-101.868,257.08,0,0,0,
,0.048,0.683,1.371,344.482,-341.187,474.182,0,0,0,
,-0.06,0.537,1.344,529.846,-541.932,593.811,0,0,0,
,-0.116,0.261,1.172,626.281,-712.098,642.517,0,0,0,
,-0.197,0.029,1.023,584.594,-812.195,618.774,0,0,0,
,-0.268,-0.129,0.817,489.929,-833.619,523.986,0,0,0,
,-0.37,-0.217,0.665,352.6,-752.015,354.065,0,0,0,
,-0.402,-0.199,0.656,174.377,-563.721,109.192,0,0,0,
,-0.456,-0.099,0.764,-22.767,-281.739,-152.71,0,0,0,
,-0.526,-0.042,0.938,-281.983,99.426,-373.169,0,0,0,
,-0.541,0.147,1.104,-579.773,510.681,-545.105,0,0,0,
,-0.42,0.312,1.041,-1037.964,1024.719,-578.919,0,0,0,
,-0.29,0.423,0.707,-963.013,917.907,-485.413,0,0,0,
,-0.131,0.818,0.551,-658.753,615.478,-257.203,0,0,0,
,0.021,1.236,0.644,-274.048,224.304,87.28,0,0,0,
,0.105,1.215,0.887,98.205,-170.777,227.844,0,0,0,
,-0.064,0.802,1.112,311.889,-467.53,339.172,0,0,0,
,-0.118,0.487,1.194,473.571,-756.104,528.076,0,0,0,
,-0.237,0.275,1.083,740.295,-908.081,644.897,0,0,0,
,-0.298,-0.067,0.823,888.855,-961.915,639.526,0,0,0,
,-0.367,-0.344,0.65,793.335,-900.696,466.003,0,0,0,
,-0.405,-0.391,0.632,499.878,-696.961,168.762,0,0,0,
,-0.474,-0.317,0.726,171.508,-334.351,-127.503,0,0,0,
,-0.511,-0.225,0.77,-206.299,145.202,-398.804,0,0,0,
,-0.557,-0.056,0.769,-592.713,591.919,-633.545,0,0,0,
,-0.48,0.247,0.795,-858.277,987.304,-771.363,0,0,0,
,-0.424,0.34,0.764,-1001.038,1149.414,-809.388,0,0,0,
,-0.296,0.328,0.557,-1000.245,1044.983,-822.876,0,0,0,
,-0.081,0.645,0.46,-858.155,745.849,-612.305,0,0,0,
,0.035,1.2,0.76,-639.771,374.939,-282.715,0,0,0,
,0.021,1.452,1.074,-239.441,-3.724,-34.119,0,0,0,
,-0.089,1.205,1.327,260.498,-264.771,209.777,0,0,0,
,-0.139,0.853,1.303,630.798,-451.477,476.989,0,0,0,
,-0.198,0.565,1.15,862.915,-635.987,650.146,0,0,0,
,-0.248,0.301,0.984,1046.936,-741.211,684.814,0,0,0,
,-0.296,-0.081,0.79,968.567,-782.105,577.209,0,0,0,
,-0.319,-0.306,0.686,636.413,-734.314,360.046,0,0,0,
,-0.386,-0.274,0.715,295.166,-537.537,76.294,0,0,0,
,-0.416,-0.185,0.83,55.725,-204.468,-220.643,0,0,0,
,-0.484,-0.102,0.889,-252.991,235.778,-458.985,0,0,0,
,-0.527,0.004,0.922,-512.269,680.175,-693.36,0,0,0,
,-0.491,0.26,0.944,-674.927,1020.324,-828.492,0,0,0,
,-0.417,0.473,0.914,-740.235,1159.484,-910.035,0,0,0,
,-0.312,0.326,0.714,-709.473,1079.162,-930.603,0,0,0,
,-0.041,0.377,0.548,-589.966,782.043,-714.295,0,0,0,
,0.118,1.036,0.731,-469.3,350.525,-322.693,0,0,0,
,0.094,1.428,1.069,-183.899,-65.552,-94.605,0,0,0,
,-0.042,1.168,1.244,301.33,-331.299,32.775,0,0,0,
,-0.022,0.755,1.244,521.911,-590.394,211.364,0,0,0,
,-0.109,0.54,1.172,550.476,-809.327,385.131,0,0,0,
,-0.156,0.286,0.977,604.187,-917.115,444.275,0,0,0,
,-0.177,0.097,0.809,557.006,-951.111,423.278,0,0,0,
,-0.213,-0.024,0.641,431.823,-895.874,293.396,0,0,0,
,-0.264,-0.135,0.536,274.414,-740.906,105.651,0,0,0,
,-0.285,-0.14,0.6,66.284,-474.793,-120.484,0,0,0,
,-0.329,0.024,0.758,-167.176,-125.672,-317.078,0,0,0,
,-0.392,0.168,0.811,-391.846,297.424,-512.024,0,0,0,
,-0.412,0.319,0.858,-594.422,674.438,-674.256,0,0,0,
,-0.358,0.503,0.916,-763.184,973.022,-747.498,0,0,0,
,-0.256,0.439,0.799,-839.783,1035.766,-755.249,0,0,0,
,-0.109,0.4,0.521,-772.889,865.966,-682.923,0,0,0,
,0.058,0.945,0.513,-581.91,521.911,-343.628,0,0,0,
,0.139,1.433,0.809,-264.954,128.479,-70.374,0,0,0,
,0.072,1.307,1.117,121.215,-180.603,76.721,0,0,0,
,-0.057,0.875,1.254,452.636,-394.043,272.094,0,0,0,
,-0.039,0.607,1.249,597.046,-630.86,510.925,0,0,0,
,-0.151,0.537,1.117,823.73,-756.104,636.535,0,0,0,
,-0.159,0.233,0.907,930.603,-810.425,624.939,0,0,0,
,-0.226,-0.04,0.712,724.975,-808.411,508.789,0,0,0,
,-0.314,-0.155,0.599,457.153,-704.59,305.053,0,0,0,
,-0.382,-0.152,0.599,196.289,-469.91,86.364,0,0,0,
,-0.424,-0.063,0.704,4.76,-119.446,-142.579,0,0,0,
,-0.45,0.033,0.749,-278.382,262.329,-311.402,0,0,0,
,-0.483,0.085,0.78,-568.36,682.617,-465.088,0,0,0,
,-0.418,0.288,0.793,-728.455,994.201,-532.349,0,0,0,
,-0.329,0.454,0.737,-797.059,1144.348,-567.81,0,0,0,
,-0.217,0.46,0.523,-724.488,1057.739,-579.712,0,0,0,
,-0.024,0.694,0.438,-547.73,822.937,-442.322,0,0,0,
,0.161,1.13,0.683,-367.554,453.125,-193.97,0,0,0,
,0.195,1.244,1.002,-137.696,94.36,-46.204,0,0,0,
,0.055,0.958,1.219,189.331,-182.007,97.534,0,0,0,
,0.097,0.745,1.253,359.13,-499.146,360.656,0,0,0,
,-0.075,0.746,1.204,647.094,-682.129,543.457,0,0,0,
,-0.103,0.383,1.017,897.522,-784.913,599.365,0,0,0,
,-0.145,0.163,0.843,868.347,-819.581,564.575,0,0,0,
,-0.197,-0.012,0.715,702.392,-725.159,393.127,0,0,0,
,-0.292,-0.074,0.704,503.784,-476.502,153.015,0,0,0,
,-0.364,-0.124,0.729,228.393,-85.511,-79.041,0,0,0,
,-0.425,-0.032,0.789,-137.452,320.984,-297.425,0,0,0,
,-0.428,0.137,0.863,-512.635,748.413,-483.033,0,0,0,
,-0.329,0.227,0.869,-754.395,1060.424,-586.426,0,0,0,
,-0.224,0.329,0.827,-910.096,1143.676,-607.972,0,0,0,
,-0.034,0.476,0.719,-868.775,983.337,-554.139,0,0,0,
,0.149,0.882,0.721,-691.773,639.343,-324.219,0,0,0,
,0.227,1.237,0.951,-362.366,219.116,-114.197,0,0,0,
,0.137,1.19,1.245,73.852,-98.511,50.293,0,0,0,
,0.125,0.868,1.233,491.699,-342.225,223.938,0,0,0,
,-0.026,0.818,1.313,732.727,-583.558,484.68,0,0,0,
,-0.082,0.459,1.088,998.779,-717.53,580.017,0,0,0,
,-0.111,0.195,0.907,1016.967,-803.65,604.309,0,0,0,
,-0.137,-0.035,0.683,910.095,-793.335,513.183,0,0,0,
,-0.181,-0.149,0.612,695.739,-665.65,346.313,0,0,0,
,-0.257,-0.084,0.681,450.988,-380.494,119.262,0,0,0,
,-0.313,-0.077,0.769,174.987,8.544,-86.976,0,0,0,
,-0.406,-0.016,0.813,-197.754,461.181,-267.518,0,0,0,
,-0.398,0.146,0.854,-514.832,856.262,-434.876,0,0,0,
,-0.335,0.22,0.817,-754.029,1142.7,-480.103,0,0,0,
,-0.221,0.332,0.752,-908.265,1186.584,-505.616,0,0,0,
,-0.081,0.384,0.701,-894.593,1037.292,-430.726,0,0,0,
,0.099,0.712,0.736,-779.786,698.12,-203.614,0,0,0,
,0.143,1.118,0.957,-504.456,326.477,5.127,0,0,0,
,0.071,1.156,1.225,-20.569,3.112,136.23,0,0,0,
,0.038,0.805,1.229,407.837,-217.774,259.521,0,0,0,
,-0.07,0.734,1.349,514.16,-522.217,488.586,0,0,0,
,-0.138,0.501,1.251,746.399,-706.421,576.416,0,0,0,
,-0.167,0.245,1.04,777.282,-832.459,627.685,0,0,0,
,-0.193,0.042,0.862,626.831,-897.95,588.989,0,0,0,
,-0.217,-0.077,0.705,438.659,-868.775,456.482,0,0,0,
,-0.281,-0.116,0.611,294.372,-705.445,279.602,0,0,0,
,-0.363,-0.098,0.639,159.79,-394.715,42.48,0,0,0,
,-0.43,-0.051,0.723,-72.51,-18.799,-177.369,0,0,0,
,-0.48,-0.018,0.776,-358.948,412.597,-385.315,0,0,0,
,-0.448,0.082,0.827,-660.157,793.579,-534.363,0,0,0,
,-0.362,0.165,0.798,-880.433,1050.903,-605.103,0,0,0,
,-0.255,0.251,0.685,-993.287,1074.401,-603.638,0,0,0,
,-0.065,0.409,0.57,-956.666,881.408,-500.672,0,0,0,
,0.097,0.851,0.658,-797.852,523.315,-251.77,0,0,0,
,0.112,1.244,0.934,-482.178,158.142,-49.256,0,0,0,
,0.034,1.187,1.237,-6.043,-147.217,108.764,0,0,0,
,-0.082,0.789,1.281,380.188,-351.014,277.404,0,0,0,
,-0.139,0.735,1.314,529.663,-617.615,557.19,0,0,0,
,-0.226,0.478,1.125,716.797,-775.696,628.112,0,0,0,
,-0.276,0.178,0.912,744.567,-883.301,620.666,0,0,0,
,-0.312,-0.032,0.749,626.892,-872.132,482.849,0,0,0,
,-0.346,-0.099,0.695,433.41,-712.586,268.005,0,0,0,
,-0.414,-0.138,0.721,200.927,-376.221,-14.893,0,0,0,
,-0.452,-0.156,0.753,-100.525,22.522,-280.701,0,0,0,
,-0.517,-0.057,0.799,-492.188,470.52,-507.325,0,0,0,
,-0.456,0.127,0.812,-765.259,856.933,-677.796,0,0,0,
,-0.366,0.227,0.75,-977.784,1017.028,-719.483,0,0,0,
,-0.228,0.421,0.592,-1069.947,927.795,-692.688,0,0,0,
,-0.093,0.747,0.567,-915.162,650.085,-555.359,0,0,0,
,-0.007,1.182,0.786,-579.163,265.991,-305.054,0,0,0,
,-0.045,1.259,1.135,-119.996,-41.321,-89.356,0,0,0,
,-0.107,1.054,1.272,257.69,-240.54,138.916,0,0,0,
,-0.132,0.805,1.264,507.08,-451.477,350.341,0,0,0,
,-0.18,0.73,1.205,738.159,-596.619,531.128,0,0,0,
,-0.206,0.401,0.996,858.398,-676.636,572.57,0,0,0,
,-0.209,0.171,0.737,720.459,-724.183,507.568,0,0,0,
,-0.282,0.017,0.572,558.471,-689.026,334.289,0,0,0,
,-0.322,-0.076,0.55,380.249,-515.137,95.459,0,0,0,
,-0.352,-0.128,0.568,134.826,-228.516,-148.56,0,0,0,
,-0.372,-0.122,0.637,-171.631,161.193,-381.47,0,0,0,
,-0.402,-0.031,0.696,-432.618,546.936,-571.351,0,0,0,
,-0.367,0.162,0.71,-616.456,901.733,-706.788,0,0,0,
,-0.248,0.39,0.728,-764.405,1074.463,-773.682,0,0,0,
,-0.108,0.491,0.747,-907.593,1046.264,-810.975,0,0,0,
,0.11,0.703,0.77,-915.589,804.077,-688.904,0,0,0,
,0.238,1.388,1.109,-374.268,92.285,-184.815,0,0,0,
,0.128,1.296,1.265,54.077,-157.105,63.537,0,0,0,
,0.154,1.017,1.247,444.58,-429.2,292.358,0,0,0,
,0.041,0.89,1.274,575.805,-681.519,573.669,0,0,0,
,-0.012,0.621,1.12,739.563,-814.331,660.461,0,0,0,
,-0.068,0.357,0.902,776.184,-896.729,665.344,0,0,0,
,-0.141,0.137,0.659,737.915,-883.667,539.734,0,0,0,
,-0.228,-0.057,0.553,599.67,-744.996,326.965,0,0,0,
,-0.265,-0.123,0.55,381.164,-493.592,80.749,0,0,0,
,-0.331,-0.114,0.601,66.528,-134.4,-158.814,0,0,0,
,-0.39,-0.067,0.664,-255.616,289.489,-399.842,0,0,0,
,-0.4,0.041,0.683,-533.143,651.184,-581.665,0,0,0,
,-0.342,0.168,0.673,-690.369,933.105,-682.251,0,0,0,
,-0.282,0.319,0.604,-799.317,1022.705,-748.352,0,0,0,
,-0.151,0.485,0.562,-800.904,953.674,-719.056,0,0,0,
,0.038,0.663,0.613,-705.811,730.529,-557.312,0,0,0,
,0.128,1.038,0.833,-580.811,444.336,-359.009,0,0,0,
,0.12,1.327,1.104,-343.14,142.151,-157.959,0,0,0,
,0.059,1.243,1.238,53.466,-78.37,20.385,0,0,0,
,0.013,0.999,1.14,345.703,-245.85,266.357,0,0,0,
,0.053,0.829,1.105,492.553,-494.507,473.877,0,0,0,
,-0.03,0.742,1.079,652.649,-649.414,599.975,0,0,0,
,-0.059,0.436,0.922,743.713,-734.314,609.802,0,0,0,
,-0.111,0.211,0.729,701.965,-755.738,536.071,0,0,0,
,-0.18,-0.006,0.582,567.627,-696.9,365.051,0,0,0,
,-0.252,-0.088,0.554,388.794,-550.293,174.255,0,0,0,
,-0.307,-0.071,0.632,230.346,-281.189,-37.964,0,0,0,
,-0.352,0.122,0.785,-290.162,883.361,-625.306,0,0,0,
,-0.302,0.3,0.822,-416.077,1160.217,-683.594,0,0,0,
,-0.161,0.478,0.74,-523.011,1243.408,-730.835,0,0,0,
,-0.012,0.429,0.536,-504.029,1143.982,-705.872,0,0,0,
,0.216,0.517,0.508,-442.505,867.981,-526.368,0,0,0,
,0.1,1.235,1.229,55.175,-91.187,33.386,0,0,0,
,0.22,0.954,1.199,388.977,-275.757,263.366,0,0,0,
,0.102,0.807,1.159,478.271,-445.435,425.659,0,0,0,
,0.076,0.637,1.088,575.561,-558.716,522.949,0,0,0,
,0.083,0.484,1.029,572.998,-625.977,571.655,0,0,0,
,0.069,0.367,0.982,472.9,-644.043,537.414,0,0,0,
,0.031,0.286,0.893,352.478,-614.685,484.008,0,0,0,
,-0.055,0.175,0.78,250.366,-537.415,397.461,0,0,0,
,-0.117,0.085,0.65,170.166,-437.684,311.95,0,0,0,
,-0.194,0.027,0.566,98.144,-281.189,196.716,0,0,0,
,-0.259,-0.004,0.522,14.038,-68.116,59.326,0,0,0,
,-0.293,0.026,0.617,-135.498,197.204,-96.375,0,0,0,
,-0.272,0.144,0.768,-327.332,542.053,-265.137,0,0,0,
,-0.26,0.241,0.973,-561.585,914.184,-419.861,0,0,0,
,-0.148,0.503,0.953,-724.183,1214.965,-512.085,0,0,0,
,-0.082,0.413,0.648,-760.315,1221.984,-535.34,0,0,0,
,0.062,0.381,0.424,-628.296,975.708,-478.089,0,0,0,
,0.264,0.932,0.656,-528.931,554.016,-151.49,0,0,0,
,0.265,1.193,1.013,-280.945,181.03,6.897,0,0,0,
,0.173,1.03,1.252,13.916,-160.157,206.787,0,0,0,
,0.082,0.917,1.32,257.995,-406.8,426.391,0,0,0,
,-0.023,0.652,1.166,486.023,-581.116,585.205,0,0,0,
,-0.099,0.384,0.981,626.77,-682.984,646.118,0,0,0,
,-0.16,0.202,0.893,619.079,-691.712,595.825,0,0,0,
,-0.221,0.052,0.868,459.167,-576.661,437.683,0,0,0,
,-0.313,0.006,0.864,195.007,-315.674,210.998,0,0,0,
,-0.373,0.026,0.913,-94.117,39.856,-46.998,0,0,0,
,-0.407,0.113,1.028,-405.03,385.62,-254.029,0,0,0,
,-0.381,0.366,1.072,-671.509,754.882,-460.572,0,0,0,
,-0.264,0.506,0.995,-759.156,954.101,-511.353,0,0,0,
,-0.113,0.395,0.641,-583.558,824.524,-470.276,0,0,0,
,0.092,0.577,0.444,-276.673,440.979,-257.813,0,0,0,
,0.231,1.21,0.817,-85.816,-77.637,64.575,0,0,0,
,0.104,1.225,1.115,187.317,-446.167,106.689,0,0,0,
,-0.041,0.871,1.397,372.314,-766.724,273.437,0,0,0,
,-0.18,0.598,1.377,437.744,-1016.419,524.902,0,0,0,
,-0.295,0.361,1.104,586.609,-1149.292,685.424,0,0,0,
,-0.311,0.239,0.863,770.63,-1163.392,672.851,0,0,0,
,-0.32,0.025,0.628,798.217,-1047.12,493.164,0,0,0,
,-0.328,-0.142,0.5,590.393,-784.363,258.606,0,0,0,
,-0.348,-0.17,0.439,294.433,-407.776,-12.879,0,0,0,
,-0.378,-0.088,0.452,-38.208,-4.883,-263.794,0,0,0,
,-0.416,0.023,0.514,-336.792,441.406,-511.414,0,0,0,
,-0.415,0.11,0.568,-623.78,839.904,-687.5,0,0,0,
,-0.353,0.245,0.618,-849.976,1124.328,-764.1,0,0,0,
,-0.226,0.479,0.583,-872.193,1182.251,-724.183,0,0,0,
,-0.076,0.763,0.572,-705.994,1006.103,-592.591,0,0,0,
,0.087,1.254,0.795,-467.041,649.597,-317.566,0,0,0,
,0.179,1.433,1.057,-153.077,291.626,-117.615,0,0,0,
,0.18,1.227,1.369,131.652,-71.9,74.218,0,0,0,
,0.077,0.923,1.494,336.67,-339.112,284.301,0,0,0,
,0.034,0.722,1.401,472.29,-611.39,523.437,0,0,0,
,-0.038,0.685,1.342,683.532,-828.309,729.675,0,0,0,
,-0.079,0.386,1.088,932.678,-985.047,743.591,0,0,0,
,-0.1,0.087,0.819,972.107,-1067.017,687.5,0,0,0,
,-0.14,-0.118,0.584,864.196,-1044.983,544.799,0,0,0,
,-0.21,-0.261,0.429,709.716,-864.319,306.335,0,0,0,
,-0.315,-0.29,0.466,534.912,-557.007,21.972,0,0,0,
,-0.392,-0.157,0.584,230.407,-128.907,-279.175,0,0,0,
,-0.467,-0.03,0.689,-160.218,312.194,-525.94,0,0,0,
,-0.517,0.165,0.823,-584.046,782.226,-756.897,0,0,0,
,-0.463,0.393,0.965,-932.679,1213.562,-911.622,0,0,0,
,-0.362,0.54,0.911,-1074.463,1398.254,-912.354,0,0,0,
,-0.182,0.499,0.577,-908.265,1224.487,-859.375,0,0,0,
,0.101,0.725,0.515,-635.315,836.975,-610.657,0,0,0,
,0.281,1.346,0.821,-450.745,357.055,-201.844,0,0,0,
,0.231,1.426,1.228,-159.302,-17.823,-17.151,0,0,0,
,0.056,1.128,1.471,216.735,-328.614,207.336,0,0,0,
,0.016,0.679,1.322,487.487,-534.424,459.35,0,0,0,
,-0.024,0.549,1.229,602.417,-773.438,711.975,0,0,0,
,-0.118,0.41,1.026,865.356,-894.288,751.892,0,0,0,
,-0.121,0.01,0.751,913.33,-919.068,671.875,0,0,0,
,-0.184,-0.209,0.599,676.574,-856.568,515.014,0,0,0,
,-0.266,-0.256,0.523,405.517,-648.682,286.926,0,0,0,
,-0.355,-0.197,0.576,130.737,-332.52,27.221,0,0,0,
,-0.404,-0.049,0.697,-203.003,94.726,-233.948,0,0,0,
,-0.461,0.036,0.752,-535.584,509.765,-442.627,0,0,0,
,-0.407,0.318,0.825,-807.801,941.284,-654.236,0,0,0,
,-0.333,0.489,0.814,-906.556,1180.603,-727.234,0,0,0,
,-0.207,0.399,0.634,-896.363,1131.469,-749.756,0,0,0,
,0,0.369,0.477,-780.64,866.455,-654.419,0,0,0,
,0.202,0.981,0.702,-669.434,464.416,-318.238,0,0,0,
,0.119,1.493,1.104,-371.033,90.21,-61.463,0,0,0,
,0.021,1.371,1.353,111.999,-180.42,140.686,0,0,0,
,-0.063,0.997,1.338,515.686,-370.24,408.813,0,0,0,
,-0.072,0.645,1.23,758.484,-625.794,626.526,0,0,0,
,-0.141,0.571,1.061,1027.526,-753.968,798.156,0,0,0,
,-0.169,0.21,0.796,1271.911,-835.022,764.221,0,0,0,
,-0.198,-0.001,0.569,1445.617,-837.708,644.47,0,0,0,
,-0.233,-0.155,0.509,1557.678,-685.12,461.547,0,0,0,
,-0.253,-0.337,0.516,1394.531,-409.668,229.553,0,0,0,
,-0.306,-0.363,0.631,887.39,-2.869,5.859,0,0,0,
,-0.349,-0.33,0.716,177.551,404.419,-186.219,0,0,0,
,-0.415,-0.229,0.819,-423.829,767.761,-362.854,0,0,0,
,-0.37,-0.012,0.883,-847.962,1093.994,-530.701,0,0,0,
,-0.301,0.026,0.847,-1172.608,1226.44,-608.46,0,0,0,
,-0.153,0.053,0.593,-1357.789,1109.985,-625.428,0,0,0,
,0.003,0.414,0.558,-1282.471,785.705,-483.887,0,0,0,
,0.093,1.052,0.85,-1065.308,366.943,-254.456,0,0,0,
,0.064,1.365,1.228,-565.064,41.992,-101.441,0,0,0,
,-0.026,1.137,1.368,16.113,-153.321,28.686,0,0,0,
,-0.085,0.878,1.367,520.019,-345.765,234.558,0,0,0,
,-0.135,0.638,1.33,889.099,-530.884,433.41,0,0,0,
,-0.169,0.456,1.187,1182.006,-660.096,543.029,0,0,0,
,-0.194,0.199,1.003,1291.809,-724.854,563.171,0,0,0,
,-0.218,-0.027,0.835,1197.448,-725.464,509.094,0,0,0,
,-0.26,-0.244,0.688,912.536,-619.629,387.329,0,0,0,
,-0.332,-0.376,0.642,551.208,-404.908,184.082,0,0,0,
,-0.332,-0.376,0.783,49.316,-73.731,-38.269,0,0,0,
,-0.365,-0.286,0.927,-435.181,293.457,-265.564,0,0,0,
,-0.41,-0.152,0.995,-925.721,704.589,-486.878,0,0,0,
,-0.335,0.186,1.04,-1258.667,1080.81,-714.783,0,0,0,
,-0.208,0.197,0.913,-1428.04,1187.988,-802.002,0,0,0,
,-0.063,-0.014,0.606,-1372.742,990.539,-827.271,0,0,0,
,0.15,0.386,0.56,-1143.86,637.756,-604.432,0,0,0,
,0.225,1.126,0.844,-760.865,179.504,-263.794,0,0,0,
,0.094,1.447,1.125,-173.645,-108.887,-114.624,0,0,0,
,0.004,1.2,1.249,406.86,-361.39,24.292,0,0,0,
,-0.084,0.819,1.327,720.581,-628.907,250.854,0,0,0,
,-0.13,0.509,1.156,732.483,-826.905,443.847,0,0,0,
,-0.18,0.306,0.996,630.92,-973.206,570.007,0,0,0,
,-0.167,0.135,0.804,573.974,-1010.437,613.037,0,0,0,
,-0.193,-0.09,0.607,502.563,-920.899,508.117,0,0,0,
,-0.222,-0.324,0.524,341.919,-679.017,291.442,0,0,0,
,-0.266,-0.333,0.653,8.972,-321.473,24.353,0,0,0,
,-0.312,-0.143,0.799,-361.145,139.892,-260.437,0,0,0,
,-0.375,-0.039,0.815,-671.265,581.665,-540.467,0,0,0,
,-0.34,0.205,0.891,-909.668,1023.254,-799.927,0,0,0,
,-0.19,0.33,0.882,-1045.411,1249.572,-923.523,0,0,0,
,-0.101,0.053,0.538,-992.737,1117.859,-910.889,0,0,0,
,0.095,0.232,0.468,-764.039,811.401,-761.963,0,0,0,
,0.239,1.141,0.803,-555.054,412.78,-335.328,0,0,0,
,0.182,1.578,1.138,-164.978,63.476,-123.841,0,0,0,
,0.04,1.338,1.261,406.677,-144.837,0.61,0,0,0,
,0.005,1.001,1.295,731.506,-401.795,260.681,0,0,0,
,-0.084,0.729,1.242,811.157,-615.784,460.205,0,0,0,
,-0.156,0.541,1.119,876.892,-761.658,585.083,0,0,0,
,-0.186,0.355,0.963,919.433,-871.155,656.555,0,0,0,
,-0.19,0.112,0.807,862.06,-900.086,613.22,0,0,0,
,-0.138,-0.137,0.692,636.718,-845.704,494.812,0,0,0,
,-0.177,-0.287,0.625,388.977,-666.871,262.939,0,0,0,
,-0.269,-0.301,0.702,108.032,-345.826,-11.536,0,0,0,
,-0.31,-0.194,0.812,-202.942,39.794,-294.312,0,0,0,
,-0.386,-0.117,0.813,-537.903,416.442,-526.49,0,0,0,
,-0.388,0.111,0.897,-815.064,820.312,-771.18,0,0,0,
,-0.294,0.328,0.959,-1006.836,1131.897,-898.011,0,0,0,
,-0.177,0.223,0.704,-1046.265,1167.846,-837.342,0,0,0,
,0.024,0.263,0.412,-906.311,932.922,-743.775,0,0,0,
,0.149,0.966,0.462,-615.967,584.9,-418.885,0,0,0,
,0.177,1.669,0.813,-260.315,189.758,-121.827,0,0,0,
,0.082,1.429,1.071,350.586,-9.644,-30.884,0,0,0,
,0.03,0.895,1.19,549.743,-251.587,164.367,0,0,0,
,0.034,0.607,1.253,415.954,-514.283,395.08,0,0,0,
,-0.065,0.528,1.201,296.447,-680.237,570.251,0,0,0,
,-0.094,0.399,1.067,355.285,-751.404,648.925,0,0,0,
,-0.104,0.18,0.925,390.991,-729.859,602.417,0,0,0,
,-0.112,-0.01,0.817,289.062,-622.071,456.543,0,0,0,
,-0.168,-0.094,0.776,171.081,-419.8,231.506,0,0,0,
,-0.221,-0.145,0.766,4.15,-129.7,-7.325,0,0,0,
,-0.262,-0.059,0.812,-240.052,190.612,-252.625,0,0,0,
,-0.323,0.067,0.859,-532.227,526.977,-465.638,0,0,0,
,-0.32,0.25,0.961,-758.912,883.606,-639.649,0,0,0,
,-0.271,0.502,1.002,-877.32,1131.897,-700.44,0,0,0,
,-0.158,0.552,0.814,-816.59,1132.019,-719.971,0,0,0,
,-0.033,0.296,0.397,-564.454,968.017,-721.131,0,0,0,
,0.238,0.696,0.387,-351.685,643.493,-342.225,0,0,0,
,0.339,1.367,0.659,-106.141,216.735,37.414,0,0,0,
,0.159,1.382,1.001,314.697,-33.081,124.878,0,0,0,
,0.102,0.979,1.238,675.781,-318.604,328.186,0,0,0,
,0.073,0.681,1.298,744.445,-565.369,544.616,0,0,0,
,-0.002,0.471,1.141,806.091,-750.55,671.203,0,0,0,
,-0.066,0.264,0.906,929.931,-850.342,704.345,0,0,0,
,-0.104,0.056,0.738,970.153,-876.954,634.094,0,0,0,
,-0.157,-0.183,0.647,859.802,-798.645,480.224,0,0,0,
,-0.227,-0.346,0.654,525.268,-618.47,277.71,0,0,0,
,-0.306,-0.279,0.765,157.47,-314.393,50.231,0,0,0,
,-0.376,-0.05,0.938,-115.54,94.665,-184.388,0,0,0,
,-0.414,0.05,0.971,-360.047,502.868,-378.052,0,0,0,
,-0.378,0.161,0.941,-544.068,853.576,-535.218,0,0,0,
,-0.334,0.22,0.849,-683.838,1027.954,-583.68,0,0,0,
,-0.168,0.169,0.725,-730.286,1010.742,-566.529,0,0,0,
,-0.068,0.428,0.531,-600.098,836.181,-411.438,0,0,0,
,0.098,0.82,0.862,-442.078,536.682,-246.705,0,0,0,
,0.122,1.172,1.174,-424.561,217.407,-55.298,0,0,0,
,0.025,1.204,1.376,-17.762,-35.584,5.554,0,0,0,
,0.014,0.903,1.379,406.677,-239.38,201.66,0,0,0,
,-0.005,0.69,1.343,528.442,-506.836,383.728,0,0,0,
,-0.041,0.605,1.23,616.027,-704.468,541.076,0,0,0,
,-0.047,0.348,1.113,652.16,-814.637,568.298,0,0,0,
,-0.072,0.137,0.952,510.498,-891.541,515.197,0,0,0,
,-0.096,0,0.84,409.79,-879.151,416.687,0,0,0,
,-0.163,-0.115,0.698,315.612,-778.199,273.925,0,0,0,
,-0.237,-0.215,0.569,173.401,-602.417,125.915,0,0,0,
,-0.302,-0.226,0.511,26.672,-384.461,-26.429,0,0,0,
,-0.316,-0.128,0.516,-123.902,-110.901,-192.322,0,0,0,
,-0.344,-0.012,0.518,-231.751,171.142,-357.85,0,0,0,
,-0.359,0.054,0.521,-276.673,463.684,-497.132,0,0,0,
,-0.324,0.157,0.585,-310.242,741.943,-614.685,0,0,0,
,-0.287,0.331,0.694,-340.455,973.877,-676.026,0,0,0,
,-0.21,0.476,0.839,-374.634,1161.316,-690.43,0,0,0,
,-0.098,0.508,0.862,-381.348,1175.476,-634.522,0,0,0,
,0.015,0.608,0.895,-349.732,1007.385,-517.518,0,0,0,
,0.147,0.789,1.081,-320.313,693.786,-311.036,0,0,0,
,0.246,0.948,1.336,-304.078,355.651,-112.854,0,0,0,
,0.24,0.986,1.447,-166.871,25.085,68.298,0,0,0,
,0.254,0.863,1.452,80.078,-303.589,234.069,0,0,0,
,0.151,0.771,1.423,257.629,-603.699,426.513,0,0,0,
,0.07,0.541,1.283,490.966,-793.519,493.835,0,0,0,
,-0.033,0.317,1.111,621.643,-920.472,479.126,0,0,0,
,-0.127,0.159,0.938,624.817,-953.736,410.888,0,0,0,
,-0.212,0.005,0.719,581.115,-934.632,298.034,0,0,0,
,-0.297,-0.162,0.53,483.154,-813.721,155.395,0,0,0,
,-0.341,-0.234,0.579,328.613,-589.661,4.699,0,0,0,
,-0.372,-0.156,0.635,203.125,-230.896,-147.217,0,0,0,
,-0.406,-0.095,0.667,12.329,223.938,-307.74,0,0,0,
,-0.377,0.046,0.678,-272.583,669.555,-460.45,0,0,0,
,-0.315,0.281,0.668,-476.868,1061.462,-565.918,0,0,0,
,-0.225,0.31,0.65,-610.718,1212.951,-604.493,0,0,0,
,-0.085,0.296,0.675,-713.501,1154.297,-615.357,0,0,0,
,0.136,0.583,0.859,-777.344,887.451,-424.805,0,0,0,
,0.235,0.984,1.14,-732.239,487.365,-219.544,0,0,0,
,0.232,1.2,1.425,-449.83,102.356,-60.486,0,0,0,
,0.142,1.114,1.535,-65.125,-181.336,106.567,0,0,0,
,0.124,0.768,1.344,300.293,-441.651,288.391,0,0,0,
,0.085,0.671,1.327,351.013,-732.544,524.17,0,0,0,
,-0.018,0.486,1.139,522.338,-924.195,563.415,0,0,0,
,-0.094,0.179,0.889,660.583,-1002.442,512.329,0,0,0,
,-0.15,-0.027,0.687,580.322,-1010.987,411.499,0,0,0,
,-0.255,-0.187,0.525,430.236,-890.625,260.07,0,0,0,
,-0.313,-0.257,0.523,294.067,-639.344,97.106,0,0,0,
,-0.36,-0.199,0.581,82.702,-244.996,-109.986,0,0,0,
,-0.391,-0.115,0.582,-188.965,199.89,-298.035,0,0,0,
,-0.365,0.03,0.575,-434.327,663.391,-495.118,0,0,0,
,-0.276,0.215,0.56,-597.229,1021.301,-610.169,0,0,0,
,-0.125,0.271,0.574,-710.938,1172.363,-648.011,0,0,0,
,0.051,0.425,0.638,-748.719,1108.642,-582.093,0,0,0,
,0.223,0.769,0.815,-731.995,849.121,-390.137,0,0,0,
,0.295,1.172,1.029,-605.469,524.475,-208.985,0,0,0,
,0.282,1.365,1.292,-324.463,217.529,-54.627,0,0,0,
,0.219,1.198,1.422,30.7,-53.406,118.042,0,0,0,
,0.126,0.885,1.339,212.524,-240.174,336.792,0,0,0,
,0.166,0.745,1.242,314.758,-486.817,520.141,0,0,0,
,0.031,0.685,1.136,397.522,-628.54,678.344,0,0,0,
,-0.009,0.377,0.941,473.877,-691.895,640.564,0,0,0,
,-0.047,0.128,0.762,369.262,-685.73,573.12,0,0,0,
,-0.141,-0.05,0.594,226.562,-606.812,432.19,0,0,0,
,-0.235,-0.16,0.474,72.204,-426.697,276.428,0,0,0,
,-0.299,-0.178,0.52,-67.505,-155.762,65.246,0,0,0,
,-0.336,-0.083,0.692,-322.388,184.814,-152.894,0,0,0,
,-0.389,0.003,0.809,-574.341,605.774,-386.902,0,0,0,
,-0.329,0.206,0.907,-755.738,1000.61,-577.576,0,0,0,
,-0.242,0.325,0.87,-851.014,1244.934,-632.386,0,0,0,
,-0.078,0.381,0.634,-859.009,1186.401,-634.644,0,0,0,
,0.094,0.646,0.551,-769.288,887.756,-503.235,0,0,0,
,0.246,1.246,0.806,-589.417,442.993,-221.497,0,0,0,
,0.232,1.512,1.211,-247.681,86.486,-20.386,0,0,0,
,0.058,1.203,1.278,174.255,-161.438,178.894,0,0,0,
,0.112,0.856,1.306,402.588,-505.433,451.416,0,0,0,
,-0.073,0.708,1.191,551.452,-710.389,663.33,0,0,0,
,-0.143,0.442,0.99,707.702,-837.647,739.624,0,0,0,
,-0.186,0.174,0.762,761.474,-868.226,705.444,0,0,0,
,-0.206,-0.057,0.641,623.047,-783.081,559.387,0,0,0,
,-0.264,-0.126,0.635,390.869,-560.242,329.04,0,0,0,
,-0.341,-0.109,0.65,127.807,-206.788,74.585,0,0,0,
,-0.388,-0.056,0.686,-144.41,176.818,-177.247,0,0,0,
,-0.417,0.049,0.748,-460.633,539.489,-362.305,0,0,0,
,-0.361,0.249,0.739,-658.143,830.871,-487.854,0,0,0,
,-0.263,0.411,0.679,-699.097,922.79,-519.288,0,0,0,
,-0.1,0.688,0.682,-616.394,791.992,-440.857,0,0,0,
,0.031,0.97,0.754,-395.447,516.967,-241.639,0,0,0,
,0.109,1.192,0.944,-101.868,184.387,-49.561,0,0,0,
,0.085,1.162,1.146,159.423,-108.277,100.158,0,0,0,
,-0.018,0.908,1.163,365.6,-296.814,253.662,0,0,0,
,-0.03,0.636,1.176,426.086,-585.877,435.302,0,0,0,
,-0.181,0.527,1.015,516.723,-736.817,591.919,0,0,0,
,-0.201,0.289,0.826,622.985,-812.561,604.126,0,0,0,
,-0.23,0.027,0.625,627.319,-800.538,501.464,0,0,0,
,-0.247,-0.138,0.546,536.682,-661.316,340.21,0,0,0,
,-0.292,-0.218,0.603,368.408,-363.77,66.162,0,0,0,
,-0.325,-0.13,0.706,98.755,16.54,-204.407,0,0,0,
,-0.412,0.007,0.822,-209.046,469.726,-488.526,0,0,0,
,-0.443,0.28,0.939,-479.187,927.124,-728.15,0,0,0,
,-0.342,0.518,0.885,-642.395,1229.797,-812.867,0,0,0,
,-0.255,0.339,0.607,-521.668,1210.022,-768.982,0,0,0,
,-0.137,0.199,0.466,-243.47,1008.789,-748.963,0,0,0,
,0.148,0.695,0.601,-236.756,677.917,-374.512,0,0,0,
,0.252,1.188,0.977,-305.542,258.85,-135.56,0,0,0,
,0.13,1.267,1.316,-77.576,-82.52,-75.989,0,0,0,
,0.023,0.98,1.449,205.444,-290.223,102.966,0,0,0,
,0.049,0.685,1.367,346.13,-526.917,268.493,0,0,0,
,-0.057,0.638,1.304,348.022,-718.262,501.342,0,0,0,
,-0.097,0.463,1.103,513.916,-821.473,535.827,0,0,0,
,-0.103,0.25,0.954,579.589,-879.944,500.671,0,0,0,
,-0.136,0.081,0.8,542.297,-852.906,377.136,0,0,0,
,-0.165,-0.04,0.636,435.058,-755.249,239.807,0,0,0,
,-0.232,-0.121,0.511,333.923,-571.9,61.828,0,0,0,
,-0.265,-0.138,0.513,159.179,-333.802,-123.536,0,0,0,
,-0.31,-0.035,0.623,-96.985,8.178,-334.412,0,0,0,
,-0.348,0.074,0.753,-329.285,344.848,-513.733,0,0,0,
,-0.343,0.278,0.914,-606.263,749.633,-667.969,0,0,0,
,-0.266,0.586,1.014,-822.632,1060.791,-723.206,0,0,0,
,-0.163,0.544,0.822,-852.845,1116.882,-700.196,0,0,0,
,-0.009,0.51,0.523,-682.373,885.254,-625.306,0,0,0,
,0.191,0.976,0.648,-464.112,537.902,-317.81,0,0,0,
,0.273,1.51,1.103,-255.372,129.394,-22.461,0,0,0,
,0.159,1.256,1.375,77.758,-126.404,91.491,0,0,0,
,0.154,0.766,1.337,312.927,-387.696,254.394,0,0,0,
,0.052,0.608,1.299,183.105,-640.809,532.959,0,0,0,
,-0.087,0.51,1.088,327.819,-773.499,613.098,0,0,0,
,-0.102,0.225,0.842,488.586,-827.637,588.989,0,0,0,
,-0.153,-0.01,0.673,503.784,-785.706,447.692,0,0,0,
,-0.198,-0.159,0.62,359.802,-633.24,262.329,0,0,0,
,-0.261,-0.172,0.6,159.24,-386.353,9.277,0,0,0,
,-0.308,-0.072,0.639,-76.294,-43.091,-237.854,0,0,0,
,-0.361,0.059,0.72,-314.27,333.923,-483.582,0,0,0,
,-0.329,0.26,0.831,-553.65,675.293,-676.697,0,0,0,
,-0.267,0.443,0.854,-707.398,947.082,-756.714,0,0,0,
,-0.168,0.474,0.725,-707.642,959.655,-750,0,0,0,
,0.015,0.604,0.561,-584.473,730.041,-585.45,0,0,0,
,0.185,1.109,0.705,-379.212,362.487,-292.664,0,0,0,
,0.162,1.538,1.064,-94.483,49.011,-54.81,0,0,0,
,0.049,1.272,1.314,297.912,-187.195,99.243,0,0,0,
,0.064,0.822,1.273,454.284,-408.631,296.203,0,0,0,
,-0.015,0.67,1.237,385.254,-638.977,559.326,0,0,0,
,-0.107,0.531,1.026,528.076,-762.879,652.771,0,0,0,
,-0.114,0.279,0.847,642.395,-809.51,637.085,0,0,0,
,-0.151,0.032,0.67,600.891,-770.569,522.094,0,0,0,
,-0.183,-0.158,0.535,473.083,-630.799,350.647,0,0,0,
,-0.261,-0.167,0.545,251.953,-370.362,100.891,0,0,0,
,-0.349,0.168,0.789,-495.179,717.224,-590.76,0,0,0,
,-0.292,0.306,0.793,-668.457,961.12,-680.237,0,0,0,
,-0.176,0.412,0.664,-730.713,1001.892,-677.185,0,0,0,
,-0.037,0.592,0.59,-625.733,837.463,-579.285,0,0,0,
,0.121,1.047,0.71,-425.415,526.977,-331.788,0,0,0,
,0.017,0.924,1.307,403.015,-265.442,224.426,0,0,0,
,0.013,0.741,1.292,416.137,-534.729,442.627,0,0,0,
,-0.1,0.668,1.165,492.981,-709.473,632.446,0,0,0,
,-0.121,0.391,0.97,648.193,-797.852,664.306,0,0,0,
,-0.118,0.178,0.813,660.034,-821.961,617.004,0,0,0,
,-0.182,-0.028,0.668,561.584,-747.254,490.661,0,0,0,
,-0.221,-0.179,0.548,417.053,-555.848,316.711,0,0,0,
,-0.295,-0.171,0.56,231.201,-266.663,85.388,0,0,0,
,-0.341,-0.062,0.653,-20.081,58.349,-145.081,0,0,0,
,-0.387,0.015,0.687,-298.89,451.172,-401.795,0,0,0,
,-0.383,0.166,0.788,-482.361,767.944,-589.112,0,0,0,
,-0.282,0.336,0.814,-625.794,1033.447,-699.952,0,0,0,
,-0.206,0.291,0.706,-668.641,1101.257,-724.793,0,0,0,
,-0.086,0.354,0.611,-613.526,965.759,-661.438,0,0,0,
,0.085,0.76,0.674,-489.685,684.57,-430.054,0,0,0,
,0.15,1.173,0.889,-336.731,362.365,-214.478,0,0,0,
,0.115,1.248,1.153,-21.241,60.73,-78.919,0,0,0,
,0.036,1.041,1.274,222.534,-168.396,128.601,0,0,0,
,0.025,0.799,1.308,348.327,-454.224,336.059,0,0,0,
,-0.075,0.693,1.27,391.296,-671.448,552.856,0,0,0,
,-0.096,0.493,1.069,554.077,-811.463,662.048,0,0,0,
,-0.098,0.253,0.912,635.559,-895.874,689.819,0,0,0,
,-0.131,0.078,0.752,626.281,-896.546,612.609,0,0,0,
,-0.21,-0.119,0.63,533.874,-780.518,496.338,0,0,0,
,-0.298,-0.239,0.583,354.797,-546.753,290.527,0,0,0,
,-0.359,-0.129,0.609,93.444,-230.774,49.682,0,0,0,
,-0.409,-0.05,0.566,-167.176,135.925,-210.328,0,0,0,
,-0.409,-0.06,0.463,-326.661,442.443,-423.34,0,0,0,
,-0.368,0.1,0.521,-411.194,726.928,-619.69,0,0,0,
,-0.317,0.309,0.716,-478.516,936.34,-769.654,0,0,0,
,-0.204,0.386,0.864,-535.401,1038.635,-826.477,0,0,0,
,-0.097,0.574,0.988,-524.109,970.031,-773.804,0,0,0,
,0.002,0.941,1.138,-448.914,746.032,-622.742,0,0,0,
,0.039,1.179,1.315,-246.644,430.053,-393.372,0,0,0,
,0.067,1.205,1.43,-20.874,111.206,-130.555,0,0,0,
,0.048,1.107,1.489,162.719,-234.436,130.31,0,0,0,
,0.026,0.933,1.464,312.988,-556.885,406.738,0,0,0,
,-0.018,0.697,1.292,440.124,-786.988,589.355,0,0,0,
,-0.037,0.451,1.073,549.621,-947.388,675.842,0,0,0,
,-0.042,0.229,0.818,615.539,-1007.752,650.817,0,0,0,
,-0.091,-0.021,0.641,560.18,-942.627,519.592,0,0,0,
,-0.169,-0.175,0.509,405.029,-767.762,320.8,0,0,0,
,-0.269,-0.226,0.448,194.397,-461.792,94.177,0,0,0,
,-0.333,-0.206,0.424,-19.288,-106.751,-149.476,0,0,0,
,-0.373,-0.109,0.432,-213.196,250.61,-355.774,0,0,0,
,-0.36,-0.014,0.449,-331.116,586.181,-539.063,0,0,0,
,-0.31,0.052,0.528,-420.411,828.064,-661.744,0,0,0,
,-0.215,0.21,0.606,-478.394,968.322,-708.191,0,0,0,
,-0.118,0.374,0.723,-446.473,956.665,-652.405,0,0,0,
,-0.046,0.614,0.867,-356.995,788.025,-549.866,0,0,0,
,-0.001,0.869,1.125,-239.197,539.489,-398.011,0,0,0,
,0.034,1.045,1.343,-150.269,263,-233.46,0,0,0,
,0.029,1.045,1.491,-6.897,-41.077,-42.42,0,0,0,
,-0.008,0.935,1.41,182.006,-272.644,179.077,0,0,0,
,-0.01,0.804,1.387,342.529,-578.064,374.878,0,0,0,
,-0.066,0.69,1.306,515.136,-776.246,523.864,0,0,0,
,-0.083,0.443,1.098,647.827,-890.32,580.2,0,0,0,
,-0.112,0.232,0.936,612.487,-926.514,555.969,0,0,0,
,-0.162,0.059,0.706,530.578,-872.681,470.459,0,0,0,
,-0.226,-0.084,0.56,391.723,-696.656,296.386,0,0,0,
,-0.283,-0.132,0.505,194.397,-426.575,73.669,0,0,0,
,-0.336,-0.081,0.509,-53.04,-64.331,-139.649,0,0,0,
,-0.4,0.019,0.58,-260.376,333.923,-359.62,0,0,0,
,-0.385,0.206,0.703,-446.839,693.847,-551.575,0,0,0,
,-0.291,0.239,0.763,-629.639,993.408,-688.66,0,0,0,
,-0.182,0.222,0.749,-706.604,1095.886,-696.656,0,0,0,
,-0.053,0.514,0.842,-655.64,960.083,-567.505,0,0,0,
,0.043,0.9,0.974,-529.48,637.756,-333.313,0,0,0,
,0.062,1.082,1.18,-300.538,285.644,-133.606,0,0,0,
,0.031,1.085,1.382,-74.646,-57.862,73.059,0,0,0,
,-0.046,0.863,1.336,143.921,-306.885,271.545,0,0,0,
,-0.061,0.696,1.311,276.306,-615.845,498.718,0,0,0,
,-0.088,0.529,1.155,424.804,-807.007,654.602,0,0,0,
,-0.094,0.247,0.891,544.677,-923.584,679.992,0,0,0,
,-0.131,0.022,0.641,551.88,-922.547,611.328,0,0,0,
,-0.192,-0.116,0.517,415.771,-786.56,443.664,0,0,0,
,-0.264,-0.216,0.444,190.063,-509.461,193.115,0,0,0,
,-0.327,-0.231,0.439,-56.336,-173.951,-66.224,0,0,0,
,-0.368,-0.109,0.487,-319.275,229.797,-303.833,0,0,0,
,-0.437,0.011,0.525,-489.38,610.229,-552.735,0,0,0,
,-0.397,0.116,0.63,-635.193,1020.202,-759.095,0,0,0,
,-0.299,0.304,0.769,-748.475,1353.637,-883.545,0,0,0,
,-0.128,0.41,0.755,-775.33,1444.397,-862.488,0,0,0,
,0.03,0.407,0.621,-667.237,1281.616,-781.189,0,0,0,
,0.247,0.707,0.702,-517.701,931.091,-544.617,0,0,0,
,0.343,1.336,1.061,-439.393,497.192,-261.78,0,0,0,
,0.28,1.631,1.443,-227.539,103.82,-32.654,0,0,0,
,0.126,1.344,1.553,229.431,-161.744,183.349,0,0,0,
,0.15,0.913,1.343,472.412,-424.378,486.511,0,0,0,
,0.037,0.802,1.3,453.796,-712.891,752.136,0,0,0,
,-0.038,0.706,1.175,629.699,-890.809,909.484,0,0,0,
,0,0.352,0.907,758.789,-988.892,934.265,0,0,0,
,-0.015,0.051,0.666,691.772,-1015.015,861.938,0,0,0,
,-0.12,-0.178,0.473,505.554,-914.612,699.096,0,0,0,
,-0.253,-0.293,0.37,299.499,-701.111,481.994,0,0,0,
,-0.359,-0.281,0.449,93.872,-371.46,190.185,0,0,0,
,-0.43,-0.103,0.617,-132.63,22.644,-90.088,0,0,0,
,-0.496,0.024,0.702,-409.729,475.341,-347.84,0,0,0,
,-0.483,0.151,0.794,-630.555,911.193,-611.634,0,0,0,
,-0.382,0.323,0.855,-760.254,1211.792,-734.253,0,0,0,
,-0.223,0.343,0.719,-805.481,1265.869,-750.428,0,0,0,
,-0.084,0.267,0.577,-728.394,1055.42,-745.972,0,0,0,
,0.109,0.789,0.775,-675.293,679.565,-541.565,0,0,0,
,0.191,1.316,1.204,-512.757,267.212,-303.528,0,0,0,
,0.052,1.364,1.446,-124.817,-42.298,-139.649,0,0,0,
,-0.014,1.12,1.395,262.146,-237.61,163.147,0,0,0,
,-0.004,0.831,1.248,445.861,-494.873,391.662,0,0,0,
,-0.084,0.632,1.078,533.264,-715.76,568.908,0,0,0,
,-0.122,0.35,0.887,640.38,-838.318,569.519,0,0,0,
,-0.135,0.105,0.687,615.905,-898.072,493.042,0,0,0,
,-0.2,-0.092,0.608,489.563,-826.294,304.26,0,0,0,
,-0.317,-0.108,0.673,313.354,-556.458,61.889,0,0,0,
,-0.373,-0.089,0.733,57.128,-173.462,-208.191,0,0,0,
,-0.373,-0.042,0.667,-329.163,213.195,-415.894,0,0,0,
,-0.438,0.062,0.666,-703.248,609.314,-582.703,0,0,0,
,-0.289,0.26,0.701,-844.056,808.654,-679.261,0,0,0,
,-0.255,0.388,0.751,-799.317,933.593,-669.983,0,0,0,
,-0.084,0.484,0.704,-785.889,895.141,-608.216,0,0,0,
,0.035,0.812,0.718,-725.953,703.186,-501.221,0,0,0,
,0.062,1.215,0.894,-564.454,474.853,-313.965,0,0,0,
,0.129,1.483,1.028,-391.846,199.279,-110.779,0,0,0,
,0.1,1.433,1.181,-115.723,-61.707,78.43,0,0,0,
,0.054,1.106,1.161,169.616,-256.714,295.715,0,0,0,
,0.07,0.9,1.204,340.393,-521.424,530.944,0,0,0,
,0,0.809,1.167,530.761,-686.707,749.45,0,0,0,
,-0.001,0.489,0.993,748.413,-793.091,815.796,0,0,0,
,-0.024,0.176,0.721,736.816,-855.835,768.676,0,0,0,
,-0.084,-0.052,0.517,594.543,-849.61,599.365,0,0,0,
,-0.176,-0.148,0.422,431.945,-723.633,395.446,0,0,0,
,-0.299,-0.168,0.422,289.489,-426.514,117.859,0,0,0,
,-0.366,-0.142,0.44,89.721,-94.666,-119.629,0,0,0,
,-0.428,-0.084,0.435,-214.661,328.552,-368.226,0,0,0,
,-0.427,0.012,0.471,-468.018,691.345,-593.262,0,0,0,
,-0.385,0.168,0.592,-615.784,1028.442,-742.188,0,0,0,
,-0.27,0.424,0.713,-665.711,1223.938,-801.087,0,0,0,
,-0.126,0.488,0.675,-699.28,1214.05,-757.996,0,0,0,
,0.042,0.763,0.598,-700.501,982.177,-683.777,0,0,0,
,0.202,1.103,0.775,-570.557,603.881,-555.359,0,0,0,
,0.264,1.373,1.133,-370.24,210.998,-351.99,0,0,0,
,0.199,1.396,1.413,-127.259,-96.07,-94.422,0,0,0,
,0.074,1.127,1.417,127.441,-276.612,176.086,0,0,0,
,0.046,0.892,1.235,283.935,-490.906,420.288,0,0,0,
,-0.023,0.814,1.141,470.337,-648.865,582.885,0,0,0,
,-0.059,0.608,1.004,708.496,-725.464,650.94,0,0,0,
,-0.087,0.281,0.762,782.104,-736.817,585.144,0,0,0,
,-0.137,0.01,0.57,619.812,-679.139,454.834,0,0,0,
,-0.201,-0.085,0.473,379.516,-546.448,270.202,0,0,0,
,-0.265,-0.098,0.477,160.766,-318.909,59.936,0,0,0,
,-0.319,-0.064,0.561,-37.293,-12.33,-173.584,0,0,0,
,-0.371,0.038,0.627,-285.096,306.396,-354.554,0,0,0,
,-0.379,0.24,0.739,-468.628,660.339,-549.744,0,0,0,
,-0.331,0.508,0.866,-570.862,980.224,-700.623,0,0,0,
,-0.201,0.697,0.848,-623.475,1125.793,-743.714,0,0,0,
,0.111,0.588,0.427,-557.496,772.094,-698.975,0,0,0,
,0.368,1.161,0.681,-461.792,336.853,-372.986,0,0,0,
,0.344,1.569,1.143,-297.73,-57.801,-147.095,0,0,0,
,0.119,1.392,1.374,66.406,-267.823,63.964,0,0,0,
,0.037,0.919,1.251,318.359,-690.796,620.788,0,0,0,
,-0.006,0.73,1.045,534.057,-784.119,762.024,0,0,0,
,-0.043,0.486,0.833,740.112,-826.722,787.109,0,0,0,
,-0.095,0.163,0.613,792.541,-808.838,698.913,0,0,0,
,-0.155,-0.076,0.441,628.723,-740.662,545.715,0,0,0,
,-0.226,-0.199,0.422,393.921,-571.839,339.904,0,0,0,
,-0.272,-0.199,0.512,206.421,-331.238,98.816,0,0,0,
,-0.344,-0.119,0.63,-54.2,43.457,-132.752,0,0,0,
,-0.385,0,0.677,-305.603,403.991,-339.6,0,0,0,
,-0.405,0.203,0.751,-516.724,803.711,-528.199,0,0,0,
,-0.299,0.574,0.872,-632.081,1142.334,-679.627,0,0,0,
,-0.17,0.649,0.807,-656.861,1205.81,-705.994,0,0,0,
,-0.085,0.441,0.506,-551.087,1049.682,-796.326,0,0,0,
,0.141,0.723,0.387,-420.716,778.808,-600.708,0,0,0,
,0.384,1.369,0.725,-214.661,317.505,-268.982,0,0,0,
,0.286,1.563,1.186,35.827,-53.772,-80.689,0,0,0,
,0.131,1.217,1.425,247.009,-312.684,72.265,0,0,0,
,0.145,0.875,1.316,305.359,-557.923,329.895,0,0,0,
,0.013,0.801,1.265,277.526,-721.009,556.884,0,0,0,
,-0.048,0.726,1.115,471.801,-812.806,682.495,0,0,0,
,-0.052,0.49,0.885,683.838,-850.159,682.556,0,0,0,
,-0.1,0.235,0.745,712.402,-821.9,554.626,0,0,0,
,-0.147,0.003,0.653,564.941,-753.357,368.835,0,0,0,
,-0.207,-0.111,0.616,428.466,-596.741,167.358,0,0,0,
,-0.245,-0.232,0.588,367.553,-366.394,-51.88,0,0,0,
,-0.362,0.102,0.715,-393.799,619.14,-590.332,0,0,0,
,-0.322,0.406,0.849,-545.472,992.004,-722.657,0,0,0,
,-0.238,0.545,0.882,-612.854,1195.678,-755.616,0,0,0,
,-0.126,0.445,0.659,-631.775,1190.185,-801.514,0,0,0,
,-0.022,0.5,0.389,-584.9,1035.705,-694.336,0,0,0,
,0.27,1.065,0.557,-485.535,645.691,-319.153,0,0,0,
,0.354,1.534,1.006,-372.193,244.323,-77.393,0,0,0,
,0.256,1.371,1.352,-71.595,-89.6,52.429,0,0,0,
,0.169,1.006,1.369,134.216,-287.049,309.57,0,0,0,
,0.184,0.79,1.281,247.192,-536.194,535.766,0,0,0,
,0.048,0.793,1.178,448.73,-705.445,747.985,0,0,0,
,0.002,0.512,0.989,730.896,-809.205,772.033,0,0,0,
,-0.071,0.247,0.795,917.419,-869.507,707.641,0,0,0,
,-0.172,-0.002,0.624,969.116,-857.972,559.204,0,0,0,
,-0.262,-0.148,0.511,1018.127,-760.56,399.047,0,0,0,
,-0.36,-0.23,0.515,847.107,-290.406,53.283,0,0,0,
,-0.401,-0.209,0.628,366.272,65.979,-120.545,0,0,0,
,-0.417,-0.116,0.732,-203.309,454.895,-288.453,0,0,0,
,-0.417,0.137,0.815,-602.234,908.264,-470.337,0,0,0,
,-0.302,0.493,0.91,-816.651,1227.6,-622.01,0,0,0,
,-0.197,0.451,0.867,-971.314,1284.301,-699.769,0,0,0,
,-0.092,0.267,0.632,-1010.132,1110.168,-753.846,0,0,0,
,0.175,0.667,0.692,-945.13,762.024,-506.653,0,0,0,
,0.35,1.416,1.198,-681.031,236.755,-186.097,0,0,0,
,0.283,1.499,1.546,-173.768,-146.424,-1.038,0,0,0,
,0.103,1.133,1.481,214.416,-406.311,271.85,0,0,0,
,0.129,0.906,1.416,357.666,-780.152,528.076,0,0,0,
,-0.012,0.832,1.28,496.399,-1023.255,753.723,0,0,0,
,-0.076,0.513,1.036,754.638,-1167.725,819.58,0,0,0,
,-0.12,0.203,0.817,987.487,-1208.069,807.739,0,0,0,
,-0.182,-0.092,0.6,1077.88,-1138.978,716.186,0,0,0,
,-0.25,-0.241,0.551,995.727,-907.166,526.733,0,0,0,
,-0.326,-0.255,0.57,799.072,-501.893,311.584,0,0,0,
,-0.436,-0.256,0.498,502.685,-34.668,69.274,0,0,0,
,-0.452,-0.077,0.363,169.677,474.426,-144.41,0,0,0,
,-0.402,0.064,0.263,-117.188,891.845,-352.723,0,0,0,
,-0.293,-0.034,0.355,-372.681,1126.098,-547.974,0,0,0,
,-0.126,-0.059,0.468,-541.748,1174.621,-661.744,0,0,0,
,0,0.122,0.729,-567.749,1054.992,-556.031,0,0,0,
,0.052,0.483,1.069,-558.045,869.323,-422.73,0,0,0,
,0.085,0.834,1.409,-522.522,584.9,-291.199,0,0,0,
,0.05,0.911,1.53,-314.026,296.203,-191.59,0,0,0,
,0.006,0.873,1.524,-75.379,-1.709,6.347,0,0,0,
,0.007,0.835,1.434,112.304,-298.279,232.666,0,0,0,
,-0.023,0.693,1.355,258.606,-575.257,380.493,0,0,0,
,-0.044,0.506,1.25,347.046,-787.72,481.567,0,0,0,
,-0.078,0.36,1.113,407.47,-927.979,531.494,0,0,0,
,-0.135,0.233,0.962,450.195,-981.873,536.01,0,0,0,
,-0.191,0.109,0.822,490.051,-954.651,516.479,0,0,0,
,-0.245,-0.039,0.612,581.665,-857.666,452.88,0,0,0,
,-0.273,-0.18,0.419,678.527,-705.079,351.684,0,0,0,
,-0.338,-0.267,0.33,744.201,-445.557,196.899,0,0,0,
,-0.381,-0.292,0.424,595.947,-90.516,5.798,0,0,0,
,-0.439,-0.271,0.51,144.226,283.996,-149.659,0,0,0,
,-0.497,-0.1,0.695,-275.879,731.445,-342.102,0,0,0,
,-0.484,0.125,0.938,-614.624,1192.321,-537.293,0,0,0,
,-0.374,0.362,1.038,-869.202,1577.88,-699.524,0,0,0,
,-0.268,0.165,0.844,-989.624,1562.378,-777.771,0,0,0,
,-0.15,-0.046,0.652,-970.398,1295.654,-728.699,0,0,0,
,0.187,0.522,0.919,-930.42,782.898,-362.977,0,0,0,
,0.226,1.198,1.462,-846.497,261.84,-97.29,0,0,0,
,0.066,1.265,1.742,-386.231,-78.309,-8.545,0,0,0,
,0.048,0.805,1.562,87.402,-335.144,170.41,0,0,0,
,-0.017,0.595,1.428,260.559,-631.897,363.281,0,0,0,
,-0.092,0.501,1.219,455.627,-838.257,485.656,0,0,0,
,-0.131,0.373,1.024,747.131,-934.754,520.996,0,0,0,
,-0.149,0.123,0.781,961.914,-955.262,474.67,0,0,0,
,-0.188,-0.098,0.56,1014.953,-890.625,370.3,0,0,0,
,-0.228,-0.23,0.457,997.741,-699.646,236.45,0,0,0,
,-0.261,-0.325,0.427,846.74,-435.303,75.5,0,0,0,
,-0.323,-0.324,0.493,462.341,-59.571,-69.214,0,0,0,
,-0.376,-0.262,0.524,-7.752,342.834,-215.577,0,0,0,
,-0.44,-0.098,0.668,-460.206,751.037,-357.972,0,0,0,
,-0.373,0.19,0.873,-774.353,1195.556,-524.109,0,0,0,
,-0.234,0.417,0.883,-944.886,1430.236,-632.569,0,0,0,
,-0.129,0.271,0.694,-912.903,1383.3,-678.406,0,0,0,
,0.05,0.27,0.689,-777.832,1137.024,-563.721,0,0,0,
,0.288,0.749,1.011,-687.134,676.574,-270.02,0,0,0,
,0.288,1.151,1.534,-532.532,226.135,-108.277,0,0,0,
,0.147,1.061,1.768,-196.595,-71.289,9.948,0,0,0,
,0.111,0.753,1.548,112.671,-319.703,221.252,0,0,0,
,0.06,0.618,1.447,258.85,-601.197,434.692,0,0,0,
,-0.008,0.532,1.286,507.202,-803.589,541.687,0,0,0,
,-0.02,0.334,1.054,800.659,-922.791,569.702,0,0,0,
,-0.032,0.113,0.852,956.176,-958.619,524.841,0,0,0,
,-0.082,-0.096,0.672,948.181,-905.213,423.095,0,0,0,
,-0.147,-0.184,0.581,788.147,-753.663,309.204,0,0,0,
,-0.218,-0.251,0.51,553.344,-500.733,141.54,0,0,0,
,-0.277,-0.24,0.525,270.752,-215.149,-19.837,0,0,0,
,-0.351,-0.179,0.574,-137.33,156.86,-183.838,0,0,0,
,-0.394,-0.059,0.629,-459.839,505.127,-334.9,0,0,0,
,-0.38,0.072,0.806,-690.308,886.23,-471.497,0,0,0,
,-0.332,0.202,0.973,-868.531,1286.987,-592.286,0,0,0,
,-0.219,0.307,0.997,-914.49,1469.238,-607.483,0,0,0,
,-0.182,0.144,0.755,-824.036,1385.803,-593.567,0,0,0,
,-0.047,0.309,0.644,-728.455,1167.48,-432.923,0,0,0,
,0.309,0.913,0.901,-671.326,671.692,-105.835,0,0,0,
,0.411,1.174,1.413,-398.804,145.752,-2.991,0,0,0,
,0.268,0.866,1.692,-68.177,-211.914,47.485,0,0,0,
,0.232,0.551,1.56,160.034,-573.182,209.228,0,0,0,
,0.091,0.577,1.465,322.326,-860.169,472.656,0,0,0,
,-0.017,0.439,1.198,699.768,-1049.805,538.33,0,0,0,
,-0.045,0.209,0.921,917.297,-1175.721,534.24,0,0,0,
,-0.097,-0.005,0.677,937.5,-1214.173,472.9,0,0,0,
,-0.182,-0.191,0.511,809.265,-1123.719,382.324,0,0,0,
,-0.263,-0.244,0.448,620.91,-893.189,229.004,0,0,0,
,-0.336,-0.185,0.503,396.057,-514.527,45.288,0,0,0,
,-0.388,-0.111,0.54,113.159,-59.937,-141.541,0,0,0,
,-0.449,-0.097,0.55,-226.441,387.146,-277.649,0,0,0,
,-0.435,0.054,0.67,-458.13,848.571,-405.945,0,0,0,
,-0.376,0.153,0.865,-631.409,1257.08,-499.756,0,0,0,
,-0.232,0.259,0.919,-674.195,1463.012,-512.024,0,0,0,
,-0.115,0.252,0.72,-639.039,1357.849,-475.098,0,0,0,
,0.076,0.397,0.707,-537.171,1075.561,-357.605,0,0,0,
,0.325,0.79,1.029,-445.496,588.562,-170.655,0,0,0,
,0.389,0.803,1.451,-231.69,167.785,-136.597,0,0,0,
,0.192,0.678,1.736,-126.526,-195.923,-49.927,0,0,0,
,0.144,0.61,1.573,11.779,-483.094,121.46,0,0,0,
,0.01,0.604,1.505,225.036,-734.925,303.222,0,0,0,
,-0.046,0.449,1.296,449.89,-899.659,393.554,0,0,0,
,-0.061,0.301,1.136,535.827,-1014.588,461.181,0,0,0,
,-0.093,0.214,0.991,510.498,-1052.369,482.788,0,0,0,
,-0.136,0.116,0.837,457.702,-1004.883,449.463,0,0,0,
,-0.197,0.027,0.709,350.952,-868.042,382.08,0,0,0,
,-0.265,-0.08,0.569,227.783,-673.89,270.63,0,0,0,
,-0.356,-0.163,0.47,81.42,-375.977,154.174,0,0,0,
,-0.399,-0.193,0.437,-119.751,-6.653,18.371,0,0,0,
,-0.419,-0.114,0.481,-448.121,363.159,-115.052,0,0,0,
,-0.411,0.039,0.577,-739.319,800.171,-296.57,0,0,0,
,-0.29,0.247,0.658,-844.422,1148.254,-483.582,0,0,0,
,-0.166,0.227,0.753,-884.156,1343.017,-609.925,0,0,0,
,-0.016,0.19,0.784,-839.6,1271.667,-622.132,0,0,0,
,0.142,0.435,0.942,-696.289,944.824,-487.183,0,0,0,
,0.236,0.772,1.258,-393.799,446.411,-273.987,0,0,0,
,0.173,0.916,1.579,-73.304,70.19,-131.958,0,0,0,
,0.112,0.824,1.652,217.407,-328.98,69.702,0,0,0,
,-0.01,0.651,1.639,351.013,-650.94,279.907,0,0,0,
,-0.108,0.568,1.438,476.074,-905.274,463.867,0,0,0,
,-0.165,0.438,1.176,641.479,-1052.491,545.593,0,0,0,
,-0.194,0.257,0.932,722.778,-1111.39,535.705,0,0,0,
,-0.231,0.038,0.643,666.992,-1045.777,431.274,0,0,0,
,-0.291,-0.063,0.52,492.797,-865.662,268.982,0,0,0,
,-0.36,-0.081,0.51,254.15,-548.096,42.785,0,0,0,
,-0.382,-0.106,0.533,-18.433,-153.809,-162.232,0,0,0,
,-0.438,-0.018,0.547,-287.842,240.905,-319.581,0,0,0,
,-0.447,0.138,0.591,-475.159,662.231,-489.319,0,0,0,
,-0.414,0.286,0.748,-635.498,1043.029,-649.537,0,0,0,
,-0.267,0.516,0.846,-745.301,1336.181,-749.146,0,0,0,
,-0.126,0.361,0.765,-787.842,1337.219,-768.006,0,0,0,
,0.063,0.153,0.597,-850.953,1095.337,-748.414,0,0,0,
,0.306,0.586,0.757,-895.447,689.087,-455.262,0,0,0,
,0.287,1.163,1.175,-768.067,281.128,-242.31,0,0,0,
,0.15,1.236,1.561,-428.956,-65.247,-72.205,0,0,0,
,0.028,0.925,1.533,-72.266,-248.536,167.114,0,0,0,
,0.016,0.659,1.377,127.685,-514.039,393.554,0,0,0,
,-0.077,0.651,1.218,447.143,-664.063,608.947,0,0,0,
,-0.082,0.338,1.031,763.244,-775.269,654.419,0,0,0,
,-0.115,0.094,0.81,796.753,-821.289,613.586,0,0,0,
,-0.158,-0.113,0.611,639.587,-788.086,468.139,0,0,0,
,-0.214,-0.183,0.503,427.368,-660.462,298.828,0,0,0,
,-0.26,-0.23,0.486,291.87,-450.623,85.571,0,0,0,
,-0.3,-0.18,0.541,51.391,-142.029,-97.29,0,0,0,
,-0.33,-0.045,0.587,-211.487,181.457,-278.687,0,0,0,
,-0.358,0.098,0.643,-449.402,539.306,-446.045,0,0,0,
,-0.339,0.325,0.775,-596.985,906.799,-612.244,0,0,0,
,-0.261,0.524,0.922,-662.11,1176.086,-695.496,0,0,0,
,-0.146,0.463,0.924,-658.814,1242.187,-728.089,0,0,0,
,0.008,0.184,0.574,-601.807,1071.777,-712.098,0,0,0,
,0.158,0.5,0.511,-527.71,767.151,-436.097,0,0,0,
,0.322,1.282,0.916,-348.145,326.904,-104.737,0,0,0,
,0.276,1.405,1.328,50.842,-14.71,-10.254,0,0,0,
,0.114,1.015,1.51,391.723,-250.367,162.414,0,0,0,
,0.144,0.705,1.469,474.426,-526.673,370.117,0,0,0,
,-0.006,0.63,1.325,518.676,-718.079,551.941,0,0,0,
,-0.051,0.488,1.13,707.885,-853.821,646.118,0,0,0,
,-0.097,0.258,0.937,805.42,-934.51,641.906,0,0,0,
,-0.14,0.041,0.764,728.454,-947.51,567.81,0,0,0,
,-0.212,-0.099,0.603,558.776,-869.507,447.509,0,0,0,
,-0.273,-0.197,0.523,410.949,-698.67,280.395,0,0,0,
,-0.327,-0.184,0.548,273.254,-460.206,111.389,0,0,0,
,-0.365,-0.102,0.618,35.339,-132.569,-60.242,0,0,0,
,-0.389,0.029,0.698,-246.155,222.473,-230.103,0,0,0,
,-0.428,0.218,0.789,-507.325,573.852,-401.062,0,0,0,
,-0.405,0.46,0.967,-656.067,958.252,-570.008,0,0,0,
,-0.347,0.643,1.119,-736.634,1204.956,-658.265,0,0,0,
,-0.211,0.527,0.948,-730.896,1180.359,-736.39,0,0,0,
,-0.076,0.012,0.469,-614.319,957.946,-715.577,0,0,0,
,0.149,0.435,0.501,-618.164,594.909,-370.728,0,0,0,
,0.295,1.274,0.978,-581.421,116.699,-37.476,0,0,0,
,0.147,1.208,1.384,-213.562,-193.116,-16.968,0,0,0,
,0.167,0.745,1.487,83.007,-474.06,167.846,0,0,0,
,0.063,0.598,1.45,131.652,-662.964,375.671,0,0,0,
,-0.029,0.559,1.215,331.787,-777.405,527.954,0,0,0,
,-0.087,0.378,0.939,594.726,-832.459,584.655,0,0,0,
,-0.147,0.194,0.765,722.168,-827.271,539.123,0,0,0,
,-0.222,-0.055,0.582,687.805,-750.489,394.836,0,0,0,
,-0.278,-0.175,0.484,513.305,-614.197,204.467,0,0,0,
,-0.317,-0.211,0.521,316.772,-386.78,8.911,0,0,0,
,-0.334,-0.117,0.68,50.598,-84.412,-171.875,0,0,0,
,-0.365,0.024,0.777,-306.885,290.1,-330.079,0,0,0,
,-0.403,0.193,0.848,-595.948,672.79,-492.798,0,0,0,
,-0.379,0.472,0.924,-769.043,1030.151,-632.508,0,0,0,
,-0.26,0.591,0.952,-818.055,1199.707,-693.97,0,0,0,
,-0.163,0.283,0.634,-817.872,1093.261,-756.104,0,0,0,
,0.02,0.393,0.418,-745.911,832.641,-599.732,0,0,0,
,0.245,1.214,0.72,-534.485,445.312,-267.945,0,0,0,
,0.225,1.521,1.175,-134.644,53.711,-129.212,0,0,0,
,0.063,1.115,1.513,222.107,-183.838,42.785,0,0,0,
,0.143,0.724,1.487,303.833,-463.746,284.912,0,0,0,
,-0.023,0.713,1.349,359.985,-656.067,569.519,0,0,0,
,-0.062,0.545,1.11,598.266,-765.137,674.926,0,0,0,
,-0.103,0.302,0.924,783.569,-826.966,682.739,0,0,0,
,-0.131,0.088,0.716,785.888,-843.506,591.613,0,0,0,
,-0.201,-0.085,0.546,675.232,-770.203,426.086,0,0,0,
,-0.268,-0.179,0.514,476.257,-593.811,215.698,0,0,0,
,-0.31,-0.162,0.593,256.286,-343.018,-2.991,0,0,0,
,-0.367,-0.067,0.739,-6.653,22.033,-178.833,0,0,0,
,-0.405,0.094,0.809,-298.035,421.63,-329.163,0,0,0,
,-0.422,0.398,0.891,-532.959,789.184,-496.949,0,0,0,
,-0.357,0.644,0.958,-633.484,1085.388,-563.599,0,0,0,
,-0.267,0.488,0.878,-640.32,1134.521,-551.453,0,0,0,
,-0.165,0.265,0.571,-538.514,992.675,-574.341,0,0,0,
,0.053,0.647,0.518,-392.273,740.539,-290.528,0,0,0,
,0.234,1.145,0.793,-230.591,322.937,1.22,0,0,0,
,0.141,1.139,1.278,32.714,-18.311,53.039,0,0,0,
,0.108,0.747,1.33,222.595,-158.326,222.168,0,0,0,
,0.09,0.481,1.306,206.482,-416.565,327.087,0,0,0,
,-0.01,0.491,1.151,274.109,-555.359,486.999,0,0,0,
,-0.072,0.33,0.988,473.938,-626.587,458.313,0,0,0,
,-0.119,0.124,0.821,542.48,-628.846,348.816,0,0,0,
,-0.163,-0.04,0.739,429.687,-578.736,214.66,0,0,0,
,-0.232,-0.122,0.678,218.75,-454.651,34.118,0,0,0,
,-0.288,-0.093,0.663,29.357,-253.724,-126.526,0,0,0,
,-0.315,0.003,0.675,-150.208,31.25,-284.79,0,0,0,
,-0.362,0.126,0.715,-330.933,351.562,-428.162,0,0,0,
,-0.353,0.239,0.771,-468.628,691.894,-527.405,0,0,0,
,-0.301,0.401,0.791,-587.403,948.852,-549.683,0,0,0,
,-0.156,0.548,0.776,-653.626,1001.159,-584.168,0,0,0,
,-0.071,0.515,0.682,-575.257,944.946,-578.98,0,0,0,
,0.14,0.647,0.666,-553.345,763.488,-417.115,0,0,0,
,0.215,1.086,0.891,-597.046,403.442,-198.304,0,0,0,
,0.229,1.212,1.146,-349.244,147.583,-50.232,0,0,0,
,0.241,1.101,1.336,-96.68,-167.176,181.335,0,0,0,
,0.115,1.048,1.415,113.159,-424.927,479.431,0,0,0,
,0.042,0.792,1.26,492.675,-592.041,644.775,0,0,0,
,-0.017,0.453,1.021,737.976,-728.211,705.505,0,0,0,
,-0.072,0.217,0.832,783.386,-809.937,648.864,0,0,0,
,-0.134,-0.043,0.656,680.603,-828.797,504.394,0,0,0,
,-0.195,-0.213,0.524,490.905,-757.203,317.627,0,0,0,
,-0.255,-0.237,0.49,256.164,-591.98,127.197,0,0,0,
,-0.309,-0.078,0.597,39.184,-322.51,-78.797,0,0,0,
,-0.347,0.112,0.752,-130.372,14.892,-261.597,0,0,0,
,-0.394,0.224,0.853,-297.608,411.132,-419.8,0,0,0,
,-0.365,0.349,0.93,-456.788,763.672,-525.269,0,0,0,
,-0.289,0.498,0.925,-559.327,1003.54,-509.766,0,0,0,
,-0.167,0.5,0.713,-589.295,1004.15,-494.263,0,0,0,
,0.01,0.618,0.481,-577.759,808.715,-372.681,0,0,0,
,0.192,1.047,0.638,-461.121,449.279,-139.71,0,0,0,
,0.3,1.281,1.046,-283.081,99.914,35.644,0,0,0,
,0.204,1.131,1.424,-3.602,-170.044,173.095,0,0,0,
,0.166,0.723,1.376,259.338,-370.057,350.708,0,0,0,
,0.058,0.667,1.256,367.187,-545.533,572.998,0,0,0,
,-0.046,0.457,1.027,621.399,-627.015,593.017,0,0,0,
,-0.068,0.186,0.82,685.547,-659.363,539.428,0,0,0,
,-0.099,-0.03,0.675,534.668,-625.977,404.724,0,0,0,
,-0.152,-0.134,0.57,310.058,-519.471,220.031,0,0,0,
,-0.238,-0.086,0.553,97.961,-297.547,33.203,0,0,0,
,-0.286,0.023,0.631,-62.439,14.892,-167.664,0,0,0,
,-0.331,0.164,0.742,-267.334,337.89,-330.567,0,0,0,
,-0.391,0.296,0.922,-458.741,735.229,-482.911,0,0,0,
,-0.387,0.587,1.055,-616.883,1088.623,-543.58,0,0,0,
,-0.322,0.761,1.05,-674.378,1260.742,-527.955,0,0,0,
,-0.206,0.548,0.674,-541.748,1128.112,-528.626,0,0,0,
,-0.007,0.573,0.456,-377.259,862.304,-341.248,0,0,0,
,0.358,1.065,0.664,-302.613,342.773,72.753,0,0,0,
,0.312,1.224,1.161,-181.275,-120.911,156.982,0,0,0,
,0.168,0.869,1.473,172.485,-463.807,302.124,0,0,0,
,0.106,0.589,1.416,315.185,-721.924,526.916,0,0,0,
,-0.08,0.414,1.145,579.712,-866.944,565.796,0,0,0,
,-0.162,0.159,0.869,791.259,-913.025,508.728,0,0,0,
,-0.211,-0.08,0.652,743.286,-889.527,368.53,0,0,0,
,-0.235,-0.23,0.545,482.116,-795.655,143.737,0,0,0,
,-0.286,-0.122,0.57,184.57,-594.91,-88.685,0,0,0,
,-0.338,0.061,0.708,-37.964,-226.563,-327.82,0,0,0,
,-0.382,0.131,0.777,-213.196,129.821,-475.22,0,0,0,
,-0.407,0.219,0.799,-462.891,543.884,-589.783,0,0,0,
,-0.369,0.437,0.852,-628.602,894.653,-615.601,0,0,0,
,-0.285,0.613,0.83,-710.877,1042.114,-576.844,0,0,0,
,-0.147,0.579,0.61,-677.43,992.004,-518.311,0,0,0,
,0.046,0.8,0.453,-586.67,751.587,-332.947,0,0,0,
,0.262,1.176,0.623,-377.625,355.468,-85.083,0,0,0,
,0.301,1.323,1.122,-117.432,-30.823,72.753,0,0,0,
,0.195,0.99,1.412,226.196,-301.575,233.886,0,0,0,
,0.147,0.688,1.414,379.516,-547.425,440.612,0,0,0,
,0.004,0.613,1.202,610.534,-699.585,582.336,0,0,0,
,-0.093,0.318,0.97,819.763,-787.11,578.918,0,0,0,
,-0.15,0.056,0.717,765.869,-835.267,482.544,0,0,0,
,-0.201,-0.096,0.59,579.223,-802.918,315.185,0,0,0,
,-0.265,-0.124,0.565,434.692,-610.84,92.956,0,0,0,
,-0.306,-0.069,0.607,295.166,-363.038,-88.868,0,0,0,
,-0.36,0.068,0.691,59.021,-3.724,-262.818,0,0,0,
,-0.424,0.147,0.743,-192.688,355.59,-404.541,0,0,0,
,-0.444,0.26,0.887,-441.59,744.262,-521.424,0,0,0,
,-0.408,0.452,0.986,-599.366,1063.232,-548.523,0,0,0,
,-0.304,0.591,0.935,-656.678,1193.237,-524.048,0,0,0,
,-0.156,0.606,0.685,-609.314,1081.054,-492.92,0,0,0,
,0.052,0.773,0.502,-477.906,797.119,-318.665,0,0,0,
,0.324,1.092,0.746,-322.449,329.589,-93.934,0,0,0,
,0.347,1.166,1.265,-160.279,-74.341,33.203,0,0,0,
,0.216,0.895,1.485,130.798,-388.733,163.818,0,0,0,
,0.12,0.76,1.452,356.14,-639.039,397.277,0,0,0,
,0.001,0.556,1.218,676.635,-791.565,508.361,0,0,0,
,-0.101,0.262,0.932,833.557,-889.771,517.334,0,0,0,
,-0.151,0.051,0.683,758.728,-944.214,441.223,0,0,0,
,-0.204,-0.042,0.542,621.46,-898.621,282.959,0,0,0,
,-0.248,-0.061,0.5,560.241,-713.99,94.238,0,0,0,
,-0.304,-0.002,0.577,508.606,-432.068,-91.553,0,0,0,
,-0.341,0.071,0.72,367.859,-51.026,-263.855,0,0,0,
,-0.395,0.081,0.834,15.808,324.401,-377.32,0,0,0,
,-0.412,0.201,0.995,-353.089,728.515,-475.464,0,0,0,
,-0.398,0.355,1.162,-561.219,1091.674,-503.174,0,0,0,
,-0.275,0.529,1.042,-637.085,1260.864,-472.229,0,0,0,
,-0.166,0.456,0.723,-591.004,1164.367,-495.301,0,0,0,
,0.014,0.514,0.375,-526.917,912.536,-368.47,0,0,0,
,0.383,0.829,0.597,-516.053,433.349,-126.282,0,0,0,
,0.455,1.033,1.133,-573.853,-46.509,-43.03,0,0,0,
,0.209,0.958,1.462,-351.685,-392.273,48.706,0,0,0,
,0.128,0.836,1.503,-2.442,-642.151,273.986,0,0,0,
,-0.006,0.652,1.297,410.766,-797.547,421.081,0,0,0,
,-0.096,0.317,0.949,632.202,-937.073,490.966,0,0,0,
,-0.16,0.12,0.722,607.238,-994.996,464.599,0,0,0,
,-0.227,0.017,0.609,467.712,-998.963,367.675,0,0,0,
,-0.289,0.007,0.556,389.831,-871.155,223.083,0,0,0,
,-0.312,-0.031,0.573,355.163,-603.028,64.392,0,0,0,
,-0.327,-0.051,0.648,181.579,-280.152,-86.731,0,0,0,
,-0.359,0.023,0.663,-134.888,90.21,-203.98,0,0,0,
,-0.409,0.064,0.665,-460.816,484.253,-317.383,0,0,0,
,-0.408,0.182,0.757,-744.019,866.821,-423.89,0,0,0,
,-0.317,0.606,0.84,-884.888,1192.505,-504.029,0,0,0,
,-0.251,0.861,0.804,-904.358,1303.344,-562.256,0,0,0,
,-0.144,0.62,0.517,-827.21,1163.391,-596.07,0,0,0,
,0.142,0.61,0.456,-787.659,818.481,-523.377,0,0,0,
,0.36,0.978,0.815,-727.112,341.003,-287.293,0,0,0,
,0.235,1.338,1.318,-442.261,-42.481,-68.909,0,0,0,
,0.129,1.201,1.486,76.904,-241.456,162.231,0,0,0,
,0.065,0.919,1.465,434.936,-451.111,408.935,0,0,0,
,-0.005,0.717,1.282,651.794,-612.122,590.271,0,0,0,
,-0.073,0.478,1.04,765.991,-741.639,660.339,0,0,0,
,-0.129,0.269,0.839,744.201,-827.576,632.324,0,0,0,
,-0.171,0.157,0.633,637.146,-835.816,543.396,0,0,0,
,-0.224,0.039,0.495,539.55,-750,389.038,0,0,0,
,-0.267,-0.018,0.414,404.235,-591.492,214.477,0,0,0,
,-0.326,0.006,0.436,219.36,-339.234,39.917,0,0,0,
,-0.358,0.047,0.523,21.667,-19.41,-129.883,0,0,0,
,-0.385,0.119,0.611,-231.934,287.414,-265.198,0,0,0,
,-0.388,0.205,0.715,-440.979,637.756,-401.307,0,0,0,
,-0.37,0.412,0.828,-570.862,953.064,-496.521,0,0,0,
,-0.304,0.692,0.904,-603.699,1179.321,-576.966,0,0,0,
,-0.25,0.71,0.834,-579.651,1205.2,-644.471,0,0,0,
,-0.056,0.476,0.54,-522.034,1027.221,-662.781,0,0,0,
,0.285,0.471,0.559,-569.886,637.817,-502.076,0,0,0,
,0.377,0.904,0.98,-657.837,164.123,-257.386,0,0,0,
,0.18,1.309,1.313,-402.039,-195.74,-31.861,0,0,0,
,0.167,1.143,1.464,157.531,-414.978,157.165,0,0,0,
,0.058,0.914,1.414,523.132,-596.07,403.564,0,0,0,
,-0.006,0.638,1.198,727.844,-734.742,551.88,0,0,0,
,-0.107,0.429,0.958,836.242,-842.713,606.689,0,0,0,
,-0.166,0.252,0.762,872.192,-889.771,579.162,0,0,0,
,-0.223,0.091,0.616,849.975,-835.938,481.262,0,0,0,
,-0.267,-0.045,0.521,730.346,-669.8,318.42,0,0,0,
,-0.308,-0.029,0.53,546.997,-442.566,138.61,0,0,0,
,-0.37,0.055,0.612,283.081,-116.578,-17.579,0,0,0,
,-0.405,0.103,0.697,-68.97,237.609,-160.096,0,0,0,
,-0.426,0.17,0.797,-445.13,600.891,-283.57,0,0,0,
,-0.37,0.385,0.892,-667.176,947.265,-396.79,0,0,0,
,-0.289,0.542,0.897,-729.493,1135.437,-446.106,0,0,0,
,-0.173,0.543,0.76,-729.248,1085.022,-496.766,0,0,0,
,0.017,0.556,0.632,-679.993,864.624,-435.486,0,0,0,
,0.258,0.804,0.79,-603.15,422.18,-269.593,0,0,0,
,0.215,1.078,1.129,-477.417,11.535,-80.018,0,0,0,
,0.149,1.021,1.384,-27.955,-267.456,48.156,0,0,0,
,0.074,0.866,1.479,311.157,-545.655,266.357,0,0,0,
,-0.029,0.668,1.348,574.707,-708.924,441.223,0,0,0,
,-0.115,0.429,1.12,744.445,-835.999,510.254,0,0,0,
,-0.18,0.236,0.886,766.479,-888.245,501.037,0,0,0,
,-0.224,0.1,0.692,634.216,-868.47,405.578,0,0,0,
,-0.294,0.054,0.577,482.666,-731.995,246.154,0,0,0,
,-0.336,-0.008,0.484,323.12,-499.939,80.2,0,0,0,
,-0.367,0.003,0.5,77.209,-180.237,-86.67,0,0,0,
,-0.379,0.046,0.517,-185.059,150.207,-226.014,0,0,0,
,-0.417,0.138,0.588,-428.467,513.244,-358.216,0,0,0,
,-0.366,0.218,0.681,-584.961,861.755,-437.928,0,0,0,
,-0.337,0.419,0.789,-658.326,1139.282,-476.075,0,0,0,
,-0.216,0.682,0.817,-652.466,1250,-509.217,0,0,0,
,-0.151,0.682,0.764,-624.146,1185.547,-538.88,0,0,0,
,0.116,0.511,0.57,-579.834,904.968,-497.803,0,0,0,
,0.367,0.613,0.727,-650.757,437.378,-302.369,0,0,0,
,0.32,1.049,1.145,-664.002,-71.351,-104.92,0,0,0,
,0.099,1.177,1.42,-271.058,-359.62,80.017,0,0,0,
,0.048,1.038,1.47,222.9,-571.412,320.8,0,0,0,
,-0.06,0.79,1.354,630.371,-725.525,507.873,0,0,0,
,-0.124,0.451,1.115,881.713,-819.214,588.562,0,0,0,
,-0.186,0.194,0.857,875.061,-871.644,576.477,0,0,0,
,-0.263,-0.011,0.63,674.316,-846.741,445.312,0,0,0,
,-0.322,-0.05,0.562,506.591,-751.893,278.564,0,0,0,
,-0.353,-0.027,0.546,322.815,-527.894,80.444,0,0,0,
,-0.403,0.027,0.654,94.787,-217.896,-103.76,0,0,0,
,-0.404,0.106,0.692,-198.06,160.522,-268.616,0,0,0,
,-0.416,0.168,0.713,-446.778,512.451,-413.636,0,0,0,
,-0.364,0.385,0.79,-635.193,866.15,-535.584,0,0,0,
,-0.298,0.68,0.884,-724.488,1138.183,-626.282,0,0,0,
,-0.198,0.883,0.829,-709.351,1175.842,-710.328,0,0,0,
,-0.063,0.499,0.548,-522.461,1032.714,-756.531,0,0,0,
,0.282,0.335,0.381,-435.303,707.702,-574.646,0,0,0,
,0.432,1.014,0.779,-471.619,180.359,-180.298,0,0,0,
,0.276,1.469,1.296,-273.499,-210.755,4.699,0,0,0,
,0.133,1.059,1.397,259.46,-395.081,158.264,0,0,0,
,0.1,0.785,1.383,377.868,-622.742,441.711,0,0,0,
,-0.005,0.684,1.172,543.762,-754.944,578.857,0,0,0,
,-0.103,0.469,0.985,725.83,-826.661,620.727,0,0,0,
,-0.139,0.253,0.816,727.478,-847.474,571.594,0,0,0,
,-0.219,0.083,0.721,547.302,-799.805,440.185,0,0,0,
,-0.316,0.004,0.647,354.614,-652.955,261.901,0,0,0,
,-0.383,-0.027,0.604,161.987,-434.876,86.853,0,0,0,
,-0.401,0.035,0.63,-47.425,-155.701,-82.337,0,0,0,
,-0.407,0.084,0.687,-259.034,148.193,-235.779,0,0,0,
,-0.406,0.082,0.71,-432.435,493.652,-362,0,0,0,
,-0.358,0.249,0.741,-535.584,796.875,-459.046,0,0,0,
,-0.281,0.501,0.786,-593.506,1029.602,-532.715,0,0,0,
,-0.189,0.693,0.749,-621.338,1090.454,-608.704,0,0,0,
,-0.112,0.558,0.523,-548.279,1015.442,-693.238,0,0,0,
,0.116,0.455,0.354,-442.994,820.617,-595.215,0,0,0,
,0.405,0.915,0.609,-473.999,417.297,-269.165,0,0,0,
,0.397,1.283,1.046,-423.951,-27.832,-108.094,0,0,0,
,0.246,1.119,1.234,-79.59,-311.89,47.363,0,0,0,
,0.15,1.048,1.296,142.944,-555.909,353.637,0,0,0,
,0.023,0.854,1.226,406.799,-694.703,532.959,0,0,0,
,-0.05,0.622,1.05,608.276,-794.007,655.456,0,0,0,
,-0.129,0.419,0.871,727.356,-829.041,662.658,0,0,0,
,-0.206,0.152,0.63,752.197,-798.035,562.439,0,0,0,
,-0.283,-0.055,0.527,605.041,-696.412,397.766,0,0,0,
,-0.335,-0.103,0.53,417.114,-495.301,188.171,0,0,0,
,-0.357,0.022,0.657,204.345,-210.755,-15.931,0,0,0,
,-0.382,0.115,0.758,-58.228,179.565,-201.05,0,0,0,
,-0.41,0.075,0.731,-314.026,557.922,-374.634,0,0,0,
,-0.359,0.265,0.746,-476.868,906.677,-482.544,0,0,0,
,-0.271,0.525,0.788,-563.05,1114.074,-544.495,0,0,0,
,-0.149,0.63,0.717,-627.137,1116.394,-606.629,0,0,0,
,0.01,0.468,0.432,-586.121,948.181,-604.92,0,0,0,
,0.289,0.723,0.47,-509.156,601.318,-376.77,0,0,0,
,0.37,1.242,0.868,-373.475,142.7,-132.752,0,0,0,
,0.211,1.298,1.284,-35.035,-173.462,30.151,0,0,0,
,0.113,0.95,1.321,333.984,-365.296,259.582,0,0,0,
,0.038,0.788,1.328,434.021,-574.158,506.042,0,0,0,
,-0.055,0.712,1.181,611.511,-695.679,639.648,0,0,0,
,-0.108,0.451,0.995,772.155,-780.091,663.513,0,0,0,
,-0.12,0.208,0.833,791.565,-803.162,620.605,0,0,0,
,-0.174,-0.002,0.692,674.194,-756.409,491.577,0,0,0,
,-0.262,-0.071,0.623,541.137,-605.835,311.523,0,0,0,
,-0.342,-0.034,0.635,380.615,-348.389,117.553,0,0,0,
,-0.393,0.052,0.723,144.836,-7.874,-107.483,0,0,0,
,-0.416,0.082,0.772,-192.872,343.75,-282.41,0,0,0,
,-0.411,0.228,0.85,-479.981,736.694,-465.088,0,0,0,
,-0.345,0.433,0.959,-612.061,1043.396,-562.623,0,0,0,
,-0.241,0.556,0.953,-680.848,1184.57,-592.774,0,0,0,
,-0.152,0.494,0.665,-708.741,1111.328,-655.701,0,0,0,
,0.104,0.514,0.411,-679.017,857.177,-482.422,0,0,0,
,0.381,1.057,0.65,-601.075,316.284,-146.058,0,0,0,
,0.313,1.44,1.197,-362.732,-105.835,-25.33,0,0,0,
,0.17,1.138,1.412,39.672,-339.173,111.023,0,0,0,
,0.117,0.808,1.473,156.067,-518.982,366.272,0,0,0,
,-0.011,0.649,1.277,228.698,-629.395,530.212,0,0,0,
,-0.103,0.483,0.962,385.315,-702.515,623.962,0,0,0,
,-0.155,0.253,0.714,566.528,-703.003,563.537,0,0,0,
,-0.195,0.012,0.581,584.411,-659.668,382.812,0,0,0,
,-0.236,-0.115,0.562,436.279,-540.772,168.396,0,0,0,
,-0.295,-0.093,0.651,203.796,-293.091,-70.13,0,0,0,
,-0.342,0.003,0.732,-75.501,22.155,-291.199,0,0,0,
,-0.385,0.071,0.724,-398.621,407.47,-466.126,0,0,0,
,-0.371,0.243,0.771,-623.352,777.954,-587.647,0,0,0,
,-0.325,0.467,0.86,-756.653,1049.987,-610.352,0,0,0,
,-0.198,0.658,0.803,-767.579,1153.381,-605.408,0,0,0,
,-0.074,0.589,0.488,-659.119,1070.373,-553.894,0,0,0,
,0.16,0.923,0.318,-527.283,802.856,-241.639,0,0,0,
,0.408,1.489,0.667,-355.53,319.885,15.93,0,0,0,
,0.351,1.356,1.191,-24.048,-65.43,72.631,0,0,0,
,0.2,0.894,1.491,160.461,-326.477,286.071,0,0,0,
,0.2,0.677,1.418,214.05,-600.892,493.286,0,0,0,
,-0.023,0.79,1.269,409.851,-757.935,712.219,0,0,0,
,-0.077,0.408,0.964,705.078,-855.469,723.51,0,0,0,
,-0.121,0.136,0.719,783.142,-929.322,644.531,0,0,0,
,-0.169,-0.079,0.502,742.431,-908.631,484.253,0,0,0,
,-0.237,-0.157,0.37,606.933,-809.144,304.87,0,0,0,
,-0.322,-0.121,0.352,460.632,-536.988,78.979,0,0,0,
,-0.388,0.025,0.496,253.54,-194.397,-124.329,0,0,0,
,-0.446,0.175,0.604,-49.195,286.499,-303.101,0,0,0,
,-0.483,0.235,0.689,-379.395,719.97,-435.852,0,0,0,
,-0.44,0.501,0.872,-607.3,1175.354,-522.461,0,0,0,
,-0.323,0.763,0.955,-697.449,1401.489,-485.596,0,0,0,
,-0.213,0.625,0.749,-655.823,1380.249,-547.73,0,0,0,
,0.021,0.548,0.396,-491.639,1134.948,-462.83,0,0,0,
,0.387,1.012,0.54,-311.951,696.838,-124.878,0,0,0,
,0.526,1.347,1.173,-160.096,165.71,39.001,0,0,0,
,0.281,1.106,1.625,112.487,-163.758,106.445,0,0,0,
,0.194,0.765,1.558,294.983,-499.817,368.408,0,0,0,
,0.02,0.785,1.383,397.766,-713.257,571.899,0,0,0,
,-0.107,0.595,1.113,677.917,-851.868,644.592,0,0,0,
,-0.171,0.266,0.862,817.382,-922.608,593.811,0,0,0,
,-0.235,0.038,0.65,736.511,-922.303,461.181,0,0,0,
,-0.298,-0.083,0.541,555.42,-795.533,256.775,0,0,0,
,-0.356,-0.124,0.495,339.477,-576.844,75.5,0,0,0,
,-0.39,-0.096,0.542,116.333,-259.339,-127.198,0,0,0,
,-0.41,-0.008,0.617,-140.503,88.501,-309.815,0,0,0,
,-0.428,0.065,0.685,-398.987,503.357,-470.765,0,0,0,
,-0.402,0.253,0.833,-580.933,893.615,-602.112,0,0,0,
,-0.311,0.558,0.987,-724.488,1206.176,-650.269,0,0,0,
,-0.209,0.745,1.032,-777.466,1291.504,-713.929,0,0,0,
,-0.074,0.388,0.594,-654.969,1147.033,-789.551,0,0,0,
,0.23,0.573,0.404,-622.62,820.068,-497.315,0,0,0,
,0.604,1.321,0.803,-604.432,212.219,-71.961,0,0,0,
,0.438,1.455,1.346,-340.332,-282.532,-18.616,0,0,0,
,0.202,0.994,1.504,42.053,-521.363,202.514,0,0,0,
,0.157,0.765,1.34,221.923,-795.899,446.045,0,0,0,
,-0.077,0.692,1.056,505.981,-898.743,583.313,0,0,0,
,-0.135,0.381,0.783,776.428,-924.744,559.814,0,0,0,
,-0.183,0.071,0.597,757.69,-902.161,439.941,0,0,0,
,-0.224,-0.101,0.459,540.71,-795.411,241.821,0,0,0,
,-0.288,-0.101,0.434,263,-582.398,62.255,0,0,0,
,-0.352,0.029,0.498,64.392,-256.043,-117.981,0,0,0,
,-0.381,0.099,0.566,-114.991,99.853,-263.489,0,0,0,
,-0.398,0.141,0.607,-318.055,511.291,-387.818,0,0,0,
,-0.376,0.283,0.721,-440.918,890.991,-459.412,0,0,0,
,-0.285,0.628,0.86,-521.851,1174.011,-489.197,0,0,0,
,-0.155,0.756,0.849,-534.607,1235.168,-554.017,0,0,0,
,-0.007,0.505,0.54,-488.587,1082.641,-595.704,0,0,0,
,0.329,0.635,0.405,-489.441,698.669,-349.366,0,0,0,
,0.596,1.183,0.883,-485.779,167.297,-81.91,0,0,0,
,0.366,1.381,1.446,-255.677,-278.199,29.846,0,0,0,
,0.204,1.003,1.566,186.523,-510.254,235.717,0,0,0,
,0.104,0.823,1.433,406.25,-737.061,486.145,0,0,0,
,-0.062,0.712,1.158,651.977,-869.507,624.939,0,0,0,
,-0.128,0.423,0.91,855.285,-933.472,615.722,0,0,0,
,-0.174,0.147,0.705,819.091,-947.632,528.808,0,0,0,
,-0.215,-0.005,0.582,648.254,-867.249,394.836,0,0,0,
,-0.279,-0.036,0.477,475.952,-679.017,246.887,0,0,0,
,-0.334,-0.037,0.434,349.853,-420.105,82.763,0,0,0,
,-0.38,0.009,0.472,171.692,-78.736,-56.641,0,0,0,
,-0.42,0.073,0.556,-87.83,302.49,-188.904,0,0,0,
,-0.433,0.158,0.694,-325.013,676.88,-306.458,0,0,0,
,-0.374,0.438,0.871,-444.214,1047.607,-365.296,0,0,0,
,-0.27,0.64,0.927,-488.404,1242.492,-394.715,0,0,0,
,-0.177,0.556,0.701,-462.281,1170.288,-477.906,0,0,0,
,-0.005,0.439,0.484,-347.29,980.529,-503.846,0,0,0,
,0.417,0.734,0.704,-330.689,534.607,-243.103,0,0,0,
,0.5,1.029,1.282,-356.202,-14.283,-139.588,0,0,0,
,0.183,0.947,1.644,-125.489,-344.91,-78.736,0,0,0,
,0.105,0.844,1.617,157.287,-677.857,133.3,0,0,0,
,-0.072,0.757,1.421,447.754,-860.718,303.833,0,0,0,
,-0.178,0.563,1.162,658.142,-994.507,385.681,0,0,0,
,-0.248,0.439,0.948,683.471,-1054.261,384.948,0,0,0,
,-0.269,0.312,0.806,585.754,-1015.748,317.505,0,0,0,
,-0.315,0.248,0.673,454.101,-859.131,209.289,0,0,0,
,-0.345,0.173,0.549,327.819,-630.188,87.341,0,0,0,
,-0.371,0.102,0.464,184.753,-339.966,-16.358,0,0,0,
,-0.389,0.132,0.485,23.071,-41.138,-113.648,0,0,0,
,-0.367,0.134,0.527,-176.758,292.968,-181.824,0,0,0,
,-0.367,0.145,0.619,-378.785,644.714,-233.399,0,0,0,
,-0.346,0.239,0.804,-539.124,992.126,-269.654,0,0,0,
,-0.256,0.459,0.905,-570.557,1272.705,-276.673,0,0,0,
,-0.144,0.52,0.868,-505.372,1356.018,-297.608,0,0,0,
,-0.044,0.418,0.61,-416.321,1231.323,-390.748,0,0,0,
,0.172,0.419,0.51,-359.864,963.928,-356.202,0,0,0,
,0.493,0.6,0.754,-369.507,482.422,-218.811,0,0,0,
,0.475,0.775,1.254,-360.413,-7.142,-174.317,0,0,0,
,0.279,0.808,1.53,-186.89,-385.254,-81.91,0,0,0,
,0.102,0.812,1.568,156.921,-673.706,92.712,0,0,0,
,-0.036,0.652,1.361,462.402,-854.187,223.571,0,0,0,
,-0.161,0.514,1.082,610.962,-958.802,288.391,0,0,0,
