TIMECODE,ACC_X,ACC_Y,ACC_Z,GYR_X,GYR_Y,GYR_Z,ECG_I,ECG_II,ECG_III,TAG
,-0.096,-0.982,-0.235,-14.954,-25.879,-40.833,0,0,0,
,-0.1,-0.994,-0.244,7.629,-26.062,-43.641,0,0,0,
,-0.094,-0.976,-0.248,19.104,-30.213,-61.707,0,0,0,
,-0.104,-0.994,-0.235,27.526,-23.865,-57.251,0,0,0,
,-0.134,-0.983,-0.239,10.681,-18.25,-51.026,0,0,0,
,-0.138,-0.964,-0.241,16.113,-14.283,-41.382,0,0,0,
,-0.125,-0.967,-0.248,53.222,-14.1,-35.95,0,0,0,
,-0.116,-0.971,-0.253,57.006,-18.006,-25.94,0,0,0,
,-0.113,-0.977,-0.254,38.696,-16.48,-24.598,0,0,0,
,-0.109,-0.982,-0.254,8.667,-12.696,-28.809,0,0,0,
,-0.106,-0.985,-0.222,-19.227,-10.315,-29.786,0,0,0,
,-0.103,-0.975,-0.259,-34.302,-2.503,-27.466,0,0,0,
,-0.101,-1,-0.256,-29.297,5.798,-21.546,0,0,0,
,-0.102,-0.977,-0.256,-32.41,8.056,-28.016,0,0,0,
,-0.105,-0.979,-0.254,-38.819,8.361,-35.523,0,0,0,
,-0.105,-0.982,-0.249,-39.734,9.521,-39.246,0,0,0,
,-0.104,-0.978,-0.247,-39.49,9.338,-37.293,0,0,0,
,-0.109,-0.966,-0.241,-23.194,10.009,-37.232,0,0,0,
,-0.115,-0.977,-0.244,-7.203,2.563,-38.636,0,0,0,
,-0.113,-0.982,-0.241,1.892,0.976,-40.467,0,0,0,
,-0.112,-0.979,-0.239,4.943,0.854,-35.706,0,0,0,
,-0.113,-0.979,-0.244,6.164,3.356,-26.551,0,0,0,
,-0.113,-0.974,-0.258,9.765,4.699,-25.94,0,0,0,
,-0.113,-0.981,-0.256,6.347,12.023,-23.926,0,0,0,
,-0.112,-0.98,-0.253,-7.447,15.564,-26.429,0,0,0,
,-0.112,-0.98,-0.258,-26.368,23.864,-23.072,0,0,0,
,-0.108,-0.974,-0.257,-39.673,26.062,-15.931,0,0,0,
,-0.117,-0.968,-0.268,-39.49,29.968,-21.424,0,0,0,
,-0.112,-0.975,-0.26,-29.786,36.865,-29.053,0,0,0,
,-0.108,-0.984,-0.254,-47.425,40.405,-24.781,0,0,0,
,-0.109,-0.976,-0.244,-61.036,41.748,-22.461,0,0,0,
,-0.107,-0.978,-0.242,-68.604,42.724,-12.879,0,0,0,
,-0.105,-0.977,-0.236,-56.397,41.015,-18.067,0,0,0,
,-0.107,-0.987,-0.241,-60.059,35.339,-14.954,0,0,0,
,-0.105,-0.967,-0.229,-33.936,27.343,-26.673,0,0,0,
,-0.096,-0.994,-0.227,-27.405,23.559,-19.654,0,0,0,
,-0.099,-0.993,-0.219,-43.58,18.005,-18.799,0,0,0,
,-0.099,-0.973,-0.222,-38.514,10.376,-20.02,0,0,0,
,-0.101,-0.979,-0.22,-18.372,4.15,-27.832,0,0,0,
,-0.102,-0.976,-0.225,2.197,-5.005,-38.392,0,0,0,
,-0.099,-0.98,-0.229,13.183,-4.273,-48.035,0,0,0,
,-0.094,-1.004,-0.237,-5.555,-10.376,-39.551,0,0,0,
,-0.103,-0.981,-0.235,-24.781,-16.907,-33.081,0,0,0,
,-0.111,-0.973,-0.237,-13.245,-15.381,-39.002,0,0,0,
,-0.107,-0.983,-0.236,0.244,-16.175,-45.289,0,0,0,
,-0.103,-0.987,-0.238,-9.583,-19.043,-42.115,0,0,0,
,-0.101,-0.992,-0.246,-24.292,-17.212,-35.462,0,0,0,
,-0.119,-0.983,-0.247,-22.4,-20.02,-34.974,0,0,0,
,-0.115,-0.98,-0.241,-16.419,-11.841,-36.499,0,0,0,
,-0.114,-0.976,-0.24,-2.503,-8.545,-39.978,0,0,0,
,-0.116,-0.978,-0.237,2.624,-3.724,-39.978,0,0,0,
,-0.111,-0.981,-0.245,-0.123,-0.733,-39.917,0,0,0,
,-0.116,-0.982,-0.245,-1.893,2.807,-36.927,0,0,0,
,-0.118,-0.98,-0.246,-5.31,10.253,-36.133,0,0,0,
,-0.118,-0.979,-0.244,-11.109,14.953,-26.795,0,0,0,
,-0.114,-0.978,-0.241,-21.668,17.822,-20.386,0,0,0,
,-0.114,-0.974,-0.242,-24.476,19.287,-14.771,0,0,0,
,-0.11,-0.976,-0.247,-19.593,21.484,-7.203,0,0,0,
,-0.115,-0.961,-0.244,10.498,20.446,-22.767,0,0,0,
,-0.11,-0.984,-0.25,18.493,24.78,-24.903,0,0,0,
,-0.099,-0.995,-0.28,8.667,23.681,-26.062,0,0,0,
,-0.102,-0.974,-0.244,7.446,22.033,-32.044,0,0,0,
,-0.096,-0.976,-0.24,19.653,19.348,-37.049,0,0,0,
,-0.097,-0.988,-0.242,5.432,13.977,-40.589,0,0,0,
,-0.102,-0.973,-0.243,-10.01,10.131,-52.613,0,0,0,
,-0.107,-0.969,-0.247,-7.081,9.826,-57.618,0,0,0,
,-0.1,-0.985,-0.251,-2.991,3.54,-51.392,0,0,0,
,-0.105,-0.98,-0.252,-1.893,1.037,-19.654,0,0,0,
,-0.117,-0.985,-0.246,-13.489,1.464,-36.377,0,0,0,
,-0.114,-0.982,-0.248,-15.32,2.075,-31.006,0,0,0,
,-0.118,-0.979,-0.242,-12.696,2.441,-33.997,0,0,0,
,-0.123,-0.975,-0.246,-5.433,3.967,-38.086,0,0,0,
,-0.123,-0.974,-0.22,-1.77,7.141,-33.692,0,0,0,
,-0.12,-0.973,-0.253,2.929,6.469,-29.847,0,0,0,
,-0.117,-0.976,-0.256,-1.954,9.033,-19.165,0,0,0,
,-0.115,-0.979,-0.26,-16.358,11.962,-13.672,0,0,0,
,-0.11,-0.973,-0.253,-29.786,15.319,-6.958,0,0,0,
,-0.109,-0.97,-0.252,-35.523,15.319,-4.212,0,0,0,
,-0.107,-0.974,-0.248,-36.683,15.075,-3.479,0,0,0,
,-0.11,-0.972,-0.246,-36.805,11.474,-6.714,0,0,0,
,-0.113,-0.983,-0.244,-35.157,11.047,-19.104,0,0,0,
,-0.103,-0.981,-0.244,-29.297,9.643,-21.058,0,0,0,
,-0.103,-0.982,-0.245,-22.461,8.789,-27.161,0,0,0,
,-0.099,-0.978,-0.247,-15.259,8.178,-29.48,0,0,0,
,-0.094,-0.981,-0.248,-8.728,3.051,-36.133,0,0,0,
,-0.099,-0.982,-0.246,-1.465,4.455,-39.612,0,0,0,
,-0.105,-0.983,-0.244,1.77,5.249,-46.387,0,0,0,
,-0.107,-0.981,-0.249,6.713,5.249,-49.195,0,0,0,
,-0.108,-0.98,-0.247,5.554,5.676,-50.721,0,0,0,
,-0.107,-0.978,-0.251,2.502,4.028,-51.27,0,0,0,
,-0.107,-0.98,-0.254,-4.09,7.019,-43.763,0,0,0,
,-0.11,-0.976,-0.253,-9.217,9.094,-42.603,0,0,0,
,-0.111,-0.97,-0.256,-7.264,11.535,-41.871,0,0,0,
,-0.113,-0.972,-0.258,-9.583,10.253,-37.659,0,0,0,
,-0.114,-0.975,-0.256,-17.701,15.197,-34.974,0,0,0,
,-0.119,-0.969,-0.252,-23.194,10.864,-32.837,0,0,0,
,-0.112,-0.97,-0.25,-25.086,11.291,-27.1,0,0,0,
,-0.112,-0.972,-0.247,-19.898,8.178,-23.438,0,0,0,
,-0.111,-0.979,-0.253,-12.085,8.85,-21.729,0,0,0,
,-0.11,-0.981,-0.251,-14.893,8.3,-19.471,0,0,0,
,-0.112,-0.981,-0.249,-17.823,9.826,-18.189,0,0,0,
,-0.112,-0.975,-0.25,-18.006,11.413,-0.245,0,0,0,
,-0.113,-0.976,-0.254,-22.889,12.146,-11.78,0,0,0,
,-0.109,-0.979,-0.282,-29.602,10.559,-8.851,0,0,0,
,-0.108,-0.979,-0.252,-34.729,11.169,-8.606,0,0,0,
,-0.107,-0.983,-0.247,-38.331,16.601,-9.156,0,0,0,
,-0.106,-0.98,-0.251,-38.514,13.122,-7.813,0,0,0,
,-0.106,-0.975,-0.248,-35.401,13.977,-12.696,0,0,0,
,-0.102,-0.976,-0.245,-31.739,12.695,-21.18,0,0,0,
,-0.095,-0.981,-0.244,-29.786,11.535,-25.269,0,0,0,
,-0.096,-0.983,-0.241,-23.621,9.643,-35.157,0,0,0,
,-0.097,-0.98,-0.238,-13.611,5.432,-42.542,0,0,0,
,-0.101,-0.982,-0.241,-0.733,4.76,-49.012,0,0,0,
,-0.104,-0.977,-0.245,10.192,3.112,-54.932,0,0,0,
,-0.105,-0.978,-0.243,13.794,-0.123,-56.946,0,0,0,
,-0.105,-0.991,-0.247,-1.221,-1.282,-46.814,0,0,0,
,-0.109,-0.97,-0.252,-6.958,-3.235,-41.016,0,0,0,
,-0.115,-0.976,-0.258,-10.682,-2.137,-34.79,0,0,0,
,-0.117,-0.974,-0.253,-18.921,-0.55,-27.832,0,0,0,
,-0.114,-0.976,-0.248,-18.311,0.549,-26.185,0,0,0,
,-0.111,-0.978,-0.251,-18.555,3.418,-24.842,0,0,0,
,-0.11,-0.977,-0.251,-22.767,6.286,-20.813,0,0,0,
,-0.107,-0.98,-0.247,-20.02,5.065,-19.837,0,0,0,
,-0.105,-0.978,-0.249,-15.442,8.422,-18.067,0,0,0,
,-0.106,-0.977,-0.25,-14.71,8.483,-22.583,0,0,0,
,-0.103,-0.98,-0.249,-14.71,10.437,-25.025,0,0,0,
,-0.106,-0.981,-0.249,-16.053,12.573,-27.283,0,0,0,
,-0.105,-0.98,-0.248,-20.508,12.512,-28.626,0,0,0,
,-0.102,-0.977,-0.247,-20.203,12.207,-28.504,0,0,0,
,-0.106,-0.98,-0.246,-21.912,9.887,-46.509,0,0,0,
,-0.105,-0.977,-0.246,-20.203,15.747,-32.349,0,0,0,
,-0.103,-0.978,-0.245,-13.428,11.84,-31.8,0,0,0,
,-0.105,-0.977,-0.248,-9.888,11.169,-33.265,0,0,0,
,-0.109,-0.982,-0.247,-8.789,10.192,-32.349,0,0,0,
,-0.106,-0.982,-0.249,-12.757,10.131,-28.931,0,0,0,
,-0.109,-0.982,-0.248,-19.288,12.512,-30.396,0,0,0,
,-0.108,-0.978,-0.25,-24.353,13.183,-26.551,0,0,0,
,-0.107,-0.978,-0.248,-25.086,13.427,-26.917,0,0,0,
,-0.103,-0.978,-0.246,-21.485,8.117,-26.368,0,0,0,
,-0.103,-0.979,-0.245,-17.64,10.437,-26.429,0,0,0,
,-0.105,-0.977,-0.247,-15.137,10.437,-28.626,0,0,0,
,-0.104,-0.975,-0.249,-11.963,5.737,-29.664,0,0,0,
,-0.104,-0.975,-0.249,-12.696,7.934,-31.556,0,0,0,
,-0.106,-0.979,-0.246,-16.419,4.699,-31.861,0,0,0,
,-0.108,-0.98,-0.246,-14.466,9.521,-33.387,0,0,0,
,-0.106,-0.98,-0.245,-13.794,3.051,-34.852,0,0,0,
,-0.106,-0.975,-0.247,-9.827,5.188,-35.096,0,0,0,
,-0.105,-0.98,-0.248,-9.705,4.211,-35.157,0,0,0,
,-0.107,-0.976,-0.246,-8.606,4.455,-34.363,0,0,0,
,-0.106,-0.98,-0.247,-12.269,2.868,-31.067,0,0,0,
,-0.104,-0.974,-0.251,-17.395,4.638,-30.091,0,0,0,
,-0.105,-0.978,-0.247,-15.32,5.981,-31.373,0,0,0,
,-0.107,-0.977,-0.248,-18.372,6.164,-30.396,0,0,0,
,-0.106,-0.979,-0.245,-19.532,5.798,-29.725,0,0,0,
,-0.104,-0.973,-0.249,-13.428,4.333,-28.809,0,0,0,
,-0.105,-0.981,-0.249,-11.597,5.798,-29.175,0,0,0,
,-0.108,-0.977,-0.25,-15.87,3.723,-29.725,0,0,0,
,-0.105,-0.978,-0.248,-17.212,6.042,-31.373,0,0,0,
,-0.109,-0.98,-0.25,-16.602,7.141,-29.602,0,0,0,
,-0.108,-0.98,-0.249,-21.241,6.774,-26.246,0,0,0,
,-0.11,-0.976,-0.249,-20.569,11.047,-21.973,0,0,0,
,-0.105,-0.976,-0.247,-21.241,10.681,-18.067,0,0,0,
,-0.1,-0.978,-0.244,-18.738,9.826,-17.456,0,0,0,
,-0.102,-0.979,-0.247,-15.442,10.315,-19.532,0,0,0,
,-0.101,-0.981,-0.248,-14.039,8.911,-23.621,0,0,0,
,-0.101,-0.981,-0.247,-14.71,9.765,-27.894,0,0,0,
,-0.102,-0.979,-0.247,-12.574,9.399,-32.227,0,0,0,
,-0.101,-0.977,-0.248,-10.376,8.117,-32.715,0,0,0,
,-0.102,-0.98,-0.245,-13.245,7.324,-33.997,0,0,0,
,-0.106,-0.979,-0.247,-19.288,9.704,-33.692,0,0,0,
,-0.103,-0.985,-0.246,-34.058,6.347,-28.992,0,0,0,
,-0.104,-0.973,-0.244,-32.837,7.446,-26.49,0,0,0,
,-0.1,-0.985,-0.256,-42.786,9.216,-26.123,0,0,0,
,-0.093,-0.973,-0.257,-59.937,-9.888,-31.8,0,0,0,
,-0.085,-1.004,-0.295,-162.171,-19.654,-24.842,0,0,0,
,-0.092,-1.023,-0.275,-339.844,-51.209,-3.663,0,0,0,
,-0.09,-1.002,-0.249,-501.221,-61.219,41.565,0,0,0,
,-0.071,-1.005,-0.207,-624.573,-58.167,60.546,0,0,0,
,-0.023,-1.105,-0.189,-837.769,-88.746,73.486,0,0,0,
,0.005,-1.123,-0.147,-1125.367,-103.821,104.004,0,0,0,
,-0.014,-1.09,-0.122,-1533.082,-133.728,142.456,0,0,0,
,-0.032,-1.01,-0.107,-1786.622,-129.639,143.127,0,0,0,
,-0.029,-0.945,0.003,-1694.031,-119.385,87.89,0,0,0,
,-0.067,-0.858,0.12,-1255.616,-85.144,45.776,0,0,0,
,-0.096,-0.864,0.187,-687.806,4.577,22.155,0,0,0,
,-0.031,-0.898,0.179,-174.683,38.513,-20.386,0,0,0,
,0.12,-0.953,0.23,-14.039,86.608,-15.748,0,0,0,
,0.081,-1.107,0.174,-82.825,156.128,-74.463,0,0,0,
,-0.039,-1.181,0.206,-235.291,194.213,-185.486,0,0,0,
,-0.108,-1.224,0.261,-171.998,235.168,-318.787,0,0,0,
,-0.156,-1.376,0.365,155.151,286.377,-543.58,0,0,0,
,-0.191,-1.797,0.386,544.799,301.147,-839.234,0,0,0,
,-0.298,-2.289,0.344,565.49,263.549,-1078.125,0,0,0,
,-0.366,-2.568,0.326,37.841,108.581,-1382.325,0,0,0,
,-0.288,-2.17,0.173,120.239,-90.821,-1999.817,0,0,0,
,-0.303,-2.28,0.044,702.331,-36.377,-2000,0,0,0,
,-0.279,-2.404,0.005,823.486,58.96,-2000,0,0,0,
,-0.178,-2.116,-0.055,422.424,123.657,-2000,0,0,0,
,-0.004,-1.621,-0.087,-10.926,172.729,-2000,0,0,0,
,0.173,-1.132,-0.174,-306.824,232.299,-2000,0,0,0,
,0.362,-0.659,-0.26,-546.753,265.197,-2000,0,0,0,
,0.536,-0.182,-0.271,-698.182,281.128,-2000,0,0,0,
,0.726,0.388,-0.208,-731.995,265.38,-2000,0,0,0,
,0.628,1.787,0.066,-794.251,293.029,-1870.484,0,0,0,
,0.331,2.115,0.16,-698.975,275.146,-1267.701,0,0,0,
,0.008,2.266,0.31,-442.505,221.313,-429.2,0,0,0,
,-0.057,2.236,0.472,-82.093,131.836,518.859,0,0,0,
,0.085,1.879,0.466,395.568,40.527,1363.708,0,0,0,
,0.177,1.405,0.337,758.484,-28.565,1999.694,0,0,0,
,0.226,1.033,0.254,967.712,-141.785,1999.694,0,0,0,
,0.225,0.546,0.21,881.836,-212.464,1999.694,0,0,0,
,0.235,0.134,0.113,528.503,-230.652,1999.694,0,0,0,
,0.324,-0.254,-0.083,270.874,-214.356,1999.694,0,0,0,
,0.435,-0.802,-0.132,390.075,-131.104,1999.694,0,0,0,
,0.202,-1.381,-0.165,578.308,135.254,1999.694,0,0,0,
,-0.115,-2.098,-0.255,568.298,214.477,1999.694,0,0,0,
,-0.262,-2.674,-0.323,397.644,171.142,1999.694,0,0,0,
,-0.393,-2.783,-0.148,-130.616,109.68,1855.468,0,0,0,
,-0.539,-2.442,0.088,-552.979,58.532,1437.805,0,0,0,
,-0.515,-2.051,0.178,-467.957,39.917,1085.449,0,0,0,
,-0.382,-1.429,0.296,-9.705,-45.166,707.153,0,0,0,
,-0.304,-1.157,0.274,34.484,-112,616.638,0,0,0,
,-0.234,-0.981,0.241,48.034,-144.776,609.436,0,0,0,
,-0.16,-0.926,0.174,-43.58,-157.715,638.916,0,0,0,
,-0.106,-0.9,0.158,-22.522,-141.48,655.7,0,0,0,
,-0.046,-0.964,0.153,197.876,-91.37,690.673,0,0,0,
,-0.089,-1.199,0.41,576.538,3.845,683.41,0,0,0,
,0.124,-4,0.444,1195.861,27.404,666.198,0,0,0,
,0.001,-1.106,-0.075,297.729,103.454,-119.69,0,0,0,
,-0.027,-1.073,-0.129,-9.095,13.488,-131.836,0,0,0,
,-0.051,-0.928,-0.052,-74.769,-17.762,-54.444,0,0,0,
,-0.058,-1.15,0.019,-105.286,-17.029,-53.711,0,0,0,
,-0.089,-1.023,0.073,-121.766,-16.785,-53.956,0,0,0,
,-0.08,-0.993,0.08,-72.693,13.794,-23.499,0,0,0,
,-0.04,-0.993,0.067,-11.17,6.897,-31.311,0,0,0,
,-0.034,-0.964,0.075,67.077,-34.79,-36.194,0,0,0,
,-0.04,-0.996,0.071,149.719,-71.717,-48.462,0,0,0,
,-0.059,-1.016,0.032,173.584,-91.431,-76.05,0,0,0,
,-0.075,-1.032,0.014,136.352,-94.788,-90.271,0,0,0,
,-0.08,-1.042,-0.005,94.909,-86.243,-75.684,0,0,0,
,-0.071,-1.024,-0.008,45.41,-63.904,-44.251,0,0,0,
,-0.075,-1.013,-0.013,14.77,-45.289,-18.738,0,0,0,
,-0.083,-1.015,-0.008,-21.241,-28.26,-14.283,0,0,0,
,-0.087,-1.02,0.005,-53.04,-18.128,-25.513,0,0,0,
,-0.083,-1.011,0.015,-81.727,-11.475,-31.617,0,0,0,
,-0.074,-1.009,0.022,-72.022,0.305,-20.752,0,0,0,
,-0.069,-1.007,0.021,-46.875,10.62,-6.226,0,0,0,
,-0.066,-1.007,0.028,-25.452,16.723,-10.01,0,0,0,
,-0.068,-1.005,0.029,-10.682,15.258,-22.889,0,0,0,
,-0.068,-1.01,0.015,5.859,16.479,-29.114,0,0,0,
,-0.061,-1.024,-0.003,-16.846,30.09,-36.194,0,0,0,
,-0.071,-1.024,0.005,-68.665,38.269,-65.796,0,0,0,
,-0.077,-1.018,0.033,-109.681,57.373,-82.276,0,0,0,
,-0.063,-1.08,0.065,-89.539,85.571,-68.36,0,0,0,
,-0.046,-1.091,0.047,-17.151,127.075,-60.852,0,0,0,
,-0.021,-1.238,-0.019,38.269,165.954,-185.975,0,0,0,
,-0.171,-1.63,-0.018,317.932,134.277,-438.294,0,0,0,
,-0.021,-1.833,-0.016,127.685,116.821,-507.447,0,0,0,
,-0.125,-1.774,0.015,-318.543,113.83,-655.03,0,0,0,
,-0.179,-1.491,0.079,-759.827,120.849,-790.955,0,0,0,
,-0.241,-1.348,0.027,-823.365,155.09,-864.136,0,0,0,
,-0.266,-1.19,0.041,-735.169,186.95,-860.413,0,0,0,
,-0.303,-1.072,0.057,-549.5,221.496,-837.83,0,0,0,
,-0.321,-1.02,0.078,-493.409,249.755,-765.076,0,0,0,
,-0.332,-0.949,0.093,-537.842,274.78,-689.27,0,0,0,
,-0.345,-0.843,0.123,-614.869,291.626,-631.287,0,0,0,
,-0.336,-0.796,0.163,-720.093,301.269,-569.825,0,0,0,
,-0.32,-0.764,0.145,-823.243,332.641,-462.159,0,0,0,
,-0.322,-0.611,0.123,-833.985,339.782,-329.529,0,0,0,
,-0.355,-0.474,0.089,-805.42,351.806,-273.377,0,0,0,
,-0.367,-0.441,0.077,-667.054,379.15,-276.001,0,0,0,
,-0.33,-0.478,0.053,-529.48,429.992,-214.356,0,0,0,
,-0.291,-0.536,0.117,-476.197,403.808,-143.982,0,0,0,
,-0.283,-0.58,0.229,-398.682,367.981,-142.518,0,0,0,
,-0.297,-0.643,0.288,-327.82,338.256,-138.184,0,0,0,
,-0.301,-0.738,0.306,-297.12,315.185,-132.752,0,0,0,
,-0.284,-0.748,0.355,-346.192,277.16,-92.957,0,0,0,
,-0.271,-0.696,0.444,-410.462,194.763,-76.905,0,0,0,
,-0.287,-0.701,0.529,-380.494,128.54,-45.289,0,0,0,
,-0.31,-0.68,0.553,-337.769,76.782,-16.846,0,0,0,
,-0.331,-0.699,0.636,-268.372,36.193,0.488,0,0,0,
,-0.395,-0.693,0.648,-315.003,32.104,20.813,0,0,0,
,-0.427,-0.657,0.625,-355.347,25.512,31.372,0,0,0,
,-0.438,-0.667,0.665,-313.05,19.226,61.462,0,0,0,
,-0.428,-0.651,0.697,-234.131,31.372,86.914,0,0,0,
,-0.407,-0.677,0.694,-137.024,59.204,102.6,0,0,0,
,-0.388,-0.711,0.7,-47.059,74.646,129.394,0,0,0,
,-0.374,-0.8,0.721,-29.602,87.463,153.564,0,0,0,
,-0.368,-0.86,0.709,-160.767,105.346,174.865,0,0,0,
,-0.337,-0.827,0.709,-315.857,119.323,165.344,0,0,0,
,-0.307,-0.851,0.689,-405.03,120.849,157.592,0,0,0,
,-0.293,-0.795,0.693,-486.634,119.506,157.226,0,0,0,
,-0.26,-0.728,0.678,-507.569,114.196,121.704,0,0,0,
,-0.249,-0.736,0.692,-462.586,107.116,88.989,0,0,0,
,-0.249,-0.718,0.723,-395.935,100.525,71.411,0,0,0,
,-0.235,-0.717,0.727,-298.523,99.304,53.405,0,0,0,
,-0.241,-0.709,0.733,-187.5,103.82,58.41,0,0,0,
,-0.236,-0.671,0.72,-117.92,112.976,57.678,0,0,0,
,-0.223,-0.648,0.68,-57.679,123.657,45.471,0,0,0,
,-0.201,-0.684,0.67,-33.936,112.548,34.79,0,0,0,
,-0.2,-0.709,0.674,-46.326,105.346,26.733,0,0,0,
,-0.207,-0.699,0.689,-54.627,108.337,23.986,0,0,0,
,-0.208,-0.678,0.687,-42.969,115.539,11.718,0,0,0,
,-0.199,-0.683,0.662,-0.061,121.826,3.295,0,0,0,
,-0.211,-0.68,0.661,41.748,129.699,-2.442,0,0,0,
,-0.218,-0.687,0.667,68.725,136.413,-13.672,0,0,0,
,-0.211,-0.685,0.664,102.661,143.249,-19.715,0,0,0,
,-0.199,-0.699,0.655,153.991,156.189,-26.612,0,0,0,
,-0.198,-0.721,0.668,210.327,128.173,-16.419,0,0,0,
,-0.2,-0.741,0.681,210.022,126.892,-31.128,0,0,0,
,-0.199,-0.762,0.687,196.411,126.587,-36.805,0,0,0,
,-0.199,-0.77,0.684,173.095,126.098,-53.406,0,0,0,
,-0.183,-0.781,0.662,104.919,121.093,-62.561,0,0,0,
,-0.194,-0.759,0.671,90.637,118.042,-64.454,0,0,0,
,-0.189,-0.758,0.67,78.979,125.427,-77.393,0,0,0,
,-0.194,-0.769,0.673,79.834,138.488,-87.281,0,0,0,
,-0.183,-0.768,0.691,69.213,146.118,-87.586,0,0,0,
,-0.174,-0.771,0.688,55.419,155.639,-94.971,0,0,0,
,-0.167,-0.76,0.684,55.603,160.339,-94.971,0,0,0,
,-0.16,-0.746,0.679,65.734,161.987,-100.769,0,0,0,
,-0.152,-0.752,0.681,100.586,158.508,-101.441,0,0,0,
,-0.135,-0.764,0.69,139.282,149.841,-99.244,0,0,0,
,-0.113,-0.79,0.7,166.076,138.305,-110.962,0,0,0,
,-0.138,-0.826,0.702,151.306,129.516,-118.226,0,0,0,
,-0.126,-0.794,0.667,78.369,133.728,-114.624,0,0,0,
,-0.127,-0.74,0.646,93.017,131.347,-119.202,0,0,0,
,-0.125,-0.754,0.644,144.348,134.704,-117.249,0,0,0,
,-0.119,-0.777,0.64,153.564,136.108,-122.193,0,0,0,
,-0.109,-0.788,0.635,157.837,140.38,-118.897,0,0,0,
,-0.11,-0.793,0.641,152.893,139.465,-113.709,0,0,0,
,-0.111,-0.8,0.637,142.028,140.075,-120.484,0,0,0,
,-0.117,-0.807,0.634,133.911,136.718,-121.582,0,0,0,
,-0.115,-0.815,0.627,124.023,131.164,-122.437,0,0,0,
,-0.113,-0.825,0.616,111.755,124.939,-128.663,0,0,0,
,-0.123,-0.827,0.611,105.835,118.103,-133.057,0,0,0,
,-0.132,-0.813,0.614,110.778,113.647,-138.489,0,0,0,
,-0.139,-0.805,0.611,142.578,113.586,-140.381,0,0,0,
,-0.14,-0.814,0.603,161.743,113.952,-141.846,0,0,0,
,-0.141,-0.82,0.595,161.987,116.882,-150.025,0,0,0,
,-0.146,-0.82,0.59,158.63,111.023,-147.95,0,0,0,
,-0.148,-0.831,0.584,149.353,106.506,-147.339,0,0,0,
,-0.155,-0.827,0.584,124.267,104.126,-143.25,0,0,0,
,-0.157,-0.818,0.591,103.088,101.257,-141.785,0,0,0,
,-0.159,-0.814,0.583,95.52,102.722,-138.367,0,0,0,
,-0.167,-0.811,0.579,90.82,96.801,-132.996,0,0,0,
,-0.165,-0.812,0.579,87.768,90.82,-123.536,0,0,0,
,-0.166,-0.808,0.585,78.43,83.557,-119.69,0,0,0,
,-0.17,-0.821,0.594,81.604,68.725,-121.033,0,0,0,
,-0.176,-0.834,0.595,74.34,59.509,-114.624,0,0,0,
,-0.179,-0.845,0.581,62.194,51.269,-113.526,0,0,0,
,-0.185,-0.842,0.583,53.833,38.818,-112.793,0,0,0,
,-0.184,-0.83,0.578,50.231,28.32,-112.366,0,0,0,
,-0.182,-0.847,0.576,53.588,18.92,-113.404,0,0,0,
,-0.187,-0.856,0.575,56.091,11.962,-105.713,0,0,0,
,-0.194,-0.845,0.576,54.626,8.178,-102.906,0,0,0,
,-0.189,-0.85,0.552,69.519,18.676,-98.694,0,0,0,
,-0.188,-0.85,0.548,57.861,19.409,-95.093,0,0,0,
,-0.193,-0.817,0.551,55.236,17.456,-91.309,0,0,0,
,-0.204,-0.845,0.548,48.95,11.23,-90.088,0,0,0,
,-0.209,-0.852,0.55,45.959,6.042,-91.37,0,0,0,
,-0.211,-0.855,0.548,31.921,3.601,-83.619,0,0,0,
,-0.214,-0.858,0.549,19.592,-3.785,-80.14,0,0,0,
,-0.215,-0.863,0.553,-1.648,-7.874,-71.167,0,0,0,
,-0.213,-0.864,0.571,-24.476,-7.996,-68.604,0,0,0,
,-0.215,-0.867,0.579,-41.443,-16.541,-65.918,0,0,0,
,-0.216,-0.867,0.582,-56.885,-27.161,-59.205,0,0,0,
,-0.231,-0.852,0.581,-120.179,-95.215,-14.283,0,0,0,
,-0.245,-0.848,0.583,-137.635,-109.375,5.31,0,0,0,
,-0.253,-0.858,0.568,-195.679,-123.719,20.385,0,0,0,
,-0.257,-0.828,0.552,-248.597,-143.067,34.24,0,0,0,
,-0.269,-0.816,0.548,-275.574,-159.18,35.766,0,0,0,
,-0.276,-0.831,0.547,-287.293,-170.35,48.4,0,0,0,
,-0.278,-0.822,0.556,-315.857,-181.153,59.57,0,0,0,
,-0.286,-0.804,0.564,-328.797,-187.439,63.11,0,0,0,
,-0.291,-0.787,0.569,-312.561,-191.346,73.059,0,0,0,
,-0.286,-0.781,0.561,-306.641,-189.942,77.697,0,0,0,
,-0.303,-0.764,0.502,-330.933,-198.365,103.332,0,0,0,
,-0.287,-0.764,0.573,-356.324,-220.154,93.139,0,0,0,
,-0.267,-0.735,0.567,-371.705,-213.501,127.38,0,0,0,
,-0.282,-0.697,0.58,-340.271,-219.849,107.605,0,0,0,
,-0.286,-0.692,0.565,-285.767,-211.853,106.262,0,0,0,
,-0.278,-0.679,0.576,-243.714,-211.06,102.417,0,0,0,
,-0.287,-0.671,0.601,-202.21,-203.248,98.632,0,0,0,
,-0.302,-0.654,0.601,-172.059,-193.238,93.017,0,0,0,
,-0.315,-0.678,0.601,-104.432,-177.796,95.825,0,0,0,
,-0.316,-0.704,0.602,-119.996,-172.242,104.98,0,0,0,
,-0.316,-0.722,0.623,-152.466,-174.5,106.14,0,0,0,
,-0.316,-0.749,0.633,-195.13,-166.81,108.032,0,0,0,
,-0.3,-0.762,0.647,-249.512,-166.871,107.788,0,0,0,
,-0.323,-0.742,0.666,-287.415,-159.18,79.773,0,0,0,
,-0.327,-0.728,0.674,-268.738,-145.63,74.768,0,0,0,
,-0.322,-0.715,0.681,-244.507,-125.245,70.556,0,0,0,
,-0.304,-0.731,0.667,-228.394,-108.46,70.678,0,0,0,
,-0.304,-0.707,0.69,-242.432,-81.482,31.494,0,0,0,
,-0.306,-0.704,0.7,-215.332,-68.177,17.517,0,0,0,
,-0.305,-0.691,0.711,-191.529,-47.364,2.99,0,0,0,
,-0.308,-0.672,0.706,-149.842,-35.279,-20.997,0,0,0,
,-0.315,-0.671,0.703,-91.553,-20.264,-35.279,0,0,0,
,-0.309,-0.646,0.698,6.103,2.929,-26.062,0,0,0,
,-0.305,-0.652,0.703,31.86,0.061,-17.701,0,0,0,
,-0.29,-0.666,0.708,43.701,5.92,-20.874,0,0,0,
,-0.268,-0.686,0.706,59.57,16.845,-18.799,0,0,0,
,-0.256,-0.698,0.702,75.927,21.118,-35.584,0,0,0,
,-0.256,-0.73,0.708,66.833,20.874,-38.575,0,0,0,
,-0.249,-0.689,0.707,74.707,22.949,-36.133,0,0,0,
,-0.254,-0.697,0.709,113.647,28.93,-44.373,0,0,0,
,-0.238,-0.708,0.707,127.99,35.034,-50.599,0,0,0,
,-0.221,-0.722,0.717,164.734,50.842,-62.684,0,0,0,
,-0.164,-0.805,0.698,203.003,64.697,-85.083,0,0,0,
,-0.166,-0.818,0.7,175.964,57.495,-95.948,0,0,0,
,-0.175,-0.811,0.702,131.53,55.175,-108.338,0,0,0,
,-0.19,-0.808,0.727,82.824,54.504,-122.925,0,0,0,
,-0.198,-0.786,0.711,25.146,61.462,-124.207,0,0,0,
,-0.218,-0.77,0.703,46.752,45.837,-142.212,0,0,0,
,-0.232,-0.771,0.702,21.545,50.598,-143.067,0,0,0,
,-0.244,-0.762,0.702,-4.639,52.673,-139.71,0,0,0,
,-0.253,-0.754,0.704,-12.635,57.617,-137.146,0,0,0,
,-0.259,-0.768,0.713,-35.767,49.377,-143.128,0,0,0,
,-0.268,-0.751,0.704,-55.176,40.222,-148.072,0,0,0,
,-0.276,-0.749,0.699,-59.876,32.226,-154.114,0,0,0,
,-0.291,-0.743,0.695,-64.331,30.517,-161.683,0,0,0,
,-0.301,-0.733,0.698,-62.195,29.419,-169.312,0,0,0,
,-0.311,-0.706,0.69,-55.42,29.113,-181.519,0,0,0,
,-0.341,-0.673,0.679,-25.757,26.245,-197.022,0,0,0,
,-0.359,-0.653,0.659,15.991,16.418,-204.651,0,0,0,
,-0.379,-0.629,0.652,68.847,31.982,-207.154,0,0,0,
,-0.411,-0.608,0.633,164.795,37.109,-201.477,0,0,0,
,-0.437,-0.599,0.623,243.408,53.955,-186.951,0,0,0,
,-0.443,-0.625,0.597,268.432,77.697,-180.664,0,0,0,
,-0.451,-0.605,0.564,342.346,103.271,-157.715,0,0,0,
,-0.452,-0.648,0.564,366.577,114.929,-148.987,0,0,0,
,-0.442,-0.666,0.567,348.877,116.943,-127.442,0,0,0,
,-0.437,-0.671,0.568,302.856,117.981,-109.131,0,0,0,
,-0.427,-0.675,0.573,257.08,121.521,-89.722,0,0,0,
,-0.415,-0.682,0.583,221.435,120.666,-66.59,0,0,0,
,-0.354,-0.774,0.562,116.211,107.299,-13.062,0,0,0,
,-0.34,-0.798,0.579,62.866,100.586,0.488,0,0,0,
,-0.328,-0.796,0.581,32.104,106.201,-3.418,0,0,0,
,-0.33,-0.79,0.603,35.888,87.89,-11.17,0,0,0,
,-0.323,-0.819,0.63,46.691,82.641,-5.677,0,0,0,
,-0.312,-0.812,0.635,20.629,85.51,-1.404,0,0,0,
,-0.302,-0.812,0.631,7.812,88.867,-1.526,0,0,0,
,-0.303,-0.794,0.652,7.995,90.21,5.554,0,0,0,
,-0.308,-0.792,0.645,5.737,89.843,8.728,0,0,0,
,-0.311,-0.777,0.638,7.019,82.885,10.681,0,0,0,
,-0.307,-0.775,0.641,20.813,69.519,21.911,0,0,0,
,-0.297,-0.801,0.632,-5.249,56.762,32.348,0,0,0,
,-0.292,-0.804,0.611,-40.711,43.518,42.846,0,0,0,
,-0.281,-0.813,0.609,-94.544,29.541,62.5,0,0,0,
,-0.279,-0.82,0.607,-178.467,11.047,59.448,0,0,0,
,-0.259,-0.794,0.613,-249.756,2.258,66.223,0,0,0,
,-0.257,-0.766,0.617,-273.316,-15.748,65.979,0,0,0,
,-0.258,-0.756,0.619,-285.584,-25.879,65.246,0,0,0,
,-0.249,-0.749,0.625,-294.922,-39.551,71.472,0,0,0,
,-0.253,-0.737,0.636,-299.195,-47.059,73.303,0,0,0,
,-0.243,-0.723,0.645,-275.574,-48.645,83.068,0,0,0,
,-0.238,-0.719,0.657,-239.014,-48.768,86.547,0,0,0,
,-0.235,-0.725,0.666,-196.778,-46.204,87.89,0,0,0,
,-0.224,-0.727,0.67,-154.908,-48.523,88.44,0,0,0,
,-0.229,-0.73,0.675,-128.663,-46.143,93.383,0,0,0,
,-0.214,-0.74,0.675,-110.352,-48.706,98.388,0,0,0,
,-0.213,-0.743,0.684,-120.911,-51.575,103.332,0,0,0,
,-0.206,-0.742,0.692,-144.532,-61.89,101.867,0,0,0,
,-0.205,-0.719,0.696,-146.668,-71.045,101.501,0,0,0,
,-0.193,-0.717,0.7,-115.113,-79.285,103.21,0,0,0,
,-0.174,-0.729,0.697,-89.417,-90.149,99.182,0,0,0,
,-0.161,-0.749,0.692,-62.867,-101.441,95.398,0,0,0,
,-0.159,-0.76,0.699,-55.237,-114.075,91.186,0,0,0,
,-0.161,-0.764,0.675,-73.06,-124.817,80.2,0,0,0,
,-0.156,-0.761,0.681,-88.868,-141.968,77.148,0,0,0,
,-0.169,-0.753,0.676,-109.436,-157.654,73.669,0,0,0,
,-0.173,-0.755,0.677,-127.076,-172.608,64.025,0,0,0,
,-0.192,-0.749,0.669,-156.006,-179.566,62.194,0,0,0,
,-0.199,-0.76,0.662,-167.115,-184.937,57.861,0,0,0,
,-0.205,-0.769,0.666,-205.14,-185.791,55.725,0,0,0,
,-0.217,-0.759,0.672,-229.432,-176.27,46.325,0,0,0,
,-0.227,-0.742,0.677,-225.037,-172.852,43.273,0,0,0,
,-0.242,-0.739,0.685,-204.773,-169.617,39.611,0,0,0,
,-0.25,-0.737,0.686,-213.501,-159.546,30.761,0,0,0,
,-0.261,-0.724,0.696,-208.863,-148.377,24.475,0,0,0,
,-0.265,-0.718,0.694,-212.342,-134.583,19.592,0,0,0,
,-0.274,-0.732,0.693,-236.145,-119.629,9.521,0,0,0,
,-0.28,-0.736,0.702,-297.486,-108.277,0.183,0,0,0,
,-0.276,-0.721,0.705,-350.892,-98.389,-3.174,0,0,0,
,-0.272,-0.695,0.718,-359.253,-91.187,-3.357,0,0,0,
,-0.289,-0.642,0.745,-305.054,-91.553,-20.386,0,0,0,
,-0.303,-0.629,0.753,-242.066,-82.703,-27.222,0,0,0,
,-0.31,-0.65,0.764,-214.356,-74.036,-23.194,0,0,0,
,-0.309,-0.662,0.763,-246.46,-61.89,-17.456,0,0,0,
,-0.313,-0.647,0.771,-301.514,-58.167,-10.193,0,0,0,
,-0.321,-0.615,0.784,-315.125,-54.261,-4.883,0,0,0,
,-0.323,-0.604,0.79,-295.838,-56.336,-18.86,0,0,0,
,-0.325,-0.608,0.789,-270.447,-54.322,-15.809,0,0,0,
,-0.323,-0.616,0.798,-260.132,-53.162,-27.344,0,0,0,
,-0.328,-0.598,0.796,-255.555,-51.697,-39.917,0,0,0,
,-0.357,-0.538,0.772,-227.234,-50.477,-72.51,0,0,0,
,-0.365,-0.604,0.83,-88.074,-71.717,-116.639,0,0,0,
,-0.351,-0.656,0.825,-121.399,-42.908,-89.234,0,0,0,
,-0.33,-0.578,0.799,-203.186,-26.612,-78.125,0,0,0,
,-0.358,-0.488,0.751,-83.558,-55.603,-96.375,0,0,0,
,-0.379,-0.483,0.768,-26.001,-62.806,-108.765,0,0,0,
,-0.379,-0.52,0.785,36.865,-41.016,-119.629,0,0,0,
,-0.373,-0.549,0.798,64.331,-31.311,-126.404,0,0,0,
,-0.373,-0.543,0.786,97.778,-14.527,-141.358,0,0,0,
,-0.389,-0.527,0.789,146.362,-17.701,-156.983,0,0,0,
,-0.406,-0.531,0.794,210.815,-1.831,-158.875,0,0,0,
,-0.437,-0.55,0.79,272.338,22.949,-174.012,0,0,0,
,-0.411,-0.568,0.782,296.203,28.625,-182.373,0,0,0,
,-0.417,-0.575,0.777,291.687,27.16,-190.857,0,0,0,
,-0.422,-0.594,0.758,269.836,36.743,-196.228,0,0,0,
,-0.421,-0.587,0.756,237.671,41.259,-194.092,0,0,0,
,-0.427,-0.578,0.743,215.82,61.95,-191.102,0,0,0,
,-0.424,-0.579,0.728,191.284,59.753,-191.04,0,0,0,
,-0.417,-0.572,0.723,168.274,63.415,-192.933,0,0,0,
,-0.414,-0.585,0.717,153.381,72.143,-190.003,0,0,0,
,-0.409,-0.583,0.701,131.469,83.801,-186.707,0,0,0,
,-0.404,-0.584,0.701,110.901,88.562,-187.806,0,0,0,
,-0.395,-0.596,0.708,91.125,98.999,-188.843,0,0,0,
,-0.381,-0.594,0.699,72.753,93.627,-185.181,0,0,0,
,-0.383,-0.592,0.696,45.044,83.068,-187.745,0,0,0,
,-0.39,-0.586,0.722,50.598,73.73,-183.655,0,0,0,
,-0.399,-0.578,0.732,63.049,73.73,-180.054,0,0,0,
,-0.402,-0.564,0.736,78.369,70.129,-181.397,0,0,0,
,-0.412,-0.55,0.728,123.291,63.72,-176.941,0,0,0,
,-0.428,-0.552,0.719,176.025,59.448,-172.974,0,0,0,
,-0.441,-0.548,0.709,228.698,51.94,-172.181,0,0,0,
,-0.46,-0.553,0.692,278.625,64.209,-173.584,0,0,0,
,-0.47,-0.55,0.67,322.509,82.092,-165.162,0,0,0,
,-0.479,-0.553,0.647,362.548,108.581,-161.255,0,0,0,
,-0.48,-0.569,0.634,400.879,125.122,-155.03,0,0,0,
,-0.481,-0.589,0.632,408.813,137.39,-139.1,0,0,0,
,-0.471,-0.604,0.638,392.151,159.729,-122.498,0,0,0,
,-0.447,-0.629,0.642,364.318,172.607,-103.76,0,0,0,
,-0.441,-0.633,0.643,318.786,170.959,-82.825,0,0,0,
,-0.438,-0.622,0.636,275.451,179.199,-72.266,0,0,0,
,-0.42,-0.667,0.644,250.366,177.917,-60.242,0,0,0,
,-0.389,-0.727,0.659,168.213,167.053,-44.19,0,0,0,
,-0.384,-0.737,0.681,65.795,154.785,-47.181,0,0,0,
,-0.385,-0.711,0.695,-6.348,147.277,-42.603,0,0,0,
,-0.383,-0.684,0.695,-12.146,142.761,-29.114,0,0,0,
,-0.38,-0.672,0.699,8.972,135.803,-15.198,0,0,0,
,-0.386,-0.666,0.706,18.066,128.54,2.441,0,0,0,
,-0.381,-0.658,0.702,26.306,127.99,14.099,0,0,0,
,-0.371,-0.676,0.698,52.978,122.192,56.518,0,0,0,
,-0.355,-0.691,0.69,34.668,119.445,77.148,0,0,0,
,-0.335,-0.726,0.685,-12.024,111.877,88.012,0,0,0,
,-0.325,-0.731,0.694,-64.942,104.065,97.595,0,0,0,
,-0.329,-0.69,0.693,-123.291,109.802,100.341,0,0,0,
,-0.32,-0.649,0.693,-116.944,109.924,112.671,0,0,0,
,-0.315,-0.629,0.701,-83.435,102.295,128.357,0,0,0,
,-0.251,-0.733,0.725,-42.664,85.632,157.531,0,0,0,
,-0.232,-0.774,0.745,-85.206,73.669,161.01,0,0,0,
,-0.214,-0.773,0.736,-285.035,0.671,118.713,0,0,0,
,-0.202,-0.765,0.751,-285.157,-11.719,113.586,0,0,0,
,-0.205,-0.75,0.746,-279.053,-14.954,98.816,0,0,0,
,-0.194,-0.745,0.738,-257.264,-18.982,87.158,0,0,0,
,-0.205,-0.719,0.733,-259.034,-19.104,79.528,0,0,0,
,-0.198,-0.694,0.735,-259.827,-23.926,63.232,0,0,0,
,-0.201,-0.666,0.742,-232.85,-56.702,72.57,0,0,0,
,-0.208,-0.661,0.744,-249.024,-63.172,72.876,0,0,0,
,-0.199,-0.643,0.738,-257.813,-67.688,85.937,0,0,0,
,-0.189,-0.632,0.733,-246.644,-79.163,92.834,0,0,0,
,-0.195,-0.607,0.728,-218.201,-88.074,100.341,0,0,0,
,-0.197,-0.613,0.742,-199.891,-97.29,102.356,0,0,0,
,-0.191,-0.622,0.753,-198.426,-98.755,101.745,0,0,0,
,-0.182,-0.634,0.75,-196.595,-96.863,92.956,0,0,0,
,-0.188,-0.641,0.752,-187.561,-109.192,97.961,0,0,0,
,-0.189,-0.64,0.771,-201.294,-112.671,90.698,0,0,0,
,-0.206,-0.642,0.777,-211.182,-114.319,83.19,0,0,0,
,-0.215,-0.637,0.795,-235.962,-112.854,80.078,0,0,0,
,-0.219,-0.624,0.796,-246.46,-109.62,82.275,0,0,0,
,-0.222,-0.614,0.806,-232.972,-115.723,78.002,0,0,0,
,-0.233,-0.6,0.817,-213.44,-117.92,71.411,0,0,0,
,-0.241,-0.591,0.813,-186.524,-114.991,65.124,0,0,0,
,-0.248,-0.593,0.818,-161.622,-116.333,63.659,0,0,0,
,-0.253,-0.588,0.82,-156.8,-113.953,58.166,0,0,0,
,-0.257,-0.567,0.828,-136.963,-116.272,56.762,0,0,0,
,-0.262,-0.553,0.822,-91.98,-118.164,49.316,0,0,0,
,-0.272,-0.568,0.829,-54.2,-120.911,43.884,0,0,0,
,-0.27,-0.568,0.816,-45.227,-119.324,41.442,0,0,0,
,-0.283,-0.575,0.812,-34.363,-121.399,37.353,0,0,0,
,-0.289,-0.588,0.808,-29.847,-124.512,36.804,0,0,0,
,-0.296,-0.587,0.797,-39.673,-128.357,25.756,0,0,0,
,-0.309,-0.586,0.794,-38.636,-141.114,23.803,0,0,0,
,-0.311,-0.624,0.786,-53.772,-139.466,22.277,0,0,0,
,-0.321,-0.597,0.781,-93.14,-137.207,12.695,0,0,0,
,-0.335,-0.577,0.778,-105.042,-129.334,6.591,0,0,0,
,-0.336,-0.565,0.776,-80.628,-110.169,-2.869,0,0,0,
,-0.347,-0.58,0.761,-53.65,-97.962,-20.691,0,0,0,
,-0.368,-0.574,0.761,-38.147,-88.562,-17.456,0,0,0,
,-0.378,-0.573,0.752,-36.072,-77.21,-19.471,0,0,0,
,-0.383,-0.564,0.742,-41.993,-68.604,-23.133,0,0,0,
,-0.399,-0.556,0.747,-40.162,-56.824,-34.302,0,0,0,
,-0.41,-0.556,0.745,-26.429,-41.077,-42.725,0,0,0,
,-0.419,-0.542,0.746,-6.714,-21.912,-45.472,0,0,0,
,-0.436,-0.519,0.742,26.428,-4.822,-53.956,0,0,0,
,-0.449,-0.518,0.726,76.904,2.868,-55.664,0,0,0,
,-0.452,-0.526,0.738,141.357,1.037,-47.059,0,0,0,
,-0.466,-0.526,0.747,168.701,16.601,-42.054,0,0,0,
,-0.445,-0.532,0.736,197.754,50.781,-37.72,0,0,0,
,-0.412,-0.579,0.738,215.088,72.937,-38.575,0,0,0,
,-0.398,-0.603,0.744,182.556,83.068,-47.608,0,0,0,
,-0.389,-0.618,0.752,126.098,97.656,-55.481,0,0,0,
,-0.361,-0.627,0.76,91.064,105.896,-56.397,0,0,0,
,-0.342,-0.633,0.768,58.044,112.121,-54.383,0,0,0,
,-0.322,-0.642,0.784,30.761,115.234,-63.538,0,0,0,
,-0.301,-0.645,0.783,7.995,114.196,-81.116,0,0,0,
,-0.302,-0.632,0.798,0.671,116.76,-87.403,0,0,0,
,-0.285,-0.645,0.801,-6.958,128.112,-95.581,0,0,0,
,-0.271,-0.634,0.802,-13.733,133.911,-93.201,0,0,0,
,-0.259,-0.62,0.803,-6.409,134.704,-104.126,0,0,0,
,-0.249,-0.627,0.805,6.836,136.291,-114.197,0,0,0,
,-0.248,-0.616,0.805,15.136,139.892,-118.775,0,0,0,
,-0.238,-0.596,0.8,32.226,143.615,-121.766,0,0,0,
,-0.229,-0.587,0.799,68.847,134.765,-125.733,0,0,0,
,-0.231,-0.593,0.789,96.862,131.408,-126.587,0,0,0,
,-0.227,-0.599,0.791,121.582,115.295,-126.954,0,0,0,
,-0.23,-0.61,0.784,138.122,101.501,-125.672,0,0,0,
,-0.229,-0.611,0.774,147.277,96.862,-122.376,0,0,0,
,-0.232,-0.613,0.763,153.381,87.646,-130.555,0,0,0,
,-0.232,-0.62,0.76,164.367,89.843,-134.034,0,0,0,
,-0.231,-0.627,0.751,187.439,88.928,-143.067,0,0,0,
,-0.237,-0.639,0.74,213.562,85.632,-142.151,0,0,0,
,-0.245,-0.645,0.744,218.078,85.693,-138.611,0,0,0,
,-0.239,-0.658,0.735,204.528,87.951,-147.156,0,0,0,
,-0.243,-0.657,0.744,208.13,86.547,-147.4,0,0,0,
,-0.243,-0.659,0.741,206.482,98.632,-160.218,0,0,0,
,-0.251,-0.668,0.732,203.735,102.722,-165.284,0,0,0,
,-0.262,-0.662,0.739,207.824,105.041,-169.617,0,0,0,
,-0.272,-0.664,0.719,193.481,113.525,-178.467,0,0,0,
,-0.266,-0.675,0.727,227.844,101.623,-168.213,0,0,0,
,-0.271,-0.652,0.75,276.855,89.66,-146.18,0,0,0,
,-0.274,-0.673,0.739,305.542,85.693,-164.368,0,0,0,
,-0.285,-0.676,0.73,323.974,82.763,-157.044,0,0,0,
,-0.29,-0.665,0.705,344.177,87.707,-153.016,0,0,0,
,-0.297,-0.675,0.692,368.408,89.904,-147.828,0,0,0,
,-0.291,-0.7,0.666,383.789,95.275,-136.109,0,0,0,
,-0.288,-0.725,0.666,370.239,94.604,-119.935,0,0,0,
,-0.307,-0.736,0.653,315.979,102.844,-111.573,0,0,0,
,-0.308,-0.745,0.656,278.015,105.346,-100.342,0,0,0,
,-0.303,-0.756,0.661,255.371,101.745,-95.398,0,0,0,
,-0.297,-0.775,0.656,221.008,98.144,-89.356,0,0,0,
,-0.287,-0.772,0.651,192.749,83.679,-91.98,0,0,0,
,-0.299,-0.776,0.651,190.49,64.209,-94.788,0,0,0,
,-0.301,-0.78,0.662,184.448,45.105,-92.53,0,0,0,
,-0.294,-0.795,0.661,166.992,38.757,-94.788,0,0,0,
,-0.288,-0.78,0.647,143.493,27.526,-97.596,0,0,0,
,-0.281,-0.773,0.636,142.273,18.188,-98.816,0,0,0,
,-0.296,-0.772,0.63,152.893,9.277,-98.45,0,0,0,
,-0.308,-0.762,0.627,172.241,15.197,-91.492,0,0,0,
,-0.304,-0.763,0.623,184.692,20.996,-89.173,0,0,0,
,-0.294,-0.769,0.612,185.974,22.033,-82.764,0,0,0,
,-0.288,-0.763,0.599,182.373,22.338,-71.412,0,0,0,
,-0.291,-0.762,0.601,181.152,14.77,-60.791,0,0,0,
,-0.32,-0.763,0.599,189.758,2.075,-47.486,0,0,0,
,-0.323,-0.766,0.6,201.721,-5.249,-38.331,0,0,0,
,-0.315,-0.783,0.599,207.275,-11.658,-33.204,0,0,0,
,-0.306,-0.809,0.595,188.537,-15.137,-34.058,0,0,0,
,-0.302,-0.85,0.566,172.851,-24.903,-22.889,0,0,0,
,-0.293,-0.856,0.561,138.305,-55.909,9.155,0,0,0,
,-0.296,-0.84,0.552,98.51,-98.023,13.916,0,0,0,
,-0.302,-0.863,0.534,59.204,-137.757,9.399,0,0,0,
,-0.311,-0.877,0.539,22.033,-171.021,14.16,0,0,0,
,-0.328,-0.871,0.514,-24.109,-197.937,13.122,0,0,0,
,-0.349,-0.87,0.47,-91.248,-209.839,17.334,0,0,0,
,-0.359,-0.85,0.465,-119.385,-212.159,25.451,0,0,0,
,-0.365,-0.832,0.458,-151.673,-209.717,20.202,0,0,0,
,-0.372,-0.84,0.45,-166.932,-201.783,18.981,0,0,0,
,-0.378,-0.863,0.453,-200.257,-205.323,29.846,0,0,0,
,-0.384,-0.843,0.47,-256.531,-207.825,41.259,0,0,0,
,-0.388,-0.812,0.472,-324.891,-203.797,48.4,0,0,0,
,-0.387,-0.796,0.481,-357.666,-206.36,47.424,0,0,0,
,-0.398,-0.771,0.491,-378.296,-213.074,47.18,0,0,0,
,-0.408,-0.759,0.496,-404.358,-214.417,59.021,0,0,0,
,-0.407,-0.725,0.505,-433.777,-216.553,60.058,0,0,0,
,-0.424,-0.707,0.513,-433.716,-219.422,71.838,0,0,0,
,-0.435,-0.694,0.511,-428.528,-210.267,88.989,0,0,0,
,-0.437,-0.683,0.519,-426.941,-202.698,106.567,0,0,0,
,-0.446,-0.679,0.519,-435.059,-194.825,112.915,0,0,0,
,-0.45,-0.688,0.521,-427.491,-181.092,123.596,0,0,0,
,-0.449,-0.695,0.534,-418.274,-165.955,127.258,0,0,0,
,-0.451,-0.702,0.536,-424.622,-154.236,122.314,0,0,0,
,-0.459,-0.686,0.551,-422.547,-138.672,120.605,0,0,0,
,-0.471,-0.681,0.531,-405.945,-103.394,117.431,0,0,0,
,-0.452,-0.694,0.567,-396.79,-58.716,112.487,0,0,0,
,-0.438,-0.675,0.573,-376.282,-41.81,103.942,0,0,0,
,-0.444,-0.669,0.591,-335.45,-8.423,91.003,0,0,0,
,-0.432,-0.677,0.624,-295.533,32.959,77.087,0,0,0,
,-0.409,-0.665,0.642,-232.605,61.584,72.631,0,0,0,
,-0.403,-0.675,0.656,-166.077,74.89,59.143,0,0,0,
,-0.388,-0.696,0.671,-118.103,95.459,48.95,0,0,0,
,-0.373,-0.695,0.689,-100.159,115.478,38.757,0,0,0,
,-0.362,-0.698,0.702,-82.337,122.07,19.897,0,0,0,
,-0.347,-0.71,0.714,-55.909,127.868,12.268,0,0,0,
,-0.318,-0.745,0.722,-39.734,133.422,4.638,0,0,0,
,-0.298,-0.762,0.725,-54.81,116.699,-10.315,0,0,0,
,-0.295,-0.76,0.739,-69.703,107.116,-30.762,0,0,0,
,-0.293,-0.749,0.737,-72.571,110.901,-36.438,0,0,0,
,-0.281,-0.742,0.746,-64.026,114.441,-61.341,0,0,0,
,-0.277,-0.73,0.734,-55.115,111.267,-75.44,0,0,0,
,-0.272,-0.705,0.732,-35.462,109.314,-84.839,0,0,0,
,-0.261,-0.712,0.736,-11.414,117.675,-94.361,0,0,0,
,-0.257,-0.699,0.728,-4.09,122.314,-105.53,0,0,0,
,-0.258,-0.686,0.721,17.578,128.723,-117.981,0,0,0,
,-0.25,-0.685,0.699,34.851,134.033,-124.878,0,0,0,
,-0.241,-0.672,0.705,46.936,133.789,-132.996,0,0,0,
,-0.244,-0.65,0.715,69.702,142.212,-142.395,0,0,0,
,-0.242,-0.638,0.722,118.835,151.306,-155.091,0,0,0,
,-0.248,-0.642,0.712,176.696,155.517,-156.25,0,0,0,
,-0.235,-0.657,0.709,236.877,162.353,-150.452,0,0,0,
,-0.228,-0.691,0.702,262.573,162.963,-151.551,0,0,0,
,-0.228,-0.718,0.694,245.117,161.621,-151.734,0,0,0,
,-0.221,-0.732,0.703,211.731,154.968,-151.551,0,0,0,
,-0.218,-0.736,0.704,183.288,155.334,-148.621,0,0,0,
,-0.222,-0.737,0.7,155.578,145.507,-156.006,0,0,0,
,-0.229,-0.735,0.715,131.164,147.827,-158.448,0,0,0,
,-0.221,-0.722,0.717,121.704,150.512,-159.913,0,0,0,
,-0.219,-0.704,0.725,142.7,150.634,-166.077,0,0,0,
,-0.226,-0.684,0.712,171.814,152.404,-169.922,0,0,0,
,-0.218,-0.704,0.708,221.374,147.033,-181.336,0,0,0,
,-0.231,-0.723,0.714,237.732,142.273,-172.974,0,0,0,
,-0.222,-0.726,0.705,238.464,143.432,-173.096,0,0,0,
,-0.223,-0.714,0.7,257.202,127.868,-166.199,0,0,0,
,-0.235,-0.75,0.697,274.963,120.788,-168.457,0,0,0,
,-0.239,-0.727,0.69,271.789,117.981,-169.007,0,0,0,
,-0.247,-0.734,0.66,263.977,119.934,-173.951,0,0,0,
,-0.242,-0.754,0.652,336.181,86.731,-136.719,0,0,0,
,-0.243,-0.781,0.646,327.148,69.702,-139.344,0,0,0,
,-0.25,-0.795,0.626,306.457,59.814,-130.555,0,0,0,
,-0.252,-0.808,0.614,276.794,49.133,-128.296,0,0,0,
,-0.256,-0.814,0.608,261.23,34.79,-116.578,0,0,0,
,-0.261,-0.825,0.601,227.905,26.184,-107.789,0,0,0,
,-0.255,-0.826,0.594,192.932,8.544,-109.375,0,0,0,
,-0.265,-0.824,0.578,152.465,-8.423,-102.723,0,0,0,
,-0.277,-0.824,0.579,114.868,-23.011,-97.474,0,0,0,
,-0.293,-0.826,0.586,81.237,-33.814,-91.187,0,0,0,
,-0.3,-0.828,0.596,55.725,-41.321,-91.736,0,0,0,
,-0.315,-0.825,0.604,34.545,-56.336,-91.736,0,0,0,
,-0.331,-0.811,0.592,15.258,-83.069,-79.224,0,0,0,
,-0.342,-0.806,0.577,15.319,-97.962,-72.632,0,0,0,
,-0.349,-0.821,0.567,-1.038,-113.404,-66.59,0,0,0,
,-0.359,-0.82,0.552,-36.133,-121.033,-53.711,0,0,0,
,-0.361,-0.815,0.543,-69.703,-124.207,-38.269,0,0,0,
,-0.37,-0.808,0.536,-98.206,-135.071,-28.382,0,0,0,
,-0.381,-0.802,0.535,-118.836,-151.551,-21.668,0,0,0,
,-0.385,-0.797,0.532,-139.405,-161.438,-18.25,0,0,0,
,-0.396,-0.785,0.53,-149.781,-173.34,-13.611,0,0,0,
,-0.413,-0.784,0.52,-169.617,-182.312,-4.822,0,0,0,
,-0.425,-0.768,0.512,-216.858,-184.327,5.493,0,0,0,
,-0.43,-0.746,0.504,-220.154,-191.285,16.235,0,0,0,
,-0.445,-0.743,0.48,-240.052,-191.04,25.268,0,0,0,
,-0.469,-0.745,0.533,-312.5,-209.168,35.705,0,0,0,
,-0.431,-0.738,0.527,-351.136,-169.251,68.847,0,0,0,
,-0.44,-0.669,0.533,-327.21,-205.262,67.504,0,0,0,
,-0.46,-0.694,0.527,-267.823,-197.693,70.8,0,0,0,
,-0.449,-0.731,0.526,-269.654,-184.388,77.514,0,0,0,
,-0.444,-0.721,0.527,-303.894,-186.28,94.238,0,0,0,
,-0.449,-0.703,0.536,-315.369,-184.632,97.534,0,0,0,
,-0.446,-0.712,0.549,-302.247,-164.551,94.726,0,0,0,
,-0.43,-0.732,0.565,-290.955,-147.95,89.904,0,0,0,
,-0.418,-0.729,0.583,-298.951,-131.714,88.378,0,0,0,
,-0.407,-0.706,0.621,-282.898,-122.132,78.857,0,0,0,
,-0.407,-0.719,0.595,-233.277,-116.333,71.106,0,0,0,
,-0.408,-0.725,0.599,-220.154,-110.596,70.739,0,0,0,
,-0.419,-0.721,0.597,-221.802,-106.202,69.58,0,0,0,
,-0.43,-0.709,0.596,-211.06,-95.398,76.294,0,0,0,
,-0.431,-0.71,0.585,-225.892,-80.018,77.575,0,0,0,
,-0.432,-0.718,0.568,-256.531,-63.477,76.599,0,0,0,
,-0.43,-0.722,0.575,-311.707,-47.364,84.838,0,0,0,
,-0.418,-0.701,0.59,-374.756,-28.626,95.764,0,0,0,
,-0.411,-0.692,0.618,-392.212,-0.916,105.163,0,0,0,
,-0.401,-0.679,0.646,-384.522,-4.151,103.942,0,0,0,
,-0.395,-0.671,0.664,-366.394,11.169,93.139,0,0,0,
,-0.386,-0.668,0.662,-348.511,29.541,85.693,0,0,0,
,-0.381,-0.641,0.665,-338.074,32.959,80.932,0,0,0,
,-0.389,-0.617,0.663,-327.759,32.348,85.876,0,0,0,
,-0.383,-0.606,0.681,-318.909,56.457,86.303,0,0,0,
,-0.371,-0.61,0.71,-300.293,83.679,81.604,0,0,0,
,-0.365,-0.617,0.719,-279.908,100.463,73.974,0,0,0,
,-0.363,-0.627,0.74,-260.682,106.201,65.918,0,0,0,
,-0.353,-0.634,0.753,-234.62,117.859,55.786,0,0,0,
,-0.348,-0.644,0.769,-184.449,122.07,52.124,0,0,0,
,-0.349,-0.643,0.778,-160.706,113.098,33.447,0,0,0,
,-0.349,-0.656,0.777,-128.663,123.596,13.732,0,0,0,
,-0.329,-0.669,0.776,-90.699,137.085,-8.789,0,0,0,
,-0.309,-0.668,0.776,-43.519,143.798,-30.945,0,0,0,
,-0.31,-0.676,0.753,19.897,145.324,-54.2,0,0,0,
,-0.3,-0.691,0.743,44.982,162.231,-69.947,0,0,0,
,-0.286,-0.672,0.732,37.719,168.884,-86.121,0,0,0,
,-0.282,-0.657,0.73,35.278,169.616,-98.511,0,0,0,
,-0.266,-0.654,0.744,28.198,181.579,-106.507,0,0,0,
,-0.241,-0.644,0.762,13.305,191.589,-113.587,0,0,0,
,-0.218,-0.625,0.762,29.724,178.222,-126.954,0,0,0,
,-0.218,-0.622,0.769,38.94,158.813,-140.442,0,0,0,
,-0.214,-0.607,0.762,62.744,168.884,-139.954,0,0,0,
,-0.196,-0.613,0.771,111.877,167.541,-147.583,0,0,0,
,-0.184,-0.628,0.772,163.879,148.742,-150.269,0,0,0,
,-0.189,-0.633,0.779,208.984,123.23,-156.617,0,0,0,
,-0.197,-0.633,0.781,240.844,112.671,-162.171,0,0,0,
,-0.194,-0.633,0.781,278.259,106.811,-172.913,0,0,0,
,-0.206,-0.647,0.779,312.561,102.234,-173.218,0,0,0,
,-0.212,-0.65,0.768,329.895,100.83,-170.899,0,0,0,
,-0.22,-0.658,0.756,340.82,104.919,-171.387,0,0,0,
,-0.229,-0.684,0.745,344.665,105.651,-170.899,0,0,0,
,-0.227,-0.708,0.746,317.138,104.309,-159.119,0,0,0,
,-0.224,-0.712,0.737,266.723,99.975,-160.279,0,0,0,
,-0.227,-0.707,0.743,246.948,98.877,-163.025,0,0,0,
,-0.232,-0.715,0.729,249.145,101.684,-165.894,0,0,0,
,-0.233,-0.712,0.706,252.014,102.6,-165.833,0,0,0,
,-0.238,-0.71,0.689,261.535,93.627,-167.176,0,0,0,
,-0.238,-0.719,0.688,271.484,86.425,-155.213,0,0,0,
,-0.241,-0.723,0.687,268.737,83.129,-149.537,0,0,0,
,-0.242,-0.72,0.679,283.508,83.19,-154.114,0,0,0,
,-0.246,-0.735,0.672,299.987,80.444,-147.828,0,0,0,
,-0.249,-0.752,0.666,290.344,83.068,-150.94,0,0,0,
,-0.253,-0.757,0.661,262.634,77.209,-152.649,0,0,0,
,-0.261,-0.754,0.654,250.061,66.467,-146.424,0,0,0,
,-0.274,-0.737,0.654,253.296,55.542,-143.982,0,0,0,
,-0.285,-0.748,0.64,260.559,49.743,-140.32,0,0,0,
,-0.29,-0.759,0.636,253.784,48.278,-136.048,0,0,0,
,-0.289,-0.76,0.634,247.558,38.818,-130.249,0,0,0,
,-0.293,-0.766,0.631,249.572,33.996,-120.24,0,0,0,
,-0.294,-0.764,0.626,258.117,27.526,-111.451,0,0,0,
,-0.296,-0.777,0.616,260.437,23.681,-109.803,0,0,0,
,-0.299,-0.783,0.607,244.69,18.005,-102.601,0,0,0,
,-0.302,-0.787,0.6,222.656,13.183,-98.206,0,0,0,
,-0.314,-0.799,0.594,202.88,7.995,-93.018,0,0,0,
,-0.321,-0.808,0.582,180.359,0.854,-81.421,0,0,0,
,-0.333,-0.807,0.576,159.607,-9.034,-73.365,0,0,0,
,-0.333,-0.822,0.571,137.39,-10.743,-55.542,0,0,0,
,-0.329,-0.834,0.563,89.111,-18.128,-44.739,0,0,0,
,-0.334,-0.831,0.551,19.897,-29.908,-34.729,0,0,0,
,-0.338,-0.816,0.542,-9.949,-35.95,-25.025,0,0,0,
,-0.329,-0.82,0.539,-18.982,-48.768,-22.706,0,0,0,
,-0.322,-0.825,0.546,-25.757,-60.303,-26.307,0,0,0,
,-0.333,-0.831,0.548,-26.062,-71.839,-36.133,0,0,0,
,-0.344,-0.824,0.537,-13.55,-74.036,-34.913,0,0,0,
,-0.345,-0.827,0.528,-12.452,-75.257,-37.598,0,0,0,
,-0.34,-0.82,0.528,-9.339,-76.966,-37.598,0,0,0,
,-0.343,-0.823,0.525,-11.536,-84.473,-45.533,0,0,0,
,-0.347,-0.823,0.521,-30.152,-82.764,-38.819,0,0,0,
,-0.342,-0.807,0.53,-57.129,-80.994,-40.467,0,0,0,
,-0.345,-0.79,0.546,-76.233,-90.455,-34.668,0,0,0,
,-0.351,-0.774,0.541,-72.815,-90.882,-29.419,0,0,0,
,-0.356,-0.763,0.546,-54.383,-95.032,-15.564,0,0,0,
,-0.353,-0.764,0.538,-41.016,-100.525,-2.32,0,0,0,
,-0.351,-0.771,0.539,-42.115,-118.164,13.61,0,0,0,
,-0.352,-0.771,0.534,-46.021,-134.156,19.775,0,0,0,
,-0.364,-0.781,0.528,-36.011,-159.852,26.306,0,0,0,
,-0.374,-0.793,0.518,-44.129,-175.415,44.128,0,0,0,
,-0.381,-0.789,0.506,-62.256,-184.693,57.312,0,0,0,
,-0.38,-0.803,0.497,-78.675,-192.444,68.786,0,0,0,
,-0.383,-0.825,0.486,-108.277,-203.309,76.599,0,0,0,
,-0.395,-0.834,0.466,-160.096,-211.976,81.237,0,0,0,
,-0.391,-0.862,0.444,-217.286,-210.816,83.374,0,0,0,
,-0.396,-0.867,0.439,-309.937,-219.3,89.355,0,0,0,
,-0.406,-0.839,0.441,-389.405,-228.455,96.13,0,0,0,
,-0.414,-0.809,0.45,-449.769,-232.361,95.642,0,0,0,
,-0.412,-0.787,0.47,-487.061,-223.877,96.801,0,0,0,
,-0.408,-0.77,0.477,-502.137,-209.534,93.933,0,0,0,
,-0.412,-0.743,0.492,-494.08,-197.998,101.928,0,0,0,
,-0.424,-0.736,0.504,-482.544,-174.5,100.83,0,0,0,
,-0.422,-0.734,0.509,-473.145,-142.762,98.144,0,0,0,
,-0.423,-0.714,0.514,-458.741,-127.686,90.698,0,0,0,
,-0.43,-0.71,0.527,-418.03,-107.239,85.327,0,0,0,
,-0.427,-0.709,0.539,-392.029,-75.806,78.674,0,0,0,
,-0.421,-0.712,0.572,-362.61,-46.936,76.599,0,0,0,
,-0.422,-0.716,0.586,-345.032,-15.625,68.054,0,0,0,
,-0.419,-0.716,0.61,-337.708,16.296,54.199,0,0,0,
,-0.418,-0.694,0.63,-328.675,32.592,47.119,0,0,0,
,-0.417,-0.671,0.654,-296.021,41.076,39.184,0,0,0,
,-0.421,-0.668,0.673,-258.728,47.973,33.996,0,0,0,
,-0.411,-0.646,0.691,-232.85,56.335,41.137,0,0,0,
,-0.402,-0.641,0.686,-186.585,66.04,35.217,0,0,0,
,-0.4,-0.663,0.68,-150.696,69.152,35.583,0,0,0,
,-0.392,-0.682,0.666,-146.729,80.81,32.959,0,0,0,
,-0.382,-0.691,0.665,-171.326,96.435,29.541,0,0,0,
,-0.367,-0.698,0.688,-183.96,121.032,21.606,0,0,0,
,-0.344,-0.704,0.709,-183.716,143.737,9.765,0,0,0,
,-0.317,-0.707,0.728,-167.847,156.005,-9.278,0,0,0,
,-0.3,-0.708,0.739,-129.09,154.113,-26.49,0,0,0,
,-0.289,-0.714,0.748,-90.455,145.507,-40.345,0,0,0,
,-0.279,-0.727,0.759,-76.6,145.568,-55.726,0,0,0,
,-0.271,-0.723,0.766,-89.234,144.287,-75.257,0,0,0,
,-0.261,-0.72,0.767,-109.314,146.301,-99.488,0,0,0,
,-0.253,-0.702,0.77,-88.746,148.254,-118.653,0,0,0,
,-0.243,-0.688,0.761,-60.73,153.686,-134.644,0,0,0,
,-0.236,-0.677,0.753,-32.593,149.597,-154.969,0,0,0,
,-0.232,-0.672,0.755,-18.189,154.846,-166.199,0,0,0,
,-0.222,-0.656,0.755,-9.766,160.156,-178.711,0,0,0,
,-0.221,-0.636,0.753,8.911,161.316,-188.172,0,0,0,
,-0.23,-0.633,0.755,46.936,166.137,-200.562,0,0,0,
,-0.218,-0.594,0.759,91.186,173.278,-200.135,0,0,0,
,-0.215,-0.622,0.76,134.521,166.198,-205.018,0,0,0,
,-0.219,-0.626,0.773,155.212,159.607,-209.595,0,0,0,
,-0.219,-0.62,0.764,176.452,161.01,-206.849,0,0,0,
,-0.217,-0.627,0.767,200.744,148.376,-206.604,0,0,0,
,-0.223,-0.633,0.761,212.829,132.934,-201.844,0,0,0,
,-0.228,-0.642,0.751,218.933,120.483,-196.656,0,0,0,
,-0.231,-0.655,0.756,211.303,116.027,-190.369,0,0,0,
,-0.226,-0.652,0.75,194.213,109.985,-182.251,0,0,0,
,-0.25,-0.656,0.737,177.002,87.829,-166.321,0,0,0,
,-0.253,-0.664,0.728,164.856,80.444,-155.213,0,0,0,
,-0.253,-0.667,0.73,158.508,72.753,-147.828,0,0,0,
,-0.255,-0.663,0.729,156.189,70.251,-148.377,0,0,0,
,-0.261,-0.659,0.728,179.138,57.861,-145.813,0,0,0,
,-0.275,-0.661,0.715,228.759,46.447,-135.865,0,0,0,
,-0.279,-0.658,0.71,252.563,36.315,-128.235,0,0,0,
,-0.289,-0.673,0.707,280.7,26.428,-125.55,0,0,0,
,-0.308,-0.688,0.705,279.052,28.381,-122.01,0,0,0,
,-0.31,-0.699,0.687,276.001,33.386,-112.488,0,0,0,
,-0.306,-0.71,0.673,272.338,30.7,-100.098,0,0,0,
,-0.303,-0.736,0.663,264.648,26.184,-89.417,0,0,0,
,-0.3,-0.744,0.643,239.318,20.752,-75.867,0,0,0,
,-0.313,-0.749,0.645,229.797,12.023,-75.501,0,0,0,
,-0.318,-0.766,0.633,209.716,14.343,-71.717,0,0,0,
,-0.304,-0.774,0.629,177.49,20.263,-72.022,0,0,0,
,-0.299,-0.78,0.628,163.147,13.305,-65.43,0,0,0,
,-0.309,-0.771,0.629,143.921,-2.991,-67.383,0,0,0,
,-0.318,-0.763,0.618,148.315,-2.625,-69.275,0,0,0,
,-0.321,-0.762,0.61,165.1,-0.245,-68.482,0,0,0,
,-0.315,-0.774,0.617,174.255,-2.32,-64.942,0,0,0,
,-0.318,-0.777,0.616,174.926,-10.254,-64.515,0,0,0,
,-0.331,-0.786,0.612,171.264,-16.663,-65.186,0,0,0,
,-0.339,-0.792,0.598,148.132,-25.33,-61.097,0,0,0,
,-0.339,-0.805,0.603,123.535,-31.434,-60.669,0,0,0,
,-0.34,-0.815,0.6,93.383,-40.406,-52.979,0,0,0,
,-0.335,-0.813,0.59,63.171,-43.091,-49.561,0,0,0,
,-0.331,-0.803,0.58,46.569,-55.176,-40.223,0,0,0,
,-0.337,-0.799,0.574,30.761,-71.961,-39.795,0,0,0,
,-0.359,-0.796,0.56,22.583,-86.06,-34.974,0,0,0,
,-0.363,-0.802,0.556,13.549,-87.098,-18.372,0,0,0,
,-0.361,-0.803,0.532,-8.973,-87.647,-5.616,0,0,0,
,-0.362,-0.798,0.539,-12.513,-90.943,10.009,0,0,0,
,-0.365,-0.816,0.527,-30.579,-92.957,12.695,0,0,0,
,-0.402,-0.868,0.576,-228.028,-165.039,27.526,0,0,0,
,-0.342,-0.814,0.622,-313.66,-130.982,42.419,0,0,0,
,-0.348,-0.715,0.555,-269.471,-157.166,38.757,0,0,0,
,-0.415,-0.722,0.569,-183.045,-184.266,24.169,0,0,0,
,-0.409,-0.758,0.565,-169.312,-153.565,27.038,0,0,0,
,-0.392,-0.695,0.543,-165.65,-156.311,37.78,0,0,0,
,-0.431,-0.683,0.52,-119.385,-158.204,39.978,0,0,0,
,-0.451,-0.701,0.499,-129.334,-144.593,47.485,0,0,0,
,-0.455,-0.688,0.491,-171.936,-133.423,62.133,0,0,0,
,-0.457,-0.674,0.494,-189.209,-124.573,84.411,0,0,0,
,-0.442,-0.697,0.502,-197.876,-108.521,100.402,0,0,0,
,-0.422,-0.729,0.52,-205.994,-95.276,112.671,0,0,0,
,-0.412,-0.74,0.54,-209.595,-88.99,93.811,0,0,0,
,-0.421,-0.741,0.55,-164.612,-78.492,99.121,0,0,0,
,-0.424,-0.739,0.545,-105.469,-62.561,87.646,0,0,0,
,-0.431,-0.754,0.535,-40.65,-41.626,65.124,0,0,0,
,-0.43,-0.781,0.526,13.061,-18.799,58.532,0,0,0,
,-0.425,-0.777,0.519,34.118,-2.015,44.86,0,0,0,
,-0.441,-0.79,0.518,50.231,17.211,27.465,0,0,0,
,-0.444,-0.796,0.522,40.405,45.471,14.221,0,0,0,
,-0.434,-0.793,0.519,34.912,73.852,1.892,0,0,0,
,-0.421,-0.817,0.522,55.297,103.149,-1.893,0,0,0,
,-0.399,-0.806,0.527,53.405,126.22,-14.771,0,0,0,
,-0.397,-0.817,0.543,66.711,147.583,-36.744,0,0,0,
,-0.385,-0.838,0.555,69.58,169.677,-51.819,0,0,0,
,-0.368,-0.835,0.565,43.09,188.842,-73.182,0,0,0,
,-0.365,-0.814,0.561,20.385,201.049,-92.53,0,0,0,
,-0.378,-0.818,0.532,25.085,221.801,-102.234,0,0,0,
,-0.36,-0.826,0.563,56.64,231.201,-78.37,0,0,0,
,-0.319,-0.807,0.59,66.162,237.915,-73.792,0,0,0,
,-0.305,-0.829,0.609,66.894,229.126,-88.379,0,0,0,
,-0.296,-0.836,0.613,39.123,230.713,-87.891,0,0,0,
,-0.277,-0.823,0.61,19.531,226.867,-98.145,0,0,0,
,-0.268,-0.84,0.616,-4.273,221.984,-92.53,0,0,0,
,-0.254,-0.827,0.622,-66.712,211.853,-89.661,0,0,0,
,-0.251,-0.792,0.622,-95.581,195.861,-80.445,0,0,0,
,-0.241,-0.777,0.628,-112.793,180.542,-77.332,0,0,0,
,-0.237,-0.767,0.638,-136.963,160.644,-61.951,0,0,0,
,-0.236,-0.735,0.642,-169.617,154.113,-43.946,0,0,0,
,-0.219,-0.726,0.623,-181.519,141.906,-30.396,0,0,0,
,-0.207,-0.738,0.634,-198.853,124.267,-11.963,0,0,0,
,-0.194,-0.723,0.644,-232.972,107.544,15.075,0,0,0,
,-0.185,-0.697,0.652,-248.047,89.05,25.878,0,0,0,
,-0.176,-0.7,0.647,-246.277,69.458,47.973,0,0,0,
,-0.171,-0.702,0.654,-272.767,46.569,68.725,0,0,0,
,-0.172,-0.695,0.649,-300.538,19.47,88.989,0,0,0,
,-0.178,-0.671,0.668,-330.811,-8.423,115.539,0,0,0,
,-0.167,-0.66,0.691,-358.765,-25.94,118.835,0,0,0,
,-0.156,-0.662,0.714,-337.403,-47.547,129.15,0,0,0,
,-0.161,-0.672,0.729,-296.692,-66.468,143.127,0,0,0,
,-0.158,-0.681,0.743,-259.949,-87.952,154.174,0,0,0,
,-0.156,-0.691,0.745,-228.15,-113.648,145.263,0,0,0,
,-0.152,-0.711,0.765,-197.083,-136.475,148.498,0,0,0,
,-0.156,-0.718,0.783,-200.135,-152.161,143.554,0,0,0,
,-0.165,-0.719,0.781,-207.947,-155.884,134.765,0,0,0,
,-0.168,-0.717,0.772,-209.839,-160.401,127.868,0,0,0,
,-0.174,-0.713,0.768,-211.976,-165.039,123.291,0,0,0,
,-0.183,-0.708,0.811,-205.75,-169.19,120.605,0,0,0,
,-0.196,-0.699,0.784,-207.276,-158.997,106.262,0,0,0,
,-0.201,-0.693,0.773,-187.317,-151.673,96.496,0,0,0,
,-0.211,-0.703,0.784,-169.861,-152.832,84.167,0,0,0,
,-0.222,-0.715,0.776,-196.9,-140.32,74.768,0,0,0,
,-0.218,-0.678,0.792,-267.518,-121.521,53.405,0,0,0,
,-0.223,-0.645,0.773,-257.386,-123.536,51.696,0,0,0,
,-0.23,-0.644,0.783,-224.183,-140.87,46.63,0,0,0,
,-0.238,-0.647,0.783,-219.3,-138.733,53.894,0,0,0,
,-0.233,-0.641,0.775,-231.934,-142.64,46.569,0,0,0,
,-0.236,-0.641,0.782,-216.675,-147.339,44.311,0,0,0,
,-0.246,-0.664,0.777,-214.539,-146.973,36.071,0,0,0,
,-0.245,-0.67,0.784,-235.901,-139.344,26.55,0,0,0,
,-0.255,-0.647,0.786,-248.963,-143.494,8.3,0,0,0,
,-0.267,-0.635,0.803,-237.854,-146.668,-6.47,0,0,0,
,-0.282,-0.621,0.819,-195.069,-146.607,-18.799,0,0,0,
,-0.293,-0.608,0.821,-164.917,-139.771,-34.058,0,0,0,
,-0.342,-0.614,0.81,-143.677,-135.132,-55.603,0,0,0,
,-0.329,-0.613,0.813,-134.827,-130.921,-68.421,0,0,0,
,-0.338,-0.579,0.802,-101.99,-130.127,-78.736,0,0,0,
,-0.358,-0.566,0.789,-34.913,-127.076,-87.708,0,0,0,
,-0.37,-0.565,0.799,0.732,-123.658,-102.417,0,0,0,
,-0.38,-0.556,0.784,34.912,-107.361,-114.258,0,0,0,
,-0.385,-0.545,0.776,66.345,-80.689,-122.315,0,0,0,
,-0.387,-0.556,0.769,85.815,-58.716,-133.667,0,0,0,
,-0.389,-0.559,0.765,83.313,-39.673,-135.804,0,0,0,
,-0.395,-0.55,0.742,70.434,-25.208,-132.081,0,0,0,
,-0.401,-0.542,0.719,64.27,-17.029,-121.277,0,0,0,
,-0.401,-0.534,0.694,67.443,-10.132,-119.324,0,0,0,
,-0.395,-0.547,0.697,73.181,-8.545,-125.245,0,0,0,
,-0.404,-0.562,0.693,65.246,-11.902,-131.775,0,0,0,
,-0.411,-0.541,0.71,65.551,0.427,-144.104,0,0,0,
,-0.422,-0.533,0.713,118.957,10.742,-158.081,0,0,0,
,-0.433,-0.54,0.708,181.335,27.648,-168.457,0,0,0,
,-0.422,-0.575,0.697,259.399,57.312,-180.42,0,0,0,
,-0.418,-0.593,0.682,254.943,70.068,-197.327,0,0,0,
,-0.425,-0.593,0.69,251.159,72.692,-205.201,0,0,0,
,-0.425,-0.593,0.692,237.854,88.256,-210.633,0,0,0,
,-0.421,-0.586,0.701,244.384,105.468,-210.877,0,0,0,
,-0.421,-0.58,0.698,259.155,111.816,-213.562,0,0,0,
,-0.421,-0.595,0.699,273.62,126.464,-213.318,0,0,0,
,-0.412,-0.597,0.697,271.057,134.765,-213.929,0,0,0,
,-0.414,-0.597,0.7,267.578,134.887,-215.332,0,0,0,
,-0.422,-0.589,0.693,258.789,137.024,-211.426,0,0,0,
,-0.425,-0.569,0.687,264.526,140.136,-201.783,0,0,0,
,-0.426,-0.566,0.682,281.677,138.977,-190.003,0,0,0,
,-0.433,-0.565,0.683,299.743,139.343,-174.927,0,0,0,
,-0.441,-0.576,0.693,321.899,149.17,-161.499,0,0,0,
,-0.436,-0.592,0.697,334.289,163.757,-151.062,0,0,0,
,-0.431,-0.611,0.696,334.594,166.626,-145.264,0,0,0,
,-0.424,-0.635,0.677,328.979,168.457,-140.87,0,0,0,
,-0.425,-0.656,0.667,339.66,158.935,-128.785,0,0,0,
,-0.429,-0.678,0.653,347.534,171.386,-103.272,0,0,0,
,-0.429,-0.692,0.648,329.284,166.198,-86.853,0,0,0,
,-0.416,-0.71,0.66,298.156,179.748,-85.511,0,0,0,
,-0.402,-0.716,0.644,275.695,184.265,-63.05,0,0,0,
,-0.399,-0.719,0.635,255.981,178.344,-68.97,0,0,0,
,-0.395,-0.726,0.629,260.254,177.368,-58.777,0,0,0,
,-0.382,-0.749,0.636,264.648,189.27,-42.054,0,0,0,
,-0.354,-0.769,0.639,229.736,204.956,-40.223,0,0,0,
,-0.342,-0.774,0.638,180.908,196.472,-33.02,0,0,0,
,-0.334,-0.764,0.628,142.517,192.627,-25.818,0,0,0,
,-0.323,-0.751,0.62,121.826,189.331,-20.569,0,0,0,
,-0.313,-0.743,0.623,124.633,182.861,-6.104,0,0,0,
,-0.313,-0.747,0.621,121.032,182.19,4.821,0,0,0,
,-0.313,-0.776,0.625,95.764,173.767,16.418,0,0,0,
,-0.293,-0.815,0.625,35.888,164.001,20.019,0,0,0,
,-0.292,-0.855,0.667,-51.697,122.314,25.39,0,0,0,
,-0.299,-0.866,0.691,-191.529,96.313,42.175,0,0,0,
,-0.287,-0.81,0.706,-281.495,78.735,64.88,0,0,0,
,-0.279,-0.751,0.721,-273.072,49.438,64.453,0,0,0,
,-0.287,-0.719,0.708,-212.952,33.447,62.194,0,0,0,
,-0.276,-0.699,0.697,-114.563,22.583,56.457,0,0,0,
,-0.275,-0.713,0.676,-43.641,15.869,56.823,0,0,0,
,-0.268,-0.741,0.658,-33.509,11.352,72.631,0,0,0,
,-0.25,-0.765,0.648,-93.262,5.92,74.646,0,0,0,
,-0.225,-0.821,0.641,-180.787,8.85,87.158,0,0,0,
,-0.205,-0.796,0.627,-321.045,7.995,98.755,0,0,0,
,-0.198,-0.723,0.636,-384.644,-1.954,101.44,0,0,0,
,-0.195,-0.676,0.654,-355.774,-14.405,101.684,0,0,0,
,-0.184,-0.672,0.656,-315.064,-17.151,111.267,0,0,0,
,-0.167,-0.676,0.675,-299.622,-22.4,117.431,0,0,0,
,-0.162,-0.693,0.705,-292.298,-35.462,111.877,0,0,0,
,-0.157,-0.698,0.7,-302.796,-44.373,115.051,0,0,0,
,-0.152,-0.693,0.71,-316.407,-72.388,121.582,0,0,0,
,-0.162,-0.683,0.716,-322.144,-93.018,123.23,0,0,0,
,-0.174,-0.681,0.73,-313.233,-110.413,132.263,0,0,0,
,-0.172,-0.689,0.752,-327.576,-113.282,127.807,0,0,0,
,-0.178,-0.676,0.759,-325.135,-121.705,128.234,0,0,0,
,-0.189,-0.664,0.764,-298.584,-129.212,129.516,0,0,0,
,-0.183,-0.671,0.758,-286.438,-145.569,133.239,0,0,0,
,-0.196,-0.652,0.764,-304.871,-156.678,130.432,0,0,0,
,-0.218,-0.642,0.77,-286.438,-163.086,132.019,0,0,0,
,-0.231,-0.641,0.78,-264.71,-160.096,128.479,0,0,0,
,-0.235,-0.634,0.783,-250,-144.227,128.601,0,0,0,
,-0.233,-0.632,0.788,-230.53,-142.823,123.169,0,0,0,
,-0.23,-0.634,0.798,-214.234,-142.762,117.248,0,0,0,
,-0.232,-0.635,0.803,-198.121,-137.146,115.661,0,0,0,
,-0.229,-0.642,0.807,-195.74,-130.372,102.172,0,0,0,
,-0.224,-0.649,0.81,-190.674,-129.822,95.52,0,0,0,
,-0.222,-0.634,0.806,-197.144,-130.555,82.519,0,0,0,
,-0.24,-0.625,0.801,-185.791,-130.31,63.232,0,0,0,
,-0.245,-0.61,0.799,-174.195,-118.836,51.574,0,0,0,
,-0.237,-0.612,0.793,-150.025,-105.591,44.494,0,0,0,
,-0.229,-0.602,0.788,-135.926,-104.615,43.212,0,0,0,
,-0.23,-0.59,0.784,-127.259,-106.507,32.531,0,0,0,
,-0.234,-0.599,0.783,-110.718,-106.202,34.362,0,0,0,
,-0.24,-0.581,0.794,-115.845,-106.995,33.02,0,0,0,
,-0.243,-0.572,0.793,-104.737,-104.737,20.996,0,0,0,
,-0.247,-0.572,0.807,-68.848,-105.774,13.061,0,0,0,
,-0.237,-0.57,0.809,-55.054,-100.22,6.042,0,0,0,
,-0.226,-0.564,0.812,-40.223,-101.563,-5.31,0,0,0,
,-0.232,-0.572,0.814,-12.513,-100.953,-11.658,0,0,0,
,-0.256,-0.578,0.819,4.272,-106.69,-19.532,0,0,0,
,-0.285,-0.59,0.819,14.343,-115.418,-34.729,0,0,0,
,-0.3,-0.609,0.822,5.554,-115.296,-30.64,0,0,0,
,-0.299,-0.616,0.826,-13.123,-108.765,-34.119,0,0,0,
,-0.31,-0.622,0.828,-0.428,-122.254,-41.626,0,0,0,
,-0.333,-0.624,0.819,6.347,-130.127,-50.538,0,0,0,
,-0.346,-0.61,0.802,17.028,-126.648,-72.632,0,0,0,
,-0.36,-0.598,0.791,44.982,-123.841,-83.13,0,0,0,
,-0.385,-0.596,0.77,73.974,-111.39,-102.051,0,0,0,
,-0.393,-0.577,0.761,102.172,-91.675,-106.812,0,0,0,
,-0.4,-0.576,0.746,145.141,-75.562,-116.517,0,0,0,
,-0.436,-0.591,0.729,156.25,-52.613,-135.621,0,0,0,
,-0.409,-0.588,0.716,149.841,-45.411,-148.682,0,0,0,
,-0.417,-0.566,0.701,165.466,-37.598,-163.819,0,0,0,
,-0.431,-0.556,0.705,213.317,-27.832,-173.401,0,0,0,
,-0.443,-0.566,0.702,270.446,-4.578,-186.89,0,0,0,
,-0.452,-0.589,0.701,303.405,12.39,-192.872,0,0,0,
,-0.458,-0.602,0.682,319.336,30.151,-193.787,0,0,0,
,-0.458,-0.602,0.666,316.04,48.706,-188.904,0,0,0,
,-0.453,-0.603,0.663,322.265,68.664,-186.524,0,0,0,
,-0.45,-0.605,0.654,325.378,78.613,-190.064,0,0,0,
,-0.454,-0.612,0.641,347.412,92.59,-193.665,0,0,0,
,-0.449,-0.63,0.628,368.042,110.839,-187.195,0,0,0,
,-0.447,-0.645,0.614,362.365,117.675,-186.158,0,0,0,
,-0.448,-0.658,0.614,332.214,121.765,-182.007,0,0,0,
,-0.444,-0.641,0.611,304.87,132.69,-177.491,0,0,0,
,-0.438,-0.63,0.611,303.039,142.822,-168.824,0,0,0,
,-0.434,-0.649,0.615,307.8,152.221,-166.504,0,0,0,
,-0.418,-0.663,0.607,308.166,160.949,-152.039,0,0,0,
,-0.412,-0.679,0.61,297.973,153.503,-146.546,0,0,0,
,-0.4,-0.704,0.618,272.522,150.207,-136.841,0,0,0,
,-0.382,-0.707,0.614,247.985,144.775,-126.343,0,0,0,
,-0.365,-0.721,0.625,238.037,136.963,-124.451,0,0,0,
,-0.351,-0.738,0.62,234.741,126.281,-116.028,0,0,0,
,-0.341,-0.754,0.621,213.012,107.116,-117.615,0,0,0,
,-0.339,-0.769,0.619,180.481,97.778,-114.991,0,0,0,
,-0.336,-0.753,0.621,145.263,91.796,-117.31,0,0,0,
,-0.342,-0.743,0.618,146.423,80.871,-118.531,0,0,0,
,-0.348,-0.733,0.625,160.644,81.726,-110.779,0,0,0,
,-0.353,-0.736,0.627,180.42,86.669,-112.793,0,0,0,
,-0.362,-0.736,0.632,200.317,90.271,-104.798,0,0,0,
,-0.366,-0.737,0.635,222.534,104.492,-101.563,0,0,0,
,-0.36,-0.747,0.635,243.225,111.084,-100.892,0,0,0,
,-0.36,-0.753,0.633,261.291,110.107,-97.413,0,0,0,
,-0.356,-0.765,0.638,271.911,110.107,-83.802,0,0,0,
,-0.35,-0.77,0.63,263.855,99.792,-73.67,0,0,0,
,-0.351,-0.783,0.629,258.606,83.618,-55.603,0,0,0,
,-0.348,-0.797,0.631,242.675,63.11,-40.162,0,0,0,
,-0.347,-0.824,0.628,199.157,40.832,-33.326,0,0,0,
,-0.342,-0.855,0.624,137.146,14.282,-17.029,0,0,0,
,-0.347,-0.865,0.598,-94.422,-49.439,24.231,0,0,0,
,-0.345,-0.808,0.609,-173.157,-78.003,40.954,0,0,0,
,-0.344,-0.794,0.619,-179.993,-98.023,45.166,0,0,0,
,-0.338,-0.796,0.59,-180.542,-112.977,44.555,0,0,0,
,-0.334,-0.78,0.582,-179.688,-134.461,56.213,0,0,0,
,-0.345,-0.791,0.589,-191.712,-148.926,51.879,0,0,0,
,-0.348,-0.808,0.583,-246.216,-148.133,62.622,0,0,0,
,-0.344,-0.778,0.576,-299.683,-155.64,72.265,0,0,0,
,-0.355,-0.735,0.583,-294.983,-165.894,77.331,0,0,0,
,-0.376,-0.722,0.575,-248.902,-165.894,77.514,0,0,0,
,-0.39,-0.725,0.564,-215.577,-160.34,84.045,0,0,0,
,-0.4,-0.709,0.556,-195.13,-154.847,93.2,0,0,0,
,-0.413,-0.702,0.54,-161.194,-153.687,93.627,0,0,0,
,-0.417,-0.699,0.536,-121.644,-141.907,95.214,0,0,0,
,-0.426,-0.732,0.539,-101.502,-135.01,91.186,0,0,0,
,-0.42,-0.761,0.539,-121.399,-123.658,102.111,0,0,0,
,-0.411,-0.753,0.538,-146.912,-123.169,98.266,0,0,0,
,-0.421,-0.757,0.543,-149.353,-125.245,89.538,0,0,0,
,-0.424,-0.756,0.53,-158.448,-117.432,84.899,0,0,0,
,-0.421,-0.757,0.525,-170.35,-113.77,82.092,0,0,0,
,-0.424,-0.759,0.538,-209.839,-118.164,81.787,0,0,0,
,-0.427,-0.741,0.547,-264.527,-117.493,85.205,0,0,0,
,-0.424,-0.717,0.559,-291.565,-110.535,91.491,0,0,0,
,-0.415,-0.707,0.577,-295.35,-98.45,98.022,0,0,0,
,-0.397,-0.707,0.593,-294.251,-90.882,100.708,0,0,0,
,-0.392,-0.715,0.602,-289.978,-90.882,103.149,0,0,0,
,-0.386,-0.728,0.611,-297.608,-96.68,107.238,0,0,0,
,-0.386,-0.743,0.623,-311.097,-95.032,108.459,0,0,0,
,-0.378,-0.762,0.617,-339.6,-84.046,109.375,0,0,0,
,-0.371,-0.75,0.623,-376.16,-86.426,110.656,0,0,0,
,-0.375,-0.72,0.641,-396.241,-99.732,105.529,0,0,0,
,-0.386,-0.686,0.658,-396.363,-92.652,95.153,0,0,0,
,-0.38,-0.672,0.678,-371.705,-70.862,83.19,0,0,0,
,-0.38,-0.663,0.674,-331.299,-49.195,80.505,0,0,0,
,-0.344,-0.649,0.665,-291.321,-36.56,74.401,0,0,0,
,-0.379,-0.654,0.669,-241.456,-39.551,74.279,0,0,0,
,-0.383,-0.653,0.673,-222.657,-37.72,65.124,0,0,0,
,-0.394,-0.65,0.666,-218.506,-31.922,61.035,0,0,0,
,-0.39,-0.654,0.667,-210.267,-16.297,56.518,0,0,0,
,-0.389,-0.655,0.658,-206.727,-8.912,49.56,0,0,0,
,-0.388,-0.654,0.657,-181.458,7.202,39.428,0,0,0,
,-0.38,-0.644,0.658,-141.541,16.357,24.841,0,0,0,
,-0.388,-0.637,0.654,-82.947,29.602,7.08,0,0,0,
,-0.382,-0.642,0.653,-14.71,54.26,-3.724,0,0,0,
,-0.371,-0.665,0.65,56.213,72.815,-17.456,0,0,0,
,-0.358,-0.698,0.649,97.595,102.111,-30.579,0,0,0,
,-0.335,-0.73,0.655,111.267,128.173,-56.885,0,0,0,
,-0.322,-0.75,0.693,96.252,147.155,-84.961,0,0,0,
,-0.316,-0.738,0.723,74.279,171.325,-112.915,0,0,0,
,-0.307,-0.733,0.752,82.153,177.063,-135.376,0,0,0,
,-0.301,-0.729,0.788,83.19,184.143,-157.288,0,0,0,
,-0.292,-0.698,0.784,80.566,187.622,-171.692,0,0,0,
,-0.286,-0.67,0.779,104.248,171.508,-183.106,0,0,0,
,-0.282,-0.665,0.783,133.972,145.385,-190.491,0,0,0,
,-0.299,-0.664,0.78,151.672,131.958,-192.2,0,0,0,
,-0.294,-0.657,0.768,160.644,123.352,-187.195,0,0,0,
,-0.297,-0.662,0.751,164.184,118.591,-183.106,0,0,0,
,-0.296,-0.68,0.744,149.292,117.065,-181.031,0,0,0,
,-0.3,-0.679,0.735,125.427,115.539,-181.58,0,0,0,
,-0.299,-0.664,0.723,128.357,116.027,-181.641,0,0,0,
,-0.301,-0.667,0.71,143.432,120.117,-184.937,0,0,0,
,-0.299,-0.659,0.697,168.09,114.441,-180.603,0,0,0,
,-0.307,-0.667,0.693,187.927,109.008,-180.176,0,0,0,
,-0.309,-0.683,0.678,183.105,116.821,-184.205,0,0,0,
,-0.311,-0.673,0.681,170.593,127.258,-183.472,0,0,0,
,-0.308,-0.657,0.677,179.016,131.286,-187.806,0,0,0,
,-0.323,-0.653,0.673,198.669,135.437,-191.712,0,0,0,
,-0.321,-0.662,0.677,220.764,142.7,-187.684,0,0,0,
,-0.323,-0.674,0.674,243.774,144.47,-183.594,0,0,0,
,-0.324,-0.693,0.689,263.61,146.667,-176.819,0,0,0,
,-0.315,-0.705,0.698,269.287,148.193,-172.425,0,0,0,
,-0.315,-0.698,0.712,285.888,134.338,-156.8,0,0,0,
,-0.327,-0.699,0.709,303.955,115.722,-160.401,0,0,0,
,-0.339,-0.723,0.71,316.345,106.14,-159.852,0,0,0,
,-0.337,-0.75,0.702,294.738,101.623,-161.927,0,0,0,
,-0.34,-0.756,0.685,259.765,103.576,-165.039,0,0,0,
,-0.333,-0.764,0.671,252.746,94.36,-154.969,0,0,0,
,-0.333,-0.757,0.654,231.079,76.599,-149.048,0,0,0,
,-0.35,-0.752,0.641,213.073,63.903,-145.874,0,0,0,
,-0.362,-0.742,0.626,205.322,58.41,-134.888,0,0,0,
,-0.366,-0.732,0.61,203.369,55.419,-126.221,0,0,0,
,-0.37,-0.74,0.605,196.106,56.518,-116.394,0,0,0,
,-0.363,-0.742,0.59,171.264,49.255,-104.187,0,0,0,
,-0.373,-0.729,0.59,155.517,51.208,-89.783,0,0,0,
,-0.379,-0.729,0.587,144.653,43.212,-78.553,0,0,0,
,-0.391,-0.719,0.584,131.897,44.189,-65.247,0,0,0,
,-0.402,-0.706,0.577,121.521,39.794,-48.951,0,0,0,
,-0.406,-0.706,0.568,108.093,37.414,-34.974,0,0,0,
,-0.418,-0.716,0.561,88.684,37.78,-10.987,0,0,0,
,-0.416,-0.746,0.552,38.33,22.461,23.193,0,0,0,
,-0.403,-0.73,0.567,-135.926,-9.034,78.613,0,0,0,
,-0.399,-0.725,0.564,-149.476,-8.362,94.177,0,0,0,
,-0.387,-0.744,0.563,-144.898,-15.32,102.661,0,0,0,
,-0.389,-0.742,0.571,-146.302,-19.227,107.849,0,0,0,
,-0.396,-0.724,0.58,-128.479,-17.456,110.229,0,0,0,
,-0.401,-0.712,0.583,-85.633,-13.367,112.976,0,0,0,
,-0.381,-0.745,0.581,-39.002,1.22,116.15,0,0,0,
,-0.351,-0.787,0.577,-22.034,6.225,119.14,0,0,0,
,-0.329,-0.818,0.571,-29.786,10.62,119.934,0,0,0,
,-0.334,-0.843,0.57,-59.021,13.305,114.135,0,0,0,
,-0.336,-0.863,0.591,-96.68,32.653,107.727,0,0,0,
,-0.327,-0.855,0.605,-144.165,59.387,92.041,0,0,0,
,-0.322,-0.847,0.604,-176.758,62.805,85.571,0,0,0,
,-0.322,-0.792,0.607,-179.81,65.856,82.885,0,0,0,
,-0.302,-0.767,0.611,-136.658,66.284,77.575,0,0,0,
,-0.293,-0.779,0.607,-119.996,56.64,84.777,0,0,0,
,-0.281,-0.79,0.616,-174.317,27.282,97.473,0,0,0,
,-0.274,-0.76,0.623,-257.569,4.272,112.915,0,0,0,
,-0.247,-0.765,0.632,-297.547,-13.611,118.957,0,0,0,
,-0.207,-0.795,0.631,-317.81,-41.443,127.38,0,0,0,
,-0.199,-0.811,0.63,-375.489,-63.355,121.704,0,0,0,
,-0.202,-0.781,0.642,-448.914,-92.469,123.901,0,0,0,
,-0.209,-0.735,0.659,-489.808,-108.399,118.347,0,0,0,
,-0.213,-0.691,0.677,-458.68,-112.183,116.699,0,0,0,
,-0.199,-0.683,0.681,-385.193,-105.103,117.736,0,0,0,
,-0.181,-0.699,0.661,-284.729,-98.267,113.891,0,0,0,
,-0.171,-0.71,0.682,-205.384,-98.633,100.708,0,0,0,
,-0.18,-0.715,0.683,-144.227,-101.38,88.867,0,0,0,
,-0.182,-0.709,0.692,-94.361,-104.126,83.129,0,0,0,
,-0.192,-0.712,0.696,-63.416,-112.549,74.096,0,0,0,
,-0.198,-0.726,0.697,-48.951,-114.075,72.021,0,0,0,
,-0.201,-0.74,0.692,-63.843,-124.756,78.308,0,0,0,
,-0.209,-0.739,0.696,-113.099,-139.466,79.65,0,0,0,
,-0.215,-0.745,0.701,-168.274,-143.982,79.284,0,0,0,
,-0.233,-0.726,0.707,-224.61,-144.776,76.171,0,0,0,
,-0.245,-0.723,0.718,-258.667,-144.227,70.19,0,0,0,
,-0.24,-0.716,0.728,-282.532,-144.776,81.176,0,0,0,
,-0.254,-0.702,0.746,-303.711,-143.616,71.96,0,0,0,
,-0.257,-0.695,0.758,-316.895,-138.123,63.049,0,0,0,
,-0.264,-0.692,0.771,-319.153,-125.061,50.17,0,0,0,
,-0.263,-0.686,0.774,-316.651,-125.489,44.494,0,0,0,
,-0.26,-0.684,0.777,-321.9,-124.756,34.24,0,0,0,
,-0.261,-0.661,0.788,-318.36,-120.118,16.54,0,0,0,
,-0.271,-0.65,0.8,-272.461,-113.831,-5.433,0,0,0,
,-0.277,-0.663,0.793,-235.474,-97.352,-19.776,0,0,0,
,-0.287,-0.66,0.771,-238.099,-76.661,-34.302,0,0,0,
,-0.295,-0.648,0.768,-230.225,-66.712,-45.716,0,0,0,
,-0.285,-0.653,0.787,-230.103,-53.528,-51.453,0,0,0,
,-0.276,-0.661,0.806,-243.348,-45.472,-65.857,0,0,0,
,-0.283,-0.643,0.823,-204.041,-38.758,-96.253,0,0,0,
,-0.292,-0.643,0.829,-211.853,-36.316,-124.39,0,0,0,
,-0.294,-0.628,0.837,-222.046,-30.152,-120.728,0,0,0,
,-0.297,-0.593,0.836,-216.37,-24.353,-133.484,0,0,0,
,-0.308,-0.581,0.829,-189.087,-25.391,-144.165,0,0,0,
,-0.311,-0.546,0.831,-166.565,-28.87,-148.255,0,0,0,
,-0.324,-0.516,0.83,-132.752,-35.828,-155.457,0,0,0,
,-0.341,-0.503,0.824,-93.628,-35.096,-161.499,0,0,0,
,-0.35,-0.481,0.807,-61.463,-35.035,-159.241,0,0,0,
,-0.356,-0.463,0.784,-27.283,-30.091,-162.72,0,0,0,
,-0.359,-0.448,0.772,17.944,-45.899,-165.833,0,0,0,
,-0.375,-0.459,0.774,84.228,-61.829,-169.617,0,0,0,
,-0.406,-0.493,0.748,162.78,-20.752,-160.096,0,0,0,
,-0.413,-0.489,0.726,205.383,-12.33,-166.932,0,0,0,
,-0.421,-0.508,0.719,259.338,0.305,-172.913,0,0,0,
,-0.426,-0.521,0.711,287.048,16.54,-182.862,0,0,0,
,-0.431,-0.527,0.705,305.542,27.099,-193.909,0,0,0,
,-0.437,-0.529,0.7,332.824,45.227,-198.914,0,0,0,
,-0.438,-0.529,0.69,358.459,65.307,-205.018,0,0,0,
,-0.438,-0.543,0.677,384.887,85.937,-209.839,0,0,0,
,-0.437,-0.553,0.672,382.629,104.553,-211.182,0,0,0,
,-0.436,-0.557,0.671,386.84,123.047,-206.971,0,0,0,
,-0.426,-0.563,0.679,398.071,135.803,-200.745,0,0,0,
,-0.425,-0.575,0.687,410.217,140.747,-193.726,0,0,0,
,-0.42,-0.592,0.69,419.067,142.7,-192.81,0,0,0,
,-0.416,-0.608,0.685,410.644,140.747,-182.435,0,0,0,
,-0.409,-0.616,0.679,391.418,138.183,-173.157,0,0,0,
,-0.409,-0.616,0.671,382.019,131.347,-166.748,0,0,0,
,-0.401,-0.619,0.678,380.249,134.216,-151.978,0,0,0,
,-0.4,-0.631,0.675,389.526,128.723,-141.907,0,0,0,
,-0.394,-0.645,0.665,391.052,125.061,-126.893,0,0,0,
,-0.391,-0.666,0.664,383.545,120.727,-117.92,0,0,0,
,-0.388,-0.683,0.647,373.23,112.365,-108.582,0,0,0,
,-0.394,-0.691,0.634,372.863,103.332,-92.652,0,0,0,
,-0.4,-0.694,0.612,373.413,100.219,-83.435,0,0,0,
,-0.41,-0.716,0.596,380.859,105.285,-73.914,0,0,0,
,-0.403,-0.748,0.573,366.455,130.005,-66.834,0,0,0,
,-0.393,-0.762,0.552,333.74,136.596,-56.153,0,0,0,
,-0.392,-0.775,0.55,295.898,130.981,-57.251,0,0,0,
,-0.391,-0.794,0.552,255.676,137.817,-53.467,0,0,0,
,-0.363,-0.789,0.581,164.856,137.085,-53.223,0,0,0,
,-0.364,-0.779,0.58,153.625,129.15,-45.838,0,0,0,
,-0.353,-0.771,0.581,159.057,123.657,-37.537,0,0,0,
,-0.346,-0.773,0.583,165.283,111.755,-42.054,0,0,0,
,-0.347,-0.771,0.58,172.729,108.276,-40.711,0,0,0,
,-0.338,-0.778,0.588,170.227,107.544,-34.302,0,0,0,
,-0.281,-0.946,0.624,59.082,43.273,-32.776,0,0,0,
,-0.257,-0.95,0.634,-78.492,21.24,-5.127,0,0,0,
,-0.25,-0.906,0.65,-186.097,-11.231,1.586,0,0,0,
,-0.263,-0.865,0.651,-224.976,-31.373,-5.799,0,0,0,
,-0.267,-0.82,0.644,-207.154,-53.345,-21.363,0,0,0,
,-0.275,-0.817,0.637,-125.245,-77.21,-40.65,0,0,0,
,-0.313,-0.848,0.622,-70.618,-94.117,-32.166,0,0,0,
,-0.291,-0.828,0.613,-61.402,-100.464,-29.786,0,0,0,
,-0.305,-0.813,0.582,-71.717,-94.971,-30.274,0,0,0,
,-0.313,-0.779,0.567,-86.243,-85.267,-20.264,0,0,0,
,-0.319,-0.771,0.56,-74.83,-73.304,-15.992,0,0,0,
,-0.317,-0.779,0.557,-98.267,-58.411,-0.061,0,0,0,
,-0.339,-0.77,0.571,-108.033,-96.619,31.433,0,0,0,
,-0.347,-0.77,0.578,-114.685,-115.357,41.381,0,0,0,
,-0.354,-0.762,0.573,-124.512,-123.963,44.982,0,0,0,
,-0.365,-0.773,0.572,-131.714,-131.531,44.006,0,0,0,
,-0.377,-0.765,0.573,-142.518,-149.353,49.194,0,0,0,
,-0.395,-0.745,0.563,-146.485,-155.152,50.659,0,0,0,
,-0.401,-0.751,0.557,-133.301,-157.593,51.574,0,0,0,
,-0.403,-0.755,0.556,-146.912,-162.72,56.579,0,0,0,
,-0.412,-0.758,0.556,-168.396,-166.199,58.96,0,0,0,
,-0.424,-0.75,0.555,-194.947,-159.363,66.955,0,0,0,
,-0.429,-0.73,0.552,-221.314,-152.1,70.373,0,0,0,
,-0.428,-0.71,0.562,-214.417,-150.696,73.059,0,0,0,
,-0.422,-0.722,0.566,-197.571,-142.029,71.716,0,0,0,
,-0.426,-0.743,0.572,-215.699,-138.489,81.726,0,0,0,
,-0.424,-0.755,0.593,-264.588,-134.583,90.515,0,0,0,
,-0.419,-0.754,0.597,-316.224,-131.409,99.304,0,0,0,
,-0.412,-0.743,0.601,-340.455,-141.907,98.266,0,0,0,
,-0.411,-0.748,0.603,-363.648,-154.969,102.783,0,0,0,
,-0.414,-0.737,0.594,-392.212,-162.964,106.506,0,0,0,
,-0.414,-0.728,0.585,-426.819,-163.086,122.985,0,0,0,
,-0.419,-0.695,0.585,-447.083,-161.805,129.333,0,0,0,
,-0.433,-0.672,0.581,-432.129,-158.387,136.963,0,0,0,
,-0.439,-0.671,0.593,-426.453,-134.461,129.333,0,0,0,
,-0.433,-0.649,0.593,-421.448,-104.737,115.783,0,0,0,
,-0.435,-0.651,0.588,-399.598,-87.403,95.459,0,0,0,
,-0.427,-0.644,0.606,-373.536,-65.125,86.181,0,0,0,
,-0.431,-0.624,0.621,-346.314,-51.27,75.073,0,0,0,
,-0.438,-0.602,0.638,-318.909,-21.79,56.03,0,0,0,
,-0.438,-0.587,0.649,-268.921,-1.526,41.748,0,0,0,
,-0.425,-0.586,0.652,-217.591,12.207,38.94,0,0,0,
,-0.423,-0.576,0.674,-179.932,13.61,39.489,0,0,0,
,-0.414,-0.578,0.69,-149.659,23.437,48.706,0,0,0,
,-0.397,-0.596,0.708,-133.362,33.264,53.344,0,0,0,
,-0.388,-0.608,0.711,-124.573,30.273,57.312,0,0,0,
,-0.391,-0.615,0.713,-131.104,24.963,60.669,0,0,0,
,-0.387,-0.606,0.711,-145.081,22.338,59.814,0,0,0,
,-0.386,-0.598,0.709,-141.541,34.912,62.5,0,0,0,
,-0.379,-0.593,0.705,-114.258,43.701,60.913,0,0,0,
,-0.376,-0.598,0.695,-63.05,60.913,57.739,0,0,0,
,-0.367,-0.61,0.706,-13.733,87.219,51.94,0,0,0,
,-0.337,-0.625,0.725,61.645,110.168,37.597,0,0,0,
,-0.323,-0.639,0.746,134.948,126.709,18.31,0,0,0,
,-0.308,-0.667,0.772,225.647,137.329,7.385,0,0,0,
,-0.275,-0.699,0.772,288.452,138.305,-8.728,0,0,0,
,-0.271,-0.735,0.76,325.012,112.487,-36.622,0,0,0,
,-0.266,-0.762,0.752,312.439,98.327,-42.542,0,0,0,
,-0.26,-0.754,0.742,266.967,81.054,-55.542,0,0,0,
,-0.276,-0.75,0.738,209.838,78.857,-66.224,0,0,0,
,-0.275,-0.734,0.711,165.344,90.454,-76.661,0,0,0,
,-0.266,-0.735,0.7,126.098,96.13,-88.257,0,0,0,
,-0.264,-0.715,0.683,91.186,114.807,-101.075,0,0,0,
,-0.26,-0.698,0.671,93.505,118.957,-103.699,0,0,0,
,-0.255,-0.689,0.682,107.422,127.746,-103.882,0,0,0,
,-0.247,-0.68,0.694,121.032,143.676,-111.084,0,0,0,
,-0.24,-0.681,0.708,157.226,156.433,-103.272,0,0,0,
,-0.229,-0.69,0.721,192.566,159.423,-105.164,0,0,0,
,-0.224,-0.699,0.729,212.463,158.691,-113.831,0,0,0,
,-0.228,-0.7,0.744,237.426,149.719,-121.827,0,0,0,
,-0.24,-0.702,0.743,261.047,151.611,-128.052,0,0,0,
,-0.241,-0.716,0.712,279.235,146.24,-132.63,0,0,0,
,-0.242,-0.743,0.704,300.476,133.422,-123.963,0,0,0,
,-0.242,-0.746,0.694,295.715,118.53,-109.436,0,0,0,
,-0.249,-0.747,0.688,275.573,110.534,-112.61,0,0,0,
,-0.259,-0.751,0.682,263.183,111.755,-118.897,0,0,0,
,-0.269,-0.753,0.685,264.709,112.793,-121.033,0,0,0,
,-0.273,-0.756,0.668,274.963,123.535,-132.203,0,0,0,
,-0.27,-0.785,0.626,306.396,123.047,-127.93,0,0,0,
,-0.266,-0.79,0.628,336.486,114.257,-98.206,0,0,0,
,-0.264,-0.79,0.631,324.768,112.121,-104.676,0,0,0,
,-0.264,-0.812,0.612,305.359,113.098,-116.7,0,0,0,
,-0.268,-0.813,0.597,268.493,118.347,-125.123,0,0,0,
,-0.271,-0.824,0.567,247.192,118.591,-129.822,0,0,0,
,-0.26,-0.818,0.572,248.962,100.83,-105.713,0,0,0,
,-0.255,-0.807,0.581,232.422,84.777,-95.765,0,0,0,
,-0.262,-0.812,0.578,216.98,69.03,-103.089,0,0,0,
,-0.264,-0.818,0.581,211.609,61.828,-103.943,0,0,0,
,-0.268,-0.82,0.574,197.509,60.302,-104.615,0,0,0,
,-0.269,-0.816,0.547,196.472,56.152,-115.845,0,0,0,
,-0.275,-0.827,0.551,222.534,43.335,-106.202,0,0,0,
,-0.278,-0.822,0.549,244.445,37.048,-98.694,0,0,0,
,-0.284,-0.828,0.534,257.446,33.508,-99.366,0,0,0,
,-0.285,-0.843,0.529,253.479,32.348,-110.23,0,0,0,
,-0.284,-0.837,0.527,236.511,31.921,-114.563,0,0,0,
,-0.299,-0.835,0.521,232.055,27.893,-123.291,0,0,0,
,-0.308,-0.841,0.483,232.544,33.508,-129.151,0,0,0,
,-0.314,-0.846,0.475,244.384,24.047,-108.155,0,0,0,
,-0.327,-0.841,0.483,231.994,14.465,-92.835,0,0,0,
,-0.345,-0.852,0.496,197.754,7.873,-96.375,0,0,0,
,-0.36,-0.864,0.475,146.057,-4.334,-102.295,0,0,0,
,-0.379,-0.868,0.452,108.581,-27.161,-88.99,0,0,0,
,-0.391,-0.873,0.442,62.805,-47.364,-80.567,0,0,0,
,-0.407,-0.874,0.404,-5.494,-67.383,-59.998,0,0,0,
,-0.422,-0.841,0.388,-50.66,-82.581,-36.438,0,0,0,
,-0.43,-0.816,0.401,-67.078,-96.07,-11.292,0,0,0,
,-0.439,-0.794,0.389,-64.698,-93.506,2.685,0,0,0,
,-0.447,-0.783,0.376,-45.594,-78.553,18.554,0,0,0,
,-0.445,-0.79,0.354,-25.147,-54.81,24.536,0,0,0,
,-0.435,-0.818,0.332,-18.067,-29.419,30.456,0,0,0,
,-0.43,-0.841,0.322,-15.87,-10.56,52.978,0,0,0,
,-0.42,-0.854,0.324,-64.148,-2.93,73.059,0,0,0,
,-0.405,-0.835,0.326,-122.742,8.3,83.068,0,0,0,
,-0.391,-0.838,0.347,-149.292,20.141,88.012,0,0,0,
,-0.363,-0.845,0.377,-179.322,36.071,101.867,0,0,0,
,-0.33,-0.856,0.41,-199.83,38.513,108.52,0,0,0,
,-0.309,-0.892,0.447,-215.516,37.353,103.942,0,0,0,
,-0.289,-0.91,0.477,-245.789,31.372,96.862,0,0,0,
,-0.28,-0.906,0.495,-272.217,13.61,81.543,0,0,0,
,-0.277,-0.879,0.501,-256.714,0,69.641,0,0,0,
,-0.272,-0.884,0.51,-185.059,-30.64,57.19,0,0,0,
,-0.267,-0.908,0.515,-135.132,-23.865,50.598,0,0,0,
,-0.254,-0.92,0.529,-153.382,-41.382,51.635,0,0,0,
,-0.258,-0.9,0.518,-179.688,-52.124,47.241,0,0,0,
,-0.259,-0.888,0.521,-216.004,-60.669,40.588,0,0,0,
,-0.258,-0.88,0.526,-257.752,-67.872,42.663,0,0,0,
,-0.247,-0.886,0.532,-311.829,-70.252,43.762,0,0,0,
,-0.231,-0.873,0.543,-364.869,-72.205,49.194,0,0,0,
,-0.228,-0.849,0.558,-408.875,-82.459,49.865,0,0,0,
,-0.227,-0.816,0.567,-420.899,-85.45,49.804,0,0,0,
,-0.23,-0.796,0.581,-394.959,-93.689,48.034,0,0,0,
,-0.23,-0.775,0.589,-365.113,-93.628,55.603,0,0,0,
,-0.232,-0.776,0.588,-323.792,-95.948,53.405,0,0,0,
,-0.228,-0.77,0.598,-297.12,-90.821,61.706,0,0,0,
,-0.226,-0.764,0.601,-270.691,-87.586,53.711,0,0,0,
,-0.234,-0.767,0.604,-178.345,-89.051,64.025,0,0,0,
,-0.232,-0.767,0.619,-152.039,-100.586,68.481,0,0,0,
,-0.239,-0.792,0.63,-149.353,-101.685,67.077,0,0,0,
,-0.238,-0.817,0.637,-186.951,-109.07,64.453,0,0,0,
,-0.249,-0.815,0.644,-258.667,-119.385,61.035,0,0,0,
,-0.248,-0.798,0.662,-308.289,-127.015,55.786,0,0,0,
,-0.255,-0.781,0.674,-332.276,-133.179,48.461,0,0,0,
,-0.261,-0.783,0.676,-348.633,-140.259,39.978,0,0,0,
,-0.26,-0.756,0.687,-358.46,-143.494,37.292,0,0,0,
,-0.267,-0.735,0.694,-338.99,-138.123,35.156,0,0,0,
,-0.269,-0.726,0.691,-303.528,-133.606,24.108,0,0,0,
,-0.271,-0.732,0.702,-274.292,-129.7,28.564,0,0,0,
,-0.269,-0.728,0.697,-275.635,-126.16,21.301,0,0,0,
,-0.269,-0.731,0.714,-267.395,-122.803,14.221,0,0,0,
,-0.279,-0.715,0.725,-270.691,-111.39,-8.789,0,0,0,
,-0.283,-0.714,0.736,-265.32,-107.85,-16.663,0,0,0,
,-0.292,-0.73,0.733,-263.123,-107.056,-15.198,0,0,0,
,-0.287,-0.741,0.735,-276.734,-111.145,-13.489,0,0,0,
,-0.293,-0.734,0.738,-292.542,-118.287,-21.851,0,0,0,
,-0.303,-0.715,0.743,-295.716,-126.587,-32.715,0,0,0,
,-0.317,-0.69,0.747,-287.11,-134.156,-48.523,0,0,0,
,-0.33,-0.677,0.746,-243.775,-138.855,-58.411,0,0,0,
,-0.343,-0.659,0.747,-173.462,-130.86,-57.435,0,0,0,
,-0.374,-0.637,0.727,-106.019,-101.929,-79.163,0,0,0,
,-0.378,-0.623,0.716,-99.244,-88.501,-91.004,0,0,0,
,-0.389,-0.612,0.702,-86.182,-78.064,-105.286,0,0,0,
,-0.392,-0.609,0.706,-67.383,-57.496,-118.348,0,0,0,
,-0.401,-0.605,0.696,-51.392,-41.687,-126.831,0,0,0,
,-0.46,-0.497,0.737,65.307,-75.44,-201.233,0,0,0,
,-0.468,-0.616,0.717,254.638,58.044,-156.311,0,0,0,
,-0.375,-0.626,0.656,194.824,130.737,-187.561,0,0,0,
,-0.373,-0.66,0.666,114.441,57.556,-207.337,0,0,0,
,-0.408,-0.639,0.692,36.01,43.335,-192.872,0,0,0,
,-0.408,-0.6,0.697,10.742,62.866,-192.444,0,0,0,
,-0.397,-0.562,0.698,46.875,61.828,-201.661,0,0,0,
,-0.404,-0.562,0.705,119.323,57.495,-207.398,0,0,0,
,-0.438,-0.556,0.679,166.198,73.974,-200.074,0,0,0,
,-0.409,-0.555,0.677,200.317,70.19,-206.543,0,0,0,
,-0.426,-0.565,0.664,227.234,75.134,-205.811,0,0,0,
,-0.436,-0.553,0.675,254.455,95.336,-194.031,0,0,0,
,-0.43,-0.563,0.66,298.462,119.384,-191.834,0,0,0,
,-0.431,-0.58,0.649,331.543,126.403,-175.599,0,0,0,
,-0.428,-0.594,0.65,334.289,129.699,-168.274,0,0,0,
,-0.416,-0.606,0.647,350.097,137.634,-161.377,0,0,0,
,-0.417,-0.627,0.653,380.92,139.892,-151.795,0,0,0,
,-0.412,-0.647,0.648,399.902,149.353,-153.87,0,0,0,
,-0.406,-0.674,0.635,420.349,147.522,-152.832,0,0,0,
,-0.408,-0.69,0.638,411.193,145.691,-145.874,0,0,0,
,-0.437,-0.691,0.607,397.949,143.982,-147.461,0,0,0,
,-0.421,-0.685,0.588,395.996,135.62,-138.184,0,0,0,
,-0.43,-0.664,0.558,400.512,144.653,-134.766,0,0,0,
,-0.436,-0.662,0.528,421.753,159.546,-132.935,0,0,0,
,-0.443,-0.67,0.52,428.527,181.091,-119.507,0,0,0,
,-0.437,-0.695,0.526,416.076,216.797,-108.46,0,0,0,
,-0.411,-0.719,0.525,387.817,237.732,-102.112,0,0,0,
,-0.399,-0.758,0.499,347.168,240.966,-109.559,0,0,0,
,-0.393,-0.8,0.495,334.35,221.435,-79.041,0,0,0,
,-0.379,-0.814,0.52,303.405,208.374,-45.838,0,0,0,
,-0.361,-0.841,0.551,232.116,178.588,-50.415,0,0,0,
,-0.362,-0.848,0.567,164.367,140.319,-59.205,0,0,0,
,-0.366,-0.832,0.57,122.497,119.323,-69.336,0,0,0,
,-0.369,-0.828,0.581,100.158,98.632,-71.167,0,0,0,
,-0.373,-0.817,0.57,89.843,95.764,-68.604,0,0,0,
,-0.372,-0.787,0.531,70.861,90.698,-51.575,0,0,0,
,-0.38,-0.766,0.555,54.443,99.548,-39.978,0,0,0,
,-0.382,-0.753,0.555,34.668,109.68,-20.63,0,0,0,
,-0.371,-0.763,0.549,21.789,126.831,-1.099,0,0,0,
,-0.357,-0.792,0.557,0,123.291,24.047,0,0,0,
,-0.342,-0.81,0.587,-45.166,115.783,33.569,0,0,0,
,-0.337,-0.816,0.598,-105.774,98.327,41.626,0,0,0,
,-0.337,-0.812,0.594,-175.904,76.232,53.1,0,0,0,
,-0.34,-0.771,0.612,-252.93,54.199,74.462,0,0,0,
,-0.354,-0.726,0.641,-268.372,38.024,91.186,0,0,0,
,-0.366,-0.721,0.665,-248.291,30.029,116.394,0,0,0,
,-0.362,-0.728,0.67,-234.986,25.512,136.535,0,0,0,
,-0.352,-0.751,0.671,-224.06,16.052,145.752,0,0,0,
,-0.336,-0.788,0.663,-224.732,15.319,154.113,0,0,0,
,-0.312,-0.824,0.667,-242.554,7.568,145.691,0,0,0,
,-0.31,-0.836,0.672,-274.353,-0.489,138.916,0,0,0,
,-0.29,-0.825,0.674,-287.964,-2.015,128.54,0,0,0,
,-0.28,-0.809,0.664,-280.884,-9.827,119.079,0,0,0,
,-0.281,-0.81,0.65,-285.157,-16.602,114.38,0,0,0,
,-0.261,-0.789,0.652,-332.886,-16.846,116.15,0,0,0,
,-0.246,-0.751,0.655,-350.22,-17.884,109.619,0,0,0,
,-0.228,-0.727,0.667,-336.06,-20.874,111.938,0,0,0,
,-0.217,-0.722,0.673,-324.097,-19.288,115.051,0,0,0,
,-0.181,-0.706,0.696,-319.703,-21.424,127.685,0,0,0,
,-0.168,-0.694,0.72,-314.331,-37.659,119.262,0,0,0,
,-0.157,-0.689,0.732,-274.231,-62.684,115.6,0,0,0,
,-0.151,-0.705,0.754,-229.798,-85.816,108.581,0,0,0,
,-0.148,-0.707,0.745,-211.853,-107.605,109.802,0,0,0,
,-0.146,-0.688,0.718,-195.13,-131.47,99.243,0,0,0,
,-0.166,-0.669,0.713,-166.565,-159.241,107.605,0,0,0,
,-0.19,-0.644,0.718,-139.588,-169.068,109.924,0,0,0,
,-0.21,-0.65,0.716,-106.141,-170.777,115.295,0,0,0,
,-0.224,-0.655,0.709,-90.394,-163.269,121.338,0,0,0,
,-0.224,-0.664,0.712,-66.956,-156.495,126.281,0,0,0,
,-0.233,-0.666,0.709,-42.359,-158.143,129.516,0,0,0,
,-0.239,-0.687,0.709,-8.423,-161.011,135.376,0,0,0,
,-0.235,-0.715,0.717,-3.54,-166.443,136.23,0,0,0,
,-0.244,-0.732,0.72,-37.903,-170.044,131.347,0,0,0,
,-0.246,-0.732,0.713,-74.402,-177.857,131.897,0,0,0,
,-0.254,-0.729,0.705,-97.596,-184.876,129.577,0,0,0,
,-0.264,-0.731,0.681,-121.827,-190.613,121.948,0,0,0,
,-0.265,-0.725,0.686,-140.32,-193.97,117.37,0,0,0,
,-0.282,-0.713,0.694,-131.531,-193.543,106.567,0,0,0,
,-0.295,-0.718,0.657,-106.385,-183.716,96.008,0,0,0,
,-0.313,-0.703,0.671,-69.764,-178.772,79.773,0,0,0,
,-0.329,-0.725,0.663,-29.053,-166.932,57.617,0,0,0,
,-0.337,-0.734,0.649,7.202,-155.884,42.541,0,0,0,
,-0.353,-0.742,0.623,41.381,-133.728,28.076,0,0,0,
,-0.359,-0.759,0.6,44.372,-96.314,10.07,0,0,0,
,-0.363,-0.759,0.58,25.329,-69.519,-7.203,0,0,0,
,-0.372,-0.738,0.575,5.249,-38.941,-23.316,0,0,0,
,-0.367,-0.736,0.571,9.582,1.281,-46.387,0,0,0,
,-0.355,-0.732,0.585,18.493,38.086,-65.979,0,0,0,
,-0.338,-0.747,0.604,39.062,52.124,-76.477,0,0,0,
,-0.349,-0.743,0.607,15.686,71.044,-91.736,0,0,0,
,-0.346,-0.699,0.613,18.859,101.684,-91.858,0,0,0,
,-0.331,-0.686,0.63,73.791,115.478,-98.328,0,0,0,
,-0.318,-0.706,0.643,104.98,131.042,-104.554,0,0,0,
,-0.308,-0.71,0.662,112.182,140.747,-105.469,0,0,0,
,-0.29,-0.715,0.696,130.188,147.827,-107.85,0,0,0,
,-0.276,-0.718,0.719,167.968,152.649,-109.07,0,0,0,
,-0.264,-0.733,0.71,189.392,143.432,-109.925,0,0,0,
,-0.263,-0.737,0.71,196.472,118.713,-111.329,0,0,0,
,-0.264,-0.74,0.709,206.482,100.586,-112.915,0,0,0,
,-0.268,-0.751,0.705,205.627,94.787,-116.333,0,0,0,
,-0.269,-0.751,0.687,197.509,97.168,-118.897,0,0,0,
,-0.274,-0.746,0.669,172.668,93.933,-124.329,0,0,0,
,-0.274,-0.757,0.647,170.166,98.388,-126.343,0,0,0,
,-0.266,-0.764,0.638,136.047,102.172,-118.103,0,0,0,
,-0.264,-0.752,0.64,103.637,105.041,-114.93,0,0,0,
,-0.263,-0.746,0.64,107.483,102.111,-111.39,0,0,0,
,-0.261,-0.757,0.629,109.558,107.727,-110.962,0,0,0,
,-0.259,-0.769,0.624,106.201,111.206,-113.831,0,0,0,
,-0.257,-0.766,0.622,100.891,121.948,-120.972,0,0,0,
,-0.253,-0.761,0.621,111.999,126.953,-109.559,0,0,0,
,-0.252,-0.771,0.62,127.624,128.723,-130.372,0,0,0,
,-0.242,-0.774,0.618,124.817,131.591,-133.667,0,0,0,
,-0.244,-0.778,0.625,128.662,126.526,-139.039,0,0,0,
,-0.249,-0.768,0.629,131.225,132.995,-139.344,0,0,0,
,-0.254,-0.761,0.638,148.925,138.061,-146.18,0,0,0,
,-0.258,-0.766,0.641,167.846,140.014,-149.048,0,0,0,
,-0.261,-0.774,0.635,184.448,131.286,-146.912,0,0,0,
,-0.256,-0.773,0.647,189.209,123.718,-139.466,0,0,0,
,-0.281,-0.764,0.658,211.792,112.854,-140.931,0,0,0,
,-0.247,-0.773,0.659,255.737,102.478,-137.33,0,0,0,
,-0.251,-0.789,0.64,278.503,94.543,-135.682,0,0,0,
,-0.259,-0.788,0.626,281.799,81.481,-132.203,0,0,0,
,-0.268,-0.777,0.608,293.701,73.852,-124.024,0,0,0,
,-0.28,-0.783,0.583,314.27,71.411,-114.319,0,0,0,
,-0.28,-0.804,0.57,310.363,65.551,-100.708,0,0,0,
,-0.271,-0.812,0.559,295.959,62.683,-92.774,0,0,0,
,-0.271,-0.814,0.547,279.358,60.485,-85.267,0,0,0,
,-0.277,-0.824,0.532,270.019,52.124,-82.093,0,0,0,
,-0.277,-0.845,0.519,254.638,48.828,-75.928,0,0,0,
,-0.274,-0.854,0.512,235.717,37.841,-65.247,0,0,0,
,-0.271,-0.848,0.512,224.121,29.724,-52.674,0,0,0,
,-0.263,-0.847,0.509,214.782,28.381,-51.27,0,0,0,
,-0.266,-0.854,0.498,212.036,12.756,-53.894,0,0,0,
,-0.273,-0.857,0.492,204.406,8.728,-52.185,0,0,0,
,-0.277,-0.864,0.479,192.932,-0.489,-51.026,0,0,0,
,-0.288,-0.865,0.473,188.293,-6.47,-45.96,0,0,0,
,-0.295,-0.882,0.463,187.133,-11.536,-39.002,0,0,0,
,-0.29,-0.902,0.466,165.222,-18.494,-36.377,0,0,0,
,-0.294,-0.907,0.466,131.652,-30.579,-38.086,0,0,0,
,-0.312,-0.902,0.459,120.239,-40.406,-36.438,0,0,0,
,-0.339,-0.898,0.455,105.224,-58.167,-55.848,0,0,0,
,-0.331,-0.98,0.431,73.242,-64.576,-57.251,0,0,0,
,-0.328,-0.929,0.419,-7.203,-78.919,-36.072,0,0,0,
,-0.343,-0.898,0.409,-67.261,-96.497,-34.241,0,0,0,
,-0.363,-0.867,0.391,-93.445,-111.023,-32.41,0,0,0,
,-0.375,-0.874,0.385,-114.747,-122.62,-46.021,0,0,0,
,-0.391,-0.879,0.388,-168.396,-134.278,-34.668,0,0,0,
,-0.412,-0.864,0.36,-224.183,-133.545,-18.738,0,0,0,
,-0.399,-0.859,0.36,-296.326,-129.395,3.479,0,0,0,
,-0.393,-0.823,0.38,-338.44,-145.813,12.817,0,0,0,
,-0.41,-0.801,0.401,-337.769,-159.974,23.681,0,0,0,
,-0.41,-0.802,0.424,-336.121,-151.062,28.32,0,0,0,
,-0.397,-0.788,0.433,-334.656,-145.997,35.278,0,0,0,
,-0.391,-0.782,0.455,-320.679,-146.363,42.785,0,0,0,
,-0.39,-0.784,0.465,-297.547,-143.128,50.109,0,0,0,
,-0.378,-0.789,0.468,-275.879,-134.583,58.41,0,0,0,
,-0.352,-0.804,0.477,-252.686,-130.31,63.903,0,0,0,
,-0.343,-0.82,0.491,-238.099,-134.888,64.453,0,0,0,
,-0.341,-0.827,0.502,-238.892,-134.095,64.941,0,0,0,
,-0.339,-0.82,0.514,-236.329,-131.226,59.936,0,0,0,
,-0.349,-0.818,0.53,-220.215,-127.991,53.527,0,0,0,
,-0.356,-0.827,0.537,-195.862,-115.662,48.156,0,0,0,
,-0.365,-0.821,0.543,-160.828,-101.441,45.105,0,0,0,
,-0.374,-0.797,0.525,-128.479,-85.938,36.926,0,0,0,
,-0.374,-0.796,0.516,-91.065,-69.642,30.334,0,0,0,
,-0.368,-0.793,0.504,-87.891,-48.645,41.32,0,0,0,
,-0.365,-0.777,0.499,-102.295,-46.814,54.687,0,0,0,
,-0.356,-0.765,0.492,-112.977,-39.246,75.744,0,0,0,
,-0.345,-0.786,0.498,-127.93,-32.227,95.642,0,0,0,
,-0.318,-0.809,0.514,-170.105,-32.959,112.671,0,0,0,
,-0.292,-0.802,0.522,-216.98,-50.721,120.788,0,0,0,
,-0.285,-0.802,0.537,-229.493,-66.285,117.126,0,0,0,
,-0.264,-0.82,0.549,-215.882,-74.707,117.859,0,0,0,
,-0.247,-0.841,0.552,-208.863,-78.736,116.027,0,0,0,
,-0.235,-0.852,0.56,-220.032,-84.778,98.999,0,0,0,
,-0.23,-0.856,0.569,-224.549,-88.501,80.444,0,0,0,
,-0.229,-0.867,0.566,-230.347,-92.347,47.973,0,0,0,
,-0.232,-0.863,0.572,-239.563,-88.196,47.058,0,0,0,
,-0.245,-0.86,0.572,-256.348,-87.769,29.602,0,0,0,
,-0.258,-0.853,0.6,-263.794,-87.22,18.554,0,0,0,
,-0.272,-0.843,0.608,-288.636,-69.397,6.53,0,0,0,
,-0.271,-0.832,0.619,-285.767,-61.768,-8.545,0,0,0,
,-0.28,-0.822,0.623,-282.471,-54.383,-21.912,0,0,0,
,-0.291,-0.818,0.631,-283.448,-52.918,-31.617,0,0,0,
,-0.298,-0.817,0.644,-285.767,-49.622,-42.298,0,0,0,
,-0.307,-0.822,0.662,-300.538,-39.246,-50.049,0,0,0,
,-0.342,-0.728,0.636,-251.16,-21.973,-112.366,0,0,0,
,-0.382,-0.857,0.669,-65.491,-5.555,-142.029,0,0,0,
,-0.314,-0.893,0.654,-162.415,68.298,-126.221,0,0,0,
,-0.275,-0.814,0.638,-335.633,37.841,-155.03,0,0,0,
,-0.332,-0.749,0.665,-359.436,-3.54,-191.102,0,0,0,
,-0.343,-0.732,0.694,-333.924,12.695,-196.9,0,0,0,
,-0.339,-0.707,0.715,-312.195,9.826,-205.994,0,0,0,
,-0.359,-0.668,0.72,-257.447,2.563,-209.839,0,0,0,
,-0.368,-0.649,0.725,-208.802,12.878,-219.178,0,0,0,
,-0.368,-0.628,0.718,-166.443,20.935,-223.694,0,0,0,
,-0.372,-0.611,0.741,-120.911,14.343,-208.313,0,0,0,
,-0.37,-0.605,0.729,-58.838,44.067,-223.084,0,0,0,
,-0.374,-0.602,0.733,-14.832,26.367,-211.426,0,0,0,
,-0.391,-0.6,0.721,31.25,48.034,-209.656,0,0,0,
,-0.389,-0.613,0.709,64.514,67.627,-195.862,0,0,0,
,-0.387,-0.616,0.693,72.937,74.646,-185.059,0,0,0,
,-0.401,-0.611,0.681,65.124,78.064,-176.697,0,0,0,
,-0.399,-0.618,0.684,81.115,108.215,-170.472,0,0,0,
,-0.388,-0.626,0.66,83.19,128.296,-159.424,0,0,0,
,-0.381,-0.635,0.666,74.829,125.244,-154.786,0,0,0,
,-0.387,-0.614,0.666,64.27,125,-157.288,0,0,0,
,-0.383,-0.605,0.656,84.655,125,-165.039,0,0,0,
,-0.378,-0.607,0.658,107.788,123.718,-188.111,0,0,0,
,-0.376,-0.612,0.665,133.239,116.638,-202.759,0,0,0,
,-0.388,-0.611,0.655,146.545,111.816,-209.046,0,0,0,
,-0.392,-0.609,0.658,162.353,112.487,-210.511,0,0,0,
,-0.395,-0.604,0.657,182.739,127.685,-203.858,0,0,0,
,-0.39,-0.61,0.656,202.148,119.873,-195.679,0,0,0,
,-0.394,-0.608,0.662,210.083,110.534,-189.698,0,0,0,
,-0.398,-0.607,0.661,214.843,109.68,-180.176,0,0,0,
,-0.402,-0.587,0.66,242.797,98.51,-169.312,0,0,0,
,-0.415,-0.591,0.645,282.226,99.243,-164.063,0,0,0,
,-0.434,-0.594,0.62,297.729,95.336,-153.748,0,0,0,
,-0.447,-0.591,0.597,313.659,102.05,-136.963,0,0,0,
,-0.448,-0.605,0.577,332.824,117.004,-129.639,0,0,0,
,-0.451,-0.63,0.556,349.975,133.545,-108.582,0,0,0,
,-0.447,-0.679,0.554,343.383,150.39,-91.675,0,0,0,
,-0.423,-0.72,0.556,305.603,160.827,-77.637,0,0,0,
,-0.409,-0.738,0.558,250.244,172.607,-66.529,0,0,0,
,-0.397,-0.741,0.565,207.824,172.058,-58.716,0,0,0,
,-0.392,-0.727,0.57,171.142,173.584,-46.753,0,0,0,
,-0.398,-0.716,0.572,151.245,167.602,-45.105,0,0,0,
,-0.402,-0.704,0.588,152.954,157.47,-47.242,0,0,0,
,-0.41,-0.711,0.604,165.222,152.71,-39.673,0,0,0,
,-0.405,-0.738,0.618,165.588,159.912,-31.739,0,0,0,
,-0.395,-0.751,0.614,154.419,158.447,-26.185,0,0,0,
,-0.387,-0.764,0.614,128.845,152.221,-13.611,0,0,0,
,-0.381,-0.765,0.616,97.168,150.573,-3.54,0,0,0,
,-0.371,-0.776,0.63,57.983,149.292,8.728,0,0,0,
,-0.354,-0.78,0.634,2.807,151.55,28.076,0,0,0,
,-0.338,-0.773,0.648,-43.152,143.493,37.597,0,0,0,
,-0.324,-0.796,0.663,-87.769,132.08,44.25,0,0,0,
,-0.311,-0.81,0.685,-135.315,120.849,45.41,0,0,0,
,-0.292,-0.825,0.697,-172.974,111.938,48.278,0,0,0,
,-0.278,-0.826,0.708,-204.285,91.674,43.762,0,0,0,
,-0.284,-0.811,0.703,-234.864,64.025,45.593,0,0,0,
,-0.3,-0.782,0.703,-255.982,44.738,41.198,0,0,0,
,-0.304,-0.759,0.712,-268.067,36.377,36.377,0,0,0,
,-0.308,-0.732,0.705,-278.321,33.874,37.17,0,0,0,
,-0.312,-0.695,0.691,-283.753,34.24,47.119,0,0,0,
,-0.308,-0.673,0.692,-275.94,41.32,67.81,0,0,0,
,-0.278,-0.684,0.68,-260.132,59.021,89.477,0,0,0,
,-0.255,-0.684,0.674,-271.729,55.542,100.891,0,0,0,
,-0.247,-0.693,0.679,-278.016,49.56,104.492,0,0,0,
,-0.23,-0.683,0.687,-281.189,49.316,118.042,0,0,0,
,-0.207,-0.673,0.682,-274.292,34.057,123.474,0,0,0,
,-0.191,-0.675,0.704,-268.128,12.634,138.794,0,0,0,
,-0.179,-0.66,0.695,-293.824,-1.282,152.649,0,0,0,
,-0.176,-0.639,0.71,-313.965,-27.955,145.935,0,0,0,
,-0.183,-0.623,0.727,-318.665,-44.007,148.864,0,0,0,
,-0.172,-0.616,0.754,-292.725,-45.289,160.095,0,0,0,
,-0.154,-0.63,0.762,-230.53,-48.157,165.039,0,0,0,
,-0.144,-0.662,0.768,-177.43,-63.782,170.776,0,0,0,
,-0.14,-0.702,0.788,-173.768,-84.473,169.86,0,0,0,
,-0.143,-0.694,0.798,-215.332,-104.554,165.71,0,0,0,
,-0.149,-0.684,0.806,-233.338,-125.061,151.062,0,0,0,
,-0.162,-0.687,0.817,-232.178,-145.325,148.742,0,0,0,
,-0.168,-0.683,0.824,-221.558,-170.533,144.47,0,0,0,
,-0.175,-0.673,0.822,-199.219,-182.618,141.418,0,0,0,
,-0.179,-0.676,0.818,-180.42,-194.947,128.967,0,0,0,
,-0.201,-0.683,0.82,-163.514,-198.243,113.586,0,0,0,
,-0.215,-0.681,0.817,-177.308,-190.918,101.318,0,0,0,
,-0.219,-0.656,0.811,-175.904,-173.706,88.806,0,0,0,
,-0.22,-0.654,0.806,-130.677,-173.035,76.171,0,0,0,
,-0.23,-0.666,0.801,-99.122,-173.157,67.932,0,0,0,
,-0.237,-0.669,0.789,-107.85,-166.138,54.87,0,0,0,
,-0.243,-0.686,0.788,-131.226,-162.293,41.32,0,0,0,
,-0.254,-0.691,0.78,-176.209,-158.143,28.198,0,0,0,
,-0.252,-0.682,0.782,-226.685,-150.635,8.911,0,0,0,
,-0.27,-0.662,0.784,-256.897,-140.015,-9.278,0,0,0,
,-0.273,-0.635,0.782,-272.95,-120.484,-16.48,0,0,0,
,-0.288,-0.6,0.776,-264.649,-98.755,-38.514,0,0,0,
,-0.305,-0.607,0.759,-256.653,-82.032,-49.439,0,0,0,
,-0.313,-0.613,0.76,-276.246,-64.881,-58.167,0,0,0,
,-0.321,-0.593,0.781,-298.096,-61.341,-50.904,0,0,0,
,-0.336,-0.583,0.776,-313.416,-57.496,-59.571,0,0,0,
,-0.348,-0.573,0.777,-333.802,-57.557,-62.623,0,0,0,
,-0.352,-0.532,0.797,-336.487,-49.683,-72.693,0,0,0,
,-0.367,-0.495,0.805,-283.02,-52.613,-86.06,0,0,0,
,-0.387,-0.48,0.816,-208.68,-42.664,-97.168,0,0,0,
,-0.4,-0.472,0.801,-161.805,-21.18,-99.61,0,0,0,
,-0.399,-0.457,0.785,-137.513,-7.691,-105.591,0,0,0,
,-0.404,-0.435,0.782,-109.681,-4.395,-108.277,0,0,0,
,-0.41,-0.4,0.781,-72.083,8.483,-104.981,0,0,0,
,-0.408,-0.378,0.783,-3.479,21.057,-104.859,0,0,0,
,-0.414,-0.356,0.775,85.022,17.15,-98.694,0,0,0,
,-0.43,-0.372,0.759,151.611,21.118,-85.328,0,0,0,
,-0.426,-0.394,0.748,173.217,43.701,-68.909,0,0,0,
,-0.417,-0.423,0.754,159.057,59.753,-46.631,0,0,0,
,-0.403,-0.456,0.765,132.568,83.557,-25.574,0,0,0,
,-0.376,-0.493,0.773,113.952,98.693,-8.301,0,0,0,
,-0.351,-0.513,0.789,100.219,87.219,-6.226,0,0,0,
,-0.355,-0.536,0.799,78.552,72.509,-5.86,0,0,0,
,-0.362,-0.529,0.811,55.725,71.594,-4.273,0,0,0,
,-0.351,-0.528,0.828,56.396,83.984,-10.987,0,0,0,
,-0.327,-0.557,0.853,88.012,91.735,-20.203,0,0,0,
,-0.3,-0.595,0.858,83.435,98.388,-26.307,0,0,0,
,-0.287,-0.589,0.862,80.139,77.148,-40.406,0,0,0,
,-0.294,-0.592,0.865,66.955,66.65,-57.74,0,0,0,
,-0.284,-0.574,0.868,59.814,63.598,-69.214,0,0,0,
,-0.28,-0.574,0.86,70.739,62.133,-81.36,0,0,0,
,-0.281,-0.563,0.849,71.716,59.692,-72.693,0,0,0,
,-0.265,-0.544,0.838,77.758,69.702,-75.806,0,0,0,
,-0.25,-0.538,0.83,109.497,62.377,-83.558,0,0,0,
,-0.248,-0.536,0.833,146.606,58.776,-85.633,0,0,0,
,-0.247,-0.533,0.822,179.565,56.701,-88.379,0,0,0,
,-0.248,-0.548,0.806,220.153,54.443,-88.013,0,0,0,
,-0.241,-0.573,0.798,239.074,58.837,-87.525,0,0,0,
,-0.234,-0.593,0.785,241.943,58.96,-88.379,0,0,0,
,-0.224,-0.613,0.777,231.994,65.124,-95.581,0,0,0,
,-0.226,-0.625,0.772,218.078,63.964,-105.225,0,0,0,
,-0.24,-0.619,0.76,197.57,69.946,-115.479,0,0,0,
,-0.249,-0.605,0.766,182.251,85.144,-123.475,0,0,0,
,-0.247,-0.577,0.763,201.843,102.6,-129.029,0,0,0,
,-0.244,-0.57,0.779,266.235,104.736,-126.16,0,0,0,
,-0.245,-0.596,0.785,313.598,107.422,-130.127,0,0,0,
,-0.256,-0.612,0.777,336.425,108.947,-127.869,0,0,0,
,-0.253,-0.64,0.784,356.872,113.647,-116.394,0,0,0,
,-0.255,-0.657,0.775,365.478,131.469,-95.459,0,0,0,
,-0.257,-0.668,0.767,352.722,135.925,-97.474,0,0,0,
,-0.252,-0.689,0.76,326.538,134.948,-96.863,0,0,0,
,-0.243,-0.695,0.755,304.504,127.502,-104.981,0,0,0,
,-0.246,-0.701,0.741,318.603,104.98,-101.441,0,0,0,
,-0.247,-0.713,0.75,321.96,89.904,-92.591,0,0,0,
,-0.249,-0.714,0.744,296.63,82.58,-95.459,0,0,0,
,-0.25,-0.735,0.729,271.972,78.369,-99.122,0,0,0,
,-0.249,-0.716,0.714,249.817,66.589,-93.689,0,0,0,
,-0.244,-0.692,0.701,274.231,55.542,-97.107,0,0,0,
,-0.245,-0.706,0.699,322.204,41.259,-98.267,0,0,0,
,-0.245,-0.719,0.694,331.176,37.719,-102.601,0,0,0,
,-0.251,-0.72,0.675,343.628,34.912,-108.155,0,0,0,
,-0.259,-0.725,0.664,360.351,36.132,-110.901,0,0,0,
,-0.259,-0.741,0.654,376.648,39.428,-117.798,0,0,0,
,-0.254,-0.756,0.648,382.202,56.457,-125.977,0,0,0,
,-0.252,-0.77,0.616,397.094,64.392,-126.526,0,0,0,
,-0.257,-0.805,0.597,431.03,58.715,-108.277,0,0,0,
,-0.258,-0.809,0.598,435.119,40.527,-81.727,0,0,0,
,-0.267,-0.821,0.589,414.734,27.282,-80.933,0,0,0,
,-0.275,-0.832,0.564,395.996,19.348,-72.754,0,0,0,
,-0.276,-0.846,0.536,367.126,-0.123,-62.134,0,0,0,
,-0.281,-0.857,0.514,321.838,-19.654,-60.669,0,0,0,
,-0.287,-0.864,0.498,284.546,-40.65,-54.383,0,0,0,
,-0.298,-0.876,0.481,252.868,-53.833,-46.448,0,0,0,
,-0.305,-0.889,0.469,217.773,-61.89,-38.147,0,0,0,
,-0.299,-0.914,0.473,181.579,-74.524,-50.782,0,0,0,
,-0.298,-0.929,0.476,127.99,-87.22,-54.566,0,0,0,
,-0.297,-0.899,0.475,99.731,-95.093,-68.116,0,0,0,
,-0.305,-0.899,0.471,100.586,-104.92,-83.435,0,0,0,
,-0.317,-0.9,0.465,83.618,-117.859,-89.722,0,0,0,
,-0.334,-0.882,0.448,46.386,-126.954,-89.844,0,0,0,
,-0.347,-0.878,0.438,11.779,-135.132,-75.623,0,0,0,
,-0.353,-0.866,0.437,-34.485,-155.945,-59.571,0,0,0,
,-0.366,-0.852,0.435,-81.665,-136.475,-48.89,0,0,0,
,-0.379,-0.877,0.414,-133.728,-125.977,-22.828,0,0,0,
,-0.365,-0.889,0.39,-244.385,-137.757,4.211,0,0,0,
,-0.375,-0.873,0.398,-355.835,-171.387,15.319,0,0,0,
,-0.388,-0.821,0.43,-419.007,-187.195,23.315,0,0,0,
,-0.406,-0.777,0.427,-409.729,-183.777,28.198,0,0,0,
,-0.413,-0.781,0.43,-397.706,-191.346,35.583,0,0,0,
,-0.42,-0.762,0.443,-441.529,-194.519,48.095,0,0,0,
,-0.432,-0.724,0.46,-473.938,-189.087,73.669,0,0,0,
,-0.431,-0.658,0.493,-483.338,-182.557,91.369,0,0,0,
,-0.433,-0.676,0.522,-443.238,-161.011,102.295,0,0,0,
,-0.416,-0.679,0.542,-364.624,-137.757,118.103,0,0,0,
,-0.396,-0.709,0.549,-265.015,-110.901,113.342,0,0,0,
,-0.389,-0.747,0.545,-173.951,-100.586,102.722,0,0,0,
,-0.402,-0.756,0.534,-131.653,-92.896,91.186,0,0,0,
,-0.409,-0.744,0.52,-69.397,-76.05,87.036,0,0,0,
,-0.41,-0.757,0.489,-23.438,-54.383,93.933,0,0,0,
,-0.397,-0.782,0.502,-37.903,-32.715,105.407,0,0,0,
,-0.378,-0.78,0.52,-71.228,-17.518,105.835,0,0,0,
,-0.37,-0.783,0.53,-98.999,-6.287,101.989,0,0,0,
,-0.353,-0.787,0.536,-98.45,4.089,106.872,0,0,0,
,-0.325,-0.804,0.541,-92.347,-4.151,117.553,0,0,0,
,-0.291,-0.827,0.555,-122.742,-16.663,131.836,0,0,0,
,-0.27,-0.852,0.587,-181.58,-28.26,120.483,0,0,0,
,-0.249,-0.857,0.592,-241.456,-38.941,116.638,0,0,0,
,-0.23,-0.861,0.606,-275.452,-58.472,103.393,0,0,0,
,-0.223,-0.847,0.617,-291.687,-83.924,97.473,0,0,0,
,-0.221,-0.828,0.632,-317.505,-91.736,82.824,0,0,0,
,-0.225,-0.833,0.638,-329.529,-91.004,65.856,0,0,0,
,-0.218,-0.838,0.641,-370.301,-81.971,57.373,0,0,0,
,-0.22,-0.811,0.647,-407.41,-80.018,44.006,0,0,0,
,-0.226,-0.779,0.666,-384.766,-74.524,44.738,0,0,0,
,-0.225,-0.756,0.69,-342.102,-73.975,35.034,0,0,0,
,-0.233,-0.743,0.7,-280.03,-66.102,26.245,0,0,0,
,-0.234,-0.752,0.704,-223.755,-61.341,11.84,0,0,0,
,-0.241,-0.766,0.697,-190.247,-50.965,-0.184,0,0,0,
,-0.238,-0.799,0.694,-186.402,-42.603,-12.391,0,0,0,
,-0.251,-0.846,0.706,-219.666,-48.951,-21.241,0,0,0,
,-0.243,-0.848,0.72,-301.819,-46.387,-26.673,0,0,0,
,-0.246,-0.838,0.727,-344.178,-66.834,-52.369,0,0,0,
,-0.265,-0.813,0.734,-378.052,-79.224,-84.29,0,0,0,
,-0.283,-0.796,0.73,-395.203,-79.895,-114.93,0,0,0,
,-0.302,-0.789,0.725,-406.617,-77.759,-145.691,0,0,0,
,-0.316,-0.777,0.74,-447.632,-55.787,-155.091,0,0,0,
,-0.318,-0.706,0.727,-536.377,-35.035,-163.086,0,0,0,
,-0.33,-0.632,0.732,-537.354,-27.588,-178.589,0,0,0,
,-0.346,-0.533,0.74,-496.766,-18.921,-181.641,0,0,0,
,-0.366,-0.508,0.771,-400.025,1.953,-199.463,0,0,0,
,-0.378,-0.497,0.783,-283.57,30.456,-218.628,0,0,0,
,-0.382,-0.514,0.776,-208.924,62.927,-203.98,0,0,0,
,-0.38,-0.466,0.667,-166.138,78.369,-194.764,0,0,0,
,-0.433,-0.398,0.751,-25.574,-4.7,-269.654,0,0,0,
,-0.444,-0.504,0.762,161.56,122.68,-234.253,0,0,0,
,-0.375,-0.518,0.728,143.432,155.273,-243.47,0,0,0,
,-0.378,-0.493,0.743,138.61,83.007,-239.747,0,0,0,
,-0.399,-0.473,0.753,146.484,64.392,-231.507,0,0,0,
,-0.397,-0.46,0.764,180.297,72.021,-226.38,0,0,0,
,-0.377,-0.468,0.765,214.599,67.565,-208.252,0,0,0,
,-0.382,-0.488,0.754,231.933,53.222,-202.088,0,0,0,
,-0.394,-0.501,0.743,243.286,49.438,-188.66,0,0,0,
,-0.404,-0.51,0.736,238.647,57.373,-183.96,0,0,0,
,-0.408,-0.52,0.723,244.506,63.049,-175.782,0,0,0,
,-0.41,-0.534,0.733,261.84,71.106,-164.795,0,0,0,
,-0.404,-0.546,0.729,279.419,70.495,-159.119,0,0,0,
,-0.405,-0.557,0.728,296.569,77.331,-153.931,0,0,0,
,-0.408,-0.568,0.741,323.669,80.444,-153.87,0,0,0,
,-0.404,-0.598,0.732,347.839,84.655,-156.922,0,0,0,
,-0.396,-0.623,0.724,356.811,96.13,-153.748,0,0,0,
,-0.393,-0.648,0.717,344.787,97.412,-152.588,0,0,0,
,-0.394,-0.641,0.702,324.707,86.669,-144.471,0,0,0,
,-0.404,-0.636,0.697,318.481,86.425,-141.785,0,0,0,
,-0.407,-0.645,0.695,306.945,94.177,-131.226,0,0,0,
,-0.401,-0.642,0.686,307.006,91.735,-124.085,0,0,0,
,-0.406,-0.626,0.676,304.565,86.425,-120.24,0,0,0,
,-0.41,-0.655,0.646,291.809,85.815,-114.38,0,0,0,
,-0.417,-0.645,0.615,293.151,76.782,-108.765,0,0,0,
,-0.428,-0.642,0.597,291.992,78.674,-100.403,0,0,0,
,-0.431,-0.651,0.579,274.658,95.214,-87.281,0,0,0,
,-0.425,-0.641,0.568,260.192,111.938,-70.069,0,0,0,
,-0.419,-0.648,0.561,253.296,124.694,-55.237,0,0,0,
,-0.417,-0.653,0.553,240.417,138,-40.039,0,0,0,
,-0.403,-0.677,0.562,232.422,152.954,-27.649,0,0,0,
,-0.385,-0.715,0.571,212.829,161.987,-17.518,0,0,0,
,-0.38,-0.74,0.578,168.823,157.043,-2.869,0,0,0,
,-0.375,-0.752,0.611,124.45,155.151,11.962,0,0,0,
,-0.364,-0.739,0.635,100.158,151.184,13.122,0,0,0,
,-0.36,-0.731,0.643,95.092,145.446,21.423,0,0,0,
,-0.354,-0.732,0.651,102.905,143.249,28.259,0,0,0,
,-0.356,-0.746,0.66,83.618,137.695,23.071,0,0,0,
,-0.351,-0.764,0.663,51.879,146.606,20.629,0,0,0,
,-0.345,-0.782,0.641,4.821,152.282,22.399,0,0,0,
,-0.339,-0.792,0.633,-38.514,141.357,33.081,0,0,0,
,-0.334,-0.786,0.651,-78.492,123.718,62.316,0,0,0,
,-0.334,-0.769,0.664,-118.592,107.116,54.443,0,0,0,
,-0.328,-0.789,0.663,-143.86,104.797,65.612,0,0,0,
,-0.289,-0.823,0.648,-213.746,108.459,82.58,0,0,0,
,-0.252,-0.828,0.646,-320.069,83.984,86.364,0,0,0,
,-0.249,-0.817,0.658,-395.813,53.466,82.275,0,0,0,
,-0.254,-0.775,0.666,-427.002,33.508,90.21,0,0,0,
,-0.248,-0.75,0.668,-406.25,16.052,80.078,0,0,0,
,-0.244,-0.734,0.687,-366.394,-2.686,78.674,0,0,0,
,-0.253,-0.706,0.697,-341.797,-20.63,78.613,0,0,0,
,-0.259,-0.678,0.71,-325.989,-23.133,84.533,0,0,0,
,-0.258,-0.644,0.707,-305.542,-18.555,94.238,0,0,0,
,-0.247,-0.62,0.711,-261.17,-19.898,102.661,0,0,0,
,-0.243,-0.624,0.725,-223.877,-26.673,107.36,0,0,0,
,-0.239,-0.618,0.743,-211.853,-26.551,109.192,0,0,0,
,-0.241,-0.612,0.755,-182.74,-24.781,114.013,0,0,0,
,-0.221,-0.632,0.775,-144.349,-20.081,132.263,0,0,0,
,-0.203,-0.654,0.785,-131.104,-32.959,137.634,0,0,0,
,-0.185,-0.681,0.792,-133.728,-40.101,147.4,0,0,0,
,-0.164,-0.705,0.796,-156.861,-64.087,146.362,0,0,0,
,-0.156,-0.728,0.807,-200.196,-86.853,144.287,0,0,0,
,-0.145,-0.725,0.807,-246.033,-106.202,135.559,0,0,0,
,-0.149,-0.709,0.792,-261.353,-125,125.366,0,0,0,
,-0.151,-0.691,0.785,-271.363,-141.297,117.492,0,0,0,
,-0.165,-0.669,0.782,-278.992,-153.138,102.661,0,0,0,
,-0.179,-0.635,0.772,-261.902,-147.706,98.327,0,0,0,
,-0.183,-0.605,0.775,-238.953,-139.893,93.261,0,0,0,
,-0.2,-0.599,0.778,-195.008,-132.813,84.533,0,0,0,
,-0.21,-0.599,0.776,-163.697,-117.676,84.289,0,0,0,
,-0.217,-0.602,0.782,-147.4,-107.056,77.392,0,0,0,
,-0.22,-0.614,0.794,-136.109,-95.093,75.073,0,0,0,
,-0.227,-0.623,0.803,-145.813,-91.98,60.363,0,0,0,
,-0.245,-0.633,0.806,-146.302,-100.953,56.396,0,0,0,
,-0.246,-0.634,0.806,-160.645,-104.432,63.476,0,0,0,
,-0.253,-0.627,0.81,-175.11,-111.268,57.983,0,0,0,
,-0.263,-0.628,0.801,-183.472,-116.333,54.199,0,0,0,
,-0.267,-0.616,0.808,-197.327,-119.873,44.555,0,0,0,
,-0.288,-0.593,0.808,-178.956,-123.658,28.869,0,0,0,
,-0.308,-0.585,0.787,-136.902,-122.071,30.212,0,0,0,
,-0.319,-0.582,0.776,-120.179,-108.582,24.169,0,0,0,
,-0.332,-0.584,0.765,-117.127,-110.535,16.296,0,0,0,
,-0.347,-0.578,0.756,-110.718,-103.699,7.324,0,0,0,
,-0.365,-0.573,0.748,-96.131,-95.093,-1.404,0,0,0,
,-0.378,-0.551,0.737,-68.482,-85.389,-19.288,0,0,0,
,-0.394,-0.538,0.718,-17.518,-58.045,-36.072,0,0,0,
,-0.396,-0.526,0.703,37.658,-24.781,-51.331,0,0,0,
,-0.392,-0.523,0.695,111.267,3.906,-60.12,0,0,0,
,-0.379,-0.526,0.714,179.931,34.851,-70.13,0,0,0,
,-0.373,-0.549,0.727,241.272,45.166,-71.412,0,0,0,
,-0.364,-0.567,0.736,256.286,83.007,-62.256,0,0,0,
,-0.339,-0.572,0.746,298.645,108.764,-64.331,0,0,0,
,-0.312,-0.627,0.757,341.43,112.609,-65.552,0,0,0,
,-0.293,-0.681,0.767,302.002,113.952,-71.228,0,0,0,
,-0.277,-0.698,0.774,244.445,101.196,-79.041,0,0,0,
,-0.282,-0.693,0.778,210.632,84.961,-85.389,0,0,0,
,-0.287,-0.675,0.785,196.228,74.646,-93.934,0,0,0,
,-0.287,-0.668,0.789,208.862,73.12,-103.821,0,0,0,
,-0.288,-0.668,0.773,227.539,81.115,-106.507,0,0,0,
,-0.279,-0.679,0.754,237.915,85.876,-114.502,0,0,0,
,-0.267,-0.685,0.741,227.905,90.576,-111.451,0,0,0,
,-0.262,-0.69,0.74,198.73,93.872,-111.878,0,0,0,
,-0.258,-0.681,0.739,188.781,95.52,-119.69,0,0,0,
,-0.249,-0.687,0.735,185.73,101.074,-120.423,0,0,0,
,-0.24,-0.684,0.737,182.8,102.905,-123.597,0,0,0,
,-0.234,-0.687,0.723,182.8,98.693,-128.235,0,0,0,
,-0.233,-0.679,0.722,210.022,98.816,-123.352,0,0,0,
,-0.227,-0.681,0.711,243.957,89.843,-125.123,0,0,0,
,-0.228,-0.679,0.713,269.531,89.294,-127.686,0,0,0,
,-0.234,-0.689,0.704,303.1,87.097,-127.808,0,0,0,
,-0.233,-0.697,0.691,324.707,81.298,-122.437,0,0,0,
,-0.234,-0.716,0.686,345.214,77.148,-124.634,0,0,0,
,-0.245,-0.736,0.678,346.13,75.195,-121.399,0,0,0,
,-0.246,-0.754,0.667,326.599,84.777,-127.076,0,0,0,
,-0.25,-0.752,0.663,321.289,86.425,-122.437,0,0,0,
,-0.248,-0.781,0.67,327.209,88.623,-125.916,0,0,0,
,-0.244,-0.763,0.658,356.872,88.562,-124.817,0,0,0,
,-0.249,-0.781,0.653,370.727,80.261,-119.873,0,0,0,
,-0.253,-0.78,0.643,354.431,76.904,-120.24,0,0,0,
,-0.264,-0.785,0.616,350.219,72.998,-127.808,0,0,0,
,-0.265,-0.796,0.603,354.98,61.767,-111.329,0,0,0,
,-0.266,-0.8,0.578,336.12,52.978,-104.065,0,0,0,
,-0.27,-0.802,0.574,328.308,50.964,-89.783,0,0,0,
,-0.269,-0.808,0.574,320.8,44.189,-86.182,0,0,0,
,-0.274,-0.816,0.568,323.852,40.954,-82.642,0,0,0,
,-0.272,-0.827,0.546,331.176,31.616,-87.586,0,0,0,
,-0.282,-0.85,0.528,331.176,13.61,-84.778,0,0,0,
,-0.292,-0.854,0.504,304.992,-3.724,-63.111,0,0,0,
,-0.305,-0.856,0.502,280.151,-15.137,-75.928,0,0,0,
,-0.308,-0.857,0.501,260.131,-17.456,-74.585,0,0,0,
,-0.304,-0.87,0.489,238.708,-15.992,-70.679,0,0,0,
,-0.297,-0.875,0.471,227.783,-13.306,-62.012,0,0,0,
,-0.286,-0.899,0.461,197.448,-11.475,-59.876,0,0,0,
,-0.297,-0.907,0.468,159.24,-22.889,-56.458,0,0,0,
,-0.301,-0.913,0.476,124.389,-35.035,-51.209,0,0,0,
,-0.311,-0.92,0.486,92.041,-51.819,-56.092,0,0,0,
,-0.312,-0.94,0.492,66.772,-65.125,-58.228,0,0,0,
,-0.306,-0.936,0.485,35.461,-75.745,-55.359,0,0,0,
,-0.311,-0.94,0.465,-14.344,-97.718,-62.684,0,0,0,
,-0.333,-0.945,0.456,-48.584,-123.841,-59.021,0,0,0,
,-0.352,-0.91,0.442,-93.628,-132.813,-51.575,0,0,0,
,-0.358,-0.888,0.42,-122.925,-141.541,-58.96,0,0,0,
,-0.362,-0.894,0.41,-160.035,-151.001,-49.317,0,0,0,
,-0.372,-0.866,0.389,-218.201,-153.26,-33.997,0,0,0,
,-0.393,-0.852,0.38,-266.724,-150.33,-17.579,0,0,0,
,-0.402,-0.835,0.362,-319.764,-138.672,-2.32,0,0,0,
,-0.392,-0.834,0.385,-357.422,-142.762,2.807,0,0,0,
,-0.39,-0.845,0.42,-384.705,-144.898,8.667,0,0,0,
,-0.396,-0.81,0.442,-382.264,-138.245,6.53,0,0,0,
,-0.396,-0.796,0.391,-348.45,-124.756,0.305,0,0,0,
,-0.415,-0.851,0.468,-356.629,-156.922,-24.964,0,0,0,
,-0.379,-0.877,0.489,-431.519,-125.672,8.911,0,0,0,
,-0.385,-0.766,0.486,-435.975,-153.138,6.225,0,0,0,
,-0.394,-0.79,0.498,-379.944,-149.598,-1.648,0,0,0,
,-0.392,-0.816,0.481,-402.1,-147.706,-5.677,0,0,0,
,-0.4,-0.808,0.467,-467.102,-158.631,7.446,0,0,0,
,-0.4,-0.785,0.483,-537.232,-160.523,23.01,0,0,0,
,-0.402,-0.758,0.494,-596.985,-156.495,34.912,0,0,0,
,-0.413,-0.706,0.485,-635.071,-160.645,42.663,0,0,0,
,-0.439,-0.664,0.49,-656.006,-160.706,48.767,0,0,0,
,-0.444,-0.622,0.52,-665.284,-136.536,70.617,0,0,0,
,-0.435,-0.582,0.551,-651.123,-116.761,93.2,0,0,0,
,-0.427,-0.58,0.593,-579.102,-83.924,111.084,0,0,0,
,-0.414,-0.6,0.62,-521.18,-55.054,119.262,0,0,0,
,-0.385,-0.631,0.64,-457.886,-26.795,118.957,0,0,0,
,-0.364,-0.656,0.658,-410.645,-30.64,107.91,0,0,0,
,-0.374,-0.656,0.663,-387.94,-42.603,101.196,0,0,0,
,-0.38,-0.636,0.674,-384.217,-43.58,93.078,0,0,0,
,-0.384,-0.598,0.69,-362.915,-38.636,85.51,0,0,0,
,-0.384,-0.568,0.722,-306.031,-30.518,79.467,0,0,0,
,-0.376,-0.546,0.738,-215.821,-17.395,72.143,0,0,0,
,-0.383,-0.568,0.736,-114.808,-12.452,65.49,0,0,0,
,-0.389,-0.602,0.74,-61.829,6.652,59.509,0,0,0,
,-0.387,-0.64,0.717,-61.219,26.001,59.753,0,0,0,
,-0.379,-0.677,0.732,-88.929,37.78,66.894,0,0,0,
,-0.358,-0.661,0.744,-146.851,38.696,63.964,0,0,0,
,-0.346,-0.631,0.756,-164.734,14.465,48.889,0,0,0,
,-0.354,-0.624,0.754,-127.625,10.925,34.668,0,0,0,
,-0.356,-0.593,0.743,-55.787,11.047,31.189,0,0,0,
,-0.37,-0.573,0.726,54.26,17.822,28.503,0,0,0,
,-0.385,-0.595,0.702,154.358,43.884,28.503,0,0,0,
,-0.376,-0.61,0.68,197.387,88.378,25.512,0,0,0,
,-0.357,-0.642,0.68,210.51,115.417,24.047,0,0,0,
,-0.326,-0.687,0.688,224.487,144.409,23.803,0,0,0,
,-0.3,-0.717,0.678,196.594,144.653,10.864,0,0,0,
,-0.292,-0.723,0.683,168.029,130.066,-2.137,0,0,0,
,-0.292,-0.721,0.682,146.179,138.672,-14.405,0,0,0,
,-0.284,-0.723,0.697,127.99,149.78,-26.795,0,0,0,
,-0.282,-0.718,0.7,130.127,161.01,-35.035,0,0,0,
,-0.288,-0.724,0.721,146.484,159.24,-45.289,0,0,0,
,-0.293,-0.747,0.724,165.832,178.527,-57.74,0,0,0,
,-0.285,-0.77,0.731,147.522,199.768,-70.374,0,0,0,
,-0.276,-0.766,0.73,112.06,220.825,-90.088,0,0,0,
,-0.268,-0.768,0.732,88.195,236.816,-105.774,0,0,0,
,-0.251,-0.758,0.747,75.256,247.985,-126.343,0,0,0,
,-0.242,-0.756,0.759,80.261,255.432,-139.222,0,0,0,
,-0.221,-0.739,0.754,100.28,249.755,-143.433,0,0,0,
,-0.211,-0.719,0.736,125.793,231.933,-152.771,0,0,0,
,-0.207,-0.72,0.726,142.151,217.529,-161.683,0,0,0,
,-0.195,-0.728,0.715,137.573,206.787,-173.89,0,0,0,
,-0.188,-0.723,0.723,119.506,206.176,-183.167,0,0,0,
,-0.176,-0.698,0.707,130.432,202.087,-193.604,0,0,0,
,-0.182,-0.682,0.715,182.739,186.523,-201.783,0,0,0,
,-0.181,-0.672,0.72,248.596,177.734,-199.891,0,0,0,
,-0.183,-0.667,0.713,311.706,175.72,-195.313,0,0,0,
,-0.183,-0.673,0.7,356.323,171.142,-190.979,0,0,0,
,-0.191,-0.672,0.695,395.568,168.518,-185.914,0,0,0,
,-0.193,-0.69,0.696,433.105,162.719,-185.486,0,0,0,
,-0.196,-0.72,0.669,448.303,165.771,-180.176,0,0,0,
,-0.201,-0.758,0.657,463.134,159.973,-165.65,0,0,0,
,-0.207,-0.78,0.659,463.867,145.263,-141.114,0,0,0,
,-0.217,-0.791,0.645,454.284,132.629,-129.944,0,0,0,
,-0.217,-0.836,0.638,430.786,118.896,-131.043,0,0,0,
,-0.216,-0.862,0.629,387.878,106.14,-129.212,0,0,0,
,-0.224,-0.871,0.614,327.819,89.294,-131.897,0,0,0,
,-0.23,-0.882,0.59,292.846,67.565,-141.724,0,0,0,
,-0.246,-0.9,0.584,237.671,53.283,-132.935,0,0,0,
,-0.254,-0.882,0.581,166.687,50.537,-133.362,0,0,0,
,-0.258,-0.854,0.57,136.901,51.086,-131.958,0,0,0,
,-0.275,-0.826,0.554,133.422,57.006,-132.325,0,0,0,
,-0.276,-0.829,0.558,133.728,60.974,-140.992,0,0,0,
,-0.271,-0.845,0.54,129.638,59.57,-147.706,0,0,0,
,-0.282,-0.849,0.532,128.051,50.415,-149.292,0,0,0,
,-0.288,-0.85,0.525,108.825,43.151,-139.344,0,0,0,
,-0.291,-0.835,0.528,92.651,34.301,-140.015,0,0,0,
,-0.297,-0.826,0.529,97.045,21.789,-139.466,0,0,0,
,-0.312,-0.833,0.526,97.412,15.808,-138.611,0,0,0,
,-0.313,-0.822,0.504,95.214,10.315,-131.897,0,0,0,
,-0.334,-0.814,0.482,86.059,-3.663,-124.573,0,0,0,
,-0.35,-0.804,0.466,70.434,-9.4,-109.864,0,0,0,
,-0.359,-0.781,0.46,57.006,-7.386,-90.394,0,0,0,
,-0.373,-0.758,0.44,53.955,-5.616,-67.933,0,0,0,
,-0.376,-0.746,0.419,53.833,7.568,-45.166,0,0,0,
,-0.375,-0.75,0.414,57.922,9.643,-18.616,0,0,0,
,-0.375,-0.754,0.4,50.842,8.972,17.211,0,0,0,
,-0.359,-0.792,0.414,44.494,10.009,35.461,0,0,0,
,-0.354,-0.834,0.409,-15.625,-2.686,78.918,0,0,0,
,-0.353,-0.849,0.4,-100.22,8.789,98.083,0,0,0,
,-0.336,-0.829,0.404,-174.073,24.047,112.182,0,0,0,
,-0.324,-0.832,0.431,-198.121,22.461,106.262,0,0,0,
,-0.307,-0.842,0.473,-217.164,20.935,106.75,0,0,0,
,-0.289,-0.843,0.514,-223.206,14.892,102.417,0,0,0,
,-0.277,-0.824,0.538,-182.801,5.31,100.341,0,0,0,
,-0.265,-0.842,0.562,-124.085,-4.578,88.378,0,0,0,
,-0.255,-0.88,0.554,-98.816,-6.958,74.89,0,0,0,
,-0.225,-0.927,0.553,-102.051,-15.381,72.631,0,0,0,
,-0.202,-0.963,0.54,-145.02,-32.776,78.43,0,0,0,
,-0.201,-0.941,0.537,-224.549,-56.885,75.073,0,0,0,
,-0.222,-0.887,0.53,-269.41,-55.909,58.166,0,0,0,
,-0.231,-0.841,0.528,-250.794,-44.19,44.494,0,0,0,
,-0.229,-0.824,0.545,-181.031,-29.786,43.029,0,0,0,
,-0.21,-0.844,0.543,-148.865,-26.612,39.917,0,0,0,
,-0.209,-0.859,0.537,-167.847,-40.467,42.785,0,0,0,
,-0.203,-0.831,0.55,-204.346,-57.007,48.767,0,0,0,
,-0.21,-0.816,0.549,-215.149,-82.276,31.616,0,0,0,
,-0.221,-0.849,0.567,-256.043,-110.291,38.391,0,0,0,
,-0.216,-0.837,0.589,-352.173,-125.977,55.297,0,0,0,
,-0.222,-0.795,0.599,-429.749,-145.447,67.016,0,0,0,
,-0.239,-0.758,0.627,-452.759,-151.673,73.669,0,0,0,
,-0.233,-0.733,0.643,-435.242,-145.752,71.106,0,0,0,
,-0.234,-0.715,0.658,-376.099,-142.09,75.073,0,0,0,
,-0.24,-0.721,0.663,-284.119,-133.606,78.125,0,0,0,
,-0.236,-0.716,0.678,-202.393,-125.123,84.35,0,0,0,
,-0.24,-0.735,0.679,-111.451,-110.352,81.054,0,0,0,
,-0.238,-0.771,0.671,-60.791,-109.803,74.707,0,0,0,
,-0.235,-0.819,0.653,-55.42,-106.751,69.763,0,0,0,
,-0.232,-0.84,0.649,-96.192,-117.066,69.702,0,0,0,
,-0.235,-0.846,0.655,-185.303,-126.099,59.631,0,0,0,
,-0.239,-0.833,0.66,-260.682,-132.142,49.194,0,0,0,
,-0.245,-0.821,0.647,-329.895,-134.644,42.053,0,0,0,
,-0.242,-0.823,0.667,-398.987,-155.396,38.086,0,0,0,
,-0.249,-0.798,0.674,-483.887,-136.048,39.367,0,0,0,
,-0.243,-0.765,0.68,-547.73,-130.127,35.644,0,0,0,
,-0.247,-0.739,0.693,-589.844,-123.169,30.822,0,0,0,
,-0.248,-0.717,0.708,-609.07,-104.371,31.738,0,0,0,
,-0.235,-0.73,0.707,-629.395,-89.112,22.522,0,0,0,
,-0.232,-0.727,0.708,-703.003,-83.558,12.573,0,0,0,
,-0.239,-0.663,0.724,-747.193,-81.36,-12.024,0,0,0,
,-0.249,-0.612,0.751,-688.721,-89.905,-25.086,0,0,0,
,-0.26,-0.589,0.792,-589.783,-77.637,-38.819,0,0,0,
,-0.258,-0.555,0.807,-465.577,-63.05,-56.458,0,0,0,
,-0.276,-0.564,0.806,-305.726,-65.918,-81.177,0,0,0,
,-0.289,-0.602,0.778,-243.836,-41.565,-84.9,0,0,0,
,-0.284,-0.617,0.795,-301.392,-23.377,-105.591,0,0,0,
,-0.281,-0.555,0.813,-342.53,-21.851,-119.873,0,0,0,
,-0.292,-0.514,0.834,-310.059,-26.978,-121.46,0,0,0,
,-0.289,-0.504,0.858,-265.198,-9.156,-115.784,0,0,0,
,-0.292,-0.502,0.876,-252.808,-1.099,-123.475,0,0,0,
,-0.301,-0.465,0.869,-251.587,-18.86,-126.221,0,0,0,
,-0.316,-0.436,0.897,-220.398,-29.114,-130.555,0,0,0,
,-0.318,-0.424,0.921,-170.289,-16.358,-129.151,0,0,0,
,-0.314,-0.409,0.923,-109.07,-9.888,-129.761,0,0,0,
,-0.321,-0.406,0.902,-45.105,-18.311,-137.024,0,0,0,
,-0.336,-0.38,0.898,28.991,-33.875,-136.475,0,0,0,
,-0.316,-0.371,0.901,126.281,-32.776,-138.123,0,0,0,
,-0.354,-0.384,0.899,220.092,-24.353,-137.024,0,0,0,
,-0.36,-0.426,0.881,264.77,-19.898,-136.841,0,0,0,
,-0.359,-0.462,0.864,257.568,-6.714,-132.752,0,0,0,
,-0.348,-0.478,0.843,229.98,-8.851,-134.583,0,0,0,
,-0.356,-0.478,0.825,220.337,-27.955,-129.7,0,0,0,
,-0.366,-0.472,0.813,247.863,-33.387,-116.761,0,0,0,
,-0.365,-0.488,0.795,268.676,-26.123,-121.338,0,0,0,
,-0.368,-0.496,0.778,274.17,-22.644,-124.634,0,0,0,
,-0.377,-0.509,0.755,277.71,-22.644,-128.296,0,0,0,
,-0.385,-0.542,0.748,290.039,-10.132,-127.869,0,0,0,
,-0.383,-0.568,0.749,279.602,9.826,-129.456,0,0,0,
,-0.379,-0.589,0.735,247.253,25.085,-136.353,0,0,0,
,-0.382,-0.583,0.729,206.115,23.62,-141.541,0,0,0,
,-0.391,-0.567,0.742,190.063,28.137,-154.053,0,0,0,
,-0.382,-0.56,0.765,201.233,41.503,-156.373,0,0,0,
,-0.381,-0.554,0.764,243.286,47.424,-162.11,0,0,0,
,-0.379,-0.558,0.761,279.602,49.377,-186.707,0,0,0,
,-0.392,-0.571,0.763,307.067,46.325,-179.81,0,0,0,
,-0.397,-0.571,0.755,324.157,53.772,-185.12,0,0,0,
,-0.4,-0.575,0.743,334.716,57.678,-181.702,0,0,0,
,-0.406,-0.562,0.716,341.43,52.551,-177.124,0,0,0,
,-0.412,-0.543,0.694,349.609,45.654,-174.256,0,0,0,
,-0.432,-0.505,0.664,396.179,38.818,-172.608,0,0,0,
,-0.447,-0.502,0.637,463.073,41.565,-159.668,0,0,0,
,-0.46,-0.507,0.627,520.202,63.354,-136.536,0,0,0,
,-0.454,-0.538,0.612,569.336,94.543,-122.01,0,0,0,
,-0.444,-0.589,0.582,604.187,111.633,-104.065,0,0,0,
,-0.42,-0.663,0.57,596.801,118.591,-82.764,0,0,0,
,-0.407,-0.712,0.551,536.132,113.647,-63.843,0,0,0,
,-0.413,-0.714,0.554,456.726,108.947,-37.72,0,0,0,
,-0.42,-0.727,0.516,396.972,105.102,-23.438,0,0,0,
,-0.424,-0.75,0.502,330.505,108.703,-8.973,0,0,0,
,-0.422,-0.768,0.501,265.625,117.065,2.99,0,0,0,
,-0.409,-0.769,0.518,200.927,133.606,6.652,0,0,0,
,-0.404,-0.758,0.541,169.922,137.939,10.742,0,0,0,
,-0.403,-0.767,0.566,166.748,153.564,17.028,0,0,0,
,-0.384,-0.772,0.568,164.856,185.485,20.813,0,0,0,
,-0.369,-0.796,0.569,157.409,188.842,14.892,0,0,0,
,-0.36,-0.821,0.576,110.29,181.579,16.906,0,0,0,
,-0.355,-0.804,0.587,18.737,177.673,31.799,0,0,0,
,-0.346,-0.767,0.623,-27.405,174.377,36.621,0,0,0,
,-0.336,-0.748,0.631,-46.143,177.978,44.738,0,0,0,
,-0.316,-0.75,0.643,-49.866,190.918,42.785,0,0,0,
,-0.299,-0.762,0.652,-64.026,187.683,40.954,0,0,0,
,-0.273,-0.802,0.639,-80.323,197.448,41.198,0,0,0,
,-0.256,-0.83,0.642,-91.797,172.912,51.208,0,0,0,
,-0.256,-0.832,0.661,-113.587,147.4,50.231,0,0,0,
,-0.25,-0.838,0.66,-111.512,131.652,58.166,0,0,0,
,-0.242,-0.848,0.66,-112.305,110.473,58.96,0,0,0,
,-0.232,-0.874,0.671,-133.973,78.064,64.209,0,0,0,
,-0.231,-0.898,0.672,-209.717,58.898,70.312,0,0,0,
,-0.232,-0.876,0.695,-326.722,40.71,65.368,0,0,0,
,-0.236,-0.796,0.681,-377.137,34.851,61.462,0,0,0,
,-0.251,-0.737,0.668,-361.573,27.771,47.241,0,0,0,
,-0.259,-0.727,0.671,-318.848,23.376,54.809,0,0,0,
,-0.256,-0.748,0.691,-327.393,24.108,70.495,0,0,0,
,-0.236,-0.746,0.691,-379.7,36.438,101.013,0,0,0,
,-0.219,-0.729,0.671,-436.585,25.207,127.136,0,0,0,
,-0.2,-0.698,0.704,-476.319,3.845,141.845,0,0,0,
,-0.19,-0.675,0.748,-475.892,-23.682,136.779,0,0,0,
,-0.184,-0.674,0.78,-464.783,-34.668,138.733,0,0,0,
,-0.16,-0.649,0.791,-458.313,-39.002,140.564,0,0,0,
,-0.154,-0.625,0.792,-407.715,-51.148,136.596,0,0,0,
,-0.147,-0.625,0.782,-338.196,-70.191,137.939,0,0,0,
,-0.135,-0.631,0.772,-285.95,-91.187,137.268,0,0,0,
,-0.14,-0.651,0.763,-270.142,-109.07,133.545,0,0,0,
,-0.145,-0.64,0.761,-284.607,-118.409,133.667,0,0,0,
,-0.142,-0.628,0.753,-269.776,-123.047,128.296,0,0,0,
,-0.145,-0.631,0.765,-247.559,-131.775,129.943,0,0,0,
,-0.146,-0.618,0.765,-246.033,-131.165,119.69,0,0,0,
,-0.154,-0.619,0.784,-213.318,-131.165,116.272,0,0,0,
,-0.16,-0.618,0.786,-189.82,-124.207,113.037,0,0,0,
,-0.168,-0.626,0.806,-179.444,-116.456,95.336,0,0,0,
,-0.174,-0.629,0.815,-171.814,-117.066,86.669,0,0,0,
,-0.182,-0.622,0.831,-154.358,-119.263,79.834,0,0,0,
,-0.186,-0.632,0.823,-132.142,-129.639,75.439,0,0,0,
,-0.194,-0.625,0.839,-143.494,-136.353,73.669,0,0,0,
,-0.203,-0.603,0.852,-159.852,-131.958,54.809,0,0,0,
,-0.208,-0.589,0.843,-145.142,-121.155,42.48,0,0,0,
,-0.216,-0.589,0.829,-141.114,-111.206,33.874,0,0,0,
,-0.217,-0.576,0.82,-142.701,-95.948,37.292,0,0,0,
,-0.217,-0.569,0.804,-122.132,-94.544,36.621,0,0,0,
,-0.218,-0.57,0.819,-114.014,-93.018,45.044,0,0,0,
,-0.221,-0.579,0.829,-125.367,-82.276,41.381,0,0,0,
,-0.218,-0.576,0.836,-125.794,-86.121,38.269,0,0,0,
,-0.226,-0.577,0.843,-110.474,-90.027,32.104,0,0,0,
,-0.23,-0.569,0.842,-76.172,-103.211,17.273,0,0,0,
,-0.241,-0.572,0.83,-33.753,-115.784,9.46,0,0,0,
,-0.247,-0.568,0.839,0.305,-120.423,3.723,0,0,0,
,-0.253,-0.564,0.822,28.808,-120.972,-3.357,0,0,0,
,-0.261,-0.583,0.802,28.503,-124.451,-1.099,0,0,0,
,-0.268,-0.579,0.808,-0.123,-127.381,-3.663,0,0,0,
,-0.312,-0.585,0.811,2.746,-124.085,-8.912,0,0,0,
,-0.284,-0.597,0.815,2.258,-120.545,-9.705,0,0,0,
,-0.293,-0.586,0.808,4.943,-122.437,-17.884,0,0,0,
,-0.295,-0.573,0.808,40.893,-121.277,-25.574,0,0,0,
,-0.304,-0.587,0.808,85.327,-109.864,-34.241,0,0,0,
,-0.307,-0.602,0.804,100.402,-97.779,-44.556,0,0,0,
,-0.305,-0.595,0.788,109.558,-88.501,-57.19,0,0,0,
,-0.315,-0.589,0.786,126.342,-88.868,-66.346,0,0,0,
,-0.335,-0.611,0.778,133.911,-81.116,-75.318,0,0,0,
,-0.334,-0.633,0.766,113.464,-71.045,-72.693,0,0,0,
,-0.338,-0.614,0.752,77.758,-73.975,-83.313,0,0,0,
,-0.35,-0.622,0.746,63.171,-76.294,-95.276,0,0,0,
,-0.363,-0.608,0.746,54.748,-67.81,-101.746,0,0,0,
,-0.37,-0.583,0.745,63.72,-57.496,-112.427,0,0,0,
,-0.382,-0.597,0.745,93.627,-30.335,-120.179,0,0,0,
,-0.466,-0.49,0.717,109.008,-57.068,-158.814,0,0,0,
,-0.48,-0.607,0.771,389.587,16.418,-168.274,0,0,0,
,-0.397,-0.692,0.661,365.6,144.287,-149.17,0,0,0,
,-0.345,-0.71,0.654,232.483,85.449,-179.505,0,0,0,
,-0.38,-0.703,0.685,103.454,47.912,-186.585,0,0,0,
,-0.397,-0.64,0.681,0.915,71.289,-191.773,0,0,0,
,-0.391,-0.596,0.686,-6.897,79.345,-194.153,0,0,0,
,-0.386,-0.582,0.691,33.813,91.735,-183.838,0,0,0,
,-0.374,-0.596,0.714,61.462,101.44,-182.373,0,0,0,
,-0.372,-0.58,0.687,57.495,100.83,-181.885,0,0,0,
,-0.379,-0.55,0.697,87.768,81.848,-184.144,0,0,0,
,-0.392,-0.55,0.7,149.414,83.74,-182.312,0,0,0,
,-0.396,-0.55,0.689,220.764,95.825,-179.261,0,0,0,
,-0.401,-0.575,0.682,287.414,109.985,-175.599,0,0,0,
,-0.394,-0.616,0.661,318.481,132.69,-171.631,0,0,0,
,-0.379,-0.649,0.656,298.462,141.052,-171.021,0,0,0,
,-0.371,-0.664,0.659,262.146,142.395,-167.054,0,0,0,
,-0.368,-0.678,0.675,225.647,139.16,-160.34,0,0,0,
,-0.357,-0.68,0.694,180.42,125.061,-145.63,0,0,0,
