TIMECODE,ACC_X,ACC_Y,ACC_Z,GYR_X,GYR_Y,GYR_Z,ECG_I,ECG_II,ECG_III,TAG
,0.046,-0.816,0.594,-18.982,8.972,-29.725,0,0,0,
,0.047,-0.817,0.593,-15.809,7.385,-30.213,0,0,0,
,0.044,-0.818,0.593,-13.306,7.446,-29.419,0,0,0,
,0.043,-0.819,0.593,-7.569,7.08,-27.649,0,0,0,
,0.033,-0.807,0.596,-9.278,3.784,-28.199,0,0,0,
,0.036,-0.816,0.602,3.662,6.225,-25.086,0,0,0,
,0.045,-0.828,0.595,10.131,3.051,-24.109,0,0,0,
,0.039,-0.833,0.596,3.051,5.31,-27.344,0,0,0,
,0.041,-0.836,0.596,-8.851,6.897,-27.955,0,0,0,
,0.04,-0.83,0.594,-14.954,10.131,-29.053,0,0,0,
,0.044,-0.832,0.595,-18.86,9.826,-31.067,0,0,0,
,0.041,-0.828,0.596,-21.241,9.582,-30.945,0,0,0,
,0.048,-0.823,0.599,-21.485,11.535,-31.25,0,0,0,
,0.046,-0.821,0.593,-18.006,12.756,-30.945,0,0,0,
,0.044,-0.822,0.591,-15.748,12.085,-30.701,0,0,0,
,0.044,-0.823,0.588,-13.672,12.207,-30.457,0,0,0,
,0.042,-0.823,0.589,-15.931,9.399,-29.236,0,0,0,
,0.043,-0.824,0.562,-12.024,5.065,-27.344,0,0,0,
,0.041,-0.825,0.59,-11.231,5.859,-26.551,0,0,0,
,0.04,-0.821,0.589,-12.574,6.286,-26.978,0,0,0,
,0.042,-0.823,0.592,-10.926,6.164,-26.368,0,0,0,
,0.045,-0.824,0.594,-8.057,7.934,-24.781,0,0,0,
,0.044,-0.828,0.598,-3.479,7.446,-26.368,0,0,0,
,0.039,-0.829,0.602,1.77,6.408,-27.1,0,0,0,
,0.045,-0.83,0.6,3.601,6.164,-26.001,0,0,0,
,0.049,-0.839,0.592,-7.081,6.53,-29.602,0,0,0,
,0.044,-0.84,0.592,-18.25,7.141,-28.809,0,0,0,
,0.041,-0.833,0.59,-25.269,8.667,-28.992,0,0,0,
,0.043,-0.823,0.592,-28.077,10.864,-28.748,0,0,0,
,0.044,-0.823,0.592,-24.842,9.033,-28.992,0,0,0,
,0.045,-0.819,0.594,-23.194,10.62,-29.297,0,0,0,
,0.044,-0.822,0.592,-17.212,11.474,-31.556,0,0,0,
,0.042,-0.818,0.588,-13.55,8.361,-28.504,0,0,0,
,0.045,-0.824,0.589,-11.292,8.117,-27.894,0,0,0,
,0.046,-0.823,0.59,-10.376,8.3,-26.856,0,0,0,
,0.046,-0.825,0.586,-9.278,7.568,-26.734,0,0,0,
,0.046,-0.826,0.593,-7.019,5.798,-25.33,0,0,0,
,0.049,-0.833,0.6,-6.531,7.324,-27.039,0,0,0,
,0.037,-0.837,0.599,-12.024,5.737,-27.588,0,0,0,
,0.037,-0.834,0.597,-18.86,8.728,-30.762,0,0,0,
,0.043,-0.823,0.562,-21.302,9.948,-29.664,0,0,0,
,0.051,-0.819,0.593,-16.419,12.085,-30.091,0,0,0,
,0.042,-0.825,0.591,-11.597,10.498,-36.316,0,0,0,
,0.034,-0.832,0.595,-14.466,15.075,-36.011,0,0,0,
,0.041,-0.825,0.595,-21.668,16.418,-32.715,0,0,0,
,0.045,-0.822,0.592,-20.813,15.075,-33.509,0,0,0,
,0.049,-0.826,0.593,-15.076,30.212,-33.692,0,0,0,
,0.05,-0.829,0.59,-16.419,11.901,-34.79,0,0,0,
,0.051,-0.826,0.587,-23.56,14.892,-32.105,0,0,0,
,0.045,-0.82,0.588,-21.424,14.221,-32.654,0,0,0,
,0.044,-0.819,0.591,-18.067,12.146,-32.471,0,0,0,
,0.041,-0.824,0.594,-14.222,13,-32.288,0,0,0,
,0.04,-0.825,0.592,-13.733,11.779,-30.518,0,0,0,
,0.045,-0.824,0.592,-11.719,11.23,-30.579,0,0,0,
,0.041,-0.825,0.591,-9.034,9.643,-30.701,0,0,0,
,0.041,-0.832,0.598,-11.78,9.399,-31.373,0,0,0,
,0.044,-0.829,0.593,-12.757,9.582,-30.457,0,0,0,
,0.042,-0.823,0.593,-18.494,11.84,-29.541,0,0,0,
,0.044,-0.825,0.593,-17.273,11.23,-30.152,0,0,0,
,0.047,-0.828,0.595,-16.907,10.803,-31.983,0,0,0,
,0.043,-0.825,0.592,-18.799,11.474,-30.64,0,0,0,
,0.046,-0.823,0.592,-14.832,10.925,-31.067,0,0,0,
,0.047,-0.824,0.59,-12.879,10.62,-29.664,0,0,0,
,0.045,-0.825,0.595,-12.452,11.047,-30.823,0,0,0,
,0.045,-0.825,0.59,-11.719,7.995,-30.03,0,0,0,
,0.042,-0.823,0.592,-11.231,6.042,-27.832,0,0,0,
,0.043,-0.825,0.593,-10.865,6.347,-30.152,0,0,0,
,0.044,-0.828,0.592,-10.254,6.774,-27.832,0,0,0,
,0.044,-0.824,0.622,-9.827,7.629,-27.588,0,0,0,
,0.044,-0.825,0.592,-11.475,7.873,-28.443,0,0,0,
,0.041,-0.828,0.591,-13.367,9.948,-29.48,0,0,0,
,0.044,-0.824,0.591,-13.916,7.751,-29.114,0,0,0,
,0.044,-0.825,0.591,-13.916,9.46,-28.199,0,0,0,
,0.044,-0.823,0.592,-15.87,8.483,-30.091,0,0,0,
,0.042,-0.819,0.591,-12.207,6.958,-27.649,0,0,0,
,0.044,-0.824,0.589,-6.226,7.446,-26.551,0,0,0,
,0.046,-0.828,0.595,-6.775,6.408,-29.664,0,0,0,
,0.043,-0.827,0.595,-11.048,7.873,-29.053,0,0,0,
,0.046,-0.825,0.59,-8.545,7.019,-26.612,0,0,0,
,0.045,-0.827,0.591,-9.156,9.094,-28.504,0,0,0,
,0.04,-0.829,0.596,-10.498,7.141,-28.626,0,0,0,
,0.041,-0.826,0.593,-11.719,8.911,-27.588,0,0,0,
,0.041,-0.826,0.593,-9.339,7.934,-29.358,0,0,0,
,0.044,-0.829,0.591,-8.423,10.437,-29.419,0,0,0,
,0.047,-0.829,0.584,-6.653,10.315,-28.992,0,0,0,
,0.049,-0.828,0.591,-8.179,11.108,-29.114,0,0,0,
,0.045,-0.831,0.587,-10.132,8.667,-31.434,0,0,0,
,0.046,-0.829,0.589,-10.987,8.667,-28.748,0,0,0,
,0.044,-0.828,0.591,-9.827,6.53,-28.443,0,0,0,
,0.042,-0.828,0.584,-11.109,8.972,-29.114,0,0,0,
,0.044,-0.829,0.59,-10.01,6.042,-29.602,0,0,0,
,0.047,-0.825,0.594,-10.926,8.544,-28.87,0,0,0,
,0.046,-0.828,0.591,-11.353,7.751,-29.297,0,0,0,
,0.038,-0.829,0.592,-12.513,11.413,-30.762,0,0,0,
,0.038,-0.828,0.59,-9.095,11.84,-27.466,0,0,0,
,0.039,-0.826,0.585,-8.118,7.934,-27.832,0,0,0,
,0.044,-0.825,0.588,-7.019,9.277,-27.649,0,0,0,
,0.047,-0.828,0.588,-6.165,6.836,-26.856,0,0,0,
,0.046,-0.831,0.589,-4.334,11.047,-27.1,0,0,0,
,0.047,-0.831,0.587,-6.165,7.69,-27.222,0,0,0,
,0.044,-0.83,0.586,-8.301,9.582,-29.297,0,0,0,
,0.046,-0.831,0.585,-8.423,6.286,-28.504,0,0,0,
,0.048,-0.828,0.587,-9.583,8.667,-29.114,0,0,0,
,0.046,-0.828,0.581,-8.789,9.155,-26.795,0,0,0,
,0.044,-0.831,0.586,-6.775,8.178,-28.809,0,0,0,
,0.044,-0.831,0.585,-5.555,7.385,-26.795,0,0,0,
,0.044,-0.832,0.589,-6.653,5.065,-26.062,0,0,0,
,0.042,-0.832,0.584,-8.057,7.934,-27.405,0,0,0,
,0.044,-0.828,0.584,-10.315,5.249,-26.246,0,0,0,
,0.041,-0.828,0.586,-9.766,4.638,-27.039,0,0,0,
,0.045,-0.831,0.584,-8.057,5.371,-26.917,0,0,0,
,0.046,-0.83,0.582,-8.912,5.31,-28.199,0,0,0,
,0.042,-0.829,0.582,-7.447,7.202,-28.504,0,0,0,
,0.045,-0.832,0.582,-7.569,10.864,-27.283,0,0,0,
,0.044,-0.835,0.582,-9.949,8.667,-30.518,0,0,0,
,0.042,-0.832,0.578,-7.447,8.483,-30.701,0,0,0,
,0.044,-0.821,0.583,2.563,7.873,-30.945,0,0,0,
,0.047,-0.833,0.581,-0.367,9.216,-30.457,0,0,0,
,0.046,-0.84,0.579,-7.813,7.263,-32.105,0,0,0,
,0.047,-0.836,0.578,-12.94,7.446,-29.236,0,0,0,
,0.045,-0.833,0.584,-15.137,11.291,-28.809,0,0,0,
,0.044,-0.833,0.583,-16.175,9.704,-31.373,0,0,0,
,0.046,-0.832,0.583,-12.452,10.498,-29.175,0,0,0,
,0.044,-0.835,0.585,-8.789,9.277,-31.311,0,0,0,
,0.043,-0.826,0.59,-1.831,8.85,-29.358,0,0,0,
,0.047,-0.833,0.586,-1.343,8.117,-31.678,0,0,0,
,0.046,-0.838,0.577,-2.32,9.216,-33.265,0,0,0,
,0.044,-0.839,0.572,-7.691,10.742,-31.922,0,0,0,
,0.043,-0.835,0.58,-12.146,10.559,-31.006,0,0,0,
,0.046,-0.835,0.581,-14.222,9.948,-29.847,0,0,0,
,0.045,-0.834,0.58,-11.048,6.713,-29.847,0,0,0,
,0.046,-0.831,0.579,-11.963,9.338,-29.602,0,0,0,
,0.044,-0.833,0.585,-10.254,7.995,-28.992,0,0,0,
,0.046,-0.837,0.581,-7.264,8.422,-29.664,0,0,0,
,0.046,-0.837,0.58,-9.339,11.474,-30.091,0,0,0,
,0.043,-0.834,0.578,-11.17,6.652,-30.518,0,0,0,
,0.043,-0.835,0.581,-9.034,9.521,-29.114,0,0,0,
,0.047,-0.836,0.577,-8.851,9.277,-29.969,0,0,0,
,0.048,-0.835,0.575,-9.705,7.08,-28.321,0,0,0,
,0.045,-0.829,0.572,-7.752,6.164,-29.602,0,0,0,
,0.042,-0.825,0.58,-0.55,5.31,-29.786,0,0,0,
,0.046,-0.842,0.578,5.493,6.53,-29.786,0,0,0,
,0.044,-0.839,0.578,1.648,4.333,-28.748,0,0,0,
,0.04,-0.836,0.576,1.586,8.3,-28.443,0,0,0,
,0.042,-0.833,0.579,0.549,6.652,-26.307,0,0,0,
,0.047,-0.841,0.574,9.033,3.356,-29.358,0,0,0,
,0.043,-0.847,0.573,0.61,7.873,-30.152,0,0,0,
,0.039,-0.843,0.571,-12.269,8.85,-28.26,0,0,0,
,0.043,-0.839,0.57,-13.245,8.056,-28.748,0,0,0,
,0.044,-0.839,0.574,-15.381,12.207,-28.504,0,0,0,
,0.052,-0.84,0.574,-13.916,10.498,-30.03,0,0,0,
,0.05,-0.839,0.574,-14.405,7.568,-31.311,0,0,0,
,0.045,-0.839,0.573,-10.865,11.901,-29.053,0,0,0,
,0.041,-0.839,0.573,-12.452,7.324,-31.739,0,0,0,
,0.041,-0.836,0.572,-10.926,9.521,-29.602,0,0,0,
,0.043,-0.829,0.567,-10.071,4.516,-28.443,0,0,0,
,0.049,-0.829,0.57,5.249,8.728,-26.368,0,0,0,
,0.045,-0.835,0.57,12.756,7.629,-28.87,0,0,0,
,0.04,-0.835,0.57,14.099,5.92,-29.664,0,0,0,
,0.042,-0.839,0.567,17.7,2.441,-28.321,0,0,0,
,0.042,-0.843,0.567,19.47,2.99,-26.246,0,0,0,
,0.043,-0.84,0.569,15.747,-0.428,-20.752,0,0,0,
,0.041,-0.832,0.562,17.578,-0.916,-21.729,0,0,0,
,0.036,-0.81,0.557,45.593,0.488,-16.48,0,0,0,
,0.037,-0.802,0.54,60.363,-5.494,-15.198,0,0,0,
,0.046,-0.802,0.511,84.167,-13.489,-11.292,0,0,0,
,0.046,-0.777,0.651,82.031,-20.752,-14.405,0,0,0,
,0.003,-0.879,0.599,-64.026,45.227,100.341,0,0,0,
,-0.013,-0.979,0.735,-13.977,66.772,68.908,0,0,0,
,-0.107,-0.952,0.897,529.358,90.21,101.745,0,0,0,
,-0.018,-0.982,1.368,1327.575,-70.923,-219.727,0,0,0,
,0.19,-1.722,1.367,1999.694,86.669,-192.994,0,0,0,
,0.613,-2.864,0.691,1782.531,44.189,-667.908,0,0,0,
,0.901,-3.38,-0.183,505.127,-242.127,-1307.007,0,0,0,
,0.906,-3.451,-0.019,-302.735,-588.807,-2000,0,0,0,
,0.694,-2.923,0.327,-603.577,-799.805,-2000,0,0,0,
,0.518,-2.261,0.17,-376.648,-862.305,-2000,0,0,0,
,0.5,-1.797,-0.023,64.453,-836.487,-2000,0,0,0,
,0.59,-1.355,-0.088,344.055,-729.798,-2000,0,0,0,
,0.751,-0.835,-0.087,121.887,-558.411,-2000,0,0,0,
,0.946,-0.153,-0.142,-362.915,-405.884,-2000,0,0,0,
,0.925,0.464,-0.216,-937.928,-292.42,-2000,0,0,0,
,0.868,1.095,-0.259,-1334.961,-204.285,-2000,0,0,0,
,0.629,1.662,-0.25,-1527.955,-228.455,-2000,0,0,0,
,0.409,1.967,-0.185,-1304.2,-151.673,-2000,0,0,0,
,0.326,1.624,-0.466,-680.542,4.638,-2000,0,0,0,
,0.151,1.927,-0.351,-616.639,19.104,-978.577,0,0,0,
,-0.125,3.206,0.037,-653.931,211.425,396.423,0,0,0,
,-0.057,2.98,0.119,-1.221,519.348,1281.921,0,0,0,
,0.114,1.787,0.123,513,811.645,1999.694,0,0,0,
,0.149,1.321,0.159,878.296,998.169,1999.694,0,0,0,
,0.187,1.137,0.178,1210.388,1120.727,1999.694,0,0,0,
,0.29,0.845,0.048,1609.558,1165.222,1999.694,0,0,0,
,0.522,0.559,-0.077,1988.647,980.774,1999.694,0,0,0,
,0.929,0.101,-0.134,1999.694,514.587,1999.694,0,0,0,
,1.28,-0.758,-0.516,1999.694,-112.427,1999.694,0,0,0,
,1.097,-2.49,0.162,984.253,-454.041,1999.694,0,0,0,
,0.66,-4,0.337,-1337.83,-177.124,1999.694,0,0,0,
,0.432,-3.222,0.524,-2000,142.7,1999.694,0,0,0,
,0.398,-2.458,0.611,-941.529,606.079,1998.657,0,0,0,
,0.282,-2.506,0.741,686.462,820.068,1534.729,0,0,0,
,-0.151,-2.45,-0.102,1525.573,613.403,1072.631,0,0,0,
,0.012,-2.997,0.42,721.008,-23.987,231.567,0,0,0,
,0.077,-3.68,0.131,-219.605,75.378,-164.856,0,0,0,
,-0.094,-0.86,0.451,-988.526,20.69,-334.534,0,0,0,
,-0.266,-0.174,0.378,-1065.796,-30.762,-338.257,0,0,0,
,-0.229,-0.22,0.349,-712.891,82.336,-217.896,0,0,0,
,-0.048,-0.292,0.282,-261.902,207.702,-118.226,0,0,0,
,-0.022,-0.341,0.277,80.322,263.977,31.555,0,0,0,
,-0.011,-0.453,0.334,354.614,308.044,169.189,0,0,0,
,0.048,-0.56,0.397,572.326,341.003,329.651,0,0,0,
,0.147,-1.201,0.818,463.317,77.941,320.556,0,0,0,
,0.175,-2.454,0.641,-7.752,212.585,113.708,0,0,0,
,0.142,-1.385,0.191,-175.843,106.018,-80.018,0,0,0,
,0.078,-0.413,0.38,-311.036,-167.542,-173.768,0,0,0,
,-0.036,-0.367,0.526,-11.841,-199.83,-240.601,0,0,0,
,-0.04,-0.652,0.442,341.43,-9.4,-93.934,0,0,0,
,0.064,-1.073,0.451,244.201,37.109,9.643,0,0,0,
,0.064,-1.114,0.354,232.116,10.742,-80.811,0,0,0,
,0.035,-1.052,0.339,126.22,1.77,-130.555,0,0,0,
,0.049,-1.031,0.364,29.541,-1.648,-108.155,0,0,0,
,0.108,-0.979,0.406,-16.297,-29.419,-74.28,0,0,0,
,0.146,-0.951,0.389,5.004,-54.749,5.554,0,0,0,
,0.221,-1.067,0.362,108.093,-98.999,-76.477,0,0,0,
,0.26,-1.101,0.251,250.244,-133.728,-63.721,0,0,0,
,0.25,-1.195,0.29,295.044,-156.861,-142.09,0,0,0,
,0.228,-1.302,0.282,194.824,-168.763,-234.436,0,0,0,
,0.213,-1.425,0.265,-2.93,-161.56,-377.076,0,0,0,
,0.15,-1.409,0.228,-228.394,-115.967,-489.685,0,0,0,
,0.128,-1.256,0.31,-401.246,-40.772,-578.186,0,0,0,
,0.172,-1.1,0.359,-416.626,77.392,-636.658,0,0,0,
,0.172,-0.989,0.337,-467.713,166.442,-677.002,0,0,0,
,0.085,-0.871,0.309,-523.682,239.624,-708.252,0,0,0,
,-0.02,-0.792,0.29,-473.999,268.493,-681.275,0,0,0,
,-0.135,-0.661,0.246,-300.538,253.173,-596.985,0,0,0,
,-0.241,-0.566,0.255,-168.946,228.881,-561.707,0,0,0,
,-0.335,-0.546,0.315,-81.971,221.435,-579.163,0,0,0,
,-0.408,-0.599,0.321,-0.855,249.328,-570.13,0,0,0,
,-0.441,-0.594,0.301,86.364,252.868,-507.935,0,0,0,
,-0.487,-0.552,0.271,236.084,232.422,-441.956,0,0,0,
,-0.525,-0.551,0.242,370.605,208.801,-383.118,0,0,0,
,-0.559,-0.616,0.249,354.919,183.349,-328.431,0,0,0,
,-0.578,-0.709,0.255,231.323,154.785,-317.2,0,0,0,
,-0.585,-0.798,0.276,80.932,149.292,-281.556,0,0,0,
,-0.578,-0.879,0.333,-112.061,179.87,-197.815,0,0,0,
,-0.525,-0.886,0.385,-345.704,207.885,-109.681,0,0,0,
,-0.442,-0.839,0.458,-533.448,137.024,-29.969,0,0,0,
,-0.383,-0.779,0.528,-621.399,-6.531,9.216,0,0,0,
,-0.343,-0.701,0.607,-567.322,-188.904,28.503,0,0,0,
,-0.324,-0.687,0.75,-361.634,-318.787,5.92,0,0,0,
,-0.311,-0.758,0.861,-34.058,-289.734,-43.58,0,0,0,
,-0.277,-0.909,0.873,220.092,-165.467,-81.604,0,0,0,
,-0.255,-1.001,0.8,293.274,-53.101,-114.441,0,0,0,
,-0.278,-0.986,0.688,222.229,7.08,-174.866,0,0,0,
,-0.288,-0.964,0.547,140.869,1.403,-224.671,0,0,0,
,-0.239,-1.002,0.611,52.063,-119.324,-236.817,0,0,0,
,-0.316,-1.069,0.586,-133.24,-70.862,-206.727,0,0,0,
,-0.341,-0.986,0.652,-334.412,-107.972,-191.956,0,0,0,
,-0.362,-0.819,0.676,-294.251,-109.986,-154.419,0,0,0,
,-0.359,-0.756,0.688,-114.869,-76.905,-127.442,0,0,0,
,-0.373,-0.836,0.677,-19.043,-79.59,-121.582,0,0,0,
,-0.415,-0.905,0.691,-51.758,-91.858,-105.896,0,0,0,
,-0.435,-0.878,0.68,-111.206,-129.456,-97.657,0,0,0,
,-0.451,-0.869,0.642,-121.766,-178.101,-75.562,0,0,0,
,-0.476,-0.856,0.602,-109.864,-218.873,-58.655,0,0,0,
,-0.478,-0.816,0.592,-93.506,-230.347,-45.96,0,0,0,
,-0.484,-0.823,0.579,-69.703,-205.079,-50.11,0,0,0,
,-0.498,-0.841,0.516,-36.927,-149.353,-51.819,0,0,0,
,-0.505,-0.764,0.47,12.329,-105.835,-30.579,0,0,0,
,-0.498,-0.741,0.383,-3.357,-94.178,-15.625,0,0,0,
,-0.427,-0.735,0.32,49.316,-71.412,-20.874,0,0,0,
,-0.381,-0.831,0.293,21.179,-81.604,-23.438,0,0,0,
,-0.352,-0.956,0.317,-82.154,-93.506,-27.222,0,0,0,
,-0.367,-0.877,0.326,-232.483,-56.275,6.591,0,0,0,
,-0.386,-0.73,0.262,-183.289,-4.456,-12.452,0,0,0,
,-0.358,-0.662,0.208,111.023,55.969,12.329,0,0,0,
,-0.33,-0.68,0.226,416.87,92.773,45.41,0,0,0,
,-0.317,-0.685,0.255,539.123,95.398,21.667,0,0,0,
,-0.215,-0.872,0.299,391.906,126.709,64.636,0,0,0,
,-0.196,-0.851,0.311,340.576,179.992,39.611,0,0,0,
,-0.211,-0.86,0.295,300.476,241.455,-7.569,0,0,0,
,-0.191,-0.837,0.295,309.57,297.79,-68.421,0,0,0,
,-0.166,-0.927,0.289,370.3,316.65,-126.526,0,0,0,
,-0.144,-1.05,0.297,371.276,326.843,-130.005,0,0,0,
,-0.144,-1.007,0.352,339.477,326.355,-112.671,0,0,0,
,-0.148,-0.972,0.376,341.858,305.114,-95.765,0,0,0,
,-0.161,-0.934,0.431,336.364,260.742,-79.956,0,0,0,
,-0.176,-0.9,0.504,335.144,191.467,-92.225,0,0,0,
,-0.184,-0.952,0.551,333.679,126.159,-97.962,0,0,0,
,-0.188,-0.952,0.549,332.336,56.701,-100.892,0,0,0,
,-0.214,-0.949,0.536,345.092,-26.307,-102.845,0,0,0,
,-0.231,-1.003,0.5,332.153,-82.52,-112.915,0,0,0,
,-0.266,-1.016,0.414,264.648,-172.73,-135.682,0,0,0,
,-0.309,-1.001,0.371,126.526,-275.818,-139.954,0,0,0,
,-0.364,-1.004,0.407,-18.86,-385.56,-121.888,0,0,0,
,-0.421,-0.991,0.359,-179.322,-422.669,-90.149,0,0,0,
,-0.473,-0.921,0.231,-390.137,-457.825,-71.289,0,0,0,
,-0.531,-0.904,0.175,-577.21,-480.347,-31.617,0,0,0,
,-0.568,-0.836,0.146,-664.612,-478.516,-1.343,0,0,0,
,-0.595,-0.745,0.107,-654.969,-457.825,27.954,0,0,0,
,-0.611,-0.722,0.073,-538.636,-403.504,39.856,0,0,0,
,-0.601,-0.732,0.065,-406.983,-309.998,52.734,0,0,0,
,-0.569,-0.788,0.016,-300.782,-198.182,55.053,0,0,0,
,-0.538,-0.803,-0.025,-201.905,-59.571,57.495,0,0,0,
,-0.513,-0.795,-0.035,-110.474,82.58,55.419,0,0,0,
,-0.484,-0.808,-0.01,-77.576,204.651,57.739,0,0,0,
,-0.433,-0.847,0.035,-52.613,309.631,53.588,0,0,0,
,-0.368,-0.913,0.134,-66.59,360.656,45.654,0,0,0,
,-0.296,-1.016,0.27,-97.474,383.361,28.564,0,0,0,
,-0.244,-1.06,0.403,-114.258,385.009,-32.044,0,0,0,
,-0.229,-1.049,0.547,12.634,355.529,-139.466,0,0,0,
,-0.259,-1.096,0.609,175.598,331.604,-197.083,0,0,0,
,-0.278,-1.076,0.574,226.196,273.742,-225.892,0,0,0,
,-0.276,-1.013,0.605,235.717,169.494,-253.479,0,0,0,
,-0.294,-0.926,0.616,224.182,83.007,-240.357,0,0,0,
,-0.287,-0.858,0.576,176.208,1.831,-220.337,0,0,0,
,-0.277,-0.836,0.54,135.376,-75.806,-193.36,0,0,0,
,-0.296,-0.841,0.514,38.452,-157.288,-126.893,0,0,0,
,-0.331,-0.819,0.497,-86.731,-231.08,-93.262,0,0,0,
,-0.382,-0.779,0.433,-221.863,-289.917,-37.781,0,0,0,
,-0.43,-0.719,0.319,-326.6,-342.469,-0.977,0,0,0,
,-0.467,-0.66,0.261,-341.37,-394.471,40.832,0,0,0,
,-0.476,-0.664,0.171,-260.804,-412.72,89.172,0,0,0,
,-0.476,-0.714,0.068,-165.345,-394.593,124.206,0,0,0,
,-0.459,-0.817,0.011,-78.003,-337.098,162.536,0,0,0,
,-0.437,-0.942,0.028,-55.787,-229.981,186.035,0,0,0,
,-0.425,-0.971,0.093,-41.565,-78.858,159.912,0,0,0,
,-0.431,-0.964,0.16,59.204,76.049,108.642,0,0,0,
,-0.435,-0.997,0.205,182.8,208.435,20.263,0,0,0,
,-0.443,-1.056,0.231,250.671,275.39,-49.805,0,0,0,
,-0.427,-1.099,0.274,212.829,296.997,-103.028,0,0,0,
,-0.396,-1.082,0.275,128.723,271.301,-133.667,0,0,0,
,-0.393,-1.02,0.346,75.927,210.632,-173.401,0,0,0,
,-0.382,-0.951,0.394,84.411,148.681,-184.082,0,0,0,
,-0.375,-0.95,0.437,73.303,130.981,-185.669,0,0,0,
,-0.438,-0.952,0.415,19.836,136.84,-202.149,0,0,0,
,-0.458,-0.923,0.361,18.676,165.954,-187.745,0,0,0,
,-0.488,-0.905,0.325,41.381,196.045,-178.467,0,0,0,
,-0.521,-0.903,0.301,71.716,244.873,-175.354,0,0,0,
,-0.543,-0.871,0.265,143.371,302.795,-167.237,0,0,0,
,-0.545,-0.846,0.241,234.863,377.258,-136.414,0,0,0,
,-0.542,-0.846,0.23,273.132,418.518,-106.507,0,0,0,
,-0.541,-0.814,0.208,231.872,443.481,-84.351,0,0,0,
,-0.536,-0.747,0.208,135.986,454.406,-40.955,0,0,0,
,-0.512,-0.627,0.263,142.822,441.772,-33.02,0,0,0,
,-0.484,-0.669,0.318,234.192,415.222,-23.499,0,0,0,
,-0.419,-0.729,0.37,366.882,374.511,-7.813,0,0,0,
,-0.355,-0.768,0.395,356.872,304.992,13.977,0,0,0,
,-0.282,-0.998,0.405,146.667,185.058,-48.523,0,0,0,
,-0.265,-1.008,0.392,-259.705,44.128,37.597,0,0,0,
,-0.306,-0.564,0.454,-360.718,-26.856,142.761,0,0,0,
,-0.274,-0.624,0.448,-102.356,-39.002,86.731,0,0,0,
,-0.139,-0.967,0.409,8.606,-84.595,95.825,0,0,0,
,-0.071,-1.113,0.413,-148.133,-165.528,137.024,0,0,0,
,-0.056,-1.109,0.443,-334.046,-232.178,113.342,0,0,0,
,-0.074,-1.097,0.447,-424.256,-260.254,109.863,0,0,0,
,-0.082,-1.1,0.436,-498.841,-281.189,98.693,0,0,0,
,-0.125,-1.108,0.412,-576.416,-317.322,71.533,0,0,0,
,-0.143,-1.063,0.432,-603.15,-344.605,44.86,0,0,0,
,-0.191,-1.053,0.44,-565.186,-366.15,-0.794,0,0,0,
,-0.229,-1.063,0.447,-550.415,-375.733,-50.354,0,0,0,
,-0.288,-1.058,0.436,-602.295,-367.31,-101.197,0,0,0,
,-0.325,-1.07,0.377,-678.04,-356.324,-133.057,0,0,0,
,-0.355,-1.032,0.323,-735.474,-360.901,-180.237,0,0,0,
,-0.442,-0.919,0.322,-690.308,-367.432,-236.695,0,0,0,
,-0.55,-0.825,0.35,-557.862,-359.559,-281.067,0,0,0,
,-0.628,-0.791,0.356,-384.827,-334.717,-322.449,0,0,0,
,-0.677,-0.765,0.353,-209.595,-287.659,-338.623,0,0,0,
,-0.711,-0.69,0.318,-51.087,-219.422,-321.289,0,0,0,
,-0.73,-0.601,0.248,101.318,-126.099,-318.787,0,0,0,
,-0.739,-0.491,0.202,302.185,-51.697,-278.626,0,0,0,
,-0.733,-0.402,0.153,521.606,50.415,-206.665,0,0,0,
,-0.719,-0.378,0.135,707.458,137.695,-134.705,0,0,0,
,-0.698,-0.381,0.146,863.647,224.975,-38.147,0,0,0,
,-0.649,-0.403,0.231,966.369,285.217,54.687,0,0,0,
,-0.581,-0.488,0.285,957.275,331.176,112.732,0,0,0,
,-0.474,-0.646,0.342,855.713,336.609,155.029,0,0,0,
,-0.422,-0.803,0.381,651.611,298.584,198.242,0,0,0,
,-0.337,-0.935,0.41,432.434,224.731,233.703,0,0,0,
,-0.281,-1.004,0.447,184.57,141.357,260.803,0,0,0,
,-0.23,-1.062,0.493,-111.695,31.494,245.849,0,0,0,
,-0.197,-1.056,0.602,-184.205,-93.201,183.41,0,0,0,
,-0.21,-1.055,0.613,-52.369,-176.026,132.751,0,0,0,
,-0.194,-1.191,0.523,-70.923,-263.916,100.28,0,0,0,
,-0.19,-1.211,0.514,-261.353,-330.628,76.721,0,0,0,
,-0.223,-1.115,0.486,-398.987,-356.385,35.522,0,0,0,
,-0.251,-1.07,0.458,-437.073,-355.164,-0.977,0,0,0,
,-0.293,-1.088,0.419,-490.479,-354.92,-25.696,0,0,0,
,-0.334,-1.077,0.409,-566.651,-349.976,-34.974,0,0,0,
,-0.371,-1.035,0.393,-593.201,-348.145,-53.528,0,0,0,
,-0.405,-0.985,0.36,-506.409,-347.962,-85.816,0,0,0,
,-0.442,-0.96,0.303,-388.733,-343.201,-129.639,0,0,0,
,-0.499,-0.938,0.25,-240.174,-334.839,-189.637,0,0,0,
,-0.561,-0.911,0.2,-129.944,-299.866,-249.146,0,0,0,
,-0.604,-0.865,0.156,-28.138,-242.859,-258.057,0,0,0,
,-0.648,-0.764,0.119,70.373,-165.833,-248.414,0,0,0,
,-0.768,-0.632,-0.09,258.3,91.857,-246.888,0,0,0,
,-0.782,-0.434,-0.106,434.448,179.809,-204.529,0,0,0,
,-0.762,-0.598,-0.095,559.997,299.743,-158.814,0,0,0,
,-0.687,-0.74,-0.036,406.86,362.976,-94.727,0,0,0,
,-0.663,-0.775,0.038,125.305,386.718,-10.682,0,0,0,
,-0.617,-0.645,0.17,-155.213,410.339,66.772,0,0,0,
,-0.551,-0.519,0.282,-173.462,376.098,49.316,0,0,0,
,-0.514,-0.489,0.551,273.559,313.72,-16.419,0,0,0,
,-0.508,-0.696,0.533,602.966,354.37,24.353,0,0,0,
,-0.397,-0.947,0.472,457.641,322.143,86.792,0,0,0,
,-0.263,-1.005,0.49,225.28,219.116,117.981,0,0,0,
,-0.282,-0.939,0.602,170.959,103.515,122.741,0,0,0,
,-0.247,-0.944,0.674,292.663,4.638,66.467,0,0,0,
,-0.244,-1.101,0.638,312.378,-87.342,9.216,0,0,0,
,-0.253,-1.197,0.595,124.817,-155.579,-0.428,0,0,0,
,-0.271,-1.068,0.531,-145.325,-210.633,21.179,0,0,0,
,-0.288,-0.922,0.53,-123.658,-257.63,16.723,0,0,0,
,-0.323,-0.936,0.52,-21.607,-285.706,19.653,0,0,0,
,-0.337,-1,0.456,-62.012,-293.03,9.277,0,0,0,
,-0.397,-1.021,0.392,-190.003,-314.393,16.967,0,0,0,
,-0.45,-0.98,0.314,-311.768,-342.347,41.503,0,0,0,
,-0.507,-0.925,0.279,-371.949,-373.902,57.922,0,0,0,
,-0.525,-0.907,0.177,-436.829,-385.071,36.315,0,0,0,
,-0.592,-1.017,0.005,-623.963,-386.658,3.356,0,0,0,
,-0.656,-0.967,-0.073,-888.489,-377.442,34.545,0,0,0,
,-0.672,-0.75,-0.092,-920.594,-309.998,12.573,0,0,0,
,-0.674,-0.741,-0.087,-697.266,-203.248,-45.105,0,0,0,
,-0.662,-0.784,-0.101,-490.54,-57.373,-91.431,0,0,0,
,-0.615,-0.797,-0.051,-397.706,69.702,-128.907,0,0,0,
,-0.555,-0.854,0.013,-433.594,148.559,-167.969,0,0,0,
,-0.526,-0.876,0.104,-522.706,216.735,-187.867,0,0,0,
,-0.515,-0.738,0.193,-516.236,261.535,-198.426,0,0,0,
,-0.492,-0.635,0.306,-381.104,309.509,-189.698,0,0,0,
,-0.443,-0.653,0.368,-278.809,368.896,-149.842,0,0,0,
,-0.362,-0.645,0.449,-233.277,421.814,-118.47,0,0,0,
,-0.29,-0.611,0.526,-159.302,422.18,-134.888,0,0,0,
,-0.251,-0.655,0.648,136.108,378.54,-153.504,0,0,0,
,-0.274,-0.724,0.775,402.465,341.125,-101.929,0,0,0,
,-0.264,-0.756,0.844,500.915,289.734,-99.976,0,0,0,
,-0.256,-0.834,0.862,590.149,196.777,-123.291,0,0,0,
,-0.275,-0.793,0.854,705.688,108.032,-108.216,0,0,0,
,-0.321,-0.792,0.826,801.086,23.315,-80.872,0,0,0,
,-0.351,-0.837,0.776,760.07,-14.344,-40.894,0,0,0,
,-0.347,-0.83,0.66,558.532,-34.546,-1.648,0,0,0,
,-0.351,-0.783,0.521,377.624,-80.506,32.287,0,0,0,
,-0.386,-0.797,0.381,185.241,-173.279,57.006,0,0,0,
,-0.415,-0.857,0.316,-99.366,-293.824,76.477,0,0,0,
,-0.469,-0.753,0.375,-316.712,-388.306,99.365,0,0,0,
,-0.509,-0.693,0.386,-376.709,-407.288,104.065,0,0,0,
,-0.486,-0.732,0.258,-354.981,-356.019,131.775,0,0,0,
,-0.466,-0.799,0.137,-334.839,-299.988,150.94,0,0,0,
,-0.449,-0.89,0.059,-335.877,-224.488,184.387,0,0,0,
,-0.443,-0.916,0.091,-336.243,-119.324,198.425,0,0,0,
,-0.46,-0.889,0.201,-214.905,17.028,177.002,0,0,0,
,-0.445,-0.849,0.322,111.145,112.243,84.533,0,0,0,
,-0.484,-0.942,0.424,599.548,215.881,-9.827,0,0,0,
,-0.518,-1.011,0.408,853.698,299.011,-48.401,0,0,0,
,-0.507,-0.924,0.409,871.582,335.327,-78.003,0,0,0,
,-0.509,-0.837,0.308,769.897,336.12,-54.688,0,0,0,
,-0.433,-0.877,0.249,615.295,237.976,-29.847,0,0,0,
,-0.422,-0.93,0.344,364.624,85.083,4.333,0,0,0,
,-0.464,-0.897,0.414,79.467,-53.162,17.211,0,0,0,
,-0.479,-0.847,0.404,-191.346,-169.312,13.732,0,0,0,
,-0.506,-0.72,0.343,-281.373,-240.784,41.992,0,0,0,
,-0.465,-0.791,0.254,-284.485,-251.77,68.359,0,0,0,
,-0.427,-0.875,0.229,-309.815,-203.064,97.534,0,0,0,
,-0.403,-0.959,0.17,-352.173,-112.732,102.539,0,0,0,
,-0.376,-0.967,0.161,-310.242,31.127,125.061,0,0,0,
,-0.354,-0.969,0.295,-61.646,179.077,89.355,0,0,0,
,-0.394,-0.992,0.399,422.546,322.631,20.019,0,0,0,
,-0.389,-1.151,0.321,568.908,415.893,-4.029,0,0,0,
,-0.39,-0.98,0.318,578.735,415.222,-90.699,0,0,0,
,-0.412,-0.848,0.218,655.029,367.431,-88.746,0,0,0,
,-0.345,-0.914,0.167,533.447,261.413,-65.674,0,0,0,
,-0.34,-0.906,0.22,291.87,133.484,-51.636,0,0,0,
,-0.338,-0.911,0.229,27.038,-26.368,-40.223,0,0,0,
,-0.379,-0.867,0.299,-218.079,-161.194,-29.419,0,0,0,
,-0.422,-0.695,0.324,-322.327,-271.302,-32.654,0,0,0,
,-0.424,-0.783,0.237,-262.818,-289.368,-8.606,0,0,0,
,-0.366,-0.895,0.16,-308.167,-278.199,23.864,0,0,0,
,-0.363,-0.886,0.156,-314.881,-163.575,45.227,0,0,0,
,-0.349,-1.085,0.188,-339.356,-15.442,59.204,0,0,0,
,-0.329,-1.13,0.28,-277.649,128.234,26.733,0,0,0,
,-0.35,-1.058,0.505,44.799,252.624,-41.382,0,0,0,
,-0.381,-1.152,0.38,313.476,384.521,-79.041,0,0,0,
,-0.378,-1.065,0.342,413.574,380.432,-128.113,0,0,0,
,-0.366,-0.927,0.324,476.989,304.992,-108.521,0,0,0,
,-0.334,-0.85,0.277,364.929,202.636,-98.206,0,0,0,
,-0.294,-0.908,0.346,105.163,53.833,-104.126,0,0,0,
,-0.297,-0.867,0.389,-147.4,-119.935,-120.85,0,0,0,
,-0.314,-0.766,0.459,-251.831,-247.62,-70.13,0,0,0,
,-0.398,-0.688,0.454,-303.772,-361.023,-63.294,0,0,0,
,-0.405,-0.727,0.29,-320.984,-414.307,-18.128,0,0,0,
,-0.373,-0.722,0.203,-320.008,-417.786,25.817,0,0,0,
,-0.357,-0.734,0.197,-177.369,-315.796,93.872,0,0,0,
,-0.356,-1.002,0.166,-131.043,-145.142,169.006,0,0,0,
,-0.302,-1.178,0.097,-183.228,-13.367,176.086,0,0,0,
,-0.326,-0.962,0.273,104.126,94.238,76.11,0,0,0,
,-0.426,-1.063,0.204,575.256,289.856,63.232,0,0,0,
,-0.375,-1.136,0.178,652.282,388.733,-5.982,0,0,0,
,-0.438,-0.959,0.204,669.922,475.952,-29.786,0,0,0,
,-0.388,-0.907,0.128,607.605,481.689,-28.26,0,0,0,
,-0.364,-0.824,0.08,515.93,394.104,-41.687,0,0,0,
,-0.356,-0.937,0.151,350.83,231.323,-31.006,0,0,0,
,-0.357,-0.946,0.21,84.106,55.969,-18.86,0,0,0,
,-0.372,-0.861,0.189,-158.997,-113.526,-16.846,0,0,0,
,-0.407,-0.786,0.24,-334.9,-271.973,-22.034,0,0,0,
,-0.411,-0.8,0.333,-355.408,-342.774,-42.054,0,0,0,
,-0.352,-1.005,0.225,-489.808,-354.248,-2.93,0,0,0,
,-0.3,-1.164,0.201,-769.532,-361.634,-2.015,0,0,0,
,-0.301,-1.149,0.297,-767.762,-317.81,-37.415,0,0,0,
,-0.37,-1.15,0.4,-437.684,-219.91,-67.81,0,0,0,
,-0.392,-1.248,0.389,-80.018,-55.42,-95.765,0,0,0,
,-0.412,-1.26,0.296,-54.993,19.714,-167.908,0,0,0,
,-0.426,-1.107,0.26,-95.887,42.236,-221.558,0,0,0,
,-0.403,-1.02,0.22,-65.308,39.794,-274.414,0,0,0,
,-0.428,-1.069,0.272,-275.513,12.329,-238.404,0,0,0,
,-0.431,-0.922,0.319,-549.866,-26.734,-277.527,0,0,0,
,-0.502,-0.797,0.305,-695.862,-60.975,-239.075,0,0,0,
,-0.503,-0.774,0.319,-821.351,-122.315,-219.91,0,0,0,
,-0.519,-0.703,0.325,-880.555,-155.945,-185.73,0,0,0,
,-0.526,-0.617,0.339,-849.976,-177.491,-143.067,0,0,0,
,-0.532,-0.539,0.323,-761.841,-161.927,-95.276,0,0,0,
,-0.282,-0.885,0.428,1061.157,115.6,213.379,0,0,0,
,-0.345,-0.879,0.424,1245.361,124.511,208.496,0,0,0,
,-0.374,-0.881,0.304,1245.971,141.845,216.186,0,0,0,
,-0.361,-0.918,0.155,1048.278,129.516,209.655,0,0,0,
,-0.357,-1.035,-0.105,568.847,66.772,230.835,0,0,0,
,-0.293,-1.167,-0.073,-112.61,-109.192,148.071,0,0,0,
,-0.381,-1.02,0.116,-536.805,-244.568,84.777,0,0,0,
,-0.545,-0.842,0.297,-474.183,-318.726,40.832,0,0,0,
,-0.463,-0.748,0.311,-221.741,-321.106,23.498,0,0,0,
,-0.444,-0.941,0.299,51.94,-234.436,-6.836,0,0,0,
,-0.396,-1.131,0.129,-35.462,-160.95,-31.189,0,0,0,
,-0.404,-1.07,0.108,-214.051,-110.901,-76.477,0,0,0,
,-0.421,-1.03,0.149,-230.408,-66.285,-90.21,0,0,0,
,-0.44,-1.018,0.206,-179.505,2.441,-96.619,0,0,0,
,-0.416,-1.065,0.273,-120.301,85.266,-96.497,0,0,0,
,-0.382,-1.075,0.361,-41.382,193.603,-97.107,0,0,0,
,-0.345,-1.058,0.336,59.387,313.842,-98.816,0,0,0,
,-0.378,-0.975,0.325,117.675,407.776,-109.498,0,0,0,
,-0.42,-0.865,0.434,246.032,445.8,-125.306,0,0,0,
,-0.404,-0.877,0.408,306.03,435.608,-109.131,0,0,0,
,-0.362,-0.886,0.317,240.478,335.632,-105.835,0,0,0,
,-0.33,-0.935,0.335,45.471,159.668,-83.802,0,0,0,
,-0.342,-0.89,0.321,-210.877,-30.701,-88.135,0,0,0,
,-0.348,-0.757,0.295,-388.306,-215.821,-82.215,0,0,0,
,-0.397,-0.723,0.346,-409.302,-317.322,-81.665,0,0,0,
,-0.402,-0.699,0.285,-318.055,-317.2,-76.111,0,0,0,
,-0.384,-0.821,0.194,-258.362,-255.616,-39.795,0,0,0,
,-0.366,-0.999,0.088,-343.445,-157.288,11.352,0,0,0,
,-0.316,-0.9,0.081,-366.822,-15.992,71.044,0,0,0,
,-0.314,-0.797,0.179,-78.614,161.743,71.472,0,0,0,
,-0.32,-0.883,0.317,418.335,367.065,69.336,0,0,0,
,-0.336,-1.105,0.307,599.548,507.141,69.946,0,0,0,
,-0.308,-1.007,0.308,539.245,534.973,30.822,0,0,0,
,-0.334,-0.767,0.306,706.115,479.004,-9.217,0,0,0,
,-0.32,-0.836,0.412,883.117,355.163,13.366,0,0,0,
,-0.259,-1.102,0.363,605.957,213.501,13.916,0,0,0,
,-0.174,-1.079,0.401,137.329,11.352,-13.245,0,0,0,
,-0.208,-0.918,0.441,-149.353,-186.036,-42.725,0,0,0,
,-0.238,-0.891,0.473,-278.321,-369.751,-64.82,0,0,0,
,-0.238,-0.993,0.554,-334.534,-543.641,-51.88,0,0,0,
,-0.259,-1.032,0.437,-474.61,-647.095,-39.002,0,0,0,
,-0.258,-1,0.286,-534.485,-701.783,-29.725,0,0,0,
,-0.27,-1.029,0.233,-484.131,-691.04,-4.029,0,0,0,
,-0.346,-1.164,0.23,-550.599,-622.01,-38.269,0,0,0,
,-0.386,-1.169,0.179,-673.829,-523.865,-40.467,0,0,0,
,-0.485,-1.036,0.152,-676.27,-413.331,-77.637,0,0,0,
,-0.587,-0.936,0.045,-496.644,-280.213,-59.632,0,0,0,
,-0.604,-0.979,-0.086,-525.879,-184.449,-122.681,0,0,0,
,-0.644,-0.829,-0.283,-361.023,-2.93,-208.985,0,0,0,
,-0.599,-1.128,-0.227,-535.767,92.468,-176.758,0,0,0,
,-0.507,-0.829,-0.016,-756.775,110.839,-271.912,0,0,0,
,-0.563,-0.722,0.196,-661.805,164.672,-319.458,0,0,0,
,-0.507,-0.712,0.219,-414.795,240.966,-314.82,0,0,0,
,-0.503,-0.794,0.213,-405.518,299.011,-264.466,0,0,0,
,-0.471,-0.692,0.291,-518.006,363.159,-209.534,0,0,0,
,-0.417,-0.506,0.297,-502.076,405.395,-163.819,0,0,0,
,-0.333,-0.26,0.478,14.404,416.687,-90.516,0,0,0,
,-0.244,-0.411,0.631,758.728,470.031,10.742,0,0,0,
,-0.233,-0.786,0.694,1057.312,490.966,70.068,0,0,0,
,-0.099,-0.948,0.609,984.924,407.348,94.665,0,0,0,
,-0.027,-0.895,0.66,994.323,281.616,96.74,0,0,0,
,-0.107,-0.979,0.699,1112.365,233.093,77.026,0,0,0,
,-0.092,-1.12,0.629,976.867,216.98,57.128,0,0,0,
,-0.151,-1.042,0.586,764.404,205.505,26.672,0,0,0,
,-0.189,-0.997,0.579,620.239,195.556,35.583,0,0,0,
,-0.164,-1.065,0.411,353.82,157.898,53.161,0,0,0,
,-0.179,-1.006,0.443,122.192,48.706,44.128,0,0,0,
,-0.273,-0.961,0.517,18.432,-79.285,27.771,0,0,0,
,-0.305,-1.002,0.392,-109.436,-238.099,-4.09,0,0,0,
,-0.351,-1.077,0.287,-448.365,-449.646,-39.978,0,0,0,
,-0.401,-0.943,0.243,-728.089,-619.08,-51.27,0,0,0,
,-0.479,-0.758,0.264,-621.216,-665.955,-69.581,0,0,0,
,-0.511,-0.866,0.163,-432.435,-598.755,-95.704,0,0,0,
,-0.484,-0.943,-0.042,-427.308,-506.592,-94.971,0,0,0,
,-0.476,-0.882,-0.102,-393.86,-380.616,-96.192,0,0,0,
,-0.469,-0.902,-0.101,-259.217,-208.069,-73.914,0,0,0,
,-0.47,-0.865,-0.068,-108.033,-11.231,-62.745,0,0,0,
,-0.465,-0.837,-0.013,65.734,191.406,-44.007,0,0,0,
,-0.465,-0.825,0.145,281.311,355.041,-24.231,0,0,0,
,-0.451,-0.846,0.261,474.121,511.169,-0.855,0,0,0,
,-0.44,-0.845,0.413,645.752,616.516,20.752,0,0,0,
,-0.405,-0.868,0.39,834.533,642.395,59.082,0,0,0,
,-0.367,-0.822,0.382,933.593,582.641,98.938,0,0,0,
,-0.296,-1.006,0.352,822.998,495.727,100.097,0,0,0,
,-0.249,-1.204,0.332,387.634,352.844,77.514,0,0,0,
,-0.205,-1.047,0.274,-31.678,108.032,-12.635,0,0,0,
,-0.427,-1.27,0.487,-268.189,-164.063,-118.958,0,0,0,
,-0.417,-0.836,0.417,-530.091,-397.095,-87.83,0,0,0,
,-0.388,-0.656,0.372,-252.076,-407.166,-84.29,0,0,0,
,-0.399,-0.821,0.172,12.329,-348.389,-85.511,0,0,0,
,-0.359,-0.982,0.043,-74.463,-286.255,-78.736,0,0,0,
,-0.386,-1.001,0.061,-252.137,-196.595,-52.247,0,0,0,
,-0.38,-0.952,0.035,-337.586,-66.895,-26.001,0,0,0,
,-0.383,-0.876,0.045,-234.498,34.301,0.793,0,0,0,
,-0.378,-0.849,0.108,15.93,145.202,17.273,0,0,0,
,-0.396,-0.881,0.165,264.953,255.005,30.273,0,0,0,
,-0.391,-0.968,0.177,306.274,364.746,34.606,0,0,0,
,-0.379,-0.919,0.176,283.325,407.165,34.606,0,0,0,
,-0.359,-0.885,0.245,357.849,374.145,23.376,0,0,0,
,-0.341,-0.927,0.296,423.828,290.222,21.972,0,0,0,
,-0.32,-1.024,0.366,338.256,177.978,2.502,0,0,0,
,-0.308,-1.02,0.329,170.41,31.494,-12.757,0,0,0,
,-0.305,-0.949,0.278,-7.508,-112.122,-46.143,0,0,0,
,-0.324,-0.875,0.195,-129.09,-234.986,-32.288,0,0,0,
,-0.325,-0.813,0.145,-162.842,-322.693,-43.946,0,0,0,
,-0.301,-0.875,0.092,-160.34,-353.028,-17.579,0,0,0,
,-0.271,-0.981,0.031,-300.11,-321.473,2.624,0,0,0,
,-0.296,-0.933,0.138,-408.265,-178.284,-2.015,0,0,0,
,-0.297,-1.033,0.241,-337.769,70.617,43.579,0,0,0,
,-0.251,-1.086,0.257,-173.829,234.924,65.49,0,0,0,
,-0.25,-1.087,0.381,168.213,343.75,59.509,0,0,0,
,-0.267,-1.135,0.371,414.062,426.086,82.214,0,0,0,
,-0.275,-1.052,0.366,464.05,395.08,53.772,0,0,0,
,-0.258,-0.955,0.313,393.188,280.151,-26.307,0,0,0,
,-0.229,-1.006,0.32,302.185,123.718,-88.44,0,0,0,
,-0.247,-0.992,0.301,95.642,-78.064,-119.629,0,0,0,
,-0.258,-0.961,0.287,-156.128,-285.096,-137.207,0,0,0,
,-0.313,-0.903,0.287,-414.307,-464.112,-150.208,0,0,0,
,-0.379,-0.782,0.293,-498.963,-538.636,-130.555,0,0,0,
,-0.377,-0.751,0.134,-472.229,-509.278,-91.614,0,0,0,
,-0.341,-0.821,0.032,-411.744,-410.584,-42.542,0,0,0,
,-0.305,-0.938,0.005,-376.099,-243.47,15.808,0,0,0,
,-0.289,-1.072,0.042,-379.822,7.08,91.064,0,0,0,
,-0.277,-1.143,0.151,-348.206,265.197,125.183,0,0,0,
,-0.281,-1.025,0.277,12.573,442.138,91.003,0,0,0,
,-0.316,-1.152,0.357,441.528,608.154,65.185,0,0,0,
,-0.309,-1.192,0.394,458.374,641.784,-6.775,0,0,0,
,-0.352,-0.971,0.465,408.569,575.927,-139.161,0,0,0,
,-0.32,-0.954,0.385,360.778,435.974,-258.851,0,0,0,
,-0.287,-0.997,0.305,334.961,217.163,-314.759,0,0,0,
,-0.282,-0.966,0.206,250.488,-36.438,-222.413,0,0,0,
,-0.31,-0.835,0.114,28.137,-280.03,-183.167,0,0,0,
,-0.407,-0.803,0.119,-189.698,-473.999,-133.24,0,0,0,
,-0.43,-0.775,0.067,-454.346,-569.642,-64.393,0,0,0,
,-0.414,-0.668,0.04,-631.531,-572.998,-28.138,0,0,0,
,-0.376,-0.549,0.01,-563.233,-435.975,46.508,0,0,0,
,-0.335,-0.676,0.174,-229.248,-145.508,134.643,0,0,0,
,-0.308,-1.017,0.168,-35.767,245.91,188.781,0,0,0,
,-0.262,-1.199,0.143,-16.236,499.145,177.124,0,0,0,
,-0.243,-1.09,0.202,172.546,595.886,64.941,0,0,0,
,-0.312,-1.16,0.341,484.069,621.154,-20.508,0,0,0,
,-0.258,-1.345,0.292,374.45,523.681,-76.6,0,0,0,
,-0.264,-1.227,0.399,148.986,348.327,-166.748,0,0,0,
,-0.298,-1.057,0.439,32.409,188.842,-154.236,0,0,0,
,-0.31,-0.849,0.458,72.509,70.8,-190.247,0,0,0,
,-0.308,-0.823,0.421,183.227,-8.118,-177.552,0,0,0,
,-0.291,-0.834,0.379,239.99,-78.736,-152.649,0,0,0,
,-0.302,-0.817,0.262,213.256,-135.987,-99.61,0,0,0,
,-0.345,-0.731,0.175,196.35,-213.807,-65.796,0,0,0,
,-0.441,-0.716,0.089,136.474,-284.119,-29.847,0,0,0,
,-0.448,-0.77,-0.002,41.503,-335.877,-8.545,0,0,0,
,-0.43,-0.816,-0.129,-107.178,-366.028,34.24,0,0,0,
,-0.418,-0.822,-0.139,-225.22,-325.745,99.365,0,0,0,
,-0.389,-0.833,-0.118,-201.6,-156.067,158.447,0,0,0,
,-0.352,-0.909,-0.129,-52.43,107.299,174.743,0,0,0,
,-0.332,-1.042,-0.111,74.462,361.45,182.8,0,0,0,
,-0.313,-1.172,-0.125,29.846,545.654,165.283,0,0,0,
,-0.292,-1.137,0.089,-393.555,583.496,131.225,0,0,0,
,-0.264,-1.018,0.315,-226.99,585.937,42.175,0,0,0,
,-0.296,-0.976,0.497,10.131,534.973,48.95,0,0,0,
,-0.246,-1.136,0.601,77.88,380.798,-103.577,0,0,0,
,-0.225,-1.249,0.725,152.038,175.781,-167.603,0,0,0,
,-0.228,-1.004,0.636,220.642,49.987,-139.466,0,0,0,
,-0.296,-0.91,0.532,308.41,-50.782,-183.045,0,0,0,
,-0.298,-1.066,0.376,232.788,-126.831,-210.999,0,0,0,
,-0.317,-1.024,0.201,83.618,-183.716,-143.311,0,0,0,
,-0.386,-0.919,0.112,-1.465,-205.994,-49.866,0,0,0,
,-0.439,-0.922,0.152,-55.542,-187.317,-3.052,0,0,0,
,-0.438,-0.907,0.007,-155.091,-65.796,-4.761,0,0,0,
,-0.386,-0.948,-0.095,-294.922,-40.955,35.4,0,0,0,
,-0.33,-0.814,-0.14,-419.251,26.184,79.528,0,0,0,
,-0.252,-0.807,-0.179,-358.338,107.299,40.344,0,0,0,
,-0.259,-0.928,-0.072,-187.867,181.03,38.757,0,0,0,
,-0.17,-1.159,0.139,-183.35,235.229,-27.405,0,0,0,
,-0.184,-1.224,0.232,-133.24,322.021,-99.549,0,0,0,
,-0.187,-1.266,0.287,-135.987,356.75,-169.617,0,0,0,
,-0.189,-1.178,0.371,-151.673,327.819,-238.831,0,0,0,
,-0.231,-0.992,0.472,-30.945,276.916,-250.306,0,0,0,
,-0.251,-0.855,0.496,73.364,224.975,-281.006,0,0,0,
,-0.263,-0.821,0.459,132.263,129.394,-302.43,0,0,0,
,-0.248,-0.781,0.443,139.404,6.164,-239.991,0,0,0,
,-0.256,-0.756,0.396,63.232,-119.324,-186.402,0,0,0,
,-0.312,-0.761,0.387,-73.487,-251.465,-141.236,0,0,0,
,-0.393,-0.76,0.355,-281.373,-352.356,-78.309,0,0,0,
,-0.397,-0.679,0.281,-479.676,-434.327,13.305,0,0,0,
,-0.396,-0.578,0.241,-498.169,-489.319,68.542,0,0,0,
,-0.389,-0.628,0.178,-344.971,-479.554,81.604,0,0,0,
,-0.394,-0.797,0.063,-328.309,-405.518,97.9,0,0,0,
,-0.366,-0.956,-0.025,-449.952,-318.116,126.953,0,0,0,
,-0.342,-0.965,-0.009,-517.884,-180.298,161.987,0,0,0,
,-0.346,-0.945,0.071,-423.34,9.582,132.507,0,0,0,
,-0.357,-1.011,0.11,-276.368,193.969,76.416,0,0,0,
,-0.353,-1.123,0.14,-180.359,346.13,-3.235,0,0,0,
,-0.374,-1.098,0.238,-39.307,450.012,-63.355,0,0,0,
,-0.436,-1.117,0.298,55.114,502.929,-137.94,0,0,0,
,-0.454,-1.074,0.331,53.772,515.991,-173.279,0,0,0,
,-0.465,-0.956,0.374,133.117,493.957,-185.425,0,0,0,
,-0.469,-0.868,0.382,244.262,448.425,-171.021,0,0,0,
,-0.459,-0.819,0.383,301.635,400.756,-152.222,0,0,0,
,-0.424,-0.828,0.357,296.325,348.938,-115.845,0,0,0,
,-0.379,-0.837,0.361,225.769,317.993,-72.876,0,0,0,
,-0.293,-0.868,0.372,148.986,296.264,-56.885,0,0,0,
,-0.217,-0.882,0.417,108.581,277.954,-34.546,0,0,0,
,-0.111,-0.926,0.49,119.567,260.742,-30.762,0,0,0,
,0.008,-0.988,0.507,241.821,234.985,-8.912,0,0,0,
,0.053,-0.953,0.547,357.116,198.669,2.502,0,0,0,
,0.052,-0.924,0.574,490.112,155.151,-41.565,0,0,0,
,0.054,-0.907,0.556,652.832,123.901,-93.262,0,0,0,
,0.115,-1.047,0.432,647.705,26.062,-162.903,0,0,0,
,0.14,-1.452,0.497,260.803,-201.05,-293.763,0,0,0,
,-0.152,-1.105,0.532,-205.872,-275.391,-147.034,0,0,0,
,-0.235,-0.592,0.434,-62.378,-315.064,7.385,0,0,0,
,-0.164,-0.735,0.341,319.519,-294.556,-109.192,0,0,0,
,-0.234,-1.036,0.225,318.908,-318.543,-162.842,0,0,0,
,-0.334,-1.188,0.162,45.715,-399.109,-130.188,0,0,0,
,-0.428,-1.063,0.183,-274.842,-483.155,-64.393,0,0,0,
,-0.516,-0.999,0.141,-446.717,-512.085,-73.975,0,0,0,
,-0.56,-0.938,0.134,-548.279,-524.414,-37.11,0,0,0,
,-0.585,-0.821,0.098,-520.264,-497.376,-51.026,0,0,0,
,-0.631,-0.882,0.031,-499.939,-447.632,-82.276,0,0,0,
,-0.641,-0.937,-0.017,-592.041,-406.25,-66.163,0,0,0,
,-0.642,-0.876,-0.034,-714.661,-353.76,-33.997,0,0,0,
,-0.65,-0.784,-0.057,-777.466,-271.241,-25.513,0,0,0,
,-0.633,-0.758,-0.069,-798.157,-181.397,-33.631,0,0,0,
,-0.608,-0.715,-0.004,-794.251,-84.168,-24.292,0,0,0,
,-0.572,-0.714,0.052,-766.236,52.856,-32.959,0,0,0,
,-0.522,-0.708,0.107,-699.158,193.786,-29.236,0,0,0,
,-0.457,-0.714,0.197,-567.81,293.518,-22.034,0,0,0,
,-0.379,-0.713,0.242,-342.408,365.173,-36.255,0,0,0,
,-0.301,-0.722,0.362,68.054,380.615,-47.669,0,0,0,
,-0.256,-0.771,0.444,567.627,380.676,-47.974,0,0,0,
,-0.212,-0.923,0.459,766.418,408.63,-38.025,0,0,0,
,-0.123,-0.963,0.476,745.605,422.424,-31.617,0,0,0,
,-0.081,-0.925,0.481,741.699,432.19,-57.312,0,0,0,
,-0.056,-1.015,0.518,754.577,420.044,-95.032,0,0,0,
,0.005,-1.158,0.525,706.298,402.16,-94.3,0,0,0,
,0.007,-1.146,0.601,569.885,370.483,-79.895,0,0,0,
,0.105,-1.281,0.743,457.519,212.646,-177.124,0,0,0,
,0.108,-1.565,0.744,108.581,83.068,-251.16,0,0,0,
,-0.095,-1.187,0.719,-336.67,0.61,-194.031,0,0,0,
,-0.196,-0.732,0.652,-338.013,-31.678,-125.611,0,0,0,
,-0.161,-0.629,0.625,103.881,-55.359,-104.004,0,0,0,
,-0.153,-0.95,0.595,442.871,-83.008,-187.317,0,0,0,
,-0.22,-1.098,0.538,407.409,-139.71,-125.794,0,0,0,
,-0.264,-1.001,0.467,268.188,-230.164,-56.58,0,0,0,
,-0.306,-0.947,0.403,229.065,-312.195,-41.565,0,0,0,
,-0.393,-1.043,0.367,141.174,-382.508,-41.26,0,0,0,
,-0.441,-1.029,0.25,-56.946,-440.796,-10.682,0,0,0,
,-0.5,-1.004,0.158,-231.446,-485.596,-6.958,0,0,0,
,-0.564,-0.9,0.056,-428.772,-501.221,38.513,0,0,0,
,-0.598,-0.795,-0.004,-521.302,-506.043,-2.747,0,0,0,
,-0.689,-0.777,-0.068,-512.879,-483.094,-8.545,0,0,0,
,-0.764,-0.626,-0.273,-579.773,-398.255,-52.002,0,0,0,
,-0.866,-0.716,-0.297,-539.49,-370.179,-143.128,0,0,0,
,-0.706,-0.895,-0.256,-764.222,-302.43,-43.457,0,0,0,
,-0.677,-0.556,-0.056,-886.902,-264.283,-30.762,0,0,0,
,-0.616,-0.603,0.104,-714.966,-120.484,-92.896,0,0,0,
,-0.597,-0.47,0.152,-447.388,41.259,-100.281,0,0,0,
,-0.591,-0.552,0.064,-159.913,202.27,-144.654,0,0,0,
,-0.503,-0.724,0.055,-32.776,263.916,-48.279,0,0,0,
,-0.427,-0.736,0.096,-94.605,293.09,76.232,0,0,0,
,-0.35,-0.689,0.272,-81.604,295.898,101.623,0,0,0,
,-0.304,-0.702,0.388,71.899,345.031,85.876,0,0,0,
,-0.194,-0.851,0.441,292.541,378.418,64.27,0,0,0,
,-0.087,-1.044,0.5,425.598,372.375,34.851,0,0,0,
,-0.031,-1.189,0.531,523.01,359.436,7.69,0,0,0,
,-0.021,-1.201,0.576,584.106,338.317,-21.546,0,0,0,
,-0.026,-1.142,0.648,680.664,331.421,-107.361,0,0,0,
,-0.062,-1.198,0.672,775.024,342.651,-155.213,0,0,0,
,-0.059,-1.189,0.659,758.606,343.383,-151.49,0,0,0,
,-0.043,-1.106,0.619,786.071,333.007,-152.588,0,0,0,
,-0.092,-1.101,0.562,772.583,292.785,-159.79,0,0,0,
,-0.112,-1.069,0.569,680.481,244.14,-128.724,0,0,0,
,-0.117,-1.061,0.501,555.114,158.386,-133.606,0,0,0,
,-0.019,-1.411,0.452,211.425,-21.058,-267.151,0,0,0,
,-0.255,-1.403,0.506,-378.174,-237.061,-193.848,0,0,0,
,-0.437,-0.742,0.457,-581.849,-387.207,30.334,0,0,0,
,-0.394,-0.696,0.407,-304.078,-395.264,-82.337,0,0,0,
,-0.447,-0.849,0.209,-139.466,-427.124,-130.31,0,0,0,
,-0.565,-0.986,0.05,-290.711,-486.512,-101.99,0,0,0,
,-0.619,-0.974,-0.059,-589.6,-549.317,-16.968,0,0,0,
,-0.698,-0.798,-0.1,-814.698,-584.9,37.963,0,0,0,
,-0.778,-0.682,-0.11,-858.216,-566.163,22.338,0,0,0,
,-0.812,-0.652,-0.089,-786.438,-495.972,-30.213,0,0,0,
,-0.802,-0.697,-0.094,-697.998,-392.395,-58.594,0,0,0,
,-0.74,-0.768,-0.175,-728.76,-286.499,-52.063,0,0,0,
,-0.675,-0.763,-0.147,-809.632,-184.51,-32.532,0,0,0,
,-0.632,-0.719,-0.099,-872.986,-40.345,-40.711,0,0,0,
,-0.555,-0.676,0.03,-796.631,117.553,-56.824,0,0,0,
,-0.499,-0.699,0.176,-611.817,258.728,-61.036,0,0,0,
,-0.403,-0.77,0.314,-396.302,387.085,-60.914,0,0,0,
,-0.27,-0.742,0.453,-71.961,459.594,-37.903,0,0,0,
,-0.148,-0.792,0.51,379.699,475.83,-89.478,0,0,0,
,-0.127,-1.021,0.553,591.369,449.096,-151.123,0,0,0,
,-0.093,-1.06,0.635,539.184,429.26,-134.644,0,0,0,
,-0.09,-0.992,0.724,514.038,382.629,-198.731,0,0,0,
,-0.158,-0.97,0.798,545.654,347.29,-216.065,0,0,0,
,-0.118,-0.946,0.776,557.006,313.842,-199.524,0,0,0,
,-0.132,-0.907,0.751,584.289,273.254,-187.012,0,0,0,
,-0.163,-0.885,0.717,606.445,228.637,-154.725,0,0,0,
,-0.176,-0.896,0.668,585.327,196.289,-130.188,0,0,0,
,-0.182,-0.948,0.628,529.48,145.324,-104.493,0,0,0,
,-0.219,-0.945,0.585,468.322,84.228,-50.904,0,0,0,
,-0.235,-1.001,0.504,353.759,16.784,-36.255,0,0,0,
,-0.263,-1.044,0.459,215.698,-95.276,-10.071,0,0,0,
,-0.344,-1.054,0.404,39.062,-175.354,7.019,0,0,0,
,-0.365,-1.025,0.344,-151.612,-253.846,8.239,0,0,0,
,-0.421,-1.002,0.251,-299.378,-333.069,-8.24,0,0,0,
,-0.509,-1.003,0.242,-536.988,-423.279,35.156,0,0,0,
,-0.561,-0.791,0.204,-591.126,-457.337,35.461,0,0,0,
,-0.671,-0.746,0.124,-513.245,-485.84,3.112,0,0,0,
,-0.747,-0.789,0.039,-490.662,-468.384,-19.532,0,0,0,
,-0.771,-0.722,-0.102,-565.674,-442.383,-8.545,0,0,0,
,-0.872,-0.521,-0.189,-569.825,-401.795,-18.128,0,0,0,
,-0.847,-0.754,-0.131,-517.456,-287.049,-99.122,0,0,0,
,-0.726,-0.786,-0.091,-723.267,-193.299,27.16,0,0,0,
,-0.72,-0.47,0.008,-714.539,-65.003,2.258,0,0,0,
,-0.687,-0.483,0.062,-398.438,116.882,-58.594,0,0,0,
,-0.571,-0.662,0.125,-165.528,268.859,-58.045,0,0,0,
,-0.411,-0.829,0.25,-113.709,365.783,-21.18,0,0,0,
,-0.303,-0.872,0.356,-44.8,437.988,8.789,0,0,0,
,-0.171,-0.875,0.456,128.784,446.655,-17.273,0,0,0,
,-0.121,-0.946,0.588,317.382,403.503,-98.084,0,0,0,
,-0.103,-1.084,0.696,439.575,361.999,-145.142,0,0,0,
,-0.086,-1.095,0.768,440.612,314.758,-163.514,0,0,0,
,-0.108,-1.036,0.807,427.063,284.973,-191.712,0,0,0,
,-0.119,-0.953,0.827,478.82,248.047,-192.017,0,0,0,
,-0.124,-0.903,0.783,564.758,223.693,-198.548,0,0,0,
,-0.158,-0.886,0.748,626.22,183.776,-165.406,0,0,0,
,-0.198,-0.879,0.683,606.75,125.549,-123.414,0,0,0,
,-0.262,-0.856,0.642,545.044,59.57,-66.468,0,0,0,
,-0.319,-0.859,0.559,473.632,-15.564,-17.334,0,0,0,
,-0.361,-0.854,0.454,348.755,-87.098,17.822,0,0,0,
,-0.419,-0.855,0.318,200.866,-228.577,43.273,0,0,0,
,-0.467,-0.87,0.216,0.549,-352.295,50.659,0,0,0,
,-0.553,-0.875,0.121,-251.893,-465.332,93.139,0,0,0,
,-0.605,-0.673,0.023,-404.725,-521.424,126.77,0,0,0,
,-0.69,-0.595,-0.032,-344.056,-537.659,101.013,0,0,0,
,-0.715,-0.723,-0.051,-284.79,-458.741,60.974,0,0,0,
,-0.681,-0.826,-0.139,-343.14,-340.027,51.086,0,0,0,
,-0.66,-0.878,-0.115,-402.283,-197.144,43.64,0,0,0,
,-0.63,-0.893,-0.041,-317.994,-19.654,40.527,0,0,0,
,-0.559,-0.937,0.036,-88.135,147.827,6.408,0,0,0,
,-0.498,-1.002,0.146,216.919,290.283,-37.903,0,0,0,
,-0.482,-1.078,0.156,419.555,399.841,-84.107,0,0,0,
,-0.412,-1.135,0.143,392.089,473.632,-155.823,0,0,0,
,-0.419,-0.942,0.277,381.652,480.224,-131.653,0,0,0,
,-0.406,-0.891,0.362,461.181,499.755,-133.667,0,0,0,
,-0.344,-0.925,0.346,497.741,508.3,-136.902,0,0,0,
,-0.332,-0.916,0.348,458.679,465.393,-100.769,0,0,0,
,-0.325,-0.863,0.327,386.84,406.433,-67.627,0,0,0,
,-0.324,-0.887,0.325,280.883,336.242,-66.163,0,0,0,
,-0.096,-1.123,0.505,131.164,54.504,-216.065,0,0,0,
,-0.365,-1.6,0.621,-504.273,-101.38,-183.533,0,0,0,
,-0.378,-0.492,0.583,-885.926,-118.592,85.266,0,0,0,
,-0.427,-0.143,0.283,-511.414,13.549,31.25,0,0,0,
,-0.255,-0.48,0.371,61.706,-5.188,-20.02,0,0,0,
,-0.298,-0.772,0.388,126.403,-5.555,69.946,0,0,0,
,-0.229,-0.909,0.404,-104.798,-61.402,149.475,0,0,0,
,-0.185,-0.89,0.483,-345.52,-133.484,252.014,0,0,0,
,-0.145,-0.784,0.539,-352.662,-202.82,274.047,0,0,0,
,-0.107,-0.783,0.55,-113.831,-263.672,237.548,0,0,0,
,-0.138,-1.025,0.504,52.368,-311.524,155.456,0,0,0,
,-0.111,-1.275,0.429,-124.695,-383.851,133.239,0,0,0,
,-0.12,-1.113,0.411,-317.566,-424.805,136.535,0,0,0,
,-0.175,-1.014,0.413,-221.07,-422.608,50.231,0,0,0,
,-0.172,-1.205,0.374,-149.537,-414.551,-14.893,0,0,0,
,-0.189,-1.251,0.336,-265.259,-393.372,-56.946,0,0,0,
,-0.265,-1.117,0.307,-278.199,-373.23,-87.769,0,0,0,
,-0.316,-1.086,0.268,-189.881,-352.173,-145.569,0,0,0,
,-0.347,-1.128,0.224,-134.949,-324.646,-196.717,0,0,0,
,-0.439,-1.098,0.213,-142.029,-272.95,-240.723,0,0,0,
,-0.543,-0.975,0.169,-84.168,-198.67,-264.161,0,0,0,
,-0.638,-0.878,0.11,66.772,-121.582,-278.016,0,0,0,
,-0.738,-0.769,0.03,255.859,-39.429,-268.738,0,0,0,
,-0.801,-0.69,-0.021,417.48,53.527,-232.972,0,0,0,
,-0.821,-0.595,-0.114,479.675,186.401,-167.359,0,0,0,
,-0.798,-0.599,-0.187,434.387,289.123,-104.798,0,0,0,
,-0.771,-0.618,-0.135,269.836,367.309,-26.429,0,0,0,
,-0.706,-0.596,-0.108,96.252,397.216,3.845,0,0,0,
,-0.645,-0.585,0.082,14.404,376.037,10.376,0,0,0,
,-0.6,-0.619,0.292,5.371,351.562,5.798,0,0,0,
,-0.534,-0.676,0.389,6.225,331.543,10.742,0,0,0,
,-0.457,-0.704,0.424,18.737,278.808,43.335,0,0,0,
,-0.396,-0.744,0.464,33.935,207.458,76.416,0,0,0,
,-0.306,-0.857,0.483,19.714,121.582,84.899,0,0,0,
,-0.255,-0.973,0.541,-80.14,35.095,87.646,0,0,0,
,-0.209,-1.061,0.568,-215.271,-29.114,82.214,0,0,0,
,-0.169,-1.06,0.568,-299.012,-91.98,93.261,0,0,0,
,-0.169,-1.024,0.555,-304.444,-146.851,79.223,0,0,0,
,-0.158,-1.047,0.59,-268.433,-185.181,64.819,0,0,0,
,-0.152,-1.125,0.571,-304.444,-201.905,37.475,0,0,0,
,-0.156,-1.123,0.572,-420.716,-211.121,22.766,0,0,0,
,-0.173,-1.071,0.54,-472.107,-227.417,-0.672,0,0,0,
,-0.189,-1.042,0.53,-410.645,-249.024,-19.715,0,0,0,
,-0.211,-1.121,0.53,-393.372,-269.532,-64.698,0,0,0,
,-0.273,-1.124,0.523,-414.49,-274.292,-94.239,0,0,0,
,-0.37,-1.036,0.444,-338.074,-264.71,-134.217,0,0,0,
,-0.459,-0.969,0.331,-185.608,-260.926,-173.462,0,0,0,
,-0.576,-0.967,0.204,-83.802,-236.329,-199.646,0,0,0,
,-0.63,-0.911,0.143,-30.091,-174.317,-187.623,0,0,0,
,-0.691,-0.787,0.056,67.077,-75.562,-159.668,0,0,0,
,-0.759,-0.671,-0.034,207.641,47.607,-136.353,0,0,0,
,-0.773,-0.58,-0.098,290.344,179.138,-117.859,0,0,0,
,-0.76,-0.551,-0.142,388.122,309.143,-95.765,0,0,0,
,-0.745,-0.511,-0.131,438.598,430.359,-59.51,0,0,0,
,-0.685,-0.512,-0.095,456.726,501.342,-47.425,0,0,0,
,-0.604,-0.538,0.004,479.187,539.55,-25.391,0,0,0,
,-0.553,-0.583,0.163,482.116,564.575,2.38,0,0,0,
,-0.464,-0.63,0.275,413.025,568.542,20.629,0,0,0,
,-0.362,-0.748,0.385,344.604,487.06,33.264,0,0,0,
,-0.263,-0.82,0.483,235.717,349.487,86.303,0,0,0,
,-0.159,-0.885,0.615,113.281,153.076,105.163,0,0,0,
,-0.087,-0.962,0.707,14.953,-11.231,123.108,0,0,0,
,-0.03,-1.092,0.723,-128.479,-180.237,135.192,0,0,0,
,-0.02,-1.158,0.749,-292.115,-313.111,138.244,0,0,0,
,-0.048,-1.107,0.751,-344.727,-395.63,128.723,0,0,0,
,-0.099,-1.165,0.729,-244.629,-414.246,77.27,0,0,0,
,-0.135,-1.31,0.625,-221.192,-415.039,30.029,0,0,0,
,-0.19,-1.196,0.56,-112.793,-393.067,10.864,0,0,0,
,-0.278,-1.293,0.437,-52.124,-371.216,-80.689,0,0,0,
,-0.307,-1.294,0.31,-154.48,-346.436,-108.643,0,0,0,
,-0.425,-1.14,0.242,-176.697,-292.115,-133.301,0,0,0,
,-0.495,-1.069,0.152,-137.269,-203.919,-130.494,0,0,0,
,-0.59,-0.877,0.045,-85.572,-76.6,-120.362,0,0,0,
,-0.659,-0.715,-0.055,50.598,42.236,-125.55,0,0,0,
,-0.692,-0.601,-0.168,191.04,183.044,-121.094,0,0,0,
,-0.695,-0.539,-0.225,274.475,296.753,-114.991,0,0,0,
,-0.669,-0.504,-0.23,330.993,398.864,-103.455,0,0,0,
,-0.644,-0.552,-0.224,331.115,438.293,-97.29,0,0,0,
,-0.615,-0.585,-0.088,243.042,438.354,-49.988,0,0,0,
,-0.555,-0.566,0.038,154.724,427.978,-10.682,0,0,0,
,-0.495,-0.57,0.26,94.36,397.338,-9.522,0,0,0,
,-0.457,-0.658,0.43,49.865,375.427,-24.476,0,0,0,
,-0.382,-0.788,0.54,-5.799,285.949,-10.926,0,0,0,
,-0.299,-0.821,0.608,-81.299,161.621,64.392,0,0,0,
,-0.189,-0.878,0.668,-103.333,-12.757,95.336,0,0,0,
,-0.135,-0.976,0.74,-100.525,-163.025,116.394,0,0,0,
,-0.123,-1.144,0.755,-175.721,-282.532,88.928,0,0,0,
,-0.104,-1.242,0.7,-323.243,-354.615,83.129,0,0,0,
,-0.143,-1.153,0.65,-369.629,-383.362,86.669,0,0,0,
,-0.186,-1.14,0.576,-254.456,-346.009,41.198,0,0,0,
,-0.23,-1.31,0.495,-267.09,-327.149,-20.874,0,0,0,
,-0.254,-1.255,0.422,-306.58,-295.899,-32.715,0,0,0,
,-0.315,-1.115,0.346,-151.612,-242.859,-72.937,0,0,0,
,-0.366,-1.138,0.226,6.469,-163.025,-146.18,0,0,0,
,-0.437,-1.099,0.169,48.645,-59.327,-167.115,0,0,0,
,-0.502,-0.963,0.139,78.613,74.951,-126.709,0,0,0,
,-0.549,-0.726,0.084,155.578,219.665,-88.99,0,0,0,
,-0.593,-0.592,0.042,255.859,307.556,-84.534,0,0,0,
,-0.555,-0.652,-0.001,250.488,340.149,-70.313,0,0,0,
,-0.495,-0.688,0.044,101.928,269.897,-40.467,0,0,0,
,-0.469,-0.706,0.223,-138.611,137.878,-59.876,0,0,0,
,-0.449,-0.668,0.36,-317.261,-7.447,-92.164,0,0,0,
,-0.517,-0.621,0.541,-458.435,-96.07,-42.176,0,0,0,
,-0.444,-0.549,0.646,-450.501,-194.275,32.348,0,0,0,
,-0.386,-0.564,0.589,-253.846,-250.489,57.678,0,0,0,
,-0.362,-0.745,0.511,-147.278,-301.636,52.246,0,0,0,
,-0.311,-0.948,0.446,-189.087,-351.624,80.566,0,0,0,
,-0.334,-0.967,0.417,-172.486,-350.098,100.219,0,0,0,
,-0.338,-1.089,0.363,-76.172,-281.373,65.673,0,0,0,
,-0.36,-1.143,0.307,57.922,-174.195,40.649,0,0,0,
,-0.397,-1.076,0.177,235.717,4.455,-4.578,0,0,0,
,-0.412,-1.139,0.1,365.539,141.174,-98.206,0,0,0,
,-0.47,-1.152,0.175,298.584,233.703,-120.789,0,0,0,
,-0.503,-0.886,0.328,276.184,342.468,-69.764,0,0,0,
,-0.507,-0.74,0.37,365.539,394.714,-42.908,0,0,0,
,-0.455,-0.819,0.358,359.375,360.717,6.103,0,0,0,
,-0.391,-0.863,0.311,120.544,212.341,88.501,0,0,0,
,-0.381,-0.824,0.233,-374.39,-34.485,-58.777,0,0,0,
,-0.508,-0.886,0.586,-719.483,-282.593,76.843,0,0,0,
,-0.421,-0.44,0.731,-676.575,-413.636,140.808,0,0,0,
,-0.499,-0.73,0.491,-288.819,-367.249,-64.942,0,0,0,
,-0.351,-1.057,0.296,-376.404,-396.485,-27.832,0,0,0,
,-0.413,-0.89,0.276,-536.56,-396.18,11.413,0,0,0,
,-0.448,-0.901,0.229,-463.929,-307.19,-59.998,0,0,0,
,-0.503,-0.877,0.14,-333.924,-134.095,-89.234,0,0,0,
,-0.522,-0.902,0.084,-179.566,2.319,-133.606,0,0,0,
,-0.488,-0.959,0.121,-126.526,92.529,-91.919,0,0,0,
,-0.444,-0.877,0.281,61.584,146.179,-116.272,0,0,0,
,-0.466,-0.817,0.265,348.51,284.546,-174.256,0,0,0,
,-0.488,-0.823,0.24,556.03,399.841,-188.904,0,0,0,
,-0.491,-0.861,0.208,545.227,487.609,-168.03,0,0,0,
,-0.482,-0.723,0.339,497.009,512.024,-65.003,0,0,0,
,-0.437,-0.67,0.392,553.344,500.671,-21.18,0,0,0,
,-0.389,-0.774,0.459,547.485,402.771,1.464,0,0,0,
,-0.337,-0.865,0.523,373.596,261.23,25.756,0,0,0,
,-0.291,-0.861,0.583,114.868,89.111,30.517,0,0,0,
,-0.301,-0.868,0.609,-93.323,-105.103,9.155,0,0,0,
,-0.351,-0.849,0.603,-258.851,-259.461,36.621,0,0,0,
,-0.343,-0.662,0.539,-290.284,-351.075,101.928,0,0,0,
,-0.412,-0.711,0.387,-159.485,-358.887,64.331,0,0,0,
,-0.344,-0.962,0.218,-162.049,-355.286,63.598,0,0,0,
,-0.316,-1.008,0.169,-193.36,-269.715,85.998,0,0,0,
,-0.341,-1.084,0.099,-72.083,-113.648,30.334,0,0,0,
,-0.342,-1.194,0.142,120.666,124.694,-18.25,0,0,0,
,-0.402,-1.301,0.127,305.725,393.432,-122.193,0,0,0,
,-0.421,-1.23,0.175,271.911,516.174,-141.419,0,0,0,
,-0.462,-0.977,0.372,265.075,541.198,-136.902,0,0,0,
,-0.483,-0.817,0.492,351.867,512.817,-125.611,0,0,0,
,-0.4,-0.831,0.515,334.961,400.268,-123.902,0,0,0,
,-0.365,-0.839,0.489,115.356,202.514,-119.873,0,0,0,
,-0.349,-0.835,0.543,-172.852,-38.147,-95.643,0,0,0,
,-0.408,-0.693,0.553,-498.169,-236.695,-63.294,0,0,0,
,-0.468,-0.56,0.597,-638.672,-410.34,-7.142,0,0,0,
,-0.441,-0.548,0.473,-608.948,-491.333,30.334,0,0,0,
,-0.435,-0.644,0.324,-553.772,-496.766,54.26,0,0,0,
,-0.398,-0.816,0.191,-497.925,-421.509,77.331,0,0,0,
,-0.368,-0.917,0.116,-409.18,-257.142,92.773,0,0,0,
,-0.349,-1.008,0.048,-222.168,-32.288,76.232,0,0,0,
,-0.34,-1.032,0.083,84.289,154.846,37.963,0,0,0,
,-0.391,-1.052,0.129,440.796,378.601,-49.5,0,0,0,
,-0.402,-1.19,0.099,467.956,519.409,-126.587,0,0,0,
,-0.421,-1.042,0.228,357.666,549.621,-106.141,0,0,0,
,-0.446,-0.827,0.425,387.085,525.329,-105.896,0,0,0,
,-0.454,-0.773,0.49,461.059,476.196,-115.54,0,0,0,
,-0.426,-0.755,0.514,451.416,375.427,-98.755,0,0,0,
,-0.411,-0.751,0.542,360.168,262.085,-73.731,0,0,0,
,-0.388,-0.783,0.565,202.331,138.977,-49.622,0,0,0,
,-0.374,-0.785,0.551,29.602,17.395,-44.983,0,0,0,
,-0.387,-0.813,0.501,-115.357,-131.165,0.732,0,0,0,
,-0.42,-0.763,0.464,-260.804,-244.568,77.636,0,0,0,
,-0.412,-0.697,0.392,-322.449,-296.998,101.806,0,0,0,
,-0.414,-0.754,0.278,-274.964,-318.299,120.3,0,0,0,
,-0.33,-0.872,0.211,-174.317,-281.678,137.634,0,0,0,
,-0.265,-1.083,0.079,-135.132,-182.312,109.192,0,0,0,
,-0.214,-1.203,0.121,-55.176,-30.091,64.453,0,0,0,
,-0.234,-1.254,0.223,165.283,219.787,-33.02,0,0,0,
,-0.253,-1.389,0.164,301.208,447.754,-147.95,0,0,0,
,-0.324,-1.301,0.24,215.942,528.503,-196.351,0,0,0,
,-0.4,-1.013,0.422,198.303,508.484,-187.928,0,0,0,
,-0.421,-0.794,0.536,283.691,439.697,-146.973,0,0,0,
,-0.29,-0.796,0.697,243.103,197.021,-151.856,0,0,0,
,-0.345,-1.065,0.686,-210.389,22.766,-235.352,0,0,0,
,-0.476,-0.588,0.694,-726.563,-179.749,-71.289,0,0,0,
,-0.424,-0.023,0.584,-444.397,-290.894,158.752,0,0,0,
,-0.391,-0.458,0.526,10.376,-322.51,149.841,0,0,0,
,-0.346,-0.864,0.334,-108.155,-375.184,188.781,0,0,0,
,-0.307,-0.886,0.226,-406.189,-412.964,222.656,0,0,0,
,-0.275,-0.902,0.223,-368.775,-366.517,197.815,0,0,0,
,-0.231,-1.206,0.178,-280.213,-227.234,106.506,0,0,0,
,-0.195,-1.304,0.171,-264.832,-94.849,25.024,0,0,0,
,-0.235,-1.185,0.186,-94.971,85.998,-60.303,0,0,0,
,-0.284,-1.126,0.208,188.232,257.751,-149.537,0,0,0,
,-0.331,-1.146,0.228,313.293,430.603,-258.057,0,0,0,
,-0.387,-1.138,0.23,202.636,499.633,-285.462,0,0,0,
,-0.393,-0.86,0.466,128.662,466.797,-195.008,0,0,0,
,-0.447,-0.525,0.686,269.775,445.251,-130.188,0,0,0,
,-0.444,-0.519,0.635,479.614,348.571,-95.154,0,0,0,
,-0.352,-0.604,0.589,430.42,146.972,6.958,0,0,0,
,-0.359,-0.648,0.59,209.228,-46.57,72.57,0,0,0,
,-0.352,-0.763,0.509,-143.921,-256.775,103.454,0,0,0,
,-0.337,-0.71,0.444,-463.257,-436.402,186.889,0,0,0,
,-0.363,-0.544,0.511,-362.488,-516.602,227.722,0,0,0,
,-0.292,-0.891,0.301,-114.319,-455.933,146.789,0,0,0,
,-0.198,-1.166,0.151,-176.575,-396.851,139.77,0,0,0,
,-0.188,-1.137,0.151,-144.715,-242.31,136.84,0,0,0,
,-0.242,-1.14,0.149,82.946,-46.753,56.03,0,0,0,
,-0.274,-1.19,0.175,326.843,157.837,-21.668,0,0,0,
,-0.339,-1.183,0.18,442.81,305.847,-119.385,0,0,0,
,-0.36,-1.111,0.205,373.474,381.164,-147.644,0,0,0,
,-0.366,-0.841,0.39,398.315,368.347,-83.619,0,0,0,
,-0.379,-0.665,0.554,536.255,350.219,-37.354,0,0,0,
,-0.362,-0.651,0.488,602.722,295.776,2.746,0,0,0,
,-0.235,-0.781,0.41,473.022,111.389,47.302,0,0,0,
,-0.226,-0.813,0.504,189.697,-92.957,114.318,0,0,0,
,-0.287,-0.778,0.499,-63.233,-318.116,136.84,0,0,0,
,-0.333,-0.725,0.47,-179.993,-514.405,176.269,0,0,0,
,-0.322,-0.79,0.38,-60.303,-626.038,177.307,0,0,0,
,-0.282,-1.009,0.114,-93.873,-646.18,122.192,0,0,0,
,-0.25,-1.106,-0.013,-176.453,-599.854,121.521,0,0,0,
,-0.242,-1.186,-0.099,-189.637,-443.97,87.097,0,0,0,
,-0.246,-1.238,-0.095,-131.897,-240.235,32.165,0,0,0,
,-0.299,-1.256,-0.09,-32.898,5.371,-39.49,0,0,0,
,-0.332,-1.218,-0.079,97.595,220.581,-84.107,0,0,0,
,-0.331,-1.184,0.039,197.509,392.089,-164.063,0,0,0,
,-0.37,-1.247,0.129,79.467,483.032,-224.732,0,0,0,
,-0.351,-1.06,0.271,3.845,497.558,-186.829,0,0,0,
,-0.377,-0.852,0.446,88.684,465.271,-153.931,0,0,0,
,-0.37,-0.766,0.496,202.209,392.822,-136.719,0,0,0,
,-0.34,-0.765,0.463,224.121,274.475,-115.662,0,0,0,
,-0.31,-0.762,0.424,158.264,123.047,-54.017,0,0,0,
,-0.316,-0.791,0.449,3.173,-46.326,-4.883,0,0,0,
,-0.338,-0.775,0.454,-149.964,-163.941,48.034,0,0,0,
,-0.361,-0.712,0.389,-233.765,-287.781,87.097,0,0,0,
,-0.371,-0.681,0.33,-152.405,-399.109,156.433,0,0,0,
,-0.336,-0.789,0.252,-106.751,-462.159,160.034,0,0,0,
,-0.296,-0.909,0.17,-222.901,-526.49,162.231,0,0,0,
,-0.273,-0.916,0.095,-316.834,-572.571,142.395,0,0,0,
,-0.221,-1.006,0.045,-295.472,-542.115,116.088,0,0,0,
,-0.2,-1.196,0.003,-301.697,-449.036,61.157,0,0,0,
,-0.162,-1.291,-0.001,-338.562,-300.171,13.671,0,0,0,
,-0.2,-1.251,0.032,-291.077,-111.084,-61.646,0,0,0,
,-0.228,-1.238,0.045,-110.596,72.204,-129.7,0,0,0,
,-0.248,-1.203,0.015,34.484,250.976,-178.162,0,0,0,
,-0.252,-1.307,0.123,28.625,317.81,-257.508,0,0,0,
,-0.321,-1.271,0.218,-159.913,356.384,-285.706,0,0,0,
,-0.325,-0.972,0.373,-141.663,351.074,-280.091,0,0,0,
,-0.377,-0.89,0.45,48.706,334.106,-283.57,0,0,0,
,-0.392,-0.765,0.469,153.381,323.669,-216.736,0,0,0,
,-0.423,-0.631,0.49,109.68,301.818,-162.964,0,0,0,
,-0.424,-0.542,0.482,53.649,224.731,-99.366,0,0,0,
,-0.444,-0.588,0.504,-38.636,84.35,-49.256,0,0,0,
,-0.47,-0.624,0.523,-217.164,-103.333,16.723,0,0,0,
,-0.485,-0.539,0.455,-347.413,-284.546,106.811,0,0,0,
,-0.461,-0.543,0.377,-240.967,-400.208,156.005,0,0,0,
,-0.373,-0.784,0.283,-150.147,-415.589,139.465,0,0,0,
,-0.323,-0.995,0.072,-209.046,-357.422,106.933,0,0,0,
,-0.269,-1.095,-0.012,-217.713,-244.873,70.617,0,0,0,
,-0.242,-1.228,-0.042,-142.151,-37.171,0.305,0,0,0,
,-0.239,-1.242,-0.056,-16.236,163.635,-73.182,0,0,0,
,-0.259,-1.204,-0.059,216.735,380.676,-151.734,0,0,0,
,-0.279,-1.207,-0.052,265.808,548.889,-213.99,0,0,0,
,-0.348,-1.021,0.096,263.733,669.494,-223.755,0,0,0,
,-0.387,-0.802,0.275,349.06,716.735,-200.501,0,0,0,
,-0.385,-0.655,0.431,513.427,720.031,-147.889,0,0,0,
,-0.387,-0.624,0.453,579.04,661.377,-84.046,0,0,0,
,-0.301,-0.684,0.486,528.442,495.788,-32.41,0,0,0,
,-0.236,-0.775,0.623,353.82,249.084,19.897,0,0,0,
,-0.177,-1.218,0.741,-173.096,-103.455,-161.072,0,0,0,
,-0.531,-0.726,0.93,-492.249,-358.704,104.919,0,0,0,
,-0.419,-0.262,0.591,-63.233,-400.757,196.167,0,0,0,
,-0.32,-0.759,0.323,381.347,-414.734,110.962,0,0,0,
,-0.298,-1.137,0.102,145.568,-436.219,105.285,0,0,0,
,-0.242,-1.012,0.026,-133.301,-439.087,137.939,0,0,0,
,-0.304,-0.965,0.044,-118.348,-330.262,111.145,0,0,0,
,-0.255,-1.129,-0.009,-69.947,-228.333,50.17,0,0,0,
,-0.258,-1.128,-0.006,22.033,-99.732,31.86,0,0,0,
,-0.248,-1.175,-0.025,82.702,24.047,1.586,0,0,0,
,-0.212,-1.179,-0.008,128.601,123.474,-18.433,0,0,0,
,-0.234,-1.104,0.078,226.379,247.192,-45.533,0,0,0,
,-0.243,-1.099,0.175,277.221,352.356,-86.731,0,0,0,
,-0.271,-1.044,0.281,274.78,426.391,-91.736,0,0,0,
,-0.292,-0.907,0.363,307.312,422.119,-69.703,0,0,0,
,-0.304,-0.831,0.362,368.53,379.272,-35.889,0,0,0,
,-0.28,-0.855,0.386,361.206,269.836,11.718,0,0,0,
,-0.032,-1.02,0.682,193.115,-55.42,-17.945,0,0,0,
,-0.348,-1.192,0.501,-413.514,-187.623,-78.919,0,0,0,
,-0.452,-0.412,0.421,-580.201,-323.487,129.211,0,0,0,
,-0.311,-0.417,0.435,86.059,-357.239,181.152,0,0,0,
,-0.239,-0.955,0.211,312.255,-316.407,133.85,0,0,0,
,-0.15,-1.171,0.014,45.349,-335.389,138.183,0,0,0,
,-0.129,-1.129,-0.01,-121.827,-305.603,127.197,0,0,0,
,-0.108,-1.307,-0.033,-182.251,-226.197,57.678,0,0,0,
,-0.113,-1.288,-0.025,-211.121,-120.179,-1.343,0,0,0,
,-0.156,-1.23,0.017,-96.253,2.563,-73.304,0,0,0,
,-0.171,-1.262,0.045,-17.579,134.765,-143.677,0,0,0,
,-0.202,-1.192,0.13,-69.031,235.046,-210.755,0,0,0,
,-0.26,-1.048,0.258,-140.015,263.916,-248.23,0,0,0,
,-0.304,-0.881,0.425,-104.126,248.779,-222.535,0,0,0,
,-0.328,-0.716,0.532,-18.494,222.595,-147.522,0,0,0,
,-0.328,-0.665,0.512,74.829,167.663,-72.022,0,0,0,
,-0.284,-0.751,0.403,125.366,62.988,21.484,0,0,0,
,-0.251,-0.783,0.26,-16.541,-96.07,111.206,0,0,0,
,-0.294,-0.846,0.222,-183.472,-274.231,138.244,0,0,0,
,-0.297,-0.951,0.15,-300.538,-401.856,144.348,0,0,0,
,-0.235,-1.041,0.095,-349.244,-450.745,102.05,0,0,0,
,-0.233,-1.215,0.007,-432.312,-406.128,-5.921,0,0,0,
,-0.222,-1.265,-0.018,-519.349,-310.425,-89.844,0,0,0,
,-0.283,-1.221,-0.026,-519.776,-146.485,-143.25,0,0,0,
,-0.298,-1.188,0.019,-441.468,12.878,-203.064,0,0,0,
,-0.35,-1.097,0.121,-327.576,177.734,-235.901,0,0,0,
,-0.339,-0.983,0.166,-133.912,326.477,-243.042,0,0,0,
,-0.328,-0.932,0.21,0.793,384.826,-269.349,0,0,0,
,-0.376,-0.906,0.398,35.217,330.322,-251.526,0,0,0,
,-0.384,-0.623,0.498,156.189,301.696,-126.099,0,0,0,
,-0.41,-0.449,0.538,353.698,248.962,-59.632,0,0,0,
,-0.368,-0.52,0.397,479.37,203.613,-23.194,0,0,0,
,-0.296,-0.721,0.346,418.884,63.232,38.086,0,0,0,
,-0.286,-0.792,0.411,210.266,-74.402,129.882,0,0,0,
,-0.297,-0.73,0.354,77.941,-177.369,151.733,0,0,0,
,-0.303,-0.754,0.226,67.321,-287.171,150.085,0,0,0,
,-0.245,-0.932,0.173,97.656,-371.888,129.15,0,0,0,
,-0.186,-1.069,0.056,31.555,-405.884,78.125,0,0,0,
,-0.188,-1.217,-0.006,-126.16,-390.87,5.798,0,0,0,
,-0.231,-1.206,0.006,-306.275,-329.712,-45.289,0,0,0,
,-0.277,-1.113,0.02,-321.9,-206.177,-73.609,0,0,0,
,-0.308,-1.108,0.073,-235.596,-57.19,-112.61,0,0,0,
,-0.321,-1.083,0.151,-114.685,128.723,-129.883,0,0,0,
,-0.337,-1.026,0.257,66.406,295.166,-156.8,0,0,0,
,-0.375,-1.037,0.257,82.458,437.683,-198.975,0,0,0,
,-0.388,-0.975,0.332,76.416,488.403,-170.35,0,0,0,
,-0.393,-0.894,0.478,172.546,477.478,-95.948,0,0,0,
,-0.389,-0.849,0.559,310.18,433.288,-27.405,0,0,0,
,-0.361,-0.78,0.438,434.143,337.768,47.424,0,0,0,
,-0.32,-0.765,0.258,427.673,197.692,32.898,0,0,0,
,-0.299,-0.885,0.214,299.316,19.226,36.926,0,0,0,
,-0.316,-0.891,0.235,22.522,-165.039,62.988,0,0,0,
,-0.365,-0.789,0.185,-148.011,-284.607,75.561,0,0,0,
,-0.391,-0.755,0.172,-174.988,-360.474,92.956,0,0,0,
,-0.349,-0.806,0.105,-115.784,-358.399,89.294,0,0,0,
,-0.298,-0.876,-0.02,-70.557,-324.585,77.392,0,0,0,
,-0.273,-0.995,-0.113,-56.702,-242.859,50.72,0,0,0,
,-0.282,-1.052,-0.133,-57.373,-124.268,44.311,0,0,0,
,-0.287,-1.101,-0.071,-54.932,56.518,18.066,0,0,0,
,-0.287,-1.09,0.042,55.114,293.64,-2.503,0,0,0,
,-0.301,-1.108,0.113,284.668,507.812,-45.289,0,0,0,
,-0.29,-1.199,0.127,404.846,663.025,-113.709,0,0,0,
,-0.289,-1.159,0.205,416.076,697.937,-108.46,0,0,0,
,-0.299,-1.029,0.311,447.143,662.353,-83.619,0,0,0,
,-0.298,-0.86,0.342,523.864,582.336,-63.294,0,0,0,
,-0.303,-0.823,0.273,560.852,505.493,-59.327,0,0,0,
,-0.252,-0.918,0.162,499.145,367.065,-61.89,0,0,0,
,-0.085,-1.153,0.149,110.717,116.394,-192.81,0,0,0,
,-0.369,-1.278,0.419,-486.573,-213.013,-174.5,0,0,0,
,-0.565,-0.538,0.367,-494.629,-216.675,177.307,0,0,0,
,-0.378,-0.387,0.219,59.326,-59.815,107.055,0,0,0,
,-0.293,-0.886,0.005,391.784,70.678,-52.491,0,0,0,
,-0.271,-1.063,-0.038,187.133,60.607,48.339,0,0,0,
,-0.257,-0.965,0.027,-60.12,36.926,93.078,0,0,0,
,-0.224,-0.906,0.106,-67.444,28.015,93.444,0,0,0,
,-0.125,-1.066,0.243,-81.421,-70.069,41.809,0,0,0,
,-0.099,-1.136,0.309,-204.102,-164.856,35.644,0,0,0,
,-0.105,-1.018,0.212,-428.04,-229.859,51.208,0,0,0,
,-0.015,-0.944,0.272,-447.388,-349.183,41.503,0,0,0,
,-0.006,-0.93,0.331,-312.623,-400.33,41.076,0,0,0,
,0.014,-1.096,0.346,-311.28,-422.303,-12.269,0,0,0,
,0.041,-1.194,0.35,-480.103,-450.562,-26.062,0,0,0,
,0.026,-1.095,0.382,-512.024,-466.126,-35.767,0,0,0,
,-0.003,-1.095,0.397,-380.31,-433.777,-68.665,0,0,0,
,0,-1.241,0.349,-327.027,-395.447,-106.812,0,0,0,
,-0.037,-1.212,0.336,-357.85,-365.052,-120.057,0,0,0,
,-0.097,-1.178,0.294,-371.033,-329.773,-156.189,0,0,0,
,-0.13,-1.18,0.245,-366.456,-321.167,-190.796,0,0,0,
,-0.198,-1.159,0.229,-418.152,-315.064,-204.651,0,0,0,
,-0.244,-1.134,0.185,-479.676,-304.383,-224.183,0,0,0,
,-0.295,-1.069,0.196,-483.46,-287.476,-234.131,0,0,0,
,-0.34,-1.051,0.196,-453.309,-265.442,-256.409,0,0,0,
,-0.392,-1.021,0.163,-382.752,-217.957,-260.132,0,0,0,
,-0.458,-0.941,0.127,-317.444,-148.743,-247.376,0,0,0,
,-0.68,-0.652,-0.057,-19.654,99.243,-254.212,0,0,0,
,-0.692,-0.696,-0.084,314.148,179.443,-259.827,0,0,0,
,-0.658,-0.833,-0.198,366.027,304.687,-218.75,0,0,0,
,-0.686,-0.661,-0.174,235.046,373.535,-196.228,0,0,0,
,-0.666,-0.612,-0.107,199.096,435.791,-171.021,0,0,0,
,-0.662,-0.573,0.003,169.128,436.706,-148.56,0,0,0,
,-0.638,-0.589,0.09,154.968,440.49,-100.586,0,0,0,
,-0.616,-0.457,0.174,287.109,431.396,-81.299,0,0,0,
,-0.617,-0.499,0.213,466.43,449.646,-43.946,0,0,0,
,-0.552,-0.648,0.205,475.525,453.003,3.723,0,0,0,
,-0.455,-0.768,0.207,276.245,396.85,64.758,0,0,0,
,-0.385,-0.797,0.337,63.293,291.198,104.736,0,0,0,
,-0.334,-0.779,0.505,-21.485,177.673,149.109,0,0,0,
,-0.222,-0.835,0.631,66.65,78.735,143.859,0,0,0,
,-0.123,-1.083,0.536,68.298,-29.175,90.148,0,0,0,
,-0.016,-1.261,0.591,-107.361,-173.89,90.454,0,0,0,
,-0.003,-1.252,0.64,-285.096,-270.325,91.491,0,0,0,
,-0.014,-1.215,0.62,-445.679,-329.041,33.142,0,0,0,
,0.003,-1.213,0.62,-488.892,-362.183,-15.686,0,0,0,
,-0.026,-1.235,0.608,-553.345,-365.906,-39.917,0,0,0,
,-0.017,-1.239,0.55,-672.73,-379.334,-58.716,0,0,0,
,-0.061,-1.178,0.574,-667.176,-368.897,-52.552,0,0,0,
,-0.125,-1.134,0.564,-575.074,-353.516,-68.848,0,0,0,
,-0.169,-1.074,0.52,-408.57,-338.379,-100.22,0,0,0,
,-0.235,-1.066,0.433,-244.385,-322.205,-132.691,0,0,0,
,-0.299,-1.082,0.338,-139.222,-291.993,-144.349,0,0,0,
,-0.35,-1.048,0.272,-118.531,-242.188,-137.513,0,0,0,
,-0.406,-0.911,0.183,-79.041,-168.274,-125.489,0,0,0,
,-0.474,-0.79,0.093,23.498,-96.619,-140.076,0,0,0,
,-0.543,-0.699,0.037,170.349,-18.738,-142.456,0,0,0,
,-0.592,-0.616,-0.04,282.043,85.388,-147.644,0,0,0,
,-0.623,-0.571,-0.051,398.376,208.862,-121.521,0,0,0,
,-0.637,-0.552,-0.064,502.502,318.847,-89.661,0,0,0,
,-0.642,-0.591,-0.083,540.466,422.363,-31.617,0,0,0,
,-0.602,-0.582,-0.054,534.423,501.403,18.798,0,0,0,
,-0.562,-0.555,-0.001,568.42,535.278,42.053,0,0,0,
,-0.513,-0.592,0.048,670.654,537.536,27.221,0,0,0,
,-0.467,-0.747,0.105,700.805,506.775,7.995,0,0,0,
,-0.43,-0.898,0.142,561.645,458.496,20.752,0,0,0,
,-0.372,-0.951,0.218,346.374,376.098,43.335,0,0,0,
,-0.337,-0.903,0.343,186.889,277.526,44.372,0,0,0,
,-0.309,-0.875,0.41,176.147,164.978,-3.968,0,0,0,
,-0.297,-1.117,0.413,51.94,78.125,-50.843,0,0,0,
,-0.273,-1.113,0.483,-293.702,-55.115,46.386,0,0,0,
,-0.212,-0.941,0.672,-424.195,-197.754,84.899,0,0,0,
,-0.202,-1.046,0.737,-404.664,-279.053,62.744,0,0,0,
,-0.128,-1.09,0.699,-485.23,-381.165,85.693,0,0,0,
,-0.098,-0.997,0.641,-502.32,-447.693,118.408,0,0,0,
,-0.084,-0.98,0.62,-418.091,-475.769,130.127,0,0,0,
,-0.056,-1.125,0.572,-400.33,-479.493,113.586,0,0,0,
,-0.023,-1.163,0.544,-395.691,-463.746,95.275,0,0,0,
,-0.044,-1.191,0.498,-351.99,-396.607,62.622,0,0,0,
,-0.054,-1.253,0.383,-290.467,-338.379,30.212,0,0,0,
,-0.114,-1.205,0.298,-276.307,-295.044,-23.682,0,0,0,
,-0.17,-1.212,0.253,-267.64,-269.898,-105.347,0,0,0,
,-0.207,-1.273,0.222,-293.03,-262.818,-166.077,0,0,0,
,-0.261,-1.16,0.234,-251.831,-228.638,-195.252,0,0,0,
,-0.326,-1.1,0.191,-198.548,-161.744,-237.977,0,0,0,
,-0.389,-0.986,0.112,-174.256,-65.979,-275.574,0,0,0,
,-0.446,-0.911,0.094,-116.822,8.239,-290.162,0,0,0,
,-0.513,-0.819,0.072,-54.444,95.886,-266.358,0,0,0,
,-0.554,-0.71,0.036,0.488,172.668,-256.531,0,0,0,
,-0.616,-0.641,0.057,124.572,225.28,-231.019,0,0,0,
,-0.66,-0.592,0.082,244.751,295.959,-206.788,0,0,0,
,-0.674,-0.586,0.071,329.223,365.905,-201.477,0,0,0,
,-0.688,-0.55,0.073,401.733,438.964,-162.903,0,0,0,
,-0.689,-0.503,0.052,489.746,482.36,-132.203,0,0,0,
,-0.663,-0.475,0.048,630.981,495.056,-93.201,0,0,0,
,-0.643,-0.501,0.099,701.355,500.915,-38.514,0,0,0,
,-0.584,-0.681,0.117,617.248,499.694,1.403,0,0,0,
,-0.491,-0.773,0.162,374.328,450.5,78.735,0,0,0,
,-0.433,-0.771,0.251,109.68,364.807,98.571,0,0,0,
,-0.404,-0.738,0.379,-7.569,270.019,104.248,0,0,0,
,-0.326,-0.815,0.547,22.949,186.889,99.365,0,0,0,
,-0.249,-0.98,0.588,-10.987,94.116,129.638,0,0,0,
,0.008,-1.297,0.785,-201.722,-260.132,88.134,0,0,0,
,0.024,-1.581,1.071,-477.234,-498.23,40.649,0,0,0,
,-0.2,-1.028,0.766,-837.647,-412.598,122.192,0,0,0,
,-0.054,-0.777,0.565,-853.577,-460.022,41.687,0,0,0,
,-0.053,-0.992,0.653,-479.371,-479.615,76.721,0,0,0,
,-0.059,-1.057,0.625,-373.963,-449.402,89.965,0,0,0,
,-0.055,-1.13,0.576,-406.739,-395.264,74.462,0,0,0,
,-0.077,-1.207,0.543,-517.823,-338.013,76.782,0,0,0,
,-0.115,-1.14,0.482,-581.971,-287.659,80.444,0,0,0,
,-0.134,-0.985,0.408,-371.155,-239.441,36.865,0,0,0,
,-0.211,-1.048,0.413,-85.816,-222.168,-37.476,0,0,0,
,-0.276,-1.32,0.384,-98.816,-265.32,-123.658,0,0,0,
,-0.238,-1.25,0.36,-232.178,-271.485,-166.199,0,0,0,
,-0.364,-1.046,0.341,-234.62,-257.508,-204.468,0,0,0,
,-0.413,-1.002,0.289,-176.087,-221.314,-240.967,0,0,0,
,-0.442,-0.976,0.245,-130.127,-157.044,-260.621,0,0,0,
,-0.557,-0.88,0.225,-115.113,-68.116,-235.352,0,0,0,
,-0.604,-0.763,0.193,-79.041,35.156,-216.675,0,0,0,
,-0.666,-0.648,0.145,74.646,119.69,-197.083,0,0,0,
,-0.722,-0.506,0.116,258.484,194.824,-176.087,0,0,0,
,-0.743,-0.456,0.056,440.673,292.907,-207.581,0,0,0,
,-0.743,-0.476,0.047,587.28,392.028,-182.251,0,0,0,
,-0.761,-0.422,-0.113,642.944,533.081,-142.09,0,0,0,
,-0.734,-0.357,-0.131,595.276,565.857,-118.226,0,0,0,
,-0.593,-0.607,0.012,530.456,516.784,35.827,0,0,0,
,-0.432,-0.57,0.222,388.794,449.34,62.744,0,0,0,
,-0.426,-0.575,0.398,407.287,397.277,95.214,0,0,0,
,-0.349,-0.699,0.47,473.51,371.643,87.646,0,0,0,
,-0.217,-0.903,0.551,427.246,291.198,95.642,0,0,0,
,-0.16,-0.985,0.608,394.958,178.283,146.911,0,0,0,
,-0.092,-0.988,0.699,512.146,73.303,150.39,0,0,0,
,-0.123,-1.045,0.674,704.04,26.184,86.669,0,0,0,
,-0.089,-1.405,0.498,530.456,-49.683,-16.541,0,0,0,
,-0.089,-1.551,0.445,-7.386,-220.276,10.315,0,0,0,
,-0.262,-0.942,0.442,-193.421,-247.925,158.325,0,0,0,
,-0.251,-1.005,0.411,25.512,-215.027,26.428,0,0,0,
,-0.277,-1.208,0.338,76.599,-188.111,15.075,0,0,0,
,-0.265,-1.201,0.269,-93.995,-196.289,38.269,0,0,0,
,-0.292,-1.123,0.222,-237.854,-223.389,43.396,0,0,0,
,-0.333,-1.125,0.252,-352.539,-264.222,32.592,0,0,0,
,-0.379,-1.051,0.249,-426.087,-297.974,20.629,0,0,0,
,-0.396,-1.011,0.202,-472.168,-324.952,8.667,0,0,0,
,-0.421,-1.009,0.147,-570.618,-348.694,0,0,0,0,
,-0.444,-0.892,0.048,-646.729,-346.68,1.648,0,0,0,
,-0.613,-0.634,-0.097,-649.842,-324.28,-62.806,0,0,0,
,-0.543,-0.988,-0.013,-707.459,-329.224,-133.789,0,0,0,
,-0.568,-0.678,0.059,-715.21,-294.922,-86.731,0,0,0,
,-0.555,-0.796,0.112,-600.769,-191.834,-82.459,0,0,0,
,-0.511,-0.803,0.108,-495.179,-129.029,-119.019,0,0,0,
,-0.459,-0.827,0.142,-455.14,-83.741,-101.441,0,0,0,
,-0.436,-0.803,0.194,-415.589,-54.932,-124.634,0,0,0,
,-0.448,-0.745,0.201,-342.591,-14.832,-172.059,0,0,0,
,-0.434,-0.836,0.124,-388.733,34.606,-239.991,0,0,0,
,-0.436,-0.771,0.177,-544.19,30.578,-217.774,0,0,0,
,-0.452,-0.671,0.26,-603.089,69.152,-230.53,0,0,0,
,-0.432,-0.617,0.339,-537.659,138,-228.15,0,0,0,
,-0.411,-0.655,0.373,-442.688,185.18,-206.36,0,0,0,
,-0.386,-0.613,0.438,-401.49,243.164,-170.044,0,0,0,
,-0.371,-0.53,0.502,-286.011,291.381,-140.503,0,0,0,
,-0.363,-0.5,0.58,-63.843,337.402,-87.525,0,0,0,
,-0.284,-0.584,0.623,176.818,356.262,-31.495,0,0,0,
,-0.253,-0.651,0.682,371.093,358.398,26.611,0,0,0,
,-0.184,-0.713,0.73,565.49,355.468,35.278,0,0,0,
,-0.174,-0.901,0.779,709.655,332.031,7.019,0,0,0,
,-0.104,-1.074,0.962,825.805,225.036,-59.205,0,0,0,
,-0.182,-1.335,0.912,894.104,185.791,-93.811,0,0,0,
,-0.226,-1.049,0.709,723.022,220.886,0.732,0,0,0,
,-0.31,-0.822,0.65,733.886,162.231,-79.224,0,0,0,
,-0.278,-0.998,0.65,854.492,72.509,-96.375,0,0,0,
,-0.296,-0.984,0.668,856.628,22.277,-69.397,0,0,0,
,-0.336,-0.937,0.586,823.425,-16.358,-33.753,0,0,0,
,-0.286,-0.796,0.487,776.916,-12.879,24.536,0,0,0,
,-0.293,-0.838,0.378,766.723,-9.278,15.686,0,0,0,
,-0.307,-1.009,0.351,621.338,-36.133,63.415,0,0,0,
,-0.322,-1.031,0.357,382.019,-70.069,110.29,0,0,0,
,-0.357,-0.94,0.326,230.835,-108.887,148.254,0,0,0,
,-0.41,-0.807,0.23,200.195,-191.895,148.071,0,0,0,
,-0.44,-0.938,0.16,169.555,-290.955,72.326,0,0,0,
,-0.417,-1.039,0.093,-44.434,-409.18,70.861,0,0,0,
,-0.492,-0.91,0.026,-254.944,-512.33,62.316,0,0,0,
,-0.52,-0.885,-0.059,-369.202,-553.345,26.001,0,0,0,
,-0.549,-0.854,-0.092,-422.181,-562.439,2.502,0,0,0,
,-0.585,-0.853,-0.127,-474.488,-511.475,-33.631,0,0,0,
,-0.587,-0.822,-0.193,-516.175,-418.274,-44.739,0,0,0,
,-0.584,-0.805,-0.188,-506.775,-292.725,-34.852,0,0,0,
,-0.532,-0.845,-0.143,-461.853,-129.151,-35.828,0,0,0,
,-0.477,-0.838,-0.006,-347.535,58.166,-27.955,0,0,0,
,-0.431,-0.849,0.042,-91.37,223.571,-5.372,0,0,0,
,-0.36,-0.929,0.105,179.565,336.792,16.296,0,0,0,
,-0.299,-0.957,0.192,382.812,417.907,22.766,0,0,0,
,-0.269,-1.028,0.235,501.22,483.459,-3.174,0,0,0,
,-0.232,-1.024,0.309,553.527,502.502,0.122,0,0,0,
,-0.205,-1.015,0.392,652.343,494.384,12.207,0,0,0,
,-0.181,-1.051,0.416,733.581,452.453,48.889,0,0,0,
,-0.172,-1.034,0.448,702.026,405.334,54.626,0,0,0,
,-0.156,-1.07,0.398,608.337,353.515,22.216,0,0,0,
,-0.143,-1.13,0.406,448.303,280.517,10.864,0,0,0,
,-0.157,-1.086,0.36,255.188,181.091,15.38,0,0,0,
,-0.179,-1.04,0.358,96.496,22.522,-10.132,0,0,0,
,-0.235,-1.087,0.29,-126.831,-131.287,-108.948,0,0,0,
,-0.393,-0.875,0.279,-273.682,-312.439,5.188,0,0,0,
,-0.401,-0.739,0.09,-214.295,-379.456,-30.213,0,0,0,
,-0.412,-0.815,-0.041,-244.141,-435.791,-26.246,0,0,0,
,-0.412,-0.868,-0.126,-357.727,-442.505,-1.465,0,0,0,
,-0.411,-0.763,-0.163,-452.942,-413.819,32.592,0,0,0,
,-0.407,-0.764,-0.109,-388.855,-306.885,25.94,0,0,0,
,-0.382,-0.883,-0.063,-280.396,-172.303,20.69,0,0,0,
,-0.334,-0.944,-0.018,-168.396,-24.292,38.391,0,0,0,
,-0.297,-0.993,0.019,-28.626,104.492,41.442,0,0,0,
,-0.267,-1.064,0.073,121.887,213.806,36.926,0,0,0,
,-0.28,-1.109,0.178,262.512,324.524,15.564,0,0,0,
,-0.298,-1.137,0.207,313.842,388.733,-2.564,0,0,0,
,-0.299,-1.119,0.241,328.369,395.385,-5.249,0,0,0,
,-0.318,-1.055,0.286,369.934,367.065,7.873,0,0,0,
,-0.314,-0.991,0.301,368.957,305.786,-20.447,0,0,0,
,-0.301,-1.002,0.266,325.622,234.924,-67.933,0,0,0,
,-0.301,-1.01,0.185,157.287,104.126,-99.732,0,0,0,
,-0.312,-1.049,0.136,-72.327,-56.641,-115.845,0,0,0,
,-0.373,-1.007,0.116,-372.803,-190.674,-79.102,0,0,0,
,-0.417,-0.845,0.144,-531.739,-303.894,-36.377,0,0,0,
,-0.418,-0.789,0.091,-535.279,-301.27,-62.195,0,0,0,
,-0.409,-0.85,-0.002,-584.9,-231.751,-47.425,0,0,0,
,-0.376,-0.844,0.023,-585.022,-135.926,-34.18,0,0,0,
,-0.364,-0.953,0.09,-532.776,8.361,-33.631,0,0,0,
,-0.282,-1.061,0.182,-429.078,129.333,-1.465,0,0,0,
,-0.229,-1.048,0.338,-136.475,209.472,12.573,0,0,0,
,-0.211,-1.071,0.439,296.142,303.894,10.62,0,0,0,
,-0.213,-1.135,0.343,413.208,360.595,-34.729,0,0,0,
,-0.221,-1.036,0.301,378.784,313.659,-60.852,0,0,0,
,-0.229,-0.929,0.299,361.267,224.609,-66.529,0,0,0,
,-0.258,-0.866,0.34,332.275,127.746,-51.27,0,0,0,
,-0.271,-0.805,0.292,219.726,37.597,-28.931,0,0,0,
,-0.258,-0.82,0.161,53.772,-89.234,-3.174,0,0,0,
,-0.307,-0.82,0.081,-101.624,-213.623,38.391,0,0,0,
,-0.354,-0.751,0.058,-164.185,-313.172,104.98,0,0,0,
,-0.341,-0.774,-0.017,-155.701,-332.52,123.047,0,0,0,
,-0.278,-0.925,-0.036,-188.233,-273.316,119.567,0,0,0,
,-0.246,-1.023,-0.046,-239.197,-175.904,94.299,0,0,0,
,-0.235,-1.096,0.088,-178.772,-6.287,60.363,0,0,0,
,-0.225,-1.214,0.175,-97.413,161.193,20.935,0,0,0,
,-0.178,-1.271,0.278,86.853,291.992,-21.668,0,0,0,
,-0.206,-1.258,0.344,243.652,441.345,-70.252,0,0,0,
,-0.266,-1.244,0.361,191.101,464.172,-120.667,0,0,0,
,-0.287,-1.002,0.452,293.274,409.973,-103.15,0,0,0,
,-0.297,-0.789,0.48,462.646,330.566,-40.406,0,0,0,
,-0.266,-0.711,0.39,527.526,197.387,-27.222,0,0,0,
,-0.218,-0.764,0.167,417.48,0.366,-56.885,0,0,0,
,-0.168,-0.964,0.116,104.187,-255.066,-36.683,0,0,0,
,-0.256,-0.901,0.111,-351.075,-503.968,36.193,0,0,0,
,-0.332,-0.715,0.114,-519.227,-651.856,64.819,0,0,0,
,-0.293,-0.797,0.013,-541.626,-669.556,33.691,0,0,0,
,-0.229,-0.917,-0.055,-569.458,-593.628,20.752,0,0,0,
,-0.226,-1.107,0.026,-552.796,-401.551,1.525,0,0,0,
,-0.207,-1.172,0.074,-499.878,-136.902,-3.785,0,0,0,
,-0.229,-1.172,0.131,-226.807,74.951,-46.021,0,0,0,
,-0.232,-1.215,0.194,155.456,311.584,-73.426,0,0,0,
,-0.261,-1.347,0.13,65.673,450.683,-148.987,0,0,0,
,-0.289,-1.254,0.278,-195.191,396.301,-187.928,0,0,0,
,-0.291,-0.935,0.415,-148.194,324.096,-158.081,0,0,0,
,-0.27,-0.888,0.482,17.822,234.008,-152.71,0,0,0,
,-0.195,-0.951,0.454,24.597,126.098,-159.79,0,0,0,
,-0.157,-0.961,0.337,-140.564,3.051,-157.471,0,0,0,
,-0.167,-1.017,0.266,-402.405,-155.03,-174.5,0,0,0,
,-0.264,-0.975,0.253,-652.466,-272.95,-159.79,0,0,0,
,-0.309,-0.968,0.24,-872.193,-341.98,-154.786,0,0,0,
,-0.326,-0.978,0.188,-1015.32,-313.355,-168.702,0,0,0,
,-0.353,-0.958,0.163,-1095.887,-260.315,-162.232,0,0,0,
,-0.37,-0.866,0.244,-966.919,-129.7,-145.02,0,0,0,
,-0.416,-0.816,0.28,-703.736,30.456,-151.551,0,0,0,
,-0.413,-0.789,0.356,-337.403,191.345,-162.354,0,0,0,
,-0.428,-0.81,0.404,-62.867,313.232,-159.424,0,0,0,
,-0.423,-0.895,0.435,57.556,351.196,-186.463,0,0,0,
,-0.435,-0.849,0.572,181.518,317.199,-152.222,0,0,0,
,-0.422,-0.807,0.681,302.551,266.723,-98.511,0,0,0,
,-0.396,-0.7,0.716,463.012,214.172,-34.363,0,0,0,
,-0.406,-0.652,0.621,615.905,160.217,33.203,0,0,0,
,-0.352,-0.742,0.531,621.887,94.787,79.589,0,0,0,
,-0.301,-0.776,0.326,467.59,7.324,103.271,0,0,0,
,-0.288,-0.845,0.126,124.084,-142.518,88.623,0,0,0,
,-0.222,-0.806,0.082,-206.421,-322.083,99.67,0,0,0,
,-0.338,-0.675,0.03,-374.817,-437.256,77.758,0,0,0,
,-0.419,-0.767,0.1,-460.083,-481.446,75.927,0,0,0,
,-0.357,-0.731,0.135,-522.583,-414.429,73.852,0,0,0,
,-0.377,-0.742,0.134,-458.985,-247.132,31.127,0,0,0,
,-0.34,-0.932,0.169,-356.141,-75.501,13.61,0,0,0,
,-0.295,-0.971,0.341,-125.916,97.839,36.193,0,0,0,
,-0.284,-1.011,0.484,271.057,265.808,-47.059,0,0,0,
,-0.316,-1.186,0.412,502.319,409.179,-144.227,0,0,0,
,-0.333,-1.168,0.453,455.993,377.258,-142.273,0,0,0,
,-0.369,-0.907,0.526,525.94,339.782,-94.117,0,0,0,
,-0.418,-0.762,0.505,645.691,317.382,-75.074,0,0,0,
,-0.335,-0.79,0.391,663.086,275.634,-64.454,0,0,0,
,-0.328,-0.808,0.323,505.798,207.031,-44.739,0,0,0,
,-0.347,-0.728,0.262,329.101,124.206,-1.038,0,0,0,
,-0.359,-0.746,0.197,172.729,17.761,9.338,0,0,0,
,-0.373,-0.806,0.197,-5.616,-98.572,39.428,0,0,0,
,-0.404,-0.796,0.207,-146.424,-167.115,86.608,0,0,0,
,-0.363,-0.666,0.076,-140.748,-172.608,116.76,0,0,0,
,-0.344,-0.799,0.014,-66.59,-110.779,73.913,0,0,0,
,-0.256,-1.143,0.095,-213.807,-9.156,63.537,0,0,0,
,-0.221,-1.067,0.301,-201.905,142.517,83.19,0,0,0,
,-0.226,-1.173,0.434,111.389,339.538,11.291,0,0,0,
,-0.155,-1.388,0.468,355.651,443.176,-92.774,0,0,0,
,-0.221,-1.399,0.515,439.88,500.732,-117.432,0,0,0,
,-0.245,-1.156,0.516,433.41,450.439,-122.437,0,0,0,
,-0.271,-0.888,0.484,500.183,368.347,-150.269,0,0,0,
,-0.29,-0.84,0.368,503.723,274.841,-171.021,0,0,0,
,-0.239,-0.883,0.256,337.158,133.789,-143.25,0,0,0,
,-0.266,-1.016,0.221,-125.123,-59.51,-177.918,0,0,0,
,-0.49,-0.734,0.264,-576.783,-227.173,-49.317,0,0,0,
,-0.507,-0.329,0.374,-302.063,-198.67,88.195,0,0,0,
,-0.38,-0.585,0.226,80.444,-87.769,81.298,0,0,0,
,-0.321,-0.79,0.149,173.278,-35.889,124.694,0,0,0,
,-0.298,-0.798,0.187,129.577,-16.602,171.264,0,0,0,
,-0.246,-0.821,0.246,136.596,-23.377,180.42,0,0,0,
,-0.196,-0.94,0.307,104.004,-73.914,171.203,0,0,0,
,-0.151,-0.985,0.364,-19.959,-162.171,161.316,0,0,0,
,0.118,-1.144,0.626,-150.818,-487,85.693,0,0,0,
,0.009,-1.328,0.677,-118.958,-550.782,107.666,0,0,0,
,0.013,-0.903,0.364,-131.409,-459.351,88.562,0,0,0,
,0.022,-1.044,0.274,-51.514,-427.002,1.037,0,0,0,
,0.053,-1.4,0.312,-306.702,-440.247,-21.851,0,0,0,
,-0.026,-1.223,0.401,-545.227,-400.696,-48.706,0,0,0,
,-0.049,-1.261,0.448,-447.327,-350.892,-90.21,0,0,0,
,-0.044,-1.366,0.308,-345.765,-289.063,-100.403,0,0,0,
,-0.091,-1.361,0.245,-581.788,-279.969,-183.777,0,0,0,
,-0.133,-1.433,0.316,-813.294,-295.533,-283.081,0,0,0,
,-0.191,-1.394,0.376,-903.748,-296.143,-333.435,0,0,0,
,-0.273,-1.249,0.394,-830.994,-270.752,-359.986,0,0,0,
,-0.335,-1.176,0.373,-727.967,-230.042,-384.888,0,0,0,
,-0.381,-1.045,0.295,-658.57,-178.284,-387.757,0,0,0,
,-0.43,-0.894,0.245,-570.435,-138.855,-359.925,0,0,0,
,-0.539,-0.684,0.191,-354.065,38.208,-362,0,0,0,
,-0.635,-0.373,0.044,99.304,103.759,-303.406,0,0,0,
,-0.59,-0.742,-0.003,269.714,246.582,-342.102,0,0,0,
,-0.608,-0.613,0.012,147.827,255.432,-290.345,0,0,0,
,-0.662,-0.502,0.099,167.663,358.032,-213.501,0,0,0,
,-0.656,-0.439,0.114,242.37,401.855,-204.102,0,0,0,
,-0.633,-0.45,0.13,283.569,439.697,-149.231,0,0,0,
,-0.588,-0.447,0.184,358.337,419.922,-141.419,0,0,0,
,-0.589,-0.418,0.145,455.505,408.386,-97.29,0,0,0,
,-0.577,-0.388,0.186,612.793,393.859,-82.581,0,0,0,
,-0.567,-0.54,0.234,652.588,416.626,-34.79,0,0,0,
,-0.489,-0.62,0.215,537.536,419.189,24.475,0,0,0,
,-0.421,-0.643,0.267,424.682,357.422,84.594,0,0,0,
,-0.398,-0.639,0.381,391.54,309.814,120.422,0,0,0,
,-0.334,-0.688,0.439,455.139,269.348,114.868,0,0,0,
,-0.269,-0.86,0.469,561.706,224.853,128.479,0,0,0,
,-0.189,-1,0.466,500.915,160.217,176.208,0,0,0,
,-0.099,-1.158,0.45,282.592,49.865,167.236,0,0,0,
,-0.032,-1.281,0.487,8.361,-81.604,179.626,0,0,0,
,0.122,-1.33,0.658,-289.185,-413.269,189.697,0,0,0,
,0.018,-1.514,1.073,-377.32,-510.132,38.33,0,0,0,
,-0.118,-1.027,0.589,-626.282,-400.574,89.843,0,0,0,
,-0.062,-1.002,0.482,-621.033,-417.481,-8.24,0,0,0,
,-0.03,-1.205,0.583,-565.125,-469.91,12.329,0,0,0,
,-0.065,-1.176,0.597,-661.255,-444.214,40.283,0,0,0,
,-0.105,-1.154,0.578,-758.301,-422.73,24.902,0,0,0,
,-0.122,-1.075,0.532,-706.36,-403.443,35.583,0,0,0,
,-0.159,-1.053,0.497,-535.218,-375.672,-16.175,0,0,0,
,-0.205,-1.183,0.452,-393.433,-365.113,-68.543,0,0,0,
,-0.258,-1.241,0.403,-450.013,-350.464,-102.662,0,0,0,
,-0.31,-1.136,0.375,-476.929,-307.618,-143.494,0,0,0,
,-0.37,-1.073,0.357,-435.303,-257.142,-172.486,0,0,0,
,-0.402,-0.991,0.312,-373.963,-188.111,-210.755,0,0,0,
,-0.455,-0.9,0.281,-301.758,-120.972,-247.986,0,0,0,
,-0.497,-0.867,0.24,-253.785,-37.293,-253.235,0,0,0,
,-0.648,-0.6,0.142,-82.825,168.029,-244.812,0,0,0,
,-0.628,-0.487,0.198,219.97,222.656,-282.959,0,0,0,
,-0.562,-0.776,0.136,290.588,296.997,-350.525,0,0,0,
,-0.61,-0.577,0.123,231.872,326.355,-323.914,0,0,0,
,-0.666,-0.486,0.224,326.294,340.576,-305.481,0,0,0,
,-0.648,-0.473,0.215,504.943,395.507,-262.391,0,0,0,
,-0.657,-0.452,0.209,641.296,430.42,-219.056,0,0,0,
,-0.662,-0.435,0.218,822.998,479.37,-161.866,0,0,0,
,-0.64,-0.462,0.162,969.909,533.691,-97.107,0,0,0,
,-0.608,-0.543,0.084,987.609,561.34,-5.249,0,0,0,
,-0.531,-0.625,0.06,892.822,560.547,49.377,0,0,0,
,-0.479,-0.689,0.055,760.131,510.742,105.896,0,0,0,
,-0.403,-0.742,0.154,636.963,451.355,144.348,0,0,0,
,-0.294,-0.942,0.18,448.669,354.919,100.28,0,0,0,
,-0.22,-1.171,0.399,50.72,184.875,116.943,0,0,0,
,-0.207,-1.009,0.561,-225.708,80.322,218.75,0,0,0,
,-0.101,-0.996,0.704,-220.093,-113.526,165.832,0,0,0,
,0.02,-1.353,0.973,-202.759,-384.339,35.583,0,0,0,
,-0.114,-1.367,1.093,-398.865,-416.626,1.586,0,0,0,
,-0.215,-0.981,0.623,-846.009,-359.803,116.943,0,0,0,
,0.023,-0.912,0.695,-768.677,-456.788,-66.651,0,0,0,
,-0.108,-0.777,0.547,-566.834,-394.776,141.662,0,0,0,
,-0.053,-0.852,0.637,-361.939,-408.753,63.903,0,0,0,
,-0.067,-1.146,0.632,-319.458,-388.977,122.985,0,0,0,
,-0.074,-1.188,0.619,-593.567,-353.272,126.648,0,0,0,
,-0.13,-1.059,0.627,-688.721,-323.792,105.957,0,0,0,
,-0.203,-1.017,0.573,-485.718,-271.363,62.805,0,0,0,
,-0.235,-1.039,0.454,-243.958,-243.592,58.166,0,0,0,
,-0.337,-1.11,0.416,-170.716,-267.701,-33.814,0,0,0,
,-0.341,-1.358,0.384,-283.204,-345.52,-130.372,0,0,0,
,-0.303,-1.176,0.411,-394.104,-376.709,-144.776,0,0,0,
,-0.466,-1.018,0.366,-364.075,-379.151,-199.952,0,0,0,
,-0.465,-0.988,0.274,-297.486,-341.309,-260.315,0,0,0,
,-0.517,-0.926,0.185,-302.796,-282.288,-280.03,0,0,0,
,-0.61,-0.799,0.153,-321.717,-179.871,-273.194,0,0,0,
,-0.654,-0.648,0.13,-207.459,-16.541,-271.973,0,0,0,
,-0.728,-0.385,0.099,249.817,161.132,-209.473,0,0,0,
,-0.647,-0.711,0.141,426.757,289.489,-270.264,0,0,0,
,-0.587,-0.626,0.128,418.823,414.245,-195.923,0,0,0,
,-0.637,-0.461,0.187,510.986,459.289,-183.045,0,0,0,
,-0.636,-0.39,0.234,709.655,542.297,-132.325,0,0,0,
,-0.578,-0.421,0.231,908.142,630.981,-111.451,0,0,0,
,-0.546,-0.414,0.205,1045.776,681.335,-66.163,0,0,0,
,-0.51,-0.472,0.176,1125.244,698.974,-21.058,0,0,0,
,-0.446,-0.588,0.163,1072.387,687.744,45.288,0,0,0,
,-0.251,-0.868,0.041,723.266,622.009,-154.664,0,0,0,
,-0.361,-1.1,0.253,56.884,295.227,75.5,0,0,0,
,-0.373,-0.522,0.472,-5.005,207.458,298.767,0,0,0,
,-0.32,-0.673,0.559,237.609,175.72,63.415,0,0,0,
,-0.29,-0.963,0.549,273.742,146.484,70.8,0,0,0,
,-0.234,-0.95,0.52,168.701,87.524,174.804,0,0,0,
,-0.149,-0.976,0.474,47.912,-91.309,164.123,0,0,0,
,-0.1,-1.312,0.671,-21.729,-312.012,84.106,0,0,0,
,-0.182,-1.306,0.721,-297.12,-358.765,181.457,0,0,0,
,-0.186,-1.029,0.554,-634.888,-400.33,199.279,0,0,0,
,-0.089,-1.027,0.62,-569.703,-454.163,119.384,0,0,0,
,-0.133,-1.018,0.563,-393.433,-437.073,142.395,0,0,0,
,-0.12,-1.091,0.541,-256.226,-436.219,90.881,0,0,0,
,-0.125,-1.273,0.532,-295.899,-434.876,66.406,0,0,0,
,-0.139,-1.328,0.513,-496.216,-391.602,62.805,0,0,0,
,-0.17,-1.126,0.445,-641.541,-343.323,61.95,0,0,0,
,-0.212,-0.936,0.402,-525.696,-314.209,-7.752,0,0,0,
,-0.26,-1.005,0.388,-309.388,-298.462,-98.267,0,0,0,
,-0.317,-1.207,0.393,-282.654,-322.754,-143.616,0,0,0,
,-0.301,-1.23,0.395,-446.717,-345.215,-164.734,0,0,0,
,-0.36,-1.035,0.372,-480.774,-332.093,-186.463,0,0,0,
,-0.44,-0.957,0.352,-386.475,-325.745,-215.394,0,0,0,
,-0.453,-0.927,0.306,-310.608,-278.26,-231.202,0,0,0,
,-0.482,-0.881,0.266,-280.152,-217.164,-246.582,0,0,0,
,-0.508,-0.814,0.23,-256.287,-141.48,-248.291,0,0,0,
,-0.547,-0.769,0.195,-262.207,-77.637,-272.644,0,0,0,
,-0.592,-0.684,0.198,-174.561,-0.061,-240.967,0,0,0,
,-0.584,-0.663,0.231,-45.105,85.754,-226.685,0,0,0,
,-0.592,-0.632,0.278,75.439,191.467,-201.783,0,0,0,
,-0.593,-0.587,0.283,240.478,291.442,-186.524,0,0,0,
,-0.594,-0.569,0.258,417.602,370.788,-170.35,0,0,0,
,-0.592,-0.531,0.251,557.617,423.156,-128.968,0,0,0,
,-0.587,-0.504,0.219,718.567,471.313,-115.479,0,0,0,
,-0.579,-0.518,0.216,837.28,509.521,-77.027,0,0,0,
,-0.568,-0.554,0.193,934.143,527.465,-51.575,0,0,0,
,-0.512,-0.583,0.144,945.922,533.02,-14.832,0,0,0,
,-0.48,-0.817,-0.041,678.65,457.153,-120.423,0,0,0,
,-0.559,-0.853,0.101,281.86,288.147,89.538,0,0,0,
,-0.515,-0.569,0.269,233.764,286.499,224.731,0,0,0,
,-0.369,-0.681,0.326,376.587,294.86,83.801,0,0,0,
,-0.371,-0.932,0.352,318.664,252.075,50.293,0,0,0,
,-0.325,-0.908,0.376,236.511,210.876,98.205,0,0,0,
,-0.278,-0.901,0.456,250.976,136.291,112.06,0,0,0,
,-0.25,-1.014,0.541,152.465,50.415,123.84,0,0,0,
,-0.145,-1.155,0.623,-154.358,-156.556,118.347,0,0,0,
,-0.073,-1.251,0.833,-376.954,-360.596,101.379,0,0,0,
,-0.134,-1.078,0.813,-488.038,-398.987,135.62,0,0,0,
,-0.077,-1.026,0.667,-517.09,-429.932,101.318,0,0,0,
,-0.052,-1.043,0.563,-479.615,-426.88,93.872,0,0,0,
,-0.074,-1.017,0.496,-432.557,-406.678,91.369,0,0,0,
,-0.075,-1.126,0.53,-415.467,-390.992,43.701,0,0,0,
,-0.128,-1.301,0.552,-578.736,-338.99,-3.357,0,0,0,
,-0.148,-1.226,0.476,-741.822,-271.424,-2.442,0,0,0,
,-0.203,-0.897,0.44,-534.79,-197.998,-36.194,0,0,0,
,-0.361,-0.875,0.436,-100.464,-171.753,-90.943,0,0,0,
,-0.346,-1.201,0.386,16.357,-178.589,-143.86,0,0,0,
,-0.377,-1.21,0.332,-165.955,-178.772,-171.387,0,0,0,
,-0.44,-1.027,0.289,-269.227,-187.928,-188.721,0,0,0,
,-0.469,-0.914,0.265,-260.071,-168.152,-211.792,0,0,0,
,-0.526,-0.871,0.253,-207.398,-134.339,-249.817,0,0,0,
,-0.573,-0.9,0.256,-217.347,-82.886,-255.066,0,0,0,
,-0.59,-0.839,0.269,-250.977,-16.602,-230.286,0,0,0,
,-0.615,-0.763,0.284,-232.178,28.198,-221.68,0,0,0,
,-0.612,-0.71,0.308,-174.134,72.021,-208.802,0,0,0,
,-0.593,-0.717,0.346,-114.869,115.234,-214.173,0,0,0,
,-0.583,-0.741,0.365,-68.055,160.4,-208.435,0,0,0,
,-0.56,-0.721,0.368,-46.387,184.143,-207.947,0,0,0,
,-0.579,-0.64,0.331,11.596,223.632,-199.83,0,0,0,
,-0.565,-0.568,0.329,172.729,251.098,-226.563,0,0,0,
,-0.582,-0.547,0.288,322.937,295.776,-243.409,0,0,0,
,-0.589,-0.549,0.241,473.205,336.67,-264.344,0,0,0,
,-0.614,-0.576,0.101,510.742,369.873,-266.175,0,0,0,
,-0.617,-0.596,0.121,429.504,334.106,-202.637,0,0,0,
,-0.553,-0.582,0.184,270.263,328.247,-90.21,0,0,0,
,-0.52,-0.542,0.29,174.011,271.179,-3.174,0,0,0,
,-0.527,-0.389,0.422,301.086,281.738,98.388,0,0,0,
,-0.468,-0.447,0.416,526.916,350.28,105.713,0,0,0,
,-0.426,-0.612,0.377,543.945,360.534,144.165,0,0,0,
,-0.347,-0.702,0.406,416.198,290.1,225.586,0,0,0,
,-0.299,-0.765,0.521,245.361,199.585,277.954,0,0,0,
,-0.231,-0.843,0.609,79.04,95.153,310.791,0,0,0,
,-0.145,-0.977,0.662,-105.957,-20.325,319.152,0,0,0,
,0.073,-1.14,0.838,-257.386,-322.937,278.625,0,0,0,
,0.05,-1.392,1.102,-414.307,-525.879,145.202,0,0,0,
,-0.195,-1.199,0.705,-654.541,-366.761,209.655,0,0,0,
,0.108,-1.017,0.518,-709.168,-497.376,116.943,0,0,0,
,-0.092,-1.111,0.64,-533.081,-465.516,73.059,0,0,0,
,-0.142,-1.232,0.601,-598.877,-386.597,45.776,0,0,0,
,-0.163,-1.274,0.576,-797.974,-333.069,-15.259,0,0,0,
,-0.196,-1.177,0.537,-908.875,-288.697,-27.894,0,0,0,
,-0.29,-0.938,0.575,-769.349,-255.188,-74.891,0,0,0,
,-0.404,-1.062,0.621,-463.929,-261.597,-138.611,0,0,0,
,-0.413,-1.199,0.584,-400.574,-271.424,-157.593,0,0,0,
,-0.454,-1.076,0.545,-445.313,-253.235,-204.346,0,0,0,
,-0.527,-0.966,0.465,-392.64,-245.301,-255.31,0,0,0,
,-0.569,-0.886,0.356,-338.196,-210.633,-273.438,0,0,0,
,-0.628,-0.777,0.228,-345.581,-161.866,-290.772,0,0,0,
,-0.674,-0.614,0.159,-348.206,-114.197,-315.735,0,0,0,
,-0.731,-0.442,0.124,-252.259,-44.373,-327.027,0,0,0,
,-0.78,-0.316,0.129,-53.65,63.293,-319.642,0,0,0,
,-0.787,-0.272,0.139,173.462,200.683,-306.702,0,0,0,
,-0.763,-0.289,0.164,419.311,358.581,-289.551,0,0,0,
,-0.726,-0.281,0.14,609.314,475.158,-261.597,0,0,0,
,-0.659,-0.313,0.216,783.203,533.569,-231.507,0,0,0,
,-0.62,-0.347,0.311,924.194,550.232,-142.518,0,0,0,
,-0.597,-0.37,0.401,1038.513,575.805,4.76,0,0,0,
,-0.524,-0.421,0.419,1111.206,601.379,96.984,0,0,0,
,-0.383,-0.601,0.434,1069.641,575.073,144.653,0,0,0,
,-0.289,-0.794,0.479,920.654,445.495,190.979,0,0,0,
,-0.222,-0.942,0.591,632.812,282.714,235.595,0,0,0,
,-0.173,-1.075,0.703,300.232,113.342,208.679,0,0,0,
,-0.075,-1.157,0.765,14.465,-113.099,226.806,0,0,0,
,0.068,-1.444,1.097,-224.488,-457.764,72.753,0,0,0,
,-0.157,-1.499,1.122,-668.091,-533.204,64.086,0,0,0,
,-0.212,-0.75,0.574,-1075.562,-426.392,236.755,0,0,0,
,-0.089,-0.771,0.596,-995.301,-489.258,131.225,0,0,0,
,-0.128,-1.053,0.734,-883.545,-495.911,148.742,0,0,0,
,-0.172,-1.164,0.771,-1013.184,-466.797,117.553,0,0,0,
,-0.156,-1.053,0.832,-953.858,-440.735,69.58,0,0,0,
,-0.312,-0.889,0.798,-397.95,-404.725,32.47,0,0,0,
,-0.379,-0.904,0.673,164.734,-343.14,4.211,0,0,0,
,-0.422,-1.023,0.408,338.806,-300.538,-134.766,0,0,0,
,-0.472,-0.959,0.257,336.853,-266.053,-153.321,0,0,0,
,-0.554,-0.843,0.188,310.547,-209.595,-182.74,0,0,0,
,-0.599,-0.663,0.149,409.546,-109.192,-172.303,0,0,0,
,-0.646,-0.628,0.105,602.539,20.263,-152.039,0,0,0,
,-0.706,-0.565,0.046,732.605,170.959,-81.36,0,0,0,
,-0.732,-0.476,-0.04,766.296,320.19,-31.8,0,0,0,
,-0.725,-0.474,-0.066,746.826,432.495,1.403,0,0,0,
,-0.699,-0.474,-0.052,678.588,513.855,18.981,0,0,0,
,-0.618,-0.492,-0.017,647.949,520.568,32.653,0,0,0,
,-0.562,-0.621,0.118,608.642,479.98,62.805,0,0,0,
,-0.493,-0.756,0.3,449.096,406.738,110.778,0,0,0,
,-0.441,-0.782,0.392,234.192,330.444,131.408,0,0,0,
,-0.365,-0.72,0.55,85.815,219.177,148.254,0,0,0,
,-0.313,-0.703,0.647,193.481,124.267,145.141,0,0,0,
,-0.21,-0.994,0.622,248.474,20.629,115.417,0,0,0,
,-0.099,-1.139,0.659,77.331,-112.61,170.105,0,0,0,
,-0.073,-1.061,0.708,5.615,-242.92,198.73,0,0,0,
,-0.066,-1.119,0.688,-2.259,-297.547,159.912,0,0,0,
,-0.044,-1.243,0.689,-72.937,-339.905,117.431,0,0,0,
,-0.08,-1.2,0.645,-97.046,-324.28,104.004,0,0,0,
,-0.115,-1.203,0.536,2.38,-275.879,80.993,0,0,0,
,-0.143,-1.23,0.457,92.773,-254.883,46.569,0,0,0,
,-0.225,-1.282,0.368,81.237,-252.076,-22.706,0,0,0,
,-0.294,-1.231,0.324,51.574,-241.394,-49.134,0,0,0,
,-0.385,-1.122,0.26,145.63,-181.763,-51.697,0,0,0,
,-0.484,-1.063,0.116,219.848,-70.557,-41.81,0,0,0,
,-0.577,-0.914,-0.043,224.792,49.377,2.258,0,0,0,
,-0.624,-0.75,-0.181,205.871,160.583,10.253,0,0,0,
,-0.629,-0.688,-0.282,160.522,263.427,-62.561,0,0,0,
,-0.61,-0.779,-0.162,108.703,315.063,-88.135,0,0,0,
,-0.588,-0.724,-0.13,10.864,323.12,-78.553,0,0,0,
,-0.518,-0.687,-0.019,-75.196,228.149,-169.678,0,0,0,
,-0.588,-0.72,0.194,-171.998,107.544,-99.61,0,0,0,
,-0.471,-0.625,0.209,-307.068,63.659,-26.612,0,0,0,
,-0.372,-0.539,0.355,-353.76,-23.621,-17.701,0,0,0,
,-0.377,-0.574,0.466,-252.686,-43.702,-17.579,0,0,0,
,-0.328,-0.784,0.464,-298.706,-93.14,7.446,0,0,0,
,-0.224,-0.871,0.461,-478.211,-184.51,108.642,0,0,0,
,-0.176,-0.785,0.513,-407.959,-243.103,163.147,0,0,0,
,-0.17,-0.937,0.61,-122.498,-223.694,156.86,0,0,0,
,-0.106,-1.254,0.606,77.514,-171.692,88.134,0,0,0,
,-0.127,-1.249,0.622,445.312,-67.749,67.565,0,0,0,
,-0.253,-1.357,0.279,551.513,117.492,-34.363,0,0,0,
,-0.315,-1.281,0.289,521.728,194.275,-44.495,0,0,0,
,-0.409,-0.964,0.301,673.278,322.692,18.554,0,0,0,
,-0.488,-0.776,0.19,770.996,411.804,27.771,0,0,0,
,-0.45,-0.687,-0.044,721.374,430.297,22.155,0,0,0,
,-0.35,-0.859,-0.162,521.972,266.479,-16.297,0,0,0,
,-0.297,-0.982,-0.047,98.144,31.921,22.338,0,0,0,
,-0.403,-0.797,0.111,-333.741,-205.628,35.034,0,0,0,
,-0.485,-0.708,0.29,-540.101,-340.821,54.382,0,0,0,
,-0.387,-0.632,0.353,-577.576,-416.81,49.072,0,0,0,
,-0.292,-0.994,0.267,-397.767,-367.066,-3.663,0,0,0,
,-0.168,-1.176,0.297,-532.959,-333.68,49.316,0,0,0,
,-0.19,-1.052,0.372,-312.745,-223.267,70.129,0,0,0,
,-0.222,-1.106,0.437,236.267,-42.359,49.682,0,0,0,
,-0.261,-1.307,0.276,513.244,153.198,-49.195,0,0,0,
,-0.348,-1.28,0.145,319.275,220.764,-55.237,0,0,0,
,-0.36,-0.887,0.209,315.063,251.892,-15.381,0,0,0,
,-0.394,-0.828,0.25,488.22,286.865,-43.457,0,0,0,
,-0.297,-0.919,0.142,438.781,234.192,-50.66,0,0,0,
,-0.27,-0.879,0.076,213.317,73.913,-10.071,0,0,0,
,-0.256,-0.952,0.08,-114.014,-169.129,-32.166,0,0,0,
,-0.3,-0.849,0.181,-440.918,-383.851,3.723,0,0,0,
,-0.365,-0.767,0.283,-567.505,-497.62,-24.842,0,0,0,
,-0.356,-0.795,0.231,-625.672,-512.146,-61.341,0,0,0,
,-0.355,-0.875,0.208,-647.828,-458.558,-55.054,0,0,0,
,-0.317,-1.06,0.212,-739.075,-359.925,-40.467,0,0,0,
,-0.281,-1.04,0.236,-712.647,-229.676,-2.503,0,0,0,
,-0.314,-0.988,0.307,-331.116,-58.045,-0.55,0,0,0,
,-0.335,-1.037,0.34,133.545,168.274,6.591,0,0,0,
,-0.354,-1.276,0.291,319.397,295.227,-48.523,0,0,0,
,-0.402,-1.185,0.368,194.824,303.283,-9.827,0,0,0,
,-0.398,-0.821,0.417,298.217,287.109,6.164,0,0,0,
,-0.377,-0.847,0.388,487.854,261.352,-35.706,0,0,0,
,-0.28,-1.094,0.257,339.965,178.527,-100.464,0,0,0,
,-0.237,-1.084,0.224,-2.808,37.78,-94.178,0,0,0,
,-0.245,-1.084,0.276,-296.265,-118.653,-136.78,0,0,0,
,-0.293,-0.954,0.285,-478.943,-233.338,-148.194,0,0,0,
,-0.338,-0.864,0.231,-539.673,-324.646,-182.251,0,0,0,
,-0.351,-0.904,0.128,-693.726,-363.587,-182.19,0,0,0,
,-0.385,-0.834,0.14,-947.937,-333.497,-157.41,0,0,0,
,-0.421,-0.739,0.246,-1003.235,-199.036,-116.15,0,0,0,
,-0.503,-0.324,0.151,-207.825,173.523,-104.554,0,0,0,
,-0.404,-1.204,0.227,249.633,286.377,-21.546,0,0,0,
,-0.218,-1.304,0.296,98.816,372.924,8.911,0,0,0,
,-0.3,-0.824,0.593,188.72,362.609,37.658,0,0,0,
,-0.51,-0.962,0.644,591.186,368.042,-74.036,0,0,0,
,-0.398,-1.088,0.406,622.253,339.843,-34.241,0,0,0,
,-0.445,-0.813,0.228,495.727,306.03,15.808,0,0,0,
,-0.416,-0.845,0.036,292.541,250.732,-44.373,0,0,0,
,-0.386,-0.75,0.039,121.032,167.175,-62.745,0,0,0,
,-0.495,-0.672,0.015,46.203,120.056,-93.628,0,0,0,
,-0.5,-0.636,0.085,7.324,65.429,-75.623,0,0,0,
,-0.575,-0.552,0.193,93.566,86.181,-3.418,0,0,0,
,-0.507,-0.484,0.057,256.225,179.748,34.729,0,0,0,
,-0.465,-0.654,-0.007,315.185,244.262,81.604,0,0,0,
,-0.394,-0.785,0.062,297.302,287.109,149.047,0,0,0,
,-0.318,-0.926,0.148,329.528,347.9,168.945,0,0,0,
,-0.252,-0.999,0.235,433.715,363.769,157.348,0,0,0,
,-0.28,-1.025,0.308,633.484,401.001,101.989,0,0,0,
,-0.235,-1.162,0.314,623.352,400.756,44.982,0,0,0,
,-0.225,-1.072,0.34,530.7,371.032,27.526,0,0,0,
,-0.194,-1.136,0.26,451.599,291.198,-30.701,0,0,0,
,-0.018,-1.251,0.361,194.152,49.865,-162.415,0,0,0,
,-0.225,-1.515,0.497,-361.206,-195.984,-284.546,0,0,0,
,-0.289,-0.749,0.367,-698.243,-298.279,-78.736,0,0,0,
,-0.326,-0.553,0.398,-486.878,-297.425,-78.492,0,0,0,
,-0.297,-0.955,0.363,-382.813,-307.007,-38.758,0,0,0,
,-0.252,-0.972,0.335,-694.031,-353.943,46.081,0,0,0,
,-0.203,-0.754,0.44,-669.739,-374.878,124.267,0,0,0,
,-0.122,-0.982,0.436,-466.126,-324.769,140.503,0,0,0,
,-0.029,-1.229,0.475,-399.109,-268.25,114.685,0,0,0,
,-0.036,-1.32,0.605,-216.492,-167.786,85.632,0,0,0,
,-0.016,-1.224,0.396,127.014,1.159,61.767,0,0,0,
,-0.097,-1.399,0.235,140.625,78.613,-82.459,0,0,0,
,-0.131,-1.527,0.446,-8.423,41.931,-134.095,0,0,0,
,-0.235,-1.161,0.536,20.324,96.496,-137.146,0,0,0,
,-0.257,-1.05,0.415,204.956,136.352,-163.697,0,0,0,
,-0.302,-0.931,0.278,296.325,155.456,-144.41,0,0,0,
,-0.339,-0.804,0.05,175.537,131.225,-175.599,0,0,0,
,-0.324,-0.881,-0.064,-51.697,68.725,-169.739,0,0,0,
,-0.409,-0.708,-0.1,-364.747,-34.607,-125.245,0,0,0,
,-0.52,-0.558,-0.12,-514.161,-124.207,-133.606,0,0,0,
,-0.541,-0.479,-0.045,-563.965,-200.196,-83.13,0,0,0,
,-0.526,-0.442,0.024,-529.969,-192.139,-77.515,0,0,0,
,-0.468,-0.477,0.043,-518.006,-152.71,-73.853,0,0,0,
,-0.445,-0.494,0.171,-454.773,-71.9,-45.472,0,0,0,
,-0.395,-0.691,0.263,-411.072,12.451,28.442,0,0,0,
,-0.306,-0.776,0.378,-329.834,103.454,101.684,0,0,0,
,-0.233,-0.764,0.487,-18.311,157.409,126.587,0,0,0,
,-0.203,-0.863,0.577,607.055,210.632,115.295,0,0,0,
,-0.199,-1.266,0.541,880.371,262.512,65.551,0,0,0,
,-0.185,-1.323,0.547,691.223,249.145,36.377,0,0,0,
,-0.227,-1.146,0.516,637.329,220.886,15.686,0,0,0,
,-0.238,-1.074,0.457,686.95,182.19,-43.396,0,0,0,
,-0.254,-1.125,0.436,654.052,146.606,-59.998,0,0,0,
,-0.222,-1.1,0.282,353.271,33.691,-71.045,0,0,0,
,-0.218,-1.052,0.296,-30.274,-115.357,-87.342,0,0,0,
,-0.306,-0.993,0.323,-362.244,-267.456,-96.07,0,0,0,
,-0.334,-0.816,0.336,-492.005,-384.522,-68.787,0,0,0,
,-0.356,-0.824,0.284,-458.924,-405.213,-86.243,0,0,0,
,-0.347,-0.938,0.121,-612.732,-383.24,-89.661,0,0,0,
,-0.36,-0.96,0.09,-777.405,-303.589,-70.496,0,0,0,
,-0.366,-0.946,0.098,-732.911,-128.113,-58.35,0,0,0,
,-0.373,-0.95,0.12,-486.939,48.461,-67.81,0,0,0,
,-0.373,-1.056,0.208,-221.436,204.834,-97.413,0,0,0,
,-0.367,-1.095,0.265,-37.11,320.434,-130.372,0,0,0,
,-0.393,-1.108,0.276,-42.237,366.394,-160.035,0,0,0,
,-0.406,-0.886,0.432,-14.527,351.013,-148.255,0,0,0,
,-0.414,-0.734,0.537,195.617,343.322,-121.277,0,0,0,
,-0.339,-0.726,0.609,421.692,331.665,-69.092,0,0,0,
,-0.276,-0.731,0.677,640.686,321.35,-2.564,0,0,0,
,-0.226,-0.696,0.705,856.445,312.866,106.201,0,0,0,
,-0.163,-0.735,0.53,929.931,277.588,173.889,0,0,0,
,-0.064,-0.901,0.487,925.476,200.256,221.801,0,0,0,
,-0.039,-0.906,0.298,775.817,126.892,225.158,0,0,0,
,-0.02,-1.065,0.259,570.251,26.062,161.255,0,0,0,
,-0.049,-1.116,0.226,316.772,-93.934,165.954,0,0,0,
,-0.105,-1.072,0.143,56.823,-219.605,53.527,0,0,0,
,-0.175,-1.158,0.218,-147.95,-360.962,5.981,0,0,0,
,-0.248,-1.024,0.234,-192.261,-399.903,8.606,0,0,0,
,-0.29,-1.047,0.133,-139.832,-378.296,-34.79,0,0,0,
,-0.326,-1.073,-0.001,-174.317,-378.724,-38.147,0,0,0,
,-0.368,-1.058,-0.063,-280.701,-399.842,-85.572,0,0,0,
,-0.415,-1.02,-0.111,-368.775,-410.645,-115.784,0,0,0,
,-0.472,-0.939,-0.143,-472.84,-409.79,-156.495,0,0,0,
,-0.509,-0.941,-0.109,-571.106,-380.188,-189.393,0,0,0,
,-0.511,-0.84,-0.102,-642.151,-332.886,-201.905,0,0,0,
,-0.486,-0.795,-0.046,-632.264,-248.047,-223.084,0,0,0,
,-0.446,-0.785,0.063,-613.16,-130.249,-230.591,0,0,0,
,-0.399,-0.825,0.144,-610.901,5.798,-219.788,0,0,0,
,-0.353,-0.827,0.218,-518.189,107.971,-171.875,0,0,0,
,-0.327,-0.751,0.357,-295.472,180.725,-94.788,0,0,0,
,-0.287,-0.731,0.431,72.021,265.258,-82.154,0,0,0,
,-0.262,-0.781,0.485,382.141,356.811,-62.989,0,0,0,
,-0.237,-0.817,0.476,500,419.189,-42.298,0,0,0,
,-0.206,-0.811,0.522,579.895,463.134,-3.113,0,0,0,
,-0.143,-0.862,0.456,771.118,441.833,62.011,0,0,0,
,-0.161,-0.939,0.513,875.427,400.146,154.907,0,0,0,
,-0.123,-1.025,0.461,743.408,350.525,168.823,0,0,0,
,-0.106,-1.068,0.431,629.15,293.579,185.974,0,0,0,
,-0.13,-1.142,0.395,508.972,212.097,178.955,0,0,0,
,-0.117,-1.127,0.397,389.526,108.703,169.494,0,0,0,
,-0.119,-1.2,0.358,287.414,-1.709,98.327,0,0,0,
,-0.13,-1.291,0.297,45.898,-146.363,17.334,0,0,0,
,-0.238,-1.239,0.313,-239.563,-324.28,8.361,0,0,0,
,-0.303,-1.047,0.296,-306.458,-431.58,-3.724,0,0,0,
,-0.328,-1.058,0.145,-290.894,-458.985,-52.674,0,0,0,
,-0.34,-1.025,-0.029,-385.56,-505.005,-69.275,0,0,0,
,-0.378,-0.91,-0.156,-465.699,-525.879,-104.493,0,0,0,
,-0.43,-0.886,-0.218,-519.898,-522.828,-154.725,0,0,0,
,-0.499,-0.833,-0.231,-539.246,-457.154,-193.36,0,0,0,
,-0.479,-0.795,-0.272,-554.871,-386.841,-208.497,0,0,0,
,-0.478,-0.716,-0.283,-505.31,-267.823,-204.041,0,0,0,
,-0.438,-0.699,-0.254,-424.012,-139.954,-202.271,0,0,0,
,-0.41,-0.709,-0.094,-311.829,33.813,-199.036,0,0,0,
,-0.362,-0.793,0.005,-213.013,195.861,-171.265,0,0,0,
,-0.304,-0.761,0.168,-32.837,319.152,-113.953,0,0,0,
,-0.283,-0.779,0.319,250.854,441.65,-93.262,0,0,0,
,-0.206,-0.978,0.393,461.12,497.253,-79.59,0,0,0,
,-0.183,-0.983,0.557,554.687,508.422,4.577,0,0,0,
,-0.153,-1.043,0.696,656.067,505.249,23.986,0,0,0,
,-0.121,-1.089,0.764,788.696,491.15,80.2,0,0,0,
,-0.093,-1.091,0.665,821.716,447.57,100.891,0,0,0,
,-0.059,-1.188,0.553,702.575,380.249,89.599,0,0,0,
,-0.036,-1.297,0.454,464.477,228.149,94.177,0,0,0,
,-0.053,-1.344,0.468,151.123,30.273,1.22,0,0,0,
,-0.289,-1.468,0.467,-424.439,-252.869,-90.699,0,0,0,
,-0.385,-0.87,0.555,-426.575,-406.739,102.722,0,0,0,
,-0.342,-0.976,0.258,-220.215,-372.803,-42.176,0,0,0,
,-0.343,-1.03,0.001,-256.104,-420.533,-1.954,0,0,0,
,-0.413,-0.924,-0.205,-429.566,-457.215,-23.072,0,0,0,
,-0.445,-0.845,-0.242,-525.269,-488.038,-48.279,0,0,0,
,-0.502,-0.806,-0.245,-557.984,-449.036,-86.67,0,0,0,
,-0.512,-0.757,-0.246,-554.627,-357.911,-107.666,0,0,0,
,-0.508,-0.704,-0.249,-472.474,-235.718,-121.827,0,0,0,
,-0.477,-0.712,-0.211,-378.174,-112.305,-120.362,0,0,0,
,-0.447,-0.717,-0.122,-287.537,35.522,-104.859,0,0,0,
,-0.386,-0.781,-0.007,-214.356,150.879,-91.37,0,0,0,
,-0.328,-0.827,0.157,-100.159,245.056,-58.838,0,0,0,
,-0.279,-0.829,0.275,85.937,311.279,-25.94,0,0,0,
,-0.21,-0.86,0.321,312.622,358.52,-7.081,0,0,0,
,-0.13,-1.008,0.395,423.462,384.582,-4.944,0,0,0,
,-0.051,-1.113,0.483,441.345,381.347,20.263,0,0,0,
,-0.027,-1.114,0.577,441.284,368.774,40.222,0,0,0,
,0.008,-1.15,0.6,442.993,341.858,34.606,0,0,0,
,0.022,-1.151,0.639,478.149,308.044,47.668,0,0,0,
,0.01,-1.139,0.598,479.614,284.546,28.015,0,0,0,
,0.015,-1.143,0.505,390.442,231.323,8.606,0,0,0,
,-0.009,-1.156,0.465,232.91,138.122,-10.682,0,0,0,
,-0.063,-1.085,0.462,29.846,38.879,-6.104,0,0,0,
,-0.148,-1,0.387,-89.295,-66.895,-28.992,0,0,0,
,-0.227,-0.971,0.326,-200.257,-176.88,-44.983,0,0,0,
,-0.302,-0.904,0.182,-295.533,-305.481,-50.354,0,0,0,
,-0.354,-0.858,0.03,-311.28,-431.153,-39.673,0,0,0,
,-0.419,-0.797,-0.058,-356.019,-551.758,-26.246,0,0,0,
,-0.489,-0.765,-0.129,-377.869,-601.563,-24.414,0,0,0,
,-0.542,-0.749,-0.162,-342.591,-580.994,-39.124,0,0,0,
,-0.566,-0.774,-0.232,-265.686,-492.737,-60.791,0,0,0,
,-0.561,-0.839,-0.274,-214.905,-388.977,-73.548,0,0,0,
,-0.555,-0.877,-0.26,-175.538,-255.249,-65.064,0,0,0,
,-0.526,-0.921,-0.233,-159.485,-115.174,-75.867,0,0,0,
,-0.483,-0.956,-0.114,-120.423,28.93,-80.933,0,0,0,
,-0.431,-1.008,0.02,-60.791,173.034,-94.117,0,0,0,
,-0.359,-1.031,0.115,31.25,302.551,-104.126,0,0,0,
,-0.27,-1.064,0.209,133.972,375.305,-96.375,0,0,0,
,-0.185,-1.105,0.34,210.205,419.067,-80.445,0,0,0,
,-0.134,-1.144,0.478,233.886,453.613,-68.787,0,0,0,
,-0.098,-1.144,0.671,263.61,471.557,-42.054,0,0,0,
,-0.067,-1.106,0.728,366.455,468.017,-17.945,0,0,0,
,-0.048,-1.044,0.709,508.484,448.303,8.239,0,0,0,
,-0.023,-1.1,0.634,556.884,423.034,-5.31,0,0,0,
,0.004,-1.144,0.491,450.927,336.303,-11.658,0,0,0,
,-0.02,-1.109,0.444,269.592,219.238,9.155,0,0,0,
,-0.09,-1.059,0.428,109.192,72.692,21.667,0,0,0,
,-0.182,-0.992,0.385,-38.819,-92.286,-5.555,0,0,0,
,-0.27,-1.001,0.364,-193.36,-230.286,-19.898,0,0,0,
,-0.36,-0.883,0.3,-254.761,-332.032,52.551,0,0,0,
,-0.429,-0.795,0.157,-223.572,-371.399,49.926,0,0,0,
,-0.441,-0.831,-0.107,-251.038,-434.51,41.137,0,0,0,
,-0.449,-0.848,-0.204,-361.756,-511.231,6.713,0,0,0,
,-0.478,-0.859,-0.215,-438.111,-555.359,-22.828,0,0,0,
,-0.498,-0.845,-0.209,-466.675,-527.161,-68.299,0,0,0,
,-0.495,-0.842,-0.213,-425.049,-426.697,-115.235,0,0,0,
,-0.438,-0.875,-0.235,-368.897,-284.302,-153.687,0,0,0,
,-0.431,-0.9,-0.218,-326.539,-156.861,-146.973,0,0,0,
,-0.371,-0.874,-0.17,-267.456,-12.757,-137.452,0,0,0,
,-0.338,-0.846,-0.066,-147.522,129.638,-142.945,0,0,0,
,-0.276,-0.913,0.026,2.746,265.747,-144.715,0,0,0,
,-0.238,-0.927,0.12,106.384,348.999,-102.601,0,0,0,
,-0.185,-0.886,0.226,223.327,420.593,-63.233,0,0,0,
,-0.139,-0.922,0.352,352.966,465.271,-48.218,0,0,0,
,-0.091,-0.961,0.465,464.904,495.605,-21.973,0,0,0,
,-0.062,-1.011,0.552,526.672,494.567,2.502,0,0,0,
,-0.039,-1.028,0.63,592.59,459.472,47.18,0,0,0,
,-0.033,-1.057,0.666,620.849,411.743,68.847,0,0,0,
,-0.011,-1.079,0.598,589.965,348.144,65.612,0,0,0,
,-0.022,-1.114,0.525,513.427,251.648,46.203,0,0,0,
,-0.062,-1.162,0.411,388.244,137.939,20.996,0,0,0,
,-0.142,-1.163,0.347,211.609,2.746,3.845,0,0,0,
,-0.234,-1.133,0.286,57.922,-109.07,-15.931,0,0,0,
,-0.288,-1.087,0.227,-89.844,-194.642,-25.269,0,0,0,
,-0.36,-1,0.157,-154.664,-251.343,-22.706,0,0,0,
,-0.432,-0.972,0.058,-156.617,-278.199,-37.598,0,0,0,
,-0.479,-0.964,-0.052,-172.73,-302.796,-32.044,0,0,0,
,-0.504,-0.929,-0.124,-198.121,-318.177,-18.067,0,0,0,
,-0.529,-0.895,-0.2,-230.103,-307.496,-7.386,0,0,0,
,-0.536,-0.894,-0.246,-262.146,-267.334,-25.208,0,0,0,
,-0.548,-0.891,-0.264,-267.762,-216.553,-30.274,0,0,0,
,-0.551,-0.855,-0.255,-269.165,-139.344,-26.49,0,0,0,
,-0.526,-0.828,-0.221,-237.244,-45.411,-25.757,0,0,0,
,-0.474,-0.829,-0.171,-176.758,54.077,-15.809,0,0,0,
,-0.396,-0.874,-0.127,-95.948,144.226,-10.315,0,0,0,
,-0.308,-0.949,-0.06,-36.072,223.388,-9.705,0,0,0,
,-0.222,-1.007,-0.009,-4.517,297.668,-17.09,0,0,0,
,-0.16,-1.045,0.085,27.526,355.59,-40.284,0,0,0,
,-0.103,-1.129,0.179,43.518,410.217,-78.186,0,0,0,
,-0.045,-1.18,0.31,50.537,436.767,-91.675,0,0,0,
,-0.024,-1.167,0.414,89.233,459.594,-108.582,0,0,0,
,0.023,-1.121,0.431,142.883,439.392,-125.489,0,0,0,
,0.373,-1.459,1.026,292.785,60.302,-325.257,0,0,0,
,0,-1.725,0.813,-292.298,126.159,-332.52,0,0,0,
,-0.004,-0.939,0.525,-619.568,102.783,-186.768,0,0,0,
,-0.2,-0.504,0.529,-219.3,109.924,-80.994,0,0,0,
,-0.21,-0.731,0.574,221.496,121.704,-57.862,0,0,0,
,-0.13,-0.962,0.526,309.265,85.144,1.892,0,0,0,
,-0.169,-1.054,0.354,20.568,-59.082,78.552,0,0,0,
,-0.208,-0.858,0.333,-238.099,-259.461,167.846,0,0,0,
,-0.294,-0.758,0.358,-190.735,-369.935,168.701,0,0,0,
,-0.301,-0.861,0.25,-134.278,-409.79,142.883,0,0,0,
,-0.345,-0.867,0.15,-147.95,-456.055,169.067,0,0,0,
,-0.39,-0.932,-0.003,-206.238,-492.188,169.006,0,0,0,
,-0.404,-0.864,-0.112,-258.057,-531.861,173.401,0,0,0,
,-0.445,-0.911,-0.2,-273.255,-532.471,75.317,0,0,0,
,-0.461,-0.918,-0.34,-280.701,-520.508,11.901,0,0,0,
,-0.48,-0.905,-0.412,-318.604,-499.207,-103.882,0,0,0,
,-0.507,-0.85,-0.412,-244.019,-411.377,-256.653,0,0,0,
,-0.465,-1.206,-0.359,-541.26,-379.395,-283.387,0,0,0,
,-0.48,-0.679,-0.13,-569.458,-269.898,-176.941,0,0,0,
,-0.473,-0.734,-0.094,-405.152,-53.223,-346.741,0,0,0,
,-0.376,-0.985,0.008,-349.793,68.054,-360.718,0,0,0,
,-0.335,-0.956,0.13,-453.858,133.545,-249.024,0,0,0,
,-0.284,-0.843,0.257,-457.215,191.65,-193.482,0,0,0,
,-0.242,-0.786,0.4,-336.609,231.567,-139.1,0,0,0,
,-0.198,-0.794,0.541,-137.574,267.334,-126.954,0,0,0,
,-0.162,-0.872,0.631,87.463,296.753,-108.521,0,0,0,
,-0.134,-0.975,0.683,163.635,295.044,-85.999,0,0,0,
,-0.094,-0.991,0.693,161.193,278.076,-72.998,0,0,0,
,-0.102,-0.989,0.708,202.026,252.624,-83.069,0,0,0,
,-0.148,-1.037,0.71,281.311,226.623,-86.304,0,0,0,
,-0.153,-1.068,0.698,349.792,201.233,-80.323,0,0,0,
,-0.189,-1.003,0.635,459.472,188.598,-59.144,0,0,0,
,-0.217,-0.976,0.552,573.364,192.382,-38.88,0,0,0,
,-0.216,-0.974,0.437,615.173,197.998,-7.386,0,0,0,
,-0.235,-0.951,0.374,569.091,209.9,20.568,0,0,0,
,-0.239,-0.957,0.315,485.534,200.439,62.072,0,0,0,
,-0.238,-0.92,0.258,382.568,157.043,102.844,0,0,0,
,-0.286,-0.867,0.173,274.353,79.956,102.417,0,0,0,
,-0.309,-0.897,0.068,144.836,-36.072,54.992,0,0,0,
,-0.326,-0.949,-0.004,-43.457,-184.205,13.061,0,0,0,
,-0.383,-0.922,-0.021,-219.971,-303.589,7.507,0,0,0,
,-0.466,-0.857,-0.036,-363.343,-398.255,7.141,0,0,0,
,-0.493,-0.821,-0.005,-410.645,-432.435,-17.395,0,0,0,
,-0.509,-0.823,-0.02,-384.827,-386.658,-55.115,0,0,0,
,-0.501,-0.888,-0.047,-403.687,-333.741,-105.225,0,0,0,
,-0.482,-1.002,0.049,-414.246,-270.569,-133.24,0,0,0,
,-0.451,-1.037,0.103,-434.266,-180.359,-106.751,0,0,0,
,-0.421,-1.047,0.216,-376.587,-91.614,-136.414,0,0,0,
,-0.392,-1.144,0.286,-243.958,3.356,-166.382,0,0,0,
,-0.34,-1.209,0.405,-150.208,77.575,-199.097,0,0,0,
,-0.324,-1.259,0.36,-137.818,151.672,-274.414,0,0,0,
,-0.369,-1.23,0.319,-244.812,177.612,-296.936,0,0,0,
,-0.392,-1.012,0.387,-269.288,184.448,-282.288,0,0,0,
,-0.416,-0.894,0.418,-144.349,209.716,-282.837,0,0,0,
,-0.421,-0.861,0.39,-23.377,258.911,-280.396,0,0,0,
,-0.469,-0.802,0.358,9.399,303.772,-219.605,0,0,0,
,-0.495,-0.604,0.328,101.379,344.36,-136.475,0,0,0,
,-0.534,-0.524,0.253,240.112,380.127,-88.746,0,0,0,
,-0.523,-0.576,0.189,297.973,382.629,-19.959,0,0,0,
,-0.465,-0.532,0.1,320.19,349.792,27.648,0,0,0,
,-0.436,-0.535,0.078,350.83,265.991,39.062,0,0,0,
,-0.419,-0.728,0.093,252.014,198.425,34.118,0,0,0,
,-0.379,-0.752,0.197,-3.418,128.662,124.206,0,0,0,
,-0.347,-0.585,0.272,-95.276,80.139,177.795,0,0,0,
,-0.319,-0.547,0.329,53.344,50.598,145.996,0,0,0,
,-0.245,-0.72,0.375,243.469,21.301,106.628,0,0,0,
,-0.203,-0.922,0.406,224.853,-18.982,105.407,0,0,0,
,-0.141,-0.99,0.399,61.218,-93.201,120.849,0,0,0,
,-0.082,-1.049,0.464,-43.335,-196.106,131.347,0,0,0,
,-0.072,-1.025,0.544,-111.573,-279.725,128.234,0,0,0,
,-0.072,-1.102,0.606,-121.277,-338.257,72.509,0,0,0,
,-0.068,-1.172,0.582,-172.12,-377.32,55.175,0,0,0,
,-0.067,-1.174,0.529,-274.537,-419.434,33.081,0,0,0,
,-0.068,-1.177,0.518,-280.518,-454.285,11.718,0,0,0,
,-0.105,-1.21,0.509,-240.723,-445.13,-18.25,0,0,0,
,-0.146,-1.238,0.473,-216.492,-404.725,-59.876,0,0,0,
,-0.22,-1.213,0.367,-160.34,-344.788,-71.839,0,0,0,
,-0.322,-1.196,0.272,-104.187,-279.786,-102.906,0,0,0,
,-0.376,-1.248,0.2,-139.649,-228.272,-135.315,0,0,0,
,-0.413,-1.222,0.155,-226.563,-166.382,-163.392,0,0,0,
,-0.469,-1.143,0.127,-253.663,-90.271,-196.045,0,0,0,
,-0.513,-1.104,0.063,-257.264,-9.278,-229.126,0,0,0,
,-0.557,-1.043,0.057,-259.766,77.026,-248.291,0,0,0,
,-0.574,-0.931,0.044,-239.869,159.851,-260.132,0,0,0,
,-0.59,-0.834,0.04,-198.487,250.915,-281.8,0,0,0,
,-0.586,-0.77,0.046,-143.25,326.782,-299.805,0,0,0,
,-0.595,-0.658,0.1,-104.065,388.244,-276.49,0,0,0,
,-0.591,-0.613,0.147,-22.706,456.054,-266.541,0,0,0,
,-0.57,-0.593,0.163,85.51,499.267,-234.62,0,0,0,
,-0.538,-0.536,0.165,181.701,514.831,-205.75,0,0,0,
,-0.514,-0.521,0.178,257.385,503.051,-175.782,0,0,0,
,-0.47,-0.586,0.198,276.855,433.899,-155.64,0,0,0,
,-0.441,-0.685,0.299,200.012,360.595,-103.333,0,0,0,
,-0.407,-0.67,0.366,26.184,285.705,-50.232,0,0,0,
,-0.366,-0.618,0.449,-106.69,202.148,-15.809,0,0,0,
,-0.318,-0.607,0.551,-97.962,122.741,24.78,0,0,0,
,-0.275,-0.654,0.624,-64.515,33.447,79.528,0,0,0,
,-0.213,-0.776,0.67,-81.788,-73.426,141.174,0,0,0,
,-0.139,-0.883,0.705,-212.952,-164.551,182.8,0,0,0,
,-0.1,-0.927,0.741,-371.521,-259.278,217.529,0,0,0,
,-0.07,-0.936,0.763,-407.044,-326.355,220.459,0,0,0,
,-0.05,-0.956,0.764,-329.834,-366.822,195.129,0,0,0,
,-0.078,-1.098,0.729,-278.321,-383.057,148.132,0,0,0,
,-0.097,-1.209,0.67,-366.944,-383.789,119.14,0,0,0,
,-0.152,-1.184,0.628,-479.493,-369.568,74.279,0,0,0,
,-0.193,-1.152,0.556,-473.267,-356.446,30.517,0,0,0,
,-0.248,-1.132,0.508,-388.977,-337.891,-17.64,0,0,0,
,-0.324,-1.161,0.437,-371.705,-317.688,-74.097,0,0,0,
,-0.352,-1.118,0.421,-396.973,-299.012,-105.53,0,0,0,
,-0.398,-1.02,0.366,-407.654,-261.353,-130.86,0,0,0,
,-0.445,-0.962,0.332,-407.349,-224.854,-161.072,0,0,0,
,-0.47,-0.923,0.321,-399.964,-171.57,-189.454,0,0,0,
,-0.496,-0.88,0.328,-381.714,-113.526,-208.924,0,0,0,
,-0.517,-0.834,0.349,-351.014,-45.777,-225.281,0,0,0,
,-0.54,-0.773,0.36,-310.914,26.001,-235.474,0,0,0,
,-0.55,-0.706,0.369,-253.113,110.901,-256.226,0,0,0,
,-0.547,-0.633,0.375,-172.974,161.499,-299.134,0,0,0,
,-0.548,-0.639,0.368,-68.055,180.359,-328.186,0,0,0,
,-0.56,-0.624,0.383,18.249,190.368,-288.025,0,0,0,
,-0.566,-0.584,0.384,40.527,200.927,-282.776,0,0,0,
,-0.584,-0.526,0.386,113.22,200.622,-270.081,0,0,0,
,-0.611,-0.477,0.381,239.563,215.149,-240.906,0,0,0,
,-0.616,-0.503,0.361,377.624,243.591,-207.947,0,0,0,
,-0.615,-0.475,0.378,469.97,268.188,-165.589,0,0,0,
,-0.63,-0.433,0.364,631.897,304.199,-120.972,0,0,0,
,-0.605,-0.46,0.349,791.992,354.37,-65.979,0,0,0,
,-0.549,-0.566,0.318,897.277,388.549,-6.958,0,0,0,
,-0.497,-0.659,0.333,892.822,408.081,52.368,0,0,0,
,-0.432,-0.734,0.349,842.224,408.63,89.233,0,0,0,
,-0.389,-0.798,0.38,763.366,378.234,100.158,0,0,0,
,-0.33,-0.908,0.386,595.398,314.636,103.21,0,0,0,
,-0.238,-1.052,0.426,355.102,184.143,84.35,0,0,0,
,-0.164,-1.144,0.596,77.331,27.526,89.477,0,0,0,
,-0.126,-1.082,0.731,-199.463,-114.319,100.097,0,0,0,
,-0.139,-0.938,0.781,-396.485,-231.202,87.097,0,0,0,
,-0.14,-0.87,0.763,-465.088,-330.872,86.303,0,0,0,
,-0.138,-0.89,0.726,-520.813,-427.185,98.755,0,0,0,
,-0.149,-0.907,0.697,-598.145,-493.103,125.793,0,0,0,
,-0.186,-0.923,0.68,-660.584,-507.508,147.888,0,0,0,
,-0.225,-0.999,0.651,-686.829,-488.831,157.653,0,0,0,
,-0.257,-1.022,0.629,-572.083,-445.008,147.888,0,0,0,
,-0.331,-1.04,0.629,-254.578,-387.94,108.52,0,0,0,
,-0.365,-1.215,0.548,11.108,-314.576,21.911,0,0,0,
,-0.373,-1.25,0.406,60.241,-242.249,-68.665,0,0,0,
,-0.458,-1.187,0.321,58.837,-180.542,-156.983,0,0,0,
,-0.502,-1.084,0.262,54.199,-97.535,-201.355,0,0,0,
,-0.555,-0.951,0.222,68.725,-15.931,-242.798,0,0,0,
,-0.601,-0.832,0.17,101.623,88.562,-270.63,0,0,0,
,-0.634,-0.707,0.131,155.578,176.452,-260.865,0,0,0,
,-0.668,-0.583,0.146,273.681,253.051,-239.869,0,0,0,
,-0.684,-0.513,0.16,393.737,344.665,-202.393,0,0,0,
,-0.687,-0.512,0.113,412.841,451.965,-159.729,0,0,0,
,-0.647,-0.466,0.096,385.376,509.643,-113.099,0,0,0,
,-0.589,-0.453,0.135,390.991,496.765,-85.694,0,0,0,
,-0.538,-0.457,0.207,431.579,428.405,-62.623,0,0,0,
,-0.509,-0.576,0.375,420.288,360.595,-37.598,0,0,0,
,-0.458,-0.675,0.435,271.667,309.448,11.901,0,0,0,
,-0.379,-0.677,0.492,92.468,209.9,62.683,0,0,0,
,-0.32,-0.653,0.584,3.234,79.101,109.558,0,0,0,
,-0.242,-0.694,0.679,42.236,-60.12,148.376,0,0,0,
,-0.196,-0.801,0.71,99.243,-167.359,163.635,0,0,0,
,-0.138,-0.998,0.65,-27.039,-278.443,178.222,0,0,0,
,-0.097,-1.049,0.67,-214.905,-376.893,231.201,0,0,0,
,-0.104,-0.99,0.663,-275.33,-424.012,224.365,0,0,0,
,-0.128,-1.033,0.63,-245.545,-429.871,190.918,0,0,0,
,-0.142,-1.178,0.601,-283.02,-422.425,156.616,0,0,0,
,-0.175,-1.23,0.571,-370.667,-395.508,127.624,0,0,0,
,-0.216,-1.194,0.546,-346.375,-358.826,94.787,0,0,0,
,-0.258,-1.199,0.48,-205.811,-319.519,48.217,0,0,0,
,-0.315,-1.219,0.372,-125.855,-275.086,-29.297,0,0,0,
,-0.383,-1.229,0.303,-107.911,-223.572,-94.3,0,0,0,
,-0.435,-1.113,0.257,-83.619,-151.307,-148.499,0,0,0,
,-0.499,-1.012,0.165,-28.138,-68.116,-184.876,0,0,0,
,-0.554,-0.914,0.096,6.713,21.484,-204.651,0,0,0,
,-0.598,-0.755,0.087,90.698,115.417,-211.182,0,0,0,
,-0.634,-0.681,0.085,203.247,216.858,-215.638,0,0,0,
,-0.626,-0.628,0.051,256.469,320.19,-198.975,0,0,0,
,-0.616,-0.545,0.066,341.43,383.728,-169.922,0,0,0,
,-0.602,-0.498,0.1,445.19,427.49,-143.433,0,0,0,
,-0.564,-0.56,0.157,522.766,433.166,-119.873,0,0,0,
,-0.543,-0.587,0.25,485.351,410.522,-68.848,0,0,0,
,-0.503,-0.615,0.306,392.639,365.722,-49.988,0,0,0,
,-0.477,-0.691,0.371,218.994,273.864,-7.569,0,0,0,
,-0.457,-0.692,0.454,74.157,169.983,43.701,0,0,0,
,-0.432,-0.67,0.513,-0.245,65.002,94.116,0,0,0,
,-0.384,-0.719,0.546,4.882,-33.265,119.873,0,0,0,
,-0.341,-0.79,0.567,40.222,-96.314,151.001,0,0,0,
,-0.287,-0.867,0.536,48.95,-154.297,175.842,0,0,0,
,-0.25,-0.933,0.516,60.546,-199.341,203.979,0,0,0,
,-0.209,-1.028,0.489,-7.569,-250.611,215.515,0,0,0,
,-0.156,-1.085,0.491,-141.48,-304.383,212.646,0,0,0,
,-0.136,-1.133,0.499,-283.387,-344.239,184.509,0,0,0,
,-0.13,-1.195,0.524,-359.192,-386.109,141.906,0,0,0,
,-0.126,-1.277,0.552,-431.397,-396.241,89.355,0,0,0,
,-0.153,-1.29,0.524,-479.615,-380.188,39.123,0,0,0,
,-0.206,-1.271,0.481,-451.844,-357.666,-21.241,0,0,0,
,-0.251,-1.191,0.409,-367.676,-308.716,-83.497,0,0,0,
,-0.312,-1.178,0.333,-295.227,-259.339,-142.09,0,0,0,
,-0.343,-1.156,0.279,-251.648,-206.727,-201.539,0,0,0,
,-0.41,-1.058,0.226,-197.022,-126.648,-223.999,0,0,0,
,-0.479,-0.998,0.166,-133.912,-31.311,-244.629,0,0,0,
,-0.529,-0.898,0.111,-60.181,76.965,-240.54,0,0,0,
,-0.577,-0.791,0.087,51.879,212.646,-220.459,0,0,0,
,-0.59,-0.73,0.089,146.728,303.955,-219.91,0,0,0,
,-0.617,-0.629,0.072,249.633,415.771,-185.12,0,0,0,
,-0.613,-0.525,0.065,328.613,488.708,-185.608,0,0,0,
,-0.611,-0.502,0.097,420.654,542.968,-159.729,0,0,0,
,-0.566,-0.484,0.099,446.96,553.344,-144.715,0,0,0,
,-0.586,-0.48,0.111,461.486,523.071,-106.507,0,0,0,
,-0.549,-0.524,0.176,421.02,438.964,-55.97,0,0,0,
,-0.511,-0.557,0.294,307.861,349.609,-4.639,0,0,0,
,-0.459,-0.609,0.422,164.428,251.648,22.949,0,0,0,
,-0.387,-0.612,0.542,76.294,141.784,65.368,0,0,0,
,-0.35,-0.648,0.663,96.008,23.864,92.59,0,0,0,
,-0.244,-0.816,0.718,89.599,-109.07,129.272,0,0,0,
,-0.101,-0.892,0.787,47.424,-244.446,174.499,0,0,0,
,-0.053,-1.018,0.826,102.05,-354.371,194.03,0,0,0,
,-0.004,-1.171,0.76,96.862,-433.045,192.443,0,0,0,
,0.006,-1.251,0.696,70.8,-472.413,183.471,0,0,0,
,-0.009,-1.308,0.561,-10.315,-473.023,128.418,0,0,0,
,-0.06,-1.333,0.457,-114.747,-450.928,67.199,0,0,0,
,-0.135,-1.342,0.379,-204.346,-414.002,12.146,0,0,0,
,-0.208,-1.273,0.322,-254.517,-370.423,-17.579,0,0,0,
,-0.282,-1.192,0.242,-223.938,-318.055,-54.383,0,0,0,
,-0.344,-1.158,0.122,-234.192,-266.175,-98.267,0,0,0,
,-0.412,-1.101,0.053,-254.334,-202.82,-122.925,0,0,0,
,-0.487,-1.03,-0.012,-256.836,-111.634,-154.114,0,0,0,
,-0.549,-0.956,-0.052,-191.529,-14.466,-167.847,0,0,0,
,-0.625,-0.838,-0.066,-54.932,132.69,-175.415,0,0,0,
,-0.677,-0.76,-0.095,71.594,272.949,-172.73,0,0,0,
,-0.698,-0.61,-0.124,180.969,397.827,-150.269,0,0,0,
,-0.714,-0.501,-0.079,327.331,485.534,-142.945,0,0,0,
,-0.661,-0.544,-0.047,434.57,539.123,-104.737,0,0,0,
,-0.597,-0.579,0.046,393.554,537.414,-62.928,0,0,0,
,-0.437,-0.711,0.495,192.382,257.995,-14.344,0,0,0,
,-0.368,-0.723,0.588,82.458,125.732,28.869,0,0,0,
,-0.295,-0.73,0.636,33.447,-44.312,82.641,0,0,0,
,-0.232,-0.83,0.652,3.173,-188.416,111.633,0,0,0,
,-0.171,-0.933,0.651,-63.721,-324.463,135.131,0,0,0,
,-0.135,-0.98,0.59,-133.973,-427.247,147.338,0,0,0,
,-0.104,-1.04,0.531,-158.02,-485.535,147.033,0,0,0,
,-0.102,-1.151,0.455,-220.459,-510.132,129.699,0,0,0,
,-0.132,-1.19,0.421,-291.504,-495.484,112.732,0,0,0,
,-0.173,-1.23,0.344,-341.98,-440.918,66.833,0,0,0,
,-0.203,-1.235,0.295,-328.309,-386.597,27.404,0,0,0,
,-0.341,-1.129,0.09,-17.456,-16.846,-100.22,0,0,0,
,-0.411,-1.088,0.066,65.918,94.787,-155.579,0,0,0,
,-0.47,-1.042,0.063,109.008,186.584,-174.378,0,0,0,
,-0.523,-0.871,0.104,177.368,297.79,-150.94,0,0,0,
,-0.562,-0.743,0.089,286.56,375.366,-122.742,0,0,0,
,-0.553,-0.684,0.068,344.421,422.607,-80.384,0,0,0,
,-0.506,-0.712,0.083,217.041,286.56,-28.931,0,0,0,
,-0.484,-0.719,0.19,56.152,152.71,-12.757,0,0,0,
,-0.495,-0.676,0.313,-87.464,33.386,-8.973,0,0,0,
,-0.512,-0.695,0.418,-180.542,-78.003,11.535,0,0,0,
,-0.441,-0.64,0.413,-227.784,-157.776,44.494,0,0,0,
