TIMECODE,ACC_X,ACC_Y,ACC_Z,GYR_X,GYR_Y,GYR_Z,TAG
00:00:00:0,0.866,-0.374,0.296,25.94,25.817,-32.959,
00:00:00:16,0.869,-0.362,0.28,44.86,25.268,-28.016,
00:00:00:33,0.86,-0.356,0.277,64.575,26.55,-25.757,
00:00:00:50,0.863,-0.359,0.275,73.12,27.771,-27.894,
00:00:00:66,0.86,-0.366,0.278,63.72,29.48,-27.344,
00:00:00:83,0.86,-0.365,0.285,50.17,27.832,-26.673,
00:00:00:100,0.861,-0.366,0.284,26.062,26.245,-24.903,
00:00:00:116,0.868,-0.354,0.282,14.099,25.756,-18.372,
00:00:00:133,0.858,-0.368,0.303,3.418,26.428,-27.894,
00:00:00:150,0.859,-0.382,0.292,-20.813,32.714,-24.537,
00:00:00:166,0.86,-0.372,0.312,-30.396,30.151,-29.297,
00:00:00:183,0.853,-0.363,0.317,-17.701,35.583,-25.147,
00:00:00:200,0.863,-0.378,0.318,-28.809,39.672,-28.199,
00:00:00:216,0.865,-0.376,0.317,-46.753,39.917,-27.1,
00:00:00:233,0.869,-0.368,0.31,-61.28,42.663,-27.344,
00:00:00:250,0.87,-0.359,0.305,-64.148,43.64,-27.588,
00:00:00:266,0.874,-0.355,0.291,-65.125,44.189,-27.527,
00:00:00:283,0.876,-0.35,0.279,-61.646,42.907,-29.48,
00:00:00:300,0.879,-0.345,0.27,-51.941,42.053,-32.166,
00:00:00:316,0.88,-0.342,0.256,-38.147,42.846,-35.096,
00:00:00:333,0.884,-0.339,0.248,-25.086,35.705,-35.706,
00:00:00:350,0.881,-0.332,0.241,-1.77,32.898,-37.72,
00:00:00:366,0.882,-0.334,0.228,27.16,31.921,-39.307,
00:00:00:383,0.881,-0.338,0.224,58.044,29.357,-38.392,
00:00:00:400,0.882,-0.348,0.222,77.392,26.367,-36.866,
00:00:00:416,0.877,-0.361,0.234,86.059,19.47,-35.584,
00:00:00:433,0.874,-0.372,0.237,77.819,15.319,-32.654,
00:00:00:450,0.871,-0.381,0.255,60.119,15.197,-32.288,
00:00:00:466,0.865,-0.388,0.279,43.396,11.535,-30.64,
00:00:00:483,0.868,-0.385,0.285,12.39,11.474,-22.767,
00:00:00:500,0.863,-0.383,0.293,-6.226,14.526,-28.565,
00:00:00:516,0.866,-0.372,0.295,-3.602,18.188,-25.086,
00:00:00:533,0.869,-0.368,0.292,-3.296,17.761,-27.222,
00:00:00:550,0.868,-0.361,0.285,-7.691,21.423,-24.598,
00:00:00:566,0.871,-0.358,0.273,-16.236,26.55,-28.016,
00:00:00:583,0.878,-0.355,0.265,-18.921,30.334,-32.471,
00:00:00:600,0.876,-0.352,0.262,-14.771,31.066,-34.119,
00:00:00:616,0.881,-0.355,0.259,-13.001,36.926,-37.537,
00:00:00:633,0.875,-0.356,0.253,-10.01,40.344,-34.974,
00:00:00:650,0.887,-0.36,0.239,-20.203,32.898,-37.964,
00:00:00:666,0.893,-0.343,0.231,-13.428,31.189,-8.912,
00:00:00:683,0.884,-0.303,0.234,-2.076,23.01,-7.203,
00:00:00:700,0.886,-0.341,0.226,36.01,17.761,-24.17,
00:00:00:716,0.879,-0.339,0.215,56.091,16.967,-11.597,
00:00:00:733,0.871,-0.349,0.223,59.692,8.422,-16.358,
00:00:00:750,0.863,-0.351,0.236,61.035,3.234,-20.63,
00:00:00:766,0.861,-0.376,0.239,57.373,-8.789,-28.138,
00:00:00:783,0.86,-0.396,0.243,44.86,-6.226,-31.617,
00:00:00:800,0.854,-0.403,0.25,29.541,-12.879,-34.424,
00:00:00:816,0.855,-0.415,0.254,25.878,-14.039,-38.269,
00:00:00:833,0.854,-0.426,0.27,21.667,-8.545,-37.964,
00:00:00:850,0.859,-0.441,0.278,6.958,-7.508,-37.903,
00:00:00:866,0.865,-0.417,0.277,-22.644,-9.339,-20.264,
00:00:00:883,0.864,-0.385,0.281,-35.584,-9.705,-17.151,
00:00:00:900,0.87,-0.367,0.269,-23.682,-5.31,-15.381,
00:00:00:916,0.877,-0.363,0.263,-19.471,-5.921,-14.283,
00:00:00:933,0.882,-0.359,0.262,-28.504,-0.55,-16.663,
00:00:00:950,0.884,-0.35,0.26,-39.429,3.845,-17.518,
00:00:00:966,0.884,-0.347,0.253,-43.457,11.291,-17.884,
00:00:00:983,0.885,-0.347,0.249,-39.734,17.761,-17.762,
00:00:01:0,0.882,-0.348,0.246,-33.692,24.231,-19.165,
00:00:01:16,0.877,-0.354,0.25,-26.856,26.367,-21.119,
00:00:01:33,0.874,-0.361,0.245,-22.583,26.855,-24.048,
00:00:01:50,0.868,-0.365,0.245,-22.889,21.789,-23.987,
00:00:01:66,0.869,-0.365,0.244,-18.494,11.169,-24.476,
00:00:01:83,0.871,-0.368,0.246,-18.25,7.751,-24.72,
00:00:01:100,0.874,-0.371,0.247,-19.715,5.432,-21.241,
00:00:01:116,0.878,-0.371,0.254,-20.386,1.281,-21.79,
00:00:01:133,0.875,-0.366,0.253,-20.813,3.906,-20.752,
00:00:01:150,0.881,-0.363,0.253,-24.109,2.136,-21.302,
00:00:01:166,0.881,-0.353,0.254,-22.217,5.981,-17.823,
00:00:01:183,0.881,-0.35,0.258,-8.301,9.277,-17.884,
00:00:01:200,0.88,-0.353,0.25,3.845,9.033,-19.837,
00:00:01:216,0.88,-0.352,0.248,10.131,6.225,-18.494,
00:00:01:233,0.874,-0.345,0.246,17.395,7.263,-21.485,
00:00:01:250,0.876,-0.338,0.25,43.335,4.15,-19.471,
00:00:01:266,0.876,-0.341,0.219,77.941,5.615,-22.217,
00:00:01:283,0.879,-0.359,0.251,90.148,6.042,-23.377,
00:00:01:300,0.877,-0.379,0.252,78.308,5.188,-25.635,
00:00:01:316,0.874,-0.379,0.256,52.795,7.202,-20.081,
00:00:01:333,0.876,-0.387,0.254,15.014,11.901,-22.828,
00:00:01:350,0.876,-0.386,0.252,-29.358,15.747,-20.691,
00:00:01:366,0.877,-0.362,0.252,-46.326,14.099,-18.311,
00:00:01:383,0.879,-0.35,0.259,-37.781,12.329,-22.278,
00:00:01:400,0.877,-0.348,0.249,-23.987,12.512,-22.156,
00:00:01:416,0.878,-0.348,0.25,-15.931,11.108,-24.231,
00:00:01:433,0.879,-0.349,0.242,-15.442,7.934,-27.161,
00:00:01:450,0.884,-0.354,0.238,-15.931,8.544,-29.114,
00:00:01:466,0.881,-0.351,0.233,-12.207,7.019,-28.992,
00:00:01:483,0.882,-0.355,0.232,-10.865,7.141,-29.358,
00:00:01:500,0.881,-0.351,0.229,-6.958,3.784,-31.373,
00:00:01:516,0.879,-0.353,0.231,-4.578,4.089,-30.152,
00:00:01:533,0.876,-0.358,0.237,-3.113,3.784,-32.41,
00:00:01:550,0.878,-0.359,0.244,-0.855,0.549,-32.654,
00:00:01:566,0.875,-0.361,0.248,0.976,-2.137,-32.471,
00:00:01:583,0.877,-0.364,0.251,4.272,-0.184,-33.448,
00:00:01:600,0.871,-0.362,0.252,6.103,-3.113,-32.715,
00:00:01:616,0.874,-0.362,0.249,12.756,-4.029,-32.227,
00:00:01:633,0.876,-0.363,0.249,10.131,-3.235,-31.495,
00:00:01:650,0.876,-0.365,0.254,6.53,-2.198,-32.654,
00:00:01:666,0.878,-0.363,0.255,-1.16,-0.794,-32.471,
00:00:01:683,0.876,-0.36,0.255,-2.442,3.356,-32.227,
00:00:01:700,0.877,-0.359,0.251,-1.038,3.356,-30.579,
00:00:01:716,0.877,-0.364,0.254,-2.93,5.432,-30.64,
00:00:01:733,0.874,-0.367,0.254,-9.034,7.385,-32.41,
00:00:01:750,0.874,-0.365,0.257,-19.349,7.446,-32.288,
00:00:01:766,0.872,-0.358,0.252,-20.569,9.399,-31.678,
00:00:01:783,0.877,-0.356,0.248,-18.433,5.065,-33.753,
00:00:01:800,0.875,-0.362,0.249,-15.381,5.554,-33.692,
00:00:01:816,0.877,-0.366,0.244,-11.719,6.774,-33.081,
00:00:01:833,0.88,-0.37,0.244,-15.32,5.249,-31.983,
00:00:01:850,0.88,-0.369,0.246,-16.358,10.62,-31.556,
00:00:01:866,0.877,-0.367,0.246,-14.466,10.498,-28.992,
00:00:01:883,0.877,-0.364,0.25,-10.865,8.117,-28.687,
00:00:01:900,0.876,-0.365,0.248,-6.653,10.437,-28.687,
00:00:01:916,0.877,-0.362,0.25,-7.752,11.169,-28.931,
00:00:01:933,0.878,-0.36,0.25,-7.691,9.582,-28.748,
00:00:01:950,0.877,-0.361,0.253,-11.658,12.756,-31.8,
00:00:01:966,0.875,-0.361,0.25,-9.888,12.451,-31.434,
00:00:01:983,0.873,-0.36,0.252,-13.245,15.136,-32.532,
00:00:02:0,0.872,-0.362,0.249,-17.09,12.634,-33.57,
00:00:02:16,0.876,-0.363,0.25,-17.212,13.61,-33.143,
00:00:02:33,0.875,-0.364,0.247,-17.456,13.122,-34.424,
00:00:02:50,0.876,-0.366,0.246,-17.151,12.939,-34.668,
00:00:02:66,0.874,-0.365,0.249,-20.752,11.779,-34.546,
00:00:02:83,0.876,-0.364,0.248,-23.438,11.84,-34.241,
00:00:02:100,0.874,-0.364,0.248,-23.072,9.765,-33.997,
00:00:02:116,0.878,-0.365,0.248,-19.349,11.047,-33.997,
00:00:02:133,0.875,-0.364,0.246,-21.18,9.582,-34.546,
00:00:02:150,0.876,-0.365,0.249,-16.785,6.897,-33.875,
00:00:02:166,0.875,-0.367,0.246,-16.48,9.887,-35.584,
00:00:02:183,0.876,-0.363,0.243,-16.236,4.333,-35.279,
00:00:02:200,0.876,-0.365,0.244,-15.137,6.469,-34.058,
00:00:02:216,0.876,-0.362,0.241,-14.771,0.732,-34.485,
00:00:02:233,0.878,-0.36,0.247,-12.085,1.159,-34.424,
00:00:02:250,0.875,-0.364,0.248,-10.926,-13.855,-33.509,
00:00:02:266,0.873,-0.367,0.245,-9.095,-2.381,-34.852,
00:00:02:283,0.875,-0.366,0.246,-10.865,-1.954,-35.096,
00:00:02:300,0.873,-0.369,0.25,-9.705,-4.212,-36.133,
00:00:02:316,0.875,-0.367,0.242,-11.658,-2.442,-36.316,
00:00:02:333,0.877,-0.367,0.25,-12.146,-4.334,-35.218,
00:00:02:350,0.877,-0.366,0.252,-12.757,-3.846,-33.936,
00:00:02:366,0.874,-0.363,0.256,-10.193,0.671,-35.828,
00:00:02:383,0.873,-0.365,0.253,-8.057,-4.822,-34.485,
00:00:02:400,0.874,-0.367,0.256,-9.034,-3.785,-36.377,
00:00:02:416,0.867,-0.371,0.26,-11.536,-2.625,-36.927,
00:00:02:433,0.871,-0.37,0.265,-17.518,-3.785,-37.049,
00:00:02:450,0.87,-0.367,0.26,-17.518,-4.517,-37.476,
00:00:02:466,0.869,-0.366,0.253,-19.898,-7.508,-38.025,
00:00:02:483,0.87,-0.364,0.251,-20.447,-6.348,-38.453,
00:00:02:500,0.869,-0.368,0.254,-18.921,-6.043,-41.871,
00:00:02:516,0.874,-0.371,0.263,-23.56,-8.423,-40.345,
00:00:02:533,0.872,-0.374,0.269,-26.368,-3.602,-37.232,
00:00:02:550,0.87,-0.384,0.311,-5.066,7.69,-43.091,
00:00:02:566,0.879,-0.377,0.474,123.413,25.39,-71.351,
00:00:02:583,0.929,-0.376,0.864,560.974,75.317,-106.751,
00:00:02:600,1.041,-0.55,1.383,1349.792,223.755,-132.508,
00:00:02:616,1.215,-0.663,1.558,1999.694,456.604,-189.82,
00:00:02:633,1.709,-0.37,0.887,1999.694,233.581,-411.56,
00:00:02:650,2.283,-1.714,0.173,1997.253,-781.311,-1899.109,
00:00:02:666,2.395,-3.683,0.666,1376.342,-1670.105,-2000,
00:00:02:683,2.319,-2.942,0.93,645.385,-1992.737,-2000,
00:00:02:700,2.321,-2.301,0.761,823.913,-2000,-2000,
00:00:02:716,1.984,-2.636,0.641,1120.056,-2000,-2000,
00:00:02:733,1.958,-2.657,0.446,793.029,-1992.371,-2000,
00:00:02:750,2.145,-2.15,0.2,39.062,-1915.772,-2000,
00:00:02:766,2.443,-1.447,-0.072,-526.795,-1799.805,-2000,
00:00:02:783,2.734,-0.793,-0.32,-1102.662,-1762.146,-2000,
00:00:02:800,3.094,-0.268,-0.722,-1597.168,-1839.112,-2000,
00:00:02:816,3.407,0.36,-1.348,-1788.514,-1918.458,-2000,
00:00:02:833,3.004,0.898,-1.906,-1510.926,-1930.42,-2000,
00:00:02:850,1.911,1.595,-2.26,-1396.851,-1738.16,-2000,
00:00:02:866,0.705,3.707,-1.99,-1827.576,-1077.454,-2000,
00:00:02:883,-0.448,3.999,-2.351,-1984.742,123.718,-1674.317,
00:00:02:900,0.234,3.481,-2.422,-1837.281,1302.429,1017.578,
00:00:02:916,0.351,3.166,-1.399,-345.765,1999.694,1999.694,
00:00:02:933,0.826,2.524,-0.903,1667.419,1999.694,1999.694,
00:00:02:950,1.325,2.42,-0.766,1999.694,1999.694,1999.694,
00:00:02:966,1.958,1.76,-1.11,1999.694,1999.694,1999.694,
00:00:02:983,2.752,0.481,-1.601,1999.694,1999.694,1999.694,
00:00:03:0,3.408,-1.623,-1.092,250.549,1999.694,1999.694,
00:00:03:16,3.999,-3.258,0.03,-1536.927,1999.694,1999.694,
00:00:03:33,3.651,-2.118,0.455,-2000,1999.694,1999.694,
00:00:03:50,3.512,-1.518,1.151,-2000,1999.694,1999.694,
00:00:03:66,3.124,-1.377,1.731,-1223.877,1999.694,1481.872,
00:00:03:83,2.989,-1.457,1.363,17.944,1741.638,1104.919,
00:00:03:100,2.186,-1.829,1.237,141.54,1175.659,730.957,
00:00:03:116,1.688,-1.68,1.152,-485.962,751.403,570.8,
00:00:03:133,1.915,-1.347,1.316,-1095.52,5.554,58.105,
00:00:03:150,1.064,-1.015,1.556,-1032.41,-108.948,-52.918,
00:00:03:166,0.572,-0.48,1.391,-385.376,89.843,-40.65,
00:00:03:183,0.194,-0.164,1.324,302.49,100.891,82.946,
00:00:03:200,0.669,-0.234,1.174,411.56,59.387,13,
00:00:03:216,0.6,-0.246,0.919,132.263,10.253,-82.215,
00:00:03:233,0.665,-0.204,0.7,-102.723,-55.176,-22.4,
00:00:03:250,0.689,-0.203,0.515,-188.599,-77.881,38.147,
00:00:03:266,0.759,-0.278,0.366,-154.908,-47.73,6.591,
00:00:03:283,0.805,-0.352,0.265,-17.212,9.033,-6.165,
00:00:03:300,0.863,-0.398,0.213,86.364,58.349,-10.743,
00:00:03:316,0.909,-0.411,0.207,167.419,108.032,-0.794,
00:00:03:333,0.977,-0.458,0.247,201.782,69.702,24.597,
00:00:03:350,0.965,-0.43,0.299,19.47,26.977,39.062,
00:00:03:366,0.966,-0.378,0.295,-102.967,19.104,36.377,
00:00:03:383,0.924,-0.306,0.289,-153.382,23.62,27.099,
00:00:03:400,0.913,-0.247,0.269,-166.199,33.203,3.845,
00:00:03:416,0.894,-0.21,0.286,-168.091,41.992,-8.545,
00:00:03:433,0.879,-0.179,0.312,-157.593,46.386,-24.72,
00:00:03:450,0.881,-0.19,0.349,-110.596,44.555,-25.452,
00:00:03:466,0.866,-0.188,0.393,-3.052,45.349,-14.283,
00:00:03:483,0.867,-0.255,0.4,104.187,48.645,-28.687,
00:00:03:500,0.88,-0.336,0.383,152.221,51.696,-36.072,
00:00:03:516,0.885,-0.361,0.38,152.343,49.804,-30.274,
00:00:03:533,0.878,-0.37,0.382,147.338,56.213,-26.673,
00:00:03:550,0.881,-0.379,0.391,167.297,68.969,-26.551,
00:00:03:566,0.89,-0.397,0.389,200.256,80.261,-22.706,
00:00:03:583,0.891,-0.404,0.385,229.248,94.36,-18.921,
00:00:03:600,0.897,-0.405,0.385,243.835,110.595,-16.846,
00:00:03:616,0.901,-0.391,0.38,246.521,114.563,-17.945,
00:00:03:633,0.879,-0.377,0.356,235.168,131.347,-23.072,
00:00:03:650,0.867,-0.349,0.318,228.698,148.498,-19.776,
00:00:03:666,0.865,-0.307,0.286,221.557,148.315,-25.818,
00:00:03:683,0.861,-0.282,0.258,233.642,142.883,-57.923,
00:00:03:700,0.85,-0.298,0.247,278.625,139.038,-125.977,
00:00:03:716,0.857,-0.389,0.242,341.674,135.192,-186.707,
00:00:03:733,0.859,-0.443,0.231,364.441,127.868,-196.534,
00:00:03:750,0.874,-0.488,0.234,482.605,92.285,-168.091,
00:00:03:766,0.875,-0.529,0.219,423.034,79.406,-154.053,
00:00:03:783,0.86,-0.545,0.183,310.18,63.659,-138.916,
00:00:03:800,0.847,-0.523,0.139,178.222,35.583,-134.156,
00:00:03:816,0.816,-0.486,0.118,-13.855,-52.43,-231.324,
00:00:03:833,0.818,-0.506,0.146,23.132,-66.407,-262.574,
00:00:03:850,0.815,-0.528,0.165,68.115,-59.449,-285.584,
00:00:03:866,0.814,-0.549,0.177,120.788,-46.509,-315.552,
00:00:03:883,0.81,-0.56,0.17,142.456,-32.288,-347.046,
00:00:03:900,0.805,-0.58,0.165,139.709,-19.654,-390.259,
00:00:03:916,0.808,-0.599,0.167,139.099,-12.207,-419.007,
00:00:03:933,0.818,-0.599,0.173,150.756,-7.447,-436.89,
00:00:03:950,0.821,-0.6,0.168,182.678,-8.912,-449.28,
00:00:03:966,0.83,-0.634,0.151,172.485,-24.231,-470.398,
00:00:03:983,0.826,-0.663,0.136,110.046,-43.702,-500.245,
00:00:04:0,0.828,-0.677,0.123,29.235,-77.271,-516.968,
00:00:04:16,0.829,-0.664,0.103,-47.547,-138.855,-528.504,
00:00:04:33,0.807,-0.665,0.088,-125.428,-180.542,-553.589,
00:00:04:50,0.782,-0.668,0.115,-180.848,-225.403,-573.487,
00:00:04:66,0.754,-0.671,0.166,-295.289,-257.019,-575.013,
00:00:04:83,0.732,-0.686,0.23,-458.252,-276.368,-564.148,
00:00:04:100,0.71,-0.702,0.272,-613.831,-282.166,-531.617,
00:00:04:116,0.679,-0.676,0.292,-749.573,-264.71,-487.366,
00:00:04:133,0.657,-0.608,0.368,-777.955,-250.123,-450.44,
00:00:04:150,0.608,-0.565,0.487,-868.714,-196.961,-326.539,
00:00:04:166,0.617,-0.609,0.391,-1038.025,-138.855,-243.226,
00:00:04:183,0.635,-0.621,0.336,-1284.913,-152.527,-195.679,rollLH
00:00:04:200,0.635,-0.51,0.332,-1505.494,-193.299,-132.019,
00:00:04:216,0.64,-0.425,0.406,-1614.197,-278.443,-98.877,
00:00:04:233,0.602,-0.326,0.498,-1589.966,-336.548,-42.42,
00:00:04:250,0.549,-0.245,0.599,-1383.851,-317.078,32.287,
00:00:04:266,0.492,-0.26,0.68,-1180.726,-276.123,96.984,
00:00:04:283,0.49,-0.245,0.671,-1038.636,-176.575,157.837,
00:00:04:300,0.499,-0.185,0.641,-885.987,-81.665,231.75,
00:00:04:316,0.532,-0.167,0.617,-755.555,-20.447,276.55,
00:00:04:333,0.551,-0.135,0.638,-610.901,22.338,306.518,
00:00:04:350,0.57,-0.141,0.613,-511.841,67.382,322.57,
00:00:04:366,0.688,-0.1,0.707,-366.761,35.217,311.34,
00:00:04:383,0.616,-0.161,0.707,-232.544,83.74,326.721,
00:00:04:400,0.686,-0.131,0.72,-138.55,102.05,298.156,
00:00:04:416,0.7,-0.08,0.718,-20.447,99.487,230.468,
00:00:04:433,0.698,-0.209,0.689,104.797,142.395,151.916,
00:00:04:450,0.731,-0.374,0.678,122.131,144.226,106.262,
00:00:04:466,0.709,-0.473,0.654,33.02,162.963,104.309,
00:00:04:483,0.743,-0.412,0.655,-63.294,157.592,113.281,
00:00:04:500,0.682,-0.36,0.702,-65.003,214.599,136.413,
00:00:04:516,0.547,-0.379,0.769,-67.2,433.532,133.239,
00:00:04:533,0.687,-0.244,0.476,-309.693,624.755,82.031,
00:00:04:550,0.9,-0.195,0.352,-264.649,465.271,-61.585,
00:00:04:566,0.907,-0.493,0.362,-4.456,345.276,-102.173,
00:00:04:583,0.93,-0.542,0.579,-111.878,176.941,-77.942,
00:00:04:600,0.775,-0.315,0.78,-243.164,93.994,-78.98,
00:00:04:616,0.744,-0.297,0.859,-165.833,65.795,-123.597,
00:00:04:633,0.725,-0.304,0.794,-147.217,95.398,-107.789,
00:00:04:650,0.647,-0.249,0.627,-156.067,119.69,-147.034,
00:00:04:666,0.673,-0.291,0.572,-55.848,117.797,-193.238,
00:00:04:683,0.654,-0.38,0.6,-27.161,79.467,-201.6,
00:00:04:700,0.628,-0.371,0.615,-67.444,25.817,-189.148,
00:00:04:716,0.561,-0.212,0.613,-44.983,-5.616,-173.401,
00:00:04:733,0.45,-0.302,0.81,121.643,70.129,-213.685,
00:00:04:750,0.531,-0.307,0.629,34.851,99.609,-217.774,
00:00:04:766,0.461,-0.243,0.655,-78.309,79.162,-133.912,
00:00:04:783,0.423,-0.199,0.641,-37.476,75.439,-119.996,
00:00:04:800,0.429,-0.208,0.658,20.202,82.153,-70.801,
00:00:04:816,0.406,-0.179,0.666,35.095,121.032,20.08,
00:00:04:833,0.379,-0.143,0.675,95.703,197.204,62.255,
00:00:04:850,0.708,-0.158,0.77,142.822,80.261,81.298,
00:00:04:866,1.095,-0.484,0.833,132.507,-183.777,-38.208,
00:00:04:883,0.664,-0.587,1.214,222.839,-300.171,-22.217,
00:00:04:900,0.409,-0.329,1.176,210.693,-144.165,110.107,
00:00:04:916,0.466,-0.038,0.84,333.679,6.347,158.569,
00:00:04:933,0.644,-0.125,0.803,410.705,41.687,173.645,
00:00:04:950,0.829,-0.292,0.708,287.597,15.441,137.573,
00:00:04:966,0.803,-0.352,0.817,140.197,-15.625,102.661,
00:00:04:983,0.764,-0.31,0.844,65.979,30.517,72.265,
00:00:05:0,0.74,-0.265,0.862,56.152,90.332,65.551,
00:00:05:16,0.717,-0.318,0.845,41.198,125.244,50.964,
00:00:05:33,0.69,-0.322,0.799,4.821,155.029,85.693,
00:00:05:50,0.713,-0.315,0.667,33.142,209.228,112.121,
00:00:05:66,0.817,-0.406,0.448,121.521,278.015,145.935,
00:00:05:83,1.007,-0.444,0.137,133.606,311.279,148.62,
00:00:05:100,1.158,-0.452,-0.055,-2.686,261.169,131.042,
00:00:05:116,1.26,-0.361,-0.017,-100.953,192.627,75.561,
00:00:05:133,1.292,-0.296,0.06,-49.378,111.633,1.159,
00:00:05:150,1.233,-0.341,0.122,-36.438,12.512,-53.589,
00:00:05:166,1.151,-0.431,0.216,-57.984,-91.492,-103.577,
00:00:05:183,1.123,-0.247,0.247,-129.273,-204.163,-106.202,
00:00:05:200,1.006,-0.237,0.352,-70.069,-256.348,-172.73,
00:00:05:216,0.908,-0.254,0.385,-36.622,-259.766,-209.351,
00:00:05:233,0.827,-0.215,0.352,-59.449,-239.136,-191.712,
00:00:05:250,0.706,-0.237,0.373,-69.886,-178.711,-207.337,
00:00:05:266,0.6,-0.344,0.384,-60.242,-92.835,-202.759,
00:00:05:283,0.554,-0.298,0.416,-57.618,-0.367,-175.232,
00:00:05:300,0.507,-0.315,0.578,10.864,94.421,-145.325,
00:00:05:316,0.549,-0.366,0.647,37.78,103.637,-116.761,
00:00:05:333,0.522,-0.329,0.876,-47.852,-18.799,-51.88,
00:00:05:350,0.259,-0.279,1.276,-24.17,-55.42,22.583,
00:00:05:366,0.185,-0.132,1.244,17.822,-24.964,98.022,
00:00:05:383,0.176,-0.088,1.246,105.407,-8.484,142.028,
00:00:05:400,0.213,-0.116,1.13,137.634,-21.058,161.193,
00:00:05:416,0.386,-0.118,1.006,112.793,-38.208,144.653,
00:00:05:433,0.511,-0.196,0.961,74.157,-69.703,106.567,
00:00:05:450,0.683,-0.141,0.85,35.949,-90.821,78.796,
00:00:05:466,0.731,-0.17,0.753,79.711,-87.769,48.461,
00:00:05:483,0.849,-0.179,0.606,145.263,-42.908,37.231,
00:00:05:500,0.994,-0.359,0.433,208.557,4.577,9.216,
00:00:05:516,1.182,-0.498,0.329,169.738,58.166,-10.682,
00:00:05:533,1.328,-0.508,0.197,73.913,133.3,-24.781,
00:00:05:550,1.306,-0.509,0.128,115.966,185.485,-51.331,
00:00:05:566,1.166,-0.444,0.009,183.227,224.914,-92.286,
00:00:05:583,0.983,-0.282,0.03,137.695,230.529,-106.995,
00:00:05:600,0.841,-0.168,0.096,93.078,226.318,-142.456,
00:00:05:616,0.759,-0.257,0.373,43.09,146.606,-154.969,
00:00:05:633,0.463,-0.503,0.834,-41.871,112.548,-137.879,
00:00:05:650,0.175,-0.428,1.242,-71.045,145.141,-17.09,
00:00:05:666,0.139,-0.164,1.333,-62.012,115.539,79.406,
00:00:05:683,0.212,-0.143,1.437,58.837,20.385,130.798,
00:00:05:700,0.437,-0.176,1.141,91.735,-43.702,150.268,
00:00:05:716,0.385,-0.276,0.939,8.178,-68.848,118.896,
00:00:05:733,0.658,-0.201,0.768,-33.997,-99.976,90.515,
00:00:05:750,0.778,-0.273,0.604,-5.249,-152.283,90.82,
00:00:05:766,0.944,-0.327,0.464,74.096,-181.946,104.675,
00:00:05:783,1.032,-0.321,0.259,86.303,-143.433,89.599,
00:00:05:800,1.173,-0.32,0.198,70.373,-32.166,27.099,
00:00:05:816,1.172,-0.309,0.096,41.381,53.161,-49.622,
00:00:05:833,1.206,-0.419,0.082,40.588,62.866,-106.629,
00:00:05:850,1.088,-0.473,0.076,46.447,91.003,-97.657,
00:00:05:866,1.04,-0.429,0.044,77.087,135.498,-89.722,
00:00:05:883,1.087,-0.389,0.149,46.081,167.907,-126.831,
00:00:05:900,1.063,-0.243,0.161,40.832,153.32,-163.453,
00:00:05:916,0.771,-0.263,0.391,-65.064,54.87,-207.825,
00:00:05:933,0.364,-0.413,0.934,-72.266,60.424,-187.5,
00:00:05:950,0.215,-0.225,1.131,-113.16,118.957,-98.938,
00:00:05:966,0.141,-0.137,1.283,-52.613,131.958,1.77,
00:00:05:983,0.159,-0.143,1.342,57.861,59.814,49.865,
00:00:06:0,0.348,-0.173,1.142,42.114,-41.565,81.726,
00:00:06:16,0.327,-0.251,0.899,-5.799,-83.619,69.091,
00:00:06:33,0.467,-0.235,0.812,-27.039,-131.409,47.912,
00:00:06:50,0.526,-0.353,0.832,38.086,-190.247,62.805,
00:00:06:66,0.799,-0.292,0.714,72.692,-271.424,108.886,
00:00:06:83,1.03,-0.3,0.4,8.056,-306.458,121.643,
00:00:06:100,1.121,-0.336,0.233,57.251,-217.408,86.608,
00:00:06:116,1.156,-0.389,0.263,41.198,-72.815,28.625,
00:00:06:133,1.296,-0.35,-0.051,86.975,87.402,5.737,
00:00:06:150,1.375,-0.525,-0.261,109.741,153.442,-75.745,
00:00:06:166,1.331,-0.443,-0.229,-20.935,210.998,-111.573,
00:00:06:183,1.249,-0.348,-0.026,-59.998,217.285,-176.941,
00:00:06:200,1.167,-0.367,0.117,-74.952,264.099,-234.131,
00:00:06:216,1.02,-0.19,0.115,-148.316,220.642,-246.766,
00:00:06:233,0.625,-0.331,0.775,-179.871,145.568,-304.078,
00:00:06:250,-0.105,-0.381,1.383,-207.947,198.913,-195.557,
00:00:06:266,-0.034,-0.044,1.436,-182.435,215.393,-56.519,
00:00:06:283,0.006,-0.043,1.516,102.478,187.378,44.86,
00:00:06:300,0.19,-0.161,1.273,281.067,120.849,91.186,
00:00:06:316,0.352,-0.358,1.134,171.02,-37.72,78.735,
00:00:06:333,0.511,-0.311,0.888,18.371,-150.574,69.213,
00:00:06:350,0.597,-0.287,0.765,102.05,-220.032,112.793,
00:00:06:366,0.726,-0.307,0.727,174.987,-288.331,151.428,
00:00:06:383,0.941,-0.332,0.617,125,-368.47,172.302,
00:00:06:400,1.129,-0.338,0.253,-3.113,-294.434,149.475,
00:00:06:416,1.361,-0.34,-0.12,72.876,-112.854,66.284,
00:00:06:433,1.293,-0.42,-0.265,95.764,77.941,-27.039,
00:00:06:450,1.405,-0.443,-0.352,-1.893,189.758,-110.779,
00:00:06:466,1.284,-0.422,-0.198,-132.996,281.067,-178.406,
00:00:06:483,1.26,-0.347,0.022,-125.367,277.588,-243.164,
00:00:06:500,1.12,-0.396,0.223,-146.241,286.499,-287.537,
00:00:06:516,0.853,-0.167,0.061,-244.629,317.627,-254.639,
00:00:06:533,0.608,-0.229,0.632,-240.052,280.395,-304.566,
00:00:06:550,0.274,-0.436,1.469,-208.13,209.838,-307.74,
00:00:06:566,-0.175,-0.338,1.742,-278.26,151.367,-100.159,
00:00:06:583,0.019,-0.029,1.741,-185.12,74.89,43.579,
00:00:06:600,0.29,-0.108,1.387,100.708,10.925,115.6,
00:00:06:616,0.472,-0.298,0.898,70.983,-107.239,109.558,
00:00:06:633,0.589,-0.378,0.778,-49.439,-234.742,55.114,
00:00:06:650,0.599,-0.396,0.819,24.353,-336.914,96.313,
00:00:06:666,0.798,-0.376,0.835,129.028,-449.769,181.03,
00:00:06:683,0.951,-0.357,0.294,147.583,-418.213,235.351,
00:00:06:700,1.524,-0.35,-0.211,104.98,-294.922,183.288,
00:00:06:716,1.439,-0.457,-0.215,126.159,-89.905,50.415,
00:00:06:733,1.375,-0.345,-0.642,30.212,148.315,-44.312,
00:00:06:750,1.409,-0.333,-0.558,-64.515,213.989,-154.48,
00:00:06:766,1.203,-0.224,-0.312,-88.135,332.763,-228.943,
00:00:06:783,1.327,-0.358,0.01,-37.049,347.656,-299.805,
00:00:06:800,0.933,-0.455,0.264,-26.795,402.465,-316.895,
00:00:06:816,0.694,-0.275,0.173,-104.493,456.482,-310.486,
00:00:06:833,0.725,-0.412,1.138,-85.45,239.318,-340.638,
00:00:06:850,-0.212,-0.636,2.101,-137.33,84.899,-179.871,
00:00:06:866,-0.191,-0.008,1.792,-265.015,-71.839,60.73,
00:00:06:883,0.209,-0.074,1.249,288.025,-103.699,109.497,
00:00:06:900,0.546,-0.231,0.876,123.962,-188.66,39.672,
00:00:06:916,0.578,-0.368,0.781,70.739,-223.023,1.77,
00:00:06:933,0.639,-0.337,0.808,162.841,-292.786,59.57,
00:00:06:950,0.764,-0.369,0.747,195.617,-375.794,151.184,
00:00:06:966,0.906,-0.315,0.401,131.042,-351.38,167.724,
00:00:06:983,1.516,-0.351,-0.055,85.022,-170.472,117.981,
00:00:07:0,1.357,-0.392,-0.193,104.248,20.935,-31.373,
00:00:07:16,1.217,-0.407,-0.427,-14.466,196.472,-142.762,
00:00:07:33,1.323,-0.443,-0.375,-90.149,234.68,-241.272,
00:00:07:50,1.163,-0.434,-0.167,-133.606,265.442,-302.002,
00:00:07:66,1.138,-0.493,0.072,-124.939,255.798,-324.952,
00:00:07:83,1.095,-0.557,0.308,-79.834,246.032,-319.581,
00:00:07:100,0.696,-0.452,0.247,-150.391,329.712,-288.819,
00:00:07:116,0.613,-0.174,0.482,-155.091,311.584,-275.513,
00:00:07:133,0.415,-0.248,0.952,-118.775,217.102,-282.471,
00:00:07:150,0.188,-0.431,1.564,-67.81,66.406,-194.703,
00:00:07:166,-0.013,-0.353,1.659,-48.279,-10.071,1.586,
00:00:07:183,0.287,-0.071,1.181,66.04,-40.528,56.091,
00:00:07:200,0.44,-0.183,0.867,198.364,-82.581,44.311,
00:00:07:216,0.483,-0.3,0.729,209.167,-166.932,2.441,
00:00:07:233,0.571,-0.37,0.857,132.446,-273.194,34.545,
00:00:07:250,0.644,-0.374,1.01,116.333,-375.55,96.496,
00:00:07:266,0.578,-0.412,0.895,173.034,-396.851,183.838,
00:00:07:283,0.931,-0.35,0.504,171.447,-391.175,198.242,
00:00:07:300,1.226,-0.501,0.184,287.719,-266.114,169.189,
00:00:07:316,1.015,-0.627,0.208,258.117,-207.337,120.666,
00:00:07:333,1.057,-0.606,0.049,148.071,-83.863,145.996,
00:00:07:350,1.328,-0.569,-0.168,79.528,-1.038,152.465,
00:00:07:366,1.506,-0.561,-0.205,24.78,12.756,48.095,
00:00:07:383,1.59,-0.594,-0.064,38.94,-57.618,-81.36,
00:00:07:400,1.447,-0.571,-0.072,30.09,-49.317,-101.685,
00:00:07:416,1.428,-0.619,-0.151,86.059,-17.456,-118.164,
00:00:07:433,1.205,-0.711,-0.186,152.526,22.827,-160.462,
00:00:07:450,1.091,-0.704,-0.2,260.803,100.097,-208.252,
00:00:07:466,0.972,-0.739,-0.114,501.342,111.45,-303.162,
00:00:07:483,0.929,-0.828,0.082,751.281,58.41,-377.198,
00:00:07:500,0.63,-0.855,0.321,778.686,-31.495,-398.072,
00:00:07:516,0.399,-0.802,0.544,763.427,-96.924,-366.272,
00:00:07:533,0.259,-0.692,0.596,782.837,-173.035,-304.627,
00:00:07:550,0.146,-0.635,0.616,783.142,-222.657,-240.723,
00:00:07:566,0.071,-0.591,0.593,763.977,-307.557,-187.256,
00:00:07:583,-0.03,-0.606,0.613,751.22,-379.578,-99.06,
00:00:07:600,-0.075,-0.578,0.723,697.326,-447.083,-16.053,
00:00:07:616,-0.041,-0.554,0.7,643.798,-483.277,-0.184,
00:00:07:633,0.006,-0.47,0.727,677.673,-454.59,63.354,
00:00:07:650,0.13,-0.62,0.621,734.069,-491.761,71.167,
00:00:07:666,0.259,-0.489,0.548,696.35,-478.089,118.713,
00:00:07:683,0.283,-0.59,0.545,538.879,-454.773,112.182,
00:00:07:700,0.399,-0.688,0.561,425.598,-430.909,95.398,
00:00:07:716,0.509,-0.685,0.66,355.713,-437.195,126.77,
00:00:07:733,0.608,-0.626,0.671,253.479,-422.547,110.901,
00:00:07:750,0.654,-0.562,0.625,229.98,-397.583,150.695,
00:00:07:766,0.652,-0.549,0.553,223.571,-366.944,180.297,
00:00:07:783,0.673,-0.493,0.596,150.573,-343.873,208.313,
00:00:07:800,0.597,-0.414,0.552,95.092,-295.227,242.797,
00:00:07:816,0.593,-0.35,0.52,49.133,-246.094,291.687,
00:00:07:833,0.87,-0.415,0.44,-18.311,-288.025,315.063,
00:00:07:850,1.36,-0.828,0.845,-382.691,-472.901,240.173,
00:00:07:866,1.046,-0.873,0.814,-401.551,-259.095,126.159,
00:00:07:883,0.649,-0.572,1.106,-160.279,-176.575,159.912,
00:00:07:900,0.562,-0.464,1.11,-39.368,-162.171,120.971,
00:00:07:916,0.475,-0.363,0.96,-29.114,-218.811,189.941,
00:00:07:933,0.588,-0.396,0.7,-209.046,-326.722,224.914,
00:00:07:950,0.517,-0.227,0.655,-326.111,-391.602,263.61,
00:00:07:966,0.53,-0.237,0.688,-388.306,-391.297,247.314,
00:00:07:983,0.522,-0.459,0.778,-291.565,-333.13,214.66,
00:00:08:0,0.513,-0.48,0.752,-161.866,-254.578,174.865,
00:00:08:16,0.579,-0.435,0.678,2.38,-226.319,171.875,
00:00:08:33,0.597,-0.347,0.732,-3.357,-259.339,210.266,
00:00:08:50,0.592,-0.262,0.854,-23.255,-296.998,258.545,
00:00:08:66,0.512,-0.224,0.907,-20.813,-301.575,304.687,
00:00:08:83,0.496,-0.329,0.935,-16.419,-291.565,327.026,
00:00:08:100,0.463,-0.396,0.916,-14.893,-247.742,339.05,
00:00:08:116,0.594,-0.431,0.673,-33.57,-191.529,318.542,
00:00:08:133,0.977,-0.811,0.721,45.41,-282.166,249.328,
00:00:08:150,0.888,-0.927,0.351,30.151,-65.308,103.027,
00:00:08:166,0.982,-0.764,0.096,84.045,75.5,32.409,
00:00:08:183,0.946,-0.769,0.075,141.174,166.931,-59.266,rollLH
00:00:08:200,0.962,-0.969,-0.003,200.256,210.266,-111.695,
00:00:08:216,0.905,-1.066,0.055,67.077,190.185,-120.118,
00:00:08:233,0.81,-0.889,0.193,6.591,210.754,-143.616,
00:00:08:250,0.813,-0.868,0.321,111.389,198.791,-176.514,
00:00:08:266,0.76,-0.789,0.368,91.735,180.053,-217.652,
00:00:08:283,0.694,-0.677,0.336,153.381,233.032,-246.338,
00:00:08:300,0.646,-0.602,0.338,174.987,203.918,-267.456,
00:00:08:316,0.589,-0.5,0.447,97.778,185.18,-267.579,
00:00:08:333,0.517,-0.5,0.539,50.231,147.644,-257.996,
00:00:08:350,0.392,-0.407,0.634,-28.565,138.244,-206.788,
00:00:08:366,0.437,-0.393,0.69,-49.012,160.827,-187.134,
00:00:08:383,0.45,-0.331,0.768,-32.166,168.701,-141.358,
00:00:08:400,0.424,-0.244,0.86,-124.329,122.131,-107.178,
00:00:08:416,0.398,-0.064,1.032,-156.311,28.198,-22.889,
00:00:08:433,0.322,0.069,1.088,-224.976,-72.388,76.904,
00:00:08:450,0.361,0.06,1.111,-204.346,-147.706,181.152,
00:00:08:466,0.569,-0.21,1.07,-131.043,-212.281,236.328,
00:00:08:483,0.669,-0.406,0.83,-169.556,-234.498,203.552,
00:00:08:500,0.595,-0.374,0.841,-178.711,-285.218,201.66,
00:00:08:516,0.5,-0.269,0.977,-323.975,-352.295,236.816,
00:00:08:533,0.433,-0.185,1.014,-298.829,-390.625,299.377,
00:00:08:550,0.589,-0.327,0.927,-239.075,-411.927,322.021,
00:00:08:566,0.66,-0.494,0.569,-173.829,-351.014,310.058,
00:00:08:583,0.973,-0.587,0.153,-57.557,-233.643,211.792,
00:00:08:600,1.009,-0.817,0.057,-45.655,-105.225,98.571,
00:00:08:616,1.22,-1.106,0.002,-4.578,3.356,-77.21,
00:00:08:633,1.249,-1.319,-0.009,35.705,93.2,-199.769,
00:00:08:650,0.95,-1.084,0.194,-35.767,145.935,-204.285,
00:00:08:666,0.892,-0.828,0.33,37.597,204.956,-233.094,
00:00:08:683,0.82,-0.751,0.391,75.012,243.042,-276.917,
00:00:08:700,0.684,-0.608,0.274,139.709,334.228,-327.576,
00:00:08:716,0.541,-0.581,0.311,173.217,391.418,-360.047,
00:00:08:733,0.415,-0.45,0.539,92.285,426.452,-357.605,
00:00:08:750,0.432,-0.342,0.664,145.935,451.294,-326.172,
00:00:08:766,0.402,-0.266,0.798,78.979,396.972,-283.692,
00:00:08:783,0.332,-0.198,1.289,-42.725,162.841,-178.223,
00:00:08:800,0.074,0.182,1.341,-318.238,0.183,-40.589,
00:00:08:816,0.252,0.177,1.313,-220.032,-153.992,105.835,
00:00:08:833,0.522,0.007,1.062,-140.015,-200.745,136.291,
00:00:08:850,0.582,-0.217,0.788,-164.795,-217.896,136.047,
00:00:08:866,0.699,-0.279,0.739,-73.609,-232.85,98.571,
00:00:08:883,0.707,-0.378,0.849,-70.435,-283.265,89.66,
00:00:08:900,0.686,-0.187,0.939,-134.766,-337.464,143.432,
00:00:08:916,0.54,-0.232,0.944,-166.993,-399.537,238.647,
00:00:08:933,0.462,-0.27,0.835,-263.062,-430.726,313.659,
00:00:08:950,0.456,-0.388,0.687,-314.27,-455.689,378.479,
00:00:08:966,0.69,-0.495,0.48,-267.273,-388.062,374.878,
00:00:08:983,1.041,-0.863,0.242,-52.247,-271.363,250.793,
00:00:09:0,1.304,-1.207,-0.109,36.438,-84.29,-17.762,
00:00:09:16,1.323,-1.335,-0.068,76.721,-3.418,-156.311,
00:00:09:33,0.952,-0.962,0.301,-79.041,77.392,-157.288,
00:00:09:50,0.876,-0.697,0.411,83.129,142.273,-143.799,
00:00:09:66,0.83,-0.74,0.363,189.392,241.394,-199.036,
00:00:09:83,0.742,-0.687,0.376,216.674,316.284,-295.533,
00:00:09:100,0.462,-0.549,0.551,194.091,386.413,-335.022,
00:00:09:116,0.338,-0.34,0.741,157.47,441.467,-335.999,
00:00:09:133,0.39,-0.265,0.894,161.987,439.758,-297.974,
00:00:09:150,0.392,-0.248,0.906,149.17,389.648,-236.206,
00:00:09:166,0.424,-0.274,0.972,27.71,240.295,-177.124,
00:00:09:183,0.188,-0.003,1.258,-259.766,59.875,-63.843,
00:00:09:200,0.203,0.194,1.233,-362,-61.829,66.467,
00:00:09:216,0.418,0.025,0.951,-219.483,-74.83,94.177,
00:00:09:233,0.594,-0.369,0.76,-123.352,-62.806,78.491,
00:00:09:250,0.719,-0.371,0.634,-114.075,-56.092,6.774,
00:00:09:266,0.685,-0.414,0.619,75.195,-44.373,-59.082,
00:00:09:283,0.791,-0.5,0.565,134.521,-61.646,-82.886,
00:00:09:300,0.695,-0.494,0.606,89.233,-83.558,-56.458,
00:00:09:316,0.652,-0.445,0.646,46.02,-102.234,13.61,
00:00:09:333,0.577,-0.424,0.703,-53.467,-154.175,75.256,
00:00:09:350,0.504,-0.391,0.776,-155.762,-216.797,142.517,
00:00:09:366,0.52,-0.346,0.821,-262.818,-265.503,177.307,
00:00:09:383,0.474,-0.276,0.824,-331.788,-258.423,201.782,
00:00:09:400,0.542,-0.347,0.767,-298.035,-243.592,202.392,
00:00:09:416,0.614,-0.485,0.705,-265.32,-224.244,173.889,
00:00:09:433,0.74,-0.415,0.582,-217.041,-149.048,115.051,
00:00:09:450,0.798,-0.448,0.477,-14.1,-37.354,51.086,
00:00:09:466,0.882,-0.621,0.352,231.506,99.426,-57.312,
00:00:09:483,0.914,-0.88,0.281,380.371,148.193,-155.884,
00:00:09:500,0.859,-0.826,0.274,297.79,207.336,-227.967,
00:00:09:516,0.791,-0.697,0.325,239.807,216.43,-232.239,
00:00:09:533,0.76,-0.811,0.431,164.245,190.857,-237.305,
00:00:09:550,0.76,-0.794,0.474,82.702,206.543,-239.136,
00:00:09:566,0.764,-0.669,0.496,61.401,260.681,-264.466,
00:00:09:583,0.602,-0.544,0.535,122.009,326.843,-279.602,
00:00:09:600,0.504,-0.505,0.558,124.511,352.05,-277.771,
00:00:09:616,0.46,-0.418,0.874,4.394,206.176,-234.253,
00:00:09:633,0.043,-0.064,1.253,-365.784,39.733,-91.675,
00:00:09:650,0.031,0.31,1.313,-507.019,-55.237,50.109,
00:00:09:666,0.179,0.274,1.246,-287.903,-101.319,154.235,
00:00:09:683,0.464,-0.028,1.091,-138.062,-153.138,207.214,
00:00:09:700,0.627,-0.168,0.856,-135.132,-187.012,174.987,
00:00:09:716,0.548,-0.231,0.924,-111.329,-236.145,156.982,
00:00:09:733,0.447,-0.141,0.937,-117.432,-264.283,180.297,
00:00:09:750,0.334,-0.071,0.993,-108.399,-260.621,227.722,
00:00:09:766,0.598,-0.166,0.903,-155.213,-323.426,272.705,
00:00:09:783,0.946,-0.724,0.704,-92.225,-319.642,184.692,
00:00:09:800,0.575,-0.542,0.556,-9.278,-238.465,254.089,
00:00:09:816,0.805,-0.543,0.148,-129.456,-92.591,188.232,
00:00:09:833,1.261,-0.883,-0.108,219.848,40.71,93.811,
00:00:09:850,1.296,-1.232,-0.084,226.196,112.732,-98.694,
00:00:09:866,1.248,-1.203,0.145,66.467,87.707,-167.542,
00:00:09:883,0.912,-0.872,0.422,-84.229,86.669,-168.396,
00:00:09:900,0.828,-0.667,0.489,-13.062,125.793,-164.856,
00:00:09:916,0.831,-0.604,0.385,106.811,187.561,-209.534,
00:00:09:933,0.696,-0.623,0.311,184.57,315.551,-294.495,
00:00:09:950,0.647,-0.55,0.335,341.613,448.486,-370.301,
00:00:09:966,0.582,-0.408,0.775,317.627,420.654,-367.981,
00:00:09:983,0.453,-0.361,0.842,168.09,463.195,-385.743,
00:00:10:0,0.33,-0.256,0.733,291.687,489.38,-306.885,
00:00:10:16,0.267,-0.263,1.097,120.666,328.43,-252.747,
00:00:10:33,-0.079,0.239,1.739,-309.388,57.067,-47.913,
00:00:10:50,0.066,0.663,1.55,-322.815,-79.285,138.122,
00:00:10:66,0.462,0.019,1.071,94.604,-126.16,262.085,
00:00:10:83,0.642,-0.505,0.856,-101.746,-140.564,156.555,
00:00:10:100,0.643,-0.387,0.872,-130.555,-165.345,131.408,
00:00:10:116,0.69,-0.246,0.854,-139.588,-246.827,126.892,
00:00:10:133,0.632,-0.135,0.937,-157.471,-313.355,164.795,
00:00:10:150,0.588,-0.064,0.976,-136.414,-349.793,226.074,
00:00:10:166,0.605,-0.187,0.914,-81.849,-384.4,275.695,
00:00:10:183,0.625,-0.476,0.668,-34.607,-350.892,267.883,
00:00:10:200,0.699,-0.63,0.468,-36.988,-306.458,239.196,
00:00:10:216,0.658,-0.663,0.329,-190.491,-273.438,226.989,
00:00:10:233,1.001,-0.806,0.079,-123.291,-141.236,138.427,
00:00:10:250,1.205,-1.058,-0.083,74.951,-19.837,-15.137,
00:00:10:266,1.123,-1.107,0.212,-2.991,-35.584,-111.878,
00:00:10:283,0.851,-0.672,0.445,-185.852,29.419,-128.663,
00:00:10:300,0.849,-0.56,0.375,44.616,127.746,-125.855,
00:00:10:316,0.921,-0.766,0.234,246.46,210.51,-204.468,
00:00:10:333,0.828,-0.843,0.251,231.018,336.731,-318.116,
00:00:10:350,0.708,-0.627,0.428,293.823,431.884,-378.052,
00:00:10:366,0.524,-0.463,0.699,330.627,485.473,-402.71,
00:00:10:383,0.396,-0.295,0.779,281.677,564.697,-427.124,
00:00:10:400,0.301,-0.204,0.85,334.716,550.048,-357.056,
00:00:10:416,0.433,-0.234,1.431,146.179,257.385,-260.743,
00:00:10:433,-0.157,0.359,1.899,-479.065,-17.945,-23.499,
00:00:10:450,0.654,-0.421,0.863,-190.125,-169.739,114.257,
00:00:10:466,0.579,-0.365,0.905,-246.949,-244.385,119.018,
00:00:10:483,0.579,-0.235,0.931,-216.004,-334.29,168.151,
00:00:10:500,0.567,-0.161,0.93,-200.684,-395.63,238.037,
00:00:10:516,0.634,-0.211,0.858,-105.896,-423.279,292.053,
00:00:10:533,0.68,-0.438,0.708,-77.942,-410.34,288.025,
00:00:10:550,0.98,-0.857,0.068,-120.606,-101.624,74.096,
00:00:10:566,1.183,-0.996,-0.067,94.36,39.611,-57.435,
00:00:10:583,1.014,-1.07,0.188,106.323,45.227,-135.071,
00:00:10:600,0.749,-0.683,0.489,-67.017,49.316,-105.53,
00:00:10:616,0.759,-0.521,0.499,-46.692,78.796,-72.998,
00:00:10:633,0.869,-0.58,0.301,169.067,177.185,-112.122,
00:00:10:650,0.902,-0.787,0.222,276.001,285.339,-230.164,
00:00:10:666,0.802,-0.672,0.344,313.354,410.4,-346.924,
00:00:10:683,0.685,-0.575,0.499,393.615,497.436,-419.556,
00:00:10:700,0.524,-0.507,0.563,380.92,617.431,-477.601,
00:00:10:716,0.389,-0.423,0.703,454.223,692.871,-472.474,
00:00:10:733,0.676,-0.526,1.291,274.536,338.501,-433.411,
00:00:10:750,-0.389,0.14,1.989,-556.458,96.862,-92.347,
00:00:10:766,0.089,0.921,1.432,-452.698,-12.391,74.096,
00:00:10:783,0.13,0.389,1.169,-41.687,-108.399,238.525,
00:00:10:800,0.518,0.004,1.009,-161.866,-154.48,261.657,
00:00:10:816,0.683,-0.253,0.926,-219.971,-177.613,161.438,
00:00:10:833,0.556,-0.339,0.947,-177.308,-217.469,111.572,
00:00:10:850,0.678,-0.323,0.943,-164.368,-299.317,123.535,
00:00:10:866,0.517,-0.167,1.016,-192.261,-372.742,197.876,
00:00:10:883,0.566,-0.165,0.984,-222.107,-435.303,276.794,
00:00:10:900,0.531,-0.316,0.934,-253.479,-474.793,361.267,
00:00:10:916,0.587,-0.32,0.685,-309.693,-415.589,389.343,
00:00:10:933,0.739,-0.475,0.376,-201.294,-336.304,364.685,
00:00:10:950,1.219,-0.85,-0.219,-28.504,-46.875,104.065,
00:00:10:966,1.067,-0.918,-0.096,194.58,44.921,30.395,
00:00:10:983,1.159,-1.055,0.02,148.925,184.387,-164.063,
00:00:11:0,1.118,-1.075,0.239,75.256,138.427,-198.487,
00:00:11:16,1.016,-0.857,0.271,23.437,196.655,-240.845,
00:00:11:33,0.908,-0.829,0.452,8.056,135.803,-211.426,
00:00:11:50,0.861,-0.634,0.494,-32.532,155.151,-252.442,
00:00:11:66,0.636,-0.432,0.439,28.32,243.042,-257.386,
00:00:11:83,0.607,-0.373,0.381,169.128,367.309,-304.261,
00:00:11:100,0.585,-0.465,0.528,308.654,458.313,-353.638,
00:00:11:116,0.526,-0.471,0.704,318.908,513.794,-376.221,
00:00:11:133,0.487,-0.525,0.76,255.798,549.865,-395.264,
00:00:11:150,0.421,-0.428,0.85,241.76,523.559,-332.337,
00:00:11:166,0.53,-0.283,1.11,110.656,295.532,-261.17,
00:00:11:183,0.065,0.133,1.552,-259.217,72.265,-51.209,
00:00:11:200,0.073,0.645,1.363,-411.255,-16.663,59.265,
00:00:11:216,0.39,0.278,1.041,31.433,-10.987,157.165,
00:00:11:233,0.54,-0.297,0.94,22.277,-1.587,104.736,
00:00:11:250,0.691,-0.384,0.909,-47.608,-34.485,55.053,
00:00:11:266,0.708,-0.379,0.914,-122.498,-140.442,67.871,
00:00:11:283,0.701,-0.304,0.951,-184.449,-252.137,115.6,
00:00:11:300,0.595,-0.22,0.954,-225.708,-324.769,177.429,
00:00:11:316,0.62,-0.295,0.845,-158.875,-368.897,244.14,
00:00:11:333,0.629,-0.433,0.767,-174.256,-374.573,263.549,
00:00:11:350,0.582,-0.399,0.567,-275.757,-294.495,260.498,
00:00:11:366,0.69,-0.448,0.332,-219.971,-195.618,202.636,
00:00:11:383,0.761,-0.683,0.205,-188.538,-82.093,101.806,
00:00:11:400,0.981,-0.843,0.016,-104.126,72.204,-59.51,
00:00:11:416,1.139,-0.94,-0.021,-23.743,143.676,-176.209,
00:00:11:433,0.987,-0.839,0.242,-109.62,132.263,-200.379,
00:00:11:450,0.921,-0.606,0.355,-133.118,162.963,-232.605,
00:00:11:466,0.839,-0.68,0.352,-9.949,233.398,-308.594,
00:00:11:483,0.773,-0.557,0.369,10.315,342.407,-377.442,
00:00:11:500,0.596,-0.321,0.659,79.834,642.334,-538.758,
00:00:11:516,0.558,-0.317,0.824,102.905,672.851,-524.964,
00:00:11:533,0.703,-0.225,1.673,16.601,354.065,-432.557,
00:00:11:550,0.074,0.188,1.716,-618.714,304.809,-270.997,
00:00:11:566,0.424,0.427,1.277,-181.031,549.194,-226.929,
00:00:11:583,0.359,0.099,1.062,267.456,671.63,-227.417,
00:00:11:600,0.514,-0.053,0.982,315.979,654.297,-290.101,
00:00:11:616,0.519,-0.084,1.138,206.604,628.357,-310.364,
00:00:11:633,0.614,-0.071,1.283,-35.462,608.276,-378.052,
00:00:11:650,1.101,-0.368,1.297,-226.258,363.22,-412.842,
00:00:11:666,0.816,-0.551,1.055,-271.668,313.903,-473.999,
00:00:11:683,0.984,-1,1.149,-848.572,-43.519,-387.818,
00:00:11:700,0.795,-0.664,1.103,-1156.617,-178.101,-420.105,
00:00:11:716,0.611,-0.497,1.049,-1182.251,-138.733,-406.25,
00:00:11:733,0.502,-0.471,0.768,-972.046,-17.273,-473.999,
00:00:11:750,0.494,-0.558,0.504,-808.716,64.514,-522.889,
00:00:11:766,0.404,-0.703,0.406,-805.359,210.266,-612.061,
00:00:11:783,0.316,-0.666,0.37,-905.579,363.281,-670.411,
00:00:11:800,0.207,-0.664,0.018,-1009.583,525.451,-717.286,
00:00:11:816,0.302,-0.637,-0.106,-704.529,537.719,-930.664,
00:00:11:833,0.468,-0.563,0.095,-505.433,530.334,-1120.606,
00:00:11:850,0.162,-0.36,0.229,-66.773,598.51,-1188.416,
00:00:11:866,0.239,-0.476,0.307,479.675,739.013,-1140.87,
00:00:11:883,0.166,-1.316,0.125,-110.718,749.206,-787.11,
00:00:11:900,0.273,-0.676,0.342,-129.822,314.819,-135.01,
00:00:11:916,0.382,-0.782,0.3,-210.328,-18.006,23.193,
00:00:11:933,0.486,-0.909,0.434,-157.471,-264.954,130.493,
00:00:11:950,0.487,-0.964,0.357,-325.623,-391.663,208.313,
00:00:11:966,0.455,-0.805,0.388,-405.091,-460.144,253.173,
00:00:11:983,0.48,-0.635,0.393,-330.079,-395.63,281.25,
00:00:12:0,0.589,-0.544,0.342,-223.389,-259.949,230.346,
00:00:12:16,0.648,-0.528,0.287,-187.989,-136.78,113.281,
00:00:12:33,0.77,-0.576,0.411,19.836,-32.837,8.117,
00:00:12:50,0.684,-0.544,0.592,-87.769,12.207,-32.349,
00:00:12:66,0.64,-0.514,0.577,-192.383,71.289,-27.527,
00:00:12:83,0.687,-0.463,0.649,-207.276,3.112,-59.449,
00:00:12:100,0.894,-0.732,0.825,-217.957,-44.678,-86.426,
00:00:12:116,0.773,-0.83,1.192,-270.935,-163.392,-147.217,
00:00:12:133,0.865,-0.491,1.162,65.002,-219.971,8.178,
00:00:12:150,0.761,-0.69,0.849,-131.714,-146.241,-58.838,
00:00:12:166,0.609,-0.392,0.769,-153.809,-101.685,-30.213,
00:00:12:183,0.619,-0.508,0.682,-97.107,-39.185,-22.644,
00:00:12:200,0.841,-0.402,0.553,-67.933,15.564,-34.79,
00:00:12:216,0.685,-0.51,0.737,-66.163,58.898,-74.158,
00:00:12:233,0.859,-0.465,0.572,-31.067,128.784,-82.52,
00:00:12:250,0.725,-0.503,0.51,-17.029,139.099,-41.016,
00:00:12:266,0.766,-0.366,0.565,-88.501,123.108,-36.072,
00:00:12:283,0.721,-0.28,0.604,-97.962,109.741,-50.171,
00:00:12:300,0.613,-0.432,0.657,-100.647,80.078,-70.923,
00:00:12:316,0.56,-0.565,0.753,-95.215,70.19,-54.444,
00:00:12:333,0.456,-0.504,0.802,-132.447,56.335,-46.57,
00:00:12:350,0.53,-0.563,0.734,-74.646,1.22,-23.072,
00:00:12:366,0.468,-0.588,0.731,-94.544,-77.149,-16.419,
00:00:12:383,0.614,-0.528,0.695,-118.653,-156.678,-9.156,
00:00:12:400,0.553,-0.405,0.751,-87.098,-231.446,21.545,
00:00:12:416,0.614,-0.527,0.75,-114.747,-186.097,15.075,
00:00:12:433,0.711,-0.276,0.543,-69.092,-147.034,69.274,
00:00:12:450,0.679,-0.519,0.561,-87.891,-161.072,-14.222,
00:00:12:466,0.607,-0.485,0.675,-151.429,-163.697,-13.794,
00:00:12:483,0.592,-0.512,0.679,-126.16,-202.454,-12.818,
00:00:12:500,0.452,-0.615,0.862,-109.375,-258.362,-23.499,
00:00:12:516,0.326,-0.513,0.929,-143.494,-312.256,11.047,
00:00:12:533,0.272,-0.435,0.932,-180.726,-332.215,8.606,
00:00:12:550,0.298,-0.433,1.004,-160.34,-360.901,42.114,
00:00:12:566,0.462,-0.434,0.934,-185.12,-359.62,71.777,
00:00:12:583,0.629,-0.359,0.818,-198.914,-312.928,99.182,
00:00:12:600,0.721,-0.401,0.588,-194.031,-199.891,139.892,
00:00:12:616,0.807,-0.295,0.38,-197.144,-78.614,124.389,
00:00:12:633,1.115,-0.203,0.276,-21.485,53.772,92.407,
00:00:12:650,1.211,-0.171,0.309,117.126,49.072,52.429,
00:00:12:666,1.242,-0.295,0.343,167.114,38.574,-44.312,
00:00:12:683,1.126,-0.317,0.537,145.691,-30.335,-93.811,
00:00:12:700,0.986,-0.311,0.545,103.149,-94.605,-143.982,
00:00:12:716,0.758,-0.288,0.521,108.703,-116.639,-160.645,
00:00:12:733,0.106,-0.044,0.282,158.874,139.099,62.866,
00:00:12:750,0.08,-0.127,0.263,196.35,364.685,215.271,
00:00:12:766,0.197,-0.135,0.121,188.72,609.253,367.92,
00:00:12:783,0.555,-0.117,0.846,326.416,500.183,275.573,
00:00:12:800,1.796,-2.377,1.818,805.236,25.207,-127.564,
00:00:12:816,0.304,-0.302,1.244,-103.394,-231.812,213.745,
00:00:12:833,0.485,-0.549,0.825,54.687,-53.162,30.7,
00:00:12:850,0.438,-0.431,0.753,214.599,47.424,82.214,
00:00:12:866,0.456,-0.523,0.912,88.745,79.284,62.316,
00:00:12:883,0.605,-0.271,0.795,101.867,138.122,39.611,
00:00:12:900,0.607,-0.539,0.797,105.774,160.705,11.657,
00:00:12:916,0.603,-0.38,0.745,27.648,189.331,18.493,
00:00:12:933,0.645,-0.546,0.878,36.377,246.215,30.151,
00:00:12:950,0.657,-0.599,0.885,-16.724,262.39,34.912,
00:00:12:966,0.617,-0.663,0.957,-56.519,204.528,6.347,
00:00:12:983,0.488,-0.672,0.986,-110.291,135.742,-31.434,
00:00:13:0,0.487,-0.65,1.177,-120.118,-27.222,-122.193,
00:00:13:16,0.376,-0.483,0.979,-196.351,-101.807,-150.147,
00:00:13:33,0.023,-0.433,1.134,-138.306,-216.37,-198.06,
00:00:13:50,-0.044,-0.563,0.871,-246.216,-202.82,-158.509,
00:00:13:66,-0.14,-0.215,0.744,-210.511,-153.382,-98.694,
00:00:13:83,-0.141,-0.432,0.533,-128.418,-34.18,-41.443,
00:00:13:100,-0.017,-0.221,0.252,-151.368,22.766,-42.969,
00:00:13:116,0.103,-0.208,0.27,-132.264,124.45,-76.416,
00:00:13:133,0.179,-0.411,0.173,-187.256,279.602,-69.458,
00:00:13:150,0.199,-0.392,0.084,-317.261,424.072,-39.612,
00:00:13:166,2.629,0.942,1.437,111.755,-363.953,-337.464,
00:00:13:183,0.214,-0.741,1.585,297.302,-205.994,-157.898,
00:00:13:200,0.571,-0.421,0.762,-196.839,-150.33,-169.8,
00:00:13:216,0.647,-0.656,0.745,-134.583,-114.441,-123.414,
00:00:13:233,0.735,-0.472,0.675,-174.073,-81.543,-110.535,
00:00:13:250,0.686,-0.498,0.726,-143.128,-54.932,-79.834,
00:00:13:266,0.69,-0.532,0.717,-145.935,-27.771,-54.505,
00:00:13:283,0.662,-0.417,0.743,-153.504,-25.025,-23.377,
00:00:13:300,0.621,-0.464,0.745,-133.789,-23.926,4.577,
00:00:13:316,0.627,-0.42,0.737,-119.263,-32.776,42.968,
00:00:13:333,0.649,-0.471,0.721,-157.898,-55.603,51.757,
00:00:13:350,0.657,-0.375,0.647,-167.054,-55.664,74.707,
00:00:13:366,0.717,-0.35,0.564,-147.522,-40.528,67.81,
00:00:13:383,0.772,-0.31,0.541,-111.634,-46.021,55.358,
00:00:13:400,0.869,-0.291,0.519,-3.54,-102.295,-17.334,
00:00:13:416,0.75,-0.324,0.399,22.583,-56.458,-2.259,
00:00:13:433,0.681,-0.184,0.239,12.146,54.504,90.637,
00:00:13:450,0.647,-0.097,0.019,45.837,241.027,160.278,
00:00:13:466,0.883,-0.311,0.569,257.141,-52.918,31.189,
00:00:13:483,0.927,-0.457,0.7,130.249,-74.158,-106.446,
00:00:13:500,0.882,-0.351,0.771,143.066,33.874,-22.095,
00:00:13:516,0.657,-0.673,0.722,46.997,104.553,-12.818,
00:00:13:533,0.671,-0.192,0.627,5.92,248.779,114.563,
00:00:13:550,0.646,-0.434,0.731,199.951,289.428,132.141,
00:00:13:566,0.561,-0.579,0.733,140.991,333.313,161.743,
00:00:13:583,0.649,-0.564,0.812,169.189,303.711,167.663,
00:00:13:600,0.513,-0.68,0.946,199.89,278.686,187.194,
00:00:13:616,0.56,-0.602,0.805,136.657,297.18,214.599,
00:00:13:633,0.595,-0.554,0.736,162.475,264.831,236.938,
00:00:13:650,0.675,-0.604,0.725,228.454,184.448,246.887,
00:00:13:666,0.746,-0.615,0.733,284.24,69.397,234.253,
00:00:13:683,0.793,-0.645,0.701,401.916,-77.942,183.349,
00:00:13:700,0.944,-0.715,0.697,576.049,-241.089,92.59,
00:00:13:716,0.668,-1.038,0.56,578.369,-215.088,0.732,
00:00:13:733,0.814,-0.787,0.66,513.794,-293.58,-52.613,
00:00:13:750,0.565,-0.822,0.499,532.837,-149.476,-79.895,
00:00:13:766,0.456,-0.64,0.35,487.671,-53.345,-113.221,
00:00:13:783,0.34,-0.256,0.14,614.99,178.222,-105.713,
00:00:13:800,0.307,-0.349,0.252,738.159,226.501,-107.483,
00:00:13:816,0.291,-0.448,0.356,730.713,237.182,-62.256,
00:00:13:833,0.265,-0.495,0.46,663.147,180.359,48.584,
00:00:13:850,0.239,-0.472,0.475,539.428,77.514,155.883,
00:00:13:866,0.22,-0.287,0.631,479.309,-45.35,205.627,
00:00:13:883,0.294,-0.24,0.824,399.231,-187.989,246.765,
00:00:13:900,0.457,-0.46,0.983,367.431,-296.692,316.772,
00:00:13:916,0.35,-0.423,0.913,207.763,-364.441,361.755,
00:00:13:933,0.357,-0.439,0.852,76.965,-451.6,385.07,
00:00:13:950,0.359,-0.345,0.783,-46.57,-429.993,399.047,
00:00:13:966,0.441,-0.19,0.558,9.948,-375.245,427.917,
00:00:13:983,1.652,-1.114,1.416,374.023,-719.605,218.567,
00:00:14:0,0.586,-0.914,1.43,-385.926,-611.573,79.284,
00:00:14:16,0.588,-0.014,0.863,3.356,-369.446,200.195,
00:00:14:33,0.541,-0.489,0.752,9.948,-320.313,161.743,
00:00:14:50,0.494,-0.277,0.803,-85.572,-305.176,130.615,
00:00:14:66,0.546,-0.364,0.78,-55.115,-287.354,106.323,
00:00:14:83,0.54,-0.461,0.803,-56.397,-264.588,71.228,
00:00:14:100,0.591,-0.495,0.812,1.953,-241.761,51.391,
00:00:14:116,0.602,-0.62,0.716,71.838,-251.77,58.166,
00:00:14:133,0.617,-0.687,0.644,74.035,-268.311,75.622,
00:00:14:150,0.566,-0.5,0.745,0,-292.542,90.21,
00:00:14:166,0.647,-0.462,0.741,74.401,-271.485,118.591,
00:00:14:183,0.664,-0.473,0.715,81.115,-243.836,150.146,
00:00:14:200,0.642,-0.333,0.729,77.331,-225.647,157.104,
00:00:14:216,0.685,-0.576,0.67,140.869,-203.248,154.113,
00:00:14:233,0.648,-0.483,0.722,-3.174,-212.769,109.741,
00:00:14:250,0.645,-0.5,0.732,-8.423,-176.514,57.006,
00:00:14:266,0.734,-0.552,0.706,34.057,-141.114,4.15,
00:00:14:283,0.703,-0.585,0.627,-7.874,-114.869,-45.105,
00:00:14:300,0.768,-0.562,0.518,-79.346,-91.919,-82.581,
00:00:14:316,0.775,-0.577,0.498,-134.949,-44.983,-90.027,
00:00:14:333,0.811,-0.589,0.398,-120.484,25.634,-86.548,
00:00:14:350,0.867,-0.554,0.332,-72.266,55.969,-93.14,
00:00:14:366,0.92,-0.641,0.34,-50.66,36.071,-164.429,
00:00:14:383,0.772,-0.558,0.235,-105.713,65.246,-180.787,
00:00:14:400,0.609,-0.428,0.119,-96.314,122.68,-171.998,
00:00:14:416,0.489,-0.348,0.066,-81.543,221.191,-150.025,
00:00:14:433,0.416,-0.228,-0.02,-83.497,344.238,-72.449,
00:00:14:450,0.363,-0.079,-0.083,-167.908,480.407,51.696,
00:00:14:466,0.913,0.194,0.642,280.578,177.063,39.184,
00:00:14:483,1.114,-1.209,0.653,194.458,170.715,-123.23,
00:00:14:500,0.552,-0.395,1,-211.121,145.996,3.967,
00:00:14:516,0.721,-0.35,0.874,-179.749,178.65,-100.769,
00:00:14:533,0.92,-0.685,0.966,57.495,148.315,-37.415,
00:00:14:550,0.492,-0.876,1.125,-280.213,155.09,-112.061,
00:00:14:566,0.663,-0.354,0.844,-222.413,251.648,-56.702,
00:00:14:583,0.767,-0.457,0.714,-181.946,320.007,-91.492,
00:00:14:600,0.789,-0.467,0.68,-267.456,387.024,-100.769,
00:00:14:616,0.781,-0.456,0.712,-272.644,442.382,-107.361,
00:00:14:633,0.735,-0.402,0.728,-288.941,474.67,-111.023,
00:00:14:650,0.719,-0.447,0.627,-313.111,530.151,-130.555,
00:00:14:666,0.619,-0.364,0.596,-289.978,596.74,-128.968,
00:00:14:683,0.562,-0.296,0.573,-274.414,629.15,-164.795,
00:00:14:700,0.545,-0.255,0.701,-219.056,618.103,-211.06,
00:00:14:716,0.516,-0.375,0.882,-187.684,531.433,-244.69,
00:00:14:733,0.521,-0.41,1.062,-239.136,314.27,-227.723,
00:00:14:750,0.575,-0.442,1.296,-272.828,67.26,-199.402,
00:00:14:766,0.432,-0.547,1.317,-341.431,-138.245,-234.986,
00:00:14:783,0.356,-0.594,1.411,-451.477,-369.69,-293.519,
00:00:14:800,0.208,-0.561,1.275,-565.247,-454.895,-340.577,
00:00:14:816,0.049,-0.449,0.797,-575.074,-408.814,-395.508,
00:00:14:833,0.112,-0.423,0.606,-592.225,-277.771,-395.63,
00:00:14:850,0.133,-0.405,0.499,-679.261,-96.863,-385.315,
00:00:14:866,0.196,-0.428,0.367,-767.884,97.106,-351.502,
00:00:14:883,0.297,-0.489,0.256,-793.885,242.614,-321.228,
00:00:14:900,0.366,-0.488,0.127,-882.142,345.276,-304.505,
00:00:14:916,0.455,-0.425,0.115,-872.925,412.719,-281.434,
00:00:14:933,0.528,-0.495,0.065,-818.909,493.164,-332.093,
00:00:14:950,0.589,-0.581,-0.023,-740.357,547.851,-338.074,
00:00:14:966,0.611,-0.655,-0.059,-714.173,568.908,-366.944,
00:00:14:983,2.651,0.537,0.835,-95.826,-479.676,-746.949,
00:00:15:0,0.511,-1.39,1.317,-2.747,-350.647,-512.818,
00:00:15:16,0.871,-0.566,1.012,-354.004,-278.321,-457.093,
00:00:15:33,0.888,-0.571,0.819,-167.42,-298.157,-407.41,
00:00:15:50,0.694,-0.533,0.827,-76.233,-313.477,-296.021,
00:00:15:66,0.738,-0.46,0.779,-98.45,-299.195,-258.301,
00:00:15:83,0.724,-0.391,0.746,-87.525,-256.592,-173.523,
00:00:15:100,0.735,-0.478,0.66,-122.376,-201.539,-130.31,
00:00:15:116,0.746,-0.43,0.657,-112.915,-130.86,-85.633,
00:00:15:133,0.769,-0.428,0.702,-140.809,-60.852,-70.13,
00:00:15:150,0.791,-0.353,0.701,-139.649,85.022,42.419,
00:00:15:166,0.817,-0.298,0.681,-129.212,137.756,78.369,
00:00:15:183,0.828,-0.309,0.621,-98.328,174.865,117.37,
00:00:15:200,0.821,-0.254,0.542,-97.962,195.678,135.192,
00:00:15:216,0.852,-0.232,0.455,-59.082,200.927,164.123,
00:00:15:233,0.909,-0.206,0.371,16.54,184.204,162.109,
00:00:15:250,0.916,-0.214,0.426,200.622,71.96,99.426,
00:00:15:266,0.835,-0.173,0.339,243.774,81.909,122.558,
00:00:15:283,0.773,-0.108,0.216,235.778,107.238,104.492,
00:00:15:300,0.734,-0.062,0.071,190.734,159.118,90.576,
00:00:15:316,0.668,-0.099,0.047,139.038,277.282,94.238,
00:00:15:333,1.173,0.009,0.405,175.842,5.249,-14.283,
00:00:15:350,0.88,-0.893,1.091,326.172,-392.456,-224.244,
00:00:15:366,0.787,-0.335,0.784,2.502,-102.784,-109.009,
00:00:15:383,0.696,-0.556,0.659,134.643,53.039,-101.075,
00:00:15:400,0.686,-0.265,0.45,-87.647,275.879,33.996,
00:00:15:416,0.808,-0.112,0.616,93.566,367.859,27.832,
00:00:15:433,0.731,-0.456,0.545,134.521,430.908,101.135,
00:00:15:450,0.89,-0.513,0.823,175.964,260.009,46.447,
00:00:15:466,0.627,-0.565,0.862,203.369,234.13,103.942,
00:00:15:483,0.692,-0.503,0.731,242.859,233.886,126.953,
00:00:15:500,0.682,-0.476,0.56,282.776,198.486,126.587,
00:00:15:516,0.612,-0.391,0.514,281.311,159.179,106.506,
00:00:15:533,0.597,-0.397,0.62,367.37,114.563,72.998,
00:00:15:550,0.773,-0.47,0.762,376.464,-20.508,61.34,
00:00:15:566,0.768,-0.381,1.012,424.743,-205.201,82.519,
00:00:15:583,0.709,-0.815,1.128,402.343,-348.938,11.291,
00:00:15:600,0.687,-0.613,1.051,266.357,-417.847,-1.282,
00:00:15:616,0.522,-0.468,0.605,86.608,-297.242,-93.811,
00:00:15:633,0.467,-0.395,0.513,166.198,-221.924,-117.005,
00:00:15:650,0.449,-0.394,0.436,229.248,-139.466,-113.404,
00:00:15:666,0.467,-0.38,0.427,311.462,-77.027,-95.215,
00:00:15:683,0.52,-0.423,0.457,413.696,-39.49,-52.918,
00:00:15:700,0.515,-0.495,0.474,455.261,-27.466,-38.941,
00:00:15:716,0.543,-0.568,0.538,423.645,-55.237,-44.739,
00:00:15:733,0.542,-0.598,0.603,393.982,-84.046,-35.218,
00:00:15:750,0.664,-0.635,0.72,301.269,-141.175,-43.946,
00:00:15:766,0.572,-0.75,0.801,30.944,-205.323,-3.235,
00:00:15:783,0.517,-0.464,0.581,-256.958,-236.023,21.423,
00:00:15:800,0.528,-0.48,0.58,-242.615,-262.513,-4.456,
00:00:15:816,0.51,-0.431,0.55,-256.531,-245.606,14.892,
00:00:15:833,0.506,-0.361,0.552,-248.658,-195.862,21.484,
00:00:15:850,0.496,-0.359,0.56,-238.953,-152.222,8.361,
00:00:15:866,0.489,-0.36,0.565,-226.868,-117.92,2.38,
00:00:15:883,0.479,-0.371,0.597,-188.111,-103.394,13.122,
00:00:15:900,0.448,-0.366,0.639,-141.48,-73.121,11.962,
00:00:15:916,0.432,-0.401,0.68,-82.032,-21.119,16.174,
00:00:15:933,0.43,-0.398,0.682,-28.809,16.418,14.953,
00:00:15:950,0.445,-0.435,0.706,-9.766,43.396,-10.01,
00:00:15:966,0.469,-0.473,0.745,-7.813,55.786,-33.02,
00:00:15:983,0.492,-0.5,0.769,-22.767,47.607,-57.129,
00:00:16:0,0.513,-0.521,0.804,-47.181,40.405,-71.9,
00:00:16:16,0.534,-0.52,0.806,-57.068,25.207,-76.477,
00:00:16:33,0.57,-0.519,0.791,-62.928,-0.245,-79.895,
00:00:16:50,0.609,-0.507,0.776,-75.867,-34.546,-90.76,
00:00:16:66,0.619,-0.502,0.767,-80.079,-65.308,-94.178,
00:00:16:83,0.628,-0.473,0.739,-79.468,-92.957,-90.516,
00:00:16:100,0.615,-0.439,0.694,-55.787,-113.77,-86.731,
00:00:16:116,0.588,-0.422,0.681,-15.381,-131.287,-87.037,
00:00:16:133,0.571,-0.401,0.655,18.981,-134.217,-73.121,
00:00:16:150,0.557,-0.39,0.64,61.218,-127.137,-62.256,
00:00:16:166,0.533,-0.406,0.643,143.432,-107.117,-45.655,
00:00:16:183,0.526,-0.42,0.641,183.41,-105.957,-36.927,
00:00:16:200,0.519,-0.428,0.643,209.655,-101.075,-25.33,
00:00:16:216,0.528,-0.48,0.657,237.06,-86.67,-7.935,
00:00:16:233,0.541,-0.499,0.676,239.196,-84.412,5.065,
00:00:16:250,0.554,-0.525,0.678,221.557,-85.206,8.789,
00:00:16:266,0.563,-0.539,0.674,198.73,-95.948,13.732,
00:00:16:283,0.566,-0.552,0.716,177.368,-105.957,15.319,
00:00:16:300,0.566,-0.556,0.686,139.282,-110.413,16.296,
00:00:16:316,0.563,-0.543,0.683,122.619,-109.742,21.728,
00:00:16:333,0.557,-0.536,0.679,108.459,-103.882,22.338,
00:00:16:350,0.55,-0.516,0.661,95.153,-98.877,16.54,
00:00:16:366,0.523,-0.504,0.659,85.815,-92.225,10.437,
00:00:16:383,0.488,-0.5,0.655,73.913,-82.764,2.197,
00:00:16:400,0.437,-0.494,0.681,61.401,-62.378,0.976,
00:00:16:416,0.408,-0.514,0.67,52.307,-36.377,0.732,
00:00:16:433,0.399,-0.536,0.704,30.273,-21.973,-11.536,
00:00:16:450,0.393,-0.569,0.714,9.887,-14.588,-35.157,
00:00:16:466,0.375,-0.626,0.742,-16.541,-10.01,-53.772,
00:00:16:483,0.346,-0.642,0.772,-57.862,-3.907,-68.177,
00:00:16:500,0.303,-0.643,0.809,-85.511,11.657,-91.98,
00:00:16:516,0.281,-0.644,0.785,-120.789,31.066,-129.029,
00:00:16:533,0.263,-0.658,0.777,-152.344,19.226,-174.866,
00:00:16:550,0.257,-0.673,0.775,-195.557,-2.747,-220.459,
00:00:16:566,0.243,-0.676,0.802,-224.915,-16.663,-250.855,
00:00:16:583,0.251,-0.649,0.805,-252.015,-24.598,-265.748,
00:00:16:600,0.254,-0.624,0.758,-265.564,-36.56,-271.973,
00:00:16:616,0.269,-0.575,0.724,-262.085,-60.669,-265.809,
00:00:16:633,0.31,-0.527,0.683,-218.873,-79.285,-253.54,
00:00:16:650,0.355,-0.514,0.658,-157.166,-77.088,-212.83,
00:00:16:667,0.403,-0.46,0.618,-106.202,-53.833,-174.805,
00:00:16:683,0.437,-0.424,0.6,-31.067,-28.748,-137.33,
00:00:16:700,0.498,-0.447,0.565,36.315,-7.874,-95.948,
00:00:16:717,0.549,-0.448,0.568,116.821,-4.944,-31.556,
00:00:16:733,0.619,-0.408,0.57,202.697,-8.728,34.851,
00:00:16:750,0.585,-0.489,0.664,275.268,-16.785,80.505,
00:00:16:767,0.702,-0.38,0.554,282.776,-26.429,125.793,
00:00:16:783,0.671,-0.712,0.484,199.585,-43.457,23.071,
00:00:16:800,0.627,-0.338,0.533,533.02,-20.569,130.432,
00:00:16:817,0.933,-0.653,0.415,564.941,6.591,141.418,
00:00:16:833,0.979,-0.676,0.481,769.043,-38.086,223.938,
00:00:16:850,0.967,-0.792,0.554,844.116,-83.069,298.278,
00:00:16:867,0.869,-0.741,0.575,801.147,-133.606,355.102,
00:00:16:883,0.845,-0.52,0.496,773.62,-214.844,317.81,
00:00:16:900,0.818,-0.695,0.491,665.283,-270.813,291.565,
00:00:16:917,0.702,-0.599,0.519,560.058,-305.603,288.269,
00:00:16:933,0.665,-0.615,0.501,496.399,-322.754,300.109,
00:00:16:950,0.56,-0.488,0.58,438.293,-303.04,366.088,
00:00:16:967,0.549,-0.402,0.533,510.192,-254.639,414.245,
00:00:16:983,0.507,-0.495,0.55,506.408,-228.882,451.66,rollLH
00:00:17:0,0.444,-0.507,0.571,444.336,-197.693,458.618,
00:00:17:17,0.49,-0.582,0.548,260.131,-187.745,449.279,
00:00:17:33,0.483,-0.549,0.579,61.279,-179.993,428.344,
00:00:17:50,0.401,-0.642,0.589,-89.966,-125.306,370.483,
00:00:17:67,0.337,-0.663,0.586,-195.862,-49.866,315.49,
00:00:17:83,0.27,-0.762,0.522,-244.935,64.88,224.487,
00:00:17:100,0.767,-1.44,1.031,-179.444,-161.011,-80.14,
00:00:17:117,0.878,-1.353,1.377,-1059.754,-275.818,-130.616,
00:00:17:133,0.288,0.126,1.302,-696.961,-238.587,-46.082,
00:00:17:150,-0.167,0.084,0.744,-315.796,-192.444,1.159,
00:00:17:167,-0.207,-0.264,0.606,-179.505,-196.412,69.702,
00:00:17:183,-0.019,-0.401,0.785,-115.052,-227.112,113.83,
00:00:17:200,0.228,-0.651,1.141,-63.416,-284.485,113.586,
00:00:17:217,0.32,-0.675,1.191,-93.934,-345.154,127.38,
00:00:17:233,0.255,-0.597,0.949,-41.382,-364.502,165.1,
00:00:17:250,0.264,-0.295,0.862,12.878,-335.328,216.43,
00:00:17:267,0.228,-0.413,0.819,-12.085,-278.931,172.912,
00:00:17:283,0.489,-0.474,0.824,24.108,-227.356,172.851,
00:00:17:300,0.948,-0.605,0.779,-93.567,-225.281,70.922,
00:00:17:317,1.085,-0.582,0.456,-93.14,-126.648,32.531,
00:00:17:333,1.207,-0.589,0.288,-35.218,-16.724,19.47,
00:00:17:350,1.315,-0.625,0.109,-26.368,108.093,26.489,
00:00:17:367,1.353,-0.521,0.002,18.005,211.67,41.565,
00:00:17:383,1.37,-0.718,-0.058,74.462,243.408,18.371,
00:00:17:400,1.106,-0.634,0.176,86.608,224.121,39.55,
00:00:17:417,1.12,-0.663,0.192,133.789,208.007,34.729,
00:00:17:433,1.088,-0.722,0.201,88.684,215.332,2.136,
00:00:17:450,0.944,-0.464,0.245,146.362,257.019,14.526,
00:00:17:467,0.752,-0.602,0.516,112.854,197.754,-4.822,
00:00:17:483,0.427,-0.504,0.452,36.499,239.196,-0.245,
00:00:17:500,0.211,-0.251,0.437,162.963,304.687,55.053,
00:00:17:517,0.049,-0.411,0.84,155.151,308.96,42.236,
00:00:17:533,-0.236,-0.383,1.311,169.433,239.99,70.373,
00:00:17:550,-0.506,-0.453,1.583,216.674,109.192,131.836,
00:00:17:567,-0.471,-0.449,1.662,245.483,-44.922,193.786,
00:00:17:583,-0.007,-0.437,1.317,279.602,-116.028,170.654,
00:00:17:600,0.4,-0.667,1.098,246.276,-198.426,72.57,
00:00:17:617,0.465,-0.751,0.859,53.161,-226.807,-33.081,
00:00:17:633,0.412,-0.35,0.772,-23.987,-252.259,-52.43,
00:00:17:650,0.487,-0.597,0.756,-54.505,-269.898,-95.215,
00:00:17:667,0.586,-0.604,0.774,-79.956,-255.616,-90.76,
00:00:17:683,0.615,-0.573,0.689,-91.187,-229.92,-88.562,
00:00:17:700,0.529,-0.488,0.635,-136.414,-244.385,-83.313,
00:00:17:717,0.47,-0.476,0.629,-177.857,-282.654,-62.561,
00:00:17:733,0.437,-0.602,0.714,-134.522,-306.885,-21.607,
00:00:17:750,0.39,-0.576,0.758,-157.593,-329.163,-0.611,
00:00:17:767,0.39,-0.587,0.715,-144.776,-347.046,18.737,
00:00:17:783,0.454,-0.599,0.711,-133.301,-348.206,23.62,
00:00:17:800,0.675,-0.528,0.614,-79.712,-320.13,44.128,
00:00:17:817,0.795,-0.493,0.554,-36.56,-256.775,54.565,
00:00:17:833,1.038,-0.532,0.36,34.057,-146.607,50.476,
00:00:17:850,1.34,-0.538,0.131,46.081,-5.921,28.137,
00:00:17:867,1.471,-0.511,-0.016,-13.794,109.558,-20.63,
00:00:17:883,1.082,-0.525,0.342,-122.376,156.372,-95.398,
00:00:17:900,1.106,-0.426,0.346,-119.812,191.467,-99.06,
00:00:17:917,1.189,-0.55,0.241,19.348,250.366,-83.069,
00:00:17:933,1.107,-0.647,0.302,-15.748,271.179,-115.296,
00:00:17:950,0.936,-0.706,0.487,-92.286,245.483,-149.659,
00:00:17:967,0.642,-0.657,0.469,-129.09,282.226,-114.319,
00:00:17:983,0.356,-0.338,0.43,-54.444,344.482,-40.711,
00:00:18:0,0.277,-0.296,0.641,93.566,340.088,-3.113,
00:00:18:17,0.036,-0.566,1.087,53.405,280.212,-38.941,
00:00:18:33,-0.335,-0.55,1.463,13,159.851,16.967,
00:00:18:50,-0.611,-0.459,1.546,-17.09,37.78,66.589,
00:00:18:67,-0.463,-0.337,1.468,5.004,-50.049,116.699,
00:00:18:83,-0.271,-0.434,1.422,47.302,-147.217,111.145,
00:00:18:100,0.105,-0.496,1.081,-7.752,-181.275,52.307,
00:00:18:117,0.206,-0.555,0.996,-87.708,-213.318,6.836,
00:00:18:133,0.133,-0.481,1.075,-212.159,-267.456,-63.477,
00:00:18:150,0.115,-0.52,1.127,-200.257,-324.341,-69.642,
00:00:18:167,0.158,-0.535,1.059,-222.596,-352.051,-76.416,
00:00:18:183,0.217,-0.55,0.986,-233.216,-335.694,-85.938,
00:00:18:200,0.254,-0.534,0.805,-199.158,-221.619,-40.406,
00:00:18:217,0.538,-0.454,0.679,-158.631,-139.771,26.794,
00:00:18:233,0.844,-0.481,0.509,-222.962,-76.783,-8.667,
00:00:18:250,1.046,-0.426,0.375,-182.373,-7.142,30.7,
00:00:18:267,1.336,-0.414,0.272,-179.017,-7.203,-15.748,
00:00:18:283,1.497,-0.541,-0.001,-130.31,101.257,-40.589,
00:00:18:300,1.424,-0.569,0.019,-163.025,137.512,-98.328,
00:00:18:317,1.284,-0.444,0.106,-205.75,155.639,-98.389,
00:00:18:333,1.098,-0.356,0.251,-134.339,167.236,-72.022,
00:00:18:350,1.135,-0.314,0.338,-23.011,182.434,-79.346,
00:00:18:367,1.044,-0.392,0.401,0.366,213.317,-125.977,
00:00:18:383,0.989,-0.393,0.488,-0.977,249.511,-148.438,
00:00:18:400,0.911,-0.553,0.773,-51.514,184.509,-209.412,
00:00:18:417,0.58,-0.645,0.688,-148.438,268.005,-175.904,
00:00:18:433,0.422,-0.248,0.556,-168.274,385.742,-63.721,
00:00:18:450,0.347,-0.219,0.713,-3.113,459.289,-36.377,
00:00:18:467,0.152,-0.475,0.989,47.546,515.991,-31.556,
00:00:18:483,-0.163,-0.555,1.355,51.696,482.177,-10.987,
00:00:18:500,-0.457,-0.442,1.494,-44.922,434.387,-3.357,
00:00:18:517,-0.323,-0.408,1.48,-37.415,331.97,2.563,
00:00:18:533,-0.352,-0.796,1.645,7.324,148.681,-6.531,
00:00:18:550,0.213,-0.547,1.156,-98.45,84.228,34.362,
00:00:18:567,0.113,-0.38,1.036,-162.598,-25.452,2.38,
00:00:18:583,0.103,-0.372,1.107,-164.124,-136.597,-27.71,
00:00:18:600,0.134,-0.554,1.103,-195.069,-271.851,-67.2,
00:00:18:617,0.2,-0.616,0.971,-238.221,-371.644,-88.929,
00:00:18:633,0.189,-0.508,0.865,-305.726,-338.99,-79.407,
00:00:18:650,0.284,-0.402,0.699,-310.608,-260.254,-38.453,
00:00:18:667,0.64,-0.344,0.54,-308.716,-128.113,-11.597,
00:00:18:683,1.027,-0.278,0.351,-347.535,-16.602,-7.019,
00:00:18:700,1.131,-0.31,0.324,-310.73,94.116,-48.401,
00:00:18:717,1.384,-0.258,0.346,-318.116,141.357,-140.564,
00:00:18:733,1.484,-0.392,0.207,-286.255,252.685,-236.939,
00:00:18:750,1.377,-0.408,0.146,-235.901,341.064,-285.035,
00:00:18:767,1.284,-0.419,0.273,-238.221,380.798,-323.182,
00:00:18:783,1.193,-0.255,0.373,-299.561,437.622,-308.35,
00:00:18:800,1.02,-0.225,0.477,-325.379,527.954,-338.501,
00:00:18:817,1.108,-0.163,0.501,-261.414,568.725,-315.552,
00:00:18:833,0.985,-0.323,0.641,-263.489,554.321,-353.638,
00:00:18:850,0.796,-0.379,0.71,-329.163,516.052,-354.065,
00:00:18:867,0.511,-0.281,0.612,-455.14,575.622,-364.014,
00:00:18:883,0.384,-0.173,0.692,-361.023,566.406,-335.083,
00:00:18:900,0.346,-0.29,0.937,-170.472,481.384,-336.426,
00:00:18:917,0.329,-0.681,1.456,-135.865,234.863,-327.759,
00:00:18:933,0.234,-0.51,1.377,-466.492,111.572,-248.658,
00:00:18:950,0.239,-0.257,1.649,-294.373,-153.748,-322.571,
00:00:18:967,0.211,-0.892,1.505,-332.398,-265.015,-426.575,
00:00:18:983,0.064,-0.637,1.477,-581.91,-302.735,-450.501,
00:00:19:0,0.069,-0.454,1.262,-679.505,-311.768,-530.335,
00:00:19:17,0.097,-0.536,1.038,-664.978,-317.383,-621.338,
00:00:19:33,0.106,-0.549,0.8,-789.307,-258.179,-645.997,
00:00:19:50,0.149,-0.495,0.639,-754.456,-200.562,-656.311,
00:00:19:67,0.17,-0.394,0.539,-783.936,-41.871,-588.623,
00:00:19:83,0.164,-0.416,0.409,-761.719,118.53,-569.092,
00:00:19:100,0.325,-0.343,0.278,-737.061,255.432,-526.49,
00:00:19:117,0.421,-0.361,0.172,-694.581,393.798,-496.766,
00:00:19:133,0.556,-0.417,0.141,-640.748,449.89,-468.14,
00:00:19:150,0.542,-0.453,0.193,-630.31,506.836,-440.186,
00:00:19:167,0.687,-0.394,0.2,-596.497,549.255,-392.09,
00:00:19:183,0.69,-0.334,0.253,-511.353,567.199,-342.835,
00:00:19:200,0.777,-0.354,0.273,-416.871,559.204,-313.965,
00:00:19:217,0.802,-0.358,0.305,-368.775,535.461,-288.758,
00:00:19:233,0.797,-0.385,0.364,-293.885,495.605,-256.958,
00:00:19:250,0.8,-0.389,0.386,-259.827,459.35,-240.54,
00:00:19:267,0.764,-0.364,0.415,-216.126,405.578,-240.052,
00:00:19:283,0.728,-0.389,0.417,-156.189,343.689,-251.282,
00:00:19:300,0.675,-0.421,0.434,-147.767,301.513,-246.094,
00:00:19:317,0.459,-0.823,0.607,-234.375,-307.679,-293.152,
00:00:19:333,0.584,0.414,0.736,-26.856,-223.206,-268.921,
00:00:19:350,0.591,-0.335,0.842,326.66,-165.039,-271.851,
00:00:19:367,0.532,-0.604,0.925,88.989,-139.466,-258.851,
00:00:19:383,0.485,-0.359,0.977,26.245,-132.508,-241.394,
00:00:19:400,0.4,-0.604,0.932,-26.612,-133.728,-225.098,
00:00:19:417,0.302,-0.634,0.959,-105.774,-147.828,-231.324,
00:00:19:433,0.231,-0.602,0.836,-141.541,-125.794,-226.258,
00:00:19:450,0.216,-0.487,0.791,-163.453,-120.484,-226.624,
00:00:19:467,0.435,-0.215,0.824,-206.421,-144.715,-245.057,
00:00:19:483,0.555,-0.306,0.798,-110.047,-192.139,-235.047,
00:00:19:500,0.605,-0.383,0.572,-138.489,-171.143,-171.265,
00:00:19:517,0.853,-0.258,0.492,-93.689,-123.047,-119.141,
00:00:19:533,1.125,-0.313,0.583,-63.294,-134.278,-122.315,
00:00:19:550,1.097,-0.429,0.557,-84.839,-93.995,-119.996,
00:00:19:567,1.223,-0.168,0.42,-156.678,-21.424,-72.693,
00:00:19:583,1.311,0.023,0.379,-113.831,58.593,-38.086,
00:00:19:600,1.331,0.061,0.366,-67.749,112.976,-4.7,
00:00:19:617,1.174,-0.095,0.484,-21.302,135.498,15.502,
00:00:19:633,1.141,-0.081,0.508,-5.372,171.447,39.062,
00:00:19:650,1.076,-0.086,0.533,20.446,207.763,71.96,
00:00:19:667,1.041,-0.042,0.489,33.752,243.103,94.116,
00:00:19:683,0.978,-0.195,0.592,54.138,275.146,74.279,
00:00:19:700,0.86,-0.398,0.52,-53.223,327.27,50.598,
00:00:19:717,0.844,-0.195,0.555,-59.266,378.418,82.214,
00:00:19:733,0.457,0.033,0.55,-182.068,429.382,192.138,
00:00:19:750,0.368,-0.308,0.809,-9.339,422.18,184.631,
00:00:19:767,0.208,-0.493,0.877,-9.644,430.42,245.727,
00:00:19:783,0.145,-0.688,1.101,59.265,323.913,253.234,
00:00:19:800,0.128,-0.716,1.066,-84.595,218.567,224.121,
00:00:19:817,0.097,-0.55,1.004,-171.936,171.081,164.734,
00:00:19:833,0.071,-0.595,0.883,-275.635,162.231,95.764,
00:00:19:850,0.169,-0.334,1.083,-190.674,37.902,9.643,
00:00:19:867,0.373,-0.43,1.058,-101.868,-70.191,-42.908,
00:00:19:883,0.545,-0.101,1.014,108.947,-132.142,-44.19,
00:00:19:900,0.609,-0.261,0.83,55.725,-137.207,-63.721,
00:00:19:917,0.729,-0.136,0.569,24.78,-95.398,-92.041,
00:00:19:933,0.671,-0.473,0.761,66.04,-103.394,-153.504,
00:00:19:950,0.702,-0.457,0.815,-2.686,-52.979,-175.904,
00:00:19:967,0.738,-0.333,0.8,-9.583,-14.527,-173.951,
00:00:19:983,0.762,-0.323,0.803,-12.94,20.752,-202.881,
00:00:20:0,0.827,-0.276,0.873,-66.895,-9.705,-231.324,
00:00:20:17,0.792,-0.323,0.805,-122.681,-12.94,-278.077,
00:00:20:33,1.011,-0.817,0.755,-85.083,-38.514,-363.892,
00:00:20:50,1.068,-0.27,0.78,-112.977,-80.079,-375.306,
00:00:20:67,0.925,-0.424,0.987,-63.599,-94.727,-397.583,
00:00:20:83,0.831,-0.346,0.832,-162.659,-118.775,-339.295,
00:00:20:100,0.671,-0.267,0.782,-158.753,-107.056,-301.026,
00:00:20:117,0.438,-0.232,0.698,-183.96,-59.998,-235.352,
00:00:20:133,0.282,-0.142,0.61,-204.956,-16.541,-160.767,
00:00:20:150,0.166,-0.094,0.503,-193.238,20.629,-105.347,
00:00:20:167,0.139,-0.055,0.398,-163.941,24.108,-52.002,
00:00:20:183,0.119,-0.099,0.327,-138.55,24.292,-11.841,
00:00:20:200,0.144,-0.169,0.276,-94.178,34.545,27.465,
00:00:20:217,0.249,-0.214,0.328,-76.477,49.56,56.762,
00:00:20:233,0.294,-0.28,0.411,-43.396,107.544,79.834,
00:00:20:250,0.396,-0.316,0.372,-62.623,173.95,93.627,
00:00:20:267,0.466,-0.328,0.353,-64.515,212.463,79.467,
00:00:20:283,0.501,-0.362,0.458,-20.997,261.779,43.64,
00:00:20:300,0.522,-0.393,0.424,-2.747,303.65,6.652,
00:00:20:317,0.663,-0.316,0.605,38.818,293.945,-42.786,
00:00:20:333,2.398,0.541,2.105,414.795,-657.349,-25.574,
00:00:20:350,0.145,-1.636,1.389,750.488,-508.606,-219.178,
00:00:20:367,0.587,-0.788,0.337,-293.824,-296.082,-98.755,
00:00:20:383,0.658,0.391,0.929,-9.583,-372.437,-168.274,
00:00:20:400,0.407,-0.543,0.927,347.229,-254.151,-149.903,
00:00:20:417,0.706,-0.442,0.812,74.218,-223.938,-122.071,
00:00:20:433,0.584,-0.323,0.921,74.34,-239.075,-62.928,
00:00:20:450,0.508,-0.422,0.907,32.592,-215.821,-31.922,
00:00:20:467,0.515,-0.476,0.846,-22.706,-185.364,18.554,
00:00:20:483,0.549,-0.498,0.805,-22.4,-149.231,69.702,
00:00:20:500,0.595,-0.481,0.828,-88.807,-149.292,106.75,
00:00:20:517,0.748,-0.291,0.788,-65.857,-135.621,157.714,
00:00:20:533,0.88,-0.416,0.705,8.544,-156.067,173.95,
00:00:20:550,1.015,-0.246,0.471,-37.903,-147.889,208.618,
00:00:20:567,1.089,-0.044,0.33,78.308,-108.033,200.317,
00:00:20:583,1.36,0.05,0.453,337.341,-182.435,117.981,
00:00:20:600,1.022,-0.37,0.554,315.002,-153.565,78.491,
00:00:20:617,1.468,0.001,0.642,440.429,-348.755,99.365,
00:00:20:633,0.959,-0.304,0.707,369.629,-363.77,13.427,
00:00:20:650,0.925,-0.245,0.518,218.261,-325.806,45.288,
00:00:20:667,0.578,-0.149,0.327,112.243,-234.253,134.216,
00:00:20:683,0.357,0.069,0.288,65.063,-84.534,188.293,
00:00:20:700,0.22,0.003,0.189,117.736,101.989,288.635,
00:00:20:717,0.16,-0.07,0.227,120.605,220.153,374.633,
00:00:20:733,0.12,-0.137,0.23,129.943,328.369,464.111,
00:00:20:750,0.103,-0.219,0.267,164.245,451.416,555.42,
00:00:20:767,0.156,-0.303,0.535,241.882,559.204,604.675,
00:00:20:783,2.122,-2.649,3.017,1306.03,-805.176,-392.395,
00:00:20:800,-0.571,-1.484,0.934,-44.19,-391.541,263.366,
00:00:20:817,0.235,0.28,0.706,-94.788,-374.695,40.039,
00:00:20:833,0.36,-0.38,0.842,587.585,-207.52,207.58,
00:00:20:850,0.648,-0.545,0.965,165.893,-193.482,106.445,
00:00:20:867,0.742,-0.16,0.763,97.9,-63.233,151.916,
00:00:20:883,0.769,-0.27,0.733,126.709,39.245,162.536,
00:00:20:900,0.794,-0.339,0.771,94.238,139.648,171.447,
00:00:20:917,0.816,-0.445,0.807,70.495,233.52,187.866,
00:00:20:933,0.791,-0.291,0.708,-19.349,366.76,250.915,
00:00:20:950,0.782,-0.264,0.536,-7.019,409.668,265.014,
00:00:20:967,0.713,-0.333,0.558,56.945,421.692,258.85,rollLH
00:00:20:983,0.575,-0.487,0.697,113.525,396.789,253.845,
00:00:21:0,0.467,-0.541,0.737,80.139,348.632,244.384,
00:00:21:17,0.34,-0.528,0.781,130.31,273.498,241.027,
00:00:21:33,0.277,-0.533,0.836,188.781,176.513,223.266,
00:00:21:50,0.297,-0.506,1.014,230.529,9.399,140.991,
00:00:21:67,0.223,-0.747,0.907,189.88,-61.585,84.472,
00:00:21:83,0.184,-0.596,1.1,201.172,-258.423,-35.34,
00:00:21:100,0.099,-0.693,0.987,130.127,-330.811,-133.484,
00:00:21:117,-0.036,-0.513,0.775,-15.503,-293.091,-169.861,
00:00:21:133,-0.049,-0.351,0.563,-68.482,-194.031,-185.608,
00:00:21:150,-0.082,-0.309,0.317,-126.587,-11.841,-128.052,
00:00:21:167,0.061,-0.202,0.243,-183.35,238.769,-26.062,
00:00:21:183,2.095,0.634,1.807,247.375,-493.775,-295.716,
00:00:21:200,-0.354,-1.73,1.344,282.592,-309.327,-238.831,
00:00:21:217,0.404,0.194,0.556,-485.779,-242.676,-236.573,
00:00:21:233,0.51,-0.529,1.084,100.219,-182.129,-184.266,
00:00:21:250,0.419,-0.62,1.008,-217.408,-148.133,-166.871,
00:00:21:267,0.597,-0.358,0.65,-205.384,-116.7,-113.709,
00:00:21:283,0.697,-0.244,0.664,-51.392,-112.977,-59.754,
00:00:21:300,0.683,-0.526,0.729,-79.346,-107.605,-54.871,
00:00:21:317,0.627,-0.48,0.678,-107.239,-93.445,-17.945,
00:00:21:333,0.768,-0.38,0.66,-125.794,-66.834,6.958,
00:00:21:350,0.826,-0.264,0.569,-119.873,-39.49,48.339,
00:00:21:367,0.977,-0.381,0.47,-50.11,-30.396,85.388,
00:00:21:383,1.068,-0.258,0.365,-87.525,-10.743,130.249,
00:00:21:400,1.182,-0.157,0.201,-17.029,25.512,146.972,
00:00:21:417,1.292,-0.118,0.112,67.077,48.584,144.226,
00:00:21:433,1.254,-0.265,0.242,143.127,11.413,110.534,
00:00:21:450,0.941,-0.35,0.379,132.873,-14.405,64.453,
00:00:21:467,1.079,0.035,0.33,112.182,-16.968,55.481,
00:00:21:483,1.096,0.04,0.336,220.398,7.08,29.052,
00:00:21:500,1.012,-0.258,0.535,288.818,38.879,18.005,
00:00:21:517,0.976,-0.362,0.503,143.127,112.304,17.028,
00:00:21:533,0.893,-0.326,0.521,119.751,181.701,56.03,
00:00:21:550,0.779,-0.308,0.606,157.837,185.974,70.068,
00:00:21:567,0.669,-0.521,0.705,201.049,169.738,90.698,
00:00:21:583,0.412,-0.584,0.694,165.161,157.898,135.559,
00:00:21:600,0.261,-0.583,0.821,189.27,147.888,187.255,
00:00:21:617,0.051,-0.7,0.995,255.249,96.679,218.567,
00:00:21:633,-0.159,-0.73,1.125,223.144,6.836,213.379,
00:00:21:650,-0.285,-0.672,1.237,241.882,-88.746,203.918,
00:00:21:667,-0.296,-0.651,1.288,221.801,-177.735,172.79,
00:00:21:683,-0.088,-0.443,1.176,174.438,-245.362,115.783,
00:00:21:700,0.195,-0.502,1.05,186.34,-298.401,55.236,
00:00:21:717,0.223,-0.479,1.006,121.765,-309.449,1.953,
00:00:21:733,0.235,-0.485,0.994,142.273,-328.675,-30.701,
00:00:21:750,0.289,-0.515,1.017,124.45,-308.289,-32.532,
00:00:21:767,0.33,-0.418,0.937,22.705,-272.522,-44.739,
00:00:21:783,0.461,-0.434,0.854,12.756,-233.521,-43.396,
00:00:21:800,0.623,-0.402,0.734,26.672,-210.083,-34.485,
00:00:21:817,0.797,-0.423,0.622,45.166,-186.402,-19.349,
00:00:21:833,0.927,-0.444,0.489,7.507,-145.569,16.357,
00:00:21:850,1.031,-0.391,0.428,-4.639,-113.038,36.56,
00:00:21:867,1.232,-0.299,0.231,-11.658,-70.252,90.148,
00:00:21:883,1.38,-0.168,0.115,32.287,-22.278,126.709,
00:00:21:900,1.426,-0.225,0.144,100.28,-6.775,114.135,
00:00:21:917,1.199,-0.398,0.319,156.128,-16.114,99.67,
00:00:21:933,1.177,-0.196,0.37,47.912,-8.606,89.05,
00:00:21:950,1.164,0.117,0.228,58.776,90.454,114.074,
00:00:21:967,1.2,0.053,0.196,185.913,235.595,72.143,
00:00:21:983,1.049,-0.489,0.528,267.089,250.244,13.855,
00:00:22:0,0.783,-0.656,0.656,173.217,323.73,72.753,
00:00:22:17,0.428,-0.63,0.808,119.506,346.496,136.963,
00:00:22:33,0.123,-0.561,1.106,150.879,349.182,177.002,
00:00:22:50,-0.283,-0.8,1.364,199.707,304.138,182.312,
00:00:22:67,-0.411,-0.596,1.266,90.698,254.272,194.824,
00:00:22:83,-0.475,-0.58,1.338,221.191,165.954,192.993,
00:00:22:100,-0.219,-0.664,1.279,200.134,51.208,153.686,
00:00:22:117,0.106,-0.569,1.085,103.881,-72.632,57.128,
00:00:22:133,0.336,-0.491,0.91,125.488,-182.679,45.166,
00:00:22:150,0.329,-0.42,0.859,104.004,-251.038,-5.616,
00:00:22:167,0.118,-0.576,1.001,156.799,-374.268,-21.485,
00:00:22:183,0.3,-0.582,0.942,81.237,-466.126,-36.683,
00:00:22:200,0.373,-0.428,0.867,-0.916,-485.474,-18.982,
00:00:22:217,0.607,-0.341,0.763,76.538,-455.14,6.225,
00:00:22:233,0.68,-0.531,0.732,62.377,-403.199,-5.066,
00:00:22:250,0.782,-0.399,0.538,-17.029,-350.098,13.549,
00:00:22:267,1.165,-0.24,0.338,-70.862,-290.894,31.311,
00:00:22:283,1.288,-0.355,0.214,38.818,-181.824,87.89,
00:00:22:300,1.504,-0.311,0.175,-32.898,-117.676,88.134,
00:00:22:317,1.582,-0.104,0.002,-20.935,-20.752,89.233,
00:00:22:333,1.286,-0.266,0.153,65.49,29.785,12.695,
00:00:22:350,1.189,-0.281,0.29,40.161,13.488,-15.259,
00:00:22:367,1.303,-0.041,0.241,38.269,49.804,-18.921,
00:00:22:383,1.248,-0.127,0.272,91.064,113.342,-45.105,
00:00:22:400,0.972,-0.405,0.299,51.635,209.533,-42.969,
00:00:22:417,0.961,-0.218,0.46,27.648,239.502,-8.973,
00:00:22:433,0.554,-0.626,0.717,222.839,296.753,26.977,
00:00:22:450,0.249,-0.626,0.896,97.412,264.221,55.236,
00:00:22:467,-0.163,-0.614,1.094,161.071,266.235,112.854,
00:00:22:483,-0.405,-0.654,1.4,188.964,194.213,103.393,
00:00:22:500,-0.501,-0.855,1.605,46.936,20.08,93.872,
00:00:22:517,-0.027,-0.506,1.187,14.892,-68.543,69.213,
00:00:22:533,0.252,-0.495,0.977,71.533,-101.319,35.095,
00:00:22:550,0.306,-0.487,0.879,21.362,-154.908,-0.977,
00:00:22:567,0.13,-0.466,0.96,22.033,-208.558,-2.32,
00:00:22:583,0.282,-0.526,0.956,2.258,-305.726,-13.306,
00:00:22:600,0.297,-0.547,0.923,-26.795,-358.033,2.624,
00:00:22:617,0.464,-0.482,0.856,-20.264,-374.146,28.503,
00:00:22:633,0.608,-0.57,0.701,-98.145,-354.737,39.611,
00:00:22:650,0.938,-0.405,0.466,-129.09,-283.997,73.913,
00:00:22:667,1.184,-0.278,0.182,-125.061,-171.265,96.557,
00:00:22:683,1.493,-0.064,0.02,-72.571,-98.999,107.91,
00:00:22:700,1.551,-0.146,0.046,-9.4,-13.733,34.973,
00:00:22:717,1.172,-0.19,0.425,-19.288,78.979,-100.098,
00:00:22:733,1.177,-0.061,0.317,29.113,134.277,-112,
00:00:22:750,1.036,-0.215,0.391,54.077,177.49,-157.349,
00:00:22:767,0.84,-0.405,0.478,29.846,244.323,-138.245,
00:00:22:783,0.367,-0.451,0.757,72.326,248.596,-75.623,
00:00:22:800,0.121,-0.584,1.019,127.868,227.111,-60.914,
00:00:22:817,-0.16,-0.776,1.327,95.703,162.048,-63.538,
00:00:22:833,-0.413,-0.783,1.488,43.457,51.269,-36.499,
00:00:22:850,-0.432,-0.689,1.442,40.222,-47.913,-20.142,
00:00:22:867,-0.126,-0.594,1.231,49.438,-144.837,-29.786,
00:00:22:883,0.288,-0.479,1.035,101.562,-187.073,-45.777,
00:00:22:900,0.293,-0.546,0.897,9.338,-226.99,-108.948,
00:00:22:917,0.16,-0.416,0.801,-5.066,-218.323,-88.868,
00:00:22:933,0.241,-0.516,0.889,26.672,-261.353,-112.549,
00:00:22:950,0.384,-0.6,0.853,4.333,-280.701,-104.92,
00:00:22:967,0.486,-0.484,0.794,-52.796,-296.631,-93.628,
00:00:22:983,0.977,-0.501,0.555,-127.442,-169.739,27.343,
00:00:23:0,1.088,-0.465,0.418,-125.977,-98.206,93.139,
00:00:23:17,1.151,-0.441,0.357,-116.639,-29.908,123.474,
00:00:23:33,1.292,-0.346,0.292,-52.918,41.565,155.029,
00:00:23:50,1.358,-0.343,0.328,67.627,114.929,159.118,
00:00:23:67,1.252,-0.366,0.309,254.638,118.103,32.409,
00:00:23:83,1.167,-0.407,0.224,394.592,77.392,-25.574,
00:00:23:100,1.046,-0.452,0.062,699.157,183.288,-121.338,
00:00:23:117,1.063,-0.739,0.041,928.283,216.003,-217.652,
00:00:23:133,0.81,-0.946,0.153,855.529,259.277,-327.149,
00:00:23:150,0.722,-0.972,0.312,770.08,236.389,-343.811,
00:00:23:167,0.52,-0.848,0.307,748.84,269.348,-353.333,
00:00:23:183,0.388,-0.779,0.385,748.23,305.664,-321.289,
00:00:23:200,0.344,-0.72,0.446,667.419,397.461,-255.433,
00:00:23:217,0.255,-0.553,0.339,609.497,420.715,-244.751,
00:00:23:233,0.28,-0.53,0.403,630.066,399.658,-239.624,
00:00:23:250,0.161,-0.554,0.438,557.006,381.286,-233.46,
00:00:23:267,0.109,-0.61,0.455,586.731,366.699,-174.134,
00:00:23:283,0.1,-0.802,0.482,656.433,333.435,-122.01,
00:00:23:300,0.169,-0.899,0.512,619.995,245.971,-46.021,
00:00:23:317,0.236,-0.938,0.481,451.355,103.454,-13.489,
00:00:23:333,0.233,-0.927,0.551,246.643,-13.306,-7.935,
00:00:23:350,0.226,-0.824,0.626,40.222,-113.587,1.281,
00:00:23:367,0.251,-0.67,0.712,0.305,-222.779,36.926,
00:00:23:383,0.239,-0.557,0.808,74.707,-283.631,74.707,
00:00:23:400,0.252,-0.658,0.843,30.09,-332.032,103.149,
00:00:23:417,0.246,-0.62,0.823,-183.106,-393.067,153.076,
00:00:23:433,0.274,-0.418,0.76,-352.356,-460.022,210.022,
00:00:23:450,0.294,-0.308,0.692,-378.602,-486.39,284.301,
00:00:23:467,0.487,-0.201,0.316,-393.616,-541.26,339.416,
00:00:23:483,0.723,-1.307,0.827,-215.943,-739.441,164.55,
00:00:23:500,0.739,-0.879,1.454,-718.079,-848.633,145.141,
00:00:23:517,0.392,-0.173,1.238,-585.694,-731.446,310.974,
00:00:23:533,0.307,-0.098,0.904,-217.957,-682.984,436.95,
00:00:23:550,0.297,-0.211,0.764,-173.951,-663.147,510.254,
00:00:23:567,0.327,-0.266,0.858,-135.193,-683.228,464.599,
00:00:23:583,0.48,-0.693,0.869,82.275,-609.009,440.063,
00:00:23:600,0.577,-0.85,0.676,300.659,-484.009,378.906,
00:00:23:617,0.693,-0.883,0.704,403.747,-376.16,250.061,
00:00:23:633,0.791,-0.996,0.517,182.495,-289.185,79.895,
00:00:23:650,0.939,-0.911,0.211,209.472,-147.461,28.93,
00:00:23:667,1.03,-0.885,0.182,236.694,-48.768,4.394,
00:00:23:683,1.058,-0.774,0.036,196.899,80.932,-4.944,
00:00:23:700,0.833,-0.609,0.217,144.287,138.672,6.347,
00:00:23:717,0.609,-0.534,0.417,96.862,111.45,26.855,
00:00:23:733,0.513,-0.578,0.582,118.957,18.92,71.228,
00:00:23:750,0.6,-0.768,0.508,201.11,-40.406,106.567,
00:00:23:767,0.655,-0.863,0.453,281.433,-34.729,119.079,
00:00:23:783,0.651,-0.769,0.387,339.111,-8.667,104.736,
00:00:23:800,0.78,-0.7,0.11,229.004,84.106,-20.997,
00:00:23:817,0.929,-0.706,-0.026,108.825,212.951,-133.057,
00:00:23:833,0.984,-0.718,0.038,45.837,377.136,-190.064,
00:00:23:850,0.822,-0.704,0.352,75.622,498.596,-188.782,
00:00:23:867,0.624,-0.762,0.518,-3.54,547.424,-223.206,
00:00:23:883,0.438,-0.721,0.621,-103.028,575.866,-202.21,
00:00:23:900,0.106,-0.323,0.553,-177.552,645.813,-146.668,
00:00:23:917,-0.045,-0.303,0.856,-111.573,572.265,-104.554,
00:00:23:933,-0.086,-0.362,1.348,-168.274,272.4,-41.077,
00:00:23:950,0.062,-0.291,1.632,-272.461,-97.29,33.203,
00:00:23:967,0.296,-0.402,1.451,-316.04,-390.931,104.736,
00:00:23:983,0.561,-0.628,0.957,-448.304,-477.356,34.545,
00:00:24:0,0.642,-0.461,0.818,-406.8,-531.678,7.812,
00:00:24:17,0.455,-0.519,1.056,-211.609,-572.693,68.237,
00:00:24:33,0.218,-0.366,1.014,-116.883,-595.887,153.32,
00:00:24:50,0.207,-0.48,0.841,-33.387,-625.306,248.23,
00:00:24:67,0.271,-0.424,0.714,-51.026,-597.84,246.338,
00:00:24:83,0.463,-0.456,0.617,-88.501,-591.065,230.529,
00:00:24:100,0.467,-0.538,0.788,-20.691,-628.663,284.973,
00:00:24:117,1.49,-1.238,0.18,-164.856,-610.657,-71.106,
00:00:24:133,1.386,-1.123,-0.1,-107.544,-336.304,-16.114,
00:00:24:150,1.167,-0.382,-0.242,158.996,22.644,58.166,
00:00:24:167,1.369,-0.754,-0.37,470.764,239.99,-80.567,
00:00:24:183,1.139,-1.298,-0.015,271.484,308.654,-164.185,
00:00:24:200,0.712,-0.766,0.467,59.143,273.742,-42.176,
00:00:24:217,0.764,-0.689,0.207,115.417,284.912,-73.121,
00:00:24:233,0.821,-0.647,0.004,176.147,405.09,-72.876,
00:00:24:250,0.654,-0.735,0.529,88.806,356.811,-109.864,
00:00:24:267,0.305,-0.482,0.641,15.991,345.459,-97.107,
00:00:24:283,0.599,-0.692,0.515,60.974,341.735,-120.301,
00:00:24:300,0.24,-0.512,0.885,13.671,328.857,-83.741,
00:00:24:317,0.286,-0.683,0.939,-35.035,265.564,-121.949,
00:00:24:333,0.071,-0.544,1.107,-161.805,173.828,-69.153,
00:00:24:350,0.028,-0.311,1.251,-175.721,25.695,-31.067,
00:00:24:367,0.012,-0.144,1.363,-184.082,-108.948,30.395,
00:00:24:383,0.236,-0.212,1.05,-114.014,-195.374,46.814,
00:00:24:400,0.436,-0.584,0.849,-117.371,-234.314,6.774,
00:00:24:417,0.377,-0.553,0.897,-133.851,-275.94,19.897,
00:00:24:433,0.25,-0.426,1.011,-83.13,-379.029,94.787,
00:00:24:450,0.209,-0.408,1.086,-25.269,-469.544,155.7,
00:00:24:467,0.365,-0.545,0.901,-112.915,-521.302,162.109,
00:00:24:483,0.671,-0.432,0.553,-122.254,-573.975,167.236,
00:00:24:500,1.025,-0.997,0.243,-346.802,-420.716,-45.777,
00:00:24:517,0.911,-0.402,0.076,-161.438,-216.614,64.88,
00:00:24:533,1.232,-0.703,-0.144,6.836,-26.978,-89.234,
00:00:24:550,1.327,-1.066,-0.087,96.008,146.362,-135.56,
00:00:24:567,1.031,-0.995,0.291,69.885,227.417,-123.414,
00:00:24:583,0.726,-0.757,0.478,115.478,185.608,-58.411,
00:00:24:600,0.803,-0.777,0.188,167.846,172.546,-52.002,
00:00:24:617,0.879,-0.787,-0.013,179.26,251.342,-69.214,
00:00:24:633,0.914,-0.685,0.093,183.838,342.834,-101.99,
00:00:24:650,0.722,-0.712,0.532,270.63,380.31,-91.004,
00:00:24:667,0.709,-0.575,0.3,149.292,435.669,-152.588,
00:00:24:683,0.497,-0.816,0.5,152.465,514.099,-144.715,
00:00:24:700,0.263,-0.505,0.831,90.454,472.473,-86.121,
00:00:24:717,0.227,-0.714,1.038,-18.921,366.516,-80.506,
00:00:24:733,-0.259,-0.3,1.377,-124.817,249.145,2.502,
00:00:24:750,-0.141,0.016,1.273,8.972,107.483,64.636,
00:00:24:767,-0.095,-0.2,1.549,-63.233,-69.153,87.158,
00:00:24:783,0.221,-0.241,1.31,-113.221,-204.773,83.496,
00:00:24:800,0.309,-0.512,1.125,-182.862,-296.448,54.199,
00:00:24:817,0.296,-0.346,1.022,-282.837,-361.206,30.578,
00:00:24:833,0.319,-0.453,1.062,-157.593,-446.473,68.664,
00:00:24:850,0.353,-0.485,0.981,-141.541,-507.752,108.642,
00:00:24:867,0.358,-0.459,0.941,-152.588,-542.908,128.967,
00:00:24:883,0.417,-0.433,0.603,-234.375,-543.763,156.738,
00:00:24:900,0.378,-0.606,0.734,-165.284,-539.978,216.98,
00:00:24:917,0.72,-0.517,0.422,-239.258,-487.061,143.31,
00:00:24:933,1.032,-0.808,0.238,-248.658,-374.939,17.883,
00:00:24:950,1.084,-0.787,0.083,-123.169,-167.725,-12.818,
00:00:24:967,1.243,-0.754,-0.041,27.71,8.422,-75.257,
00:00:24:983,1.284,-0.934,0.022,143.982,180.542,-141.907,
00:00:25:0,0.951,-0.819,0.424,146.057,235.901,-94.605,
00:00:25:17,0.754,-0.769,0.444,170.471,222.351,-55.359,
00:00:25:33,0.867,-0.835,0.254,246.765,244.018,-50.965,
00:00:25:50,0.828,-0.799,0.323,121.032,269.592,-104.981,
00:00:25:67,0.762,-0.686,0.464,66.772,325.012,-153.992,
00:00:25:83,0.492,-0.553,0.543,28.137,376.953,-153.321,
00:00:25:100,0.531,-0.549,0.561,81.665,436.401,-173.523,
00:00:25:117,0.301,-0.423,0.782,80.993,474.792,-143.311,
00:00:25:133,0.232,-0.425,0.838,80.322,457.275,-148.56,
00:00:25:150,0.053,-0.448,1.065,24.536,398.376,-134.278,
00:00:25:167,-0.111,-0.193,1.331,-54.444,268.615,-99.732,
00:00:25:183,-0.18,-0.134,1.481,-127.991,91.064,-55.97,
00:00:25:200,-0.042,-0.191,1.364,-191.712,-50.843,-28.443,
00:00:25:217,0.227,-0.495,1.202,-284.546,-175.415,-61.097,
00:00:25:233,0.234,-0.364,1.152,-349.549,-282.288,-30.823,
00:00:25:250,0.175,-0.293,1.122,-276.246,-396.18,34.668,
00:00:25:267,0.11,-0.305,1.161,-213.929,-503.663,117.981,
00:00:25:283,0.227,-0.459,0.941,-206.116,-561.036,159.24,
00:00:25:300,0.257,-0.546,0.861,-167.176,-516.236,204.223,
00:00:25:317,0.582,-0.481,0.592,-156.861,-458.68,152.526,
00:00:25:333,1.006,-0.68,0.337,-209.473,-384.4,25.817,
00:00:25:350,1.345,-1.036,-0.166,-204.163,-144.349,-150.574,
00:00:25:367,1.266,-0.674,-0.147,11.474,71.289,-60.669,
00:00:25:383,1.45,-0.987,-0.015,56.213,179.809,-207.642,
00:00:25:400,1.29,-1.015,0.212,2.746,267.883,-202.881,
00:00:25:417,0.897,-0.763,0.403,46.814,267.028,-153.748,
00:00:25:433,0.888,-0.769,0.253,92.102,270.813,-166.871,
00:00:25:450,0.611,-0.598,0.627,104.858,398.193,-236.39,
00:00:25:467,0.406,-0.561,0.595,162.719,470.642,-205.689,
00:00:25:483,0.324,-0.574,0.799,180.053,429.931,-190.247,
00:00:25:500,0.408,-0.545,0.731,131.164,460.327,-216.736,
00:00:25:517,0.241,-0.503,0.921,217.651,482.299,-155.152,
00:00:25:533,0.243,-0.489,1.009,263.305,480.224,-132.752,
00:00:25:550,0.216,-0.496,1.132,370.361,498.901,-64.637,
00:00:25:567,0.139,-0.417,1.338,541.442,499.755,-23.499,
00:00:25:583,0.1,-0.489,1.332,656.067,441.467,-37.903,
00:00:25:600,0.232,-0.428,1.033,726.684,307.312,-67.139,
00:00:25:617,0.41,-0.375,0.848,1141.54,242.797,5.371,
00:00:25:633,0.535,-0.69,0.801,1112.243,127.624,6.347,
00:00:25:650,0.679,-0.598,0.573,1173.217,130.188,34.301,
00:00:25:667,0.593,-0.95,0.527,1040.161,155.944,-19.837,
00:00:25:683,0.574,-0.669,0.507,597.168,154.235,-34.302,
00:00:25:700,1.086,-0.902,0.723,574.463,113.647,-94.91,
00:00:25:717,0.824,-0.743,0.4,291.565,144.287,-151.246,
00:00:25:733,0.741,-0.859,0.275,62.744,169.494,-239.747,
00:00:25:750,0.629,-0.755,0.29,86.12,198.12,-227.295,
00:00:25:767,0.57,-0.703,0.26,120.788,199.829,-227.784,
00:00:25:783,0.535,-0.671,0.238,206.482,192.81,-212.525,
00:00:25:800,0.501,-0.728,0.27,180.481,170.532,-210.816,
00:00:25:817,0.487,-0.761,0.239,53.833,127.441,-215.149,
00:00:25:833,0.474,-0.797,0.259,-42.481,58.898,-199.952,
00:00:25:850,0.453,-0.821,0.283,-84.778,-3.479,-179.993,
00:00:25:867,0.456,-0.794,0.289,-112.549,-56.031,-158.448,
00:00:25:883,0.456,-0.821,0.233,-142.762,-101.136,-148.56,
00:00:25:900,0.455,-0.821,0.218,-229.737,-173.706,-132.752,
00:00:25:917,0.452,-0.835,0.192,-307.984,-225.953,-119.568,
00:00:25:933,0.448,-0.831,0.168,-364.869,-252.32,-94.422,
00:00:25:950,0.452,-0.801,0.169,-381.653,-252.32,-66.712,
00:00:25:967,0.473,-0.794,0.138,-375.306,-231.812,-43.702,
00:00:25:983,0.499,-0.833,0.11,-362.427,-205.506,-19.471,
00:00:26:0,0.486,-0.743,0.126,-370.362,-168.396,-1.831,
00:00:26:17,0.496,-0.705,0.131,-317.749,-120.911,-0.611,
00:00:26:33,0.493,-0.675,0.157,-255.799,-55.298,16.662,
00:00:26:50,0.54,-0.627,0.176,-150.147,-5.921,50.354,
00:00:26:67,0.602,-0.652,0.177,-49.744,25.39,68.176,
00:00:26:83,0.618,-0.667,0.194,35.949,48.767,92.956,
00:00:26:100,0.646,-0.664,0.209,76.416,72.021,107.605,
00:00:26:117,0.663,-0.712,0.224,83.129,101.989,96.618,
00:00:26:133,0.679,-0.718,0.256,184.753,123.108,112.182,
00:00:26:150,0.693,-0.751,0.267,229.492,135.925,108.093,
00:00:26:167,0.693,-0.762,0.27,260.131,137.573,99.121,
00:00:26:183,0.686,-0.768,0.264,267.089,130.188,86.181,
00:00:26:200,0.667,-0.781,0.266,246.948,120.361,64.148,
00:00:26:217,0.652,-0.778,0.269,222.168,111.816,49.499,
00:00:26:233,0.636,-0.783,0.27,207.763,104.797,30.09,
00:00:26:250,0.624,-0.779,0.268,201.355,104.919,20.629,
00:00:26:267,0.618,-0.785,0.272,189.453,93.017,7.812,
00:00:26:283,0.619,-0.806,0.267,180.725,71.655,-2.747,
00:00:26:300,0.607,-0.835,0.288,135.62,49.316,-7.63,
00:00:26:317,0.604,-0.832,0.285,102.05,40.1,-8.24,
00:00:26:333,0.592,-0.83,0.272,78.369,30.944,-11.109,
00:00:26:350,0.564,-0.799,0.266,9.948,5.92,-37.049,
00:00:26:367,0.545,-0.789,0.254,-34.668,9.033,-51.941,
00:00:26:383,0.52,-0.742,0.259,-72.205,7.324,-55.848,
00:00:26:400,0.501,-0.701,0.26,-82.886,10.498,-61.463,
00:00:26:417,0.496,-0.676,0.24,-60.852,13.794,-59.266,
00:00:26:433,0.497,-0.676,0.226,-30.823,24.963,-50.232,
00:00:26:450,0.506,-0.678,0.208,-7.264,30.578,-37.659,
00:00:26:467,0.515,-0.7,0.209,-2.808,36.254,-32.776,
00:00:26:483,0.533,-0.715,0.21,7.446,37.902,-25.391,
00:00:26:500,0.552,-0.735,0.208,31.616,36.987,-11.841,
00:00:26:517,0.576,-0.765,0.204,43.273,28.991,2.075,
00:00:26:533,0.601,-0.781,0.207,48.278,19.409,16.174,
00:00:26:550,0.627,-0.806,0.215,46.142,13.671,17.517,
00:00:26:567,0.65,-0.817,0.215,53.466,4.394,17.211,
00:00:26:583,0.65,-0.81,0.227,53.222,0.427,14.465,
00:00:26:600,0.656,-0.795,0.229,51.879,-0.977,13.183,
00:00:26:617,0.653,-0.778,0.236,54.565,-8.24,11.962,
00:00:26:633,0.645,-0.758,0.233,56.518,-10.315,15.991,
00:00:26:650,0.636,-0.747,0.246,48.278,-12.391,19.104,
00:00:26:667,0.628,-0.725,0.253,54.382,-8.912,22.338,
00:00:26:683,0.621,-0.737,0.254,69.336,-3.479,22.094,
00:00:26:700,0.62,-0.751,0.254,71.289,-1.709,23.986,
00:00:26:717,0.62,-0.77,0.251,70.19,3.601,18.188,
00:00:26:733,0.615,-0.791,0.247,56.274,10.681,10.986,
00:00:26:750,0.607,-0.785,0.248,41.259,23.559,5.127,
00:00:26:767,0.603,-0.807,0.242,17.456,31.982,-5.799,
00:00:26:783,0.597,-0.807,0.239,-1.893,42.907,-5.005,
00:00:26:800,0.596,-0.819,0.231,-47.242,48.889,-18.067,
00:00:26:817,0.585,-0.817,0.222,-92.53,52.673,-28.809,
00:00:26:833,0.577,-0.841,0.25,-401.123,159.668,-103.028,
00:00:26:850,0.59,-0.845,0.277,-458.13,165.1,-125.245,
00:00:26:867,0.588,-0.872,0.293,-613.099,168.762,-165.65,
00:00:26:883,0.555,-0.831,0.357,-752.686,137.878,-210.083,
00:00:26:900,0.494,-0.774,0.418,-790.894,133.911,-243.164,
00:00:26:917,0.434,-0.708,0.456,-776.49,153.808,-269.104,
00:00:26:933,0.38,-0.718,0.437,-839.539,201.843,-330.14,
00:00:26:950,0.332,-0.687,0.475,-820.069,241.821,-350.098,
00:00:26:967,0.309,-0.768,0.468,-897.522,252.197,-401.062,
00:00:26:983,0.278,-0.787,0.513,-918.091,262.634,-407.227,
00:00:27:0,0.278,-0.798,0.558,-942.139,299.621,-434.021,
00:00:27:17,0.301,-0.82,0.562,-931.946,346.557,-482.117,
00:00:27:33,0.326,-0.836,0.507,-953.675,394.897,-519.532,
00:00:27:50,0.33,-0.83,0.453,-1002.442,406.25,-562.256,
00:00:27:67,0.306,-0.77,0.435,-1061.524,427.978,-569.886,
00:00:27:83,0.33,-0.66,0.452,-985.291,463.623,-561.097,
00:00:27:100,0.389,-0.584,0.449,-907.898,507.69,-565.003,
00:00:27:117,0.473,-0.608,0.415,-833.619,533.081,-565.064,
00:00:27:133,0.586,-0.67,0.337,-759.827,503.357,-532.471,
00:00:27:150,0.666,-0.711,0.382,-740.479,447.998,-498.597,
00:00:27:167,0.698,-0.643,0.366,-711.182,424.194,-458.619,
00:00:27:183,0.736,-0.622,0.409,-617.981,422.058,-442.139,
00:00:27:200,0.799,-0.662,0.328,-552.613,418.884,-416.26,
00:00:27:217,0.813,-0.682,0.345,-491.883,374.145,-354.981,
00:00:27:233,0.875,-0.64,0.319,-414.795,312.133,-285.95,
00:00:27:250,0.871,-0.635,0.35,-364.075,216.064,-224.305,
00:00:27:267,0.853,-0.591,0.334,-347.596,64.392,-147.339,
00:00:27:283,0.714,-0.519,0.547,-412.598,-46.509,-99.427,
00:00:27:300,0.664,-0.378,0.551,-412.415,-102.295,-44.739,
00:00:27:317,0.75,0.058,0.886,-178.345,-270.142,35.644,
00:00:27:333,0.401,-0.545,0.836,139.953,-156.25,-2.381,
00:00:27:350,0.543,-0.746,0.637,-222.718,-154.847,50.659,
00:00:27:367,0.561,-0.306,0.787,-152.894,-95.154,91.735,
00:00:27:383,0.559,-0.54,0.575,-126.831,-57.923,56.091,
00:00:27:400,0.457,-0.38,0.92,33.752,-64.942,59.814,
00:00:27:417,0.498,-0.514,0.733,-77.454,-8.484,-6.165,
00:00:27:433,0.467,-0.451,0.958,10.009,-61.524,60.607,
00:00:27:450,0.366,-0.665,0.947,-89.539,-85.633,54.992,
00:00:27:467,0.189,-0.541,1.064,-312.745,-123.597,56.03,
00:00:27:483,0.189,-0.539,0.886,-402.405,-97.046,34.362,
00:00:27:500,0.288,-0.678,0.952,-385.682,-65.064,20.874,rollLH
00:00:27:517,0.323,-0.547,0.925,-368.714,-66.773,21.606,
00:00:27:533,0.298,-0.566,0.996,-350.525,-129.7,41.137,
00:00:27:550,0.156,-0.46,1.009,-343.018,-172.73,67.871,
00:00:27:567,0.302,-0.333,0.736,-216.858,-112.915,123.047,
00:00:27:583,0.499,-0.3,0.674,29.541,-39.673,183.044,
00:00:27:600,0.642,-0.485,0.694,20.202,22.949,79.589,
00:00:27:617,0.989,-0.409,0.496,-58.899,69.152,-14.832,
00:00:27:633,1.067,-0.461,0.25,-40.772,180.786,-33.875,
00:00:27:650,1.301,-0.343,0.069,-41.26,269.958,-71.961,
00:00:27:667,1.464,-0.425,-0.027,35.278,336.914,-114.991,
00:00:27:683,1.265,-0.678,0.201,38.269,321.228,-96.497,
00:00:27:700,1.151,-0.628,0.246,-22.461,331.543,-60.669,
00:00:27:717,1.207,-0.339,0.059,-30.64,387.756,-27.344,
00:00:27:733,1.066,-0.285,0.098,0.671,485.229,-54.749,
00:00:27:750,0.954,-0.476,0.378,66.162,527.465,-95.765,
00:00:27:767,0.476,-0.64,0.82,-13.672,492.004,-110.657,
00:00:27:783,0.146,-0.473,1.138,-30.335,420.837,-81.421,
00:00:27:800,-0.205,-0.59,1.39,-155.762,348.388,-64.82,
00:00:27:817,-0.402,-0.541,1.622,-162.171,237.915,77.941,
00:00:27:833,-0.475,-0.604,1.741,-127.259,23.254,156.189,
00:00:27:850,-0.162,-0.32,1.4,-161.56,-49.622,138.244,
00:00:27:867,0.169,-0.263,1.214,-193.726,-99.427,-2.137,
00:00:27:883,0.163,-0.332,1.153,-177.796,-161.255,-21.241,
00:00:27:900,0.042,-0.458,1.33,-38.697,-242.432,30.334,
00:00:27:917,0.268,-0.463,0.997,-341.126,-264.222,-96.314,
00:00:27:933,0.418,-0.442,0.913,-346.436,-285.218,-75.501,
00:00:27:950,0.714,-0.345,0.633,-300.171,-269.165,-38.819,
00:00:27:967,0.982,-0.452,0.254,-279.786,-187.256,-62.867,
00:00:27:983,1.23,-0.55,0.062,-310.242,-135.376,-84.473,
00:00:28:0,1.431,-0.364,-0.139,-305.787,-18.677,-102.723,
00:00:28:17,1.573,-0.366,-0.277,-223.572,143.188,-105.591,
00:00:28:33,1.435,-0.441,-0.079,-101.929,227.356,-47.547,
00:00:28:50,1.253,-0.556,0.301,-22.095,248.169,-29.786,
00:00:28:67,1.208,-0.333,0.251,-9.949,303.405,-11.719,
00:00:28:83,1.247,-0.167,0.254,-25.574,365.539,-46.082,
00:00:28:100,1.031,-0.171,0.35,45.288,450.561,-83.069,
00:00:28:117,0.638,-0.519,0.754,93.2,444.213,-105.957,
00:00:28:133,0.321,-0.304,1.011,26.001,425.781,-70.984,
00:00:28:150,0.068,-0.477,1.3,101.074,351.013,-39.795,
00:00:28:167,-0.229,-0.649,1.464,8.117,198.608,3.173,
00:00:28:183,-0.412,-0.558,1.557,-7.203,26.367,47.424,
00:00:28:200,-0.184,-0.381,1.366,-95.459,-95.704,32.775,
00:00:28:217,0.081,-0.26,1.261,-81.299,-189.881,-18.616,
00:00:28:233,0.004,-0.385,1.283,-90.027,-293.641,-23.804,
00:00:28:250,0.09,-0.481,1.271,-65.735,-405.274,-14.771,
00:00:28:267,0.192,-0.394,1.123,-199.341,-441.956,-8.179,
00:00:28:283,0.401,-0.391,0.934,-136.231,-426.026,9.948,
00:00:28:300,0.647,-0.374,0.823,-230.469,-463.868,-12.879,
00:00:28:317,1.139,-0.314,0.167,-317.444,-340.394,-37.72,
00:00:28:333,1.224,-0.492,0.005,-168.396,-171.57,8.117,
00:00:28:350,1.698,-0.239,-0.402,-62.806,62.622,24.719,
00:00:28:367,1.69,-0.158,-0.224,-136.536,212.89,-65.735,
00:00:28:383,1.614,-0.238,-0.06,-42.725,266.235,-60.791,
00:00:28:400,1.422,-0.455,0.28,-45.289,262.939,-112.061,
00:00:28:417,1.446,-0.205,0.267,-83.802,298.828,-115.174,
00:00:28:433,1.343,-0.216,0.208,-73.548,365.722,-170.533,
00:00:28:450,1.023,-0.31,0.321,-1.709,440.918,-167.298,
00:00:28:467,0.806,-0.202,0.407,-64.148,508.972,-140.076,
00:00:28:483,0.518,-0.374,0.752,133.85,553.161,-101.746,
00:00:28:500,0.126,-0.406,1.064,44.982,517.883,-80.14,
00:00:28:517,-0.087,-0.427,1.391,100.83,366.882,-56.702,
00:00:28:533,-0.427,-0.571,1.695,59.021,180.908,-1.831,
00:00:28:550,-0.48,-0.576,1.791,27.954,-27.894,3.479,
00:00:28:567,-0.059,-0.313,1.501,-77.149,-141.114,-27.588,
00:00:28:583,0.165,-0.322,1.319,-114.075,-212.22,-62.989,
00:00:28:600,0.108,-0.405,1.24,-133.545,-307.801,-70.252,
00:00:28:617,0.15,-0.52,1.177,-128.968,-381.592,-75.44,
00:00:28:633,0.229,-0.403,1.051,-210.144,-425.538,-61.036,
00:00:28:650,0.293,-0.356,0.912,-177.185,-414.856,-48.645,
00:00:28:667,0.482,-0.298,0.716,-206.788,-403.992,-41.016,
00:00:28:683,0.796,-0.447,0.625,-193.238,-367.92,-44.861,
00:00:28:700,1.003,-0.392,0.339,-206.788,-297.669,-14.893,
00:00:28:717,1.408,-0.193,0.001,-354.493,-166.016,-69.153,
00:00:28:733,1.329,-0.329,0.129,-116.15,-22.034,-61.89,
00:00:28:750,1.386,-0.328,0.035,-183.289,65.979,-69.092,
00:00:28:767,1.42,-0.287,0.011,-37.72,95.825,-32.593,
00:00:28:783,1.3,-0.221,0.055,-89.234,135.315,-54.139,
00:00:28:800,1.218,-0.136,0.159,1.464,186.096,-38.453,
00:00:28:817,1.14,-0.122,0.303,160.888,238.403,-67.81,
00:00:28:833,1.181,-0.15,0.444,120.544,227.539,-122.925,
00:00:28:850,1.115,-0.281,0.492,119.567,258.728,-181.641,
00:00:28:867,0.933,-0.478,0.678,81.115,278.503,-239.624,
00:00:28:883,0.686,-0.322,0.583,-27.344,363.403,-153.321,
00:00:28:900,0.567,-0.284,0.768,40.588,426.696,-159.974,
00:00:28:917,0.353,-0.454,0.979,18.005,435.302,-117.615,
00:00:28:933,0.095,-0.454,1.203,-24.109,382.263,-98.328,
00:00:28:950,-0.051,-0.44,1.217,-82.886,308.044,-64.087,
00:00:28:967,-0.244,-0.406,1.366,-72.998,201.782,-25.147,
00:00:28:983,-0.195,-0.462,1.459,-28.687,48.828,-32.837,
00:00:29:0,0.013,-0.445,1.312,-54.932,-77.149,-61.341,
00:00:29:17,0.186,-0.338,1.172,-161.499,-155.152,-118.714,
00:00:29:33,0.248,-0.262,1.158,-114.563,-253.296,-114.441,
00:00:29:50,0.226,-0.552,1.03,-130.799,-281.495,-143.25,
00:00:29:67,0.252,-0.394,1.01,-155.762,-315.674,-126.282,
00:00:29:83,0.348,-0.352,0.962,-138.672,-316.04,-134.705,
00:00:29:100,0.376,-0.435,0.961,-139.71,-302.124,-110.047,
00:00:29:117,0.563,-0.318,0.748,-196.106,-278.748,-97.474,
00:00:29:133,0.626,-0.474,0.783,-112.732,-264.954,-57.068,
00:00:29:150,0.784,-0.445,0.674,-199.036,-239.624,-47.608,
00:00:29:167,0.897,-0.348,0.589,-212.647,-190.674,-24.353,
00:00:29:183,1.121,-0.435,0.441,-212.342,-153.382,-54.261,
00:00:29:200,1.177,-0.49,0.189,-244.873,-80.445,-37.842,
00:00:29:217,1.184,-0.331,0.096,-325.135,-70.374,-75.989,
00:00:29:233,1.172,-0.183,-0.09,-303.04,20.874,-52.674,
00:00:29:250,1.386,0.157,-0.064,-136.963,70.739,36.621,
00:00:29:267,1.372,0.053,0.185,140.93,56.701,-62.195,
00:00:29:283,1.194,-0.208,0.179,82.153,94.36,-75.379,
00:00:29:300,1.229,0.004,0.163,107.055,152.038,-57.129,
00:00:29:317,1.172,-0.199,0.179,238.159,232.666,-94.971,
00:00:29:333,1.165,-0.274,0.264,319.091,270.63,-55.298,
00:00:29:350,1.121,-0.454,0.535,331.787,232.483,-98.694,
00:00:29:367,0.981,-0.587,0.718,252.075,196.411,-78.003,
00:00:29:383,0.781,-0.545,0.601,88.378,222.717,-15.32,
00:00:29:400,0.71,-0.385,0.575,106.689,262.817,31.494,
00:00:29:417,0.519,-0.436,0.735,143.982,267.089,85.266,
00:00:29:433,0.423,-0.399,0.629,200.744,352.234,183.593,
00:00:29:450,0.238,-0.405,0.867,303.711,314.575,254.699,
00:00:29:467,0.469,-0.585,1.065,342.041,164.917,178.039,
00:00:29:483,0.102,-0.831,1.301,316.162,33.081,232.727,
00:00:29:500,-0.049,-0.463,1.153,240.6,-54.139,233.032,
00:00:29:517,-0.255,-0.567,1.406,300.354,-149.292,235.901,
00:00:29:533,-0.259,-0.53,1.555,222.107,-259.034,221.862,
00:00:29:550,-0.06,-0.375,1.377,105.713,-341.187,195.19,
00:00:29:567,0.08,-0.402,1.186,117.736,-405.823,142.089,
00:00:29:583,0.128,-0.564,1.207,138.794,-484.375,119.629,
00:00:29:600,0.096,-0.466,1.193,73.791,-510.254,102.783,
00:00:29:617,0.203,-0.486,1.222,78.674,-548.584,62.805,
00:00:29:633,0.43,-0.378,1.032,-130.799,-539.49,0.305,
00:00:29:650,0.449,-0.119,0.712,-68.421,-476.014,100.097,
00:00:29:667,0.545,-0.19,0.507,-1.038,-313.599,152.404,
00:00:29:683,0.939,-0.155,0.374,-14.832,-215.149,167.175,
00:00:29:700,1.072,-0.328,0.51,45.471,-169.739,155.212,
00:00:29:717,1.149,-0.373,0.348,-31.311,-113.099,165.954,
00:00:29:733,1.209,-0.245,0.244,-27.466,-64.759,192.688,
00:00:29:750,1.333,-0.177,0.101,-6.531,-37.537,184.082,
00:00:29:767,1.444,-0.145,-0.013,38.574,-51.209,144.531,
00:00:29:783,1.402,-0.311,0.106,151.733,-44.007,117.614,
00:00:29:800,1.279,-0.243,0.303,118.835,-50.232,114.074,
00:00:29:817,1.218,-0.096,0.278,188.72,3.784,118.896,
00:00:29:833,1.205,-0.094,0.188,256.042,79.65,73.486,
00:00:29:850,1.204,-0.278,0.269,282.837,154.968,36.926,
00:00:29:867,1.03,-0.501,0.476,270.446,235.717,39.733,
00:00:29:883,0.969,-0.458,0.568,210.083,304.077,64.758,
00:00:29:900,0.831,-0.585,0.608,309.509,390.442,146.301,
00:00:29:917,0.734,-0.503,0.775,276.733,392.334,170.715,
00:00:29:933,0.562,-0.72,1.135,407.837,255.188,193.908,
00:00:29:950,0.199,-0.685,1.011,232.727,258.422,276.672,
00:00:29:967,0.345,-0.476,0.968,369.69,157.043,272.4,
00:00:29:983,0.305,-0.895,1.074,463.134,14.77,276.733,
00:00:30:0,0.313,-0.639,0.67,373.352,-50.782,280.151,
00:00:30:17,0.423,-0.609,0.608,600.097,-168.519,221.557,
00:00:30:33,0.372,-1.083,0.738,777.465,-264.222,112.793,
00:00:30:50,0.503,-0.99,0.752,689.88,-460.633,12.451,
00:00:30:67,0.404,-0.927,0.719,755.005,-508.851,-11.292,
00:00:30:83,0.379,-0.853,0.629,792.724,-505.188,-33.448,
00:00:30:100,0.324,-0.844,0.552,836.609,-423.34,-34.79,
00:00:30:117,0.307,-0.747,0.473,739.502,-316.102,-41.443,
00:00:30:133,0.3,-0.559,0.391,627.136,-199.341,-27.161,
00:00:30:150,0.31,-0.397,0.332,640.38,-99.305,10.681,
00:00:30:167,0.314,-0.291,0.362,650.024,-30.335,47.546,
00:00:30:183,0.348,-0.297,0.408,668.274,10.131,84.777,
00:00:30:200,0.386,-0.303,0.458,705.444,19.897,124.633,
00:00:30:217,0.396,-0.41,0.555,662.475,-13.489,167.602,
00:00:30:233,0.387,-0.382,0.686,605.163,-50.415,207.214,
00:00:30:250,0.399,-0.233,0.776,572.204,-104.31,221.74,
00:00:30:267,0.436,-0.338,0.783,566.955,-202.698,250.732,
00:00:30:283,0.393,-0.291,0.847,617.981,-289.795,299.133,
00:00:30:300,0.332,-0.191,1.003,710.815,-378.663,347.412,
00:00:30:317,0.317,-0.259,0.961,687.5,-462.891,384.094,
00:00:30:333,0.267,-0.152,0.924,645.202,-541.565,464.111,
00:00:30:350,0.228,-0.24,0.853,645.019,-528.748,541.626,
00:00:30:367,1.454,-1.186,1.19,565.612,-925.171,215.271,
00:00:30:383,0.432,-1.893,1.559,-424.439,-623.352,72.204,
00:00:30:400,0.515,-0.251,0.983,-68.543,-471.009,167.236,
00:00:30:417,0.486,-0.677,0.825,152.526,-377.564,182.617,
00:00:30:433,0.418,-0.459,0.881,-132.569,-375.55,115.478,
00:00:30:450,0.521,-0.348,0.592,-332.764,-313.904,29.357,
00:00:30:467,0.65,-0.544,0.692,-346.741,-248.719,-35.218,
00:00:30:483,0.791,-0.574,0.668,-352.784,-212.647,-85.022,
00:00:30:500,0.8,-0.677,0.498,-292.847,-142.823,-89.478,
00:00:30:517,0.624,-0.565,0.572,-214.417,-102.295,-62.867,
00:00:30:533,0.616,-0.744,0.649,-114.563,-76.477,-51.27,
00:00:30:550,0.623,-0.639,0.591,-85.572,-52.308,-7.264,
00:00:30:567,0.617,-0.569,0.565,-15.625,-58.716,25.817,
00:00:30:583,0.492,-0.482,0.663,16.418,-76.416,49.865,
00:00:30:600,0.463,-0.503,0.696,-0.428,-142.945,62.5,
00:00:30:617,0.406,-0.494,0.746,-9.217,-226.136,83.19,
00:00:30:633,0.31,-0.484,0.796,-43.335,-313.782,88.378,
00:00:30:650,0.387,-0.524,0.635,-31.495,-455.933,82.153,
00:00:30:667,0.499,-0.526,0.578,-21.668,-380.616,58.166,
00:00:30:683,0.72,-0.589,0.517,99.914,-291.321,71.594,
00:00:30:700,0.863,-0.547,0.443,211.425,-200.867,83.313,
00:00:30:717,1.17,-0.585,0.219,254.089,-125.428,31.189,
00:00:30:733,1.267,-0.694,0.115,231.384,-21.973,-1.465,
00:00:30:750,1.313,-0.571,0.075,197.326,93.933,-22.095,
00:00:30:767,1.091,-0.67,0.266,187.561,124.511,-37.476,
00:00:30:783,1.079,-0.658,0.221,204.101,129.943,-36.744,
00:00:30:800,1.02,-0.819,0.164,156.799,148.925,-48.951,
00:00:30:817,0.952,-0.792,0.162,1.22,161.316,-67.017,
00:00:30:833,0.899,-0.735,0.282,-39.673,203.491,-72.632,
00:00:30:850,0.666,-0.654,0.374,-64.759,298.462,-50.232,
00:00:30:867,0.499,-0.411,0.486,74.279,350.647,11.718,
00:00:30:883,0.354,-0.414,0.71,208.923,342.895,41.076,
00:00:30:900,0.264,-0.646,0.799,70.8,322.021,1.22,
00:00:30:917,0.303,-0.676,0.961,96.435,259.338,13.855,
00:00:30:933,0.126,-0.726,0.888,-99.549,248.901,-17.273,
00:00:30:950,0.159,-0.414,0.841,-39.368,226.562,10.253,
00:00:30:967,0.019,-0.288,1.184,-134.522,34.301,-26.856,
00:00:30:983,-0.059,-0.329,1.263,-160.523,-53.406,-13.367,
00:00:31:0,0.042,-0.304,1.099,-229.798,-104.859,-32.166,
00:00:31:17,0.203,-0.467,0.97,-165.65,-167.908,-25.574,
00:00:31:33,0.32,-0.505,0.866,-144.837,-278.87,-36.622,
00:00:31:50,0.377,-0.589,0.952,-107.911,-366.089,-25.086,
00:00:31:67,0.503,-0.731,1.003,-119.507,-454.468,-47.059,
00:00:31:83,0.404,-0.612,0.956,-94.727,-457.276,9.338,
00:00:31:100,0.251,-0.277,0.799,-129.578,-400.696,47.973,
00:00:31:117,0.433,-0.444,0.738,-50.599,-359.986,34.484,
00:00:31:133,0.67,-0.738,0.677,-65.003,-317.505,18.981,
00:00:31:150,0.839,-0.482,0.342,36.926,-135.621,37.231,
00:00:31:167,0.958,-0.562,0.377,61.828,-22.828,-5.127,
00:00:31:183,0.979,-0.626,0.276,60.18,74.34,-20.142,
00:00:31:200,1.033,-0.674,0.226,72.815,128.906,-12.452,
00:00:31:217,1.033,-0.69,0.21,80.261,165.283,0.549,
00:00:31:233,0.981,-0.634,0.274,126.831,172.973,38.208,
00:00:31:250,0.773,-0.629,0.484,192.932,131.347,90.332,
00:00:31:267,0.838,-0.628,0.358,235.839,107.238,67.077,
00:00:31:283,0.891,-0.725,0.215,168.09,140.136,20.813,
00:00:31:300,0.922,-0.612,0.103,91.613,225.28,-12.391,
00:00:31:317,0.895,-0.496,0.238,143.554,316.772,-24.598,
00:00:31:333,0.436,-0.542,0.582,-71.228,381.958,-111.634,
00:00:31:350,0.188,-0.578,0.694,-175.538,398.559,-123.047,
00:00:31:367,0.037,-0.475,0.961,-236.573,331.176,-111.268,
00:00:31:383,-0.009,-0.573,1.361,-359.07,154.602,-142.273,
00:00:31:400,-0.232,-0.487,1.658,-390.442,-86.731,-68.299,
00:00:31:417,0.075,-0.263,0.979,34.729,-219.849,59.936,
00:00:31:433,0.238,-0.319,0.956,-18.555,-316.407,18.493,
00:00:31:450,0.243,-0.456,1,-19.227,-342.041,-0.55,
00:00:31:467,0.273,-0.413,1.05,63.11,-350.831,21.057,
00:00:31:483,0.288,-0.783,1.23,19.47,-449.219,-7.386,
00:00:31:500,0.095,-0.331,0.949,-101.868,-411.866,57.617,
00:00:31:517,0.576,-0.461,0.711,45.654,-381.897,-25.025,
00:00:31:533,0.756,-0.877,0.94,-140.015,-443.97,-81.177,
00:00:31:550,0.799,-0.516,0.552,-220.337,-311.219,-29.175,
00:00:31:567,0.857,-0.343,0.374,-76.172,-166.199,7.629,
00:00:31:583,1.403,-0.55,0.019,191.467,26.428,8.972,
00:00:31:600,1.262,-0.855,0.093,305.297,101.928,83.74,
00:00:31:617,1.083,-0.748,0.262,50.048,122.314,36.682,
00:00:31:633,0.878,-0.608,0.299,62.561,129.882,20.141,
00:00:31:650,0.999,-0.616,0.148,89.477,176.88,-30.518,
00:00:31:667,0.991,-0.517,0.201,-31.739,230.59,-93.75,
00:00:31:683,0.678,-0.412,0.422,-15.442,307.556,-67.749,
00:00:31:700,0.64,-0.319,0.423,31.005,396.484,-90.638,
00:00:31:717,0.519,-0.523,0.697,160.156,385.376,-54.566,
00:00:31:733,0.25,-0.758,0.851,-105.347,324.279,-138.855,
00:00:31:750,0.097,-0.525,0.904,-157.044,307.312,-74.036,
00:00:31:767,-0.167,-0.437,1.02,-226.99,291.442,-48.829,
00:00:31:783,-0.149,-0.453,1.381,-257.081,185.424,-55.909,
00:00:31:800,-0.321,-0.493,1.658,-340.271,-20.02,-38.697,
00:00:31:817,-0.313,-0.295,1.563,-155.64,-175.66,43.273,
00:00:31:833,0.109,-0.484,1.097,-49.744,-210.083,9.826,
00:00:31:850,0.295,-0.421,1.085,-149.353,-302.857,-2.93,
00:00:31:867,0.129,-0.466,1.232,-121.094,-419.434,39.428,
00:00:31:883,-0.089,-0.391,1.166,-106.324,-481.324,104.858,
00:00:31:900,-0.04,-0.254,1.039,-9.461,-511.475,159.179,
00:00:31:917,0.196,-0.449,1.137,-42.664,-575.867,118.957,
00:00:31:933,0.626,-0.861,0.899,-267.762,-558.838,-24.842,
00:00:31:950,0.516,-0.322,0.686,-270.752,-431.641,93.2,
00:00:31:967,0.879,-0.211,0.288,-18.982,-162.72,117.492,
00:00:31:983,1.261,-0.475,0.201,158.569,-7.508,92.59,
00:00:32:0,1.352,-0.703,0.093,223.327,114.257,102.905,
00:00:32:17,1.512,-0.693,0.059,65.551,149.414,-23.926,
00:00:32:33,1.543,-0.793,0.109,99.548,197.876,-88.685,
00:00:32:50,1.275,-0.768,0.271,70.373,216.064,-75.013,
00:00:32:67,0.913,-0.563,0.312,80.932,174.255,-30.396,
00:00:32:83,0.963,-0.573,0.213,151.55,168.884,-63.721,
00:00:32:100,1.109,-0.631,0.136,111.267,167.785,-116.089,
00:00:32:117,1.016,-0.539,0.211,-13.001,225.036,-154.725,
00:00:32:133,0.87,-0.557,0.467,-56.214,276.855,-190.735,
00:00:32:150,0.527,-0.394,0.564,63.964,412.658,-81.91,
00:00:32:167,0.45,-0.425,0.496,204.162,504.516,-63.843,
00:00:32:183,0.356,-0.794,0.867,229.98,439.209,-38.331,
00:00:32:200,0.15,-0.558,0.808,-2.32,479.492,-22.644,
00:00:32:217,-0.073,-0.47,0.97,56.762,490.905,26.855,
00:00:32:233,0.067,-0.373,1.383,9.948,363.342,-44.678,
00:00:32:250,-0.392,-0.38,1.769,-129.639,171.692,-18.311,
00:00:32:267,-0.442,-0.197,1.527,-152.527,10.498,-13.855,
00:00:32:283,-0.433,-0.266,1.468,-94.361,-134.766,28.503,
00:00:32:300,0.072,-0.334,1.161,-146.119,-223.084,-22.706,
00:00:32:317,0.21,-0.381,1.077,-217.347,-265.015,-38.575,
00:00:32:333,0.278,-0.477,1.162,-147.828,-380.188,-52.491,
00:00:32:350,0.085,-0.753,1.288,-155.091,-499.634,-1.954,
00:00:32:367,-0.107,-0.387,1.024,-196.839,-503.113,68.603,
00:00:32:383,0.13,-0.482,0.917,-148.804,-497.681,45.471,
00:00:32:400,0.736,-0.741,0.9,-244.507,-553.65,-91.309,
00:00:32:417,0.692,-0.539,0.603,-341.492,-413.147,-23.377,
00:00:32:433,0.776,-0.22,0.187,-157.41,-146.119,28.808,
00:00:32:450,1.169,-0.321,0.142,69.58,16.113,12.268,
00:00:32:467,1.282,-0.687,0.178,117.37,138.122,-25.391,
00:00:32:483,1.675,-0.684,0.011,-22.461,157.592,-152.1,
00:00:32:500,1.69,-0.818,-0.014,46.386,236.694,-197.144,
00:00:32:517,1.37,-0.789,0.298,26.672,279.113,-168.946,
00:00:32:533,1.103,-0.569,0.315,47.851,235.046,-144.654,
00:00:32:550,1.144,-0.544,0.078,104.065,238.586,-175.477,
00:00:32:567,1.139,-0.661,0.146,42.419,299.804,-217.225,
00:00:32:583,0.93,-0.597,0.341,26.123,386.352,-198.548,
00:00:32:600,0.74,-0.606,0.414,-1.16,510.742,-188.66,
00:00:32:617,0.476,-0.343,0.49,139.892,598.327,-74.952,
00:00:32:633,0.466,-0.383,0.753,237.487,579.773,-70.984,
00:00:32:650,0.169,-0.602,0.859,89.904,612.548,-91.614,
00:00:32:667,-0.021,-0.449,0.907,101.135,686.462,-26.917,
00:00:32:683,0.051,-0.587,1.409,-139.405,540.71,-128.724,
00:00:32:700,-0.408,-0.718,1.945,-306.031,352.661,-79.956,
00:00:32:717,-0.433,-0.198,1.614,-364.685,156.86,-6.531,
00:00:32:733,-0.417,-0.26,1.559,-184.266,-79.895,26.062,
00:00:32:750,0.047,-0.384,1.188,-256.836,-172.547,-55.42,
00:00:32:767,0.165,-0.36,1.194,-342.957,-289.978,-82.032,
00:00:32:783,0.174,-0.33,1.222,-275.635,-422.608,-60.486,
00:00:32:800,0.163,-0.653,1.23,-207.52,-540.467,-48.096,
00:00:32:817,-0.104,-0.617,1.192,-267.334,-584.168,38.086,
00:00:32:833,0.245,-0.364,1.072,-320.435,-596.253,-14.466,
00:00:32:850,0.81,-0.115,0.516,-13.184,9.399,54.565,
00:00:32:867,1.039,0.109,0.244,433.838,292.785,49.682,
00:00:32:883,1.489,-0.243,0.223,760.315,274.17,-179.932,
00:00:32:900,1.464,-0.882,0.157,749.878,406.738,-360.352,
00:00:32:917,1.315,-0.696,-0.128,609.13,494.201,-190.979,
00:00:32:933,1.234,-0.51,-0.028,552.612,476.196,-141.358,
00:00:32:950,1.32,-0.514,0.019,259.216,406.128,-151.246,
00:00:32:967,1.177,-0.258,0.406,50.903,276.611,-48.401,
00:00:32:983,1.076,-0.31,0.429,190.551,187.683,-16.846,
00:00:33:0,0.897,-0.345,0.464,277.588,146.545,70.495,
00:00:33:17,0.756,-0.299,0.449,348.938,128.357,162.841,
00:00:33:33,0.641,-0.693,0.399,759.399,66.589,246.704,
00:00:33:50,0.622,-0.828,0.413,636.84,58.776,231.994,
00:00:33:67,0.558,-0.86,0.475,544.433,49.194,225.036,
00:00:33:83,0.515,-0.87,0.497,515.808,46.691,198.974,
00:00:33:100,0.493,-0.853,0.479,503.845,19.592,181.64,
00:00:33:117,0.408,-0.823,0.487,458.374,-14.344,146.301,
00:00:33:133,0.395,-0.774,0.502,392.761,-33.204,125.488,
00:00:33:150,0.373,-0.721,0.48,386.779,-48.523,107.422,
00:00:33:167,0.375,-0.706,0.476,422.363,-60.73,93.689,
00:00:33:183,0.395,-0.738,0.45,440.612,-73.243,70.129,
00:00:33:200,0.406,-0.763,0.442,431.701,-82.154,42.785,
00:00:33:217,0.426,-0.797,0.434,397.644,-90.638,17.639,
00:00:33:233,0.443,-0.8,0.422,360.656,-97.474,-11.841,
00:00:33:250,0.447,-0.822,0.415,350.586,-97.596,-58.899,
00:00:33:267,0.453,-0.843,0.398,313.11,-92.957,-86.731,
00:00:33:283,0.463,-0.835,0.378,268.249,-74.952,-114.38,
00:00:33:300,0.469,-0.815,0.367,229.126,-46.387,-146.241,
00:00:33:317,0.477,-0.806,0.336,227.539,-15.381,-171.692,
00:00:33:334,0.503,-0.81,0.249,138.672,106.567,-233.704,
00:00:33:350,0.492,-0.758,0.228,109.68,134.765,-242.859,
00:00:33:367,0.473,-0.712,0.21,109.558,155.578,-261.17,
00:00:33:384,0.466,-0.702,0.187,80.688,172.973,-274.109,
00:00:33:400,0.468,-0.74,0.173,-38.758,172.973,-298.523,
00:00:33:417,0.436,-0.696,0.245,-217.469,87.524,-284.852,
00:00:33:434,0.44,-0.722,0.224,-231.934,50.231,-278.687,
00:00:33:450,0.443,-0.759,0.217,-267.212,17.334,-265.625,
00:00:33:467,0.459,-0.769,0.224,-323.06,5.004,-257.203,
00:00:33:484,0.494,-0.819,0.232,-331.849,14.709,-242.676,
00:00:33:500,0.678,-0.876,0.272,-262.696,66.101,-183.838,
00:00:33:517,0.717,-0.834,0.284,-271.058,107.971,-171.326,
00:00:33:534,0.748,-0.769,0.288,-237.122,148.986,-159.18,
00:00:33:550,0.756,-0.741,0.298,-190.918,195.068,-154.725,
00:00:33:567,0.771,-0.699,0.313,-151.795,231.994,-145.203,
00:00:33:584,0.727,-0.661,0.389,-59.021,266.723,-100.342,
00:00:33:600,0.691,-0.644,0.406,-33.02,257.385,-91.736,
00:00:33:617,0.676,-0.663,0.413,21.179,237.487,-90.027,
00:00:33:634,0.64,-0.713,0.41,57.006,209.411,-85.267,
00:00:33:650,0.617,-0.717,0.403,105.59,177.734,-70.008,
00:00:33:667,0.59,-0.74,0.388,136.291,147.705,-68.543,
00:00:33:684,0.572,-0.787,0.397,139.526,110.107,-71.351,
00:00:33:700,0.561,-0.801,0.404,131.713,71.044,-76.355,
00:00:33:717,0.539,-0.835,0.406,150.451,33.142,-82.764,
00:00:33:734,0.529,-0.855,0.402,130.432,5.004,-104.31,
00:00:33:750,0.533,-0.872,0.398,95.764,-28.443,-118.47,
00:00:33:767,0.519,-0.892,0.405,-0.306,-151.612,-148.804,
00:00:33:784,0.503,-0.855,0.397,-30.091,-169.922,-164.246,
00:00:33:800,0.472,-0.855,0.389,-37.354,-157.532,-162.171,
00:00:33:817,0.446,-0.8,0.367,-19.043,-135.437,-144.593,
00:00:33:834,0.409,-0.736,0.339,12.634,-112.915,-129.517,
00:00:33:850,0.377,-0.674,0.308,22.705,-79.59,-121.094,
00:00:33:867,0.356,-0.669,0.29,11.779,-59.632,-93.262,
00:00:33:884,0.37,-0.665,0.267,-25.391,-26.307,-72.754,
00:00:33:900,0.383,-0.667,0.277,-13.489,-6.47,-50.599,
00:00:33:917,0.395,-0.676,0.283,58.349,10.315,-22.034,
00:00:33:934,0.429,-0.724,0.269,117.431,12.512,2.868,
00:00:33:950,0.528,-0.899,0.285,-30.884,-56.824,-17.09,
00:00:33:967,0.517,-0.878,0.282,-115.784,-75.989,-31.25,
00:00:33:984,0.508,-0.865,0.269,-181.641,-99.671,-48.951,
00:00:34:0,0.502,-0.84,0.275,-226.38,-111.451,-47.608,
00:00:34:17,0.5,-0.814,0.259,-282.227,-115.357,-53.101,
00:00:34:34,0.482,-0.793,0.261,-315.552,-107.666,-53.711,
00:00:34:50,0.472,-0.764,0.28,-326.6,-87.952,-55.848,
00:00:34:67,0.487,-0.77,0.265,-298.279,-56.763,-49.988,
00:00:34:84,0.496,-0.826,0.29,-293.091,-32.105,-44.922,
00:00:34:100,0.503,-0.814,0.317,-302.491,1.709,-35.828,
00:00:34:117,0.51,-0.831,0.34,-297.974,36.682,-47.181,
00:00:34:134,0.51,-0.842,0.36,-296.936,68.908,-55.176,
00:00:34:150,0.515,-0.836,0.369,-290.772,95.886,-54.017,
00:00:34:167,0.515,-0.823,0.372,-272.95,112.732,-48.584,
00:00:34:184,0.512,-0.828,0.397,-271.058,126.403,-48.401,
00:00:34:200,0.517,-0.837,0.403,-271.79,144.592,-42.603,
00:00:34:217,0.51,-0.816,0.42,-248.719,165.344,-35.462,
00:00:34:234,0.506,-0.815,0.421,-221.985,173.095,-41.382,
00:00:34:250,0.488,-0.814,0.429,-192.505,176.635,-41.687,
00:00:34:267,0.476,-0.811,0.438,-189.637,178.466,-46.998,
00:00:34:284,0.469,-0.807,0.44,-168.335,167.907,-44.007,
00:00:34:300,0.468,-0.797,0.46,-150.879,154.907,-52.857,
00:00:34:317,0.463,-0.816,0.466,-146.058,138.183,-63.599,
00:00:34:334,0.452,-0.825,0.475,-164.307,112.304,-71.045,
00:00:34:350,0.456,-0.788,0.468,-192.81,87.707,-84.168,
00:00:34:367,0.435,-0.766,0.49,-182.068,72.448,-95.337,
00:00:34:384,0.424,-0.745,0.502,-200.989,68.115,-113.587,
00:00:34:400,0.438,-0.738,0.507,-206.543,55.847,-134.705,
00:00:34:417,0.443,-0.739,0.507,-231.202,39.672,-153.748,
00:00:34:434,0.443,-0.691,0.487,-225.281,20.935,-155.701,
00:00:34:450,0.425,-0.664,0.494,-179.2,2.563,-148.926,
00:00:34:467,0.426,-0.65,0.477,-112.183,11.352,-131.165,
00:00:34:484,0.439,-0.641,0.472,-52.552,31.433,-113.709,
00:00:34:500,0.466,-0.683,0.48,-0.306,62.377,-92.835,
00:00:34:517,0.491,-0.714,0.491,30.334,84.106,-74.402,
00:00:34:534,0.505,-0.743,0.497,40.832,99.914,-60.059,
00:00:34:550,0.511,-0.768,0.514,48.217,111.45,-47.486,
00:00:34:567,0.518,-0.775,0.516,63.903,113.525,-35.401,
00:00:34:584,0.516,-0.802,0.524,68.42,107.238,-35.828,
00:00:34:600,0.5,-0.808,0.514,14.038,102.295,-62.073,
00:00:34:617,0.461,-0.765,0.499,-50.415,91.003,-68.665,
00:00:34:634,0.418,-0.724,0.484,-54.444,73.547,-77.454,
00:00:34:650,0.387,-0.688,0.459,-43.763,55.847,-75.989,
00:00:34:667,0.371,-0.686,0.44,-8.912,41.931,-75.44,
00:00:34:684,0.371,-0.702,0.413,53.344,20.446,-60.364,
00:00:34:700,0.361,-0.733,0.388,72.509,4.882,-51.819,
00:00:34:717,0.368,-0.759,0.377,48.095,-7.569,-55.603,
00:00:34:734,0.371,-0.806,0.387,4.333,-4.456,-70.679,
00:00:34:750,0.386,-0.824,0.398,-34.668,11.535,-80.628,
00:00:34:767,0.41,-0.868,0.419,-65.552,12.268,-91.187,
00:00:34:784,0.428,-0.864,0.447,-121.46,17.578,-100.464,
00:00:34:800,0.437,-0.861,0.496,-179.383,27.221,-132.996,
00:00:34:817,0.426,-0.82,0.52,-252.808,39.978,-153.26,
00:00:34:834,0.419,-0.762,0.514,-310.547,54.504,-168.091,
00:00:34:850,0.425,-0.711,0.468,-323.06,66.833,-160.645,
00:00:34:867,0.403,-0.66,0.477,-339.051,79.223,-150.696,
00:00:34:884,0.389,-0.592,0.489,-321.534,122.375,-133.118,
00:00:34:900,0.407,-0.606,0.504,-267.395,174.072,-129.517,
00:00:34:917,0.442,-0.661,0.513,-286.133,231.018,-133.423,
00:00:34:934,0.478,-0.686,0.527,-305.909,273.254,-137.391,
00:00:34:950,0.463,-0.711,0.544,-381.226,305.297,-187.561,
00:00:34:967,0.448,-0.728,0.536,-442.505,324.951,-229.187,
00:00:34:984,0.415,-0.709,0.53,-498.291,322.082,-262.33,
00:00:35:0,0.366,-0.661,0.54,-527.039,326.782,-296.753,
00:00:35:17,0.359,-0.627,0.541,-459.534,315.612,-300.232,
00:00:35:34,0.361,-0.658,0.537,-438.111,303.772,-312.561,
00:00:35:50,0.424,-0.667,0.508,-431.397,252.746,-310.975,
00:00:35:67,0.458,-0.707,0.538,-446.289,195.312,-331.299,
00:00:35:84,0.468,-0.679,0.548,-461.548,142.273,-334.229,
00:00:35:100,0.487,-0.631,0.536,-432.557,98.938,-299.622,
00:00:35:117,0.565,-0.702,0.501,-469.483,51.025,-289.734,
00:00:35:134,0.584,-0.559,0.57,-533.875,-0.489,-232.911,
00:00:35:150,0.682,-0.554,0.522,-578.37,-46.387,-212.647,
00:00:35:167,0.712,-0.527,0.544,-569.642,-54.2,-82.581,
00:00:35:184,0.622,-0.399,0.554,-544.495,-64.331,120.056,
00:00:35:200,0.75,-2.656,0.877,-246.033,-32.288,-185.73,
00:00:35:217,0.773,0.04,0.583,-601.319,-215.882,33.691,
00:00:35:234,0.677,-0.436,0.311,-301.148,-120.789,78.43,
00:00:35:250,0.738,-0.694,0.578,-100.403,-51.819,122.314,
00:00:35:267,0.679,-0.651,0.67,-318.909,38.94,91.43,
00:00:35:284,0.516,-0.447,0.714,-121.094,183.715,185.18,
00:00:35:300,0.394,-0.586,0.768,8.544,301.757,222.229,
00:00:35:317,0.386,-0.46,0.734,-32.715,355.407,207.946,
00:00:35:334,0.129,-0.217,0.822,-36.011,328.857,188.659,
00:00:35:350,-0.14,-0.327,0.927,72.326,262.756,170.288,
00:00:35:367,-0.136,-0.63,1.018,146.423,141.479,148.681,
