TIMECODE,ACC_X,ACC_Y,ACC_Z,GYR_X,GYR_Y,GYR_Z,TAG
00:00:00:0,-0.269,0.682,0.344,-878.785,-174.378,-126.404,
00:00:00:16,-0.305,0.676,0.292,-992.615,-211.609,-146.424,
00:00:00:33,-0.301,0.715,0.258,-1054.078,-227.967,-136.353,
00:00:00:50,-0.311,0.949,0.174,-910.035,-262.757,-149.048,
00:00:00:66,-0.395,1.187,0.136,-577.515,-284.607,-149.964,
00:00:00:83,-0.442,1.199,0.17,-311.951,-219.117,-137.269,
00:00:00:100,-0.41,0.896,0.267,-114.441,-165.772,-160.218,
00:00:00:116,-0.397,0.818,0.343,-157.41,-216.675,-146.607,
00:00:00:133,-0.389,0.852,0.392,-181.519,-203.98,-180.787,
00:00:00:150,-0.35,0.92,0.434,-131.653,-199.28,-186.463,
00:00:00:166,-0.323,0.858,0.378,-165.772,-200.623,-158.936,
00:00:00:183,-0.338,0.841,0.323,-289.49,-214.6,-149.903,
00:00:00:200,-0.361,0.911,0.214,-301.331,-208.802,-163.453,
00:00:00:216,-0.353,0.981,0.164,-166.26,-170.166,-169.983,
00:00:00:233,-0.344,0.974,0.145,15.197,-135.743,-172.547,
00:00:00:250,-0.323,0.942,0.157,128.662,-86.487,-135.437,
00:00:00:266,-0.356,0.768,0.066,117.675,-51.148,-114.319,
00:00:00:283,-0.283,0.993,0.229,197.082,-56.641,-169.617,
00:00:00:300,-0.285,0.842,0.265,332.58,10.498,-89.295,
00:00:00:316,-0.274,0.874,0.267,306.64,8.056,-55.481,
00:00:00:333,-0.285,0.85,0.304,273.803,23.01,-21.607,
00:00:00:350,-0.344,0.534,0.168,100.219,80.322,52.002,
00:00:00:366,-0.219,1.09,0.592,66.528,28.808,-37.476,
00:00:00:383,-0.295,0.855,0.373,290.405,156.433,86.486,
00:00:00:400,-0.258,0.736,0.387,149.719,128.357,123.047,
00:00:00:416,-0.313,0.819,0.384,76.66,149.963,156.311,
00:00:00:433,-0.298,0.842,0.376,118.286,170.776,191.223,
00:00:00:450,-0.296,0.798,0.349,119.018,194.824,217.834,
00:00:00:466,-0.306,0.826,0.373,65.49,156.25,232.177,
00:00:00:483,-0.354,0.816,0.409,-49.378,153.015,273.254,
00:00:00:500,-0.355,0.821,0.406,-131.47,146.545,283.874,
00:00:00:516,-0.413,0.839,0.316,-232.178,127.38,266.601,
00:00:00:533,-0.459,0.898,0.243,-295.227,88.44,229.858,
00:00:00:550,-0.544,0.946,0.208,-250.916,94.909,189.453,
00:00:00:566,-0.459,0.926,0.236,-241.944,96.008,76.538,
00:00:00:583,-0.47,0.882,0.269,-212.769,149.719,14.953,
00:00:00:600,-0.364,0.846,0.259,-199.097,179.687,10.986,
00:00:00:616,-0.398,0.484,0.03,-492.005,234.985,107.788,
00:00:00:633,-0.356,1.112,0.289,-352.112,125.244,-81.543,
00:00:00:650,-0.317,0.714,0.304,228.454,122.436,11.169,
00:00:00:666,-0.311,0.82,0.315,41.626,88.501,5.798,
00:00:00:683,-0.332,0.896,0.273,-2.808,61.889,15.502,
00:00:00:700,-0.343,0.83,0.226,-28.26,62.255,15.869,
00:00:00:716,-0.334,0.868,0.232,-23.133,62.683,10.62,
00:00:00:733,-0.361,0.881,0.246,37.048,75.866,13.061,
00:00:00:750,-0.369,0.874,0.256,111.145,100.036,14.465,
00:00:00:766,-0.38,0.865,0.273,173.584,115.112,9.765,
00:00:00:783,-0.374,0.855,0.292,206.421,133.3,13.061,
00:00:00:800,-0.354,0.856,0.303,231.201,119.567,9.216,
00:00:00:816,-0.371,0.89,0.323,258.178,64.453,0.671,
00:00:00:833,-0.454,0.814,0.311,230.835,96.252,9.094,
00:00:00:850,-0.449,0.825,0.326,182.495,110.901,5.554,
00:00:00:866,-0.441,0.828,0.355,197.204,118.042,5.31,
00:00:00:883,-0.425,0.824,0.362,221.313,124.267,11.779,
00:00:00:900,-0.398,0.807,0.369,196.228,130.737,15.075,
00:00:00:916,-0.393,0.816,0.401,113.769,103.393,8.544,
00:00:00:933,-0.39,0.828,0.412,90.698,88.623,3.418,
00:00:00:950,-0.392,0.821,0.441,89.233,87.951,-5.066,
00:00:00:966,-0.375,0.783,0.43,47.424,97.778,-4.761,
00:00:00:983,-0.355,0.77,0.429,-228.943,51.94,26.062,
00:00:01:0,-0.356,0.772,0.403,-322.327,34.973,16.601,
00:00:01:16,-0.355,0.805,0.362,-366.639,8.117,12.634,
00:00:01:33,-0.354,0.838,0.325,-349.183,-19.471,12.085,
00:00:01:50,-0.368,0.859,0.299,-303.65,-45.838,17.089,
00:00:01:66,-0.385,0.86,0.273,-206.727,-61.463,14.648,
00:00:01:83,-0.403,0.872,0.249,-113.587,-68.848,14.099,
00:00:01:100,-0.419,0.861,0.251,-38.697,-71.167,15.869,
00:00:01:116,-0.412,0.843,0.256,5.065,-60.547,19.958,
00:00:01:133,-0.412,0.83,0.263,25.878,-74.585,15.075,
00:00:01:150,-0.401,0.837,0.3,67.26,-110.779,26.672,
00:00:01:166,-0.415,0.856,0.324,120.361,-113.038,26.245,
00:00:01:183,-0.429,0.937,0.303,352.417,-93.934,0.976,
00:00:01:200,-0.407,0.94,0.214,687.927,-76.844,6.958,
00:00:01:216,-0.417,0.816,0.127,828.979,-130.005,17.334,
00:00:01:233,-0.472,0.758,0.243,817.016,-148.377,16.906,
00:00:01:250,-0.465,0.799,0.395,795.105,-101.624,28.625,
00:00:01:266,-0.475,0.786,0.515,812.317,-30.945,21.423,
00:00:01:283,-0.428,0.662,0.619,556.518,11.169,0.183,
00:00:01:300,-0.395,0.656,0.622,125.305,-24.659,-22.583,
00:00:01:316,-0.408,0.647,0.586,39.978,-47.547,-27.832,
00:00:01:333,-0.431,0.727,0.557,-78.553,-63.538,-14.71,
00:00:01:350,-0.395,0.744,0.455,-132.142,-61.524,-13.428,
00:00:01:366,-0.4,0.718,0.456,-182.618,-106.934,-27.832,
00:00:01:383,-0.44,0.779,0.621,-32.044,-170.899,-88.623,
00:00:01:400,-0.526,0.721,0.502,-26.185,-114.075,-55.726,
00:00:01:416,-0.407,0.669,0.432,-49.622,-153.992,-65.308,
00:00:01:433,-0.521,0.686,0.419,-108.704,-211.792,-98.389,
00:00:01:450,-0.453,0.723,0.454,-147.217,-211.121,-54.2,
00:00:01:466,-0.436,0.712,0.507,-276.856,-252.564,-78.248,
00:00:01:483,-0.613,0.856,0.341,-258.362,-176.392,-66.712,
00:00:01:500,-0.485,0.821,0.446,-159.913,-219.666,-78.186,
00:00:01:516,-0.482,0.752,0.382,-88.807,-174.561,-91.431,
00:00:01:533,-0.413,0.7,0.429,-149.903,-181.702,-105.164,
00:00:01:550,-0.387,0.949,0.259,-227.173,-17.029,44.189,
00:00:01:566,-0.416,0.654,0.476,-170.716,-181.092,-89.356,
00:00:01:583,-0.479,0.637,0.313,-246.705,-117.127,-10.621,
00:00:01:600,-0.376,0.818,0.24,-370.728,-173.645,-19.41,
00:00:01:616,-0.582,0.968,0.233,112.243,-190.796,-87.769,
00:00:01:633,-0.58,0.807,0.384,260.254,-152.649,-40.223,
00:00:01:650,-0.603,0.786,0.279,-97.779,-175.354,-59.388,
00:00:01:666,-0.493,0.788,0.363,-177.979,-244.263,-21.79,
00:00:01:683,-0.483,0.689,0.449,-183.533,-296.021,-25.452,
00:00:01:700,-0.37,0.709,0.471,-195.069,-323.121,-28.687,
00:00:01:716,-0.419,0.72,0.45,-289.673,-375.184,-38.392,
00:00:01:733,-0.468,0.732,0.368,-391.907,-367.066,-59.51,
00:00:01:750,-0.481,0.788,0.322,-542.42,-363.16,-70.923,
00:00:01:766,-0.505,0.861,0.253,-586.243,-321.839,-90.577,
00:00:01:783,-0.518,0.855,0.18,-525.757,-295.044,-94.178,
00:00:01:800,-0.517,0.896,0.127,-434.327,-257.203,-101.136,
00:00:01:816,-0.506,0.868,0.064,-305.787,-186.585,-92.713,
00:00:01:833,-0.473,0.85,0.061,-216.736,-158.02,-67.81,
00:00:01:850,-0.477,0.821,0.038,-38.819,-161.255,-28.809,
00:00:01:866,-0.522,0.839,0.065,25.878,-138.367,-10.621,
00:00:01:883,-0.51,0.813,0.104,1.77,-69.764,45.166,
00:00:01:900,-0.512,0.827,0.119,-16.846,-65.491,55.725,
00:00:01:916,-0.538,0.843,0.119,-2.259,-59.937,57.678,
00:00:01:933,-0.509,0.843,0.115,47.546,-35.34,44.006,
00:00:01:950,-0.502,0.848,0.112,97.168,-16.358,30.334,
00:00:01:966,-0.531,0.851,0.068,39.794,-49.744,1.892,
00:00:01:983,-0.543,0.854,0.037,1.709,-61.768,-1.221,
00:00:02:0,-0.538,0.865,0.076,58.532,-34.913,-24.231,
00:00:02:16,-0.537,0.852,0.067,106.445,-24.048,-37.293,
00:00:02:33,-0.527,0.847,0.106,120.971,-24.964,-42.237,
00:00:02:50,-0.534,0.833,0.123,155.334,-10.01,-48.645,
00:00:02:66,-0.52,0.826,0.125,168.579,0,-44.8,
00:00:02:83,-0.547,0.818,0.113,152.71,-4.151,-33.936,
00:00:02:100,-0.53,0.827,0.132,168.029,-1.831,-36.683,
00:00:02:116,-0.529,0.783,0.159,208.557,-6.47,-44.373,
00:00:02:133,-0.531,0.836,0.181,228.393,-12.574,-75.501,
00:00:02:150,-0.539,0.808,0.128,-16.358,-13.245,-80.872,
00:00:02:166,-0.548,0.831,0.148,-59.937,-8.057,-66.712,
00:00:02:183,-0.516,0.84,0.155,-5.799,-17.456,-78.309,
00:00:02:200,-0.526,0.843,0.165,-9.583,-25.513,-93.14,
00:00:02:216,-0.527,0.83,0.195,-48.829,10.864,-96.375,
00:00:02:233,-0.508,0.833,0.046,-191.102,44.189,-86.853,
00:00:02:250,-0.462,0.917,0.043,-194.703,73.608,-79.468,
00:00:02:266,-0.43,0.85,0.023,-103.089,65.124,-46.57,
00:00:02:283,-0.448,0.835,0.033,-31.128,72.631,-49.805,
00:00:02:300,-0.499,0.898,-0.003,79.895,76.965,-66.59,
00:00:02:316,-0.541,0.951,-0.008,291.015,113.342,-53.65,
00:00:02:333,-0.503,0.887,-0.085,430.236,121.765,-34.852,
00:00:02:350,-0.486,0.859,-0.014,453.735,77.514,-41.138,
00:00:02:366,-0.506,0.875,0.047,469.116,85.998,-33.936,
00:00:02:383,-0.527,0.618,-0.039,387.695,135.864,14.648,
00:00:02:400,-0.422,0.598,0.122,-232.911,103.21,-73.853,
00:00:02:416,-0.527,0.773,0.147,125.671,165.954,-33.081,
00:00:02:433,-0.445,0.788,0.301,105.163,210.815,22.033,
00:00:02:450,-0.444,0.904,0.39,322.692,236.511,9.216,
00:00:02:466,-0.467,0.891,0.463,444.946,263.794,11.108,
00:00:02:483,-0.46,0.723,0.447,523.376,291.87,11.108,
00:00:02:500,-0.319,0.676,0.438,469.055,236.572,-56.397,
00:00:02:516,-0.443,0.499,0.487,623.962,218.75,-135.865,
00:00:02:533,-0.393,0.659,0.442,362.365,203.857,-117.249,
00:00:02:550,-0.436,1.085,0.49,536.255,125.732,-98.694,
00:00:02:566,-0.518,0.686,0.318,449.096,92.712,-42.664,
00:00:02:583,-0.486,0.685,0.269,222.778,134.643,-44.922,
00:00:02:600,-0.445,0.952,0.227,237.854,134.765,-26.246,
00:00:02:616,-0.485,1.01,0.311,624.45,126.403,-18.86,
00:00:02:633,-0.468,0.787,0.386,901.916,179.992,44.677,
00:00:02:650,-0.409,0.644,0.533,838.195,192.443,114.074,
00:00:02:666,-0.36,0.579,0.686,549.865,148.376,125.488,
00:00:02:683,-0.381,0.616,0.671,344.848,93.566,94.97,
00:00:02:700,-0.414,0.659,0.575,194.397,77.331,81.481,
00:00:02:716,-0.48,0.636,0.464,68.786,44.494,79.528,
00:00:02:733,-0.493,0.585,0.506,24.169,86.425,51.696,
00:00:02:750,-0.452,0.574,0.54,58.532,123.535,13.305,
00:00:02:766,-0.434,0.599,0.514,5.249,75.744,7.019,
00:00:02:783,-0.465,0.766,0.588,-58.777,27.221,-43.03,
00:00:02:800,-0.469,0.768,0.528,-29.725,61.706,-15.259,
00:00:02:816,-0.381,0.694,0.567,-154.664,28.747,-12.452,
00:00:02:833,-0.428,0.635,0.57,-202.088,-9.034,-71.778,
00:00:02:850,-0.482,0.76,0.623,-163.208,-40.589,-87.525,
00:00:02:866,-0.432,0.702,0.696,-297.425,-21.79,-89.295,
00:00:02:883,-0.518,0.828,0.614,-170.35,62.072,-89.966,
00:00:02:900,-0.517,0.726,0.409,-292.664,112.365,53.955,
00:00:02:916,-0.464,0.706,0.288,-254.517,218.505,40.283,
00:00:02:933,-0.362,0.674,0.285,-120.24,289.001,68.664,
00:00:02:950,-0.366,0.921,0.505,376.953,255.371,42.907,
00:00:02:966,-0.302,0.581,0.717,345.153,168.762,118.896,
00:00:02:983,-0.369,0.583,0.774,103.454,131.164,65.368,
00:00:03:0,-0.502,0.858,0.615,22.155,197.876,27.343,
00:00:03:16,-0.484,0.662,0.583,403.747,141.357,45.044,
00:00:03:33,-0.476,0.658,0.607,302.612,184.265,42.541,
00:00:03:50,-0.41,0.674,0.608,156.555,177.185,59.753,
00:00:03:66,-0.388,0.64,0.637,49.072,126.831,53.039,
00:00:03:83,-0.454,0.626,0.511,245.849,154.785,58.471,
00:00:03:100,-0.429,0.646,0.544,268.127,178.955,72.876,
00:00:03:116,-0.406,0.612,0.596,247.131,183.715,69.091,
00:00:03:133,-0.402,0.606,0.635,198.364,165.588,63.476,
00:00:03:150,-0.398,0.604,0.688,151.184,154.602,65.673,
00:00:03:166,-0.392,0.582,0.718,117.126,140.442,56.518,
00:00:03:183,-0.376,0.566,0.725,48.156,127.868,46.447,
00:00:03:200,-0.36,0.576,0.724,-39.978,100.708,37.902,
00:00:03:216,-0.361,0.591,0.705,-104.676,66.162,16.174,
00:00:03:233,-0.36,0.598,0.698,-160.035,48.278,13.427,
00:00:03:250,-0.351,0.595,0.67,-215.699,25.329,12.39,
00:00:03:266,-0.353,0.579,0.646,-268.982,2.502,8.483,
00:00:03:283,-0.367,0.598,0.638,-319.031,-26.49,-5.738,
00:00:03:300,-0.388,0.657,0.618,-279.786,-18.86,-17.884,
00:00:03:316,-0.392,0.702,0.605,-189.759,-0.123,-10.376,
00:00:03:333,-0.396,0.724,0.589,-84.473,-4.212,-11.902,
00:00:03:350,-0.421,0.709,0.568,-5.86,11.169,-4.395,
00:00:03:366,-0.423,0.682,0.574,36.377,28.747,11.108,
00:00:03:383,-0.426,0.682,0.618,55.175,39.733,15.319,
00:00:03:400,-0.435,0.704,0.721,100.158,54.748,23.864,
00:00:03:416,-0.427,0.706,0.831,175.659,96.618,40.954,
00:00:03:433,-0.418,0.719,0.944,247.802,163.086,18.737,
00:00:03:450,-0.382,0.871,1.241,51.696,278.503,-90.821,
00:00:03:466,-0.362,0.583,1.649,-234.742,376.22,-30.396,
00:00:03:483,-0.037,0.674,2.028,-390.992,580.81,91.064,
00:00:03:500,0.301,1.651,2.23,-281.861,279.602,251.281,
00:00:03:516,-0.065,1.387,2.793,1900.817,-194.336,280.395,
00:00:03:533,-0.153,0.881,2.436,1999.694,-100.892,189.453,
00:00:03:550,-0.222,-0.029,1.953,1999.694,-155.274,4.882,
00:00:03:566,-0.504,-0.877,1.662,1999.694,-299.195,-307.068,
00:00:03:583,-0.802,-1.48,1.611,1999.694,-188.904,-762.696,
00:00:03:600,-0.858,-1.615,1.6,1999.694,75.622,-1276.001,
00:00:03:616,-0.487,-1.516,1.466,1999.694,506.713,-1944.886,
00:00:03:633,-0.114,-1.366,1.342,1999.694,974.67,-2000,
00:00:03:650,0.163,-1.012,0.967,1999.694,1503.967,-2000,
00:00:03:666,0.31,-1.221,0.473,1999.694,1889.587,-2000,
00:00:03:683,0.5,-1.191,0.253,1195.373,1999.694,-2000,
00:00:03:700,1.182,-1.011,-0.077,-365.113,1999.694,-2000,
00:00:03:716,3.697,-0.232,-0.779,-879.09,1999.694,-2000,
00:00:03:733,3.999,-0.39,-1.322,-1850.953,1999.694,-2000,
00:00:03:750,3.999,1.561,-0.461,-2000,-337.22,-2000,
00:00:03:766,3.395,1.812,-2.335,-2000,-2000,-2000,
00:00:03:783,0.056,2.907,-2.137,-2000,-2000,-2000,
00:00:03:800,1.863,2.855,-0.657,-72.388,263.244,1601.867,
00:00:03:816,1.671,2.405,-0.484,1388.672,293.274,1795.349,
00:00:03:833,2.215,1.523,-0.744,1999.694,246.826,1999.694,
00:00:03:850,1.747,0.88,-0.192,1797.424,-195.557,1999.694,
00:00:03:866,1.402,0.558,0.442,934.143,-208.069,1999.694,
00:00:03:883,0.551,0.715,0.506,-60.669,153.991,1999.694,
00:00:03:900,0.312,0.344,0.635,134.521,141.601,1999.694,
00:00:03:916,0.212,0.028,0.893,265.808,148.864,1999.694,
00:00:03:933,0.083,-0.322,1.139,333.007,40.039,1999.694,
00:00:03:950,0.007,-0.654,1.384,300.842,-56.702,1999.694,
00:00:03:966,0.006,-0.988,1.542,122.68,-192.322,1999.694,
00:00:03:983,0.011,-1.315,1.667,-336.121,-370.423,1999.694,
00:00:04:0,-0.088,-1.586,1.712,-910.706,-534.302,1999.694,
00:00:04:16,-0.179,-1.761,1.722,-1449.646,-610.657,1999.694,
00:00:04:33,-0.349,-1.677,1.678,-1783.509,-620.301,1999.694,
00:00:04:50,-0.4,-1.486,1.812,-1744.446,-530.64,1999.694,
00:00:04:66,-0.37,-1.361,1.906,-1410.889,-490.296,1996.948,
00:00:04:83,-0.329,-1.31,1.519,-1370.911,-462.22,1705.993,
00:00:04:100,-0.353,-1.047,1.243,-1953.248,-603.882,1408.874,
00:00:04:116,-0.356,-0.183,1.552,-2000,-506.47,996.338,
00:00:04:133,-0.038,0.244,1.217,-357.117,-241.517,464.294,
00:00:04:150,-0.109,0.121,1.231,316.162,-422.608,293.09,
00:00:04:166,-0.262,0.098,1.262,771.667,-363.831,165.222,
00:00:04:183,-0.261,0.199,1.379,1215.82,-278.992,53.833,
00:00:04:200,-0.335,0.181,1.293,1454.528,-67.81,27.343,
00:00:04:216,-0.344,0.224,1.14,1318.359,104.431,-3.357,
00:00:04:233,-0.303,0.322,1.143,1061.401,206.482,-1.465,
00:00:04:250,-0.291,-0.053,1.056,842.773,246.643,-58.35,
00:00:04:266,-0.287,-0.183,0.974,603.027,299.316,-59.998,
00:00:04:283,-0.256,0.007,1.006,493.225,289.856,16.479,
00:00:04:300,-0.311,0.04,1.022,489.99,314.087,138.305,
00:00:04:316,-0.366,-0.049,0.922,471.252,402.343,211.181,
00:00:04:333,-0.346,-0.05,0.891,373.413,427.368,244.079,
00:00:04:350,-0.331,-0.021,0.891,271.484,419.494,250.61,
00:00:04:366,-0.3,-0.004,0.834,336.792,412.78,184.509,
00:00:04:383,-0.297,-0.053,0.834,691.772,485.534,164.55,
00:00:04:400,-0.202,-0.178,0.841,751.648,502.502,165.832,
00:00:04:416,-0.145,-0.261,0.855,697.509,476.684,129.394,
00:00:04:433,-0.136,-0.265,0.877,564.819,427.734,109.68,
00:00:04:450,-0.153,-0.313,0.889,436.767,406.311,99.853,
00:00:04:466,-0.148,-0.344,0.886,311.462,396.789,93.933,
00:00:04:483,-0.117,-0.325,0.907,208.679,376.159,101.257,
00:00:04:500,-0.108,-0.224,0.855,155.944,329.773,75.988,
00:00:04:516,-0.126,-0.228,0.925,167.236,254.272,57.495,
00:00:04:533,-0.152,-0.208,0.942,255.92,238.098,11.962,
00:00:04:550,-0.166,-0.325,0.939,397.583,258.911,4.577,
00:00:04:566,-0.099,-0.359,0.939,379.577,264.77,-3.113,
00:00:04:583,-0.097,-0.363,0.944,360.839,182.129,15.319,
00:00:04:600,-0.144,-0.393,0.962,353.088,154.541,25.39,
00:00:04:616,-0.148,-0.404,0.967,337.28,168.09,56.457,
00:00:04:633,-0.123,-0.384,0.953,376.464,171.753,61.645,
00:00:04:650,-0.11,-0.347,0.936,402.343,136.657,49.56,
00:00:04:666,-0.135,-0.399,0.875,479.919,122.863,50.781,
00:00:04:683,-0.139,-0.499,0.925,469.726,149.719,76.66,
00:00:04:700,-0.104,-0.472,0.804,484.497,162.841,47.912,
00:00:04:716,-0.085,-0.526,0.814,521.606,153.93,46.875,
00:00:04:733,-0.085,-0.639,0.86,525.329,157.348,32.714,
00:00:04:750,-0.074,-0.688,0.909,417.907,170.471,54.809,
00:00:04:766,-0.046,-0.685,0.868,338.745,172.729,65.429,
00:00:04:783,-0.057,-0.727,0.817,295.532,154.052,53.588,
00:00:04:800,-0.031,-0.541,0.817,228.82,132.263,41.992,
00:00:04:816,-0.019,-0.516,0.772,288.391,166.198,27.71,
00:00:04:833,-0.005,-0.609,0.769,325.622,194.519,65.246,
00:00:04:850,0.013,-0.649,0.769,217.956,153.442,68.664,
00:00:04:866,0.062,-0.522,0.815,244.934,124.633,73.303,
00:00:04:883,0.068,-0.5,0.843,404.724,98.938,102.661,
00:00:04:900,0.047,-0.637,0.843,380.188,123.718,147.155,
00:00:04:916,0.067,-0.608,0.787,180.847,92.041,137.268,
00:00:04:933,0.058,-0.666,0.838,60.18,35.461,136.779,
00:00:04:950,0.031,-0.711,0.737,90.82,89.416,62.622,
00:00:04:966,0.049,-0.712,0.703,46.569,81.115,93.627,
00:00:04:983,0.05,-0.728,0.709,-80.628,75.622,65.734,
00:00:05:0,0.05,-0.646,0.761,-81.421,38.696,-7.569,
00:00:05:16,0.012,-0.63,0.818,34.668,42.297,-42.176,
00:00:05:33,0.034,-0.688,0.786,165.588,75.988,-72.449,
00:00:05:50,0.1,-0.627,0.838,133.972,60.424,-91.187,
00:00:05:66,0.106,-0.611,0.818,27.221,2.685,-109.192,
00:00:05:83,0.063,-0.633,0.802,-51.453,-24.231,-107.422,
00:00:05:100,0.044,-0.578,0.812,-40.406,-6.714,-133.179,
00:00:05:116,0.082,-0.539,0.827,5.798,-14.588,-114.014,
00:00:05:133,0.065,-0.589,0.831,14.404,-44.495,-99.976,
00:00:05:150,0.027,-0.55,0.754,2.868,-46.204,-83.619,
00:00:05:166,0.025,-0.548,0.758,28.564,-33.814,-70.496,
00:00:05:183,0.02,-0.62,0.759,133.667,-38.147,-64.27,
00:00:05:200,-0.016,-0.526,0.659,178.344,-41.565,-42.42,
00:00:05:216,0.139,-0.793,0.682,367.309,-26.307,-28.992,
00:00:05:233,0.044,-0.833,0.705,215.698,-48.768,0.488,
00:00:05:250,0.074,-0.73,0.778,-47.425,-5.86,-21.607,
00:00:05:266,0.019,-0.576,0.877,-205.201,-28.138,-54.749,
00:00:05:283,-0.054,-0.653,0.991,-198.182,-5.616,-66.895,
00:00:05:300,0.042,-0.52,0.831,49.499,48.645,-43.457,
00:00:05:316,0.064,-0.768,0.708,89.172,7.629,-6.165,
00:00:05:333,0.039,-0.693,0.741,-26.856,16.845,-23.621,
00:00:05:350,0.011,-0.779,0.785,-140.381,22.705,-71.961,
00:00:05:366,0.013,-0.662,0.773,-122.681,3.479,-69.581,
00:00:05:383,0.003,-0.656,0.731,7.629,-15.87,-62.134,
00:00:05:400,-0.002,-0.699,0.701,26.367,-43.763,-45.655,
00:00:05:416,-0.026,-0.797,0.686,-94.422,-65.064,-65.918,
00:00:05:433,0.084,-0.745,0.705,-61.036,-9.583,-109.803,
00:00:05:450,0.045,-0.702,0.798,-133.24,-31.311,-87.098,
00:00:05:466,0.007,-0.613,0.823,-282.776,-37.232,-81.055,
00:00:05:483,-0.036,-0.475,0.815,-350.892,-29.053,-82.215,
00:00:05:500,0.018,-0.725,0.933,-500.733,11.291,-89.6,canRH
00:00:05:516,0.035,-0.46,0.835,-482.85,-9.034,-150.208,
00:00:05:533,-0.019,-0.669,0.809,-329.041,-3.663,-89.478,
00:00:05:550,-0.005,-0.602,0.769,-295.166,-14.344,-82.093,
00:00:05:566,-0.009,-0.559,0.808,-431.58,-7.752,-69.458,
00:00:05:583,0.008,-0.587,0.902,-765.931,26.55,-87.769,
00:00:05:600,-0.032,-0.51,0.95,-947.266,20.324,-106.873,
00:00:05:616,-0.058,-0.438,0.957,-829.041,68.054,-112.366,
00:00:05:633,-0.01,-0.397,0.946,-710.938,100.83,-56.214,
00:00:05:650,-0.055,-0.393,0.859,-721.314,44.25,-20.935,
00:00:05:666,-0.103,-0.606,0.635,-1075.745,4.394,-11.475,
00:00:05:683,0.032,-0.879,0.91,-1244.812,20.324,-21.546,
00:00:05:700,-0.029,-0.062,0.748,-865.845,-91.065,-79.407,
00:00:05:716,0.001,-0.723,1.18,-1026.307,-72.144,114.196,
00:00:05:733,-0.026,-0.088,0.975,-1208.069,-169.739,-77.271,
00:00:05:750,-0.139,0.096,0.902,-1295.166,-143.555,43.029,
00:00:05:766,0.01,-0.178,1.163,-1375.062,-122.62,-6.226,
00:00:05:783,-0.051,0.459,1.071,-835.694,-133.057,-85.083,
00:00:05:800,-0.059,0.046,0.996,-481.812,-40.284,24.108,
00:00:05:816,-0.042,-0.562,1.037,-879.944,-115.601,15.441,
00:00:05:833,-0.091,0.065,0.989,-1061.951,-132.874,-32.044,
00:00:05:850,-0.157,0.177,0.959,-729.004,-27.039,-63.05,
00:00:05:866,-0.022,-0.009,0.866,-615.662,70.007,-40.223,
00:00:05:883,-0.031,0.02,0.88,-813.233,-71.961,-26.856,
00:00:05:900,-0.157,-0.054,0.761,-1181.153,-113.221,-45.899,
00:00:05:916,0.113,-0.432,1.123,-1870.667,-84.717,-52.185,
00:00:05:933,-0.057,0.844,0.925,-1332.093,-137.207,-181.824,
00:00:05:950,0.031,0.143,0.801,-2000,-109.742,-28.626,
00:00:05:966,-0.328,0.394,0.695,-1072.327,-220.459,-186.768,
00:00:05:983,0.02,0.37,0.79,-1510.01,-109.253,-56.824,
00:00:06:0,-0.072,1.056,0.89,-859.375,-205.811,-135.682,
00:00:06:16,-0.121,0.642,0.733,-374.329,-61.158,-117.188,
00:00:06:33,0.018,0.635,0.753,-386.841,-29.664,-74.524,
00:00:06:50,-0.04,0.56,0.897,-268.189,-49.195,-76.233,
00:00:06:66,-0.054,0.578,1.021,-59.998,155.639,-38.086,
00:00:06:83,0.06,1.007,0.879,344.238,112.426,-33.936,
00:00:06:100,-0.062,1.086,0.966,605.713,16.174,-135.376,
00:00:06:116,-0.169,0.924,0.983,1026.794,134.277,-118.103,
00:00:06:133,-0.062,0.775,0.991,1627.685,248.596,-92.957,
00:00:06:150,0.021,0.633,1.135,1999.694,277.954,-41.016,
00:00:06:166,-0.047,0.556,1.105,1999.694,327.026,-61.524,
00:00:06:183,-0.054,0.577,1.091,1999.694,316.284,-104.187,
00:00:06:200,-0.001,0.273,0.824,1999.694,192.138,-14.71,
00:00:06:216,-0.068,-0.149,0.75,1999.694,95.764,48.584,
00:00:06:233,-0.14,-0.678,0.82,1999.694,178.039,93.2,
00:00:06:250,-0.228,-0.83,0.806,1999.694,200.012,270.141,
00:00:06:266,-0.297,-0.766,0.756,1995.361,311.767,358.032,
00:00:06:283,-0.275,-0.62,0.702,1067.443,440.49,449.218,
00:00:06:300,-0.121,-0.437,0.673,520.691,462.158,522.827,
00:00:06:316,-0.089,-0.286,0.735,743.896,448.242,535.827,
00:00:06:333,-0.028,-0.554,0.836,1279.663,579.223,690.368,
00:00:06:350,0.17,-0.766,0.832,1396.057,621.948,785.888,
00:00:06:366,0.147,-0.612,0.658,1224.853,547.363,705.993,
00:00:06:383,0.131,-0.675,0.532,1122.436,611.999,638.672,
00:00:06:400,0.223,-0.895,0.498,817.566,579.528,508.484,
00:00:06:416,0.296,-0.905,0.384,518.066,525.146,400.695,
00:00:06:433,0.299,-0.83,0.496,416.809,468.933,329.834,
00:00:06:450,0.403,-0.827,0.517,472.046,220.398,193.908,
00:00:06:466,0.357,-0.808,0.457,288.452,143.31,122.497,
00:00:06:483,0.293,-0.75,0.411,77.575,89.965,102.539,
00:00:06:500,0.36,-0.757,0.371,-30.701,-32.959,104.614,
00:00:06:516,0.325,-0.563,0.44,-80.018,-137.146,146.423,
00:00:06:533,0.387,-0.421,0.385,141.906,-107.117,158.02,
00:00:06:550,0.376,-0.696,0.331,299.377,-87.769,167.602,
00:00:06:566,0.433,-0.724,0.298,297.485,-66.468,152.16,
00:00:06:583,0.386,-0.748,0.294,380.676,-43.519,151.062,
00:00:06:600,0.42,-0.798,0.29,282.165,3.845,139.221,
00:00:06:616,0.462,-0.75,0.296,213.501,6.347,106.628,
00:00:06:633,0.449,-0.793,0.315,170.837,43.335,88.073,
00:00:06:650,0.453,-0.761,0.364,112.609,44.25,64.758,
00:00:06:666,0.483,-0.698,0.376,105.713,3.54,56.03,
00:00:06:683,0.479,-0.779,0.359,157.531,9.582,34.912,
00:00:06:700,0.522,-0.832,0.313,143.371,20.202,-29.236,
00:00:06:716,0.565,-0.943,0.337,71.899,-40.467,-73.914,
00:00:06:733,0.506,-0.911,0.425,-82.825,-73.914,-127.015,
00:00:06:750,0.412,-0.678,0.511,-111.939,-120.362,-133.545,
00:00:06:766,0.457,-0.667,0.497,8.239,-128.785,-96.436,
00:00:06:783,0.344,-0.67,0.469,65.551,-125.306,-37.171,
00:00:06:800,0.466,-0.827,0.443,15.441,-128.357,14.343,
00:00:06:816,0.403,-0.824,0.369,-31.495,-125.428,42.48,
00:00:06:833,0.461,-0.849,0.318,-148.194,-95.093,40.466,
00:00:06:850,0.391,-0.829,0.369,-332.764,-100.403,32.653,
00:00:06:866,0.509,-0.809,0.428,-255.677,-57.007,-0.306,
00:00:06:883,0.416,-0.749,0.508,-123.78,-4.517,-15.076,
00:00:06:900,0.392,-0.844,0.57,-139.954,-38.88,-25.452,
00:00:06:916,0.413,-0.827,0.567,-92.408,-16.846,-37.781,
00:00:06:933,0.412,-0.801,0.524,-108.704,-4.517,-64.576,
00:00:06:950,0.389,-0.77,0.484,-132.508,-0.489,-74.585,
00:00:06:966,0.359,-0.78,0.446,-107.422,-61.036,-81.91,
00:00:06:983,0.336,-0.782,0.443,-209.046,-45.044,-95.704,
00:00:07:0,0.348,-0.822,0.362,-406.128,-31.006,-140.503,
00:00:07:16,0.332,-0.658,0.507,-185.547,-20.264,-131.348,
00:00:07:33,0.398,-0.757,0.491,-53.223,2.258,-122.315,
00:00:07:50,0.32,-0.658,0.529,-93.75,5.615,-112.732,
00:00:07:66,0.287,-0.78,0.492,-367.188,-24.048,-102.539,
00:00:07:83,0.476,-0.976,0.46,-432.984,-9.217,-144.837,
00:00:07:100,0.352,-0.973,0.461,-254.334,-19.959,-129.151,
00:00:07:116,0.348,-0.773,0.514,-159.485,-44.068,-101.014,
00:00:07:133,0.317,-0.815,0.575,-673.645,-63.904,-75.623,
00:00:07:150,0.41,-0.801,0.633,-781.983,-60.242,-109.009,
00:00:07:166,0.309,-0.646,0.76,-525.757,-62.073,-107.178,
00:00:07:183,0.369,-0.683,0.775,-249.878,-47.791,-75.989,
00:00:07:200,0.352,-0.685,0.782,-196.595,-36.499,-93.567,
00:00:07:216,0.333,-0.695,0.788,-314.454,1.831,-114.38,
00:00:07:233,0.356,-0.668,0.736,-498.719,-3.357,-120.667,
00:00:07:250,0.33,-0.627,0.717,-665.223,-42.664,-126.526,
00:00:07:266,0.298,-0.729,0.672,-984.192,-74.707,-114.197,
00:00:07:283,0.348,-0.55,0.83,-1009.217,-69.092,-175.599,
00:00:07:300,0.32,-0.495,0.808,-664.551,-108.643,-99.854,
00:00:07:316,0.293,-0.676,0.862,-1267.701,-150.086,-151.49,
00:00:07:333,0.267,-0.466,0.893,-1209.351,-163.88,-250.855,
00:00:07:350,0.277,-0.383,0.899,-919.739,-141.968,-130.738,
00:00:07:366,0.26,-0.441,0.869,-888.672,-199.219,-57.557,
00:00:07:383,0.273,-0.527,0.933,-990.113,-245.179,-129.944,
00:00:07:400,0.211,-0.291,1.135,-877.198,-190.918,-121.033,
00:00:07:416,0.27,-0.13,0.939,-569.092,-97.535,-66.224,
00:00:07:433,0.286,-0.312,0.943,-584.534,-139.954,-30.335,
00:00:07:450,0.177,-0.433,0.979,-1132.935,-235.108,-147.278,
00:00:07:466,0.302,-0.308,0.732,25.94,-114.258,37.78,
00:00:07:483,0.085,-0.323,0.764,-442.749,-177.063,-18.616,
00:00:07:500,0.189,-0.686,1.151,-1349.793,-187.012,39.856,
00:00:07:516,0.154,0.115,1.162,-1287.11,-59.815,-108.521,
00:00:07:533,0.254,0.047,1.119,-926.087,-7.508,8.239,
00:00:07:550,0.264,-0.804,1.15,-1731.934,-126.709,81.726,
00:00:07:566,0.221,0.201,1.092,-1839.966,-164.307,-45.105,
00:00:07:583,0.266,0.143,1.064,-1429.261,-143.555,-108.094,
00:00:07:600,0.214,-0.155,1.018,-1614.075,-197.449,-146.546,
00:00:07:616,0.184,0.81,1.072,-970.093,-19.776,-159.302,
00:00:07:633,0.197,0.474,0.988,-229.004,138.122,-99.427,
00:00:07:650,0.298,0.026,0.856,-174.134,147.277,-25.086,
00:00:07:666,0.313,0.016,0.949,-218.873,119.69,-39.978,
00:00:07:683,0.298,0.098,1.051,-130.677,136.352,-82.276,
00:00:07:700,0.271,0.363,1.119,233.459,164.306,-139.1,
00:00:07:716,0.247,0.484,1.057,578.613,138,-119.446,
00:00:07:733,0.228,0.618,0.988,792.724,78.674,-176.392,
00:00:07:750,0.172,0.54,0.952,1153.869,72.937,-220.704,
00:00:07:766,0.163,0.345,0.994,1829.895,108.276,-295.044,
00:00:07:783,0.203,0.215,0.939,1999.694,247.497,-330.018,
00:00:07:800,0.263,0.027,0.942,1999.694,295.654,-314.026,
00:00:07:816,0.304,-0.522,0.796,1999.694,197.998,-203.919,
00:00:07:833,0.231,-1.066,0.795,1999.694,190.185,-261.841,
00:00:07:850,0.132,-1.025,0.723,1999.694,37.231,27.343,
00:00:07:866,0.027,-0.85,0.761,1999.694,364.746,77.331,
00:00:07:883,0.105,-0.766,0.695,1441.345,356.445,201.599,
00:00:07:900,0.336,-0.658,0.805,967.59,344.909,46.02,
00:00:07:916,0.372,-0.632,0.788,765.869,207.763,-53.956,
00:00:07:933,0.15,-0.575,0.857,649.414,267.761,46.691,
00:00:07:950,0.289,-0.43,0.693,787.658,281.372,62.439,
00:00:07:966,0.17,-0.451,0.479,1134.887,273.559,41.442,
00:00:07:983,0.272,-0.744,0.431,960.205,299.804,159.24,
00:00:08:0,0.234,-0.795,0.516,566.772,167.419,198.852,
00:00:08:16,0.259,-0.625,0.633,278.259,104.187,177.978,
00:00:08:33,0.25,-0.587,0.717,228.759,60.73,184.57,
00:00:08:50,0.222,-0.604,0.605,313.476,54.992,197.57,
00:00:08:66,0.237,-0.707,0.489,351.074,22.461,213.745,
00:00:08:83,0.303,-0.725,0.422,269.348,-29.297,222.473,
00:00:08:100,0.316,-0.662,0.37,131.286,-84.839,221.313,
00:00:08:116,0.366,-0.71,0.414,33.081,-141.663,225.647,
00:00:08:133,0.396,-0.727,0.497,-36.927,-146.668,228.393,
00:00:08:150,0.4,-0.691,0.47,25.39,-174.683,197.937,
00:00:08:166,0.393,-0.824,0.388,68.42,-173.768,172.18,
00:00:08:183,0.472,-0.82,0.327,8.789,-193.787,147.949,
00:00:08:200,0.481,-0.833,0.273,-43.335,-203.858,112.182,
00:00:08:216,0.465,-0.818,0.342,-73.792,-202.332,60.058,
00:00:08:233,0.468,-0.798,0.358,-82.52,-198.548,12.939,
00:00:08:250,0.435,-0.9,0.362,-81.971,-169.8,-37.598,
00:00:08:266,0.455,-0.946,0.401,-165.467,-133.24,-36.011,
00:00:08:283,0.451,-0.779,0.421,-25.086,-76.233,-58.838,
00:00:08:300,0.446,-0.846,0.41,127.38,-17.579,-49.927,
00:00:08:316,0.444,-0.756,0.376,115.234,-3.418,-57.557,
00:00:08:333,0.422,-0.822,0.376,65.612,29.052,-74.402,
00:00:08:350,0.38,-0.846,0.401,-55.542,66.406,-67.505,
00:00:08:366,0.384,-0.771,0.437,-117.737,76.843,-58.167,
00:00:08:383,0.369,-0.803,0.525,-134.217,58.288,-32.105,
00:00:08:400,0.391,-0.789,0.552,-37.171,51.269,-11.902,
00:00:08:416,0.413,-0.815,0.536,11.779,25.512,-2.564,
00:00:08:433,0.406,-0.811,0.533,51.879,-13.916,3.845,
00:00:08:450,0.407,-0.805,0.511,91.613,-51.331,16.967,
00:00:08:466,0.409,-0.785,0.486,100.83,-50.538,21.972,
00:00:08:483,0.414,-0.812,0.409,58.227,-31.25,12.573,
00:00:08:500,0.374,-0.791,0.421,3.784,-23.133,12.085,
00:00:08:516,0.412,-0.809,0.418,-60.181,-18.738,11.718,
00:00:08:533,0.382,-0.796,0.43,-107.422,-29.847,12.207,
00:00:08:550,0.381,-0.812,0.443,-136.231,-29.297,4.394,
00:00:08:566,0.357,-0.822,0.477,-201.539,-30.762,-15.686,
00:00:08:583,0.329,-0.781,0.496,-319.275,-44.922,-42.42,
00:00:08:600,0.321,-0.826,0.547,-576.172,-87.83,-89.539,
00:00:08:616,0.531,-0.84,0.477,-327.088,-54.444,-132.142,
00:00:08:633,0.432,-0.752,0.476,-177.979,-82.398,-109.192,
00:00:08:650,0.429,-0.837,0.514,-159.852,-69.581,-147.095,
00:00:08:666,0.411,-0.738,0.551,-232.178,-54.261,-181.885,
00:00:08:683,0.382,-0.691,0.571,-310.73,-40.65,-209.29,
00:00:08:700,0.343,-0.654,0.606,-336.06,-65.613,-194.886,
00:00:08:716,0.298,-0.609,0.635,-390.625,-99.122,-168.58,
00:00:08:733,0.251,-0.743,0.59,-485.84,-114.441,-174.073,
00:00:08:750,0.355,-0.785,0.521,-179.322,-85.511,-146.729,
00:00:08:766,0.374,-0.788,0.558,-57.74,-76.722,-111.268,
00:00:08:783,0.383,-0.758,0.593,-120.911,-76.661,-101.746,
00:00:08:800,0.382,-0.688,0.668,-208.558,-74.585,-107.178,
00:00:08:816,0.354,-0.652,0.703,-223.206,-51.636,-109.192,
00:00:08:833,0.294,-0.662,0.711,-280.64,-42.725,-93.75,
00:00:08:850,0.273,-0.65,0.697,-365.662,-56.031,-79.59,
00:00:08:866,0.386,-0.801,0.558,-217.408,-24.964,-91.492,
00:00:08:883,0.307,-0.781,0.571,-80.018,-36.927,-95.154,
00:00:08:900,0.268,-0.764,0.63,-121.155,-60.669,-134.278,
00:00:08:916,0.268,-0.682,0.664,-224.122,-61.89,-192.81,
00:00:08:933,0.308,-0.62,0.702,-269.288,-53.833,-242.493,
00:00:08:950,0.268,-0.612,0.677,-295.96,-34.668,-273.011,
00:00:08:966,0.227,-0.609,0.656,-274.414,-60.242,-287.598,
00:00:08:983,0.222,-0.637,0.671,-298.218,-91.126,-285.706,
00:00:09:0,0.152,-0.582,0.726,-501.282,-148.255,-283.753,
00:00:09:16,0.168,-0.71,0.664,-650.879,-160.035,-343.445,
00:00:09:33,0.303,-0.785,0.728,-464.661,-175.721,-349.183,
00:00:09:50,0.301,-0.657,0.818,-428.956,-186.585,-349.976,
00:00:09:66,0.253,-0.562,0.96,-432.496,-241.211,-371.521,
00:00:09:83,0.246,-0.438,1.055,-516.236,-247.559,-375.367,
00:00:09:100,0.196,-0.466,1.008,-698.792,-222.352,-398.56,
00:00:09:116,0.271,-0.608,0.965,-582.215,-175.599,-413.819,
00:00:09:133,0.194,-0.565,0.924,-601.99,-239.502,-399.476,
00:00:09:150,0.093,-0.404,0.973,-627.259,-248.169,-369.141,
00:00:09:166,0.113,-0.375,0.95,-713.623,-284.485,-340.699,
00:00:09:183,0.099,-0.481,0.998,-483.521,-251.099,-311.463,
00:00:09:200,0.088,-0.705,0.89,-536.805,-230.042,-279.847,
00:00:09:216,0.092,-0.573,0.942,-694.275,-284.363,-282.776,
00:00:09:233,0.033,-0.365,0.905,-627.259,-324.158,-282.776,
00:00:09:250,-0.057,-0.341,0.893,-518.433,-308.35,-227.967,
00:00:09:266,-0.085,-0.449,0.884,-334.412,-191.102,-196.656,
00:00:09:283,-0.033,-0.496,0.858,-268.555,-135.254,-195.801,
00:00:09:300,-0.09,-0.45,0.868,-288.147,-133.851,-176.636,
00:00:09:316,-0.143,-0.36,0.882,-172.608,-101.99,-163.086,
00:00:09:333,-0.145,-0.413,0.988,-89.722,13.122,-84.534,
00:00:09:350,-0.066,-0.497,1.017,-209.107,106.445,-53.04,
00:00:09:366,-0.059,-0.503,1.043,-387.635,108.459,-35.035,
00:00:09:383,-0.058,-0.287,0.991,-560.486,96.557,6.958,
00:00:09:400,-0.052,-0.308,1.19,-926.697,43.273,114.746,
00:00:09:416,0.015,-0.148,1.171,-572.144,158.752,29.296,
00:00:09:433,0.076,-0.192,1.03,-322.998,117.797,92.285,
00:00:09:450,0.008,-0.302,1.004,-627.259,-10.193,164.367,
00:00:09:466,0.037,-0.16,1.2,-546.021,35.095,45.41,
00:00:09:483,0.011,-0.12,1.062,-486.145,77.026,81.726,
00:00:09:500,-0.086,-0.38,0.832,-956.849,32.165,126.892,canRH
00:00:09:516,0.035,-0.418,0.969,-1254.822,68.542,53.039,
00:00:09:533,-0.035,0.054,0.972,-1236.695,-7.813,9.521,
00:00:09:550,-0.071,-0.474,1.176,-1642.579,-33.57,60.058,
00:00:09:566,-0.028,-0.415,1.13,-1971.802,113.403,-35.157,
00:00:09:583,-0.061,-0.082,1.016,-2000,39.917,-37.11,
00:00:09:600,0.128,-0.583,1.079,-2000,47.79,-52.979,
00:00:09:616,-0.089,0.822,0.574,-2000,5.249,-432.801,
00:00:09:633,0.1,0.937,0.857,-2000,42.846,-189.27,
00:00:09:650,0.166,1.292,0.688,-1100.77,129.455,-165.101,
00:00:09:666,0.147,0.829,0.638,-384.766,120.605,-184.571,
00:00:09:683,0.234,0.862,0.671,-166.81,149.047,-134.095,
00:00:09:700,0.178,0.849,0.875,329.589,173.828,-66.59,
00:00:09:716,0.225,0.677,0.978,643.921,228.149,25.024,
00:00:09:733,0.221,0.594,1.035,854.919,213.806,85.022,
00:00:09:750,0.194,0.809,0.909,979.919,222.656,72.509,
00:00:09:766,0.127,0.778,0.847,1078.369,238.22,36.621,
00:00:09:783,0.177,0.704,0.821,1331.665,270.446,31.799,
00:00:09:800,0.207,0.717,0.672,1822.021,252.014,-15.259,
00:00:09:816,0.219,0.589,0.74,1999.694,115.051,-81.055,
00:00:09:833,0.138,0.385,0.881,1999.694,67.627,-163.514,
00:00:09:850,0.065,0.178,0.908,1999.694,104.065,-183.228,
00:00:09:866,0.118,-0.288,0.605,1999.694,154.052,-60.791,
00:00:09:883,0.187,-0.792,0.51,1999.694,7.446,-18.433,
00:00:09:900,0.034,-1.056,0.579,1999.694,236.694,-73.853,
00:00:09:916,0.027,-1.148,0.566,1999.694,115.234,173.95,
00:00:09:933,-0.021,-1.174,0.617,1586.975,148.01,294.494,
00:00:09:950,0.038,-0.825,0.578,222.351,236.206,309.875,
00:00:09:966,0.168,-0.26,0.494,-680.176,164.856,136.779,
00:00:09:983,0.085,-0.184,0.62,-775.208,160.644,136.108,
00:00:10:0,-0.005,-0.395,0.83,-431.58,222.9,111.267,
00:00:10:16,0.129,-0.447,0.946,81.298,313.293,139.526,
00:00:10:33,0.153,-0.45,0.842,578.674,269.104,145.935,
00:00:10:50,0.042,-0.453,0.646,1045.593,302.673,206.604,
00:00:10:66,0.084,-0.6,0.539,1187.133,358.642,312.133,
00:00:10:83,0.179,-0.723,0.501,924.377,315.368,317.566,
00:00:10:100,0.156,-0.644,0.496,591.858,246.643,264.831,
00:00:10:116,0.22,-0.708,0.534,353.942,223.205,246.399,
00:00:10:133,0.268,-0.714,0.506,141.174,135.986,202.575,
00:00:10:150,0.263,-0.703,0.564,77.819,61.584,171.325,
00:00:10:166,0.296,-0.707,0.6,72.57,-10.193,142.761,
00:00:10:183,0.328,-0.754,0.636,54.565,-31.678,128.54,
00:00:10:200,0.28,-0.742,0.63,-37.476,-71.656,87.707,
00:00:10:216,0.359,-0.731,0.609,-72.022,-93.445,36.01,
00:00:10:233,0.344,-0.76,0.545,-56.275,-156.311,7.08,
00:00:10:250,0.365,-0.759,0.517,-89.051,-164.124,-14.71,
00:00:10:266,0.349,-0.751,0.575,-108.216,-202.515,-32.959,
00:00:10:283,0.392,-0.767,0.632,-152.832,-217.652,-31.8,
00:00:10:300,0.352,-0.722,0.649,-171.998,-184.937,-41.626,
00:00:10:316,0.305,-0.741,0.679,-144.288,-160.218,-61.768,
00:00:10:333,0.376,-0.691,0.635,-102.784,-130.677,-51.27,
00:00:10:350,0.345,-0.765,0.553,16.54,-96.741,-39.795,
00:00:10:366,0.308,-0.802,0.576,-2.991,-87.159,-7.203,
00:00:10:383,0.32,-0.763,0.61,3.845,-52.308,16.052,
00:00:10:400,0.31,-0.766,0.623,1.159,-41.199,21.057,
00:00:10:416,0.3,-0.81,0.687,-6.897,-26.368,12.268,
00:00:10:433,0.402,-0.765,0.643,-21.607,18.432,-23.377,
00:00:10:450,0.317,-0.834,0.709,-119.385,-67.2,-39.917,
00:00:10:466,0.351,-0.773,0.724,-210.144,-126.587,-60.608,
00:00:10:483,0.298,-0.784,0.794,-129.334,-125.55,-82.154,
00:00:10:500,0.357,-0.665,0.654,282.348,-78.064,-85.694,
00:00:10:516,0.293,-0.808,0.597,394.775,-71.106,-52.308,
00:00:10:533,0.257,-0.791,0.577,236.633,-86.365,-52.552,
00:00:10:550,0.283,-0.719,0.578,86.486,-56.336,-66.895,
00:00:10:566,0.268,-0.703,0.546,-96.68,-25.208,-57.862,
00:00:10:583,0.22,-0.768,0.57,-569.581,-83.497,-49.195,
00:00:10:600,0.314,-0.706,0.673,-505.677,-61.28,-89.661,
00:00:10:616,0.265,-0.709,0.734,-161.072,-32.898,-76.844,
00:00:10:633,0.251,-0.726,0.723,33.935,-33.57,-56.58,
00:00:10:650,0.239,-0.766,0.694,14.221,-57.862,-46.631,
00:00:10:666,0.221,-0.729,0.689,-134.766,-79.59,-57.557,
00:00:10:683,0.194,-0.816,0.697,-372.559,-87.342,-90.699,
00:00:10:700,0.306,-0.742,0.616,-156.495,-26.429,-127.747,
00:00:10:716,0.254,-0.793,0.645,33.264,-44.129,-108.948,
00:00:10:733,0.255,-0.736,0.668,-48.279,-49.866,-91.126,
00:00:10:750,0.248,-0.66,0.714,-112.732,-49.988,-109.192,
00:00:10:766,0.222,-0.622,0.73,-191.163,-44.8,-121.644,
00:00:10:783,0.186,-0.625,0.721,-266.663,-45.96,-105.347,
00:00:10:800,0.149,-0.761,0.704,-309.754,-46.631,-131.287,
00:00:10:816,0.274,-0.72,0.655,-37.293,-19.654,-138.428,
00:00:10:833,0.213,-0.758,0.68,54.077,-54.932,-116.15,
00:00:10:850,0.232,-0.705,0.685,-12.757,-53.467,-120.606,
00:00:10:866,0.207,-0.65,0.739,-115.845,-58.167,-131.47,
00:00:10:883,0.201,-0.617,0.736,-228.028,-46.265,-134.339,
00:00:10:900,0.183,-0.631,0.721,-258.728,-55.542,-127.93,
00:00:10:916,0.162,-0.678,0.742,-223.023,-65.979,-119.08,
00:00:10:933,0.141,-0.687,0.742,-221.131,-76.111,-102.478,
00:00:10:950,0.102,-0.742,0.701,-287.598,-76.233,-112,
00:00:10:966,0.206,-0.655,0.687,-122.071,10.559,-121.033,
00:00:10:983,0.206,-0.657,0.672,-128.296,-19.41,-116.15,
00:00:11:0,0.177,-0.616,0.754,-264.588,-28.504,-109.009,
00:00:11:16,0.18,-0.589,0.832,-389.405,-20.386,-102.845,
00:00:11:33,0.153,-0.541,0.901,-477.845,-18.738,-89.478,
00:00:11:50,0.116,-0.569,0.865,-439.27,-50.599,-71.717,
00:00:11:66,0.074,-0.607,0.79,-360.23,-70.679,-49.805,
00:00:11:83,0.065,-0.687,0.752,-343.811,-63.05,-76.539,
00:00:11:100,0.181,-0.57,0.856,-136.719,-22.522,-128.357,
00:00:11:116,0.195,-0.643,0.804,-83.191,-75.257,-102.539,
00:00:11:133,0.161,-0.573,0.846,-198.792,-89.783,-120.85,
00:00:11:150,0.175,-0.476,0.935,-295.96,-75.745,-101.38,
00:00:11:166,0.172,-0.441,0.941,-435.852,-86.67,-78.919,
00:00:11:183,0.125,-0.435,0.92,-562.928,-131.47,-64.148,
00:00:11:200,0.041,-0.535,0.768,-688.111,-158.02,-63.294,
00:00:11:216,0.067,-0.505,0.834,-344.849,-56.336,-120.972,
00:00:11:233,0.155,-0.482,0.791,10.131,-26.795,-99.244,
00:00:11:250,0.157,-0.594,0.83,82.58,-67.017,-78.797,
00:00:11:266,0.125,-0.539,0.921,-152.1,-71.778,-84.168,
00:00:11:283,0.105,-0.425,0.901,-572.388,-41.382,-65.674,
00:00:11:300,0.101,-0.501,1,-1039.429,-59.632,-58.716,
00:00:11:316,0.116,-0.257,0.996,-858.094,8.544,-91.065,
00:00:11:333,0.107,-0.223,0.924,-480.591,16.052,-43.213,
00:00:11:350,0.092,-0.45,0.943,-431.58,-35.889,8.544,
00:00:11:366,0.104,-0.605,1.114,-725.22,10.498,-28.992,
00:00:11:383,0.134,-0.202,1.041,-916.443,75.561,-92.164,
00:00:11:400,0.152,-0.133,1.061,-961.67,86.608,-36.988,
00:00:11:416,0.052,-0.14,0.897,-1163.697,-9.034,2.99,
00:00:11:433,0,-0.575,1.049,-1606.751,3.906,-7.813,
00:00:11:450,-0.016,0.106,0.982,-1499.817,174.926,-91.858,
00:00:11:466,0.049,-0.297,0.871,-1594.239,262.207,-5.677,
00:00:11:483,0.275,-0.329,0.745,-1631.165,302.856,115.234,
00:00:11:500,0.249,-0.22,0.945,-2000,-141.114,2.502,
00:00:11:516,0.136,-0.246,0.961,-2000,-177.124,30.029,
00:00:11:533,0.23,-0.083,1.094,-2000,-133.301,-11.719,
00:00:11:550,0.206,0.74,0.729,-2000,-230.103,-94.727,
00:00:11:566,0.047,1.024,0.456,-2000,-262.94,1.464,
00:00:11:583,0.313,0.69,0.68,-1962.22,-215.271,-114.747,
00:00:11:600,0.047,1.525,0.559,-1384.522,-58.35,47.607,
00:00:11:616,0.094,0.965,0.495,-182.862,8.728,-39.368,
00:00:11:633,0.171,0.661,0.529,108.886,71.716,9.216,
00:00:11:650,0.129,0.73,0.807,213.623,-41.016,71.044,
00:00:11:666,0.068,0.753,0.961,387.817,34.606,87.646,
00:00:11:683,0.119,0.7,0.922,572.265,103.698,61.706,
00:00:11:700,0.123,0.688,0.965,646.545,75.5,3.356,
00:00:11:716,0.088,0.739,0.904,841.735,116.882,-2.625,
00:00:11:733,0.021,0.865,0.78,1228.454,134.704,-0.245,
00:00:11:750,0.152,0.924,0.708,1798.645,149.902,-50.171,
00:00:11:766,0.146,0.865,0.691,1999.694,102.356,-148.499,
00:00:11:783,0.101,0.916,0.746,1999.694,70.007,-197.998,
00:00:11:800,0.03,0.718,0.908,1999.694,111.45,-265.381,
00:00:11:816,0.064,0.085,0.698,1999.694,208.496,-205.384,
00:00:11:833,0.194,-0.658,0.658,1999.694,152.404,2.136,
00:00:11:850,0.193,-0.856,0.929,1999.694,117.614,-56.641,
00:00:11:866,0.102,-0.833,1.089,1999.694,17.578,75.744,
00:00:11:883,0.018,-0.82,1.131,1779.113,70.922,142.395,
00:00:11:900,-0.027,-0.502,1.058,1032.409,131.225,138.61,
00:00:11:916,0.029,-0.296,0.862,856.567,165.527,113.586,
00:00:11:933,0.097,-0.537,0.812,898.437,132.141,108.459,
00:00:11:950,0.049,-0.615,0.747,843.994,92.102,88.195,
00:00:11:966,0.054,-0.636,0.665,867.431,98.938,109.924,
00:00:11:983,0.028,-0.592,0.594,892.273,63.354,123.962,
00:00:12:0,0.072,-0.734,0.632,866.76,65.002,200.073,
00:00:12:16,0.149,-0.824,0.645,712.097,68.664,138.427,
00:00:12:33,0.042,-0.745,0.65,515.625,68.481,117.187,
00:00:12:50,0.153,-0.681,0.624,422.241,94.787,130.859,
00:00:12:66,0.145,-0.626,0.555,358.154,80.993,93.2,
00:00:12:83,0.176,-0.626,0.419,379.943,59.448,63.781,
00:00:12:100,0.134,-0.696,0.384,345.459,54.748,73.059,
00:00:12:116,0.216,-0.773,0.484,99.67,9.826,72.631,
00:00:12:133,0.243,-0.764,0.57,-103.333,-32.837,25.817,
00:00:12:150,0.221,-0.649,0.642,-180.237,-46.692,-45.777,
00:00:12:166,0.264,-0.57,0.644,-108.155,-16.358,-92.041,
00:00:12:183,0.218,-0.648,0.602,13.732,-29.419,-111.634,
00:00:12:200,0.22,-0.702,0.506,-13.855,-36.683,-107.361,
00:00:12:216,0.217,-0.67,0.524,-93.628,-71.228,-93.567,
00:00:12:233,0.171,-0.617,0.58,-135.865,-106.69,-82.642,
00:00:12:250,0.225,-0.656,0.638,-152.894,-106.08,-64.331,
00:00:12:266,0.201,-0.67,0.689,-115.052,-91.248,-82.337,
00:00:12:283,0.201,-0.7,0.664,-85.694,-62.806,-60.364,
00:00:12:300,0.17,-0.734,0.67,-56.458,-30.152,-48.89,
00:00:12:316,0.178,-0.779,0.667,-91.98,-37.659,-39.063,
00:00:12:333,0.182,-0.743,0.671,-91.065,-45.655,-26.978,
00:00:12:350,0.175,-0.749,0.687,-98.694,-53.589,-28.626,
00:00:12:366,0.178,-0.763,0.71,-115.357,-56.824,-21.424,
00:00:12:383,0.199,-0.749,0.716,-105.957,-56.824,-14.527,
00:00:12:400,0.184,-0.783,0.723,-49.805,-51.27,-5.372,
00:00:12:416,0.169,-0.75,0.688,-9.644,-31.739,0.976,
00:00:12:433,0.208,-0.833,0.641,82.519,-40.162,-3.663,
00:00:12:450,0.256,-0.816,0.6,60.424,-37.232,-12.94,
00:00:12:466,0.228,-0.8,0.608,6.103,-26.551,-24.781,
00:00:12:483,0.213,-0.834,0.649,-103.882,-29.297,-62.684,
00:00:12:500,0.218,-0.84,0.708,-178.894,5.981,-85.877,
00:00:12:516,0.182,-0.81,0.743,-197.876,12.207,-89.051,
00:00:12:533,0.166,-0.775,0.807,-178.467,3.295,-82.886,
00:00:12:550,0.154,-0.706,0.78,-91.187,3.845,-73.792,
00:00:12:566,0.164,-0.731,0.735,6.713,4.211,-59.205,
00:00:12:583,0.167,-0.701,0.704,5.798,-15.748,-58.96,
00:00:12:600,0.177,-0.701,0.686,25.512,-29.053,-73.975,
00:00:12:616,0.104,-0.65,0.685,-11.658,-40.833,-82.52,
00:00:12:633,0.15,-0.655,0.684,100.891,-22.339,-83.435,
00:00:12:650,0.146,-0.729,0.713,29.785,-40.345,-84.107,
00:00:12:666,0.173,-0.677,0.733,7.324,-28.748,-79.529,
00:00:12:683,0.153,-0.668,0.737,28.076,-43.03,-96.924,
00:00:12:700,0.225,-0.645,0.774,7.324,-97.962,-127.32,
00:00:12:716,0.221,-0.679,0.842,-62.5,-141.358,-155.762,
00:00:12:733,0.122,-0.619,0.752,90.576,-114.991,-197.083,
00:00:12:750,0.117,-0.724,0.68,187.927,-104.248,-192.078,
00:00:12:766,0.067,-0.731,0.627,102.966,-113.343,-207.581,
00:00:12:783,0.021,-0.77,0.55,117.981,-105.408,-220.948,
00:00:12:800,0.013,-0.787,0.473,149.658,-68.97,-200.501,
00:00:12:816,0.022,-0.831,0.473,71.777,-75.623,-169.556,
00:00:12:833,0.004,-0.826,0.526,-25.025,-52.185,-165.162,
00:00:12:850,0.039,-0.727,0.544,-96.68,-43.335,-142.212,
00:00:12:866,0.031,-0.785,0.67,-168.335,-67.872,-124.695,
00:00:12:883,-0.039,-0.706,0.733,-109.192,-93.201,-104.615,
00:00:12:900,-0.066,-0.741,0.743,-65.308,-98.938,-73.731,
00:00:12:916,0.011,-1.048,0.74,-94.239,-99.305,-108.826,
00:00:12:933,0.114,-0.797,0.594,115.661,-70.679,-135.193,
00:00:12:950,0.02,-0.939,0.582,10.192,-90.332,-108.216,
00:00:12:966,-0.003,-0.74,0.647,-360.718,-102.723,-127.747,
00:00:12:983,0.022,-0.861,0.762,-436.219,-91.553,-190.186,
00:00:13:0,0.101,-0.562,0.823,-255.921,-64.942,-164.612,
00:00:13:16,0.002,-0.608,0.827,-142.884,-25.025,-109.803,
00:00:13:33,0.002,-0.581,0.85,-206.604,-43.396,-66.407,
00:00:13:50,-0.038,-0.618,0.851,-317.078,-44.861,-50.965,
00:00:13:66,0.041,-0.866,0.803,-517.579,-27.039,-90.21,
00:00:13:83,0.027,-0.609,0.834,-440.186,-40.223,-129.578,
00:00:13:100,-0.034,-0.664,0.828,-314.331,-5.249,-74.463,
00:00:13:116,-0.006,-0.561,0.852,-340.088,-31.617,-65.247,
00:00:13:133,-0.037,-0.577,0.906,-524.414,-57.373,-43.152,
00:00:13:150,-0.016,-0.836,0.868,-878.418,-34.424,-78.919,
00:00:13:166,0.012,-0.584,0.898,-919.617,1.77,-144.776,
00:00:13:183,-0.017,-0.638,0.871,-843.689,-55.237,-2.93,
00:00:13:200,0,-0.584,0.744,-440.918,-24.842,-58.045,
00:00:13:216,0.015,-0.594,0.823,-468.995,-161.866,-60.608,
00:00:13:233,-0.078,-0.672,0.885,-800.049,-199.341,-50.171,
00:00:13:250,-0.037,-0.509,0.986,-941.407,-132.019,-121.582,
00:00:13:266,-0.031,-0.312,0.863,-693.36,-102.784,-142.456,
00:00:13:283,-0.045,-0.247,0.849,-352.539,-113.77,-79.041,
00:00:13:300,-0.051,-0.349,0.969,-260.254,-98.267,-20.691,
00:00:13:316,-0.08,-0.43,0.939,-511.048,-55.237,-1.648,
00:00:13:333,-0.072,-0.767,0.955,-1241.089,-142.518,42.663,
00:00:13:350,-0.093,-0.204,0.967,-1145.081,-89.417,-137.024,
00:00:13:366,-0.151,0.044,0.824,-761.353,-3.235,23.376,
00:00:13:383,-0.053,-0.591,1.072,-872.01,-18.799,140.503,
00:00:13:400,0.006,-0.026,1.064,-677.063,-21.912,-29.236,
00:00:13:416,-0.055,-0.076,1.025,-490.906,6.836,57.922,
00:00:13:433,-0.121,-0.517,0.917,-1131.653,-2.015,119.873,
00:00:13:450,-0.158,-0.271,1.003,-1623.23,53.039,17.761,
00:00:13:466,-0.07,0.307,0.86,-1890.198,90.21,99.731,
00:00:13:483,-0.006,-0.48,0.957,-2000,-7.935,288.818,
00:00:13:500,-0.156,0.509,0.749,-2000,-80.933,-29.358,canRH
00:00:13:516,-0.085,0.073,0.838,-2000,-76.416,206.421,
00:00:13:533,0.177,0.107,1.092,-2000,-171.998,85.266,
00:00:13:550,0.014,1.486,0.874,-2000,-188.538,-169.678,
00:00:13:566,-0.113,0.642,1.108,-1037.903,-117.31,-144.104,
00:00:13:583,-0.011,0.683,0.747,-1294.556,-17.456,-1.16,
00:00:13:600,0.067,1.072,0.933,-843.445,-101.258,-88.807,
00:00:13:616,-0.086,0.567,0.775,-592.286,-65.064,-92.896,
00:00:13:633,-0.007,0.985,0.892,-163.086,5.798,-126.343,
00:00:13:650,-0.074,1.049,0.759,706.054,88.989,-220.887,
00:00:13:666,-0.148,0.981,0.674,1312.866,205.81,-186.585,
00:00:13:683,-0.081,0.86,0.662,1820.922,336.547,-176.758,
00:00:13:700,0.006,0.614,0.635,1999.694,401.001,-163.636,
00:00:13:716,0.082,0.414,0.826,1999.694,383.606,-130.066,
00:00:13:733,0.135,0.262,0.986,1999.694,310.18,-114.563,
00:00:13:750,0.081,0.143,1.111,1999.694,231.811,-118.653,
00:00:13:766,-0.04,0.125,1.141,1999.694,279.968,-72.205,
00:00:13:783,-0.036,0.07,0.998,1999.694,286.01,54.931,
00:00:13:800,0.03,-0.19,0.884,1999.694,166.87,160.4,
00:00:13:816,-0.067,-0.278,0.974,1999.694,145.691,156.25,
00:00:13:833,-0.134,-0.403,0.874,1999.694,186.401,200.805,
00:00:13:850,-0.035,-0.524,0.776,1999.694,212.951,257.751,
00:00:13:866,0.003,-0.77,0.773,1208.679,179.26,167.724,
00:00:13:883,-0.079,-0.664,0.773,361.755,189.209,113.83,
00:00:13:900,0.026,-0.557,0.737,125,196.594,91.552,
00:00:13:916,-0.034,-0.502,0.773,402.954,186.401,74.096,
00:00:13:933,0.018,-0.575,0.765,766.723,223.999,94.787,
00:00:13:950,0.031,-0.678,0.659,955.505,228.393,130.188,
00:00:13:966,0.009,-0.783,0.591,833.923,240.112,165.527,
00:00:13:983,0.048,-0.796,0.491,587.89,233.154,167.175,
00:00:14:0,0.079,-0.663,0.491,471.923,130.127,176.086,
00:00:14:16,0.128,-0.52,0.571,437.805,76.782,214.355,
00:00:14:33,0.179,-0.459,0.676,427.856,43.518,247.741,
00:00:14:50,0.216,-0.625,0.739,310.852,42.663,254.272,
00:00:14:66,0.265,-0.644,0.692,169.433,35.217,229.065,
00:00:14:83,0.198,-0.681,0.651,198.486,27.282,171.02,
00:00:14:100,0.288,-0.77,0.624,184.814,16.662,132.568,
00:00:14:116,0.284,-0.751,0.606,96.191,-14.222,92.102,
00:00:14:133,0.303,-0.737,0.553,42.48,-14.1,36.682,
00:00:14:150,0.248,-0.732,0.549,8.117,-33.143,-45.838,
00:00:14:166,0.244,-0.822,0.526,-70.313,-37.781,-112.061,
00:00:14:183,0.239,-0.888,0.45,-173.218,-36.56,-134.4,
00:00:14:200,0.243,-0.762,0.581,-233.826,-80.079,-130.86,
00:00:14:216,0.164,-0.599,0.518,-11.231,-22.828,-121.766,
00:00:14:233,0.188,-0.821,0.524,80.932,-6.531,-113.221,
00:00:14:250,0.178,-0.771,0.545,-113.099,12.329,-98.877,
00:00:14:266,0.145,-0.73,0.578,-186.158,26.672,-104.248,
00:00:14:283,0.172,-0.803,0.626,-241.761,12.573,-80.323,
00:00:14:300,0.16,-0.71,0.709,-203.98,-3.785,-44.617,
00:00:14:316,0.14,-0.712,0.755,-90.149,-28.443,-20.203,
00:00:14:333,0.176,-0.738,0.751,26.001,-46.143,4.15,
00:00:14:350,0.207,-0.781,0.714,112.121,-43.641,5.432,
00:00:14:366,0.192,-0.874,0.672,154.846,-51.575,-19.532,
00:00:14:383,0.2,-0.898,0.643,89.294,-43.396,-51.941,
00:00:14:400,0.214,-0.916,0.618,-34.058,-45.411,-94.361,
00:00:14:416,0.167,-0.806,0.648,-83.68,-45.716,-108.399,
00:00:14:433,0.157,-0.777,0.653,-33.936,-43.152,-110.779,
00:00:14:450,0.151,-0.715,0.679,1.648,-44.007,-97.535,
00:00:14:466,0.135,-0.722,0.698,71.716,-21.546,-85.938,
00:00:14:483,0.122,-0.749,0.662,89.721,-13.611,-72.693,
00:00:14:500,0.126,-0.737,0.641,105.346,-5.372,-68.238,
00:00:14:516,0.114,-0.767,0.636,68.725,-7.386,-57.862,
00:00:14:533,0.157,-0.842,0.599,-20.997,-18.372,-51.758,
00:00:14:550,0.15,-0.837,0.57,-42.298,-54.139,-33.936,
00:00:14:566,0.124,-0.849,0.593,-68.604,-53.284,-36.316,
00:00:14:583,0.111,-0.783,0.627,-64.087,-29.358,-53.162,
00:00:14:600,0.117,-0.759,0.655,-105.652,3.051,-61.219,
00:00:14:616,0.104,-0.716,0.684,-170.166,21.057,-66.346,
00:00:14:633,0.087,-0.712,0.695,-224.366,16.113,-58.838,
00:00:14:650,0.095,-0.726,0.677,-314.759,-10.926,-41.016,
00:00:14:666,0.083,-0.931,0.641,-528.626,-45.716,-75.135,
00:00:14:683,0.165,-0.627,0.735,-293.641,-32.166,-69.764,
00:00:14:700,0.143,-0.764,0.728,-94.422,-5.494,-66.895,
00:00:14:716,0.133,-0.672,0.803,-139.527,-37.598,-59.388,
00:00:14:733,0.182,-0.667,0.792,-144.165,-22.034,-46.998,
00:00:14:750,0.112,-0.643,0.776,-273.987,-9.339,-73.365,
00:00:14:766,0.098,-0.654,0.747,-372.681,19.165,-49.744,
00:00:14:783,0.084,-0.704,0.747,-468.14,-12.635,-37.049,
00:00:14:800,0.055,-0.829,0.734,-549.683,-45.227,-63.172,
00:00:14:816,0.174,-0.569,0.79,-241.272,3.845,-67.2,
00:00:14:833,0.083,-0.669,0.794,66.284,6.347,-42.054,
00:00:14:850,0.151,-0.688,0.761,75.622,6.286,-30.152,
00:00:14:866,0.159,-0.735,0.758,-89.234,-16.541,-42.664,
00:00:14:883,0.142,-0.684,0.76,-343.018,13,-77.637,
00:00:14:900,0.142,-0.652,0.793,-538.392,21.85,-82.215,
00:00:14:916,0.112,-0.58,0.872,-624.573,-12.085,-70.13,
00:00:14:933,0.059,-0.48,0.86,-648.804,-62.378,-37.781,
00:00:14:950,0.093,-0.661,0.876,-644.715,-40.039,-70.069,
00:00:14:966,0.137,-0.464,0.837,-363.16,-42.176,-98.999,
00:00:14:983,0.104,-0.628,0.854,-159.119,-43.641,-30.457,
00:00:15:0,0.136,-0.608,0.861,-151.917,-23.56,-37.415,
00:00:15:16,0.144,-0.574,0.863,-308.716,-31.128,-50.538,
00:00:15:33,0.094,-0.494,0.876,-549.5,-40.955,-83.313,
00:00:15:50,0.03,-0.35,0.909,-759.827,-47.608,-92.225,
00:00:15:66,0.008,-0.509,0.891,-754.7,12.268,-102.295,
00:00:15:83,0.083,-0.29,0.87,-378.113,51.879,-108.643,
00:00:15:100,0.118,-0.401,0.893,-41.932,37.78,-16.724,
00:00:15:116,0.112,-0.504,0.911,-81.971,-6.653,-8.912,
00:00:15:133,0.099,-0.484,0.992,-388.367,-23.926,-27.405,
00:00:15:150,0.055,-0.326,0.97,-760.743,-73.182,-24.048,
00:00:15:166,-0.021,-0.555,0.885,-1041.871,-67.261,-46.57,
00:00:15:183,0.024,-0.281,0.921,-652.344,-8.179,-110.779,
00:00:15:200,0.078,-0.251,0.889,-163.392,43.273,-0.916,
00:00:15:216,0.105,-0.426,0.83,-147.217,-43.457,33.386,
00:00:15:233,-0.009,-0.509,0.909,-784.119,-139.588,51.147,
00:00:15:250,0.093,-0.276,1.103,-1165.162,-80.689,14.282,
00:00:15:266,0.005,0.028,1.074,-866.883,-75.074,-88.623,
00:00:15:283,0.003,-0.024,0.939,-512.757,-27.588,3.295,
00:00:15:300,0.036,-0.375,0.856,-880.921,-127.259,86.608,
00:00:15:316,0.088,-0.215,1.134,-1336.365,-176.88,21.24,
00:00:15:333,-0.001,0.232,1.175,-1118.958,-147.156,11.352,
00:00:15:350,-0.055,-0.07,0.864,-1324.341,-176.514,91.186,
00:00:15:366,0.123,0.033,1.058,-1965.76,-205.506,81.359,
00:00:15:383,-0.161,0.566,0.967,-1756.287,-215.027,60.974,
00:00:15:400,0.207,-0.318,1.173,-1997.254,-127.503,56.457,
00:00:15:416,-0.048,0.33,1.056,-1946.412,-223.267,-47.486,
00:00:15:433,-0.151,-0.577,0.921,-1992.31,-42.359,-85.022,
00:00:15:450,0.313,0.251,0.657,-2000,-168.702,33.447,
00:00:15:466,0.131,0.461,0.672,-2000,-232.727,-79.956,
00:00:15:483,-0.161,1.452,0.666,-1641.602,-201.111,-120.789,
00:00:15:500,-0.063,0.701,0.497,-909.18,-30.091,-117.188,
00:00:15:516,0.184,1,0.691,-1079.957,-44.8,-35.096,
00:00:15:533,-0.084,0.973,0.973,-176.087,2.502,-77.088,
00:00:15:550,0.105,0.699,0.845,180.664,128.54,-5.127,
00:00:15:566,-0.008,1.045,0.95,544.922,52.49,-2.503,
00:00:15:583,-0.079,1.045,1.01,1227.05,129.882,42.907,
00:00:15:600,-0.017,0.842,0.97,1695.373,209.716,40.649,
00:00:15:616,0.117,0.721,0.891,1943.42,156.799,-35.828,
00:00:15:633,0.079,0.638,0.969,1999.694,121.276,-91.309,
00:00:15:650,0.068,0.484,0.777,1999.694,212.402,-43.091,
00:00:15:666,0.082,0.385,0.621,1999.694,146.911,-94.605,
00:00:15:683,0.037,0.145,0.874,1999.694,94.482,-128.602,
00:00:15:700,0.045,-0.02,0.929,1999.694,154.052,-153.443,
00:00:15:716,0.113,-0.313,0.868,1999.694,155.212,-123.108,
00:00:15:733,0.159,-0.725,0.914,1999.694,121.948,-95.581,
00:00:15:750,0.116,-1.025,1.036,1999.694,133.545,-128.968,
00:00:15:766,0.074,-0.924,1.086,1841.735,71.106,-88.868,
00:00:15:783,-0.014,-0.503,1.088,1145.08,34.179,-53.04,
00:00:15:800,-0.074,-0.302,1.014,804.26,-26.978,-32.654,
00:00:15:816,-0.115,-0.026,0.766,702.453,-30.579,-43.641,
00:00:15:833,-0.079,-0.087,0.655,767.883,22.338,14.648,
00:00:15:850,-0.066,-0.461,0.715,815.673,41.32,59.57,
00:00:15:866,0.002,-0.664,0.712,495.788,25.573,77.758,
00:00:15:883,-0.049,-0.575,0.643,265.442,-4.944,63.598,
00:00:15:900,-0.029,-0.48,0.647,378.784,1.281,91.98,
00:00:15:916,0.056,-0.601,0.706,433.715,-3.479,99.792,
00:00:15:933,-0.016,-0.636,0.729,393.371,-12.757,65.307,
00:00:15:950,-0.017,-0.644,0.72,322.631,3.906,45.349,
00:00:15:966,-0.005,-0.669,0.659,222.107,31.921,16.54,
00:00:15:983,-0.011,-0.693,0.547,139.831,57.067,8.911,
00:00:16:0,0.022,-0.64,0.475,116.027,42.48,18.31,
00:00:16:16,0.042,-0.672,0.497,174.621,30.761,23.193,
00:00:16:33,0.052,-0.733,0.557,165.588,5.676,32.348,
00:00:16:50,0.064,-0.796,0.604,120.422,24.475,42.968,
00:00:16:66,0.077,-0.782,0.601,4.028,30.334,51.696,
00:00:16:83,0.104,-0.729,0.626,-38.453,35.522,39.733,
00:00:16:100,0.099,-0.782,0.653,-11.353,41.076,26.977,
00:00:16:116,0.144,-0.763,0.669,-10.376,52.185,24.78,
00:00:16:133,0.122,-0.763,0.679,18.127,48.156,14.587,
00:00:16:150,0.136,-0.822,0.699,5.004,39.856,2.563,
00:00:16:166,0.105,-0.815,0.724,-69.397,42.114,-14.161,
00:00:16:183,0.105,-0.816,0.733,-129.151,51.33,-36.683,
00:00:16:200,0.105,-0.856,0.597,-170.472,81.481,-62.928,
00:00:16:216,0.127,-0.706,0.693,-252.564,-6.47,-9.4,
00:00:16:233,0.129,-0.682,0.841,-254.456,36.438,-24.72,
00:00:16:250,0.132,-0.601,0.789,-76.05,17.211,-23.316,
00:00:16:266,0.094,-0.554,0.727,239.38,106.994,-15.686,
00:00:16:283,0.125,-0.764,0.695,277.649,75.927,12.878,
00:00:16:300,0.093,-0.813,0.707,142.212,27.71,13.732,
00:00:16:316,0.135,-0.806,0.7,170.593,25.329,9.643,
00:00:16:333,0.114,-0.821,0.689,179.077,4.394,13.305,
00:00:16:350,0.149,-0.83,0.683,177.795,12.634,4.882,
00:00:16:366,0.138,-0.787,0.676,143.432,15.197,-7.386,
00:00:16:383,0.132,-0.772,0.628,138.305,31.066,-16.785,
00:00:16:400,0.124,-0.745,0.615,108.825,39.978,-25.391,
00:00:16:416,0.101,-0.765,0.66,56.03,35.888,-33.509,
00:00:16:433,0.1,-0.782,0.705,-58.716,30.273,-27.527,
00:00:16:450,0.089,-0.745,0.707,-127.442,13.061,-28.016,
00:00:16:466,0.092,-0.677,0.701,-127.259,2.197,-17.884,
00:00:16:483,0.016,-0.748,0.706,-305.115,-41.932,-8.667,
00:00:16:500,0.143,-0.857,0.751,-286.194,38.696,-98.816,
00:00:16:516,0.142,-0.517,0.648,96.557,19.165,-79.956,
00:00:16:533,0.075,-0.812,0.711,168.823,24.353,-30.091,
00:00:16:550,0.111,-0.761,0.728,-102.295,8.361,-38.514,
00:00:16:566,0.12,-0.711,0.707,-206.238,3.601,-38.331,
00:00:16:583,0.081,-0.75,0.649,-251.404,-3.113,-33.814,
00:00:16:600,0.083,-0.711,0.687,-212.647,5.371,-27.527,
00:00:16:616,0.084,-0.742,0.688,-171.692,8.972,-16.907,
00:00:16:633,0.106,-0.861,0.75,-225.281,30.273,-15.198,
00:00:16:650,0.137,-0.708,0.71,-152.344,25.878,-45.899,
00:00:16:667,0.13,-0.781,0.77,-60.608,15.869,-9.644,
00:00:16:683,0.128,-0.726,0.767,-71.717,8.606,-2.869,
00:00:16:700,0.147,-0.808,0.777,-123.78,23.681,4.455,
00:00:16:717,0.131,-0.934,0.868,-402.527,-13.977,23.925,
00:00:16:733,0.139,-0.77,0.868,-469.361,-35.035,-20.935,
00:00:16:750,0.109,-0.686,0.836,-390.015,-37.354,-15.686,
00:00:16:767,0.103,-0.694,0.809,-288.697,-11.78,-19.288,
00:00:16:783,0.109,-0.483,0.664,-257.142,4.394,-49.805,
00:00:16:800,0.081,-0.493,0.662,-101.197,-15.686,-54.383,
00:00:16:817,0.042,-0.574,0.767,-18.006,-27.894,-28.809,
00:00:16:833,0.044,-0.499,0.803,44.433,-11.292,28.137,
00:00:16:850,0.083,-0.652,0.871,25.024,41.137,91.43,
00:00:16:867,0.102,-0.637,0.839,-114.075,36.682,44.677,
00:00:16:883,0.092,-0.593,0.727,-216.187,2.136,10.437,
00:00:16:900,0.088,-0.645,0.691,-56.275,-5.372,-8.484,
00:00:16:917,0.104,-0.681,0.664,90.271,9.887,-14.405,
00:00:16:933,0.106,-0.725,0.709,163.818,-12.024,-29.358,
00:00:16:950,0.058,-0.786,0.774,34.851,-17.701,-19.837,
00:00:16:967,0.038,-0.851,0.746,-366.211,-19.165,-18.067,
00:00:16:983,0.14,-0.946,0.835,-709.778,40.71,-80.079,
00:00:17:0,0.092,-0.328,0.778,-547.608,-3.052,-174.073,
00:00:17:17,0.058,-0.306,0.838,-123.414,-11.353,-28.931,
00:00:17:33,0.029,-0.634,0.746,-102.295,-4.212,27.221,
00:00:17:50,0.107,-0.745,0.809,-392.762,44.006,-85.389,
00:00:17:67,0.109,-0.394,0.86,-471.558,23.071,-119.507,
00:00:17:83,0.088,-0.333,0.9,-343.445,1.342,-32.593,
00:00:17:100,0.059,-0.467,0.898,-311.951,-8.606,-28.687,
00:00:17:117,0.044,-0.509,0.899,-465.21,-3.785,-25.086,
00:00:17:133,0.099,-0.808,0.941,-706.849,47.607,-77.332,
00:00:17:150,0.116,-0.333,0.821,-516.297,8.361,-131.348,
00:00:17:167,0.097,-0.185,0.819,-190.735,-27.649,-43.457,
00:00:17:183,0.075,-0.478,0.892,-90.699,-52.796,-8.301,
00:00:17:200,0.061,-0.548,0.893,-409.241,-37.903,-5.31,
00:00:17:217,0.073,-0.542,0.918,-808.716,-49.012,-35.95,
00:00:17:233,0.051,-0.32,0.911,-711.67,-15.015,-101.197,
00:00:17:250,0.09,-0.238,0.92,-387.818,6.103,3.234,
00:00:17:267,0.104,-0.343,0.912,-275.513,-38.636,-12.94,
00:00:17:283,0.089,-0.352,0.909,-323.426,-62.256,-47.852,
00:00:17:300,0.032,-0.302,0.995,-450.196,-87.891,-43.335,
00:00:17:317,0.001,-0.28,0.966,-591.187,-59.449,-47.364,
00:00:17:333,-0.02,-0.764,0.69,-1054.81,-111.023,-80.14,
00:00:17:350,0.022,-0.256,0.845,-1324.707,-236.512,-84.656,
00:00:17:367,-0.022,0.312,0.839,-634.583,-152.466,-2.442,
00:00:17:383,0.156,-0.525,1.141,-573.975,-134.766,-8.057,
00:00:17:400,-0.031,0.317,1.117,-558.411,-186.89,-0.55,
00:00:17:417,-0.047,-0.318,0.889,-1065.796,-63.416,-16.602,
00:00:17:433,0.079,0.194,1.067,-1697.571,-180.848,-71.595,
00:00:17:450,-0.017,0.482,1.131,-1217.652,-45.044,-35.767,
00:00:17:467,0.018,-0.685,1.064,-1999.939,-44.19,83.374,
00:00:17:483,0.095,0.447,1.061,-2000,-193.726,-50.66,
00:00:17:500,-0.136,-0.191,0.966,-2000,-104.493,-161.133,
00:00:17:517,0.173,-0.196,0.834,-2000,-71.839,79.834,
00:00:17:533,0.404,0.021,0.575,-2000,-312.867,-252.93,
00:00:17:550,0.019,1.433,0.398,-2000,-434.693,-76.966,
00:00:17:567,0.044,0.635,0.244,-2000,-137.574,-181.275,
00:00:17:583,0.209,1.995,0.548,-1569.214,-180.115,-124.634,
00:00:17:600,-0.017,0.994,0.554,-335.816,44.982,-97.962,
00:00:17:617,0.146,0.96,0.678,-221.314,72.509,-37.659,
00:00:17:633,-0.045,1.082,0.841,146.606,43.518,-39.063,
00:00:17:650,-0.005,1.022,0.76,564.331,110.107,8.178,
00:00:17:667,-0.075,1.106,0.796,1098.266,139.221,40.649,
00:00:17:683,-0.086,1.103,0.718,1726.013,261.535,34.484,
00:00:17:700,0.14,1.109,0.665,1999.694,291.076,40.1,
00:00:17:717,0.021,0.989,0.627,1999.694,186.157,-78.309,
00:00:17:733,-0.048,0.657,0.537,1999.694,211.609,-59.144,
00:00:17:750,0.042,0.28,0.483,1999.694,257.812,-88.746,
00:00:17:767,0.079,-0.043,0.571,1999.694,212.158,-112.977,
00:00:17:783,0.02,-0.347,0.696,1999.694,206.604,-126.77,
00:00:17:800,0.062,-0.94,1.141,1969.665,97.045,-22.4,
00:00:17:817,-0.026,-0.699,1.163,1001.709,79.589,-11.109,
00:00:17:833,-0.062,-0.277,1.021,528.503,38.574,-23.865,
00:00:17:850,-0.018,-0.078,0.842,473.205,53.405,-62.073,
00:00:17:867,0.008,-0.176,0.812,585.937,36.865,-78.919,
00:00:17:883,0,-0.544,0.884,676.025,99.792,-45.472,
00:00:17:900,0.003,-0.642,0.876,463.684,77.453,-43.58,
00:00:17:917,0.011,-0.526,0.901,383.545,73.608,-44.617,
00:00:17:933,0.049,-0.493,0.797,517.883,56.518,-21.546,
00:00:17:950,0.023,-0.604,0.752,641.296,69.336,6.652,
00:00:17:967,0.018,-0.623,0.693,548.401,21.179,23.132,
00:00:17:983,0.005,-0.57,0.686,453.186,7.08,29.968,
00:00:18:0,0.08,-0.694,0.74,290.466,-15.503,52.307,
00:00:18:17,0.048,-0.648,0.749,16.845,-51.636,36.254,
00:00:18:33,0.053,-0.546,0.754,62.927,-42.786,25.695,
00:00:18:50,0.053,-0.64,0.728,138.122,-49.134,36.682,
00:00:18:67,0.062,-0.566,0.726,151.062,-59.51,44.494,
00:00:18:83,0.114,-0.625,0.727,223.449,-50.538,51.33,
00:00:18:100,0.077,-0.698,0.708,108.886,-55.054,46.63,
00:00:18:117,0.122,-0.657,0.685,17.7,-48.706,41.87,
00:00:18:133,0.111,-0.65,0.681,-5.066,-37.903,32.104,
00:00:18:150,0.146,-0.61,0.686,58.349,-45.533,13.732,
00:00:18:167,0.123,-0.653,0.649,198.669,2.502,13.427,
00:00:18:183,0.084,-0.704,0.656,135.131,-1.099,6.408,
00:00:18:200,0.145,-0.71,0.646,34.973,23.437,-7.264,
00:00:18:217,0.102,-0.767,0.656,-70.435,46.569,-10.987,
00:00:18:233,0.13,-0.677,0.664,-129.578,60.669,-2.015,
00:00:18:250,0.1,-0.605,0.718,-35.401,65.979,2.197,
00:00:18:267,0.12,-0.691,0.738,-0.55,65.673,1.77,
00:00:18:283,0.121,-0.714,0.775,-45.777,71.777,4.333,
00:00:18:300,0.102,-0.703,0.82,-99.06,39.001,-3.54,
00:00:18:317,0.101,-0.656,0.788,-42.176,45.41,-0.061,
00:00:18:333,0.103,-0.697,0.798,32.287,39.245,3.479,
00:00:18:350,0.096,-0.685,0.797,46.936,10.315,12.39,
00:00:18:367,0.095,-0.63,0.779,233.703,32.043,1.037,
00:00:18:383,0.123,-0.758,0.725,301.574,31.433,8.85,
00:00:18:400,0.127,-0.748,0.726,189.331,17.883,10.131,
00:00:18:417,0.115,-0.737,0.714,131.408,33.386,4.882,
00:00:18:433,0.124,-0.771,0.695,64.025,21.85,-3.968,
00:00:18:450,0.122,-0.728,0.702,8.972,8.361,-2.869,
00:00:18:467,0.123,-0.702,0.693,74.768,17.334,-1.16,
00:00:18:483,0.126,-0.74,0.67,156.616,40.771,-3.052,
00:00:18:500,0.127,-0.797,0.683,79.345,31.799,-8.728,canRH
00:00:18:517,0.104,-0.719,0.686,42.541,16.601,-11.78,
00:00:18:533,0.09,-0.711,0.7,80.81,25.329,-14.649,
00:00:18:550,0.094,-0.7,0.708,102.783,31.433,-5.921,
00:00:18:567,0.087,-0.726,0.665,120.239,25.085,9.155,
00:00:18:583,0.099,-0.778,0.66,17.089,21.057,9.582,
00:00:18:600,0.084,-0.717,0.66,-124.268,7.202,3.601,
00:00:18:617,0.032,-0.971,0.637,-315.43,43.823,-26.856,
00:00:18:633,0.134,-0.669,0.699,-229.676,63.842,-36.927,
00:00:18:650,0.056,-0.704,0.718,33.081,60.485,-1.038,
00:00:18:667,0.12,-0.692,0.77,3.418,48.95,1.098,
00:00:18:683,0.139,-0.719,0.787,10.986,40.1,8.3,
00:00:18:700,0.126,-0.677,0.774,-127.625,60.669,-15.381,
00:00:18:717,0.093,-0.709,0.682,-333.435,26.855,5.615,
00:00:18:733,0.131,-0.894,0.754,-376.526,65.185,-54.078,
00:00:18:750,0.183,-0.626,0.724,-99.976,35.156,-53.528,
00:00:18:767,0.139,-0.707,0.782,30.029,6.286,-3.174,
00:00:18:783,0.157,-0.724,0.77,-77.454,-11.841,-1.465,
00:00:18:800,0.169,-0.662,0.783,-294.739,-26.612,1.403,
00:00:18:817,0.109,-0.58,0.777,-600.159,-55.909,-2.198,
00:00:18:833,0.101,-0.697,0.902,-670.716,26.855,-64.515,
00:00:18:850,0.14,-0.507,0.799,-333.68,39.856,-73.548,
00:00:18:867,0.135,-0.517,0.776,-23.865,-6.714,25.39,
00:00:18:883,0.138,-0.684,0.775,-39.551,-5.677,35.888,
00:00:18:900,0.13,-0.778,0.727,-503.052,-25.818,46.142,
00:00:18:917,0.169,-0.556,0.865,-746.644,15.136,-54.078,
00:00:18:933,0.139,-0.444,0.802,-496.033,2.929,-62.623,
00:00:18:950,0.116,-0.488,0.835,-280.213,-12.024,5.432,
00:00:18:967,0.126,-0.537,0.841,-201.477,8.728,32.287,
00:00:18:983,0.164,-0.586,0.855,-284.852,-5.31,46.997,
00:00:19:0,0.141,-0.538,0.896,-444.275,-37.354,17.211,
00:00:19:17,0.057,-0.504,0.839,-532.41,-39.551,-5.005,
00:00:19:33,0.036,-0.708,0.891,-664.49,-22.706,34.362,
00:00:19:50,0.129,-0.314,0.856,-362.427,61.279,-59.327,
00:00:19:67,0.166,-0.381,0.871,-41.26,32.348,67.688,
00:00:19:83,0.149,-0.574,0.86,-70.374,4.699,32.409,
00:00:19:100,0.142,-0.52,0.902,-374.756,-24.109,37.597,
00:00:19:117,0.101,-0.51,0.879,-906.8,-47.608,44.25,
00:00:19:133,0.132,-0.462,1.033,-1101.38,-26.429,-27.344,
00:00:19:150,0.116,-0.111,0.854,-590.21,41.992,-111.817,
00:00:19:167,0.162,-0.202,0.885,-277.894,11.962,49.56,
00:00:19:183,0.137,-0.542,0.848,-558.35,-72.815,142.212,
00:00:19:200,0.186,-0.565,1.06,-1101.563,-75.379,38.147,
00:00:19:217,0.142,0.027,1,-1063.294,-50.843,-97.901,
00:00:19:233,0.091,0.098,1.041,-878.235,-62.134,15.991,
00:00:19:250,0.088,-0.033,1.101,-831.665,-35.157,58.898,
00:00:19:267,0.073,-0.173,1.077,-1345.276,-67.872,128.418,
00:00:19:283,0.131,-0.503,1.057,-1949.83,-84.534,120.666,
00:00:19:300,0.158,0.105,0.779,-1479.065,48.461,-164.002,
00:00:19:317,0.109,0.251,0.819,-1119.141,-53.528,135.925,
00:00:19:333,0.074,-0.135,0.839,-1320.374,-61.097,188.72,
00:00:19:350,0.113,-0.59,0.794,-2000,-101.563,221.374,
00:00:19:367,0.283,0.579,0.823,-2000,-101.685,-101.136,
00:00:19:383,-0.072,0.96,0.885,-1635.987,-317.627,-28.687,
00:00:19:400,-0.09,-0.227,0.876,-1678.895,-101.807,274.536,
00:00:19:417,0.278,0.678,0.801,-1638.489,56.518,-29.175,
00:00:19:433,0.142,0.938,0.754,-2000,-188.66,-86.914,
00:00:19:450,-0.003,0.894,0.551,-1639.954,-227.478,-127.015,
00:00:19:467,0.016,0.354,0.516,-1902.466,-119.629,8.239,
00:00:19:483,0.121,1.449,0.602,-1224.305,-218.75,-135.743,
00:00:19:500,0.002,0.833,0.531,-581.604,-85.572,-90.027,
00:00:19:517,0.067,1.157,0.608,-168.946,-81.665,-40.711,
00:00:19:533,-0.018,1.047,0.646,539.917,-21.79,-70.374,
00:00:19:550,0.053,0.845,0.636,832.336,51.269,-49.317,
00:00:19:567,0.041,0.792,0.742,843.139,40.832,-44.19,
00:00:19:583,0.114,0.763,0.829,799.926,75.622,-28.199,
00:00:19:600,0.119,0.706,0.889,748.291,27.71,-58.106,
00:00:19:617,0.083,0.801,0.831,776.062,40.405,-61.158,
00:00:19:633,0.107,0.938,0.776,868.652,-1.343,-60.486,
00:00:19:650,0.144,1.008,0.822,1315.918,-65.003,-96.253,
00:00:19:667,0.083,0.97,0.749,1997.924,2.197,-159.974,
00:00:19:683,0.093,0.689,0.708,1999.694,60.913,-98.938,
00:00:19:700,0.151,0.333,0.707,1999.694,50.17,-109.253,
00:00:19:717,0.129,0.129,0.807,1999.694,1.098,-180.176,
00:00:19:733,0.043,0.129,0.992,1999.694,50.842,-232.666,
00:00:19:750,0.053,0.02,0.809,1999.694,46.63,-241.7,
00:00:19:767,0.109,-0.561,0.696,1999.694,-161.072,-164.124,
00:00:19:783,0.033,-0.798,0.697,1999.694,-174.866,-158.265,
00:00:19:800,-0.073,-0.742,0.745,1999.694,-161.499,-148.743,
00:00:19:817,-0.15,-0.769,0.759,1997.375,-110.901,-70.252,
00:00:19:833,-0.091,-0.765,0.711,955.017,-52.979,-41.138,
00:00:19:850,-0.009,-0.634,0.701,160.522,-58.289,-146.607,
00:00:19:867,0.01,-0.536,0.768,-258.423,-63.904,-132.996,
00:00:19:883,0.002,-0.528,0.846,-419.678,-47.608,-118.164,
00:00:19:900,0.023,-0.409,0.848,-274.659,-46.692,-78.614,
00:00:19:917,-0.026,-0.233,0.721,196.472,-71.351,-104.798,
00:00:19:933,-0.019,-0.447,0.774,658.02,-19.043,-13.062,
00:00:19:950,0.079,-0.737,0.784,647.644,-3.54,-8.24,
00:00:19:967,-0.003,-0.726,0.763,364.563,-29.664,-15.564,
00:00:19:983,0.009,-0.649,0.762,184.814,29.968,-9.766,
00:00:20:0,0.017,-0.67,0.756,44.555,57.556,-8.423,
00:00:20:17,0.064,-0.552,0.68,-4.822,92.773,0.976,
00:00:20:33,0.033,-0.639,0.56,179.809,50.659,-3.113,
00:00:20:50,0.08,-0.835,0.609,74.34,43.09,25.573,
00:00:20:67,0.057,-0.694,0.684,-57.557,-8.118,18.127,
00:00:20:83,0.052,-0.694,0.746,-9.583,6.347,6.713,
00:00:20:100,0.058,-0.761,0.764,18.859,15.075,0.915,
00:00:20:117,0.049,-0.767,0.754,72.082,21.789,7.385,
00:00:20:133,0.055,-0.663,0.708,191.772,30.761,-0.794,
00:00:20:150,0.048,-0.778,0.698,189.636,49.865,3.479,
00:00:20:167,0.056,-0.775,0.677,36.743,42.785,-13.794,
00:00:20:183,0.084,-0.716,0.673,-28.809,42.785,-11.78,
00:00:20:200,0.051,-0.738,0.689,-51.819,15.869,-15.198,
00:00:20:217,0.039,-0.681,0.718,-27.649,46.569,-20.63,
00:00:20:233,0.044,-0.739,0.701,61.706,69.946,-3.968,
00:00:20:250,0.067,-0.754,0.733,12.512,65.795,16.479,
00:00:20:267,0.055,-0.683,0.737,18.554,55.603,25.207,
00:00:20:283,0.054,-0.712,0.725,68.908,62.927,19.226,
00:00:20:300,0.067,-0.768,0.691,-39.307,31.25,-14.283,
00:00:20:317,0.065,-0.746,0.645,-78.492,-27.283,-24.842,
00:00:20:333,0.047,-0.712,0.674,-41.26,-45.899,-45.411,
00:00:20:350,0.059,-0.71,0.749,13.61,-41.016,-43.152,
00:00:20:367,0.049,-0.734,0.756,48.217,-10.926,-28.138,
00:00:20:383,0.047,-0.723,0.742,25.94,8.3,-15.625,
00:00:20:400,0.053,-0.735,0.688,5.676,5.432,-12.085,
00:00:20:417,0.046,-0.763,0.704,32.47,13.61,-14.893,
00:00:20:433,0.069,-0.744,0.717,63.537,23.193,-17.212,
00:00:20:450,0.059,-0.741,0.703,46.752,26.55,-26.795,
00:00:20:467,0.058,-0.779,0.705,-13.855,26.367,-44.007,
00:00:20:483,0.047,-0.746,0.706,-75.684,22.888,-64.331,
00:00:20:500,0.055,-0.735,0.73,-103.516,19.165,-75.44,
00:00:20:517,0.029,-0.687,0.727,-51.392,13.671,-71.351,
00:00:20:533,0.024,-0.679,0.732,20.69,7.507,-61.28,
00:00:20:550,0.025,-0.68,0.73,94.238,15.441,-52.063,
00:00:20:567,0.055,-0.706,0.725,132.995,16.113,-35.462,
00:00:20:583,0.051,-0.714,0.705,144.409,7.995,-22.706,
00:00:20:600,0.048,-0.74,0.689,164.978,11.474,-20.874,
00:00:20:617,0.067,-0.754,0.687,126.281,8.239,-10.315,
00:00:20:633,0.056,-0.778,0.67,105.102,10.376,-4.761,
00:00:20:650,0.064,-0.711,0.659,133.178,19.104,-5.066,
00:00:20:667,0.071,-0.755,0.644,138.488,38.086,7.324,
00:00:20:683,0.05,-0.805,0.638,28.137,31.799,6.286,
00:00:20:700,0.065,-0.741,0.642,-80.384,27.16,-1.221,
00:00:20:717,0.028,-0.709,0.652,-210.938,-2.991,8.911,
00:00:20:733,0.027,-1.001,0.726,-370.301,4.577,-36.194,
00:00:20:750,0.129,-0.637,0.747,-175.171,-20.691,-56.641,
00:00:20:767,0.047,-0.708,0.695,48.278,34.545,-41.932,
00:00:20:783,0.093,-0.804,0.7,-130.188,8.606,-47.852,
00:00:20:800,0.062,-0.655,0.723,-478.333,-0.489,-70.252,
00:00:20:817,0.055,-0.712,0.776,-484.131,-5.127,-97.352,
00:00:20:833,0.046,-0.631,0.811,-293.641,-29.175,-98.145,
00:00:20:850,0.036,-0.668,0.81,-88.929,-17.701,-83.863,
00:00:20:867,0.051,-0.698,0.781,-75.745,-31.128,-94.3,
00:00:20:883,0.027,-0.68,0.784,-213.562,-42.786,-98.145,
00:00:20:900,0.006,-0.626,0.8,-424.378,-76.539,-97.046,
00:00:20:917,-0.05,-0.689,0.785,-709.961,-115.54,-101.319,
00:00:20:933,-0.022,-0.566,0.833,-441.956,-60.608,-151.429,
00:00:20:950,0.012,-0.609,0.828,-118.531,-48.523,-127.808,
00:00:20:967,0.027,-0.649,0.795,-54.2,-85.206,-107.239,
00:00:20:983,-0.013,-0.621,0.838,-279.541,-126.16,-113.282,
00:00:21:0,0.027,-0.661,0.881,-501.893,-105.896,-159.18,
00:00:21:17,0.035,-0.567,0.859,-530.884,-114.869,-176.636,
00:00:21:33,-0.044,-0.534,0.847,-348.816,-144.837,-167.359,
00:00:21:50,-0.072,-0.512,0.848,-186.036,-109.375,-143.189,
00:00:21:67,-0.04,-0.533,0.884,-140.503,-96.619,-130.921,
00:00:21:83,-0.054,-0.535,0.91,-237.366,-128.968,-122.376,
00:00:21:100,-0.104,-0.491,0.933,-479.31,-137.94,-106.08,
00:00:21:117,-0.125,-0.542,0.902,-812.806,-166.748,-88.44,
00:00:21:133,-0.097,-0.342,0.952,-594.3,-100.464,-125.367,
00:00:21:150,-0.075,-0.362,0.94,-326.783,-82.032,-88.99,
00:00:21:167,-0.077,-0.406,0.915,-292.603,-87.708,-28.565,
00:00:21:183,-0.064,-0.505,0.978,-480.652,-80.018,-35.95,
00:00:21:200,-0.035,-0.398,0.99,-600.525,-71.228,-42.786,
00:00:21:217,-0.067,-0.34,0.96,-732.666,-107.85,-17.64,
00:00:21:233,-0.112,-0.348,1.019,-892.823,-73.548,18.493,
00:00:21:250,-0.259,-0.232,0.932,-1511.963,1.648,90.576,
00:00:21:267,-0.082,-0.528,1.107,-2000,142.334,166.442,
00:00:21:283,-0.179,-0.183,0.846,-2000,-68.482,48.461,
00:00:21:300,-0.23,0.038,0.887,-2000,-2.808,58.105,
00:00:21:317,-0.091,0.037,1.088,-1805.97,149.353,156.982,
00:00:21:333,-0.004,0.172,1.02,-1533.509,46.325,32.531,
00:00:21:350,0.088,0.005,1.22,-1766.907,-76.355,117.675,
00:00:21:367,-0.228,-0.055,0.853,-2000,-153.138,-40.406,
00:00:21:383,0.048,0.051,0.961,-2000,-100.403,59.021,
00:00:21:400,0.17,0.446,0.962,-2000,-194.703,-80.14,
00:00:21:417,-0.211,1.068,0.999,-1691.224,-223.45,-128.907,
00:00:21:433,0.013,0.678,0.843,-1043.274,-81.849,-123.475,
00:00:21:450,0.01,0.526,0.753,-1147.278,-92.164,-61.951,
00:00:21:467,-0.116,0.942,0.87,-586.731,-22.095,-62.256,
00:00:21:483,0.031,0.611,0.65,-198.121,117.004,-18.982,
00:00:21:500,0.004,0.597,0.722,-303.101,41.809,-34.119,
00:00:21:517,-0.094,0.671,0.811,-154.847,114.685,-37.415,
00:00:21:533,-0.031,0.789,0.834,188.049,173.156,-45.838,
00:00:21:550,-0.053,0.921,0.734,681.274,163.147,-76.111,
00:00:21:567,-0.113,1.026,0.659,1133.484,155.151,-75.318,
00:00:21:583,-0.14,0.914,0.625,1490.783,179.87,-123.414,
00:00:21:600,-0.089,0.78,0.648,1831.482,201.416,-147.644,
00:00:21:617,-0.004,0.58,0.69,1999.694,218.872,-178.589,
00:00:21:633,0.009,0.398,0.739,1999.694,138.549,-176.941,
00:00:21:650,-0.035,0.249,0.914,1999.694,99.914,-146.607,
00:00:21:667,-0.069,0.14,0.887,1999.694,171.02,-115.174,
00:00:21:683,-0.024,-0.125,0.801,1999.694,201.416,-51.758,
00:00:21:700,0.019,-0.291,0.834,1999.694,139.404,-16.663,
00:00:21:717,-0.162,-0.745,1.081,1269.958,5.127,111.145,
00:00:21:733,-0.128,-0.506,1.045,624.023,54.931,153.442,
00:00:21:750,-0.108,-0.223,1.054,413.94,105.163,165.771,
00:00:21:767,-0.053,-0.143,1.028,571.106,104.736,162.231,
00:00:21:783,-0.049,-0.24,0.971,862.243,115.783,124.389,
00:00:21:800,-0.018,-0.665,0.743,836.914,145.019,142.212,
00:00:21:817,0.004,-0.711,0.719,606.384,124.633,89.172,
00:00:21:833,0.019,-0.648,0.735,458.679,91.98,51.94,
00:00:21:850,0.003,-0.621,0.709,429.382,70.373,41.748,
00:00:21:867,0.008,-0.602,0.718,402.282,59.875,41.32,
00:00:21:883,0.039,-0.646,0.748,356.933,19.775,52.246,
00:00:21:900,0.038,-0.679,0.736,306.518,14.465,27.71,
00:00:21:917,0.075,-0.7,0.718,173.462,4.943,19.226,
00:00:21:933,0.062,-0.607,0.678,134.826,-9.705,-3.174,
00:00:21:950,0.045,-0.656,0.647,153.259,-0.855,12.512,
00:00:21:967,0.089,-0.598,0.655,68.298,-22.278,2.685,
00:00:21:983,0.046,-0.618,0.72,185.547,-9.278,6.958,
00:00:22:0,0.106,-0.729,0.739,182.067,-17.395,36.132,
00:00:22:17,0.07,-0.607,0.702,163.147,-31.495,18.676,
00:00:22:33,0.064,-0.675,0.663,167.48,-14.222,22.461,
00:00:22:50,0.078,-0.736,0.635,20.08,-35.096,3.784,
00:00:22:67,0.064,-0.71,0.671,-44.678,-31.25,-9.522,
00:00:22:83,0.075,-0.694,0.701,20.752,-10.804,-18.433,
00:00:22:100,0.06,-0.701,0.687,107.483,9.704,-14.588,
00:00:22:117,0.069,-0.754,0.668,141.601,27.771,-17.212,
00:00:22:133,0.081,-0.808,0.684,94.97,45.349,-24.17,
00:00:22:150,0.086,-0.846,0.689,-11.17,55.908,-20.63,
00:00:22:167,0.091,-0.753,0.675,-95.643,62.194,-32.471,
00:00:22:183,0.061,-0.713,0.731,-141.236,23.193,-44.495,
00:00:22:200,0.064,-0.719,0.767,-92.102,32.714,-40.223,
00:00:22:217,0.076,-0.657,0.761,-1.099,25.512,-26.368,
00:00:22:233,0.049,-0.677,0.783,81.237,35.522,-2.32,
00:00:22:250,0.059,-0.711,0.76,139.221,33.203,3.295,
00:00:22:267,0.049,-0.72,0.735,136.535,15.564,-0.55,
00:00:22:283,0.064,-0.777,0.734,113.525,14.404,0.366,
00:00:22:300,0.072,-0.752,0.74,52.551,-0.977,-4.7,
00:00:22:317,0.088,-0.714,0.751,54.077,8.422,-10.987,
00:00:22:333,0.072,-0.7,0.708,94.909,24.658,-11.17,
00:00:22:350,0.09,-0.708,0.651,178.588,61.096,-9.278,
00:00:22:367,0.099,-0.765,0.633,201.11,47.912,-2.137,
00:00:22:383,0.073,-0.786,0.642,146.423,39.978,5.065,
00:00:22:400,0.087,-0.831,0.669,-12.452,42.724,-10.376,
00:00:22:417,0.1,-0.759,0.682,-161.255,17.456,-32.288,
00:00:22:433,0.057,-0.707,0.707,-174.561,6.897,-38.575,
00:00:22:450,0.052,-0.7,0.698,-119.629,12.634,-35.95,
00:00:22:467,0.045,-0.737,0.702,-65.369,6.958,-36.194,
00:00:22:483,0.047,-0.76,0.704,-35.889,9.643,-27.832,
00:00:22:500,0.04,-0.768,0.676,-105.591,5.554,-20.325,
00:00:22:517,0.049,-0.98,0.587,-341.309,-2.442,-30.274,
00:00:22:533,0.119,-0.723,0.66,-377.198,39.123,-118.836,
00:00:22:550,0.064,-0.618,0.666,-235.23,-12.391,-77.82,
00:00:22:567,0.024,-0.698,0.755,-309.082,5.676,-58.167,
00:00:22:583,0.093,-0.607,0.821,-432.251,4.394,-85.389,
00:00:22:600,0.072,-0.532,0.831,-483.887,-21.546,-105.225,
00:00:22:617,-0.018,-0.581,0.739,-415.65,-33.143,-85.938,
00:00:22:633,-0.008,-0.825,0.709,-435.303,-0.611,-47.12,
00:00:22:650,0.103,-0.634,0.812,-292.481,48.278,-92.713,
00:00:22:667,0.08,-0.586,0.804,-111.695,-14.283,-76.539,
00:00:22:683,0.018,-0.631,0.799,-115.662,-11.963,-64.209,
00:00:22:700,0.056,-0.604,0.829,-232.85,7.385,-68.909,
00:00:22:717,0.074,-0.534,0.855,-387.757,-15.87,-75.013,
00:00:22:733,0.002,-0.514,0.789,-402.283,-45.105,-79.773,
00:00:22:750,-0.052,-0.656,0.72,-438.843,-31.678,-36.499,
00:00:22:767,0.046,-0.619,0.852,-277.649,56.823,-48.645,
00:00:22:783,0.09,-0.514,0.795,-71.473,20.202,-48.706,
00:00:22:800,0.053,-0.597,0.809,-97.168,4.76,-27.588,
00:00:22:817,0.031,-0.61,0.806,-392.273,1.77,-29.908,
00:00:22:833,0.038,-0.5,0.808,-649.048,21.484,-73.67,
00:00:22:850,0.009,-0.425,0.767,-704.163,15.93,-63.172,
00:00:22:867,-0.019,-0.6,0.696,-786.255,20.385,-8.728,
00:00:22:883,0.067,-0.438,0.918,-702.82,3.112,-46.509,
00:00:22:900,0.076,-0.287,0.988,-360.352,31.494,-34.729,
00:00:22:917,0.049,-0.334,0.945,-215.516,7.263,-21.668,
00:00:22:933,0.034,-0.403,0.935,-307.007,-5.86,-21.485,
00:00:22:950,0.029,-0.326,0.956,-500.611,-16.48,-44.19,
00:00:22:967,-0.034,-0.368,0.868,-774.17,-49.744,-36.683,
00:00:22:983,0.045,-0.353,1.132,-740.357,-43.335,-61.829,
00:00:23:0,0.043,-0.179,1.099,-287.476,-10.01,-46.143,
00:00:23:17,0.051,-0.337,1.052,-130.249,-28.321,-25.147,
00:00:23:33,0.043,-0.345,1.039,-435.12,-73.06,-19.349,
00:00:23:50,-0.035,-0.173,0.948,-937.5,-100.769,-28.992,
00:00:23:67,0.004,-0.128,1.165,-1103.821,-34.424,-67.444,
00:00:23:83,-0.017,-0.115,1.005,-706.36,73.486,-57.007,
00:00:23:100,0.126,-0.194,0.903,-320.74,17.578,44.982,
00:00:23:117,0.037,-0.46,0.843,-655.213,-82.703,48.523,
00:00:23:133,-0.073,-0.202,0.997,-1123.23,-112.549,18.737,
00:00:23:150,0.001,0.163,0.95,-1070.008,70.983,33.386,
00:00:23:167,0.109,0.1,0.914,-991.211,80.993,74.218,
00:00:23:183,-0.041,-0.176,0.841,-1375.55,-64.331,137.634,
00:00:23:200,0.124,0.073,1.22,-1730.53,-70.252,33.569,
00:00:23:217,0.046,0.325,1.093,-1690.064,-45.777,59.387,
00:00:23:233,-0.075,-0.406,0.86,-2000,-66.956,187.988,
00:00:23:250,0.075,0.422,1.003,-2000,-290.284,116.272,
00:00:23:267,0.069,0.376,1.016,-2000,-249.024,118.957,
00:00:23:283,0.04,0.328,0.955,-2000,-263.245,90.637,
00:00:23:300,-0.113,0.912,0.798,-2000,-320.191,-49.195,
00:00:23:317,0.077,0.264,0.488,-2000,-184.205,155.7,
00:00:23:333,0.247,0.511,0.041,-2000,-371.033,-123.658,
00:00:23:350,-0.135,1.722,0.516,-2000,-542.847,-140.137,
00:00:23:367,-0.044,0.709,0.217,-1589.844,-168.641,23.071,
00:00:23:383,-0.082,1.351,0.596,-564.454,-310.303,-31.006,
00:00:23:400,0.077,0.95,0.372,-145.203,-74.952,17.15,
00:00:23:417,-0.145,0.975,0.576,26.855,-123.536,6.225,
00:00:23:433,-0.125,1.019,0.591,262.329,-57.862,0.915,
00:00:23:450,-0.136,0.951,0.593,450.134,-4.761,2.99,
00:00:23:467,-0.114,0.973,0.529,504.943,20.446,0.305,
00:00:23:483,-0.077,1.034,0.543,582.58,84.228,-50.721,
00:00:23:500,-0.123,1.087,0.533,824.035,80.322,-69.825,canRH
00:00:23:517,-0.085,1.086,0.473,1190.551,124.572,-45.899,
00:00:23:533,-0.029,1.072,0.375,1591.491,107.727,-19.837,
00:00:23:550,-0.07,1.039,0.356,1993.103,144.165,-18.86,
00:00:23:567,-0.065,0.884,0.377,1999.694,106.445,20.874,
00:00:23:583,-0.037,0.781,0.502,1999.694,72.631,27.893,
00:00:23:600,-0.084,0.704,0.55,1999.694,55.603,25.085,
00:00:23:617,-0.05,0.58,0.619,1999.694,-11.597,46.142,
00:00:23:633,-0.072,0.457,0.708,1999.694,-17.884,57.067,
00:00:23:650,-0.114,0.251,0.767,1999.694,-1.587,97.412,
00:00:23:667,-0.121,-0.165,0.989,1999.694,40.71,199.524,
00:00:23:683,-0.101,-0.281,1.016,1656.921,67.199,224.243,
00:00:23:700,-0.104,-0.32,1.087,1209.167,84.899,250.488,
00:00:23:717,-0.125,-0.263,1.042,1017.822,146.667,258.545,
00:00:23:733,-0.119,-0.249,0.948,926.33,204.284,229.736,
00:00:23:750,-0.065,-0.151,0.893,930.847,145.935,200.256,
00:00:23:767,-0.057,-0.244,0.89,1084.716,112.671,136.474,
00:00:23:783,-0.065,-0.466,0.886,1124.328,115.722,108.947,
00:00:23:800,-0.043,-0.567,0.92,1048.217,113.647,82.702,
00:00:23:817,-0.006,-0.583,0.933,963.562,107.422,49.743,
00:00:23:833,-0.031,-0.585,0.915,819.458,116.943,9.277,
00:00:23:850,-0.031,-0.411,0.781,702.148,136.108,-32.105,
00:00:23:867,-0.01,-0.201,0.68,755.615,119.323,-44.129,
00:00:23:883,0.023,-0.722,0.823,871.521,109.497,-97.107,
00:00:23:900,0.016,-0.606,0.848,250.793,132.141,-101.868,
00:00:23:917,0.002,-0.579,0.883,244.69,109.497,-94.239,
00:00:23:933,-0.004,-0.461,0.839,234.436,109.68,-96.619,
00:00:23:950,0,-0.367,0.823,282.776,90.026,-87.464,
00:00:23:967,-0.023,-0.466,0.795,328.735,66.04,-77.332,
00:00:23:983,-0.064,-0.53,0.787,239.38,51.33,-50.477,
00:00:24:0,-0.044,-0.581,0.788,122.558,42.602,-18.311,
00:00:24:17,-0.047,-0.566,0.801,32.775,33.63,8.606,
00:00:24:33,-0.034,-0.495,0.815,33.63,21.728,35.644,
00:00:24:50,-0.007,-0.478,0.799,139.343,26.001,45.654,
00:00:24:67,-0.007,-0.513,0.764,241.333,26.184,54.565,
00:00:24:83,0,-0.588,0.764,309.021,22.766,61.767,
00:00:24:100,0.027,-0.72,0.768,265.075,14.587,58.593,
00:00:24:117,0.037,-0.725,0.762,129.394,0.976,49.804,
00:00:24:133,0.036,-0.667,0.783,62.683,-18.067,40.039,
00:00:24:150,0.062,-0.676,0.804,42.968,-19.959,26.184,
00:00:24:167,0.068,-0.673,0.8,38.635,-23.133,2.319,
00:00:24:183,0.069,-0.689,0.801,55.053,-25.208,-14.222,
00:00:24:200,0.071,-0.684,0.794,59.265,-26.551,-21.424,
00:00:24:217,0.063,-0.675,0.815,53.527,-20.63,-27.161,
00:00:24:233,0.063,-0.72,0.813,28.198,-19.043,-43.457,
00:00:24:250,0.092,-0.693,0.843,-33.448,-2.503,-56.275,
00:00:24:267,0.045,-0.622,0.78,36.01,-23.682,-69.886,
00:00:24:283,0.083,-0.707,0.768,84.777,50.781,-71.534,
00:00:24:300,0.074,-0.726,0.77,-24.476,-15.259,-58.655,
00:00:24:317,0.021,-0.75,0.758,-56.336,-4.517,-58.167,
00:00:24:333,0,-0.667,0.73,-81.36,-24.292,-48.035,
00:00:24:350,0.003,-0.604,0.775,-37.659,12.451,-27.894,
00:00:24:367,0.03,-0.629,0.802,2.258,15.93,-20.874,
00:00:24:383,-0.015,-0.579,0.753,75.866,29.174,-6.409,
00:00:24:400,0.005,-0.653,0.767,126.709,69.458,15.808,
00:00:24:417,0.024,-0.672,0.743,110.778,37.963,28.076,
00:00:24:433,0.02,-0.723,0.779,127.624,43.273,25.207,
00:00:24:450,0.033,-0.784,0.771,116.76,41.687,18.005,
00:00:24:467,0.042,-0.758,0.758,51.147,35.522,5.004,
00:00:24:483,0.034,-0.7,0.745,35.888,30.212,-20.813,
00:00:24:500,0.016,-0.664,0.761,79.04,30.395,-43.03,
00:00:24:517,0.007,-0.631,0.769,121.887,25.451,-70.069,
00:00:24:533,0.021,-0.601,0.809,230.896,27.893,-54.322,
00:00:24:550,0.043,-0.641,0.76,324.585,41.198,-32.349,
00:00:24:567,0.053,-0.71,0.681,75.256,44.982,-5.188,
00:00:24:583,0.061,-0.734,0.741,-143.677,34.118,-11.231,
00:00:24:600,0.03,-0.656,0.748,-330.506,-6.836,-1.404,
00:00:24:617,-0.017,-0.665,0.778,-335.938,-10.01,-5.31,
00:00:24:633,-0.045,-0.692,0.691,-334.656,13.427,10.498,
00:00:24:650,0.033,-1.112,0.831,-525.208,54.26,-17.518,
00:00:24:667,0.128,-0.443,0.663,-428.467,0.061,-87.037,
00:00:24:683,-0.012,-0.704,0.696,-172.364,-9.949,-7.081,
00:00:24:700,-0.027,-0.924,0.84,-741.517,-70.923,8.544,
00:00:24:717,0.114,-0.365,0.893,-764.771,-13.123,-50.66,
00:00:24:733,0.027,-0.363,0.931,-414.307,-65.003,-59.205,
00:00:24:750,-0.046,-0.373,0.953,-303.589,-35.279,-36.011,
00:00:24:767,-0.017,-0.481,0.928,-286.316,52.002,-25.696,
00:00:24:783,0.024,-0.571,0.864,-378.357,32.409,-21.424,
00:00:24:800,-0.018,-0.597,0.781,-375.55,-2.564,-61.951,
00:00:24:817,-0.045,-0.62,0.759,-211.67,33.691,-54.444,
00:00:24:833,-0.019,-0.628,0.73,-104.248,72.876,-34.058,
00:00:24:850,-0.032,-0.6,0.726,-149.842,49.926,-18.86,
00:00:24:867,-0.09,-0.563,0.683,-352.234,7.324,-10.193,
00:00:24:883,-0.01,-0.753,0.971,-564.759,27.465,-4.09,
00:00:24:900,0.05,-0.277,0.805,-310.242,85.022,-97.413,
00:00:24:917,0.037,-0.351,0.837,-44.495,82.58,25.329,
00:00:24:933,0.019,-0.494,0.831,-106.69,53.161,45.959,
00:00:24:950,0.113,-0.448,0.936,-658.753,105.285,-31.8,
00:00:24:967,0.086,-0.244,0.946,-596.436,73.242,-49.012,
00:00:24:983,0.068,-0.205,0.967,-418.152,77.087,3.479,
00:00:25:0,0.068,-0.318,1.015,-428.04,73.181,34.057,
00:00:25:17,0.051,-0.312,0.972,-601.319,57.373,18.127,
00:00:25:33,-0.038,-0.399,0.754,-1007.203,10.559,53.772,
00:00:25:50,0.052,-0.431,1.126,-1451.783,17.456,-17.151,
00:00:25:67,-0.004,0.306,0.897,-1125.55,85.144,-38.575,
00:00:25:83,0.098,-0.36,1.188,-1423.218,5.859,253.967,
00:00:25:100,0.06,0.135,0.987,-1223.45,12.512,-51.026,
00:00:25:117,0.021,-0.018,1.001,-1622.559,-49.805,142.212,
00:00:25:133,0.086,0.102,0.985,-1791.81,-4.761,18.92,
00:00:25:150,-0.008,0.411,0.878,-1911.194,-58.838,133.361,
00:00:25:167,0.162,-0.211,1.291,-2000,-154.419,276.245,
00:00:25:183,0.088,0.5,1.002,-2000,-201.172,26.367,
00:00:25:200,0.031,-0.316,1.215,-2000,-329.346,329.956,
00:00:25:217,0.118,0.127,0.794,-2000,-389.71,42.907,
00:00:25:233,0.005,0.838,0.804,-2000,-541.26,-18.738,
00:00:25:250,0.046,0.873,0.452,-2000,-362.183,66.711,
00:00:25:267,-0.011,1.015,0.497,-1997.864,-399.17,-104.615,
00:00:25:283,0.102,1.492,0.398,-1562.989,-276.062,-6.287,
00:00:25:300,-0.053,0.959,0.548,-301.331,-131.409,-78.248,
00:00:25:317,0.096,0.886,0.449,16.235,-72.083,-53.406,
00:00:25:333,-0.021,0.955,0.585,202.087,-46.326,-57.862,
00:00:25:350,-0.018,0.979,0.635,389.77,-10.254,-64.087,
00:00:25:367,-0.034,1.018,0.668,657.226,58.105,-41.626,
00:00:25:383,0.102,1.089,0.632,1041.259,80.688,-56.336,
00:00:25:400,-0.044,1.074,0.588,1470.092,128.112,-97.596,
00:00:25:417,-0.014,1.02,0.524,1965.698,195.556,-67.749,
00:00:25:433,0.052,0.834,0.446,1999.694,226.623,-31.373,
00:00:25:450,0.072,0.652,0.463,1999.694,184.875,6.103,
00:00:25:467,0.092,0.555,0.64,1999.694,174.682,-1.282,
00:00:25:483,0.117,0.385,0.753,1999.694,123.84,2.197,
00:00:25:500,0.026,0.241,0.855,1999.694,79.711,-59.205,
00:00:25:517,-0.013,0.102,1.001,1999.694,36.56,-79.59,
00:00:25:533,-0.092,-0.058,1.02,1999.694,162.475,-25.147,
00:00:25:550,-0.024,-0.278,0.993,1999.694,216.308,64.27,
00:00:25:567,0.079,-0.435,1.058,1999.694,126.159,65.063,
00:00:25:583,0.062,-0.482,1.001,1579.284,16.601,24.536,
00:00:25:600,-0.047,-0.444,1.023,1081.909,19.592,-12.391,
00:00:25:617,-0.048,-0.357,0.717,647.4,128.54,-48.157,
00:00:25:633,0.012,-0.028,0.623,402.282,49.865,12.39,
00:00:25:650,0.016,-0.366,0.714,598.449,-26.856,-26.673,
00:00:25:667,-0.017,-0.602,0.869,643.921,-52.491,-15.198,
00:00:25:683,0.008,-0.557,0.968,445.068,-10.682,-12.269,
00:00:25:700,-0.018,-0.527,0.947,328.979,-6.348,-12.696,
00:00:25:717,-0.016,-0.443,0.841,251.709,22.949,-8.362,
00:00:25:733,-0.019,-0.372,0.766,252.685,26.184,-35.462,
00:00:25:750,-0.014,-0.459,0.768,342.346,41.015,-61.768,
00:00:25:767,-0.018,-0.598,0.773,322.204,39.245,-65.43,
00:00:25:783,-0.011,-0.596,0.766,205.383,37.902,-61.158,
00:00:25:800,-0.006,-0.575,0.806,73.303,23.376,-25.025,
00:00:25:817,0.014,-0.426,0.773,70.495,32.348,-24.537,
00:00:25:833,0.012,-0.502,0.825,206.115,37.109,-35.889,
00:00:25:850,0.011,-0.631,0.826,228.881,43.762,-37.842,
00:00:25:867,0.02,-0.662,0.805,124.328,21.789,-47.852,
00:00:25:883,0.015,-0.644,0.829,-11.719,0.244,-43.824,
00:00:25:900,0.017,-0.596,0.839,-85.144,-10.926,-41.382,
00:00:25:917,0.071,-0.531,0.888,-2.259,15.747,-46.448,
00:00:25:933,0.042,-0.471,0.858,137.451,-28.565,-33.753,
00:00:25:950,0.02,-0.551,0.833,238.83,-1.831,-28.016,
00:00:25:967,0.043,-0.613,0.852,225.647,-0.184,-17.945,
00:00:25:983,0.04,-0.666,0.821,193.603,-16.541,-9.827,
00:00:26:0,0.021,-0.654,0.83,113.281,-33.02,-5.31,
00:00:26:17,0.023,-0.573,0.842,131.469,-32.532,2.441,
00:00:26:33,0.015,-0.551,0.82,273.071,-20.63,5.554,
00:00:26:50,0.008,-0.611,0.809,364.746,-5.066,34.179,
00:00:26:67,0.016,-0.668,0.797,275.512,3.234,56.03,
00:00:26:83,0.037,-0.665,0.78,123.84,-13.367,39.489,
00:00:26:100,0.023,-0.606,0.757,27.71,-31.739,20.813,
00:00:26:117,0.018,-0.595,0.761,61.462,-18.433,5.249,
00:00:26:133,0.034,-0.669,0.767,112.121,-4.761,3.784,
00:00:26:150,0.064,-0.671,0.768,140.564,-5.249,-10.071,
00:00:26:167,0.065,-0.683,0.764,161.071,2.319,-28.26,
00:00:26:183,0.072,-0.707,0.737,153.503,6.164,-38.392,
00:00:26:200,0.054,-0.724,0.733,84.533,0.793,-47.059,
00:00:26:217,0.049,-0.699,0.747,31.433,-3.602,-50.232,
00:00:26:233,0.034,-0.612,0.771,45.41,4.699,-62.928,
00:00:26:250,0.033,-0.653,0.79,77.941,28.32,-40.711,
00:00:26:267,0.041,-0.643,0.795,42.602,26.306,-22.156,
00:00:26:283,0.028,-0.581,0.766,68.481,10.925,-9.4,
00:00:26:300,0.011,-0.628,0.769,138.122,14.892,-4.822,
00:00:26:317,0.024,-0.676,0.784,156.616,26.611,10.376,
00:00:26:333,0.047,-0.664,0.756,169.799,24.658,17.334,
00:00:26:350,0.036,-0.721,0.75,182.434,16.479,0,
00:00:26:367,0.042,-0.757,0.761,120.3,23.132,24.353,
00:00:26:383,0.031,-0.72,0.783,26.672,20.69,20.324,
00:00:26:400,0.033,-0.73,0.747,-19.532,19.47,9.155,
00:00:26:417,0.008,-0.72,0.745,-60.975,5.31,11.779,
00:00:26:433,-0.003,-0.684,0.71,-110.474,17.028,12.512,
00:00:26:450,-0.017,-0.945,0.626,-309.571,28.198,14.343,
00:00:26:467,0.1,-0.702,0.692,-359.436,70.861,-68.726,
00:00:26:483,0.038,-0.622,0.756,-160.34,-44.373,-56.031,
00:00:26:500,-0.039,-0.689,0.773,-257.081,3.601,-9.034,
00:00:26:517,0.047,-0.623,0.817,-436.158,25.878,-35.096,
00:00:26:533,0.027,-0.621,0.813,-610.352,4.943,-55.664,
00:00:26:550,0.047,-0.647,0.882,-689.148,30.395,-108.582,
00:00:26:567,0.028,-0.477,0.83,-468.811,-14.161,-123.047,
00:00:26:583,-0.005,-0.438,0.846,-243.775,-18.555,-48.157,
00:00:26:600,0.015,-0.553,0.883,-203.431,24.231,-10.804,
00:00:26:617,0.051,-0.64,0.878,-460.816,26.245,-13.977,
00:00:26:633,0.015,-0.593,0.775,-829.712,-22.889,-70.435,
00:00:26:650,-0.08,-0.761,0.753,-992.737,-69.153,-70.618,
00:00:26:667,0,-0.495,0.797,-794.678,18.31,-78.125,
00:00:26:683,0.024,-0.38,0.862,-370.301,11.413,22.644,
00:00:26:700,-0.034,-0.517,0.886,-361.756,-24.231,22.277,
00:00:26:717,-0.068,-0.531,0.926,-631.836,0.976,31.555,
00:00:26:733,-0.108,-0.344,0.881,-1034.729,17.822,43.701,
00:00:26:750,0.005,-0.386,1.198,-1305.359,23.925,43.518,
00:00:26:767,-0.007,0.098,1.218,-815.491,86.547,-47.12,
00:00:26:783,-0.007,-0.003,0.986,-457.459,69.763,107.177,
00:00:26:800,0.077,-0.671,1.184,-948.182,23.01,253.479,
00:00:26:817,0.082,-0.103,1.111,-1008.79,-44.495,52.429,
00:00:26:833,-0.067,0.073,0.946,-885.743,23.986,69.824,
00:00:26:850,0.05,-0.433,0.974,-1143.25,89.172,90.942,
00:00:26:867,0.134,-0.003,1.043,-1223.328,-46.326,43.518,
00:00:26:883,-0.001,0.05,0.942,-944.947,52.978,68.115,
00:00:26:900,0.06,-0.153,0.822,-1157.715,41.992,88.012,
00:00:26:917,0.168,0.142,0.929,-1971.436,-132.813,-84.839,
00:00:26:933,0.018,0.391,0.829,-1563.538,-104.248,-86.853,
00:00:26:950,-0.119,-0.084,0.492,-1570.801,-92.591,-40.467,
00:00:26:967,0.468,0.53,0.942,-1915.711,-150.635,-39.673,
00:00:26:983,-0.107,0.577,0.781,-1406.189,-208.252,-144.227,
00:00:27:0,0.225,0.131,0.977,-2000,-156.434,46.203,
00:00:27:17,0.025,0.751,0.717,-1949.585,-252.015,-213.501,
00:00:27:33,-0.016,0.832,0.77,-2000,-241.211,-136.536,
00:00:27:50,-0.002,0.502,0.389,-1957.52,-190.796,-162.659,
00:00:27:67,0.146,0.959,0.304,-2000,-340.76,-81.482,
00:00:27:83,-0.143,0.691,0.301,-2000,-275.574,-258.057,
00:00:27:100,0.22,1.593,0.478,-1995.301,-363.221,-163.392,
00:00:27:117,-0.176,1.099,0.41,-1005.921,-74.83,-114.502,
00:00:27:133,0.041,1.027,0.413,-647.4,-104.432,-53.223,
00:00:27:150,0.01,1.141,0.391,-216.004,-10.254,-28.016,
00:00:27:167,-0.045,0.986,0.441,60.424,-6.531,-14.466,
00:00:27:183,-0.032,0.933,0.461,100.647,13.61,16.174,
00:00:27:200,-0.049,0.978,0.521,91.796,88.867,-3.052,
00:00:27:217,-0.086,1.02,0.508,252.929,133.911,-5.249,
00:00:27:233,-0.058,1.06,0.495,567.81,198.303,21.911,
00:00:27:250,0.052,1.212,0.466,973.083,236.755,-8.667,
00:00:27:267,-0.002,1.008,0.386,1999.694,177.856,-5.31,
00:00:27:283,0.098,0.871,0.388,1999.694,116.027,-6.836,
00:00:27:300,0.052,0.699,0.509,1999.694,6.103,-17.823,
00:00:27:317,0.024,0.607,0.704,1999.694,55.542,-21.119,
00:00:27:333,0.05,0.462,0.799,1999.694,84.961,-40.65,
00:00:27:350,0.047,0.161,0.904,1999.694,23.803,-49.439,
00:00:27:367,0,0.013,0.965,1999.694,39.672,-72.876,
00:00:27:383,0.03,-0.063,1.043,1797.546,47.241,-17.823,
00:00:27:400,0.03,-0.113,0.985,1410.034,73.059,15.747,
00:00:27:417,0.047,-0.209,0.948,1015.564,48.278,23.498,
00:00:27:433,0.024,-0.218,1.012,663.086,-13.489,65.734,
00:00:27:450,-0.008,-0.072,1.022,418.64,-27.344,107.299,
00:00:27:467,-0.066,0.014,1,342.224,-6.531,134.033,
00:00:27:483,-0.01,0.114,1.025,554.016,-20.63,135.07,
00:00:27:500,-0.044,-0.004,0.941,767.395,-0.367,171.753,
00:00:27:517,0.001,-0.01,0.932,904.48,41.015,131.225,
00:00:27:533,0,-0.013,0.866,1037.048,54.321,32.104,
00:00:27:550,-0.011,-0.199,0.888,1189.026,58.776,3.54,
00:00:27:567,0.003,-0.475,0.892,1187.683,49.987,-1.587,
00:00:27:583,0.025,-0.574,0.887,947.509,28.442,-13.001,
00:00:27:600,0.041,-0.557,0.86,664.062,6.347,-69.092,
00:00:27:617,0.02,-0.543,0.845,463.195,-10.437,-89.173,
00:00:27:633,0.005,-0.571,0.854,250.915,-14.588,-104.92,
00:00:27:650,0.003,-0.536,0.859,51.33,-20.142,-122.254,
00:00:27:667,-0.02,-0.461,0.836,-23.682,-43.519,-147.4,
00:00:27:683,-0.029,-0.368,0.936,-74.83,-25.269,-100.159,
00:00:27:700,-0.04,-0.333,0.931,41.137,-20.752,-77.454,
00:00:27:717,-0.008,-0.415,0.97,259.826,4.455,57.678,
00:00:27:733,0.021,-0.587,0.998,514.77,16.906,140.197,
00:00:27:750,0.054,-0.506,1.029,556.762,-6.714,106.14,
00:00:27:767,0.043,-0.313,0.912,587.463,-26.917,13.855,
00:00:27:783,-0.023,-0.417,0.816,638.122,-18.189,9.277,
00:00:27:800,-0.01,-0.743,0.755,440.002,14.709,-47.73,
00:00:27:817,-0.038,-0.723,0.762,128.662,16.845,-122.498,
00:00:27:833,-0.025,-0.503,0.751,29.541,37.17,-126.099,
00:00:27:850,-0.019,-0.539,0.756,99.06,32.714,-88.99,
00:00:27:867,-0.006,-0.548,0.776,94.482,46.752,-81.055,
00:00:27:883,-0.003,-0.446,0.831,142.7,25.268,-66.712,
00:00:27:900,0.004,-0.473,0.866,287.963,50.903,-59.632,
00:00:27:917,0.014,-0.478,0.82,466.552,59.997,-57.801,
00:00:27:933,-0.001,-0.6,0.73,597.9,52.002,-39.673,
00:00:27:950,0.001,-0.828,0.793,350.097,68.786,36.621,
00:00:27:967,0.045,-0.667,0.807,35.644,-6.226,-19.227,
00:00:27:983,0.015,-0.508,0.823,113.769,-30.64,-20.63,
00:00:28:0,-0.046,-0.598,0.834,207.153,14.77,19.836,
00:00:28:17,-0.011,-0.633,0.816,221.618,48.156,27.099,
00:00:28:33,0.031,-0.636,0.821,177.002,28.137,44.433,
00:00:28:50,0.023,-0.625,0.816,192.321,1.037,14.404,
00:00:28:67,0.018,-0.673,0.8,178.588,8.667,29.296,
00:00:28:83,0.033,-0.634,0.776,156.494,18.676,3.173,
00:00:28:100,0.046,-0.676,0.781,217.163,22.888,-3.052,
00:00:28:117,0.069,-0.749,0.783,255.737,27.526,-6.348,
00:00:28:133,0.079,-0.743,0.752,223.938,22.216,-21.485,
00:00:28:150,0.085,-0.73,0.757,122.314,11.291,-31.128,
00:00:28:167,0.073,-0.708,0.741,54.26,-1.648,-38.758,
00:00:28:183,0.052,-0.683,0.704,29.419,-8.851,-46.326,
00:00:28:200,0.034,-0.713,0.715,-25.696,-13.245,-44.434,
00:00:28:217,0.024,-0.646,0.74,-70.008,6.958,-51.087,
00:00:28:233,0.044,-0.697,0.726,-73.426,21.057,-37.72,
00:00:28:250,0.024,-0.664,0.723,-130.921,11.901,-35.706,
00:00:28:267,-0.005,-0.654,0.77,18.981,22.705,-52.185,
00:00:28:283,0.007,-0.656,0.763,115.295,36.865,-37.232,
00:00:28:300,0.033,-0.664,0.775,182.067,38.391,-13.489,
00:00:28:317,0.052,-0.72,0.803,171.692,33.203,-17.762,
00:00:28:333,0.047,-0.732,0.764,104.309,15.136,-22.156,
00:00:28:350,0.027,-0.667,0.741,115.783,7.751,-30.945,
00:00:28:367,0.011,-0.634,0.69,93.322,12.39,-5.982,
00:00:28:383,-0.017,-0.797,0.705,-102.295,-29.908,-0.306,
00:00:28:400,0.051,-0.802,0.846,-156.128,-16.724,-53.162,
00:00:28:417,0.093,-0.588,0.798,18.981,-27.405,-45.227,
00:00:28:433,0.013,-0.776,0.794,43.945,-23.987,-12.085,
00:00:28:450,0.05,-0.624,0.789,-80.201,-30.274,3.601,
00:00:28:467,0.084,-0.61,0.794,-111.268,4.333,-15.32,
00:00:28:483,0.031,-0.655,0.792,-165.589,-20.569,-40.772,
00:00:28:500,0.006,-0.619,0.771,-91.187,-24.048,-41.199,canRH
00:00:28:517,-0.004,-0.618,0.78,61.767,-8.179,-15.442,
00:00:28:533,0.016,-0.71,0.743,154.358,17.639,-4.883,
00:00:28:550,0.01,-0.758,0.718,97.473,10.498,-7.203,
00:00:28:567,0.021,-0.763,0.713,-13.977,11.779,-17.823,
00:00:28:583,0.045,-0.653,0.811,-310.12,-0.672,-54.383,
00:00:28:600,0,-0.552,0.793,-15.625,5.737,-42.847,
00:00:28:617,0.007,-0.65,0.807,13.427,22.399,-8.423,
00:00:28:633,0.028,-0.635,0.799,-86.976,-15.809,-8.179,
00:00:28:650,0.009,-0.607,0.776,-170.899,15.747,-9.156,
00:00:28:667,0.028,-0.665,0.721,-233.582,15.441,-33.204,
00:00:28:683,-0.029,-0.722,0.667,-373.047,-32.166,-41.687,
00:00:28:700,0.047,-0.691,0.712,-284.974,-44.922,-54.932,
00:00:28:717,0.002,-0.587,0.728,-85.572,-12.024,-45.716,
00:00:28:733,-0.018,-0.578,0.806,-64.82,10.62,-25.391,
00:00:28:750,0,-0.603,0.838,-198.609,39.062,-41.077,
00:00:28:767,0.003,-0.555,0.862,-380.494,22.583,-45.96,
00:00:28:783,-0.011,-0.442,0.854,-356.69,64.453,-70.374,
00:00:28:800,0.013,-0.512,0.801,-233.826,55.664,-58.045,
00:00:28:817,-0.024,-0.577,0.742,-219.666,28.625,-43.641,
00:00:28:833,-0.021,-0.839,0.815,-374.634,12.939,-81.849,
00:00:28:850,0.002,-0.502,0.852,-367.798,16.235,-85.572,
00:00:28:867,-0.037,-0.516,0.827,-245.728,20.08,-75.135,
00:00:28:883,-0.029,-0.469,0.906,-354.248,10.681,-41.077,
00:00:28:900,-0.019,-0.553,1.01,-534.913,7.446,-52.308,
00:00:28:917,-0.015,-0.4,1.001,-605.652,54.382,-111.329,
00:00:28:933,-0.021,-0.417,0.979,-419.251,95.52,-91.614,
00:00:28:950,0.043,-0.573,0.986,-285.828,116.821,-53.528,
00:00:28:967,0.05,-0.558,1.009,-325.562,44.25,-18.128,
00:00:28:983,-0.019,-0.468,0.974,-533.875,29.419,-40.589,
00:00:29:0,-0.038,-0.475,1.033,-749.024,58.471,-36.56,
00:00:29:17,-0.008,-0.434,0.952,-823.365,122.192,-45.472,
00:00:29:33,-0.01,-0.344,0.75,-868.042,104.919,-9.339,
00:00:29:50,0.019,-0.906,0.957,-1180.237,34.057,46.63,
00:00:29:67,0,-0.112,0.933,-1195.008,62.439,-85.206,
00:00:29:83,-0.069,0.209,0.718,-1108.033,68.664,29.541,
00:00:29:100,0.073,-0.343,1.234,-1180.359,50.72,100.28,
00:00:29:117,0.026,0.323,0.963,-1148.499,85.327,20.202,
00:00:29:133,0.034,-0.253,0.895,-1534.729,45.715,39.001,
00:00:29:150,0.038,0.115,0.932,-1995.911,39.428,48.095,
00:00:29:167,-0.018,0.248,0.839,-2000,23.132,-13.184,
00:00:29:183,0.106,-0.075,1.251,-2000,-17.09,24.231,
00:00:29:200,0.112,0.358,1.015,-2000,-17.518,-53.467,
00:00:29:217,0.016,-1.008,1.076,-2000,-31.495,110.351,
00:00:29:233,0.341,-0.207,0.118,-2000,-77.698,-109.986,
00:00:29:250,0.116,1.105,-0.272,-2000,-577.393,-246.949,
00:00:29:267,-0.25,1.886,-0.486,-2000,-523.194,-300.538,
00:00:29:283,0.016,2.256,-0.308,-2000,-531.739,-296.631,
00:00:29:300,-0.355,1.058,-0.031,-1809.571,-87.708,-169.129,
00:00:29:317,0.302,1.411,0.285,-747.925,-32.593,-124.451,
00:00:29:333,0.088,0.986,0.312,-535.889,21.057,-44.861,
00:00:29:350,0.108,1.264,0.314,-439.148,-16.785,-26.856,
00:00:29:367,0.068,1.192,0.309,-16.297,-7.508,5.737,
00:00:29:383,-0.021,1.072,0.352,222.778,11.352,20.629,
00:00:29:400,-0.028,1.122,0.323,469.726,36.682,30.029,
00:00:29:417,-0.048,1.143,0.335,792.968,62.683,41.87,
00:00:29:433,-0.056,1.097,0.364,1204.467,134.277,62.011,
00:00:29:450,0.072,1.232,0.393,1577.27,274.963,-5.005,
00:00:29:467,0.089,1.242,0.315,1999.694,235.595,-83.13,
00:00:29:483,0.013,1.14,0.178,1999.694,244.934,-109.07,
00:00:29:500,0.104,0.983,0.242,1999.694,259.521,-55.176,
00:00:29:517,0.109,0.808,0.272,1999.694,204.956,-68.055,
00:00:29:533,0.123,0.679,0.488,1999.694,92.346,-103.394,
00:00:29:550,0.036,0.515,0.659,1999.694,66.406,-132.874,
00:00:29:567,0.065,0.416,0.777,1999.694,71.35,-153.199,
00:00:29:583,0.095,0.209,0.813,1999.694,48.156,-170.899,
00:00:29:600,0.044,0.006,0.886,1999.694,33.874,-183.777,
00:00:29:617,-0.057,-0.022,0.939,1999.694,88.928,-120.789,
00:00:29:633,-0.004,-0.034,0.891,1999.694,113.708,-30.64,
00:00:29:650,0.099,-0.455,0.934,1999.694,-12.269,-8.362,
00:00:29:667,0.12,-0.512,0.989,1999.694,-77.576,-64.148,
00:00:29:683,0.06,-0.566,0.95,1999.694,-164.673,-47.303,
00:00:29:700,-0.06,-0.666,0.821,1904.907,-180.359,33.325,
00:00:29:717,-0.031,-0.688,0.654,1038.696,-154.541,87.951,
00:00:29:733,0.024,-0.459,0.499,321.106,-203.614,25.634,
00:00:29:750,-0.012,-0.511,0.634,-8.179,-229.554,-4.456,
00:00:29:767,-0.032,-0.753,0.82,-279.419,-158.265,38.696,
00:00:29:783,0.021,-0.754,0.846,-449.83,-99.976,49.133,
00:00:29:800,0.078,-0.462,0.859,-260.376,-147.644,-12.879,
00:00:29:817,-0.006,-0.364,0.84,268.066,-119.446,-22.583,
00:00:29:833,0.01,-0.552,0.763,674.316,-26.368,-32.349,
00:00:29:850,0.039,-0.701,0.64,759.643,-16.724,-31.311,
00:00:29:867,0.019,-0.784,0.58,45.593,-20.203,-40.406,
00:00:29:883,0.031,-0.701,0.678,-64.27,-3.785,-42.359,
00:00:29:900,0.048,-0.642,0.747,-4.761,0.183,-47.12,
00:00:29:917,0.046,-0.644,0.765,116.638,13,-53.284,
00:00:29:933,0.018,-0.703,0.729,182.8,30.517,-44.8,
00:00:29:950,0.023,-0.765,0.665,-219.361,46.569,-65.674,
00:00:29:967,0.037,-0.631,0.701,-177.491,55.603,-69.764,
00:00:29:983,0.003,-0.563,0.697,43.518,85.51,-4.883,
00:00:30:0,0.022,-0.72,0.666,133.178,129.699,76.416,
00:00:30:17,0.078,-0.756,0.747,-18.25,107.91,80.749,
00:00:30:33,0.063,-0.68,0.798,0.183,75.378,14.709,
00:00:30:50,0.034,-0.672,0.836,87.036,78.491,26.855,
00:00:30:67,0.094,-0.716,0.821,129.089,104.004,45.471,
00:00:30:83,0.115,-0.718,0.81,121.032,45.41,-1.893,
00:00:30:100,0.066,-0.732,0.789,161.682,10.681,-19.288,
00:00:30:117,0.057,-0.703,0.757,174.987,18.798,-21.546,
00:00:30:133,0.083,-0.703,0.743,197.082,15.869,-12.33,
00:00:30:150,0.079,-0.751,0.699,180.908,-3.602,-15.748,
00:00:30:167,0.063,-0.757,0.68,124.633,-7.203,-23.194,
00:00:30:183,0.067,-0.734,0.653,92.102,10.315,-20.874,
00:00:30:200,0.085,-0.768,0.631,42.724,13.183,-24.231,
00:00:30:217,0.084,-0.733,0.639,27.771,20.568,-37.842,
00:00:30:233,0.078,-0.676,0.656,80.017,30.212,-32.837,
00:00:30:250,0.059,-0.721,0.67,129.882,39.367,-11.048,
00:00:30:267,0.05,-0.719,0.718,115.844,36.926,-7.447,
00:00:30:283,0.029,-0.658,0.717,165.588,34.851,-6.104,
00:00:30:300,0.023,-0.704,0.724,217.346,42.663,13.671,
00:00:30:317,0.04,-0.714,0.667,252.197,40.222,35.644,
00:00:30:333,0.002,-0.749,0.617,88.073,9.277,85.266,
00:00:30:350,0.04,-0.905,0.68,-51.514,41.137,42.419,
00:00:30:367,0.111,-0.72,0.604,44.921,37.902,-0.611,
00:00:30:383,0.072,-0.849,0.593,156.189,29.48,43.396,
00:00:30:400,0.07,-0.933,0.579,-19.593,46.936,39.917,
00:00:30:417,0.104,-0.985,0.568,-354.126,59.448,26.672,
00:00:30:433,0.056,-0.574,0.783,-26.795,0.549,-19.288,
00:00:30:450,0.102,-0.736,0.735,31.86,46.936,13,
00:00:30:467,0.126,-0.786,0.708,-179.749,17.028,-15.076,
00:00:30:483,0.098,-0.684,0.723,-310.303,-40.65,-56.092,
00:00:30:500,0.046,-0.681,0.744,-332.398,-42.298,-29.419,
00:00:30:517,0.114,-0.724,0.804,-1025.635,49.499,-55.237,
00:00:30:533,0.126,-0.335,0.859,-891.114,-50.354,-79.651,
00:00:30:550,0.066,-0.417,0.845,-670.411,26.428,27.343,
00:00:30:567,0.068,-0.699,0.855,-875.672,64.636,55.969,
00:00:30:583,0.073,-0.692,0.811,-1458.313,45.532,24.414,
00:00:30:600,0.096,-0.067,0.873,-645.997,75.073,97.961,
00:00:30:617,0.144,-0.833,0.863,-843.384,27.465,87.585,
00:00:30:633,0.146,-0.599,0.991,-1412.72,-109.925,-37.964,
00:00:30:650,0.034,0.262,1.03,-1357.605,-96.68,-74.097,
00:00:30:667,0.031,0.282,1.106,-867.31,-14.283,25.207,
00:00:30:683,0.059,-0.111,1.087,-671.692,-6.714,70.373,
00:00:30:700,0.019,-0.377,0.95,-1040.467,-8.362,32.165,
00:00:30:717,0.073,-0.649,0.99,-1420.289,-22.461,-10.315,
00:00:30:733,0.079,0.225,0.836,-1038.392,-1.465,-61.585,
00:00:30:750,0.126,0.456,0.972,-413.758,-8.667,-1.526,
00:00:30:767,0.048,0.095,0.958,-225.953,-51.88,64.697,
00:00:30:783,-0.019,0.056,0.954,-567.322,-13.367,55.419,
00:00:30:800,0.276,0.422,1.046,-1724.549,-108.765,-28.077,
00:00:30:817,0.068,0.789,1.148,-967.286,-294.861,-31.617,
00:00:30:833,-0.176,-0.227,1.078,-1047.303,-262.269,152.465,
00:00:30:850,0.4,-0.175,1.166,-1888.917,-203.675,130.981,
00:00:30:867,0.023,0.463,1.027,-1970.765,-399.476,-64.698,
00:00:30:883,0.087,-0.592,0.903,-2000,-329.102,15.014,
00:00:30:900,0.057,1.296,0.677,-2000,-323.487,-89.112,
00:00:30:917,-0.151,0.115,0.383,-2000,-360.535,-81.055,
00:00:30:933,0.087,1.343,0.481,-2000,-384.4,-14.893,
00:00:30:950,-0.212,0.572,0.387,-1908.387,-287.659,-128.968,
00:00:30:967,0.039,1.317,0.158,-1997.193,-212.952,42.236,
00:00:30:983,-0.293,1.235,0.511,-643.982,-114.502,-118.409,
00:00:31:0,0.099,0.933,0.302,-131.47,-12.879,-83.252,
00:00:31:17,-0.127,0.976,0.513,214.416,50.354,-76.6,
00:00:31:33,-0.063,0.851,0.588,489.624,104.126,-71.534,
00:00:31:50,-0.076,0.854,0.683,672.485,160.644,-66.224,
00:00:31:67,-0.005,0.876,0.7,861.816,217.163,-68.421,
00:00:31:83,0.003,0.885,0.719,1102.905,155.334,-120.362,
00:00:31:100,-0.073,1.226,0.499,1314.819,131.042,-118.226,
00:00:31:117,0.028,1.119,0.739,1763.977,-9.095,-169.739,
00:00:31:133,-0.025,0.995,0.75,1999.694,59.143,-162.415,
00:00:31:150,0.027,0.83,0.577,1999.694,154.785,-109.314,
00:00:31:167,0.112,0.649,0.592,1999.694,83.313,-131.592,
00:00:31:183,0.091,0.313,0.719,1999.694,7.629,-173.401,
00:00:31:200,0.06,0.025,0.793,1999.694,23.132,-161.805,
00:00:31:217,-0.031,-0.15,0.928,1999.694,104.187,-154.786,
00:00:31:233,0.008,-0.361,0.714,1999.694,125.305,-105.042,
00:00:31:250,0.07,-0.508,0.846,1999.694,-147.339,-57.19,
00:00:31:267,-0.062,-0.796,1.019,1975.586,-286.805,-101.807,
00:00:31:283,-0.143,-0.903,1.082,1161.255,-192.322,-60.242,
00:00:31:300,0,-0.593,1.134,507.629,-201.844,-39.246,
00:00:31:317,-0.042,-0.35,1.101,333.068,-232.789,-7.203,
00:00:31:333,-0.078,-0.37,1.02,442.077,-203.125,72.509,
00:00:31:350,-0.031,-0.361,0.947,585.998,-85.877,17.7,
00:00:31:367,-0.042,-0.293,0.841,714.782,-76.294,45.837,
00:00:31:383,-0.068,-0.366,0.736,874.817,-15.015,51.147,
00:00:31:400,-0.067,-0.494,0.681,804.687,21.85,73.242,
00:00:31:417,-0.053,-0.656,0.654,570.129,55.969,18.249,
00:00:31:433,-0.077,-0.637,0.67,330.078,40.588,42.419,
00:00:31:450,0.015,-0.551,0.618,201.538,23.742,136.84,
00:00:31:467,-0.001,-0.724,0.678,113.708,63.232,37.658,
00:00:31:483,-0.027,-0.587,0.75,45.959,46.264,-34.913,
00:00:31:500,-0.041,-0.541,0.785,134.826,58.837,-20.264,
00:00:31:517,-0.028,-0.599,0.771,205.81,82.397,2.99,
00:00:31:533,0.004,-0.622,0.772,223.205,59.692,-6.287,
00:00:31:550,-0.003,-0.643,0.764,165.039,21.179,-9.949,
00:00:31:567,-0.021,-0.639,0.759,106.079,8.117,-27.405,
00:00:31:583,-0.006,-0.601,0.74,74.096,4.577,-18.067,
00:00:31:600,-0.003,-0.621,0.758,77.514,-13.306,-17.334,
00:00:31:617,0.002,-0.655,0.76,40.71,-30.945,-21.912,
00:00:31:633,-0.002,-0.688,0.766,13.244,-39.429,-13.062,
00:00:31:650,0.007,-0.68,0.749,-46.204,-55.298,-15.686,
00:00:31:667,-0.006,-0.614,0.732,-44.922,-82.947,-30.396,
00:00:31:683,-0.034,-0.591,0.768,29.48,-76.355,-31.128,
00:00:31:700,-0.028,-0.627,0.757,106.628,-47.547,-55.787,
00:00:31:717,-0.009,-0.689,0.766,140.625,-29.664,-47.974,
00:00:31:733,-0.008,-0.777,0.793,128.357,-36.011,-4.517,
00:00:31:750,-0.002,-0.763,0.781,103.637,-49.134,10.498,
00:00:31:767,-0.011,-0.681,0.775,177.368,-30.945,28.259,
00:00:31:783,-0.017,-0.691,0.753,317.26,-2.869,51.879,
00:00:31:800,-0.007,-0.69,0.703,326.416,7.019,38.33,
00:00:31:817,-0.009,-0.751,0.686,282.409,17.089,47.119,
00:00:31:833,0,-0.823,0.714,183.96,44.311,80.627,
00:00:31:850,0.025,-0.681,0.659,108.032,15.808,10.986,
00:00:31:867,-0.026,-0.706,0.674,194.152,27.526,26.367,
00:00:31:883,-0.003,-0.805,0.668,147.4,68.054,23.254,
00:00:31:900,0.019,-0.729,0.662,40.771,33.081,-4.09,
00:00:31:917,-0.031,-0.725,0.678,15.258,11.84,-32.837,
00:00:31:933,-0.041,-0.738,0.701,-31.983,33.752,-51.514,
00:00:31:950,-0.015,-0.713,0.706,-16.419,25.878,-78.675,
00:00:31:967,-0.025,-0.754,0.704,34.301,-10.254,-76.294,
00:00:31:983,0.002,-0.728,0.744,54.687,2.136,-66.773,
00:00:32:0,0.02,-0.641,0.723,171.814,7.995,-64.27,
00:00:32:17,-0.002,-0.726,0.696,210.327,8.85,-28.626,
00:00:32:33,0.003,-0.787,0.695,158.081,15.564,-36.377,
00:00:32:50,-0.002,-0.703,0.674,217.956,18.432,-46.875,
00:00:32:67,-0.002,-0.816,0.671,237.854,34.179,-15.564,
00:00:32:83,0.006,-0.87,0.674,152.221,20.263,-11.658,
00:00:32:100,0.008,-0.775,0.671,144.958,26.306,-22.339,
00:00:32:117,0.002,-0.779,0.671,142.578,38.757,-7.325,
00:00:32:133,-0.004,-0.761,0.678,137.695,34.301,-7.63,
00:00:32:150,-0.01,-0.75,0.681,172.607,35.705,10.986,
00:00:32:167,-0.013,-0.725,0.674,190.796,33.752,17.334,
00:00:32:183,-0.019,-0.836,0.661,142.517,42.541,37.109,
00:00:32:200,0.023,-0.843,0.617,48.828,50.231,38.147,
00:00:32:217,-0.016,-0.788,0.565,-142.945,-15.87,54.138,
00:00:32:233,-0.002,-1.001,0.655,-78.919,56.884,-1.893,
00:00:32:250,0.08,-0.704,0.588,24.963,47.485,-15.809,
00:00:32:267,0.009,-0.802,0.641,57.434,40.161,30.517,
00:00:32:283,0.036,-0.786,0.69,-40.65,46.264,26.367,
00:00:32:300,0.015,-0.734,0.71,-142.945,15.136,28.686,
00:00:32:317,-0.061,-0.79,0.659,-434.571,-16.724,68.298,
00:00:32:333,0.012,-0.822,0.682,-194.153,126.159,-15.015,
00:00:32:350,0.028,-0.709,0.686,143.31,47.607,54.199,
00:00:32:367,0.043,-0.807,0.7,14.953,25.512,52.124,
00:00:32:383,0.015,-0.942,0.642,-440.796,-20.752,54.809,
00:00:32:400,0.074,-0.665,0.79,-472.779,35.583,-85.328,
00:00:32:417,0.011,-0.649,0.749,-107.911,-26.185,18.859,
00:00:32:433,0.013,-0.777,0.753,-223.023,-11.17,26.123,
00:00:32:450,0.063,-0.739,0.772,-310.914,29.663,-4.151,
00:00:32:467,0.08,-0.777,0.744,-475.647,19.592,3.051,
00:00:32:483,0.054,-0.744,0.709,-591.614,-16.236,-23.987,
00:00:32:500,0.005,-0.624,0.664,-540.406,-14.405,-28.626,canRH
00:00:32:517,0.054,-0.665,0.743,-519.104,34.484,23.254,
00:00:32:533,0.079,-0.743,0.791,-664.978,25.085,-12.635,
00:00:32:550,0.039,-0.672,0.785,-860.291,13.855,-45.838,
00:00:32:567,-0.002,-0.476,0.709,-967.469,20.507,-42.481,
00:00:32:583,0.026,-0.801,0.848,-1298.523,-25.513,12.146,
00:00:32:600,-0.006,-0.208,0.991,-888.489,28.076,-158.509,
00:00:32:617,0.056,-0.032,0.861,-325.623,147.522,52.307,
00:00:32:633,0.077,-0.673,0.821,-587.586,-19.837,128.662,
00:00:32:650,0.051,-0.643,1.121,-945.862,-83.374,-29.908,
00:00:32:667,0.002,-0.018,1.018,-690.369,20.263,-65.735,
00:00:32:683,0.043,-0.2,1.026,-463.685,18.371,97.045,
00:00:32:700,0.093,-0.501,0.875,-825.684,-15.137,40.71,
00:00:32:717,0.019,-0.419,0.936,-1346.802,-114.93,-1.954,
00:00:32:733,-0.059,0.145,0.946,-955.811,9.521,-90.577,
00:00:32:750,0.043,-0.055,0.835,-663.086,88.195,42.114,
00:00:32:767,0.061,-0.385,0.853,-1018.311,-27.649,57.19,
00:00:32:783,0.101,-0.496,1.157,-1826.844,-161.011,17.15,
00:00:32:800,-0.09,0.529,1.166,-1440.552,21.24,-136.719,
00:00:32:817,-0.165,-0.295,0.987,-1133.79,153.076,103.027,
00:00:32:833,0.215,-1.054,0.824,-2000,68.603,131.225,
00:00:32:850,0.105,0.495,0.774,-2000,-453.736,-88.257,
00:00:32:867,-0.259,-0.177,0.431,-2000,-379.883,-72.51,
00:00:32:883,0.108,1.71,0.867,-2000,-378.785,-201.05,
00:00:32:900,-0.231,-0.119,0.82,-1931.641,-271.973,-3.846,
00:00:32:917,0.246,1.042,0.941,-2000,-323.914,-115.54,
00:00:32:933,-0.122,0.644,0.829,-1428.406,-174.317,-136.719,
00:00:32:950,0.033,0.593,0.634,-1423.584,-180.542,-112.915,
00:00:32:967,-0.044,1.043,0.752,-1514.466,-174.073,-66.346,
00:00:32:983,-0.018,0.825,0.649,-685.547,7.446,-60.547,
00:00:33:0,-0.007,0.865,0.626,-364.441,-2.747,-2.747,
00:00:33:17,-0.016,0.878,0.594,-158.57,51.818,34.057,
00:00:33:33,-0.049,0.832,0.617,7.202,110.351,57.495,
00:00:33:50,-0.025,1.008,0.597,161.865,71.167,36.254,
00:00:33:67,-0.072,0.856,0.694,375.183,113.647,30.334,
00:00:33:83,-0.018,0.913,0.776,561.706,98.571,40.466,
00:00:33:100,-0.002,0.893,0.839,804.626,82.214,45.898,
00:00:33:117,-0.096,0.769,0.609,1000.854,140.38,52.734,
00:00:33:133,0.03,0.803,0.666,1218.872,99.304,34.668,
00:00:33:150,-0.008,0.769,0.684,1562.744,51.818,3.784,
00:00:33:167,-0.016,0.724,0.694,1929.26,51.391,-10.498,
00:00:33:183,-0.002,0.627,0.735,1999.694,64.453,-33.814,
00:00:33:200,-0.045,0.524,0.757,1999.694,77.575,-62.928,
00:00:33:217,0.005,0.273,0.774,1999.694,100.402,-72.083,
00:00:33:233,0.047,0.086,0.859,1999.694,70.922,-64.698,
00:00:33:250,0.023,-0.028,0.875,1999.145,35.827,-64.942,
00:00:33:267,-0.019,-0.043,0.994,1833.74,17.944,-86.365,
00:00:33:283,-0.09,0.074,0.875,1673.584,79.895,-39.368,
00:00:33:300,-0.003,0.088,0.985,1513,36.254,-26.429,
00:00:33:317,-0.009,-0.173,1.087,1402.343,-27.955,-60.181,
00:00:33:334,0.003,-0.39,1.004,871.765,46.936,0.61,
00:00:33:350,0.014,-0.363,0.995,763.672,31.127,4.455,
00:00:33:367,-0.006,-0.25,0.939,827.27,58.105,-27.71,
00:00:33:384,0.011,-0.417,0.824,1199.646,151.916,-130.31,
00:00:33:400,0.026,-0.532,0.716,1241.333,162.597,-113.587,
00:00:33:417,0.02,-0.435,0.568,1066.223,58.349,-159.974,
00:00:33:434,-0.035,-0.649,0.791,879.516,54.199,-111.451,
00:00:33:450,0.044,-0.785,0.947,284.546,16.357,-74.219,
00:00:33:467,-0.033,-0.383,0.973,-28.443,-47.425,-120.118,
00:00:33:484,-0.055,-0.403,1,62.744,29.174,-103.882,
00:00:33:500,-0.018,-0.562,0.974,105.285,38.574,-101.319,
00:00:33:517,-0.045,-0.439,0.919,125.122,25.634,-101.441,
00:00:33:534,-0.037,-0.383,0.854,228.515,48.95,-74.585,
00:00:33:550,-0.018,-0.446,0.818,293.762,2.197,-74.707,
00:00:33:567,-0.049,-0.561,0.843,291.198,7.08,-54.2,
00:00:33:584,-0.002,-0.622,0.83,215.698,14.404,-36.072,
00:00:33:600,-0.036,-0.593,0.819,112.793,-7.569,-7.264,
00:00:33:617,-0.042,-0.546,0.825,113.708,-2.991,9.399,
00:00:33:634,-0.027,-0.524,0.785,161.132,10.803,19.104,
00:00:33:650,-0.028,-0.538,0.799,235.229,15.197,16.235,
00:00:33:667,-0.007,-0.622,0.8,270.324,31.982,19.958,
00:00:33:684,-0.003,-0.656,0.751,204.04,8.972,24.108,
00:00:33:700,-0.008,-0.676,0.76,124.633,15.747,29.113,
00:00:33:717,0.001,-0.674,0.768,63.659,20.629,22.888,
00:00:33:734,0.007,-0.661,0.772,10.009,8.606,20.629,
00:00:33:750,-0.004,-0.627,0.753,0.915,4.821,-3.479,
00:00:33:767,0.027,-0.635,0.774,-20.203,2.014,-3.357,
00:00:33:784,0.014,-0.645,0.789,-46.875,-11.414,-13.184,
00:00:33:800,0.016,-0.64,0.801,-50.171,-11.109,-16.358,
00:00:33:817,0.02,-0.646,0.791,-29.969,-16.236,-11.963,
00:00:33:834,0.008,-0.606,0.789,-13.123,-16.175,-13.733,
00:00:33:850,0.006,-0.626,0.789,53.1,-23.316,-16.297,
00:00:33:867,0.018,-0.652,0.811,45.837,-24.414,-3.907,
00:00:33:884,0.002,-0.637,0.814,22.033,-28.87,-5.921,
00:00:33:900,0.002,-0.609,0.815,11.718,-26.185,-9.339,
00:00:33:917,0.002,-0.644,0.822,12.451,-27.283,-12.574,
00:00:33:934,0.003,-0.622,0.84,-56.824,-37.415,-3.113,
00:00:33:950,-0.006,-0.58,0.847,-47.852,-42.054,-7.325,
00:00:33:967,0.003,-0.582,0.877,7.507,-23.499,-9.888,
00:00:33:984,-0.017,-0.588,0.891,42.114,4.15,-9.644,
00:00:34:0,0.04,-0.635,0.811,27.343,27.282,12.268,
00:00:34:17,0.01,-0.668,0.788,19.104,-6.531,17.7,
00:00:34:34,-0.033,-0.701,0.741,38.696,-5.31,19.775,
00:00:34:50,0.003,-0.646,0.72,-7.508,-10.498,20.996,
00:00:34:67,0.005,-0.659,0.755,-2.625,-11.719,8.239,
00:00:34:84,0.016,-0.692,0.779,-22.034,-6.104,-9.888,
00:00:34:100,0.026,-0.685,0.816,-12.452,1.159,-30.274,
00:00:34:117,0.007,-0.639,0.769,10.009,18.066,-35.645,
00:00:34:134,-0.016,-0.653,0.74,33.63,16.784,-33.57,
00:00:34:150,-0.022,-0.577,0.742,84.533,30.273,-29.602,
00:00:34:167,-0.003,-0.528,0.73,209.167,53.039,-18.067,
00:00:34:184,-0.022,-0.547,0.771,274.963,82.58,5.92,
00:00:34:200,-0.002,-0.519,0.78,262.634,114.929,26.123,
00:00:34:217,-0.037,-0.579,0.786,110.595,100.647,30.09,
00:00:34:234,-0.073,-0.58,0.658,-1.709,111.938,26.367,
00:00:34:250,-0.024,-0.737,0.661,-73.548,161.804,61.462,
00:00:34:267,0.042,-0.764,0.589,-202.027,162.475,67.81,
00:00:34:284,0.025,-1.097,0.608,-496.216,156.311,48.156,
00:00:34:300,0.107,-0.629,0.717,-590.882,159.973,7.263,
00:00:34:317,-0.005,-0.498,0.846,-408.204,82.092,33.508,
00:00:34:334,0.028,-0.845,0.869,-651.368,127.502,38.757,
00:00:34:350,0.121,-0.346,0.963,-740.906,49.865,12.451,
00:00:34:367,0.026,-0.282,0.999,-399.109,78.552,14.526,
00:00:34:384,0.069,-0.462,0.961,-217.102,117.797,32.836,
00:00:34:400,0.113,-0.605,0.908,-225.953,84.289,33.874,
00:00:34:417,0.073,-0.621,0.86,-432.007,26.855,10.009,
00:00:34:434,0.034,-0.817,0.877,-794.678,24.292,-22.889,
00:00:34:450,0.073,-0.365,0.885,-751.831,49.011,-63.172,
00:00:34:467,0.077,-0.22,0.909,-341.736,73.242,-12.818,
00:00:34:484,0.112,-0.379,0.948,-211.548,28.503,23.925,
00:00:34:500,0.049,-0.475,0.996,-429.871,-5.799,43.579,
00:00:34:517,-0.006,-0.419,0.921,-787.537,-16.297,34.118,
00:00:34:534,0.014,-0.566,0.955,-1028.26,-17.151,-27.466,
00:00:34:550,0.023,-0.106,0.952,-613.343,23.498,-122.193,
00:00:34:567,0.082,-0.087,0.919,-177.735,46.142,32.714,
00:00:34:584,-0.023,-0.564,0.951,-649.231,-31.25,42.968,
00:00:34:600,-0.004,-0.125,1.016,-689.637,42.175,-93.079,
00:00:34:617,0.114,-0.16,0.956,-179.261,-18.616,25.573,
00:00:34:634,0.05,-0.421,0.992,-495.24,-93.934,97.961,
00:00:34:650,0.135,-0.463,1.081,-1135.682,-60.547,62.561,
00:00:34:667,0.141,-0.035,1.1,-1232.789,-77.454,-13.306,
00:00:34:684,0.06,0.106,1.001,-981.568,-78.614,31.555,
00:00:34:700,0.092,-0.357,1.054,-1384.461,-123.047,203.308,
00:00:34:717,0.085,0.27,0.991,-1397.889,-59.632,9.765,
00:00:34:734,0.049,0.196,1.1,-1452.942,-112.915,52.246,
00:00:34:750,0.001,-0.542,1.189,-2000,-82.276,259.643,
00:00:34:767,0.112,0.472,1.03,-2000,-43.824,19.287,
00:00:34:784,-0.01,-0.365,0.752,-2000,-150.391,-42.298,
00:00:34:800,0.192,0.414,0.589,-2000,-184.021,-21.912,
00:00:34:817,0.143,0.584,0.745,-2000,-234.803,-18.921,
00:00:34:834,-0.069,0.595,0.217,-2000,-150.147,-84.717,
00:00:34:850,0.083,0.661,0.153,-2000,-324.463,-74.341,
00:00:34:867,0.215,1.519,0.513,-2000,-460.938,-143.433,
00:00:34:884,0.078,1.303,0.214,-2000,-331.055,17.7,
00:00:34:900,-0.115,0.921,0.387,-1571.351,-314.331,-112.793,
00:00:34:917,0.286,1.398,0.048,-1736.695,-173.768,174.865,
00:00:34:934,-0.135,1.242,0.272,-533.936,-141.297,59.875,
00:00:34:950,0.095,1.031,0.061,-273.316,-134.522,121.276,
00:00:34:967,-0.071,1.089,0.122,-134.766,-68.482,116.882,
00:00:34:984,-0.066,1.011,0.146,31.372,-65.247,108.398,
00:00:35:0,-0.065,1.002,0.191,149.536,-17.334,103.149,
00:00:35:17,-0.074,1.024,0.267,318.725,14.221,88.562,
00:00:35:34,-0.088,1.078,0.312,554.26,42.419,75.561,
00:00:35:50,-0.089,1.086,0.383,852.172,77.636,74.218,
00:00:35:67,-0.06,1.166,0.464,1195.739,151.611,49.133,
00:00:35:84,0.041,1.097,0.452,1578.796,91.98,-6.348,
00:00:35:100,-0.089,1.05,0.437,1979.126,139.343,-59.632,
00:00:35:117,-0.028,0.931,0.365,1999.694,204.223,-48.157,
00:00:35:134,0.073,0.7,0.318,1999.694,157.776,-42.786,
00:00:35:150,0.032,0.762,0.423,1999.694,48.645,-44.861,
00:00:35:167,-0.062,0.845,0.58,1999.694,25.94,-94.056,
00:00:35:184,-0.044,0.77,0.694,1999.694,66.772,-91.37,
00:00:35:200,-0.003,0.708,0.746,1999.694,90.21,-118.592,
00:00:35:217,0.001,0.534,0.764,1999.694,78.796,-122.864,
00:00:35:234,-0.032,0.431,0.803,1999.694,83.618,-122.62,
00:00:35:250,-0.088,0.3,0.879,1999.694,109.985,-117.066,
00:00:35:267,-0.095,0.168,0.822,1999.694,209.533,-103.15,
00:00:35:284,-0.042,-0.098,0.733,1999.694,229.797,-83.13,
00:00:35:300,0.037,-0.419,0.799,1999.694,119.69,-65.918,
00:00:35:317,0.014,-0.603,0.896,1999.694,7.995,-50.599,
00:00:35:334,-0.042,-0.67,0.974,1623.657,-26.185,-51.392,
00:00:35:350,-0.053,-0.619,0.984,1017.944,-20.569,-3.418,
00:00:35:367,-0.054,-0.564,0.985,562.683,-53.956,16.662,
00:00:35:384,-0.064,-0.423,0.908,338.989,-69.581,18.249,
00:00:35:400,-0.046,-0.307,0.907,385.131,-61.585,-3.296,
00:00:35:417,-0.04,-0.366,0.869,507.507,-32.471,-1.282,
00:00:35:434,-0.028,-0.49,0.855,568.542,-28.992,19.714,
00:00:35:450,-0.021,-0.544,0.826,507.934,-31.922,55.786,
00:00:35:467,-0.039,-0.558,0.805,430.053,-16.663,98.022,
00:00:35:484,-0.029,-0.52,0.783,319.641,-7.019,77.209,
00:00:35:500,-0.032,-0.451,0.782,319.824,2.99,66.772,
00:00:35:517,-0.007,-0.552,0.83,403.503,29.968,71.899,canRH
00:00:35:534,0.019,-0.667,0.817,318.542,48.767,70.251,
00:00:35:550,0.013,-0.617,0.813,204.895,21.85,43.151,
00:00:35:567,0.005,-0.607,0.772,214.233,42.785,40.222,
00:00:35:584,0.013,-0.623,0.774,225.891,38.391,41.442,
00:00:35:600,0.016,-0.671,0.771,213.806,41.931,26.123,
00:00:35:617,0.017,-0.663,0.73,177.673,28.991,12.268,
