TIMECODE,ACC_X,ACC_Y,ACC_Z,GYR_X,GYR_Y,GYR_Z,ECG_I,ECG_II,ECG_III,TAG
,0.169,0.927,0.688,-463.257,767.883,-442.505,0,0,0,
,0.164,0.918,0.611,-616.15,722.534,-384.034,0,0,0,
,0.102,0.97,0.523,-678.284,701.721,-361.634,0,0,0,
,0.083,1.095,0.658,-326.355,649.17,-320.374,0,0,0,
,0.098,1.088,0.663,-79.163,581.176,-266.907,0,0,0,
,0.067,1.062,0.618,163.452,502.685,-213.562,0,0,0,
,0.041,1.012,0.611,388.488,423.584,-181.153,0,0,0,
,0.019,1.084,0.615,618.042,347.656,-89.966,0,0,0,
,0.012,0.789,0.617,638.305,264.099,-56.58,0,0,0,
,-0.023,0.593,0.712,455.81,238.403,-88.623,0,0,0,
,0.022,0.597,0.747,297.302,221.008,-80.506,0,0,0,
,0.042,0.631,0.731,48.034,176.147,-36.438,0,0,0,
,0.032,0.772,0.711,-106.446,154.48,-20.264,0,0,0,
,0.068,0.814,0.709,-39.307,112.548,10.315,0,0,0,
,-0.042,0.85,0.717,-249.268,32.898,117.981,0,0,0,
,-0.081,0.854,0.709,-237,18.249,162.414,0,0,0,
,-0.143,0.879,0.666,-252.93,13,217.102,0,0,0,
,-0.2,0.942,0.627,-227.723,20.568,254.577,0,0,0,
,-0.231,0.927,0.599,-137.207,39.794,290.405,0,0,0,
,-0.303,0.893,0.487,137.207,127.258,382.324,0,0,0,
,-0.336,0.915,0.464,183.288,167.846,390.075,0,0,0,
,-0.339,0.906,0.468,288.269,233.459,391.845,0,0,0,
,-0.31,0.89,0.473,447.937,297.668,398.193,0,0,0,
,-0.286,0.842,0.507,601.928,340.271,406.616,0,0,0,
,-0.277,0.556,0.565,489.074,472.778,457.275,0,0,0,
,-0.252,0.525,0.6,307.129,492.492,461.12,0,0,0,
,-0.231,0.599,0.683,191.65,502.685,456.726,0,0,0,
,-0.183,0.58,0.674,159.607,497.924,448.303,0,0,0,
,-0.148,0.539,0.714,130.432,446.411,420.044,0,0,0,
,-0.16,0.498,0.737,88.928,390.197,391.418,0,0,0,
,-0.168,0.477,0.749,21.545,346.862,355.774,0,0,0,
,-0.179,0.456,0.731,-107.117,313.72,310.485,0,0,0,
,-0.166,0.446,0.718,-279.236,293.457,257.08,0,0,0,
,-0.13,0.445,0.697,-426.819,280.334,203.003,0,0,0,
,-0.113,0.501,0.651,-509.644,293.029,132.385,0,0,0,
,-0.03,0.593,0.665,-510.01,316.467,60.913,0,0,0,
,0.214,0.602,0.762,-396.668,314.148,-52.185,0,0,0,
,0.269,0.591,0.722,-443.604,296.508,-91.797,0,0,0,
,0.349,0.62,0.715,-495.423,286.499,-78.003,0,0,0,
,0.459,0.628,0.752,-670.655,233.215,-64.942,0,0,0,
,0.497,0.654,0.865,-828.064,169.86,-63.172,0,0,0,
,0.507,0.543,0.81,-950.318,102.6,-65.552,0,0,0,
,0.451,0.787,0.77,-1091.492,46.447,-49.5,0,0,0,
,0.388,0.925,0.578,-931.092,21.362,6.652,0,0,0,
,0.381,0.799,0.528,-712.769,5.004,18.676,0,0,0,
,0.347,0.832,0.387,-545.777,5.676,71.777,0,0,0,
,0.333,0.85,0.442,-351.685,-34.363,95.092,0,0,0,
,0.082,0.9,0.565,-219.056,-149.353,-17.579,0,0,0,
,-0.067,0.988,0.484,-15.686,-180.176,-53.406,0,0,0,
,-0.109,0.942,0.397,202.88,-180.054,-73.975,0,0,0,
,-0.136,0.933,0.361,310.058,-170.044,-107.117,0,0,0,
,-0.128,0.893,0.399,296.875,-114.502,-129.151,0,0,0,
,-0.071,0.852,0.46,298.95,-85.511,-138.855,0,0,0,
,-0.059,0.842,0.531,240.478,-77.698,-146.363,0,0,0,
,0.041,0.929,0.533,263.061,-79.285,-80.079,0,0,0,
,0.083,0.885,0.518,338.134,-90.516,-53.162,0,0,0,
,0.083,0.883,0.533,447.876,-104.554,-33.509,0,0,0,
,0.07,0.85,0.51,581.421,-112.122,-15.259,0,0,0,
,-0.011,0.783,0.515,696.106,-134.644,-17.762,0,0,0,
,-0.086,0.716,0.5,750.122,-126.526,-31.739,0,0,0,
,-0.117,0.662,0.492,728.088,-120.728,-43.946,0,0,0,
,-0.193,0.668,0.529,566.589,-141.236,-42.237,0,0,0,
,-0.261,0.788,0.521,434.753,-115.357,-48.096,0,0,0,
,-0.238,0.823,0.486,404.785,-78.797,-54.932,0,0,0,
,-0.22,0.864,0.511,434.936,-52.918,-51.026,0,0,0,
,-0.215,0.876,0.452,542.236,-2.564,-24.048,0,0,0,
,-0.128,0.857,0.501,760.986,41.931,-32.837,0,0,0,
,-0.063,0.735,0.559,925.293,49.621,-1.526,0,0,0,
,-0.047,0.649,0.696,985.901,67.382,23.986,0,0,0,
,0.018,0.583,0.83,890.747,77.697,43.945,0,0,0,
,0.105,0.598,0.93,873.047,77.88,69.213,0,0,0,
,0.217,0.507,1.002,809.265,46.386,113.464,0,0,0,
,0.27,0.553,1.054,679.016,9.033,150.756,0,0,0,
,0.335,0.551,1.041,607.666,-43.519,185.241,0,0,0,
,0.368,0.603,1.023,622.619,-116.639,215.454,0,0,0,
,0.401,0.729,0.999,725.036,-200.135,257.934,0,0,0,
,0.406,0.729,0.953,843.261,-255.372,329.651,0,0,0,
,0.392,0.592,0.936,913.208,-328.309,394.958,0,0,0,
,0.286,0.439,0.969,863.586,-416.81,443.237,0,0,0,
,0.145,0.336,0.996,642.151,-456.421,477.722,0,0,0,
,0.038,0.279,0.951,371.032,-444.581,489.196,0,0,0,
,-0.07,0.259,0.913,126.037,-438.233,484.924,0,0,0,
,-0.166,0.225,0.864,-81.116,-415.894,479.187,0,0,0,
,-0.242,0.143,0.771,-267.884,-366.578,463.195,0,0,0,
,-0.279,0.105,0.682,-441.468,-295.899,438.598,0,0,0,
,-0.288,0.155,0.617,-536.072,-230.53,408.142,0,0,0,
,-0.334,0.171,0.562,-505.555,-174.744,382.629,0,0,0,
,-0.392,0.155,0.5,-461.304,-91.492,346.923,0,0,0,
,-0.423,0.203,0.5,-377.503,-2.747,307.922,0,0,0,
,-0.471,0.173,0.561,-268.006,53.466,263.427,0,0,0,
,-0.498,0.247,0.698,-301.087,107.666,261.596,0,0,0,
,-0.491,0.317,0.743,-358.643,180.908,240.234,0,0,0,
,-0.822,0.534,0.954,-271.363,403.381,243.164,0,0,0,
,-0.724,0.403,1.025,208.374,544.616,177.246,0,0,0,
,-0.365,0.292,1.053,554.809,477.783,151.855,0,0,0,
,-0.372,0.062,1.06,765.442,333.984,179.748,0,0,0,
,-0.529,-0.025,1.043,722.046,304.931,173.462,0,0,0,
,-0.469,0.06,0.995,673.462,330.139,142.395,0,0,0,
,-0.424,-0.005,0.985,762.451,288.391,116.455,0,0,0,
,-0.386,-0.189,1.086,783.203,239.99,80.749,0,0,0,
,-0.33,-0.195,1.165,574.096,211.609,66.65,0,0,0,
,-0.316,-0.091,1.17,334.961,169.372,54.138,0,0,0,
,-0.276,-0.055,1.192,27.648,123.108,43.762,0,0,0,
,-0.266,0.121,1.108,-371.582,84.289,32.714,0,0,0,
,-0.334,0.229,1.047,-452.515,32.165,18.188,0,0,0,
,-0.34,0.233,1.056,-414.856,-21.058,2.075,0,0,0,
,-0.306,0.238,1.053,-429.749,-54.81,47.485,0,0,0,
,-0.3,0.346,0.968,-428.101,-87.586,77.27,0,0,0,
,-0.299,0.448,0.789,66.589,-89.783,94.787,0,0,0,
,-0.256,0.293,0.787,445.739,-75.44,72.326,0,0,0,
,-0.198,-0.046,0.816,695.495,5.432,90.515,0,0,0,
,-0.221,0.019,0.901,506.958,14.709,97.351,0,0,0,
,-0.283,0.111,0.938,305.236,65.307,94.726,0,0,0,
,-0.238,0.182,0.942,178.711,114.868,66.589,0,0,0,
,-0.175,0.277,0.979,169.372,120.605,52.551,0,0,0,
,-0.192,0.329,1.019,330.627,94.055,74.34,0,0,0,
,-0.173,0.367,1.018,628.112,49.194,93.078,0,0,0,
,-0.238,-0.196,0.925,504.882,22.461,122.619,0,0,0,
,-0.236,-0.178,0.954,216.125,57.495,120.239,0,0,0,
,-0.28,-0.087,0.97,17.334,81.115,129.089,0,0,0,
,-0.232,0.117,1.032,3.356,71.716,175.781,0,0,0,
,-0.182,0.123,1.131,151.611,67.688,189.331,0,0,0,
,-0.099,-0.11,1.19,215.881,15.258,166.992,0,0,0,
,-0.073,-0.006,1.195,329.162,-23.194,72.57,0,0,0,
,-0.043,-0.37,1.121,532.226,-95.704,-51.026,0,0,0,
,-0.075,-0.676,0.991,194.458,-89.234,-169.19,0,0,0,
,-0.101,-0.358,1.077,-276.185,-62.745,-193.848,0,0,0,
,-0.025,-0.148,1.101,-560.852,-81.91,-239.563,0,0,0,
,-0.113,0.046,1.065,-644.41,-138.489,-259.095,0,0,0,
,-0.096,0.128,0.973,-552.979,-175.477,-249.756,0,0,0,
,-0.105,0.181,0.936,-466.004,-211.609,-227.845,0,0,0,
,-0.141,0.145,0.918,-409.668,-238.404,-232.789,0,0,0,
,-0.202,0.144,0.883,-311.036,-253.479,-236.39,0,0,0,
,-0.162,0.299,0.908,-157.105,-240.418,-226.807,0,0,0,
,-0.178,0.154,0.884,-48.951,-263.306,-272.034,0,0,0,
,-0.274,0.073,0.956,-72.327,-270.264,-320.191,0,0,0,
,-0.289,0.037,0.924,-132.203,-256.836,-367.432,0,0,0,
,-0.304,0.084,0.927,-147.644,-256.165,-402.039,0,0,0,
,-0.312,0.061,0.899,-133.118,-270.325,-441.04,0,0,0,
,-0.368,0.12,0.903,-125.916,-284.729,-474.366,0,0,0,
,-0.374,0.128,0.894,-76.355,-297.73,-499.878,0,0,0,
,-0.393,0.076,0.876,-41.993,-317.078,-524.109,0,0,0,
,-0.429,0.054,0.876,-41.199,-328.492,-549.317,0,0,0,
,-0.445,0.052,0.861,-66.773,-333.985,-578.37,0,0,0,
,-0.446,0.117,0.861,-68.848,-348.206,-598.206,0,0,0,
,-0.449,0.134,0.822,-60.425,-362.854,-630.616,0,0,0,
,-0.465,0.164,0.784,-62.806,-359.314,-648.926,0,0,0,
,-0.472,0.208,0.797,-46.509,-341.309,-653.809,0,0,0,
,-0.478,0.252,0.839,12.39,-339.173,-643.311,0,0,0,
,-0.502,0.209,0.884,127.746,-347.474,-618.103,0,0,0,
,-0.514,0.142,0.846,154.48,-330.262,-570.069,0,0,0,
,-0.54,0.119,0.798,40.466,-294.129,-505.433,0,0,0,
,-0.582,0.196,0.771,-71.534,-229.493,-439.148,0,0,0,
,-0.617,0.173,0.726,-61.463,-149.72,-395.997,0,0,0,
,-0.591,0.182,0.696,-126.954,-67.566,-341.553,0,0,0,
,-0.582,0.281,0.731,-149.537,-18.738,-297.73,0,0,0,
,-0.597,0.362,0.762,-48.279,39.917,-222.107,0,0,0,
,-0.518,0.336,0.72,25.817,85.998,-169.617,0,0,0,
,-0.501,0.405,0.725,129.76,131.164,-124.146,0,0,0,
,-0.473,0.349,0.769,269.836,165.283,-85.755,0,0,0,
,-0.445,0.215,0.781,301.88,198.73,-44.922,0,0,0,
,-0.433,0.193,0.821,218.017,219.909,-1.893,0,0,0,
,-0.415,0.162,0.877,178.039,226.684,19.592,0,0,0,
,-0.4,0.074,0.912,124.694,200.195,1.892,0,0,0,
,-0.434,0.104,0.918,112.426,207.214,-41.626,0,0,0,
,-0.389,-0.056,1.018,75.927,171.447,-111.329,0,0,0,
,-0.39,0.131,1.026,88.989,130.493,-125.855,0,0,0,
,-0.374,0.125,1.003,125.671,86.547,-162.72,0,0,0,
,-0.4,0.153,1.046,65.307,73.486,-178.223,0,0,0,
,-0.368,0.227,1.09,1.831,92.895,-159.485,0,0,0,
,-0.304,0.219,1.042,-95.093,73.181,-126.587,0,0,0,
,-0.337,0.201,0.956,-184.082,50.842,-94.91,0,0,0,
,-0.336,0.191,0.952,-385.926,38.513,-54.261,0,0,0,
,-0.385,0.395,0.868,-433.96,69.03,-60.608,0,0,0,
,-0.392,0.32,0.825,-273.682,79.467,-55.909,0,0,0,
,-0.373,0.303,0.916,-199.158,82.58,-25.391,0,0,0,
,-0.466,0.529,0.944,-14.283,65.002,60.058,0,0,0,
,-0.394,0.166,0.945,193.969,17.761,-47.913,0,0,0,
,-0.375,-0.059,0.983,7.019,-5.738,-72.693,0,0,0,
,-0.395,0.079,0.979,-248.23,4.455,-63.355,0,0,0,
,-0.337,0.129,0.992,-365.113,-27.405,-80.079,0,0,0,
,-0.36,0.216,1.032,-520.264,-73.182,-75.44,0,0,0,
,-0.358,0.412,1,-563.965,-80.262,-83.252,0,0,0,
,-0.309,0.375,0.887,-531.434,-105.774,-84.595,0,0,0,
,-0.332,0.505,0.772,-383.423,-116.761,-80.262,0,0,0,
,-0.327,0.454,0.725,-230.835,-107.727,-81.604,0,0,0,
,-0.348,0.431,0.769,-140.87,-98.999,-80.079,0,0,0,
,-0.361,0.388,0.789,-141.114,-76.111,-84.717,0,0,0,
,-0.365,0.41,0.75,-137.269,-53.406,-79.712,0,0,0,
,-0.4,0.4,0.754,-98.206,-39.978,-86.426,0,0,0,
,-0.346,0.417,0.835,-63.294,-24.72,-82.398,0,0,0,
,-0.373,0.409,0.902,-23.499,-32.105,-75.379,0,0,0,
,-0.402,0.415,0.925,-48.89,-23.987,-49.866,0,0,0,
,-0.368,0.437,0.957,-17.029,-31.006,-19.532,0,0,0,
,-0.344,0.412,0.983,78.979,-50.415,9.46,0,0,0,
,-0.386,0.38,0.943,198.791,-80.018,52.795,0,0,0,
,-0.406,0.331,0.872,272.705,-88.379,57.495,0,0,0,
,-0.459,0.282,0.765,234.985,-77.515,90.087,0,0,0,
,-0.461,0.285,0.778,102.6,-47.852,105.285,0,0,0,
,-0.466,0.351,0.788,-21.241,-8.179,87.402,0,0,0,
,-0.438,0.295,0.793,-133.667,26.184,89.599,0,0,0,
,-0.361,0.536,0.79,-191.956,62.377,66.467,0,0,0,
,-0.336,0.291,0.94,-216.248,-2.564,22.094,0,0,0,
,-0.379,0.3,0.898,-375.489,15.075,9.033,0,0,0,
,-0.32,0.358,0.759,-550.171,60.546,-36.194,0,0,0,
,-0.307,0.405,0.756,-719.056,55.419,-71.961,0,0,0,
,-0.328,0.457,0.702,-721.314,63.354,-99.366,0,0,0,
,-0.308,0.475,0.696,-739.808,52.49,-98.511,0,0,0,
,-0.333,0.526,0.735,-784.913,33.752,-117.371,0,0,0,
,-0.37,0.638,0.83,-827.088,3.234,-118.836,0,0,0,
,-0.36,0.646,0.848,-867.981,-44.434,-114.014,0,0,0,
,-0.365,0.703,0.784,-824.28,-102.112,-107.178,0,0,0,
,-0.37,0.672,0.731,-786.622,-180.237,-79.224,0,0,0,
,-0.453,0.695,0.669,-771.485,-235.474,-60.303,0,0,0,
,-0.473,0.729,0.651,-710.633,-266.724,-44.373,0,0,0,
,-0.468,0.769,0.647,-594.666,-312.867,-24.964,0,0,0,
,-0.464,0.705,0.597,-460.999,-343.201,-5.738,0,0,0,
,-0.452,0.698,0.519,-432.435,-375.306,-0.55,0,0,0,
,-0.477,0.667,0.437,-482.483,-390.015,5.371,0,0,0,
,-0.481,0.585,0.424,-634.4,-404.908,20.874,0,0,0,
,-0.521,0.699,0.378,-812.5,-405.457,41.137,0,0,0,
,-0.585,0.907,0.201,-792.969,-366.517,75.866,0,0,0,
,-0.591,0.607,0.249,-934.388,-365.967,56.274,0,0,0,
,-0.61,0.765,0.175,-911.194,-307.74,65.002,0,0,0,
,-0.603,0.876,0.073,-631.592,-266.724,63.842,0,0,0,
,-0.638,0.927,0.031,-292.725,-178.956,41.809,0,0,0,
,-0.608,0.875,0.027,57.434,-116.578,32.47,0,0,0,
,-0.579,0.837,0.082,303.283,-34.241,42.968,0,0,0,
,-0.497,0.774,0.12,505.493,47.058,28.015,0,0,0,
,-0.473,0.705,0.204,654.846,113.098,-7.996,0,0,0,
,-0.391,0.723,0.323,739.318,176.696,-23.987,0,0,0,
,-0.369,0.826,0.394,878.051,226.806,-25.818,0,0,0,
,-0.37,0.833,0.434,1072.509,279.968,-37.049,0,0,0,
,-0.347,0.802,0.226,1281.25,320.495,-63.416,0,0,0,
,-0.18,0.988,1.009,1512.512,183.41,29.174,0,0,0,
,-0.393,0.618,0.739,1754.455,118.957,-29.969,0,0,0,
,-0.38,0.427,0.82,1669.555,18.432,2.563,0,0,0,
,-0.378,0.114,0.973,1026.062,63.293,-2.198,0,0,0,
,-0.47,0.017,0.943,313.293,35.339,23.193,0,0,0,
,-0.476,0.078,0.922,-141.602,49.621,37.597,0,0,0,
,-0.498,0.25,1.037,-509.034,26.611,75.988,0,0,0,
,-0.486,0.15,1.113,-497.986,-51.697,8.728,0,0,0,
,-0.377,0.23,0.973,-421.753,-166.871,28.93,0,0,0,
,-0.559,0.397,0.776,-503.663,-205.567,38.391,0,0,0,
,-0.594,0.403,0.634,-525.452,-168.396,13.305,0,0,0,
,-0.526,0.54,0.708,-723.206,-136.17,40.344,0,0,0,
,-0.518,0.712,0.633,-839.295,-102.845,68.054,0,0,0,
,-0.55,0.833,0.537,-803.528,-67.688,83.19,0,0,0,
,-0.533,0.734,0.464,-619.568,-22.583,81.909,0,0,0,
,-0.521,0.754,0.416,-503.724,19.165,87.707,0,0,0,
,-0.547,0.671,0.275,-358.826,82.397,39.306,0,0,0,
,-0.522,0.395,0.227,-374.268,147.338,-4.029,0,0,0,
,-0.511,0.441,0.476,-540.589,142.822,16.906,0,0,0,
,-0.581,0.723,0.473,-708.069,160.644,6.103,0,0,0,
,-0.529,0.84,0.581,-376.587,111.023,-16.785,0,0,0,
,-0.388,0.658,0.795,-104.248,12.573,-41.443,0,0,0,
,-0.495,0.592,0.781,18.676,-111.329,-89.478,0,0,0,
,-0.586,0.597,0.658,50.109,-168.335,-131.958,0,0,0,
,-0.612,0.59,0.572,22.216,-192.749,-127.015,0,0,0,
,-0.595,0.603,0.514,-90.21,-180.726,-131.043,0,0,0,
,-0.646,0.557,0.365,-273.926,-128.174,-124.451,0,0,0,
,-0.606,0.455,0.362,-558.045,-59.205,-117.554,0,0,0,
,-0.527,0.452,0.44,-859.864,-24.537,-108.216,0,0,0,
,-0.519,0.56,0.441,-1058.106,-1.16,-114.563,0,0,0,
,-0.512,0.694,0.33,-1171.265,28.259,-114.075,0,0,0,
,-0.517,0.77,0.312,-1202.271,55.847,-146.241,0,0,0,
,-0.427,0.872,0.275,-1199.402,66.528,-166.138,0,0,0,
,-0.411,0.847,0.304,-1083.619,61.462,-218.079,0,0,0,
,-0.373,0.787,0.209,-921.57,63.171,-203.125,0,0,0,
,-0.399,0.874,0.104,-677.124,24.902,-224.976,0,0,0,
,-0.38,0.877,0.254,-339.295,-39.612,-164.551,0,0,0,
,-0.441,0.886,0.34,-174.439,-63.66,-126.465,0,0,0,
,-0.491,1.067,0.458,156.433,-143.006,-74.036,0,0,0,
,-0.555,0.998,0.477,98.938,-158.753,-32.349,0,0,0,
,-0.514,0.797,0.446,-71.473,-193.116,-18.921,0,0,0,
,-0.351,0.774,0.195,-357.789,-173.829,25.94,0,0,0,
,-0.248,1.166,0.282,-410.035,-85.572,102.844,0,0,0,
,-0.368,0.958,0.054,71.594,45.959,104.248,0,0,0,
,-0.501,0.985,-0.141,333.13,162.78,114.38,0,0,0,
,-0.47,0.854,0.046,430.603,257.202,154.174,0,0,0,
,-0.554,1.019,0.221,421.508,279.235,142.456,0,0,0,
,-0.491,0.864,0.377,531.189,227.05,158.02,0,0,0,
,-0.37,0.854,0.562,595.398,134.948,168.457,0,0,0,
,-0.435,0.623,0.486,713.745,60.241,130.798,0,0,0,
,-0.555,0.471,0.439,624.267,-12.94,40.344,0,0,0,
,-0.61,0.291,0.371,321.533,-49.195,-59.388,0,0,0,
,-0.54,0.354,0.498,-93.323,-117.554,-159.485,0,0,0,
,-0.506,0.642,0.571,-471.497,-209.595,-191.04,0,0,0,
,-0.614,0.881,0.465,-595.276,-281.8,-225.403,0,0,0,
,-0.477,0.902,0.177,-411.805,-308.533,-209.412,0,0,0,
,-0.524,1.092,0.063,-139.405,-256.653,-108.033,0,0,0,
,-0.429,1.044,0.086,15.869,-198.426,-37.232,0,0,0,
,-0.494,0.537,0.145,19.409,-167.664,-35.218,0,0,0,
,-0.385,0.53,0.35,-15.198,-102.784,-111.329,0,0,0,
,-0.504,0.168,0.49,-286.683,-131.409,-105.042,0,0,0,
,-0.494,1.348,0.405,-709.107,-130.066,-62.012,0,0,0,
,-0.555,0.843,0.168,-735.84,-135.376,-47.791,0,0,0,
,-0.594,1.19,0.162,-571.778,-96.314,5.188,0,0,0,
,-0.557,1.053,0.112,109.741,-78.736,40.771,0,0,0,
,-0.526,0.675,0.031,406.738,-48.157,65.063,0,0,0,
,-0.484,0.979,0.072,164.123,-52.002,78.979,0,0,0,
,-0.584,0.998,0.122,-142.64,-44.983,74.707,0,0,0,
,-0.478,0.8,0.238,-242.859,-44.739,68.786,0,0,0,
,-0.48,0.992,0.071,-200.867,-38.208,59.936,0,0,0,
,-0.475,0.875,0.155,38.33,-18.006,82.885,0,0,0,
,-0.502,0.782,0.054,227.722,-7.386,80.688,0,0,0,
,-0.588,0.634,0.26,139.465,-9.766,41.198,0,0,0,
,-0.587,0.649,0.237,8.911,15.258,-12.635,0,0,0,
,-0.547,0.535,0.182,-14.71,45.776,-98.938,0,0,0,
,-0.461,0.609,0.116,-47.73,84.106,-173.401,0,0,0,
,-0.435,0.58,-0.042,-114.319,117.553,-200.44,0,0,0,
,-0.387,0.619,0.014,-288.331,152.588,-208.985,0,0,0,
,-0.36,1.183,0.369,-444.275,189.392,-149.414,0,0,0,
,-0.397,1.003,0.344,-243.226,196.777,-144.165,0,0,0,
,-0.349,1.472,0.286,348.449,205.017,-163.697,0,0,0,
,-0.642,1.063,0.158,456.482,190.185,-224.06,0,0,0,
,-0.598,0.955,0.133,245.727,171.447,-241.944,0,0,0,
,-0.596,0.515,0.373,422.546,52.612,-309.937,0,0,0,
,-0.631,0.728,0.036,744.69,79.467,-53.162,0,0,0,
,-0.506,0.83,0.023,961.059,21.057,-53.528,0,0,0,
,-0.382,0.557,0.674,976.867,-32.532,-12.879,0,0,0,
,-0.365,0.62,0.761,631.347,-81.116,14.099,0,0,0,
,-0.315,0.914,0.823,105.468,-123.414,60.546,0,0,0,
,-0.397,0.843,0.515,-120.179,-177.918,85.144,0,0,0,
,-0.488,0.739,0.266,-420.777,-153.748,100.341,0,0,0,
,-0.393,0.947,0.301,-412.659,-97.84,127.868,0,0,0,
,-0.358,0.945,0.285,-286.622,-80.506,158.02,0,0,0,
,-0.388,1.042,0.223,-165.223,-57.312,222.229,0,0,0,
,-0.249,0.968,0.279,312.317,-100.342,50.354,0,0,0,
,-0.514,0.754,0.134,640.564,-102.356,185.669,0,0,0,
,-0.476,0.911,0.319,421.081,-14.527,160.156,0,0,0,
,-0.403,0.928,0.302,851.684,-12.207,56.457,0,0,0,
,-0.428,0.842,0.303,1330.749,-43.946,92.956,0,0,0,
,-0.455,0.923,0.35,1599.548,3.173,124.45,0,0,0,
,-0.448,0.789,0.376,1791.626,20.385,126.22,0,0,0,
,-0.592,0.645,0.416,1867.92,33.081,161.987,0,0,0,
,-0.747,0.513,0.408,1666.992,131.897,231.933,0,0,0,
,-0.814,0.609,0.488,1419.677,291.748,288.208,0,0,0,
,-0.842,0.549,0.523,1364.013,429.809,371.521,0,0,0,
,-0.887,0.563,0.493,1490.417,613.281,501.281,0,0,0,
,-0.902,0.649,0.395,1759.826,756.469,645.08,0,0,0,
,-0.831,0.462,0.393,1967.224,856.201,754.76,0,0,0,
,-0.722,0.457,0.455,1999.694,910.217,856.811,0,0,0,
,-0.637,0.001,0.426,1999.694,910.4,925.903,0,0,0,
,-0.517,-0.129,0.164,1999.694,938.049,1033.081,0,0,0,
,-0.355,-0.493,0.658,1999.694,816.772,823.425,0,0,0,
,-0.408,-0.884,0.97,1999.694,668.945,699.829,0,0,0,
,-0.386,-0.766,1.135,1902.588,579.895,500.488,0,0,0,
,-0.262,-0.299,0.942,1695.678,421.203,423.767,0,0,0,
,-0.292,-0.867,0.909,1540.771,237.426,316.65,0,0,0,
,-0.391,-0.549,0.898,917.724,241.333,279.846,0,0,0,
,-0.01,-0.474,1.371,503.296,199.035,280.517,0,0,0,
,0.051,0.091,0.78,492.126,226.44,229.614,0,0,0,
,-0.123,-0.711,0.655,425.72,208.557,147.583,0,0,0,
,-0.087,-0.557,0.667,216.797,288.269,-28.199,0,0,0,
,-0.116,-0.456,0.739,112.548,253.296,-148.926,0,0,0,
,0.048,-0.58,0.769,104.675,255.493,-263.245,0,0,0,
,0.107,-0.646,1.108,-168.152,98.816,-272.339,0,0,0,
,0.091,-0.136,0.815,-230.164,81.787,-196.961,0,0,0,
,-0.04,-0.323,0.877,-381.531,21.118,-174.744,0,0,0,
,-0.125,-0.448,0.891,-528.87,19.47,-264.1,0,0,0,
,-0.179,-0.498,1.014,-828.186,-13.001,-271.119,0,0,0,
,-0.213,-0.428,1.193,-1151.673,-108.887,-306.824,0,0,0,
,-0.239,-0.271,1.181,-1511.78,-217.469,-336.548,0,0,0,
,-0.34,-0.276,1.113,-1763.001,-347.779,-382.386,0,0,0,
,-0.433,-0.546,0.821,-1973.267,-380.066,-385.56,0,0,0,
,-0.437,-0.113,0.604,-2000,-366.394,-357.117,0,0,0,
,-0.386,0.258,0.724,-1804.2,-407.349,-356.507,0,0,0,
,-0.377,0.222,0.902,-1302.43,-505.188,-283.875,0,0,0,
,-0.487,0.298,0.958,-966.614,-554.139,-241.089,0,0,0,
,-0.564,0.134,0.914,-725.708,-587.403,-228.333,0,0,0,
,-0.664,0.246,0.714,-591.37,-531.556,-196.717,0,0,0,
,-0.615,0.221,0.617,-531.311,-473.938,-169.495,0,0,0,
,-0.461,0.146,0.701,-431.336,-366.028,-66.285,0,0,0,
,-0.302,-0.033,0.75,-672.181,-310.059,94.909,0,0,0,
,-0.311,-0.327,1.027,-1208.008,-252.808,205.749,0,0,0,
,-0.455,0.085,1.049,-1783.875,-103.882,159.423,0,0,0,
,-0.042,0.166,1.227,-1423.096,-144.837,91.43,0,0,0,
,-0.185,-0.233,1.292,-1548.951,-301.514,-8.851,0,0,0,
,-0.21,-0.283,1.343,-1953.614,-287.476,-116.333,0,0,0,
,-0.204,0.001,1.148,-2000,-319.764,-147.278,0,0,0,
,-0.242,0.206,0.901,-2000,-392.518,-172.913,0,0,0,
,-0.345,0.168,0.55,-2000,-484.314,-163.453,0,0,0,
,-0.617,0.578,0.178,-2000,-465.088,-186.28,0,0,0,
,-0.752,1.131,-0.12,-2000,-376.038,-184.754,0,0,0,
,-1.085,1.148,-0.271,-1101.502,-65.979,-167.725,0,0,0,
,-1.081,1.118,-0.122,-289.49,30.944,-106.202,0,0,0,
,-0.878,0.821,0.236,496.704,81.787,-111.451,0,0,0,
,-0.701,0.413,0.42,835.022,40.527,-206.727,0,0,0,
,-0.591,0.24,0.423,667.968,51.574,-246.766,0,0,0,
,-0.406,0.372,0.221,103.393,96.313,-220.459,0,0,0,
,-0.464,0.72,-0.03,-497.01,199.646,-230.713,0,0,0,
,-0.355,1.027,-0.136,-850.769,333.74,-238.404,0,0,0,
,-0.351,1.008,-0.233,-1066.529,450.012,-254.7,0,0,0,
,-0.047,1.326,0.397,-940.491,371.887,-267.151,0,0,0,
,0.056,0.959,0.596,-709.9,243.835,-113.648,0,0,0,
,-0.162,1.145,-0.026,-289.368,186.767,-126.343,0,0,0,
,-0.475,0.911,-0.17,91.919,179.87,-32.593,0,0,0,
,-0.416,0.929,-0.128,-65.43,241.211,-36.866,0,0,0,
,-0.439,1.048,0,-231.629,296.997,-8.484,0,0,0,
,-0.465,0.846,-0.024,-352.234,353.21,-7.203,0,0,0,
,-0.362,0.756,0.064,-455.018,375.427,-21.607,0,0,0,
,-0.362,0.845,0.045,-384.278,361.511,-18.555,0,0,0,
,-0.385,1.001,0.045,-125.672,352.661,3.601,0,0,0,
,-0.433,1.059,0.106,31.127,330.383,61.523,0,0,0,
,-0.511,0.878,0.11,62.439,301.88,122.192,0,0,0,
,-0.535,0.861,0.207,54.26,266.357,150.268,0,0,0,
,-0.58,0.867,0.103,40.405,253.112,164.611,0,0,0,
,-0.503,0.911,0.311,165.527,226.379,178.588,0,0,0,
,-0.429,0.82,0.419,284.851,159.362,214.355,0,0,0,
,-0.459,0.537,0.52,101.379,84.045,176.818,0,0,0,
,-0.432,0.66,0.514,-168.58,-17.762,111.206,0,0,0,
,-0.491,0.691,0.302,-139.771,-46.387,70.556,0,0,0,
,-0.553,0.87,0.05,-47.852,-6.531,6.958,0,0,0,
,-0.513,0.896,0.136,174.499,20.874,-32.349,0,0,0,
,-0.496,0.926,0.175,122.924,6.164,22.766,0,0,0,
,-0.457,1.119,0.098,260.131,20.874,88.989,0,0,0,
,-0.457,0.948,-0.026,268.615,81.665,89.599,0,0,0,
,-0.528,0.721,-0.156,-33.997,174.682,29.663,0,0,0,
,-0.543,0.896,0.062,266.784,231.018,12.695,0,0,0,
,-0.476,0.897,0.227,392.273,244.934,46.203,0,0,0,
,-0.534,0.692,0.313,482.971,250.549,38.94,0,0,0,
,-0.554,0.676,0.283,430.725,240.356,22.216,0,0,0,
,-0.64,0.783,0.398,320.922,182.006,5.493,0,0,0,
,-0.826,0.576,0.211,106.628,85.083,18.493,0,0,0,
,-0.803,1.011,0.014,155.883,35.095,112.243,0,0,0,
,-0.192,0.405,0.579,1104.126,-35.157,205.017,0,0,0,
,-0.368,0.258,0.908,666.076,-120.484,103.149,0,0,0,
,-0.583,0.326,0.942,104.553,-211.426,2.685,0,0,0,
,-0.667,0.388,0.762,-205.567,-236.023,-38.758,0,0,0,
,-0.633,0.623,0.444,-321.167,-316.407,9.643,0,0,0,
,-0.63,0.823,0.343,-289.917,-314.209,-12.757,0,0,0,
,-0.407,0.839,0.172,-251.282,-231.385,-23.011,0,0,0,
,-0.047,0.996,0.115,-249.512,-35.584,-69.764,0,0,0,
,0.026,0.926,0.158,-161.255,158.996,-158.509,0,0,0,
,-0.113,0.805,0.298,-77.881,284.973,-214.173,0,0,0,
,-0.313,0.718,0.489,-107.789,338.745,-263.428,0,0,0,
,-0.464,0.822,0.571,-123.841,334.045,-307.312,0,0,0,
,-0.432,0.848,0.541,-207.642,313.476,-285.096,0,0,0,
,-0.351,0.767,0.189,-520.569,206.97,-274.598,0,0,0,
,-0.599,1.079,0.041,-420.166,171.875,-249.573,0,0,0,
,-0.647,0.963,0.084,-78.797,144.165,-233.46,0,0,0,
,-0.497,0.897,0.286,137.634,88.989,-205.811,0,0,0,
,-0.435,0.918,0.577,138.061,15.625,-208.252,0,0,0,
,-0.401,0.282,1.47,-120.179,-172.059,-360.23,0,0,0,
,-0.442,0.474,0.322,-251.77,-412.964,-271.485,0,0,0,
,-0.5,1.41,-0.156,11.23,-424.988,-124.268,0,0,0,
,-0.68,1.086,-0.219,48.156,-306.824,-159.424,0,0,0,
,-0.351,1.111,-0.029,29.846,-247.925,-169.434,0,0,0,
,-0.275,1.137,0.295,189.087,-203.309,-143.311,0,0,0,
,-0.229,1.148,0.509,417.114,-191.346,-185.73,0,0,0,
,-0.158,1.076,0.82,1136.352,-300.721,-302.185,0,0,0,
,-0.051,0.877,0.96,1873.657,-414.002,-312.378,0,0,0,
,0.013,0.118,0.651,1999.694,-710.633,-502.32,0,0,0,
,-0.045,0.249,0.588,1767.334,-700.867,-661.866,0,0,0,
,-0.023,0.283,0.648,1437.561,-665.039,-907.288,0,0,0,
,0.048,0.394,0.623,1093.811,-645.691,-1073.243,0,0,0,
,-0.136,0.676,0.483,1497.924,-587.891,-1309.937,0,0,0,
,-0.341,0.632,0.304,1441.528,-488.892,-1271.729,0,0,0,
,-0.485,0.592,0.13,1036.071,-273.499,-1253.602,0,0,0,
,-0.418,0.608,0.053,566.955,-16.846,-1222.046,0,0,0,
,-0.263,0.866,0.25,346.008,87.341,-1109.009,0,0,0,
,-0.263,1.194,0.577,326.049,84.594,-960.083,0,0,0,
,-0.128,1.388,0.744,298.462,106.994,-748.841,0,0,0,
,-0.054,1.198,0.792,166.32,32.959,-556.275,0,0,0,
,-0.2,1.061,0.727,-67.444,21.118,-401.49,0,0,0,
,-0.266,0.902,0.609,-291.199,54.138,-272.156,0,0,0,
,-0.293,1.12,0.749,274.109,85.754,-123.291,0,0,0,
,-0.264,0.52,0.781,528.259,72.326,-100.769,0,0,0,
,-0.242,0.411,0.823,466.064,104.919,-132.752,0,0,0,
,-0.196,0.365,0.885,435.73,90.148,-195.74,0,0,0,
,-0.15,0.241,0.923,362.365,97.473,-252.747,0,0,0,
,-0.072,0.277,0.899,302.551,112.304,-256.104,0,0,0,
,0.217,0.861,1.267,205.627,103.82,-195.435,0,0,0,
,0.244,0.989,1.256,149.597,33.63,-62.012,0,0,0,
,0.112,0.977,1.102,208.801,19.653,19.653,0,0,0,
,0.044,0.737,0.961,431.823,7.507,76.721,0,0,0,
,-0.055,0.445,0.828,419.616,4.943,117.981,0,0,0,
,-0.095,0.517,0.624,306.884,122.497,133.667,0,0,0,
,-0.032,0.6,0.713,594.116,103.149,107.238,0,0,0,
,0.027,0.317,0.795,688.049,103.942,89.355,0,0,0,
,0.074,0.431,0.887,556.457,96.801,91.613,0,0,0,
,0.164,0.519,0.91,398.071,104.919,133.117,0,0,0,
,0.345,0.565,0.974,42.114,68.969,242.248,0,0,0,
,0.427,0.606,0.852,-506.47,-9.522,418.762,0,0,0,
,0.371,1.019,0.847,-992.615,-155.152,632.751,0,0,0,
,0.292,1.429,0.874,-1200.745,-261.963,850.952,0,0,0,
,0.037,1.42,0.766,-858.399,-334.168,1034.79,0,0,0,
,-0.203,1.116,0.635,-566.956,-304.078,1179.809,0,0,0,
,-0.27,0.879,0.543,-497.559,-234.436,1295.288,0,0,0,
,-0.36,0.663,0.468,-493.836,-145.325,1349.426,0,0,0,
,-0.406,0.457,0.435,-451.966,-2.32,1350.769,0,0,0,
,-0.38,0.232,0.467,-339.722,146.545,1305.053,0,0,0,
,-0.324,0.024,0.541,-249.878,278.198,1244.873,0,0,0,
,-0.297,-0.058,0.621,-222.474,351.074,1175.842,0,0,0,
,-0.313,0.023,0.613,-230.896,428.894,1098.51,0,0,0,
,-0.259,0.255,0.664,-183.777,449.829,971.984,0,0,0,
,-0.205,0.145,0.81,-4.334,410.461,739.746,0,0,0,
,-0.196,-0.05,0.965,312.683,397.888,525.451,0,0,0,
,-0.144,-0.038,0.999,586.731,372.985,381.103,0,0,0,
,-0.086,0.056,0.996,826.965,308.715,257.385,0,0,0,
,-0.076,-0.064,0.97,995.727,230.651,172.241,0,0,0,
,-0.145,0.01,1.158,827.392,101.745,66.65,0,0,0,
,-0.165,0.148,1.203,630.554,56.03,71.044,0,0,0,
,-0.17,0.409,1.248,654.419,13.427,-13.977,0,0,0,
,-0.181,0.586,1.184,1234.253,-22.767,-60.486,0,0,0,
,-0.203,0.189,1.153,1684.875,-43.091,-77.637,0,0,0,
,-0.308,-0.089,1.065,1601.074,-68.787,12.39,0,0,0,
,-0.313,-0.203,1.184,1129.516,-55.664,129.089,0,0,0,
,-0.309,-0.171,1.069,683.349,-24.842,191.04,0,0,0,
,-0.37,-0.078,1.009,269.531,12.023,231.14,0,0,0,
,-0.44,-0.035,0.894,-201.233,99.609,226.684,0,0,0,
,-0.459,0.062,0.854,-502.137,129.272,162.17,0,0,0,
,-0.374,-0.139,0.932,-768.067,140.93,92.651,0,0,0,
,-0.321,0.054,0.945,-971.07,147.522,56.579,0,0,0,
,-0.356,0.202,0.921,-770.752,114.38,15.075,0,0,0,
,-0.379,0.239,0.959,-405.701,94.909,5.432,0,0,0,
,-0.348,0.429,1.003,61.462,102.295,-4.151,0,0,0,
,-0.256,0.181,1.069,269.348,68.908,23.193,0,0,0,
,-0.293,0.208,1.149,226.013,59.875,85.998,0,0,0,
,-0.261,0.2,1.186,218.811,44.311,113.769,0,0,0,
,-0.267,0.15,1.125,216.43,5.92,124.145,0,0,0,
,-0.274,0.086,1.115,255.188,-41.504,121.643,0,0,0,
,-0.239,0.007,1.098,335.693,-101.075,88.928,0,0,0,
,-0.265,-0.035,1.041,333.984,-154.053,39.489,0,0,0,
,-0.281,-0.062,1.024,319.519,-212.22,-34.913,0,0,0,
,-0.315,-0.067,1.082,310.913,-260.193,-100.159,0,0,0,
,-0.316,-0.103,1.1,140.747,-333.802,-162.049,0,0,0,
,-0.379,-0.058,1.077,47.851,-406.861,-217.774,0,0,0,
,-0.339,-0.003,0.973,38.208,-437.439,-247.864,0,0,0,
,-0.408,0.054,0.864,80.444,-478.211,-237.854,0,0,0,
,-0.493,0.142,0.802,144.409,-453.186,-210.022,0,0,0,
,-0.474,0.192,0.831,230.529,-405.457,-195.008,0,0,0,
,-0.486,0.114,0.796,249.45,-371.155,-182.679,0,0,0,
,-0.547,0.024,0.686,212.89,-291.993,-165.955,0,0,0,
,-0.498,-0.072,0.621,78.064,-192.627,-159.485,0,0,0,
,-0.487,-0.023,0.615,-80.14,-112,-98.206,0,0,0,
,-0.45,0.037,0.625,-181.275,-35.035,-68.848,0,0,0,
,-0.496,0.13,0.702,-188.294,15.136,-50.538,0,0,0,
,-0.473,0.117,0.742,-130.31,76.843,-59.266,0,0,0,
,-0.436,0.2,0.773,-46.326,106.506,-66.04,0,0,0,
,-0.423,0.159,0.82,33.996,119.262,-56.031,0,0,0,
,-0.445,0.09,0.866,6.774,134.704,-35.645,0,0,0,
,-0.438,0.062,0.795,-22.034,174.56,-7.813,0,0,0,
,-0.394,0.021,0.834,-199.707,155.395,27.038,0,0,0,
,-0.46,0.192,0.891,-280.335,144.714,58.837,0,0,0,
,-0.469,0.166,0.967,-218.811,138.122,42.907,0,0,0,
,-0.454,0.131,1.026,-145.813,124.328,34.423,0,0,0,
,-0.46,0.131,1.055,-16.785,123.169,48.217,0,0,0,
,-0.457,-0.026,1.033,46.814,128.723,51.879,0,0,0,
,-0.452,-0.073,0.959,2.075,164.062,64.575,0,0,0,
,-0.42,-0.043,0.962,-86.487,244.567,101.745,0,0,0,
,-0.334,-0.067,1.102,-42.603,389.709,135.498,0,0,0,
,-0.089,-0.238,1.492,229.126,573.913,177.49,0,0,0,
,0.295,-0.952,2.244,941.772,644.226,147.4,0,0,0,
,0.32,-2.513,2.332,1815.673,481.75,65.49,0,0,0,
,-0.339,-3.777,1.34,1569.519,435.608,-128.54,0,0,0,
,-1.068,-4,1.258,935.363,956.176,-1338.379,0,0,0,
,-0.352,-4,1.336,1091.919,1696.838,-2000,0,0,0,
,0.863,-4,1.758,1948.059,1708.984,-2000,0,0,0,
,1.309,-3.527,1.695,1875.061,1773.071,-2000,0,0,0,
,1.111,-2.83,0.596,465.942,1999.694,-2000,0,0,0,
,1.764,-2.347,-0.699,-742.493,1999.694,-2000,0,0,0,
,3.999,-0.173,0.033,-1255.555,1999.694,-2000,0,0,0,
,3.999,2.703,1.594,-415.528,1296.386,-2000,0,0,0,
,3.999,3.298,0.759,-167.298,1200.378,-2000,0,0,0,
,3.999,3.167,-0.401,-807.068,-81.727,-2000,0,0,0,
,1.763,2.548,0.397,-1153.687,-1300.538,73.364,0,0,0,
,0.909,2.464,0.519,-677.491,-1202.271,1599.914,0,0,0,
,2.091,2.778,0.212,352.111,-825.44,1974.487,0,0,0,
,2.711,2.25,-0.014,1434.997,-1332.581,1995.056,0,0,0,
,2.156,1.189,0.143,1734.314,-1697.876,1999.694,0,0,0,
,1.926,0.634,0.191,879.76,-1666.26,1999.694,0,0,0,
,1.77,0.119,0.019,-192.017,-1724.244,1999.694,0,0,0,
,0.96,-0.176,0.023,-823.609,-1793.091,1999.694,0,0,0,
,0.196,-0.094,0.123,-1080.201,-1470.582,1999.694,0,0,0,
,0.153,0.005,0.112,-995.301,-1017.945,1999.694,0,0,0,
,0.28,-0.472,0.235,-672.73,-858.277,1999.694,0,0,0,
,0.096,-1.112,0.12,-973.938,-861.878,1999.694,0,0,0,
,-0.28,-1.391,0.286,-1437.928,-743.592,1999.694,0,0,0,
,-0.491,-1.859,0.534,-1852.479,-590.455,1999.694,0,0,0,
,-0.69,-2.311,1.05,-2000,-567.505,1810.485,0,0,0,
,-0.874,-2.207,1.416,-2000,-511.414,1374.206,0,0,0,
,-0.979,-1.861,1.484,-2000,-472.718,885.009,0,0,0,
,-0.835,-1.143,1.88,-2000,-335.877,365.783,0,0,0,
,-0.539,-0.702,1.861,-1674.683,-412.537,-65.613,0,0,0,
,-0.508,-0.481,1.775,-1117.737,-593.384,-404.847,0,0,0,
,-0.639,-0.243,1.708,-804.139,-715.21,-650.635,0,0,0,
,-0.65,0.011,1.657,-830.201,-756.165,-821.228,0,0,0,
,-0.558,0.475,1.544,-924.744,-766.968,-869.69,0,0,0,
,-0.454,0.8,1.378,-782.532,-801.758,-775.635,0,0,0,
,-0.471,0.703,1.123,-620.24,-788.453,-567.872,0,0,0,
,-0.576,0.573,0.843,-669.312,-658.631,-312.989,0,0,0,
,-0.643,0.632,0.669,-824.158,-473.511,-99.122,0,0,0,
,-0.668,0.577,0.651,-924.012,-287.964,51.025,0,0,0,
,-0.679,0.566,0.589,-972.046,-104.554,169.983,0,0,0,
,-0.631,0.713,0.625,-904.358,50.415,243.53,0,0,0,
,-0.6,0.736,0.611,-738.282,156.067,279.052,0,0,0,
,-0.599,0.673,0.608,-548.645,220.276,264.282,0,0,0,
,-0.611,0.576,0.59,-384.461,265.869,249.694,0,0,0,
,-0.603,0.549,0.598,-291.565,300.964,214.233,0,0,0,
,-0.569,0.539,0.629,-228.455,317.199,162.536,0,0,0,
,-0.53,0.489,0.619,-235.535,319.336,128.723,0,0,0,
,-0.516,0.542,0.608,-306.702,303.588,109.008,0,0,0,
,-0.514,0.565,0.594,-366.944,269.287,89.538,0,0,0,
,-0.516,0.591,0.538,-485.901,267.028,83.557,0,0,0,
,-0.515,0.625,0.484,-610.657,255.737,62.255,0,0,0,
,-0.497,0.678,0.393,-729.859,284.118,40.71,0,0,0,
,-0.452,0.658,0.351,-855.896,278.686,67.443,0,0,0,
,-0.476,0.801,0.353,-893.494,273.803,106.14,0,0,0,
,-0.388,0.912,0.495,-785.401,253.296,94.787,0,0,0,
,-0.318,0.718,0.598,-378.113,160.095,-25.391,0,0,0,
,-0.398,0.46,0.591,-103.333,67.077,-28.382,0,0,0,
,-0.556,0.396,0.449,-356.446,86.059,-7.874,0,0,0,
,-0.525,0.496,0.321,-747.681,121.765,-44.739,0,0,0,
,-0.506,0.736,0.362,-941.773,123.352,-99.427,0,0,0,
,-0.535,0.766,0.337,-932.801,111.206,-124.085,0,0,0,
,-0.482,0.798,0.326,-867.432,113.098,-159.058,0,0,0,
,-0.411,0.891,0.372,-724.122,48.95,-144.349,0,0,0,
,-0.396,0.834,0.332,-660.645,14.526,-104.92,0,0,0,
,-0.443,0.919,0.239,-619.385,-10.865,-97.657,0,0,0,
,-0.441,0.927,0.188,-521.729,-35.645,-89.966,0,0,0,
,-0.439,0.941,0.221,-429.017,-64.026,-82.032,0,0,0,
,-0.408,0.936,0.252,-370.789,-93.628,-68.299,0,0,0,
,-0.402,0.912,0.268,-290.833,-135.376,-67.078,0,0,0,
,-0.411,0.83,0.258,-253.052,-177.369,-45.594,0,0,0,
,-0.436,0.851,0.237,-223.45,-212.403,-36.866,0,0,0,
,-0.486,0.795,0.148,-181.946,-222.84,-12.879,0,0,0,
,-0.488,0.832,0.106,-240.235,-231.446,-24.109,0,0,0,
,-0.531,0.86,0.099,-227.356,-229.737,-61.524,0,0,0,
,-0.54,0.851,0.069,-252.137,-211.06,-64.393,0,0,0,
,-0.528,0.853,0.079,-269.349,-201.6,-75.44,0,0,0,
,-0.541,0.85,0.056,-228.577,-173.462,-68.604,0,0,0,
,-0.529,0.875,0.049,-109.864,-153.809,-59.388,0,0,0,
,-0.521,0.818,0.022,-15.564,-141.785,-52.735,0,0,0,
,-0.536,0.799,0.003,47.058,-121.277,-41.871,0,0,0,
,-0.553,0.857,0,86.486,-93.323,-41.443,0,0,0,
,-0.559,0.873,-0.001,101.257,-65.369,-39.978,0,0,0,
,-0.572,0.871,-0.001,67.016,-38.636,-48.645,0,0,0,
,-0.567,0.854,0.01,10.681,-5.372,-49.073,0,0,0,
,-0.515,0.852,-0.008,-73.121,31.005,-30.152,0,0,0,
,-0.498,0.883,0.014,-133.667,50.72,-33.875,0,0,0,
,-0.496,0.935,0.036,-125.733,67.688,-55.603,0,0,0,
,-0.555,0.973,0.067,-41.199,65.856,-70.069,0,0,0,
,-0.529,0.92,0.067,56.152,71.899,-70.008,0,0,0,
,-0.479,0.875,0.042,64.636,80.749,-65.613,0,0,0,
,-0.462,0.935,0.036,41.503,72.143,-41.993,0,0,0,
,-0.427,0.98,0.162,-1.404,18.798,-12.635,0,0,0,
,-0.45,1.009,0.104,3.418,38.452,20.813,0,0,0,
,-0.473,0.909,0.077,163.94,26.367,6.774,0,0,0,
,-0.52,0.875,0.04,310.485,63.72,-38.514,0,0,0,
,-0.416,0.772,0.083,381.652,83.007,-46.57,0,0,0,
,-0.4,0.825,0.157,373.047,95.642,-26.612,0,0,0,
,-0.389,0.925,0.222,218.933,84.655,44.677,0,0,0,
,-0.407,0.738,0.205,37.963,76.232,0.854,0,0,0,
,-0.431,0.803,0.158,-46.57,57.739,5.798,0,0,0,
,-0.43,0.779,0.061,-64.881,45.654,27.648,0,0,0,
,-0.433,0.79,0.024,-66.468,38.391,27.465,0,0,0,
,-0.417,0.784,-0.001,37.841,29.235,-1.954,0,0,0,
,-0.438,0.788,0.034,161.255,13.305,-41.81,0,0,0,
,-0.474,0.778,0.045,211.792,2.929,-63.111,0,0,0,
,-0.482,0.72,0.1,68.237,-10.621,-85.389,0,0,0,
,-0.475,0.791,0.128,-159.241,-32.532,-110.413,0,0,0,
,-0.455,0.793,0.12,-350.708,-54.871,-106.385,0,0,0,
,-0.461,0.876,0.124,-471.192,-107.911,-94.422,0,0,0,
,-0.429,0.924,0.094,-432.435,-115.052,-62.561,0,0,0,
,-0.468,0.934,0.059,-389.588,-157.349,-30.701,0,0,0,
,-0.498,0.988,-0.028,-348.694,-164.002,-2.381,0,0,0,
,-0.525,0.951,-0.016,-223.999,-179.81,10.742,0,0,0,
,-0.519,0.907,-0.084,-108.643,-169.434,45.959,0,0,0,
,-0.515,0.965,-0.07,43.212,-156.311,45.471,0,0,0,
,-0.527,0.965,-0.015,116.027,-155.091,70.922,0,0,0,
,-0.572,0.908,-0.006,248.23,-122.071,80.2,0,0,0,
,-0.606,0.889,-0.007,335.327,-99.854,75.317,0,0,0,
,-0.592,0.83,0.044,280.456,-54.566,84.899,0,0,0,
,-0.585,0.749,-0.01,317.199,3.234,70.739,0,0,0,
,-0.619,0.796,-0.067,260.315,53.894,68.542,0,0,0,
,-0.606,0.819,-0.019,210.327,96.252,63.659,0,0,0,
,-0.605,0.768,-0.001,128.418,149.231,66.345,0,0,0,
,-0.56,0.791,0.069,46.203,184.997,71.106,0,0,0,
,-0.553,0.797,0.108,-34.485,210.388,74.279,0,0,0,
,-0.558,0.811,0.113,-45.044,226.135,69.336,0,0,0,
,-0.539,0.724,0.105,-44.19,232.177,86.731,0,0,0,
,-0.556,0.856,0.151,-87.342,225.219,71.106,0,0,0,
,-0.542,0.861,0.163,-47.547,188.049,70.312,0,0,0,
,-0.501,0.911,0.163,24.78,190.673,82.519,0,0,0,
,-0.508,0.921,0.171,164.978,183.288,90.026,0,0,0,
,-0.486,0.933,0.168,365.356,173.462,104.309,0,0,0,
,-0.46,0.939,0.255,597.534,158.63,128.234,0,0,0,
,-0.512,0.882,0.25,750.549,176.941,161.132,0,0,0,
,-0.49,0.917,0.3,920.044,201.721,204.04,0,0,0,
,-0.55,0.924,0.45,1005.066,207.519,246.765,0,0,0,
,-0.593,0.935,0.471,1096.008,232.238,258.117,0,0,0,
,-0.612,0.839,0.48,1258.117,245.849,263.855,0,0,0,
,-0.65,0.858,0.537,1447.876,273.315,287.292,0,0,0,
,-0.648,0.814,0.569,1682.434,297.668,293.945,0,0,0,
,-0.636,0.841,0.544,1973.083,309.448,311.523,0,0,0,
,-0.621,0.701,0.534,1999.694,321.655,353.393,0,0,0,
,-0.602,0.503,0.511,1999.694,326.294,354.675,0,0,0,
,-0.628,0.187,0.382,1999.694,345.398,352.722,0,0,0,
,-0.566,0.163,0.463,1999.694,352.05,334.777,0,0,0,
,-0.509,0.044,0.624,1997.985,364.807,346.313,0,0,0,
,-0.498,0.113,0.71,1581.421,388.427,325.439,0,0,0,
,-0.502,-0.008,0.65,1210.449,413.208,279.113,0,0,0,
,-0.511,-0.006,0.628,869.812,441.467,243.957,0,0,0,
,-0.482,-0.003,0.654,670.593,447.998,194.213,0,0,0,
,-0.5,0.036,0.812,568.786,480.957,142.212,0,0,0,
,-0.406,0.088,0.725,449.096,468.75,143.921,0,0,0,
,-0.429,0.091,0.674,456.909,459.9,104.919,0,0,0,
,-0.417,0.153,0.748,538.696,453.003,116.455,0,0,0,
,-0.408,-0.064,0.773,538.513,444.702,122.131,0,0,0,
,-0.396,-0.09,0.753,494.079,435.058,117.981,0,0,0,
,-0.35,0.009,0.831,490.6,400.817,109.436,0,0,0,
,-0.312,-0.053,0.948,439.331,360.351,105.529,0,0,0,
,-0.305,-0.003,0.967,328.247,320.373,99.609,0,0,0,
,-0.288,-0.07,0.954,251.709,290.649,84.045,0,0,0,
,-0.312,-0.042,0.933,163.574,276.245,89.355,0,0,0,
,-0.27,-0.013,0.992,186.706,262.573,83.984,0,0,0,
,-0.303,-0.024,1.012,239.624,249.572,78.857,0,0,0,
,-0.347,0.017,0.979,309.387,246.215,89.355,0,0,0,
,-0.295,-0.444,1.27,142.089,163.452,68.054,0,0,0,
,-0.394,0.18,1.009,71.106,210.327,16.174,0,0,0,
,-0.192,-0.006,1.159,394.958,155.395,-107.3,0,0,0,
,-0.36,-0.033,1.143,670.044,126.342,-134.461,0,0,0,
,-0.313,-0.061,1.008,869.079,111.572,-172.181,0,0,0,
,-0.318,-0.131,0.79,1006.652,119.995,-99.793,0,0,0,
,-0.252,-0.448,0.801,859.68,119.384,-90.699,0,0,0,
,-0.196,-0.229,0.949,690.796,126.587,-32.471,0,0,0,
,-0.157,-0.112,1.007,696.716,63.903,3.234,0,0,0,
,-0.304,-0.308,1.1,544.433,18.432,-21.18,0,0,0,
,-0.346,-0.945,1.121,79.223,13.305,-99.183,0,0,0,
,-0.209,-0.724,1.086,-260.498,-17.151,-80.262,0,0,0,
,-0.297,-0.327,0.96,-137.635,-31.983,-62.684,0,0,0,
,-0.261,-0.129,1.037,187.805,-64.148,-101.502,0,0,0,
,-0.303,-0.423,0.932,329.223,-140.137,-132.691,0,0,0,
,-0.365,-0.421,0.828,74.646,-99.61,-112.549,0,0,0,
,-0.316,-0.449,0.765,85.571,-86.609,-131.348,0,0,0,
,-0.397,-0.468,0.795,78.308,-55.664,-85.144,0,0,0,
,-0.386,-0.448,0.85,82.824,-26.917,-93.567,0,0,0,
,-0.378,-0.466,0.801,24.658,15.136,-84.229,0,0,0,
,-0.374,-0.563,0.739,-152.894,12.39,-96.497,0,0,0,
,-0.332,-0.256,0.689,-94.483,25.024,-70.496,0,0,0,
,-0.343,-0.445,0.781,71.716,16.601,-108.521,0,0,0,
,-0.294,-0.521,0.774,-73.975,46.997,-54.505,0,0,0,
,-0.29,-0.364,0.815,-199.952,58.96,-13.672,0,0,0,
,-0.235,-0.276,0.878,-176.941,76.538,23.803,0,0,0,
,-0.228,-0.265,0.922,-62.561,84.777,59.875,0,0,0,
,-0.284,-0.364,0.853,-5.127,123.108,92.285,0,0,0,
,-0.314,-0.319,0.762,17.028,139.953,84.35,0,0,0,
,-0.284,-0.33,0.813,-41.871,141.357,71.044,0,0,0,
,-0.3,-0.381,0.822,-57.74,162.902,41.076,0,0,0,
,-0.289,-0.377,0.86,-72.815,176.696,42.419,0,0,0,
,-0.258,-0.419,0.857,-104.615,191.345,49.011,0,0,0,
,-0.257,-0.429,0.873,-186.585,214.477,100.219,0,0,0,
,-0.28,-0.343,0.893,-101.075,213.745,92.834,0,0,0,
,-0.294,-0.342,0.947,58.776,205.993,113.769,0,0,0,
,-0.308,-0.433,0.996,116.699,198.608,116.882,0,0,0,
,-0.262,-0.376,1.047,119.995,174.621,118.835,0,0,0,
,-0.199,-0.382,1.049,11.84,140.869,119.69,0,0,0,
,-0.181,-0.361,1.076,-42.969,133.606,127.258,0,0,0,
,-0.143,-0.414,0.971,-82.032,102.6,132.751,0,0,0,
,-0.133,-0.261,1.061,25.146,72.082,140.075,0,0,0,
,-0.102,-0.314,1.135,26.916,45.227,157.043,0,0,0,
,-0.138,-0.238,1.136,53.1,18.066,161.499,0,0,0,
,-0.137,-0.356,1.047,-72.449,11.474,164.428,0,0,0,
,-0.147,-0.245,1.001,-79.59,-17.579,162.292,0,0,0,
,-0.196,-0.277,0.954,-58.838,-45.899,164.611,0,0,0,
,-0.173,-0.219,0.912,-112.244,-60.975,198.974,0,0,0,
,-0.174,-0.078,0.905,-132.569,-66.712,232.483,0,0,0,
,-0.25,-0.282,0.864,0.183,-62.012,240.295,0,0,0,
,-0.216,-0.364,0.88,6.103,-55.97,188.903,0,0,0,
,-0.164,-0.394,0.927,-1.404,-40.345,159.79,0,0,0,
,-0.212,-0.509,0.982,8.239,-33.509,66.101,0,0,0,
,-0.205,-0.588,0.968,14.404,-15.686,-2.991,0,0,0,
,-0.194,-0.394,0.914,35.949,-13.733,-71.961,0,0,0,
,-0.207,-0.426,0.843,96.862,3.173,-99.549,0,0,0,
,-0.228,-0.376,0.744,73.12,26.794,-104.554,0,0,0,
,-0.23,-0.461,0.724,-32.41,54.199,-99.793,0,0,0,
,-0.198,-0.403,0.806,-36.805,64.27,-86.731,0,0,0,
,-0.183,-0.363,0.969,67.321,57.617,-95.398,0,0,0,
,-0.158,-0.358,1.069,44.494,53.711,-104.798,0,0,0,
,-0.165,-0.367,1.045,-43.274,44.25,-113.404,0,0,0,
,-0.158,-0.321,0.907,-39.978,35.522,-109.803,0,0,0,
,-0.132,-0.349,0.822,-1.709,35.522,-94.666,0,0,0,
,-0.128,-0.346,0.885,54.077,31.25,-80.933,0,0,0,
,-0.152,-0.375,0.969,107.116,22.522,-72.815,0,0,0,
,-0.157,-0.384,1.049,45.776,33.264,-68.055,0,0,0,
,-0.16,-0.314,1.011,34.423,30.517,-63.843,0,0,0,
,-0.186,-0.339,0.964,50.964,19.653,-61.036,0,0,0,
,-0.185,-0.436,0.945,66.589,13.794,-55.176,0,0,0,
,-0.197,-0.429,0.917,74.646,11.23,-68.97,0,0,0,
,-0.183,-0.426,0.93,38.452,25.024,-75.867,0,0,0,
,-0.181,-0.381,0.921,61.645,46.264,-81.116,0,0,0,
,-0.206,-0.405,0.902,89.172,30.212,-81.482,0,0,0,
,-0.208,-0.449,0.919,129.638,20.263,-79.468,0,0,0,
,-0.205,-0.484,0.919,86.914,22.155,-89.966,0,0,0,
,-0.203,-0.43,0.921,32.104,35.949,-105.896,0,0,0,
,-0.207,-0.303,0.963,10.742,36.865,-111.206,0,0,0,
,-0.213,-0.383,0.989,5.615,26.916,-107.727,0,0,0,
,-0.21,-0.367,0.949,-18.494,20.813,-108.521,0,0,0,
,-0.203,-0.385,0.916,32.104,13.549,-109.375,0,0,0,
,-0.212,-0.427,0.907,68.42,3.051,-116.456,0,0,0,
,-0.232,-0.381,0.952,52.917,-2.32,-117.432,0,0,0,
,-0.194,-0.395,1.004,43.884,-13.123,-136.475,0,0,0,
,-0.213,-0.419,0.992,22.399,-23.804,-150.086,0,0,0,
,-0.221,-0.5,0.805,221.252,-32.593,-242.554,0,0,0,
,-0.349,-0.952,0.721,177.795,1.953,-325.623,0,0,0,
,-0.274,-0.781,0.744,-91.614,73.608,-436.158,0,0,0,
,-0.106,-0.485,0.92,-374.451,152.771,-407.166,0,0,0,
,-0.175,-0.074,0.931,-152.466,125.061,-404.175,0,0,0,
,-0.137,-0.536,0.978,38.33,151.306,-401.856,0,0,0,
,-0.043,-0.334,0.97,-342.102,178.833,-331.421,0,0,0,
,-0.049,-0.237,0.828,-351.319,183.654,-282.959,0,0,0,
,-0.078,0.027,0.908,-394.837,187.011,-219.361,0,0,0,
,-0.032,-0.139,0.971,-212.83,174.316,-131.592,0,0,0,
,-0.09,-0.111,1.01,-219.239,152.465,-37.781,0,0,0,
,-0.065,0.005,1.001,-215.943,129.15,51.33,0,0,0,
,-0.139,-0.01,0.975,-89.661,97.778,74.34,0,0,0,
,-0.164,-0.182,0.997,-8.973,72.326,67.565,0,0,0,
,-0.142,-0.218,1.059,-179.261,67.077,78.064,0,0,0,
,-0.107,-0.089,1.087,-333.435,34.484,108.032,0,0,0,
,-0.113,0.006,1.089,-314.331,-7.081,114.685,0,0,0,
,-0.084,0.079,1.109,-238.282,-52.674,189.087,0,0,0,
,-0.093,0.082,1.113,-175.904,-72.632,276.367,0,0,0,
,-0.148,0.103,1.062,-44.739,-88.501,329.528,0,0,0,
,-0.168,-0.078,1.034,3.54,-99.732,382.751,0,0,0,
,-0.179,0.181,0.875,-78.797,-86.121,468.383,0,0,0,
,-0.225,-0.081,0.884,-64.454,-66.04,524.414,0,0,0,
,-0.132,-0.237,0.945,-68.482,-63.904,497.131,0,0,0,
,-0.224,-0.302,0.949,-116.394,-71.473,543.274,0,0,0,
,-0.143,-0.323,0.934,45.41,-75.562,473.693,0,0,0,
,-0.243,-0.384,0.824,12.512,-72.327,484.802,0,0,0,
,-0.141,-0.416,0.881,188.476,-84.229,338.073,0,0,0,
,-0.224,-0.592,0.919,203.125,-91.614,296.508,0,0,0,
,-0.225,-0.517,0.929,167.297,-97.352,201.782,0,0,0,
,-0.271,-0.721,0.821,286.926,-96.131,34.118,0,0,0,
,-0.344,-0.789,0.812,86.731,-56.153,-91.004,0,0,0,
,-0.237,-0.522,0.808,-154.847,-30.701,-119.324,0,0,0,
,-0.305,-0.331,0.857,-27.894,-35.401,-175.904,0,0,0,
,-0.228,-0.275,0.934,183.838,-39.612,-200.501,0,0,0,
,-0.257,-0.278,0.975,296.203,-77.759,-184.266,0,0,0,
,-0.24,-0.303,0.969,262.695,-64.515,-181.458,0,0,0,
,-0.254,-0.382,0.98,155.944,-75.257,-155.518,0,0,0,
,-0.215,-0.291,1.044,38.086,-72.449,-146.363,0,0,0,
,-0.174,-0.321,0.985,99.426,-86.731,-138.428,0,0,0,
,-0.219,-0.37,0.946,113.403,-86.365,-122.742,0,0,0,
,-0.205,-0.424,0.893,128.357,-78.125,-127.747,0,0,0,
,-0.167,-0.39,0.921,77.941,-62.073,-118.042,0,0,0,
,-0.191,-0.342,0.941,78.674,-40.65,-120.484,0,0,0,
,-0.199,-0.294,0.915,81.543,-27.894,-116.639,0,0,0,
,-0.2,-0.39,0.935,90.637,-10.437,-111.451,0,0,0,
,-0.194,-0.361,0.93,35.705,-3.296,-105.53,0,0,0,
,-0.214,-0.402,0.922,28.808,7.507,-109.681,0,0,0,
,-0.218,-0.288,0.913,16.906,25.94,-113.343,0,0,0,
,-0.214,-0.265,0.931,106.567,28.93,-116.211,0,0,0,
,-0.24,-0.32,0.922,171.569,31.921,-111.817,0,0,0,
,-0.249,-0.509,0.889,297.607,30.517,-169.19,0,0,0,
,-0.266,-0.97,0.859,329.162,57.251,-277.1,0,0,0,
,-0.177,-0.573,0.974,-89.966,130.92,-320.13,0,0,0,
,-0.165,-0.428,0.914,-24.048,135.009,-388.977,0,0,0,
,-0.213,-0.654,0.977,51.757,141.662,-425.477,0,0,0,
,-0.256,-0.298,0.778,-48.462,206.237,-464.417,0,0,0,
,-0.146,-0.084,0.96,-116.883,213.867,-378.602,0,0,0,
,-0.157,-0.18,1.034,230.713,203.125,-388.733,0,0,0,
,-0.207,-0.48,0.969,195.312,209.228,-354.615,0,0,0,
,-0.116,-0.134,1.118,-181.031,244.873,-264.161,0,0,0,
,-0.008,-0.113,1.081,-255.433,210.144,-197.144,0,0,0,
,-0.072,-0.112,1.07,-212.281,145.08,-141.48,0,0,0,
,-0.069,0.057,1.113,-237.977,84.35,-50.477,0,0,0,
,-0.085,0.037,1.122,-275.269,45.654,-7.264,0,0,0,
,-0.138,0.004,1.06,-262.635,11.291,47.241,0,0,0,
,-0.187,-0.071,0.999,-135.01,-10.315,78.064,0,0,0,
,-0.169,-0.048,0.995,-155.274,-23.072,152.282,0,0,0,
,-0.161,-0.006,1.001,-218.628,-31.495,220.642,0,0,0,
,-0.187,-0.025,1.023,-198.731,-56.275,286.743,0,0,0,
,-0.225,0.068,0.996,-174.134,-55.298,364.868,0,0,0,
,-0.196,0.083,0.929,-134.644,-37.781,416.87,0,0,0,
,-0.258,-0.109,0.94,-113.892,-55.237,469.238,0,0,0,
,-0.255,-0.315,0.939,-221.192,-41.687,488.586,0,0,0,
,-0.212,-0.309,0.975,-205.811,-45.716,468.322,0,0,0,
,-0.241,-0.453,0.987,-221.192,-55.726,469.482,0,0,0,
,-0.231,-0.458,0.902,-123.536,-57.496,309.204,0,0,0,
,-0.256,-0.441,0.888,-75.379,-51.636,218.2,0,0,0,
,-0.246,-0.474,0.876,-4.639,-32.959,84.777,0,0,0,
,-0.26,-0.611,0.823,-8.484,-25.879,-2.442,0,0,0,
,-0.267,-0.632,0.793,-149.109,18.554,-66.59,0,0,0,
,-0.284,-0.426,0.796,-223.328,66.955,-113.343,0,0,0,
,-0.245,-0.208,0.854,-36.499,77.941,-143.189,0,0,0,
,-0.224,-0.04,0.859,241.516,56.579,-175.538,0,0,0,
,-0.237,-0.122,0.9,449.89,39.55,-176.575,0,0,0,
,-0.196,-0.341,1.034,519.165,22.583,-110.413,0,0,0,
,-0.22,-0.385,1.182,317.688,31.738,-96.131,0,0,0,
,-0.181,-0.321,1.195,101.013,32.47,-96.497,0,0,0,
,-0.166,-0.293,1.065,-28.687,15.991,-91.675,0,0,0,
,-0.14,-0.224,0.989,-23.682,0.854,-93.689,0,0,0,
,-0.129,-0.206,0.981,82.702,-25.574,-84.29,0,0,0,
,-0.146,-0.219,1.009,188.72,-49.439,-83.374,0,0,0,
,-0.165,-0.278,1.079,200.805,-68.299,-73.548,0,0,0,
,-0.185,-0.313,1.071,140.93,-73.182,-75.074,0,0,0,
,-0.195,-0.369,1.04,48.156,-64.637,-65.003,0,0,0,
,-0.217,-0.256,0.946,20.996,-73.548,-59.082,0,0,0,
,-0.209,-0.292,0.943,76.416,-74.158,-59.082,0,0,0,
,-0.207,-0.329,0.976,135.192,-81.543,-53.711,0,0,0,
,-0.252,-0.317,0.979,161.193,-81.727,-58.106,0,0,0,
,-0.234,-0.351,0.974,88.012,-59.693,-63.05,0,0,0,
,-0.238,-0.318,0.909,12.512,-40.589,-60.12,0,0,0,
,-0.229,-0.232,0.835,75.439,-30.274,-55.726,0,0,0,
,-0.21,-0.305,0.877,159.912,-23.377,-47.73,0,0,0,
,-0.222,-0.313,0.933,159.607,-4.578,-37.049,0,0,0,
,-0.198,-0.317,0.964,108.764,15.808,-41.748,0,0,0,
,-0.191,-0.341,0.981,67.077,25.451,-49.317,0,0,0,
,-0.185,-0.264,0.908,92.041,0.305,-67.444,0,0,0,
,-0.197,-0.306,0.915,113.952,8.422,-82.154,0,0,0,
,-0.195,-0.372,0.915,65.918,9.704,-112.488,0,0,0,
,-0.22,-0.34,0.882,93.444,6.164,-166.26,0,0,0,
,-0.244,-0.62,0.808,255.31,1.403,-275.818,0,0,0,
,-0.242,-0.902,0.883,-17.334,79.956,-326.539,0,0,0,
,-0.184,-0.319,0.914,-188.66,100.463,-396.18,0,0,0,
,-0.147,0.081,1.001,-273.377,121.46,-338.379,0,0,0,
,-0.226,-0.457,0.94,-43.763,139.831,-302.063,0,0,0,
,-0.174,-0.124,0.937,-173.218,125.366,-282.227,0,0,0,
,-0.139,0.064,0.897,-50.782,107.299,-219.727,0,0,0,
,-0.213,-0.027,0.954,73.303,88.684,-167.298,0,0,0,
,-0.197,-0.248,1.044,148.498,73.608,-127.625,0,0,0,
,-0.187,-0.25,1.075,27.16,76.294,-88.685,0,0,0,
,-0.171,-0.268,1.032,-68.543,70.983,-67.566,0,0,0,
,-0.169,-0.26,0.959,-171.57,48.523,-37.171,0,0,0,
,-0.179,-0.19,0.92,-190.674,23.437,-22.217,0,0,0,
,-0.173,-0.148,0.99,-88.929,6.591,-7.63,0,0,0,
,-0.121,-0.125,1.099,15.625,-18.433,39.489,0,0,0,
,-0.153,-0.052,1.197,-37.293,-43.58,113.708,0,0,0,
,-0.163,0.021,1.192,-119.202,-60.608,199.768,0,0,0,
,-0.233,0.02,1.119,-177.491,-72.632,260.62,0,0,0,
,-0.219,0.036,0.929,-168.335,-52.979,343.017,0,0,0,
,-0.252,0.152,0.761,-147.4,-13.184,443.237,0,0,0,
,-0.25,-0.046,0.889,-12.757,-46.998,495.361,0,0,0,
,-0.238,0.066,0.924,-12.146,-12.818,538.025,0,0,0,
,-0.142,-0.393,1.004,101.806,-50.477,502.929,0,0,0,
,-0.263,-0.362,0.933,-13.001,-54.139,464.294,0,0,0,
,-0.152,-0.237,0.974,34.606,-73.304,308.838,0,0,0,
,-0.227,-0.402,0.84,60.424,-115.357,286.499,0,0,0,
,-0.277,-0.483,0.824,-25.208,-100.769,171.386,0,0,0,
,-0.28,-0.592,0.794,-219.483,-84.412,93.689,0,0,0,
,-0.317,-0.522,0.78,-380.677,-52.491,14.648,0,0,0,
,-0.284,-0.457,0.798,-383.789,4.943,-22.095,0,0,0,
,-0.23,-0.336,0.922,-277.1,-4.517,-21.973,0,0,0,
,-0.199,-0.248,1.033,-269.593,-32.044,7.385,0,0,0,
,-0.343,-0.291,0.968,-210.328,-58.045,-2.625,0,0,0,
,-0.359,-0.369,0.98,-149.781,-63.111,-24.781,0,0,0,
,-0.288,-0.457,0.88,-82.581,-82.459,-94.788,0,0,0,
,-0.268,-0.129,0.956,-19.898,-78.186,-45.289,0,0,0,
,-0.247,-0.108,1.056,241.333,-86.365,-78.431,0,0,0,
,-0.249,-0.277,1.158,408.569,-118.897,-94.91,0,0,0,
,-0.328,-0.23,0.991,363.159,-114.014,-76.966,0,0,0,
,-0.285,-0.383,0.906,368.408,-90.699,-61.341,0,0,0,
,-0.276,-0.444,0.873,286.255,-42.054,-60.242,0,0,0,
,-0.299,-0.392,0.924,189.514,-10.926,-88.44,0,0,0,
,-0.21,-0.354,0.976,124.023,9.521,-110.474,0,0,0,
,-0.216,-0.292,1.006,53.527,17.395,-115.296,0,0,0,
,-0.222,-0.213,0.984,2.38,23.376,-114.747,0,0,0,
,-0.217,-0.233,0.936,3.356,21.545,-112.305,0,0,0,
,-0.238,-0.163,0.896,-3.968,21.728,-106.446,0,0,0,
,-0.227,-0.204,0.941,22.949,22.155,-87.159,0,0,0,
,-0.225,-0.224,0.966,28.198,19.653,-85.572,0,0,0,
,-0.24,-0.24,0.964,33.081,14.038,-72.144,0,0,0,
,-0.255,-0.282,1.012,39.978,2.624,-86.487,0,0,0,
,-0.28,-0.289,0.994,7.934,-9.705,-82.825,0,0,0,
,-0.275,-0.268,0.929,-34.18,-10.926,-91.37,0,0,0,
,-0.255,-0.262,0.959,20.263,-22.095,-87.22,0,0,0,
,-0.28,-0.283,0.96,51.818,-25.391,-94.117,0,0,0,
,-0.292,-0.323,0.99,37.17,-20.386,-95.337,0,0,0,
,-0.292,-0.277,0.953,15.747,-19.654,-88.807,0,0,0,
,-0.303,-0.282,0.928,56.274,-17.823,-102.539,0,0,0,
,-0.309,-0.4,0.917,44.738,-9.4,-124.512,0,0,0,
,-0.28,-0.412,0.936,-66.773,1.892,-148.011,0,0,0,
,-0.278,-0.203,0.924,-80.994,-7.752,-189.82,0,0,0,
,-0.277,-0.338,0.926,-36.255,-1.221,-190.43,0,0,0,
,-0.283,-0.192,0.946,13.732,1.953,-205.323,0,0,0,
,-0.251,-0.2,0.98,36.56,10.376,-188.904,0,0,0,
,-0.266,-0.196,0.965,-33.936,25.085,-155.701,0,0,0,
,-0.25,-0.261,0.957,64.636,13.977,-181.458,0,0,0,
,-0.262,-0.457,0.895,1.831,69.824,-212.83,0,0,0,
,-0.228,-0.238,0.984,-33.814,82.58,-241.761,0,0,0,
,-0.218,-0.352,0.996,-53.833,98.632,-252.32,0,0,0,
,-0.197,-0.107,1.003,-163.086,120.239,-233.033,0,0,0,
,-0.175,-0.131,1.022,-124.634,118.713,-158.387,0,0,0,
,-0.187,-0.029,0.98,-203.431,113.342,-145.813,0,0,0,
,-0.184,-0.11,0.989,-182.435,101.684,-103.516,0,0,0,
,-0.207,-0.131,0.978,-206.482,83.923,-79.041,0,0,0,
,-0.194,-0.12,0.959,-188.355,52.246,-67.383,0,0,0,
,-0.179,-0.129,1.022,-173.584,23.071,-59.754,0,0,0,
,-0.172,-0.051,1.111,-82.886,-18.311,-64.515,0,0,0,
,-0.16,-0.069,1.121,-79.834,-56.458,-51.697,0,0,0,
,-0.174,-0.062,1.073,-140.137,-93.995,-33.875,0,0,0,
,-0.204,-0.1,1.066,-257.874,-123.902,-7.569,0,0,0,
,-0.187,0.056,1.095,-389.344,-145.02,65.124,0,0,0,
,-0.241,0.027,1.032,-373.475,-159.485,77.087,0,0,0,
,-0.262,0.097,0.979,-243.592,-161.927,119.934,0,0,0,
,-0.287,0.09,0.893,-98.389,-138.123,181.823,0,0,0,
,-0.304,0.113,0.851,0.976,-112.854,244.445,0,0,0,
,-0.321,0.085,0.832,56.213,-69.092,314.209,0,0,0,
,-0.311,0.184,0.782,70.861,0.915,359.924,0,0,0,
,-0.318,0.061,0.799,110.473,44.555,397.888,0,0,0,
,-0.379,-0.125,0.852,64.025,108.825,368.591,0,0,0,
,-0.313,-0.156,0.861,32.531,157.226,379.577,0,0,0,
,-0.329,-0.245,0.777,-47.12,194.763,391.052,0,0,0,
,-0.366,-0.223,0.696,-138.489,245.788,390.808,0,0,0,
,-0.354,-0.307,0.635,-251.343,287.231,375.427,0,0,0,
,-0.407,-0.101,0.705,-222.596,325.988,314.026,0,0,0,
,-0.251,-0.255,0.947,532.837,218.872,162.231,0,0,0,
,-0.389,-0.699,1.032,578.369,118.347,127.014,0,0,0,
,-0.306,-0.986,1.212,234.558,74.34,-0.55,0,0,0,
,-0.278,-0.583,1.11,-159.668,45.471,-80.689,0,0,0,
,-0.227,-0.394,1.078,-234.864,11.535,-95.52,0,0,0,
,-0.242,-0.102,0.901,-47.608,-9.461,-154.969,0,0,0,
,-0.244,-0.065,0.882,487.671,-41.81,-150.757,0,0,0,
,-0.239,-0.218,1.05,754.028,-57.557,-72.632,0,0,0,
,-0.198,-0.095,1.207,617.981,-52.491,-85.755,0,0,0,
,-0.278,-0.333,1.36,402.526,-86.976,-80.872,0,0,0,
,-0.229,-0.256,1.241,159.484,-124.207,-68.665,0,0,0,
,-0.295,-0.305,1.024,117.981,-142.579,-64.148,0,0,0,
,-0.247,-0.331,0.879,184.936,-142.334,-70.191,0,0,0,
,-0.271,-0.435,0.858,250.244,-124.756,-49.927,0,0,0,
,-0.294,-0.235,0.891,87.707,-50.354,-40.101,0,0,0,
,-0.27,-0.288,0.898,47.912,-37.903,-31.678,0,0,0,
,-0.28,-0.288,0.866,74.585,-19.165,-4.822,0,0,0,
,-0.268,-0.359,0.83,80.627,-8.606,-0.123,0,0,0,
,-0.275,-0.314,0.821,45.105,10.681,-7.203,0,0,0,
,-0.249,-0.288,0.883,66.589,21.24,-12.391,0,0,0,
,-0.235,-0.29,0.969,65.002,28.93,-22.706,0,0,0,
,-0.249,-0.298,0.98,19.043,32.287,-25.208,0,0,0,
,-0.256,-0.291,0.885,-5.799,20.446,-51.514,0,0,0,
,-0.27,-0.294,0.873,20.996,17.211,-56.702,0,0,0,
,-0.257,-0.267,0.925,72.204,5.004,-64.148,0,0,0,
,-0.27,-0.313,0.951,86.731,-10.865,-58.594,0,0,0,
,-0.264,-0.333,0.951,48.4,-18.311,-48.768,0,0,0,
,-0.291,-0.35,0.916,4.882,-20.691,-49.988,0,0,0,
,-0.287,-0.396,0.924,24.78,-26.429,-56.031,0,0,0,
,-0.289,-0.289,0.924,77.331,-29.541,-72.144,0,0,0,
,-0.289,-0.418,0.925,139.16,-36.988,-91.919,0,0,0,
,-0.277,-0.427,0.962,140.686,-31.861,-126.893,0,0,0,
,-0.312,-0.494,0.945,174.133,-21.363,-208.68,0,0,0,
,-0.322,-0.82,0.831,142.273,5.676,-296.753,0,0,0,
,-0.338,-0.52,0.814,73.12,22.522,-439.454,0,0,0,
,-0.299,-1.065,0.772,-66.468,103.454,-462.586,0,0,0,
,-0.274,-0.379,0.725,-362.61,151.794,-592.591,0,0,0,
,-0.286,-0.36,0.777,-212.159,167.175,-590.332,0,0,0,
,-0.127,-0.323,1.012,-391.907,201.721,-502.076,0,0,0,
,-0.114,-0.18,1.079,-405.945,212.829,-410.767,0,0,0,
,-0.166,0.129,1.042,-371.277,216.003,-366.822,0,0,0,
,-0.103,0.003,0.988,-320.252,208.252,-255.31,0,0,0,
,-0.139,0.222,1.068,-445.74,153.991,-173.706,0,0,0,
,-0.191,0.15,1.051,-487.183,117.37,-109.986,0,0,0,
,-0.189,0.167,0.998,-521.546,92.468,-33.814,0,0,0,
,-0.236,0.186,1.006,-480.103,65.246,44.067,0,0,0,
,-0.211,0.194,0.983,-360.84,30.578,81.237,0,0,0,
,-0.24,0.27,0.999,-195.191,-3.602,131.713,0,0,0,
,-0.243,0.207,0.971,-14.161,-38.575,178.344,0,0,0,
,-0.271,0.132,0.986,109.68,-72.327,237.365,0,0,0,
,-0.289,0.086,0.965,189.392,-97.413,286.682,0,0,0,
,-0.313,0.051,0.958,201.355,-110.901,331.604,0,0,0,
,-0.314,0.013,0.937,125.671,-107.178,382.08,0,0,0,
,-0.32,-0.055,0.897,45.227,-88.623,410.095,0,0,0,
,-0.316,-0.232,0.83,40.344,9.887,443.603,0,0,0,
,-0.311,-0.262,0.846,74.585,38.879,430.603,0,0,0,
,-0.284,-0.313,0.846,81.237,76.11,417.358,0,0,0,
,-0.218,-0.308,0.996,337.707,24.047,303.833,0,0,0,
,-0.329,-0.641,0.887,414.55,40.344,317.871,0,0,0,
,-0.254,-0.521,0.91,456.054,52.551,201.477,0,0,0,
,-0.291,-0.607,0.954,233.337,56.579,129.15,0,0,0,
,-0.292,-0.664,0.952,27.404,101.318,35.461,0,0,0,
,-0.244,-0.631,0.953,-108.948,96.191,-121.705,0,0,0,
,-0.334,-0.451,0.882,-102.112,90.82,-142.762,0,0,0,
,-0.34,-0.151,0.894,18.127,92.407,-162.232,0,0,0,
,-0.327,-0.184,0.916,184.021,80.749,-120.362,0,0,0,
,-0.339,-0.185,1.001,246.582,69.274,-99.976,0,0,0,
,-0.289,-0.299,1.063,210.083,41.381,-67.566,0,0,0,
,-0.261,-0.335,1.094,100.647,18.981,-56.214,0,0,0,
,-0.234,-0.285,1.051,39.794,-1.16,-58.716,0,0,0,
,-0.234,-0.223,1.007,53.772,-26.49,-64.82,0,0,0,
,-0.232,-0.237,0.985,89.111,-54.688,-67.2,0,0,0,
,-0.223,-0.277,0.966,81.543,-74.952,-56.275,0,0,0,
,-0.233,-0.29,0.967,82.397,-81.482,-61.646,0,0,0,
,-0.229,-0.306,0.999,57.251,-83.558,-58.167,0,0,0,
,-0.233,-0.278,0.968,75.683,-72.022,-64.026,0,0,0,
,-0.258,-0.317,0.908,107.238,-65.308,-61.89,0,0,0,
,-0.262,-0.349,0.889,85.571,-53.101,-67.2,0,0,0,
,-0.262,-0.345,0.869,30.212,-29.358,-70.618,0,0,0,
,-0.265,-0.32,0.848,53.649,-12.391,-68.909,0,0,0,
,-0.288,-0.283,0.87,151.062,-4.639,-58.106,0,0,0,
,-0.271,-0.284,0.895,190.063,-4.212,-63.05,0,0,0,
,-0.251,-0.355,0.904,211.181,-11.78,-78.553,0,0,0,
,-0.272,-0.364,0.927,235.534,-7.874,-86.731,0,0,0,
,-0.272,-0.336,0.982,175.109,-0.428,-106.873,0,0,0,
,-0.286,-0.429,0.988,71.533,3.967,-142.212,0,0,0,
,-0.298,-0.505,0.929,-2.747,11.596,-214.844,0,0,0,
,-0.362,-0.775,0.774,55.236,30.395,-353.821,0,0,0,
,-0.304,-0.805,0.729,-46.082,87.463,-405.701,0,0,0,
,-0.244,-0.689,0.793,-91.858,132.324,-483.948,0,0,0,
,-0.206,-0.466,1.01,-299.439,157.898,-515.503,0,0,0,
,-0.146,-0.1,1.205,-683.411,203.552,-384.339,0,0,0,
,-0.16,0.387,1.076,-909.363,108.947,-176.575,0,0,0,
,-0.178,-0.033,1.052,-385.926,40.588,-184.571,0,0,0,
,-0.185,0.181,1.024,-195.008,0.976,-121.827,0,0,0,
,-0.202,0.14,1.022,-37.171,-31.373,-54.078,0,0,0,
,-0.229,0.108,1.031,-31.373,-64.515,-31.739,0,0,0,
,-0.23,0.082,1.02,-110.657,-96.985,4.76,0,0,0,
,-0.273,0.14,1.007,-173.096,-130.31,52.063,0,0,0,
,-0.276,0.201,1.003,-172.547,-155.579,90.393,0,0,0,
,-0.287,0.159,0.972,-104.371,-172.608,121.521,0,0,0,
,-0.29,0.126,0.9,11.047,-174.744,167.602,0,0,0,
,-0.313,0.084,0.847,79.467,-159.241,215.82,0,0,0,
,-0.318,0.025,0.804,117.309,-127.808,270.385,0,0,0,
,-0.32,0.009,0.792,73.608,-81.116,322.815,0,0,0,
,-0.317,0.004,0.77,14.892,-12.574,338.256,0,0,0,
,-0.31,-0.062,0.801,-9.766,46.875,360.046,0,0,0,
,-0.311,-0.165,0.799,-5.738,89.111,373.901,0,0,0,
,-0.324,-0.178,0.757,3.54,120.056,379.577,0,0,0,
,-0.333,-0.244,0.783,44.86,148.315,380.92,0,0,0,
,-0.335,-0.315,0.88,9.643,176.147,364.135,0,0,0,
,-0.332,-0.402,0.961,-175.11,201.965,338.256,0,0,0,
,-0.327,-0.353,0.962,-322.449,198.73,285.339,0,0,0,
,-0.304,-0.337,0.899,-376.709,178.039,217.529,0,0,0,
,-0.292,-0.255,0.899,-198.792,157.653,164.245,0,0,0,
,-0.313,-0.323,0.921,-46.875,153.076,130.371,0,0,0,
,-0.296,-0.313,1.007,15.441,144.043,77.819,0,0,0,
,-0.324,-0.499,1.212,24.597,101.013,-11.719,0,0,0,
,-0.31,-0.179,1.014,-173.523,80.993,-77.881,0,0,0,
,-0.313,-0.175,0.928,-62.806,66.04,-126.343,0,0,0,
,-0.317,-0.063,0.909,107.727,61.523,-180.909,0,0,0,
,-0.297,-0.128,0.928,289.367,62.072,-153.992,0,0,0,
,-0.288,-0.116,1.037,266.113,66.894,-106.629,0,0,0,
,-0.246,-0.131,1.153,150.268,50.354,-94.239,0,0,0,
,-0.269,-0.218,1.106,34.118,18.127,-144.227,0,0,0,
,-0.238,-0.217,1.018,15.258,0.671,-145.264,0,0,0,
,-0.265,-0.116,0.956,105.651,-22.95,-182.557,0,0,0,
,-0.246,-0.199,0.977,97.961,-52.063,-210.633,0,0,0,
,-0.248,-0.296,0.939,93.2,-61.219,-250.123,0,0,0,
,-0.157,-0.119,0.976,22.094,-56.214,-235.718,0,0,0,
,-0.187,0.021,1.034,42.175,-57.496,-184.205,0,0,0,
,-0.196,-0.186,1.011,-31.556,-41.871,-179.078,0,0,0,
,-0.208,0.018,0.912,-114.014,-28.565,-125.55,0,0,0,
,-0.198,0.041,0.925,42.968,-26.612,-82.52,0,0,0,
,-0.198,-0.062,1.015,149.536,-29.114,-50.782,0,0,0,
,-0.205,-0.119,1.041,204.101,-22.278,-40.589,0,0,0,
,-0.234,-0.136,1.015,270.385,-21.302,-44.678,0,0,0,
,-0.24,-0.204,0.984,371.582,-48.584,-58.716,0,0,0,
,-0.225,-0.188,0.993,370.178,-60.425,-49.378,0,0,0,
,-0.26,-0.222,0.959,413.696,-62.928,-64.942,0,0,0,
,-0.282,-0.367,0.943,424.255,-65.064,-82.215,0,0,0,
,-0.327,-0.592,0.817,458.74,-50.965,-359.62,0,0,0,
,-0.292,-1.347,0.915,481.445,-6.653,-435.059,0,0,0,
,-0.24,-0.18,1.036,-401.368,64.514,-511.109,0,0,0,
,-0.116,-0.439,0.932,-246.644,102.478,-539.368,0,0,0,
,-0.11,-0.056,1.161,-773.865,31.738,-215.882,0,0,0,
,-0.192,0.172,1.088,-923.218,6.652,-178.101,0,0,0,
,-0.273,0.228,0.934,-947.327,-23.011,-113.892,0,0,0,
,-0.323,0.312,0.892,-687.867,-63.721,-94.666,0,0,0,
,-0.345,0.292,0.86,-317.444,-91.553,-53.528,0,0,0,
,-0.332,0.242,0.898,-5.921,-110.291,-11.475,0,0,0,
,-0.359,0.142,0.907,82.763,-120.057,34.484,0,0,0,
,-0.362,0.046,0.901,95.642,-117.249,63.598,0,0,0,
,-0.373,-0.037,0.901,34.545,-122.01,104.431,0,0,0,
,-0.397,0.008,0.881,20.263,-117.737,142.578,0,0,0,
,-0.388,0.039,0.85,169.616,-98.45,170.898,0,0,0,
,-0.381,-0.089,0.819,259.338,-74.158,203.857,0,0,0,
,-0.319,-0.196,0.983,506.286,-5.799,303.466,0,0,0,
,-0.312,-0.211,0.881,470.337,3.479,294.006,0,0,0,
,-0.334,-0.248,0.781,326.294,39.917,353.332,0,0,0,
,-0.277,-0.214,0.761,125,84.106,359.802,0,0,0,
,-0.266,-0.333,0.838,-110.84,118.53,356.933,0,0,0,
,-0.219,-0.277,0.942,-272.339,158.813,294.86,0,0,0,
,-0.234,-0.202,0.984,-303.956,196.35,244.14,0,0,0,
,-0.188,-0.209,1.057,-233.46,226.257,206.726,0,0,0,
,-0.201,-0.322,1.033,-146.18,224.426,192.382,0,0,0,
,-0.246,-0.222,0.833,-104.371,262.939,134.277,0,0,0,
,-0.219,-0.455,1.055,-185.364,183.471,48.523,0,0,0,
,-0.224,-0.352,1.118,-322.754,155.517,-10.743,0,0,0,
,-0.199,-0.331,1.062,-354.92,106.628,-95.154,0,0,0,
,-0.23,-0.268,1.018,-241.456,69.885,-155.701,0,0,0,
,-0.233,-0.255,0.965,-200.074,54.748,-197.51,0,0,0,
,-0.232,-0.17,1.029,-159.913,47.485,-233.521,0,0,0,
,-0.222,-0.147,1.02,-164.063,40.527,-251.648,0,0,0,
,-0.249,-0.169,1.028,-234.681,33.203,-244.202,0,0,0,
,-0.288,-0.088,1.033,-312.317,8.056,-227.967,0,0,0,
,-0.279,-0.101,1.055,-421.082,-21.485,-209.656,0,0,0,
,-0.346,-0.015,1.022,-448.487,-36.56,-205.201,0,0,0,
,-0.333,0.068,0.985,-354.92,-39.612,-193.665,0,0,0,
,-0.355,-0.014,0.978,-37.293,-93.14,-180.542,0,0,0,
,-0.398,0.104,0.861,-66.529,-76.539,-128.602,0,0,0,
,-0.367,0.043,0.834,-21.729,-64.087,-125.855,0,0,0,
,-0.3,-0.044,0.883,-40.406,-44.922,-127.381,0,0,0,
,-0.31,-0.088,0.877,-179.627,-18.311,-105.53,0,0,0,
,-0.293,0.075,0.924,-223.816,8.789,-88.868,0,0,0,
,-0.292,0.119,0.996,-80.445,32.836,-90.027,0,0,0,
,-0.263,0.123,0.961,150.817,48.156,-115.723,0,0,0,
,-0.244,0.129,1.051,343.322,31.616,-127.137,0,0,0,
,-0.16,-0.082,1.163,538.33,49.255,-144.959,0,0,0,
,-0.211,-0.338,1.002,426.941,49.072,-141.846,0,0,0,
,-0.176,-0.187,0.867,223.632,40.893,-93.934,0,0,0,
,-0.187,-0.117,0.88,167.663,45.044,-123.414,0,0,0,
,-0.146,-0.117,0.861,104.675,45.166,-105.591,0,0,0,
,-0.148,-0.112,0.887,-26.612,28.137,-66.04,0,0,0,
,-0.111,0.008,0.967,-198.06,47.546,-35.096,0,0,0,
,-0.114,0.214,1.018,-312.134,71.533,26.855,0,0,0,
,-0.222,0.154,0.996,-87.708,64.941,13.794,0,0,0,
,-0.147,0.115,0.901,-77.393,84.35,35.034,0,0,0,
,-0.295,-0.396,1.184,-270.264,10.253,-18.982,0,0,0,
,-0.296,-0.053,1.01,-426.758,21.972,-40.955,0,0,0,
,-0.335,-0.048,1.062,-16.968,-52.491,-140.259,0,0,0,
,-0.357,-0.221,1.056,183.899,-94.239,-188.538,0,0,0,
,-0.256,-0.135,0.945,136.169,-105.774,-185.181,0,0,0,
,-0.329,-0.137,0.896,92.407,-97.352,-198.426,0,0,0,
,-0.282,-0.117,0.945,145.08,-95.154,-192.261,0,0,0,
,-0.298,-0.08,0.978,231.567,-87.098,-164.673,0,0,0,
,-0.302,-0.099,0.908,336.059,-72.388,-143.799,0,0,0,
,-0.337,-0.131,0.85,300.109,-45.777,-121.46,0,0,0,
,-0.347,-0.124,0.894,205.139,-23.621,-101.136,0,0,0,
,-0.356,-0.104,0.927,166.992,-1.648,-96.619,0,0,0,
,-0.401,-0.083,0.916,211.059,5.432,-94.727,0,0,0,
,-0.416,-0.158,0.896,253.906,8.239,-89.478,0,0,0,
,-0.376,-0.123,0.885,266.662,-10.254,-90.577,0,0,0,
,-0.316,-0.119,0.957,409.118,-55.787,-115.723,0,0,0,
,-0.314,-0.3,0.961,386.047,-113.892,-183.96,0,0,0,
,-0.365,-0.26,0.999,297.363,-170.411,-273.743,0,0,0,
,-0.388,-0.448,1.108,251.831,-219.422,-431.519,0,0,0,
,-0.298,-0.372,1.216,49.011,-266.846,-427.918,0,0,0,
,-0.407,-0.307,1.135,89.843,-254.029,-531.25,0,0,0,
,-0.353,-0.574,1.034,-256.714,-171.082,-458.985,0,0,0,
,-0.324,-0.096,0.895,-451.111,-120.24,-441.468,0,0,0,
,-0.367,-0.296,0.778,-127.808,-55.726,-438.294,0,0,0,
,-0.284,-0.234,0.975,-67.566,32.898,-311.951,0,0,0,
,-0.272,-0.1,1.082,-74.707,113.037,-200.806,0,0,0,
,-0.245,0.079,1.09,-252.381,169.189,-109.009,0,0,0,
,-0.245,0.007,1.098,-248.658,174.316,-12.818,0,0,0,
,-0.259,-0.112,1.123,-404.664,191.711,27.648,0,0,0,
,-0.257,-0.159,1.117,-632.874,184.997,44.006,0,0,0,
,-0.328,-0.16,1.028,-848.511,169.006,8.178,0,0,0,
,-0.294,-0.023,1.02,-941.346,139.77,-26.368,0,0,0,
,-0.255,0.278,0.916,-924.439,99.975,-39.673,0,0,0,
,-0.21,0.273,0.815,-792.847,40.649,-31.128,0,0,0,
,-0.194,0.481,0.75,-490.418,-19.41,18.371,0,0,0,
,-0.189,0.378,0.602,-90.882,-64.087,83.19,0,0,0,
,-0.326,0.441,0.766,-12.94,-104.859,188.903,0,0,0,
,-0.321,0.484,0.913,-31.739,-129.761,274.841,0,0,0,
,-0.344,0.57,0.983,-84.046,-154.175,347.107,0,0,0,
,-0.313,0.543,1.003,-100.281,-149.292,427.612,0,0,0,
,-0.313,0.364,0.96,-163.331,-129.7,479.675,0,0,0,
,-0.336,0.341,0.898,-163.514,-68.177,519.104,0,0,0,
,-0.344,0.234,0.8,-82.093,-0.794,564.026,0,0,0,
,-0.335,0.139,0.684,28.076,69.885,567.138,0,0,0,
,-0.384,0.08,0.674,145.691,139.404,581.298,0,0,0,
,-0.339,0.019,0.811,340.332,199.157,564.575,0,0,0,
,-0.329,-0.044,0.904,552.368,236.816,536.621,0,0,0,
,-0.36,-0.053,0.869,742.859,240.234,504.394,0,0,0,
,-0.4,-0.147,0.763,767.151,273.193,480.346,0,0,0,
,-0.398,-0.264,0.696,651.245,300.048,436.645,0,0,0,
,-0.422,-0.321,0.929,475.097,271.118,406.799,0,0,0,
,-0.261,-0.451,1.013,961.486,288.757,259.948,0,0,0,
,-0.376,-0.597,1.101,777.71,197.57,229.126,0,0,0,
,-0.427,-0.849,0.998,147.338,213.867,123.596,0,0,0,
,-0.353,-0.403,0.965,-281.8,219.238,33.691,0,0,0,
,-0.31,-0.191,1.09,-220.459,211.303,1.037,0,0,0,
,-0.248,-0.188,1.006,-171.631,233.642,3.418,0,0,0,
,-0.291,-0.082,0.996,-139.039,209.045,5.798,0,0,0,
,-0.205,-0.032,1.063,-220.52,186.95,22.705,0,0,0,
,-0.187,0.036,1.085,-181.641,137.268,-2.869,0,0,0,
,-0.224,-0.073,0.996,-79.346,96.313,-0.855,0,0,0,
,-0.202,-0.132,0.932,40.771,64.086,-19.471,0,0,0,
,-0.19,-0.214,0.91,67.81,31.677,-28.26,0,0,0,
,-0.162,-0.043,1.009,35.949,-1.16,-43.152,0,0,0,
,-0.148,-0.032,1.023,-12.085,-47.303,-68.299,0,0,0,
,-0.222,0.075,0.902,9.643,-97.474,-97.901,0,0,0,
,-0.239,-0.005,1.031,196.716,-120.484,-101.441,0,0,0,
,-0.235,-0.099,1.155,222.412,-131.653,-97.107,0,0,0,
,-0.339,-0.156,0.982,84.533,-123.291,-103.028,0,0,0,
,-0.316,-0.142,0.851,40.954,-91.675,-120.606,0,0,0,
,-0.302,-0.168,0.836,117.981,-61.524,-113.282,0,0,0,
,-0.296,-0.18,0.886,153.625,-16.846,-111.573,0,0,0,
,-0.265,-0.207,0.965,79.65,31.005,-119.629,0,0,0,
,-0.269,-0.182,0.999,-26.978,71.594,-121.949,0,0,0,
,-0.24,-0.19,0.981,-176.88,106.994,-124.756,0,0,0,
,-0.231,-0.096,0.934,-193.604,127.929,-117.981,0,0,0,
,-0.207,-0.052,0.953,9.216,134.399,-112.732,0,0,0,
,-0.196,-0.163,0.988,156.311,131.897,-92.774,0,0,0,
,-0.208,-0.172,1.03,82.092,140.258,-76.966,0,0,0,
,-0.192,-0.133,1.029,-14.161,138.488,-88.013,0,0,0,
,-0.204,-0.205,1.02,-15.137,128.357,-137.696,0,0,0,
,-0.19,-0.223,0.972,-175.782,141.235,-179.627,0,0,0,
,-0.168,-0.161,0.931,-120.972,152.343,-271.424,0,0,0,
,-0.115,-0.252,1.027,-73.548,150.39,-301.88,0,0,0,
,-0.091,0.069,1.056,-461.426,159.912,-260.315,0,0,0,
,-0.092,-0.073,0.988,-312.989,129.15,-286.377,0,0,0,
,-0.118,0.147,1.106,-609.253,126.403,-214.6,0,0,0,
,-0.098,0.159,1.078,-560.914,100.647,-194.092,0,0,0,
,-0.162,0.051,1.03,-462.464,68.176,-196.228,0,0,0,
,-0.146,0.159,1.08,-533.204,26.428,-155.152,0,0,0,
,-0.165,0.243,1.082,-595.093,-11.597,-144.593,0,0,0,
,-0.177,0.256,1.084,-605.652,-63.477,-144.043,0,0,0,
,-0.195,0.288,1.044,-580.201,-115.723,-109.436,0,0,0,
,-0.229,0.317,1.02,-476.685,-160.035,-95.337,0,0,0,
,-0.281,0.331,1.012,-361.268,-189.148,-68.909,0,0,0,
,-0.284,0.331,0.991,-215.943,-198.792,-40.894,0,0,0,
,-0.295,0.318,0.977,-56.58,-192.2,8.361,0,0,0,
,-0.316,0.306,0.965,88.073,-173.768,59.997,0,0,0,
,-0.305,0.274,0.925,213.745,-146.485,116.455,0,0,0,
,-0.324,0.232,0.883,303.344,-112.122,160.888,0,0,0,
,-0.309,0.218,0.855,362.976,-82.947,215.576,0,0,0,
,-0.303,0.041,0.835,431.762,-75.379,280.456,0,0,0,
,-0.323,0.19,0.8,501.464,-52.735,286.132,0,0,0,
,-0.274,0.098,0.789,598.327,-53.956,298.767,0,0,0,
,-0.269,-0.094,0.86,608.947,-52.247,257.934,0,0,0,
,-0.236,-0.138,0.922,717.224,-71.045,216.308,0,0,0,
,-0.248,-0.205,0.897,758.728,-80.384,191.345,0,0,0,
,-0.254,-0.238,0.849,658.813,-65.247,157.714,0,0,0,
,-0.255,-0.234,0.844,567.443,-45.166,99.67,0,0,0,
,-0.238,-0.243,0.913,482.177,-13.855,61.096,0,0,0,
,-0.181,-0.254,1.035,491.943,-18.982,-5.86,0,0,0,
,-0.204,-0.435,1.04,350.402,6.836,-47.303,0,0,0,
,-0.199,-0.313,0.996,-288.392,81.543,-241.272,0,0,0,
,-0.202,-0.228,0.904,-270.203,94.238,-266.541,0,0,0,
,-0.231,-0.151,0.815,-203.614,92.834,-261.719,0,0,0,
,-0.261,-0.156,0.788,-152.955,103.088,-238.221,0,0,0,
,-0.268,-0.104,0.868,-11.414,105.529,-254.029,0,0,0,
,-0.3,-0.167,0.992,159.912,91.552,-241.7,0,0,0,
,-0.287,-0.137,1.075,247.009,95.581,-281.006,0,0,0,
,-0.325,-0.305,1.027,209.35,77.88,-308.106,0,0,0,
,-0.358,-0.273,0.959,64.758,105.285,-359.131,0,0,0,
,-0.343,-0.258,0.959,-27.1,132.385,-321.9,0,0,0,
,-0.358,-0.287,0.976,-81.482,171.508,-308.716,0,0,0,
,-0.29,-0.203,1.002,-9.888,200.378,-251.893,0,0,0,
,-0.252,-0.176,1.073,54.199,201.172,-213.257,0,0,0,
,-0.244,-0.198,1.031,22.094,200.134,-183.106,0,0,0,
,-0.264,-0.161,0.939,-24.964,175.659,-156.495,0,0,0,
,-0.292,-0.111,0.934,9.399,155.578,-117.554,0,0,0,
,-0.303,-0.134,1.002,67.199,128.967,-72.693,0,0,0,
,-0.283,-0.124,1.045,109.924,103.82,-23.194,0,0,0,
,-0.284,-0.081,1.069,169.922,67.138,0.122,0,0,0,
,-0.31,-0.066,1.06,231.018,23.254,11.535,0,0,0,
,-0.313,-0.008,1.016,324.218,-16.358,27.099,0,0,0,
,-0.311,-0.003,0.95,465.393,-44.617,40.039,0,0,0,
,-0.326,-0.083,0.963,420.654,-59.754,65.979,0,0,0,
,-0.3,-0.342,0.89,164.917,-98.572,52.246,0,0,0,
,-0.288,-0.397,0.909,76.355,-106.812,33.203,0,0,0,
,-0.26,-0.303,0.886,-3.296,-111.817,0.061,0,0,0,
,-0.249,-0.292,0.899,-13.489,-107.239,-15.748,0,0,0,
,-0.215,-0.323,0.92,-41.565,-105.957,-44.434,0,0,0,
,-0.194,-0.412,0.93,-94.422,-101.807,-72.632,0,0,0,
,-0.175,-0.422,0.954,-143.86,-103.455,-96.68,0,0,0,
,-0.169,-0.363,0.996,-162.72,-101.807,-117.005,0,0,0,
,-0.189,-0.29,1.017,-134.522,-100.159,-130.677,0,0,0,
,-0.246,-0.29,0.972,-51.636,-88.074,-171.448,0,0,0,
,-0.313,-0.356,1.015,91.308,-71.595,-199.646,0,0,0,
,-0.387,-0.352,1.075,13.916,-25.635,-215.027,0,0,0,
,-0.39,0.005,1.126,-117.005,12.573,-198.975,0,0,0,
,-0.35,-0.059,1.316,-185.669,7.812,-150.879,0,0,0,
,-0.304,-0.075,1.207,-80.079,-7.142,-126.709,0,0,0,
,-0.34,-0.076,0.956,-33.143,-28.321,-9.278,0,0,0,
,-0.316,-0.054,0.884,-74.83,-30.945,12.268,0,0,0,
,-0.293,-0.273,0.823,-16.724,-8.912,41.748,0,0,0,
,-0.239,-0.229,0.868,-210.572,23.559,98.693,0,0,0,
,-0.236,-0.273,0.888,-369.751,36.438,41.565,0,0,0,
,-0.226,-0.429,0.809,-585.816,76.477,11.291,0,0,0,
,-0.148,-0.367,0.732,-837.037,108.886,-16.663,0,0,0,
,-0.084,-0.251,0.767,-926.636,98.51,-69.092,0,0,0,
,-0.046,-0.13,0.853,-942.505,72.998,-94.178,0,0,0,
,0.003,-0.004,0.975,-994.568,46.386,-110.657,0,0,0,
,0.055,0.057,1.078,-1233.216,-27.955,-105.896,0,0,0,
,0.026,0.152,1.055,-1496.644,-64.698,-92.652,0,0,0,
,-0.004,0.257,0.99,-1669.251,-110.779,-69.519,0,0,0,
,-0.107,0.36,0.889,-1662.232,-134.949,-40.345,0,0,0,
,-0.216,0.513,0.888,-1492.249,-137.513,-17.09,0,0,0,
,-0.301,0.529,0.866,-1232.789,-135.254,-12.513,0,0,0,
,-0.409,0.493,0.823,-980.347,-114.93,-8.057,0,0,0,
,-0.442,0.581,0.792,-702.332,-76.783,7.995,0,0,0,
,-0.476,0.621,0.744,-373.047,-25.818,42.236,0,0,0,
,-0.457,0.681,0.735,-95.581,14.892,83.313,0,0,0,
,-0.431,0.671,0.746,223.205,47.607,137.878,0,0,0,
,-0.401,0.625,0.742,535.278,78.674,200.195,0,0,0,
,-0.365,0.563,0.769,747.68,81.298,266.662,0,0,0,
,-0.366,0.459,0.754,898.498,74.768,312.255,0,0,0,
,-0.363,0.441,0.772,982.788,43.518,345.764,0,0,0,
,-0.333,0.293,0.801,1041.687,2.807,344.055,0,0,0,
,-0.31,0.255,0.847,1151.001,-35.645,349.67,0,0,0,
,-0.324,0.166,0.822,1244.201,-77.637,354.004,0,0,0,
,-0.328,0.086,0.837,1298.278,-122.803,342.224,0,0,0,
,-0.34,-0.024,0.847,1303.588,-156.617,321.045,0,0,0,
,-0.353,-0.109,0.87,1189.941,-168.457,295.654,0,0,0,
,-0.372,-0.215,0.889,1041.748,-177.613,259.46,0,0,0,
,-0.398,-0.287,0.906,798.278,-147.706,243.713,0,0,0,
,-0.387,-0.36,0.917,460.388,-105.53,207.458,0,0,0,
,-0.419,-0.375,0.97,141.845,-81.604,178.772,0,0,0,
,-0.436,-0.297,0.981,-137.452,-25.147,171.508,0,0,0,
,-0.432,-0.275,0.914,-284.729,8.606,144.958,0,0,0,
,-0.472,-0.151,0.831,-280.823,37.414,119.079,0,0,0,
,-0.391,-0.172,1.001,104.065,0.732,45.532,0,0,0,
,-0.507,-0.235,0.928,253.54,15.38,94.238,0,0,0,
,-0.411,-0.192,0.922,184.814,59.692,54.931,0,0,0,
,-0.438,-0.211,0.941,86.975,67.199,71.411,0,0,0,
,-0.475,-0.095,0.927,21.179,103.637,92.102,0,0,0,
,-0.426,-0.055,0.945,23.681,118.957,84.289,0,0,0,
,-0.412,-0.053,1.003,60.302,113.769,92.956,0,0,0,
,-0.413,-0.007,1.02,44.555,95.947,123.474,0,0,0,
,-0.412,-0.06,1.017,20.507,62.683,123.291,0,0,0,
,-0.422,-0.136,0.979,-28.26,57.922,112.976,0,0,0,
,-0.384,-0.176,0.914,-59.266,53.711,98.327,0,0,0,
,-0.39,-0.22,0.829,-36.866,53.466,72.692,0,0,0,
,-0.38,-0.169,0.776,18.493,72.448,81.604,0,0,0,
,-0.37,-0.219,0.759,98.205,87.28,40.771,0,0,0,
,-0.4,-0.287,0.821,118.652,105.102,26.123,0,0,0,
,-0.459,-0.258,0.843,57.19,136.901,20.69,0,0,0,
,-0.434,-0.176,0.952,100.769,159.057,-22.95,0,0,0,
,-0.395,-0.243,1.054,219.787,148.498,-57.984,0,0,0,
,-0.411,-0.284,1.004,205.566,154.052,-75.684,0,0,0,
,-0.398,-0.187,0.928,186.462,158.874,-115.418,0,0,0,
,-0.361,-0.252,0.955,223.327,147.216,-138.916,0,0,0,
,-0.289,-0.229,1.013,207.763,146.423,-161.805,0,0,0,
,-0.287,-0.148,0.954,236.755,135.864,-196.106,0,0,0,
,-0.266,-0.302,1,232.177,125,-196.473,0,0,0,
,-0.254,-0.172,0.98,79.589,147.155,-193.177,0,0,0,
,-0.253,-0.246,0.917,98.877,144.653,-213.807,0,0,0,
,-0.246,-0.279,0.935,136.108,138.061,-220.032,0,0,0,
,-0.198,-0.072,0.946,161.804,140.747,-197.327,0,0,0,
,-0.213,-0.076,1.002,231.201,120.3,-193.787,0,0,0,
,-0.192,-0.247,1.063,146.728,111.999,-196.595,0,0,0,
,-0.21,-0.058,1.038,5.92,104.004,-183.472,0,0,0,
,-0.241,-0.237,1.002,-54.932,88.928,-191.346,0,0,0,
,-0.237,-0.192,0.935,-161.133,94.238,-173.768,0,0,0,
,-0.225,-0.083,0.797,3.967,79.406,-170.105,0,0,0,
,-0.233,-0.179,0.804,178.711,75.561,-180.664,0,0,0,
,-0.178,-0.251,1.045,160.339,84.411,-182.129,0,0,0,
,-0.144,-0.272,1.092,42.846,85.388,-208.008,0,0,0,
,-0.123,-0.306,1.045,-55.054,74.829,-215.516,0,0,0,
,-0.131,-0.374,1.007,-141.907,54.016,-252.259,0,0,0,
,-0.079,-0.373,0.913,-150.147,47.668,-298.157,0,0,0,
,-0.057,-0.435,1,-268.25,24.841,-314.942,0,0,0,
,-0.001,-0.27,1.136,-638.672,0.122,-300.415,0,0,0,
,-0.013,0.002,1.165,-824.097,-33.509,-275.574,0,0,0,
,-0.055,-0.018,1.057,-791.26,-54.505,-262.635,0,0,0,
,-0.104,0.051,1.011,-769.715,-75.074,-211.304,0,0,0,
,-0.138,0.095,0.988,-708.924,-73.426,-139.1,0,0,0,
,-0.163,0.201,0.991,-576.477,-73.67,-66.102,0,0,0,
,-0.226,0.246,0.923,-406.128,-61.829,10.315,0,0,0,
,-0.297,0.221,0.891,-183.838,-11.292,141.662,0,0,0,
,-0.282,0.193,0.952,-96.436,0.488,182.434,0,0,0,
,-0.305,0.154,0.966,-63.477,18.859,240.051,0,0,0,
,-0.328,0.076,0.903,-90.21,49.743,296.997,0,0,0,
,-0.335,0.082,0.887,-19.104,64.025,330.627,0,0,0,
,-0.358,0.078,0.895,136.718,85.754,370.666,0,0,0,
,-0.364,0.039,0.904,254.638,104.858,380.737,0,0,0,
,-0.37,0.039,0.95,398.315,126.342,383.056,0,0,0,
,-0.363,-0.098,0.934,493.835,143.921,386.047,0,0,0,
,-0.362,-0.136,0.958,560.302,162.719,378.723,0,0,0,
,-0.346,-0.164,0.951,579.101,169.189,371.704,0,0,0,
,-0.362,-0.163,0.905,573.974,176.88,354.675,0,0,0,
,-0.372,-0.291,1.021,548.706,111.877,276.733,0,0,0,
,-0.254,-0.55,0.995,485.656,106.811,128.051,0,0,0,
,-0.377,-0.554,1.106,20.141,119.018,77.88,0,0,0,
,-0.258,-0.522,1.06,-90.332,119.262,-56.397,0,0,0,
,-0.294,-0.57,0.925,-202.21,109.985,-156.434,0,0,0,
,-0.348,-0.235,0.815,-329.651,103.637,-173.523,0,0,0,
,-0.315,0.075,0.743,-30.823,71.655,-211.548,0,0,0,
,-0.307,-0.216,0.779,268.676,17.761,-188.904,0,0,0,
,-0.286,-0.254,0.945,215.149,-8.24,-131.714,0,0,0,
,-0.197,-0.121,1.076,209.9,-47.364,-120.057,0,0,0,
,-0.238,-0.07,1,275.39,-66.224,-140.015,0,0,0,
,-0.235,-0.162,0.805,168.457,-43.641,-173.523,0,0,0,
,-0.207,-0.342,0.888,155.395,-43.58,-187.073,0,0,0,
,-0.174,-0.371,0.939,29.602,-32.837,-189.942,0,0,0,
,-0.195,-0.231,0.968,7.324,-22.278,-202.393,0,0,0,
,-0.194,-0.254,1.021,-9.522,-20.264,-196.717,0,0,0,
,-0.188,-0.092,1.059,-17.518,-19.715,-195.191,0,0,0,
,-0.182,-0.224,1.067,-18.982,-20.691,-165.772,0,0,0,
,-0.203,-0.18,1.05,-65.43,-24.476,-134.339,0,0,0,
,-0.22,-0.214,1.04,-83.558,-12.207,-108.399,0,0,0,
,-0.235,-0.167,1.049,-23.194,2.441,-72.632,0,0,0,
,-0.224,-0.174,1.04,61.828,11.657,-22.95,0,0,0,
,-0.226,-0.2,1.015,120.788,16.967,21.789,0,0,0,
,-0.224,-0.243,1.038,55.786,32.104,60.852,0,0,0,
,-0.229,-0.15,1.03,97.168,44.25,74.707,0,0,0,
,-0.237,-0.251,1.017,152.588,52.673,80.078,0,0,0,
,-0.232,-0.296,0.949,109.497,74.401,51.94,0,0,0,
,-0.252,-0.314,0.919,159.484,87.463,15.747,0,0,0,
,-0.289,-0.386,0.902,192.443,102.6,-61.28,0,0,0,
,-0.285,-0.616,0.93,15.136,158.569,-93.995,0,0,0,
,-0.276,-0.269,0.906,-62.928,183.41,-257.386,0,0,0,
,-0.182,-0.668,0.982,-117.249,221.557,-257.874,0,0,0,
,-0.216,-0.037,0.996,-247.071,205.017,-329.712,0,0,0,
,-0.139,-0.003,1.128,-382.203,204.345,-183.35,0,0,0,
,-0.058,0.254,1.175,-287.903,169.738,-182.984,0,0,0,
,-0.145,0.024,1.071,-379.334,137.024,-122.559,0,0,0,
,-0.167,0.262,0.912,-582.703,123.108,-50.66,0,0,0,
,-0.188,0.11,0.882,-402.649,92.956,-16.724,0,0,0,
,-0.183,0.006,0.96,-354.554,59.021,-16.968,0,0,0,
,-0.183,0.072,0.984,-249.329,16.723,-18.616,0,0,0,
,-0.184,0.01,0.99,-183.777,-24.842,-36.194,0,0,0,
,-0.174,0.056,1.005,-223.206,-67.933,-52.613,0,0,0,
,-0.178,0.074,0.994,-294.19,-107.483,-76.05,0,0,0,
,-0.199,0.015,0.969,-409.913,-136.963,-86.609,0,0,0,
,-0.195,0.111,0.98,-512.635,-174.439,-93.75,0,0,0,
,-0.21,0.182,0.995,-535.584,-210.877,-99.671,0,0,0,
,-0.23,0.191,0.99,-549.744,-235.108,-100.769,0,0,0,
,-0.23,0.254,0.999,-546.998,-251.221,-106.324,0,0,0,
,-0.222,0.232,0.996,-549.988,-260.56,-76.477,0,0,0,
,-0.221,0.215,0.978,-621.277,-247.132,-42.481,0,0,0,
,-0.202,0.243,0.924,-660.889,-238.343,7.446,0,0,0,
,-0.234,0.223,0.83,-699.463,-224.61,71.899,0,0,0,
,-0.276,0.261,0.779,-634.522,-197.876,98.693,0,0,0,
,-0.244,0.297,0.803,-422.974,-156.8,138.427,0,0,0,
,-0.266,0.284,0.824,-149.048,-121.155,170.044,0,0,0,
,-0.308,0.25,0.854,246.093,-42.969,205.932,0,0,0,
,-0.404,0.047,0.803,565.429,75.5,248.962,0,0,0,
,-0.373,0.066,0.865,626.342,101.867,219.116,0,0,0,
,-0.369,0.105,0.852,772.888,129.089,230.285,0,0,0,
,-0.307,0.08,1.063,1054.687,49.682,221.13,0,0,0,
,-0.279,-0.213,1.012,1387.878,47.485,164.734,0,0,0,
,-0.336,-0.75,1.094,947.998,24.047,157.653,0,0,0,
,-0.361,-0.533,1.21,155.273,4.394,106.567,0,0,0,
,-0.323,-0.28,1.181,19.409,17.15,59.936,0,0,0,
,-0.36,-0.306,1.099,12.268,22.644,12.756,0,0,0,
,-0.287,-0.185,1,89.355,56.03,-5.372,0,0,0,
,-0.249,-0.27,0.901,130.371,68.054,57.373,0,0,0,
,-0.306,-0.169,0.997,336.853,42.663,71.472,0,0,0,
,-0.265,-0.172,1.011,387.878,61.035,83.618,0,0,0,
,-0.32,-0.239,0.972,444.885,65.856,56.518,0,0,0,
,-0.281,-0.311,0.971,345.581,70.373,36.377,0,0,0,
,-0.287,-0.271,0.98,214.05,84.716,12.451,0,0,0,
,-0.242,-0.268,0.817,37.292,86.303,-79.407,0,0,0,
,-0.23,-0.16,0.76,110.962,98.449,-107.361,0,0,0,
,-0.214,-0.205,0.804,144.348,127.258,-102.539,0,0,0,
,-0.223,-0.219,0.895,81.176,158.569,-107.972,0,0,0,
,-0.227,-0.209,0.894,-26.246,186.462,-119.202,0,0,0,
,-0.227,-0.141,0.868,-83.252,200.195,-130.616,0,0,0,
,-0.245,-0.125,0.888,-97.596,191.955,-134.034,0,0,0,
,-0.235,-0.135,0.918,-123.414,179.138,-126.282,0,0,0,
,-0.231,-0.102,0.933,-51.453,160.644,-123.352,0,0,0,
,-0.243,-0.182,0.977,1.281,140.564,-131.958,0,0,0,
,-0.238,-0.195,0.992,-10.926,133.789,-147.706,0,0,0,
,-0.224,-0.28,0.946,43.762,120.422,-171.631,0,0,0,
,-0.229,-0.369,0.868,100.036,103.637,-225.098,0,0,0,
,-0.232,-0.382,0.894,146.606,95.642,-237.793,0,0,0,
,-0.213,-0.161,1.072,184.57,102.172,-304.871,0,0,0,
,-0.124,-0.455,1.283,126.037,93.689,-380.066,0,0,0,
,-0.136,-0.191,1.26,-450.745,125.366,-380.86,0,0,0,
,-0.13,0.257,1.191,-497.986,101.196,-247.742,0,0,0,
,-0.153,-0.224,1.098,200.744,28.32,-132.447,0,0,0,
,-0.206,-0.388,1.079,201.599,7.69,-124.451,0,0,0,
,-0.2,-0.122,1.062,-10.315,-6.958,-75.501,0,0,0,
,-0.173,-0.057,1.082,193.847,-49.744,-110.779,0,0,0,
,-0.204,-0.168,1.168,282.653,-94.544,-127.076,0,0,0,
,-0.214,-0.195,1.066,318.115,-136.78,-177.918,0,0,0,
,-0.214,-0.388,0.981,298.095,-155.518,-213.99,0,0,0,
,-0.186,-0.27,0.994,10.376,-153.016,-200.928,0,0,0,
,-0.175,-0.146,0.964,-78.248,-154.053,-234.436,0,0,0,
,-0.183,-0.217,0.963,-123.536,-158.387,-206.055,0,0,0,
,-0.18,-0.048,0.947,-281.373,-150.574,-166.871,0,0,0,
,-0.198,0.01,0.93,-355.103,-152.405,-135.437,0,0,0,
,-0.211,0,0.935,-365.052,-153.626,-95.887,0,0,0,
,-0.227,0.031,0.916,-302.735,-148.621,-42.908,0,0,0,
,-0.239,0.064,0.88,-145.813,-147.461,3.723,0,0,0,
,-0.262,0.089,0.804,66.894,-143.067,46.814,0,0,0,
,-0.279,0.024,0.824,228.393,-135.01,84.961,0,0,0,
,-0.281,-0.058,0.842,312.378,-116.089,119.69,0,0,0,
,-0.285,-0.037,0.891,407.104,-87.586,139.526,0,0,0,
,-0.275,-0.122,0.918,474.365,-69.458,165.039,0,0,0,
,-0.3,-0.154,0.852,472.656,-45.472,170.41,0,0,0,
,-0.292,-0.137,0.864,446.228,-4.212,172.607,0,0,0,
,-0.281,-0.22,0.876,404.48,34.362,191.467,0,0,0,
,-0.287,-0.31,0.911,284.179,77.575,199.646,0,0,0,
,-0.268,-0.403,0.948,29.968,119.506,210.327,0,0,0,
,-0.292,-0.579,1.009,-488.587,146.667,185.302,0,0,0,
,-0.187,-0.21,1.075,-1223.084,159.179,133.056,0,0,0,
,-0.172,-0.114,1.109,-1097.901,133.789,102.722,0,0,0,
,-0.243,-0.113,1.003,-799.134,77.392,66.955,0,0,0,
,-0.235,-0.122,0.994,-500.733,36.926,40.588,0,0,0,
,-0.228,-0.088,0.99,-339.539,10.864,49.255,0,0,0,
,-0.292,-0.017,0.978,-256.287,-8.789,53.833,0,0,0,
,-0.283,-0.069,1.018,-186.707,-21.79,68.359,0,0,0,
,-0.264,-0.07,1.034,-252.991,-44.983,85.083,0,0,0,
,-0.308,0.065,1.004,-268.86,-71.289,87.219,0,0,0,
,-0.287,0.019,0.984,-131.104,-93.323,93.078,0,0,0,
,-0.319,-0.012,0.947,-21.485,-129.273,97.595,0,0,0,
,-0.323,-0.053,0.953,8.361,-147.95,125.366,0,0,0,
,-0.322,-0.1,0.933,-155.335,-121.521,50.231,0,0,0,
,-0.278,-0.085,0.89,-185.425,-114.319,27.954,0,0,0,
,-0.291,0.018,0.839,-145.813,-102.539,-45.899,0,0,0,
,-0.292,0.026,0.827,78.491,-96.497,-138.611,0,0,0,
,-0.314,-0.07,0.783,170.41,-68.543,-218.506,0,0,0,
,-0.271,-0.047,0.833,183.776,-30.213,-303.833,0,0,0,
,-0.288,-0.012,0.96,-263.977,-0.184,-348.45,0,0,0,
,-0.203,0.109,0.99,-249.024,-33.692,-339.417,0,0,0,
,-0.26,0.098,0.991,-288.025,-75.928,-305.359,0,0,0,
,-0.308,0.14,0.977,-298.157,-94.422,-266.785,0,0,0,
,-0.326,0.21,0.956,-158.57,-94.727,-241.089,0,0,0,
,-0.357,0.302,0.875,84.594,-86.548,-216.248,0,0,0,
,-0.369,0.272,0.857,319.397,-80.994,-187.928,0,0,0,
,-0.381,0.225,0.908,407.898,-34.546,-151.368,0,0,0,
,-0.356,0.268,0.987,531.738,-13.245,-132.447,0,0,0,
,-0.371,0.075,0.852,607.177,10.986,-141.48,0,0,0,
,-0.343,-0.039,1.128,412.231,-37.903,-151.795,0,0,0,
,-0.393,0.059,1.104,350.891,-12.207,-151.917,0,0,0,
,-0.326,0.03,1.077,387.207,-34.729,-178.101,0,0,0,
,-0.369,-0.127,1.052,281.067,-65.125,-188.05,0,0,0,
,-0.39,-0.278,0.953,-51.575,-46.326,-194.031,0,0,0,
,-0.344,-0.015,0.91,-287.964,-82.398,-215.638,0,0,0,
,-0.355,0.041,0.985,-158.814,-134.156,-305.359,0,0,0,
,-0.377,0.004,0.967,-87.159,-176.27,-339.661,0,0,0,
,-0.413,-0.001,0.916,-55.664,-186.28,-371.644,0,0,0,
,-0.43,-0.132,0.929,-37.232,-192.749,-387.574,0,0,0,
,-0.465,-0.256,0.872,-51.819,-176.087,-421.936,0,0,0,
,-0.509,-0.294,0.841,-70.496,-185.425,-424.5,0,0,0,
,-0.501,-0.162,0.909,-32.715,-198.304,-420.96,0,0,0,
,-0.491,-0.16,0.951,-51.941,-195.313,-406.006,0,0,0,
,-0.47,-0.148,0.976,-82.459,-176.026,-388.855,0,0,0,
,-0.502,-0.078,0.991,-39.063,-163.208,-333.313,0,0,0,
,-0.499,-0.155,0.99,36.438,-157.776,-302.857,0,0,0,
,-0.483,-0.028,1.01,152.71,-161.377,-235.535,0,0,0,
,-0.407,-0.092,1.058,301.635,-141.907,-183.228,0,0,0,
,-0.446,-0.066,0.977,261.047,-114.075,-128.052,0,0,0,
,-0.4,-0.071,0.961,184.143,-82.764,-103.028,0,0,0,
,-0.38,0.026,1.03,62.5,-53.162,-85.755,0,0,0,
,-0.36,0.065,1.02,167.419,-45.838,-71.228,0,0,0,
,-0.362,-0.031,1.048,320.617,-54.566,-52.185,0,0,0,
,-0.437,-0.089,1.082,293.274,-55.787,-42.725,0,0,0,
,-0.471,-0.139,0.984,161.316,-39.307,-44.068,0,0,0,
,-0.453,-0.073,0.842,30.212,-16.175,-26.062,0,0,0,
,-0.449,0.027,0.725,21.118,-3.846,-12.574,0,0,0,
,-0.43,0.078,0.749,130.127,-1.282,8.544,0,0,0,
,-0.446,-0.004,0.827,230.163,7.202,32.47,0,0,0,
,-0.447,-0.062,0.943,208.435,7.568,43.212,0,0,0,
,-0.463,-0.114,0.943,121.032,-0.061,19.409,0,0,0,
,-0.475,-0.092,0.88,55.847,-15.198,-16.968,0,0,0,
,-0.435,-0.08,0.883,109.314,-35.767,-36.133,0,0,0,
,-0.43,-0.083,0.887,121.948,-41.565,-36.011,0,0,0,
,-0.426,-0.081,0.904,78.613,-35.584,-32.471,0,0,0,
,-0.442,-0.084,0.85,84.228,-10.865,-28.016,0,0,0,
,-0.435,-0.051,0.875,108.764,6.591,5.92,0,0,0,
,-0.402,-0.034,0.918,83.801,30.029,45.715,0,0,0,
,-0.387,-0.023,0.956,65.612,39.245,92.468,0,0,0,
,-0.372,-0.088,0.956,27.404,44.433,83.984,0,0,0,
,-0.398,-0.113,0.914,28.198,43.64,95.764,0,0,0,
,-0.386,-0.203,0.996,70.068,42.053,129.15,0,0,0,
,-0.405,-0.12,0.991,137.512,35.644,178.955,0,0,0,
,-0.399,-0.071,1.046,220.337,-3.602,177.185,0,0,0,
,-0.401,-0.14,1.079,241.516,-41.993,172.363,0,0,0,
,-0.457,-0.173,0.745,215.454,-55.481,183.899,0,0,0,
,-0.469,-0.147,0.706,267.517,-39.368,170.532,0,0,0,
,-0.496,-0.304,0.753,378.662,-30.64,114.441,0,0,0,
,-0.416,-0.287,0.834,241.577,18.798,93.872,0,0,0,
,-0.525,-0.229,0.798,296.875,55.908,-10.01,0,0,0,
,-0.515,-0.705,0.819,274.353,87.524,-125.855,0,0,0,
,-0.506,-0.334,0.824,-28.992,150.207,-171.814,0,0,0,
,-0.439,-0.482,0.86,-282.288,187.744,-234.009,0,0,0,
,-0.423,-0.234,0.917,-350.342,230.163,-297.852,0,0,0,
,-0.294,-0.347,0.984,-574.219,219.238,-330.628,0,0,0,
,-0.213,-0.277,1.117,-971.253,199.463,-347.657,0,0,0,
,-0.174,0.182,0.993,-1595.948,122.375,-271.668,0,0,0,
,-0.224,0.363,0.84,-1618.958,69.458,-233.643,0,0,0,
,-0.252,0.367,0.741,-1497.986,53.283,-177.918,0,0,0,
,-0.255,0.396,0.774,-1337.952,35.339,-107.056,0,0,0,
,-0.273,0.421,0.789,-1197.449,28.442,-18.921,0,0,0,
,-0.317,0.462,0.831,-1016.907,40.649,18.493,0,0,0,
,-0.344,0.449,0.819,-892.212,60.18,74.218,0,0,0,
,-0.376,0.467,0.803,-804.749,82.763,97.534,0,0,0,
,-0.384,0.456,0.747,-742.066,114.563,120.422,0,0,0,
,-0.379,0.488,0.697,-654.602,132.873,113.464,0,0,0,
,-0.375,0.549,0.715,-436.89,139.648,100.891,0,0,0,
,-0.366,0.535,0.756,-206.971,140.625,94.543,0,0,0,
,-0.371,0.441,0.762,-89.844,138.305,84.838,0,0,0,
,-0.354,0.42,0.781,-58.228,130.127,79.589,0,0,0,
,-0.351,0.483,0.772,-55.054,131.836,82.824,0,0,0,
,-0.331,0.503,0.841,-51.697,108.032,63.903,0,0,0,
,-0.323,0.418,0.894,-0.672,91.003,51.757,0,0,0,
,-0.331,0.455,0.863,-39.673,64.819,54.321,0,0,0,
,-0.335,0.498,0.843,-8.912,25.634,51.33,0,0,0,
,-0.341,0.477,0.84,-74.036,-2.564,76.171,0,0,0,
,-0.384,0.463,0.86,-204.285,-21.302,39.062,0,0,0,
,-0.378,0.428,0.867,-344.361,-46.326,5.188,0,0,0,
,-0.412,0.371,0.826,-508.362,-48.218,-13.001,0,0,0,
,-0.399,0.357,0.859,-659.424,-57.373,-9.156,0,0,0,
,-0.433,0.306,0.749,-777.222,-46.936,0.183,0,0,0,
,-0.421,0.319,0.699,-882.447,-49.012,6.347,0,0,0,
,-0.428,0.373,0.742,-964.661,-63.111,-3.846,0,0,0,
,-0.409,0.497,0.758,-924.195,-83.252,-13.733,0,0,0,
,-0.461,0.563,0.705,-781.495,-128.846,-14.344,0,0,0,
,-0.45,0.545,0.689,-673.035,-142.884,-22.767,0,0,0,
,-0.493,0.639,0.643,-541.932,-148.56,-13.794,0,0,0,
,-0.47,0.626,0.611,-478.943,-120.972,4.943,0,0,0,
,-0.488,0.695,0.581,-417.481,-92.53,16.113,0,0,0,
,-0.495,0.762,0.662,-258.912,-59.693,14.526,0,0,0,
,-0.456,0.651,0.776,-103.089,-40.833,32.409,0,0,0,
,-0.518,0.696,0.819,-45.472,-35.95,39.428,0,0,0,
,-0.53,0.685,0.78,130.554,-13.733,25.207,0,0,0,
,-0.56,0.482,0.64,374.45,2.38,-12.024,0,0,0,
,-0.577,0.476,0.624,521.301,26.977,-50.782,0,0,0,
,-0.52,0.464,0.692,702.087,46.691,-51.392,0,0,0,
,-0.559,0.616,0.738,808.288,86.303,-53.101,0,0,0,
,-0.468,0.591,0.799,981.628,79.04,-16.358,0,0,0,
,-0.52,0.692,0.76,991.943,78.125,-23.255,0,0,0,
,-0.526,0.62,0.704,895.63,89.416,13.671,0,0,0,
,-0.52,0.697,0.703,784.301,116.821,13.061,0,0,0,
,-0.42,0.473,0.664,796.997,105.102,70.922,0,0,0,
,-0.435,0.389,0.599,569.519,93.505,153.747,0,0,0,
,-0.442,0.568,0.635,527.832,136.963,180.542,0,0,0,
,-0.427,0.444,0.656,694.946,139.648,219.177,0,0,0,
,-0.46,0.384,0.697,711.181,132.751,207.824,0,0,0,
,-0.484,0.344,0.703,682.556,105.529,193.786,0,0,0,
,-0.481,0.267,0.766,653.442,83.618,163.696,0,0,0,
,-0.464,0.033,0.772,495.849,62.805,134.277,0,0,0,
,-0.422,0.074,0.907,274.841,41.015,81.604,0,0,0,
,-0.421,0.177,1.027,306.518,-25.025,37.963,0,0,0,
,-0.402,0.284,0.947,340.82,-53.467,15.625,0,0,0,
,-0.419,0.31,0.944,281.311,-81.421,35.034,0,0,0,
,-0.402,0.341,0.951,315.612,-96.924,47.729,0,0,0,
,-0.433,0.164,0.908,263.733,-95.643,46.875,0,0,0,
,-0.43,0.19,0.903,195.922,-90.577,39.489,0,0,0,
,-0.412,0.235,0.858,129.089,-69.397,43.212,0,0,0,
,-0.42,0.137,0.851,-13.245,-22.644,73.181,0,0,0,
,-0.399,0.318,0.814,-309.693,24.963,112.304,0,0,0,
,-0.366,0.459,0.922,-467.957,16.967,136.23,0,0,0,
,-0.381,0.367,0.963,-177.124,1.464,101.44,0,0,0,
,-0.392,0.275,0.918,-104.371,9.155,109.863,0,0,0,
,-0.423,0.2,0.842,-104.248,5.249,129.882,0,0,0,
,-0.481,0.236,0.902,-53.589,0.549,125.122,0,0,0,
,-0.452,0.294,0.984,87.951,-59.266,95.031,0,0,0,
,-0.474,0.263,0.946,72.204,-52.002,90.698,0,0,0,
,-0.448,0.083,0.947,35.034,-57.557,72.448,0,0,0,
,-0.493,-0.026,0.978,-93.995,-31.067,25.512,0,0,0,
,-0.462,0.039,0.945,-113.282,-16.297,6.103,0,0,0,
,-0.539,0.018,0.845,-76.905,10.681,-11.902,0,0,0,
,-0.521,0.156,0.722,3.54,44.982,-15.015,0,0,0,
,-0.521,0.156,0.706,122.253,98.266,-15.32,0,0,0,
,-0.547,0.191,0.716,295.471,137.451,-12.085,0,0,0,
,-0.496,-0.033,0.8,415.1,174.255,13.488,0,0,0,
,-0.486,0.093,0.896,431.701,211.914,56.945,0,0,0,
,-0.5,0.098,0.969,482.055,230.835,109.924,0,0,0,
,-0.481,0.196,1.034,487.609,258.361,150.39,0,0,0,
,-0.478,0.149,1.066,346.191,275.634,215.149,0,0,0,
,-0.394,0.146,1.028,260.498,300.171,275.085,0,0,0,
,-0.381,0.084,0.939,303.833,327.087,326.721,0,0,0,
,-0.354,0.063,0.863,371.215,373.108,348.877,0,0,0,
,-0.302,-0.009,0.937,538.086,385.498,346.13,0,0,0,
,-0.269,-0.093,0.994,663.635,371.338,336.364,0,0,0,
,-0.284,-0.082,1.013,624.817,369.018,321.045,0,0,0,
,-0.273,-0.166,1.042,436.767,374.023,287.109,0,0,0,
,-0.257,-0.137,1.046,265.991,356.079,247.924,0,0,0,
,-0.296,-0.039,0.958,143.127,341.369,188.72,0,0,0,
,-0.283,0.019,0.875,196.899,300.415,138.549,0,0,0,
,-0.267,0.052,0.833,364.99,249.694,105.346,0,0,0,
,-0.244,0.043,0.9,516.601,200.439,109.069,0,0,0,
,-0.259,-0.063,0.915,579.834,160.095,112.365,0,0,0,
,-0.274,-0.142,0.957,485.046,144.836,105.59,0,0,0,
,-0.294,-0.145,0.967,327.026,140.93,93.444,0,0,0,
,-0.293,-0.069,0.953,308.532,112.182,56.03,0,0,0,
,-0.282,-0.086,0.952,304.26,77.209,34.301,0,0,0,
,-0.256,-0.134,0.954,306.823,58.776,34.301,0,0,0,
,-0.253,-0.246,0.934,207.153,55.419,37.231,0,0,0,
,-0.265,-0.22,0.914,155.273,51.208,34.301,0,0,0,
,-0.314,-0.188,0.846,191.101,40.649,26.55,0,0,0,
,-0.293,-0.181,0.819,240.478,47.119,26.733,0,0,0,
,-0.288,-0.142,0.891,350.647,56.945,40.161,0,0,0,
,-0.253,-0.313,0.984,375.244,54.26,62.439,0,0,0,
,-0.25,-0.42,1.033,280.822,66.772,61.95,0,0,0,
,-0.222,-0.326,1.036,151.306,87.768,46.203,0,0,0,
,-0.179,-0.202,1.02,87.829,96.374,35.034,0,0,0,
,-0.143,-0.2,1.06,188.049,71.838,20.385,0,0,0,
,-0.134,-0.24,1.116,174.011,44.494,13.671,0,0,0,
,-0.132,-0.272,1.078,163.147,13.244,6.652,0,0,0,
,-0.116,-0.304,1.086,163.818,-9.461,-3.602,0,0,0,
,-0.133,-0.304,1.064,106.262,-17.823,-1.831,0,0,0,
,-0.173,-0.276,0.969,73.669,-28.26,1.586,0,0,0,
,-0.19,-0.307,0.934,81.298,-36.927,2.685,0,0,0,
,-0.2,-0.286,0.899,137.329,-44.373,3.784,0,0,0,
,-0.281,-0.263,0.878,223.632,-53.101,0.305,0,0,0,
,-0.275,-0.392,0.94,225.83,-44.129,-5.616,0,0,0,
,-0.31,-0.343,0.895,140.747,-16.846,1.098,0,0,0,
,-0.342,-0.408,0.805,49.377,3.418,10.009,0,0,0,
,-0.365,-0.312,0.73,14.953,29.419,19.958,0,0,0,
,-0.328,-0.356,0.82,54.87,52.551,20.629,0,0,0,
,-0.26,-0.391,0.947,5.065,84.045,20.996,0,0,0,
,-0.238,-0.3,0.965,-7.264,82.702,13.61,0,0,0,
,-0.186,-0.352,0.989,-48.829,72.815,7.385,0,0,0,
,-0.187,-0.383,0.987,-14.405,52.673,-13.062,0,0,0,
,-0.222,-0.434,0.901,3.051,31.86,-52.918,0,0,0,
,-0.294,-0.661,0.869,97.168,33.386,-163.514,0,0,0,
,-0.274,-0.843,0.775,163.696,41.198,-319.581,0,0,0,
,-0.151,-0.788,1.168,-124.878,30.09,-402.955,0,0,0,
,-0.038,-0.631,1.128,-203.248,59.997,-473.023,0,0,0,
,-0.086,-0.577,1.101,-429.2,85.815,-475.831,0,0,0,
,0.074,-0.26,1.231,-733.521,25.451,-430.97,0,0,0,
,0.024,-0.124,1.124,-890.809,-25.208,-368.775,0,0,0,
,-0.018,-0.082,1.094,-978.211,-71.9,-297.486,0,0,0,
,-0.028,0.085,1.042,-926.697,-123.414,-233.521,0,0,0,
,-0.044,0.128,1.024,-840.149,-152.405,-169.556,0,0,0,
,-0.071,0.117,0.983,-705.567,-174.866,-114.014,0,0,0,
,-0.117,0.034,0.96,-655.884,-187.195,-76.294,0,0,0,
,-0.144,0.06,0.963,-690.613,-179.627,-49.134,0,0,0,
,-0.167,0.068,0.975,-653.016,-183.411,-23.56,0,0,0,
,-0.188,0.068,0.967,-607.85,-191.224,-6.47,0,0,0,
,-0.26,0.029,0.925,-583.802,-169.007,3.051,0,0,0,
,-0.271,0.09,0.878,-589.722,-136.536,12.512,0,0,0,
,-0.275,0.107,0.856,-598.328,-118.47,22.338,0,0,0,
,-0.304,0.157,0.841,-652.527,-103.211,42.114,0,0,0,
,-0.337,0.216,0.791,-595.459,-83.313,40.832,0,0,0,
,-0.367,0.2,0.742,-538.086,-58.96,37.719,0,0,0,
,-0.378,0.258,0.664,-613.709,-6.714,51.879,0,0,0,
,-0.36,0.38,0.638,-554.444,23.742,42.419,0,0,0,
,-0.373,0.392,0.709,-333.435,28.747,37.048,0,0,0,
,-0.376,0.332,0.743,-110.474,72.57,43.579,0,0,0,
,-0.38,0.107,0.773,-28.26,82.214,34.668,0,0,0,
,-0.388,0.241,0.821,107.788,88.989,32.898,0,0,0,
,-0.404,0.175,0.799,208.252,89.538,36.987,0,0,0,
,-0.416,0.132,0.784,218.017,99.731,33.02,0,0,0,
,-0.417,0.119,0.857,223.51,122.924,42.175,0,0,0,
,-0.417,0.067,0.828,129.455,152.038,45.471,0,0,0,
,-0.385,-0.014,0.853,-10.132,168.762,60.913,0,0,0,
,-0.383,0.124,0.804,-41.016,160.461,13.61,0,0,0,
,-0.292,0.046,0.983,164.917,100.586,-35.462,0,0,0,
,-0.335,0.161,0.952,329.04,61.767,-41.321,0,0,0,
,-0.276,0.031,1.087,340.149,21.24,-66.407,0,0,0,
,-0.302,0.05,1.158,421.569,14.526,-49.012,0,0,0,
,-0.271,0.033,1.228,350.525,-9.949,-44.8,0,0,0,
,-0.257,0.051,1.199,300.415,-78.37,-42.115,0,0,0,
,-0.289,-0.063,1.101,59.997,-111.756,-40.589,0,0,0,
,-0.285,0.097,0.954,-65.43,-95.032,-34.79,0,0,0,
,-0.29,0.052,0.959,-25.452,-116.822,-60.303,0,0,0,
,-0.318,0.128,1.008,-14.893,-123.841,-58.655,0,0,0,
,-0.317,0.16,0.969,163.635,-120.85,-54.81,0,0,0,
,-0.405,0.001,0.914,198.059,-94.91,-68.665,0,0,0,
,-0.422,0.017,0.861,153.32,-41.382,-76.477,0,0,0,
,-0.349,-0.012,0.818,158.386,-20.508,-60.303,0,0,0,
,-0.266,-0.079,1.08,67.199,-48.829,-32.227,0,0,0,
,-0.275,0.015,1.162,109.314,-14.161,-64.942,0,0,0,
,-0.286,-0.031,1.127,272.705,-14.893,-78.797,0,0,0,
,-0.337,-0.113,1.05,206.237,-36.194,-68.055,0,0,0,
,-0.396,-0.021,0.952,126.892,-67.688,-63.66,0,0,0,
,-0.417,-0.041,0.885,173.217,-82.947,-77.21,0,0,0,
,-0.378,-0.038,0.953,223.327,-81.482,-34.119,0,0,0,
,-0.343,-0.103,1.05,207.153,-80.384,-70.801,0,0,0,
,-0.413,-0.089,1.068,257.873,-69.458,-48.706,0,0,0,
,-0.375,-0.018,1.074,323.486,-44.678,-16.48,0,0,0,
,-0.398,-0.067,1.07,413.635,-7.569,-6.531,0,0,0,
,-0.407,-0.061,0.971,508.728,35.949,2.99,0,0,0,
,-0.438,-0.091,0.842,479.736,81.543,-3.235,0,0,0,
,-0.413,0.037,0.802,428.039,144.897,-1.038,0,0,0,
,-0.344,-0.126,0.881,404.785,179.321,-1.099,0,0,0,
,-0.321,-0.108,0.879,417.419,195.373,-0.55,0,0,0,
,-0.359,-0.208,0.87,411.743,197.815,-18.616,0,0,0,
,-0.331,-0.301,0.846,204.467,187.866,-41.382,0,0,0,
,-0.259,-0.121,0.836,167.907,157.165,-47.547,0,0,0,
,-0.24,-0.137,0.896,220.153,137.146,-58.96,0,0,0,
,-0.258,-0.111,0.948,220.52,129.028,-58.228,0,0,0,
,-0.292,-0.095,0.948,187.011,117.37,-55.298,0,0,0,
,-0.299,-0.15,0.934,174.621,104.736,-39.795,0,0,0,
,-0.297,-0.164,0.981,89.416,116.943,-0.184,0,0,0,
,-0.294,-0.079,1.047,9.399,109.375,34.118,0,0,0,
,-0.309,-0.063,1.057,-11.475,89.111,29.541,0,0,0,
,-0.281,-0.088,1.071,31.555,83.007,0.244,0,0,0,
,-0.321,-0.125,1.028,127.807,63.659,24.719,0,0,0,
,-0.344,-0.201,0.981,125.915,55.297,56.762,0,0,0,
,-0.326,-0.336,0.95,80.139,64.148,84.289,0,0,0,
,-0.335,-0.297,0.976,5.493,64.575,81.42,0,0,0,
,-0.327,-0.328,0.995,-107.3,74.829,82.519,0,0,0,
,-0.334,-0.276,0.986,-197.754,88.989,89.294,0,0,0,
,-0.366,-0.404,0.968,-345.459,109.924,71.899,0,0,0,
,-0.372,-0.398,0.972,-495.972,133.85,15.38,0,0,0,
,-0.24,-0.429,1.011,-762.085,155.395,-3.174,0,0,0,
,-0.205,-0.207,1.073,-878.113,134.155,-54.017,0,0,0,
,-0.192,0.217,1.013,-830.628,113.403,-64.331,0,0,0,
,-0.138,0.054,1.072,-625.306,78.125,-120.484,0,0,0,
,-0.1,0.033,1.002,-460.633,46.264,-136.719,0,0,0,
,-0.149,0.172,0.915,-309.51,22.949,-130.738,0,0,0,
,-0.048,0.039,1.104,-399.598,1.464,-108.216,0,0,0,
,-0.085,0.12,1.186,-540.467,-32.227,-103.76,0,0,0,
,-0.038,0.133,1.145,-844.117,-55.97,-63.782,0,0,0,
,-0.094,0.248,1.04,-1079.834,-86.976,-40.528,0,0,0,
,-0.089,0.265,1.006,-1249.085,-118.592,-11.902,0,0,0,
,-0.096,0.369,0.961,-1251.404,-161.072,16.845,0,0,0,
,-0.126,0.473,0.895,-1150.208,-186.524,52.551,0,0,0,
,-0.125,0.595,0.872,-989.624,-214.722,77.575,0,0,0,
,-0.136,0.538,0.831,-783.631,-236.268,92.163,0,0,0,
,-0.199,0.544,0.792,-637.879,-252.808,128.601,0,0,0,
,-0.207,0.55,0.753,-507.569,-243.348,155.09,0,0,0,
,-0.237,0.528,0.74,-432.435,-239.075,167.663,0,0,0,
,-0.264,0.561,0.754,-329.834,-221.436,187.317,0,0,0,
,-0.278,0.539,0.773,-177.552,-213.318,211.914,0,0,0,
,-0.242,0.391,0.76,-237.915,-182.312,214.416,0,0,0,
,-0.354,0.513,0.752,-407.471,-163.025,193.664,0,0,0,
,-0.333,0.392,0.734,-392.334,-134.827,179.626,0,0,0,
,-0.339,0.33,0.717,-428.65,-93.873,135.07,0,0,0,
,-0.304,0.342,0.683,-435.975,-39.551,70.678,0,0,0,
,-0.302,0.36,0.658,-472.718,-22.278,58.471,0,0,0,
,-0.347,0.547,0.689,-436.646,-2.442,-18.555,0,0,0,
,-0.383,0.416,0.625,-283.265,-3.846,-27.344,0,0,0,
,-0.418,0.483,0.633,-200.928,21.728,-77.515,0,0,0,
,-0.304,0.573,0.628,-164.612,55.481,-71.289,0,0,0,
,-0.391,0.66,0.595,-58.716,56.762,-34.79,0,0,0,
,-0.435,0.574,0.526,142.089,88.928,-22.889,0,0,0,
,-0.415,0.643,0.66,163.208,89.111,2.685,0,0,0,
,-0.381,0.547,0.578,432.922,87.524,-15.809,0,0,0,
,-0.38,0.378,0.604,603.759,60.302,20.202,0,0,0,
,-0.345,0.411,0.755,759.399,72.509,30.639,0,0,0,
,-0.354,0.538,0.766,712.463,52.917,108.947,0,0,0,
,-0.495,0.451,0.515,802.673,101.623,57.067,0,0,0,
,-0.46,0.464,0.43,1045.776,133.545,30.639,0,0,0,
,-0.495,0.448,0.381,1365.905,152.771,0.671,0,0,0,
,-0.594,0.287,0.406,1522.4,200.012,-33.997,0,0,0,
,-0.571,0.028,0.708,1636.108,238.708,-66.163,0,0,0,
,-0.492,-0.22,0.983,1513.244,231.262,-19.227,0,0,0,
,-0.44,-0.312,1.189,1253.112,190.673,14.343,0,0,0,
,-0.269,-0.419,1.594,865.539,88.134,1.037,0,0,0,
,-0.239,-0.377,1.608,542.907,-28.687,21.301,0,0,0,
,-0.308,-0.136,1.483,409.24,-76.355,-14.283,0,0,0,
,-0.298,-0.256,1.31,267.7,-142.151,-29.48,0,0,0,
,-0.357,-0.11,1.168,126.098,-142.701,-28.382,0,0,0,
,-0.338,-0.111,1.055,44.921,-121.46,-10.56,0,0,0,
,-0.361,-0.024,0.955,-14.344,-76.111,15.441,0,0,0,
,-0.305,0.096,0.891,42.114,-21.851,11.84,0,0,0,
,-0.397,0.09,0.917,222.9,-40.955,59.57,0,0,0,
,-0.345,-0.015,1.014,353.637,-11.841,77.331,0,0,0,
,-0.306,0.014,1.08,463.134,-21.119,114.563,0,0,0,
,-0.341,-0.097,1.057,552.673,-55.726,127.38,0,0,0,
,-0.332,-0.178,0.874,791.076,-103.089,127.075,0,0,0,
,-0.402,-0.249,0.684,653.381,-56.275,124.206,0,0,0,
,-0.392,-0.243,0.713,590.21,-45.166,173.339,0,0,0,
,-0.402,-0.212,0.788,454.589,-5.494,196.045,0,0,0,
,-0.364,-0.245,0.805,356.323,20.568,174.804,0,0,0,
,-0.324,-0.197,0.807,239.013,112.243,197.998,0,0,0,
,-0.334,-0.317,0.772,324.218,120.666,191.467,0,0,0,
,-0.361,-0.422,0.819,309.082,148.803,183.105,0,0,0,
,-0.344,-0.437,0.897,242.797,151.428,152.588,0,0,0,
,-0.308,-0.476,1.049,231.262,127.502,110.717,0,0,0,
,-3.884,-3.958,0.37,13640.408,3851.513,12088.219,0,0,0,
,-0.294,-0.394,0.951,-38.758,35.888,-12.513,0,0,0,
,-0.279,-0.344,0.887,-17.884,21.484,-42.603,0,0,0,
,-0.274,-0.319,0.899,61.401,10.925,-39.917,0,0,0,
,-0.266,-0.303,1.01,149.231,-7.691,-18.006,0,0,0,
,-0.27,-0.419,1.068,154.052,-24.72,-16.48,0,0,0,
,-0.256,-0.37,0.956,0.244,-32.044,-34.119,0,0,0,
,-0.266,-0.453,0.934,-15.32,-18.372,-32.044,0,0,0,
,-0.285,-0.412,0.942,5.371,-15.015,-27.222,0,0,0,
,-0.298,-0.381,0.987,-21.424,-10.132,-37.659,0,0,0,
,-0.3,-0.368,0.911,-15.259,-15.015,-47.181,0,0,0,
,-0.313,-0.403,0.858,26.977,-18.799,-44.739,0,0,0,
,-0.326,-0.441,0.779,53.711,-14.405,-45.227,0,0,0,
,-0.327,-0.439,0.839,64.27,-7.935,-48.951,0,0,0,
,-0.333,-0.38,0.849,66.65,-2.564,-61.89,0,0,0,
,-0.347,-0.391,0.879,93.2,-1.648,-80.14,0,0,0,
,-0.358,-0.414,0.904,42.968,0.549,-85.877,0,0,0,
,-0.347,-0.383,0.871,11.474,-1.893,-89.051,0,0,0,
,-0.339,-0.31,0.847,59.021,-7.569,-81.36,0,0,0,
,-0.346,-0.349,0.912,102.783,-20.264,-74.585,0,0,0,
,-0.329,-0.39,0.91,57.251,-27.894,-70.374,0,0,0,
,-0.335,-0.391,0.922,-8.118,-16.968,-74.28,0,0,0,
,-0.329,-0.418,0.875,-13.672,-16.907,-84.9,0,0,0,
,-0.351,-0.375,0.824,40.588,-26.795,-97.107,0,0,0,
,-0.375,-0.433,0.921,59.57,-35.035,-110.535,0,0,0,
,-0.344,-0.437,0.974,-5.066,-16.175,-135.926,0,0,0,
,-0.326,-0.378,0.914,-143.738,4.028,-129.822,0,0,0,
,-0.317,-0.281,0.818,-83.68,-6.348,-156.861,0,0,0,
,-0.307,-0.326,0.792,4.577,-18.982,-138.733,0,0,0,
,-0.303,-0.376,0.838,69.03,-22.706,-130.127,0,0,0,
,-0.332,-0.333,0.94,44.86,-8.667,-103.272,0,0,0,
,-0.315,-0.375,0.944,13.305,1.403,-101.258,0,0,0,
,-0.332,-0.378,0.929,17.639,2.807,-95.215,0,0,0,
,-0.346,-0.398,0.915,15.197,6.958,-88.074,0,0,0,
,-0.325,-0.403,0.877,7.446,16.54,-89.234,0,0,0,
,-0.362,-0.436,0.849,127.136,1.586,-99.732,0,0,0,
,-0.367,-0.547,0.887,237.182,-8.423,-138.55,0,0,0,
,-0.378,-0.558,0.905,176.88,6.958,-166.626,0,0,0,
,-0.364,-0.528,0.951,65.673,21.667,-207.825,0,0,0,
,-0.311,-0.54,1.005,27.526,29.602,-238.648,0,0,0,
,-0.284,-0.489,1.035,43.029,18.859,-237.732,0,0,0,
,-0.225,-0.417,1.148,-74.219,-23.255,-235.962,0,0,0,
,-0.195,-0.303,1.19,-155.091,-81.849,-209.595,0,0,0,
,-0.19,-0.265,1.199,-274.292,-149.292,-180.054,0,0,0,
,-0.217,-0.161,1.122,-354.737,-212.159,-129.517,0,0,0,
,-0.272,-0.075,1.043,-324.524,-263.306,-71.228,0,0,0,
,-0.34,-0.09,0.924,-249.451,-294.434,-24.842,0,0,0,
,-0.393,-0.122,0.855,-216.614,-309.327,9.399,0,0,0,
,-0.419,-0.155,0.806,-227.967,-292.664,45.288,0,0,0,
,-0.482,-0.15,0.69,-494.629,-144.593,186.34,0,0,0,
,-0.495,-0.144,0.632,-533.265,-82.093,227.05,0,0,0,
,-0.49,-0.13,0.615,-463.562,-24.842,280.334,0,0,0,
,-0.498,-0.098,0.632,-268.372,24.231,279.663,0,0,0,
,-0.53,-0.2,0.603,-137.207,72.692,281.616,0,0,0,
,-0.503,-0.301,0.539,-15.137,188.72,270.874,0,0,0,
,-0.499,-0.341,0.575,146.24,241.333,248.352,0,0,0,
,-0.456,-0.303,0.716,301.757,303.466,227.905,0,0,0,
,-0.43,-0.375,0.663,389.709,317.688,231.445,0,0,0,
,-0.455,-0.434,0.62,299.377,360.107,210.144,0,0,0,
,-0.425,-0.384,0.767,309.936,344.36,145.691,0,0,0,
,-0.211,-0.522,1.084,690.979,270.202,83.374,0,0,0,
,-0.332,-0.419,1.166,503.173,212.28,145.752,0,0,0,
,-0.21,-0.493,1.162,342.468,218.139,114.074,0,0,0,
,-0.336,-0.603,1.08,101.867,161.499,101.013,0,0,0,
,-0.343,-0.584,1.052,-136.353,152.893,75.927,0,0,0,
,-0.29,-0.64,1.078,-387.207,150.207,67.077,0,0,0,
,-0.261,-0.686,1.114,-641.846,147.522,48.95,0,0,0,
,-0.318,-0.586,1.066,-737.488,124.939,21.545,0,0,0,
,-0.271,-0.447,1.085,-705.567,113.83,-20.203,0,0,0,
,-0.258,-0.367,1.05,-678.772,101.745,-38.208,0,0,0,
,-0.319,-0.19,0.998,-680.481,96.74,-30.091,0,0,0,
,-0.232,-0.131,1.032,-673.218,96.984,-23.743,0,0,0,
,-0.266,-0.094,0.946,-551.941,99.609,-7.63,0,0,0,
,-0.322,0.031,0.858,-278.016,90.637,-12.207,0,0,0,
,-0.295,0.08,0.896,98.693,78.918,-17.212,0,0,0,
,-0.29,-0.105,0.951,286.743,73.608,-31.006,0,0,0,
,-0.339,0.064,0.845,1109.741,73.364,-82.947,0,0,0,
,-0.356,-0.268,0.857,1249.023,68.42,-65.796,0,0,0,
,-0.369,-0.521,0.881,944.03,91.003,-56.702,0,0,0,
,-0.395,-0.695,0.884,430.297,151.245,-50.538,0,0,0,
,-0.301,-0.409,0.878,155.212,53.955,-48.096,0,0,0,
,-0.278,-0.614,0.998,-36.072,24.658,-15.076,0,0,0,
,-0.108,-0.076,1.233,-124.939,-23.316,38.147,0,0,0,
,-0.097,-0.375,1.172,-240.235,-99.305,83.74,0,0,0,
,-0.238,-0.308,0.981,-359.681,-116.517,159.973,0,0,0,
,-0.21,-0.483,0.813,-596.009,-81.482,208.435,0,0,0,
,-0.23,0.026,0.836,-782.105,-26.612,260.742,0,0,0,
,-0.188,-0.357,0.929,-738.709,-30.457,243.469,0,0,0,
,-0.201,-0.286,0.977,-759.095,3.662,230.468,0,0,0,
,-0.185,-0.102,0.899,-776.795,39.489,229.858,0,0,0,
,-0.205,-0.091,0.848,-575.135,52.368,196.899,0,0,0,
,-0.215,-0.109,0.784,-308.655,75.012,169.983,0,0,0,
,-0.317,-0.396,0.803,156.921,64.27,77.453,0,0,0,
,-0.334,-0.536,0.879,46.203,72.815,24.353,0,0,0,
,-0.311,-0.461,0.923,-168.519,85.205,-30.03,0,0,0,
,-0.292,-0.378,0.91,-323.426,82.092,-88.196,0,0,0,
,-0.285,-0.196,0.881,-331.299,81.481,-147.889,0,0,0,
,-0.282,-0.202,0.801,-98.572,83.129,-185.608,0,0,0,
,-0.248,-0.214,0.873,2.746,91.064,-203.003,0,0,0,
,-0.277,-0.314,0.908,198.303,62.316,-222.168,0,0,0,
,-0.195,0.089,0.972,118.53,86.853,-197.449,0,0,0,
,-0.177,-0.246,1.102,244.812,55.236,-150.147,0,0,0,
,-0.21,-0.095,1.034,107.483,109.497,-142.395,0,0,0,
,-0.192,-0.21,0.999,145.385,88.378,-129.944,0,0,0,
,-0.166,-0.277,1,55.664,99.792,-85.511,0,0,0,
,-0.136,-0.152,1.036,64.514,88.989,-75.501,0,0,0,
,-0.147,-0.195,1.121,54.321,68.359,-70.984,0,0,0,
,-0.166,-0.134,1.122,5.371,62.072,-67.566,0,0,0,
,-0.161,-0.139,1.126,118.286,31.982,-77.698,0,0,0,
,-0.182,-0.211,1.116,205.139,-10.682,-71.778,0,0,0,
,-0.215,-0.322,1.059,161.499,-37.232,-78.064,0,0,0,
,-0.215,-0.299,0.969,106.567,-34.668,-85.877,0,0,0,
,-0.238,-0.236,0.934,164.795,-36.622,-90.027,0,0,0,
,-0.222,-0.274,0.984,210.022,-32.654,-78.736,0,0,0,
,-0.233,-0.27,0.998,202.209,-28.809,-67.688,0,0,0,
,-0.222,-0.312,1.012,120.91,-14.039,-60.181,0,0,0,
,-0.2,-0.229,0.984,138.244,-9.339,-70.435,0,0,0,
,-0.223,-0.319,0.908,151.184,-2.747,-68.604,0,0,0,
,-0.21,-0.321,0.882,131.225,12.756,-58.655,0,0,0,
,-0.194,-0.239,0.899,126.464,32.226,-59.144,0,0,0,
,-0.177,-0.282,0.984,134.094,45.288,-57.679,0,0,0,
,-0.17,-0.271,1.026,79.162,59.387,-55.298,0,0,0,
,-0.163,-0.204,0.978,111.206,64.636,-53.345,0,0,0,
,-0.18,-0.282,0.891,107.788,58.166,-51.026,0,0,0,
,-0.184,-0.215,0.847,130.676,57.373,-43.946,0,0,0,
,-0.174,-0.296,0.902,139.282,54.26,-50.11,0,0,0,
,-0.184,-0.269,0.957,47.119,68.664,-48.096,0,0,0,
,-0.204,-0.328,0.979,4.76,73.059,-71.961,0,0,0,
,-0.204,-0.306,0.932,31.066,81.359,-87.403,0,0,0,
,-0.23,-0.368,0.853,68.298,71.899,-117.615,0,0,0,
,-0.209,-0.379,0.878,19.714,81.359,-121.033,0,0,0,
,-0.179,-0.263,0.917,59.875,74.585,-155.152,0,0,0,
,-0.185,-0.248,0.977,148.986,70.19,-169.312,0,0,0,
,-0.148,-0.547,0.97,301.88,51.391,-198.853,0,0,0,
,-0.197,-0.447,0.966,54.26,85.998,-224.366,0,0,0,
,-0.123,-0.464,1.048,-253.113,100.402,-199.769,0,0,0,
,-0.079,-0.23,1.047,-368.836,105.957,-212.952,0,0,0,
,-0.111,-0.125,1.068,-471.863,72.815,-132.935,0,0,0,
,-0.171,-0.075,1.02,253.723,-20.813,-50.538,0,0,0,
,-0.212,-0.246,1.02,257.629,-33.875,-15.32,0,0,0,
,-0.242,-0.309,0.98,142.456,-25.513,-19.898,0,0,0,
,-0.239,-0.349,0.964,89.843,-18.555,-24.231,0,0,0,
,-0.216,-0.368,0.932,58.593,2.746,-30.274,0,0,0,
,-0.201,-0.337,0.887,80.2,17.089,-29.969,0,0,0,
,-0.181,-0.355,0.889,109.863,19.226,-37.171,0,0,0,
,-0.202,-0.37,0.908,97.656,24.292,-51.331,0,0,0,
,-0.175,-0.354,0.952,71.167,33.569,-79.346,0,0,0,
,-0.159,-0.394,0.958,66.406,37.353,-111.329,0,0,0,
,-0.153,-0.396,0.975,147.155,38.391,-165.162,0,0,0,
,-0.139,-0.542,0.916,357.544,30.7,-257.142,0,0,0,
,-0.138,-0.653,0.988,62.072,44.067,-239.991,0,0,0,
,-0.082,-0.298,1.031,-237.61,57.983,-281.617,0,0,0,
,-0.081,-0.237,1.04,-126.404,18.188,-319.886,0,0,0,
,-0.097,-0.222,1.019,-39.673,-20.325,-289.917,0,0,0,
,-0.122,-0.182,1.046,-76.294,-45.044,-254.822,0,0,0,
,-0.16,-0.18,1.074,-191.59,-72.51,-212.037,0,0,0,
,-0.196,-0.135,1.057,-318.848,-91.98,-169.19,0,0,0,
,-0.222,-0.095,1.028,-413.758,-104.187,-134.278,0,0,0,
,-0.242,-0.078,1.001,-452.515,-114.808,-98.999,0,0,0,
,-0.229,-0.048,0.973,-454.529,-128.846,-41.077,0,0,0,
,-0.252,-0.005,0.943,-418.641,-129.517,0.061,0,0,0,
,-0.245,0.012,0.89,-325.257,-127.137,49.56,0,0,0,
,-0.235,-0.009,0.928,-192.261,-121.521,96.801,0,0,0,
,-0.247,-0.007,0.985,-100.403,-108.582,163.879,0,0,0,
,-0.244,-0.013,1.009,-36.622,-107.361,194.03,0,0,0,
,-0.26,-0.118,0.963,5.065,-98.572,226.745,0,0,0,
,-0.268,-0.105,0.901,5.127,-85.877,255.127,0,0,0,
,-0.246,-0.118,0.888,20.446,-68.726,289.306,0,0,0,
,-0.256,-0.228,0.885,40.832,-65.552,303.039,0,0,0,
,-0.275,-0.194,0.917,65.551,-58.96,309.082,0,0,0,
,-0.277,-0.203,0.946,102.172,-53.162,310.852,0,0,0,
,-0.274,-0.29,0.962,123.413,-52.063,296.081,0,0,0,
,-0.275,-0.322,0.966,98.144,-45.838,271.24,0,0,0,
,-0.285,-0.234,0.88,67.871,-34.974,272.338,0,0,0,
,-0.272,-0.204,0.84,52.856,-25.452,264.16,0,0,0,
,-0.239,-0.316,0.899,-37.598,-5.982,232.177,0,0,0,
,-0.239,-0.36,0.977,-129.09,14.343,211.914,0,0,0,
,-0.233,-0.296,1.002,-221.253,44.555,193.908,0,0,0,
,-0.229,-0.207,0.979,-213.074,57.006,190.002,0,0,0,
,-0.238,-0.274,0.944,-207.886,47.607,163.025,0,0,0,
,-0.241,-0.269,0.921,-247.315,50.476,142.334,0,0,0,
,-0.203,-0.17,1.045,-147.461,8.117,118.042,0,0,0,
,-0.232,-0.411,1.018,132.019,-23.011,52.856,0,0,0,
,-0.272,-0.416,0.984,-38.636,-33.081,30.029,0,0,0,
,-0.259,-0.478,0.927,-48.279,-39.795,-26.001,0,0,0,
,-0.287,-0.42,0.89,-175.171,-17.579,-41.26,0,0,0,
,-0.282,-0.372,0.859,-224.854,17.211,-78.492,0,0,0,
,-0.265,-0.25,0.829,-237.977,63.11,-76.172,0,0,0,
,-0.287,-0.193,0.84,-146.485,75.439,-74.463,0,0,0,
,-0.287,-0.125,0.847,-51.27,105.163,-67.505,0,0,0,
,-0.313,-0.053,0.878,26.123,122.192,-57.679,0,0,0,
,-0.28,-0.054,0.924,124.817,115.234,-55.176,0,0,0,
,-0.267,-0.082,1.007,169.189,83.496,-22.828,0,0,0,
,-0.238,0.024,0.977,142.7,85.632,14.77,0,0,0,
,-0.232,-0.005,0.958,209.838,46.508,5.798,0,0,0,
,-0.228,-0.134,0.863,164.917,52.429,7.995,0,0,0,
,-0.236,-0.17,0.856,150.39,42.114,8.911,0,0,0,
,-0.283,-0.225,0.918,235.778,19.653,-1.587,0,0,0,
,-0.256,-0.312,0.955,268.859,-1.404,-27.832,0,0,0,
,-0.248,-0.286,0.916,384.643,-3.785,-39.612,0,0,0,
,-0.258,-0.379,0.951,514.404,-11.902,-83.497,0,0,0,
,-0.293,-0.505,1.05,458.496,-29.053,-83.313,0,0,0,
,-0.178,-0.216,1.118,81.726,-26.123,-64.27,0,0,0,
,-0.237,-0.223,1.077,-74.646,-8.912,-11.475,0,0,0,
,-0.279,-0.147,1.023,-136.78,-13.306,-12.513,0,0,0,
,-0.258,-0.211,0.974,-85.877,-21.363,-2.686,0,0,0,
,-0.275,-0.324,0.931,-77.82,-20.386,3.845,0,0,0,
,-0.24,-0.332,0.854,-128.54,8.85,18.859,0,0,0,
,-0.227,-0.287,0.908,-89.356,77.27,13.122,0,0,0,
,-0.233,-0.216,1.014,-12.452,47.241,21.057,0,0,0,
,-0.157,-0.185,1.055,96.923,11.535,14.099,0,0,0,
,-0.186,-0.334,1.014,160.217,-14.1,33.081,0,0,0,
,-0.201,-0.267,0.929,137.573,-13.916,15.197,0,0,0,
,-0.188,-0.334,0.942,78.064,-3.052,7.568,0,0,0,
,-0.196,-0.284,0.914,17.273,7.812,-12.513,0,0,0,
,-0.214,-0.349,0.941,-11.292,9.948,-26.429,0,0,0,
,-0.199,-0.317,0.972,-44.983,9.826,-35.767,0,0,0,
,-0.207,-0.314,0.989,-31.678,1.648,-54.078,0,0,0,
,-0.215,-0.23,0.924,49.682,-9.217,-66.224,0,0,0,
,-0.23,-0.289,0.908,99.609,-11.841,-67.627,0,0,0,
,-0.233,-0.282,0.929,93.689,-10.193,-75.745,0,0,0,
,-0.238,-0.353,0.994,76.171,-11.719,-72.998,0,0,0,
,-0.239,-0.321,1.006,14.892,-4.761,-72.51,0,0,0,
,-0.237,-0.283,1.025,7.385,-0.855,-73.548,0,0,0,
,-0.241,-0.24,0.972,19.165,7.019,-74.952,0,0,0,
,-0.243,-0.287,0.911,40.649,21.057,-63.965,0,0,0,
,-0.252,-0.272,0.873,55.481,48.217,-49.744,0,0,0,
,-0.228,-0.31,0.904,92.407,61.523,-43.885,0,0,0,
,-0.221,-0.333,0.961,57.251,68.603,-37.049,0,0,0,
,-0.216,-0.371,0.988,-20.935,79.65,-41.26,0,0,0,
,-0.212,-0.351,0.996,-101.624,87.341,-48.89,0,0,0,
,-0.217,-0.292,0.971,-112.549,75.622,-64.087,0,0,0,
,-0.205,-0.179,0.931,-20.569,39.55,-72.754,0,0,0,
,-0.223,-0.242,0.964,63.293,13.366,-68.604,0,0,0,
,-0.224,-0.282,0.978,50.231,-10.132,-65.186,0,0,0,
,-0.232,-0.286,0.969,9.765,-10.743,-69.458,0,0,0,
,-0.243,-0.314,0.969,15.197,-9.339,-78.248,0,0,0,
,-0.254,-0.272,0.945,-9.644,-7.142,-82.459,0,0,0,
,-0.248,-0.277,0.915,32.287,-15.32,-86.731,0,0,0,
,-0.245,-0.313,0.924,17.639,-10.804,-84.229,0,0,0,
,-0.244,-0.32,0.899,-8.057,-3.357,-88.074,0,0,0,
,-0.242,-0.357,0.893,-50.538,9.765,-86.792,0,0,0,
,-0.237,-0.339,0.899,-68.97,27.221,-109.375,0,0,0,
,-0.227,-0.29,0.921,2.136,36.438,-119.141,0,0,0,
,-0.23,-0.259,0.925,-0.855,33.508,-111.878,0,0,0,
,-0.229,-0.248,0.954,-13.855,40.161,-118.836,0,0,0,
,-0.214,-0.325,0.95,-68.665,59.448,-109.192,0,0,0,
,-0.217,-0.426,0.933,-106.568,84.777,-200.562,0,0,0,
,-0.214,-0.198,0.918,-67.933,88.317,-209.839,0,0,0,
,-0.215,-0.327,0.939,34.606,74.218,-234.864,0,0,0,
,-0.222,-0.31,0.98,-68.97,90.82,-270.813,0,0,0,
,-0.182,-0.426,0.92,-198.731,106.262,-230.042,0,0,0,
,-0.216,-0.065,0.938,-285.645,122.68,-281.495,0,0,0,
,-0.187,-0.278,0.961,-174.744,102.661,-257.813,0,0,0,
,-0.175,-0.365,0.975,-353.638,134.826,-225.098,0,0,0,
,-0.146,0.027,0.98,-274.17,136.535,-228.638,0,0,0,
,-0.171,-0.056,1.01,62.194,91.247,-207.825,0,0,0,
,-0.133,-0.296,1.127,126.587,66.65,-168.519,0,0,0,
,-0.164,-0.043,1.12,-36.316,52.795,-147.156,0,0,0,
,-0.197,-0.12,1.092,6.469,-72.266,-135.315,0,0,0,
,-0.212,-0.214,1.026,16.723,-104.615,-148.377,0,0,0,
,-0.228,-0.25,1.001,-46.082,-105.042,-170.166,0,0,0,
,-0.203,-0.223,0.974,-75.501,-104.004,-190.308,0,0,0,
,-0.202,-0.163,0.996,-67.81,-104.737,-210.999,0,0,0,
,-0.212,-0.073,1.044,-256.226,-121.949,-195.618,0,0,0,
,-0.212,-0.016,1.051,-288.941,-137.879,-174.378,0,0,0,
,-0.231,0.002,1.032,-300.293,-153.748,-150.635,0,0,0,
,-0.236,0.04,0.999,-308.777,-162.537,-124.756,0,0,0,
,-0.228,0.018,0.942,-268.006,-165.284,-67.81,0,0,0,
,-0.247,0.039,0.874,-234.314,-140.076,-7.752,0,0,0,
,-0.276,0.068,0.864,-276.795,-112.732,26.794,0,0,0,
,-0.268,0.079,0.867,-254.029,-83.008,44.616,0,0,0,
,-0.273,0.042,0.851,-224.488,-57.801,57.861,0,0,0,
,-0.293,0.066,0.824,-185.12,-26.123,70.007,0,0,0,
,-0.305,0.114,0.85,-117.188,-16.358,83.007,0,0,0,
,-0.29,0.052,0.861,-31.311,-5.555,88.317,0,0,0,
,-0.297,-0.004,0.881,-16.175,-2.991,74.035,0,0,0,
,-0.31,0.011,0.875,25.451,-1.038,58.715,0,0,0,
,-0.32,-0.005,0.869,123.779,-5.31,48.217,0,0,0,
,-0.318,-0.028,0.88,130.31,-4.029,44.311,0,0,0,
,-0.361,-0.057,0.929,60.974,-27.344,-19.043,0,0,0,
,-0.339,-0.08,0.965,-126.221,-34.546,-56.153,0,0,0,
,-0.309,0.002,0.895,-228.76,-29.847,-74.769,0,0,0,
,-0.373,0.068,0.87,-227.356,-52.674,-108.277,0,0,0,
,-0.339,-0.031,0.888,-195.679,-42.908,-169.007,0,0,0,
,-0.335,-0.047,0.85,-293.641,-50.721,-202.393,0,0,0,
,-0.387,0.045,0.934,-513.428,-151.001,-285.157,0,0,0,
,-0.411,0.169,0.876,-544.434,-185.059,-277.1,0,0,0,
,-0.416,0.302,0.885,-319.031,-235.108,-280.701,0,0,0,
,-0.427,0.2,0.972,-185.181,-288.025,-302.857,0,0,0,
,-0.476,0.205,1.001,-169.312,-330.75,-278.138,0,0,0,
,-0.479,0.13,0.939,-222.107,-370.728,-263.123,0,0,0,
,-0.494,0.144,0.909,-297.059,-355.042,-251.099,0,0,0,
,-0.337,0.068,1.001,-309.815,-304.078,-164.063,0,0,0,
,-0.465,0.002,0.953,-517.823,-210.022,-25.086,0,0,0,
,-0.439,0.123,0.996,-734.62,-136.902,37.414,0,0,0,
,-0.456,0.201,1.002,-755.677,-103.699,72.692,0,0,0,
,-0.508,0.143,0.901,-783.265,-61.28,75.439,0,0,0,
,-0.505,0.249,0.869,-785.828,-12.391,88.256,0,0,0,
,-0.501,0.147,0.768,-651.551,34.057,17.578,0,0,0,
,-0.509,0.493,0.587,-171.265,44.738,17.028,0,0,0,
,-0.675,0.088,0.846,658.203,94.177,20.813,0,0,0,
,-0.544,0.267,0.857,590.515,160.461,-0.855,0,0,0,
,-0.556,0.121,0.862,543.64,148.315,10.986,0,0,0,
,-0.647,0.291,0.53,684.814,163.757,-64.942,0,0,0,
,-0.481,-0.09,0.646,909.668,112.732,-40.589,0,0,0,
,-0.462,0.232,1.237,473.693,65.673,-100.892,0,0,0,
,-0.37,0.301,1.229,306.03,10.803,-38.025,0,0,0,
,-0.343,0.16,1.119,155.822,-30.457,5.859,0,0,0,
,-0.365,0.099,1.025,105.041,-17.273,39.245,0,0,0,
,-0.349,-0.026,1.074,245.178,-27.588,7.446,0,0,0,
,-0.376,0.012,1.12,496.704,-71.717,30.7,0,0,0,
,-0.381,-0.033,1.077,332.336,-55.664,-12.452,0,0,0,
,-0.432,-0.007,1.048,134.216,-35.95,-27.649,0,0,0,
,-0.41,0.086,1.016,74.707,-29.175,-30.945,0,0,0,
,-0.427,0.065,0.92,157.531,-27.894,-47.974,0,0,0,
,-0.433,-0.011,0.901,203.491,-9.156,-58.167,0,0,0,
,-0.417,-0.04,0.91,260.986,-4.334,-53.162,0,0,0,
,-0.447,-0.043,0.851,293.518,-8.423,-62.134,0,0,0,
,-0.427,-0.088,0.84,287.353,2.807,-75.074,0,0,0,
,-0.469,0.027,0.854,266.052,20.69,-73.121,0,0,0,
,-0.451,-0.068,0.921,268.371,18.615,-77.576,0,0,0,
,-0.442,-0.008,0.921,148.437,27.954,-68.665,0,0,0,
,-0.473,-0.017,0.862,115.356,22.888,-67.322,0,0,0,
,-0.422,-0.005,0.875,33.935,30.761,-29.358,0,0,0,
,-0.407,0.035,0.9,32.47,36.926,-30.03,0,0,0,
,-0.389,-0.056,0.936,31.311,34.545,-27.405,0,0,0,
,-0.4,0.013,0.902,41.809,29.663,-15.809,0,0,0,
,-0.402,0.001,0.877,102.111,17.639,-20.813,0,0,0,
,-0.411,-0.1,1.003,46.081,1.892,-33.631,0,0,0,
,-0.445,-0.04,0.933,-26.917,-3.174,-53.467,0,0,0,
,-0.402,-0.111,0.889,-20.02,-8.423,-69.397,0,0,0,
,-0.467,-0.222,0.88,-4.639,28.747,-184.266,0,0,0,
,-0.422,-0.396,1.08,2.014,18.615,-274.109,0,0,0,
,-0.305,-0.159,1.197,-496.888,70.312,-290.894,0,0,0,
,-0.235,-0.061,1.041,-589.478,109.497,-314.148,0,0,0,
,-0.2,0.051,0.924,-788.636,150.695,-260.621,0,0,0,
,-0.149,0.256,0.753,-771.668,171.081,-174.073,0,0,0,
,-0.145,0.587,0.688,-513.55,210.022,-79.834,0,0,0,
,-0.145,0.518,0.809,-52.674,241.15,8.667,0,0,0,
,-0.095,0.408,0.924,100.586,283.203,153.747,0,0,0,
,-0.151,0.348,0.973,-90.394,358.398,267.395,0,0,0,
,-0.181,0.481,0.919,-359.009,421.447,388.305,0,0,0,
,-0.256,0.245,0.93,-141.175,405.09,416.076,0,0,0,
,-0.416,0.067,0.949,-214.6,382.629,357.666,0,0,0,
,-0.482,0.07,1.018,-221.131,322.631,273.62,0,0,0,
,-0.573,-0.304,1.059,-31.495,204.712,140.258,0,0,0,
,-0.65,-0.301,1.031,145.63,68.908,8.911,0,0,0,
,-0.756,-0.063,0.813,395.507,-214.722,-228.15,0,0,0,
,-0.596,-0.213,1.041,648.071,-204.468,-173.89,0,0,0,
,-0.525,-0.126,1.004,726.867,-189.331,-113.038,0,0,0,
,-0.569,-0.143,0.98,746.276,-171.875,-56.885,0,0,0,
,-0.481,-0.147,1.048,654.785,-164.002,-34.058,0,0,0,
,-0.358,-0.478,1.365,569.702,-170.227,-236.023,0,0,0,
,-0.31,-0.244,1.183,187.133,-105.591,-288.941,0,0,0,
,-0.245,-0.373,0.912,-59.693,-51.636,-295.716,0,0,0,
,-0.236,-0.124,0.753,-30.457,5.127,-319.825,0,0,0,
,-0.111,-0.219,0.721,-12.33,77.27,-299.683,0,0,0,
,-0.11,0.059,0.719,-95.887,167.602,-233.094,0,0,0,
,0.018,0.342,0.939,-289.795,246.643,-97.779,0,0,0,
,0.123,0.454,1.202,-427.796,258.606,50.964,0,0,0,
,0.092,0.577,1.073,-596.192,285.095,195.007,0,0,0,
,0.046,0.144,0.94,34.973,210.693,310.058,0,0,0,
,0.032,0.3,1.101,-46.692,185.485,371.46,0,0,0,
,0.003,0.268,1.091,-314.515,185.058,446.899,0,0,0,
,-0.068,0.575,0.949,-506.531,219.36,466.797,0,0,0,
,-0.139,0.336,0.86,-570.435,232.666,503.784,0,0,0,
,-0.384,-0.087,0.763,-317.688,266.174,461.67,0,0,0,
,-0.504,-0.363,0.847,-211.792,252.563,374.328,0,0,0,
,-0.662,-0.579,0.93,-111.817,200.622,254.882,0,0,0,
,-0.749,-0.757,1.098,110.229,87.28,83.862,0,0,0,
,-0.675,-1.019,1.179,483.825,-49.744,-75.623,0,0,0,
,-0.647,-0.429,1.079,273.132,-57.312,-77.332,0,0,0,
,-0.583,-0.236,0.916,175.171,-76.294,-170.655,0,0,0,
,-0.466,-0.091,0.993,125.061,-95.093,-157.837,0,0,0,
,-0.464,0.003,0.789,273.62,-62.745,-213.929,0,0,0,
,-0.27,-0.409,1.2,622.375,-156.067,-247.559,0,0,0,
,-0.38,0.122,1.025,369.567,-73.853,-343.995,0,0,0,
,-0.129,-0.517,1.271,83.74,-95.154,-318.787,0,0,0,
,-0.004,0.209,1.254,-290.772,-107.239,-365.662,0,0,0,
,-0.069,0.361,1.025,-425.171,-96.924,-335.083,0,0,0,
,0.057,0.231,0.828,-271.668,-76.294,-264.832,0,0,0,
,0.107,0.42,0.792,-367.005,-15.137,-159.913,0,0,0,
,0.152,0.613,0.921,-285.34,39.123,-56.397,0,0,0,
,0.166,0.632,1.065,-107.483,80.444,31.86,0,0,0,
,0.102,0.274,1.187,43.518,72.448,89.843,0,0,0,
,0.125,0.155,1.177,-185.242,70.068,215.332,0,0,0,
,-0.011,0.425,1.034,-461.914,112.243,257.202,0,0,0,
,-0.167,0.155,0.965,-376.893,174.438,325.561,0,0,0,
,-0.314,0.02,0.979,-432.373,182.556,337.829,0,0,0,
,-0.448,-0.089,0.963,-371.216,191.101,283.02,0,0,0,
,-0.648,-0.267,0.911,-202.088,163.757,236.816,0,0,0,
,-0.687,-0.454,1.183,244.445,4.028,73.73,0,0,0,
,-0.666,-1.072,1.192,637.512,-158.692,-80.506,0,0,0,
,-0.671,-0.632,1.04,201.355,-175.965,-47.242,0,0,0,
,-0.59,-0.224,0.931,150.879,-219.605,-168.946,0,0,0,
,-0.565,-0.119,0.948,367.92,-266.48,-216.736,0,0,0,
,-0.591,-0.033,0.785,546.142,-262.269,-273.926,0,0,0,
,-0.488,-0.263,0.752,529.235,-230.774,-265.686,0,0,0,
,-0.117,-0.331,1.232,615.356,-298.401,-235.413,0,0,0,
,-0.421,0.634,0.933,137.207,-180.97,-338.257,0,0,0,
,-0.108,-0.196,1.014,176.452,-185.975,-198.365,0,0,0,
,-0.086,0.577,0.777,58.288,-93.689,-201.477,0,0,0,
,-0.147,0.076,0.66,107.666,0.671,-143.616,0,0,0,
,-0.003,0.264,0.67,143.371,99.487,-79.346,0,0,0,
,-0.004,0.126,0.755,133.484,188.842,-82.459,0,0,0,
,-0.006,0.127,0.997,11.108,254.516,-107.911,0,0,0,
,0.008,-0.023,1.177,-273.377,307.922,-152.1,0,0,0,
,0.069,0.115,1.169,-514.588,307.922,-164.856,0,0,0,
,0.11,0.302,1.141,-444.519,284.423,-146.973,0,0,0,
,0.1,0.303,1.198,-293.946,246.46,-53.223,0,0,0,
,-0.066,0.45,1.139,-303.284,250.244,63.232,0,0,0,
,-0.249,0.264,1.03,-395.02,277.832,205.932,0,0,0,
,-0.422,0.149,1.083,-317.688,268.127,287.17,0,0,0,
,-0.596,0.032,1.084,-214.112,217.407,301.696,0,0,0,
,-0.721,-0.8,1.194,3.418,94.665,215.759,0,0,0,
,-0.761,-0.632,1.035,-1.465,19.836,107.727,0,0,0,
,-0.691,-0.806,1.047,383.789,-117.737,-0.428,0,0,0,
,-0.558,-0.478,0.994,292.48,-149.781,13.122,0,0,0,
,-0.56,-0.078,0.815,335.754,-160.767,-51.392,0,0,0,
,-0.468,-0.027,0.92,337.097,-166.81,-50.538,0,0,0,
,-0.399,-0.147,1,591.552,-200.806,-115.113,0,0,0,
,-0.417,-0.127,0.853,141.113,-113.953,-110.352,0,0,0,
,-0.295,-0.148,1.062,656.921,-224.06,-273.316,0,0,0,
