TIMECODE,ACC_X,ACC_Y,ACC_Z,GYR_X,GYR_Y,GYR_Z,TAG
00:00:00:0,-0.367,0.868,-0.373,-215.943,146.789,-132.203,
00:00:00:16,-0.375,0.866,-0.391,-178.894,132.324,-130.738,
00:00:00:33,-0.361,0.905,-0.385,-132.691,125.061,-128.663,
00:00:00:50,-0.35,0.891,-0.369,-110.962,108.337,-125.916,
00:00:00:66,-0.342,0.892,-0.367,-105.347,85.632,-125.916,
00:00:00:83,-0.354,0.862,-0.387,-117.676,58.044,-119.69,
00:00:00:100,-0.359,0.87,-0.368,-121.888,32.653,-119.873,
00:00:00:116,-0.362,0.855,-0.385,-125.061,22.277,-124.512,
00:00:00:133,-0.362,0.822,-0.387,-167.847,1.709,-127.93,
00:00:00:150,-0.355,0.837,-0.352,-165.65,-7.691,-131.897,
00:00:00:166,-0.375,0.817,-0.347,-119.873,-16.785,-131.165,
00:00:00:183,-0.388,0.832,-0.345,-20.935,-24.842,-130.127,
00:00:00:200,-0.4,0.827,-0.343,80.444,-1.831,-124.146,
00:00:00:216,-0.392,0.796,-0.355,120.971,9.46,-114.014,
00:00:00:233,-0.398,0.807,-0.355,138.366,-1.954,-114.808,
00:00:00:250,-0.402,0.778,-0.349,132.385,7.751,-116.7,
00:00:00:266,-0.399,0.789,-0.346,98.755,3.662,-116.7,
00:00:00:283,-0.393,0.812,-0.321,97.656,14.953,-120.667,
00:00:00:300,-0.393,0.818,-0.351,99.975,0.427,-115.357,
00:00:00:316,-0.403,0.832,-0.361,105.713,5.127,-99.427,
00:00:00:333,-0.388,0.844,-0.359,102.783,10.803,-80.384,
00:00:00:350,-0.379,0.839,-0.34,70.495,1.953,-59.571,
00:00:00:366,-0.383,0.849,-0.332,27.71,-4.639,-43.946,
00:00:00:383,-0.363,0.891,-0.304,10.07,-0.428,-21.912,
00:00:00:400,-0.358,0.889,-0.304,55.725,1.892,4.638,
00:00:00:416,-0.351,0.845,-0.353,109.497,7.69,27.832,
00:00:00:433,-0.355,0.872,-0.361,162.719,-13.977,48.645,
00:00:00:450,-0.368,0.839,-0.348,175.048,-8.912,71.289,
00:00:00:466,-0.374,0.786,-0.337,136.718,2.197,64.27,
00:00:00:483,-0.38,0.787,-0.353,83.984,6.347,56.823,
00:00:00:500,-0.389,0.784,-0.365,40.1,16.967,56.152,
00:00:00:516,-0.399,0.789,-0.361,36.01,21.423,53.772,
00:00:00:533,-0.408,0.8,-0.35,51.696,57.434,50.842,
00:00:00:550,-0.401,0.807,-0.318,75.5,85.693,49.56,
00:00:00:566,-0.408,0.816,-0.308,79.773,111.389,46.814,
00:00:00:583,-0.408,0.797,-0.322,59.204,123.962,44.616,
00:00:00:600,-0.408,0.789,-0.316,32.043,126.098,32.775,
00:00:00:616,-0.422,0.806,-0.32,22.827,131.836,32.165,
00:00:00:633,-0.436,0.809,-0.309,28.076,148.62,36.438,
00:00:00:650,-0.431,0.83,-0.276,38.269,172.973,45.715,
00:00:00:666,-0.416,0.864,-0.251,52.307,186.706,52.734,
00:00:00:683,-0.397,0.888,-0.267,26.489,185.485,64.514,
00:00:00:700,-0.377,0.928,-0.279,-4.822,166.687,67.077,
00:00:00:716,-0.375,0.966,-0.269,-0.061,142.578,71.655,
00:00:00:733,-0.378,0.965,-0.24,24.292,135.437,86.731,
00:00:00:750,-0.367,0.958,-0.203,69.091,130.066,98.693,
00:00:00:766,-0.367,0.958,-0.156,121.032,106.079,112.182,
00:00:00:783,-0.386,0.935,-0.143,153.869,76.049,129.882,
00:00:00:800,-0.416,0.896,-0.152,178.283,31.066,132.568,
00:00:00:816,-0.449,0.909,-0.177,157.959,-5.677,134.521,
00:00:00:833,-0.472,0.89,-0.177,136.84,-6.47,133.056,
00:00:00:850,-0.465,0.862,-0.195,117.004,-2.686,129.699,
00:00:00:866,-0.451,0.873,-0.171,124.45,-17.518,123.169,
00:00:00:883,-0.463,0.914,-0.159,142.151,-81.482,125.732,
00:00:00:900,-0.527,0.896,-0.18,159.301,-130.494,123.108,
00:00:00:916,-0.551,0.848,-0.179,149.353,-165.223,122.924,
00:00:00:933,-0.602,0.806,-0.156,111.145,-166.443,124.389,
00:00:00:950,-0.637,0.803,-0.193,99.06,-132.264,137.268,
00:00:00:966,-0.634,0.84,-0.212,71.472,-97.474,183.227,
00:00:00:983,-0.599,0.85,-0.207,59.204,-81.421,228.698,
00:00:01:0,-0.574,0.882,-0.201,75.561,-123.902,259.277,
00:00:01:16,-0.561,0.877,-0.246,49.987,-168.091,298.767,
00:00:01:33,-0.556,0.823,-0.279,-2.32,-214.844,339.233,
00:00:01:50,-0.558,0.825,-0.247,-48.951,-273.011,365.417,
00:00:01:66,-0.565,0.884,-0.217,-64.881,-322.632,405.09,
00:00:01:83,-0.561,0.892,-0.173,-29.175,-340.394,462.768,
00:00:01:100,-0.541,0.828,-0.151,56.091,-359.62,499.328,
00:00:01:116,-0.519,0.789,-0.196,118.774,-378.785,532.653,
00:00:01:133,-0.491,0.722,-0.263,153.503,-375.855,543.762,
00:00:01:150,-0.469,0.622,-0.294,192.443,-382.874,515.93,
00:00:01:166,-0.477,0.543,-0.329,207.824,-428.711,473.449,
00:00:01:183,-0.506,0.455,-0.36,170.776,-487.244,402.221,
00:00:01:200,-0.541,0.413,-0.324,109.436,-508.851,306.518,
00:00:01:216,-0.564,0.424,-0.323,47.851,-492.249,218.628,
00:00:01:233,-0.566,0.383,-0.346,-9.156,-470.52,144.348,
00:00:01:250,-0.577,0.352,-0.392,-49.866,-467.225,64.819,
00:00:01:266,-0.589,0.364,-0.425,-56.397,-471.802,-7.63,
00:00:01:283,-0.605,0.374,-0.461,-23.987,-460.511,-74.158,
00:00:01:300,-0.623,0.373,-0.474,26.428,-422.608,-144.715,
00:00:01:316,-0.613,0.368,-0.48,71.533,-404.419,-222.168,
00:00:01:333,-0.605,0.403,-0.492,95.886,-391.114,-282.593,
00:00:01:350,-0.598,0.442,-0.517,114.135,-377.137,-350.586,
00:00:01:366,-0.602,0.459,-0.591,88.745,-353.455,-400.574,
00:00:01:383,-0.606,0.481,-0.685,17.578,-309.144,-436.402,
00:00:01:400,-0.598,0.524,-0.669,-17.823,-253.724,-469.788,
00:00:01:416,-0.55,0.571,-0.631,-45.655,-174.744,-502.503,
00:00:01:433,-0.537,0.584,-0.565,-49.988,-168.641,-503.479,
00:00:01:450,-0.548,0.611,-0.538,-42.603,-163.025,-500.611,
00:00:01:466,-0.579,0.648,-0.578,-40.101,-140.809,-478.76,
00:00:01:483,-0.603,0.691,-0.64,-49.683,-99.793,-458.374,
00:00:01:500,-0.604,0.717,-0.654,-82.032,-62.195,-449.952,
00:00:01:516,-0.601,0.734,-0.677,-150.818,-26.307,-432.068,
00:00:01:533,-0.571,0.774,-0.657,-233.643,7.324,-403.199,
00:00:01:550,-0.525,0.836,-0.595,-327.637,34.179,-372.559,
00:00:01:566,-0.496,0.919,-0.531,-333.558,45.654,-335.144,
00:00:01:583,-0.495,0.972,-0.518,-276.246,63.659,-287.659,
00:00:01:600,-0.486,0.98,-0.574,-195.069,122.619,-240.54,
00:00:01:616,-0.434,0.984,-0.594,-174.134,162.109,-195.13,
00:00:01:633,-0.33,1.013,-0.481,-17.64,230.957,-107.605,
00:00:01:650,-0.343,0.993,-0.418,34.79,202.453,-88.562,
00:00:01:666,-0.355,0.926,-0.359,105.774,191.467,-71.045,
00:00:01:683,-0.372,0.92,-0.364,187.072,219.909,-46.204,
00:00:01:700,-0.375,0.909,-0.342,287.353,208.679,-31.495,
00:00:01:716,-0.409,0.869,-0.331,357.483,208.313,-2.137,
00:00:01:733,-0.379,0.82,-0.316,393.982,225.952,1.037,
00:00:01:750,-0.395,0.792,-0.275,425.171,194.946,-32.898,
00:00:01:766,-0.387,0.821,-0.328,324.34,131.897,-72.937,
00:00:01:783,-0.4,0.842,-0.518,312.194,64.331,-132.447,
00:00:01:800,-0.434,0.753,-0.588,163.574,52.063,-157.776,
00:00:01:816,-0.416,0.784,-0.614,36.377,10.986,-230.957,
00:00:01:833,-0.435,0.823,-0.558,-18.616,-41.687,-287.659,
00:00:01:850,-0.48,0.773,-0.547,-71.839,-38.636,-292.115,
00:00:01:866,-0.458,0.731,-0.544,-83.069,-30.701,-295.655,
00:00:01:883,-0.454,0.7,-0.557,-35.767,-44.556,-310.669,
00:00:01:900,-0.408,0.671,-0.592,-73.487,-29.114,-314.393,
00:00:01:916,-0.315,0.672,-0.591,-119.873,19.714,-349.793,
00:00:01:933,-0.236,0.654,-0.543,-153.931,52.551,-390.686,
00:00:01:950,-0.175,0.731,-0.483,-138.977,136.108,-458.069,
00:00:01:966,-0.141,0.765,-0.45,-75.318,222.351,-525.086,
00:00:01:983,-0.108,0.784,-0.463,-66.59,267.151,-581.299,
00:00:02:0,-0.13,0.774,-0.434,-118.226,293.457,-625.428,
00:00:02:16,-0.136,0.788,-0.372,-175.66,347.412,-661.683,
00:00:02:33,-0.126,0.785,-0.277,-220.948,402.465,-676.88,
00:00:02:50,-0.135,0.799,-0.252,-272.522,448.608,-679.627,
00:00:02:66,-0.139,0.804,-0.237,-289.856,461.609,-644.532,
00:00:02:83,-0.147,0.786,-0.348,-304.932,446.899,-579.102,
00:00:02:100,-0.141,0.88,-0.359,-232.056,394.714,-510.01,
00:00:02:116,-0.154,0.942,-0.292,-142.518,370.91,-392.151,
00:00:02:133,-0.165,0.947,-0.271,-77.332,345.642,-262.085,
00:00:02:150,-0.194,0.834,-0.401,-5.005,301.147,-152.955,
00:00:02:166,-0.193,0.999,-0.418,151.184,230.102,-58.228,
00:00:02:183,-0.175,1.191,-0.265,312.683,213.44,68.847,
00:00:02:200,-0.144,1.122,-0.186,353.576,189.026,218.139,
00:00:02:216,-0.137,0.918,-0.181,183.044,112.548,315.673,
00:00:02:233,-0.142,0.848,-0.169,-102.845,28.259,406.738,
00:00:02:250,-0.155,1.002,-0.239,-193.177,52.002,545.959,
00:00:02:266,-0.149,0.922,-0.248,-36.866,85.205,614.38,
00:00:02:283,-0.189,0.85,-0.262,69.091,126.953,664.489,
00:00:02:300,-0.217,0.799,-0.277,70.617,177.429,685.791,
00:00:02:316,-0.27,0.805,-0.294,56.396,242.004,669.311,
00:00:02:333,-0.317,0.824,-0.336,-9.949,316.467,652.954,
00:00:02:350,-0.339,0.82,-0.379,-101.502,355.041,626.953,
00:00:02:366,-0.372,0.817,-0.457,-196.473,380.432,592.468,
00:00:02:383,-0.377,0.793,-0.554,-261.109,349.06,537.414,
00:00:02:400,-0.428,0.847,-0.6,-227.234,264.709,472.473,
00:00:02:416,-0.465,0.948,-0.577,-85.999,169.25,363.403,
00:00:02:433,-0.477,1.022,-0.589,113.464,58.715,242.187,
00:00:02:450,-0.429,1.045,-0.697,178.588,-36.072,137.146,
00:00:02:466,-0.351,1.035,-0.828,67.199,-128.907,42.907,
00:00:02:483,-0.317,0.907,-0.801,-101.136,-227.539,1.037,
00:00:02:500,-0.356,0.756,-0.634,-153.443,-295.472,7.629,
00:00:02:516,-0.393,0.699,-0.43,-32.837,-243.592,49.682,
00:00:02:533,-0.4,0.588,-0.293,180.297,-112.854,150.512,
00:00:02:550,-0.394,0.491,-0.278,351.867,1.77,242.553,
00:00:02:566,-0.39,0.426,-0.318,456.054,59.387,313.72,
00:00:02:583,-0.402,0.411,-0.368,516.967,78.918,349.548,
00:00:02:600,-0.416,0.423,-0.394,540.222,88.256,363.159,
00:00:02:616,-0.42,0.419,-0.376,539.306,95.52,365.844,
00:00:02:633,-0.433,0.419,-0.37,510.07,87.829,349.853,
00:00:02:650,-0.465,0.441,-0.392,503.845,31.25,317.81,
00:00:02:666,-0.531,0.482,-0.428,503.906,-37.842,259.704,
00:00:02:683,-0.585,0.516,-0.435,460.388,-69.703,187.927,
00:00:02:700,-0.582,0.549,-0.447,366.638,-75.196,97.106,
00:00:02:716,-0.541,0.617,-0.456,212.89,-107.178,-11.048,
00:00:02:733,-0.522,0.651,-0.464,26.428,-176.941,-126.221,
00:00:02:750,-0.546,0.67,-0.487,-154.908,-264.466,-217.164,
00:00:02:766,-0.596,0.712,-0.49,-274.109,-304.2,-283.326,
00:00:02:783,-0.63,0.745,-0.472,-314.148,-269.349,-298.768,
00:00:02:800,-0.577,0.753,-0.414,-325.562,-154.541,-296.57,
00:00:02:816,-0.583,0.765,-0.365,-321.839,-158.204,-290.284,
00:00:02:833,-0.615,0.741,-0.348,-287.903,-152.955,-277.344,
00:00:02:850,-0.643,0.708,-0.369,-226.746,-118.836,-263.916,
00:00:02:866,-0.649,0.696,-0.396,-148.804,-70.13,-252.686,
00:00:02:883,-0.644,0.701,-0.42,-52.185,-26.49,-251.526,
00:00:02:900,-0.642,0.69,-0.427,10.009,-11.658,-261.658,
00:00:02:916,-0.661,0.69,-0.447,11.108,17.273,-277.832,
00:00:02:933,-0.622,0.716,-0.477,-49.439,59.509,-297.486,
00:00:02:950,-0.61,0.744,-0.526,-134.034,77.148,-321.045,
00:00:02:966,-0.601,0.772,-0.534,-216.919,100.647,-343.567,
00:00:02:983,-0.59,0.825,-0.519,-245.728,143.554,-357.789,
00:00:03:0,-0.568,0.829,-0.522,-230.286,182.556,-361.573,
00:00:03:16,-0.552,0.821,-0.5,-199.524,212.829,-368.409,
00:00:03:33,-0.548,0.797,-0.481,-140.503,237.915,-369.202,
00:00:03:50,-0.528,0.815,-0.475,-63.233,264.526,-368.775,
00:00:03:66,-0.493,0.855,-0.442,-24.17,282.043,-357.483,
00:00:03:83,-0.476,0.864,-0.444,-20.386,285.644,-345.276,
00:00:03:100,-0.434,0.828,-0.421,-53.528,306.64,-331.482,
00:00:03:116,-0.397,0.837,-0.417,-22.828,299.011,-318.299,
00:00:03:133,-0.386,0.853,-0.414,22.583,295.837,-290.467,
00:00:03:150,-0.348,0.862,-0.394,48.706,290.222,-254.273,
00:00:03:166,-0.322,0.885,-0.356,82.214,260.254,-234.803,
00:00:03:183,-0.344,0.874,-0.324,120.422,239.563,-209.351,
00:00:03:200,-0.343,0.873,-0.334,171.814,228.454,-190.003,
00:00:03:216,-0.335,0.82,-0.338,217.59,196.289,-169.8,
00:00:03:233,-0.344,0.755,-0.33,200.622,154.541,-169.434,
00:00:03:250,-0.358,0.743,-0.313,146.545,117.065,-181.946,
00:00:03:266,-0.377,0.75,-0.331,122.436,86.303,-208.435,
00:00:03:283,-0.386,0.765,-0.341,100.341,62.561,-237.549,
00:00:03:300,-0.4,0.757,-0.369,35.095,57.251,-260.56,
00:00:03:316,-0.388,0.787,-0.404,-67.505,54.748,-267.884,
00:00:03:333,-0.38,0.814,-0.412,-132.325,62.377,-266.236,
00:00:03:350,-0.359,0.859,-0.419,-135.56,79.834,-257.752,
00:00:03:366,-0.316,0.904,-0.397,-87.464,101.623,-244.263,
00:00:03:383,-0.281,0.967,-0.43,-42.725,126.526,-215.882,
00:00:03:400,-0.212,0.994,-0.488,-35.218,147.766,-183.716,
00:00:03:416,-0.161,1.063,-0.5,-28.321,127.197,-140.625,
00:00:03:433,-0.082,1.093,-0.396,100.402,152.465,-43.091,
00:00:03:450,-0.075,1.069,-0.373,186.767,141.906,-1.282,
00:00:03:466,-0.088,1.028,-0.34,297.058,153.198,32.531,
00:00:03:483,-0.085,0.992,-0.302,420.471,154.724,59.936,
00:00:03:500,-0.151,0.927,-0.242,511.963,110.778,74.401,
00:00:03:516,-0.195,0.892,-0.238,520.324,123.108,92.773,
00:00:03:533,-0.193,0.879,-0.219,500.427,128.784,106.933,
00:00:03:550,-0.203,0.833,-0.177,479.614,118.591,105.224,
00:00:03:566,-0.222,0.813,-0.152,443.237,103.637,112.182,
00:00:03:583,-0.249,0.826,-0.172,380.127,96.008,125.244,
00:00:03:600,-0.268,0.826,-0.201,323.791,98.938,135.254,
00:00:03:616,-0.277,0.813,-0.208,291.076,94.604,142.212,
00:00:03:633,-0.269,0.758,-0.22,189.758,96.984,140.991,
00:00:03:650,-0.304,0.778,-0.22,103.698,78.064,126.403,
00:00:03:666,-0.292,0.745,-0.238,34.301,77.331,137.146,
00:00:03:683,-0.31,0.715,-0.255,-91.431,58.776,148.559,
00:00:03:700,-0.344,0.811,-0.25,-171.998,56.64,114.807,
00:00:03:716,-0.374,0.856,-0.313,-182.129,69.152,89.965,
00:00:03:733,-0.415,0.877,-0.341,-156.189,57.495,68.42,
00:00:03:750,-0.431,0.827,-0.258,-184.815,130.371,74.279,
00:00:03:766,-0.451,0.886,-0.212,-156.373,133.789,26.428,
00:00:03:783,-0.384,0.812,-0.26,-156.678,116.333,21.545,
00:00:03:800,-0.41,0.889,-0.229,-145.081,62.988,6.164,
00:00:03:816,-0.431,0.886,-0.271,-57.984,86.792,3.051,
00:00:03:833,-0.422,0.892,-0.225,-36.133,89.965,20.385,
00:00:03:850,-0.443,0.901,-0.223,-39.429,75.683,34.729,
00:00:03:866,-0.45,0.926,-0.198,-33.265,104.004,48.339,
00:00:03:883,-0.461,0.91,-0.224,13.549,97.229,60.852,
00:00:03:900,-0.476,0.883,-0.225,22.033,81.543,53.588,
00:00:03:916,-0.462,0.895,-0.203,20.568,90.515,73.913,
00:00:03:933,-0.492,0.871,-0.174,25.573,70.922,69.641,
00:00:03:950,-0.463,0.878,-0.191,41.198,99.853,73.547,
00:00:03:966,-0.463,0.886,-0.219,46.997,96.862,77.148,
00:00:03:983,-0.477,0.881,-0.203,42.663,110.717,89.111,
00:00:04:0,-0.476,0.901,-0.207,-13.55,135.742,92.285,
00:00:04:16,-0.47,0.924,-0.217,-35.889,141.174,99.182,
00:00:04:33,-0.435,0.941,-0.228,-56.092,151.733,106.567,
00:00:04:50,-0.423,0.973,-0.199,-39.124,150.146,106.384,
00:00:04:66,-0.42,0.94,-0.264,73.73,192.81,119.567,
00:00:04:83,-0.395,0.968,-0.213,163.147,160.827,124.939,
00:00:04:100,-0.486,0.914,-0.086,281.433,194.152,144.775,
00:00:04:116,-0.436,0.955,-0.089,442.443,238.159,144.958,
00:00:04:133,-0.445,0.797,-0.1,500,221.679,138.549,
00:00:04:150,-0.46,0.841,-0.083,441.406,219.116,135.498,
00:00:04:166,-0.488,0.81,-0.07,438.537,198.303,122.192,
00:00:04:183,-0.506,0.768,-0.053,387.939,181.884,100.83,
00:00:04:200,-0.534,0.769,-0.039,377.624,173.767,79.406,
00:00:04:216,-0.525,0.762,-0.004,374.633,159.851,68.908,
00:00:04:233,-0.525,0.753,0.008,353.271,153.137,61.645,
00:00:04:250,-0.536,0.752,0.015,319.397,138.794,57.556,
00:00:04:266,-0.538,0.773,0.009,319.397,138.61,52.978,
00:00:04:283,-0.568,0.792,0.016,364.257,130.92,36.621,
00:00:04:300,-0.551,0.757,0.035,396.24,152.099,10.376,
00:00:04:316,-0.568,0.784,0.047,407.776,126.648,-19.654,
00:00:04:333,-0.584,0.762,0.023,410.339,154.174,-8.912,
00:00:04:350,-0.575,0.744,0.062,408.874,168.396,-1.77,
00:00:04:366,-0.617,0.785,0.117,429.382,187.439,-12.574,
00:00:04:383,-0.597,0.783,0.151,430.175,219.482,-3.907,
00:00:04:400,-0.595,0.802,0.131,403.564,222.656,-19.898,
00:00:04:416,-0.632,0.785,0.144,452.819,253.479,-22.828,
00:00:04:433,-0.602,0.77,0.169,499.328,296.508,-18.555,
00:00:04:450,-0.603,0.783,0.223,559.082,311.95,-14.161,
00:00:04:466,-0.574,0.741,0.292,608.642,334.838,-6.653,
00:00:04:483,-0.589,0.777,0.373,700.012,377.868,-17.945,
00:00:04:500,-0.568,0.766,0.407,863.159,411.743,-1.282,
00:00:04:516,-0.543,0.692,0.422,868.347,401.611,16.601,
00:00:04:533,-0.563,0.621,0.455,677.002,374.145,32.043,
00:00:04:550,-0.57,0.658,0.541,467.712,374.878,32.226,
00:00:04:566,-0.574,0.624,0.596,307.067,369.018,31.005,
00:00:04:583,-0.625,0.711,0.666,347.534,410.583,18.615,
00:00:04:600,-0.588,0.629,0.719,359.436,423.462,49.56,
00:00:04:616,-0.592,0.58,0.745,224.365,408.874,56.213,
00:00:04:633,-0.637,0.671,0.694,112.426,411.987,47.119,
00:00:04:650,-0.637,0.708,0.594,101.562,458.252,66.284,
00:00:04:666,-0.615,0.807,0.547,142.944,429.626,44.982,
00:00:04:683,-0.609,0.859,0.69,266.601,424.865,72.509,
00:00:04:700,-0.564,0.706,0.805,343.078,482.544,89.965,
00:00:04:716,-0.573,0.776,0.748,264.404,586.425,92.956,
00:00:04:733,-0.512,0.758,0.727,197.937,665.649,117.92,
00:00:04:750,-0.422,0.785,0.683,95.153,658.874,49.011,
00:00:04:766,-0.506,0.847,0.567,178.466,652.099,33.386,
00:00:04:783,-0.497,0.75,0.661,295.227,705.017,79.467,
00:00:04:800,-0.393,0.777,0.762,403.198,732.483,79.406,
00:00:04:816,-0.37,0.812,0.774,521.057,714.416,61.95,
00:00:04:833,-0.437,0.803,0.815,598.755,672.241,41.626,
00:00:04:850,-0.489,0.818,0.648,757.385,721.923,-5.127,
00:00:04:866,-0.448,0.749,0.56,917.785,751.464,17.7,
00:00:04:883,-0.387,0.858,0.625,1295.044,882.568,78.43,
00:00:04:900,-0.272,0.581,0.502,1364.257,869.751,216.674,whipRH
00:00:04:916,-0.263,0.495,0.55,1247.497,764.892,244.079,
00:00:04:933,-0.263,0.636,0.811,1313.11,763.855,311.157,
00:00:04:950,-0.209,0.672,0.686,1567.688,765.747,392.639,
00:00:04:966,-0.171,0.521,0.672,1711.609,667.785,467.041,
00:00:04:983,-0.156,0.376,0.635,1569.641,640.93,525.695,
00:00:05:0,-0.08,0.402,0.694,1405.334,609.436,523.925,
00:00:05:16,-0.039,0.123,0.57,1327.392,655.029,500.061,
00:00:05:33,0.11,-0.062,0.534,1146.179,658.386,521.911,
00:00:05:50,0.203,-0.06,0.487,923.156,496.826,473.938,
00:00:05:66,0.19,-0.222,0.62,906.005,343.628,358.398,
00:00:05:83,0.216,-0.162,0.772,679.809,310.669,422.973,
00:00:05:100,0.289,-0.1,0.876,649.536,224.06,288.452,
00:00:05:116,0.249,-0.337,0.808,708.435,153.625,175.476,
00:00:05:133,0.242,-0.486,0.776,568.725,37.231,69.946,
00:00:05:150,0.162,-0.433,0.868,287.841,-63.599,-47.059,
00:00:05:166,0.111,-0.351,0.945,155.09,-118.103,-159.18,
00:00:05:183,0.108,-0.42,0.956,50.659,-128.785,-230.286,
00:00:05:200,0.132,-0.428,0.951,-114.136,-149.537,-258.912,
00:00:05:216,0.132,-0.475,0.894,-295.044,-252.747,-263.977,
00:00:05:233,0.005,-0.142,0.908,-499.817,-339.844,-251.282,
00:00:05:250,-0.102,0.203,1.03,-265.381,-317.749,-294.19,
00:00:05:266,-0.185,0.008,1.067,96.862,-234.314,-295.105,
00:00:05:283,-0.183,-0.086,1.065,254.638,-141.419,-284.119,
00:00:05:300,-0.161,-0.081,1.09,354.553,-95.643,-242.859,
00:00:05:316,-0.158,-0.071,1.108,452.27,-104.126,-205.872,
00:00:05:333,-0.202,-0.159,1.114,504.699,-77.332,-125.733,
00:00:05:350,-0.208,-0.153,1.182,463.928,-24.842,-52.735,
00:00:05:366,-0.166,-0.097,1.171,483.886,12.695,20.385,
00:00:05:383,-0.096,-0.349,1.188,408.874,62.011,113.769,
00:00:05:400,-0.044,-0.411,1.093,104.492,20.568,240.539,
00:00:05:416,-0.069,-0.197,1.093,-172.974,-44.19,296.325,
00:00:05:433,-0.088,-0.38,1.004,-196.534,38.94,317.199,
00:00:05:450,-0.012,-0.589,0.965,-326.539,79.65,312.744,
00:00:05:466,0.164,-0.65,0.945,-610.657,102.661,215.271,
00:00:05:483,0.162,-0.695,0.879,-755.005,-87.464,124.023,
00:00:05:500,-0.093,-0.61,0.938,-1017.273,-218.384,77.941,
00:00:05:516,-0.121,-0.454,0.86,-1306.824,-102.967,-29.053,
00:00:05:533,-0.019,-0.188,0.646,-1306.336,12.023,-82.093,
00:00:05:550,0.031,0.346,0.563,-902.161,-27.894,-172.486,
00:00:05:566,-0.079,0.619,0.802,-156.617,-116.089,-227.234,
00:00:05:583,-0.242,0.457,1.092,526.123,-54.2,-247.681,
00:00:05:600,-0.259,0.192,1.195,875.549,109.68,-214.661,
00:00:05:616,-0.125,0.06,1.318,1041.076,163.513,-193.482,
00:00:05:633,-0.043,-0.41,1.314,932.19,144.531,-84.9,
00:00:05:650,0.016,-0.76,1.109,252.502,95.52,-24.414,
00:00:05:666,0.052,-0.716,0.809,-656.556,78.247,1.22,
00:00:05:683,0.066,-0.441,0.649,-1287.903,11.23,12.085,
00:00:05:700,0.002,-0.149,0.701,-1553.895,-49.622,13.061,
00:00:05:716,-0.104,0.189,0.722,-1371.949,-35.95,-11.78,
00:00:05:733,-0.113,0.345,0.775,-911.988,-31.678,-34.668,
00:00:05:750,-0.119,0.527,0.91,-331.849,-65.918,-47.12,
00:00:05:766,-0.105,0.453,1.069,181.884,-24.109,-123.352,
00:00:05:783,-0.069,0.35,1.182,656.555,-10.682,-197.815,
00:00:05:800,-0.109,0.147,1.18,953.735,-72.022,-251.587,
00:00:05:816,-0.139,-0.069,1.174,986.511,-31.556,-234.131,
00:00:05:833,-0.05,-0.24,1.155,726.623,45.532,-142.945,
00:00:05:850,-0.021,-0.345,1.105,132.446,31.433,-106.446,
00:00:05:866,-0.057,-0.363,1.061,-538.331,80.322,-36.683,
00:00:05:883,0.026,-0.29,0.885,-1034.302,51.147,87.646,
00:00:05:900,-0.097,-0.015,0.772,-1594.788,-88.074,69.885,
00:00:05:916,-0.161,0.54,0.67,-1275.33,12.207,101.196,
00:00:05:933,-0.079,0.716,0.796,-553.711,66.223,59.631,
00:00:05:950,-0.128,0.492,0.843,134.521,-27.894,-54.505,
00:00:05:966,-0.214,0.391,1.045,593.139,-22.339,-131.287,
00:00:05:983,-0.179,0.461,1.167,1060.241,52.612,-213.196,
00:00:06:0,0.047,-0.518,1.196,818.908,65.673,-91.858,
00:00:06:16,0.073,-0.555,1.02,-164.124,-4.517,-21.058,
00:00:06:33,-0.086,-0.658,0.941,-1254.639,-50.171,147.705,
00:00:06:50,-0.102,0.31,1.004,-1806.336,-48.218,153.381,
00:00:06:66,-0.153,0.276,0.869,-1349.427,-25.818,210.632,
00:00:06:83,-0.197,0.134,0.748,-1204.773,66.467,190.246,
00:00:06:100,-0.079,0.564,0.682,-851.685,153.137,181.884,
00:00:06:116,-0.013,0.627,0.708,-172.486,41.32,114.807,
00:00:06:133,-0.1,0.522,0.843,511.657,13.855,-95.093,
00:00:06:150,-0.163,0.449,1.097,1072.754,57.312,-205.018,
00:00:06:166,-0.185,0.296,1.167,1454.101,76.416,-219.849,
00:00:06:183,-0.215,-0.029,1.192,1566.101,124.206,-226.197,
00:00:06:200,0.085,-0.541,1.077,-217.164,240.356,51.269,
00:00:06:216,-0.06,-0.545,1.218,-1106.324,149.475,215.088,
00:00:06:233,0.067,0.229,1.077,-1585.022,102.356,203.674,
00:00:06:250,-0.023,0.219,0.813,-1250.611,-11.902,212.341,
00:00:06:266,-0.116,0.49,0.636,-899.842,27.282,246.948,
00:00:06:283,-0.028,0.683,0.527,-366.333,73.059,185.608,
00:00:06:300,-0.029,0.547,0.56,335.876,23.315,22.399,
00:00:06:316,-0.162,0.34,0.774,784.851,-27.527,-35.584,
00:00:06:333,-0.154,0.338,0.945,1097.717,110.717,-117.859,
00:00:06:350,-0.064,0.259,1.004,1331.482,171.02,-153.138,
00:00:06:366,-0.045,-0.163,1.066,1253.418,253.479,-139.222,
00:00:06:383,0.148,-0.492,1.18,696.96,324.768,-10.743,
00:00:06:400,0.211,-0.493,1.201,-216.309,173.217,50.354,
00:00:06:416,0.156,-0.375,1.278,-900.635,65.185,77.331,
00:00:06:433,0.312,-0.19,0.931,-1226.624,107.177,173.584,
00:00:06:450,0.233,0.314,0.809,-1335.45,-191.346,125.488,
00:00:06:466,-0.014,0.559,0.794,-907.654,-217.53,106.994,
00:00:06:483,-0.001,0.507,0.62,-414.185,-126.587,138.488,
00:00:06:500,0.016,0.357,0.551,21.484,-184.449,77.087,
00:00:06:516,0.121,0.551,0.763,330.444,-325.379,37.353,
00:00:06:533,-0.245,0.44,0.683,782.165,-227.356,-115.235,
00:00:06:550,-0.22,0.468,1.091,1191.711,-67.688,-235.657,
00:00:06:566,-0.159,0.164,1.216,1393.737,191.345,-152.588,
00:00:06:583,0.059,-0.279,1.335,1062.255,324.157,-98.755,
00:00:06:600,0.148,-0.356,1.468,385.376,272.033,-35.157,
00:00:06:616,0.293,-0.756,1.062,-465.943,164.734,103.149,
00:00:06:633,0.223,-0.268,0.796,-1343.934,-30.213,202.026,
00:00:06:650,0.084,0.253,0.838,-1426.758,-134.156,140.319,
00:00:06:666,-0.044,0.62,0.677,-999.878,-137.513,115.844,
00:00:06:683,-0.095,0.578,0.572,-392.762,-138.062,127.685,
00:00:06:700,-0.222,0.127,0.713,384.643,-73.365,-81.543,
00:00:06:716,-0.1,0.426,1.154,531.372,-50.415,-184.327,
00:00:06:733,-0.066,0.586,1.4,1044.86,27.587,-206.543,
00:00:06:750,0.008,0.101,1.484,1260.62,120.056,-174.378,
00:00:06:766,0.084,-0.376,1.413,757.019,159.179,-142.151,
00:00:06:783,0.111,-0.46,1.029,64.392,99.487,-57.312,
00:00:06:800,0.244,-0.404,0.81,-514.466,29.907,71.35,
00:00:06:816,0.27,-0.309,0.62,-953.248,-105.774,41.32,
00:00:06:833,-0.082,0.058,0.671,-1186.89,-279.541,95.825,
00:00:06:850,-0.215,0.545,0.64,-850.586,-87.647,63.232,
00:00:06:866,-0.081,0.324,0.623,-377.32,-45.289,19.226,
00:00:06:883,0.083,0.612,0.934,-135.865,-255.31,-15.992,
00:00:06:900,-0.252,0.505,0.961,330.932,-199.341,-146.302,
00:00:06:916,-0.197,0.596,1.243,838.44,19.104,-258.606,
00:00:06:933,-0.092,0.346,1.342,1206.604,54.199,-208.191,
00:00:06:950,-0.056,-0.047,1.308,1100.525,87.585,-189.881,
00:00:06:966,-0.068,-0.173,1.039,749.328,139.282,-68.97,
00:00:06:983,-0.095,-0.675,0.852,138.122,214.904,-91.919,
00:00:07:0,0.011,-0.418,0.731,-1010.682,56.701,122.497,
00:00:07:16,0.11,-0.2,0.717,-1399.415,-83.069,115.173,
00:00:07:33,-0.026,0.23,0.639,-1476.685,-152.71,98.449,
00:00:07:50,-0.075,0.676,0.556,-1034.729,-273.499,130.92,
00:00:07:66,-0.109,0.883,0.604,-310.547,-104.737,-100.037,
00:00:07:83,-0.024,0.801,0.844,320.739,-99.61,-153.748,
00:00:07:100,-0.07,0.86,1.19,1041.626,-147.767,-233.46,
00:00:07:116,-0.236,0.344,1.262,1560.791,-23.438,-245.24,
00:00:07:133,-0.139,-0.08,1.109,1327.88,134.704,-227.662,
00:00:07:150,0.05,-0.371,1.008,763.244,130.127,-227.234,
00:00:07:166,0.087,-0.707,1.036,12.512,86.669,-100.647,
00:00:07:183,0.141,-1.021,0.876,-945.862,125.122,13.732,
00:00:07:200,0.045,0.32,1.152,-1485.474,157.104,194.519,
00:00:07:216,0.217,0.191,0.906,-1117.554,23.01,197.631,
00:00:07:233,-0.054,0.299,0.791,-1166.993,-195.13,155.334,
00:00:07:250,-0.155,0.803,0.687,-769.654,-88.929,90.698,
00:00:07:266,-0.057,0.779,0.608,-90.271,-112.366,7.995,
00:00:07:283,-0.157,0.592,0.691,549.743,-160.828,-118.958,
00:00:07:300,-0.177,0.031,1.326,1384.582,160.095,-145.203,
00:00:07:316,-0.064,-0.171,1.282,934.326,225.586,-117.737,
00:00:07:333,0.147,-0.588,1.14,349.243,193.176,-61.951,
00:00:07:350,0.118,-0.504,1.094,-479.493,89.111,38.635,
00:00:07:366,0.121,-0.203,1.244,-1067.017,95.886,140.014,
00:00:07:383,0.176,-0.12,0.94,-1333.191,71.411,202.27,
00:00:07:400,-0.002,0.159,0.827,-1443.421,-134.888,187.255,
00:00:07:416,-0.119,0.574,0.653,-1180.542,-78.919,183.776,
00:00:07:433,-0.134,0.923,0.289,-438.111,-201.233,177.734,
00:00:07:450,-0.163,0.95,0.518,419.738,-123.291,-120.484,
00:00:07:466,-0.249,0.517,0.693,1034.912,-2.808,-116.272,
00:00:07:483,-0.119,0.57,1.017,1384.094,87.524,-133.484,
00:00:07:500,-0.086,0.258,1.26,1758.606,116.882,-156.373,
00:00:07:516,-0.032,-0.278,1.372,1398.62,175.842,-83.191,
00:00:07:533,0.125,-0.467,1.355,661.132,158.813,-42.603,
00:00:07:550,0.349,-0.314,1.542,-199.402,124.878,-4.944,
00:00:07:566,0.211,-0.759,1.152,-1114.258,40.71,133.361,
00:00:07:583,0.163,-0.024,0.977,-1502.564,-3.357,162.109,
00:00:07:600,0.011,0.054,0.833,-1362.183,-133.728,190.918,
00:00:07:616,-0.197,0.483,0.643,-1226.563,-83.985,156.616,
00:00:07:633,-0.07,0.787,0.49,-741.7,16.357,95.52,
00:00:07:650,-0.098,0.849,0.502,21.057,-69.642,-53.772,
00:00:07:666,-0.223,0.64,0.61,714.721,13.122,-131.165,
00:00:07:683,-0.115,0.44,0.813,1192.138,121.093,-154.664,
00:00:07:700,-0.073,0.272,1.048,1464.294,146.85,-178.406,
00:00:07:716,-0.001,-0.079,1.222,1454.895,221.984,-177.491,
00:00:07:733,0.103,-0.373,1.377,969.665,243.713,-100.098,
00:00:07:750,0.195,-0.497,1.369,249.511,187.866,-6.348,
00:00:07:766,0.199,-0.54,1.372,-454.468,97.106,57.739,
00:00:07:783,0.317,-0.326,1.15,-1010.499,21.423,54.748,
00:00:07:800,0.175,-0.265,0.883,-1321.106,-248.536,93.444,
00:00:07:816,-0.239,0.271,0.834,-1472.657,-286.805,127.014,
00:00:07:833,-0.095,0.468,0.489,-1148.56,-40.284,138.672,
00:00:07:850,-0.075,0.859,0.326,-609.803,-134.583,90.332,
00:00:07:866,-0.267,0.967,0.378,257.812,-79.529,-20.813,
00:00:07:883,-0.183,0.655,0.542,973.449,114.441,-87.098,
00:00:07:900,-0.098,0.551,0.901,1436.584,153.991,-141.114,
00:00:07:916,-0.099,0.209,1.291,1800.598,233.947,-146.912,
00:00:07:933,0.023,-0.41,1.485,1421.508,297.363,-68.909,
00:00:07:950,0.164,-0.757,1.399,484.192,225.28,0.427,
00:00:07:966,0.344,-0.863,1.162,-389.222,227.478,86.608,
00:00:07:983,0.162,-0.546,1.214,-1646.18,-103.272,195.8,
00:00:08:0,-0.083,0.702,1.187,-1716.126,9.826,251.892,
00:00:08:16,0.203,0.257,0.707,-1126.77,8.239,260.254,
00:00:08:33,-0.102,0.616,0.576,-965.394,-157.776,200.317,
00:00:08:50,-0.141,0.748,0.479,-274.781,-13.306,153.747,
00:00:08:66,-0.034,0.536,0.447,357.971,5.798,33.447,
00:00:08:83,-0.098,0.351,0.665,787.231,-16.907,-102.784,
00:00:08:100,-0.031,0.371,0.983,1195.434,76.232,-205.811,
00:00:08:116,-0.032,0.197,1.196,1508.85,92.773,-245.85,
00:00:08:133,-0.016,-0.261,1.372,1399.414,189.758,-226.685,
00:00:08:150,0.238,-0.679,1.514,621.093,191.101,-106.507,
00:00:08:166,0.454,-0.692,1.465,-271.485,65.429,-74.097,
00:00:08:183,0.358,-0.758,1.193,-1036.194,-216.004,-65.552,
00:00:08:200,-0.014,-0.058,0.867,-1530.03,-252.686,26.55,
00:00:08:216,-0.073,0.423,0.54,-1526.368,-150.879,103.393,
00:00:08:233,-0.021,0.676,0.371,-1090.882,-129.7,83.557,
00:00:08:250,-0.166,0.863,0.346,-499.756,-145.325,0.61,
00:00:08:266,-0.199,0.897,0.531,257.812,-56.519,-120.179,
00:00:08:283,-0.159,0.678,0.78,972.717,-1.038,-159.668,
00:00:08:300,-0.146,0.446,1.095,1452.148,66.955,-207.825,
00:00:08:316,-0.117,-0.045,1.237,1538.147,170.715,-211.365,
00:00:08:333,0.096,-0.558,1.289,984.436,160.949,-136.902,
00:00:08:350,0.145,-0.548,1.247,168.518,114.196,-103.089,
00:00:08:366,0.234,-0.558,1.129,-467.591,81.97,-63.355,
00:00:08:383,-0.043,-0.799,0.735,-1036.988,183.166,-179.139,
00:00:08:400,0.18,0.029,0.886,-1494.996,-22.278,100.219,
00:00:08:416,0.127,0.448,0.914,-1417.969,-99.305,175.842,
00:00:08:433,0.124,0.636,0.74,-1050.416,-144.043,266.052,
00:00:08:450,0.035,0.733,0.615,-796.57,-299.805,199.89,
00:00:08:466,-0.077,0.762,0.613,-326.294,-332.032,142.089,
00:00:08:483,0.062,0.934,0.665,292.602,-435.059,171.63,
00:00:08:500,-0.124,0.511,0.63,759.155,-359.864,14.221,
00:00:08:516,-0.222,0.415,0.897,1097.351,-184.449,-121.46,
00:00:08:533,-0.201,0.309,1.127,1392.7,-71.412,-196.9,
00:00:08:550,-0.149,-0.11,1.308,1354.675,29.907,-227.662,
00:00:08:566,-0.028,-0.514,1.471,763.855,59.326,-202.393,
00:00:08:583,0.154,-0.654,1.374,-110.84,89.416,-146.973,
00:00:08:600,0.449,-0.389,1.327,-838.868,22.949,-22.4,
00:00:08:616,0.448,-0.448,0.743,-1249.085,-323.365,-86.487,
00:00:08:633,-0.235,0.433,0.776,-1660.462,-563.538,39.672,
00:00:08:650,-0.207,1.194,0.645,-1068.116,-333.008,114.38,
00:00:08:666,-0.14,0.858,0.353,-356.263,-143.067,-83.741,
00:00:08:683,-0.267,0.806,0.438,84.167,-154.786,-151.246,
00:00:08:700,-0.358,0.921,0.752,730.346,-25.208,-142.884,
00:00:08:716,-0.338,0.666,1.013,1424.133,142.334,-204.895,
00:00:08:733,-0.273,0.126,1.207,1591.43,248.108,-219.361,
00:00:08:750,-0.1,-0.443,1.338,1131.225,282.898,-130.982,
00:00:08:766,0.086,-0.719,1.344,177.734,255.615,-66.163,
00:00:08:783,0.238,-0.662,1.205,-618.226,179.504,50.842,
00:00:08:800,0.229,-0.531,0.964,-1325.074,13.122,64.392,
00:00:08:816,-0.043,0.148,0.76,-1857.422,-84.778,124.878,
00:00:08:833,-0.067,0.737,0.575,-1702.21,-45.411,151.245,
00:00:08:850,-0.06,1.042,0.508,-1071.778,-107.056,128.967,
00:00:08:866,-0.087,1.005,0.644,-379.09,-303.162,130.92,
00:00:08:883,-0.348,0.733,0.663,169.067,-89.783,-26.062,
00:00:08:900,-0.188,0.606,0.867,688.049,63.537,-70.862,
00:00:08:916,-0.094,0.434,1.007,1171.753,57.006,-174.988,whipRH
00:00:08:933,-0.132,0.167,1.267,1273.132,25.085,-234.253,
00:00:08:950,-0.112,-0.055,1.402,968.078,123.84,-180.481,
00:00:08:966,0.017,-0.262,1.327,376.77,136.291,-150.33,
00:00:08:983,0.095,-0.303,1.117,-285.767,139.831,-92.408,
00:00:09:0,0.166,-0.206,0.917,-762.818,138.366,60.241,
00:00:09:16,0.28,-0.03,0.713,-1184.693,33.508,21.728,
00:00:09:33,-0.081,0.36,0.582,-1298.34,-183.411,39.917,
00:00:09:50,-0.25,1.015,0.585,-880.738,-27.955,46.325,
00:00:09:66,-0.063,0.81,0.416,-189.148,26.489,-16.724,
00:00:09:83,-0.062,0.906,0.657,259.704,-162.049,-123.719,
00:00:09:100,-0.282,0.907,1.002,943.542,-83.619,-197.632,
00:00:09:116,-0.198,0.675,1.203,1540.283,45.044,-221.741,
00:00:09:133,-0.179,0.149,1.275,1550.781,65.124,-238.404,
00:00:09:150,-0.081,-0.271,1.382,917.846,52.124,-184.815,
00:00:09:166,0.094,-0.448,1.159,115.966,57.006,7.141,
00:00:09:183,0.362,0.676,1.518,-790.101,195.434,-115.662,
00:00:09:200,0.253,-0.262,0.753,-870.179,-68.36,140.869,
00:00:09:216,-0.222,0.582,0.811,-1046.753,-216.492,155.761,
00:00:09:233,-0.221,0.683,0.621,-537.354,17.883,149.841,
00:00:09:250,-0.072,0.442,0.504,-193.482,15.38,136.047,
00:00:09:266,-0.215,0.383,0.56,70.617,2.868,31.127,
00:00:09:283,-0.119,0.421,0.849,418.213,32.898,-73.975,
00:00:09:300,-0.152,0.549,1.015,842.346,15.564,-193.177,
00:00:09:316,-0.164,0.322,1.05,1175.842,99.975,-226.319,
00:00:09:333,-0.089,0.028,1.189,995.544,148.437,-196.412,
00:00:09:350,-0.002,-0.229,1.305,516.845,221.313,-121.582,
00:00:09:366,0.148,-0.298,1.197,-100.22,220.092,-8.179,
00:00:09:383,0.147,-0.281,1.143,-667.603,148.559,57.373,
00:00:09:400,0.099,-0.232,0.981,-1120.423,117.553,149.414,
00:00:09:416,0.037,0.132,0.734,-1456.482,36.071,184.021,
00:00:09:433,-0.024,0.621,0.687,-1223.511,-23.377,207.031,
00:00:09:450,-0.056,0.796,0.641,-659.729,-130.372,186.706,
00:00:09:466,-0.087,0.682,0.587,-28.748,-123.963,0.732,
00:00:09:483,-0.135,0.626,0.728,520.202,-192.81,-137.574,
00:00:09:500,-0.189,0.75,1.041,1142.456,-135.437,-257.203,
00:00:09:516,-0.259,0.508,1.068,1695.739,14.404,-301.819,
00:00:09:533,-0.011,-0.273,1.319,836.792,216.919,-222.413,
00:00:09:550,0.289,-0.533,1.372,5.188,286.193,-35.462,
00:00:09:566,0.038,-0.696,0.961,-1268.006,200.866,89.66,
00:00:09:583,0.079,0.767,1.121,-1839.966,311.401,248.84,
00:00:09:600,0.271,0.416,0.638,-1063.355,131.958,215.942,
00:00:09:616,-0.188,0.537,0.676,-849.732,-22.156,245.971,
00:00:09:633,-0.076,0.725,0.55,-385.926,80.749,151.367,
00:00:09:650,-0.005,0.544,0.487,171.325,-42.481,59.997,
00:00:09:666,-0.154,0.459,0.673,645.019,-67.444,-106.751,
00:00:09:683,-0.156,0.418,0.907,1075.256,61.035,-199.891,
00:00:09:700,-0.088,0.28,0.868,1373.352,121.154,-264.1,
00:00:09:716,-0.068,0.186,1.024,1405.517,186.584,-268.128,
00:00:09:733,0.024,-0.141,1.246,1048.95,266.601,-222.962,
00:00:09:750,0.157,-0.318,1.35,352.295,349.975,-59.51,
00:00:09:766,0.376,-0.919,1.258,-654.725,325.378,148.62,
00:00:09:783,0.189,0.369,1.352,-1753.907,60.302,277.282,
00:00:09:800,0.217,0.377,1.023,-1345.032,39.794,177.673,
00:00:09:816,0.061,0.111,0.778,-1265.992,-151.673,219.421,
00:00:09:833,-0.037,0.592,0.514,-1053.406,-128.418,186.523,
00:00:09:850,0.004,0.679,0.529,322.021,-336.365,126.342,
00:00:09:866,-0.161,0.398,0.703,777.832,-138.062,-174.988,
00:00:09:883,-0.133,0.402,0.853,1283.752,20.996,-229.31,
00:00:09:900,-0.029,0.425,1.074,1669.128,135.376,-308.228,
00:00:09:916,0.051,0.019,1.088,1683.593,379.76,-249.756,
00:00:09:933,0.319,-0.158,1.148,960.754,428.772,-116.028,
00:00:09:950,0.231,0.022,1.194,266.113,442.199,10.131,
00:00:09:966,0.285,-0.382,1.064,-176.697,517.7,210.632,
00:00:09:983,0.132,-0.263,1.053,-814.026,267.944,317.871,
00:00:10:0,0.109,0.519,0.855,-1025.452,175.354,182.556,
00:00:10:16,0.049,0.637,0.925,-483.582,-18.738,140.075,
00:00:10:33,-0.032,0.532,0.929,203.674,-69.886,24.108,
00:00:10:50,-0.096,0.102,0.847,579.345,-83.497,-40.345,
00:00:10:66,-0.104,0.147,0.865,646.24,-65.43,-119.08,
00:00:10:83,-0.062,0.351,1.122,947.57,7.812,-213.685,
00:00:10:100,-0.044,0.283,1.147,1248.291,130.249,-180.298,
00:00:10:116,0.012,-0.094,1.202,1003.051,215.332,-82.886,
00:00:10:133,0.028,-0.321,1.249,257.202,272.888,32.287,
00:00:10:150,0.168,-0.418,1.104,-332.642,308.227,126.892,
00:00:10:166,0.37,-0.982,0.907,-1065.979,420.593,212.707,
00:00:10:183,0.4,-0.327,1.052,-1990.052,-149.598,328.735,
00:00:10:200,0.104,0.832,0.687,-1500.489,-308.533,126.526,
00:00:10:216,-0.084,0.793,0.696,-382.874,-265.015,64.88,
00:00:10:233,-0.06,0.473,0.605,459.045,-77.881,-9.4,
00:00:10:250,-0.03,0.107,0.513,780.517,-31.128,-99.427,
00:00:10:266,0.014,0.078,1.038,909.912,-45.227,-235.596,
00:00:10:283,0.052,0.282,1.284,993.225,62.622,-310.73,
00:00:10:300,0.14,0.035,1.299,859.741,161.621,-244.507,
00:00:10:316,0.189,-0.234,1.309,390.442,196.899,-120.728,
00:00:10:333,0.255,-0.416,1.241,-309.388,214.538,-9.644,
00:00:10:350,0.515,-0.552,1.058,-973.389,326.904,21.972,
00:00:10:366,0.555,-0.556,0.891,-1792.115,-258.423,206.848,
00:00:10:383,-0.005,0.687,0.661,-1754.7,-627.32,209.655,
00:00:10:400,-0.208,1.095,0.375,-702.515,-261.841,-58.838,
00:00:10:416,-0.139,0.694,0.222,267.883,-42.481,17.639,
00:00:10:433,-0.054,0.386,0.47,752.38,19.836,-101.929,
00:00:10:450,0.043,0.491,1.224,1020.996,-99.915,-289.612,
00:00:10:466,-0.085,0.534,1.441,1396.972,70.678,-351.319,
00:00:10:483,0.184,0.028,1.482,1352.417,185.424,-222.535,
00:00:10:500,0.431,-0.631,1.381,780.212,360.473,14.709,
00:00:10:516,0.121,-1.359,0.888,-1470.093,170.532,294.372,
00:00:10:533,0.093,0.95,0.769,-2000,49.316,246.704,
00:00:10:550,0.23,0.422,0.561,-773.255,161.804,279.785,
00:00:10:566,0.177,-0.074,0.533,-602.539,-77.698,147.277,
00:00:10:583,-0.015,0.359,0.545,-333.374,-204.041,146.423,
00:00:10:600,0.066,0.384,0.859,263.061,-204.59,-58.411,
00:00:10:616,0.096,0.347,1.375,705.932,-211.365,-283.204,
00:00:10:633,0.104,0.698,1.614,953.186,-204.468,-326.661,
00:00:10:650,0.067,0.267,1.565,993.286,-76.905,-257.996,
00:00:10:666,0.118,0.037,1.064,584.838,64.392,-112.366,
00:00:10:683,0.191,-0.389,0.872,-44.922,194.58,-131.958,
00:00:10:700,0.337,-0.886,0.607,-1136.78,40.039,241.882,
00:00:10:716,-0.052,0.838,0.537,-1481.751,-193.97,178.1,
00:00:10:733,-0.137,0.573,0.451,-363.709,23.071,137.207,
00:00:10:750,0.039,0.309,0.492,13.855,21.362,125.732,
00:00:10:766,0.171,0.396,0.718,342.834,-159.058,9.704,
00:00:10:783,0.008,0.373,1.303,642.212,-178.65,-179.322,
00:00:10:800,0.118,0.704,1.496,1117.248,-115.235,-156.373,
00:00:10:816,0.076,0.256,1.487,1262.39,-10.743,-97.168,
00:00:10:833,0.004,0.117,1.285,663.94,234.13,-51.758,
00:00:10:850,0.121,-0.218,0.944,207.641,298.645,1.281,
00:00:10:866,0.297,-0.537,0.582,-327.576,513.488,223.449,
00:00:10:883,0.315,0.087,0.98,-1281.312,-125.061,347.534,
00:00:10:900,0.071,0.836,1.02,-468.14,-190.064,92.956,
00:00:10:916,-0.054,-0.16,0.695,158.996,-86.487,80.383,
00:00:10:933,0.045,-0.217,0.509,-4.395,-22.034,-80.872,
00:00:10:950,0.205,0.263,0.994,-73.487,-208.374,-165.65,
00:00:10:966,0.019,0.586,1.575,156.799,-373.291,-312.317,
00:00:10:983,-0.115,0.314,1.603,310.608,-124.817,-177.063,
00:00:11:0,0.045,0.234,1.249,-76.233,-12.635,-90.394,
00:00:11:16,0.029,0.458,1.06,-210.694,146.118,-102.784,
00:00:11:33,0.161,-0.322,0.774,-202.088,277.649,64.025,
00:00:11:50,0.19,-0.672,0.651,-986.939,318.969,127.197,
00:00:11:66,0.321,-0.13,0.514,-1368.592,-65.979,101.074,
00:00:11:83,0.088,0.891,0.516,-962.586,-500.245,180.664,
00:00:11:100,-0.181,1.014,0.732,136.108,-305.909,-99.366,
00:00:11:116,-0.109,0.572,1.177,890.319,-178.711,-184.632,
00:00:11:133,-0.072,0.635,1.433,1132.873,-162.72,-285.828,
00:00:11:150,-0.089,0.556,1.364,1367.797,-104.859,-258.24,
00:00:11:166,-0.008,-0.105,1.268,1044.738,197.937,-160.767,
00:00:11:183,0.26,-0.504,0.968,252.014,301.025,-7.752,
00:00:11:200,0.114,-1.17,0.728,-1084.778,393.676,190.612,
00:00:11:216,0.32,0.38,1.115,-1837.159,98.266,248.474,
00:00:11:233,0.136,0.216,0.755,-1329.346,-77.332,205.688,
00:00:11:250,0.016,0.729,0.757,-1056.763,-330.384,288.513,
00:00:11:266,-0.06,0.785,0.538,-281.373,-174.988,85.632,
00:00:11:283,-0.062,0.525,0.569,317.688,-160.645,3.356,
00:00:11:300,-0.086,0.298,0.95,663.879,-166.382,-104.859,
00:00:11:316,0.03,0.558,1.373,917.846,-200.989,-244.08,
00:00:11:333,-0.042,0.487,1.405,1158.081,-83.069,-226.685,
00:00:11:350,0.003,-0.02,1.371,903.808,36.499,-172.242,
00:00:11:366,-0.016,-0.258,0.911,245.361,297.912,-154.48,
00:00:11:383,0.143,-0.517,0.767,-325.379,275.634,-56.458,
00:00:11:400,0.087,-0.45,0.51,-1122.071,320.251,117.37,
00:00:11:416,0.193,-0.041,0.718,-1555.726,63.232,181.091,
00:00:11:433,-0.01,0.458,0.555,-1434.144,-47.852,178.466,
00:00:11:450,0.057,0.906,0.721,-809.754,-230.53,153.137,
00:00:11:466,-0.105,0.498,0.863,716.369,-174.195,-28.687,
00:00:11:483,-0.004,0.641,1.26,1215.454,-292.542,-226.563,
00:00:11:500,-0.088,0.67,1.395,1854.98,-186.036,-279.175,
00:00:11:516,-0.068,0.177,1.347,1775.085,48.278,-207.215,
00:00:11:533,0.039,-0.114,1.051,1031.25,273.376,-52.43,
00:00:11:550,-0.091,-0.703,0.547,263.305,598.266,-2.32,
00:00:11:566,0.171,0.053,0.84,-1630.86,-205.811,204.712,
00:00:11:583,0.016,0.74,1.072,-1188.172,-404.175,100.525,
00:00:11:600,-0.091,0.753,0.872,-236.268,-356.568,-21.912,
00:00:11:616,-0.106,0.363,0.671,342.529,-291.993,-105.896,
00:00:11:633,-0.057,0.505,1.059,640.197,-362.244,-240.113,
00:00:11:650,-0.129,0.29,1.112,945.678,-25.025,-209.534,
00:00:11:666,0.021,0.21,1.03,587.524,215.576,-76.783,
00:00:11:683,0.009,0.038,0.982,133.056,464.965,-10.193,
00:00:11:700,0.165,-0.324,0.686,-405.213,468.139,236.755,
00:00:11:716,0.204,0.086,0.734,-1226.441,209.472,228.21,
00:00:11:733,0.094,0.496,0.972,-1084.351,45.471,195.495,
00:00:11:750,0.075,0.086,0.896,-187.928,-126.465,65.002,
00:00:11:766,0.1,0.239,0.897,74.89,-269.593,-87.647,
00:00:11:783,0.05,0.279,1.143,475.708,-507.019,-251.526,
00:00:11:800,-0.167,0.627,1.185,652.16,-387.452,-349.122,
00:00:11:816,-0.087,0.741,1.183,1001.281,-149.659,-320.191,
00:00:11:833,-0.036,0.381,1.061,978.82,23.376,-185.242,
00:00:11:850,-0.045,0.381,1.146,426.391,322.204,-148.438,
00:00:11:866,0.071,-0.366,0.82,10.07,412.292,-15.809,
00:00:11:883,0.184,-0.484,0.939,-708.741,397.766,171.508,
00:00:11:900,0.432,-0.209,0.906,-1148.926,175.598,188.72,
00:00:11:916,0.044,-0.182,0.91,-1488.587,-229.92,145.202,
00:00:11:933,0,1.018,0.852,-1055.787,-382.813,214.599,
00:00:11:950,-0.073,0.575,0.781,519.226,-352.234,-125.428,
00:00:11:966,-0.174,0.603,1.1,835.449,-313.355,-194.825,
00:00:11:983,-0.238,0.547,1.101,1175.659,-130.982,-216.675,
00:00:12:0,-0.116,0.021,0.983,1043.518,19.836,-131.226,
00:00:12:16,-0.056,0.017,0.841,503.051,174.56,-97.779,
00:00:12:33,-0.076,-0.239,0.85,77.331,329.589,-40.955,
00:00:12:50,-0.035,-0.647,0.641,-564.087,468.811,122.741,
00:00:12:66,0.215,0.018,0.851,-1256.287,234.192,163.757,
00:00:12:83,0.059,0.186,0.984,-1324.341,31.555,140.991,
00:00:12:100,-0.012,0.674,0.78,-981.507,13.549,164.306,
00:00:12:116,0.054,0.874,0.76,-212.952,-122.681,159.668,
00:00:12:133,0.065,0.749,0.849,501.464,-336.365,28.198,
00:00:12:150,-0.112,0.573,1.127,951.599,-371.644,-130.677,
00:00:12:166,0.003,-0.018,1.111,601.013,238.952,-86.426,
00:00:12:183,0.08,0.035,1.11,97.473,350.952,-28.748,
00:00:12:200,0.24,-0.581,1.048,-521.18,426.88,114.929,
00:00:12:216,0.443,-0.329,0.803,-1410.584,262.695,234.985,
00:00:12:233,-0.014,0.563,0.92,-1498.108,-99.854,202.026,
00:00:12:250,-0.101,1.03,0.833,-683.411,-24.414,181.884,
00:00:12:266,0.02,0.505,0.512,199.096,-78.736,156.555,
00:00:12:283,0.009,0.32,0.671,475.586,-157.044,-78.492,
00:00:12:300,0.019,0.611,1.131,794.86,-347.901,-70.679,
00:00:12:316,-0.29,0.534,1.214,1120.361,-37.72,-188.233,
00:00:12:333,-0.051,0.048,1.197,1047.119,157.959,-143.738,
00:00:12:350,0.055,-0.043,1.105,472.046,237.548,-70.679,
00:00:12:366,0.087,-0.186,0.991,-78.431,210.998,68.237,
00:00:12:383,0.089,-0.774,0.504,-657.166,356.811,155.334,
00:00:12:400,0.139,0.142,0.828,-1630.982,79.467,247.558,
00:00:12:416,-0.056,0.799,0.891,-1072.51,67.627,216.613,
00:00:12:433,0.106,0.548,0.693,-328.797,19.043,238.464,
00:00:12:450,0.074,0.297,0.62,118.164,-166.443,142.822,
00:00:12:466,-0.088,0.317,0.849,392.7,-290.833,-90.699,
00:00:12:483,-0.051,0.449,1.231,688.72,-314.82,-157.654,
00:00:12:500,-0.145,0.557,1.185,1016.357,-84.229,-209.778,
00:00:12:516,-0.022,0.37,1.152,1012.756,45.715,-217.957,
00:00:12:533,-0.008,-0.012,1.13,641.357,217.407,-179.932,
00:00:12:550,-0.013,-0.067,1.105,-21.241,446.228,-225.953,
00:00:12:566,0.01,-0.524,0.994,-586.792,530.944,-182.068,
00:00:12:583,0.352,-0.345,0.79,-1132.325,252.136,199.401,
00:00:12:600,0.13,0.277,0.824,-1399.598,-50.782,182.495,
00:00:12:616,-0.131,0.772,0.855,-968.873,-69.275,231.567,
00:00:12:633,0.051,0.679,0.711,-273.438,-106.751,203.613,
00:00:12:650,-0.264,0.602,1.171,971.618,-201.6,-190.491,
00:00:12:666,-0.145,0.337,1.201,1207.763,55.542,-176.758,
00:00:12:683,-0.008,0.066,1.22,839.477,148.193,-217.225,
00:00:12:700,0.082,0.12,1.199,403.991,285.461,-141.968,
00:00:12:716,0.298,0.102,1.483,-104.798,384.765,-134.461,
00:00:12:733,0.336,-0.518,0.988,-650.147,358.825,86.731,
00:00:12:750,0.243,-0.306,0.806,-1443.36,168.274,263.366,
00:00:12:766,0.012,0.477,0.911,-1579.224,24.108,265.258,
00:00:12:783,0.075,0.761,0.689,-876.648,6.774,248.901,
00:00:12:800,0.179,0.841,0.795,-304.444,-259.461,242.248,
00:00:12:816,-0.07,0.463,0.693,235.351,-265.381,70.373,
00:00:12:833,-0.105,0.557,1.026,601.501,-282.227,-139.954,
00:00:12:850,-0.092,0.684,1.236,1093.444,-258.24,-210.389,
00:00:12:866,-0.16,0.48,1.095,1356.506,1.464,-187.073,
00:00:12:883,-0.045,0.038,1.045,968.689,178.466,-217.713,
00:00:12:900,0.075,0.093,1.07,333.13,352.966,-186.341,whipRH
00:00:12:916,0.283,-0.22,0.961,-57.068,451.416,-69.092,
00:00:12:933,0.385,-0.405,0.879,-491.272,387.39,127.807,
00:00:12:950,0.284,-0.025,1.123,-976.441,153.991,270.813,
00:00:12:966,0.168,0.187,0.892,-905.945,8.789,187.072,
00:00:12:983,-0.054,0.173,0.65,-828.37,-234.62,201.294,
00:00:13:0,-0.002,0.714,0.864,-555.726,-366.578,73.73,
00:00:13:16,0.004,0.819,0.95,156.433,-408.875,-36.499,
00:00:13:33,-0.166,0.672,0.918,605.041,-351.929,-136.78,
00:00:13:50,-0.147,0.783,1.189,933.654,-231.69,-136.109,
00:00:13:66,-0.123,0.725,1.235,1299.926,-50.782,-153.687,
00:00:13:83,-0.063,-0.046,1.182,1078.552,162.475,-101.929,
00:00:13:100,-0.012,-0.169,1.117,350.036,368.591,-114.869,
00:00:13:116,0.167,-0.879,0.753,-275.635,650.329,-65.064,
00:00:13:133,0.244,-0.841,0.588,-1083.619,317.382,165.71,
00:00:13:150,0.092,0.829,0.953,-1066.468,-12.513,213.806,
00:00:13:166,0.051,0.56,0.759,-522.278,-105.347,179.138,
00:00:13:183,0.053,0.481,0.705,-116.761,-171.998,42.419,
00:00:13:200,0.041,0.621,0.831,238.708,-313.599,-102.601,
00:00:13:216,-0.143,0.633,0.989,766.296,-356.202,-115.479,
00:00:13:233,-0.159,0.625,1.192,1276.184,-203.431,-236.084,
00:00:13:250,-0.096,0.221,1.194,1257.873,-1.343,-176.819,
00:00:13:266,0.022,-0.094,1.249,755.92,94.665,-138.367,
00:00:13:283,0.045,-0.092,1.014,302.002,96.618,-51.819,
00:00:13:300,-0.03,-0.546,0.809,-159.607,231.14,-116.394,
00:00:13:316,0.264,-0.245,1.018,-829.529,346.923,26.245,
00:00:13:333,0.195,0.11,0.821,-1364.258,73.364,190.246,
00:00:13:350,0.054,0.676,0.956,-1278.565,-65.247,192.749,
00:00:13:366,0.159,0.599,0.802,-300.782,-341.797,265.93,
00:00:13:383,-0.038,0.523,0.761,58.105,-514.771,54.626,
00:00:13:400,-0.184,0.514,0.741,527.771,-471.253,-33.692,
00:00:13:416,-0.232,0.455,0.763,1027.954,-385.621,-93.567,
00:00:13:433,-0.342,0.454,0.884,1388.122,-219.91,-158.814,
00:00:13:450,-0.29,0.187,1.059,1411.743,51.208,-159.058,
00:00:13:466,-0.122,-0.253,1.123,944.641,263.794,-149.964,
00:00:13:483,0.035,-0.224,1.197,290.1,306.274,-99.366,
00:00:13:500,0.044,-0.605,0.97,-141.968,435.058,-60.547,
00:00:13:516,0.27,-1.101,0.736,-904.969,661.132,15.38,
00:00:13:533,0.246,0.26,0.77,-1584.534,80.993,148.193,
00:00:13:550,0.041,0.927,1.129,-1038.941,-74.585,153.137,
00:00:13:566,-0.084,0.408,0.522,-17.029,-367.127,131.408,
00:00:13:583,-0.153,0.598,0.754,280.334,-371.277,-101.441,
00:00:13:600,-0.234,0.524,0.763,921.508,-421.265,-61.341,
00:00:13:616,-0.319,0.634,0.999,1289.245,-202.637,-208.741,
00:00:13:633,-0.198,0.451,1.058,1550.781,23.925,-170.044,
00:00:13:650,-0.114,-0.048,1.095,1280.639,148.071,-122.376,
00:00:13:666,-0.001,-1.478,0.749,-583.008,522.766,68.908,
00:00:13:683,0.005,-0.316,0.725,-1670.716,357.177,272.827,
00:00:13:700,0.214,0.57,0.939,-1375.794,352.234,255.615,
00:00:13:716,0.342,0.243,0.785,-722.107,116.333,119.445,
00:00:13:733,0.156,0.201,0.887,-593.079,-130.127,55.603,
00:00:13:750,0.098,0.353,0.859,-345.581,-341.614,39.794,
00:00:13:766,-0.154,0.343,0.842,224.487,-371.521,-176.27,
00:00:13:783,-0.257,0.683,1.168,565.857,-299.5,-297.669,
00:00:13:800,-0.352,0.648,1.169,1062.683,-43.152,-229.065,
00:00:13:816,-0.178,0.213,1.205,941.833,129.15,-125.55,
00:00:13:833,-0.092,-0.043,1.266,462.707,264.038,-112.183,
00:00:13:850,0.094,-0.397,1.014,-60.303,366.394,84.228,
00:00:13:866,0.288,0.066,0.9,-1245.179,-22.461,118.408,
00:00:13:883,-0.013,0.535,1.002,-902.527,-222.046,179.138,
00:00:13:900,-0.052,0.505,0.926,-415.345,-369.324,228.21,
00:00:13:916,-0.087,0.286,0.676,-132.081,-270.997,56.823,
00:00:13:933,-0.12,0.252,0.586,95.459,-396.424,40.832,
00:00:13:950,-0.271,0.577,0.95,418.701,-329.651,-168.091,
00:00:13:966,-0.329,0.606,1.096,908.264,-150.635,-132.386,
00:00:13:983,-0.289,0.358,1.058,1075.927,116.638,-139.71,
00:00:14:0,-0.166,-0.029,1.133,799.743,328.491,-135.865,
00:00:14:16,-0.035,-0.07,0.955,443.054,407.531,-6.653,
00:00:14:33,-0.096,-0.469,0.823,71.533,500.671,-91.065,
00:00:14:50,0.231,-1.312,0.69,-561.646,611.938,34.668,
00:00:14:66,0.358,-0.399,0.936,-1686.829,155.273,182.678,
00:00:14:83,0.075,0.867,0.89,-917.115,-248.291,94.726,
00:00:14:100,-0.007,0.738,0.798,-254.944,-492.371,95.031,
00:00:14:116,-0.243,0.514,0.601,164.734,-366.394,-73.121,
00:00:14:133,-0.256,0.52,0.576,434.814,-269.288,-143.128,
00:00:14:150,-0.276,0.708,0.844,919.067,-204.163,-146.18,
00:00:14:166,-0.321,0.532,1.114,1313.964,21.301,-184.021,
00:00:14:183,-0.197,0.063,1.174,1154.541,345.825,-141.48,
00:00:14:200,0.11,-0.06,1.377,610.29,411.377,-101.685,
00:00:14:216,0.287,-0.162,1.409,116.638,394.47,81.787,
00:00:14:233,0.226,-0.869,0.814,-799.683,325.317,236.267,
00:00:14:250,0.339,0.446,1.115,-1877.32,165.039,332.153,
00:00:14:266,0.305,0.486,0.914,-1159.485,-119.812,209.594,
00:00:14:283,-0.168,0.577,0.778,-754.212,-309.205,250.427,
00:00:14:300,-0.11,0.567,0.681,-198.853,-214.295,192.138,
00:00:14:316,-0.006,0.334,0.485,232.36,-317.078,31.189,
00:00:14:333,-0.351,0.331,0.682,513.183,-358.948,-108.216,
00:00:14:350,-0.365,0.446,0.932,993.042,-97.474,-129.761,
00:00:14:366,-0.176,0.599,1.154,1302.978,51.025,-264.283,
00:00:14:383,-0.187,0.224,1.189,1363.952,245.178,-280.396,
00:00:14:400,0.111,0.225,1.514,695.19,506.347,-257.569,
00:00:14:416,0.49,-0.305,1.472,-65.003,512.024,-28.382,
00:00:14:433,0.254,-0.82,0.843,-1326.111,152.221,259.521,
00:00:14:450,0.135,0.893,1.359,-1934.815,133.606,341.003,
00:00:14:466,0.318,0.486,0.849,-894.593,82.214,293.457,
00:00:14:483,0.074,0.289,0.563,-787.659,-292.115,246.826,
00:00:14:500,-0.11,0.587,0.596,-643.738,-381.958,187.561,
00:00:14:516,-0.146,0.538,0.71,-56.885,-334.839,32.653,
00:00:14:533,-0.3,0.413,0.675,414.795,-353.455,-52.552,
00:00:14:550,-0.408,0.388,0.799,782.348,-285.401,-50.415,
00:00:14:566,-0.396,0.565,0.943,1144.165,-18.738,-193.848,
00:00:14:583,-0.24,0.181,1.039,1189.087,207.946,-159.913,
00:00:14:600,-0.121,-0.057,1.105,641.723,515.075,-245.972,
00:00:14:616,0.176,-0.404,1.272,60.485,434.814,-47.913,
00:00:14:633,0.43,-0.938,1.067,-818.543,302.49,179.077,
00:00:14:650,0.148,-0.074,1.151,-1992.676,-169.556,261.169,
00:00:14:666,-0.009,1.073,1.115,-1859.437,-188.233,234.924,
00:00:14:683,0.067,0.95,0.704,-879.273,-236.878,223.755,
00:00:14:700,-0.042,0.556,0.649,-421.57,-468.811,137.207,
00:00:14:716,-0.224,0.746,0.879,-125.733,-578.186,128.601,
00:00:14:733,-0.463,0.589,0.491,327.942,-274.109,52.795,
00:00:14:750,-0.331,0.703,0.598,835.754,-114.197,18.92,
00:00:14:766,-0.346,0.657,0.925,1219.36,15.38,-102.356,
00:00:14:783,-0.365,0.145,1.047,1130.066,301.452,-20.935,
00:00:14:800,-0.14,0.047,1.35,416.32,607.177,-31.006,
00:00:14:816,0.175,-0.206,1.077,-74.158,596.008,140.869,
00:00:14:833,0.268,-0.454,0.609,-520.569,457.214,236.816,
00:00:14:850,0.183,0.118,1,-1443.055,-102.967,255.859,
00:00:14:866,0.11,1.171,1.159,-1047.242,-287.293,287.414,
00:00:14:883,-0.001,0.792,0.738,-52.002,-257.569,155.09,
00:00:14:900,-0.245,0.592,0.681,363.159,-462.098,90.759,
00:00:14:916,-0.469,0.696,0.744,730.468,-165.467,-50.293,
00:00:14:933,-0.425,0.697,0.833,1215.393,99.853,-27.955,
00:00:14:950,-0.272,0.312,0.902,1305.847,378.784,18.005,
00:00:14:966,-0.088,-0.145,1.146,774.536,517.212,123.23,
00:00:14:983,-0.061,-0.532,1.085,-65.552,759.643,58.349,
00:00:15:0,0.54,-0.553,1.333,-685.791,655.212,196.777,
00:00:15:16,0.667,-0.464,1.121,-1475.342,9.399,267.089,
00:00:15:33,0.099,0.579,1.113,-1652.283,-540.162,261.352,
00:00:15:50,-0.125,1.224,1.183,-745.362,-574.524,90.637,
00:00:15:66,-0.166,0.64,0.477,206.421,-561.524,60.669,
00:00:15:83,-0.277,0.411,0.248,417.968,-611.268,-27.466,
00:00:15:100,-0.487,0.633,0.354,689.758,-530.213,-79.224,
00:00:15:116,-0.735,0.405,0.525,1146.484,-94.91,-86.426,
00:00:15:133,-0.545,0.259,0.803,1167.663,460.327,-63.66,
00:00:15:150,-0.147,0.011,1.13,659.118,740.051,-60.364,
00:00:15:166,0.135,-0.093,1.238,17.211,768.066,60.485,
00:00:15:183,0.42,-0.601,0.963,-842.774,596.008,316.589,
00:00:15:200,0.425,0.513,1.298,-1912.232,84.899,335.51,
00:00:15:216,0.27,1.253,1.286,-1136.048,-190.552,254.76,
00:00:15:233,0.09,0.715,1.1,-255.066,-553.284,219.421,
00:00:15:250,-0.12,0.512,0.875,137.146,-680.298,169.006,
00:00:15:266,-0.318,0.289,0.213,454.834,-685.12,117.004,
00:00:15:283,-0.505,0.372,0.508,648.437,-449.524,-82.52,
00:00:15:300,-0.496,0.602,0.952,1102.478,-153.199,-59.632,
00:00:15:316,-0.398,0.2,0.983,1195.312,330.81,-87.159,
00:00:15:333,-0.147,-0.167,1.126,578.308,582.885,-109.253,
00:00:15:350,-0.045,-0.41,0.833,-125.611,868.957,-101.136,
00:00:15:366,0.248,-0.249,0.776,-740.479,668.029,24.169,
00:00:15:383,0.597,-0.002,1.058,-1300.232,267.517,46.569,
00:00:15:400,0.19,0.329,1.148,-1616.395,-245.179,174.255,
00:00:15:416,-0.099,1.206,0.849,-916.687,-393.433,140.564,
00:00:15:433,-0.142,0.842,0.511,119.629,-377.381,-6.348,
00:00:15:450,-0.25,0.453,0.434,464.233,-425.66,-70.008,
00:00:15:466,-0.349,0.656,0.655,834.9,-485.413,-126.038,
00:00:15:483,-0.548,0.399,0.75,1284.057,-178.528,-255.188,
00:00:15:500,-0.442,0.145,0.868,1282.104,255.737,-240.967,
00:00:15:516,-0.172,-0.252,0.967,652.282,531.067,-268.494,
00:00:15:533,0.134,-0.318,1.192,-217.896,606.323,-183.594,
00:00:15:550,0.266,-0.579,0.986,-1257.081,373.413,-10.132,
00:00:15:566,0.25,0.598,1.314,-1953.003,-40.345,34.362,
00:00:15:583,0.14,1.065,0.699,-1058.106,-257.813,-42.176,
00:00:15:600,-0.216,0.619,0.577,-462.281,-663.208,91.125,
00:00:15:616,-0.389,0.61,0.412,-75.501,-615.723,41.503,
00:00:15:633,-0.358,0.639,0.744,300.659,-650.452,30.883,
00:00:15:650,-0.417,0.656,0.665,800.171,-229.371,-149.414,
00:00:15:666,-0.396,0.422,0.646,1078.064,46.081,-215.394,
00:00:15:683,-0.251,0.469,1.022,1127.014,221.801,-195.679,
00:00:15:700,-0.158,0.08,1.37,954.651,422.851,-157.532,
00:00:15:716,-0.12,-0.474,1.22,110.778,728.881,-121.338,
00:00:15:733,0.488,-0.474,1.139,-903.26,447.815,14.587,
00:00:15:750,0.146,0.51,1.353,-1600.22,-430.909,105.102,
00:00:15:766,-0.383,0.849,1.124,-1052.186,-381.592,-42.359,
00:00:15:783,-0.23,0.633,0.688,-515.198,-157.166,101.989,
00:00:15:800,-0.045,0.629,0.356,-76.722,-304.2,67.627,
00:00:15:816,-0.304,0.619,0.265,395.446,-425.904,-5.005,
00:00:15:833,-0.391,0.611,0.807,891.479,-284.974,-103.455,
00:00:15:850,-0.429,0.624,1.006,1343.933,58.654,-212.83,
00:00:15:866,-0.305,0.524,0.982,1538.879,303.466,-207.764,
00:00:15:883,-0.198,-0.082,1.093,1234.68,381.713,-160.218,
00:00:15:900,-0.077,-1.048,0.916,-85.938,734.314,4.882,
00:00:15:916,-0.069,0.026,0.771,-1986.268,171.02,160.522,
00:00:15:933,-0.08,1.581,1.297,-1168.335,175.109,155.578,
00:00:15:950,-0.088,-0.196,0.817,-741.822,131.53,251.648,
00:00:15:966,-0.007,-0.017,0.804,-1473.938,-68.421,237.976,
00:00:15:983,-0.002,1.104,0.89,-881.592,-444.581,221.618,
00:00:16:0,-0.285,0.634,0.694,21.057,-468.628,117.309,
00:00:16:16,-0.261,0.572,0.654,543.09,-298.768,-34.79,
00:00:16:33,-0.225,0.77,0.878,1149.719,-270.264,-195.862,
00:00:16:50,-0.426,0.687,0.903,1656.799,-33.875,-303.345,
00:00:16:66,-0.256,0.391,0.922,1751.037,336.914,-349.61,
00:00:16:83,0.068,-0.054,1.258,1200.439,565.857,-291.871,
00:00:16:100,0.162,-0.975,0.915,-247.559,461.792,-5.982,
00:00:16:116,-0.186,0.276,0.891,-2000,152.038,92.468,
00:00:16:133,0.059,1.298,1.175,-1405.396,193.359,210.632,
00:00:16:150,-0.023,-0.089,0.755,-994.507,161.804,185.363,
00:00:16:166,-0.055,0.629,0.628,-1334.351,-139.222,253.296,
00:00:16:183,-0.003,1.067,0.988,-393.86,-539.002,184.814,
00:00:16:200,-0.398,0.506,0.69,361.999,-385.682,41.809,
00:00:16:216,-0.239,0.537,0.691,748.291,-141.663,-81.421,
00:00:16:233,-0.144,0.702,0.862,1209.045,-192.688,-255.982,
00:00:16:250,-0.454,0.531,0.876,1450.134,37.963,-337.952,
00:00:16:266,-0.223,0.218,1.131,1080.505,488.525,-325.44,
00:00:16:283,0.09,-0.279,1.094,321.96,390.503,-170.105,
00:00:16:300,0.178,-0.755,1,-763.245,390.136,55.969,
00:00:16:316,0.073,0.415,1.135,-1794.007,-29.664,142.578,
00:00:16:333,-0.198,0.769,0.854,-1221.009,-169.495,60.18,
00:00:16:350,-0.264,0.748,0.539,-791.321,-104.737,152.282,
00:00:16:366,-0.267,0.607,0.549,285.644,-208.68,23.62,
00:00:16:383,-0.202,0.689,0.985,850.891,-292.969,-51.88,
00:00:16:400,-0.427,0.541,1.021,1200.195,-3.54,-197.876,
00:00:16:416,-0.182,0.433,1.066,1227.6,196.472,-216.126,
00:00:16:433,-0.113,0.117,1.297,860.351,297.668,-229.798,
00:00:16:450,0.087,0.029,1.303,276.672,278.503,-88.135,
00:00:16:466,-0.054,-0.674,0.826,-710.45,350.586,32.531,
00:00:16:483,0.007,0.45,0.829,-1722.779,177.49,249.267,
00:00:16:500,-0.001,0.81,0.717,-1239.38,34.912,222.046,
00:00:16:516,-0.313,0.514,0.419,-640.137,-125.367,283.508,
00:00:16:533,-0.16,0.648,0.813,-159.852,-277.283,352.783,
00:00:16:550,-0.22,0.39,0.676,300.109,-126.831,65.734,
00:00:16:566,-0.154,0.193,0.884,564.697,-176.209,-59.693,
00:00:16:583,-0.189,0.88,1.156,887.512,-219.971,-338.623,
00:00:16:600,-0.349,0.818,1.155,1392.517,17.517,-317.566,
00:00:16:616,-0.18,0.202,1.25,1193.481,258.606,-291.138,
00:00:16:633,-0.019,-0.075,1.41,108.947,413.757,-246.155,
00:00:16:650,0.158,-0.771,0.863,-851.136,523.62,-63.843,
00:00:16:667,0.138,0.594,0.828,-1811.219,196.228,248.901,
00:00:16:683,0.058,1.028,0.894,-1145.386,2.258,256.53,
00:00:16:700,-0.259,0.162,0.634,-743.287,-185.73,353.637,
00:00:16:717,-0.233,0.444,0.392,-840.821,-227.906,333.74,
00:00:16:733,-0.212,0.645,0.783,-376.648,-319.153,175.903,
00:00:16:750,-0.216,0.693,0.712,180.175,-277.222,14.892,
00:00:16:767,-0.282,0.732,0.864,685.913,-178.956,-149.964,
00:00:16:783,-0.3,0.856,1.008,1130.005,-48.89,-234.436,
00:00:16:800,-0.258,0.698,1.157,1569.336,123.535,-292.847,
00:00:16:817,-0.125,-0.198,1.046,1127.441,382.446,-226.075,
00:00:16:833,0.114,-0.437,0.915,-47.486,340.332,-130.616,
00:00:16:850,0.295,-0.235,0.902,-789.612,353.088,-0.184,
00:00:16:867,-0.111,1.439,0.77,-1603.272,-324.097,155.639,
00:00:16:883,-0.283,1.157,0.52,-560.73,-276.062,255.188,
00:00:16:900,-0.259,0.633,0.479,-41.504,-84.29,149.109,
00:00:16:917,-0.226,0.641,0.737,309.387,-183.167,51.635,
00:00:16:933,-0.321,0.772,1.203,731.689,-182.618,-165.284,
00:00:16:950,-0.41,0.871,1.26,1166.687,141.601,-225.342,whipRH
00:00:16:967,0.2,0.106,1.235,-311.829,404.419,-51.941,
00:00:16:983,0.126,0.003,0.962,-766.907,353.881,-10.315,
00:00:17:0,0.015,0.257,0.839,-1255.005,-109.436,128.173,
00:00:17:17,-0.133,1.062,0.515,-1142.701,-325.135,97.29,
00:00:17:33,-0.289,1.287,0.404,-141.602,-327.027,123.108,
00:00:17:50,-0.319,0.528,0.616,517.151,-232.727,110.168,
00:00:17:67,-0.218,0.591,0.807,514.526,-136.353,-0.489,
00:00:17:83,-0.162,1.071,1.188,928.405,-168.03,-236.756,
00:00:17:100,-0.264,1.14,1.194,1578.735,-51.758,-237.061,
00:00:17:117,-0.281,0.07,0.794,1795.593,359.253,-127.259,
00:00:17:133,0.029,-0.85,0.661,572.754,433.471,-47.791,
00:00:17:150,-0.039,0.06,0.854,-1704.468,-203.186,192.749,
00:00:17:167,-0.23,0.598,0.561,-1526.307,-263.184,162.475,
00:00:17:183,-0.164,1.36,0.677,-692.688,-277.039,72.57,
00:00:17:200,-0.277,0.727,0.468,246.582,-192.139,45.349,
00:00:17:217,-0.217,0.721,0.776,596.618,-134.4,-30.152,
00:00:17:233,-0.144,1,1.215,1207.885,-135.193,-256.043,
00:00:17:250,-0.237,0.643,1.248,1685.18,22.277,-262.024,
00:00:17:267,-0.182,0.009,1.163,1581.237,260.681,-213.196,
00:00:17:283,-0.002,-0.813,0.799,324.34,349.609,-69.153,
00:00:17:300,0.111,0.114,0.991,-829.895,208.496,-6.47,
00:00:17:317,0.004,0.116,0.625,-1199.28,76.66,148.559,
00:00:17:333,-0.179,0.27,0.782,-1582.337,-176.941,195.861,
00:00:17:350,-0.197,0.707,0.635,-1347.657,-153.687,124.206,
00:00:17:367,-0.195,1.018,0.537,-663.514,-153.382,123.169,
00:00:17:383,-0.215,0.97,0.502,195.434,-145.02,31.921,
00:00:17:400,-0.227,0.857,0.954,800.537,-191.163,-36.805,
00:00:17:417,-0.313,0.795,1.097,1203.369,-41.077,-177.063,
00:00:17:433,-0.157,0.716,1.294,1490.966,67.443,-229.004,
00:00:17:450,-0.176,-0.206,0.928,1222.961,192.26,-194.275,
00:00:17:467,0.034,-0.317,1.045,235.29,156.921,-114.319,
00:00:17:483,-0.037,-0.393,0.969,-635.865,367.004,-203.98,
00:00:17:500,0.146,-0.159,0.558,-1305.359,137.512,75.134,
00:00:17:517,-0.049,0.503,0.858,-1651.551,-238.465,113.464,
00:00:17:533,-0.194,1.105,0.477,-1162.476,-237.854,211.486,
00:00:17:550,-0.26,1.032,0.397,-435.669,-154.175,137.085,
00:00:17:567,-0.25,0.992,0.642,280.7,-140.686,45.471,
00:00:17:583,-0.307,0.637,0.887,770.568,-133.179,-28.809,
00:00:17:600,-0.267,0.765,1.093,1103.881,-44.861,-187.684,
00:00:17:617,-0.149,1.026,1.201,1677.429,-21.546,-290.162,
00:00:17:633,-0.259,0.162,0.979,1958.068,262.085,-269.532,
00:00:17:650,0.087,-0.403,0.927,982.544,424.743,-126.221,
00:00:17:667,0.103,0.385,1.237,-1786.133,91.369,252.136,
00:00:17:683,0.076,0.929,1.238,-1194.52,-58.655,169.494,
00:00:17:700,-0.194,-0.061,0.944,-957.947,-160.95,202.026,
00:00:17:717,-0.255,0.282,0.411,-1235.108,-17.273,168.396,
00:00:17:733,-0.102,0.833,0.21,-712.098,-145.569,143.066,
00:00:17:750,-0.224,0.881,0.332,36.071,-281.556,12.329,
00:00:17:767,-0.423,0.827,0.585,711.059,-173.035,-71.473,
00:00:17:783,-0.089,0.995,1.178,1799.865,114.99,-261.109,
00:00:17:800,-0.174,0.211,1.097,1979.187,186.34,-256.47,
00:00:17:817,-0.007,-0.676,1.223,951.721,272.033,-105.042,
00:00:17:833,0.18,-0.615,1.327,-645.203,187.561,-55.298,
00:00:17:850,0.096,-0.12,0.99,-1739.441,-106.263,153.442,
00:00:17:867,-0.098,0.665,0.551,-1773.194,-181.031,139.77,
00:00:17:883,-0.293,0.65,0.399,-1312.378,-188.782,209.9,
00:00:17:900,-0.349,0.904,0.234,-755.677,-48.645,267.7,
00:00:17:917,-0.169,0.573,0.461,-227.539,-21.851,162.536,
00:00:17:933,-0.203,0.469,0.677,47.058,-132.142,94.97,
00:00:17:950,-0.175,0.656,0.965,637.207,-135.987,-58.899,
00:00:17:967,-0.086,0.726,1.328,1129.943,-128.113,-201.905,
00:00:17:983,-0.113,0.853,1.323,1435.424,-66.59,-265.686,
00:00:18:0,-0.215,0.478,1.181,1523.925,153.93,-299.439,
00:00:18:17,-0.116,-0.001,0.876,848.51,276.672,-148.56,
00:00:18:33,0.138,-0.104,1.252,-187.195,162.536,6.836,
00:00:18:50,-0.088,-0.735,0.502,-929.383,252.319,67.016,
00:00:18:67,-0.105,0.268,0.764,-1512.269,-201.05,174.438,
00:00:18:83,-0.387,0.581,0.567,-1301.514,-214.539,203.552,
00:00:18:100,-0.268,0.806,0.247,-784.363,-60.486,147.949,
00:00:18:117,-0.222,0.813,0.373,-193.97,-79.59,127.319,
00:00:18:133,-0.253,0.882,1.04,470.581,-154.175,-5.372,
00:00:18:150,-0.356,0.623,1.241,1067.871,16.174,-162.415,
00:00:18:167,-0.151,0.588,1.297,1362.609,77.514,-226.075,
00:00:18:183,-0.122,0.266,1.093,1407.47,127.38,-272.767,
00:00:18:200,-0.044,-0.021,0.91,833.557,199.401,-179.566,
00:00:18:217,-0.095,-0.457,0.731,38.94,229.797,-144.227,
00:00:18:233,0.169,-0.468,0.739,-862.732,102.234,21.118,
00:00:18:250,-0.101,0.427,0.952,-1475.22,-307.801,113.464,
00:00:18:267,-0.337,0.278,0.629,-1253.785,-135.193,152.893,
00:00:18:283,-0.185,0.411,0.289,-1202.454,-10.865,143.31,
00:00:18:300,-0.2,0.902,0.486,-662.72,-122.315,44.311,
00:00:18:317,-0.273,0.969,0.609,148.254,-279.48,-2.015,
00:00:18:333,-0.376,1.072,1.14,988.098,-133.179,-148.316,
00:00:18:350,-0.355,1.018,1.175,1735.534,79.223,-220.581,
00:00:18:367,-0.159,0.274,1.288,1990.905,188.232,-240.418,
00:00:18:383,-0.071,-0.539,1.055,1041.32,277.893,-184.388,
00:00:18:400,0.022,-0.383,0.633,-1299.988,-32.044,79.284,
00:00:18:417,-0.205,0.755,0.908,-1684.754,-150.208,156.738,
00:00:18:433,-0.317,0.506,0.471,-1289.368,-33.875,250.61,
00:00:18:450,-0.187,0.748,0.413,-1009.278,44.189,253.662,
00:00:18:467,-0.219,0.764,0.467,-316.529,-148.926,221.984,
00:00:18:483,-0.346,0.614,0.78,274.353,-98.572,38.818,
00:00:18:500,-0.155,0.625,0.967,856.689,-148.194,-46.387,
00:00:18:517,-0.213,0.761,1.125,1262.817,-177.491,-263.306,
00:00:18:533,-0.244,0.565,1.184,1760.925,-20.752,-289.49,
00:00:18:550,-0.157,0.019,1.151,1446.106,224.182,-319.458,
00:00:18:567,0.155,-0.392,1.097,299.865,190.063,-163.269,
00:00:18:583,0.12,-0.077,1.052,-673.584,129.089,-95.276,
00:00:18:600,-0.206,-0.187,0.678,-1412.598,236.572,31.921,
00:00:18:617,-0.162,0.697,0.74,-1444.214,10.559,135.803,
00:00:18:633,-0.275,0.576,0.411,-1083.191,-3.235,188.415,
00:00:18:650,-0.237,0.72,0.431,-638.977,-20.447,233.154,
00:00:18:667,-0.123,0.761,0.601,-148.743,-227.723,156.067,
00:00:18:683,-0.384,0.619,0.99,422.546,-132.569,-39.185,
00:00:18:700,-0.13,0.844,1.261,1014.282,-134.766,-161.56,
00:00:18:717,-0.26,0.734,1.24,1517.334,-71.839,-286.499,
00:00:18:733,-0.235,0.159,1.241,1629.272,121.521,-308.594,
00:00:18:750,-0.142,-0.356,0.832,928.955,265.869,-242.432,
00:00:18:767,0.085,-0.383,1.062,-442.2,252.197,-258.179,
00:00:18:783,-0.082,0.072,0.883,-1821.229,53.466,83.801,
00:00:18:800,-0.205,1.285,0.77,-1440.247,92.102,158.02,
00:00:18:817,-0.312,0.246,0.199,-899.659,158.813,244.14,
00:00:18:833,-0.036,0.896,0.785,-807.74,12.756,300.964,
00:00:18:850,-0.263,0.411,0.762,-307.923,-69.764,254.455,
00:00:18:867,0.011,0.341,0.57,-101.075,-36.072,159.607,
00:00:18:883,-0.008,0.569,0.88,344.543,-416.993,-7.019,
00:00:18:900,-0.362,0.779,1.309,840.82,-309.632,-235.779,
00:00:18:917,-0.182,0.873,1.102,1311.035,2.258,-272.583,
00:00:18:933,-0.153,0.584,1.142,1672.668,-45.899,-362.061,
00:00:18:950,-0.142,-0.078,0.978,1216.797,249.206,-330.689,
00:00:18:967,0.217,0.116,1.353,14.404,413.086,-299.805,
00:00:18:983,0.074,-0.333,1.028,-1255.127,409.24,-173.218,
00:00:19:0,-0.097,0.92,0.935,-1781.312,50.476,75.256,
00:00:19:17,-0.268,0.741,0.572,-958.069,73.791,115.173,
00:00:19:33,-0.134,0.447,0.357,-726.746,76.477,162.536,
00:00:19:50,-0.214,0.697,0.748,-438.904,-123.352,172.485,
00:00:19:67,-0.214,0.481,0.635,34.118,-124.878,127.624,
00:00:19:83,-0.103,0.612,1.037,411.56,-344.422,-71.351,
00:00:19:100,-0.495,0.783,1.339,899.536,-291.077,-182.19,
00:00:19:117,-0.118,0.645,1.307,1176.269,13.549,-166.932,
00:00:19:133,-0.184,0.041,1.22,893.005,87.585,-205.567,
00:00:19:150,0.07,0.596,1.363,38.94,356.811,-220.581,
00:00:19:167,0.069,-0.018,0.37,-843.445,124.267,24.292,
00:00:19:183,-0.252,1.106,0.834,-905.457,-16.541,56.152,
00:00:19:200,-0.241,0.481,0.44,-180.787,145.996,131.164,
00:00:19:217,-0.091,0.364,0.643,-124.939,-45.166,94.116,
00:00:19:233,-0.248,0.435,0.631,126.037,-80.872,-3.907,
00:00:19:250,0.167,0.807,1.272,392.151,-359.436,13.244,
00:00:19:267,-0.31,0.787,1.381,634.399,-319.458,-155.152,
00:00:19:283,-0.29,0.406,1.24,649.597,12.146,-127.625,
00:00:19:300,-0.155,0.249,1.127,225.463,84.411,-156.25,
00:00:19:317,-0.019,0.349,0.948,-276.795,230.713,-87.159,
00:00:19:333,0.081,0.005,0.736,-540.345,211.12,-23.987,
00:00:19:350,0.005,0.159,0.746,-1159.913,85.083,180.664,
00:00:19:367,-0.16,0.594,0.773,-1100.586,2.197,117.736,
00:00:19:383,-0.115,0.571,0.566,-755.433,-25.208,151.733,
00:00:19:400,-0.17,0.694,0.589,-333.374,-196.473,138.305,
00:00:19:417,-0.305,0.523,0.431,123.413,-273.316,-54.2,
00:00:19:433,-0.287,0.849,1.026,492.553,-361.023,-190.064,
00:00:19:450,-0.422,0.91,1.021,1044.799,-76.722,-244.385,
00:00:19:467,-0.149,0.621,1.003,1231.506,-20.63,-256.592,
00:00:19:483,-0.246,0.138,1.067,967.59,135.559,-230.164,
00:00:19:500,0.015,0.06,0.953,177.307,352.783,-185.914,
00:00:19:517,-0.124,-0.29,0.76,-822.51,232.727,95.275,
00:00:19:533,-0.038,1.012,1.117,-1047.608,196.411,112.182,
00:00:19:550,-0.11,-0.003,0.672,-741.028,106.323,204.956,
00:00:19:567,-0.15,0.492,0.57,-980.042,39.733,220.886,
00:00:19:583,-0.176,0.613,0.596,-606.324,-184.693,199.829,
00:00:19:600,-0.071,0.827,0.86,-159.241,-374.573,135.315,
00:00:19:617,-0.35,0.969,0.991,378.784,-277.161,-87.83,
00:00:19:633,-0.413,0.866,1.061,1045.166,-63.355,-158.509,
00:00:19:650,-0.285,0.88,1.084,1430.664,41.137,-244.141,
00:00:19:667,-0.322,0.143,1.076,1456.665,212.463,-269.837,
00:00:19:683,-0.042,-0.261,1.049,525.94,298.034,-150.025,
00:00:19:700,-0.088,-0.528,0.792,-422.486,362.854,-12.452,
00:00:19:717,-0.163,0.541,1.148,-1361.268,132.568,170.227,
00:00:19:733,-0.214,0.693,0.689,-876.343,173.523,238.464,
00:00:19:750,-0.133,0.366,0.167,-862.183,221.252,219.421,
00:00:19:767,-0.053,0.799,0.578,-630.188,-213.257,297.241,
00:00:19:783,-0.312,0.787,0.642,-60.303,-228.028,107.422,
00:00:19:800,-0.268,0.543,0.525,474.548,3.845,102.478,
00:00:19:817,0.012,0.759,0.872,852.111,-199.463,-125.733,
00:00:19:833,-0.32,0.89,0.981,1283.081,-73.487,-222.84,
00:00:19:850,-0.137,0.405,1.005,1156.372,191.345,-167.298,
00:00:19:867,0.024,0.034,1.014,538.147,244.201,-114.869,
00:00:19:883,-0.2,-0.391,0.7,-266.724,515.503,-133.545,
00:00:19:900,0.174,-0.013,0.896,-923.218,356.628,77.514,
00:00:19:917,-0.104,0.268,0.845,-1210.145,27.587,112.365,
00:00:19:933,-0.237,0.543,0.724,-1034.424,28.259,127.258,
00:00:19:950,-0.045,0.595,0.583,-587.647,-151.856,184.875,
00:00:19:967,-0.193,0.581,0.836,54.504,-477.601,99.487,
00:00:19:983,-0.246,0.63,0.739,410.461,-339.966,-87.342,
00:00:20:0,-0.219,0.785,0.76,923.278,-329.651,-152.71,
00:00:20:17,-0.376,0.85,1.01,1252.99,-180.848,-223.999,
00:00:20:33,-0.207,0.645,0.999,1218.444,25.634,-148.377,
00:00:20:50,-0.178,0.178,1.125,764.831,136.352,-141.236,
00:00:20:67,0.008,-0.114,1.116,139.343,319.885,-65.735,
00:00:20:83,-0.094,-0.475,0.623,-880.677,350.158,48.95,
00:00:20:100,0.175,0.847,1.062,-1097.352,136.108,64.331,
00:00:20:117,-0.295,0.217,0.684,-825.257,-48.218,111.999,
00:00:20:133,-0.137,0.62,0.559,-875.55,60.18,164.55,
00:00:20:150,-0.038,0.493,0.423,-442.139,-177.43,159.24,
00:00:20:167,-0.271,0.557,0.794,-45.289,-278.443,39.062,
00:00:20:183,-0.099,0.424,0.738,428.039,-330.506,67.993,
00:00:20:200,-0.334,0.757,1.01,680.908,-310.364,-178.345,
00:00:20:217,-0.415,0.992,1.138,1137.634,-34.668,-225.281,
00:00:20:233,-0.26,0.337,0.957,1111.999,205.627,-293.702,
00:00:20:250,0.027,0.172,1.117,605.713,275.085,-232.483,
00:00:20:267,0.073,-0.406,0.887,-236.206,326.11,-65.979,
00:00:20:283,-0.063,0.259,0.982,-1671.082,174.682,19.836,
00:00:20:300,-0.111,0.823,0.919,-1277.1,165.466,85.266,
00:00:20:317,0.02,0.077,0.53,-1477.845,216.613,218.505,
00:00:20:333,0.041,1.018,0.734,-1359.437,-178.833,265.686,
00:00:20:350,-0.187,0.905,0.808,-629.578,-408.265,187.622,
00:00:20:367,-0.28,0.76,0.559,-81.665,-230.103,155.151,
00:00:20:383,-0.082,0.714,0.604,778.32,-555.726,162.841,
00:00:20:400,-0.66,1.033,0.954,1448.791,-315.979,-95.459,
00:00:20:417,-0.248,0.89,0.818,1976.135,18.615,-203.797,
00:00:20:433,-0.26,0.109,0.902,1774.536,45.776,-281.861,
00:00:20:450,0.062,0.402,1.712,822.754,450.378,-368.042,
00:00:20:467,0.157,-0.67,0.973,-260.987,543.457,-212.342,
00:00:20:483,0.013,0.485,0.7,-1675.843,277.954,98.144,
00:00:20:500,-0.051,1.128,0.816,-1202.027,84.594,103.515,
00:00:20:517,-0.354,0.436,0.468,-861.268,40.893,214.05,
00:00:20:533,-0.041,0.85,0.463,-653.26,-50.538,210.998,
00:00:20:550,-0.224,0.622,0.598,-145.02,-220.093,138.366,
00:00:20:567,-0.208,0.466,0.617,490.783,-456.91,224.182,
00:00:20:583,-0.463,1.009,1.082,870.666,-283.387,-85.755,
00:00:20:600,-0.326,0.65,0.886,1438.232,-11.841,-169.8,
00:00:20:617,-0.251,0.21,1.11,1361.389,-38.086,-238.77,
00:00:20:633,-0.124,-0.051,1.287,723.877,233.764,-200.745,
00:00:20:650,0.05,-0.858,0.687,-374.268,526.55,-293.519,
00:00:20:667,-0.097,0.591,1.085,-1277.161,17.15,48.339,
00:00:20:683,-0.338,0.843,0.84,-824.83,66.223,129.516,
00:00:20:700,-0.061,0.278,0.377,-1018.677,180.297,242.187,
00:00:20:717,-0.139,0.869,0.573,-911.683,-144.349,296.569,
00:00:20:733,-0.319,0.613,0.979,-506.348,-195.801,301.88,
00:00:20:750,0.102,0.659,0.887,-117.554,-326.477,358.947,
00:00:20:767,-0.471,1.132,1.043,503.234,-280.335,-109.498,
00:00:20:783,-0.335,0.885,1.079,1303.772,28.93,-174.195,
00:00:20:800,-0.236,0.331,1.154,1331.421,2.624,-213.135,
00:00:20:817,-0.11,-0.385,1.211,611.023,212.768,-231.385,
00:00:20:833,-0.001,-0.517,0.995,-547.181,246.704,-264.832,
00:00:20:850,0.197,-0.162,0.442,-1203.431,413.635,-42.542,
00:00:20:867,-0.088,0.673,0.503,-1800.904,15.686,81.176,
00:00:20:883,-0.27,1.197,0.579,-1276.185,66.589,111.755,
00:00:20:900,-0.225,0.861,0.398,-748.536,-49.073,234.13,
00:00:20:917,-0.125,1.229,0.756,-292.908,-184.021,96.923,
00:00:20:933,-0.373,1.182,0.874,690.429,-172.303,37.414,
00:00:20:950,-0.395,0.986,0.849,1481.384,-82.642,-52.002,
00:00:20:967,-0.375,0.463,0.869,1773.437,-5.799,-184.571,whipRH
00:00:20:983,-0.302,-0.01,1.088,1401.611,71.96,-181.641,
00:00:21:0,0.011,-0.131,1.109,691.589,283.142,-245.118,
00:00:21:17,-0.105,-0.921,0.747,-447.266,470.703,-359.314,
00:00:21:33,0.035,0.351,0.784,-1193.177,142.151,62.194,
00:00:21:50,-0.229,0.732,0.882,-1044.19,-9.217,36.01,
00:00:21:67,-0.223,0.389,0.537,-1002.381,163.025,200.195,
00:00:21:83,-0.07,0.696,0.498,-965.21,-32.532,280.7,
00:00:21:100,-0.306,1.019,0.695,-398.316,-136.475,238.342,
00:00:21:117,-0.177,0.801,0.648,88.378,-277.405,248.352,
00:00:21:133,-0.313,0.714,0.643,598.816,-264.283,116.821,
00:00:21:150,-0.456,0.736,0.72,1124.206,-50.232,-46.936,
00:00:21:167,-0.331,0.456,0.862,1368.286,103.393,-112.061,
00:00:21:183,-0.201,0.149,1.143,1028.442,100.525,-209.229,
00:00:21:200,-0.132,-0.164,1.29,207.885,188.476,-236.084,
00:00:21:217,0.093,-0.199,1.04,-528.748,277.832,-224.671,
00:00:21:233,-0.423,1.107,0.406,-854.615,-274.842,80.993,
00:00:21:250,-0.328,1.039,0.532,-221.009,-198.853,40.649,
00:00:21:267,-0.254,0.788,0.467,216.125,-156.861,91.125,
00:00:21:283,-0.267,0.894,0.859,762.695,-182.251,-37.781,
00:00:21:300,-0.535,0.829,1.08,1279.968,-65.857,-91.431,
00:00:21:317,-0.352,0.32,1.259,1187.011,160.827,-240.113,
00:00:21:333,-0.19,-0.073,1.215,655.456,176.452,-232.727,
00:00:21:350,0.011,-0.228,0.994,-52.735,276.977,-202.698,
00:00:21:367,0.164,-0.077,0.92,-561.646,213.867,-16.358,
00:00:21:383,0.116,0.353,0.533,-1041.016,180.053,2.685,
00:00:21:400,-0.132,0.652,0.635,-1176.758,-28.443,141.967,
00:00:21:417,-0.37,0.697,0.277,-65.125,-313.477,283.508,
00:00:21:433,-0.174,0.797,0.751,301.696,-292.359,35.217,
00:00:21:450,-0.459,0.809,0.864,918.029,-238.892,-86.365,
00:00:21:467,-0.476,0.701,0.936,1488.22,-59.693,-173.34,
00:00:21:483,-0.289,0.464,0.999,1581.421,30.7,-276.185,
00:00:21:500,-0.256,-0.037,1.004,1018.249,133.911,-239.563,
00:00:21:517,0.081,-0.061,1.183,329.223,316.65,-173.279,
00:00:21:533,-0.288,-1.101,0.775,-1048.707,435.241,-38.331,
00:00:21:550,0.009,1.027,0.758,-1707.703,248.108,158.081,
00:00:21:567,-0.12,0.605,0.646,-759.644,133.117,161.987,
00:00:21:583,-0.241,0.272,0.519,-864.197,49.072,221.923,
00:00:21:600,-0.189,0.625,0.477,-601.014,-144.471,279.907,
00:00:21:617,-0.264,0.595,0.646,-177.308,-282.044,109.619,
00:00:21:633,-0.331,0.754,0.987,1350.036,18.676,-232.361,
00:00:21:650,-0.199,0.508,1.155,1450.805,134.948,-264.588,
00:00:21:667,-0.261,-0.172,1.114,841.125,477.905,-313.66,
00:00:21:683,0.354,-0.01,1.208,-49.805,263.733,-46.387,
00:00:21:700,-0.018,-0.258,0.965,-877.259,-51.758,117.859,
00:00:21:717,-0.263,0.916,1.048,-1313.965,-149.842,176.33,
00:00:21:733,-0.357,0.453,0.378,-873.963,15.625,231.689,
00:00:21:750,-0.206,0.613,0.202,-732.056,-17.456,194.03,
00:00:21:767,-0.276,0.703,0.422,-212.891,-143.555,121.338,
00:00:21:783,-0.388,0.384,0.458,289.55,-14.1,69.885,
00:00:21:800,-0.171,0.506,0.924,644.043,-55.542,-145.142,
00:00:21:817,-0.377,0.79,1.131,1007.751,23.498,-257.508,
00:00:21:833,-0.186,0.8,1.18,1319.336,199.34,-265.259,
00:00:21:850,-0.137,-0.155,1.078,897.033,322.998,-283.631,
00:00:21:867,-0.019,-0.136,1.095,-376.526,404.48,-257.142,
00:00:21:883,0.103,-0.193,0.697,-1014.71,113.281,21.606,
00:00:21:900,-0.022,0.757,0.999,-1415.955,-123.108,153.32,
00:00:21:917,-0.274,0.743,0.678,-695.252,-140.503,179.382,
00:00:21:933,-0.178,0.39,0.381,-432.251,-227.112,230.896,
00:00:21:950,-0.339,0.451,0.616,-139.527,-302.063,77.758,
00:00:21:967,-0.373,0.114,0.451,214.355,-177.308,61.828,
00:00:21:983,-0.099,0.549,1.048,457.031,-404.48,-102.723,
00:00:22:0,-0.51,0.961,1.252,917.48,-120.362,-297.242,
00:00:22:17,-0.094,0.669,1.255,1302.307,160.278,-320.313,
00:00:22:33,-0.191,-0.055,1.102,479.187,365.478,-270.997,
00:00:22:50,0.445,0.444,1.589,-413.575,515.991,-264.771,
00:00:22:67,0.181,0.05,0.763,-1041.443,154.724,70.983,
00:00:22:83,-0.153,1.172,1.143,-1124.39,-158.936,120.666,
00:00:22:100,-0.336,0.285,0.787,-727.784,-27.649,191.65,
00:00:22:117,-0.072,0.483,0.474,-698.06,-205.201,166.137,
00:00:22:133,-0.397,0.497,0.496,-310.12,-351.563,114.38,
00:00:22:150,-0.281,0.401,0.5,265.869,-460.206,173.278,
00:00:22:167,-0.514,0.806,0.82,735.229,-381.897,-140.748,
00:00:22:183,-0.477,0.883,1.079,1272.338,-28.809,-238.16,
00:00:22:200,-0.272,0.403,1.071,1346.069,117.004,-286.805,
00:00:22:217,-0.197,-0.118,0.957,644.409,406.799,-230.713,
00:00:22:233,-0.263,-0.824,0.671,-740.113,648.681,-230.225,
00:00:22:250,0.01,1.018,0.925,-1637.085,267.395,73.425,
00:00:22:267,-0.269,0.765,0.815,-853.638,155.029,141.235,
00:00:22:283,-0.059,0.288,0.432,-1071.534,34.729,266.906,
00:00:22:300,-0.185,1.114,1.043,-682.923,-397.217,247.07,
00:00:22:317,-0.062,0.291,0.403,278.137,-294.983,230.407,
00:00:22:333,-0.311,0.66,0.936,584.533,-540.162,-104.554,
00:00:22:350,-0.578,0.972,1.02,1140.93,-111.084,-235.169,
00:00:22:367,-0.18,0.962,1.115,1445.739,46.386,-282.715,
00:00:22:383,-0.366,0.159,1.021,1110.412,308.166,-304.383,
00:00:22:400,-0.167,-0.434,0.868,402.588,417.175,-384.034,
00:00:22:417,0.031,-0.701,0.741,-449.341,505.737,-57.862,
00:00:22:433,0.113,0.543,0.648,-1454.041,124.633,246.215,
00:00:22:450,-0.316,1.067,0.7,-973.938,-211.06,145.63,
00:00:22:467,-0.331,0.407,0.518,-369.568,-146.607,312.072,
00:00:22:483,-0.043,0.486,0.655,-128.907,-557.862,356.445,
00:00:22:500,-0.351,0.486,0.692,263.183,-243.164,19.653,
00:00:22:517,-0.427,0.49,0.778,971.374,-271.424,-32.776,
00:00:22:533,-0.425,0.729,1.027,1187.194,72.692,-260.071,
00:00:22:550,-0.336,0.598,1.283,1294.983,134.826,-307.923,
00:00:22:567,-0.08,0.429,1.569,461.12,494.384,-379.517,
00:00:22:583,0.193,-0.467,0.814,-339.905,547.058,-201.111,
00:00:22:600,-0.11,0.664,0.61,-1599.793,318.908,122.741,
00:00:22:617,0.124,1.215,1.093,-1054.444,93.078,78.613,
00:00:22:633,-0.243,0.111,0.735,-699.341,-116.822,275.207,
00:00:22:650,-0.209,0.676,0.798,-881.47,-243.958,315.551,
00:00:22:667,-0.189,0.701,0.619,-439.454,-463.196,296.264,
00:00:22:683,-0.325,0.486,0.245,44.311,-371.521,148.925,
00:00:22:700,-0.527,0.917,0.729,745.544,-271.973,-35.035,
00:00:22:717,-0.525,0.839,1.001,1388.794,28.747,-232.85,
00:00:22:733,-0.427,0.532,1.238,1739.38,245.483,-290.345,
00:00:22:750,-0.072,-0.415,0.918,988.342,442.138,-214.478,
00:00:22:767,0.141,0.032,1.554,33.508,395.752,-328.797,
00:00:22:783,-0.045,-0.762,0.823,-1264.161,645.935,-140.259,
00:00:22:800,0.055,1.271,0.419,-1782.898,-62.806,111.267,
00:00:22:817,-0.443,1.279,0.591,-563.477,-229.798,214.721,
00:00:22:833,-0.285,0.52,0.729,-295.716,-233.826,335.388,
00:00:22:850,-0.05,0.638,0.311,0.061,-436.646,433.776,
00:00:22:867,-0.308,0.311,0.65,323.974,-273.316,98.877,
00:00:22:883,-0.457,0.586,1.005,583.618,-221.253,-141.48,
00:00:22:900,-0.407,0.776,1.048,1056.213,77.27,-212.586,
00:00:22:917,-0.307,0.216,1.228,1194.336,188.354,-320.191,
00:00:22:933,-0.06,0.009,1.072,381.958,355.957,-229.493,
00:00:22:950,-0.128,-0.016,0.834,-89.844,281.311,-47.974,
00:00:22:967,0.062,0.443,0.968,-845.093,203.491,144.592,
00:00:22:983,-0.07,0.266,0.845,-961.243,-146.668,155.09,
00:00:23:0,-0.31,0.213,1.163,-1192.139,-230.652,234.741,
00:00:23:17,-0.217,0.597,0.631,-1153.077,-284.974,236.206,
00:00:23:33,-0.244,0.617,0.221,-665.162,-412.72,177.551,
00:00:23:50,-0.604,0.631,0.083,-43.335,-486.39,47.302,
00:00:23:67,-0.626,1.18,0.643,878.54,-191.895,-136.475,
00:00:23:83,-0.47,0.846,0.681,1631.897,135.437,-175.293,
00:00:23:100,-0.419,0.569,1.032,1778.808,167.907,-249.756,
00:00:23:117,-0.157,-0.342,1.013,1144.897,512.512,-205.994,
00:00:23:133,0.083,-0.038,1.412,-45.472,466.858,-197.632,
00:00:23:150,0.083,-0.221,1.014,-1095.826,489.318,-10.01,
00:00:23:167,0.257,0.814,1.031,-1523.011,137.085,116.333,
00:00:23:183,-0.345,0.35,0.829,-1242.188,-231.995,131.836,
00:00:23:200,-0.256,0.58,0.826,-1369.996,-160.279,248.352,
00:00:23:217,-0.256,0.664,0.39,-972.352,-279.48,213.684,
00:00:23:233,-0.479,0.374,0.002,-383.973,-347.29,249.755,
00:00:23:250,-0.476,0.505,0.122,145.446,-240.174,22.216,
00:00:23:267,-0.489,0.74,0.648,679.321,-121.094,-148.56,
00:00:23:283,-0.468,0.765,0.935,1263.672,123.291,-239.808,
00:00:23:300,-0.332,0.767,1,1541.687,191.955,-293.457,
00:00:23:317,-0.223,0.371,1.26,1557.8,337.768,-355.591,
00:00:23:333,0.025,-0.033,1.181,649.047,320.984,-240.601,
00:00:23:350,-0.073,0.039,0.914,-30.335,281.555,-75.867,
00:00:23:367,-0.336,-0.523,0.301,-1232.605,369.018,4.882,
00:00:23:383,-0.089,0.956,0.966,-1580.201,-66.712,173.217,
00:00:23:400,-0.365,0.771,0.709,-878.54,-100.831,194.58,
00:00:23:417,-0.155,0.422,0.447,-669.495,-162.537,233.947,
00:00:23:433,-0.374,0.422,0.624,-410.218,-340.577,150.268,
00:00:23:450,-0.347,0.505,0.611,0.793,-201.355,59.143,
00:00:23:467,-0.404,0.604,0.482,447.754,-156.189,-158.265,
00:00:23:483,-0.392,0.838,0.82,1041.504,20.568,-219.239,
00:00:23:500,-0.339,0.871,0.936,1412.841,114.563,-297.669,
00:00:23:517,-0.264,0.27,1.217,1412.048,301.269,-303.894,
00:00:23:533,0.039,-0.099,1.043,341.919,297.18,-149.048,
00:00:23:550,-0.159,-0.385,1.149,-324.646,479.553,-247.986,
00:00:23:567,0.048,-0.082,0.868,-1139.161,-13.306,110.717,
00:00:23:583,-0.305,0.709,1,-1328.431,-142.334,187.194,
00:00:23:600,-0.236,0.644,0.434,-884.339,-144.165,165.161,
00:00:23:617,-0.321,0.653,0.342,-503.785,-201.233,170.776,
00:00:23:633,-0.232,0.642,0.542,-64.698,-190.43,74.707,
00:00:23:650,-0.556,0.833,0.615,434.509,-168.335,-112.122,
00:00:23:667,-0.265,0.986,1.015,1217.285,-106.324,-47.059,
00:00:23:683,-0.399,0.729,1.015,1487.854,116.15,-252.503,
00:00:23:700,-0.257,0.054,1.032,1273.071,271.789,-258.545,
00:00:23:717,-0.355,-0.422,0.795,281.555,473.571,-348.023,
00:00:23:733,0.064,-0.285,1.069,-195.984,305.359,-82.459,
00:00:23:750,-0.137,0.23,1.034,-1372.986,176.33,168.029,
00:00:23:767,-0.085,1.088,1.022,-1341.614,28.93,151.794,
00:00:23:783,-0.226,0.309,0.585,-1013.611,-23.743,233.947,
00:00:23:800,-0.138,0.775,0.481,-881.531,-170.899,266.235,
00:00:23:817,-0.32,0.395,0.671,-424.683,-295.044,222.229,
00:00:23:833,-0.398,0.151,0.28,86.12,-428.711,229.98,
00:00:23:850,-0.458,0.816,0.622,594.909,-271.973,-71.289,
00:00:23:867,-0.321,0.916,0.847,1286.193,-168.03,-207.52,
00:00:23:883,-0.451,0.859,0.943,1724.731,47.241,-268.555,
00:00:23:900,-0.219,0.251,1.139,1799.316,230.774,-327.576,
00:00:23:917,-0.059,-0.254,1.196,605.407,372.253,-165.711,
00:00:23:933,0.177,-0.508,1.124,-673.218,371.765,105.896,
00:00:23:950,-0.352,0.508,0.739,-1829.285,311.706,76.294,
00:00:23:967,-0.075,0.984,0.588,-914.551,136.291,207.702,
00:00:23:983,-0.355,0.177,0.452,-744.019,-56.153,273.254,
00:00:24:0,-0.23,0.463,0.698,-520.997,-197.022,295.227,
00:00:24:17,-0.429,0.207,0.877,-118.836,-280.396,161.316,
00:00:24:33,-0.217,0.085,0.852,-83.374,-182.312,-0.184,
00:00:24:50,-0.272,0.46,0.469,193.359,-312.134,-75.44,
00:00:24:67,-0.492,1.067,1.067,668.151,-207.581,-285.523,
00:00:24:83,-0.353,0.624,1.075,808.532,151.794,-214.417,
00:00:24:100,-0.219,0.383,1.04,220.581,169.555,-201.6,
00:00:24:117,-0.186,0.493,1.232,-217.041,451.66,-314.087,
00:00:24:133,-0.089,-0.086,0.181,-726.502,665.71,-182.557,
00:00:24:150,-0.02,0.962,0.474,-1052.369,-83.008,46.691,
00:00:24:167,-0.502,0.822,0.599,-111.145,-191.956,133.056,
00:00:24:183,-0.339,0.629,0.772,200.134,-85.633,95.336,
00:00:24:200,0.009,0.616,0.793,343.689,-185.914,104.37,
00:00:24:217,-0.451,0.657,1.257,589.111,-427.124,-18.616,
00:00:24:233,-0.365,0.198,1.164,493.591,-17.029,-12.635,
00:00:24:250,-0.36,0.246,1.274,-129.212,-120.667,-39.063,
00:00:24:267,-0.216,0.11,0.731,-394.349,186.767,-120.911,
00:00:24:283,-0.457,-0.068,0.108,-612.977,339.294,-187.806,
00:00:24:300,-0.114,0.85,0.255,-436.097,185.302,-4.517,
00:00:24:317,-0.155,0.707,0.454,-83.13,93.811,1.464,
00:00:24:333,-0.29,0.686,0.864,109.253,14.77,54.565,
00:00:24:350,0.029,0.523,1.174,331.726,-269.715,183.044,
00:00:24:367,-0.323,0.2,1.247,152.893,-359.314,36.438,
00:00:24:383,-0.262,0.508,1.358,-26.978,-292.664,-29.664,
00:00:24:400,-0.285,0.737,0.648,-170.533,-172.669,-33.02,
00:00:24:417,-0.525,0.75,0.727,-146.912,-48.279,-82.337,
00:00:24:433,-0.463,0.651,0.622,6.469,197.57,-42.847,
00:00:24:450,-0.206,0.574,0.627,235.962,154.174,12.634,
00:00:24:467,-0.268,0.413,0.431,331.115,172.668,-0.184,
00:00:24:483,-0.057,0.348,0.409,362.426,141.601,25.329,
00:00:24:500,-0.388,0.521,0.816,411.071,-66.59,59.204,
00:00:24:517,-0.404,0.603,0.884,707.824,-30.945,37.536,
00:00:24:533,-0.302,0.335,0.805,804.077,-60.791,9.399,
00:00:24:550,-0.25,0.296,0.759,711.364,-87.342,14.709,
00:00:24:567,-0.364,0.332,0.661,524.78,-131.165,49.865,
00:00:24:583,-0.337,0.518,0.588,371.582,30.456,129.394,
00:00:24:600,-0.164,0.5,0.97,375.732,77.087,167.602,
00:00:24:617,-0.177,0.229,1.222,185.791,151.489,196.594,
00:00:24:633,-0.035,0.143,1.258,-258.057,209.472,238.525,
00:00:24:650,-0.099,0.222,1.547,-637.574,111.511,178.833,
00:00:24:667,-0.051,0.448,1.366,-741.15,150.207,169.006,
00:00:24:683,-0.052,0.5,1.158,-608.887,27.893,22.705,
00:00:24:700,-0.137,0.546,0.888,-305.97,-5.86,-80.262,
00:00:24:717,-0.153,0.759,0.904,62.439,40.344,-219.849,
00:00:24:733,-0.305,0.353,0.52,430.053,-52.552,-201.783,
00:00:24:750,-0.458,0.307,0.455,690.612,-157.349,-249.146,
00:00:24:767,-0.566,0.025,0.383,746.765,-165.406,-235.779,
00:00:24:783,-0.704,0.158,0.501,576.355,-174.927,-208.191,
00:00:24:800,-0.615,0.404,0.453,502.807,-66.59,-116.7,
00:00:24:817,-0.366,0.587,0.55,481.14,23.803,-41.199,
00:00:24:833,-0.311,0.398,0.726,348.205,99.975,61.767,
00:00:24:850,-0.187,0.355,1.013,-5.066,225.402,201.782,
00:00:24:867,-0.205,-0.115,0.973,-293.702,241.088,339.05,
00:00:24:883,0.013,0.202,1.636,-718.506,349.243,300.537,
00:00:24:900,0.362,0.564,1.636,-787.964,112.793,392.944,
00:00:24:917,0.08,0.424,1.674,-991.944,-61.28,82.58,
00:00:24:933,-0.041,0.486,1.256,-800.66,-108.155,-46.631,
00:00:24:950,-0.015,0.761,0.948,-363.953,-126.893,-207.215,
00:00:24:967,-0.193,0.613,0.758,245.788,-308.899,-218.506,
00:00:24:983,-0.51,0.377,0.319,575.622,-295.655,-312.806,
00:00:25:0,-0.485,0.13,0.174,844.909,-248.963,-234.131,
00:00:25:17,-0.88,0.135,0.546,819.03,-351.99,-323.975,
00:00:25:33,-0.755,-0.062,0.223,672.546,-20.081,-216.797,
00:00:25:50,-0.527,0.229,0.377,309.692,-47.669,-122.986,
00:00:25:67,-0.527,0.599,0.594,203.857,78.491,-48.035,
00:00:25:83,-0.232,0.495,0.779,75.744,247.497,109.314,
00:00:25:100,0.169,0.667,1.066,-57.557,-3.663,434.265,
00:00:25:117,-0.175,0.158,1.248,-506.714,272.583,332.336,
00:00:25:133,0.059,0.313,1.552,-846.68,246.887,369.201,
00:00:25:150,0.125,0.379,1.48,-956.788,282.959,263.916,
00:00:25:167,0.175,0.646,1.221,-983.033,63.354,119.262,
00:00:25:183,0.031,0.877,1.278,-663.575,-99.244,10.009,
00:00:25:200,-0.12,0.857,1.106,-114.075,-157.837,-132.325,
00:00:25:217,-0.245,0.488,0.784,307.617,-82.886,-244.996,
00:00:25:233,-0.316,0.245,0.581,504.882,-157.349,-268.311,
00:00:25:250,-0.699,0.061,0.383,572.082,-258.973,-279.602,
00:00:25:267,-0.756,0.202,0.346,526.916,-219.666,-176.148,
00:00:25:283,-0.675,0.38,0.446,493.774,-119.019,-127.015,
00:00:25:300,-0.55,0.523,0.764,415.161,1.953,-45.838,
00:00:25:317,-0.518,0.562,1.219,311.401,132.08,61.584,
00:00:25:333,-0.351,0.388,1.413,-66.102,250.671,239.563,
00:00:25:350,-0.096,0.462,1.425,-522.767,178.955,321.472,
00:00:25:367,-0.047,0.366,1.227,-757.019,30.273,342.346,
00:00:25:383,-0.176,0.335,1.102,-964.661,-171.814,321.533,
00:00:25:400,-0.339,0.431,1,-1013.428,-185.242,270.263,
00:00:25:417,-0.238,0.569,0.66,-681.031,-80.079,270.813,
00:00:25:433,-0.493,0.498,0.57,19.348,-153.565,172.424,
00:00:25:450,-0.514,0.432,0.543,404.419,-70.801,161.01,
00:00:25:467,-0.448,0.283,0.566,659.301,-69.642,112.243,
00:00:25:483,-0.492,0.291,0.56,815.49,-20.508,12.939,
00:00:25:500,-0.46,0.431,0.711,933.105,99.609,-67.078,
00:00:25:517,-0.343,0.468,0.827,1081.054,213.317,-103.76,
00:00:25:533,-0.251,0.422,0.913,1176.818,263.244,-114.014,
00:00:25:550,-0.202,0.616,0.977,1269.836,287.78,-88.379,
00:00:25:567,-0.165,0.554,1.082,1470.337,307.983,-33.57,
00:00:25:583,-0.147,0.408,1.169,1362.915,336.486,34.362,
00:00:25:600,-0.068,0.256,1.223,1011.779,266.54,61.828,
00:00:25:617,-0.065,-0.129,1.442,417.785,122.619,19.836,
00:00:25:633,-0.317,-0.452,0.928,-308.716,95.275,95.398,
00:00:25:650,0.016,0.033,1.049,-859.925,51.574,80.749,
00:00:25:667,-0.018,0.293,1.177,-861.573,-104.859,-24.109,
00:00:25:683,-0.425,-0.261,0.842,-944.947,-372.803,75.195,
00:00:25:700,-0.652,-0.205,0.652,-1149.72,-263.306,95.459,
00:00:25:717,-0.523,-0.365,0.316,-1300.416,114.135,-113.526,
00:00:25:733,-0.457,-0.121,0.347,-1051.27,-54.322,24.169,
00:00:25:750,-0.535,0.059,0.395,-921.631,52.307,-19.349,
00:00:25:767,-0.232,0.422,0.496,-617.615,82.092,-55.848,
00:00:25:783,-0.177,0.604,0.8,-97.229,8.667,-146.058,
00:00:25:800,-0.181,0.778,0.951,408.447,17.944,-279.725,
00:00:25:817,-0.04,0.936,1.381,1152.282,-102.051,-169.373,
00:00:25:833,-0.233,0.722,1.27,1343.017,80.871,-305.664,
00:00:25:850,-0.205,0.291,1.327,1148.437,134.582,-273.804,
00:00:25:867,0.057,0.094,1.364,322.082,144.958,-160.096,
00:00:25:883,-0.141,0.005,1.316,-512.818,-153.809,-38.086,
00:00:25:900,-0.469,0.074,1.29,-1000.123,-177.674,19.653,
00:00:25:917,-0.438,-0.462,0.843,-1455.75,-122.193,105.59,
00:00:25:933,-0.428,0.193,1.049,-2000,4.394,-127.442,
00:00:25:950,-0.288,0.274,0.085,-1805.298,-67.872,-35.096,
00:00:25:967,-0.413,0.576,0.184,-1166.81,-163.025,-135.926,whipRH
00:00:25:983,-0.413,0.819,0.212,-479.31,-84.961,-220.032,
00:00:26:0,-0.204,1.04,0.256,684.753,-360.718,-120.24,
00:00:26:17,-0.452,0.929,0.686,1569.763,-244.629,-198.731,
00:00:26:33,-0.168,1.008,1.028,1799.56,120.971,-295.777,
00:00:26:50,-0.106,0.713,1.275,1629.394,97.29,-207.093,
00:00:26:67,-0.022,0.057,1.432,908.508,214.05,-75.684,
00:00:26:83,-0.083,-0.419,1.174,-684.266,73.242,41.198,
00:00:26:100,-0.23,0.629,0.928,-1552.308,43.457,84.594,
00:00:26:117,-0.442,0.484,0.977,-1564.576,17.456,22.338,
00:00:26:133,-0.59,0.033,0.52,-1729.737,37.292,123.291,
00:00:26:150,-0.432,0.805,0.481,175.415,3.54,-123.597,
00:00:26:167,-0.255,0.861,0.661,916.015,57.434,-177.43,
00:00:26:183,-0.239,0.877,0.801,1480.713,-18.433,-228.333,
00:00:26:200,-0.224,1,1.121,1679.626,8.178,-206.482,
00:00:26:217,0.038,0.388,1.414,1336.609,16.906,-126.16,
00:00:26:233,-0.146,0.125,1.354,238.281,-52.613,46.63,
00:00:26:250,-0.161,0.472,1.278,-406.189,-99.732,102.905,
00:00:26:267,-0.45,-0.066,0.888,-768.372,-87.952,72.998,
00:00:26:283,-0.347,-0.014,0.582,-1158.143,20.324,164.428,
00:00:26:300,-0.313,0.689,0.789,-1424.134,142.578,-43.519,
00:00:26:317,-0.363,0.345,0.305,-1046.143,29.419,46.63,
00:00:26:333,-0.35,0.773,0.5,91.369,5.004,-68.299,
00:00:26:350,0.043,1.283,0.933,914.184,-319.153,33.447,
00:00:26:367,-0.443,0.979,1.012,1456.176,4.577,-245.667,
00:00:26:383,-0.147,0.815,1.071,1655.151,37.536,-234.681,
00:00:26:400,-0.288,0.375,1.316,1253.357,58.96,-157.471,
00:00:26:417,0.064,0.425,1.257,480.713,6.469,2.441,
00:00:26:433,-0.645,0.368,1.042,-667.237,-138.123,123.169,
00:00:26:450,-0.45,-0.068,0.582,-733.277,14.343,293.396,
00:00:26:467,-0.587,-0.128,0.239,-1120.667,177.795,71.35,
00:00:26:483,-0.633,-0.07,0.186,-967.774,118.408,208.007,
00:00:26:500,-0.703,0.383,0.364,-794.8,132.507,171.447,
00:00:26:517,-0.507,0.594,0.395,-273.438,244.567,110.107,
00:00:26:533,-0.28,0.903,1.253,697.021,56.152,-115.235,
00:00:26:550,0.032,1.007,1.073,1145.568,203.125,-161.255,
00:00:26:567,0.119,0.889,1.354,1279.052,2.807,-185.73,
00:00:26:583,0.273,0.524,1.486,903.076,91.003,-81.849,
00:00:26:600,0.231,-0.02,1.353,-263.794,-118.714,62.072,
00:00:26:617,-0.177,0.377,1.093,-773.255,-160.279,66.711,
00:00:26:633,-0.321,-0.053,0.629,-1075.867,-85.144,108.825,
00:00:26:650,-0.364,0.226,0.336,-1221.68,-27.955,151.001,
00:00:26:667,-0.489,0.272,0.214,-1137.574,37.17,85.693,
00:00:26:683,-0.522,0.552,0.281,-788.147,20.752,46.142,
00:00:26:700,-0.424,0.564,0.369,-296.021,84.228,-16.236,
00:00:26:717,-0.271,0.763,0.467,409.729,-248.719,-4.944,
00:00:26:733,-0.448,0.965,1.019,1058.471,-21.119,-287.11,
00:00:26:750,-0.118,0.728,0.846,1408.325,66.162,-309.571,
00:00:26:767,-0.292,0.699,1.107,1484.008,-3.968,-305.909,
00:00:26:783,-0.108,0.193,1.051,949.646,163.635,-184.021,
00:00:26:800,0.051,0.123,1.194,215.332,114.196,-80.14,
00:00:26:817,-0.183,-0.034,1.032,-869.324,-53.101,74.829,
00:00:26:833,-0.481,0.608,0.842,-1205.079,-101.685,167.114,
00:00:26:850,-0.543,0.35,0.603,-1253.541,-31.373,209.716,
00:00:26:867,-0.411,0.323,0.474,-845.093,8.606,163.452,
00:00:26:883,-0.368,0.436,0.412,-568.604,27.16,158.996,
00:00:26:900,-0.231,0.542,0.35,-28.626,-310.547,352.234,
00:00:26:917,-0.282,0.85,0.96,409.362,-325.745,-42.786,
00:00:26:933,-0.396,0.628,1.066,970.337,-22.522,-219.971,
00:00:26:950,-0.08,0.726,1.082,1274.414,-61.097,-326.05,
00:00:26:967,-0.357,0.534,1.299,1229.309,-1.221,-319.275,
00:00:26:983,-0.099,0.452,1.011,659.607,193.176,-231.873,
00:00:27:0,0.129,0.435,0.882,-149.537,100.158,-109.192,
00:00:27:17,-0.222,0.443,0.732,-884.217,-48.89,34.545,
00:00:27:33,-0.557,0.772,0.887,-1029.114,-113.77,86.669,
00:00:27:50,-0.511,0.419,0.631,-885.132,88.501,180.542,
00:00:27:67,-0.287,0.403,0.412,-774.414,-15.686,184.875,
00:00:27:83,-0.482,0.303,0.498,-540.528,-89.417,161.01,
00:00:27:100,-0.413,0.447,0.456,-246.46,-86.304,85.449,
00:00:27:117,-0.412,0.454,0.626,197.998,-100.586,-31.25,
00:00:27:133,-0.345,0.641,0.802,636.352,-208.374,-48.523,
00:00:27:150,-0.439,1.14,0.966,1099.365,-39.429,-254.822,
00:00:27:167,-0.416,1.042,1.094,1570.007,101.806,-251.282,
00:00:27:183,-0.354,0.651,1.101,1528.625,268.188,-242.981,
00:00:27:200,-0.385,-0.608,0.468,612.06,552.429,-293.091,
00:00:27:217,0.097,0.367,1.072,-322.876,97.29,33.508,
00:00:27:233,-0.318,-0.246,0.772,-813.355,-4.212,107.788,
00:00:27:250,-0.413,0.456,0.874,-1384.949,-103.821,202.575,
00:00:27:267,-0.399,0.23,0.556,-1187.623,-62.378,165.466,
00:00:27:283,-0.359,0.437,0.299,-1048.523,-162.11,153.076,
00:00:27:300,-0.496,0.642,0.402,-451.783,-267.64,108.398,
00:00:27:317,-0.485,0.716,0.445,167.419,-64.454,25.94,
00:00:27:333,-0.204,0.715,0.756,801.757,-272.767,57.678,
00:00:27:350,-0.386,0.921,1.273,1604.492,125,-163.147,
00:00:27:367,-0.396,0.261,1.303,1492.859,252.258,-240.113,
00:00:27:383,-0.183,-0.374,0.877,313.293,501.281,-152.1,
00:00:27:400,0.014,0.31,0.841,-796.082,438.964,-109.131,
00:00:27:417,-0.159,0.511,0.814,-1187.012,248.352,109.375,
00:00:27:433,-0.356,0.75,0.773,-1236.084,109.069,114.807,
00:00:27:450,-0.441,0.692,0.65,-835.206,152.465,176.208,
00:00:27:467,-0.183,0.376,0.453,-488.831,27.221,244.262,
00:00:27:483,-0.373,0.543,0.985,-235.474,-288.819,102.295,
00:00:27:500,-0.473,0.214,0.776,141.357,-159.058,115.6,
00:00:27:517,-0.112,0.188,0.601,282.837,-287.537,46.936,
00:00:27:533,-0.447,0.616,0.819,453.247,-419.556,-153.992,
00:00:27:550,-0.503,1.155,1.002,1040.405,-131.104,-204.956,
00:00:27:567,-0.396,1.094,1.149,1585.815,79.406,-197.266,
00:00:27:583,-0.432,0.498,1.184,1416.565,343.444,-206.665,
00:00:27:600,-0.01,0.294,0.966,686.096,479.919,-135.376,
00:00:27:617,-0.566,-1.024,0.614,-23.987,597.473,-295.533,
00:00:27:633,-0.217,-0.44,0.351,-1461.182,461.67,71.594,
00:00:27:650,-0.074,0.68,0.713,-1587.891,44.86,-21.119,
00:00:27:667,-0.423,0.708,0.525,-1151.307,52.124,85.022,
00:00:27:683,-0.237,0.675,0.555,-638.001,-115.601,124.206,
00:00:27:700,-0.285,0.71,0.605,-232.911,-186.341,110.595,
00:00:27:717,-0.281,0.607,0.743,294.799,-169.373,5.127,
00:00:27:733,-0.353,0.593,0.843,882.69,-339.173,36.987,
00:00:27:750,-0.47,0.802,1.068,1229.065,-31.617,-181.458,
00:00:27:767,-0.35,0.527,1.196,1461.975,137.634,-219.422,
00:00:27:783,-0.394,0.004,1.082,849.304,403.442,-167.786,
00:00:27:800,0.149,0.329,1.148,48.278,501.587,-140.503,
00:00:27:817,-0.029,-0.245,0.863,-583.313,521.484,53.344,
00:00:27:833,0.084,0.514,0.539,-1797.608,325.744,120.239,
00:00:27:850,-0.285,0.921,0.58,-1237.671,55.908,79.284,
00:00:27:867,-0.158,0.666,0.57,-566.895,-60.303,152.893,
00:00:27:883,-0.428,0.595,0.862,-168.274,-225.403,74.096,
00:00:27:900,-0.262,0.197,0.564,300.171,-119.385,35.644,
00:00:27:917,-0.291,-0.058,0.49,477.478,-410.157,-33.265,
00:00:27:933,-0.586,0.767,0.94,690.612,-328.858,-190.064,
00:00:27:950,-0.401,1.08,1.035,1125.183,88.867,-220.276,
00:00:27:967,-0.377,0.363,1.113,1121.765,205.139,-233.643,
00:00:27:983,-0.123,0.337,0.853,260.864,464.355,-87.037,
00:00:28:0,-0.043,0.166,1.226,-243.592,473.449,-95.581,
00:00:28:17,-0.012,0.168,0.854,-1065.613,437.561,66.711,
00:00:28:33,-0.028,0.502,0.77,-1412.354,243.713,48.889,
00:00:28:50,-0.123,0.512,0.66,-1297.791,24.841,149.292,
00:00:28:67,-0.13,0.703,0.575,-939.881,-217.713,172.729,
00:00:28:83,-0.172,0.741,0.594,-419.129,-580.75,250.244,
00:00:28:100,-0.459,0.714,0.672,205.81,-481.324,92.285,
00:00:28:117,-0.393,0.642,0.743,931.884,-270.997,-50.11,
00:00:28:133,-0.371,0.787,0.839,1434.265,-203.003,-190.247,
00:00:28:150,-0.359,0.75,0.995,1844.604,-9.888,-273.072,
00:00:28:167,-0.305,0.229,1.056,1626.098,226.928,-281.25,
00:00:28:183,-0.003,0.062,1.078,735.962,386.413,-170.838,
00:00:28:200,-0.25,-0.58,0.815,-823.182,436.34,58.715,
00:00:28:217,0,1.253,0.693,-1721.863,358.642,8.117,
00:00:28:233,-0.24,0.791,0.821,-801.392,263.61,79.467,
00:00:28:250,-0.2,-0.222,0.431,-952.393,286.743,227.478,
00:00:28:267,-0.043,0.608,0.757,-1062.623,-240.296,216.186,
00:00:28:283,-0.35,0.444,0.837,-471.802,-432.679,211.059,
00:00:28:300,-0.25,0.444,0.6,-159.974,-356.507,68.481,
00:00:28:317,-0.296,0.668,0.629,381.042,-439.759,-28.687,
00:00:28:333,-0.412,0.982,0.806,1034.484,-269.165,-187.073,
00:00:28:350,-0.368,0.96,0.903,1635.07,-5.005,-252.381,
00:00:28:367,-0.312,0.352,1.054,1647.949,179.199,-290.406,
00:00:28:383,-0.037,0.163,1.1,724.365,407.287,-175.904,
00:00:28:400,0.073,-0.216,1.145,-249.573,442.993,-84.29,
00:00:28:417,-0.349,0.032,0.634,-1645.142,591.308,-24.353,
00:00:28:433,0.031,1.117,0.77,-1349.305,366.027,94.116,
00:00:28:450,-0.21,0.443,0.472,-1031.434,221.801,194.152,
00:00:28:467,-0.288,0.782,0.759,-152.405,-352.723,166.198,
00:00:28:483,-0.414,0.604,0.643,330.2,-301.087,15.014,
00:00:28:500,-0.287,0.696,0.713,949.89,-210.511,-54.261,
00:00:28:517,-0.348,0.891,0.723,1549.194,-145.997,-165.223,
00:00:28:533,-0.375,0.445,0.884,1933.166,39.978,-233.338,
00:00:28:550,-0.271,-0.017,1.116,1489.99,212.89,-215.271,
00:00:28:567,-0.001,-0.467,1.2,358.642,369.934,-166.077,
00:00:28:583,0.09,-0.564,0.994,-1074.83,358.398,104.675,
00:00:28:600,-0.065,1.011,0.797,-1817.261,178.405,34.24,
00:00:28:617,-0.147,0.475,0.526,-1242.92,182.922,117.431,
00:00:28:633,0.022,0.656,0.404,-1209.107,-131.653,188.842,
00:00:28:650,-0.367,0.884,0.805,-533.387,-388.062,177.978,
00:00:28:667,-0.273,0.688,0.705,-35.218,-321.595,123.352,
00:00:28:683,-0.232,0.685,0.629,486.023,-320.13,40.893,
00:00:28:700,-0.416,0.799,0.786,1098.816,-258.667,-82.032,
00:00:28:717,-0.33,0.597,0.949,1505.371,34.668,-171.082,
00:00:28:733,-0.269,0.217,1.208,1158.203,39.55,-231.69,
00:00:28:750,-0.15,-0.093,1.182,319.702,336.914,-265.381,
00:00:28:767,0.005,-0.009,1.291,-492.737,408.203,-243.836,
00:00:28:783,0.19,0.435,0.864,-965.516,406.005,-55.603,
00:00:28:800,0.056,0.547,0.466,-1228.882,137.085,35.278,
00:00:28:817,-0.187,0.748,0.751,-1397.95,-117.249,196.106,
00:00:28:833,-0.218,1.145,1.012,-842.835,-254.761,191.101,
00:00:28:850,-0.177,0.807,0.662,-190.735,-226.075,166.992,
00:00:28:867,-0.346,0.739,0.419,281.982,-364.563,156.372,
00:00:28:883,-0.365,0.746,0.541,1020.019,-438.721,146.545,
00:00:28:900,-0.57,0.768,0.766,1469.543,-151.673,-55.603,
00:00:28:917,-0.37,0.351,0.901,1729.126,94.238,-106.812,
00:00:28:933,-0.323,-0.256,1.105,1272.949,193.176,-257.569,
00:00:28:950,0.049,-0.477,0.952,418.457,352.234,-169.434,
00:00:28:967,-0.012,-0.297,0.969,-480.469,394.775,-241.089,
00:00:28:983,0.07,0.948,0.818,-1394.471,-18.189,92.285,
00:00:29:0,-0.169,1.203,0.782,-892.518,-173.279,158.264,
00:00:29:17,-0.12,0.751,0.713,-404.969,-397.339,228.149,
00:00:29:33,-0.264,0.682,0.854,-242.005,-375.428,262.939,
00:00:29:50,-0.298,0.624,0.689,156.982,-381.531,203.979,
00:00:29:67,-0.376,0.555,0.817,668.518,-455.201,136.779,
00:00:29:83,-0.526,0.671,0.835,995.788,-196.167,-53.65,
00:00:29:100,-0.356,0.603,0.967,1300.598,-13.794,-156.983,
00:00:29:117,-0.399,0.105,0.921,1145.813,200.378,-235.352,
00:00:29:133,-0.358,-0.346,0.782,714.416,539.734,-340.699,
00:00:29:150,-0.107,-0.096,0.982,104.004,471.923,-257.996,
00:00:29:167,-0.204,-0.852,0.343,-654.175,777.343,-66.773,
00:00:29:183,0.139,0.699,0.802,-1471.863,154.48,175.781,
00:00:29:200,-0.288,1.191,0.917,-726.563,-78.736,192.749,
00:00:29:217,-0.196,0.543,0.712,-227.662,-187.745,281.921,
00:00:29:233,-0.187,0.294,0.723,-55.481,-608.46,381.775,
00:00:29:250,-0.441,0.451,0.569,114.868,-459.473,117.981,
00:00:29:267,-0.4,0.494,0.583,606.689,-290.955,-6.958,
00:00:29:283,-0.521,0.709,0.697,1105.346,-149.72,-106.385,
00:00:29:300,-0.466,0.697,0.943,1450.073,65.185,-188.233,
00:00:29:317,-0.47,0.273,1.338,1246.093,406.067,-346.009,
00:00:29:333,-0.054,-0.68,1.414,302.368,448.303,-277.222,
00:00:29:350,-0.122,-0.753,1.081,-836.914,808.288,-339.112,
00:00:29:367,-0.082,-0.296,0.289,-1803.956,646.362,-67.505,
00:00:29:383,0.063,1.262,0.634,-1891.907,80.505,112.671,
00:00:29:400,-0.228,1.046,0.573,-798.035,-16.785,209.167,
00:00:29:417,0.128,1.116,1.173,-417.054,-539.063,435.547,
00:00:29:433,-0.258,0.772,1.004,-1.831,-516.053,290.222,
00:00:29:450,-0.386,0.526,0.726,507.751,-325.989,169.372,
00:00:29:467,-0.409,0.428,0.756,934.082,-212.037,11.962,
00:00:29:483,-0.415,0.456,0.826,1127.624,-96.07,-131.714,
00:00:29:500,-0.376,0.551,0.982,1298.095,38.452,-216.248,
00:00:29:517,-0.327,0.367,1.251,1183.715,253.601,-215.271,
00:00:29:533,-0.045,-0.132,1.274,505.981,513.427,-192.017,
00:00:29:550,-0.037,-0.637,0.913,-346.253,561.584,-83.191,
00:00:29:567,0.066,-0.146,0.473,-1388.245,483.703,19.775,
00:00:29:583,-0.172,0.749,0.842,-1225.159,-97.84,201.66,
00:00:29:600,-0.349,0.689,0.809,-629.883,-108.094,226.379,
00:00:29:617,-0.226,0.274,0.388,-354.615,-195.252,229.98,
00:00:29:633,-0.41,0.331,0.503,-82.398,-356.69,16.54,
00:00:29:650,-0.292,0.606,0.882,426.757,-466.553,123.718,
00:00:29:667,-0.509,0.591,0.742,850.525,-159.424,-160.157,
00:00:29:683,-0.414,0.532,0.894,1160.095,24.108,-225.098,
00:00:29:700,-0.331,0.4,1.092,1151.489,118.53,-270.081,
00:00:29:717,-0.214,0.078,1.228,779.663,387.573,-262.391,
00:00:29:733,-0.114,-0.741,0.838,-147.278,523.498,-257.63,
00:00:29:750,-0.228,-0.517,0.481,-1213.257,404.968,-17.151,
00:00:29:767,-0.067,0.899,0.94,-1604.493,136.84,163.879,
00:00:29:783,-0.168,0.642,0.591,-1017.273,100.341,234.069,
00:00:29:800,-0.129,0.591,0.724,-783.509,-211.792,308.105,
00:00:29:817,-0.385,0.637,1,-190.186,-364.808,225.647,
00:00:29:833,-0.257,0.242,0.635,257.69,-238.892,67.016,
00:00:29:850,-0.303,0.263,0.6,648.437,-334.961,-23.255,
00:00:29:867,-0.284,0.703,0.994,1190.368,-389.893,-113.526,
00:00:29:883,-0.601,0.735,0.954,1722.229,-12.33,-310.181,
00:00:29:900,-0.271,0.465,0.966,1837.829,158.447,-332.581,
00:00:29:917,-0.269,-0.153,1.091,1302.673,342.529,-261.78,
00:00:29:933,0.173,-0.823,1.633,142.578,418.09,-129.09,
00:00:29:950,-0.336,-0.032,0.8,-1691.651,460.571,146.85,
00:00:29:967,0.125,1.548,0.77,-1524.415,296.386,141.357,
00:00:29:983,-0.123,0.258,0.753,-654.969,73.303,130.554,whipRH
00:00:30:0,-0.234,0.121,0.55,-669.678,3.906,191.65,
00:00:30:17,-0.246,0.455,0.99,-353.882,-369.263,143.676,
00:00:30:33,-0.426,0.265,0.805,3.234,-314.515,-11.658,
00:00:30:50,-0.474,0.459,0.899,825.805,-127.503,-210.083,
00:00:30:67,-0.376,0.254,1.053,721.679,208.313,-185.425,
00:00:30:83,-0.136,-0.033,1.153,85.449,369.812,-128.724,
00:00:30:100,-0.032,-0.091,1.115,-498.536,488.464,-89.295,
00:00:30:117,0.026,0.174,0.838,-889.466,420.166,80.078,
00:00:30:133,-0.197,0.656,0.711,-1029.908,-134.522,225.158,
00:00:30:150,-0.363,0.949,0.859,-330.445,-325.562,181.213,
00:00:30:167,-0.095,0.819,0.778,481.811,-503.54,261.474,
00:00:30:183,-0.305,0.539,0.839,1064.575,-550.721,72.631,
00:00:30:200,-0.482,0.37,0.916,1449.524,-294.739,-17.334,
00:00:30:217,-0.449,0.214,0.972,1635.07,-70.313,-130.494,
00:00:30:233,-0.198,-0.446,1.189,-574.463,344.604,-68.055,
00:00:30:250,-0.117,0.586,0.874,-1309.571,522.583,-48.218,
00:00:30:267,0.059,0.85,0.825,-797.12,367.859,-25.269,
00:00:30:283,-0.176,0.016,0.7,-756.836,238.22,-12.94,
00:00:30:300,-0.078,0.369,0.803,-618.287,-170.472,112.243,
00:00:30:317,-0.213,0.495,0.822,-211.304,-537.598,255.188,
00:00:30:333,-0.352,0.372,0.73,83.557,-491.578,64.758,
00:00:30:350,-0.37,0.442,0.67,379.211,-390.748,-7.691,
00:00:30:367,-0.547,0.457,0.693,860.839,-303.528,-82.337,
00:00:30:383,-0.491,0.383,0.934,1189.148,-82.276,-121.46,
00:00:30:400,-0.401,0.428,1.25,1337.28,130.859,-172.059,
00:00:30:417,-0.282,-0.327,0.877,-1144.227,356.628,-6.104,
00:00:30:433,-0.032,0.98,0.898,-1565.857,331.787,81.359,
00:00:30:450,-0.049,0.481,1.054,-908.631,148.132,144.348,
00:00:30:467,-0.217,0.199,0.82,-949.219,1.709,192.505,
00:00:30:483,-0.173,0.523,0.769,-797.974,-155.701,247.985,
00:00:30:500,-0.294,0.317,0.541,-483.948,-300.599,299.133,
00:00:30:517,-0.241,0.517,0.756,-227.539,-490.235,155.395,
00:00:30:533,-0.485,0.656,0.631,308.899,-332.154,8.3,
00:00:30:550,-0.337,0.569,0.866,998.413,-231.385,-7.691,
00:00:30:567,-0.412,0.58,1.016,1491.76,-173.401,-112.427,
00:00:30:583,-0.493,0.292,1.181,1796.875,106.384,-159.119,
00:00:30:600,-0.291,-0.321,1.067,970.214,466.247,-202.088,
00:00:30:617,0.083,0.114,1.304,49.194,271.301,-100.403,
00:00:30:633,-0.156,-0.282,1.204,30.151,392.212,-154.419,
00:00:30:650,0.037,-0.98,0.634,-1200.013,375.183,70.739,
00:00:30:667,0.135,0.764,0.786,-1943.238,-103.455,58.349,
00:00:30:683,-0.463,0.953,0.741,-918.58,-224.915,45.532,
00:00:30:700,-0.173,0.864,0.577,-261.597,-354.371,343.505,
00:00:30:717,-0.407,0.532,1.1,165.832,-600.892,73.425,
00:00:30:733,-0.527,0.337,0.425,405.7,-136.658,75.927,
00:00:30:750,-0.3,0.337,0.591,749.267,-183.472,-12.94,
00:00:30:767,-0.59,0.244,0.864,971.13,-140.503,-88.807,
00:00:30:783,-0.421,0.252,1.132,974.06,124.389,-121.033,
00:00:30:800,-0.366,-0.09,1.176,659.79,345.703,-107.544,
00:00:30:817,-0.033,0.046,0.934,-175.538,472.412,34.912,
00:00:30:833,-0.019,0.036,1.04,-306.946,466.674,-70.557,
00:00:30:850,0.073,-0.098,1.246,-923.829,359.13,133.422,
00:00:30:867,0.207,0.375,1.048,-1195.191,34.973,45.959,
00:00:30:883,-0.248,0.226,0.739,-982.3,-256.287,161.499,
00:00:30:900,-0.176,1.031,1.177,-775.696,-601.136,170.288,
00:00:30:917,-0.307,0.481,0.478,530.822,-347.413,47.424,
00:00:30:933,-0.521,0.517,0.788,954.895,-350.892,-71.656,
00:00:30:950,-0.589,0.419,0.913,1326.355,-100.037,-96.985,
00:00:30:967,-0.379,0.344,1.06,1426.696,116.943,-128.602,
00:00:30:983,-0.399,-0.136,1.133,1090.637,422.058,-229.554,
00:00:31:0,-0.077,-0.323,1.074,98.571,408.508,-52.124,
00:00:31:17,-0.002,-0.073,1.324,-612.793,377.319,-55.542,
00:00:31:33,-0.04,0.747,1.122,-1698.243,338.623,26.672,
00:00:31:50,0.024,0.39,0.632,-1230.103,-26.429,153.442,
00:00:31:67,-0.28,0.713,0.863,-1073.06,-289.978,221.923,
00:00:31:83,-0.318,0.811,0.629,-251.77,-409.485,250.732,
00:00:31:100,-0.357,0.642,0.26,361.45,-344.605,53.955,
00:00:31:117,-0.455,0.638,0.34,973.51,-320.984,13.977,
00:00:31:133,-0.619,0.724,0.765,1694.519,-44.312,-106.995,
00:00:31:150,-0.378,0.2,1.084,1990.661,294.86,-139.527,
00:00:31:167,-0.265,-0.405,1.372,1428.161,348.327,-150.574,
00:00:31:183,-0.048,-1.099,1.231,72.387,596.374,-100.831,
00:00:31:200,0.242,-0.287,1.401,-1306.946,458.313,-4.944,
00:00:31:217,0.13,0.568,1.305,-1790.467,122.924,161.377,
00:00:31:233,-0.46,0.488,0.357,-762.33,-110.718,195.922,
00:00:31:250,-0.318,0.62,0.366,-254.7,-180.115,179.565,
00:00:31:267,-0.414,0.188,0.583,13.732,-230.652,180.236,
00:00:31:283,-0.344,0.32,0.574,534.729,-403.992,184.936,
00:00:31:300,-0.488,0.28,0.827,859.436,-181.214,-133.973,
00:00:31:317,-0.372,0.411,1.005,1153.869,33.691,-231.995,
00:00:31:333,-0.315,0.317,1.164,1263.244,59.875,-258.118,
00:00:31:350,-0.282,-0.031,1.252,877.319,267.456,-205.506,
00:00:31:367,-0.058,-0.117,1.155,-42.237,347.717,-147.644,
00:00:31:383,-0.057,-0.092,0.999,-703.919,420.288,-65.552,
00:00:31:400,0.114,-0.046,0.697,-1418.946,236.389,187.744,
00:00:31:417,-0.246,0.88,0.947,-1456.482,-8.545,129.638,
00:00:31:433,-0.143,0.618,0.586,-583.863,0.061,128.051,
00:00:31:450,-0.296,0.394,0.789,-262.024,-238.343,140.075,
00:00:31:467,-0.159,0.367,0.896,-32.532,-444.031,116.638,
00:00:31:483,-0.469,0.43,1.092,365.356,-381.592,-108.46,
00:00:31:500,-0.426,0.607,1.07,850.647,-204.895,-179.871,
00:00:31:517,-0.351,0.635,1.129,1144.043,-175.599,-205.628,
00:00:31:533,-0.401,0.192,1.131,1147.338,123.108,-177.124,
00:00:31:550,-0.066,-0.164,1.033,487.793,272.766,-167.115,
00:00:31:567,-0.171,-0.476,0.797,-387.024,445.007,-123.23,
00:00:31:583,0.191,0.066,1.009,-1170.594,394.958,46.081,
00:00:31:600,-0.138,0.391,1.001,-1461.304,4.76,57.739,
00:00:31:617,-0.263,0.762,0.721,-1097.779,-77.271,85.754,
00:00:31:633,-0.165,0.714,0.704,-499.939,-469.605,243.469,
00:00:31:650,-0.367,0.65,0.592,-263.672,-365.845,144.653,
00:00:31:667,-0.354,0.758,0.854,327.636,-389.1,-59.815,
00:00:31:683,-0.414,1.075,1.354,1000.183,-401.429,-93.262,
00:00:31:700,-0.445,0.862,1.165,1458.068,-32.593,-108.155,
00:00:31:717,-0.48,0.065,1.055,1392.028,192.199,-132.752,
00:00:31:733,-0.182,-0.629,0.692,258.117,373.23,-19.959,
00:00:31:750,-0.123,-0.228,0.803,-552.369,512.146,-125.611,
00:00:31:767,-0.095,-0.291,0.443,-1399.903,500,192.566,
00:00:31:783,0.121,0.911,1.129,-1801.636,155.273,158.63,
00:00:31:800,-0.125,0.3,0.682,-1311.097,61.828,147.094,
00:00:31:817,-0.172,0.974,0.796,-957.215,-207.52,175.537,
00:00:31:833,-0.088,0.761,0.846,-208.619,-438.416,407.104,
00:00:31:850,-0.098,0.731,0.861,119.201,-470.398,84.655,
00:00:31:867,-0.572,0.674,1.004,681.823,-410.584,-84.961,
00:00:31:883,-0.365,0.889,1.01,1149.475,-267.762,-177.979,
00:00:31:900,-0.46,0.685,0.928,1648.315,-131.165,-192.566,
00:00:31:917,-0.416,0.214,0.788,1525.817,158.691,-216.004,
00:00:31:933,-0.482,-0.47,0.542,902.465,481.506,-306.336,
00:00:31:950,-0.114,-0.447,0.882,-8.118,538.574,-116.089,
00:00:31:967,-0.103,-0.214,0.691,-1312.012,449.157,208.618,
00:00:31:983,0.055,1.155,1.288,-1622.315,213.745,146.85,
00:00:32:0,-0.1,0.265,0.989,-946.534,107.422,261.23,
00:00:32:17,-0.118,0.285,0.815,-1155.03,3.356,285.888,
00:00:32:33,-0.165,0.416,0.598,-943.665,-236.939,250.793,
00:00:32:50,-0.228,0.629,0.828,-491.7,-469.91,98.205,
00:00:32:67,-0.512,0.539,0.522,76.355,-290.65,-19.288,
00:00:32:83,-0.305,0.804,0.642,560.913,-266.053,-85.999,
00:00:32:100,-0.34,1.186,1.109,1357.116,-400.025,-117.371,
00:00:32:117,-0.496,0.758,1.049,1899.475,97.656,-195.862,
00:00:32:133,-0.347,0.008,1.041,1543.335,263.916,-196.778,
00:00:32:150,-0.209,-0.493,0.821,523.315,411.193,-111.756,
00:00:32:167,0.036,-0.447,0.977,-391.114,529.419,-96.924,
00:00:32:183,-0.082,-0.08,0.838,-1737.244,326.538,174.621,
00:00:32:200,-0.204,0.429,0.304,-1227.723,149.78,260.192,
00:00:32:217,-0.083,0.966,0.617,-868.409,-362,338.256,
00:00:32:233,-0.377,0.643,1.071,39.794,-542.725,235.962,
00:00:32:250,-0.344,0.439,0.798,226.562,-242.432,47.79,
00:00:32:267,-0.245,0.826,0.898,820.312,-375.977,-116.822,
00:00:32:283,-0.463,0.504,1.063,1419.555,-193.421,-231.568,
00:00:32:300,-0.222,0.081,1.148,1179.565,39.917,-302.308,
00:00:32:317,-0.204,-0.368,1.183,276.916,225.341,-286.744,
00:00:32:333,-0.009,-0.013,1.242,-977.845,469.97,-400.94,
00:00:32:350,0.142,0.218,0.694,-1097.046,370.3,-208.374,
00:00:32:367,-0.234,0.626,0.732,-1518.921,6.897,-68.055,
00:00:32:383,-0.357,1.348,0.43,-1128.479,37.292,16.235,
00:00:32:400,-0.22,0.869,0.221,-375.916,-85.144,208.13,
00:00:32:417,-0.262,0.675,0.703,-48.035,-469.117,204.589,
00:00:32:433,-0.439,0.658,0.545,220.947,-251.404,-27.832,
00:00:32:450,-0.352,0.548,0.537,629.516,-167.176,-24.537,
00:00:32:467,-0.379,0.875,0.996,981.628,-291.565,-133.973,
00:00:32:483,-0.437,0.743,1.01,1246.582,-22.156,-134.4,
00:00:32:500,-0.261,0.479,1.052,1035.156,32.043,-183.838,
00:00:32:517,-0.32,-0.048,1.022,564.27,221.618,-140.137,
00:00:32:533,-0.053,0.106,1.063,-189.087,337.158,-71.961,
00:00:32:550,-0.247,-0.256,0.49,-526.123,479.309,-96.131,
00:00:32:567,0.055,0.092,0.637,-1239.502,335.876,82.641,
00:00:32:583,-0.184,0.505,0.804,-1544.983,-16.663,54.504,
00:00:32:600,-0.366,0.721,0.783,-1262.818,59.997,165.161,
00:00:32:617,-0.111,0.625,0.31,-910.279,-0.855,257.08,
00:00:32:633,-0.414,0.981,0.429,789.062,-190.308,-108.094,
00:00:32:650,-0.38,1.037,0.64,1401.062,-215.149,-232.239,
00:00:32:667,-0.46,0.871,0.775,1852.6,-48.035,-275.94,
00:00:32:683,-0.256,0.381,0.912,1863.83,140.869,-259.583,
00:00:32:700,-0.287,-0.58,1.086,850.158,509.338,-277.71,
00:00:32:717,-0.08,-0.532,1.02,-1137.574,102.356,126.403,
00:00:32:733,-0.261,1.372,1.094,-1683.655,119.873,49.743,
00:00:32:750,-0.18,0.532,0.683,-679.871,323.059,207.031,
00:00:32:767,-0.147,-0.141,0.523,-1308.533,279.663,226.074,
00:00:32:783,-0.083,0.569,0.442,-1388.489,-39.49,241.455,
00:00:32:800,-0.054,0.886,0.992,-682.557,-508.912,230.651,
00:00:32:817,-0.448,0.857,0.89,-73.182,-274.537,-16.297,
00:00:32:833,-0.224,1.031,0.679,652.893,-142.701,-80.384,
00:00:32:850,-0.257,1.048,0.521,1416.626,-237,-148.316,
00:00:32:867,-0.433,1.04,0.862,1958.984,-135.193,-238.404,
00:00:32:883,-0.299,0.617,0.988,1999.694,121.154,-196.473,
00:00:32:900,-0.335,-0.096,0.95,1230.102,455.932,-237.671,
00:00:32:917,-0.003,-0.741,0.911,-8.545,453.247,-41.81,
00:00:32:933,-0.332,-0.027,1.102,-1531.434,114.502,44.738,
00:00:32:950,-0.212,0.945,0.994,-1325.44,272.277,102.905,
00:00:32:967,-0.215,0.35,0.358,-1074.28,431.823,87.829,
00:00:32:983,-0.125,0.632,0.439,-1104.554,-53.101,200.073,
00:00:33:0,-0.469,0.593,0.504,-242.798,-291.565,244.445,
00:00:33:17,-0.313,0.514,0.722,70.922,-180.726,124.45,
00:00:33:33,-0.385,0.836,0.728,972.961,-340.638,-0.794,
00:00:33:50,-0.441,0.751,1.046,1406.616,-79.041,-143.86,
00:00:33:67,-0.298,0.426,1.12,1276.55,60.485,-136.17,
00:00:33:83,-0.209,0.279,1.19,539.062,354.675,-219.422,
00:00:33:100,0.165,0.195,1.147,129.211,346.069,-186.951,
00:00:33:117,-0.045,-0.003,1.031,-391.724,314.209,-134.339,
00:00:33:133,0.079,0.282,0.561,-839.905,239.135,81.665,
00:00:33:150,-0.286,0.535,0.634,-952.576,-153.382,83.374,
00:00:33:167,-0.342,0.706,0.665,-609.314,-108.277,161.316,
00:00:33:183,-0.348,0.525,0.605,-265.442,-173.34,249.939,
00:00:33:200,-0.156,0.544,0.885,-0.855,-342.713,186.279,
00:00:33:217,-0.613,0.609,0.932,404.907,-180.848,-15.625,
00:00:33:233,-0.387,0.768,0.994,958.557,-115.54,-10.254,
00:00:33:250,-0.335,0.036,0.992,1106.018,370.056,-251.709,
00:00:33:267,0.164,0.356,1.156,394.043,333.007,-87.586,
00:00:33:283,-0.181,-0.14,1.026,6.408,421.325,-210.022,
00:00:33:300,-0.007,-0.623,0.325,-917.42,572.082,-33.265,
00:00:33:317,-0.085,0.616,0.931,-1334.717,-170.166,161.377,
00:00:33:334,-0.387,0.638,0.982,-1041.81,-78.675,214.05,
00:00:33:350,-0.127,0.585,0.502,-798.584,-197.571,253.112,
00:00:33:367,-0.146,0.595,0.595,-459.412,-587.281,416.626,
00:00:33:384,-0.461,0.739,0.818,-76.722,-371.338,86.242,
00:00:33:400,-0.547,0.655,0.812,569.946,-174.134,4.272,
00:00:33:417,-0.411,0.691,0.836,996.399,-39.734,-179.2,
00:00:33:434,-0.463,0.4,1.005,1339.599,118.408,-291.748,
00:00:33:450,-0.063,0.383,1.058,353.149,365.356,-309.937,
00:00:33:467,0.04,-0.258,0.957,-193.36,616.455,-73.426,
00:00:33:484,0.122,0.238,0.936,-1527.039,147.888,175.232,
00:00:33:500,-0.292,0.916,1.05,-1342.591,-61.829,217.529,
00:00:33:517,-0.075,0.462,0.52,-1074.097,-62.867,340.515,
00:00:33:534,-0.266,0.682,0.887,-711.853,-363.038,249.939,
00:00:33:550,-0.361,0.398,0.683,-369.446,-338.99,185.302,
00:00:33:567,-0.418,0.561,0.493,26.55,-213.562,88.378,
00:00:33:584,-0.491,0.684,0.766,601.867,-52.918,-146.119,
00:00:33:600,-0.396,0.788,0.736,1182.129,147.461,-307.618,
00:00:33:617,-0.216,0.597,0.934,1583.313,236.694,-468.079,
00:00:33:634,-0.155,0.157,0.92,1189.392,398.437,-331.788,
00:00:33:650,-0.026,0.188,1.244,455.505,479.492,-326.233,
00:00:33:667,0.352,-0.367,1.192,-551.331,465.942,-178.833,
00:00:33:684,-0.02,0.706,0.96,-1362.549,2.685,134.704,
00:00:33:700,-0.389,0.807,1.009,-1066.407,-104.676,101.501,
00:00:33:717,-0.104,0.427,0.253,-995.179,31.433,236.389,
00:00:33:734,-0.31,0.642,0.595,-680.054,-354.31,241.821,
00:00:33:750,-0.199,0.619,1.002,-303.833,-379.639,242.981,
00:00:33:767,-0.333,0.666,0.676,129.333,-260.437,16.601,
00:00:33:784,-0.381,0.798,0.707,751.098,-247.376,-74.402,
00:00:33:800,-0.334,0.916,0.871,1301.452,-167.42,-166.077,
00:00:33:817,-0.38,0.727,0.965,1534.912,70.434,-234.192,
00:00:33:834,-0.321,0.288,1.096,1317.199,219.543,-225.281,
00:00:33:850,-0.087,-0.319,0.791,462.158,449.157,-107.544,
00:00:33:867,0.029,-0.452,0.989,-692.749,358.276,-38.331,
00:00:33:884,-0.207,0.381,0.75,-1677.063,274.902,106.811,
00:00:33:900,-0.077,0.559,0.531,-1547.242,163.025,236.877,
00:00:33:917,-0.04,0.778,0.463,-1437.623,-32.837,281.311,
00:00:33:934,-0.46,0.771,0.638,-445.313,-393.128,351.684,
00:00:33:950,-0.421,0.489,0.841,119.079,-375,268.737,
00:00:33:967,-0.187,0.496,0.612,448.425,-286.438,127.624,
00:00:33:984,-0.258,1.061,0.904,1199.524,-552.124,-17.456,
00:00:34:0,-0.569,0.675,1.123,1844.177,-2.198,-277.222,
00:00:34:17,-0.296,0.101,0.931,1380.432,144.958,-359.742,whipRH
00:00:34:34,-0.005,0.623,1.07,628.296,477.783,-422.608,
00:00:34:50,-0.16,-0.3,0.807,63.537,510.254,-338.135,
00:00:34:67,0.041,0.042,0.773,-1414.917,488.525,61.95,
00:00:34:84,-0.106,0.885,0.939,-1405.152,161.377,38.94,
00:00:34:100,-0.139,0.569,0.66,-1123.475,136.535,183.96,
00:00:34:117,-0.074,0.754,0.557,-895.02,-231.263,265.258,
00:00:34:134,-0.195,0.754,1.052,-410.889,-621.705,416.748,
00:00:34:150,-0.377,0.757,0.684,113.22,-392.64,200.073,
00:00:34:167,-0.237,0.982,0.868,802.185,-485.108,65.856,
00:00:34:184,-0.6,0.835,0.804,1449.34,-110.352,-69.886,
00:00:34:200,-0.363,0.711,0.796,1740.173,66.101,-160.279,
00:00:34:217,-0.412,0.036,0.794,1605.774,302.612,-223.694,
00:00:34:234,-0.046,0.295,1.455,655.761,529.358,-289.307,
00:00:34:250,0.042,-0.227,1.289,-74.158,458.984,-195.374,
00:00:34:267,-0.182,-0.687,0.978,-1569.886,390.808,35.217,
00:00:34:284,-0.198,0.481,0.491,-1981.934,340.026,-69.825,
00:00:34:300,-0.164,0.473,0.457,-1651.124,-0.672,236.694,
00:00:34:317,-0.2,1.006,0.639,-1538.514,-264.222,385.803,
00:00:34:334,-0.477,0.629,0.605,-763.855,-462.586,446.655,
00:00:34:350,-0.317,0.672,0.71,-401.734,-481.324,254.699,
00:00:34:367,-0.446,0.919,0.399,347.412,-326.539,139.404,
00:00:34:384,-0.527,0.854,0.596,1344.604,-181.58,-73.06,
00:00:34:400,-0.319,0.401,0.652,1760.254,53.527,-251.465,
00:00:34:417,-0.317,0.545,0.788,1886.718,145.202,-365.235,
00:00:34:434,-0.057,0.133,1.017,1622.68,345.581,-386.902,
00:00:34:450,0.083,0.091,1.286,711.609,358.154,-291.932,
00:00:34:467,0.142,-0.151,1.469,-457.825,142.028,-123.841,
00:00:34:484,-0.158,0.841,1.023,-1297.73,-35.706,160.644,
00:00:34:500,-0.275,0.695,0.784,-1183.777,-135.01,222.778,
00:00:34:517,-0.386,0.4,0.357,-1183.228,-41.077,305.969,
00:00:34:534,-0.246,0.679,0.095,-725.464,-109.314,264.77,
00:00:34:550,-0.437,0.66,0.529,-10.315,-200.196,153.442,
00:00:34:567,-0.462,0.58,0.766,730.651,-79.59,18.371,
00:00:34:584,-0.44,0.382,0.887,1268.31,6.469,-153.138,
00:00:34:600,-0.391,0.465,1.013,1535.644,47.485,-280.457,
00:00:34:617,-0.288,0.221,1.226,1458.252,100.463,-284.79,
00:00:34:634,-0.124,0.017,1.135,760.315,234.375,-203.553,
00:00:34:650,0.131,-0.193,0.96,-47.303,221.191,-118.592,
00:00:34:667,-0.392,0.442,1.019,-1417.298,101.562,80.749,
00:00:34:684,-0.206,0.802,0.709,-1004.7,208.618,177.978,
00:00:34:700,-0.083,0.095,0.502,-1069.581,100.219,259.033,
00:00:34:717,-0.221,0.624,0.671,-909.79,-45.777,231.994,
00:00:34:734,-0.3,0.397,0.854,-509.522,-62.012,158.996,
00:00:34:750,-0.135,0.518,0.754,-210.022,-127.625,75.439,
00:00:34:767,-0.401,0.4,0.731,355.529,-270.142,-19.959,
00:00:34:784,-0.332,0.704,0.901,705.688,-208.435,-131.714,
00:00:34:800,-0.295,0.721,0.979,1040.832,-132.264,-190.979,
00:00:34:817,-0.181,0.713,1.272,1154.235,-177.491,-207.337,
00:00:34:834,-0.246,0.22,0.941,887.207,128.112,-186.951,
00:00:34:850,-0.038,0.139,0.978,315.368,169.372,-175.049,
