TIMECODE,ACC_X,ACC_Y,ACC_Z,GYR_X,GYR_Y,GYR_Z,ECG_I,ECG_II,ECG_III,TAG
,-0.617,-0.756,0.344,271.24,23.986,-11.292,0,0,0,
,-0.604,-0.757,0.328,335.876,40.039,-4.151,0,0,0,
,-0.608,-0.843,0.295,416.626,44.677,0.183,0,0,0,
,-0.632,-0.823,0.256,463.867,31.372,33.325,0,0,0,
,-0.581,-0.772,0.253,439.392,27.221,21.911,0,0,0,
,-0.589,-0.825,0.239,455.444,25.146,34.118,0,0,0,
,-0.598,-0.807,0.221,426.147,24.597,31.982,0,0,0,
,-0.579,-0.808,0.21,430.969,35.4,28.442,0,0,0,
,-0.574,-0.851,0.167,379.76,40.344,8.422,0,0,0,
,-0.573,-0.818,0.154,372.497,52.551,1.586,0,0,0,
,-0.573,-0.846,0.144,369.14,61.279,-9.339,0,0,0,
,-0.579,-0.857,0.116,342.59,62.622,-10.315,0,0,0,
,-0.582,-0.85,0.094,316.467,66.406,-10.071,0,0,0,
,-0.593,-0.857,0.112,297.18,46.264,-26.062,0,0,0,
,-0.611,-0.872,0.093,280.273,51.94,-7.691,0,0,0,
,-0.595,-0.873,0.091,217.163,44.006,-7.691,0,0,0,
,-0.596,-0.876,0.083,151.916,52.368,-1.587,0,0,0,
,-0.597,-0.865,0.072,149.841,55.358,-7.691,0,0,0,
,-0.592,-0.859,0.068,121.765,51.879,-10.804,0,0,0,
,-0.587,-0.904,0.061,135.62,43.396,-21.668,0,0,0,
,-0.594,-0.907,0.073,131.164,29.663,-20.386,0,0,0,
,-0.583,-0.87,0.061,125.183,26.916,-24.964,0,0,0,
,-0.579,-0.885,0.064,101.867,20.507,-28.87,0,0,0,
,-0.572,-0.88,0.051,-2.564,0.488,-27.955,0,0,0,
,-0.577,-0.861,0.066,-18.799,2.075,-26.307,0,0,0,
,-0.567,-0.856,0.062,-6.165,3.418,-27.1,0,0,0,
,-0.578,-0.865,0.068,12.939,-1.282,-23.194,0,0,0,
,-0.569,-0.882,0.056,1.403,-12.146,-20.874,0,0,0,
,-0.574,-0.875,0.02,-89.844,-5.494,-12.696,0,0,0,
,-0.585,-0.867,0.058,-99.244,-17.029,-11.658,0,0,0,
,-0.571,-0.865,0.057,-100.953,-12.879,-17.579,0,0,0,
,-0.587,-0.879,0.056,-85.206,-8.057,-22.767,0,0,0,
,-0.584,-0.87,0.046,-92.408,-2.93,-26.734,0,0,0,
,-0.572,-0.873,0.048,-88.807,4.577,-32.288,0,0,0,
,-0.582,-0.878,0.059,-147.156,12.573,-33.02,0,0,0,
,-0.58,-0.859,0.066,-166.993,23.498,-38.697,0,0,0,
,-0.585,-0.891,0.068,-174.317,37.109,-39.307,0,0,0,
,-0.59,-0.855,0.076,-196.961,39.306,-31.861,0,0,0,
,-0.584,-0.821,0.087,-189.087,42.541,-32.898,0,0,0,
,-0.593,-0.838,0.125,-99.976,54.26,-38.941,0,0,0,
,-0.583,-0.84,0.139,-91.797,50.842,-38.697,0,0,0,
,-0.599,-0.874,0.15,-108.582,43.212,-33.02,0,0,0,
,-0.589,-0.849,0.161,-125.123,37.353,-28.321,0,0,0,
,-0.602,-0.835,0.171,-88.929,34.545,-26.978,0,0,0,
,-0.594,-0.843,0.162,-34.18,32.592,-25.269,0,0,0,
,-0.599,-0.836,0.16,29.602,36.315,-22.278,0,0,0,
,-0.59,-0.846,0.156,80.566,40.466,-25.269,0,0,0,
,-0.591,-0.848,0.169,107.238,45.288,-25.391,0,0,0,
,-0.587,-0.846,0.166,123.169,46.814,-23.621,0,0,0,
,-0.589,-0.854,0.158,129.882,47.729,-21.851,0,0,0,
,-0.581,-0.871,0.139,124.145,43.151,-25.696,0,0,0,
,-0.582,-0.864,0.143,18.005,31.311,-19.959,0,0,0,
,-0.579,-0.848,0.153,-6.836,31.311,-14.039,0,0,0,
,-0.588,-0.845,0.152,-3.357,29.052,-15.442,0,0,0,
,-0.578,-0.84,0.146,17.822,38.33,-13.977,0,0,0,
,-0.579,-0.855,0.126,45.227,28.015,-14.283,0,0,0,
,-0.584,-0.865,0.118,44.86,36.377,-14.161,0,0,0,
,-0.572,-0.86,0.109,30.334,37.963,-11.658,0,0,0,
,-0.565,-0.859,0.113,17.944,29.968,-13.306,0,0,0,
,-0.57,-0.859,0.122,3.234,25.451,-14.954,0,0,0,
,-0.576,-0.855,0.132,-1.709,17.822,-17.884,0,0,0,
,-0.572,-0.86,0.132,-1.282,13.488,-19.227,0,0,0,
,-0.575,-0.86,0.128,-15.931,9.338,-16.663,0,0,0,
,-0.572,-0.855,0.098,-21.912,10.62,-16.663,0,0,0,
,-0.573,-0.863,0.096,-38.208,10.681,-15.809,0,0,0,
,-0.574,-0.867,0.118,-55.726,13.122,-20.081,0,0,0,
,-0.569,-0.865,0.119,-55.359,26.916,-32.227,0,0,0,
,-0.586,-0.872,0.12,-85.389,25.695,-32.593,0,0,0,
,-0.58,-0.866,0.122,-121.827,37.78,-39.734,0,0,0,
,-0.573,-0.889,0.106,-160.889,43.823,-52.613,0,0,0,
,-0.592,-0.901,0.127,-238.892,41.442,-62.806,0,0,0,
,-0.594,-0.904,0.124,-329.834,37.963,-78.553,0,0,0,
,-0.617,-0.894,0.159,-385.987,33.081,-85.633,0,0,0,
,-0.61,-0.85,0.18,-410.584,34.606,-102.845,0,0,0,
,-0.606,-0.817,0.198,-405.152,41.381,-107.361,0,0,0,
,-0.615,-0.835,0.199,-386.658,48.156,-114.075,0,0,0,
,-0.62,-0.879,0.18,-386.963,60.607,-112.427,0,0,0,
,-0.608,-0.842,0.172,-417.054,78.857,-123.78,0,0,0,
,-0.605,-0.8,0.196,-416.993,96.496,-135.498,0,0,0,
,-0.6,-0.797,0.192,-379.212,94.848,-147.644,0,0,0,
,-0.609,-0.791,0.24,-349.183,93.2,-151.551,0,0,0,
,-0.6,-0.776,0.291,-296.57,95.52,-156.922,0,0,0,
,-0.616,-0.776,0.314,-226.746,100.952,-161.622,0,0,0,
,-0.627,-0.796,0.316,-148.743,111.938,-163.758,0,0,0,
,-0.611,-0.722,0.324,-105.53,139.587,-162.049,0,0,0,
,-0.628,-0.735,0.299,-12.635,164.184,-163.758,0,0,0,
,-0.624,-0.768,0.314,20.385,190.246,-154.847,0,0,0,
,-0.614,-0.752,0.308,44.494,215.515,-152.405,0,0,0,
,-0.62,-0.753,0.299,68.664,237.121,-149.781,0,0,0,
,-0.625,-0.752,0.292,91.369,263.672,-146.119,0,0,0,
,-0.627,-0.764,0.273,96.618,292.541,-140.931,0,0,0,
,-0.55,-0.857,0.354,-91.614,235.29,-143.25,0,0,0,
,-0.578,-0.748,0.425,-416.748,192.505,-125.916,0,0,0,
,-0.606,-0.634,0.501,-572.449,176.635,-136.048,0,0,0,
,-0.573,-0.656,0.563,-583.497,135.315,-139.71,0,0,0,
,-0.589,-0.728,0.631,-629.517,88.501,-138.855,0,0,0,
,-0.636,-0.676,0.619,-730.713,57.251,-124.756,0,0,0,
,-0.641,-0.639,0.574,-658.509,32.226,-114.747,0,0,0,
,-0.657,-0.652,0.533,-543.274,27.526,-118.042,0,0,0,
,-0.643,-0.643,0.513,-429.383,26.977,-114.258,0,0,0,
,-0.646,-0.668,0.537,-392.456,0.488,-103.882,0,0,0,
,-0.639,-0.638,0.53,-425.66,14.465,-90.271,0,0,0,
,-0.648,-0.562,0.587,-455.14,20.935,-84.534,0,0,0,
,-0.635,-0.557,0.591,-421.326,52.002,-84.961,0,0,0,
,-0.659,-0.581,0.562,-450.44,57.617,-77.942,0,0,0,
,-0.645,-0.372,0.583,-234.742,73.669,-61.219,0,0,0,
,-0.664,-0.5,0.553,190.002,95.764,-69.153,0,0,0,
,-0.637,-0.572,0.596,308.96,90.087,-53.04,0,0,0,
,-0.641,-0.575,0.582,323.12,93.505,-61.585,0,0,0,
,-0.606,-0.588,0.608,328.857,98.816,-78.858,0,0,0,
,-0.619,-0.614,0.629,207.275,79.467,-50.66,0,0,0,
,-0.659,-0.642,0.585,155.09,83.252,-65.613,0,0,0,
,-0.609,-0.642,0.585,108.154,65.002,-85.45,0,0,0,
,-0.634,-0.717,0.529,80.81,85.388,-86.06,0,0,0,
,-0.666,-0.631,0.469,23.864,104.675,-110.657,0,0,0,
,-0.582,-0.605,0.525,66.467,112.732,-123.291,0,0,0,
,-0.618,-0.639,0.566,14.709,108.642,-119.996,0,0,0,
,-0.608,-0.632,0.534,-59.51,123.718,-138.977,0,0,0,
,-0.642,-0.628,0.554,-44.8,116.15,-132.203,0,0,0,
,-0.656,-0.614,0.577,-4.822,95.398,-137.207,0,0,0,
,-0.662,-0.553,0.538,44.982,85.388,-140.32,0,0,0,
,-0.648,-0.583,0.622,17.944,81.054,-156.617,0,0,0,
,-0.637,-0.556,0.713,-161.438,21.423,-133.606,0,0,0,
,-0.586,-0.387,0.708,-293.091,4.943,-145.63,0,0,0,
,-0.647,-0.33,0.587,-192.872,35.888,-109.192,0,0,0,
,-0.591,-0.357,0.523,101.867,28.747,-29.541,0,0,0,
,-0.625,-0.513,0.469,458.801,53.466,-29.48,0,0,0,
,-0.649,-0.733,0.523,328.796,34.973,-44.312,0,0,0,
,-0.601,-0.522,0.685,337.341,0.488,-58.411,0,0,0,
,-0.629,-0.658,0.611,106.079,-44.8,-20.264,0,0,0,
,-0.603,-0.584,0.568,-224.976,-68.97,20.568,0,0,0,
,-0.635,-0.329,0.567,-173.462,-31.922,59.021,0,0,0,
,-0.658,-0.349,0.578,143.005,-0.123,81.298,0,0,0,
,-0.667,-0.491,0.566,428.772,-4.029,94.482,0,0,0,
,-0.664,-0.658,0.524,569.03,-8.484,98.938,0,0,0,
,-0.636,-0.763,0.474,487.793,-23.194,87.585,0,0,0,
,-0.627,-0.784,0.451,311.645,-35.889,63.171,0,0,0,
,-0.634,-0.787,0.435,167.48,-25.94,35.888,0,0,0,
,-0.658,-0.747,0.398,67.26,-21.851,17.15,0,0,0,
,-0.69,-0.713,0.403,57.19,-1.77,3.662,0,0,0,
,-0.686,-0.717,0.412,50.476,23.498,1.525,0,0,0,
,-0.675,-0.722,0.424,4.821,45.532,-1.282,0,0,0,
,-0.664,-0.743,0.423,-74.158,52.795,-9.339,0,0,0,
,-0.66,-0.739,0.466,-197.205,67.199,-13.794,0,0,0,
,-0.635,-0.677,0.46,-237.61,71.777,-23.926,0,0,0,
,-0.631,-0.606,0.502,-196.473,72.631,-31.434,0,0,0,
,-0.606,-0.617,0.553,-179.993,76.538,-39.612,0,0,0,
,-0.576,-0.592,0.632,-203.492,60.302,-32.349,0,0,0,
,-0.572,-0.55,0.7,-223.145,36.987,-17.273,0,0,0,
,-0.581,-0.512,0.697,-235.596,6.164,13.427,0,0,0,
,-0.596,-0.507,0.645,-297.608,-5.86,45.715,0,0,0,
,-0.588,-0.525,0.621,-345.032,-32.593,39.489,0,0,0,
,-0.598,-0.577,0.58,-272.4,-29.053,28.564,0,0,0,
,-0.591,-0.712,0.527,-231.263,24.353,11.23,0,0,0,
,-0.569,-0.608,0.536,-298.279,8.239,12.756,0,0,0,
,-0.585,-0.517,0.54,-293.152,13.122,15.93,0,0,0,
,-0.596,-0.529,0.575,-235.474,19.104,22.888,0,0,0,
,-0.57,-0.628,0.571,-190.247,31.555,13.732,0,0,0,
,-0.59,-0.61,0.471,-142.395,36.682,6.408,0,0,0,
,-0.577,-0.528,0.609,-279.725,-2.625,61.584,0,0,0,
,-0.633,-0.563,0.728,-579.59,-51.148,84.716,0,0,0,
,-0.649,-0.529,0.785,-743.897,-92.041,82.885,0,0,0,
,-0.649,-0.48,0.746,-719.605,-118.348,89.111,0,0,0,
,-0.688,-0.452,0.739,-662.415,-167.969,101.562,0,0,0,
,-0.68,-0.484,0.702,-735.352,-204.773,83.19,0,0,0,
,-0.655,-0.518,0.661,-781.373,-223.023,78.125,0,0,0,
,-0.646,-0.465,0.731,-770.569,-214.539,86.608,0,0,0,
,-0.687,-0.383,0.751,-660.34,-215.76,71.838,0,0,0,
,-0.691,-0.431,0.72,-425.354,-197.205,49.987,0,0,0,
,-0.648,-0.438,0.722,-136.719,-166.321,5.432,0,0,0,
,-0.639,-0.411,0.697,186.645,-119.812,-32.776,0,0,0,
,-0.643,-0.45,0.635,475.036,-42.359,-80.018,0,0,0,
,-0.668,-0.567,0.565,628.173,34.423,-105.469,0,0,0,
,-0.659,-0.566,0.505,635.07,114.746,-109.864,0,0,0,
,-0.655,-0.508,0.472,691.223,175.048,-108.765,0,0,0,
,-0.656,-0.501,0.382,774.109,220.825,-116.089,0,0,0,
,-0.513,-0.528,0.569,655.029,157.653,-71.167,0,0,0,
,-0.661,-0.409,0.722,458.679,100.097,-40.528,0,0,0,
,-0.546,-0.483,0.76,379.455,81.97,-72.022,0,0,0,
,-0.597,-0.544,0.81,213.256,26.184,-39.551,0,0,0,
,-0.652,-0.472,0.763,0.305,20.935,-25.452,0,0,0,
,-0.627,-0.483,0.699,-95.459,19.836,-17.823,0,0,0,
,-0.649,-0.48,0.682,-125.855,14.16,-4.7,0,0,0,
,-0.655,-0.467,0.681,-92.102,9.46,9.765,0,0,0,
,-0.653,-0.457,0.648,-6.104,2.868,18.188,0,0,0,
,-0.652,-0.493,0.628,55.908,1.464,26.916,0,0,0,
,-0.656,-0.547,0.608,98.266,-3.846,36.193,0,0,0,
,-0.634,-0.577,0.59,99.914,-1.343,31.86,0,0,0,
,-0.625,-0.589,0.571,72.753,-2.137,31.738,0,0,0,
,-0.629,-0.61,0.58,16.906,-4.334,10.192,0,0,0,
,-0.62,-0.588,0.594,-31.25,-3.479,-9.522,0,0,0,
,-0.627,-0.568,0.61,-47.608,-4.029,-21.668,0,0,0,
,-0.621,-0.529,0.643,-41.26,-3.479,-21.119,0,0,0,
,-0.624,-0.487,0.666,-27.955,1.77,-15.87,0,0,0,
,-0.62,-0.464,0.681,-20.813,2.38,-8.728,0,0,0,
,-0.619,-0.45,0.679,-11.414,0.488,4.577,0,0,0,
,-0.622,-0.453,0.674,10.192,6.652,16.784,0,0,0,
,-0.618,-0.471,0.669,39.001,17.211,39.123,0,0,0,
,-0.617,-0.484,0.68,79.528,18.981,58.471,0,0,0,
,-0.609,-0.49,0.701,101.928,21.85,78.552,0,0,0,
,-0.595,-0.46,0.743,104.675,10.559,89.904,0,0,0,
,-0.62,-0.481,0.831,45.837,-7.508,102.234,0,0,0,
,-0.604,-0.599,0.992,-158.448,-48.768,93.933,0,0,0,
,-0.58,-0.604,1.162,-428.528,-72.937,82.031,0,0,0,
,-0.58,-0.515,1.421,-469.422,-80.384,28.808,0,0,0,
,-0.562,-0.536,1.788,-284.913,-72.022,-89.6,0,0,0,
,-0.59,-0.629,2.141,-236.512,-108.033,-200.806,0,0,0,
,-0.575,-0.624,2.326,-416.687,-196.106,-318.604,0,0,0,
,-0.647,-0.69,2.396,-1006.47,-328.003,-384.461,0,0,0,
,-0.71,-0.571,2.393,-1923.584,-493.348,-368.775,0,0,0,
,-0.837,-0.219,2.22,-2000,-687.745,-256.714,0,0,0,
,-0.984,0.124,2.01,-2000,-832.032,-78.614,0,0,0,
,-1.102,0.343,1.755,-2000,-888.001,195.434,0,0,0,
,-1.195,0.698,1.387,-2000,-921.387,590.454,0,0,0,
,-1.193,1.196,0.926,-2000,-852.723,1070.251,0,0,0,
,-1.072,1.637,0.841,-2000,-740.601,1662.841,0,0,0,
,-0.686,1.502,0.809,-1983.826,-487.793,1999.694,0,0,0,
,-0.217,1.017,0.636,-1614.441,-206.91,1999.694,0,0,0,
,0.022,0.734,0.622,-869.751,158.142,1999.694,0,0,0,
,0.554,0.623,0.468,418.884,366.699,1999.694,0,0,0,
,1.555,0.494,-0.245,1999.694,225.097,1999.694,0,0,0,
,3.206,-0.459,-0.703,1999.694,-229.615,1999.694,0,0,0,
,3.999,-0.58,-1.318,1999.694,-1106.812,1999.694,0,0,0,
,3.999,-2.206,-2.928,1999.694,-1999.939,1999.694,0,0,0,
,1.478,-3.099,-3.017,1999.694,-1433.289,1003.357,0,0,0,
,2.322,-1.57,-3.226,-1971.68,-521.302,-777.649,0,0,0,
,1.984,-1.574,-2.896,-2000,644.47,-1685.73,0,0,0,
,2.166,-1.638,-2.495,-2000,1167.907,-2000,0,0,0,
,1.644,-0.795,-2.097,-2000,1213.256,-2000,0,0,0,
,0.737,-0.382,-1.542,-932.007,1408.752,-2000,0,0,0,
,0.334,-0.346,-0.976,-147.156,1706.726,-2000,0,0,0,
,0.259,-0.488,-0.769,-331.91,1857.116,-2000,0,0,0,
,0.051,-0.148,-0.504,-471.375,1889.16,-2000,0,0,0,
,0.014,0.003,0.119,-309.937,1913.208,-2000,0,0,0,
,-0.082,0.127,0.547,-10.621,1872.558,-2000,0,0,0,
,-0.253,0.23,1.023,477.722,1800.354,-1997.742,0,0,0,
,-0.299,0.369,1.653,831.909,1649.109,-1873.597,0,0,0,
,-0.463,0.501,1.763,1111.938,1394.775,-1698.243,0,0,0,
,-0.607,0.44,1.858,1003.662,1063.476,-1468.995,0,0,0,
,-0.749,0.321,1.914,592.712,680.175,-1186.768,0,0,0,
,-0.751,0.36,2.169,68.908,313.964,-870.789,0,0,0,
,-0.883,0.305,2.342,-84.778,19.165,-554.2,0,0,0,
,-0.921,0.313,2.312,379.089,-240.296,-254.883,0,0,0,
,-0.891,0.098,2.292,1336.914,-424.744,-44.8,0,0,0,
,-0.866,-0.25,2.033,1999.694,-588.868,121.521,0,0,0,
,-0.819,-0.568,1.745,1999.694,-705.872,219.604,0,0,0,
,-0.747,-0.726,1.389,1999.694,-797.486,278.198,0,0,0,
,-0.648,-0.902,1.118,1999.694,-843.934,244.873,0,0,0,
,-0.537,-1.096,0.915,1927.856,-831.055,171.264,0,0,0,
,-0.495,-0.942,1.002,1293.701,-622.62,50.048,0,0,0,
,-0.384,-0.662,1.13,637.756,-120.362,-164.368,0,0,0,
,-0.29,-0.677,1.071,54.321,272.033,-393.433,0,0,0,
,-0.414,-0.564,0.769,-571.717,483.703,-468.995,0,0,0,
,-0.618,-0.617,0.546,-834.717,520.446,-437.134,0,0,0,
,-0.62,-0.701,0.468,-968.75,475.952,-467.408,0,0,0,
,-0.684,-0.519,0.503,-825.318,363.769,-469.117,0,0,0,
,-0.642,-0.476,0.566,-424.439,291.687,-473.999,0,0,0,
,-0.637,-0.502,0.581,-28.443,211.547,-402.039,0,0,0,
,-0.651,-0.526,0.547,230.59,152.954,-339.722,0,0,0,
,-0.64,-0.568,0.421,409.973,84.655,-270.142,0,0,0,
,-0.628,-0.58,0.394,495.666,12.023,-218.689,0,0,0,
,-0.575,-0.504,0.468,539.856,-54.993,-190.064,0,0,0,
,-0.618,-0.468,0.524,635.009,-85.206,-149.231,0,0,0,
,-0.584,-0.566,0.531,655.151,-102.906,-119.019,0,0,0,
,-0.618,-0.698,0.456,576.965,-64.27,-90.821,0,0,0,
,-0.63,-0.622,0.508,440.307,-0.184,-81.543,0,0,0,
,-0.623,-0.477,0.564,437.255,71.472,-62.867,0,0,0,
,-0.645,-0.575,0.558,436.218,119.14,-69.214,0,0,0,
,-0.629,-0.657,0.521,340.942,157.165,-34.607,0,0,0,
,-0.611,-0.632,0.583,187.866,139.648,1.403,0,0,0,
,-0.679,-0.628,0.52,176.941,174.682,-0.061,0,0,0,
,-0.656,-0.666,0.514,204.589,166.931,-1.587,0,0,0,
,-0.713,-0.672,0.44,299.194,166.809,9.216,0,0,0,
,-0.695,-0.718,0.403,373.169,146.728,13.671,0,0,0,
,-0.693,-0.76,0.357,375.488,131.469,7.446,0,0,0,
,-0.695,-0.717,0.36,279.358,107.666,11.962,0,0,0,
,-0.708,-0.672,0.303,222.595,92.651,-9.522,0,0,0,
,-0.692,-0.721,0.345,133.239,89.782,-28.199,0,0,0,
,-0.685,-0.684,0.413,-1.404,90.087,-61.707,0,0,0,
,-0.678,-0.64,0.449,-81.543,87.829,-69.153,0,0,0,
,-0.7,-0.635,0.515,-168.885,85.144,-73.548,0,0,0,
,-0.691,-0.615,0.558,-223.45,86.303,-78.98,0,0,0,
,-0.71,-0.606,0.527,-218.995,89.355,-87.342,0,0,0,
,-0.733,-0.561,0.484,-161.56,119.018,-102.539,0,0,0,
,-0.708,-0.62,0.469,-14.161,145.752,-110.657,0,0,0,
,-0.704,-0.575,0.535,87.28,149.231,-126.404,0,0,0,
,-0.723,-0.636,0.541,111.45,164.245,-151.123,0,0,0,
,-0.697,-0.598,0.545,-17.456,193.298,-117.249,0,0,0,
,-0.713,-0.579,0.563,-98.206,212.463,-126.831,0,0,0,
,-0.711,-0.635,0.555,-165.284,231.628,-126.099,0,0,0,
,-0.7,-0.548,0.529,-199.952,242.859,-131.409,0,0,0,
,-0.683,-0.572,0.515,-141.297,239.38,-139.527,0,0,0,
,-0.695,-0.599,0.499,-89.295,237.793,-139.283,0,0,0,
,-0.679,-0.669,0.494,-34.607,213.867,-155.396,0,0,0,
,-0.673,-0.653,0.517,21.423,171.936,-150.94,0,0,0,
,-0.63,-0.626,0.484,200.195,97.839,-125.123,0,0,0,
,-0.625,-0.661,0.414,169.677,72.021,-103.516,0,0,0,
,-0.61,-0.651,0.407,122.009,68.664,-89.905,0,0,0,
,-0.588,-0.627,0.385,112.548,42.663,-70.252,0,0,0,
,-0.596,-0.612,0.366,143.066,41.32,-42.542,0,0,0,
,-0.591,-0.617,0.375,195.739,44.799,-15.992,0,0,0,
,-0.592,-0.636,0.427,249.206,33.264,13.855,0,0,0,
,-0.601,-0.597,0.465,350.83,30.029,39.306,0,0,0,
,-0.635,-0.643,0.416,402.893,16.845,48.4,0,0,0,
,-0.635,-0.638,0.43,401.062,27.893,61.828,0,0,0,
,-0.621,-0.599,0.443,412.353,37.597,63.598,0,0,0,
,-0.649,-0.577,0.491,451.11,66.284,62.744,0,0,0,
,-0.642,-0.625,0.522,440.673,73.425,45.349,0,0,0,
,-0.643,-0.639,0.567,352.356,95.214,19.653,0,0,0,
,-0.608,-0.622,0.606,265.503,105.468,13.549,0,0,0,
,-0.642,-0.574,0.62,249.45,133.117,12.268,0,0,0,
,-0.634,-0.616,0.654,283.63,171.142,15.136,0,0,0,
,-0.628,-0.674,0.609,224.06,180.664,23.437,0,0,0,
,-0.627,-0.693,0.509,118.835,183.532,35.827,0,0,0,
,-0.664,-0.702,0.415,41.442,220.153,21.423,0,0,0,
,-0.644,-0.752,0.384,-0.672,249.878,6.774,0,0,0,
,-0.638,-0.782,0.409,-11.658,258.85,-19.165,0,0,0,
,-0.641,-0.748,0.431,-16.602,255.615,-32.898,0,0,0,
,-0.659,-0.735,0.469,-1.343,275.512,-36.255,0,0,0,
,-0.64,-0.736,0.483,12.023,300.72,-35.462,0,0,0,
,-0.648,-0.743,0.478,23.01,322.204,-22.095,0,0,0,
,-0.658,-0.688,0.41,57.861,380.493,-13.672,0,0,0,
,-0.592,-0.772,0.397,91.247,442.566,-14.405,0,0,0,
,-0.497,-0.828,0.392,75.134,467.346,-9.156,0,0,0,
,-0.437,-0.913,0.303,73.974,432.556,-8.728,0,0,0,
,-0.533,-0.517,0.485,472.229,367.797,183.96,0,0,0,
,-0.557,-0.497,0.495,818.176,384.277,206.787,0,0,0,
,-0.555,-0.582,0.494,1078.735,351.684,222.473,0,0,0,
,-0.636,-0.73,0.47,1288.574,311.34,242.553,0,0,0,
,-0.677,-0.767,0.503,1393.31,322.204,252.685,0,0,0,
,-0.531,-0.763,0.235,1811.157,268.371,135.315,0,0,0,
,-0.553,-0.967,0.188,1894.47,212.402,73.669,0,0,0,
,-0.529,-1.126,0.195,1893.982,178.161,-26.734,0,0,0,
,-0.495,-1.163,0.151,1797.79,134.887,-55.237,0,0,0,
,-0.466,-1.096,0.069,1653.259,130.371,-84.168,0,0,0,
,-0.413,-1.137,-0.147,1472.229,43.884,-144.227,0,0,0,
,-0.354,-1.218,-0.235,1124.572,26.306,-169.556,0,0,0,
,-0.282,-1.174,-0.357,707.214,1.892,-216.126,0,0,0,
,-0.259,-1.109,-0.424,413.391,-13.55,-245.789,0,0,0,
,-0.252,-0.997,-0.46,226.074,-9.705,-258.851,0,0,0,
,-0.199,-1,-0.424,101.013,-14.161,-263.062,0,0,0,
,-0.223,-0.994,-0.365,74.523,-18.494,-269.837,0,0,0,
,-0.206,-0.976,-0.297,180.175,-8.301,-261.353,0,0,0,
,-0.163,-0.717,-0.416,504.821,-8.728,-218.506,0,0,0,
,-0.169,-0.725,-0.427,732.055,-17.212,-121.216,0,0,0,
,-0.304,-0.872,-0.49,550.048,-9.827,-51.27,0,0,0,
,-0.29,-0.899,-0.407,178.1,-6.531,-29.236,0,0,0,
,-0.412,-0.915,-0.358,-232.483,-15.442,26.977,0,0,0,
,-0.422,-0.879,-0.325,-452.027,-16.236,42.907,0,0,0,
,-0.439,-0.92,-0.239,-496.094,-14.405,57.922,0,0,0,
,-0.421,-0.93,-0.147,-441.59,-10.621,31.494,0,0,0,
,-0.429,-0.98,-0.086,-328.431,-11.963,13.977,0,0,0,
,-0.427,-1.045,-0.088,-309.388,-18.128,-8.667,0,0,0,
,-0.418,-1.061,-0.088,-377.076,-47.425,-29.114,0,0,0,
,-0.424,-0.988,-0.135,-394.043,-105.652,-21.79,0,0,0,
,-0.414,-0.969,-0.153,-405.518,-114.808,-4.761,0,0,0,
,-0.392,-0.955,-0.148,-437.439,-116.7,-7.325,0,0,0,
,-0.421,-0.949,-0.145,-468.873,-115.906,-0.916,0,0,0,
,-0.455,-0.9,-0.17,-437.928,-110.901,-1.343,0,0,0,
,-0.419,-0.94,-0.071,-292.054,-110.169,1.403,0,0,0,
,-0.409,-0.952,-0.047,-291.871,-109.559,-7.386,0,0,0,
,-0.426,-0.97,-0.031,-338.929,-118.653,-9.461,0,0,0,
,-0.462,-0.931,-0.017,-406.067,-120.789,-5.555,0,0,0,
,-0.502,-0.882,-0.045,-412.049,-117.554,10.925,0,0,0,
,-0.463,-0.871,0.063,-321.045,-112.671,-22.156,0,0,0,
,-0.509,-0.941,0.073,-245.911,-109.559,-5.433,0,0,0,
,-0.455,-0.936,0.06,-289.307,-116.333,-11.475,0,0,0,
,-0.456,-0.938,0.063,-304.139,-112,-8.24,0,0,0,
,-0.446,-0.956,0.094,-338.074,-126.465,-6.958,0,0,0,
,-0.461,-0.93,0.099,-346.131,-131.775,-9.583,0,0,0,
,-0.452,-0.957,0.11,-176.27,-159.668,-33.265,0,0,0,
,-0.482,-0.982,0.081,-152.649,-176.392,-41.321,0,0,0,
,-0.501,-0.934,0.07,-116.517,-190.43,-34.607,0,0,0,
,-0.499,-0.885,0.063,-62.623,-198.365,-24.109,0,0,0,
,-0.489,-0.85,0.01,-2.991,-203.248,-24.17,0,0,0,
,-0.474,-0.798,-0.038,116.455,-180.176,-29.114,0,0,0,
,-0.47,-0.891,-0.079,152.465,-162.72,-31.8,0,0,0,
,-0.524,-0.951,-0.062,22.705,-156.311,-26.001,0,0,0,
,-0.536,-0.917,-0.036,-105.408,-131.348,-28.748,0,0,0,
,-0.579,-0.93,0.007,-207.825,-119.812,-16.419,0,0,0,
,-0.536,-0.941,0.098,-306.214,-112,-24.72,0,0,0,
,-0.525,-1.065,0.26,-411.011,-147.034,-10.01,0,0,0,
,-0.488,-1.111,0.462,-538.269,-202.393,43.029,0,0,0,
,-0.408,-1.312,0.539,-845.459,-309.632,104.431,0,0,0,
,-0.435,-1.31,0.487,-1461.182,-377.137,107.91,0,0,0,
,-0.407,-1.511,0.257,-1999.451,-401.856,4.882,0,0,0,
,-0.233,-1.242,-0.039,-2000,-450.623,-91.736,0,0,0,
,-0.275,-0.997,-0.039,-2000,-611.451,-183.838,0,0,0,
,-0.576,-0.821,0.424,-2000,-809.327,-137.207,0,0,0,
,-0.828,-0.593,0.831,-2000,-842.53,-158.509,0,0,0,
,-0.969,-0.46,0.975,-2000,-829.956,-184.205,0,0,0,
,-1.071,-0.213,0.937,-2000,-764.527,-225.525,0,0,0,
,-1.123,-0.113,0.783,-2000,-664.185,-211.914,0,0,0,
,-1.095,0.045,0.588,-2000,-556.214,-205.018,0,0,0,
,-1.111,0.08,0.643,-1676.941,-455.811,-268.128,0,0,0,
,-1.003,-0.252,0.67,-1212.708,-219.971,-324.83,0,0,0,
,-0.924,-0.357,0.511,-841.675,-28.931,-344.91,0,0,0,
,-0.85,-0.319,0.408,-330.079,147.644,-337.525,0,0,0,
,-0.766,-0.217,0.362,209.594,330.749,-293.946,0,0,0,
,-0.662,-0.119,0.281,604.614,549.987,-235.169,0,0,0,
,-0.522,-0.079,0.188,838.989,737.854,-169.434,0,0,0,
,-0.32,-0.153,0.217,918.762,849.304,-151.734,0,0,0,
,-0.102,-0.376,0.289,904.052,810.119,-116.456,0,0,0,
,-0.06,-0.694,0.473,771.789,654.907,-93.689,0,0,0,
,-0.035,-0.911,0.694,479.065,514.77,-49.317,0,0,0,
,0.06,-0.714,0.715,160.095,422.241,-5.494,0,0,0,
,0.289,-0.374,1.444,-3.235,170.471,-54.078,0,0,0,
,-0.167,-0.597,1.022,124.511,53.894,-47.73,0,0,0,
,-0.311,-0.671,1.088,-233.277,18.859,8.972,0,0,0,
,-0.174,-0.451,1.155,-752.747,-29.602,34.912,0,0,0,
,-0.299,-0.274,1.043,-985.901,-193.543,111.633,0,0,0,
,-0.459,0,1.027,-905.823,-190.613,193.664,0,0,0,
,-0.475,0.072,0.964,-647.889,-122.315,229.98,0,0,0,
,-0.439,0.032,0.934,-362.915,-100.159,257.324,0,0,0,
,-0.501,-0.035,0.942,-117.737,-78.003,280.883,0,0,0,
,-0.512,-0.163,0.897,45.471,8.544,275.817,0,0,0,
,-0.521,-0.309,0.81,111.206,62.194,249.572,0,0,0,
,-0.502,-0.343,0.785,100.097,108.337,214.66,0,0,0,
,-0.51,-0.37,0.757,56.152,156.494,173.584,0,0,0,
,-0.489,-0.416,0.781,21.789,203.613,104.919,0,0,0,
,-0.462,-0.449,0.815,26.794,241.027,54.443,0,0,0,
,-0.448,-0.462,0.834,24.841,252.258,-0.794,0,0,0,
,-0.441,-0.45,0.845,-37.72,244.079,-50.11,0,0,0,
,-0.504,-0.523,0.822,-139.1,220.276,-58.716,0,0,0,
,-0.488,-0.394,0.822,-218.14,226.135,-51.026,0,0,0,
,-0.476,-0.328,0.85,-214.112,210.449,-58.777,0,0,0,
,-0.502,-0.324,0.854,-151.795,201.294,-68.97,0,0,0,
,-0.514,-0.244,0.888,3.967,204.162,-84.534,0,0,0,
,-0.484,-0.36,0.872,93.444,222.29,-106.019,0,0,0,
,-0.453,-0.426,0.85,62.316,206.97,-134.461,0,0,0,
,-0.455,-0.43,0.849,-7.508,184.753,-168.946,0,0,0,
,-0.386,-0.391,0.828,-68.116,149.719,-190.003,0,0,0,
,-0.475,-0.33,0.872,-127.564,110.351,-216.736,0,0,0,
,-0.417,-0.359,0.87,-761.597,52.917,-334.107,0,0,0,
,-0.363,-0.176,0.909,-890.564,8.911,-330.567,0,0,0,
,-0.376,-0.016,0.904,-847.962,-54.505,-331.055,0,0,0,
,-0.433,0.096,0.918,-785.828,-41.626,-304.2,0,0,0,
,-0.395,0.122,0.93,-727.539,-25.696,-275.452,0,0,0,
,-0.428,0.2,0.938,-615.174,-48.829,-243.47,0,0,0,
,-0.432,0.232,0.975,-436.402,11.535,-218.995,0,0,0,
,-0.411,0.317,0.977,-170.838,33.203,-182.068,0,0,0,
,-0.428,0.266,0.942,132.446,65.124,-180.359,0,0,0,
,-0.403,0.128,0.944,365.417,75.439,-152.466,0,0,0,
,-0.37,0.07,0.895,405.395,91.735,-158.143,0,0,0,
,-0.332,-0.038,0.889,344.848,48.828,-153.809,0,0,0,
,-0.322,-0.09,0.884,202.758,5.371,-146.302,0,0,0,
,-0.365,-0.14,0.898,21.24,-75.562,-124.512,0,0,0,
,-0.327,0.104,0.883,72.876,-56.153,-133.545,0,0,0,
,-0.347,0.071,0.866,172.79,-32.776,-168.763,0,0,0,
,-0.336,0.079,0.931,292.236,-68.177,-129.822,0,0,0,
,-0.455,-0.112,0.951,279.968,-44.983,-150.757,0,0,0,
,-0.424,0.03,0.834,313.232,-7.325,-134.095,0,0,0,
,-0.495,-0.037,0.781,358.154,25.024,-142.518,0,0,0,
,-0.433,-0.049,0.882,358.215,66.955,-147.889,0,0,0,
,-0.541,-0.077,0.895,332.336,47.607,-133.362,0,0,0,
,-0.5,0.019,0.822,313.842,135.498,-144.898,0,0,0,
,-0.453,0.001,0.842,328.979,142.7,-147.95,0,0,0,
,-0.482,-0.034,0.889,304.138,161.255,-141.541,0,0,0,
,-0.43,0.003,0.929,268.921,204.528,-144.104,0,0,0,
,-0.436,-0.08,0.971,256.713,167.48,-127.015,0,0,0,
,-0.467,-0.073,0.945,228.759,218.139,-105.103,0,0,0,
,-0.401,-0.115,0.954,145.63,213.745,-96.497,0,0,0,
,-0.33,-0.07,0.986,-410.523,171.692,-71.473,0,0,0,
,-0.309,-0.015,1.067,-462.891,139.892,-45.777,0,0,0,
,-0.245,-0.023,1.124,-479.737,120.849,-16.175,0,0,0,
,-0.198,0.047,1.145,-482.422,74.157,26.733,0,0,0,
,-0.188,0.048,1.118,-419.678,44.555,59.204,0,0,0,
,-0.099,-0.079,1.016,-404.725,-10.132,116.394,0,0,0,
,-0.097,-0.092,0.998,-484.375,-19.227,114.196,0,0,0,
,-0.111,-0.042,0.991,-501.831,-15.931,106.628,0,0,0,
,-0.104,-0.006,0.976,-474.61,-13.611,93.627,0,0,0,
,-0.128,0.005,1.015,-396.485,-16.297,84.777,0,0,0,
,-0.142,0.009,1.003,-335.694,-9.583,68.237,0,0,0,
,-0.172,-0.011,0.98,-322.998,-12.635,48.461,0,0,0,
,-0.19,-0.021,0.966,-356.995,-22.034,26.367,0,0,0,
,-0.234,0.012,0.966,-418.763,-31.434,7.69,0,0,0,
,-0.25,0.043,0.98,-446.961,-37.293,-8.728,0,0,0,
,-0.269,-0.005,0.971,-558.777,-56.824,-30.823,0,0,0,
,-0.29,-0.049,0.996,-673.401,-63.843,-54.871,0,0,0,
,-0.254,0.061,1.024,-772.706,-58.228,-67.383,0,0,0,
,-0.258,0.159,0.984,-796.692,-49.805,-91.98,0,0,0,
,-0.304,0.215,0.925,-739.197,-54.566,-100.342,0,0,0,
,-0.317,0.279,0.884,-690.674,-22.828,-115.296,0,0,0,
,-0.348,0.322,0.839,-642.029,-33.448,-99.305,0,0,0,
,-0.345,0.32,0.896,-583.741,-51.575,-138.062,0,0,0,
,-0.403,0.397,0.882,-550.599,-47.791,-129.578,0,0,0,
,-0.406,0.449,0.852,-485.779,-32.532,-130.494,0,0,0,
,-0.409,0.486,0.852,-384.339,-39.673,-116.639,0,0,0,
,-0.428,0.495,0.826,-277.283,-26.307,-47.852,0,0,0,
,-0.434,0.45,0.879,-267.823,-16.602,-87.037,0,0,0,
,-0.443,0.419,0.887,-266.541,32.165,-82.764,0,0,0,
,-0.434,0.429,0.864,-282.593,129.882,-85.083,0,0,0,
,-0.336,0.624,0.751,-25.391,108.764,-52.002,0,0,0,
,-0.368,0.617,0.741,164.917,97.717,-66.651,0,0,0,
,-0.344,0.672,0.807,400.085,114.38,-69.642,0,0,0,
,-0.378,0.535,0.791,573.73,151.367,-97.413,0,0,0,
,-0.332,0.475,0.867,645.691,170.349,-101.136,0,0,0,
,-0.316,0.342,0.775,553.833,213.317,-113.343,0,0,0,
,-0.25,0.406,0.732,499.023,177.063,-127.625,0,0,0,
,-0.254,0.199,0.677,392.212,62.683,-134.034,0,0,0,
,-0.24,0.362,0.769,335.998,-57.801,-121.827,0,0,0,
,-0.269,0.326,0.868,256.469,-107.178,-62.867,0,0,0,
,-0.305,0.319,0.859,145.324,-151.368,-63.843,0,0,0,
,-0.314,0.348,0.953,51.391,-203.125,-61.036,0,0,0,
,-0.385,0.399,0.969,10.437,-185.303,-68.543,0,0,0,
,-0.367,0.506,0.978,83.923,-129.395,-81.482,0,0,0,
,-0.385,0.512,0.939,243.225,-91.98,-92.347,0,0,0,
,-0.379,0.528,0.875,447.265,-50.049,-93.14,0,0,0,
,-0.358,0.375,0.794,610.534,-40.833,-105.225,0,0,0,
,-0.355,0.276,0.789,635.498,-78.37,-107.544,0,0,0,
,-0.378,0.194,0.819,578.552,-91.37,-112.427,0,0,0,
,-0.392,0.203,0.827,535.888,-81.91,-107.666,0,0,0,
,-0.388,0.22,0.782,509.826,-52.247,-113.465,0,0,0,
,-0.396,0.22,0.869,509.46,-58.472,-119.141,0,0,0,
,-0.387,0.238,0.862,550.109,-28.26,-117.31,0,0,0,
,-0.431,0.243,0.892,640.075,-55.298,-118.348,0,0,0,
,-0.442,0.175,0.917,700.012,17.211,-107.544,0,0,0,
,-0.41,0.14,0.907,716.186,36.377,-66.224,0,0,0,
,-0.404,0.128,0.889,705.444,20.507,-30.762,0,0,0,
,-0.402,0.055,0.874,653.137,24.169,-6.043,0,0,0,
,-0.393,-0.046,0.898,554.565,35.217,-4.639,0,0,0,
,-0.329,-0.133,0.915,337.89,26.123,34.545,0,0,0,
,-0.303,-0.109,0.971,155.639,-44.617,71.044,0,0,0,
,-0.317,-0.062,0.963,14.587,-67.994,106.018,0,0,0,
,-0.3,-0.021,0.92,-116.394,-65.674,134.277,0,0,0,
,-0.282,0.035,0.915,-233.46,-105.347,161.682,0,0,0,
,-0.287,0.052,0.92,-288.514,-155.945,197.143,0,0,0,
,-0.289,0.044,0.964,-346.009,-146.241,223.266,0,0,0,
,-0.252,0.048,0.976,-401.795,-140.992,246.826,0,0,0,
,-0.236,0.078,0.979,-436.524,-150.513,267.089,0,0,0,
,-0.255,0.12,0.984,-428.772,-173.035,286.193,0,0,0,
,-0.28,0.155,0.998,-382.874,-173.401,313.537,0,0,0,
,-0.236,0.118,1.019,-319.825,-140.015,310.913,0,0,0,
,-0.206,0.06,1.065,-307.312,-168.702,300.842,0,0,0,
,-0.256,0.051,1.071,-337.098,-185.12,290.344,0,0,0,
,-0.266,0.046,1.067,-369.873,-145.935,269.226,0,0,0,
,-0.266,0.077,1.029,-346.68,-114.136,257.69,0,0,0,
,-0.269,0.033,1.061,-334.229,-119.019,213.867,0,0,0,
,-0.335,0.091,1.175,-290.406,-141.358,198.364,0,0,0,
,-0.389,0.244,1.106,-166.016,1.22,200.561,0,0,0,
,-0.333,0.276,0.973,110.962,88.256,159.79,0,0,0,
,-0.316,0.028,0.925,253.662,91.796,115.478,0,0,0,
,-0.313,-0.03,0.903,233.398,22.399,106.506,0,0,0,
,-0.381,-0.16,0.905,125.793,-68.116,67.199,0,0,0,
,-0.431,-0.097,0.956,11.962,-92.164,79.589,0,0,0,
,-0.452,-0.047,0.964,-95.276,-78.003,80.688,0,0,0,
,-0.43,0.053,0.887,-121.705,-136.17,132.385,0,0,0,
,-0.482,0.169,0.894,-28.748,-231.507,153.503,0,0,0,
,-0.525,0.117,0.92,106.689,-229.31,160.888,0,0,0,
,-0.53,0.039,0.897,180.969,-205.689,161.071,0,0,0,
,-0.493,-0.01,0.858,195.312,-190.735,157.104,0,0,0,
,-0.488,-0.03,0.832,136.84,-206.665,169.067,0,0,0,
,-0.52,0.005,0.815,88.684,-236.878,162.17,0,0,0,
,-0.547,0.023,0.805,61.157,-229.004,147.522,0,0,0,
,-0.588,0.074,0.791,73.669,-214.234,128.234,0,0,0,
,-0.605,0.052,0.825,111.023,-165.528,88.623,0,0,0,
,-0.59,0.05,0.854,136.108,-113.16,34.484,0,0,0,
,-0.578,0.061,0.873,152.465,-55.909,-31.495,0,0,0,
,-0.561,0.051,0.872,201.66,-16.419,-100.098,0,0,0,
,-0.556,0.09,0.883,238.647,14.221,-164.612,0,0,0,
,-0.559,0.062,0.86,306.64,36.743,-214.722,0,0,0,
,-0.556,0.124,0.862,380.615,48.156,-269.227,0,0,0,
,-0.559,0.079,0.815,477.722,55.603,-279.786,0,0,0,
,-0.529,0.054,0.804,509.094,52.185,-267.579,0,0,0,
,-0.553,0.034,0.819,502.136,37.841,-253.296,0,0,0,
,-0.529,0.013,0.856,493.652,30.944,-219.422,0,0,0,
,-0.53,0.011,0.88,482.116,11.535,-184.388,0,0,0,
,-0.539,0.023,0.855,473.755,-3.113,-153.199,0,0,0,
,-0.533,-0.002,0.864,483.337,-28.382,-111.573,0,0,0,
,-0.552,-0.044,0.865,462.829,-51.575,-98.328,0,0,0,
,-0.569,0.063,0.858,499.206,-52.063,-80.872,0,0,0,
,-0.563,0.069,0.836,659.851,-42.908,-64.026,0,0,0,
,-0.588,-0.028,0.797,770.019,-57.129,-71.167,0,0,0,
,-0.63,-0.099,0.766,836.67,-29.969,-73.487,0,0,0,
,-0.658,-0.178,0.746,833.374,21.85,-77.332,0,0,0,
,-0.654,-0.143,0.726,826.843,74.157,-88.929,0,0,0,
,-0.661,-0.174,0.718,840.881,118.957,-75.806,0,0,0,
,-0.661,-0.182,0.723,885.559,162.475,-62.317,0,0,0,
,-0.655,-0.035,0.729,1044.983,212.219,-60.73,0,0,0,
,-0.656,-0.077,0.742,1237.854,272.644,-40.711,0,0,0,
,-0.642,-0.213,0.734,1361.45,336.425,1.403,0,0,0,
,-0.611,-0.359,0.721,1331.115,412.048,35.339,0,0,0,
,-0.546,-0.457,0.718,1268.493,442.871,16.052,0,0,0,
,-0.459,-0.739,0.679,1119.323,462.524,12.329,0,0,0,
,-0.305,-0.972,0.681,875.61,367.248,44.372,0,0,0,
,-0.224,-1.055,0.677,473.571,196.045,81.42,0,0,0,
,-0.279,-1.173,0.765,-29.602,50.293,101.562,0,0,0,
,-0.239,-1,0.741,-465.516,-20.874,89.904,0,0,0,
,-0.241,-0.613,0.782,-699.524,-234.436,60.363,0,0,0,
,-0.255,-0.478,0.832,-574.707,-326.172,57.434,0,0,0,
,-0.309,-0.554,0.825,-434.876,-402.039,74.523,0,0,0,
,-0.354,-0.615,0.802,-455.384,-393.677,80.932,0,0,0,
,-0.313,-0.633,0.741,-558.106,-393.982,99.487,0,0,0,
,-0.355,-0.615,0.701,-700.013,-442.139,125.671,0,0,0,
,-0.424,-0.578,0.664,-811.158,-410.401,138,0,0,0,
,-0.434,-0.549,0.633,-914.917,-355.896,162.353,0,0,0,
,-0.443,-0.575,0.647,-1034.424,-318.177,184.814,0,0,0,
,-0.551,-0.338,0.72,-1351.075,-254.334,260.437,0,0,0,
,-0.554,-0.215,0.7,-1328.98,-140.625,283.569,0,0,0,
,-0.558,-0.184,0.674,-1287.232,-90.394,317.627,0,0,0,
,-0.583,-0.129,0.705,-1243.042,-57.312,312.378,0,0,0,
,-0.642,-0.067,0.789,-1130.005,-34.913,286.132,0,0,0,
,-0.7,-0.172,0.827,-1078.431,47.241,239.807,0,0,0,
,-0.684,-0.028,0.876,-1036.438,91.308,157.898,0,0,0,
,-0.703,0.026,0.924,-911.744,143.615,60.241,0,0,0,
,-0.658,0.102,0.935,-774.781,210.449,-25.147,0,0,0,
,-0.626,0.156,0.955,-598.267,255.554,-108.46,0,0,0,
,-0.597,0.135,0.948,-433.899,286.865,-209.046,0,0,0,
,-0.567,0.116,0.932,-278.443,328.186,-280.396,0,0,0,
,-0.483,0.149,0.923,-135.193,343.444,-338.013,0,0,0,
,-0.436,0.071,0.906,-20.264,319.275,-382.569,0,0,0,
,-0.39,0.044,0.966,31.189,266.662,-421.631,0,0,0,
,-0.367,-0.065,0.919,4.76,223.449,-443.543,0,0,0,
,-0.363,0.042,0.961,62.011,170.959,-528.26,0,0,0,
,-0.325,0.058,0.914,78.857,173.584,-548.035,0,0,0,
,-0.38,0.142,0.906,90.881,162.17,-546.631,0,0,0,
,-0.381,0.177,0.897,151.245,198.547,-520.63,0,0,0,
,-0.363,0.15,0.913,199.218,161.865,-470.887,0,0,0,
,-0.404,0.13,0.934,215.637,108.398,-401.246,0,0,0,
,-0.436,0.115,0.964,221.13,87.707,-346.802,0,0,0,
,-0.412,0.085,0.964,221.801,52.917,-290.467,0,0,0,
,-0.4,0.076,0.973,191.894,22.399,-251.831,0,0,0,
,-0.375,0.12,0.978,158.081,-28.931,-233.338,0,0,0,
,-0.386,0.114,0.948,160.827,-70.862,-201.966,0,0,0,
,-0.4,0.135,0.945,167.785,-115.601,-168.03,0,0,0,
,-0.415,0.131,0.922,195.373,-129.517,-151.246,0,0,0,
,-0.441,0.122,0.935,204.773,-158.753,-136.17,0,0,0,
,-0.465,0.144,0.915,237.609,-160.645,-125.489,0,0,0,
,-0.438,0.158,0.923,283.264,-150.391,-108.765,0,0,0,
,-0.453,0.169,0.895,308.227,-158.997,-89.417,0,0,0,
,-0.466,0.149,0.885,337.707,-172.913,-85.938,0,0,0,
,-0.468,0.068,0.88,338.928,-175.538,-79.773,0,0,0,
,-0.441,0.001,0.866,294.86,-185.303,-32.532,0,0,0,
,-0.439,-0.023,0.885,236.938,-223.023,-1.954,0,0,0,
,-0.445,-0.075,0.911,157.226,-252.076,0.305,0,0,0,
,-0.495,-0.091,0.942,60.974,-234.436,6.774,0,0,0,
,-0.438,-0.032,0.924,-32.898,-226.563,37.353,0,0,0,
,-0.486,0.018,0.958,-70.191,-229.981,48.278,0,0,0,
,-0.484,0.009,0.954,-80.445,-212.525,42.663,0,0,0,
,-0.507,0.028,0.969,-110.596,-190.003,36.865,0,0,0,
,-0.419,0.095,0.946,-88.074,-161.622,26.611,0,0,0,
,-0.488,0.1,0.971,-31.189,-222.962,47.607,0,0,0,
,-0.494,0.062,0.93,9.277,-191.346,60.546,0,0,0,
,-0.476,0.07,0.912,67.565,-221.314,71.838,0,0,0,
,-0.488,0.011,0.844,83.374,-219.727,76.171,0,0,0,
,-0.498,0.025,0.806,114.685,-227.723,72.509,0,0,0,
,-0.489,0.011,0.766,144.958,-215.394,71.289,0,0,0,
,-0.496,-0.001,0.743,154.419,-214.356,76.782,0,0,0,
,-0.527,0.004,0.713,167.724,-208.802,91.857,0,0,0,
,-0.553,-0.04,0.698,171.936,-175.66,101.44,0,0,0,
,-0.611,-0.11,0.69,150.39,-146.424,127.99,0,0,0,
,-0.72,-0.153,0.727,92.163,-65.735,131.103,0,0,0,
,-0.584,-0.102,0.694,38.208,95.336,97.168,0,0,0,
,-0.488,-0.087,0.683,7.568,99.426,100.952,0,0,0,
,-0.53,-0.054,0.736,2.014,88.806,114.196,0,0,0,
,-0.517,-0.127,0.814,-32.471,213.256,139.038,0,0,0,
,-0.545,-0.172,0.877,-101.014,186.889,154.358,0,0,0,
,-0.545,-0.222,0.919,-215.149,207.092,161.255,0,0,0,
,-0.526,-0.206,0.926,-317.261,182.678,156.372,0,0,0,
,-0.54,-0.167,0.91,-393.982,160.034,157.104,0,0,0,
,-0.533,-0.13,0.907,-447.083,149.658,159.546,0,0,0,
,-0.533,-0.082,0.882,-485.291,127.685,176.88,0,0,0,
,-0.543,-0.037,0.875,-487.61,121.215,169.738,0,0,0,
,-0.511,-0.063,0.877,-477.723,123.84,165.588,0,0,0,
,-0.486,-0.083,0.878,-474.976,103.515,143.066,0,0,0,
,-0.479,-0.08,0.905,-466.309,91.857,113.22,0,0,0,
,-0.476,-0.073,0.959,-453.797,85.998,63.781,0,0,0,
,-0.486,-0.044,0.994,-408.02,93.017,21.423,0,0,0,
,-0.485,0.013,1,-318.238,108.764,-31.861,0,0,0,
,-0.47,0.07,0.996,-194.642,133.606,-89.051,0,0,0,
,-0.47,0.09,0.992,-51.331,141.662,-163.514,0,0,0,
,-0.472,0.057,0.962,99.731,174.804,-224.549,0,0,0,
,-0.46,0.028,0.918,216.003,195.739,-261.719,0,0,0,
,-0.434,-0.058,0.843,248.779,201.782,-288.575,0,0,0,
,-0.421,-0.276,0.756,168.518,206.604,-377.869,0,0,0,
,-0.398,0.079,0.878,-42.908,-20.081,-255.005,0,0,0,
,-0.524,0.045,0.963,6.042,33.691,-316.102,0,0,0,
,-0.458,0.201,1.001,66.65,3.479,-339.783,0,0,0,
,-0.509,0.311,1.03,232.727,49.133,-328.064,0,0,0,
,-0.461,0.271,0.958,417.358,77.697,-324.402,0,0,0,
,-0.442,0.189,0.879,532.165,74.707,-332.276,0,0,0,
,-0.429,0.141,0.886,580.078,26.428,-335.267,0,0,0,
,-0.442,0.098,0.857,594.238,32.348,-317.017,0,0,0,
,-0.429,0.043,0.884,585.571,31.494,-302.185,0,0,0,
,-0.461,0.041,0.913,586.853,51.147,-303.04,0,0,0,
,-0.428,0.031,0.882,600.83,81.848,-285.645,0,0,0,
,-0.426,0.05,0.863,620.666,76.416,-267.029,0,0,0,
,-0.45,0.034,0.85,672.302,91.735,-255.127,0,0,0,
,-0.438,0.001,0.822,707.885,93.383,-229.187,0,0,0,
,-0.451,-0.071,0.796,697.57,89.965,-206.482,0,0,0,
,-0.44,-0.112,0.804,654.907,70.739,-177.918,0,0,0,
,-0.457,-0.174,0.807,594.665,41.931,-130.921,0,0,0,
,-0.462,-0.186,0.857,500.61,35.217,-75.135,0,0,0,
,-0.448,-0.207,0.878,393.982,19.47,-26.429,0,0,0,
,-0.436,-0.23,0.908,304.382,3.845,-3.113,0,0,0,
,-0.407,-0.26,0.917,183.166,-15.87,21.179,0,0,0,
,-0.401,-0.268,0.924,69.58,-60.547,52.002,0,0,0,
,-0.396,-0.284,0.951,-44.434,-83.619,79.467,0,0,0,
,-0.388,-0.26,0.959,-156.922,-104.248,105.407,0,0,0,
,-0.385,-0.252,0.963,-254.273,-128.968,126.22,0,0,0,
,-0.396,-0.23,0.978,-320.74,-143.494,149.902,0,0,0,
,-0.407,-0.256,0.984,-395.142,-139.527,159.973,0,0,0,
,-0.413,-0.236,0.939,-516.785,-98.511,174.56,0,0,0,
,-0.396,-0.189,0.903,-602.173,-81.665,192.932,0,0,0,
,-0.398,-0.137,0.905,-643.86,-82.154,195.312,0,0,0,
,-0.418,-0.127,0.916,-667.115,-83.497,192.993,0,0,0,
,-0.437,-0.042,0.974,-655.518,-69.825,182.678,0,0,0,
,-0.446,0.002,1.01,-562.684,-39.307,181.884,0,0,0,
,-0.469,0.037,1.042,-427.857,-28.382,184.448,0,0,0,
,-0.466,-0.023,1.052,-292.176,18.798,172.18,0,0,0,
,-0.416,-0.048,1.034,-226.075,28.442,149.231,0,0,0,
,-0.42,-0.079,1.016,-208.191,8.117,135.315,0,0,0,
,-0.423,-0.076,0.986,-217.347,-7.386,124.939,0,0,0,
,-0.415,-0.077,0.958,-217.408,-11.475,97.839,0,0,0,
,-0.415,-0.063,0.923,-210.267,-31.739,81.237,0,0,0,
,-0.433,-0.044,0.906,-200.013,-42.542,57.617,0,0,0,
,-0.427,-0.004,0.884,-170.655,-44.068,32.653,0,0,0,
,-0.456,-0.036,0.878,-130.677,-64.087,-6.47,0,0,0,
,-0.482,-0.044,0.89,-66.712,-57.557,-40.65,0,0,0,
,-0.496,-0.073,0.886,-14.832,-9.644,-74.891,0,0,0,
,-0.496,-0.086,0.852,10.253,22.827,-116.394,0,0,0,
,-0.494,-0.083,0.828,37.536,60.546,-149.598,0,0,0,
,-0.477,-0.057,0.8,59.753,81.787,-176.819,0,0,0,
,-0.477,-0.052,0.809,96.984,81.176,-200.501,0,0,0,
,-0.477,-0.138,0.774,134.094,72.265,-200.013,0,0,0,
,-0.479,0.017,0.9,175.964,3.479,-217.835,0,0,0,
,-0.482,-0.017,0.908,242.614,45.959,-238.709,0,0,0,
,-0.474,0.013,0.906,283.569,29.296,-223.755,0,0,0,
,-0.486,0.037,0.897,360.656,44.494,-230.713,0,0,0,
,-0.469,0.002,0.862,405.09,48.767,-223.938,0,0,0,
,-0.48,-0.01,0.842,429.016,49.987,-211.853,0,0,0,
,-0.477,-0.01,0.827,459.106,46.936,-195.252,0,0,0,
,-0.484,-0.019,0.825,494.995,61.279,-175.171,0,0,0,
,-0.495,-0.037,0.829,516.113,88.989,-159.852,0,0,0,
,-0.469,-0.087,0.831,504.333,119.506,-149.781,0,0,0,
,-0.449,-0.12,0.844,456.237,124.45,-136.719,0,0,0,
,-0.433,-0.162,0.861,396.362,115.356,-111.939,0,0,0,
,-0.412,-0.188,0.887,307.006,90.637,-84.961,0,0,0,
,-0.41,-0.194,0.919,217.041,54.077,-55.054,0,0,0,
,-0.402,-0.179,0.94,129.882,20.019,-20.691,0,0,0,
,-0.412,-0.186,0.983,36.315,-24.292,1.403,0,0,0,
,-0.427,-0.155,1.004,-35.645,-37.903,19.714,0,0,0,
,-0.409,-0.14,0.996,-86.609,-46.753,38.147,0,0,0,
,-0.41,-0.141,0.994,-142.945,-85.694,64.514,0,0,0,
,-0.418,-0.13,0.984,-181.458,-110.108,91.674,0,0,0,
,-0.422,-0.134,0.973,-218.323,-126.221,115.539,0,0,0,
,-0.427,-0.127,0.958,-259.278,-133.179,124.511,0,0,0,
,-0.437,-0.129,0.927,-291.626,-134.034,133.911,0,0,0,
,-0.427,-0.132,0.901,-317.2,-130.799,140.564,0,0,0,
,-0.432,-0.158,0.911,-343.628,-138.123,155.639,0,0,0,
,-0.431,-0.134,0.909,-382.019,-138.55,164.367,0,0,0,
,-0.437,-0.119,0.913,-398.499,-158.57,164.856,0,0,0,
,-0.466,-0.103,0.916,-390.442,-141.846,164.489,0,0,0,
,-0.487,-0.093,0.918,-374.573,-112.244,146.667,0,0,0,
,-0.482,-0.079,0.892,-344.3,-74.83,128.906,0,0,0,
,-0.507,-0.065,0.895,-287.903,-59.021,105.041,0,0,0,
,-0.535,-0.074,0.897,-250.184,-6.348,77.88,0,0,0,
,-0.524,-0.066,0.902,-221.68,58.593,45.593,0,0,0,
,-0.516,-0.058,0.903,-194.031,105.896,10.376,0,0,0,
,-0.521,-0.047,0.877,-158.814,161.804,-14.344,0,0,0,
,-0.496,-0.023,0.826,-125.672,206.787,-42.481,0,0,0,
,-0.471,-0.016,0.785,-82.642,203.613,-68.604,0,0,0,
,-0.46,-0.013,0.791,-51.087,189.636,-90.882,0,0,0,
,-0.455,-0.001,0.805,1.709,166.015,-119.935,0,0,0,
,-0.476,-0.008,0.85,64.148,148.376,-141.175,0,0,0,
,-0.435,-0.139,0.814,93.689,139.343,-117.981,0,0,0,
,-0.453,0.018,0.94,129.577,54.687,-135.315,0,0,0,
,-0.458,0.01,0.953,227.417,99.487,-141.175,0,0,0,
,-0.449,-0.003,0.947,295.532,81.481,-138.306,0,0,0,
,-0.447,0,0.927,382.446,88.745,-144.715,0,0,0,
,-0.43,-0.048,0.877,440.551,95.336,-161.194,0,0,0,
,-0.423,-0.086,0.839,478.942,71.655,-167.908,0,0,0,
,-0.425,-0.134,0.812,478.576,62.316,-164.917,0,0,0,
,-0.432,-0.119,0.833,454.956,40.344,-154.48,0,0,0,
,-0.471,-0.118,0.853,448.608,48.278,-139.039,0,0,0,
,-0.481,-0.123,0.861,427.612,85.022,-131.775,0,0,0,
,-0.456,-0.15,0.861,371.399,130.188,-121.827,0,0,0,
,-0.407,-0.178,0.847,278.747,121.948,-101.319,0,0,0,
,-0.404,-0.175,0.902,169.25,109.314,-87.647,0,0,0,
,-0.398,-0.196,0.907,66.833,102.6,-69.764,0,0,0,
,-0.387,-0.188,0.965,-26.551,84.961,-49.256,0,0,0,
,-0.37,-0.188,1.005,-107.056,81.481,-29.786,0,0,0,
,-0.344,-0.171,1.006,-158.875,73.669,-7.264,0,0,0,
,-0.275,-0.147,1.174,-181.275,37.414,13.122,0,0,0,
,-0.244,-0.238,1.155,-272.95,10.192,11.779,0,0,0,
,-0.248,-0.155,1.076,-490.723,-67.383,54.016,0,0,0,
,-0.317,-0.005,0.992,-569.581,-111.268,53.222,0,0,0,
,-0.371,0.039,0.96,-498.475,-85.144,38.879,0,0,0,
,-0.373,0.024,0.967,-383.423,-49.561,53.1,0,0,0,
,-0.391,0,0.991,-317.322,-74.707,96.252,0,0,0,
,-0.422,0.014,0.999,-242.432,-60.242,112.609,0,0,0,
,-0.423,-0.074,0.981,-204.651,-44.373,122.619,0,0,0,
,-0.415,-0.084,0.947,-305.542,-35.889,140.564,0,0,0,
,-0.42,-0.015,0.905,-394.043,-51.941,139.892,0,0,0,
,-0.447,0.008,0.893,-424.866,-45.411,131.408,0,0,0,
,-0.449,0.029,0.883,-427.369,-22.889,133.056,0,0,0,
,-0.449,0.059,0.878,-416.871,-13.855,128.357,0,0,0,
,-0.466,0.099,0.895,-382.63,-2.015,116.821,0,0,0,
,-0.477,0.126,0.921,-312.256,39.123,98.632,0,0,0,
,-0.476,0.15,0.942,-188.538,74.218,68.237,0,0,0,
,-0.46,0.128,0.909,-46.387,118.469,44.921,0,0,0,
,-0.448,0.152,0.922,67.749,131.469,0,0,0,0,
,-0.397,0.083,0.909,150.268,185.608,-12.635,0,0,0,
,-0.338,0.087,0.894,212.585,153.869,-38.392,0,0,0,
,-0.36,0.088,0.922,267.761,120.849,-38.025,0,0,0,
,-0.329,0.086,0.953,367.004,120.91,-55.359,0,0,0,
,-0.319,0.021,0.951,459.35,72.204,-58.045,0,0,0,
,-0.36,-0.044,0.972,509.155,36.193,-63.05,0,0,0,
,-0.375,-0.12,0.964,510.07,40.344,-72.571,0,0,0,
,-0.37,-0.14,0.963,491.577,33.386,-76.722,0,0,0,
,-0.359,-0.158,0.956,463.562,24.963,-81.543,0,0,0,
,-0.368,-0.137,0.961,454.589,0.732,-99.793,0,0,0,
,-0.383,-0.152,0.957,463.073,5.004,-113.77,0,0,0,
,-0.381,-0.195,0.932,462.89,9.216,-146.546,0,0,0,
,-0.372,-0.243,0.921,435.608,2.136,-174.683,0,0,0,
,-0.392,-0.253,0.913,396.301,-8.667,-200.806,0,0,0,
,-0.392,-0.233,0.925,351.989,-5.31,-213.685,0,0,0,
,-0.401,-0.186,0.921,323.791,-8.484,-223.877,0,0,0,
,-0.415,-0.124,0.911,343.689,-6.958,-219.544,0,0,0,
,-0.391,-0.191,0.865,366.088,6.591,-222.596,0,0,0,
,-0.357,-0.256,0.824,324.524,-11.658,-229.92,0,0,0,
,-0.369,-0.29,0.813,245.239,-56.214,-223.145,0,0,0,
,-0.403,-0.285,0.847,138.366,-73.975,-216.126,0,0,0,
,-0.437,-0.181,0.9,47.18,-73.06,-191.834,0,0,0,
,-0.44,-0.116,0.903,15.869,-57.801,-185.059,0,0,0,
,-0.427,-0.081,0.879,46.02,-67.505,-181.458,0,0,0,
,-0.42,-0.184,0.947,105.835,-93.018,-148.377,0,0,0,
,-0.454,-0.299,0.932,-78.797,-67.627,-127.198,0,0,0,
,-0.386,-0.219,0.915,-338.746,-43.763,-73.121,0,0,0,
,-0.358,-0.109,0.922,-484.62,-112.854,-31.189,0,0,0,
,-0.391,-0.079,0.967,-574.585,-162.781,10.253,0,0,0,
,-0.428,0,1.03,-624.634,-207.154,60.852,0,0,0,
,-0.43,0.064,1.071,-543.885,-187.317,105.041,0,0,0,
,-0.409,0.052,1.088,-453.125,-159.729,151.855,0,0,0,
,-0.418,0.027,1.054,-406.922,-164.978,181.457,0,0,0,
,-0.443,-0.059,0.979,-413.025,-145.813,215.026,0,0,0,
,-0.469,-0.058,0.935,-482.727,-169.678,243.225,0,0,0,
,-0.492,0.036,0.923,-512.879,-175.477,259.46,0,0,0,
,-0.503,0.109,0.901,-438.111,-151.307,262.573,0,0,0,
,-0.499,0.143,0.869,-291.016,-114.747,283.081,0,0,0,
,-0.498,0.066,0.836,-140.32,-72.205,278.076,0,0,0,
,-0.506,-0.046,0.832,-50.232,-46.021,254.028,0,0,0,
,-0.528,-0.118,0.798,-48.89,14.587,223.571,0,0,0,
,-0.514,-0.116,0.788,-67.872,48.645,176.88,0,0,0,
,-0.511,-0.091,0.787,-66.895,77.453,140.503,0,0,0,
,-0.524,-0.026,0.792,-3.785,94.909,93.75,0,0,0,
,-0.527,0.006,0.802,117.37,132.812,56.64,0,0,0,
,-0.477,-0.008,0.823,265.686,165.344,26.611,0,0,0,
,-0.454,-0.049,0.857,363.952,160.522,19.958,0,0,0,
,-0.449,-0.099,0.89,432.495,148.681,12.329,0,0,0,
,-0.443,-0.189,0.907,449.585,134.216,8.728,0,0,0,
,-0.444,-0.258,0.922,380.859,96.984,-6.47,0,0,0,
,-0.481,-0.277,0.935,301.941,62.194,-31.8,0,0,0,
,-0.486,-0.308,0.922,211.547,77.392,-72.754,0,0,0,
,-0.45,-0.256,0.884,130.005,61.706,-86.243,0,0,0,
,-0.462,-0.191,0.913,92.407,55.603,-93.445,0,0,0,
,-0.466,-0.134,0.905,107.238,63.598,-86.792,0,0,0,
,-0.477,-0.138,0.902,151.306,66.223,-77.149,0,0,0,
,-0.447,-0.142,0.882,168.701,76.355,-61.89,0,0,0,
,-0.436,-0.125,0.893,182.251,50.781,-49.5,0,0,0,
,-0.443,-0.13,0.897,202.942,43.029,-33.936,0,0,0,
,-0.443,-0.186,0.906,188.598,34.545,-12.879,0,0,0,
,-0.45,-0.25,0.918,132.324,35.156,-13.123,0,0,0,
,-0.422,-0.278,0.895,49.438,27.16,-24.598,0,0,0,
,-0.424,-0.25,0.907,-38.453,0.427,-33.387,0,0,0,
,-0.41,-0.2,0.892,-82.276,-2.198,-40.955,0,0,0,
,-0.437,-0.19,0.895,-96.375,-13.428,-42.054,0,0,0,
,-0.402,-0.171,0.905,-121.094,-6.348,-50.354,0,0,0,
,-0.512,-0.169,0.979,-152.344,57.556,-13.55,0,0,0,
,-0.478,-0.091,0.969,-132.63,218.933,-69.947,0,0,0,
,-0.464,-0.084,0.97,-77.82,298.034,-79.651,0,0,0,
,-0.408,-0.105,0.945,-37.232,313.659,-59.815,0,0,0,
,-0.33,-0.112,0.883,-43.885,224.243,-52.247,0,0,0,
,-0.332,-0.185,0.936,-59.937,66.406,-60.791,0,0,0,
,-0.338,-0.2,0.848,-88.562,-74.158,-47.303,0,0,0,
,-0.47,-0.228,0.906,-139.283,-60.12,-33.753,0,0,0,
,-0.358,-0.132,0.843,-145.508,-119.202,-64.637,0,0,0,
,-0.462,-0.116,0.891,-124.634,-172.303,-73.182,0,0,0,
,-0.478,-0.02,0.917,-21.363,-180.542,-121.338,0,0,0,
,-0.464,0.043,0.945,118.835,-113.526,-147.828,0,0,0,
,-0.469,0.023,0.933,291.381,-49.5,-174.744,0,0,0,
,-0.48,-0.041,0.917,432.434,31.005,-184.693,0,0,0,
,-0.449,-0.053,0.905,528.442,127.38,-210.267,0,0,0,
,-0.416,0.073,0.959,710.144,163.33,-272.644,0,0,0,
,-0.404,-0.004,0.941,916.381,191.04,-279.664,0,0,0,
,-0.396,-0.165,0.884,1041.259,220.886,-244.568,0,0,0,
,-0.367,-0.279,0.832,1043.213,230.224,-231.629,0,0,0,
,-0.353,-0.414,0.803,935.608,205.688,-204.102,0,0,0,
,-0.36,-0.475,0.828,732.116,141.418,-178.528,0,0,0,
,-0.399,-0.484,0.848,521.545,119.262,-122.864,0,0,0,
,-0.39,-0.429,0.823,337.89,106.628,-78.309,0,0,0,
,-0.41,-0.395,0.812,199.768,70.495,-41.199,0,0,0,
,-0.425,-0.368,0.799,66.345,92.834,-15.87,0,0,0,
,-0.395,-0.358,0.775,-77.942,77.27,22.949,0,0,0,
,-0.383,-0.406,0.811,-208.313,53.955,67.81,0,0,0,
,-0.387,-0.422,0.855,-355.957,30.395,103.332,0,0,0,
,-0.368,-0.405,0.885,-500.855,1.464,134.582,0,0,0,
,-0.395,-0.361,0.932,-604.859,-39.551,167.419,0,0,0,
,-0.427,-0.313,0.958,-660.645,-60.12,197.143,0,0,0,
,-0.417,-0.298,0.97,-658.753,-62.439,211.486,0,0,0,
,-0.413,-0.318,0.991,-677.613,-64.393,219.665,0,0,0,
,-0.379,-0.273,0.968,-704.041,-57.801,210.51,0,0,0,
,-0.36,-0.228,0.94,-678.101,-69.886,196.472,0,0,0,
,-0.364,-0.205,0.934,-615.54,-87.586,182.739,0,0,0,
,-0.377,-0.205,0.923,-580.323,-74.463,165.527,0,0,0,
,-0.357,-0.162,0.899,-566.651,-57.74,136.23,0,0,0,
,-0.368,-0.106,0.926,-533.143,-58.96,107.666,0,0,0,
,-0.405,-0.032,0.979,-451.294,-47.303,94.482,0,0,0,
,-0.413,-0.031,1.022,-332.764,6.713,78.613,0,0,0,
,-0.367,-0.068,1.031,-233.704,48.828,60.791,0,0,0,
,-0.332,-0.076,1.013,-179.993,41.626,24.719,0,0,0,
,-0.332,-0.006,0.997,-170.594,-17.64,32.226,0,0,0,
,-0.375,-0.018,0.984,-108.521,-44.007,6.103,0,0,0,
,-0.389,-0.028,0.985,-67.749,-72.51,-1.526,0,0,0,
,-0.409,-0.086,1.003,-46.875,-80.079,8.178,0,0,0,
,-0.4,-0.109,0.982,-87.464,-56.031,9.643,0,0,0,
,-0.369,-0.088,0.944,-136.475,-78.37,-14.039,0,0,0,
,-0.403,-0.048,0.935,-139.161,-86.487,-22.767,0,0,0,
,-0.411,-0.003,0.942,-131.714,-64.209,-31.861,0,0,0,
,-0.398,0.024,0.906,-101.258,-59.082,-32.776,0,0,0,
,-0.426,0.002,0.891,-42.786,-45.96,-27.649,0,0,0,
,-0.416,0.046,0.895,65.795,-21.241,-19.898,0,0,0,
,-0.4,-0.044,0.886,118.347,3.845,-22.889,0,0,0,
,-0.436,-0.113,0.933,90.515,0.244,-47.974,0,0,0,
,-0.417,-0.094,0.929,110.351,42.236,-71.534,0,0,0,
,-0.39,-0.087,0.907,102.539,26.123,-76.233,0,0,0,
,-0.409,-0.035,0.936,141.784,-13.367,-81.849,0,0,0,
,-0.407,-0.132,0.931,150.024,-19.837,-105.652,0,0,0,
,-0.441,-0.16,0.946,125.061,-54.81,-110.718,0,0,0,
,-0.474,-0.15,0.953,107.177,-41.138,-123.414,0,0,0,
,-0.467,-0.148,0.929,119.445,-24.598,-147.095,0,0,0,
,-0.473,-0.106,0.884,146.606,-30.579,-179.688,0,0,0,
,-0.467,-0.095,0.84,204.712,-25.33,-209.29,0,0,0,
,-0.479,-0.095,0.808,279.174,-10.315,-229.676,0,0,0,
,-0.505,-0.098,0.773,318.786,9.399,-240.235,0,0,0,
,-0.495,-0.096,0.732,369.629,53.955,-246.277,0,0,0,
,-0.502,-0.122,0.717,391.235,66.345,-251.648,0,0,0,
,-0.507,-0.113,0.715,400.573,111.938,-249.085,0,0,0,
,-0.49,-0.132,0.708,383.422,155.09,-229.615,0,0,0,
,-0.474,-0.109,0.734,346.252,185.302,-196.167,0,0,0,
,-0.475,-0.093,0.774,330.749,200.866,-149.048,0,0,0,
,-0.47,-0.126,0.827,289.55,214.843,-109.009,0,0,0,
,-0.417,-0.197,0.865,165.1,232.91,-67.505,0,0,0,
,-0.351,-0.201,0.913,-10.804,201.416,-46.143,0,0,0,
,-0.32,-0.239,0.982,-175.477,150.634,-17.151,0,0,0,
,-0.305,-0.204,1.077,-306.763,68.603,17.334,0,0,0,
,-0.347,-0.147,1.165,-408.692,-8.973,53.527,0,0,0,
,-0.394,-0.079,1.206,-509.034,-28.199,85.449,0,0,0,
,-0.372,-0.037,1.18,-582.642,9.094,118.042,0,0,0,
,-0.323,0.027,1.112,-622.254,-14.893,167.114,0,0,0,
,-0.307,0.034,1.068,-630.86,-64.148,199.096,0,0,0,
,-0.304,0.048,1.034,-610.535,-116.761,240.051,0,0,0,
,-0.332,0.037,1.034,-588.562,-154.297,259.887,0,0,0,
,-0.34,0.043,1.036,-550.599,-176.026,250.366,0,0,0,
,-0.357,0.024,1.023,-510.193,-182.984,238.769,0,0,0,
,-0.375,0.018,1.013,-491.15,-184.693,212.097,0,0,0,
,-0.354,0.051,0.977,-473.45,-137.94,172.302,0,0,0,
,-0.348,0.063,0.944,-456.177,-153.504,129.821,0,0,0,
,-0.401,0.098,0.988,-397.034,-148.499,90.332,0,0,0,
,-0.412,0.116,0.978,-304.627,-80.628,48.828,0,0,0,
,-0.408,0.116,0.935,-198.792,-66.773,22.216,0,0,0,
,-0.387,0.095,0.968,-121.644,-59.693,15.93,0,0,0,
,-0.373,0.04,0.856,-152.1,-106.019,18.31,0,0,0,
,-0.428,0.079,0.928,-159.424,-140.442,-18.738,0,0,0,
,-0.425,0.018,0.913,-159.607,-125.184,-41.871,0,0,0,
,-0.461,0.037,0.931,-174.134,-133.179,-55.542,0,0,0,
,-0.453,0.081,0.897,-150.574,-96.131,-68.177,0,0,0,
,-0.45,0.13,0.859,-97.657,-107.911,-91.736,0,0,0,
,-0.458,0.148,0.87,-10.926,-107.605,-117.676,0,0,0,
,-0.467,0.133,0.865,45.715,-105.896,-137.33,0,0,0,
,-0.497,0.155,0.845,113.586,-97.29,-163.941,0,0,0,
,-0.511,0.163,0.858,194.763,-79.102,-196.656,0,0,0,
,-0.511,0.152,0.831,278.93,-71.839,-226.136,0,0,0,
,-0.534,0.157,0.824,360.717,-68.482,-253.357,0,0,0,
,-0.559,0.137,0.809,440.002,-49.744,-280.396,0,0,0,
,-0.568,0.12,0.801,490.6,-35.889,-298.768,0,0,0,
,-0.564,0.094,0.816,529.052,-31.373,-323.975,0,0,0,
,-0.579,0.099,0.802,567.26,-11.902,-310.364,0,0,0,
,-0.575,0.067,0.809,584.594,0.671,-303.528,0,0,0,
,-0.562,0.059,0.787,586.181,25.329,-298.218,0,0,0,
,-0.563,0.043,0.755,582.214,34.851,-282.593,0,0,0,
,-0.542,0.054,0.757,581.97,63.476,-265.503,0,0,0,
,-0.536,0.08,0.781,597.229,75.866,-253.724,0,0,0,
,-0.531,0.081,0.791,636.963,93.383,-240.662,0,0,0,
,-0.51,0.04,0.78,670.532,108.398,-218.995,0,0,0,
,-0.506,-0.002,0.761,684.509,116.699,-201.111,0,0,0,
,-0.495,-0.072,0.72,676.818,128.601,-170.411,0,0,0,
,-0.499,-0.149,0.702,627.38,123.596,-96.619,0,0,0,
,-0.485,-0.212,0.739,529.907,111.206,-41.626,0,0,0,
,-0.514,-0.162,0.798,413.147,102.356,33.691,0,0,0,
,-0.503,-0.254,0.854,219.055,74.768,39.611,0,0,0,
,-0.491,-0.257,0.888,37.658,94.848,78.247,0,0,0,
,-0.46,-0.212,0.91,-111.817,77.27,117.37,0,0,0,
,-0.48,-0.205,0.938,-230.591,52.917,161.804,0,0,0,
,-0.477,-0.218,1.004,-370.789,57.251,179.87,0,0,0,
,-0.454,-0.268,1.047,-537.049,60.424,197.998,0,0,0,
,-0.401,-0.186,1.017,-684.937,47.851,192.81,0,0,0,
,-0.357,-0.168,1.002,-773.499,23.437,187.744,0,0,0,
,-0.299,-0.091,0.968,-861.451,8.361,191.406,0,0,0,
,-0.289,0.008,0.955,-875.245,-64.759,188.598,0,0,0,
,-0.326,0.071,1.002,-809.632,-104.432,176.757,0,0,0,
,-0.362,0.123,1.048,-743.714,-90.332,185.913,0,0,0,
,-0.363,0.166,1.025,-692.505,-38.697,174.865,0,0,0,
,-0.356,0.203,1.019,-609.07,-36.805,175.659,0,0,0,
,-0.379,0.217,1.033,-484.559,-27.832,177.063,0,0,0,
,-0.408,0.211,1.044,-363.709,9.521,166.198,0,0,0,
,-0.383,0.193,1.081,-265.442,56.579,149.414,0,0,0,
,-0.334,0.089,0.941,-278.26,38.33,146.423,0,0,0,
,-0.37,0.108,1.002,-269.715,-45.472,112.548,0,0,0,
,-0.418,0.097,1.003,-237.244,-46.387,85.632,0,0,0,
,-0.412,0.077,0.967,-249.451,-69.153,94.665,0,0,0,
,-0.455,0.116,0.964,-265.32,-96.741,85.815,0,0,0,
,-0.465,0.136,0.966,-240.235,-87.098,63.964,0,0,0,
,-0.459,0.173,0.983,-214.234,-91.431,41.015,0,0,0,
,-0.472,0.201,0.953,-116.517,-82.886,21.24,0,0,0,
,-0.458,0.197,0.901,-24.414,-82.947,24.231,0,0,0,
,-0.464,0.167,0.866,68.725,-104.31,6.408,0,0,0,
,-0.477,0.109,0.835,132.324,-116.578,-17.518,0,0,0,
,-0.5,0.098,0.815,163.696,-113.648,-45.655,0,0,0,
,-0.524,0.122,0.799,217.102,-104.248,-73.731,0,0,0,
,-0.529,0.088,0.8,287.109,-68.726,-121.766,0,0,0,
,-0.534,0.096,0.808,347.534,-60.12,-163.758,0,0,0,
,-0.531,0.061,0.813,405.212,-31.678,-208.985,0,0,0,
,-0.534,0.023,0.84,440.063,-37.415,-241.822,0,0,0,
,-0.539,0.022,0.838,460.815,-28.382,-268.921,0,0,0,
,-0.53,0,0.807,480.774,-24.231,-294.068,0,0,0,
,-0.544,0.004,0.8,481.262,-23.316,-309.266,0,0,0,
,-0.551,0.008,0.794,483.337,-9.827,-322.937,0,0,0,
,-0.533,0.002,0.776,482.605,4.638,-325.135,0,0,0,
,-0.557,-0.018,0.789,464.599,13.916,-332.337,0,0,0,
,-0.518,0.037,0.795,446.35,41.687,-336.609,0,0,0,
,-0.521,0.014,0.788,449.646,45.837,-335.999,0,0,0,
,-0.533,0.03,0.779,454.162,62.622,-329.102,0,0,0,
,-0.524,0.042,0.762,467.529,73.425,-312.256,0,0,0,
,-0.53,0.084,0.758,497.07,95.459,-287.171,0,0,0,
,-0.524,0.054,0.748,553.711,119.873,-239.441,0,0,0,
,-0.502,-0.034,0.758,564.819,145.324,-182.74,0,0,0,
,-0.48,-0.104,0.77,503.967,150.879,-116.394,0,0,0,
,-0.462,-0.12,0.777,392.273,147.766,-79.834,0,0,0,
,-0.458,-0.091,0.78,306.091,140.442,-55.359,0,0,0,
,-0.468,-0.092,0.798,176.33,111.267,-29.602,0,0,0,
,-0.48,-0.029,0.848,100.402,85.449,14.526,0,0,0,
,-0.498,-0.084,0.921,18.127,115.539,53.222,0,0,0,
,-0.457,-0.132,0.962,-90.455,155.09,78.735,0,0,0,
,-0.418,-0.142,1.01,-252.686,160.156,109.314,0,0,0,
,-0.39,-0.095,1.036,-381.714,137.695,136.657,0,0,0,
,-0.39,-0.029,1.058,-481.507,99.731,158.63,0,0,0,
,-0.386,0.062,1.06,-537.232,68.664,194.213,0,0,0,
,-0.367,0.132,1.081,-517.456,43.029,220.276,0,0,0,
,-0.359,0.139,1.096,-467.225,21.423,228.393,0,0,0,
,-0.362,0.108,1.095,-418.885,13.488,245.3,0,0,0,
,-0.335,0.034,1.035,-394.349,-44.556,288.635,0,0,0,
,-0.367,0.051,1.006,-391.785,-54.444,291.076,0,0,0,
,-0.374,0.039,1,-371.949,-54.566,288.391,0,0,0,
,-0.387,0.051,0.989,-329.224,-58.106,283.02,0,0,0,
,-0.396,0.034,0.98,-287.537,-50.11,286.193,0,0,0,
,-0.387,-0.003,0.974,-246.46,-57.373,300.109,0,0,0,
,-0.384,-0.033,0.993,-262.024,-84.656,283.142,0,0,0,
,-0.412,-0.038,0.978,-280.579,-85.144,242.797,0,0,0,
,-0.418,-0.015,0.963,-285.889,-78.186,205.017,0,0,0,
,-0.42,0.019,0.956,-263.184,-91.309,168.884,0,0,0,
,-0.466,-0.001,0.903,-150.757,-97.84,88.317,0,0,0,
,-0.471,-0.008,0.891,-132.203,-113.343,48.95,0,0,0,
,-0.49,0.008,0.873,-100.953,-119.08,8.178,0,0,0,
,-0.5,0.067,0.878,-58.35,-118.042,-33.143,0,0,0,
,-0.517,0.098,0.892,11.291,-115.479,-67.933,0,0,0,
,-0.514,0.113,0.888,103.698,-84.778,-98.023,0,0,0,
,-0.505,0.072,0.857,196.228,-78.186,-109.436,0,0,0,
,-0.503,0.013,0.828,227.661,-78.797,-131.592,0,0,0,
,-0.513,0,0.802,222.961,-77.332,-148.621,0,0,0,
,-0.518,0.027,0.819,209.106,-66.529,-178.284,0,0,0,
,-0.514,0.031,0.79,218.017,-30.518,-213.013,0,0,0,
,-0.533,0.072,0.792,270.019,-24.476,-227.662,0,0,0,
,-0.542,0.077,0.8,358.581,10.62,-258.362,0,0,0,
,-0.529,0.05,0.798,422.18,25.39,-275.33,0,0,0,
,-0.529,0.015,0.8,461.67,37.414,-289.185,0,0,0,
,-0.541,-0.002,0.779,472.961,47.241,-288.147,0,0,0,
,-0.539,-0.027,0.759,466.797,65.856,-284.18,0,0,0,
,-0.554,-0.026,0.755,429.87,77.819,-271.424,0,0,0,
,-0.545,-0.038,0.746,387.695,112.915,-257.081,0,0,0,
,-0.526,-0.039,0.732,329.589,126.464,-226.929,0,0,0,
,-0.523,-0.028,0.738,297.424,132.141,-195.13,0,0,0,
,-0.508,-0.039,0.76,267.761,144.653,-159.058,0,0,0,
,-0.504,-0.026,0.788,204.223,162.414,-119.629,0,0,0,
,-0.484,-0.039,0.819,139.404,161.804,-98.999,0,0,0,
,-0.479,-0.034,0.844,83.557,163.025,-87.342,0,0,0,
,-0.476,-0.001,0.851,38.513,163.147,-72.693,0,0,0,
,-0.477,0.029,0.87,7.202,171.569,-52.308,0,0,0,
,-0.457,0.047,0.89,-5.188,172.363,-30.762,0,0,0,
,-0.443,0.014,0.921,-47.974,169.372,16.113,0,0,0,
,-0.427,0.006,0.985,-131.104,182.495,44.677,0,0,0,
,-0.397,0.021,0.981,-228.333,214.416,63.293,0,0,0,
,-0.347,0.032,1.003,-332.52,211.67,98.877,0,0,0,
,-0.316,0.09,1.098,-404.602,148.925,133.545,0,0,0,
,-0.252,0.116,1.172,-425.66,29.724,210.754,0,0,0,
,-0.345,0.19,1.112,-440.186,-74.524,207.519,0,0,0,
,-0.412,0.244,1.057,-351.014,-30.945,216.491,0,0,0,
,-0.367,0.177,1.06,-225.037,38.391,220.337,0,0,0,
,-0.308,0.072,1.033,-186.158,26.123,231.201,0,0,0,
,-0.318,0.008,1.039,-232.483,-44.495,228.149,0,0,0,
,-0.368,0.022,1.03,-278.26,-63.843,235.29,0,0,0,
,-0.427,0.098,0.967,-283.509,-96.863,252.685,0,0,0,
,-0.437,0.071,0.968,-260.498,-96.009,251.281,0,0,0,
,-0.439,0.073,0.949,-242.127,-79.895,240.6,0,0,0,
,-0.422,0.072,0.942,-214.478,-89.173,228.759,0,0,0,
,-0.413,0.052,0.944,-197.815,-111.573,210.571,0,0,0,
,-0.462,0.071,0.903,-159.18,-124.39,117.004,0,0,0,
,-0.485,0.071,0.881,-125.245,-131.958,104.858,0,0,0,
,-0.477,0.106,0.864,-84.412,-118.897,88.989,0,0,0,
,-0.482,0.112,0.869,-31.983,-127.93,63.476,0,0,0,
,-0.5,0.124,0.871,34.851,-124.146,24.963,0,0,0,
,-0.492,-0.01,0.82,79.711,-78.553,-52.308,0,0,0,
,-0.487,-0.021,0.803,57.251,-67.688,-96.802,0,0,0,
,-0.501,0.021,0.793,48.706,-69.214,-110.291,0,0,0,
,-0.534,0.081,0.806,86.547,-62.439,-135.376,0,0,0,
,-0.538,0.125,0.829,161.621,-20.142,-162.171,0,0,0,
,-0.53,0.134,0.841,274.719,-1.709,-186.829,0,0,0,
,-0.521,0.086,0.856,378.479,15.136,-218.934,0,0,0,
,-0.51,0.071,0.861,450.744,21.85,-253.663,0,0,0,
,-0.524,0.028,0.861,521.301,37.231,-289.002,0,0,0,
,-0.509,-0.009,0.842,533.63,43.273,-292.542,0,0,0,
,-0.52,-0.018,0.842,522.033,51.94,-290.162,0,0,0,
,-0.504,-0.119,0.731,401.794,86.425,-295.899,0,0,0,
,-0.496,-0.106,0.723,349.243,84.228,-290.833,0,0,0,
,-0.529,-0.035,0.732,304.077,66.894,-263.123,0,0,0,
,-0.55,-0.016,0.734,306.518,89.904,-234.864,0,0,0,
,-0.55,-0.034,0.703,296.081,116.577,-222.779,0,0,0,
,-0.552,-0.027,0.712,271.301,138.549,-203.37,0,0,0,
,-0.547,-0.006,0.739,236.572,173.95,-191.895,0,0,0,
,-0.523,0.021,0.776,170.288,208.007,-163.758,0,0,0,
,-0.49,0.086,0.844,150.512,229.614,-142.09,0,0,0,
,-0.471,0.049,0.852,184.265,245.361,-113.099,0,0,0,
,-0.42,-0.074,0.955,174.133,252.502,-43.519,0,0,0,
,-0.368,-0.162,1.017,12.939,266.174,18.859,0,0,0,
,-0.304,-0.152,1.18,-208.924,231.384,55.114,0,0,0,
,-0.238,-0.217,1.218,-431.519,163.574,85.937,0,0,0,
,-0.21,0.056,1.187,-661.927,56.945,128.723,0,0,0,
,-0.287,0.146,1.167,-703.492,-66.04,149.963,0,0,0,
,-0.351,0.189,1.111,-646.363,-59.266,176.33,0,0,0,
,-0.375,0.243,1.065,-577.332,-44.129,214.416,0,0,0,
,-0.381,0.222,1.027,-479.554,-21.363,221.496,0,0,0,
,-0.412,0.144,0.986,-336.792,-42.359,259.521,0,0,0,
,-0.411,0.091,0.976,-328.248,-10.743,270.263,0,0,0,
,-0.396,0.073,0.952,-334.107,-22.278,279.785,0,0,0,
,-0.418,0.111,0.965,-379.334,-84.778,296.203,0,0,0,
,-0.462,0.147,0.991,-357.239,-84.839,283.752,0,0,0,
,-0.446,0.136,0.984,-292.664,-45.411,262.024,0,0,0,
,-0.417,0.077,0.963,-250.367,-53.223,244.69,0,0,0,
,-0.421,0.048,0.967,-255.005,-80.079,219.36,0,0,0,
,-0.419,0.058,0.971,-276.673,-81.727,190.612,0,0,0,
,-0.429,0.081,0.956,-264.161,-100.403,171.081,0,0,0,
,-0.441,0.102,0.945,-243.287,-122.376,164.001,0,0,0,
,-0.443,0.136,0.965,-215.027,-145.325,151.489,0,0,0,
,-0.432,0.094,0.946,-207.52,-153.992,132.324,0,0,0,
,-0.431,0.086,0.926,-227.723,-172.425,103.515,0,0,0,
,-0.463,0.155,0.918,-211.487,-159.302,57.373,0,0,0,
,-0.467,0.166,0.912,-167.237,-152.344,27.954,0,0,0,
,-0.46,0.252,0.845,-90.088,-152.161,31.616,0,0,0,
,-0.527,0.19,0.839,112.426,-159.058,-51.514,0,0,0,
,-0.515,-0.011,0.795,125.427,-108.521,-103.577,0,0,0,
,-0.503,0.008,0.763,22.033,-121.094,-103.089,0,0,0,
,-0.527,0.077,0.712,0.793,-99.915,-122.376,0,0,0,
,-0.539,0.123,0.695,42.785,-102.112,-144.776,0,0,0,
,-0.564,0.155,0.711,115.478,-80.75,-176.697,0,0,0,
,-0.572,0.205,0.734,206.787,-68.299,-227.662,0,0,0,
,-0.637,0.263,0.778,359.13,-13.55,-280.274,0,0,0,
,-0.6,0.234,0.772,562.927,93.383,-332.764,0,0,0,
,-0.488,0.009,0.72,669.311,83.007,-371.399,0,0,0,
,-0.56,0.015,0.855,605.835,-32.532,-358.704,0,0,0,
,-0.542,-0.007,0.871,576.965,22.155,-374.939,0,0,0,
,-0.522,0.018,0.891,511.169,12.146,-361.451,0,0,0,
,-0.502,0.073,0.868,490.295,26.794,-352.234,0,0,0,
,-0.493,0.086,0.878,490.112,27.954,-342.164,0,0,0,
,-0.496,0.098,0.85,495.239,36.377,-330.445,0,0,0,
,-0.498,0.108,0.827,513.244,51.025,-327.332,0,0,0,
,-0.491,0.098,0.784,531.494,66.101,-323.914,0,0,0,
,-0.503,0.099,0.748,541.687,67.749,-308.411,0,0,0,
,-0.518,0.104,0.725,570.495,80.749,-288.575,0,0,0,
,-0.534,0.104,0.724,589.172,98.877,-262.818,0,0,0,
,-0.54,0.056,0.708,590.698,125.488,-230.164,0,0,0,
,-0.626,-0.079,0.692,567.138,174.072,-167.786,0,0,0,
,-0.52,-0.107,0.757,391.601,190.979,-116.883,0,0,0,
,-0.488,-0.111,0.842,254.15,170.593,-63.294,0,0,0,
,-0.485,-0.126,0.885,81.054,173.034,-41.077,0,0,0,
,-0.446,-0.071,0.942,-89.295,172.729,-5.372,0,0,0,
,-0.452,-0.071,0.953,-210.328,176.33,16.113,0,0,0,
,-0.399,-0.052,0.963,-323.792,171.936,58.471,0,0,0,
,-0.359,-0.018,1.002,-454.834,114.074,121.276,0,0,0,
,-0.362,0.062,1.025,-555.481,52.429,157.531,0,0,0,
,-0.386,0.145,1.041,-577.698,27.099,164.611,0,0,0,
,-0.395,0.169,1.038,-531.067,40.039,187.622,0,0,0,
,-0.379,0.173,1.032,-476.563,38.513,207.092,0,0,0,
,-0.365,0.125,1.057,-437.928,26.916,229.797,0,0,0,
,-0.373,0.104,1.042,-458.13,10.62,245.117,0,0,0,
,-0.38,0.149,1.015,-478.089,3.601,247.802,0,0,0,
,-0.377,0.146,0.999,-450.684,-23.316,268.493,0,0,0,
,-0.401,0.14,0.999,-442.566,-69.031,277.954,0,0,0,
,-0.438,0.154,1.008,-430.054,-84.534,283.325,0,0,0,
,-0.415,0.161,1.009,-402.405,-70.74,281.433,0,0,0,
,-0.432,0.141,1.015,-377.564,-97.535,271.606,0,0,0,
,-0.468,0.169,1.01,-369.568,-72.815,276.55,0,0,0,
,-0.44,0.192,0.979,-328.003,-39.429,251.403,0,0,0,
,-0.423,0.161,0.945,-253.785,-46.204,242.859,0,0,0,
,-0.419,0.116,0.94,-227.601,-59.266,227.111,0,0,0,
,-0.413,0.116,0.924,-211.182,-90.882,197.998,0,0,0,
,-0.447,0.111,0.937,-179.627,-123.23,163.391,0,0,0,
,-0.478,0.152,0.926,-123.475,-116.517,133.728,0,0,0,
,-0.481,0.163,0.915,-21.729,-95.154,99.121,0,0,0,
,-0.461,0.07,0.882,27.832,-94.544,60.363,0,0,0,
,-0.483,0.029,0.891,-0.489,-107.178,17.7,0,0,0,
,-0.503,0.048,0.869,-10.621,-93.384,-8.423,0,0,0,
,-0.496,0.037,0.837,-12.635,-103.943,-35.462,0,0,0,
,-0.53,0.079,0.82,0.061,-92.53,-72.998,0,0,0,
,-0.517,0.136,0.788,71.228,-72.937,-109.559,0,0,0,
,-0.513,0.188,0.813,178.527,-80.811,-152.405,0,0,0,
,-0.55,0.212,0.837,322.387,-72.571,-211.548,0,0,0,
,-0.572,0.207,0.837,496.521,-27.894,-258.912,0,0,0,
,-0.545,0.124,0.792,612.609,-8.118,-291.687,0,0,0,
,-0.568,0.091,0.781,678.283,-13.428,-331.421,0,0,0,
,-0.559,0.054,0.776,727.05,15.502,-359.742,0,0,0,
,-0.546,0.019,0.773,736.328,3.601,-364.624,0,0,0,
,-0.556,0.006,0.778,721.801,21.24,-370.423,0,0,0,
,-0.543,-0.004,0.763,684.875,29.785,-371.888,0,0,0,
,-0.549,-0.038,0.773,646.911,49.133,-362.427,0,0,0,
,-0.527,-0.05,0.759,578.125,75.012,-355.713,0,0,0,
,-0.523,-0.002,0.779,504.76,90.271,-337.83,0,0,0,
,-0.528,0.026,0.795,468.505,104.248,-303.65,0,0,0,
,-0.507,-0.002,0.791,442.321,98.327,-253.785,0,0,0,
,-0.511,-0.048,0.786,397.155,70.129,-196.289,0,0,0,
,-0.51,-0.097,0.799,326.233,46.63,-149.353,0,0,0,
,-0.504,-0.139,0.869,216.919,40.222,-113.77,0,0,0,
,-0.488,-0.12,0.905,81.176,38.696,-89.051,0,0,0,
,-0.484,-0.068,0.885,-38.697,45.654,-72.693,0,0,0,
,-0.487,-0.009,0.878,-114.197,41.931,-38.147,0,0,0,
,-0.499,0.024,0.869,-152.405,43.884,-5.066,0,0,0,
,-0.488,0.036,0.837,-160.706,60.424,10.559,0,0,0,
,-0.499,0.061,0.84,-161.194,59.265,21.85,0,0,0,
,-0.497,0.079,0.885,-183.045,87.951,41.442,0,0,0,
,-0.481,0.1,0.879,-186.036,106.628,61.889,0,0,0,
,-0.461,0.028,0.939,-196.656,111.206,105.041,0,0,0,
,-0.44,0.015,0.957,-258.484,115.539,137.878,0,0,0,
,-0.432,0.02,0.986,-332.886,113.83,144.104,0,0,0,
,-0.421,0.044,0.986,-392.64,109.558,169.738,0,0,0,
,-0.41,0.101,0.979,-408.265,95.336,193.359,0,0,0,
,-0.399,0.137,0.979,-384.217,71.289,203.857,0,0,0,
,-0.4,0.083,0.971,-362.61,40.527,215.759,0,0,0,
,-0.399,0.061,1,-390.442,-4.883,246.948,0,0,0,
,-0.383,0.113,1.078,-411.866,-48.462,256.042,0,0,0,
,-0.457,0.12,1.036,-386.841,-56.58,268.005,0,0,0,
,-0.444,0.087,1.02,-329.773,-30.213,268.921,0,0,0,
,-0.417,0.029,0.982,-333.435,-41.748,285.278,0,0,0,
,-0.435,0.067,0.976,-378.846,-78.858,277.526,0,0,0,
,-0.472,0.126,0.955,-357.178,-73.792,262.451,0,0,0,
,-0.475,0.133,0.932,-303.345,-51.453,256.591,0,0,0,
,-0.463,0.107,0.916,-252.137,-45.411,249.878,0,0,0,
,-0.459,0.074,0.904,-219.483,-52.979,232.055,0,0,0,
,-0.47,0.057,0.9,-207.764,-69.153,193.969,0,0,0,
,-0.476,0.031,0.892,-222.779,-73.365,161.56,0,0,0,
,-0.5,0.073,0.885,-239.075,-73.548,122.863,0,0,0,
,-0.516,0.111,0.888,-210.999,-31.311,67.26,0,0,0,
,-0.515,0.139,0.885,-124.817,0,32.714,0,0,0,
,-0.523,0.089,0.862,-27.771,7.934,34.851,0,0,0,
,-0.51,0.075,0.83,-0.611,46.02,18.005,0,0,0,
,-0.477,0.04,0.842,-8.301,28.503,-15.564,0,0,0,
,-0.461,-0.006,0.836,-69.764,-35.645,-30.457,0,0,0,
,-0.541,0.083,0.927,-84.168,-62.867,-58.899,0,0,0,
,-0.522,0.086,0.914,-64.209,-31.922,-85.877,0,0,0,
,-0.523,0.163,0.908,-29.908,-47.73,-102.112,0,0,0,
,-0.506,0.19,0.919,52.368,-44.983,-108.094,0,0,0,
,-0.489,0.217,0.905,142.578,-64.087,-125.061,0,0,0,
,-0.498,0.153,0.885,222.9,-69.275,-138.489,0,0,0,
,-0.499,0.117,0.857,256.775,-73.365,-146.241,0,0,0,
,-0.504,0.101,0.841,276.245,-72.571,-157.41,0,0,0,
,-0.52,0.097,0.817,274.719,-66.529,-180.176,0,0,0,
,-0.538,0.161,0.825,310.241,-53.894,-202.942,0,0,0,
,-0.548,0.196,0.835,400.451,-25.757,-230.286,0,0,0,
,-0.544,0.192,0.824,506.286,-2.076,-245.972,0,0,0,
,-0.55,0.149,0.803,602.356,24.108,-268.555,0,0,0,
,-0.54,0.093,0.788,682.312,39.184,-285.157,0,0,0,
,-0.542,0.052,0.779,703.125,48.645,-279.969,0,0,0,
,-0.552,0.077,0.79,730.896,66.711,-280.884,0,0,0,
,-0.553,0.067,0.786,762.39,88.44,-272.767,0,0,0,
,-0.542,0.054,0.798,783.325,107.177,-266.785,0,0,0,
,-0.515,0.022,0.809,799.499,118.53,-244.385,0,0,0,
,-0.498,-0.042,0.826,785.278,90.82,-217.225,0,0,0,
,-0.484,-0.114,0.842,715.881,63.842,-184.937,0,0,0,
,-0.454,-0.171,0.865,616.088,7.202,-138.184,0,0,0,
,-0.457,-0.208,0.905,477.111,-67.994,-84.778,0,0,0,
,-0.451,-0.235,0.931,327.331,-136.475,-22.156,0,0,0,
,-0.481,-0.252,0.96,164.611,-202.454,27.771,0,0,0,
,-0.49,-0.22,0.948,20.385,-227.478,68.054,0,0,0,
,-0.487,-0.179,0.939,-51.453,-247.742,69.091,0,0,0,
,-0.497,-0.159,0.906,-107.789,-244.507,51.818,0,0,0,
,-0.507,-0.151,0.859,-126.587,-233.826,56.762,0,0,0,
,-0.51,-0.138,0.838,-147.889,-230.652,67.016,0,0,0,
,-0.534,-0.104,0.837,-173.768,-243.287,83.252,0,0,0,
,-0.57,-0.019,0.856,-129.639,-236.878,96.74,0,0,0,
,-0.615,-0.03,0.863,-20.752,-181.214,84.167,0,0,0,
,-0.622,-0.098,0.838,68.786,-97.107,86.059,0,0,0,
,-0.599,-0.14,0.823,116.211,-35.462,80.627,0,0,0,
,-0.592,-0.118,0.825,147.766,-12.452,83.557,0,0,0,
,-0.602,-0.104,0.865,208.13,10.681,65.368,0,0,0,
,-0.605,-0.092,0.869,307.8,55.664,60.302,0,0,0,
,-0.594,-0.152,0.847,386.596,114.38,46.936,0,0,0,
,-0.552,-0.219,0.82,389.953,137.268,25.878,0,0,0,
,-0.572,-0.22,0.834,363.403,127.929,17.639,0,0,0,
,-0.588,-0.251,0.819,363.708,171.997,-33.875,0,0,0,
,-0.563,-0.307,0.807,369.079,224.548,-28.382,0,0,0,
,-0.529,-0.391,0.75,263.916,239.99,-18.555,0,0,0,
,-0.495,-0.4,0.72,127.99,200.073,-5.31,0,0,0,
,-0.505,-0.407,0.705,-10.682,142.028,9.582,0,0,0,
,-0.512,-0.399,0.717,-161.866,72.998,14.16,0,0,0,
,-0.571,-0.382,0.792,-271.729,56.335,38.818,0,0,0,
,-0.553,-0.329,0.807,-376.282,90.148,62.988,0,0,0,
,-0.55,-0.302,0.837,-426.514,93.2,76.171,0,0,0,
,-0.529,-0.244,0.826,-495.667,114.929,94.116,0,0,0,
,-0.503,-0.169,0.818,-503.418,111.145,98.571,0,0,0,
,-0.498,-0.137,0.823,-493.775,93.383,108.581,0,0,0,
,-0.499,-0.082,0.844,-450.501,63.476,109.375,0,0,0,
,-0.498,-0.09,0.897,-389.466,67.749,113.83,0,0,0,
,-0.475,-0.077,0.914,-323.487,52.246,100.463,0,0,0,
,-0.435,-0.09,0.924,-257.691,32.226,132.568,0,0,0,
,-0.507,-0.029,0.992,-137.757,-7.996,104.37,0,0,0,
,-0.435,-0.151,0.902,-68.299,-9.278,122.192,0,0,0,
,-0.494,-0.22,0.924,-106.69,-55.97,144.165,0,0,0,
,-0.477,-0.259,0.887,-214.234,-26.49,136.413,0,0,0,
,-0.488,-0.231,0.902,-361.268,-54.322,151.977,0,0,0,
,-0.497,-0.139,0.904,-454.834,-34.668,162.475,0,0,0,
,-0.482,-0.098,0.885,-488.404,-34.607,176.147,0,0,0,
,-0.512,-0.077,0.862,-494.446,-43.213,197.754,0,0,0,
,-0.508,-0.049,0.837,-470.765,-16.602,202.758,0,0,0,
,-0.51,-0.074,0.791,-439.026,-6.47,228.637,0,0,0,
,-0.51,-0.063,0.787,-427.185,-15.198,246.521,0,0,0,
,-0.516,-0.05,0.797,-434.632,-26.917,241.821,0,0,0,
,-0.499,-0.025,0.853,-447.51,-31.006,215.21,0,0,0,
,-0.513,0.009,0.891,-400.696,-82.398,181.64,0,0,0,
,-0.534,0.023,0.95,-335.083,-81.299,154.541,0,0,0,
,-0.502,0.038,0.998,-263.123,-85.999,122.497,0,0,0,
,-0.519,0.205,1.094,194.152,-144.043,12.878,0,0,0,
,-0.518,0.117,1.026,385.254,-98.633,-24.537,0,0,0,
,-0.464,0.049,0.966,539.245,-107.911,-43.763,0,0,0,
,-0.453,-0.088,0.934,603.881,-149.842,-66.773,0,0,0,
,-0.498,-0.112,0.946,581.726,-192.444,-99.183,0,0,0,
,-0.564,-0.115,0.807,601.867,-131.897,-138.855,0,0,0,
,-0.572,-0.173,0.748,635.803,-111.268,-185.547,0,0,0,
,-0.618,-0.216,0.7,626.403,-73.792,-185.425,0,0,0,
,-0.633,-0.195,0.677,608.337,-25.269,-194.886,0,0,0,
,-0.637,-0.199,0.654,618.896,13.671,-208.435,0,0,0,
,-0.647,-0.155,0.667,648.803,26.855,-215.21,0,0,0,
,-0.66,-0.112,0.674,708.984,68.237,-235.352,0,0,0,
,-0.666,-0.143,0.67,793.701,115.417,-246.033,0,0,0,
,-0.661,-0.226,0.661,820.678,143.921,-229.187,0,0,0,
,-0.648,-0.254,0.681,798.156,166.015,-209.351,0,0,0,
,-0.643,-0.283,0.725,770.141,194.152,-229.432,0,0,0,
,-0.636,-0.393,0.737,713.562,251.464,-225.403,0,0,0,
,-0.58,-0.465,0.704,584.716,283.264,-216.248,0,0,0,
,-0.572,-0.51,0.707,436.706,271.545,-174.561,0,0,0,
,-0.554,-0.514,0.71,252.624,293.029,-143.982,0,0,0,
,-0.503,-0.483,0.698,53.527,281.25,-118.47,0,0,0,
,-0.5,-0.441,0.732,-112.366,230.59,-79.834,0,0,0,
,-0.517,-0.383,0.77,-234.803,216.491,-33.753,0,0,0,
,-0.507,-0.358,0.797,-313.721,202.88,4.638,0,0,0,
,-0.49,-0.325,0.847,-550.782,172.729,93.2,0,0,0,
,-0.473,-0.287,0.86,-650.452,164.306,109.558,0,0,0,
,-0.463,-0.25,0.883,-718.445,125.183,131.53,0,0,0,
,-0.451,-0.196,0.926,-774.476,103.454,155.944,0,0,0,
,-0.449,-0.15,0.91,-787.11,64.697,165.71,0,0,0,
,-0.424,-0.085,0.973,-749.939,48.645,178.222,0,0,0,
,-0.467,-0.026,0.953,-704.651,29.235,202.942,0,0,0,
,-0.471,-0.027,0.976,-562.867,61.645,197.326,0,0,0,
,-0.43,-0.019,0.945,-433.289,55.969,203.186,0,0,0,
,-0.429,-0.055,0.947,-322.876,18.676,211.792,0,0,0,
,-0.422,-0.103,0.949,-251.465,-19.959,200.439,0,0,0,
,-0.463,-0.153,0.941,-247.254,-60.12,172.485,0,0,0,
,-0.469,-0.167,0.931,-254.212,-44.312,169.738,0,0,0,
,-0.473,-0.184,0.903,-277.832,-35.096,165.344,0,0,0,
,-0.454,-0.137,0.867,-315.43,-51.697,163.879,0,0,0,
,-0.462,-0.108,0.87,-329.59,-88.379,148.376,0,0,0,
,-0.474,-0.106,0.895,-333.435,-116.883,129.333,0,0,0,
,-0.474,-0.089,0.916,-350.708,-136.353,108.337,0,0,0,
,-0.493,-0.046,0.932,-343.201,-157.959,87.524,0,0,0,
,-0.506,0.011,0.951,-296.631,-148.743,74.707,0,0,0,
,-0.507,0.067,0.978,-199.158,-140.137,51.147,0,0,0,
,-0.509,0.082,0.998,-63.477,-108.277,25.146,0,0,0,
,-0.49,0.093,0.99,98.266,-79.407,-15.32,0,0,0,
,-0.489,0.055,0.948,246.765,-61.219,-43.396,0,0,0,
,-0.484,0.026,0.913,377.746,-52.43,-79.346,0,0,0,
,-0.496,-0.061,0.897,473.51,-58.167,-105.225,0,0,0,
,-0.511,-0.071,0.882,530.212,-53.772,-124.695,0,0,0,
,-0.524,-0.129,0.868,557.006,-44.678,-139.527,0,0,0,
,-0.528,-0.191,0.841,544.128,-36.622,-148.255,0,0,0,
,-0.531,-0.254,0.796,482.299,-41.016,-149.048,0,0,0,
,-0.532,-0.259,0.812,399.231,-54.078,-156.373,0,0,0,
,-0.549,-0.263,0.809,323.303,-54.749,-162.049,0,0,0,
,-0.547,-0.241,0.812,265.442,-46.143,-167.481,0,0,0,
,-0.565,-0.203,0.814,237.426,-38.331,-174.134,0,0,0,
,-0.557,-0.158,0.804,232.299,-27.649,-176.575,0,0,0,
,-0.576,-0.136,0.809,247.375,-19.532,-185.852,0,0,0,
,-0.58,-0.138,0.802,261.291,1.953,-209.473,0,0,0,
,-0.581,-0.144,0.797,281.86,20.629,-211.548,0,0,0,
,-0.594,-0.152,0.776,285.522,38.513,-217.896,0,0,0,
,-0.552,-0.113,0.799,272.644,72.631,-221.619,0,0,0,
,-0.592,-0.14,0.794,316.345,73.852,-215.455,0,0,0,
,-0.585,-0.186,0.776,308.288,137.451,-215.088,0,0,0,
,-0.544,-0.226,0.766,235.901,164.123,-190.796,0,0,0,
,-0.547,-0.253,0.781,168.335,161.987,-168.946,0,0,0,
,-0.532,-0.246,0.795,82.275,177.673,-139.954,0,0,0,
,-0.498,-0.254,0.797,-41.993,165.222,-115.357,0,0,0,
,-0.518,-0.261,0.834,-171.57,135.62,-104.92,0,0,0,
,-0.536,-0.184,0.864,-257.874,150.207,-101.502,0,0,0,
,-0.519,-0.12,0.885,-245.301,175.598,-83.374,0,0,0,
,-0.499,-0.092,0.872,-198.426,178.955,-54.078,0,0,0,
,-0.509,-0.1,0.875,-142.823,199.524,-77.027,0,0,0,
,-0.481,-0.084,0.834,-87.403,225.097,-74.097,0,0,0,
,-0.449,-0.082,0.846,-6.531,190.918,-36.255,0,0,0,
,-0.465,-0.103,0.878,41.626,159.729,-16.785,0,0,0,
,-0.409,-0.083,0.972,63.781,128.234,0,0,0,0,
,-0.487,-0.081,0.932,43.518,54.382,46.325,0,0,0,
,-0.482,-0.188,0.946,97.595,108.703,36.56,0,0,0,
,-0.443,-0.239,0.929,44.677,66.04,63.11,0,0,0,
,-0.447,-0.238,0.932,-18.799,69.702,76.782,0,0,0,
,-0.419,-0.298,0.923,-118.409,35.461,107.788,0,0,0,
,-0.431,-0.284,0.916,-211.853,3.051,141.54,0,0,0,
,-0.429,-0.26,0.907,-321.9,-14.649,165.344,0,0,0,
,-0.454,-0.181,0.923,-409.974,-39.063,169.006,0,0,0,
,-0.456,-0.105,0.946,-441.529,-20.569,170.349,0,0,0,
,-0.447,-0.072,0.93,-430.97,-19.41,179.931,0,0,0,
,-0.466,-0.077,0.894,-403.443,-22.889,193.847,0,0,0,
,-0.455,-0.05,0.888,-383.545,-22.461,209.289,0,0,0,
,-0.454,-0.046,0.909,-368.287,-35.34,200.866,0,0,0,
,-0.463,-0.07,0.926,-350.464,-28.931,189.88,0,0,0,
,-0.468,-0.061,0.949,-332.825,-24.476,181.03,0,0,0,
,-0.463,-0.042,0.953,-314.27,-11.658,174.011,0,0,0,
,-0.455,-0.027,0.966,-278.992,-12.207,165.039,0,0,0,
,-0.437,-0.026,0.966,-242.859,-25.757,157.165,0,0,0,
,-0.426,-0.037,0.979,-204.224,-40.955,153.32,0,0,0,
,-0.416,-0.057,0.996,-190.43,-58.228,144.226,0,0,0,
,-0.419,-0.05,1.009,-177.857,-82.52,135.925,0,0,0,
,-0.426,-0.043,0.994,-146.546,-107.972,125.122,0,0,0,
,-0.428,-0.017,0.965,-103.516,-137.818,111.023,0,0,0,
,-0.453,-0.004,0.967,-44.678,-164.856,92.529,0,0,0,
,-0.472,0.005,0.958,44.433,-176.941,65.979,0,0,0,
,-0.493,0.008,0.946,112.854,-187.5,32.592,0,0,0,
,-0.51,0.02,0.938,213.806,-189.026,-5.433,0,0,0,
,-0.52,0.009,0.921,334.228,-180.115,-48.34,0,0,0,
,-0.524,-0.028,0.883,455.627,-166.138,-90.332,0,0,0,
,-0.522,-0.039,0.847,567.871,-156.067,-133.179,0,0,0,
,-0.544,-0.072,0.808,661.499,-156.678,-159.79,0,0,0,
,-0.551,-0.083,0.789,753.357,-135.498,-194.764,0,0,0,
,-0.556,-0.11,0.764,824.646,-122.498,-238.648,0,0,0,
,-0.588,-0.173,0.75,870.3,-105.652,-273.926,0,0,0,
,-0.592,-0.238,0.715,888.549,-68.482,-286.56,0,0,0,
,-0.589,-0.289,0.706,863.159,-44.068,-299.256,0,0,0,
,-0.604,-0.333,0.713,793.274,-10.254,-300.782,0,0,0,
,-0.616,-0.348,0.719,712.951,29.419,-298.096,0,0,0,
,-0.601,-0.361,0.691,625.671,78.491,-282.41,0,0,0,
,-0.586,-0.368,0.679,508.484,81.848,-262.818,0,0,0,
,-0.613,-0.337,0.678,403.137,94.177,-231.324,0,0,0,
,-0.614,-0.288,0.662,326.721,124.572,-206.727,0,0,0,
,-0.598,-0.246,0.658,261.779,136.901,-174.5,0,0,0,
,-0.628,-0.208,0.693,207.58,158.325,-137.879,0,0,0,
,-0.621,-0.216,0.712,173.767,228.332,-107.544,0,0,0,
,-0.588,-0.237,0.706,142.517,276.672,-72.449,0,0,0,
,-0.555,-0.254,0.713,105.468,302.612,-28.138,0,0,0,
,-0.484,-0.381,0.783,-35.706,305.725,75.927,0,0,0,
,-0.469,-0.462,0.842,-180.054,297.729,131.713,0,0,0,
,-0.437,-0.508,0.881,-330.567,271.545,172.241,0,0,0,
,-0.407,-0.481,0.917,-509.217,218.75,201.599,0,0,0,
,-0.396,-0.44,0.933,-671.082,181.945,222.534,0,0,0,
,-0.433,-0.335,0.997,-766.846,121.826,217.285,0,0,0,
,-0.415,-0.226,0.995,-757.508,109.863,197.204,0,0,0,
,-0.43,-0.146,1,-673.584,74.89,179.26,0,0,0,
,-0.414,-0.094,0.971,-545.899,58.41,159.851,0,0,0,
,-0.306,-0.102,1.061,-442.505,21.057,154.48,0,0,0,
,-0.425,0.008,1.051,-355.774,-73.487,158.02,0,0,0,
,-0.418,-0.143,0.994,-236.512,-3.357,155.822,0,0,0,
,-0.418,-0.246,0.904,-273.926,-104.065,188.476,0,0,0,
,-0.426,-0.195,0.869,-351.685,-113.221,188.598,0,0,0,
,-0.465,-0.177,0.885,-425.843,-124.085,172.18,0,0,0,
,-0.477,-0.14,0.86,-453.431,-87.525,183.838,0,0,0,
,-0.504,-0.105,0.849,-444.092,-69.458,191.528,0,0,0,
,-0.512,-0.066,0.819,-412.232,-34.363,198.364,0,0,0,
,-0.512,-0.054,0.817,-333.985,-18.006,214.599,0,0,0,
,-0.499,-0.067,0.821,-264.222,-5.433,225.219,0,0,0,
,-0.495,-0.14,0.829,-243.409,-3.907,217.59,0,0,0,
,-0.483,-0.15,0.855,-266.968,-6.531,192.443,0,0,0,
,-0.483,-0.146,0.911,-303.894,-1.77,160.644,0,0,0,
,-0.448,0.01,0.998,-230.713,-20.569,128.662,0,0,0,
,-0.49,-0.097,0.994,-60.547,-7.081,55.481,0,0,0,
,-0.487,-0.224,0.97,-45.777,11.657,29.541,0,0,0,
,-0.446,-0.213,0.959,-139.344,-4.212,21.728,0,0,0,
,-0.452,-0.185,0.948,-241.456,-31.311,16.357,0,0,0,
,-0.438,-0.11,0.929,-325.379,-56.885,24.902,0,0,0,
,-0.405,0.016,0.919,-346.436,-101.807,5.188,0,0,0,
,-0.431,0.141,0.923,-251.526,-168.641,-5.005,0,0,0,
,-0.478,0.169,0.934,-71.412,-191.224,-10.376,0,0,0,
,-0.496,0.192,0.943,124.084,-202.271,-12.818,0,0,0,
,-0.524,0.15,0.931,330.505,-180.115,-36.56,0,0,0,
,-0.53,0.058,0.895,484.253,-142.029,-57.251,0,0,0,
,-0.523,-0.026,0.857,566.772,-116.822,-64.515,0,0,0,
,-0.526,-0.085,0.837,625.671,-96.924,-93.018,0,0,0,
,-0.547,-0.18,0.82,642.089,-51.636,-124.695,0,0,0,
,-0.543,-0.288,0.765,562.561,15.625,-125.672,0,0,0,
,-0.541,-0.359,0.718,393.859,24.963,-122.742,0,0,0,
,-0.55,-0.332,0.726,208.923,42.968,-117.127,0,0,0,
,-0.572,-0.306,0.725,72.876,60.913,-130.188,0,0,0,
,-0.587,-0.286,0.736,-46.265,93.505,-135.315,0,0,0,
,-0.573,-0.196,0.764,-125.977,122.802,-133.24,0,0,0,
,-0.571,-0.13,0.774,-111.023,154.724,-138.672,0,0,0,
,-0.553,-0.122,0.764,-106.141,199.035,-137.207,0,0,0,
,-0.515,-0.134,0.765,-96.497,229.309,-145.508,0,0,0,
,-0.485,-0.168,0.776,-110.291,231.262,-167.603,0,0,0,
,-0.464,-0.18,0.796,-156.373,226.135,-190.613,0,0,0,
,-0.463,-0.194,0.822,-208.008,203.552,-219.544,0,0,0,
,-0.459,-0.166,0.851,-259.949,214.538,-229.676,0,0,0,
,-0.447,-0.088,0.892,-298.706,198.974,-226.807,0,0,0,
,-0.448,-0.024,0.931,-277.649,166.809,-217.469,0,0,0,
,-0.456,-0.001,0.957,-220.887,155.639,-204.956,0,0,0,
,-0.433,0.004,0.981,-173.462,164.001,-197.083,0,0,0,
,-0.408,0.031,0.972,-131.775,149.109,-199.952,0,0,0,
,-0.405,0.039,0.985,-82.764,134.094,-229.554,0,0,0,
,-0.405,0.051,1.018,-29.847,142.028,-254.334,0,0,0,
,-0.399,0.111,1.02,32.165,165.71,-256.653,0,0,0,
,-0.395,0.169,1.014,152.221,174.987,-257.691,0,0,0,
,-0.394,0.147,1.017,295.715,187.744,-253.479,0,0,0,
,-0.311,0.143,1.189,431.579,172.485,-229.004,0,0,0,
,-0.289,0.034,1.108,483.398,121.338,-207.398,0,0,0,
,-0.327,0.041,1.097,443.359,16.784,-198.975,0,0,0,
,-0.396,-0.004,1.026,400.268,5.737,-187.867,0,0,0,
,-0.389,0.03,0.963,346.069,-3.602,-153.87,0,0,0,
,-0.394,0.074,0.952,389.953,-10.743,-133.789,0,0,0,
,-0.409,-0.023,0.968,427.49,-5.372,-104.554,0,0,0,
,-0.386,-0.107,0.952,394.287,4.455,-80.628,0,0,0,
,-0.38,-0.135,0.964,328.308,-16.114,-77.698,0,0,0,
,-0.363,-0.145,0.964,295.044,-20.508,-65.674,0,0,0,
,-0.384,-0.118,1.003,272.522,-63.172,-63.721,0,0,0,
,-0.388,-0.169,1.005,243.957,-24.476,-75.989,0,0,0,
,-0.365,-0.131,1.003,193.542,-28.504,-58.655,0,0,0,
,-0.405,-0.11,0.996,237.121,-23.133,-66.04,0,0,0,
,-0.361,-0.124,0.989,267.578,-29.297,-62.684,0,0,0,
,-0.389,-0.127,0.983,372.985,-99.671,-88.013,0,0,0,
,-0.392,-0.196,0.964,422.18,-106.202,-85.816,0,0,0,
,-0.396,-0.249,0.943,419.616,-119.324,-95.459,0,0,0,
,-0.396,-0.305,0.898,374.206,-131.531,-99.427,0,0,0,
,-0.409,-0.324,0.873,307.19,-155.396,-102.173,0,0,0,
,-0.428,-0.35,0.842,213.562,-170.655,-96.802,0,0,0,
,-0.457,-0.371,0.826,117.92,-179.261,-79.59,0,0,0,
,-0.447,-0.402,0.787,6.591,-177.247,-64.331,0,0,0,
,-0.459,-0.351,0.781,-122.193,-217.286,-39.368,0,0,0,
,-0.482,-0.238,0.799,-180.359,-244.019,-31.495,0,0,0,
,-0.489,-0.224,0.805,-184.266,-272.828,-15.32,0,0,0,
,-0.516,-0.226,0.803,-209.534,-295.472,13.916,0,0,0,
,-0.516,-0.241,0.791,-260.315,-314.454,46.325,0,0,0,
,-0.53,-0.238,0.781,-311.28,-344.178,88.928,0,0,0,
,-0.556,-0.216,0.781,-361.695,-345.948,124.206,0,0,0,
,-0.56,-0.207,0.762,-409.607,-322.937,137.512,0,0,0,
,-0.572,-0.219,0.717,-471.253,-305.298,145.813,0,0,0,
,-0.582,-0.205,0.68,-551.819,-288.514,150.695,0,0,0,
,-0.606,-0.156,0.668,-622.681,-268.982,149.963,0,0,0,
,-0.631,-0.096,0.685,-647.583,-227.906,160.522,0,0,0,
,-0.641,-0.097,0.703,-623.047,-174.927,171.692,0,0,0,
,-0.647,-0.107,0.743,-600.769,-117.981,181.701,0,0,0,
,-0.651,-0.094,0.78,-619.751,-47.852,177.734,0,0,0,
,-0.643,-0.067,0.803,-632.752,24.108,165.588,0,0,0,
,-0.62,0.03,0.824,-631.836,81.97,153.747,0,0,0,
,-0.608,0.05,0.855,-564.698,109.558,148.376,0,0,0,
,-0.593,0.023,0.875,-447.998,141.906,143.676,0,0,0,
,-0.55,-0.044,0.924,-411.072,158.874,131.591,0,0,0,
,-0.5,-0.033,0.955,-403.138,140.197,103.088,0,0,0,
,-0.527,0.032,1.002,-277.771,41.015,25.817,0,0,0,
,-0.525,0,0.947,-191.651,12.39,4.516,0,0,0,
,-0.544,-0.018,0.924,-132.081,-39.673,-1.831,0,0,0,
,-0.57,-0.038,0.885,-135.926,-36.927,-8.179,0,0,0,
,-0.564,-0.06,0.817,-181.763,-42.847,-14.771,0,0,0,
,-0.574,-0.076,0.794,-255.738,-59.998,-17.579,0,0,0,
,-0.583,-0.029,0.794,-330.628,-53.04,-38.514,0,0,0,
,-0.597,-0.027,0.799,-362.915,-25.574,-71.412,0,0,0,
,-0.603,0.022,0.826,-385.437,14.831,-86.67,0,0,0,
,-0.606,0.091,0.851,-369.324,66.711,-93.811,0,0,0,
,-0.579,0.133,0.822,-332.337,137.756,-110.474,0,0,0,
,-0.562,0.206,0.77,-239.258,114.502,-123.414,0,0,0,
,-0.563,0.221,0.799,-169.922,94.482,-150.208,0,0,0,
,-0.581,0.231,0.831,-90.821,88.195,-170.533,0,0,0,
,-0.572,0.264,0.856,-0.123,106.689,-205.506,0,0,0,
,-0.583,0.303,0.861,122.802,143.554,-227.845,0,0,0,
,-0.564,0.337,0.847,301.208,187.072,-251.16,0,0,0,
,-0.382,0.03,0.901,466.858,56.579,-215.394,0,0,0,
,-0.579,0.094,0.993,447.631,9.033,-260.987,0,0,0,
,-0.424,0.013,0.891,398.864,16.418,-250.611,0,0,0,
,-0.53,0.073,0.929,314.453,-11.414,-247.62,0,0,0,
,-0.488,0.098,0.849,285.095,-21.607,-230.774,0,0,0,
,-0.523,0.152,0.843,297.485,-19.898,-231.568,0,0,0,
,-0.5,0.175,0.888,372.009,-19.959,-259.766,0,0,0,
,-0.522,0.193,0.826,465.759,-13.184,-260.01,0,0,0,
,-0.52,0.134,0.795,524.841,-11.231,-256.104,0,0,0,
,-0.549,0.148,0.815,559.692,-33.509,-252.625,0,0,0,
,-0.553,0.148,0.797,626.159,-12.269,-251.282,0,0,0,
,-0.582,0.109,0.775,684.326,-4.273,-240.845,0,0,0,
,-0.586,0.126,0.764,748.596,13.488,-241.883,0,0,0,
,-0.579,0.095,0.755,829.712,46.142,-242.737,0,0,0,
,-0.573,0.022,0.763,882.385,61.767,-228.394,0,0,0,
,-0.573,-0.061,0.751,888.672,84.899,-221.131,0,0,0,
,-0.55,-0.097,0.757,858.276,95.947,-217.041,0,0,0,
,-0.561,-0.106,0.793,817.871,102.234,-212.586,0,0,0,
,-0.539,-0.152,0.844,773.193,125.549,-225.037,0,0,0,
,-0.524,-0.195,0.859,705.688,128.784,-184.327,0,0,0,
,-0.365,-0.195,0.981,641.052,102.295,-135.193,0,0,0,
,-0.454,-0.358,0.897,452.087,60.607,-55.176,0,0,0,
,-0.455,-0.459,0.942,231.872,5.859,1.464,0,0,0,
,-0.43,-0.403,0.94,-6.165,-31.922,55.114,0,0,0,
,-0.406,-0.288,0.952,-171.631,-58.472,94.726,0,0,0,
,-0.412,-0.235,0.964,-243.164,-116.394,123.535,0,0,0,
,-0.438,-0.223,0.959,-270.447,-147.217,128.723,0,0,0,
,-0.453,-0.263,0.942,-336.67,-169.922,133.361,0,0,0,
,-0.449,-0.204,0.924,-423.829,-203.125,139.587,0,0,0,
,-0.473,-0.163,0.844,-441.529,-228.699,152.893,0,0,0,
,-0.495,-0.187,0.823,-465.027,-251.893,171.814,0,0,0,
,-0.523,-0.127,0.8,-484.314,-292.115,216.308,0,0,0,
,-0.578,-0.152,0.798,-470.032,-307.068,204.712,0,0,0,
,-0.603,-0.112,0.803,-477.234,-282.593,220.825,0,0,0,
,-0.619,-0.095,0.726,-480.225,-196.961,221.801,0,0,0,
,-0.646,-0.03,0.728,-427.552,-169.129,232.91,0,0,0,
,-0.678,-0.031,0.751,-364.258,-117.737,205.2,0,0,0,
,-0.655,0.038,0.764,-269.593,-37.964,178.527,0,0,0,
,-0.63,-0.041,0.751,-176.575,11.84,128.906,0,0,0,
,-0.613,-0.088,0.736,-168.152,39.794,128.601,0,0,0,
,-0.595,-0.107,0.766,-174.134,47.363,123.84,0,0,0,
,-0.599,-0.169,0.775,-219.544,56.091,131.042,0,0,0,
,-0.597,-0.153,0.81,-328.858,70.678,118.957,0,0,0,
,-0.601,-0.175,0.774,-435.852,111.145,120.422,0,0,0,
,-0.565,-0.12,0.9,-528.26,88.134,109.253,0,0,0,
,-0.569,-0.121,0.888,-597.229,109.985,89.233,0,0,0,
,-0.543,-0.065,0.93,-640.931,79.101,93.139,0,0,0,
,-0.554,-0.043,0.943,-659.485,98.755,73.791,0,0,0,
,-0.523,0.089,0.918,-647.522,106.689,50.598,0,0,0,
,-0.521,0.128,0.909,-595.887,80.505,48.278,0,0,0,
,-0.527,0.14,0.903,-535.096,45.044,58.898,0,0,0,
,-0.539,0.197,0.917,-464.539,7.507,60.607,0,0,0,
,-0.569,0.222,0.933,-345.52,0.976,36.621,0,0,0,
,-0.564,0.19,0.93,-241.272,24.108,20.08,0,0,0,
,-0.533,0.166,0.916,-182.373,10.803,-8.667,0,0,0,
,-0.534,0.123,0.926,-155.396,-16.358,-52.124,0,0,0,
,-0.578,0.091,0.915,-134.095,-10.193,-84.168,0,0,0,
,-0.56,0.137,0.916,-140.686,67.749,-95.276,0,0,0,
,-0.503,0.206,0.716,-221.619,190.857,-111.145,0,0,0,
,-0.493,0.26,0.719,-171.021,79.528,-100.525,0,0,0,
,-0.563,0.279,0.843,-77.759,61.645,-101.502,0,0,0,
,-0.503,0.307,0.818,10.681,53.527,-118.897,0,0,0,
,-0.531,0.209,0.889,98.327,-32.288,-133.179,0,0,0,
,-0.553,0.177,0.904,109.741,-7.752,-136.048,0,0,0,
,-0.503,0.143,0.847,129.333,-12.757,-158.265,0,0,0,
,-0.558,0.196,0.797,160.522,-31.189,-178.162,0,0,0,
,-0.541,0.244,0.792,261.291,-6.043,-217.53,0,0,0,
,-0.54,0.238,0.763,407.226,4.699,-270.447,0,0,0,
,-0.538,0.18,0.768,496.46,0.671,-306.702,0,0,0,
,-0.557,0.17,0.757,566.467,8.667,-347.352,0,0,0,
,-0.596,0.235,0.711,799.682,90.515,-404.786,0,0,0,
,-0.587,0.187,0.72,925.109,89.355,-388.977,0,0,0,
,-0.581,0.082,0.753,994.873,115.783,-363.221,0,0,0,
,-0.573,0.036,0.799,981.933,110.168,-328.37,0,0,0,
,-0.542,-0.018,0.819,967.041,138.488,-303.284,0,0,0,
,-0.51,-0.066,0.807,922.119,122.131,-268.433,0,0,0,
,-0.498,-0.128,0.829,891.784,101.623,-235.779,0,0,0,
,-0.479,-0.153,0.864,831.97,95.398,-218.689,0,0,0,
,-0.457,-0.283,0.84,684.631,70.739,-184.388,0,0,0,
,-0.501,-0.17,0.916,538.33,12.207,-152.832,0,0,0,
,-0.484,-0.183,0.888,426.635,47.485,-122.62,0,0,0,
,-0.49,-0.185,0.883,336.12,33.203,-88.379,0,0,0,
,-0.453,-0.118,0.893,271.728,0.183,10.62,0,0,0,
,-0.445,-0.204,0.902,209.838,-18.799,63.049,0,0,0,
,-0.433,-0.251,0.922,92.773,-84.473,86.486,0,0,0,
,-0.446,-0.266,0.991,-29.908,-130.738,109.497,0,0,0,
,-0.445,-0.262,0.975,-212.708,-132.019,125.549,0,0,0,
,-0.446,-0.279,1.007,-325.44,-162.476,117.492,0,0,0,
,-0.491,-0.191,1.023,-413.086,-136.414,112.548,0,0,0,
,-0.463,-0.184,0.988,-480.591,-108.826,141.296,0,0,0,
,-0.461,-0.12,0.966,-543.03,-117.249,140.991,0,0,0,
,-0.46,-0.085,0.935,-568.36,-96.558,137.268,0,0,0,
,-0.478,-0.104,0.89,-607.422,-133.301,157.043,0,0,0,
,-0.521,-0.066,0.876,-639.832,-145.203,164.062,0,0,0,
,-0.542,-0.072,0.866,-651.246,-129.395,155.944,0,0,0,
,-0.547,-0.052,0.887,-655.396,-137.207,138.183,0,0,0,
,-0.557,-0.019,0.868,-651.49,-139.832,134.094,0,0,0,
,-0.59,0.035,0.839,-626.709,-112.854,117.736,0,0,0,
,-0.563,0.059,0.802,-580.811,-96.009,92.346,0,0,0,
,-0.594,0.075,0.792,-499.024,-106.446,74.829,0,0,0,
,-0.615,0.103,0.797,-437.134,-64.209,57.739,0,0,0,
,-0.616,0.161,0.787,-330.079,-12.269,46.386,0,0,0,
,-0.594,0.133,0.756,-197.205,32.104,24.353,0,0,0,
,-0.58,0.105,0.716,-147.339,58.349,-33.081,0,0,0,
,-0.596,0.136,0.686,-89.966,56.03,-55.176,0,0,0,
,-0.608,0.132,0.687,13.061,48.095,-71.167,0,0,0,
,-0.636,0.071,0.689,50.415,60.424,-76.233,0,0,0,
,-0.619,0.04,0.681,31.189,80.566,-69.214,0,0,0,
,-0.619,0.023,0.689,-10.132,92.529,-53.711,0,0,0,
,-0.625,0.004,0.686,-79.956,98.816,-27.222,0,0,0,
,-0.591,0.059,0.7,-279.664,115.417,8.667,0,0,0,
,-0.573,0.138,0.75,-343.995,109.619,46.447,0,0,0,
,-0.559,0.201,0.778,-379.334,120.3,39.306,0,0,0,
,-0.574,0.31,0.826,-360.23,129.211,49.682,0,0,0,
,-0.552,0.338,0.835,-261.78,197.509,36.193,0,0,0,
,-0.513,0.321,0.858,-166.138,234.924,26.245,0,0,0,
,-0.471,0.319,0.88,-55.909,246.521,2.014,0,0,0,
,-0.438,0.245,0.948,40.954,268.127,-38.208,0,0,0,
,-0.388,0.233,0.909,-16.236,190.063,11.474,0,0,0,
,-0.474,0.241,0.977,15.808,127.99,-2.991,0,0,0,
,-0.463,0.254,0.952,54.931,158.02,6.408,0,0,0,
,-0.459,0.209,0.911,67.077,135.62,9.155,0,0,0,
,-0.474,0.224,0.904,71.899,110.839,9.521,0,0,0,
,-0.464,0.211,0.899,102.905,102.295,15.258,0,0,0,
,-0.468,0.17,0.9,138.549,85.632,21.789,0,0,0,
,-0.486,0.143,0.875,135.742,84.228,33.081,0,0,0,
,-0.473,0.15,0.847,115.6,95.459,48.645,0,0,0,
,-0.457,0.146,0.857,127.868,98.693,26.123,0,0,0,
,-0.439,0.099,0.849,110.656,70.983,24.902,0,0,0,
,-0.447,0.111,0.902,120.178,32.898,3.662,0,0,0,
,-0.467,0.121,0.959,147.888,21.301,-23.255,0,0,0,
,-0.467,0.126,0.972,196.838,23.559,-50.354,0,0,0,
,-0.474,0.112,0.961,266.967,72.815,-94.849,0,0,0,
,-0.447,0.087,0.929,353.698,93.322,-124.878,0,0,0,
,-0.433,0.019,0.911,404.907,82.214,-141.236,0,0,0,
,-0.429,-0.032,0.914,384.521,65.856,-149.048,0,0,0,
,-0.444,-0.053,0.923,328.064,46.508,-161.377,0,0,0,
,-0.459,-0.041,0.946,269.409,50.354,-175.477,0,0,0,
,-0.462,-0.023,0.934,203.369,78.735,-179.688,0,0,0,
,-0.442,0.03,0.932,157.531,91.369,-175.904,0,0,0,
,-0.424,0.055,0.926,173.584,74.585,-167.237,0,0,0,
,-0.411,0.062,0.943,191.284,53.283,-155.762,0,0,0,
,-0.41,0.067,0.957,199.829,23.986,-154.786,0,0,0,
,-0.428,0.079,0.988,216.369,0.488,-150.757,0,0,0,
,-0.444,0.078,1.021,233.215,3.723,-150.025,0,0,0,
,-0.433,0.072,1.03,261.23,30.822,-146.729,0,0,0,
,-0.411,0.069,1.031,298.645,35.827,-136.475,0,0,0,
,-0.399,0.062,1.015,320.861,23.132,-130.494,0,0,0,
,-0.389,0.06,1.01,340.149,0.488,-122.681,0,0,0,
,-0.392,0.057,1.021,375.366,-18.25,-118.897,0,0,0,
,-0.39,0.009,1.034,404.235,-22.889,-122.437,0,0,0,
,-0.377,-0.034,1.008,397.522,-17.945,-113.465,0,0,0,
,-0.372,-0.123,1.026,295.593,-67.444,-96.375,0,0,0,
,-0.425,-0.053,0.964,168.396,-144.959,-58.472,0,0,0,
,-0.436,-0.05,0.948,139.038,-152.344,-45.533,0,0,0,
,-0.438,-0.049,0.913,86.059,-165.162,-36.927,0,0,0,
,-0.461,-0.019,0.901,44.372,-193.909,-22.95,0,0,0,
,-0.467,-0.009,0.878,39.978,-199.646,2.014,0,0,0,
,-0.452,-0.04,0.853,28.869,-223.084,34.545,0,0,0,
,-0.469,-0.044,0.85,-17.029,-274.353,64.331,0,0,0,
,-0.499,-0.051,0.845,-54.627,-300.965,88.684,0,0,0,
,-0.503,-0.038,0.829,-71.839,-320.74,120.178,0,0,0,
,-0.524,-0.053,0.811,-82.825,-338.257,146.362,0,0,0,
,-0.557,-0.07,0.767,-119.507,-325.013,187.866,0,0,0,
,-0.586,-0.099,0.755,-133.24,-311.402,193.603,0,0,0,
,-0.61,-0.122,0.729,-160.767,-255.738,203.552,0,0,0,
,-0.605,-0.121,0.7,-175.538,-201.539,206.97,0,0,0,
,-0.622,-0.13,0.674,-194.764,-161.499,208.374,0,0,0,
,-0.649,-0.092,0.662,-208.313,-120.362,206.909,0,0,0,
,-0.67,-0.08,0.653,-188.355,-62.073,199.829,0,0,0,
,-0.669,-0.07,0.674,-154.053,-4.151,204.773,0,0,0,
,-0.637,-0.141,0.692,-155.152,78.735,194.885,0,0,0,
,-0.637,-0.144,0.707,-146.546,106.872,169.494,0,0,0,
,-0.614,-0.165,0.719,-157.776,138.916,156.25,0,0,0,
,-0.595,-0.14,0.721,-164.368,135.192,148.62,0,0,0,
,-0.587,-0.125,0.754,-143.982,135.925,136.718,0,0,0,
,-0.57,-0.097,0.786,-95.154,126.403,142.395,0,0,0,
,-0.576,-0.133,0.83,-32.532,140.014,129.516,0,0,0,
,-0.566,-0.168,0.858,-15.87,139.526,118.103,0,0,0,
,-0.525,-0.183,0.876,-30.213,140.319,89.233,0,0,0,
,-0.581,-0.184,0.854,-66.102,121.643,53.833,0,0,0,
,-0.544,-0.14,0.889,-66.956,175.048,53.894,0,0,0,
,-0.51,-0.226,0.901,-103.15,178.039,30.944,0,0,0,
,-0.493,-0.188,0.922,-163.819,148.681,21.301,0,0,0,
,-0.504,-0.145,0.937,-173.829,124.694,0.549,0,0,0,
,-0.497,-0.098,0.894,-172.486,112.915,-9.217,0,0,0,
,-0.503,-0.071,0.873,-156.983,96.435,-15.686,0,0,0,
,-0.514,-0.063,0.884,-134.095,94.604,-24.842,0,0,0,
,-0.51,-0.082,0.896,-108.643,106.567,-44.739,0,0,0,
,-0.509,-0.092,0.92,-75.257,108.825,-67.627,0,0,0,
,-0.535,-0.105,0.959,-9.522,126.037,-83.68,0,0,0,
,-0.516,-0.142,0.991,72.631,200.561,-100.831,0,0,0,
,-0.443,-0.204,0.949,89.416,238.769,-133.667,0,0,0,
,-0.441,-0.225,0.92,88.684,232.605,-200.684,0,0,0,
,-0.414,-0.212,0.873,1.953,235.778,-227.478,0,0,0,
,-0.475,-0.151,0.874,-65.674,180.542,-269.654,0,0,0,
,-0.516,-0.062,0.857,-92.102,194.275,-262.207,0,0,0,
,-0.451,-0.001,0.834,-77.21,221.496,-254.395,0,0,0,
,-0.428,-0.036,0.849,-90.088,201.538,-268.067,0,0,0,
,-0.413,-0.052,0.839,-140.015,154.235,-254.517,0,0,0,
,-0.418,-0.021,0.893,-208.008,129.699,-250.611,0,0,0,
,-0.404,0.04,0.9,-233.948,121.643,-253.968,0,0,0,
,-0.396,0.046,0.9,-204.834,119.384,-254.883,0,0,0,
,-0.392,0.06,0.896,-170.472,112.182,-259.156,0,0,0,
,-0.371,0.048,0.915,-161.438,125.488,-260.56,0,0,0,
,-0.35,0.059,0.914,-156.678,107.91,-278.443,0,0,0,
,-0.365,0.103,0.969,-146.302,62.683,-274.781,0,0,0,
,-0.395,0.132,1.049,-33.265,67.871,-280.03,0,0,0,
,-0.395,0.117,1.033,32.531,88.317,-276.734,0,0,0,
,-0.381,0.151,1.044,78.918,77.514,-281.067,0,0,0,
,-0.393,0.189,1.029,150.085,101.562,-287.659,0,0,0,
,-0.332,0.18,0.974,198.974,150.329,-302.491,0,0,0,
,-0.29,0.131,0.893,176.757,120.727,-313.05,0,0,0,
,-0.259,0.089,0.959,61.462,-3.235,-230.957,0,0,0,
,-0.365,0.201,1.018,-26.062,-103.333,-222.657,0,0,0,
,-0.428,0.27,1.011,12.207,-39.429,-197.571,0,0,0,
,-0.374,0.304,0.953,112.487,14.282,-160.462,0,0,0,
,-0.341,0.309,0.95,217.041,-9.217,-144.959,0,0,0,
,-0.348,0.28,0.955,284.484,-34.485,-137.513,0,0,0,
,-0.348,0.241,0.98,360.595,-47.73,-120.85,0,0,0,
,-0.358,0.19,1.002,427.551,-68.604,-87.159,0,0,0,
,-0.375,0.119,1.008,475.586,-76.111,-42.969,0,0,0,
,-0.37,0.003,0.994,432.556,-78.37,-5.555,0,0,0,
,-0.348,-0.057,0.962,292.48,-104.676,29.48,0,0,0,
,-0.336,-0.114,0.918,103.881,-156.373,61.706,0,0,0,
,-0.36,-0.139,0.886,-137.024,-229.248,108.154,0,0,0,
,-0.407,-0.057,0.904,-336.976,-296.998,166.931,0,0,0,
,-0.462,0.028,0.937,-427.002,-298.645,216.003,0,0,0,
,-0.492,0.053,0.93,-477.417,-246.399,231.384,0,0,0,
,-0.48,0.095,0.899,-494.324,-196.045,252.38,0,0,0,
,-0.518,0.067,0.847,-441.956,-127.625,274.292,0,0,0,
,-0.524,0.057,0.832,-453.858,-64.82,257.385,0,0,0,
,-0.492,0.054,0.762,-440.003,30.334,235.839,0,0,0,
,-0.473,0.045,0.708,-482.178,53.772,215.881,0,0,0,
,-0.45,0.117,0.694,-521.851,50.598,208.923,0,0,0,
,-0.463,0.155,0.745,-483.216,29.357,191.894,0,0,0,
,-0.493,0.155,0.815,-400.696,43.945,185.852,0,0,0,
,-0.513,0.139,0.859,-319.519,89.172,165.71,0,0,0,
,-0.481,0.151,0.864,-236.268,148.498,143.982,0,0,0,
,-0.428,0.127,0.805,-206.421,176.696,114.99,0,0,0,
,-0.377,0.099,0.752,-158.204,154.358,73.059,0,0,0,
,-0.406,0.03,0.772,-89.173,70.678,78.613,0,0,0,
,-0.468,0.079,0.853,-158.814,-31.25,83.007,0,0,0,
,-0.497,0.235,0.992,-237.977,-23.987,55.542,0,0,0,
,-0.547,0.225,1.051,-183.533,77.941,20.446,0,0,0,
,-0.475,0.286,1.081,-93.506,171.875,15.991,0,0,0,
,-0.401,0.38,1.031,106.75,171.447,-7.142,0,0,0,
,-0.442,0.142,0.937,300.72,208.923,-43.763,0,0,0,
,-0.376,0.044,0.894,229.37,229.675,-50.782,0,0,0,
,-0.386,0.141,0.97,35.095,122.192,-104.554,0,0,0,
,-0.348,0.118,1.004,19.348,82.519,-104.981,0,0,0,
,-0.393,0.204,1.122,80.627,-37.11,-131.043,0,0,0,
,-0.485,0.193,1.08,186.95,6.408,-146.119,0,0,0,
,-0.427,0.182,1.003,257.873,94.543,-149.598,0,0,0,
,-0.345,0.088,0.926,282.714,69.458,-149.353,0,0,0,
,-0.334,0.089,0.927,240.722,-16.785,-156.373,0,0,0,
,-0.394,0.119,0.943,228.515,-55.054,-168.824,0,0,0,
,-0.41,0.18,0.926,273.925,-8.667,-188.904,0,0,0,
,-0.387,0.179,0.888,346.923,28.808,-213.44,0,0,0,
,-0.379,-0.017,0.826,370.178,82.275,-237.854,0,0,0,
,-0.303,-0.156,0.86,214.233,1.953,-210.45,0,0,0,
,-0.369,-0.071,0.903,-13.611,-54.566,-196.9,0,0,0,
,-0.403,0.063,0.92,-110.84,-48.218,-215.455,0,0,0,
,-0.442,0.158,0.926,-68.116,1.525,-238.343,0,0,0,
,-0.431,0.249,0.937,54.199,35.4,-234.498,0,0,0,
,-0.424,0.206,0.947,178.711,56.762,-242.31,0,0,0,
,-0.406,0.202,0.957,251.831,55.114,-237.488,0,0,0,
,-0.394,0.249,0.975,290.161,26.672,-224.793,0,0,0,
,-0.397,0.287,1.002,366.027,-4.639,-209.29,0,0,0,
,-0.412,0.281,1.035,470.825,-3.968,-177.247,0,0,0,
,-0.399,0.21,1.006,526.245,9.948,-153.199,0,0,0,
,-0.37,0.138,1.004,505.127,-24.17,-126.648,0,0,0,
,-0.387,0.029,0.99,414.062,-89.783,-79.651,0,0,0,
,-0.376,-0.035,0.988,181.823,-145.508,-11.17,0,0,0,
,-0.388,0.037,0.965,-45.166,-231.385,30.822,0,0,0,
,-0.427,0.106,0.96,-134.949,-284.79,82.58,0,0,0,
,-0.45,0.15,0.952,-164.246,-287.049,136.779,0,0,0,
,-0.468,0.17,0.916,-144.349,-286.438,174.194,0,0,0,
,-0.496,0.161,0.887,-86.182,-270.935,188.781,0,0,0,
,-0.499,0.088,0.867,-50.049,-212.098,192.566,0,0,0,
,-0.485,0.066,0.858,-73.426,-234.864,207.763,0,0,0,
,-0.553,0.068,0.838,-87.83,-254.7,197.876,0,0,0,
,-0.61,0.052,0.829,-88.929,-179.017,201.721,0,0,0,
,-0.591,0.065,0.75,-106.385,-85.267,189.27,0,0,0,
,-0.596,0.045,0.689,-111.573,-39.002,195.617,0,0,0,
,-0.532,0.06,0.686,-98.267,35.339,190.612,0,0,0,
,-0.469,0.121,0.726,-50.66,30.578,190.979,0,0,0,
,-0.304,-0.047,0.774,98.632,125.183,186.157,0,0,0,
,-0.296,-0.16,0.822,32.409,36.804,205.566,0,0,0,
,-0.328,-0.213,0.856,-117.127,12.939,214.965,0,0,0,
,-0.329,-0.198,0.932,-260.315,28.442,194.824,0,0,0,
,-0.321,-0.141,0.926,-330.14,44.372,179.565,0,0,0,
,-0.405,-0.131,0.908,-340.027,-1.099,147.4,0,0,0,
,-0.769,-0.283,1.165,-497.01,-104.248,42.541,0,0,0,
,-0.453,0.101,0.938,-518.555,449.035,-64.82,0,0,0,
,-0.155,0.061,0.811,-261.048,242.981,-99.549,0,0,0,
,-0.418,-0.078,0.935,-221.741,-60.181,-78.431,0,0,0,
,-0.544,0.004,0.926,-237.793,122.924,-77.21,0,0,0,
,-0.441,0.024,0.854,-216.858,199.646,-103.211,0,0,0,
,-0.43,0.057,0.831,-244.568,115.173,-102.234,0,0,0,
,-0.496,0.121,0.896,-241.333,90.82,-113.709,0,0,0,
,-0.494,0.122,0.876,-183.594,130.981,-134.705,0,0,0,
,-0.495,0.084,0.883,-124.695,143.676,-160.767,0,0,0,
,-0.455,0.059,0.861,-78.492,176.025,-185.608,0,0,0,
,-0.407,0.137,0.953,-71.534,132.08,-166.687,0,0,0,
,-0.421,0.11,0.978,-17.212,88.623,-178.467,0,0,0,
,-0.412,0.064,0.964,-24.292,100.036,-192.139,0,0,0,
,-0.362,0.079,0.92,-69.886,52.978,-177.796,0,0,0,
,-0.374,0.152,0.97,-88.685,-25.513,-174.195,0,0,0,
,-0.372,0.246,0.886,52.307,28.137,-222.779,0,0,0,
,-0.383,0.227,0.898,148.62,25.817,-214.661,0,0,0,
,-0.4,0.192,0.873,190.124,35.827,-213.562,0,0,0,
,-0.394,0.144,0.84,174.133,42.175,-204.285,0,0,0,
,-0.396,0.14,0.821,115.173,36.438,-184.144,0,0,0,
,-0.4,0.179,0.834,75.683,28.991,-177.613,0,0,0,
,-0.414,0.235,0.863,123.108,38.635,-172.364,0,0,0,
,-0.404,0.252,0.866,271.301,85.693,-170.044,0,0,0,
,-0.377,0.164,0.857,319.824,111.694,-143.25,0,0,0,
,-0.34,0.13,0.884,222.107,93.383,-129.456,0,0,0,
,-0.346,0.171,0.955,136.718,29.846,-118.164,0,0,0,
,-0.385,0.282,1.027,134.704,4.089,-104.31,0,0,0,
,-0.403,0.336,1.091,257.995,40.649,-108.094,0,0,0,
,-0.37,0.336,1.13,448.852,88.44,-96.985,0,0,0,
,-0.316,0.203,1.157,602.478,110.229,-103.882,0,0,0,
,-0.272,0.048,1.127,631.897,94.482,-95.154,0,0,0,
,-0.248,-0.005,1.103,552.063,18.981,-90.882,0,0,0,
,-0.272,0.021,1.101,469.665,-78.37,-90.882,0,0,0,
,-0.352,0.052,1.122,468.75,-130.982,-87.83,0,0,0,
,-0.351,-0.021,1.004,602.722,-68.848,-82.093,0,0,0,
,-0.347,-0.084,0.987,547.485,-93.079,-74.646,0,0,0,
,-0.357,-0.132,0.992,442.26,-112.61,-63.599,0,0,0,
,-0.371,-0.128,0.981,342.468,-115.174,-57.129,0,0,0,
,-0.377,-0.104,0.958,288.757,-103.089,-51.209,0,0,0,
,-0.361,-0.104,0.923,250.732,-77.027,-41.077,0,0,0,
,-0.343,-0.135,0.906,191.04,-84.229,-45.35,0,0,0,
,-0.355,-0.124,0.9,120.91,-112.305,-30.64,0,0,0,
,-0.379,-0.105,0.908,87.585,-116.394,-15.564,0,0,0,
,-0.391,-0.076,0.901,79.406,-92.652,15.319,0,0,0,
,-0.396,-0.075,0.894,69.274,-87.586,30.212,0,0,0,
,-0.397,-0.108,0.873,45.471,-70.862,53.527,0,0,0,
,-0.391,-0.175,0.805,-46.204,-91.309,61.157,0,0,0,
,-0.43,-0.156,0.836,-114.991,-167.237,75.5,0,0,0,
,-0.494,-0.193,0.875,-200.318,-178.345,74.768,0,0,0,
,-0.497,-0.193,0.894,-241.7,-138.794,85.51,0,0,0,
,-0.478,-0.139,0.876,-264.893,-134.766,100.28,0,0,0,
,-0.486,-0.066,0.844,-235.84,-144.898,99.67,0,0,0,
,-0.491,-0.064,0.813,-138.611,-154.969,102.539,0,0,0,
,-0.488,-0.16,0.806,-69.703,-162.842,106.201,0,0,0,
,-0.491,-0.254,0.816,-98.084,-167.786,111.633,0,0,0,
,-0.49,-0.268,0.813,-200.257,-150.33,105.59,0,0,0,
,-0.494,-0.258,0.831,-295.227,-153.321,101.928,0,0,0,
,-0.52,-0.228,0.838,-380.127,-138.001,101.928,0,0,0,
,-0.497,-0.162,0.816,-451.294,-111.451,93.139,0,0,0,
,-0.495,-0.115,0.802,-490.967,-117.554,96.374,0,0,0,
,-0.532,-0.056,0.77,-531.434,-81.177,82.275,0,0,0,
,-0.527,-0.047,0.752,-566.59,-44.617,75.073,0,0,0,
,-0.541,0.069,0.748,-567.566,-45.472,80.444,0,0,0,
,-0.555,0.091,0.742,-497.193,0.244,69.152,0,0,0,
,-0.556,0.111,0.737,-443.909,16.601,71.106,0,0,0,
,-0.572,0.123,0.721,-366.822,53.344,69.519,0,0,0,
,-0.547,0.102,0.71,-272.4,82.702,68.481,0,0,0,
,-0.522,0.078,0.707,-205.323,82.275,75.683,0,0,0,
,-0.533,0.068,0.733,-101.502,79.406,66.345,0,0,0,
,-0.534,0.034,0.738,-81.665,119.751,37.292,0,0,0,
,-0.511,0.008,0.728,-92.652,159.79,8.789,0,0,0,
,-0.478,-0.003,0.761,-119.019,174.926,-19.471,0,0,0,
,-0.479,0.008,0.822,-145.935,178.65,-46.692,0,0,0,
,-0.462,0.043,0.893,-171.692,200.5,-81.788,0,0,0,
,-0.445,0.104,0.937,-185.303,190.551,-111.512,0,0,0,
,-0.454,0.171,0.951,-183.167,182.983,-130.799,0,0,0,
,-0.46,0.234,0.947,-116.578,182.556,-142.09,0,0,0,
,-0.447,0.245,0.936,-9.522,193.298,-145.997,0,0,0,
,-0.393,0.227,1.011,84.777,177.429,-134.949,0,0,0,
,-0.364,0.203,1.105,179.992,135.742,-150.574,0,0,0,
,-0.381,0.077,1.196,221.984,142.578,-171.998,0,0,0,
,-0.355,0.075,1.205,219.116,220.398,-205.628,0,0,0,
,-0.274,0.067,1.149,250.915,240.173,-254.09,0,0,0,
,-0.231,0.07,1.138,308.654,174.865,-279.236,0,0,0,
,-0.258,0.04,1.156,387.878,84.777,-293.213,0,0,0,
,-0.315,0.019,1.155,450.622,38.452,-293.763,0,0,0,
,-0.355,0.052,1.103,475.402,14.648,-290.955,0,0,0,
,-0.376,0.071,1.036,510.315,-2.198,-293.457,0,0,0,
,-0.377,0.082,1.042,561.279,-35.401,-284.729,0,0,0,
,-0.412,0.061,0.974,588.012,-54.383,-272.828,0,0,0,
,-0.416,0.047,1,618.835,-65.064,-251.77,0,0,0,
,-0.402,0.022,0.991,596.618,-60.975,-241.517,0,0,0,
,-0.398,0.013,0.995,549.682,-72.51,-230.469,0,0,0,
,-0.397,0.044,1.019,508.667,-80.506,-233.277,0,0,0,
,-0.403,0.032,1.002,568.847,-59.388,-207.886,0,0,0,
,-0.393,-0.009,0.994,569.458,-32.227,-183.96,0,0,0,
,-0.368,-0.05,0.999,506.53,-48.035,-163.514,0,0,0,
,-0.383,-0.11,1.029,380.859,-85.328,-132.813,0,0,0,
,-0.399,-0.097,1.042,237.793,-95.52,-103.333,0,0,0,
,-0.394,-0.074,1.015,138.977,-72.51,-92.164,0,0,0,
,-0.375,-0.102,0.994,91.735,-85.267,-58.472,0,0,0,
,-0.385,-0.101,0.97,19.653,-116.578,-29.664,0,0,0,
,-0.388,-0.095,0.941,-47.852,-117.249,-19.593,0,0,0,
,-0.387,-0.096,0.916,-85.877,-126.16,-6.226,0,0,0,
,-0.391,-0.098,0.892,-135.01,-140.931,9.46,0,0,0,
,-0.4,-0.079,0.858,-153.687,-168.763,21.057,0,0,0,
,-0.435,-0.082,0.856,-187.256,-189.576,23.376,0,0,0,
,-0.46,-0.086,0.841,-196.473,-186.463,50.231,0,0,0,
,-0.464,-0.149,0.831,-233.216,-149.231,60.18,0,0,0,
,-0.46,-0.178,0.823,-307.19,-134.278,79.467,0,0,0,
,-0.486,-0.162,0.827,-366.7,-139.466,78.064,0,0,0,
,-0.518,-0.117,0.832,-352.417,-83.435,84.167,0,0,0,
,-0.478,-0.094,0.769,-331.36,-14.161,93.078,0,0,0,
,-0.463,-0.018,0.741,-292.664,-49.378,101.501,0,0,0,
,-0.489,-0.001,0.73,-242.493,-77.271,111.023,0,0,0,
,-0.523,-0.045,0.703,-223.328,-86.06,123.779,0,0,0,
,-0.545,-0.113,0.666,-272.706,-71.106,151.062,0,0,0,
,-0.563,-0.134,0.653,-375.245,-70.618,180.297,0,0,0,
,-0.568,-0.099,0.699,-488.77,-47.181,191.833,0,0,0,
,-0.601,-0.018,0.734,-548.218,-20.508,191.04,0,0,0,
,-0.591,0.012,0.736,-546.692,28.991,185.73,0,0,0,
,-0.586,0.015,0.731,-517.273,40.893,194.213,0,0,0,
,-0.579,-0.012,0.758,-494.873,60.607,195.984,0,0,0,
,-0.553,-0.01,0.791,-468.567,84.777,174.804,0,0,0,
,-0.534,0.059,0.815,-435.303,101.928,158.264,0,0,0,
,-0.522,0.124,0.87,-352.601,98.999,129.272,0,0,0,
,-0.498,0.123,0.904,37.353,182.739,-16.236,0,0,0,
,-0.471,0.076,0.891,217.468,164.611,-66.529,0,0,0,
,-0.475,0.072,0.828,323.181,209.045,-80.933,0,0,0,
,-0.437,0.028,0.774,377.868,208.618,-88.623,0,0,0,
,-0.456,0.015,0.803,384.948,145.935,-96.924,0,0,0,
,-0.469,-0.036,0.874,383.178,164.367,-105.225,0,0,0,
,-0.448,-0.102,0.9,336.242,201.965,-113.953,0,0,0,
,-0.416,-0.118,0.904,249.328,187.988,-122.559,0,0,0,
,-0.391,-0.083,0.895,91.491,173.401,-116.883,0,0,0,
,-0.367,-0.086,0.904,15.991,161.377,-123.475,0,0,0,
,-0.351,-0.021,1.038,-102.662,128.601,-171.082,0,0,0,
,-0.366,0.052,1.122,-128.846,147.338,-210.816,0,0,0,
,-0.361,0.199,1.167,-52.308,206.298,-276.429,0,0,0,
,-0.341,0.214,1.129,179.687,246.521,-333.68,0,0,0,
,-0.315,0.144,1.118,491.882,187.561,-313.538,0,0,0,
,-0.354,0.005,1.084,756.347,216.735,-347.657,0,0,0,
,-0.333,-0.148,1.076,833.435,155.639,-316.224,0,0,0,
,-0.316,-0.229,1.115,678.344,105.774,-279.297,0,0,0,
,-0.329,-0.231,1.087,397.949,36.987,-239.747,0,0,0,
,-0.324,-0.065,1.088,174.865,-33.814,-205.933,0,0,0,
,-0.338,0.035,1.089,134.033,-85.572,-172.73,0,0,0,
,-0.35,0.09,1.089,252.929,-96.192,-148.926,0,0,0,
,-0.331,0.082,1.049,379.15,-88.135,-137.574,0,0,0,
,-0.309,0.001,1.018,483.276,-80.506,-161.316,0,0,0,
,-0.319,-0.084,0.991,494.14,-115.235,-138.733,0,0,0,
,-0.331,-0.124,1.003,421.325,-126.465,-123.963,0,0,0,
,-0.347,-0.126,0.959,347.351,-135.682,-98.938,0,0,0,
,-0.361,-0.123,0.979,279.48,-149.231,-74.707,0,0,0,
,-0.383,-0.088,0.888,247.131,-130.372,-50.66,0,0,0,
,-0.378,-0.093,0.879,228.088,-145.997,-35.462,0,0,0,
,-0.399,-0.123,0.833,232.91,-143.86,-24.476,0,0,0,
,-0.413,-0.133,0.888,215.21,-171.875,2.624,0,0,0,
,-0.449,-0.148,0.882,198.974,-143.616,12.451,0,0,0,
,-0.441,-0.152,0.901,157.898,-130.616,43.884,0,0,0,
,-0.444,-0.2,0.856,127.746,-92.957,34.423,0,0,0,
,-0.433,-0.172,0.855,86.853,-122.803,56.701,0,0,0,
,-0.461,-0.146,0.843,81.787,-98.206,41.137,0,0,0,
,-0.395,-0.229,0.708,111.389,-90.394,44.799,0,0,0,
,-0.501,-0.315,0.709,114.929,-105.225,76.66,0,0,0,
,-0.534,-0.384,0.685,74.157,-49.256,99.06,0,0,0,
,-0.498,-0.46,0.633,-33.265,9.46,108.947,0,0,0,
,-0.5,-0.456,0.595,-189.576,14.587,120.849,0,0,0,
,-0.524,-0.4,0.593,-334.473,45.776,122.558,0,0,0,
,-0.533,-0.331,0.608,-440.613,103.759,97.473,0,0,0,
,-0.507,-0.264,0.659,-511.841,151.489,62.439,0,0,0,
,-0.471,-0.219,0.74,-514.283,165.039,23.681,0,0,0,
,-0.455,-0.256,0.886,-484.07,161.743,13.732,0,0,0,
,-0.438,-0.2,0.879,-419.739,186.34,26.428,0,0,0,
,-0.399,-0.168,0.993,-387.818,166.504,48.4,0,0,0,
,-0.36,-0.122,1.07,-726.807,76.782,44.616,0,0,0,
,-0.322,-0.018,1.089,-733.277,65.673,39.428,0,0,0,
,-0.323,0.025,1.075,-656.617,31.494,62.194,0,0,0,
,-0.327,0.072,1.083,-578.431,8.3,73.242,0,0,0,
,-0.334,0.131,1.133,-537.964,-2.93,71.35,0,0,0,
,-0.344,0.192,1.154,-395.081,1.77,61.279,0,0,0,
,-0.375,0.184,1.044,-241.822,41.32,62.744,0,0,0,
,-0.345,0.139,0.948,-107.911,79.773,61.767,0,0,0,
,-0.311,0.082,0.966,-85.755,30.151,119.079,0,0,0,
,-0.335,0.071,1.054,-141.358,-75.379,110.534,0,0,0,
,-0.374,0.064,0.973,-239.014,-37.964,141.357,0,0,0,
,-0.381,0.098,0.988,-254.578,-79.407,125.854,0,0,0,
,-0.406,0.128,0.994,-202.454,-95.032,122.68,0,0,0,
,-0.419,0.08,1.022,-130.249,-94.422,117.981,0,0,0,
,-0.422,0.058,1,-96.375,-67.994,110.534,0,0,0,
,-0.419,0.043,0.972,-85.45,-102.112,91.796,0,0,0,
,-0.401,0.01,0.979,-101.319,-128.663,82.763,0,0,0,
,-0.415,0.018,0.972,-122.803,-151.612,83.679,0,0,0,
,-0.43,0.042,0.935,-142.456,-172.12,59.753,0,0,0,
,-0.433,0.082,0.922,-109.314,-162.11,23.986,0,0,0,
,-0.43,0.042,0.933,-38.636,-174.5,22.461,0,0,0,
,-0.449,0.032,0.948,-44.617,-195.008,5.92,0,0,0,
,-0.463,0.123,0.888,44.616,-162.964,-76.294,0,0,0,
,-0.466,0.164,0.886,143.615,-189.576,-88.013,0,0,0,
,-0.497,0.176,0.885,262.634,-172.547,-105.286,0,0,0,
,-0.492,0.153,0.844,350.586,-136.78,-138.062,0,0,0,
,-0.489,0.109,0.828,409.301,-156.495,-159.913,0,0,0,
,-0.552,0.072,0.828,431.945,-113.099,-167.176,0,0,0,
,-0.513,-0.019,0.76,212.463,-141.907,-154.969,0,0,0,
,-0.546,0.029,0.732,147.644,-146.241,-132.874,0,0,0,
,-0.553,0.071,0.695,127.502,-150.879,-108.948,0,0,0,
,-0.57,0.101,0.617,120.239,-169.068,-68.543,0,0,0,
,-0.65,0.141,0.675,211.547,-164.063,-69.397,0,0,0,
,-0.637,0.124,0.717,296.814,-83.13,-76.294,0,0,0,
,-0.615,0.123,0.734,391.052,-34.668,-85.206,0,0,0,
,-0.619,0.071,0.733,493.225,10.559,-93.506,0,0,0,
,-0.607,0.015,0.711,557.983,62.072,-120.789,0,0,0,
,-0.592,-0.051,0.697,586.547,88.195,-127.93,0,0,0,
,-0.582,-0.114,0.691,558.715,113.891,-125.733,0,0,0,
,-0.565,-0.161,0.692,511.535,126.098,-116.333,0,0,0,
,-0.569,-0.174,0.715,471.801,123.047,-104.737,0,0,0,
,-0.568,-0.153,0.719,431.579,136.901,-94.361,0,0,0,
,-0.56,-0.133,0.708,456.482,184.082,-40.406,0,0,0,
,-0.546,-0.209,0.737,411.316,196.472,-3.235,0,0,0,
,-0.515,-0.3,0.823,279.358,217.712,13.916,0,0,0,
,-0.49,-0.372,0.911,112.426,218.872,3.479,0,0,0,
,-0.451,-0.297,0.976,-34.852,203.979,-12.452,0,0,0,
,-0.41,-0.189,1.007,8.667,133.606,-77.698,0,0,0,
,-0.432,-0.214,1.017,84.472,83.496,-69.703,0,0,0,
,-0.433,-0.236,1.057,128.54,52.612,-51.697,0,0,0,
,-0.437,-0.309,1.08,58.288,42.297,-41.443,0,0,0,
,-0.43,-0.194,1.009,-292.847,1.892,-31.128,0,0,0,
,-0.406,-0.109,1.023,-295.838,-30.152,-26.246,0,0,0,
,-0.408,-0.084,0.957,-276.307,-89.6,19.165,0,0,0,
,-0.459,-0.072,1.002,-226.075,-152.161,8.056,0,0,0,
,-0.489,-0.033,0.941,-194.153,-63.416,30.883,0,0,0,
,-0.424,-0.075,0.874,-192.139,-98.633,46.142,0,0,0,
,-0.467,-0.067,0.857,-250.794,-159.424,53.894,0,0,0,
,-0.502,-0.068,0.822,-295.838,-143.128,63.537,0,0,0,
,-0.511,-0.079,0.792,-337.525,-137.391,77.087,0,0,0,
,-0.534,-0.046,0.795,-348.45,-126.404,100.891,0,0,0,
,-0.554,0.003,0.764,-382.752,-42.176,133.728,0,0,0,
,-0.534,0.023,0.76,-377.198,-15.32,154.174,0,0,0,
,-0.535,-0.008,0.796,-337.525,29.907,168.335,0,0,0,
,-0.541,-0.036,0.847,-347.046,33.325,164.856,0,0,0,
,-0.541,-0.017,0.893,-362.61,48.95,163.025,0,0,0,
,-0.52,-0.027,0.889,-385.621,81.543,159.423,0,0,0,
,-0.488,-0.01,0.901,-406.983,59.143,163.574,0,0,0,
,-0.512,0.053,0.932,-368.226,35.827,137.939,0,0,0,
,-0.499,0.037,0.928,-312.745,45.532,125.305,0,0,0,
,-0.487,0.015,0.905,-292.054,44.616,113.098,0,0,0,
,-0.495,0.034,0.892,-282.776,23.864,102.844,0,0,0,
,-0.512,0.054,0.879,-247.01,23.437,86.059,0,0,0,
,-0.516,0.057,0.849,-200.196,43.396,74.34,0,0,0,
,-0.495,0.053,0.814,-155.03,48.645,62.316,0,0,0,
,-0.495,0.047,0.8,-118.164,17.822,59.57,0,0,0,
,-0.527,0.087,0.84,-69.214,1.464,36.254,0,0,0,
,-0.551,0.064,0.861,10.253,46.081,0.793,0,0,0,
,-0.529,0.073,0.876,103.759,85.571,-25.818,0,0,0,
,-0.502,0.074,0.875,241.516,110.901,-67.994,0,0,0,
,-0.501,0.051,0.865,384.887,114.929,-91.797,0,0,0,
,-0.499,0.026,0.853,458.007,131.103,-105.53,0,0,0,
,-0.496,-0.015,0.83,507.568,137.329,-120.118,0,0,0,
,-0.492,-0.081,0.857,483.093,140.564,-129.944,0,0,0,
,-0.482,-0.118,0.906,415.222,124.511,-145.081,0,0,0,
,-0.469,-0.085,0.895,286.804,140.442,-150.025,0,0,0,
,-0.421,-0.07,0.9,259.155,123.779,-164.551,0,0,0,
,-0.472,-0.069,1.036,221.74,20.141,-183.594,0,0,0,
,-0.488,-0.029,1.074,223.083,33.081,-173.462,0,0,0,
,-0.447,-0.025,0.989,260.62,68.359,-195.435,0,0,0,
,-0.444,0.023,0.994,329.284,40.161,-187.073,0,0,0,
,-0.433,-0.058,0.952,524.414,33.569,-182.984,0,0,0,
,-0.433,-0.119,0.945,494.506,32.775,-188.355,0,0,0,
,-0.429,-0.161,0.948,425.109,28.137,-187.867,0,0,0,
,-0.438,-0.135,0.955,360.046,4.699,-179.505,0,0,0,
,-0.465,-0.077,0.908,351.257,18.066,-168.519,0,0,0,
,-0.454,-0.087,0.872,372.68,28.808,-167.847,0,0,0,
,-0.453,-0.125,0.868,381.775,29.052,-167.969,0,0,0,
,-0.459,-0.182,0.873,345.092,31.25,-164.063,0,0,0,
,-0.456,-0.188,0.885,276.428,43.823,-152.283,0,0,0,
,-0.437,-0.166,0.919,223.022,38.33,-144.104,0,0,0,
,-0.459,-0.093,0.912,205.017,30.273,-138.977,0,0,0,
,-0.469,-0.092,0.912,247.741,37.719,-143.311,0,0,0,
,-0.46,-0.126,0.925,346.923,38.818,-119.446,0,0,0,
,-0.452,-0.213,0.894,396.301,41.748,-85.694,0,0,0,
,-0.459,-0.254,0.934,205.2,-1.343,-57.007,0,0,0,
,-0.451,-0.24,0.937,111.694,-21.851,-36.316,0,0,0,
,-0.441,-0.247,0.904,25.634,-22.828,-18.86,0,0,0,
,-0.422,-0.232,0.923,-50.354,-55.787,3.479,0,0,0,
,-0.438,-0.218,0.918,-115.906,-85.938,33.081,0,0,0,
,-0.458,-0.182,0.897,-274.537,-90.882,106.14,0,0,0,
,-0.446,-0.163,0.866,-319.886,-94.544,118.103,0,0,0,
,-0.446,-0.157,0.856,-339.356,-108.521,133.789,0,0,0,
,-0.468,-0.145,0.867,-338.074,-134.034,151.855,0,0,0,
,-0.501,-0.151,0.866,-364.136,-124.146,177.124,0,0,0,
,-0.495,-0.113,0.858,-377.137,-107.239,195.678,0,0,0,
,-0.486,-0.132,0.841,-368.348,-109.742,208.191,0,0,0,
,-0.495,-0.144,0.85,-376.038,-123.414,215.393,0,0,0,
,-0.508,-0.154,0.853,-394.776,-115.357,223.632,0,0,0,
,-0.505,-0.139,0.823,-465.516,-94.422,232.544,0,0,0,
,-0.51,-0.124,0.828,-472.352,-80.75,233.459,0,0,0,
,-0.507,-0.117,0.818,-468.018,-62.195,232.299,0,0,0,
,-0.528,-0.111,0.833,-431.824,-42.908,218.078,0,0,0,
,-0.521,-0.098,0.845,-395.447,-1.526,194.702,0,0,0,
,-0.501,-0.116,0.847,-339.356,20.568,165.283,0,0,0,
,-0.47,-0.152,0.86,-294.19,19.47,143.31,0,0,0,
,-0.505,-0.152,0.871,-283.081,10.62,112.182,0,0,0,
,-0.52,-0.122,0.88,-263.55,20.629,70.495,0,0,0,
,-0.527,-0.111,0.896,-220.093,41.565,29.907,0,0,0,
,-0.524,-0.079,0.892,-144.898,65.918,-6.226,0,0,0,
,-0.519,-0.022,0.891,-19.41,75.5,-42.542,0,0,0,
,-0.522,-0.053,0.898,120.178,96.557,-79.956,0,0,0,
,-0.474,-0.097,0.879,208.618,89.66,-85.511,0,0,0,
,-0.495,-0.081,0.917,265.197,39.611,-132.752,0,0,0,
,-0.527,-0.09,0.932,340.698,56.518,-156.861,0,0,0,
,-0.51,-0.096,0.925,405.761,87.768,-176.819,0,0,0,
,-0.489,-0.118,0.908,465.881,86.242,-200.867,0,0,0,
,-0.482,-0.169,0.911,484.924,82.336,-222.107,0,0,0,
,-0.436,-0.205,0.891,302.551,47.912,-266.602,0,0,0,
,-0.466,-0.16,0.929,264.221,19.043,-272.095,0,0,0,
,-0.476,-0.097,0.916,285.827,24.963,-271.729,0,0,0,
,-0.491,-0.105,0.923,337.402,18.615,-264.039,0,0,0,
,-0.481,-0.104,0.912,375.915,32.165,-265.32,0,0,0,
,-0.486,-0.133,0.895,381.652,21.972,-262.146,0,0,0,
,-0.487,-0.135,0.899,361.511,12.451,-253.785,0,0,0,
,-0.492,-0.122,0.894,332.031,3.112,-238.465,0,0,0,
,-0.498,-0.078,0.9,340.149,9.887,-227.784,0,0,0,
,-0.493,-0.069,0.907,381.469,25.39,-211.06,0,0,0,
,-0.486,-0.09,0.895,421.386,40.893,-197.266,0,0,0,
,-0.469,-0.113,0.878,442.321,55.297,-182.373,0,0,0,
,-0.457,-0.127,0.879,429.748,48.095,-161.133,0,0,0,
,-0.452,-0.143,0.878,404.907,33.63,-142.09,0,0,0,
,-0.469,-0.145,0.883,369.812,8.422,-124.39,0,0,0,
,-0.475,-0.163,0.895,353.454,-1.282,-103.15,0,0,0,
,-0.494,-0.196,0.897,335.998,-25.147,-71.961,0,0,0,
,-0.494,-0.242,0.892,284.851,-28.748,-46.57,0,0,0,
,-0.491,-0.278,0.872,191.162,-48.218,-23.682,0,0,0,
,-0.487,-0.296,0.849,70.617,-63.904,0.549,0,0,0,
,-0.459,-0.308,0.824,-37.415,-97.596,24.841,0,0,0,
,-0.448,-0.311,0.828,-141.053,-157.776,62.866,0,0,0,
,-0.48,-0.31,0.801,-266.602,-246.766,98.449,0,0,0,
,-0.54,-0.298,0.83,-404.053,-276.185,113.647,0,0,0,
,-0.565,-0.298,0.815,-522.461,-249.756,134.582,0,0,0,
,-0.545,-0.229,0.798,-634.4,-225.831,155.456,0,0,0,
,-0.531,-0.18,0.771,-688.721,-242.127,183.044,0,0,0,
,-0.562,-0.154,0.752,-704.529,-261.597,210.815,0,0,0,
,-0.612,-0.084,0.774,-675.049,-215.699,213.745,0,0,0,
,-0.62,-0.041,0.791,-603.455,-141.297,213.44,0,0,0,
,-0.61,-0.083,0.797,-510.376,-95.765,217.285,0,0,0,
,-0.603,-0.064,0.762,-382.569,-54.566,233.459,0,0,0,
,-0.576,-0.179,0.684,-294.739,-29.053,212.707,0,0,0,
,-0.544,-0.092,0.65,-241.333,-15.809,274.475,0,0,0,
,-0.565,-0.191,0.632,-307.19,10.437,251.953,0,0,0,
,-0.594,-0.187,0.711,-425.171,40.344,234.008,0,0,0,
,-0.576,-0.124,0.76,-518.799,77.087,201.66,0,0,0,
,-0.576,-0.039,0.857,-544.312,135.009,167.541,0,0,0,
,-0.535,-0.067,0.877,-578.98,182.19,132.324,0,0,0,
,-0.528,-0.063,0.923,-534.668,195.068,107.422,0,0,0,
,-0.518,-0.087,0.92,-469.849,230.163,72.876,0,0,0,
,-0.444,-0.031,0.926,-373.352,248.901,37.17,0,0,0,
,-0.457,-0.031,0.997,-259.461,203.43,25.39,0,0,0,
,-0.458,-0.02,1.085,-179.505,209.533,-6.287,0,0,0,
,-0.469,0.056,1.175,-66.834,115.295,-2.015,0,0,0,
,-0.477,-0.039,1.179,126.953,162.231,-49.744,0,0,0,
,-0.443,-0.058,1.139,229.858,116.394,-60.791,0,0,0,
,-0.513,-0.098,1.079,366.638,55.908,-58.411,0,0,0,
,-0.465,-0.088,0.943,559.509,35.034,-59.51,0,0,0,
,-0.472,-0.124,0.883,608.276,38.574,-77.088,0,0,0,
,-0.491,-0.113,0.802,617.797,77.514,-80.262,0,0,0,
,-0.474,-0.177,0.765,593.75,91.491,-100.464,0,0,0,
,-0.49,-0.18,0.702,547.363,105.957,-121.277,0,0,0,
,-0.501,-0.154,0.804,582.824,124.572,-117.432,0,0,0,
,-0.528,-0.13,0.791,638.488,175.232,-131.958,0,0,0,
,-0.486,-0.191,0.833,655.334,184.326,-137.391,0,0,0,
,-0.497,-0.238,0.83,642.883,191.772,-120.972,0,0,0,
,-0.476,-0.253,0.857,598.022,192.932,-121.216,0,0,0,
,-0.471,-0.239,0.846,560.73,214.965,-119.69,0,0,0,
,-0.438,-0.273,0.885,524.292,214.111,-111.573,0,0,0,
,-0.411,-0.268,0.955,507.751,199.951,-106.324,0,0,0,
,-0.459,-0.249,1.054,617.37,194.03,-94.788,0,0,0,
,-0.426,-0.213,1.086,835.083,217.102,-87.22,0,0,0,
,-0.402,-0.358,1.038,990.722,202.453,-85.083,0,0,0,
,-0.331,-0.565,0.742,590.82,146.179,-132.142,0,0,0,
,-0.335,-0.597,0.807,383.422,37.902,-126.526,0,0,0,
,-0.402,-0.571,0.906,232.91,-29.664,-115.784,0,0,0,
,-0.409,-0.544,0.981,125.915,-56.58,-126.831,0,0,0,
,-0.408,-0.447,1.01,149.902,-84.473,-136.048,0,0,0,
,-0.407,-0.426,1.003,264.221,-96.863,-144.654,0,0,0,
,-0.382,-0.488,0.948,356.445,-118.653,-159.607,0,0,0,
,-0.354,-0.51,0.877,389.465,-135.376,-161.622,0,0,0,
,-0.348,-0.571,0.858,362.243,-174.439,-163.269,0,0,0,
,-0.372,-0.627,0.894,249.084,-222.962,-180.909,0,0,0,
,-0.431,-0.622,0.797,133.422,-231.995,-196.656,0,0,0,
,-0.428,-0.593,0.718,38.086,-234.803,-206.91,0,0,0,
,-0.446,-0.56,0.665,-48.462,-267.64,-205.079,0,0,0,
,-0.464,-0.616,0.622,-150.452,-265.076,-213.44,0,0,0,
,-0.474,-0.634,0.627,-297.425,-300.843,-204.834,0,0,0,
,-0.526,-0.623,0.634,-475.342,-344.91,-203.553,0,0,0,
,-0.563,-0.562,0.641,-630.921,-355.591,-199.769,0,0,0,
,-0.572,-0.459,0.676,-731.141,-359.009,-194.703,0,0,0,
,-0.59,-0.359,0.68,-743.958,-361.634,-182.007,0,0,0,
,-0.604,-0.238,0.723,-663.758,-360.413,-156.739,0,0,0,
,-0.618,-0.269,0.693,-551.941,-288.636,-153.443,0,0,0,
,-0.6,-0.269,0.618,-458.68,-250.367,-125.855,0,0,0,
,-0.623,-0.156,0.601,-340.516,-250.367,-85.328,0,0,0,
,-0.667,-0.24,0.612,-239.075,-179.566,-90.027,0,0,0,
,-0.632,-0.253,0.58,-224.671,-120.24,-70.435,0,0,0,
,-0.651,-0.191,0.546,-247.559,-25.147,-5.738,0,0,0,
,-0.644,-0.304,0.528,-425.232,24.719,-14.161,0,0,0,
,-0.648,-0.221,0.492,-606.873,30.09,4.455,0,0,0,
,-0.687,-0.138,0.546,-752.137,54.138,-0.916,0,0,0,
,-0.676,-0.189,0.621,-877.015,87.951,-8.545,0,0,0,
,-0.665,-0.073,0.702,-953.37,99.06,19.226,0,0,0,
,-0.696,0.018,0.754,-905.701,158.508,41.687,0,0,0,
,-0.661,0.068,0.69,-731.69,227.478,72.692,0,0,0,
,-0.624,0.107,0.75,-478.638,291.259,122.802,0,0,0,
,-0.572,0.119,0.723,-224.488,371.276,150.94,0,0,0,
,-0.527,0.021,0.799,-17.64,414.001,170.776,0,0,0,
,-0.463,-0.208,0.941,92.529,399.414,169.616,0,0,0,
,-0.493,-0.061,1.026,222.229,368.347,145.507,0,0,0,
,-0.473,-0.289,0.98,321.228,394.592,128.967,0,0,0,
,-0.417,-0.348,1.007,201.416,316.955,103.393,0,0,0,
,-0.486,-0.142,0.951,278.32,303.405,92.651,0,0,0,
,-0.477,-0.212,1.005,519.348,296.081,90.698,0,0,0,
,-0.431,-0.33,0.988,519.592,294.433,97.656,0,0,0,
,-0.444,-0.185,0.912,632.202,298.217,110.229,0,0,0,
,-0.414,-0.248,0.902,823.486,311.523,109.375,0,0,0,
,-0.402,-0.298,0.94,943.237,303.344,107.177,0,0,0,
,-0.438,-0.288,0.947,1135.07,307.556,101.684,0,0,0,
,-0.386,-0.358,0.906,1399.231,328.552,78.491,0,0,0,
,-0.361,-0.576,0.87,1518.188,309.143,65.124,0,0,0,
,-0.338,-0.827,0.827,1296.692,281.738,31.799,0,0,0,
,-0.32,-0.825,0.891,951.355,242.981,-6.165,0,0,0,
,-0.311,-0.822,0.918,696.411,180.847,-54.505,0,0,0,
,-0.312,-0.827,0.918,519.653,118.835,-99.915,0,0,0,
,-0.324,-0.792,0.852,402.343,80.688,-155.457,0,0,0,
,-0.336,-0.705,0.791,305.786,56.579,-183.594,0,0,0,
,-0.341,-0.686,0.759,212.829,8.972,-180.054,0,0,0,
,-0.358,-0.643,0.791,137.756,-25.391,-176.819,0,0,0,
,-0.354,-0.653,0.814,65.429,-44.007,-176.209,0,0,0,
,-0.366,-0.58,0.79,41.137,-34.302,-171.692,0,0,0,
,-0.332,-0.513,0.714,33.691,-8.728,-188.416,0,0,0,
,-0.311,-0.594,0.728,-18.494,-41.871,-194.947,0,0,0,
,-0.354,-0.61,0.805,-71.412,-79.224,-191.468,0,0,0,
,-0.379,-0.611,0.852,-108.643,-99.427,-187.623,0,0,0,
,-0.382,-0.619,0.87,-126.404,-131.348,-186.646,0,0,0,
,-0.38,-0.562,0.875,-95.765,-168.824,-173.34,0,0,0,
,-0.402,-0.537,0.868,-53.833,-196.534,-168.946,0,0,0,
,-0.412,-0.52,0.769,-9.156,-185.486,-164.551,0,0,0,
,-0.381,-0.553,0.738,-1.221,-205.811,-167.481,0,0,0,
,-0.417,-0.587,0.741,-62.684,-238.77,-167.42,0,0,0,
,-0.439,-0.614,0.747,-158.57,-251.831,-172.425,0,0,0,
,-0.456,-0.61,0.752,-260.865,-270.386,-174.5,0,0,0,
,-0.472,-0.561,0.72,-356.812,-286.622,-172.059,0,0,0,
,-0.493,-0.485,0.681,-385.376,-286.438,-165.101,0,0,0,
,-0.5,-0.437,0.714,-358.643,-293.396,-163.331,0,0,0,
,-0.565,-0.42,0.749,-215.638,-291.993,-123.536,0,0,0,
,-0.574,-0.403,0.74,-148.377,-277.527,-109.192,0,0,0,
,-0.57,-0.418,0.734,-93.14,-280.274,-91.736,0,0,0,
,-0.574,-0.475,0.702,-101.685,-263.733,-82.825,0,0,0,
,-0.56,-0.492,0.673,-186.097,-271.851,-73.243,0,0,0,
,-0.57,-0.481,0.67,-294.495,-280.457,-67.322,0,0,0,
,-0.576,-0.437,0.666,-384.949,-282.898,-56.214,0,0,0,
,-0.595,-0.384,0.676,-435.242,-276.001,-41.321,0,0,0,
,-0.618,-0.296,0.674,-368.958,-253.724,-22.034,0,0,0,
