TIMECODE,ACC_X,ACC_Y,ACC_Z,GYR_X,GYR_Y,GYR_Z,TAG
00:00:00:0,-0.529,-0.755,0.513,-77.759,-93.567,42.358,
00:00:00:16,-0.527,-0.704,0.503,-106.751,-75.196,46.691,
00:00:00:33,-0.51,-0.817,0.492,-75.989,-69.397,69.152,
00:00:00:50,-0.491,-0.834,0.466,-158.081,-45.594,60.424,
00:00:00:66,-0.522,-0.761,0.418,-198.243,-28.504,58.288,
00:00:00:83,-0.525,-0.83,0.39,-202.515,-11.231,42.968,
00:00:00:100,-0.531,-0.899,0.371,-284.302,-6.653,21.667,
00:00:00:116,-0.535,-0.837,0.386,-357.239,1.648,5.065,
00:00:00:133,-0.526,-0.823,0.436,-358.216,12.634,-20.447,
00:00:00:150,-0.52,-0.802,0.492,-327.576,22.216,-34.913,
00:00:00:166,-0.517,-0.732,0.503,-226.624,31.86,-46.143,
00:00:00:183,-0.515,-0.721,0.485,-79.163,45.532,-46.998,
00:00:00:200,-0.501,-0.757,0.482,43.64,47.729,-46.631,
00:00:00:216,-0.498,-0.779,0.498,57.312,43.151,-41.504,
00:00:00:233,-0.499,-0.754,0.511,55.664,47.79,-42.908,
00:00:00:250,-0.503,-0.784,0.524,39.55,49.194,-46.998,
00:00:00:266,-0.503,-0.787,0.503,-4.761,43.029,-51.88,
00:00:00:283,-0.502,-0.754,0.487,-28.321,35.278,-56.458,
00:00:00:300,-0.502,-0.749,0.507,-34.79,26.611,-53.406,
00:00:00:316,-0.521,-0.715,0.544,-22.278,14.221,-44.007,
00:00:00:333,-0.516,-0.726,0.564,19.775,13.305,-40.467,
00:00:00:350,-0.523,-0.74,0.564,29.174,6.958,-34.363,
00:00:00:366,-0.521,-0.754,0.541,11.901,7.324,-34.913,
00:00:00:383,-0.512,-0.758,0.505,-22.583,5.249,-35.889,
00:00:00:400,-0.514,-0.738,0.483,-50.477,5.676,-36.133,
00:00:00:416,-0.503,-0.715,0.453,-49.622,10.559,-32.898,
00:00:00:433,-0.523,-0.739,0.49,-50.232,10.437,-31.739,
00:00:00:450,-0.528,-0.742,0.508,-47.364,6.286,-29.969,
00:00:00:466,-0.534,-0.74,0.52,-68.726,8.85,-27.344,
00:00:00:483,-0.511,-0.758,0.525,-89.295,13.61,-29.664,
00:00:00:500,-0.517,-0.76,0.499,-108.643,15.869,-29.541,
00:00:00:516,-0.511,-0.75,0.492,-127.137,20.141,-30.701,
00:00:00:533,-0.513,-0.738,0.481,-148.987,25.634,-31.128,
00:00:00:550,-0.517,-0.741,0.5,-153.443,28.625,-30.823,
00:00:00:566,-0.524,-0.692,0.555,-134.4,30.273,-27.161,
00:00:00:583,-0.521,-0.652,0.559,-3.602,37.048,-19.471,
00:00:00:600,-0.521,-0.699,0.538,108.337,34.057,-10.987,
00:00:00:616,-0.514,-0.723,0.547,157.714,28.991,-4.151,
00:00:00:633,-0.511,-0.733,0.552,176.33,23.315,-2.32,
00:00:00:650,-0.503,-0.746,0.54,142.883,20.69,-1.77,
00:00:00:666,-0.504,-0.79,0.52,59.387,16.662,-7.752,
00:00:00:683,-0.505,-0.778,0.514,-40.528,12.146,-15.809,
00:00:00:700,-0.508,-0.765,0.542,-102.967,9.521,-23.865,
00:00:00:716,-0.509,-0.749,0.543,-139.405,2.624,-25.208,
00:00:00:733,-0.517,-0.729,0.53,-124.329,-2.686,-24.476,
00:00:00:750,-0.517,-0.727,0.534,-119.568,-5.005,-25.269,
00:00:00:766,-0.51,-0.72,0.536,-133.851,-8.545,-25.025,
00:00:00:783,-0.514,-0.72,0.543,-116.944,-7.63,-26.734,
00:00:00:800,-0.51,-0.72,0.545,-70.679,-3.724,-27.894,
00:00:00:816,-0.518,-0.717,0.536,-46.021,-4.578,-26.49,
00:00:00:833,-0.516,-0.715,0.543,-20.691,14.526,-23.255,
00:00:00:850,-0.514,-0.723,0.553,-4.029,2.075,-25.147,
00:00:00:866,-0.517,-0.715,0.548,4.211,2.319,-22.767,
00:00:00:883,-0.51,-0.724,0.541,-5.677,3.051,-21.424,
00:00:00:900,-0.511,-0.712,0.537,-28.321,3.784,-25.269,
00:00:00:916,-0.517,-0.73,0.549,-63.416,4.943,-29.969,
00:00:00:933,-0.526,-0.713,0.544,-90.821,3.295,-33.143,
00:00:00:950,-0.52,-0.719,0.554,-104.554,2.502,-30.396,
00:00:00:966,-0.526,-0.704,0.552,-116.211,3.662,-28.26,
00:00:00:983,-0.52,-0.689,0.544,-92.896,7.141,-27.955,
00:00:01:0,-0.519,-0.69,0.544,-69.886,10.07,-25.086,
00:00:01:16,-0.518,-0.687,0.556,-59.449,12.939,-22.156,
00:00:01:33,-0.513,-0.688,0.577,-38.025,14.709,-22.706,
00:00:01:50,-0.516,-0.694,0.576,-18.128,17.395,-19.41,
00:00:01:66,-0.511,-0.714,0.578,-15.076,14.587,-18.128,
00:00:01:83,-0.514,-0.709,0.571,-18.433,13.794,-15.137,
00:00:01:100,-0.515,-0.712,0.57,-20.997,12.817,-18.128,
00:00:01:116,-0.507,-0.702,0.567,-18.25,9.826,-17.945,
00:00:01:133,-0.515,-0.699,0.56,-12.085,8.483,-19.349,
00:00:01:150,-0.518,-0.7,0.574,-11.17,5.92,-20.691,
00:00:01:166,-0.517,-0.7,0.587,-7.019,4.821,-24.231,
00:00:01:183,-0.526,-0.719,0.588,-7.569,4.028,-28.077,
00:00:01:200,-0.523,-0.717,0.557,-14.893,6.591,-32.166,
00:00:01:216,-0.515,-0.701,0.549,-38.331,5.676,-33.448,
00:00:01:233,-0.52,-0.69,0.566,-64.026,10.131,-37.171,
00:00:01:250,-0.522,-0.674,0.583,-72.571,7.751,-35.645,
00:00:01:266,-0.524,-0.669,0.586,-70.679,11.901,-33.387,
00:00:01:283,-0.521,-0.67,0.589,-55.115,11.779,-27.832,
00:00:01:300,-0.521,-0.673,0.601,-35.767,11.657,-24.048,
00:00:01:316,-0.512,-0.662,0.582,-23.926,14.77,-17.884,
00:00:01:333,-0.514,-0.674,0.572,-12.818,17.089,-16.175,
00:00:01:350,-0.515,-0.679,0.585,-22.156,17.517,-14.649,
00:00:01:366,-0.519,-0.673,0.595,-20.691,17.639,-16.175,
00:00:01:383,-0.521,-0.681,0.601,-8.423,15.441,-16.358,
00:00:01:400,-0.521,-0.69,0.598,-7.508,16.296,-16.419,
00:00:01:416,-0.514,-0.686,0.589,-2.564,16.418,-15.992,
00:00:01:433,-0.51,-0.693,0.6,-12.574,13.488,-17.029,
00:00:01:450,-0.508,-0.683,0.595,-19.715,11.352,-19.654,
00:00:01:466,-0.518,-0.691,0.59,-23.743,8.667,-20.63,
00:00:01:483,-0.518,-0.684,0.589,-28.504,7.019,-23.987,
00:00:01:500,-0.511,-0.691,0.596,-33.143,5.798,-27.588,
00:00:01:516,-0.514,-0.692,0.593,-37.537,2.258,-26.429,
00:00:01:533,-0.511,-0.663,0.591,-50.415,1.831,-23.926,
00:00:01:550,-0.513,-0.658,0.599,-52.735,2.38,-24.109,
00:00:01:566,-0.527,-0.668,0.592,-48.279,3.54,-21.302,
00:00:01:583,-0.523,-0.664,0.596,-60.547,5.493,-20.691,
00:00:01:600,-0.523,-0.658,0.596,-47.669,7.141,-20.508,
00:00:01:616,-0.524,-0.658,0.594,-40.833,9.643,-19.227,
00:00:01:633,-0.518,-0.672,0.599,-35.462,10.803,-21.241,
00:00:01:650,-0.511,-0.657,0.604,-37.903,10.009,-18.433,
00:00:01:666,-0.517,-0.675,0.615,-35.401,10.07,-17.823,
00:00:01:683,-0.519,-0.669,0.593,-36.194,7.629,-19.104,
00:00:01:700,-0.515,-0.664,0.589,-55.97,7.019,-19.532,
00:00:01:716,-0.511,-0.658,0.61,-55.787,7.812,-19.898,
00:00:01:733,-0.521,-0.665,0.628,-50.11,6.591,-20.63,
00:00:01:750,-0.518,-0.659,0.63,-48.89,7.446,-19.776,
00:00:01:766,-0.513,-0.655,0.632,-47.059,4.211,-23.072,
00:00:01:783,-0.511,-0.656,0.628,-49.866,1.77,-23.072,
00:00:01:800,-0.517,-0.657,0.623,-47.364,0.854,-22.95,
00:00:01:816,-0.517,-0.646,0.605,-54.871,-0.245,-20.63,
00:00:01:833,-0.518,-0.648,0.603,-64.698,-2.076,-22.156,
00:00:01:850,-0.523,-0.657,0.61,-76.844,-1.404,-21.119,
00:00:01:866,-0.524,-0.66,0.627,-95.52,-4.761,-23.133,
00:00:01:883,-0.513,-0.62,0.636,-69.886,2.807,-16.724,
00:00:01:900,-0.517,-0.623,0.635,-47.913,5.127,-15.137,
00:00:01:916,-0.528,-0.642,0.63,-42.542,1.648,-12.574,
00:00:01:933,-0.52,-0.62,0.652,-50.11,1.037,-7.081,
00:00:01:950,-0.523,-0.643,0.631,-56.641,-2.869,-7.081,
00:00:01:966,-0.512,-0.654,0.63,-115.113,-5.005,-9.522,
00:00:01:983,-0.518,-0.646,0.638,-152.222,-8.728,-12.391,
00:00:02:0,-0.515,-0.631,0.648,-171.875,-12.94,-12.391,
00:00:02:16,-0.513,-0.612,0.657,-161.805,-14.588,-12.33,
00:00:02:33,-0.509,-0.626,0.668,-178.528,-23.926,-14.527,
00:00:02:50,-0.512,-0.657,0.679,-260.804,-27.1,-25.086,
00:00:02:66,-0.518,-0.63,0.693,-335.694,-37.049,-34.913,
00:00:02:83,-0.526,-0.615,0.694,-363.221,-41.138,-41.382,
00:00:02:100,-0.527,-0.598,0.703,-352.784,-51.392,-47.974,
00:00:02:116,-0.53,-0.558,0.716,-328.98,-60.852,-42.237,
00:00:02:133,-0.523,-0.515,0.71,-306.092,-65.796,-36.255,
00:00:02:150,-0.524,-0.538,0.704,-319.092,-76.05,-34.18,
00:00:02:166,-0.516,-0.621,0.715,-463.623,-96.131,-37.964,
00:00:02:183,-0.546,-0.453,0.719,-639.527,-107.666,-50.66,
00:00:02:200,-0.552,-0.434,0.749,-638.489,-118.653,-45.655,
00:00:02:216,-0.561,-0.381,0.78,-602.112,-118.836,-34.302,
00:00:02:233,-0.562,-0.382,0.795,-561.341,-118.653,-17.762,
00:00:02:250,-0.564,-0.444,0.769,-601.38,-134.522,-11.414,
00:00:02:266,-0.569,-0.423,0.747,-667.359,-130.249,-17.64,
00:00:02:283,-0.565,-0.33,0.721,-666.871,-120.362,-19.959,
00:00:02:300,-0.553,-0.325,0.736,-670.96,-113.953,-18.494,
00:00:02:316,-0.648,-0.632,0.475,-1045.228,-90.821,-22.034,
00:00:02:333,-0.573,-0.471,0.788,-1201.233,-43.396,-114.502,
00:00:02:350,-0.622,-0.299,0.593,-1022.217,28.625,-147.217,
00:00:02:366,-0.607,-0.278,0.631,-835.144,62.866,-175.904,
00:00:02:383,-0.652,0.022,0.762,-368.103,66.65,-162.598,
00:00:02:400,-0.648,-0.157,0.926,6.103,104.065,-165.406,
00:00:02:416,-0.612,-0.114,0.972,189.27,101.989,-143.433,
00:00:02:433,-0.518,-0.036,1.041,302.063,71.228,-73.731,
00:00:02:450,-0.583,0.116,0.947,347.046,62.133,-37.964,
00:00:02:466,-0.567,-0.219,0.978,454.345,63.171,-37.293,
00:00:02:483,-0.559,-0.296,0.969,280.029,17.7,-31.25,
00:00:02:500,-0.576,-0.352,0.848,46.875,2.075,-47.913,
00:00:02:516,-0.498,-0.206,0.78,-197.876,-35.096,-57.679,
00:00:02:533,-0.557,-0.044,0.726,-177.491,-32.532,-44.007,
00:00:02:550,-0.539,-0.114,0.754,-169.983,-27.1,-40.101,
00:00:02:566,-0.593,-0.122,0.831,-126.221,-26.673,-13.611,
00:00:02:583,-0.609,-0.041,0.87,-48.645,-20.508,22.583,
00:00:02:600,-0.623,-0.061,0.859,69.091,-18.616,47.912,
00:00:02:616,-0.622,-0.119,0.842,135.986,-19.165,59.265,
00:00:02:633,-0.599,-0.151,0.834,190.124,-16.724,68.908,
00:00:02:650,-0.572,-0.207,0.819,213.684,-9.766,74.035,
00:00:02:666,-0.557,-0.249,0.793,203.125,-4.7,68.237,
00:00:02:683,-0.554,-0.268,0.773,186.645,3.173,59.509,
00:00:02:700,-0.575,-0.299,0.78,153.076,-14.771,46.264,
00:00:02:716,-0.596,-0.254,0.787,129.943,9.094,37.109,
00:00:02:733,-0.593,-0.272,0.781,161.499,22.399,15.991,
00:00:02:750,-0.591,-0.301,0.769,190.368,28.564,3.295,
00:00:02:766,-0.594,-0.324,0.779,195.434,23.62,-13.001,
00:00:02:783,-0.599,-0.339,0.78,174.987,23.01,-21.729,
00:00:02:800,-0.579,-0.32,0.784,138.061,28.808,-30.152,
00:00:02:816,-0.56,-0.304,0.786,124.023,32.836,-44.434,
00:00:02:833,-0.56,-0.336,0.79,76.294,31.189,-57.679,
00:00:02:850,-0.563,-0.343,0.821,24.658,27.832,-64.759,
00:00:02:866,-0.561,-0.287,0.81,10.07,41.259,-61.524,
00:00:02:883,-0.55,-0.278,0.8,18.676,45.41,-67.749,
00:00:02:900,-0.593,-0.272,0.851,40.71,31.127,-55.359,
00:00:02:916,-0.588,-0.307,0.815,52.307,57.861,-71.351,
00:00:02:933,-0.563,-0.282,0.825,-22.156,30.029,-35.34,
00:00:02:950,-0.522,-0.218,0.797,-156.861,16.662,-12.635,
00:00:02:966,-0.552,-0.181,0.763,-263.001,0.732,-0.184,
00:00:02:983,-0.585,-0.148,0.769,-272.217,-4.456,5.188,
00:00:03:0,-0.618,-0.164,0.828,-211.365,-7.081,14.038,
00:00:03:16,-0.637,-0.154,0.841,-86.914,3.845,16.906,
00:00:03:33,-0.618,-0.227,0.853,80.017,10.925,16.235,
00:00:03:50,-0.581,-0.289,0.839,157.348,13.427,13.183,
00:00:03:66,-0.562,-0.312,0.812,187.683,18.981,1.464,
00:00:03:83,-0.537,-0.341,0.798,184.814,23.437,-18.677,
00:00:03:100,-0.537,-0.343,0.78,156.982,30.944,-32.776,
00:00:03:116,-0.541,-0.337,0.773,142.395,38.574,-45.594,
00:00:03:133,-0.565,-0.352,0.786,135.315,42.846,-62.989,
00:00:03:150,-0.582,-0.376,0.781,91.43,51.147,-81.36,
00:00:03:166,-0.583,-0.373,0.761,41.137,62.011,-99.915,
00:00:03:183,-0.573,-0.367,0.724,10.07,61.889,-111.268,
00:00:03:200,-0.547,-0.296,0.697,-15.87,69.213,-107.3,
00:00:03:216,-0.549,-0.282,0.754,-29.664,58.837,-104.798,
00:00:03:233,-0.571,-0.286,0.814,-77.149,60.852,-99.244,
00:00:03:250,-0.568,-0.27,0.842,-166.626,53.711,-103.516,
00:00:03:266,-0.556,-0.253,0.847,-268.982,41.809,-101.563,
00:00:03:283,-0.557,-0.162,0.832,-280.823,38.086,-101.258,
00:00:03:300,-0.554,-0.154,0.829,-197.388,49.499,-97.474,
00:00:03:316,-0.551,-0.139,0.848,-126.587,58.593,-91.309,
00:00:03:333,-0.571,-0.142,0.873,-2.747,57.617,-84.168,
00:00:03:350,-0.586,-0.18,0.874,149.231,64.819,-77.881,
00:00:03:366,-0.58,-0.204,0.849,282.837,75.378,-68.787,
00:00:03:383,-0.57,-0.23,0.814,391.784,85.937,-66.895,
00:00:03:400,-0.549,-0.258,0.778,483.825,105.59,-70.801,
00:00:03:416,-0.535,-0.307,0.735,511.352,134.033,-75.745,
00:00:03:433,-0.539,-0.352,0.722,482.666,151.367,-83.985,
00:00:03:450,-0.522,-0.394,0.727,427.551,167.602,-85.083,
00:00:03:466,-0.4,-0.571,0.792,130.615,152.893,-62.378,
00:00:03:483,-0.514,-0.148,0.889,-247.01,59.326,3.967,
00:00:03:500,-0.638,-0.178,0.833,-92.164,131.53,-66.895,
00:00:03:516,-0.517,-0.255,0.943,-52.674,104.919,-50.904,
00:00:03:533,-0.592,-0.353,0.989,-100.525,47.241,-62.439,
00:00:03:550,-0.565,-0.403,0.954,-172.425,44.128,-106.568,
00:00:03:566,-0.504,-0.299,0.883,-140.015,13,-103.272,
00:00:03:583,-0.518,-0.336,0.883,-56.824,-4.212,-109.07,
00:00:03:600,-0.502,-0.364,0.899,-30.823,-12.513,-108.643,
00:00:03:616,-0.497,-0.339,0.916,-58.35,-15.137,-114.441,
00:00:03:633,-0.488,-0.376,0.916,-83.68,-23.377,-133.057,
00:00:03:650,-0.465,-0.433,0.893,-169.556,-35.828,-154.114,
00:00:03:666,-0.487,-0.332,0.88,-102.051,-30.396,-172.852,
00:00:03:683,-0.491,-0.375,0.87,-21.241,-27.039,-184.815,
00:00:03:700,-0.384,-0.388,0.886,-128.724,-28.565,-209.412,
00:00:03:716,-0.362,-0.268,0.871,-263.794,-46.753,-251.282,
00:00:03:733,-0.312,-0.2,0.972,-351.807,-28.809,-257.264,
00:00:03:750,-0.314,-0.174,0.995,-577.21,10.62,-280.64,
00:00:03:766,-0.34,-0.033,1.171,-865.967,63.11,-291.382,
00:00:03:783,-0.381,0.154,1.448,-1277.771,128.662,-329.651,
00:00:03:800,-0.358,0.56,1.622,-1595.887,245.056,-341.492,
00:00:03:816,-0.289,0.957,1.85,-1705.506,264.221,-341.675,
00:00:03:833,-0.288,1.185,2.141,-1673.34,159.668,-197.754,
00:00:03:850,-0.464,1.326,2.039,-1719.3,86.608,85.144,
00:00:03:866,-0.55,1.664,1.812,-1775.757,97.656,414.978,
00:00:03:883,-0.682,2.044,1.571,-1962.952,142.395,787.353,
00:00:03:900,-0.976,2.904,0.717,-1996.033,298.889,1377.807,
00:00:03:916,-1.207,3.383,0.265,-1458.374,825.805,1928.466,
00:00:03:933,-0.549,3.042,0.591,-1345.704,1329.284,1999.694,
00:00:03:950,0.319,2.886,0.909,-1888.306,1491.272,1999.694,
00:00:03:966,0.863,2.803,1.377,-1518.25,1681.274,1999.694,
00:00:03:983,1.584,2.851,0.978,-128.235,1848.632,1999.694,
00:00:04:0,3.732,2.166,1.703,1999.694,1315.551,1999.694,
00:00:04:16,3.999,0.138,0.092,1999.694,-565.491,1999.694,
00:00:04:33,3.999,-2.046,-1.962,1999.694,-2000,1999.694,
00:00:04:50,3.999,-3.524,-2.19,1999.694,-2000,1999.694,
00:00:04:66,2.528,-3.391,-1.827,1999.694,-2000,1258.178,
00:00:04:83,1.631,-2.043,-2.04,-505.555,-2000,92.529,
00:00:04:100,0.979,-1.996,-2.087,-1881.47,-1391.724,-613.587,
00:00:04:116,0.887,-2.549,-1.407,-1925.354,-768.921,-1181.885,
00:00:04:133,0.921,-2.337,-1.116,-1926.392,-290.711,-1717.835,
00:00:04:150,0.948,-2.176,-1.032,-1981.324,82.397,-2000,
00:00:04:166,0.944,-1.962,-1.036,-2000,171.02,-2000,
00:00:04:183,0.639,-1.613,-0.865,-1992.432,228.576,-2000,
00:00:04:200,0.57,-1.142,-0.471,-1615.601,311.645,-2000,
00:00:04:216,0.332,-0.566,0.028,-1107.178,315.918,-2000,
00:00:04:233,-0.121,0.03,0.572,-259.583,314.026,-2000,
00:00:04:250,-0.238,0.201,0.65,-72.144,288.147,-2000,
00:00:04:266,-0.333,0.602,0.773,-29.786,189.392,-2000,
00:00:04:283,-0.406,1.104,0.648,67.749,-7.935,-2000,
00:00:04:300,-0.58,1.484,0.473,763.122,-71.167,-2000,
00:00:04:316,-0.702,1.555,0.735,1362.243,-87.647,-1960.999,
00:00:04:333,-0.802,1.521,0.906,1670.044,-164.917,-1697.205,
00:00:04:350,-0.916,1.504,0.865,1928.527,-211.731,-1371.644,
00:00:04:366,-0.958,1.32,0.778,1932.312,-265.87,-1041.749,
00:00:04:383,-1.015,1.281,0.825,1723.877,-328.064,-756.531,
00:00:04:400,-1.038,1.269,0.943,1424.377,-371.46,-473.938,
00:00:04:416,-1.062,1.053,0.778,1056.335,-432.373,-131.409,
00:00:04:433,-1.057,0.599,0.524,453.064,-492.859,194.397,
00:00:04:450,-1.03,0.271,0.479,-464.173,-484.559,497.802,
00:00:04:466,-1.015,0.35,0.687,-1192.627,-397.034,781.067,
00:00:04:483,-0.922,0.67,1,-1290.467,-262.452,991.577,
00:00:04:500,-0.792,0.556,1.171,-299.683,-76.233,1161.621,
00:00:04:516,-0.891,0.518,0.939,257.629,26.489,1104.126,
00:00:04:533,-0.877,0.572,0.803,861.267,184.204,914.55,
00:00:04:550,-0.764,0.499,0.74,1527.771,336.425,734.619,
00:00:04:566,-0.771,0.066,0.788,1950.5,399.231,538.94,
00:00:04:583,-0.762,-0.233,0.847,1844.299,471.679,372.497,
00:00:04:600,-0.729,-0.259,0.896,1494.69,544.189,166.931,
00:00:04:616,-0.749,-0.225,0.895,1178.894,614.257,-7.264,
00:00:04:633,-0.765,-0.156,0.961,894.958,701.049,-107.911,
00:00:04:650,-0.737,-0.111,0.979,768.737,704.406,-175.721,
00:00:04:666,-0.742,-0.15,1.035,748.718,681.945,-164.063,
00:00:04:683,-0.77,-0.195,1.038,782.409,615.661,-125.916,
00:00:04:700,-0.54,-0.404,0.929,1197.692,364.929,-39.917,
00:00:04:716,-0.499,-0.561,0.877,1230.468,295.593,-13.55,
00:00:04:733,-0.527,-0.622,0.724,1109.924,261.23,-11.658,
00:00:04:750,-0.539,-0.554,0.636,1103.088,285.949,-24.353,
00:00:04:766,-0.44,-0.516,0.54,1265.686,304.931,-16.114,
00:00:04:783,-0.374,-0.455,0.629,156.25,206.726,68.664,
00:00:04:800,-0.356,-0.417,0.563,135.559,202.819,86.242,
00:00:04:816,-0.344,-0.574,0.775,118.042,93.627,107.849,
00:00:04:833,-0.499,-0.647,0.733,140.442,51.696,172.302,
00:00:04:850,-0.547,-0.616,0.722,364.196,31.066,189.392,
00:00:04:866,-0.362,-0.71,0.414,976.379,-20.752,251.709,
00:00:04:883,-0.358,-0.813,0.34,944.275,-62.867,202.758,
00:00:04:900,-0.399,-0.952,0.302,834.472,-133.057,175.048,
00:00:04:916,-0.43,-1.042,0.337,515.625,-203.003,150.512,
00:00:04:933,-0.434,-0.873,0.311,186.767,-264.405,149.292,
00:00:04:950,-0.418,-0.805,0.385,-26.185,-294.495,143.982,
00:00:04:966,-0.398,-0.75,0.394,-89.6,-338.501,154.48,
00:00:04:983,-0.432,-0.866,0.441,-103.882,-393.067,154.358,
00:00:05:0,-0.362,-0.662,0.393,82.336,-424.622,157.898,
00:00:05:16,-0.44,-0.784,0.312,350.402,-493.47,177.856,
00:00:05:33,-0.453,-0.775,0.312,549.377,-519.165,173.645,
00:00:05:50,-0.454,-0.868,0.301,733.703,-557.251,179.504,
00:00:05:66,-0.47,-0.958,0.288,715.271,-574.524,159.973,
00:00:05:83,-0.507,-1.035,0.295,553.1,-593.384,138.244,
00:00:05:100,-0.51,-0.973,0.32,396.911,-554.139,108.825,
00:00:05:116,-0.625,-1.198,0.286,305.114,-473.023,62.011,
00:00:05:133,-0.593,-0.838,0.281,-140.992,-306.092,51.147,
00:00:05:150,-0.712,-0.891,0.247,-263.184,-110.779,-1.038,
00:00:05:166,-0.724,-0.927,0.281,-490.601,16.052,-22.034,
00:00:05:183,-0.7,-0.822,0.306,-488.892,88.806,-34.607,
00:00:05:200,-0.641,-0.963,0.269,-419.8,110.351,-38.819,
00:00:05:216,-0.556,-0.894,0.152,-404.725,93.078,-26.062,
00:00:05:233,-0.515,-0.958,0.125,-481.141,70.251,-46.998,
00:00:05:250,-0.465,-1.015,0.253,-665.711,40.039,-69.092,
00:00:05:266,-0.453,-0.998,0.363,-798.401,14.038,-112.732,
00:00:05:283,-0.472,-0.917,0.445,-888.916,-7.203,-125.123,
00:00:05:300,-0.504,-0.807,0.487,-859.009,-7.935,-150.635,
00:00:05:316,-0.514,-0.849,0.522,-815.43,-3.907,-178.894,
00:00:05:333,-0.496,-0.645,0.493,-687.5,45.898,-173.768,
00:00:05:350,-0.562,-0.61,0.48,-505.005,73.364,-169.434,
00:00:05:366,-0.518,-0.609,0.491,-296.936,120.056,-153.87,
00:00:05:383,-0.547,-0.633,0.505,-31.617,143.127,-119.751,
00:00:05:400,-0.541,-0.594,0.557,145.935,176.086,-66.346,
00:00:05:416,-0.544,-0.656,0.619,281.921,189.331,-47.913,
00:00:05:433,-0.417,-0.717,0.64,434.936,184.204,-28.077,
00:00:05:450,-0.63,-0.486,0.68,434.631,165.466,29.174,
00:00:05:466,-0.495,-0.767,0.536,600.402,195.861,-4.517,
00:00:05:483,-0.497,-0.68,0.56,683.96,196.045,36.254,
00:00:05:500,-0.452,-0.893,0.59,795.959,217.407,13.549,
00:00:05:516,-0.365,-0.956,0.515,700.195,194.03,12.39,
00:00:05:533,-0.347,-0.795,0.482,594.665,203.43,-13.306,
00:00:05:550,-0.289,-0.918,0.464,494.445,225.158,-61.463,
00:00:05:566,-0.348,-0.953,0.398,360.901,218.933,-87.952,
00:00:05:583,-0.313,-0.896,0.372,217.712,197.387,-118.348,
00:00:05:600,-0.486,-0.963,0.416,217.346,124.145,-139.588,
00:00:05:616,-0.536,-0.76,0.351,140.564,67.138,-97.535,
00:00:05:633,-0.587,-0.855,0.304,66.223,-14.344,-109.559,
00:00:05:650,-0.596,-0.871,0.259,-140.87,-73.121,-54.81,
00:00:05:666,-0.587,-0.922,0.208,-347.84,-106.08,-29.053,
00:00:05:683,-0.607,-0.817,0.175,-600.464,-126.526,11.474,
00:00:05:700,-0.562,-0.806,0.277,-864.869,-132.63,3.54,
00:00:05:716,-0.561,-0.563,0.345,-992.127,-102.784,3.295,
00:00:05:733,-0.576,-0.517,0.441,-902.832,-32.898,3.112,
00:00:05:750,-0.578,-0.429,0.533,-636.841,3.295,13.794,
00:00:05:766,-0.502,-0.658,0.609,-407.227,35.034,-20.02,
00:00:05:783,-0.61,-0.826,0.681,-247.071,42.663,-6.165,
00:00:05:800,-0.54,-0.871,0.68,-279.908,24.902,-3.724,
00:00:05:816,-0.518,-0.776,0.699,-248.841,15.38,-10.498,
00:00:05:833,-0.488,-0.785,0.651,-247.376,11.962,-33.143,
00:00:05:850,-0.482,-0.739,0.595,-227.601,18.615,-40.284,
00:00:05:866,-0.457,-0.724,0.651,-173.768,24.292,-39.246,
00:00:05:883,-0.449,-0.707,0.565,-125.367,45.41,-33.387,
00:00:05:900,-0.442,-0.75,0.58,-115.906,58.044,-22.889,
00:00:05:916,-0.429,-0.655,0.587,-133.484,57.861,0.183,
00:00:05:933,-0.428,-0.698,0.581,-185.791,51.635,23.62,
00:00:05:950,-0.429,-0.658,0.625,-208.252,51.269,44.372,
00:00:05:966,-0.421,-0.666,0.621,-141.297,56.518,65.307,
00:00:05:983,-0.413,-0.68,0.609,-76.111,70.19,82.214,
00:00:06:0,-0.396,-0.695,0.643,-74.524,84.899,94.055,grateLH
00:00:06:16,-0.356,-0.732,0.711,-68.604,104.919,100.463,
00:00:06:33,-0.334,-0.757,0.792,-1.099,127.99,105.651,
00:00:06:50,-0.351,-0.736,0.854,104.126,137.512,109.741,
00:00:06:66,-0.362,-0.654,0.921,262.39,127.441,96.13,
00:00:06:83,-0.391,-0.65,0.891,438.171,99.182,108.215,
00:00:06:100,-0.396,-0.681,0.828,656.616,84.716,98.755,
00:00:06:116,-0.43,-0.681,0.76,1018.493,75.317,57.617,
00:00:06:133,-0.572,-0.734,0.566,1323.974,68.42,73.486,
00:00:06:150,-0.605,-0.711,0.367,1410.4,55.725,114.807,
00:00:06:166,-0.557,-0.724,0.216,1319.702,75.927,132.812,
00:00:06:183,-0.535,-0.689,0.14,1255.249,110.839,130.432,
00:00:06:200,-0.413,-0.774,-0.063,1187.561,162.719,109.924,
00:00:06:216,-0.412,-1.032,-0.145,811.584,146.118,125.732,
00:00:06:233,-0.512,-1.11,-0.027,379.821,131.836,141.662,
00:00:06:250,-0.511,-0.835,0.059,234.741,127.624,161.499,
00:00:06:266,-0.474,-0.7,0.063,306.152,92.468,160.888,
00:00:06:283,-0.411,-0.691,0.251,382.324,2.99,210.388,
00:00:06:300,-0.363,-0.72,0.352,599.792,-57.312,188.842,
00:00:06:316,-0.387,-1.039,0.33,695.495,-98.755,205.139,
00:00:06:333,-0.376,-1.081,0.18,439.758,-151.246,162.231,
00:00:06:350,-0.426,-1.18,0.221,171.63,-180.115,98.144,
00:00:06:366,-0.53,-1.313,-0.01,-321.045,-145.691,59.326,
00:00:06:383,-0.326,-0.931,0.171,-839.478,-166.932,3.845,
00:00:06:400,-0.417,-0.682,0.407,-818.726,-177.613,25.878,
00:00:06:416,-0.483,-0.988,0.406,-866.272,-163.147,-27.71,
00:00:06:433,-0.596,-0.833,0.29,-873.169,-153.931,0.183,
00:00:06:450,-0.532,-0.602,0.382,-893.128,-151.612,91.919,
00:00:06:466,-0.341,-0.675,0.231,-1154.236,-164.917,134.338,
00:00:06:483,-0.275,-1.129,0.69,-1038.086,-158.631,-4.7,
00:00:06:500,-0.264,-0.934,0.745,-609.07,-140.992,13.855,
00:00:06:516,-0.263,-1.018,0.492,-375,-108.887,5.859,
00:00:06:533,-0.413,-0.932,0.405,-452.332,-116.639,7.08,
00:00:06:550,-0.358,-0.966,0.53,-448.121,-130.738,-20.691,
00:00:06:566,-0.357,-0.837,0.61,-431.763,-148.743,-27.161,
00:00:06:583,-0.371,-0.86,0.654,-479.737,-163.269,-50.904,
00:00:06:600,-0.394,-0.807,0.658,-512.207,-179.2,-43.885,
00:00:06:616,-0.42,-0.669,0.651,-377.259,-184.327,-26.734,
00:00:06:633,-0.406,-0.749,0.684,-318.604,-199.952,-23.804,
00:00:06:650,-0.421,-0.786,0.729,-331.788,-212.525,-28.504,
00:00:06:666,-0.5,-0.757,0.731,-493.836,-247.864,-15.87,
00:00:06:683,-0.336,-0.853,0.756,-571.595,-244.629,-61.341,
00:00:06:700,-0.59,-0.575,0.586,-619.08,-251.77,-3.724,
00:00:06:716,-0.329,-0.591,0.765,-492.493,-231.934,-19.288,
00:00:06:733,-0.355,-0.695,0.673,-237.488,-174.5,-25.513,
00:00:06:750,-0.423,-0.666,0.272,33.203,-104.248,18.188,
00:00:06:766,-0.252,-0.817,0.387,-170.655,-12.94,-15.809,
00:00:06:783,-0.142,-0.827,0.49,-217.53,16.601,-47.913,
00:00:06:800,-0.149,-0.805,0.512,-227.967,70.068,-64.759,
00:00:06:816,-0.12,-0.863,0.51,-165.894,143.921,-79.224,
00:00:06:833,-0.154,-0.853,0.493,-226.441,197.937,-79.468,
00:00:06:850,-0.191,-0.664,0.773,-324.402,213.684,-59.205,
00:00:06:866,-0.207,-0.731,0.703,-90.577,228.21,-42.664,
00:00:06:883,-0.221,-0.723,0.623,92.834,252.197,-27.588,
00:00:06:900,-0.211,-0.834,0.619,225.219,294.983,-36.744,
00:00:06:916,-0.229,-0.873,0.511,223.816,314.758,-51.27,
00:00:06:933,-0.281,-0.863,0.482,162.902,344.787,-79.651,
00:00:06:950,-0.326,-0.884,0.485,4.089,364.563,-110.169,
00:00:06:966,-0.356,-0.727,0.676,-0.733,351.013,-113.648,
00:00:06:983,-0.384,-0.726,0.722,62.439,335.937,-126.526,
00:00:07:0,-0.455,-0.721,0.735,-71.9,296.875,-128.357,
00:00:07:16,-0.532,-0.473,0.858,22.338,247.985,-115.113,
00:00:07:33,-0.502,-0.613,0.781,183.838,218.811,-97.718,
00:00:07:50,-0.609,-0.521,0.836,24.475,145.874,-87.098,
00:00:07:66,-0.601,-0.194,1.125,-338.623,-122.254,-43.396,
00:00:07:83,-0.52,-0.432,0.902,-29.664,-121.277,-26.795,
00:00:07:100,-0.496,-0.462,0.781,138.427,-118.164,-9.461,
00:00:07:116,-0.449,-0.655,0.666,185.058,-105.286,-11.475,
00:00:07:133,-0.427,-0.753,0.593,54.199,-93.934,-39.49,
00:00:07:150,-0.413,-0.582,0.806,-431.946,-135.926,-39.551,
00:00:07:166,-0.393,-0.507,0.902,-281.739,-164.063,2.441,
00:00:07:183,-0.375,-0.488,0.873,-124.573,-195.496,75.5,
00:00:07:200,-0.297,-0.667,0.903,93.566,-202.088,87.28,
00:00:07:216,-0.311,-0.593,0.674,97.045,-205.628,124.145,
00:00:07:233,-0.278,-0.59,0.716,-182.19,-167.969,71.044,
00:00:07:250,-0.315,-0.604,0.761,-284.058,-156.311,68.725,
00:00:07:266,-0.353,-0.395,0.934,-332.642,-170.533,87.402,
00:00:07:283,-0.316,-0.609,0.859,-42.725,-137.635,88.44,
00:00:07:300,-0.373,-0.581,0.668,-10.071,-134.766,113.525,
00:00:07:316,-0.33,-0.538,0.868,-151.734,-144.776,128.845,
00:00:07:333,-0.235,-0.757,0.823,-9.278,-91.797,80.444,
00:00:07:350,-0.24,-0.707,0.6,-8.851,-38.758,63.11,
00:00:07:366,-0.175,-0.749,0.648,-68.177,13.122,22.949,
00:00:07:383,-0.192,-0.801,0.616,-75.806,69.824,-18.006,
00:00:07:400,-0.206,-0.755,0.613,-78.309,118.591,-40.65,
00:00:07:416,-0.24,-0.753,0.625,-82.581,155.944,-66.59,
00:00:07:433,-0.266,-0.669,0.689,-115.723,166.32,-70.679,
00:00:07:450,-0.263,-0.652,0.789,-122.681,151.428,-70.008,
00:00:07:466,-0.214,-0.672,0.82,34.179,154.846,-86.365,
00:00:07:483,-0.224,-0.7,0.69,152.588,173.645,-83.558,
00:00:07:500,-0.235,-0.729,0.7,255.371,199.646,-103.211,
00:00:07:516,-0.245,-0.756,0.666,295.898,226.257,-107.85,
00:00:07:533,-0.27,-0.766,0.667,273.559,248.474,-135.254,
00:00:07:550,-0.329,-0.68,0.664,78.613,276.062,-161.988,
00:00:07:566,-0.383,-0.573,0.726,78.857,279.785,-176.209,
00:00:07:583,-0.405,-0.744,0.747,111.633,259.46,-167.603,
00:00:07:600,-0.484,-0.451,0.713,139.526,260.192,-164.307,
00:00:07:616,-0.492,-0.511,0.803,155.578,212.341,-124.634,
00:00:07:633,-0.52,-0.559,0.816,65.918,163.574,-130.433,
00:00:07:650,-0.63,-0.374,0.897,-204.041,71.35,-109.803,
00:00:07:666,-0.611,-0.349,0.95,-375.428,-34.363,-88.257,
00:00:07:683,-0.62,-0.054,1.191,-412.781,-150.33,-38.941,
00:00:07:700,-0.525,-0.28,1.11,-41.81,-189.637,0.183,
00:00:07:716,-0.529,-0.267,0.933,265.075,-205.628,56.701,
00:00:07:733,-0.474,-0.502,0.758,467.956,-206.238,81.298,
00:00:07:750,-0.469,-0.64,0.486,207.031,-209.351,79.101,
00:00:07:766,-0.409,-0.835,0.513,-211.67,-215.149,46.02,
00:00:07:783,-0.395,-0.623,0.812,-704.346,-258.118,55.053,
00:00:07:800,-0.495,-0.594,0.706,-705.079,-249.695,88.134,
00:00:07:816,-0.311,-0.384,1.285,-516.785,-314.331,111.694,
00:00:07:833,-0.343,-0.547,0.899,-76.233,-289.307,193.908,
00:00:07:850,-0.191,-0.609,0.827,390.197,-260.437,174.316,
00:00:07:866,-0.194,-0.734,0.574,357.055,-205.872,158.264,
00:00:07:883,-0.25,-0.844,0.506,-45.166,-206.665,122.741,
00:00:07:900,-0.195,-0.778,0.72,-352.539,-171.143,47.668,
00:00:07:916,-0.272,-0.552,0.739,-400.025,-124.512,29.785,
00:00:07:933,-0.212,-0.679,0.786,-155.701,-70.679,11.413,
00:00:07:950,-0.219,-0.677,0.745,59.021,-5.738,-15.32,
00:00:07:966,-0.21,-0.752,0.604,114.013,56.701,-18.86,
00:00:07:983,-0.209,-0.71,0.679,-48.279,84.899,-39.734,
00:00:08:0,-0.198,-0.623,0.878,-158.814,84.167,-74.952,
00:00:08:16,-0.215,-0.735,0.818,-45.289,113.159,-108.094,
00:00:08:33,-0.273,-0.742,0.624,304.626,259.826,-198.731,
00:00:08:50,-0.351,-0.699,0.56,185.547,291.931,-221.985,
00:00:08:66,-0.391,-0.683,0.612,92.407,296.264,-234.07,
00:00:08:83,-0.415,-0.669,0.715,33.752,285.522,-235.169,
00:00:08:100,-0.485,-0.435,0.8,-135.193,249.694,-207.398,
00:00:08:116,-0.516,-0.352,0.918,29.296,191.589,-178.162,
00:00:08:133,-0.527,-0.388,0.902,38.33,126.403,-114.502,
00:00:08:150,-0.642,-0.188,0.956,-118.103,38.818,-68.299,
00:00:08:166,-0.672,-0.206,1.008,-262.452,-66.285,-20.874,
00:00:08:183,-0.638,-0.057,1.129,-297.181,-153.687,4.577,
00:00:08:200,-0.582,-0.326,1.029,-72.693,-178.345,18.371,
00:00:08:216,-0.598,-0.38,0.822,-19.41,-177.124,39.428,
00:00:08:233,-0.565,-0.478,0.73,-52.674,-169.434,44.738,
00:00:08:250,-0.512,-0.446,0.749,-93.995,-169.068,49.682,
00:00:08:266,-0.511,-0.522,0.635,-215.027,-163.758,64.88,
00:00:08:283,-0.457,-0.479,0.83,-363.099,-185.303,75.561,
00:00:08:300,-0.577,-0.431,0.703,-478.821,-196.534,166.504,
00:00:08:316,-0.413,-0.648,0.913,-179.505,-198.914,134.704,
00:00:08:333,-0.374,-0.256,0.939,-155.213,-239.502,206.115,
00:00:08:350,-0.27,-0.558,0.859,75.073,-229.31,237.854,
00:00:08:366,-0.178,-0.772,0.803,376.831,-156.25,158.63,
00:00:08:383,-0.259,-0.606,0.586,350.036,-115.174,169.494,
00:00:08:400,-0.102,-0.755,0.7,361.145,-22.767,63.659,
00:00:08:416,-0.173,-0.778,0.578,452.209,77.392,-11.78,
00:00:08:433,-0.216,-0.827,0.508,347.107,148.986,-68.482,
00:00:08:450,-0.23,-0.784,0.648,64.697,174.865,-117.981,
00:00:08:466,-0.166,-0.721,0.869,-83.374,189.209,-167.786,
00:00:08:483,-0.159,-0.778,0.809,-42.847,222.473,-211.548,
00:00:08:500,-0.163,-0.754,0.705,90.759,273.559,-260.376,
00:00:08:516,-0.193,-0.78,0.667,59.57,325.439,-290.772,
00:00:08:533,-0.256,-0.629,0.625,186.157,385.376,-306.336,
00:00:08:550,-0.35,-0.654,0.599,197.631,446.838,-317.322,
00:00:08:566,-0.45,-0.613,0.709,83.618,431.64,-293.885,
00:00:08:583,-0.567,-0.49,0.829,-127.381,381.103,-293.152,
00:00:08:600,-0.708,-0.249,0.906,-193.482,256.164,-219.361,
00:00:08:616,-0.781,0.029,1.091,-400.086,75.195,-125.245,
00:00:08:633,-0.801,0.042,1.294,-425.415,-101.746,-8.362,
00:00:08:650,-0.698,0.092,1.257,-60.486,-211.67,51.635,
00:00:08:666,-0.6,-0.297,0.989,237.732,-254.822,126.403,
00:00:08:683,-0.547,-0.39,0.75,336.731,-266.053,157.592,
00:00:08:700,-0.437,-0.545,0.687,182.495,-269.715,153.076,
00:00:08:716,-0.403,-0.739,0.534,-64.82,-261.353,124.328,
00:00:08:733,-0.348,-0.579,0.798,-451.477,-286.866,116.15,
00:00:08:750,-0.414,-0.326,0.882,-740.357,-314.698,171.569,
00:00:08:766,-0.342,-0.507,1.145,-315.125,-270.752,146.85,
00:00:08:783,-0.305,-0.366,0.827,-99.488,-248.047,231.689,
00:00:08:800,-0.138,-0.698,0.863,203.186,-213.379,225.952,
00:00:08:816,-0.108,-0.728,0.759,243.103,-155.762,210.754,
00:00:08:833,-0.017,-1.04,0.458,244.69,-60.608,128.784,
00:00:08:850,0.022,-0.973,0.472,238.891,58.227,-9.4,
00:00:08:866,-0.094,-0.963,0.354,65.246,167.724,-78.125,
00:00:08:883,-0.161,-0.627,0.778,-21.241,222.29,-138.123,
00:00:08:900,-0.19,-0.621,0.883,356.384,297.058,-210.511,
00:00:08:916,-0.248,-0.727,0.58,747.375,381.958,-223.45,
00:00:08:933,-0.298,-0.789,0.476,674.682,450.5,-226.563,
00:00:08:950,-0.369,-0.757,0.385,545.105,497.375,-241.333,
00:00:08:966,-0.435,-0.678,0.699,98.632,466.858,-248.902,
00:00:08:983,-0.526,-0.527,0.821,-106.324,418.701,-250.733,
00:00:09:0,-0.683,-0.051,0.97,-224.915,311.34,-161.072,
00:00:09:16,-0.775,-0.154,1.296,-96.07,173.767,-97.229,
00:00:09:33,-0.828,0.03,1.244,-175.538,17.944,0.305,
00:00:09:50,-0.765,0.078,1.332,-112.305,-134.156,70.678,
00:00:09:66,-0.6,-0.434,0.819,172.18,-217.469,101.318,
00:00:09:83,-0.502,-0.675,0.615,7.751,-217.835,66.589,
00:00:09:100,-0.502,-0.605,0.639,-344.483,-234.375,37.597,
00:00:09:116,-0.398,-0.594,0.723,-391.358,-216.98,-1.038,
00:00:09:133,-0.513,-0.537,0.486,-669.19,-203.553,21.423,
00:00:09:150,-0.519,-0.036,1.327,-714.417,-303.65,128.723,
00:00:09:166,-0.117,-0.669,1.077,46.142,-277.588,262.39,
00:00:09:183,-0.083,-0.802,0.735,143.249,-209.961,220.092,
00:00:09:200,-0.082,-0.84,0.511,-26.429,-156.128,181.64,
00:00:09:216,0.073,-0.788,0.698,34.545,-68.604,91.369,
00:00:09:233,0.041,-1.001,0.515,114.135,61.096,-2.015,
00:00:09:250,-0.15,-0.676,0.742,-118.103,187.683,-134.461,
00:00:09:266,-0.138,-0.632,0.94,51.94,209.777,-191.895,
00:00:09:283,-0.247,-0.602,0.77,254.699,240.844,-182.496,
00:00:09:300,-0.342,-0.67,0.641,492.126,285.278,-201.172,
00:00:09:316,-0.339,-0.825,0.558,408.203,320.129,-200.318,
00:00:09:333,-0.399,-0.807,0.513,225.769,342.529,-228.76,
00:00:09:350,-0.669,-0.349,0.948,-145.508,254.699,-197.388,
00:00:09:366,-0.782,-0.084,1.095,-108.094,136.657,-123.047,
00:00:09:383,-0.78,-0.079,1.189,-338.44,-1.282,-46.509,
00:00:09:400,-0.771,0.065,1.22,-347.779,-140.137,25.329,
00:00:09:416,-0.593,-0.31,1.142,-16.602,-198.853,34.301,
00:00:09:433,-0.57,-0.504,0.805,-1.831,-208.435,55.481,
00:00:09:450,-0.529,-0.575,0.674,-96.07,-209.168,41.565,
00:00:09:466,-0.5,-0.48,0.751,-317.017,-223.755,44.86,
00:00:09:483,-0.5,-0.399,0.871,-573.06,-258.484,79.589,
00:00:09:500,-0.392,-0.471,1.089,-378.235,-258.606,88.44,
00:00:09:516,-0.315,-0.682,0.878,57.922,-181.214,89.782,
00:00:09:533,-0.412,-0.676,0.409,-97.29,-167.603,172.668,
00:00:09:550,-0.096,-0.561,1.09,123.596,-122.254,78.796,
00:00:09:566,-0.215,-0.765,0.473,82.946,-55.542,125.427,
00:00:09:583,0.01,-0.836,0.766,194.213,-16.48,8.85,
00:00:09:600,-0.087,-0.882,0.586,208.435,71.594,-36.927,
00:00:09:616,-0.1,-0.933,0.569,273.254,147.827,-111.145,
00:00:09:633,-0.232,-0.695,0.707,98.999,177.185,-149.842,
00:00:09:650,-0.211,-0.648,0.897,154.602,180.481,-196.717,
00:00:09:666,-0.262,-0.718,0.766,270.019,195.617,-207.947,
00:00:09:683,-0.277,-0.69,0.686,374.45,223.449,-237.61,
00:00:09:700,-0.284,-0.658,0.681,314.087,232.666,-234.742,
00:00:09:716,-0.36,-0.714,0.65,221.374,251.403,-281.25,
00:00:09:733,-0.397,-0.521,0.682,-7.019,252.38,-265.87,
00:00:09:750,-0.499,-0.518,0.783,-101.136,243.896,-286.072,
00:00:09:766,-0.606,-0.124,0.842,-63.904,208.679,-219.605,
00:00:09:783,-0.618,-0.17,0.927,-125.367,150.94,-160.279,
00:00:09:800,-0.731,0.021,1.057,-356.446,25.268,-55.603,
00:00:09:816,-0.662,0.048,1.195,-331.238,-93.811,32.898,
00:00:09:833,-0.576,-0.207,1.097,55.297,-138.916,87.463,
00:00:09:850,-0.552,-0.422,0.869,107.971,-165.894,133.117,
00:00:09:866,-0.414,-0.531,0.838,-15.931,-192.139,124.572,
00:00:09:883,-0.476,-0.707,0.53,-182.068,-176.636,121.765,
00:00:09:900,-0.409,-0.449,0.857,-420.472,-209.961,104.126,
00:00:09:916,-0.561,-0.236,0.806,-613.343,-232.3,196.106,
00:00:09:933,-0.342,-0.385,1.242,-236.023,-254.456,194.152,
00:00:09:950,-0.36,-0.315,0.957,12.695,-253.357,272.888,
00:00:09:966,-0.257,-0.624,0.707,300.415,-203.919,285.4,
00:00:09:983,-0.192,-0.641,0.671,216.003,-155.152,256.775,
00:00:10:0,-0.19,-0.922,0.454,326.965,-41.504,165.039,
00:00:10:16,-0.097,-0.63,0.825,446.594,38.635,65.429,
00:00:10:33,-0.169,-0.827,0.499,941.406,199.951,-9.095,grateLH
00:00:10:50,-0.247,-0.901,0.52,817.871,270.324,-76.6,
00:00:10:66,-0.179,-0.872,0.747,511.474,284.484,-168.274,
00:00:10:83,-0.168,-1.143,0.579,271.057,327.148,-267.09,
00:00:10:100,-0.223,-0.977,0.493,-80.445,338.867,-345.398,
00:00:10:116,-0.252,-0.77,0.589,-144.959,375.488,-405.64,
00:00:10:133,-0.341,-0.754,0.629,41.992,402.404,-420.533,
00:00:10:150,-0.438,-0.437,0.662,-36.56,408.02,-426.392,
00:00:10:166,-0.424,-0.59,0.79,-245.972,357.605,-410.279,
00:00:10:183,-0.707,-0.114,1.012,-570.069,124.817,-257.569,
00:00:10:200,-0.796,0.122,1.159,-777.955,-38.147,-136.719,
00:00:10:216,-0.652,0.239,1.294,-429.566,-148.865,-15.503,
00:00:10:233,-0.535,-0.28,1.057,134.155,-161.805,57.434,
00:00:10:250,-0.546,-0.411,0.807,296.081,-181.946,116.821,
00:00:10:266,-0.462,-0.524,0.626,252.624,-187.684,137.207,
00:00:10:283,-0.42,-0.602,0.589,-27.039,-197.144,112.609,
00:00:10:300,-0.43,-0.675,0.637,-355.896,-193.665,96.374,
00:00:10:316,-0.431,-0.396,0.748,-613.77,-200.135,102.6,
00:00:10:333,-0.568,-0.282,0.681,-586.06,-185.791,187.866,
00:00:10:350,-0.462,-0.355,1.042,-344.849,-203.37,214.599,
00:00:10:366,-0.423,-0.488,0.815,89.05,-177.613,274.292,
00:00:10:383,-0.296,-0.463,0.73,294.433,-149.048,317.871,
00:00:10:400,-0.16,-0.543,0.77,291.015,-97.901,297.851,
00:00:10:416,-0.066,-1.055,0.41,479.309,23.681,191.833,
00:00:10:433,-0.068,-0.911,0.608,271.789,94.482,74.279,
00:00:10:450,-0.066,-1.146,0.598,242.37,229.492,-78.064,
00:00:10:466,-0.195,-0.902,0.72,23.437,262.024,-154.664,
00:00:10:483,-0.16,-0.676,1.01,15.93,260.986,-257.447,
00:00:10:500,-0.198,-0.734,0.829,344.665,288.513,-297.73,
00:00:10:516,-0.247,-0.775,0.684,523.498,308.838,-316.224,
00:00:10:533,-0.254,-0.832,0.605,402.404,338.073,-348.328,
00:00:10:550,-0.36,-0.87,0.621,121.46,349.731,-394.227,
00:00:10:566,-0.421,-0.325,0.627,-123.291,341.858,-375.672,
00:00:10:583,-0.541,-0.434,0.859,-7.691,309.631,-387.024,
00:00:10:600,-0.636,-0.152,0.868,-277.222,242.797,-321.778,
00:00:10:616,-0.779,0.279,1.224,-390.015,69.946,-186.158,
00:00:10:633,-0.704,0.096,1.256,-286.805,-69.703,-66.834,
00:00:10:650,-0.715,0.145,1.332,-150.147,-209.839,47.241,
00:00:10:666,-0.523,-0.492,0.993,220.642,-255.188,95.275,
00:00:10:683,-0.523,-0.417,0.76,112.243,-287.11,137.817,
00:00:10:700,-0.451,-0.549,0.645,40.1,-291.871,141.845,
00:00:10:716,-0.426,-0.457,0.73,-249.451,-315.43,132.385,
00:00:10:733,-0.518,-0.579,0.613,-530.274,-298.768,146.972,
00:00:10:750,-0.39,-0.372,1.091,-507.142,-325.501,137.207,
00:00:10:766,-0.386,-0.105,1.274,-532.166,-356.08,235.656,
00:00:10:783,-0.256,-0.436,0.869,-41.443,-258.728,253.54,
00:00:10:800,-0.21,-0.44,1.054,304.748,-228.638,213.073,
00:00:10:816,-0.287,-0.432,0.752,238.464,-199.83,274.047,
00:00:10:833,-0.037,-0.787,0.685,296.63,-87.159,171.02,
00:00:10:850,-0.162,-0.81,0.329,308.899,21.484,92.651,
00:00:10:866,-0.121,-0.967,0.468,102.05,113.22,-12.33,
00:00:10:883,-0.192,-0.875,0.385,-43.152,239.318,-79.956,
00:00:10:900,-0.288,-0.653,0.631,-242.371,277.771,-111.084,
00:00:10:916,-0.272,-0.543,0.92,-119.69,306.64,-161.683,
00:00:10:933,-0.315,-0.618,0.775,201.049,344.909,-163.575,
00:00:10:950,-0.332,-0.615,0.713,390.686,369.629,-164.673,
00:00:10:966,-0.313,-0.625,0.702,598.999,388.244,-166.199,
00:00:10:983,-0.339,-0.821,0.651,282.592,361.45,-159.485,
00:00:11:0,-0.453,-0.649,0.657,-9.278,334.9,-201.05,
00:00:11:16,-0.49,-0.41,0.917,-270.997,248.23,-155.396,
00:00:11:33,-0.543,-0.24,1.014,-136.292,191.406,-120.057,
00:00:11:50,-0.591,-0.204,1.084,-75.928,122.436,-57.007,
00:00:11:66,-0.583,-0.197,1.01,-181.763,55.358,-28.321,
00:00:11:83,-0.637,-0.313,1.078,-491.028,-42.969,-46.692,
00:00:11:100,-0.537,-0.188,1.145,-449.769,-112.488,-54.749,
00:00:11:116,-0.49,-0.432,0.895,-339.6,-106.08,-68.299,
00:00:11:133,-0.488,-0.512,0.821,-322.083,-119.812,-50.232,
00:00:11:150,-0.467,-0.432,0.827,-188.111,-125.367,-29.786,
00:00:11:166,-0.463,-0.492,0.772,-71.595,-124.451,-14.1,
00:00:11:183,-0.454,-0.5,0.788,-44.922,-138.184,7.263,
00:00:11:200,-0.43,-0.539,0.837,-41.443,-157.349,16.967,
00:00:11:216,-0.416,-0.527,0.794,-101.319,-182.435,48.095,
00:00:11:233,-0.376,-0.457,0.802,-123.719,-206.482,90.148,
00:00:11:250,-0.404,-0.372,0.698,-218.079,-227.356,146.484,
00:00:11:266,-0.378,-0.104,0.907,-274.353,-253.785,201.477,
00:00:11:283,-0.27,-0.404,0.991,-31.983,-213.257,203.064,
00:00:11:300,-0.502,-0.496,0.322,-172.303,-167.237,282.837,
00:00:11:316,-0.313,0.151,1.27,-367.371,-242.432,272.583,
00:00:11:333,-0.321,-0.521,0.715,-68.909,-138.855,335.388,
00:00:11:350,-0.366,-0.457,0.524,-45.166,-88.074,327.575,
00:00:11:366,-0.204,-0.239,1.027,-268.128,-89.539,307.19,
00:00:11:383,-0.258,-0.776,0.778,-100.464,2.502,244.995,
00:00:11:400,-0.222,-0.561,0.889,-138.611,10.07,203.491,
00:00:11:416,-0.139,-0.654,0.923,18.554,70.8,106.933,
00:00:11:433,-0.153,-0.818,0.852,182.617,121.032,16.479,
00:00:11:450,-0.247,-0.802,0.734,114.013,160.583,-35.096,
00:00:11:466,-0.295,-0.607,0.843,6.713,156.982,-85.572,
00:00:11:483,-0.268,-0.606,0.928,100.341,146.24,-124.817,
00:00:11:500,-0.281,-0.588,0.916,254.516,141.601,-156.128,
00:00:11:516,-0.239,-0.578,0.873,484.619,160.705,-197.754,
00:00:11:533,-0.261,-0.687,0.734,621.765,184.936,-218.201,
00:00:11:550,-0.25,-0.848,0.625,314.392,205.993,-270.325,
00:00:11:566,-0.361,-0.677,0.588,-140.686,230.713,-321.106,
00:00:11:583,-0.414,-0.542,0.766,-410.645,200.622,-309.998,
00:00:11:600,-0.486,-0.304,0.948,-586.548,188.537,-318.177,
00:00:11:616,-0.594,-0.163,0.958,-458.008,158.752,-265.198,
00:00:11:633,-0.679,0.009,1.034,-452.881,90.393,-182.068,
00:00:11:650,-0.688,0.164,0.921,-384.461,39.733,-108.582,
00:00:11:666,-0.738,0.096,0.944,-475.281,-59.082,-35.34,
00:00:11:683,-0.631,0.237,1.096,-483.094,-123.169,5.92,
00:00:11:700,-0.521,-0.231,1.018,-169.19,-115.174,-0.061,
00:00:11:716,-0.504,-0.329,0.878,-125.733,-117.371,22.338,
00:00:11:733,-0.457,-0.365,0.832,-45.655,-108.704,24.169,
00:00:11:750,-0.484,-0.413,0.838,-105.469,-115.479,33.569,
00:00:11:766,-0.465,-0.427,0.839,-174.073,-130.31,31.677,
00:00:11:783,-0.444,-0.326,0.926,-154.602,-143.494,22.522,
00:00:11:800,-0.408,-0.507,0.825,-12.146,-126.77,13.244,
00:00:11:816,-0.458,-0.198,0.998,-120.85,-175.904,57.067,
00:00:11:833,-0.477,-0.353,0.891,-113.404,-194.703,114.318,
00:00:11:850,-0.496,-0.024,0.942,-328.98,-245.606,195.129,
00:00:11:866,-0.365,-0.119,1.114,-153.199,-247.742,216.674,
00:00:11:883,-0.405,-0.167,0.918,-279.236,-259.888,306.091,
00:00:11:900,-0.415,-0.356,0.656,-105.225,-200.562,297.668,
00:00:11:916,-0.274,-0.091,1.03,-166.81,-196.106,283.63,
00:00:11:933,-0.216,-0.328,0.864,-107.727,-111.268,252.624,
00:00:11:950,-0.13,-0.414,0.959,139.526,-1.709,157.653,
00:00:11:966,-0.16,-0.539,0.794,283.325,86.364,79.589,
00:00:11:983,-0.116,-0.577,0.838,479.736,150.756,-7.325,
00:00:12:0,-0.22,-0.707,0.707,507.385,212.951,-85.144,
00:00:12:16,-0.27,-0.609,0.79,196.35,212.585,-137.94,
00:00:12:33,-0.294,-0.527,0.928,40.588,189.88,-169.861,
00:00:12:50,-0.332,-0.527,0.955,85.754,171.936,-178.956,
00:00:12:66,-0.326,-0.454,0.882,254.089,153.076,-149.598,
00:00:12:83,-0.317,-0.574,0.821,314.27,151.123,-167.176,
00:00:12:100,-0.32,-0.423,0.783,360.839,159.546,-158.081,
00:00:12:116,-0.374,-0.455,0.749,408.142,190.612,-202.698,
00:00:12:133,-0.405,-0.519,0.818,278.137,171.508,-176.392,
00:00:12:150,-0.468,-0.408,0.859,176.391,164.611,-162.842,
00:00:12:166,-0.574,-0.155,0.917,91.308,133.361,-112.671,
00:00:12:183,-0.595,-0.195,0.946,138.855,91.247,-72.815,
00:00:12:200,-0.687,-0.074,0.952,84.167,37.475,-24.72,
00:00:12:216,-0.698,-0.06,0.95,-21.729,-32.654,26.977,
00:00:12:233,-0.688,-0.005,1.026,-215.638,-107.178,57.556,
00:00:12:250,-0.584,-0.244,1.009,-93.079,-137.391,45.166,
00:00:12:266,-0.545,-0.407,0.89,-200.562,-156.556,41.503,
00:00:12:283,-0.481,-0.502,0.881,-199.402,-162.232,10.864,
00:00:12:300,-0.507,-0.395,0.865,-208.374,-172.913,22.277,
00:00:12:316,-0.457,-0.405,0.895,-152.039,-176.636,25.94,
00:00:12:333,-0.388,-0.484,0.946,-68.909,-182.618,20.752,
00:00:12:350,-0.453,-0.538,0.799,-25.208,-185.12,39.184,
00:00:12:366,-0.484,-0.366,0.726,-129.09,-204.468,86.608,
00:00:12:383,-0.461,-0.043,0.95,-254.456,-256.043,162.475,
00:00:12:400,-0.387,-0.356,0.852,-109.192,-232.972,184.204,
00:00:12:416,-0.347,-0.243,0.817,-89.783,-225.037,211.975,
00:00:12:433,-0.259,-0.456,0.882,70.556,-158.326,172.485,
00:00:12:450,-0.318,-0.339,0.659,-6.714,-106.812,194.213,
00:00:12:466,-0.224,-0.574,0.839,104.858,-23.987,85.632,
00:00:12:483,-0.209,-0.568,0.688,222.351,62.561,24.353,
00:00:12:500,-0.201,-0.603,0.636,358.52,141.784,-36.072,
00:00:12:516,-0.316,-0.552,0.711,288.757,195.007,-60.975,
00:00:12:533,-0.338,-0.496,0.887,269.409,200.256,-47.059,
00:00:12:550,-0.318,-0.466,0.932,383.85,194.458,-67.078,
00:00:12:566,-0.332,-0.533,0.825,501.587,192.505,-52.979,
00:00:12:583,-0.299,-0.544,0.829,645.568,196.96,-62.806,
00:00:12:600,-0.308,-0.74,0.706,705.444,197.326,-69.519,
00:00:12:616,-0.37,-0.694,0.679,430.481,196.716,-104.859,
00:00:12:633,-0.374,-0.66,0.723,285.339,188.415,-115.357,
00:00:12:650,-0.471,-0.489,0.743,80.81,194.03,-126.404,
00:00:12:666,-0.531,-0.217,0.812,158.691,165.527,-72.51,
00:00:12:683,-0.542,-0.438,0.829,216.125,140.808,-53.101,
00:00:12:700,-0.634,-0.274,0.961,84.899,77.819,20.629,
00:00:12:716,-0.662,-0.132,1.022,2.258,-2.442,81.665,
00:00:12:733,-0.604,-0.157,1.087,-23.072,-84.717,124.389,
00:00:12:750,-0.48,-0.411,0.994,-10.071,-132.691,121.154,
00:00:12:766,-0.426,-0.577,0.786,-133.667,-147.339,120.605,
00:00:12:783,-0.407,-0.555,0.775,-188.782,-139.466,100.341,
00:00:12:800,-0.387,-0.474,0.799,-75.989,-109.07,94.36,
00:00:12:816,-0.414,-0.554,0.678,102.966,-70.069,98.449,
00:00:12:833,-0.424,-0.526,0.767,165.649,-65.735,115.173,
00:00:12:850,-0.407,-0.572,0.808,222.29,-59.693,126.281,
00:00:12:866,-0.479,-0.442,0.746,282.592,-63.965,169.311,
00:00:12:883,-0.477,-0.485,0.789,335.693,-96.314,208.252,
00:00:12:900,-0.46,-0.533,0.823,278.259,-126.648,227.783,
00:00:12:916,-0.45,-0.544,0.715,153.93,-145.081,246.032,
00:00:12:933,-0.44,-0.608,0.726,234.192,-151.795,249.206,
00:00:12:950,-0.36,-0.515,0.73,386.413,-127.93,257.385,
00:00:12:966,-0.27,-0.606,0.655,546.814,-67.749,241.394,
00:00:12:983,-0.185,-0.888,0.612,683.838,0.732,174.072,
00:00:13:0,-0.187,-0.972,0.435,615.966,75.256,118.896,
00:00:13:16,-0.156,-1.135,0.365,366.943,130.676,31.372,
00:00:13:33,-0.21,-1.069,0.38,-2.137,170.898,-32.044,
00:00:13:50,-0.237,-0.797,0.634,-181.336,189.819,-81.36,
00:00:13:66,-0.218,-0.772,0.708,-15.87,214.538,-133.973,
00:00:13:83,-0.243,-0.782,0.611,297.546,246.46,-154.053,
00:00:13:100,-0.271,-0.831,0.547,435.119,277.588,-158.081,
00:00:13:116,-0.262,-0.813,0.562,498.84,308.899,-154.725,
00:00:13:133,-0.323,-0.761,0.546,548.523,318.603,-150.757,
00:00:13:150,-0.302,-0.835,0.539,427.856,319.702,-146.485,
00:00:13:166,-0.345,-0.798,0.602,277.404,301.025,-133.667,
00:00:13:183,-0.385,-0.609,0.686,152.343,278.381,-129.944,
00:00:13:200,-0.443,-0.615,0.756,229.675,249.572,-112.427,
00:00:13:216,-0.455,-0.545,0.713,322.204,213.562,-67.261,
00:00:13:233,-0.551,-0.674,0.842,354.187,155.578,-31.128,
00:00:13:250,-0.53,-0.487,0.916,353.82,55.175,16.418,
00:00:13:266,-0.563,-0.585,0.951,278.991,-23.804,45.044,
00:00:13:283,-0.429,-0.669,0.883,14.404,-100.892,32.104,
00:00:13:300,-0.35,-0.794,0.706,-148.316,-107.911,9.643,
00:00:13:316,-0.338,-0.797,0.65,-216.675,-100.708,-31.006,
00:00:13:333,-0.331,-0.805,0.621,-145.264,-96.924,-11.719,
00:00:13:350,-0.346,-0.797,0.599,30.334,-92.164,-4.578,
00:00:13:366,-0.298,-0.804,0.56,246.582,-76.111,18.92,
00:00:13:383,-0.295,-0.861,0.523,416.87,-65.979,41.503,
00:00:13:400,-0.271,-0.789,0.446,472.595,-53.04,57.128,
00:00:13:416,-0.289,-0.846,0.388,383.789,-37.476,57.373,
00:00:13:433,-0.3,-0.741,0.445,303.894,-24.048,60.119,
00:00:13:450,-0.29,-0.763,0.484,261.352,-11.963,56.945,
00:00:13:466,-0.292,-0.755,0.561,279.113,-13.55,68.298,
00:00:13:483,-0.292,-0.741,0.594,310.18,-15.442,83.618,
00:00:13:500,-0.266,-0.806,0.513,419.922,1.953,95.153,
00:00:13:516,-0.291,-0.791,0.426,510.925,-0.794,121.643,
00:00:13:533,-0.275,-0.861,0.413,470.581,-0.245,131.591,
00:00:13:550,-0.252,-0.92,0.429,337.707,-4.578,131.164,
00:00:13:566,-0.257,-0.903,0.456,261.657,-8.545,134.338,
00:00:13:583,-0.271,-0.916,0.488,261.779,-23.743,135.437,
00:00:13:600,-0.284,-0.862,0.503,357.299,-27.039,134.521,
00:00:13:616,-0.324,-0.814,0.44,660.583,-21.302,151.123,
00:00:13:633,-0.274,-0.986,0.349,843.628,-29.602,152.954,
00:00:13:650,-0.219,-1.075,0.21,663.147,-18.067,143.432,
00:00:13:666,-0.156,-1.169,0.166,210.632,14.953,95.214,
00:00:13:683,-0.131,-1.098,0.231,-194.397,63.964,48.156,
00:00:13:700,-0.134,-1.035,0.373,-299.012,108.703,11.962,
00:00:13:716,-0.134,-1,0.483,-160.157,141.174,-21.912,
00:00:13:733,-0.125,-1.069,0.381,76.538,186.889,-38.88,
00:00:13:750,-0.126,-1.037,0.209,287.841,220.276,-51.758,
00:00:13:766,-0.106,-1.098,0.086,307.495,261.718,-85.816,
00:00:13:783,-0.113,-1.083,0.117,234.741,284.484,-91.431,
00:00:13:800,-0.133,-0.903,0.264,166.137,302.246,-109.803,
00:00:13:816,-0.15,-1.232,0.296,132.568,265.38,-122.071,
00:00:13:833,-0.23,-0.755,0.489,415.832,239.685,-83.558,
00:00:13:850,-0.221,-0.891,0.355,597.107,217.712,-71.717,
00:00:13:866,-0.292,-0.889,0.354,466.735,194.213,-65.43,
00:00:13:883,-0.332,-0.841,0.362,548.339,177.002,-66.468,
00:00:13:900,-0.324,-0.869,0.437,555.114,148.437,-59.388,
00:00:13:916,-0.303,-0.888,0.496,658.691,121.215,-60.73,
00:00:13:933,-0.308,-1.063,0.446,672.302,88.928,-73.914,
00:00:13:950,-0.33,-1.099,0.342,584.533,39.245,-49.317,
00:00:13:966,-0.262,-1.098,0.176,358.032,16.479,-67.566,
00:00:13:983,-0.245,-1.103,0.072,189.636,20.629,-80.75,
00:00:14:0,-0.281,-0.924,0.123,58.837,19.104,-62.928,
00:00:14:16,-0.319,-0.894,0.081,-47.669,-45.533,-17.64,
00:00:14:33,-0.287,-0.889,0.105,-127.32,-86.426,-22.278,
00:00:14:50,-0.302,-0.975,0.011,-0.184,-60.425,-41.382,
00:00:14:66,-0.316,-1.074,-0.011,-15.564,-47.364,-49.866,
00:00:14:83,-0.321,-0.945,0.145,-47.791,-54.139,-55.603,
00:00:14:100,-0.299,-1.034,0.21,-86.243,-59.632,-70.923,
00:00:14:116,-0.306,-0.952,0.293,-153.443,-106.141,-56.641,
00:00:14:133,-0.256,-1.069,0.238,-99.305,-91.858,-111.939,
00:00:14:150,-0.298,-1.037,0.1,-125.672,-72.327,-117.676,
00:00:14:166,-0.32,-0.99,0.124,-127.503,-24.903,-127.625,
00:00:14:183,-0.328,-1.024,0.136,-128.54,-4.578,-145.874,
00:00:14:200,-0.335,-0.926,0.135,-63.111,19.104,-160.462,
00:00:14:216,-0.344,-0.906,0.184,30.7,24.597,-164.002,
00:00:14:233,-0.342,-0.933,0.179,124.084,20.813,-164.673,
00:00:14:250,-0.355,-0.879,0.256,257.141,27.221,-147.706,
00:00:14:266,-0.31,-1.034,0.169,326.965,-33.936,-146.241,
00:00:14:283,-0.283,-0.798,0.15,443.298,7.202,-145.203,
00:00:14:300,-0.296,-0.81,0.191,778.381,22.766,-124.878,
00:00:14:316,-0.291,-0.933,0.15,1095.886,30.029,-110.779,
00:00:14:333,-0.288,-0.844,0.056,1496.765,46.447,-101.014,
00:00:14:350,-0.303,-0.789,-0.039,1860.29,67.993,-61.036,
00:00:14:366,-0.297,-0.878,-0.152,1999.694,79.528,-66.163,
00:00:14:383,-0.303,-0.866,-0.317,1999.694,84.899,-78.492,
00:00:14:400,-0.281,-0.878,-0.516,1999.694,99.182,-65.369,
00:00:14:416,-0.272,-0.915,-0.486,1926.818,104.065,-53.223,
00:00:14:433,-0.26,-0.986,-0.427,1541.748,80.688,-45.105,
00:00:14:450,-0.258,-0.921,-0.449,1085.754,43.151,-58.106,
00:00:14:466,-0.329,-0.958,-0.368,711.364,20.08,-110.718,
00:00:14:483,-0.326,-0.846,-0.624,590.515,-61.097,-73.487,
00:00:14:500,-0.38,-0.935,-0.774,548.645,-52.613,-33.57,
00:00:14:516,-0.346,-0.968,-0.726,504.516,-25.513,-43.396,
00:00:14:533,-0.364,-0.945,-0.698,328.247,-52.979,-39.917,
00:00:14:550,-0.374,-0.868,-0.679,113.037,-26.307,-63.05,
00:00:14:566,-0.318,-0.809,-0.679,-28.809,-14.71,-54.871,
00:00:14:583,-0.339,-0.749,-0.654,-15.015,-0.489,-66.102,
00:00:14:600,-0.323,-0.805,-0.582,150.329,3.662,-83.435,
00:00:14:616,-0.278,-0.886,-0.624,122.253,-42.115,-64.637,
00:00:14:633,-0.366,-0.801,-0.699,-72.388,39.611,-56.763,
00:00:14:650,-0.395,-0.746,-0.618,-156.128,49.133,-47.669,
00:00:14:666,-0.407,-0.625,-0.581,-120.484,50.903,-40.039,
00:00:14:683,-0.402,-0.666,-0.568,-19.593,47.363,-0.489,
00:00:14:700,-0.334,-0.746,-0.515,-13.916,24.414,14.831,
00:00:14:716,-0.321,-0.934,-0.554,-208.68,6.713,17.395,
00:00:14:733,-0.313,-0.967,-0.6,-615.357,13,1.464,
00:00:14:750,-0.358,-0.883,-0.644,-1055.359,23.681,-8.179,
00:00:14:766,-0.338,-0.647,-0.627,-1191.529,61.706,-18.86,
00:00:14:783,-0.268,-0.866,-0.584,-1129.578,114.135,-7.752,
00:00:14:800,-0.363,-0.818,-0.427,-1132.569,181.274,-30.518,
00:00:14:816,-0.332,-0.698,-0.233,-886.231,205.444,-17.884,
00:00:14:833,-0.363,-0.83,-0.224,-603.577,199.096,9.765,
00:00:14:850,-0.379,-0.945,-0.266,-455.994,223.022,40.954,
00:00:14:866,-0.412,-0.972,-0.346,-466.675,247.68,91.43,
00:00:14:883,-0.425,-1.068,-0.48,-613.16,261.108,115.844,
00:00:14:900,-0.478,-1.057,-0.299,-803.956,229.736,149.353,
00:00:14:916,-0.463,-1.042,-0.319,-760.743,233.398,141.723,
00:00:14:933,-0.286,-1.064,-0.229,-973.511,222.717,135.986,
00:00:14:950,-0.362,-1.041,-0.143,-1094.117,203.735,174.743,
00:00:14:966,-0.213,-1.094,-0.017,-1401.062,111.084,159.301,
00:00:14:983,-0.253,-1.067,-0.188,-1711.121,32.104,107.544,
00:00:15:0,-0.236,-0.956,0.009,-1786.683,-23.011,76.599,
00:00:15:16,-0.311,-0.774,0.18,-1668.091,-27.222,42.419,
00:00:15:33,-0.229,-0.751,0.211,-1306.58,-6.165,11.718,
00:00:15:50,-0.235,-0.721,0.329,-780.091,8.728,25.695,
00:00:15:66,-0.301,-0.756,0.342,-221.009,47.18,4.272,
00:00:15:83,-0.24,-0.791,0.365,254.333,84.411,29.052,
00:00:15:100,-0.17,-0.818,0.275,243.774,64.758,138.061,
00:00:15:116,-0.254,-0.744,0.353,-184.693,33.325,149.231,
00:00:15:133,-0.161,-0.71,0.321,-109.314,111.145,68.969,
00:00:15:150,-0.244,-0.861,0.263,101.318,159.179,29.541,
00:00:15:166,-0.289,-1.112,0.152,114.929,166.992,8.789,
00:00:15:183,-0.283,-1.322,0.189,-101.502,165.527,11.718,grateLH
00:00:15:200,-0.248,-1.212,0.296,-109.375,181.762,-54.749,
00:00:15:216,-0.417,-1.262,0.311,-137.269,122.07,-63.294,
00:00:15:233,-0.506,-1.095,0.001,-408.081,85.205,-49.195,
00:00:15:250,-0.219,-0.258,0.25,-3.479,64.575,-33.509,
00:00:15:266,-0.259,-1.114,0.453,-70.191,-54.749,11.535,
00:00:15:283,-0.299,-1.2,0.452,-792.176,-75.501,23.315,
00:00:15:300,-0.229,-0.85,0.494,-664.002,-67.566,2.746,
00:00:15:316,-0.273,-0.773,0.508,-282.532,-56.824,14.16,
00:00:15:333,-0.281,-0.912,0.466,-37.903,-40.894,20.446,
00:00:15:350,-0.195,-0.962,0.425,91.674,-48.401,4.455,
00:00:15:366,-0.23,-1.142,0.373,-44.495,-76.783,-24.476,
00:00:15:383,-0.187,-1.147,0.422,-410.218,-94.178,-20.874,
00:00:15:400,-0.212,-0.998,0.324,-714.112,-100.464,-14.832,
00:00:15:416,-0.268,-0.767,0.193,-653.87,-38.819,-12.635,
00:00:15:433,-0.257,-0.969,0.219,-563.66,-4.761,-21.851,
00:00:15:450,-0.187,-0.862,0.301,-454.407,35.461,-21.973,
00:00:15:466,-0.194,-0.751,0.425,-173.829,37.902,-2.32,
00:00:15:483,-0.232,-0.857,0.473,29.052,52.795,-2.381,
00:00:15:500,-0.205,-1.029,0.511,157.959,18.92,-9.461,
00:00:15:516,-0.292,-1.02,0.448,149.597,-15.259,-17.945,
00:00:15:533,-0.34,-0.818,0.522,98.571,-18.189,-33.387,
00:00:15:550,-0.334,-0.852,0.584,151.611,-2.93,-70.74,
00:00:15:566,-0.363,-0.823,0.556,318.603,21.24,-92.225,
00:00:15:583,-0.346,-0.945,0.513,246.46,10.925,-105.591,
00:00:15:600,-0.247,-0.869,0.547,36.56,52.246,-125.916,
00:00:15:616,-0.51,-1.125,0.418,-4.395,27.954,-136.719,
00:00:15:633,-0.356,-0.81,0.316,-248.963,0.427,-30.884,
00:00:15:650,-0.374,-0.689,0.299,-633.606,-3.663,47.912,
00:00:15:666,-0.367,-0.625,0.303,-965.76,0.366,121.643,
00:00:15:683,-0.417,-0.678,0.342,-1098.328,-40.039,183.349,
00:00:15:700,-0.254,-0.694,0.503,-838.807,-39.49,132.019,
00:00:15:716,-0.329,-1.009,0.734,-761.475,-88.501,180.175,
00:00:15:733,-0.175,-0.733,0.843,-694.275,-106.69,176.147,
00:00:15:750,-0.324,-0.823,0.796,-512.818,-98.023,159.179,
00:00:15:766,-0.379,-0.735,0.686,-406.373,-100.464,126.159,
00:00:15:783,-0.324,-0.699,0.527,-362.793,-92.835,117.92,
00:00:15:800,-0.289,-0.521,0.477,-344.422,-29.969,111.877,
00:00:15:816,-0.268,-0.758,0.588,-177.063,6.225,87.463,
00:00:15:833,-0.285,-0.747,0.703,-147.522,32.714,81.909,
00:00:15:850,-0.249,-0.928,0.792,-107.483,42.114,51.391,
00:00:15:866,-0.269,-0.898,0.831,-83.069,25.207,16.235,
00:00:15:883,-0.301,-0.806,0.794,23.559,1.281,-0.184,
00:00:15:900,-0.331,-0.78,0.738,114.074,-104.187,-29.847,
00:00:15:916,-0.283,-0.76,0.755,33.081,-125.123,-40.772,
00:00:15:933,-0.27,-0.767,0.721,-34.302,-127.259,-43.274,
00:00:15:950,-0.35,-0.672,0.673,-39.734,-127.076,-11.17,
00:00:15:966,-0.272,-0.486,0.743,17.578,-140.564,12.451,
00:00:15:983,-0.283,-0.843,0.523,-175.965,-123.902,11.474,
00:00:16:0,-0.369,-0.452,1.116,-535.767,-253.052,162.414,
00:00:16:16,-0.215,-0.656,0.764,-208.68,-210.267,214.05,
00:00:16:33,-0.196,-0.515,0.883,-157.776,-207.032,230.957,
00:00:16:50,0.048,-0.989,0.853,-31.189,-138.977,206.787,
00:00:16:66,0.127,-1.088,0.653,-58.472,-58.96,120.91,
00:00:16:83,0.132,-1.138,0.515,39.856,0,10.925,
00:00:16:100,0.071,-1.255,0.422,-77.454,77.819,-72.571,
00:00:16:116,-0.13,-0.906,0.29,-62.989,118.164,-75.318,
00:00:16:133,-0.059,-0.79,0.54,-156.678,129.333,-118.531,
00:00:16:150,-0.069,-0.954,0.592,-78.186,150.39,-167.969,
00:00:16:166,-0.118,-0.923,0.467,-36.194,183.838,-195.435,
00:00:16:183,-0.121,-0.902,0.508,3.845,270.813,-239.991,
00:00:16:200,-0.175,-0.757,0.614,-128.174,307.983,-276.612,
00:00:16:216,-0.275,-0.626,0.637,-183.533,341.858,-264.527,
00:00:16:233,-0.385,-0.405,0.829,-69.397,329.406,-195.557,
00:00:16:250,-0.538,-0.407,0.878,-1.893,325.927,-188.111,
00:00:16:266,-0.58,-0.178,0.884,-41.81,270.08,-117.249,
00:00:16:283,-0.699,-0.356,0.894,3.601,175.415,-91.37,
00:00:16:300,-0.779,-0.122,0.976,-157.959,66.955,-4.456,
00:00:16:316,-0.769,0.065,1.151,-102.051,-37.659,19.592,
00:00:16:333,-0.598,-0.551,1.156,-89.722,-142.151,-10.498,
00:00:16:350,-0.496,-0.677,1.001,-283.387,-205.201,5.188,
00:00:16:366,-0.403,-0.625,0.908,-337.891,-221.314,17.211,
00:00:16:383,-0.38,-0.67,0.765,-383.912,-217.347,65.124,
00:00:16:400,-0.398,-0.46,0.971,-352.784,-240.845,125.671,
00:00:16:416,-0.231,-0.417,1.015,-203.858,-276.49,152.282,
00:00:16:433,-0.254,-0.452,1.148,-95.826,-354.493,239.929,
00:00:16:450,-0.164,-0.657,0.935,71.472,-320.557,259.033,
00:00:16:466,-0.103,-0.756,0.962,145.019,-315.125,238.952,
00:00:16:483,0.216,-0.918,0.773,206.176,-236.084,150.512,
00:00:16:500,0.182,-1.037,0.035,259.216,124.267,-203.125,
00:00:16:516,0.023,-1.042,0.046,-0.611,247.68,-272.034,
00:00:16:533,0.021,-0.862,0.428,-218.079,299.011,-337.403,
00:00:16:550,0.02,-0.913,0.59,-126.099,349.609,-379.029,
00:00:16:566,-0.122,-0.837,0.636,80.505,389.404,-392.884,
00:00:16:583,-0.191,-0.695,0.577,237.671,412.048,-356.69,
00:00:16:600,-0.334,-0.797,0.44,280.944,429.138,-361.756,
00:00:16:616,-0.435,-0.38,0.672,133.3,363.22,-275.818,
00:00:16:633,-0.516,-0.582,0.778,122.497,332.641,-266.907,
00:00:16:650,-0.582,-0.099,1.024,-144.349,218.139,-158.997,
00:00:16:667,-0.683,-0.247,1.233,-380.372,71.716,-68.055,
00:00:16:683,-0.923,0.323,1.379,-395.325,-101.38,54.443,
00:00:16:700,-0.568,-0.027,1.356,-205.811,-207.581,100.158,
00:00:16:717,-0.481,-0.39,1.057,217.285,-210.877,133.3,
00:00:16:733,-0.495,-0.426,0.873,463.195,-175.538,141.845,
00:00:16:750,-0.328,-0.62,0.789,478.698,-152.405,127.258,
00:00:16:767,-0.344,-0.779,0.607,270.446,-133.667,124.694,
00:00:16:783,-0.375,-0.641,0.555,-256.348,-167.298,158.935,
00:00:16:800,-0.244,-0.61,0.86,-508.24,-179.2,140.136,
00:00:16:817,-0.287,-0.568,0.873,-422.425,-171.509,188.903,
00:00:16:833,-0.114,-0.372,1.135,-219.788,-167.969,182.129,
00:00:16:850,-0.171,-0.684,0.863,83.252,-138.611,268.798,
00:00:16:867,0.011,-0.818,0.731,474.548,-104.065,187.133,
00:00:16:883,0.235,-1.189,0.537,526.428,-39.124,96.984,
00:00:16:900,0.237,-1.225,0.231,552.551,120.361,-50.415,
00:00:16:917,0.075,-1.272,0.239,279.48,250.732,-162.964,
00:00:16:933,0,-0.855,0.536,44.555,294.555,-266.724,
00:00:16:950,0.024,-1.072,0.597,182.617,349.975,-355.164,
00:00:16:967,-0.155,-0.844,0.466,279.663,403.503,-363.526,
00:00:16:983,-0.222,-0.93,0.527,330.749,439.514,-387.757,
00:00:17:0,-0.191,-0.667,0.481,209.838,466.858,-349.305,
00:00:17:17,-0.354,-0.607,0.706,181.335,441.406,-382.752,
00:00:17:33,-0.453,-0.571,0.917,-74.097,361.877,-316.712,
00:00:17:50,-0.622,-0.245,0.903,-190.125,251.098,-241.456,
00:00:17:67,-0.701,0.062,1.273,-437.439,48.4,-87.708,
00:00:17:83,-0.714,-0.036,1.356,-273.438,-117.676,8.3,
00:00:17:100,-0.491,-0.182,1.349,-119.873,-218.201,51.391,
00:00:17:117,-0.368,-0.556,1.043,193.481,-232.178,81.298,
00:00:17:133,-0.425,-0.587,0.851,428.65,-213.013,91.919,
00:00:17:150,-0.369,-0.638,0.662,407.409,-185.975,106.872,
00:00:17:167,-0.253,-0.795,0.715,78.43,-186.402,76.782,
00:00:17:183,-0.309,-0.767,0.57,-245.423,-148.377,75.5,
00:00:17:200,-0.275,-0.496,0.881,-663.331,-186.219,80.444,
00:00:17:217,-0.253,-0.693,0.743,-510.132,-130.921,120.056,
00:00:17:233,-0.351,-0.332,0.988,-435.669,-167.237,135.07,
00:00:17:250,0.019,-0.682,0.926,-16.602,-158.753,228.332,
00:00:17:267,-0.14,-0.642,0.635,263.061,-114.197,219.299,
00:00:17:283,-0.003,-0.973,0.604,368.469,-99.488,177.307,
00:00:17:300,0.226,-1.081,0.353,412.17,-18.067,123.352,
00:00:17:317,0.112,-1.275,0.216,280.395,114.807,-11.475,
00:00:17:333,0.004,-1.105,0.373,13,186.645,-63.172,
00:00:17:350,0.005,-0.87,0.769,-57.801,205.139,-166.565,
00:00:17:367,-0.018,-1.021,0.701,149.841,219.36,-208.497,
00:00:17:383,-0.128,-0.982,0.515,235.29,234.802,-249.878,
00:00:17:400,-0.208,-1.082,0.488,140.075,239.868,-278.687,
00:00:17:417,-0.213,-0.663,0.634,-196.289,233.764,-286.56,
00:00:17:433,-0.279,-0.771,0.607,-156.495,230.957,-299.866,
00:00:17:450,-0.459,-0.534,0.741,-338.196,212.707,-307.007,
00:00:17:467,-0.528,-0.129,0.875,-399.048,163.94,-213.501,
00:00:17:483,-0.553,0.134,1.154,-378.663,81.054,-115.357,
00:00:17:500,-0.71,0.013,1.194,-283.387,1.281,-20.142,
00:00:17:517,-0.658,0.128,1.221,-296.326,-92.53,87.524,
00:00:17:533,-0.402,-0.49,0.692,427.795,-24.537,137.878,
00:00:17:550,-0.332,-0.722,0.547,390.38,-9.461,121.765,
00:00:17:567,-0.292,-0.92,0.613,122.863,11.779,83.984,
00:00:17:583,-0.295,-0.883,0.687,-191.407,14.16,28.869,
00:00:17:600,-0.329,-0.794,0.742,-311.036,5.493,3.418,
00:00:17:617,-0.303,-0.712,0.818,-183.716,-3.968,-4.151,
00:00:17:633,-0.237,-0.757,0.745,3.845,-47.12,-21.119,
00:00:17:650,-0.231,-0.737,0.734,-22.767,-68.421,-24.781,
00:00:17:667,-0.265,-0.595,0.806,-109.925,-110.108,-16.358,
00:00:17:683,-0.367,-0.511,0.759,-201.294,-136.597,16.296,
00:00:17:700,-0.377,-0.468,0.82,-215.332,-149.964,55.236,
00:00:17:717,-0.377,-0.347,0.819,-270.325,-137.757,171.63,
00:00:17:733,-0.326,-0.424,0.988,-214.722,-103.943,213.806,
00:00:17:750,-0.233,-0.214,0.946,23.803,-19.349,215.393,
00:00:17:767,-0.157,-0.547,0.624,82.702,53.283,248.779,
00:00:17:783,-0.001,-0.719,0.982,96.679,58.41,184.021,
00:00:17:800,0.055,-0.673,0.899,83.007,39.856,185.791,
00:00:17:817,-0.029,-0.948,0.802,86.547,9.338,128.906,
00:00:17:833,0,-0.795,0.687,170.898,27.404,78.613,
00:00:17:850,-0.016,-0.893,0.655,350.647,60.607,16.296,
00:00:17:867,-0.021,-0.897,0.633,460.937,83.129,-28.382,
00:00:17:883,-0.064,-0.776,0.57,469.482,92.651,-24.903,
00:00:17:900,-0.084,-0.827,0.691,351.501,63.232,-27.955,
00:00:17:917,-0.072,-0.745,0.781,237.243,0.488,-16.785,
00:00:17:933,-0.086,-0.654,0.824,264.587,-23.011,-15.625,
00:00:17:950,-0.115,-0.695,0.838,385.803,-41.016,-21.973,
00:00:17:967,-0.164,-0.746,0.815,459.045,-63.477,-20.325,
00:00:17:983,-0.157,-0.698,0.69,534.057,-49.012,-38.758,
00:00:18:0,-0.17,-0.848,0.597,552.49,-18.189,-70.862,
00:00:18:17,-0.107,-0.889,0.553,532.776,38.147,-101.563,
00:00:18:33,-0.224,-0.86,0.458,375,177.673,-139.466,
00:00:18:50,-0.274,-0.927,0.478,314.026,204.773,-168.091,
00:00:18:67,-0.336,-0.866,0.506,150.634,214.904,-158.997,
00:00:18:83,-0.35,-0.875,0.525,55.603,205.139,-165.223,
00:00:18:100,-0.407,-0.577,0.624,4.211,198.486,-120.484,
00:00:18:117,-0.345,-0.641,0.596,187.622,186.95,-85.755,
00:00:18:133,-0.415,-1.118,0.618,-260.498,138.61,-93.14,
00:00:18:150,-0.296,-0.724,0.72,-533.57,119.262,-85.022,
00:00:18:167,-0.342,-0.652,0.695,-541.138,100.036,-75.684,
00:00:18:183,-0.374,-0.473,0.792,-502.381,69.03,-40.162,
00:00:18:200,-0.416,-0.585,0.859,-448.365,36.743,-26.917,
00:00:18:217,-0.467,-0.51,0.8,-426.27,1.831,2.502,
00:00:18:233,-0.472,-0.449,0.858,-597.535,-81.238,70.373,
00:00:18:250,-0.31,-0.522,0.984,-640.198,-127.137,50.048,
00:00:18:267,-0.304,-0.553,1.063,-458.863,-179.139,38.757,
00:00:18:283,-0.31,-0.792,0.924,-492.92,-178.833,28.32,
00:00:18:300,-0.308,-0.804,0.927,-439.026,-200.257,-14.771,
00:00:18:317,-0.34,-0.726,0.924,-341.126,-204.834,-43.702,
00:00:18:333,-0.336,-0.692,0.881,-188.05,-182.557,-57.923,
00:00:18:350,-0.333,-0.613,0.858,-49.317,-148.377,-70.618,
00:00:18:367,-0.274,-0.578,0.801,100.586,-136.353,-72.449,
00:00:18:383,-0.339,-0.532,0.734,174.56,-142.395,-38.208,
00:00:18:400,-0.346,-0.368,0.845,184.997,-176.087,13.794,
00:00:18:417,-0.309,-0.475,0.814,105.957,-203.309,53.222,
00:00:18:433,-0.279,-0.502,0.683,-66.468,-207.459,99.975,
00:00:18:450,-0.129,-0.407,0.862,-40.589,-212.22,108.459,
00:00:18:467,-0.309,-0.505,0.916,2.99,-226.807,172.79,
00:00:18:483,-0.037,-0.566,0.814,106.384,-185.852,139.953,
00:00:18:500,-0.032,-0.821,0.795,146.545,-150.147,108.154,
00:00:18:517,0.006,-0.879,0.573,235.595,-96.741,73.059,
00:00:18:533,0.08,-1.05,0.49,208.557,-3.479,-30.945,
00:00:18:550,0.027,-1.078,0.432,20.813,80.871,-103.882,
00:00:18:567,-0.089,-0.869,0.463,-150.208,124.511,-140.198,
00:00:18:583,-0.063,-0.825,0.664,-158.875,150.268,-194.458,
00:00:18:600,-0.075,-0.854,0.662,-14.222,172.546,-215.088,
00:00:18:617,-0.15,-0.81,0.596,93.261,209.533,-247.803,
00:00:18:633,-0.203,-0.834,0.588,149.719,246.826,-268.555,
00:00:18:650,-0.254,-0.716,0.582,34.79,254.394,-256.104,
00:00:18:667,-0.336,-0.582,0.616,-20.386,267.151,-269.898,
00:00:18:683,-0.424,-0.49,0.782,-83.741,237.487,-219.544,
00:00:18:700,-0.528,-0.201,0.954,93.933,175.781,-159.241,
00:00:18:717,-0.588,-0.292,1.086,69.58,109.069,-80.201,
00:00:18:733,-0.694,-0.048,1.159,-82.215,-24.842,60.119,
00:00:18:750,-0.683,-0.028,1.282,-44.129,-166.932,157.592,
00:00:18:767,-0.388,-0.456,1.133,114.868,-213.929,150.634,
00:00:18:783,-0.386,-0.542,0.879,161.499,-209.839,163.391,
00:00:18:800,-0.362,-0.641,0.74,211.609,-171.631,124.694,
00:00:18:817,-0.353,-0.641,0.644,132.995,-140.992,121.826,
00:00:18:833,-0.443,-0.547,0.646,-135.743,-150.513,152.71,
00:00:18:850,-0.291,-0.505,0.892,-170.105,-191.346,166.259,
00:00:18:867,-0.33,-0.545,0.864,-203.248,-221.985,203.308,
00:00:18:883,-0.224,-0.578,1.001,-61.28,-256.836,218.139,
00:00:18:900,-0.228,-0.476,0.878,-9.827,-247.864,239.929,
00:00:18:917,0.012,-1.139,0.722,252.441,-159.119,147.888,
00:00:18:933,-0.175,-0.516,0.489,118.774,-99.732,136.963,
00:00:18:950,0.19,-1.304,0.536,167.236,-23.743,-13.184,
00:00:18:967,-0.035,-1.063,0.443,-56.763,74.279,-68.726,
00:00:18:983,-0.036,-0.913,0.558,-101.258,136.474,-140.198,
00:00:19:0,-0.195,-0.685,0.672,-108.582,150.634,-166.687,
00:00:19:17,-0.107,-0.898,0.693,84.167,164.856,-206.055,
00:00:19:33,-0.236,-0.775,0.595,196.289,189.392,-209.351,
00:00:19:50,-0.193,-0.928,0.558,223.083,204.406,-234.375,
00:00:19:67,-0.266,-0.787,0.568,5.92,205.322,-240.784,
00:00:19:83,-0.284,-0.823,0.634,-94.849,193.542,-246.888,
00:00:19:100,-0.351,-0.377,0.791,-344.666,188.659,-207.459,
00:00:19:117,-0.464,-0.293,0.909,-60.486,156.372,-168.885,
00:00:19:133,-0.5,-0.153,1.034,-156.922,93.383,-28.87,
00:00:19:150,-0.634,0.017,1.072,-244.751,-9.888,93.689,
00:00:19:167,-0.632,0.1,1.139,-240.784,-106.873,161.621,
00:00:19:183,-0.418,-0.321,1.02,-54.139,-118.714,140.197,grateLH
00:00:19:200,-0.455,-0.51,0.916,-39.978,-119.202,162.109,
00:00:19:217,-0.509,-0.551,0.821,109.436,-110.413,171.875,
00:00:19:233,-0.49,-0.5,0.804,157.348,-148.987,213.623,
00:00:19:250,-0.563,-0.594,0.792,-18.189,-225.525,276.428,
00:00:19:267,-0.29,-0.712,0.757,-138.55,-263.489,272.033,
00:00:19:283,-0.344,-0.534,0.987,-268.555,-343.506,293.884,
00:00:19:300,-0.211,-0.713,0.944,-226.807,-373.047,287.963,
00:00:19:317,-0.175,-0.649,0.803,-137.574,-312.378,200.012,
00:00:19:333,-0.023,-1.156,0.81,26.123,-259.095,121.093,
00:00:19:350,-0.098,-0.669,0.55,-25.696,-152.161,99.914,
00:00:19:367,0.102,-1.122,0.377,117.981,-12.085,-46.448,
00:00:19:383,-0.079,-1.002,0.356,-11.658,105.163,-120.606,
00:00:19:400,-0.046,-0.928,0.484,-99.61,170.837,-173.34,
00:00:19:417,-0.145,-0.779,0.593,-139.1,211.12,-207.825,
00:00:19:433,-0.057,-0.82,0.701,13.244,212.768,-238.16,
00:00:19:450,-0.095,-0.824,0.643,148.254,229.248,-256.714,
00:00:19:467,-0.107,-0.69,0.656,130.859,242.553,-263.001,
00:00:19:483,-0.131,-0.785,0.68,197.998,255.554,-311.707,
00:00:19:500,-0.198,-0.717,0.641,96.313,271.362,-312.256,
00:00:19:517,-0.261,-0.371,0.686,8.667,299.194,-268.25,
00:00:19:533,-0.395,-0.595,0.86,27.404,287.048,-265.625,
00:00:19:550,-0.516,-0.15,0.997,-117.188,255.554,-164.002,
00:00:19:567,-0.651,-0.313,1.001,79.284,201.172,-148.133,
00:00:19:583,-0.686,0.019,1.126,-88.746,80.2,38.208,
00:00:19:600,-0.728,-0.072,1.112,13.305,-21.302,66.772,
00:00:19:617,-0.623,-0.226,1.076,-33.692,-127.747,103.576,
00:00:19:633,-0.419,-0.544,0.95,46.264,-148.987,71.716,
00:00:19:650,-0.549,-0.464,0.863,64.209,-147.95,76.355,
00:00:19:667,-0.439,-0.622,0.797,40.161,-154.541,62.744,
00:00:19:683,-0.429,-0.571,0.788,-49.195,-170.716,74.707,
00:00:19:700,-0.357,-0.696,0.714,-146.241,-169.861,67.688,
00:00:19:717,-0.407,-0.486,0.801,-232.422,-194.458,77.88,
00:00:19:733,-0.231,-0.623,1.035,-256.226,-231.69,68.359,
00:00:19:750,-0.244,-0.66,0.784,-185.242,-191.285,98.266,
00:00:19:767,-0.169,-0.547,0.883,-85.267,-175.293,92.956,
00:00:19:783,-0.16,-0.547,0.832,-18.921,-146.18,119.69,
00:00:19:800,-0.006,-0.866,0.68,156.555,-55.97,52.612,
00:00:19:817,0.013,-0.837,0.532,230.59,14.831,10.315,
00:00:19:833,-0.021,-1.003,0.506,-33.692,168.274,-106.873,
00:00:19:850,-0.059,-0.781,0.696,-291.016,192.505,-153.748,
00:00:19:867,-0.055,-0.829,0.819,-132.203,205.139,-227.784,
00:00:19:883,-0.116,-0.774,0.717,31.25,219.238,-226.197,
00:00:19:900,-0.23,-0.71,0.676,83.679,238.159,-262.024,
00:00:19:917,-0.238,-0.658,0.755,206.726,236.694,-257.019,
00:00:19:933,-0.316,-0.692,0.717,247.009,257.019,-272.95,
00:00:19:950,-0.422,-0.324,0.712,-156.006,269.104,-209.717,
00:00:19:967,-0.604,-0.248,0.84,-16.419,230.59,-231.568,
00:00:19:983,-0.596,-0.252,1.047,-157.837,148.376,-122.376,
00:00:20:0,-0.79,0.183,1.104,-230.225,34.79,-32.105,
00:00:20:17,-0.687,-0.049,1.178,-152.832,-62.806,64.819,
00:00:20:33,-0.534,-0.29,1.124,-7.996,-113.892,59.814,
00:00:20:50,-0.45,-0.422,1.053,178.65,-137.269,76.232,
00:00:20:67,-0.576,-0.527,0.802,189.27,-141.053,74.89,
00:00:20:83,-0.426,-0.511,0.998,0.549,-207.642,64.88,
00:00:20:100,-0.299,-0.737,0.891,-81.116,-202.515,18.371,
00:00:20:117,-0.431,-0.512,0.528,-354.676,-199.28,113.83,
00:00:20:133,-0.382,-0.238,0.981,-424.5,-256.775,100.769,
00:00:20:150,-0.19,-0.808,0.846,-354.126,-204.102,103.942,
00:00:20:167,-0.323,-0.245,0.8,-243.653,-173.706,182.495,
00:00:20:183,-0.049,-0.768,0.948,102.295,-132.508,117.859,
00:00:20:200,0.036,-0.686,0.781,71.106,-97.413,184.57,
00:00:20:217,0.1,-0.733,0.536,300.415,-8.301,114.563,
00:00:20:233,0.149,-1.001,0.608,295.837,33.203,60.791,
00:00:20:250,0.158,-0.961,0.542,229.248,83.618,-2.076,
00:00:20:267,0.023,-0.907,0.5,64.209,115.661,-27.894,
00:00:20:283,-0.053,-0.703,0.678,-160.767,125.427,-55.97,
00:00:20:300,-0.033,-0.78,0.794,-45.044,138.061,-83.558,
00:00:20:317,-0.15,-0.695,0.687,98.144,173.706,-83.13,
00:00:20:333,-0.203,-0.696,0.687,250.61,202.453,-107.666,
00:00:20:350,-0.246,-0.776,0.698,255.188,247.863,-113.77,
00:00:20:367,-0.302,-0.699,0.65,146.728,261.84,-113.16,
00:00:20:383,-0.5,-0.373,0.738,-99.244,314.392,-91.675,
00:00:20:400,-0.695,-0.381,0.919,-124.329,232.483,-82.337,
00:00:20:417,-0.587,-0.071,1.119,-253.174,137.146,46.325,
00:00:20:433,-0.723,-0.029,1.228,-196.106,11.352,93.872,
00:00:20:450,-0.535,-0.092,1.226,-198.06,-87.159,123.352,
00:00:20:467,-0.417,-0.586,0.801,221.984,-138.733,40.283,
00:00:20:483,-0.428,-0.591,0.724,29.541,-178.162,66.101,
00:00:20:500,-0.398,-0.625,0.81,-273.255,-238.892,63.354,
00:00:20:517,-0.308,-0.621,0.896,-464.966,-281.556,68.42,
00:00:20:533,-0.383,-0.367,0.949,-463.929,-346.131,147.094,
00:00:20:550,-0.305,-0.509,0.896,-281.8,-338.379,140.319,
00:00:20:567,-0.209,-0.486,0.978,-180.481,-329.712,160.583,
00:00:20:583,-0.162,-0.333,0.987,79.467,-304.261,212.158,
00:00:20:600,-0.049,-0.779,0.798,353.698,-218.567,138.122,
00:00:20:617,-0.037,-0.767,0.615,307.251,-128.907,114.807,
00:00:20:633,0.078,-0.825,0.56,380.066,-27.832,16.601,
00:00:20:650,-0.077,-0.922,0.508,-21.302,163.94,-111.023,
00:00:20:667,-0.085,-0.725,0.734,-267.151,195.251,-161.805,
00:00:20:683,-0.005,-0.766,0.857,-157.715,217.529,-236.023,
00:00:20:700,-0.117,-0.629,0.741,170.593,239.502,-247.254,
00:00:20:717,-0.146,-0.773,0.654,279.48,259.887,-262.574,
00:00:20:733,-0.278,-0.639,0.617,245.727,288.33,-273.194,
00:00:20:750,-0.354,-0.784,0.752,234.436,254.76,-264.344,
00:00:20:767,-0.358,-0.53,0.739,8.483,249.755,-211.914,
00:00:20:783,-0.437,-0.278,0.94,-0.367,192.688,-165.406,
00:00:20:800,-0.58,-0.276,1.081,-116.456,158.813,-86.426,
00:00:20:817,-0.646,0.085,1.188,-195.13,29.724,66.406,
00:00:20:833,-0.727,-0.013,1.196,-131.714,-91.126,126.464,
00:00:20:850,-0.545,-0.287,1.077,-62.439,-176.392,118.286,
00:00:20:867,-0.481,-0.36,0.954,60.73,-204.529,138.672,
00:00:20:883,-0.586,-0.398,0.736,120.361,-185.791,98.816,
00:00:20:900,-0.585,-0.471,0.623,-59.144,-198.426,105.285,
00:00:20:917,-0.474,-0.587,0.699,-208.435,-191.529,71.167,
00:00:20:933,-0.561,-0.467,0.659,-319.519,-186.463,126.831,
00:00:20:950,-0.316,-0.407,0.914,-412.964,-206.727,126.648,
00:00:20:967,-0.314,-0.622,0.842,-271.485,-184.021,135.009,
00:00:20:983,-0.202,-0.367,0.891,-168.213,-159.852,161.56,
00:00:21:0,0.009,-0.841,0.898,167.175,-89.783,63.354,
00:00:21:17,0.038,-0.701,0.814,447.143,-32.593,50.903,
00:00:21:33,0.104,-1.045,0.504,643.554,76.538,-48.645,
00:00:21:50,0.053,-1.057,0.472,21.667,184.265,-140.32,
00:00:21:67,-0.035,-0.777,0.704,-308.96,188.903,-189.454,
00:00:21:83,0.003,-0.826,0.816,-225.892,201.049,-227.112,
00:00:21:100,-0.141,-0.605,0.811,16.54,219.604,-222.718,
00:00:21:117,-0.145,-0.683,0.77,216.735,250.732,-229.981,
00:00:21:133,-0.247,-0.646,0.762,331.604,267.822,-245.728,
00:00:21:150,-0.218,-0.563,0.704,268.859,296.081,-202.881,
00:00:21:167,-0.389,-0.5,0.841,231.628,269.836,-233.948,
00:00:21:183,-0.404,-0.683,0.895,138.244,265.442,-231.812,
00:00:21:200,-0.487,-0.123,0.867,-181.763,220.276,-159.18,
00:00:21:217,-0.613,-0.148,1.128,-283.936,122.497,-132.081,
00:00:21:233,-0.638,-0.057,1.181,-361.695,-1.343,-9.583,
00:00:21:250,-0.634,0.117,1.262,-299.317,-125.061,76.171,
00:00:21:267,-0.419,-0.385,1.145,67.504,-159.119,68.054,
00:00:21:283,-0.455,-0.381,0.957,296.02,-162.659,101.196,
00:00:21:300,-0.396,-0.563,0.778,432.861,-141.968,66.101,
00:00:21:317,-0.411,-0.668,0.675,215.82,-144.165,66.101,
00:00:21:333,-0.344,-0.591,0.647,-114.685,-155.457,60.974,
00:00:21:350,-0.376,-0.615,0.786,-364.808,-176.514,78.491,
00:00:21:367,-0.339,-0.429,0.977,-467.835,-210.816,116.882,
00:00:21:383,-0.264,-0.504,0.812,-391.114,-176.88,127.075,
00:00:21:400,-0.308,-0.42,0.908,-125.794,-210.083,139.892,
00:00:21:417,-0.158,-0.691,0.854,102.478,-169.739,143.982,
00:00:21:433,-0.066,-0.688,0.7,225.158,-104.31,120.361,
00:00:21:450,-0.097,-0.881,0.578,370.117,-58.716,69.336,
00:00:21:467,-0.027,-0.935,0.526,254.089,10.864,10.62,
00:00:21:483,-0.028,-1.068,0.51,65.795,82.702,-78.736,
00:00:21:500,-0.148,-0.824,0.616,-297.791,112.915,-97.901,
00:00:21:517,-0.151,-0.701,0.787,-445.618,113.403,-154.358,
00:00:21:533,-0.155,-0.597,0.913,-209.839,117.92,-172.852,
00:00:21:550,-0.226,-0.654,0.799,177.917,161.255,-205.323,
00:00:21:567,-0.268,-0.71,0.718,301.635,186.584,-223.145,
00:00:21:583,-0.28,-0.554,0.711,279.052,219.36,-215.455,
00:00:21:600,-0.313,-0.665,0.777,304.565,208.862,-259.217,
00:00:21:617,-0.434,-0.655,0.779,2.075,218.933,-265.625,
00:00:21:633,-0.422,-0.13,0.853,-316.224,171.02,-191.956,
00:00:21:650,-0.521,-0.211,1.052,-257.935,66.894,-162.659,
00:00:21:667,-0.574,-0.053,1.076,-434.082,-39.063,-28.931,
00:00:21:683,-0.563,0.086,1.12,-250.123,-125.611,31.066,
00:00:21:700,-0.445,-0.405,1.018,106.689,-155.701,60.669,
00:00:21:717,-0.591,-0.364,0.837,234.069,-152.71,114.074,
00:00:21:733,-0.493,-0.441,0.742,132.019,-158.448,133.728,
00:00:21:750,-0.516,-0.446,0.688,-142.884,-178.772,185.18,
00:00:21:767,-0.371,-0.376,0.932,-392.884,-213.318,197.692,
00:00:21:783,-0.337,-0.445,1.058,-442.749,-216.675,234.985,
00:00:21:800,-0.345,-0.274,1.011,-346.985,-211.426,272.155,
00:00:21:817,-0.199,-0.589,1.119,-72.815,-190.125,272.033,
00:00:21:833,-0.201,-0.54,0.905,166.809,-151.978,241.943,
00:00:21:850,-0.162,-0.787,0.895,277.588,-111.268,187.744,
00:00:21:867,-0.024,-0.757,0.835,243.225,-83.985,117.248,
00:00:21:883,-0.091,-0.924,0.735,191.894,-45.35,18.249,
00:00:21:900,-0.06,-0.866,0.725,100.525,-31.25,-43.702,
00:00:21:917,-0.106,-0.815,0.701,58.654,-12.207,-83.435,
00:00:21:933,-0.145,-0.728,0.73,104.004,-15.137,-98.816,
00:00:21:950,-0.177,-0.684,0.753,180.359,-17.518,-92.286,
00:00:21:967,-0.218,-0.631,0.747,267.822,-17.762,-79.651,
00:00:21:983,-0.23,-0.648,0.722,321.594,-21.119,-67.322,
00:00:22:0,-0.256,-0.641,0.725,315.063,-25.208,-55.603,
00:00:22:17,-0.272,-0.661,0.707,272.4,-19.654,-59.266,
00:00:22:33,-0.286,-0.649,0.726,200.866,-3.846,-74.097,
00:00:22:50,-0.3,-0.633,0.75,151.001,16.845,-96.924,
00:00:22:67,-0.313,-0.61,0.758,128.967,46.447,-126.221,
00:00:22:83,-0.336,-0.6,0.77,149.475,86.303,-149.109,
00:00:22:100,-0.347,-0.607,0.773,160.4,126.709,-165.589,
00:00:22:117,-0.361,-0.622,0.761,147.033,159.607,-171.387,
00:00:22:133,-0.339,-0.626,0.749,104.675,184.082,-172.974,
00:00:22:150,-0.358,-0.629,0.721,68.664,190.551,-171.326,
00:00:22:167,-0.314,-0.613,0.765,61.828,197.692,-167.054,
00:00:22:183,-0.32,-0.605,0.785,83.435,192.382,-165.467,
00:00:22:200,-0.306,-0.608,0.79,134.277,184.387,-160.218,
00:00:22:217,-0.321,-0.62,0.757,157.837,172.79,-158.997,
00:00:22:233,-0.313,-0.633,0.716,148.254,168.396,-157.044,
00:00:22:250,-0.314,-0.638,0.703,130.249,173.156,-163.514,
00:00:22:267,-0.291,-0.647,0.701,126.037,189.453,-175.354,
00:00:22:283,-0.289,-0.644,0.693,145.691,217.651,-191.285,
00:00:22:300,-0.279,-0.664,0.678,176.208,250.305,-211.976,
00:00:22:317,-0.282,-0.677,0.692,206.604,292.48,-238.892,
00:00:22:333,-0.285,-0.674,0.676,231.323,339.965,-266.48,
00:00:22:350,-0.311,-0.67,0.674,229.98,379.882,-284.058,
00:00:22:367,-0.359,-0.65,0.673,214.233,402.16,-283.265,
00:00:22:383,-0.417,-0.602,0.714,218.75,404.785,-266.602,
00:00:22:400,-0.451,-0.581,0.777,237.06,380.371,-235.535,
00:00:22:417,-0.473,-0.521,0.841,266.845,330.688,-209.9,
00:00:22:433,-0.477,-0.511,0.847,283.081,260.986,-184.876,
00:00:22:450,-0.489,-0.496,0.851,220.886,174.438,-163.269,
00:00:22:467,-0.481,-0.481,0.836,127.746,91.98,-143.372,
00:00:22:483,-0.496,-0.477,0.844,53.649,5.371,-98.938,
00:00:22:500,-0.454,-0.486,0.865,-26.551,-76.844,-62.867,
00:00:22:517,-0.427,-0.499,0.88,-85.572,-128.052,-34.974,
00:00:22:533,-0.376,-0.558,0.875,-133.057,-165.955,-12.879,
00:00:22:550,-0.33,-0.614,0.892,-181.458,-192.566,-4.334,
00:00:22:567,-0.293,-0.638,0.875,-201.722,-209.778,-5.616,
00:00:22:583,-0.26,-0.68,0.845,-161.866,-214.783,-21.729,
00:00:22:600,-0.25,-0.736,0.827,-147.706,-220.643,-41.382,
00:00:22:617,-0.245,-0.751,0.786,-139.649,-211.365,-65.064,
00:00:22:633,-0.264,-0.743,0.736,-141.602,-197.266,-83.435,
00:00:22:650,-0.295,-0.707,0.683,-131.653,-174.073,-99.976,
00:00:22:667,-0.332,-0.71,0.65,-111.451,-153.748,-110.779,
00:00:22:683,-0.367,-0.706,0.636,-122.437,-132.508,-114.014,
00:00:22:700,-0.401,-0.667,0.63,-122.315,-112.427,-109.009,
00:00:22:717,-0.411,-0.635,0.607,-96.07,-97.168,-102.784,
00:00:22:733,-0.419,-0.608,0.581,-42.176,-80.384,-98.084,
00:00:22:750,-0.417,-0.629,0.58,15.869,-66.895,-99.61,
00:00:22:767,-0.433,-0.641,0.57,60.607,-58.472,-104.248,
00:00:22:783,-0.443,-0.638,0.573,76.782,-49.622,-106.263,
00:00:22:800,-0.444,-0.606,0.585,63.842,-16.053,-112.305,
00:00:22:817,-0.457,-0.624,0.562,77.026,-19.288,-106.812,
00:00:22:833,-0.475,-0.533,0.567,79.528,-1.587,-87.403,
00:00:22:850,-0.501,-0.46,0.546,114.074,22.705,-56.092,
00:00:22:867,-0.527,-0.494,0.539,90.332,39.062,-6.836,
00:00:22:883,-0.525,-0.514,0.56,-71.412,42.907,53.283,
00:00:22:900,0.313,-0.619,1.693,-597.229,-172.242,177.307,
00:00:22:917,-0.78,-0.35,0.855,-334.412,12.329,83.129,
00:00:22:933,-0.132,-0.432,0.818,33.02,-46.509,238.83,
00:00:22:950,-0.404,-0.449,0.973,502.624,4.577,195.312,
00:00:22:967,-0.195,-1.048,0.988,333.007,-45.655,174.499,
00:00:22:983,-0.217,-0.67,0.788,-109.436,-49.439,163.513,
00:00:23:0,-0.281,-0.6,0.702,-181.092,-48.035,112.487,
00:00:23:17,-0.324,-0.667,0.769,-162.476,-40.589,100.708,
00:00:23:33,-0.367,-0.684,0.725,-255.188,-39.368,123.535,
00:00:23:50,-0.362,-0.501,0.823,-340.943,-64.942,139.648,
00:00:23:67,-0.371,-0.597,0.731,-508.362,-90.821,174.56,
00:00:23:83,-0.433,-0.354,0.782,-657.959,-138.733,255.981,
00:00:23:100,-0.369,-0.301,0.897,-520.203,-136.841,283.325,
00:00:23:117,-0.288,-0.418,0.943,-216.614,-73.06,284.668,
00:00:23:133,-0.431,-0.582,0.86,-44.556,-74.769,352.111,
00:00:23:150,-0.176,-0.509,0.811,182.922,-24.842,326.965,
00:00:23:167,-0.228,-0.756,0.705,96.069,-34.913,307.434,
00:00:23:183,-0.071,-0.848,0.761,69.641,-31.067,223.327,
00:00:23:200,-0.121,-0.858,0.718,-73.365,-12.146,161.499,grateLH
00:00:23:217,-0.074,-1.002,0.791,-45.838,38.33,47.851,
00:00:23:233,-0.116,-1.048,0.755,27.282,76.66,-20.325,
00:00:23:250,-0.201,-0.887,0.667,-83.13,94.909,-57.129,
00:00:23:267,-0.168,-0.751,0.699,-99.244,107.055,-138.062,
00:00:23:283,-0.154,-0.805,0.713,43.579,138.794,-184.876,
00:00:23:300,-0.179,-0.803,0.624,173.828,187.378,-237.854,
00:00:23:317,-0.187,-0.787,0.667,189.087,239.38,-278.748,
00:00:23:333,-0.2,-0.75,0.581,154.113,291.015,-315.735,
00:00:23:350,-0.361,-0.628,0.681,87.036,307.19,-338.196,
00:00:23:367,-0.324,-0.441,0.747,153.625,313.598,-309.205,
00:00:23:383,-0.516,-0.423,0.839,86.853,312.866,-279.847,
00:00:23:400,-0.525,-0.32,0.865,155.944,241.577,-188.294,
00:00:23:417,-0.605,-0.272,0.9,-62.378,175.964,-120.423,
00:00:23:433,-0.569,0.033,1.052,-246.521,55.786,5.065,
00:00:23:450,-0.666,0.103,1.215,-317.505,-67.322,89.172,
00:00:23:467,-0.495,-0.162,1.155,-110.84,-139.527,96.679,
00:00:23:483,-0.362,-0.651,0.976,-76.416,-140.503,87.402,
00:00:23:500,-0.428,-0.597,0.862,-119.08,-122.254,53.588,
00:00:23:517,-0.392,-0.57,0.781,-24.537,-95.032,42.175,
00:00:23:533,-0.382,-0.519,0.691,-76.722,-76.172,34.362,
00:00:23:550,-0.431,-0.573,0.775,-226.014,-99.976,72.876,
00:00:23:567,-0.488,-0.35,0.853,-374.634,-156.983,162.414,
00:00:23:583,-0.38,-0.335,1.11,-414.246,-217.469,258.239,
00:00:23:600,-0.352,-0.318,1.092,-185.181,-244.446,365.966,
00:00:23:617,-0.224,-0.308,1.003,122.375,-276.49,397.583,
00:00:23:633,-0.22,-0.48,0.902,401.001,-265.198,452.209,
00:00:23:650,-0.041,-0.595,0.683,476.562,-215.882,425.048,
00:00:23:667,-0.029,-0.811,0.655,560.424,-155.152,286.193,
00:00:23:683,0.137,-1.103,0.496,467.224,-59.388,173.767,
00:00:23:700,0.133,-1.144,0.459,347.534,50.72,1.464,
00:00:23:717,-0.037,-1.262,0.413,94.848,148.437,-108.765,
00:00:23:733,-0.226,-0.841,0.567,-200.989,166.748,-135.254,
00:00:23:750,-0.184,-0.851,0.804,-160.401,155.09,-198.609,
00:00:23:767,-0.204,-0.826,0.761,106.384,150.94,-202.515,
00:00:23:783,-0.21,-0.836,0.651,273.254,160.461,-233.033,
00:00:23:800,-0.234,-0.809,0.676,312.866,161.255,-262.33,
00:00:23:817,-0.224,-0.871,0.639,287.597,194.152,-318.97,
00:00:23:833,-0.325,-0.708,0.629,4.699,213.867,-346.985,
00:00:23:850,-0.386,-0.64,0.78,-87.098,199.646,-355.774,
00:00:23:867,-0.447,-0.196,0.833,-158.509,193.725,-319.825,
00:00:23:883,-0.55,-0.288,0.932,-7.081,143.127,-258.423,
00:00:23:900,-0.598,-0.059,0.994,-243.775,49.377,-155.396,
00:00:23:917,-0.7,0.041,1.075,-307.679,-58.533,-39.49,
00:00:23:933,-0.577,0.009,1.116,-295.96,-159.974,48.523,
00:00:23:950,-0.385,-0.367,0.978,125.915,-158.143,56.762,
00:00:23:967,-0.377,-0.5,0.828,235.473,-140.015,68.115,
00:00:23:983,-0.341,-0.688,0.734,301.941,-105.774,48.523,
00:00:24:0,-0.325,-0.763,0.607,164.001,-73.243,50.048,
00:00:24:17,-0.264,-0.771,0.56,-77.393,-38.453,0.854,
00:00:24:33,-0.306,-0.742,0.554,-293.274,-4.944,5.615,
00:00:24:50,-0.376,-0.577,0.64,-542.115,-4.944,44.982,
00:00:24:67,-0.311,-0.448,0.763,-461.609,-1.77,40.039,
00:00:24:83,-0.408,-0.548,1.013,-337.037,-62.439,116.211,
00:00:24:100,-0.336,-0.316,1.071,-96.741,-110.962,191.894,
00:00:24:117,-0.22,-0.666,0.946,428.955,-108.582,193.237,
00:00:24:133,-0.334,-0.574,0.638,477.539,-95.276,232.36,
00:00:24:150,-0.134,-0.846,0.619,539.672,-69.214,155.822,
00:00:24:167,-0.132,-1.008,0.562,353.515,-3.907,65.856,
00:00:24:183,-0.099,-1.018,0.554,178.283,89.904,-46.57,
00:00:24:200,-0.237,-0.855,0.658,73.608,157.165,-118.103,
00:00:24:217,-0.28,-0.603,0.792,37.353,171.875,-160.34,
00:00:24:233,-0.193,-0.862,0.803,183.593,176.88,-228.333,
00:00:24:250,-0.243,-0.88,0.635,253.723,189.453,-270.935,
00:00:24:267,-0.217,-0.804,0.56,222.778,239.807,-332.337,
00:00:24:283,-0.222,-0.959,0.6,256.408,271.301,-388.977,
00:00:24:300,-0.42,-0.445,0.829,-278.992,260.498,-371.155,
00:00:24:317,-0.498,-0.32,0.971,-198.06,151.916,-311.158,
00:00:24:333,-0.523,-0.125,1.059,-380.494,44.494,-161.255,
00:00:24:350,-0.658,0.089,1.003,-503.052,-86.426,-48.218,
00:00:24:367,-0.535,0.024,0.975,-406.8,-180.359,17.273,
00:00:24:383,-0.444,-0.383,0.846,-49.561,-188.965,111.694,
00:00:24:400,-0.332,-0.598,0.84,148.681,-155.396,98.266,
00:00:24:417,-0.405,-0.667,0.681,78.857,-127.503,136.718,
00:00:24:433,-0.4,-0.357,0.589,-195.069,-101.99,171.63,
00:00:24:450,-0.323,-0.623,0.699,-193.543,-82.581,137.085,
00:00:24:467,-0.363,-0.495,0.731,-285.462,-58.289,205.139,
00:00:24:483,-0.165,-0.471,0.861,43.457,-5.494,264.282,
00:00:24:500,-0.14,-0.756,0.807,294.922,29.296,234.253,
00:00:24:517,-0.21,-0.749,0.589,323.852,52.734,208.313,
00:00:24:533,-0.007,-1.092,0.604,308.838,94.421,98.877,
00:00:24:550,-0.048,-1.188,0.6,155.456,163.452,0.122,
00:00:24:567,-0.208,-0.913,0.841,-98.389,178.344,-40.772,
00:00:24:583,-0.21,-0.597,1.056,-52.796,139.526,-78.248,
00:00:24:600,-0.124,-0.836,0.922,260.986,118.835,-152.466,
00:00:24:617,-0.212,-0.911,0.716,163.818,109.558,-175.049,
00:00:24:633,-0.192,-0.763,0.7,97.839,114.38,-239.319,
00:00:24:650,-0.2,-0.816,0.72,36.315,116.943,-263.245,
00:00:24:667,-0.386,-0.307,0.832,-247.803,129.821,-247.498,
00:00:24:683,-0.478,-0.042,0.937,-194.642,93.627,-172.547,
00:00:24:700,-0.554,-0.124,0.95,-143.86,44.372,-66.407,
00:00:24:717,-0.605,0.112,0.954,-218.14,-41.199,99.548,
00:00:24:733,-0.53,-0.082,0.938,-171.753,-106.202,162.963,
00:00:24:750,-0.362,-0.605,0.878,-10.01,-125.733,167.663,
00:00:24:767,-0.397,-0.616,0.788,-61.219,-117.066,185.058,
00:00:24:783,-0.377,-0.641,0.709,-36.988,-98.145,159.301,
00:00:24:800,-0.386,-0.557,0.654,-146.424,-84.839,151.367,
00:00:24:817,-0.361,-0.596,0.765,-243.348,-90.699,137.573,
00:00:24:833,-0.331,-0.429,0.866,-283.387,-93.75,161.865,
00:00:24:850,-0.249,-0.586,0.928,-117.127,-92.347,133.422,
00:00:24:867,-0.194,-0.36,0.962,68.969,-118.226,204.834,
00:00:24:883,-0.47,-0.238,0.882,-31.739,-125.916,335.144,
00:00:24:900,-0.166,-0.638,0.849,218.75,-115.662,277.343,
00:00:24:917,-0.226,-0.495,0.773,20.202,-72.144,280.639,
00:00:24:933,-0.116,-0.618,0.78,38.269,-27.1,237.671,
00:00:24:950,-0.076,-0.814,0.794,84.838,34.973,150.024,
00:00:24:967,0.012,-0.82,0.737,103.454,103.393,55.542,
00:00:24:983,-0.005,-1.139,0.704,125,167.297,-71.595,
00:00:25:0,-0.131,-1.008,0.723,-140.931,156.433,-114.808,
00:00:25:17,-0.199,-0.636,0.851,-315.308,152.954,-127.93,
00:00:25:33,-0.123,-0.664,0.849,-217.835,153.747,-205.689,
00:00:25:50,-0.138,-0.802,0.727,-140.503,160.522,-233.216,
00:00:25:67,-0.125,-0.654,0.736,-118.47,175.842,-263.184,
00:00:25:83,-0.127,-0.751,0.792,-117.615,167.663,-310.242,
00:00:25:100,-0.198,-0.657,0.8,-189.698,155.761,-332.825,
00:00:25:117,-0.235,-0.561,0.828,-271.119,148.376,-328.125,
00:00:25:133,-0.332,-0.494,0.835,-257.264,150.146,-320.862,
00:00:25:150,-0.379,-0.372,0.845,-214.905,128.418,-273.865,
00:00:25:167,-0.422,-0.242,0.901,-197.51,114.196,-232.056,
00:00:25:183,-0.479,-0.308,0.945,-191.529,37.048,-147.339,
00:00:25:200,-0.52,-0.051,1.061,-207.642,-32.227,-48.951,
00:00:25:217,-0.545,-0.028,1.059,-286.744,-132.691,71.106,
00:00:25:233,-0.56,0.055,0.978,-273.621,-184.082,154.724,
00:00:25:250,-0.393,-0.351,0.86,-274.476,-210.267,140.991,
00:00:25:267,-0.394,-0.471,0.8,-565.064,-218.75,149.047,
00:00:25:283,-0.37,-0.328,0.87,-570.435,-213.868,96.679,
00:00:25:300,-0.342,-0.432,0.965,-428.833,-195.801,58.044,
00:00:25:317,-0.356,-0.341,0.905,-369.141,-181.946,52.856,
00:00:25:333,-0.295,-0.33,0.977,-246.155,-163.758,26.245,
00:00:25:350,-0.255,-0.467,0.968,-112.61,-152.344,-8.118,
00:00:25:367,-0.248,-0.523,0.875,-103.516,-129.456,-30.396,
00:00:25:383,-0.355,-0.267,0.869,-132.081,-136.597,-4.09,
00:00:25:400,-0.298,-0.295,0.878,-35.889,-89.051,-25.879,
00:00:25:417,-0.329,-0.357,0.853,-6.897,-82.947,21.667,
00:00:25:433,-0.399,-0.146,0.913,64.27,-87.159,111.694,
00:00:25:450,-0.341,-0.116,0.87,202.819,-59.51,161.804,
00:00:25:467,-0.321,-0.324,0.796,295.044,-43.641,195.922,
00:00:25:483,-0.308,-0.324,0.795,161.377,-35.462,225.769,
00:00:25:500,-0.255,-0.384,0.772,88.317,-2.015,184.082,
00:00:25:517,-0.219,-0.493,0.814,25.39,44.311,139.221,
00:00:25:533,-0.187,-0.368,0.917,35.949,111.389,103.881,
00:00:25:550,-0.163,-0.433,1.004,224.121,150.207,56.64,
00:00:25:567,-0.14,-0.489,1.071,482.177,182.251,19.836,
00:00:25:583,-0.176,-0.607,0.995,634.582,190.918,-5.677,
00:00:25:600,-0.136,-0.664,0.902,473.266,154.968,-36.377,
00:00:25:617,-0.141,-0.818,0.87,272.461,137.329,-116.578,
00:00:25:633,-0.159,-0.916,0.833,-76.905,92.224,-182.19,
00:00:25:650,-0.173,-0.789,0.863,-313.172,74.157,-246.888,
00:00:25:667,-0.201,-0.6,0.838,-280.457,68.359,-302.124,
00:00:25:683,-0.255,-0.358,0.928,-43.519,56.823,-308.167,
00:00:25:700,-0.313,-0.392,0.893,231.994,101.257,-329.285,
00:00:25:717,-0.329,-0.381,0.777,270.507,91.491,-272.156,
00:00:25:733,-0.403,-0.364,0.797,194.275,98.083,-250.061,
00:00:25:750,-0.426,-0.167,0.757,112.671,77.88,-185.364,
00:00:25:767,-0.511,-0.176,0.868,42.114,25.207,-118.958,
00:00:25:783,-0.567,0.095,0.934,-21.729,2.075,-16.175,
00:00:25:800,-0.604,-0.016,0.898,46.081,-28.992,55.542,
00:00:25:817,-0.576,0.018,0.92,-68.909,-67.383,126.098,
00:00:25:833,-0.444,-0.238,0.94,-144.349,-81.299,110.473,
00:00:25:850,-0.399,-0.392,1,-168.457,-79.712,111.45,
00:00:25:867,-0.408,-0.511,0.97,-148.621,-83.558,75.439,
00:00:25:883,-0.351,-0.475,0.942,-150.33,-90.577,71.777,
00:00:25:900,-0.311,-0.527,0.929,-128.907,-98.267,40.527,
00:00:25:917,-0.341,-0.513,0.874,-98.877,-115.601,41.87,
00:00:25:933,-0.385,-0.388,0.859,-78.431,-125.367,66.04,
00:00:25:950,-0.291,-0.489,0.864,-46.143,-130.738,70.312,
00:00:25:967,-0.382,-0.43,0.815,-31.739,-139.405,87.463,
00:00:25:983,-0.469,-0.193,0.785,-81.665,-161.927,156.128,
00:00:26:0,-0.227,-0.574,0.833,-13.306,-130.249,110.229,
00:00:26:17,-0.45,-0.081,0.758,-64.148,-130.127,207.092,
00:00:26:33,-0.193,-0.535,0.877,47.668,-75.867,134.765,
00:00:26:50,-0.368,-0.147,0.961,75.683,-61.524,221.618,
00:00:26:67,-0.152,-0.566,0.868,216.858,-13.916,169.677,
00:00:26:83,-0.14,-0.507,0.881,240.478,27.343,156.616,
00:00:26:100,-0.102,-0.691,0.854,289.55,58.105,89.294,
00:00:26:117,-0.036,-0.766,0.827,314.026,110.595,-9.949,
00:00:26:133,-0.121,-0.74,0.805,360.534,141.723,-87.037,
00:00:26:150,-0.225,-0.648,0.833,318.481,132.202,-117.31,
00:00:26:167,-0.19,-0.689,0.948,288.696,111.084,-156.861,
00:00:26:183,-0.203,-0.767,0.891,272.705,100.708,-186.829,
00:00:26:200,-0.198,-0.826,0.853,243.103,80.444,-250.55,
00:00:26:217,-0.207,-0.785,0.788,166.504,69.702,-281.739,
00:00:26:233,-0.259,-0.646,0.751,158.874,66.65,-347.535,
00:00:26:250,-0.32,-0.796,0.808,175.354,59.204,-364.075,
00:00:26:267,-0.392,-0.406,0.683,89.477,92.468,-391.236,
00:00:26:283,-0.459,-0.438,0.837,103.759,62.011,-343.567,
00:00:26:300,-0.429,-0.174,0.869,-0.367,56.762,-285.645,
00:00:26:317,-0.592,-0.24,0.893,30.822,5.798,-192.017,
00:00:26:333,-0.569,0.183,0.861,-146.18,-38.392,-85.022,
00:00:26:350,-0.65,-0.095,0.983,-236.329,-94.483,8.178,
00:00:26:367,-0.491,0.056,1.033,-236.512,-120.972,53.161,
00:00:26:383,-0.436,-0.411,0.954,-81.482,-109.07,85.388,
00:00:26:400,-0.415,-0.395,0.882,7.324,-106.629,83.801,
00:00:26:417,-0.443,-0.503,0.795,50.109,-99.671,102.6,
00:00:26:433,-0.396,-0.48,0.847,-62.561,-119.935,115.356,
00:00:26:450,-0.372,-0.58,0.809,-49.866,-118.103,119.14,
00:00:26:467,-0.364,-0.365,0.936,-17.212,-153.504,211.059,
00:00:26:483,-0.359,-0.48,0.734,199.463,-104.371,211.364,
00:00:26:500,-0.332,-0.299,0.848,152.282,-99.61,227.417,
00:00:26:517,-0.328,-0.511,0.753,265.625,-42.542,223.266,
00:00:26:533,-0.254,-0.418,0.753,481.079,28.686,170.959,
00:00:26:550,-0.287,-0.505,0.735,685.73,93.872,193.481,
00:00:26:567,-0.163,-0.635,0.766,984.192,153.869,136.901,
00:00:26:583,-0.16,-0.679,0.687,1203.247,227.661,109.985,
00:00:26:600,-0.114,-0.934,0.538,1437.622,265.258,20.813,
00:00:26:617,-0.168,-1.267,0.419,1190.918,249.878,-13.977,
00:00:26:633,-0.172,-1.279,0.538,592.529,197.509,-64.576,
00:00:26:650,-0.125,-1.124,0.662,189.758,163.147,-136.17,
00:00:26:667,-0.173,-0.923,0.669,147.949,168.335,-194.153,
00:00:26:683,-0.201,-0.899,0.646,361.633,175.476,-280.03,
00:00:26:700,-0.256,-0.953,0.512,504.028,202.942,-294.983,
00:00:26:717,-0.287,-0.938,0.501,445.129,234.069,-323.548,
00:00:26:733,-0.303,-0.873,0.503,169.372,261.047,-332.703,
00:00:26:750,-0.393,-0.652,0.516,-39.917,270.935,-316.712,
00:00:26:767,-0.438,-0.655,0.642,-326.172,224.975,-281.861,
00:00:26:783,-0.486,-0.447,0.786,-646.973,126.526,-205.262,
00:00:26:800,-0.6,-0.223,0.912,-904.786,-4.09,-104.737,
00:00:26:817,-0.606,-0.042,1.022,-954.224,-127.503,22.094,
00:00:26:833,-0.486,-0.006,1.14,-442.383,-174.317,59.082,
00:00:26:850,-0.396,-0.378,0.984,165.649,-145.264,131.591,
00:00:26:867,-0.378,-0.472,0.792,464.477,-93.567,146.789,
00:00:26:883,-0.343,-0.682,0.662,630.188,-51.758,148.925,
00:00:26:900,-0.327,-0.696,0.486,529.968,-5.433,160.827,
00:00:26:917,-0.288,-0.742,0.386,302.307,34.362,149.841,
00:00:26:933,-0.294,-0.796,0.41,-50.782,46.997,173.889,
00:00:26:950,-0.391,-0.638,0.433,-480.53,28.442,223.205,
00:00:26:967,-0.313,-0.477,0.678,-421.814,31.86,243.713,
00:00:26:983,-0.323,-0.474,0.739,-327.149,13.61,324.707,
00:00:27:0,-0.201,-0.58,0.897,23.437,-6.226,311.645,
00:00:27:17,-0.215,-0.579,0.857,424.682,15.441,332.458,
00:00:27:33,-0.116,-0.656,0.812,868.286,58.898,286.865,
00:00:27:50,-0.162,-0.668,0.733,1292.846,86.425,242.431,
00:00:27:67,-0.076,-0.946,0.56,1676.818,127.563,124.817,
00:00:27:83,-0.187,-1.021,0.483,1863.83,136.84,99.67,
00:00:27:100,-0.222,-1.092,0.514,1935.119,127.197,64.27,
00:00:27:117,-0.194,-1.067,0.375,1990.234,110.168,13.244,
00:00:27:133,-0.177,-1.041,0.277,1999.694,71.106,14.709,
00:00:27:150,-0.214,-1.117,0.04,1999.694,40.893,5.371,
00:00:27:167,-0.24,-1.075,-0.048,1999.694,38.696,-8.606,
00:00:27:183,-0.186,-0.995,-0.162,1999.694,72.021,-52.43,
00:00:27:200,-0.254,-1.127,-0.199,1828.796,67.382,-43.58,
00:00:27:217,-0.273,-1.178,-0.225,1364.929,71.289,-50.232,
00:00:27:233,-0.282,-1.273,-0.286,755.737,66.772,-39.124,
00:00:27:250,-0.29,-1.263,-0.333,68.115,81.909,-73.548,
00:00:27:267,-0.276,-1.214,-0.291,-392.884,91.674,-73.243,
00:00:27:283,-0.27,-1.141,-0.235,-627.503,101.623,-95.704,
00:00:27:300,-0.286,-0.989,-0.178,-643.372,118.774,-121.644,
00:00:27:317,-0.302,-0.866,-0.157,-451.477,143.371,-137.269,
00:00:27:333,-0.294,-0.905,-0.083,-159.852,152.893,-140.625,
00:00:27:350,-0.285,-1.018,0.015,16.479,141.967,-148.011,
00:00:27:367,-0.291,-1.018,0.121,132.08,114.868,-157.41,
00:00:27:383,-0.269,-1.043,0.097,87.463,77.819,-142.762,
00:00:27:400,-0.201,-1.103,0.028,-44.434,17.578,-121.033,
00:00:27:417,-0.265,-0.994,0.006,-300.293,9.033,-100.708,
00:00:27:433,-0.273,-0.918,0.044,-444.703,-1.343,-82.398,
00:00:27:450,-0.317,-1.019,-0.096,-562.5,42.846,-86.304,
00:00:27:467,-0.17,-0.986,-0.027,-631.897,-2.991,-60.547,
00:00:27:483,-0.271,-0.961,-0.006,-694.153,0.671,-27.894,
00:00:27:500,-0.264,-0.893,-0.002,-726.075,15.197,-4.273,
00:00:27:517,-0.271,-0.843,0.06,-727.967,-0.306,-0.061,
00:00:27:533,-0.321,-0.732,0.2,-685.791,24.963,2.502,
00:00:27:550,-0.298,-0.977,0.091,-476.746,58.776,-1.954,
00:00:27:567,-0.319,-0.968,0.095,-301.941,70.983,-8.24,
00:00:27:583,-0.36,-0.919,0.07,-51.758,86.608,-13.062,
00:00:27:600,-0.287,-0.996,0.072,86.914,96.923,-18.311,
00:00:27:617,-0.275,-1.124,0.104,-82.825,90.759,-10.743,
00:00:27:633,-0.252,-1.044,0.116,-394.349,79.773,1.586,
00:00:27:650,-0.233,-1.044,0.117,-718.018,42.602,14.831,
00:00:27:667,-0.253,-0.984,0.241,-914.978,18.676,26.977,
00:00:27:683,-0.248,-0.8,0.339,-866.639,5.127,39.611,
00:00:27:700,-0.213,-0.838,0.417,-779.48,-34.729,73.547,
00:00:27:717,-0.23,-0.921,0.272,-914.246,-32.959,75.5,
00:00:27:733,-0.316,-1.036,0.422,-939.698,-74.952,80.566,
00:00:27:750,-0.306,-0.691,0.457,-969.178,-55.542,138.366,
00:00:27:767,-0.238,-0.636,0.416,-771.851,-10.01,112.915,
00:00:27:783,-0.169,-0.723,0.659,-618.897,24.719,106.628,
00:00:27:800,-0.31,-0.644,0.763,-101.807,49.194,107.36,
00:00:27:817,-0.233,-0.745,0.598,610.656,81.787,90.576,
00:00:27:833,-0.322,-0.867,0.49,1109.436,89.355,49.56,
00:00:27:850,-0.286,-1.115,0.412,1222.29,55.908,31.921,
00:00:27:867,-0.281,-1.091,0.364,834.35,-3.54,50.415,
00:00:27:883,-0.232,-0.981,0.346,411.682,-26.185,45.532,
00:00:27:900,-0.236,-0.95,0.265,292.663,-9.583,12.756,
00:00:27:917,-0.227,-0.93,0.332,411.499,7.019,-6.348,
00:00:27:933,-0.25,-1.015,0.302,609.68,19.897,-66.895,
00:00:27:950,-0.331,-0.886,0.482,826.599,-10.987,-28.626,
00:00:27:967,-0.267,-0.753,0.369,1176.513,-17.273,-44.19,
00:00:27:983,-0.3,-1.014,0.24,1398.986,-54.2,-57.19,
00:00:28:0,-0.225,-1.051,0.137,987.671,-146.302,24.231,
00:00:28:17,-0.209,-0.798,0.173,523.193,-175.599,74.34,
00:00:28:33,-0.171,-0.976,0.005,553.161,-151.917,59.082,
00:00:28:50,-0.176,-1.219,-0.114,440.429,-123.475,38.452,
00:00:28:67,-0.162,-1.154,-0.151,282.47,-92.041,11.535,
00:00:28:83,-0.224,-1.074,-0.043,-133.912,-48.951,-101.014,
00:00:28:100,-0.221,-1.051,0.002,-167.603,-73.609,-149.048,
00:00:28:117,-0.25,-1.07,-0.041,-271.668,-42.115,-154.664,
00:00:28:133,-0.238,-1.054,0.002,-413.819,-36.377,-152.466,
00:00:28:150,-0.321,-1.193,-0.001,-518.738,-24.964,-159.363,
00:00:28:167,-0.233,-0.925,0.015,-604.981,13.61,-134.949,
00:00:28:183,-0.288,-0.798,0.013,-347.352,33.813,-108.399,
00:00:28:200,-0.342,-1.001,0.02,-228.638,81.543,-110.901,
00:00:28:217,-0.367,-1.085,-0.03,-205.079,91.308,-97.779,
00:00:28:233,-0.363,-1.076,-0.011,-367.554,96.557,-81.299,
00:00:28:250,-0.338,-0.963,0.106,-619.873,107.788,-32.288,grateLH
00:00:28:267,-0.228,-0.648,0.239,-880.31,-3.907,18.31,
00:00:28:283,-0.224,-0.734,0.282,-745.606,-39.49,41.931,
00:00:28:300,-0.24,-0.959,0.279,-810.914,-33.143,43.945,
00:00:28:317,-0.23,-0.959,0.24,-899.537,-38.819,52.368,
00:00:28:333,-0.064,-1.118,0.509,-725.586,-26.246,-15.931,
00:00:28:350,-0.167,-1.075,0.479,-684.754,0.61,-23.743,
00:00:28:367,-0.138,-1.033,0.503,-674.622,8.422,-27.771,
00:00:28:383,-0.137,-1.049,0.433,-578.186,47.851,-55.726,
00:00:28:400,-0.182,-0.892,0.331,-411.133,114.807,-79.468,
00:00:28:417,-0.147,-0.952,0.239,-271.119,191.772,-104.493,
00:00:28:433,-0.16,-0.926,0.276,-270.264,252.136,-116.272,
00:00:28:450,-0.188,-0.934,0.338,-209.412,285.156,-133.606,
00:00:28:467,-0.246,-0.831,0.451,-143.433,269.287,-106.873,
00:00:28:483,-0.243,-0.743,0.481,-237.854,246.643,-108.826,
00:00:28:500,-0.323,-0.791,0.583,-33.204,210.693,-86.548,
00:00:28:517,-0.381,-0.528,0.7,-71.534,135.254,-31.617,
00:00:28:533,-0.382,-0.752,0.704,148.864,103.21,-41.932,
00:00:28:550,-0.475,-0.555,0.863,39.856,6.225,18.493,
00:00:28:567,-0.349,-0.835,0.868,220.276,-134.949,3.356,
00:00:28:583,-0.269,-0.999,0.651,246.215,-152.955,-8.484,
00:00:28:600,-0.283,-1.019,0.51,149.231,-155.091,-23.987,
00:00:28:617,-0.286,-0.992,0.436,-16.541,-171.143,-41.504,
00:00:28:633,-0.255,-0.982,0.39,-136.414,-185.242,-60.975,
00:00:28:650,-0.252,-0.975,0.413,-239.808,-184.937,-74.707,
00:00:28:667,-0.273,-0.915,0.42,-297.364,-191.04,-73.365,
00:00:28:683,-0.332,-0.819,0.492,-252.747,-218.079,-42.725,
00:00:28:700,-0.261,-0.716,0.673,-68.116,-247.986,-18.616,
00:00:28:717,-0.218,-0.936,0.497,115.6,-212.83,-7.813,
00:00:28:733,-0.275,-0.851,0.338,16.906,-186.829,4.516,
00:00:28:750,-0.232,-0.776,0.433,-135.621,-163.086,0.793,
00:00:28:767,-0.253,-0.813,0.304,-185.73,-105.164,18.493,
00:00:28:783,-0.261,-0.775,0.355,-229.615,-67.017,34.668,
00:00:28:800,-0.249,-0.764,0.532,-318.238,-64.515,55.297,
00:00:28:817,-0.316,-0.766,0.629,-344.544,-86.06,93.872,
00:00:28:833,-0.345,-0.587,0.661,-274.964,-118.592,149.536,
00:00:28:850,-0.166,-0.866,0.521,-10.01,-81.238,203.979,
00:00:28:867,-0.12,-0.886,0.407,49.56,-15.259,189.636,
00:00:28:883,-0.049,-1.122,0.318,-32.471,71.96,131.408,
00:00:28:900,-0.092,-1.129,0.353,-118.042,136.84,68.481,
00:00:28:917,-0.15,-1.067,0.412,-126.343,173.95,30.212,
00:00:28:933,-0.224,-0.953,0.487,-83.68,166.32,23.62,
00:00:28:950,-0.227,-0.888,0.583,52.246,133.361,23.071,
00:00:28:967,-0.185,-0.919,0.599,181.274,109.558,5.981,
00:00:28:983,-0.18,-0.957,0.513,179.626,113.281,-29.236,
00:00:29:0,-0.148,-0.942,0.485,73.852,135.437,-83.863,
00:00:29:17,-0.135,-1.039,0.448,-84.534,173.217,-140.137,
00:00:29:33,-0.2,-0.887,0.502,-153.443,219.909,-184.937,
00:00:29:50,-0.221,-0.867,0.509,-30.03,256.164,-190.857,
00:00:29:67,-0.384,-0.583,0.672,97.778,244.384,-135.437,
00:00:29:83,-0.367,-0.706,0.692,241.333,194.336,-75.562,
00:00:29:100,-0.452,-0.56,0.8,142.578,111.938,-47.669,
00:00:29:117,-0.504,-0.521,0.914,173.462,-2.747,9.521,
00:00:29:133,-0.482,-0.543,1.011,143.249,-117.066,34.24,
00:00:29:150,-0.386,-0.686,0.958,112.487,-208.741,24.169,
00:00:29:167,-0.244,-0.935,0.572,136.596,-230.042,-2.259,
00:00:29:183,-0.258,-0.945,0.412,108.398,-214.478,-9.339,
00:00:29:200,-0.256,-0.908,0.317,-5.066,-215.394,-6.409,
00:00:29:217,-0.23,-0.894,0.509,-218.323,-248.108,-2.32,
00:00:29:233,-0.237,-0.84,0.591,-236.023,-257.142,9.094,
00:00:29:250,-0.042,-1.086,0.769,-125.733,-335.144,36.743,
00:00:29:267,-0.285,-0.83,0.509,-72.266,-298.218,77.453,
00:00:29:283,-0.483,-0.683,0.339,-104.371,-252.259,143.249,
00:00:29:300,-0.098,-1.101,0.376,-120.606,-200.318,61.279,
00:00:29:317,-0.102,-0.95,0.407,-143.372,-141.541,56.762,
00:00:29:333,-0.176,-0.997,0.091,-156.373,-11.231,48.217,
00:00:29:350,-0.128,-0.978,0.306,-147.095,51.513,28.808,
00:00:29:367,-0.045,-1.058,0.316,-90.76,155.578,-25.208,
00:00:29:383,-0.158,-1.047,0.21,-45.533,231.933,-36.622,
00:00:29:400,-0.168,-0.882,0.475,-68.543,237.487,-45.533,
00:00:29:417,-0.114,-1.011,0.568,-15.686,239.196,-85.206,
00:00:29:433,-0.122,-1.005,0.488,15.686,249.939,-123.536,
00:00:29:450,-0.137,-0.949,0.433,95.459,282.776,-156.006,
00:00:29:467,-0.174,-0.952,0.446,110.412,333.374,-206.665,
00:00:29:483,-0.226,-0.812,0.521,68.359,338.501,-194.886,
00:00:29:500,-0.219,-0.748,0.642,14.221,341.247,-192.017,
00:00:29:517,-0.275,-0.826,0.757,106.14,324.768,-166.199,
00:00:29:533,-0.452,-0.662,0.807,63.171,279.846,-162.354,
00:00:29:550,-0.569,-0.363,0.968,148.132,151.184,-67.078,
00:00:29:567,-0.423,-0.549,1.048,246.643,23.803,-12.33,
00:00:29:583,-0.508,-0.455,1.051,156.372,-111.512,34.179,
00:00:29:600,-0.356,-0.776,0.948,50.048,-218.628,26.55,
00:00:29:617,-0.294,-0.914,0.685,32.165,-237.427,9.521,
00:00:29:633,-0.253,-0.94,0.498,-106.08,-223.267,-13.611,
00:00:29:650,-0.249,-0.878,0.499,-173.462,-217.896,-20.203,
00:00:29:667,-0.286,-0.845,0.508,-127.747,-227.967,-7.508,
00:00:29:683,-0.173,-0.775,0.675,-198.304,-265.686,3.173,
00:00:29:700,-0.236,-0.769,0.526,-195.191,-261.17,47.546,
00:00:29:717,-0.197,-0.822,0.493,-244.446,-248.047,40.954,
00:00:29:733,-0.169,-0.81,0.458,-243.897,-217.041,55.847,
00:00:29:750,-0.172,-0.673,0.638,-113.221,-184.876,55.053,
00:00:29:767,-0.278,-0.837,0.294,-9.217,-86.548,71.411,
00:00:29:783,-0.073,-0.804,0.479,15.319,-42.969,55.481,
00:00:29:800,-0.136,-0.94,0.35,47.851,42.602,37.048,
00:00:29:817,-0.136,-1.014,0.264,8.728,133.728,3.54,
00:00:29:833,-0.17,-0.968,0.345,-34.607,204.284,-19.104,
00:00:29:850,-0.23,-0.824,0.513,-78.98,223.632,-9.705,
00:00:29:867,-0.221,-0.744,0.699,-54.627,198.059,-3.357,
00:00:29:883,-0.162,-0.833,0.707,124.45,193.847,-30.579,
00:00:29:900,-0.156,-0.915,0.571,179.748,206.604,-49.561,
00:00:29:917,-0.156,-0.95,0.5,143.249,230.407,-94.056,
00:00:29:933,-0.191,-0.966,0.464,48.217,269.47,-132.935,
00:00:29:950,-0.246,-0.979,0.479,-29.664,297.973,-171.387,
00:00:29:967,-0.278,-0.926,0.497,-92.774,324.829,-171.936,
00:00:29:983,-0.356,-0.787,0.479,-41.321,334.838,-179.2,
00:00:30:0,-0.333,-0.639,0.616,39.123,302.612,-143.677,
00:00:30:17,-0.379,-0.739,0.769,216.858,247.558,-125.306,
00:00:30:33,-0.456,-0.566,0.906,76.171,124.511,-53.345,
00:00:30:50,-0.433,-0.496,0.943,136.718,-16.297,8.422,
00:00:30:67,-0.398,-0.527,1.029,83.801,-157.593,70.739,
00:00:30:83,-0.29,-0.68,1.009,110.351,-239.197,65.002,
00:00:30:100,-0.274,-0.758,0.758,246.46,-238.831,71.96,
00:00:30:117,-0.256,-0.808,0.575,314.331,-201.111,55.481,
00:00:30:133,-0.267,-0.788,0.543,403.93,-164.368,63.232,
00:00:30:150,-0.243,-0.911,0.479,351.989,-149.048,59.692,
00:00:30:167,-0.297,-0.873,0.491,101.745,-181.458,93.017,
00:00:30:183,-0.136,-0.908,0.636,-107.85,-219.361,76.843,
00:00:30:200,-0.191,-0.914,0.507,-245.606,-227.112,88.684,
00:00:30:217,-0.19,-0.761,0.519,-239.258,-223.877,106.445,
00:00:30:233,-0.151,-0.916,0.403,-119.446,-177.247,76.782,
00:00:30:250,-0.243,-0.785,0.446,-62.317,-165.528,103.698,
00:00:30:267,-0.168,-0.717,0.59,-26.978,-152.222,114.563,
00:00:30:283,-0.173,-0.745,0.525,35.705,-127.015,116.272,
00:00:30:300,-0.086,-1.096,0.423,-82.337,-75.501,72.448,
00:00:30:317,-0.168,-0.934,0.359,-129.456,-15.931,61.95,
00:00:30:333,-0.121,-0.905,0.447,-54.505,44.433,47.607,
00:00:30:350,-0.115,-0.993,0.413,91.43,111.877,10.437,
00:00:30:367,-0.18,-1.005,0.286,137.939,173.401,7.995,
00:00:30:383,-0.195,-0.941,0.431,27.465,196.228,1.281,
00:00:30:400,-0.177,-0.928,0.624,-64.515,184.509,-20.997,
00:00:30:417,-0.145,-0.969,0.596,-55.603,184.753,-55.054,
00:00:30:433,-0.144,-0.996,0.514,-53.772,199.829,-91.614,
00:00:30:450,-0.132,-0.988,0.464,6.347,229.858,-128.602,
00:00:30:467,-0.152,-1.005,0.452,9.948,257.324,-164.978,
00:00:30:483,-0.146,-0.912,0.448,-17.334,287.353,-195.557,
00:00:30:500,-0.162,-1.047,0.428,-55.115,314.453,-236.023,
00:00:30:517,-0.239,-0.818,0.46,-135.987,326.233,-236.512,
00:00:30:533,-0.233,-0.933,0.566,-92.774,319.397,-243.103,
00:00:30:550,-0.275,-0.527,0.637,-134.949,293.64,-190.369,
00:00:30:567,-0.24,-0.751,0.72,-27.161,252.197,-166.443,
00:00:30:583,-0.33,-0.657,0.781,-26.856,186.767,-116.089,
00:00:30:600,-0.332,-0.486,0.837,-129.09,96.679,-40.467,
00:00:30:617,-0.37,-0.541,0.939,-3.724,-7.935,15.625,
00:00:30:633,-0.37,-0.356,0.971,39.489,-110.779,102.844,
00:00:30:650,-0.235,-0.634,0.916,258.911,-167.42,112.487,
00:00:30:667,-0.201,-0.806,0.732,463.623,-201.783,123.291,
00:00:30:683,-0.172,-0.897,0.544,454.589,-180.481,107.788,
00:00:30:700,-0.149,-0.998,0.419,251.831,-149.231,66.467,
00:00:30:717,-0.175,-0.98,0.383,2.807,-120.484,43.579,
00:00:30:733,-0.14,-0.96,0.438,-218.445,-105.042,18.676,
00:00:30:750,-0.223,-0.853,0.472,-334.107,-88.257,33.63,
00:00:30:767,-0.151,-0.877,0.741,-227.295,-108.277,23.559,
00:00:30:783,-0.217,-0.834,0.542,-19.532,-91.004,45.837,
00:00:30:800,-0.215,-0.824,0.515,149.658,-104.92,68.115,
00:00:30:817,-0.178,-0.775,0.505,226.44,-104.31,68.237,
00:00:30:833,-0.152,-0.881,0.413,146.85,-75.745,52.429,
00:00:30:850,-0.167,-0.855,0.394,70.434,-54.688,35.705,
00:00:30:867,-0.089,-0.965,0.44,-33.081,-2.686,-14.039,
00:00:30:883,-0.185,-0.806,0.483,-17.456,72.998,-38.88,
00:00:30:900,-0.174,-0.894,0.495,110.473,102.111,-51.819,
00:00:30:917,-0.172,-0.942,0.424,172.973,124.817,-57.068,
00:00:30:933,-0.185,-0.956,0.362,137.512,140.014,-70.252,
00:00:30:950,-0.17,-0.938,0.43,19.165,156.005,-82.276,
00:00:30:967,-0.163,-0.928,0.569,-100.403,143.188,-97.779,
00:00:30:983,-0.113,-0.906,0.745,-169.129,122.314,-123.475,
00:00:31:0,-0.103,-1,0.693,-134.095,128.54,-165.955,
00:00:31:17,-0.164,-0.974,0.572,-26.185,140.625,-187.989,
00:00:31:33,-0.139,-0.969,0.554,38.147,156.921,-214.783,
00:00:31:50,-0.178,-0.923,0.47,27.221,179.992,-237.305,
00:00:31:67,-0.208,-0.957,0.435,-65.491,194.397,-258.362,
00:00:31:83,-0.205,-0.872,0.467,-192.81,195.678,-259.644,
00:00:31:100,-0.266,-0.776,0.523,-227.784,197.021,-257.874,
00:00:31:117,-0.273,-0.707,0.645,-185.791,166.442,-231.507,
00:00:31:133,-0.356,-0.608,0.781,-131.104,98.877,-178.284,
00:00:31:150,-0.477,-0.515,0.881,-12.94,-21.18,-100.647,
00:00:31:167,-0.455,-0.474,0.995,-36.255,-198.243,19.775,
00:00:31:183,-0.328,-0.491,0.993,113.403,-332.337,60.18,
00:00:31:200,-0.23,-0.798,0.83,348.877,-377.747,96.679,
00:00:31:217,-0.247,-0.812,0.643,576.904,-373.658,100.097,
00:00:31:233,-0.239,-0.77,0.531,709.655,-332.703,110.473,
00:00:31:250,-0.254,-0.805,0.44,529.846,-288.086,113.83,
00:00:31:267,-0.162,-0.954,0.53,111.755,-296.021,75.988,
00:00:31:283,-0.134,-1.1,0.327,-315.186,-230.469,65.734,
00:00:31:300,-0.24,-0.773,0.554,-569.092,-252.076,76.477,
00:00:31:317,-0.095,-0.901,0.55,-463.807,-212.525,79.101,
00:00:31:333,-0.28,-0.893,0.482,-336.304,-197.876,105.896,
00:00:31:350,-0.21,-0.778,0.583,-55.848,-192.933,152.832,
00:00:31:367,-0.232,-0.864,0.439,128.418,-134.095,167.541,
00:00:31:383,-0.122,-1.01,0.385,249.206,-103.943,150.085,
00:00:31:400,-0.135,-1.021,0.16,218.322,-16.968,110.962,
00:00:31:417,-0.103,-1.156,0.102,110.107,94.299,35.339,
00:00:31:433,-0.16,-1.078,0.139,12.634,196.289,-25.635,
00:00:31:450,-0.24,-0.922,0.374,-64.331,239.563,-55.176,
00:00:31:467,-0.196,-0.913,0.627,2.624,245.178,-108.033,
00:00:31:483,-0.175,-1.022,0.386,41.565,288.269,-205.994,
00:00:31:500,-0.214,-1.02,0.433,10.498,295.227,-232.911,
00:00:31:517,-0.188,-0.953,0.498,-130.188,298.828,-253.418,
00:00:31:533,-0.27,-0.792,0.592,-122.742,293.213,-235.413,
00:00:31:550,-0.301,-0.615,0.696,78.552,264.953,-217.164,
00:00:31:567,-0.3,-0.747,0.729,166.015,203.979,-161.255,
00:00:31:583,-0.355,-0.531,0.866,139.587,106.689,-88.623,
00:00:31:600,-0.418,-0.57,0.958,178.283,-35.95,-22.522,
00:00:31:617,-0.445,-0.603,0.929,73.852,-190.247,33.691,
00:00:31:633,-0.334,-0.633,0.893,5.798,-293.58,42.236,
00:00:31:650,-0.291,-0.921,0.515,-124.085,-270.874,9.338,
00:00:31:667,-0.246,-0.9,0.465,-178.101,-228.638,-7.447,
00:00:31:683,-0.26,-0.915,0.433,-171.692,-200.379,-16.297,
00:00:31:700,-0.238,-0.845,0.484,-134.339,-185.242,2.868,
00:00:31:717,-0.241,-0.853,0.567,-97.168,-177.063,24.902,
00:00:31:733,-0.253,-0.766,0.562,-46.204,-192.261,48.95,
00:00:31:750,-0.341,-0.834,0.632,-45.044,-242.188,90.759,
00:00:31:767,-0.236,-0.453,0.778,119.934,-300.415,132.934,
00:00:31:783,-0.279,-0.933,0.611,85.083,-305.909,114.563,
00:00:31:800,-0.297,-0.802,0.528,-11.597,-341.553,143.31,
00:00:31:817,-0.079,-0.682,0.415,-278.382,-280.274,141.235,
00:00:31:833,-0.153,-0.984,0.31,-443.238,-188.416,96.984,
00:00:31:850,-0.193,-1.017,0.376,-411.255,-123.047,69.03,
00:00:31:867,-0.177,-1,0.392,-232.727,-28.138,26.123,
00:00:31:883,-0.088,-1.11,0.24,-25.208,100.341,-21.241,
00:00:31:900,-0.184,-1.091,0.161,126.587,190.063,-55.237,
00:00:31:917,-0.173,-0.991,0.398,65.368,223.877,-93.323,
00:00:31:933,-0.137,-1.038,0.415,33.935,257.568,-151.856,
00:00:31:950,-0.16,-1.029,0.376,55.603,289.795,-194.764,
00:00:31:967,-0.178,-1.011,0.427,95.703,314.026,-206.91,
00:00:31:983,-0.17,-0.911,0.436,145.019,351.623,-242.859,
00:00:32:0,-0.194,-0.701,0.489,243.652,369.812,-226.136,
00:00:32:17,-0.207,-0.903,0.591,331.054,383.911,-237,
00:00:32:33,-0.267,-0.6,0.716,203.125,344.787,-175.477,
00:00:32:50,-0.34,-0.749,0.863,345.398,276.672,-148.804,
00:00:32:67,-0.405,-0.686,0.827,162.963,188.171,-85.816,
00:00:32:83,-0.469,-0.36,0.916,174.926,76.782,-15.748,
00:00:32:100,-0.459,-0.655,1.002,80.261,-67.994,38.024,
00:00:32:117,-0.411,-0.516,1.028,21.789,-183.838,50.903,
00:00:32:133,-0.28,-0.927,0.782,-65.247,-213.501,21.545,
00:00:32:150,-0.269,-0.957,0.517,-166.382,-191.834,6.408,
00:00:32:167,-0.253,-0.936,0.398,-222.413,-154.664,-15.32,
00:00:32:183,-0.222,-0.927,0.492,-194.336,-156.128,-8.24,
00:00:32:200,-0.216,-0.83,0.53,-74.036,-153.687,7.873,
00:00:32:217,-0.195,-1.013,0.568,-90.027,-162.171,17.7,
00:00:32:233,-0.173,-0.838,0.489,-59.876,-149.537,25.695,
00:00:32:250,-0.281,-0.814,0.457,24.536,-144.227,44.86,grateLH
00:00:32:267,-0.184,-0.856,0.46,113.281,-111.39,34.973,
00:00:32:283,-0.277,-0.776,0.233,247.375,-25.635,41.565,
00:00:32:300,-0.216,-0.882,0.399,224.792,16.113,34.729,
00:00:32:317,-0.212,-0.836,0.422,84.228,56.64,24.353,
00:00:32:333,-0.235,-0.865,0.411,79.895,85.815,13.794,
00:00:32:350,-0.232,-0.948,0.426,127.868,98.022,8.85,
00:00:32:367,-0.241,-0.976,0.433,140.38,101.318,2.075,
00:00:32:383,-0.261,-0.997,0.461,90.82,103.698,-9.4,
00:00:32:400,-0.257,-0.965,0.562,-41.504,93.689,-34.119,
00:00:32:417,-0.23,-0.904,0.675,-127.381,78.002,-71.778,
00:00:32:433,-0.167,-1.072,0.321,-23.682,250.671,-246.46,
00:00:32:450,-0.15,-0.886,0.392,-201.966,298.401,-246.521,
00:00:32:467,-0.207,-0.86,0.422,-175.171,351.989,-287.781,
00:00:32:483,-0.31,-0.825,0.424,-81.971,367.675,-278.992,
00:00:32:500,-0.322,-0.711,0.604,-83.985,301.452,-210.144,
00:00:32:517,-0.424,-0.636,0.648,-68.36,228.027,-174.012,
00:00:32:533,-0.485,-0.478,0.686,-57.251,97.595,-66.773,
00:00:32:550,-0.416,-0.515,0.857,-182.068,-44.312,17.7,
00:00:32:567,-0.461,-0.404,1.006,-123.719,-181.946,78.064,
00:00:32:583,-0.275,-0.786,0.921,-7.508,-236.512,71.472,
00:00:32:600,-0.328,-0.807,0.662,126.22,-218.384,74.157,
00:00:32:617,-0.311,-0.976,0.541,142.944,-204.529,39.123,
00:00:32:633,-0.285,-0.788,0.49,10.131,-169.556,47.424,
00:00:32:650,-0.255,-0.906,0.452,-104.126,-127.869,32.409,
00:00:32:667,-0.332,-0.827,0.449,-182.496,-104.981,42.358,
00:00:32:683,-0.377,-0.813,0.59,-216.797,-127.137,61.34,
00:00:32:700,-0.273,-0.845,0.631,-229.554,-137.94,50.903,
00:00:32:717,-0.379,-0.723,0.398,-123.841,-100.586,87.097,
00:00:32:733,-0.277,-1.005,0.39,-35.645,-64.331,44.982,
00:00:32:750,-0.262,-0.91,0.382,-141.907,-48.523,20.324,
00:00:32:767,-0.235,-0.791,0.501,-131.958,-32.593,3.356,
00:00:32:783,-0.271,-0.818,0.607,-49.866,-14.832,4.089,
00:00:32:800,-0.294,-0.821,0.61,34.423,-21.424,18.371,
00:00:32:817,-0.279,-0.738,0.716,93.261,-69.336,34.668,
00:00:32:833,-0.31,-0.756,0.67,149.902,-104.981,62.866,
00:00:32:850,-0.268,-0.797,0.738,153.198,-153.382,68.786,
00:00:32:867,-0.322,-0.779,0.7,185.791,-175.721,95.703,
00:00:32:883,-0.233,-0.832,0.669,190.673,-178.406,86.12,
00:00:32:900,-0.307,-0.832,0.631,85.876,-178.223,109.558,
00:00:32:917,-0.177,-0.893,0.664,95.886,-159.607,100.769,
00:00:32:933,-0.271,-0.903,0.55,141.235,-125.428,110.595,
00:00:32:950,-0.094,-0.942,0.587,184.753,-121.399,100.586,
00:00:32:967,-0.105,-1.064,0.379,137.817,-51.209,49.682,
00:00:32:983,-0.124,-1.151,0.197,50.17,18.859,-3.113,
00:00:33:0,-0.183,-1.047,0.222,-167.847,73.059,-21.18,
00:00:33:17,-0.238,-0.869,0.493,-278.26,75.744,-30.701,
00:00:33:33,-0.198,-0.888,0.581,-146.058,83.679,-65.796,
00:00:33:50,-0.195,-0.959,0.454,-0.428,109.497,-80.323,
00:00:33:67,-0.177,-1.014,0.342,111.45,142.212,-122.62,
00:00:33:83,-0.188,-1,0.358,4.76,171.63,-142.395,
00:00:33:100,-0.189,-0.973,0.424,-109.192,202.087,-190.552,
00:00:33:117,-0.251,-0.976,0.374,-179.322,236.511,-207.459,
00:00:33:133,-0.277,-0.847,0.461,-127.808,252.685,-227.601,
00:00:33:150,-0.334,-0.707,0.574,-131.592,242.248,-196.289,
00:00:33:167,-0.363,-0.658,0.644,-58.472,199.035,-151.49,
00:00:33:183,-0.364,-0.832,0.654,81.726,143.921,-123.414,
00:00:33:200,-0.403,-0.528,0.73,-27.832,78.674,-72.571,
00:00:33:217,-0.368,-0.734,0.735,-227.539,16.052,-54.383,
00:00:33:233,-0.463,-0.47,0.784,-221.314,-39.368,-15.442,
00:00:33:250,-0.435,-0.645,0.829,-223.023,-83.008,1.709,
00:00:33:267,-0.481,-0.531,0.892,-103.15,-121.46,40.893,
00:00:33:283,-0.414,-0.65,0.801,121.215,-138.977,37.414,
00:00:33:300,-0.327,-0.928,0.556,261.901,-129.7,7.324,
00:00:33:317,-0.292,-0.92,0.419,132.995,-125.672,-21.424,
00:00:33:334,-0.283,-0.888,0.429,-28.748,-125.245,-43.763,
00:00:33:350,-0.294,-0.862,0.474,-110.413,-131.775,-36.377,
00:00:33:367,-0.281,-0.879,0.532,-20.142,-155.274,-32.41,
00:00:33:384,-0.302,-0.868,0.546,45.532,-136.841,-32.105,
00:00:33:400,-0.336,-0.835,0.513,85.693,-134.583,-30.152,
00:00:33:417,-0.322,-0.761,0.511,118.225,-123.291,-25.025,
00:00:33:434,-0.344,-0.726,0.512,126.648,-94.849,-22.522,
00:00:33:450,-0.383,-0.708,0.52,109.619,-74.891,-14.893,
00:00:33:467,-0.351,-0.767,0.608,0.915,-69.642,-13.001,
00:00:33:484,-0.314,-0.793,0.609,-33.143,-56.824,-16.663,
00:00:33:500,-0.376,-0.758,0.516,-13.794,-42.725,-2.808,
00:00:33:517,-0.324,-0.806,0.581,-0.855,-60.303,9.826,
00:00:33:534,-0.385,-0.689,0.709,-91.37,-121.277,51.208,
00:00:33:550,-0.355,-0.817,0.508,-28.809,-116.15,47.973,
00:00:33:567,-0.315,-0.74,0.812,-165.223,-211.853,74.096,
00:00:33:584,-0.365,-0.825,0.598,-165.345,-192.872,86.608,
00:00:33:600,-0.245,-0.857,0.673,-94.727,-208.191,82.824,
00:00:33:617,-0.348,-0.828,0.457,17.761,-152.344,80.749,
00:00:33:634,-0.306,-0.692,0.732,86.364,-192.749,104.553,
00:00:33:650,-0.342,-0.914,0.495,70.495,-162.293,101.074,
00:00:33:667,-0.218,-0.797,0.554,2.807,-188.782,95.886,
00:00:33:684,-0.281,-0.922,0.421,-81.177,-143.311,67.871,
00:00:33:700,-0.329,-0.84,0.524,-157.837,-134.644,63.903,
00:00:33:717,-0.259,-0.792,0.542,-141.968,-100.953,47.973,
00:00:33:734,-0.252,-0.864,0.504,-204.895,-53.101,27.648,
00:00:33:750,-0.303,-0.75,0.509,-92.591,-0.123,17.639,
00:00:33:767,-0.266,-0.736,0.594,39.428,21.789,23.437,
00:00:33:784,-0.236,-0.841,0.593,127.441,32.592,18.31,
00:00:33:800,-0.313,-0.813,0.526,195.19,39.489,31.005,
00:00:33:817,-0.293,-0.839,0.527,222.473,30.822,29.174,
00:00:33:834,-0.299,-0.912,0.53,160.522,21.789,25.94,
00:00:33:850,-0.261,-0.942,0.537,63.293,13.671,4.821,
00:00:33:867,-0.234,-0.943,0.548,-27.894,16.174,-12.146,
00:00:33:884,-0.233,-0.881,0.54,-29.786,37.963,-29.114,
00:00:33:900,-0.25,-0.832,0.497,105.774,77.27,-54.261,
00:00:33:917,-0.248,-0.819,0.453,274.231,120.727,-76.111,
00:00:33:934,-0.273,-1.051,0.381,325.378,158.142,-118.531,
00:00:33:950,-0.271,-1.059,0.346,256.225,172.18,-136.231,
00:00:33:967,-0.264,-0.985,0.345,171.936,185.302,-160.767,
00:00:33:984,-0.26,-0.959,0.392,96.801,192.199,-192.933,
00:00:34:0,-0.265,-0.912,0.448,116.76,197.204,-219.117,
00:00:34:17,-0.28,-0.871,0.453,212.89,216.491,-244.751,
00:00:34:34,-0.319,-0.949,0.421,280.273,234.436,-276.123,
00:00:34:50,-0.318,-1.006,0.434,251.831,239.074,-291.016,
00:00:34:67,-0.329,-0.89,0.464,217.895,250.366,-293.213,
00:00:34:84,-0.348,-0.867,0.479,166.992,272.644,-303.406,
00:00:34:100,-0.375,-0.815,0.486,125.671,295.105,-307.557,
00:00:34:117,-0.394,-0.807,0.461,129.821,306.579,-311.89,
00:00:34:134,-0.424,-0.881,0.465,113.342,300.232,-306.702,
00:00:34:150,-0.419,-0.825,0.503,91.247,272.155,-283.57,
00:00:34:167,-0.437,-0.744,0.576,65.124,249.755,-257.569,
00:00:34:184,-0.457,-0.688,0.598,55.358,213.379,-227.906,
00:00:34:200,-0.336,-0.87,0.596,-4.151,139.282,-180.359,
00:00:34:217,-0.569,-0.166,0.738,-319.642,6.53,-48.401,
00:00:34:234,-0.412,-0.656,0.866,-220.276,-76.6,-39.856,
00:00:34:250,-0.401,-0.694,0.891,-145.508,-141.419,12.146,
00:00:34:267,-0.32,-0.61,0.653,-59.082,-147.706,54.382,
00:00:34:284,-0.28,-0.85,0.417,-21.485,-127.686,63.72,
00:00:34:300,-0.332,-0.863,0.36,4.211,-98.938,83.557,
00:00:34:317,-0.289,-0.754,0.375,101.562,-55.909,95.52,
00:00:34:334,-0.327,-0.863,0.394,95.398,-35.157,89.904,
00:00:34:350,-0.36,-0.897,0.476,48.217,-50.782,86.303,
00:00:34:367,-0.404,-0.894,0.523,-13.611,-77.881,74.34,
00:00:34:384,-0.42,-0.805,0.493,-51.209,-81.849,60.669,
00:00:34:400,-0.44,-0.787,0.458,-27.161,-68.421,42.663,
00:00:34:417,-0.433,-0.76,0.48,-3.479,-53.65,32.47,
00:00:34:434,-0.414,-0.778,0.49,-21.668,-44.068,34.118,
00:00:34:450,-0.37,-0.817,0.506,-36.988,-44.617,38.452,
00:00:34:467,-0.347,-0.885,0.508,-77.82,-33.02,33.63,
00:00:34:484,-0.333,-0.912,0.522,-92.957,-37.171,30.822,
00:00:34:500,-0.331,-0.861,0.547,-66.59,-41.199,33.813,
00:00:34:517,-0.336,-0.863,0.535,-59.082,-33.997,33.142,
00:00:34:534,-0.343,-0.832,0.558,-85.022,-35.889,38.818,
00:00:34:550,-0.325,-0.818,0.544,-124.451,-29.786,33.386,
00:00:34:567,-0.315,-0.815,0.494,-107.727,-18.311,28.076,
00:00:34:584,-0.33,-0.764,0.495,-21.729,1.77,39.856,
00:00:34:600,-0.311,-0.86,0.496,23.803,10.07,44.311,
00:00:34:617,-0.319,-0.854,0.512,-29.053,5.737,49.499,
00:00:34:634,-0.333,-0.809,0.57,-101.868,-6.348,54.199,
00:00:34:650,-0.359,-0.797,0.584,-117.31,-11.658,54.748,
00:00:34:667,-0.37,-0.791,0.607,-40.711,-18.616,66.894,
00:00:34:684,-0.349,-0.801,0.564,0.854,-28.565,71.96,
00:00:34:700,-0.362,-0.792,0.568,4.821,-32.532,82.519,
00:00:34:717,-0.337,-0.76,0.571,-16.602,-53.223,98.144,
00:00:34:734,-0.291,-0.887,0.577,-66.346,-62.134,83.374,
00:00:34:750,-0.354,-0.82,0.58,-103.699,-88.318,99.121,
00:00:34:767,-0.339,-0.734,0.754,-75.623,-147.034,118.469,
00:00:34:784,-0.3,-0.855,0.725,-65.064,-180.542,106.567,
00:00:34:800,-0.391,-0.799,0.556,-95.459,-179.566,114.013,
00:00:34:817,-0.279,-0.765,0.645,-118.164,-188.233,107.666,
00:00:34:834,-0.305,-0.899,0.511,-169.373,-141.724,94.97,
