TIMECODE,ACC_X,ACC_Y,ACC_Z,GYR_X,GYR_Y,GYR_Z,TAG
00:00:00:0,-0.359,0.297,0.88,-288.636,-71.106,-30.335,
00:00:00:16,-0.365,0.314,0.926,-158.753,-39.246,-35.584,
00:00:00:33,-0.367,0.271,0.962,-50.171,2.807,-21.363,
00:00:00:50,-0.365,0.247,0.95,31.005,31.189,-20.508,
00:00:00:66,-0.333,0.165,0.968,-29.297,57.495,-4.029,
00:00:00:83,-0.33,0.193,0.939,-224.976,21.484,-4.456,
00:00:00:100,-0.343,0.192,0.9,-407.044,25.329,5.371,
00:00:00:116,-0.323,0.197,0.882,-636.231,10.315,6.469,
00:00:00:133,-0.314,0.285,0.878,-804.139,-25.696,-1.343,
00:00:00:150,-0.316,0.382,0.888,-874.939,-45.594,-10.132,
00:00:00:166,-0.307,0.371,0.846,-977.967,-70.252,-4.883,
00:00:00:183,-0.32,0.367,0.786,-1188.233,-102.723,-0.367,
00:00:00:200,-0.321,0.397,0.733,-1487.183,-152.466,-0.306,
00:00:00:216,-0.331,0.547,0.708,-1647.217,-180.848,-13.55,
00:00:00:233,-0.33,0.649,0.706,-1651.978,-186.768,-8.118,
00:00:00:250,-0.353,0.749,0.619,-1475.159,-152.405,-20.203,
00:00:00:266,-0.352,0.717,0.571,-1396.546,-152.039,-12.513,
00:00:00:283,-0.39,0.757,0.477,-1378.479,-143.433,-25.025,
00:00:00:300,-0.397,0.749,0.426,-1465.271,-161.683,-42.298,
00:00:00:316,-0.404,0.774,0.502,-1482.239,-168.335,-60.975,
00:00:00:333,-0.412,0.765,0.48,-1354.554,-146.18,-94.422,
00:00:00:350,-0.406,0.83,0.496,-1227.845,-119.08,-48.706,
00:00:00:366,-0.368,0.904,0.418,-983.643,-72.51,-69.703,
00:00:00:383,-0.401,0.954,0.357,-746.705,-75.318,-71.351,
00:00:00:400,-0.432,0.982,0.311,-527.894,-55.909,-61.768,
00:00:00:416,-0.429,1.014,0.262,-356.141,-54.932,-53.284,
00:00:00:433,-0.453,0.993,0.281,-158.204,-39.429,-39.185,
00:00:00:450,-0.399,0.859,0.296,-52.735,-47.913,-17.884,
00:00:00:466,-0.41,0.793,0.261,-30.64,-18.433,-3.54,
00:00:00:483,-0.408,0.849,0.239,-89.844,-22.522,15.075,
00:00:00:500,-0.439,0.89,0.253,-125.855,-16.114,29.663,
00:00:00:516,-0.415,0.886,0.246,-120.301,7.263,40.405,
00:00:00:533,-0.401,0.898,0.228,-128.174,23.498,49.926,
00:00:00:550,-0.385,0.887,0.215,-144.715,38.086,59.143,
00:00:00:566,-0.383,0.846,0.216,-169.251,43.579,61.584,
00:00:00:583,-0.385,0.82,0.206,-212.952,39.184,64.086,
00:00:00:600,-0.401,0.851,0.179,-244.629,39.001,63.415,
00:00:00:616,-0.433,0.807,0.147,-212.586,22.277,45.532,
00:00:00:633,-0.443,0.811,0.164,-174.805,21.972,43.701,
00:00:00:650,-0.478,0.817,0.157,-122.071,32.165,23.132,
00:00:00:666,-0.513,0.852,0.144,-35.096,37.109,-9.4,
00:00:00:683,-0.531,0.841,0.143,71.228,55.908,-32.898,
00:00:00:700,-0.509,0.844,0.148,175.659,81.909,-49.134,
00:00:00:716,-0.46,0.776,0.126,259.704,105.224,-73.121,
00:00:00:733,-0.45,0.866,0.182,246.093,109.863,-77.271,
00:00:00:750,-0.413,0.793,0.218,242.614,112.976,-85.572,
00:00:00:766,-0.446,0.802,0.249,114.38,104.553,-83.924,
00:00:00:783,-0.427,0.856,0.252,-10.865,100.891,-87.281,
00:00:00:800,-0.435,0.869,0.234,-118.836,76.294,-86.67,
00:00:00:816,-0.426,0.873,0.212,-150.391,80.2,-89.966,
00:00:00:833,-0.385,0.877,0.197,-182.679,64.392,-97.107,
00:00:00:850,-0.385,0.833,0.205,-324.402,53.039,-94.91,
00:00:00:866,-0.401,0.915,0.092,-767.212,10.253,-95.581,
00:00:00:883,-0.414,0.921,0.057,-696.961,34.179,-105.286,
00:00:00:900,-0.364,0.888,0.028,-574.891,45.471,-124.451,
00:00:00:916,-0.42,0.87,0.031,-412.232,53.588,-147.4,
00:00:00:933,-0.399,0.869,0.031,-270.447,78.43,-152.527,
00:00:00:950,-0.403,0.883,0.011,-210.45,62.561,-165.406,
00:00:00:966,-0.411,0.909,0.048,-131.897,72.631,-170.289,
00:00:00:983,-0.367,0.884,0.035,-96.985,71.655,-169.251,
00:00:01:0,-0.355,0.895,0.057,-120.85,47.058,-180.848,
00:00:01:16,-0.35,0.895,0.062,-103.15,40.954,-184.815,
00:00:01:33,-0.33,0.888,0.045,-109.436,23.315,-187.317,
00:00:01:50,-0.314,0.976,0.045,31.189,-1.282,-182.129,
00:00:01:66,-0.294,0.965,0.04,98.632,2.502,-172.242,
00:00:01:83,-0.289,0.959,0.028,117.126,2.929,-162.659,
00:00:01:100,-0.287,0.959,0.027,119.934,1.953,-149.231,
00:00:01:116,-0.297,0.949,0.008,87.097,-7.569,-135.682,
00:00:01:133,-0.258,0.901,0.017,30.639,-39.429,-52.491,
00:00:01:150,-0.296,0.925,0.009,-46.326,-46.998,-45.777,
00:00:01:166,-0.305,0.945,0.026,-80.262,-47.669,-38.575,
00:00:01:183,-0.302,0.946,0.03,-71.351,-43.213,-33.265,
00:00:01:200,-0.302,0.927,0.026,-54.261,-34.913,-36.316,
00:00:01:216,-0.297,0.9,0.008,-44.312,-25.574,-40.223,
00:00:01:233,-0.286,0.859,-0.023,-66.834,-21.729,-51.026,
00:00:01:250,-0.295,0.856,-0.026,-97.779,-24.903,-68.787,
00:00:01:266,-0.298,0.894,-0.009,-134.949,-28.199,-84.229,
00:00:01:283,-0.255,0.912,-0.022,-234.925,-19.043,-117.554,
00:00:01:300,-0.264,0.913,-0.026,-237.671,-8.545,-129.761,
00:00:01:316,-0.258,0.916,-0.041,-240.296,-5.982,-146.729,
00:00:01:333,-0.258,0.918,-0.043,-251.465,-9.827,-158.753,
00:00:01:350,-0.27,0.907,-0.072,-278.626,-11.414,-168.58,
00:00:01:366,-0.26,0.901,-0.15,-336.06,-8.606,-172.547,
00:00:01:383,-0.259,0.917,-0.185,-355.896,-11.719,-173.951,
00:00:01:400,-0.253,0.94,-0.151,-382.325,-30.579,-166.199,
00:00:01:416,-0.277,1.021,-0.112,-354.798,-26.734,-144.715,
00:00:01:433,-0.255,1.035,-0.096,-242.493,-13.916,-119.263,
00:00:01:450,-0.247,1.035,-0.107,-88.807,-12.207,-100.525,
00:00:01:466,-0.235,0.958,-0.183,183.044,25.756,-50.049,
00:00:01:483,-0.21,0.904,-0.213,160.461,28.808,-28.443,
00:00:01:500,-0.2,0.925,-0.185,100.891,4.15,-39.49,
00:00:01:516,-0.186,0.931,-0.145,103.332,-5.494,-49.439,
00:00:01:533,-0.166,0.891,-0.102,113.586,-3.907,-65.735,
00:00:01:550,-0.188,0.941,-0.073,384.033,42.785,-106.873,
00:00:01:566,-0.199,0.937,-0.067,442.443,59.448,-123.352,
00:00:01:583,-0.207,0.956,-0.066,392.273,57.067,-117.493,
00:00:01:600,-0.198,0.965,-0.057,318.237,57.983,-101.075,
00:00:01:616,-0.195,0.953,-0.032,221.008,50.598,-89.051,
00:00:01:633,-0.201,0.969,-0.017,140.014,43.579,-66.59,
00:00:01:650,-0.195,0.962,0.009,84.594,29.48,-45.594,
00:00:01:666,-0.2,0.966,0.016,108.215,33.386,-41.81,
00:00:01:683,-0.18,0.96,0.016,159.973,36.499,-40.101,
00:00:01:700,-0.183,0.981,-0.002,220.642,36.865,-52.918,
00:00:01:716,-0.187,0.958,0.004,255.676,34.851,-48.035,
00:00:01:733,-0.196,0.931,0.041,263,26.794,-65.125,
00:00:01:750,-0.197,0.933,0.034,175.842,21.423,-52.308,
00:00:01:766,-0.195,0.956,0.056,96.252,41.015,-32.41,
00:00:01:783,-0.208,0.993,0.056,90.698,42.846,-44.19,
00:00:01:800,-0.181,0.946,0.055,87.707,41.809,-34.974,
00:00:01:816,-0.173,0.924,0.084,75.5,38.879,-38.575,
00:00:01:833,-0.16,0.961,0.095,80.81,38.147,-38.941,
00:00:01:850,-0.163,0.916,0.071,174.987,57.861,-57.618,
00:00:01:866,-0.192,0.925,0.128,136.291,13.061,-69.703,
00:00:01:883,-0.197,0.943,0.198,321.411,13.183,-85.022,
00:00:01:900,-0.165,0.914,0.127,350.952,-40.101,-101.319,
00:00:01:916,-0.19,1.085,-0.015,379.089,-49.378,-141.663,
00:00:01:933,-0.235,1.099,0.099,385.315,9.826,-77.271,
00:00:01:950,-0.123,0.93,0.206,394.287,24.841,4.821,
00:00:01:966,-0.095,0.838,0.242,301.88,-18.006,-37.72,
00:00:01:983,-0.131,0.956,0.241,195.861,-10.132,-94.727,
00:00:02:0,-0.116,1.029,0.191,175.537,1.525,-82.886,
00:00:02:16,-0.064,1.062,0.169,177.185,2.929,-77.454,
00:00:02:33,-0.091,1,0.165,241.638,-18.677,-67.505,
00:00:02:50,-0.154,0.92,0.27,246.582,-43.457,-2.259,
00:00:02:66,-0.163,0.885,0.301,176.635,-46.998,-25.452,
00:00:02:83,-0.182,0.886,0.313,151.245,-47.974,-62.867,
00:00:02:100,-0.146,0.95,0.316,155.883,-39.185,-82.581,
00:00:02:116,-0.129,0.967,0.277,173.523,-55.42,-100.464,
00:00:02:133,-0.14,0.881,0.346,125.244,-132.752,-52.918,
00:00:02:150,-0.163,0.875,0.323,65.673,-122.376,-47.73,
00:00:02:166,-0.176,0.87,0.279,-3.357,-112,-72.327,
00:00:02:183,-0.144,0.995,0.304,34.545,-103.76,-77.698,
00:00:02:200,-0.131,0.948,0.349,66.528,-100.037,-85.633,
00:00:02:216,-0.131,0.864,0.375,111.145,-68.238,-93.018,
00:00:02:233,-0.14,0.851,0.345,103.21,-52.491,-85.206,
00:00:02:250,-0.142,0.91,0.283,42.114,-15.076,-80.628,
00:00:02:266,-0.138,0.942,0.307,61.767,-30.213,-67.627,
00:00:02:283,-0.219,0.932,0.31,97.229,-8.851,-67.688,
00:00:02:300,-0.145,0.921,0.34,161.621,48.767,-91.553,
00:00:02:316,-0.093,0.884,0.32,144.897,50.231,-106.446,
00:00:02:333,-0.103,0.901,0.365,121.032,-2.137,-104.371,
00:00:02:350,-0.113,0.901,0.364,150.512,5.371,-75.623,
00:00:02:366,-0.095,0.897,0.38,171.63,-0.245,-50.477,
00:00:02:383,-0.116,0.808,0.388,119.323,-7.813,-31.8,
00:00:02:400,-0.095,0.897,0.346,58.349,-48.34,-25.696,
00:00:02:416,-0.15,0.918,0.37,48.706,-48.706,-15.076,
00:00:02:433,-0.102,0.882,0.359,31.738,-22.461,-25.33,
00:00:02:450,-0.109,0.86,0.408,-3.052,-40.589,-39.856,
00:00:02:466,-0.102,0.874,0.385,-40.589,-31.739,-32.471,
00:00:02:483,-0.1,0.885,0.402,-49.5,-47.12,-31.189,
00:00:02:500,-0.11,0.882,0.399,-37.72,-47.852,-18.677,
00:00:02:516,-0.142,0.877,0.369,-79.407,-53.528,16.174,
00:00:02:533,-0.141,0.887,0.347,-106.385,-46.326,18.188,
00:00:02:550,-0.143,0.885,0.342,-128.846,-38.88,11.962,
00:00:02:566,-0.147,0.911,0.347,-135.804,-13.916,-15.198,
00:00:02:583,-0.135,0.924,0.333,-96.314,7.995,-23.438,
00:00:02:600,-0.119,0.953,0.313,-19.532,13.916,-18.738,
00:00:02:616,-0.12,0.948,0.313,57.983,19.714,-4.761,
00:00:02:633,-0.116,0.944,0.331,124.817,35.827,23.681,
00:00:02:650,-0.121,0.881,0.335,127.685,29.785,56.457,
00:00:02:666,-0.141,0.859,0.328,112.304,24.353,73.425,
00:00:02:683,-0.148,0.894,0.364,56.518,17.15,63.476,
00:00:02:700,-0.15,0.93,0.322,68.969,15.136,67.382,
00:00:02:716,-0.139,0.912,0.378,99.548,12.39,43.273,
00:00:02:733,-0.129,0.87,0.388,67.016,-22.339,26.428,
00:00:02:750,-0.156,0.928,0.346,90.026,-55.664,17.395,
00:00:02:766,-0.148,0.92,0.386,138.733,-24.903,1.464,
00:00:02:783,-0.171,0.799,0.378,70.617,17.578,16.113,
00:00:02:800,-0.119,0.857,0.393,-20.874,-14.71,1.159,
00:00:02:816,-0.122,0.858,0.403,-90.271,-51.453,-21.485,
00:00:02:833,-0.148,0.907,0.364,-140.076,-23.316,-26.734,
00:00:02:850,-0.18,0.918,0.358,-106.751,-15.809,-32.105,
00:00:02:866,-0.154,0.912,0.352,-73.426,6.469,-80.079,
00:00:02:883,-0.085,0.95,0.334,-37.354,54.016,-111.817,
00:00:02:900,-0.163,0.959,0.377,2.563,-1.648,-122.132,
00:00:02:916,-0.094,0.943,0.336,75.012,86.364,-123.719,
00:00:02:933,-0.122,0.928,0.345,125.61,95.336,-102.723,
00:00:02:950,-0.101,0.923,0.328,153.869,113.769,-100.831,
00:00:02:966,-0.058,0.909,0.367,164.734,95.153,-95.826,
00:00:02:983,-0.029,0.903,0.375,150.39,70.19,-101.563,
00:00:03:0,-0.018,0.922,0.42,165.283,49.438,-101.563,
00:00:03:16,-0.02,0.973,0.443,186.096,32.775,-91.492,
00:00:03:33,-0.019,0.997,0.414,232.116,20.935,-88.623,
00:00:03:50,-0.051,0.965,0.409,330.139,14.587,-72.144,
00:00:03:66,-0.03,0.879,0.431,381.53,5.737,-78.125,
00:00:03:83,-0.006,0.879,0.442,351.074,-16.663,-66.102,
00:00:03:100,-0.019,0.896,0.461,324.035,-50.721,-57.251,
00:00:03:116,-0.05,0.888,0.479,353.271,-44.8,-48.401,
00:00:03:133,-0.023,0.869,0.504,422.973,-46.936,-38.88,
00:00:03:150,-0.038,0.896,0.485,478.637,-65.491,-38.025,
00:00:03:166,-0.072,0.952,0.485,547.79,-88.868,-29.664,
00:00:03:183,-0.101,0.971,0.514,670.715,-84.717,-0.306,
00:00:03:200,-0.136,0.981,0.543,728.027,-66.224,35.095,
00:00:03:216,-0.172,0.969,0.619,802.917,-57.74,73.059,
00:00:03:233,-0.22,0.886,0.675,834.411,-52.308,120.117,
00:00:03:250,-0.263,0.85,0.701,782.043,-48.035,159.057,
00:00:03:266,-0.328,0.797,0.69,751.709,-22.706,201.721,
00:00:03:283,-0.335,0.803,0.721,734.13,4.638,236.938,
00:00:03:300,-0.347,0.765,0.734,767.395,36.01,280.334,
00:00:03:316,-0.338,0.673,0.751,792.236,69.091,321.167,
00:00:03:333,-0.327,0.576,0.735,740.539,88.989,345.886,
00:00:03:350,-0.315,0.611,0.755,706.421,87.768,361.755,
00:00:03:366,-0.317,0.653,0.797,788.147,92.834,386.596,
00:00:03:383,-0.308,0.557,0.748,840.637,131.408,392.151,
00:00:03:400,-0.298,0.455,0.704,852.661,132.385,392.883,
00:00:03:416,-0.282,0.387,0.717,852.478,140.747,404.602,
00:00:03:433,-0.24,0.297,0.759,736.084,142.212,429.87,
00:00:03:450,-0.206,0.255,0.822,545.593,119.384,425.415,
00:00:03:466,-0.201,0.222,0.794,422.668,113.464,421.081,
00:00:03:483,-0.183,0.195,0.78,270.446,101.196,406.982,
00:00:03:500,-0.159,0.191,0.765,173.523,82.824,382.934,
00:00:03:516,-0.155,0.241,0.813,149.536,48.706,358.825,
00:00:03:533,-0.145,0.218,0.851,156.433,35.339,316.833,
00:00:03:550,-0.146,0.163,0.857,126.159,14.404,269.409,
00:00:03:566,-0.15,0.225,0.844,76.11,-25.696,229.614,
00:00:03:583,-0.185,0.217,0.806,10.925,-40.589,196.716,
00:00:03:600,-0.176,0.26,0.782,-58.655,-55.848,158.386,
00:00:03:616,-0.201,0.294,0.792,-95.52,-75.562,128.967,
00:00:03:633,-0.216,0.334,0.817,-108.643,-80.14,104.736,
00:00:03:650,-0.243,0.41,0.839,-87.098,-97.718,70.129,
00:00:03:666,-0.266,0.416,0.868,-31.678,-86.06,55.725,
00:00:03:683,-0.267,0.445,0.861,17.7,-79.773,31.005,
00:00:03:700,-0.289,0.415,0.872,83.862,-65.186,32.348,
00:00:03:716,-0.265,0.382,0.902,99.487,-39.551,29.846,
00:00:03:733,-0.259,0.375,0.903,110.168,-33.02,48.706,
00:00:03:750,-0.272,0.361,0.902,121.399,-29.358,71.228,
00:00:03:766,-0.284,0.317,0.933,121.765,-18.311,94.543,
00:00:03:783,-0.285,0.302,0.948,105.713,-5.921,105.407,
00:00:03:800,-0.282,0.319,0.961,106.445,6.408,115.295,
00:00:03:816,-0.274,0.282,0.951,120.544,32.226,120.91,
00:00:03:833,-0.251,0.253,0.944,118.835,43.029,122.863,
00:00:03:850,-0.24,0.297,0.946,91.552,34.24,115.051,
00:00:03:866,-0.247,0.261,0.944,107.36,37.109,106.445,
00:00:03:883,-0.261,0.25,0.938,107.299,40.527,93.383,
00:00:03:900,-0.263,0.249,0.941,91.613,45.166,76.416,
00:00:03:916,-0.261,0.227,0.93,65.246,44.067,55.847,
00:00:03:933,-0.265,0.247,0.944,40.588,38.757,30.09,
00:00:03:950,-0.253,0.216,0.922,60.73,53.283,-40.223,
00:00:03:966,-0.247,0.197,0.924,41.076,65.368,-60.242,
00:00:03:983,-0.242,0.158,0.936,-8.789,64.88,-85.083,
00:00:04:0,-0.19,0.202,0.98,-59.998,67.993,-105.408,
00:00:04:16,-0.18,0.182,1.048,-36.072,108.032,-121.094,
00:00:04:33,-0.076,0.211,1.164,102.539,175.232,-145.203,
00:00:04:50,0.046,0.219,1.383,437.683,286.621,-173.89,
00:00:04:66,0.225,0.102,1.619,1014.465,472.717,-231.507,
00:00:04:83,0.423,-0.609,1.878,1695.312,716.308,-297.791,
00:00:04:100,0.664,-1.562,1.593,1999.694,1015.197,-440.552,
00:00:04:116,1.178,-2.598,1.026,1999.694,915.161,-644.043,
00:00:04:133,1.176,-3.047,0.376,1366.638,651.733,-1124.817,
00:00:04:150,0.93,-3.376,0.483,1325.195,1281.067,-1901.307,
00:00:04:166,2.022,-3.253,1.193,1499.206,1999.694,-2000,
00:00:04:183,1.946,-3.003,1.393,936.34,1999.694,-2000,
00:00:04:200,1.884,-2.037,0.171,15.808,1999.694,-2000,
00:00:04:216,1.932,-2.208,-1.323,-2000,1999.694,-2000,
00:00:04:233,3.999,-0.538,-0.737,-2000,1999.694,-2000,
00:00:04:250,3.999,2.935,0.311,-2000,1999.694,-2000,
00:00:04:266,3.999,3.998,0.735,-1967.286,1327.27,-2000,
00:00:04:283,3.999,3.065,-0.72,-2000,214.904,-2000,
00:00:04:300,1.895,3.815,-0.8,-2000,-1539.979,-1700.989,
00:00:04:316,0.224,3.332,-0.006,-2000,-1580.75,104.675,
00:00:04:333,1.021,2.946,0.103,-424.012,-861.634,1179.687,
00:00:04:350,1.075,3.119,-0.111,1372.985,-484.436,1833.252,
00:00:04:366,1.759,2.79,-0.29,1999.694,-281.128,1999.694,
00:00:04:383,1.944,2.141,-0.304,1682.251,-281.983,1999.694,
00:00:04:400,1.97,1.918,0.245,923.339,-615.967,1999.694,
00:00:04:416,1.534,1.196,0.285,515.808,-681.702,1999.694,
00:00:04:433,1.014,0.474,0.248,441.406,-658.875,1999.694,
00:00:04:450,0.615,-0.112,0.343,468.811,-552.002,1999.694,
00:00:04:466,0.503,-0.55,0.437,531.433,-445.008,1999.694,
00:00:04:483,0.494,-0.886,0.417,257.751,-436.463,1999.694,
00:00:04:500,0.707,-1.091,0.604,-157.349,-373.23,1999.694,
00:00:04:516,0.894,-1.259,0.744,-371.705,-375.245,1999.694,
00:00:04:533,0.832,-1.506,1.052,-407.593,-368.714,1999.694,
00:00:04:550,0.777,-1.641,1.219,-585.999,-329.773,1999.694,
00:00:04:566,0.632,-1.638,1.277,-777.588,-316.04,1999.694,
00:00:04:583,0.52,-1.725,1.345,-891.053,-262.513,1925.415,
00:00:04:600,0.399,-1.688,1.363,-1061.646,-235.901,1461.242,
00:00:04:616,0.197,-1.471,1.258,-1165.711,-190.918,1009.033,
00:00:04:633,0.063,-1.07,1.247,-1144.776,-133.118,604.797,
00:00:04:650,0.057,-0.604,1.356,-898.865,-67.444,250.488,
00:00:04:666,0.109,-0.207,1.476,-517.151,6.347,-59.51,
00:00:04:683,0.215,0.076,1.513,-242.615,38.513,-302.369,
00:00:04:700,0.23,0.247,1.383,-212.891,8.239,-483.948,
00:00:04:716,0.204,0.419,1.239,-262.391,11.962,-533.265,
00:00:04:733,0.354,0.541,1.063,-245.301,-20.142,-471.375,
00:00:04:750,0.342,0.579,1.038,-277.1,-205.933,-350.403,
00:00:04:766,0.16,0.65,1.125,-501.77,-323.853,-185.12,
00:00:04:783,0.053,0.574,1.086,-815.735,-408.753,-91.553,
00:00:04:800,-0.013,0.587,1.045,-994.69,-483.643,-25.33,
00:00:04:816,-0.181,0.619,0.878,-998.353,-466.614,-3.663,
00:00:04:833,-0.209,0.472,0.808,-931.702,-449.952,-21.119,
00:00:04:850,-0.205,0.586,0.732,-730.042,-434.327,-21.668,
00:00:04:866,-0.231,0.525,0.708,-490.845,-353.028,-40.284,
00:00:04:883,-0.24,0.504,0.702,-268.677,-319.764,-48.035,
00:00:04:900,-0.235,0.457,0.683,-44.251,-330.933,-41.871,
00:00:04:916,-0.307,0.481,0.774,111.45,-244.629,-105.408,
00:00:04:933,-0.294,0.429,0.729,219.726,-137.024,-119.812,
00:00:04:950,-0.277,0.442,0.685,305.969,-96.558,-162.537,
00:00:04:966,-0.284,0.435,0.686,386.352,-70.069,-190.003,
00:00:04:983,-0.265,0.432,0.732,406.311,-25.025,-186.158,
00:00:05:0,-0.256,0.424,0.791,383.911,-20.63,-220.765,
00:00:05:16,-0.245,0.398,0.825,335.815,-1.099,-221.741,
00:00:05:33,-0.264,0.455,0.827,305.236,23.01,-237.915,
00:00:05:50,-0.225,0.473,0.809,419.799,58.41,-265.32,
00:00:05:66,-0.204,0.369,0.811,450.866,50.17,-276.917,
00:00:05:83,-0.211,0.352,0.845,294.922,23.681,-260.621,
00:00:05:100,-0.178,0.422,0.931,170.959,16.723,-236.756,
00:00:05:116,-0.212,0.421,1.007,124.145,-3.846,-222.596,
00:00:05:133,-0.253,0.395,0.999,111.389,22.277,-208.802,
00:00:05:150,-0.235,0.443,0.971,153.137,43.64,-205.75,
00:00:05:166,-0.221,0.467,0.96,193.237,68.969,-199.463,
00:00:05:183,-0.228,0.388,0.976,235.534,54.016,-210.267,
00:00:05:200,-0.259,0.342,0.984,268.554,134.582,-209.961,
00:00:05:216,-0.162,0.246,0.925,246.093,86.914,-164.856,
00:00:05:233,-0.232,0.214,0.878,81.115,76.232,-140.564,
00:00:05:250,-0.247,0.334,0.892,-113.16,142.883,-121.033,
00:00:05:266,-0.151,0.443,0.879,-111.512,209.533,-113.282,
00:00:05:283,-0.056,0.493,0.901,-3.418,120.788,-79.407,
00:00:05:300,-0.073,0.541,0.992,103.149,99.243,-56.519,
00:00:05:316,-0.023,0.537,1.014,197.692,66.894,-29.297,breakEggRH
00:00:05:333,-0.043,0.494,1.005,257.812,19.592,-13.306,
00:00:05:350,-0.048,0.374,0.996,245.91,-11.658,-3.54,
00:00:05:366,-0.055,0.335,0.983,171.447,-49.012,10.315,
00:00:05:383,-0.076,0.352,1.01,115.966,-73.426,22.461,
00:00:05:400,-0.081,0.337,1.019,64.88,-82.093,31.738,
00:00:05:416,-0.085,0.329,0.987,36.804,-90.21,37.78,
00:00:05:433,-0.081,0.303,0.956,23.986,-89.173,48.339,
00:00:05:450,-0.069,0.294,0.97,-11.78,-109.864,50.17,
00:00:05:466,-0.098,0.304,0.944,-19.41,-101.502,61.706,
00:00:05:483,-0.098,0.243,0.886,-20.264,-80.994,62.072,
00:00:05:500,-0.103,0.227,0.837,-59.449,-68.36,64.331,
00:00:05:516,-0.12,0.24,0.81,-67.383,-52.918,71.472,
00:00:05:533,-0.131,0.239,0.838,-53.894,-34.546,70.251,
00:00:05:550,-0.146,0.279,0.854,-34.729,-9.888,60.363,
00:00:05:566,-0.16,0.263,0.869,-2.808,18.92,45.044,
00:00:05:583,-0.18,0.278,0.872,2.258,54.626,30.273,
00:00:05:600,-0.169,0.284,0.911,-13.428,76.232,13.061,
00:00:05:616,-0.176,0.284,0.872,-30.03,95.703,0.183,
00:00:05:633,-0.149,0.31,0.845,-3.663,121.643,6.958,
00:00:05:650,-0.131,0.315,0.898,-17.395,89.721,11.108,
00:00:05:666,-0.17,0.314,0.947,-72.51,79.528,23.01,
00:00:05:683,-0.17,0.377,0.952,-87.098,98.205,23.254,
00:00:05:700,-0.167,0.391,0.967,-91.126,94.116,30.09,
00:00:05:716,-0.169,0.399,0.963,-76.355,101.013,42.663,
00:00:05:733,-0.171,0.397,0.956,-54.627,108.276,51.879,
00:00:05:750,-0.162,0.391,0.924,-31.8,114.441,59.753,
00:00:05:766,-0.167,0.391,0.918,-8.423,105.651,65.673,
00:00:05:783,-0.166,0.395,0.914,-30.152,97.717,75.317,
00:00:05:800,-0.165,0.424,0.919,-36.866,87.463,86.181,
00:00:05:816,-0.172,0.375,0.931,-37.232,74.585,85.937,
00:00:05:833,-0.173,0.373,0.953,-27.832,65.246,93.75,
00:00:05:850,-0.183,0.362,0.958,-32.349,59.57,86.242,
00:00:05:866,-0.167,0.353,0.945,-15.503,61.706,81.176,
00:00:05:883,-0.162,0.315,0.946,-15.381,42.968,76.66,
00:00:05:900,-0.166,0.334,0.944,-25.147,21.911,76.477,
00:00:05:916,-0.167,0.358,0.955,25.634,10.498,72.021,
00:00:05:933,-0.161,0.358,0.951,106.689,15.136,52.734,
00:00:05:950,-0.138,0.364,1.001,140.991,-11.17,66.223,
00:00:05:966,-0.159,0.403,1.012,205.139,-28.626,62.805,
00:00:05:983,-0.168,0.348,0.998,287.536,-25.086,37.902,
00:00:06:0,-0.164,0.306,1.004,269.226,-32.532,31.25,
00:00:06:16,-0.17,0.273,1.015,194.824,-46.998,28.564,
00:00:06:33,-0.175,0.292,1.054,84.838,-58.106,12.451,
00:00:06:50,-0.178,0.345,1.008,71.472,-59.937,3.845,
00:00:06:66,-0.156,0.304,0.965,98.51,-46.631,0.122,
00:00:06:83,-0.121,0.29,0.97,98.571,-61.524,4.577,
00:00:06:100,-0.137,0.336,1.01,96.252,-78.37,30.883,
00:00:06:116,-0.147,0.314,1.047,79.589,-97.046,0.488,
00:00:06:133,-0.149,0.364,1.03,86.425,-88.99,20.507,
00:00:06:150,-0.132,0.314,0.973,78.613,-100.953,11.23,
00:00:06:166,-0.128,0.288,0.883,46.02,-113.465,12.634,
00:00:06:183,-0.128,0.262,0.835,23.071,-125.977,12.146,
00:00:06:200,-0.128,0.264,0.789,49.133,-125.794,10.253,
00:00:06:216,-0.121,0.217,0.797,-18.067,-175.232,-4.273,
00:00:06:233,-0.144,0.232,0.727,-76.05,-192.566,-21.363,
00:00:06:250,-0.211,0.264,0.607,-123.291,-179.932,-38.147,
00:00:06:266,-0.233,0.234,0.534,-183.472,-125.489,-47.791,
00:00:06:283,-0.233,0.281,0.551,-269.898,-105.408,-45.044,
00:00:06:300,-0.194,0.387,0.589,-298.34,-186.341,-24.231,
00:00:06:316,-0.352,0.413,0.668,-247.803,19.043,-31.311,
00:00:06:333,-0.276,0.51,0.791,-139.954,179.016,-56.031,
00:00:06:350,-0.328,0.626,0.753,64.941,443.664,-40.101,
00:00:06:366,-0.252,0.583,0.796,339.599,649.536,-44.251,
00:00:06:383,-0.239,0.558,1.026,583.007,822.143,-13.306,
00:00:06:400,-0.047,0.232,1.234,660.339,926.269,14.648,
00:00:06:416,0.202,-0.008,1.357,473.144,886.963,5.859,
00:00:06:433,0.54,0.175,1.493,799.926,434.875,-175.538,
00:00:06:450,0.33,-0.792,2.104,96.252,-179.017,-39.917,
00:00:06:466,-0.172,0.309,1.335,-642.395,-277.466,-143.677,
00:00:06:483,-0.042,0.229,0.92,-502.503,-272.583,-107.3,
00:00:06:500,-0.082,0.483,0.865,-292.664,-515.748,-136.536,
00:00:06:516,-0.232,0.453,0.979,196.106,-577.759,-163.392,
00:00:06:533,-0.229,0.057,0.766,459.228,-664.978,-84.107,
00:00:06:550,-0.565,-0.046,0.605,102.05,-469.788,-94.422,
00:00:06:566,-0.437,0.187,0.544,-271.058,-363.953,0.671,
00:00:06:583,-0.627,0.184,0.347,-359.925,100.097,20.996,
00:00:06:600,-0.403,0.275,0.39,-126.038,471.252,36.926,
00:00:06:616,-0.337,0.674,0.645,311.096,750.732,26.794,
00:00:06:633,-0.326,0.175,0.611,636.657,1024.414,-22.217,
00:00:06:650,0.159,-0.154,0.824,504.089,1141.235,34.668,
00:00:06:666,0.756,-0.421,1.187,-199.463,675.903,245.361,
00:00:06:683,0.217,1.348,1.685,-885.376,68.115,148.803,
00:00:06:700,0.348,0.774,1.667,244.567,-108.155,71.594,
00:00:06:716,-0.083,-0.169,1.225,615.112,-212.83,-20.02,
00:00:06:733,0.027,-0.339,1.147,10.925,-225.831,-73.182,
00:00:06:750,0.053,0.124,1.039,-380.249,-365.906,-88.99,
00:00:06:766,-0.084,0.436,1.032,-135.315,-387.452,-115.174,
00:00:06:783,-0.001,0.257,1.069,153.32,-413.331,-50.232,
00:00:06:800,-0.192,0.435,1.101,175.171,-431.397,-25.147,
00:00:06:816,-0.229,0.238,0.929,200.5,-353.455,31.86,
00:00:06:833,-0.24,0.237,0.889,130.127,-328.125,70.617,
00:00:06:850,-0.208,0.279,1.056,183.532,-395.63,103.027,
00:00:06:866,-0.386,0.378,1.033,197.937,-231.812,113.098,
00:00:06:883,-0.255,0.207,0.864,330.81,-142.579,128.173,
00:00:06:900,-0.271,0.078,0.798,235.046,-128.724,140.503,
00:00:06:916,-0.219,0.066,0.722,164.734,-84.717,140.014,
00:00:06:933,-0.214,0.11,0.752,147.888,-103.272,131.836,
00:00:06:950,-0.237,0.161,0.852,141.296,-73.853,149.353,
00:00:06:966,-0.233,0.131,0.847,219.726,-24.964,147.644,
00:00:06:983,-0.243,0.045,0.877,173.95,-19.593,146.484,
00:00:07:0,-0.201,0.01,0.868,251.342,-21.363,137.817,
00:00:07:16,-0.199,0.009,1.027,219.787,-107.178,141.418,
00:00:07:33,-0.217,0.134,1.088,98.205,-22.644,150.512,
00:00:07:50,-0.175,0.335,1,15.38,-30.64,138.916,
00:00:07:66,-0.241,0.097,0.969,64.209,-13.733,128.357,
00:00:07:83,-0.216,0.106,0.915,0.061,0.976,94.177,
00:00:07:100,-0.2,0.108,0.97,-87.769,5.188,114.99,
00:00:07:116,-0.179,0.149,0.988,-137.085,19.226,119.323,
00:00:07:133,-0.193,0.214,1.03,-46.204,20.752,124.389,
00:00:07:150,-0.205,0.18,1.033,61.035,44.311,135.803,
00:00:07:166,-0.221,0.065,0.993,55.664,69.152,121.887,
00:00:07:183,-0.228,0.079,0.968,34.057,99.853,91.369,
00:00:07:200,-0.18,0.111,0.97,24.231,95.459,96.618,
00:00:07:216,-0.17,0.101,0.933,-81.788,97.473,85.571,
00:00:07:233,-0.208,0.202,0.91,-105.835,76.538,66.223,
00:00:07:250,-0.189,0.244,0.896,-4.883,110.656,65.979,
00:00:07:266,-0.192,0.129,0.954,129.638,83.923,32.287,
00:00:07:283,-0.205,0.051,0.944,143.432,106.933,40.466,
00:00:07:300,-0.201,0.068,0.926,46.691,76.782,76.66,
00:00:07:316,-0.199,0.041,0.992,-55.97,52.673,45.044,
00:00:07:333,-0.189,0.074,1.017,-148.926,41.381,36.132,
00:00:07:350,-0.202,0.151,1.008,-117.615,38.024,30.151,
00:00:07:366,-0.233,0.117,0.96,-117.371,69.03,1.281,
00:00:07:383,-0.182,0.1,0.921,-78.736,59.021,33.996,
00:00:07:400,-0.177,0.134,0.976,-40.894,26.367,25.634,
00:00:07:416,-0.208,0.113,1.04,-53.528,32.653,23.803,
00:00:07:433,-0.177,0.01,0.954,-136.536,30.578,29.052,
00:00:07:450,-0.179,0.078,0.926,-213.196,-0.123,34.057,
00:00:07:466,-0.19,0.164,0.959,-239.441,-5.616,43.884,
00:00:07:483,-0.208,0.18,1.021,-172.486,-30.152,40.649,
00:00:07:500,-0.181,0.095,0.967,-86.853,-14.71,53.527,
00:00:07:516,-0.18,0.098,0.958,-148.804,-71.534,72.998,
00:00:07:533,-0.233,0.131,0.961,-255.555,-89.844,74.096,
00:00:07:550,-0.246,0.136,0.968,-348.572,-51.331,71.289,
00:00:07:566,-0.192,0.105,0.942,-524.781,-15.625,48.706,
00:00:07:583,-0.197,0.16,0.913,-760.132,-43.885,50.537,
00:00:07:600,-0.234,0.303,0.879,-868.836,-43.641,36.254,
00:00:07:616,-0.207,0.381,0.849,-886.841,-26.368,-4.334,
00:00:07:633,-0.234,0.331,0.796,-888.55,-26.001,-29.541,
00:00:07:650,-0.205,0.211,0.795,-909.79,-10.254,-44.922,
00:00:07:666,-0.224,0.199,0.791,-1105.164,-10.01,-21.485,
00:00:07:683,-0.225,0.23,0.579,-1365.906,32.287,-25.208,
00:00:07:700,-0.158,0.279,0.548,-1767.579,-56.275,5.432,
00:00:07:716,-0.2,0.476,0.539,-1988.343,-93.201,0.061,
00:00:07:733,-0.201,0.665,0.501,-1997.315,-131.47,2.441,
00:00:07:750,-0.226,0.811,0.467,-1970.459,-243.348,-28.382,
00:00:07:766,-0.23,0.88,0.576,-1922.852,-286.683,-18.555,
00:00:07:783,-0.205,0.829,0.54,-1869.568,-318.787,-31.556,
00:00:07:800,-0.197,0.814,0.525,-1862.366,-338.318,-60.791,
00:00:07:816,-0.234,0.792,0.437,-1995.057,-339.112,-27.222,
00:00:07:833,-0.282,0.764,0.194,-2000,-346.375,43.518,
00:00:07:850,-0.278,0.974,0.003,-2000,-395.142,86.547,
00:00:07:866,-0.324,1.31,-0.091,-2000,-337.281,103.332,
00:00:07:883,-0.362,1.409,-0.074,-1680.909,-303.894,106.262,
00:00:07:900,-0.361,1.271,-0.079,-1028.443,-126.831,48.889,
00:00:07:916,-0.375,1.027,-0.282,-199.707,24.414,54.26,
00:00:07:933,-0.355,0.993,-0.237,-104.981,2.197,68.115,
00:00:07:950,-0.38,0.942,-0.159,-169.861,-28.992,84.289,
00:00:07:966,-0.388,1.083,-0.129,-126.893,22.827,54.321,
00:00:07:983,-0.328,0.979,-0.131,-41.382,38.696,9.033,
00:00:08:0,-0.375,1.015,-0.101,30.212,13.977,28.747,
00:00:08:16,-0.331,0.957,-0.03,376.709,44.799,-26.49,
00:00:08:33,-0.315,0.908,-0.061,501.892,62.011,-48.462,
00:00:08:50,-0.296,0.911,-0.118,589.172,63.476,-59.082,
00:00:08:66,-0.317,0.925,-0.078,643.615,26.489,-99.549,
00:00:08:83,-0.342,0.919,-0.001,667.602,31.372,-106.69,
00:00:08:100,-0.296,0.873,-0.025,733.093,42.114,-114.136,
00:00:08:116,-0.261,0.802,0.005,735.656,7.263,-96.07,
00:00:08:133,-0.279,0.853,0.023,620.727,-48.829,-71.412,
00:00:08:150,-0.297,0.825,0.054,443.725,-94.239,-17.09,
00:00:08:166,-0.298,0.785,0.091,208.313,-107.056,-7.813,
00:00:08:183,-0.325,0.819,0.12,-43.702,-150.208,-14.161,
00:00:08:200,-0.293,0.909,0.062,-390.381,-215.577,-15.564,
00:00:08:216,-0.318,1.07,0.161,-315.491,-205.445,-31.373,
00:00:08:233,-0.322,1.105,0.122,-94.056,-122.986,-10.865,
00:00:08:250,-0.34,1.073,0.083,98.816,-83.924,2.685,
00:00:08:266,-0.344,1.038,0.081,141.967,-40.406,10.864,
00:00:08:283,-0.355,0.968,0.09,22.216,-61.097,37.353,
00:00:08:300,-0.328,0.923,0.061,-152.771,-60.608,12.451,
00:00:08:316,-0.324,1.005,0.044,-243.836,-108.582,10.192,
00:00:08:333,-0.36,1.136,0.093,-197.449,-63.965,-0.061,
00:00:08:350,-0.359,1.147,0.118,10.986,-17.701,-0.184,
00:00:08:366,-0.37,1.11,0.063,197.387,32.348,11.596,
00:00:08:383,-0.366,1.071,0.076,329.528,49.499,21.179,
00:00:08:400,-0.365,1.088,0.019,474.548,93.872,34.118,
00:00:08:416,-0.364,1.086,0.003,679.87,133.789,61.584,
00:00:08:433,-0.398,1.115,0.047,940.796,204.284,64.636,
00:00:08:450,-0.414,1.07,0.079,1206.054,279.419,65.246,
00:00:08:466,-0.393,1.043,0.119,1392.028,315.307,86.364,
00:00:08:483,-0.371,1.026,0.177,1570.861,381.836,99.914,
00:00:08:500,-0.398,1.018,0.216,1869.812,415.527,104.736,
00:00:08:516,-0.41,0.989,0.255,1999.694,484.13,115.661,
00:00:08:533,-0.366,0.795,0.224,1999.694,529.968,113.159,
00:00:08:550,-0.33,0.665,0.246,1999.694,525.329,120.727,
00:00:08:566,-0.355,0.694,0.39,1999.694,534.607,95.947,
00:00:08:583,-0.341,0.579,0.5,1999.694,575.195,148.986,
00:00:08:600,-0.311,0.302,0.488,1999.694,599.548,157.043,
00:00:08:616,-0.267,0.188,0.562,1625.61,574.157,189.453,
00:00:08:633,-0.255,0.107,0.526,1042.968,544.738,228.759,
00:00:08:650,-0.244,0.106,0.569,477.966,534.484,256.408,
00:00:08:666,-0.201,0.151,0.641,-68.116,522.155,250.122,
00:00:08:683,-0.164,0.2,0.666,-341.126,535.766,209.777,
00:00:08:700,-0.11,0.152,0.701,-480.347,525.94,158.691,
00:00:08:716,-0.093,0.26,0.745,-563.538,512.085,108.337,
00:00:08:733,-0.054,0.225,0.762,-625.55,522.461,42.114,
00:00:08:750,-0.017,0.296,0.769,-774.781,461.914,-0.916,
00:00:08:766,0.001,0.283,0.76,-1065.186,367.187,-58.106,
00:00:08:783,0.011,0.38,0.765,-1475.831,257.202,-80.75,
00:00:08:800,-0.016,0.55,0.756,-1900.452,154.541,-125.306,
00:00:08:816,-0.049,0.685,0.773,-1999.939,64.941,-179.505,
00:00:08:833,0.026,0.749,0.669,-2000,24.719,-242.981,
00:00:08:850,0.039,0.716,0.607,-2000,-119.996,-214.356,
00:00:08:866,-0.004,0.91,0.549,-2000,-226.441,-165.955,
00:00:08:883,-0.045,1.112,0.465,-2000,-267.945,-121.582,
00:00:08:900,-0.065,1.23,0.409,-1998.597,-306.458,-95.398,
00:00:08:916,-0.093,1.242,0.319,-1751.099,-277.222,-82.52,
00:00:08:933,-0.115,1.2,0.28,-1352.662,-245.362,-51.27,
00:00:08:950,-0.134,1.134,0.212,-1082.947,-208.619,-5.921,
00:00:08:966,-0.101,1.114,0.159,-902.955,-164.063,19.287,
00:00:08:983,-0.124,1.092,0.114,-794.373,-137.818,50.659,
00:00:09:0,-0.132,1.11,0.062,-658.997,-129.517,66.406,
00:00:09:16,-0.158,1.107,0.034,-493.348,-102.417,75.5,
00:00:09:33,-0.114,1.067,0.065,-290.589,-75.44,77.453,
00:00:09:50,-0.159,1.08,0.1,-2.442,-49.439,81.543,
00:00:09:66,-0.113,1.16,0.098,455.017,7.69,88.378,
00:00:09:83,-0.159,1.145,0.086,1028.015,99.731,89.843,
00:00:09:100,-0.123,1.093,0.047,1537.597,184.448,97.9,
00:00:09:116,-0.125,1.019,0.068,1900.756,231.201,88.989,
00:00:09:133,-0.116,1.012,0.125,1999.694,246.521,76.294,
00:00:09:150,-0.136,0.913,0.24,1999.694,281.005,56.518,
00:00:09:166,-0.122,0.813,0.359,1999.694,273.742,42.785,
00:00:09:183,-0.113,0.801,0.475,1999.694,286.193,44.799,
00:00:09:200,-0.111,0.694,0.535,1999.694,295.654,57.739,
00:00:09:216,-0.129,0.58,0.611,1999.694,287.231,66.223,
00:00:09:233,-0.144,0.517,0.692,1999.694,286.621,66.223,
00:00:09:250,-0.094,0.464,0.681,1999.694,269.592,48.461,
00:00:09:266,-0.118,0.344,0.735,1999.694,247.314,37.109,
00:00:09:283,-0.11,0.242,0.813,1999.694,238.281,21.484,
00:00:09:300,-0.097,0.116,0.883,1999.694,202.514,11.535,
00:00:09:316,-0.085,-0.005,0.933,1814.88,200.988,6.042,
00:00:09:333,-0.086,-0.088,0.957,1367.492,161.743,4.638,
00:00:09:350,-0.105,-0.169,0.927,870.483,163.086,-17.029,
00:00:09:366,-0.029,-0.12,0.937,346.679,146.972,5.065,
00:00:09:383,-0.053,-0.098,0.958,-7.508,122.802,-6.165,
00:00:09:400,-0.018,0.025,1.006,-140.931,115.173,-24.659,
00:00:09:416,-0.002,0.092,1.072,-97.352,100.525,-36.988,
00:00:09:433,-0.018,0.07,1.084,22.033,104.797,-47.547,
00:00:09:450,0.01,0.062,1.124,142.822,100.402,-41.81,
00:00:09:466,0.056,0.017,1.214,231.506,88.195,-31.434,
00:00:09:483,-0.023,0.07,1.183,263.122,65.246,-24.72,
00:00:09:500,-0.018,0.017,1.22,315.429,64.209,-14.588,
00:00:09:516,-0.013,-0.065,1.195,265.075,29.602,-14.954,
00:00:09:533,-0.013,-0.099,1.191,243.713,-23.255,-26.062,
00:00:09:550,-0.009,-0.103,1.268,241.333,-76.539,-12.696,
00:00:09:566,-0.013,-0.069,1.319,225.036,-138.123,-1.526,
00:00:09:583,-0.031,-0.109,1.315,241.15,-158.692,-2.32,
00:00:09:600,-0.044,-0.157,1.263,244.873,-207.886,-3.968,
00:00:09:616,-0.065,-0.151,1.238,202.88,-263.184,9.399,
00:00:09:633,-0.066,-0.14,1.267,129.516,-313.538,14.953,
00:00:09:650,-0.081,-0.146,1.258,68.969,-369.812,10.07,
00:00:09:666,-0.086,-0.138,1.27,39.184,-437.623,14.343,
00:00:09:683,-0.136,-0.089,1.28,26.428,-505.738,29.785,
00:00:09:700,-0.172,-0.084,1.27,113.83,-547.303,25.024,
00:00:09:716,-0.198,-0.055,1.224,232.605,-605.957,12.939,
00:00:09:733,-0.188,-0.236,1.213,281.982,-633.423,-3.54,
00:00:09:750,-0.212,-0.103,1.152,175.964,-689.393,13.061,
00:00:09:766,-0.292,-0.038,1.063,278.137,-699.585,9.765,
00:00:09:783,-0.268,-0.105,1.013,293.701,-686.646,40.283,
00:00:09:800,-0.283,-0.087,1.003,323.547,-704.468,55.908,
00:00:09:816,-0.321,-0.049,0.991,414.367,-686.524,68.42,
00:00:09:833,-0.33,-0.045,0.942,541.565,-639.283,78.674,
00:00:09:850,-0.31,-0.089,0.902,630.493,-626.221,82.702,
00:00:09:866,-0.332,-0.085,0.784,698.242,-611.023,75.683,
00:00:09:883,-0.36,-0.148,0.712,761.535,-573.182,76.721,
00:00:09:900,-0.342,-0.216,0.704,728.576,-547.974,67.321,
00:00:09:916,-0.363,-0.199,0.688,666.015,-536.805,57.373,
00:00:09:933,-0.352,-0.242,0.625,613.342,-490.662,53.283,
00:00:09:950,-0.338,-0.236,0.565,493.286,-468.201,37.536,
00:00:09:966,-0.336,-0.287,0.514,410.034,-433.411,22.949,
00:00:09:983,-0.348,-0.278,0.463,300.476,-397.767,30.7,
00:00:10:0,-0.315,-0.325,0.492,141.357,-335.45,15.136,
00:00:10:16,-0.353,-0.265,0.403,17.273,-276.49,23.803,
00:00:10:33,-0.336,-0.21,0.276,-173.829,-104.676,33.142,
00:00:10:50,-0.344,-0.225,0.246,-301.697,12.39,33.752,
00:00:10:66,-0.335,-0.191,0.277,-390.748,143.371,38.024,
00:00:10:83,-0.323,-0.166,0.321,-370.789,268.066,30.151,
00:00:10:100,-0.34,-0.181,0.385,-324.463,397.216,34.606,
00:00:10:116,-0.345,-0.195,0.477,-193.848,517.456,35.827,
00:00:10:133,-0.384,-0.276,0.58,-19.043,615.966,48.95,
00:00:10:150,-0.422,-0.304,0.794,230.713,699.585,71.044,
00:00:10:166,-0.442,-0.403,1.034,541.442,733.337,87.646,
00:00:10:183,-0.513,-0.548,1.287,846.13,683.105,115.966,
00:00:10:200,-0.589,-0.885,1.408,976.379,601.806,137.329,
00:00:10:216,-0.561,-1.046,1.437,742.675,468.322,123.047,
00:00:10:233,-0.512,-1.13,1.435,272.216,263.672,54.138,
00:00:10:250,-0.504,-1.073,1.439,-176.026,31.066,-42.847,
00:00:10:266,-0.497,-0.826,1.435,-387.94,-178.711,-117.676,
00:00:10:283,-0.488,-0.655,1.388,-348.877,-326.905,-159.729,
00:00:10:300,-0.452,-0.513,1.263,-272.4,-441.163,-184.937,
00:00:10:316,-0.419,-0.384,1.119,-238.221,-530.152,-182.557,
00:00:10:333,-0.417,-0.286,0.942,-191.163,-584.961,-153.138,
00:00:10:350,-0.408,-0.223,0.766,-111.39,-573.792,-111.573,
00:00:10:366,-0.363,-0.217,0.625,-110.962,-537.659,-71.961,
00:00:10:383,-0.359,-0.152,0.48,-153.87,-489.808,-22.583,
00:00:10:400,-0.347,-0.057,0.34,-140.076,-391.419,33.813,
00:00:10:416,-0.336,-0.092,0.231,-76.05,-244.629,80.444,
00:00:10:433,-0.336,-0.115,0.129,-91.126,-91.797,122.314,
00:00:10:450,-0.351,-0.149,0.111,-146.424,61.279,157.165,
00:00:10:466,-0.359,-0.148,0.185,-177.369,242.92,201.66,
00:00:10:483,-0.368,-0.161,0.313,-90.027,421.875,230.835,
00:00:10:500,-0.369,-0.242,0.513,106.262,575.744,266.357,
00:00:10:516,-0.393,-0.322,0.729,399.902,681.701,298.217,
00:00:10:533,-0.391,-0.455,0.94,765.38,724.67,322.265,
00:00:10:550,-0.35,-0.655,1.13,1075.012,699.463,296.753,
00:00:10:566,-0.287,-0.915,1.241,1173.706,605.896,245.056,
00:00:10:583,-0.274,-1.14,1.303,1017.212,440.734,144.531,
00:00:10:600,-0.25,-1.232,1.311,639.526,216.369,7.812,
00:00:10:616,-0.241,-1.306,1.27,104.248,-2.808,-125,
00:00:10:633,-0.25,-1.093,1.131,-357.911,-216.797,-221.009,
00:00:10:650,-0.277,-0.844,1.108,-528.26,-420.655,-290.467,
00:00:10:666,-0.325,-0.609,1.077,-482.056,-554.871,-337.586,
00:00:10:683,-0.367,-0.455,1.027,-292.908,-599.61,-345.643,
00:00:10:700,-0.368,-0.364,0.868,-86.365,-605.408,-323.914,
00:00:10:716,-0.39,-0.329,0.704,60.363,-601.624,-299.5,
00:00:10:733,-0.414,-0.315,0.579,147.277,-558.472,-261.048,
00:00:10:750,-0.434,-0.283,0.49,196.899,-505.982,-230.469,
00:00:10:766,-0.45,-0.328,0.471,186.523,-427.735,-188.355,
00:00:10:783,-0.457,-0.349,0.437,107.666,-345.093,-134.034,
00:00:10:800,-0.452,-0.342,0.366,26.55,-259.156,-80.262,
00:00:10:816,-0.469,-0.314,0.324,12.939,-171.265,-39.856,
00:00:10:833,-0.479,-0.329,0.282,45.776,-63.599,-16.602,
00:00:10:850,-0.492,-0.35,0.276,51.696,36.804,9.216,
00:00:10:866,-0.483,-0.421,0.288,22.094,157.043,36.315,
00:00:10:883,-0.468,-0.438,0.332,-41.565,253.662,54.687,
00:00:10:900,-0.45,-0.445,0.353,-100.831,351.623,46.325,
00:00:10:916,-0.376,-0.47,0.343,-170.899,438.11,47.851,
00:00:10:933,-0.394,-0.465,0.312,-258.118,500.732,40.466,
00:00:10:950,-0.393,-0.442,0.384,-334.351,603.271,39.001,
00:00:10:966,-0.354,-0.397,0.469,-347.229,669.25,28.869,
00:00:10:983,-0.342,-0.382,0.566,-287.842,702.88,31.189,
00:00:11:0,-0.322,-0.426,0.632,-260.926,767.7,7.263,
00:00:11:16,-0.277,-0.471,0.617,-407.471,812.317,12.634,
00:00:11:33,-0.243,-0.338,0.653,-543.946,826.599,1.892,
00:00:11:50,-0.216,-0.277,0.711,-566.102,832.641,7.873,
00:00:11:66,-0.19,-0.181,0.835,-501.221,831.298,19.287,
00:00:11:83,-0.145,-0.187,0.931,-355.896,834.106,39.489,
00:00:11:100,-0.114,-0.25,0.983,-329.285,793.884,47.302,
00:00:11:116,-0.118,-0.287,0.983,-455.933,743.469,58.96,
00:00:11:133,-0.112,-0.278,0.98,-634.644,682.067,62.011,
00:00:11:150,-0.097,-0.204,1.017,-749.573,637.512,58.41,
00:00:11:166,-0.073,-0.124,1.1,-765.137,589.111,47.119,
00:00:11:183,-0.041,-0.098,1.224,-738.526,545.776,24.963,
00:00:11:200,0.018,-0.116,1.265,-713.44,482.055,3.723,
00:00:11:216,0.02,-0.187,1.322,-695.984,386.413,-1.893,
00:00:11:233,0.013,-0.124,1.37,-669.434,344.055,7.69,
00:00:11:250,0.05,-0.201,1.359,-598.206,268.493,-12.452,
00:00:11:266,0.094,-0.192,1.337,-604.065,163.757,-47.791,
00:00:11:283,0.075,-0.174,1.298,-586.609,35.034,-95.704,
00:00:11:300,0.05,-0.207,1.288,-563.172,-21.302,-143.86,
00:00:11:316,0.036,-0.184,1.288,-541.748,-90.149,-191.04,
00:00:11:333,0.011,-0.164,1.26,-530.335,-118.653,-221.497,
00:00:11:350,0.029,-0.126,1.248,-544.678,-156.006,-261.78,
00:00:11:366,0.013,-0.083,1.219,-560.914,-206.849,-311.707,
00:00:11:383,-0.013,-0.005,1.146,-507.996,-235.413,-348.328,
00:00:11:400,-0.022,0.02,1.089,-421.57,-247.864,-376.282,
00:00:11:416,-0.041,0.04,1.092,-335.999,-256.653,-396.18,
00:00:11:433,-0.061,0.04,1.092,-245.667,-246.582,-421.57,
00:00:11:450,-0.053,0.048,1.102,-192.81,-239.319,-419.007,
00:00:11:466,-0.044,0.01,1.07,-198.67,-263.794,-446.106,
00:00:11:483,-0.063,0.039,1.016,-205.75,-300.66,-490.967,
00:00:11:500,-0.095,-0.001,1.055,-216.797,-327.942,-512.818,
00:00:11:516,-0.103,0.047,1.053,-227.539,-344.422,-534.058,
00:00:11:533,-0.131,0.018,1.06,-254.212,-371.338,-554.139,
00:00:11:550,-0.133,0.066,1.086,-286.255,-399.231,-581.36,
00:00:11:566,-0.15,0.043,1.064,-275.574,-438.416,-610.718,
00:00:11:583,-0.153,0.043,1.022,-329.834,-474.06,-651.123,
00:00:11:600,-0.148,0.027,0.773,-381.897,-497.498,-654.358,
00:00:11:616,-0.233,0.261,0.944,-438.294,-559.51,-676.514,
00:00:11:633,-0.201,0.152,0.917,-350.037,-529.419,-647.339,
00:00:11:650,-0.182,0.141,0.878,-343.811,-587.098,-690.796,
00:00:11:666,-0.219,0.131,0.816,-346.192,-629.639,-711.487,
00:00:11:683,-0.283,0.096,0.756,-416.626,-632.935,-764.1,
00:00:11:700,-0.304,-0.026,0.671,-729.981,-593.079,-776.368,
00:00:11:716,-0.314,0.084,0.547,-1174.012,-575.257,-787.354,
00:00:11:733,-0.329,0.27,0.499,-1513.428,-557.862,-767.518,
00:00:11:750,-0.36,0.438,0.509,-1683.655,-510.498,-732.727,
00:00:11:766,-0.35,0.65,0.536,-1669.678,-421.57,-675.477,
00:00:11:783,-0.315,0.746,0.577,-1480.103,-341.797,-619.446,
00:00:11:800,-0.28,0.847,0.614,-1256.409,-260.865,-564.087,
00:00:11:816,-0.245,0.936,0.634,-1008.912,-164.368,-505.188,
00:00:11:833,-0.254,0.924,0.639,-873.169,-100.098,-465.638,
00:00:11:850,-0.271,0.999,0.582,-868.958,-11.231,-460.45,
00:00:11:866,-0.233,1.021,0.474,-1035.95,50.415,-415.162,
00:00:11:883,-0.235,0.998,0.43,-1270.325,56.518,-326.111,
00:00:11:900,-0.231,1.056,0.397,-1332.154,76.049,-303.528,
00:00:11:916,-0.212,1.084,0.349,-1159.729,98.144,-276.001,
00:00:11:933,-0.195,1.066,0.317,-915.711,91.735,-253.418,
00:00:11:950,-0.21,1.021,0.252,-700.623,78.979,-235.535,
00:00:11:966,-0.197,0.96,0.233,-556.153,74.768,-244.812,
00:00:11:983,-0.152,0.885,0.213,-517.579,59.448,-258.667,
00:00:12:0,-0.141,0.895,0.18,-585.755,6.897,-276.734,
00:00:12:16,-0.191,1.496,0.29,-492.188,-89.356,-230.164,
00:00:12:33,-0.16,0.96,0.147,-62.256,-60.181,25.695,
00:00:12:50,-0.093,0.78,0.135,-131.714,-94.117,-8.484,
00:00:12:66,-0.058,0.877,0.192,-181.092,-180.115,-23.133,
00:00:12:83,-0.168,1.132,0.249,-57.129,-174.317,-29.053,
00:00:12:100,-0.182,1.158,0.243,219.909,-80.384,7.141,
00:00:12:116,-0.162,1.023,0.228,361.755,-25.452,33.63,
00:00:12:133,-0.144,0.858,0.244,344.97,-4.212,42.175,
00:00:12:150,-0.142,0.805,0.253,213.134,10.742,23.681,
00:00:12:166,-0.176,0.91,0.276,110.29,11.047,8.85,
00:00:12:183,-0.18,0.908,0.255,162.658,55.542,-5.555,
00:00:12:200,-0.164,0.886,0.277,203.674,52.856,12.023,
00:00:12:216,-0.197,0.871,0.333,207.458,59.082,-30.762,
00:00:12:233,-0.208,0.913,0.363,237.976,84.899,-21.851,
00:00:12:250,-0.178,0.877,0.379,226.501,84.961,-8.179,
00:00:12:266,-0.208,0.887,0.367,119.262,79.711,-31.678,
00:00:12:283,-0.185,0.927,0.321,75.317,74.035,-25.818,
00:00:12:300,-0.178,0.904,0.308,56.03,52.124,-18.25,
00:00:12:316,-0.182,0.905,0.315,49.743,36.01,-18.494,
00:00:12:333,-0.17,0.912,0.298,34.912,23.071,-18.799,
00:00:12:350,-0.168,0.904,0.29,20.629,17.578,-22.4,
00:00:12:366,-0.155,0.91,0.313,28.503,14.77,-30.396,
00:00:12:383,-0.165,0.913,0.32,48.4,17.517,-44.861,
00:00:12:400,-0.147,0.919,0.304,80.993,29.724,-50.721,
00:00:12:416,-0.151,0.91,0.304,101.196,27.282,-54.871,
00:00:12:433,-0.171,0.924,0.301,139.831,43.884,-56.275,
00:00:12:450,-0.145,0.89,0.323,88.378,48.523,-43.03,
00:00:12:466,-0.153,0.928,0.353,108.154,28.869,-45.838,
00:00:12:483,-0.165,0.909,0.371,172.058,55.358,-47.73,
00:00:12:500,-0.155,0.88,0.346,159.607,69.763,-39.246,
00:00:12:516,-0.147,0.913,0.346,164.367,69.458,-37.659,
00:00:12:533,-0.157,0.884,0.34,174.499,54.748,-31.556,
00:00:12:550,-0.153,0.894,0.367,152.404,66.833,-22.156,
00:00:12:566,-0.134,0.881,0.379,142.7,77.209,-20.752,
00:00:12:583,-0.119,0.887,0.39,176.086,59.265,-33.997,
00:00:12:600,-0.14,0.886,0.397,203.308,41.442,-40.223,
00:00:12:616,-0.148,0.911,0.389,265.075,61.34,-36.744,
00:00:12:633,-0.129,0.883,0.397,304.443,78.002,-32.593,
00:00:12:650,-0.118,0.905,0.411,316.955,56.091,-28.138,
00:00:12:666,-0.139,0.893,0.421,366.577,60.363,-23.194,
00:00:12:683,-0.125,0.849,0.469,283.203,66.406,0.305,
00:00:12:700,-0.113,0.831,0.5,204.345,57.312,3.295,
00:00:12:716,-0.13,0.85,0.512,153.808,56.03,6.469,
00:00:12:733,-0.144,0.859,0.461,134.704,64.88,13.671,
00:00:12:750,-0.147,0.823,0.461,98.632,80.749,2.563,
00:00:12:766,-0.157,0.888,0.482,207.458,66.284,-16.541,
00:00:12:783,-0.153,0.699,0.462,74.89,54.565,-0.55,
00:00:12:800,-0.139,0.804,0.483,-64.27,42.602,-14.344,
00:00:12:816,-0.161,0.824,0.492,-87.037,44.738,-8.362,
00:00:12:833,-0.167,0.857,0.431,-99.976,59.265,-7.813,
00:00:12:850,-0.141,0.877,0.42,-59.754,67.932,-5.921,
00:00:12:866,-0.123,0.801,0.467,-69.092,67.321,-1.709,
00:00:12:883,-0.088,0.76,0.457,-133.851,69.824,-6.714,
00:00:12:900,-0.127,0.81,0.467,-148.865,61.828,-37.964,
00:00:12:916,-0.113,0.794,0.41,-174.561,83.129,-35.523,
00:00:12:933,-0.108,0.882,0.405,-230.591,71.594,-35.462,
00:00:12:950,-0.111,0.947,0.438,-172.974,58.227,-32.227,
00:00:12:966,-0.126,0.912,0.424,-166.382,38.269,-10.621,
00:00:12:983,-0.109,0.856,0.449,-153.199,22.888,2.136,
00:00:13:0,-0.088,0.822,0.424,-190.613,-21.058,22.033,breakEggRH
00:00:13:16,-0.129,0.839,0.484,-315.247,-68.055,26.794,
00:00:13:33,-0.156,0.93,0.536,-405.091,-60.12,13.366,
00:00:13:50,-0.162,1.06,0.481,-303.467,16.357,11.169,
00:00:13:66,-0.107,1.067,0.37,15.258,89.172,33.081,
00:00:13:83,-0.147,0.984,0.334,200.5,48.584,6.286,
00:00:13:100,-0.178,0.968,0.3,382.263,84.472,18.127,
00:00:13:116,-0.194,0.895,0.29,472.839,126.587,36.621,
00:00:13:133,-0.143,0.816,0.379,445.861,151.367,48.278,
00:00:13:150,-0.132,0.793,0.52,295.532,84.777,44.067,
00:00:13:166,-0.17,0.907,0.538,297.729,94.36,11.657,
00:00:13:183,-0.21,0.933,0.396,388.244,135.131,19.409,
00:00:13:200,-0.167,0.835,0.364,457.458,159.668,32.165,
00:00:13:216,-0.154,0.714,0.542,326.843,95.642,73.547,
00:00:13:233,-0.174,0.757,0.549,211.853,90.393,63.354,
00:00:13:250,-0.123,0.673,0.558,124.023,79.589,72.876,
00:00:13:266,-0.167,0.745,0.595,14.099,20.202,48.584,
00:00:13:283,-0.176,0.811,0.624,61.035,26.001,54.565,
00:00:13:300,-0.156,0.888,0.637,222.595,29.724,56.213,
00:00:13:316,-0.149,0.917,0.633,409.118,32.592,57.067,
00:00:13:333,-0.145,0.789,0.672,524.658,34.057,89.233,
00:00:13:350,-0.128,0.667,0.675,397.155,17.273,132.751,
00:00:13:366,-0.108,0.654,0.691,149.17,-24.964,189.453,
00:00:13:383,-0.14,0.718,0.733,-201.966,-120.423,216.735,
00:00:13:400,-0.22,1.05,0.668,-195.984,-91.37,231.14,
00:00:13:416,-0.219,0.888,0.654,-56.519,-43.58,275.207,
00:00:13:433,-0.212,1.006,0.629,63.537,-18.738,262.085,
00:00:13:450,-0.197,0.973,0.666,286.865,4.394,259.582,
00:00:13:466,-0.202,0.879,0.698,386.718,4.394,260.254,
00:00:13:483,-0.22,0.871,0.624,495.178,18.127,276.611,
00:00:13:500,-0.217,0.814,0.609,566.833,39.489,300.659,
00:00:13:516,-0.226,0.804,0.629,661.56,39.428,314.941,
00:00:13:533,-0.233,0.708,0.675,721.801,25.878,323.364,
00:00:13:550,-0.261,0.645,0.679,747.07,20.019,319.519,
00:00:13:566,-0.27,0.576,0.659,714.233,23.437,312.561,
00:00:13:583,-0.256,0.55,0.723,738.403,1.098,270.996,
00:00:13:600,-0.282,0.49,0.716,772.827,-2.686,251.464,
00:00:13:616,-0.268,0.389,0.642,797.668,12.939,228.942,
00:00:13:633,-0.283,0.325,0.627,742.065,19.531,200.256,
00:00:13:650,-0.262,0.408,0.605,735.656,16.723,157.776,
00:00:13:666,-0.291,0.275,0.747,787.414,29.724,122.314,
00:00:13:683,-0.255,0.258,0.628,770.568,116.821,95.52,
00:00:13:700,-0.226,-0.005,0.614,443.603,101.562,-13.672,
00:00:13:716,-0.25,0.372,0.491,409.546,124.206,-36.988,
00:00:13:733,-0.292,0.224,0.444,595.031,227.356,-60.914,
00:00:13:750,-0.307,0.206,0.44,736.572,349.243,-90.271,
00:00:13:766,-0.33,0.121,0.52,839.904,525.756,-90.088,
00:00:13:783,-0.319,0.147,0.664,760.437,659.057,-116.7,
00:00:13:800,-0.285,0.289,0.872,691.589,775.024,-114.136,
00:00:13:816,-0.318,0.344,0.898,750.671,997.68,-106.324,
00:00:13:833,0.04,0.28,1.14,897.522,929.016,20.69,
00:00:13:850,0.151,0.095,1.326,903.625,837.89,135.742,
00:00:13:866,0.225,-0.048,1.427,583.13,572.204,191.894,
00:00:13:883,0.252,-0.19,1.962,-65.491,175.903,190.551,
00:00:13:900,0.074,0.289,1.72,-122.681,-271.058,-1.526,
00:00:13:916,-0.154,-0.315,1.214,19.226,-262.207,-99.61,
00:00:13:933,0.018,-0.222,1.031,-355.713,-371.155,-167.969,
00:00:13:950,-0.058,-0.114,1.092,-818.97,-654.419,-128.785,
00:00:13:966,-0.26,0.641,0.873,-843.323,-733.094,-191.956,
00:00:13:983,-0.447,0.561,0.696,-154.236,-431.153,-155.518,
00:00:14:0,-0.346,0.267,0.542,175.171,-179.017,-95.887,
00:00:14:16,-0.385,0.271,0.38,243.286,9.033,-51.026,
00:00:14:33,-0.42,0.108,0.404,322.937,304.931,63.903,
00:00:14:50,-0.287,0.162,0.502,319.03,581.237,86.547,
00:00:14:66,-0.102,0.387,0.806,486.328,760.498,86.547,
00:00:14:83,0.053,0.07,0.328,727.539,893.615,98.51,
00:00:14:100,0.531,-0.776,1.795,175.354,465.026,222.351,
00:00:14:116,0.472,0.79,2.089,-186.28,-126.77,-19.104,
00:00:14:133,-0.281,0.062,1.298,280.212,-330.262,-44.861,
00:00:14:150,-0.146,-0.29,0.931,-6.409,-126.099,-49.683,
00:00:14:166,0.219,-0.035,1.013,-369.812,-305.787,-5.921,
00:00:14:183,-0.076,0.092,1.184,-610.596,-549.317,1.77,
00:00:14:200,-0.192,0.285,1.049,-718.811,-489.441,0.183,
00:00:14:216,-0.161,0.213,0.974,-697.876,-455.628,36.987,
00:00:14:233,-0.205,0.377,0.892,-637.635,-470.032,79.895,
00:00:14:250,-0.318,0.327,0.886,-596.619,-368.897,132.751,
00:00:14:266,-0.29,0.526,0.81,-329.651,-250.061,139.221,
00:00:14:283,-0.263,0.306,0.82,-37.354,-167.481,161.682,
00:00:14:300,-0.265,0.223,0.785,23.925,-112.427,152.16,
00:00:14:316,-0.27,0.223,0.753,60.302,-53.406,147.461,
00:00:14:333,-0.253,0.112,0.755,20.141,-11.048,134.277,
00:00:14:350,-0.25,0.114,0.777,-87.708,4.699,110.595,
00:00:14:366,-0.256,0.255,0.774,-100.037,32.287,96.008,
00:00:14:383,-0.253,0.277,0.849,-42.115,45.715,68.725,
00:00:14:400,-0.245,0.32,0.942,56.701,53.344,24.963,
00:00:14:416,-0.24,0.291,0.917,143.371,78.857,16.113,
00:00:14:433,-0.216,0.163,0.898,167.724,69.397,-6.104,
00:00:14:450,-0.214,0.134,0.889,34.301,56.823,-6.897,
00:00:14:466,-0.196,0.205,0.923,-50.049,33.264,15.319,
00:00:14:483,-0.215,0.283,0.937,-69.581,19.592,25.756,
00:00:14:500,-0.207,0.323,0.982,-2.869,12.817,40.466,
00:00:14:516,-0.243,0.344,0.987,93.261,21.85,43.762,
00:00:14:533,-0.213,0.308,0.957,169.555,35.522,46.814,
00:00:14:550,-0.217,0.266,0.946,217.163,24.536,41.687,
00:00:14:566,-0.229,0.237,0.97,263.672,28.991,43.335,
00:00:14:583,-0.201,0.191,0.986,255.737,29.663,54.87,
00:00:14:600,-0.211,0.152,0.972,171.02,9.094,54.504,
00:00:14:616,-0.223,0.114,0.919,27.771,9.216,61.645,
00:00:14:633,-0.211,0.176,0.894,-68.604,4.821,69.336,
00:00:14:650,-0.232,0.187,0.914,-65.125,-2.442,70.251,
00:00:14:666,-0.226,0.244,0.948,-27.466,2.075,60.974,
00:00:14:683,-0.224,0.238,0.989,75.5,3.967,91.064,
00:00:14:700,-0.221,0.206,1.006,141.174,3.295,74.585,
00:00:14:716,-0.211,0.179,0.991,142.944,-13.367,92.773,
00:00:14:733,-0.242,0.097,0.893,46.875,-22.828,87.951,
00:00:14:750,-0.223,0.213,0.916,-32.593,-43.641,91.186,
00:00:14:766,-0.254,0.22,1.025,-47.303,-49.622,73.73,
00:00:14:783,-0.263,0.267,1.039,32.836,4.516,48.706,
00:00:14:800,-0.246,0.216,0.975,129.516,19.226,35.4,
00:00:14:816,-0.248,0.117,0.924,174.682,26.611,28.93,
00:00:14:833,-0.236,0.097,0.897,95.336,29.541,9.46,
00:00:14:850,-0.232,0.15,0.862,68.298,21.118,-3.785,
00:00:14:866,-0.23,0.115,0.915,29.846,12.207,-11.475,
00:00:14:883,-0.218,0.172,0.989,-6.775,2.441,-27.588,
00:00:14:900,-0.231,0.17,0.969,-6.043,5.981,-42.115,
00:00:14:916,-0.224,0.149,0.954,0.488,19.165,-48.34,
00:00:14:933,-0.223,0.146,0.947,-10.254,-1.709,-54.81,
00:00:14:950,-0.243,0.155,0.918,0.488,1.342,-49.439,
00:00:14:966,-0.237,0.196,0.93,8.3,13.916,-46.143,
00:00:14:983,-0.232,0.216,0.942,73.059,18.371,-45.716,
00:00:15:0,-0.244,0.178,0.953,104.126,30.517,-39.429,
00:00:15:16,-0.249,0.16,0.931,96.862,41.992,-37.354,
00:00:15:33,-0.246,0.168,0.935,85.937,53.466,-23.743,
00:00:15:50,-0.241,0.189,0.927,85.632,63.354,-8.057,
00:00:15:66,-0.251,0.183,0.933,99.304,75.805,8.85,
00:00:15:83,-0.243,0.183,0.94,131.042,93.017,17.883,
00:00:15:100,-0.252,0.168,0.905,183.715,114.135,35.644,
00:00:15:116,-0.259,0.133,0.87,215.21,140.808,47.79,
00:00:15:133,-0.257,0.114,0.854,225.83,165.466,51.818,
00:00:15:150,-0.262,0.055,0.83,207.641,210.266,50.17,
00:00:15:166,-0.233,0,0.811,211.975,254.943,44.189,
00:00:15:183,-0.207,0.016,0.87,207.702,286.682,44.494,
00:00:15:200,-0.184,-0.054,0.937,121.093,321.472,39.489,
00:00:15:216,-0.16,0.114,0.951,183.044,336.486,26.489,
00:00:15:233,-0.149,0.048,1.021,237.182,365.356,28.625,
00:00:15:250,-0.079,0.121,1.068,276.733,346.862,24.353,
00:00:15:266,-0.049,0.052,1.11,368.042,303.65,46.569,
00:00:15:283,-0.033,0.023,1.226,227.417,221.862,70.678,
00:00:15:300,-0.028,0.085,1.307,70.861,125.854,74.096,
00:00:15:316,-0.065,0.112,1.318,-8.057,34.484,83.129,
00:00:15:333,-0.089,0.085,1.295,-2.015,-16.663,93.75,
00:00:15:350,-0.104,0.036,1.273,28.198,-82.642,103.881,
00:00:15:366,-0.136,0.029,1.273,21.667,-128.052,110.29,
00:00:15:383,-0.143,0.002,1.235,29.235,-166.077,115.6,
00:00:15:400,-0.175,0.016,1.186,75.012,-183.594,111.694,
00:00:15:416,-0.17,0.008,1.14,160.278,-184.632,118.774,
00:00:15:433,-0.168,0.003,1.094,276.428,-194.397,117.797,
00:00:15:450,-0.164,-0.037,1.086,303.711,-191.773,138.549,
00:00:15:466,-0.167,-0.059,1.058,264.404,-198.914,142.395,
00:00:15:483,-0.188,-0.113,1.052,201.233,-213.074,142.273,
00:00:15:500,-0.192,-0.054,1.031,182.006,-216.675,133.361,
00:00:15:516,-0.193,0.02,1.028,273.925,-219.483,135.315,
00:00:15:533,-0.195,-0.085,1.007,399.292,-225.403,139.282,
00:00:15:550,-0.212,-0.109,0.971,435.363,-238.648,126.464,
00:00:15:566,-0.178,-0.123,1.069,423.339,-260.376,117.065,
00:00:15:583,-0.202,-0.085,0.993,333.313,-291.382,99.67,
00:00:15:600,-0.246,-0.081,0.889,338.256,-275.452,74.035,
00:00:15:616,-0.211,-0.117,0.789,353.027,-252.442,66.101,
00:00:15:633,-0.235,-0.13,0.681,337.951,-234.009,57.251,
00:00:15:650,-0.252,-0.13,0.688,287.597,-174.195,53.711,
00:00:15:666,-0.213,-0.124,0.674,157.287,-128.846,63.11,
00:00:15:683,-0.262,-0.081,0.603,122.314,-60.059,58.471,
00:00:15:700,-0.24,-0.054,0.488,144.775,49.804,57.19,
00:00:15:716,-0.251,-0.137,0.403,71.167,156.982,71.044,
00:00:15:733,-0.22,-0.082,0.394,-49.134,289.062,96.557,
00:00:15:750,-0.193,-0.065,0.517,-111.206,406.189,109.008,
00:00:15:766,-0.165,-0.048,0.636,-83.191,492.431,124.572,
00:00:15:783,-0.167,-0.038,0.717,33.447,575.744,132.751,
00:00:15:800,-0.129,-0.1,0.894,185.241,627.929,145.752,
00:00:15:816,-0.116,-0.206,1.1,318.664,630.005,157.714,
00:00:15:833,-0.083,-0.357,1.335,387.878,579.895,167.785,
00:00:15:850,-0.045,-0.487,1.563,398.559,457.641,138.61,
00:00:15:866,-0.033,-0.586,1.722,386.901,284.729,83.068,
00:00:15:883,-0.032,-0.701,1.843,319.091,92.041,4.211,
00:00:15:900,-0.018,-0.74,1.818,201.782,-131.165,-87.22,
00:00:15:916,-0.081,-0.63,1.721,95.398,-340.455,-155.64,
00:00:15:933,-0.131,-0.571,1.611,85.815,-483.826,-201.294,
00:00:15:950,-0.142,-0.409,1.518,124.939,-601.929,-236.634,
00:00:15:966,-0.174,-0.337,1.347,247.009,-672.974,-246.46,
00:00:15:983,-0.183,-0.266,1.186,333.557,-712.22,-241.883,
00:00:16:0,-0.169,-0.286,1.004,319.763,-744.019,-230.286,
00:00:16:16,-0.208,-0.197,0.822,325.012,-742.249,-202.454,
00:00:16:33,-0.189,-0.21,0.741,298.95,-725.342,-165.284,
00:00:16:50,-0.206,-0.144,0.609,193.664,-705.079,-141.053,
00:00:16:66,-0.233,-0.083,0.481,144.592,-646.302,-104.615,
00:00:16:83,-0.277,-0.05,0.362,103.454,-559.082,-63.05,
00:00:16:100,-0.309,0.004,0.245,121.643,-415.467,-10.376,
00:00:16:116,-0.325,-0.039,0.14,138.61,-237.793,52.734,
00:00:16:133,-0.356,-0.115,0.077,41.259,-52.796,120.971,
00:00:16:150,-0.318,-0.065,0.119,-116.639,151.855,179.199,
00:00:16:166,-0.301,-0.045,0.156,-197.022,355.224,231.689,
00:00:16:183,-0.271,-0.145,0.206,-213.685,518.737,276.855,
00:00:16:200,-0.223,-0.164,0.37,-249.512,676.88,297.973,
00:00:16:216,-0.146,-0.258,0.611,-233.216,778.015,300.354,
00:00:16:233,-0.119,-0.372,0.785,-212.037,822.631,268.859,
00:00:16:250,-0.08,-0.501,0.925,-222.535,820.8,206.848,
00:00:16:266,-0.058,-0.545,1.069,-314.881,768.188,158.264,
00:00:16:283,-0.036,-0.557,1.198,-408.57,686.95,72.998,
00:00:16:300,-0.013,-0.578,1.266,-486.084,583.618,-16.48,
00:00:16:316,-0.003,-0.524,1.347,-559.327,447.265,-114.869,
00:00:16:333,-0.036,-0.487,1.438,-613.343,306.152,-199.891,
00:00:16:350,-0.049,-0.408,1.521,-645.813,183.838,-265.809,
00:00:16:366,-0.045,-0.245,1.601,-608.643,35.4,-312.195,
00:00:16:383,-0.117,-0.141,1.646,-433.655,-105.042,-325.44,
00:00:16:400,-0.172,-0.12,1.644,-171.57,-199.707,-301.331,
00:00:16:416,-0.202,-0.164,1.564,52.551,-268.982,-250.916,
00:00:16:433,-0.239,-0.24,1.531,153.015,-332.398,-194.397,
00:00:16:450,-0.266,-0.296,1.496,165.222,-385.315,-140.076,
00:00:16:466,-0.29,-0.288,1.385,187.072,-418.824,-95.643,
00:00:16:483,-0.302,-0.288,1.331,198.303,-444.214,-63.294,
00:00:16:500,-0.318,-0.248,1.284,292.236,-469.483,-46.814,
00:00:16:516,-0.326,-0.248,1.206,383.178,-473.694,-31.617,
00:00:16:533,-0.326,-0.26,1.123,467.163,-480.713,-22.522,
00:00:16:550,-0.34,-0.28,1.072,524.658,-487.305,-8.362,
00:00:16:566,-0.337,-0.296,1.006,525.94,-479.615,7.751,
00:00:16:583,-0.326,-0.295,0.973,497.314,-480.835,24.963,
00:00:16:600,-0.346,-0.307,0.948,454.651,-484.498,31.433,
00:00:16:616,-0.353,-0.271,0.886,438.659,-473.145,34.606,
00:00:16:633,-0.362,-0.27,0.867,460.266,-470.704,35.888,
00:00:16:650,-0.346,-0.244,0.835,487.732,-467.469,22.766,
00:00:16:667,-0.378,-0.294,0.782,519.775,-474.854,10.498,
00:00:16:683,-0.386,-0.289,0.75,524.353,-483.765,-6.836,
00:00:16:700,-0.403,-0.315,0.707,527.893,-465.882,-12.146,
00:00:16:717,-0.38,-0.344,0.696,492.981,-464.478,-20.142,
00:00:16:733,-0.369,-0.341,0.675,469.421,-469.3,-29.236,
00:00:16:750,-0.395,-0.368,0.648,433.105,-479.371,-36.377,
00:00:16:767,-0.421,-0.386,0.615,390.014,-461.914,-30.64,
00:00:16:783,-0.412,-0.374,0.594,337.951,-442.017,-19.715,
00:00:16:800,-0.42,-0.395,0.558,288.818,-416.199,-10.071,
00:00:16:817,-0.424,-0.405,0.542,227.722,-402.283,1.159,
00:00:16:833,-0.435,-0.381,0.525,191.162,-373.414,11.901,
00:00:16:850,-0.435,-0.396,0.526,189.88,-352.356,13.732,
00:00:16:867,-0.446,-0.42,0.496,201.904,-327.149,14.709,
00:00:16:883,-0.455,-0.429,0.475,188.171,-301.575,19.775,
00:00:16:900,-0.458,-0.446,0.458,155.151,-269.593,21.728,
00:00:16:917,-0.46,-0.447,0.456,123.657,-235.291,25.024,
00:00:16:933,-0.454,-0.467,0.419,99.182,-207.276,24.78,
00:00:16:950,-0.489,-0.496,0.435,4.882,-144.043,20.752,
00:00:16:967,-0.488,-0.501,0.439,-33.57,-94.605,23.071,
00:00:16:983,-0.504,-0.505,0.438,-58.35,-75.074,22.277,
00:00:17:0,-0.512,-0.511,0.467,-54.2,-29.297,24.414,
00:00:17:17,-0.514,-0.518,0.476,-27.405,5.615,26.428,
00:00:17:33,-0.528,-0.544,0.478,-14.832,25.268,14.282,
00:00:17:50,-0.565,-0.582,0.475,-36.499,52.307,5.554,
00:00:17:67,-0.573,-0.567,0.478,-108.155,84.655,6.286,
00:00:17:83,-0.578,-0.535,0.475,-181.641,120.91,-0.611,
00:00:17:100,-0.587,-0.512,0.466,-228.272,153.747,-0.306,
00:00:17:117,-0.589,-0.478,0.491,-233.46,198.059,5.737,
00:00:17:133,-0.563,-0.434,0.513,-197.205,240.6,12.451,
00:00:17:150,-0.545,-0.447,0.528,-162.354,273.376,21.85,
00:00:17:167,-0.527,-0.444,0.507,-190.308,308.288,31.433,
00:00:17:183,-0.504,-0.447,0.474,-269.227,345.581,40.161,
00:00:17:200,-0.51,-0.451,0.476,-385.743,377.319,60.669,
00:00:17:217,-0.495,-0.381,0.54,-461.731,442.505,88.684,
00:00:17:233,-0.439,-0.297,0.612,-431.397,492.431,101.867,
00:00:17:250,-0.399,-0.304,0.617,-330.811,522.644,103.088,
00:00:17:267,-0.378,-0.363,0.576,-331.055,549.316,100.097,
00:00:17:283,-0.369,-0.372,0.595,-397.461,542.48,94.848,
00:00:17:300,-0.397,-0.379,0.624,-507.142,572.754,104.98,
00:00:17:317,-0.345,-0.343,0.642,-649.964,637.268,118.957,
00:00:17:333,-0.337,-0.28,0.687,-730.957,701.721,121.826,
00:00:17:350,-0.294,-0.235,0.718,-740.601,734.192,124.145,
00:00:17:367,-0.257,-0.144,0.737,-695.374,712.341,122.558,
00:00:17:383,-0.266,-0.099,0.791,-567.383,731.872,129.699,
00:00:17:400,-0.229,-0.135,0.85,-407.41,771.85,142.639,
00:00:17:417,-0.155,-0.177,0.944,-245.484,776.245,159.79,
00:00:17:433,-0.115,-0.291,1.055,-181.641,759.826,160.583,
00:00:17:450,-0.06,-0.427,1.141,-272.644,720.276,119.567,
00:00:17:467,-0.043,-0.489,1.149,-423.401,645.324,63.293,
00:00:17:483,-0.027,-0.467,1.188,-583.802,545.349,-7.019,
00:00:17:500,-0.04,-0.412,1.223,-642.518,491.699,-68.665,
00:00:17:517,-0.005,-0.346,1.298,-582.276,451.782,-130.738,
00:00:17:533,0.033,-0.326,1.334,-487,384.521,-204.773,
00:00:17:550,0.027,-0.358,1.337,-379.761,295.105,-280.762,
00:00:17:567,-0.01,-0.35,1.281,-276.49,244.873,-346.619,
00:00:17:583,-0.009,-0.342,1.26,-133.362,220.276,-385.621,
00:00:17:600,-0.037,-0.393,1.247,-34.363,225.097,-401.001,
00:00:17:617,0,-0.427,1.216,-80.201,240.173,-405.213,
00:00:17:633,0.037,-0.358,1.231,-150.635,218.933,-440.247,
00:00:17:650,0.113,-0.154,1.315,-81.177,65.979,-501.282,
00:00:17:667,0.086,-0.167,1.342,-13.672,29.174,-497.498,
00:00:17:683,0.087,-0.195,1.354,-88.868,-52.491,-503.174,
00:00:17:700,0.05,-0.215,1.302,-258.789,-113.526,-515.625,
00:00:17:717,0.04,-0.089,1.203,-372.254,-179.81,-497.986,
00:00:17:733,-0.016,-0.01,1.14,-273.011,-243.775,-468.506,
00:00:17:750,-0.025,-0.039,1.095,-277.955,-265.442,-453.553,
00:00:17:767,-0.04,0.033,1.031,-303.711,-324.83,-459.656,
00:00:17:783,-0.087,-0.002,1.012,-312.989,-354.004,-483.521,
00:00:17:800,-0.103,0.056,0.983,-333.558,-354.737,-506.287,
00:00:17:817,-0.111,-0.004,0.856,-383.545,-357.056,-513.916,
00:00:17:833,-0.105,0.001,0.821,-512.391,-374.329,-533.02,
00:00:17:850,-0.11,0.112,0.76,-502.869,-407.776,-541.199,
00:00:17:867,-0.179,0.168,0.746,-489.808,-403.443,-516.724,
00:00:17:883,-0.212,0.231,0.722,-461.121,-379.822,-491.7,
00:00:17:900,-0.251,0.189,0.727,-431.397,-320.923,-442.017,
00:00:17:917,-0.257,0.169,0.66,-485.596,-253.968,-409.668,
00:00:17:933,-0.265,0.157,0.593,-623.475,-215.027,-382.63,
00:00:17:950,-0.245,0.185,0.576,-795.166,-175.293,-367.249,
00:00:17:967,-0.221,0.213,0.59,-976.319,-148.255,-347.474,
00:00:17:983,-0.227,0.2,0.574,-1194.947,-123.291,-345.643,
00:00:18:0,-0.244,0.224,0.571,-1387.94,-87.342,-338.379,
00:00:18:17,-0.249,0.281,0.619,-1526.673,-40.894,-332.703,
00:00:18:33,-0.219,0.467,0.672,-1571.412,-8.912,-339.295,
00:00:18:50,-0.207,0.644,0.765,-1429.322,10.315,-352.051,
00:00:18:67,-0.209,0.699,0.825,-1178.101,39.794,-367.493,
00:00:18:83,-0.208,0.671,0.864,-924.256,74.585,-365.418,
00:00:18:100,-0.22,0.597,0.839,-824.219,112.548,-337.952,
00:00:18:117,-0.19,0.635,0.832,-861.023,99.426,-292.542,
00:00:18:133,-0.193,0.683,0.827,-915.894,53.588,-269.532,
00:00:18:150,-0.219,0.754,0.806,-944.947,4.577,-249.573,
00:00:18:167,-0.235,0.814,0.722,-945.435,19.287,-251.099,
00:00:18:183,-0.228,0.765,0.611,-944.886,19.836,-231.995,
00:00:18:200,-0.227,0.763,0.477,-1042.176,15.441,-200.684,
00:00:18:217,-0.171,0.776,0.51,-1105.835,4.577,-202.759,
00:00:18:233,-0.168,0.908,0.494,-1139.283,-13.184,-241.639,
00:00:18:250,-0.071,1.99,1.103,-972.229,-195.557,-246.582,
00:00:18:267,-0.152,2.2,0.91,-414.185,-107.972,-93.384,
00:00:18:283,-0.101,0.414,0.53,-218.384,-81.543,242.248,
00:00:18:300,-0.129,0.308,0.281,-658.692,-169.678,-26.795,
00:00:18:317,-0.098,0.839,0.288,-636.719,-113.343,-112.854,
00:00:18:333,-0.096,0.874,0.273,-409.058,-78.675,-75.623,
00:00:18:350,-0.146,1.181,0.384,-302.735,-156.922,-44.556,
00:00:18:367,-0.147,1.179,0.3,-137.635,-94.178,-23.926,
00:00:18:383,-0.139,0.883,0.269,-42.664,-119.507,45.471,
00:00:18:400,-0.135,0.822,0.276,-58.716,-120.545,18.249,
00:00:18:417,-0.145,0.978,0.296,7.446,-121.094,0.061,
00:00:18:433,-0.171,1.106,0.319,162.902,-122.925,8.667,
00:00:18:450,-0.185,1.182,0.369,336.731,-76.294,-2.32,
00:00:18:467,-0.16,0.986,0.301,623.718,-24.476,5.737,
00:00:18:483,-0.149,0.676,0.259,652.282,-15.137,7.141,
00:00:18:500,-0.151,0.778,0.328,458.74,-3.785,-27.649,
00:00:18:517,-0.149,0.878,0.421,369.445,-3.418,-58.35,
00:00:18:533,-0.177,0.834,0.485,351.135,9.643,-45.166,
00:00:18:550,-0.161,0.794,0.538,337.89,30.456,-31.311,
00:00:18:567,-0.151,0.802,0.56,289.001,34.24,-22.828,
00:00:18:583,-0.149,0.77,0.552,193.725,30.212,-12.879,
00:00:18:600,-0.149,0.78,0.537,97.045,22.033,-3.846,
00:00:18:617,-0.15,0.808,0.509,48.278,16.906,3.601,
00:00:18:633,-0.151,0.806,0.493,12.268,19.592,7.812,
00:00:18:650,-0.148,0.809,0.479,-26.49,24.353,5.004,
00:00:18:667,-0.144,0.83,0.471,-49.256,18.859,0.488,
00:00:18:683,-0.148,0.842,0.468,-47.059,18.737,5.493,
00:00:18:700,-0.155,0.835,0.468,-50.049,23.071,-1.465,
00:00:18:717,-0.158,0.861,0.454,-49.927,28.564,-5.249,
00:00:18:733,-0.156,0.869,0.451,-19.349,31.738,-11.17,
00:00:18:750,-0.156,0.857,0.463,7.019,28.991,-11.963,
00:00:18:767,-0.156,0.858,0.463,21.789,28.076,-12.818,
00:00:18:783,-0.159,0.862,0.473,42.663,27.71,-12.269,
00:00:18:800,-0.154,0.847,0.469,53.039,27.648,-13.184,
00:00:18:817,-0.148,0.848,0.458,59.997,26.977,-7.264,
00:00:18:833,-0.145,0.845,0.464,68.786,31.433,-7.691,
00:00:18:850,-0.145,0.844,0.492,83.923,24.719,-6.165,
00:00:18:867,-0.155,0.834,0.499,81.97,37.414,-2.625,
00:00:18:883,-0.154,0.834,0.487,106.201,36.56,-7.325,
00:00:18:900,-0.16,0.837,0.475,127.99,39.245,-8.912,
00:00:18:917,-0.158,0.823,0.481,126.892,42.724,-13.306,
00:00:18:933,-0.153,0.823,0.489,113.22,39.184,-13.611,
00:00:18:950,-0.14,0.803,0.524,102.478,23.437,-18.067,
00:00:18:967,-0.14,0.807,0.551,86.12,0.671,-16.175,
00:00:18:983,-0.136,0.776,0.563,84.777,-15.809,-12.269,
00:00:19:0,-0.15,0.804,0.549,79.65,-18.738,4.089,breakEggRH
00:00:19:17,-0.152,0.824,0.493,97.961,-2.808,0.793,
00:00:19:33,-0.151,0.838,0.489,155.029,12.023,-1.099,
00:00:19:50,-0.165,0.791,0.504,155.822,3.601,-3.357,
00:00:19:67,-0.181,0.792,0.544,106.262,8.3,-1.77,
00:00:19:83,-0.176,0.795,0.501,83.252,5.127,3.845,
00:00:19:100,-0.183,0.795,0.51,77.758,16.174,-9.278,
00:00:19:117,-0.172,0.797,0.552,46.63,28.015,-12.757,
00:00:19:133,-0.163,0.789,0.557,31.555,29.357,-15.442,
00:00:19:150,-0.148,0.796,0.542,40.649,31.005,-18.677,
00:00:19:167,-0.151,0.782,0.544,36.315,10.742,0.61,
00:00:19:183,-0.167,0.794,0.52,-42.603,17.578,-1.587,
00:00:19:200,-0.166,0.827,0.528,-61.402,23.742,-15.442,
00:00:19:217,-0.179,0.836,0.556,-8.606,47.241,-17.212,
00:00:19:233,-0.181,0.855,0.612,36.499,73.181,-8.789,
00:00:19:250,-0.18,0.874,0.627,78.125,113.403,6.897,
00:00:19:267,-0.188,0.849,0.574,157.287,133.972,-1.648,
00:00:19:283,-0.221,0.899,0.639,239.441,149.841,11.474,
00:00:19:300,-0.194,0.943,0.717,314.087,177.551,54.565,
00:00:19:317,-0.161,0.989,0.769,424.011,151.489,86.364,
00:00:19:333,-0.173,1.005,0.791,559.997,107.422,125.854,
00:00:19:350,-0.19,1.007,0.758,714.294,53.588,178.588,
00:00:19:367,-0.165,0.962,0.732,813.72,8.606,231.933,
00:00:19:383,-0.164,0.821,0.701,702.88,-90.088,274.597,
00:00:19:400,-0.209,0.757,0.731,523.376,-178.589,309.143,
00:00:19:417,-0.183,0.733,0.736,337.829,-228.76,343.261,
00:00:19:433,-0.211,0.756,0.683,233.642,-287.781,362.182,
00:00:19:450,-0.234,0.67,0.631,212.402,-301.514,380.31,
00:00:19:467,-0.226,0.638,0.6,197.754,-303.956,376.77,
00:00:19:483,-0.237,0.559,0.546,248.047,-313.416,356.018,
00:00:19:500,-0.257,0.442,0.474,220.825,-292.176,333.557,
00:00:19:517,-0.265,0.362,0.356,181.396,-259.583,313.232,
00:00:19:533,-0.278,0.166,0.341,47.424,-223.877,274.414,
00:00:19:550,-0.288,0.107,0.382,-199.402,-171.448,218.078,
00:00:19:567,-0.321,0.24,0.309,-228.211,-73.304,98.327,
00:00:19:583,-0.398,0.282,0.216,130.615,152.099,-31.434,
00:00:19:600,-0.426,0.509,0.22,743.713,455.81,-211.67,
00:00:19:617,-0.404,0.267,0.357,1380.859,792.419,-317.566,
00:00:19:633,-0.341,0.193,0.496,1468.383,1082.092,-355.957,
00:00:19:650,-0.256,0.501,0.668,1396.545,1309.692,-331.665,
00:00:19:667,-0.06,0.685,0.963,1499.145,1440.124,-183.045,
00:00:19:683,0.314,0.917,1.051,1503.784,1302.002,6.958,
00:00:19:700,0.5,0.731,1.699,-297.608,597.961,306.152,
00:00:19:717,0.26,0.861,2.529,-397.767,-190.857,228.027,
00:00:19:733,-0.173,0.348,1.667,411.987,-306.336,33.752,
00:00:19:750,0.01,-0.067,0.762,615.783,-275.513,-51.026,
00:00:19:767,0.064,-0.019,0.83,-361.695,-667.359,-114.563,
00:00:19:783,-0.204,-0.067,0.804,-901.856,-734.131,-92.347,
00:00:19:800,-0.179,0.95,0.713,-1162.781,-750.123,-116.089,
00:00:19:817,-0.338,0.947,0.508,-104.92,-542.176,-56.458,
00:00:19:833,-0.445,0.302,0.202,535.522,-200.867,-35.035,
00:00:19:850,-0.408,0.113,0.116,469.665,116.394,-21.668,
00:00:19:867,-0.394,0.197,0.272,296.997,449.096,5.493,
00:00:19:883,-0.3,0.374,0.366,400.024,781.494,-0.489,
00:00:19:900,-0.173,0.481,0.628,780.029,1044.738,-18.189,
00:00:19:917,0.24,-0.566,1.869,425.048,917.053,190.063,
00:00:19:933,0.903,0.008,3.664,-706.604,24.047,187.439,
00:00:19:950,-0.084,1.383,1.699,165.649,-520.691,-287.232,
00:00:19:967,-0.361,0.38,0.567,663.574,-142.334,-29.053,
00:00:19:983,0.157,-0.295,0.99,295.105,-208.069,-85.877,
00:00:20:0,-0.005,0.272,1.001,-460.267,-638.916,-131.592,
00:00:20:17,-0.216,0.493,0.959,-491.578,-585.267,-98.145,
00:00:20:33,-0.133,0.375,0.872,-439.881,-546.998,-71.778,
00:00:20:50,-0.23,0.439,0.765,-437.134,-577.881,-36.377,
00:00:20:67,-0.33,0.419,0.711,-360.657,-472.962,29.357,
00:00:20:83,-0.315,0.431,0.648,-307.618,-368.592,51.391,
00:00:20:100,-0.301,0.413,0.635,-312.561,-297.242,121.399,
00:00:20:117,-0.348,0.418,0.694,-385.56,-227.356,138.733,
00:00:20:133,-0.358,0.442,0.729,-424.622,-112.732,165.771,
00:00:20:150,-0.355,0.393,0.693,-522.828,-35.645,168.579,
00:00:20:167,-0.362,0.434,0.683,-570.069,46.752,157.653,
00:00:20:183,-0.33,0.396,0.679,-578.37,113.159,177.368,
00:00:20:200,-0.349,0.467,0.693,-550.11,135.437,137.939,
00:00:20:217,-0.337,0.411,0.722,-503.174,202.392,154.113,
00:00:20:233,-0.331,0.437,0.71,-473.023,218.139,115.722,
00:00:20:250,-0.332,0.416,0.734,-513.794,247.253,115.295,
00:00:20:267,-0.311,0.507,0.748,-518.25,261.718,91.064,
00:00:20:283,-0.291,0.55,0.797,-453.309,281.25,88.195,
00:00:20:300,-0.288,0.611,0.813,-378.724,297.912,63.598,
00:00:20:317,-0.275,0.64,0.771,-216.492,279.48,66.955,
00:00:20:333,-0.254,0.591,0.771,-148.743,240.295,87.89,
00:00:20:350,-0.28,0.588,0.754,-185.059,234.68,91.369,
00:00:20:367,-0.275,0.617,0.73,-252.442,244.873,102.844,
00:00:20:383,-0.247,0.606,0.741,-313.66,233.032,107.422,
00:00:20:400,-0.244,0.588,0.782,-356.629,207.092,103.393,
00:00:20:417,-0.248,0.656,0.809,-367.554,183.715,96.801,
00:00:20:433,-0.256,0.7,0.77,-324.646,178.222,94.604,
00:00:20:450,-0.245,0.712,0.738,-289.002,172.851,104.004,
00:00:20:467,-0.253,0.795,0.698,-150.696,184.143,89.294,
00:00:20:483,-0.247,0.744,0.691,-27.161,190.429,84.961,
00:00:20:500,-0.233,0.718,0.712,96.74,185.485,67.382,
00:00:20:517,-0.227,0.723,0.732,250.671,187.988,48.95,
00:00:20:533,-0.207,0.682,0.754,369.812,172.79,27.71,
00:00:20:550,-0.231,0.726,0.743,462.707,181.152,10.742,
00:00:20:567,-0.206,0.723,0.725,661.193,207.031,4.882,
00:00:20:583,-0.177,0.657,0.759,811.462,201.599,-13.733,
00:00:20:600,-0.206,0.562,0.736,905.334,197.143,-37.11,
00:00:20:617,-0.192,0.422,0.771,831.909,211.67,-32.227,
00:00:20:633,-0.159,0.396,0.807,701.416,216.369,-33.631,
00:00:20:650,-0.136,0.31,0.837,520.507,168.884,-15.748,
00:00:20:667,-0.149,0.348,0.851,292.358,141.418,-0.489,
00:00:20:683,-0.161,0.426,0.836,171.203,132.141,6.408,
00:00:20:700,-0.152,0.504,0.813,220.337,141.662,-19.776,
00:00:20:717,-0.12,0.438,0.879,236.877,104.492,2.441,
00:00:20:733,-0.154,0.514,0.904,356.079,107.605,-22.034,
00:00:20:750,-0.14,0.447,0.888,406.616,113.281,-25.147,
00:00:20:767,-0.145,0.442,0.852,458.007,115.661,-38.453,
00:00:20:783,-0.14,0.407,0.826,534.179,122.985,-49.744,
00:00:20:800,-0.136,0.356,0.808,588.379,133.728,-46.692,
00:00:20:817,-0.118,0.296,0.868,577.392,125,-43.702,
00:00:20:833,-0.12,0.3,0.894,518.615,123.23,-41.199,
00:00:20:850,-0.129,0.291,0.903,462.951,116.76,-33.326,
00:00:20:867,-0.117,0.248,0.939,384.765,109.924,-32.532,
00:00:20:883,-0.118,0.206,0.904,301.391,129.333,-16.419,
00:00:20:900,-0.085,0.21,0.905,183.593,111.633,-35.584,
00:00:20:917,-0.074,0.168,0.877,39.428,94.665,-32.044,
00:00:20:933,-0.077,0.307,0.951,-83.435,58.593,-41.26,
00:00:20:950,-0.099,0.327,0.963,-44.312,55.603,-38.697,
00:00:20:967,-0.11,0.314,0.973,-15.015,50.964,-35.645,
00:00:20:983,-0.084,0.298,0.949,46.875,45.471,-13.916,
00:00:21:0,-0.102,0.25,0.977,-11.353,1.648,-16.968,
00:00:21:17,-0.142,0.324,0.929,7.507,3.723,-26.856,
00:00:21:33,-0.098,0.245,1,-85.877,-13.855,7.324,
00:00:21:50,-0.12,0.337,1.016,-79.224,-5.249,23.925,
00:00:21:67,-0.12,0.277,1.017,-106.69,-8.301,23.193,
00:00:21:83,-0.133,0.287,0.987,-87.891,-12.146,18.31,
00:00:21:100,-0.125,0.287,0.975,-70.618,-7.752,18.798,
00:00:21:117,-0.125,0.29,0.967,-21.79,-3.724,16.906,
00:00:21:133,-0.121,0.275,1.004,7.08,-5.555,7.568,
00:00:21:150,-0.113,0.263,1.004,23.864,-12.33,-6.226,
00:00:21:167,-0.123,0.268,0.976,22.705,-16.541,-13.001,
00:00:21:183,-0.12,0.278,0.958,29.663,-8.851,-17.823,
00:00:21:200,-0.115,0.272,0.969,59.326,-6.836,-20.264,
00:00:21:217,-0.113,0.252,0.961,120.788,3.784,-15.625,
00:00:21:233,-0.103,0.264,0.989,88.623,-3.235,-13.977,
00:00:21:250,-0.121,0.269,0.989,70.739,-8.667,-14.283,
00:00:21:267,-0.117,0.258,1.003,73.181,-11.109,-9.644,
00:00:21:283,-0.126,0.354,1.022,121.582,-10.865,1.037,
00:00:21:300,-0.138,0.318,1.009,180.175,-1.099,13.794,
00:00:21:317,-0.131,0.285,1.01,250.671,7.08,23.254,
00:00:21:333,-0.145,0.248,1.043,329.773,15.197,42.175,
00:00:21:350,-0.146,0.275,1.092,351.562,22.705,69.397,
00:00:21:367,-0.132,0.171,1.104,364.624,20.629,79.101,
00:00:21:383,-0.148,0.194,1.095,326.904,15.075,111.084,
00:00:21:400,-0.145,0.225,1.105,395.935,15.197,140.808,
00:00:21:417,-0.164,0.17,1.15,414.55,1.953,164.062,
00:00:21:433,-0.157,0.183,1.089,512.207,13.305,186.218,
00:00:21:450,-0.15,0.115,1.135,539.428,4.028,199.585,
00:00:21:467,-0.144,0.055,1.186,541.259,-12.818,206.176,
00:00:21:483,-0.147,0.053,1.141,547.424,-19.227,216.552,
00:00:21:500,-0.121,0.021,1.146,523.01,-47.913,219.055,
00:00:21:517,-0.146,0.078,1.131,582.885,-58.045,233.581,
00:00:21:533,-0.151,0.051,1.121,626.831,-81.543,224.975,
00:00:21:550,-0.168,-0.05,1.109,636.963,-85.572,233.642,
00:00:21:567,-0.148,0.002,1.061,695.312,-100.769,243.347,
00:00:21:583,-0.166,-0.146,1.079,769.348,-123.23,263.549,
00:00:21:600,-0.154,-0.151,1.173,783.447,-177.979,255.798,
00:00:21:617,-0.144,-0.234,1.369,748.047,-274.903,212.951,
00:00:21:633,-0.175,-0.133,1.305,671.142,-339.844,199.34,
00:00:21:650,-0.195,-0.199,1.167,753.173,-347.229,177.429,
00:00:21:667,-0.152,-0.241,1.117,775.085,-413.758,142.639,
00:00:21:683,-0.183,-0.299,1.094,795.471,-469.483,116.15,
00:00:21:700,-0.187,-0.357,1.09,741.15,-496.644,84.716,
00:00:21:717,-0.185,-0.351,1.064,708.679,-541.565,54.138,
00:00:21:733,-0.214,-0.407,1.025,701.721,-583.985,19.348,
00:00:21:750,-0.242,-0.399,0.969,685.547,-615.662,-9.888,
00:00:21:767,-0.276,-0.413,0.929,672.058,-637.269,-21.851,
00:00:21:783,-0.304,-0.406,0.878,653.381,-636.292,-36.866,
00:00:21:800,-0.321,-0.397,0.86,655.395,-623.658,-52.063,
00:00:21:817,-0.322,-0.415,0.811,698.059,-613.099,-60.547,
00:00:21:833,-0.34,-0.436,0.748,685.302,-608.338,-63.355,
00:00:21:850,-0.365,-0.464,0.719,677.856,-604.92,-70.618,
00:00:21:867,-0.368,-0.475,0.687,648.925,-593.873,-78.919,
00:00:21:883,-0.396,-0.465,0.648,596.252,-582.764,-83.008,
00:00:21:900,-0.416,-0.426,0.59,574.585,-551.331,-89.051,
00:00:21:917,-0.417,-0.446,0.564,572.021,-515.381,-87.403,
00:00:21:933,-0.429,-0.438,0.512,581.237,-491.394,-73.487,
00:00:21:950,-0.439,-0.444,0.475,599.548,-455.201,-54.627,
00:00:21:967,-0.444,-0.489,0.468,564.88,-434.388,-44.007,
00:00:21:983,-0.455,-0.502,0.435,546.447,-411.133,-36.744,
00:00:22:0,-0.467,-0.496,0.428,503.784,-392.456,-25.757,
00:00:22:17,-0.48,-0.508,0.411,482.116,-370.362,-15.076,
00:00:22:33,-0.497,-0.533,0.401,476.989,-354.187,3.601,
00:00:22:50,-0.508,-0.561,0.359,444.275,-332.947,19.592,
00:00:22:67,-0.519,-0.607,0.352,418.213,-308.411,37.231,
00:00:22:83,-0.518,-0.623,0.338,351.013,-285.828,44.372,
00:00:22:100,-0.521,-0.628,0.316,310.424,-263.489,44.555,
00:00:22:117,-0.528,-0.623,0.313,282.348,-250.306,37.841,
00:00:22:133,-0.547,-0.644,0.302,273.681,-226.441,15.93,
00:00:22:150,-0.535,-0.688,0.266,267.151,-190.918,25.329,
00:00:22:167,-0.528,-0.734,0.235,219.604,-166.382,12.695,
00:00:22:183,-0.514,-0.752,0.224,145.568,-147.522,-6.47,
00:00:22:200,-0.531,-0.721,0.206,67.688,-138.062,-27.527,
00:00:22:217,-0.541,-0.715,0.208,13.427,-109.62,-47.73,
00:00:22:233,-0.556,-0.658,0.21,2.136,-72.388,-59.205,
00:00:22:250,-0.56,-0.629,0.2,54.443,-35.523,-65.003,
00:00:22:267,-0.567,-0.756,0.185,80.383,11.596,-57.007,
00:00:22:283,-0.558,-0.735,0.142,-2.137,41.931,-49.805,
00:00:22:300,-0.569,-0.756,0.146,-85.633,70.373,-45.166,
00:00:22:317,-0.594,-0.687,0.19,-164.368,108.154,-38.819,
00:00:22:333,-0.595,-0.64,0.193,-176.209,145.446,-31.25,
00:00:22:350,-0.606,-0.645,0.248,-149.72,192.26,-19.959,
00:00:22:367,-0.582,-0.646,0.262,-104.676,237.609,-3.174,
00:00:22:383,-0.587,-0.713,0.288,-88.929,260.864,8.178,
00:00:22:400,-0.572,-0.754,0.291,-134.4,292.846,12.329,
00:00:22:417,-0.554,-0.733,0.301,-246.399,287.841,12.085,
00:00:22:433,-0.589,-0.672,0.294,-331.727,302.185,13.122,
00:00:22:450,-0.577,-0.624,0.306,-366.028,339.477,30.395,
00:00:22:467,-0.573,-0.598,0.333,-364.136,384.582,57.678,
00:00:22:483,-0.529,-0.599,0.386,-343.14,433.044,85.998,
00:00:22:500,-0.503,-0.592,0.424,-344.239,451.599,104.98,
00:00:22:517,-0.486,-0.608,0.427,-370.85,468.261,113.952,
00:00:22:533,-0.474,-0.627,0.444,-427.308,468.017,120.605,
00:00:22:550,-0.466,-0.585,0.474,-493.287,477.295,126.159,
00:00:22:567,-0.456,-0.542,0.511,-507.935,504.211,138.366,
00:00:22:583,-0.448,-0.526,0.536,-492.188,517.7,151.489,
00:00:22:600,-0.432,-0.528,0.563,-473.023,539.611,166.442,
00:00:22:617,-0.418,-0.556,0.547,-498.902,561.035,178.894,
00:00:22:633,-0.406,-0.558,0.546,-548.157,569.03,193.603,
00:00:22:650,-0.398,-0.53,0.567,-616.15,586.975,209.167,
00:00:22:667,-0.374,-0.488,0.579,-674.622,622.009,225.036,
00:00:22:683,-0.342,-0.433,0.669,-643.738,677.978,253.173,
00:00:22:700,-0.278,-0.422,0.704,-575.074,722.046,281.921,
00:00:22:717,-0.222,-0.486,0.715,-580.384,728.82,282.837,
00:00:22:733,-0.18,-0.5,0.72,-673.89,717.407,279.907,
00:00:22:750,-0.165,-0.447,0.779,-771.485,696.777,280.212,
00:00:22:767,-0.157,-0.342,0.877,-794.678,733.947,295.044,
00:00:22:783,-0.083,-0.283,1,-657.227,793.823,320.129,
00:00:22:800,0.012,-0.321,1.1,-486.084,783.813,336.364,
00:00:22:817,0.065,-0.445,1.208,-366.15,711.242,332.702,
00:00:22:833,0.092,-0.561,1.335,-286.377,646.85,309.265,
00:00:22:850,0.158,-0.632,1.482,-258.179,558.41,263.488,
00:00:22:867,0.189,-0.706,1.617,-219.727,409.423,183.349,
00:00:22:883,0.202,-0.78,1.701,-151.246,292.114,90.881,
00:00:22:900,0.225,-0.837,1.76,-83.924,108.825,-20.752,
00:00:22:917,0.193,-0.832,1.742,-43.58,-94.178,-141.541,
00:00:22:933,0.158,-0.781,1.701,30.944,-243.287,-235.535,
00:00:22:950,0.112,-0.728,1.65,96.557,-392.884,-325.196,
00:00:22:967,0.058,-0.641,1.571,174.011,-497.01,-381.592,
00:00:22:983,0.038,-0.543,1.445,266.113,-592.835,-417.054,
00:00:23:0,-0.017,-0.481,1.356,356.994,-676.88,-442.566,
00:00:23:17,-0.067,-0.435,1.23,422.973,-712.769,-445.801,
00:00:23:33,-0.088,-0.381,1.109,460.632,-738.526,-437.684,
00:00:23:50,-0.111,-0.325,1.019,481.689,-769.41,-415.833,
00:00:23:67,-0.146,-0.281,0.976,528.808,-791.016,-388.001,
00:00:23:83,-0.192,-0.262,0.901,555.42,-792.908,-356.507,
00:00:23:100,-0.194,-0.264,0.792,566.406,-806.458,-324.463,
00:00:23:117,-0.222,-0.291,0.715,557.983,-826.722,-297.181,
00:00:23:133,-0.264,-0.297,0.616,510.131,-827.942,-263.062,
00:00:23:150,-0.306,-0.33,0.564,473.877,-827.637,-226.38,
00:00:23:167,-0.35,-0.327,0.496,461.242,-807.74,-201.416,
00:00:23:183,-0.386,-0.34,0.425,473.999,-767.09,-183.655,
00:00:23:200,-0.424,-0.381,0.361,472.29,-715.271,-164.978,
00:00:23:217,-0.464,-0.451,0.327,407.531,-632.691,-118.042,
00:00:23:233,-0.446,-0.483,0.241,330.383,-558.655,-108.582,
00:00:23:250,-0.506,-0.518,0.21,229.614,-494.751,-87.281,
00:00:23:267,-0.523,-0.48,0.181,119.262,-364.869,-61.89,
00:00:23:283,-0.526,-0.472,0.181,39.794,-280.823,-38.025,
00:00:23:300,-0.546,-0.479,0.178,-12.269,-163.758,-13.611,
00:00:23:317,-0.539,-0.465,0.165,-85.328,-42.237,4.638,
00:00:23:333,-0.551,-0.49,0.181,-154.358,74.707,26.001,
00:00:23:350,-0.554,-0.481,0.227,-219.361,209.411,54.565,
00:00:23:367,-0.528,-0.474,0.279,-265.442,324.585,86.608,
00:00:23:383,-0.52,-0.481,0.33,-290.833,425.476,115.112,
00:00:23:400,-0.486,-0.516,0.395,-302.857,517.395,138.549,
00:00:23:417,-0.441,-0.537,0.467,-316.224,581.359,145.446,
00:00:23:433,-0.412,-0.564,0.519,-370.911,604.614,139.038,
00:00:23:450,-0.401,-0.576,0.522,-470.154,620.056,113.525,
00:00:23:467,-0.391,-0.549,0.588,-537.232,635.254,89.721,
00:00:23:483,-0.362,-0.468,0.653,-587.464,649.475,68.969,
00:00:23:500,-0.335,-0.398,0.694,-555.787,657.165,44.189,
00:00:23:517,-0.308,-0.388,0.712,-503.724,666.87,35.522,
00:00:23:533,-0.271,-0.341,0.75,-450.989,673.889,35.705,
00:00:23:550,-0.238,-0.351,0.808,-432.496,644.958,32.287,
00:00:23:567,-0.237,-0.335,0.904,-431.031,620.056,24.169,
00:00:23:583,-0.21,-0.316,0.986,-398.316,610.717,38.391,
00:00:23:600,-0.169,-0.334,0.985,-434.693,565.49,39.611,
00:00:23:617,-0.168,-0.322,0.975,-472.107,515.442,26.855,
00:00:23:633,-0.163,-0.326,0.979,-544.739,478.454,12.878,
00:00:23:650,-0.137,-0.304,1.064,-574.158,452.697,9.521,
00:00:23:667,-0.125,-0.302,1.127,-584.168,421.447,-7.447,
00:00:23:683,-0.114,-0.355,1.136,-622.071,345.276,-44.312,
00:00:23:700,-0.125,-0.368,1.114,-707.642,310.974,-102.906,
00:00:23:717,-0.115,-0.333,1.093,-789.49,275.879,-152.71,
00:00:23:733,-0.126,-0.303,1.089,-811.341,264.221,-178.04,
00:00:23:750,-0.098,-0.259,1.122,-752.869,263.549,-174.134,
00:00:23:767,-0.079,-0.212,1.174,-669.922,256.469,-186.524,
00:00:23:783,-0.054,-0.187,1.178,-529.847,228.149,-179.688,
00:00:23:800,-0.058,-0.195,1.183,-440.491,193.176,-200.501,
00:00:23:817,-0.032,-0.206,1.189,-419.861,144.104,-248.291,
00:00:23:833,-0.026,-0.181,1.206,-401.246,110.901,-263.428,
00:00:23:850,-0.022,-0.155,1.229,-346.131,70.983,-290.467,
00:00:23:867,-0.035,-0.195,1.241,-333.313,56.579,-319.764,
00:00:23:883,-0.039,-0.157,1.261,-366.394,82.275,-367.737,
00:00:23:900,0.042,-0.181,1.165,-358.277,-24.292,-396.363,
00:00:23:917,0.005,-0.169,1.177,-364.685,-108.155,-440.491,
00:00:23:933,0.008,-0.153,1.171,-356.751,-138.794,-470.948,
00:00:23:950,0.027,-0.151,1.135,-388.733,-196.106,-519.288,
00:00:23:967,0.005,-0.084,1.09,-426.087,-261.475,-577.088,
00:00:23:983,-0.006,-0.047,1.054,-462.83,-303.467,-629.7,
00:00:24:0,0,0.013,1.018,-502.137,-362.977,-683.106,
00:00:24:17,-0.046,0.129,0.982,-498.78,-426.514,-717.102,
00:00:24:33,-0.092,0.202,0.918,-449.158,-452.149,-728.699,breakEggRH
00:00:24:50,-0.102,0.228,0.861,-413.941,-455.689,-734.375,
00:00:24:67,-0.187,0.267,0.833,-401.795,-446.778,-724.427,
00:00:24:83,-0.183,0.295,0.788,-393.067,-438.233,-709.778,
00:00:24:100,-0.215,0.274,0.737,-441.468,-415.711,-692.017,
00:00:24:117,-0.25,0.273,0.684,-552.552,-391.785,-675.599,
00:00:24:133,-0.282,0.314,0.645,-687.623,-360.474,-642.212,
00:00:24:150,-0.312,0.397,0.629,-786.56,-320.435,-593.811,
00:00:24:167,-0.328,0.466,0.601,-804.261,-277.832,-553.589,
00:00:24:183,-0.293,0.534,0.565,-788.575,-223.694,-495.362,
00:00:24:200,-0.338,0.585,0.635,-769.776,-191.895,-453.797,
00:00:24:217,-0.285,0.744,0.689,-500.855,-90.76,-414.551,
00:00:24:233,-0.26,0.506,0.751,-368.836,-47.303,-355.469,
00:00:24:250,-0.282,0.534,0.781,-434.205,-14.649,-354.248,
00:00:24:267,-0.255,0.539,0.751,-400.635,41.503,-323.731,
00:00:24:283,-0.253,0.54,0.753,-395.813,51.391,-297.303,
00:00:24:300,-0.241,0.522,0.795,-412.171,63.964,-286.194,
00:00:24:317,-0.228,0.525,0.815,-427.857,56.884,-284.852,
00:00:24:333,-0.237,0.51,0.79,-455.445,56.03,-281.556,
00:00:24:350,-0.218,0.549,0.742,-484.009,7.751,-282.288,
00:00:24:367,-0.239,0.494,0.753,-545.166,26.062,-273.926,
00:00:24:383,-0.227,0.54,0.806,-598.328,28.747,-272.156,
00:00:24:400,-0.199,0.623,0.844,-637.452,15.197,-261.78,
00:00:24:417,-0.201,0.731,0.804,-663.208,1.77,-259.705,
00:00:24:433,-0.198,0.775,0.815,-639.1,11.047,-241.089,
00:00:24:450,-0.18,0.801,0.763,-502.625,37.597,-229.126,
00:00:24:467,-0.146,0.756,0.744,-445.618,25.878,-218.506,
00:00:24:483,-0.121,0.753,0.723,-404.725,-9.522,-225.586,
00:00:24:500,-0.152,0.882,0.745,-355.957,-54.688,-194.031,
00:00:24:517,-0.098,1.005,0.872,-246.094,-19.776,-189.148,
00:00:24:533,-0.049,1.08,0.857,-189.454,-145.752,-155.945,
00:00:24:550,-0.186,0.947,0.742,-136.475,-209.839,-112.977,
00:00:24:567,-0.212,0.835,0.631,-107.605,-95.643,-62.378,
00:00:24:583,-0.15,0.777,0.524,-100.464,-40.772,-58.167,
00:00:24:600,-0.138,0.756,0.552,-1.587,-27.527,-59.876,
00:00:24:617,-0.165,0.759,0.627,23.681,10.437,-48.951,
00:00:24:633,-0.156,0.884,0.635,80.566,46.142,-30.396,
00:00:24:650,-0.162,0.927,0.671,114.502,36.254,3.112,
00:00:24:667,-0.186,0.871,0.679,177.002,41.687,27.587,
00:00:24:683,-0.171,0.725,0.664,176.33,47.302,48.706,
00:00:24:700,-0.15,0.635,0.632,106.628,40.466,37.597,
00:00:24:717,-0.158,0.667,0.64,30.639,28.442,10.009,
00:00:24:733,-0.167,0.7,0.677,59.692,32.348,-22.034,
00:00:24:750,-0.153,0.65,0.66,29.052,50.476,-20.935,
00:00:24:767,-0.096,0.68,0.647,-108.216,-8.851,-14.71,
00:00:24:783,-0.135,0.739,0.622,-134.522,-45.35,-16.236,
00:00:24:800,-0.132,0.702,0.605,-170.472,-18.921,-13.489,
00:00:24:817,-0.114,0.724,0.552,-183.167,-8.362,-24.781,
00:00:24:833,-0.135,0.745,0.556,-180.481,-13.245,-32.898,
00:00:24:850,-0.151,0.833,0.562,-134.034,13.977,-29.358,
00:00:24:867,-0.138,0.788,0.573,-95.887,39.856,-15.625,
00:00:24:883,-0.138,0.825,0.605,-85.083,31.25,-22.461,
00:00:24:900,-0.159,0.802,0.611,-15.809,65.307,-6.531,
00:00:24:917,-0.155,0.828,0.607,18.92,81.176,-7.386,
00:00:24:933,-0.15,0.804,0.645,70.19,96.984,0.793,
00:00:24:950,-0.15,0.771,0.625,119.384,110.656,3.418,
00:00:24:967,-0.145,0.781,0.637,160.156,126.709,5.065,
00:00:24:983,-0.145,0.79,0.621,204.589,130.31,3.845,
00:00:25:0,-0.154,0.802,0.611,252.807,161.01,3.906,
00:00:25:17,-0.116,0.787,0.598,325.744,166.748,3.723,
00:00:25:33,-0.126,0.778,0.604,384.704,155.09,15.93,
00:00:25:50,-0.121,0.733,0.662,393.066,158.752,19.104,
00:00:25:67,-0.12,0.725,0.698,359.863,161.255,26.306,
00:00:25:83,-0.127,0.712,0.719,338.684,161.987,43.945,
00:00:25:100,-0.139,0.68,0.739,273.986,170.471,72.387,
00:00:25:117,-0.149,0.625,0.72,121.093,166.015,122.619,
00:00:25:133,-0.163,0.671,0.698,-219.117,176.025,163.757,
00:00:25:150,-0.145,0.793,0.75,-418.396,152.343,196.411,
00:00:25:167,-0.132,0.869,0.778,-394.349,160.034,213.867,
00:00:25:183,-0.113,0.91,0.788,-230.408,131.836,217.895,
00:00:25:200,-0.14,1.046,0.801,48.034,102.111,214.172,
00:00:25:217,-0.16,1.044,0.833,338.989,91.919,242.37,
00:00:25:233,-0.162,1.044,0.832,616.211,93.261,268.005,
00:00:25:250,-0.151,0.929,0.832,837.829,69.091,293.213,
00:00:25:267,-0.147,0.815,0.834,908.63,18.615,315.063,
00:00:25:283,-0.143,0.78,0.837,955.139,-33.448,354.98,
00:00:25:300,-0.139,0.731,0.855,1047.973,-55.909,385.254,
00:00:25:317,-0.127,0.811,0.887,1187.194,-91.248,401.428,
00:00:25:333,-0.148,0.723,0.901,1426.208,-118.531,433.96,
00:00:25:350,-0.161,0.497,0.851,1554.809,-120.606,451.477,
00:00:25:367,-0.175,0.303,0.807,1515.38,-143.921,484.741,
00:00:25:383,-0.174,0.06,0.754,1257.812,-165.894,474.121,
00:00:25:400,-0.197,0.015,0.747,888.916,-208.313,440.857,
00:00:25:417,-0.212,-0.098,0.736,572.509,-212.952,398.986,
00:00:25:433,-0.219,-0.094,0.737,289.978,-218.995,333.801,
00:00:25:450,-0.225,-0.01,0.75,148.742,-218.445,246.948,
00:00:25:467,-0.218,0.029,0.727,159.362,-203.125,168.823,
00:00:25:483,-0.209,-0.035,0.638,219.177,-190.125,84.716,
00:00:25:500,-0.21,-0.079,0.504,141.601,-185.914,2.075,
00:00:25:517,-0.249,-0.12,0.366,-116.272,-170.411,-68.482,
00:00:25:533,-0.481,0.63,0.224,-121.644,421.753,-213.379,
00:00:25:550,-0.434,0.484,0.223,433.593,846.13,-154.725,
00:00:25:567,-0.404,0.372,0.268,766.967,1238.22,-87.281,
00:00:25:583,-0.236,0.219,0.578,903.32,1543.579,-23.804,
00:00:25:600,-0.011,0.27,0.966,1037.109,1624.267,39.428,
00:00:25:617,0.276,0.239,2.146,263.672,-899.903,-693.055,
00:00:25:633,-0.789,-0.229,0.758,-575.867,-661.072,-272.706,
00:00:25:650,0.199,0.307,1.265,-73.609,-291.443,-166.26,
00:00:25:667,0.243,0.114,1.229,-112.122,-854.371,-301.697,
00:00:25:683,-0.35,0.197,1.051,-37.537,-934.51,-289.307,
00:00:25:700,-0.245,0.027,0.643,-103.882,-692.749,-170.777,
00:00:25:717,-0.257,0.025,0.372,-337.098,-699.402,-136.78,
00:00:25:733,-0.451,0.214,0.244,-405.64,-451.233,-71.717,
00:00:25:750,-0.411,0.311,-0.01,-194.336,-51.331,5.004,
00:00:25:767,-0.378,0.266,-0.157,84.045,321.472,53.344,
00:00:25:783,-0.356,0.156,-0.084,334.533,697.448,56.823,
00:00:25:800,0.164,-0.165,0.883,526.611,1337.707,-33.631,
00:00:25:817,0.817,-1.639,2.106,-730.286,1045.044,728.149,
00:00:25:833,0.682,2.827,2.97,-1224.305,76.721,66.345,
00:00:25:850,0.207,-0.089,2.507,529.48,-403.504,-126.404,
00:00:25:867,-0.408,-0.253,0.867,912.658,-377.259,-82.276,
00:00:25:883,-0.123,-1.084,0.991,-228.577,-363.892,-210.389,
00:00:25:900,0.105,-0.036,1.014,-463.746,-446.656,-327.332,
00:00:25:917,-0.1,0.07,1.034,-256.897,-500.306,-272.95,
00:00:25:933,-0.12,-0.045,1.221,-318.604,-445.496,-220.276,
00:00:25:950,-0.08,0.388,0.979,-337.403,-408.387,-219.239,
00:00:25:967,-0.154,0.283,0.93,-154.175,-351.075,-97.107,
00:00:25:983,-0.14,0.057,0.753,-568.848,-130.066,145.507,
00:00:26:0,-0.165,0.106,0.757,-772.644,-92.469,176.086,
00:00:26:17,-0.138,0.245,0.818,-882.325,-144.288,170.532,
00:00:26:33,-0.232,0.306,0.837,-876.587,-28.443,156.494,
00:00:26:50,-0.192,0.303,0.814,-805.176,44.616,137.512,
00:00:26:67,-0.172,0.268,0.833,-833.374,44.86,130.005,
00:00:26:83,-0.191,0.27,0.838,-925.049,39.123,118.53,
00:00:26:100,-0.193,0.367,0.847,-995.362,36.193,113.586,
00:00:26:117,-0.194,0.393,0.906,-1031.434,17.517,91.552,
00:00:26:133,-0.203,0.501,0.948,-1079.773,-0.123,80.444,
00:00:26:150,-0.198,0.514,0.844,-1028.565,3.845,75.622,
00:00:26:167,-0.218,0.65,0.803,-770.997,-20.508,164.489,
00:00:26:183,-0.231,0.703,0.823,-586.976,-19.41,175.476,
00:00:26:200,-0.237,0.646,0.744,-502.198,9.948,185.791,
00:00:26:217,-0.251,0.695,0.701,-628.785,-22.644,172.058,
00:00:26:233,-0.292,0.839,0.677,-454.834,14.831,162.109,
00:00:26:250,-0.264,0.621,0.662,-377.137,42.358,166.259,
00:00:26:267,-0.277,0.821,0.683,-380.799,32.714,137.756,
00:00:26:283,-0.314,0.911,0.753,-117.005,53.894,104.553,
00:00:26:300,-0.323,0.841,0.733,162.292,105.285,86.669,
00:00:26:317,-0.255,0.755,0.661,455.322,152.649,65.551,
00:00:26:333,-0.192,0.613,0.677,575.5,131.53,44.311,
00:00:26:350,-0.205,0.562,0.697,335.998,90.942,42.48,
00:00:26:367,-0.224,0.568,0.726,289.245,78.308,32.47,
00:00:26:383,-0.23,0.597,0.728,289.856,86.059,34.606,
00:00:26:400,-0.196,0.64,0.744,380.127,86.486,14.892,
00:00:26:417,-0.232,0.595,0.767,412.414,67.81,9.399,
00:00:26:433,-0.232,0.554,0.767,405.761,97.045,5.065,
00:00:26:450,-0.213,0.486,0.759,357.666,105.102,-5.738,
00:00:26:467,-0.212,0.483,0.765,304.26,98.083,-24.048,
00:00:26:483,-0.223,0.436,0.823,174.133,71.96,-2.564,
00:00:26:500,-0.205,0.56,0.834,286.071,111.45,-21.302,
00:00:26:517,-0.163,0.553,0.806,414.856,85.388,-13.428,
00:00:26:533,-0.201,0.483,0.788,536.926,72.387,-18.555,
00:00:26:550,-0.194,0.338,0.815,334.045,97.656,-31.128,
00:00:26:567,-0.186,0.314,0.792,237.06,104.126,-37.354,
00:00:26:583,-0.179,0.289,0.85,44.494,86.059,-30.579,
00:00:26:600,-0.178,0.442,0.88,-27.466,84.594,-31.006,
00:00:26:617,-0.182,0.459,0.853,63.171,87.036,-40.467,
00:00:26:633,-0.165,0.405,0.86,258.117,100.036,-42.237,
00:00:26:650,-0.178,0.406,0.877,276.977,107.055,-45.227,
00:00:26:667,-0.172,0.366,0.871,283.691,127.502,-41.26,
00:00:26:683,-0.17,0.355,0.847,272.644,133.728,-48.951,
00:00:26:700,-0.172,0.328,0.847,243.469,149.231,-42.42,
00:00:26:717,-0.165,0.374,0.933,161.071,154.48,-43.946,
00:00:26:733,-0.153,0.397,0.934,219.787,175.964,-33.265,
00:00:26:750,-0.137,0.351,0.947,240.417,172.851,-19.898,
00:00:26:767,-0.137,0.34,0.963,244.751,169.311,-8.789,
00:00:26:783,-0.133,0.314,1,258.545,166.504,5.31,
00:00:26:800,-0.113,0.299,1.022,227.722,147.338,13.61,
00:00:26:817,-0.108,0.325,1.059,188.659,110.534,20.874,
00:00:26:833,-0.11,0.317,1.052,147.4,99.426,47.851,
00:00:26:850,-0.114,0.322,0.984,99.304,49.194,47.668,
00:00:26:867,-0.097,0.267,1.039,187.988,9.155,51.025,
00:00:26:883,-0.117,0.227,1.136,211.67,-27.1,74.585,
00:00:26:900,-0.115,0.265,1.101,178.772,-49.561,88.684,
00:00:26:917,-0.131,0.259,1.087,140.38,-48.34,94.787,
00:00:26:933,-0.146,0.259,1.057,148.986,-31.861,87.463,
00:00:26:950,-0.132,0.272,1.029,226.745,-34.119,83.496,
00:00:26:967,-0.129,0.259,1.043,383.422,-33.631,94.848,
00:00:26:983,-0.123,0.248,1.137,482.177,-40.772,112.976,
00:00:27:0,-0.117,0.211,1.185,608.398,-57.984,124.084,
00:00:27:17,-0.134,0.156,1.223,681.396,-83.497,126.892,
00:00:27:33,-0.138,0.088,1.231,760.742,-100.098,136.657,
00:00:27:50,-0.151,0.06,1.261,721.069,-129.639,153.747,
00:00:27:67,-0.156,0.023,1.292,716.491,-166.932,171.753,
00:00:27:83,-0.173,0.012,1.321,693.176,-206.421,176.086,
00:00:27:100,-0.177,-0.022,1.312,719.97,-239.563,174.438,
00:00:27:117,-0.183,-0.107,1.287,715.149,-288.819,178.894,
00:00:27:133,-0.208,-0.098,1.227,685.974,-342.347,183.471,
00:00:27:150,-0.239,-0.139,1.212,681.457,-375,196.106,
00:00:27:167,-0.253,-0.171,1.193,702.514,-385.621,191.284,
00:00:27:183,-0.262,-0.162,1.164,736.267,-403.565,186.645,
00:00:27:200,-0.266,-0.2,1.147,761.413,-428.345,178.772,
00:00:27:217,-0.277,-0.242,1.098,788.513,-442.505,158.935,
00:00:27:233,-0.282,-0.3,1.039,816.345,-458.741,132.385,
00:00:27:250,-0.297,-0.322,0.977,794.922,-472.535,118.469,
00:00:27:267,-0.317,-0.348,0.96,744.445,-489.197,104.309,
00:00:27:283,-0.332,-0.348,0.98,683.471,-499.634,86.425,
00:00:27:300,-0.34,-0.324,0.96,636.23,-504.944,73.303,
00:00:27:317,-0.352,-0.284,0.898,661.377,-498.841,63.171,
00:00:27:333,-0.346,-0.348,0.854,691.467,-498.108,46.02,
00:00:27:350,-0.338,-0.346,0.817,722.656,-502.564,23.254,
00:00:27:367,-0.362,-0.384,0.809,715.21,-505.616,13.122,
00:00:27:383,-0.363,-0.391,0.788,682.495,-501.282,3.54,
00:00:27:400,-0.364,-0.413,0.755,627.075,-500.428,2.746,
00:00:27:417,-0.377,-0.399,0.73,550.842,-501.465,2.929,
00:00:27:433,-0.381,-0.409,0.69,498.596,-497.01,1.586,
00:00:27:450,-0.396,-0.416,0.647,471.13,-490.418,8.667,
00:00:27:467,-0.411,-0.415,0.621,483.947,-476.258,16.967,
00:00:27:483,-0.417,-0.445,0.594,476.318,-468.934,23.193,
00:00:27:500,-0.443,-0.443,0.577,464.233,-453.37,26.001,
00:00:27:517,-0.451,-0.469,0.543,458.13,-424.073,28.503,
00:00:27:533,-0.431,-0.496,0.486,440.857,-405.518,30.273,
00:00:27:550,-0.439,-0.501,0.456,416.87,-394.165,28.015,
00:00:27:567,-0.422,-0.517,0.431,388.61,-377.808,27.16,
00:00:27:583,-0.392,-0.513,0.408,395.385,-371.399,24.841,
00:00:27:600,-0.374,-0.542,0.397,389.526,-372.254,21.423,
00:00:27:617,-0.387,-0.566,0.372,340.515,-383.728,27.648,
00:00:27:633,-0.41,-0.583,0.345,278.137,-398.682,26.123,
00:00:27:650,-0.45,-0.556,0.326,209.716,-403.138,27.71,
00:00:27:667,-0.48,-0.516,0.31,207.275,-398.621,17.089,
00:00:27:683,-0.528,-0.583,0.279,224.67,-369.263,3.723,
00:00:27:700,-0.553,-0.673,0.272,230.102,-333.497,-14.039,
00:00:27:717,-0.574,-0.701,0.273,195.922,-310.425,-25.452,
00:00:27:733,-0.595,-0.744,0.267,147.644,-287.049,-31.8,
00:00:27:750,-0.624,-0.744,0.258,84.167,-259.705,-37.049,
00:00:27:767,-0.647,-0.746,0.262,47.424,-220.581,-40.955,
00:00:27:783,-0.658,-0.719,0.26,41.015,-176.514,-49.134,
00:00:27:800,-0.665,-0.721,0.273,50.354,-134.705,-56.031,
00:00:27:817,-0.663,-0.73,0.296,71.716,-91.675,-56.763,
00:00:27:833,-0.649,-0.749,0.276,71.777,-51.575,-59.021,
00:00:27:850,-0.648,-0.742,0.264,19.775,-26.612,-60.12,
00:00:27:867,-0.643,-0.722,0.291,-18.067,0.305,-61.951,
00:00:27:883,-0.636,-0.692,0.321,-51.514,30.883,-63.904,
00:00:27:900,-0.621,-0.648,0.316,-65.918,51.574,-63.843,
00:00:27:917,-0.619,-0.66,0.313,-47.486,78.002,-55.726,
00:00:27:933,-0.607,-0.657,0.297,-40.284,108.764,-38.697,
00:00:27:950,-0.585,-0.649,0.324,-65.857,118.53,-20.386,
00:00:27:967,-0.577,-0.624,0.349,-85.022,130.981,-2.991,
00:00:27:983,-0.572,-0.612,0.357,-96.497,140.075,2.929,
00:00:28:0,-0.582,-0.598,0.368,-112.488,140.319,7.751,
00:00:28:17,-0.584,-0.597,0.394,-101.99,160.156,13.671,
00:00:28:33,-0.568,-0.594,0.394,-116.944,171.875,20.263,
00:00:28:50,-0.56,-0.609,0.397,-120.667,176.33,26.916,
00:00:28:67,-0.572,-0.629,0.407,-149.903,169.372,31.189,
00:00:28:83,-0.568,-0.592,0.426,-161.622,168.09,47.241,
00:00:28:100,-0.568,-0.564,0.44,-141.358,156.311,51.208,
00:00:28:117,-0.586,-0.558,0.483,-119.446,174.377,43.762,
00:00:28:133,-0.554,-0.553,0.485,-109.253,189.026,29.296,
00:00:28:150,-0.555,-0.559,0.453,-100.037,185.547,20.263,
00:00:28:167,-0.565,-0.627,0.429,-57.862,177.673,24.414,
00:00:28:183,-0.558,-0.689,0.396,-169.373,170.532,45.715,
00:00:28:200,-0.577,-0.631,0.411,-312.378,158.325,54.321,
00:00:28:217,-0.57,-0.572,0.455,-406.8,180.542,75.378,
00:00:28:233,-0.548,-0.499,0.482,-391.968,209.838,79.345,
00:00:28:250,-0.524,-0.491,0.5,-312.317,233.764,82.641,
00:00:28:267,-0.501,-0.548,0.494,-277.344,245.91,77.514,
00:00:28:283,-0.516,-0.667,0.438,-374.329,259.765,65.246,
00:00:28:300,-0.505,-0.667,0.396,-567.627,271.057,64.575,
00:00:28:317,-0.533,-0.585,0.384,-762.635,297.302,57.8,
00:00:28:333,-0.542,-0.483,0.438,-839.112,356.14,68.359,
00:00:28:350,-0.52,-0.413,0.571,-748.291,435.608,77.636,
00:00:28:367,-0.446,-0.382,0.641,-557.679,506.408,73.059,
00:00:28:383,-0.399,-0.5,0.617,-438.721,544.983,27.71,
00:00:28:400,-0.359,-0.649,0.568,-533.936,547.18,-32.166,
00:00:28:417,-0.368,-0.651,0.567,-724.488,518.921,-75.074,
00:00:28:433,-0.383,-0.564,0.593,-959.107,540.283,-87.098,
00:00:28:450,-0.39,-0.392,0.699,-1013.489,600.83,-83.252,
00:00:28:467,-0.343,-0.283,0.85,-881.897,653.381,-85.144,
00:00:28:483,-0.312,-0.254,0.969,-642.212,690.124,-115.418,
00:00:28:500,-0.307,-0.36,0.988,-505.372,699.34,-151.001,
00:00:28:517,-0.307,-0.453,0.955,-555.298,681.823,-178.223,
00:00:28:533,-0.295,-0.424,0.984,-682.862,636.352,-175.477,
00:00:28:550,-0.302,-0.347,1.116,-731.507,628.845,-172.181,
00:00:28:567,-0.243,-0.287,1.178,-688.782,625.183,-176.575,
00:00:28:583,-0.21,-0.279,1.205,-640.625,581.97,-210.267,
00:00:28:600,-0.218,-0.297,1.191,-607.666,544.311,-252.93,
00:00:28:617,-0.187,-0.307,1.164,-588.746,477.844,-286.133,
00:00:28:633,-0.168,-0.243,1.182,-577.149,397.644,-325.867,
00:00:28:650,-0.17,-0.199,1.188,-497.803,357.483,-349.549,
00:00:28:667,-0.14,-0.139,1.212,-405.945,339.416,-370.972,
00:00:28:683,-0.097,-0.069,1.261,-234.131,296.203,-400.452,
00:00:28:700,-0.091,-0.222,1.207,-112.671,296.508,-414.246,
00:00:28:717,-0.035,-0.304,1.206,-145.997,239.99,-439.759,
00:00:28:733,0.003,-0.27,1.247,-278.077,140.808,-454.59,
00:00:28:750,-0.011,-0.171,1.265,-337.464,46.203,-479.615,
00:00:28:767,-0.053,-0.138,1.219,-348.633,-15.564,-492.31,
00:00:28:783,-0.044,-0.105,1.186,-341.858,-61.463,-534.852,
00:00:28:800,-0.047,-0.156,1.181,-303.894,-114.624,-563.66,
00:00:28:817,-0.061,-0.104,1.14,-296.753,-168.213,-609.864,
00:00:28:833,-0.067,-0.063,1.08,-238.038,-220.093,-661.56,
00:00:28:850,-0.102,-0.107,1.029,-218.873,-250.611,-708.191,
00:00:28:867,-0.102,-0.084,0.988,-285.157,-277.283,-766.663,
00:00:28:883,-0.111,-0.032,0.954,-336.548,-320.252,-826.539,
00:00:28:900,-0.123,0.003,0.914,-390.381,-346.497,-873.475,
00:00:28:917,-0.115,0.003,0.858,-482.056,-370.362,-912.964,
00:00:28:933,-0.092,-0.014,0.814,-662.659,-398.377,-933.35,
00:00:28:950,-0.069,0.156,0.71,-723.267,-445.496,-1010.804,
00:00:28:967,-0.095,0.204,0.7,-761.841,-496.827,-1044.434,
00:00:28:983,-0.142,0.37,0.76,-814.698,-572.449,-1069.703,
00:00:29:0,-0.212,0.517,0.831,-747.437,-600.464,-1035.767,
00:00:29:17,-0.325,0.554,0.834,-644.165,-524.781,-971.253,
00:00:29:33,-0.334,0.626,0.83,-499.024,-456.971,-865.235,
00:00:29:50,-0.382,0.613,0.768,-376.343,-393.86,-737.427,
00:00:29:67,-0.435,0.59,0.792,-342.102,-327.332,-602.723,breakEggRH
00:00:29:83,-0.458,0.599,0.78,-380.066,-234.009,-472.535,
00:00:29:100,-0.467,0.626,0.765,-402.771,-140.931,-339.661,
00:00:29:117,-0.447,0.631,0.802,-429.261,-72.51,-212.098,
00:00:29:133,-0.43,0.679,0.856,-416.871,13.305,-113.648,
00:00:29:150,-0.378,0.645,0.882,-322.266,79.162,-35.279,
00:00:29:167,-0.351,0.584,0.848,-224.976,108.825,21.24,
00:00:29:183,-0.347,0.507,0.781,-184.937,118.713,73.608,
00:00:29:200,-0.342,0.475,0.73,-198.548,129.455,93.75,
00:00:29:217,-0.329,0.455,0.739,-209.961,124.511,87.951,
00:00:29:233,-0.318,0.445,0.821,-227.539,117.248,60.363,
00:00:29:250,-0.31,0.47,0.895,-258.606,109.619,22.338,
00:00:29:267,-0.3,0.521,0.962,-301.392,80.2,-1.221,
00:00:29:283,-0.344,0.537,1.028,-394.288,46.814,-5.677,
00:00:29:300,-0.305,0.61,1.106,-491.761,3.051,11.901,
00:00:29:317,-0.288,0.861,1.277,-375.123,-48.706,67.199,
00:00:29:333,-0.283,0.852,0.855,-10.621,10.376,173.278,
00:00:29:350,-0.294,0.177,0.645,173.889,9.826,181.64,
00:00:29:367,-0.275,0.506,0.776,-53.345,-58.655,146.057,
00:00:29:383,-0.289,0.532,0.734,-138.489,-11.719,179.504,
00:00:29:400,-0.284,0.415,0.713,-269.41,28.625,169.922,
00:00:29:417,-0.262,0.569,0.742,-327.027,65.612,134.033,
00:00:29:433,-0.254,0.569,0.707,-272.828,130.493,123.047,
00:00:29:450,-0.249,0.615,0.711,-184.082,164.306,98.632,
00:00:29:467,-0.246,0.643,0.722,-55.176,197.143,74.768,
00:00:29:483,-0.258,0.614,0.732,67.627,217.407,55.786,
00:00:29:500,-0.269,0.595,0.741,130.066,214.66,40.283,
00:00:29:517,-0.284,0.598,0.742,153.869,216.369,32.592,
00:00:29:533,-0.29,0.564,0.775,127.624,205.383,32.348,
00:00:29:550,-0.295,0.547,0.802,74.951,184.936,35.217,
00:00:29:567,-0.3,0.582,0.786,29.785,167.053,38.574,
00:00:29:583,-0.291,0.562,0.781,33.935,140.319,41.503,
00:00:29:600,-0.285,0.591,0.777,9.643,109.314,46.264,
00:00:29:617,-0.287,0.576,0.767,-11.719,83.618,46.936,
00:00:29:633,-0.292,0.58,0.763,-28.321,71.228,45.349,
00:00:29:650,-0.273,0.578,0.766,-19.898,60.607,36.254,
00:00:29:667,-0.26,0.551,0.775,-10.132,47.119,24.78,
00:00:29:683,-0.254,0.552,0.776,-10.071,43.029,11.413,
00:00:29:700,-0.245,0.556,0.776,-6.226,36.377,2.807,
00:00:29:717,-0.246,0.574,0.762,-2.869,35.156,-7.691,
00:00:29:733,-0.234,0.58,0.761,39.794,36.132,-0.794,
00:00:29:750,-0.236,0.556,0.784,66.65,38.574,-0.306,
00:00:29:767,-0.237,0.545,0.783,50.903,40.893,0.61,
00:00:29:783,-0.246,0.552,0.785,41.198,36.865,-4.456,
00:00:29:800,-0.25,0.536,0.798,40.893,41.992,2.319,
00:00:29:817,-0.258,0.536,0.785,27.282,39.611,-9.461,
00:00:29:833,-0.269,0.562,0.776,46.63,53.344,-14.527,
00:00:29:850,-0.26,0.517,0.778,20.202,59.997,-8.118,
00:00:29:867,-0.25,0.559,0.786,-17.273,50.231,-21.18,
00:00:29:883,-0.256,0.58,0.77,-6.897,51.696,-18.677,
00:00:29:900,-0.264,0.58,0.772,10.742,62.072,-7.996,
00:00:29:917,-0.258,0.543,0.781,-21.546,60.791,-7.019,
00:00:29:933,-0.246,0.557,0.784,-25.086,60.791,-15.137,
00:00:29:950,-0.234,0.539,0.791,13,56.884,-26.734,
00:00:29:967,-0.219,0.527,0.791,5.493,53.588,-32.837,
00:00:29:983,-0.229,0.546,0.778,-25.086,40.222,-37.476,
00:00:30:0,-0.236,0.557,0.782,-52.308,40.649,-29.297,
00:00:30:17,-0.229,0.561,0.781,-60.242,37.719,-25.635,
00:00:30:33,-0.243,0.57,0.792,-13.001,41.687,-26.307,
00:00:30:50,-0.246,0.566,0.811,17.822,36.804,-19.288,
00:00:30:67,-0.243,0.565,0.843,27.038,27.099,-11.963,
00:00:30:83,-0.242,0.574,0.875,35.095,6.591,-2.991,
00:00:30:100,-0.247,0.584,0.906,54.748,-16.785,9.277,
00:00:30:117,-0.261,0.625,0.953,111.877,-39.307,22.583,
00:00:30:133,-0.263,0.648,0.955,230.59,-41.748,50.109,
00:00:30:150,-0.252,0.614,0.953,349.487,-51.026,67.81,
00:00:30:167,-0.281,0.59,0.93,470.031,-59.632,68.908,
00:00:30:183,-0.268,0.45,0.917,361.511,-67.444,133.667,
00:00:30:200,-0.269,0.542,0.909,210.693,-131.714,123.962,
00:00:30:217,-0.299,0.547,0.925,201.782,-160.706,127.929,
00:00:30:233,-0.331,0.48,0.931,247.375,-120.545,143.493,
00:00:30:250,-0.28,0.533,0.865,273.62,-122.742,125.244,
00:00:30:267,-0.289,0.534,0.879,346.923,-179.871,132.141,
00:00:30:283,-0.324,0.49,0.859,367.553,-184.449,128.662,
00:00:30:300,-0.324,0.551,0.851,361.816,-175.415,124.939,
00:00:30:317,-0.324,0.52,0.774,319.458,-156.25,161.01,
00:00:30:333,-0.341,0.432,0.73,361.45,-90.821,177.002,
00:00:30:350,-0.314,0.367,0.66,317.321,-47.852,186.157,
00:00:30:367,-0.28,0.41,0.637,285.4,-120.057,207.58,
00:00:30:383,-0.363,0.342,0.657,248.291,-106.446,204.651,
00:00:30:400,-0.348,0.268,0.611,164.672,-40.162,205.139,
00:00:30:417,-0.315,0.207,0.527,15.136,10.009,195.556,
00:00:30:433,-0.316,0.215,0.546,-81.238,66.772,170.532,
00:00:30:450,-0.294,0.224,0.52,-30.091,123.23,114.318,
00:00:30:467,-0.332,0.323,0.531,271.118,223.266,39.733,
00:00:30:483,-0.416,0.205,0.498,556.945,463.684,16.235,
00:00:30:500,-0.414,0.719,1.157,869.751,969.726,-139.649,
00:00:30:517,-0.324,0.609,1.357,1091.797,917.785,-26.123,
00:00:30:533,-0.314,0.003,1.015,1065.063,985.778,86.731,
00:00:30:550,0.831,-1.09,2.403,318.054,827.392,392.944,
00:00:30:567,0.429,0.724,1.896,70.373,-510.193,-236.817,
00:00:30:583,-0.822,-0.019,0.95,413.025,-599.732,28.137,
00:00:30:600,-0.313,-0.531,0.815,-87.952,-111.084,44.799,
00:00:30:617,0.258,0.056,0.993,-433.655,-395.813,-31.983,
00:00:30:633,-0.186,0.445,1.065,-26.734,-630.127,-77.759,
00:00:30:650,-0.379,-0.023,0.829,271.301,-368.348,-81.055,
00:00:30:667,-0.205,-0.203,0.565,115.234,-247.803,-109.131,
00:00:30:683,-0.388,0.041,0.378,242.553,355.59,-31.434,
00:00:30:700,-0.365,0.093,0.556,190.368,543.579,-44.129,
00:00:30:717,-0.322,0.25,0.782,235.168,742.065,-28.87,
00:00:30:733,-0.172,0.168,0.971,360.717,899.597,39.794,
00:00:30:750,-0.062,-0.797,1.154,133.3,959.411,83.129,
00:00:30:767,0.345,0.621,1.51,-804.932,345.031,77.026,
00:00:30:783,-0.1,1.46,1.811,-67.505,1.77,242.675,
00:00:30:800,-0.157,-0.342,1.75,462.097,-87.891,126.22,
00:00:30:817,-0.276,-0.329,0.959,222.351,-157.166,-2.686,
00:00:30:833,-0.249,-0.226,0.854,-197.144,-165.772,-72.266,
00:00:30:850,-0.071,0.014,0.845,-171.021,-107.239,-136.658,
00:00:30:867,-0.052,0.214,0.929,41.748,-146.119,-136.78,
00:00:30:883,-0.08,0.035,0.991,148.62,-137.818,-130.86,
00:00:30:900,-0.087,0.03,1.027,39.917,-150.696,-127.869,
00:00:30:917,-0.108,0.134,1.02,-4.212,-168.58,-75.257,
00:00:30:933,-0.189,0.103,0.964,5.554,-163.025,-53.589,
00:00:30:950,-0.192,0.023,0.999,-171.509,-117.615,53.527,
00:00:30:967,-0.198,0.146,1.024,-379.761,-147.278,46.569,
00:00:30:983,-0.231,0.167,0.966,-338.257,-107.056,90.515,
00:00:31:0,-0.247,0.121,0.902,-390.198,-68.543,105.713,
00:00:31:17,-0.225,0.112,0.852,-427.613,-30.945,105.346,
00:00:31:33,-0.225,0.091,0.864,-499.756,-5.982,122.253,
00:00:31:50,-0.249,0.138,0.887,-602.295,4.638,134.643,
00:00:31:67,-0.237,0.126,0.91,-621.033,37.414,138.305,
00:00:31:83,-0.262,0.202,0.929,-639.832,23.62,129.882,
00:00:31:100,-0.267,0.244,0.931,-552.857,55.664,123.169,
00:00:31:117,-0.253,0.255,0.92,-482.727,61.645,121.765,
00:00:31:133,-0.256,0.26,0.9,-481.751,61.035,126.403,
00:00:31:150,-0.253,0.288,0.925,-512.391,58.044,131.286,
00:00:31:167,-0.257,0.343,0.938,-493.714,60.058,159.851,
00:00:31:183,-0.242,0.385,0.959,-388.306,54.382,169.799,
00:00:31:200,-0.254,0.437,0.934,-252.442,54.565,171.997,
00:00:31:217,-0.281,0.466,0.893,-91.004,64.758,175.537,
00:00:31:233,-0.277,0.447,0.906,65.307,88.745,172.424,
00:00:31:250,-0.26,0.324,0.905,139.892,80.261,195.19,
00:00:31:267,-0.211,0.38,1.014,118.042,-11.963,182.495,
00:00:31:283,-0.314,0.325,1.009,143.31,64.636,194.824,
00:00:31:300,-0.286,0.297,0.933,120.056,157.653,194.397,
00:00:31:317,-0.227,0.369,0.893,153.137,167.907,191.467,
00:00:31:333,-0.247,0.38,0.909,244.567,172.851,193.359,
00:00:31:350,-0.21,0.342,0.94,373.596,193.359,183.776,
00:00:31:367,-0.205,0.239,0.972,405.944,178.1,173.339,
00:00:31:383,-0.171,0.196,1,438.232,166.504,158.508,
00:00:31:400,-0.174,0.192,0.968,387.024,142.944,160.034,
00:00:31:417,-0.192,0.15,0.892,314.026,141.174,155.639,
00:00:31:433,-0.177,0.131,0.866,228.088,155.7,144.409,
00:00:31:450,-0.162,0.185,0.886,125.488,144.836,142.028,
00:00:31:467,-0.16,0.265,0.906,135.131,134.033,130.005,
00:00:31:483,-0.162,0.238,0.924,203.308,115.051,98.999,
00:00:31:500,-0.156,0.247,0.984,250.976,104.736,62.866,
00:00:31:517,-0.161,0.211,0.963,282.776,109.253,51.452,
00:00:31:533,-0.145,0.126,0.948,217.773,98.144,45.227,
00:00:31:550,-0.143,0.142,0.937,211.609,82.092,40.71,
00:00:31:567,-0.157,0.121,0.928,179.87,84.289,33.142,
00:00:31:583,-0.136,0.143,0.939,170.288,90.087,35.095,
00:00:31:600,-0.132,0.136,0.942,203.857,84.228,22.399,
00:00:31:617,-0.148,0.091,0.948,170.471,87.646,28.503,
00:00:31:633,-0.138,0.1,0.956,103.637,95.947,22.644,
00:00:31:650,-0.132,0.133,0.946,88.256,93.383,14.404,
00:00:31:667,-0.128,0.128,0.943,146.057,98.877,5.92,
00:00:31:683,-0.127,0.092,0.963,163.757,103.698,9.582,
00:00:31:700,-0.11,0.082,0.991,140.625,100.463,11.169,
00:00:31:717,-0.122,0.091,0.97,150.695,94.055,1.22,
00:00:31:733,-0.118,0.08,0.984,117.92,90.698,5.249,
00:00:31:750,-0.127,0.084,0.988,78.186,88.134,-4.09,
00:00:31:767,-0.121,0.083,0.972,59.814,95.336,-9.156,
00:00:31:783,-0.095,0.103,0.965,51.147,98.51,-20.325,
00:00:31:800,-0.101,0.075,0.994,29.419,75.5,-22.889,
00:00:31:817,-0.117,0.09,0.999,23.254,75.744,-21.424,
00:00:31:833,-0.104,0.061,0.989,19.592,85.449,-18.738,
00:00:31:850,-0.094,0.067,0.971,-13.428,66.894,-9.827,
00:00:31:867,-0.112,0.111,0.989,-30.152,81.054,1.586,
00:00:31:883,-0.103,0.12,0.996,21.606,83.801,2.746,
00:00:31:900,-0.108,0.061,0.996,63.293,87.707,-3.602,
00:00:31:917,-0.105,0.034,1.001,40.771,85.937,-2.808,
00:00:31:933,-0.102,0.027,0.986,-36.805,89.172,-1.099,
00:00:31:950,-0.103,0.087,1.01,-59.51,81.054,1.953,
00:00:31:967,-0.09,0.168,1.051,72.937,77.88,-4.883,
00:00:31:983,-0.101,0.058,1.038,206.848,77.331,-9.705,
00:00:32:0,-0.092,-0.035,1.065,162.963,67.81,-21.363,
00:00:32:17,-0.071,0.006,1.079,122.741,40.893,-38.392,
00:00:32:33,-0.081,0.028,1.089,143.432,14.648,-48.157,
00:00:32:50,-0.092,0.032,1.088,184.57,16.601,-37.171,
00:00:32:67,-0.089,0.023,1.05,212.89,10.864,-28.443,
00:00:32:83,-0.098,-0.01,1.07,296.875,10.498,-13.489,
00:00:32:100,-0.063,-0.011,1.194,292.48,5.737,5.981,
00:00:32:117,-0.077,-0.086,1.213,288.818,-23.133,11.535,
00:00:32:133,-0.105,-0.101,1.166,278.686,-39.551,9.094,
00:00:32:150,-0.095,-0.1,1.218,286.682,-54.688,28.198,
00:00:32:167,-0.099,-0.08,1.214,321.716,-86.731,50.537,
00:00:32:183,-0.103,-0.095,1.221,330.444,-109.07,78.674,
00:00:32:200,-0.084,-0.1,1.328,427.307,-155.884,87.951,
00:00:32:217,-0.117,-0.145,1.349,441.772,-203.553,102.722,
00:00:32:233,-0.141,-0.198,1.308,448.425,-239.991,116.76,
00:00:32:250,-0.156,-0.254,1.275,406.86,-279.725,133.484,
00:00:32:267,-0.167,-0.206,1.309,372.619,-335.755,161.377,
00:00:32:283,-0.198,-0.233,1.292,373.596,-345.765,178.222,
00:00:32:300,-0.205,-0.229,1.259,387.756,-389.771,186.828,
00:00:32:317,-0.245,-0.246,1.292,397.583,-420.533,191.406,
00:00:32:333,-0.28,-0.257,1.269,374.939,-420.899,195.068,
00:00:32:350,-0.248,-0.239,1.245,496.46,-425.538,189.636,
00:00:32:367,-0.242,-0.281,1.156,540.039,-457.215,206.054,
00:00:32:383,-0.265,-0.211,1.061,559.997,-468.567,205.139,
00:00:32:400,-0.249,-0.172,0.983,511.23,-477.784,172.424,
00:00:32:417,-0.253,-0.243,1.003,496.521,-502.625,142.944,
00:00:32:433,-0.249,-0.221,0.958,492.675,-523.438,124.023,
00:00:32:450,-0.256,-0.189,0.93,499.084,-550.965,119.018,
00:00:32:467,-0.265,-0.218,0.827,549.682,-556.031,94.177,
00:00:32:483,-0.258,-0.264,0.762,558.654,-575.623,77.209,
00:00:32:500,-0.28,-0.269,0.715,513.488,-588.807,56.152,
00:00:32:517,-0.288,-0.326,0.695,426.025,-595.154,20.69,
00:00:32:533,-0.284,-0.327,0.659,405.151,-592.164,10.07,
00:00:32:550,-0.288,-0.326,0.6,367.37,-575.257,0.671,
00:00:32:567,-0.315,-0.332,0.566,332.397,-554.871,-6.47,
00:00:32:583,-0.33,-0.35,0.552,320.739,-518.677,-8.606,
00:00:32:600,-0.346,-0.381,0.555,298.889,-487.061,-8.545,
00:00:32:617,-0.353,-0.417,0.536,229.858,-455.506,-21.546,
00:00:32:633,-0.351,-0.415,0.486,128.723,-417.054,-42.054,
00:00:32:650,-0.382,-0.317,0.425,59.082,-380.31,-60.242,
00:00:32:667,-0.407,-0.313,0.378,82.58,-300.904,-43.213,
00:00:32:683,-0.396,-0.285,0.361,135.62,-223.45,-28.809,
00:00:32:700,-0.414,-0.27,0.329,195.251,-144.41,-8.789,
00:00:32:717,-0.409,-0.317,0.252,188.415,-57.74,-2.015,
00:00:32:733,-0.408,-0.354,0.192,53.1,9.155,2.014,
00:00:32:750,-0.422,-0.317,0.147,-92.652,110.534,16.967,
00:00:32:767,-0.421,-0.291,0.098,-236.939,232.483,48.034,
00:00:32:783,-0.431,-0.184,0.062,-346.192,372.436,108.52,
00:00:32:800,-0.447,-0.113,0.043,-374.939,546.569,174.194,
00:00:32:817,-0.459,-0.147,0.103,-396.058,746.521,253.296,
00:00:32:833,-0.425,-0.219,0.147,-500.061,957.214,347.229,
00:00:32:850,-0.395,-0.291,0.264,-596.741,1122.436,446.716,
00:00:32:867,-0.335,-0.34,0.501,-643.921,1293.457,544.799,
00:00:32:883,-0.226,-0.346,0.817,-581.116,1417.358,627.929,
00:00:32:900,-0.096,-0.405,1.249,-347.352,1508.239,665.466,
00:00:32:917,0.107,-0.601,1.768,-10.01,1426.88,637.085,
00:00:32:933,0.306,-0.978,1.98,277.221,1167.358,519.714,
00:00:32:950,0.407,-1.356,2.092,294.677,801.757,323.669,
00:00:32:967,0.445,-1.501,2.165,62.439,334.106,53.283,
00:00:32:983,0.303,-1.371,2.087,-197.205,-124.817,-235.352,
00:00:33:0,0.158,-1.054,1.877,-318.36,-456.299,-481.202,
00:00:33:17,0.077,-0.718,1.615,-323.121,-738.526,-626.893,
00:00:33:33,-0.024,-0.43,1.35,-211.182,-918.519,-677.796,
00:00:33:50,-0.041,-0.239,1.029,-109.375,-1069.275,-654.664,
00:00:33:67,-0.211,-0.064,0.527,-167.908,-1107.666,-560.364,
00:00:33:83,-0.393,0.146,0.094,-302.613,-1047.791,-388.306,
00:00:33:100,-0.661,0.471,-0.109,-199.707,-835.206,-117.554,
00:00:33:117,-0.951,0.592,-0.271,106.811,-242.737,180.114,
00:00:33:133,-0.798,0.372,-0.464,285.766,431.945,513.549,
00:00:33:150,-0.489,-0.019,-0.34,96.923,854.675,751.281,
00:00:33:167,-0.261,-0.267,0.118,-129.212,1163.757,929.26,
00:00:33:183,0.038,-0.381,0.724,-235.23,1349.426,963.44,
00:00:33:200,0.306,-0.543,1.171,-109.07,1314.697,848.816,
00:00:33:217,0.645,-0.875,1.727,252.807,974.914,572.631,
00:00:33:233,0.644,-1.407,2.03,471.862,420.41,184.387,
00:00:33:250,0.516,-1.625,1.964,332.946,-106.446,-246.766,
00:00:33:267,0.391,-1.436,1.804,15.441,-541.687,-622.437,
00:00:33:283,0.218,-0.971,1.502,-270.569,-965.943,-856.08,
00:00:33:300,-0.076,-0.453,1.171,-397.95,-1177.124,-902.527,
00:00:33:317,-0.353,0.103,0.688,-368.287,-1136.719,-770.813,
00:00:33:334,-0.638,0.528,0.373,-39.429,-894.165,-482.85,
00:00:33:350,-0.818,0.505,0.26,357.483,-345.215,-92.53,
00:00:33:367,-0.667,0.266,0.087,481.628,154.968,276.794,
00:00:33:384,-0.467,-0.095,0.241,324.768,499.267,566.589,
00:00:33:400,0.248,-0.581,1.284,72.204,618.103,554.748,
00:00:33:417,0.441,-0.922,1.631,389.465,312.317,254.272,
00:00:33:434,0.432,-1.268,1.598,527.282,-164.185,-140.32,
00:00:33:450,0.28,-1.369,1.414,407.653,-549.683,-531.983,
00:00:33:467,0.07,-1.144,1.155,153.93,-843.567,-815.979,
00:00:33:484,-0.062,-0.817,0.963,-62.745,-1080.14,-936.951,
00:00:33:500,-0.334,-0.408,0.703,-275.025,-1139.161,-910.401,
00:00:33:517,-0.539,-0.043,0.347,-268.616,-968.628,-705.872,
00:00:33:534,-0.723,0.233,0.325,-23.438,-584.229,-408.265,
00:00:33:550,-0.781,0.274,0.251,258.117,-214.661,-103.394,
00:00:33:567,-0.745,0.051,0.213,366.821,173.156,179.809,
00:00:33:584,-0.547,-0.125,0.393,332.763,451.172,410.034,
00:00:33:600,-0.376,-0.296,0.572,247.314,598.693,538.879,
00:00:33:617,-0.209,-0.395,0.668,133.667,624.023,555.359,
00:00:33:634,-0.106,-0.499,0.801,80.627,554.809,498.84,
00:00:33:650,-0.059,-0.631,0.847,71.777,405.517,412.353,
00:00:33:667,-0.1,-0.699,0.833,4.638,270.08,314.392,
00:00:33:684,-0.158,-0.703,0.736,-125.855,180.175,215.149,
00:00:33:700,-0.218,-0.642,0.637,-250.428,129.211,129.028,
00:00:33:717,-0.264,-0.529,0.56,-339.783,124.817,66.284,
00:00:33:734,-0.294,-0.405,0.503,-359.803,156.372,35.217,
00:00:33:750,-0.293,-0.365,0.501,-277.527,230.346,53.466,
00:00:33:767,-0.266,-0.367,0.581,-193.238,298.645,85.083,
00:00:33:784,-0.242,-0.387,0.616,-120.667,362.854,119.018,
00:00:33:800,-0.186,-0.431,0.696,-101.99,447.57,127.258,
00:00:33:817,-0.087,-0.483,0.785,-112.244,490.173,125.671,
00:00:33:834,-0.004,-0.493,0.841,-161.927,494.262,105.896,
00:00:33:850,0.031,-0.521,0.844,-228.882,477.478,82.214,
00:00:33:867,0.071,-0.495,0.894,-308.228,445.068,60.669,
00:00:33:884,0.092,-0.473,0.966,-341.004,420.166,52.429,
00:00:33:900,0.091,-0.448,1.012,-363.587,386.413,25.756,
00:00:33:917,0.106,-0.409,1.042,-356.507,375.854,-3.296,
00:00:33:934,0.126,-0.452,1.058,-351.563,351.379,-47.364,
00:00:33:950,0.131,-0.436,1.069,-365.54,315.185,-102.723,
00:00:33:967,0.137,-0.418,1.052,-359.009,278.564,-143.372,
00:00:33:984,0.1,-0.452,1.069,-401.917,251.098,-193.421,
00:00:34:0,0.105,-0.42,1.049,-445.618,221.618,-223.572,
00:00:34:17,0.09,-0.382,1.03,-480.408,193.603,-251.16,
00:00:34:34,0.074,-0.324,1.012,-513.611,170.41,-270.569,
00:00:34:50,0.066,-0.298,1.052,-538.208,170.349,-272.583,
00:00:34:67,0.064,-0.238,1.073,-528.687,164.428,-267.212,
00:00:34:84,0.051,-0.223,1.096,-512.269,156.921,-271.546,
00:00:34:100,0.063,-0.197,1.1,-484.07,157.776,-263.55,
00:00:34:117,0.084,-0.206,1.098,-461.243,129.76,-258.484,
00:00:34:134,0.073,-0.217,1.095,-458.313,89.172,-248.291,
00:00:34:150,0.047,-0.224,1.099,-498.291,83.313,-242.066,
00:00:34:167,0.037,-0.102,1.227,-596.924,163.391,-262.452,
00:00:34:184,0.143,-0.076,1.17,-571.778,-19.165,-249.634,
00:00:34:200,0.07,-0.057,1.238,-473.633,-117.981,-262.513,
00:00:34:217,0.051,-0.141,1.244,-396.119,-152.405,-286.988,
00:00:34:234,0.069,-0.18,1.219,-352.906,-211.243,-311.707,
00:00:34:250,0.05,-0.204,1.188,-364.014,-283.753,-330.201,
00:00:34:267,0.031,-0.214,1.165,-421.509,-340.332,-359.009,
00:00:34:284,0.011,-0.153,1.143,-467.53,-389.344,-357.911,
00:00:34:300,-0.008,-0.107,1.088,-445.923,-422.669,-377.32,
00:00:34:317,-0.012,-0.035,1.019,-338.196,-451.111,-397.217,
00:00:34:334,-0.072,-0.017,0.944,-239.685,-472.229,-422.73,
00:00:34:350,-0.062,-0.026,0.922,-227.112,-469.056,-438.965,
00:00:34:367,-0.066,0.008,0.888,-244.568,-479.554,-471.192,
00:00:34:384,-0.066,0.044,0.858,-232.056,-487.122,-490.052,
00:00:34:400,-0.105,0.019,0.811,-259.583,-490.174,-507.813,
00:00:34:417,-0.133,0.057,0.772,-300.293,-452.027,-519.776,
00:00:34:434,-0.142,0.117,0.728,-306.885,-414.49,-530.579,
00:00:34:450,-0.159,0.149,0.69,-272.767,-377.625,-545.716,
00:00:34:467,-0.175,0.197,0.701,-226.319,-336.792,-560.303,
00:00:34:484,-0.181,0.204,0.719,-155.335,-301.697,-585.999,
00:00:34:500,-0.198,0.21,0.719,-70.984,-274.231,-619.996,
00:00:34:517,-0.217,0.181,0.734,-20.203,-236.451,-644.715,
00:00:34:534,-0.224,0.156,0.753,-51.087,-195.496,-661.622,
00:00:34:550,-0.239,0.113,0.76,-167.664,-176.27,-671.326,
00:00:34:567,-0.251,0.133,0.803,-346.253,-170.96,-689.942,
00:00:34:584,-0.264,0.211,0.83,-452.332,-167.42,-708.985,
00:00:34:600,-0.271,0.268,0.854,-449.891,-211.731,-703.919,
00:00:34:617,-0.236,0.352,0.984,-368.775,-259.949,-715.21,
00:00:34:634,-0.333,0.335,1.037,-197.998,-159.852,-691.468,
00:00:34:650,-0.311,0.3,1.046,-60.669,-42.664,-636.841,
00:00:34:667,-0.271,0.285,1.035,-40.467,14.831,-590.088,
00:00:34:684,-0.262,0.258,1.002,-82.764,49.621,-530.091,
00:00:34:700,-0.274,0.234,0.981,-196.961,105.163,-471.863,
00:00:34:717,-0.26,0.287,0.995,-319.764,139.892,-420.105,
00:00:34:734,-0.239,0.371,1.006,-356.019,164.795,-364.319,
00:00:34:750,-0.24,0.376,1.024,-322.815,176.513,-316.59,
00:00:34:767,-0.226,0.392,0.994,-276.734,189.514,-277.405,
00:00:34:784,-0.215,0.406,0.956,-227.295,199.096,-248.597,
00:00:34:800,-0.189,0.403,0.875,-207.886,205.688,-223.999,
00:00:34:817,-0.185,0.448,0.85,-216.126,179.565,-223.816,
00:00:34:834,-0.188,0.466,0.819,-183.899,190.918,-195.313,
00:00:34:850,-0.146,0.451,0.887,-166.871,161.743,-204.895,
00:00:34:867,-0.121,0.461,0.955,-173.645,159.118,-236.329,
00:00:34:884,-0.096,0.499,1.02,-279.786,51.94,-185.181,
00:00:34:900,-0.113,0.502,1.088,-383.362,114.38,-216.858,
00:00:34:917,-0.12,0.565,1.233,-578.003,67.443,-177.979,
00:00:34:934,-0.098,0.986,1.435,-383.362,-1.526,-95.032,
00:00:34:950,-0.072,0.522,0.97,-216.98,-62.806,44.616,
00:00:34:967,-0.195,0.32,0.762,-237.549,-127.259,63.171,
00:00:34:984,-0.112,0.465,0.801,-403.382,-103.211,83.923,
00:00:35:0,-0.134,0.46,0.808,-401.001,-71.045,64.636,
00:00:35:17,-0.109,0.516,0.819,-345.154,-8.973,22.583,
00:00:35:34,-0.101,0.54,0.824,-206.665,54.138,4.943,
00:00:35:50,-0.103,0.551,0.812,-142.945,80.2,-4.029,
00:00:35:67,-0.089,0.616,0.784,-142.029,103.942,-41.993,
00:00:35:84,-0.065,0.642,0.828,-3.235,52.124,57.983,breakEggRH
00:00:35:100,-0.068,0.523,0.817,10.986,42.175,63.72,
00:00:35:117,-0.09,0.515,0.816,-15.87,38.024,55.481,
00:00:35:134,-0.096,0.564,0.804,-41.016,20.752,34.24,
00:00:35:150,-0.096,0.599,0.796,-42.176,9.277,36.01,
00:00:35:167,-0.112,0.572,0.796,-13.855,-0.55,30.09,
00:00:35:184,-0.118,0.552,0.814,-6.714,0.366,25.94,
00:00:35:200,-0.109,0.523,0.823,-15.198,15.625,18.127,
00:00:35:217,-0.15,0.556,0.798,-28.992,21.911,25.94,
00:00:35:234,-0.123,0.559,0.798,11.352,31.616,16.174,
00:00:35:250,-0.121,0.572,0.786,37.841,26.123,16.479,
00:00:35:267,-0.141,0.578,0.786,59.692,32.287,11.779,
00:00:35:284,-0.121,0.589,0.792,85.937,46.814,18.676,
00:00:35:300,-0.109,0.508,0.809,76.11,53.833,21.24,
00:00:35:317,-0.116,0.551,0.804,-20.447,32.531,23.437,
