TIMECODE,ACC_X,ACC_Y,ACC_Z,GYR_X,GYR_Y,GYR_Z,ECG_I,ECG_II,ECG_III,TAG
,-0.067,0.226,1.013,79.711,-10.987,-24.476,0,0,0,
,-0.14,0.117,1.084,82.214,20.752,-26.429,0,0,0,
,-0.115,0.124,1.052,-6.653,40.466,8.361,0,0,0,
,-0.135,0.125,1.023,-90.943,47.119,-2.015,0,0,0,
,-0.099,0.174,0.994,-64.087,36.071,-23.499,0,0,0,
,-0.114,0.116,0.972,-4.09,43.029,-41.687,0,0,0,
,-0.12,0.132,0.964,-15.87,39.001,-27.283,0,0,0,
,-0.106,0.15,0.986,-25.391,28.381,-37.598,0,0,0,
,-0.115,0.157,0.987,-13.367,29.602,-31.983,0,0,0,
,-0.124,0.138,0.998,-19.532,15.197,-31.189,0,0,0,
,-0.116,0.134,0.985,-25.147,2.624,-33.509,0,0,0,
,-0.124,0.133,0.957,-25.208,-4.029,-33.753,0,0,0,
,-0.122,0.14,0.949,-25.513,-16.785,-30.579,0,0,0,
,-0.125,0.157,0.953,-23.865,-45.105,-31.25,0,0,0,
,-0.124,0.166,0.977,-11.048,-35.828,-31.678,0,0,0,
,-0.118,0.164,0.994,2.441,-42.359,-31.25,0,0,0,
,-0.123,0.153,1.001,6.286,-46.631,-37.171,0,0,0,
,-0.126,0.146,1.003,-3.357,-53.894,-35.584,0,0,0,
,-0.131,0.137,1.001,-13.733,-56.885,-31.8,0,0,0,
,-0.127,0.14,0.995,-17.395,-59.51,-30.03,0,0,0,
,-0.121,0.139,1.002,-15.992,-57.618,-22.339,0,0,0,
,-0.134,0.139,1.014,9.216,-52.247,-24.109,0,0,0,
,-0.139,0.134,1.033,13,-49.073,-23.438,0,0,0,
,-0.139,0.132,1.04,-5.799,-40.223,-17.579,0,0,0,
,-0.148,0.134,1.01,-26.185,-22.278,-15.137,0,0,0,
,-0.159,0.14,0.997,-43.885,-19.532,-17.029,0,0,0,
,-0.161,0.148,0.985,-51.575,-13.184,-18.494,0,0,0,
,-0.156,0.171,0.996,-34.729,-2.503,-12.513,0,0,0,
,-0.158,0.172,0.998,-17.212,6.652,-13.611,0,0,0,
,-0.157,0.159,0.989,-2.442,10.681,-16.48,0,0,0,
,-0.148,0.149,0.982,0.854,14.038,-15.625,0,0,0,
,-0.156,0.126,0.99,-0.611,21.667,-8.24,0,0,0,
,-0.164,0.124,0.989,-4.517,16.601,-8.973,0,0,0,
,-0.17,0.127,0.982,-16.663,0.915,-9.766,0,0,0,
,-0.168,0.144,0.975,-25.086,11.657,-11.78,0,0,0,
,-0.161,0.162,0.976,-18.006,10.315,-12.879,0,0,0,
,-0.152,0.164,0.979,-7.386,7.568,-16.236,0,0,0,
,-0.149,0.152,0.988,3.784,2.685,-17.456,0,0,0,
,-0.149,0.145,1.005,11.535,2.197,-22.644,0,0,0,
,-0.156,0.134,1.003,4.821,4.089,-30.884,0,0,0,
,-0.157,0.138,0.996,-7.813,1.77,-41.321,0,0,0,
,-0.163,0.147,0.993,-20.752,3.784,-50.11,0,0,0,
,-0.165,0.163,0.986,-21.424,8.3,-54.261,0,0,0,
,-0.162,0.166,0.991,-12.513,9.704,-57.129,0,0,0,
,-0.164,0.155,0.991,-4.151,12.023,-53.162,0,0,0,
,-0.164,0.135,1.002,-3.479,14.587,-43.702,0,0,0,
,-0.155,0.114,1.012,-4.822,22.705,-37.598,0,0,0,
,-0.147,0.109,1.013,-16.48,24.231,-35.95,0,0,0,
,-0.147,0.117,1,-19.715,32.287,-26.551,0,0,0,
,-0.138,0.124,0.995,-17.395,36.987,-14.039,0,0,0,
,-0.144,0.127,1.002,-20.203,38.696,-3.724,0,0,0,
,-0.15,0.126,0.996,-13.794,42.297,-1.404,0,0,0,
,-0.148,0.132,0.986,-5.799,47.363,2.319,0,0,0,
,-0.152,0.141,0.98,3.295,46.936,7.69,0,0,0,
,-0.152,0.162,0.979,10.62,45.654,3.54,0,0,0,
,-0.149,0.167,0.981,22.705,38.879,-5.86,0,0,0,
,-0.141,0.157,0.988,44.128,39.367,-7.874,0,0,0,
,-0.14,0.131,1,59.875,42.602,-16.297,0,0,0,
,-0.135,0.109,1.008,48.828,38.757,-26.612,0,0,0,
,-0.136,0.108,1.008,26.733,35.949,-40.162,0,0,0,
,-0.14,0.121,1.011,6.591,38.208,-49.073,0,0,0,
,-0.148,0.127,1.012,9.826,39.55,-56.214,0,0,0,
,-0.153,0.118,1.003,-5.982,41.015,-58.899,0,0,0,
,-0.142,0.124,1.001,-44.678,34.24,-60.303,0,0,0,
,-0.132,0.154,0.999,-61.646,30.029,-57.862,0,0,0,
,-0.137,0.164,1.001,-39.673,43.884,-52.552,0,0,0,
,-0.123,0.136,0.997,-51.514,44.921,-52.491,0,0,0,
,-0.134,0.13,1.003,-39.49,42.907,-49.134,0,0,0,
,-0.131,0.114,0.992,-8.606,42.114,-47.608,0,0,0,
,-0.138,0.091,0.979,5.371,32.226,-47.181,0,0,0,
,-0.137,0.096,0.975,1.22,21.728,-44.8,0,0,0,
,-0.149,0.111,0.972,-1.404,0.854,-46.509,0,0,0,
,-0.147,0.134,0.967,-2.015,8.178,-43.58,0,0,0,
,-0.15,0.15,0.967,0.61,1.159,-43.274,0,0,0,
,-0.15,0.15,0.976,11.596,-3.418,-45.35,0,0,0,
,-0.143,0.146,0.994,14.77,-3.479,-47.242,0,0,0,
,-0.139,0.135,1.017,15.319,-10.804,-47.974,0,0,0,
,-0.131,0.123,1.025,7.446,-2.625,-46.692,0,0,0,
,-0.122,0.111,1.029,-6.958,4.394,-42.359,0,0,0,
,-0.123,0.102,1.023,-14.1,11.169,-40.223,0,0,0,
,-0.119,0.1,1.015,-20.02,15.991,-39.185,0,0,0,
,-0.126,0.103,1.005,-18.311,23.498,-33.387,0,0,0,
,-0.132,0.109,1.002,-14.71,26.733,-29.602,0,0,0,
,-0.133,0.119,1.006,-13.733,28.93,-25.086,0,0,0,
,-0.136,0.123,0.999,-10.498,25.085,-21.485,0,0,0,
,-0.135,0.119,1,-11.17,26.123,-18.433,0,0,0,
,-0.134,0.121,0.998,-9.278,26.672,-14.954,0,0,0,
,-0.131,0.124,0.999,-9.949,23.62,-15.809,0,0,0,
,-0.134,0.128,1,-11.841,21.972,-19.471,0,0,0,
,-0.129,0.138,1,-9.888,25.085,-25.208,0,0,0,
,-0.128,0.139,0.998,-16.053,20.324,-28.077,0,0,0,
,-0.133,0.135,0.999,-19.715,19.165,-32.105,0,0,0,
,-0.129,0.128,0.996,-20.447,18.493,-32.715,0,0,0,
,-0.131,0.122,0.997,-19.288,20.935,-15.748,0,0,0,
,-0.135,0.12,0.994,-24.353,17.089,-34.18,0,0,0,
,-0.13,0.123,0.99,-22.767,21.423,-34.852,0,0,0,
,-0.134,0.122,0.996,-16.846,22.216,-32.471,0,0,0,
,-0.132,0.109,0.994,-18.494,18.615,-25.208,0,0,0,
,-0.129,0.128,0.998,-19.043,17.7,-23.987,0,0,0,
,-0.127,0.134,0.999,-13.55,17.334,-26.429,0,0,0,
,-0.128,0.133,0.997,-9.461,17.089,-27.283,0,0,0,
,-0.129,0.128,1.001,-7.569,17.089,-28.443,0,0,0,
,-0.126,0.121,1.002,-13.245,15.93,-31.983,0,0,0,
,-0.127,0.121,1.002,-19.104,14.831,-34.546,0,0,0,
,-0.131,0.119,1,-20.508,13.061,-34.058,0,0,0,
,-0.124,0.123,0.999,-15.137,13.549,-36.438,0,0,0,
,-0.128,0.122,1.002,-15.442,15.991,-36.56,0,0,0,
,-0.127,0.119,1.006,-15.32,15.991,-36.255,0,0,0,
,-0.122,0.118,1.009,-17.945,19.043,-35.706,0,0,0,
,-0.124,0.127,1.009,-16.053,19.958,-35.34,0,0,0,
,-0.126,0.125,0.999,-15.076,25.024,-37.171,0,0,0,
,-0.128,0.12,1.01,-8.912,30.334,-35.767,0,0,0,
,-0.119,0.12,1.01,-9.522,35.522,-37.415,0,0,0,
,-0.118,0.119,1.016,-11.17,38.513,-38.697,0,0,0,
,-0.118,0.117,1.008,-11.109,46.936,-38.758,0,0,0,
,-0.114,0.109,1.004,-6.226,49.621,-36.011,0,0,0,
,-0.119,0.129,0.998,-8.973,44.494,-35.157,0,0,0,
,-0.124,0.129,0.989,-3.907,45.227,-35.889,0,0,0,
,-0.122,0.128,0.986,-4.029,36.987,-35.706,0,0,0,
,-0.119,0.128,0.976,-10.254,32.531,-31.739,0,0,0,
,-0.116,0.126,0.974,-6.226,24.536,-33.692,0,0,0,
,-0.112,0.123,0.98,5.188,16.235,-36.377,0,0,0,
,-0.11,0.113,0.992,4.272,15.319,-41.871,0,0,0,
,-0.115,0.116,1.004,-13.977,15.808,-41.138,0,0,0,
,-0.113,0.115,0.997,-19.349,16.113,-37.842,0,0,0,
,-0.111,0.113,0.998,-21.424,15.075,-35.157,0,0,0,
,-0.11,0.114,0.99,-20.935,14.77,-35.95,0,0,0,
,-0.107,0.113,0.997,-18.128,13.244,-31.922,0,0,0,
,-0.108,0.108,0.993,-17.334,11.23,-28.26,0,0,0,
,-0.113,0.109,0.995,-16.968,9.826,-25.94,0,0,0,
,-0.112,0.114,1.002,-19.043,13.061,-26.368,0,0,0,
,-0.111,0.117,1.001,-17.395,10.559,-24.476,0,0,0,
,-0.114,0.123,1,-0.672,9.887,-25.574,0,0,0,
,-0.108,0.128,1.013,-11.17,11.901,-25.696,0,0,0,
,-0.105,0.125,1.016,-7.203,12.634,-29.236,0,0,0,
,-0.111,0.114,1.011,-10.193,16.662,-31.128,0,0,0,
,-0.113,0.111,1.004,-17.273,18.493,-31.617,0,0,0,
,-0.113,0.119,0.992,-24.231,18.981,-30.64,0,0,0,
,-0.109,0.124,0.994,-17.518,18.798,-31.739,0,0,0,
,-0.119,0.124,0.994,-9.583,16.418,-32.288,0,0,0,
,-0.113,0.115,0.997,-7.447,16.967,-32.349,0,0,0,
,-0.109,0.112,0.998,-12.085,15.075,-30.213,0,0,0,
,-0.109,0.107,0.997,-16.907,8.667,-27.894,0,0,0,
,-0.106,0.109,0.994,-18.799,5.493,-27.161,0,0,0,
,-0.104,0.116,1.003,-13.428,6.53,-30.579,0,0,0,
,-0.11,0.117,1.007,-8.667,8.239,-31.8,0,0,0,
,-0.11,0.118,1.017,-8.118,10.986,-33.204,0,0,0,
,-0.112,0.116,1.021,-6.47,12.756,-34.302,0,0,0,
,-0.109,0.104,1.016,-4.883,8.606,-33.692,0,0,0,
,-0.113,0.099,1.009,-14.039,12.39,-34.79,0,0,0,
,-0.108,0.109,0.997,-27.039,9.521,-35.889,0,0,0,
,-0.11,0.125,0.987,-26.917,7.507,-35.584,0,0,0,
,-0.118,0.131,0.981,-16.907,8.361,-29.48,0,0,0,
,-0.124,0.125,0.973,-9.4,5.92,-29.175,0,0,0,
,-0.12,0.121,0.973,-8.851,5.737,-27.588,0,0,0,
,-0.12,0.12,0.982,-1.954,1.892,-24.903,0,0,0,
,-0.118,0.117,0.993,-0.123,3.723,-25.452,0,0,0,
,-0.117,0.121,1.009,6.591,10.62,-19.837,0,0,0,
,-0.116,0.112,1.03,16.235,18.188,-8.057,0,0,0,
,-0.117,0.097,1.078,28.991,34.423,4.028,0,0,0,
,-0.122,0.072,1.127,4.028,62.561,18.676,0,0,0,
,-0.133,0.056,1.222,-43.335,110.168,58.532,0,0,0,
,-0.142,0.011,1.429,-163.147,166.565,117.004,0,0,0,
,-0.131,-0.061,1.888,-311.951,253.234,226.196,0,0,0,
,-0.072,-0.219,2.562,-403.321,316.284,357.483,0,0,0,
,-0.002,-0.536,3.241,-489.014,417.175,396.667,0,0,0,
,-0.034,-1.065,3.219,-647.95,474.243,402.16,0,0,0,
,0.317,-0.72,2.523,-1115.54,518.737,617.797,0,0,0,
,1.262,1.34,1.682,-2000,-370.301,1509.399,0,0,0,
,2.03,3.955,1.393,-943.299,-2000,1142.212,0,0,0,
,0.773,2.61,1.64,1999.694,-2000,566.345,0,0,0,
,-0.02,0.734,1.338,1999.694,-2000,554.992,0,0,0,
,0.592,-0.207,1.215,1999.694,-2000,132.812,0,0,0,
,1.574,0.149,0.682,866.882,-2000,-30.701,0,0,0,
,1.658,1.463,-0.155,505.981,-2000,703.613,0,0,0,
,1.947,0.826,-1.453,754.028,-2000,921.447,0,0,0,
,1.499,0.443,-2.253,-398.804,-2000,1209.594,0,0,0,
,1.273,0.493,-2.794,-1440.918,-2000,1835.937,0,0,0,
,0.536,-0.329,-3.148,-1426.209,-771.058,1454.467,0,0,0,
,0.296,-0.798,-2.755,-893.25,809.448,1008.422,0,0,0,
,0.333,-1.064,-1.959,-4.456,1872.375,406.86,0,0,0,
,0.344,-0.969,-1.252,1037.841,1999.694,-6.165,0,0,0,
,0.24,-0.753,-0.767,1444.091,1999.694,-259.827,0,0,0,
,0.024,-0.524,-0.43,906.311,1999.694,-396.485,0,0,0,
,-0.151,-0.429,-0.087,-180.726,1999.694,-548.401,0,0,0,
,-0.36,-0.551,0.323,-1233.094,1999.694,-676.27,0,0,0,
,-0.35,-0.624,0.484,-2000,1999.694,-601.014,0,0,0,
,-0.307,-0.41,0.532,-2000,1999.694,-707.886,0,0,0,
,-0.215,0.061,0.578,-2000,1999.694,-779.786,0,0,0,
,-0.112,0.672,0.96,-2000,1999.694,-879.578,0,0,0,
,0.031,1.21,1.149,-545.655,1999.694,-852.723,0,0,0,
,0.279,1.145,1.022,778.991,1999.694,-524.964,0,0,0,
,0.589,0.731,1.29,1379.821,1999.694,-141.541,0,0,0,
,0.829,0.128,1.426,913.879,1999.206,-8.057,0,0,0,
,0.859,-0.201,1.715,64.453,1256.408,-38.514,0,0,0,
,0.55,-0.172,1.674,-779.969,741.272,72.692,0,0,0,
,0.363,0.118,1.767,-1009.583,588.745,54.199,0,0,0,
,0.318,0.385,1.687,-693.36,582.275,33.325,0,0,0,
,0.341,0.362,1.521,-263.733,478.942,-18.494,0,0,0,
,0.344,0.506,1.628,35.888,138.488,78.918,0,0,0,
,0.448,0.279,1.445,762.695,-272.95,-206.299,0,0,0,
,0.315,-0.552,1.612,673.034,-738.526,-562.928,0,0,0,
,-0.197,-0.561,1.339,-54.627,-655.64,-221.314,0,0,0,
,-0.367,-0.23,1.117,-430.848,-183.594,-104.981,0,0,0,
,-0.193,-0.013,0.986,-371.766,198.181,-79.773,0,0,0,
,0.03,0.067,0.948,-121.094,218.383,-52.613,0,0,0,
,0.141,0.077,0.963,-28.626,60.791,-78.37,0,0,0,
,0.085,0.065,1.023,-84.351,-73.365,-91.248,0,0,0,
,0.016,0.116,1.061,-123.536,-72.937,-70.496,0,0,0,
,0.005,0.135,1.049,-92.347,-8.606,-50.66,0,0,0,
,0.022,0.108,0.99,-7.996,17.578,-47.669,0,0,0,
,0.024,0.052,0.962,41.87,3.356,-53.04,0,0,0,
,0.009,0.013,0.97,30.212,-12.391,-52.063,0,0,0,
,-0.003,0.024,0.976,-46.326,-13.489,-41.687,0,0,0,
,0,0.06,0.995,-105.652,-5.249,-48.401,0,0,0,
,0.01,0.1,1.011,-122.864,1.648,-50.415,0,0,0,
,0.022,0.138,1.006,-86.426,6.225,-58.533,0,0,0,
,0.024,0.124,0.998,-34.607,1.892,-69.825,0,0,0,
,0.018,0.098,0.991,20.446,-3.846,-66.956,0,0,0,
,0.012,0.077,0.99,62.011,-6.409,-74.769,0,0,0,
,0.013,0.035,0.996,82.397,0.061,-71.106,0,0,0,
,0.021,0.005,1.001,62.927,-2.32,-69.886,0,0,0,
,0.024,0.004,1.018,24.963,-10.498,-66.773,0,0,0,
,0.02,0.027,1.033,-8.789,-14.222,-65.491,0,0,0,
,0.014,0.061,1.045,-23.804,-16.236,-61.158,0,0,0,
,0.007,0.087,1.045,-17.579,-12.574,-54.505,0,0,0,
,-0.007,0.097,1.033,-11.109,-21.363,-52.491,0,0,0,
,-0.025,0.079,1.033,-14.222,-27.1,-46.753,0,0,0,
,-0.042,0.107,1.098,-64.698,-24.659,-27.039,0,0,0,
,-0.061,0.15,1.134,-129.822,-51.148,0.305,0,0,0,
,-0.105,0.184,1.153,-127.198,-86.487,33.264,0,0,0,
,-0.142,0.185,1.128,-104.737,-106.995,68.176,0,0,0,
,-0.178,0.168,1.104,-75.135,-134.705,84.045,0,0,0,
,-0.184,0.143,1.087,-27.039,-126.099,121.948,0,0,0,
,-0.163,0.052,1.063,-40.101,-160.584,146.545,0,0,0,
,-0.161,-0.078,1.062,-110.84,-193.299,151.733,0,0,0,
,-0.17,-0.017,1.056,-289.551,-180.542,245.666,0,0,0,
,-0.162,0.102,1.041,-397.217,-135.132,280.029,0,0,0,
,-0.13,0.18,1.019,-395.63,-92.957,293.518,0,0,0,
,-0.104,0.208,0.985,-274.292,-75.623,273.742,0,0,0,
,-0.117,0.104,0.904,-38.758,-42.359,223.327,0,0,0,
,-0.109,0.072,0.89,-19.165,-19.715,226.806,0,0,0,
,-0.097,0.088,0.893,-55.848,-14.1,233.032,0,0,0,
,-0.141,0.096,0.914,-155.64,-49.988,235.962,0,0,0,
,-0.25,0.073,0.951,-303.528,-78.125,239.013,0,0,0,
,-0.31,0.034,0.958,-460.206,-38.819,244.873,0,0,0,
,-0.292,0.021,0.973,-631.897,33.63,259.582,0,0,0,
,-0.221,0.11,0.983,-825.257,69.458,272.4,0,0,0,
,-0.137,0.244,1.013,-976.319,47.058,267.089,0,0,0,
,-0.092,0.342,1.017,-991.883,-7.874,225.891,0,0,0,
,-0.086,0.374,1,-888.855,-44.922,174.865,0,0,0,
,-0.071,0.399,0.953,-732.178,-68.238,137.39,0,0,0,
,-0.037,0.411,0.902,-600.892,-100.831,94.482,0,0,0,
,-0.03,0.413,0.87,-528.077,-153.565,75.927,0,0,0,
,-0.042,0.385,0.886,-511.17,-183.411,42.785,0,0,0,
,-0.052,0.401,0.873,-491.761,-172.852,35.156,0,0,0,
,-0.073,0.445,0.88,-516.419,-126.282,10.925,0,0,0,
,-0.072,0.408,0.854,-565.552,-68.604,-18.799,0,0,0,
,-0.064,0.387,0.803,-726.075,20.263,-5.555,0,0,0,
,-0.067,0.396,0.808,-956.91,73.913,9.216,0,0,0,
,-0.055,0.52,0.766,-1174.439,97.106,4.15,0,0,0,
,-0.05,0.613,0.743,-1267.701,105.896,-13.367,0,0,0,
,-0.059,0.671,0.716,-1202.271,124.267,-13.733,0,0,0,
,-0.04,0.697,0.64,-1093.262,128.051,-5.799,0,0,0,
,-0.04,0.709,0.597,-1000.428,106.14,13.794,0,0,0,
,-0.037,0.767,0.587,-921.692,72.631,24.414,0,0,0,
,-0.05,0.854,0.602,-805.603,54.382,0.427,0,0,0,
,-0.063,0.852,0.591,-628.907,62.683,-1.343,0,0,0,
,-0.066,0.808,0.564,-505.677,66.65,-2.381,0,0,0,
,-0.07,0.793,0.537,-468.506,70.678,18.066,0,0,0,
,-0.079,0.779,0.518,-471.985,56.518,45.898,0,0,0,
,-0.108,0.816,0.562,-490.967,52.307,56.518,0,0,0,
,-0.135,0.83,0.527,-478.821,58.105,54.26,0,0,0,
,-0.146,0.861,0.499,-453.919,63.903,36.254,0,0,0,
,-0.138,0.84,0.502,-375,64.758,6.164,0,0,0,
,-0.158,0.756,0.502,-320.374,74.218,-7.264,0,0,0,
,-0.151,0.757,0.51,-332.703,80.749,3.173,0,0,0,
,-0.146,0.844,0.502,-369.324,96.191,20.629,0,0,0,
,-0.146,0.873,0.498,-386.231,106.323,14.648,0,0,0,
,-0.156,0.872,0.472,-387.269,121.704,25.756,0,0,0,
,-0.139,0.881,0.409,-385.254,135.864,35.949,0,0,0,
,-0.12,0.836,0.398,-451.844,132.263,50.659,0,0,0,
,-0.151,0.828,0.379,-562.684,131.225,62.683,0,0,0,
,-0.142,0.912,0.391,-549.622,109.253,67.443,0,0,0,
,-0.164,0.89,0.381,-459.534,112.793,59.631,0,0,0,
,-0.138,0.925,0.312,-421.143,97.106,85.693,0,0,0,
,-0.127,1.005,0.307,-374.207,45.288,46.997,0,0,0,
,-0.188,0.955,0.313,-365.052,18.92,19.165,0,0,0,
,-0.157,0.914,0.307,-381.104,12.146,28.808,0,0,0,
,-0.192,0.888,0.305,-445.191,37.841,54.748,0,0,0,
,-0.209,0.903,0.273,-506.287,68.115,96.069,0,0,0,
,-0.209,0.938,0.21,-572.022,95.825,134.765,0,0,0,
,-0.188,1.067,0.144,-504.212,93.2,87.28,0,0,0,
,-0.179,1.023,0.112,-291.932,23.193,-39.978,0,0,0,
,-0.148,0.912,0.179,-133.912,-58.411,-44.129,0,0,0,
,-0.164,0.96,0.16,-277.527,-52.979,5.554,0,0,0,
,-0.156,1.001,0.096,-389.954,-34.363,-44.983,0,0,0,
,-0.18,0.988,0.138,-346.009,-21.973,-44.068,0,0,0,
,-0.21,1.008,0.174,-244.324,7.873,-7.386,0,0,0,
,-0.221,1.039,0.168,-110.596,18.066,5.004,0,0,0,
,-0.215,0.984,0.145,-73.914,2.685,-1.465,0,0,0,
,-0.245,0.934,0.068,-78.248,6.897,-15.87,0,0,0,
,-0.243,0.901,0.094,-148.743,30.639,-26.123,0,0,0,
,-0.223,0.887,0.088,-272.767,34.851,-53.345,0,0,0,
,-0.144,0.952,0.116,-383.606,-45.716,-59.205,0,0,0,
,-0.259,1.111,0.182,-245.789,-36.56,-36.194,0,0,0,
,-0.2,1.036,0.147,-110.962,-41.016,-30.701,0,0,0,
,-0.172,0.939,0.117,-125.061,-51.697,-52.491,0,0,0,
,-0.172,0.93,0.06,-109.436,-58.289,-31.434,0,0,0,
,-0.189,0.954,0.065,-57.19,-62.623,-36.316,0,0,0,
,-0.17,0.99,0.113,-13.733,-46.509,-25.818,0,0,0,
,-0.172,0.943,0.121,-38.697,-7.874,-20.142,0,0,0,
,-0.164,0.944,0.074,-98.938,5.432,-11.597,0,0,0,
,-0.182,0.966,0.064,-138.001,7.263,-10.071,0,0,0,
,-0.191,0.958,0.083,-153.687,2.563,-14.71,0,0,0,
,-0.205,0.986,0.108,-155.762,3.784,-15.32,0,0,0,
,-0.193,1.013,0.085,-147.217,2.441,-5.188,0,0,0,
,-0.211,0.969,0.076,-145.752,2.38,-1.221,0,0,0,
,-0.19,0.97,0.05,-203.309,-10.254,0.183,0,0,0,
,-0.196,1.014,0.019,-229.554,-35.218,11.84,0,0,0,
,-0.197,1.046,0.031,-206.177,-50.599,12.756,0,0,0,
,-0.195,1.038,0.044,-193.177,-47.12,19.165,0,0,0,
,-0.182,1.04,0.014,-211.548,-33.265,24.963,0,0,0,
,-0.177,1.045,-0.008,-205.506,-12.146,34.301,0,0,0,
,-0.169,1.053,-0.027,-200.623,2.258,40.1,0,0,0,
,-0.168,1.063,-0.035,-163.575,18.005,42.785,0,0,0,
,-0.169,1.064,-0.05,-117.066,35.4,34.24,0,0,0,
,-0.157,1.059,-0.057,-83.069,60.241,37.963,0,0,0,
,-0.158,1.008,-0.074,-91.126,86.547,45.471,0,0,0,
,-0.16,1,-0.071,-98.084,107.116,58.532,0,0,0,
,-0.17,1.026,-0.051,-100.525,136.535,76.538,0,0,0,
,-0.174,1.014,-0.052,-131.043,172.241,88.989,0,0,0,
,-0.185,1.036,-0.064,-180.848,198.242,110.962,0,0,0,
,-0.205,1.039,-0.075,-222.229,212.829,127.563,0,0,0,
,-0.227,1.034,-0.069,-273.011,219.909,137.085,0,0,0,
,-0.242,1.032,-0.084,-321.839,238.098,142.517,0,0,0,
,-0.246,1.057,-0.096,-359.009,258.239,153.808,0,0,0,
,-0.263,1.051,-0.111,-355.652,273.193,209.289,0,0,0,
,-0.286,1.042,-0.117,-364.258,274.047,243.469,0,0,0,
,-0.316,1.012,-0.115,-367.432,287.841,267.517,0,0,0,
,-0.336,1.006,-0.121,-344.361,299.499,291.381,0,0,0,
,-0.364,0.983,-0.102,-287.781,317.749,312.317,0,0,0,
,-0.384,0.942,-0.116,-264.222,331.237,333.435,0,0,0,
,-0.395,0.939,-0.141,-247.681,333.068,353.637,0,0,0,
,-0.406,0.967,-0.138,-226.441,323.852,354.614,0,0,0,
,-0.427,0.923,-0.134,-196.045,330.383,357.666,0,0,0,
,-0.448,0.89,-0.123,-153.321,336.975,369.14,0,0,0,
,-0.454,0.859,-0.105,-130.188,336.425,368.591,0,0,0,
,-0.474,0.834,-0.091,-103.516,342.407,361.755,0,0,0,
,-0.485,0.8,-0.099,-101.441,344.238,352.722,0,0,0,
,-0.484,0.799,-0.119,-116.578,325.195,333.984,0,0,0,
,-0.501,0.821,-0.107,-108.399,302.002,308.044,0,0,0,
,-0.499,0.792,-0.105,-98.328,284.729,288.879,0,0,0,
,-0.509,0.808,-0.101,-85.328,276.855,276.794,0,0,0,
,-0.516,0.786,-0.106,-47.425,275.512,268.432,0,0,0,
,-0.532,0.771,-0.091,-5.738,273.437,259.826,0,0,0,
,-0.547,0.761,-0.093,34.545,274.536,254.089,0,0,0,
,-0.557,0.756,-0.084,67.26,259.46,246.154,0,0,0,
,-0.606,0.724,-0.02,140.197,222.168,204.406,0,0,0,
,-0.619,0.719,-0.01,135.559,199.157,188.232,0,0,0,
,-0.613,0.721,-0.034,117.004,177.185,169.433,0,0,0,
,-0.629,0.724,-0.028,84.472,151.55,144.409,0,0,0,
,-0.633,0.732,-0.012,100.158,147.338,130.31,0,0,0,
,-0.638,0.725,-0.011,132.568,149.414,119.262,0,0,0,
,-0.639,0.709,-0.035,129.272,158.264,112.609,0,0,0,
,-0.652,0.737,-0.033,122.863,141.479,94.421,0,0,0,
,-0.652,0.73,-0.006,151.977,127.502,76.232,0,0,0,
,-0.66,0.727,0.02,163.574,125.366,66.711,0,0,0,
,-0.664,0.698,0.044,184.509,123.413,65.612,0,0,0,
,-0.657,0.713,0.077,178.344,71.777,41.32,0,0,0,
,-0.666,0.712,0.111,159.851,60.607,30.761,0,0,0,
,-0.667,0.711,0.113,156.738,63.903,31.311,0,0,0,
,-0.662,0.704,0.085,161.926,60.485,39.367,0,0,0,
,-0.663,0.726,0.088,172.363,53.649,51.025,0,0,0,
,-0.663,0.733,0.107,182.678,46.447,56.884,0,0,0,
,-0.664,0.721,0.107,166.076,48.156,65.429,0,0,0,
,-0.666,0.73,0.119,155.822,38.33,65.673,0,0,0,
,-0.673,0.726,0.14,125.244,26.489,65.002,0,0,0,
,-0.678,0.705,0.117,117.004,22.888,66.345,0,0,0,
,-0.688,0.721,0.122,118.164,15.38,68.298,0,0,0,
,-0.698,0.738,0.115,186.462,10.009,87.463,0,0,0,
,-0.705,0.713,0.127,184.021,7.507,94.177,0,0,0,
,-0.701,0.697,0.136,186.218,7.568,96.923,0,0,0,
,-0.712,0.685,0.145,188.903,11.108,102.417,0,0,0,
,-0.709,0.666,0.153,192.688,9.216,102.966,0,0,0,
,-0.717,0.656,0.165,184.326,7.019,105.346,0,0,0,
,-0.725,0.63,0.21,80.383,7.568,97.29,0,0,0,
,-0.733,0.646,0.19,25.329,12.939,92.407,0,0,0,
,-0.72,0.684,0.174,-19.349,-4.822,90.942,0,0,0,
,-0.714,0.642,0.136,53.588,-18.311,111.938,0,0,0,
,-0.742,0.66,0.119,118.103,-15.564,139.099,0,0,0,
,-0.754,0.645,0.139,96.557,-10.132,140.136,0,0,0,
,-0.766,0.666,0.155,116.455,-12.391,138.305,0,0,0,
,-0.767,0.671,0.174,146.484,-13.123,143.066,0,0,0,
,-0.775,0.657,0.177,176.635,-18.372,146.484,0,0,0,
,-0.773,0.642,0.185,207.824,-20.569,152.343,0,0,0,
,-0.78,0.628,0.177,234.802,-15.442,158.447,0,0,0,
,-0.779,0.63,0.175,267.028,-17.273,162.475,0,0,0,
,-0.784,0.608,0.205,310.852,-14.588,168.884,0,0,0,
,-0.791,0.585,0.228,283.569,-4.029,170.288,0,0,0,
,-0.798,0.576,0.23,273.986,-5.616,167.785,0,0,0,
,-0.798,0.567,0.254,247.009,-9.4,164.856,0,0,0,
,-0.81,0.563,0.27,243.652,-4.456,165.588,0,0,0,
,-0.808,0.569,0.265,228.027,-2.503,165.771,0,0,0,
,-0.819,0.592,0.261,217.346,-6.287,166.32,0,0,0,
,-0.824,0.583,0.252,231.323,-11.17,163.818,0,0,0,
,-0.817,0.537,0.229,235.168,-9.339,168.213,0,0,0,
,-0.815,0.551,0.216,256.103,-13.916,171.753,0,0,0,
,-0.821,0.528,0.24,294.25,-10.621,183.471,0,0,0,
,-0.827,0.524,0.227,309.082,-2.869,187.683,0,0,0,
,-0.831,0.499,0.272,317.566,5.615,190.124,0,0,0,
,-0.835,0.483,0.28,295.959,11.901,187.744,0,0,0,
,-0.845,0.457,0.3,274.597,16.296,179.504,0,0,0,
,-0.845,0.438,0.319,240.783,15.747,169.433,0,0,0,
,-0.844,0.433,0.314,205.81,9.277,155.883,0,0,0,
,-0.852,0.435,0.321,197.692,1.77,143.982,0,0,0,
,-0.855,0.43,0.302,207.214,1.77,134.46,0,0,0,
,-0.849,0.394,0.291,201.66,8.178,133.545,0,0,0,
,-0.857,0.404,0.302,212.951,10.315,133.178,0,0,0,
,-0.86,0.397,0.31,227.6,16.052,132.995,0,0,0,
,-0.863,0.408,0.321,262.39,10.681,125.244,0,0,0,
,-0.861,0.365,0.329,304.87,13.061,127.38,0,0,0,
,-0.862,0.367,0.344,303.344,12.451,124.878,0,0,0,
,-0.863,0.357,0.341,304.321,1.464,128.418,0,0,0,
,-0.874,0.352,0.363,313.476,-2.991,127.624,0,0,0,
,-0.876,0.337,0.371,281.25,-6.226,127.807,0,0,0,
,-0.882,0.331,0.373,235.717,-8.851,124.023,0,0,0,
,-0.891,0.322,0.382,212.097,-13.001,119.323,0,0,0,
,-0.895,0.323,0.38,177.856,-23.133,118.713,0,0,0,
,-0.909,0.347,0.396,174.987,-25.269,116.882,0,0,0,
,-0.92,0.336,0.391,195.739,-20.813,126.953,0,0,0,
,-0.912,0.293,0.371,209.167,-11.048,142.151,0,0,0,
,-0.918,0.307,0.371,231.201,-3.663,157.043,0,0,0,
,-0.923,0.269,0.376,235.168,4.089,164.123,0,0,0,
,-0.932,0.262,0.399,218.078,9.826,166.992,0,0,0,
,-0.932,0.252,0.406,189.453,10.253,160.766,0,0,0,
,-0.934,0.214,0.397,164.062,14.77,153.686,0,0,0,
,-0.924,0.215,0.401,139.038,12.268,144.714,0,0,0,
,-0.932,0.217,0.42,128.112,21.545,143.005,0,0,0,
,-0.945,0.236,0.441,131.347,33.813,136.108,0,0,0,
,-0.942,0.22,0.448,150.756,58.166,137.024,0,0,0,
,-0.917,0.18,0.395,152.099,63.964,136.657,0,0,0,
,-0.915,0.193,0.398,173.645,56.03,132.385,0,0,0,
,-0.898,0.163,0.391,158.813,54.748,126.22,0,0,0,
,-0.899,0.159,0.409,142.151,51.33,115.905,0,0,0,
,-0.894,0.145,0.401,135.803,55.236,111.694,0,0,0,
,-0.885,0.157,0.414,127.929,54.077,111.633,0,0,0,
,-0.889,0.191,0.432,148.62,36.377,109.375,0,0,0,
,-0.897,0.163,0.426,163.147,18.737,112.671,0,0,0,
,-0.908,0.149,0.421,178.711,-1.77,113.647,0,0,0,
,-0.909,0.137,0.425,206.543,-12.635,118.408,0,0,0,
,-0.92,0.123,0.414,220.031,-7.325,117.981,0,0,0,
,-0.925,0.109,0.396,241.455,-6.47,119.934,0,0,0,
,-0.917,0.106,0.391,256.836,-11.109,119.323,0,0,0,
,-0.916,0.102,0.391,283.386,-6.104,119.079,0,0,0,
,-0.915,0.057,0.376,264.221,15.258,114.135,0,0,0,
,-0.925,0.062,0.395,257.568,6.53,110.046,0,0,0,
,-0.943,0.041,0.4,237.671,10.681,97.717,0,0,0,
,-0.932,0.029,0.409,212.219,12.634,82.397,0,0,0,
,-0.927,0.028,0.417,192.871,7.324,67.199,0,0,0,
,-0.935,0.007,0.451,166.87,19.104,59.631,0,0,0,
,-0.933,-0.017,0.445,148.559,31.005,58.837,0,0,0,
,-0.931,-0.011,0.446,121.948,38.147,56.457,0,0,0,
,-0.92,-0.009,0.439,103.454,37.78,50.598,0,0,0,
,-0.913,0.001,0.431,76.965,34.729,42.48,0,0,0,
,-0.904,0,0.429,56.945,40.954,40.039,0,0,0,
,-0.903,-0.005,0.416,56.396,48.767,46.081,0,0,0,
,-0.896,0.009,0.41,55.908,46.447,45.105,0,0,0,
,-0.89,-0.003,0.411,68.603,42.053,41.381,0,0,0,
,-0.898,-0.02,0.419,75.073,45.471,35.644,0,0,0,
,-0.901,-0.033,0.438,85.876,47.363,41.198,0,0,0,
,-0.903,-0.039,0.427,94.604,51.513,41.626,0,0,0,
,-0.896,-0.034,0.436,103.515,48.4,35.827,0,0,0,
,-0.894,-0.035,0.424,84.045,36.682,14.709,0,0,0,
,-0.913,-0.032,0.452,74.096,30.456,4.211,0,0,0,
,-0.912,-0.056,0.465,65.918,35.217,-2.503,0,0,0,
,-0.905,-0.057,0.463,61.462,36.987,-4.09,0,0,0,
,-0.892,-0.056,0.453,53.772,30.273,0.854,0,0,0,
,-0.891,-0.054,0.445,50.109,18.554,9.399,0,0,0,
,-0.888,-0.045,0.44,35.034,12.146,17.517,0,0,0,
,-0.887,-0.064,0.448,20.874,12.39,7.324,0,0,0,
,-0.888,-0.071,0.428,-2.015,14.892,-3.052,0,0,0,
,-0.899,-0.063,0.434,-50.354,-4.517,-27.527,0,0,0,
,-0.876,-0.066,0.423,-42.969,-10.254,-41.016,0,0,0,
,-0.899,-0.088,0.426,-52.918,-10.437,-57.801,0,0,0,
,-0.893,-0.065,0.413,-49.561,-3.846,-69.153,0,0,0,
,-0.895,-0.085,0.394,-43.457,10.62,-75.379,0,0,0,
,-0.908,-0.07,0.417,-37.049,15.625,-87.098,0,0,0,
,-0.892,-0.084,0.419,-45.289,13.488,-100.953,0,0,0,
,-0.899,-0.07,0.437,-62.073,21.667,-110.291,0,0,0,
,-0.876,-0.079,0.451,-74.524,16.052,-116.883,0,0,0,
,-0.898,-0.08,0.441,-109.07,31.494,-124.695,0,0,0,
,-0.884,-0.057,0.422,-129.334,28.137,-130.066,0,0,0,
,-0.874,-0.047,0.424,-150.269,25.756,-132.203,0,0,0,
,-0.869,-0.03,0.417,-159.058,22.888,-132.508,0,0,0,
,-0.872,0.006,0.418,-166.016,17.944,-124.085,0,0,0,
,-0.876,0.015,0.414,-178.65,15.014,-128.052,0,0,0,
,-0.868,0.024,0.428,-174.195,5.188,-133.423,0,0,0,
,-0.877,-0.004,0.439,-149.659,8.178,-131.409,0,0,0,
,-0.874,0,0.441,-159.546,10.253,-138.855,0,0,0,
,-0.883,0.004,0.455,-172.73,9.765,-158.692,0,0,0,
,-0.892,0.008,0.443,-256.531,4.638,-201.111,0,0,0,
,-0.89,0.03,0.434,-273.56,-2.991,-217.713,0,0,0,
,-0.9,0.035,0.441,-278.321,-11.048,-234.986,0,0,0,
,-0.908,0.051,0.443,-286.866,-4.578,-244.751,0,0,0,
,-0.902,0.065,0.415,-303.833,-0.184,-252.808,0,0,0,
,-0.898,0.109,0.421,-304.139,-11.17,-270.447,0,0,0,
,-0.896,0.114,0.437,-298.951,-10.01,-280.579,0,0,0,
,-0.908,0.123,0.446,-327.759,-7.691,-292.176,0,0,0,
,-0.894,0.143,0.433,-340.332,-4.212,-294.068,0,0,0,
,-0.876,0.166,0.405,-338.868,-5.921,-292.725,0,0,0,
,-0.863,0.219,0.403,-325.989,-1.465,-287.72,0,0,0,
,-0.886,0.249,0.412,-313.66,3.479,-275.025,0,0,0,
,-0.884,0.258,0.41,-329.651,-5.127,-266.541,0,0,0,
,-0.886,0.277,0.406,-307.618,-13.672,-266.236,0,0,0,
,-0.89,0.241,0.421,-326.6,-22.95,-269.532,0,0,0,
,-0.91,0.233,0.435,-384.034,-30.396,-277.1,0,0,0,
,-0.908,0.236,0.431,-412.171,-36.988,-289.673,0,0,0,
,-0.89,0.281,0.41,-424.683,-45.289,-307.373,0,0,0,
,-0.888,0.292,0.388,-447.815,-56.641,-327.759,0,0,0,
,-0.891,0.307,0.366,-485.23,-59.998,-351.502,0,0,0,
,-0.892,0.346,0.346,-500.733,-69.825,-363.892,0,0,0,
,-0.886,0.356,0.331,-475.647,-69.092,-366.517,0,0,0,
,-0.889,0.369,0.326,-469.727,-70.923,-361.329,0,0,0,
,-0.887,0.393,0.335,-447.022,-62.806,-360.169,0,0,0,
,-0.882,0.405,0.314,-432.984,-61.341,-357.727,0,0,0,
,-0.896,0.422,0.318,-406.25,-63.904,-355.835,0,0,0,
,-0.886,0.432,0.299,-413.819,-54.322,-350.953,0,0,0,
,-0.889,0.457,0.273,-418.152,-65.247,-343.262,0,0,0,
,-0.873,0.491,0.276,-398.865,-71.351,-335.267,0,0,0,
,-0.873,0.505,0.26,-384.949,-69.642,-320.435,0,0,0,
,-0.874,0.524,0.255,-351.929,-52.002,-295.105,0,0,0,
,-0.86,0.522,0.215,-344.483,-41.81,-277.894,0,0,0,
,-0.848,0.546,0.211,-314.698,-39.368,-261.658,0,0,0,
,-0.845,0.545,0.229,-283.57,-33.204,-242.92,0,0,0,
,-0.842,0.539,0.242,-264.161,-28.26,-229.981,0,0,0,
,-0.833,0.511,0.234,-255.249,-13.367,-214.539,0,0,0,
,-0.817,0.518,0.184,-263.55,-22.095,-218.75,0,0,0,
,-0.81,0.51,0.204,-255.799,-34.546,-238.099,0,0,0,
,-0.794,0.479,0.199,-346.07,-47.364,-297.913,0,0,0,
,-0.787,0.487,0.173,-352.539,-65.003,-311.524,0,0,0,
,-0.786,0.519,0.167,-365.845,-89.966,-331.238,0,0,0,
,-0.779,0.53,0.161,-361.451,-108.521,-353.15,0,0,0,
,-0.771,0.544,0.147,-359.559,-116.15,-368.714,0,0,0,
,-0.748,0.607,0.091,-284.058,-147.644,-418.763,0,0,0,
,-0.733,0.634,0.091,-272.156,-158.448,-431.946,0,0,0,
,-0.733,0.658,0.085,-250.672,-156.617,-442.566,0,0,0,
,-0.729,0.67,0.071,-234.559,-154.114,-455.689,0,0,0,
,-0.704,0.661,0.046,-218.018,-153.809,-464.539,0,0,0,
,-0.68,0.662,0.011,-217.102,-159.485,-468.262,0,0,0,
,-0.671,0.694,0.008,-193.604,-168.58,-475.769,0,0,0,
,-0.656,0.719,0.016,-198.853,-177.124,-489.991,0,0,0,
,-0.656,0.754,0.009,-214.417,-178.406,-509.461,0,0,0,
,-0.628,0.765,-0.02,-191.651,-187.623,-515.137,0,0,0,
,-0.6,0.778,-0.043,-156.739,-195.679,-506.348,0,0,0,
,-0.581,0.792,-0.054,-112.793,-197.51,-485.84,0,0,0,
,-0.583,0.81,-0.057,-31.495,-188.843,-454.285,0,0,0,
,-0.575,0.817,-0.052,-9.644,-186.524,-442.078,0,0,0,
,-0.566,0.838,-0.045,53.955,-196.289,-443.543,0,0,0,
,-0.543,0.795,-0.037,27.343,-232.972,-461.304,0,0,0,
,-0.525,0.862,0.002,-44.8,-270.081,-486.206,0,0,0,
,-0.527,0.897,0.029,-80.14,-250.306,-486.756,0,0,0,
,-0.453,0.863,-0.051,-73.792,-202.027,-511.048,0,0,0,
,-0.438,0.926,-0.085,-62.989,-200.379,-499.329,0,0,0,
,-0.419,0.946,-0.06,-33.265,-203.003,-496.949,0,0,0,
,-0.396,0.966,-0.036,-37.842,-183.777,-486.206,0,0,0,
,-0.372,0.958,-0.075,-61.768,-147.889,-467.591,0,0,0,
,-0.315,0.961,-0.129,-153.931,-166.687,-410.767,0,0,0,
,-0.302,0.998,-0.14,-217.957,-138.062,-377.747,0,0,0,
,-0.264,1.005,-0.259,-262.33,-122.681,-352.295,0,0,0,
,-0.245,1.039,-0.309,-254.517,-140.625,-343.201,0,0,0,
,-0.254,1.06,-0.255,-214.051,-152.894,-332.703,0,0,0,
,-0.247,1.023,-0.253,-41.321,-53.284,-212.525,0,0,0,
,-0.24,1.038,-0.25,47.668,-46.265,-185.608,0,0,0,
,-0.24,0.999,-0.213,96.923,-53.528,-165.467,0,0,0,
,-0.234,0.977,-0.185,124.633,-56.946,-152.649,0,0,0,
,-0.219,0.986,-0.169,147.033,-50.11,-148.56,0,0,0,
,-0.186,0.949,-0.191,40.954,-77.515,-158.936,0,0,0,
,-0.15,0.949,-0.156,26.977,-70.13,-150.147,0,0,0,
,-0.134,0.945,-0.18,4.272,-59.021,-132.874,0,0,0,
,-0.132,0.975,-0.17,-19.898,-51.27,-127.015,0,0,0,
,-0.13,0.952,-0.179,-57.679,-60.425,-126.648,0,0,0,
,-0.126,0.952,-0.172,-92.774,-72.571,-125.733,0,0,0,
,-0.115,0.951,-0.183,-149.903,-85.144,-124.634,0,0,0,
,-0.12,0.962,-0.196,-182.129,-80.811,-123.108,0,0,0,
,-0.118,0.987,-0.225,-177.857,-66.102,-120.362,0,0,0,
,-0.12,0.979,-0.257,-131.714,-53.162,-110.962,0,0,0,
,-0.13,1.003,-0.232,-84.046,-45.96,-95.765,0,0,0,
,-0.204,0.993,-0.305,-81.177,1.22,-65.857,0,0,0,
,-0.222,1.077,-0.282,-73.487,-13.977,-23.072,0,0,0,
,-0.126,0.972,-0.263,-56.519,-21.424,-38.086,0,0,0,
,-0.107,1.044,-0.206,-41.626,-31.25,-10.682,0,0,0,
,-0.143,0.928,-0.196,61.401,46.63,-12.024,0,0,0,
,-0.154,0.936,-0.199,87.524,44.738,-17.151,0,0,0,
,-0.147,0.946,-0.184,81.787,50.903,-20.203,0,0,0,
,-0.148,0.948,-0.174,71.472,47.363,-24.598,0,0,0,
,-0.15,0.952,-0.16,48.095,47.424,-22.522,0,0,0,
,-0.141,0.903,-0.159,59.265,45.959,-22.706,0,0,0,
,-0.135,0.951,-0.18,35.705,45.105,-17.212,0,0,0,
,-0.134,0.97,-0.177,52.063,37.109,-13.123,0,0,0,
,-0.149,0.969,-0.152,95.947,34.484,-11.17,0,0,0,
,-0.152,0.949,-0.141,119.873,41.87,-13.001,0,0,0,
,-0.154,0.954,-0.147,152.771,68.42,-6.348,0,0,0,
,-0.122,0.958,-0.153,167.419,46.142,-8.789,0,0,0,
,-0.201,0.974,-0.192,59.753,45.105,-25.33,0,0,0,
,-0.155,1.065,-0.208,60.424,40.405,-17.701,0,0,0,
,-0.197,1.001,-0.179,138.672,22.155,-24.292,0,0,0,
,-0.185,0.937,-0.157,156.005,12.817,-28.321,0,0,0,
,-0.176,0.954,-0.12,196.655,10.742,-28.626,0,0,0,
,-0.176,0.92,-0.107,214.965,16.662,-22.828,0,0,0,
,-0.161,0.92,-0.091,158.142,22.705,-31.311,0,0,0,
,-0.186,0.971,-0.099,123.23,25.329,-49.012,0,0,0,
,-0.154,1.017,-0.108,126.648,25.634,-49.988,0,0,0,
,-0.122,1.059,-0.106,134.826,14.892,-41.016,0,0,0,
,-0.076,1.009,-0.133,127.502,-7.63,-31.067,0,0,0,
,-0.085,0.96,-0.163,59.814,-36.622,-21.79,0,0,0,
,-0.148,0.992,-0.112,103.637,-39.124,-20.325,0,0,0,
,-0.18,0.978,-0.021,240.478,-1.282,-19.776,0,0,0,
,-0.118,0.982,0.053,204.956,89.233,-48.829,0,0,0,
,-0.178,0.81,0.046,36.621,94.238,-77.576,0,0,0,
,-0.104,0.87,0.034,-140.503,47.973,-133.667,0,0,0,
,-0.076,0.994,-0.002,-36.011,28.198,-122.742,0,0,0,
,-0.031,1.066,0.008,63.781,-6.775,-94.544,0,0,0,
,-0.016,1.101,0.024,227.844,-36.011,-51.453,0,0,0,
,-0.028,1.071,0.033,406.677,-31.373,-1.893,0,0,0,
,-0.004,1.065,0.005,435.669,-34.729,27.648,0,0,0,
,-0.009,1.126,-0.014,442.81,-35.401,33.874,0,0,0,
,0.006,1.111,0.032,466.247,-46.265,22.583,0,0,0,
,0.036,1.106,0.092,541.87,-48.157,-4.273,0,0,0,
,0.053,0.979,0.101,519.043,-76.783,-7.569,0,0,0,
,0.011,0.989,0.072,485.046,-108.643,20.324,0,0,0,
,-0.007,1.018,0.078,611.328,-137.635,8.911,0,0,0,
,0.012,0.927,0.114,713.867,-197.876,11.962,0,0,0,
,0.001,0.923,0.146,852.172,-238.831,0.061,0,0,0,
,-0.061,0.967,0.165,1109.069,-219.3,22.338,0,0,0,
,-0.131,0.971,0.207,1491.882,-212.891,39.001,0,0,0,
,-0.177,0.971,0.262,1945.373,-150.025,26.672,0,0,0,
,-0.179,0.94,0.267,1999.694,-60.425,5.493,0,0,0,
,-0.164,0.929,0.323,1999.694,-11.658,-25.696,0,0,0,
,-0.188,0.817,0.407,1999.694,30.151,-108.521,0,0,0,
,-0.219,0.716,0.55,1999.694,96.862,-166.748,0,0,0,
,-0.211,0.63,0.658,1999.694,176.208,-186.219,0,0,0,
,-0.195,0.56,0.729,1999.694,253.479,-186.707,0,0,0,
,-0.183,0.485,0.775,1938.11,309.509,-182.862,0,0,0,
,-0.172,0.459,0.824,1646.728,353.027,-184.998,0,0,0,
,-0.144,0.425,0.875,1406.738,368.469,-179.2,0,0,0,
,-0.14,0.385,0.934,1283.996,368.225,-197.754,0,0,0,
,-0.163,0.307,0.941,1237.732,343.567,-189.881,0,0,0,
,-0.212,0.199,0.947,1109.375,304.748,-164.795,0,0,0,
,-0.235,0.165,0.954,936.157,316.589,-127.198,0,0,0,
,-0.214,0.104,0.903,690.185,358.154,-81.91,0,0,0,
,-0.158,0.076,0.885,448.608,362.671,-48.34,0,0,0,
,-0.09,0.09,0.966,327.392,298.401,-19.715,0,0,0,
,-0.054,0.144,1.03,331.359,204.406,-29.236,0,0,0,
,-0.059,0.145,1.035,434.509,149.414,-62.745,0,0,0,
,-0.084,0.1,1.009,502.929,121.521,-97.901,0,0,0,
,-0.095,-0.006,0.979,516.479,114.135,-127.198,0,0,0,
,-0.076,-0.1,0.981,468.383,109.069,-147.095,0,0,0,
,-0.052,-0.14,1.002,356.811,78.796,-143.189,0,0,0,
,-0.042,-0.099,1.004,244.384,59.326,-122.925,0,0,0,
,-0.056,-0.061,1.047,185.669,59.082,-116.944,0,0,0,
,-0.065,-0.084,1.03,146.484,82.214,-117.615,0,0,0,
,-0.067,-0.129,1.013,64.27,110.839,-101.99,0,0,0,
,-0.032,-0.157,1.005,-43.824,132.69,-74.707,0,0,0,
,-0.058,-0.142,0.982,-176.209,160.949,-33.57,0,0,0,
,-0.04,-0.087,0.966,-259.4,188.537,-16.602,0,0,0,
,-0.014,-0.025,0.953,-274.903,222.778,-13.123,0,0,0,
,0.015,0.022,0.936,-232.361,235.29,-9.705,0,0,0,
,0.019,0.05,0.992,-188.294,205.322,-21.058,0,0,0,
,0.095,-0.13,0.992,-183.838,142.761,-95.948,0,0,0,
,0.165,0.055,1.147,-172.059,-5.188,-11.597,0,0,0,
,0.147,0.187,1.163,87.829,-78.553,-121.949,0,0,0,
,0.056,-0.038,1.1,162.292,-86.976,-100.953,0,0,0,
,0,-0.08,1.043,62.133,-24.476,-97.657,0,0,0,
,0.032,-0.015,1.002,-34.729,40.1,-78.309,0,0,0,
,0.09,0.022,0.974,-35.096,43.823,-73.426,0,0,0,
,0.109,0.034,0.971,5.188,8.483,-60.547,0,0,0,
,0.096,0.029,0.983,47.912,-10.254,-56.458,0,0,0,
,0.085,-0.01,0.99,51.635,-0.489,-53.833,0,0,0,
,0.089,-0.036,1.01,23.498,25.451,-63.66,0,0,0,
,0.097,-0.028,1.024,0.061,31.982,-63.477,0,0,0,
,0.064,-0.019,1.028,37.78,22.522,-84.839,0,0,0,
,0.088,-0.011,1.049,128.357,-3.235,-105.713,0,0,0,
,0.073,-0.025,1.049,186.462,-13.184,-113.282,0,0,0,
,0.056,-0.029,1.057,202.392,0.183,-100.403,0,0,0,
,0.065,-0.021,1.047,212.707,15.197,-86.365,0,0,0,
,0.079,-0.092,1.043,222.229,19.165,-71.656,0,0,0,
,0.09,-0.126,1.037,196.594,5.371,-56.641,0,0,0,
,0.096,-0.158,1.059,128.723,11.474,-58.045,0,0,0,
,0.099,-0.148,1.067,42.968,32.836,-58.899,0,0,0,
,0.097,-0.123,1.045,-36.072,30.334,-57.007,0,0,0,
,0.085,-0.086,1.02,-88.623,18.432,-45.655,0,0,0,
,0.07,-0.059,1.002,-103.943,17.517,-38.208,0,0,0,
,0.065,-0.045,0.987,-88.929,22.644,-19.959,0,0,0,
,0.07,-0.058,0.968,-68.97,22.949,-18.433,0,0,0,
,0.085,-0.054,0.975,-60.303,21.545,-22.278,0,0,0,
,0.095,-0.042,0.968,-42.664,17.7,-28.321,0,0,0,
,0.097,-0.04,0.989,-15.992,0.976,-28.931,0,0,0,
,0.097,-0.054,1.014,3.418,12.207,-25.635,0,0,0,
,0.094,-0.078,1.031,-14.954,14.099,-33.997,0,0,0,
,0.085,-0.088,1.029,-23.682,12.512,-33.57,0,0,0,
,0.078,-0.072,1.01,-45.166,12.268,-36.011,0,0,0,
,0.074,-0.043,1.001,-40.528,11.169,-38.514,0,0,0,
,0.076,-0.024,0.99,-13.611,16.418,-39.856,0,0,0,
,0.086,-0.024,0.971,28.32,15.136,-41.993,0,0,0,
,0.089,-0.042,0.977,61.767,10.803,-35.218,0,0,0,
,0.093,-0.069,0.976,71.472,5.127,-31.922,0,0,0,
,0.096,-0.068,0.991,59.204,1.586,-36.438,0,0,0,
,0.092,-0.071,1.01,48.461,-10.498,-38.819,0,0,0,
,0.083,-0.079,1.02,47.546,-27.344,-36.622,0,0,0,
,0.067,-0.088,1.039,20.752,-37.232,-35.889,0,0,0,
,0.058,-0.117,1.048,-28.077,-40.589,-26.123,0,0,0,
,0.056,-0.103,1.078,-77.454,-47.547,-1.893,0,0,0,
,0.061,-0.091,1.106,-137.024,-48.096,-6.958,0,0,0,
,0.056,-0.068,1.113,-166.199,-60.12,15.625,0,0,0,
,0.033,-0.067,1.103,-118.714,-117.066,23.864,0,0,0,
,-0.023,-0.035,1.109,-172.913,-204.651,57.678,0,0,0,
,-0.1,-0.087,1.106,-127.32,-263.428,-7.019,0,0,0,
,-0.165,-0.106,1.097,-162.842,-278.565,31.738,0,0,0,
,-0.176,-0.12,1.072,-233.643,-283.02,18.554,0,0,0,
,-0.164,-0.192,1.041,-380.433,-335.022,20.874,0,0,0,
,-0.166,-0.166,1.04,-546.265,-435.181,37.475,0,0,0,
,-0.184,-0.131,1.11,-741.7,-489.991,57.19,0,0,0,
,-0.234,0.083,1.08,-872.376,-481.202,164.672,0,0,0,
,-0.284,0.258,0.998,-671.448,-423.645,226.562,0,0,0,
,-0.31,0.265,0.877,-363.038,-353.211,190.429,0,0,0,
,-0.311,0.071,0.844,-177.124,-321.656,111.572,0,0,0,
,-0.285,-0.038,0.909,-161.927,-300.904,90.332,0,0,0,
,-0.243,-0.008,1.008,-281.373,-269.715,70.922,0,0,0,
,-0.226,0.098,1.048,-382.508,-214.844,74.157,0,0,0,
,-0.228,0.174,1.031,-380.31,-156.006,83.435,0,0,0,
,-0.195,0.159,0.953,-384.4,-131.104,80.627,0,0,0,
,-0.195,0.11,0.909,-521.607,-138.977,68.725,0,0,0,
,-0.202,0.124,0.959,-734.436,-167.786,31.25,0,0,0,
,-0.178,0.188,0.989,-937.439,-148.499,-6.836,0,0,0,
,-0.168,0.24,0.984,-1038.025,-90.027,-43.396,0,0,0,
,-0.139,0.283,0.887,-1139.405,-56.275,-68.299,0,0,0,
,-0.111,0.334,0.829,-1261.78,-71.595,-89.6,0,0,0,
,-0.078,0.427,0.828,-1347.779,-100.831,-120.85,0,0,0,
,-0.077,0.518,0.858,-1366.211,-112.915,-159.363,0,0,0,
,-0.076,0.558,0.818,-1319.581,-79.468,-174.683,0,0,0,
,-0.064,0.539,0.759,-1305.176,-22.4,-147.217,0,0,0,
,-0.058,0.562,0.671,-1373.291,49.621,-110.84,0,0,0,
,-0.023,0.679,0.607,-1438.111,80.627,-84.046,0,0,0,
,-0.043,0.759,0.579,-1405.64,94.238,-86.792,0,0,0,
,-0.022,0.789,0.572,-1304.261,103.942,-88.99,0,0,0,
,-0.022,0.777,0.528,-1192.749,132.873,-77.454,0,0,0,
,-0.003,0.825,0.483,-1129.639,148.437,-59.998,0,0,0,
,-0.018,0.856,0.458,-1067.383,162.597,-39.673,0,0,0,
,-0.025,0.87,0.435,-1013.367,177.368,-6.226,0,0,0,
,-0.043,0.914,0.406,-924.439,188.232,31.982,0,0,0,
,-0.056,1.005,0.39,-762.085,180.053,36.499,0,0,0,
,-0.091,0.994,0.381,-567.933,177.063,26.428,0,0,0,
,-0.09,0.913,0.372,-441.651,158.935,22.827,0,0,0,
,-0.113,0.868,0.375,-394.959,160.827,37.902,0,0,0,
,-0.122,0.899,0.379,-368.164,165.954,64.575,0,0,0,
,-0.138,0.906,0.36,-333.863,183.838,66.406,0,0,0,
,-0.122,0.951,0.301,-300.599,161.071,44.616,0,0,0,
,-0.122,0.897,0.3,-236.939,97.778,3.356,0,0,0,
,-0.1,0.861,0.338,-188.965,30.883,1.525,0,0,0,
,-0.125,0.906,0.376,-127.381,5.737,-0.794,0,0,0,
,-0.162,0.89,0.37,-49.683,21.057,17.761,0,0,0,
,-0.156,0.888,0.307,-94.3,28.381,3.051,0,0,0,
,-0.167,0.888,0.32,-144.715,29.541,-7.508,0,0,0,
,-0.156,0.901,0.34,-175.721,28.32,-25.635,0,0,0,
,-0.151,0.926,0.347,-165.162,25.756,-32.959,0,0,0,
,-0.142,0.92,0.371,-177.552,8.056,-33.265,0,0,0,
,-0.155,0.898,0.365,-266.419,-16.358,-25.94,0,0,0,
,-0.17,0.928,0.361,-317.505,-30.457,-18.372,0,0,0,
,-0.163,0.95,0.318,-347.413,-44.739,2.868,0,0,0,
,-0.14,0.965,0.268,-390.259,-75.806,-9.522,0,0,0,
,-0.183,0.988,0.242,-395.63,-67.139,21.545,0,0,0,
,-0.18,0.994,0.226,-362.977,-78.553,30.517,0,0,0,
,-0.191,0.935,0.236,-356.934,-83.435,7.385,0,0,0,
,-0.178,0.9,0.225,-399.964,-70.801,17.639,0,0,0,
,-0.207,0.903,0.226,-486.939,-59.998,3.418,0,0,0,
,-0.213,0.892,0.172,-556.58,-25.391,-20.081,0,0,0,
,-0.203,0.904,0.095,-577.82,14.404,-42.42,0,0,0,
,-0.19,0.957,0.052,-575.867,10.253,-7.691,0,0,0,
,-0.192,1.142,0.149,-373.23,-43.763,-0.733,0,0,0,
,-0.238,1.121,0.127,-186.646,-16.785,11.474,0,0,0,
,-0.19,0.962,0.053,-245.789,-7.874,-6.531,0,0,0,
,-0.188,1.017,0.015,-303.65,-13.977,-2.32,0,0,0,
,-0.208,1.007,0.019,-217.286,-10.01,-6.043,0,0,0,
,-0.198,0.943,0.041,-259.034,9.826,-23.865,0,0,0,
,-0.197,0.924,0.032,-388.489,20.507,-43.457,0,0,0,
,-0.183,0.952,0.001,-462.891,26.733,-45.166,0,0,0,
,-0.127,0.983,-0.006,-469.544,4.15,-35.035,0,0,0,
,-0.153,1.146,0.019,-313.66,-8.851,-1.648,0,0,0,
,-0.162,1.085,-0.03,-153.077,9.46,-2.564,0,0,0,
,-0.161,0.987,-0.056,-185.059,12.451,-29.419,0,0,0,
,-0.172,1.036,-0.048,-244.873,4.516,-36.622,0,0,0,
,-0.191,1.06,-0.008,-184.388,-14.283,-20.386,0,0,0,
,-0.186,1.032,-0.006,-103.211,-7.752,4.76,0,0,0,
,-0.192,1.064,-0.05,-33.631,10.559,23.62,0,0,0,
,-0.162,1.06,-0.09,9.338,14.77,35.644,0,0,0,
,-0.149,1.041,-0.086,2.685,7.507,39.611,0,0,0,
,-0.152,1.063,-0.056,24.719,20.813,69.152,0,0,0,
,-0.182,1.068,-0.067,53.833,52.368,125.305,0,0,0,
,-0.183,1.071,-0.098,37.536,65.002,166.198,0,0,0,
,-0.196,1.06,-0.094,-17.945,78.491,192.871,0,0,0,
,-0.201,1.053,-0.112,-123.414,94.543,212.89,0,0,0,
,-0.22,1.087,-0.126,-206.116,106.079,230.713,0,0,0,
,-0.232,1.088,-0.163,-282.349,117.187,245.239,0,0,0,
,-0.247,1.111,-0.165,-346.558,120.605,257.629,0,0,0,
,-0.288,1.073,-0.134,-357.789,139.404,271.423,0,0,0,
,-0.293,1.112,-0.181,-337.159,164.856,308.96,0,0,0,
,-0.313,1.108,-0.202,-296.936,177.002,343.383,0,0,0,
,-0.335,1.1,-0.176,-211.243,181.091,343.261,0,0,0,
,-0.355,1.063,-0.15,-100.831,207.214,365.722,0,0,0,
,-0.366,1.007,-0.145,-11.475,233.337,387.146,0,0,0,
,-0.382,0.967,-0.128,54.016,252.197,416.32,0,0,0,
,-0.4,0.915,-0.109,105.651,265.136,443.786,0,0,0,
,-0.428,0.881,-0.055,143.127,280.09,456.115,0,0,0,
,-0.445,0.836,-0.043,141.479,299.804,463.379,0,0,0,
,-0.449,0.787,-0.073,106.567,298.401,450.134,0,0,0,
,-0.461,0.792,-0.064,81.359,289.001,434.326,0,0,0,
,-0.491,0.764,-0.042,23.315,270.874,408.142,0,0,0,
,-0.528,0.75,0,-29.053,251.281,377.502,0,0,0,
,-0.498,0.762,-0.012,-70.496,252.136,355.041,0,0,0,
,-0.531,0.734,-0.03,-76.355,261.963,341.064,0,0,0,
,-0.53,0.732,-0.034,-42.847,270.935,341.064,0,0,0,
,-0.535,0.754,-0.045,-30.64,273.254,339.233,0,0,0,
,-0.546,0.764,-0.029,-3.54,259.948,339.111,0,0,0,
,-0.563,0.766,-0.018,38.391,244.262,334.961,0,0,0,
,-0.571,0.724,-0.037,58.471,227.356,325.561,0,0,0,
,-0.562,0.727,-0.032,140.686,207.397,317.321,0,0,0,
,-0.57,0.708,-0.017,196.777,202.942,313.293,0,0,0,
,-0.582,0.685,-0.004,173.339,202.087,299.926,0,0,0,
,-0.6,0.701,0.009,168.945,204.162,290.649,0,0,0,
,-0.612,0.662,0.026,153.808,191.345,274.963,0,0,0,
,-0.628,0.659,0.049,161.682,171.325,265.319,0,0,0,
,-0.642,0.65,0.074,161.193,154.235,260.254,0,0,0,
,-0.658,0.613,0.081,102.539,140.686,256.775,0,0,0,
,-0.672,0.642,0.104,34.484,125.854,248.718,0,0,0,
,-0.704,0.64,0.132,22.583,124.328,245.544,0,0,0,
,-0.72,0.64,0.144,8.422,128.845,240.966,0,0,0,
,-0.729,0.63,0.117,17.089,137.817,243.591,0,0,0,
,-0.733,0.65,0.089,-14.588,128.051,235.962,0,0,0,
,-0.75,0.698,0.115,-4.517,119.262,229.248,0,0,0,
,-0.765,0.697,0.118,44.799,126.526,231.445,0,0,0,
,-0.772,0.682,0.124,78.613,126.953,238.403,0,0,0,
,-0.777,0.656,0.128,141.54,125.793,253.906,0,0,0,
,-0.776,0.624,0.142,194.397,128.479,266.235,0,0,0,
,-0.782,0.611,0.152,217.163,127.99,272.583,0,0,0,
,-0.795,0.602,0.17,211.792,115.539,267.944,0,0,0,
,-0.797,0.58,0.189,205.505,106.201,255.127,0,0,0,
,-0.796,0.584,0.202,215.759,92.407,247.558,0,0,0,
,-0.796,0.563,0.212,268.554,86.12,253.296,0,0,0,
,-0.806,0.576,0.232,343.322,79.345,265.686,0,0,0,
,-0.801,0.537,0.249,342.346,71.35,270.141,0,0,0,
,-0.784,0.445,0.209,288.391,57.251,239.563,0,0,0,
,-0.778,0.478,0.238,273.376,30.883,220.276,0,0,0,
,-0.787,0.456,0.28,254.516,23.62,204.284,0,0,0,
,-0.805,0.446,0.28,155.09,27.221,184.143,0,0,0,
,-0.81,0.461,0.248,96.74,14.343,155.517,0,0,0,
,-0.818,0.456,0.24,63.781,-7.691,123.779,0,0,0,
,-0.835,0.489,0.238,57.251,-15.381,104.065,0,0,0,
,-0.853,0.5,0.253,82.153,-10.804,99.731,0,0,0,
,-0.854,0.511,0.262,129.15,-6.287,109.863,0,0,0,
,-0.858,0.496,0.236,212.524,-0.855,133.422,0,0,0,
,-0.868,0.473,0.262,391.845,-22.644,169.555,0,0,0,
,-0.873,0.443,0.281,419.799,-27.283,185.302,0,0,0,
,-0.87,0.409,0.276,400.512,-38.514,190.124,0,0,0,
,-0.884,0.395,0.287,383.728,-55.542,181.457,0,0,0,
,-0.88,0.37,0.29,372.192,-71.778,180.114,0,0,0,
,-0.877,0.392,0.292,361.755,-79.834,173.645,0,0,0,
,-0.891,0.366,0.279,360.962,-87.891,169.067,0,0,0,
,-0.902,0.381,0.267,382.568,-99.671,175.232,0,0,0,
,-0.922,0.372,0.282,423.401,-103.516,179.687,0,0,0,
,-0.922,0.354,0.282,445.678,-96.192,191.589,0,0,0,
,-0.926,0.348,0.301,476.013,-80.994,203.796,0,0,0,
,-0.915,0.328,0.312,465.698,-69.458,211.486,0,0,0,
,-0.929,0.301,0.312,399.841,-56.824,206.298,0,0,0,
,-0.929,0.289,0.326,361.389,-54.322,199.401,0,0,0,
,-0.945,0.255,0.354,299.621,-49.561,191.711,0,0,0,
,-0.949,0.25,0.351,261.718,-49.134,182.19,0,0,0,
,-0.95,0.256,0.353,225.769,-55.176,171.142,0,0,0,
,-0.952,0.26,0.356,185.73,-57.862,160.705,0,0,0,
,-0.946,0.225,0.348,150.451,-50.599,157.226,0,0,0,
,-0.937,0.23,0.329,127.075,-51.087,153.686,0,0,0,
,-0.942,0.24,0.33,142.7,-52.369,155.822,0,0,0,
,-0.939,0.219,0.319,148.01,-45.227,163.391,0,0,0,
,-0.94,0.238,0.307,151.794,-38.269,166.931,0,0,0,
,-0.946,0.23,0.327,184.265,-35.523,169.067,0,0,0,
,-0.952,0.189,0.319,211.67,-28.138,173.828,0,0,0,
,-0.946,0.167,0.309,218.139,-21.851,174.987,0,0,0,
,-0.94,0.159,0.316,218.261,-24.781,175.659,0,0,0,
,-0.947,0.154,0.331,213.623,-19.104,173.828,0,0,0,
,-0.949,0.136,0.336,170.593,-17.701,163.269,0,0,0,
,-0.962,0.134,0.344,148.01,-23.316,153.625,0,0,0,
,-0.955,0.122,0.339,114.38,-24.048,145.141,0,0,0,
,-0.948,0.115,0.331,103.271,-24.048,142.456,0,0,0,
,-0.958,0.125,0.312,102.478,-21.912,137.634,0,0,0,
,-0.965,0.117,0.312,118.53,-20.325,138.366,0,0,0,
,-0.96,0.104,0.317,125.122,-12.513,135.131,0,0,0,
,-0.969,0.073,0.316,149.047,3.051,135.437,0,0,0,
,-0.974,0.063,0.312,163.879,16.967,129.211,0,0,0,
,-0.958,0.04,0.301,165.222,26.977,121.032,0,0,0,
,-0.962,0.068,0.318,176.635,40.344,108.337,0,0,0,
,-0.96,0.04,0.323,164.062,50.17,78.735,0,0,0,
,-0.952,0.024,0.345,144.531,58.288,83.496,0,0,0,
,-0.946,-0.001,0.332,127.38,74.34,75.073,0,0,0,
,-0.963,0.029,0.342,111.206,71.594,68.481,0,0,0,
,-0.965,0.05,0.337,107.238,67.443,63.354,0,0,0,
,-0.964,0.044,0.339,80.322,59.753,50.598,0,0,0,
,-0.953,0.04,0.335,96.984,52.124,45.898,0,0,0,
,-0.946,0.018,0.326,100.158,38.94,50.598,0,0,0,
,-0.951,0.015,0.325,117.065,33.447,61.523,0,0,0,
,-0.958,0.032,0.332,157.287,30.7,77.392,0,0,0,
,-0.971,0.023,0.34,184.082,34.668,90.942,0,0,0,
,-0.97,0.03,0.337,213.562,39.123,99.914,0,0,0,
,-0.961,0.006,0.341,244.14,31.311,105.041,0,0,0,
,-0.97,-0.003,0.364,266.174,29.602,109.436,0,0,0,
,-0.965,-0.032,0.369,296.325,37.353,114.807,0,0,0,
,-0.956,-0.074,0.343,292.785,31.738,111.694,0,0,0,
,-0.943,-0.067,0.362,296.02,19.897,102.356,0,0,0,
,-0.935,-0.096,0.375,257.446,24.475,96.252,0,0,0,
,-0.92,-0.07,0.356,188.354,29.602,83.252,0,0,0,
,-0.94,-0.039,0.351,175.415,26.001,68.359,0,0,0,
,-0.951,-0.082,0.357,132.141,20.874,54.077,0,0,0,
,-0.945,-0.091,0.367,112.121,0.671,49.865,0,0,0,
,-0.944,-0.105,0.372,104.858,16.784,54.199,0,0,0,
,-0.937,-0.092,0.353,97.656,19.836,57.556,0,0,0,
,-0.947,-0.089,0.341,67.382,18.249,51.086,0,0,0,
,-0.937,-0.104,0.327,40.588,8.422,38.269,0,0,0,
,-0.946,-0.107,0.339,31.494,1.281,33.63,0,0,0,
,-0.946,-0.135,0.339,43.945,7.873,40.71,0,0,0,
,-0.946,-0.12,0.349,40.405,10.986,44.128,0,0,0,
,-0.948,-0.108,0.343,57.922,14.648,45.959,0,0,0,
,-0.957,-0.13,0.342,48.706,9.643,39.733,0,0,0,
,-0.956,-0.13,0.355,41.931,2.624,39.55,0,0,0,
,-0.952,-0.148,0.362,53.1,5.859,41.687,0,0,0,
,-0.953,-0.155,0.351,58.349,12.634,50.537,0,0,0,
,-0.962,-0.14,0.356,78.125,7.019,56.091,0,0,0,
,-0.963,-0.15,0.356,86.12,11.779,64.819,0,0,0,
,-0.964,-0.15,0.35,93.078,14.77,71.899,0,0,0,
,-0.959,-0.156,0.349,102.478,17.211,77.697,0,0,0,
,-0.957,-0.154,0.339,99.975,13.366,73.608,0,0,0,
,-0.957,-0.16,0.314,94.177,2.99,71.35,0,0,0,
,-0.955,-0.16,0.341,82.519,-1.709,62.988,0,0,0,
,-0.946,-0.169,0.344,68.847,-2.259,60.73,0,0,0,
,-0.939,-0.18,0.34,54.809,7.019,60.669,0,0,0,
,-0.934,-0.173,0.328,51.757,6.652,58.471,0,0,0,
,-0.935,-0.191,0.32,57.861,7.141,56.274,0,0,0,
,-0.94,-0.194,0.327,44.921,10.376,50.293,0,0,0,
,-0.951,-0.193,0.343,39.794,11.535,43.762,0,0,0,
,-0.946,-0.203,0.348,29.174,18.676,34.606,0,0,0,
,-0.937,-0.212,0.339,18.493,23.803,28.442,0,0,0,
,-0.916,-0.216,0.323,11.413,18.92,22.705,0,0,0,
,-0.913,-0.223,0.321,-2.991,14.709,10.681,0,0,0,
,-0.923,-0.216,0.343,-0.916,12.023,4.211,0,0,0,
,-0.915,-0.215,0.348,-6.897,17.211,-2.381,0,0,0,
,-0.931,-0.197,0.334,-12.696,17.883,-7.142,0,0,0,
,-0.942,-0.184,0.336,-13.123,14.404,-12.024,0,0,0,
,-0.944,-0.196,0.332,-4.7,9.582,-13.611,0,0,0,
,-0.946,-0.203,0.344,11.596,8.728,-15.381,0,0,0,
,-0.945,-0.22,0.333,25.512,12.939,-8.057,0,0,0,
,-0.949,-0.22,0.323,9.216,11.535,-6.775,0,0,0,
,-0.948,-0.193,0.34,5.371,5.859,-8.179,0,0,0,
,-0.951,-0.223,0.373,0.976,6.286,-7.142,0,0,0,
,-0.951,-0.221,0.347,-5.738,9.643,-5.799,0,0,0,
,-0.949,-0.221,0.344,2.868,11.352,0.122,0,0,0,
,-0.945,-0.218,0.329,-0.061,8.483,0.244,0,0,0,
,-0.939,-0.209,0.322,2.075,-0.672,2.197,0,0,0,
,-0.945,-0.217,0.335,7.751,-9.827,2.014,0,0,0,
,-0.944,-0.219,0.342,14.343,-6.409,3.54,0,0,0,
,-0.936,-0.231,0.331,26.489,7.263,7.141,0,0,0,
,-0.924,-0.243,0.31,33.874,12.207,11.596,0,0,0,
,-0.923,-0.252,0.287,38.757,17.639,8.85,0,0,0,
,-0.936,-0.235,0.318,42.907,10.864,2.685,0,0,0,
,-0.931,-0.26,0.319,30.273,20.813,-6.409,0,0,0,
,-0.927,-0.253,0.322,6.469,31.066,-16.968,0,0,0,
,-0.927,-0.273,0.308,-10.682,39.611,-26.49,0,0,0,
,-0.921,-0.27,0.308,-38.636,34.24,-39.063,0,0,0,
,-0.925,-0.268,0.312,-46.814,33.691,-50.843,0,0,0,
,-0.923,-0.261,0.322,-60.547,33.63,-64.698,0,0,0,
,-0.919,-0.256,0.334,-66.956,27.038,-72.754,0,0,0,
,-0.917,-0.253,0.326,-76.844,31.799,-79.468,0,0,0,
,-0.914,-0.241,0.32,-71.839,32.287,-84.229,0,0,0,
,-0.915,-0.237,0.331,-58.96,28.015,-86.792,0,0,0,
,-0.914,-0.231,0.331,-50.538,19.47,-95.765,0,0,0,
,-0.901,-0.237,0.325,-43.824,19.836,-104.187,0,0,0,
,-0.895,-0.233,0.331,-41.382,16.906,-115.174,0,0,0,
,-0.9,-0.224,0.334,-44.861,14.465,-124.573,0,0,0,
,-0.896,-0.22,0.339,-50.721,13,-137.269,0,0,0,
,-0.888,-0.222,0.339,-63.172,11.352,-148.926,0,0,0,
,-0.894,-0.219,0.359,-79.102,8.85,-163.575,0,0,0,
,-0.894,-0.224,0.38,-99.854,7.873,-174.805,0,0,0,
,-0.899,-0.213,0.374,-118.287,9.033,-186.341,0,0,0,
,-0.895,-0.203,0.343,-132.935,4.394,-201.477,0,0,0,
,-0.89,-0.18,0.336,-174.683,-8.057,-226.746,0,0,0,
,-0.889,-0.162,0.332,-185.914,-15.381,-255.677,0,0,0,
,-0.894,-0.151,0.334,-181.763,-12.757,-280.274,0,0,0,
,-0.897,-0.156,0.314,-215.516,-7.996,-308.411,0,0,0,
,-0.901,-0.126,0.305,-235.962,-8.24,-336.426,0,0,0,
,-0.914,-0.115,0.3,-251.465,-12.574,-358.155,0,0,0,
,-0.924,-0.084,0.326,-252.93,-11.597,-369.568,0,0,0,
,-0.921,-0.036,0.334,-260.132,-3.663,-380.31,0,0,0,
,-0.929,-0.049,0.333,-274.842,1.953,-388.428,0,0,0,
,-0.934,-0.034,0.327,-298.645,-7.935,-396.363,0,0,0,
,-0.933,0.001,0.307,-307.129,-20.752,-408.387,0,0,0,
,-0.928,0.002,0.313,-314.515,-25.147,-424.134,0,0,0,
,-0.938,0.009,0.282,-327.82,-19.959,-441.59,0,0,0,
,-0.945,-0.006,0.336,-368.653,-10.621,-469.666,0,0,0,
,-0.971,0.038,0.314,-454.468,-5.066,-515.198,0,0,0,
,-0.978,0.093,0.327,-468.75,16.906,-496.46,0,0,0,
,-0.952,0.055,0.316,-482.789,19.897,-486.756,0,0,0,
,-0.956,0.111,0.331,-525.635,10.681,-480.225,0,0,0,
,-0.971,0.122,0.353,-543.03,9.582,-465.027,0,0,0,
,-0.971,0.156,0.35,-567.2,6.103,-457.215,0,0,0,
,-0.962,0.187,0.342,-542.298,5.981,-437.561,0,0,0,
,-0.955,0.258,0.328,-495.728,24.414,-376.038,0,0,0,
,-0.923,0.113,0.294,-337.403,47.119,-386.78,0,0,0,
,-0.942,0.267,0.319,-409.119,29.419,-386.719,0,0,0,
,-0.946,0.313,0.307,-313.294,23.559,-360.291,0,0,0,
,-0.942,0.289,0.282,-246.033,11.84,-350.769,0,0,0,
,-0.941,0.314,0.266,-207.154,-6.47,-349.61,0,0,0,
,-0.938,0.31,0.27,-147.4,-11.475,-348.694,0,0,0,
,-0.933,0.303,0.268,-125.733,-15.809,-345.765,0,0,0,
,-0.926,0.324,0.27,-98.938,-17.151,-346.131,0,0,0,
,-0.919,0.319,0.269,-93.75,-21.058,-352.845,0,0,0,
,-0.907,0.332,0.265,-109.681,-25.391,-363.587,0,0,0,
,-0.903,0.358,0.267,-125.611,-28.382,-372.925,0,0,0,
,-0.898,0.367,0.268,-164.978,-36.133,-394.288,0,0,0,
,-0.891,0.359,0.244,-212.342,-45.777,-410.889,0,0,0,
,-0.872,0.387,0.236,-236.756,-57.801,-423.951,0,0,0,
,-0.864,0.398,0.235,-250.55,-62.256,-433.899,0,0,0,
,-0.87,0.416,0.237,-259.705,-61.707,-439.759,0,0,0,
,-0.875,0.468,0.237,-282.41,-60.547,-451.783,0,0,0,
,-0.864,0.471,0.214,-295.411,-58.472,-462.647,0,0,0,
,-0.857,0.46,0.18,-310.181,-63.477,-474.671,0,0,0,
,-0.849,0.492,0.181,-293.213,-68.421,-476.624,0,0,0,
,-0.854,0.506,0.189,-264.71,-68.97,-478.699,0,0,0,
,-0.847,0.502,0.193,-256.531,-62.256,-476.075,0,0,0,
,-0.841,0.544,0.169,-277.771,-66.773,-492.676,0,0,0,
,-0.835,0.534,0.161,-289.795,-68.543,-513.123,0,0,0,
,-0.806,0.572,0.151,-325.806,-76.416,-524.598,0,0,0,
,-0.799,0.61,0.158,-316.407,-75.928,-530.64,0,0,0,
,-0.805,0.629,0.135,-272.278,-64.331,-515.686,0,0,0,
,-0.795,0.595,0.088,-217.408,-56.641,-496.338,0,0,0,
,-0.78,0.645,0.099,-161.316,-58.96,-490.357,0,0,0,
,-0.766,0.668,0.105,-144.532,-52.857,-490.418,0,0,0,
,-0.752,0.707,0.091,-160.523,-43.824,-504.151,0,0,0,
,-0.743,0.72,0.109,-125,-28.626,-513.001,0,0,0,
,-0.718,0.708,0.093,-124.939,-14.588,-519.104,0,0,0,
,-0.695,0.687,0.063,-150.147,-13.855,-521.058,0,0,0,
,-0.684,0.718,0.113,-129.578,-12.024,-515.32,0,0,0,
,-0.658,0.742,0.129,-147.339,-6.531,-504.7,0,0,0,
,-0.64,0.775,0.106,-164.978,-7.996,-500.367,0,0,0,
,-0.621,0.709,0.045,-188.477,-20.203,-497.864,0,0,0,
,-0.58,0.794,0.049,-217.957,-60.242,-499.085,0,0,0,
,-0.581,0.793,0.079,-185.608,-74.524,-485.047,0,0,0,
,-0.569,0.796,0.091,-158.02,-69.519,-440.308,0,0,0,
,-0.522,0.881,0.052,-165.284,-61.646,-426.514,0,0,0,
,-0.511,0.921,0.008,-170.472,-58.838,-422.486,0,0,0,
,-0.488,0.935,-0.001,-125.977,-66.834,-420.289,0,0,0,
,-0.502,0.924,-0.006,-48.035,-68.116,-409.241,0,0,0,
,-0.488,0.908,0.031,1.77,-65.186,-398.743,0,0,0,
,-0.48,0.849,0.042,-22.339,-45.105,-382.019,0,0,0,
,-0.452,0.87,0.012,-94.605,-39.368,-376.77,0,0,0,
,-0.43,0.893,-0.01,-60.608,-40.039,-368.775,0,0,0,
,-0.426,0.921,0.013,-1.709,-34.913,-358.216,0,0,0,
,-0.405,0.914,0.029,-20.752,-31.678,-351.258,0,0,0,
,-0.389,0.933,0.007,-72.998,-33.57,-354.31,0,0,0,
,-0.37,0.903,0.004,-131.348,-40.406,-365.113,0,0,0,
,-0.354,0.932,0,-194.336,-51.392,-374.878,0,0,0,
,-0.341,0.932,-0.007,-208.741,-59.266,-382.386,0,0,0,
,-0.332,0.916,-0.005,-208.985,-58.289,-363.16,0,0,0,
,-0.31,0.959,-0.052,-201.233,-57.435,-335.755,0,0,0,
,-0.303,1,-0.059,-165.284,-54.444,-309.388,0,0,0,
,-0.304,1.008,-0.043,-124.024,-48.706,-281.922,0,0,0,
,-0.293,1.021,-0.042,-118.775,-51.209,-265.198,0,0,0,
,-0.292,1.014,-0.066,-107.117,-58.045,-250.611,0,0,0,
,-0.287,0.997,-0.076,-95.398,-72.571,-231.202,0,0,0,
,-0.294,1.012,-0.038,-89.173,-77.088,-213.99,0,0,0,
,-0.314,1.005,-0.025,-84.656,-68.238,-198.792,0,0,0,
,-0.319,0.988,-0.027,-57.007,-52.735,-183.228,0,0,0,
,-0.307,0.979,-0.044,-51.758,-46.143,-179.322,0,0,0,
,-0.27,0.966,-0.09,-76.477,-49.805,-183.289,0,0,0,
,-0.251,1.004,-0.081,-83.619,-51.026,-183.411,0,0,0,
,-0.242,1.005,-0.084,-78.186,-45.35,-177.002,0,0,0,
,-0.241,0.988,-0.086,-39.307,-28.565,-157.166,0,0,0,
,-0.242,0.967,-0.075,-22.706,-18.372,-139.71,0,0,0,
,-0.236,0.941,-0.102,-18.677,-16.358,-124.39,0,0,0,
,-0.234,0.944,-0.085,-41.199,-24.842,-119.324,0,0,0,
,-0.226,0.951,-0.077,-59.144,-17.701,-119.507,0,0,0,
,-0.223,0.941,-0.097,-74.585,-11.17,-125.306,0,0,0,
,-0.214,0.94,-0.094,-100.464,-9.095,-136.841,0,0,0,
,-0.211,0.952,-0.112,-109.925,-2.381,-143.006,0,0,0,
,-0.202,0.956,-0.105,-114.502,-2.198,-148.56,0,0,0,
,0.011,1.17,0.195,-220.215,-99.244,-30.274,0,0,0,
,-0.213,0.857,-0.173,-252.564,6.469,-104.493,0,0,0,
,-0.228,1.079,-0.211,-242.859,-28.687,-88.501,0,0,0,
,-0.116,0.964,-0.075,-138.367,-67.078,-61.341,0,0,0,
,-0.233,0.967,-0.145,-35.462,-4.517,-60.364,0,0,0,
,-0.268,1.09,-0.15,-34.852,12.451,0.549,0,0,0,
,-0.224,0.928,-0.146,35.034,17.15,-11.78,0,0,0,
,-0.23,0.929,-0.15,22.766,24.108,-11.902,0,0,0,
,-0.227,0.957,-0.134,34.851,26.062,-14.039,0,0,0,
,-0.227,0.972,-0.123,46.691,29.296,-20.447,0,0,0,
,-0.235,0.952,-0.105,53.283,29.724,-18.372,0,0,0,
,-0.238,0.916,-0.095,33.02,36.804,-20.264,0,0,0,
,-0.24,0.946,-0.106,33.935,34.423,-21.363,0,0,0,
,-0.227,0.904,-0.119,32.226,22.522,-36.316,0,0,0,
,-0.225,0.935,-0.098,40.771,18.493,-65.491,0,0,0,
,-0.215,0.947,-0.076,42.846,22.033,-57.801,0,0,0,
,-0.22,0.932,-0.069,82.214,27.832,-43.641,0,0,0,
,-0.197,0.93,-0.092,84.045,21.789,-40.589,0,0,0,
,-0.179,1.029,-0.097,110.046,14.343,-37.232,0,0,0,
,-0.198,1.001,-0.061,147.338,14.282,-24.537,0,0,0,
,-0.204,0.958,-0.04,88.073,21.057,-0.123,0,0,0,
,-0.214,0.977,-0.053,0.488,28.564,56.213,0,0,0,
,-0.222,0.791,-0.156,120.483,88.867,-254.212,0,0,0,
,-0.232,1.095,-0.087,-63.538,58.898,-33.875,0,0,0,
,-0.189,1.038,-0.054,28.686,23.315,-54.505,0,0,0,
,-0.265,0.998,-0.05,84.411,49.865,-37.232,0,0,0,
,-0.196,0.957,-0.067,103.515,32.104,-41.321,0,0,0,
,-0.256,0.93,-0.027,61.645,48.706,-48.035,0,0,0,
,-0.254,1.076,-0.125,44.799,60.241,-8.912,0,0,0,
,-0.232,0.979,-0.111,69.702,42.419,-36.255,0,0,0,
,-0.254,0.959,-0.086,47.729,37.658,-36.805,0,0,0,
,-0.245,0.963,-0.05,51.025,37.048,-42.237,0,0,0,
,-0.248,0.934,-0.022,54.199,42.907,-47.303,0,0,0,
,-0.217,0.953,-0.015,66.223,38.818,-41.321,0,0,0,
,-0.214,0.958,-0.043,96.801,50.109,-40.589,0,0,0,
,-0.196,0.992,-0.07,106.079,28.808,-38.575,0,0,0,
,-0.216,0.98,-0.06,82.519,24.108,-41.81,0,0,0,
,-0.203,0.982,-0.047,94.421,24.047,-33.448,0,0,0,
,-0.215,1.004,-0.02,138.855,28.381,-31.311,0,0,0,
,-0.206,0.997,0.023,176.696,25.634,-29.358,0,0,0,
,-0.186,0.989,-0.004,163.33,10.62,-25.086,0,0,0,
,-0.212,0.959,-0.027,224.121,3.173,8.85,0,0,0,
,-0.182,1.009,0.002,277.282,2.563,19.287,0,0,0,
,-0.248,1.021,0.065,367.126,23.071,3.601,0,0,0,
,-0.199,1.005,0.092,339.477,30.151,10.498,0,0,0,
,-0.222,1.003,0.051,333.374,36.987,26.489,0,0,0,
,-0.18,1.042,0.034,418.823,35.827,3.356,0,0,0,
,-0.235,1.068,0.121,606.384,24.841,-1.709,0,0,0,
,-0.253,1.001,0.178,815.246,76.355,15.075,0,0,0,
,-0.233,0.873,0.224,803.527,115.905,23.559,0,0,0,
,-0.214,0.891,0.217,690.673,112.243,33.447,0,0,0,
,-0.218,0.908,0.235,673.095,103.698,32.409,0,0,0,
,-0.189,0.91,0.25,657.714,76.416,16.845,0,0,0,
,-0.221,0.978,0.347,676.757,53.833,5.615,0,0,0,
,-0.222,0.935,0.414,697.265,36.621,22.094,0,0,0,
,-0.223,0.941,0.367,637.512,35.583,43.762,0,0,0,
,-0.178,0.968,0.3,651.428,31.616,45.959,0,0,0,
,-0.183,0.981,0.322,675.781,23.803,71.167,0,0,0,
,-0.165,0.988,0.377,811.706,-30.396,86.792,0,0,0,
,-0.151,0.926,0.468,928.1,-42.969,111.389,0,0,0,
,-0.153,0.89,0.497,987.732,-25.635,132.568,0,0,0,
,-0.143,0.817,0.487,1014.526,-15.076,153.625,0,0,0,
,-0.126,0.785,0.483,977.6,-49.073,171.997,0,0,0,
,-0.142,0.839,0.566,1008.972,-62.745,153.564,0,0,0,
,-0.092,0.779,0.614,1026.062,-75.989,154.541,0,0,0,
,-0.076,0.765,0.622,957.763,-87.952,150.329,0,0,0,
,-0.057,0.731,0.64,911.743,-143.372,118.713,0,0,0,
,-0.097,0.615,0.667,937.255,-199.463,80.993,0,0,0,
,-0.144,0.503,0.689,919.86,-216.126,80.505,0,0,0,
,-0.2,0.457,0.709,854.065,-193.177,98.999,0,0,0,
,-0.229,0.468,0.728,813.537,-158.387,119.323,0,0,0,
,-0.251,0.486,0.772,802.307,-81.421,131.347,0,0,0,
,-0.26,0.488,0.792,826.294,37.353,135.803,0,0,0,
,-0.328,0.497,0.791,919.433,175.354,117.675,0,0,0,
,-0.355,0.459,0.804,1033.569,309.997,94.726,0,0,0,
,-0.342,0.381,0.792,1126.098,416.504,66.101,0,0,0,
,-0.311,0.238,0.791,1100.402,480.468,48.889,0,0,0,
,-0.278,0.148,0.881,971.801,496.154,48.767,0,0,0,
,-0.298,0.139,0.97,766.906,531.372,64.453,0,0,0,
,-0.31,0.203,1.008,623.474,581.97,60.241,0,0,0,
,-0.311,0.28,0.935,610.351,621.704,9.338,0,0,0,
,-0.293,0.19,0.918,704.284,622.375,-46.875,0,0,0,
,-0.264,0.067,0.971,689.941,584.045,-69.703,0,0,0,
,-0.239,0.009,0.999,536.438,533.386,-69.275,0,0,0,
,-0.224,0.074,1.032,319.458,460.937,-49.378,0,0,0,
,-0.227,0.161,1.05,217.529,400.207,-87.769,0,0,0,
,-0.237,0.171,1.069,242.126,351.684,-118.47,0,0,0,
,-0.241,0.135,1.076,321.106,284.362,-155.091,0,0,0,
,-0.219,0.131,1.008,308.654,300.354,-147.95,0,0,0,
,-0.176,0.069,0.981,276.977,318.42,-155.823,0,0,0,
,-0.122,0.037,0.961,237.732,300.415,-154.908,0,0,0,
,-0.092,-0.002,0.937,213.623,246.093,-158.631,0,0,0,
,-0.091,-0.04,0.933,158.142,198.913,-145.386,0,0,0,
,-0.098,-0.033,0.965,24.902,163.147,-130.005,0,0,0,
,-0.098,-0.006,0.975,42.48,171.753,-145.081,0,0,0,
,-0.081,-0.01,0.987,84.716,184.936,-168.03,0,0,0,
,-0.067,-0.06,0.975,77.88,194.824,-179.322,0,0,0,
,-0.057,-0.066,0.966,1.281,212.097,-178.65,0,0,0,
,-0.038,-0.055,0.98,-77.82,234.741,-178.162,0,0,0,
,0.044,0,1.017,-32.837,214.904,-161.988,0,0,0,
,0.041,-0.01,0.982,-65.979,195.739,-169.373,0,0,0,
,0.063,-0.087,1.019,-194.886,151.977,-158.57,0,0,0,
,0.071,-0.008,1,-356.141,31.005,-60.608,0,0,0,
,0.075,0.249,1.11,-302.491,-66.163,-50.66,0,0,0,
,0.066,0.338,1.136,-32.166,-35.096,-155.396,0,0,0,
,0.031,0.065,1.053,177.917,-15.748,-204.285,0,0,0,
,-0.021,-0.06,1.053,110.962,-6.897,-172.181,0,0,0,
,-0.048,-0.046,1.061,-3.602,35.583,-165.406,0,0,0,
,-0.005,-0.055,1.069,-67.872,83.984,-121.949,0,0,0,
,0.067,0.016,1.067,-80.506,103.637,-91.675,0,0,0,
,0.089,0.051,1.077,-6.165,-7.508,-76.905,0,0,0,
,0.064,0.028,1.059,24.108,-11.536,-69.642,0,0,0,
,0.051,0.011,1.018,33.874,22.766,-60.547,0,0,0,
,0.065,0,1.001,32.531,42.297,-38.697,0,0,0,
,0.088,-0.012,1,28.93,43.701,-35.706,0,0,0,
,0.097,-0.024,1.01,29.357,39.245,-34.363,0,0,0,
,0.092,-0.038,0.997,-14.771,17.456,-29.908,0,0,0,
,0.073,-0.011,0.979,-46.265,4.028,-24.781,0,0,0,
,0.067,0.023,0.98,-56.763,15.319,-19.593,0,0,0,
,0.075,0.042,0.984,-53.101,20.874,-19.043,0,0,0,
,0.086,0.046,0.999,-35.95,19.836,-25.635,0,0,0,
,0.083,0.032,1.01,-17.64,2.136,-30.64,0,0,0,
,0.073,0.02,1.01,-11.841,-5.31,-37.11,0,0,0,
,0.07,0.013,1.004,-24.17,-0.855,-37.293,0,0,0,
,0.076,0.013,1.003,-26.856,10.498,-40.467,0,0,0,
,0.081,0.014,1.013,-22.034,9.643,-40.711,0,0,0,
,0.082,0.014,1.015,-22.034,1.159,-42.237,0,0,0,
,0.076,0.005,1.004,-22.583,-3.54,-37.171,0,0,0,
,0.072,0.009,0.996,-24.659,-0.367,-31.617,0,0,0,
,0.074,0.009,0.998,-23.194,7.568,-25.94,0,0,0,
,0.079,0.013,1.006,-22.461,14.831,-25.818,0,0,0,
,0.084,0.022,1.025,-16.114,12.756,-26.612,0,0,0,
,0.073,0.029,1.029,-6.043,0.854,-22.706,0,0,0,
,0.056,0.028,1.04,2.441,-8.24,-14.893,0,0,0,
,0.04,0.024,1.052,9.948,2.38,-10.01,0,0,0,
,0.05,0.016,1.046,9.521,29.602,-6.226,0,0,0,
,0.074,0,1.026,10.192,45.288,-4.334,0,0,0,
,0.095,-0.016,0.999,6.591,52.368,-8.24,0,0,0,
,0.11,-0.031,0.972,-5.494,40.466,-15.564,0,0,0,
,0.108,-0.017,0.967,-31.983,19.287,-19.104,0,0,0,
,0.086,0.02,0.967,-53.406,1.77,-17.762,0,0,0,
,0.073,0.049,0.985,-49.317,-3.052,-17.701,0,0,0,
,0.069,0.048,0.994,-23.316,6.103,-20.569,0,0,0,
,0.077,0.024,1,-7.203,3.967,-25.757,0,0,0,
,0.076,0.012,1.005,-6.897,-3.663,-29.419,0,0,0,
,0.069,0.019,1.016,-8.484,-4.822,-31.556,0,0,0,
,0.067,0.019,1.023,-1.831,4.394,-31.373,0,0,0,
,0.079,0.005,1.022,-0.794,13.916,-29.541,0,0,0,
,0.08,-0.005,1.01,-15.625,10.07,-28.016,0,0,0,
,0.079,0.001,1.012,-28.26,3.295,-25.757,0,0,0,
,0.074,0.012,1.01,-27.527,8.3,-24.476,0,0,0,
,0.069,0.012,1.011,-18.799,9.521,-21.302,0,0,0,
,0.067,0.024,1.013,-20.691,9.948,-18.982,0,0,0,
,0.058,0.036,1.021,-16.175,5.127,-12.33,0,0,0,
,0.049,0.043,1.039,0.549,13.671,-17.395,0,0,0,
,0.062,0.039,1.051,16.113,28.991,-12.391,0,0,0,
,0.077,0.007,1.062,22.338,20.813,-10.743,0,0,0,
,0.078,-0.025,1.062,9.704,3.051,-6.287,0,0,0,
,0.049,-0.029,1.058,-72.754,-17.151,-0.55,0,0,0,
,0.035,0.006,1.043,-97.29,-44.495,40.649,0,0,0,
,0.019,0.127,1.165,-104.371,-85.328,66.04,0,0,0,
,0.016,0.09,1.18,28.747,-118.409,47.485,0,0,0,
,-0.012,-0.026,1.123,90.637,-196.045,44.982,0,0,0,
,-0.108,-0.091,1.056,-33.387,-324.28,13.305,0,0,0,
,-0.187,-0.076,1.003,-166.748,-314.576,50.048,0,0,0,
,-0.226,-0.07,0.964,-306.275,-283.57,101.806,0,0,0,
,-0.221,-0.065,0.953,-425.171,-226.502,100.463,0,0,0,
,-0.177,-0.028,0.987,-494.935,-229.371,80.078,0,0,0,
,-0.14,0.138,1.022,-492.249,-254.822,86.547,0,0,0,
,-0.11,0.169,1.073,-385.376,-288.758,47.302,0,0,0,
,-0.128,0.142,1.056,-327.332,-316.285,78.918,0,0,0,
,-0.262,0.11,0.926,-793.457,-258.851,248.901,0,0,0,
,-0.285,0.116,0.901,-872.681,-206.543,242.797,0,0,0,
,-0.291,0.147,0.917,-935.242,-140.931,239.502,0,0,0,
,-0.254,0.28,0.953,-959.046,-61.768,210.632,0,0,0,
,-0.19,0.415,0.936,-845.643,-13.733,165.649,0,0,0,
,-0.146,0.459,0.895,-638.001,-31.311,114.318,0,0,0,
,-0.151,0.385,0.856,-460.633,-74.219,80.261,0,0,0,
,-0.182,0.3,0.839,-411.866,-104.981,54.26,0,0,0,
,-0.169,0.317,0.886,-484.803,-85.144,34.301,0,0,0,
,-0.1,0.402,0.907,-571.473,-39.978,13.671,0,0,0,
,-0.053,0.438,0.905,-581.788,-43.091,-13.245,0,0,0,
,-0.072,0.421,0.892,-616.761,-71.167,-42.42,0,0,0,
,-0.104,0.423,0.855,-722.718,-55.603,-58.167,0,0,0,
,-0.101,0.433,0.832,-853.638,-16.236,-62.195,0,0,0,
,-0.068,0.5,0.796,-970.093,10.864,-68.36,0,0,0,
,-0.049,0.566,0.758,-1029.725,11.413,-87.525,0,0,0,
,-0.068,0.632,0.738,-991.578,7.934,-111.329,0,0,0,
,-0.084,0.67,0.713,-939.759,44.128,-124.268,0,0,0,
,-0.077,0.683,0.654,-898.255,86.669,-131.165,0,0,0,
,-0.058,0.682,0.608,-854.737,78.186,-143.86,0,0,0,
,-0.041,0.706,0.585,-796.509,83.74,-155.945,0,0,0,
,-0.034,0.742,0.58,-704.59,77.758,-165.223,0,0,0,
,-0.012,0.76,0.587,-639.588,90.393,-160.645,0,0,0,
,0.018,0.757,0.582,-585.328,118.774,-133.057,0,0,0,
,0.057,0.79,0.525,-594.117,148.742,-85.633,0,0,0,
,0.076,0.844,0.523,-663.025,112.976,-51.331,0,0,0,
,0.013,0.829,0.529,-671.204,81.115,-91.126,0,0,0,
,0.008,0.801,0.536,-623.597,82.458,-77.149,0,0,0,
,0.045,0.762,0.504,-680.603,72.448,-88.196,0,0,0,
,0.034,0.756,0.497,-726.929,76.11,-81.421,0,0,0,
,0.01,0.839,0.473,-618.775,0.671,-39.795,0,0,0,
,-0.045,0.828,0.435,-544.861,22.033,-40.406,0,0,0,
,-0.031,0.891,0.36,-435.364,25.085,2.197,0,0,0,
,-0.074,0.887,0.333,-490.418,28.137,-13.306,0,0,0,
,-0.085,0.92,0.334,-529.847,29.235,19.287,0,0,0,
,-0.104,0.925,0.367,-606.324,30.639,41.931,0,0,0,
,-0.112,0.961,0.364,-706.91,28.564,94.299,0,0,0,
,-0.162,0.999,0.324,-715.027,66.223,122.253,0,0,0,
,-0.162,1.013,0.248,-742.249,71.106,162.475,0,0,0,
,-0.13,1.098,0.182,-708.191,62.622,144.043,0,0,0,
,-0.144,1.144,0.153,-608.643,28.564,107.299,0,0,0,
,-0.164,1.067,0.196,-396.546,22.461,72.448,0,0,0,
,-0.146,1.025,0.174,-102.662,99.853,98.938,0,0,0,
,-0.146,1.059,0.169,37.109,90.759,64.575,0,0,0,
,-0.102,0.923,0.211,122.253,105.713,44.616,0,0,0,
,-0.164,0.916,0.205,-37.232,126.464,93.811,0,0,0,
,-0.139,0.963,0.175,-166.199,145.08,86.12,0,0,0,
,-0.125,1.016,0.154,-171.814,102.722,89.721,0,0,0,
,-0.151,1.013,0.167,-108.399,58.471,58.776,0,0,0,
,-0.155,1.011,0.198,-52.063,42.053,55.419,0,0,0,
,-0.146,0.993,0.237,-40.833,14.16,33.752,0,0,0,
,-0.149,0.935,0.248,-42.786,-12.085,-9.4,0,0,0,
,-0.137,0.904,0.234,-77.576,-25.33,-32.227,0,0,0,
,-0.122,0.91,0.209,-90.271,-52.002,-16.968,0,0,0,
,-0.132,0.967,0.188,-87.037,-75.013,-13.062,0,0,0,
,-0.19,0.812,0.197,-225.831,-30.518,-23.194,0,0,0,
,-0.176,0.874,0.152,-365.174,-14.222,-23.133,0,0,0,
,-0.22,0.939,0.111,-451.661,-23.865,13.671,0,0,0,
,-0.207,0.953,0.058,-524.903,-23.011,39.856,0,0,0,
,-0.217,0.88,0.007,-628.846,-4.395,-0.123,0,0,0,
,-0.236,0.912,-0.033,-647.339,-14.771,42.968,0,0,0,
,-0.186,1.141,-0.01,-473.572,-78.064,5.798,0,0,0,
,-0.27,1.081,0,-303.467,-53.528,37.536,0,0,0,
,-0.182,0.96,-0.026,-263.733,-49.805,-6.897,0,0,0,
,-0.191,0.998,-0.022,-278.321,-59.937,-13.733,0,0,0,
,-0.218,1.043,-0.037,-235.413,-51.331,-18.799,0,0,0,
,-0.203,1.045,-0.041,-159.18,-33.204,-36.133,0,0,0,
,-0.173,1.001,-0.04,-100.892,-36.316,-41.687,0,0,0,
,-0.188,0.966,-0.047,-93.811,-16.053,-35.157,0,0,0,
,-0.176,0.96,-0.055,-119.507,9.094,-33.753,0,0,0,
,-0.177,0.98,-0.058,-138.367,22.766,-28.077,0,0,0,
,-0.187,1,-0.101,-132.752,37.841,-17.151,0,0,0,
,-0.186,1.033,-0.137,-108.643,30.944,-10.437,0,0,0,
,-0.184,1.039,-0.13,-71.289,19.165,6.286,0,0,0,
,-0.191,1.048,-0.11,-53.04,16.052,8.361,0,0,0,
,-0.197,1.048,-0.088,-0.855,32.348,25.329,0,0,0,
,-0.201,1.054,-0.122,60.546,42.602,57.495,0,0,0,
,-0.196,1.05,-0.122,63.476,42.602,71.35,0,0,0,
,-0.196,1.052,-0.119,8.972,36.804,74.89,0,0,0,
,-0.214,1.06,-0.095,-30.945,43.701,76.965,0,0,0,
,-0.211,1.04,-0.087,-73.548,53.405,96.496,0,0,0,
,-0.207,1.077,-0.1,-108.765,66.04,115.051,0,0,0,
,-0.224,1.084,-0.099,-118.653,78.491,136.047,0,0,0,
,-0.234,1.107,-0.109,-110.657,89.416,164.489,0,0,0,
,-0.243,1.075,-0.129,-102.784,99.182,194.824,0,0,0,
,-0.26,1.036,-0.113,-58.594,97.961,220.337,0,0,0,
,-0.27,0.997,-0.1,-22.767,102.539,218.994,0,0,0,
,-0.301,0.95,-0.062,17.334,116.027,231.14,0,0,0,
,-0.325,0.955,-0.047,54.077,137.39,254.455,0,0,0,
,-0.326,0.928,-0.056,52.795,142.151,265.075,0,0,0,
,-0.331,0.943,-0.07,50.659,139.282,270.08,0,0,0,
,-0.329,0.955,-0.079,42.114,126.831,252.746,0,0,0,
,-0.343,0.935,-0.088,35.034,126.098,245.178,0,0,0,
,-0.363,0.898,-0.063,11.779,129.15,227.539,0,0,0,
,-0.374,0.886,-0.057,-13.733,158.691,211.303,0,0,0,
,-0.397,1.056,-0.012,-73.975,238.037,482.849,0,0,0,
,-0.385,0.67,-0.047,13.488,165.71,223.205,0,0,0,
,-0.414,0.812,-0.014,-96.192,145.507,267.517,0,0,0,
,-0.437,0.848,-0.017,-86.487,169.311,260.62,0,0,0,
,-0.438,0.806,-0.05,-62.928,181.64,264.709,0,0,0,
,-0.447,0.832,-0.057,-80.75,178.588,259.704,0,0,0,
,-0.45,0.85,-0.078,-89.417,174.438,247.497,0,0,0,
,-0.475,0.835,-0.065,-131.958,172.424,212.463,0,0,0,
,-0.49,0.825,-0.061,-132.325,176.941,200.927,0,0,0,
,-0.499,0.802,-0.061,-110.291,180.053,199.035,0,0,0,
,-0.503,0.801,-0.063,-98.999,182.067,202.575,0,0,0,
,-0.519,0.792,-0.057,-83.13,183.96,207.519,0,0,0,
,-0.53,0.796,-0.069,-72.937,190.124,205.505,0,0,0,
,-0.537,0.798,-0.064,-65.979,187.072,201.965,0,0,0,
,-0.546,0.799,-0.076,-54.505,187.439,200.073,0,0,0,
,-0.558,0.8,-0.058,-44.922,184.753,203.674,0,0,0,
,-0.571,0.793,-0.046,-36.072,181.274,205.2,0,0,0,
,-0.573,0.778,-0.069,-22.4,178.1,211.486,0,0,0,
,-0.579,0.779,-0.065,-11.292,173.401,215.759,0,0,0,
,-0.6,0.795,-0.046,6.103,185.119,221.496,0,0,0,
,-0.611,0.782,-0.039,24.536,187.011,228.576,0,0,0,
,-0.621,0.774,-0.024,59.875,186.523,239.257,0,0,0,
,-0.626,0.779,-0.006,78.308,183.96,247.68,0,0,0,
,-0.646,0.741,-0.011,83.862,186.828,258.728,0,0,0,
,-0.651,0.776,-0.001,83.984,182.983,264.099,0,0,0,
,-0.666,0.764,-0.001,120.788,180.786,264.404,0,0,0,
,-0.678,0.754,0.017,157.959,171.753,266.662,0,0,0,
,-0.684,0.73,0.026,191.406,163.757,269.165,0,0,0,
,-0.701,0.724,0.062,224.426,167.419,258.056,0,0,0,
,-0.703,0.723,0.05,229.797,174.865,254.089,0,0,0,
,-0.725,0.732,0.054,258.606,173.767,261.169,0,0,0,
,-0.734,0.723,0.096,303.894,171.692,281.372,0,0,0,
,-0.743,0.686,0.118,319.397,170.044,292.663,0,0,0,
,-0.736,0.647,0.161,282.653,164.489,287.292,0,0,0,
,-0.75,0.634,0.158,255.371,169.189,284.668,0,0,0,
,-0.753,0.605,0.135,211.853,165.954,277.343,0,0,0,
,-0.757,0.589,0.17,162.292,160.461,269.592,0,0,0,
,-0.707,0.597,0.219,199.524,178.039,312.805,0,0,0,
,-0.776,0.551,0.224,70.8,155.761,213.745,0,0,0,
,-0.773,0.582,0.165,51.086,163.025,191.101,0,0,0,
,-0.765,0.565,0.146,33.081,139.16,162.719,0,0,0,
,-0.769,0.61,0.161,16.357,130.615,143.005,0,0,0,
,-0.78,0.579,0.173,7.385,126.037,127.258,0,0,0,
,-0.783,0.597,0.19,62.683,132.812,124.389,0,0,0,
,-0.797,0.571,0.185,122.436,139.099,129.577,0,0,0,
,-0.791,0.562,0.178,164.611,137.573,134.033,0,0,0,
,-0.79,0.571,0.215,195.984,124.45,138.794,0,0,0,
,-0.786,0.554,0.225,202.453,118.347,140.991,0,0,0,
,-0.79,0.543,0.228,190.612,103.515,142.7,0,0,0,
,-0.797,0.549,0.248,183.838,87.951,137.329,0,0,0,
,-0.793,0.522,0.269,198.425,76.599,136.047,0,0,0,
,-0.793,0.526,0.274,190.185,66.101,142.151,0,0,0,
,-0.794,0.534,0.265,190.063,55.664,147.216,0,0,0,
,-0.808,0.547,0.272,211.914,50.476,157.592,0,0,0,
,-0.81,0.545,0.271,229.553,44.25,163.391,0,0,0,
,-0.809,0.537,0.291,258.606,40.161,174.011,0,0,0,
,-0.805,0.499,0.283,236.877,35.705,184.875,0,0,0,
,-0.822,0.5,0.305,232.91,26.306,189.27,0,0,0,
,-0.814,0.46,0.288,223.388,17.639,185.302,0,0,0,
,-0.82,0.489,0.294,227.661,4.76,177.185,0,0,0,
,-0.834,0.484,0.302,251.281,2.502,178.466,0,0,0,
,-0.841,0.467,0.319,250.793,12.817,182.067,0,0,0,
,-0.846,0.458,0.332,201.904,21.789,184.387,0,0,0,
,-0.846,0.438,0.338,198.303,22.033,183.776,0,0,0,
,-0.847,0.41,0.379,79.834,11.535,178.894,0,0,0,
,-0.859,0.415,0.388,53.1,2.014,172.485,0,0,0,
,-0.864,0.392,0.348,29.846,-7.386,170.105,0,0,0,
,-0.863,0.387,0.336,11.657,-22.767,164.062,0,0,0,
,-0.86,0.399,0.318,16.357,-28.321,163.574,0,0,0,
,-0.868,0.402,0.308,36.01,-28.504,164.55,0,0,0,
,-0.88,0.406,0.311,76.904,-17.456,168.64,0,0,0,
,-0.888,0.411,0.31,114.99,-7.508,170.654,0,0,0,
,-0.891,0.375,0.296,156.494,-4.7,172.424,0,0,0,
,-0.896,0.378,0.311,199.035,-7.935,167.48,0,0,0,
,-0.892,0.338,0.32,231.872,4.455,164.184,0,0,0,
,-0.901,0.328,0.318,247.497,4.089,161.377,0,0,0,
,-0.899,0.297,0.341,250.549,14.465,159.668,0,0,0,
,-0.891,0.274,0.332,194.58,16.357,147.827,0,0,0,
,-0.884,0.274,0.317,155.09,9.521,133.361,0,0,0,
,-0.886,0.292,0.352,140.503,3.295,119.934,0,0,0,
,-0.904,0.274,0.384,124.694,9.399,116.821,0,0,0,
,-0.904,0.283,0.354,93.139,13.794,107.483,0,0,0,
,-0.89,0.267,0.337,79.956,1.831,97.229,0,0,0,
,-0.896,0.282,0.331,98.938,-4.395,88.195,0,0,0,
,-0.894,0.27,0.324,140.564,-10.01,89.477,0,0,0,
,-0.907,0.257,0.342,182.556,3.54,96.069,0,0,0,
,-0.917,0.25,0.357,196.594,23.559,104.309,0,0,0,
,-0.912,0.234,0.353,194.519,32.592,105.651,0,0,0,
,-0.918,0.23,0.382,219.97,31.066,101.684,0,0,0,
,-0.917,0.203,0.388,214.294,31.005,96.801,0,0,0,
,-0.915,0.211,0.395,208.13,37.414,92.956,0,0,0,
,-0.911,0.182,0.383,205.871,34.545,90.148,0,0,0,
,-0.921,0.183,0.396,199.157,34.301,86.975,0,0,0,
,-0.928,0.171,0.397,195.251,37.17,86.181,0,0,0,
,-0.922,0.196,0.403,212.524,38.33,84.899,0,0,0,
,-0.919,0.177,0.391,261.474,36.56,86.242,0,0,0,
,-0.906,0.171,0.389,319.213,39.123,93.933,0,0,0,
,-0.896,0.158,0.401,382.69,35.461,106.994,0,0,0,
,-0.903,0.14,0.45,401.306,40.344,118.103,0,0,0,
,-0.915,0.115,0.457,397.888,35.583,116.638,0,0,0,
,-0.918,0.099,0.448,355.468,21.972,103.759,0,0,0,
,-0.926,0.087,0.444,310.791,5.493,74.035,0,0,0,
,-0.94,0.089,0.47,296.142,-4.639,53.894,0,0,0,
,-0.948,0.06,0.466,283.691,-0.184,53.955,0,0,0,
,-0.941,0.057,0.418,262.817,4.882,53.711,0,0,0,
,-0.933,0.063,0.401,265.869,-6.775,52.856,0,0,0,
,-0.931,0.059,0.409,305.725,-9.766,67.016,0,0,0,
,-0.925,0.078,0.403,340.026,2.197,91.796,0,0,0,
,-0.922,0.067,0.407,362.609,15.502,92.529,0,0,0,
,-0.921,0.044,0.393,341.552,22.338,91.43,0,0,0,
,-0.922,0.022,0.404,345.52,15.991,89.355,0,0,0,
,-0.914,-0.014,0.415,337.646,15.258,89.721,0,0,0,
,-0.921,-0.029,0.44,304.077,19.897,92.712,0,0,0,
,-0.925,-0.043,0.454,212.89,26.001,82.153,0,0,0,
,-0.915,-0.056,0.447,117.309,26.855,47.851,0,0,0,
,-0.901,-0.076,0.42,18.31,10.986,38.696,0,0,0,
,-0.904,-0.044,0.454,-45.105,-21.058,21.789,0,0,0,
,-0.915,-0.05,0.47,-55.664,-38.636,21.301,0,0,0,
,-0.917,-0.053,0.456,-66.407,-38.086,30.334,0,0,0,
,-0.928,-0.065,0.429,-44.739,-35.157,43.884,0,0,0,
,-0.923,-0.052,0.368,-19.043,-28.138,59.631,0,0,0,
,-0.928,-0.002,0.361,9.887,-36.744,56.274,0,0,0,
,-0.931,0.01,0.386,46.02,-44.556,52.307,0,0,0,
,-0.929,0.017,0.39,57.678,-40.65,44.982,0,0,0,
,-0.944,0.004,0.398,97.29,-24.72,43.518,0,0,0,
,-0.947,-0.008,0.387,141.967,-18.677,49.255,0,0,0,
,-0.948,-0.013,0.39,177.551,-16.236,44.555,0,0,0,
,-0.946,-0.027,0.401,210.571,-22.156,40.832,0,0,0,
,-0.943,-0.049,0.413,199.524,-19.41,37.292,0,0,0,
,-0.942,-0.069,0.406,184.448,-2.381,38.269,0,0,0,
,-0.937,-0.084,0.388,164.306,-0.306,34.912,0,0,0,
,-0.933,-0.088,0.405,151.062,-4.639,33.569,0,0,0,
,-0.923,-0.099,0.395,133.422,-1.587,40.1,0,0,0,
,-0.922,-0.081,0.393,119.506,7.385,36.682,0,0,0,
,-0.929,-0.081,0.389,107.727,16.357,34.851,0,0,0,
,-0.923,-0.092,0.379,96.313,18.798,21.484,0,0,0,
,-0.916,-0.101,0.385,83.068,8.361,16.174,0,0,0,
,-0.914,-0.112,0.387,87.951,3.112,9.643,0,0,0,
,-0.931,-0.126,0.391,88.501,1.525,15.808,0,0,0,
,-0.932,-0.125,0.389,64.514,9.033,7.446,0,0,0,
,-0.936,-0.123,0.381,24.536,3.967,-11.841,0,0,0,
,-0.936,-0.135,0.38,-14.344,-1.221,-32.044,0,0,0,
,-0.931,-0.153,0.392,-21.302,5.432,-46.265,0,0,0,
,-0.92,-0.156,0.38,-31.556,33.02,-46.204,0,0,0,
,-0.917,-0.119,0.384,-41.382,33.63,-51.88,0,0,0,
,-0.916,-0.105,0.381,-44.312,30.822,-58.96,0,0,0,
,-0.922,-0.095,0.392,-32.41,27.771,-64.331,0,0,0,
,-0.922,-0.099,0.405,-23.194,23.437,-66.529,0,0,0,
,-0.927,-0.099,0.398,-18.372,28.381,-63.05,0,0,0,
,-0.922,-0.107,0.386,-34.302,27.954,-64.82,0,0,0,
,-0.922,-0.104,0.395,-19.715,20.263,-68.543,0,0,0,
,-0.911,-0.121,0.397,-15.564,19.409,-66.773,0,0,0,
,-0.913,-0.115,0.378,-30.884,16.235,-72.693,0,0,0,
,-0.91,-0.105,0.388,-37.415,12.634,-84.168,0,0,0,
,-0.905,-0.084,0.383,-34.241,7.629,-100.831,0,0,0,
,-0.903,-0.093,0.369,-67.994,-1.16,-124.512,0,0,0,
,-0.905,-0.113,0.372,-139.527,-12.33,-158.692,0,0,0,
,-0.921,-0.125,0.391,-181.031,-19.41,-190.064,0,0,0,
,-0.922,-0.131,0.413,-205.689,-11.902,-201.05,0,0,0,
,-0.925,-0.126,0.398,-239.991,7.019,-206.238,0,0,0,
,-0.915,-0.108,0.363,-273.255,22.705,-209.9,0,0,0,
,-0.92,-0.062,0.362,-306.702,26.611,-224.244,0,0,0,
,-0.909,-0.038,0.382,-326.416,30.151,-239.991,0,0,0,
,-0.899,-0.025,0.386,-359.803,37.719,-255.31,0,0,0,
,-0.907,0.02,0.381,-385.621,26.428,-276.185,0,0,0,
,-0.91,0.02,0.38,-360.718,32.531,-279.602,0,0,0,
,-0.904,0.036,0.396,-374.085,37.841,-283.875,0,0,0,
,-0.901,0.047,0.398,-383.606,45.41,-287.171,0,0,0,
,-0.887,0.061,0.397,-383.973,41.503,-296.631,0,0,0,
,-0.891,0.07,0.413,-376.099,35.949,-302.796,0,0,0,
,-0.896,0.059,0.424,-387.33,24.353,-306.824,0,0,0,
,-0.891,0.066,0.459,-447.144,20.08,-325.196,0,0,0,
,-0.877,0.041,0.445,-493.714,18.493,-341.492,0,0,0,
,-0.892,0.097,0.419,-529.725,8.056,-369.202,0,0,0,
,-0.895,0.132,0.392,-530.762,3.051,-394.776,0,0,0,
,-0.898,0.175,0.388,-570.252,-4.517,-432.068,0,0,0,
,-0.897,0.224,0.373,-576.05,-12.879,-453.125,0,0,0,
,-0.878,0.245,0.351,-569.031,-21.973,-467.225,0,0,0,
,-0.878,0.272,0.317,-532.227,-33.875,-466.858,0,0,0,
,-0.876,0.308,0.312,-474.549,-48.951,-455.567,0,0,0,
,-0.882,0.36,0.314,-409.79,-55.115,-442.81,0,0,0,
,-0.87,0.375,0.313,-322.693,-55.054,-426.27,0,0,0,
,-0.871,0.382,0.314,-285.706,-60.242,-409.424,0,0,0,
,-0.867,0.377,0.284,-250.977,-70.618,-399.231,0,0,0,
,-0.857,0.389,0.294,-209.107,-89.478,-393.555,0,0,0,
,-0.852,0.404,0.297,-193.726,-102.784,-390.992,0,0,0,
,-0.834,0.407,0.302,-215.027,-109.07,-389.466,0,0,0,
,-0.828,0.427,0.286,-226.746,-117.31,-390.748,0,0,0,
,-0.83,0.452,0.297,-218.323,-127.259,-397.278,0,0,0,
,-0.83,0.466,0.317,-191.59,-118.958,-394.837,0,0,0,
,-0.845,0.471,0.278,-181.702,-112.854,-388.367,0,0,0,
,-0.841,0.49,0.257,-137.94,-117.188,-382.325,0,0,0,
,-0.83,0.518,0.248,-131.714,-129.883,-381.653,0,0,0,
,-0.811,0.526,0.225,-127.991,-136.475,-392.701,0,0,0,
,-0.814,0.53,0.213,-142.762,-140.015,-409.546,0,0,0,
,-0.812,0.542,0.204,-159.668,-136.963,-421.082,0,0,0,
,-0.807,0.528,0.175,-190.308,-141.602,-430.787,0,0,0,
,-0.8,0.549,0.163,-214.112,-146.729,-429.993,0,0,0,
,-0.79,0.563,0.141,-240.113,-150.269,-432.801,0,0,0,
,-0.785,0.58,0.127,-250.367,-144.776,-439.026,0,0,0,
,-0.788,0.603,0.12,-257.447,-134.4,-440.308,0,0,0,
,-0.782,0.623,0.123,-279.908,-123.108,-439.27,0,0,0,
,-0.77,0.641,0.112,-276.368,-116.333,-435.242,0,0,0,
,-0.746,0.62,0.078,-269.165,-115.418,-422.608,0,0,0,
,-0.732,0.658,0.084,-276.246,-115.296,-416.077,0,0,0,
,-0.731,0.647,0.07,-280.579,-100.281,-410.767,0,0,0,
,-0.718,0.683,0.075,-296.082,-87.952,-407.654,0,0,0,
,-0.712,0.691,0.057,-303.589,-72.632,-421.631,0,0,0,
,-0.701,0.686,0.042,-329.651,-66.346,-410.889,0,0,0,
,-0.685,0.712,0.051,-367.31,-64.454,-416.993,0,0,0,
,-0.683,0.726,0.032,-396.79,-49.988,-418.213,0,0,0,
,-0.676,0.77,0.012,-408.02,-43.702,-414.673,0,0,0,
,-0.672,0.788,-0.023,-386.109,-49.927,-414.734,0,0,0,
,-0.654,0.807,-0.026,-336.853,-53.101,-402.466,0,0,0,
,-0.645,0.846,-0.016,-317.994,-51.697,-389.283,0,0,0,
,-0.641,0.868,-0.013,-278.87,-52.491,-373.841,0,0,0,
,-0.634,0.857,-0.026,-226.685,-45.166,-355.286,0,0,0,
,-0.616,0.853,-0.03,-194.703,-41.077,-333.374,0,0,0,
,-0.601,0.861,-0.035,-156.556,-35.828,-299.378,0,0,0,
,-0.609,0.857,-0.018,-94.422,-24.842,-280.091,0,0,0,
,-0.595,0.854,-0.036,-58.716,-17.823,-249.146,0,0,0,
,-0.593,0.889,-0.042,-39.49,-18.738,-239.624,0,0,0,
,-0.579,0.87,-0.042,-39.063,-28.016,-237.977,0,0,0,
,-0.57,0.849,-0.034,-63.111,-33.875,-238.648,0,0,0,
,-0.559,0.843,-0.046,-82.093,-27.1,-227.295,0,0,0,
,-0.539,0.846,-0.052,-83.802,-19.593,-227.112,0,0,0,
,-0.535,0.847,-0.078,-97.107,-13.733,-232.117,0,0,0,
,-0.526,0.853,-0.096,-118.958,-24.903,-243.714,0,0,0,
,-0.511,0.894,-0.072,-103.638,-33.753,-255.555,0,0,0,
,-0.51,0.871,-0.055,-90.821,-26.551,-247.864,0,0,0,
,-0.507,0.887,-0.064,-74.646,-10.743,-225.281,0,0,0,
,-0.505,0.896,-0.069,-17.518,-4.761,-207.093,0,0,0,
,-0.495,0.876,-0.087,-3.357,-5.982,-195.252,0,0,0,
,-0.476,0.897,-0.108,-26.734,-22.034,-199.891,0,0,0,
,-0.46,0.908,-0.093,-44.312,-39.612,-211.609,0,0,0,
,-0.463,0.885,-0.075,-46.448,-30.03,-207.642,0,0,0,
,-0.466,0.905,-0.06,-34.729,-15.198,-196.351,0,0,0,
,-0.457,0.894,-0.072,-20.02,-4.761,-168.946,0,0,0,
,-0.455,0.888,-0.097,-18.006,6.652,-133.789,0,0,0,
,-0.43,0.865,-0.109,-20.264,11.291,-175.293,0,0,0,
,-0.422,0.891,-0.063,-24.292,-1.404,-263.062,0,0,0,
,-0.39,0.933,-0.023,-9.461,24.658,-287.537,0,0,0,
,-0.406,0.954,-0.065,18.066,53.955,-228.821,0,0,0,
,-0.393,0.905,-0.113,33.752,61.584,-218.934,0,0,0,
,-0.38,0.948,-0.104,38.574,40.649,-213.318,0,0,0,
,-0.383,0.945,-0.085,66.467,36.438,-205.201,0,0,0,
,-0.383,0.931,-0.066,74.34,29.235,-197.022,0,0,0,
,-0.381,0.957,-0.072,66.284,23.925,-187.745,0,0,0,
,-0.375,0.935,-0.091,72.326,5.371,-188.05,0,0,0,
,-0.366,0.89,-0.058,54.565,-9.095,-183.655,0,0,0,
,-0.363,0.895,-0.042,12.39,-13.306,-169.861,0,0,0,
,-0.368,0.925,-0.04,-7.203,-10.376,-168.213,0,0,0,
,-0.358,0.929,-0.058,-27.955,-14.283,-164.795,0,0,0,
,-0.362,0.938,-0.069,-39.795,-20.081,-166.932,0,0,0,
,-0.353,0.927,-0.072,-65.979,-33.02,-167.603,0,0,0,
,-0.358,0.942,-0.047,-103.882,-50.538,-168.152,0,0,0,
,-0.347,0.95,-0.062,-126.221,-58.411,-173.951,0,0,0,
,-0.34,0.981,-0.055,-130.249,-57.557,-179.139,0,0,0,
,-0.332,0.972,-0.092,-110.657,-40.406,-187.195,0,0,0,
,-0.337,0.95,-0.103,-75.684,-39.795,-176.636,0,0,0,
,-0.345,0.96,-0.075,-54.749,-39.124,-165.955,0,0,0,
,-0.356,0.958,-0.077,-14.405,-21.058,-145.386,0,0,0,
,-0.347,0.972,-0.081,17.761,-3.174,-126.526,0,0,0,
,-0.332,0.98,-0.104,42.297,1.403,-112.427,0,0,0,
,-0.332,0.984,-0.084,73.547,-5.005,-108.399,0,0,0,
,-0.31,0.937,-0.099,40.161,-18.738,-111.939,0,0,0,
,-0.287,0.942,-0.086,0.122,-38.575,-114.685,0,0,0,
,-0.268,0.939,-0.075,-50.599,-48.89,-117.859,0,0,0,
,-0.267,0.929,-0.068,-57.068,-38.208,-112.488,0,0,0,
,-0.259,0.949,-0.077,-42.42,-23.438,-100.403,0,0,0,
,-0.253,0.944,-0.097,-60.975,-18.25,-96.131,0,0,0,
,-0.255,0.955,-0.098,-102.417,-24.292,-97.535,0,0,0,
,-0.257,0.963,-0.093,-97.84,-31.617,-96.497,0,0,0,
,-0.264,0.927,-0.085,-88.746,-35.645,-94.727,0,0,0,
,-0.264,0.931,-0.09,-94.91,-41.077,-89.112,0,0,0,
,-0.244,0.943,-0.123,-92.53,-46.265,-85.083,0,0,0,
,-0.236,0.955,-0.114,-106.812,-56.153,-87.769,0,0,0,
,-0.237,0.962,-0.104,-96.985,-53.528,-85.694,0,0,0,
,-0.263,0.96,-0.118,-189.393,-45.777,-80.384,0,0,0,
,-0.242,0.974,-0.136,-160.584,-48.706,-80.384,0,0,0,
,-0.23,0.959,-0.146,-140.198,-47.852,-91.248,0,0,0,
,-0.236,0.978,-0.156,-161.988,-46.509,-77.454,0,0,0,
,-0.189,0.947,-0.152,-121.644,-37.598,-68.421,0,0,0,
,-0.227,0.959,-0.149,-100.708,-17.701,-57.74,0,0,0,
,-0.217,0.958,-0.175,-44.129,-0.184,-45.105,0,0,0,
,-0.216,0.947,-0.195,-6.226,3.662,-44.861,0,0,0,
,-0.216,0.957,-0.176,-13.611,8.056,-56.092,0,0,0,
,-0.223,0.968,-0.146,-23.621,10.62,-56.641,0,0,0,
,-0.224,0.952,-0.15,-48.645,18.371,-56.702,0,0,0,
,-0.234,0.943,-0.142,-72.571,20.446,-51.514,0,0,0,
,-0.231,0.964,-0.145,-51.941,9.338,-45.716,0,0,0,
,-0.24,0.947,-0.146,-13.123,-2.869,-52.002,0,0,0,
,-0.225,0.929,-0.133,-17.456,-14.649,-53.589,0,0,0,
,-0.219,0.95,-0.097,-34.79,-4.09,-47.913,0,0,0,
,-0.247,0.989,-0.156,-46.082,49.255,6.958,0,0,0,
,-0.204,1.085,-0.208,108.947,60.241,-5.188,0,0,0,
,-0.207,1.031,-0.193,213.134,48.706,-46.631,0,0,0,
,-0.239,0.967,-0.146,217.712,48.523,-61.585,0,0,0,
,-0.216,0.96,-0.115,235.534,59.875,-50.11,0,0,0,
,-0.22,0.924,-0.084,254.821,70.068,-59.937,0,0,0,
,-0.196,0.96,-0.076,286.132,59.936,-75.684,0,0,0,
,-0.208,1.007,-0.079,347.656,50.781,-78.98,0,0,0,
,-0.199,1.049,-0.086,448.974,15.625,-65.186,0,0,0,
,-0.204,1.01,-0.056,562.378,3.967,-40.467,0,0,0,
,-0.207,0.948,-0.016,658.752,9.948,-14.222,0,0,0,
,-0.189,1.049,-0.005,726.318,-6.287,-35.096,0,0,0,
,-0.208,1.033,0.063,854.065,23.071,-13.977,0,0,0,
,-0.215,0.994,0.106,978.027,55.542,-35.95,0,0,0,
,-0.17,0.847,0.253,904.724,53.283,-36.316,0,0,0,
,-0.204,0.887,0.335,803.588,81.298,-92.286,0,0,0,
,-0.181,0.967,0.218,886.352,125.732,-82.154,0,0,0,
,-0.168,1.006,0.179,1001.587,120.727,-123.78,0,0,0,
,-0.155,0.998,0.235,1152.099,53.772,-184.632,0,0,0,
,-0.115,0.962,0.324,1275.451,-0.611,-229.554,0,0,0,
,-0.134,0.879,0.375,1359.375,-6.287,-240.723,0,0,0,
,-0.123,0.719,0.41,1284.668,6.408,-210.389,0,0,0,
,-0.066,0.724,0.48,1080.688,-1.77,-172.913,0,0,0,
,-0.047,0.74,0.52,759.948,-92.591,-124.512,0,0,0,
,-0.114,0.887,0.547,557.495,-126.465,-144.532,0,0,0,
,-0.143,0.935,0.6,594.97,-124.756,-160.645,0,0,0,
,-0.103,0.888,0.577,676.147,-104.92,-171.936,0,0,0,
,-0.094,0.806,0.563,629.638,-100.831,-174.927,0,0,0,
,-0.089,0.765,0.606,493.713,-130.372,-161.255,0,0,0,
,-0.063,0.826,0.645,392.212,-164.002,-160.401,0,0,0,
,-0.048,0.991,0.702,569.336,-167.786,-174.683,0,0,0,
,-0.146,1.024,0.708,964.416,-60.486,-188.416,0,0,0,
,-0.178,0.819,0.55,1275.756,59.753,-226.929,0,0,0,
,-0.117,0.553,0.5,1219.726,54.077,-169.495,0,0,0,
,-0.054,0.525,0.612,896.606,-61.585,-59.937,0,0,0,
,-0.081,0.682,0.743,727.05,-137.574,-16.48,0,0,0,
,-0.131,0.774,0.825,822.082,-111.451,-9.156,0,0,0,
,-0.161,0.749,0.798,1067.688,-36.622,-36.866,0,0,0,
,-0.204,0.62,0.745,1257.507,23.742,-67.444,0,0,0,
,-0.205,0.455,0.754,1263.549,53.894,-77.759,0,0,0,
,-0.167,0.322,0.796,1155.456,65.246,-86.06,0,0,0,
,-0.12,0.333,0.834,1115.6,70.373,-97.535,0,0,0,
,-0.112,0.326,0.906,1085.693,62.927,-58.716,0,0,0,
,-0.162,0.284,0.895,1026.855,61.035,-81.055,0,0,0,
,-0.215,0.168,0.909,908.02,62.622,-104.981,0,0,0,
,-0.228,0.103,0.952,765.869,128.296,-108.582,0,0,0,
,-0.167,0.048,0.99,630.676,223.571,-123.23,0,0,0,
,-0.11,0.019,0.972,517.761,254.028,-128.113,0,0,0,
,-0.074,0.064,0.957,371.215,219.36,-124.085,0,0,0,
,-0.081,0.122,0.938,324.768,185.058,-133.423,0,0,0,
,-0.094,0.146,0.963,377.807,169.006,-163.453,0,0,0,
,-0.089,0.099,0.967,439.148,184.448,-185.242,0,0,0,
,-0.092,0.022,0.966,436.645,172.546,-212.891,0,0,0,
,-0.107,0.033,0.955,409.301,153.32,-219.788,0,0,0,
,-0.114,0.038,0.979,362.426,158.142,-219.666,0,0,0,
,-0.104,0.034,0.98,346.374,180.42,-228.272,0,0,0,
,-0.093,-0.003,0.985,320.495,182.006,-221.558,0,0,0,
,-0.096,-0.028,1.03,257.934,150.756,-219.3,0,0,0,
,-0.108,-0.021,1.01,170.471,121.582,-205.994,0,0,0,
,-0.116,0.003,1.016,90.942,95.398,-188.172,0,0,0,
,-0.139,0.044,1.008,39.245,94.848,-179.993,0,0,0,
,-0.144,0.049,1.004,26.123,96.984,-152.1,0,0,0,
,-0.133,0.025,1.015,4.516,83.313,-122.132,0,0,0,
,-0.138,-0.005,1.018,-46.753,60.546,-83.863,0,0,0,
,-0.15,0.005,1.013,-82.337,51.696,-49.805,0,0,0,
,-0.148,0.018,1,-143.799,74.279,-27.771,0,0,0,
,-0.123,0.008,0.998,-180.298,92.956,0.122,0,0,0,
,-0.1,0.031,0.978,-189.515,80.383,15.197,0,0,0,
,-0.093,0.048,0.984,-164.917,55.236,12.573,0,0,0,
,-0.113,0.004,0.971,-131.409,31.127,1.648,0,0,0,
,-0.132,-0.058,0.945,-91.492,31.982,-20.569,0,0,0,
,-0.136,-0.117,0.938,-70.557,38.574,-40.711,0,0,0,
,-0.123,-0.145,0.972,-89.783,40.161,-87.403,0,0,0,
,-0.071,-0.184,1.028,-154.297,53.649,-99.244,0,0,0,
,-0.013,-0.032,1.128,-173.523,57.983,-89.417,0,0,0,
,0.027,0.072,1.139,-116.578,50.781,-105.408,0,0,0,
,0.043,0.093,1.152,-33.448,26.123,-72.754,0,0,0,
,0.024,0.101,1.116,48.095,-8.728,-80.567,0,0,0,
,-0.057,0.002,1.045,15.93,3.784,-40.65,0,0,0,
,-0.03,0.023,1.042,-0.367,36.315,-32.349,0,0,0,
,0,0.03,1.035,13.732,34.606,-45.289,0,0,0,
,0,0.02,1.019,32.592,16.54,-48.401,0,0,0,
,-0.011,-0.002,1.015,33.386,5.371,-49.378,0,0,0,
,-0.017,-0.024,1.03,12.146,15.869,-41.016,0,0,0,
,-0.007,-0.018,1.033,-20.752,28.381,-32.471,0,0,0,
,-0.001,0.005,1.032,-32.288,19.226,-37.11,0,0,0,
,-0.004,0.017,1.035,-22.095,9.765,-32.715,0,0,0,
,-0.006,0.005,1.02,-14.771,4.821,-30.152,0,0,0,
,-0.012,0.004,1.013,-25.879,12.817,-32.837,0,0,0,
,-0.009,0.012,0.998,-40.894,18.005,-24.17,0,0,0,
,-0.005,0.031,0.999,-35.096,18.066,-27.588,0,0,0,
,-0.003,0.026,1.014,-9.827,12.817,-25.696,0,0,0,
,-0.001,0.008,1.026,-0.794,10.925,-25.94,0,0,0,
,-0.002,0.003,1.017,-6.165,12.207,-30.213,0,0,0,
,-0.007,0.005,1.002,-19.959,3.906,-31.922,0,0,0,
,-0.005,0.034,1.01,-11.658,10.803,-25.33,0,0,0,
,-0.003,0.025,1.023,-4.029,9.155,-28.199,0,0,0,
,-0.01,0.006,1.028,2.197,5.859,-26.734,0,0,0,
,-0.015,-0.003,1.016,-11.475,5.432,-29.053,0,0,0,
,-0.011,-0.002,1.006,-25.33,4.638,-32.166,0,0,0,
,-0.003,0.012,1.009,-1.16,9.765,-30.274,0,0,0,
,-0.003,0.011,1.002,16.296,11.047,-27.894,0,0,0,
,-0.007,-0.003,1.01,13.732,7.934,-26.49,0,0,0,
,-0.015,-0.009,1.018,-10.743,6.652,-29.419,0,0,0,
,-0.015,-0.003,1.034,-31.861,6.103,-29.297,0,0,0,
,-0.013,0.013,1.046,-33.57,4.15,-25.574,0,0,0,
,-0.012,0.025,1.047,-26.001,10.742,-24.781,0,0,0,
,-0.013,0.013,1.03,-25.147,12.878,-26.001,0,0,0,
,-0.014,0.006,1.016,-46.448,12.695,-21.729,0,0,0,
,-0.011,0.005,1.006,-46.143,13.427,-22.522,0,0,0,
,-0.008,0.022,0.997,-45.777,13.916,-23.56,0,0,0,
,-0.007,0.032,0.994,-24.292,14.709,-26.185,0,0,0,
,-0.006,0.027,0.994,0.915,7.751,-31.189,0,0,0,
,-0.007,0.015,0.998,15.319,15.869,-33.875,0,0,0,
,-0.003,0.007,1.03,12.146,10.925,-31.8,0,0,0,
,-0.007,0.001,1.006,0.427,6.225,-32.532,0,0,0,
,-0.011,0.005,1.012,-5.921,3.418,-31.067,0,0,0,
,-0.013,0.01,1.02,-9.522,4.272,-31.983,0,0,0,
,-0.015,0.014,1.021,-2.015,5.676,-32.532,0,0,0,
,-0.017,0.015,1.021,-0.733,4.089,-34.18,0,0,0,
,-0.015,0.009,1.013,-10.01,7.507,-34.302,0,0,0,
,-0.016,0.006,1.013,-17.579,8.117,-33.875,0,0,0,
,-0.008,0.003,1.01,-17.823,11.84,-30.579,0,0,0,
,-0.005,0.003,1.007,-8.851,10.131,-30.091,0,0,0,
,-0.012,0,1.005,-2.32,7.751,-28.809,0,0,0,
,-0.014,0.011,1.014,-4.7,10.437,-29.541,0,0,0,
,-0.019,0.015,1.017,-4.212,10.131,-25.757,0,0,0,
,-0.019,0.01,1.02,2.197,10.925,-24.659,0,0,0,
,-0.015,0.008,1.023,11.291,9.521,-26.001,0,0,0,
,-0.016,0,1.03,13.244,4.394,-27.039,0,0,0,
,-0.023,0.006,1.042,1.709,2.441,-25.94,0,0,0,
,-0.026,0.018,1.055,1.403,9.765,-24.964,0,0,0,
,-0.019,0.013,1.055,13.122,17.639,-18.86,0,0,0,
,-0.011,-0.006,1.065,20.507,22.338,-7.142,0,0,0,
,-0.013,-0.023,1.048,0.549,14.404,-13.428,0,0,0,
,-0.027,-0.044,1.042,-36.133,-1.038,0.854,0,0,0,
,-0.069,0.002,1.068,-94.117,-33.265,6.469,0,0,0,
,-0.077,0.006,1.068,-71.595,-38.392,8.789,0,0,0,
,-0.106,-0.018,1.01,-48.279,-74.769,16.54,0,0,0,
,-0.126,0.057,1.054,-62.256,-128.174,43.029,0,0,0,
,-0.143,-0.008,1.056,-80.262,-147.828,-2.381,0,0,0,
,-0.139,-0.04,1.075,-120.057,-170.838,0.976,0,0,0,
,-0.165,-0.01,1.097,-93.445,-212.037,-36.683,0,0,0,
,-0.194,-0.111,1.074,-128.357,-200.562,-8.789,0,0,0,
,-0.204,-0.035,1.041,-415.833,-177.308,89.355,0,0,0,
,-0.171,0.146,1.018,-566.529,-156.678,135.315,0,0,0,
,-0.253,0.163,0.958,-135.193,-172.669,168.945,0,0,0,
,-0.255,0.099,0.944,-45.838,-146.607,163.635,0,0,0,
,-0.237,0.062,0.928,-36.011,-137.269,161.804,0,0,0,
,-0.224,0.044,0.945,-62.439,-136.78,159.851,0,0,0,
,-0.214,0.097,0.958,-286.072,-38.025,138.183,0,0,0,
,-0.216,0.065,0.949,-304.383,-29.114,141.784,0,0,0,
,-0.211,0.062,0.94,-355.225,-16.907,147.522,0,0,0,
,-0.198,0.141,0.968,-393.311,-6.714,150.329,0,0,0,
,-0.177,0.278,0.973,-334.778,10.07,128.967,0,0,0,
,-0.155,0.373,0.955,-173.523,27.893,92.773,0,0,0,
,-0.142,0.329,0.927,61.889,22.277,56.396,0,0,0,
,-0.137,0.213,0.938,208.007,3.295,51.513,0,0,0,
,-0.121,0.187,0.961,213.256,-6.348,55.969,0,0,0,
,-0.032,0.276,1.003,203.735,-8.667,62.5,0,0,0,
,-0.053,0.229,0.968,231.811,-32.959,77.026,0,0,0,
,-0.084,0.134,0.961,140.869,-65.369,89.965,0,0,0,
,-0.114,0.081,0.967,-43.152,-94.605,86.425,0,0,0,
,-0.15,0.066,0.994,-240.601,-97.596,77.758,0,0,0,
,-0.175,0.054,0.997,-448.182,-58.655,76.843,0,0,0,
,-0.154,0.048,0.946,-709.168,-9.339,75.256,0,0,0,
,-0.137,0.078,0.906,-982.422,-17.09,65.124,0,0,0,
,-0.15,0.177,0.907,-1227.356,-58.838,32.165,0,0,0,
,-0.139,0.35,0.874,-1288.636,-79.651,-13.245,0,0,0,
,-0.128,0.472,0.888,-1122.01,-72.693,-42.176,0,0,0,
,-0.153,0.436,0.9,-918.396,-27.405,-47.242,0,0,0,
,-0.176,0.343,0.86,-893.738,22.461,-2.747,0,0,0,
,-0.139,0.314,0.804,-1107.972,34.79,17.028,0,0,0,
,-0.099,0.452,0.778,-1339.905,1.77,13.427,0,0,0,
,-0.107,0.59,0.766,-1392.334,-26.246,-28.26,0,0,0,
,-0.117,0.653,0.776,-1242.066,-14.405,-70.374,0,0,0,
,-0.121,0.638,0.744,-1036.377,11.474,-80.506,0,0,0,
,-0.131,0.644,0.708,-897.828,26.672,-80.75,0,0,0,
,-0.145,0.649,0.688,-813.965,28.137,-82.886,0,0,0,
,-0.129,0.672,0.665,-738.831,27.16,-95.643,0,0,0,
,-0.12,0.737,0.686,-620.362,18.676,-111.023,0,0,0,
,-0.136,0.765,0.65,-524.903,25.573,-94.056,0,0,0,
,-0.139,0.793,0.62,-408.936,32.775,-90.76,0,0,0,
,-0.143,0.779,0.598,-339.6,33.081,-91.858,0,0,0,
,-0.164,0.723,0.597,-375.061,48.217,-93.323,0,0,0,
,-0.152,0.765,0.563,-414.368,67.138,-75.013,0,0,0,
,-0.177,0.807,0.515,-406.189,76.538,-65.979,0,0,0,
,-0.181,0.737,0.479,-401.612,61.95,-53.956,0,0,0,
,-0.169,0.69,0.495,-521.607,33.63,-11.963,0,0,0,
,-0.172,0.736,0.485,-686.341,30.456,23.498,0,0,0,
,-0.169,0.929,0.424,-671.509,38.208,36.926,0,0,0,
,-0.203,1.116,0.404,-463.44,39.856,-0.428,0,0,0,
,-0.216,1.059,0.435,-136.597,33.081,-44.678,0,0,0,
,-0.2,0.921,0.474,10.315,19.104,-26.185,0,0,0,
,-0.19,0.833,0.517,-94.3,19.958,-1.526,0,0,0,
,-0.223,0.825,0.508,-302.857,48.278,45.41,0,0,0,
,-0.195,0.856,0.438,-491.944,52.49,54.077,0,0,0,
,-0.181,0.9,0.376,-569.642,15.991,59.875,0,0,0,
,-0.178,0.954,0.381,-538.269,-14.832,53.527,0,0,0,
,-0.219,0.951,0.398,-508.728,3.784,59.936,0,0,0,
,-0.233,0.869,0.328,-592.591,45.471,59.204,0,0,0,
,-0.197,0.841,0.203,-797.486,30.517,31.799,0,0,0,
,-0.197,0.952,0.189,-906.189,-34.485,-11.353,0,0,0,
,-0.226,1.052,0.247,-842.469,-48.035,-39.551,0,0,0,
,-0.243,1.078,0.208,-664.246,-53.772,-67.627,0,0,0,
,-0.24,1.021,0.186,-497.315,-46.753,-87.22,0,0,0,
,-0.235,0.911,0.17,-492.554,-16.175,-79.224,0,0,0,
,-0.217,0.968,0.164,-550.66,-1.831,-71.167,0,0,0,
,-0.216,1.021,0.162,-558.106,17.273,-58.167,0,0,0,
,-0.214,0.99,0.146,-520.203,29.113,-42.603,0,0,0,
,-0.203,0.952,0.135,-509.949,17.334,-32.776,0,0,0,
,-0.212,0.937,0.12,-517.029,-14.039,-18.128,0,0,0,
,-0.191,0.977,0.136,-394.715,-48.218,-31.556,0,0,0,
,-0.216,0.929,0.092,-333.13,-31.495,-40.101,0,0,0,
,-0.199,0.998,0.044,-334.778,-36.499,-57.251,0,0,0,
,-0.184,0.981,0,-259.461,-26.917,-42.115,0,0,0,
,-0.199,0.976,0.008,-216.797,-25.635,-21.058,0,0,0,
,-0.181,0.967,0.012,-220.887,-20.569,-17.701,0,0,0,
,-0.199,0.977,0.011,-236.329,-6.714,-18.86,0,0,0,
,-0.201,0.996,-0.011,-232.422,-11.841,-10.01,0,0,0,
,-0.184,0.949,-0.025,-223.633,-21.241,-7.325,0,0,0,
,-0.198,0.982,-0.024,-235.596,-13.916,-2.259,0,0,0,
,-0.194,1.029,-0.027,-202.393,-10.987,2.868,0,0,0,
,-0.214,1.024,-0.034,-109.864,3.356,16.906,0,0,0,
,-0.192,0.966,-0.089,-87.098,-5.249,22.399,0,0,0,
,-0.188,0.982,-0.11,-105.774,-31.861,35.461,0,0,0,
,-0.179,1.024,-0.098,-109.559,-49.866,43.762,0,0,0,
,-0.195,1.008,-0.089,-104.371,-54.688,38.208,0,0,0,
,-0.214,0.982,-0.074,-68.665,-36.194,43.701,0,0,0,
,-0.209,1.009,-0.079,1.831,-17.945,59.509,0,0,0,
,-0.207,1.014,-0.108,56.823,-1.038,73.364,0,0,0,
,-0.213,1.034,-0.072,106.872,15.502,95.031,0,0,0,
,-0.227,1.003,-0.044,121.948,50.109,103.21,0,0,0,
,-0.227,0.976,-0.061,86.059,67.627,102.722,0,0,0,
,-0.245,0.995,-0.031,48.645,64.575,88.44,0,0,0,
,-0.26,0.956,-0.022,24.047,67.932,92.163,0,0,0,
,-0.253,0.961,-0.026,-45.472,64.697,101.379,0,0,0,
,-0.266,0.985,-0.04,-135.254,59.509,95.764,0,0,0,
,-0.276,0.992,-0.053,-207.459,60.363,94.055,0,0,0,
,-0.274,1.017,-0.085,-265.015,57.251,107.544,0,0,0,
,-0.296,1.038,-0.079,-256.226,55.786,130.615,0,0,0,
,-0.305,1.033,-0.08,-251.221,66.528,157.348,0,0,0,
,-0.317,1.039,-0.098,-223.511,91.186,187.5,0,0,0,
,-0.328,1.043,-0.115,-158.692,104.431,223.144,0,0,0,
,-0.332,1.046,-0.135,-117.066,115.417,249.878,0,0,0,
,-0.347,1.052,-0.142,-63.599,115.783,273.193,0,0,0,
,-0.362,1.043,-0.117,-25.269,116.027,295.41,0,0,0,
,-0.379,0.998,-0.109,-30.945,116.821,309.204,0,0,0,
,-0.387,0.958,-0.114,-36.927,105.346,321.594,0,0,0,
,-0.391,0.948,-0.136,-28.931,93.017,333.068,0,0,0,
,-0.396,0.949,-0.124,-32.898,77.392,341.613,0,0,0,
,-0.412,0.958,-0.098,-60.791,63.781,342.895,0,0,0,
,-0.435,0.942,-0.09,-80.628,65.246,346.557,0,0,0,
,-0.441,0.913,-0.102,-91.309,69.702,351.196,0,0,0,
,-0.431,0.949,-0.132,-80.079,64.636,357.727,0,0,0,
,-0.457,0.946,-0.102,-56.519,67.199,364.196,0,0,0,
,-0.484,0.903,-0.085,-20.874,81.298,371.643,0,0,0,
,-0.487,0.862,-0.108,22.766,87.402,385.742,0,0,0,
,-0.498,0.866,-0.088,70.19,85.266,391.296,0,0,0,
,-0.511,0.844,-0.083,54.199,91.674,388.183,0,0,0,
,-0.521,0.818,-0.064,46.386,92.834,390.258,0,0,0,
,-0.547,0.833,-0.071,68.054,87.524,396.484,0,0,0,
,-0.565,0.775,-0.053,97.656,100.525,396.606,0,0,0,
,-0.573,0.759,-0.052,72.143,112.732,399.231,0,0,0,
,-0.591,0.777,-0.052,101.562,124.023,399.353,0,0,0,
,-0.604,0.749,-0.053,108.398,114.624,391.723,0,0,0,
,-0.636,0.744,-0.042,109.68,96.008,389.099,0,0,0,
,-0.663,0.747,-0.008,133.606,90.21,386.413,0,0,0,
,-0.683,0.745,-0.006,158.02,91.247,388.855,0,0,0,
,-0.704,0.748,-0.022,180.542,85.083,385.254,0,0,0,
,-0.702,0.729,-0.039,213.379,72.815,381.897,0,0,0,
,-0.707,0.721,-0.006,232.177,76.477,384.155,0,0,0,
,-0.711,0.699,-0.003,248.108,90.942,395.385,0,0,0,
,-0.722,0.678,0.03,264.953,112.426,407.348,0,0,0,
,-0.716,0.639,-0.026,243.469,129.028,408.02,0,0,0,
,-0.718,0.65,-0.022,233.886,106.323,397.827,0,0,0,
,-0.738,0.632,0.036,221.435,89.538,384.338,0,0,0,
,-0.745,0.6,0.035,190.185,89.294,386.047,0,0,0,
,-0.735,0.572,0.01,169.616,76.232,381.897,0,0,0,
,-0.747,0.544,0.027,189.697,72.998,384.155,0,0,0,
,-0.755,0.579,0.046,211.609,74.035,389.953,0,0,0,
,-0.762,0.548,0.049,233.947,89.782,397.644,0,0,0,
,-0.771,0.552,0.074,210.083,96.069,401.55,0,0,0,
,-0.789,0.528,0.067,210.449,95.031,397.888,0,0,0,
,-0.807,0.511,0.075,227.111,87.158,395.691,0,0,0,
,-0.816,0.482,0.104,264.221,74.218,397.827,0,0,0,
,-0.816,0.458,0.106,245.361,66.04,400.451,0,0,0,
,-0.837,0.471,0.118,229.858,66.345,396.057,0,0,0,
,-0.845,0.458,0.114,227.234,76.721,382.751,0,0,0,
,-0.861,0.435,0.106,233.947,67.077,368.774,0,0,0,
,-0.86,0.4,0.083,220.52,61.279,351.928,0,0,0,
,-0.866,0.411,0.114,191.04,60.241,312.988,0,0,0,
,-0.865,0.396,0.115,192.138,70.129,306.335,0,0,0,
,-0.871,0.373,0.115,181.03,80.932,286.316,0,0,0,
,-0.872,0.359,0.123,166.381,80.688,266.479,0,0,0,
,-0.873,0.36,0.153,197.509,72.998,263,0,0,0,
,-0.892,0.362,0.167,226.44,64.148,267.944,0,0,0,
,-0.905,0.34,0.179,256.164,62.5,270.935,0,0,0,
,-0.921,0.315,0.207,265.686,53.833,278.991,0,0,0,
,-0.929,0.325,0.222,279.113,53.955,285.217,0,0,0,
,-0.946,0.289,0.223,253.479,56.945,284.912,0,0,0,
,-0.946,0.295,0.244,257.385,50.048,287.719,0,0,0,
,-0.944,0.272,0.255,247.558,42.663,292.48,0,0,0,
,-0.96,0.257,0.271,228.637,40.466,291.076,0,0,0,
,-0.957,0.243,0.252,217.224,26.428,292.968,0,0,0,
,-0.967,0.233,0.272,209.289,25.085,290.405,0,0,0,
,-0.973,0.225,0.269,213.501,22.033,282.165,0,0,0,
,-0.982,0.185,0.274,193.115,22.094,275.024,0,0,0,
,-0.982,0.176,0.269,173.523,23.62,263.061,0,0,0,
,-0.98,0.144,0.288,162.048,35.827,253.601,0,0,0,
,-0.959,0.108,0.249,113.952,49.682,238.586,0,0,0,
,-0.948,0.121,0.248,67.871,60.974,209.716,0,0,0,
,-0.952,0.129,0.242,55.481,73.364,176.086,0,0,0,
,-0.944,0.102,0.264,39.794,93.689,149.597,0,0,0,
,-0.928,0.09,0.284,50.598,118.652,135.192,0,0,0,
,-0.92,0.103,0.281,82.214,124.878,133.239,0,0,0,
,-0.92,0.159,0.285,137.329,111.023,132.019,0,0,0,
,-0.943,0.166,0.278,190.307,85.693,132.507,0,0,0,
,-0.94,0.135,0.259,236.267,60.546,136.718,0,0,0,
,-0.943,0.095,0.286,280.883,50.659,145.752,0,0,0,
,-0.954,0.072,0.295,281.677,50.598,156.189,0,0,0,
,-0.955,0.032,0.259,237.976,39.367,145.263,0,0,0,
,-0.974,0.058,0.286,210.51,26.55,123.047,0,0,0,
,-0.999,0.043,0.287,164.062,18.249,99.487,0,0,0,
,-1,0.016,0.287,130.737,15.38,82.214,0,0,0,
,-1.006,0.007,0.309,109.741,16.845,80.139,0,0,0,
,-1.013,0.024,0.303,94.726,26.245,84.167,0,0,0,
,-1,0.044,0.294,87.585,22.888,79.834,0,0,0,
,-0.999,0.045,0.301,79.284,17.334,75.134,0,0,0,
,-1.007,0.038,0.317,77.148,17.273,72.692,0,0,0,
,-0.999,0,0.318,60.241,26.489,77.88,0,0,0,
,-0.989,0.006,0.309,51.879,31.25,87.646,0,0,0,
,-0.983,0.007,0.302,44.86,23.62,91.369,0,0,0,
,-0.986,0.026,0.31,43.823,24.169,92.224,0,0,0,
,-0.984,0.013,0.322,33.63,24.047,89.355,0,0,0,
,-0.979,0.005,0.319,30.09,31.372,93.811,0,0,0,
,-0.983,-0.018,0.302,24.231,36.926,94.97,0,0,0,
,-0.972,-0.01,0.303,22.949,25.817,94.177,0,0,0,
,-0.974,-0.014,0.31,31.066,19.836,96.191,0,0,0,
,-0.975,-0.009,0.318,31.555,23.925,97.778,0,0,0,
,-0.977,-0.014,0.305,29.846,34.179,95.459,0,0,0,
,-0.964,-0.04,0.281,26.733,35.888,89.66,0,0,0,
,-0.949,-0.035,0.289,24.414,27.404,82.824,0,0,0,
,-0.945,-0.056,0.28,1.831,20.507,74.89,0,0,0,
,-0.954,-0.05,0.313,-29.297,14.404,59.265,0,0,0,
,-0.954,-0.063,0.327,-45.899,26.733,50.903,0,0,0,
,-0.947,-0.064,0.308,-63.416,32.226,40.893,0,0,0,
,-0.943,-0.047,0.294,-70.191,20.202,31.677,0,0,0,
,-0.953,-0.035,0.303,-59.51,11.657,23.925,0,0,0,
,-0.964,-0.034,0.318,-37.11,15.014,18.737,0,0,0,
,-0.976,-0.045,0.304,21.728,36.865,28.991,0,0,0,
,-0.976,-0.045,0.3,51.452,39.062,35.461,0,0,0,
,-0.982,-0.027,0.315,66.833,37.17,38.635,0,0,0,
,-0.989,-0.053,0.32,66.589,39.184,36.804,0,0,0,
,-0.982,-0.069,0.324,76.538,39.856,39.55,0,0,0,
,-0.979,-0.094,0.332,72.387,42.114,43.335,0,0,0,
,-0.978,-0.051,0.334,15.258,5.493,44.799,0,0,0,
,-0.974,-0.059,0.315,12.817,3.723,40.466,0,0,0,
,-0.97,-0.086,0.322,17.334,-5.982,38.513,0,0,0,
,-0.963,-0.099,0.327,35.888,-5.188,50.231,0,0,0,
,-0.959,-0.102,0.328,71.655,12.939,63.476,0,0,0,
,-0.96,-0.123,0.305,88.501,37.841,70.251,0,0,0,
,-0.953,-0.134,0.331,78.308,34.606,68.298,0,0,0,
,-0.946,-0.156,0.324,67.627,39.856,64.086,0,0,0,
,-0.94,-0.162,0.323,47.119,36.743,54.504,0,0,0,
,-0.945,-0.158,0.32,-9.705,24.658,20.568,0,0,0,
,-0.94,-0.166,0.32,-11.536,22.461,14.16,0,0,0,
,-0.94,-0.168,0.305,-4.639,25.268,9.399,0,0,0,
,-0.945,-0.163,0.32,5.249,23.742,6.774,0,0,0,
,-0.948,-0.155,0.304,15.625,27.404,1.159,0,0,0,
,-0.938,-0.163,0.307,6.164,15.014,0.427,0,0,0,
,-0.945,-0.158,0.32,-2.747,11.474,-4.029,0,0,0,
,-0.953,-0.162,0.314,-23.438,12.268,-31.189,0,0,0,
,-0.948,-0.161,0.299,-37.11,9.887,-30.579,0,0,0,
,-0.948,-0.136,0.314,-35.889,8.85,-38.88,0,0,0,
,-0.948,-0.144,0.315,-35.462,14.648,-38.758,0,0,0,
,-0.944,-0.12,0.329,-19.349,19.714,-27.405,0,0,0,
,-0.956,-0.13,0.327,36.56,12.939,-6.714,0,0,0,
,-0.962,-0.156,0.332,47.851,5.188,-13.428,0,0,0,
,-0.961,-0.152,0.344,58.898,6.836,-16.358,0,0,0,
,-0.955,-0.178,0.328,54.077,11.108,-19.349,0,0,0,
,-0.949,-0.183,0.315,29.907,15.441,-28.626,0,0,0,
,-0.945,-0.187,0.302,8.85,6.958,-38.941,0,0,0,
,-0.941,-0.183,0.316,-20.02,1.586,-52.491,0,0,0,
,-0.945,-0.177,0.32,-26.001,7.69,-65.491,0,0,0,
,-0.939,-0.18,0.319,-46.814,11.84,-73.975,0,0,0,
,-0.933,-0.176,0.298,-64.82,15.686,-85.877,0,0,0,
,-0.92,-0.172,0.287,-83.558,5.737,-106.568,0,0,0,
,-0.916,-0.169,0.302,-118.836,-1.221,-131.592,0,0,0,
,-0.908,-0.154,0.298,-188.172,-2.93,-158.326,0,0,0,
,-0.898,-0.153,0.302,-247.925,-9.4,-200.867,0,0,0,
,-0.893,-0.161,0.307,-253.602,-17.762,-239.441,0,0,0,
,-0.88,-0.183,0.293,-278.809,-23.255,-262.207,0,0,0,
,-0.892,-0.167,0.307,-331.727,-26.917,-282.288,0,0,0,
,-0.896,-0.128,0.328,-403.87,-30.274,-315.796,0,0,0,
,-0.892,-0.125,0.321,-420.655,-41.382,-342.896,0,0,0,
,-0.889,-0.111,0.319,-409.729,-53.345,-372.925,0,0,0,
,-0.896,-0.084,0.305,-432.007,-64.637,-390.503,0,0,0,
,-0.923,-0.055,0.302,-478.699,-71.656,-415.772,0,0,0,
,-0.928,-0.048,0.279,-521.851,-76.539,-431.275,0,0,0,
,-0.94,-0.001,0.287,-524.842,-80.079,-439.454,0,0,0,
,-0.939,0.049,0.274,-507.081,-75.745,-443.604,0,0,0,
,-0.958,0.077,0.263,-485.657,-74.341,-445.252,0,0,0,
,-0.951,0.097,0.256,-450.135,-76.05,-444.397,0,0,0,
,-0.942,0.125,0.246,-394.471,-78.064,-443.909,0,0,0,
,-0.926,0.14,0.246,-353.516,-80.201,-438.538,0,0,0,
,-0.93,0.155,0.247,-297.547,-81.055,-432.251,0,0,0,
,-0.938,0.149,0.234,-290.894,-85.144,-433.899,0,0,0,
,-0.943,0.174,0.229,-282.898,-95.398,-444.581,0,0,0,
,-0.925,0.174,0.225,-269.532,-109.681,-456.604,0,0,0,
,-0.933,0.211,0.233,-258.301,-115.113,-461.976,0,0,0,
,-0.928,0.216,0.239,-242.188,-114.441,-463.685,0,0,0,
,-0.939,0.235,0.211,-249.634,-119.568,-469.544,0,0,0,
,-0.919,0.239,0.208,-242.371,-121.582,-475.159,0,0,0,
,-0.896,0.255,0.204,-256.043,-132.203,-481.263,0,0,0,
,-0.902,0.272,0.209,-259.522,-139.161,-487.854,0,0,0,
,-0.909,0.296,0.219,-262.024,-149.048,-497.62,0,0,0,
,-0.901,0.306,0.195,-269.104,-162.842,-514.344,0,0,0,
,-0.881,0.285,0.186,-274.659,-170.838,-534.18,0,0,0,
,-0.896,0.348,0.168,-334.717,-169.556,-620.362,0,0,0,
,-0.874,0.419,0.131,-370.301,-171.265,-657.715,0,0,0,
,-0.853,0.419,0.083,-386.109,-177.063,-688.111,0,0,0,
,-0.828,0.47,0.068,-436.036,-201.111,-716.065,0,0,0,
,-0.832,0.516,0.08,-412.964,-216.248,-729.92,0,0,0,
,-0.79,0.614,-0.009,-428.711,-253.724,-713.807,0,0,0,
,-0.775,0.662,-0.032,-442.139,-267.823,-706.482,0,0,0,
,-0.76,0.703,-0.039,-460.633,-280.213,-697.632,0,0,0,
,-0.766,0.731,-0.056,-436.097,-272.706,-671.326,0,0,0,
,-0.751,0.734,-0.126,-434.144,-265.381,-646.912,0,0,0,
,-0.738,0.749,-0.137,-378.235,-271.058,-622.986,0,0,0,
,-0.716,0.785,-0.124,-327.271,-260.804,-593.873,0,0,0,
,-0.708,0.819,-0.119,-316.285,-243.653,-576.111,0,0,0,
,-0.704,0.826,-0.135,-291.321,-224.732,-563.538,0,0,0,
,-0.687,0.776,-0.177,-261.475,-209.9,-558.106,0,0,0,
,-0.632,0.762,-0.211,-225.159,-229.432,-549.5,0,0,0,
,-0.574,0.838,-0.222,-229.432,-249.695,-534.913,0,0,0,
,-0.568,0.905,-0.212,-177.857,-252.198,-514.222,0,0,0,
,-0.552,0.844,-0.238,-132.569,-229.554,-487.122,0,0,0,
,-0.537,0.859,-0.238,-99.305,-201.477,-456.36,0,0,0,
,-0.505,0.885,-0.285,-72.998,-181.031,-425.354,0,0,0,
,-0.504,0.935,-0.264,-37.598,-170.044,-405.03,0,0,0,
,-0.486,0.904,-0.246,-49.622,-144.776,-375.794,0,0,0,
,-0.456,0.897,-0.261,-61.28,-131.104,-367.371,0,0,0,
,-0.433,0.879,-0.287,-47.242,-122.803,-351.746,0,0,0,
,-0.418,0.888,-0.278,-51.758,-116.822,-340.271,0,0,0,
,-0.394,0.901,-0.304,-116.517,-77.881,-299.073,0,0,0,
,-0.373,0.901,-0.313,-108.765,-85.999,-286.805,0,0,0,
,-0.356,0.933,-0.3,-99.732,-88.685,-274.537,0,0,0,
,-0.357,0.915,-0.292,-109.742,-88.501,-263.916,0,0,0,
,-0.339,0.899,-0.312,-123.841,-91.553,-253.235,0,0,0,
,-0.326,0.901,-0.316,-121.399,-80.506,-239.624,0,0,0,
,-0.326,0.913,-0.319,-89.6,-71.656,-222.901,0,0,0,
,-0.322,0.92,-0.322,-69.581,-62.623,-209.534,0,0,0,
,-0.32,0.921,-0.321,-62.989,-62.989,-198.609,0,0,0,
,-0.313,0.92,-0.327,-70.74,-55.176,-188.294,0,0,0,
,-0.31,0.926,-0.343,-58.533,-52.796,-180.054,0,0,0,
,-0.306,0.923,-0.349,-36.866,-45.533,-165.772,0,0,0,
,-0.317,0.927,-0.32,-14.527,-36.133,-146.424,0,0,0,
,-0.316,0.928,-0.32,-1.831,-18.433,-109.986,0,0,0,
,-0.302,0.919,-0.332,-18.372,-35.096,-105.53,0,0,0,
,-0.306,0.943,-0.315,-22.278,-33.387,-101.929,0,0,0,
,-0.304,0.919,-0.315,-37.354,-28.26,-94.3,0,0,0,
,-0.299,0.892,-0.329,-21.668,-24.292,-83.68,0,0,0,
,-0.289,0.909,-0.311,-12.635,-13.489,-69.703,0,0,0,
,-0.287,0.913,-0.312,7.873,-6.836,-68.97,0,0,0,
,-0.283,0.895,-0.322,27.404,-5.982,-67.627,0,0,0,
,-0.273,0.885,-0.316,29.602,-8.118,-64.637,0,0,0,
,-0.275,0.903,-0.294,33.813,-10.743,-68.848,0,0,0,
,-0.274,0.884,-0.304,44.677,-10.01,-71.351,0,0,0,
,-0.276,0.895,-0.298,54.748,-4.944,-72.998,0,0,0,
,-0.267,0.873,-0.316,61.035,-9.4,-76.783,0,0,0,
,-0.265,0.891,-0.311,61.157,-14.588,-81.971,0,0,0,
,-0.27,0.899,-0.291,74.218,-25.513,-81.91,0,0,0,
,-0.264,0.9,-0.285,74.462,-20.935,-81.604,0,0,0,
,-0.257,0.9,-0.289,68.176,-9.827,-79.163,0,0,0,
,-0.252,0.925,-0.298,95.092,-8.912,-57.068,0,0,0,
,-0.258,0.936,-0.284,96.923,-10.254,-51.27,0,0,0,
,-0.258,0.907,-0.264,69.641,-9.278,-58.716,0,0,0,
,-0.257,0.912,-0.27,66.406,-10.804,-63.721,0,0,0,
,-0.297,0.879,-0.224,-150.574,-5.982,-41.016,0,0,0,
,-0.221,1.048,-0.35,-142.456,-25.391,-58.533,0,0,0,
,-0.238,0.914,-0.301,-50.904,-33.204,-65.674,0,0,0,
,-0.25,1.076,-0.32,-11.17,13.794,-25.147,0,0,0,
,-0.255,0.915,-0.311,55.297,27.282,-2.381,0,0,0,
,-0.258,0.938,-0.285,85.632,41.015,-15.809,0,0,0,
,-0.251,0.912,-0.291,110.107,49.926,-11.475,0,0,0,
,-0.244,0.927,-0.332,76.11,44.616,-13.184,0,0,0,
,-0.243,0.912,-0.295,8.972,27.648,-53.589,0,0,0,
,-0.249,0.891,-0.241,-27.344,16.418,-58.533,0,0,0,
,-0.255,0.944,-0.249,9.704,28.442,-46.936,0,0,0,
,-0.215,0.861,-0.253,58.96,12.146,-41.932,0,0,0,
,-0.226,0.919,-0.265,33.874,11.047,-35.706,0,0,0,
,-0.235,0.977,-0.261,88.134,16.54,-26.185,0,0,0,
,-0.229,0.937,-0.26,116.699,16.357,-23.499,0,0,0,
,-0.219,0.937,-0.253,130.31,14.587,-29.297,0,0,0,
,-0.24,0.923,-0.225,122.07,23.437,-29.114,0,0,0,
,-0.245,0.92,-0.211,81.359,28.137,-39.124,0,0,0,
,-0.241,0.943,-0.245,167.297,22.461,-30.396,0,0,0,
,-0.243,0.924,-0.227,171.508,26.428,-30.762,0,0,0,
,-0.248,0.895,-0.18,125.122,31.005,-42.603,0,0,0,
,-0.28,0.925,-0.147,104.187,26.367,-45.411,0,0,0,
,-0.255,0.96,-0.171,139.221,21.484,-39.795,0,0,0,
,-0.245,0.967,-0.197,208.191,17.089,-25.879,0,0,0,
,-0.236,0.964,-0.204,283.142,25.512,-11.475,0,0,0,
,-0.254,0.932,-0.155,323.364,32.104,-2.015,0,0,0,
,-0.252,0.959,-0.087,289.611,35.827,-17.945,0,0,0,
,-0.244,0.955,-0.092,251.587,30.639,-9.217,0,0,0,
,-0.231,0.976,-0.076,216.858,15.93,-4.395,0,0,0,
,-0.246,0.962,-0.059,194.397,26.977,-25.391,0,0,0,
,-0.246,0.942,-0.015,201.172,51.086,-40.223,0,0,0,
,-0.234,0.976,0.023,229.248,84.045,-57.068,0,0,0,
,-0.223,1.002,0.013,286.316,114.746,-67.2,0,0,0,
,-0.206,1.008,-0.019,335.144,123.474,-66.163,0,0,0,
,-0.227,0.987,-0.016,359.863,118.103,-59.876,0,0,0,
,-0.182,0.948,0.014,229.37,111.023,-59.632,0,0,0,
,-0.226,0.958,0.006,165.71,111.877,-85.083,0,0,0,
,-0.235,0.938,-0.02,214.843,142.334,-65.491,0,0,0,
,-0.211,1.013,-0.048,299.865,131.225,-64.209,0,0,0,
,-0.209,1.075,0.009,457.702,78.918,-75.928,0,0,0,
,-0.217,1.018,0.121,627.38,33.874,-91.736,0,0,0,
,-0.208,0.954,0.194,706.054,27.221,-108.704,0,0,0,
,-0.202,0.967,0.248,669.006,51.147,-110.718,0,0,0,
,-0.162,1.01,0.232,586.242,85.144,-143.982,0,0,0,
,-0.139,0.968,0.222,512.085,66.711,-166.138,0,0,0,
,-0.115,0.953,0.248,488.83,24.414,-187.928,0,0,0,
,-0.087,0.95,0.287,497.802,-7.325,-190.369,0,0,0,
,-0.071,0.947,0.304,545.349,-29.053,-181.519,0,0,0,
,-0.059,0.954,0.322,625.549,-13.916,-163.697,0,0,0,
,-0.02,0.972,0.309,748.413,-4.822,-150.269,0,0,0,
,0.012,0.979,0.343,885.254,14.404,-140.32,0,0,0,
,0.001,0.954,0.379,986.023,34.362,-116.456,0,0,0,
,0,0.953,0.332,1027.343,60.669,-140.931,0,0,0,
,-0.012,0.931,0.332,1131.042,70.922,-104.371,0,0,0,
,-0.003,0.917,0.34,1268.31,80.505,-118.103,0,0,0,
,0.012,0.871,0.355,1403.32,70.007,-123.597,0,0,0,
,-0.009,0.823,0.397,1489.624,37.231,-135.498,0,0,0,
,-0.036,0.779,0.415,1539.123,6.591,-128.052,0,0,0,
,-0.02,0.764,0.457,1517.089,7.385,-144.41,0,0,0,
,-0.002,0.737,0.51,1508.85,-3.418,-176.88,0,0,0,
,-0.044,0.717,0.626,1538.269,-18.189,-192.139,0,0,0,
,-0.103,0.656,0.726,1590.026,22.949,-199.28,0,0,0,
,-0.141,0.554,0.771,1592.651,91.308,-199.158,0,0,0,
,-0.165,0.457,0.783,1541.015,127.136,-198.243,0,0,0,
,-0.184,0.397,0.806,1443.725,154.419,-211.121,0,0,0,
,-0.223,0.343,0.868,1337.219,168.335,-221.314,0,0,0,
,-0.26,0.302,0.908,1207.458,179.382,-225.342,0,0,0,
,-0.277,0.247,0.966,1063.354,205.017,-234.253,0,0,0,
,-0.262,0.203,1.007,927.795,220.581,-239.991,0,0,0,
,-0.236,0.156,1.014,789.55,219.299,-240.052,0,0,0,
,-0.213,0.147,1.044,645.141,189.026,-234.131,0,0,0,
,-0.194,0.134,1.031,520.996,176.88,-228.455,0,0,0,
,-0.198,0.077,0.989,418.823,152.649,-211.548,0,0,0,
,-0.16,0.006,1.009,200.256,85.144,-177.247,0,0,0,
,-0.119,0.007,1.036,149.902,49.865,-130.372,0,0,0,
,-0.098,-0.002,1.04,102.478,-5.005,-82.459,0,0,0,
,-0.094,0.01,1.062,52.307,-21.546,-42.603,0,0,0,
,-0.095,0.09,1.092,6.042,-5.005,-11.902,0,0,0,
,-0.103,0.187,1.061,52.307,34.179,-23.56,0,0,0,
,-0.108,0.244,1.02,189.697,61.035,-61.768,0,0,0,
,-0.108,0.151,0.99,314.636,94.604,-86.67,0,0,0,
,-0.092,0.002,0.975,341.247,110.168,-107.605,0,0,0,
,-0.069,-0.093,0.955,249.084,119.506,-98.023,0,0,0,
,-0.046,-0.086,0.959,114.074,97.9,-83.802,0,0,0,
,-0.046,-0.001,0.991,16.174,86.303,-77.576,0,0,0,
,-0.058,0.079,1.002,14.343,95.703,-83.741,0,0,0,
,-0.049,0.075,0.999,73.303,117.492,-82.886,0,0,0,
,-0.027,0.009,1,106.201,125.915,-82.52,0,0,0,
,-0.012,-0.033,1.008,75.195,107.605,-74.341,0,0,0,
,-0.008,-0.008,1.01,34.179,81.543,-78.919,0,0,0,
,-0.012,0.037,1.011,36.193,73.303,-81.543,0,0,0,
,-0.014,0.032,0.995,67.81,64.88,-84.473,0,0,0,
,-0.001,0.019,1.017,96.618,45.532,-76.844,0,0,0,
,0.004,0.002,1.065,91.125,19.592,-81.727,0,0,0,
,0.001,-0.011,1.065,65.368,0.305,-63.05,0,0,0,
,0.005,0.014,1.071,38.33,-18.738,-56.885,0,0,0,
,-0.001,0.011,1.067,50.598,-29.48,-46.814,0,0,0,
,-0.013,-0.016,1.03,52.551,-22.4,-39.429,0,0,0,
,-0.011,-0.047,1.006,14.16,-5.494,-36.377,0,0,0,
,0.015,-0.046,1.041,-13.611,11.535,-28.382,0,0,0,
,0.019,-0.024,1.042,10.253,15.014,-43.641,0,0,0,
,0.002,-0.033,1.017,67.382,26.977,-45.105,0,0,0,
,0.007,-0.062,0.975,89.904,36.438,-39.185,0,0,0,
,0.031,-0.07,0.985,41.259,15.808,-29.175,0,0,0,
,0.042,-0.045,1.018,-7.386,-6.348,-33.265,0,0,0,
,0.027,-0.026,1.067,12.268,-7.203,-46.326,0,0,0,
,-0.001,-0.045,1.08,57.067,15.441,-49.622,0,0,0,
,0,-0.067,1.052,74.401,35.156,-50.354,0,0,0,
,0.025,-0.097,1.028,32.531,29.296,-42.115,0,0,0,
,0.038,-0.076,1.031,-26.307,12.207,-28.992,0,0,0,
,0.025,-0.003,1.033,-56.946,10.62,-35.889,0,0,0,
,0.005,0.009,1.038,-35.096,32.836,-46.387,0,0,0,
,-0.004,-0.014,1.009,24.902,57.312,-50.293,0,0,0,
,0.008,-0.057,0.993,53.1,73.242,-43.457,0,0,0,
,0.03,-0.081,0.969,23.254,65.246,-28.992,0,0,0,
,0.038,-0.072,0.976,-24.476,47.485,-18.982,0,0,0,
,0.042,-0.048,0.998,-30.091,15.625,-19.043,0,0,0,
,0.036,-0.041,1.004,-9.461,14.77,-24.964,0,0,0,
,0.027,-0.047,0.993,0.854,20.69,-27.344,0,0,0,
,0.028,-0.047,1.002,-6.348,25.512,-27.894,0,0,0,
,0.034,-0.038,1.004,-6.226,24.963,-28.626,0,0,0,
,0.034,-0.052,1.017,-1.831,16.54,-27.283,0,0,0,
,0.04,-0.066,1.036,-2.747,16.845,-34.058,0,0,0,
,0.042,-0.075,1.05,1.892,24.658,-41.26,0,0,0,
,0.039,-0.085,1.041,-23.011,17.7,-47.486,0,0,0,
,0.031,-0.073,1.017,-48.218,16.418,-46.326,0,0,0,
,0.025,-0.05,0.992,-53.65,15.258,-41.016,0,0,0,
,0.025,-0.037,0.976,-40.772,18.737,-33.265,0,0,0,
,0.032,-0.037,0.99,-21.119,19.47,-34.241,0,0,0,
,0.039,-0.044,1.009,-11.475,20.935,-32.532,0,0,0,
,0.042,-0.056,1.033,-8.057,24.597,-33.753,0,0,0,
,0.035,-0.062,1.037,-5.799,21.301,-32.776,0,0,0,
,0.03,-0.067,1.026,-10.498,21.667,-34.546,0,0,0,
,0.029,-0.068,1.01,-23.865,16.357,-33.387,0,0,0,
,0.032,-0.063,0.998,-34.18,15.869,-30.03,0,0,0,
,0.035,-0.049,0.985,-43.824,11.779,-27.405,0,0,0,
,0.041,-0.042,0.995,-40.955,9.155,-24.414,0,0,0,
,0.037,-0.035,1.015,-31.861,5.493,-25.452,0,0,0,
,0.031,-0.041,1.037,-25.086,-0.123,-23.072,0,0,0,
,0.025,-0.057,1.028,-25.94,-2.747,-17.945,0,0,0,
,0.022,-0.038,1.03,-64.331,-9.217,-15.137,0,0,0,
,0.021,-0.03,1.032,-100.22,-15.015,-16.419,0,0,0,
,0.03,-0.031,1.021,-73.304,-21.363,-3.54,0,0,0,
,0.027,-0.054,1.023,-38.941,-42.359,9.521,0,0,0,
,-0.004,-0.059,1.032,-90.332,-56.153,27.71,0,0,0,
,-0.024,-0.062,1.08,-202.881,-59.632,32.775,0,0,0,
,-0.02,-0.002,1.089,-250.611,-49.012,40.344,0,0,0,
,-0.016,0.009,1.104,-225.831,-55.909,22.338,0,0,0,
,-0.027,-0.018,1.109,-230.225,-72.754,16.601,0,0,0,
,-0.037,-0.015,1.111,-276.062,-93.384,9.033,0,0,0,
,-0.082,-0.001,1.099,-339.661,-152.771,41.931,0,0,0,
,-0.115,0.108,1.11,-501.831,-176.758,76.721,0,0,0,
,-0.135,0.162,1.061,-480.774,-189.27,31.005,0,0,0,
,-0.133,0.166,1.026,-431.153,-202.088,57.922,0,0,0,
,-0.154,0.048,1.022,-414.917,-229.493,45.776,0,0,0,
,-0.249,0.034,0.982,-581.055,-221.314,165.161,0,0,0,
,-0.229,0.185,0.965,-788.758,-180.603,243.957,0,0,0,
,-0.22,0.256,0.948,-868.592,-147.767,291.442,0,0,0,
,-0.22,0.294,0.954,-847.596,-124.39,308.41,0,0,0,
,-0.227,0.276,0.973,-831.055,-100.403,305.542,0,0,0,
,-0.23,0.244,0.966,-881.226,-66.04,334.533,0,0,0,
,-0.221,0.26,0.946,-1004.578,-32.959,358.642,0,0,0,
,-0.213,0.331,0.907,-1089.417,-13.489,378.479,0,0,0,
,-0.221,0.392,0.868,-1122.132,-10.437,394.714,0,0,0,
,-0.232,0.442,0.844,-1103.211,-12.452,411.499,0,0,0,
,-0.23,0.453,0.83,-1072.693,-18.677,397.461,0,0,0,
,-0.222,0.483,0.831,-1021.912,-45.594,367.004,0,0,0,
,-0.221,0.517,0.853,-947.632,-52.613,322.692,0,0,0,
,-0.214,0.57,0.842,-842.774,-41.932,286.193,0,0,0,
,-0.201,0.57,0.792,-748.78,-26.734,243.652,0,0,0,
,-0.195,0.57,0.744,-689.82,-39.429,201.233,0,0,0,
,-0.173,0.639,0.736,-638.733,-66.59,166.809,0,0,0,
,-0.139,0.685,0.729,-541.199,-81.849,118.774,0,0,0,
,-0.117,0.661,0.726,-424.378,-84.107,79.04,0,0,0,
,-0.139,0.599,0.707,-353.577,-61.829,66.406,0,0,0,
,-0.147,0.562,0.683,-379.944,-14.832,50.415,0,0,0,
,-0.097,0.572,0.656,-455.506,11.169,29.48,0,0,0,
,-0.069,0.638,0.634,-513.733,7.324,-2.747,0,0,0,
,-0.084,0.696,0.648,-517.884,19.226,-42.725,0,0,0,
,-0.076,0.674,0.655,-482.666,50.354,-68.97,0,0,0,
,-0.061,0.629,0.638,-440.979,84.411,-82.032,0,0,0,
,-0.039,0.648,0.592,-480.042,86.608,-74.585,0,0,0,
,-0.014,0.73,0.556,-626.343,68.237,-60.73,0,0,0,
,-0.027,0.823,0.542,-719.3,42.724,-44.129,0,0,0,
,-0.045,0.854,0.537,-726.685,23.864,-42.237,0,0,0,
,-0.098,0.849,0.504,-683.045,17.944,-43.763,0,0,0,
,-0.122,0.838,0.45,-690.796,-2.564,-44.556,0,0,0,
,-0.098,0.83,0.421,-741.883,-22.339,-40.101,0,0,0,
,-0.1,0.878,0.406,-749.329,-34.607,-19.043,0,0,0,
,-0.131,0.923,0.408,-660.706,-35.34,-17.029,0,0,0,
,-0.168,0.913,0.412,-541.687,-15.015,-30.762,0,0,0,
,-0.193,0.848,0.402,-459.534,14.953,-42.054,0,0,0,
,-0.171,0.835,0.366,-438.66,19.104,-42.664,0,0,0,
,-0.157,0.878,0.365,-413.086,3.234,-39.551,0,0,0,
,-0.16,0.916,0.375,-345.887,-19.41,-44.312,0,0,0,
,-0.178,0.889,0.413,-315.674,-21.18,-53.65,0,0,0,
,-0.155,0.818,0.419,-407.776,0.366,-52.735,0,0,0,
,-0.155,0.792,0.382,-557.801,17.578,-49.744,0,0,0,
,-0.17,0.843,0.316,-690.613,25.207,-40.101,0,0,0,
,-0.164,0.915,0.256,-797.608,21.362,-36.56,0,0,0,
,-0.152,0.996,0.206,-801.392,36.193,-30.518,0,0,0,
,-0.159,1.074,0.143,-690.918,64.209,8.728,0,0,0,
,-0.184,1.113,0.089,-510.621,83.496,38.696,0,0,0,
,-0.196,1.091,0.094,-350.464,82.641,26.855,0,0,0,
,-0.196,1.027,0.087,-241.944,68.664,19.348,0,0,0,
,-0.2,0.98,0.123,-224.976,54.443,19.775,0,0,0,
,-0.22,0.964,0.168,-268.799,49.865,20.507,0,0,0,
,-0.233,0.964,0.176,-303.833,51.696,16.784,0,0,0,
,-0.228,0.907,0.159,-337.037,60.485,17.517,0,0,0,
,-0.226,0.904,0.126,-425.293,69.824,34.484,0,0,0,
,-0.218,0.9,0.064,-547.181,54.565,58.044,0,0,0,
,-0.182,0.979,0.084,-607.911,-20.813,70.8,0,0,0,
,-0.237,1.041,0.072,-574.83,-17.701,46.814,0,0,0,
,-0.252,1.033,-0.006,-469.239,35.827,86.242,0,0,0,
,-0.206,1.071,-0.057,-232.361,47.607,-38.269,0,0,0,
,-0.214,0.932,-0.027,-42.969,19.409,-57.801,0,0,0,
,-0.214,0.928,-0.042,-154.908,43.151,-27.039,0,0,0,
,-0.223,0.944,-0.068,-300.599,44.494,-53.467,0,0,0,
,-0.222,0.929,-0.11,-397.034,41.32,-40.772,0,0,0,
,-0.206,0.987,-0.144,-383.912,17.761,-27.283,0,0,0,
,-0.246,1.041,-0.106,-276.978,-18.006,5.249,0,0,0,
,-0.267,1.041,-0.072,-195.557,-20.813,-3.418,0,0,0,
,-0.239,0.989,-0.094,-183.045,-25.879,-10.682,0,0,0,
,-0.224,0.937,-0.129,-163.697,-47.425,2.99,0,0,0,
,-0.241,0.933,-0.138,-123.352,-51.148,18.737,0,0,0,
,-0.209,0.908,-0.129,-95.337,-56.519,6.469,0,0,0,
,-0.225,0.934,-0.091,-140.992,-39.49,12.207,0,0,0,
,-0.232,0.953,-0.083,-197.51,-42.481,-1.221,0,0,0,
,-0.234,0.979,-0.129,-210.267,-46.875,-7.874,0,0,0,
,-0.229,1.011,-0.142,-166.871,-68.055,-5.799,0,0,0,
,-0.247,1.024,-0.143,-154.419,-63.233,-0.611,0,0,0,
,-0.237,1.021,-0.15,-128.968,-55.115,-12.696,0,0,0,
,-0.251,1,-0.124,-96.131,-30.701,4.089,0,0,0,
,-0.232,0.992,-0.151,-73.304,-0.733,4.15,0,0,0,
,-0.237,1.03,-0.173,-1.77,8.789,32.104,0,0,0,
,-0.254,1.002,-0.188,53.161,7.69,42.968,0,0,0,
,-0.244,0.967,-0.185,51.086,-9.644,32.653,0,0,0,
,-0.259,0.927,-0.117,24.169,-11.78,36.56,0,0,0,
,-0.239,0.943,-0.104,-3.907,17.7,43.396,0,0,0,
,-0.248,0.972,-0.14,-12.207,47.851,59.692,0,0,0,
,-0.241,0.981,-0.176,-37.659,50.659,72.998,0,0,0,
,-0.219,1.008,-0.176,-105.225,36.621,77.27,0,0,0,
,-0.268,1.031,-0.142,-154.175,30.151,70.922,0,0,0,
,-0.283,1.036,-0.139,-156.556,44.433,74.951,0,0,0,
,-0.285,0.982,-0.173,-137.635,51.696,90.21,0,0,0,
,-0.288,1.01,-0.17,-107.666,59.448,119.384,0,0,0,
,-0.3,1.044,-0.172,-41.016,77.941,153.137,0,0,0,
,-0.308,1.051,-0.159,54.443,90.881,179.565,0,0,0,
,-0.323,1.033,-0.166,103.942,87.89,189.636,0,0,0,
,-0.329,0.996,-0.165,75.378,70.739,182.617,0,0,0,
,-0.338,0.983,-0.162,76.782,52.978,180.603,0,0,0,
,-0.332,0.959,-0.161,52.917,40.466,180.114,0,0,0,
,-0.35,0.934,-0.124,44.799,32.898,180.236,0,0,0,
,-0.356,0.901,-0.117,39.733,47.668,192.566,0,0,0,
,-0.359,0.91,-0.133,4.333,68.054,198.852,0,0,0,
,-0.362,0.921,-0.156,-21.729,69.702,200.866,0,0,0,
,-0.373,0.939,-0.141,-6.226,67.016,207.275,0,0,0,
,-0.386,0.938,-0.135,-9.705,68.42,213.379,0,0,0,
,-0.402,0.907,-0.128,4.943,68.359,215.698,0,0,0,
,-0.41,0.914,-0.128,24.963,71.899,221.74,0,0,0,
,-0.414,0.895,-0.137,24.902,66.528,224.609,0,0,0,
