TIMECODE,ACC_X,ACC_Y,ACC_Z,GYR_X,GYR_Y,GYR_Z,ECG_I,ECG_II,ECG_III,TAG
,-0.061,0.39,0.905,-17.334,13.305,-30.701,0,0,0,
,-0.054,0.4,0.918,-17.518,17.028,-33.081,0,0,0,
,-0.049,0.399,0.928,-11.841,15.625,-31.617,0,0,0,
,-0.05,0.401,0.935,-9.949,8.667,-31.25,0,0,0,
,-0.056,0.391,0.926,-9.339,9.399,-31.189,0,0,0,
,-0.062,0.386,0.912,-14.161,7.69,-34.974,0,0,0,
,-0.06,0.394,0.912,-19.959,12.39,-34.302,0,0,0,
,-0.05,0.4,0.926,-18.128,15.502,-34.241,0,0,0,
,-0.049,0.403,0.942,-12.391,15.38,-34.058,0,0,0,
,-0.048,0.395,0.931,-11.231,10.253,-33.631,0,0,0,
,-0.056,0.388,0.918,-12.879,5.249,-35.096,0,0,0,
,-0.061,0.389,0.91,-19.227,12.085,-33.02,0,0,0,
,-0.058,0.391,0.909,-15.137,15.564,-32.593,0,0,0,
,-0.053,0.395,0.928,-13.245,16.296,-30.64,0,0,0,
,-0.051,0.399,0.941,-10.437,16.235,-31.678,0,0,0,
,-0.048,0.396,0.928,-10.865,9.826,-33.448,0,0,0,
,-0.057,0.387,0.911,-15.442,9.948,-32.837,0,0,0,
,-0.058,0.386,0.909,-17.09,13.122,-28.443,0,0,0,
,-0.056,0.394,0.919,-15.748,14.587,-29.847,0,0,0,
,-0.051,0.404,0.943,-13.916,18.432,-29.602,0,0,0,
,-0.048,0.4,0.968,-13.245,10.681,-32.593,0,0,0,
,-0.059,0.389,0.918,-15.015,3.845,-30.457,0,0,0,
,-0.065,0.386,0.907,-15.137,10.803,-30.945,0,0,0,
,-0.059,0.388,0.909,-19.349,17.028,-32.471,0,0,0,
,-0.049,0.398,0.924,-15.32,16.235,-28.809,0,0,0,
,-0.044,0.398,0.947,-10.987,17.089,-28.809,0,0,0,
,-0.048,0.397,0.939,-9.217,8.728,-30.396,0,0,0,
,-0.059,0.388,0.916,-15.381,6.225,-30.03,0,0,0,
,-0.062,0.389,0.904,-19.288,8.911,-29.297,0,0,0,
,-0.06,0.395,0.908,-19.165,15.197,-30.518,0,0,0,
,-0.048,0.403,0.947,-10.132,14.16,-30.701,0,0,0,
,-0.05,0.398,0.939,-10.56,10.376,-32.105,0,0,0,
,-0.057,0.388,0.921,-19.898,5.371,-33.753,0,0,0,
,-0.059,0.389,0.901,-22.339,10.315,-31.861,0,0,0,
,-0.054,0.393,0.911,-18.555,14.282,-29.786,0,0,0,
,-0.049,0.396,0.923,-13.672,11.047,-31.495,0,0,0,
,-0.05,0.396,0.939,-9.156,10.803,-31.006,0,0,0,
,-0.058,0.396,0.939,-13.184,10.009,-30.213,0,0,0,
,-0.058,0.393,0.92,-18.616,9.399,-32.288,0,0,0,
,-0.059,0.392,0.907,-19.959,11.718,-33.509,0,0,0,
,-0.055,0.393,0.905,-18.555,13.427,-31.128,0,0,0,
,-0.05,0.395,0.921,-15.015,11.962,-29.725,0,0,0,
,-0.051,0.396,0.94,-10.682,11.535,-31.067,0,0,0,
,-0.053,0.396,0.942,-15.137,12.634,-30.823,0,0,0,
,-0.056,0.391,0.921,-0.733,9.216,-31.678,0,0,0,
,-0.059,0.385,0.903,-17.151,11.047,-15.931,0,0,0,
,-0.059,0.389,0.91,-15.87,14.953,-28.992,0,0,0,
,-0.049,0.395,0.925,-13.977,18.31,-29.541,0,0,0,
,-0.05,0.401,0.939,-12.696,12.268,-31.373,0,0,0,
,-0.05,0.4,0.938,-11.414,12.146,-31.922,0,0,0,
,-0.055,0.393,0.923,-14.283,11.23,-31.678,0,0,0,
,-0.056,0.387,0.907,-21.241,11.657,-31.25,0,0,0,
,-0.054,0.391,0.906,-20.874,10.986,-29.175,0,0,0,
,-0.052,0.394,0.921,-14.771,13.427,-30.884,0,0,0,
,-0.051,0.398,0.935,-10.498,12.634,-30.701,0,0,0,
,-0.052,0.395,0.945,-11.902,11.596,-31.311,0,0,0,
,-0.054,0.392,0.927,-17.334,11.596,-30.518,0,0,0,
,-0.056,0.386,0.912,-18.738,10.742,-32.166,0,0,0,
,-0.051,0.388,0.903,-16.968,14.038,-26.185,0,0,0,
,-0.054,0.394,0.913,-13.794,9.887,-28.26,0,0,0,
,-0.054,0.402,0.936,-16.541,11.474,-29.969,0,0,0,
,-0.049,0.406,0.952,-13.123,12.085,-30.335,0,0,0,
,-0.049,0.396,0.968,-14.222,11.169,-32.959,0,0,0,
,-0.056,0.38,0.915,-17.212,11.352,-29.969,0,0,0,
,-0.058,0.382,0.907,-21.729,16.479,-28.87,0,0,0,
,-0.054,0.392,0.914,-21.485,20.568,-27.466,0,0,0,
,-0.048,0.404,0.935,-13.062,19.47,-28.016,0,0,0,
,-0.046,0.404,0.948,-9.583,16.723,-29.114,0,0,0,
,-0.05,0.393,0.928,-10.132,14.465,-28.992,0,0,0,
,-0.052,0.394,0.917,-17.823,20.385,-26.856,0,0,0,
,-0.046,0.399,0.931,-11.78,15.502,-27.832,0,0,0,
,-0.048,0.404,0.95,-11.841,15.075,-30.945,0,0,0,
,-0.053,0.393,0.929,-13.367,12.39,-31.739,0,0,0,
,-0.054,0.385,0.908,-19.41,11.352,-31.617,0,0,0,
,-0.06,0.389,0.906,-21.729,16.601,-26.368,0,0,0,
,-0.054,0.395,0.916,-20.264,17.028,-29.602,0,0,0,
,-0.047,0.401,0.938,-14.039,18.31,-26.612,0,0,0,
,-0.047,0.398,0.952,-12.085,15.869,-29.419,0,0,0,
,-0.05,0.392,0.929,-13.428,12.512,-28.443,0,0,0,
,-0.047,0.398,0.914,-21.119,19.897,-29.725,0,0,0,
,-0.043,0.402,0.939,-13.672,14.404,-28.016,0,0,0,
,-0.045,0.399,0.938,-9.034,11.718,-28.626,0,0,0,
,-0.054,0.39,0.923,-14.1,7.507,-30.03,0,0,0,
,-0.057,0.384,0.911,-19.959,11.291,-30.884,0,0,0,
,-0.055,0.392,0.91,-24.048,15.258,-30.884,0,0,0,
,-0.046,0.399,0.92,-18.25,15.197,-30.03,0,0,0,
,-0.042,0.4,0.947,-10.621,16.784,-28.992,0,0,0,
,-0.044,0.397,0.941,-13.672,15.441,-29.786,0,0,0,
,-0.053,0.387,0.921,-13.977,9.765,-31.067,0,0,0,
,-0.056,0.386,0.877,-19.288,16.418,-27.283,0,0,0,
,-0.052,0.39,0.91,-20.081,23.742,-29.053,0,0,0,
,-0.045,0.398,0.923,-14.283,20.263,-27.222,0,0,0,
,-0.045,0.399,0.942,-12.513,16.479,-28.504,0,0,0,
,-0.049,0.397,0.926,-13.306,15.564,-31.739,0,0,0,
,-0.051,0.389,0.911,-17.518,11.23,-31.495,0,0,0,
,-0.055,0.389,0.903,-19.776,15.197,-28.992,0,0,0,
,-0.046,0.393,0.916,-17.395,18.005,-28.443,0,0,0,
,-0.042,0.397,0.935,-13.367,14.587,-27.527,0,0,0,
,-0.042,0.404,0.952,-11.597,15.869,-28.077,0,0,0,
,-0.047,0.393,0.929,-14.649,8.178,-33.204,0,0,0,
,-0.057,0.391,0.912,-18.433,9.033,-30.762,0,0,0,
,-0.054,0.388,0.907,-17.579,14.526,-29.175,0,0,0,
,-0.048,0.391,0.916,-14.527,19.043,-31.8,0,0,0,
,-0.039,0.395,0.942,-10.01,15.991,-29.175,0,0,0,
,-0.038,0.397,0.944,-12.085,13.183,-30.823,0,0,0,
,-0.049,0.392,0.922,-15.748,9.155,-32.959,0,0,0,
,-0.056,0.389,0.912,-19.593,11.169,-31.006,0,0,0,
,-0.052,0.391,0.909,-18.372,18.859,-30.335,0,0,0,
,-0.043,0.394,0.92,-16.663,15.502,-31.861,0,0,0,
,-0.044,0.397,0.931,-10.254,10.009,-29.725,0,0,0,
,-0.046,0.396,0.941,-13.916,10.864,-31.861,0,0,0,
,-0.046,0.389,0.92,-18.86,6.897,-31.617,0,0,0,
,-0.05,0.387,0.905,-18.189,5.615,-29.908,0,0,0,
,-0.05,0.388,0.902,-19.593,3.784,-27.222,0,0,0,
,-0.048,0.396,0.917,-16.846,2.807,-29.358,0,0,0,
,-0.046,0.435,0.941,-15.686,0.671,-30.518,0,0,0,
,-0.043,0.406,0.947,-12.879,3.662,-32.288,0,0,0,
,-0.049,0.388,0.927,-15.198,-15.076,-34.546,0,0,0,
,-0.048,0.395,0.925,-19.471,9.338,-31.006,0,0,0,
,-0.041,0.402,0.943,-8.301,9.582,-28.748,0,0,0,
,-0.049,0.397,0.937,-7.63,3.845,-30.457,0,0,0,
,-0.051,0.393,0.916,-20.752,11.23,-29.114,0,0,0,
,-0.044,0.397,0.928,-15.503,11.596,-31.739,0,0,0,
,-0.044,0.395,0.932,-11.841,6.042,-32.715,0,0,0,
,-0.051,0.39,0.93,-15.748,5.615,-34.546,0,0,0,
,-0.053,0.389,0.916,-17.09,7.873,-33.875,0,0,0,
,-0.053,0.388,0.924,-17.518,12.268,-32.532,0,0,0,
,-0.046,0.394,0.943,-18.433,10.437,-29.664,0,0,0,
,-0.047,0.401,0.953,-21.485,10.192,-35.523,0,0,0,
,-0.05,0.396,0.941,-21.729,6.836,-33.814,0,0,0,
,-0.05,0.388,0.911,-15.442,9.948,-38.147,0,0,0,
,-0.049,0.383,0.901,-12.574,7.019,-33.631,0,0,0,
,-0.049,0.384,0.905,-10.621,7.934,-34.852,0,0,0,
,-0.047,0.395,0.92,-7.447,11.108,-32.532,0,0,0,
,-0.046,0.399,0.929,-3.235,11.23,-34.424,0,0,0,
,-0.048,0.396,0.929,-5.249,7.507,-33.692,0,0,0,
,-0.056,0.392,0.911,-11.292,0.732,-33.265,0,0,0,
,-0.062,0.389,0.908,-14.344,3.967,-32.288,0,0,0,
,-0.058,0.387,0.917,-10.132,9.399,-32.349,0,0,0,
,-0.046,0.395,0.94,-9.034,12.756,-34.79,0,0,0,
,-0.053,0.395,0.92,-11.902,1.281,-35.889,0,0,0,
,-0.062,0.381,0.902,-15.442,3.662,-33.631,0,0,0,
,-0.057,0.383,0.913,-20.813,10.498,-34.18,0,0,0,
,-0.048,0.392,0.926,-19.349,17.089,-30.518,0,0,0,
,-0.04,0.393,0.941,-15.503,9.033,-33.997,0,0,0,
,-0.045,0.394,0.945,-12.94,6.225,-32.044,0,0,0,
,-0.058,0.39,0.922,-18.616,5.065,-35.035,0,0,0,
,-0.063,0.388,0.909,-16.663,10.437,-33.631,0,0,0,
,-0.056,0.387,0.918,-16.602,17.517,-32.288,0,0,0,
,-0.049,0.388,0.929,-17.945,18.127,-31.067,0,0,0,
,-0.042,0.397,0.944,-14.405,13.122,-31.983,0,0,0,
,-0.049,0.396,0.935,-11.17,6.652,-34.913,0,0,0,
,-0.05,0.387,0.918,-13.733,5.493,-34.668,0,0,0,
,-0.056,0.387,0.911,-22.156,12.023,-32.105,0,0,0,
,-0.051,0.394,0.928,-17.945,12.817,-30.945,0,0,0,
,-0.047,0.401,0.945,-15.564,15.991,-31.25,0,0,0,
,-0.048,0.397,0.939,-12.757,10.742,-31.8,0,0,0,
,-0.056,0.388,0.921,-12.818,12.512,-30.457,0,0,0,
,-0.057,0.38,0.914,-14.344,14.77,-31.25,0,0,0,
,-0.049,0.38,0.914,-15.686,21.484,-28.443,0,0,0,
,-0.044,0.387,0.925,-14.161,18.249,-25.147,0,0,0,
,-0.049,0.398,0.929,-21.363,10.131,-25.94,0,0,0,
,-0.055,0.4,0.917,-21.851,7.629,-24.109,0,0,0,
,-0.058,0.393,0.911,-14.344,9.277,-19.227,0,0,0,
,-0.054,0.38,0.906,-17.395,11.84,-24.537,0,0,0,
,-0.053,0.38,0.912,-19.532,13.549,-25.208,0,0,0,
,-0.054,0.392,0.938,-23.865,18.432,-31.434,0,0,0,
,-0.047,0.412,0.972,-14.588,34.973,-37.11,0,0,0,
,-0.037,0.412,0.972,-11.231,42.663,-44.739,0,0,0,
,-0.047,0.408,0.955,-8.179,42.663,-45.289,0,0,0,
,-0.063,0.399,0.947,4.882,62.255,-39.856,0,0,0,
,-0.062,0.398,0.976,38.024,96.801,-31.067,0,0,0,
,-0.054,0.39,1.045,88.44,137.146,-18.067,0,0,0,
,-0.038,0.392,1.175,144.836,194.519,8.178,0,0,0,
,-0.014,0.395,1.369,201.294,247.07,30.517,0,0,0,
,0.112,0.558,2.412,298.278,438.293,119.873,0,0,0,
,0.238,0.488,2.772,296.264,348.632,213.379,0,0,0,
,0.528,0.408,2.333,571.045,115.173,136.413,0,0,0,
,0.76,0.269,1.87,396.972,-243.409,215.881,0,0,0,
,1.006,0.058,1.149,-938.477,-329.285,261.169,0,0,0,
,1.189,1.003,1.044,-1052.674,-1768.799,1254.638,0,0,0,
,0.879,1.501,0.895,-143.433,-2000,1375.793,0,0,0,
,0.435,1.393,0.573,933.899,-2000,1223.144,0,0,0,
,0.184,0.973,0.087,1742.614,-2000,986.206,0,0,0,
,0.255,0.121,-0.306,1221.008,-2000,1011.108,0,0,0,
,0.526,-0.16,-0.488,-502.564,-2000,1110.901,0,0,0,
,0.101,-0.013,-0.845,-1260.315,-2000,1421.325,0,0,0,
,0.224,-0.289,-1.137,-1277.161,-2000,1388.733,0,0,0,
,0.142,-1.133,-2.008,519.836,1013.916,214.66,0,0,0,
,0.067,-1.224,-1.575,827.819,1980.468,-341.187,0,0,0,
,0.005,-0.909,-1.085,939.88,1999.694,-704.224,0,0,0,
,-0.05,-0.551,-0.589,657.226,1999.694,-977.173,0,0,0,
,-0.132,-0.356,-0.058,94.177,1999.694,-1175.11,0,0,0,
,-0.279,-0.305,0.467,-475.403,1999.694,-1307.007,0,0,0,
,-0.313,-0.182,1.046,-990.845,1999.694,-1451.05,0,0,0,
,-0.361,0.072,1.352,-1278.382,1999.694,-1487.244,0,0,0,
,-0.405,-0.036,1.186,-774.292,1999.694,-1468.384,0,0,0,
,-0.206,0.18,1.088,-276.917,1999.694,-955.628,0,0,0,
,0.247,0.867,1.057,-173.523,1999.694,-574.158,0,0,0,
,0.852,1.389,0.918,430.603,1999.694,-873.23,0,0,0,
,1.074,0.903,1.151,1106.506,1356.079,-887.024,0,0,0,
,0.821,0.388,1.723,1335.754,486.938,-689.393,0,0,0,
,0.423,0.109,2.342,1271.85,76.782,-268.006,0,0,0,
,0.154,-0.066,2.114,701.904,259.643,-185.181,0,0,0,
,0.049,-0.043,1.627,22.644,411.926,-276.856,0,0,0,
,0.128,-0.02,1.399,-602.478,473.388,-81.177,0,0,0,
,0.311,-0.01,1.343,-1030.152,337.951,30.395,0,0,0,
,0.284,0.5,1.329,-813.721,128.54,76.965,0,0,0,
,0.249,0.552,1.154,54.016,-205.994,-144.288,0,0,0,
,0.108,0.07,0.991,353.576,-377.869,-72.449,0,0,0,
,-0.105,-0.068,0.937,108.947,-300.843,-74.341,0,0,0,
,-0.158,0.022,0.95,-144.471,-18.494,-29.236,0,0,0,
,-0.047,0.151,1.003,-244.568,216.735,-32.227,0,0,0,
,0.148,0.22,1.033,-190.674,225.28,-35.157,0,0,0,
,0.241,0.228,1.04,-96.436,71.899,-31.189,0,0,0,
,0.145,0.192,1.036,-21.485,-89.051,-6.836,0,0,0,
,0.017,0.154,1.025,-9.827,-118.714,-8.423,0,0,0,
,-0.034,0.118,1.011,-38.025,-40.894,-23.926,0,0,0,
,-0.007,0.14,0.991,-61.158,44.616,-26.429,0,0,0,
,0.044,0.168,0.988,-59.021,69.519,-39.673,0,0,0,
,0.078,0.178,0.987,-26.673,47.546,-36.622,0,0,0,
,0.078,0.175,0.99,-0.733,13.244,-31.861,0,0,0,
,0.061,0.169,0.98,-2.808,12.207,-37.11,0,0,0,
,0.052,0.18,0.974,1.77,18.615,-33.265,0,0,0,
,0.056,0.199,0.947,30.029,23.193,-28.565,0,0,0,
,0.055,0.185,0.937,83.496,10.315,-25.696,0,0,0,
,0.061,0.149,0.959,118.225,8.728,-20.874,0,0,0,
,0.065,0.107,1.002,100.341,4.028,-24.598,0,0,0,
,0.065,0.099,1.022,50.842,0.305,-28.504,0,0,0,
,0.062,0.12,1.018,1.159,-7.386,-40.711,0,0,0,
,0.053,0.146,0.998,-24.292,-29.725,-47.181,0,0,0,
,0.04,0.155,0.991,-34.18,-21.18,-49.378,0,0,0,
,0.036,0.166,0.99,-34.363,-19.104,-50.965,0,0,0,
,0.039,0.168,1.011,-31.739,-15.87,-48.279,0,0,0,
,0.045,0.163,1.024,-8.545,-10.865,-41.26,0,0,0,
,0.057,0.146,1.036,18.31,-9.644,-39.612,0,0,0,
,0.046,0.101,1.041,31.189,-26.551,-31.678,0,0,0,
,0.028,0.084,1.09,-2.076,-26.673,-8.606,0,0,0,
,0.012,0.1,1.14,-74.646,-9.278,6.164,0,0,0,
,-0.001,0.117,1.128,-101.746,-8.179,20.324,0,0,0,
,-0.01,0.116,1.091,-102.906,-32.41,26.001,0,0,0,
,-0.043,0.046,1.017,-123.597,-70.618,28.991,0,0,0,
,-0.154,0.077,1.04,-251.099,-149.781,98.877,0,0,0,
,-0.198,0.121,1.026,-395.142,-127.625,70.495,0,0,0,
,-0.128,0.149,1.061,-419.983,-115.296,9.277,0,0,0,
,-0.113,0.093,1.04,-375.245,-227.356,47.18,0,0,0,
,-0.192,0.251,1.005,-645.081,-202.82,146.972,0,0,0,
,-0.187,0.452,0.99,-476.136,-195.496,22.338,0,0,0,
,-0.129,0.359,0.9,-222.779,-257.447,-5.921,0,0,0,
,-0.145,0.264,0.917,-211.976,-356.873,77.148,0,0,0,
,-0.241,0.22,0.959,-280.152,-387.879,53.711,0,0,0,
,-0.273,0.222,1.011,-397.095,-256.348,74.035,0,0,0,
,-0.221,0.274,0.989,-520.02,-140.931,69.213,0,0,0,
,-0.174,0.346,0.967,-567.81,-105.469,32.226,0,0,0,
,-0.158,0.444,0.965,-503.846,-82.52,18.493,0,0,0,
,-0.128,0.473,0.939,-383.423,-64.331,-18.128,0,0,0,
,-0.095,0.488,0.976,-243.348,-52.124,-47.364,0,0,0,
,-0.079,0.543,0.969,-85.144,-7.508,-64.82,0,0,0,
,-0.053,0.542,0.962,151.306,64.148,-98.816,0,0,0,
,-0.026,0.469,0.88,347.534,108.154,-94.178,0,0,0,
,-0.022,0.335,0.798,434.509,102.417,-74.036,0,0,0,
,-0.051,0.196,0.788,371.643,80.749,-27.527,0,0,0,
,-0.064,0.166,0.822,164.672,105.224,34.973,0,0,0,
,-0.025,0.233,0.861,-73.243,154.052,65.856,0,0,0,
,0.019,0.32,0.874,-170.472,151.001,73.364,0,0,0,
,0.038,0.335,0.884,-178.772,96.74,61.584,0,0,0,
,0.011,0.294,0.88,-175.354,54.26,50.109,0,0,0,
,-0.024,0.263,0.882,-238.099,50.17,36.499,0,0,0,
,-0.02,0.245,0.91,-316.102,90.576,13.244,0,0,0,
,0.017,0.275,0.928,-399.781,129.333,12.207,0,0,0,
,0.055,0.337,0.89,-493.226,143.798,2.563,0,0,0,
,0.063,0.372,0.856,-541.687,120.483,9.033,0,0,0,
,0.044,0.373,0.847,-562.5,98.693,11.474,0,0,0,
,0.022,0.38,0.838,-598.938,108.703,6.225,0,0,0,
,0.029,0.389,0.848,-663.208,120.727,-8.851,0,0,0,
,0.047,0.41,0.854,-745.057,142.517,-17.579,0,0,0,
,0.061,0.428,0.831,-848.45,149.719,-21.729,0,0,0,
,0.067,0.464,0.807,-994.141,150.207,-6.165,0,0,0,
,0.082,0.494,0.782,-1188.721,148.01,-7.874,0,0,0,
,0.089,0.549,0.742,-1407.288,134.582,3.295,0,0,0,
,0.082,0.652,0.708,-1553.528,124.023,22.766,0,0,0,
,0.07,0.757,0.678,-1474.305,109.13,54.809,0,0,0,
,0.043,0.839,0.619,-1352.906,118.103,63.842,0,0,0,
,0.03,0.886,0.575,-1208.68,124.389,63.964,0,0,0,
,0.009,0.999,0.503,-1005.066,126.831,33.386,0,0,0,
,0.006,1.055,0.452,-713.807,110.046,-20.691,0,0,0,
,0.003,0.996,0.459,-331.543,34.851,-69.214,0,0,0,
,-0.025,0.921,0.475,-55.42,-8.912,-104.371,0,0,0,
,-0.024,0.893,0.473,89.599,-44.922,-108.399,0,0,0,
,-0.001,0.895,0.506,150.879,-83.924,-112.366,0,0,0,
,0.05,0.809,0.629,128.723,-46.143,-98.145,0,0,0,
,-0.008,0.868,0.589,-187.684,-19.837,-17.09,0,0,0,
,-0.022,0.969,0.534,-227.112,32.836,-17.212,0,0,0,
,0.04,1.042,0.583,-119.324,63.476,26.489,0,0,0,
,0.034,1.047,0.564,47.18,94.97,12.207,0,0,0,
,0.013,0.998,0.586,235.229,64.758,45.593,0,0,0,
,-0.026,0.95,0.656,284.729,33.813,74.462,0,0,0,
,-0.011,0.999,0.736,236.572,-5.555,106.628,0,0,0,
,-0.042,1.054,0.776,141.418,-56.519,144.836,0,0,0,
,-0.083,1.117,0.802,67.26,-112.122,189.087,0,0,0,
,-0.098,1.196,0.779,159.118,-198.182,235.229,0,0,0,
,-0.143,1.297,0.767,464.538,-288.819,303.466,0,0,0,
,-0.158,1.297,0.725,883.484,-387.574,392.273,0,0,0,
,-0.146,1.202,0.754,1299.194,-463.135,438.11,0,0,0,
,-0.182,1.091,0.799,1680.359,-515.748,464.233,0,0,0,
,-0.167,0.998,0.791,1994.629,-532.593,509.643,0,0,0,
,-0.171,0.867,0.723,1999.694,-561.829,580.566,0,0,0,
,-0.16,0.784,0.645,1999.694,-584.412,600.952,0,0,0,
,-0.176,0.619,0.608,1999.694,-660.34,565.002,0,0,0,
,-0.243,0.42,0.618,1999.694,-712.159,494.934,0,0,0,
,-0.313,-0.068,0.631,1999.694,-812.073,342.834,0,0,0,
,-0.332,-0.209,0.627,1678.466,-822.51,289.062,0,0,0,
,-0.338,-0.14,0.61,1149.536,-834.107,235.534,0,0,0,
,-0.4,-0.075,0.516,970.092,-803.406,209.411,0,0,0,
,-0.373,-0.1,0.495,808.41,-822.327,146.423,0,0,0,
,-0.429,-0.228,0.485,584.838,-769.959,150.879,0,0,0,
,-0.441,-0.024,0.316,622.192,-725.586,206.359,0,0,0,
,-0.442,-0.045,0.363,773.193,-83.435,572.754,0,0,0,
,-0.426,0.008,0.42,817.138,230.346,782.409,0,0,0,
,-0.358,-0.261,0.452,982.849,574.096,1023.864,0,0,0,
,-0.311,-0.513,0.552,1099.304,827.88,1241.699,0,0,0,
,-0.245,-0.69,0.651,1170.471,1035.644,1409.912,0,0,0,
,-0.164,-0.777,0.632,1126.892,1075.378,1454.712,0,0,0,
,0.011,-1.005,0.691,1011.169,922.424,1273.742,0,0,0,
,0.028,-1.341,0.904,882.141,678.344,948.425,0,0,0,
,-0.014,-1.668,1.045,577.697,456.298,516.235,0,0,0,
,-0.155,-1.84,0.977,78.491,312.011,66.833,0,0,0,
,-0.216,-1.621,0.926,-453.675,187.072,-325.318,0,0,0,
,-0.143,-1.096,0.946,-767.212,-13.184,-590.821,0,0,0,
,-0.123,-0.708,0.982,-658.814,-237.061,-822.632,0,0,0,
,-0.203,-0.678,0.965,-414.49,-423.34,-1007.264,0,0,0,
,-0.203,-0.538,0.853,-376.404,-567.81,-1083.069,0,0,0,
,-0.206,-0.294,0.713,-463.379,-643.25,-1041.871,0,0,0,
,-0.251,-0.009,0.567,-533.143,-660.828,-897.156,0,0,0,
,-0.315,0.143,0.486,-543.519,-593.873,-637.635,0,0,0,
,-0.374,0.192,0.442,-424.012,-441.529,-320.008,0,0,0,
,-0.373,0.201,0.415,-208.008,-212.22,81.298,0,0,0,
,-0.347,0.173,0.431,116.333,57.861,468.689,0,0,0,
,-0.292,-0.039,0.502,499.878,349.548,844.909,0,0,0,
,-0.268,-0.349,0.536,845.764,590.271,1114.502,0,0,0,
,-0.227,-0.596,0.535,958.801,730.163,1272.155,0,0,0,
,-0.185,-0.793,0.565,910.278,729.004,1222.412,0,0,0,
,-0.144,-1.126,0.621,751.037,664.611,1046.325,0,0,0,
,-0.124,-1.476,0.709,499.45,512.573,741.76,0,0,0,
,-0.184,-1.428,0.901,-205.933,69.885,-385.743,0,0,0,
,-0.132,-1.114,0.85,-465.332,-110.596,-691.04,0,0,0,
,-0.133,-1.015,0.861,-621.827,-288.575,-926.697,0,0,0,
,-0.136,-0.777,0.852,-644.043,-452.027,-1054.383,0,0,0,
,-0.115,-0.452,0.766,-637.33,-545.777,-1068.97,0,0,0,
,-0.143,-0.214,0.64,-640.198,-594.422,-995.179,0,0,0,
,-0.248,-0.061,0.55,-588.868,-584.473,-818.299,0,0,0,
,-0.331,0.002,0.505,-526.978,-510.743,-553.894,0,0,0,
,-0.372,0.021,0.488,-425.782,-352.967,-260.498,0,0,0,
,-0.375,0.043,0.51,-229.126,-97.596,115.478,0,0,0,
,-0.333,-0.111,0.6,135.62,179.87,499.267,0,0,0,
,-0.239,-0.597,0.659,1067.871,753.967,1188.72,0,0,0,
,-0.207,-0.862,0.673,980.651,684.143,1083.068,0,0,0,
,-0.149,-1.169,0.713,730.774,548.034,855.468,0,0,0,
,-0.14,-1.584,0.812,383.117,397.644,545.105,0,0,0,
,-0.135,-1.649,0.854,-1.404,237.426,240.539,0,0,0,
,-0.157,-1.456,0.859,-238.953,97.595,-83.558,0,0,0,
,-0.112,-1.271,0.91,-384.583,-88.379,-395.813,0,0,0,
,-0.103,-1.141,0.936,-401.612,-241.211,-712.525,0,0,0,
,-0.08,-0.943,0.861,-550.171,-375.55,-933.289,0,0,0,
,-0.098,-0.656,0.827,-539.063,-497.193,-1007.63,0,0,0,
,-0.283,-0.126,0.517,-423.096,-500.367,-753.785,0,0,0,
,-0.336,-0.015,0.448,-336.609,-394.471,-524.292,0,0,0,
,-0.362,0.013,0.412,-191.712,-270.081,-251.831,0,0,0,
,-0.327,0.011,0.436,-52.735,-86.731,71.899,0,0,0,
,-0.276,-0.11,0.547,179.931,116.76,378.479,0,0,0,
,-0.272,-0.293,0.665,417.724,347.229,691.04,0,0,0,
,-0.245,-0.46,0.716,563.964,517.212,894.836,0,0,0,
,-0.209,-0.549,0.713,584.716,605.041,978.82,0,0,0,
,-0.174,-0.73,0.699,485.046,589.965,924.011,0,0,0,
,-0.127,-0.927,0.698,312.011,523.01,783.996,0,0,0,
,-0.091,-1.148,0.715,90.637,420.288,543.274,0,0,0,
,-0.106,-1.386,0.701,-115.662,306.762,321.472,0,0,0,
,-0.12,-1.435,0.685,-282.593,159.423,67.26,0,0,0,
,-0.143,-1.31,0.718,-357.666,-4.151,-192.872,0,0,0,
,-0.197,-1.133,0.792,-309.205,-168.519,-442.078,0,0,0,
,-0.293,-1.04,0.837,-237.793,-283.143,-705.323,0,0,0,
,-0.333,-0.941,0.838,-223.694,-364.502,-905.701,0,0,0,
,-0.321,-0.741,0.835,-307.312,-408.631,-1039.063,0,0,0,
,-0.313,-0.549,0.813,-387.94,-420.289,-1080.018,0,0,0,
,-0.328,-0.333,0.77,-448.548,-410.401,-1031.922,0,0,0,
,-0.346,-0.156,0.67,-483.277,-375.672,-898.011,0,0,0,
,-0.376,-0.031,0.551,-484.314,-338.074,-690.918,0,0,0,
,-0.409,0.08,0.468,-399.292,-276.551,-391.175,0,0,0,
,-0.377,0.182,0.432,-259.644,-196.289,-75.928,0,0,0,
,-0.296,0.069,0.544,-28.809,-55.664,286.682,0,0,0,
,-0.243,-0.264,0.742,328.247,141.235,686.218,0,0,0,
,-0.221,-0.519,0.826,738.403,377.136,1053.405,0,0,0,
,-0.186,-0.733,0.82,1063.049,525.268,1360.717,0,0,0,
,-0.18,-0.705,0.697,1311.096,527.649,1474.487,0,0,0,
,-0.079,-0.676,0.478,1131.836,418.64,1376.709,0,0,0,
,0.023,-0.929,0.435,817.016,236.084,1016.967,0,0,0,
,-0.046,-1.64,0.553,425.659,85.449,624.267,0,0,0,
,-0.144,-1.809,0.767,55.969,-33.448,234.802,0,0,0,
,-0.215,-1.501,0.886,-79.956,-100.403,-104.493,0,0,0,
,-0.241,-1.374,0.855,-147.644,-123.23,-448.548,0,0,0,
,-0.264,-1.155,0.773,-400.635,-192.627,-731.995,0,0,0,
,-0.286,-1.113,0.737,-578.553,-251.221,-999.634,0,0,0,
,-0.287,-0.871,0.748,-674.012,-285.157,-1144.593,0,0,0,
,-0.262,-0.709,0.687,-758.484,-299.866,-1180.603,0,0,0,
,-0.264,-0.482,0.614,-798.951,-311.036,-1119.69,0,0,0,
,-0.288,-0.268,0.567,-756.531,-306.397,-989.991,0,0,0,
,-0.329,-0.098,0.529,-639.649,-273.682,-776.246,0,0,0,
,-0.342,-0.022,0.526,-442.261,-218.14,-524.048,0,0,0,
,-0.309,-0.195,0.68,205.993,209.35,445.007,0,0,0,
,-0.287,-0.532,0.824,340.698,417.358,790.1,0,0,0,
,-0.247,-0.773,0.95,472.351,582.702,1032.837,0,0,0,
,-0.274,-0.809,0.977,647.766,632.507,1175.109,0,0,0,
,-0.262,-0.852,0.761,705.139,561.035,1219.482,0,0,0,
,-0.141,-0.35,0.395,492.065,378.112,1049.56,0,0,0,
,-0.105,-1.542,0.521,72.143,97.839,265.503,0,0,0,
,-0.214,-1.646,0.781,-156.922,8.606,29.296,0,0,0,
,-0.234,-1.364,0.829,-434.327,-53.467,-184.876,0,0,0,
,-0.198,-1.043,0.879,-494.69,-136.963,-406.8,0,0,0,
,-0.287,-0.879,0.87,-303.101,-180.603,-627.747,0,0,0,
,-0.279,-0.931,0.761,-357.178,-221.375,-821.717,0,0,0,
,-0.285,-0.76,0.725,-515.137,-268.555,-920.472,0,0,0,
,-0.261,-0.614,0.738,-645.02,-309.815,-953.248,0,0,0,
,-0.281,-0.433,0.73,-736.39,-357.605,-939.82,0,0,0,
,-0.271,-0.271,0.696,-797.73,-366.272,-882.203,0,0,0,
,-0.32,-0.143,0.645,-835.633,-371.399,-774.659,0,0,0,
,-0.356,0.045,0.594,-760.682,-357.056,-604.126,0,0,0,
,-0.395,0.219,0.555,-487.793,-303.101,-381.348,0,0,0,
,-0.362,0.188,0.64,-109.62,-226.136,-141.297,0,0,0,
,-0.346,-0.133,0.796,398.01,-53.589,191.162,0,0,0,
,-0.344,-0.525,0.922,732.849,157.165,558.166,0,0,0,
,-0.35,-0.742,0.999,991.882,381.225,856.811,0,0,0,
,-0.367,-0.802,1.012,1271.789,530.456,1050.537,0,0,0,
,-0.313,-0.589,0.78,1429.87,491.088,1057.006,0,0,0,
,-0.273,-0.51,0.545,1241.394,371.948,859.985,0,0,0,
,-0.238,-1.064,0.287,613.098,313.903,567.138,0,0,0,
,-0.207,-1.66,0.413,-167.481,181.274,167.053,0,0,0,
,-0.241,-1.605,0.679,-655.396,68.481,-79.651,0,0,0,
,-0.236,-1.166,0.932,-705.933,-47.181,-350.342,0,0,0,
,-0.26,-0.917,0.969,-511.231,-125.55,-620.362,0,0,0,
,-0.295,-0.877,0.881,-372.01,-208.68,-833.13,0,0,0,
,-0.309,-0.801,0.754,-415.772,-283.265,-977.234,0,0,0,
,-0.298,-0.651,0.69,-555.97,-376.343,-1032.715,0,0,0,
,-0.295,-0.428,0.704,-674.683,-438.05,-994.568,0,0,0,
,-0.323,-0.227,0.721,-756.104,-467.835,-906.739,0,0,0,
,-0.382,-0.099,0.694,-809.082,-454.773,-765.686,0,0,0,
,-0.435,0.024,0.64,-821.778,-414.612,-562.684,0,0,0,
,-0.448,0.157,0.553,-746.766,-340.516,-326.111,0,0,0,
,-0.448,0.229,0.557,-513.672,-233.094,-36.255,0,0,0,
,-0.443,0.076,0.619,-159.79,-63.172,235.778,0,0,0,
,-0.425,-0.188,0.728,132.568,162.048,557.8,0,0,0,
,-0.413,-0.354,0.793,482.36,399.475,847.534,0,0,0,
,-0.391,-0.509,0.835,798.401,592.651,1079.467,0,0,0,
,-0.371,-0.504,0.76,1129.15,661.377,1179.809,0,0,0,
,-0.289,-0.536,0.604,1331.848,585.205,1121.215,0,0,0,
,-0.249,-0.872,0.471,1294.189,451.233,966.308,0,0,0,
,-0.189,-1.279,0.423,827.392,259.582,765.808,0,0,0,
,-0.189,-1.597,0.556,273.864,97.595,431.518,0,0,0,
,-0.254,-1.635,0.739,-216.614,-18.25,102.966,0,0,0,
,-0.301,-1.401,0.897,-482.85,-92.774,-262.33,0,0,0,
,-0.375,-1.178,0.984,-608.765,-181.214,-584.778,0,0,0,
,-0.322,-0.966,0.956,-677.613,-250.977,-846.131,0,0,0,
,-0.323,-0.729,0.896,-743.592,-315.308,-1027.405,0,0,0,
,-0.32,-0.532,0.838,-859.375,-370.301,-1083.436,0,0,0,
,-0.299,-0.344,0.768,-1023.987,-431.885,-1050.354,0,0,0,
,-0.295,-0.135,0.716,-1110.474,-476.075,-949.891,0,0,0,
,-0.33,0.102,0.661,-984.253,-491.883,-777.771,0,0,0,
,-0.393,0.229,0.628,-721.558,-455.506,-565.979,0,0,0,
,-0.414,0.245,0.566,-412.415,-362.61,-317.2,0,0,0,
,-0.425,0.195,0.55,-171.326,-220.52,-29.664,0,0,0,
,-0.426,0.036,0.586,53.955,-17.518,249.572,0,0,0,
,-0.42,-0.128,0.648,260.07,217.956,544.922,0,0,0,
,-0.426,-0.279,0.702,485.473,432.556,776.001,0,0,0,
,-0.404,-0.35,0.699,767.944,570.007,944.091,0,0,0,
,-0.398,-0.351,0.63,1131.591,613.647,990.966,0,0,0,
,-0.349,-0.497,0.533,1448.913,578.186,950.195,0,0,0,
,-0.341,-0.916,0.516,1426.452,495.3,801.147,0,0,0,
,-0.312,-1.318,0.555,1109.619,376.709,592.407,0,0,0,
,-0.366,-1.576,0.654,625.061,266.052,312.072,0,0,0,
,-0.371,-1.529,0.776,150.512,192.382,-8.789,0,0,0,
,-0.368,-1.38,0.885,-286.072,124.817,-318.421,0,0,0,
,-0.355,-1.165,0.923,-600.098,35.644,-620.789,0,0,0,
,-0.304,-0.509,0.884,-1285.889,-323.975,-1046.509,0,0,0,
,-0.285,-0.327,0.844,-1386.536,-438.599,-1041.626,0,0,0,
,-0.315,-0.107,0.764,-1358.643,-507.203,-927.613,0,0,0,
,-0.358,0.101,0.694,-1165.894,-540.345,-781.556,0,0,0,
,-0.411,0.234,0.629,-816.956,-498.475,-566.163,0,0,0,
,-0.454,0.238,0.556,-436.402,-401.062,-340.332,0,0,0,
,-0.461,0.19,0.551,-115.235,-230.957,-54.505,0,0,0,
,-0.442,0.04,0.624,179.687,-14.405,231.75,0,0,0,
,-0.421,-0.13,0.658,459.655,236.267,543.579,0,0,0,
,-0.41,-0.279,0.719,705.688,460.022,825.988,0,0,0,
,-0.37,-0.35,0.749,984.863,614.685,1010.315,0,0,0,
,-0.359,-0.363,0.674,1252.929,662.048,1096.679,0,0,0,
,-0.309,-0.421,0.588,1440.49,603.149,1056.457,0,0,0,
,-0.258,-0.672,0.537,1477.417,462.89,880.432,0,0,0,
,-0.254,-1.099,0.586,1201.355,307.8,642.944,0,0,0,
,-0.337,-1.456,0.73,794.067,181.945,376.648,0,0,0,
,-0.375,-1.586,0.747,273.62,125.915,48.461,0,0,0,
,-0.399,-1.482,0.816,-284.058,76.355,-242.981,0,0,0,
,-0.425,-1.266,0.876,-652.039,25.268,-554.871,0,0,0,
,-0.425,-1.082,0.935,-939.515,-46.204,-814.454,0,0,0,
,-0.406,-0.918,0.977,-1147.217,-127.076,-986.817,0,0,0,
,-0.368,-0.707,0.967,-1282.349,-209.595,-1073.304,0,0,0,
,-0.331,-0.467,0.915,-1383.728,-305.298,-1084.656,0,0,0,
,-0.302,-0.19,0.831,-1374.207,-396.851,-1011.841,0,0,0,
,-0.306,0.016,0.751,-1137.33,-484.436,-867.615,0,0,0,
,-0.348,0.209,0.7,-643.799,-501.648,-636.597,0,0,0,
,-0.404,0.222,0.649,-174.012,-444.519,-360.413,0,0,0,
,-0.417,0.177,0.585,151.001,-309.449,-75.379,0,0,0,
,-0.395,0.142,0.551,377.99,-147.217,230.835,0,0,0,
,-0.381,0.002,0.574,656.982,57.19,520.202,0,0,0,
,-0.374,-0.177,0.616,898.132,264.526,808.96,0,0,0,
,-0.366,-0.264,0.622,1120.178,407.47,1011.169,0,0,0,
,-0.347,-0.324,0.595,1337.524,482.177,1133.117,0,0,0,
,-0.32,-0.497,0.549,1413.574,479.614,1102.539,0,0,0,
,-0.323,-0.828,0.548,1316.955,406.86,963.867,0,0,0,
,-0.331,-1.198,0.588,1053.65,304.931,749.023,0,0,0,
,-0.372,-1.398,0.681,728.149,179.687,500.244,0,0,0,
,-0.426,-1.474,0.782,411.132,88.867,206.604,0,0,0,
,-0.461,-1.416,0.84,60.363,34.606,-86.365,0,0,0,
,-0.474,-1.278,0.84,-286.316,-16.785,-401.368,0,0,0,
,-0.447,-1.129,0.84,-588.685,-79.529,-677.124,0,0,0,
,-0.418,-0.95,0.845,-856.629,-151.185,-871.582,0,0,0,
,-0.381,-0.757,0.826,-1039.429,-222.657,-984.437,0,0,0,
,-0.352,-0.557,0.78,-1168.519,-298.706,-1002.381,0,0,0,
,-0.329,-0.327,0.706,-1180.787,-371.766,-934.632,0,0,0,
,-0.324,-0.111,0.634,-1029.603,-426.88,-791.504,0,0,0,
,-0.342,0.051,0.575,-715.271,-421.814,-606.019,0,0,0,
,-0.369,0.119,0.518,-407.227,-350.159,-354.859,0,0,0,
,-0.379,0.135,0.465,-127.747,-223.267,-84.595,0,0,0,
,-0.366,0.065,0.471,74.096,-31.067,221.496,0,0,0,
,-0.359,-0.068,0.537,271.972,188.537,515.442,0,0,0,
,-0.35,-0.259,0.596,472.595,426.025,820.678,0,0,0,
,-0.342,-0.318,0.638,694.519,600.708,1054.26,0,0,0,
,-0.316,-0.381,0.617,995.727,681.762,1179.565,0,0,0,
,-0.295,-0.543,0.609,1203.491,668.762,1201.049,0,0,0,
,-0.25,-0.794,0.622,1312.622,558.593,1093.505,0,0,0,
,-0.23,-1.056,0.606,1230.713,387.695,880.981,0,0,0,
,-0.251,-1.341,0.646,1011.047,222.717,565.246,0,0,0,
,-0.321,-1.645,0.747,604.858,101.074,253.173,0,0,0,
,-0.394,-1.659,0.832,140.625,34.851,-96.619,0,0,0,
,-0.424,-1.516,0.866,-302.43,-10.682,-415.589,0,0,0,
,-0.405,-1.273,0.859,-621.338,-56.763,-716.065,0,0,0,
,-0.393,-1.1,0.809,-918.213,-105.347,-937.195,0,0,0,
,-0.356,-0.91,0.758,-1192.627,-190.43,-1084.9,0,0,0,
,-0.33,-0.654,0.739,-1376.526,-271.363,-1130.311,0,0,0,
,-0.284,-0.387,0.722,-1440.308,-352.845,-1089.966,0,0,0,
,-0.283,-0.119,0.688,-1330.323,-409.485,-960.511,0,0,0,
,-0.292,0.053,0.616,-1026.49,-412.049,-775.208,0,0,0,
,-0.326,0.151,0.566,-644.349,-361.634,-515.625,0,0,0,
,-0.315,0.139,0.535,-293.335,-256.836,-243.958,0,0,0,
,-0.318,0.105,0.538,-16.785,-97.168,72.998,0,0,0,
,-0.301,0,0.577,247.07,106.079,389.77,0,0,0,
,-0.302,-0.133,0.598,490.6,297.912,663.147,0,0,0,
,-0.294,-0.224,0.63,707.092,468.628,900.085,0,0,0,
,-0.284,-0.295,0.632,984.253,540.283,1038.269,0,0,0,
,-0.267,-0.441,0.611,1222.961,516.723,1079.284,0,0,0,
,-0.258,-0.662,0.577,1404.785,431.579,1013.183,0,0,0,
,-0.266,-1.016,0.578,1411.316,285.034,842.712,0,0,0,
,-0.302,-1.412,0.641,1214.782,119.018,615.478,0,0,0,
,-0.366,-1.613,0.733,890.442,7.934,346.984,0,0,0,
,-0.407,-1.587,0.776,509.704,-62.5,16.418,0,0,0,
,-0.44,-1.48,0.799,25.085,-89.783,-309.082,0,0,0,
,-0.465,-1.324,0.801,-511.109,-111.39,-635.498,0,0,0,
,-0.461,-1.131,0.791,-954.957,-134.217,-901.612,0,0,0,
,-0.426,-0.946,0.767,-1336.426,-172.608,-1066.407,0,0,0,
,-0.386,-0.692,0.734,-1606.446,-218.201,-1127.32,0,0,0,
,-0.339,-0.473,0.68,-1783.753,-245.911,-1100.464,0,0,0,
,-0.295,-0.224,0.588,-1664.612,-308.655,-982.666,0,0,0,
,-0.329,-0.002,0.536,-1210.389,-334.656,-776.978,0,0,0,
,-0.328,0.109,0.51,-621.827,-308.228,-559.937,0,0,0,
,-0.336,0.147,0.51,-91.309,-239.075,-304.993,0,0,0,
,-0.328,0.121,0.483,321.655,-114.624,-50.904,0,0,0,
,-0.316,0.06,0.485,563.842,26.977,231.994,0,0,0,
,-0.295,-0.013,0.533,753.784,165.1,480.041,0,0,0,
,-0.277,-0.123,0.573,896.911,297.058,723.083,0,0,0,
,-0.29,-0.247,0.608,974.487,388.427,929.199,0,0,0,
,-0.291,-0.412,0.627,989.624,450.317,1053.1,0,0,0,
,-0.297,-0.628,0.662,979.431,473.327,1114.624,0,0,0,
,-0.283,-0.825,0.687,950.195,446.411,1089.355,0,0,0,
,-0.268,-1.062,0.714,903.442,363.708,988.342,0,0,0,
,-0.279,-1.261,0.726,782.959,263.244,797.912,0,0,0,
,-0.293,-1.446,0.737,580.017,152.526,556.884,0,0,0,
,-0.319,-1.523,0.766,348.022,59.936,250.61,0,0,0,
,-0.346,-1.544,0.786,54.504,-16.785,-55.298,0,0,0,
,-0.359,-1.475,0.794,-243.47,-81.482,-388.001,0,0,0,
,-0.356,-1.342,0.789,-522.767,-129.639,-670.35,0,0,0,
,-0.35,-1.143,0.77,-788.758,-176.758,-914.307,0,0,0,
,-0.327,-0.908,0.744,-1016.907,-221.497,-1089.844,0,0,0,
,-0.29,-0.736,0.713,-1230.713,-269.593,-1159.668,0,0,0,
,-0.263,-0.508,0.659,-1372.376,-309.998,-1140.198,0,0,0,
,-0.245,-0.288,0.593,-1345.765,-357.117,-1036.133,0,0,0,
,-0.275,-0.078,0.565,-1081.36,-361.268,-845.032,0,0,0,
,-0.29,0.014,0.524,-704.163,-307.312,-626.587,0,0,0,
,-0.321,0.084,0.5,-330.262,-215.638,-362.366,0,0,0,
,-0.317,0.152,0.468,-35.889,-86.182,-71.717,0,0,0,
,-0.292,0.08,0.516,239.868,88.256,201.599,0,0,0,
,-0.269,-0.061,0.574,452.148,272.583,496.704,0,0,0,
,-0.258,-0.224,0.634,602.783,433.227,763,0,0,0,
,-0.26,-0.246,0.669,755.31,548.645,974.426,0,0,0,
,-0.232,-0.369,0.647,890.014,553.833,1087.036,0,0,0,
,-0.236,-0.59,0.633,996.765,521.362,1092.285,0,0,0,
,-0.243,-0.901,0.678,1033.447,456.848,1015.136,0,0,0,
,-0.26,-1.174,0.719,981.75,348.571,872.863,0,0,0,
,-0.292,-1.354,0.762,876.892,221.435,646.789,0,0,0,
,-0.316,-1.459,0.787,643.859,127.807,381.164,0,0,0,
,-0.347,-1.539,0.802,307.251,62.561,59.814,0,0,0,
,-0.367,-1.521,0.817,-81.849,13.977,-263.611,0,0,0,
,-0.368,-1.384,0.84,-448.121,-31.311,-550.904,0,0,0,
,-0.35,-1.213,0.829,-719.422,-65.918,-812.928,0,0,0,
,-0.323,-1.022,0.825,-954.102,-125.123,-995.85,0,0,0,
,-0.293,-0.836,0.793,-1129.517,-194.031,-1110.474,0,0,0,
,-0.254,-0.623,0.73,-1224.488,-280.701,-1154.175,0,0,0,
,-0.246,-0.387,0.655,-1155.884,-370.179,-1112.122,0,0,0,
,-0.255,-0.193,0.613,-926.148,-423.523,-999.756,0,0,0,
,-0.29,-0.049,0.585,-562.195,-438.538,-845.948,0,0,0,
,-0.333,0.031,0.563,-208.13,-389.466,-629.517,0,0,0,
,-0.354,0.067,0.526,81.054,-304.871,-410.157,0,0,0,
,-0.37,0.139,0.48,240.844,-178.894,-152.1,0,0,0,
,-0.339,0.101,0.516,279.174,-20.569,116.882,0,0,0,
,-0.309,-0.018,0.623,323.242,188.11,393.127,0,0,0,
,-0.26,-0.161,0.619,379.577,393.554,708.679,0,0,0,
,-0.239,-0.303,0.636,518.249,559.936,967.102,0,0,0,
,-0.212,-0.426,0.626,704.345,661.255,1138.305,0,0,0,
,-0.197,-0.55,0.626,862.548,646.362,1175.171,0,0,0,
,-0.194,-0.848,0.674,956.848,542.907,1084.777,0,0,0,
,-0.217,-1.173,0.712,916.87,407.287,900.39,0,0,0,
,-0.258,-1.387,0.737,714.538,253.173,633.972,0,0,0,
,-0.306,-1.519,0.796,434.753,131.408,308.593,0,0,0,
,-0.354,-1.534,0.844,83.007,54.138,-5.555,0,0,0,
,-0.392,-1.464,0.877,-297.547,-16.785,-323.975,0,0,0,
,-0.389,-1.279,0.887,-599.976,-77.576,-599.366,0,0,0,
,-0.373,-1.117,0.873,-782.593,-137.513,-800.538,0,0,0,
,-0.347,-0.904,0.847,-888.367,-202.393,-935.608,0,0,0,
,-0.312,-0.684,0.821,-949.219,-279.419,-987.183,0,0,0,
,-0.281,-0.447,0.766,-917.298,-358.521,-965.821,0,0,0,
,-0.28,-0.249,0.714,-768.006,-406.983,-867.981,0,0,0,
,-0.292,-0.085,0.656,-511.475,-409.974,-703.614,0,0,0,
,-0.32,0.026,0.619,-274.109,-374.878,-488.038,0,0,0,
,-0.34,0.103,0.552,-71.778,-284.119,-257.63,0,0,0,
,-0.319,0.162,0.493,55.297,-153.016,26.001,0,0,0,
,-0.273,0.103,0.51,212.524,28.93,319.946,0,0,0,
,-0.197,-0.408,0.626,709.716,615.234,1215.088,0,0,0,
,-0.173,-0.432,0.612,868.774,656.128,1334.9,0,0,0,
,-0.095,-0.603,0.618,1015.869,604.492,1302.49,0,0,0,
,-0.08,-1.037,0.628,1053.711,474.243,1148.864,0,0,0,
,-0.091,-1.357,0.664,866.394,330.505,931.884,0,0,0,
,-0.123,-1.543,0.74,578.857,171.814,612.976,0,0,0,
,-0.167,-1.623,0.828,316.284,72.387,255.981,0,0,0,
,-0.192,-1.569,0.852,-48.401,18.615,-82.581,0,0,0,
,-0.254,-1.139,0.704,-1099.732,-221.619,-994.446,0,0,0,
,-0.244,-0.898,0.669,-1186.097,-317.627,-1115.601,0,0,0,
,-0.214,-0.59,0.66,-1176.697,-421.692,-1161.988,0,0,0,
,-0.227,-0.317,0.676,-1005.066,-475.525,-1113.709,0,0,0,
,-0.228,-0.169,0.672,-752.564,-479.126,-1011.048,0,0,0,
,-0.259,-0.084,0.616,-556.214,-439.698,-838.379,0,0,0,
,-0.292,-0.02,0.575,-370.362,-371.155,-613.892,0,0,0,
,-0.326,0.04,0.551,-160.401,-243.164,-323.487,0,0,0,
,-0.321,0.041,0.568,24.841,-82.947,10.681,0,0,0,
,-0.287,-0.025,0.613,265.503,138.61,335.754,0,0,0,
,-0.28,-0.122,0.662,462.829,337.768,631.713,0,0,0,
,-0.21,-0.323,0.7,650.085,513.122,880.371,0,0,0,
,-0.16,-0.396,0.713,755.127,614.502,1047.546,0,0,0,
,-0.133,-0.463,0.693,774.17,616.272,1078.247,0,0,0,
,-0.08,-0.739,0.701,688.781,546.936,984.558,0,0,0,
,-0.092,-1.123,0.796,564.941,442.627,810.974,0,0,0,
,-0.135,-1.297,0.866,393.982,292.297,598.938,0,0,0,
,-0.283,-1.387,0.855,-325.44,-101.868,-286.683,0,0,0,
,-0.319,-1.336,0.861,-535.279,-199.28,-551.88,0,0,0,
,-0.345,-1.183,0.847,-696.106,-276.246,-750.123,0,0,0,
,-0.35,-1.002,0.813,-767.273,-327.759,-899.781,0,0,0,
,-0.327,-0.797,0.794,-788.514,-378.052,-983.338,0,0,0,
,-0.3,-0.581,0.774,-725.892,-405.762,-1022.4,0,0,0,
,-0.272,-0.409,0.739,-639.466,-419.129,-1003.602,0,0,0,
,-0.269,-0.077,0.658,-428.589,-396.973,-756.104,0,0,0,
,-0.299,0.033,0.623,-234.131,-322.937,-551.575,0,0,0,
,-0.318,0.107,0.541,-41.504,-218.567,-289.063,0,0,0,
,-0.305,0.155,0.522,139.709,-77.881,-8.118,0,0,0,
,-0.262,0.102,0.566,376.464,103.271,312.378,0,0,0,
,-0.215,-0.058,0.658,623.291,295.593,615.417,0,0,0,
,-0.197,-0.295,0.717,789.978,492.614,919.922,0,0,0,
,-0.165,-0.415,0.751,913.818,613.586,1155.456,0,0,0,
,-0.159,-0.494,0.705,1006.286,633.056,1202.087,0,0,0,
,-0.135,-0.786,0.621,962.89,555.969,1097.961,0,0,0,
,-0.144,-1.048,0.622,725.708,429.443,932.495,0,0,0,
,-0.17,-1.262,0.71,433.899,283.447,687.622,0,0,0,
,-0.222,-1.375,0.788,237.487,185.119,420.898,0,0,0,
,-0.248,-1.404,0.831,87.951,106.628,133.606,0,0,0,
,-0.243,-1.362,0.813,-91.553,18.798,-167.176,0,0,0,
,-0.241,-1.257,0.809,-361.39,-60.181,-437.561,0,0,0,
,-0.237,-1.163,0.797,-552.552,-151.246,-693.787,0,0,0,
,-0.237,-1.007,0.811,-711.792,-218.262,-858.399,0,0,0,
,-0.228,-0.835,0.807,-846.131,-282.41,-966.858,0,0,0,
,-0.205,-0.646,0.79,-914.856,-335.45,-1006.226,0,0,0,
,-0.198,-0.406,0.751,-930.97,-385.376,-976.38,0,0,0,
,-0.221,-0.21,0.704,-864.014,-411.56,-874.939,0,0,0,
,-0.261,-0.103,0.685,-660.706,-399.292,-729.615,0,0,0,
,-0.299,-0.006,0.666,-445.13,-344.422,-525.33,0,0,0,
,-0.334,0.07,0.603,-267.579,-255.066,-287.11,0,0,0,
,-0.326,0.15,0.515,-88.074,-132.386,-41.748,0,0,0,
,-0.304,0.08,0.571,123.474,27.893,255.31,0,0,0,
,-0.236,-0.277,0.767,627.807,435.302,850.219,0,0,0,
,-0.2,-0.414,0.761,832.763,572.082,1054.748,0,0,0,
,-0.177,-0.427,0.694,988.281,587.463,1122.375,0,0,0,
,-0.138,-0.627,0.639,1054.87,526.428,1037.414,0,0,0,
,-0.139,-1.066,0.627,982.849,413.147,871.643,0,0,0,
,-0.187,-1.361,0.614,724.67,254.455,623.657,0,0,0,
,-0.192,-1.433,0.68,269.348,93.994,311.34,0,0,0,
,-0.225,-1.496,0.813,-37.293,-15.748,2.624,0,0,0,
,-0.269,-1.49,0.912,-333.435,-107.666,-338.135,0,0,0,
,-0.292,-1.322,0.925,-717.469,-190.43,-600.708,0,0,0,
,-0.285,-1.081,0.92,-1065.125,-260.193,-817.139,0,0,0,
,-0.262,-0.828,0.923,-1271.485,-322.876,-934.327,0,0,0,
,-0.231,-0.583,0.887,-1314.82,-387.879,-966.248,0,0,0,
,-0.222,-0.353,0.818,-1194.214,-427.185,-917.115,0,0,0,
,-0.222,-0.173,0.719,-1002.686,-445.13,-790.833,0,0,0,
,-0.249,-0.019,0.631,-765.87,-424.439,-606.446,0,0,0,
,-0.276,0.091,0.59,-424.866,-343.262,-392.456,0,0,0,
,-0.252,0.124,0.557,-99.732,-198.121,-120.362,0,0,0,
,-0.271,0.08,0.593,214.843,-10.437,165.161,0,0,0,
,-0.247,-0.073,0.673,500.122,227.234,482.544,0,0,0,
,-0.229,-0.254,0.744,770.446,444.885,750.183,0,0,0,
,-0.204,-0.385,0.741,1003.601,597.656,957.397,0,0,0,
,-0.195,-0.43,0.67,1122.314,630.31,1018.066,0,0,0,
,-0.17,-0.69,0.642,1089.294,580.322,953.491,0,0,0,
,-0.177,-1.004,0.664,953.857,479.187,778.808,0,0,0,
,-0.192,-1.242,0.731,709.533,355.59,581.543,0,0,0,
,-0.207,-1.331,0.818,378.479,233.032,298.645,0,0,0,
,-0.233,-1.335,0.885,68.786,130.859,10.925,0,0,0,
,-0.247,-1.279,0.923,-283.631,41.992,-272.278,0,0,0,
,-0.282,-1.174,0.938,-636.17,-34.852,-542.42,0,0,0,
,-0.243,-1.05,0.924,-924.317,-114.38,-755.738,0,0,0,
,-0.225,-0.864,0.904,-1107.666,-202.82,-878.418,0,0,0,
,-0.193,-0.636,0.854,-1189.332,-303.101,-915.833,0,0,0,
,-0.184,-0.4,0.828,-1033.448,-387.94,-885.743,0,0,0,
,-0.202,-0.182,0.781,-754.273,-437.012,-805.115,0,0,0,
,-0.23,-0.049,0.721,-461.792,-451.966,-695.252,0,0,0,
,-0.264,0.025,0.683,-192.566,-417.603,-532.044,0,0,0,
,-0.3,0.03,0.65,37.17,-330.933,-343.995,0,0,0,
,-0.305,0.061,0.618,168.518,-196.534,-111.756,0,0,0,
,-0.281,0.026,0.635,239.99,-33.509,147.827,0,0,0,
,-0.259,-0.095,0.697,381.652,163.635,409.851,0,0,0,
,-0.262,-0.268,0.753,546.264,344.238,677.368,0,0,0,
,-0.24,-0.383,0.76,729.37,482.666,861.389,0,0,0,
,-0.22,-0.419,0.696,872.741,499.939,936.706,0,0,0,
,-0.198,-0.582,0.681,960.815,452.148,898.01,0,0,0,
,-0.179,-0.931,0.715,984.192,351.989,769.104,0,0,0,
,-0.23,-1.324,0.744,582.58,111.389,328.369,0,0,0,
,-0.268,-1.387,0.753,233.52,11.291,29.357,0,0,0,
,-0.311,-1.392,0.773,-143.433,-78.064,-273.926,0,0,0,
,-0.327,-1.279,0.779,-436.402,-160.706,-605.103,0,0,0,
,-0.345,-1.143,0.78,-688.66,-215.516,-852.539,0,0,0,
,-0.322,-0.956,0.805,-921.265,-268.86,-1019.349,0,0,0,
,-0.292,-0.708,0.833,-1106.69,-312.806,-1124.207,0,0,0,
,-0.247,-0.472,0.817,-1199.341,-360.657,-1148.316,0,0,0,
,-0.213,-0.224,0.768,-1133.667,-399.353,-1089.478,0,0,0,
,-0.217,-0.027,0.717,-919.739,-405.03,-942.383,0,0,0,
,-0.233,0.102,0.672,-654.175,-369.568,-716.736,0,0,0,
,-0.266,0.203,0.648,-377.808,-293.702,-426.087,0,0,0,
,-0.264,0.257,0.644,-108.338,-157.532,-119.202,0,0,0,
,-0.22,0.174,0.678,122.985,28.564,226.745,0,0,0,
,-0.231,0.016,0.704,410.278,213.379,559.509,0,0,0,
,-0.23,-0.171,0.705,651.916,402.099,877.563,0,0,0,
,-0.223,-0.25,0.668,866.76,521.972,1077.148,0,0,0,
,-0.208,-0.361,0.626,1062.622,558.227,1166.504,0,0,0,
,-0.192,-0.619,0.643,1126.159,520.813,1150.39,0,0,0,
,-0.208,-0.946,0.735,1097.107,461.975,1039.245,0,0,0,
,-0.217,-1.149,0.703,949.401,373.169,830.444,0,0,0,
,-0.253,-1.244,0.669,730.957,258.911,534.546,0,0,0,
,-0.281,-1.403,0.664,482.849,179.687,228.881,0,0,0,
,-0.346,-1.453,0.735,-466.736,61.523,-398.682,0,0,0,
,-0.321,-1.224,0.896,-958.741,-23.011,-709.778,0,0,0,
,-0.299,-1.069,0.968,-1204.285,-98.206,-909.974,0,0,0,
,-0.272,-0.823,0.984,-1258.423,-182.74,-1020.874,0,0,0,
,-0.227,-0.551,0.933,-1192.017,-266.541,-1044.617,0,0,0,
,-0.182,-0.254,0.864,-1019.104,-351.014,-985.413,0,0,0,
,-0.205,-0.111,0.802,-798.706,-403.504,-869.141,0,0,0,
,-0.278,0.096,0.685,-164.429,-301.026,-304.993,0,0,0,
,-0.277,0.157,0.6,-26.062,-186.829,-60.425,0,0,0,
,-0.264,0.106,0.605,136.779,-38.514,190.307,0,0,0,
,-0.24,-0.041,0.667,343.322,144.47,476.745,0,0,0,
,-0.243,-0.213,0.692,544.616,337.097,750.732,0,0,0,
,-0.23,-0.321,0.712,721.496,479.126,961.364,0,0,0,
,-0.226,-0.373,0.7,897.033,539.917,1067.382,0,0,0,
,-0.19,-0.512,0.704,1028.686,523.071,1064.453,0,0,0,
,-0.188,-0.793,0.723,1098.816,443.176,987.793,0,0,0,
,-0.193,-1,0.715,1036.682,349.182,848.632,0,0,0,
,-0.258,-1.503,0.783,110.351,-4.151,22.766,0,0,0,
,-0.292,-1.389,0.81,-377.32,-69.519,-253.357,0,0,0,
,-0.327,-1.271,0.879,-856.385,-112.122,-511.231,0,0,0,
,-0.309,-1.121,0.907,-1155.64,-144.654,-759.766,0,0,0,
,-0.265,-0.874,0.906,-1360.108,-190.43,-942.2,0,0,0,
,-0.16,-0.155,0.795,-1304.078,-392.884,-918.641,0,0,0,
,-0.149,0.09,0.784,-1048.157,-401.123,-749.207,0,0,0,
,-0.173,0.205,0.751,-679.261,-362.854,-543.519,0,0,0,
,-0.193,0.24,0.679,-295.411,-272.461,-287.049,0,0,0,
,-0.211,0.237,0.64,13.61,-147.034,-26.429,0,0,0,
,-0.214,0.156,0.678,346.679,31.311,272.216,0,0,0,
,-0.223,-0.291,0.789,1071.655,552.978,949.707,0,0,0,
,-0.216,-0.448,0.711,1203.186,606.994,1011.596,0,0,0,
,-0.173,-0.607,0.708,1227.111,554.382,949.279,0,0,0,
,-0.152,-0.79,0.73,1179.077,456.848,816.406,0,0,0,
,-0.155,-1.043,0.713,1020.507,345.398,591.858,0,0,0,
,-0.181,-1.342,0.699,742.859,216.247,336.547,0,0,0,
,-0.218,-1.49,0.764,342.407,85.815,72.631,0,0,0,
,-0.239,-1.422,0.852,-136.353,-16.358,-198.609,0,0,0,
,-0.248,-1.26,0.911,-592.652,-90.76,-448.487,0,0,0,
,-0.247,-1.121,0.925,-841.919,-141.358,-629.151,0,0,0,
,-0.169,-0.486,0.842,-1152.527,-329.346,-812.439,0,0,0,
,-0.176,-0.317,0.835,-1095.337,-390.137,-771.546,0,0,0,
,-0.178,-0.162,0.823,-1036.866,-416.871,-707.154,0,0,0,
,-0.194,-0.05,0.774,-957.886,-417.176,-624.146,0,0,0,
,-0.227,0.036,0.699,-874.634,-383.973,-491.272,0,0,0,
,-0.297,0.272,0.575,-372.01,-110.596,6.408,0,0,0,
,-0.283,0.147,0.679,110.473,80.261,223.266,0,0,0,
,-0.28,-0.07,0.767,528.93,292.907,480.651,0,0,0,
,-0.267,-0.184,0.802,906.921,460.022,708.191,0,0,0,
,-0.252,-0.276,0.799,1278.686,578.003,898.742,0,0,0,
,-0.232,-0.286,0.758,1626.22,572.082,969.36,0,0,0,
,-0.206,-0.399,0.746,1899.536,464.843,948.242,0,0,0,
,-0.178,-0.734,0.742,1977.111,363.098,819.275,0,0,0,
,-0.208,-1.18,0.715,1771.85,253.845,633.972,0,0,0,
,-0.235,-1.599,0.707,1025.146,149.597,368.469,0,0,0,
,-0.285,-1.723,0.757,60.607,66.04,72.753,0,0,0,
,-0.305,-1.55,0.823,-643.006,-3.357,-243.226,0,0,0,
,-0.334,-1.307,0.867,-1036.805,-50.232,-506.775,0,0,0,
,-0.319,-1.074,0.88,-1287.72,-122.01,-726.746,0,0,0,
,-0.307,-0.842,0.879,-1362.61,-204.712,-885.498,0,0,0,
,-0.298,-0.632,0.884,-1323.975,-288.331,-946.106,0,0,0,
,-0.255,-0.39,0.863,-1180.787,-372.193,-940.247,0,0,0,
,-0.223,0.068,0.753,-337.708,-394.532,-544.495,0,0,0,
,-0.234,0.145,0.691,-66.04,-313.294,-345.765,0,0,0,
,-0.236,0.176,0.619,103.393,-204.773,-97.962,0,0,0,
,-0.228,0.143,0.598,277.832,-70.252,161.193,0,0,0,
,-0.195,-0.008,0.649,503.173,113.22,460.815,0,0,0,
,-0.207,-0.256,0.728,677.612,313.72,774.841,0,0,0,
,-0.215,-0.495,0.824,856.445,493.164,1055.175,0,0,0,
,-0.232,-0.426,0.821,1072.631,561.096,1225.769,0,0,0,
,-0.191,-0.36,0.736,1337.158,500.549,1228.454,0,0,0,
,-0.125,-0.461,0.662,1551.391,370.849,1078.918,0,0,0,
,-0.219,-1.77,0.756,400.085,44.311,212.951,0,0,0,
,-0.269,-1.656,0.777,-206.665,3.662,-109.436,0,0,0,
,-0.293,-1.445,0.78,-676.636,-42.237,-437.378,0,0,0,
,-0.302,-1.356,0.775,-1020.691,-106.019,-769.532,0,0,0,
,-0.286,-1.156,0.757,-1149.598,-183.899,-971.497,0,0,0,
,-0.252,-0.855,0.741,-1201.539,-267.395,-1095.643,0,0,0,
,-0.223,-0.594,0.744,-1191.895,-338.623,-1118.348,0,0,0,
,-0.206,-0.345,0.786,-1125,-376.16,-1060.669,0,0,0,
,-0.19,-0.127,0.779,-995.789,-385.865,-943.604,0,0,0,
,-0.181,0.068,0.742,-770.447,-371.705,-767.273,0,0,0,
,-0.2,0.177,0.656,-485.291,-337.464,-574.83,0,0,0,
,-0.243,0.244,0.637,-165.894,-275.452,-330.201,0,0,0,
,-0.245,0.139,0.672,195.678,-47.669,185.913,0,0,0,
,-0.248,0.002,0.7,309.387,120.483,458.862,0,0,0,
,-0.236,-0.183,0.774,647.033,405.273,892.212,0,0,0,
,-0.235,-0.277,0.769,912.048,470.703,991.577,0,0,0,
,-0.235,-0.432,0.758,1148.315,453.796,1010.925,0,0,0,
,-0.23,-0.677,0.796,1279.968,384.46,954.04,0,0,0,
,-0.294,-1.516,0.631,307.556,123.413,339.172,0,0,0,
,-0.323,-1.643,0.631,-202.088,15.564,24.292,0,0,0,
,-0.332,-1.508,0.693,-591.797,-87.037,-262.207,0,0,0,
,-0.317,-1.263,0.784,-833.374,-193.665,-518.433,0,0,0,
,-0.328,-1.021,0.83,-826.783,-271.302,-753.724,0,0,0,
,-0.319,-0.832,0.819,-706.91,-322.022,-924.195,0,0,0,
,-0.296,-0.632,0.77,-617.554,-342.469,-1002.747,0,0,0,
,-0.272,-0.493,0.746,-573.731,-342.164,-985.962,0,0,0,
,-0.238,-0.332,0.739,-527.588,-318.36,-885.804,0,0,0,
,-0.225,-0.163,0.727,-457.886,-280.701,-723.572,0,0,0,
,-0.221,-0.014,0.692,-355.103,-220.52,-548.89,0,0,0,
,-0.226,0.097,0.601,-257.386,-154.908,-348.084,0,0,0,
,-0.238,0.171,0.548,-157.166,-89.234,-125.794,0,0,0,
,-0.214,0.176,0.595,-22.278,2.746,125.305,0,0,0,
,-0.178,0.07,0.669,211.181,126.709,404.785,0,0,0,
,-0.158,-0.109,0.704,436.279,271.24,645.385,0,0,0,
,-0.161,-0.25,0.719,608.764,392.761,883.911,0,0,0,
,-0.15,-0.333,0.732,810.608,474.487,1026.611,0,0,0,
,-0.134,-0.371,0.689,939.209,469.787,1079.284,0,0,0,
,-0.108,-0.519,0.623,1046.325,408.02,1024.719,0,0,0,
,-0.09,-0.851,0.637,1039.062,281.128,898.437,0,0,0,
,-0.117,-1.258,0.703,924.316,151.184,716.858,0,0,0,
,-0.188,-1.572,0.722,663.269,29.48,498.352,0,0,0,
,-0.245,-1.687,0.698,311.34,-93.628,221.557,0,0,0,
,-0.302,-1.614,0.694,-46.509,-167.298,-42.603,0,0,0,
,-0.347,-1.521,0.705,-299.195,-215.088,-333.741,0,0,0,
,-0.367,-1.371,0.727,-493.775,-233.521,-580.323,0,0,0,
,-0.378,-1.196,0.731,-614.319,-232.85,-784.18,0,0,0,
,-0.362,-0.995,0.755,-626.954,-225.647,-929.749,0,0,0,
,-0.326,-0.821,0.736,-569.764,-195.008,-1013.55,0,0,0,
,-0.285,-0.682,0.691,-551.453,-164.978,-1033.692,0,0,0,
,-0.222,-0.547,0.682,-613.953,-160.34,-994.751,0,0,0,
,-0.16,-0.365,0.72,-670.899,-164.124,-893.555,0,0,0,
,-0.115,-0.201,0.748,-638.062,-158.692,-749.451,0,0,0,
,-0.11,-0.088,0.718,-509.095,-146.79,-588.929,0,0,0,
,-0.141,0,0.637,-401.734,-136.292,-384.888,0,0,0,
,-0.172,0.045,0.587,-324.158,-107.361,-170.105,0,0,0,
,-0.2,0.029,0.631,-278.321,-29.175,83.435,0,0,0,
,-0.22,-0.078,0.734,-153.199,69.213,337.951,0,0,0,
,-0.244,-0.221,0.799,68.603,192.138,601.867,0,0,0,
,-0.267,-0.404,0.839,301.635,320.678,854.187,0,0,0,
,-0.264,-0.454,0.821,594.909,390.564,1015.258,0,0,0,
,-0.272,-0.241,0.737,816.406,363.281,1089.782,0,0,0,
,-0.237,-0.432,0.687,1048.828,317.138,986.816,0,0,0,
,-0.227,-0.86,0.622,1123.962,239.868,813.659,0,0,0,
,-0.263,-1.205,0.577,859.13,151.489,628.845,0,0,0,
,-0.278,-1.439,0.587,453.979,61.645,353.515,0,0,0,
,-0.331,-1.538,0.684,67.443,7.141,75.317,0,0,0,
,-0.342,-1.485,0.764,-256.958,-24.964,-199.158,0,0,0,
,-0.357,-1.162,0.739,-554.017,-60.547,-697.205,0,0,0,
,-0.331,-1.013,0.728,-599.488,-99.671,-857.239,0,0,0,
,-0.299,-0.828,0.755,-609.07,-140.931,-924.988,0,0,0,
,-0.263,-0.626,0.813,-585.206,-175.843,-948.609,0,0,0,
,-0.237,-0.459,0.824,-551.148,-198.365,-932.801,0,0,0,
,-0.206,-0.315,0.783,-520.142,-225.281,-886.414,0,0,0,
,-0.197,-0.207,0.729,-517.09,-255.127,-807.373,0,0,0,
,-0.236,-0.058,0.688,-490.845,-264.588,-671.998,0,0,0,
,-0.288,0.068,0.605,-457.459,-247.742,-499.695,0,0,0,
,-0.339,0.182,0.503,-443.726,-196.412,-296.448,0,0,0,
,-0.383,0.298,0.447,-449.158,-101.685,-34.241,0,0,0,
,-0.364,0.25,0.542,-309.327,34.24,234.68,0,0,0,
,-0.296,-0.098,0.755,-35.828,253.967,559.143,0,0,0,
,-0.301,-0.382,0.936,293.029,486.328,876.342,0,0,0,
,-0.313,-0.456,0.937,684.692,649.658,1119.751,0,0,0,
,-0.299,-0.43,0.796,1096.374,650.756,1209.533,0,0,0,
,-0.24,-0.476,0.601,1408.813,525.573,1149.475,0,0,0,
,-0.168,-0.869,0.55,1427.734,368.103,955.322,0,0,0,
,-0.15,-1.343,0.64,1121.093,194.275,714.904,0,0,0,
,-0.227,-1.744,0.779,708.679,59.387,420.471,0,0,0,
,-0.269,-1.761,0.835,246.215,-26.795,126.892,0,0,0,
,-0.296,-1.477,0.805,-194.458,-70.252,-179.993,0,0,0,
,-0.294,-1.269,0.794,-578.186,-120.85,-482.056,0,0,0,
,-0.287,-1.195,0.846,-853.699,-175.415,-747.254,0,0,0,
,-0.269,-0.992,0.858,-961.915,-221.863,-926.575,0,0,0,
,-0.243,-0.766,0.816,-998.841,-276.612,-1018.86,0,0,0,
,-0.218,-0.583,0.773,-1021.546,-339.051,-1030.274,0,0,0,
,-0.202,-0.386,0.747,-1028.321,-393.006,-981.751,0,0,0,
,-0.212,-0.163,0.714,-940.491,-431.458,-870.179,0,0,0,
,-0.248,0.052,0.675,-676.026,-433.106,-707.52,0,0,0,
,-0.324,0.133,0.612,-285.462,-377.137,-493.592,0,0,0,
,-0.358,0.173,0.519,17.211,-268.677,-221.375,0,0,0,
,-0.319,0.146,0.497,235.656,-154.847,56.457,0,0,0,
,-0.262,-0.045,0.599,446.106,20.629,392.028,0,0,0,
,-0.236,-0.307,0.73,639.526,218.505,737.487,0,0,0,
,-0.232,-0.495,0.79,802.612,411.193,1031.067,0,0,0,
,-0.256,-0.519,0.767,981.811,515.136,1235.351,0,0,0,
,-0.253,-0.61,0.651,1177.978,528.259,1295.532,0,0,0,
,-0.211,-0.71,0.527,1206.115,421.997,1247.68,0,0,0,
,-0.158,-0.886,0.489,990.661,302.368,1078.491,0,0,0,
,-0.122,-1.325,0.559,672.729,163.635,758.056,0,0,0,
,-0.189,-1.524,0.673,203.918,48.278,423.767,0,0,0,
,-0.236,-1.511,0.731,-219.361,-41.871,32.898,0,0,0,
,-0.269,-1.342,0.762,-550.843,-100.525,-312.623,0,0,0,
,-0.282,-1.211,0.785,-803.894,-171.814,-616.822,0,0,0,
,-0.301,-1.032,0.793,-883.057,-250.061,-865.601,0,0,0,
,-0.305,-0.868,0.783,-905.823,-309.082,-1007.691,0,0,0,
,-0.315,-0.67,0.792,-934.327,-355.896,-1087.037,0,0,0,
,-0.321,-0.479,0.786,-977.54,-380.372,-1101.197,0,0,0,
,-0.334,-0.359,0.752,-1026.734,-397.583,-1062.562,0,0,0,
,-0.35,-0.204,0.716,-1034.974,-403.321,-970.215,0,0,0,
,-0.366,-0.067,0.701,-933.289,-381.104,-852.173,0,0,0,
,-0.402,0.019,0.673,-769.349,-325.074,-681.214,0,0,0,
,-0.42,0.11,0.626,-557.496,-240.235,-478.028,0,0,0,
,-0.425,0.142,0.642,-306.946,-104.187,-229.187,0,0,0,
,-0.423,0.044,0.71,-44.922,67.81,34.973,0,0,0,
,-0.392,-0.138,0.777,202.331,275.024,303.1,0,0,0,
,-0.367,-0.287,0.843,425.109,480.224,583.984,0,0,0,
,-0.347,-0.432,0.897,674.316,624.939,815.979,0,0,0,
,-0.324,-0.533,0.925,948.059,675.354,979.736,0,0,0,
,-0.324,-0.404,0.821,1173.95,607.91,1039.001,0,0,0,
,-0.286,-0.271,0.684,1196.045,493.835,974.67,0,0,0,
,-0.206,-0.537,0.543,926.635,373.474,699.096,0,0,0,
,-0.217,-1.139,0.602,480.041,220.581,382.69,0,0,0,
,-0.268,-1.612,0.772,30.883,70.983,111.328,0,0,0,
,-0.271,-1.393,0.913,-436.219,-82.947,-92.591,0,0,0,
,-0.32,-1.021,0.961,-586.548,-165.65,-317.933,0,0,0,
,-0.339,-0.928,0.933,-600.586,-219.178,-531.8,0,0,0,
,-0.354,-0.849,0.906,-667.176,-279.114,-693.848,0,0,0,
,-0.342,-0.686,0.88,-721.741,-323.365,-781.128,0,0,0,
,-0.305,-0.524,0.872,-674.622,-359.131,-804.444,0,0,0,
,-0.304,-0.358,0.842,-599.854,-380.005,-771.058,0,0,0,
,-0.321,-0.243,0.795,-534.485,-378.235,-713.501,0,0,0,
,-0.355,-0.148,0.743,-494.873,-348.267,-611.634,0,0,0,
,-0.378,-0.036,0.694,-437.073,-284.668,-490.479,0,0,0,
,-0.403,0.075,0.61,-362.244,-222.29,-332.642,0,0,0,
,-0.383,0.18,0.569,-250.611,-118.348,-139.649,0,0,0,
,-0.339,0.152,0.631,-56.885,2.38,60.974,0,0,0,
,-0.278,-0.07,0.757,189.331,171.936,310.241,0,0,0,
,-0.269,-0.287,0.86,413.025,361.084,603.21,0,0,0,
,-0.266,-0.421,0.92,648.62,533.935,867.859,0,0,0,
,-0.285,-0.429,0.903,881.897,637.756,1076.843,0,0,0,
,-0.291,-0.418,0.778,981.689,632.263,1149.231,0,0,0,
,-0.243,-0.412,0.65,916.259,547.424,1115.234,0,0,0,
,-0.187,-0.641,0.634,709.9,462.646,936.096,0,0,0,
,-0.178,-1.139,0.673,394.104,351.379,687.439,0,0,0,
,-0.177,-1.299,0.815,47.424,225.097,436.279,0,0,0,
,-0.202,-1.239,0.931,-195.618,114.074,184.631,0,0,0,
,-0.238,-1.139,0.949,-292.908,22.583,-96.68,0,0,0,
,-0.287,-1.104,0.905,-378.052,-65.796,-348.267,0,0,0,
,-0.314,-1.066,0.878,-456.36,-155.274,-582.703,0,0,0,
,-0.295,-0.97,0.874,-568.726,-247.437,-737,0,0,0,
,-0.287,-0.8,0.92,-627.442,-342.896,-853.089,0,0,0,
,-0.251,-0.601,0.924,-633.973,-402.222,-920.533,0,0,0,
,-0.263,-0.421,0.874,-688.66,-446.289,-947.388,0,0,0,
,-0.283,-0.225,0.83,-750.611,-467.896,-910.523,0,0,0,
,-0.303,-0.08,0.774,-758.606,-461.365,-823.731,0,0,0,
,-0.322,0.003,0.719,-689.209,-428.711,-688.355,0,0,0,
,-0.329,0.093,0.66,-511.597,-361.756,-483.826,0,0,0,
,-0.347,0.189,0.608,-263.245,-247.437,-261.048,0,0,0,
,-0.326,0.173,0.615,-38.086,-81.91,5.432,0,0,0,
,-0.294,0.066,0.673,191.406,106.262,269.897,0,0,0,
,-0.276,-0.066,0.746,418.701,324.829,557.251,0,0,0,
,-0.271,-0.222,0.815,640.625,522.033,805.603,0,0,0,
,-0.24,-0.304,0.86,887.939,663.818,979.675,0,0,0,
,-0.228,-0.369,0.844,1007.141,689.758,1033.63,0,0,0,
,-0.201,-0.627,0.843,925.415,623.779,945.617,0,0,0,
,-0.193,-1.021,0.795,563.11,474.792,723.938,0,0,0,
,-0.224,-1.357,0.836,79.223,302.673,450.805,0,0,0,
,-0.264,-1.446,0.963,-364.136,98.571,124.389,0,0,0,
,-0.303,-1.243,1.066,-602.662,-71.045,-177.185,0,0,0,
,-0.337,-1.048,1.081,-664.612,-213.807,-435.73,0,0,0,
,-0.344,-0.873,1.031,-720.581,-358.582,-672.242,0,0,0,
,-0.331,-0.723,0.949,-777.039,-461.06,-845.215,0,0,0,
,-0.312,-0.569,0.897,-796.021,-558.472,-916.993,0,0,0,
,-0.286,-0.352,0.874,-799.256,-617.737,-919.922,0,0,0,
,-0.303,-0.097,0.833,-737.549,-636.78,-864.808,0,0,0,
,-0.331,0.068,0.754,-578.003,-615.54,-786.499,0,0,0,
,-0.335,0.161,0.678,-316.346,-553.467,-673.218,0,0,0,
,-0.357,0.191,0.621,-43.702,-450.013,-505.31,0,0,0,
,-0.375,0.201,0.575,206.726,-321.351,-314.454,0,0,0,
,-0.372,0.179,0.546,371.154,-150.94,-97.84,0,0,0,
,-0.367,0.08,0.583,437.622,33.508,138.427,0,0,0,
,-0.342,-0.234,0.772,694.641,609.802,782.409,0,0,0,
,-0.349,-0.328,0.831,894.592,695.495,905.151,0,0,0,
,-0.329,-0.479,0.853,1047.729,685.241,925.537,0,0,0,
,-0.324,-0.724,0.9,1123.352,601.806,857.91,0,0,0,
,-0.312,-1.028,0.921,1074.157,473.632,713.195,0,0,0,
,-0.331,-1.21,0.907,822.204,303.772,502.563,0,0,0,
,-0.35,-1.406,0.912,416.137,155.456,238.037,0,0,0,
,-0.361,-1.454,0.929,-88.257,9.643,-30.274,0,0,0,
,-0.362,-1.226,0.915,-555.787,-132.081,-306.458,0,0,0,
,-0.344,-0.969,0.904,-827.21,-239.075,-530.091,0,0,0,
,-0.334,-0.767,0.869,-915.955,-357.117,-717.957,0,0,0,
,-0.337,-0.554,0.827,-851.624,-448.853,-808.472,0,0,0,
,-0.339,-0.343,0.773,-682.618,-504.944,-825.806,0,0,0,
,-0.324,-0.185,0.731,-523.194,-509.217,-776.062,0,0,0,
,-0.33,-0.052,0.667,-371.216,-475.464,-682.862,0,0,0,
,-0.323,0.06,0.609,-189.759,-391.846,-545.96,0,0,0,
,-0.326,0.096,0.559,-35.218,-263.916,-359.253,0,0,0,
,-0.31,0.094,0.549,51.147,-123.475,-149.842,0,0,0,
,-0.263,0.007,0.623,84.716,59.936,104.126,0,0,0,
,-0.243,-0.111,0.727,149.047,257.385,371.093,0,0,0,
,-0.255,-0.277,0.832,246.46,481.811,656.311,0,0,0,
,-0.247,-0.382,0.9,383.056,654.174,867.675,0,0,0,
,-0.269,-0.366,0.928,652.221,719.726,986.267,0,0,0,
,-0.286,-0.352,0.794,848.632,695.129,1014.099,0,0,0,
,-0.242,-0.422,0.625,899.109,608.337,896.057,0,0,0,
,-0.194,-0.875,0.632,752.136,455.383,622.253,0,0,0,
,-0.208,-1.385,0.86,534.79,287.719,450.073,0,0,0,
,-0.306,-1.566,0.838,91.674,153.198,178.283,0,0,0,
,-0.24,-1.381,0.876,-519.593,0.488,-105.713,0,0,0,
,-0.244,-1.146,0.953,-765.198,-161.56,-333.069,0,0,0,
,-0.284,-0.998,0.928,-869.324,-299.5,-598.511,0,0,0,
,-0.285,-0.815,0.885,-932.312,-446.839,-777.222,0,0,0,
,-0.328,-0.546,0.862,-866.639,-554.017,-879.517,0,0,0,
,-0.345,-0.382,0.841,-731.629,-614.685,-943.36,0,0,0,
,-0.341,-0.253,0.78,-672.73,-630.799,-932.557,0,0,0,
,-0.389,-0.053,0.683,-558.899,-605.896,-871.644,0,0,0,
,-0.411,0.01,0.672,-391.419,-536.927,-787.415,0,0,0,
,-0.39,-0.04,0.698,-138.733,-431.641,-614.502,0,0,0,
,-0.392,-0.042,0.67,43.273,-281.128,-393.189,0,0,0,
,-0.367,0.068,0.695,57.678,-86.487,-124.207,0,0,0,
,-0.35,0.099,0.76,172.912,133.361,149.597,0,0,0,
,-0.311,0.006,0.852,364.746,375.732,450.561,0,0,0,
,-0.279,-0.115,0.927,609.863,556.64,704.528,0,0,0,
,-0.261,-0.29,0.896,868.103,649.17,864.013,0,0,0,
,-0.269,-0.42,0.831,1029.052,608.825,894.47,0,0,0,
,-0.273,-0.668,0.789,1034.118,493.469,790.527,0,0,0,
,-0.298,-1.034,0.808,832.336,325.683,644.775,0,0,0,
,-0.338,-1.305,0.84,494.384,176.147,429.077,0,0,0,
,-0.365,-1.339,0.902,71.167,27.343,175.842,0,0,0,
,-0.395,-1.293,0.9,-273.743,-63.294,-89.6,0,0,0,
,-0.397,-1.196,0.875,-633.851,-151.673,-324.341,0,0,0,
,-0.403,-1.005,0.836,-906.678,-240.723,-536.499,0,0,0,
,-0.404,-0.811,0.794,-1126.587,-326.172,-700.989,0,0,0,
,-0.391,-0.537,0.794,-1130.249,-415.894,-778.992,0,0,0,
,-0.378,-0.308,0.782,-962.952,-455.994,-803.284,0,0,0,
,-0.343,-0.112,0.759,-733.277,-458.252,-769.654,0,0,0,
,-0.341,0.037,0.759,-532.898,-411.927,-665.589,0,0,0,
,-0.325,0.108,0.726,-365.662,-345.093,-538.147,0,0,0,
,-0.339,0.145,0.684,-187.867,-250.245,-358.033,0,0,0,
,-0.325,0.176,0.619,-33.692,-141.419,-148.438,0,0,0,
,-0.316,0.196,0.581,68.42,-16.602,54.443,0,0,0,
,-0.31,0.135,0.619,183.838,133.117,270.324,0,0,0,
,-0.334,-0.018,0.711,317.382,302.551,490.417,0,0,0,
,-0.335,-0.146,0.746,463.195,472.229,698.669,0,0,0,
,-0.33,-0.214,0.746,638.244,602.844,863.037,0,0,0,
,-0.318,-0.322,0.746,807.251,672.79,963.623,0,0,0,
,-0.316,-0.501,0.776,893.432,685.791,991.577,0,0,0,
,-0.305,-0.74,0.821,932.8,657.287,968.078,0,0,0,
,-0.299,-0.955,0.909,903.381,580.627,886.23,0,0,0,
,-0.28,-1.085,0.939,826.11,509.155,773.01,0,0,0,
,-0.252,-1.15,0.872,729.37,386.657,543.274,0,0,0,
,-0.248,-1.113,0.765,505.493,284.729,294.616,0,0,0,
,-0.215,-1.243,0.729,148.925,185.302,68.969,0,0,0,
,-0.177,-1.285,0.789,-160.95,52.734,-185.914,0,0,0,
,-0.154,-1.197,0.877,-493.836,-86.548,-398.377,0,0,0,
,-0.109,-0.925,0.936,-622.254,-234.253,-611.329,0,0,0,
,-0.135,-0.645,0.887,-620.484,-335.328,-769.288,0,0,0,
,-0.164,-0.538,0.817,-688.294,-419.617,-853.089,0,0,0,
,-0.191,-0.43,0.791,-773.56,-468.873,-861.329,0,0,0,
,-0.193,-0.285,0.759,-905.03,-487.61,-807.862,0,0,0,
,-0.205,-0.075,0.709,-922.73,-462.647,-675.354,0,0,0,
,-0.262,0.109,0.644,-796.57,-396.546,-497.315,0,0,0,
,-0.301,0.207,0.607,-560.486,-281.556,-284.852,0,0,0,
,-0.292,0.158,0.675,-204.956,-124.756,-36.011,0,0,0,
,-0.277,-0.02,0.805,194.702,83.252,213.073,0,0,0,
,-0.266,-0.244,0.895,548.462,295.898,503.601,0,0,0,
,-0.276,-0.367,0.926,896.24,460.937,743.164,0,0,0,
,-0.254,-0.421,0.936,1187.255,528.259,906.799,0,0,0,
,-0.266,-0.388,0.783,1428.222,537.231,934.204,0,0,0,
,-0.226,-0.384,0.594,1468.017,480.468,800.781,0,0,0,
,-0.172,-0.904,0.458,1264.16,393.676,533.813,0,0,0,
,-0.166,-1.54,0.487,820.068,234.375,292.053,0,0,0,
,-0.167,-1.646,0.627,180.725,48.706,60.241,0,0,0,
,-0.224,-1.408,0.774,-457.581,-54.993,-187.745,0,0,0,
,-0.234,-1.199,0.834,-774.537,-142.212,-475.586,0,0,0,
,-0.256,-1.103,0.835,-999.817,-211.487,-702.21,0,0,0,
,-0.254,-0.95,0.794,-1168.091,-279.175,-848.023,0,0,0,
,-0.261,-0.683,0.776,-1249.756,-340.943,-888.794,0,0,0,
,-0.263,-0.205,0.854,-1067.627,-404.48,-812.317,0,0,0,
,-0.251,-0.062,0.886,-857.544,-394.654,-724.549,0,0,0,
,-0.24,0.058,0.842,-576.05,-352.723,-600.159,0,0,0,
,-0.254,0.103,0.781,-337.525,-304.627,-443.97,0,0,0,
,-0.266,0.093,0.716,-185.059,-241.028,-298.89,0,0,0,
,-0.31,0.135,0.651,-147.95,-156.922,-122.376,0,0,0,
,-0.309,0.147,0.637,-135.621,-39.795,53.039,0,0,0,
,-0.342,0.031,0.711,-100.159,112.976,268.432,0,0,0,
,-0.365,-0.114,0.807,-0.55,288.33,490.112,0,0,0,
,-0.353,-0.21,0.874,211.853,448.12,702.697,0,0,0,
,-0.363,-0.183,0.863,563.11,555.969,862.854,0,0,0,
,-0.306,-0.299,0.821,905.639,581.482,911.316,0,0,0,
,-0.269,-0.493,0.805,1106.323,519.958,886.474,0,0,0,
,-0.242,-0.809,0.815,1178.65,418.823,792.419,0,0,0,
,-0.249,-1.134,0.84,1073.547,297.119,641.601,0,0,0,
,-0.269,-1.357,0.86,794.067,181.335,427.49,0,0,0,
,-0.287,-1.434,0.885,391.601,76.721,182.19,0,0,0,
,-0.296,-1.409,0.913,-27.222,-5.31,-100.892,0,0,0,
,-0.284,-1.269,0.9,-437.073,-81.36,-361.451,0,0,0,
,-0.28,-1.089,0.868,-775.757,-153.016,-595.52,0,0,0,
,-0.257,-0.899,0.838,-1055.726,-217.835,-755.433,0,0,0,
,-0.225,-0.158,0.839,-1031.067,-383.789,-761.231,0,0,0,
,-0.229,0.015,0.809,-742.371,-369.08,-663.392,0,0,0,
,-0.247,0.106,0.753,-379.456,-303.223,-512.818,0,0,0,
,-0.25,0.191,0.676,-42.603,-195.374,-305.237,0,0,0,
,-0.26,0.221,0.631,194.763,-58.96,-78.614,0,0,0,
,-0.234,-0.236,0.893,589.538,481.689,674.56,0,0,0,
,-0.233,-0.325,0.962,839.233,600.463,869.323,0,0,0,
,-0.23,-0.33,0.894,1122.192,610.351,927.185,0,0,0,
,-0.197,-0.317,0.742,1371.765,510.254,883.789,0,0,0,
,-0.181,-0.613,0.658,1437.133,385.131,741.516,0,0,0,
,-0.251,-1.541,0.747,51.879,-25.879,55.969,0,0,0,
,-0.274,-1.391,0.786,-400.025,-126.954,-243.164,0,0,0,
,-0.306,-1.175,0.822,-674.622,-175.965,-479.126,0,0,0,
,-0.297,-1.022,0.822,-925.843,-212.891,-693.909,0,0,0,
,-0.292,-0.842,0.769,-1112.671,-256.592,-820.13,0,0,0,
,-0.277,-0.648,0.752,-1177.796,-302.124,-862,0,0,0,
,-0.264,-0.441,0.759,-1132.142,-345.276,-837.586,0,0,0,
,-0.251,-0.209,0.791,-1005.188,-381.165,-790.467,0,0,0,
,-0.245,-0.003,0.823,-799.378,-382.203,-713.501,0,0,0,
,-0.236,0.054,0.786,-580.75,-359.498,-615.723,0,0,0,
,-0.254,0.105,0.736,-364.685,-302.308,-449.463,0,0,0,
,-0.264,0.169,0.668,-199.219,-218.14,-256.226,0,0,0,
,-0.263,0.157,0.686,-36.744,-90.332,-37.049,0,0,0,
,-0.253,0.045,0.766,137.512,84.228,225.036,0,0,0,
,-0.262,-0.068,0.834,346.618,258.545,476.989,0,0,0,
,-0.275,-0.257,0.898,588.562,453.003,728.515,0,0,0,
,-0.261,-0.324,0.893,869.629,553.772,905.456,0,0,0,
,-0.261,-0.357,0.847,1156.677,566.772,967.59,0,0,0,
,-0.213,-0.441,0.759,1373.535,495.544,938.964,0,0,0,
,-0.193,-0.712,0.698,1428.711,385.437,836.609,0,0,0,
,-0.206,-1.197,0.652,1154.052,293.579,666.687,0,0,0,
,-0.213,-1.589,0.849,174.377,133.606,249.45,0,0,0,
,-0.182,-1.336,0.796,-195.984,79.467,-1.526,0,0,0,
,-0.173,-1.001,0.704,-508.851,17.395,-238.16,0,0,0,
,-0.191,-0.994,0.665,-684.571,-44.373,-512.574,0,0,0,
,-0.181,-1.007,0.742,-849.61,-139.771,-687.5,0,0,0,
,-0.189,-0.559,0.852,-928.589,-265.259,-816.834,0,0,0,
,-0.189,-0.325,0.834,-857.239,-299.5,-812.073,0,0,0,
,-0.194,-0.136,0.798,-776.246,-313.233,-759.461,0,0,0,
,-0.21,0.022,0.733,-674.622,-308.106,-666.81,0,0,0,
,-0.251,0.177,0.648,-530.213,-265.686,-502.686,0,0,0,
,-0.275,0.261,0.58,-461.792,-190.491,-313.294,0,0,0,
,-0.237,0.28,0.608,-476.014,-67.749,-88.868,0,0,0,
,-0.196,0.169,0.815,-371.46,106.445,149.597,0,0,0,
,-0.199,-0.126,1.006,-54.2,370.056,415.771,0,0,0,
,-0.238,-0.391,1.089,359.375,636.779,699.768,0,0,0,
,-0.244,-0.399,1.069,876.587,784.668,901.123,0,0,0,
,-0.192,-0.231,0.854,1370.483,758.056,985.29,0,0,0,
,-0.089,-0.281,0.645,1686.035,585.022,873.108,0,0,0,
,-0.173,-1.776,0.778,669.067,32.47,175.537,0,0,0,
,-0.209,-1.665,0.868,-208.802,-108.582,-176.88,0,0,0,
,-0.232,-1.242,0.916,-615.845,-184.144,-465.394,0,0,0,
,-0.252,-1.036,0.878,-852.845,-235.718,-681.702,0,0,0,
,-0.233,-0.898,0.843,-1083.619,-305.603,-866.944,0,0,0,
,-0.214,-0.713,0.835,-1253.602,-376.893,-937.012,0,0,0,
,-0.178,-0.455,0.834,-1240.906,-430.176,-909.913,0,0,0,
,-0.165,-0.199,0.819,-1014.1,-472.29,-822.449,0,0,0,
,-0.194,0.012,0.776,-603.882,-454.651,-681.275,0,0,0,
,-0.23,0.038,0.73,-186.219,-396.424,-540.589,0,0,0,
,-0.245,0.035,0.665,160.705,-304.749,-338.807,0,0,0,
,-0.225,0.032,0.632,692.749,-48.157,127.99,0,0,0,
,-0.228,-0.175,0.688,861.145,126.526,409.668,0,0,0,
,-0.215,-0.356,0.765,922.729,282.837,660.339,0,0,0,
,-0.209,-0.419,0.802,967.773,411.438,878.173,0,0,0,
,-0.209,-0.46,0.783,1047.119,461.12,988.037,0,0,0,
,-0.194,-0.548,0.704,1048.889,440.185,966.613,0,0,0,
,-0.145,-0.804,0.653,930.786,371.765,849.121,0,0,0,
,-0.114,-1.097,0.635,714.66,266.906,677.002,0,0,0,
,-0.14,-1.304,0.659,444.824,140.136,453.491,0,0,0,
,-0.168,-1.41,0.694,180.908,33.63,195.068,0,0,0,
,-0.212,-1.412,0.724,-83.741,-52.918,-75.623,0,0,0,
,-0.259,-1.362,0.735,-302.796,-111.39,-360.047,0,0,0,
,-0.268,-1.254,0.737,-509.156,-154.908,-603.394,0,0,0,
,-0.261,-1.054,0.74,-730.53,-189.27,-796.692,0,0,0,
,-0.256,-0.873,0.733,-949.707,-220.093,-924.317,0,0,0,
,-0.238,-0.667,0.754,-1112.671,-244.629,-975.342,0,0,0,
,-0.228,-0.478,0.759,-1202.393,-261.78,-952.881,0,0,0,
,-0.2,-0.261,0.731,-1179.444,-278.26,-866.394,0,0,0,
,-0.194,-0.058,0.682,-1009.461,-293.03,-708.13,0,0,0,
,-0.221,0.093,0.667,-612.671,-264.954,-502.503,0,0,0,
,-0.255,0.126,0.656,-114.38,-184.021,-230.164,0,0,0,
,-0.247,0.006,0.698,232.483,-80.323,31.005,0,0,0,
,-0.269,-0.135,0.76,480.957,70.251,326.843,0,0,0,
,-0.266,-0.282,0.833,654.419,213.623,602.111,0,0,0,
,-0.292,-0.506,0.876,813.903,370.239,829.651,0,0,0,
,-0.273,-0.689,0.868,953.857,447.754,987.426,0,0,0,
,-0.263,-0.504,0.777,1172.546,414.917,1017.883,0,0,0,
,-0.123,-1.178,0.528,870.544,186.767,487.121,0,0,0,
,-0.187,-1.566,0.588,347.534,135.986,205.749,0,0,0,
,-0.149,-1.555,0.596,-298.34,74.646,-97.168,0,0,0,
,-0.172,-1.375,0.679,-688.904,-5.799,-374.085,0,0,0,
,-0.19,-1.159,0.727,-891.785,-67.627,-619.446,0,0,0,
,-0.196,-0.943,0.741,-1046.814,-132.508,-800.843,0,0,0,
,-0.201,-0.718,0.729,-1176.575,-194.642,-901.673,0,0,0,
,-0.201,-0.546,0.752,-1245.484,-237.671,-919.251,0,0,0,
,-0.192,-0.384,0.788,-1261.597,-280.213,-856.629,0,0,0,
,-0.2,-0.252,0.778,-1288.147,-253.235,-729.676,0,0,0,
,-0.209,-0.109,0.714,-1285.035,-215.76,-543.274,0,0,0,
,-0.199,0.052,0.665,-1177.674,-135.865,-341.37,0,0,0,
,-0.197,0.209,0.66,-833.558,-13.306,-98.816,0,0,0,
,-0.181,0.14,0.755,-374.939,142.517,136.047,0,0,0,
,-0.192,-0.042,0.856,174.377,354.98,392.212,0,0,0,
,-0.199,-0.159,0.939,678.039,533.935,624.023,0,0,0,
,-0.137,-0.345,0.687,1999.694,456.848,862.121,0,0,0,
,-0.125,-0.719,0.61,1999.694,286.865,732.544,0,0,0,
,-0.194,-1.429,0.511,1688.842,159.362,560.608,0,0,0,
,-0.152,-1.68,0.596,395.752,26.672,227.905,0,0,0,
,-0.215,-1.591,0.784,-423.89,-90.943,-146.729,0,0,0,
,-0.215,-1.412,0.889,-845.398,-152.955,-438.599,0,0,0,
,-0.227,-1.122,0.901,-1054.261,-218.018,-668.763,0,0,0,
,-0.259,-0.853,0.869,-1164.429,-276.368,-799.805,0,0,0,
,-0.276,-0.697,0.821,-1219.178,-339.783,-879.822,0,0,0,
,-0.269,-0.553,0.793,-1164.795,-381.775,-871.705,0,0,0,
,-0.269,-0.451,0.805,-988.038,-400.574,-804.566,0,0,0,
,-0.265,-0.315,0.821,-699.28,-387.391,-682.74,0,0,0,
,-0.28,-0.201,0.807,-378.54,-329.102,-564.82,0,0,0,
,-0.282,-0.128,0.735,-151.856,-257.996,-437.195,0,0,0,
,-0.279,-0.066,0.669,-46.631,-193.482,-307.373,0,0,0,
,-0.261,-0.089,0.632,-39.368,-108.033,-157.349,0,0,0,
,-0.243,-0.071,0.637,-30.762,-33.448,10.864,0,0,0,
,-0.252,-0.066,0.67,40.161,71.167,153.381,0,0,0,
,-0.254,-0.023,0.723,205.2,168.945,320.312,0,0,0,
,-0.248,-0.087,0.74,424.133,257.69,479.98,0,0,0,
,-0.2,-0.462,0.802,711.731,425.171,850.463,0,0,0,
,-0.18,-0.657,0.805,917.907,391.174,873.413,0,0,0,
,-0.157,-0.842,0.78,1077.942,320.984,827.88,0,0,0,
,-0.167,-1.101,0.751,1038.452,221.618,713.745,0,0,0,
,-0.157,-1.339,0.735,743.347,135.376,522.644,0,0,0,
,-0.18,-1.509,0.744,316.833,63.964,259.765,0,0,0,
,-0.196,-1.514,0.774,-56.397,10.925,-30.091,0,0,0,
,-0.205,-1.462,0.805,-314.576,-42.359,-319.092,0,0,0,
,-0.205,-1.331,0.799,-481.324,-92.652,-606.141,0,0,0,
,-0.218,-1.156,0.803,-634.278,-147.583,-834.778,0,0,0,
,-0.212,-0.923,0.798,-757.447,-225.098,-1032.532,0,0,0,
,-0.149,-0.179,0.73,-1252.259,-390.381,-1038.208,0,0,0,
,-0.177,0.036,0.698,-1159.485,-388.916,-851.746,0,0,0,
,-0.198,0.15,0.653,-885.743,-330.14,-590.821,0,0,0,
,-0.222,0.183,0.618,-522.828,-209.168,-291.504,0,0,0,
,-0.215,0.149,0.65,-101.014,-23.987,35.461,0,0,0,
,-0.221,0.054,0.738,345.276,190.918,388.733,0,0,0,
,-0.248,-0.135,0.794,762.451,417.602,682.373,0,0,0,
,-0.255,-0.325,0.822,1093.933,589.538,929.87,0,0,0,
,-0.243,-0.423,0.752,1413.269,629.882,1041.259,0,0,0,
,-0.173,-0.483,0.65,1636.23,520.752,992.553,0,0,0,
,-0.187,-0.708,0.635,1682.556,394.775,878.418,0,0,0,
,-0.193,-1.011,0.572,1349.975,297.485,765.136,0,0,0,
,-0.153,-1.296,0.585,732.544,195.984,466.552,0,0,0,
,-0.194,-1.522,0.632,144.287,122.558,165.954,0,0,0,
,-0.197,-1.511,0.642,-274.292,56.823,-141.846,0,0,0,
,-0.171,-1.215,0.592,-603.333,-9.217,-395.142,0,0,0,
,-0.195,-0.959,0.582,-832.459,-83.13,-595.459,0,0,0,
,-0.237,-0.855,0.675,-990.479,-145.569,-765.076,0,0,0,
,-0.253,-0.766,0.76,-1064.637,-177.185,-880.677,0,0,0,
,-0.246,-0.629,0.839,-1100.77,-187.745,-898.926,0,0,0,
,-0.212,-0.424,0.872,-1047.486,-182.129,-857.789,0,0,0,
,-0.203,-0.235,0.864,-883.912,-157.959,-750.245,0,0,0,
,-0.211,-0.099,0.812,-692.566,-128.174,-577.332,0,0,0,
,-0.168,0.162,0.832,-116.394,72.509,124.633,0,0,0,
,-0.151,0.016,0.928,191.467,185.974,390.503,0,0,0,
,-0.144,-0.148,0.963,498.108,295.654,638.855,0,0,0,
,-0.136,-0.295,0.941,765.319,369.323,852.417,0,0,0,
,-0.141,-0.343,0.834,1018.127,372.863,949.279,0,0,0,
,-0.136,-0.47,0.726,1301.818,307.739,957.946,0,0,0,
,-0.148,-0.686,0.644,1414.611,189.453,936.584,0,0,0,
,-0.144,-0.955,0.621,1346.801,82.946,810.608,0,0,0,
,-0.194,-1.24,0.581,1043.579,-9.705,616.516,0,0,0,
,-0.202,-1.506,0.618,623.718,-85.022,377.136,0,0,0,
,-0.225,-1.561,0.692,255.615,-144.165,103.82,0,0,0,
,-0.229,-1.458,0.701,36.682,-173.706,-187.745,0,0,0,
,-0.212,-1.303,0.688,-186.341,-202.332,-443.543,0,0,0,
,-0.207,-1.191,0.715,-412.354,-208.741,-685.12,0,0,0,
,-0.193,-1.1,0.725,-651.612,-205.75,-858.948,0,0,0,
,-0.178,-0.938,0.735,-876.16,-216.431,-949.83,0,0,0,
,-0.156,-0.75,0.732,-1063.172,-236.878,-971.802,0,0,0,
,-0.145,-0.543,0.753,-1169.739,-259.949,-940.308,0,0,0,
,-0.137,-0.071,0.703,-1179.81,-285.218,-603.638,0,0,0,
,-0.156,0.054,0.63,-1016.114,-254.456,-418.396,0,0,0,
,-0.17,0.182,0.594,-706.604,-166.81,-183.35,0,0,0,
,-0.18,0.155,0.631,-289.124,-29.969,80.871,0,0,0,
,-0.193,0.002,0.7,191.833,156.128,347.534,0,0,0,
,-0.226,-0.324,0.745,1434.509,577.026,1026.55,0,0,0,
,-0.177,-0.356,0.677,1802.063,545.959,1085.022,0,0,0,
,-0.163,-0.581,0.604,1968.139,467.468,1066.406,0,0,0,
,-0.134,-0.904,0.513,1858.764,352.966,932.067,0,0,0,
,-0.134,-1.187,0.482,1376.648,223.571,745.178,0,0,0,
,-0.148,-1.417,0.502,838.562,118.957,483.032,0,0,0,
,-0.186,-1.581,0.585,202.209,72.57,205.993,0,0,0,
,-0.214,-1.561,0.667,-339.051,17.028,-100.037,0,0,0,
,-0.219,-1.429,0.746,-594.605,-31.434,-384.156,0,0,0,
,-0.219,-1.266,0.772,-692.444,-86.121,-616.761,0,0,0,
,-0.202,-1.081,0.772,-740.54,-154.725,-810.364,0,0,0,
,-0.198,-0.963,0.768,-794.434,-203.858,-945.435,0,0,0,
,-0.187,-0.831,0.756,-905.762,-273.621,-1027.588,0,0,0,
,-0.187,-0.676,0.765,-1030.091,-337.769,-1056.824,0,0,0,
,-0.193,-0.488,0.783,-1132.508,-395.997,-1037.903,0,0,0,
,-0.199,-0.328,0.797,-1237.916,-438.294,-970.154,0,0,0,
,-0.183,-0.2,0.775,-1307.862,-447.327,-879.883,0,0,0,
,-0.21,-0.062,0.702,-1297.12,-438.538,-732.85,0,0,0,
,-0.229,0.076,0.608,-1173.768,-393.311,-570.862,0,0,0,
,-0.294,0.176,0.532,-967.957,-296.204,-362,0,0,0,
,-0.313,0.101,0.561,-681.031,-179.505,-129.639,0,0,0,
,-0.338,-0.004,0.649,-285.401,3.173,108.581,0,0,0,
,-0.328,-0.125,0.737,103.82,195.617,372.863,0,0,0,
,-0.346,-0.254,0.802,531.494,408.935,636.23,0,0,0,
,-0.317,-0.315,0.844,939.026,552.49,855.285,0,0,0,
,-0.271,-0.361,0.845,1406.067,599.914,964.66,0,0,0,
,-0.228,-0.519,0.783,1815.307,535.705,968.933,0,0,0,
,-0.194,-0.679,0.683,1938.476,414.795,892.7,0,0,0,
,-0.243,-0.939,0.59,1715.454,271.301,790.344,0,0,0,
,-0.184,-1.172,0.61,1158.63,154.419,558.349,0,0,0,
,-0.229,-1.43,0.661,486.694,79.467,286.255,0,0,0,
,-0.236,-1.542,0.724,-171.082,-1.648,-35.096,0,0,0,
,-0.263,-1.37,0.812,-576.844,-68.97,-313.355,0,0,0,
,-0.292,-1.173,0.833,-806.946,-128.235,-565.308,0,0,0,
,-0.299,-0.988,0.839,-953.003,-177.857,-762.635,0,0,0,
,-0.312,-0.814,0.834,-1090.76,-223.877,-892.456,0,0,0,
,-0.304,-0.66,0.813,-1211.853,-270.813,-962.159,0,0,0,
,-0.291,-0.532,0.774,-1346.68,-311.036,-952.637,0,0,0,
,-0.27,-0.346,0.746,-1453.309,-336.67,-882.142,0,0,0,
,-0.276,-0.119,0.735,-1391.297,-353.272,-752.076,0,0,0,
,-0.31,0.104,0.711,-1100.892,-318.543,-595.704,0,0,0,
,-0.328,0.211,0.65,-718.811,-235.962,-393.494,0,0,0,
,-0.307,0.225,0.643,-307.373,-94.605,-138.123,0,0,0,
,-0.275,0.193,0.609,13.427,80.749,136.413,0,0,0,
,-0.236,0.104,0.669,337.524,276.55,408.508,0,0,0,
,-0.243,-0.131,0.763,648.315,508.3,705.505,0,0,0,
,-0.227,-0.265,0.867,882.812,686.706,956.298,0,0,0,
,-0.221,-0.27,0.898,1226.745,777.526,1108.825,0,0,0,
,-0.176,-0.295,0.822,1597.9,742.797,1127.441,0,0,0,
,-0.134,-0.398,0.691,1936.096,586.303,1039.856,0,0,0,
,-0.139,-0.8,0.553,1900.085,410.644,873.84,0,0,0,
,-0.131,-1.296,0.604,1372.558,233.886,643.859,0,0,0,
,-0.167,-1.599,0.648,597.9,93.078,387.146,0,0,0,
,-0.208,-1.633,0.753,-98.023,-3.357,43.151,0,0,0,
,-0.245,-1.449,0.875,-555.726,-92.713,-267.029,0,0,0,
,-0.289,-1.264,0.865,-838.807,-144.165,-546.875,0,0,0,
,-0.292,-1.096,0.834,-1098.145,-206.727,-763.184,0,0,0,
,-0.296,-0.859,0.842,-1250,-270.935,-930.909,0,0,0,
,-0.291,-0.698,0.832,-1345.459,-320.435,-993.226,0,0,0,
,-0.252,-0.514,0.815,-1403.016,-372.071,-991.517,0,0,0,
,-0.232,-0.252,0.79,-1390.87,-405.396,-921.265,0,0,0,
,-0.236,-0.106,0.776,-1319.947,-418.641,-820.618,0,0,0,
,-0.246,0.007,0.77,-1180.298,-414.49,-696.228,0,0,0,
,-0.255,0.1,0.737,-957.093,-373.414,-536.377,0,0,0,
,-0.249,0.171,0.676,-656.373,-306.824,-354.798,0,0,0,
,-0.254,0.22,0.659,-189.27,-206.727,-146.241,0,0,0,
,-0.234,0.229,0.647,306.701,-72.632,89.904,0,0,0,
,-0.212,0.168,0.627,580.505,69.397,303.894,0,0,0,
,-0.241,0.007,0.687,726.928,242.92,549.926,0,0,0,
,-0.271,-0.24,0.83,787.475,390.258,779.48,0,0,0,
,-0.261,-0.474,0.896,1266.113,511.963,1026.001,0,0,0,
,-0.261,-1.159,0.811,910.217,140.258,597.473,0,0,0,
,-0.272,-1.279,0.821,629.15,81.543,337.036,0,0,0,
,-0.288,-1.337,0.798,266.906,34.729,75.134,0,0,0,
,-0.28,-1.316,0.781,-96.68,-7.447,-204.041,0,0,0,
,-0.278,-1.219,0.813,-445.374,-59.51,-440.43,0,0,0,
,-0.253,-1.109,0.832,-764.1,-107.727,-664.124,0,0,0,
,-0.231,-0.945,0.835,-1023.194,-166.443,-825.074,0,0,0,
,-0.216,-0.751,0.84,-1230.103,-236.451,-915.039,0,0,0,
,-0.196,-0.575,0.832,-1398.499,-308.838,-957.337,0,0,0,
,-0.191,-0.361,0.803,-1540.04,-365.357,-934.937,0,0,0,
,-0.181,-0.141,0.779,-1580.872,-409.302,-875,0,0,0,
,-0.205,0.011,0.739,-1524.72,-435.547,-783.204,0,0,0,
,-0.219,0.117,0.7,-1339.051,-437.134,-643.189,0,0,0,
,-0.286,0.168,0.658,-33.753,33.63,72.265,0,0,0,
,-0.311,0.006,0.773,390.014,289.917,328.857,0,0,0,
,-0.326,-0.104,0.841,770.691,527.771,568.847,0,0,0,
,-0.328,-0.226,0.895,1151.611,743.225,810.119,0,0,0,
,-0.303,-0.297,0.9,1511.779,838.256,988.952,0,0,0,
,-0.262,-0.228,0.846,1932.495,804.748,1037.78,0,0,0,
,-0.217,-0.327,0.804,1999.694,661.377,1013.977,0,0,0,
,-0.193,-0.714,0.776,1999.694,519.165,939.331,0,0,0,
,-0.173,-1.094,0.844,1808.227,357.116,744.934,0,0,0,
,-0.204,-1.473,0.722,-567.933,74.523,-202.271,0,0,0,
,-0.22,-1.373,0.769,-1160.218,-59.51,-485.596,0,0,0,
,-0.198,-1.085,0.846,-1546.631,-191.895,-727.784,0,0,0,
,-0.213,-0.734,0.931,-1575.257,-315.064,-890.625,0,0,0,
,-0.231,-0.514,0.951,-1279.725,-434.388,-959.412,0,0,0,
,-0.244,-0.323,0.957,-878.479,-513.184,-969.3,0,0,0,
,-0.249,-0.246,0.908,-531.617,-552.369,-942.627,0,0,0,
,-0.249,-0.181,0.845,-359.742,-575.501,-871.521,0,0,0,
,-0.264,-0.072,0.797,-232.117,-577.088,-786.805,0,0,0,
,-0.304,-0.018,0.752,-159.058,-536.56,-658.814,0,0,0,
,-0.33,0.021,0.709,-171.57,-478.516,-509.217,0,0,0,
,-0.355,0.072,0.631,44.677,-48.157,134.948,0,0,0,
,-0.356,-0.082,0.671,229.309,179.87,428.222,0,0,0,
,-0.349,-0.222,0.745,469.665,393.798,700.073,0,0,0,
,-0.332,-0.332,0.787,742.614,586.059,950.805,0,0,0,
,-0.302,-0.355,0.788,1007.324,675.842,1089.721,0,0,0,
,-0.261,-0.446,0.717,1223.205,666.381,1116.821,0,0,0,
,-0.196,-0.558,0.663,1336.731,540.466,1015.625,0,0,0,
,-0.191,-0.877,0.71,1337.829,427.551,875.183,0,0,0,
,-0.158,-1.237,0.728,1054.809,285.095,624.511,0,0,0,
,-0.187,-1.386,0.749,694.763,159.973,330.566,0,0,0,
,-0.235,-1.342,0.807,-255.372,-30.457,-250.367,0,0,0,
,-0.277,-0.885,0.865,-1184.632,-252.076,-903.809,0,0,0,
,-0.266,-0.669,0.87,-1317.749,-329.529,-988.953,0,0,0,
,-0.25,-0.452,0.843,-1370.545,-392.09,-996.216,0,0,0,
,-0.241,-0.244,0.785,-1343.14,-447.205,-941.407,0,0,0,
,-0.308,0.042,0.734,-1005.188,-431.458,-657.227,0,0,0,
,-0.318,0.171,0.663,-693.604,-355.835,-455.811,0,0,0,
,-0.337,0.254,0.62,-375.794,-229.31,-235.047,0,0,0,
,-0.333,0.169,0.643,-28.748,-40.955,25.94,0,0,0,
,-0.313,-0.034,0.729,295.532,178.222,314.514,0,0,0,
,-0.306,-0.318,0.842,1163.635,712.829,979.065,0,0,0,
,-0.257,-0.197,0.705,1438.11,681.64,970.703,0,0,0,
,-0.202,-0.387,0.641,1619.751,577.453,848.877,0,0,0,
,-0.174,-0.821,0.625,1577.636,434.57,665.527,0,0,0,
,-0.203,-1.308,0.681,1226.501,295.41,447.082,0,0,0,
,-0.233,-1.545,0.756,571.411,165.344,195.8,0,0,0,
,-0.26,-1.473,0.808,-22.461,45.654,-107.666,0,0,0,
,-0.281,-1.246,0.89,-493.836,-50.293,-412.476,0,0,0,
,-0.3,-1.082,0.908,-862.122,-124.512,-673.706,0,0,0,
,-0.306,-0.926,0.912,-1208.985,-203.37,-867.92,0,0,0,
,-0.292,-0.707,0.914,-1472.962,-288.086,-956.055,0,0,0,
,-0.266,-0.469,0.898,-1568.787,-363.282,-953.431,0,0,0,
,-0.253,-0.254,0.889,-1528.687,-443.421,-875.611,0,0,0,
,-0.271,-0.074,0.865,-1307.19,-476.929,-759.888,0,0,0,
,-0.301,0.038,0.819,-1002.137,-486.084,-612.427,0,0,0,
,-0.312,0.157,0.761,-659.852,-462.098,-483.155,0,0,0,
,-0.333,0.204,0.696,-304.932,-394.898,-327.881,0,0,0,
,-0.356,0.177,0.616,-36.499,-291.504,-152.955,0,0,0,
,-0.361,0.104,0.568,102.417,-141.053,43.64,0,0,0,
,-0.35,0.051,0.553,163.94,30.883,230.346,0,0,0,
,-0.33,-0.013,0.614,249.572,238.098,434.082,0,0,0,
,-0.335,-0.097,0.699,444.336,434.082,649.597,0,0,0,
,-0.316,-0.227,0.769,688.171,626.342,825.744,0,0,0,
,-0.288,-0.292,0.812,988.83,730.468,947.265,0,0,0,
,-0.259,-0.377,0.805,1364.013,733.52,997.009,0,0,0,
,-0.203,-0.565,0.763,1626.892,623.413,961.486,0,0,0,
,-0.19,-0.855,0.734,1684.448,482.055,857.177,0,0,0,
,-0.19,-1.11,0.766,1367.553,301.33,678.772,0,0,0,
,-0.208,-1.33,0.87,856.262,177.368,418.701,0,0,0,
,-0.238,-1.411,0.92,225.769,78.247,144.775,0,0,0,
,-0.256,-1.35,0.971,-348.023,-7.325,-152.039,0,0,0,
,-0.287,-1.246,0.973,-713.257,-65.064,-393.677,0,0,0,
,-0.247,-0.591,0.845,-1177.857,-287.293,-762.269,0,0,0,
,-0.223,-0.474,0.856,-1080.018,-375,-790.039,0,0,0,
,-0.224,-0.327,0.848,-869.385,-423.951,-761.414,0,0,0,
,-0.238,-0.182,0.814,-640.564,-451.172,-708.13,0,0,0,
,-0.251,-0.09,0.765,-436.768,-444.703,-611.39,0,0,0,
,-0.258,-0.068,0.712,-339.234,-404.114,-506.409,0,0,0,
,-0.286,-0.032,0.65,-314.942,-337.952,-344.727,0,0,0,
,-0.311,0.016,0.621,-271.058,-227.356,-170.044,0,0,0,
,-0.318,0.025,0.634,-194.031,-71.839,45.654,0,0,0,
,-0.312,-0.003,0.688,-71.9,99.243,258.911,0,0,0,
,-0.307,-0.136,0.782,138.488,320.068,511.596,0,0,0,
,-0.291,-0.158,0.861,435.302,497.314,723.877,0,0,0,
,-0.272,-0.197,0.846,848.755,621.887,865.234,0,0,0,
,-0.234,-0.332,0.809,1193.603,641.235,920.654,0,0,0,
,-0.179,-0.52,0.796,1510.254,550.964,897.4,0,0,0,
,-0.195,-0.853,0.783,1598.938,429.138,806.945,0,0,0,
,-0.183,-1.132,0.726,1274.292,285.583,621.154,0,0,0,
,-0.178,-1.291,0.738,779.663,126.831,365.966,0,0,0,
,-0.243,-1.443,0.778,312.317,17.639,76.538,0,0,0,
,-0.263,-1.433,0.844,-194.153,-66.529,-219.117,0,0,0,
,-0.28,-1.271,0.872,-510.865,-120.301,-474.61,0,0,0,
,-0.277,-1.099,0.854,-711.792,-137.33,-664.124,0,0,0,
,-0.246,-0.906,0.813,-843.14,-177.002,-818.604,0,0,0,
,-0.212,-0.346,0.8,-873.841,-287.232,-851.929,0,0,0,
,-0.212,-0.125,0.805,-787.598,-304.2,-751.954,0,0,0,
,-0.231,0.029,0.806,-641.358,-286.805,-600.525,0,0,0,
,-0.251,0.091,0.723,-440.43,-244.507,-432.007,0,0,0,
,-0.282,0.17,0.667,-293.519,-167.237,-206.727,0,0,0,
,-0.256,-0.035,0.766,258.789,262.695,537.841,0,0,0,
,-0.233,-0.278,0.823,864.135,551.33,933.41,0,0,0,
,-0.194,-0.582,0.715,1541.137,518.615,990.356,0,0,0,
,-0.191,-0.872,0.63,1671.997,417.236,896.972,0,0,0,
,-0.179,-1.22,0.556,1407.287,288.818,714.477,0,0,0,
,-0.185,-1.461,0.567,893.859,170.044,438.049,0,0,0,
,-0.223,-1.54,0.618,300.964,88.928,146.057,0,0,0,
,-0.229,-1.503,0.683,-271.607,19.043,-192.383,0,0,0,
,-0.226,-1.316,0.785,-642.64,-52.918,-502.808,0,0,0,
,-0.218,-1.091,0.825,-849.793,-105.835,-731.568,0,0,0,
,-0.204,-0.908,0.848,-968.628,-163.819,-890.198,0,0,0,
,-0.191,-0.764,0.827,-1032.837,-239.747,-953.797,0,0,0,
,-0.194,-0.577,0.83,-1067.383,-314.331,-947.937,0,0,0,
,-0.196,-0.379,0.859,-1036.133,-378.54,-899.598,0,0,0,
,-0.223,-0.189,0.844,-930.298,-429.322,-829.407,0,0,0,
,-0.246,-0.062,0.814,-841.187,-453.248,-720.398,0,0,0,
,-0.279,-0.029,0.782,-780.274,-438.965,-598.023,0,0,0,
,-0.306,-0.003,0.723,-723.45,-401.123,-438.66,0,0,0,
,-0.338,0.053,0.642,-678.223,-316.224,-265.931,0,0,0,
,-0.347,0.095,0.609,-621.827,-187.5,-66.407,0,0,0,
,-0.365,0.101,0.625,-411.866,-20.264,153.198,0,0,0,
,-0.355,-0.007,0.694,-76.844,192.993,375.549,0,0,0,
,-0.357,-0.175,0.794,262.329,411.316,630.676,0,0,0,
,-0.331,-0.298,0.876,625.61,613.159,839.477,0,0,0,
,-0.312,-0.287,0.933,1080.2,719.238,994.567,0,0,0,
,-0.273,-0.366,0.879,1654.846,705.932,1034.668,0,0,0,
,-0.241,-0.498,0.739,1997.253,564.941,980.224,0,0,0,
,-0.214,-0.889,0.604,1992.248,427.063,852.783,0,0,0,
,-0.149,-1.377,0.601,1486.694,248.23,606.018,0,0,0,
,-0.199,-1.658,0.623,677.429,102.722,287.048,0,0,0,
,-0.217,-1.699,0.729,-198.304,-34.302,-56.763,0,0,0,
,-0.238,-1.435,0.857,-778.321,-151.062,-384.522,0,0,0,
,-0.236,-1.136,0.866,-1053.345,-229.248,-643.494,0,0,0,
,-0.229,-0.929,0.815,-1194.336,-299.805,-837.098,0,0,0,
,-0.237,-0.73,0.741,-1274.415,-377.869,-932.679,0,0,0,
,-0.247,-0.526,0.715,-1307.312,-452.454,-939.148,0,0,0,
,-0.247,-0.333,0.743,-1252.869,-496.277,-902.344,0,0,0,
,-0.259,-0.169,0.734,-1089.478,-493.409,-802.552,0,0,0,
,-0.275,-0.011,0.692,-793.641,-456.788,-680.359,0,0,0,
,-0.282,0.149,0.629,-419.129,-402.588,-526.429,0,0,0,
,-0.313,0.122,0.585,-12.146,-305.542,-360.169,0,0,0,
,-0.314,0.116,0.545,195.007,-186.646,-158.509,0,0,0,
,-0.295,0.138,0.529,304.687,-29.541,35.827,0,0,0,
,-0.268,-0.257,0.746,739.807,474.853,690.368,0,0,0,
,-0.287,-0.431,0.837,897.4,597.046,879.455,0,0,0,
,-0.282,-0.508,0.857,1023.254,651.062,954.162,0,0,0,
,-0.272,-0.72,0.83,943.847,600.647,922.18,0,0,0,
,-0.258,-1.012,0.796,596.008,488.281,759.277,0,0,0,
,-0.258,-1.309,0.838,157.776,330.078,522.216,0,0,0,
,-0.285,-1.435,0.91,-160.462,194.03,246.276,0,0,0,
,-0.285,-1.43,1.004,-455.75,42.846,-24.537,0,0,0,
,-0.293,-1.261,1.098,-532.776,-100.708,-292.481,0,0,0,
,-0.313,-1.102,1.082,-483.277,-217.652,-517.579,0,0,0,
,-0.305,-0.964,1.017,-478.699,-325.501,-706.849,0,0,0,
,-0.295,-0.821,0.977,-546.814,-403.565,-818.238,0,0,0,
,-0.265,-0.641,0.962,-649.048,-471.009,-878.846,0,0,0,
,-0.259,-0.464,0.927,-681.153,-512.574,-872.864,0,0,0,
,-0.255,-0.279,0.896,-631.043,-536.438,-836.182,0,0,0,
,-0.267,-0.123,0.802,-525.33,-534.668,-734.681,0,0,0,
,-0.283,-0.009,0.729,-418.519,-520.691,-634.949,0,0,0,
,-0.305,0.068,0.658,-305.359,-480.347,-492.066,0,0,0,
,-0.337,0.09,0.586,-196.778,-416.504,-346.924,0,0,0,
,-0.363,0.142,0.495,-147.889,-314.759,-169.19,0,0,0,
,-0.375,0.155,0.481,-123.414,-186.829,23.437,0,0,0,
,-0.365,0.051,0.542,-76.477,-0.306,218.444,0,0,0,
,-0.367,-0.159,0.654,-21.18,217.468,448.303,0,0,0,
,-0.378,-0.281,0.749,101.684,429.687,663.696,0,0,0,
,-0.394,-0.371,0.861,366.76,640.319,881.897,0,0,0,
,-0.399,-0.497,0.957,733.825,759.338,1023.376,0,0,0,
,-0.359,-0.567,0.856,1062.072,740.905,1031.311,0,0,0,
,-0.32,-0.688,0.611,1116.821,597.046,903.625,0,0,0,
,-0.232,-0.946,0.545,787.109,415.832,658.996,0,0,0,
,-0.248,-1.255,0.694,380.737,189.148,365.356,0,0,0,
,-0.311,-1.413,0.934,-109.009,34.973,32.47,0,0,0,
,-0.315,-1.343,1.061,-474.06,-113.099,-267.09,0,0,0,
,-0.307,-1.019,1.181,-543.946,-212.952,-533.814,0,0,0,
,-0.32,-0.848,1.059,-548.829,-292.786,-728.272,0,0,0,
,-0.308,-0.601,0.947,-656.25,-375.977,-870.362,0,0,0,
,-0.327,-0.426,0.861,-792.359,-449.891,-938.111,0,0,0,
,-0.315,-0.316,0.818,-875.672,-514.161,-920.289,0,0,0,
,-0.319,-0.109,0.791,-884.522,-544.861,-831.665,0,0,0,
,-0.349,0.071,0.767,-751.343,-523.743,-716.004,0,0,0,
,-0.432,0.125,0.718,-559.205,-450.013,-563.66,0,0,0,
,-0.418,0.141,0.642,-387.513,-339.295,-404.358,0,0,0,
,-0.424,0.198,0.543,-227.234,-209.778,-219.361,0,0,0,
,-0.42,0.217,0.49,-11.048,-67.872,-34.424,0,0,0,
,-0.407,0.112,0.503,164.367,109.497,179.626,0,0,0,
,-0.396,-0.042,0.624,284.057,292.968,406.372,0,0,0,
,-0.389,-0.162,0.712,439.209,497.192,616.15,0,0,0,
,-0.383,-0.199,0.73,615.234,656.738,800.598,0,0,0,
,-0.338,-0.223,0.729,839.721,748.047,911.621,0,0,0,
,-0.316,-0.292,0.672,1146.667,753.601,971.984,0,0,0,
,-0.267,-0.457,0.652,1403.015,674.133,980.651,0,0,0,
,-0.248,-0.759,0.659,1453.186,565.979,931.152,0,0,0,
,-0.19,-1.176,0.712,1187.988,438.659,790.893,0,0,0,
,-0.203,-1.377,0.831,832.214,305.542,589.477,0,0,0,
,-0.209,-1.471,0.872,428.772,218.811,318.298,0,0,0,
,-0.217,-1.451,0.931,80.444,125.305,26.245,0,0,0,
,-0.232,-1.32,0.971,-177.979,26.733,-287.781,0,0,0,
,-0.23,-1.203,0.973,-390.259,-58.777,-582.886,0,0,0,
,-0.241,-1.011,0.985,-641.968,-145.447,-806.275,0,0,0,
,-0.254,-0.844,0.958,-875.123,-238.221,-953.003,0,0,0,
,-0.247,-0.661,0.939,-1074.463,-338.807,-1022.95,0,0,0,
,-0.245,-0.446,0.921,-1138.978,-435.181,-1031.983,0,0,0,
,-0.251,-0.243,0.863,-1120.057,-507.813,-987.61,0,0,0,
,-0.286,-0.072,0.796,-1015.992,-555.054,-895.264,0,0,0,
,-0.313,0.002,0.746,-895.508,-548.89,-762.818,0,0,0,
,-0.338,0.06,0.681,-740.479,-503.052,-601.929,0,0,0,
,-0.373,0.171,0.566,-553.711,-415.528,-394.776,0,0,0,
,-0.399,0.214,0.475,-362.183,-295.044,-180.054,0,0,0,
,-0.4,0.14,0.518,-189.454,-90.394,73.669,0,0,0,
,-0.4,-0.073,0.686,-11.048,168.457,364.563,0,0,0,
,-0.398,-0.211,0.768,264.038,431.884,636.901,0,0,0,
,-0.378,-0.282,0.808,660.217,646.118,889.16,0,0,0,
,-0.366,-0.253,0.723,1145.324,739.502,1013.672,0,0,0,
,-0.299,-0.241,0.618,1544.433,681.091,1027.649,0,0,0,
,-0.249,-0.584,0.6,1698.425,559.143,958.496,0,0,0,
,-0.236,-0.993,0.682,1344.116,412.17,806.518,0,0,0,
,-0.238,-1.243,0.759,753.173,309.326,535.705,0,0,0,
,-0.284,-1.34,0.882,237.976,204.467,280.517,0,0,0,
,-0.304,-1.269,0.978,-47.547,116.027,21.301,0,0,0,
,-0.325,-1.223,0.989,-267.334,32.165,-217.286,0,0,0,
,-0.346,-1.052,0.974,-444.825,-60.852,-431.092,0,0,0,
,-0.358,-0.905,0.967,-525.757,-134.827,-604.432,0,0,0,
,-0.355,-0.824,0.966,-579.59,-219.3,-717.225,0,0,0,
,-0.318,-0.7,0.969,-571.412,-281.434,-780.152,0,0,0,
,-0.307,-0.566,0.958,-510.56,-347.718,-800.965,0,0,0,
,-0.294,-0.422,0.896,-462.098,-401.673,-798.768,0,0,0,
,-0.311,-0.309,0.834,-457.215,-442.383,-772.95,0,0,0,
,-0.322,-0.182,0.757,-473.45,-456.299,-718.445,0,0,0,
,-0.342,-0.12,0.716,-468.384,-447.083,-614.075,0,0,0,
,-0.352,-0.05,0.663,-431.763,-407.288,-512.024,0,0,0,
,-0.365,0.009,0.567,-395.508,-329.773,-359.986,0,0,0,
,-0.368,0.063,0.502,-372.01,-257.142,-203.064,0,0,0,
,-0.382,0.069,0.515,-299.927,-91.126,-2.808,0,0,0,
,-0.377,0.03,0.565,-182.129,99.731,207.153,0,0,0,
,-0.361,-0.038,0.596,15.686,302.368,425.048,0,0,0,
,-0.362,-0.173,0.651,247.985,483.642,636.657,0,0,0,
,-0.347,-0.327,0.691,567.443,622.009,793.213,0,0,0,
,-0.308,-0.839,0.765,1133.789,437.622,754.516,0,0,0,
,-0.331,-1.109,0.831,984.68,326.904,567.993,0,0,0,
,-0.363,-1.267,0.877,629.882,221.74,368.957,0,0,0,
,-0.395,-1.344,0.933,198.669,127.807,121.46,0,0,0,
,-0.411,-1.279,0.943,-202.698,66.345,-110.901,0,0,0,
,-0.416,-1.206,0.929,-487.854,-1.587,-341.553,0,0,0,
,-0.409,-1.052,0.919,-697.815,-61.036,-511.414,0,0,0,
,-0.391,-0.847,0.914,-792.481,-137.635,-645.081,0,0,0,
,-0.377,-0.679,0.92,-772.644,-202.332,-732.422,0,0,0,
,-0.353,-0.562,0.889,-719.971,-259.034,-764.405,0,0,0,
,-0.332,-0.347,0.856,-597.229,-306.275,-744.019,0,0,0,
,-0.311,-0.205,0.834,-429.322,-321.717,-688.355,0,0,0,
,-0.268,-0.086,0.787,-309.632,-326.6,-602.051,0,0,0,
,-0.276,0.087,0.721,-193.787,-309.632,-482.544,0,0,0,
,-0.285,0.134,0.636,-106.019,-270.997,-330.445,0,0,0,
,-0.251,0.166,0.556,-130.066,-207.825,-158.204,0,0,0,
,-0.292,0.185,0.546,-144.288,-115.052,30.273,0,0,0,
,-0.31,0.145,0.581,-73.243,32.714,258.117,0,0,0,
,-0.31,0.037,0.644,44.372,205.078,487.121,0,0,0,
,-0.341,-0.116,0.715,198.73,403.503,736.633,0,0,0,
,-0.347,-0.253,0.794,395.568,574.89,935.058,0,0,0,
,-0.334,-0.368,0.835,732.116,692.443,1067.016,0,0,0,
,-0.315,-0.58,0.892,1082.702,713.44,1124.084,0,0,0,
,-0.308,-0.773,0.814,1376.403,641.174,1106.75,0,0,0,
,-0.293,-0.968,0.703,1351.196,488.342,966.308,0,0,0,
,-0.266,-1.2,0.66,1051.574,355.468,804.321,0,0,0,
,-0.188,-1.326,0.676,600.891,222.046,513.183,0,0,0,
,-0.195,-1.424,0.776,195.129,121.154,222.961,0,0,0,
,-0.221,-1.435,0.825,-212.586,16.418,-50.599,0,0,0,
,-0.219,-1.304,0.878,-573.914,-86.792,-336.976,0,0,0,
,-0.217,-1.116,0.845,-780.274,-156.434,-565.674,0,0,0,
,-0.191,-0.889,0.833,-837.769,-239.563,-754.517,0,0,0,
,-0.205,-0.728,0.776,-844.971,-311.829,-870.606,0,0,0,
,-0.24,-0.394,0.756,-697.876,-424.744,-895.081,0,0,0,
,-0.246,-0.25,0.753,-576.172,-434.51,-861.512,0,0,0,
,-0.24,-0.097,0.722,-476.38,-414.49,-782.776,0,0,0,
,-0.272,0,0.68,-384.522,-371.949,-631.226,0,0,0,
,-0.299,0.027,0.624,-303.589,-307.801,-463.318,0,0,0,
,-0.277,0.063,0.67,-99.122,68.298,236.511,0,0,0,
,-0.283,-0.06,0.768,119.079,249.572,483.642,0,0,0,
,-0.296,-0.188,0.848,347.229,444.091,735.901,0,0,0,
,-0.27,-0.328,0.871,561.279,581.604,928.1,0,0,0,
,-0.245,-0.364,0.796,831.176,626.526,995.178,0,0,0,
,-0.206,-0.435,0.724,1099.304,557.556,1005.127,0,0,0,
,-0.173,-0.708,0.698,1344.299,419.738,935.73,0,0,0,
,-0.171,-1.118,0.734,1342.224,269.714,815.063,0,0,0,
,-0.192,-1.452,0.763,1070.8,122.863,617.797,0,0,0,
,-0.232,-1.604,0.782,699.768,-2.93,333.801,0,0,0,
,-0.262,-1.602,0.785,368.469,-83.252,5.737,0,0,0,
,-0.262,-1.523,0.772,-23.194,-157.532,-308.594,0,0,0,
,-0.251,-1.441,0.771,-345.215,-218.811,-673.096,0,0,0,
,-0.246,-1.279,0.768,-636.78,-282.166,-950.989,0,0,0,
,-0.24,-1.028,0.735,-888.55,-352.051,-1185.242,0,0,0,
,-0.268,-0.82,0.685,-1096.192,-401.856,-1287.72,0,0,0,
,-0.269,-0.597,0.65,-1306.397,-458.497,-1295.96,0,0,0,
,-0.249,-0.262,0.655,-1338.013,-502.991,-1204.346,0,0,0,
,-0.287,0.083,0.677,-1106.69,-504.273,-1023.072,0,0,0,
,-0.317,0.281,0.687,-690.247,-456.055,-782.837,0,0,0,
,-0.338,0.289,0.637,-244.568,-373.108,-510.437,0,0,0,
,-0.337,0.231,0.578,35.522,-248.414,-176.819,0,0,0,
,-0.33,0.118,0.614,192.505,-94.361,173.828,0,0,0,
,-0.307,0.015,0.676,351.44,105.651,512.817,0,0,0,
,-0.342,-0.112,0.707,498.596,318.176,824.707,0,0,0,
,-0.313,-0.253,0.74,711.181,485.107,1046.02,0,0,0,
,-0.307,-0.406,0.746,956.604,588.44,1183.532,0,0,0,
,-0.292,-0.46,0.656,1134.643,586.547,1204.162,0,0,0,
,-0.269,-0.579,0.522,1189.758,516.967,1133.667,0,0,0,
,-0.201,-0.816,0.416,1032.165,402.893,958.679,0,0,0,
,-0.177,-1.328,0.521,724.182,250.366,730.651,0,0,0,
,-0.235,-1.652,0.603,457.214,169.311,410.4,0,0,0,
,-0.236,-1.617,0.638,65.185,78.308,133.85,0,0,0,
,-0.265,-1.375,0.684,-166.26,9.704,-163.941,0,0,0,
,-0.262,-1.242,0.725,-351.075,-60.059,-456.482,0,0,0,
,-0.28,-1.253,0.732,-538.331,-99.488,-748.78,0,0,0,
,-0.291,-1.064,0.729,-745.24,-156.434,-931.824,0,0,0,
,-0.281,-0.858,0.751,-880.066,-217.957,-1028.809,0,0,0,
,-0.276,-0.616,0.775,-951.783,-251.77,-1057.068,0,0,0,
,-0.255,-0.372,0.769,-1012.818,-294.007,-1044.678,0,0,0,
,-0.251,-0.169,0.749,-975.342,-329.895,-968.384,0,0,0,
,-0.237,-0.016,0.729,-869.507,-351.563,-836.365,0,0,0,
,-0.274,0.098,0.713,-708.374,-332.886,-648.072,0,0,0,
,-0.356,0.176,0.647,-557.068,-274.353,-394.043,0,0,0,
,-0.388,0.18,0.638,-392.884,-168.824,-137.207,0,0,0,
,-0.392,0.044,0.691,-206.727,-29.908,148.62,0,0,0,
,-0.398,-0.13,0.81,37.902,131.652,417.236,0,0,0,
,-0.406,-0.355,0.866,306.152,320.861,686.096,0,0,0,
,-0.397,-0.493,0.923,583.74,459.35,892.273,0,0,0,
,-0.37,-0.459,0.829,916.748,493.835,973.083,0,0,0,
,-0.351,-0.401,0.709,1167.297,445.617,966.858,0,0,0,
,-0.331,-0.659,0.614,1219.787,384.704,859.924,0,0,0,
,-0.283,-1.024,0.576,924.987,297.973,677.246,0,0,0,
,-0.267,-1.368,0.608,482.605,204.467,418.029,0,0,0,
,-0.288,-1.48,0.685,63.232,101.928,184.814,0,0,0,
,-0.297,-1.4,0.772,-152.1,6.591,-76.844,0,0,0,
,-0.322,-1.235,0.808,-282.471,-67.078,-335.328,0,0,0,
,-0.333,-1.097,0.788,-382.264,-121.338,-582.642,0,0,0,
,-0.339,-0.94,0.782,-507.508,-163.758,-756.47,0,0,0,
,-0.348,-0.765,0.783,-622.193,-199.646,-866.333,0,0,0,
,-0.32,-0.607,0.784,-696.106,-222.29,-912.964,0,0,0,
,-0.328,-0.412,0.751,-728.516,-237.488,-875.367,0,0,0,
,-0.322,-0.245,0.738,-721.314,-243.531,-803.345,0,0,0,
,-0.33,-0.101,0.736,-664.734,-226.075,-683.777,0,0,0,
,-0.339,0.037,0.69,-592.225,-184.998,-536.56,0,0,0,
,-0.354,0.193,0.652,-502.076,-118.164,-361.634,0,0,0,
,-0.356,0.32,0.674,-346.375,0.976,-160.828,0,0,0,
,-0.359,0.285,0.682,-67.994,143.676,22.827,0,0,0,
,-0.325,-0.028,0.678,279.541,274.902,290.161,0,0,0,
,-0.283,-0.335,0.734,591.674,414.123,607.788,0,0,0,
,-0.292,-0.477,0.8,715.271,502.807,877.319,0,0,0,
,-0.299,-0.411,0.806,937.5,492.126,1119.567,0,0,0,
,-0.263,-0.427,0.684,987.121,446.35,1073.181,0,0,0,
,-0.176,-0.736,0.616,818.42,381.347,881.836,0,0,0,
,-0.087,-1.241,0.614,489.38,244.629,622.07,0,0,0,
,-0.149,-1.644,0.75,175.964,106.994,419.86,0,0,0,
,-0.175,-1.614,0.848,-162.171,-22.156,160.705,0,0,0,
,-0.175,-1.356,0.856,-295.35,-126.465,-133.057,0,0,0,
,-0.232,-1.225,0.823,-291.871,-207.581,-415.345,0,0,0,
,-0.27,-1.17,0.763,-366.822,-284.363,-708.374,0,0,0,
,-0.32,-1.053,0.755,-458.252,-333.008,-885.682,0,0,0,
,-0.316,-0.821,0.817,-492.066,-353.516,-996.399,0,0,0,
,-0.271,-0.374,0.884,-416.565,-338.074,-1028.504,0,0,0,
,-0.287,-0.252,0.796,-413.758,-318.238,-969.361,0,0,0,
,-0.301,-0.159,0.683,-489.991,-320.374,-871.827,0,0,0,
,-0.303,-0.058,0.63,-532.471,-325.623,-723.938,0,0,0,
,-0.335,0.093,0.593,-491.7,-309.388,-526.429,0,0,0,
,-0.373,0.236,0.538,-411.805,-257.935,-318.787,0,0,0,
,-0.384,0.354,0.538,-278.199,-170.166,-88.807,0,0,0,
,-0.379,0.236,0.619,-48.34,-21.485,146.362,0,0,0,
,-0.35,-0.085,0.711,179.687,205.322,430.42,0,0,0,
,-0.318,-0.401,0.782,399.963,423.401,764.404,0,0,0,
,-0.334,-0.473,0.817,602.172,637.451,1000.976,0,0,0,
,-0.323,-0.507,0.822,811.767,730.896,1161.071,0,0,0,
,-0.273,-0.698,0.783,1030.456,734.985,1149.719,0,0,0,
,-0.226,-0.771,0.658,1023.742,565.857,981.018,0,0,0,
,-0.227,-1.042,0.754,869.934,396.24,746.338,0,0,0,
,-0.253,-1.436,0.883,597.9,249.878,470.276,0,0,0,
,-0.309,-1.617,0.913,199.34,128.967,153.381,0,0,0,
,-0.316,-1.51,0.929,-202.21,0.976,-136.658,0,0,0,
,-0.354,-1.249,0.9,-453.492,-85.267,-393.86,0,0,0,
,-0.363,-1.085,0.889,-687.928,-179.322,-630.677,0,0,0,
,-0.35,-0.969,0.876,-816.346,-265.625,-833.252,0,0,0,
,-0.337,-0.822,0.851,-846.07,-338.623,-950.013,0,0,0,
,-0.308,-0.612,0.821,-826.172,-398.682,-968.018,0,0,0,
,-0.294,-0.388,0.791,-747.01,-440.43,-932.19,0,0,0,
,-0.288,-0.226,0.744,-589.295,-460.572,-875.855,0,0,0,
,-0.308,-0.143,0.687,-434.449,-449.769,-775.208,0,0,0,
,-0.315,-0.094,0.633,-305.97,-415.589,-657.166,0,0,0,
,-0.321,-0.01,0.554,-190.43,-356.751,-492.615,0,0,0,
,-0.334,0.137,0.445,-146.241,-270.264,-294.617,0,0,0,
,-0.322,0.208,0.416,-113.77,-139.954,-72.937,0,0,0,
,-0.279,0.156,0.47,-30.152,43.945,210.51,0,0,0,
,-0.247,0.027,0.587,108.459,273.376,503.173,0,0,0,
,-0.219,-0.128,0.707,351.806,529.48,831.298,0,0,0,
,-0.216,-0.221,0.741,578.735,728.576,1090.271,0,0,0,
,-0.183,-0.337,0.748,832.214,838.379,1266.418,0,0,0,
,-0.131,-0.443,0.716,1026.245,790.527,1285.888,0,0,0,
,-0.1,-0.752,0.747,1163.269,660.4,1196.899,0,0,0,
,-0.102,-1.151,0.778,1145.507,471.801,1010.681,0,0,0,
,-0.16,-1.507,0.817,951.049,284.546,770.324,0,0,0,
,-0.264,-1.66,0.849,660.827,115.6,455.566,0,0,0,
,-0.32,-1.619,0.87,365.539,13.794,98.388,0,0,0,
,-0.331,-1.5,0.849,16.052,-42.847,-210.694,0,0,0,
,-0.335,-1.286,0.834,-353.699,-103.821,-505.005,0,0,0,
,-0.325,-1.167,0.807,-630.86,-139.161,-754.822,0,0,0,
,-0.282,-1.014,0.793,-801.697,-175.049,-930.726,0,0,0,
,-0.253,-0.819,0.785,-931.031,-206.116,-1014.283,0,0,0,
,-0.213,-0.652,0.769,-987.366,-244.263,-1030.213,0,0,0,
,-0.191,-0.455,0.751,-979.187,-288.941,-986.573,0,0,0,
,-0.177,-0.262,0.717,-886.536,-347.046,-905.762,0,0,0,
,-0.195,-0.071,0.685,-706.299,-367.737,-806.458,0,0,0,
,-0.238,0.042,0.677,-486.817,-344.849,-691.102,0,0,0,
,-0.286,0.053,0.589,-338.257,-287.842,-543.58,0,0,0,
,-0.301,0.063,0.492,-254.212,-216.675,-325.257,0,0,0,
,-0.281,0.096,0.436,-233.216,-129.273,-94.239,0,0,0,
,-0.297,0.103,0.47,-128.846,-21.912,201.049,0,0,0,
,-0.28,0.018,0.65,52.551,148.315,493.469,0,0,0,
,-0.302,-0.158,0.822,331.97,366.333,814.941,0,0,0,
,-0.292,-0.304,0.906,645.568,544.738,1060.547,0,0,0,
,-0.274,-0.415,0.884,989.868,629.821,1213.195,0,0,0,
,-0.227,-0.552,0.776,1261.535,559.814,1199.34,0,0,0,
,-0.199,-0.75,0.659,1469.848,406.677,1101.135,0,0,0,
,-0.168,-1.107,0.61,1342.468,226.135,876.77,0,0,0,
,-0.22,-1.521,0.649,925.415,89.721,617.431,0,0,0,
,-0.253,-1.625,0.729,346.74,-44.373,254.882,0,0,0,
,-0.301,-1.553,0.77,-76.844,-100.892,-42.664,0,0,0,
,-0.308,-1.36,0.799,-342.041,-143.616,-374.268,0,0,0,
,-0.308,-1.213,0.803,-491.517,-159.729,-623.536,0,0,0,
,-0.303,-1.002,0.793,-636.841,-162.72,-824.83,0,0,0,
,-0.296,-0.91,0.746,-712.159,-162.171,-947.205,0,0,0,
,-0.257,-0.818,0.704,-825.806,-198.914,-988.526,0,0,0,
,-0.227,-0.589,0.704,-917.969,-250.977,-980.957,0,0,0,
,-0.217,-0.35,0.727,-927.369,-304.993,-949.036,0,0,0,
,-0.246,-0.171,0.736,-868.958,-331.91,-866.394,0,0,0,
,-0.265,-0.105,0.721,-752.32,-341.675,-773.926,0,0,0,
,-0.292,-0.052,0.662,-652.161,-319.336,-625.916,0,0,0,
,-0.302,0.074,0.561,-608.094,-277.283,-442.139,0,0,0,
,-0.315,0.19,0.522,-572.632,-198.182,-240.296,0,0,0,
,-0.32,0.173,0.584,-471.985,-53.467,6.103,0,0,0,
,-0.311,0.026,0.67,-280.823,133.422,282.348,0,0,0,
,-0.312,-0.159,0.775,16.967,377.197,638.183,0,0,0,
,-0.297,-0.235,0.801,403.442,581.359,937.622,0,0,0,
,-0.306,-0.25,0.808,804.992,708.13,1150.268,0,0,0,
,-0.236,-0.323,0.747,1222.107,724.792,1238.342,0,0,0,
,-0.181,-0.539,0.7,1681.579,606.506,1209.533,0,0,0,
,-0.178,-1.003,0.685,1856.567,483.703,1115.478,0,0,0,
,-0.152,-1.437,0.681,1329.162,304.809,864.013,0,0,0,
,-0.215,-1.566,0.741,594.787,174.743,492.859,0,0,0,
,-0.219,-1.605,0.798,-4.395,86.975,126.526,0,0,0,
,-0.258,-1.49,0.823,-447.937,39.55,-220.887,0,0,0,
,-0.261,-1.27,0.896,-713.379,-19.837,-507.508,0,0,0,
,-0.257,-1.03,0.917,-707.276,-81.421,-777.588,0,0,0,
,-0.252,-0.915,0.877,-638.733,-139.405,-923.829,0,0,0,
,-0.22,-0.832,0.824,-640.32,-227.601,-1015.564,0,0,0,
,-0.185,-0.629,0.813,-686.585,-306.885,-1038.453,0,0,0,
,-0.191,-0.449,0.804,-694.458,-384.644,-1029.908,0,0,0,
,-0.193,-0.25,0.781,-706.849,-448.365,-996.888,0,0,0,
,-0.228,-0.108,0.748,-756.653,-476.624,-934.937,0,0,0,
,-0.272,-0.049,0.709,-789.978,-475.586,-822.388,0,0,0,
,-0.294,0.005,0.652,-769.776,-436.341,-653.748,0,0,0,
,-0.319,0.114,0.551,-665.711,-353.272,-461.609,0,0,0,
,-0.339,0.191,0.469,-504.822,-212.098,-217.408,0,0,0,
,-0.338,0.172,0.48,-256.531,-36.622,44.921,0,0,0,
,-0.33,0.005,0.597,95.275,231.323,393.249,0,0,0,
,-0.321,-0.169,0.724,474.67,483.459,709.411,0,0,0,
,-0.326,-0.329,0.82,889.709,716.003,1017.395,0,0,0,
,-0.305,-0.394,0.803,1277.465,813.903,1213.195,0,0,0,
,-0.236,-0.377,0.705,1693.298,718.872,1221.984,0,0,0,
,-0.204,-0.543,0.633,1937.988,542.785,1136.291,0,0,0,
,-0.153,-0.987,0.629,1705.81,325.256,960.327,0,0,0,
,-0.239,-1.418,0.747,1146.301,167.358,705.139,0,0,0,
,-0.27,-1.616,0.816,435.119,70.983,414.856,0,0,0,
,-0.301,-1.574,0.897,-198.487,-20.691,115.173,0,0,0,
,-0.338,-1.352,0.893,-476.197,-76.111,-178.406,0,0,0,
,-0.329,-1.183,0.835,-721.619,-162.964,-429.993,0,0,0,
,-0.317,-0.982,0.803,-887.452,-248.352,-644.898,0,0,0,
,-0.316,-0.88,0.809,-950.379,-326.355,-795.777,0,0,0,
,-0.301,-0.83,0.779,-1021.79,-392.945,-884.217,0,0,0,
,-0.287,-0.712,0.752,-1095.093,-433.838,-906.861,0,0,0,
,-0.285,-0.528,0.724,-1114.38,-463.685,-891.114,0,0,0,
,-0.269,-0.338,0.684,-1087.159,-466.858,-852.234,0,0,0,
,-0.279,-0.172,0.635,-984.07,-460.938,-775.452,0,0,0,
,-0.291,-0.077,0.602,-809.632,-430.909,-670.594,0,0,0,
,-0.32,0.001,0.562,-581.543,-359.131,-532.41,0,0,0,
,-0.329,0.102,0.512,-377.625,-255.555,-348.145,0,0,0,
,-0.331,0.119,0.508,-189.393,-109.131,-138.916,0,0,0,
,-0.317,0.063,0.566,72.937,97.168,106.628,0,0,0,
,-0.292,-0.094,0.681,382.08,326.843,407.592,0,0,0,
,-0.271,-0.193,0.761,687.561,566.284,682.922,0,0,0,
,-0.264,-0.283,0.855,978.088,766.296,969.177,0,0,0,
,-0.223,-0.287,0.826,1314.453,848.938,1117.126,0,0,0,
,-0.156,-0.367,0.745,1582.824,753.418,1104.919,0,0,0,
,-0.134,-0.643,0.662,1696.106,582.336,1011.596,0,0,0,
,-0.143,-1.175,0.668,1423.095,410.888,845.337,0,0,0,
,-0.172,-1.681,0.773,746.521,229.37,559.509,0,0,0,
,-0.261,-1.671,0.869,103.576,105.835,230.59,0,0,0,
,-0.303,-1.509,0.912,-356.08,7.202,-142.273,0,0,0,
,-0.319,-1.347,0.938,-648.011,-78.064,-454.956,0,0,0,
,-0.333,-1.211,0.875,-845.093,-148.682,-733.521,0,0,0,
,-0.31,-1.001,0.833,-998.353,-213.99,-927.674,0,0,0,
,-0.302,-0.783,0.794,-1077.027,-274.598,-1010.376,0,0,0,
,-0.28,-0.583,0.794,-1087.708,-331.177,-1026.246,0,0,0,
,-0.255,-0.392,0.811,-981.446,-368.653,-990.296,0,0,0,
,-0.248,-0.19,0.802,-778.138,-396.546,-906.678,0,0,0,
,-0.244,-0.068,0.774,-600.464,-402.466,-794.19,0,0,0,
,-0.258,-0.005,0.735,-460.633,-398.865,-648.255,0,0,0,
,-0.277,0.004,0.703,-392.151,-345.826,-486.756,0,0,0,
,-0.288,0.055,0.629,-360.596,-306.641,-329.163,0,0,0,
,-0.323,0.113,0.539,-313.416,-218.018,-149.964,0,0,0,
,-0.324,0.131,0.439,-233.338,-106.141,22.094,0,0,0,
,-0.343,0.077,0.496,-88.074,59.326,231.933,0,0,0,
,-0.351,-0.071,0.599,85.571,245.483,455.444,0,0,0,
,-0.365,-0.234,0.657,307.067,454.712,682.067,0,0,0,
,-0.375,-0.297,0.73,574.585,632.019,874.939,0,0,0,
,-0.36,-0.391,0.774,999.328,724.243,1035.461,0,0,0,
,-0.325,-0.489,0.776,1442.932,719.177,1097.473,0,0,0,
,-0.266,-0.61,0.702,1770.507,602.722,1076.538,0,0,0,
,-0.209,-0.853,0.67,1821.228,424.865,969.787,0,0,0,
,-0.185,-1.236,0.671,1512.268,245.483,761.779,0,0,0,
,-0.182,-1.433,0.755,930.053,77.27,493.835,0,0,0,
,-0.236,-1.596,0.837,299.438,-8.606,147.949,0,0,0,
,-0.256,-1.488,0.867,-315.491,-73.06,-165.772,0,0,0,
,-0.255,-1.236,0.876,-672.852,-130.066,-459.046,0,0,0,
,-0.233,-1.008,0.868,-821.595,-183.106,-675.171,0,0,0,
,-0.241,-0.842,0.843,-948.426,-226.624,-789.917,0,0,0,
,-0.247,-0.711,0.815,-1071.228,-253.907,-835.938,0,0,0,
,-0.248,-0.558,0.78,-1140.809,-276.429,-817.505,0,0,0,
,-0.259,-0.419,0.768,-1088.013,-280.579,-748.78,0,0,0,
,-0.258,-0.325,0.76,-958.497,-275.94,-660.706,0,0,0,
,-0.257,-0.215,0.744,-863.404,-243.836,-556.275,0,0,0,
,-0.271,-0.116,0.709,-795.533,-172.425,-445.74,0,0,0,
,-0.277,-0.075,0.634,-737.183,-131.287,-343.689,0,0,0,
,-0.276,0.033,0.606,-618.103,-56.885,-218.628,0,0,0,
,-0.282,0.061,0.565,-434.632,48.706,-61.341,0,0,0,
,-0.266,0.051,0.563,-244.812,185.119,144.836,0,0,0,
,-0.279,-0.062,0.714,52.551,352.6,386.047,0,0,0,
,-0.296,-0.319,0.857,505.798,547.668,664.856,0,0,0,
,-0.307,-0.52,1.001,942.505,707.031,957.336,0,0,0,
,-0.253,-0.549,0.964,1554.077,751.403,1119.323,0,0,0,
,-0.209,-0.321,0.847,1999.694,607.91,1133.606,0,0,0,
,-0.181,-0.535,0.653,1999.694,450.805,1117.004,0,0,0,
,-0.081,-1.005,0.587,1832.214,281.738,922.241,0,0,0,
,-0.095,-1.432,0.634,788.574,180.297,591.98,0,0,0,
,-0.11,-1.666,0.752,-126.954,120.178,209.594,0,0,0,
,-0.139,-1.617,0.837,-663.88,66.65,-138.672,0,0,0,
,-0.167,-1.352,0.858,-931.946,0.305,-408.143,0,0,0,
,-0.166,-1.046,0.828,-958.069,-85.572,-593.628,0,0,0,
,-0.173,-0.864,0.812,-897.95,-165.101,-721.985,0,0,0,
,-0.178,-0.802,0.829,-790.039,-250.489,-840.088,0,0,0,
,-0.188,-0.714,0.841,-717.53,-328.675,-911.438,0,0,0,
,-0.191,-0.597,0.834,-692.566,-388.306,-943.543,0,0,0,
,-0.185,-0.417,0.812,-746.888,-429.261,-952.576,0,0,0,
,-0.168,-0.268,0.798,-876.221,-453.98,-936.463,0,0,0,
,-0.158,-0.187,0.753,-1055.787,-468.811,-887.574,0,0,0,
,-0.183,-0.125,0.7,-1228.272,-472.107,-782.593,0,0,0,
,-0.21,0.005,0.594,-1242.798,-467.408,-667.725,0,0,0,
,-0.27,0.181,0.521,-960.694,-418.824,-481.324,0,0,0,
,-0.304,0.232,0.493,-473.328,-324.707,-290.528,0,0,0,
,-0.363,0.131,0.592,-24.964,-150.696,-27.955,0,0,0,
,-0.377,-0.033,0.73,367.187,66.833,244.384,0,0,0,
,-0.401,-0.206,0.823,695.19,325.744,546.569,0,0,0,
,-0.388,-0.366,0.924,985.778,555.175,834.533,0,0,0,
,-0.379,-0.513,0.977,1274.536,690.49,1038.94,0,0,0,
,-0.327,-0.497,0.871,1553.711,682.861,1118.713,0,0,0,
,-0.261,-0.321,0.748,1812.866,542.663,1068.786,0,0,0,
,-0.216,-0.441,0.631,1945.068,381.164,890.197,0,0,0,
,-0.197,-1.08,0.61,1535.766,236.511,616.272,0,0,0,
,-0.194,-1.571,0.72,672.546,84.411,361.084,0,0,0,
,-0.247,-1.606,0.797,-88.257,-28.077,57.739,0,0,0,
,-0.254,-1.382,0.845,-607.483,-114.991,-218.201,0,0,0,
,-0.262,-1.159,0.874,-839.844,-194.825,-484.864,0,0,0,
,-0.281,-0.933,0.795,-1010.071,-233.338,-646.119,0,0,0,
,-0.306,-0.738,0.781,-1131.348,-310.425,-765.809,0,0,0,
,-0.315,-0.608,0.797,-1124.756,-368.348,-852.295,0,0,0,
,-0.311,-0.515,0.781,-1087.281,-409.974,-845.887,0,0,0,
,-0.288,-0.351,0.786,-1085.877,-439.576,-826.539,0,0,0,
,-0.298,-0.216,0.76,-1068.238,-439.026,-775.696,0,0,0,
,-0.329,-0.12,0.678,-1058.106,-410.401,-666.26,0,0,0,
,-0.346,-0.03,0.57,-1103.699,-368.714,-541.748,0,0,0,
,-0.369,0.152,0.518,-1019.043,-289.673,-371.888,0,0,0,
,-0.367,0.233,0.551,-708.619,-174.5,-190.491,0,0,0,
,-0.332,0.14,0.632,-232.056,-1.526,12.939,0,0,0,
,-0.343,-0.07,0.78,193.481,235.107,320.861,0,0,0,
,-0.341,-0.272,0.902,586.975,480.59,615.844,0,0,0,
,-0.334,-0.419,0.964,993.103,700.805,935.363,0,0,0,
,-0.288,-0.434,0.922,1429.687,786.071,1163.452,0,0,0,
,-0.223,-0.101,0.757,1940.185,670.288,1190.551,0,0,0,
,-0.18,-0.118,0.588,1999.694,467.041,1077.392,0,0,0,
,-0.154,-0.782,0.604,1999.694,331.97,881.836,0,0,0,
,-0.166,-1.457,0.659,1316.833,231.018,688.232,0,0,0,
,-0.126,-1.692,0.701,355.407,124.511,352.172,0,0,0,
,-0.153,-1.527,0.799,-308.106,21.362,45.288,0,0,0,
,-0.16,-1.273,0.886,-650.33,-65.613,-277.71,0,0,0,
,-0.174,-1.106,0.874,-840.027,-159.852,-544.861,0,0,0,
,-0.233,-0.937,0.846,-907.837,-251.709,-752.503,0,0,0,
,-0.252,-0.802,0.831,-950.074,-314.576,-864.38,0,0,0,
,-0.275,-0.648,0.815,-978.699,-369.263,-908.448,0,0,0,
,-0.28,-0.512,0.8,-997.62,-389.161,-905.579,0,0,0,
,-0.304,-0.339,0.753,-1003.113,-393.738,-854.31,0,0,0,
,-0.314,-0.185,0.712,-996.521,-382.874,-768.86,0,0,0,
,-0.343,-0.068,0.682,-944.336,-346.192,-656.311,0,0,0,
,-0.378,0.032,0.625,-839.661,-270.386,-509.461,0,0,0,
,-0.388,0.141,0.615,-592.041,-164.612,-334.351,0,0,0,
,-0.376,0.113,0.659,-208.558,-7.019,-122.437,0,0,0,
,-0.368,-0.053,0.743,134.46,189.27,148.925,0,0,0,
,-0.382,-0.155,0.887,496.948,434.57,442.199,0,0,0,
,-0.394,-0.277,0.974,908.386,644.226,747.558,0,0,0,
,-0.399,-0.458,0.945,1233.642,752.99,966.43,0,0,0,
,-0.33,-0.47,0.843,1508.789,741.15,1042.663,0,0,0,
,-0.242,-0.286,0.8,1613.83,612.304,979.065,0,0,0,
,-0.231,-0.439,0.661,1556.884,487.976,802.795,0,0,0,
,-0.177,-1.123,0.535,1026.55,376.526,541.809,0,0,0,
,-0.098,-1.57,0.607,203.064,183.349,247.192,0,0,0,
,-0.124,-1.428,0.816,-391.907,-26.368,10.742,0,0,0,
,-0.177,-1.138,0.939,-699.769,-158.692,-235.413,0,0,0,
,-0.206,-1.008,0.946,-827.637,-262.452,-481.568,0,0,0,
,-0.227,-0.845,0.879,-922.913,-347.657,-662.781,0,0,0,
,-0.255,-0.703,0.822,-971.009,-428.711,-746.277,0,0,0,
,-0.265,-0.52,0.807,-943.787,-487.915,-789.856,0,0,0,
,-0.294,-0.416,0.807,-869.324,-523.804,-795.472,0,0,0,
,-0.313,-0.333,0.819,-822.205,-538.88,-782.166,0,0,0,
,-0.321,-0.233,0.775,-818.36,-524.781,-742.676,0,0,0,
,-0.336,-0.1,0.72,-831.91,-491.517,-676.331,0,0,0,
,-0.359,0.011,0.657,-799.012,-451.844,-580.445,0,0,0,
,-0.373,0.095,0.6,-717.225,-385.987,-469.117,0,0,0,
,-0.355,0.114,0.572,-605.896,-306.031,-372.01,0,0,0,
,-0.36,0.185,0.6,-416.26,-189.637,-203.309,0,0,0,
,-0.356,0.184,0.671,-115.479,-28.809,-4.334,0,0,0,
,-0.381,0.06,0.746,175.048,161.377,264.221,0,0,0,
,-0.375,-0.116,0.832,413.513,378.296,531.433,0,0,0,
,-0.421,-0.306,0.938,618.652,569.885,809.143,0,0,0,
,-0.406,-0.466,1.011,871.582,698.73,996.704,0,0,0,
,-0.396,-0.489,0.927,1083.13,720.459,1079.162,0,0,0,
,-0.318,-0.304,0.803,1214.172,628.723,1007.385,0,0,0,
,-0.262,-0.488,0.723,1182.373,494.69,818.359,0,0,0,
,-0.25,-1.041,0.752,875.305,373.291,566.162,0,0,0,
,-0.2,-1.451,0.796,220.337,219.421,258.178,0,0,0,
,-0.192,-1.452,0.94,-285.828,33.447,10.681,0,0,0,
,-0.242,-1.154,1.035,-582.398,-115.113,-198.243,0,0,0,
,-0.264,-1.002,1.064,-681.519,-223.511,-438.904,0,0,0,
,-0.283,-0.874,1.025,-730.896,-304.81,-618.348,0,0,0,
,-0.299,-0.716,0.986,-765.381,-376.465,-713.807,0,0,0,
,-0.301,-0.583,0.957,-754.334,-427.308,-765.625,0,0,0,
,-0.317,-0.428,0.948,-673.768,-474.671,-773.133,0,0,0,
,-0.338,-0.263,0.919,-576.172,-479.676,-751.465,0,0,0,
,-0.339,-0.137,0.844,-476.319,-478.394,-726.014,0,0,0,
,-0.357,-0.019,0.797,-377.503,-463.623,-671.814,0,0,0,
,-0.352,0.052,0.725,-257.447,-441.773,-600.159,0,0,0,
,-0.365,0.074,0.652,-139.222,-404.602,-491.944,0,0,0,
,-0.399,0.15,0.582,-34.546,-350.525,-355.103,0,0,0,
,-0.439,0.223,0.532,76.599,-272.156,-190.674,0,0,0,
,-0.441,0.234,0.53,206.115,-146.18,15.319,0,0,0,
,-0.439,0.076,0.633,292.114,26.855,240.722,0,0,0,
,-0.447,-0.184,0.787,378.723,259.399,511.291,0,0,0,
,-0.476,-0.341,0.885,526.184,505.737,794.433,0,0,0,
,-0.467,-0.44,0.976,786.01,728.881,1002.258,0,0,0,
,-0.409,-0.54,0.975,1093.689,842.712,1146.423,0,0,0,
,-0.348,-0.529,0.84,1356.262,796.569,1139.099,0,0,0,
,-0.256,-0.51,0.71,1397.033,639.648,1020.813,0,0,0,
,-0.207,-0.783,0.669,1104.919,489.99,814.758,0,0,0,
,-0.192,-1.178,0.68,574.34,358.825,542.358,0,0,0,
,-0.18,-1.515,0.792,-3.846,181.213,200.195,0,0,0,
,-0.176,-1.355,0.93,-467.225,23.986,-64.331,0,0,0,
,-0.212,-1.061,0.978,-641.541,-122.071,-341.309,0,0,0,
,-0.235,-0.941,0.927,-711.487,-234.925,-565.857,0,0,0,
,-0.263,-0.799,0.861,-817.505,-341.004,-731.019,0,0,0,
,-0.275,-0.646,0.819,-936.158,-420.105,-818.665,0,0,0,
,-0.299,-0.5,0.799,-1014.893,-492.066,-852.234,0,0,0,
,-0.316,-0.305,0.796,-1004.456,-532.288,-843.445,0,0,0,
,-0.326,-0.13,0.771,-890.076,-536.744,-803.101,0,0,0,
,-0.351,0.038,0.733,-707.215,-492.737,-714.539,0,0,0,
,-0.39,0.106,0.67,-536.927,-421.204,-583.008,0,0,0,
,-0.42,0.177,0.554,-389.893,-308.106,-427.918,0,0,0,
,-0.411,0.229,0.498,-298.584,-192.261,-248.047,0,0,0,
,-0.389,0.209,0.504,-131.47,-33.875,-41.26,0,0,0,
,-0.364,0.033,0.627,1.098,175.232,233.093,0,0,0,
,-0.342,-0.124,0.789,138.61,411.865,525.085,0,0,0,
,-0.313,-0.129,0.9,346.191,656.982,806.335,0,0,0,
,-0.333,-0.169,0.926,603.637,869.873,1039.001,0,0,0,
,-0.267,-0.261,0.875,789.428,959.9,1145.691,0,0,0,
,-0.209,-0.326,0.813,954.467,916.87,1126.587,0,0,0,
,-0.128,-0.409,0.795,1087.951,779.968,1030.029,0,0,0,
,-0.134,-0.769,0.813,985.962,598.083,902.343,0,0,0,
,-0.065,-0.988,0.863,655.822,426.269,663.818,0,0,0,
,-0.126,-1.339,0.961,240.6,251.22,384.521,0,0,0,
,-0.151,-1.414,1.011,-109.925,87.707,77.575,0,0,0,
,-0.202,-1.263,1.029,-366.761,-71.778,-159.241,0,0,0,
,-0.234,-1.066,1.001,-470.765,-202.027,-418.519,0,0,0,
,-0.248,-0.929,0.974,-560.486,-304.932,-614.014,0,0,0,
,-0.262,-0.786,0.939,-590.943,-405.823,-775.879,0,0,0,
,-0.268,-0.644,0.923,-552.43,-473.816,-867.676,0,0,0,
,-0.282,-0.475,0.921,-484.07,-515.564,-906.678,0,0,0,
,-0.261,-0.313,0.88,-453.736,-546.448,-911.438,0,0,0,
,-0.247,-0.15,0.811,-451.477,-522.828,-862.305,0,0,0,
,-0.268,-0.054,0.785,-358.033,-485.657,-760.071,0,0,0,
,-0.286,0.029,0.726,-195.984,-405.396,-575.318,0,0,0,
,-0.295,0.055,0.694,-63.416,-286.133,-363.831,0,0,0,
,-0.307,0.066,0.705,65.246,-121.644,-92.225,0,0,0,
,-0.284,0.077,0.715,285.766,84.472,172.363,0,0,0,
,-0.273,-0.01,0.775,566.589,292.968,445.495,0,0,0,
,-0.271,-0.178,0.822,861.938,466.735,663.94,0,0,0,
,-0.248,-0.382,0.835,1106.323,574.035,842.834,0,0,0,
,-0.232,-0.425,0.76,1229.736,576.233,880.31,0,0,0,
,-0.231,-0.487,0.713,1288.94,503.112,845.642,0,0,0,
,-0.204,-0.716,0.704,1167.175,383.239,734.558,0,0,0,
,-0.213,-1.003,0.688,831.787,262.756,597.412,0,0,0,
,-0.212,-1.251,0.741,384.399,134.826,391.113,0,0,0,
,-0.234,-1.333,0.804,-13.855,43.823,177.124,0,0,0,
,-0.268,-1.235,0.85,-244.507,-34.119,-39.307,0,0,0,
,-0.299,-1.161,0.869,-329.102,-103.821,-264.893,0,0,0,
,-0.313,-1.08,0.829,-393.311,-165.223,-458.985,0,0,0,
,-0.297,-0.986,0.794,-457.459,-230.469,-642.823,0,0,0,
,-0.289,-0.881,0.784,-523.621,-278.382,-754.456,0,0,0,
,-0.281,-0.751,0.797,-619.141,-311.28,-814.881,0,0,0,
,-0.267,-0.576,0.799,-688.416,-334.412,-847.29,0,0,0,
,-0.269,-0.427,0.8,-740.296,-343.995,-828.492,0,0,0,
,-0.22,-0.321,0.779,-749.512,-342.957,-775.208,0,0,0,
,-0.242,-0.207,0.767,-696.717,-341.248,-690.186,0,0,0,
,-0.246,-0.072,0.725,-573.548,-323.304,-576.6,0,0,0,
,-0.275,0.007,0.658,-390.015,-286.133,-429.993,0,0,0,
,-0.291,0.041,0.594,-237,-216.492,-285.584,0,0,0,
,-0.306,0.056,0.579,-106.629,-120.972,-106.385,0,0,0,
,-0.298,0.057,0.617,49.987,13.794,72.937,0,0,0,
,-0.296,-0.021,0.68,234.985,187.011,280.822,0,0,0,
,-0.28,-0.096,0.707,479.492,342.529,485.29,0,0,0,
,-0.289,-0.187,0.721,672.363,499.084,685.485,0,0,0,
,-0.269,-0.375,0.729,793.09,611.145,835.693,0,0,0,
,-0.252,-0.558,0.756,878.906,666.626,950.622,0,0,0,
,-0.23,-0.687,0.763,931.945,655.944,993.713,0,0,0,
,-0.201,-0.761,0.795,1014.892,585.815,943.481,0,0,0,
,-0.183,-1.002,0.802,1082.58,491.943,826.355,0,0,0,
,-0.178,-1.247,0.779,941.467,355.713,653.32,0,0,0,
,-0.184,-1.414,0.798,609.558,221.618,404.907,0,0,0,
,-0.189,-1.509,0.82,278.076,95.459,104.126,0,0,0,
,-0.211,-1.479,0.834,-30.396,-38.208,-184.327,0,0,0,
,-0.23,-1.385,0.836,-242.554,-142.64,-499.085,0,0,0,
,-0.232,-1.244,0.806,-484.986,-243.775,-759.522,0,0,0,
,-0.233,-1.054,0.78,-763.367,-328.614,-956.666,0,0,0,
,-0.242,-0.863,0.783,-1046.387,-387.146,-1071.717,0,0,0,
,-0.247,-0.642,0.785,-1240.174,-431.031,-1113.465,0,0,0,
,-0.237,-0.439,0.764,-1303.589,-461.609,-1091.309,0,0,0,
,-0.233,-0.26,0.692,-1237.671,-482.972,-1005.982,0,0,0,
,-0.255,-0.092,0.621,-1006.714,-481.69,-866.15,0,0,0,
,-0.273,0.05,0.588,-647.522,-437.378,-697.144,0,0,0,
,-0.315,0.131,0.54,-340.699,-351.441,-495.85,0,0,0,
,-0.316,0.168,0.493,-134.4,-234.131,-270.203,0,0,0,
,-0.327,0.165,0.512,86.669,-69.397,-13.428,0,0,0,
,-0.31,0.045,0.582,293.335,123.474,272.522,0,0,0,
,-0.317,-0.069,0.666,506.103,348.816,549.316,0,0,0,
,-0.324,-0.172,0.703,677.856,552.002,820.8,0,0,0,
,-0.302,-0.259,0.701,842.224,678.894,1003.051,0,0,0,
,-0.267,-0.36,0.707,1028.991,707.702,1079.04,0,0,0,
,-0.248,-0.523,0.715,1177.795,670.959,1085.144,0,0,0,
,-0.213,-0.74,0.72,1203.552,590.698,1009.643,0,0,0,
,-0.198,-1.134,0.73,1072.082,455.444,854.919,0,0,0,
,-0.19,-1.322,0.738,810.18,325.683,647.583,0,0,0,
,-0.211,-1.439,0.766,489.38,195.984,371.093,0,0,0,
,-0.235,-1.478,0.819,208.618,78.552,131.652,0,0,0,
,-0.273,-1.402,0.854,-90.332,14.526,-111.634,0,0,0,
,-0.205,-1.216,0.801,-386.231,-22.95,-409.424,0,0,0,
,-0.22,-1.078,0.808,-605.53,-80.506,-613.465,0,0,0,
,-0.187,-1.008,0.829,-762.757,-166.26,-796.387,0,0,0,
,-0.178,-0.865,0.842,-896.912,-242.188,-899.414,0,0,0,
,-0.167,-0.645,0.846,-939.27,-321.412,-950.989,0,0,0,
,-0.163,-0.443,0.82,-916.199,-388.916,-955.384,0,0,0,
,-0.182,-0.296,0.787,-865.601,-448.182,-909.913,0,0,0,
,-0.186,-0.175,0.726,-815.369,-498.78,-830.567,0,0,0,
,-0.224,-0.089,0.665,-734.986,-487.854,-702.271,0,0,0,
,-0.29,0.007,0.581,-660.218,-456.238,-522.706,0,0,0,
,-0.348,0.125,0.493,-598.45,-386.353,-314.637,0,0,0,
,-0.369,0.176,0.49,-452.759,-254.822,-100.831,0,0,0,
,-0.349,0.034,0.594,-211.976,-55.664,192.077,0,0,0,
,-0.304,-0.1,0.738,143.005,175.476,480.59,0,0,0,
,-0.296,-0.184,0.775,497.558,458.557,790.832,0,0,0,
,-0.289,-0.302,0.753,834.289,658.447,1015.38,0,0,0,
,-0.227,-0.458,0.667,1090.088,771.789,1146.484,0,0,0,
,-0.177,-0.673,0.699,1182.495,710.998,1175.354,0,0,0,
,-0.139,-0.635,0.706,1308.41,615.539,1080.932,0,0,0,
,-0.122,-1.029,0.712,1290.771,492.126,923.828,0,0,0,
,-0.13,-1.365,0.745,871.093,357.727,679.87,0,0,0,
,-0.147,-1.501,0.827,415.649,213.256,369.812,0,0,0,
,-0.172,-1.438,0.894,23.925,109.741,74.157,0,0,0,
,-0.218,-1.325,0.917,-316.773,8.361,-226.136,0,0,0,
,-0.228,-1.198,0.923,-611.939,-78.064,-494.324,0,0,0,
,-0.221,-1.061,0.926,-889.161,-176.819,-706.299,0,0,0,
,-0.201,-0.9,0.923,-998.536,-257.142,-842.835,0,0,0,
,-0.199,-0.741,0.889,-1022.095,-347.352,-907.471,0,0,0,
,-0.208,-0.562,0.86,-990.784,-427.124,-919.8,0,0,0,
,-0.211,-0.391,0.82,-914.124,-494.019,-895.264,0,0,0,
,-0.234,-0.235,0.808,-789.368,-534.485,-821.228,0,0,0,
,-0.258,-0.146,0.778,-637.94,-535.34,-724.244,0,0,0,
,-0.292,-0.103,0.722,-437.317,-501.587,-591.492,0,0,0,
,-0.331,-0.055,0.654,-228.394,-430.237,-405.762,0,0,0,
,-0.358,-0.013,0.597,-78.492,-328.064,-215.271,0,0,0,
,-0.351,0.003,0.562,73.486,-188.233,-7.813,0,0,0,
,-0.362,-0.052,0.591,245.788,-24.048,220.52,0,0,0,
,-0.35,-0.179,0.634,442.382,174.682,483.703,0,0,0,
,-0.327,-0.253,0.685,606.994,353.027,721.313,0,0,0,
,-0.283,-0.306,0.727,792.175,494.506,897.094,0,0,0,
,-0.233,-0.41,0.754,937.133,576.294,1005.981,0,0,0,
,-0.2,-0.601,0.766,1027.649,582.397,1050.72,0,0,0,
,-0.151,-0.83,0.779,1055.114,512.207,1002.868,0,0,0,
,-0.143,-1.001,0.745,1005.798,397.461,857.788,0,0,0,
,-0.145,-1.153,0.71,802.002,239.868,625.854,0,0,0,
,-0.179,-1.278,0.735,511.169,103.881,353.82,0,0,0,
,-0.205,-1.348,0.784,144.409,-16.846,77.27,0,0,0,
,-0.253,-1.337,0.808,-154.664,-99.427,-220.398,0,0,0,
,-0.255,-1.237,0.801,-380.066,-160.767,-489.136,0,0,0,
,-0.275,-1.103,0.747,-606.141,-209.29,-698.853,0,0,0,
,-0.28,-0.944,0.699,-826.233,-253.724,-858.826,0,0,0,
,-0.278,-0.808,0.692,-1012.513,-297.12,-941.834,0,0,0,
,-0.278,-0.64,0.706,-1102.601,-333.435,-978.516,0,0,0,
,-0.271,-0.465,0.717,-1093.506,-362.488,-969.544,0,0,0,
,-0.262,-0.296,0.713,-1003.724,-378.968,-914.246,0,0,0,
,-0.256,-0.16,0.693,-848.45,-362.183,-821.167,0,0,0,
,-0.279,-0.039,0.639,-676.148,-322.754,-665.894,0,0,0,
,-0.292,0.08,0.566,-475.708,-253.052,-462.159,0,0,0,
,-0.297,0.168,0.499,-182.496,-156.434,-236.817,0,0,0,
,-0.276,0.195,0.488,155.029,-30.396,36.377,0,0,0,
,-0.264,0.168,0.532,493.103,155.578,335.449,0,0,0,
,-0.235,-0.053,0.669,782.714,397.338,703.918,0,0,0,
,-0.192,-0.445,0.837,1168.335,800.903,1318.969,0,0,0,
,-0.116,-0.546,0.796,1371.643,798.156,1399.597,0,0,0,
,-0.101,-0.745,0.8,1588.989,666.809,1378.784,0,0,0,
,-0.082,-1.076,0.729,1647.338,474.121,1220.337,0,0,0,
,-0.087,-1.468,0.681,1172.485,273.62,912.475,0,0,0,
,-0.118,-1.642,0.679,454.651,90.576,478.393,0,0,0,
,-0.162,-1.683,0.758,-20.325,-27.71,57.128,0,0,0,
,-0.198,-1.591,0.831,-346.985,-135.254,-298.89,0,0,0,
,-0.226,-1.408,0.858,-534.363,-207.215,-664.063,0,0,0,
,-0.228,-1.27,0.809,-702.149,-243.958,-922.791,0,0,0,
,-0.204,-1.08,0.716,-923.462,-286.56,-1101.563,0,0,0,
,-0.189,-0.915,0.655,-1135.56,-333.802,-1172.791,0,0,0,
,-0.191,-0.715,0.66,-1204.59,-378.54,-1166.993,0,0,0,
,-0.187,-0.495,0.686,-1095.582,-407.715,-1106.141,0,0,0,
,-0.205,-0.283,0.694,-873.841,-417.786,-1015.809,0,0,0,
,-0.239,-0.149,0.664,-626.343,-403.077,-893.921,0,0,0,
,-0.255,-0.098,0.636,-463.318,-375.916,-763.184,0,0,0,
,-0.292,-0.057,0.629,-376.404,-327.698,-594.91,0,0,0,
,-0.307,0.002,0.601,-346.619,-252.32,-402.405,0,0,0,
,-0.333,0.05,0.566,-297.486,-143.067,-195.984,0,0,0,
,-0.349,0.062,0.543,-237.732,-23.194,36.56,0,0,0,
,-0.361,0.046,0.536,-136.292,134.155,250.793,0,0,0,
,-0.36,-0.011,0.587,-10.987,316.223,493.042,0,0,0,
,-0.347,-0.106,0.62,191.345,483.337,724.06,0,0,0,
,-0.322,-0.179,0.655,442.443,651.55,925.537,0,0,0,
,-0.261,-0.307,0.732,719.909,742.431,1092.224,0,0,0,
,-0.182,-0.542,0.823,1100.219,732.544,1159.24,0,0,0,
,-0.157,-0.778,0.827,1460.815,602.844,1154.968,0,0,0,
,-0.135,-0.954,0.729,1649.536,417.968,1053.711,0,0,0,
,-0.108,-1.209,0.651,1519.287,190.551,800.048,0,0,0,
,-0.123,-1.603,0.7,1069.275,14.404,464.904,0,0,0,
,-0.194,-1.875,0.808,330.017,-134.278,44.616,0,0,0,
,-0.253,-1.7,0.869,-285.645,-227.906,-394.288,0,0,0,
,-0.273,-1.408,0.868,-714.478,-293.213,-761.841,0,0,0,
,-0.285,-1.207,0.82,-1035.401,-335.328,-1078.675,0,0,0,
,-0.279,-1.017,0.756,-1394.959,-374.268,-1269.471,0,0,0,
,-0.276,-0.776,0.687,-1711.182,-423.645,-1347.962,0,0,0,
,-0.269,-0.531,0.627,-1891.724,-462.708,-1314.515,0,0,0,
,-0.264,-0.225,0.585,-1717.347,-505.982,-1177.369,0,0,0,
,-0.304,0.035,0.609,-1211.67,-485.291,-950.379,0,0,0,
,-0.324,0.091,0.607,-605.835,-373.108,-715.149,0,0,0,
,-0.334,0.113,0.564,-170.35,-205.811,-420.289,0,0,0,
,-0.323,0.166,0.565,172.485,-30.884,-131.104,0,0,0,
,-0.304,0.114,0.598,415.649,183.41,201.66,0,0,0,
,-0.266,0.058,0.651,581.726,371.582,500.549,0,0,0,
,-0.262,-0.018,0.72,781.494,546.936,735.901,0,0,0,
,-0.259,-0.224,0.778,969.543,670.776,920.471,0,0,0,
,-0.27,-0.45,0.822,1150.756,713.012,1020.813,0,0,0,
,-0.253,-0.636,0.837,1241.333,646.85,1007.69,0,0,0,
,-0.263,-0.805,0.829,1177.368,545.593,905.761,0,0,0,
,-0.246,-0.964,0.824,908.386,414.734,730.163,0,0,0,
,-0.253,-1.18,0.787,458.862,318.115,494.201,0,0,0,
,-0.252,-1.375,0.781,-201.661,213.806,221.313,0,0,0,
,-0.224,-1.37,0.877,-671.082,90.515,-85.328,0,0,0,
,-0.247,-1.168,0.962,-889.039,-37.415,-305.848,0,0,0,
,-0.261,-0.979,0.994,-938.782,-151.001,-508.301,0,0,0,
