TIMECODE,ACC_X,ACC_Y,ACC_Z,GYR_X,GYR_Y,GYR_Z,TAG
00:00:00:0,0.954,0.151,0.069,-18.677,9.094,-29.358,
00:00:00:16,0.956,0.155,0.075,-20.997,7.019,-26.734,
00:00:00:33,0.95,0.155,0.074,-15.015,6.347,-29.419,
00:00:00:50,0.95,0.151,0.073,-12.269,8.728,-30.274,
00:00:00:66,0.949,0.145,0.075,-12.269,10.315,-30.152,
00:00:00:83,0.956,0.146,0.068,-20.874,8.483,-29.419,
00:00:00:100,0.954,0.149,0.071,-24.353,6.53,-29.236,
00:00:00:116,0.955,0.153,0.077,-19.043,9.765,-31.861,
00:00:00:133,0.955,0.156,0.075,-12.085,14.404,-34.668,
00:00:00:150,0.954,0.15,0.072,-8.362,12.817,-35.096,
00:00:00:166,0.953,0.148,0.078,-11.536,13.305,-35.584,
00:00:00:183,0.956,0.151,0.076,-17.334,11.169,-33.509,
00:00:00:200,0.95,0.157,0.069,-11.048,13.549,-32.349,
00:00:00:216,0.944,0.161,0.062,-6.775,20.141,-31.434,
00:00:00:233,0.945,0.161,0.062,-7.447,26.611,-27.588,
00:00:00:250,0.944,0.164,0.066,-2.32,28.198,-27.039,
00:00:00:266,0.944,0.156,0.072,9.765,33.996,-24.598,
00:00:00:283,0.949,0.151,0.079,8.606,34.057,-24.781,
00:00:00:300,0.955,0.149,0.08,7.263,28.32,-26.856,
00:00:00:316,0.962,0.148,0.077,4.821,28.015,-25.391,
00:00:00:333,0.964,0.148,0.081,2.319,23.376,-26.368,
00:00:00:350,0.964,0.147,0.078,-0.061,17.883,-25.147,
00:00:00:366,0.964,0.143,0.077,-5.127,17.944,-25.94,
00:00:00:383,0.965,0.143,0.073,-9.705,14.953,-26.307,
00:00:00:400,0.955,0.143,0.069,-14.466,9.277,-30.762,
00:00:00:416,0.953,0.143,0.072,-13.977,9.582,-33.265,
00:00:00:433,0.956,0.145,0.065,-22.828,12.512,-36.805,
00:00:00:450,0.958,0.148,0.068,-28.687,14.587,-33.936,
00:00:00:466,0.958,0.151,0.065,-28.626,15.747,-35.279,
00:00:00:483,0.956,0.151,0.067,-24.842,13.122,-34.241,
00:00:00:500,0.958,0.149,0.069,-21.973,13.916,-34.485,
00:00:00:516,0.959,0.149,0.073,-24.842,14.465,-35.401,
00:00:00:533,0.955,0.143,0.075,-27.649,11.169,-35.279,
00:00:00:550,0.957,0.144,0.074,-32.898,9.643,-34.607,
00:00:00:566,0.96,0.145,0.074,-37.476,8.361,-35.523,
00:00:00:583,0.955,0.15,0.076,-32.715,7.08,-38.147,
00:00:00:600,0.95,0.148,0.075,-28.382,3.784,-39.795,
00:00:00:616,0.95,0.148,0.071,-22.583,2.38,-39.917,
00:00:00:633,0.959,0.143,0.065,-31.556,2.807,-41.199,
00:00:00:650,0.959,0.15,0.065,-40.894,1.586,-40.65,
00:00:00:666,0.955,0.158,0.07,-35.645,4.028,-38.88,
00:00:00:683,0.95,0.159,0.066,-25.391,7.812,-39.978,
00:00:00:700,0.95,0.151,0.066,-19.043,4.394,-39.246,
00:00:00:716,0.948,0.148,0.067,-19.532,7.263,-36.683,
00:00:00:733,0.948,0.149,0.066,-22.278,7.507,-34.363,
00:00:00:750,0.954,0.15,0.068,-22.4,10.62,-36.622,
00:00:00:766,0.952,0.15,0.068,-15.564,11.901,-38.514,
00:00:00:783,0.952,0.15,0.068,-15.931,14.038,-37.903,
00:00:00:800,0.954,0.149,0.065,-15.87,14.099,-35.035,
00:00:00:816,0.957,0.148,0.067,-15.503,8.728,-37.598,
00:00:00:833,0.956,0.149,0.069,-12.818,10.315,-33.814,
00:00:00:850,0.952,0.147,0.07,-13.123,13.183,-32.837,
00:00:00:866,0.952,0.146,0.067,-12.146,15.869,-32.776,
00:00:00:883,0.958,0.147,0.067,-18.921,13.61,-32.288,
00:00:00:900,0.956,0.15,0.068,-18.738,9.521,-33.875,
00:00:00:916,0.949,0.152,0.066,-15.198,14.709,-35.95,
00:00:00:933,0.951,0.149,0.065,-10.437,16.296,-35.096,
00:00:00:950,0.952,0.15,0.067,-8.606,17.456,-33.631,
00:00:00:966,0.951,0.149,0.068,-9.034,1.22,-32.898,
00:00:00:983,0.956,0.151,0.067,-7.691,16.906,-33.204,
00:00:01:0,0.956,0.151,0.065,-2.747,14.709,-32.654,
00:00:01:16,0.953,0.15,0.071,0.549,14.953,-31.8,
00:00:01:33,0.957,0.146,0.066,0.915,15.502,-31.556,
00:00:01:50,0.956,0.149,0.068,2.258,19.531,-31.189,
00:00:01:66,0.954,0.15,0.069,-1.099,16.662,-30.457,
00:00:01:83,0.956,0.149,0.07,1.464,17.7,-29.847,
00:00:01:100,0.956,0.147,0.07,5.249,17.7,-28.443,
00:00:01:116,0.958,0.146,0.069,5.188,16.296,-30.213,
00:00:01:133,0.957,0.146,0.067,2.075,16.113,-29.541,
00:00:01:150,0.956,0.144,0.07,2.38,13.305,-28.077,
00:00:01:166,0.952,0.143,0.067,-0.367,30.212,-29.175,
00:00:01:183,0.955,0.145,0.065,-2.808,15.319,-29.664,
00:00:01:200,0.956,0.145,0.065,-1.648,13.61,-29.48,
00:00:01:216,0.957,0.147,0.067,0.488,15.014,-30.64,
00:00:01:233,0.958,0.144,0.065,-0.245,14.404,-31.678,
00:00:01:250,0.956,0.143,0.067,-2.015,18.005,-33.753,
00:00:01:266,0.952,0.146,0.065,-4.334,15.808,-32.105,
00:00:01:283,0.952,0.146,0.061,-9.461,15.075,-30.152,
00:00:01:300,0.952,0.148,0.063,-8.301,13.732,-29.419,
00:00:01:316,0.948,0.148,0.063,-8.24,15.869,-29.419,
00:00:01:333,0.948,0.145,0.065,-7.081,19.47,-29.175,
00:00:01:350,0.951,0.145,0.062,-8.118,19.714,-29.236,
00:00:01:366,0.958,0.143,0.058,-18.372,17.15,-32.105,
00:00:01:383,0.962,0.144,0.064,-23.987,18.432,-31.8,
00:00:01:400,0.957,0.152,0.069,-23.438,19.531,-32.532,
00:00:01:416,0.955,0.154,0.071,-18.86,20.935,-30.945,
00:00:01:433,0.95,0.151,0.07,-14.649,19.165,-30.762,
00:00:01:450,0.951,0.149,0.07,-12.94,16.967,-28.382,
00:00:01:466,0.953,0.148,0.073,-14.588,16.113,-27.344,
00:00:01:483,0.954,0.149,0.072,-13.428,11.108,-29.114,
00:00:01:500,0.957,0.148,0.072,-11.902,11.901,-26.185,
00:00:01:516,0.954,0.148,0.069,-12.818,13.122,-30.213,
00:00:01:533,0.957,0.149,0.071,-11.109,9.094,-29.664,
00:00:01:550,0.955,0.151,0.065,-14.771,8.667,-33.02,
00:00:01:566,0.955,0.148,0.068,-17.701,3.662,-27.955,
00:00:01:583,0.947,0.148,0.066,-18.494,7.324,-26.856,
00:00:01:600,0.954,0.144,0.062,-20.874,10.315,-24.842,
00:00:01:616,0.953,0.146,0.06,-25.818,6.408,-24.903,
00:00:01:633,0.95,0.145,0.064,-26.429,7.751,-25.33,
00:00:01:650,0.953,0.145,0.061,-26.001,11.84,-28.077,
00:00:01:666,0.951,0.148,0.064,-25.208,12.756,-28.992,
00:00:01:683,0.952,0.146,0.066,-25.94,10.498,-29.908,
00:00:01:700,0.954,0.148,0.066,-27.894,13.061,-29.419,
00:00:01:716,0.956,0.149,0.069,-29.419,13.427,-29.114,
00:00:01:733,0.956,0.149,0.067,-33.509,12.695,-29.725,
00:00:01:750,0.956,0.15,0.069,-46.57,12.756,-31.861,
00:00:01:766,0.954,0.153,0.069,-30.518,13,-15.992,
00:00:01:783,0.956,0.152,0.068,-24.842,13.061,-33.997,
00:00:01:800,0.952,0.152,0.066,-24.537,13.244,-32.898,
00:00:01:816,0.958,0.154,0.068,-18.86,11.962,-34.058,
00:00:01:833,0.954,0.153,0.069,-19.654,14.221,-34.913,
00:00:01:850,0.955,0.152,0.067,-19.227,14.282,-33.326,
00:00:01:866,0.954,0.153,0.068,-21.668,14.221,-33.204,
00:00:01:883,0.953,0.15,0.067,-21.546,11.413,-30.884,
00:00:01:900,0.953,0.149,0.069,-21.79,15.136,-30.823,
00:00:01:916,0.951,0.15,0.063,-22.095,9.399,-31.25,
00:00:01:933,0.953,0.149,0.06,-20.386,14.16,-31.617,
00:00:01:950,0.957,0.148,0.061,-26.185,15.625,-33.02,
00:00:01:966,0.956,0.151,0.065,-25.818,15.502,-34.424,
00:00:01:983,0.951,0.153,0.068,-20.569,14.404,-34.913,
00:00:02:0,0.95,0.152,0.069,-16.236,17.028,-35.523,
00:00:02:16,0.953,0.147,0.062,-13.855,17.639,-34.607,
00:00:02:33,0.958,0.144,0.063,-23.133,12.451,-35.035,
00:00:02:50,0.959,0.15,0.068,-31.128,11.169,-35.096,
00:00:02:66,0.955,0.154,0.068,-27.283,15.136,-34.546,
00:00:02:83,0.952,0.154,0.066,-15.198,16.967,-38.514,
00:00:02:100,0.952,0.149,0.066,-15.442,16.296,-37.476,
00:00:02:116,0.956,0.15,0.069,-17.518,0.061,-34.668,
00:00:02:133,0.956,0.15,0.072,-18.921,14.038,-34.119,
00:00:02:150,0.957,0.149,0.072,-18.067,12.512,-34.058,
00:00:02:166,0.954,0.151,0.067,-18.677,13.732,-32.227,
00:00:02:183,0.955,0.149,0.068,-18.982,10.62,-33.387,
00:00:02:200,0.954,0.153,0.064,-17.945,11.169,-33.814,
00:00:02:216,0.956,0.149,0.067,-15.809,11.23,-31.128,
00:00:02:233,0.955,0.149,0.064,-14.344,10.315,-33.692,
00:00:02:250,0.955,0.148,0.064,-11.719,12.085,-32.776,
00:00:02:266,0.954,0.148,0.064,-9.4,9.704,-32.471,
00:00:02:283,0.953,0.149,0.065,-9.888,12.878,-32.41,
00:00:02:300,0.951,0.146,0.064,-11.841,13.122,-32.654,
00:00:02:316,0.954,0.146,0.064,-11.475,12.573,-33.204,
00:00:02:333,0.956,0.147,0.034,-13.001,13.977,-33.692,
00:00:02:350,0.953,0.145,0.064,-14.893,15.625,-31.495,
00:00:02:366,0.954,0.144,0.062,-14.344,12.023,-32.593,
00:00:02:383,0.956,0.145,0.063,-16.541,14.404,-32.349,
00:00:02:400,0.954,0.146,0.063,-18.372,15.686,-33.02,
00:00:02:416,0.953,0.146,0.063,-18.616,15.625,-32.593,
00:00:02:433,0.956,0.146,0.067,-18.128,15.075,-32.654,
00:00:02:450,0.955,0.145,0.068,-19.898,15.258,-32.105,
00:00:02:466,0.956,0.144,0.062,-24.048,16.601,-33.997,
00:00:02:483,0.954,0.148,0.064,-24.537,13.549,-31.861,
00:00:02:500,0.952,0.149,0.065,-21.546,15.075,-33.387,
00:00:02:516,0.954,0.151,0.066,-14.954,15.869,-32.471,
00:00:02:533,0.953,0.147,0.067,-11.048,17.273,-32.044,
00:00:02:550,0.961,0.142,0.06,-18.006,16.784,-34.913,
00:00:02:566,0.961,0.146,0.064,-26.368,15.136,-33.326,
00:00:02:583,0.954,0.151,0.067,-24.964,13.244,-32.959,
00:00:02:600,0.952,0.155,0.065,-16.724,14.343,-32.898,
00:00:02:616,0.952,0.15,0.063,-12.207,17.089,-33.692,
00:00:02:633,0.951,0.147,0.062,-12.879,14.709,-33.265,
00:00:02:650,0.955,0.146,0.065,-16.236,14.953,-33.143,
00:00:02:666,0.956,0.145,0.062,-17.334,13.794,-31.556,
00:00:02:683,0.957,0.147,0.067,-17.64,12.329,-32.654,
00:00:02:700,0.951,0.146,0.063,-17.884,13.977,-32.532,
00:00:02:716,0.955,0.144,0.061,-18.982,15.319,-32.593,
00:00:02:733,0.956,0.147,0.061,-19.715,12.329,-31.189,
00:00:02:750,0.954,0.147,0.064,-21.79,14.16,-29.969,
00:00:02:766,0.947,0.145,0.064,-22.095,15.136,-30.213,
00:00:02:783,0.953,0.147,0.062,-20.874,20.507,-32.105,
00:00:02:800,0.96,0.147,0.061,-20.752,17.944,-34.79,
00:00:02:816,0.956,0.149,0.064,-18.311,16.357,-35.34,
00:00:02:833,0.955,0.151,0.062,-16.602,13.671,-35.828,
00:00:02:850,0.954,0.152,0.066,-14.466,16.052,-32.837,
00:00:02:866,0.957,0.151,0.063,-10.743,14.16,-31.495,
00:00:02:883,0.957,0.15,0.066,-10.987,12.756,-30.335,
00:00:02:900,0.956,0.15,0.065,-11.048,14.587,-29.358,
00:00:02:916,0.958,0.148,0.062,-8.545,13.122,-28.748,
00:00:02:933,0.954,0.148,0.061,-7.264,15.075,-30.945,
00:00:02:950,0.954,0.143,0.061,-7.508,16.845,-32.471,
00:00:02:966,0.959,0.151,0.06,-5.188,22.461,-31.128,
00:00:02:983,0.959,0.147,0.059,-1.709,17.761,-34.974,
00:00:03:0,0.958,0.144,0.065,2.502,19.165,-34.363,
00:00:03:16,0.957,0.138,0.061,-2.991,16.418,-33.387,
00:00:03:33,0.954,0.138,0.064,-8.545,16.357,-32.959,
00:00:03:50,0.953,0.142,0.065,-13.855,17.089,-35.34,
00:00:03:66,0.951,0.143,0.063,-15.198,13.61,-35.218,
00:00:03:83,0.954,0.147,0.061,-14.649,13.427,-36.56,
00:00:03:100,0.954,0.148,0.059,-13.367,11.718,-37.72,
00:00:03:116,0.955,0.147,0.057,-12.696,14.953,-34.729,
00:00:03:133,0.957,0.148,0.059,-14.222,12.085,-34.546,
00:00:03:150,0.955,0.147,0.058,-15.686,13.855,-32.959,
00:00:03:166,0.955,0.146,0.056,-15.931,16.357,-31.678,
00:00:03:183,0.957,0.147,0.058,-17.701,11.108,-32.532,
00:00:03:200,0.952,0.146,0.063,-15.686,13.122,-31.8,
00:00:03:216,0.949,0.146,0.056,-13.184,15.441,-31.678,
00:00:03:233,0.952,0.143,0.059,-12.635,15.686,-30.701,
00:00:03:250,0.96,0.137,0.047,-20.203,14.282,-32.227,
00:00:03:266,0.968,0.131,0.037,-39.124,7.141,-33.57,
00:00:03:283,0.958,0.13,0.031,-56.519,1.709,-24.17,
00:00:03:300,0.94,0.129,0.03,-74.463,6.897,-21.851,
00:00:03:316,0.934,0.131,0.027,-90.149,14.892,-18.372,
00:00:03:333,0.937,0.134,0.03,-100.342,28.259,-19.837,
00:00:03:350,0.945,0.139,0.033,-97.718,39.062,-23.072,
00:00:03:366,0.945,0.144,0.041,-90.088,45.837,-30.03,
00:00:03:383,0.947,0.143,0.049,-76.477,52.063,-38.453,
00:00:03:400,0.947,0.137,0.067,-74.036,59.631,-41.687,
00:00:03:416,0.948,0.135,0.07,-82.398,60.363,-47.73,
00:00:03:433,0.959,0.163,0.088,-85.45,63.476,-40.101,
00:00:03:450,0.964,0.181,0.081,-46.509,68.298,-51.331,
00:00:03:466,0.945,0.197,0.089,12.939,57.19,-51.636,
00:00:03:483,0.931,0.225,0.175,74.585,62.622,-31.983,
00:00:03:500,0.917,0.281,0.244,207.763,93.383,-23.987,
00:00:03:516,0.935,0.362,0.458,417.419,128.051,-4.395,
00:00:03:533,1.027,0.424,0.851,743.957,164.367,22.522,
00:00:03:550,1.257,0.509,1.314,1019.714,268.737,44.067,
00:00:03:566,1.78,0.442,1.64,1187.988,455.383,68.298,
00:00:03:583,2.645,0.5,1.735,1194.824,389.648,277.954,
00:00:03:600,3.63,0.854,1.838,953.369,-314.576,610.901,
00:00:03:616,3.999,1.361,1.605,830.139,-1820.74,843.322,
00:00:03:633,3.999,1.25,1.757,1039.489,-2000,822.57,
00:00:03:650,3.999,0.75,1.943,1213.501,-2000,774.963,
00:00:03:666,3.999,0.772,1.845,1254.943,-2000,712.158,
00:00:03:683,3.999,1.017,1.404,1396.972,-2000,592.407,
00:00:03:700,3.999,1.03,1.033,1363.586,-2000,430.114,
00:00:03:716,3.999,0.962,0.51,661.438,-2000,327.331,
00:00:03:733,3.999,1.14,0.049,-78.675,-2000,513.672,
00:00:03:750,3.999,1.328,-0.563,44.006,-2000,700.195,
00:00:03:766,3.999,1.201,-1.408,558.471,-2000,620.727,
00:00:03:783,3.999,0.759,-2.189,432.983,-2000,457.702,
00:00:03:800,3.999,0.436,-3.372,-155.701,-2000,398.315,
00:00:03:816,3.928,-0.955,-4,-1168.58,-2000,826.66,
00:00:03:833,1.11,-1.832,-4,-2000,-1999.756,1064.941,
00:00:03:850,0.391,-1.285,-4,-600.098,630.066,319.824,
00:00:03:866,1.145,-2.843,-4,1175.903,1999.694,-866.333,
00:00:03:883,1.408,-2.102,-2.622,-91.614,1999.694,-1340.088,
00:00:03:900,1.527,-1.215,-1.725,-1075.745,1999.694,-1968.079,
00:00:03:916,1.69,-1.683,-2.053,-1875.855,1999.694,-2000,
00:00:03:933,2.153,-1.54,-1.56,-2000,1999.694,-2000,
00:00:03:950,3.138,-0.932,-1.494,-2000,1999.694,-2000,
00:00:03:966,3.999,0.326,-2.47,-1961.792,1999.694,-2000,
00:00:03:983,3.999,2.672,-0.762,1600.525,1999.694,-2000,
00:00:04:0,3.999,3.999,1.285,1999.694,1999.694,-1932.618,
00:00:04:16,3.999,2.09,0.712,1999.694,1999.694,-1691.895,
00:00:04:33,3.999,0.579,1.243,1999.694,1999.694,-981.446,
00:00:04:50,3.365,-0.008,1.703,987.671,1999.694,-212.098,
00:00:04:66,2.387,-0.22,1.565,-304.261,1868.469,250.427,
00:00:04:83,1.989,-0.149,1.043,-1090.821,1752.929,522.644,
00:00:04:100,1.722,0.286,0.619,-1396.485,1461.975,843.689,
00:00:04:116,1.525,0.078,0.998,-1933.655,1243.286,928.405,
00:00:04:133,2.075,-1.377,3.245,-2000,920.715,607.727,
00:00:04:150,2.768,-1.394,1.569,-2000,-456.727,1162.414,
00:00:04:166,1.202,0.188,0.747,-2000,-883.057,767.273,
00:00:04:183,0.74,0.181,0.503,-2000,-777.894,234.497,
00:00:04:200,0.78,0.431,-0.128,-1824.097,-555.909,260.803,
00:00:04:216,1.001,0.534,-0.305,-1392.762,-626.77,252.685,
00:00:04:233,0.841,0.783,-0.219,-1320.313,-643.25,525.573,
00:00:04:250,0.6,0.69,-0.163,-1342.103,-537.659,-5.616,
00:00:04:266,0.582,0.537,-0.167,-1055.603,-95.948,-119.69,
00:00:04:283,0.735,0.545,-0.279,-545.227,194.763,-59.937,
00:00:04:300,0.907,0.581,-0.329,82.519,162.841,-170.289,
00:00:04:316,0.874,0.482,-0.299,613.342,85.083,-248.597,
00:00:04:333,0.82,0.36,-0.159,937.805,75.683,-312.806,
00:00:04:350,0.836,0.316,-0.078,989.257,170.105,-341.614,
00:00:04:366,0.931,0.216,-0.022,858.886,201.355,-403.992,
00:00:04:383,1.016,0.178,0.069,655.944,126.953,-323.975,
00:00:04:400,1.035,0.161,0.135,469.055,70.678,-217.469,
00:00:04:416,1.036,0.115,0.17,230.835,65.918,-165.101,
00:00:04:433,1.058,0.077,0.122,56.945,33.813,-85.755,
00:00:04:450,1.069,0.106,0.078,-95.948,-20.203,3.234,
00:00:04:466,1.029,0.209,0.069,-174.317,-91.065,45.227,
00:00:04:483,0.992,0.271,0.049,-174.622,-118.714,25.573,
00:00:04:500,0.987,0.295,-0.01,-97.535,-151.673,-23.926,
00:00:04:516,0.971,0.315,-0.023,-21.119,-209.534,-51.331,
00:00:04:533,0.926,0.3,0.005,69.519,-226.929,-79.773,
00:00:04:550,0.888,0.292,0.02,147.644,-187.561,-71.595,
00:00:04:566,0.892,0.288,0.093,246.032,-146.607,-70.374,
00:00:04:583,0.905,0.25,0.107,321.411,-109.375,-94.483,
00:00:04:600,0.894,0.127,-0.012,112.426,-117.676,-106.446,
00:00:04:616,0.907,0.148,-0.003,-84.046,-126.221,-102.295,
00:00:04:633,0.921,0.195,0.017,-218.75,-117.31,-82.398,
00:00:04:650,0.927,0.224,0.034,-285.096,-93.506,-60.791,
00:00:04:666,0.933,0.249,0.043,-277.71,-62.378,-40.039,
00:00:04:683,0.935,0.264,0.046,-234.681,-31.067,-24.109,
00:00:04:700,0.933,0.274,0.046,-170.655,7.751,-16.053,
00:00:04:716,0.928,0.273,0.047,-113.648,38.818,-16.236,
00:00:04:733,0.926,0.273,0.048,-52.613,64.636,-22.522,
00:00:04:750,0.923,0.27,0.056,7.202,77.453,-33.204,
00:00:04:766,0.924,0.262,0.061,66.223,93.078,-48.645,
00:00:04:783,0.936,0.243,0.082,96.74,90.271,-61.402,
00:00:04:800,0.939,0.216,0.089,96.252,88.989,-65.613,
00:00:04:816,0.938,0.204,0.084,65.795,81.543,-60.242,
00:00:04:833,0.939,0.193,0.077,11.291,63.11,-52.491,
00:00:04:850,0.944,0.193,0.088,-55.359,54.443,-38.392,
00:00:04:866,0.945,0.209,0.092,-91.675,39.611,-24.414,
00:00:04:883,0.952,0.231,0.091,-91.248,30.639,-18.128,
00:00:04:900,0.957,0.239,0.09,-66.834,25.085,-17.945,
00:00:04:916,0.961,0.232,0.087,-35.95,13.549,-22.278,
00:00:04:933,0.967,0.224,0.081,-3.113,1.648,-28.077,
00:00:04:950,0.976,0.215,0.068,15.93,-12.513,-32.837,
00:00:04:966,0.971,0.194,0.067,31.25,-27.161,-40.284,
00:00:04:983,0.972,0.171,0.058,20.752,-38.514,-43.274,
00:00:05:0,0.981,0.151,0.047,-14.771,-39.978,-42.298,
00:00:05:16,0.994,0.132,0.024,-45.716,-51.026,-35.218,
00:00:05:33,0.988,0.117,0.022,-67.261,-61.768,-26.856,
00:00:05:50,0.975,0.119,0.016,-105.53,-67.566,-15.198,
00:00:05:66,0.972,0.126,0.007,-170.533,-63.111,-2.137,
00:00:05:83,0.96,0.062,-0.018,-227.723,-73.609,30.517,
00:00:05:100,0.939,0.052,-0.011,-309.144,-77.759,50.537,
00:00:05:116,0.912,0.019,-0.029,-431.153,-71.045,108.398,
00:00:05:133,0.907,0.05,-0.069,-748.902,-55.237,166.809,
00:00:05:150,0.889,0.104,-0.093,-869.08,-67.2,167.48,
00:00:05:166,0.865,0.185,-0.113,-912.842,-67.566,148.742,
00:00:05:183,0.876,0.31,-0.118,-835.572,-57.435,73.608,
00:00:05:200,0.973,0.415,-0.101,-662.293,-79.224,-42.115,
00:00:05:216,1.062,0.393,-0.126,-503.907,-115.601,-174.256,
00:00:05:233,1.095,0.308,-0.167,-425.782,-156.617,-229.798,
00:00:05:250,1.09,0.295,-0.224,-461.976,-182.19,-250.184,
00:00:05:266,1.057,0.318,-0.253,-589.234,-248.78,-284.363,
00:00:05:283,0.99,0.33,-0.243,-722.84,-272.4,-279.725,
00:00:05:300,0.908,0.321,-0.198,-815.247,-297.059,-239.747,
00:00:05:316,0.833,0.277,-0.134,-868.287,-286.56,-188.599,
00:00:05:333,0.787,0.205,-0.065,-906.8,-241.333,-96.375,
00:00:05:350,0.792,0.188,-0.016,-924.744,-175.843,18.371,
00:00:05:366,0.822,0.261,-0.01,-886.963,-118.103,111.267,
00:00:05:383,0.862,0.294,-0.032,-839.478,-110.901,76.66,
00:00:05:400,0.883,0.272,-0.06,-831.91,-169.922,2.075,
00:00:05:416,0.884,0.251,-0.079,-897.278,-269.165,-85.999,
00:00:05:433,0.899,0.239,-0.077,-1007.081,-376.465,-138.306,
00:00:05:450,0.944,0.226,-0.12,-1106.629,-452.759,-138.367,
00:00:05:466,1.057,0.201,-0.167,-1227.234,-463.318,-141.724,
00:00:05:483,1.231,0.253,-0.205,-1323.121,-431.763,-139.039,
00:00:05:500,1.296,0.281,-0.228,-1393.006,-442.2,-177.979,
00:00:05:516,1.194,0.314,-0.217,-1387.391,-479.065,-169.373,
00:00:05:533,1.077,0.345,-0.188,-1296.204,-475.769,-168.885,
00:00:05:550,0.978,0.331,-0.109,-1118.103,-468.201,-164.185,
00:00:05:566,0.865,0.277,0.029,-902.222,-398.316,-131.897,
00:00:05:583,0.803,0.233,0.152,-662.659,-268.616,-102.784,
00:00:05:600,0.811,0.21,0.225,-335.633,-120.423,-107.056,
00:00:05:616,0.878,0.106,0.231,-243.897,20.141,-208.191,
00:00:05:633,0.927,0.088,0.206,-303.65,96.679,-263.184,
00:00:05:650,0.958,0.184,0.122,-449.707,117.37,-301.026,
00:00:05:666,0.978,0.213,0.055,-595.093,28.808,-378.54,
00:00:05:683,0.963,0.229,0.028,-736.695,-127.442,-373.902,
00:00:05:700,0.9,0.333,0.038,-760.865,-253.968,-375.428,
00:00:05:716,0.847,0.348,0.048,-669.8,-292.908,-414.795,
00:00:05:733,0.858,0.261,0.064,-574.524,-305.359,-433.289,
00:00:05:750,0.858,0.172,0.08,-569.947,-304.932,-385.804,
00:00:05:766,0.838,0.145,0.098,-630.799,-268.311,-285.035,
00:00:05:783,0.827,0.157,0.093,-719.056,-217.774,-210.389,
00:00:05:800,0.836,0.152,0.096,-845.398,-171.082,-171.509,
00:00:05:816,0.848,0.153,0.072,-983.948,-132.447,-140.015,
00:00:05:833,0.867,0.187,0.044,-1110.352,-99.671,-123.536,
00:00:05:850,0.894,0.233,0.034,-1161.377,-79.468,-119.507,
00:00:05:866,0.908,0.269,0.028,-1141.114,-65.796,-125.489,
00:00:05:883,0.903,0.303,0.047,-1062.5,-58.96,-141.297,
00:00:05:900,0.886,0.323,0.074,-960.083,-45.105,-163.575,
00:00:05:916,0.875,0.329,0.095,-834.961,-17.823,-179.871,
00:00:05:933,0.879,0.322,0.116,-725.464,12.634,-193.665,
00:00:05:950,0.895,0.312,0.145,-617.371,38.94,-199.524,
00:00:05:966,0.906,0.307,0.186,-529.786,64.514,-195.008,
00:00:05:983,0.928,0.301,0.232,-478.272,99.731,-194.642,
00:00:06:0,0.976,0.304,0.256,-435.364,128.418,-190.308,
00:00:06:16,0.993,0.304,0.24,-391.419,119.751,-175.232,
00:00:06:33,0.983,0.344,0.214,-265.992,93.2,-160.157,
00:00:06:50,0.974,0.38,0.179,-72.144,67.382,-144.165,
00:00:06:66,0.994,0.328,0.151,129.211,35.766,-137.574,
00:00:06:83,1.002,0.202,0.129,162.536,-23.682,-120.484,
00:00:06:100,0.978,0.108,0.106,78.43,-79.407,-56.824,
00:00:06:116,0.92,0.078,0.092,-106.812,-131.531,-4.029,
00:00:06:133,0.854,0.087,0.103,-284.18,-161.194,40.405,
00:00:06:150,0.82,0.103,0.114,-460.694,-155.64,69.824,
00:00:06:166,0.813,0.114,0.12,-609.681,-113.648,101.806,
00:00:06:183,0.846,0.136,0.121,-791.077,-59.205,96.801,
00:00:06:200,0.916,0.202,0.112,-900.818,0.976,85.205,
00:00:06:216,0.974,0.273,0.097,-925.477,42.846,43.64,
00:00:06:233,1.001,0.334,0.07,-855.774,66.406,-19.165,
00:00:06:250,1.017,0.383,0.031,-731.446,94.97,-72.815,
00:00:06:266,1.012,0.385,-0.002,-607.605,81.543,-145.569,
00:00:06:283,1.002,0.416,-0.009,-428.528,64.636,-142.212,
00:00:06:300,0.988,0.368,0.014,-62.5,53.405,-119.935,
00:00:06:316,0.997,0.307,0.026,35.4,60.18,-84.229,
00:00:06:333,0.99,0.265,0.038,75.134,62.255,-34.79,walkRH
00:00:06:350,0.953,0.248,0.053,46.997,63.964,16.784,
00:00:06:366,0.918,0.23,0.059,13.244,67.443,55.725,
00:00:06:383,0.898,0.206,0.06,-66.773,71.35,79.162,
00:00:06:400,0.888,0.185,0.067,-159.546,68.481,96.862,
00:00:06:416,0.879,0.202,0.071,-238.343,71.838,110.656,
00:00:06:433,0.881,0.233,0.059,-266.419,83.252,90.698,
00:00:06:450,0.892,0.253,0.039,-242.31,88.073,62.316,
00:00:06:466,0.907,0.266,0.02,-193.055,78.979,18.371,
00:00:06:483,0.911,0.267,0.008,-145.508,59.997,-24.964,
00:00:06:500,0.923,0.27,0.022,-98.45,33.325,-49.195,
00:00:06:516,0.93,0.263,0.038,-64.454,24.475,-73.182,
00:00:06:533,0.931,0.255,0.049,-39.124,24.475,-84.412,
00:00:06:550,0.919,0.239,0.061,-26.917,38.147,-87.525,
00:00:06:566,0.907,0.223,0.087,-43.702,59.631,-62.867,
00:00:06:583,0.885,0.219,0.111,-72.449,77.087,-62.134,
00:00:06:600,0.845,0.227,0.125,-92.957,101.379,-45.105,
00:00:06:616,0.889,0.231,0.129,-101.197,114.38,-39.673,
00:00:06:633,0.926,0.229,0.109,-100.464,105.957,-42.603,
00:00:06:650,0.96,0.219,0.091,-104.065,75.5,-46.265,
00:00:06:666,0.991,0.216,0.095,-114.808,38.94,-61.524,
00:00:06:683,1.03,0.204,0.101,-141.236,20.874,-84.534,
00:00:06:700,1.081,0.187,0.108,-191.04,-13.855,-103.516,
00:00:06:716,1.108,0.18,0.106,-239.869,-44.434,-110.352,
00:00:06:733,1.109,0.159,0.07,-306.214,-69.458,-114.502,
00:00:06:750,1.115,0.136,0.045,-417.298,-90.638,-102.601,
00:00:06:766,1.156,0.142,0.007,-538.086,-96.863,-96.375,
00:00:06:783,1.212,0.163,-0.009,-642.09,-104.248,-86.976,
00:00:06:800,1.225,0.185,-0.004,-728.455,-116.822,-77.332,
00:00:06:816,1.201,0.198,0.022,-813.66,-121.399,-76.722,
00:00:06:833,1.143,0.216,0.064,-856.568,-102.845,-67.566,
00:00:06:850,1.096,0.252,0.083,-762.94,-73.304,5.065,
00:00:06:866,1.021,0.218,0.077,-668.702,-77.149,13.977,
00:00:06:883,0.959,0.216,0.07,-534.485,-91.492,70.861,
00:00:06:900,0.882,0.195,0.035,-410.34,-159.241,99.548,
00:00:06:916,0.831,0.155,0.037,-282.898,-209.473,131.591,
00:00:06:933,0.813,0.121,0.055,-175.049,-216.919,166.442,
00:00:06:950,0.828,0.036,0.066,-163.819,-228.882,158.691,
00:00:06:966,0.857,-0.003,0.046,-215.21,-245.24,172.302,
00:00:06:983,0.89,0.006,0.007,-297.913,-273.926,174.377,
00:00:07:0,0.902,0.056,-0.019,-345.826,-304.322,164.672,
00:00:07:16,0.904,0.104,0.006,-339.234,-327.637,148.193,
00:00:07:33,0.896,0.118,0.019,-286.56,-314.698,118.896,
00:00:07:50,0.889,0.123,0.054,-212.708,-290.955,102.539,
00:00:07:66,0.858,0.138,0.072,-134.888,-243.47,88.378,
00:00:07:83,0.842,0.147,0.098,-69.947,-197.327,59.509,
00:00:07:100,0.844,0.149,0.111,-16.846,-147.278,27.343,
00:00:07:116,0.86,0.142,0.114,11.779,-127.32,6.836,
00:00:07:133,0.862,0.127,0.082,16.296,-121.827,-3.113,
00:00:07:150,0.851,0.11,0.052,-18.25,-153.382,-12.696,
00:00:07:166,0.837,0.103,0.07,-64.209,-176.88,-21.912,
00:00:07:183,0.817,0.104,0.094,-110.23,-177.43,-25.086,
00:00:07:200,0.804,0.108,0.138,-165.589,-148.743,-30.945,
00:00:07:216,0.789,0.114,0.186,-225.159,-92.347,-35.279,
00:00:07:233,0.76,0.136,0.22,-260.193,-20.325,-39.063,
00:00:07:250,0.728,0.162,0.222,-272.522,36.254,-48.34,
00:00:07:266,0.711,0.183,0.208,-240.235,90.087,-63.233,
00:00:07:283,0.724,0.198,0.21,-189.759,129.882,-79.895,
00:00:07:300,0.78,0.212,0.22,-132.813,165.405,-110.901,
00:00:07:316,0.857,0.214,0.222,-80.445,172.18,-144.654,
00:00:07:333,0.94,0.218,0.219,-27.039,190.002,-173.523,
00:00:07:350,1.003,0.223,0.196,11.901,179.016,-198.487,
00:00:07:366,1.104,0.223,0.099,20.629,121.948,-207.398,
00:00:07:383,1.155,0.216,0.072,-12.452,75.561,-191.102,
00:00:07:400,1.231,0.209,0.104,-47.791,52.673,-162.781,
00:00:07:416,1.293,0.202,0.166,-84.046,47.79,-117.859,
00:00:07:433,1.305,0.197,0.226,-165.101,68.359,-68.665,
00:00:07:450,1.244,0.217,0.219,-270.02,115.112,9.277,
00:00:07:466,1.151,0.26,0.163,-342.041,116.638,67.26,
00:00:07:483,1.04,0.314,0.132,-289.002,90.454,122.863,
00:00:07:500,0.96,0.294,0.116,-159.363,56.396,158.691,
00:00:07:516,0.906,0.252,0.102,-55.359,28.198,192.016,
00:00:07:533,0.902,0.233,0.078,-41.321,12.329,206.848,
00:00:07:550,0.924,0.265,0.021,-62.867,-26.246,186.706,
00:00:07:566,0.952,0.315,-0.031,-17.395,-96.131,153.93,
00:00:07:583,0.965,0.332,-0.06,75.256,-165.65,109.68,
00:00:07:600,0.965,0.309,-0.078,196.106,-219.239,85.022,
00:00:07:616,0.973,0.267,-0.089,250.671,-248.597,58.96,
00:00:07:633,0.993,0.244,-0.09,226.562,-255.188,60.607,
00:00:07:650,1.002,0.235,-0.092,148.376,-240.174,69.458,
00:00:07:666,0.983,0.229,-0.07,50.231,-207.825,104.553,
00:00:07:683,0.939,0.23,-0.031,3.906,-147.4,150.146,
00:00:07:700,0.91,0.208,0.003,29.052,-87.159,196.777,
00:00:07:716,0.884,0.182,0.022,72.509,-24.292,239.135,
00:00:07:733,0.856,0.162,0.018,62.439,18.981,269.714,
00:00:07:750,0.844,0.145,0.011,-2.503,43.273,277.832,
00:00:07:766,0.832,0.144,0.008,-69.886,62.255,265.564,
00:00:07:783,0.819,0.148,0.021,-122.986,70.19,239.624,
00:00:07:800,0.815,0.152,0.025,-150.025,84.106,192.321,
00:00:07:816,0.811,0.164,0.032,-154.175,90.881,137.695,
00:00:07:833,0.805,0.18,0.032,-149.048,101.074,75.195,
00:00:07:850,0.801,0.202,0.032,-134.339,107.849,-7.386,
00:00:07:866,0.806,0.222,0.045,-118.836,114.746,-80.811,
00:00:07:883,0.796,0.227,0.052,-78.919,117.248,-156.495,
00:00:07:900,0.792,0.221,0.079,-38.086,118.713,-217.164,
00:00:07:916,0.8,0.209,0.087,24.047,133.667,-264.1,
00:00:07:933,0.838,0.207,0.108,55.175,143.31,-312.745,
00:00:07:950,0.883,0.199,0.13,59.692,150.146,-352.784,
00:00:07:966,0.934,0.199,0.141,49.255,158.569,-385.437,
00:00:07:983,0.982,0.195,0.133,30.822,162.963,-418.519,
00:00:08:0,1.03,0.183,0.117,-14.954,151.916,-447.937,
00:00:08:16,1.056,0.176,0.118,-92.896,136.657,-459.107,
00:00:08:33,1.065,0.177,0.138,-198.914,119.323,-454.285,
00:00:08:50,1.063,0.197,0.155,-293.824,108.825,-430.298,
00:00:08:66,1.062,0.22,0.152,-363.77,89.599,-399.048,
00:00:08:83,1.082,0.228,0.123,-402.466,58.715,-363.77,
00:00:08:100,1.132,0.221,0.06,-425.904,16.479,-336.121,
00:00:08:116,1.167,0.215,0.021,-458.863,-65.308,-304.017,
00:00:08:133,1.172,0.214,0.02,-502.93,-134.217,-272.095,
00:00:08:150,1.23,0.206,-0.015,-574.402,-159.546,-266.907,
00:00:08:166,1.338,0.184,-0.021,-675.66,-186.951,-274.476,
00:00:08:183,1.275,0.173,0.033,-807.801,-239.197,-236.817,
00:00:08:200,1.049,0.187,0.102,-903.687,-238.038,-173.706,
00:00:08:216,0.885,0.168,0.097,-988.343,-207.703,-142.884,
00:00:08:233,0.781,0.135,0.091,-1042.481,-190.979,-81.421,
00:00:08:250,0.723,0.132,0.074,-1059.082,-172.791,-11.719,
00:00:08:266,0.749,0.152,0.048,-1012.757,-120.789,25.94,
00:00:08:283,0.847,0.182,0.008,-924.805,-113.282,37.353,
00:00:08:300,0.972,0.201,-0.018,-817.139,-147.889,41.015,
00:00:08:316,1.045,0.162,-0.024,-794.129,-219.3,51.696,
00:00:08:333,1.05,0.09,-0.059,-888.733,-252.442,48.217,
00:00:08:350,1.019,0.112,-0.028,-1028.992,-251.038,70.007,
00:00:08:366,0.979,0.203,0.012,-1044.495,-226.685,91.125,
00:00:08:383,0.911,0.287,0.075,-902.405,-181.397,97.168,
00:00:08:400,0.846,0.328,0.123,-682.679,-121.644,80.627,
00:00:08:416,0.792,0.327,0.124,-419.739,-58.96,53.894,
00:00:08:433,0.758,0.29,0.103,-175.171,-18.433,15.808,
00:00:08:450,0.744,0.244,0.092,-5.738,-3.785,-9.766,
00:00:08:466,0.743,0.204,0.095,97.045,6.408,-38.575,
00:00:08:483,0.765,0.177,0.085,136.779,10.009,-59.998,
00:00:08:500,0.807,0.156,0.08,133.85,2.807,-81.055,
00:00:08:516,0.852,0.144,0.093,87.951,-14.1,-97.657,
00:00:08:533,0.872,0.153,0.108,28.747,-26.856,-101.563,
00:00:08:550,0.866,0.192,0.126,-0.794,-22.828,-100.037,
00:00:08:566,0.862,0.226,0.155,15.991,-0.916,-98.023,
00:00:08:583,0.847,0.236,0.178,81.848,20.996,-90.882,
00:00:08:600,0.814,0.227,0.191,158.203,45.105,-72.144,
00:00:08:616,0.802,0.217,0.208,212.219,83.068,-57.19,
00:00:08:633,0.835,0.199,0.219,241.516,114.257,-50.232,
00:00:08:650,0.88,0.193,0.221,248.535,133.667,-41.993,
00:00:08:666,0.924,0.197,0.217,251.709,132.446,-38.636,
00:00:08:683,0.969,0.19,0.192,250.793,118.591,-40.039,
00:00:08:700,0.999,0.172,0.159,236.084,85.083,-38.636,
00:00:08:716,1.023,0.154,0.12,194.763,46.997,-30.03,
00:00:08:733,1.041,0.134,0.116,120.666,16.174,-14.1,
00:00:08:750,1.066,0.137,0.137,28.442,2.38,7.751,
00:00:08:766,1.085,0.154,0.156,-61.402,9.704,30.456,
00:00:08:783,1.128,0.178,0.159,-113.465,45.715,34.301,
00:00:08:800,1.204,0.209,0.152,-133.728,73.791,34.851,
00:00:08:816,1.249,0.217,0.152,-131.592,86.608,44.799,
00:00:08:833,1.211,0.228,0.151,-119.69,88.195,70.251,
00:00:08:850,1.14,0.248,0.123,-85.144,78.43,97.351,
00:00:08:866,1.057,0.248,0.12,-24.476,40.588,129.455,
00:00:08:883,0.963,0.212,0.138,33.386,0.122,176.635,
00:00:08:900,0.873,0.166,0.134,61.828,-25.025,221.252,
00:00:08:916,0.834,0.14,0.098,47.668,-35.462,242.37,
00:00:08:933,0.844,0.135,0.074,-7.813,-46.692,237.793,
00:00:08:950,0.888,0.171,0.033,-45.105,-74.036,217.651,
00:00:08:966,0.935,0.203,0.003,-51.514,-102.601,170.898,
00:00:08:983,0.976,0.22,0.002,-11.353,-142.151,122.436,
00:00:09:0,0.995,0.22,-0.008,38.024,-162.415,68.664,
00:00:09:16,1.003,0.22,-0.042,84.899,-176.941,21.24,
00:00:09:33,1.005,0.224,-0.061,114.135,-189.698,-27.405,
00:00:09:50,0.981,0.225,-0.06,130.92,-198.182,-55.359,
00:00:09:66,0.934,0.22,-0.045,133.728,-190.308,-68.482,
00:00:09:83,0.903,0.206,-0.023,118.286,-162.598,-66.346,
00:00:09:100,0.889,0.19,-0.006,88.012,-117.859,-44.922,
00:00:09:116,0.889,0.178,0.003,55.175,-76.111,-15.87,
00:00:09:133,0.886,0.166,-0.002,10.192,-41.993,17.883,
00:00:09:150,0.879,0.157,-0.007,-38.819,-15.625,51.696,
00:00:09:166,0.863,0.127,-0.005,-97.84,5.188,75.317,
00:00:09:183,0.845,0.161,-0.002,-151.917,21.118,80.017,
00:00:09:200,0.839,0.173,-0.001,-181.275,40.405,66.406,
00:00:09:216,0.834,0.182,0.005,-176.026,56.701,39.123,
00:00:09:233,0.821,0.19,0.015,-158.631,73.181,-3.235,
00:00:09:250,0.798,0.194,0.021,-136.475,86.12,-49.988,
00:00:09:266,0.773,0.2,0.044,-114.258,107.116,-106.629,
00:00:09:283,0.761,0.208,0.07,-83.741,132.08,-161.622,
00:00:09:300,0.796,0.189,0.111,-35.34,161.621,-215.21,
00:00:09:316,0.856,0.149,0.142,1.586,202.942,-269.349,
00:00:09:333,0.921,0.128,0.143,-23.987,209.35,-313.416,
00:00:09:350,0.97,0.133,0.111,-137.33,217.895,-347.474,
00:00:09:366,1.016,0.155,0.07,-245.362,203.979,-387.085,
00:00:09:383,1.059,0.171,0.037,-342.774,160.278,-411.072,
00:00:09:400,1.076,0.203,0.022,-392.212,94.726,-402.955,
00:00:09:416,1.074,0.226,0.038,-406.678,63.11,-384.522,
00:00:09:433,1.099,0.239,0.044,-386.963,49.865,-361.634,
00:00:09:450,1.155,0.238,0.047,-372.559,40.893,-348.755,
00:00:09:466,1.185,0.232,0.059,-378.663,26.123,-328.797,
00:00:09:483,1.138,0.245,0.079,-385.498,17.578,-301.026,
00:00:09:500,1.066,0.265,0.1,-380.555,18.615,-283.143,
00:00:09:516,1.03,0.268,0.098,-353.15,29.357,-266.724,
00:00:09:533,1.047,0.244,0.106,-327.454,27.282,-244.873,
00:00:09:550,1.077,0.207,0.091,-351.014,6.652,-214.478,
00:00:09:566,1.08,0.187,0.076,-420.533,-35.401,-177.979,
00:00:09:583,1.057,0.197,0.071,-501.282,-90.271,-140.076,
00:00:09:600,1.011,0.21,0.072,-557.068,-139.527,-95.765,
00:00:09:616,0.951,0.201,0.071,-597.29,-182.984,-39.246,
00:00:09:633,0.896,0.171,0.068,-619.019,-204.529,24.78,
00:00:09:650,0.857,0.162,0.079,-640.503,-203.431,88.501,
00:00:09:666,0.848,0.174,0.088,-628.479,-178.711,141.418,
00:00:09:683,0.887,0.184,0.093,-575.928,-140.32,163.269,
00:00:09:700,0.941,0.181,0.088,-481.812,-116.883,170.044,
00:00:09:716,0.962,0.165,0.092,-375.123,-113.587,166.015,
00:00:09:733,0.949,0.149,0.111,-277.955,-108.033,148.193,
00:00:09:750,0.925,0.133,0.142,-216.614,-94.117,115.905,
00:00:09:766,0.887,0.114,0.151,-179.078,-82.703,86.975,
00:00:09:783,0.839,0.092,0.152,-165.711,-75.257,69.641,
00:00:09:800,0.792,0.079,0.163,-156.617,-72.937,56.457,
00:00:09:816,0.774,0.083,0.173,-145.447,-56.519,48.4,
00:00:09:833,0.795,0.095,0.182,-126.893,-35.523,35.644,
00:00:09:850,0.836,0.102,0.178,-92.652,-26.917,0.427,
00:00:09:866,0.882,0.108,0.174,-68.787,-32.837,-6.653,
00:00:09:883,0.899,0.115,0.18,-55.42,-46.57,-46.753,
00:00:09:900,0.905,0.115,0.187,-33.204,-45.96,-74.463,
00:00:09:916,0.921,0.107,0.213,-2.991,-34.241,-110.474,
00:00:09:933,0.892,0.096,0.219,8.239,-30.091,-124.146,
00:00:09:950,0.823,0.092,0.229,-0.306,-21.424,-120.667,
00:00:09:966,0.781,0.098,0.249,-25.269,13.61,-110.718,
00:00:09:983,0.794,0.114,0.256,-54.505,70.129,-107.85,
00:00:10:0,0.86,0.133,0.251,-69.092,107.788,-106.385,
00:00:10:16,0.928,0.157,0.243,-71.656,116.088,-100.342,
00:00:10:33,0.974,0.179,0.218,-59.937,100.402,-99.793,
00:00:10:50,0.986,0.19,0.193,-53.894,67.749,-103.333,
00:00:10:66,0.985,0.193,0.151,-67.261,28.747,-96.802,
00:00:10:83,0.989,0.198,0.13,-103.15,-7.203,-84.351,
00:00:10:100,1.002,0.204,0.125,-139.71,-30.274,-55.787,
00:00:10:116,1.028,0.203,0.136,-168.58,-46.875,-24.598,
00:00:10:133,1.083,0.197,0.133,-197.51,-18.433,6.103,
00:00:10:150,1.176,0.197,0.131,-229.92,11.352,21.423,
00:00:10:166,1.271,0.221,0.122,-278.382,20.08,24.719,
00:00:10:183,1.281,0.269,0.112,-286.744,14.77,27.587,
00:00:10:200,1.215,0.319,0.104,-226.38,8.606,26.916,
00:00:10:216,1.118,0.33,0.098,-113.282,1.159,38.086,
00:00:10:233,1.021,0.296,0.112,18.554,-9.583,75.378,
00:00:10:250,0.874,0.135,0.118,187.866,-56.458,211.731,
00:00:10:266,0.857,0.121,0.095,104.004,-79.712,213.745,
00:00:10:283,0.864,0.133,0.082,2.563,-108.46,190.612,
00:00:10:300,0.889,0.151,0.058,-60.547,-135.437,156.799,
00:00:10:316,0.915,0.168,0.038,-87.891,-162.11,114.135,
00:00:10:333,0.942,0.193,0.016,-99.427,-173.157,59.021,walkRH
00:00:10:350,0.962,0.221,0.008,-95.581,-186.097,6.958,
00:00:10:366,0.962,0.256,0.016,-56.58,-187.745,-30.457,
00:00:10:383,0.938,0.261,0.051,0.61,-171.387,-61.89,
00:00:10:400,0.917,0.234,0.06,65.246,-133.24,-69.825,
00:00:10:416,0.898,0.206,0.061,103.82,-95.948,-49.012,
00:00:10:433,0.87,0.177,0.059,109.497,-64.82,-17.64,
00:00:10:450,0.851,0.142,0.061,81.909,-31.678,20.141,
00:00:10:466,0.847,0.123,0.062,10.681,-10.56,54.87,
00:00:10:483,0.835,0.123,0.055,-82.886,0.244,70.922,
00:00:10:500,0.825,0.14,0.047,-155.701,5.615,67.627,
00:00:10:516,0.806,0.168,0.033,-204.285,9.216,3.356,
00:00:10:533,0.775,0.191,0.05,-196.045,9.094,-47.669,
00:00:10:550,0.757,0.214,0.069,-157.227,29.357,-111.268,
00:00:10:566,0.785,0.232,0.08,-94.422,60.852,-174.317,
00:00:10:583,0.849,0.228,0.072,-21.363,78.308,-244.69,
00:00:10:600,0.92,0.21,0.067,20.446,84.961,-301.88,
00:00:10:616,1.01,0.206,0.063,28.625,86.242,-346.863,
00:00:10:633,1.083,0.22,0.061,18.554,71.777,-374.085,
00:00:10:650,1.093,0.23,0.072,14.343,50.231,-361.939,
00:00:10:666,1.067,0.225,0.112,20.935,42.236,-329.834,
00:00:10:683,1.034,0.201,0.132,25.512,47.79,-271.79,
00:00:10:700,1.024,0.147,0.128,9.399,58.471,-205.323,
00:00:10:716,1.052,0.097,0.125,-29.847,68.847,-140.015,
00:00:10:733,1.108,0.072,0.112,-122.071,65.551,-83.741,
00:00:10:750,1.166,0.079,0.1,-216.431,60.363,-71.289,
00:00:10:766,1.223,0.107,0.112,-299.744,43.457,-91.065,
00:00:10:783,1.196,0.144,0.137,-352.356,26.489,-126.221,
00:00:10:800,0.83,0.151,0.149,-217.957,-53.956,-171.936,
00:00:10:816,0.811,0.112,0.12,-208.008,-59.754,-122.559,
00:00:10:833,0.82,0.082,0.091,-221.558,-68.787,-62.195,
00:00:10:850,0.85,0.074,0.078,-270.264,-84.595,-12.452,
00:00:10:866,0.876,0.079,0.059,-330.933,-94.788,26.306,
00:00:10:883,0.892,0.108,0.055,-370.301,-108.704,43.518,
00:00:10:900,0.849,0.195,0.185,-258.789,-38.208,21.545,
00:00:10:916,0.831,0.197,0.189,-182.984,25.329,5.981,
00:00:10:933,0.836,0.182,0.189,-131.104,55.297,-2.625,
00:00:10:950,0.852,0.16,0.193,-108.338,79.834,-1.221,
00:00:10:966,0.905,0.153,0.196,-109.742,91.247,0.244,
00:00:10:983,0.905,0.158,0.193,-114.991,85.51,2.624,
00:00:11:0,0.924,0.165,0.196,-106.751,59.875,3.234,
00:00:11:16,0.935,0.167,0.196,-88.44,36.071,3.906,
00:00:11:33,0.937,0.165,0.206,-70.984,10.192,5.065,
00:00:11:50,0.932,0.155,0.224,-56.153,-5.433,7.751,
00:00:11:66,0.925,0.141,0.242,-44.8,-4.944,12.023,
00:00:11:83,0.906,0.126,0.258,-62.378,-1.282,17.211,
00:00:11:100,0.878,0.124,0.263,-63.172,8.667,19.348,
00:00:11:116,0.854,0.127,0.273,-72.51,27.587,16.174,
00:00:11:133,0.852,0.131,0.27,-66.102,46.814,11.352,
00:00:11:150,0.857,0.141,0.263,-55.787,55.542,2.441,
00:00:11:166,0.877,0.155,0.252,-32.349,60.18,-9.827,
00:00:11:183,0.907,0.164,0.239,-0.977,57.8,-29.419,
00:00:11:200,0.942,0.165,0.227,37.231,42.297,-48.829,
00:00:11:216,0.956,0.161,0.212,63.781,11.596,-59.205,
00:00:11:233,0.951,0.161,0.205,78.369,-10.254,-60.181,
00:00:11:250,0.955,0.16,0.2,82.397,-17.334,-60.181,
00:00:11:266,0.956,0.155,0.204,75.805,-19.654,-50.232,
00:00:11:283,0.966,0.152,0.199,63.659,-10.682,-37.781,
00:00:11:300,1,0.143,0.197,46.569,10.62,-31.861,
00:00:11:316,1.061,0.138,0.194,14.343,30.456,-34.058,
00:00:11:333,1.118,0.141,0.17,-31.617,40.954,-45.227,
00:00:11:350,1.172,0.168,0.15,-75.989,42.358,-65.064,
00:00:11:366,1.188,0.197,0.122,-101.38,15.808,-88.746,
00:00:11:383,1.171,0.225,0.097,-99.122,17.089,-97.596,
00:00:11:400,1.122,0.248,0.082,-68.909,-10.315,-94.3,
00:00:11:416,1.048,0.257,0.091,-8.606,-22.767,-69.519,
00:00:11:433,0.967,0.243,0.109,68.725,-18.677,-32.593,
00:00:11:450,0.921,0.212,0.119,134.46,2.136,12.817,
00:00:11:466,0.896,0.18,0.098,153.076,22.277,57.19,
00:00:11:483,0.876,0.165,0.076,107.544,25.146,93.261,
00:00:11:500,0.861,0.166,0.052,37.17,23.986,118.347,
00:00:11:516,0.861,0.171,0.021,-17.762,24.597,133.85,
00:00:11:533,0.87,0.179,-0.007,-49.5,12.451,146.972,
00:00:11:550,0.885,0.192,-0.025,-53.65,0.976,141.113,
00:00:11:566,0.909,0.207,-0.035,-36.194,-9.095,116.333,
00:00:11:583,0.945,0.229,-0.031,2.258,-12.207,82.946,
00:00:11:600,0.976,0.255,-0.012,63.171,-13.672,39.306,
00:00:11:616,0.967,0.26,-0.007,129.699,-6.775,2.807,
00:00:11:633,0.929,0.237,-0.004,182.067,6.164,-23.133,
00:00:11:650,0.891,0.209,0.007,203.918,27.648,-31.617,
00:00:11:666,0.861,0.189,0.022,193.42,52.734,-19.165,
00:00:11:683,0.851,0.179,0.051,168.335,85.449,0.61,
00:00:11:700,0.86,0.17,0.031,133.484,109.069,14.831,
00:00:11:716,0.859,0.168,0.06,98.693,121.154,27.282,
00:00:11:733,0.867,0.179,0.057,72.876,122.253,21.85,
00:00:11:750,0.873,0.194,0.053,69.03,123.047,3.356,
00:00:11:766,0.886,0.206,0.047,83.252,110.595,-29.908,
00:00:11:783,0.894,0.211,0.056,102.295,95.642,-63.355,
00:00:11:800,0.885,0.202,0.078,108.825,82.946,-99.122,
00:00:11:816,0.866,0.191,0.087,104.919,75.256,-125.367,
00:00:11:833,0.836,0.192,0.107,88.256,70.19,-134.217,
00:00:11:850,0.828,0.197,0.118,71.35,76.416,-147.156,
00:00:11:866,0.866,0.2,0.12,50.231,80.261,-159.913,
00:00:11:883,0.92,0.2,0.107,34.912,74.218,-171.204,
00:00:11:900,0.967,0.205,0.095,18.493,50.415,-185.425,
00:00:11:916,1.01,0.211,0.087,-0.977,22.399,-200.562,
00:00:11:933,1.041,0.222,0.091,-17.701,-9.156,-204.407,
00:00:11:950,1.053,0.228,0.102,-21.18,-26.856,-197.327,
00:00:11:966,1.061,0.217,0.103,-25.452,-37.537,-180.542,
00:00:11:983,1.092,0.193,0.092,-52.613,-30.579,-162.354,
00:00:12:0,1.166,0.175,0.082,-106.263,-17.456,-142.945,
00:00:12:16,1.223,0.178,0.086,-186.707,-19.349,-122.925,
00:00:12:33,1.217,0.203,0.095,-248.597,-19.532,-97.107,
00:00:12:50,1.179,0.233,0.099,-262.879,-15.198,-73.975,
00:00:12:66,1.122,0.233,0.097,-248.047,-14.893,-46.143,
00:00:12:83,1.067,0.217,0.119,-239.014,-21.119,-1.404,
00:00:12:100,1.002,0.193,0.133,-252.503,-29.48,38.635,
00:00:12:116,0.935,0.174,0.132,-282.471,-46.57,80.81,
00:00:12:133,0.88,0.173,0.138,-322.998,-69.397,117.981,
00:00:12:150,0.827,0.177,0.134,-349.488,-96.436,132.385,
00:00:12:166,0.795,0.171,0.119,-354.004,-118.226,142.944,
00:00:12:183,0.8,0.177,0.1,-342.713,-140.809,149.902,
00:00:12:200,0.826,0.184,0.094,-310.486,-173.218,147.033,
00:00:12:216,0.852,0.179,0.106,-256.226,-186.097,133.85,
00:00:12:233,0.873,0.183,0.124,-197.083,-189.27,120.239,
00:00:12:250,0.899,0.189,0.12,-149.17,-162.598,94.421,
00:00:12:266,0.938,0.194,0.127,-99.427,-131.165,64.636,
00:00:12:283,0.957,0.197,0.139,-45.899,-93.689,38.635,
00:00:12:300,0.945,0.196,0.147,12.756,-58.777,21.972,
00:00:12:316,0.924,0.195,0.145,63.964,-14.466,2.258,
00:00:12:333,0.904,0.197,0.148,120.239,11.657,-3.418,
00:00:12:350,0.88,0.19,0.138,164.734,34.545,-2.259,
00:00:12:366,0.867,0.18,0.145,192.932,44.372,-1.404,
00:00:12:383,0.86,0.172,0.153,210.022,57.983,0.549,
00:00:12:400,0.862,0.166,0.145,227.172,66.345,-3.907,
00:00:12:416,0.865,0.166,0.14,232.177,69.885,-13.306,
00:00:12:433,0.875,0.17,0.144,204.284,71.655,-32.898,
00:00:12:450,0.894,0.173,0.149,198.303,74.523,-53.467,
00:00:12:466,0.903,0.179,0.151,195.678,85.754,-63.172,
00:00:12:483,0.905,0.194,0.144,199.035,95.459,-76.416,
00:00:12:500,0.906,0.194,0.145,197.021,108.154,-88.074,
00:00:12:516,0.899,0.193,0.135,179.809,121.093,-89.783,
00:00:12:533,0.889,0.192,0.142,160.278,130.005,-81.604,
00:00:12:550,0.872,0.205,0.171,161.499,147.094,-71.289,
00:00:12:566,0.862,0.214,0.2,178.1,169.86,-64.698,
00:00:12:583,0.856,0.232,0.207,206.482,193.481,-68.604,
00:00:12:600,0.863,0.245,0.201,246.093,211.364,-82.581,
00:00:12:616,0.869,0.243,0.2,287.048,217.59,-101.746,
00:00:12:633,0.88,0.248,0.206,321.594,213.928,-125.733,
00:00:12:650,0.896,0.255,0.216,350.586,210.632,-145.142,
00:00:12:666,0.927,0.251,0.198,375,204.406,-158.204,
00:00:12:683,0.955,0.253,0.165,381.836,187.378,-154.969,
00:00:12:700,0.99,0.256,0.134,379.394,164.917,-145.447,
00:00:12:716,1.009,0.255,0.115,363.525,134.277,-122.437,
00:00:12:733,0.989,0.255,0.1,350.097,105.835,-65.247,
00:00:12:750,0.96,0.26,0.092,353.271,109.68,-17.701,
00:00:12:766,0.962,0.259,0.099,395.385,128.479,41.015,
00:00:12:783,0.991,0.231,0.096,444.885,159.179,78.186,
00:00:12:800,1.018,0.21,0.117,460.205,182.19,117.92,
00:00:12:816,1.033,0.202,0.079,447.937,201.294,129.76,
00:00:12:833,1.046,0.193,0.041,422.668,196.228,121.338,
00:00:12:850,1.061,0.198,0.011,386.779,171.814,108.154,
00:00:12:866,1.047,0.218,-0.004,360.473,136.108,92.102,
00:00:12:883,0.972,0.249,-0.046,483.764,101.501,60.363,
00:00:12:900,0.927,0.241,-0.01,532.531,112.915,65.979,
00:00:12:916,0.893,0.228,0.019,593.139,155.944,75.622,
00:00:12:933,0.879,0.211,0.011,597.534,188.11,86.731,
00:00:12:950,0.872,0.196,-0.026,579.284,214.172,97.106,
00:00:12:966,0.879,0.194,-0.08,539.611,228.515,84.838,
00:00:12:983,0.877,0.212,-0.133,510.315,223.999,62.988,
00:00:13:0,0.873,0.265,-0.167,557.006,216.98,15.869,
00:00:13:16,0.889,0.324,-0.183,661.682,224.243,-40.162,
00:00:13:33,0.93,0.349,-0.193,850.341,228.21,-117.432,
00:00:13:50,0.965,0.348,-0.207,1039.55,227.6,-175.477,
00:00:13:66,0.972,0.326,-0.211,1206.237,218.2,-214.234,
00:00:13:83,0.978,0.273,-0.215,1286.804,218.139,-235.108,
00:00:13:100,0.996,0.223,-0.207,1270.324,203.613,-228.577,
00:00:13:116,0.994,0.181,-0.17,1158.081,174.621,-190.613,
00:00:13:133,0.966,0.145,-0.162,987.182,147.949,-134.095,
00:00:13:150,0.938,0.116,-0.145,752.807,119.445,-64.637,
00:00:13:166,0.914,0.105,-0.137,512.939,97.656,15.197,
00:00:13:183,0.907,0.107,-0.115,277.038,85.144,84.35,
00:00:13:200,0.909,0.143,-0.093,92.041,98.938,141.784,
00:00:13:216,0.921,0.185,-0.079,-9.095,113.891,172.241,
00:00:13:233,0.936,0.22,-0.077,-42.481,137.817,175.659,
00:00:13:250,0.942,0.255,-0.079,-17.456,150.268,161.926,
00:00:13:266,0.948,0.282,-0.076,52.429,156.372,132.507,
00:00:13:283,0.942,0.297,-0.083,151.611,155.151,93.689,
00:00:13:300,0.932,0.299,-0.076,281.555,141.479,50.659,
00:00:13:316,0.927,0.281,-0.067,402.954,122.314,11.901,
00:00:13:333,0.916,0.248,-0.047,475.769,105.774,-16.846,
00:00:13:350,0.901,0.225,-0.032,510.925,87.707,-31.617,
00:00:13:366,0.905,0.217,-0.016,514.709,71.716,-45.594,
00:00:13:383,0.927,0.208,-0.021,499.572,53.894,-53.345,
00:00:13:400,0.956,0.194,-0.032,459.655,25.451,-60.12,
00:00:13:416,0.98,0.184,-0.044,390.869,-10.682,-67.566,
00:00:13:433,1,0.182,-0.041,303.161,-47.486,-71.473,
00:00:13:450,1.002,0.186,-0.036,203.552,-73.731,-70.13,
00:00:13:466,1.017,0.193,-0.03,130.127,-76.6,-68.97,
00:00:13:483,1.038,0.201,-0.023,59.143,-75.684,-65.552,
00:00:13:500,1.048,0.217,-0.016,5.493,-72.876,-60.181,
00:00:13:516,1.037,0.233,-0.015,-21.424,-66.651,-54.139,
00:00:13:533,1.02,0.246,-0.006,-28.382,-59.449,-50.171,
00:00:13:550,1.006,0.25,-0.01,-21.912,-61.341,-42.786,
00:00:13:566,1.004,0.251,-0.011,-9.705,-63.477,-38.819,
00:00:13:583,1.018,0.249,0.013,9.216,-65.003,-38.147,
00:00:13:600,1,0.239,0.042,31.005,-69.581,-34.607,
00:00:13:616,0.969,0.226,0.092,42.419,-61.036,-33.692,
00:00:13:633,0.937,0.216,0.068,33.691,-63.721,-32.593,
00:00:13:650,0.863,0.243,0.065,125.549,-57.373,-52.918,
00:00:13:666,0.865,0.236,0.04,132.69,-43.091,-56.397,
00:00:13:683,0.875,0.243,0.043,133.422,-30.884,-59.021,
00:00:13:700,0.896,0.264,0.066,140.625,-4.456,-57.557,
00:00:13:716,0.929,0.285,0.072,175.232,30.822,-56.214,
00:00:13:733,0.969,0.312,0.084,245.483,63.903,-45.227,
00:00:13:750,1.001,0.331,0.088,346.679,92.895,-15.992,
00:00:13:766,1.023,0.337,0.103,477.966,118.591,-6.165,
00:00:13:783,1.044,0.315,0.11,604.431,132.568,26.062,
00:00:13:800,1.053,0.275,0.116,722.412,130.493,58.654,
00:00:13:816,1.04,0.228,0.114,796.875,102.661,101.379,
00:00:13:833,1.005,0.162,0.108,832.824,68.969,136.963,
00:00:13:850,0.964,0.087,0.117,799.194,16.235,162.536,
00:00:13:866,0.923,0.021,0.134,700.439,-0.855,188.049,
00:00:13:883,0.875,-0.002,0.128,546.936,7.812,206.97,
00:00:13:900,0.855,0.021,0.112,421.875,38.818,211.425,
00:00:13:916,0.865,0.066,0.105,320.678,73.852,200.744,
00:00:13:933,0.875,0.111,0.097,265.564,106.872,163.696,
00:00:13:950,0.881,0.148,0.089,260.559,136.963,117.614,
00:00:13:966,0.88,0.181,0.075,309.265,160.766,68.176,
00:00:13:983,0.884,0.199,0.049,400.573,175.048,13.916,
00:00:14:0,0.884,0.212,0.036,526.794,170.898,-28.199,
00:00:14:16,0.871,0.202,0.042,632.324,172.79,-62.256,
00:00:14:33,0.863,0.17,0.059,700.195,176.208,-84.046,
00:00:14:50,0.86,0.141,0.057,712.341,201.049,-89.905,
00:00:14:66,0.869,0.131,0.054,684.082,216.186,-89.051,
00:00:14:83,0.899,0.136,0.067,629.516,234.741,-91.065,
00:00:14:100,0.928,0.145,0.079,579.345,248.962,-89.112,
00:00:14:116,0.918,0.16,0.124,533.752,257.446,-81.177,
00:00:14:133,0.903,0.17,0.104,503.357,271.972,-72.876,
00:00:14:150,0.907,0.19,0.11,490.478,280.456,-66.712,
00:00:14:166,0.913,0.206,0.11,498.962,286.377,-58.045,
00:00:14:183,0.92,0.211,0.104,517.395,278.747,-52.002,
00:00:14:200,0.921,0.215,0.074,548.217,269.043,-38.086,
00:00:14:216,0.925,0.22,0.04,575.134,255.188,-23.682,
00:00:14:233,0.974,0.22,0.044,590.271,250.732,-30.335,
00:00:14:250,1.041,0.214,0.062,591.064,247.802,-43.702,
00:00:14:266,1.047,0.199,0.075,554.87,229.736,-45.899,
00:00:14:283,1.011,0.197,0.035,510.803,208.984,-44.739,
00:00:14:300,1.02,0.198,-0.047,438.476,191.833,-45.655,
00:00:14:316,1.052,0.215,-0.102,353.515,135.009,-51.453,
00:00:14:333,1.043,0.232,-0.11,261.291,78.552,-55.97,walkRH
00:00:14:350,1.009,0.248,-0.107,200.744,59.265,-48.218,
00:00:14:366,0.98,0.278,-0.113,184.57,57.8,-33.326,
00:00:14:383,0.907,0.307,-0.109,228.82,58.96,-13.367,
00:00:14:400,0.919,0.318,-0.098,325.927,91.735,11.596,
00:00:14:416,0.948,0.31,-0.116,421.814,125.854,37.109,
00:00:14:433,0.964,0.291,-0.129,518.249,140.136,63.903,
00:00:14:450,0.96,0.276,-0.131,590.942,147.033,87.158,
00:00:14:466,0.956,0.265,-0.143,626.953,143.432,96.862,
00:00:14:483,0.968,0.244,-0.15,629.272,133.239,100.219,
00:00:14:500,0.987,0.217,-0.153,610.717,94.055,102.722,
00:00:14:516,0.994,0.196,-0.146,563.049,86.303,112.121,
00:00:14:533,0.983,0.181,-0.134,493.042,67.871,115.783,
00:00:14:550,0.956,0.183,-0.123,416.076,58.593,121.704,
00:00:14:566,0.931,0.193,-0.114,350.036,65.673,125.488,
00:00:14:583,0.917,0.21,-0.103,323.486,77.331,126.648,
00:00:14:600,0.909,0.223,-0.099,330.566,90.942,127.014,
00:00:14:616,0.907,0.235,-0.088,367.309,104.614,119.262,
00:00:14:633,0.912,0.238,-0.087,422.607,111.816,102.111,
00:00:14:650,0.909,0.228,-0.071,474.243,108.764,80.2,
00:00:14:666,0.901,0.248,-0.061,505.066,106.872,56.518,
00:00:14:683,0.888,0.214,-0.055,529.235,97.839,34.057,
00:00:14:700,0.877,0.21,-0.057,540.1,82.397,10.681,
00:00:14:716,0.879,0.2,-0.058,537.231,64.575,-9.034,
00:00:14:733,0.873,0.184,-0.051,511.291,46.569,-33.875,
00:00:14:750,0.88,0.172,-0.037,462.28,35.827,-52.063,
00:00:14:766,0.905,0.167,-0.03,399.719,28.442,-76.844,
00:00:14:783,0.966,0.174,-0.026,335.693,24.597,-101.624,
00:00:14:800,0.957,0.181,-0.03,270.141,19.836,-127.808,
00:00:14:816,0.966,0.186,-0.02,214.782,10.803,-156.739,
00:00:14:833,0.98,0.196,-0.021,157.104,10.681,-183.35,
00:00:14:850,1.009,0.208,-0.014,108.52,14.343,-212.708,
00:00:14:866,1.043,0.222,0.006,81.054,18.554,-229.187,
00:00:14:883,1.096,0.235,-0.001,71.533,35.583,-244.568,
00:00:14:900,1.142,0.237,0,64.025,34.545,-258.423,
00:00:14:916,1.133,0.246,0.021,69.274,37.048,-250.428,
00:00:14:933,1.073,0.258,0.046,94.604,41.259,-225.403,
00:00:14:950,1.02,0.251,0.08,137.085,47.607,-201.416,
00:00:14:966,1.008,0.235,0.114,182.8,71.472,-171.692,
00:00:14:983,1.063,0.206,0.153,200.866,93.811,-151.123,
00:00:15:0,1.12,0.18,0.161,185.058,95.153,-133.545,
00:00:15:16,1.121,0.153,0.139,132.568,65.368,-114.991,
00:00:15:33,1.081,0.134,0.105,38.757,9.46,-101.502,
00:00:15:50,1.013,0.12,0.065,-73.792,-68.787,-78.125,
00:00:15:66,0.938,0.118,0.045,-173.035,-149.353,-42.969,
00:00:15:83,0.874,0.122,0.049,-255.127,-213.44,-1.648,
00:00:15:100,0.819,0.131,0.056,-304.993,-250.733,49.011,
00:00:15:116,0.779,0.133,0.071,-320.74,-266.419,90.82,
00:00:15:133,0.76,0.131,0.062,-312.256,-245.362,127.99,
00:00:15:150,0.784,0.131,0.041,-282.593,-223.511,150.879,
00:00:15:166,0.834,0.134,0.028,-246.766,-204.468,157.714,
00:00:15:183,0.884,0.155,0.015,-199.524,-189.026,149.841,
00:00:15:200,0.921,0.164,0.023,-127.991,-172.303,122.802,
00:00:15:216,0.936,0.163,0.054,-40.162,-134.644,74.646,
00:00:15:233,0.935,0.158,0.081,41.565,-88.318,34.179,
00:00:15:250,0.919,0.149,0.085,100.586,-33.143,-9.4,
00:00:15:266,0.909,0.155,0.082,161.56,13.855,-43.702,
00:00:15:283,0.904,0.182,0.109,210.754,49.011,-74.83,
00:00:15:300,0.88,0.198,0.145,280.395,93.383,-100.525,
00:00:15:316,0.874,0.197,0.175,369.201,111.938,-113.892,
00:00:15:333,0.878,0.182,0.181,464.416,132.202,-112.793,
00:00:15:350,0.873,0.158,0.171,504.272,133.667,-102.539,
00:00:15:366,0.865,0.11,0.163,510.559,124.023,-86.304,
00:00:15:383,0.87,0.066,0.151,454.712,108.764,-72.632,
00:00:15:400,0.874,0.036,0.153,343.444,88.44,-52.552,
00:00:15:416,0.877,0.03,0.166,218.567,66.589,-32.532,
00:00:15:433,0.868,0.037,0.184,92.773,51.818,-12.207,
00:00:15:450,0.831,0.056,0.192,-12.024,41.442,5.493,
00:00:15:466,0.805,0.089,0.207,-53.589,49.682,17.517,
00:00:15:483,0.8,0.121,0.213,-61.768,70.495,15.869,
00:00:15:500,0.824,0.146,0.202,-30.213,83.252,5.493,
00:00:15:516,0.867,0.163,0.176,27.465,88.195,-10.804,
00:00:15:533,0.915,0.17,0.172,91.491,81.909,-32.532,
00:00:15:550,0.967,0.167,0.155,132.873,66.833,-47.669,
00:00:15:566,0.994,0.161,0.149,148.864,47.424,-54.505,
00:00:15:583,1.011,0.166,0.14,156.555,46.447,-53.467,
00:00:15:600,1.036,0.171,0.135,151.489,52.856,-58.472,
00:00:15:616,1.063,0.163,0.127,132.507,57.861,-50.171,
00:00:15:633,1.087,0.166,0.115,93.139,67.138,-39.856,
00:00:15:650,1.113,0.185,0.078,48.767,79.223,-30.518,
00:00:15:666,1.183,0.203,0.066,48.706,93.75,-30.03,
00:00:15:683,1.254,0.221,0.054,54.077,96.069,-33.143,
00:00:15:700,1.255,0.239,0.042,73.303,91.247,-24.048,
00:00:15:716,1.194,0.248,0.034,112.548,89.05,-11.231,
00:00:15:733,1.074,0.257,0.026,155.578,76.477,16.784,
00:00:15:750,0.958,0.25,0.043,211.547,65.795,54.504,
00:00:15:766,0.848,0.219,0.068,275.512,76.843,108.337,
00:00:15:783,0.8,0.187,0.065,306.579,104.858,154.846,
00:00:15:800,0.809,0.164,0.048,305.114,132.202,178.161,
00:00:15:816,0.856,0.159,0.029,287.963,133.056,180.236,
00:00:15:833,0.909,0.175,0.013,278.137,110.351,159.607,
00:00:15:850,0.939,0.211,-0.006,284.973,73.242,115.539,
00:00:15:866,0.937,0.256,-0.043,311.462,38.269,57.251,
00:00:15:883,0.937,0.301,-0.082,364.38,14.892,-23.133,
00:00:15:900,0.943,0.319,-0.097,480.529,-2.198,-89.905,
00:00:15:916,0.955,0.323,-0.059,629.15,10.376,-134.705,
00:00:15:933,0.945,0.3,-0.031,760.681,37.597,-139.954,
00:00:15:950,0.925,0.264,-0.02,858.154,82.824,-124.207,
00:00:15:966,0.92,0.21,-0.032,883.117,123.962,-93.873,
00:00:15:983,0.928,0.165,-0.038,833.618,142.273,-50.721,
00:00:16:0,0.931,0.124,-0.032,706.726,138.305,-2.808,
00:00:16:16,0.923,0.106,-0.029,540.649,121.643,39.856,
00:00:16:33,0.909,0.097,-0.036,355.346,99.426,69.152,
00:00:16:50,0.901,0.094,-0.034,186.584,76.232,85.449,
00:00:16:66,0.885,0.109,-0.02,28.076,58.349,87.524,
00:00:16:83,0.862,0.135,0.001,-74.341,50.964,80.261,
00:00:16:100,0.837,0.159,0.02,-131.226,50.903,66.467,
00:00:16:116,0.813,0.189,0.043,-139.039,63.842,37.048,
00:00:16:133,0.805,0.211,0.044,-105.164,85.083,-3.296,
00:00:16:150,0.834,0.236,0.045,-30.579,102.05,-46.631,
00:00:16:166,0.905,0.238,0.034,44.982,101.623,-93.934,
00:00:16:183,0.952,0.219,0.019,113.098,74.585,-129.212,
00:00:16:200,0.971,0.194,0.009,135.986,37.048,-151.49,
00:00:16:216,0.985,0.174,0.016,116.394,4.089,-160.706,
00:00:16:233,1.006,0.15,0.015,68.725,-25.33,-157.349,
00:00:16:250,1.047,0.117,0.01,-0.855,-48.951,-142.762,
00:00:16:266,1.128,0.087,0.004,-109.009,-61.829,-128.846,
00:00:16:283,1.214,0.077,0.004,-242.249,-78.37,-111.878,
00:00:16:300,1.278,0.086,0.019,-400.574,-73.182,-105.957,
00:00:16:316,1.27,0.132,0.065,-508.728,-63.355,-98.572,
00:00:16:333,1.148,0.18,0.105,-523.499,-34.607,-86.426,
00:00:16:350,1.036,0.194,0.134,-473.999,5.065,-87.586,
00:00:16:366,0.968,0.197,0.156,-391.968,34.362,-78.492,
00:00:16:383,0.901,0.192,0.163,-291.626,38.94,-59.449,
00:00:16:400,0.845,0.186,0.17,-192.322,34.301,-50.721,
00:00:16:416,0.838,0.18,0.154,-99.732,36.743,-51.636,
00:00:16:433,0.871,0.17,0.108,-11.719,19.47,-55.97,
00:00:16:450,0.912,0.155,0.067,55.358,-45.594,-56.824,
00:00:16:466,0.933,0.132,0.061,95.642,-90.027,-53.101,
00:00:16:483,0.936,0.123,0.083,103.393,-133.789,-48.829,
00:00:16:500,0.939,0.13,0.104,100.83,-131.958,-47.608,
00:00:16:516,0.956,0.133,0.119,108.703,-117.127,-39.246,
00:00:16:533,0.958,0.133,0.131,115.112,-92.469,-18.982,
00:00:16:550,0.942,0.124,0.127,122.497,-60.669,3.723,
00:00:16:566,0.918,0.114,0.118,126.953,-27.161,36.499,
00:00:16:583,0.906,0.106,0.113,119.506,-6.958,65.612,
00:00:16:600,0.898,0.09,0.098,112.121,1.159,86.303,
00:00:16:616,0.898,0.08,0.098,94.299,0.366,98.999,
00:00:16:633,0.896,0.085,0.097,74.707,-1.954,100.952,
00:00:16:650,0.905,0.098,0.109,74.34,-5.066,92.468,
00:00:16:667,0.913,0.103,0.117,88.012,-3.052,79.162,
00:00:16:683,0.916,0.101,0.117,106.567,-0.245,62.133,
00:00:16:700,0.905,0.096,0.117,113.708,3.356,56.457,
00:00:16:717,0.866,0.104,0.122,129.089,5.249,63.049,
00:00:16:733,0.828,0.103,0.142,146.118,11.779,70.129,
00:00:16:750,0.799,0.1,0.161,165.71,32.287,80.383,
00:00:16:767,0.797,0.103,0.17,171.447,62.744,80.932,
00:00:16:783,0.836,0.11,0.178,177.002,85.632,68.786,
00:00:16:800,0.896,0.127,0.173,191.04,96.74,52.368,
00:00:16:817,0.944,0.145,0.158,218.689,95.825,30.578,
00:00:16:833,0.98,0.156,0.147,253.234,78.247,6.286,
00:00:16:850,0.993,0.14,0.133,289.062,57.556,-9.156,
00:00:16:867,0.983,0.111,0.132,299.987,38.147,-5.494,
00:00:16:883,0.975,0.083,0.127,280.029,39.184,5.737,
00:00:16:900,0.954,0.063,0.117,234.497,44.006,29.785,
00:00:16:917,0.924,0.05,0.091,162.353,60.913,53.039,
00:00:16:933,0.924,0.056,0.068,96.313,91.919,60.119,
00:00:16:950,0.984,0.075,0.042,35.095,130.615,46.081,
00:00:16:967,1.112,0.099,0.023,10.253,156.921,7.873,
00:00:16:983,1.23,0.138,0.001,-2.503,159.607,-37.598,
00:00:17:0,1.247,0.179,-0.027,15.625,128.051,-82.276,
00:00:17:17,1.151,0.201,-0.047,54.565,101.135,-115.967,
00:00:17:33,1.025,0.206,-0.073,98.449,67.565,-135.254,
00:00:17:50,0.917,0.199,-0.061,111.938,45.044,-128.052,
00:00:17:67,0.823,0.176,-0.023,109.436,47.302,-102.662,
00:00:17:83,0.807,0.156,0.015,90.698,103.027,-67.383,
00:00:17:100,0.892,0.15,0.005,54.687,148.559,-49.744,
00:00:17:117,1.021,0.205,-0.095,-121.46,83.007,-36.255,
00:00:17:133,1.009,0.219,-0.111,-145.813,44.86,-37.598,
00:00:17:150,0.965,0.227,-0.105,-149.476,14.831,-24.903,
00:00:17:167,0.92,0.228,-0.067,-144.837,17.944,-9.4,
00:00:17:183,0.888,0.215,-0.017,-138.001,49.804,12.39,
00:00:17:200,0.868,0.198,-0.019,-164.49,154.724,67.26,
00:00:17:217,0.864,0.203,-0.012,-168.396,155.09,58.044,
00:00:17:233,0.875,0.201,0.016,-170.594,150.756,38.94,
00:00:17:250,0.882,0.192,0.03,-181.763,143.615,16.418,
00:00:17:267,0.878,0.199,0.024,-196.9,144.897,-4.334,
00:00:17:283,0.877,0.238,0.003,-210.511,152.282,-29.541,
00:00:17:300,0.89,0.282,0.002,-202.515,149.292,-70.862,
00:00:17:317,0.886,0.309,0.011,-151.856,130.737,-103.577,
00:00:17:333,0.868,0.319,0.016,-80.506,116.577,-127.503,
00:00:17:350,0.874,0.307,0.017,-18.372,117.492,-144.043,
00:00:17:367,0.921,0.291,0.019,16.662,113.952,-153.626,
00:00:17:383,0.973,0.279,0.043,29.968,97.168,-151.368,
00:00:17:400,1.002,0.264,0.067,33.752,80.139,-133.851,
00:00:17:417,1.016,0.239,0.066,31.066,73.852,-108.582,
00:00:17:433,1.025,0.219,0.06,25.817,67.81,-79.773,
00:00:17:450,1.01,0.205,0.069,-13.855,43.457,-54.932,
00:00:17:467,0.976,0.222,0.103,-47.974,33.935,-26.062,
00:00:17:483,0.971,0.236,0.123,-60.852,37.353,-31.373,
00:00:17:500,0.99,0.229,0.098,-53.406,20.874,-45.289,
00:00:17:517,1.002,0.2,0.047,-76.6,-32.715,-54.81,
00:00:17:533,1.011,0.181,-0.012,-154.114,-94.91,-70.313,
00:00:17:550,1.016,0.187,-0.016,-252.747,-167.481,-74.341,
00:00:17:567,0.997,0.209,-0.01,-318.604,-216.614,-62.561,
00:00:17:583,0.999,0.207,0.002,-342.102,-221.741,-55.298,
00:00:17:600,1.046,0.186,-0.009,-354.615,-203.309,-48.89,
00:00:17:617,1.13,0.178,-0.023,-390.686,-179.81,-37.415,
00:00:17:633,1.165,0.197,-0.031,-420.899,-167.664,-26.917,
00:00:17:650,1.11,0.226,-0.005,-389.039,-148.682,-31.739,
00:00:17:667,1.066,0.244,0.033,-280.945,-112.671,-48.279,
00:00:17:683,1.03,0.242,0.058,-125.061,-83.924,-58.655,
00:00:17:700,0.981,0.205,0.052,44.067,-85.45,-48.829,
00:00:17:717,0.93,0.15,0.03,172.058,-115.967,-25.269,
00:00:17:733,0.895,0.07,0,184.448,-156.922,-3.296,
00:00:17:750,0.896,0.011,-0.029,90.393,-191.102,15.625,
00:00:17:767,0.933,-0.016,-0.034,-60.059,-220.154,45.044,
00:00:17:783,0.983,-0.009,-0.02,-144.959,-231.507,63.598,
00:00:17:800,1.01,0.025,0.017,-182.74,-228.821,78.369,
00:00:17:817,1,0.066,0.068,-175.721,-201.661,66.894,
00:00:17:833,0.978,0.087,0.09,-155.152,-138.55,28.808,
00:00:17:850,0.927,0.099,0.092,-136.658,-75.074,-8.973,
00:00:17:867,0.868,0.1,0.094,-113.099,-31.922,-41.687,
00:00:17:883,0.821,0.099,0.109,-75.379,-0.489,-59.632,
00:00:17:900,0.814,0.103,0.114,-31.983,34.24,-72.205,
00:00:17:917,0.841,0.103,0.115,2.746,57.067,-89.478,
00:00:17:933,0.874,0.1,0.101,31.555,52.673,-97.046,
00:00:17:950,0.888,0.095,0.092,49.804,30.334,-102.417,
00:00:17:967,0.891,0.088,0.089,49.072,11.901,-113.648,
00:00:17:983,0.887,0.087,0.101,24.841,-7.569,-123.352,
00:00:18:0,0.873,0.091,0.115,-6.714,-5.921,-127.381,
00:00:18:17,0.859,0.104,0.136,-39.917,3.784,-127.198,
00:00:18:33,0.844,0.111,0.157,-55.726,27.771,-125.855,
00:00:18:50,0.828,0.124,0.163,-64.331,56.335,-119.202,
00:00:18:67,0.822,0.145,0.174,-60.669,86.914,-116.944,
00:00:18:83,0.832,0.171,0.19,-29.664,106.079,-118.592,
00:00:18:100,0.862,0.183,0.197,32.531,126.526,-128.907,
00:00:18:117,0.906,0.19,0.198,85.083,133.85,-140.198,
00:00:18:133,0.94,0.187,0.187,137.268,119.384,-148.56,
00:00:18:150,0.949,0.174,0.176,175.171,100.463,-150.94,
00:00:18:167,0.946,0.164,0.173,191.467,81.115,-145.264,
00:00:18:183,0.935,0.152,0.163,183.838,65.429,-133.789,
00:00:18:200,0.952,0.144,0.145,156.677,62.927,-117.737,
00:00:18:217,0.991,0.129,0.12,113.952,61.462,-99.488,
00:00:18:233,1.064,0.126,0.096,67.504,73.73,-87.769,
00:00:18:250,1.15,0.134,0.036,19.409,75.561,-86.548,
00:00:18:267,1.208,0.123,0.053,-10.498,69.274,-93.811,
00:00:18:283,1.22,0.091,0.026,-40.955,72.021,-109.314,
00:00:18:300,1.221,0.084,0.015,-126.16,85.51,-115.296,
00:00:18:317,1.179,0.118,-0.016,-217.896,86.242,-111.206,
00:00:18:333,1.068,0.143,-0.009,-221.375,81.42,-89.417,walkRH
00:00:18:350,0.967,0.145,0.021,-155.213,89.477,-49.561,
00:00:18:367,0.901,0.137,0.052,-59.998,118.896,-8.545,
00:00:18:383,0.885,0.135,0.055,31.921,152.832,32.226,
00:00:18:400,0.91,0.129,0.005,116.516,164.55,56.335,
00:00:18:417,0.961,0.118,-0.044,183.044,133.911,63.415,
00:00:18:433,0.997,0.123,-0.067,232.483,72.448,58.593,
00:00:18:450,1.031,0.134,-0.082,273.437,15.502,46.264,
00:00:18:467,1.043,0.124,-0.113,311.889,-41.016,34.79,
00:00:18:483,1.026,0.1,-0.118,328.735,-89.783,35.034,
00:00:18:500,0.993,0.082,-0.092,296.875,-105.53,42.846,
00:00:18:517,0.929,0.084,-0.058,232.544,-90.577,65.551,
00:00:18:533,0.884,0.108,-0.029,173.462,-51.209,89.416,
00:00:18:550,0.863,0.131,-0.022,140.014,-6.47,103.088,
00:00:18:567,0.865,0.147,-0.026,132.507,33.264,113.891,
00:00:18:583,0.888,0.167,-0.038,134.216,50.781,117.92,
00:00:18:600,0.913,0.185,-0.048,159.301,48.156,115.661,
00:00:18:617,0.919,0.184,-0.055,197.692,31.86,108.215,
00:00:18:633,0.913,0.173,-0.061,227.722,14.038,93.444,
00:00:18:650,0.904,0.159,-0.062,240.417,0.427,76.049,
00:00:18:667,0.901,0.154,-0.047,230.957,-2.015,55.908,
00:00:18:683,0.895,0.147,-0.035,219.421,-4.395,30.761,
00:00:18:700,0.87,0.145,-0.02,205.078,-2.747,17.089,
00:00:18:717,0.852,0.154,0,185.974,15.014,-0.855,
00:00:18:733,0.853,0.169,0.002,181.091,25.024,-20.386,
00:00:18:750,0.89,0.181,0.004,193.237,26.123,-42.908,
00:00:18:767,0.937,0.183,-0.005,208.13,14.221,-67.078,
00:00:18:783,0.961,0.172,-0.011,217.773,-3.907,-85.633,
00:00:18:800,0.972,0.158,-0.011,209.106,-22.95,-106.202,
00:00:18:817,0.963,0.142,0.025,177.49,-36.499,-119.873,
00:00:18:833,0.933,0.127,0.01,128.54,-42.054,-126.587,
00:00:18:850,0.916,0.122,0.026,76.904,-28.443,-129.639,
00:00:18:867,0.939,0.126,0.037,23.071,-0.916,-135.315,
00:00:18:883,0.971,0.146,0.041,-11.719,13.671,-141.358,
00:00:18:900,1.01,0.171,0.041,-9.461,29.541,-154.236,
00:00:18:917,1.075,0.181,0.026,43.457,27.832,-176.819,
00:00:18:933,1.1,0.17,0.013,60.852,6.225,-187.439,
00:00:18:950,1.09,0.16,0.015,73.242,-14.832,-192.81,
00:00:18:967,1.094,0.144,0.02,74.523,-15.625,-194.336,
00:00:18:983,1.121,0.12,0.036,60.852,-17.029,-181.275,
00:00:19:0,1.12,0.111,0.068,19.714,-10.01,-155.457,
00:00:19:17,1.097,0.094,0.087,-34.546,3.173,-132.63,
00:00:19:33,1.077,0.088,0.083,-104.371,16.906,-101.99,
00:00:19:50,1.052,0.088,0.078,-163.392,10.681,-76.111,
00:00:19:67,0.974,0.097,0.085,-195.13,-18.799,-42.664,
00:00:19:83,0.905,0.105,0.103,-193.299,-33.631,-19.532,
00:00:19:100,0.868,0.099,0.104,-177.43,-44.922,-9.461,
00:00:19:117,0.853,0.094,0.088,-163.086,-58.167,1.77,
00:00:19:133,0.845,0.106,0.079,-141.48,-76.539,12.878,
00:00:19:150,0.862,0.114,0.065,-96.009,-85.328,16.174,
00:00:19:167,0.906,0.119,0.062,-34.058,-91.614,10.437,
00:00:19:183,0.96,0.116,0.056,36.071,-101.563,10.315,
00:00:19:200,0.998,0.09,0.057,84.594,-95.948,11.535,
00:00:19:217,1.016,0.075,0.047,104.248,-88.379,16.967,
00:00:19:233,1.023,0.074,0.059,99.609,-70.862,30.09,
00:00:19:250,1.011,0.075,0.092,104.431,-45.655,42.053,
00:00:19:267,0.959,0.074,0.113,125.793,-11.536,61.523,
00:00:19:283,0.876,0.064,0.117,151.855,29.907,72.998,
00:00:19:300,0.873,0.058,0.129,163.94,41.503,78.735,
00:00:19:317,0.863,0.067,0.134,167.297,53.039,79.162,
00:00:19:333,0.863,0.079,0.133,189.209,54.626,70.434,
00:00:19:350,0.878,0.085,0.117,222.229,51.879,56.701,
00:00:19:367,0.875,0.078,0.107,253.296,33.508,31.677,
00:00:19:383,0.92,0.058,0.099,271.423,16.357,14.16,
00:00:19:400,0.917,0.042,0.11,255.737,3.967,-5.494,
00:00:19:417,0.916,0.042,0.118,220.886,8.117,-19.349,
00:00:19:433,0.916,0.053,0.131,171.936,25.756,-33.448,
00:00:19:450,0.899,0.06,0.129,171.692,42.419,-37.598,
00:00:19:467,0.858,0.063,0.129,163.879,53.039,-35.279,
00:00:19:483,0.819,0.076,0.148,156.921,70.312,-28.748,
00:00:19:500,0.811,0.095,0.157,165.283,96.984,-29.847,
00:00:19:517,0.85,0.114,0.164,199.34,124.878,-34.729,
00:00:19:533,0.895,0.121,0.149,254.699,124.511,-39.246,
00:00:19:550,0.931,0.116,0.131,299.621,113.891,-41.443,
00:00:19:567,0.968,0.104,0.118,316.894,100.586,-49.683,
00:00:19:583,0.988,0.095,0.122,307.861,79.345,-48.706,
00:00:19:600,0.972,0.105,0.124,285.034,73.303,-39.307,
00:00:19:617,0.939,0.117,0.13,261.047,80.749,-23.072,
00:00:19:633,0.912,0.136,0.119,243.591,103.698,-9.095,
00:00:19:650,0.935,0.158,0.115,257.263,135.986,-0.611,
00:00:19:667,0.97,0.175,0.112,297.79,159.973,10.986,
00:00:19:683,0.994,0.179,0.105,350.525,174.011,18.92,
00:00:19:700,1.031,0.177,0.095,395.568,186.096,13.305,
00:00:19:717,1.062,0.17,0.076,412.78,181.579,13.794,
00:00:19:733,1.053,0.17,0.075,411.621,160.827,19.287,
00:00:19:750,1,0.174,0.067,406.616,136.23,36.865,
00:00:19:767,0.971,0.168,0.063,404.907,129.638,52.185,
00:00:19:783,1.023,0.166,0.076,406.372,135.315,57.739,
00:00:19:800,1.119,0.156,0.082,421.203,118.896,58.96,
00:00:19:817,1.134,0.129,0.044,418.09,76.232,62.011,
00:00:19:833,1.091,0.104,0.002,360.534,23.437,50.537,
00:00:19:850,1.041,0.097,-0.033,291.992,-15.32,38.574,
00:00:19:867,0.983,0.104,-0.03,210.083,-47.791,34.606,
00:00:19:883,0.932,0.124,-0.022,164.367,-49.378,48.523,
00:00:19:900,0.921,0.134,-0.011,152.954,-22.828,54.565,
00:00:19:917,0.935,0.145,-0.005,176.147,9.521,65.368,
00:00:19:933,0.949,0.171,-0.014,242.859,32.226,70.068,
00:00:19:950,0.952,0.181,-0.04,317.871,42.053,56.823,
00:00:19:967,0.952,0.17,-0.059,369.14,37.902,34.79,
00:00:19:983,0.942,0.146,-0.066,386.352,17.211,20.752,
00:00:20:0,0.936,0.117,-0.057,362.976,0.61,11.474,
00:00:20:17,0.942,0.104,-0.048,301.757,-8.851,14.709,
00:00:20:33,0.955,0.103,-0.042,222.534,-17.09,25.512,
00:00:20:50,0.961,0.11,-0.039,129.699,-19.654,37.597,
00:00:20:67,0.959,0.12,-0.037,47.546,-19.532,50.842,
00:00:20:83,0.954,0.142,-0.043,-9.827,-21.241,58.41,
00:00:20:100,0.939,0.166,-0.046,-40.162,-21.546,59.753,
00:00:20:117,0.924,0.186,-0.044,-38.269,-17.151,59.204,
00:00:20:133,0.911,0.197,-0.032,-12.94,-4.7,51.269,
00:00:20:150,0.905,0.204,-0.019,29.541,14.282,39.856,
00:00:20:167,0.9,0.205,-0.004,73.669,28.93,28.381,
00:00:20:183,0.895,0.207,-0.006,121.46,46.814,11.291,
00:00:20:200,0.936,0.204,0,153.808,56.945,-8.362,
00:00:20:217,0.925,0.203,0.004,178.222,62.011,-29.908,
00:00:20:233,0.948,0.198,0.012,196.594,63.659,-55.542,
00:00:20:250,0.97,0.2,0.037,215.759,66.467,-86.731,
00:00:20:267,0.975,0.199,0.041,225.708,67.199,-112.244,
00:00:20:283,0.983,0.194,0.038,229.187,65.368,-136.048,
00:00:20:300,0.976,0.194,0.04,226.501,55.908,-144.349,
00:00:20:317,0.971,0.186,0.05,208.435,43.396,-145.02,
00:00:20:333,0.959,0.171,0.056,182.922,48.217,-136.963,
00:00:20:350,0.955,0.167,0.068,151.306,46.691,-122.803,
00:00:20:367,0.96,0.169,0.079,124.939,51.757,-110.291,
00:00:20:383,0.958,0.173,0.088,108.825,51.696,-99.06,
00:00:20:400,0.962,0.178,0.087,104.065,51.696,-98.938,
00:00:20:417,0.985,0.176,0.08,111.145,53.344,-102.967,
00:00:20:433,1.009,0.169,0.074,111.572,39.001,-106.08,
00:00:20:450,1.015,0.161,0.083,107.299,32.104,-110.413,
00:00:20:467,1.017,0.154,0.082,96.435,19.836,-112.61,
00:00:20:483,1.023,0.148,0.074,77.392,12.573,-109.62,
00:00:20:500,1.023,0.138,0.066,53.161,2.868,-100.586,
00:00:20:517,1.024,0.128,0.081,22.888,-4.029,-88.562,
00:00:20:533,1.015,0.125,0.072,-25.208,-4.7,-72.693,
00:00:20:550,1.012,0.117,0.061,-70.679,-7.813,-57.312,
00:00:20:567,1.025,0.101,0.045,-131.714,-22.034,-39.185,
00:00:20:583,1.008,0.086,0.046,-208.497,-41.993,-7.569,
00:00:20:600,0.943,0.085,0.044,-283.509,-51.575,15.075,
00:00:20:617,0.947,0.102,0.051,-340.821,-50.232,19.836,
00:00:20:633,0.942,0.125,0.073,-351.38,-45.472,7.751,
00:00:20:650,0.927,0.139,0.086,-326.661,-35.584,-10.193,
00:00:20:667,0.915,0.149,0.092,-273.133,-22.706,-38.514,
00:00:20:683,0.909,0.16,0.099,-202.881,-19.715,-67.872,
00:00:20:700,0.911,0.164,0.104,-120.85,-24.353,-94.788,
00:00:20:717,0.909,0.151,0.107,-54.993,-34.302,-106.873,
00:00:20:733,0.902,0.143,0.118,-5.799,-42.237,-107.361,
00:00:20:750,0.907,0.134,0.131,41.076,-39.307,-97.901,
00:00:20:767,0.919,0.122,0.131,88.989,-40.589,-81.604,
00:00:20:783,0.932,0.105,0.135,117.065,-39.185,-63.355,
00:00:20:800,0.96,0.094,0.135,123.962,-31.373,-50.11,
00:00:20:817,0.986,0.09,0.129,118.591,-28.26,-38.758,
00:00:20:833,1,0.091,0.133,119.018,-23.987,-29.297,
00:00:20:850,1.005,0.09,0.133,128.479,-16.053,-21.607,
00:00:20:867,0.994,0.087,0.127,134.765,-7.386,-17.762,
00:00:20:883,0.963,0.083,0.134,139.221,0.366,-10.254,
00:00:20:900,0.934,0.081,0.141,145.385,12.268,0.915,
00:00:20:917,0.904,0.082,0.139,153.259,19.165,8.606,
00:00:20:933,0.888,0.078,0.14,168.884,25.451,13.427,
00:00:20:950,0.885,0.069,0.131,175.476,28.991,11.352,
00:00:20:967,0.884,0.064,0.135,171.02,29.235,7.324,
00:00:20:983,0.879,0.056,0.133,166.748,27.16,-4.334,
00:00:21:0,0.883,0.059,0.135,148.986,32.47,-14.466,
00:00:21:17,0.891,0.064,0.135,125.671,39.123,-26.917,
00:00:21:33,0.891,0.067,0.136,108.886,46.936,-33.509,
00:00:21:50,0.897,0.081,0.139,94.726,61.279,-38.88,
00:00:21:67,0.901,0.099,0.142,97.9,74.707,-43.152,
00:00:21:83,0.892,0.113,0.15,118.469,86.486,-41.077,
00:00:21:100,0.88,0.118,0.158,154.663,98.205,-40.467,
00:00:21:117,0.878,0.118,0.161,179.748,111.206,-42.176,
00:00:21:133,0.889,0.112,0.16,188.964,111.511,-40.406,
00:00:21:150,0.912,0.099,0.159,190.124,104.492,-32.776,
00:00:21:167,0.911,0.088,0.148,171.508,88.867,-15.931,
00:00:21:183,0.913,0.08,0.128,125.183,78.002,-1.099,
00:00:21:200,0.928,0.082,0.129,77.575,77.941,11.474,
00:00:21:217,0.94,0.094,0.125,44.982,84.35,26.672,
00:00:21:233,0.939,0.111,0.127,45.044,104.187,32.775,
00:00:21:250,0.959,0.129,0.145,66.528,130.493,25.512,
00:00:21:267,0.98,0.142,0.134,99.487,161.377,12.634,
00:00:21:283,1.02,0.152,0.134,153.564,185.18,-12.94,
00:00:21:300,1.06,0.165,0.135,210.022,196.472,-38.208,
00:00:21:317,1.059,0.169,0.125,271.85,188.842,-59.266,
00:00:21:333,1.045,0.168,0.112,317.321,177.734,-76.416,
00:00:21:350,1.028,0.169,0.067,343.322,156.494,-81.788,
00:00:21:367,1.044,0.17,0.052,360.656,136.596,-87.952,
00:00:21:383,1.069,0.176,0.035,373.108,114.868,-80.811,
00:00:21:400,1.084,0.178,0.02,382.263,98.388,-67.688,
00:00:21:417,1.086,0.186,0.012,394.409,89.904,-54.932,
00:00:21:433,1.045,0.185,0.01,412.231,88.134,-27.405,
00:00:21:450,0.985,0.181,0.002,421.447,84.961,8.117,
00:00:21:467,0.919,0.161,-0.005,417.175,92.407,51.818,
00:00:21:483,0.875,0.137,-0.008,393.921,99.426,107.666,
00:00:21:500,0.855,0.126,-0.021,343.994,110.778,128.723,
00:00:21:517,0.86,0.132,-0.039,291.809,110.595,147.338,
00:00:21:533,0.878,0.144,-0.066,254.028,105.468,149.597,
00:00:21:550,0.899,0.168,-0.099,256.591,85.266,138.488,
00:00:21:567,0.927,0.186,-0.122,291.076,61.584,115.173,
00:00:21:583,0.967,0.205,-0.156,344.909,35.461,75.805,
00:00:21:600,0.996,0.207,-0.174,391.418,-2.259,40.954,
00:00:21:617,0.983,0.205,-0.198,434.753,-29.053,23.132,
00:00:21:633,0.977,0.201,-0.224,458.374,-48.89,6.836,
00:00:21:650,0.934,0.18,-0.153,369.14,121.154,79.589,
00:00:21:667,0.925,0.187,-0.159,362.854,156.677,66.345,
00:00:21:683,0.92,0.191,-0.158,361.816,179.748,44.86,
00:00:21:700,0.915,0.199,-0.16,378.112,190.673,10.681,
00:00:21:717,0.909,0.209,-0.159,404.174,194.946,-32.044,
00:00:21:733,0.908,0.222,-0.152,443.42,197.448,-76.661,
00:00:21:750,0.904,0.236,-0.142,490.051,201.599,-124.756,
00:00:21:767,0.901,0.237,-0.132,545.654,204.528,-163.392,
00:00:21:783,0.911,0.227,-0.111,609.314,209.655,-195.252,
00:00:21:800,0.928,0.206,-0.103,613.037,201.904,-212.708,
00:00:21:817,0.916,0.172,-0.095,582.153,192.382,-216.919,
00:00:21:833,0.914,0.137,-0.102,508.85,182.19,-220.765,
00:00:21:850,0.931,0.131,-0.112,397.766,161.56,-220.459,
00:00:21:867,0.939,0.16,-0.095,297.546,135.009,-215.027,
00:00:21:883,0.947,0.194,-0.082,244.873,119.629,-212.464,
00:00:21:900,0.95,0.224,-0.07,246.154,105.346,-214.356,
00:00:21:917,0.957,0.245,-0.078,290.405,84.716,-212.159,
00:00:21:933,0.955,0.249,-0.086,342.956,57.556,-209.107,
00:00:21:950,0.965,0.25,-0.091,391.357,24.292,-203.492,
00:00:21:967,0.995,0.241,-0.096,427.734,-7.508,-199.097,
00:00:21:983,1.024,0.227,-0.108,437.561,-47.181,-194.153,
00:00:22:0,1.046,0.223,-0.133,424.011,-77.088,-188.477,
00:00:22:17,1.128,0.217,-0.181,395.813,-91.248,-201.233,
00:00:22:33,1.224,0.227,-0.185,353.332,-115.479,-213.379,
00:00:22:50,1.135,0.255,-0.118,341.369,-125.794,-185.486,
00:00:22:67,0.965,0.29,-0.038,387.207,-79.956,-152.466,
00:00:22:83,0.89,0.298,-0.013,479.492,-3.418,-115.479,
00:00:22:100,0.894,0.296,0.012,574.401,60.607,-65.796,
00:00:22:117,0.94,0.301,0.044,674.499,102.539,-19.288,
00:00:22:133,0.989,0.302,0.054,781.555,114.38,27.16,
00:00:22:150,1.03,0.279,0.02,874.206,101.44,64.27,
00:00:22:167,1.031,0.227,-0.049,933.105,30.761,99.975,
00:00:22:183,1,0.154,-0.097,904.113,-70.191,152.832,
00:00:22:200,0.973,0.095,-0.106,810.974,-158.326,202.514,
00:00:22:217,0.987,0.055,-0.073,684.326,-216.065,254.028,
00:00:22:233,1.018,0.021,-0.043,564.941,-236.268,296.753,
00:00:22:250,1.048,0.03,-0.018,457.641,-230.774,330.444,
00:00:22:267,1.046,0.066,-0.024,385.254,-203.797,349.548,
00:00:22:283,1.028,0.107,-0.037,360.412,-167.054,349.365,
00:00:22:300,1.01,0.151,-0.059,430.42,-118.348,326.538,
00:00:22:317,0.958,0.059,-0.025,888.61,-43.03,231.384,
00:00:22:333,0.932,0.028,-0.012,888.61,8.117,235.656,walkRH
00:00:22:350,0.92,0.051,-0.016,826.538,53.649,237.732,
00:00:22:367,0.906,0.083,-0.032,778.869,80.139,233.032,
00:00:22:383,0.901,0.105,-0.046,762.268,91.43,225.341,
00:00:22:400,0.914,0.109,-0.058,778.137,80.566,203.674,
00:00:22:417,0.919,0.107,-0.053,798.767,58.349,183.349,
00:00:22:433,0.928,0.099,-0.045,799.499,46.447,162.292,
00:00:22:450,0.923,0.094,-0.026,785.461,40.649,139.648,
00:00:22:467,0.912,0.089,-0.018,751.342,44.921,120.727,
00:00:22:483,0.911,0.086,0.001,733.52,57.617,104.248,
00:00:22:500,0.905,0.083,0.004,696.106,76.66,95.153,
00:00:22:517,0.897,0.079,0.009,644.775,95.581,86.547,
00:00:22:533,0.886,0.078,0.026,595.581,115.295,77.209,
00:00:22:550,0.88,0.082,0.044,548.034,139.648,65.551,
00:00:22:567,0.878,0.088,0.072,511.901,159.179,51.94,
00:00:22:583,0.863,0.095,0.102,498.108,182.19,35.766,
00:00:22:600,0.851,0.099,0.121,498.047,198.974,16.784,
00:00:22:617,0.84,0.091,0.119,501.648,208.313,-2.869,
00:00:22:633,0.836,0.082,0.119,481.384,214.416,-24.476,
00:00:22:650,0.842,0.083,0.13,445.984,216.308,-47.181,
00:00:22:667,0.856,0.092,0.133,412.17,215.759,-63.721,
00:00:22:683,0.876,0.099,0.137,393.371,210.876,-84.473,
00:00:22:700,0.913,0.108,0.148,385.681,201.172,-103.211,
00:00:22:717,0.941,0.12,0.145,382.385,190.002,-120.362,
00:00:22:733,0.953,0.132,0.147,377.807,171.447,-126.77,
00:00:22:750,0.946,0.145,0.147,382.507,158.264,-128.174,
00:00:22:767,0.94,0.142,0.138,382.69,144.592,-124.024,
00:00:22:783,0.956,0.131,0.124,368.591,150.512,-111.39,
00:00:22:800,1.004,0.114,0.107,335.51,159.668,-101.075,
00:00:22:817,1.112,0.11,0.104,275.817,180.969,-104.004,
00:00:22:833,1.226,0.126,0.096,218.139,201.11,-124.939,
00:00:22:850,1.321,0.161,0.104,165.832,216.858,-167.359,
00:00:22:867,1.335,0.211,0.116,145.874,232.544,-210.328,
00:00:22:883,1.245,0.268,0.102,171.386,243.957,-265.076,
00:00:22:900,1.13,0.32,0.083,250.793,233.337,-273.316,
00:00:22:917,1.011,0.349,0.078,375.549,199.463,-253.663,
00:00:22:933,0.877,0.343,0.082,540.771,153.076,-203.309,
00:00:22:950,0.769,0.295,0.082,688.659,129.577,-131.226,
00:00:22:967,0.757,0.243,0.074,789.428,144.165,-78.064,
00:00:22:983,0.849,0.19,0.054,805.847,145.324,-44.19,
00:00:23:0,0.96,0.174,0.022,743.286,91.186,-19.165,
00:00:23:17,1.026,0.174,-0.022,651.794,-9.4,-13.794,
00:00:23:33,1.041,0.179,-0.055,558.532,-97.901,-23.682,
00:00:23:50,1.038,0.202,-0.061,459.9,-165.284,-49.561,
00:00:23:67,1.016,0.225,-0.021,389.892,-196.412,-75.196,
00:00:23:83,0.978,0.263,-0.005,384.46,-146.424,-48.706,
00:00:23:100,0.964,0.332,-0.067,461.181,-55.787,-22.095,
00:00:23:117,0.984,0.355,-0.132,587.768,-11.17,-1.404,
00:00:23:133,0.982,0.309,-0.168,680.481,-11.048,19.043,
00:00:23:150,0.957,0.246,-0.167,683.166,-27.588,58.227,
00:00:23:167,0.94,0.198,-0.169,622.131,-50.049,98.144,
00:00:23:183,0.947,0.155,-0.172,515.869,-78.37,145.08,
00:00:23:200,0.948,0.133,-0.167,419.433,-121.949,192.138,
00:00:23:217,0.926,0.125,-0.148,296.997,-171.265,234.985,
00:00:23:233,0.897,0.131,-0.122,191.101,-195.008,256.286,
00:00:23:250,0.874,0.138,-0.096,102.172,-195.923,260.498,
00:00:23:267,0.861,0.148,-0.066,25.878,-187.623,251.648,
00:00:23:283,0.84,0.164,-0.021,-30.64,-178.65,240.173,
00:00:23:300,0.82,0.181,-0.007,-58.472,-141.358,211.486,
00:00:23:317,0.827,0.189,0.004,-54.566,-101.441,169.616,
00:00:23:333,0.866,0.186,-0.006,-40.528,-61.219,124.145,
00:00:23:350,0.921,0.181,-0.029,-27.955,-47.852,83.801,
00:00:23:367,0.947,0.181,-0.039,-13.184,-55.726,48.889,
00:00:23:383,0.963,0.189,-0.029,4.821,-65.735,17.639,
00:00:23:400,0.972,0.182,-0.02,27.038,-72.876,1.159,
00:00:23:417,0.983,0.164,-0.021,32.043,-74.28,-9.461,
00:00:23:433,1.012,0.144,-0.024,26.306,-64.454,-10.743,
00:00:23:450,1.08,0.132,-0.034,-4.334,-48.279,-17.762,
00:00:23:467,1.177,0.127,-0.037,-48.523,-27.1,-38.941,
00:00:23:483,1.267,0.138,-0.01,-87.647,-3.174,-68.787,
00:00:23:500,1.245,0.155,0.062,-92.102,31.738,-87.098,
00:00:23:517,1.088,0.172,0.142,-59.266,86.181,-99.854,
00:00:23:533,0.959,0.171,0.178,0.305,148.559,-115.113,
00:00:23:550,0.888,0.156,0.22,68.664,188.598,-111.023,
00:00:23:567,0.857,0.131,0.259,121.521,216.43,-104.981,
00:00:23:583,0.841,0.09,0.263,133.484,229.004,-98.328,
00:00:23:600,0.84,0.044,0.211,103.149,211.425,-90.149,
00:00:23:617,0.838,0.02,0.139,30.395,155.822,-76.905,
00:00:23:633,0.84,0.033,0.076,-51.88,64.941,-65.796,
00:00:23:650,0.868,0.066,0.057,-104.554,7.385,-63.66,
00:00:23:667,0.919,0.096,0.07,-102.234,-52.308,-61.89,
00:00:23:683,0.975,0.109,0.098,-62.989,-91.736,-67.566,
00:00:23:700,1.001,0.122,0.124,-1.587,-110.779,-66.59,
00:00:23:717,0.996,0.126,0.152,53.527,-98.023,-64.331,
00:00:23:733,0.973,0.116,0.17,103.393,-46.326,-63.904,
00:00:23:750,0.959,0.092,0.181,132.995,23.254,-57.007,
00:00:23:767,0.931,0.07,0.172,132.568,82.702,-42.847,
00:00:23:783,0.898,0.058,0.162,98.877,127.563,-26.856,
00:00:23:800,0.876,0.06,0.155,63.598,154.541,-16.419,
00:00:23:817,0.863,0.082,0.146,32.348,161.255,-14.039,
00:00:23:833,0.868,0.101,0.137,20.019,156.189,-21.424,
00:00:23:850,0.862,0.109,0.116,31.555,129.577,-28.26,
00:00:23:867,0.854,0.109,0.109,45.654,97.778,-34.668,
00:00:23:883,0.85,0.105,0.103,48.4,78.979,-40.406,
00:00:23:900,0.859,0.106,0.115,34.24,64.941,-41.565,
00:00:23:917,0.871,0.105,0.143,13.977,69.397,-39.246,
00:00:23:933,0.868,0.106,0.142,-9.339,84.777,-32.776,
00:00:23:950,0.855,0.11,0.153,-31.8,107.238,-27.344,
00:00:23:967,0.835,0.115,0.155,-52.369,132.69,-20.752,
00:00:23:983,0.826,0.13,0.162,-66.895,157.837,-19.898,
00:00:24:0,0.855,0.145,0.153,-64.759,185.913,-27.1,
00:00:24:17,0.91,0.154,0.15,-53.772,195.19,-44.373,
00:00:24:33,0.947,0.159,0.158,-35.889,191.04,-55.054,
00:00:24:50,0.963,0.159,0.172,-15.198,187.622,-66.956,
00:00:24:67,0.981,0.16,0.205,2.99,190.307,-85.328,
00:00:24:83,1,0.163,0.237,16.479,198.608,-95.459,
00:00:24:100,1.014,0.166,0.247,18.92,203.613,-95.887,
00:00:24:117,1.026,0.154,0.248,3.784,206.421,-91.797,
00:00:24:133,1.039,0.088,0.288,-101.319,169.067,-76.294,
00:00:24:150,1.039,0.02,0.355,-308.472,170.898,-20.264,
00:00:24:167,1.034,0.047,0.362,-543.824,184.265,69.946,
00:00:24:183,1.027,0.131,0.289,-617.127,191.833,144.531,
00:00:24:200,1.033,0.207,0.218,-566.59,162.292,139.526,
00:00:24:217,1.074,0.244,0.123,-490.967,104.858,80.566,
00:00:24:233,1.163,0.29,0.015,-400.879,53.283,21.972,
00:00:24:250,1.29,0.371,-0.107,-242.066,-72.51,-36.133,
00:00:24:267,1.348,0.426,-0.179,27.587,-254.761,-111.939,
00:00:24:283,1.27,0.434,-0.161,406.799,-398.926,-163.697,
00:00:24:300,1.121,0.393,-0.07,732.544,-414.673,-203.003,
00:00:24:317,0.971,0.304,0.015,965.149,-339.722,-198.365,
00:00:24:333,0.828,0.167,0.104,1027.404,-202.149,-123.414,
00:00:24:350,0.758,0.087,0.084,940.857,-53.711,-23.926,
00:00:24:367,0.809,0.047,0.025,777.038,76.477,43.884,
00:00:24:383,0.888,0.034,0.016,584.289,110.046,102.172,
00:00:24:400,0.902,0.036,0.008,311.34,107.544,135.254,
00:00:24:417,0.915,0.099,-0.027,61.767,94.177,138.366,
00:00:24:433,0.959,0.178,-0.096,-73.548,41.565,122.558,
00:00:24:450,0.986,0.24,-0.14,-84.534,-71.534,90.087,
00:00:24:467,0.967,0.252,-0.122,-32.898,-152.771,67.016,
00:00:24:483,0.913,0.247,-0.074,37.414,-209.839,57.678,
00:00:24:500,0.887,0.229,-0.042,79.467,-216.248,55.542,
00:00:24:517,0.88,0.204,-0.032,84.777,-193.787,64.086,
00:00:24:533,0.923,0.19,-0.042,57.434,-147.583,81.726,
00:00:24:550,0.971,0.183,-0.036,16.052,-112.854,95.398,
00:00:24:567,0.933,0.192,-0.014,-3.479,-83.497,131.958,
00:00:24:583,0.858,0.204,0.005,-3.54,-36.805,158.386,
00:00:24:600,0.841,0.209,-0.022,4.028,18.127,168.335,
00:00:24:617,0.861,0.212,-0.036,22.827,41.381,176.33,
00:00:24:633,0.874,0.217,-0.012,63.598,59.57,180.542,
00:00:24:650,0.874,0.214,0.035,121.093,75.988,171.386,
00:00:24:667,0.876,0.204,0.069,197.509,100.952,150.146,
00:00:24:683,0.859,0.193,0.094,264.648,112.304,127.746,
00:00:24:700,0.846,0.191,0.093,311.462,115.966,96.557,
00:00:24:717,0.864,0.18,0.077,337.646,114.013,54.26,
00:00:24:733,0.9,0.151,0.057,332.824,96.557,10.376,
00:00:24:750,0.94,0.127,0.057,287.78,64.636,-33.387,
00:00:24:767,0.977,0.119,0.065,219.909,33.386,-76.233,
00:00:24:783,1,0.128,0.084,150.146,7.385,-106.385,
00:00:24:800,1.005,0.139,0.091,104.675,-3.785,-126.099,
00:00:24:817,1.031,0.14,0.101,71.533,6.225,-142.395,
00:00:24:833,1.035,0.137,0.12,33.203,5.127,-134.644,
00:00:24:850,0.995,0.14,0.144,6.225,3.662,-112.732,
00:00:24:867,0.953,0.13,0.131,-9.4,14.465,-88.746,
00:00:24:883,0.978,0.101,0.072,-59.021,21.118,-73.731,
00:00:24:900,1.077,0.074,0.021,-131.348,6.164,-73.853,
00:00:24:917,1.18,0.066,0.009,-239.441,-37.293,-78.919,
00:00:24:933,1.21,0.091,0.043,-313.355,-69.458,-92.591,
00:00:24:950,1.195,0.128,0.095,-332.764,-62.5,-120.484,
00:00:24:967,1.129,0.159,0.154,-336.487,-27.466,-165.101,
00:00:24:983,1.026,0.181,0.168,-352.784,2.929,-203.431,
00:00:25:0,0.917,0.183,0.149,-375.306,11.657,-227.356,
00:00:25:17,0.83,0.179,0.12,-373.536,3.112,-216.248,
00:00:25:33,0.78,0.183,0.083,-357.178,6.347,-198.121,
00:00:25:50,0.801,0.183,0.067,-314.27,7.751,-180.115,
00:00:25:67,0.852,0.181,0.037,-266.48,-7.142,-156.006,
00:00:25:83,0.895,0.179,0.015,-246.338,-35.035,-127.808,
00:00:25:100,0.909,0.185,0.025,-240.967,-57.007,-118.226,
00:00:25:117,0.915,0.192,0.034,-232.239,-58.777,-122.62,
00:00:25:133,0.923,0.2,0.055,-219.422,-38.758,-131.47,
00:00:25:150,0.909,0.204,0.067,-206.299,-14.344,-140.625,
00:00:25:167,0.878,0.214,0.085,-181.275,17.578,-135.804,
00:00:25:183,0.85,0.22,0.091,-146.058,49.987,-131.897,
00:00:25:200,0.837,0.218,0.086,-103.76,76.294,-121.888,
00:00:25:217,0.849,0.207,0.066,-77.759,90.698,-110.23,
00:00:25:233,0.869,0.199,0.06,-56.214,87.646,-93.506,
00:00:25:250,0.89,0.194,0.058,-41.748,83.19,-76.844,
00:00:25:267,0.912,0.19,0.062,-28.382,70.068,-65.674,
00:00:25:283,0.93,0.187,0.075,-27.588,71.167,-60.303,
00:00:25:300,0.931,0.183,0.097,-28.199,66.711,-56.458,
00:00:25:317,0.917,0.185,0.114,-28.565,79.345,-49.622,
00:00:25:333,0.896,0.191,0.127,-22.217,98.022,-44.739,
00:00:25:350,0.882,0.192,0.152,-7.813,109.008,-38.025,
00:00:25:367,0.854,0.192,0.176,20.385,119.445,-23.56,
00:00:25:383,0.86,0.172,0.202,116.211,151.001,-2.686,
00:00:25:400,0.893,0.163,0.192,134.399,147.522,-3.174,
00:00:25:417,0.951,0.16,0.183,145.019,140.197,-14.588,
00:00:25:433,0.999,0.162,0.169,144.043,110.229,-30.03,
00:00:25:450,1.03,0.168,0.166,139.648,71.838,-44.739,
00:00:25:467,1.037,0.17,0.158,133.361,42.541,-56.458,
00:00:25:483,1.041,0.167,0.153,129.272,22.033,-63.172,
00:00:25:500,1.072,0.163,0.149,120.117,28.32,-68.055,
00:00:25:517,1.125,0.157,0.153,93.994,38.452,-74.402,
00:00:25:533,1.179,0.162,0.161,66.894,51.147,-80.872,
00:00:25:550,1.202,0.192,0.169,56.579,60.974,-89.844,
00:00:25:567,1.171,0.263,0.116,172.058,40.954,-107.178,
00:00:25:583,1.118,0.249,0.099,233.459,-2.32,-73.853,
00:00:25:600,1.048,0.224,0.084,288.879,-45.777,-34.058,
00:00:25:617,1.016,0.195,0.058,320.739,-76.783,8.239,
00:00:25:633,1.008,0.177,0.04,324.218,-115.113,47.363,
00:00:25:650,1,0.171,0.011,283.63,-149.781,90.698,
00:00:25:667,0.983,0.179,-0.011,248.291,-187.806,115.295,
00:00:25:683,0.965,0.181,-0.023,233.459,-208.374,136.169,
00:00:25:700,0.939,0.19,-0.024,234.069,-221.558,156.799,
00:00:25:717,0.918,0.194,-0.023,248.352,-213.746,172.363,
00:00:25:733,0.916,0.196,-0.014,272.949,-197.571,176.025,
00:00:25:750,0.906,0.199,-0.002,300.232,-172.425,176.696,
00:00:25:767,0.878,0.193,0.001,324.463,-146.302,172.424,
00:00:25:783,0.856,0.187,-0.015,340.393,-111.817,163.086,
00:00:25:800,0.854,0.176,-0.037,348.266,-91.98,150.756,
00:00:25:817,0.847,0.166,-0.04,329.467,-83.252,138.122,
00:00:25:833,0.846,0.156,-0.03,330.627,-76.416,128.967,
00:00:25:850,0.845,0.154,-0.023,311.706,-62.684,117.859,
00:00:25:867,0.843,0.152,-0.014,294.128,-49.927,103.21,
00:00:25:883,0.847,0.15,-0.016,272.461,-33.143,86.303,
00:00:25:900,0.854,0.155,-0.019,257.812,-17.151,64.697,
00:00:25:917,0.846,0.167,-0.014,256.591,-0.306,50.476,
00:00:25:933,0.836,0.171,-0.002,273.559,22.399,23.071,
00:00:25:950,0.826,0.17,0.012,293.64,45.105,-14.832,
00:00:25:967,0.813,0.166,0.024,311.95,69.213,-19.043,
00:00:25:983,0.798,0.168,0.038,328.674,84.594,-31.983,
00:00:26:0,0.794,0.169,0.057,356.079,104.919,-44.922,
00:00:26:17,0.823,0.166,0.071,380.554,125.61,-66.346,
00:00:26:33,0.877,0.156,0.071,396.118,138.61,-88.013,
00:00:26:50,0.942,0.143,0.038,385.864,136.657,-106.141,
00:00:26:67,0.995,0.128,0.032,353.698,120.91,-129.578,
00:00:26:83,1.029,0.123,0.048,310.058,106.567,-146.058,
00:00:26:100,1.051,0.124,0.081,274.353,111.328,-153.687,
00:00:26:117,1.054,0.121,0.104,253.173,119.69,-153.687,
00:00:26:133,1.056,0.107,0.119,232.483,136.23,-144.715,
00:00:26:150,1.086,0.081,0.12,189.148,150.268,-132.996,
00:00:26:167,1.143,0.052,0.098,122.741,159.179,-128.296,
00:00:26:183,1.202,0.021,0.089,33.081,145.752,-128.418,
00:00:26:200,1.219,0.011,0.107,-57.312,129.272,-121.277,
00:00:26:217,1.249,0.021,0.091,-136.231,110.107,-126.587,
00:00:26:233,1.205,0.036,0.094,-200.745,114.502,-140.259,
00:00:26:250,1.157,0.058,0.128,-229.554,112.121,-153.077,
00:00:26:267,1.076,0.071,0.125,-229.126,125.671,-160.767,
00:00:26:283,0.986,0.085,0.184,-196.9,143.554,-159.913,
00:00:26:300,0.914,0.096,0.217,-141.175,160.583,-149.842,
00:00:26:317,0.865,0.094,0.212,-64.82,170.044,-136.414,
00:00:26:333,0.877,0.091,0.154,-20.997,171.02,-130.188,walkRH
00:00:26:350,0.91,0.085,0.038,-29.908,138.733,-131.043,
00:00:26:367,0.919,0.068,-0.044,-15.076,45.532,-128.296,
00:00:26:383,0.93,0.07,0.065,57.556,-32.105,-114.685,
00:00:26:400,0.893,0.064,0.119,169.922,-46.631,-93.262,
00:00:26:417,0.852,0.009,0.114,233.398,-46.021,-88.807,
00:00:26:433,0.825,-0.059,0.095,176.208,-19.41,-85.083,
00:00:26:450,0.818,-0.097,0.105,22.033,1.281,-72.51,
00:00:26:467,0.804,-0.074,0.119,-168.946,20.996,-62.928,
00:00:26:483,0.816,0.062,0.056,-339.6,66.772,-80.75,
00:00:26:500,0.839,0.084,0.059,-313.904,63.354,-92.652,
00:00:26:517,0.861,0.108,0.083,-255.249,66.833,-105.164,
00:00:26:533,0.872,0.13,0.103,-180.176,75.378,-115.174,
00:00:26:550,0.887,0.135,0.118,-90.149,96.74,-132.203,
00:00:26:567,0.912,0.128,0.125,-28.321,111.938,-143.006,
00:00:26:583,0.916,0.12,0.14,21.118,113.342,-137.696,
00:00:26:600,0.891,0.111,0.151,50.964,112.182,-117.615,
00:00:26:617,0.846,0.111,0.157,47.302,103.271,-89.966,
00:00:26:633,0.791,0.115,0.161,27.954,104.187,-66.712,
00:00:26:650,0.784,0.132,0.201,63.11,138.427,-58.838,
00:00:26:667,0.841,0.119,0.226,166.931,176.33,-53.101,
00:00:26:683,0.931,0.089,0.191,248.169,183.899,-42.42,
00:00:26:700,0.997,0.086,0.164,269.165,156.738,-61.524,
00:00:26:717,1.057,0.066,0.158,277.649,112.06,-76.783,
00:00:26:733,1.11,0.018,0.177,274.902,68.908,-99.06,
00:00:26:750,1.148,-0.043,0.139,241.394,29.785,-110.535,
00:00:26:767,1.192,-0.088,0.095,137.878,-17.945,-101.136,
00:00:26:783,1.258,-0.084,0.105,-29.358,-52.979,-88.746,
00:00:26:800,1.348,-0.043,0.152,-171.936,-66.407,-84.473,
00:00:26:817,1.373,0.018,0.182,-251.16,-69.947,-65.796,
00:00:26:833,1.316,0.059,0.195,-258.118,-61.646,-37.964,
00:00:26:850,1.205,0.079,0.183,-223.938,-64.942,6.469,
00:00:26:867,1.094,0.078,0.166,-175.477,-77.027,63.964,
00:00:26:883,1,0.058,0.151,-127.259,-98.938,129.76,
00:00:26:900,0.97,0.028,0.126,-110.169,-105.835,184.57,
00:00:26:917,0.998,0.015,0.089,-135.01,-123.414,220.642,
00:00:26:933,1.049,0.034,0.04,-174.439,-176.697,246.582,
00:00:26:950,1.074,0.073,0.005,-197.876,-244.873,254.821,
00:00:26:967,1.058,0.121,-0.004,-186.28,-317.994,260.192,
00:00:26:983,1.033,0.154,-0.002,-149.842,-359.131,258.056,
00:00:27:0,1,0.162,0.025,-106.324,-364.075,250.122,
00:00:27:17,0.953,0.168,0.022,-65.186,-325.623,259.826,
00:00:27:33,0.897,0.173,0.002,-20.874,-268.86,266.662,
00:00:27:50,0.848,0.167,-0.026,23.193,-210.022,266.357,
00:00:27:67,0.809,0.145,-0.039,69.946,-155.945,259.277,
00:00:27:83,0.794,0.131,-0.043,99.487,-95.276,246.887,
00:00:27:100,0.808,0.114,-0.064,118.957,-51.27,221.435,
00:00:27:117,1.023,0.07,-0.016,-171.448,124.084,-147.522,
00:00:27:133,1.034,0.07,-0.006,-209.168,105.774,-166.138,
00:00:27:150,1.008,0.067,0.028,-247.498,106.262,-174.805,
00:00:27:167,0.986,0.063,0.059,-278.138,133.361,-184.998,
00:00:27:183,1.012,0.055,0.068,-317.322,165.954,-202.454,
00:00:27:200,1.097,0.055,0.06,-377.991,187.255,-224.122,
00:00:27:217,1.173,0.067,0.067,-418.946,180.664,-251.77,
00:00:27:233,1.22,0.088,0.083,-442.078,160.034,-263.306,
00:00:27:250,1.26,0.112,0.094,-471.741,139.709,-282.776,
00:00:27:267,1.282,0.137,0.078,-543.58,115.417,-296.265,
00:00:27:283,1.218,0.16,0.101,-617.798,71.411,-295.838,
00:00:27:300,1.091,0.167,0.174,-638.428,44.677,-264.527,
00:00:27:317,0.995,0.16,0.22,-612.732,51.879,-219.788,
00:00:27:333,0.931,0.143,0.2,-593.995,61.767,-159.424,
00:00:27:350,0.89,0.126,0.18,-574.891,59.265,-102.234,
00:00:27:367,0.896,0.115,0.155,-561.89,60.913,-53.894,
00:00:27:383,0.939,0.111,0.124,-547.791,40.161,-24.476,
00:00:27:400,0.982,0.108,0.096,-522.522,-6.165,-4.944,
00:00:27:417,0.985,0.1,0.082,-486.023,-77.393,0.671,
00:00:27:433,0.953,0.086,0.079,-460.083,-102.539,-0.55,
00:00:27:450,0.917,0.085,0.109,-442.078,-110.901,-13.55,
00:00:27:467,0.905,0.102,0.137,-423.706,-83.313,-26.551,
00:00:27:483,0.84,0.072,0.114,-281.189,-20.264,-12.94,
00:00:27:500,0.846,0.043,0.106,-256.531,-15.076,-2.93,
00:00:27:517,0.867,0.031,0.102,-259.827,-19.41,8.483,
00:00:27:533,0.892,0.024,0.102,-289.856,-31.311,12.634,
00:00:27:550,0.905,0.034,0.106,-317.078,-45.35,16.357,
00:00:27:567,0.895,0.04,0.104,-335.144,-58.838,14.404,
00:00:27:583,0.881,0.051,0.102,-339.295,-63.172,13.366,
00:00:27:600,0.881,0.052,0.108,-326.661,-58.96,24.475,
00:00:27:617,0.881,0.062,0.117,-328.37,-49.744,29.419,
00:00:27:633,0.883,0.073,0.146,-347.046,-33.814,29.602,
00:00:27:650,0.851,0.076,0.173,-394.959,-18.738,14.953,
00:00:27:667,0.803,0.067,0.208,-485.169,4.211,-15.259,
00:00:27:683,0.778,0.094,0.212,-557.007,43.518,-24.353,
00:00:27:700,0.791,0.129,0.22,-555.237,71.777,-36.56,
00:00:27:717,0.833,0.152,0.242,-501.648,124.633,-38.697,
00:00:27:733,0.901,0.147,0.243,-483.399,165.039,-60.059,
00:00:27:750,0.983,0.188,0.179,-394.532,176.818,-49.317,
00:00:27:767,1.033,0.286,0.149,-182.312,92.346,-98.633,
00:00:27:783,1.036,0.313,0.165,59.387,-1.221,-175.293,
00:00:27:800,0.988,0.198,0.203,113.525,-8.789,-221.131,
00:00:27:817,0.986,0.139,0.165,76.599,29.174,-193.665,
00:00:27:833,1.052,0.145,0.168,26.489,42.358,-186.829,
00:00:27:850,1.125,0.136,0.179,4.333,45.837,-168.335,
00:00:27:867,1.176,0.114,0.2,-23.255,58.41,-156.311,
00:00:27:883,1.225,0.11,0.212,-97.84,80.505,-142.64,
00:00:27:900,1.249,0.156,0.19,-183.777,81.481,-122.925,
00:00:27:917,1.225,0.217,0.174,-217.347,68.725,-114.624,
00:00:27:933,1.189,0.26,0.165,-172.669,45.349,-95.398,
00:00:27:950,1.133,0.266,0.167,-82.581,-0.672,-61.585,
00:00:27:967,1.047,0.229,0.186,30.578,-51.331,-2.076,
00:00:27:983,0.972,0.158,0.175,113.586,-90.455,71.716,
00:00:28:0,0.934,0.091,0.16,123.352,-130.433,141.174,
00:00:28:17,0.943,0.039,0.119,45.288,-166.504,205.566,
00:00:28:33,0.969,0.012,0.067,-95.215,-228.882,251.648,
00:00:28:50,1.001,0.024,0.017,-248.658,-297.059,293.09,
00:00:28:67,1.034,0.054,-0.019,-361.268,-357.605,312.927,
00:00:28:83,1.048,0.093,-0.035,-426.575,-422.364,332.214,
00:00:28:100,1.026,0.136,-0.013,-429.017,-455.445,341.064,
00:00:28:117,1.014,0.161,0.006,-395.081,-435.547,337.341,
00:00:28:133,1,0.174,0.013,-316.529,-398.011,331.848,
00:00:28:150,0.957,0.177,0.023,-239.319,-354.065,329.773,
00:00:28:167,0.911,0.158,0.033,-148.316,-301.087,323.974,
00:00:28:183,0.889,0.129,0.029,-94.056,-247.01,318.298,
00:00:28:200,0.873,0.105,0.013,-76.6,-210.083,307.495,
00:00:28:217,0.874,0.098,0.013,-83.313,-194.031,286.438,
00:00:28:233,0.883,0.092,0.012,-103.15,-179.261,256.164,
00:00:28:250,0.875,0.088,0.021,-145.325,-169.8,213.623,
00:00:28:267,0.846,0.087,0.022,-192.688,-157.593,159.118,
00:00:28:283,0.812,0.094,0.025,-239.319,-137.696,99.853,
00:00:28:300,0.75,0.11,0.019,-272.767,-108.826,36.987,
00:00:28:317,0.765,0.129,0.014,-281.495,-71.961,-27.527,
00:00:28:333,0.747,0.144,0.019,-264.466,-36.805,-91.492,
00:00:28:350,0.728,0.156,0.035,-224.305,5.188,-145.142,
00:00:28:367,0.739,0.161,0.039,-180.542,70.19,-201.477,
00:00:28:383,0.77,0.154,0.038,-136.841,117.431,-253.296,
00:00:28:400,0.815,0.144,0.047,-118.592,156.921,-302.796,
00:00:28:417,0.872,0.13,0.054,-121.033,197.387,-356.69,
00:00:28:433,0.925,0.13,0.058,-142.518,219.543,-408.997,
00:00:28:450,0.968,0.14,0.061,-161.194,237.548,-463.196,
00:00:28:467,0.999,0.149,0.068,-178.04,250.122,-507.386,
00:00:28:483,1.023,0.153,0.087,-197.205,259.46,-545.35,
00:00:28:500,1.036,0.155,0.112,-214.478,263.794,-564.087,
00:00:28:517,1.022,0.146,0.146,-233.765,259.704,-547.303,
00:00:28:533,1.014,0.098,0.178,-308.106,223.205,-481.507,
00:00:28:550,1.083,0.059,0.188,-385.56,190.673,-445.801,
00:00:28:567,1.174,0.019,0.131,-570.862,142.089,-403.565,
00:00:28:583,1.288,0.01,0.064,-855.042,57.128,-371.827,
00:00:28:600,1.441,0.13,0.098,-1458.863,-129.09,-300.965,
00:00:28:617,1.278,0.231,0.152,-1608.338,-177.002,-230.957,
00:00:28:633,1.104,0.332,0.192,-1606.446,-170.655,-168.335,
00:00:28:650,0.965,0.401,0.188,-1451.539,-168.702,-86.548,
00:00:28:667,0.843,0.407,0.168,-1179.749,-180.359,1.037,
00:00:28:683,0.786,0.367,0.119,-912.842,-177.002,77.209,
00:00:28:700,0.837,0.306,0.076,-690.979,-166.321,123.535,
00:00:28:717,0.944,0.237,0.017,-575.928,-204.59,165.161,
00:00:28:733,0.986,0.185,-0.018,-554.749,-300.11,210.693,
00:00:28:750,0.965,0.16,-0.019,-593.873,-384.095,229.858,
00:00:28:767,0.922,0.159,-0.002,-635.926,-414.246,225.036,
00:00:28:783,0.891,0.174,0.032,-658.875,-399.231,212.463,
00:00:28:800,0.863,0.195,0.063,-652.588,-350.831,182.922,
00:00:28:817,0.826,0.214,0.099,-615.418,-280.762,151.855,
00:00:28:833,0.783,0.229,0.136,-529.847,-189.881,112.243,
00:00:28:850,0.754,0.229,0.153,-415.162,-92.408,65.795,
00:00:28:867,0.745,0.223,0.159,-273.926,0,24.292,
00:00:28:883,0.733,0.234,0.209,-118.653,59.753,-19.654,
00:00:28:900,0.717,0.252,0.279,74.829,113.769,-62.623,
00:00:28:917,0.839,0.169,0.23,484.863,204.651,-235.901,
00:00:28:933,0.871,0.106,0.199,449.89,172.302,-265.198,
00:00:28:950,0.871,0.069,0.192,350.647,118.652,-269.349,
00:00:28:967,0.858,0.043,0.212,229.309,72.876,-251.709,
00:00:28:983,0.838,0.033,0.233,90.82,45.593,-215.149,
00:00:29:0,0.83,0.035,0.248,-44.617,40.527,-166.687,
00:00:29:17,0.84,0.051,0.248,-162.659,46.814,-116.333,
00:00:29:33,0.866,0.097,0.248,-256.653,61.523,-78.186,
00:00:29:50,0.905,0.142,0.255,-288.697,80.932,-55.909,
00:00:29:67,0.944,0.167,0.281,-269.043,93.139,-52.674,
00:00:29:83,0.967,0.191,0.223,-222.84,91.308,-55.97,
00:00:29:100,0.977,0.207,0.192,-164.612,85.51,-65.552,
00:00:29:117,1,0.208,0.156,-94.361,87.036,-77.942,
00:00:29:133,1.067,0.199,0.127,-29.786,103.21,-106.995,
00:00:29:150,1.212,0.185,0.119,12.634,111.694,-143.616,
00:00:29:167,1.335,0.179,0.135,26.672,91.247,-171.998,
00:00:29:183,1.369,0.196,0.158,37.658,88.928,-192.81,
00:00:29:200,1.3,0.222,0.159,41.503,95.703,-207.52,
00:00:29:217,1.186,0.256,0.138,66.772,101.623,-197.205,
00:00:29:233,1.073,0.27,0.139,124.633,96.374,-164.063,
00:00:29:250,0.984,0.254,0.15,194.824,87.158,-97.718,
00:00:29:267,0.905,0.211,0.152,270.752,74.523,-15.381,
00:00:29:283,0.848,0.156,0.135,322.021,65.49,67.81,
00:00:29:300,0.848,0.143,0.111,323.181,69.336,125.61,
00:00:29:317,0.903,0.151,0.088,278.747,44.189,149.963,
00:00:29:333,0.964,0.16,0.051,234.985,-11.292,153.991,
00:00:29:350,1.003,0.169,0.022,202.087,-71.778,150.512,
00:00:29:367,0.939,0.203,-0.02,166.809,-289.002,120.117,
00:00:29:383,0.892,0.204,0.01,153.442,-261.536,129.638,
00:00:29:400,0.863,0.187,0.022,152.526,-207.947,148.559,
00:00:29:417,0.857,0.163,0.03,154.419,-144.41,175.659,
00:00:29:433,0.857,0.145,0.024,147.461,-79.346,206.604,
00:00:29:450,0.868,0.143,0.031,117.004,-23.987,223.51,
00:00:29:467,0.886,0.144,-0.021,80.871,12.268,220.52,
00:00:29:483,0.88,0.147,-0.037,45.715,27.404,205.078,
00:00:29:500,0.869,0.154,-0.035,14.404,37.658,180.542,
00:00:29:517,0.867,0.161,-0.032,0.549,50.048,143.921,
00:00:29:533,0.858,0.173,-0.025,15.564,58.776,104.553,
00:00:29:550,0.854,0.18,-0.022,49.682,68.786,59.265,
00:00:29:567,0.836,0.18,-0.008,89.782,77.514,16.784,
00:00:29:583,0.809,0.178,0,127.99,91.308,-17.884,
00:00:29:600,0.816,0.171,0.008,151.855,111.389,-51.27,
00:00:29:617,0.852,0.161,0.014,167.175,133.056,-81.299,
00:00:29:633,0.912,0.151,0.017,168.762,144.104,-106.263,
00:00:29:650,0.969,0.142,0.023,158.752,152.16,-129.822,
00:00:29:667,1.003,0.137,0.021,135.376,153.686,-152.344,
00:00:29:683,1.012,0.135,0.019,102.661,150.695,-173.035,
00:00:29:700,0.995,0.14,0.03,71.533,146.667,-178.345,
00:00:29:717,0.975,0.141,0.052,53.344,151.062,-182.068,
00:00:29:733,0.962,0.135,0.077,52.429,159.912,-177.491,
00:00:29:750,1.011,0.117,0.089,41.137,182.678,-180.542,
00:00:29:767,1.254,0.083,-0.04,-252.381,107.055,-206.604,
00:00:29:783,1.124,0.127,0.091,-413.147,11.901,-174.561,
00:00:29:800,1.062,0.136,0.145,-402.283,52.978,-165.833,
00:00:29:817,1,0.131,0.155,-385.254,74.829,-146.058,
00:00:29:833,0.936,0.118,0.149,-366.089,72.57,-118.531,
00:00:29:850,0.897,0.103,0.136,-357.85,53.711,-92.591,
00:00:29:867,0.871,0.079,0.115,-350.464,25.94,-67.017,
00:00:29:883,0.871,0.057,0.082,-347.901,1.464,-42.176,
00:00:29:900,0.901,0.051,0.071,-360.535,-38.636,-21.119,
00:00:29:917,0.947,0.054,0.061,-374.085,-80.689,-11.719,
00:00:29:933,0.967,0.065,0.068,-374.207,-118.714,-10.987,
00:00:29:950,0.965,0.08,0.076,-346.802,-134.827,-19.349,
00:00:29:967,0.949,0.087,0.087,-309.205,-133.057,-27.894,
00:00:29:983,0.908,0.088,0.103,-264.405,-116.944,-31.006,
00:00:30:0,0.857,0.084,0.119,-219.361,-82.886,-28.687,
00:00:30:17,0.831,0.062,0.125,-170.899,-39.063,-39.368,
00:00:30:33,0.831,0.032,0.114,-151.185,4.028,-44.861,
00:00:30:50,0.836,0.028,0.106,-153.626,28.198,-51.575,
00:00:30:67,0.86,0.038,0.098,-158.753,35.278,-72.571,
00:00:30:83,0.884,0.053,0.075,-160.584,30.456,-98.267,
00:00:30:100,0.901,0.067,0.077,-157.41,13.366,-120.484,
00:00:30:117,0.914,0.072,0.075,-145.02,6.713,-140.015,
00:00:30:133,0.918,0.071,0.093,-133.484,-0.061,-143.433,
00:00:30:150,0.904,0.073,0.111,-135.193,13,-136.902,
00:00:30:167,0.881,0.073,0.126,-136.719,25.756,-122.62,
00:00:30:183,0.854,0.078,0.136,-136.658,48.339,-97.29,
00:00:30:200,0.83,0.081,0.134,-136.719,65.673,-73.121,
00:00:30:217,0.844,0.086,0.135,-133.545,86.547,-57.618,
00:00:30:233,0.886,0.098,0.15,-132.019,101.867,-42.847,
00:00:30:250,0.92,0.115,0.177,-118.714,100.83,-37.903,
00:00:30:267,0.932,0.13,0.206,-90.271,99.243,-31.556,
00:00:30:283,0.939,0.132,0.201,-49.866,101.684,-31.006,
00:00:30:300,0.932,0.109,0.173,-32.471,82.275,-23.56,
00:00:30:317,0.922,0.08,0.138,-62.317,60.791,0.244,
00:00:30:333,0.936,0.059,0.113,-120.972,50.293,25.817,walkRH
00:00:30:350,1.015,0.053,0.093,-182.19,48.217,50.231,
00:00:30:367,1.156,0.079,0.079,-237.488,44.189,42.541,
00:00:30:383,1.3,0.112,0.086,-266.663,6.897,23.742,
00:00:30:400,1.312,0.157,0.115,-265.015,-26.795,2.685,
00:00:30:417,1.153,0.184,0.088,-235.535,-57.923,-3.785,
00:00:30:433,0.984,0.183,0.043,-194.825,-94.971,-6.104,
00:00:30:450,0.889,0.167,0.038,-159.729,-114.075,21.606,
00:00:30:467,0.871,0.141,0.063,-138.062,-93.079,65.673,
00:00:30:483,0.946,0.099,0.072,-133.118,-59.388,102.661,
00:00:30:500,1.055,0.082,0.046,-157.532,-66.895,153.869,
00:00:30:517,1.092,0.092,0.002,-207.642,-99.915,188.232,
00:00:30:533,1.081,0.11,-0.033,-262.085,-139.649,193.908,
00:00:30:550,1.079,0.136,-0.066,-288.575,-173.401,199.829,
00:00:30:567,1.074,0.137,-0.082,-263.245,-209.046,216.247,
00:00:30:583,1.056,0.115,-0.067,-211.365,-229.554,243.225,
00:00:30:600,1.05,0.078,-0.046,-178.711,-222.046,271.911,
00:00:30:617,1.039,0.036,-0.035,-183.045,-209.351,301.818,
00:00:30:633,1.005,0.009,-0.011,-221.68,-192.749,335.937,
00:00:30:650,0.983,0.003,-0.015,-283.57,-166.016,361.206,
00:00:30:667,0.995,0.007,-0.035,-347.535,-147.522,374.694,
00:00:30:683,0.99,0.016,-0.059,-405.579,-160.95,381.713,
00:00:30:700,0.962,0.032,-0.078,-445.923,-179.688,383.422,
00:00:30:717,0.941,0.047,-0.075,-471.07,-189.454,367.859,
00:00:30:733,0.838,0.141,-0.03,-643.311,-35.584,-310.975,
00:00:30:750,0.87,0.138,-0.04,-632.264,-24.537,-393.25,
00:00:30:767,0.945,0.155,-0.063,-651.062,-42.786,-532.044,
00:00:30:783,0.978,0.166,-0.075,-660.767,-60.181,-585.999,
00:00:30:800,1.006,0.174,-0.089,-662.293,-78.675,-631.714,
00:00:30:817,1.023,0.186,-0.079,-673.584,-91.065,-661.255,
00:00:30:833,1.042,0.197,-0.063,-685.608,-86.976,-681.763,
00:00:30:850,1.061,0.198,-0.019,-697.266,-77.637,-690.247,
00:00:30:867,1.079,0.194,-0.006,-715.76,-51.819,-684.327,
00:00:30:883,1.088,0.18,-0.009,-760.254,-42.054,-661.377,
00:00:30:900,1.109,0.163,-0.027,-843.201,-48.34,-634.4,
00:00:30:917,1.156,0.143,-0.082,-969.361,-69.153,-598.145,
00:00:30:933,1.259,0.128,-0.173,-1118.103,-105.835,-564.576,
00:00:30:950,1.381,0.144,-0.227,-1295.838,-178.467,-527.832,
00:00:30:967,1.308,0.213,-0.211,-1433.045,-252.808,-458.985,
00:00:30:983,1.108,0.277,-0.172,-1505.25,-280.701,-396.485,
00:00:31:0,0.957,0.311,-0.133,-1496.705,-271.424,-348.816,
00:00:31:17,0.884,0.331,-0.103,-1410.706,-222.229,-285.096,
00:00:31:33,0.869,0.331,-0.07,-1259.583,-161.622,-228.333,
00:00:31:50,0.931,0.337,-0.051,-1092.957,-114.808,-180.176,
00:00:31:67,0.951,0.332,-0.045,-902.894,-96.436,-152.649,
00:00:31:83,0.979,0.286,-0.044,-767.029,-108.033,-127.381,
00:00:31:100,0.998,0.202,-0.092,-708.619,-130.188,-93.75,
00:00:31:117,0.997,0.089,-0.134,-743.287,-188.843,-36.377,
00:00:31:133,0.996,0.014,-0.104,-858.155,-230.286,42.175,
00:00:31:150,0.977,-0.035,-0.079,-1011.78,-229.493,124.511,
00:00:31:167,0.958,-0.056,-0.062,-1106.568,-211.182,202.758,
00:00:31:183,0.921,-0.042,-0.029,-1145.997,-164.551,265.38,
00:00:31:200,0.896,0.004,-0.005,-1132.386,-101.502,297.302,
00:00:31:217,0.901,0.041,0.003,-1072.144,-39.917,278.076,
00:00:31:233,0.898,0.059,0.018,-942.444,-6.226,227.111,
00:00:31:250,0.844,0.051,0.023,-804.688,12.268,156.494,
00:00:31:267,0.846,0.041,0.038,-695.618,19.043,87.402,
00:00:31:283,0.839,0.038,0.045,-632.019,29.419,3.723,
00:00:31:300,0.849,0.041,0.029,-614.563,17.395,-73.914,
00:00:31:317,0.852,0.047,0.023,-597.168,-8.851,-149.659,
00:00:31:333,0.854,0.065,0.026,-576.6,-26.307,-206.543,
00:00:31:350,0.846,0.072,0.022,-570.374,-49.378,-247.071,
00:00:31:367,0.837,0.073,0.022,-587.769,-50.904,-272.706,
00:00:31:383,0.841,0.077,0.036,-625.245,-34.18,-280.64,
00:00:31:400,0.857,0.083,0.071,-660.401,8.117,-279.969,
00:00:31:417,0.866,0.093,0.115,-679.322,55.725,-272.095,
00:00:31:433,0.87,0.106,0.151,-673.706,122.009,-266.541,
00:00:31:450,0.885,0.122,0.162,-658.265,180.42,-260.071,
00:00:31:467,0.919,0.142,0.17,-642.212,230.957,-256.836,
00:00:31:483,0.953,0.168,0.189,-616.211,251.953,-258.545,
00:00:31:500,0.986,0.179,0.185,-557.923,269.348,-260.743,
00:00:31:517,1.007,0.177,0.185,-490.845,259.094,-249.573,
00:00:31:533,1.005,0.177,0.192,-429.566,240.905,-218.995,
00:00:31:550,0.987,0.169,0.213,-379.639,206.054,-177.857,
00:00:31:567,0.959,0.158,0.25,-348.694,182.251,-125.123,
00:00:31:583,0.944,0.141,0.263,-327.332,167.724,-66.956,
00:00:31:600,0.946,0.114,0.26,-319.703,149.597,-6.165,
00:00:31:617,0.955,0.101,0.242,-332.703,128.784,51.33,
00:00:31:633,1.019,0.089,0.192,-357.85,121.154,80.322,
00:00:31:650,1.186,0.065,0.189,-394.593,114.685,72.021,
00:00:31:667,1.354,0.07,0.199,-450.196,18.981,73.242,
00:00:31:683,1.268,0.1,0.161,-517.518,-117.493,114.013,
00:00:31:700,1.116,0.134,0.11,-567.383,-171.875,103.21,
00:00:31:717,1.064,0.165,0.07,-547.547,-196.106,79.406,
00:00:31:733,1.081,0.177,0.095,-507.081,-218.689,84.289,
00:00:31:750,1.082,0.16,0.157,-426.575,-235.962,104.248,
00:00:31:767,1.055,0.127,0.193,-380.494,-220.337,129.882,
00:00:31:783,1.044,0.103,0.174,-377.747,-189.82,147.705,
00:00:31:800,1.019,0.107,0.118,-424.805,-183.411,167.48,
00:00:31:817,1.002,0.124,0.067,-493.348,-198.426,171.386,
00:00:31:833,0.995,0.14,0.035,-538.575,-229.981,188.354,
00:00:31:850,0.983,0.158,0.033,-531.189,-256.897,214.599,
00:00:31:867,0.985,0.18,0.009,-472.779,-278.626,238.647,
00:00:31:883,0.999,0.191,-0.024,-401.307,-300.354,247.68,
00:00:31:900,1,0.188,-0.048,-329.59,-330.14,242.614,
00:00:31:917,0.966,0.179,-0.051,-270.997,-358.887,241.638,
00:00:31:933,0.914,0.179,-0.043,-222.779,-372.071,234.192,
00:00:31:950,0.924,0.182,-0.026,-183.777,-346.985,211.792,
00:00:31:967,0.922,0.164,-0.037,-162.171,-340.149,196.045,
00:00:31:983,0.868,0.15,-0.024,-157.532,-328.125,189.453,
00:00:32:0,0.824,0.141,-0.025,-172.425,-283.936,172.851,
00:00:32:17,0.815,0.136,-0.025,-198.609,-241.211,150.512,
00:00:32:33,0.815,0.135,-0.025,-231.995,-201.233,129.699,
00:00:32:50,0.826,0.137,-0.031,-265.686,-159.546,98.449,
00:00:32:67,0.831,0.139,-0.052,-299.256,-127.808,64.514,
00:00:32:83,0.821,0.154,-0.061,-322.876,-105.042,23.132,
00:00:32:100,0.821,0.173,-0.067,-326.722,-71.656,-22.644,
00:00:32:117,0.83,0.191,-0.067,-308.35,-38.514,-78.858,
00:00:32:133,0.853,0.209,-0.052,-254.334,-10.193,-135.071,
00:00:32:150,0.868,0.227,-0.032,-180.42,28.625,-182.923,
00:00:32:167,0.854,0.223,-0.002,-104.248,65.49,-220.948,
00:00:32:183,0.846,0.218,0.018,-27.832,112.793,-248.78,
00:00:32:200,0.866,0.21,0.033,27.648,150.146,-265.809,
00:00:32:217,0.893,0.204,0.053,81.054,181.884,-272.034,
00:00:32:233,0.925,0.19,0.063,121.643,200.134,-276.734,
00:00:32:250,0.97,0.161,0.073,136.047,213.745,-286.316,
00:00:32:267,1.015,0.138,0.057,110.107,218.2,-287.964,
00:00:32:283,1.046,0.12,0.059,49.743,205.627,-285.645,
00:00:32:300,1.073,0.112,0.094,-26.062,188.903,-285.035,
00:00:32:317,1.081,0.105,0.129,-93.873,180.114,-280.091,
00:00:32:333,1.092,0.094,0.132,-181.58,175.903,-279.297,
00:00:32:350,1.127,0.074,0.119,-296.143,161.804,-281.006,
00:00:32:367,1.174,0.058,0.098,-433.228,140.686,-285.401,
00:00:32:383,1.223,0.06,0.103,-608.521,114.135,-291.199,
00:00:32:400,1.242,0.089,0.13,-753.296,87.646,-292.359,
00:00:32:417,1.206,0.132,0.172,-859.803,68.542,-290.894,
00:00:32:433,1.123,0.176,0.234,-921.631,56.945,-289.002,
00:00:32:450,1.031,0.21,0.27,-896.729,48.339,-278.748,
00:00:32:467,0.952,0.249,0.28,-832.032,33.447,-269.41,
00:00:32:483,0.898,0.278,0.276,-734.803,16.235,-258.606,
00:00:32:500,0.857,0.285,0.243,-598.511,-10.376,-240.662,
00:00:32:517,0.844,0.279,0.209,-464.905,-51.697,-211.609,
00:00:32:533,0.882,0.256,0.152,-339.356,-76.661,-173.89,
00:00:32:550,0.958,0.227,0.108,-247.376,-139.954,-121.216,
00:00:32:567,1,0.209,0.076,-193.177,-228.15,-35.035,
00:00:32:583,0.998,0.192,0.084,-164.795,-304.322,23.986,
00:00:32:600,0.979,0.175,0.084,-147.889,-332.581,88.073,
00:00:32:617,0.964,0.156,0.095,-133.179,-337.159,144.226,
00:00:32:633,0.952,0.135,0.116,-129.761,-309.021,199.401,
00:00:32:650,0.923,0.125,0.136,-140.198,-270.935,242.736,
00:00:32:667,0.873,0.128,0.161,-160.767,-211.365,264.831,
00:00:32:683,0.822,0.127,0.178,-176.453,-141.236,263.488,
00:00:32:700,0.775,0.128,0.162,-186.158,-73.975,245.056,
00:00:32:717,0.753,0.135,0.143,-172.364,-12.146,206.97,
00:00:32:733,0.751,0.141,0.123,-125.672,22.949,160.888,
00:00:32:750,0.769,0.155,0.121,-49.744,50.659,106.262,
00:00:32:767,0.794,0.169,0.123,45.776,59.082,53.711,
00:00:32:783,0.821,0.168,0.128,147.949,65.856,-5.127,
00:00:32:800,0.846,0.152,0.141,226.379,74.768,-56.946,
00:00:32:817,0.864,0.142,0.145,297.729,86.731,-89.173,
00:00:32:833,0.879,0.133,0.164,371.399,98.999,-112.61,
00:00:32:850,0.877,0.119,0.191,403.564,114.318,-120.057,
00:00:32:867,0.859,0.101,0.225,424.377,130.981,-117.859,
00:00:32:883,0.827,0.084,0.244,411.865,154.235,-106.507,
00:00:32:900,0.8,0.065,0.249,370.117,171.142,-91.248,
00:00:32:917,0.791,0.056,0.255,313.964,191.894,-77.759,
00:00:32:933,0.813,0.055,0.247,246.826,214.965,-73.243,
00:00:32:950,0.872,0.067,0.232,173.217,225.402,-77.271,
00:00:32:967,0.944,0.091,0.217,150.146,212.646,-92.469,
00:00:32:983,0.996,0.116,0.206,139.953,179.565,-110.657,
00:00:33:0,1.018,0.142,0.19,147.888,126.098,-129.822,
00:00:33:17,1.03,0.162,0.181,175.842,113.403,-147.583,
00:00:33:33,1.052,0.175,0.164,214.355,109.558,-162.476,
00:00:33:50,1.117,0.182,0.166,263.183,124.206,-173.401,
00:00:33:67,1.247,0.17,0.18,317.566,146.606,-191.285,
00:00:33:83,1.365,0.16,0.175,347.839,155.029,-198.06,
00:00:33:100,1.419,0.168,0.174,345.398,150.085,-192.322,
00:00:33:117,1.347,0.201,0.158,333.435,126.037,-170.166,
00:00:33:133,1.228,0.232,0.138,335.632,94.421,-134.034,
00:00:33:150,1.094,0.238,0.113,368.591,50.354,-77.21,
00:00:33:167,0.981,0.214,0.103,431.335,-2.869,14.282,
00:00:33:183,0.888,0.165,0.104,496.887,-33.081,81.543,
00:00:33:200,0.862,0.128,0.104,507.446,-35.584,146.789,
00:00:33:217,0.898,0.128,0.106,450.927,-46.692,184.387,
00:00:33:233,0.958,0.139,0.067,375.732,-76.172,200.683,
00:00:33:250,0.996,0.154,0.002,331.298,-132.569,203.186,
00:00:33:267,1.008,0.171,-0.043,285.034,-198.548,194.824,
00:00:33:283,0.993,0.197,-0.086,274.414,-246.766,180.786,
00:00:33:300,0.969,0.231,-0.095,321.045,-286.927,160.339,
00:00:33:317,0.949,0.276,-0.065,427.551,-290.65,136.718,
00:00:33:334,0.926,0.289,-0.03,583.007,-268.494,124.023,
00:00:33:350,0.885,0.27,-0.007,742.614,-206.116,119.69,
00:00:33:367,0.853,0.243,-0.016,861.694,-133.24,125.732,
00:00:33:384,0.842,0.195,-0.043,905.7,-78.736,132.019,
00:00:33:400,0.85,0.139,-0.073,865.783,-38.514,147.4,
00:00:33:417,0.866,0.103,-0.079,731.445,-29.419,169.006,
00:00:33:434,0.878,0.086,-0.083,581.176,-36.255,185.547,
00:00:33:450,0.89,0.085,-0.083,414.55,-42.908,194.702,
00:00:33:467,0.899,0.095,-0.079,273.071,-57.251,192.688,
00:00:33:484,0.898,0.116,-0.068,169.983,-57.007,182.434,
00:00:33:500,0.89,0.135,-0.058,96.618,-49.073,159.179,
00:00:33:517,0.863,0.146,-0.039,53.039,-33.204,135.803,
00:00:33:534,0.822,0.158,-0.018,28.32,-3.296,114.257,
00:00:33:550,0.795,0.173,-0.001,22.155,38.635,95.275,
00:00:33:567,0.799,0.187,0.004,53.039,80.017,78.796,
00:00:33:584,0.861,0.196,0.003,107.788,115.478,54.443,
00:00:33:600,0.94,0.218,-0.002,167.785,122.07,16.418,
00:00:33:617,1.013,0.166,0.004,213.501,122.741,14.282,
00:00:33:634,1.05,0.134,-0.003,219.726,104.248,1.953,
00:00:33:650,1.052,0.115,-0.001,194.336,82.58,-0.428,
00:00:33:667,1.037,0.098,0.017,155.944,68.542,-0.245,
00:00:33:684,1.05,0.089,0.049,104.553,75.073,-2.32,
00:00:33:700,1.125,0.086,0.075,49.255,95.642,-14.405,
00:00:33:717,1.203,0.089,0.077,-0.855,119.079,-36.133,
00:00:33:734,1.258,0.099,0.078,-53.406,133.85,-71.9,
00:00:33:750,1.274,0.123,0.114,-87.891,146.118,-116.211,
00:00:33:767,1.202,0.161,0.196,-76.6,171.081,-144.593,
00:00:33:784,1.071,0.193,0.282,-18.433,179.565,-148.499,
00:00:33:800,0.94,0.2,0.326,76.965,187.317,-131.47,
00:00:33:817,0.842,0.171,0.337,182.983,192.871,-100.403,
00:00:33:834,0.798,0.119,0.308,228.027,202.331,-67.505,
00:00:33:850,0.827,0.064,0.264,227.172,214.355,-34.974,
00:00:33:867,0.918,0.045,0.187,179.382,191.223,-13.001,
00:00:33:884,1.014,0.046,0.116,115.661,87.158,3.234,
00:00:33:900,1.042,0.054,0.075,62.194,-63.355,24.108,
00:00:33:917,1.008,0.071,0.082,18.493,-190.369,36.987,
00:00:33:934,0.97,0.088,0.122,-2.32,-264.893,29.48,
00:00:33:950,0.949,0.1,0.169,-7.752,-266.785,24.108,
00:00:33:967,0.903,0.114,0.226,-15.198,-253.602,28.564,
00:00:33:984,0.835,0.123,0.245,-14.466,-201.783,41.381,
00:00:34:0,0.782,0.129,0.239,-4.395,-124.085,36.682,
00:00:34:17,0.768,0.121,0.203,8.239,-49.134,29.419,
00:00:34:34,0.778,0.117,0.161,11.23,-3.357,26.55,
00:00:34:50,0.804,0.124,0.141,16.601,17.211,15.564,
00:00:34:67,0.83,0.13,0.125,31.921,20.69,-3.296,
00:00:34:84,0.847,0.135,0.133,45.898,13.305,-28.565,
00:00:34:100,0.861,0.139,0.139,62.133,11.718,-50.904,
00:00:34:117,0.866,0.144,0.146,79.04,14.709,-73.792,
00:00:34:134,0.842,0.141,0.162,99.487,16.784,-89.051,
00:00:34:150,0.795,0.14,0.176,114.257,35.522,-89.783,
00:00:34:167,0.755,0.137,0.19,116.577,58.349,-87.22,
00:00:34:184,0.747,0.139,0.199,117.553,103.149,-85.877,
00:00:34:200,0.774,0.142,0.206,121.032,146.118,-92.774,
00:00:34:217,0.831,0.157,0.205,139.099,174.499,-107.422,
00:00:34:234,0.892,0.174,0.21,186.34,195.678,-133.118,
00:00:34:250,0.929,0.187,0.199,222.839,196.899,-162.659,
00:00:34:267,0.951,0.201,0.199,284.057,184.326,-195.496,
00:00:34:284,0.927,0.203,0.175,326.477,164.428,-211.304,
00:00:34:300,0.912,0.207,0.138,365.661,168.701,-218.445,
00:00:34:317,0.981,0.229,0.087,400.756,185.608,-227.295,
00:00:34:334,1.091,0.266,0.061,464.172,194.03,-239.747,walkRH
00:00:34:350,1.253,0.307,0.078,558.899,198.913,-262.757,
00:00:34:367,1.412,0.319,0.143,681.518,212.951,-279.358,
00:00:34:384,1.506,0.304,0.132,793.457,230.896,-271.119,
00:00:34:400,1.427,0.282,0.089,813.72,208.618,-223.206,
00:00:34:417,1.249,0.248,0.041,749.023,152.221,-144.104,
00:00:34:434,1.078,0.196,0.015,651.794,71.838,-31.617,
00:00:34:450,0.948,0.136,0.037,559.692,4.638,117.187,
00:00:34:467,0.86,0.073,0.06,485.901,-2.442,254.15,
00:00:34:484,0.882,0.053,0.052,387.512,11.413,354.675,
00:00:34:500,0.96,0.061,0.021,240.783,-3.052,424.255,
00:00:34:517,1.003,0.099,0.003,108.764,-54.017,459.167,
00:00:34:534,0.979,0.157,-0.008,-8.118,-98.755,466.43,
00:00:34:550,0.939,0.216,-0.012,-62.867,-98.938,432.434,
00:00:34:567,0.913,0.256,-0.036,-49.378,-78.919,389.648,
00:00:34:584,0.889,0.283,-0.053,61.279,-52.369,343.933,
00:00:34:600,0.862,0.289,-0.049,212.036,-23.804,283.142,
00:00:34:617,0.835,0.276,-0.03,394.104,18.188,255.432,
00:00:34:634,0.822,0.253,-0.028,535.827,56.823,225.097,
00:00:34:650,0.822,0.217,-0.048,621.582,74.462,202.697,
00:00:34:667,0.808,0.171,-0.071,636.291,67.749,185.241,
00:00:34:684,0.807,0.141,-0.089,593.261,55.053,174.194,
00:00:34:700,0.826,0.125,-0.096,511.291,39.856,161.682,
00:00:34:717,0.853,0.123,-0.087,419.555,30.639,147.4,
00:00:34:734,0.868,0.124,-0.073,329.101,34.606,126.831,
00:00:34:750,0.875,0.143,-0.063,265.442,53.772,92.102,
00:00:34:767,0.877,0.165,-0.051,217.163,79.773,55.175,
00:00:34:784,0.863,0.203,-0.038,197.448,114.563,2.685,
00:00:34:800,0.845,0.231,-0.023,210.144,148.376,-46.387,
00:00:34:817,0.828,0.242,-0.014,270.935,178.955,-90.455,
00:00:34:834,0.848,0.246,0.005,340.881,198.974,-126.221,
00:00:34:850,0.904,0.228,-0.002,406.128,212.28,-156.556,
00:00:34:867,0.965,0.205,-0.001,437.378,201.66,-178.101,
00:00:34:884,1.029,0.197,0.001,446.228,183.776,-198.365,
00:00:34:900,1.081,0.195,-0.001,446.899,150.268,-211.853,
00:00:34:917,1.102,0.186,0.016,437.744,112.365,-216.614,
00:00:34:934,1.094,0.17,0.035,415.344,80.322,-213.929,
00:00:34:950,1.083,0.152,0.061,379.638,55.542,-200.928,
00:00:34:967,1.105,0.131,0.054,322.692,48.523,-184.266,
00:00:34:984,1.222,0.105,0.023,235.534,49.316,-186.707,
00:00:35:0,1.336,0.099,0.012,111.755,26.855,-187.928,
00:00:35:17,1.349,0.119,0.03,-4.7,5.127,-178.894,
00:00:35:34,1.264,0.171,0.085,-65.064,13.977,-176.392,
00:00:35:50,1.071,0.216,0.161,-61.646,22.705,-158.814,
00:00:35:67,0.871,0.236,0.224,10.131,34.912,-109.253,
00:00:35:84,0.756,0.235,0.224,117.92,67.382,-56.946,
00:00:35:100,0.746,0.199,0.208,208.191,129.516,-24.353,
00:00:35:117,0.851,0.156,0.186,271.118,177.002,-13.245,
00:00:35:134,0.987,0.126,0.132,295.471,145.996,5.432,
00:00:35:150,1.05,0.117,0.077,286.316,35.644,25.39,
00:00:35:167,1.025,0.13,0.035,259.338,-70.801,25.207,
00:00:35:184,0.977,0.146,0.031,225.402,-160.401,5.859,
00:00:35:200,0.942,0.158,0.056,215.332,-207.459,-14.954,
00:00:35:217,0.894,0.162,0.098,226.44,-218.75,-12.513,
00:00:35:234,0.85,0.17,0.148,244.262,-196.717,5.188,
00:00:35:250,0.818,0.17,0.166,269.165,-134.522,25.146,
00:00:35:267,0.816,0.162,0.148,300.964,-72.449,42.663,
00:00:35:284,0.823,0.154,0.112,320.312,-27.527,57.495,
00:00:35:300,0.839,0.15,0.093,324.34,-1.526,69.397,
00:00:35:317,0.855,0.148,0.086,312.683,6.286,69.336,
00:00:35:334,0.861,0.151,0.081,298.462,-0.306,63.476,
00:00:35:350,0.868,0.156,0.077,285.156,-15.32,48.95,
00:00:35:367,0.872,0.162,0.075,280.578,1.281,31.494,
00:00:35:384,0.865,0.167,0.082,292.663,4.15,14.404,
00:00:35:400,0.847,0.17,0.082,308.41,10.376,3.479,
00:00:35:417,0.822,0.174,0.095,324.707,32.836,-4.578,
00:00:35:434,0.804,0.18,0.104,347.412,61.706,-9.888,
00:00:35:450,0.805,0.185,0.12,372.436,100.402,-13.794,
00:00:35:467,0.824,0.184,0.129,396.484,135.681,-20.63,
00:00:35:484,0.848,0.188,0.139,422.485,155.029,-28.87,
00:00:35:500,0.869,0.191,0.138,449.279,164.489,-32.532,
00:00:35:517,0.895,0.196,0.134,476.928,170.532,-42.725,
00:00:35:534,0.936,0.202,0.128,507.568,164.245,-52.857,
00:00:35:550,0.979,0.2,0.118,532.226,146.179,-57.435,
00:00:35:567,1.024,0.19,0.106,551.025,129.089,-54.444,
00:00:35:584,1.098,0.177,0.051,545.044,121.215,-53.162,
00:00:35:600,1.223,0.175,0.022,519.714,104.37,-55.176,
00:00:35:617,1.348,0.185,0.024,492.187,72.326,-44.495,
00:00:35:634,1.357,0.198,0.047,486.45,56.579,-11.902,
00:00:35:650,1.289,0.217,0.068,506.103,66.467,16.601,
00:00:35:667,1.191,0.216,0.053,546.753,76.599,63.903,
00:00:35:684,1.092,0.211,0.028,556.335,77.331,117.614,
00:00:35:700,0.999,0.193,0.023,583.618,62.439,181.091,
00:00:35:717,0.932,0.184,0.04,609.008,52.429,241.272,
00:00:35:734,0.92,0.114,0.046,581.298,42.968,300.476,
00:00:35:750,0.956,0.116,0.005,499.023,6.836,270.08,
00:00:35:767,0.962,0.136,-0.025,414.428,-41.382,233.764,
00:00:35:784,0.946,0.163,-0.042,360.107,-82.276,170.288,
00:00:35:800,0.943,0.19,-0.059,351.44,-109.498,113.647,
00:00:35:817,0.934,0.22,-0.08,382.141,-123.963,66.162,
00:00:35:834,0.926,0.232,-0.071,440.124,-132.264,32.287,
00:00:35:850,0.898,0.173,-0.067,524.109,-55.481,70.19,
00:00:35:867,0.892,0.168,-0.078,481.323,-27.1,92.651,
00:00:35:884,0.901,0.151,-0.088,420.288,-4.273,106.689,
00:00:35:900,0.905,0.157,-0.096,368.103,6.164,131.347,
00:00:35:917,0.902,0.174,-0.103,323.608,19.592,140.625,
00:00:35:934,0.902,0.189,-0.099,310.485,32.714,131.897,
00:00:35:950,0.912,0.19,-0.091,314.88,46.997,118.347,
00:00:35:967,0.916,0.185,-0.082,318.908,65.673,96.069,
00:00:35:984,0.914,0.193,-0.077,323.852,81.787,73.486,
00:00:36:0,0.908,0.19,-0.061,328.491,104.37,50.415,
00:00:36:17,0.887,0.179,-0.047,326.477,120.178,31.799,
00:00:36:34,0.876,0.174,-0.032,310.608,129.638,17.089,
00:00:36:50,0.883,0.174,-0.013,284.607,143.493,3.723,
00:00:36:67,0.89,0.182,0.015,268.005,154.174,-4.7,
00:00:36:84,0.986,0.19,0.015,246.521,143.676,-34.546,
00:00:36:100,1.003,0.189,0.026,246.215,123.657,-42.786,
00:00:36:117,1,0.187,0.042,245.971,106.872,-39.734,
