TIMECODE,ACC_X,ACC_Y,ACC_Z,GYR_X,GYR_Y,GYR_Z,TAG
00:00:00:0,-0.101,0.352,0.955,-12.085,14.221,-31.128,
00:00:00:16,-0.107,0.354,0.949,-5.86,9.216,-34.424,
00:00:00:33,-0.111,0.355,0.951,2.685,10.559,-38.88,
00:00:00:50,-0.095,0.355,0.936,8.667,15.075,-33.692,
00:00:00:66,-0.106,0.358,0.947,14.099,17.517,-30.396,
00:00:00:83,-0.11,0.361,0.937,13.732,28.625,-27.344,
00:00:00:100,-0.106,0.368,0.934,12.634,30.7,-26.551,
00:00:00:116,-0.109,0.37,0.928,8.972,30.822,-23.743,
00:00:00:133,-0.097,0.345,0.933,5.615,36.621,-24.17,
00:00:00:150,-0.091,0.369,0.931,-4.212,29.357,-25.879,
00:00:00:166,-0.097,0.364,0.931,-15.198,12.634,-24.598,
00:00:00:183,-0.103,0.366,0.933,-30.762,13.671,-26.49,
00:00:00:200,-0.104,0.364,0.918,-41.016,4.15,-28.992,
00:00:00:216,-0.1,0.365,0.922,-29.908,-2.503,-33.387,
00:00:00:233,-0.097,0.366,0.928,-25.818,-9.339,-32.349,
00:00:00:250,-0.099,0.366,0.934,-27.344,-9.766,-30.335,
00:00:00:266,-0.106,0.362,0.931,-34.729,-13.672,-27.283,
00:00:00:283,-0.105,0.361,0.935,-31.678,-12.818,-23.316,
00:00:00:300,-0.103,0.36,0.942,-28.077,-10.865,-24.231,
00:00:00:316,-0.105,0.359,0.935,-23.438,-8.484,-20.508,
00:00:00:333,-0.107,0.362,0.937,-23.804,-6.226,-22.461,
00:00:00:350,-0.107,0.373,0.939,-25.513,-1.16,-25.147,
00:00:00:366,-0.107,0.379,0.938,-24.842,-1.038,-23.499,
00:00:00:383,-0.114,0.377,0.938,-22.461,-0.611,-18.982,
00:00:00:400,-0.117,0.367,0.938,-26.49,1.281,-16.053,
00:00:00:416,-0.116,0.358,0.928,-26.49,2.99,-19.532,
00:00:00:433,-0.11,0.354,0.927,-30.396,7.446,-18.372,
00:00:00:450,-0.11,0.356,0.922,-26.856,1.098,-18.311,
00:00:00:466,-0.113,0.365,0.922,-22.339,1.22,-19.41,
00:00:00:483,-0.114,0.372,0.927,-18.311,-4.273,-21.851,
00:00:00:500,-0.121,0.375,0.922,-25.574,-4.517,-22.339,
00:00:00:516,-0.124,0.381,0.937,-26.978,2.563,-25.635,
00:00:00:533,-0.113,0.379,0.936,-27.405,1.709,-28.016,
00:00:00:550,-0.115,0.345,0.934,-31.434,15.075,-27.527,
00:00:00:566,-0.122,0.374,0.929,-37.11,-3.907,-26.429,
00:00:00:583,-0.123,0.371,0.919,-34.607,-2.015,-26.795,
00:00:00:600,-0.12,0.37,0.922,-28.077,5.615,-27.588,
00:00:00:616,-0.119,0.374,0.929,-23.011,5.371,-28.87,
00:00:00:633,-0.116,0.369,0.942,-12.024,2.868,-30.457,
00:00:00:650,-0.114,0.367,0.945,-19.349,4.943,-32.227,
00:00:00:666,-0.112,0.371,0.937,-28.016,5.127,-31.983,
00:00:00:683,-0.116,0.377,0.927,-25.635,8.667,-31.922,
00:00:00:700,-0.118,0.376,0.924,-18.799,7.934,-31.983,
00:00:00:716,-0.12,0.344,0.931,-15.503,3.601,-30.274,
00:00:00:733,-0.124,0.377,0.933,-12.207,8.056,-29.664,
00:00:00:750,-0.121,0.374,0.933,-15.015,9.521,-30.823,
00:00:00:766,-0.119,0.369,0.928,-14.222,10.376,-30.762,
00:00:00:783,-0.122,0.366,0.922,-21.302,3.784,-28.748,
00:00:00:800,-0.125,0.367,0.919,-26.429,7.324,-28.809,
00:00:00:816,-0.122,0.37,0.912,-26.307,5.31,-27.466,
00:00:00:833,-0.122,0.377,0.921,-15.503,10.07,-26.062,
00:00:00:850,-0.121,0.377,0.933,-2.137,8.056,-25.025,
00:00:00:866,-0.115,0.383,0.963,19.653,14.221,-16.846,
00:00:00:883,-0.111,0.377,0.982,30.09,3.967,-3.968,
00:00:00:900,-0.116,0.354,0.973,33.447,-4.944,-7.019,
00:00:00:916,-0.117,0.334,0.959,20.874,7.69,-9.888,
00:00:00:933,-0.108,0.335,0.945,-9.766,16.784,-10.621,
00:00:00:950,-0.102,0.363,0.936,-11.353,30.151,-12.024,
00:00:00:966,-0.104,0.381,0.932,19.836,31.066,-16.358,
00:00:00:983,-0.104,0.377,0.936,36.071,28.015,-16.907,
00:00:01:0,-0.115,0.366,0.934,29.846,26.855,-16.053,
00:00:01:16,-0.129,0.361,0.924,4.638,25.451,-14.588,
00:00:01:33,-0.138,0.361,0.917,-15.809,33.935,-13.977,
00:00:01:50,-0.124,0.366,0.91,-17.579,41.259,-18.433,
00:00:01:66,-0.124,0.36,0.904,-10.071,36.315,-19.776,
00:00:01:83,-0.125,0.356,0.919,6.347,32.043,-22.095,
00:00:01:100,-0.115,0.354,0.924,6.286,35.583,-26.49,
00:00:01:116,-0.109,0.35,0.921,3.906,26.001,-28.26,
00:00:01:133,-0.118,0.349,0.917,-3.968,11.779,-27.71,
00:00:01:150,-0.125,0.35,0.923,-10.56,19.409,-31.556,
00:00:01:166,-0.115,0.367,0.939,-7.447,24.902,-33.936,
00:00:01:183,-0.113,0.374,0.948,-5.86,19.409,-34.485,
00:00:01:200,-0.114,0.379,0.962,-3.724,11.901,-37.842,
00:00:01:216,-0.11,0.363,0.945,-18.006,11.657,-36.622,
00:00:01:233,-0.107,0.349,0.914,-37.903,5.065,-31.922,
00:00:01:250,-0.114,0.35,0.908,-43.641,10.437,-31.311,
00:00:01:266,-0.109,0.345,0.922,-18.433,30.883,-33.509,
00:00:01:283,-0.105,0.332,0.923,1.586,14.099,-34.18,
00:00:01:300,-0.11,0.335,0.94,5.798,5.371,-39.429,
00:00:01:316,-0.111,0.351,0.948,-3.235,12.268,-38.392,
00:00:01:333,-0.112,0.367,0.944,-11.963,10.253,-34.485,
00:00:01:350,-0.113,0.371,0.946,-9.156,11.596,-36.866,
00:00:01:366,-0.108,0.372,0.948,-11.048,18.249,-37.903,
00:00:01:383,-0.109,0.362,0.94,-12.146,16.723,-33.081,
00:00:01:400,-0.111,0.355,0.966,-16.114,13.244,-32.654,
00:00:01:416,-0.112,0.352,0.938,-21.302,15.991,-31.128,
00:00:01:433,-0.107,0.353,0.939,-26.795,20.996,-32.288,
00:00:01:450,-0.107,0.352,0.934,-17.334,16.601,-31.25,
00:00:01:466,-0.109,0.354,0.942,-5.005,15.625,-32.349,
00:00:01:483,-0.107,0.346,0.943,-7.691,16.723,-30.396,
00:00:01:500,-0.105,0.35,0.939,-12.818,16.601,-31.067,
00:00:01:516,-0.103,0.355,0.946,-17.029,12.329,-31.128,
00:00:01:533,-0.107,0.354,0.935,-18.616,11.84,-27.466,
00:00:01:550,-0.109,0.356,0.942,-13.855,14.648,-25.513,
00:00:01:566,-0.108,0.362,0.944,-10.865,20.935,-27.955,
00:00:01:583,-0.105,0.353,0.937,-11.109,20.507,-30.03,
00:00:01:600,-0.106,0.349,0.942,-13.123,17.944,-25.696,
00:00:01:616,-0.108,0.344,0.934,-22.339,17.578,-24.109,
00:00:01:633,-0.109,0.346,0.928,-22.217,19.104,-24.842,
00:00:01:650,-0.11,0.35,0.933,-9.034,20.202,-26.551,
00:00:01:666,-0.108,0.353,0.931,-6.531,21.057,-29.541,
00:00:01:683,-0.105,0.356,0.937,-2.747,18.432,-32.776,
00:00:01:700,-0.107,0.359,0.941,-11.78,21.301,-27.039,
00:00:01:716,-0.106,0.361,0.909,-18.311,21.301,-27.466,
00:00:01:733,-0.099,0.358,0.936,-20.081,16.723,-24.781,
00:00:01:750,-0.102,0.348,0.934,-14.649,10.07,-24.414,
00:00:01:766,-0.107,0.343,0.937,-15.87,10.803,-25.269,
00:00:01:783,-0.107,0.343,0.931,-15.015,15.014,-30.335,
00:00:01:800,-0.105,0.347,0.933,-14.954,14.404,-31.739,
00:00:01:816,-0.104,0.351,0.939,-0.611,10.376,-28.138,
00:00:01:833,-0.11,0.359,0.938,-18.982,12.634,-30.762,
00:00:01:850,-0.105,0.363,0.945,-16.724,17.7,-32.837,
00:00:01:866,-0.099,0.357,0.951,-11.048,21.301,-24.414,
00:00:01:883,-0.101,0.346,0.938,-11.231,17.15,-23.56,
00:00:01:900,-0.108,0.331,0.926,-13.977,14.16,-28.931,
00:00:01:916,-0.108,0.338,0.927,-21.546,20.446,-32.227,
00:00:01:933,-0.1,0.358,0.935,-23.926,28.564,-34.79,
00:00:01:950,-0.093,0.404,0.944,-8.606,26.245,-30.945,
00:00:01:966,-0.096,0.366,0.948,3.051,19.897,-29.114,
00:00:01:983,-0.102,0.344,0.944,2.868,13.122,-28.382,
00:00:02:0,-0.108,0.33,0.934,-20.874,12.146,-27.649,
00:00:02:16,-0.106,0.34,0.931,-34.241,18.798,-26.49,
00:00:02:33,-0.102,0.355,0.926,-29.419,23.193,-30.701,
00:00:02:50,-0.103,0.364,0.926,-9.888,20.141,-34.729,
00:00:02:66,-0.112,0.369,0.939,2.075,18.798,-38.208,
00:00:02:83,-0.107,0.369,0.962,8.483,41.198,-46.692,
00:00:02:100,-0.095,0.364,0.966,4.76,52.673,-48.951,
00:00:02:116,-0.086,0.351,0.953,-3.174,45.776,-40.955,
00:00:02:133,-0.084,0.327,0.929,-18.372,30.7,-30.579,
00:00:02:150,-0.089,0.314,0.912,-37.659,25.268,-26.551,
00:00:02:166,-0.09,0.328,0.919,-40.039,21.118,-26.062,
00:00:02:183,-0.084,0.354,0.925,-17.762,28.625,-31.617,
00:00:02:200,-0.082,0.363,0.946,20.568,18.615,-36.866,
00:00:02:216,-0.098,0.353,0.952,26.123,11.047,-39.063,
00:00:02:233,-0.101,0.351,0.91,-2.442,12.573,-40.284,
00:00:02:250,-0.093,0.354,0.931,-27.771,13.061,-37.842,
00:00:02:266,-0.092,0.358,0.931,-41.565,9.155,-32.227,
00:00:02:283,-0.089,0.363,0.935,-32.41,8.85,-31.128,
00:00:02:300,-0.087,0.363,0.959,-10.743,13.794,-36.683,
00:00:02:316,-0.084,0.353,0.961,-7.874,16.601,-38.636,
00:00:02:333,-0.082,0.342,0.943,-16.663,8.789,-35.096,
00:00:02:350,-0.086,0.329,0.939,-23.743,5.065,-30.152,
00:00:02:366,-0.088,0.326,0.925,-35.157,0.793,-25.818,
00:00:02:383,-0.095,0.331,0.913,-26.612,8.178,-28.687,
00:00:02:400,-0.098,0.325,0.907,-9.034,12.207,-33.875,
00:00:02:416,-0.106,0.332,0.915,-5.005,16.174,-37.049,
00:00:02:433,-0.102,0.351,0.877,1.342,29.235,-36.866,
00:00:02:450,-0.093,0.353,0.881,23.376,23.925,-45.716,
00:00:02:466,-0.098,0.358,0.882,44.738,25.634,-70.313,
00:00:02:483,-0.094,0.417,0.881,43.64,53.283,-120.667,
00:00:02:500,-0.079,0.512,0.85,92.834,83.313,-138.672,
00:00:02:516,-0.069,0.498,0.832,254.76,55.236,-98.633,
00:00:02:533,-0.131,0.365,1.082,427.917,52.49,-5.738,
00:00:02:550,-0.164,0.269,1.446,481.872,135.864,70.617,
00:00:02:566,-0.079,0.141,1.672,381.897,238.464,84.045,
00:00:02:583,0.058,0.063,1.895,160.888,319.213,139.709,
00:00:02:600,0.205,0.049,2.148,-105.164,384.521,287.231,
00:00:02:616,0.354,0.051,2.654,-244.996,401.977,479.858,
00:00:02:633,0.457,-0.012,3.445,-199.524,296.081,623.23,
00:00:02:650,0.456,-0.236,3.999,-143.494,45.532,513.672,
00:00:02:666,0.509,-0.498,2.99,-925.293,-419.19,522.522,
00:00:02:683,0.725,0.665,1.586,-1972.657,-43.152,491.699,
00:00:02:700,1.507,2.471,-0.805,-2000,-142.456,976.623,
00:00:02:716,1.551,3.207,-1.142,-196.778,-2000,1792.236,
00:00:02:733,0.532,1.687,-1.592,1999.694,-2000,1600.525,
00:00:02:750,-0.04,0.245,-1.858,1999.694,-2000,994.873,
00:00:02:766,0.025,-0.185,-1.008,1999.694,-2000,230.407,
00:00:02:783,0.418,-1.389,-1.129,1999.694,-2000,130.249,
00:00:02:800,1.32,-1.397,-1.686,-1240.967,-2000,-86.243,
00:00:02:816,-0.297,1.15,-2.057,-2000,-2000,850.402,
00:00:02:833,0.395,0.71,-3.077,-662.842,-1003.785,590.759,
00:00:02:850,0.578,-0.531,-3.365,237.915,1507.69,75.988,
00:00:02:866,0.56,-0.777,-2.205,16.723,1999.694,-507.019,
00:00:02:883,0.424,-0.477,-0.631,-622.986,1999.694,-828.003,
00:00:02:900,-0.206,-0.144,0.588,-1707.642,1999.694,-1113.526,
00:00:02:916,-0.189,-0.27,0.594,-2000,1999.694,-1775.025,
00:00:02:933,0.161,-1.009,0.647,-2000,1999.694,-2000,
00:00:02:950,0.43,0.513,1.644,-2000,1999.694,-1826.783,
00:00:02:966,0.999,1.904,1.181,-1503.174,1999.694,-1298.829,
00:00:02:983,1.291,2.53,1.019,1544.983,1999.694,-1115.662,
00:00:03:0,1.135,1.551,1.078,1999.694,1551.33,-485.535,
00:00:03:16,0.807,0.705,2.263,1999.694,530.944,-339.905,
00:00:03:33,0.472,-0.291,2.323,1532.837,96.801,-216.675,
00:00:03:50,0.804,0.199,3.254,1220.764,-547.242,-461.914,
00:00:03:66,0.193,-0.229,1.949,209.411,-638.855,-2.503,
00:00:03:83,-0.228,-0.208,1.252,-809.449,-594.849,221.374,
00:00:03:100,-0.449,0.207,0.628,-1445.313,-317.627,165.466,
00:00:03:116,-0.387,0.41,0.456,-1007.813,112.304,-68.604,
00:00:03:133,-0.165,0.382,0.614,-19.043,533.752,-79.895,
00:00:03:150,0.195,0.055,0.831,748.23,429.138,-127.747,
00:00:03:166,0.358,-0.242,1.094,919.311,-89.966,-213.074,
00:00:03:183,0.076,-0.185,1.327,604.553,-285.767,-28.809,
00:00:03:200,-0.188,-0.027,1.36,83.129,-183.777,2.563,
00:00:03:216,-0.187,0.148,1.24,-363.953,90.332,-40.039,
00:00:03:233,-0.011,0.306,1.073,-610.169,265.319,-0.55,
00:00:03:250,0.125,0.417,0.922,-517.762,201.233,24.108,
00:00:03:266,0.131,0.403,0.895,-196.839,39.245,25.695,
00:00:03:283,0.042,0.26,0.921,109.558,-92.102,21.24,
00:00:03:300,-0.055,0.143,0.959,200.378,-101.807,-1.221,
00:00:03:316,-0.094,0.129,1.035,126.159,2.624,-17.579,
00:00:03:333,-0.041,0.162,1.063,29.296,84.35,-31.311,
00:00:03:350,0.018,0.176,1.06,-67.2,75.927,-33.631,
00:00:03:366,0.031,0.201,1.046,-164.856,37.902,2.319,
00:00:03:383,-0.003,0.224,1.045,-222.046,-0.061,33.02,
00:00:03:400,-0.041,0.277,1.086,-238.587,24.78,37.475,
00:00:03:416,-0.005,0.317,1.152,-172.547,68.359,21.789,
00:00:03:433,0.052,0.301,1.202,-134.034,60.607,6.958,
00:00:03:450,0.063,0.282,1.231,-189.393,-30.396,42.785,
00:00:03:466,0,0.31,1.25,-314.515,-131.592,87.646,
00:00:03:483,-0.111,0.383,1.212,-463.868,-232.178,138.549,
00:00:03:500,-0.184,0.371,1.103,-544.495,-278.809,213.623,
00:00:03:516,-0.243,0.395,1.003,-559.449,-347.962,286.682,
00:00:03:533,-0.291,0.42,0.956,-539.124,-405.396,374.878,
00:00:03:550,-0.324,0.452,0.981,-478.089,-447.449,483.398,
00:00:03:566,-0.348,0.681,0.965,-544.861,-509.949,718.078,
00:00:03:583,-0.365,0.716,0.914,-334.839,-567.139,734.497,
00:00:03:600,-0.379,0.506,0.882,-168.457,-589.112,805.236,
00:00:03:616,-0.476,0.356,0.82,-815.552,-310.059,1101.867,
00:00:03:633,-0.455,0.48,0.717,-935.242,-178.467,1120.361,
00:00:03:650,-0.397,0.501,0.661,-866.15,-40.467,1088.745,
00:00:03:666,-0.328,0.514,0.712,-762.33,33.996,1024.414,
00:00:03:683,-0.268,0.558,0.704,-499.512,85.388,882.873,
00:00:03:700,-0.231,0.514,0.685,-19.043,80.078,756.164,
00:00:03:716,-0.184,0.397,0.697,488.464,81.176,686.279,
00:00:03:733,-0.162,0.267,0.732,753.479,68.115,582.641,
00:00:03:750,-0.178,0.217,0.76,834.594,55.481,478.332,
00:00:03:766,-0.2,-0.018,0.937,747.375,-50.232,209.106,
00:00:03:783,-0.228,-0.024,0.961,639.343,-45.35,171.447,
00:00:03:800,-0.252,0.005,1.001,312.011,-34.363,203.003,
00:00:03:816,-0.353,0.104,0.984,-222.779,-12.452,126.22,
00:00:03:833,-0.414,0.193,0.942,-427.185,24.231,-23.743,
00:00:03:850,-0.388,0.261,0.843,-437.439,8.667,10.253,
00:00:03:866,-0.392,0.363,0.83,-292.237,23.925,-6.592,
00:00:03:883,-0.394,0.324,0.752,-98.816,19.592,-46.936,
00:00:03:900,-0.397,0.147,0.83,-5.86,10.253,-81.91,
00:00:03:916,-0.406,0.116,0.861,-142.884,20.019,-109.681,
00:00:03:933,-0.423,0.153,0.889,-253.418,37.414,-183.106,
00:00:03:950,-0.411,0.211,0.896,-261.78,60.791,-206.116,
00:00:03:966,-0.409,0.244,0.881,-367.249,58.471,-228.943,
00:00:03:983,-0.429,0.214,0.873,-510.193,49.255,-234.986,
00:00:04:0,-0.441,0.223,0.858,-665.711,21.789,-198.731,
00:00:04:16,-0.448,0.379,0.908,-848.328,-21.424,-189.759,
00:00:04:33,-0.486,0.48,0.838,-385.376,12.817,-229.615,
00:00:04:50,-0.457,0.47,0.806,-253.54,2.258,-188.294,
00:00:04:66,-0.466,0.501,0.753,-167.115,-9.4,-157.044,
00:00:04:83,-0.481,0.509,0.762,-103.638,-3.235,-157.593,
00:00:04:100,-0.476,0.481,0.822,-115.54,53.161,-197.632,
00:00:04:116,-0.455,0.464,0.847,-184.388,130.798,-265.564,
00:00:04:133,-0.415,0.414,0.767,-267.09,214.172,-301.636,
00:00:04:150,-0.369,0.433,0.672,-326.844,269.104,-258.301,
00:00:04:166,-0.27,0.672,0.649,-275.269,278.564,-144.715,
00:00:04:183,-0.258,0.674,0.674,-116.822,268.676,-114.808,
00:00:04:200,-0.23,0.704,0.712,-20.508,271.423,-98.023,
00:00:04:216,-0.201,0.761,0.748,51.94,286.01,-90.455,
00:00:04:233,-0.169,0.625,0.756,460.205,234.558,-22.583,
00:00:04:250,-0.178,0.556,0.817,463.684,217.407,-10.498,
00:00:04:266,-0.174,0.499,0.852,375.183,216.674,-12.269,
00:00:04:283,-0.174,0.459,0.818,257.995,212.158,-25.513,
00:00:04:300,-0.152,0.465,0.868,54.26,150.146,-16.114,
00:00:04:316,-0.163,0.419,0.857,-153.687,89.355,-15.015,
00:00:04:333,-0.196,0.515,0.855,-154.725,57.556,-3.113,
00:00:04:350,-0.203,0.569,0.838,-41.016,59.875,-24.903,
00:00:04:366,-0.187,0.522,0.838,76.782,43.273,-57.19,
00:00:04:383,-0.204,0.463,0.829,87.341,29.235,-39.368,
00:00:04:400,-0.235,0.484,0.818,52.612,33.874,-22.889,
00:00:04:416,-0.241,0.509,0.813,23.254,61.401,-37.659,
00:00:04:433,-0.229,0.504,0.825,-2.686,80.139,-43.885,
00:00:04:450,-0.233,0.494,0.862,-6.775,95.031,-26.551,
00:00:04:466,-0.233,0.513,0.847,-7.019,101.44,8.911,
00:00:04:483,-0.238,0.555,0.824,17.822,94.421,29.296,
00:00:04:500,-0.251,0.556,0.815,59.631,71.716,20.385,
00:00:04:516,-0.264,0.499,0.811,110.107,61.096,6.958,
00:00:04:533,-0.262,0.46,0.829,97.045,62.927,20.69,
00:00:04:550,-0.254,0.436,0.866,26.123,72.876,21.24,
00:00:04:566,-0.254,0.426,0.885,-39.307,89.843,44.86,
00:00:04:583,-0.275,0.488,0.832,-144.227,101.623,92.59,
00:00:04:600,-0.282,0.511,0.798,-179.627,104.736,72.387,
00:00:04:616,-0.289,0.503,0.78,-142.701,116.333,55.908,
00:00:04:633,-0.298,0.465,0.794,-105.408,109.069,78.613,
00:00:04:650,-0.304,0.429,0.817,-132.142,102.172,96.313,
00:00:04:666,-0.309,0.444,0.828,-219.91,118.408,94.238,
00:00:04:683,-0.302,0.494,0.837,-254.7,137.146,96.252,
00:00:04:700,-0.289,0.543,0.847,-236.39,139.465,101.135,
00:00:04:716,-0.282,0.543,0.85,-205.018,130.676,99.792,
00:00:04:733,-0.285,0.52,0.868,-182.312,121.46,107.483,
00:00:04:750,-0.292,0.524,0.861,-174.866,133.422,121.338,
00:00:04:766,-0.286,0.551,0.857,-151.917,152.16,128.784,
00:00:04:783,-0.28,0.564,0.837,-101.929,169.25,118.53,
00:00:04:800,-0.278,0.554,0.823,-52.124,181.762,103.759,
00:00:04:816,-0.288,0.507,0.815,-9.461,198.486,85.937,
00:00:04:833,-0.273,0.482,0.826,2.441,213.989,86.914,
00:00:04:850,-0.248,0.491,0.878,-63.965,202.819,89.843,
00:00:04:866,-0.231,0.548,0.912,-73.426,218.933,69.274,
00:00:04:883,-0.211,0.562,0.899,15.258,227.356,50.109,
00:00:04:900,-0.189,0.536,0.89,45.898,229.004,38.269,
00:00:04:916,-0.186,0.526,0.899,58.776,229.736,15.625,
00:00:04:933,-0.183,0.497,0.887,83.496,242.248,-10.193,
00:00:04:950,-0.163,0.453,0.873,102.6,253.54,-19.837,
00:00:04:966,-0.135,0.457,0.864,117.92,250.976,-18.494,
00:00:04:983,-0.105,0.489,0.867,97.29,246.276,-13.855,
00:00:05:0,-0.089,0.486,0.878,79.223,232.605,-44.739,
00:00:05:16,-0.083,0.448,0.866,38.757,221.801,-61.463,
00:00:05:33,-0.08,0.443,0.865,3.906,218.505,-69.825,
00:00:05:50,-0.078,0.44,0.848,-35.34,216.308,-96.375,
00:00:05:66,-0.057,0.435,0.859,-57.129,204.651,-107.85,
00:00:05:83,-0.028,0.462,0.851,-59.815,188.476,-104.432,
00:00:05:100,-0.006,0.498,0.846,-37.537,149.902,-100.037,
00:00:05:116,-0.002,0.51,0.857,-17.334,110.778,-114.93,
00:00:05:133,0.001,0.516,0.855,0.915,80.688,-131.775,
00:00:05:150,-0.002,0.53,0.867,5.737,48.95,-130.616,
00:00:05:166,-0.012,0.529,0.854,38.086,32.226,-137.513,
00:00:05:183,-0.011,0.506,0.859,88.867,23.193,-154.541,
00:00:05:200,-0.013,0.488,0.835,142.761,29.785,-156.067,
00:00:05:216,-0.012,0.514,0.821,203.186,27.16,-161.072,
00:00:05:233,-0.007,0.519,0.85,277.465,10.315,-175.293,
00:00:05:250,0.001,0.479,0.864,341.613,2.258,-192.749,
00:00:05:266,0.016,0.41,0.875,333.191,-19.043,-212.403,
00:00:05:283,0.01,0.374,0.85,258.422,-29.725,-205.323,
00:00:05:300,0.004,0.372,0.864,205.566,-41.748,-202.027,
00:00:05:316,0.002,0.399,0.891,182.922,-38.147,-209.229,
00:00:05:333,0.021,0.435,0.92,191.894,-29.541,-237,
00:00:05:350,0.049,0.441,0.955,197.57,-41.382,-243.775,
00:00:05:366,0.059,0.433,0.948,189.88,-62.5,-243.409,
00:00:05:383,0.037,0.413,0.938,199.646,-85.633,-247.376,
00:00:05:400,0.016,0.398,0.936,211.486,-81.91,-239.563,
00:00:05:416,0.018,0.394,0.936,215.026,-69.764,-237.488,
00:00:05:433,0.028,0.399,0.914,176.574,-63.721,-242.493,
00:00:05:450,0.027,0.416,0.923,151.794,-68.726,-242.92,
00:00:05:466,0.02,0.433,0.925,182.556,-77.637,-234.559,
00:00:05:483,0.005,0.425,0.919,266.418,-85.45,-233.094,
00:00:05:500,-0.007,0.392,0.943,321.533,-78.736,-238.77,
00:00:05:516,-0.009,0.36,0.954,330.993,-56.885,-231.751,mixRH
00:00:05:533,0.001,0.348,0.951,281.555,-39.978,-216.126,
00:00:05:550,-0.001,0.339,0.96,245.605,-28.748,-199.158,
00:00:05:566,-0.01,0.329,0.964,246.765,-22.583,-184.327,
00:00:05:583,-0.016,0.3,0.975,225.402,-17.762,-165.711,
00:00:05:600,-0.021,0.284,0.973,183.288,-8.667,-153.26,
00:00:05:616,-0.016,0.282,0.967,159.729,-0.794,-145.264,
00:00:05:633,-0.007,0.274,0.966,134.948,-0.123,-133.118,
00:00:05:650,-0.005,0.271,0.968,93.811,-10.621,-121.399,
00:00:05:666,-0.016,0.263,0.972,58.715,-12.269,-104.798,
00:00:05:683,-0.031,0.271,0.975,64.148,-3.724,-86.792,
00:00:05:700,-0.021,0.293,0.982,59.997,13.916,-78.553,
00:00:05:716,-0.006,0.294,0.987,67.688,20.385,-82.825,
00:00:05:733,-0.01,0.267,0.986,59.997,8.056,-49.744,
00:00:05:750,-0.029,0.256,0.982,28.503,5.249,-28.199,
00:00:05:766,-0.042,0.261,0.975,-8.484,10.437,-18.494,
00:00:05:783,-0.045,0.268,0.986,-25.452,5.615,-2.381,
00:00:05:800,-0.047,0.267,0.997,-41.993,0.915,0.915,
00:00:05:816,-0.05,0.236,1,-62.195,2.075,9.826,
00:00:05:833,-0.053,0.232,0.998,-100.769,13.916,24.047,
00:00:05:850,-0.059,0.248,0.972,-148.926,21.85,47.485,
00:00:05:866,-0.065,0.255,0.947,-190.369,22.338,70.8,
00:00:05:883,-0.078,0.253,0.931,-239.747,12.451,92.895,
00:00:05:900,-0.093,0.262,0.932,-255.677,12.146,104.736,
00:00:05:916,-0.1,0.261,0.922,-278.321,21.606,111.023,
00:00:05:933,-0.097,0.282,0.926,-325.013,26.367,122.558,
00:00:05:950,-0.1,0.29,0.913,-379.395,25.329,139.648,
00:00:05:966,-0.12,0.304,0.912,-435.608,22.033,155.883,
00:00:05:983,-0.133,0.341,0.916,-447.205,39.184,163.574,
00:00:06:0,-0.125,0.365,0.916,-449.891,57.861,171.142,
00:00:06:16,-0.113,0.367,0.891,-448.731,47.973,175.537,
00:00:06:33,-0.113,0.353,0.86,-499.634,36.071,190.857,
00:00:06:50,-0.135,0.365,0.842,-564.209,18.127,204.467,
00:00:06:66,-0.16,0.39,0.848,-604.187,22.094,219.97,
00:00:06:83,-0.166,0.421,0.87,-616.517,54.199,218.322,
00:00:06:100,-0.135,0.501,0.812,-548.462,103.027,211.059,
00:00:06:116,-0.132,0.467,0.811,-518.067,62.805,209.106,
00:00:06:133,-0.157,0.445,0.82,-531.006,57.434,213.867,
00:00:06:150,-0.17,0.491,0.859,-585.511,96.008,196.655,
00:00:06:166,-0.152,0.569,0.843,-572.51,144.958,169.799,
00:00:06:183,-0.125,0.611,0.817,-494.935,144.165,126.464,
00:00:06:200,-0.119,0.641,0.823,-387.085,126.281,80.505,
00:00:06:216,-0.122,0.673,0.793,-265.076,126.831,62.316,
00:00:06:233,-0.125,0.691,0.755,-134.888,137.939,38.879,
00:00:06:250,-0.108,0.703,0.752,-74.891,153.32,37.78,
00:00:06:266,-0.092,0.701,0.741,-41.077,156.738,15.441,
00:00:06:283,-0.074,0.677,0.735,51.33,156.86,-2.808,
00:00:06:300,-0.055,0.651,0.795,190.246,149.78,0.976,
00:00:06:316,-0.036,0.621,0.83,301.391,149.475,-2.991,
00:00:06:333,-0.024,0.593,0.846,367.431,144.836,-15.503,
00:00:06:350,-0.011,0.546,0.874,437.622,106.811,-38.514,
00:00:06:366,-0.03,0.489,0.885,520.752,68.481,-52.674,
00:00:06:383,0.009,0.492,0.936,562.927,29.235,-55.237,
00:00:06:400,0.012,0.448,0.961,656.067,-8.423,-103.943,
00:00:06:416,0.005,0.354,0.966,642.822,-38.758,-140.809,
00:00:06:433,0.002,0.291,0.968,511.657,-41.26,-151.978,
00:00:06:450,0.006,0.3,0.958,356.201,-22.767,-156.189,
00:00:06:466,0.023,0.344,0.951,245.483,-15.503,-167.176,
00:00:06:483,0.037,0.395,0.94,206.604,-16.48,-185.608,
00:00:06:500,0.047,0.434,0.939,244.079,-27.1,-212.159,
00:00:06:516,0.053,0.442,0.94,327.697,-44.251,-243.714,
00:00:06:533,0.052,0.411,0.932,433.471,-57.74,-262.391,
00:00:06:550,0.056,0.392,0.937,489.807,-57.618,-276.001,
00:00:06:566,0.069,0.359,0.937,498.047,-59.266,-296.143,
00:00:06:583,0.071,0.327,0.946,481.079,-74.952,-295.594,
00:00:06:600,0.058,0.317,0.984,368.652,-85.144,-278.687,
00:00:06:616,0.061,0.291,1.014,243.896,-81.91,-285.95,
00:00:06:633,0.068,0.293,1.032,111.999,-79.651,-268.982,
00:00:06:650,0.069,0.344,1.035,18.432,-71.9,-240.845,
00:00:06:666,0.065,0.358,0.997,-47.12,-81.543,-220.643,
00:00:06:683,0.04,0.341,0.92,-71.778,-91.126,-206.116,
00:00:06:700,0.013,0.312,0.844,-58.838,-112.183,-193.665,
00:00:06:716,0.002,0.329,0.885,-33.02,-110.901,-172.059,
00:00:06:733,-0.006,0.337,0.908,10.253,-115.418,-165.284,
00:00:06:750,-0.015,0.331,0.925,64.575,-103.394,-163.208,
00:00:06:766,-0.022,0.309,0.933,87.28,-86.243,-159.607,
00:00:06:783,-0.021,0.3,0.958,68.908,-76.355,-153.016,
00:00:06:800,-0.026,0.299,0.967,22.827,-65.918,-144.227,
00:00:06:816,-0.035,0.312,0.959,-6.592,-58.655,-123.902,
00:00:06:833,-0.039,0.323,0.965,-12.269,-48.523,-104.493,
00:00:06:850,-0.031,0.328,0.968,-19.043,-48.768,-91.553,
00:00:06:866,-0.03,0.321,0.971,-25.879,-44.251,-78.675,
00:00:06:883,-0.039,0.322,0.971,-48.951,-45.35,-54.749,
00:00:06:900,-0.051,0.32,0.977,-75.928,-57.679,-40.406,
00:00:06:916,-0.072,0.317,0.997,-69.764,-51.087,-24.903,
00:00:06:933,-0.066,0.311,1.002,-55.237,-27.588,-16.663,
00:00:06:950,-0.04,0.311,0.993,-62.623,-15.015,-3.174,
00:00:06:966,-0.029,0.334,0.961,-123.475,-9.766,17.089,
00:00:06:983,-0.041,0.353,0.951,-206.849,-45.411,23.559,
00:00:07:0,-0.072,0.348,0.967,-219.788,-61.768,26.672,
00:00:07:16,-0.088,0.361,0.975,-190.369,-40.406,40.405,
00:00:07:33,-0.088,0.376,0.952,-183.411,-31.189,48.889,
00:00:07:50,-0.092,0.356,0.932,-155.823,-39.063,58.593,
00:00:07:66,-0.118,0.336,0.931,-145.935,-51.453,74.218,
00:00:07:83,-0.142,0.316,0.932,-199.952,-39.429,83.923,
00:00:07:100,-0.145,0.333,0.941,-269.776,-17.579,88.745,
00:00:07:116,-0.141,0.367,0.933,-302.308,-4.212,105.896,
00:00:07:133,-0.144,0.4,0.902,-299.439,1.22,116.394,
00:00:07:150,-0.159,0.399,0.89,-293.091,-14.588,113.159,
00:00:07:166,-0.179,0.373,0.872,-262.146,-10.498,118.591,
00:00:07:183,-0.193,0.369,0.855,-292.969,-2.381,132.385,
00:00:07:200,-0.2,0.348,0.836,-339.966,17.639,131.408,
00:00:07:216,-0.203,0.364,0.824,-398.743,40.222,144.104,
00:00:07:233,-0.211,0.387,0.81,-444.703,52.856,148.254,
00:00:07:250,-0.214,0.412,0.812,-459.595,69.274,142.944,
00:00:07:266,-0.215,0.427,0.812,-451.844,86.608,137.451,
00:00:07:283,-0.214,0.437,0.819,-442.505,102.539,137.024,
00:00:07:300,-0.205,0.478,0.831,-417.481,120.056,138.366,
00:00:07:316,-0.187,0.505,0.828,-375.061,138.061,122.802,
00:00:07:333,-0.168,0.513,0.826,-308.289,125.976,117.126,
00:00:07:350,-0.162,0.51,0.819,-254.7,97.229,107.544,
00:00:07:366,-0.177,0.484,0.811,-233.765,81.787,92.468,
00:00:07:383,-0.18,0.475,0.837,-242.981,102.234,88.989,
00:00:07:400,-0.156,0.522,0.838,-258.912,142.212,88.012,
00:00:07:416,-0.123,0.568,0.816,-227.784,138.977,74.951,
00:00:07:433,-0.108,0.568,0.797,-167.603,96.801,51.757,
00:00:07:450,-0.126,0.548,0.79,-99.793,75.256,15.747,
00:00:07:466,-0.127,0.55,0.824,-52.247,74.462,18.127,
00:00:07:483,-0.102,0.584,0.856,-8.118,81.787,9.643,
00:00:07:500,-0.079,0.606,0.858,76.538,82.153,-1.954,
00:00:07:516,-0.078,0.59,0.867,185.669,52.917,-18.799,
00:00:07:533,-0.085,0.534,0.871,259.155,36.621,-34.363,
00:00:07:550,-0.087,0.503,0.875,272.705,38.33,-55.298,
00:00:07:566,-0.078,0.496,0.879,299.255,34.973,-86.792,
00:00:07:583,-0.062,0.498,0.897,328.369,20.446,-102.845,
00:00:07:600,-0.066,0.49,0.894,374.267,0.244,-129.212,
00:00:07:616,-0.071,0.483,0.878,439.331,-9.766,-153.321,
00:00:07:633,-0.067,0.47,0.889,512.756,-19.043,-185.791,
00:00:07:650,-0.055,0.463,0.887,563.476,-19.471,-209.107,
00:00:07:666,-0.035,0.431,0.898,588.134,-22.706,-222.168,
00:00:07:683,-0.022,0.402,0.912,569.946,-23.438,-228.394,
00:00:07:700,-0.024,0.373,0.93,537.597,-28.626,-229.432,
00:00:07:716,-0.02,0.364,0.954,494.751,-16.358,-223.999,
00:00:07:733,-0.005,0.378,0.963,475.158,-10.804,-225.769,
00:00:07:750,0.009,0.402,0.959,496.215,-13.489,-233.033,
00:00:07:766,0.002,0.389,0.948,569.152,-30.579,-238.282,
00:00:07:783,0.026,0.334,0.969,665.954,-65.491,-237.915,
00:00:07:800,0.01,0.274,0.982,737.854,-74.524,-243.47,
00:00:07:816,0.019,0.225,1.012,751.587,-85.45,-254.151,
00:00:07:833,0.038,0.18,1.023,692.26,-111.39,-265.748,
00:00:07:850,0.041,0.128,1.06,532.104,-155.213,-257.325,
00:00:07:866,0.02,0.075,1.085,303.65,-187.073,-220.093,
00:00:07:883,-0.025,0.091,1.097,67.565,-181.824,-183.228,
00:00:07:900,-0.062,0.153,1.055,-117.554,-126.099,-164.551,
00:00:07:916,-0.051,0.229,1.005,-152.466,-97.413,-157.105,
00:00:07:933,-0.046,0.25,0.987,-91.126,-116.456,-153.138,
00:00:07:950,-0.067,0.253,0.974,3.784,-144.959,-151.307,
00:00:07:966,-0.085,0.228,0.969,73.303,-154.236,-148.743,
00:00:07:983,-0.101,0.173,0.972,64.697,-152.039,-142.579,
00:00:08:0,-0.115,0.158,0.972,6.53,-144.959,-131.104,
00:00:08:16,-0.123,0.164,0.987,-62.684,-132.019,-120.423,
00:00:08:33,-0.125,0.185,0.981,-117.127,-109.62,-104.859,
00:00:08:50,-0.125,0.2,0.962,-137.757,-101.197,-88.623,
00:00:08:66,-0.133,0.207,0.955,-167.115,-102.234,-64.087,
00:00:08:83,-0.137,0.22,0.963,-187.989,-106.202,-46.326,
00:00:08:100,-0.14,0.243,0.974,-202.21,-106.141,-31.128,
00:00:08:116,-0.147,0.267,0.963,-196.351,-118.042,-28.87,
00:00:08:133,-0.156,0.261,0.958,-181.824,-136.17,-20.752,
00:00:08:150,-0.169,0.245,0.962,-192.444,-151.978,4.272,
00:00:08:166,-0.203,0.259,0.974,-274.842,-143.189,37.048,
00:00:08:183,-0.221,0.273,0.939,-303.711,-124.329,52.185,
00:00:08:200,-0.235,0.25,0.943,-325.806,-121.033,57.678,
00:00:08:216,-0.247,0.254,0.927,-390.442,-98.755,78.308,
00:00:08:233,-0.245,0.283,0.925,-441.285,-81.482,108.581,
00:00:08:250,-0.245,0.314,0.906,-483.887,-82.337,111.633,
00:00:08:266,-0.256,0.337,0.888,-487.854,-88.196,120.605,
00:00:08:283,-0.267,0.342,0.87,-485.291,-93.873,136.657,
00:00:08:300,-0.28,0.353,0.865,-473.267,-101.807,149.78,
00:00:08:316,-0.291,0.377,0.872,-465.943,-102.295,156.25,
00:00:08:333,-0.294,0.396,0.874,-428.956,-94.239,165.283,
00:00:08:350,-0.287,0.409,0.866,-372.132,-99.06,168.457,
00:00:08:366,-0.299,0.395,0.868,-340.882,-122.071,167.236,
00:00:08:383,-0.314,0.369,0.844,-338.379,-129.212,157.898,
00:00:08:400,-0.323,0.373,0.83,-363.587,-122.559,165.71,
00:00:08:416,-0.326,0.388,0.844,-387.085,-119.202,170.654,
00:00:08:433,-0.332,0.399,0.836,-418.457,-113.099,167.846,
00:00:08:450,-0.339,0.413,0.842,-447.144,-110.047,171.63,
00:00:08:466,-0.344,0.467,0.816,-473.694,-102.295,171.386,
00:00:08:483,-0.35,0.474,0.777,-468.873,-106.324,159.912,
00:00:08:500,-0.38,0.49,0.779,-423.218,-112.671,149.231,
00:00:08:516,-0.397,0.5,0.797,-359.62,-90.882,133.728,
00:00:08:533,-0.394,0.497,0.776,-321.534,-63.416,113.586,
00:00:08:550,-0.391,0.504,0.778,-304.81,-52.369,108.947,
00:00:08:566,-0.398,0.532,0.785,-287.11,-47.303,106.506,
00:00:08:583,-0.409,0.548,0.801,-242.859,-35.889,95.275,
00:00:08:600,-0.413,0.564,0.834,-198.67,-28.931,79.345,
00:00:08:616,-0.403,0.565,0.842,-165.894,-6.287,65.307,
00:00:08:633,-0.392,0.58,0.833,-166.138,-5.494,71.228,
00:00:08:650,-0.408,0.598,0.805,-94.3,-11.658,59.082,
00:00:08:666,-0.421,0.592,0.852,-21.729,0.854,33.02,
00:00:08:683,-0.396,0.575,0.924,122.68,57.495,16.479,
00:00:08:700,-0.346,0.489,0.908,203.735,61.95,-9.583,
00:00:08:716,-0.342,0.419,0.88,187.011,17.15,-30.335,
00:00:08:733,-0.374,0.431,0.862,148.01,11.352,-45.96,
00:00:08:750,-0.358,0.531,0.86,184.936,79.956,-63.721,
00:00:08:766,-0.307,0.549,0.804,346.557,90.21,-110.291,
00:00:08:783,-0.276,0.506,0.788,503.479,31.677,-148.255,
00:00:08:800,-0.302,0.416,0.762,663.757,-25.757,-177.735,
00:00:08:816,-0.321,0.328,0.802,689.636,-35.584,-200.623,
00:00:08:833,-0.329,0.239,0.845,557.739,-34.546,-256.836,
00:00:08:850,-0.323,0.259,0.898,386.84,-2.686,-280.518,
00:00:08:866,-0.3,0.314,0.874,230.713,54.138,-299.134,
00:00:08:883,-0.271,0.335,0.865,203.308,61.462,-315.43,
00:00:08:900,-0.25,0.375,0.87,191.65,47.058,-298.157,
00:00:08:916,-0.233,0.403,0.898,139.221,9.704,-305.115,
00:00:08:933,-0.228,0.46,0.923,97.29,-30.823,-301.453,
00:00:08:950,-0.231,0.495,0.932,146.972,-79.529,-294.495,
00:00:08:966,-0.235,0.485,0.944,189.697,-122.559,-285.95,
00:00:08:983,-0.256,0.476,0.955,190.918,-166.199,-271.79,
00:00:09:0,-0.293,0.475,0.94,180.725,-151.795,-255.005,
00:00:09:16,-0.303,0.445,0.904,182.922,-116.883,-237.61,
00:00:09:33,-0.311,0.427,0.869,184.936,-91.797,-228.028,
00:00:09:50,-0.312,0.432,0.858,196.533,-75.318,-216.919,
00:00:09:66,-0.307,0.436,0.889,228.271,-65.43,-212.464,
00:00:09:83,-0.285,0.436,0.89,266.174,-55.603,-192.933,
00:00:09:100,-0.274,0.404,0.887,289.734,-73.853,-187.867,
00:00:09:116,-0.287,0.363,0.903,290.71,-94.3,-169.8,
00:00:09:133,-0.308,0.334,0.906,258.3,-90.149,-149.414,
00:00:09:150,-0.317,0.315,0.902,202.148,-82.154,-139.588,
00:00:09:166,-0.327,0.313,0.9,155.334,-72.022,-132.874,
00:00:09:183,-0.328,0.303,0.889,127.441,-66.468,-109.559,
00:00:09:200,-0.329,0.292,0.894,101.501,-58.655,-113.343,
00:00:09:216,-0.342,0.289,0.889,79.101,-55.909,-104.737,
00:00:09:233,-0.346,0.296,0.895,62.377,-47.608,-104.493,
00:00:09:250,-0.339,0.297,0.891,41.259,-31.128,-92.347,
00:00:09:266,-0.329,0.298,0.886,11.84,-35.767,-91.309,
00:00:09:283,-0.327,0.306,0.873,-6.165,-43.519,-86.182,
00:00:09:300,-0.326,0.312,0.878,-12.635,-50.049,-83.313,
00:00:09:316,-0.333,0.324,0.886,-2.076,-58.655,-84.046,
00:00:09:333,-0.334,0.329,0.895,15.625,-51.88,-73.182,
00:00:09:350,-0.33,0.316,0.89,33.447,-50.354,-70.313,
00:00:09:366,-0.339,0.296,0.881,39.001,-58.838,-61.341,
00:00:09:383,-0.354,0.271,0.886,13.916,-70.923,-56.458,
00:00:09:400,-0.375,0.277,0.88,-34.852,-64.331,-44.678,
00:00:09:416,-0.384,0.288,0.877,-63.172,-40.528,-49.195,
00:00:09:433,-0.383,0.297,0.868,-63.721,-29.419,-42.786,
00:00:09:450,-0.382,0.308,0.868,-62.806,-34.79,-41.81,
00:00:09:466,-0.387,0.313,0.867,-55.115,-26.49,-33.57,
00:00:09:483,-0.378,0.318,0.88,-55.848,-16.297,-28.382,
00:00:09:500,-0.366,0.325,0.894,-66.59,-2.259,-22.095,
00:00:09:516,-0.353,0.324,0.889,-56.153,-0.123,-15.442,mixRH
00:00:09:533,-0.35,0.325,0.893,-46.875,-15.259,-13.916,
00:00:09:550,-0.362,0.326,0.894,-38.575,-20.752,-18.372,
00:00:09:566,-0.368,0.335,0.896,-35.035,-13.611,-14.893,
00:00:09:583,-0.367,0.339,0.89,-31.373,-1.038,-17.884,
00:00:09:600,-0.359,0.337,0.891,-11.841,-1.831,-16.846,
00:00:09:616,-0.356,0.31,0.892,-12.635,-6.836,-16.419,
00:00:09:633,-0.362,0.295,0.892,-36.927,-15.076,-11.17,
00:00:09:650,-0.369,0.301,0.9,-60.791,2.868,-12.452,
00:00:09:666,-0.355,0.311,0.892,-79.59,24.536,-9.583,
00:00:09:683,-0.339,0.315,0.891,-69.886,24.414,-0.611,
00:00:09:700,-0.34,0.309,0.9,-59.815,5.127,10.192,
00:00:09:716,-0.353,0.305,0.893,-65.491,1.464,7.629,
00:00:09:733,-0.359,0.307,0.884,-62.806,13.794,3.234,
00:00:09:750,-0.35,0.306,0.873,-58.106,0.061,6.164,
00:00:09:766,-0.351,0.314,0.873,-55.664,0.854,8.972,
00:00:09:783,-0.359,0.316,0.88,-58.899,-19.043,13.977,
00:00:09:800,-0.376,0.334,0.894,-78.431,-29.847,13.122,
00:00:09:816,-0.376,0.345,0.89,-87.342,-18.677,5.859,
00:00:09:833,-0.35,0.352,0.883,-85.328,-14.954,9.277,
00:00:09:850,-0.336,0.35,0.884,-77.82,-56.519,20.629,
00:00:09:866,-0.354,0.351,0.888,-101.258,-104.004,41.381,
00:00:09:883,-0.388,0.363,0.879,-158.814,-137.696,51.696,
00:00:09:900,-0.419,0.376,0.87,-180.481,-148.377,70.251,
00:00:09:916,-0.445,0.406,0.875,-184.082,-150.879,101.928,
00:00:09:933,-0.448,0.424,0.895,-163.025,-135.254,136.84,
00:00:09:950,-0.429,0.45,0.903,-98.389,-97.352,187.683,
00:00:09:966,-0.406,0.446,0.884,-42.42,-99.427,210.51,
00:00:09:983,-0.406,0.4,0.877,1.281,-129.517,214.904,
00:00:10:0,-0.425,0.335,0.898,20.568,-152.039,224.609,
00:00:10:16,-0.451,0.307,0.903,-7.691,-137.513,235.351,
00:00:10:33,-0.449,0.303,0.88,-23.804,-65.247,236.084,
00:00:10:50,-0.413,0.296,0.849,-49.012,-1.648,217.529,
00:00:10:66,-0.396,0.267,0.829,-105.408,-40.528,191.284,
00:00:10:83,-0.419,0.25,0.811,-178.956,-89.6,182.983,
00:00:10:100,-0.465,0.29,0.813,-231.629,-101.38,180.664,
00:00:10:116,-0.495,0.337,0.805,-218.934,-92.347,183.776,
00:00:10:133,-0.506,0.339,0.803,-172.608,-91.37,175.415,
00:00:10:150,-0.53,0.319,0.811,-129.7,-98.328,174.621,
00:00:10:166,-0.563,0.3,0.792,-133.789,-99.549,179.931,
00:00:10:183,-0.591,0.298,0.793,-134.461,-80.994,178.955,
00:00:10:200,-0.592,0.3,0.782,-153.626,-28.687,184.57,
00:00:10:216,-0.582,0.298,0.788,-187.623,-4.639,181.64,
00:00:10:233,-0.579,0.294,0.779,-210.633,-2.503,178.222,
00:00:10:250,-0.584,0.282,0.778,-240.235,5.188,173.584,
00:00:10:266,-0.587,0.274,0.774,-310.975,45.227,163.208,
00:00:10:283,-0.591,0.303,0.765,-361.573,70.739,148.132,
00:00:10:300,-0.591,0.338,0.759,-364.075,93.261,125.854,
00:00:10:316,-0.582,0.349,0.759,-338.074,126.037,112.487,
00:00:10:333,-0.574,0.348,0.764,-310.914,137.085,95.703,
00:00:10:350,-0.575,0.36,0.771,-290.894,156.494,73.12,
00:00:10:366,-0.566,0.387,0.776,-236.451,180.603,49.133,
00:00:10:383,-0.551,0.407,0.789,-190.918,198.486,18.615,
00:00:10:400,-0.527,0.423,0.788,-107.972,212.585,9.521,
00:00:10:416,-0.506,0.401,0.781,-28.626,198.242,-10.865,
00:00:10:433,-0.499,0.359,0.785,32.531,170.349,-16.785,
00:00:10:450,-0.505,0.34,0.797,41.992,158.996,-29.786,
00:00:10:466,-0.512,0.328,0.825,34.79,176.635,-49.317,
00:00:10:483,-0.495,0.329,0.826,22.155,215.149,-72.693,
00:00:10:500,-0.476,0.346,0.839,33.447,219.482,-78.553,
00:00:10:516,-0.449,0.382,0.841,67.138,216.186,-82.764,
00:00:10:533,-0.436,0.401,0.841,122.131,202.209,-97.657,
00:00:10:550,-0.434,0.4,0.849,206.543,158.752,-107.544,
00:00:10:566,-0.445,0.39,0.867,291.076,110.839,-112.854,
00:00:10:583,-0.454,0.367,0.873,353.576,104.98,-114.441,
00:00:10:600,-0.444,0.332,0.879,387.817,130.249,-129.395,
00:00:10:616,-0.417,0.311,0.886,393.737,134.582,-129.517,
00:00:10:633,-0.395,0.289,0.885,392.151,106.201,-151.429,
00:00:10:650,-0.387,0.287,0.907,397.216,83.068,-156.189,
00:00:10:666,-0.376,0.282,0.911,402.038,79.345,-157.898,
00:00:10:683,-0.351,0.251,0.914,404.419,76.721,-161.072,
00:00:10:700,-0.334,0.237,0.913,375.061,55.114,-163.147,
00:00:10:716,-0.335,0.236,0.921,338.562,23.254,-170.227,
00:00:10:733,-0.338,0.249,0.936,326.599,5.676,-166.138,
00:00:10:750,-0.331,0.233,0.915,307.495,-8.423,-169.8,
00:00:10:766,-0.33,0.221,0.899,300.476,-20.203,-168.702,
00:00:10:783,-0.33,0.212,0.909,275.085,-45.166,-172.425,
00:00:10:800,-0.347,0.218,0.935,243.408,-52.491,-180.298,
00:00:10:816,-0.348,0.236,0.948,236.389,-41.687,-179.993,
00:00:10:833,-0.325,0.216,0.943,233.154,-45.594,-193.97,
00:00:10:850,-0.316,0.2,0.936,228.393,-79.468,-195.435,
00:00:10:866,-0.333,0.192,0.943,214.721,-120.911,-194.214,
00:00:10:883,-0.354,0.177,0.933,223.022,-132.752,-209.107,
00:00:10:900,-0.364,0.16,0.925,209.533,-123.352,-213.074,
00:00:10:916,-0.37,0.156,0.917,196.289,-108.582,-201.905,
00:00:10:933,-0.381,0.163,0.905,177.246,-110.474,-194.886,
00:00:10:950,-0.397,0.162,0.873,174.133,-106.629,-190.979,
00:00:10:966,-0.417,0.11,0.883,174.743,-114.136,-188.66,
00:00:10:983,-0.423,0.117,0.89,101.379,-81.91,-184.876,
00:00:11:0,-0.407,0.133,0.881,71.472,-54.688,-168.824,
00:00:11:16,-0.407,0.132,0.845,35.095,-72.266,-159.302,
00:00:11:33,-0.425,0.143,0.877,7.385,-77.637,-154.786,
00:00:11:50,-0.434,0.175,0.9,-7.996,-65.003,-153.077,
00:00:11:66,-0.419,0.186,0.917,-18.616,-56.031,-160.157,
00:00:11:83,-0.41,0.185,0.92,-55.481,-64.759,-138.184,
00:00:11:100,-0.414,0.232,0.918,-91.797,-68.909,-119.202,
00:00:11:116,-0.415,0.234,0.909,-96.924,-79.773,-107.789,
00:00:11:133,-0.415,0.236,0.927,-98.511,-90.027,-74.036,
00:00:11:150,-0.413,0.222,0.915,-140.442,-88.196,-62.439,
00:00:11:166,-0.419,0.223,0.889,-203.309,-112.366,-45.899,
00:00:11:183,-0.451,0.225,0.866,-258.179,-166.871,-36.988,
00:00:11:200,-0.497,0.245,0.846,-300.721,-180.726,-15.748,
00:00:11:216,-0.526,0.255,0.832,-324.83,-165.894,-10.56,
00:00:11:233,-0.526,0.233,0.831,-361.329,-124.878,-6.714,
00:00:11:250,-0.516,0.226,0.816,-433.289,-115.113,2.075,
00:00:11:266,-0.524,0.26,0.815,-522.828,-130.555,4.638,
00:00:11:283,-0.502,0.295,0.81,-566.285,-122.498,10.192,
00:00:11:300,-0.526,0.329,0.803,-559.082,-118.958,17.7,
00:00:11:316,-0.532,0.344,0.774,-528.077,-122.01,10.315,
00:00:11:333,-0.543,0.366,0.781,-488.648,-129.517,-3.052,
00:00:11:350,-0.543,0.39,0.771,-430.054,-107.666,-28.687,
00:00:11:366,-0.518,0.37,0.799,-363.892,-93.201,-41.932,
00:00:11:383,-0.492,0.343,0.816,-350.892,-108.277,-55.787,
00:00:11:400,-0.483,0.335,0.828,-388.855,-150.696,-75.684,
00:00:11:416,-0.499,0.341,0.812,-442.994,-184.571,-80.811,
00:00:11:433,-0.527,0.358,0.757,-494.08,-202.576,-81.665,
00:00:11:450,-0.552,0.38,0.703,-529.969,-202.027,-83.13,
00:00:11:466,-0.568,0.404,0.674,-537.598,-182.679,-71.289,
00:00:11:483,-0.581,0.424,0.661,-545.411,-159.607,-66.224,
00:00:11:500,-0.592,0.442,0.641,-525.269,-134.583,-65.857,
00:00:11:516,-0.61,0.467,0.601,-491.15,-115.601,-55.481,
00:00:11:533,-0.625,0.494,0.581,-432.373,-102.051,-50.354,
00:00:11:550,-0.639,0.504,0.597,-385.254,-78.797,-56.58,
00:00:11:566,-0.636,0.499,0.618,-350.953,-50.477,-70.862,
00:00:11:583,-0.616,0.506,0.646,-323.975,-21.607,-76.111,
00:00:11:600,-0.58,0.527,0.651,-321.778,-1.465,-83.435,
00:00:11:616,-0.542,0.537,0.652,-325.013,-15.137,-73.365,
00:00:11:633,-0.542,0.584,0.66,-310.12,-44.007,-65.369,
00:00:11:650,-0.554,0.608,0.68,-233.155,-79.224,-60.12,
00:00:11:666,-0.578,0.604,0.694,-134.766,-86.243,-31.311,
00:00:11:683,-0.643,0.593,0.67,-87.342,-35.584,-14.832,
00:00:11:700,-0.593,0.474,0.768,368.53,237.915,-24.72,
00:00:11:716,-0.571,0.474,0.768,393.005,202.514,-39.612,
00:00:11:733,-0.577,0.464,0.773,434.875,190.551,-50.904,
00:00:11:750,-0.56,0.402,0.775,477.295,198.974,-41.565,
00:00:11:766,-0.545,0.386,0.753,436.462,199.035,-39.734,
00:00:11:783,-0.521,0.394,0.742,376.526,177.795,-72.022,
00:00:11:800,-0.512,0.409,0.793,360.412,155.944,-114.991,
00:00:11:816,-0.514,0.458,0.809,366.333,142.089,-102.906,
00:00:11:833,-0.536,0.494,0.776,472.9,126.098,-101.563,
00:00:11:850,-0.538,0.471,0.753,667.297,148.803,-78.797,
00:00:11:866,-0.51,0.408,0.753,754.272,163.94,-54.139,
00:00:11:883,-0.48,0.321,0.797,729.004,141.296,-62.439,
00:00:11:900,-0.462,0.263,0.845,642.151,113.159,-35.218,
00:00:11:916,-0.469,0.229,0.874,551.208,102.6,-43.519,
00:00:11:933,-0.462,0.211,0.876,499.267,133.972,-35.035,
00:00:11:950,-0.387,0.251,0.909,317.505,-22.767,-81.055,
00:00:11:966,-0.424,0.204,0.874,236.938,-96.558,-109.375,
00:00:11:983,-0.43,0.211,0.876,213.073,-93.689,-104.126,
00:00:12:0,-0.443,0.208,0.897,224.121,-111.023,-98.938,
00:00:12:16,-0.471,0.178,0.901,227.172,-114.808,-104.859,
00:00:12:33,-0.482,0.15,0.906,184.997,-83.924,-109.681,
00:00:12:50,-0.465,0.134,0.902,110.412,-20.813,-104.187,
00:00:12:66,-0.427,0.133,0.886,47.973,8.422,-101.929,
00:00:12:83,-0.404,0.162,0.865,24.169,6.652,-79.59,
00:00:12:100,-0.402,0.165,0.857,23.986,-20.264,-73.06,
00:00:12:116,-0.425,0.183,0.867,26.245,-39.246,-62.073,
00:00:12:133,-0.434,0.186,0.884,26.916,-29.114,-57.801,
00:00:12:150,-0.439,0.188,0.883,37.963,-26.917,-43.58,
00:00:12:166,-0.454,0.181,0.88,46.875,-49.378,-37.903,
00:00:12:183,-0.476,0.142,0.885,31.311,-56.214,-35.828,
00:00:12:200,-0.487,0.119,0.897,-32.959,-44.312,-28.809,
00:00:12:216,-0.489,0.134,0.885,-101.136,-25.696,-26.001,
00:00:12:233,-0.495,0.169,0.895,-142.09,-28.443,-14.527,
00:00:12:250,-0.494,0.15,0.895,-164.856,-15.442,-17.701,
00:00:12:266,-0.492,0.131,0.895,-208.924,-25.086,7.385,
00:00:12:283,-0.496,0.136,0.9,-291.443,-22.706,33.752,
00:00:12:300,-0.504,0.136,0.9,-403.382,-11.719,47.241,
00:00:12:316,-0.519,0.167,0.869,-495.911,-9.217,39.55,
00:00:12:333,-0.533,0.195,0.837,-546.631,-3.479,41.931,
00:00:12:350,-0.532,0.225,0.818,-580.079,16.113,63.11,
00:00:12:366,-0.521,0.254,0.807,-603.028,34.973,71.716,
00:00:12:383,-0.517,0.283,0.788,-611.817,20.141,78.552,
00:00:12:400,-0.527,0.311,0.792,-595.337,1.22,92.041,
00:00:12:416,-0.536,0.319,0.797,-563.477,-2.869,88.134,
00:00:12:433,-0.541,0.32,0.805,-535.401,1.342,89.477,
00:00:12:450,-0.548,0.334,0.799,-513.916,7.019,85.083,
00:00:12:466,-0.538,0.329,0.807,-488.038,7.08,89.965,
00:00:12:483,-0.527,0.293,0.803,-522.583,6.652,99.975,
00:00:12:500,-0.534,0.272,0.803,-617.615,-5.555,99.121,
00:00:12:516,-0.549,0.297,0.775,-715.332,3.54,104.614,
00:00:12:533,-0.56,0.33,0.767,-779.358,31.311,94.726,
00:00:12:550,-0.55,0.366,0.74,-829.163,67.138,108.215,
00:00:12:566,-0.541,0.432,0.714,-837.464,71.716,101.806,
00:00:12:583,-0.55,0.487,0.68,-783.509,59.265,91.308,
00:00:12:600,-0.554,0.506,0.673,-675.538,47.668,87.829,
00:00:12:616,-0.559,0.486,0.682,-573.487,54.992,71.411,
00:00:12:633,-0.566,0.482,0.684,-520.997,79.589,55.053,
00:00:12:650,-0.575,0.523,0.681,-517.579,97.656,37.658,
00:00:12:666,-0.56,0.563,0.68,-511.17,125.427,-22.644,
00:00:12:683,-0.547,0.61,0.681,-424.012,151.794,-41.138,
00:00:12:700,-0.532,0.639,0.688,-303.284,169.372,-41.016,
00:00:12:716,-0.511,0.63,0.658,-192.688,164.672,-32.715,
00:00:12:733,-0.482,0.585,0.655,-156.861,132.202,-9.217,
00:00:12:750,-0.508,0.568,0.595,-181.519,98.205,4.028,
00:00:12:766,-0.544,0.576,0.597,-167.542,99.792,11.779,
00:00:12:783,-0.552,0.605,0.588,-59.998,163.574,-8.057,
00:00:12:800,-0.503,0.571,0.561,57.861,191.589,-35.889,
00:00:12:816,-0.502,0.554,0.619,151.977,196.228,-54.078,
00:00:12:833,-0.492,0.565,0.626,201.355,173.339,-96.436,
00:00:12:850,-0.49,0.575,0.675,288.94,170.776,-117.737,
00:00:12:866,-0.474,0.579,0.718,360.168,167.541,-123.963,
00:00:12:883,-0.45,0.556,0.732,415.893,156.189,-145.203,
00:00:12:900,-0.441,0.517,0.743,439.514,118.591,-155.884,
00:00:12:916,-0.455,0.505,0.744,456.543,84.106,-172.73,
00:00:12:933,-0.453,0.459,0.796,470.459,76.416,-186.036,
00:00:12:950,-0.417,0.378,0.873,419.616,94.421,-185.059,
00:00:12:966,-0.377,0.31,0.906,286.926,70.617,-205.506,
00:00:12:983,-0.38,0.353,0.873,110.534,38.086,-229.126,
00:00:13:0,-0.402,0.512,0.776,66.162,47.363,-236.512,
00:00:13:16,-0.371,0.616,0.734,190.551,35.949,-230.53,
00:00:13:33,-0.342,0.636,0.749,389.648,-61.951,-234.009,
00:00:13:50,-0.355,0.516,0.788,500.671,-167.603,-256.348,
00:00:13:66,-0.419,0.45,0.829,465.698,-174.988,-224.122,
00:00:13:83,-0.389,0.451,0.821,462.463,-91.065,-172.181,
00:00:13:100,-0.397,0.399,0.828,459.167,-100.22,-161.56,
00:00:13:116,-0.4,0.374,0.854,403.625,-96.619,-155.335,
00:00:13:133,-0.396,0.362,0.874,360.107,-87.891,-147.156,
00:00:13:150,-0.382,0.359,0.892,309.753,-89.173,-143.799,
00:00:13:166,-0.38,0.372,0.884,266.052,-98.267,-146.851,
00:00:13:183,-0.38,0.335,0.881,218.994,-118.47,-157.715,
00:00:13:200,-0.406,0.309,0.884,143.188,-137.574,-148.621,
00:00:13:216,-0.433,0.315,0.878,100.097,-121.155,-128.724,
00:00:13:233,-0.44,0.33,0.877,53.405,-90.21,-117.737,
00:00:13:250,-0.424,0.337,0.877,16.662,-77.149,-115.357,
00:00:13:266,-0.414,0.335,0.874,0.915,-81.665,-117.005,
00:00:13:283,-0.413,0.352,0.87,5.615,-103.943,-111.451,
00:00:13:300,-0.425,0.376,0.864,15.991,-118.47,-108.277,
00:00:13:316,-0.45,0.35,0.858,59.326,-137.146,-87.952,
00:00:13:333,-0.466,0.363,0.848,37.475,-129.395,-76.722,
00:00:13:350,-0.463,0.372,0.846,26.123,-122.193,-73.487,
00:00:13:366,-0.462,0.372,0.828,36.01,-131.348,-71.289,
00:00:13:383,-0.477,0.352,0.822,40.1,-145.874,-62.195,
00:00:13:400,-0.496,0.326,0.816,1.892,-139.954,-54.383,
00:00:13:416,-0.509,0.3,0.815,-62.684,-112.488,-46.021,
00:00:13:433,-0.508,0.298,0.801,-152.405,-87.525,-17.884,
00:00:13:450,-0.513,0.32,0.766,-243.042,-61.951,-10.682,
00:00:13:466,-0.526,0.322,0.733,-316.407,-39.368,-18.982,
00:00:13:483,-0.527,0.364,0.73,-330.689,-7.691,10.559,
00:00:13:500,-0.53,0.409,0.726,-288.208,13.305,0.366,
00:00:13:516,-0.507,0.421,0.732,-237.183,27.893,3.051,mixRH
00:00:13:533,-0.507,0.402,0.726,-204.956,21.179,12.207,
00:00:13:550,-0.529,0.373,0.733,-238.221,27.526,20.996,
00:00:13:566,-0.533,0.355,0.742,-330.079,58.776,36.377,
00:00:13:583,-0.534,0.388,0.745,-419.861,93.383,51.574,
00:00:13:600,-0.524,0.406,0.739,-470.093,104.919,60.852,
00:00:13:616,-0.522,0.435,0.741,-529.908,97.106,71.594,
00:00:13:633,-0.531,0.463,0.736,-555.481,93.261,79.589,
00:00:13:650,-0.537,0.461,0.735,-565.552,92.895,87.219,
00:00:13:666,-0.541,0.463,0.725,-597.352,99.853,99.914,
00:00:13:683,-0.541,0.496,0.719,-625,119.751,106.079,
00:00:13:700,-0.531,0.513,0.703,-637.33,133.911,106.689,
00:00:13:716,-0.526,0.557,0.692,-624.695,134.521,115.356,
00:00:13:733,-0.535,0.545,0.677,-617.981,143.493,118.347,
00:00:13:750,-0.535,0.555,0.657,-585.267,187.317,125.793,
00:00:13:766,-0.515,0.558,0.643,-530.579,198.852,141.296,
00:00:13:783,-0.487,0.585,0.648,-491.517,205.261,157.776,
00:00:13:800,-0.476,0.633,0.65,-434.51,197.082,163.818,
00:00:13:816,-0.468,0.659,0.635,-361.023,166.931,159.668,
00:00:13:833,-0.464,0.657,0.643,-295.105,136.23,151.794,
00:00:13:850,-0.472,0.646,0.657,-225.403,106.323,131.408,
00:00:13:866,-0.486,0.627,0.663,-134.278,86.608,112.976,
00:00:13:883,-0.491,0.609,0.663,-65.43,85.998,113.708,
00:00:13:900,-0.488,0.578,0.668,-9.583,76.355,96.191,
00:00:13:916,-0.496,0.557,0.672,-1.221,70.8,86.12,
00:00:13:933,-0.505,0.545,0.677,-25.33,72.326,43.701,
00:00:13:950,-0.513,0.528,0.669,13.427,82.153,15.686,
00:00:13:966,-0.509,0.515,0.679,53.649,89.599,20.263,
00:00:13:983,-0.511,0.508,0.682,72.876,95.398,6.164,
00:00:14:0,-0.514,0.503,0.693,72.753,103.088,1.403,
00:00:14:16,-0.518,0.525,0.681,64.941,109.863,-20.752,
00:00:14:33,-0.517,0.543,0.691,94.116,122.375,-60.242,
00:00:14:50,-0.5,0.538,0.702,153.991,135.803,-56.275,
00:00:14:66,-0.487,0.569,0.719,199.707,146.301,-50.965,
00:00:14:83,-0.473,0.56,0.733,246.582,141.784,-67.322,
00:00:14:100,-0.472,0.572,0.737,314.148,139.16,-61.585,
00:00:14:116,-0.466,0.549,0.725,378.662,155.273,-87.952,
00:00:14:133,-0.46,0.493,0.725,442.016,128.723,-100.525,
00:00:14:150,-0.454,0.428,0.739,470.581,113.525,-125.794,
00:00:14:166,-0.447,0.414,0.76,444.091,112.182,-152.161,
00:00:14:183,-0.436,0.434,0.791,408.63,132.263,-174.439,
00:00:14:200,-0.401,0.477,0.818,393.249,144.47,-176.087,
00:00:14:216,-0.363,0.469,0.85,395.568,113.281,-184.937,
00:00:14:233,-0.36,0.459,0.861,363.281,55.542,-190.247,
00:00:14:250,-0.382,0.451,0.872,315.246,14.77,-185.73,
00:00:14:266,-0.387,0.445,0.87,274.17,23.193,-175.782,
00:00:14:283,-0.383,0.47,0.861,239.624,20.263,-159.668,
00:00:14:300,-0.371,0.468,0.844,254.15,-4.029,-165.772,
00:00:14:316,-0.371,0.444,0.85,277.038,-43.702,-159.485,
00:00:14:333,-0.385,0.429,0.852,264.404,-68.726,-163.941,
00:00:14:350,-0.392,0.412,0.852,261.413,-72.998,-168.58,
00:00:14:366,-0.389,0.402,0.851,249.939,-67.505,-167.725,
00:00:14:383,-0.384,0.422,0.845,245.361,-70.557,-177.796,
00:00:14:400,-0.371,0.43,0.841,292.297,-77.088,-172.608,
00:00:14:416,-0.37,0.424,0.849,356.384,-103.028,-175.538,
00:00:14:433,-0.374,0.385,0.849,368.774,-109.498,-178.833,
00:00:14:450,-0.379,0.353,0.853,358.154,-120.911,-174.805,
00:00:14:466,-0.394,0.334,0.865,334.289,-130.188,-177.43,
00:00:14:483,-0.407,0.336,0.866,322.754,-112.305,-174.378,
00:00:14:500,-0.396,0.333,0.881,308.532,-91.98,-164.063,
00:00:14:516,-0.383,0.338,0.873,292.724,-98.45,-155.579,
00:00:14:533,-0.398,0.328,0.862,287.414,-124.39,-154.664,
00:00:14:550,-0.42,0.306,0.872,273.498,-141.053,-148.926,
00:00:14:566,-0.428,0.286,0.891,234.619,-133.423,-141.846,
00:00:14:583,-0.432,0.275,0.888,190.124,-123.597,-132.752,
00:00:14:600,-0.433,0.275,0.884,161.56,-137.452,-134.095,
00:00:14:616,-0.446,0.279,0.876,139.526,-134.522,-119.141,
00:00:14:633,-0.457,0.283,0.865,122.863,-127.015,-110.23,
00:00:14:650,-0.461,0.275,0.851,102.172,-111.756,-107.361,
00:00:14:666,-0.463,0.275,0.834,72.815,-101.807,-102.662,
00:00:14:683,-0.46,0.275,0.818,54.382,-93.689,-98.511,
00:00:14:700,-0.453,0.289,0.833,60.485,-81.238,-83.252,
00:00:14:716,-0.434,0.286,0.856,73.181,-52.613,-53.345,
00:00:14:733,-0.417,0.264,0.852,56.762,-31.434,-24.598,
00:00:14:750,-0.411,0.232,0.865,-5.127,-19.837,-19.776,
00:00:14:766,-0.413,0.223,0.847,-118.714,0.122,-10.804,
00:00:14:783,-0.419,0.242,0.826,-209.961,13.244,-10.865,
00:00:14:800,-0.444,0.263,0.82,-278.504,13.977,0.488,
00:00:14:816,-0.476,0.362,0.814,-295.594,38.147,18.127,
00:00:14:833,-0.484,0.347,0.823,-285.889,12.695,41.565,
00:00:14:850,-0.508,0.325,0.843,-316.346,-11.048,48.034,
00:00:14:866,-0.533,0.325,0.875,-381.287,-15.686,60.669,
00:00:14:883,-0.539,0.333,0.884,-430.726,9.399,70.434,
00:00:14:900,-0.533,0.345,0.866,-482.483,26.367,85.388,
00:00:14:916,-0.533,0.355,0.828,-519.898,20.324,90.454,
00:00:14:933,-0.542,0.354,0.818,-567.749,5.859,88.867,
00:00:14:950,-0.539,0.36,0.805,-584.168,10.07,93.2,
00:00:14:966,-0.533,0.373,0.796,-606.69,10.742,96.13,
00:00:14:983,-0.526,0.408,0.785,-613.648,3.173,100.158,
00:00:15:0,-0.527,0.427,0.772,-616.028,-3.724,101.745,
00:00:15:16,-0.524,0.442,0.758,-620.911,-5.188,93.444,
00:00:15:33,-0.528,0.451,0.758,-627.808,9.155,83.496,
00:00:15:50,-0.525,0.479,0.734,-641.297,42.724,74.157,
00:00:15:66,-0.519,0.484,0.717,-656.8,74.951,76.049,
00:00:15:83,-0.518,0.478,0.686,-692.749,101.806,78.064,
00:00:15:100,-0.525,0.5,0.642,-726.685,120.117,80.932,
00:00:15:116,-0.532,0.561,0.613,-711.182,143.127,88.073,
00:00:15:133,-0.505,0.62,0.64,-484.07,133.056,50.293,
00:00:15:150,-0.472,0.641,0.642,86.242,183.288,-51.209,
00:00:15:166,-0.46,0.623,0.633,173.889,160.034,-56.336,
00:00:15:183,-0.469,0.59,0.685,297.424,105.468,-86.548,
00:00:15:200,-0.465,0.589,0.692,350.158,106.811,-82.093,
00:00:15:216,-0.443,0.544,0.733,512.207,79.101,-149.842,
00:00:15:233,-0.429,0.509,0.743,454.162,86.547,-149.781,
00:00:15:250,-0.422,0.495,0.749,396.789,88.317,-159.913,
00:00:15:266,-0.423,0.505,0.763,353.393,90.576,-156.739,
00:00:15:283,-0.412,0.524,0.783,339.538,107.544,-160.218,
00:00:15:300,-0.381,0.536,0.773,348.816,133.972,-151.246,
00:00:15:316,-0.353,0.528,0.76,380.432,128.662,-158.692,
00:00:15:333,-0.331,0.505,0.772,402.404,97.412,-165.894,
00:00:15:350,-0.33,0.491,0.8,434.387,57.251,-163.514,
00:00:15:366,-0.329,0.47,0.823,454.589,43.518,-156.495,
00:00:15:383,-0.322,0.444,0.844,446.899,37.658,-162.842,
00:00:15:400,-0.283,0.412,0.84,406.555,30.029,-164.429,
00:00:15:416,-0.302,0.406,0.855,373.291,17.456,-155.945,
00:00:15:433,-0.292,0.411,0.857,354.98,-5.86,-152.588,
00:00:15:450,-0.3,0.419,0.872,349.975,-40.711,-157.837,
00:00:15:466,-0.31,0.416,0.888,357.055,-48.096,-144.227,
00:00:15:483,-0.308,0.404,0.9,356.14,-61.707,-147.339,
00:00:15:500,-0.311,0.369,0.909,346.13,-55.115,-136.109,
00:00:15:516,-0.318,0.342,0.911,301.208,-77.637,-130.677,
00:00:15:533,-0.33,0.338,0.9,262.024,-58.838,-122.925,
00:00:15:550,-0.331,0.349,0.895,236.145,-57.679,-108.094,
00:00:15:566,-0.345,0.378,0.895,232.299,-67.872,-110.901,
00:00:15:583,-0.351,0.351,0.894,271.972,-72.083,-137.207,
00:00:15:600,-0.344,0.293,0.902,263.549,-74.28,-112.61,
00:00:15:616,-0.357,0.283,0.878,191.711,-75.379,-92.713,
00:00:15:633,-0.375,0.31,0.881,136.291,-76.844,-77.393,
00:00:15:650,-0.371,0.318,0.89,124.084,-63.477,-71.656,
00:00:15:666,-0.362,0.304,0.913,115.234,-71.778,-51.27,
00:00:15:683,-0.368,0.31,0.897,84.411,-74.952,-31.189,
00:00:15:700,-0.384,0.309,0.898,71.533,-77.027,-16.541,
00:00:15:716,-0.396,0.292,0.897,67.016,-72.571,7.263,
00:00:15:733,-0.413,0.283,0.882,47.79,-72.388,3.173,
00:00:15:750,-0.423,0.266,0.876,32.836,-58.838,-1.465,
00:00:15:766,-0.416,0.248,0.877,7.751,-41.932,2.624,
00:00:15:783,-0.409,0.251,0.883,-62.806,-32.898,5.065,
00:00:15:800,-0.405,0.255,0.884,-131.043,-15.809,4.394,
00:00:15:816,-0.425,0.275,0.88,-163.941,-31.739,19.348,
00:00:15:833,-0.445,0.334,0.859,-153.565,-11.963,38.452,
00:00:15:850,-0.429,0.319,0.844,-142.64,-17.823,28.381,
00:00:15:866,-0.424,0.317,0.844,-114.075,-46.143,60.73,
00:00:15:883,-0.427,0.328,0.876,-72.327,-65.918,66.589,
00:00:15:900,-0.442,0.33,0.892,-30.274,-77.393,72.265,
00:00:15:916,-0.457,0.307,0.894,-21.607,-75.013,78.002,
00:00:15:933,-0.475,0.289,0.9,-43.396,-68.299,99.426,
00:00:15:950,-0.49,0.271,0.883,-86.365,-46.998,115.905,
00:00:15:966,-0.495,0.268,0.893,-108.46,-26.062,120.727,
00:00:15:983,-0.481,0.233,0.888,-146.363,-6.226,117.431,
00:00:16:0,-0.48,0.199,0.871,-232.544,8.117,125.732,
00:00:16:16,-0.493,0.19,0.861,-329.59,13.732,125,
00:00:16:33,-0.499,0.192,0.846,-453.431,54.931,125.366,
00:00:16:50,-0.503,0.201,0.827,-562.439,81.176,122.131,
00:00:16:66,-0.502,0.224,0.812,-667.359,106.018,123.169,
00:00:16:83,-0.501,0.268,0.785,-749.268,121.887,108.825,
00:00:16:100,-0.497,0.33,0.758,-783.387,142.273,107.605,
00:00:16:116,-0.487,0.372,0.775,-769.349,151.55,105.346,
00:00:16:133,-0.472,0.407,0.778,-728.394,169.677,111.755,
00:00:16:150,-0.464,0.419,0.768,-722.657,167.846,104.126,
00:00:16:166,-0.459,0.449,0.74,-738.892,160.583,92.468,
00:00:16:183,-0.459,0.494,0.686,-722.901,161.193,83.252,
00:00:16:200,-0.456,0.53,0.653,-667.542,157.226,78.674,
00:00:16:216,-0.454,0.558,0.647,-620.484,161.316,86.364,
00:00:16:233,-0.461,0.593,0.627,-557.435,177.856,92.285,
00:00:16:250,-0.468,0.621,0.661,-493.287,184.57,84.899,
00:00:16:266,-0.464,0.607,0.69,-397.339,186.95,67.077,
00:00:16:283,-0.46,0.6,0.732,-306.58,196.411,62.255,
00:00:16:300,-0.409,0.624,0.753,-217.53,203.064,43.029,
00:00:16:316,-0.421,0.543,0.773,59.631,132.08,-10.743,
00:00:16:333,-0.412,0.547,0.778,76.049,138.488,-21.607,
00:00:16:350,-0.392,0.548,0.787,90.637,136.291,-27.649,
00:00:16:366,-0.38,0.549,0.786,83.679,122.253,-37.171,
00:00:16:383,-0.378,0.549,0.786,66.955,107.91,-46.631,
00:00:16:400,-0.375,0.537,0.791,51.879,94.421,-55.42,
00:00:16:416,-0.375,0.527,0.774,43.212,72.815,-70.74,
00:00:16:433,-0.385,0.554,0.77,80.749,60.546,-86.731,
00:00:16:450,-0.386,0.578,0.759,175.048,68.42,-102.051,
00:00:16:466,-0.363,0.542,0.756,278.564,58.898,-115.052,
00:00:16:483,-0.357,0.5,0.759,316.406,33.142,-128.357,
00:00:16:500,-0.366,0.48,0.782,297.363,25.695,-139.649,
00:00:16:516,-0.363,0.486,0.796,275.085,31.799,-155.457,
00:00:16:533,-0.35,0.5,0.797,294.677,43.762,-169.922,
00:00:16:550,-0.331,0.505,0.781,311.523,52.307,-179.566,
00:00:16:566,-0.311,0.535,0.776,369.567,43.945,-178.956,
00:00:16:583,-0.296,0.514,0.8,431.518,18.92,-187.317,
00:00:16:600,-0.295,0.455,0.825,441.345,-2.503,-197.998,
00:00:16:616,-0.294,0.41,0.847,399.658,-3.602,-194.397,
00:00:16:633,-0.295,0.42,0.841,348.083,1.281,-198.67,
00:00:16:650,-0.285,0.428,0.852,324.035,-5.738,-210.206,
00:00:16:667,-0.285,0.447,0.859,347.229,-24.598,-207.642,
00:00:16:683,-0.289,0.441,0.883,382.995,-33.02,-215.638,
00:00:16:700,-0.284,0.418,0.896,413.391,-31.739,-218.934,
00:00:16:717,-0.27,0.396,0.915,388.61,-24.598,-216.431,
00:00:16:733,-0.267,0.393,0.913,363.647,-22.767,-212.464,
00:00:16:750,-0.266,0.401,0.905,366.15,-31.556,-202.576,
00:00:16:767,-0.261,0.385,0.914,371.887,-53.589,-204.285,
00:00:16:783,-0.264,0.356,0.931,366.211,-69.703,-205.994,
00:00:16:800,-0.264,0.334,0.938,348.144,-68.787,-199.219,
00:00:16:817,-0.269,0.33,0.925,307.067,-72.388,-197.754,
00:00:16:833,-0.272,0.336,0.916,285.095,-75.44,-197.998,
00:00:16:850,-0.273,0.327,0.909,272.277,-80.567,-190.247,
00:00:16:867,-0.276,0.315,0.917,260.681,-87.525,-173.89,
00:00:16:883,-0.287,0.306,0.928,235.473,-98.267,-171.082,
00:00:16:900,-0.296,0.284,0.931,186.95,-98.389,-159.485,
00:00:16:917,-0.313,0.293,0.935,136.108,-96.253,-144.471,
00:00:16:933,-0.318,0.304,0.933,95.703,-83.497,-132.386,
00:00:16:950,-0.314,0.304,0.925,77.758,-80.445,-113.526,
00:00:16:967,-0.314,0.298,0.923,56.396,-98.084,-99.549,
00:00:16:983,-0.328,0.288,0.92,18.005,-107.85,-86.548,
00:00:17:0,-0.344,0.286,0.911,-5.494,-108.887,-87.586,
00:00:17:17,-0.344,0.278,0.906,-37.537,-106.812,-78.003,
00:00:17:33,-0.335,0.264,0.918,-82.032,-101.929,-68.177,
00:00:17:50,-0.331,0.268,0.917,-160.157,-106.873,-54.932,
00:00:17:67,-0.351,0.304,0.91,-221.192,-110.474,-49.805,
00:00:17:83,-0.385,0.377,0.882,-80.872,-95.215,-26.062,
00:00:17:100,-0.386,0.349,0.881,-72.632,-100.525,-19.898,
00:00:17:117,-0.399,0.324,0.868,-96.863,-97.046,-7.813,
00:00:17:133,-0.41,0.305,0.865,-145.508,-89.6,10.437,
00:00:17:150,-0.435,0.304,0.861,-220.581,-65.186,30.334,
00:00:17:167,-0.449,0.331,0.846,-292.908,-31.128,56.945,
00:00:17:183,-0.455,0.363,0.837,-322.266,6.836,72.143,
00:00:17:200,-0.429,0.393,0.824,-326.844,44.616,94.97,
00:00:17:217,-0.459,0.379,0.788,-347.657,35.156,148.01,
00:00:17:233,-0.489,0.382,0.793,-370.972,53.1,163.696,
00:00:17:250,-0.485,0.381,0.799,-406.128,90.759,180.114,
00:00:17:267,-0.481,0.402,0.808,-435.242,99.426,191.101,
00:00:17:283,-0.484,0.419,0.82,-441.346,109.253,206.237,
00:00:17:300,-0.482,0.442,0.82,-426.087,119.69,234.13,
00:00:17:317,-0.479,0.442,0.811,-403.626,125.488,223.449,
00:00:17:333,-0.475,0.429,0.798,-401.49,123.474,230.774,
00:00:17:350,-0.485,0.415,0.798,-414.551,126.77,229.492,
00:00:17:367,-0.488,0.424,0.783,-422.913,155.273,236.572,
00:00:17:383,-0.475,0.427,0.77,-432.801,181.091,228.027,
00:00:17:400,-0.468,0.457,0.755,-431.946,192.627,222.534,
00:00:17:417,-0.456,0.481,0.733,-419.251,198.425,210.693,
00:00:17:433,-0.454,0.496,0.706,-369.69,188.598,191.894,
00:00:17:450,-0.455,0.516,0.726,-296.143,171.814,160.705,
00:00:17:467,-0.444,0.53,0.75,-192.688,172.119,127.014,
00:00:17:483,-0.422,0.536,0.787,-65.247,159.301,101.379,
00:00:17:500,-0.403,0.5,0.791,69.152,134.765,83.557,
00:00:17:517,-0.417,0.441,0.787,152.71,104.858,67.321,mixRH
00:00:17:533,-0.422,0.395,0.812,163.086,112.487,57.617,
00:00:17:550,-0.415,0.39,0.845,130.371,135.131,49.56,
00:00:17:567,-0.391,0.404,0.867,88.745,138.366,24.292,
00:00:17:583,-0.381,0.41,0.877,63.354,132.019,16.723,
00:00:17:600,-0.383,0.393,0.89,41.137,112.854,3.845,
00:00:17:617,-0.387,0.397,0.894,3.112,115.234,-10.621,
00:00:17:633,-0.369,0.398,0.876,-16.297,122.68,-27.405,
00:00:17:650,-0.356,0.406,0.861,-16.846,113.525,-49.012,
00:00:17:667,-0.353,0.449,0.859,-7.63,107.727,-71.656,
00:00:17:683,-0.334,0.471,0.855,54.199,98.755,-97.901,
00:00:17:700,-0.319,0.455,0.847,138.427,78.552,-114.747,
00:00:17:717,-0.325,0.424,0.853,204.284,51.879,-139.344,
00:00:17:733,-0.328,0.408,0.868,245.483,51.696,-157.288,
00:00:17:750,-0.31,0.458,0.88,271.301,75.683,-177.369,
00:00:17:767,-0.272,0.497,0.885,323.425,80.017,-189.393,
00:00:17:783,-0.26,0.474,0.868,396.118,58.654,-212.952,
00:00:17:800,-0.281,0.396,0.845,445.068,19.104,-229.126,
00:00:17:817,-0.303,0.347,0.844,465.088,15.869,-219.91,
00:00:17:833,-0.308,0.304,0.847,437.927,40.466,-235.535,
00:00:17:850,-0.242,0.332,0.911,287.414,51.696,-263.916,
00:00:17:867,-0.235,0.339,0.923,279.846,37.17,-264.954,
00:00:17:883,-0.229,0.318,0.933,268.982,20.69,-269.715,
00:00:17:900,-0.23,0.31,0.936,246.826,9.582,-274.048,
00:00:17:917,-0.225,0.311,0.928,226.562,-2.32,-276.734,
00:00:17:933,-0.225,0.317,0.93,214.782,-17.029,-280.335,
00:00:17:950,-0.226,0.33,0.93,220.886,-30.701,-285.645,
00:00:17:967,-0.226,0.334,0.948,251.403,-46.387,-283.204,
00:00:17:983,-0.217,0.318,0.957,283.691,-59.754,-288.269,
00:00:18:0,-0.223,0.296,0.955,274.231,-78.675,-289.917,
00:00:18:17,-0.234,0.285,0.94,248.779,-94.727,-286.377,
00:00:18:33,-0.247,0.294,0.932,217.407,-105.713,-278.87,
00:00:18:50,-0.249,0.31,0.936,206.848,-106.141,-271.485,
00:00:18:67,-0.243,0.314,0.945,203.369,-111.817,-256.958,
00:00:18:83,-0.253,0.303,0.944,192.199,-128.357,-234.559,
00:00:18:100,-0.269,0.287,0.95,175.72,-137.696,-213.685,
00:00:18:117,-0.293,0.282,0.95,142.273,-133.606,-198.304,
00:00:18:133,-0.301,0.291,0.943,115.478,-117.798,-173.401,
00:00:18:150,-0.3,0.293,0.944,106.384,-106.629,-157.227,
00:00:18:167,-0.307,0.29,0.939,109.863,-119.568,-146.851,
00:00:18:183,-0.314,0.279,0.943,115.478,-127.564,-135.621,
00:00:18:200,-0.319,0.274,0.953,97.351,-136.17,-123.78,
00:00:18:217,-0.327,0.276,0.939,71.655,-139.161,-103.76,
00:00:18:233,-0.335,0.264,0.94,39.55,-142.456,-100.464,
00:00:18:250,-0.347,0.305,0.92,-43.702,-151.795,-68.177,
00:00:18:267,-0.359,0.315,0.914,-21.18,-152.527,-48.462,
00:00:18:283,-0.373,0.331,0.913,0.305,-156.739,-35.34,
00:00:18:300,-0.374,0.287,0.894,24.292,-158.326,-15.442,
00:00:18:317,-0.41,0.258,0.891,-0.061,-166.016,-8.728,
00:00:18:333,-0.444,0.248,0.877,-280.274,-67.627,74.096,
00:00:18:350,-0.449,0.269,0.872,-328.675,-38.208,108.459,
00:00:18:367,-0.448,0.288,0.859,-384.4,-5.799,118.53,
00:00:18:383,-0.471,0.284,0.823,-527.222,30.761,220.214,
00:00:18:400,-0.479,0.281,0.818,-600.953,46.875,245.727,
00:00:18:417,-0.483,0.323,0.788,-670.594,71.289,264.465,
00:00:18:433,-0.495,0.353,0.755,-692.872,76.904,273.193,
00:00:18:450,-0.511,0.381,0.723,-690.979,78.491,275.756,
00:00:18:467,-0.535,0.395,0.726,-683.045,78.674,253.296,
00:00:18:483,-0.535,0.412,0.774,-649.414,95.459,220.886,
00:00:18:500,-0.516,0.432,0.779,-561.707,122.985,209.594,
00:00:18:517,-0.485,0.419,0.786,-478.821,90.942,207.031,
00:00:18:533,-0.481,0.42,0.808,-406.189,61.95,204.712,
00:00:18:550,-0.495,0.419,0.839,-324.28,56.518,187.194,
00:00:18:567,-0.488,0.39,0.876,-262.879,85.51,162.109,
00:00:18:583,-0.46,0.377,0.878,-240.052,100.036,135.742,
00:00:18:600,-0.437,0.401,0.864,-218.811,104.431,113.891,
00:00:18:617,-0.436,0.415,0.851,-163.575,98.022,77.148,
00:00:18:633,-0.424,0.41,0.871,-107.422,105.651,49.865,
00:00:18:650,-0.406,0.405,0.868,-78.98,109.314,28.686,
00:00:18:667,-0.403,0.396,0.854,-85.572,97.839,3.051,
00:00:18:683,-0.409,0.389,0.849,-93.201,94.238,-17.64,
00:00:18:700,-0.409,0.375,0.842,-90.271,99.487,-61.707,
00:00:18:717,-0.39,0.414,0.833,-59.571,99.548,-79.834,
00:00:18:733,-0.381,0.422,0.82,-27.283,89.66,-112.977,
00:00:18:750,-0.377,0.433,0.814,13.366,78.918,-128.968,
00:00:18:767,-0.357,0.483,0.83,41.931,79.65,-151.185,
00:00:18:783,-0.336,0.502,0.832,83.374,57.312,-166.687,
00:00:18:800,-0.343,0.494,0.816,139.16,32.104,-182.373,
00:00:18:817,-0.364,0.475,0.811,179.382,26.916,-188.965,
00:00:18:833,-0.359,0.441,0.803,201.904,45.349,-204.956,
00:00:18:850,-0.344,0.452,0.804,190.796,58.654,-210.511,
00:00:18:867,-0.35,0.444,0.799,217.102,39.001,-219.3,
00:00:18:883,-0.386,0.401,0.816,229.126,10.009,-217.896,
00:00:18:900,-0.427,0.382,0.836,216.552,10.62,-233.704,
00:00:18:917,-0.436,0.393,0.855,189.88,50.537,-246.521,
00:00:18:933,-0.387,0.473,0.873,169.006,86.12,-266.724,
00:00:18:950,-0.331,0.527,0.854,226.623,77.392,-277.1,
00:00:18:967,-0.305,0.512,0.846,340.393,30.456,-272.828,
00:00:18:983,-0.307,0.479,0.864,418.457,-4.456,-269.715,
00:00:19:0,-0.289,0.416,0.886,437.439,-4.456,-273.621,
00:00:19:17,-0.265,0.407,0.917,403.015,2.197,-262.452,
00:00:19:33,-0.238,0.425,0.915,367.37,7.08,-260.132,
00:00:19:50,-0.225,0.421,0.916,363.891,-6.104,-245.301,
00:00:19:67,-0.233,0.407,0.913,364.868,-29.297,-231.08,
00:00:19:83,-0.236,0.385,0.921,361.511,-37.049,-214.783,
00:00:19:100,-0.228,0.382,0.92,354.675,-44.922,-215.882,
00:00:19:117,-0.218,0.387,0.914,373.169,-67.872,-216.309,
00:00:19:133,-0.262,0.309,0.926,347.595,-134.827,-208.313,
00:00:19:150,-0.282,0.315,0.911,307.556,-133.179,-199.769,
00:00:19:167,-0.289,0.313,0.91,254.089,-132.935,-222.229,
00:00:19:183,-0.296,0.308,0.901,220.092,-134.583,-216.614,
00:00:19:200,-0.299,0.308,0.889,205.566,-139.954,-203.186,
00:00:19:217,-0.301,0.302,0.885,202.148,-136.414,-182.068,
00:00:19:233,-0.303,0.298,0.901,187.683,-162.598,-158.936,
00:00:19:250,-0.313,0.295,0.915,170.532,-164.856,-144.349,
00:00:19:267,-0.334,0.306,0.924,149.414,-162.11,-123.047,
00:00:19:283,-0.35,0.303,0.916,126.464,-149.109,-112.061,
00:00:19:300,-0.361,0.296,0.909,115.478,-132.325,-98.755,
00:00:19:317,-0.398,0.22,0.908,-24.598,-79.468,-49.5,
00:00:19:333,-0.4,0.216,0.885,-128.602,-37.781,-3.663,
00:00:19:350,-0.399,0.252,0.867,-201.172,-10.987,10.742,
00:00:19:367,-0.398,0.279,0.853,-249.573,19.653,36.254,
00:00:19:383,-0.402,0.299,0.843,-271.79,20.568,72.998,
00:00:19:400,-0.433,0.297,0.836,-297.425,17.761,89.355,
00:00:19:417,-0.448,0.28,0.867,-343.689,77.575,110.656,
00:00:19:433,-0.433,0.282,0.88,-403.626,141.723,124.45,
00:00:19:450,-0.415,0.286,0.885,-481.995,144.043,187.011,
00:00:19:467,-0.426,0.323,0.903,-561.158,109.314,234.192,
00:00:19:483,-0.462,0.369,0.901,-599.183,113.403,243.347,
00:00:19:500,-0.454,0.372,0.911,-593.689,149.475,252.258,
00:00:19:517,-0.435,0.361,0.873,-602.417,160.461,258.789,
00:00:19:533,-0.435,0.354,0.865,-640.992,142.517,286.621,
00:00:19:550,-0.438,0.418,0.862,-615.235,124.511,297.912,
00:00:19:567,-0.433,0.385,0.846,-549.866,97.9,309.265,
00:00:19:583,-0.452,0.358,0.844,-559.266,61.767,303.283,
00:00:19:600,-0.482,0.379,0.829,-601.868,82.763,293.274,
00:00:19:617,-0.476,0.414,0.789,-609.62,132.995,280.334,
00:00:19:633,-0.449,0.435,0.759,-562.439,140.625,282.714,
00:00:19:650,-0.441,0.425,0.757,-504.822,106.445,258.545,
00:00:19:667,-0.451,0.378,0.768,-478.943,96.923,236.084,
00:00:19:683,-0.46,0.364,0.764,-496.46,116.76,219.116,
00:00:19:700,-0.454,0.394,0.759,-521.607,147.522,200.256,
00:00:19:717,-0.434,0.436,0.768,-522.217,168.701,175.598,
00:00:19:733,-0.411,0.462,0.781,-479.31,157.898,149.841,
00:00:19:750,-0.399,0.48,0.794,-421.814,156.311,111.328,
00:00:19:767,-0.385,0.515,0.784,-334.046,142.089,75.927,
00:00:19:783,-0.374,0.543,0.783,-303.345,108.337,43.884,
00:00:19:800,-0.383,0.565,0.774,-234.253,68.847,-21.058,
00:00:19:817,-0.383,0.584,0.779,-137.574,61.95,-47.669,
00:00:19:833,-0.367,0.573,0.788,-21.668,55.725,-90.149,
00:00:19:850,-0.355,0.562,0.799,84.411,51.147,-99.427,
00:00:19:867,-0.349,0.525,0.793,147.705,48.645,-104.859,
00:00:19:883,-0.365,0.497,0.781,140.136,52.612,-95.887,
00:00:19:900,-0.383,0.499,0.782,39.733,88.562,-114.014,
00:00:19:917,-0.388,0.518,0.759,-23.926,153.625,-143.677,
00:00:19:933,-0.358,0.557,0.715,-1.893,229.614,-140.015,
00:00:19:950,-0.291,0.593,0.704,-29.236,206.482,-146.241,
00:00:19:967,-0.297,0.64,0.71,58.837,140.686,-194.092,
00:00:19:983,-0.294,0.597,0.72,185.547,83.862,-184.998,
00:00:20:0,-0.308,0.636,0.743,259.399,48.523,-208.558,
00:00:20:17,-0.291,0.611,0.768,337.768,10.559,-257.264,
00:00:20:33,-0.291,0.562,0.793,383.239,-38.331,-302.979,
00:00:20:50,-0.3,0.549,0.835,415.71,-79.041,-322.876,
00:00:20:67,-0.294,0.537,0.848,499.633,-79.224,-318.726,
00:00:20:83,-0.275,0.517,0.838,506.713,-85.755,-325.684,
00:00:20:100,-0.282,0.483,0.821,494.384,-99.976,-346.131,
00:00:20:117,-0.297,0.478,0.826,472.9,-95.459,-341.309,
00:00:20:133,-0.309,0.503,0.835,469.482,-78.858,-333.863,
00:00:20:150,-0.29,0.524,0.851,503.418,-49.012,-342.53,
00:00:20:167,-0.265,0.525,0.862,591.735,-51.758,-333.741,
00:00:20:183,-0.236,0.485,0.868,638.122,-78.858,-309.082,
00:00:20:200,-0.236,0.441,0.885,613.281,-132.874,-267.334,
00:00:20:217,-0.244,0.434,0.929,567.566,-175.232,-223.206,
00:00:20:233,-0.244,0.402,0.958,503.784,-221.619,-195.74,
00:00:20:250,-0.278,0.39,0.968,412.841,-270.203,-168.946,
00:00:20:267,-0.321,0.387,0.937,365.722,-263.977,-159.974,
00:00:20:283,-0.339,0.374,0.901,368.042,-225.953,-152.161,
00:00:20:300,-0.331,0.372,0.873,387.451,-197.449,-154.725,
00:00:20:317,-0.319,0.312,0.886,418.029,-202.21,-133.545,
00:00:20:333,-0.327,0.312,0.9,422.363,-217.896,-113.221,
00:00:20:350,-0.349,0.277,0.908,382.08,-199.036,-94.788,
00:00:20:367,-0.368,0.256,0.903,306.762,-169.251,-77.21,
00:00:20:383,-0.378,0.229,0.894,216.491,-133.789,-56.092,
00:00:20:400,-0.389,0.216,0.881,115.478,-110.657,-23.072,
00:00:20:417,-0.406,0.211,0.881,20.568,-81.849,-10.376,
00:00:20:433,-0.412,0.211,0.869,-43.396,-50.232,19.226,
00:00:20:450,-0.409,0.221,0.869,-104.493,-17.518,19.348,
00:00:20:467,-0.407,0.239,0.853,-140.015,-7.203,26.733,
00:00:20:483,-0.41,0.214,0.872,-153.443,-3.54,9.704,
00:00:20:500,-0.412,0.201,0.876,-224.732,9.704,21.423,
00:00:20:517,-0.417,0.208,0.875,-314.759,33.691,19.653,
00:00:20:533,-0.416,0.228,0.877,-386.109,47.058,48.523,
00:00:20:550,-0.408,0.251,0.867,-444.153,69.885,79.895,
00:00:20:567,-0.404,0.28,0.871,-497.498,84.472,91.613,
00:00:20:583,-0.404,0.305,0.865,-551.026,75.256,112.487,
00:00:20:600,-0.415,0.321,0.851,-602.417,70.19,126.709,
00:00:20:617,-0.419,0.31,0.864,-649.292,89.66,125.793,
00:00:20:633,-0.411,0.312,0.858,-724.793,116.027,144.409,
00:00:20:650,-0.406,0.368,0.837,-777.527,132.995,174.072,
00:00:20:667,-0.405,0.411,0.81,-794.739,134.216,188.964,
00:00:20:683,-0.404,0.421,0.789,-796.57,112.671,182.312,
00:00:20:700,-0.409,0.433,0.79,-807.435,87.402,173.034,
00:00:20:717,-0.423,0.465,0.773,-798.829,102.417,155.212,
00:00:20:733,-0.417,0.505,0.766,-750.977,112.243,134.582,
00:00:20:750,-0.399,0.541,0.747,-704.712,112.609,118.835,
00:00:20:767,-0.401,0.537,0.724,-645.569,106.628,115.417,
00:00:20:783,-0.41,0.536,0.69,-606.446,99.67,113.708,
00:00:20:800,-0.407,0.53,0.699,-571.473,107.422,109.924,
00:00:20:817,-0.41,0.555,0.701,-550.232,135.925,113.281,
00:00:20:833,-0.405,0.6,0.679,-540.284,178.833,120.056,
00:00:20:850,-0.399,0.654,0.663,-542.298,184.631,108.032,
00:00:20:867,-0.385,0.723,0.684,-504.334,165.039,72.204,
00:00:20:883,-0.382,0.77,0.715,-370.728,132.507,25.085,
00:00:20:900,-0.383,0.755,0.737,-178.589,130.737,4.638,
00:00:20:917,-0.378,0.71,0.725,-17.579,129.882,0.061,
00:00:20:933,-0.386,0.631,0.7,65.307,120.178,2.502,
00:00:20:950,-0.402,0.59,0.685,56.091,116.455,3.54,
00:00:20:967,-0.408,0.607,0.699,45.654,132.812,-33.631,
00:00:20:983,-0.385,0.636,0.711,110.778,161.682,-71.595,
00:00:21:0,-0.338,0.645,0.724,216.064,157.104,-85.328,
00:00:21:17,-0.317,0.664,0.72,330.932,132.751,-102.662,
00:00:21:33,-0.313,0.623,0.719,418.151,88.806,-124.268,
00:00:21:50,-0.32,0.572,0.736,462.097,56.884,-152.832,
00:00:21:67,-0.324,0.548,0.779,468.139,34.484,-179.932,
00:00:21:83,-0.312,0.586,0.825,491.943,31.127,-212.647,
00:00:21:100,-0.281,0.585,0.847,557.067,24.353,-216.309,
00:00:21:117,-0.264,0.576,0.836,601.623,-4.212,-221.863,
00:00:21:133,-0.281,0.54,0.811,669.677,-27.955,-249.268,
00:00:21:150,-0.281,0.492,0.801,691.162,-39.185,-258.118,
00:00:21:167,-0.269,0.454,0.827,653.93,-58.655,-273.499,
00:00:21:183,-0.258,0.442,0.852,616.821,-66.468,-265.137,
00:00:21:200,-0.255,0.436,0.868,585.022,-74.158,-253.052,
00:00:21:217,-0.256,0.431,0.9,539.795,-85.816,-244.08,
00:00:21:233,-0.259,0.423,0.908,501.77,-80.689,-243.226,
00:00:21:250,-0.261,0.414,0.898,466.552,-71.167,-237.061,
00:00:21:267,-0.255,0.4,0.889,433.044,-72.083,-239.747,
00:00:21:283,-0.25,0.372,0.884,414.001,-87.403,-221.009,
00:00:21:300,-0.249,0.375,0.898,385.803,-106.141,-194.519,
00:00:21:317,-0.251,0.369,0.91,337.585,-128.235,-184.815,
00:00:21:333,-0.255,0.361,0.933,287.231,-152.466,-176.697,
00:00:21:350,-0.264,0.341,0.942,232.36,-172.364,-153.748,
00:00:21:367,-0.284,0.308,0.954,180.42,-188.66,-136.292,
00:00:21:383,-0.301,0.252,0.957,118.835,-190.186,-117.737,
00:00:21:400,-0.319,0.295,0.94,42.48,-176.392,-93.811,
00:00:21:417,-0.33,0.337,0.919,-1.77,-169.495,-99.793,
00:00:21:433,-0.337,0.379,0.892,16.845,-173.89,-106.019,
00:00:21:450,-0.344,0.397,0.885,85.937,-179.383,-106.629,
00:00:21:467,-0.361,0.404,0.877,165.039,-191.285,-107.422,
00:00:21:483,-0.358,0.379,0.897,217.041,-193.299,-101.868,
00:00:21:500,-0.379,0.398,0.891,250.488,-191.529,-85.45,
00:00:21:517,-0.389,0.365,0.887,296.508,-191.468,-86.731,
00:00:21:533,-0.42,0.182,0.889,3.906,-103.76,-20.203,
00:00:21:550,-0.425,0.193,0.866,-157.776,-58.96,5.249,mixRH
00:00:21:567,-0.431,0.214,0.85,-277.894,-15.809,38.147,
00:00:21:583,-0.448,0.255,0.842,-371.155,-9.095,49.56,
00:00:21:600,-0.456,0.267,0.828,-418.457,26.306,60.546,
00:00:21:617,-0.461,0.26,0.832,-481.019,41.992,78.979,
00:00:21:633,-0.469,0.274,0.843,-551.209,63.842,76.904,
00:00:21:650,-0.469,0.293,0.844,-612.183,93.444,81.115,
00:00:21:667,-0.456,0.305,0.837,-666.504,98.144,83.19,
00:00:21:683,-0.449,0.324,0.826,-720.581,91.186,95.581,
00:00:21:700,-0.454,0.335,0.813,-793.824,83.984,95.825,
00:00:21:717,-0.462,0.35,0.79,-871.338,107.788,91.003,
00:00:21:733,-0.447,0.395,0.765,-915.955,143.127,96.984,
00:00:21:750,-0.419,0.471,0.756,-947.51,151.428,92.407,
00:00:21:767,-0.393,0.512,0.741,-945.313,132.995,103.271,
00:00:21:783,-0.405,0.536,0.677,-940.796,90.942,109.924,
00:00:21:800,-0.447,0.576,0.669,-925.965,87.585,106.14,
00:00:21:817,-0.461,0.613,0.627,-880.372,142.578,100.158,
00:00:21:833,-0.429,0.654,0.648,-789.246,176.635,95.703,
00:00:21:850,-0.408,0.715,0.653,-700.135,138.366,78.002,
00:00:21:867,-0.426,0.715,0.668,-549.439,90.087,41.381,
00:00:21:883,-0.448,0.677,0.684,-379.09,111.877,5.798,
00:00:21:900,-0.426,0.641,0.68,-280.091,141.54,-5.982,
00:00:21:917,-0.405,0.656,0.668,-237.854,138.855,-10.865,
00:00:21:933,-0.407,0.674,0.671,-179.139,106.567,-21.668,
00:00:21:950,-0.425,0.668,0.67,-90.76,96.313,-48.279,
00:00:21:967,-0.42,0.652,0.683,-41.993,103.637,-58.35,
00:00:21:983,-0.412,0.654,0.678,-22.278,109.436,-65.979,
00:00:22:0,-0.416,0.656,0.671,-11.78,99.182,-69.519,
00:00:22:17,-0.424,0.635,0.668,7.446,104.309,-72.632,
00:00:22:33,-0.426,0.651,0.658,11.169,126.587,-81.055,
00:00:22:50,-0.407,0.668,0.647,44.921,134.338,-107.117,
00:00:22:67,-0.381,0.673,0.658,107.055,126.892,-123.78,
00:00:22:83,-0.374,0.659,0.668,160.583,109.375,-139.832,
00:00:22:100,-0.373,0.651,0.672,206.482,111.877,-148.194,
00:00:22:117,-0.358,0.652,0.672,258.545,117.553,-153.443,
00:00:22:133,-0.338,0.631,0.7,299.377,115.661,-172.181,
00:00:22:150,-0.312,0.618,0.754,349.731,112.121,-191.59,
00:00:22:167,-0.277,0.592,0.802,381.897,85.327,-205.262,
00:00:22:183,-0.26,0.63,0.822,455.932,55.358,-214.051,
00:00:22:200,-0.241,0.62,0.797,543.518,-0.733,-269.532,
00:00:22:217,-0.243,0.587,0.803,539.856,-43.946,-306.275,
00:00:22:233,-0.263,0.583,0.734,588.44,-3.602,-316.529,
00:00:22:250,-0.227,0.554,0.699,645.202,-4.944,-288.086,
00:00:22:267,-0.194,0.511,0.708,662.292,-56.702,-290.284,
00:00:22:283,-0.209,0.477,0.79,612.121,-130.127,-297.852,
00:00:22:300,-0.247,0.479,0.854,548.706,-119.507,-293.091,
00:00:22:317,-0.224,0.485,0.895,489.318,-63.355,-298.096,
00:00:22:333,-0.187,0.496,0.89,407.104,-47.608,-297.059,
00:00:22:350,-0.172,0.529,0.88,358.032,-67.261,-279.053,
00:00:22:367,-0.168,0.547,0.873,348.999,-88.318,-256.226,
00:00:22:383,-0.165,0.541,0.861,352.478,-125.489,-241.456,
00:00:22:400,-0.185,0.55,0.879,351.379,-201.722,-210.572,
00:00:22:417,-0.194,0.531,0.912,336.853,-215.332,-194.275,
00:00:22:433,-0.197,0.473,0.926,280.151,-255.494,-147.583,
00:00:22:450,-0.242,0.473,0.934,177.612,-295.289,-107.178,
00:00:22:467,-0.281,0.513,0.924,98.022,-274.842,-89.844,
00:00:22:483,-0.299,0.517,0.874,93.261,-247.437,-73.914,
00:00:22:500,-0.317,0.497,0.839,114.502,-243.653,-64.087,
00:00:22:517,-0.343,0.45,0.811,156.677,-228.15,-65.125,
00:00:22:533,-0.361,0.378,0.822,159.973,-188.782,-39.368,
00:00:22:550,-0.364,0.358,0.83,100.341,-148.438,-0.916,
00:00:22:567,-0.379,0.341,0.828,-6.348,-121.521,6.286,
00:00:22:583,-0.437,0.349,0.822,-102.234,-83.741,33.752,
00:00:22:600,-0.411,0.381,0.823,-184.693,-32.532,62.927,
00:00:22:617,-0.398,0.424,0.823,-227.478,2.319,87.097,
00:00:22:633,-0.393,0.451,0.813,-230.408,2.746,107.849,
00:00:22:650,-0.403,0.451,0.807,-216.187,5.554,118.347,
00:00:22:667,-0.412,0.454,0.806,-198.914,25.085,129.089,
00:00:22:683,-0.406,0.449,0.823,-182.251,23.559,141.601,
00:00:22:700,-0.414,0.436,0.834,-173.401,19.958,146.484,
00:00:22:717,-0.423,0.432,0.838,-178.589,26.428,156.372,
00:00:22:733,-0.425,0.421,0.839,-204.468,39.672,152.099,
00:00:22:750,-0.417,0.403,0.834,-225.281,49.804,161.804,
00:00:22:767,-0.429,0.389,0.828,-256.592,47.363,187.072,
00:00:22:783,-0.439,0.348,0.828,-330.079,62.439,210.998,
00:00:22:800,-0.449,0.352,0.791,-454.712,94.36,220.642,
00:00:22:817,-0.447,0.399,0.744,-534.729,133.606,229.614,
00:00:22:833,-0.434,0.424,0.722,-550.049,146.423,225.463,
00:00:22:850,-0.412,0.433,0.712,-513.123,137.817,219.36,
00:00:22:867,-0.397,0.426,0.689,-482.727,118.591,228.637,
00:00:22:883,-0.405,0.427,0.668,-493.958,84.777,241.211,
00:00:22:900,-0.44,0.468,0.627,-494.507,66.65,220.764,
00:00:22:917,-0.453,0.455,0.639,-458.313,55.847,177.673,
00:00:22:933,-0.479,0.435,0.656,-449.646,51.513,148.559,
00:00:22:950,-0.494,0.445,0.722,-476.502,75.561,109.497,
00:00:22:967,-0.502,0.473,0.741,-511.048,126.098,94.848,
00:00:22:983,-0.481,0.538,0.765,-535.035,172.424,92.407,
00:00:23:0,-0.456,0.603,0.768,-498.475,194.824,83.679,
00:00:23:17,-0.436,0.598,0.772,-446.473,169.006,70.922,
00:00:23:33,-0.438,0.625,0.768,-436.707,165.771,69.091,
00:00:23:50,-0.441,0.676,0.727,-410.767,179.26,49.255,
00:00:23:67,-0.418,0.685,0.671,-349.488,176.147,34.484,
00:00:23:83,-0.438,0.623,0.656,-286.683,149.841,12.878,
00:00:23:100,-0.463,0.62,0.674,-254.273,176.269,17.028,
00:00:23:117,-0.446,0.644,0.676,-232.972,218.383,4.821,
00:00:23:133,-0.41,0.649,0.677,-195.191,215.393,-17.762,
00:00:23:150,-0.406,0.63,0.66,-140.686,194.213,-29.236,
00:00:23:167,-0.421,0.59,0.641,-114.441,177.49,-53.284,
00:00:23:183,-0.414,0.618,0.653,-99.488,170.837,-84.412,
00:00:23:200,-0.385,0.698,0.638,-26.673,155.639,-98.023,
00:00:23:217,-0.332,0.768,0.685,162.414,103.942,-109.436,
00:00:23:233,-0.298,0.723,0.727,394.165,25.329,-118.531,
00:00:23:250,-0.313,0.59,0.768,493.835,-100.342,-143.738,
00:00:23:267,-0.369,0.566,0.817,480.529,-158.753,-174.256,
00:00:23:283,-0.373,0.63,0.814,470.031,-92.713,-201.294,
00:00:23:300,-0.302,0.662,0.804,549.499,-78.125,-215.394,
00:00:23:317,-0.258,0.65,0.777,650.573,-102.601,-228.211,
00:00:23:333,-0.285,0.614,0.802,707.092,-167.42,-222.29,
00:00:23:350,-0.321,0.597,0.821,729.736,-134.888,-233.216,
00:00:23:367,-0.294,0.572,0.831,743.347,-57.618,-232.361,
00:00:23:383,-0.245,0.52,0.839,743.591,-36.255,-229.31,
00:00:23:400,-0.234,0.446,0.844,695.068,-82.703,-234.864,
00:00:23:417,-0.262,0.379,0.873,607.055,-102.906,-238.465,
00:00:23:433,-0.278,0.38,0.878,499.878,-58.716,-236.39,
00:00:23:450,-0.252,0.422,0.862,468.383,-9.034,-231.751,
00:00:23:467,-0.219,0.457,0.834,500.61,-6.714,-225.403,
00:00:23:483,-0.204,0.443,0.839,573.059,-60.181,-227.539,
00:00:23:500,-0.23,0.38,0.86,613.891,-117.554,-253.724,
00:00:23:517,-0.255,0.333,0.906,605.346,-132.752,-255.677,
00:00:23:533,-0.253,0.297,0.933,547.668,-113.282,-245.789,
00:00:23:550,-0.244,0.279,0.949,457.519,-105.469,-235.413,
00:00:23:567,-0.247,0.257,0.956,335.876,-122.254,-216.797,
00:00:23:583,-0.269,0.247,0.957,203.857,-139.283,-206.971,
00:00:23:600,-0.301,0.29,0.959,98.266,-136.231,-190.857,
00:00:23:617,-0.315,0.347,0.951,64.514,-119.08,-177.43,
00:00:23:633,-0.308,0.379,0.938,98.144,-123.719,-172.12,
00:00:23:650,-0.305,0.366,0.915,144.348,-135.865,-170.838,
00:00:23:667,-0.319,0.332,0.904,153.686,-158.57,-161.805,
00:00:23:683,-0.353,0.307,0.897,103.454,-178.589,-156.739,
00:00:23:700,-0.377,0.304,0.903,49.316,-154.48,-131.958,
00:00:23:717,-0.367,0.31,0.914,-2.076,-108.094,-97.718,
00:00:23:733,-0.352,0.322,0.91,-48.645,-88.257,-83.008,
00:00:23:750,-0.359,0.316,0.904,-90.271,-109.925,-59.754,
00:00:23:767,-0.394,0.333,0.905,-127.808,-121.888,-40.162,
00:00:23:783,-0.403,0.341,0.887,-159.302,-96.131,-16.297,
00:00:23:800,-0.399,0.325,0.864,-197.327,-88.562,-1.954,
00:00:23:817,-0.412,0.344,0.832,-229.004,-89.051,21.301,
00:00:23:833,-0.429,0.348,0.821,-244.935,-97.657,32.47,
00:00:23:850,-0.456,0.346,0.815,-256.531,-99.671,42.358,
00:00:23:867,-0.48,0.34,0.771,-286.011,-81.788,46.325,
00:00:23:883,-0.486,0.342,0.801,-326.111,-36.622,68.786,
00:00:23:900,-0.485,0.371,0.803,-384.034,0.427,86.364,
00:00:23:917,-0.483,0.383,0.776,-416.932,25.94,113.281,
00:00:23:933,-0.502,0.365,0.758,-462.586,37.475,130.981,
00:00:23:950,-0.527,0.348,0.719,-557.435,64.27,135.62,
00:00:23:967,-0.532,0.371,0.749,-653.382,123.169,150.756,
00:00:23:983,-0.5,0.376,0.776,-720.032,177.124,166.87,
00:00:24:0,-0.475,0.409,0.777,-783.57,191.528,201.782,
00:00:24:17,-0.483,0.456,0.753,-816.529,180.725,210.632,
00:00:24:33,-0.509,0.498,0.709,-798.89,172.729,208.252,
00:00:24:50,-0.528,0.543,0.651,-710.999,185.363,199.768,
00:00:24:67,-0.525,0.59,0.621,-533.326,195.617,187.194,
00:00:24:83,-0.503,0.572,0.623,-313.965,173.706,154.358,
00:00:24:100,-0.484,0.514,0.663,-139.649,156.738,135.559,
00:00:24:117,-0.514,0.418,0.785,46.264,165.832,111.084,
00:00:24:133,-0.506,0.401,0.812,-33.326,210.815,88.378,
00:00:24:150,-0.489,0.466,0.859,-187.378,224.121,42.053,
00:00:24:167,-0.452,0.552,0.917,-255.433,236.389,10.376,
00:00:24:183,-0.407,0.634,0.912,-170.411,249.694,-7.264,
00:00:24:200,-0.319,0.659,0.89,-28.199,220.642,-16.053,
00:00:24:217,-0.317,0.626,0.869,119.751,133.178,-14.466,
00:00:24:233,-0.343,0.564,0.854,222.778,53.344,-27.894,
00:00:24:250,-0.366,0.494,0.867,258.789,29.174,-43.335,
00:00:24:267,-0.365,0.414,0.853,213.745,60.913,-62.561,
00:00:24:283,-0.34,0.386,0.837,128.051,84.838,-72.754,
00:00:24:300,-0.328,0.405,0.826,41.992,89.599,-81.482,
00:00:24:317,-0.327,0.468,0.799,16.662,91.064,-94.666,
00:00:24:333,-0.324,0.504,0.777,35.522,90.698,-120.789,
00:00:24:350,-0.308,0.502,0.763,104.187,96.069,-142.456,
00:00:24:367,-0.288,0.515,0.768,166.565,98.327,-139.893,
00:00:24:383,-0.275,0.509,0.783,219.238,80.627,-162.598,
00:00:24:400,-0.272,0.486,0.812,257.385,63.781,-160.523,
00:00:24:417,-0.274,0.473,0.83,258.361,61.584,-163.819,
00:00:24:433,-0.272,0.454,0.846,214.111,64.575,-192.017,
00:00:24:450,-0.267,0.474,0.853,201.355,72.265,-211.67,
00:00:24:467,-0.23,0.485,0.819,370.849,18.676,-211.67,
00:00:24:483,-0.23,0.448,0.833,372.131,-31.128,-216.858,
00:00:24:500,-0.246,0.438,0.847,356.14,-48.401,-214.112,
00:00:24:517,-0.252,0.445,0.875,329.04,-59.021,-202.515,
00:00:24:533,-0.251,0.459,0.894,323.974,-61.829,-197.754,
00:00:24:550,-0.25,0.453,0.901,359.741,-90.271,-182.129,
00:00:24:567,-0.264,0.439,0.907,361.938,-106.019,-169.739,
00:00:24:583,-0.286,0.393,0.909,373.657,-102.723,-156.495,
00:00:24:600,-0.295,0.344,0.918,329.467,-105.469,-137.391,
00:00:24:617,-0.306,0.353,0.932,270.752,-94.91,-117.981,
00:00:24:633,-0.312,0.373,0.953,237.976,-68.238,-91.919,
00:00:24:650,-0.304,0.354,0.953,221.679,-56.092,-68.482,
00:00:24:667,-0.3,0.333,0.949,191.345,-59.815,-55.359,
00:00:24:683,-0.314,0.307,0.919,155.334,-73.67,-52.247,
00:00:24:700,-0.337,0.278,0.917,100.586,-84.046,-32.349,
00:00:24:717,-0.363,0.285,0.901,35.705,-63.355,-4.151,
00:00:24:733,-0.367,0.284,0.901,-24.17,-39.917,7.995,
00:00:24:750,-0.358,0.274,0.887,-93.445,-15.381,10.559,
00:00:24:767,-0.355,0.291,0.879,-158.265,-9.949,24.841,
00:00:24:783,-0.364,0.299,0.872,-213.44,-9.034,39.733,
00:00:24:800,-0.373,0.306,0.871,-250.916,-8.545,75.622,
00:00:24:817,-0.394,0.285,0.844,-504.334,40.71,117.859,
00:00:24:833,-0.403,0.315,0.821,-591.675,52.063,117.553,
00:00:24:850,-0.411,0.322,0.807,-652.1,55.847,135.62,
00:00:24:867,-0.417,0.344,0.783,-730.164,74.035,155.09,
00:00:24:883,-0.419,0.392,0.788,-802.552,101.257,175.781,
00:00:24:900,-0.415,0.448,0.774,-846.741,121.643,187.439,
00:00:24:917,-0.415,0.501,0.757,-837.952,145.385,185.547,
00:00:24:933,-0.412,0.511,0.736,-789.368,159.912,185.791,
00:00:24:950,-0.403,0.496,0.733,-744.935,159.668,200.378,
00:00:24:967,-0.402,0.496,0.731,-744.385,148.803,223.022,
00:00:24:983,-0.429,0.54,0.739,-726.929,152.954,196.289,
00:00:25:0,-0.435,0.528,0.723,-694.519,189.087,176.574,
00:00:25:17,-0.402,0.616,0.737,-589.112,223.816,113.769,
00:00:25:33,-0.379,0.639,0.757,-454.346,231.506,87.707,
00:00:25:50,-0.351,0.632,0.779,-325.928,218.75,56.396,
00:00:25:67,-0.338,0.637,0.767,-241.7,198.547,46.142,
00:00:25:83,-0.335,0.649,0.761,-192.078,178.405,1.892,
00:00:25:100,-0.333,0.647,0.749,-107.911,143.249,-13.611,
00:00:25:117,-0.339,0.655,0.722,-11.719,128.051,-39.368,
00:00:25:133,-0.329,0.661,0.718,83.007,126.587,-60.608,
00:00:25:150,-0.299,0.665,0.709,183.776,127.075,-73.853,
00:00:25:167,-0.287,0.648,0.714,253.112,109.985,-81.177,
00:00:25:183,-0.287,0.621,0.721,290.893,87.463,-104.432,
00:00:25:200,-0.289,0.591,0.734,328.308,91.186,-125.916,
00:00:25:217,-0.273,0.573,0.739,360.839,95.764,-140.076,
00:00:25:233,-0.245,0.549,0.776,393.249,80.322,-164.246,
00:00:25:250,-0.241,0.53,0.784,420.959,57.128,-176.209,
00:00:25:267,-0.236,0.523,0.806,403.808,42.724,-206.238,
00:00:25:283,-0.225,0.54,0.795,403.32,38.635,-227.601,
00:00:25:300,-0.204,0.565,0.794,446.899,14.221,-236.39,
00:00:25:317,-0.185,0.577,0.81,523.986,-34.363,-248.902,
00:00:25:333,-0.19,0.539,0.833,612.304,-84.839,-268.067,
00:00:25:350,-0.207,0.512,0.872,646.972,-114.93,-274.781,
00:00:25:367,-0.215,0.484,0.889,652.954,-112.183,-281.128,
00:00:25:383,-0.209,0.461,0.887,628.601,-107.972,-278.87,
00:00:25:400,-0.212,0.406,0.899,603.21,-116.333,-268.494,
00:00:25:417,-0.216,0.417,0.912,570.373,-126.709,-258.484,
00:00:25:433,-0.223,0.391,0.921,526.062,-125.245,-239.258,
00:00:25:450,-0.231,0.387,0.937,442.26,-126.526,-214.966,
00:00:25:467,-0.241,0.38,0.932,363.342,-126.343,-193.482,
00:00:25:483,-0.243,0.355,0.946,295.715,-121.644,-157.349,
00:00:25:500,-0.243,0.327,0.941,205.322,-112.793,-114.93,
00:00:25:517,-0.248,0.326,0.941,108.581,-123.78,-79.102,
00:00:25:533,-0.271,0.348,0.929,42.236,-122.437,-73.853,
00:00:25:550,-0.291,0.384,0.916,27.893,-116.822,-70.679,mixRH
00:00:25:567,-0.301,0.391,0.91,44.372,-113.892,-63.904,
00:00:25:583,-0.309,0.381,0.904,67.26,-122.193,-66.102,
00:00:25:600,-0.319,0.354,0.899,68.664,-132.447,-63.599,
00:00:25:617,-0.331,0.344,0.908,68.725,-130.86,-61.463,
00:00:25:633,-0.338,0.363,0.899,58.593,-113.709,-47.669,
00:00:25:650,-0.336,0.355,0.903,53.588,-102.906,-47.852,
00:00:25:667,-0.335,0.346,0.901,23.01,-100.281,-34.119,
00:00:25:683,-0.343,0.333,0.9,-27.894,-99.549,-24.964,
00:00:25:700,-0.35,0.323,0.878,-77.942,-75.135,-9.583,
00:00:25:717,-0.359,0.281,0.852,-130.677,-61.89,8.789,
00:00:25:733,-0.364,0.305,0.85,-218.018,-51.087,11.901,
00:00:25:750,-0.373,0.313,0.836,-305.848,-33.814,26.184,
00:00:25:767,-0.384,0.318,0.823,-390.259,-15.259,46.081,
00:00:25:783,-0.394,0.327,0.83,-480.469,19.043,57.128,
00:00:25:800,-0.404,0.341,0.818,-583.313,63.598,75.988,
00:00:25:817,-0.412,0.375,0.804,-666.993,104.37,101.318,
00:00:25:833,-0.402,0.389,0.799,-758.179,139.77,113.708,
00:00:25:850,-0.388,0.392,0.78,-855.164,165.527,128.967,
00:00:25:867,-0.381,0.467,0.774,-961.121,172.729,142.7,
00:00:25:883,-0.378,0.514,0.76,-999.817,180.969,154.541,
00:00:25:900,-0.365,0.581,0.74,-972.779,188.293,162.719,
00:00:25:917,-0.351,0.612,0.728,-892.456,174.377,167.358,
00:00:25:933,-0.346,0.635,0.702,-803.284,145.202,167.419,
00:00:25:950,-0.377,0.663,0.696,-590.516,134.582,129.028,
00:00:25:967,-0.361,0.658,0.697,-483.826,130.31,109.619,
00:00:25:983,-0.354,0.625,0.681,-408.204,127.319,80.383,
00:00:26:0,-0.354,0.618,0.678,-360.352,140.686,58.471,
00:00:26:17,-0.346,0.625,0.694,-334.961,155.517,44.067,
00:00:26:33,-0.342,0.682,0.696,-304.322,162.963,23.315,
00:00:26:50,-0.333,0.725,0.688,-231.263,167.114,-6.043,
00:00:26:67,-0.314,0.737,0.687,-106.568,173.828,-54.566,
00:00:26:83,-0.302,0.745,0.676,41.137,157.165,-73.792,
00:00:26:100,-0.288,0.719,0.681,197.387,122.192,-112,
00:00:26:117,-0.285,0.678,0.673,327.514,106.201,-132.203,
00:00:26:133,-0.276,0.64,0.68,425.109,79.101,-143.738,
00:00:26:150,-0.278,0.618,0.706,440.246,27.221,-157.41,
00:00:26:167,-0.281,0.628,0.75,472.9,5.859,-178.528,
00:00:26:183,-0.275,0.62,0.77,521.545,-4.639,-194.703,
00:00:26:200,-0.267,0.616,0.784,560.302,-24.414,-208.374,
00:00:26:217,-0.265,0.599,0.795,586.425,-36.683,-218.506,
00:00:26:233,-0.273,0.596,0.796,601.684,-41.443,-228.089,
00:00:26:250,-0.264,0.579,0.802,622.802,-32.532,-223.45,
00:00:26:267,-0.251,0.568,0.811,641.967,-36.499,-223.999,
00:00:26:283,-0.251,0.553,0.826,660.644,-45.227,-225.037,
00:00:26:300,-0.25,0.542,0.837,681.457,-46.509,-227.234,
00:00:26:317,-0.243,0.506,0.852,679.626,-45.166,-212.769,
00:00:26:333,-0.233,0.453,0.856,654.113,-44.434,-194.519,
00:00:26:350,-0.233,0.415,0.864,581.237,-53.894,-165.101,
00:00:26:367,-0.237,0.403,0.882,514.831,-65.369,-154.175,
00:00:26:383,-0.24,0.412,0.902,457.336,-70.008,-137.269,
00:00:26:400,-0.238,0.412,0.923,433.96,-81.177,-123.902,
00:00:26:417,-0.243,0.417,0.926,446.228,-91.309,-106.08,
00:00:26:433,-0.244,0.42,0.921,482.727,-97.29,-96.436,
00:00:26:450,-0.241,0.363,0.908,518.249,-127.686,-111.573,
00:00:26:467,-0.258,0.295,0.916,513.977,-166.443,-101.136,
00:00:26:483,-0.285,0.246,0.932,460.144,-183.289,-102.784,
00:00:26:500,-0.302,0.19,0.961,365.417,-173.951,-82.337,
00:00:26:517,-0.307,0.175,0.983,219.177,-139.039,-68.299,
00:00:26:533,-0.302,0.205,0.978,54.443,-107.666,-45.899,
00:00:26:550,-0.308,0.24,0.952,-63.477,-87.464,-43.213,
00:00:26:567,-0.326,0.259,0.88,-139.344,-66.285,-24.292,
00:00:26:583,-0.327,0.296,0.886,-173.645,-32.776,-21.058,
00:00:26:600,-0.31,0.311,0.889,-166.565,-25.818,-2.32,
00:00:26:617,-0.303,0.315,0.881,-154.725,-38.392,8.728,
00:00:26:633,-0.316,0.311,0.898,-166.687,-51.514,20.324,
00:00:26:650,-0.334,0.298,0.897,-200.745,-37.659,36.743,
00:00:26:667,-0.352,0.286,0.889,-272.889,-13.794,45.41,
00:00:26:683,-0.358,0.276,0.901,-361.451,21.667,55.419,
00:00:26:700,-0.351,0.293,0.89,-465.577,62.439,81.481,
00:00:26:717,-0.349,0.313,0.863,-551.514,81.726,98.51,
00:00:26:733,-0.348,0.338,0.854,-636.292,83.74,106.689,
00:00:26:750,-0.349,0.357,0.848,-696.412,89.965,116.943,
00:00:26:767,-0.351,0.391,0.84,-727.723,91.796,125,
00:00:26:783,-0.339,0.397,0.835,-761.902,93.566,130.981,
00:00:26:800,-0.341,0.466,0.791,-786.255,82.641,142.578,
00:00:26:817,-0.356,0.491,0.744,-784.18,65.979,146.972,
00:00:26:833,-0.376,0.566,0.706,-715.394,75.012,150.512,
00:00:26:850,-0.37,0.624,0.715,-537.049,101.257,141.174,
00:00:26:867,-0.348,0.626,0.734,-359.009,118.713,139.709,
00:00:26:883,-0.332,0.574,0.76,-273.865,103.149,124.328,
00:00:26:900,-0.334,0.519,0.775,-290.528,79.284,114.99,
00:00:26:917,-0.35,0.516,0.798,-335.694,87.402,109.13,
00:00:26:933,-0.353,0.536,0.815,-355.042,98.755,99.182,
00:00:26:950,-0.342,0.557,0.811,-334.168,101.196,88.867,
00:00:26:967,-0.332,0.553,0.814,-301.331,89.111,82.153,
00:00:26:983,-0.33,0.564,0.811,-271.241,75.805,72.692,
00:00:27:0,-0.33,0.593,0.793,-217.102,75.256,62.927,
00:00:27:17,-0.319,0.604,0.795,-163.147,55.786,29.785,
00:00:27:33,-0.307,0.602,0.794,-135.376,39.062,3.845,
00:00:27:50,-0.3,0.605,0.79,-116.761,18.798,-0.367,
00:00:27:67,-0.3,0.611,0.784,-114.624,-5.616,-2.747,
00:00:27:83,-0.314,0.61,0.773,-116.7,-10.071,-12.696,
00:00:27:100,-0.327,0.611,0.744,-86.853,9.46,-18.189,
00:00:27:117,-0.334,0.609,0.719,-49.561,37.17,-26.734,
00:00:27:133,-0.327,0.611,0.713,-16.724,64.27,-44.373,
00:00:27:150,-0.317,0.618,0.712,27.282,79.04,-50.11,
00:00:27:167,-0.325,0.613,0.693,81.359,87.219,-66.04,
00:00:27:183,-0.334,0.608,0.686,172.241,107.299,-83.802,
00:00:27:200,-0.331,0.623,0.691,262.146,116.577,-94.971,
00:00:27:217,-0.312,0.601,0.717,344.848,111.023,-133.728,
00:00:27:233,-0.299,0.566,0.752,401.977,100.463,-148.743,
00:00:27:250,-0.296,0.54,0.79,444.213,88.501,-160.157,
00:00:27:267,-0.293,0.521,0.803,440.857,86.425,-165.65,
00:00:27:283,-0.28,0.511,0.828,416.137,77.27,-176.148,
00:00:27:300,-0.272,0.519,0.816,385.559,60.607,-185.608,
00:00:27:317,-0.266,0.509,0.839,387.634,32.959,-197.937,
00:00:27:333,-0.264,0.461,0.857,407.409,13.061,-193.116,
00:00:27:350,-0.267,0.436,0.863,413.696,-2.076,-180.298,
00:00:27:367,-0.273,0.442,0.849,420.532,-12.574,-186.585,
00:00:27:383,-0.275,0.451,0.851,422.729,-34.485,-196.656,
00:00:27:400,-0.273,0.447,0.865,442.443,-48.462,-200.684,
00:00:27:417,-0.277,0.428,0.897,446.716,-64.393,-200.684,
00:00:27:433,-0.276,0.414,0.913,451.904,-57.496,-200.44,
00:00:27:450,-0.269,0.401,0.92,467.224,-46.814,-200.623,
00:00:27:467,-0.264,0.375,0.929,457.702,-53.284,-204.834,
00:00:27:483,-0.269,0.366,0.918,437.805,-50.415,-200.013,
00:00:27:500,-0.267,0.386,0.905,447.448,-25.33,-191.224,
00:00:27:517,-0.244,0.388,0.914,485.595,-34.546,-188.172,
00:00:27:533,-0.223,0.366,0.944,524.17,-60.425,-179.566,
00:00:27:550,-0.219,0.322,0.976,520.019,-83.497,-168.335,
00:00:27:567,-0.229,0.281,0.96,486.572,-100.037,-161.133,
00:00:27:583,-0.237,0.248,0.964,416.504,-107.972,-139.405,
00:00:27:600,-0.249,0.238,0.984,324.951,-114.685,-126.465,
00:00:27:617,-0.253,0.228,0.997,250,-113.343,-106.385,
00:00:27:633,-0.257,0.218,1.002,174.621,-108.765,-91.858,
00:00:27:650,-0.253,0.177,0.966,84.961,-99.488,-107.422,
00:00:27:667,-0.258,0.173,0.955,-20.508,-112.244,-96.558,
00:00:27:683,-0.28,0.203,0.939,-81.177,-112.671,-100.037,
00:00:27:700,-0.277,0.24,0.95,-96.436,-97.229,-93.14,
00:00:27:717,-0.263,0.258,0.955,-93.018,-88.318,-90.394,
00:00:27:733,-0.261,0.255,0.948,-109.986,-96.619,-77.149,
00:00:27:750,-0.277,0.227,0.936,-185.791,-91.309,-72.327,
00:00:27:767,-0.299,0.222,0.936,-291.077,-77.576,-65.918,
00:00:27:783,-0.303,0.242,0.92,-392.518,-41.321,-46.753,
00:00:27:800,-0.301,0.286,0.908,-486.39,-22.889,-30.64,
00:00:27:817,-0.302,0.347,0.899,-525.635,-16.419,-4.822,
00:00:27:833,-0.352,0.359,0.839,-665.467,-14.832,80.139,
00:00:27:850,-0.383,0.406,0.819,-742.554,10.986,87.951,
00:00:27:867,-0.388,0.462,0.778,-744.629,54.504,103.515,
00:00:27:883,-0.375,0.494,0.774,-702.21,65.673,126.281,
00:00:27:900,-0.375,0.52,0.78,-628.785,62.866,138.183,
00:00:27:917,-0.385,0.525,0.779,-574.341,63.659,144.714,
00:00:27:933,-0.392,0.5,0.791,-541.81,68.115,149.475,
00:00:27:950,-0.398,0.519,0.801,-531.739,85.937,142.456,
00:00:27:967,-0.385,0.526,0.806,-503.663,103.698,143.676,
00:00:27:983,-0.373,0.505,0.785,-473.023,100.463,148.62,
00:00:28:0,-0.385,0.478,0.755,-490.662,88.745,149.231,
00:00:28:17,-0.412,0.518,0.736,-557.068,124.328,117.92,
00:00:28:33,-0.348,0.605,0.734,-353.394,135.437,79.284,
00:00:28:50,-0.345,0.598,0.733,-283.997,124.145,73.181,
00:00:28:67,-0.347,0.59,0.751,-278.382,117.431,65.551,
00:00:28:83,-0.344,0.606,0.753,-337.342,113.586,36.743,
00:00:28:100,-0.332,0.644,0.748,-352.356,115.417,22.094,
00:00:28:117,-0.311,0.71,0.714,-293.152,99.792,29.052,
00:00:28:133,-0.308,0.712,0.68,-215.821,82.58,21.057,
00:00:28:150,-0.311,0.702,0.662,-141.114,69.58,28.625,
00:00:28:167,-0.324,0.664,0.651,-106.08,59.387,1.281,
00:00:28:183,-0.341,0.647,0.647,-81.727,71.228,-3.418,
00:00:28:200,-0.338,0.651,0.652,-73.792,93.994,-7.996,
00:00:28:217,-0.322,0.662,0.639,-56.031,109.253,-6.348,
00:00:28:233,-0.323,0.705,0.608,-21.668,105.468,-26.246,
00:00:28:250,-0.334,0.739,0.641,61.096,109.802,-35.706,
00:00:28:267,-0.332,0.737,0.674,189.453,132.751,-49.012,
00:00:28:283,-0.311,0.692,0.693,287.963,150.085,-43.03,
00:00:28:300,-0.303,0.634,0.705,319.641,153.991,-39.734,
00:00:28:317,-0.307,0.594,0.707,315.979,162.414,-46.631,
00:00:28:333,-0.314,0.584,0.724,310.119,178.161,-56.397,
00:00:28:350,-0.295,0.558,0.744,305.359,199.279,-75.928,
00:00:28:367,-0.277,0.565,0.751,304.931,194.58,-93.689,
00:00:28:383,-0.264,0.566,0.777,328.552,179.565,-100.342,
00:00:28:400,-0.249,0.564,0.809,351.989,141.174,-113.099,
00:00:28:417,-0.243,0.565,0.846,375.915,119.995,-129.09,
00:00:28:433,-0.227,0.556,0.865,417.175,93.75,-147.095,
00:00:28:450,-0.214,0.522,0.872,455.627,58.593,-171.021,
00:00:28:467,-0.211,0.48,0.885,477.295,27.832,-173.279,
00:00:28:483,-0.22,0.459,0.893,455.322,10.315,-169.129,
00:00:28:500,-0.215,0.437,0.885,384.155,-0.855,-187.195,
00:00:28:517,-0.205,0.435,0.866,307.19,-16.419,-186.341,
00:00:28:533,-0.204,0.476,0.839,266.784,-28.077,-196.473,
00:00:28:550,-0.199,0.496,0.827,314.941,-33.936,-221.375,
00:00:28:567,-0.178,0.519,0.854,375.976,-50.782,-208.435,
00:00:28:583,-0.165,0.503,0.885,450.378,-85.083,-218.323,
00:00:28:600,-0.183,0.453,0.919,484.253,-111.878,-213.746,
00:00:28:617,-0.199,0.43,0.924,476.745,-108.277,-226.38,
00:00:28:633,-0.19,0.426,0.914,463.44,-95.032,-219.178,
00:00:28:650,-0.174,0.445,0.915,483.642,-112.977,-212.891,
00:00:28:667,-0.184,0.412,0.911,528.259,-150.33,-208.374,
00:00:28:683,-0.209,0.388,0.916,518.615,-188.294,-212.342,
00:00:28:700,-0.232,0.373,0.923,501.281,-199.158,-215.516,
00:00:28:717,-0.226,0.365,0.941,491.699,-201.966,-202.942,
00:00:28:733,-0.219,0.33,0.929,470.214,-204.773,-195.862,
00:00:28:750,-0.227,0.256,0.955,404.297,-229.676,-174.195,
00:00:28:767,-0.255,0.221,0.984,274.841,-217.102,-132.019,
00:00:28:783,-0.276,0.233,0.993,110.473,-177.796,-91.675,
00:00:28:800,-0.273,0.282,0.989,-5.738,-142.334,-61.951,
00:00:28:817,-0.269,0.312,0.975,-48.768,-120.423,-39.551,
00:00:28:833,-0.273,0.33,0.935,-16.236,-124.573,-25.452,
00:00:28:850,-0.287,0.303,0.92,8.728,-140.748,-28.26,
00:00:28:867,-0.304,0.265,0.921,0.549,-151.612,-15.198,
00:00:28:883,-0.313,0.259,0.925,-6.897,-150.025,-15.381,
00:00:28:900,-0.319,0.247,0.925,-41.382,-137.635,-6.836,
00:00:28:917,-0.328,0.247,0.92,-80.75,-126.526,4.882,
00:00:28:933,-0.338,0.252,0.92,-117.127,-104.248,18.798,
00:00:28:950,-0.346,0.258,0.91,-159.546,-85.816,35.034,
00:00:28:967,-0.353,0.258,0.903,-203.003,-67.078,49.316,
00:00:28:983,-0.365,0.261,0.891,-260.621,-52.613,58.288,
00:00:29:0,-0.365,0.271,0.895,-316.834,-36.56,68.603,
00:00:29:17,-0.364,0.289,0.88,-357.544,-19.41,76.049,
00:00:29:33,-0.364,0.291,0.874,-397.644,-17.579,95.947,
00:00:29:50,-0.377,0.303,0.869,-458.252,-19.715,92.102,
00:00:29:67,-0.389,0.314,0.85,-516.175,-7.935,95.092,
00:00:29:83,-0.391,0.327,0.835,-566.102,6.408,118.286,
00:00:29:100,-0.4,0.339,0.814,-629.395,21.24,126.648,
00:00:29:117,-0.409,0.352,0.796,-694.397,46.386,131.225,
00:00:29:133,-0.416,0.358,0.768,-760.437,73.059,139.038,
00:00:29:150,-0.425,0.397,0.744,-812.012,100.769,150.756,
00:00:29:167,-0.431,0.44,0.738,-833.741,120.971,160.522,
00:00:29:183,-0.417,0.49,0.734,-822.815,150.39,152.282,
00:00:29:200,-0.408,0.522,0.734,-776.001,158.935,154.235,
00:00:29:217,-0.412,0.547,0.716,-720.52,149.658,148.437,
00:00:29:233,-0.427,0.568,0.699,-649.109,151.733,137.024,
00:00:29:250,-0.417,0.597,0.732,-556.092,165.466,143.676,
00:00:29:267,-0.404,0.614,0.733,-450.379,175.048,135.315,
00:00:29:283,-0.403,0.607,0.741,-366.15,156.86,110.29,
00:00:29:300,-0.412,0.569,0.755,-333.497,155.944,72.753,
00:00:29:317,-0.416,0.576,0.765,-293.335,202.27,58.96,
00:00:29:333,-0.385,0.602,0.763,-242.31,205.444,41.87,
00:00:29:350,-0.349,0.626,0.74,-178.101,174.499,18.432,
00:00:29:367,-0.345,0.634,0.732,-103.028,152.526,2.563,
00:00:29:383,-0.359,0.612,0.718,-50.599,131.713,-21.485,
00:00:29:400,-0.361,0.586,0.718,-6.47,135.07,-47.913,
00:00:29:417,-0.344,0.591,0.724,36.804,157.837,-59.327,
00:00:29:433,-0.328,0.603,0.736,85.266,168.701,-81.971,
00:00:29:450,-0.309,0.616,0.743,124.817,167.785,-95.826,
00:00:29:467,-0.3,0.605,0.751,141.296,143.676,-112.061,
00:00:29:483,-0.297,0.573,0.769,168.396,126.098,-139.527,
00:00:29:500,-0.297,0.583,0.788,205.383,128.845,-154.236,
00:00:29:517,-0.265,0.61,0.806,281.555,125,-155.579,
00:00:29:533,-0.235,0.66,0.813,384.521,96.923,-153.504,
00:00:29:550,-0.224,0.662,0.768,485.656,54.382,-183.106,mixRH
00:00:29:567,-0.228,0.565,0.741,590.637,0.793,-233.399,
00:00:29:583,-0.239,0.47,0.756,617.492,-50.965,-226.624,
00:00:29:600,-0.24,0.421,0.805,574.89,-71.534,-241.456,
00:00:29:617,-0.239,0.446,0.857,486.45,-81.788,-232.605,
00:00:29:633,-0.225,0.484,0.888,428.161,-67.872,-236.695,
00:00:29:650,-0.215,0.504,0.885,407.653,-65.125,-240.662,
00:00:29:667,-0.212,0.489,0.873,403.869,-70.069,-244.935,
00:00:29:683,-0.218,0.475,0.858,407.165,-82.459,-243.531,
00:00:29:700,-0.224,0.501,0.858,432.495,-79.712,-232.239,
00:00:29:717,-0.214,0.474,0.867,486.755,-83.985,-223.633,
00:00:29:733,-0.209,0.427,0.901,510.315,-114.014,-222.046,
00:00:29:750,-0.249,0.362,0.928,477.172,-153.138,-226.319,
00:00:29:767,-0.236,0.341,0.952,412.719,-153.382,-223.816,
00:00:29:783,-0.246,0.326,0.951,350.219,-161.194,-225.403,
00:00:29:800,-0.255,0.345,0.94,307.067,-172.547,-223.267,
00:00:29:817,-0.258,0.348,0.938,286.804,-186.524,-216.248,
00:00:29:833,-0.254,0.34,0.948,260.07,-174.5,-212.647,
00:00:29:850,-0.256,0.334,0.949,226.318,-186.097,-204.102,
00:00:29:867,-0.286,0.337,0.951,207.458,-195.13,-194.153,
00:00:29:883,-0.296,0.319,0.948,190.612,-174.012,-176.026,
00:00:29:900,-0.293,0.306,0.952,126.526,-142.212,-160.035,
00:00:29:917,-0.283,0.321,0.939,68.298,-121.705,-125.428,
00:00:29:933,-0.275,0.339,0.931,37.109,-109.864,-124.573,
00:00:29:950,-0.272,0.342,0.931,29.419,-116.333,-100.769,
00:00:29:967,-0.293,0.336,0.944,21.301,-126.893,-86.609,
00:00:29:983,-0.302,0.317,0.939,1.403,-120.484,-72.754,
00:00:30:0,-0.302,0.312,0.926,-36.377,-108.46,-60.059,
00:00:30:17,-0.306,0.318,0.916,-62.256,-106.385,-48.706,
00:00:30:33,-0.306,0.324,0.922,-73.426,-109.436,-44.129,
00:00:30:50,-0.307,0.311,0.895,-107.605,-120.118,-46.875,
00:00:30:67,-0.317,0.327,0.878,-142.823,-130.799,-47.547,
00:00:30:83,-0.332,0.34,0.857,-158.814,-139.588,-42.542,
00:00:30:100,-0.356,0.336,0.852,-131.348,-134.705,-19.227,
00:00:30:117,-0.372,0.318,0.86,-144.654,-119.873,-22.461,
00:00:30:133,-0.408,0.346,0.842,-323.731,-15.32,3.051,
00:00:30:150,-0.405,0.378,0.825,-357.056,5.615,22.827,
00:00:30:167,-0.414,0.38,0.843,-398.133,-0.123,31.25,
00:00:30:183,-0.429,0.398,0.814,-457.825,17.211,38.147,
00:00:30:200,-0.439,0.41,0.788,-508.423,39.733,40.954,
00:00:30:217,-0.433,0.42,0.782,-570.069,68.298,60.546,
00:00:30:233,-0.431,0.451,0.785,-613.16,98.266,89.477,
00:00:30:250,-0.432,0.462,0.767,-658.57,119.384,105.651,
00:00:30:267,-0.436,0.457,0.744,-698.731,142.578,114.99,
00:00:30:283,-0.438,0.475,0.719,-733.704,166.442,133.85,
00:00:30:300,-0.435,0.514,0.697,-757.813,176.513,143.676,
00:00:30:317,-0.437,0.534,0.678,-736.084,168.823,145.385,
00:00:30:333,-0.451,0.551,0.657,-680.054,176.33,154.235,
00:00:30:350,-0.45,0.566,0.65,-627.564,183.471,140.503,
00:00:30:367,-0.445,0.578,0.664,-572.632,203.979,137.024,
00:00:30:383,-0.422,0.6,0.669,-547.242,196.045,134.582,
00:00:30:400,-0.416,0.654,0.653,-517.823,169.677,119.873,
00:00:30:417,-0.432,0.648,0.667,-437.439,167.175,96.313,
00:00:30:433,-0.421,0.656,0.682,-357.239,191.772,70.922,
00:00:30:450,-0.392,0.664,0.711,-300.232,187.927,55.969,
00:00:30:467,-0.376,0.669,0.701,-233.216,164.367,44.372,
00:00:30:483,-0.381,0.663,0.726,-87.769,157.837,18.737,
00:00:30:500,-0.36,0.667,0.742,-42.237,166.198,6.897,
00:00:30:517,-0.343,0.649,0.742,4.577,158.081,-2.015,
00:00:30:533,-0.343,0.609,0.72,32.043,135.62,-9.339,
00:00:30:550,-0.354,0.603,0.723,27.526,117.981,-16.907,
00:00:30:567,-0.348,0.604,0.743,19.836,122.375,-40.284,
00:00:30:583,-0.328,0.613,0.753,10.864,117.981,-53.833,
00:00:30:600,-0.315,0.646,0.753,20.263,109.497,-75.44,
00:00:30:617,-0.295,0.681,0.732,64.331,107.666,-80.628,
00:00:30:633,-0.283,0.699,0.744,132.934,90.21,-88.013,
00:00:30:650,-0.281,0.68,0.735,216.43,76.171,-109.436,
00:00:30:667,-0.274,0.667,0.743,287.658,69.58,-115.845,
00:00:30:683,-0.271,0.654,0.735,357.483,68.359,-124.39,
00:00:30:700,-0.266,0.628,0.737,418.457,59.387,-128.479,
00:00:30:717,-0.268,0.562,0.74,453.308,47.607,-153.26,
00:00:30:733,-0.272,0.507,0.761,427.063,37.719,-164.368,
00:00:30:750,-0.262,0.518,0.774,341.003,33.447,-189.209,
00:00:30:767,-0.239,0.543,0.793,320.556,18.737,-197.144,
00:00:30:783,-0.228,0.57,0.794,345.214,2.624,-194.031,
00:00:30:800,-0.233,0.564,0.802,377.258,-24.414,-205.994,
00:00:30:817,-0.234,0.538,0.83,398.925,-28.382,-213.135,
00:00:30:833,-0.238,0.528,0.834,408.325,-18.799,-212.525,
00:00:30:850,-0.219,0.518,0.833,400.695,-17.579,-221.741,
00:00:30:867,-0.21,0.5,0.838,410.522,-26.429,-216.187,
00:00:30:883,-0.199,0.487,0.846,401.306,-41.626,-207.032,
00:00:30:900,-0.205,0.483,0.86,379.76,-64.087,-209.351,
00:00:30:917,-0.211,0.469,0.88,365.783,-77.515,-208.374,
00:00:30:933,-0.213,0.448,0.885,349.67,-75.501,-194.397,
00:00:30:950,-0.207,0.452,0.88,308.105,-74.891,-184.449,
00:00:30:967,-0.202,0.458,0.877,290.527,-85.45,-180.726,
00:00:30:983,-0.205,0.451,0.869,278.869,-96.924,-172.913,
00:00:31:0,-0.217,0.453,0.866,285.217,-114.991,-166.687,
00:00:31:17,-0.218,0.437,0.899,308.899,-122.437,-164.856,
00:00:31:33,-0.215,0.404,0.933,311.767,-128.602,-144.837,
00:00:31:50,-0.207,0.388,0.955,256.042,-118.653,-116.394,
00:00:31:67,-0.219,0.391,0.949,169.738,-112.61,-96.802,
00:00:31:83,-0.242,0.379,0.932,82.519,-104.126,-84.9,
00:00:31:100,-0.246,0.35,0.924,24.475,-86.121,-62.623,
00:00:31:117,-0.257,0.369,0.908,-35.279,-71.473,-55.176,
00:00:31:133,-0.273,0.419,0.885,-53.833,-71.9,-53.589,
00:00:31:150,-0.284,0.445,0.884,-15.931,-83.252,-53.223,
00:00:31:167,-0.297,0.484,0.888,58.044,-85.389,-58.167,
00:00:31:183,-0.289,0.439,0.887,137.695,-106.751,-60.486,
00:00:31:200,-0.308,0.4,0.898,173.95,-133.24,-49.256,
00:00:31:217,-0.326,0.385,0.892,156.616,-137.696,-37.171,
00:00:31:233,-0.332,0.373,0.9,125.549,-129.822,-22.644,
00:00:31:250,-0.34,0.362,0.891,87.768,-129.09,-3.785,
00:00:31:267,-0.359,0.346,0.886,35.827,-126.831,1.525,
00:00:31:283,-0.371,0.332,0.892,-31.983,-100.098,12.756,
00:00:31:300,-0.369,0.334,0.882,-108.643,-63.355,26.123,
00:00:31:317,-0.363,0.338,0.874,-176.819,-44.434,42.419,
00:00:31:333,-0.368,0.333,0.846,-237.427,-37.476,55.358,
00:00:31:350,-0.385,0.348,0.845,-284.546,-23.682,71.96,
00:00:31:367,-0.393,0.362,0.831,-309.266,-6.287,88.806,
00:00:31:383,-0.39,0.358,0.821,-346.802,-0.489,93.078,
00:00:31:400,-0.397,0.353,0.81,-410.157,1.098,99.182,
00:00:31:417,-0.408,0.37,0.801,-464.234,6.958,117.126,
00:00:31:433,-0.423,0.399,0.8,-502.015,23.559,130.249,
00:00:31:450,-0.424,0.407,0.792,-539.307,51.879,138.305,
00:00:31:467,-0.426,0.426,0.772,-574.463,75.561,129.333,
00:00:31:483,-0.422,0.439,0.75,-587.098,99.914,137.207,
00:00:31:500,-0.411,0.452,0.74,-606.019,113.952,150.146,
00:00:31:517,-0.407,0.475,0.761,-633.057,126.648,148.254,
00:00:31:533,-0.398,0.508,0.758,-652.71,140.991,153.259,
00:00:31:550,-0.398,0.546,0.722,-652.222,146.728,150.268,
00:00:31:567,-0.423,0.574,0.704,-613.648,144.104,150.512,
00:00:31:583,-0.436,0.604,0.675,-561.402,177.795,147.033,
00:00:31:600,-0.405,0.632,0.711,-512.024,190.734,135.437,
00:00:31:617,-0.373,0.62,0.741,-447.205,175.903,135.681,
00:00:31:633,-0.372,0.605,0.746,-414.795,136.779,143.249,
00:00:31:650,-0.383,0.613,0.749,-404.664,128.051,141.174,
00:00:31:667,-0.389,0.635,0.74,-362.854,140.503,134.155,
00:00:31:683,-0.378,0.644,0.724,-292.359,143.127,111.023,
00:00:31:700,-0.37,0.656,0.711,-203.186,145.874,80.932,
00:00:31:717,-0.348,0.655,0.692,-77.149,142.761,56.03,
00:00:31:733,-0.343,0.621,0.692,28.747,114.074,40.832,
00:00:31:750,-0.364,0.574,0.705,75.744,101.44,23.681,
00:00:31:767,-0.371,0.541,0.744,57.067,123.901,13.488,
00:00:31:783,-0.359,0.551,0.753,2.258,157.714,9.155,
00:00:31:800,-0.339,0.584,0.753,-48.584,177.246,-4.883,
00:00:31:817,-0.329,0.618,0.748,-61.951,174.743,-29.358,
00:00:31:833,-0.325,0.636,0.734,-4.151,171.02,-47.608,
00:00:31:850,-0.304,0.615,0.736,65.612,150.451,-70.923,
00:00:31:867,-0.304,0.598,0.737,125.732,122.07,-94.544,
00:00:31:883,-0.298,0.593,0.76,195.434,105.163,-115.479,
00:00:31:900,-0.284,0.592,0.76,278.442,99.426,-138.367,
00:00:31:917,-0.268,0.559,0.768,314.758,84.899,-164.551,
00:00:31:933,-0.267,0.539,0.758,315.124,78.918,-179.444,
00:00:31:950,-0.253,0.561,0.755,320.007,79.467,-174.561,
00:00:31:967,-0.234,0.584,0.775,354.126,47.729,-193.726,
00:00:31:983,-0.224,0.578,0.762,398.803,30.822,-208.069,
00:00:32:0,-0.23,0.533,0.771,416.259,-1.038,-218.995,
00:00:32:17,-0.252,0.517,0.801,402.893,-35.157,-249.024,
00:00:32:33,-0.258,0.482,0.82,407.959,-18.372,-243.103,
00:00:32:50,-0.245,0.476,0.829,352.539,-30.762,-240.052,
00:00:32:67,-0.229,0.498,0.852,286.193,-40.955,-249.207,
00:00:32:83,-0.228,0.523,0.864,269.287,-53.101,-241.883,
00:00:32:100,-0.213,0.529,0.876,272.949,-60.242,-235.84,
00:00:32:117,-0.211,0.56,0.883,275.39,-74.463,-225.708,
00:00:32:133,-0.216,0.569,0.892,308.349,-76.539,-217.286,
00:00:32:150,-0.214,0.528,0.878,343.322,-76.844,-201.905,
00:00:32:167,-0.219,0.468,0.869,330.383,-89.722,-187.012,
00:00:32:183,-0.231,0.442,0.881,288.269,-93.201,-173.645,
00:00:32:200,-0.242,0.423,0.906,238.891,-90.699,-163.758,
00:00:32:217,-0.241,0.421,0.925,194.885,-87.83,-163.88,
00:00:32:233,-0.243,0.413,0.926,162.292,-88.196,-162.171,
00:00:32:250,-0.251,0.408,0.929,134.399,-81.971,-164.185,
00:00:32:267,-0.254,0.39,0.905,112.732,-75.196,-166.81,
00:00:32:283,-0.252,0.378,0.88,110.962,-67.688,-154.908,
00:00:32:300,-0.236,0.42,0.903,179.26,-74.036,-155.396,
00:00:32:317,-0.234,0.428,0.906,177.673,-69.275,-164.795,
00:00:32:333,-0.229,0.385,0.905,156.372,-71.717,-174.012,
00:00:32:350,-0.22,0.381,0.913,131.958,-61.707,-160.706,
00:00:32:367,-0.211,0.38,0.922,93.505,-66.895,-159.302,
00:00:32:383,-0.215,0.391,0.927,61.035,-86.243,-147.522,
00:00:32:400,-0.232,0.411,0.927,39.123,-105.408,-144.227,
00:00:32:417,-0.24,0.428,0.924,38.635,-105.53,-133.423,
00:00:32:433,-0.241,0.451,0.915,59.448,-108.826,-126.404,
00:00:32:450,-0.243,0.483,0.9,102.722,-114.197,-112.549,
00:00:32:467,-0.254,0.458,0.88,154.724,-145.997,-107.361,
00:00:32:483,-0.29,0.417,0.884,167.907,-171.753,-91.919,
00:00:32:500,-0.307,0.389,0.875,148.742,-158.265,-80.384,
00:00:32:517,-0.31,0.375,0.893,123.718,-142.395,-49.927,
00:00:32:533,-0.318,0.367,0.898,90.698,-125.55,-18.738,
00:00:32:550,-0.317,0.343,0.897,33.752,-103.394,-2.015,
00:00:32:567,-0.327,0.32,0.878,-35.34,-95.276,21.179,
00:00:32:583,-0.343,0.332,0.877,-118.653,-82.886,27.038,
00:00:32:600,-0.38,0.423,0.88,-245.789,-52.063,74.768,
00:00:32:617,-0.399,0.428,0.867,-236.695,-41.443,76.477,
00:00:32:633,-0.41,0.416,0.827,-221.314,-24.353,84.777,
00:00:32:650,-0.414,0.385,0.799,-232.666,-16.053,93.627,
00:00:32:667,-0.423,0.357,0.804,-286.988,-11.292,104.98,
00:00:32:683,-0.427,0.352,0.815,-372.742,7.812,131.591,
00:00:32:700,-0.428,0.37,0.806,-466.736,47.851,146.179,
00:00:32:717,-0.423,0.43,0.797,-527.1,86.975,170.654,
00:00:32:733,-0.414,0.478,0.769,-527.832,113.281,184.143,
00:00:32:750,-0.415,0.486,0.756,-498.658,113.647,187.927,
00:00:32:767,-0.428,0.476,0.724,-468.079,114.135,194.336,
00:00:32:783,-0.437,0.454,0.709,-441.163,118.774,197.509,
00:00:32:800,-0.444,0.431,0.719,-451.05,133.484,195.19,
00:00:32:817,-0.441,0.421,0.747,-485.291,184.692,195.251,
00:00:32:833,-0.429,0.451,0.742,-535.95,205.688,207.58,
00:00:32:850,-0.419,0.501,0.729,-577.454,201.294,187.805,
00:00:32:867,-0.414,0.533,0.728,-543.519,194.519,168.213,
00:00:32:883,-0.414,0.536,0.729,-473.023,188.842,144.592,
00:00:32:900,-0.407,0.53,0.728,-433.838,198.791,128.112,
00:00:32:917,-0.396,0.532,0.731,-388.001,210.205,121.276,
00:00:32:933,-0.386,0.553,0.721,-362.732,215.637,117.614,
00:00:32:950,-0.376,0.568,0.734,-367.615,202.88,82.702,
00:00:32:967,-0.36,0.579,0.749,-312.684,202.209,48.767,
00:00:32:983,-0.347,0.609,0.745,-244.324,204.284,46.386,
00:00:33:0,-0.339,0.65,0.744,-147.644,193.969,31.066,
00:00:33:17,-0.324,0.666,0.754,-43.03,186.889,19.226,
00:00:33:33,-0.299,0.658,0.762,61.34,172.424,12.695,
00:00:33:50,-0.29,0.619,0.759,121.093,156.005,-13.367,
00:00:33:67,-0.286,0.569,0.755,151.001,157.409,-28.077,
00:00:33:83,-0.272,0.523,0.745,158.935,167.907,-37.354,
00:00:33:100,-0.259,0.496,0.746,119.934,167.541,-56.214,
00:00:33:117,-0.249,0.494,0.77,73.364,152.16,-76.233,
00:00:33:133,-0.232,0.492,0.808,13.855,131.042,-112.427,
00:00:33:150,-0.219,0.518,0.836,-37.72,104.126,-135.804,
00:00:33:167,-0.224,0.568,0.839,-50.11,54.26,-148.011,
00:00:33:183,-0.232,0.619,0.839,-23.987,28.93,-161.622,
00:00:33:200,-0.23,0.67,0.825,70.068,-2.076,-169.861,
00:00:33:217,-0.228,0.668,0.82,191.406,-53.528,-199.891,
00:00:33:233,-0.25,0.611,0.802,305.42,-109.375,-218.689,
00:00:33:250,-0.281,0.562,0.803,346.191,-124.634,-234.131,
00:00:33:267,-0.276,0.565,0.797,386.047,-116.578,-238.892,
00:00:33:283,-0.246,0.621,0.806,431.579,-103.333,-234.009,
00:00:33:300,-0.207,0.65,0.816,514.099,-108.155,-232.178,
00:00:33:317,-0.189,0.617,0.819,609.436,-132.63,-254.944,
00:00:33:334,-0.196,0.551,0.82,685.791,-160.645,-244.507,
00:00:33:350,-0.213,0.491,0.842,710.693,-184.998,-241.639,
00:00:33:367,-0.22,0.429,0.884,675.537,-175.66,-226.868,
00:00:33:384,-0.212,0.393,0.918,583.007,-150.94,-220.032,
00:00:33:400,-0.2,0.372,0.943,449.279,-135.437,-203.553,
00:00:33:417,-0.221,0.386,0.947,338.989,-131.165,-183.899,
00:00:33:434,-0.241,0.426,0.93,267.7,-118.348,-172.73,
00:00:33:450,-0.24,0.446,0.919,264.831,-108.155,-166.199,
00:00:33:467,-0.23,0.437,0.917,285.4,-115.723,-161.744,
00:00:33:484,-0.242,0.427,0.91,295.166,-132.752,-153.626,
00:00:33:500,-0.254,0.398,0.916,288.635,-135.743,-141.175,
00:00:33:517,-0.268,0.377,0.909,262.207,-135.071,-124.268,
00:00:33:534,-0.271,0.361,0.914,213.44,-124.695,-105.652,mixRH
00:00:33:550,-0.272,0.35,0.918,146.484,-124.573,-95.154,
00:00:33:567,-0.276,0.364,0.922,93.2,-112.793,-75.806,
00:00:33:584,-0.282,0.379,0.902,68.603,-109.314,-59.998,
00:00:33:600,-0.292,0.378,0.901,70.373,-115.784,-45.289,
00:00:33:617,-0.303,0.353,0.904,60.485,-117.249,-15.748,
00:00:33:634,-0.327,0.327,0.893,12.634,-115.113,-20.142,
00:00:33:650,-0.339,0.321,0.881,-44.739,-100.708,-11.536,
00:00:33:667,-0.345,0.322,0.874,-100.769,-93.995,-2.808,
00:00:33:684,-0.358,0.335,0.86,-139.405,-86.304,7.446,
00:00:33:700,-0.372,0.346,0.856,-153.382,-82.032,23.01,
00:00:33:717,-0.388,0.353,0.836,-167.786,-69.397,29.357,
00:00:33:734,-0.394,0.339,0.819,-221.863,-53.956,62.133,
00:00:33:750,-0.409,0.354,0.818,-289.185,-39.795,78.613,
00:00:33:767,-0.421,0.357,0.813,-354.981,-13.977,102.478,
00:00:33:784,-0.432,0.361,0.804,-427.369,3.723,116.577,
00:00:33:800,-0.445,0.407,0.808,-466.309,29.174,140.014,
00:00:33:817,-0.441,0.418,0.818,-470.337,43.64,162.414,
00:00:33:834,-0.437,0.389,0.831,-495.057,46.264,183.776,
00:00:33:850,-0.469,0.373,0.834,-571.656,43.335,200.988,
00:00:33:867,-0.451,0.385,0.815,-666.504,45.532,205.932,
00:00:33:884,-0.468,0.413,0.782,-739.563,63.598,218.811,
00:00:33:900,-0.482,0.432,0.729,-804.322,75.256,216.308,
00:00:33:917,-0.486,0.415,0.682,-852.662,93.811,192.077,
00:00:33:934,-0.487,0.415,0.636,-933.716,110.717,166.259,
00:00:33:950,-0.489,0.455,0.621,-946.228,154.174,134.948,
00:00:33:967,-0.477,0.57,0.619,-848.694,205.627,125.061,
00:00:33:984,-0.448,0.693,0.632,-681.275,238.891,88.745,
00:00:34:0,-0.41,0.749,0.702,-365.54,236.877,50.354,
00:00:34:17,-0.384,0.717,0.779,-78.98,200.866,33.081,
00:00:34:34,-0.379,0.627,0.834,80.81,161.865,17.028,
00:00:34:50,-0.394,0.585,0.827,162.109,161.621,9.521,
00:00:34:67,-0.384,0.565,0.812,177.917,161.01,-7.386,
00:00:34:84,-0.368,0.543,0.802,205.871,159.484,-44.373,
00:00:34:100,-0.351,0.531,0.789,252.136,150.207,-64.27,
00:00:34:117,-0.34,0.504,0.799,292.846,135.254,-94.91,
00:00:34:134,-0.324,0.487,0.83,289.062,130.188,-124.268,
00:00:34:150,-0.3,0.485,0.848,259.338,116.333,-165.406,
00:00:34:167,-0.28,0.525,0.862,246.643,96.557,-186.463,
00:00:34:184,-0.264,0.598,0.863,279.541,82.214,-219.788,
00:00:34:200,-0.249,0.618,0.862,400.024,53.833,-237.122,
00:00:34:217,-0.244,0.567,0.853,497.497,32.409,-249.329,
00:00:34:234,-0.251,0.483,0.846,532.104,8.606,-261.048,
00:00:34:250,-0.259,0.422,0.851,507.812,0.549,-267.456,
00:00:34:267,-0.252,0.412,0.859,447.448,1.159,-271.668,
00:00:34:284,-0.215,0.435,0.87,404.358,11.108,-275.452,
00:00:34:300,-0.183,0.482,0.881,373.352,-19.654,-288.941,
00:00:34:317,-0.178,0.52,0.885,396.545,-58.594,-300.599,
00:00:34:334,-0.202,0.421,0.879,495.727,-78.736,-289.368,
00:00:34:350,-0.196,0.415,0.886,459.961,-96.375,-274.353,
00:00:34:367,-0.2,0.409,0.91,416.137,-102.051,-255.188,
00:00:34:384,-0.213,0.414,0.933,377.563,-97.413,-235.169,
00:00:34:400,-0.22,0.42,0.937,353.515,-87.159,-223.023,
00:00:34:417,-0.214,0.403,0.916,330.932,-80.018,-203.003,
00:00:34:434,-0.227,0.381,0.904,295.349,-115.662,-179.993,
00:00:34:450,-0.271,0.39,0.923,263.549,-154.175,-125.977,
00:00:34:467,-0.281,0.382,0.918,269.348,-156.617,-108.582,
00:00:34:484,-0.288,0.343,0.92,239.257,-170.166,-102.539,
00:00:34:500,-0.318,0.332,0.924,182.129,-185.914,-93.873,
00:00:34:517,-0.328,0.322,0.927,132.507,-166.748,-74.219,
00:00:34:534,-0.329,0.323,0.917,83.862,-145.508,-53.528,
00:00:34:550,-0.344,0.317,0.92,38.452,-141.175,-29.297,
00:00:34:567,-0.355,0.317,0.908,3.601,-122.681,-8.179,
00:00:34:584,-0.356,0.309,0.897,-34.852,-108.399,17.578,
00:00:34:600,-0.367,0.307,0.885,-72.693,-106.751,39.245,
00:00:34:617,-0.39,0.291,0.862,-112.488,-89.356,70.8,
00:00:34:634,-0.405,0.27,0.857,-168.885,-61.28,95.642,
00:00:34:650,-0.409,0.27,0.842,-267.762,-18.433,113.464,
00:00:34:667,-0.402,0.277,0.832,-361.573,14.648,128.051,
00:00:34:684,-0.417,0.285,0.785,-573.975,98.938,188.964,
00:00:34:700,-0.403,0.301,0.787,-658.997,135.376,209.533,
00:00:34:717,-0.389,0.337,0.799,-722.779,135.131,228.942,
00:00:34:734,-0.397,0.383,0.812,-759.888,137.329,242.126,
00:00:34:750,-0.406,0.428,0.808,-769.471,134.826,230.896,
00:00:34:767,-0.41,0.449,0.798,-753.846,140.075,219.604,
00:00:34:784,-0.404,0.478,0.814,-698.304,159.729,213.867,
00:00:34:800,-0.38,0.506,0.816,-645.63,161.804,204.773,
00:00:34:817,-0.365,0.497,0.835,-585.267,141.784,193.847,
00:00:34:834,-0.378,0.467,0.823,-553.101,116.516,202.27,
00:00:34:850,-0.401,0.455,0.811,-584.534,115.661,188.598,
00:00:34:867,-0.412,0.485,0.785,-605.957,140.747,166.809,
00:00:34:884,-0.386,0.545,0.788,-573.609,160.095,140.869,
00:00:34:900,-0.359,0.566,0.791,-493.103,144.47,100.891,
00:00:34:917,-0.358,0.56,0.77,-388.977,129.699,76.171,
00:00:34:934,-0.36,0.554,0.751,-311.463,118.652,41.565,
00:00:34:950,-0.361,0.548,0.744,-235.962,118.957,-2.625,
00:00:34:967,-0.347,0.575,0.733,-182.801,130.554,-21.973,
00:00:34:984,-0.321,0.609,0.744,-107.605,109.741,-50.415,
00:00:35:0,-0.321,0.619,0.766,-39.612,80.261,-77.271,
00:00:35:17,-0.335,0.605,0.784,10.376,75.805,-112.977,
00:00:35:34,-0.326,0.578,0.783,74.035,114.135,-142.151,
00:00:35:50,-0.284,0.548,0.775,91.064,112.854,-151.307,
00:00:35:67,-0.28,0.532,0.768,62.377,80.627,-171.57,
00:00:35:84,-0.284,0.553,0.77,19.409,70.556,-179.871,
00:00:35:100,-0.283,0.566,0.772,15.441,64.575,-199.341,
00:00:35:117,-0.262,0.568,0.769,28.442,49.194,-218.262,
00:00:35:134,-0.259,0.577,0.767,67.443,10.315,-228.882,
00:00:35:150,-0.273,0.601,0.771,121.338,-15.809,-242.981,
00:00:35:167,-0.274,0.651,0.775,180.114,-25.147,-254.09,
00:00:35:184,-0.258,0.669,0.761,287.597,-25.33,-277.71,
00:00:35:200,-0.249,0.635,0.752,380.371,-53.589,-286.744,
00:00:35:217,-0.242,0.603,0.783,506.103,-63.782,-286.744,
00:00:35:234,-0.206,0.589,0.819,539.856,-80.323,-279.602,
00:00:35:250,-0.201,0.584,0.82,536.255,-101.136,-272.828,
00:00:35:267,-0.208,0.567,0.83,526.123,-111.878,-273.255,
00:00:35:284,-0.202,0.512,0.819,504.15,-124.024,-261.231,
00:00:35:300,-0.212,0.51,0.846,458.618,-151.307,-251.221,
00:00:35:317,-0.211,0.534,0.89,448.425,-151.001,-235.535,
00:00:35:334,-0.203,0.539,0.893,469.482,-153.687,-222.718,
00:00:35:350,-0.209,0.517,0.891,485.473,-168.519,-221.375,
00:00:35:367,-0.236,0.506,0.883,502.075,-184.144,-209.656,
00:00:35:384,-0.26,0.472,0.88,530.578,-187.928,-197.144,
00:00:35:400,-0.268,0.441,0.886,524.963,-187.623,-190.918,
00:00:35:417,-0.288,0.426,0.924,488.159,-197.876,-199.524,
