TIMECODE,ACC_X,ACC_Y,ACC_Z,GYR_X,GYR_Y,GYR_Z,TAG
00:00:00:0,0.552,0.692,0.292,147.033,73.608,-125.855,
00:00:00:16,0.525,0.663,0.327,115.6,65.673,-116.028,
00:00:00:33,0.532,0.692,0.334,89.05,99.304,-115.479,
00:00:00:50,0.569,0.703,0.331,73.12,115.844,-118.958,
00:00:00:66,0.595,0.729,0.352,64.941,110.473,-110.596,
00:00:00:83,0.608,0.748,0.361,68.969,108.581,-105.774,
00:00:00:100,0.614,0.737,0.372,78.064,91.674,-95.765,
00:00:00:116,0.595,0.711,0.355,81.237,66.528,-84.046,
00:00:00:133,0.561,0.658,0.363,57.739,42.419,-69.092,
00:00:00:150,0.546,0.657,0.381,2.624,66.406,-54.81,
00:00:00:166,0.557,0.658,0.355,-48.218,86.669,-47.974,
00:00:00:183,0.544,0.664,0.319,-66.773,75.073,-31.8,
00:00:00:200,0.495,0.656,0.307,-60.364,91.613,-40.772,
00:00:00:216,0.493,0.688,0.314,-42.908,138.061,-63.172,
00:00:00:233,0.534,0.756,0.316,-11.841,182.19,-104.493,
00:00:00:250,0.574,0.802,0.31,18.554,205.871,-135.865,
00:00:00:266,0.59,0.805,0.269,54.992,187.744,-145.02,
00:00:00:283,0.565,0.746,0.304,85.998,166.87,-141.419,
00:00:00:300,0.566,0.732,0.35,84.35,225.341,-140.259,
00:00:00:316,0.64,0.741,0.372,65.979,270.385,-129.578,
00:00:00:333,0.666,0.738,0.337,29.419,254.15,-121.094,
00:00:00:350,0.666,0.758,0.331,33.996,257.507,-96.558,
00:00:00:366,0.687,0.783,0.325,37.475,264.099,-100.953,
00:00:00:383,0.699,0.755,0.306,58.715,280.273,-102.478,
00:00:00:400,0.649,0.713,0.271,3.906,240.661,-136.963,
00:00:00:416,0.591,0.638,0.261,113.952,227.905,-143.25,
00:00:00:433,0.546,0.509,0.261,96.496,244.69,-143.555,
00:00:00:450,0.526,0.53,0.278,-33.936,275.268,-144.349,
00:00:00:466,0.546,0.592,0.282,-144.654,337.707,-167.542,
00:00:00:483,0.6,0.652,0.282,-182.496,364.868,-192.261,
00:00:00:500,0.594,0.66,0.274,-195.679,371.276,-195.618,
00:00:00:516,0.584,0.7,0.26,-198.487,436.401,-196.473,
00:00:00:533,0.645,0.739,0.195,-212.464,499.45,-194.519,
00:00:00:550,0.663,0.761,0.144,-223.328,471.13,-177.124,
00:00:00:566,0.649,0.755,0.088,-208.619,451.721,-166.565,
00:00:00:583,0.685,0.737,0.069,-172.181,448.913,-154.053,
00:00:00:600,0.705,0.732,0.039,-123.047,436.584,-155.762,
00:00:00:616,0.697,0.71,0.017,-48.584,447.631,-163.086,
00:00:00:633,0.686,0.671,0.017,24.475,465.149,-193.909,
00:00:00:650,0.685,0.646,0.009,63.049,477.539,-211.792,
00:00:00:666,0.68,0.619,0.011,97.229,484.741,-233.338,
00:00:00:683,0.685,0.569,-0.004,91.552,513.794,-246.888,
00:00:00:700,0.718,0.577,-0.039,62.744,546.936,-270.386,
00:00:00:716,0.773,0.611,-0.046,36.865,562.744,-279.847,
00:00:00:733,0.809,0.647,-0.051,25.94,567.627,-281.067,
00:00:00:750,0.836,0.67,-0.062,54.321,542.846,-279.053,
00:00:00:766,0.857,0.676,-0.063,110.107,519.531,-296.265,
00:00:00:783,0.881,0.654,-0.069,166.992,492.736,-316.712,
00:00:00:800,0.89,0.645,-0.067,234.13,467.285,-349.427,
00:00:00:816,0.897,0.648,-0.075,288.147,455.871,-373.291,
00:00:00:833,0.963,0.701,0.002,728.271,567.321,-525.818,
00:00:00:850,1.049,0.721,-0.053,818.298,646.606,-559.876,
00:00:00:866,1.148,0.697,-0.116,881.591,565.734,-627.503,
00:00:00:883,1.181,0.571,-0.093,865.6,369.873,-635.56,
00:00:00:900,1.149,0.457,-0.003,798.645,229.98,-581.36,
00:00:00:916,1.162,0.397,0.118,690.185,155.212,-492.31,
00:00:00:933,1.282,0.474,0.278,565.307,127.319,-396.424,
00:00:00:950,1.36,0.504,0.253,370.971,-2.625,-230.408,
00:00:00:966,1.205,0.49,0.318,94.421,-98.999,-93.201,
00:00:00:983,0.937,0.419,0.276,-162.11,-100.098,-51.697,
00:00:01:0,0.799,0.378,0.238,-405.823,-60.12,-6.287,
00:00:01:16,0.774,0.423,0.184,-618.47,-71.717,88.256,
00:00:01:33,0.729,0.509,0.151,-761.048,-139.649,237.976,
00:00:01:50,0.656,0.608,0.087,-757.691,-212.647,347.717,
00:00:01:66,0.574,0.643,0.081,-572.083,-260.987,408.813,
00:00:01:83,0.521,0.566,0.063,-422.547,-232.85,450.866,
00:00:01:100,0.492,0.524,-0.029,-343.811,-151.673,502.807,
00:00:01:116,0.446,0.505,-0.038,-276.551,-16.846,536.682,
00:00:01:133,0.413,0.46,-0.086,-189.82,145.446,537.536,
00:00:01:150,0.396,0.417,-0.132,-98.755,332.58,550.293,
00:00:01:166,0.412,0.403,-0.158,-43.763,493.774,552.856,
00:00:01:183,0.554,0.404,-0.149,-66.102,521.85,470.276,
00:00:01:200,0.721,0.408,-0.107,-132.203,392.944,338.745,
00:00:01:216,0.811,0.42,-0.076,-124.878,225.402,259.155,
00:00:01:233,0.797,0.462,-0.074,-25.696,8.361,132.507,
00:00:01:250,0.783,0.443,-0.035,96.13,-174.805,-92.957,
00:00:01:266,0.733,0.296,0.007,199.401,-257.813,-269.837,
00:00:01:283,0.71,0.204,-0.001,237.426,-254.761,-389.466,
00:00:01:300,0.733,0.167,-0.043,254.455,-229.004,-463.99,
00:00:01:316,0.765,0.158,-0.093,265.197,-206.421,-521.973,
00:00:01:333,0.796,0.142,-0.122,216.674,-213.501,-588.562,
00:00:01:350,0.835,0.121,-0.128,148.864,-217.957,-649.537,
00:00:01:366,0.875,0.125,-0.139,55.297,-215.638,-704.041,
00:00:01:383,0.911,0.136,-0.155,-51.331,-214.295,-742.798,
00:00:01:400,0.945,0.146,-0.162,-147.522,-222.107,-784.119,
00:00:01:416,0.968,0.151,-0.154,-223.938,-217.774,-816.59,
00:00:01:433,0.998,0.152,-0.125,-283.814,-187.989,-853.028,
00:00:01:450,1.023,0.153,-0.113,-320.069,-137.33,-887.757,
00:00:01:466,1.045,0.161,-0.092,-343.018,-93.201,-918.702,
00:00:01:483,1.061,0.179,-0.07,-358.46,-27.527,-963.135,
00:00:01:500,1.095,0.186,-0.063,-369.019,48.034,-997.498,
00:00:01:516,1.128,0.212,-0.088,-384.156,100.525,-1027.649,
00:00:01:533,1.14,0.229,-0.118,-380.799,111.145,-1043.519,
00:00:01:550,1.103,0.246,-0.112,-348.328,95.947,-1024.048,
00:00:01:566,1.06,0.265,-0.098,-310.12,97.9,-999.268,
00:00:01:583,1.017,0.276,-0.079,-244.385,117.675,-957.093,
00:00:01:600,1.011,0.28,-0.047,-171.631,157.409,-904.175,
00:00:01:616,1.046,0.273,-0.026,-83.313,228.881,-855.225,
00:00:01:633,1.113,0.262,-0.004,20.813,300.842,-797.425,
00:00:01:650,1.189,0.282,0.012,113.403,352.111,-732.239,
00:00:01:666,1.237,0.316,0.012,197.937,385.742,-677.369,
00:00:01:683,1.241,0.356,-0.04,250.732,362.854,-621.705,
00:00:01:700,1.17,0.366,-0.104,275.39,284.607,-557.435,
00:00:01:716,1.071,0.363,-0.118,286.01,146.789,-495.85,
00:00:01:733,0.938,0.305,-0.023,418.213,19.714,-284.424,
00:00:01:750,0.936,0.282,-0.007,468.689,10.742,-192.81,
00:00:01:766,0.936,0.283,0.01,511.108,-6.287,-109.62,
00:00:01:783,0.936,0.299,0.035,553.222,-20.569,-56.641,
00:00:01:800,0.873,0.307,0.032,674.377,-133.912,50.231,
00:00:01:816,0.854,0.309,0.016,709.716,-174.805,75.195,
00:00:01:833,0.848,0.291,0.007,743.774,-232.239,98.571,
00:00:01:850,0.855,0.253,0.009,772.094,-291.321,148.437,
00:00:01:866,0.879,0.215,-0.001,775.879,-326.416,211.975,
00:00:01:883,0.946,0.175,-0.02,764.892,-363.587,279.968,
00:00:01:900,1.018,0.14,-0.041,726.867,-413.086,359.68,
00:00:01:916,1.118,0.098,-0.061,666.809,-482.3,436.096,
00:00:01:933,1.246,0.029,-0.056,567.138,-548.645,525.085,
00:00:01:950,1.383,-0.055,-0.116,381.652,-607.911,642.944,
00:00:01:966,1.49,-0.158,-0.269,92.102,-731.568,825.561,
00:00:01:983,1.494,-0.23,-0.388,-269.165,-949.158,1046.753,
00:00:02:0,1.394,-0.224,-0.396,-663.88,-1159.974,1253.967,
00:00:02:16,1.28,-0.172,-0.353,-991.456,-1225.892,1434.448,
00:00:02:33,1.206,-0.121,-0.303,-1244.324,-1175.354,1563.232,
00:00:02:50,1.134,-0.048,-0.249,-1350.464,-1070.801,1655.944,
00:00:02:66,1.077,0.045,-0.156,-1320.191,-934.876,1666.687,
00:00:02:83,1.039,0.126,-0.067,-1191.407,-732.422,1584.411,
00:00:02:100,1.089,0.14,-0.051,-844.178,-356.446,1205.261,
00:00:02:116,1.082,0.03,-0.184,-722.718,-262.574,971.252,
00:00:02:133,1,-0.034,-0.186,-587.281,-332.215,750.793,
00:00:02:150,0.871,0.017,-0.102,-522.156,-332.703,489.929,
00:00:02:166,0.764,0.138,-0.026,-463.074,-285.523,233.093,
00:00:02:183,0.709,0.287,0.12,-314.942,-194.642,-42.359,
00:00:02:200,0.691,0.353,0.26,-106.934,-25.635,-310.608,
00:00:02:216,0.688,0.353,0.321,189.636,234.802,-504.578,
00:00:02:233,0.741,0.265,0.27,433.044,482.36,-641.785,
00:00:02:250,0.784,0.164,0.153,634.521,620.91,-700.745,
00:00:02:266,0.804,0.041,0.009,731.506,639.099,-699.036,
00:00:02:283,0.789,-0.038,-0.106,674.438,536.56,-659.974,
00:00:02:300,0.713,-0.095,-0.193,472.046,334.716,-603.272,
00:00:02:316,0.627,-0.102,-0.221,224.914,136.169,-579.041,
00:00:02:333,0.6,-0.07,-0.155,43.823,31.066,-610.535,
00:00:02:350,0.623,-0.008,-0.036,-90.21,4.76,-657.959,
00:00:02:366,0.652,0.049,0.062,-185.242,34.362,-704.773,
00:00:02:383,0.697,0.106,0.129,-252.198,119.934,-767.64,
00:00:02:400,0.739,0.153,0.161,-307.312,228.454,-864.624,
00:00:02:416,0.796,0.196,0.134,-365.906,361.511,-976.929,
00:00:02:433,0.976,0.224,0.055,-423.157,510.864,-1214.783,
00:00:02:450,1.031,0.226,0.03,-403.748,528.869,-1267.273,
00:00:02:466,1.064,0.24,0.052,-364.808,531.494,-1283.875,
00:00:02:483,1.071,0.255,0.082,-341.126,562.255,-1294.617,
00:00:02:500,1.112,0.341,0.167,-230.835,615.234,-1248.841,
00:00:02:516,1.169,0.386,0.266,-115.601,714.294,-1230.408,
00:00:02:533,1.195,0.389,0.235,-18.372,858.093,-1135.56,
00:00:02:550,1.269,0.393,0.172,51.391,926.941,-1021.058,
00:00:02:566,1.364,0.383,0.123,117.187,954.284,-897.644,
00:00:02:583,1.549,0.34,0.053,227.6,1011.84,-790.284,
00:00:02:600,1.805,0.283,-0.094,302.734,993.591,-646.973,
00:00:02:616,1.862,0.17,-0.209,280.212,638.61,-392.64,
00:00:02:633,1.597,0.134,-0.1,164.001,198.913,-135.071,
00:00:02:650,1.214,0.144,0.003,-39.917,-124.573,93.322,
00:00:02:666,0.982,0.139,0.089,-188.782,-246.644,212.707,
00:00:02:683,0.884,0.131,0.132,-304.2,-195.862,278.198,
00:00:02:700,0.967,0.152,0.123,-371.949,-113.465,349.914,
00:00:02:716,1.067,0.198,0.063,-392.09,-125.916,416.381,
00:00:02:733,1.166,0.263,0.01,-351.685,-252.747,472.717,
00:00:02:750,1.198,0.347,-0.011,-251.831,-380.921,497.802,
00:00:02:766,1.188,0.431,-0.045,-87.159,-490.54,495.788,
00:00:02:783,1.154,0.46,-0.111,111.328,-589.905,457.519,
00:00:02:800,1.116,0.434,-0.139,377.746,-708.13,410.095,
00:00:02:816,1.072,0.372,-0.142,643.371,-772.278,371.887,
00:00:02:833,0.998,0.267,-0.119,804.931,-829.59,364.685,
00:00:02:850,0.924,0.154,-0.084,825.5,-848.023,404.297,
00:00:02:866,0.873,0.087,-0.058,774.047,-815.857,472.046,
00:00:02:883,0.882,0.022,-0.031,634.704,-749.146,544.616,
00:00:02:900,0.928,-0.005,-0.034,498.962,-682.068,632.629,
00:00:02:916,0.961,-0.004,-0.075,347.595,-640.686,739.257,
00:00:02:933,0.968,0.029,-0.108,219.482,-648.133,828.674,
00:00:02:950,0.959,0.051,-0.107,87.585,-661.805,880.188,
00:00:02:966,0.955,0.061,-0.119,-69.825,-640.686,908.02,
00:00:02:983,0.973,0.064,-0.134,-160.157,-628.235,921.325,
00:00:03:0,1.013,0.073,-0.125,-235.718,-615.845,919.677,
00:00:03:16,1.054,0.082,-0.123,-263.733,-584.046,911.01,
00:00:03:33,1.09,0.085,-0.144,-284.058,-553.711,895.691,
00:00:03:50,1.099,0.083,-0.177,-305.848,-551.697,870.178,
00:00:03:66,1.009,0.085,-0.174,-363.709,-569.458,781.128,
00:00:03:83,0.979,0.091,-0.135,-388.733,-534.974,708.984,
00:00:03:100,0.989,0.097,-0.109,-406.495,-451.416,611.755,
00:00:03:116,1.06,0.095,-0.15,-442.139,-323.853,483.398,
00:00:03:133,1.124,0.09,-0.258,-513.611,-256.165,360.534,
00:00:03:150,1.062,0.132,-0.299,-589.722,-305.115,243.835,
00:00:03:166,0.885,0.228,-0.15,-594.056,-336.243,134.826,
00:00:03:183,0.648,0.359,0.082,-499.024,-266.846,27.16,
00:00:03:200,0.437,0.541,0.464,-284.607,-5.616,-149.048,
00:00:03:216,0.393,0.59,0.477,6.958,521.179,-320.679,
00:00:03:233,0.647,0.564,0.402,364.929,880.615,-522.767,
00:00:03:250,0.806,0.494,0.312,628.479,1091.98,-612.122,
00:00:03:266,0.921,0.376,0.222,825.622,1238.342,-640.259,
00:00:03:283,1.04,0.273,0.126,842.163,1221.191,-623.169,
00:00:03:300,1.106,0.199,0.03,662.963,1073.547,-538.88,
00:00:03:316,1.114,0.186,-0.033,442.566,752.807,-392.945,
00:00:03:333,1.083,0.202,-0.025,223.938,448.608,-263.428,
00:00:03:350,1.018,0.179,0.007,45.166,171.325,-118.103,
00:00:03:366,0.959,0.127,0.042,-173.706,-20.142,58.776,
00:00:03:383,0.911,0.099,0.072,-436.341,-160.706,216.43,
00:00:03:400,0.895,0.164,0.118,-715.821,-256.531,384.643,
00:00:03:416,0.83,0.352,0.131,-1206.604,-379.273,620.178,
00:00:03:433,0.796,0.464,0.125,-1412.171,-375.916,668.335,
00:00:03:450,0.765,0.562,0.104,-1555.054,-354.004,694.458,
00:00:03:466,0.751,0.659,0.088,-1617.188,-336.365,715.088,
00:00:03:483,0.716,0.741,0.053,-1653.26,-321.228,723.388,
00:00:03:500,0.655,0.795,0.018,-1670.716,-326.722,736.328,
00:00:03:516,0.58,0.862,-0.014,-1657.837,-331.238,738.22,
00:00:03:533,0.526,0.976,-0.027,-1569.642,-338.807,724.731,
00:00:03:550,0.491,1.076,-0.024,-1374.451,-341.553,677.734,
00:00:03:566,0.468,1.127,-0.041,-1098.267,-315.613,606.079,
00:00:03:583,0.468,1.113,-0.079,-849.427,-296.692,530.517,
00:00:03:600,0.473,1.05,-0.116,-635.254,-318.238,485.412,
00:00:03:616,0.465,0.976,-0.141,-496.155,-366.578,454.956,
00:00:03:633,0.438,0.892,-0.153,-444.092,-404.419,442.627,
00:00:03:650,0.415,0.834,-0.116,-421.936,-428.65,412.475,
00:00:03:666,0.415,0.848,-0.123,-478.028,-365.296,348.877,
00:00:03:683,0.53,0.911,-0.15,-556.702,-267.212,271.423,
00:00:03:700,0.665,0.959,-0.206,-556.824,-247.071,206.604,
00:00:03:716,0.704,0.961,-0.245,-461.914,-314.087,189.148,
00:00:03:733,0.621,0.907,-0.236,-348.206,-364.075,172.668,
00:00:03:750,0.533,0.825,-0.209,-178.406,-353.76,184.875,
00:00:03:766,0.503,0.727,-0.192,-47.364,-286.499,197.448,
00:00:03:783,0.526,0.609,-0.182,13.61,-215.394,220.153,
00:00:03:800,0.565,0.52,-0.175,15.991,-167.725,240.478,
00:00:03:816,0.585,0.459,-0.174,-37.598,-138.428,235.412,
00:00:03:833,0.64,0.485,-0.19,-143.311,-115.296,196.594,
00:00:03:850,0.75,0.545,-0.254,-252.564,-151.734,149.536,
00:00:03:866,0.828,0.599,-0.323,-306.946,-289.307,116.027,
00:00:03:883,0.808,0.629,-0.287,-305.603,-500.611,86.975,
00:00:03:900,0.725,0.605,-0.142,-331.36,-628.113,59.57,
00:00:03:916,0.646,0.575,-0.057,-376.954,-630.066,35.095,
00:00:03:933,0.598,0.555,-0.002,-429.261,-545.289,29.052,
00:00:03:950,0.614,0.573,-0.02,-439.209,-478.943,38.147,
00:00:03:966,0.627,0.591,-0.028,-378.418,-460.694,59.631,
00:00:03:983,0.597,0.624,-0.014,-254.7,-443.482,73.181,
00:00:04:0,0.594,0.603,-0.003,-97.901,-418.763,67.077,
00:00:04:16,0.608,0.588,-0.043,31.982,-364.014,47.119,
00:00:04:33,0.656,0.549,-0.091,86.425,-337.464,15.808,
00:00:04:50,0.683,0.582,-0.132,18.493,-324.402,-7.63,
00:00:04:66,0.74,0.628,-0.138,-83.741,-346.558,-33.387,
00:00:04:83,0.767,0.669,-0.164,-151.856,-384.522,-40.039,
00:00:04:100,0.783,0.682,-0.166,-155.884,-445.679,-26.856,
00:00:04:116,0.772,0.67,-0.193,-139.161,-489.319,1.892,
00:00:04:133,0.768,0.628,-0.206,-164.368,-556.824,37.475,
00:00:04:150,0.775,0.616,-0.172,-265.748,-652.405,61.889,
00:00:04:166,0.639,0.666,-0.096,-600.403,-760.315,121.765,
00:00:04:183,0.639,0.692,-0.14,-732.85,-729.554,98.449,
00:00:04:200,0.768,0.72,-0.218,-866.7,-732.056,54.565,
00:00:04:216,0.856,0.699,-0.36,-1003.785,-865.479,50.231,
00:00:04:233,0.832,0.726,-0.452,-1123.536,-1080.75,92.834,
00:00:04:250,0.708,0.83,-0.416,-1265.137,-1294.861,122.253,
00:00:04:266,0.466,0.908,-0.223,-1322.266,-1341.309,135.986,
00:00:04:283,0.238,0.869,-0.13,-1226.014,-1140.748,148.01,
00:00:04:300,0.262,0.828,-0.098,-1059.876,-953.003,161.682,
00:00:04:316,0.315,0.835,-0.074,-867.31,-844.117,190.979,
00:00:04:333,0.364,0.848,-0.061,-609.436,-765.381,192.016,
00:00:04:350,0.477,0.83,-0.079,-381.348,-720.765,126.526,
00:00:04:366,0.625,0.787,-0.134,-183.35,-735.901,86.12,
00:00:04:383,0.652,0.755,-0.127,-37.293,-737.671,82.763,
00:00:04:400,0.628,0.773,-0.047,125.976,-700.074,70.739,
00:00:04:416,0.603,0.732,0.01,285.095,-615.906,78.979,
00:00:04:433,0.556,0.672,0.029,435.669,-537.781,88.44,
00:00:04:450,0.546,0.687,0.002,450.805,-494.324,79.956,
00:00:04:466,0.6,0.722,-0.029,371.46,-510.865,15.075,
00:00:04:483,0.684,0.766,-0.02,266.967,-566.224,-47.181,
00:00:04:500,0.692,0.725,0.046,213.134,-613.099,-47.73,
00:00:04:516,0.688,0.755,0.063,181.518,-625.428,18.188,
00:00:04:533,0.676,0.767,0.089,170.166,-635.498,60.607,
00:00:04:550,0.651,0.707,0.066,207.275,-639.1,98.999,
00:00:04:566,0.662,0.696,0.023,193.908,-677.796,101.379,
00:00:04:583,0.568,0.701,0.1,260.681,-701.539,72.387,
00:00:04:600,0.527,0.712,0.237,457.031,-595.398,50.354,
00:00:04:616,0.527,0.817,0.231,529.052,-569.825,80.627,
00:00:04:633,0.489,0.822,0.287,578.918,-519.593,84.655,
00:00:04:650,0.523,0.791,0.321,538.818,-459.717,74.34,
00:00:04:666,0.519,0.841,0.339,474.67,-402.894,66.711,
00:00:04:683,0.518,0.806,0.364,509.643,-344.544,49.56,
00:00:04:700,0.521,0.811,0.369,623.962,-320.435,3.723,
00:00:04:716,0.553,0.818,0.357,803.466,-296.936,-56.092,
00:00:04:733,0.621,0.729,0.412,735.29,-274.72,-184.998,
00:00:04:750,0.654,0.689,0.493,477.356,-278.443,-322.327,
00:00:04:766,0.597,0.696,0.525,263.427,-267.64,-422.791,
00:00:04:783,0.415,0.682,0.496,-125.306,-201.233,-386.292,
00:00:04:800,0.437,0.716,0.426,-104.798,-183.655,-349.732,
00:00:04:816,0.453,0.578,0.418,-57.74,-163.086,-297.486,
00:00:04:833,0.48,0.474,0.437,-5.921,-164.734,-266.175,
00:00:04:850,0.529,0.522,0.506,155.09,-175.171,-270.63,
00:00:04:866,0.648,0.671,0.547,412.597,-209.351,-282.227,
00:00:04:883,0.627,0.506,0.604,611.755,-222.352,-355.408,
00:00:04:900,0.663,0.485,0.663,491.882,-239.808,-298.462,
00:00:04:916,0.637,0.503,0.659,441.284,-176.392,-316.773,
00:00:04:933,0.69,0.5,0.621,331.298,-166.199,-335.938,
00:00:04:950,0.603,0.415,0.604,195.068,-141.114,-356.08,
00:00:04:966,0.542,0.351,0.633,-79.895,-118.592,-331.971,
00:00:04:983,0.588,0.389,0.674,-389.222,-121.094,-307.679,
00:00:05:0,0.642,0.56,0.659,-626.831,-146.363,-259.034,
00:00:05:16,0.585,0.601,0.643,-751.709,-166.565,-223.633,
00:00:05:33,0.585,0.55,0.627,-814.942,-203.614,-197.998,
00:00:05:50,0.587,0.521,0.568,-895.325,-243.409,-146.546,
00:00:05:66,0.54,0.556,0.513,-930.176,-268.311,-105.774,
00:00:05:83,0.524,0.563,0.485,-911.072,-261.475,-89.844,
00:00:05:100,0.479,0.537,0.435,-930.42,-190.552,-117.127,
00:00:05:116,0.501,0.541,0.381,-920.716,-179.566,-100.281,
00:00:05:133,0.532,0.582,0.354,-881.348,-231.507,-67.383,
00:00:05:150,0.499,0.533,0.371,-820.435,-295.899,-26.185,
00:00:05:166,0.512,0.643,0.478,-730.347,-317.81,-18.555,
00:00:05:183,0.492,0.836,0.473,-589.234,-303.04,-94.178,
00:00:05:200,0.467,0.787,0.374,-529.664,-336.365,-134.278,
00:00:05:216,0.441,0.587,0.339,-553.833,-408.57,-155.396,
00:00:05:233,0.386,0.612,0.475,-585.694,-440.125,-167.115,
00:00:05:250,0.403,0.82,0.532,-592.835,-385.926,-210.389,
00:00:05:266,0.415,0.924,0.496,-607.544,-342.286,-208.619,
00:00:05:283,0.394,0.89,0.411,-779.664,-326.905,-168.824,
00:00:05:300,0.396,0.818,0.244,-1208.069,-306.885,-151.612,
00:00:05:316,0.415,0.872,0.19,-1043.946,-341.675,-120.85,
00:00:05:333,0.423,0.924,0.206,-777.283,-348.023,-122.437,
00:00:05:350,0.458,0.867,0.158,-505.31,-341.187,-118.409,
00:00:05:366,0.527,0.776,0.135,-433.228,-351.929,-129.7,
00:00:05:383,0.527,0.747,0.149,-451.233,-379.151,-101.197,
00:00:05:400,0.483,0.821,0.164,-428.65,-338.257,-79.59,
00:00:05:416,0.503,0.815,0.173,-436.524,-322.327,-84.717,
00:00:05:433,0.483,0.761,0.216,-399.048,-340.821,-70.74,
00:00:05:450,0.481,0.902,0.342,-374.146,-350.22,-55.481,
00:00:05:466,0.497,1.009,0.259,-183.777,-363.831,-80.872,
00:00:05:483,0.428,0.77,0.258,-56.702,-368.103,-101.075,
00:00:05:500,0.444,0.638,0.275,-238.099,-297.12,-78.492,
00:00:05:516,0.508,0.725,0.271,-360.718,-247.925,-81.36,
00:00:05:533,0.546,0.96,0.235,-229.187,-234.803,-71.473,
00:00:05:550,0.474,0.751,0.227,-86.548,-189.087,-49.683,
00:00:05:566,0.454,0.676,0.28,-129.334,-163.88,-12.635,
00:00:05:583,0.49,0.807,0.257,-158.753,-158.204,3.295,
00:00:05:600,0.516,0.797,0.21,-142.579,-166.504,13.855,
00:00:05:616,0.534,0.761,0.154,-140.931,-175.11,42.358,
00:00:05:633,0.488,0.755,0.133,-255.188,-214.6,142.7,
00:00:05:650,0.467,0.741,0.121,-228.15,-252.076,169.189,
00:00:05:666,0.455,0.774,0.156,-225.892,-280.823,180.114,
00:00:05:683,0.421,0.728,0.1,-285.157,-306.702,206.787,
00:00:05:700,0.416,0.813,0.153,-311.524,-345.154,188.781,
00:00:05:716,0.413,0.861,0.142,-399.598,-361.206,201.843,
00:00:05:733,0.405,0.887,0.202,-439.881,-386.353,190.368,
00:00:05:750,0.362,0.981,0.177,-482.666,-390.259,202.514,
00:00:05:766,0.307,0.971,0.155,-409.852,-400.391,176.574,
00:00:05:783,0.293,0.917,0.126,-386.353,-362.305,152.221,
00:00:05:800,0.328,0.871,0.157,-367.249,-326.111,124.633,
00:00:05:816,0.375,0.982,0.095,-364.991,-329.651,144.531,
00:00:05:833,0.346,0.991,0.044,-227.784,-362.183,126.281,
00:00:05:850,0.315,0.966,0.053,-111.817,-353.699,114.685,
00:00:05:866,0.328,0.931,0.086,-8.301,-317.688,121.765,
00:00:05:883,0.349,0.88,0.151,71.228,-285.584,114.929,
00:00:05:900,0.333,0.852,0.14,26.733,-241.517,132.446,
00:00:05:916,0.364,0.974,0.151,38.513,-224.183,143.493,
00:00:05:933,0.34,0.937,0.215,36.743,-214.295,108.642,
00:00:05:950,0.283,0.863,0.195,14.16,-187.5,138.855,
00:00:05:966,0.249,0.855,0.124,-22.767,-196.839,163.147,
00:00:05:983,0.251,0.914,0.173,-5.86,-224.244,150.695,
00:00:06:0,0.26,0.969,0.216,19.104,-224.305,116.088,
00:00:06:16,0.286,0.967,0.193,-2.625,-208.008,100.219,
00:00:06:33,0.31,0.947,0.147,-59.571,-202.637,84.35,
00:00:06:50,0.295,0.996,0.149,-74.585,-222.229,90.454,
00:00:06:66,0.294,0.973,0.157,-65.491,-213.196,83.618,
00:00:06:83,0.413,0.999,0.169,-114.136,-134.583,59.875,
00:00:06:100,0.593,1.098,0.13,-158.265,-90.638,69.213,
00:00:06:116,0.788,1.213,0.034,-116.15,-137.513,109.924,
00:00:06:133,0.83,1.156,-0.034,70.922,-328.553,209.716,
00:00:06:150,0.653,1.073,-0.03,350.28,-577.454,302.307,
00:00:06:166,0.421,0.881,0.035,552.917,-746.033,350.769,
00:00:06:183,0.251,0.777,0.13,533.447,-751.099,439.392,
00:00:06:200,0.157,0.702,0.248,403.198,-683.716,424.072,
00:00:06:216,0.09,0.748,0.253,268.371,-598.694,459.533,
00:00:06:233,-0.136,0.841,0.219,68.786,-511.963,284.851,
00:00:06:250,-0.141,0.899,0.191,77.697,-461.487,193.542,
00:00:06:266,-0.162,0.937,0.207,143.31,-452.088,119.629,
00:00:06:283,-0.189,0.993,0.21,236.938,-418.091,76.11,
00:00:06:300,-0.196,1.023,0.212,319.763,-388.794,19.104,
00:00:06:316,-0.166,1.043,0.237,396.179,-345.643,-17.762,
00:00:06:333,-0.132,1.019,0.242,488.464,-335.083,-19.593,
00:00:06:350,-0.149,0.971,0.303,498.291,-347.168,-44.8,
00:00:06:366,-0.185,0.939,0.377,498.596,-327.576,-39.856,
00:00:06:383,-0.172,0.92,0.418,459.35,-279.48,-40.467,
00:00:06:400,-0.243,0.826,0.427,256.836,-232.239,-31.739,
00:00:06:416,-0.185,0.779,0.45,87.768,-139.1,-33.936,
00:00:06:433,-0.086,0.837,0.455,-94.849,-95.826,-44.373,
00:00:06:450,-0.03,0.875,0.465,-253.785,-108.887,-53.162,
00:00:06:466,-0.019,0.833,0.492,-316.102,-103.638,-11.78,
00:00:06:483,-0.009,0.745,0.448,-417.969,-51.514,47.546,
00:00:06:500,-0.012,0.735,0.392,-566.956,-47.73,93.994,
00:00:06:516,-0.044,0.749,0.372,-749.329,-53.589,87.036,
00:00:06:533,-0.058,0.773,0.355,-922.913,-37.171,83.19,
00:00:06:550,-0.043,0.846,0.336,-1005.738,-37.354,103.637,
00:00:06:566,-0.046,0.892,0.286,-977.784,-62.989,96.557,
00:00:06:583,-0.104,0.853,0.256,-966.492,-104.371,89.66,
00:00:06:600,-0.168,0.868,0.243,-929.261,-85.45,80.566,
00:00:06:616,-0.147,0.922,0.179,-875.306,-43.641,96.008,
00:00:06:633,-0.104,0.984,0.136,-786.622,-83.863,110.168,
00:00:06:650,-0.116,1.023,0.113,-713.257,-159.241,84.961,
00:00:06:666,-0.144,1.095,0.139,-534.79,-207.459,38.635,
00:00:06:683,-0.1,1.098,0.099,-59.876,-195.008,50.842,
00:00:06:700,-0.145,0.991,0.111,95.336,-210.755,81.298,
00:00:06:716,-0.115,0.989,0.088,74.157,-178.833,106.933,
00:00:06:733,-0.072,1.015,0.09,7.202,-181.275,119.445,
00:00:06:750,-0.103,1.064,0.112,3.54,-191.102,101.684,
00:00:06:766,-0.157,1.062,0.153,26.306,-158.387,99.67,
00:00:06:783,-0.167,1.028,0.122,104.98,-107.544,88.562,
00:00:06:800,-0.196,0.947,0.104,149.353,-13.55,121.704,
00:00:06:816,-0.214,0.947,0.143,144.226,-26.307,98.693,
00:00:06:833,-0.259,0.947,0.166,153.808,-3.907,98.083,
00:00:06:850,-0.273,0.966,0.184,145.568,33.569,92.346,
00:00:06:866,-0.262,0.951,0.151,139.587,85.998,68.847,
00:00:06:883,-0.256,0.959,0.085,169.677,90.759,54.809,
00:00:06:900,-0.235,0.881,0.118,120.3,61.462,80.383,
00:00:06:916,-0.253,0.927,0.13,134.582,30.395,102.478,
00:00:06:933,-0.242,0.901,0.164,190.368,32.959,127.807,
00:00:06:950,-0.23,0.882,0.16,172.607,21.545,152.16,
00:00:06:966,-0.256,0.906,0.188,88.256,10.192,138.366,
00:00:06:983,-0.281,0.936,0.185,95.092,17.517,143.921,
00:00:07:0,-0.302,0.888,0.19,-12.452,31.311,118.591,
00:00:07:16,-0.293,0.892,0.201,-59.082,31.311,97.717,
00:00:07:33,-0.311,0.904,0.194,-62.012,48.4,99.975,
00:00:07:50,-0.315,0.86,0.161,-75.257,76.477,105.468,
00:00:07:66,-0.314,0.899,0.18,-145.508,98.938,131.103,
00:00:07:83,-0.333,0.898,0.195,-134.583,112.854,122.863,
00:00:07:100,-0.327,0.871,0.174,-74.219,126.464,125.793,
00:00:07:116,-0.3,0.854,0.153,-80.262,125.61,161.682,
00:00:07:133,-0.341,0.943,0.211,-46.998,80.139,84.777,
00:00:07:150,-0.298,0.97,0.168,106.506,35.217,100.097,
00:00:07:166,-0.237,0.939,0.173,52.307,-11.902,86.608,
00:00:07:183,-0.294,0.937,0.21,13.305,-71.106,13.794,
00:00:07:200,-0.308,0.943,0.276,105.529,-67.017,24.841,
00:00:07:216,-0.318,0.987,0.263,216.613,-32.227,77.087,
00:00:07:233,-0.346,0.897,0.239,70.983,1.892,95.214,
00:00:07:250,-0.392,0.927,0.298,40.71,40.71,113.952,
00:00:07:266,-0.397,0.928,0.311,36.987,71.716,131.53,
00:00:07:283,-0.392,0.967,0.304,128.112,101.379,72.326,
00:00:07:300,-0.36,0.937,0.295,246.826,107.971,53.222,
00:00:07:316,-0.37,0.823,0.254,257.568,88.989,36.682,
00:00:07:333,-0.405,0.843,0.276,220.459,72.753,84.289,
00:00:07:350,-0.364,0.924,0.306,198.791,26.306,96.313,
00:00:07:366,-0.35,0.892,0.341,164.367,-13.428,149.658,
00:00:07:383,-0.417,0.897,0.325,90.087,-43.519,123.596,
00:00:07:400,-0.428,0.86,0.339,78.186,-58.716,117.553,
00:00:07:416,-0.423,0.868,0.318,-6.409,-80.75,139.038,
00:00:07:433,-0.436,0.892,0.319,-77.149,-85.877,117.675,
00:00:07:450,-0.439,0.982,0.295,-90.76,-90.332,94.726,
00:00:07:466,-0.479,0.997,0.326,-3.113,-145.935,80.871,
00:00:07:483,-0.472,1.001,0.319,220.825,-200.562,98.693,
00:00:07:500,-0.476,0.888,0.328,260.62,-209.595,140.625,
00:00:07:516,-0.47,0.969,0.32,186.096,-189.515,190.612,
00:00:07:533,-0.513,0.901,0.353,50.598,-208.985,232.544,
00:00:07:550,-0.578,0.96,0.345,63.11,-174.805,281.677,
00:00:07:566,-0.56,0.98,0.318,82.763,-149.903,321.289,
00:00:07:583,-0.565,1.014,0.3,109.68,-156.311,387.817,
00:00:07:600,-0.555,1.058,0.313,139.099,-184.998,445.373,
00:00:07:616,-0.57,1.024,0.356,201.721,-241.517,519.653,
00:00:07:633,-0.692,0.821,0.264,-88.623,-363.282,774.047,
00:00:07:650,-0.691,0.94,0.227,-73.792,-352.539,867.004,
00:00:07:666,-0.69,0.898,0.193,-0.855,-374.207,887.512,
00:00:07:683,-0.694,0.857,0.14,83.252,-406.8,880.676,
00:00:07:700,-0.704,0.782,0.12,129.577,-434.754,905.822,
00:00:07:716,-0.709,0.646,0.027,107.299,-483.216,916.504,
00:00:07:733,-0.746,0.482,0.037,9.277,-502.991,933.899,
00:00:07:750,-0.794,0.519,0.007,26.794,-435.547,938.781,
00:00:07:766,-0.817,0.474,-0.054,71.899,-418.824,905.395,
00:00:07:783,-0.827,0.334,-0.108,74.218,-388.977,907.592,
00:00:07:800,-0.855,0.195,-0.176,-5.982,-342.53,885.803,
00:00:07:816,-0.835,0.103,-0.212,-131.043,-295.96,841.674,
00:00:07:833,-0.83,-0.128,-0.334,-181.275,-243.531,769.531,
00:00:07:850,-0.881,-0.384,-0.493,-254.09,-177.247,753.784,
00:00:07:866,-0.833,-0.559,-0.567,-424.256,-70.313,632.629,
00:00:07:883,-0.798,-0.683,-0.532,-636.292,158.752,313.11,
00:00:07:900,-0.647,-0.153,-0.458,-708.435,985.962,-853.882,
00:00:07:916,-0.56,-0.269,-0.33,-581.299,1432.251,-1563.416,
00:00:07:933,-0.45,-0.23,-0.05,-607.3,1865.722,-2000,
00:00:07:950,-0.449,-0.224,0.189,-884.705,1999.694,-2000,
00:00:07:966,0.022,-0.589,0.076,-2000,1999.694,-2000,
00:00:07:983,0.508,-0.877,-0.465,-2000,1999.694,-2000,
00:00:08:0,1.661,0.309,-1.092,-2000,1999.694,-2000,
00:00:08:16,2.755,2.647,-1.66,-2000,1075.317,-1778.077,
00:00:08:33,1.768,3.444,-0.991,-1030.274,-478.76,-1522.095,
00:00:08:50,0.543,3.057,-0.386,339.721,-871.949,-1199.28,
00:00:08:66,0.336,2.651,-0.001,1359.497,-459.046,-825.989,
00:00:08:83,0.364,1.625,0.033,1666.259,-192.627,-479.371,
00:00:08:100,0.335,0.926,0.274,1058.899,-184.205,-191.163,
00:00:08:116,0.147,0.889,0.493,36.193,-70.069,39.245,
00:00:08:133,0.069,1.246,0.523,-566.895,293.518,176.208,
00:00:08:150,0.204,1.37,0.312,-591.736,580.81,272.705,
00:00:08:166,0.373,1.19,0.046,-395.447,555.847,352.111,
00:00:08:183,0.418,1.11,-0.029,-246.338,321.045,407.104,
00:00:08:200,0.189,1.007,0.083,-235.718,-69.642,388.488,
00:00:08:216,0.099,1.052,0.146,-212.098,-84.107,386.108,
00:00:08:233,0.062,1.064,0.142,-158.997,0.122,371.399,
00:00:08:250,0.077,0.991,0.07,-105.042,67.81,384.399,
00:00:08:266,0.123,0.935,0.025,-101.258,62.744,424.987,
00:00:08:283,0.173,0.952,0.034,-162.72,34.729,449.768,
00:00:08:300,0.199,0.981,0.038,-213.685,-4.151,503.54,
00:00:08:316,0.203,0.982,0.042,-184.021,-63.538,561.584,
00:00:08:333,0.2,0.953,0.048,-144.043,-123.719,639.77,
00:00:08:350,0.166,0.893,0.036,-128.724,-174.012,634.216,
00:00:08:366,0.137,0.866,0.011,-169.678,-240.479,624.023,
00:00:08:383,0.084,0.866,0.007,-190.491,-336.304,604.614,
00:00:08:400,0.029,0.851,0.04,-171.326,-407.227,557.617,
00:00:08:416,-0.036,0.845,0.065,-143.738,-433.899,516.967,
00:00:08:433,-0.076,0.865,0.067,-113.831,-397.828,451.843,
00:00:08:450,-0.078,0.861,-0.028,-8.851,-416.748,424.499,
00:00:08:466,-0.064,0.818,-0.093,33.081,-479.676,365.844,
00:00:08:483,-0.058,0.783,-0.108,126.464,-569.214,325.378,
00:00:08:500,-0.077,0.807,-0.07,246.276,-703.614,301.025,
00:00:08:516,-0.157,0.786,-0.054,388.733,-776.856,253.967,
00:00:08:533,-0.245,0.695,-0.078,403.015,-776.429,187.866,
00:00:08:550,-0.303,0.579,-0.078,321.411,-764.527,145.935,
00:00:08:566,-0.358,0.591,-0.068,147.277,-719.849,89.111,
00:00:08:583,-0.4,0.761,-0.152,120.056,-686.158,48.339,
00:00:08:600,-0.418,0.929,-0.154,231.872,-681.336,-24.414,
00:00:08:616,-0.454,0.95,-0.179,495.971,-675.965,-94.239,
00:00:08:633,-0.449,0.876,-0.12,577.087,-665.772,-201.233,
00:00:08:650,-0.453,0.859,-0.144,490.783,-638.977,-209.168,
00:00:08:666,-0.46,1.013,-0.132,535.766,-580.201,-249.024,
00:00:08:683,-0.442,1.032,-0.084,546.753,-525.574,-268.433,
00:00:08:700,-0.428,0.963,-0.059,503.112,-459.656,-248.291,
00:00:08:716,-0.415,0.97,-0.022,355.529,-401.246,-226.319,
00:00:08:733,-0.393,1.074,-0.01,262.878,-330.018,-215.394,
00:00:08:750,-0.376,1.189,0.006,339.294,-287.659,-171.326,
00:00:08:766,-0.372,1.143,0.04,436.523,-252.137,-155.701,
00:00:08:783,-0.374,1.021,0.087,461.792,-229.248,-113.892,
00:00:08:800,-0.389,0.993,0.106,401.062,-185.608,-121.155,
00:00:08:816,-0.346,1.037,0.099,297.363,-152.955,-132.325,
00:00:08:833,-0.32,1.095,0.152,323.669,-107.239,-116.944,
00:00:08:850,-0.342,1.018,0.182,359.863,-64.148,-109.62,
00:00:08:866,-0.311,0.981,0.21,332.702,-24.964,-108.765,
00:00:08:883,-0.305,0.982,0.235,296.264,-8.912,-88.257,
00:00:08:900,-0.307,1.007,0.199,272.705,18.371,-88.929,
00:00:08:916,-0.273,0.975,0.195,232.605,36.743,-88.196,
00:00:08:933,-0.258,0.964,0.21,182.434,52.856,-73.914,
00:00:08:950,-0.26,0.969,0.223,141.479,60.302,-56.458,
00:00:08:966,-0.285,0.967,0.214,126.037,60.18,-36.927,
00:00:08:983,-0.247,0.972,0.208,87.707,56.64,-61.585,
00:00:09:0,-0.203,0.957,0.155,55.969,55.847,-44.556,
00:00:09:16,-0.175,0.956,0.111,22.155,56.457,-39.063,
00:00:09:33,-0.159,0.951,0.129,-5.127,36.56,-49.256,
00:00:09:50,-0.162,0.961,0.163,-25.635,38.024,-50.293,
00:00:09:66,-0.157,1.015,0.117,35.095,42.663,-46.936,
00:00:09:83,-0.18,1.057,0.134,210.083,41.198,-38.941,
00:00:09:100,-0.177,1.014,0.156,388.366,46.386,-21.058,
00:00:09:116,-0.169,0.974,0.177,505.371,40.039,-33.997,
00:00:09:133,-0.169,0.914,0.231,536.132,35.705,-31.678,
00:00:09:150,-0.188,0.917,0.259,517.7,30.822,-27.71,
00:00:09:166,-0.202,0.873,0.299,489.013,40.466,-56.397,
00:00:09:183,-0.204,0.862,0.315,441.65,59.57,-58.35,
00:00:09:200,-0.185,0.881,0.323,437.988,53.1,-66.346,
00:00:09:216,-0.172,0.883,0.328,498.169,38.147,-73.975,
00:00:09:233,-0.149,0.894,0.416,536.682,31.494,-80.689,
00:00:09:250,-0.131,0.91,0.46,519.958,36.926,-98.023,
00:00:09:266,-0.085,0.864,0.548,642.395,-37.354,-100.769,
00:00:09:283,-0.102,0.887,0.62,738.403,-54.688,-88.135,
00:00:09:300,-0.105,0.737,0.637,784.607,-108.277,-86.609,
00:00:09:316,-0.166,0.614,0.66,741.088,-112.122,-85.511,
00:00:09:333,-0.157,0.639,0.732,572.082,-92.225,-84.9,
00:00:09:350,-0.137,0.698,0.689,467.041,-90.088,-64.942,
00:00:09:366,-0.205,0.722,0.712,404.907,-19.959,-47.791,
00:00:09:383,-0.178,0.78,0.668,488.525,24.047,-88.318,
00:00:09:400,-0.144,0.704,0.658,634.277,13.366,-90.088,
00:00:09:416,-0.201,0.588,0.678,675.476,12.939,-98.206,
00:00:09:433,-0.204,0.501,0.732,524.841,1.77,-127.442,
00:00:09:450,-0.189,0.553,0.766,358.215,-8.423,-91.614,cutRH
00:00:09:466,-0.213,0.57,0.785,222.534,7.812,-98.267,
00:00:09:483,-0.23,0.595,0.787,133.85,20.263,-97.535,
00:00:09:500,-0.218,0.632,0.749,122.68,51.269,-109.498,
00:00:09:516,-0.202,0.641,0.753,182.861,66.345,-131.348,
00:00:09:533,-0.159,0.657,0.791,317.627,65.979,-121.582,
00:00:09:550,-0.084,0.619,0.867,203.125,16.418,-62.134,
00:00:09:566,-0.125,0.6,0.844,263.733,2.38,-56.336,
00:00:09:583,-0.152,0.546,0.846,374.145,-18.433,-39.856,
00:00:09:600,-0.144,0.53,0.881,430.297,-29.786,-43.702,
00:00:09:616,-0.151,0.455,0.883,420.898,-22.706,-77.027,
00:00:09:633,-0.152,0.442,0.887,193.481,54.077,-98.45,
00:00:09:650,-0.121,0.48,0.883,201.355,44.067,-94.3,
00:00:09:666,-0.132,0.415,0.896,206.726,35.278,-83.497,
00:00:09:683,-0.135,0.411,0.906,159.301,53.833,-61.524,
00:00:09:700,-0.114,0.435,0.905,104.858,69.152,-41.993,
00:00:09:716,-0.133,0.384,0.886,6.042,92.285,-47.425,
00:00:09:733,-0.127,0.42,0.888,-101.014,111.206,-57.496,
00:00:09:750,-0.094,0.487,0.866,-75.074,115.966,-53.589,
00:00:09:766,-0.097,0.498,0.842,11.779,97.412,-57.312,
00:00:09:783,-0.144,0.439,0.751,74.157,78.491,-95.581,
00:00:09:800,-0.08,0.471,0.985,86.669,15.625,8.85,
00:00:09:816,-0.183,0.513,0.955,97.351,84.838,-43.152,
00:00:09:833,-0.068,0.471,0.933,80.993,110.29,-59.571,
00:00:09:850,-0.083,0.531,0.92,87.158,65.063,-25.696,
00:00:09:866,-0.115,0.507,0.935,123.474,21.545,-20.752,
00:00:09:883,-0.147,0.482,0.922,164.55,15.136,-0.794,
00:00:09:900,-0.134,0.456,0.904,192.382,2.99,14.343,
00:00:09:916,-0.104,0.356,0.792,228.82,22.583,15.197,
00:00:09:933,-0.137,0.267,0.785,180.114,37.048,24.597,
00:00:09:950,-0.134,0.284,0.815,145.874,90.026,-9.522,
00:00:09:966,-0.072,0.409,0.855,191.833,125.244,15.686,
00:00:09:983,-0.044,0.378,0.789,195.373,86.547,-2.564,
00:00:10:0,-0.088,0.301,0.834,230.468,72.448,20.019,
00:00:10:16,-0.15,0.276,0.943,147.827,120.483,2.441,
00:00:10:33,-0.088,0.322,0.979,-37.415,128.54,-77.515,
00:00:10:50,-0.079,0.368,0.887,2.136,61.035,-53.711,
00:00:10:66,-0.193,0.293,0.897,47.851,74.279,-91.248,
00:00:10:83,-0.091,0.18,1.042,-26.001,137.207,-89.661,
00:00:10:100,-0.02,0.322,1.102,-192.81,150.573,-118.714,
00:00:10:116,0.011,0.392,1.088,-132.325,127.502,-128.113,
00:00:10:133,0.433,0.345,1.39,-245.057,18.554,-143.311,
00:00:10:150,0.108,0.561,1.186,-16.053,-10.804,-1.038,
00:00:10:166,-0.103,0.133,1.021,-142.762,42.236,-122.559,
00:00:10:183,0.098,0.405,1.018,-271.18,62.072,-92.286,
00:00:10:200,0.137,0.497,1.02,-205.323,39.245,-73.548,
00:00:10:216,0.149,0.578,1.098,-116.089,-1.465,-44.373,
00:00:10:233,0.187,0.648,1.093,-34.485,-10.926,-0.916,
00:00:10:250,0.11,0.543,1.009,-3.968,-26.307,26.245,
00:00:10:266,0.079,0.424,0.942,6.897,-68.726,44.555,
00:00:10:283,-0.071,0.314,0.813,27.526,-73.121,38.024,
00:00:10:300,-0.215,0.299,0.895,121.46,-49.073,19.531,
00:00:10:316,-0.138,0.322,1.037,50.109,57.617,-33.814,
00:00:10:333,-0.14,0.325,1.08,27.099,16.662,-14.466,
00:00:10:350,-0.191,0.226,1.084,-89.905,-38.208,11.169,
00:00:10:366,-0.257,0.3,0.542,-423.218,-49.195,85.327,
00:00:10:383,-0.261,0.316,0.492,-285.95,-19.898,20.202,
00:00:10:400,-0.187,0.391,0.565,-323.06,-43.274,-37.415,
00:00:10:416,-0.185,0.375,0.487,-331.055,20.629,-34.607,
00:00:10:433,-0.057,0.656,0.673,-388.55,-42.908,8.117,
00:00:10:450,0.023,0.881,0.81,-224.732,-157.959,22.705,
00:00:10:466,-0.049,0.768,0.903,59.265,-226.38,23.925,
00:00:10:483,-0.168,0.609,0.996,122.07,-206.849,46.752,
00:00:10:500,-0.209,0.459,0.841,-234.192,-16.541,99.121,
00:00:10:516,-0.173,0.529,0.86,-125.306,-20.935,78.674,
00:00:10:533,-0.169,0.597,0.97,40.649,-36.805,65.063,
00:00:10:550,-0.16,0.535,0.986,193.908,-18.433,19.714,
00:00:10:566,-0.16,0.322,0.952,201.904,14.587,-4.212,
00:00:10:583,-0.149,0.348,0.948,41.565,44.677,4.455,
00:00:10:600,-0.087,0.491,0.998,186.645,-13.489,-28.565,
00:00:10:616,-0.075,0.467,0.979,228.881,3.234,-51.392,
00:00:10:633,-0.063,0.364,0.916,211.425,2.99,-46.143,
00:00:10:650,-0.098,0.318,0.887,120.178,12.573,-34.241,
00:00:10:666,-0.09,0.418,0.91,27.832,-1.099,-18.555,
00:00:10:683,-0.12,0.369,0.948,84.045,61.34,-45.105,
00:00:10:700,-0.096,0.375,0.901,21.24,69.58,-55.42,
00:00:10:716,-0.082,0.378,0.858,28.381,45.715,-37.11,
00:00:10:733,-0.101,0.325,0.881,3.906,16.357,-10.315,
00:00:10:750,-0.119,0.431,0.927,-55.359,-13.977,0.671,
00:00:10:766,-0.106,0.493,0.961,-1.709,-6.226,-8.362,
00:00:10:783,-0.123,0.411,0.934,19.287,5.432,-38.269,
00:00:10:800,-0.115,0.364,0.885,0.061,21.24,-25.086,
00:00:10:816,-0.127,0.359,0.861,-66.773,11.596,-10.498,
00:00:10:833,-0.133,0.44,0.873,-85.999,8.117,-3.174,
00:00:10:850,-0.131,0.448,0.89,-29.602,6.042,-8.545,
00:00:10:866,-0.153,0.436,0.887,10.131,28.503,-10.01,
00:00:10:883,-0.115,0.406,0.88,38.574,38.757,-32.471,
00:00:10:900,-0.136,0.345,0.869,22.094,39.856,-31.739,
00:00:10:916,-0.153,0.38,0.88,-6.897,50.231,-34.607,
00:00:10:933,-0.128,0.401,0.895,-0.245,62.5,-44.434,
00:00:10:950,-0.119,0.391,0.887,-9.278,76.904,-51.453,
00:00:10:966,-0.119,0.385,0.885,-64.698,84.411,-66.407,
00:00:10:983,-0.099,0.453,0.892,-59.693,91.186,-62.439,
00:00:11:0,-0.101,0.414,0.812,-41.138,102.478,-68.299,
00:00:11:16,-0.046,0.45,1.008,-42.542,-7.996,-32.715,
00:00:11:33,-0.137,0.464,0.922,20.08,8.056,-48.218,
00:00:11:50,-0.124,0.38,0.945,3.112,9.582,-53.162,
00:00:11:66,-0.134,0.38,0.906,-17.334,2.868,-39.185,
00:00:11:83,-0.161,0.409,0.884,-9.339,15.93,-33.387,
00:00:11:100,-0.144,0.39,0.875,25.512,25.94,-36.499,
00:00:11:116,-0.153,0.465,0.928,40.161,62.561,-46.387,
00:00:11:133,-0.131,0.427,0.86,48.461,97.595,-40.162,
00:00:11:150,-0.163,0.383,0.882,31.005,92.773,-50.599,
00:00:11:166,-0.094,0.4,0.931,102.6,118.774,-57.496,
00:00:11:183,-0.039,0.439,0.951,132.69,126.22,-52.735,
00:00:11:200,-0.034,0.385,0.937,132.69,87.097,-38.697,
00:00:11:216,-0.09,0.311,0.966,7.629,70.861,-74.707,
00:00:11:233,-0.104,0.44,1.03,-18.311,161.132,-104.859,
00:00:11:250,0.065,0.532,1.004,63.293,155.639,-117.676,
00:00:11:266,0.023,0.382,0.901,73.669,27.404,-79.407,
00:00:11:283,-0.198,0.268,0.892,23.315,-5.982,-65.857,
00:00:11:300,-0.167,0.353,0.91,-29.786,118.042,-111.573,
00:00:11:316,0.012,0.451,0.943,17.089,154.541,-120.972,
00:00:11:333,0.048,0.404,0.944,41.748,86.608,-96.741,
00:00:11:350,-0.014,0.341,0.93,34.484,57.067,-77.515,
00:00:11:366,-0.084,0.367,0.938,47.607,90.148,-73.426,
00:00:11:383,0.141,0.349,0.94,-6.47,140.319,-80.323,
00:00:11:400,0.06,0.405,0.896,64.88,41.137,-43.702,
00:00:11:416,-0.055,0.268,0.869,99.975,42.297,-29.602,
00:00:11:433,0.003,0.301,0.94,57.8,91.369,-51.819,cutRH
00:00:11:450,0.013,0.402,1.032,49.011,33.325,-50.049,
00:00:11:466,0.02,0.381,0.914,5.432,-26.246,-44.617,
00:00:11:483,0.012,0.38,0.887,34.484,-46.387,-24.842,
00:00:11:500,-0.036,0.355,0.918,64.941,-0.855,-28.26,
00:00:11:516,0.008,0.354,0.993,70.678,54.321,-31.495,
00:00:11:533,0.084,0.365,1.024,61.889,-19.593,-26.185,
00:00:11:550,-0.038,0.342,0.97,62.133,-47.364,-4.151,
00:00:11:566,-0.062,0.279,1.033,88.684,35.766,-9.095,
00:00:11:583,-0.009,0.259,1.048,8.544,27.893,-4.151,
00:00:11:600,-0.04,0.284,1.048,-47.425,-15.32,-1.404,
00:00:11:616,-0.09,0.286,1,-64.942,-38.636,-2.808,
00:00:11:633,-0.112,0.278,0.977,-73.304,-46.082,-12.391,
00:00:11:650,-0.066,0.271,0.968,-116.578,-15.137,-38.208,
00:00:11:666,-0.038,0.291,0.932,-169.922,-26.795,-51.758,
00:00:11:683,-0.047,0.307,0.968,-192.139,-60.608,-52.491,
00:00:11:700,-0.044,0.331,0.965,-184.449,-60.852,-50.232,
00:00:11:716,-0.03,0.334,0.976,-213.074,-52.796,-77.149,
00:00:11:733,0.015,0.353,0.961,-294.495,-60.425,-86.976,
00:00:11:750,-0.002,0.398,0.896,-265.137,-96.375,-59.144,
00:00:11:766,-0.064,0.37,0.866,-241.639,-108.216,-60.242,
00:00:11:783,-0.106,0.371,0.804,-291.199,-86.548,-54.2,
00:00:11:800,-0.118,0.433,0.797,-300.415,-49.927,-35.645,
00:00:11:816,-0.1,0.481,0.686,-258.973,-22.461,-10.01,
00:00:11:833,-0.066,0.486,0.686,-201.539,-127.32,38.33,
00:00:11:850,-0.141,0.554,0.728,-138.062,-225.22,74.768,
00:00:11:866,-0.205,0.55,0.767,-13.916,-226.685,63.598,
00:00:11:883,-0.202,0.436,0.856,112.304,-186.951,48.584,
00:00:11:900,-0.201,0.379,0.866,128.479,-155.335,52.124,
00:00:11:916,-0.207,0.356,0.902,53.711,-109.436,44.006,
00:00:11:933,-0.164,0.436,0.92,-55.054,10.681,30.09,
00:00:11:950,-0.124,0.476,0.909,-37.354,36.377,21.728,
00:00:11:966,-0.106,0.449,0.875,7.934,28.93,19.47,
00:00:11:983,-0.112,0.408,0.853,18.615,25.94,25.756,
00:00:12:0,-0.118,0.404,0.884,-16.968,30.151,23.376,
00:00:12:16,-0.135,0.427,0.907,-25.33,39.123,13.732,
00:00:12:33,-0.137,0.366,0.95,-17.334,96.496,-15.992,
00:00:12:50,-0.134,0.383,0.939,-68.421,117.675,-30.762,
00:00:12:66,-0.115,0.414,0.932,-86.243,111.816,-36.683,
00:00:12:83,-0.098,0.455,0.931,-55.298,90.332,-40.65,
00:00:12:100,-0.109,0.453,0.929,5.981,54.809,-32.593,
00:00:12:116,-0.119,0.42,0.956,36.987,44.555,-46.082,
00:00:12:133,-0.103,0.401,0.954,34.729,48.584,-39.734,
00:00:12:150,-0.102,0.397,0.944,12.207,31.799,-30.884,
00:00:12:166,-0.102,0.413,0.938,19.226,31.494,-43.274,
00:00:12:183,-0.122,0.393,0.956,48.4,34.79,-42.725,
00:00:12:200,-0.115,0.383,0.887,-34.668,54.443,-41.687,
00:00:12:216,-0.084,0.439,0.899,-3.968,42.602,-38.941,
00:00:12:233,-0.079,0.427,0.921,49.011,21.789,-39.49,
00:00:12:250,-0.084,0.393,0.929,37.475,33.569,-42.359,
00:00:12:266,-0.092,0.411,0.871,-26.429,31.311,-26.551,
00:00:12:283,-0.098,0.419,0.873,-22.706,54.199,-36.927,
00:00:12:300,-0.098,0.406,0.908,-9.339,69.763,-30.701,
00:00:12:316,-0.086,0.423,0.924,6.103,96.557,-17.701,
00:00:12:333,-0.081,0.416,0.877,-15.076,119.751,-38.392,
00:00:12:350,-0.025,0.41,0.947,31.127,53.466,-19.41,
00:00:12:366,-0.083,0.416,0.943,42.846,9.887,-34.546,
00:00:12:383,-0.105,0.386,0.945,10.253,15.686,-39.49,
00:00:12:400,-0.095,0.418,0.935,-5.921,24.414,-32.227,
00:00:12:416,-0.094,0.402,0.916,-1.709,22.888,-24.537,
00:00:12:433,-0.108,0.41,0.909,16.479,24.353,-17.64,
00:00:12:450,-0.098,0.386,0.895,31.189,24.231,-21.546,
00:00:12:466,-0.108,0.38,0.904,35.644,32.959,-28.26,
00:00:12:483,-0.092,0.407,0.879,58.898,44.494,-36.316,
00:00:12:500,-0.077,0.407,0.877,122.436,13.855,-26.612,
00:00:12:516,-0.114,0.348,0.921,125.122,10.009,-42.786,
00:00:12:533,-0.124,0.349,0.971,75.073,62.072,-58.106,
00:00:12:550,-0.038,0.495,0.997,68.237,80.688,-61.89,
00:00:12:566,0.003,0.518,1.002,198.73,23.803,-34.302,
00:00:12:583,-0.087,0.364,0.927,149.353,57.312,-130.005,
00:00:12:600,-0.111,0.214,0.92,142.944,34.24,-146.485,
00:00:12:616,-0.199,0.233,0.945,71.655,96.069,-157.044,
00:00:12:633,-0.129,0.307,0.948,30.09,157.837,-138.733,
00:00:12:650,-0.027,0.343,0.964,80.566,104.614,-99.305,
00:00:12:666,-0.044,0.313,0.955,79.162,66.345,-90.455,
00:00:12:683,-0.065,0.28,0.936,65.307,61.767,-80.262,
00:00:12:700,-0.03,0.31,0.924,25.207,91.43,-82.459,
00:00:12:716,0.02,0.33,0.9,28.808,85.327,-63.843,
00:00:12:733,-0.003,0.301,0.933,49.865,64.453,-29.541,
00:00:12:750,0.007,0.324,0.98,28.991,80.749,-36.377,
00:00:12:766,0.058,0.373,0.975,41.381,106.567,-51.087,
00:00:12:783,0.045,0.354,0.976,73.73,88.256,-28.87,
00:00:12:800,0,0.312,0.959,60.791,79.895,-10.987,
00:00:12:816,-0.009,0.28,0.961,32.348,82.702,-16.053,
00:00:12:833,-0.025,0.308,0.996,25.94,86.975,-24.048,
00:00:12:850,0.046,0.341,1.039,29.357,102.356,-56.824,
00:00:12:866,0.036,0.338,0.998,20.813,63.781,-22.95,
00:00:12:883,-0.03,0.309,0.969,51.94,36.56,-24.537,
00:00:12:900,-0.015,0.278,0.961,42.785,62.5,-28.077,
00:00:12:916,0.006,0.283,0.97,21.667,58.349,-31.495,
00:00:12:933,0.025,0.291,0.931,26.733,47.607,-26.551,
00:00:12:950,0.028,0.287,0.936,21.606,37.292,-26.795,
00:00:12:966,0.023,0.283,0.948,21.667,55.542,-31.311,
00:00:12:983,0.06,0.304,0.938,20.69,58.471,-28.443,
00:00:13:0,0.062,0.311,0.94,41.32,42.48,-23.438,
00:00:13:16,0.052,0.286,0.971,46.447,26.977,-15.381,
00:00:13:33,0.057,0.29,0.972,30.273,28.808,-18.311,
00:00:13:50,0.082,0.255,0.939,16.784,18.31,-16.236,
00:00:13:66,0.046,0.248,0.892,20.019,-12.391,-19.104,
00:00:13:83,0.02,0.211,0.906,37.109,-11.414,-16.236,
00:00:13:100,0.028,0.231,0.911,28.869,15.075,-32.898,
00:00:13:116,0.003,0.23,0.905,46.752,5.249,-36.194,
00:00:13:133,0.021,0.214,0.908,-0.794,-8.789,-35.828,
00:00:13:150,-0.048,0.264,0.938,-15.931,-4.578,-37.11,
00:00:13:166,-0.003,0.332,1.013,2.38,43.701,-30.152,
00:00:13:183,0.064,0.322,1.092,-23.926,34.179,-27.588,
00:00:13:200,0.065,0.326,1.087,-23.926,-37.476,0.305,
00:00:13:216,-0.024,0.276,1.041,-19.288,-58.899,-5.005,
00:00:13:233,-0.037,0.255,1.06,-20.325,-37.171,-6.897,
00:00:13:250,0.03,0.266,1.069,-61.524,-15.503,-8.545,
00:00:13:266,0.026,0.237,1.06,-93.628,-76.477,13.488,
00:00:13:283,-0.017,0.217,1.026,-127.564,-71.656,10.376,
00:00:13:300,-0.039,0.19,0.966,-169.983,-65.491,-1.526,
00:00:13:316,-0.08,0.162,0.917,-215.027,-136.963,13.61,
00:00:13:333,-0.121,0.187,0.897,-339.6,-65.857,-20.02,
00:00:13:350,-0.073,0.293,0.847,-408.875,-18.372,-8.667,
00:00:13:366,-0.083,0.394,0.805,-375.061,-12.146,-25.94,
00:00:13:383,-0.049,0.428,0.768,-243.47,-30.762,-44.129,
00:00:13:400,-0.051,0.406,0.742,-223.877,-90.271,-16.663,
00:00:13:416,-0.084,0.473,0.817,-235.596,-146.119,8.239,
00:00:13:433,-0.097,0.534,0.878,-196.778,-141.236,39.306,
00:00:13:450,-0.09,0.531,0.89,-178.833,-126.465,32.653,
00:00:13:466,-0.113,0.5,0.877,-141.663,-118.775,46.936,
00:00:13:483,-0.15,0.419,0.864,-142.456,-82.825,72.876,
00:00:13:500,-0.172,0.356,0.824,-241.883,-57.373,88.989,
00:00:13:516,-0.167,0.469,0.83,-312.745,-35.889,60.302,
00:00:13:533,-0.137,0.507,0.869,-177.308,-47.242,56.945,
00:00:13:550,-0.131,0.463,0.884,-46.875,-46.021,2.563,
00:00:13:566,-0.143,0.374,0.9,-23.865,-46.021,-57.435,
00:00:13:583,-0.134,0.39,0.875,8.667,-32.837,-80.14,
00:00:13:600,-0.119,0.366,0.885,-14.161,-44.129,-113.953,
00:00:13:616,-0.117,0.409,0.902,-107.361,-23.804,-117.371,
00:00:13:633,-0.088,0.494,0.948,-205.567,30.822,-128.968,
00:00:13:650,-0.084,0.564,0.898,-90.455,28.686,-117.249,
00:00:13:666,-0.064,0.483,0.877,67.199,12.512,-117.737,
00:00:13:683,-0.099,0.394,0.902,73.242,2.258,-79.834,
00:00:13:700,-0.105,0.478,0.963,-33.204,26.428,-90.149,
00:00:13:716,-0.038,0.548,0.979,-9.278,37.902,-85.755,
00:00:13:733,-0.051,0.504,0.961,76.171,39.978,-76.966,
00:00:13:750,-0.091,0.471,0.949,69.58,46.447,-85.938,
00:00:13:766,-0.079,0.446,0.924,51.025,63.781,-95.643,
00:00:13:783,-0.066,0.423,0.931,29.235,55.969,-68.848,
00:00:13:800,-0.084,0.459,0.928,-6.958,60.485,-61.646,
00:00:13:816,-0.072,0.475,0.912,12.085,71.777,-52.857,
00:00:13:833,-0.019,0.388,0.95,9.521,99.426,-40.589,
00:00:13:850,-0.086,0.519,0.908,-40.955,89.477,-62.928,
00:00:13:866,-0.01,0.505,0.916,96.13,65.49,-41.443,
00:00:13:883,-0.045,0.367,0.913,104.797,37.292,-30.152,
00:00:13:900,-0.074,0.379,0.915,-24.292,56.335,-24.781,
00:00:13:916,-0.038,0.478,0.904,-61.28,50.048,-14.344,
00:00:13:933,-0.062,0.48,0.901,-7.386,45.532,-4.151,
00:00:13:950,-0.073,0.493,0.9,58.532,53.772,-18.25,
00:00:13:966,-0.053,0.443,0.908,110.473,63.293,-30.213,
00:00:13:983,-0.077,0.36,0.89,102.356,80.383,-12.757,
00:00:14:0,-0.11,0.397,0.882,4.699,109.863,-20.142,
00:00:14:16,-0.047,0.447,0.872,26.245,120.178,-17.762,
00:00:14:33,-0.078,0.41,0.893,86.731,119.262,-8.851,
00:00:14:50,-0.084,0.455,0.945,57.983,163.757,-37.11,
00:00:14:66,-0.067,0.489,0.841,103.21,222.656,-66.773,
00:00:14:83,0.044,0.427,0.979,205.078,120.239,-88.501,
00:00:14:100,-0.039,0.503,1.016,316.528,114.318,-97.29,
00:00:14:116,-0.003,0.443,1.017,378.357,142.639,-93.506,
00:00:14:133,-0.004,0.473,1.035,396.911,173.95,-81.665,
00:00:14:150,0.013,0.358,0.962,359.436,159.301,-78.309,
00:00:14:166,-0.002,0.328,1.053,320.861,111.145,-64.026,
00:00:14:183,-0.023,0.251,0.998,338.073,136.169,-108.948,
00:00:14:200,-0.059,0.24,1.019,221.13,130.493,-91.431,
00:00:14:216,0.012,0.234,1.01,150.024,135.376,-160.096,
00:00:14:233,0.065,0.182,0.983,222.656,109.985,-65.003,
00:00:14:250,0.041,0.382,0.92,271.789,100.769,-82.947,
00:00:14:266,0.039,0.317,0.86,428.344,121.765,-79.163,
00:00:14:283,-0.018,0.22,0.878,354.919,183.654,-108.033,
00:00:14:300,0.081,0.264,0.98,313.049,142.517,-13.916,
00:00:14:316,0.084,0.319,0.942,328.43,88.44,34.545,
00:00:14:333,0.049,0.124,0.893,400.329,38.024,-12.452,
00:00:14:350,-0.063,0.047,0.938,309.021,72.143,-45.35,
00:00:14:366,-0.017,0.209,0.918,250.366,210.632,-64.759,
00:00:14:383,0.137,0.209,0.869,270.507,195.556,-60.975,
00:00:14:400,0.076,0.193,0.912,310.302,130.188,-59.937,
00:00:14:416,0.027,0.128,0.912,246.399,203.064,-77.393,
00:00:14:433,0.108,0.188,0.902,169.128,170.044,-17.518,
00:00:14:450,0.088,0.125,0.931,207.214,91.919,-7.935,
00:00:14:466,0.082,0.038,1,185.241,129.272,-17.945,cutRH
00:00:14:483,0.135,0.162,1.014,236.755,172.546,-19.837,
00:00:14:500,0.189,-0.016,1.058,295.288,161.987,-47.303,
00:00:14:516,0.148,-0.032,1.201,183.41,133.545,-39.856,
00:00:14:533,0.324,-0.016,1.038,-55.787,236.877,-80.262,
00:00:14:550,0.276,0.128,0.862,33.874,61.401,-35.157,
00:00:14:566,0.056,-0.099,0.936,71.411,60.791,-43.091,
00:00:14:583,0.171,-0.053,0.994,-43.763,201.416,-62.439,
00:00:14:600,0.374,-0.04,0.937,-64.515,161.56,-97.718,
00:00:14:616,0.184,-0.073,1.004,-52.43,31.555,-76.661,
00:00:14:633,0.115,-0.079,1.135,-160.828,130.798,-95.093,
00:00:14:650,0.242,0.073,1,-288.331,80.627,-108.216,
00:00:14:666,0.18,0.058,1.024,-305.848,102.844,-48.829,
00:00:14:683,0.345,0.226,0.998,-170.838,105.774,-42.115,
00:00:14:700,0.308,0.295,0.921,-138.794,98.51,-34.607,
00:00:14:716,0.276,0.182,0.9,-34.363,64.27,-25.086,
00:00:14:733,0.247,0.212,0.935,-12.94,41.503,-11.536,
00:00:14:750,0.22,0.152,0.91,-47.669,65.795,-14.893,
00:00:14:766,0.232,0.19,0.905,-84.9,72.815,-2.686,
00:00:14:783,0.203,0.183,0.89,-107.117,93.872,-14.832,
00:00:14:800,0.219,0.128,0.845,-136.536,104.309,2.563,
00:00:14:816,0.164,0.078,0.856,-182.74,63.964,24.475,
00:00:14:833,0.136,0.096,0.913,-181.946,64.697,20.935,
00:00:14:850,0.277,0.097,1.204,-147.034,-157.959,-34.302,
00:00:14:866,0.013,0.269,1.049,27.404,-43.335,-154.419,
00:00:14:883,0.196,-0.098,1.126,-133.789,-148.194,22.644,
00:00:14:900,0.007,0.101,0.946,-351.014,-59.815,-67.872,
00:00:14:916,0.101,0.341,0.952,-453.431,-153.26,37.536,
00:00:14:933,0.128,0.359,0.952,-384.827,-222.596,-7.935,
00:00:14:950,0.094,0.285,0.952,-413.514,-270.874,-28.504,
00:00:14:966,0.06,0.357,0.949,-540.406,-306.641,8.178,
00:00:14:983,0.093,0.501,0.953,-530.091,-325.44,27.16,
00:00:15:0,0.059,0.451,0.943,-435.12,-314.82,23.803,
00:00:15:16,0.003,0.381,0.896,-425.232,-266.968,47.302,
00:00:15:33,0.043,0.422,0.889,-525.391,-260.132,53.649,
00:00:15:50,0.054,0.494,0.952,-543.274,-275.33,68.42,
00:00:15:66,0.025,0.536,0.977,-508.728,-231.69,117.492,
00:00:15:83,-0.009,0.564,0.938,-379.151,-169.556,98.999,
00:00:15:100,0.005,0.443,0.851,-325.379,-145.325,113.769,
00:00:15:116,-0.025,0.401,0.832,-441.163,-125.123,70.068,
00:00:15:133,-0.061,0.472,0.815,-422.364,-77.82,65.307,
00:00:15:150,-0.025,0.439,0.827,-440.674,-22.767,48.889,
00:00:15:166,-0.043,0.516,0.838,-375,24.047,33.691,
00:00:15:183,-0.049,0.56,0.836,-184.021,85.693,13.671,
00:00:15:200,-0.006,0.453,0.833,-116.578,122.619,-20.508,
00:00:15:216,0.049,0.491,0.86,98.083,132.995,-48.218,
00:00:15:233,0.024,0.429,0.849,40.649,144.043,-60.608,
00:00:15:250,0.073,0.421,0.832,-90.027,113.464,-45.899,
00:00:15:266,0.044,0.528,0.828,-137.085,88.623,-38.453,
00:00:15:283,0.07,0.573,0.85,-101.136,37.78,-58.045,
00:00:15:300,0.091,0.607,0.882,-8.973,27.954,-86.853,
00:00:15:316,0.086,0.575,0.878,108.947,20.813,-91.736,
00:00:15:333,0.06,0.602,0.88,205.81,48.034,-106.507,
00:00:15:350,0.102,0.505,0.871,279.235,37.597,-119.812,
00:00:15:366,0.103,0.435,0.91,-93.811,65.307,-20.081,
00:00:15:383,0.097,0.496,0.909,-159.485,90.942,13.794,
00:00:15:400,0.068,0.547,0.897,-191.224,134.643,3.54,
00:00:15:416,0.065,0.584,0.736,-124.512,174.438,-4.639,
00:00:15:433,0.192,0.576,0.891,74.096,34.301,-25.757,
00:00:15:450,0.075,0.55,0.92,226.928,-22.034,-33.387,
00:00:15:466,0.039,0.418,0.959,223.083,-3.479,-45.105,
00:00:15:483,0.024,0.532,0.972,202.819,8.483,-88.746,
00:00:15:500,0.046,0.432,0.914,179.199,82.458,-61.768,
00:00:15:516,0.041,0.448,0.9,100.952,121.093,-79.529,
00:00:15:533,0.077,0.503,0.886,65.979,97.717,-53.711,
00:00:15:550,0.05,0.545,0.864,143.737,119.201,-69.764,
00:00:15:566,0.062,0.551,0.863,294.555,124.145,-75.074,
00:00:15:583,0.124,0.439,0.872,413.635,104.187,-65.918,
00:00:15:600,0.058,0.341,0.871,192.077,149.597,-123.414,
00:00:15:616,0.116,0.511,0.894,200.988,186.279,-93.201,
00:00:15:633,0.155,0.494,0.861,296.814,128.296,-106.934,
00:00:15:650,0.108,0.399,0.857,376.892,111.267,-144.349,
00:00:15:666,0.109,0.262,0.92,316.162,87.097,-119.996,
00:00:15:683,0.147,0.283,0.946,294.983,76.477,-84.229,
00:00:15:700,0.117,0.264,0.916,279.113,53.039,-77.515,
00:00:15:716,0.037,0.279,0.957,349.609,-19.288,-170.777,
00:00:15:733,0.081,0.121,0.915,439.331,26.794,-96.802,
00:00:15:750,0.115,0.09,0.932,266.723,85.388,-124.146,
00:00:15:766,0.197,0.062,0.744,139.831,37.231,-50.354,
00:00:15:783,0.001,0.087,0.879,101.318,123.474,-52.796,
00:00:15:800,0.181,0.004,1.051,18.981,212.219,-124.329,
00:00:15:816,0.346,0.233,1.181,-15.748,135.925,-150.147,
00:00:15:833,0.324,0.252,1.096,35.339,101.013,-39.368,
00:00:15:850,0.128,0.206,0.873,-88.807,125.793,-72.388,
00:00:15:866,0.077,0.019,0.717,-72.51,169.799,-76.6,
00:00:15:883,0.078,0.024,0.883,-197.266,101.684,-98.206,
00:00:15:900,0.132,0.307,0.808,-220.398,234.985,-74.707,
00:00:15:916,0.295,0.216,0.824,-49.622,296.63,-104.371,
00:00:15:933,0.405,0.252,0.925,133.239,-4.578,-53.772,
00:00:15:950,0.259,0.286,0.845,78.613,78.491,-21.058,
00:00:15:966,0.347,0.189,0.813,156.25,37.963,-17.029,
00:00:15:983,0.285,0.188,0.893,190.429,-12.696,-8.301,
00:00:16:0,0.301,0.089,0.969,73.12,29.541,-43.824,
00:00:16:16,0.298,0.122,0.951,10.498,30.7,-34.668,
00:00:16:33,0.333,0.24,0.929,5.676,57.251,-14.588,
00:00:16:50,0.386,0.275,0.982,93.689,-4.761,-17.456,
00:00:16:66,0.343,0.238,0.977,183.838,-16.846,-22.217,
00:00:16:83,0.22,0.113,0.928,109.13,26.001,9.216,
00:00:16:100,0.253,0.095,0.937,131.408,29.174,-9.644,
00:00:16:116,0.241,0.113,0.939,77.758,41.687,0.244,
00:00:16:133,0.262,0.163,1.015,65.551,43.945,3.723,
00:00:16:150,0.31,0.15,1.018,41.442,61.828,-13.977,
00:00:16:166,0.315,0.148,0.996,3.723,29.052,-0.489,
00:00:16:183,0.246,0.126,0.959,-41.81,-18.86,16.357,
00:00:16:200,0.223,0.1,0.88,-81.665,-5.86,15.808,
00:00:16:216,0.191,0.034,0.787,-156.739,-59.937,21.606,
00:00:16:233,0.089,0.124,0.864,-67.81,-25.208,-29.847,
00:00:16:250,0.067,0.106,0.943,-104.065,11.108,-37.476,
00:00:16:266,0.137,0.096,0.977,-199.769,70.007,-43.152,
00:00:16:283,0.187,0.112,0.996,-304.2,35.4,-17.395,
00:00:16:300,0.216,0.174,1.053,-375.123,-65.735,18.493,
00:00:16:316,0.22,0.28,0.943,-435.547,-108.46,1.586,
00:00:16:333,0.154,0.199,0.973,-386.475,-98.816,39.611,
00:00:16:350,0.24,0.201,0.993,-448.609,-60.059,18.005,
00:00:16:366,0.307,0.25,0.99,-481.751,-87.769,19.775,
00:00:16:383,0.288,0.346,0.997,-474.06,-158.509,28.686,
00:00:16:400,0.241,0.482,0.966,-414.307,-166.077,16.784,
00:00:16:416,0.237,0.451,0.925,-302.918,-197.388,3.601,
00:00:16:433,0.194,0.457,0.892,-255.555,-230.347,11.108,
00:00:16:450,0.13,0.408,0.84,-164.734,-252.442,22.277,
00:00:16:466,0.092,0.461,0.949,-115.479,-290.345,85.937,
00:00:16:483,0.05,0.48,0.959,-132.386,-208.558,45.105,
00:00:16:500,0.138,0.502,0.941,-105.225,-201.172,35.339,
00:00:16:516,0.101,0.492,0.907,6.713,-274.476,51.818,
00:00:16:533,0.023,0.374,0.9,76.965,-283.02,78.613,
00:00:16:550,-0.032,0.334,0.905,4.577,-237,119.812,
00:00:16:566,-0.026,0.34,0.919,-58.106,-168.274,133.178,
00:00:16:583,-0.006,0.376,0.893,-46.753,-120.789,142.761,
00:00:16:600,-0.004,0.383,0.891,12.634,-104.554,148.193,
00:00:16:616,-0.031,0.294,0.894,32.531,-55.726,117.37,
00:00:16:633,-0.024,0.264,0.905,4.394,3.356,112.182,
00:00:16:650,-0.018,0.326,0.926,-18.616,57.556,96.252,
00:00:16:667,0.02,0.358,0.934,11.291,119.14,41.381,
00:00:16:683,0.082,0.368,0.932,89.904,128.051,11.596,
00:00:16:700,0.069,0.307,0.925,132.08,121.826,-9.217,
00:00:16:717,0.058,0.276,0.916,82.885,161.255,-21.668,
00:00:16:733,0.129,0.319,0.908,29.968,157.714,-14.71,
00:00:16:750,0.154,0.378,0.924,49.987,118.408,2.929,
00:00:16:767,0.135,0.377,0.945,84.167,102.234,0.122,
00:00:16:783,0.11,0.363,0.957,127.014,100.586,-7.63,
00:00:16:800,0.107,0.325,0.961,160.156,129.394,-31.8,
00:00:16:817,0.148,0.226,0.945,87.036,123.596,-28.748,
00:00:16:833,0.109,0.232,0.918,-55.726,119.323,-27.039,
00:00:16:850,0.099,0.35,0.934,-73.853,132.019,-19.715,
00:00:16:867,0.114,0.409,0.942,36.438,144.592,-51.758,
00:00:16:883,0.133,0.305,0.915,101.135,143.066,-94.483,
00:00:16:900,0.167,0.329,1.043,110.534,104.492,-41.016,
00:00:16:917,0.116,0.344,1.036,134.155,121.948,-93.384,
00:00:16:933,0.131,0.312,1.039,173.462,137.024,-115.54,
00:00:16:950,0.128,0.423,1.035,284.423,164.611,-114.747,
00:00:16:967,0.176,0.316,0.993,375.305,131.164,-132.203,
00:00:16:983,0.138,0.206,1.053,325.134,76.843,-103.699,
00:00:17:0,0.096,0.308,1.033,259.338,144.47,-84.778,
00:00:17:17,0.179,0.35,0.953,368.896,121.887,-95.337,
00:00:17:33,0.199,0.279,0.982,474.914,29.48,-157.532,
00:00:17:50,0.129,0.2,1.051,488.708,-27.1,-59.632,
00:00:17:67,0.062,0.189,1,220.52,74.157,-38.636,
00:00:17:83,0.17,0.317,0.948,280.212,80.322,-28.992,
00:00:17:100,0.137,0.25,0.937,375.122,16.235,-27.222,
00:00:17:117,0.12,0.106,0.951,359.985,-8.057,-19.471,
00:00:17:133,0.081,0.096,0.964,280.212,43.457,-17.334,
00:00:17:150,0.118,0.026,0.933,230.346,58.96,-28.565,
00:00:17:167,0.104,0.033,0.965,183.471,79.956,-35.279,
00:00:17:183,0.143,0.03,0.949,145.813,122.375,-42.603,
00:00:17:200,0.191,0.043,0.949,111.999,119.323,-43.641,
00:00:17:217,0.162,0.042,0.917,104.98,89.355,-42.664,
00:00:17:233,0.157,-0.062,0.959,74.707,104.187,-35.645,
00:00:17:250,0.181,-0.009,0.978,0.305,131.836,-41.016,
00:00:17:267,0.277,0.037,0.893,-6.226,124.084,-43.396,
00:00:17:283,0.187,-0.011,0.852,30.273,57.312,-47.059,
00:00:17:300,0.129,-0.032,0.934,-4.334,113.403,-63.538,
00:00:17:317,0.213,0.068,0.585,-31.922,198.181,-66.102,
00:00:17:333,0.215,-0.109,0.881,74.523,142.028,-40.406,
00:00:17:350,0.271,-0.208,0.686,-195.374,221.435,-82.886,
00:00:17:367,0.224,0.249,0.853,-76.6,138.366,-18.799,
00:00:17:383,0.374,0.131,0.954,182.8,82.58,-68.177,
00:00:17:400,0.437,0.047,1.112,138.122,117.553,-127.259,
00:00:17:417,0.557,0.088,1.165,-76.966,170.471,-52.247,
00:00:17:433,0.462,0.196,0.894,-22.644,-38.453,22.277,
00:00:17:450,0.141,0.068,1.024,103.332,-161.744,-23.316,
00:00:17:467,0.18,-0.081,0.981,-4.822,37.597,-24.476,
00:00:17:483,0.314,0.074,0.936,-74.769,80.383,-16.785,cutRH
00:00:17:500,0.336,0.102,0.965,4.211,1.525,-35.645,
00:00:17:517,0.282,0.055,1.029,39.367,-3.357,-34.18,
00:00:17:533,0.303,0.028,1.02,-1.465,12.329,-19.288,
00:00:17:550,0.286,0.038,1.022,-39.246,-11.902,-2.991,
00:00:17:567,0.268,0.03,0.986,-53.284,-5.982,-12.269,
00:00:17:583,0.256,0.047,0.977,-60.303,31.921,-31.434,
00:00:17:600,0.298,0.06,0.982,-67.261,26.55,-20.325,
00:00:17:617,0.279,0.08,0.959,-75.562,-2.808,-7.325,
00:00:17:633,0.232,0.089,0.943,-57.74,-15.809,1.525,
00:00:17:650,0.218,0.061,0.948,-69.642,6.836,-2.869,
00:00:17:667,0.235,0.09,0.928,-108.338,10.559,6.469,
00:00:17:683,0.216,0.161,0.932,-87.708,-4.456,7.202,
00:00:17:700,0.217,0.165,0.969,-51.331,-8.179,4.882,
00:00:17:717,0.227,0.119,1.008,-39.917,9.887,-0.855,
00:00:17:733,0.273,0.118,1.015,-46.204,21.728,-16.724,
00:00:17:750,0.222,0.095,0.992,-33.387,-69.764,3.845,
00:00:17:767,0.163,0.036,0.984,-48.89,-51.331,-9.034,
00:00:17:783,0.189,0.036,0.98,-107.117,-12.085,-13.245,
00:00:17:800,0.228,0.064,0.996,-112.427,-18.921,-7.752,
00:00:17:817,0.203,0.055,0.999,-125.855,-24.231,-12.696,
00:00:17:833,0.198,0.035,1.01,-160.645,-27.222,-14.039,
00:00:17:850,0.194,0.026,1.002,-210.206,-36.683,-18.25,
00:00:17:867,0.17,-0.009,0.983,-283.936,-55.787,-16.846,
00:00:17:883,0.173,0.022,0.927,-374.451,-74.097,-0.123,
00:00:17:900,0.196,0.069,0.864,-429.261,-124.573,12.756,
00:00:17:917,0.197,0.128,0.868,-432.801,-181.397,14.282,
00:00:17:933,0.163,0.17,0.93,-423.523,-178.162,-31.373,
00:00:17:950,0.197,0.22,0.955,-428.223,-132.752,-56.946,
00:00:17:967,0.235,0.268,0.955,-413.208,-145.63,-58.35,
00:00:17:983,0.177,0.296,0.93,-381.531,-183.533,-42.176,
00:00:18:0,0.118,0.317,0.94,-362.061,-184.571,-10.987,
00:00:18:17,0.107,0.344,0.931,-368.47,-151.917,-4.395,
00:00:18:33,0.13,0.394,0.953,-337.464,-133.118,1.281,
00:00:18:50,0.133,0.387,0.92,-289.246,-169.861,12.878,
00:00:18:67,0.047,0.408,0.913,-246.827,-217.408,34.668,
00:00:18:83,0.021,0.427,0.899,-173.768,-199.158,33.081,
00:00:18:100,-0.014,0.337,0.938,-32.654,-245.85,64.514,
00:00:18:117,-0.053,0.304,0.936,-49.744,-163.819,70.556,
00:00:18:133,-0.059,0.295,0.926,-54.383,-119.69,62.377,
00:00:18:150,-0.053,0.271,0.915,-53.956,-77.698,53.283,
00:00:18:167,-0.012,0.291,0.924,-67.566,-31.006,49.682,
00:00:18:183,0.029,0.346,0.949,-73.914,-11.902,39.245,
00:00:18:200,0.058,0.381,0.971,-46.814,9.765,35.461,
00:00:18:217,0.09,0.383,0.963,-24.231,16.479,30.151,
00:00:18:233,0.081,0.386,0.96,-0.611,11.413,32.043,
00:00:18:250,0.04,0.376,0.961,17.639,24.047,33.935,
00:00:18:267,0.043,0.356,0.958,2.075,65.734,26.367,
00:00:18:283,0.079,0.34,0.923,0.183,83.068,38.391,
00:00:18:300,0.075,0.338,0.935,8.3,68.664,52.673,
00:00:18:317,0.045,0.311,0.93,2.197,80.81,57.556,
00:00:18:333,0.054,0.333,0.949,8.911,124.694,58.837,
00:00:18:350,0.097,0.32,0.941,14.587,134.948,35.644,
00:00:18:367,0.069,0.319,0.929,52.185,120.3,13.366,
00:00:18:383,0.081,0.307,0.969,187.194,149.658,-61.646,
00:00:18:400,0.075,0.274,0.961,209.35,176.025,-111.145,
00:00:18:417,0.083,0.207,0.869,204.528,261.23,-141.846,
00:00:18:433,0.204,0.35,1.017,185.424,148.803,-69.397,
00:00:18:450,0.122,0.37,1.02,311.706,98.938,-108.643,
00:00:18:467,0.114,0.229,0.997,360.534,117.126,-145.508,
00:00:18:483,0.111,0.211,1.009,288.757,126.22,-141.358,
00:00:18:500,0.103,0.283,0.989,242.614,151.977,-124.634,
00:00:18:517,0.098,0.269,0.971,273.437,151.367,-113.465,
00:00:18:533,0.082,0.251,0.997,291.931,180.236,-118.103,
00:00:18:550,0.169,0.296,1.018,332.031,190.612,-95.459,
00:00:18:567,0.171,0.228,0.936,361.999,155.334,-120.545,
00:00:18:583,0.143,-0.003,1.102,295.349,0.427,-78.919,
00:00:18:600,0.03,0.129,1.093,151.794,87.036,-46.875,
00:00:18:617,0.18,0.086,1.017,102.905,159.301,-58.472,
00:00:18:633,0.207,0.147,0.906,103.637,76.477,-50.843,
00:00:18:650,0.078,0.097,0.895,154.541,42.053,-47.791,
00:00:18:667,0.146,0.118,0.859,129.333,166.259,-48.462,
00:00:18:683,0.229,0.084,0.839,181.518,158.63,-63.538,
00:00:18:700,0.227,0.013,0.799,167.236,100.83,-72.083,
00:00:18:717,0.162,0.015,0.855,152.038,94.116,-89.6,
00:00:18:733,0.233,0.015,0.816,69.458,158.081,-92.53,
00:00:18:750,0.132,-0.028,0.767,70.739,226.196,-140.809,
00:00:18:767,0.29,-0.168,0.685,-144.165,174.072,-130.616,
00:00:18:783,0.137,0.235,0.869,-48.157,75.866,-56.641,
00:00:18:800,0.319,0.135,1.031,111.267,110.962,-112.977,
00:00:18:817,0.473,0.098,1.079,58.654,109.436,-112.183,
00:00:18:833,0.406,0.234,1.228,18.066,-4.151,-45.289,
00:00:18:850,0.474,0.14,1.113,77.087,-19.898,-50.66,
00:00:18:867,0.239,0.024,0.991,110.839,-179.81,-7.813,
00:00:18:883,0.3,-0.02,0.998,42.114,82.702,-23.011,
00:00:18:900,0.382,0.011,0.992,54.382,-18.189,-8.362,
00:00:18:917,0.26,-0.002,1.061,71.472,-57.068,-12.085,
00:00:18:933,0.259,-0.032,1.046,16.967,1.586,-6.47,
00:00:18:950,0.278,0.009,1.029,-38.88,-2.076,1.525,
00:00:18:967,0.263,0.014,0.982,-57.557,18.249,-1.954,
00:00:18:983,0.223,0.067,1.027,-61.158,24.841,-18.067,
00:00:19:0,0.219,0.007,1.018,-90.271,-2.015,-5.005,
00:00:19:17,0.217,0.075,1.061,-121.888,22.277,-20.935,
00:00:19:33,0.266,0.02,0.989,-77.454,1.22,-26.551,
00:00:19:50,0.191,-0.047,1.01,-119.446,-53.223,-12.269,
00:00:19:67,0.127,-0.065,1,-232.789,-5.738,-8.606,
00:00:19:83,0.153,-0.034,0.99,-315.125,10.131,-10.376,
00:00:19:100,0.215,0.069,0.953,-359.925,-0.061,-36.133,
00:00:19:117,0.22,0.117,0.92,-333.374,-49.317,-64.209,
00:00:19:133,0.211,0.093,0.913,-328.675,-89.6,-87.891,
00:00:19:150,0.209,0.077,0.93,-368.653,-135.315,-82.886,
00:00:19:167,0.21,0.097,0.938,-480.774,-149.414,-84.046,
00:00:19:183,0.205,0.224,0.908,-556.946,-164.185,-39.917,
00:00:19:200,0.172,0.287,0.857,-578.553,-205.75,-27.955,
00:00:19:217,0.135,0.376,0.854,-538.819,-223.572,-17.09,
00:00:19:233,0.062,0.401,0.846,-457.886,-238.77,-14.1,
00:00:19:250,0.047,0.339,0.821,-409.241,-259.583,-8.118,
00:00:19:267,0.018,0.363,0.874,-419.983,-290.039,35.522,
00:00:19:283,-0.042,0.443,0.899,-393.738,-256.958,70.251,
00:00:19:300,-0.045,0.455,0.869,-320.679,-198.67,50.842,
00:00:19:317,-0.046,0.476,0.848,-208.435,-220.459,32.898,
00:00:19:333,-0.094,0.416,0.862,-82.947,-246.46,39.55,
00:00:19:350,-0.12,0.329,0.926,-36.622,-197.449,26.428,
00:00:19:367,-0.082,0.294,0.988,-76.233,-115.845,43.396,
00:00:19:383,-0.025,0.361,1.031,-146.363,-8.667,50.598,
00:00:19:400,0.07,0.45,1.002,-162.415,33.203,56.701,
00:00:19:417,0.058,0.421,0.971,-42.176,-50.293,91.613,
00:00:19:433,0.01,0.354,0.977,-45.899,-55.726,95.764,
00:00:19:450,0.002,0.36,0.951,-82.459,-8.301,90.454,
00:00:19:467,0.034,0.383,0.944,-63.294,2.441,88.928,
00:00:19:483,0.019,0.374,0.943,-14.771,-7.325,80.078,
00:00:19:500,-0.014,0.347,0.951,39.611,31.372,53.283,
00:00:19:517,-0.009,0.316,0.954,80.871,96.923,23.376,
00:00:19:533,0.019,0.352,0.952,126.587,164.428,-17.029,
00:00:19:550,0.061,0.32,0.916,175.048,183.593,-55.603,
00:00:19:567,0.058,0.273,0.889,184.082,200.012,-77.82,
00:00:19:583,0.072,0.275,0.887,186.523,219.299,-80.384,
00:00:19:600,0.11,0.326,0.884,235.168,221.435,-109.436,
00:00:19:617,0.134,0.395,0.921,378.662,174.621,-142.762,
00:00:19:633,0.141,0.329,1.029,542.48,187.011,-178.65,
00:00:19:650,0.229,-0.085,0.966,382.263,154.907,-147.034,
00:00:19:667,0.128,0.269,1.104,10.437,199.218,-30.518,
00:00:19:683,0.208,0.343,1.043,239.441,240.356,-66.712,
00:00:19:700,0.171,0.271,1.003,270.63,196.228,-88.196,
00:00:19:717,0.201,0.221,1.003,283.203,110.473,-34.18,
00:00:19:733,0.173,0.25,1.042,314.026,54.26,-17.701,
00:00:19:750,0.143,0.182,1.039,329.223,39.001,-39.612,
00:00:19:767,0.121,0.161,1.014,299.621,44.799,-30.457,
00:00:19:783,0.114,0.145,0.992,263.183,61.523,-27.894,
00:00:19:800,0.132,0.101,0.96,214.294,58.898,-20.997,
00:00:19:817,0.121,0.071,0.968,147.4,59.265,-18.433,
00:00:19:833,0.123,0.097,0.923,89.294,87.402,-25.208,
00:00:19:850,0.173,0.123,0.887,95.947,88.317,-42.298,
00:00:19:867,0.176,0.112,0.873,69.641,88.684,-30.091,
00:00:19:883,0.179,0.137,0.911,59.021,99.121,-37.232,
00:00:19:900,0.19,0.157,0.915,63.659,101.928,-42.115,
00:00:19:917,0.223,0.177,0.907,75.622,99.609,-41.443,
00:00:19:933,0.176,0.174,0.859,125.122,35.888,-38.392,
00:00:19:950,0.067,0.098,0.869,152.588,18.554,-39.978,
00:00:19:967,0.074,0.092,0.936,121.582,130.615,-52.43,
00:00:19:983,0.229,0.119,0.899,84.899,178.711,-47.059,
00:00:20:0,0.186,0.107,0.909,127.99,47.546,-49.256,
00:00:20:17,0.095,0.039,0.973,148.376,86.608,-65.491,
00:00:20:33,0.356,-0.031,1.111,24.719,357.177,-171.814,
00:00:20:50,0.591,0.031,0.968,-135.193,290.466,-106.507,
00:00:20:67,0.222,0.149,1.019,10.009,-248.414,50.415,
00:00:20:83,0.099,0.109,1.347,133.3,1.77,-76.355,
00:00:20:100,0.58,-0.121,0.892,-17.334,140.136,-110.657,
00:00:20:117,0.229,0.053,0.87,-167.481,-100.403,-26.062,
00:00:20:133,0.112,0.068,0.913,-31.678,7.385,-11.231,
00:00:20:150,0.288,0.059,0.901,-4.151,82.031,-8.057,
00:00:20:167,0.326,0.142,1.03,20.202,13.427,2.746,
00:00:20:183,0.31,0.13,1.071,53.466,20.446,-15.32,
00:00:20:200,0.352,0.045,0.982,49.926,48.706,-20.447,
00:00:20:217,0.426,0.109,1.036,31.494,33.386,-18.372,
00:00:20:233,0.469,0.077,1.002,32.104,-13.306,-4.151,
00:00:20:250,0.327,0.068,0.928,21.362,-68.055,31.005,
00:00:20:267,0.246,0.061,0.889,29.907,-44.373,28.808,
00:00:20:283,0.234,0.049,0.861,50.964,-11.658,13.122,
00:00:20:300,0.22,0.028,0.901,62.194,-12.452,11.779,
00:00:20:317,0.236,0.028,0.911,38.513,19.592,-1.343,
00:00:20:333,0.25,0.038,0.951,-4.395,11.962,7.69,
00:00:20:350,0.267,0.065,1.038,-31.8,27.282,-0.061,
00:00:20:367,0.288,0.031,1.096,-92.102,27.648,-18.982,
00:00:20:383,0.218,0.047,1.108,-118.409,-9.461,17.761,
00:00:20:400,0.112,-0.016,1.11,-198.792,-57.618,25.268,
00:00:20:417,0.07,0.002,1.054,-261.719,-45.899,31.189,
00:00:20:433,0.024,0.052,0.875,-360.413,-37.11,29.235,
00:00:20:450,0.107,0.229,1.031,-319.458,-205.506,79.467,
00:00:20:467,-0.012,-0.039,0.862,-415.223,-160.584,-13.306,
00:00:20:483,0.032,0.071,0.782,-559.388,-82.764,70.007,cutRH
00:00:20:500,0.108,0.25,0.796,-551.88,-147.034,75.378,
00:00:20:517,0.094,0.339,0.856,-429.078,-229.676,42.602,
00:00:20:533,0.074,0.346,0.91,-299.988,-223.755,-6.226,
00:00:20:550,0.084,0.292,0.916,-235.657,-166.443,-58.106,
00:00:20:567,0.131,0.263,0.936,-260.804,-177.613,-55.481,
00:00:20:583,0.118,0.352,0.978,-264.039,-205.567,-25.94,
00:00:20:600,0.106,0.323,1.037,-254.151,-218.384,-20.02,
00:00:20:617,0.08,0.365,1.031,-256.47,-198.914,-2.686,
00:00:20:633,0.065,0.398,0.996,-224.61,-175.66,-2.747,
00:00:20:650,0.045,0.36,0.974,-147.156,-168.457,9.094,
00:00:20:667,0.027,0.318,0.96,-118.47,-148.011,4.211,
00:00:20:683,0.015,0.281,0.964,-109.864,-111.39,22.277,
00:00:20:700,0.009,0.294,0.953,-125.061,-64.881,26.245,
00:00:20:717,0.046,0.302,0.946,-103.394,-30.64,36.071,
00:00:20:733,0.082,0.316,0.948,-69.703,-10.254,38.452,
00:00:20:750,0.11,0.299,0.946,-40.223,-22.339,45.044,
00:00:20:767,0.079,0.312,0.935,-29.908,-36.866,44.25,
00:00:20:783,0.072,0.318,0.952,14.953,-37.903,39.794,
00:00:20:800,0.067,0.306,0.974,65.734,-50.599,23.62,
00:00:20:817,0.057,0.277,0.998,87.951,-35.645,15.747,
00:00:20:833,0.047,0.233,0.992,65.246,-9.034,7.812,
00:00:20:850,0.036,0.232,0.979,-1.099,34.423,8.056,
00:00:20:867,0.067,0.247,0.95,-50.843,53.649,22.338,
00:00:20:883,0.07,0.286,0.946,-67.139,49.438,33.996,
00:00:20:900,0.055,0.321,0.956,-44.434,48.889,30.578,
00:00:20:917,0.061,0.318,0.93,0.366,57.617,22.644,
00:00:20:933,0.067,0.282,0.916,22.399,53.161,17.7,
00:00:20:950,0.052,0.28,0.941,-25.757,99.792,5.371,
00:00:20:967,0.058,0.331,0.937,-11.109,141.54,-5.677,
00:00:20:983,0.053,0.37,0.954,51.818,194.763,-44.922,
00:00:21:0,0.065,0.3,0.941,107.666,241.272,-67.872,
00:00:21:17,0.035,0.237,0.904,98.693,299.865,-66.346,
00:00:21:33,0.026,0.248,0.773,39.489,397.4,-72.144,
00:00:21:50,0.079,0.125,1.075,275.085,166.137,-88.929,
00:00:21:67,0.212,0.198,1.04,177.002,203.064,-53.65,
00:00:21:83,0.238,0.303,1,247.558,117.431,-28.504,
00:00:21:100,0.166,0.167,0.983,315.551,76.538,-51.392,
00:00:21:117,0.135,0.101,0.944,262.756,110.534,-20.386,
00:00:21:133,0.176,0.096,0.912,223.999,109.68,-9.766,
00:00:21:150,0.173,0.098,0.881,208.068,97.961,-21.058,
00:00:21:167,0.149,0.04,0.829,207.275,88.989,-22.644,
00:00:21:183,0.155,0.049,0.897,199.524,115.844,-31.25,
00:00:21:200,0.223,0.008,0.827,147.4,140.442,-45.411,
00:00:21:217,0.215,0.051,0.907,110.839,104.37,-46.326,
00:00:21:233,0.361,0.139,0.976,52.063,242.92,-93.811,
00:00:21:250,0.395,0.079,0.764,20.446,111.633,-27.71,
00:00:21:267,0.208,0.203,0.831,108.703,-2.503,-42.298,
00:00:21:283,0.194,0.036,0.86,180.175,57.067,-78.797,
00:00:21:300,0.277,0.015,0.808,132.995,97.534,-94.422,
00:00:21:317,0.334,0.113,1.113,115.478,1.098,-74.524,
00:00:21:333,0.535,0.165,1.135,195.434,-13.062,-37.232,
00:00:21:350,0.215,-0.137,0.942,141.906,-148.011,-42.908,
00:00:21:367,0.075,-0.014,0.976,32.836,-38.453,-0.245,
00:00:21:383,0.322,0.026,0.96,94.787,68.298,-15.381,
00:00:21:400,0.368,-0.003,1.023,136.84,-0.489,-28.748,
00:00:21:417,0.271,-0.033,1.053,107.36,-22.644,0.305,
00:00:21:433,0.236,-0.083,1.01,67.627,14.099,4.516,
00:00:21:450,0.268,-0.082,1.003,35.217,13.549,6.652,
00:00:21:467,0.308,-0.107,0.989,-14.344,36.438,-15.198,
00:00:21:483,0.339,-0.045,0.974,-88.074,34.362,-7.447,
00:00:21:500,0.266,0.01,0.957,-106.141,9.155,6.958,
00:00:21:517,0.189,0.043,0.926,-104.92,-0.977,-3.418,
00:00:21:533,0.14,0.024,0.88,-104.676,13.977,-8.912,
00:00:21:550,0.177,0.091,0.925,-124.939,97.778,-38.88,
00:00:21:567,0.259,0.128,0.939,-46.509,55.114,-13.306,
00:00:21:583,0.212,0.112,1.015,10.315,16.357,-21.973,
00:00:21:600,0.276,0.079,1.008,4.76,57.19,-33.875,
00:00:21:617,0.265,0.08,1.008,2.746,-10.132,-15.809,
00:00:21:633,0.193,0.025,1.022,15.319,-6.409,-22.339,
00:00:21:650,0.229,-0.002,1.012,-26.246,39.428,-23.011,
00:00:21:667,0.216,0.016,0.963,-39.49,12.695,-14.527,
00:00:21:683,0.18,0.019,0.986,-21.363,30.395,-21.79,
00:00:21:700,0.22,-0.008,0.998,-31.373,63.354,-15.259,
00:00:21:717,0.244,-0.035,0.991,-51.209,56.762,-12.696,
00:00:21:733,0.247,-0.032,1.006,-95.581,35.705,-3.724,
00:00:21:750,0.236,-0.057,0.997,-146.485,52.307,-6.47,
00:00:21:767,0.23,-0.102,0.945,-236.268,50.476,5.127,
00:00:21:783,0.142,-0.109,0.936,-349.06,52.795,24.169,
00:00:21:800,0.105,-0.086,0.92,-426.148,62.133,43.762,
00:00:21:817,0.12,-0.038,0.873,-520.752,69.397,49.56,
00:00:21:833,0.115,0.023,0.837,-551.331,1.648,49.621,
00:00:21:850,0.146,0.246,1.003,-481.995,-20.203,-5.494,
00:00:21:867,0.182,0.157,1.028,-468.201,-17.579,-5.005,
00:00:21:883,0.283,0.295,1,-538.392,13.244,-43.58,
00:00:21:900,0.337,0.399,0.92,-482.178,-59.205,-44.19,
00:00:21:917,0.295,0.431,0.903,-351.136,-177.491,-34.913,
00:00:21:933,0.187,0.357,0.893,-250.916,-250.733,-27.222,
00:00:21:950,0.108,0.327,0.909,-229.432,-248.047,-5.738,
00:00:21:967,0.066,0.314,0.903,-261.048,-158.02,9.216,
00:00:21:983,0.135,0.295,0.86,-295.838,-122.437,23.864,
00:00:22:0,0.115,0.34,0.862,-274.048,-162.171,52.49,
00:00:22:17,0.094,0.339,0.923,-204.59,-198.67,59.57,
00:00:22:33,0.087,0.36,0.957,-146.241,-221.009,67.016,
00:00:22:50,0.042,0.327,0.976,-89.844,-214.783,49.743,
00:00:22:67,0.025,0.279,0.965,-73.609,-167.115,42.968,
00:00:22:83,0.029,0.265,0.949,-88.685,-130.127,43.823,
00:00:22:100,0.044,0.28,0.957,-93.018,-101.319,53.649,
00:00:22:117,0.069,0.311,0.955,-99.671,-66.407,48.828,
00:00:22:133,0.092,0.335,0.949,-48.34,-59.937,53.344,
00:00:22:150,0.096,0.307,0.957,-21.607,-49.439,41.87,
00:00:22:167,0.104,0.312,0.959,-6.714,-17.518,35.827,
00:00:22:183,0.117,0.313,0.947,4.882,-2.32,24.047,
00:00:22:200,0.113,0.292,0.924,34.545,-1.099,25.573,
00:00:22:217,0.101,0.281,0.911,33.874,4.272,35.766,
00:00:22:233,0.115,0.306,0.926,35.156,12.023,36.438,
00:00:22:250,0.128,0.307,0.933,38.024,12.878,29.113,
00:00:22:267,0.11,0.316,0.949,44.494,22.216,9.155,
00:00:22:283,0.126,0.298,0.933,57.739,31.127,3.479,
00:00:22:300,0.094,0.274,0.912,62.622,35.644,-0.855,
00:00:22:317,0.089,0.26,0.917,50.109,57.556,2.197,
00:00:22:333,0.096,0.231,0.936,28.015,87.097,-2.198,
00:00:22:350,0.083,0.224,0.931,-7.019,124.572,-7.447,
00:00:22:367,0.087,0.228,0.898,-23.926,143.432,-18.25,
00:00:22:383,0.059,0.261,0.917,-26.185,176.696,-35.523,
00:00:22:400,0.12,0.361,0.812,-19.654,290.954,-60.364,
00:00:22:417,0.305,0.395,0.972,140.93,113.098,-47.12,
00:00:22:433,0.145,0.323,1.034,281.067,37.353,-111.695,
00:00:22:450,0.129,0.215,1.019,237.609,127.563,-142.212,
00:00:22:467,0.167,0.258,0.972,171.325,143.554,-142.579,
00:00:22:483,0.151,0.29,0.913,194.275,98.755,-129.639,
00:00:22:500,0.13,0.255,0.919,255.798,35.888,-105.896,
00:00:22:517,0.077,0.225,0.941,277.526,38.269,-94.056,
00:00:22:533,0.101,0.203,0.994,288.452,80.139,-91.919,
00:00:22:550,0.172,0.161,1.044,274.475,94.604,-97.596,
00:00:22:567,0.222,0.16,1.06,217.041,63.293,-81.788,
00:00:22:583,0.203,0.197,1.063,185.547,25.329,-68.238,
00:00:22:600,0.178,0.227,1.065,197.265,28.259,-62.806,
00:00:22:617,0.187,0.158,1.03,200.378,24.841,-64.27,
00:00:22:633,0.175,0.129,1.025,166.381,5.249,-46.509,
00:00:22:650,0.14,0.132,0.971,151.977,17.089,-51.941,
00:00:22:667,0.161,0.123,0.935,172.18,42.663,-45.655,
00:00:22:683,0.158,0.076,0.942,140.991,39.978,-43.335,
00:00:22:700,0.129,0.057,0.936,146.484,49.865,-42.481,
00:00:22:717,0.166,0.005,0.981,100.341,89.233,-45.289,
00:00:22:733,0.175,0.053,0.933,53.527,71.106,-28.626,
00:00:22:750,0.152,0.043,0.953,50.781,112.609,-54.139,
00:00:22:767,0.193,0.037,0.939,30.212,107.177,-52.124,
00:00:22:783,0.333,0.161,1.161,-9.4,146.972,-36.377,
00:00:22:800,0.444,0.01,0.735,-104.004,208.862,-49.683,
00:00:22:817,0.207,0.18,0.943,-40.467,-66.895,4.516,
00:00:22:833,0.17,0.053,0.947,40.039,87.646,-23.743,
00:00:22:850,0.356,0.068,0.997,-54.261,122.68,-30.823,
00:00:22:867,0.381,0.118,0.988,-59.51,71.716,-26.917,
00:00:22:883,0.333,0.139,0.982,-37.842,22.827,-13.184,
00:00:22:900,0.295,0.107,0.96,-27.527,20.08,-18.311,
00:00:22:917,0.28,0.078,0.956,-32.471,6.53,-5.677,
00:00:22:933,0.246,0.058,0.967,-60.181,6.591,-12.452,
00:00:22:950,0.225,0.074,0.993,-92.957,27.465,-14.71,
00:00:22:967,0.276,0.148,0.964,-97.413,58.41,-20.691,
00:00:22:983,0.282,0.187,0.961,-69.214,14.587,-14.893,
00:00:23:0,0.272,0.217,0.972,-10.071,-6.287,-17.945,
00:00:23:17,0.278,0.137,0.903,42.297,-14.893,-28.016,
00:00:23:33,0.248,0.173,0.936,62.744,4.028,-26.612,
00:00:23:50,0.291,0.084,0.877,61.95,40.649,-50.904,
00:00:23:67,0.214,0.106,0.9,73.364,-26.673,0.976,
00:00:23:83,0.184,0.116,0.905,138.733,-6.531,-14.527,
00:00:23:100,0.217,0.073,0.905,152.588,12.817,-24.17,
00:00:23:117,0.213,0.092,0.923,136.413,27.404,-15.87,
00:00:23:133,0.177,0.103,0.944,175.048,10.925,-1.16,
00:00:23:150,0.262,0.064,1.014,166.626,60.18,-56.824,
00:00:23:167,0.321,0.052,1.057,119.934,15.93,-11.17,
00:00:23:183,0.255,0.062,1.059,102.234,-39.063,6.164,
00:00:23:200,0.195,-0.005,1.019,66.711,-19.532,-0.55,
00:00:23:217,0.173,-0.003,1.025,32.47,6.103,-3.479,
00:00:23:233,0.199,-0.03,1.009,-9.278,24.353,-8.362,
00:00:23:250,0.168,-0.011,1.038,-42.176,18.798,2.136,
00:00:23:267,0.175,-0.001,1.053,-94.788,37.231,-16.419,
00:00:23:283,0.209,-0.005,1.017,-137.085,31.555,-4.517,
00:00:23:300,0.199,0.006,1.008,-206.055,31.555,-7.691,
00:00:23:317,0.208,0.038,0.992,-237.793,19.47,3.967,
00:00:23:333,0.208,0.014,0.962,-248.291,11.657,15.93,
00:00:23:350,0.247,-0.011,0.956,-273.255,-11.658,13.122,
00:00:23:367,0.248,-0.034,0.914,-302.43,-88.99,31.189,
00:00:23:383,0.195,-0.014,0.959,-309.51,-146.424,39.306,
00:00:23:400,0.207,0.016,0.973,-350.892,-150.696,4.394,
00:00:23:417,0.244,0.075,0.994,-398.072,-169.556,-27.771,
00:00:23:433,0.241,0.138,1.001,-432.312,-201.233,-43.457,
00:00:23:450,0.22,0.192,1.005,-443.238,-223.816,-72.693,
00:00:23:467,0.184,0.28,0.983,-448.182,-233.704,-119.751,
00:00:23:483,0.19,0.255,0.936,-322.205,-280.03,-185.914,
00:00:23:500,0.174,0.185,0.984,-225.037,-400.269,-156.739,
00:00:23:517,0.044,0.164,1.01,-344.239,-426.026,-160.767,cutRH
00:00:23:533,0.033,0.247,0.994,-438.782,-362,-141.236,
00:00:23:550,0.048,0.271,0.976,-485.962,-406.739,-127.442,
00:00:23:567,-0.05,0.341,0.913,-476.563,-414.49,-114.991,
00:00:23:583,-0.096,0.384,0.882,-399.598,-398.011,-124.695,
00:00:23:600,-0.115,0.376,0.848,-301.27,-395.447,-146.729,
00:00:23:617,-0.15,0.358,0.831,-227.723,-398.926,-162.476,
00:00:23:633,-0.178,0.308,0.841,-187.806,-385.498,-160.218,
00:00:23:650,-0.198,0.318,0.881,-201.294,-303.589,-160.584,
00:00:23:667,-0.15,0.372,0.915,-234.803,-182.312,-159.18,
00:00:23:683,-0.059,0.431,0.863,-253.296,-147.034,-146.973,
00:00:23:700,-0.063,0.474,0.833,-137.33,-217.164,-123.719,
00:00:23:717,-0.107,0.396,0.852,-32.349,-242.432,-108.338,
00:00:23:733,-0.135,0.345,0.861,-62.867,-200.928,-108.094,
00:00:23:750,-0.1,0.364,0.862,-107.361,-173.645,-102.662,
00:00:23:767,-0.107,0.405,0.902,-80.628,-173.768,-89.661,
00:00:23:783,-0.1,0.45,0.939,-7.203,-116.333,-133.667,
00:00:23:800,-0.04,0.425,0.897,55.358,-74.891,-160.157,
00:00:23:817,-0.065,0.396,0.955,57.373,-82.215,-130.005,
00:00:23:833,-0.041,0.422,0.956,62.561,-24.17,-135.376,
00:00:23:850,-0.008,0.45,0.972,103.454,28.625,-135.56,
00:00:23:867,0.004,0.422,0.978,130.859,53.344,-118.958,
00:00:23:883,-0.031,0.404,0.984,106.75,108.398,-119.873,
00:00:23:900,-0.009,0.382,0.963,85.083,169.677,-114.93,
00:00:23:917,0.019,0.375,0.912,82.458,196.533,-116.761,
00:00:23:933,0.105,0.326,0.938,186.34,181.579,-71.106,
00:00:23:950,0.129,0.29,0.967,205.505,123.108,-83.68,
00:00:23:967,0.109,0.276,0.975,166.137,64.819,-34.79,
00:00:23:983,0.048,0.258,0.978,142.944,60.974,-25.086,
00:00:24:0,0.08,0.288,1.002,154.602,67.016,-31.739,
00:00:24:17,0.087,0.294,0.995,210.083,93.444,-20.325,
00:00:24:33,0.131,0.195,0.906,172.912,80.871,-3.357,
00:00:24:50,0.123,0.249,1.023,43.151,-13.916,17.822,
00:00:24:67,0.093,0.283,0.982,394.348,-42.725,12.39,
00:00:24:83,0.051,0.138,1.037,373.291,-113.953,22.216,
00:00:24:100,0.008,0.208,1.002,27.282,-3.174,11.535,
00:00:24:117,-0.018,0.259,1.005,63.903,1.159,22.338,
00:00:24:133,-0.002,0.295,0.99,130.859,33.264,19.775,
00:00:24:150,0.036,0.285,0.957,197.326,33.081,8.667,
00:00:24:167,0.015,0.14,0.891,189.575,-22.95,7.69,
00:00:24:183,-0.066,0.025,0.899,115.112,-18.494,30.151,
00:00:24:200,-0.104,-0.029,0.894,-27.832,42.175,-13.489,
00:00:24:217,-0.079,0.103,0.915,-109.314,148.437,-82.398,
00:00:24:233,0.098,0.228,1.045,-22.034,149.292,-93.018,
00:00:24:250,0.107,0.16,1.075,-26.001,56.03,-78.431,
00:00:24:267,-0.102,0.166,1.13,-23.377,27.221,-82.398,
00:00:24:283,-0.048,0.249,1.049,-10.621,97.778,-100.464,
00:00:24:300,0.071,0.077,0.906,-73.67,73.425,-91.736,
00:00:24:317,-0.02,0.139,0.89,-101.136,60.302,-96.253,
00:00:24:333,-0.025,0.102,0.922,-10.132,85.205,-124.695,
00:00:24:350,-0.056,0.117,0.999,29.541,177.063,-146.424,
00:00:24:367,0.142,0.149,1.102,-39.246,202.453,-140.442,
00:00:24:383,0.138,0.228,1.117,-24.17,145.935,-119.08,
00:00:24:400,0.099,0.226,1.142,1.709,142.151,-96.68,
00:00:24:417,-0.029,0.154,0.914,14.465,44.921,-17.884,
00:00:24:433,0.1,0.183,0.989,-59.082,126.587,-60.914,
00:00:24:450,0.194,0.321,1.028,5.188,107.177,-38.086,
00:00:24:467,0.129,0.245,0.899,120.727,41.076,-17.823,
00:00:24:483,0.103,0.103,0.927,109.436,35.4,-42.603,
00:00:24:500,0.216,0.191,0.981,80.566,18.615,-20.997,
00:00:24:517,0.215,0.214,1,125.549,10.681,-10.621,
00:00:24:533,0.214,0.135,0.983,96.069,7.019,-21.912,
00:00:24:550,0.073,0.151,0.987,104.98,-7.874,-0.855,
00:00:24:567,0.091,0.111,0.939,117.614,0.427,7.69,
00:00:24:583,0.005,0.079,0.932,119.323,-26.856,17.15,
00:00:24:600,0.002,0.038,0.992,75.439,20.141,1.281,
00:00:24:617,0.112,0.058,1.047,-29.725,44.433,-12.146,
00:00:24:633,0.128,0.143,1.09,-18.25,-2.381,-3.724,
00:00:24:650,0.126,0.127,1.133,-27.222,4.028,-9.644,
00:00:24:667,0.174,0.132,1.074,-59.571,0,-23.194,
00:00:24:683,0.091,0.136,0.985,-25.025,-38.025,4.882,
00:00:24:700,0.034,0.022,0.903,-32.288,-38.331,26.733,
00:00:24:717,0.015,0.017,0.85,-88.868,-14.832,49.194,
00:00:24:733,-0.017,-0.053,0.814,-153.199,-16.114,54.138,
00:00:24:750,-0.068,-0.08,0.837,-270.02,-14.283,36.56,
00:00:24:767,-0.071,-0.036,0.89,-398.194,28.93,-9.705,
00:00:24:783,-0.006,0.058,0.956,-479.615,60.485,-41.016,
00:00:24:800,0.115,0.312,1.039,-625.123,-0.367,-38.086,
00:00:24:817,0.144,0.441,1.003,-670.655,-54.078,-37.903,
00:00:24:833,0.137,0.5,1.007,-606.568,-184.51,1.525,
00:00:24:850,0.014,0.542,1.013,-489.319,-242.554,13.366,
00:00:24:867,-0.032,0.54,0.983,-363.587,-197.937,-7.752,
00:00:24:883,-0.006,0.475,0.897,-248.414,-203.553,11.474,
00:00:24:900,-0.101,0.416,0.946,-196.473,-172.791,137.268,
00:00:24:917,-0.077,0.407,0.962,-309.754,-174.378,151.855,
00:00:24:933,-0.119,0.492,0.94,-333.069,-151.062,175.659,
00:00:24:950,-0.097,0.444,0.904,-255.494,-106.141,207.092,
00:00:24:967,-0.172,0.41,0.838,-167.298,-80.689,164.611,
00:00:24:983,-0.141,0.384,0.813,-85.022,-53.833,146.057,
00:00:25:0,-0.126,0.296,0.841,-3.968,-56.946,130.676,
00:00:25:17,-0.196,0.265,0.846,-28.809,-31.739,100.402,
00:00:25:33,-0.195,0.321,0.888,-13.123,47.058,52.978,
00:00:25:50,-0.12,0.323,0.884,30.883,112.121,16.113,
00:00:25:67,-0.091,0.335,0.896,50.781,135.07,0.61,
00:00:25:83,-0.067,0.345,0.893,0.915,148.864,-19.593,
00:00:25:100,-0.036,0.423,0.894,-9.095,142.151,-13.916,
00:00:25:117,-0.032,0.425,0.887,31.738,119.079,-19.227,
00:00:25:133,-0.047,0.458,0.921,110.839,113.708,-7.569,
00:00:25:150,-0.02,0.376,0.93,130.31,97.351,-17.151,
00:00:25:167,-0.05,0.37,0.93,133.85,84.655,-1.282,
00:00:25:183,-0.055,0.372,0.942,117.187,106.994,-10.865,
00:00:25:200,-0.017,0.372,0.941,101.074,123.84,-18.25,
00:00:25:217,0,0.383,0.964,98.693,134.887,-11.231,
00:00:25:233,0.012,0.381,0.958,90.82,136.108,-3.602,
00:00:25:250,0.002,0.359,0.972,103.759,135.131,8.789,
00:00:25:267,0.017,0.333,0.98,47.058,135.498,7.019,
00:00:25:283,0.028,0.371,0.993,9.582,128.662,6.225,
00:00:25:300,0.044,0.488,0.971,31.921,67.504,-46.082,
00:00:25:317,-0.026,0.358,1.04,276.55,-48.706,-34.241,
00:00:25:333,-0.036,0.299,1.027,190.673,-17.395,-33.02,
00:00:25:350,-0.025,0.371,0.999,147.155,1.22,-20.935,
00:00:25:367,-0.046,0.37,0.979,209.838,31.005,-20.081,
00:00:25:383,-0.025,0.313,0.979,255.249,30.334,-13.306,
00:00:25:400,-0.01,0.328,0.953,275.268,25.085,-1.221,
00:00:25:417,0.021,0.217,0.896,266.296,-44.983,-0.061,
00:00:25:433,-0.081,0.153,0.962,294.616,-48.89,-18.128,
00:00:25:450,-0.125,0.115,0.958,240.6,32.165,-44.983,
00:00:25:467,-0.058,0.139,0.949,87.707,105.346,-96.009,
00:00:25:483,0.018,0.097,0.91,57.19,67.077,-83.191,
00:00:25:500,-0.059,0.164,0.973,31.189,67.138,-110.352,
00:00:25:517,-0.057,0.145,1.012,18.432,125.183,-111.939,
00:00:25:533,0.015,0.24,1.019,-66.59,164.978,-138.611,
00:00:25:550,0.065,0.329,0.988,-28.992,142.334,-126.282,
00:00:25:567,0.058,0.246,0.93,16.235,113.22,-115.174,
00:00:25:583,0.029,0.119,0.945,-12.024,90.515,-94.178,
00:00:25:600,0.288,0.154,1.003,-242.127,200.622,-170.899,
00:00:25:617,0.165,0.405,0.726,2.136,45.105,-62.378,
00:00:25:633,-0.022,0.131,0.816,129.699,-2.381,-104.92,
00:00:25:650,0.005,0.2,0.955,98.266,105.224,-96.741,
00:00:25:667,0.17,0.299,0.963,36.193,166.076,-121.277,
00:00:25:683,0.304,0.399,1.132,104.248,66.955,-74.28,
00:00:25:700,0.299,0.393,1.143,155.029,19.104,-13.855,
00:00:25:717,0.026,0.17,0.942,262.024,-85.938,40.1,
00:00:25:733,-0.037,0.084,1.046,135.864,12.146,-23.011,
00:00:25:750,0.168,0.201,1.038,90.332,82.641,-11.414,
00:00:25:767,0.209,0.187,1.002,138.183,18.676,-6.348,
00:00:25:783,0.175,0.139,1.039,140.869,12.451,-9.278,
00:00:25:800,0.189,0.104,1.031,74.096,16.662,9.338,
00:00:25:817,0.184,0.139,1.024,69.763,1.525,22.033,
00:00:25:833,0.132,0.077,0.982,73.364,-18.982,26.001,
00:00:25:850,0.041,0.034,0.989,44.555,-28.382,31.616,
00:00:25:867,0.037,0.025,1.024,-55.909,23.681,11.108,
00:00:25:883,0.072,0.149,1.045,-98.267,56.457,0.976,
00:00:25:900,0.062,0.168,1.037,-86.243,42.541,-1.831,
00:00:25:917,0.021,0.187,1.06,-86.365,-22.95,3.723,
00:00:25:933,-0.014,0.18,1.065,-101.258,-18.006,3.784,
00:00:25:950,-0.011,0.189,1,-122.071,-1.465,1.525,
00:00:25:967,-0.038,0.248,0.953,-71.839,21.606,-3.724,
00:00:25:983,0.012,0.213,0.911,-30.823,65.49,-4.517,
00:00:26:0,0.083,0.192,0.877,-74.952,23.925,-0.855,
00:00:26:17,0.01,0.234,0.926,-38.025,-13.123,16.784,
00:00:26:33,0,0.234,0.984,-8.545,52.795,-10.621,
00:00:26:50,0.082,0.234,0.994,-26.001,51.33,-27.161,
00:00:26:67,0.052,0.257,0.996,-4.029,-24.109,-14.039,
00:00:26:83,0.027,0.205,0.99,-3.907,-11.658,-27.161,
00:00:26:100,0.042,0.238,0.994,-7.63,4.089,-32.166,
00:00:26:117,0.062,0.223,1.058,21.728,-8.179,-23.255,
00:00:26:133,0.082,0.174,1.082,-31.556,-19.288,-28.87,
00:00:26:150,0.121,0.328,1.099,-2.503,-32.044,-69.031,
00:00:26:167,0.144,0.225,1.031,248.108,-116.456,-131.775,
00:00:26:183,-0.025,-0.085,1.032,256.775,-165.955,-100.831,
00:00:26:200,-0.15,-0.143,1.029,-3.052,-69.092,-79.895,
00:00:26:217,-0.127,-0.004,1.002,-221.497,28.198,-51.27,
00:00:26:233,-0.052,0.156,1.001,-291.748,43.396,-53.345,
00:00:26:250,0.019,0.164,1.022,-254.883,0.427,-45.777,
00:00:26:267,0.031,0.127,0.986,-345.215,-56.397,-68.726,
00:00:26:283,0.012,0.208,0.932,-434.327,-85.694,-52.124,
00:00:26:300,-0.01,0.317,0.88,-474.427,-63.355,-58.106,
00:00:26:317,-0.005,0.347,0.812,-448.365,-60.975,-38.819,
00:00:26:333,-0.029,0.409,0.774,-390.87,-52.124,-14.893,
00:00:26:350,-0.008,0.4,0.752,-318.726,-83.558,-1.038,
00:00:26:367,-0.034,0.467,0.824,-248.658,-153.687,12.023,
00:00:26:383,-0.068,0.461,0.898,-124.878,-201.233,7.629,
00:00:26:400,-0.09,0.452,1.005,-28.26,-172.303,7.446,
00:00:26:417,-0.082,0.418,1.005,40.222,-158.509,-1.526,
00:00:26:433,-0.117,0.292,0.97,43.64,-127.198,8.972,
00:00:26:450,-0.163,0.213,0.909,-62.867,-73.609,40.222,
00:00:26:467,-0.156,0.27,0.903,-173.523,-8.24,82.946,
00:00:26:483,-0.131,0.358,0.92,-201.416,30.334,80.627,
00:00:26:500,-0.082,0.412,0.964,-116.639,36.987,79.284,
00:00:26:517,-0.048,0.408,0.98,1.22,36.193,68.359,
00:00:26:533,-0.041,0.319,0.985,111.145,22.583,73.547,cutRH
00:00:26:550,-0.063,0.261,0.997,101.867,28.808,62.988,
00:00:26:567,-0.057,0.266,0.995,41.626,46.936,52.612,
00:00:26:583,-0.028,0.267,0.985,42.846,45.105,53.344,
00:00:26:600,-0.057,0.264,0.987,42.236,40.222,38.94,
00:00:26:617,-0.056,0.274,0.982,43.701,66.833,18.859,
00:00:26:633,-0.027,0.286,0.95,61.157,77.941,1.037,
00:00:26:650,-0.026,0.293,0.965,97.961,84.899,-9.583,
00:00:26:667,-0.006,0.266,0.96,76.843,93.505,-16.358,
00:00:26:683,0.004,0.255,0.943,53.405,96.618,-2.137,
00:00:26:700,0.015,0.263,0.95,28.625,99.243,19.409,
00:00:26:717,-0.001,0.275,0.964,-28.016,103.149,27.771,
00:00:26:733,-0.01,0.316,0.954,-43.274,129.15,27.465,
00:00:26:750,0.004,0.328,0.948,-37.049,163.696,-0.794,
00:00:26:767,0.002,0.351,0.846,-10.132,179.992,-0.794,
00:00:26:783,0.116,0.283,0.936,91.735,71.044,-40.406,
00:00:26:800,0.006,0.284,0.993,136.291,22.888,8.422,
00:00:26:817,-0.034,0.179,0.997,30.761,65.368,-37.964,
00:00:26:833,0.007,0.205,0.957,-94.361,77.392,-19.959,
00:00:26:850,0.005,0.289,0.975,-127.747,64.514,-23.804,
00:00:26:867,0.011,0.242,0.991,-146.851,44.921,-28.809,
00:00:26:883,-0.033,0.266,0.938,-182.984,34.24,-70.13,
00:00:26:900,-0.081,0.253,0.985,-98.816,34.118,-90.455,
00:00:26:917,-0.093,0.215,1.044,-92.469,95.886,-102.601,
00:00:26:933,-0.044,0.24,1,-144.715,118.042,-140.748,
00:00:26:950,0.004,0.25,1.058,-130.372,87.341,-147.461,
00:00:26:967,-0.028,0.235,1.007,-128.418,77.209,-150.269,
00:00:26:983,0.001,0.256,0.918,-128.052,110.107,-140.015,
00:00:27:0,0.066,0.226,0.882,-175.477,112.609,-148.621,
00:00:27:17,0.036,0.404,0.788,-124.939,137.573,-129.517,
00:00:27:33,0.173,0.425,0.967,-65.247,223.51,-117.31,
00:00:27:50,0.233,0.286,0.596,-128.968,240.905,-80.689,
00:00:27:67,0.171,0.55,0.879,-18.555,88.195,-76.966,
00:00:27:83,0.194,0.487,0.937,145.202,111.633,-45.594,
00:00:27:100,0.268,0.375,1.079,120.727,56.091,-38.575,
00:00:27:117,0.304,0.434,1.022,40.649,46.02,-12.269,
00:00:27:133,0.02,0.272,0.936,199.524,-104.676,8.3,
00:00:27:150,-0.007,0.182,1.025,85.205,29.357,-27.1,
00:00:27:167,0.157,0.293,0.988,-2.32,80.749,-45.655,
00:00:27:183,0.165,0.378,0.99,75.988,29.296,-35.157,
00:00:27:200,0.124,0.277,1.026,99.914,13.122,-15.503,
00:00:27:217,0.146,0.306,1.005,64.941,47.119,-12.879,
00:00:27:233,0.194,0.345,0.986,116.211,50.781,-17.151,
00:00:27:250,0.186,0.198,0.954,55.481,37.475,5.31,
00:00:27:267,0.134,0.29,0.937,34.118,43.335,20.141,
00:00:27:283,0.142,0.289,0.95,83.19,52.612,29.663,
00:00:27:300,0.135,0.245,0.928,44.006,27.587,42.541,
00:00:27:317,0.065,0.293,0.946,38.696,25.817,62.805,
00:00:27:333,0.056,0.269,0.951,75.927,63.903,67.443,
00:00:27:350,0.13,0.315,0.992,84.289,65.673,60.791,
00:00:27:367,0.138,0.279,0.996,93.2,28.93,49.682,
00:00:27:383,0.097,0.232,1.01,43.151,5.371,62.133,
00:00:27:400,0.052,0.244,0.983,-9.644,-5.066,45.837,
00:00:27:417,0.027,0.257,0.989,-3.54,10.253,25.268,
00:00:27:433,0.094,0.207,0.999,-33.081,28.381,9.277,
00:00:27:450,0.104,0.229,0.978,-88.868,-11.597,-4.456,
00:00:27:467,-0.063,0.171,0.904,109.314,-111.084,-25.33,
00:00:27:483,-0.155,0.093,0.92,15.808,-52.552,-41.138,
00:00:27:500,-0.157,0.154,0.885,-67.933,10.437,-46.021,
00:00:27:517,-0.114,0.205,0.89,-73.487,23.254,-53.772,
00:00:27:533,-0.078,0.223,0.916,-95.093,27.282,-55.726,
00:00:27:550,-0.002,0.262,1.005,-164.002,63.842,-54.444,
00:00:27:567,0.088,0.29,0.959,-236.023,32.653,-45.594,
00:00:27:583,0.043,0.306,0.945,-225.464,-24.17,-41.382,
00:00:27:600,0.019,0.268,0.96,-257.264,-25.513,-45.166,
00:00:27:617,0.05,0.346,0.954,-310.73,-5.921,-57.19,
00:00:27:633,0.12,0.373,0.914,-299.988,-29.358,-65.43,
00:00:27:650,0.131,0.389,0.927,-271.546,-87.464,-55.848,
00:00:27:667,0.086,0.437,0.919,-243.958,-97.352,-48.584,
00:00:27:683,0.074,0.434,0.902,-181.153,-89.539,-49.744,
00:00:27:700,0.078,0.43,0.886,-120.301,-111.695,-32.288,
00:00:27:717,0.044,0.409,0.887,-59.632,-127.747,-14.222,
00:00:27:733,-0.005,0.393,0.888,-18.311,-88.685,-20.997,
00:00:27:750,0.001,0.382,0.895,-6.043,-54.261,-12.33,
00:00:27:767,0.004,0.377,0.897,14.892,-25.391,16.235,
00:00:27:783,0.021,0.403,0.963,-26.795,-53.101,60.424,
00:00:27:800,-0.021,0.519,1.021,-1.465,-20.874,28.381,
00:00:27:817,0.1,0.578,1.051,179.077,-0.489,-18.799,
00:00:27:833,0.12,0.384,0.988,377.746,-85.572,0.488,
00:00:27:850,-0.039,0.214,0.979,278.991,-144.471,31.433,
00:00:27:867,-0.12,0.219,0.981,116.943,-87.769,55.908,
00:00:27:883,-0.082,0.257,0.954,39.856,-37.598,49.56,
00:00:27:900,0.044,0.334,1.132,202.942,82.702,-36.011,
00:00:27:917,0.174,0.411,1.17,183.838,133.117,-86.487,
00:00:27:933,0.283,0.346,1.106,131.897,17.639,-72.998,
00:00:27:950,0.148,0.31,1.011,80.566,-139.283,-2.93,
00:00:27:967,0.018,0.191,0.96,40.405,-229.981,61.889,
00:00:27:983,-0.077,0.244,0.972,-77.271,-185.059,61.279,
00:00:28:0,-0.038,0.34,0.999,-89.844,-179.383,57.067,
00:00:28:17,-0.063,0.323,0.914,84.899,-248.414,60.119,
00:00:28:33,-0.238,0.069,0.8,80.932,-201.6,64.086,
00:00:28:50,-0.277,0.026,0.742,-25.879,-132.63,103.82,
00:00:28:67,-0.312,0.075,0.745,-131.836,-32.349,101.196,
00:00:28:83,-0.267,0.202,0.781,-136.963,115.783,75.195,
00:00:28:100,-0.152,0.32,0.795,-57.618,204.406,14.343,
00:00:28:117,-0.047,0.307,0.796,78.979,185.363,-36.927,
00:00:28:133,-0.064,0.294,0.846,186.218,187.011,-63.233,
00:00:28:150,-0.021,0.28,0.908,201.599,235.351,-68.665,
00:00:28:167,0.085,0.302,0.91,179.992,253.296,-39.917,
00:00:28:183,0.101,0.272,0.923,166.259,218.567,-7.996,
00:00:28:200,0.039,0.226,0.899,94.848,213.195,31.189,
00:00:28:217,-0.062,0.332,0.753,-6.348,287.597,-17.395,
00:00:28:233,0.226,0.174,0.949,3.418,111.572,-38.514,
00:00:28:250,0.1,0.403,0.985,104.858,-55.054,-36.805,
00:00:28:267,0.02,0.195,1.135,290.954,-53.284,-140.503,
00:00:28:283,-0.023,0.105,1.253,141.601,91.796,-108.033,
00:00:28:300,0.07,0.164,1.162,-109.436,133.178,-97.107,
00:00:28:317,0.07,0.186,1.088,-178.589,-19.288,-82.337,
00:00:28:333,-0.127,0.132,1.079,-121.827,-69.947,-65.552,
00:00:28:350,-0.179,0.068,1.123,-143.555,85.876,-115.174,
00:00:28:367,-0.01,0.091,1.098,-231.202,217.346,-149.964,
00:00:28:383,0.111,0.142,1.047,-291.199,177.734,-144.898,
00:00:28:400,0.145,0.226,0.941,-265.625,198.364,-133.24,
00:00:28:417,0.429,0.366,1.091,-332.52,270.752,-141.663,
00:00:28:433,0.35,0.367,0.787,-285.889,66.101,12.817,
00:00:28:450,0.046,0.249,0.798,-126.831,-33.204,-27.71,
00:00:28:467,-0.023,0.273,0.775,-78.431,115.783,-54.566,
00:00:28:483,0.13,0.192,0.957,-112.793,169.311,-68.421,
00:00:28:500,0.297,0.425,1.019,-237.915,187.011,-59.327,
00:00:28:517,0.263,0.409,0.93,-160.584,75.317,-49.317,
00:00:28:533,0.035,0.398,1.03,-77.759,-30.335,-44.739,
00:00:28:550,0.04,0.364,0.987,-134.156,70.739,-51.087,
00:00:28:567,0.158,0.431,0.954,-144.165,97.473,-58.106,
00:00:28:583,0.204,0.499,0.961,-65.369,61.767,-50.843,
00:00:28:600,0.158,0.51,0.936,42.053,32.714,-45.289,
00:00:28:617,0.152,0.484,0.937,161.438,19.592,-37.903,
00:00:28:633,0.197,0.352,0.96,161.377,17.273,-10.071,
00:00:28:650,0.238,0.319,0.945,100.158,18.127,-6.653,
00:00:28:667,0.236,0.344,0.959,145.08,-25.818,7.507,
00:00:28:683,0.222,0.261,0.935,186.584,-52.247,15.686,
00:00:28:700,0.218,0.28,0.948,157.348,-31.8,18.493,
00:00:28:717,0.2,0.329,0.919,185.18,-65.003,36.377,
00:00:28:733,0.155,0.324,0.897,226.867,-81.788,42.236,
00:00:28:750,0.136,0.277,1.011,198.303,-62.623,33.142,
00:00:28:767,0.177,0.232,1.081,86.364,-52.674,34.973,
00:00:28:783,0.214,0.345,1.115,26.428,-76.477,5.554,
00:00:28:800,0.061,0.239,0.956,227.111,-203.492,0.366,
00:00:28:817,-0.141,0.083,0.956,245.056,-250.672,-20.447,
00:00:28:833,-0.281,-0.023,0.917,149.414,-197.937,-11.109,
00:00:28:850,-0.347,0.003,0.882,0.366,-103.699,-58.35,
00:00:28:867,-0.312,0.067,0.862,-58.96,-1.099,-94.849,
00:00:28:883,-0.218,0.065,0.87,-143.494,41.381,-126.343,
00:00:28:900,-0.142,0.093,0.903,-244.263,51.269,-103.272,
00:00:28:917,-0.097,0.169,0.929,-391.297,70.617,-79.041,
00:00:28:933,-0.066,0.317,0.96,-435.425,99.67,-74.769,
00:00:28:950,0.008,0.434,1.037,-366.7,146.85,-91.98,
00:00:28:967,0.125,0.451,1.046,-322.449,116.577,-76.966,
00:00:28:983,0.161,0.516,1.041,-258.789,29.846,-37.72,
00:00:29:0,0.158,0.517,1.033,-169.373,-36.255,-37.293,
00:00:29:17,0.133,0.43,1.022,-102.173,-99.61,-15.87,
00:00:29:33,0.074,0.402,1.039,-102.478,-99.183,-1.526,
00:00:29:50,0.091,0.388,0.984,-134.217,-75.806,-11.353,
00:00:29:67,0.076,0.398,0.931,-113.343,-116.639,3.54,
00:00:29:83,0.007,0.383,0.909,-62.134,-140.625,0.305,
00:00:29:100,-0.017,0.329,0.892,-35.157,-126.831,42.541,
00:00:29:117,-0.04,0.307,0.896,-104.676,-131.592,93.383,
00:00:29:133,-0.056,0.39,0.918,-159.18,-126.221,99.548,
00:00:29:150,-0.068,0.429,0.909,-71.106,-95.887,80.505,
00:00:29:167,-0.149,0.326,0.824,145.568,-134.217,41.442,
00:00:29:183,-0.195,0.238,0.814,214.111,-108.338,38.818,
00:00:29:200,-0.207,0.198,0.837,188.72,-72.998,31.494,
00:00:29:217,-0.207,0.21,0.875,134.704,-10.743,8.606,
00:00:29:233,-0.136,0.275,0.937,119.873,82.214,2.502,
00:00:29:250,-0.043,0.343,0.974,111.816,110.351,-21.79,
00:00:29:267,0.018,0.36,0.963,170.593,82.946,-16.602,
00:00:29:283,0.014,0.294,0.977,212.89,47.058,-5.249,
00:00:29:300,0.022,0.238,0.99,131.042,50.598,20.324,
00:00:29:317,0.042,0.257,0.984,-8.912,60.363,43.945,
00:00:29:333,0.045,0.302,1.002,-90.149,57.617,56.884,
00:00:29:350,0.053,0.377,0.985,-108.643,69.458,58.227,
00:00:29:367,0.069,0.396,0.955,-37.232,48.645,50.415,
00:00:29:383,0.049,0.35,0.933,58.96,28.137,29.968,
00:00:29:400,0.008,0.281,0.931,71.411,33.752,16.357,
00:00:29:417,-0.008,0.276,0.938,77.575,72.692,-6.531,
00:00:29:433,-0.001,0.297,0.946,101.379,99.121,-16.297,
00:00:29:450,-0.008,0.241,0.905,130.615,144.653,-40.345,
00:00:29:467,-0.041,0.174,0.799,101.135,244.506,-93.018,
00:00:29:483,0.113,0.14,0.916,13.671,183.227,-105.53,
00:00:29:500,0.153,0.464,1.061,22.644,72.937,-67.872,
00:00:29:517,0.011,0.359,1.045,308.838,42.663,-122.803,
00:00:29:533,0.007,0.095,1.034,231.811,32.836,-89.112,cutRH
00:00:29:550,-0.075,0.201,1.033,49.133,53.894,-50.477,
00:00:29:567,-0.051,0.211,0.985,70.434,128.234,-83.191,
00:00:29:583,-0.004,0.196,0.995,45.654,103.454,-79.407,
00:00:29:600,-0.018,0.259,1.007,31.25,135.437,-86.609,
00:00:29:617,0.08,0.233,0.993,24.902,185.363,-101.624,
00:00:29:633,0.164,0.173,0.955,-10.987,152.526,-95.093,
00:00:29:650,0.144,0.235,0.961,-15.076,109.253,-72.937,
00:00:29:667,0.219,0.268,1.048,47.241,97.534,-51.819,
00:00:29:683,0.399,0.167,0.936,-112.915,139.099,-65.491,
00:00:29:700,0.201,0.37,0.943,110.473,-62.989,16.54,
00:00:29:717,0.023,0.045,0.744,144.531,-22.278,19.348,
00:00:29:733,0.092,0.05,0.898,-24.17,105.041,-66.651,
00:00:29:750,0.225,0.298,1.074,-35.828,125.976,-72.083,
00:00:29:767,0.316,0.288,1.057,4.333,56.213,-20.935,
00:00:29:783,0.103,0.184,0.964,88.806,-62.745,-4.456,
00:00:29:800,-0.014,0.145,1.076,36.315,7.507,-31.373,
00:00:29:817,0.115,0.166,1.046,-71.473,91.43,-33.081,
00:00:29:833,0.127,0.23,1.066,-70.252,54.138,-38.636,
00:00:29:850,0.086,0.213,1.026,-29.969,26.977,-16.053,
00:00:29:867,0.097,0.197,1.017,-61.89,61.645,-28.138,
00:00:29:883,0.148,0.22,0.981,-76.477,51.025,-13.55,
00:00:29:900,0.133,0.235,0.947,-61.89,37.109,-4.7,
00:00:29:917,0.111,0.257,0.933,-28.077,51.452,-11.902,
00:00:29:933,0.112,0.22,0.938,-10.804,47.607,-4.822,
00:00:29:950,0.104,0.204,0.945,-35.157,42.602,-9.095,
00:00:29:967,0.112,0.245,0.985,-58.594,40.527,-19.532,
00:00:29:983,0.145,0.267,1.025,-30.396,31.738,-14.832,
00:00:30:0,0.138,0.254,0.989,-34.058,18.676,-24.537,
00:00:30:17,0.134,0.26,0.98,-37.903,10.62,-18.982,
00:00:30:33,0.149,0.268,0.967,-41.382,21.972,-12.635,
00:00:30:50,0.178,0.285,1.005,-43.946,-5.738,-13.611,
00:00:30:67,0.134,0.296,1.014,-5.555,-38.758,2.502,
00:00:30:83,0.106,0.219,1,-12.757,-38.453,-7.142,
00:00:30:100,0.109,0.237,0.988,-28.443,-35.279,-9.4,
00:00:30:117,0.123,0.244,1.001,-33.509,-45.35,-14.283,
00:00:30:133,0.115,0.279,1.036,-51.636,-34.607,-31.373,
00:00:30:150,0.184,0.323,1.031,-63.843,-31.495,-40.955,
00:00:30:167,0.135,0.361,1.009,-6.104,-75.867,-10.621,
00:00:30:183,0.069,0.382,1.055,88.317,-96.68,6.897,
00:00:30:200,0.032,0.231,1.023,101.928,-78.003,11.718,
00:00:30:217,-0.02,0.186,1.025,17.456,-58.838,19.409,
00:00:30:233,-0.024,0.215,0.957,26.062,-6.836,11.718,
00:00:30:250,-0.083,0.089,0.914,96.984,-47.791,31.616,
00:00:30:267,-0.178,0,0.906,-8.728,-30.762,23.864,
00:00:30:283,-0.185,0.067,0.864,-88.807,39.611,23.376,
00:00:30:300,-0.153,0.097,0.789,-81.604,33.996,-19.043,
00:00:30:317,-0.121,0.056,0.862,-53.04,-17.395,-38.392,
00:00:30:333,-0.047,0.054,0.824,-138.672,14.16,-31.006,
00:00:30:350,-0.045,0.133,0.878,-158.753,6.347,-31.861,
00:00:30:367,0.006,0.216,0.976,-169.373,75.134,-51.697,
00:00:30:383,0.157,0.296,1.074,-184.937,93.933,-60.425,
00:00:30:400,0.247,0.347,1.132,-204.041,46.814,-61.219,
00:00:30:417,0.28,0.387,1.126,-216.309,-37.232,-23.255,
00:00:30:433,0.191,0.366,1.055,-225.342,-133.179,0.183,
00:00:30:450,0.088,0.327,1.065,-234.681,-154.786,20.507,
00:00:30:467,0.053,0.341,1.014,-306.458,-117.615,28.686,
00:00:30:483,0.036,0.416,0.94,-329.651,-98.511,35.705,
00:00:30:500,0.012,0.431,0.871,-254.822,-110.901,44.921,
00:00:30:517,-0.017,0.386,0.853,-156.189,-140.076,57.312,
00:00:30:533,-0.028,0.387,0.934,-106.019,-178.284,87.89,
00:00:30:550,-0.052,0.363,0.943,-80.994,-194.214,85.876,
00:00:30:567,-0.069,0.349,0.951,-64.881,-179.139,98.266,
00:00:30:583,-0.086,0.325,0.912,-57.312,-161.194,96.801,
00:00:30:600,-0.115,0.298,0.868,-47.913,-144.41,95.092,
00:00:30:617,-0.147,0.271,0.866,-37.903,-127.198,88.134,
00:00:30:633,-0.161,0.275,0.855,-39.856,-78.125,61.706,
00:00:30:650,-0.139,0.311,0.848,-2.503,-56.031,39.001,
00:00:30:667,-0.124,0.323,0.873,69.58,-49.622,16.54,
00:00:30:683,-0.109,0.319,0.908,102.6,-19.288,-22.583,
00:00:30:700,-0.055,0.324,0.956,110.534,54.565,-51.026,
00:00:30:717,-0.032,0.316,0.94,92.041,66.406,-52.369,
00:00:30:733,-0.035,0.286,0.929,83.313,55.419,-29.48,
00:00:30:750,-0.045,0.273,0.949,22.888,85.266,-22.706,
00:00:30:767,-0.002,0.271,0.921,-61.463,109.741,-4.09,
00:00:30:783,-0.02,0.291,0.927,-101.807,115.6,4.943,
00:00:30:800,-0.073,0.33,0.905,-88.318,171.936,-22.217,
00:00:30:817,-0.043,0.31,0.89,-47.059,261.291,-93.445,
00:00:30:833,0.096,0.289,0.851,-53.406,285.827,-161.316,
00:00:30:850,0.211,0.5,1.112,14.526,56.64,-53.223,
00:00:30:867,0.037,0.438,1.105,213.44,0.488,-93.75,
00:00:30:883,0.009,0.221,1.08,115.905,33.874,-111.084,
00:00:30:900,-0.004,0.343,1.042,29.541,57.251,-92.102,
00:00:30:917,-0.01,0.322,0.94,80.566,31.127,-96.253,
00:00:30:933,-0.101,0.143,0.896,104.736,-23.133,-67.505,
00:00:30:950,-0.198,0.188,0.899,37.963,62.561,-85.572,
00:00:30:967,-0.114,0.194,0.908,39.245,166.137,-108.033,
00:00:30:983,-0.002,0.297,0.903,13.977,177.612,-122.376,
00:00:31:0,0.041,0.273,0.889,63.72,130.493,-104.737,
00:00:31:17,0.042,0.221,0.958,31.86,142.028,-94.178,
00:00:31:33,0.109,0.282,0.952,-28.748,163.757,-94.727,
00:00:31:50,0.288,0.265,0.786,-91.492,230.407,-115.906,
00:00:31:67,0.035,0.392,0.746,148.864,15.502,-27.466,
00:00:31:83,0.03,0.214,0.981,239.624,71.716,-74.524,
00:00:31:100,0.169,0.286,1.049,141.662,139.587,-71.106,
00:00:31:117,0.275,0.361,1.107,107.36,73.73,-57.007,
00:00:31:133,0.275,0.354,1.136,129.333,-4.7,-30.579,
00:00:31:150,0.306,0.321,1.197,129.943,-16.175,-29.297,
00:00:31:167,0.176,0.177,0.886,151.489,-48.279,36.682,
00:00:31:183,-0.03,0.066,0.954,181.945,-44.983,6.286,
00:00:31:200,0.11,0.082,0.977,64.697,103.149,-11.292,
00:00:31:217,0.217,0.157,1.01,34.545,68.603,-21.79,
00:00:31:233,0.205,0.197,1.069,43.151,53.955,-18.311,
00:00:31:250,0.223,0.149,1.024,-18.067,62.988,-10.987,
00:00:31:267,0.233,0.201,1.067,-48.584,31.982,9.155,
00:00:31:283,0.177,0.169,1.004,-7.752,5.188,34.362,
00:00:31:300,0.084,0.095,0.955,-1.343,-9.583,23.62,
00:00:31:317,0.019,0.113,0.938,-23.926,33.264,2.685,
00:00:31:333,0.073,0.161,1.026,-65.308,79.895,-21.424,
00:00:31:350,0.137,0.275,1.044,-125.184,99.487,-22.767,
00:00:31:367,0.146,0.311,1.02,-65.43,33.752,-14.954,
00:00:31:383,0.168,0.242,0.991,-64.881,17.273,-26.123,
00:00:31:400,0.132,0.263,0.943,-84.656,7.08,-4.944,
00:00:31:417,0.105,0.261,0.911,-43.457,4.699,11.413,
00:00:31:433,0.101,0.27,0.92,-5.982,7.385,10.07,
00:00:31:450,0.073,0.275,0.912,36.315,-16.541,20.019,
00:00:31:467,0.037,0.261,0.909,70.983,-25.33,30.517,
00:00:31:483,0.055,0.177,1.001,39.978,2.746,42.419,
00:00:31:500,0.109,0.231,1.036,-64.881,33.813,44.006,
00:00:31:517,0.128,0.295,1.041,-53.772,-12.757,46.691,
00:00:31:533,0.051,0.309,1.084,3.906,-45.533,38.33,
00:00:31:550,0.062,0.246,1.085,34.973,-27.222,32.531,
00:00:31:567,0.044,0.173,1.043,-42.603,-35.096,29.419,
00:00:31:583,0.013,0.225,1.039,-92.469,-19.288,16.967,
00:00:31:600,0.023,0.231,0.97,-57.129,-14.649,6.103,
00:00:31:617,-0.031,0.18,0.943,-8.24,-25.94,-4.883,
00:00:31:633,-0.161,0.07,0.86,-15.87,-62.989,-35.767,
00:00:31:650,-0.192,0.013,0.866,-127.015,-37.781,-33.57,
00:00:31:667,-0.154,0.079,0.887,-267.579,26.184,-41.626,
00:00:31:683,-0.06,0.212,0.948,-305.42,92.529,-64.087,
00:00:31:700,0.037,0.289,0.968,-281.983,78.552,-54.2,
00:00:31:717,0.078,0.347,1.015,-293.335,25.94,-74.097,
00:00:31:733,0.09,0.398,1.05,-264.466,-3.296,-69.458,
00:00:31:750,0.149,0.449,1.015,-248.719,-46.631,-46.692,
00:00:31:767,0.119,0.458,0.958,-202.576,-120.362,-33.02,
00:00:31:783,0.045,0.416,0.931,-163.819,-153.626,-22.217,
00:00:31:800,0.002,0.389,0.905,-153.26,-141.663,-5.433,
00:00:31:817,0.011,0.334,0.895,-138.855,-152.649,19.653,
00:00:31:833,-0.03,0.335,0.917,-165.833,-189.942,45.593,
00:00:31:850,-0.084,0.347,0.935,-162.415,-192.627,61.035,
00:00:31:867,-0.079,0.36,0.938,-137.513,-189.331,58.227,
00:00:31:883,-0.101,0.347,0.923,-78.553,-191.407,50.048,
00:00:31:900,-0.128,0.31,0.909,-23.438,-193.604,58.044,
00:00:31:917,-0.146,0.312,0.91,-18.799,-151.673,54.626,
00:00:31:933,-0.131,0.323,0.932,-13.123,-95.337,42.663,
00:00:31:950,-0.074,0.357,0.946,3.234,-57.496,39.306,
00:00:31:967,-0.047,0.361,0.934,20.141,-47.73,27.587,
00:00:31:983,-0.06,0.345,0.931,48.95,-47.486,24.414,
00:00:32:0,-0.087,0.331,0.916,52.978,-19.043,14.16,
00:00:32:17,-0.088,0.31,0.907,42.846,17.578,3.356,
00:00:32:33,-0.076,0.302,0.9,12.695,56.945,-2.015,
00:00:32:50,-0.07,0.325,0.9,7.629,101.867,-18.372,
00:00:32:67,-0.033,0.338,0.884,25.695,131.53,-12.085,
00:00:32:83,-0.013,0.299,0.872,18.615,137.451,-21.729,
00:00:32:100,-0.03,0.304,0.887,-6.592,157.287,-20.081,
00:00:32:117,-0.018,0.314,0.887,-25.696,195.373,-21.058,
00:00:32:133,-0.013,0.319,0.886,-28.138,226.928,-36.194,
00:00:32:150,-0.007,0.317,0.885,-3.724,253.234,-64.759,
00:00:32:167,0.083,0.334,0.866,49.743,282.043,-141.175,
00:00:32:183,0.278,0.445,1.079,111.267,7.019,-39.368,
00:00:32:200,0.048,0.476,1.076,248.108,-87.159,-50.477,
00:00:32:217,-0.027,0.262,1.086,243.896,-25.269,-93.506,
00:00:32:233,-0.042,0.288,1.051,88.684,40.954,-97.657,
00:00:32:250,0.023,0.251,0.975,63.11,49.377,-98.999,
00:00:32:267,-0.014,0.242,0.968,72.876,17.944,-84.351,
00:00:32:283,-0.07,0.338,1.054,151.489,101.196,-135.132,
00:00:32:300,0.029,0.296,1.004,166.076,137.024,-135.682,
00:00:32:317,0.056,0.31,0.945,169.983,55.114,-102.784,
00:00:32:333,-0.044,0.165,0.923,166.809,-18.494,-70.679,
00:00:32:350,-0.123,0.104,0.932,62.683,43.029,-77.332,
00:00:32:367,-0.047,0.195,0.908,12.939,149.597,-105.225,
00:00:32:383,0.122,0.234,0.928,44.738,181.64,-116.272,
00:00:32:400,0.172,0.174,0.947,43.273,96.435,-91.37,
00:00:32:417,0.141,0.198,0.981,5.188,69.397,-70.313,
00:00:32:433,0.348,0.239,1.041,-119.568,143.493,-92.469,
00:00:32:450,0.257,0.414,0.98,21.484,19.531,-9.766,
00:00:32:467,0.202,0.264,1.014,98.266,-15.503,-8.545,
00:00:32:483,0.113,0.223,0.94,110.901,-11.78,-2.32,
00:00:32:500,0.051,0.184,0.983,124.45,29.541,-4.456,
00:00:32:517,0.144,0.195,0.995,67.871,76.782,-25.818,
00:00:32:533,0.115,0.217,1.004,95.092,37.841,-13.428,cutRH
00:00:32:550,0.055,0.175,1.035,110.046,42.968,-9.827,
00:00:32:567,0.068,0.15,1.048,81.481,72.57,-27.283,
00:00:32:583,0.093,0.156,1.05,11.657,82.702,-27.405,
00:00:32:600,0.107,0.207,1.063,-9.705,60.424,-22.461,
00:00:32:617,0.106,0.222,1.018,-0.672,60.241,-16.602,
00:00:32:633,0.12,0.211,1.003,-12.574,46.875,-12.146,
00:00:32:650,0.166,0.246,1.01,-40.589,40.039,-5.31,
00:00:32:667,0.174,0.288,0.976,-29.541,34.79,8.3,
00:00:32:683,0.145,0.255,0.946,27.954,9.399,3.051,
00:00:32:700,0.108,0.235,0.952,61.096,22.949,14.282,
00:00:32:717,0.094,0.221,0.934,74.585,36.254,15.441,
00:00:32:733,0.098,0.212,0.952,77.392,47.912,24.169,
00:00:32:750,0.097,0.206,0.971,77.88,25.94,19.775,
00:00:32:767,0.096,0.216,1.019,63.964,6.836,24.231,
00:00:32:783,0.076,0.226,1.047,56.884,4.272,12.939,
00:00:32:800,0.097,0.208,1.073,29.296,-9.888,8.667,
00:00:32:817,0.082,0.215,1.072,-12.452,-15.259,7.873,
00:00:32:833,0.072,0.209,1.037,-23.682,-25.513,8.606,
00:00:32:850,0.044,0.189,0.999,-38.758,-41.443,5.065,
00:00:32:867,0.016,0.192,1,-14.039,-36.927,8.361,
00:00:32:883,0.056,0.177,0.99,-29.358,4.394,-4.456,
00:00:32:900,0.075,0.182,0.988,-69.031,-19.288,-6.836,
00:00:32:917,0.03,0.211,0.978,-47.425,-32.41,-3.357,
00:00:32:933,0.008,0.189,0.972,-16.785,-36.377,0.915,
00:00:32:950,-0.01,0.158,0.973,-31.556,-25.208,0.915,
00:00:32:967,-0.029,0.168,0.983,-52.43,-21.79,7.446,
00:00:32:983,-0.05,0.151,0.953,-78.553,-22.034,9.338,
00:00:33:0,-0.079,0.088,0.956,-112.305,-1.404,-2.137,
00:00:33:17,-0.089,0.09,0.965,-190.979,9.704,-18.555,
00:00:33:33,-0.047,0.141,0.958,-232.178,46.203,-45.289,
00:00:33:50,0.032,0.239,1.015,-223.328,41.259,-36.866,
00:00:33:67,0.062,0.312,1.03,-218.445,23.254,-48.096,
00:00:33:83,0.102,0.318,1.103,-209.717,28.015,-28.504,
00:00:33:100,0.185,0.335,1.087,-266.846,-28.687,-19.043,
00:00:33:117,0.151,0.392,1.043,-286.194,-90.088,-1.709,
00:00:33:133,0.125,0.394,1.005,-295.289,-146.424,7.08,
00:00:33:150,0.081,0.378,0.983,-286.927,-172.486,26.794,
00:00:33:167,0.02,0.359,0.942,-265.503,-156.373,39.856,
00:00:33:183,-0.032,0.352,0.849,-255.188,-153.687,44.921,
00:00:33:200,-0.072,0.341,0.802,-191.407,-190.552,58.776,
00:00:33:217,-0.11,0.367,0.875,-122.498,-242.005,47.668,
00:00:33:233,-0.174,0.332,0.8,6.103,-186.097,32.043,
00:00:33:250,-0.187,0.189,0.75,20.446,-155.884,-6.714,
00:00:33:267,-0.175,0.173,0.8,-22.644,-174.805,52.856,
00:00:33:283,-0.194,0.308,1.017,-79.651,-131.165,37.048,
00:00:33:300,-0.101,0.481,1.135,-101.014,122.619,-116.028,
00:00:33:317,0.167,0.535,1.124,38.024,99.67,-152.894,
00:00:33:334,0.081,0.424,1.029,238.708,-81.421,-129.517,
00:00:33:350,-0.097,0.203,0.958,197.448,-95.032,-96.924,
00:00:33:367,-0.105,0.174,0.886,-47.547,-11.536,-11.78,
00:00:33:384,-0.064,0.287,0.83,-198.975,-18.372,69.824,
00:00:33:400,-0.099,0.373,0.835,-192.322,-90.638,144.897,
00:00:33:417,-0.139,0.402,0.842,-139.954,-93.628,157.653,
00:00:33:434,-0.161,0.386,0.847,-54.566,-65.369,124.084,
00:00:33:450,-0.18,0.325,0.851,34.423,-10.804,63.232,
00:00:33:467,-0.153,0.267,0.851,69.702,56.823,30.822,
00:00:33:484,-0.115,0.228,0.867,64.209,127.685,4.394,
00:00:33:500,-0.093,0.21,0.869,-10.254,175.109,-13.123,
00:00:33:517,-0.091,0.267,0.88,-63.355,231.872,-30.274,
00:00:33:534,-0.052,0.33,0.897,-36.805,301.025,-66.529,
00:00:33:550,0.024,0.389,0.892,45.227,319.275,-100.403,
00:00:33:567,0.064,0.395,0.911,197.204,307.617,-141.419,
00:00:33:584,0.202,0.236,0.901,219.848,274.292,-174.988,
00:00:33:600,0.259,0.383,1.096,168.762,-25.574,-36.988,
00:00:33:617,-0.015,0.485,1.098,328.491,-45.289,-29.602,
00:00:33:634,0.048,0.253,1.084,271.545,75.317,-75.806,
00:00:33:650,0.078,0.317,1.056,128.173,86.425,-27.527,
00:00:33:667,0.042,0.355,1.001,140.442,41.381,-41.382,
00:00:33:684,0.003,0.28,0.966,207.519,0.061,-14.954,
00:00:33:700,-0.062,0.198,0.932,185.241,-3.357,-58.411,
00:00:33:717,-0.108,0.156,0.937,172.668,29.846,-44.983,
00:00:33:734,-0.087,0.181,0.961,144.348,94.055,-56.336,
00:00:33:750,-0.027,0.181,0.957,144.775,111.267,-53.528,
00:00:33:767,-0.015,0.171,1.003,139.465,134.338,-99.06,
00:00:33:784,0.066,0.14,1.026,77.087,194.58,-80.811,
00:00:33:800,0.155,0.212,1.001,-7.203,171.753,-79.712,
00:00:33:817,0.187,0.24,0.995,17.456,105.285,-69.214,
00:00:33:834,0.2,0.288,1.043,80.078,95.459,-70.862,
00:00:33:850,0.323,0.169,0.965,-18.25,62.316,-52.247,
00:00:33:867,0.195,0.266,0.911,50.781,-25.757,-27.894,
00:00:33:884,0.11,0.101,0.916,102.417,-16.358,-31.617,
00:00:33:900,0.12,0.098,0.93,78.491,20.324,-33.265,
00:00:33:917,0.14,0.149,0.97,78.857,57.434,-48.401,
00:00:33:934,0.131,0.108,1.004,127.563,35.705,-34.18,
00:00:33:950,0.061,0.086,1.071,120.788,11.535,-30.274,
00:00:33:967,0.06,0.08,1.117,30.578,50.781,-41.932,
00:00:33:984,0.076,0.129,1.12,-24.353,55.358,-41.993,
00:00:34:0,0.068,0.102,1.086,-46.998,52.368,-41.443,
00:00:34:17,0.023,0.109,1.066,-70.557,51.635,-47.059,
00:00:34:34,0.052,0.117,1.065,-81.482,80.627,-48.645,
00:00:34:50,0.076,0.167,1.042,-111.695,91.919,-51.453,
00:00:34:67,0.09,0.19,1.011,-109.07,80.322,-35.767,
00:00:34:84,0.087,0.215,0.999,-111.023,75.5,-17.579,
00:00:34:100,0.078,0.266,0.987,-83.435,87.219,-2.564,
00:00:34:117,0.125,0.31,0.983,-7.752,89.782,7.568,
00:00:34:134,0.155,0.307,0.966,50.537,47.607,17.639,
00:00:34:150,0.157,0.281,0.934,11.169,57.617,-10.926,
00:00:34:167,0.177,0.369,0.995,45.227,56.945,8.544,
00:00:34:184,0.195,0.354,0.994,98.755,21.423,14.343,
00:00:34:200,0.16,0.245,0.888,107.666,-10.621,4.272,
00:00:34:217,0.088,0.225,0.955,122.07,-11.048,-0.977,
00:00:34:234,0.135,0.188,0.97,80.81,33.203,-16.541,
00:00:34:250,0.183,0.207,0.979,31.372,-0.123,-6.226,
00:00:34:267,0.162,0.235,0.992,50.048,-26.185,1.953,
00:00:34:284,0.147,0.167,0.959,61.157,-64.759,-3.846,
00:00:34:300,0.111,0.139,0.999,31.372,-77.515,-4.273,
00:00:34:317,0.131,0.162,1.061,12.207,-44.129,-10.743,
00:00:34:334,0.185,0.15,1.078,-30.884,-50.477,-16.053,
00:00:34:350,0.139,0.179,1.218,-12.574,-143.799,3.173,
00:00:34:367,0.136,0.142,1.113,-67.139,-90.271,-21.241,
00:00:34:384,0.107,0.15,1.097,-69.275,-104.615,-3.785,
00:00:34:400,-0.018,0.061,1.031,-109.375,-130.738,-21.668,
00:00:34:417,-0.126,-0.002,0.985,-137.024,-143.555,-9.461,
00:00:34:434,-0.164,-0.039,0.981,-217.591,-85.022,-36.622,
00:00:34:450,-0.146,-0.013,0.932,-276.734,-39.734,-32.837,
00:00:34:467,-0.088,0.017,0.944,-306.702,-53.772,-44.556,
00:00:34:484,-0.039,0.035,0.973,-430.542,-78.309,-65.491,
00:00:34:500,0.023,0.145,1.013,-537.232,-53.101,-60.669,
00:00:34:517,0.116,0.457,0.958,-763.062,-121.094,-48.584,
00:00:34:534,0.119,0.498,0.923,-664.856,-232.3,-62.073,
00:00:34:550,0.051,0.479,0.913,-542.359,-397.767,-78.37,cutRH
00:00:34:567,-0.088,0.474,0.868,-411.377,-507.019,-139.771,
00:00:34:584,-0.143,0.423,0.848,-272.828,-555.909,-140.748,
00:00:34:600,-0.221,0.431,0.836,-199.707,-591.431,-206.055,
00:00:34:617,-0.261,0.375,0.831,-54.932,-609.192,-238.221,
00:00:34:634,-0.329,0.288,0.797,-45.411,-603.028,-304.749,
00:00:34:650,-0.424,0.264,0.757,-66.834,-469.605,-379.456,
00:00:34:667,-0.384,0.308,0.781,-65.247,-312.684,-429.749,
00:00:34:684,-0.296,0.336,0.77,-24.72,-245.301,-457.52,
00:00:34:700,-0.278,0.345,0.788,55.114,-240.601,-467.041,
00:00:34:717,-0.213,0.451,0.874,102.478,15.502,-492.981,
00:00:34:734,-0.077,0.459,0.841,104.37,59.204,-479.004,
00:00:34:750,-0.133,0.432,0.881,143.432,35.278,-398.926,
00:00:34:767,-0.075,0.454,0.897,67.932,116.577,-368.592,
00:00:34:784,0.005,0.538,0.933,17.517,152.893,-329.773,
00:00:34:800,0.058,0.53,0.913,-13.062,140.014,-307.007,
00:00:34:817,0.016,0.545,0.904,0.122,122.009,-250.184,
00:00:34:834,0.012,0.525,0.917,12.573,129.455,-222.413,
00:00:34:850,0.033,0.514,0.894,19.104,123.352,-175.477,
00:00:34:867,0.045,0.551,0.928,50.781,107.055,-139.1,
00:00:34:884,0.054,0.524,0.924,80.261,78.002,-108.948,
00:00:34:900,0.032,0.488,0.947,76.11,60.73,-78.003,
00:00:34:917,0.021,0.484,0.932,37.841,75.683,-44.739,
00:00:34:934,0.032,0.488,0.926,35.705,70.19,-10.01,
00:00:34:950,-0.012,0.462,0.924,49.926,80.444,6.774,
00:00:34:967,-0.027,0.444,0.923,63.964,101.867,25.39,
00:00:34:984,0.018,0.423,0.908,73.73,91.247,45.837,
00:00:35:0,-0.002,0.455,0.908,88.867,78.796,47.912,
00:00:35:17,-0.009,0.479,0.971,165.466,86.242,30.944,
00:00:35:34,0.019,0.405,0.99,203.125,105.529,24.658,
00:00:35:50,-0.033,0.31,0.991,148.01,148.132,-2.991,
00:00:35:67,-0.084,0.295,0.881,64.88,257.019,-34.058,
00:00:35:84,0.075,0.337,0.887,82.336,226.135,-66.59,
00:00:35:100,0.138,0.554,1.058,282.287,2.99,-9.278,
00:00:35:117,-0.017,0.305,1.071,382.141,-33.753,-93.445,
00:00:35:134,-0.066,0.196,1.036,112.915,49.255,-64.698,
00:00:35:150,-0.003,0.398,0.925,28.93,80.322,-31.25,
00:00:35:167,-0.017,0.384,0.893,153.259,46.447,-60.425,
00:00:35:184,-0.083,0.303,0.919,223.022,47.973,-62.195,
00:00:35:200,-0.101,0.278,0.927,186.462,113.708,-96.802,
00:00:35:217,-0.031,0.242,0.917,159.057,147.705,-88.929,
00:00:35:234,0.018,0.253,0.968,118.286,167.175,-86.67,
00:00:35:250,0.037,0.27,0.933,94.848,164.856,-84.717,
00:00:35:267,-0.012,0.306,0.935,141.967,145.263,-111.817,
00:00:35:284,0.031,0.252,0.927,180.664,177.551,-110.718,
00:00:35:300,0.321,0.262,1.06,41.503,279.724,-117.188,
00:00:35:317,0.279,0.377,0.878,151.977,13.671,24.475,
00:00:35:334,0.024,0.153,0.914,185.302,-35.767,-52.369,
00:00:35:350,0.057,0.179,0.93,95.52,73.059,-41.077,
00:00:35:367,0.165,0.28,1.003,65.063,114.135,-55.237,
00:00:35:384,0.29,0.33,1.084,91.003,80.627,-49.927,
00:00:35:400,0.25,0.252,0.942,97.29,6.591,1.464,
00:00:35:417,-0.014,0.189,0.963,145.63,-45.96,15.991,
00:00:35:434,0.076,0.173,0.98,93.383,95.398,-3.052,
00:00:35:450,0.188,0.194,0.975,82.885,66.955,-10.682,
00:00:35:467,0.149,0.209,1.023,86.853,39.856,-7.874,
00:00:35:484,0.172,0.204,1.019,82.458,45.044,-9.705,
00:00:35:500,0.18,0.17,1.013,47.18,13.855,-2.686,
00:00:35:517,0.139,0.155,1.004,46.02,13.122,4.516,
00:00:35:534,0.124,0.148,0.984,17.639,36.56,-7.447,
00:00:35:550,0.126,0.118,0.985,2.502,21.667,2.197,
00:00:35:567,0.11,0.157,1,-24.842,14.099,4.455,
00:00:35:584,0.107,0.197,1.031,-0.55,35.278,-1.893,
00:00:35:600,0.182,0.213,1.058,-36.255,39.978,-2.808,
00:00:35:617,0.193,0.219,1.06,-57.068,1.77,16.54,
00:00:35:634,0.141,0.192,0.963,-55.176,-28.26,26.794,
00:00:35:650,0.124,0.246,0.969,-96.924,-25.452,22.522,
00:00:35:667,0.138,0.312,0.992,-77.271,-25.452,21.057,
00:00:35:684,0.17,0.261,0.942,-19.349,-64.148,32.47,
00:00:35:700,0.039,0.16,0.947,-139.71,-105.53,79.406,
00:00:35:717,-0.061,0.223,0.932,-245.118,1.281,104.37,
00:00:35:734,-0.086,0.388,0.828,-112.915,17.334,53.588,
00:00:35:750,-0.082,0.202,0.861,142.883,-103.455,-22.583,
00:00:35:767,-0.185,0.068,0.914,124.267,-131.165,-70.496,
00:00:35:784,-0.193,-0.023,0.918,24.963,-64.82,-53.345,
00:00:35:800,-0.169,0.032,0.905,-148.011,14.587,-64.087,
00:00:35:817,-0.102,0.073,0.914,-198.548,45.105,-59.571,
00:00:35:834,0,0.157,1.01,-289.307,74.218,-74.646,
00:00:35:850,0.082,0.259,1.017,-314.026,70.556,-67.933,
00:00:35:867,0.141,0.308,1.019,-322.632,-1.648,-56.275,
00:00:35:884,0.114,0.392,1.024,-325.928,-57.496,-31.311,
00:00:35:900,0.105,0.459,0.991,-301.697,-67.078,-27.039,
00:00:35:917,0.126,0.448,0.946,-236.451,-134.949,-7.691,
00:00:35:934,0.063,0.412,0.938,-182.801,-204.895,4.028,
00:00:35:950,-0.005,0.394,0.925,-197.022,-201.294,5.798,
00:00:35:967,-0.024,0.391,0.89,-168.702,-197.327,17.15,
00:00:35:984,-0.047,0.368,0.889,-126.343,-209.656,21.362,
00:00:36:0,-0.078,0.335,0.903,-122.62,-217.835,37.719,
00:00:36:17,-0.098,0.356,0.948,-138.611,-221.863,43.701,
00:00:36:34,-0.104,0.401,0.963,-114.014,-213.196,31.555,
00:00:36:50,-0.099,0.359,0.936,-52.613,-219.361,5.249,
00:00:36:67,-0.133,0.308,0.913,-11.719,-240.906,11.291,
00:00:36:84,-0.182,0.28,0.905,-8.423,-214.478,14.77,
00:00:36:100,-0.186,0.264,0.921,-44.007,-159.18,26.367,
