TIMECODE,ACC_X,ACC_Y,ACC_Z,GYR_X,GYR_Y,GYR_Z,TAG
00:00:00:0,-0.983,-0.206,-0.267,-412.232,19.104,24.231,
00:00:00:16,-0.988,-0.222,-0.279,-528.931,29.419,32.104,
00:00:00:33,-0.998,-0.188,-0.294,-641.358,60.669,39.611,
00:00:00:50,-0.984,-0.175,-0.275,-737.915,73.608,58.166,
00:00:00:66,-0.968,-0.201,-0.262,-796.509,84.594,79.528,
00:00:00:83,-0.964,-0.249,-0.249,-822.327,85.998,72.57,
00:00:00:100,-0.967,-0.245,-0.209,-844.483,88.806,87.28,
00:00:00:116,-0.971,-0.233,-0.173,-853.211,90.454,88.195,
00:00:00:133,-0.974,-0.233,-0.166,-817.872,95.398,69.763,
00:00:00:150,-0.968,-0.251,-0.154,-700.684,101.928,58.593,
00:00:00:166,-0.971,-0.277,-0.135,-558.289,85.266,52.185,
00:00:00:183,-0.977,-0.285,-0.115,-428.772,78.247,31.433,
00:00:00:200,-0.977,-0.376,-0.134,-159.424,49.255,-1.038,
00:00:00:216,-0.96,-0.348,-0.126,-192.566,51.879,0.183,
00:00:00:233,-0.955,-0.349,-0.039,-278.443,63.659,5.92,
00:00:00:250,-0.942,-0.326,-0.094,-343.018,34.729,4.211,
00:00:00:266,-0.983,-0.282,-0.147,-297.059,31.677,-6.958,
00:00:00:283,-0.987,-0.413,-0.192,-133.728,-62.195,-33.387,
00:00:00:300,-1.07,-0.303,-0.024,-8.667,111.877,19.836,
00:00:00:316,-0.924,-0.318,-0.102,21.606,153.442,2.441,
00:00:00:333,-0.919,-0.274,-0.12,134.277,51.757,4.272,
00:00:00:350,-0.986,-0.268,-0.106,157.898,3.54,-33.143,
00:00:00:366,-0.982,-0.331,-0.077,167.114,50.109,14.953,
00:00:00:383,-0.939,-0.416,-0.106,40.161,19.958,37.963,
00:00:00:400,-0.938,-0.477,-0.109,-230.042,22.094,39.184,
00:00:00:416,-0.981,-0.455,-0.133,-577.942,-15.564,35.339,
00:00:00:433,-1.022,-0.345,-0.184,-786.072,25.451,25.146,
00:00:00:450,-1.012,-0.203,-0.133,-620.423,106.323,0.366,
00:00:00:466,-0.933,-0.213,-0.03,-351.746,99.609,59.082,
00:00:00:483,-0.915,-0.325,-0.001,-289.978,-5.31,35.644,
00:00:00:500,-0.974,-0.417,-0.077,-372.742,-41.871,2.502,
00:00:00:516,-1.047,-0.453,-0.165,-301.331,-15.381,-53.101,
00:00:00:533,-1.07,-0.307,0.008,-85.755,101.196,-87.769,
00:00:00:550,-0.93,-0.111,0.004,199.585,122.131,-139.832,
00:00:00:566,-0.868,-0.176,-0.165,460.205,-3.113,-120.667,
00:00:00:583,-0.972,-0.348,-0.11,482.971,-50.232,-86.548,
00:00:00:600,-1.015,-0.577,-0.159,181.03,34.24,-61.463,
00:00:00:616,-0.999,-0.663,-0.186,-108.948,115.173,-92.53,
00:00:00:633,-0.966,-0.451,-0.029,-407.715,183.838,-78.309,
00:00:00:650,-0.935,-0.299,-0.014,-593.567,177.429,-76.233,
00:00:00:666,-0.932,-0.222,-0.03,-493.592,163.147,-57.923,
00:00:00:683,-0.946,-0.211,0.016,-297.73,132.568,-8.851,
00:00:00:700,-0.946,-0.233,0.036,-96.07,99.853,-4.456,
00:00:00:716,-0.932,-0.282,0.071,47.302,61.34,25.573,
00:00:00:733,-0.944,-0.28,0.086,169.86,0.488,29.785,
00:00:00:750,-0.981,-0.306,0.125,206.665,-14.283,28.137,
00:00:00:766,-0.971,-0.29,0.086,186.95,-7.691,7.263,
00:00:00:783,-0.962,-0.27,0.062,267.456,-3.54,-9.034,
00:00:00:800,-0.964,-0.247,0.053,464.904,-21.79,-48.645,
00:00:00:816,-0.948,-0.239,0.009,756.103,-63.782,-91.065,
00:00:00:833,-0.951,-0.277,-0.096,944.946,-128.052,-83.191,
00:00:00:850,-0.989,-0.342,-0.193,1015.625,-141.724,-71.717,
00:00:00:866,-1.024,-0.354,-0.251,921.081,-77.881,-23.377,
00:00:00:883,-1.007,-0.374,-0.224,745.239,12.451,-21.302,
00:00:00:900,-0.968,-0.351,-0.216,507.507,37.414,-7.081,
00:00:00:916,-0.964,-0.332,-0.177,407.226,42.358,-29.114,
00:00:00:933,-0.967,-0.317,-0.151,440.734,14.892,-44.983,
00:00:00:950,-0.96,-0.322,-0.136,566.406,-1.343,-42.725,
00:00:00:966,-0.974,-0.369,-0.117,804.443,-36.927,-93.14,
00:00:00:983,-0.963,-0.344,-0.096,1099.243,-59.571,-132.752,
00:00:01:0,-0.948,-0.416,-0.12,1213.44,-134.644,-120.179,
00:00:01:16,-0.965,-0.382,-0.129,1065.612,-113.282,-117.981,
00:00:01:33,-0.959,-0.348,-0.152,903.625,-93.201,-78.553,
00:00:01:50,-0.975,-0.27,-0.206,782.165,-87.647,-112,
00:00:01:66,-0.939,-0.218,-0.25,674.926,-67.017,-71.289,
00:00:01:83,-0.951,-0.224,-0.279,524.841,-59.388,-49.805,
00:00:01:100,-0.989,-0.242,-0.334,345.642,-59.51,-51.514,
00:00:01:116,-1.006,-0.2,-0.294,229.736,-12.085,-53.956,
00:00:01:133,-0.968,-0.205,-0.282,83.007,-5.738,-42.786,
00:00:01:150,-0.959,-0.207,-0.257,-52.552,-4.151,-46.143,
00:00:01:166,-0.987,-0.215,-0.248,-150.879,-4.029,-62.012,
00:00:01:183,-0.983,-0.215,-0.25,-186.829,19.531,-53.894,
00:00:01:200,-0.965,-0.229,-0.261,-180.542,28.991,-47.12,
00:00:01:216,-0.971,-0.249,-0.27,-154.297,30.883,-49.622,
00:00:01:233,-0.972,-0.208,-0.258,-127.381,38.757,-43.641,
00:00:01:250,-0.955,-0.204,-0.255,-91.431,37.963,-36.133,
00:00:01:266,-0.997,-0.204,-0.269,-23.865,22.338,-48.645,
00:00:01:283,-0.98,-0.22,-0.262,20.69,22.277,-45.777,
00:00:01:300,-0.987,-0.224,-0.243,30.822,38.208,-53.894,
00:00:01:316,-0.971,-0.248,-0.226,-68.604,31.066,-39.917,
00:00:01:333,-0.979,-0.192,-0.239,-17.456,41.015,-56.275,
00:00:01:350,-0.965,-0.186,-0.252,31.372,40.893,-31.373,
00:00:01:366,-0.972,-0.198,-0.27,84.35,27.16,-38.758,
00:00:01:383,-0.987,-0.212,-0.262,55.358,30.639,-37.781,
00:00:01:400,-0.989,-0.215,-0.205,-6.409,49.743,-41.687,
00:00:01:416,-0.964,-0.204,-0.195,-93.567,34.545,-26.307,
00:00:01:433,-0.971,-0.161,-0.198,-81.788,26.428,-37.11,
00:00:01:450,-0.963,-0.164,-0.206,-47.181,15.625,-18.738,
00:00:01:466,-0.977,-0.188,-0.224,-20.813,-7.63,-28.565,
00:00:01:483,-0.979,-0.209,-0.246,-35.889,0.61,-19.898,
00:00:01:500,-0.977,-0.227,-0.249,-78.614,1.525,-19.104,
00:00:01:516,-0.981,-0.195,-0.234,-226.929,20.019,-10.621,
00:00:01:533,-0.968,-0.187,-0.208,-220.704,17.395,-3.235,
00:00:01:550,-0.959,-0.188,-0.242,-192.933,-1.831,5.737,
00:00:01:566,-0.992,-0.209,-0.204,-155.213,-9.888,5.127,
00:00:01:583,-0.965,-0.219,-0.167,-138.367,13.855,23.925,
00:00:01:600,-0.948,-0.231,-0.21,-95.093,-14.649,26.184,
00:00:01:616,-0.984,-0.171,-0.227,6.286,-13.611,16.601,
00:00:01:633,-0.981,-0.204,-0.251,83.618,-0.184,45.471,
00:00:01:650,-0.981,-0.247,-0.281,97.412,2.868,36.315,
00:00:01:666,-0.981,-0.256,-0.263,115.051,18.066,15.869,
00:00:01:683,-0.975,-0.26,-0.276,92.346,18.31,8.667,
00:00:01:700,-0.977,-0.274,-0.256,53.527,23.193,1.586,
00:00:01:716,-0.972,-0.282,-0.257,-34.729,23.925,-5.494,
00:00:01:733,-0.967,-0.288,-0.238,-131.592,27.587,-8.484,
00:00:01:750,-0.965,-0.293,-0.239,-233.887,22.277,-13.611,
00:00:01:766,-0.965,-0.302,-0.209,-327.332,32.836,-8.362,
00:00:01:783,-0.967,-0.31,-0.193,-430.42,30.761,-2.747,
00:00:01:800,-0.969,-0.265,-0.172,-484.742,35.766,-3.357,
00:00:01:816,-0.959,-0.257,-0.193,-501.954,26.55,3.906,
00:00:01:833,-0.959,-0.268,-0.177,-520.691,24.108,20.263,
00:00:01:850,-0.957,-0.313,-0.194,-562.378,17.761,26.977,
00:00:01:866,-0.969,-0.345,-0.194,-603.394,18.31,23.925,
00:00:01:883,-0.973,-0.363,-0.216,-658.265,22.399,31.86,
00:00:01:900,-0.99,-0.299,-0.223,-701.05,23.986,22.155,
00:00:01:916,-0.986,-0.242,-0.233,-753.663,60.974,33.935,
00:00:01:933,-0.973,-0.246,-0.203,-651.673,80.2,34.118,
00:00:01:950,-0.963,-0.268,-0.178,-568.787,68.603,26.855,
00:00:01:966,-0.966,-0.324,-0.177,-467.652,59.936,10.315,
00:00:01:983,-0.972,-0.334,-0.143,-436.89,58.227,-5.921,
00:00:02:0,-0.969,-0.346,-0.135,-461.182,69.458,-13.367,
00:00:02:16,-0.967,-0.342,-0.102,-469.056,83.679,-11.109,
00:00:02:33,-0.957,-0.336,-0.109,-451.783,72.753,-28.016,
00:00:02:50,-0.96,-0.333,-0.126,-442.261,65.551,-32.532,
00:00:02:66,-0.972,-0.334,-0.109,-448.792,65.673,-28.321,
00:00:02:83,-0.968,-0.334,-0.085,-490.845,78.857,-23.56,
00:00:02:100,-0.954,-0.325,-0.072,-541.138,79.345,-12.818,
00:00:02:116,-0.956,-0.328,-0.096,-585.083,57.678,-15.748,
00:00:02:133,-0.98,-0.334,-0.096,-638.184,58.41,-10.132,
00:00:02:150,-0.992,-0.352,-0.06,-703.492,110.229,1.77,
00:00:02:166,-0.977,-0.378,-0.045,-748.536,134.399,9.216,
00:00:02:183,-0.957,-0.365,-0.02,-789.795,145.08,13.916,
00:00:02:200,-0.949,-0.338,-0.018,-836.365,135.62,12.329,
00:00:02:216,-0.965,-0.332,0.007,-818.848,137.939,9.277,
00:00:02:233,-0.97,-0.35,0.042,-792.42,160.217,19.287,
00:00:02:250,-0.957,-0.381,0.07,-786.438,162.414,11.779,
00:00:02:266,-0.951,-0.372,0.076,-768.738,156.128,-0.245,
00:00:02:283,-0.953,-0.348,0.074,-726.929,130.432,-7.386,
00:00:02:300,-0.96,-0.31,0.095,-636.902,128.479,2.441,
00:00:02:316,-0.952,-0.315,0.116,-544.434,128.296,4.089,
00:00:02:333,-0.946,-0.322,0.119,-414.795,102.722,1.77,
00:00:02:350,-0.948,-0.333,0.136,-318.848,88.562,5.493,
00:00:02:366,-0.954,-0.332,0.11,-246.216,56.945,9.399,
00:00:02:383,-0.957,-0.333,0.116,-195.374,61.157,16.54,
00:00:02:400,-0.965,-0.328,0.026,-195.313,35.4,24.719,
00:00:02:416,-0.999,-0.441,-0.061,-188.904,48.095,29.296,
00:00:02:433,-1.006,-0.368,0.166,-88.257,169.677,82.824,
00:00:02:450,-0.91,-0.415,0.21,-111.634,132.141,145.385,
00:00:02:466,-0.855,-0.443,0.14,17.456,94.238,90.637,
00:00:02:483,-0.973,-0.467,0.127,70.007,37.78,-2.869,
00:00:02:500,-1.072,-0.385,0.155,-128.602,176.147,-18.86,
00:00:02:516,-0.977,-0.422,0.358,-110.352,265.869,-64.759,
00:00:02:533,-0.801,-0.431,0.548,-192.2,194.885,-56.519,
00:00:02:550,-0.795,-0.441,0.422,-158.875,-54.078,-106.019,
00:00:02:566,-0.939,-0.283,0.245,141.845,-152.466,-117.737,
00:00:02:583,-0.982,-0.121,0.234,462.951,-94.849,-105.286,
00:00:02:600,-0.912,-0.161,0.127,610.962,-107.117,-82.764,
00:00:02:616,-0.896,-0.369,0.164,656.311,-136.902,-60.12,
00:00:02:633,-0.958,-0.439,0.003,269.836,-159.058,-10.01,
00:00:02:650,-1.013,-0.389,-0.057,179.199,-95.215,-41.382,
00:00:02:666,-1.021,-0.296,0.035,382.263,-12.391,-32.776,
00:00:02:683,-0.938,-0.305,0.147,627.563,-6.043,-23.499,
00:00:02:700,-0.897,-0.506,0.148,588.928,-53.284,-49.927,
00:00:02:716,-0.945,-0.625,0.114,306.884,-62.928,-64.209,
00:00:02:733,-0.98,-0.563,0.143,88.44,6.042,-100.159,
00:00:02:750,-0.948,-0.387,0.139,39.184,22.155,-118.103,
00:00:02:766,-0.918,-0.244,0.13,200.561,11.047,-129.7,
00:00:02:783,-0.915,-0.18,0.11,346.557,-53.04,-116.639,
00:00:02:800,-0.958,-0.217,0.027,578.125,-103.638,-163.88,
00:00:02:816,-0.998,-0.195,0.084,779.968,-91.98,-136.841,
00:00:02:833,-0.971,-0.232,0.039,825.744,-109.192,-97.107,
00:00:02:850,-0.936,-0.292,0.059,936.767,-146.119,-119.568,
00:00:02:866,-0.94,-0.31,0.055,918.884,-205.323,-82.52,
00:00:02:883,-0.949,-0.305,0.1,1067.566,-224.488,-106.263,
00:00:02:900,-0.919,-0.243,0.035,1210.266,-253.113,-58.35,
00:00:02:916,-0.891,-0.262,-0.015,1302.978,-289.246,-8.24,
00:00:02:933,-0.893,-0.342,-0.178,1435.058,-342.286,-9.034,
00:00:02:950,-0.944,-0.385,-0.292,1476.928,-394.654,-0.733,
00:00:02:966,-1.022,-0.389,-0.288,1416.442,-356.385,-3.724,
00:00:02:983,-1.014,-0.335,-0.282,1300.293,-232.789,6.286,
00:00:03:0,-0.932,-0.303,-0.267,1270.202,-212.83,-15.015,
00:00:03:16,-0.917,-0.294,-0.27,1261.779,-282.105,-34.546,
00:00:03:33,-0.963,-0.263,-0.319,1259.826,-292.664,-52.43,
00:00:03:50,-0.974,-0.274,-0.389,1135.681,-251.893,-39.124,
00:00:03:66,-0.952,-0.266,-0.414,905.944,-199.036,-25.696,
00:00:03:83,-0.93,-0.339,-0.441,637.268,-164.856,-21.607,
00:00:03:100,-0.938,-0.381,-0.401,294.128,-138.062,-10.743,
00:00:03:116,-0.955,-0.287,-0.36,73.181,-105.164,-12.879,
00:00:03:133,-0.937,-0.237,-0.381,-37.232,-92.835,1.464,
00:00:03:150,-0.933,-0.223,-0.416,6.408,-82.032,-16.541,
00:00:03:166,-0.929,-0.233,-0.413,15.625,-78.064,-14.039,
00:00:03:183,-0.938,-0.209,-0.426,-22.278,-69.825,-20.935,
00:00:03:200,-0.944,-0.211,-0.407,-31.311,-46.326,-39.917,
00:00:03:216,-0.917,-0.189,-0.378,-25.818,-54.749,-30.64,
00:00:03:233,-0.926,-0.216,-0.408,22.949,-70.13,-63.538,
00:00:03:250,-0.921,-0.229,-0.383,43.029,-73.731,-58.594,
00:00:03:266,-0.91,-0.222,-0.392,-3.724,-95.643,-60.486,
00:00:03:283,-0.904,-0.168,-0.399,-1.648,-111.023,-60.914,
00:00:03:300,-0.911,-0.24,-0.409,8.361,-128.235,-79.041,
00:00:03:316,-0.933,-0.224,-0.41,6.042,-149.414,-88.257,
00:00:03:333,-0.927,-0.235,-0.431,9.216,-147.278,-102.539,
00:00:03:350,-0.898,-0.231,-0.484,75.256,-160.706,-97.107,
00:00:03:366,-0.907,-0.102,-0.541,145.08,-181.702,-122.864,
00:00:03:383,-0.92,-0.07,-0.579,283.691,-165.223,-132.691,
00:00:03:400,-0.896,-0.231,-0.597,284.79,-149.048,-122.864,
00:00:03:416,-0.93,-0.316,-0.498,95.947,-78.614,-172.669,
00:00:03:433,-0.942,-0.19,-0.44,83.618,-10.498,-176.514,
00:00:03:450,-0.976,-0.247,-0.389,221.984,49.743,-130.372,
00:00:03:466,-0.975,-0.39,-0.541,152.526,110.656,-159.18,
00:00:03:483,-0.944,-0.33,-0.518,189.27,147.644,-206.421,
00:00:03:500,-0.97,-0.275,-0.579,142.578,206.726,-215.943,
00:00:03:516,-0.927,-0.293,-0.607,-42.298,306.762,-230.957,
00:00:03:533,-0.93,-0.317,-0.567,-182.923,382.08,-257.813,
00:00:03:550,-0.936,-0.201,-0.558,-224.793,456.115,-266.541,
00:00:03:566,-0.957,-0.119,-0.617,-196.595,525.756,-251.038,
00:00:03:583,-0.935,-0.133,-0.606,-88.929,611.694,-266.114,
00:00:03:600,-0.956,-0.2,-0.541,7.812,682.312,-305.054,
00:00:03:616,-0.908,-0.319,-0.506,30.7,733.093,-379.395,
00:00:03:633,-0.876,-0.176,-0.192,132.263,736.816,-365.052,
00:00:03:650,-0.855,-0.138,-0.146,49.743,705.81,-359.986,
00:00:03:666,-0.918,-0.2,-0.137,-253.052,701.416,-396.18,
00:00:03:683,-0.98,-0.294,-0.248,-673.89,717.468,-500,
00:00:03:700,-0.934,-0.362,-0.201,-998.353,790.588,-528.138,
00:00:03:716,-0.922,-0.139,-0.076,-1814.515,812.011,-463.44,
00:00:03:733,-0.868,0.077,-0.048,-2000,770.324,-464.173,
00:00:03:750,-0.88,0.042,-0.066,-2000,653.198,-464.051,
00:00:03:766,-0.904,-0.063,-0.099,-2000,547.973,-442.017,
00:00:03:783,-0.971,-0.044,-0.163,-2000,451.538,-444.581,
00:00:03:800,-0.97,-0.043,-0.261,-2000,425.964,-442.017,
00:00:03:816,-0.998,0.056,-0.251,-2000,397.888,-455.811,
00:00:03:833,-1.032,0.113,-0.346,-2000,362.976,-495.118,
00:00:03:850,-1.016,0.179,-0.313,-2000,353.393,-514.832,
00:00:03:866,-0.963,0.256,-0.241,-1884.522,317.321,-541.993,
00:00:03:883,-0.893,0.333,-0.202,-1599.793,277.099,-518.799,
00:00:03:900,-0.985,0.36,-0.161,-1373.291,235.717,-543.885,
00:00:03:916,-0.994,0.417,-0.095,-1128.602,271.545,-545.411,
00:00:03:933,-0.909,0.463,-0.067,-962.952,240.234,-475.342,
00:00:03:950,-0.927,0.451,-0.031,-1029.175,209.472,-381.409,
00:00:03:966,-0.955,0.463,-0.028,-1195.008,210.51,-298.218,
00:00:03:983,-0.943,0.462,-0.016,-1317.139,225.28,-238.221,
00:00:04:0,-0.947,0.402,-0.022,-1499.634,227.478,-131.958,
00:00:04:16,-1.001,0.377,-0.041,-1533.143,201.11,-87.464,
00:00:04:33,-1.05,0.302,-0.016,-1427.186,157.531,-34.79,
00:00:04:50,-1.095,0.19,0.014,-1360.535,142.395,23.986,
00:00:04:66,-1.142,0.101,-0.001,-1274.353,143.31,-7.081,
00:00:04:83,-1.145,0.159,0.026,-1176.758,168.09,-52.185,
00:00:04:100,-1.141,0.24,-0.07,-1091.919,142.028,-98.084,
00:00:04:116,-1.174,0.204,-0.009,-1004.639,122.497,-132.386,
00:00:04:133,-1.148,0.187,0.005,-1039.734,139.16,-184.082,
00:00:04:150,-1.085,0.216,0.018,-1074.463,148.925,-253.235,
00:00:04:166,-1.061,0.248,-0.007,-1059.205,99.914,-293.641,
00:00:04:183,-1.092,0.289,-0.029,-962.952,51.208,-361.512,
00:00:04:200,-1.059,0.253,-0.038,-900.513,5.127,-404.236,
00:00:04:216,-1.062,0.167,-0.073,-920.777,2.746,-443.177,
00:00:04:233,-0.987,0.141,-0.066,-977.54,-11.841,-455.201,
00:00:04:250,-0.97,0.178,-0.117,-1027.466,-6.226,-451.05,
00:00:04:266,-0.959,0.217,-0.161,-1021.668,-12.94,-453.064,
00:00:04:283,-0.906,0.26,-0.208,-943.787,-15.076,-431.458,
00:00:04:300,-0.898,0.263,-0.217,-865.784,-35.462,-408.631,
00:00:04:316,-0.908,0.254,-0.225,-828.309,-20.142,-411.56,
00:00:04:333,-0.878,0.228,-0.229,-797.059,-3.602,-403.077,
00:00:04:350,-0.844,0.262,-0.207,-764.954,3.356,-378.846,
00:00:04:366,-0.86,0.238,-0.239,-726.807,0.366,-372.376,
00:00:04:383,-0.86,0.276,-0.261,-665.711,-5.066,-337.098,
00:00:04:400,-0.869,0.232,-0.309,-577.637,-19.471,-347.29,
00:00:04:416,-0.87,0.248,-0.297,-531.311,-38.575,-321.961,
00:00:04:433,-0.855,0.304,-0.316,-452.454,-44.129,-303.711,
00:00:04:450,-0.831,0.309,-0.328,-440.247,-82.52,-260.01,
00:00:04:466,-0.833,0.298,-0.355,-320.313,-120.545,-262.085,
00:00:04:483,-0.816,0.294,-0.403,-254.334,-137.269,-222.962,
00:00:04:500,-0.815,0.274,-0.358,-193.421,-212.159,-198.853,
00:00:04:516,-0.835,0.261,-0.396,-189.759,-220.887,-220.887,
00:00:04:533,-0.823,0.314,-0.403,-193.97,-235.23,-195.801,
00:00:04:550,-0.806,0.365,-0.388,-186.829,-266.785,-177.491,
00:00:04:566,-0.808,0.379,-0.418,-239.319,-277.771,-166.687,
00:00:04:583,-0.82,0.403,-0.456,-264.039,-285.462,-125.794,
00:00:04:600,-0.813,0.372,-0.441,-264.466,-287.842,-105.225,
00:00:04:616,-0.804,0.357,-0.49,-222.84,-269.959,-65.491,
00:00:04:633,-0.853,0.289,-0.553,-163.147,-237.488,-29.969,
00:00:04:650,-0.87,0.425,-0.612,-98.633,-197.693,-31.8,
00:00:04:666,-0.858,0.572,-0.663,61.035,-172.12,-15.015,
00:00:04:683,-0.868,0.577,-0.723,177.673,-150.94,42.114,
00:00:04:700,-0.924,0.611,-0.762,353.149,-130.555,49.56,
00:00:04:716,-0.973,0.573,-0.764,513.305,-123.23,32.287,
00:00:04:733,-0.942,0.498,-0.788,615.417,-98.572,41.442,
00:00:04:750,-0.967,0.56,-0.808,610.595,-30.457,12.573,
00:00:04:766,-1.02,0.545,-0.828,640.869,20.08,-21.973,
00:00:04:783,-1.014,0.579,-0.787,616.394,68.481,-30.518,
00:00:04:800,-1.053,0.594,-0.8,581.726,66.284,-77.881,
00:00:04:816,-1.103,0.673,-0.769,434.875,76.782,-75.196,
00:00:04:833,-1.015,0.745,-0.71,222.168,91.552,-34.913,
00:00:04:850,-0.979,0.689,-0.725,216.735,27.221,-27.832,
00:00:04:866,-1.107,0.626,-0.8,139.77,52.978,31.555,
00:00:04:883,-1.157,0.59,-1.096,7.69,188.537,98.266,
00:00:04:900,-1.136,0.66,-1.282,153.32,354.248,196.533,
00:00:04:916,-1.03,0.654,-1.282,342.895,602.172,251.953,
00:00:04:933,-0.767,0.592,-1.132,469.055,885.62,402.282,
00:00:04:950,-0.721,0.623,-1.063,446.228,1272.277,586.242,
00:00:04:966,-0.572,0.694,-0.98,380.981,1702.636,727.722,
00:00:04:983,-0.387,0.564,-0.74,252.197,1999.694,854.797,
00:00:05:0,-0.209,0.341,-0.325,125.183,1999.694,917.419,
00:00:05:16,-0.084,0.191,0.148,7.263,1999.694,871.826,
00:00:05:33,-0.018,0.029,0.392,-71.473,1999.694,847.9,
00:00:05:50,-0.008,0.145,0.43,106.933,1999.694,631.408,
00:00:05:66,0.149,-0.327,0.478,710.632,1999.694,574.34,
00:00:05:83,0.369,-0.654,0.493,1295.654,1999.694,641.906,
00:00:05:100,0.432,-0.095,0.401,1218.139,1999.694,980.651,
00:00:05:116,0.421,0.791,-0.27,1368.591,1999.694,1300.109,
00:00:05:133,0.733,1.515,-0.215,1877.441,1999.694,1483.032,
00:00:05:150,1.782,1.297,-0.263,1999.694,1999.694,1323.303,
00:00:05:166,2.55,0.387,-0.109,1999.694,1101.257,1259.582,
00:00:05:183,1.962,-0.637,-0.804,1999.694,-460.022,1116.943,
00:00:05:200,0.926,-1.71,-1.054,1999.694,-1808.716,1141.113,
00:00:05:216,-0.17,-3.167,0.734,1999.694,-1891.297,1361.572,
00:00:05:233,-1.462,-2.475,0.592,-1225.586,881.591,1497.741,
00:00:05:250,-0.201,-0.953,0.499,-2000,1496.826,48.4,
00:00:05:266,0.47,-0.135,0.915,-2000,1339.477,440.551,
00:00:05:283,0.41,-0.079,0.416,-566.163,803.039,615.173,
00:00:05:300,0.318,-0.434,0.485,1096.801,248.962,204.895,
00:00:05:316,0.286,-1.03,0.792,1702.331,110.229,117.37,
00:00:05:333,0.129,-1.629,0.662,1183.471,366.211,202.148,
00:00:05:350,0.098,-1.865,0.836,409.729,629.821,195.434,
00:00:05:366,0.26,-1.353,0.741,-150.269,923.828,144.592,
00:00:05:383,0.312,-0.969,0.77,678.466,652.832,-213.196,
00:00:05:400,0.297,-1.119,0.695,1276.611,564.331,-356.995,
00:00:05:416,0.262,-1.371,0.543,1448.364,484.069,-421.753,
00:00:05:433,0.145,-1.505,0.445,1372.802,450.988,-417.847,
00:00:05:450,0.079,-1.452,0.391,1125.061,487.915,-406.067,
00:00:05:466,0.162,-1.323,0.301,895.813,582.702,-460.694,
00:00:05:483,0.179,-1.269,0.278,863.647,482.788,-467.774,
00:00:05:500,0.015,-1.307,0.36,855.102,350.525,-446.656,
00:00:05:516,-0.087,-1.303,0.293,638.916,405.09,-452.881,
00:00:05:533,0.021,-1.195,0.254,516.235,445.8,-491.211,
00:00:05:550,0.06,-1.156,0.203,601.074,271.179,-519.776,
00:00:05:566,-0.116,-1.125,0.228,733.154,57.312,-514.344,
00:00:05:583,-0.267,-1.133,0.198,699.829,48.706,-518.616,
00:00:05:600,-0.207,-1.164,0.163,540.222,129.699,-544.434,
00:00:05:616,-0.112,-1.151,0.045,407.287,118.591,-538.269,
00:00:05:633,-0.116,-1.068,-0.011,410.095,9.765,-541.016,
00:00:05:650,-0.242,-1.064,-0.005,507.568,-121.216,-541.26,
00:00:05:666,-0.326,-1.154,0.039,501.464,-95.581,-557.251,
00:00:05:683,-0.276,-1.192,-0.03,320.617,-26.795,-567.994,
00:00:05:700,-0.229,-1.16,-0.042,119.14,-36.56,-558.716,
00:00:05:716,-0.279,-1.098,-0.024,-20.691,-100.037,-572.815,
00:00:05:733,-0.379,-1.007,0.096,-127.808,-119.751,-539.368,
00:00:05:750,-0.422,-0.937,0.099,-186.463,-102.601,-560.059,
00:00:05:766,-0.418,-0.859,0.059,-95.581,-116.578,-558.289,
00:00:05:783,-0.442,-0.805,0.026,70.434,-179.749,-545.105,
00:00:05:800,-0.467,-0.821,-0.007,208.801,-216.37,-544.861,
00:00:05:816,-0.471,-0.854,-0.074,227.905,-231.751,-520.264,
00:00:05:833,-0.495,-0.831,-0.115,216.491,-248.352,-479.859,
00:00:05:850,-0.536,-0.765,-0.132,234.924,-237.915,-453.003,
00:00:05:866,-0.587,-0.717,-0.12,362.487,-236.878,-426.941,
00:00:05:883,-0.595,-0.751,-0.158,493.591,-213.685,-420.594,
00:00:05:900,-0.553,-0.783,-0.08,566.284,-185.181,-390.381,
00:00:05:916,-0.524,-0.783,-0.157,462.28,-200.623,-363.221,
00:00:05:933,-0.553,-0.787,-0.283,275.756,-220.093,-340.577,
00:00:05:950,-0.608,-0.812,-0.289,69.885,-185.364,-299.683,
00:00:05:966,-0.645,-0.858,-0.34,-237.671,-121.888,-264.161,
00:00:05:983,-0.659,-0.839,-0.258,-475.586,-53.711,-211.304,
00:00:06:0,-0.655,-0.737,-0.21,-606.385,-27.161,-197.449,
00:00:06:16,-0.583,-0.689,-0.024,-529.602,-20.874,-89.356,
00:00:06:33,-0.576,-0.712,-0.05,-482.117,-62.684,-57.557,
00:00:06:50,-0.621,-0.704,-0.058,-382.813,-83.313,-45.533,
00:00:06:66,-0.668,-0.67,-0.028,-167.115,-96.863,-12.146,
00:00:06:83,-0.628,-0.848,-0.006,302.795,-96.558,-7.447,
00:00:06:100,-0.573,-0.946,-0.068,281.799,-120.606,4.15,
00:00:06:116,-0.552,-1.063,-0.051,240.905,-134.034,-26.978,
00:00:06:133,-0.505,-0.99,-0.094,302.917,-135.193,-78.064,
00:00:06:150,-0.52,-0.916,-0.168,278.503,-124.878,-46.631,
00:00:06:166,-0.577,-0.867,-0.188,284.729,-103.394,-32.898,
00:00:06:183,-0.615,-0.944,-0.286,262.39,-56.336,-36.011,
00:00:06:200,-0.617,-1,-0.254,193.542,-5.372,-1.16,
00:00:06:216,-0.609,-0.954,-0.133,123.352,12.023,7.995,
00:00:06:233,-0.555,-0.898,-0.125,73.425,41.076,-4.822,
00:00:06:250,-0.586,-0.825,-0.217,-31.495,31.982,22.216,
00:00:06:266,-0.61,-0.916,-0.184,-12.391,37.658,-12.269,
00:00:06:283,-0.604,-0.881,-0.116,-202.942,82.153,41.32,
00:00:06:300,-0.562,-0.909,-0.056,-374.268,76.965,59.021,
00:00:06:316,-0.526,-1.009,-0.099,-471.131,46.875,-2.137,
00:00:06:333,-0.547,-0.989,-0.049,-593.934,4.272,-12.33,
00:00:06:350,-0.58,-0.889,-0.049,-678.956,18.371,-9.949,
00:00:06:366,-0.559,-0.765,-0.119,-566.102,64.697,-26.123,
00:00:06:383,-0.509,-0.665,-0.051,-342.713,67.199,-3.602,
00:00:06:400,-0.528,-0.846,-0.145,-91.065,14.465,-37.049,
00:00:06:416,-0.612,-0.87,-0.181,51.086,7.69,-42.969,
00:00:06:433,-0.658,-0.869,-0.006,80.566,50.537,-51.209,
00:00:06:450,-0.611,-0.834,-0.022,39.55,148.01,-90.394,
00:00:06:466,-0.614,-0.761,-0.11,350.952,148.132,-143.189,
00:00:06:483,-0.499,-1.152,-0.045,151.184,167.236,-105.286,
00:00:06:500,-0.631,-0.795,0.024,62.194,76.965,21.179,
00:00:06:516,-0.738,-0.559,-0.244,-179.932,88.806,82.275,
00:00:06:533,-0.664,-0.819,-0.161,274.353,342.285,42.297,
00:00:06:550,-0.573,-0.651,-0.074,302.795,317.993,137.268,
00:00:06:566,-0.524,-0.705,-0.269,534.301,271.972,81.054,
00:00:06:583,-0.553,-0.848,-0.103,484.558,175.659,159.301,
00:00:06:600,-0.583,-0.98,-0.022,248.535,182.129,194.091,
00:00:06:616,-0.584,-0.971,-0.127,-138.306,257.812,172.546,
00:00:06:633,-0.592,-0.951,-0.234,-345.459,296.875,119.995,
00:00:06:650,-0.612,-0.868,-0.047,-275.452,338.256,129.211,
00:00:06:666,-0.591,-0.828,0.118,-203.675,330.688,125.854,
00:00:06:683,-0.436,-0.932,0.041,-190.491,326.721,111.511,
00:00:06:700,-0.39,-1.122,-0.037,-562.867,233.703,53.466,
00:00:06:716,-0.461,-1.247,0.014,-1102.845,142.151,71.472,
00:00:06:733,-0.545,-1.125,0.06,-1587.525,252.624,42.724,
00:00:06:750,-0.549,-0.993,0.15,-1901.612,421.692,28.381,
00:00:06:766,-0.445,-0.988,0.212,-1768.799,540.771,44.921,
00:00:06:783,-0.348,-0.78,0.296,-1492.737,554.931,39.733,
00:00:06:800,-0.282,-0.775,0.271,-1230.164,415.161,53.955,
00:00:06:816,-0.29,-0.707,0.458,-1173.218,258.117,90.637,
00:00:06:833,-0.325,-0.773,0.53,-1206.299,241.272,124.817,
00:00:06:850,-0.32,-0.948,0.505,-1175.66,270.324,109.558,
00:00:06:866,-0.265,-0.939,0.487,-1108.399,338.989,93.994,
00:00:06:883,-0.241,-0.704,0.579,-944.214,384.582,71.472,
00:00:06:900,-0.222,-0.562,0.427,-699.036,316.711,58.105,
00:00:06:916,-0.293,-0.431,0.572,-279.847,287.109,53.588,
00:00:06:933,-0.131,-0.707,0.629,578.186,159.912,-95.887,
00:00:06:950,-0.163,-0.974,0.561,713.501,-169.556,-65.491,
00:00:06:966,-0.345,-1.091,0.652,666.137,-301.697,-32.288,
00:00:06:983,-0.617,-1.168,0.615,620.117,-296.692,-68.421,
00:00:07:0,-0.742,-1.154,0.359,448.242,-232.117,-132.813,
00:00:07:16,-0.747,-1.022,0.269,2.685,27.648,-157.654,
00:00:07:33,-0.626,-0.877,0.346,-151.368,299.804,-216.675,
00:00:07:50,-0.434,-0.659,0.387,-114.014,349.792,-178.894,
00:00:07:66,-0.285,-0.575,0.406,-174.683,319.946,-79.834,grateLH
00:00:07:83,-0.305,-0.535,0.387,-105.225,232.483,-4.944,
00:00:07:100,-0.376,-0.504,0.487,146.118,113.586,26.977,
00:00:07:116,-0.356,-0.654,0.69,110.473,154.663,111.145,
00:00:07:133,-0.278,-0.892,0.685,-27.71,109.069,51.147,
00:00:07:150,-0.268,-0.999,0.48,-274.598,117.004,89.294,
00:00:07:166,-0.367,-0.888,0.561,-332.703,143.127,107.483,
00:00:07:183,-0.438,-0.644,0.569,-253.235,291.442,79.223,
00:00:07:200,-0.266,-0.807,0.959,3.295,386.657,-6.043,
00:00:07:216,-0.042,-0.904,0.808,136.169,292.175,37.475,
00:00:07:233,-0.093,-1.046,0.534,75.317,73.181,83.129,
00:00:07:250,-0.276,-0.837,0.285,-57.129,-23.621,50.903,
00:00:07:266,-0.432,-0.771,0.35,-355.408,98.816,77.453,
00:00:07:283,-0.34,-0.764,0.478,-490.845,328.491,91.674,
00:00:07:300,-0.099,-0.898,0.547,-512.146,385.742,79.467,
00:00:07:316,-0.014,-0.878,0.553,-405.03,214.843,53.894,
00:00:07:333,-0.116,-0.772,0.584,-345.643,-22.156,46.508,
00:00:07:350,-0.264,-0.778,0.692,-204.224,-84.046,20.141,
00:00:07:366,-0.29,-0.785,0.689,-126.282,-1.038,-25.208,
00:00:07:383,-0.219,-0.859,0.736,-161.56,73.12,-41.321,
00:00:07:400,-0.21,-0.722,0.676,-258.912,81.848,-15.137,
00:00:07:416,-0.263,-0.641,0.641,-182.801,39.184,-8.667,
00:00:07:433,-0.266,-0.632,0.708,-83.863,27.282,-8.545,
00:00:07:450,-0.178,-0.605,0.641,-115.967,64.392,28.137,
00:00:07:466,-0.114,-0.5,0.384,-166.382,193.359,125.366,
00:00:07:483,-0.051,-0.339,0.295,-216.614,378.662,271.667,
00:00:07:500,0.002,-0.405,0.74,-109.314,205.017,318.603,
00:00:07:516,-0.021,-0.668,0.666,376.159,55.664,254.638,
00:00:07:533,-0.019,-1.055,0.493,556.457,-83.619,246.765,
00:00:07:550,-0.155,-1.083,0.681,51.269,70.922,405.151,
00:00:07:566,-0.349,-0.744,0.677,-409.729,291.198,489.624,
00:00:07:583,-0.419,-0.523,0.372,-710.694,441.528,457.824,
00:00:07:600,-0.822,-1.078,1.711,-665.101,-48.829,-188.477,
00:00:07:616,-0.618,-2.458,1.231,1753.906,-103.516,-305.237,
00:00:07:633,-0.407,-1.533,-0.112,-313.172,147.461,173.278,
00:00:07:650,-0.415,-0.688,0.357,-1960.633,560.791,12.268,
00:00:07:666,-0.297,-0.122,0.853,-1971.131,490.051,-488.404,
00:00:07:683,-0.071,0.161,0.828,-1247.864,651.977,-301.026,
00:00:07:700,0.142,0.197,0.738,-229.371,315.796,144.531,
00:00:07:716,0.205,-0.073,0.92,919.738,-394.959,-100.22,
00:00:07:733,0.05,-0.31,0.839,1661.01,-763.123,-176.148,
00:00:07:750,-0.155,-0.65,0.784,1797.302,-866.089,-71.839,
00:00:07:766,-0.236,-0.897,0.699,1718.139,-812.012,-105.347,
00:00:07:783,-0.272,-1.042,0.682,1318.359,-644.349,-137.94,
00:00:07:800,-0.248,-1.031,0.63,955.261,-502.991,-153.443,
00:00:07:816,-0.177,-1.02,0.636,637.024,-522.889,-204.529,
00:00:07:833,-0.168,-1.047,0.551,450.988,-539.124,-245.362,
00:00:07:850,-0.216,-1.039,0.441,373.474,-576.172,-255.249,
00:00:07:866,-0.287,-1.031,0.347,221.984,-600.098,-295.35,
00:00:07:883,-0.36,-0.961,0.303,84.716,-489.014,-289.307,
00:00:07:900,-0.393,-0.862,0.218,44.982,-332.947,-293.335,
00:00:07:916,-0.417,-0.797,0.173,192.077,-249.573,-306.763,
00:00:07:933,-0.451,-0.787,0.265,425.293,-244.446,-312.684,
00:00:07:950,-0.478,-0.768,0.214,507.202,-149.781,-277.527,
00:00:07:966,-0.492,-0.76,0.141,548.523,-11.414,-245.728,
00:00:07:983,-0.498,-0.762,0.071,606.567,57.8,-246.705,
00:00:08:0,-0.503,-0.736,0.149,601.623,108.215,-209.473,
00:00:08:16,-0.512,-0.73,0.209,530.212,158.142,-142.395,
00:00:08:33,-0.479,-0.801,0.267,524.963,194.58,-112.366,
00:00:08:50,-0.406,-0.842,0.383,398.62,202.087,-73.792,
00:00:08:66,-0.356,-0.896,0.318,123.657,159.118,11.413,
00:00:08:83,-0.407,-0.877,0.31,-203.186,108.886,49.865,
00:00:08:100,-0.473,-0.823,0.266,-360.901,139.404,96.313,
00:00:08:116,-0.453,-0.818,0.395,-384.461,228.149,132.141,
00:00:08:133,-0.339,-0.887,0.444,-327.942,285.095,167.236,
00:00:08:150,-0.268,-0.923,0.404,-260.804,231.079,186.279,
00:00:08:166,-0.295,-0.772,0.241,-225.831,189.88,196.35,
00:00:08:183,-0.284,-0.958,0.665,-340.516,145.446,176.513,
00:00:08:200,-0.11,-1.275,0.7,-638.489,162.963,97.534,
00:00:08:216,-0.269,-1.201,0.447,-954.895,171.814,221.496,
00:00:08:233,-0.383,-0.736,0.428,-1037.171,233.093,173.95,
00:00:08:250,-0.421,-0.646,0.519,-911.744,389.587,145.568,
00:00:08:266,-0.337,-0.663,0.59,-503.235,342.407,130.066,
00:00:08:283,-0.215,-0.844,0.803,-407.715,239.013,129.821,
00:00:08:300,-0.201,-0.901,0.62,-316.956,183.41,136.596,
00:00:08:316,-0.269,-0.656,0.4,-227.967,92.224,200.073,
00:00:08:333,-0.293,-0.667,0.584,-244.568,52.307,194.336,
00:00:08:350,-0.196,-0.886,0.629,-235.84,131.103,150.329,
00:00:08:366,-0.045,-1.104,0.572,-355.652,152.343,155.7,
00:00:08:383,-0.019,-1.036,0.564,-378.602,61.462,140.686,
00:00:08:400,-0.163,-0.813,0.496,-489.624,13.061,156.982,
00:00:08:416,-0.318,-0.695,0.574,-484.925,30.395,114.807,
00:00:08:433,-0.348,-0.756,0.77,-269.288,31.311,51.452,
00:00:08:450,-0.233,-0.8,0.698,-183.35,134.765,74.768,
00:00:08:466,-0.129,-0.729,0.515,-302.124,184.021,112.793,
00:00:08:483,-0.102,-0.678,0.509,-383.851,133.972,138.61,
00:00:08:500,-0.149,-0.711,0.604,-290.955,104.004,126.953,
00:00:08:516,-0.166,-0.753,0.728,-147.339,52.124,112.304,
00:00:08:533,-0.157,-0.904,0.771,-199.646,22.399,88.501,
00:00:08:550,-0.244,-0.897,0.687,-237,1.464,42.602,
00:00:08:566,-0.297,-0.897,0.655,-328.614,7.812,10.437,
00:00:08:583,-0.256,-0.753,0.714,-471.741,118.774,13.916,
00:00:08:600,-0.156,-0.624,0.717,-482.361,155.822,40.344,
00:00:08:616,-0.105,-0.445,0.631,-335.267,100.525,85.205,
00:00:08:633,-0.126,-0.486,0.537,-153.748,-8.606,78.735,
00:00:08:650,-0.084,-0.673,0.582,-177.369,141.357,143.615,
00:00:08:666,-0.03,-0.766,0.841,-155.823,62.561,91.308,
00:00:08:683,-0.156,-0.89,1.079,-72.144,-40.955,53.772,
00:00:08:700,-0.314,-0.78,0.991,111.877,-138.062,43.762,
00:00:08:716,-0.395,-0.634,0.795,49.865,-27.894,25.817,
00:00:08:733,-0.311,-0.651,0.637,-50.904,26.55,-25.086,
00:00:08:750,-0.176,-0.723,0.641,-139.283,88.44,2.197,
00:00:08:766,-0.136,-0.52,0.544,-167.42,129.272,54.443,
00:00:08:783,-0.176,-0.503,0.555,25.695,3.845,-12.024,
00:00:08:800,-0.24,-0.581,0.564,292.602,-24.476,-31.373,
00:00:08:816,-0.295,-0.514,0.707,470.947,5.065,19.47,
00:00:08:833,-0.281,-0.523,0.738,719.848,32.775,-4.029,
00:00:08:850,-0.23,-0.711,0.67,1066.65,-90.332,-87.708,
00:00:08:866,-0.271,-0.886,0.489,1310.852,-232.3,-93.506,
00:00:08:883,-0.394,-1.054,0.412,1213.195,-267.334,-98.389,
00:00:08:900,-0.493,-1.117,0.437,967.895,-134.217,-140.503,
00:00:08:916,-0.471,-1.082,0.523,830.505,16.601,-238.465,
00:00:08:933,-0.349,-1.144,0.644,826.965,22.033,-358.948,
00:00:08:950,-0.384,-1.141,0.724,-24.231,-50.477,-430.848,
00:00:08:966,-0.382,-0.956,0.692,-250.123,25.756,-498.719,
00:00:08:983,-0.355,-0.916,0.566,-340.21,53.039,-516.297,
00:00:09:0,-0.333,-0.897,0.638,-388.916,40.71,-499.695,
00:00:09:16,-0.277,-0.957,0.713,-585.694,54.931,-494.385,
00:00:09:33,-0.172,-0.889,0.667,-806.702,125.549,-477.906,
00:00:09:50,-0.089,-0.702,0.639,-1045.838,217.59,-368.653,
00:00:09:66,-0.007,-0.575,0.551,-994.385,227.783,-298.096,
00:00:09:83,0.09,-0.411,0.497,-895.874,319.03,-147.034,
00:00:09:100,0.205,-0.333,0.425,-581.91,343.505,21.423,
00:00:09:116,0.134,-0.123,0.429,-324.585,346.069,174.377,
00:00:09:133,0.08,-0.353,0.781,353.271,63.354,52.124,
00:00:09:150,0.024,-0.651,0.713,792.48,-80.933,-14.954,
00:00:09:166,-0.088,-1.073,0.426,575.561,-42.603,77.941,
00:00:09:183,-0.208,-1.127,0.446,170.837,-5.799,103.942,
00:00:09:200,-0.224,-1.016,0.673,-325.562,128.601,107.727,
00:00:09:216,-0.161,-1.011,0.475,-407.105,231.75,44.433,
00:00:09:233,-0.057,-0.997,0.522,-390.87,117.431,-24.292,
00:00:09:250,-0.113,-0.853,0.607,-545.35,81.604,21.911,
00:00:09:266,-0.173,-0.552,0.772,-614.93,144.836,52.185,
00:00:09:283,-0.181,-0.484,0.827,-321.778,60.302,84.167,
00:00:09:300,-0.246,-0.359,0.903,-89.966,-44.251,111.877,
00:00:09:316,-0.303,-0.599,0.998,28.015,-88.929,131.286,
00:00:09:333,-0.255,-0.657,0.88,259.765,-100.098,138.122,
00:00:09:350,-0.17,-0.553,0.731,196.899,-36.805,171.508,
00:00:09:366,-0.137,-0.58,0.48,194.641,-17.762,182.983,
00:00:09:383,-0.167,-0.656,0.418,279.785,-110.962,184.631,
00:00:09:400,-0.231,-0.902,0.619,210.754,-102.723,182.922,
00:00:09:416,-0.322,-0.954,0.587,150.879,-71.778,160.888,
00:00:09:433,-0.32,-0.933,0.686,30.334,10.803,161.621,
00:00:09:450,-0.288,-0.78,0.538,-216.37,125.671,153.442,
00:00:09:466,-0.13,-0.666,0.796,-98.999,31.189,188.659,
00:00:09:483,-0.186,-0.634,0.744,234.375,-91.736,156.067,
00:00:09:500,-0.215,-0.794,0.658,311.096,-79.956,97.045,
00:00:09:516,-0.251,-0.929,0.745,56.091,-25.818,108.032,
00:00:09:533,-0.277,-0.808,0.716,-98.206,46.142,121.399,
00:00:09:550,-0.24,-0.787,0.601,-194.336,148.986,106.018,
00:00:09:566,-0.16,-0.818,0.873,227.356,-100.22,75.622,
00:00:09:583,-0.277,-0.773,0.691,281.189,-98.572,77.453,
00:00:09:600,-0.267,-0.909,0.679,42.053,-25.94,28.93,
00:00:09:616,-0.239,-0.839,0.646,-75.989,43.762,32.165,
00:00:09:633,-0.184,-0.726,0.569,-99.427,99.426,60.119,
00:00:09:650,0.051,-0.703,0.755,50.293,39.794,56.579,
00:00:09:666,0.067,-0.796,0.747,218.017,-69.886,47.79,
00:00:09:683,-0.027,-0.81,0.673,190.612,-117.371,52.734,
00:00:09:700,-0.1,-0.695,0.691,114.135,-86.792,71.106,
00:00:09:716,-0.133,-0.552,0.64,65.246,20.141,109.253,
00:00:09:733,-0.135,-0.516,0.567,283.935,26.733,108.215,
00:00:09:750,-0.134,-0.629,0.595,397.155,-38.208,123.291,
00:00:09:766,-0.151,-0.655,0.537,449.096,11.169,175.232,
00:00:09:783,-0.277,-0.69,0.686,382.507,23.62,261.535,
00:00:09:800,-0.474,-0.884,0.466,945.678,-276.978,14.16,
00:00:09:816,-0.627,-1.285,0.334,625.915,-176.148,6.897,
00:00:09:833,-0.539,-1.445,0.396,-9.4,151.428,-58.472,
00:00:09:850,-0.359,-1.161,0.512,-706.421,336.792,-112.671,
00:00:09:866,-0.303,-0.847,0.67,-876.648,299.865,-95.948,
00:00:09:883,-0.266,-0.673,0.794,-674.195,204.834,-149.598,
00:00:09:900,-0.136,-0.91,0.921,-13.428,52.917,-270.752,
00:00:09:916,-0.179,-0.896,0.666,319.641,-137.757,-334.717,
00:00:09:933,-0.296,-1.051,0.616,335.327,-188.111,-381.043,
00:00:09:950,-0.384,-1.084,0.561,157.531,-54.932,-456.177,
00:00:09:966,-0.27,-0.992,0.656,-4.273,131.958,-499.512,
00:00:09:983,-0.182,-0.797,0.455,1.709,253.967,-505.799,
00:00:10:0,-0.258,-0.839,0.561,-90.149,73.059,-471.131,
00:00:10:16,-0.195,-0.792,0.717,-215.21,108.154,-488.465,
00:00:10:33,-0.225,-0.638,0.535,-279.236,139.465,-440.613,
00:00:10:50,-0.121,-0.744,0.533,-94.3,126.22,-491.394,
00:00:10:66,-0.02,-0.586,0.742,-331.543,71.472,-289.49,
00:00:10:83,-0.056,-0.505,0.87,-492.554,25.573,-111.695,
00:00:10:100,-0.104,-0.647,0.681,-114.075,-161.377,-170.899,
00:00:10:116,0.015,-0.713,0.523,-315.735,14.526,-75.623,
00:00:10:133,0.006,-0.534,0.338,-408.081,79.834,90.026,
00:00:10:150,0.008,-0.508,0.755,-350.159,39.062,95.092,
00:00:10:166,0.037,-0.712,0.683,-113.099,13.061,37.17,
00:00:10:183,0.046,-1.026,0.483,-124.268,10.498,23.376,
00:00:10:200,0.069,-0.914,0.61,-368.103,49.804,42.724,
00:00:10:216,0.055,-0.687,0.829,-850.464,184.936,106.75,
00:00:10:233,0.073,-0.622,0.9,-704.407,170.959,78.918,
00:00:10:250,0.052,-0.489,0.725,-329.102,1.892,127.136,
00:00:10:266,-0.062,-0.535,0.601,-375.245,-117.371,201.172,
00:00:10:283,-0.197,-0.823,0.95,-491.822,-68.36,116.699,
00:00:10:300,-0.303,-0.897,1.064,-411.255,10.009,121.093,
00:00:10:316,-0.361,-0.55,0.854,-496.582,89.721,207.824,
00:00:10:333,-0.373,-0.323,0.661,-512.207,139.282,195.556,
00:00:10:350,-0.309,-0.435,0.596,-296.57,135.009,160.156,
00:00:10:366,-0.257,-0.552,0.705,-110.535,105.651,175.354,
00:00:10:383,-0.176,-0.896,1.154,-40.284,56.396,88.623,
00:00:10:400,-0.194,-0.717,0.81,10.864,43.029,147.888,
00:00:10:416,-0.316,-0.443,0.552,-138.733,2.502,209.106,
00:00:10:433,-0.286,-0.491,0.438,-263.428,122.375,127.929,
00:00:10:450,-0.1,-0.427,0.575,-462.098,371.215,203.491,
00:00:10:466,0.103,-0.43,0.883,-431.641,372.314,294.372,
00:00:10:483,0.03,-0.252,0.728,155.883,187.683,356.445,
00:00:10:500,-0.044,-0.177,0.276,518.493,179.87,387.268,
00:00:10:516,0.001,-0.529,0.525,56.091,213.012,416.015,
00:00:10:533,-0.113,-0.625,1.359,23.01,252.38,411.743,
00:00:10:550,-0.15,-0.905,0.632,641.418,273.62,247.192,
00:00:10:566,-0.013,-1.096,1.214,-5.86,277.954,316.345,
00:00:10:583,-0.161,-1.455,2.192,261.047,-238.221,-74.891,
00:00:10:600,-0.577,-1.481,0.592,636.779,-255.921,-247.315,
00:00:10:616,-0.73,-0.647,0.623,-603.882,182.434,26.062,
00:00:10:633,-0.369,-0.248,1.031,-1024.476,616.821,-183.289,
00:00:10:650,0.038,0.057,0.953,-346.741,717.712,-108.704,
00:00:10:666,0.25,0.115,0.75,566.772,373.169,-2.625,
00:00:10:683,0.262,-0.272,0.643,1375.793,-155.091,-185.547,
00:00:10:700,0.075,-0.842,0.553,1664.856,-481.629,-208.435,
00:00:10:716,-0.188,-1.059,0.542,1348.022,-403.504,-89.112,
00:00:10:733,-0.375,-1.206,0.664,662.719,-171.692,-117.493,
00:00:10:750,-0.449,-1.27,0.723,530.517,-37.903,-298.401,
00:00:10:766,-0.333,-1.334,0.768,563.903,-96.924,-461.365,
00:00:10:783,-0.191,-1.313,0.684,275.146,-159.79,-568.726,
00:00:10:800,-0.328,-1.23,0.663,-175.843,-268.616,-621.338,
00:00:10:816,-0.404,-0.931,0.663,-353.089,-205.323,-712.342,
00:00:10:833,-0.269,-0.742,0.701,-397.583,-75.135,-782.41,
00:00:10:850,-0.095,-0.765,0.694,-309.205,-39.307,-731.751,
00:00:10:866,0.074,-0.824,0.531,-731.751,-23.926,-620.057,
00:00:10:883,0.049,-0.608,0.478,-1158.448,152.954,-411.927,
00:00:10:900,0.16,-0.312,0.508,-1269.349,220.276,-247.498,
00:00:10:916,0.305,-0.005,0.57,-1309.021,410.522,2.807,
00:00:10:933,0.249,0.386,0.72,-813.355,308.532,154.297,
00:00:10:950,0.173,0.312,0.924,337.646,36.621,112.548,
00:00:10:966,0.201,-0.199,0.911,1150.879,-154.847,93.383,
00:00:10:983,0.137,-0.755,0.667,1220.947,-302.735,85.571,
00:00:11:0,-0.129,-1.21,0.706,534.973,-351.441,185.974,
00:00:11:16,-0.374,-1.133,0.956,-213.807,-29.664,265.38,
00:00:11:33,-0.301,-0.867,0.693,-489.869,314.819,203.125,
00:00:11:50,-0.1,-0.533,0.682,-629.578,295.349,215.026,
00:00:11:66,-0.109,-0.513,0.694,-299.5,111.389,237.671,
00:00:11:83,-0.194,-0.509,0.809,125.915,-84.473,207.824,
00:00:11:100,-0.249,-0.595,0.987,80.993,-73.731,254.943,
00:00:11:116,-0.191,-0.659,0.909,185.913,26.428,238.525,
00:00:11:133,-0.104,-0.69,0.923,132.141,-25.879,193.237,
00:00:11:150,-0.116,-0.781,0.835,19.775,-30.091,145.813,
00:00:11:166,-0.174,-0.777,0.739,-67.261,-7.264,147.766,
00:00:11:183,-0.217,-0.718,0.637,-55.97,31.066,148.803,
00:00:11:200,-0.195,-0.714,0.632,-2.808,9.094,68.847,
00:00:11:216,-0.16,-0.638,0.729,-68.36,17.944,147.461,
00:00:11:233,-0.06,-0.528,0.651,52.49,36.804,183.899,
00:00:11:250,0.005,-0.606,0.61,255.31,-55.42,116.394,
00:00:11:266,0.019,-0.807,0.652,254.455,-153.992,120.361,
00:00:11:283,-0.066,-0.672,0.412,172.79,-52.796,236.877,
00:00:11:300,-0.11,-0.251,0.421,-346.863,210.022,401.55,
00:00:11:316,-0.052,-0.447,0.538,65.673,200.5,223.327,
00:00:11:333,-0.15,-0.205,1.055,-256.775,430.42,493.286,
00:00:11:350,-0.82,0.539,3.574,1777.954,-544.861,47.912,
00:00:11:366,0.263,-3.635,0.742,1991.638,1883.484,493.408,
00:00:11:383,0.977,-2.132,-0.56,-138.611,19.592,-528.199,
00:00:11:400,-0.918,0.094,1.284,-545.838,-48.462,-180.726,
00:00:11:416,-0.664,-0.555,0.759,48.339,363.342,-276.551,
00:00:11:433,-0.082,-0.491,0.83,421.386,131.836,-163.514,
00:00:11:450,0.19,-0.505,0.718,522.033,180.908,-131.714,
00:00:11:466,0.272,-0.594,0.6,598.816,-107.605,-82.642,
00:00:11:483,0.155,-0.691,0.595,637.695,-428.956,-28.138,
00:00:11:500,-0.091,-0.808,0.532,670.349,-483.887,-47.486,
00:00:11:516,-0.243,-0.996,0.497,684.143,-365.723,-94.666,
00:00:11:533,-0.275,-1.022,0.538,841.98,-311.402,-188.172,
00:00:11:550,-0.287,-1.015,0.581,1010.681,-324.83,-240.906,
00:00:11:566,-0.335,-0.976,0.462,1160.766,-349.793,-313.172,
00:00:11:583,-0.432,-0.933,0.409,1236.877,-388.123,-406.373,
00:00:11:600,-0.664,-0.948,0.187,1165.039,-250.794,-508.423,
00:00:11:616,-0.674,-0.976,0.327,1028.869,-77.027,-543.152,
00:00:11:633,-0.337,-0.987,0.471,500.244,126.342,-484.436,
00:00:11:650,-0.238,-0.873,0.343,78.979,148.437,-335.572,
00:00:11:666,-0.253,-0.769,0.299,-347.229,177.368,-214.783,
00:00:11:683,-0.249,-0.822,0.321,-567.872,249.145,-139.161,
00:00:11:700,-0.181,-0.983,0.31,-619.507,359.13,-112.915,
00:00:11:716,-0.099,-1.028,0.331,-844.239,415.954,-74.646,
00:00:11:733,-0.049,-1.018,0.327,-1035.645,392.517,-13.672,
00:00:11:750,-0.084,-0.907,0.381,-1253.541,337.402,-21.912,
00:00:11:766,-0.039,-1.002,0.909,-1239.014,264.648,-64.82,
00:00:11:783,0.106,-0.806,0.398,-834.412,93.811,45.227,
00:00:11:800,-0.134,-0.553,0.236,-441.346,37.902,61.523,
00:00:11:816,-0.27,-0.46,0.592,-329.224,194.641,138.733,
00:00:11:833,0.01,-0.441,1.035,64.086,357.483,323.242,
00:00:11:850,0.022,-0.629,0.468,471.435,107.422,294.311,
00:00:11:866,-0.261,-1.504,0.459,76.904,-57.984,293.945,
00:00:11:883,-0.284,-1.424,0.507,-342.041,278.991,183.715,
00:00:11:900,-0.076,-1.085,0.702,-767.273,333.068,105.407,
00:00:11:916,-0.059,-0.586,0.541,-860.779,291.137,103.576,
00:00:11:933,-0.108,-0.375,0.599,-494.629,103.576,101.013,
00:00:11:950,-0.123,-0.417,0.574,-80.262,80.261,141.296,
00:00:11:966,-0.093,-0.808,0.521,44.982,35.095,149.536,
00:00:11:983,-0.117,-0.907,0.378,-296.631,143.432,230.407,
00:00:12:0,-0.171,-0.66,0.447,-710.389,391.54,316.406,
00:00:12:16,-0.044,-0.461,0.41,-584.412,511.474,338.867,
00:00:12:33,0.071,-0.635,0.735,-415.039,440.796,339.294,
00:00:12:50,0.115,-0.773,0.699,115.051,194.519,246.643,
00:00:12:66,-0.101,-1.04,0.74,121.521,50.964,262.939,
00:00:12:83,-0.426,-0.901,0.762,27.954,108.642,207.031,
00:00:12:100,-0.478,-1.461,1.405,535.766,-290.589,-321.717,
00:00:12:116,-0.446,-1.214,0.575,131.469,54.199,-124.695,
00:00:12:133,-0.307,-0.484,0.631,-565.003,225.28,81.054,
00:00:12:150,-0.095,-0.297,0.779,-364.93,349.304,-106.263,
00:00:12:166,0.153,-0.282,0.752,338.867,168.274,-134.705,
00:00:12:183,0.272,-0.609,0.78,709.594,-257.935,-109.986,
00:00:12:200,0.117,-0.973,0.582,920.349,-639.71,-199.585,
00:00:12:216,-0.169,-1.308,0.535,779.846,-772.644,-223.877,
00:00:12:233,-0.387,-1.262,0.571,733.764,-578.248,-279.236,
00:00:12:250,-0.405,-1.044,0.585,777.526,-354.676,-429.322,
00:00:12:266,-0.309,-1.001,0.495,1062.744,-379.212,-569.642,
00:00:12:283,-0.318,-1.091,0.47,1198.181,-615.174,-640.503,
00:00:12:300,-0.447,-1.113,0.467,1119.69,-633.057,-637.696,
00:00:12:316,-0.529,-1.037,0.372,806.884,-427.979,-643.616,
00:00:12:333,-0.497,-0.898,0.276,532.226,-211.853,-660.645,
00:00:12:350,-0.385,-0.75,0.196,357.849,-13.123,-626.709,
00:00:12:366,-0.296,-0.646,0.402,186.95,101.379,-501.709,
00:00:12:383,-0.227,-0.604,0.508,7.507,210.754,-356.934,
00:00:12:400,-0.176,-0.538,0.339,-243.164,327.514,-214.112,
00:00:12:416,-0.164,-0.579,0.279,-543.763,420.471,-77.21,
00:00:12:433,-0.137,-0.768,0.21,-900.025,555.236,120.117,
00:00:12:450,0.01,-1.175,1.228,-1091.248,511.596,171.569,
00:00:12:466,0.288,-0.991,0.531,-1101.258,624.389,174.682,
00:00:12:483,0.159,-0.598,0.429,-747.681,319.58,276.123,
00:00:12:500,-0.122,-0.423,0.314,-242.493,215.515,278.564,
00:00:12:516,-0.234,-0.251,0.265,-224.366,364.929,341.735,
00:00:12:533,-0.102,-0.498,0.402,-528.748,672.302,443.603,
00:00:12:550,0.148,-0.959,0.436,-396.424,725.891,421.63,
00:00:12:566,0.195,-1.11,0.697,284.24,427.063,399.292,
00:00:12:583,-0.024,-1.038,0.699,693.115,-89.844,315.307,
00:00:12:600,-0.309,-1.186,0.384,76.477,78.552,296.569,
00:00:12:616,-0.365,-1.479,0.963,-325.745,362.793,239.196,
00:00:12:633,-0.081,-1.058,1.043,-666.26,321.289,138.305,
00:00:12:650,-0.031,-0.759,0.688,-854.798,268.493,177.978,
00:00:12:666,-0.141,-0.509,0.646,-479.31,85.51,263.488,
00:00:12:683,-0.084,-0.826,0.725,-200.379,125.854,118.042,
00:00:12:700,-0.04,-0.877,0.807,-454.529,245.727,225.586,
00:00:12:716,-0.007,-0.717,0.786,-644.654,277.771,217.163,
00:00:12:733,0.014,-0.385,1.019,-797.852,262.756,270.752,
00:00:12:750,0.023,-0.747,1.171,162.353,-165.894,-77.21,
00:00:12:766,-0.092,-0.86,0.555,488.83,-344.544,-84.351,
00:00:12:783,-0.145,-0.738,0.552,328.064,-255.799,87.89,
00:00:12:800,-0.062,-0.684,0.648,285.522,-120.301,-60.364,
00:00:12:816,0.026,-0.746,0.552,670.959,-111.695,-171.509,
00:00:12:833,0.095,-0.777,0.454,1182.129,-294.19,-173.035,
00:00:12:850,0.035,-0.874,0.453,1699.646,-545.472,-240.662,
00:00:12:866,-0.104,-0.891,0.358,1999.694,-714.417,-363.16,
00:00:12:883,-0.247,-0.851,0.175,1999.694,-780.64,-494.873,
00:00:12:900,-0.322,-0.925,0.124,1999.694,-810.547,-586.731,
00:00:12:916,-0.403,-1.004,-0.253,1999.694,-760.804,-734.559,
00:00:12:933,-0.48,-1.033,-0.061,1999.694,-674.134,-990.845,
00:00:12:950,-0.474,-1.063,-0.073,1999.694,-497.254,-953.064,
00:00:12:966,-0.469,-1.13,-0.449,1918.396,-266.48,-861.634,
00:00:12:983,-0.497,-0.759,-0.321,1151.245,-84.839,-714.722,
00:00:13:0,-0.459,-0.583,-0.965,984.436,-50.843,-439.82,
00:00:13:16,-0.41,-0.79,-0.73,1344.238,103.637,-293.274,
00:00:13:33,-0.294,-0.927,-0.698,1131.652,157.043,-192.933,
00:00:13:50,-0.245,-0.787,-0.618,598.816,216.919,-104.004,
00:00:13:66,-0.229,-0.602,-0.536,-77.515,269.47,99.182,
00:00:13:83,-0.197,-0.597,-0.508,-691.407,281.372,292.663,
00:00:13:100,-0.236,-0.652,-0.477,-1249.207,263.427,461.67,
00:00:13:116,-0.246,-0.667,-0.483,-1615.845,304.931,572.082,
00:00:13:133,-0.087,-0.761,-0.563,-789.002,334.106,568.481,
00:00:13:150,-0.195,-0.73,-0.385,-617.31,120.971,500.488,
00:00:13:166,-0.209,-1.686,0.119,70.739,48.278,5.676,
00:00:13:183,-0.259,-1.487,0.119,-737,-249.085,38.391,
00:00:13:200,-0.531,-1.491,-0.194,-1896.241,-244.019,1.586,
00:00:13:216,-0.568,-1.328,-0.127,-2000,-92.652,91.491,
00:00:13:233,-0.544,-1.367,-0.638,-2000,-129.944,147.766,
00:00:13:250,-0.552,-0.958,-0.384,-2000,-2.381,93.078,
00:00:13:266,-0.456,-0.339,-0.076,-1676.026,163.086,73.059,
00:00:13:283,-0.224,-0.414,-0.112,-210.083,45.105,-112.915,
00:00:13:300,-0.265,-0.856,-0.079,470.52,-367.371,-303.406,
00:00:13:316,-0.474,-1.269,0.11,60.974,-395.081,-109.375,
00:00:13:333,-0.271,-1.313,0.003,-1761.841,206.421,-3.663,
00:00:13:350,-0.112,-1.177,-0.01,-1975.22,273.132,74.096,
00:00:13:366,-0.049,-0.769,0.143,-1649.292,256.652,111.694,
00:00:13:383,-0.102,-0.535,0.054,-1113.648,103.698,78.43,
00:00:13:400,-0.256,-0.579,0.016,-560.669,-19.288,64.086,
00:00:13:416,-0.375,-0.516,0.143,-539.429,9.643,153.808,
00:00:13:433,-0.42,-0.665,0.369,-1093.445,166.198,225.83,
00:00:13:450,-0.259,-0.9,0.429,-1228.577,372.924,236.999,
00:00:13:466,-0.159,-0.78,0.104,-748.658,378.967,253.662,
00:00:13:483,-0.137,-0.789,0.435,-327.454,108.764,260.07,
00:00:13:500,-0.168,-0.871,0.637,204.284,-132.569,88.378,
00:00:13:516,-0.224,-1.539,0.47,-321.045,-213.318,56.701,
00:00:13:533,-0.302,-1.67,0.576,-798.829,-123.047,-74.585,
00:00:13:550,-0.435,-1.066,0.588,-1046.204,-10.132,-168.885,
00:00:13:566,-0.43,-0.751,0.8,-959.595,-44.617,-284.79,
00:00:13:583,-0.286,-0.738,0.987,-760.865,-127.869,-353.821,
00:00:13:600,-0.24,-0.627,0.766,-620.606,-197.083,-247.559,
00:00:13:616,-0.359,-0.475,0.588,-684.082,-195.374,-135.315,
00:00:13:633,-0.224,-0.343,0.627,-447.876,41.626,-69.947,
00:00:13:650,-0.186,-0.351,0.724,-214.722,-27.344,0.427,
00:00:13:666,-0.171,-0.538,0.81,74.34,-75.745,-6.043,
00:00:13:683,-0.196,-0.899,0.666,352.783,-142.579,-52.247,
00:00:13:700,-0.3,-0.985,0.401,412.536,-149.72,-25.33,
00:00:13:716,-0.348,-0.527,0.334,-94.666,128.173,148.132,
00:00:13:733,-0.216,-0.38,0.591,-172.547,278.686,121.338,
00:00:13:750,0.053,-0.714,0.824,376.526,81.604,3.234,
00:00:13:766,-0.037,-1.02,0.723,509.582,-192.505,14.953,
00:00:13:783,-0.452,-0.913,0.609,160.522,-122.315,122.009,
00:00:13:800,-0.538,-0.585,0.562,5.127,158.752,109.863,
00:00:13:816,-0.309,-0.612,0.539,-55.603,264.099,46.02,
00:00:13:833,-0.186,-1.079,0.869,48.156,77.026,-19.471,
00:00:13:850,-0.387,-1.068,0.785,-76.966,57.006,96.984,
00:00:13:866,-0.549,-0.769,0.719,-323.426,185.73,140.319,
00:00:13:883,-0.414,-0.544,0.634,-349.793,274.719,97.595,
00:00:13:900,-0.232,-0.526,0.669,-359.62,238.22,106.323,
00:00:13:916,-0.179,-0.425,0.752,-300.293,240.478,143.737,
00:00:13:933,-0.152,-0.514,0.796,-124.451,207.58,132.202,
00:00:13:950,-0.127,-0.687,0.812,135.925,117.004,114.257,
00:00:13:966,-0.143,-0.725,0.721,157.043,93.261,135.376,
00:00:13:983,-0.148,-0.659,0.638,82.702,124.572,137.939,
00:00:14:0,-0.143,-0.551,0.725,234.192,109.436,137.512,
00:00:14:16,-0.115,-0.494,0.716,620.666,100.83,135.376,
00:00:14:33,-0.065,-0.611,0.658,1166.381,29.235,75.561,
00:00:14:50,-0.015,-0.823,0.456,1457.763,-121.216,4.699,
00:00:14:66,-0.033,-1.223,0.341,1367.614,-201.783,-51.453,
00:00:14:83,-0.078,-1.413,0.301,1054.626,-161.622,-117.188,
00:00:14:100,-0.072,-1.389,0.303,608.459,-83.985,-221.619,grateLH
00:00:14:116,-0.053,-1.216,0.243,221.008,-40.039,-267.212,
00:00:14:133,-0.092,-1.006,0.277,159.851,-39.734,-297.059,
00:00:14:150,-0.165,-0.937,0.431,362.793,-128.846,-372.132,
00:00:14:166,-0.214,-1.003,0.465,507.751,-156.189,-430.176,
00:00:14:183,-0.267,-1.058,0.423,758.728,-118.714,-425.171,
00:00:14:200,-0.354,-1.033,0.367,1111.45,-180.726,-488.038,
00:00:14:216,-0.404,-1.057,0.462,933.105,-208.313,-491.517,
00:00:14:233,-0.332,-1.093,0.259,264.282,-43.58,-411.072,
00:00:14:250,-0.297,-1.04,0.321,-245.24,67.688,-399.903,
00:00:14:266,-0.249,-0.79,0.464,-873.475,59.509,-257.019,
00:00:14:283,-0.302,-0.538,0.421,-1197.571,143.493,-127.991,
00:00:14:300,-0.421,-0.374,0.689,296.814,20.752,-55.359,
00:00:14:316,-0.398,-0.737,0.268,70.556,-24.781,57.373,
00:00:14:333,-0.2,-1.044,0.796,-147.522,8.239,102.478,
00:00:14:350,-0.122,-1.234,0.559,-513.184,69.336,28.442,
00:00:14:366,-0.247,-1.196,0.061,-639.588,24.292,-31.006,
00:00:14:383,-0.313,-0.941,0.628,-489.808,229.797,-95.459,
00:00:14:400,-0.215,-0.992,0.603,-307.007,115.112,-22.095,
00:00:14:416,-0.285,-0.903,0.487,-118.592,13.671,-27.832,
00:00:14:433,-0.429,-0.631,0.368,-234.07,34.606,48.828,
00:00:14:450,-0.466,-0.461,0.426,-463.685,245.788,120.788,
00:00:14:466,-0.18,-0.825,0.638,89.172,25.695,200.561,
00:00:14:483,-0.386,-0.591,0.604,-61.768,102.234,172.363,
00:00:14:500,-0.285,-0.876,0.528,18.92,178.894,32.714,
00:00:14:516,-0.118,-1.19,0.537,-92.164,191.467,45.898,
00:00:14:533,-0.169,-1.042,0.693,-509.522,160.766,125.122,
00:00:14:550,-0.147,-0.504,0.68,-378.785,267.395,90.881,
00:00:14:566,-0.138,-0.461,0.525,-364.014,277.893,130.92,
00:00:14:583,-0.138,-0.692,0.632,-356.019,250.549,135.803,
00:00:14:600,-0.153,-0.741,0.59,-154.297,247.497,194.763,
00:00:14:616,-0.093,-0.569,0.625,-90.821,304.138,275.94,
00:00:14:633,-0.045,-0.66,0.521,-106.385,419.189,282.776,
00:00:14:650,-0.004,-0.935,0.562,120.727,339.416,224.975,
00:00:14:666,-0.02,-0.976,0.666,26.733,371.826,280.456,
00:00:14:683,-0.152,-0.835,0.194,-470.398,447.754,295.959,
00:00:14:700,-0.077,-0.547,0.69,-295.716,444.152,343.811,
00:00:14:716,0.035,-1.823,0.316,976.684,-222.779,-346.802,
00:00:14:733,-0.267,-0.762,0.635,-349.549,-30.152,212.585,
00:00:14:750,-0.21,-0.333,0.917,-706.604,355.59,-86.365,
00:00:14:766,0.279,-0.356,0.746,114.868,329.345,-107.3,
00:00:14:783,0.459,-0.533,0.566,858.886,-61.219,-46.448,
00:00:14:800,0.159,-0.736,0.472,1209.228,-323.121,-136.231,
00:00:14:816,-0.093,-1.011,0.526,1100.341,-339.6,-148.255,
00:00:14:833,-0.018,-1.359,0.464,820.007,-193.177,-259.095,
00:00:14:850,0.119,-1.443,0.397,461.792,-198.853,-404.908,
00:00:14:866,-0.025,-1.216,0.462,245.117,-288.88,-389.954,
00:00:14:883,-0.241,-1.145,0.587,425.293,-354.371,-494.996,
00:00:14:900,-0.272,-1.11,0.527,653.747,-356.141,-655.152,
00:00:14:916,-0.212,-1.253,0.483,564.392,-369.324,-756.958,
00:00:14:933,-0.211,-1.32,0.568,76.294,-356.019,-804.444,
00:00:14:950,-0.272,-1.065,0.497,-523.804,-203.309,-777.283,
00:00:14:966,-0.241,-0.788,0.388,-436.219,-156.006,-753.785,
00:00:14:983,-0.177,-0.552,0.632,-513.489,-300.293,-639.283,
00:00:15:0,-0.284,-0.469,0.528,-600.464,-118.47,-597.107,
00:00:15:16,-0.186,-0.418,0.443,-358.704,-164.368,-542.176,
00:00:15:33,-0.107,-0.41,0.511,-758.912,-66.224,-246.094,
00:00:15:50,-0.219,-0.32,0.57,-479.126,-28.992,-181.031,
00:00:15:66,-0.175,-0.26,0.464,-705.384,62.194,29.907,
00:00:15:83,-0.228,-0.27,0.353,-503.846,226.989,166.015,
00:00:15:100,-0.175,-0.347,0.569,-35.95,140.258,210.388,
00:00:15:116,-0.203,-0.764,0.826,44.372,84.961,222.717,
00:00:15:133,-0.294,-1.043,0.708,-87.83,104.187,267.273,
00:00:15:150,-0.329,-0.933,0.643,-158.081,132.934,252.868,
00:00:15:166,-0.319,-0.609,0.552,-284.607,173.645,302.002,
00:00:15:183,-0.214,-0.459,0.686,-242.981,205.139,348.327,
00:00:15:200,-0.042,-0.733,0.768,64.392,189.331,289.917,
00:00:15:216,-0.041,-1.003,0.619,323.12,9.704,226.623,
00:00:15:233,-0.2,-0.97,0.694,25.573,40.344,326.599,
00:00:15:250,-0.29,-0.69,0.493,-353.15,219.238,317.382,
00:00:15:266,-0.157,-0.621,0.773,-99.427,244.384,287.902,
00:00:15:283,0.006,-0.754,0.745,174.987,79.834,229.309,
00:00:15:300,-0.062,-0.855,0.362,-64.27,102.356,290.649,
00:00:15:316,-0.042,-0.715,0.732,-128.907,216.613,321.777,
00:00:15:333,-0.069,-0.724,0.477,-145.63,153.076,240.905,
00:00:15:350,-0.193,-0.705,0.537,-317.81,169.067,377.868,
00:00:15:366,-0.053,-0.525,0.87,-279.175,357.299,467.102,
00:00:15:383,0.08,-0.455,0.044,74.279,178.833,428.833,
00:00:15:400,-0.048,-0.199,0.213,-660.584,405.761,753.418,
00:00:15:416,0.018,-0.241,0.08,-538.941,758.3,687.561,
00:00:15:433,0.673,-2.947,3.26,1531.433,-413.392,-347.718,
00:00:15:450,-0.069,-2.932,0.12,1153.625,-457.52,-290.65,
00:00:15:466,-0.563,-0.627,0.448,-1105.53,70.312,110.962,
00:00:15:483,-0.518,-0.15,0.822,-1749.268,558.532,-456.788,
00:00:15:500,0.267,0.041,0.77,-476.929,489.013,-206.971,
00:00:15:516,0.538,-0.215,0.699,632.324,-123.597,-78.125,
00:00:15:533,0.114,-0.745,0.772,1435.119,-617.188,-247.315,
00:00:15:550,-0.23,-1.215,0.789,1537.231,-628.968,-293.274,
00:00:15:566,-0.201,-1.5,0.637,1029.052,-403.809,-419.068,
00:00:15:583,0.026,-1.52,0.578,299.438,-307.19,-523.56,
00:00:15:600,0.034,-1.208,0.538,-179.383,-343.873,-537.903,
00:00:15:616,-0.121,-0.944,0.511,-159.241,-357.666,-625.489,
00:00:15:633,-0.163,-0.874,0.511,-167.481,-326.111,-629.883,
00:00:15:650,-0.181,-0.798,0.493,-123.78,-229.737,-629.639,
00:00:15:666,-0.158,-0.789,0.443,-226.014,-127.076,-589.478,
00:00:15:683,-0.195,-0.65,0.504,-334.473,-68.299,-487.488,
00:00:15:700,-0.218,-0.611,0.423,-401.49,19.775,-434.571,
00:00:15:716,-0.209,-0.551,0.592,-473.511,-12.024,-285.523,
00:00:15:733,-0.154,-0.498,0.645,-716.614,64.697,-145.142,
00:00:15:750,-0.128,-0.296,0.564,-721.07,137.451,20.996,
00:00:15:766,-0.184,-0.194,0.616,-232.483,80.017,65.307,
00:00:15:783,-0.125,-0.433,0.674,728.088,-76.172,-52.185,
00:00:15:800,-0.017,-0.875,0.593,1398.803,-206.788,-212.891,
00:00:15:816,-0.103,-1.31,0.331,1434.753,-306.641,-313.355,
00:00:15:833,-0.41,-1.379,0.304,794.616,-258.667,-145.264,
00:00:15:850,-0.567,-1.106,0.38,-8.423,-12.452,-149.231,
00:00:15:866,-0.303,-0.676,0.662,-460.816,210.449,-192.444,
00:00:15:883,-0.129,-0.466,0.598,-495.362,179.992,-105.347,
00:00:15:900,-0.258,-0.512,0.619,-152.527,-37.049,-82.825,
00:00:15:916,-0.406,-0.694,0.526,297.851,-63.66,-82.825,
00:00:15:933,-0.381,-0.755,0.496,318.542,69.702,-178.65,
00:00:15:950,-0.367,-1.045,0.403,360.839,96.984,-250.245,
00:00:15:966,-0.36,-1.024,0.738,332.885,-68.299,-184.937,
00:00:15:983,-0.357,-0.883,0.671,-200.745,67.627,-154.847,
00:00:16:0,-0.305,-0.834,0.499,-544.251,41.442,-197.327,
00:00:16:16,-0.374,-0.816,0.514,-686.89,57.983,-137.879,
00:00:16:33,-0.337,-0.688,0.444,-991.15,101.562,-70.374,
00:00:16:50,-0.266,-0.395,0.66,-1121.644,178.161,60.485,
00:00:16:66,-0.234,-0.262,0.669,-1059.693,178.955,175.354,
00:00:16:83,-0.268,-0.347,0.557,-1045.105,77.148,235.412,
00:00:16:100,-0.295,-0.408,0.804,-697.083,114.868,264.099,
00:00:16:116,-0.344,-0.686,0.74,-578.919,209.655,215.82,
00:00:16:133,-0.154,-0.487,1.064,-129.517,164.306,355.407,
00:00:16:150,-0.062,-0.672,1.099,57.678,-80.933,346.313,
00:00:16:166,-0.222,-0.924,0.962,120.971,-142.518,305.236,
00:00:16:183,-0.44,-1.082,0.604,-37.354,-106.69,262.939,
00:00:16:200,-0.305,-0.979,0.801,-531.189,157.592,78.796,
00:00:16:216,-0.138,-0.9,0.719,-956.36,344.299,-38.147,
00:00:16:233,-0.144,-0.559,0.799,-1067.688,343.75,17.639,
00:00:16:250,-0.227,-0.402,0.725,-986.634,247.436,36.682,
00:00:16:266,-0.23,-0.727,0.684,-910.218,203.491,-8.789,
00:00:16:283,-0.143,-0.625,0.758,-1185.669,295.41,64.148,
00:00:16:300,-0.09,-0.294,0.46,-1335.694,433.838,120.361,
00:00:16:316,-0.164,-0.062,0.537,-1464.051,462.646,197.448,
00:00:16:333,-0.246,0.049,0.802,-983.155,550.781,197.204,
00:00:16:350,-0.122,0.154,0.921,-610.413,647.461,343.994,
00:00:16:366,-0.005,0.14,0.823,512.329,616.455,324.096,
00:00:16:383,0.097,-0.167,1.018,1205.749,250.549,332.397,
00:00:16:400,0.078,-0.469,0.987,1569.336,155.029,288.818,
00:00:16:416,-0.043,-0.963,1.043,1717.163,-16.724,157.592,
00:00:16:433,0.016,-1.564,1.633,1497.253,-366.7,10.986,
00:00:16:450,-0.066,-1.826,0.696,1130.249,-77.027,-102.295,
00:00:16:466,-0.137,-0.854,0.662,197.937,45.715,63.415,
00:00:16:483,-0.149,-0.36,0.717,-128.54,149.536,-34.485,
00:00:16:500,0.029,-0.269,0.673,167.175,164.245,-123.352,
00:00:16:516,0.147,-0.35,0.701,439.392,-24.598,-67.81,
00:00:16:533,0.086,-0.603,0.644,682.739,-191.895,-79.59,
00:00:16:550,-0.062,-0.612,0.592,706.237,-150.452,-30.884,
00:00:16:566,-0.146,-0.363,0.6,733.52,-32.532,-23.194,
00:00:16:583,-0.072,-0.671,0.682,824.035,-55.97,-112,
00:00:16:600,0.047,-1.11,0.68,1208.679,-192.383,-245.545,
00:00:16:616,0.003,-1.503,0.663,1096.496,-253.296,-262.574,
00:00:16:633,-0.131,-1.353,0.905,873.901,-215.821,-260.193,
00:00:16:650,-0.238,-1.063,0.678,587.402,-168.152,-390.381,
00:00:16:667,-0.28,-0.894,0.594,217.285,-118.042,-400.696,
00:00:16:683,-0.354,-0.93,0.628,-226.319,-120.606,-347.107,
00:00:16:700,-0.351,-1.01,0.705,-309.632,-39.612,-407.105,
00:00:16:717,-0.202,-0.931,0.813,-330.689,-27.222,-380.677,
00:00:16:733,-0.113,-0.723,0.848,-242.371,-128.357,-351.929,
00:00:16:750,-0.22,-0.663,0.764,-112.549,-266.419,-344.666,
00:00:16:767,-0.25,-0.616,0.734,-132.691,-292.359,-329.712,
00:00:16:783,-0.235,-0.659,0.723,-124.146,-298.768,-307.007,
00:00:16:800,-0.211,-0.623,0.744,-97.352,-366.211,-302.247,
00:00:16:817,-0.196,-0.761,0.691,-205.994,-354.798,-262.757,
00:00:16:833,-0.279,-0.887,0.583,-288.025,-365.235,-264.832,
00:00:16:850,-0.284,-0.972,0.637,-573.548,-250,-237.183,
00:00:16:867,-0.308,-0.839,0.417,-617.92,-78.98,-221.192,
00:00:16:883,-0.267,-0.635,0.499,-620.301,-30.091,-200.806,
00:00:16:900,-0.178,-0.585,0.443,-557.74,124.755,-197.571,
00:00:16:917,-0.128,-0.639,0.412,-719.544,120.422,-144.715,
00:00:16:933,-0.135,-0.691,0.496,-859.681,207.031,-72.083,
00:00:16:950,-0.202,-0.495,0.624,-928.589,224.121,-17.334,
00:00:16:967,-0.227,-0.181,0.507,-837.342,301.696,21.118,
00:00:16:983,-0.211,-0.191,0.618,-791.565,259.094,123.108,
00:00:17:0,-0.273,-0.567,0.959,-82.398,39.611,179.809,
00:00:17:17,-0.282,-0.639,0.698,80.078,-31.861,182.922,
00:00:17:33,-0.309,-0.883,0.685,-121.521,-67.872,157.043,
00:00:17:50,-0.221,-0.855,0.78,-444.581,102.966,49.011,
00:00:17:67,-0.152,-0.61,0.893,-648.011,180.359,34.118,
00:00:17:83,-0.228,-0.333,0.968,-472.962,88.44,69.091,
00:00:17:100,-0.273,-0.345,0.97,-346.619,-3.54,61.706,
00:00:17:117,-0.266,-0.602,0.96,-327.027,-2.381,-2.808,
00:00:17:133,-0.265,-0.576,0.918,-349.793,49.743,-4.212,
00:00:17:150,-0.273,-0.399,0.859,-427.43,84.045,-5.372,
00:00:17:167,-0.273,-0.431,0.918,-338.379,69.641,-3.418,
00:00:17:183,-0.216,-0.466,0.892,-219.178,69.152,23.376,
00:00:17:200,-0.175,-0.437,0.834,-125.855,60.18,46.142,
00:00:17:217,-0.172,-0.5,0.893,-146.18,25.451,49.743,
00:00:17:233,-0.176,-0.454,0.847,-250.489,74.768,72.143,
00:00:17:250,-0.191,-0.367,0.818,-309.205,105.529,79.101,
00:00:17:267,-0.182,-0.287,0.762,-308.716,160.522,98.388,
00:00:17:283,-0.145,-0.206,0.699,-365.54,221.679,199.463,
00:00:17:300,-0.113,-0.188,0.73,-324.402,299.255,238.647,
00:00:17:317,-0.132,-0.096,0.712,-239.441,404.358,338.684,
00:00:17:333,-0.098,-0.016,0.601,148.986,435.547,353.637,
00:00:17:350,-0.145,-0.109,0.403,323.852,517.395,436.889,
00:00:17:367,-0.155,-0.511,0.406,134.826,592.346,396.667,
00:00:17:383,-0.048,-0.71,0.756,-75.074,767.761,362.915,
00:00:17:400,0.254,-1.133,3.378,-555.42,214.477,91.247,
00:00:17:417,-0.11,-3.162,2.017,382.934,-175.293,-820.984,
00:00:17:433,-0.395,-0.521,0.677,-1004.639,337.585,373.352,
00:00:17:450,-0.696,0.931,1.015,-1312.5,412.231,-226.441,
00:00:17:467,-0.042,0.757,0.791,-119.507,426.147,-224.305,
00:00:17:483,0.463,0.318,0.638,949.829,-1.587,108.825,
00:00:17:500,0.336,-0.141,0.807,1407.043,-509.217,88.928,
00:00:17:517,-0.015,-0.585,1.121,1633.3,-602.051,83.068,
00:00:17:533,-0.186,-0.745,1.107,1619.201,-405.091,142.334,
00:00:17:550,-0.099,-0.564,0.917,1574.401,-181.702,140.197,
00:00:17:567,0.01,-0.595,0.629,1744.323,-203.492,26.611,
00:00:17:583,0.031,-0.839,0.466,1999.694,-439.209,-151.673,
00:00:17:600,-0.119,-1.345,0.362,1960.205,-630.372,-258.545,
00:00:17:617,-0.447,-1.899,0.38,754.394,-262.94,-255.31,
00:00:17:633,-0.394,-1.656,0.672,-378.785,120.361,-519.654,
00:00:17:650,-0.125,-1.096,0.691,-1338.074,352.05,-584.9,
00:00:17:667,-0.108,-0.303,0.84,-785.218,98.449,-466.431,
00:00:17:683,-0.084,-0.174,0.828,124.694,-111.695,-480.164,
00:00:17:700,-0.057,-0.384,0.685,637.573,-226.807,-505.982,
00:00:17:717,-0.065,-0.58,0.642,799.987,-326.661,-442.505,
00:00:17:733,-0.175,-0.745,0.623,498.169,-297.303,-355.896,
00:00:17:750,-0.23,-0.802,0.602,24.963,-138.306,-300.11,
00:00:17:767,-0.207,-0.632,0.632,-389.954,-26.49,-213.013,
00:00:17:783,-0.204,-0.551,0.623,-394.715,-9.827,-182.74,
00:00:17:800,-0.186,-0.491,0.61,-153.321,-47.181,-163.514,
00:00:17:817,-0.232,-0.542,0.577,64.819,-53.956,-141.175,
00:00:17:833,-0.253,-0.578,0.654,226.074,-59.388,-118.47,
00:00:17:850,-0.269,-0.645,0.638,70.312,21.545,-51.209,
00:00:17:867,-0.264,-0.652,0.766,12.451,76.538,-2.93,
00:00:17:883,-0.253,-0.666,0.796,29.541,82.58,45.41,
00:00:17:900,-0.284,-0.745,0.789,-9.644,70.434,56.091,
00:00:17:917,-0.33,-0.821,0.71,-136.78,118.591,91.308,
00:00:17:933,-0.33,-0.647,0.623,-371.033,211.181,113.525,
00:00:17:950,-0.319,-0.454,0.696,-433.411,257.751,132.446,
00:00:17:967,-0.201,-0.542,0.82,-280.091,235.534,117.126,
00:00:17:983,-0.143,-0.714,0.719,-87.525,134.399,125.427,
00:00:18:0,-0.284,-0.728,0.684,-46.509,33.264,159.484,
00:00:18:17,-0.333,-0.601,0.728,-87.891,88.745,141.357,
00:00:18:33,-0.232,-0.691,0.709,56.884,86.181,96.496,
00:00:18:50,-0.132,-0.919,0.697,59.143,3.967,65.063,
00:00:18:67,-0.195,-0.815,0.727,-258.301,34.484,93.994,
00:00:18:83,-0.256,-0.624,0.767,-350.647,124.45,127.319,
00:00:18:100,-0.131,-0.455,0.712,-15.748,141.784,103.637,
00:00:18:117,0.051,-0.566,0.665,158.691,79.773,59.57,grateLH
00:00:18:133,-0.001,-0.7,0.628,148.62,-21.607,77.026,
00:00:18:150,-0.255,-0.589,0.763,-46.326,-11.292,218.017,
00:00:18:167,-0.245,-0.507,0.743,164.978,59.57,157.959,
00:00:18:183,-0.069,-0.891,0.768,150.817,10.192,87.768,
00:00:18:200,-0.157,-1.154,0.775,-129.273,-24.659,141.357,
00:00:18:217,-0.252,-0.788,0.618,-345.643,99.609,175.048,
00:00:18:233,-0.152,-0.481,0.742,-508.545,180.908,148.132,
00:00:18:250,-0.096,-0.424,0.841,-374.329,73.364,178.283,
00:00:18:267,-0.099,-0.727,0.747,33.081,-30.945,96.74,
00:00:18:283,-0.059,-0.867,0.704,-122.193,57.312,81.298,
00:00:18:300,-0.058,-0.634,0.811,-487.549,143.921,187.194,
00:00:18:317,-0.07,-0.45,0.855,-420.533,122.192,220.214,
00:00:18:333,0.038,-0.642,0.862,-209.9,71.411,132.141,
00:00:18:350,0.041,-0.871,0.854,-213.074,10.986,71.106,
00:00:18:367,-0.221,-0.722,0.733,-471.619,47.668,142.7,
00:00:18:383,-0.246,-0.448,0.651,-272.095,193.542,113.464,
00:00:18:400,-0.029,-0.372,0.902,-241.578,155.883,103.21,
00:00:18:417,0.013,-0.67,0.78,-12.33,7.263,103.942,
00:00:18:433,-0.2,-0.473,0.462,-282.898,92.102,286.193,
00:00:18:450,-0.202,-0.105,0.307,-726.746,397.583,378.784,
00:00:18:467,-0.094,0.085,-0.023,-1110.474,808.105,604.858,
00:00:18:483,0.874,-1.395,3.973,-124.573,-123.597,-236.451,
00:00:18:500,0.271,-2.276,-0.088,1612.304,-202.942,-594.178,
00:00:18:517,-0.477,-1.031,0.903,-796.326,-409.363,347.412,
00:00:18:533,-0.803,-0.268,1.103,-1645.813,577.636,-498.536,
00:00:18:550,0.061,0.077,1.109,-1086.426,775.634,-514.954,
00:00:18:567,0.42,0.199,1.045,-459.778,389.709,-31.189,
00:00:18:583,0.191,0.087,0.999,391.601,-79.651,-86.243,
00:00:18:600,-0.023,-0.232,0.991,903.93,-178.711,-42.481,
00:00:18:617,0.008,-0.523,0.776,1101.684,-117.31,-59.327,
00:00:18:633,0.115,-0.685,0.721,1047.912,-136.658,-30.518,
00:00:18:650,0.17,-0.7,0.647,892.822,-112,-6.653,
00:00:18:667,0.182,-0.755,0.753,935.608,-154.969,-71.534,
00:00:18:683,0.198,-0.785,0.738,1467.895,-266.846,-166.81,
00:00:18:700,0.128,-1.055,0.768,1607.544,-507.569,-289.429,
00:00:18:717,-0.054,-1.35,0.706,1524.109,-653.016,-396.79,
00:00:18:733,-0.258,-1.6,0.695,748.23,-503.724,-476.075,
00:00:18:750,-0.329,-1.393,0.64,-37.72,-309.144,-610.169,
00:00:18:767,-0.288,-1.002,0.705,-386.048,-203.431,-656.678,
00:00:18:783,-0.262,-0.677,0.843,-379.883,-232.789,-646.424,
00:00:18:800,-0.304,-0.628,0.668,-138.489,-259.339,-675.782,
00:00:18:817,-0.326,-0.55,0.748,-76.05,-250.611,-617.554,
00:00:18:833,-0.309,-0.484,0.724,-160.218,-155.518,-579.773,
00:00:18:850,-0.303,-0.501,0.536,-205.14,-87.098,-517.212,
00:00:18:867,-0.254,-0.431,0.707,-240.601,-83.13,-400.33,
00:00:18:883,-0.202,-0.311,0.677,-403.809,2.502,-281.861,
00:00:18:900,-0.211,-0.185,0.462,-524.109,59.753,-114.319,
00:00:18:917,-0.255,-0.121,0.399,-452.637,156.005,59.021,
00:00:18:933,-0.183,-0.235,0.482,-182.862,246.826,156.311,
00:00:18:950,-0.088,-0.438,0.742,52.49,156.189,216.125,
00:00:18:967,-0.159,-0.895,0.769,-35.889,24.902,173.034,
00:00:18:983,-0.307,-1.072,0.668,-373.169,113.83,184.509,
00:00:19:0,-0.341,-0.859,0.625,-771.302,245.727,145.813,
00:00:19:17,-0.243,-0.574,0.827,-889.222,237.793,131.408,
00:00:19:33,-0.179,-0.64,0.761,-617.798,127.38,85.876,
00:00:19:50,-0.271,-0.521,0.949,-487.61,30.212,118.164,
00:00:19:67,-0.284,-0.261,0.936,-206.665,67.077,117.37,
00:00:19:83,-0.178,-0.421,0.838,-82.52,60.241,117.309,
00:00:19:100,-0.091,-0.862,0.843,185.73,-46.265,35.949,
00:00:19:117,-0.11,-0.777,0.779,-93.079,37.597,121.521,
00:00:19:133,-0.135,-0.495,0.693,-401.368,164.55,127.258,
00:00:19:150,-0.062,-0.456,0.846,-311.158,112.976,67.504,
00:00:19:167,-0.197,-0.558,0.776,-69.153,-26.429,103.21,
00:00:19:183,-0.249,-0.481,0.714,-182.129,51.269,109.741,
00:00:19:200,-0.118,-0.48,0.873,-100.525,75.378,118.347,
00:00:19:217,-0.034,-0.427,0.777,16.418,41.626,148.986,
00:00:19:233,-0.153,-0.581,0.898,93.566,-43.274,114.38,
00:00:19:250,-0.263,-0.552,0.985,129.943,-7.752,156.433,
00:00:19:267,-0.21,-0.642,0.891,42.236,68.115,119.14,
00:00:19:283,-0.071,-0.648,0.772,31.494,119.201,78.857,
00:00:19:300,-0.104,-0.614,0.756,-57.435,130.798,110.595,
00:00:19:317,-0.131,-0.474,0.972,-10.804,144.409,157.165,
00:00:19:333,-0.086,-0.548,0.835,142.7,114.502,119.995,
00:00:19:350,-0.106,-0.773,0.802,118.103,74.585,58.105,
00:00:19:367,-0.023,-0.423,0.871,-262.024,240.783,62.5,
00:00:19:383,-0.036,-0.425,0.785,-87.586,147.827,96.618,
00:00:19:400,-0.161,-0.421,0.881,-68.055,123.169,152.16,
00:00:19:417,-0.107,-0.447,0.791,111.877,198.669,136.108,
00:00:19:433,0.02,-0.602,0.771,157.959,160.644,82.885,
00:00:19:450,0.02,-0.751,0.777,-171.875,142.639,117.004,
00:00:19:467,-0.054,-0.565,0.672,-278.016,222.717,234.13,
00:00:19:483,-0.059,-0.197,0.558,-307.007,330.566,322.448,
00:00:19:500,-0.058,-0.004,-0.389,-649.659,627.075,359.375,
00:00:19:517,0.188,0.112,0.502,-492.432,889.526,432.373,
00:00:19:533,0.465,-0.243,2.91,-114.319,706.909,414.611,
00:00:19:550,0.583,-2.571,1.268,1999.694,-473.877,-945.801,
00:00:19:567,-0.571,-1.845,0.509,320.19,-699.158,548.339,
00:00:19:583,-1.091,-0.254,1.229,-1576.233,268.127,-38.208,
00:00:19:600,-0.218,0.071,1.026,-1325.44,786.316,-630.188,
00:00:19:617,0.432,0.301,0.86,-437.317,582.58,199.035,
00:00:19:633,0.47,0.019,0.736,1060.791,-212.769,44.738,
00:00:19:650,0.184,-0.421,0.84,1786.193,-579.651,-118.164,
00:00:19:667,0.037,-0.801,0.745,1686.828,-428.772,-17.334,
00:00:19:683,0.125,-1.142,0.58,1230.957,-150.208,-171.57,
00:00:19:700,0.243,-1.057,0.488,803.405,-26.307,-201.539,
00:00:19:717,0.23,-0.95,0.596,985.778,-202.576,-281.861,
00:00:19:733,0.124,-1.105,0.673,1086.425,-450.257,-432.435,
00:00:19:750,-0.093,-1.333,0.769,832.336,-487.793,-515.381,
00:00:19:767,-0.237,-1.335,0.747,346.008,-335.45,-564.087,
00:00:19:783,-0.191,-0.991,0.753,178.65,-194.886,-625.061,
00:00:19:800,-0.131,-0.74,0.781,248.108,-277.405,-665.528,
00:00:19:817,-0.185,-0.779,0.732,347.351,-347.779,-702.393,
00:00:19:833,-0.217,-0.97,0.628,352.783,-312.195,-743.714,
00:00:19:850,-0.208,-0.922,0.628,174.194,-249.695,-702.881,
00:00:19:867,-0.24,-0.859,0.589,-122.559,-130.799,-686.829,
00:00:19:883,-0.224,-0.77,0.436,-222.718,-33.448,-674.5,
00:00:19:900,-0.159,-0.532,0.489,-387.024,-20.508,-541.443,
00:00:19:917,-0.211,-0.426,0.488,-597.229,55.969,-453.431,
00:00:19:933,-0.21,-0.434,0.499,-820.74,155.456,-317.444,
00:00:19:950,-0.183,-0.237,0.4,-915.711,228.027,-120.423,
00:00:19:967,-0.207,0.019,0.511,-1103.15,323.669,127.075,
00:00:19:983,-0.181,-0.654,0.777,409.301,29.846,252.136,
00:00:20:0,-0.227,-1.163,0.69,145.63,-19.043,318.786,
00:00:20:17,-0.318,-1.102,0.656,-465.699,112.671,314.575,
00:00:20:33,-0.288,-0.651,0.903,-578.553,186.34,318.054,
00:00:20:50,-0.217,-0.366,0.77,-278.443,148.559,268.249,
00:00:20:67,-0.131,-0.487,0.767,59.753,80.627,200.134,
00:00:20:83,-0.152,-0.775,0.819,136.963,92.834,176.452,
00:00:20:100,-0.189,-0.592,0.668,191.162,160.095,249.389,
00:00:20:117,-0.216,-0.579,0.872,87.28,211.12,286.438,
00:00:20:133,-0.136,-0.688,0.764,161.621,192.688,250.732,
00:00:20:150,-0.091,-0.902,0.745,65.063,176.391,274.719,
00:00:20:167,-0.114,-0.715,0.873,-306.763,298.034,303.222,
00:00:20:183,0.005,-0.706,0.753,-149.353,324.829,198.669,
00:00:20:200,0.064,-0.679,0.734,133.484,119.873,224.487,
00:00:20:217,-0.036,-0.788,0.494,51.757,82.153,253.479,
00:00:20:233,-0.128,-0.894,0.654,-127.076,61.035,252.502,
00:00:20:250,-0.102,-0.713,0.824,-317.505,226.562,327.392,
00:00:20:267,0.023,-0.428,0.697,-202.088,226.44,303.222,
00:00:20:283,0.041,-0.671,0.786,44.738,133.484,242.675,
00:00:20:300,-0.006,-0.664,0.87,246.521,148.925,276.428,
00:00:20:317,0.032,-0.978,0.817,294.433,99.182,116.272,
00:00:20:333,-0.018,-1.111,0.884,-86.304,178.222,135.986,
00:00:20:350,-0.025,-0.824,0.779,-318.604,235.778,125.488,
00:00:20:367,0.008,-0.589,0.759,-385.376,238.281,132.08,
00:00:20:383,0.062,-0.515,0.819,-291.932,200.073,148.071,
00:00:20:400,0.11,-0.547,0.68,-178.528,168.884,124.694,
00:00:20:417,0.071,-0.579,0.704,-220.948,173.095,162.902,
00:00:20:433,0.074,-0.464,0.658,-307.496,240.051,225.219,
00:00:20:450,0.103,-0.566,1.34,-270.02,269.958,229.126,
00:00:20:467,0.357,-1.088,0.751,863.281,67.199,-352.539,
00:00:20:483,0.143,-1.282,0.71,400.94,-107.056,-199.158,
00:00:20:500,-0.109,-0.747,0.859,1.22,39.672,-39.734,
00:00:20:517,-0.024,-0.404,0.79,108.581,275.146,-240.479,
00:00:20:533,0.188,-0.381,0.777,517.822,267.456,-214.356,
00:00:20:550,0.273,-0.643,0.658,1167.785,8.483,-282.654,
00:00:20:567,0.172,-1,0.531,1431.64,-211.426,-355.652,
00:00:20:583,-0.134,-1.492,0.718,142.151,-253.602,-680.176,
00:00:20:600,-0.081,-1.153,0.703,-333.252,-161.011,-688.477,
00:00:20:617,-0.029,-0.833,0.705,-253.602,-199.341,-733.338,
00:00:20:633,-0.049,-0.742,0.617,170.532,-306.275,-797.852,
00:00:20:650,-0.15,-0.877,0.529,381.347,-427.613,-828.797,
00:00:20:667,-0.236,-0.975,0.538,476.135,-410.828,-833.313,
00:00:20:683,-0.194,-0.89,0.536,-215.577,-209.168,-763.977,
00:00:20:700,-0.212,-0.724,0.173,-550.599,-94.3,-703.614,
00:00:20:717,-0.171,-0.508,0.429,-806.031,-35.645,-499.695,
00:00:20:733,-0.131,-0.202,0.333,-944.397,87.585,-336.792,
00:00:20:750,-0.095,0.04,0.279,-1000.306,123.901,-104.493,
00:00:20:767,-0.127,0.165,0.41,-1063.355,192.26,203.003,
00:00:20:783,-0.193,0.072,0.676,-425.782,199.279,322.876,
00:00:20:800,-0.177,-0.235,0.668,359.436,17.273,315.185,
00:00:20:817,-0.21,-0.782,0.69,609.863,-119.568,341.43,
00:00:20:833,-0.299,-1.364,0.47,172.424,-97.352,363.22,
00:00:20:850,-0.339,-1.339,0.475,-714.722,64.025,346.74,
00:00:20:867,-0.309,-0.691,0.485,-1335.328,291.687,382.629,
00:00:20:883,-0.219,-0.422,1.02,-1291.077,406.982,386.779,
00:00:20:900,0.091,-0.439,1.018,141.052,138.977,284.118,
00:00:20:917,0.002,-0.643,0.68,809.753,-140.686,172.363,
00:00:20:933,-0.226,-0.923,0.561,610.29,-175.904,168.396,
00:00:20:950,-0.34,-1.167,0.786,-54.261,59.631,238.769,
00:00:20:967,-0.182,-0.737,0.741,-343.079,210.083,286.926,
00:00:20:983,-0.048,-0.43,0.692,-230.347,220.764,329.467,
00:00:21:0,-0.044,-0.428,0.657,-119.507,173.828,345.092,
00:00:21:17,-0.053,-0.656,0.689,-11.902,174.194,350.097,
00:00:21:33,-0.042,-0.89,0.536,-153.687,217.468,286.255,
00:00:21:50,-0.003,-0.904,0.693,-226.319,256.225,341.247,
00:00:21:67,-0.019,-0.527,0.361,-231.934,325.622,389.892,
00:00:21:83,-0.071,-0.439,0.395,-592.774,462.829,412.658,
00:00:21:100,0.096,-0.503,0.078,-331.849,553.772,394.348,
00:00:21:117,0.115,-0.416,0.14,-600.647,800.109,594.238,
00:00:21:133,0.38,-1.753,3.999,-54.078,432.067,317.382,grateLH
00:00:21:150,0.859,-2.478,0.292,1999.694,-443.97,-1037.232,
00:00:21:167,-0.577,-1.318,0.601,-472.779,-460.694,451.049,
00:00:21:183,-0.946,-0.188,1.287,-1398.438,343.933,-268.372,
00:00:21:200,-0.004,0.018,1.005,-691.712,730.041,-524.292,
00:00:21:217,0.557,-0.123,0.7,224.426,313.415,-48.279,
00:00:21:233,0.391,-0.474,0.539,1076.355,-319.458,-199.707,
00:00:21:250,0.05,-0.887,0.732,1324.279,-508.606,-232.789,
00:00:21:267,-0.054,-1.22,0.736,1339.599,-297.364,-268.006,
00:00:21:283,0.172,-1.39,0.609,1173.095,-313.233,-483.338,
00:00:21:300,0.171,-1.543,0.52,787.231,-448.426,-587.281,
00:00:21:317,-0.087,-1.472,0.655,363.708,-497.62,-667.298,
00:00:21:333,-0.23,-1.278,0.512,93.2,-315.308,-772.4,
00:00:21:350,-0.111,-0.997,0.674,-80.689,-240.479,-795.166,
00:00:21:367,-0.07,-0.744,0.536,-104.004,-246.155,-846.253,
00:00:21:383,-0.127,-0.725,0.463,-34.546,-261.719,-845.704,
00:00:21:400,-0.174,-0.529,0.364,-102.723,-212.891,-701.111,
00:00:21:417,-0.221,-0.342,0.481,-171.631,-125.794,-597.107,
00:00:21:433,-0.179,-0.24,0.4,-198.121,-45.472,-440.003,
00:00:21:450,-0.103,-0.118,0.423,-99.488,15.197,-253.174,
00:00:21:467,-0.106,-0.115,0.216,-171.753,22.338,-96.07,
00:00:21:483,-0.199,-0.265,0.306,-443.116,178.161,157.653,
00:00:21:500,-0.162,-0.466,0.592,-17.395,171.203,183.96,
00:00:21:517,-0.107,-0.934,0.71,107.36,73.608,187.561,
00:00:21:533,-0.257,-1.131,0.791,44.433,-24.964,265.503,
00:00:21:550,-0.361,-1.256,0.808,-425.415,-1.221,236.694,
00:00:21:567,-0.358,-0.961,0.507,-847.535,81.115,114.868,
00:00:21:583,-0.361,-0.699,0.456,-1067.017,104.492,201.965,
00:00:21:600,-0.302,-0.531,0.698,-685.608,77.941,208.13,
00:00:21:617,-0.271,-0.592,0.683,-258.24,23.437,161.56,
00:00:21:633,-0.226,-0.614,0.735,40.161,-7.752,126.159,
00:00:21:650,-0.112,-0.85,0.576,-100.953,40.649,145.996,
00:00:21:667,-0.034,-0.916,0.661,32.043,34.179,136.047,
00:00:21:683,-0.295,-0.899,0.869,-242.493,70.678,60.913,
00:00:21:700,-0.278,-0.453,0.557,-218.384,164.734,35.888,
00:00:21:717,-0.232,-0.292,0.661,-307.801,203.186,155.639,
00:00:21:733,-0.15,-0.366,0.768,226.074,76.599,223.816,
00:00:21:750,-0.067,-0.874,0.969,466.369,-6.043,154.724,
00:00:21:767,-0.135,-1.311,0.7,259.46,-18.555,70.739,
00:00:21:783,-0.168,-1.029,0.531,-413.086,138.427,91.613,
00:00:21:800,-0.073,-0.693,0.528,-618.531,203.247,72.021,
00:00:21:817,-0.053,-0.472,0.696,-280.335,96.008,123.108,
00:00:21:833,-0.172,-0.551,0.741,164.123,23.01,125.732,
00:00:21:850,-0.168,-0.644,0.739,351.745,50.048,92.834,
00:00:21:867,-0.049,-0.747,0.696,95.825,88.501,52.978,
00:00:21:883,0.006,-0.872,0.79,-126.282,79.223,91.735,
00:00:21:900,0.029,-0.705,0.726,-198.975,107.238,157.531,
00:00:21:917,-0.093,-0.747,0.836,72.692,31.005,84.899,
00:00:21:933,-0.174,-0.789,0.743,-31.739,42.724,89.599,
00:00:21:950,-0.124,-0.797,0.71,-202.576,117.431,115.783,
00:00:21:967,0.007,-0.661,0.71,-76.355,115.112,124.389,
00:00:21:983,0.027,-0.787,0.559,92.285,40.588,43.457,
00:00:22:0,-0.031,-0.991,0.732,-126.587,29.663,30.944,
00:00:22:17,-0.144,-0.723,0.846,-417.298,88.378,100.28,
00:00:22:33,-0.126,-0.521,0.74,-231.019,113.586,93.078,
00:00:22:50,0.006,-0.615,0.664,85.51,24.963,51.513,
00:00:22:67,-0.01,-0.818,0.703,-22.217,30.273,79.284,
00:00:22:83,-0.123,-0.715,0.841,-300.049,80.139,119.018,
00:00:22:100,-0.042,-0.645,0.805,-183.167,122.924,60.363,
00:00:22:117,0.012,-0.616,0.663,-61.89,99.182,99.792,
00:00:22:133,-0.035,-0.535,0.69,-57.984,85.266,153.137,
00:00:22:150,-0.035,-0.837,0.882,-165.589,94.36,100.708,
00:00:22:167,-0.052,-0.818,0.702,-418.702,175.72,107.788,
00:00:22:183,-0.072,-0.537,0.629,-636.902,285.4,215.088,
00:00:22:200,0.018,-0.235,0.698,-539.307,295.166,266.479,
00:00:22:217,0.152,-0.543,0.703,-299.317,272.522,239.685,
00:00:22:233,0.17,-0.829,0.83,-451.172,325.988,231.933,
00:00:22:250,0.087,-0.463,0.79,-391.419,432.373,272.949,
00:00:22:267,0.24,-0.881,1.545,127.502,164.428,17.15,
00:00:22:283,0.072,-1.548,0.614,393.554,-127.137,-239.075,
00:00:22:300,-0.245,-0.852,0.773,-510.865,125.793,81.176,
00:00:22:317,0.007,-0.293,0.94,-921.814,313.049,-122.742,
00:00:22:333,0.281,-0.053,0.878,-442.444,207.885,6.897,
00:00:22:350,0.242,-0.081,0.975,150.024,-22.461,-12.024,
00:00:22:367,0.097,-0.455,0.937,586.853,-118.348,-89.173,
00:00:22:383,0.118,-0.778,0.832,728.088,-149.659,-78.431,
00:00:22:400,0.152,-0.821,0.789,589.66,-168.519,-47.852,
00:00:22:417,0.202,-0.729,0.802,448.303,-226.685,-71.412,
00:00:22:433,0.276,-0.68,0.765,437.072,-276.246,-125.916,
00:00:22:450,0.275,-0.64,0.707,545.288,-343.14,-181.458,
00:00:22:467,0.181,-0.773,0.725,1082.824,-439.82,-324.036,
00:00:22:483,0.047,-1.013,0.719,1593.994,-613.831,-475.22,
00:00:22:500,-0.127,-1.31,0.665,1562.927,-659.119,-565.918,
00:00:22:517,-0.266,-1.477,0.629,822.815,-496.949,-583.191,
00:00:22:533,-0.253,-1.201,0.552,55.664,-267.212,-687.989,
00:00:22:550,-0.176,-0.904,0.597,-298.89,-192.261,-669.8,
00:00:22:567,-0.188,-0.727,0.678,-240.235,-130.982,-617.493,
00:00:22:583,-0.124,-0.578,0.62,-252.564,-125,-532.959,
00:00:22:600,-0.179,-0.404,0.675,-396.973,-38.331,-419.495,
00:00:22:617,-0.205,-0.358,0.613,-284.79,24.231,-384.644,
00:00:22:633,-0.161,-0.279,0.558,-27.1,22.094,-241.578,
00:00:22:650,-0.146,-0.331,0.485,-71.534,17.517,-80.872,
00:00:22:667,-0.173,-0.41,0.483,-385.621,152.771,105.285,
00:00:22:683,-0.161,-0.501,0.607,-240.723,248.413,149.658,
00:00:22:700,-0.245,-0.673,0.781,-290.833,247.558,256.164,
00:00:22:717,-0.211,-0.899,0.721,-112.366,277.099,264.099,
00:00:22:733,-0.237,-0.815,0.687,-242.92,266.479,338.317,
00:00:22:750,-0.503,-0.225,0.438,-1009.156,350.158,570.434,
00:00:22:767,-0.404,-0.422,1.004,-941.102,688.72,573.974,
00:00:22:783,0.424,-0.543,0.604,58.654,525.146,469.909,
00:00:22:800,0.425,-0.93,0.798,177.49,268.31,467.59,
00:00:22:817,0.292,-0.98,0.933,807.617,96.13,260.131,
00:00:22:833,0.031,-1.525,0.771,51.635,82.336,103.21,
00:00:22:850,-0.05,-1.114,0.741,-335.267,292.236,102.722,
00:00:22:867,0.027,-0.739,0.718,-647.339,290.1,60.669,
00:00:22:883,-0.016,-0.392,0.75,-498.78,210.693,160.583,
00:00:22:900,-0.015,-0.292,0.698,-59.388,159.729,210.754,
00:00:22:917,0.142,-0.407,0.745,57.861,145.385,194.397,
00:00:22:933,0.225,-0.622,0.576,-42.603,144.348,190.612,
00:00:22:950,0.227,-0.77,0.629,-195.435,186.035,237.426,
00:00:22:967,0.236,-0.554,0.745,-220.398,280.517,305.908,
00:00:22:983,0.202,-0.358,0.637,-64.27,324.707,270.996,
00:00:23:0,0.227,-0.472,1.052,247.131,199.035,221.618,
00:00:23:17,0.203,-1.397,1.394,612.182,-116.211,-48.523,
00:00:23:33,-0.119,-1.692,0.468,392.944,-97.474,-160.279,
00:00:23:50,-0.15,-0.792,0.959,-626.221,185.302,61.279,
00:00:23:67,0.063,-0.306,0.935,-742.554,366.699,-91.37,
00:00:23:83,0.313,-0.182,0.772,-162.537,257.629,-29.541,
00:00:23:100,0.335,-0.37,0.699,549.194,-7.569,-129.09,
00:00:23:117,0.193,-0.658,0.69,842.712,-141.236,-182.801,
00:00:23:133,0.123,-0.902,0.633,788.33,-125.306,-201.6,
00:00:23:150,0.219,-1.059,0.66,550.109,-98.084,-272.583,
00:00:23:167,0.279,-0.945,0.593,458.068,-101.014,-325.44,
00:00:23:183,0.231,-0.906,0.608,692.871,-233.887,-428.467,
00:00:23:200,0.065,-1.115,0.682,1037.414,-460.877,-619.568,
00:00:23:217,-0.092,-1.329,0.717,863.22,-497.925,-715.271,
00:00:23:233,-0.14,-1.283,0.656,263.244,-359.253,-832.947,
00:00:23:250,-0.074,-1.026,0.612,-205.567,-278.809,-915.284,
00:00:23:267,-0.047,-0.818,0.698,-77.027,-347.474,-938.111,
00:00:23:283,-0.114,-0.716,0.63,-188.111,-382.874,-890.015,
00:00:23:300,-0.193,-0.539,0.616,-284.18,-342.469,-778.992,
00:00:23:317,-0.189,-0.252,0.463,-372.193,-122.071,-674.988,
00:00:23:333,-0.113,-0.172,0.506,-323.121,50.354,-499.817,
00:00:23:350,0,-0.027,0.644,-344.788,181.823,-319.642,
00:00:23:367,0.013,-0.232,0.66,-550.538,387.878,-86.06,
00:00:23:383,-0.058,-0.293,0.573,-916.565,565.612,62.5,
00:00:23:400,-0.146,-0.62,0.574,-254.029,570.129,57.8,
00:00:23:417,-0.006,-0.88,0.812,226.257,505.249,82.885,
00:00:23:433,-0.056,-1.114,0.849,19.775,451.294,70.617,
00:00:23:450,-0.254,-1.157,0.826,-855.652,564.331,-27.527,
00:00:23:467,-0.191,-0.8,0.721,-1360.169,680.603,41.503,
00:00:23:483,-0.147,-0.406,0.908,-1205.933,710.51,113.464,
00:00:23:500,0.008,-0.248,0.973,-684.632,579.467,122.68,
00:00:23:517,0.008,-0.711,0.932,-509.522,557.006,52.307,
00:00:23:533,-0.062,-0.954,1.026,-761.597,582.336,66.955,
00:00:23:550,-0.116,-0.647,0.874,-984.498,543.823,121.765,
00:00:23:567,-0.072,-0.398,0.785,-872.376,512.634,104.187,
00:00:23:583,0.09,-0.389,0.774,-695.069,399.231,110.412,
00:00:23:600,0.147,-0.591,0.755,-505.677,267.883,76.477,
00:00:23:617,0.179,-0.886,0.821,-628.357,274.597,59.753,
00:00:23:633,-0.017,-0.393,0.808,-855.164,243.896,167.48,
00:00:23:650,0.127,-0.143,1.055,-545.594,207.092,73.791,
00:00:23:667,0.258,-0.489,1.02,-183.411,134.155,-23.621,
00:00:23:683,0.14,-0.429,0.727,-262.391,83.496,-2.564,
00:00:23:700,0.166,-0.299,1.037,-497.132,151.306,-17.395,
00:00:23:717,0.254,-0.228,1.245,-453.675,148.071,-33.448,
00:00:23:733,0.166,-0.275,0.914,-292.542,118.408,-58.777,
00:00:23:750,0.106,-0.357,0.807,-258.973,115.234,-19.41,
00:00:23:767,0.16,-0.372,0.924,-242.127,102.295,7.263,
00:00:23:783,0.193,-0.33,0.931,-339.6,74.157,-21.912,
00:00:23:800,0.163,-0.28,0.935,-380.127,88.501,-33.875,
00:00:23:817,0.121,-0.144,0.923,-374.451,107.971,35.827,
00:00:23:833,0.134,-0.153,0.975,-200.013,81.787,20.568,
00:00:23:850,0.227,-0.294,1.026,-178.956,92.956,6.469,
00:00:23:867,0.202,-0.256,0.907,-249.268,87.524,12.756,
00:00:23:883,0.165,-0.305,0.937,-182.557,97.961,-35.706,
00:00:23:900,0.213,-0.178,1.024,-263.977,97.656,25.695,
00:00:23:917,0.129,-0.196,0.986,-235.779,88.256,26.306,
00:00:23:933,0.159,-0.247,0.837,93.566,65.063,10.07,
00:00:23:950,0.231,-0.26,0.926,194.58,44.921,-11.841,
00:00:23:967,0.179,-0.201,1.04,-80.262,67.199,-10.621,
00:00:23:983,0.141,-0.174,1.031,-175.232,77.148,36.499,
00:00:24:0,0.161,-0.137,0.889,-28.016,72.57,54.992,
00:00:24:17,0.192,-0.154,0.874,158.996,69.885,16.723,
00:00:24:33,0.193,-0.238,1.016,178.344,59.814,-14.161,
00:00:24:50,0.178,-0.364,1.06,15.136,65.307,11.718,
00:00:24:67,0.19,-0.422,0.994,-45.899,76.782,21.972,
00:00:24:83,0.191,-0.252,0.962,57.251,56.152,7.08,
00:00:24:100,0.212,-0.167,1.009,178.955,21.179,-25.208,
00:00:24:117,0.284,-0.289,1.126,357.422,-40.101,-68.726,
00:00:24:133,0.331,-0.409,1.102,467.59,-103.577,-109.559,
00:00:24:150,0.345,-0.483,0.965,551.757,-174.683,-171.631,
00:00:24:167,0.313,-0.407,0.842,527.588,-228.333,-203.125,
00:00:24:183,0.271,-0.303,0.824,616.699,-222.107,-242.859,
00:00:24:200,0.261,-0.213,0.979,879.699,-235.718,-277.588,
00:00:24:217,0.269,-0.148,1.049,1125,-293.152,-273.377,
00:00:24:233,0.28,-0.287,1.103,1250.793,-379.944,-284.058,
00:00:24:250,0.092,-0.419,0.857,1646.789,-566.04,-310.669,
00:00:24:267,-0.053,-0.397,0.764,1727.417,-621.827,-284.913,
00:00:24:283,-0.117,-0.408,0.743,1617.675,-507.874,-245.972,
00:00:24:300,-0.127,-0.491,0.233,1526.611,-351.502,-224.793,
00:00:24:317,-0.166,-0.592,0.25,1572.754,-325.806,-164.978,
00:00:24:333,-0.293,-0.716,0.281,1445.495,-410.462,-41.382,
00:00:24:350,-0.432,-0.917,0.492,936.889,-310.852,111.816,
00:00:24:367,-0.456,-1.039,0.495,584.9,-148.682,79.956,
00:00:24:383,-0.344,-1.275,0.6,762.024,-136.17,-66.102,
00:00:24:400,-0.265,-1.328,0.494,614.746,-335.938,-173.829,
00:00:24:417,-0.366,-1.281,0.449,282.959,-479.859,-204.59,
00:00:24:433,-0.308,-0.921,0.216,-62.5,-246.766,-315.613,
00:00:24:450,-0.083,-0.473,0.289,80.688,-113.038,-246.094,
00:00:24:467,0.053,-0.216,0.422,-6.287,-140.564,-52.857,
00:00:24:483,0.201,-0.228,0.783,303.1,-197.083,3.234,
00:00:24:500,0.18,-0.694,0.541,597.229,-218.506,-93.934,
00:00:24:517,0.092,-1.391,0.617,883.545,-338.807,-29.175,
00:00:24:533,-0.134,-1.767,0.494,924.682,-336.731,-42.786,
00:00:24:550,-0.367,-1.527,0.321,184.57,-276.978,-165.223,
00:00:24:567,-0.378,-1.026,0.343,-338.929,12.512,-161.622,
00:00:24:583,-0.158,-0.723,0.609,-405.64,230.529,-80.14,
00:00:24:600,0.108,-0.807,0.479,-34.668,123.413,-91.431,
00:00:24:617,-0.059,-1.015,0.246,572.204,-171.814,-139.222,
00:00:24:633,-0.37,-0.854,0.283,711.12,-280.518,-100.647,
00:00:24:650,-0.231,-0.937,0.617,308.899,-24.17,-87.952,
00:00:24:667,0.287,-0.962,0.598,13,-32.349,-76.722,
00:00:24:683,-0.012,-0.879,0.437,161.377,-279.419,-93.628,
00:00:24:700,-0.29,-0.937,0.48,231.994,-211.548,-91.004,
00:00:24:717,-0.001,-1.019,0.407,-7.813,-61.524,-23.072,
00:00:24:733,0.054,-1.028,0.279,-64.209,-72.876,-15.259,
00:00:24:750,-0.13,-0.902,0.213,-138.123,7.141,-8.973,
00:00:24:767,-0.067,-0.931,0.163,-121.949,24.414,39.245,
00:00:24:783,-0.054,-0.993,0.315,-173.829,55.786,85.51,
00:00:24:800,-0.038,-1.152,0.37,-187.928,115.478,105.651,
00:00:24:817,-0.001,-1.251,0.426,-317.261,135.62,148.864,
00:00:24:833,0.016,-1.201,0.343,-460.938,122.924,121.643,
00:00:24:850,0.05,-1.088,0.348,-553.406,89.355,35.339,
00:00:24:867,0.119,-1.064,0.27,-527.039,75.073,-59.51,
00:00:24:883,0.152,-0.946,0.355,-431.641,-8.362,-117.066,
00:00:24:900,0.075,-0.739,0.48,-316.895,-101.563,-125.061,
00:00:24:917,0.055,-0.682,0.762,-228.394,-158.57,-181.885,
00:00:24:933,0.168,-0.642,1.008,-340.088,-182.435,-77.393,
00:00:24:950,0.163,-0.698,0.882,-467.347,-208.558,-79.346,
00:00:24:967,0.055,-0.717,0.578,-143.372,-302.124,-125.672,
00:00:24:983,-0.685,-0.809,-0.052,535.766,-597.84,-64.576,
00:00:25:0,-1.075,-1.146,0.281,588.44,-429.688,59.021,
00:00:25:17,-0.908,-1.363,0.293,193.603,117.675,-16.236,
00:00:25:33,-0.344,-1.19,0.515,-307.923,272.277,-155.518,
00:00:25:50,-0.038,-0.865,0.442,-922.974,180.114,-28.016,
00:00:25:67,-0.093,-0.573,0.283,-1249.085,75.317,125,
00:00:25:83,-0.291,-0.364,0.222,-1023.133,51.208,134.277,
00:00:25:100,-0.445,-0.274,0.186,-795.044,114.074,209.838,
00:00:25:117,-0.39,-0.722,0.379,-210.083,429.321,115.539,
00:00:25:133,-0.015,-1.24,0.953,183.227,479.492,179.504,grateLH
00:00:25:150,0.174,-1.484,0.839,459.228,205.871,77.331,
00:00:25:167,-0.173,-1.434,0.777,608.886,-349.366,-204.346,
00:00:25:183,-0.666,-1.047,0.389,-3.663,-216.37,-118.958,
00:00:25:200,-0.545,-0.674,0.639,-264.222,197.754,-231.812,
00:00:25:217,0.324,-0.577,0.672,-220.154,597.107,78.613,
00:00:25:233,0.474,-0.719,0.194,128.479,194.885,-40.284,
00:00:25:250,-0.392,-1.066,0.798,461.853,-422.486,-256.043,
00:00:25:267,-0.721,-1.043,0.852,282.104,65.673,-95.826,
00:00:25:283,0.346,-0.691,0.319,22.338,82.824,-152.405,
00:00:25:300,-0.064,-0.796,0.576,355.285,-91.126,-265.32,
00:00:25:317,-0.061,-1.09,0.813,709.594,-13.733,-219.422,
00:00:25:333,0.217,-1.026,0.47,500.061,-13.489,-147.706,
00:00:25:350,-0.138,-0.997,0.585,421.63,0.122,-243.592,
00:00:25:367,-0.124,-1.185,0.574,495.727,-31.189,-334.046,
00:00:25:383,-0.191,-1.26,0.495,423.462,-125.123,-423.829,
00:00:25:400,-0.408,-1.404,0.453,365.539,-212.037,-582.032,
00:00:25:417,-0.605,-1.63,0.489,82.397,-203.431,-757.996,
00:00:25:433,-0.454,-1.161,0.407,-446.9,-143.128,-746.338,
00:00:25:450,-0.391,-0.658,0.565,-56.214,-190.979,-763.611,
00:00:25:467,-0.381,-0.622,0.258,569.519,-349.183,-780.396,
00:00:25:483,0.078,-0.535,1.02,-375.977,-228.821,-436.646,
00:00:25:500,-0.044,0.181,0.194,-1348.755,-108.521,-59.388,
00:00:25:517,-0.501,-0.286,0.104,-107.972,-256.47,-473.45,
00:00:25:533,-0.262,-0.517,0.451,-420.289,-137.818,264.465,
00:00:25:550,0.022,-0.585,0.524,-913.269,196.472,216.369,
00:00:25:567,0.163,-0.324,0.195,-347.29,131.775,414.123,
00:00:25:583,-0.102,-0.246,0.311,49.316,31.738,496.887,
00:00:25:600,-0.085,-0.468,0.34,-39.49,237.487,601.44,
00:00:25:617,0.118,-0.756,0.599,-486.084,365.905,795.715,
00:00:25:633,-0.383,-1.811,0.892,591.125,34.057,178.894,
00:00:25:650,-0.252,-1.901,0.484,1068.908,-8.912,401.184,
00:00:25:667,-0.252,-1.617,0.349,-171.936,281.25,278.076,
00:00:25:683,-0.331,-1.153,0.435,-774.109,546.692,130.432,
00:00:25:700,-0.237,-0.68,0.909,-744.996,642.089,187.378,
00:00:25:717,-0.138,-0.734,0.748,-682.984,629.943,139.587,
00:00:25:733,-0.226,-0.68,0.764,-797.669,493.347,262.817,
00:00:25:750,-0.332,-0.508,0.491,-673.279,460.693,291.809,
00:00:25:767,-0.197,-0.358,0.546,-451.233,382.019,378.601,
00:00:25:783,0.037,-0.974,0.391,-475.586,196.228,324.279,
00:00:25:800,0.069,-0.919,0.107,-157.898,118.164,291.87,
00:00:25:817,-0.041,-0.643,0.487,277.954,47.485,296.325,
00:00:25:833,-0.107,-0.906,0.802,238.769,47.668,180.908,
00:00:25:850,-0.011,-1.209,0.737,18.005,71.96,68.115,
00:00:25:867,-0.073,-0.884,0.512,-384.766,78.552,105.774,
00:00:25:883,-0.025,-0.503,0.449,-539.856,115.295,179.626,
00:00:25:900,0.081,-0.458,0.628,-51.209,-38.086,209.961,
00:00:25:917,-0.057,-0.851,0.745,138.061,-92.041,137.207,
00:00:25:933,-0.087,-1.031,0.616,-128.724,-32.41,157.592,
00:00:25:950,-0.011,-0.956,0.644,-313.355,6.286,141.052,
00:00:25:967,0.001,-0.968,0.777,-324.158,18.676,92.59,
00:00:25:983,0.017,-0.804,0.724,-468.323,26.062,102.356,
00:00:26:0,-0.027,-0.703,0.61,-383.301,93.078,85.571,
00:00:26:17,-0.021,-0.516,0.836,-303.711,86.792,141.052,
00:00:26:33,0.02,-0.692,0.89,-259.095,98.938,88.317,
00:00:26:50,0.043,-0.82,0.852,-384.034,102.05,105.407,
00:00:26:67,0.091,-0.742,0.637,-744.507,113.83,234.985,
00:00:26:83,0.267,-0.188,0.224,-679.078,184.021,467.407,
00:00:26:100,0.06,0.378,0.021,-856.446,606.872,618.469,
00:00:26:117,0.614,0.122,0.277,365.295,599.609,577.331,
00:00:26:133,-0.637,-1.388,1.337,-324.83,-727.112,-490.662,
00:00:26:150,1.231,-3.162,1.269,-43.396,1406.005,408.264,
00:00:26:167,0.143,-0.908,-0.231,-636.109,696.655,198.608,
00:00:26:183,-0.542,0.146,1.466,-292.42,-279.297,-520.203,
00:00:26:200,-0.366,0.302,1.314,639.038,495.544,-52.979,
00:00:26:217,0.291,-0.405,0.89,802.734,-123.902,-142.884,
00:00:26:233,0.093,-0.891,0.798,639.465,-193.726,-217.896,
00:00:26:250,0.061,-0.797,0.644,348.938,-146.424,-17.762,
00:00:26:267,0.23,-0.51,0.645,501.464,-172.12,26.062,
00:00:26:283,0.253,-0.459,0.72,1087.097,-374.939,-35.523,
00:00:26:300,0.148,-0.726,0.77,1185.547,-465.516,-155.762,
00:00:26:317,0.068,-1.127,0.667,701.416,-362.122,-193.055,
00:00:26:333,0.084,-1.238,0.632,181.945,-198.67,-227.784,
00:00:26:350,0.158,-1.007,0.66,-45.655,-141.846,-227.784,
00:00:26:367,-0.009,-1.139,0.487,722.961,-275.452,-595.215,
00:00:26:383,0.034,-1.097,0.687,413.33,-272.95,-630.921,
00:00:26:400,-0.046,-1.001,0.605,-1.343,-149.537,-611.817,
00:00:26:417,-0.076,-0.852,0.375,67.26,-80.872,-683.655,
00:00:26:433,-0.166,-0.72,0.468,374.633,-124.207,-574.341,
00:00:26:450,-0.061,-0.633,0.667,318.115,-187.806,-503.54,
00:00:26:467,-0.026,-0.615,0.548,-384.339,-110.535,-284.974,
00:00:26:483,0.02,-0.4,0.42,-903.687,-63.965,-150.33,
00:00:26:500,-0.025,-0.346,0.255,-1130.799,105.835,65.368,
00:00:26:517,-0.127,-0.146,0.373,-415.467,53.466,118.469,
00:00:26:533,-0.186,-0.156,0.559,133.728,-20.203,299.926,
00:00:26:550,-0.077,-0.694,1.175,204.345,-187.5,302.795,
00:00:26:567,-0.192,-1.076,0.599,-8.118,-67.017,306.762,
00:00:26:583,-0.071,-1.184,0.583,19.592,16.113,265.014,
00:00:26:600,-0.027,-1.039,0.614,-15.809,90.21,279.358,
00:00:26:617,-0.13,-0.631,0.611,-681.702,133.178,12.878,
00:00:26:633,-0.085,-0.396,0.586,-509.461,104.736,63.11,
00:00:26:650,-0.036,-0.483,0.632,-115.723,21.057,76.965,
00:00:26:667,0.001,-0.708,0.522,50.048,-74.097,114.807,
00:00:26:683,-0.044,-0.899,0.5,28.137,-104.31,109.253,
00:00:26:700,-0.051,-0.707,0.483,2.136,21.057,71.777,
00:00:26:717,-0.097,-0.744,0.622,-129.7,43.762,127.502,
00:00:26:733,-0.108,-0.605,0.796,26.306,-9.034,136.352,
00:00:26:750,-0.105,-0.796,0.813,235.473,-118.226,46.447,
00:00:26:767,-0.249,-1.002,0.576,-40.406,-104.371,52.307,
00:00:26:783,-0.036,-0.852,0.76,259.094,-50.232,-86.548,
00:00:26:800,-0.089,-0.976,0.791,-0.916,-124.024,-41.138,
00:00:26:817,-0.104,-0.966,0.678,-204.956,-53.711,-80.14,
00:00:26:833,-0.15,-0.773,0.633,-67.81,-86.121,-63.538,
00:00:26:850,-0.261,-0.663,0.595,-190.43,-94.056,-60.242,
00:00:26:867,-0.128,-0.693,0.625,-270.081,-8.362,9.826,
00:00:26:883,-0.013,-0.735,0.674,-288.514,38.33,13.671,
00:00:26:900,-0.018,-0.731,0.684,-213.929,18.859,-56.946,
00:00:26:917,0.012,-0.807,0.595,-122.925,-32.349,-27.588,
00:00:26:933,-0.02,-0.787,0.634,-115.174,-91.004,16.967,
00:00:26:950,-0.174,-0.88,0.687,-34.974,-33.692,-110.291,
00:00:26:967,-0.242,-0.784,0.614,-32.593,-36.255,-101.38,
00:00:26:983,-0.24,-0.501,0.657,-140.381,-5.249,-16.297,
00:00:27:0,-0.203,-0.412,0.778,-20.508,-16.053,22.277,
00:00:27:17,-0.105,-0.89,0.805,-61.707,-67.933,7.141,
00:00:27:33,-0.062,-1.078,0.76,-172.547,-40.955,10.253,
00:00:27:50,-0.139,-0.712,0.707,-214.234,-14.588,35.522,
00:00:27:67,-0.166,-0.743,0.752,-74.891,-18.433,-89.417,
00:00:27:83,-0.132,-0.8,0.663,-244.446,-18.494,-16.358,
00:00:27:100,-0.062,-0.618,0.689,-282.532,23.681,19.714,
00:00:27:117,-0.086,-0.561,0.756,-3.418,19.226,23.376,
00:00:27:133,-0.094,-0.583,0.768,184.387,10.376,-7.752,
00:00:27:150,-0.038,-0.929,0.757,-94.849,17.639,-5.127,
00:00:27:167,-0.071,-0.838,0.66,-274.231,54.504,55.236,
00:00:27:183,-0.099,-0.485,0.629,-151.246,46.875,79.345,
00:00:27:200,-0.154,-0.528,0.647,124.328,10.559,51.086,
00:00:27:217,-0.196,-0.913,0.781,332.275,-54.444,-14.161,
00:00:27:233,-0.34,-1.127,0.691,-96.375,36.377,-22.156,
00:00:27:250,-0.252,-0.788,0.69,-181.885,95.031,-14.954,
00:00:27:267,-0.13,-0.453,0.758,-50.477,10.253,24.78,
00:00:27:283,-0.101,-0.402,0.76,188.903,-7.203,48.523,
00:00:27:300,-0.032,-0.611,0.76,521.484,-74.036,22.949,
00:00:27:317,-0.039,-1.007,0.729,601.318,-98.816,-59.754,
00:00:27:333,-0.122,-1.163,0.758,399.109,-63.721,-119.446,
00:00:27:350,-0.183,-1.069,0.735,166.442,-64.881,-154.664,
00:00:27:367,-0.226,-1.014,0.772,3.356,-96.192,-212.708,
00:00:27:383,-0.401,-1.107,0.665,227.05,-168.335,-369.812,
00:00:27:400,-0.453,-1.209,0.568,328.735,-131.104,-433.106,
00:00:27:417,-0.416,-1.27,0.654,471.618,-194.214,-610.657,
00:00:27:433,-0.352,-1.253,0.574,-73.365,-81.849,-630.188,
00:00:27:450,-0.234,-0.995,0.586,-456.788,-3.479,-679.139,
00:00:27:467,-0.068,-0.609,0.705,-524.17,-11.719,-600.892,
00:00:27:483,0.186,-0.312,0.711,-406.983,-38.636,-453.492,
00:00:27:500,0.058,-0.213,0.502,-218.506,-71.045,-391.48,
00:00:27:517,0.247,-0.25,0.514,-437.5,-31.739,-213.196,
00:00:27:533,-0.271,-0.469,0.264,-387.024,140.258,-266.236,
00:00:27:550,-0.324,-0.445,0.637,-92.896,34.851,-135.926,
00:00:27:567,-0.225,-0.376,0.729,-390.686,138.916,18.432,
00:00:27:583,-0.164,-0.307,0.571,-489.502,166.565,171.02,
00:00:27:600,-0.13,-0.119,0.561,-322.022,132.324,340.942,
00:00:27:617,-0.015,-0.137,0.484,-84.412,186.096,442.81,
00:00:27:633,0.061,-0.152,0.606,40.588,148.193,512.207,
00:00:27:650,-0.238,-0.792,0.609,125.732,275.085,372.07,
00:00:27:667,0.024,-0.893,0.752,306.579,138.122,563.049,
00:00:27:683,-0.461,-1.214,0.835,665.283,33.569,239.929,
00:00:27:700,-0.426,-1.397,0.891,374.267,107.177,259.948,
00:00:27:717,-0.112,-0.461,0.969,-330.384,61.889,110.29,
00:00:27:733,-0.13,-0.809,0.845,131.591,-104.126,-61.524,
00:00:27:750,-0.182,-1.126,0.768,69.336,-93.75,-40.589,
00:00:27:767,-0.192,-0.972,0.778,-452.698,14.221,-23.316,
00:00:27:783,-0.095,-0.555,0.766,-607.605,94.726,-34.668,
00:00:27:800,0.019,-0.443,0.776,-250.672,15.014,-36.255,
00:00:27:817,-0.051,-0.538,0.801,65.612,-95.459,-67.078,
00:00:27:833,-0.14,-0.74,0.738,65.429,-137.696,-54.566,
00:00:27:850,-0.169,-0.805,0.663,-127.442,-75.135,-27.71,
00:00:27:867,-0.159,-0.702,0.583,-87.403,-78.064,-14.344,
00:00:27:883,-0.221,-0.631,0.588,74.646,-115.235,-60.364,
00:00:27:900,-0.248,-0.782,0.659,275.817,-149.353,-113.343,
00:00:27:917,-0.242,-0.901,0.725,258.484,-134.644,-139.039,
00:00:27:933,-0.232,-0.785,0.825,41.565,-81.177,-143.494,
00:00:27:950,-0.165,-0.685,0.814,59.692,-72.754,-152.527,
00:00:27:967,-0.159,-0.672,0.806,196.899,-158.143,-158.326,
00:00:27:983,-0.267,-0.777,0.734,340.82,-168.396,-217.102,
00:00:28:0,-0.304,-1.019,0.601,544.799,-180.787,-345.581,
00:00:28:17,-0.387,-1.248,0.578,507.202,-141.907,-464.966,
00:00:28:33,-0.483,-1.271,0.717,496.521,-204.346,-621.216,
00:00:28:50,0.098,-0.195,0.705,-109.681,-221.924,-494.629,
00:00:28:67,0.085,0.307,0.487,-1433.472,243.042,242.126,
00:00:28:83,-0.557,-0.011,0.224,-96.68,62.988,-530.762,
00:00:28:100,-0.45,-0.584,0.738,287.414,-55.115,-131.653,
00:00:28:117,-0.226,-0.819,0.963,-281.556,114.746,3.173,
00:00:28:133,-0.115,-0.356,0.661,-643.311,202.087,150.756,
00:00:28:150,-0.14,-0.065,0.598,-486.329,148.559,288.574,
00:00:28:167,-0.011,-0.116,0.638,24.353,95.52,328.613,grateLH
00:00:28:183,0.036,-0.065,0.58,-599.793,210.449,584.961,
00:00:28:200,-0.055,-0.299,0.484,-191.224,273.376,517.517,
00:00:28:217,-0.174,-0.457,0.323,-228.272,336.12,752.136,
00:00:28:233,-0.07,-0.893,0.806,1249.817,186.767,430.359,
00:00:28:250,-0.05,-1.237,0.6,621.399,-44.19,676.452,
00:00:28:267,-0.292,-1.587,0.843,29.846,58.776,297.058,
00:00:28:283,-0.248,-0.825,0.92,454.345,17.456,211.059,
00:00:28:300,-0.301,-1.065,0.959,532.104,-33.57,62.316,
00:00:28:317,-0.22,-1.051,0.956,128.479,42.236,12.329,
00:00:28:333,-0.179,-0.888,1.053,-2.991,3.295,-27.283,
00:00:28:350,-0.185,-0.899,0.909,-27.71,-50.171,-89.234,
00:00:28:367,-0.377,-1.154,0.743,190.063,-109.803,-251.221,
00:00:28:383,-0.514,-1.509,0.482,614.196,-172.364,-462.037,
00:00:28:400,-0.455,-1.63,0.639,487.732,-123.963,-606.873,
00:00:28:417,0.145,-1.155,1.828,-326.783,-174.744,-665.162,
00:00:28:433,-0.413,-0.256,0.326,-1281.25,190.612,-402.283,
00:00:28:450,-0.252,-0.073,0.495,-220.765,4.211,-654.786,
00:00:28:467,0.136,0.164,0.537,-628.602,53.161,26.184,
00:00:28:483,0.07,0.267,0.509,-611.573,203.308,-5.372,
00:00:28:500,-0.168,-0.033,0.708,187.194,-6.226,3.723,
00:00:28:517,-0.202,-0.577,0.597,369.934,-37.049,107.605,
00:00:28:533,-0.105,-0.961,0.686,191.223,52.429,184.326,
00:00:28:550,-0.027,-0.642,0.639,-178.528,116.516,353.21,
00:00:28:567,-0.068,-0.286,0.521,-402.344,112.732,424.438,
00:00:28:583,-0.159,-0.495,0.483,94.604,145.324,346.13,
00:00:28:600,-0.112,-0.471,0.627,91.674,164.917,505.493,
00:00:28:617,-0.165,-0.982,0.518,647.583,141.54,288.452,
00:00:28:633,-0.019,-1.298,1.043,865.295,-229.31,284.79,
00:00:28:650,-0.414,-1.609,0.712,-31.067,1.77,123.657,
00:00:28:667,-0.263,-1.372,0.775,378.357,-6.104,-135.071,
00:00:28:683,-0.267,-1.076,0.834,78.369,-45.289,-90.699,
00:00:28:700,-0.355,-0.75,0.763,-145.813,89.111,-107.666,
00:00:28:717,-0.326,-0.763,0.66,492.981,97.717,-248.963,
00:00:28:733,-0.277,-1.193,0.589,1055.969,-44.556,-464.417,
00:00:28:750,-0.359,-1.792,0.484,739.318,65.185,-643.799,
00:00:28:767,-0.38,-1.744,0.585,53.466,206.97,-785.889,
00:00:28:783,-0.16,-1.063,0.998,-707.764,258.239,-831.36,
00:00:28:800,0.184,0.01,1.045,-1411.133,149.109,-352.906,
00:00:28:817,-0.237,0.16,0.155,-435.669,-0.184,-681.031,
00:00:28:833,0.34,0.071,0.528,-90.088,-90.027,-175.232,
00:00:28:850,-0.063,0.223,0.503,-910.828,188.11,203.064,
00:00:28:867,-0.357,-0.141,0.619,326.049,-147.339,-341.553,
00:00:28:883,-0.211,-0.699,0.744,318.847,-66.651,97.412,
00:00:28:900,0.01,-0.832,0.771,-112,-69.397,174.56,
00:00:28:917,-0.152,-0.222,0.585,-629.517,-18.86,456.543,
00:00:28:933,-0.197,0.066,0.838,-891.236,167.175,630.432,
00:00:28:950,-0.053,0.344,0.611,11.779,279.663,771.423,
00:00:28:967,-0.06,-0.317,0.591,924.743,215.088,551.818,
00:00:28:983,0.103,-0.891,0.699,964.416,79.406,645.141,
00:00:29:0,-0.108,-1.571,0.703,792.053,89.05,426.574,
00:00:29:17,-0.196,-1.857,0.498,701.843,3.112,318.908,
00:00:29:33,-0.221,-1.68,0.656,204.895,38.818,156.067,
00:00:29:50,-0.06,-1.213,0.764,-312.928,131.042,65.246,
00:00:29:67,0.015,-0.859,0.788,-245.179,93.383,56.03,
00:00:29:83,-0.296,-1.612,0.467,899.963,-158.936,-536.377,
00:00:29:100,-0.297,-1.879,0.416,738.037,-99.732,-784.546,
00:00:29:117,-0.343,-1.616,0.434,261.291,36.621,-906.434,
00:00:29:133,-0.143,-1.139,0.817,-291.748,15.625,-948.182,
00:00:29:150,-0.087,-0.514,0.568,-683.899,149.292,-891.053,
00:00:29:167,-0.149,0.01,0.305,-417.908,175.232,-780.884,
00:00:29:183,0.033,0.342,0.786,-432.373,-57.068,-422.913,
00:00:29:200,-0.152,0.665,0.596,-1294.495,171.386,-36.133,
00:00:29:217,-0.389,0.431,0.728,-1117.432,265.38,79.101,
00:00:29:233,-0.084,0.049,0.602,41.137,151.916,286.255,
00:00:29:250,-0.042,-0.417,0.719,521.484,-15.625,442.26,
00:00:29:267,-0.06,-0.794,0.773,345.092,-11.902,542.114,
00:00:29:283,-0.017,-0.637,0.586,-135.376,-0.733,701.172,
00:00:29:300,-0.273,-0.656,0.766,-854.615,233.154,762.39,
00:00:29:317,-0.026,-0.271,0.67,-556.031,80.627,900.329,
00:00:29:333,0.004,-0.303,0.617,-77.942,124.145,973.144,
00:00:29:350,0.059,-0.604,0.57,563.11,22.033,859.863,
00:00:29:367,0.021,-1.147,0.641,1040.893,-79.407,736.084,
00:00:29:383,0.048,-2.104,0.715,1784.546,-8.301,387.024,
00:00:29:400,0.282,-2.246,0.7,1998.901,-702.332,78.613,
00:00:29:417,-0.455,-2.331,0.335,-239.93,-223.389,122.314,
00:00:29:433,-0.294,-1.492,0.379,-1381.775,138.366,-381.775,
00:00:29:450,-0.157,-0.894,0.425,-1423.951,328.674,-244.202,
00:00:29:467,-0.082,-0.522,0.52,-521.973,216.735,-223.084,
00:00:29:483,0.049,-0.692,0.64,473.877,-9.888,-450.867,
00:00:29:500,-0.043,-1.205,0.596,752.746,-150.147,-605.408,
00:00:29:517,-0.235,-1.543,0.437,586.364,-21.241,-760.132,
00:00:29:533,-0.164,-1.379,0.596,-295.838,45.898,-706.055,
00:00:29:550,-0.19,-0.873,0.594,-547.181,190.979,-792.176,
00:00:29:567,-0.167,-0.623,0.56,-493.348,177.551,-752.747,
00:00:29:583,-0.174,-0.455,0.582,-192.078,62.622,-718.201,
00:00:29:600,-0.181,-0.363,0.613,-179.566,78.796,-604.493,
00:00:29:617,-0.182,-0.138,0.589,-63.721,149.78,-461.243,
00:00:29:633,-0.007,0.009,0.801,-254.517,63.72,-208.435,
00:00:29:650,-0.112,0.238,0.675,-866.517,156.067,109.497,
00:00:29:667,-0.324,0.293,0.747,-607.483,261.474,158.203,
00:00:29:683,0.04,-0.225,0.863,567.26,53.405,244.201,
00:00:29:700,0.012,-0.961,0.807,632.995,-241.761,362.365,
00:00:29:717,-0.431,-1.177,0.671,-215.027,-39.368,544.922,
00:00:29:733,-0.285,-1.179,0.847,-422.974,178.1,355.651,
00:00:29:750,-0.004,-0.986,0.807,-390.931,235.656,367.248,
00:00:29:767,-0.052,-0.918,0.797,-61.28,221.557,224.121,
00:00:29:783,-0.108,-1.096,0.676,36.926,326.294,17.211,
00:00:29:800,-0.031,-0.961,0.8,-335.999,395.752,8.178,
00:00:29:817,0.022,-0.674,0.75,-463.257,425.964,55.847,
00:00:29:833,0.046,-0.512,0.726,-233.643,327.026,85.266,
00:00:29:850,-0.107,-0.401,0.712,-94.483,190.185,144.836,
00:00:29:867,-0.219,-0.534,0.648,-0.489,182.129,108.825,
00:00:29:883,-0.155,-0.621,0.588,-162.232,185.852,231.506,
00:00:29:900,-0.061,-0.607,0.584,-181.275,154.602,276.001,
00:00:29:917,-0.05,-0.723,0.716,-19.959,56.64,271.972,
00:00:29:933,-0.133,-0.902,0.671,156.677,6.774,211.303,
00:00:29:950,-0.093,-0.924,0.632,-133.851,13.916,184.082,
00:00:29:967,0.103,-0.767,0.597,-111.39,-16.053,225.708,
00:00:29:983,0.121,-0.635,0.752,200.073,-102.967,203.979,
00:00:30:0,0.033,-0.872,0.957,278.015,-86.914,26.977,
00:00:30:17,-0.133,-0.925,0.834,-80.079,25.085,47.79,
00:00:30:33,-0.051,-0.451,0.807,-362.732,57.067,198.669,
00:00:30:50,0.064,-0.418,0.8,-60.303,8.789,204.284,
00:00:30:67,0.07,-0.6,0.804,156.494,-48.096,200.744,
00:00:30:83,-0.029,-0.707,0.766,119.384,-41.993,190.673,
00:00:30:100,-0.052,-0.854,0.643,-28.443,18.615,214.904,
00:00:30:117,0.085,-0.845,0.611,47.973,36.682,186.401,
00:00:30:133,0.036,-0.702,0.653,-140.625,-29.664,196.533,
00:00:30:150,0.078,-0.611,0.792,19.714,-65.247,220.398,
00:00:30:167,0.039,-0.812,0.691,8.361,-28.931,84.533,
00:00:30:183,-0.094,-0.841,0.814,-177.063,-26.246,114.868,
00:00:30:200,0.04,-0.779,0.773,-124.817,36.071,97.29,
00:00:30:217,0.111,-0.765,0.679,-132.019,-27.71,80.383,
00:00:30:233,-0.03,-0.628,0.747,-185.12,5.676,125.671,
00:00:30:250,0.031,-0.491,0.815,-40.467,28.198,147.461,
00:00:30:267,0.142,-0.865,0.79,122.436,5.371,43.09,
00:00:30:283,0.082,-0.788,0.599,-103.089,-8.423,86.914,
00:00:30:300,-0.192,-0.621,0.952,-456.91,17.211,207.214,
00:00:30:317,0.023,-0.409,0.934,-41.687,64.148,234.924,
00:00:30:333,0.25,-0.7,0.759,253.479,6.408,115.722,
00:00:30:350,0.08,-1.002,0.653,-153.931,-34.668,139.221,
00:00:30:367,0.109,-0.277,0.791,-187.073,75.988,307.006,
00:00:30:383,0.279,-0.67,0.877,526.733,-93.079,119.934,
00:00:30:400,0.194,-1.12,0.606,205.932,-4.639,62.988,
00:00:30:417,0.127,-0.927,0.715,-209.839,46.02,96.069,
00:00:30:433,0.081,-0.611,0.773,-149.903,85.083,47.546,
00:00:30:450,0.106,-0.52,0.786,136.901,62.316,-12.635,
00:00:30:467,0.111,-1.012,0.606,719.482,-27.649,-123.597,
00:00:30:483,0.141,-1.137,0.555,597.717,18.859,-153.138,
00:00:30:500,0.195,-1.143,0.483,315.002,80.688,-231.141,
00:00:30:517,0.196,-1.051,0.455,63.049,117.736,-270.264,
00:00:30:533,0.16,-0.899,0.41,76.11,149.414,-317.261,
00:00:30:550,0.085,-0.778,0.492,201.66,112.121,-351.868,
00:00:30:567,0.021,-0.715,0.653,305.053,65.795,-349.366,
00:00:30:583,0.016,-0.741,0.808,253.479,55.603,-317.383,
00:00:30:600,0.052,-0.747,0.793,380.737,25.756,-359.742,
00:00:30:617,0.049,-0.789,0.78,459.472,-76.905,-376.77,
00:00:30:633,-0.048,-0.952,0.732,530.944,-90.394,-475.037,
00:00:30:650,-0.06,-1.211,0.722,815.49,-126.831,-642.945,
00:00:30:667,-0.036,-1.36,0.648,250.976,-113.404,-582.154,
00:00:30:683,-0.171,-1.095,0.583,-227.845,37.231,-626.221,
00:00:30:700,-0.154,-0.934,0.689,-282.044,46.875,-660.889,
00:00:30:717,-0.058,-0.936,0.474,-277.161,135.498,-710.083,
00:00:30:733,-0.04,-0.792,0.768,-235.352,100.586,-619.141,
00:00:30:750,0.043,-0.547,0.564,-305.481,220.764,-551.148,
00:00:30:767,0.005,-0.282,0.642,-312.623,109.985,-403.687,
00:00:30:783,0.247,-0.134,0.662,-713.257,102.905,-99.61,
00:00:30:800,0.149,0.238,0.408,-1192.017,388,262.207,
00:00:30:817,0.09,-0.041,0.568,-170.899,190.002,22.216,
00:00:30:833,-0.057,-0.658,0.803,73.547,-105.225,123.23,
00:00:30:850,-0.204,-1.24,0.863,-383.973,126.22,235.656,
00:00:30:867,0.051,-1.009,0.699,-1050.354,274.902,314.026,
00:00:30:883,0.06,-0.245,0.925,-470.154,178.894,243.469,
00:00:30:900,0.247,-0.721,0.992,-152.466,8.972,55.481,
00:00:30:917,0.244,-1.198,0.933,-165.833,-21.424,59.326,
00:00:30:933,0.043,-0.743,0.779,-496.094,-28.626,220.703,
00:00:30:950,-0.101,-0.143,0.848,-522.278,-9.522,293.09,
00:00:30:967,0.045,-0.216,0.863,19.958,-10.804,174.133,
00:00:30:983,0.131,-0.631,0.75,274.414,-100.708,120.3,
00:00:31:0,0.077,-0.856,0.725,-37.964,-68.482,269.897,
00:00:31:17,0.032,-0.665,0.831,83.74,-85.022,319.641,
00:00:31:33,-0.042,-0.494,0.656,2.685,-38.697,316.711,
00:00:31:50,-0.092,-0.515,0.714,228.637,-13.184,250.854,
00:00:31:67,-0.071,-0.801,0.785,-139.344,-6.104,305.359,
00:00:31:83,-0.03,-0.987,0.85,216.735,31.372,205.749,
00:00:31:100,0.017,-1,0.837,197.754,13,191.04,
00:00:31:117,-0.099,-0.841,0.782,19.836,49.804,64.453,
00:00:31:133,-0.05,-0.936,0.696,-270.02,109.314,-13.184,
00:00:31:150,-0.023,-0.551,0.679,-361.878,134.887,122.192,
00:00:31:167,0.031,-0.395,0.963,-154.969,91.43,163.94,
00:00:31:183,0.124,-0.617,0.911,201.233,-13.611,22.888,
00:00:31:200,0.009,-0.862,0.719,114.868,-15.564,-40.345,
00:00:31:217,-0.092,-0.659,0.737,-362.915,79.528,66.223,
00:00:31:233,0.016,-0.517,0.915,-329.712,128.357,135.315,
00:00:31:250,0.213,-0.566,0.829,5.31,33.691,89.05,
00:00:31:267,0.157,-0.715,0.763,64.941,-11.658,18.798,
00:00:31:283,0.044,-0.706,0.68,-167.054,57.8,1.831,
00:00:31:300,-0.165,-0.331,0.834,-438.538,116.943,138.916,
00:00:31:317,-0.08,-0.247,1.053,99.609,133.545,154.541,
00:00:31:333,0.229,-0.708,0.944,284.79,16.296,72.631,
00:00:31:350,0.152,-1.035,0.772,-23.011,-5.188,27.16,
00:00:31:367,0.02,-0.643,0.78,-548.768,97.351,168.701,
00:00:31:383,0.115,-0.204,0.735,-519.471,187.683,235.473,
00:00:31:400,0.27,-0.12,0.744,-23.316,128.234,236.084,
00:00:31:417,0.332,-0.178,0.595,638.61,16.723,221.191,
00:00:31:433,0.258,-0.434,0.613,1148.62,-19.288,143.127,
00:00:31:450,0.219,-0.754,0.816,974.609,-78.492,135.681,
00:00:31:467,0.196,-1.355,0.818,889.221,-23.865,-91.736,
00:00:31:483,0.24,-1.774,0.599,622.924,-108.338,-254.029,
00:00:31:500,0.13,-1.506,0.465,-126.038,-24.72,-210.816,
00:00:31:517,0.138,-0.586,0.581,-543.274,204.406,-297.425,
00:00:31:533,0.212,-0.519,0.673,-146.363,94.36,-354.737,
00:00:31:550,0.114,-0.623,0.76,254.211,-74.463,-388.977,
00:00:31:567,-0.011,-0.779,0.708,519.226,-90.21,-399.537,
00:00:31:583,0.091,-0.804,0.941,450.805,-129.944,-338.929,
00:00:31:600,0.087,-0.749,0.882,127.807,-79.895,-311.829,
00:00:31:617,0.048,-0.75,0.823,22.888,-159.729,-370.179,
00:00:31:633,-0.032,-0.877,0.625,60.546,-154.664,-426.941,
00:00:31:650,0.033,-0.832,0.734,133.606,-131.592,-373.291,
00:00:31:667,0.072,-0.729,0.698,134.399,-81.36,-389.954,
00:00:31:683,0.044,-0.643,0.759,28.747,-128.724,-366.089,
00:00:31:700,-0.092,-0.613,0.712,20.629,-53.711,-403.809,
00:00:31:717,-0.017,-0.734,0.74,-136.475,-54.017,-401.49,
00:00:31:733,0,-0.713,0.786,-287.781,-36.988,-289.978,
00:00:31:750,-0.056,-0.544,0.755,-367.981,57.251,-236.451,
00:00:31:767,0.006,-0.42,0.707,-148.133,22.522,-253.113,
00:00:31:783,0.018,-0.528,0.795,-28.138,-58.35,-237.488,
00:00:31:800,-0.108,-0.6,0.774,-25.757,-26.246,-241.761,
00:00:31:817,-0.094,-0.566,0.791,-70.191,21.301,-176.575,
00:00:31:833,-0.028,-0.657,0.77,-92.286,4.577,-167.054,
00:00:31:850,-0.064,-0.823,0.703,118.225,-2.564,-211.487,
00:00:31:867,-0.215,-0.802,0.752,214.965,-23.743,-208.313,
00:00:31:883,-0.216,-0.918,0.768,91.308,54.016,-288.331,
00:00:31:900,-0.102,-0.926,0.728,-20.447,56.457,-356.446,
00:00:31:917,-0.117,-0.784,0.728,-372.742,59.753,-326.233,
00:00:31:933,-0.064,-0.331,0.69,-517.273,155.7,-188.721,
00:00:31:950,-0.106,-0.095,0.659,-467.286,94.848,-121.644,
00:00:31:967,-0.164,-0.46,0.854,-255.372,-42.42,-130.555,
00:00:31:983,-0.128,-0.596,0.888,-455.994,59.326,-25.696,
00:00:32:0,-0.005,-0.608,0.85,-527.649,88.501,45.288,
00:00:32:17,-0.006,-0.697,0.928,-462.525,-56.824,-15.625,
00:00:32:33,-0.053,-0.849,0.739,-750.428,-20.997,-55.237,
00:00:32:50,-0.081,-0.527,0.85,-1183.045,44.799,45.349,
00:00:32:67,-0.114,-0.235,0.701,-1159.18,130.005,65.856,
00:00:32:83,-0.167,-0.123,0.918,-944.397,143.554,102.905,
00:00:32:100,-0.073,-0.246,1.125,-742.798,168.09,90.21,
00:00:32:117,-0.043,-0.639,1.054,-446.778,167.48,-18.921,
00:00:32:133,-0.106,-0.656,0.902,-472.718,172.424,9.887,
00:00:32:150,-0.156,-0.257,0.856,-582.703,234.436,89.477,
00:00:32:167,-0.067,-0.222,0.973,-142.09,154.907,58.898,
00:00:32:183,0.02,-0.449,0.989,233.093,11.108,41.809,
00:00:32:200,-0.007,-0.797,0.921,207.397,-6.531,32.47,
00:00:32:217,-0.097,-0.491,0.925,-80.262,76.538,125.183,grateLH
00:00:32:233,-0.064,-0.24,0.824,-8.728,89.477,103.149,
00:00:32:250,-0.028,-0.471,0.838,145.996,36.132,24.902,
00:00:32:267,0,-0.658,0.9,4.089,48.889,24.292,
00:00:32:283,0.077,-0.6,0.992,-40.833,65.429,42.968,
00:00:32:300,0.063,-0.361,0.822,0.61,59.204,42.724,
00:00:32:317,-0.057,-0.187,0.922,-26.123,49.682,28.381,
00:00:32:333,-0.077,-0.279,0.963,57.19,75.622,26.611,
00:00:32:350,-0.024,-0.4,0.969,164.184,89.538,58.471,
00:00:32:367,0.012,-0.108,0.858,-266.846,233.947,282.47,
00:00:32:383,0.162,-0.391,0.975,397.827,74.89,76.416,
00:00:32:400,-0.027,-0.767,0.939,377.807,67.077,5.371,
00:00:32:417,-0.116,-0.975,1.113,290.161,105.163,-68.97,
00:00:32:433,-0.079,-0.796,0.921,-122.437,210.327,-66.102,
00:00:32:450,-0.021,-0.319,0.76,-432.74,278.869,11.718,
00:00:32:467,0.108,-0.17,0.837,-214.783,204.651,21.118,
00:00:32:483,0.144,-0.338,0.885,20.324,44.189,-6.836,
00:00:32:500,-0.024,-0.58,0.984,-77.21,29.663,18.798,
00:00:32:517,0.07,-0.559,0.895,-164.124,70.617,68.786,
00:00:32:533,0.122,-0.409,0.835,-204.468,33.264,98.083,
00:00:32:550,0.03,-0.328,0.899,-179.383,-32.166,102.111,
00:00:32:567,0.016,-0.39,0.985,-113.709,-11.17,98.999,
00:00:32:583,0.036,-0.402,0.987,18.554,2.38,108.276,
00:00:32:600,0.064,-0.502,1.032,77.514,-4.7,79.345,
00:00:32:617,0.08,-0.56,0.98,-89.234,14.709,91.98,
00:00:32:633,0.077,-0.396,0.908,-222.535,31.677,125.854,
00:00:32:650,0.142,-0.294,0.915,-227.723,33.142,148.559,
00:00:32:667,0.192,-0.284,0.885,-96.985,-13.855,157.592,
00:00:32:683,0.15,-0.348,0.925,-23.926,-48.462,148.193,
00:00:32:700,0.095,-0.279,0.883,-43.702,-24.903,199.035,
00:00:32:717,0.135,-0.12,0.974,-225.525,29.357,318.298,
00:00:32:733,0.173,0.168,0.913,-498.169,136.169,489.685,
00:00:32:750,0.213,0.326,0.582,-1187.623,376.831,682.617,
00:00:32:767,0.39,0.439,0.647,-522.583,491.15,706.298,
00:00:32:783,0.297,-0.039,0.798,-262.269,634.887,727.539,
00:00:32:800,0.444,-0.409,0.85,603.454,458.374,548.828,
00:00:32:817,0.759,-0.497,3.611,1999.694,-1328.248,427.673,
00:00:32:833,0.597,-3.336,0.411,1765.197,655.029,-533.143,
00:00:32:850,0.387,-1.184,0.703,223.755,-707.459,357.849,
00:00:32:867,-0.657,-0.364,1.395,79.284,-763.916,-40.101,
00:00:32:883,-0.691,-0.093,0.99,361.755,-262.696,-280.823,
00:00:32:900,-0.008,-0.712,0.87,652.588,-377.015,-377.381,
00:00:32:917,0.167,-1.15,0.793,138.855,-560.242,-379.7,
00:00:32:933,-0.211,-0.921,0.787,-408.326,-528.077,-373.841,
00:00:32:950,-0.331,-0.565,0.784,-953.797,-281.922,-348.45,
00:00:32:967,-0.15,-0.238,0.8,-1053.223,-204.834,-308.228,
00:00:32:983,-0.053,-0.162,0.627,-743.164,-255.494,-284.302,
00:00:33:0,-0.036,-0.2,0.664,-412.964,-296.631,-263.001,
00:00:33:17,0.057,-0.278,0.632,-265.503,-159.18,-220.643,
00:00:33:33,0.229,-0.217,0.59,-70.496,23.437,-184.937,
00:00:33:50,0.353,-0.138,0.638,162.963,121.46,-211.914,
00:00:33:67,0.499,-0.22,0.556,511.352,160.888,-283.631,
00:00:33:83,0.484,-0.434,0.703,654.419,164.245,-376.404,
00:00:33:100,0.368,-0.586,0.933,490.234,298.584,-433.838,
00:00:33:117,0.365,-0.402,1.441,395.385,247.558,-253.357,
00:00:33:133,0.096,0.267,1.326,875.488,105.102,-86.06,
00:00:33:150,0.052,-0.022,0.881,1246.765,98.755,-257.996,
00:00:33:167,0.002,-0.813,0.321,1520.202,155.944,-430.42,
00:00:33:183,-0.16,-1.122,1.275,1155.456,-156.678,-24.414,
00:00:33:200,-0.316,-0.575,1.476,29.419,158.325,-118.409,
00:00:33:217,-0.161,-0.988,0.87,-360.352,120.239,-376.709,
00:00:33:233,-0.235,-0.66,0.896,-214.051,78.43,-140.32,
00:00:33:250,-0.296,-0.28,0.969,80.017,-3.54,-213.929,
00:00:33:267,-0.337,-0.436,0.99,310.241,-170.838,-260.315,
00:00:33:283,-0.416,-0.636,1.118,-104.187,-258.118,-215.21,
00:00:33:300,-0.395,-0.635,0.933,-496.888,-195.679,-195.557,
00:00:33:317,-0.277,-0.491,0.851,-491.7,-223.877,-65.003,
00:00:33:334,-0.239,-0.311,0.98,-471.009,-308.045,34.851,
00:00:33:350,-0.218,-0.185,0.948,-479.248,-304.078,82.214,
00:00:33:367,-0.2,-0.195,0.849,-306.58,-288.453,145.996,
00:00:33:384,-0.151,-0.143,0.877,149.109,-246.277,223.877,
00:00:33:400,-0.025,-0.039,0.845,764.587,-202.515,300.171,
00:00:33:417,0.11,-0.103,0.751,1406.982,-246.766,273.742,
00:00:33:434,0.156,-0.347,0.603,1873.413,-340.516,200.744,
00:00:33:450,0.053,-0.684,0.65,1819.397,-378.968,218.261,
00:00:33:467,-0.01,-0.947,0.712,1238.22,-388.306,283.508,
00:00:33:484,-0.101,-1.103,0.575,256.408,-286.805,330.322,
00:00:33:500,-0.158,-1.009,0.499,-784.913,-205.14,374.511,
00:00:33:517,-0.183,-0.829,0.545,-1489.747,-49.256,409.729,
00:00:33:534,-0.095,-0.734,0.589,-1628.907,-17.273,345.153,
00:00:33:550,-0.055,-0.894,0.706,-1576.111,18.676,295.654,
00:00:33:567,-0.015,-0.876,0.764,-1432.129,67.199,218.567,
00:00:33:584,-0.023,-0.835,0.742,-1134.766,148.681,117.675,
00:00:33:600,0.018,-0.672,0.787,-604.615,181.091,24.292,
00:00:33:617,0.102,-0.495,0.726,263.183,176.086,-75.684,
00:00:33:634,0.165,-0.546,0.784,1040.1,55.114,-222.657,
00:00:33:650,0.154,-0.731,0.736,1288.635,64.941,-348.267,
00:00:33:667,0.109,-0.781,0.646,919.433,235.534,-349.915,
00:00:33:684,0.093,-1.066,0.557,-317.933,420.654,-372.681,
00:00:33:700,0.184,-0.827,0.864,-908.936,508.239,-397.644,
00:00:33:717,0.215,-0.537,1.15,-1299.866,402.404,-390.015,
00:00:33:734,0.087,-0.285,1.292,-1505.921,204.895,-316.529,
00:00:33:750,-0.147,-0.25,1.169,-1471.619,81.97,-269.043,
00:00:33:767,-0.259,-0.205,1.078,-1094.422,-10.01,-238.221,
00:00:33:784,-0.303,-0.065,1.004,-556.458,2.319,-193.726,
00:00:33:800,-0.159,-0.069,1.022,110.107,-68.482,-212.525,
00:00:33:817,-0.088,-0.213,0.859,597.778,-44.922,-208.252,
00:00:33:834,-0.12,-0.153,0.716,756.591,-30.579,-158.143,
00:00:33:850,-0.184,-0.339,0.613,591.552,2.197,-164.551,
00:00:33:867,-0.141,-0.767,0.726,71.594,177.551,-207.947,
00:00:33:884,-0.154,-0.727,0.973,-613.038,419.616,-115.723,
00:00:33:900,-0.075,-0.547,1.067,-605.286,495.483,-108.582,
00:00:33:917,0.024,-0.441,1.162,-279.175,305.664,-68.482,
00:00:33:934,-0.068,-0.365,1.144,59.936,60.974,-102.539,
00:00:33:950,-0.199,-0.307,0.947,317.199,-29.664,-147.522,
00:00:33:967,-0.223,-0.283,0.862,308.044,4.882,-104.676,
00:00:33:984,-0.165,-0.38,0.815,294.922,68.42,-90.149,
00:00:34:0,-0.269,-0.434,0.934,563.293,49.072,-108.033,
00:00:34:17,-0.254,-0.408,0.806,1079.284,54.443,-133.484,
00:00:34:34,-0.236,-0.301,0.872,1601.318,-26.856,-85.572,
00:00:34:50,-0.131,-0.4,1.036,1999.084,-141.663,-134.705,
00:00:34:67,0.02,-0.656,0.929,1999.694,-191.529,-130.982,
00:00:34:84,0.07,-0.764,0.71,1655.761,-284.485,-54.993,
00:00:34:100,-0.119,-1.205,0.326,498.352,-261.658,3.662,
00:00:34:117,-0.299,-1.41,0.325,-551.941,19.592,-29.114,
00:00:34:134,-0.16,-1.222,0.742,-1028.443,369.751,-80.14,
00:00:34:150,0.105,-0.578,0.609,-842.164,339.965,-150.025,
00:00:34:167,0.064,-0.513,0.471,-655.091,157.348,-161.377,
00:00:34:184,0.003,-0.578,0.683,-696.595,165.771,-148.926,
00:00:34:200,0.028,-0.577,0.775,-702.881,310.424,-174.805,
00:00:34:217,0.16,-0.547,0.813,-514.588,277.282,-103.821,
00:00:34:234,0.194,-0.517,0.88,-240.357,79.04,-95.765,
00:00:34:250,0.046,-0.504,0.745,-34.18,-49.134,-141.358,
00:00:34:267,0.037,-0.536,0.794,-808.045,342.468,-79.407,
00:00:34:284,0.132,-0.398,0.782,-692.322,271.301,-35.401,
00:00:34:300,0.166,-0.362,1.032,-357.789,40.954,-66.59,
00:00:34:317,0.174,-0.55,1.091,-94.91,-112.061,-193.543,
00:00:34:334,-0.048,-0.647,0.918,-106.141,-157.166,-168.396,
00:00:34:350,-0.016,-0.61,0.591,-405.091,126.526,-231.934,
00:00:34:367,-0.13,-0.325,0.52,-505.188,272.094,-165.955,
00:00:34:384,-0.18,-0.19,0.646,-442.2,383.178,-250.123,
00:00:34:400,-0.094,-0.102,0.924,-370.606,397.522,-171.265,
00:00:34:417,0.029,-0.366,1.214,-297.73,346.923,-211.06,
00:00:34:434,-0.025,-0.248,1.142,119.873,170.654,-28.321,
00:00:34:450,-0.004,-0.225,0.886,-115.174,153.625,-7.019,
00:00:34:467,-0.077,-0.279,0.994,-189.454,95.214,-82.154,
00:00:34:484,-0.009,-0.529,0.988,-130.677,161.316,-121.521,
00:00:34:500,0.135,-0.73,0.873,-76.783,244.262,-83.374,
00:00:34:517,0.14,-0.609,0.73,-46.814,232.971,-16.785,
00:00:34:534,0.135,-0.359,0.803,-171.631,282.348,42.114,
00:00:34:550,0.201,-0.303,0.895,-95.459,298.217,-78.492,
00:00:34:567,0.267,-0.348,0.779,-21.912,228.942,-78.248,
00:00:34:584,0.112,-0.536,0.92,-266.053,137.39,-17.334,
00:00:34:600,0.004,-0.496,1.01,-83.863,183.166,61.096,
00:00:34:617,0.051,-0.268,1.061,266.174,161.987,63.842,
00:00:34:634,0.167,-0.345,0.959,299.194,95.947,-26.001,
00:00:34:650,0.09,-0.553,0.929,162.109,29.235,-76.844,
00:00:34:667,-0.056,-0.414,0.869,-262.085,81.42,145.752,
