TIMECODE,ACC_X,ACC_Y,ACC_Z,GYR_X,GYR_Y,GYR_Z,ECG_I,ECG_II,ECG_III,TAG
,-1.054,-0.568,0.106,921.264,707.519,-254.517,0,0,0,
,-0.994,-0.632,0.093,898.437,644.409,-334.412,0,0,0,
,-1.007,-0.619,0.186,633.85,599.365,-392.456,0,0,0,
,-1.021,-0.55,0.243,377.014,610.595,-557.984,0,0,0,
,-0.919,-0.463,0.299,332.214,731.567,-594.544,0,0,0,
,-0.84,-0.26,0.227,357.544,695.19,-523.621,0,0,0,
,-0.758,-0.228,0.336,408.935,676.269,-466.553,0,0,0,
,-0.708,-0.297,0.579,366.943,599.67,-326.783,0,0,0,
,-0.7,-0.363,0.612,351.44,513.366,-346.009,0,0,0,
,-0.653,-0.514,0.638,352.417,534.729,-261.231,0,0,0,
,-0.58,-0.421,0.792,304.87,417.297,-166.26,0,0,0,
,-0.526,-0.325,0.825,215.759,95.336,-107.361,0,0,0,
,-0.591,-0.251,0.749,207.702,-155.884,-139.71,0,0,0,
,-0.727,-0.329,0.623,99.487,-291.199,-161.133,0,0,0,
,-0.875,-0.373,0.525,11.962,-319.458,-166.687,0,0,0,
,-0.884,-0.42,0.481,-11.109,-249.939,-86.67,0,0,0,
,-0.815,-0.285,0.429,106.323,-153.748,22.522,0,0,0,
,-0.795,-0.315,0.363,184.936,-257.386,18.615,0,0,0,
,-0.853,-0.288,0.458,311.584,-198.792,114.99,0,0,0,
,-0.839,-0.302,0.462,356.445,-104.432,97.778,0,0,0,
,-0.824,-0.419,0.519,345.031,-57.984,90.21,0,0,0,
,-0.803,-0.469,0.514,220.398,-57.984,106.628,0,0,0,
,-0.766,-0.438,0.462,143.371,-72.388,79.895,0,0,0,
,-0.754,-0.45,0.386,216.369,-32.044,72.998,0,0,0,
,-0.776,-0.487,0.341,207.885,-18.86,66.284,0,0,0,
,-0.775,-0.552,0.364,49.56,-17.518,47.912,0,0,0,
,-0.804,-0.509,0.418,-215.455,-22.95,-0.367,0,0,0,
,-0.818,-0.45,0.464,-323.182,-19.349,-73.67,0,0,0,
,-0.807,-0.43,0.424,-299.378,-26.123,-77.454,0,0,0,
,-0.803,-0.405,0.306,-212.403,-72.571,-89.905,0,0,0,
,-0.883,-0.374,0.324,-171.998,-132.325,-93.079,0,0,0,
,-0.904,-0.348,0.349,-120.118,-142.212,-77.698,0,0,0,
,-0.89,-0.281,0.356,-135.498,-148.621,-96.68,0,0,0,
,-0.887,-0.197,0.297,-113.099,-182.373,-100.403,0,0,0,
,-0.932,-0.217,0.391,216.858,-125,145.813,0,0,0,
,-0.917,-0.189,0.408,105.163,11.596,129.821,0,0,0,
,-0.932,-0.086,0.314,69.946,197.998,213.562,0,0,0,
,-0.861,-0.12,0.205,408.691,356.506,356.262,0,0,0,
,-0.765,-0.228,0.18,751.526,364.38,504.821,0,0,0,
,-0.688,-0.415,0.187,916.931,247.253,586.609,0,0,0,
,-0.715,-0.608,0.299,897.705,172.18,665.344,0,0,0,
,-0.769,-0.792,0.447,720.581,141.052,648.559,0,0,0,
,-0.762,-0.89,0.429,435.547,141.357,508.85,0,0,0,
,-0.749,-0.792,0.282,178.65,100.586,292.846,0,0,0,
,-0.765,-0.805,0.303,52.307,-12.513,128.845,0,0,0,
,-0.777,-0.816,0.345,67.871,-99.671,60.913,0,0,0,
,-0.793,-0.857,0.366,122.619,-160.645,-39.612,0,0,0,
,-0.801,-0.857,0.303,99.487,-225.281,-146.241,0,0,0,
,-0.841,-0.77,0.114,-4.761,-328.37,-278.931,0,0,0,
,-0.982,-0.644,0.077,-55.664,-402.161,-441.468,0,0,0,
,-1.063,-0.447,0.082,30.273,-273.438,-489.075,0,0,0,
,-0.96,-0.366,0.227,220.947,-67.2,-340.943,0,0,0,
,-0.78,-0.437,0.52,406.005,97.106,7.263,0,0,0,
,-0.626,-0.597,0.319,319.336,-39.734,149.231,0,0,0,
,-0.739,-0.703,0.039,214.599,-205.872,267.883,0,0,0,
,-0.934,-0.659,0.248,204.528,64.88,364.257,0,0,0,
,-0.932,-0.599,0.246,7.141,484.863,491.027,0,0,0,
,-0.763,-0.551,0.149,270.08,649.047,522.094,0,0,0,
,-0.689,-0.489,0.263,538.33,593.628,484.558,0,0,0,
,-0.629,-0.557,0.286,675.476,511.963,455.627,0,0,0,
,-0.636,-0.684,0.19,730.835,404.297,367.981,0,0,0,
,-0.749,-0.918,-0.016,313.232,219.116,130.798,0,0,0,
,-0.749,-0.985,0.188,117.859,189.331,-11.658,0,0,0,
,-0.671,-0.958,0.336,57.006,173.462,-168.641,0,0,0,
,-0.561,-1.016,0.412,80.749,123.901,-371.094,0,0,0,
,-0.484,-1.074,0.4,77.758,-26.307,-483.765,0,0,0,
,-0.492,-0.966,0.319,-52.735,-254.944,-530.03,0,0,0,
,-0.568,-0.804,0.321,-132.63,-474.488,-567.688,0,0,0,
,-0.694,-0.591,0.238,-463.318,-655.823,-541.016,0,0,0,
,-0.72,-0.451,0.298,-478.821,-664.429,-416.871,0,0,0,
,-0.692,-0.428,0.322,-445.74,-711.792,-288.086,0,0,0,
,-0.665,-0.466,0.198,-488.282,-780.579,-161.072,0,0,0,
,-0.69,-0.431,-0.037,-512.818,-920.227,-114.502,0,0,0,
,-0.809,-0.486,0.092,-254.212,-687.317,273.925,0,0,0,
,-0.715,-0.592,0.042,-498.23,-685.608,421.02,0,0,0,
,-0.688,-0.579,-0.237,-707.52,-802.674,432.312,0,0,0,
,-0.821,-0.313,-0.285,-545.716,-718.079,503.234,0,0,0,
,-0.866,-0.07,-0.223,-274.659,-461.731,716.186,0,0,0,
,-0.759,-0.149,-0.15,-138.794,-255.005,947.937,0,0,0,
,-0.652,-0.351,-0.23,-94.3,-224.488,994.14,0,0,0,
,-0.643,-0.404,-0.525,66.04,-197.205,934.326,0,0,0,
,-0.659,-0.217,-0.45,608.154,246.276,1241.882,0,0,0,
,-0.566,-0.325,-0.572,873.962,322.815,1202.331,0,0,0,
,-0.491,-0.417,-0.511,1000.915,365.112,1241.15,0,0,0,
,-0.401,-0.47,-0.477,1031.616,376.281,1266.174,0,0,0,
,-0.319,-0.664,-0.443,1121.399,399.597,1252.563,0,0,0,
,-0.226,-0.915,-0.322,1256.042,355.774,1264.648,0,0,0,
,-0.154,-1.242,-0.289,1115.478,267.883,1147.033,0,0,0,
,-0.102,-1.592,-0.083,745.239,139.221,1142.883,0,0,0,
,-0.074,-1.977,-0.159,-23.255,91.98,1225.952,0,0,0,
,-0.069,-2.234,-0.216,-1022.217,45.959,1208.007,0,0,0,
,-0.079,-2.083,-0.283,-1884.156,-24.414,1262.451,0,0,0,
,-0.055,-1.686,-0.19,-2000,-119.935,1484.436,0,0,0,
,-0.056,-1.27,-0.054,-2000,-214.783,1575.439,0,0,0,
,-0.09,-1.094,-0.071,-2000,-160.95,1530.029,0,0,0,
,-0.059,-0.576,0.25,-2000,34.362,1348.571,0,0,0,
,0.516,-0.812,0.501,-561.219,1125.915,1222.351,0,0,0,
,0.677,-0.645,0.516,-128.357,1006.591,1288.879,0,0,0,
,0.608,-0.42,0.368,180.786,861.145,976.135,0,0,0,
,0.466,-0.341,0.22,787.841,887.817,850.097,0,0,0,
,0.414,-0.488,0.125,1352.417,1137.512,741.211,0,0,0,
,0.482,-0.772,-0.077,1534.362,1313.232,649.963,0,0,0,
,0.582,-0.894,-0.285,1532.959,1351.257,619.506,0,0,0,
,0.68,-1.298,-0.385,1412.475,1354.919,583.801,0,0,0,
,0.713,-1.194,-0.354,1232.299,1187.683,643.921,0,0,0,
,0.636,-0.889,-0.361,1195.922,1071.472,524.292,0,0,0,
,0.598,-0.735,-0.34,1407.531,1020.874,454.895,0,0,0,
,0.529,-0.715,-0.443,1602.966,1044.189,380.615,0,0,0,
,0.518,-0.901,-0.6,1760.07,1121.582,341.98,0,0,0,
,0.541,-0.862,-0.714,1756.836,1072.509,283.386,0,0,0,
,0.544,-0.777,-0.71,1811.401,975.463,195.312,0,0,0,
,0.525,-0.88,-0.722,1896.301,911.987,108.764,0,0,0,
,0.505,-0.922,-0.728,1964.416,794.86,-54.566,0,0,0,
,0.468,-0.899,-0.772,1999.694,585.693,-366.211,0,0,0,
,0.233,-1.4,-0.819,1959.35,81.543,-804.017,0,0,0,
,0.263,-1.202,-0.743,1588.684,197.448,-708.68,0,0,0,
,0.442,-1.144,-0.506,1012.146,314.331,-539.49,0,0,0,
,0.602,-0.649,-0.7,554.809,411.01,-320.191,0,0,0,
,0.708,-0.364,-0.856,545.044,297.607,-327.454,0,0,0,
,0.815,-0.373,-0.894,664.123,33.813,-328.675,0,0,0,
,0.729,-0.255,-1.101,782.287,-336.548,-340.149,0,0,0,
,0.612,-0.205,-0.911,879.76,-643.433,-288.514,0,0,0,
,0.405,-0.274,-0.862,958.068,-615.418,-241.578,0,0,0,
,0.319,-0.385,-0.921,897.888,-397.95,-132.935,0,0,0,
,0.374,-0.355,-0.876,693.969,-266.175,-44.129,0,0,0,
,0.284,-0.325,-1.002,813.171,-519.532,-2.747,0,0,0,
,0.21,-0.292,-1.025,769.836,-548.768,-71.412,0,0,0,
,0.256,-0.254,-0.657,491.638,-461.914,-49.5,0,0,0,
,0.345,-0.099,-0.269,305.847,-308.106,110.595,0,0,0,
,0.645,-0.044,-0.183,359.192,-58.045,166.687,0,0,0,
,0.732,0.025,-0.462,229.492,115.478,204.04,0,0,0,
,0.632,0.034,-0.857,-87.159,64.819,170.288,0,0,0,
,0.6,0.002,-0.789,-145.935,57.678,174.56,0,0,0,
,0.559,-0.003,-0.739,-156.739,61.34,164.978,0,0,0,
,0.521,-0.009,-0.737,-160.157,57.983,148.62,0,0,0,
,0.478,-0.083,-0.703,-234.925,93.75,175.537,0,0,0,
,0.498,-0.028,-0.83,-249.451,102.905,172.607,0,0,0,
,0.527,0.092,-0.977,-264.527,44.677,161.071,0,0,0,
,0.515,0.078,-1.037,-263.184,35.278,159.851,0,0,0,
,0.523,0.095,-1.049,-248.536,30.944,153.198,0,0,0,
,0.564,0.024,-0.794,-99.427,41.381,108.642,0,0,0,
,0.548,-0.026,-0.752,-104.676,50.964,79.65,0,0,0,
,0.542,-0.034,-0.794,-106.934,45.41,57.617,0,0,0,
,0.523,0.02,-0.88,-110.352,35.095,29.052,0,0,0,
,0.506,0.004,-0.884,-120.301,34.851,15.625,0,0,0,
,0.51,-0.049,-0.738,-186.646,67.382,12.268,0,0,0,
,0.508,-0.086,-0.7,-258.24,65.063,22.705,0,0,0,
,0.507,-0.231,-0.529,-444.519,95.581,62.377,0,0,0,
,0.558,-0.447,-0.283,-724.244,139.526,125.549,0,0,0,
,0.621,-0.604,0.023,-1060.242,144.165,218.75,0,0,0,
,0.589,-0.815,0.291,-1466.431,183.96,290.161,0,0,0,
,0.485,-1.045,0.004,-2000,213.501,341.858,0,0,0,
,0.461,-1.133,-1.191,-2000,244.934,87.036,0,0,0,
,0.254,-1.641,-2.238,-2000,153.93,-285.584,0,0,0,
,0.663,-1.167,-2.26,-2000,-683.289,-368.958,0,0,0,
,0.633,-1.082,-1.964,-2000,-1821.9,-445.557,0,0,0,
,0.385,-1.322,-1.313,-2000,-2000,-702.027,0,0,0,
,0.208,-1.396,-0.91,-2000,-2000,-868.653,0,0,0,
,0.253,-1.238,-0.212,-2000,-1931.092,-1026.856,0,0,0,
,0.357,-0.847,-0.111,-2000,-1139.649,-1053.101,0,0,0,
,0.615,-0.546,-0.079,-2000,-863.343,-877.564,0,0,0,
,0.787,-0.384,-0.137,-1979.065,-1112.854,-798.951,0,0,0,
,0.764,-0.201,-0.074,-815.674,-1644.776,-1025.879,0,0,0,
,0.477,-0.382,0.033,180.908,-1917.115,-1402.283,0,0,0,
,0.194,-0.472,0.205,939.697,-1711.792,-1449.707,0,0,0,
,0.044,-0.402,0.481,1539.184,-1299.988,-1488.526,0,0,0,
,-0.005,-0.493,0.652,1999.694,-694.458,-1653.626,0,0,0,
,0.008,-0.496,0.134,1999.694,-143.25,-1627.686,0,0,0,
,-0.032,-0.782,-0.552,1999.694,60.607,-1614.991,0,0,0,
,-0.116,-1.584,-0.938,1635.864,-31.434,-1534.119,0,0,0,
,-0.204,-2.44,-0.229,49.438,-126.038,-847.901,0,0,0,
,-0.171,-2.027,0.039,-1955.994,-10.987,-401.612,0,0,0,
,0.034,-1.027,0.198,-2000,25.512,-366.211,0,0,0,
,0.161,-0.407,0.295,-2000,179.748,-25.33,0,0,0,
,0.146,-0.094,0.417,-1728.943,18.188,131.225,0,0,0,
,0.053,-0.176,0.396,-361.756,-158.265,-142.518,0,0,0,
,-0.084,-0.545,0.342,468.505,-188.111,-300.721,0,0,0,
,-0.131,-0.857,0.251,657.47,-164.49,-239.258,0,0,0,
,0.003,-0.885,0.5,613.952,-128.907,-153.748,0,0,0,
,0.289,-0.929,0.59,643.249,-323.182,-200.257,0,0,0,
,0.533,-1.168,0.818,537.658,-906.25,-225.098,0,0,0,
,0.022,-1.3,0.683,365.722,-902.955,-123.475,0,0,0,
,-0.217,-1.421,0.503,-412.476,-868.897,294.799,0,0,0,
,-0.267,-1.099,0.339,-663.941,-796.448,122.924,0,0,0,
,-0.222,-0.808,0.332,-673.951,-684.266,58.105,0,0,0,
,-0.243,-0.515,0.298,-307.496,-655.091,220.886,0,0,0,
,-0.311,-0.521,0.258,191.528,-691.773,118.652,0,0,0,
,-0.409,-0.844,0.195,493.469,-693.543,5.31,0,0,0,
,-0.411,-0.991,0.21,512.756,-454.773,139.16,0,0,0,
,-0.358,-0.866,0.184,445.861,-398.987,95.031,0,0,0,
,-0.3,-1.045,0.324,208.374,-569.642,-28.626,0,0,0,
,-0.376,-1.319,0.29,-98.938,-575.745,78.918,0,0,0,
,-0.428,-1.011,0.019,-419.129,-481.141,232.299,0,0,0,
,-0.427,-0.689,0.136,-517.518,-586.914,-112.61,0,0,0,
,-0.43,-0.824,0.172,-178.528,-531.128,-17.701,0,0,0,
,-0.361,-0.904,0.067,-158.509,-522.095,-34.852,0,0,0,
,-0.307,-0.932,0.005,-47.913,-615.906,-145.203,0,0,0,
,-0.311,-0.922,0.153,67.81,-706.788,-51.575,0,0,0,
,-0.404,-1.032,0.355,207.946,-693.299,28.869,0,0,0,
,-0.506,-1.209,0.434,348.205,-620.545,70.739,0,0,0,
,-0.537,-1.323,0.362,276.184,-644.104,-11.597,0,0,0,
,-0.501,-1.182,0.239,261.291,-687.684,-172.12,0,0,0,
,-0.532,-1.187,0.179,236.816,-752.076,-198.487,0,0,0,
,-0.577,-1.1,0.252,353.759,-741.578,-286.866,0,0,0,
,-0.563,-1.093,0.252,278.808,-684.876,-349.854,0,0,0,
,-0.542,-1.129,0.238,196.411,-676.331,-407.715,0,0,0,
,-0.544,-1.134,0.212,115.539,-641.968,-489.014,0,0,0,
,-0.56,-1.105,0.165,-63.477,-567.994,-564.637,0,0,0,
,-0.532,-1.153,0.122,-286.56,-496.399,-624.878,0,0,0,
,-0.578,-1.205,0.086,-631.653,-444.092,-654.541,0,0,0,
,-0.571,-1.162,0.095,-915.894,-412.293,-662.354,0,0,0,
,-0.595,-1.016,0.105,-1022.278,-399.414,-713.501,0,0,0,
,-0.65,-0.948,0.124,-1050.599,-396.546,-760.56,0,0,0,
,-0.684,-0.928,0.129,-1121.644,-387.696,-792.115,0,0,0,
,-0.676,-0.933,0.093,-1187.623,-351.075,-837.769,0,0,0,
,-0.66,-0.977,0.041,-1220.582,-319.825,-841.126,0,0,0,
,-0.655,-0.922,0.04,-1233.033,-295.411,-834.839,0,0,0,
,-0.652,-0.761,0.014,-1215.455,-286.133,-772.461,0,0,0,
,-0.693,-0.572,-0.004,-1181.763,-359.681,-763.123,0,0,0,
,-0.746,-0.498,0.067,-980.347,-303.65,-701.111,0,0,0,
,-0.736,-0.485,0.151,-716.37,-225.159,-604.981,0,0,0,
,-0.676,-0.473,0.176,-613.404,-207.215,-517.701,0,0,0,
,-0.626,-0.481,0.15,-542.42,-234.559,-462.159,0,0,0,
,-0.661,-0.445,0.131,-485.23,-343.323,-485.291,0,0,0,
,-0.72,-0.386,0.092,-492.188,-289.368,-423.279,0,0,0,
,-0.703,-0.351,0.153,-463.746,-238.099,-316.407,0,0,0,
,-0.626,-0.368,0.167,-447.327,-243.531,-270.142,0,0,0,
,-0.59,-0.392,0.154,-384.766,-283.753,-204.285,0,0,0,
,-0.648,-0.291,0.131,-382.081,-298.89,-221.863,0,0,0,
,-0.607,-0.434,0.187,-299.439,-336.487,-211.609,0,0,0,
,-0.587,-0.464,0.212,-255.188,-363.77,-196.717,0,0,0,
,-0.559,-0.519,0.212,-127.869,-397.767,-95.337,0,0,0,
,-0.655,-0.438,0.228,-72.266,-413.514,-11.109,0,0,0,
,-0.643,-0.328,0.241,70.922,-432.923,22.522,0,0,0,
,-0.662,-0.322,0.202,176.208,-442.994,77.636,0,0,0,
,-0.718,-0.417,0.197,282.47,-447.754,120.056,0,0,0,
,-0.752,-0.549,0.172,330.261,-437.561,185.058,0,0,0,
,-0.771,-0.553,0.199,279.235,-423.645,254.272,0,0,0,
,-0.81,-0.527,0.187,182.19,-383.057,288.696,0,0,0,
,-0.87,-0.532,0.162,99.121,-358.582,301.696,0,0,0,
,-0.875,-0.612,0.141,49.438,-324.463,345.642,0,0,0,
,-0.904,-0.703,0.133,-75.867,-302.308,369.812,0,0,0,
,-0.895,-0.739,0.147,-186.402,-258.362,370.3,0,0,0,
,-0.922,-0.647,0.122,-268.738,-237.427,321.35,0,0,0,
,-0.904,-0.582,0.152,-342.469,-234.314,260.986,0,0,0,
,-0.883,-0.67,0.174,-347.779,-187.073,236.45,0,0,0,
,-0.877,-0.702,0.18,-353.333,-141.968,179.809,0,0,0,
,-0.869,-0.665,0.158,-381.958,-115.723,116.76,0,0,0,
,-0.84,-0.668,0.108,-318.055,-90.332,45.898,0,0,0,
,-0.845,-0.647,0.13,-282.837,-81.971,4.699,0,0,0,
,-0.848,-0.602,0.084,-265.198,-59.144,-51.209,0,0,0,
,-0.873,-0.604,0.084,-181.702,-36.805,-97.779,0,0,0,
,-0.885,-0.615,0.095,-131.653,-18.982,-113.892,0,0,0,
,-0.878,-0.598,0.106,-135.315,14.099,-148.377,0,0,0,
,-0.889,-0.597,0.118,-152.283,56.823,-166.199,0,0,0,
,-0.903,-0.605,0.138,-209.046,108.886,-178.528,0,0,0,
,-0.918,-0.588,0.153,-262.574,157.348,-189.759,0,0,0,
,-0.922,-0.548,0.167,-307.435,206.115,-202.088,0,0,0,
,-0.926,-0.512,0.17,-313.721,244.201,-196.167,0,0,0,
,-0.926,-0.552,0.198,-300.782,270.813,-153.382,0,0,0,
,-0.901,-0.523,0.179,-242.981,303.772,-128.54,0,0,0,
,-0.867,-0.523,0.199,-184.021,319.275,-121.521,0,0,0,
,-0.83,-0.569,0.204,-52.308,332.336,-122.193,0,0,0,
,-0.823,-0.589,0.232,-28.931,310.485,-130.188,0,0,0,
,-0.843,-0.613,0.259,-49.866,267.456,-161.866,0,0,0,
,-0.853,-0.614,0.267,-7.752,260.742,-174.622,0,0,0,
,-0.854,-0.649,0.237,-30.64,218.933,-184.327,0,0,0,
,-0.862,-0.661,0.202,-37.293,174.438,-194.519,0,0,0,
,-0.88,-0.621,0.213,-109.559,163.513,-209.656,0,0,0,
,-0.873,-0.523,0.254,-219.849,152.221,-231.324,0,0,0,
,-0.865,-0.485,0.289,-263.062,145.141,-241.944,0,0,0,
,-0.87,-0.49,0.333,-301.392,129.699,-235.535,0,0,0,
,-0.877,-0.485,0.346,-359.62,114.196,-251.038,0,0,0,
,-0.891,-0.472,0.316,-409.302,99.548,-266.236,0,0,0,
,-0.908,-0.492,0.305,-410.157,91.857,-261.658,0,0,0,
,-0.918,-0.481,0.351,-464.051,105.529,-273.072,0,0,0,
,-0.894,-0.442,0.387,-490.967,129.089,-270.569,0,0,0,
,-0.875,-0.354,0.408,-487.366,110.839,-280.274,0,0,0,
,-0.885,-0.334,0.48,-467.591,107.605,-281.983,0,0,0,
,-0.892,-0.373,0.487,-415.162,102.356,-275.33,0,0,0,
,-0.886,-0.398,0.468,-364.319,106.628,-250.55,0,0,0,
,-0.899,-0.363,0.426,-342.347,77.514,-281.373,0,0,0,
,-0.909,-0.349,0.409,-298.34,72.082,-285.462,0,0,0,
,-0.901,-0.349,0.426,-255.982,69.458,-273.682,0,0,0,
,-0.887,-0.334,0.485,-240.174,62.439,-270.325,0,0,0,
,-0.894,-0.286,0.489,-242.981,47.058,-295.35,0,0,0,
,-0.901,-0.252,0.477,-206.482,35.766,-291.382,0,0,0,
,-0.882,-0.287,0.463,-157.898,49.255,-266.114,0,0,0,
,-0.875,-0.297,0.468,-177.308,47.241,-256.043,0,0,0,
,-0.899,-0.266,0.468,-232.239,36.315,-272.522,0,0,0,
,-0.899,-0.23,0.469,-253.785,48.034,-263.855,0,0,0,
,-0.885,-0.229,0.475,-281.8,40.527,-286.683,0,0,0,
,-0.856,-0.231,0.449,-321.839,51.94,-250.245,0,0,0,
,-0.877,-0.211,0.448,-343.689,49.621,-268.006,0,0,0,
,-0.874,-0.197,0.474,-355.591,66.955,-249.512,0,0,0,
,-0.828,-0.153,0.454,-407.471,68.725,-255.249,0,0,0,
,-0.838,-0.159,0.435,-409.974,65.551,-226.685,0,0,0,
,-0.868,-0.181,0.452,-399.903,66.345,-212.037,0,0,0,
,-0.856,-0.098,0.462,-383.362,78.857,-220.459,0,0,0,
,-0.856,-0.053,0.448,-350.708,84.472,-197.815,0,0,0,
,-0.83,-0.081,0.434,-297.669,82.519,-163.941,0,0,0,
,-0.807,-0.08,0.434,-273.377,74.768,-143.128,0,0,0,
,-0.786,-0.071,0.436,-249.817,63.415,-134.339,0,0,0,
,-0.739,-0.05,0.423,-195.984,59.814,-94.788,0,0,0,
,-0.759,-0.052,0.399,-147.828,42.907,-68.97,0,0,0,
,-0.769,-0.079,0.376,-71.534,27.099,-9.949,0,0,0,
,-0.743,-0.068,0.391,-20.569,21.728,52.978,0,0,0,
,-0.745,-0.002,0.371,2.624,9.277,69.336,0,0,0,
,-0.702,0.021,0.382,91.369,9.033,135.742,0,0,0,
,-0.703,-0.001,0.39,197.509,-2.869,214.294,0,0,0,
,-0.751,-0.031,0.412,259.094,6.591,269.714,0,0,0,
,-0.799,-0.051,0.423,302.429,-0.123,325.866,0,0,0,
,-0.787,-0.047,0.406,358.276,-3.663,371.704,0,0,0,
,-0.765,-0.014,0.385,403.442,-9.827,411.071,0,0,0,
,-0.711,-0.053,0.36,464.233,-9.766,504.089,0,0,0,
,-0.623,-0.067,0.36,454.651,4.516,567.077,0,0,0,
,-0.573,-0.094,0.3,466.125,33.935,651.184,0,0,0,
,-0.728,-0.134,0.348,504.516,31.86,678.1,0,0,0,
,-0.702,-0.14,0.319,492.309,54.748,766.479,0,0,0,
,-0.67,-0.118,0.31,492.37,94.909,840.759,0,0,0,
,-0.634,-0.011,0.271,569.885,135.925,886.84,0,0,0,
,-0.606,-0.035,0.258,682.983,187.317,942.138,0,0,0,
,-0.68,-0.209,0.296,791.259,262.207,982.971,0,0,0,
,-0.748,-0.301,0.444,766.235,386.963,1004.882,0,0,0,
,-0.928,-0.387,0.454,841.064,517.761,1025.756,0,0,0,
,-1.231,-0.676,0.585,950.5,661.865,1081.237,0,0,0,
,-1.393,-0.991,0.613,1024.902,739.746,1112.182,0,0,0,
,-1.577,-1.175,0.627,1101.928,683.899,981.384,0,0,0,
,-1.702,-1.28,0.347,1188.842,593.383,857.238,0,0,0,
,-1.632,-1.563,0.248,1006.53,561.95,612.548,0,0,0,
,-1.597,-1.758,0.402,624.511,554.138,351.623,0,0,0,
,-1.63,-1.472,0.699,401.245,639.587,120.544,0,0,0,
,-1.555,-1.495,0.734,413.757,700.256,-64.393,0,0,0,
,-1.414,-1.741,0.681,322.448,758.911,-187.378,0,0,0,
,-1.255,-1.704,0.624,365.356,756.775,-218.873,0,0,0,
,-1.068,-1.605,0.506,639.282,617.065,-207.276,0,0,0,
,-0.845,-1.649,0.401,917.663,453.369,-136.475,0,0,0,
,-0.695,-1.709,0.338,1079.406,287.902,-35.096,0,0,0,
,-0.463,-1.601,0.263,1243.103,63.049,36.682,0,0,0,
,-0.277,-1.435,0.153,1346.557,-178.467,36.987,0,0,0,
,-0.087,-1.459,0.192,1247.985,-366.211,44.433,0,0,0,
,0.058,-1.552,0.317,793.396,-460.206,-52.185,0,0,0,
,0.239,-1.293,0.297,192.81,-582.337,-255.555,0,0,0,
,0.401,-1.107,0.211,-526.551,-671.448,-508.545,0,0,0,
,0.469,-1.051,0.254,-1207.093,-712.464,-715.638,0,0,0,
,0.331,-1.058,0.522,-1901.49,-706.482,-804.444,0,0,0,
,0.356,-0.932,0.745,-2000,-749.085,-772.156,0,0,0,
,0.527,-0.849,0.725,-1993.226,-824.402,-648.743,0,0,0,
,0.474,-0.737,0.734,-1909.363,-866.089,-551.941,0,0,0,
,0.49,-0.544,0.642,-1618.165,-976.319,-441.834,0,0,0,
,0.454,-0.432,0.56,-1163.147,-1044.251,-351.807,0,0,0,
,0.325,-0.409,0.592,-824.891,-1081.543,-274.964,0,0,0,
,0.223,-0.376,0.564,-716.858,-1114.624,-208.069,0,0,0,
,0.178,-0.367,0.476,-566.163,-1072.876,-133.057,0,0,0,
,0.161,-0.217,0.339,-535.157,-1034.058,-125.794,0,0,0,
,0.035,-0.228,0.35,-547.12,-947.022,-95.093,0,0,0,
,-0.083,-0.196,0.37,-701.905,-893.006,-39.49,0,0,0,
,-0.155,-0.19,0.339,-827.698,-839.539,40.832,0,0,0,
,-0.195,-0.279,0.356,-967.469,-796.509,158.142,0,0,0,
,-0.251,-0.312,0.411,-1148.926,-763.55,293.457,0,0,0,
,-0.22,-0.309,0.391,-1315.369,-737.427,466.43,0,0,0,
,-0.124,-0.338,0.285,-1437.989,-731.202,568.969,0,0,0,
,-0.045,-0.3,0.227,-1444.764,-744.263,681.762,0,0,0,
,-0.052,-0.397,0.388,-1379.761,-769.532,759.033,0,0,0,
,-0.074,-0.541,0.492,-1385.499,-760.254,862.487,0,0,0,
,-0.09,-0.609,0.546,-1446.045,-757.447,975.28,0,0,0,
,-0.055,-0.643,0.461,-1477.112,-720.032,1050.232,0,0,0,
,-0.019,-0.672,0.36,-1417.725,-693.421,1123.413,0,0,0,
,-0.011,-0.665,0.341,-1344.483,-700.318,1158.203,0,0,0,
,0.013,-0.603,0.366,-1340.943,-734.803,1227.661,0,0,0,
,0.111,-0.714,0.321,-1246.705,-698.243,1255.859,0,0,0,
,0.197,-0.859,0.256,-1078.797,-647.522,1258.789,0,0,0,
,0.167,-0.841,0.157,-1091.37,-618.775,1209.411,0,0,0,
,0.225,-0.922,0.105,-1090.149,-543.946,1163.696,0,0,0,
,0.288,-0.961,-0.061,-1023.56,-431.824,1077.819,0,0,0,
,0.38,-1.13,-0.225,-800.843,-324.097,950.622,0,0,0,
,0.384,-1.128,-0.32,-670.96,-290.223,753.357,0,0,0,
,0.398,-0.994,-0.311,-430.787,-200.806,648.62,0,0,0,
,0.274,-1.104,-0.29,-46.265,-15.686,569.275,0,0,0,
,0.133,-1.342,-0.278,465.637,112.121,558.166,0,0,0,
,-0.037,-1.641,-0.325,653.564,229.553,554.138,0,0,0,
,-0.062,-1.499,-0.438,605.468,315.857,561.462,0,0,0,
,-0.159,-1.308,-0.47,580.932,420.41,574.951,0,0,0,
,-0.143,-1.256,-0.424,511.413,504.882,611.023,0,0,0,
,-0.278,-1.268,-0.363,444.763,598.51,591.308,0,0,0,
,-0.295,-1.341,-0.326,338.44,686.035,580.81,0,0,0,
,-0.177,-1.228,-0.263,262.756,734.192,602.905,0,0,0,
,-0.204,-1.242,-0.309,382.812,797.119,584.228,0,0,0,
,-0.268,-1.342,-0.287,582.58,826.355,591.98,0,0,0,
,-0.246,-1.294,-0.269,819.397,794.86,627.99,0,0,0,
,-0.3,-1.275,-0.464,1013.549,772.094,634.216,0,0,0,
,-0.382,-1.565,-0.5,1117.187,744.018,662.231,0,0,0,
,-0.372,-1.713,-0.535,1243.042,721.13,711.425,0,0,0,
,-0.415,-1.905,-0.449,1308.593,715.149,694.03,0,0,0,
,-0.406,-1.961,-0.445,1396.423,756.408,645.324,0,0,0,
,-0.495,-2.003,-0.464,1507.568,808.96,581.115,0,0,0,
,-0.556,-2.224,-0.556,1614.685,934.387,562.744,0,0,0,
,-0.554,-2.332,-0.811,1721.984,1006.286,492.736,0,0,0,
,-0.414,-2.418,-0.814,1449.035,1086.853,379.333,0,0,0,
,-0.395,-2.592,-0.749,1174.499,1255.066,264.465,0,0,0,
,-0.506,-2.549,-0.736,810.302,1469.848,127.319,0,0,0,
,-0.425,-2.423,-0.733,375.549,1699.035,-14.527,0,0,0,
,-0.252,-2.293,-0.69,41.87,1942.199,-181.641,0,0,0,
,-0.132,-2.546,-0.697,-250.672,1999.694,-348.633,0,0,0,
,-0.043,-2.627,-0.806,-430.115,1999.694,-540.345,0,0,0,
,0.145,-2.414,-0.846,-472.535,1999.694,-717.408,0,0,0,
,0.328,-2.12,-0.6,-592.102,1999.694,-893.921,0,0,0,
,0.346,-2.048,-0.298,-716.309,1999.694,-1086.548,0,0,0,
,0.258,-2.174,-0.09,-967.957,1999.511,-1248.536,0,0,0,
,0.264,-2.135,-0.047,-1182.923,1925.903,-1392.762,0,0,0,
,0.315,-1.983,-0.023,-1304.078,1724.365,-1462.403,0,0,0,
,0.367,-1.869,0.227,-1274.781,1464.904,-1419.556,0,0,0,
,0.309,-1.694,0.447,-1049.134,1226.745,-1304.688,0,0,0,
,0.295,-1.615,0.531,-744.751,950.866,-1133.851,0,0,0,
,0.347,-1.447,0.51,-474.427,708.923,-885.193,0,0,0,
,0.481,-1.025,0.408,-416.077,413.269,-736.39,0,0,0,
,0.675,-1.159,0.565,-172.425,188.354,-473.999,0,0,0,
,0.753,-1.289,0.632,-182.068,-34.241,-352.112,0,0,0,
,0.749,-1.162,0.577,-491.7,-192.139,-272.889,0,0,0,
,0.857,-0.91,0.525,-782.593,-366.822,-253.479,0,0,0,
,0.895,-0.817,0.432,-1109.62,-505.677,-287.171,0,0,0,
,0.767,-0.763,0.675,-1467.53,-569.397,-288.941,0,0,0,
,0.609,-0.644,0.725,-1901.856,-645.63,-333.802,0,0,0,
,0.687,-0.449,0.582,-2000,-744.935,-344.666,0,0,0,
,0.702,-0.333,0.444,-2000,-823.731,-285.34,0,0,0,
,0.679,-0.212,0.359,-1951.417,-921.448,-191.346,0,0,0,
,0.55,-0.11,0.403,-1860.23,-1015.748,-75.379,0,0,0,
,0.437,0.002,0.383,-1611.695,-1070.313,77.331,0,0,0,
,0.371,0.069,0.294,-1249.939,-1095.337,208.801,0,0,0,
,0.326,-0.006,0.234,-951.05,-1116.15,363.22,0,0,0,
,0.26,0.003,0.13,-770.63,-1125.489,485.901,0,0,0,
,0.237,0.069,0.069,-703.675,-1141.541,594.909,0,0,0,
,0.167,0.077,0.119,-696.167,-1141.175,695.007,0,0,0,
,0.153,-0.023,0.142,-700.684,-1083.558,810.485,0,0,0,
,0.119,-0.166,0.146,-780.823,-1010.132,903.32,0,0,0,
,0.089,-0.232,0.077,-877.869,-913.147,996.643,0,0,0,
,0.121,-0.231,0.023,-1032.959,-830.079,1082.641,0,0,0,
,0.076,-0.24,0.022,-1103.15,-739.258,1179.321,0,0,0,
,0.08,-0.384,0.027,-1071.656,-624.207,1316.467,0,0,0,
,0.133,-0.512,-0.066,-1094.361,-514.1,1422.668,0,0,0,
,0.183,-0.601,-0.169,-1054.993,-434.388,1473.449,0,0,0,
,0.171,-0.684,-0.248,-958.374,-392.518,1518.432,0,0,0,
,0.192,-0.834,-0.253,-884.705,-289.856,1573.181,0,0,0,
,0.277,-0.887,-0.233,-699.463,-189.637,1605.529,0,0,0,
,0.142,-0.928,-0.141,-530.152,-161.744,1562.988,0,0,0,
,0.015,-0.998,-0.092,-373.902,-11.78,1579.406,0,0,0,
,0.039,-1.125,-0.101,-433.777,72.998,1552.429,0,0,0,
,0.071,-1.17,-0.295,-438.782,202.331,1540.405,0,0,0,
,0.069,-1.235,-0.429,-317.078,203.003,1485.717,0,0,0,
,0.076,-1.317,-0.411,-164.734,230.224,1485.656,0,0,0,
,0.132,-1.228,-0.307,-57.984,343.017,1490.173,0,0,0,
,0.162,-1.198,-0.203,144.043,418.884,1464.05,0,0,0,
,0.107,-1.341,-0.044,418.09,504.821,1379.211,0,0,0,
,0.196,-1.461,-0.133,387.451,704.589,1333.313,0,0,0,
,0.47,-1.518,-0.35,292.053,885.376,1252.685,0,0,0,
,0.55,-1.54,-0.368,299.56,888.305,1159.607,0,0,0,
,0.333,-1.662,0.046,374.389,851.135,1080.444,0,0,0,
,0.306,-1.689,0.057,108.215,1163.635,1002.075,0,0,0,
,0.599,-1.67,-0.077,-133.851,1338.317,886.047,0,0,0,
,0.625,-1.628,-0.102,-125.367,1342.712,718.383,0,0,0,
,0.542,-1.701,0.066,-197.144,1391.113,554.26,0,0,0,
,0.625,-1.777,0.269,-306.153,1557.129,449.401,0,0,0,
,0.65,-1.73,0.239,-405.945,1625.061,266.052,0,0,0,
,0.674,-1.58,0.027,-424.134,1633.911,94.726,0,0,0,
,0.704,-1.57,-0.074,-278.199,1545.654,-87.952,0,0,0,
,0.693,-1.665,0.129,-4.395,1403.137,-207.581,0,0,0,
,0.652,-1.793,0.334,179.565,1398.254,-299.805,0,0,0,
,0.722,-1.932,0.218,104.614,1418.579,-407.166,0,0,0,
,0.793,-2,0.264,-20.569,1374.694,-506.592,0,0,0,
,0.839,-1.975,0.309,-181.031,1362.426,-677.185,0,0,0,
,0.835,-2.052,0.233,-275.025,1320.129,-848.084,0,0,0,
,0.922,-2.139,0.234,-201.905,1236.145,-1005.188,0,0,0,
,0.907,-2.2,0.403,-102.173,1155.944,-1158.875,0,0,0,
,0.985,-2.246,0.561,35.156,1191.162,-1308.899,0,0,0,
,1.082,-2.244,0.674,155.151,1275.39,-1445.374,0,0,0,
,1.165,-2.295,0.674,169.799,1391.052,-1544.129,0,0,0,
,1.249,-2.372,0.635,-141.968,1432.495,-1643.128,0,0,0,
,1.24,-2.208,0.494,-713.868,1425.048,-1707.215,0,0,0,
,1.197,-1.844,0.358,-1176.819,1336.792,-1779.114,0,0,0,
,1.112,-1.655,0.245,-1427.613,1170.044,-1824.891,0,0,0,
,1.027,-1.378,0.176,-1547.852,988.708,-1756.531,0,0,0,
,0.931,-1.06,0.101,-1549.073,786.987,-1662.049,0,0,0,
,0.848,-0.798,0.096,-1407.715,583.435,-1540.467,0,0,0,
,0.714,-0.557,0.08,-1180.359,402.343,-1390.748,0,0,0,
,0.583,-0.355,0.02,-955.445,281.677,-1230.042,0,0,0,
,0.408,-0.166,-0.053,-545.716,67.382,-952.515,0,0,0,
,0.331,-0.124,-0.095,-376.709,1.403,-845.398,0,0,0,
,0.279,-0.165,-0.094,-268.494,-62.745,-757.63,0,0,0,
,0.247,-0.129,-0.069,-190.369,-98.389,-644.959,0,0,0,
,0.214,-0.133,-0.039,-109.498,-134.034,-606.385,0,0,0,
,0.163,-0.127,-0.034,-95.093,-140.809,-563.538,0,0,0,
,0.139,-0.173,0.001,10.009,-190.369,-513.306,0,0,0,
,0.066,-0.235,0.044,150.94,-211.426,-460.816,0,0,0,
,0.003,-0.287,0.08,211.792,-200.44,-423.401,0,0,0,
,0,-0.371,0.097,245.605,-167.969,-367.127,0,0,0,
,-0.003,-0.427,0.029,322.876,-155.457,-336.365,0,0,0,
,-0.011,-0.497,0.016,364.624,-176.453,-310.791,0,0,0,
,-0.115,-0.544,0.083,395.507,-246.521,-310.364,0,0,0,
,-0.248,-0.646,0.182,350.952,-247.986,-313.965,0,0,0,
,-0.307,-0.73,0.146,310.302,-207.642,-283.265,0,0,0,
,-0.303,-0.758,0.018,347.107,-204.59,-340.943,0,0,0,
,-0.363,-0.885,0.047,331.237,-228.15,-321.045,0,0,0,
,-0.508,-1.029,0.061,281.982,-249.817,-355.103,0,0,0,
,-0.653,-1.117,0.274,137.451,-186.402,-329.102,0,0,0,
,-0.714,-0.943,0.355,7.568,-160.889,-367.92,0,0,0,
,-0.774,-0.869,0.305,-77.576,-106.019,-382.142,0,0,0,
,-0.831,-0.926,0.287,-85.511,1.892,-361.329,0,0,0,
,-0.769,-0.984,0.286,7.141,66.589,-346.131,0,0,0,
,-0.883,-1.023,0.331,-86.121,107.849,-365.418,0,0,0,
,-0.916,-1.033,0.385,-253.479,181.457,-359.07,0,0,0,
,-0.843,-1.038,0.408,-350.708,240.966,-358.277,0,0,0,
,-0.833,-0.999,0.409,-388.55,271.972,-375.977,0,0,0,
,-0.849,-0.968,0.396,-487.915,298.889,-424.805,0,0,0,
,-0.817,-0.916,0.371,-536.377,307.8,-451.783,0,0,0,
,-0.817,-0.827,0.401,-572.449,293.457,-499.329,0,0,0,
,-0.805,-0.778,0.426,-546.936,280.822,-519.898,0,0,0,
,-0.802,-0.76,0.441,-510.56,267.883,-540.467,0,0,0,
,-0.791,-0.687,0.478,-519.288,241.516,-560.608,0,0,0,
,-0.773,-0.626,0.461,-502.93,222.534,-587.159,0,0,0,
,-0.758,-0.555,0.473,-529.358,194.275,-599.549,0,0,0,
,-0.774,-0.504,0.478,-559.205,172.973,-606.995,0,0,0,
,-0.771,-0.454,0.496,-602.051,141.784,-601.38,0,0,0,
,-0.764,-0.416,0.471,-644.715,112.671,-566.285,0,0,0,
,-0.736,-0.394,0.448,-661.683,79.406,-532.349,0,0,0,
,-0.769,-0.393,0.441,-694.825,60.791,-489.38,0,0,0,
,-0.741,-0.268,0.436,-773.072,36.865,-477.478,0,0,0,
,-0.741,-0.181,0.484,-798.34,37.963,-455.323,0,0,0,
,-0.736,-0.106,0.505,-789.612,43.396,-435.242,0,0,0,
,-0.753,-0.088,0.53,-739.563,40.71,-435.73,0,0,0,
,-0.756,-0.113,0.551,-551.758,26.184,-409.363,0,0,0,
,-0.795,-0.131,0.582,-421.936,11.718,-387.33,0,0,0,
,-0.794,-0.164,0.61,-281.25,-1.038,-361.084,0,0,0,
,-0.824,-0.166,0.632,-162.781,-1.526,-327.332,0,0,0,
,-0.797,-0.172,0.659,-77.088,-3.54,-313.66,0,0,0,
,-0.825,-0.156,0.615,15.319,5.859,-297.974,0,0,0,
,-0.844,-0.179,0.598,93.078,17.089,-282.41,0,0,0,
,-0.867,-0.13,0.603,99.121,43.457,-285.95,0,0,0,
,-0.848,-0.162,0.578,93.078,57.678,-286.927,0,0,0,
,-0.858,-0.206,0.592,17.578,78.002,-298.462,0,0,0,
,-0.839,-0.227,0.59,-90.699,97.045,-304.81,0,0,0,
,-0.851,-0.171,0.552,-180.054,109.741,-315.613,0,0,0,
,-0.838,-0.15,0.554,-210.45,112.609,-307.129,0,0,0,
,-0.824,-0.141,0.541,-261.658,101.745,-296.814,0,0,0,
,-0.814,-0.127,0.548,-300.477,97.961,-296.082,0,0,0,
,-0.806,-0.092,0.538,-346.436,88.195,-282.471,0,0,0,
,-0.79,-0.038,0.547,-395.447,81.848,-268.311,0,0,0,
,-0.788,-0.053,0.544,-411.988,77.88,-238.77,0,0,0,
,-0.805,-0.015,0.57,-445.862,87.524,-233.704,0,0,0,
,-0.782,0.051,0.605,-450.684,91.552,-217.53,0,0,0,
,-0.793,0.082,0.611,-404.969,90.454,-206.665,0,0,0,
,-0.787,0.114,0.642,-338.135,90.759,-187.561,0,0,0,
,-0.797,0.133,0.647,-247.01,72.265,-186.524,0,0,0,
,-0.804,0.063,0.682,-165.833,68.542,-164.429,0,0,0,
,-0.793,0.024,0.695,-126.465,55.358,-156.128,0,0,0,
,-0.806,0.036,0.672,-72.754,40.344,-142.334,0,0,0,
,-0.799,0.053,0.641,-43.396,31.494,-138.611,0,0,0,
,-0.778,0.081,0.628,-57.129,15.441,-148.682,0,0,0,
,-0.793,0.034,0.65,-101.441,14.892,-153.87,0,0,0,
,-0.797,0.01,0.672,-175.293,18.554,-168.213,0,0,0,
,-0.783,0.02,0.651,-243.47,16.784,-184.815,0,0,0,
,-0.793,0.038,0.652,-301.941,28.198,-193.848,0,0,0,
,-0.802,0.045,0.649,-370.789,20.385,-197.815,0,0,0,
,-0.785,0.153,0.644,-448.975,13.183,-218.14,0,0,0,
,-0.787,0.218,0.62,-428.345,10.498,-254.273,0,0,0,
,-0.78,0.17,0.61,-395.264,11.779,-245.972,0,0,0,
,-0.753,0.131,0.661,-411.133,-37.415,-219.91,0,0,0,
,-0.777,0.185,0.648,-392.273,-39.063,-194.153,0,0,0,
,-0.774,0.244,0.625,-277.466,-44.373,-169.922,0,0,0,
,-0.785,0.261,0.617,-147.156,-55.909,-135.926,0,0,0,
,-0.772,0.259,0.577,-62.5,-68.238,-117.432,0,0,0,
,-0.77,0.222,0.564,-28.626,-60.486,-106.69,0,0,0,
,-0.806,0.228,0.617,-85.083,-36.072,-106.934,0,0,0,
,-0.804,0.229,0.6,-184.327,-9.583,-111.695,0,0,0,
,-0.812,0.239,0.54,-222.657,5.371,-104.371,0,0,0,
,-0.79,0.273,0.492,-285.889,16.357,-97.352,0,0,0,
,-0.783,0.347,0.549,-265.992,7.08,-94.605,0,0,0,
,-0.793,0.348,0.593,-252.625,24.963,-93.995,0,0,0,
,-0.799,0.309,0.601,-214.295,32.714,-97.596,0,0,0,
,-0.805,0.268,0.599,-172.059,51.147,-90.76,0,0,0,
,-0.793,0.248,0.55,-167.298,60.241,-69.275,0,0,0,
,-0.789,0.287,0.511,-191.59,61.279,-66.956,0,0,0,
,-0.779,0.316,0.5,-203.125,59.631,-70.374,0,0,0,
,-0.768,0.35,0.527,-183.655,60.241,-72.937,0,0,0,
,-0.796,0.322,0.546,-164.917,57.922,-86.853,0,0,0,
,-0.782,0.297,0.537,-199.769,67.688,-84.473,0,0,0,
,-0.773,0.302,0.516,-240.723,61.706,-95.581,0,0,0,
,-0.759,0.333,0.505,-200.013,46.02,-91.309,0,0,0,
,-0.758,0.375,0.518,-186.219,21.728,-100.831,0,0,0,
,-0.756,0.364,0.545,-141.907,14.038,-112.122,0,0,0,
,-0.768,0.342,0.569,-120.545,1.159,-110.779,0,0,0,
,-0.761,0.328,0.56,-105.774,-11.231,-112.427,0,0,0,
,-0.754,0.301,0.541,-126.526,-10.682,-110.413,0,0,0,
,-0.766,0.318,0.521,-151.307,-15.992,-103.638,0,0,0,
,-0.753,0.336,0.517,-196.351,-18.982,-105.103,0,0,0,
,-0.743,0.398,0.5,-184.51,-30.091,-103.15,0,0,0,
,-0.724,0.413,0.506,-124.939,-44.739,-94.971,0,0,0,
,-0.722,0.331,0.509,-78.37,-47.913,-62.745,0,0,0,
,-0.747,0.331,0.519,-67.933,-63.05,-59.449,0,0,0,
,-0.729,0.319,0.512,-84.595,-59.266,-31.189,0,0,0,
,-0.709,0.365,0.513,-36.805,-59.266,8.911,0,0,0,
,-0.71,0.391,0.485,43.762,-42.969,52.185,0,0,0,
,-0.715,0.416,0.488,123.352,-48.035,88.989,0,0,0,
,-0.722,0.406,0.481,176.208,-68.116,111.023,0,0,0,
,-0.688,0.39,0.496,203.43,-65.796,154.174,0,0,0,
,-0.708,0.36,0.494,241.088,-69.031,184.082,0,0,0,
,-0.699,0.333,0.497,296.997,-72.144,227.234,0,0,0,
,-0.688,0.317,0.502,348.022,-68.909,261.413,0,0,0,
,-0.65,0.331,0.491,425.964,-72.693,322.754,0,0,0,
,-0.654,0.312,0.458,579.956,-79.041,365.051,0,0,0,
,-0.633,0.295,0.429,699.585,-93.689,439.392,0,0,0,
,-0.609,0.243,0.412,707.885,-85.083,498.535,0,0,0,
,-0.615,0.206,0.418,714.233,-81.238,528.503,0,0,0,
,-0.652,0.191,0.418,708.252,-80.323,562.927,0,0,0,
,-0.665,0.09,0.403,652.893,-98.389,600.402,0,0,0,
,-0.679,0.036,0.432,573.12,-113.282,630.676,0,0,0,
,-0.699,0.038,0.432,517.578,-151.185,628.723,0,0,0,
,-0.709,0.014,0.443,531.372,-182.129,668.274,0,0,0,
,-0.779,-0.014,0.477,572.998,-204.346,689.453,0,0,0,
,-0.781,-0.052,0.482,613.342,-214.966,705.383,0,0,0,
,-0.799,-0.095,0.508,625.305,-226.136,727.234,0,0,0,
,-0.812,-0.157,0.471,624.084,-222.046,720.886,0,0,0,
,-0.838,-0.224,0.443,582.092,-219.849,725.647,0,0,0,
,-0.875,-0.298,0.403,541.198,-220.337,728.454,0,0,0,
,-0.848,-0.32,0.358,510.62,-219.239,729.309,0,0,0,
,-0.856,-0.337,0.366,481.628,-223.206,713.379,0,0,0,
,-0.86,-0.407,0.409,456.482,-215.943,717.956,0,0,0,
,-0.869,-0.493,0.436,408.813,-202.759,704.04,0,0,0,
,-0.851,-0.443,0.424,371.215,-185.791,672.973,0,0,0,
,-0.828,-0.414,0.391,372.68,-169.251,646.728,0,0,0,
,-0.783,-0.476,0.324,409.607,-153.443,665.039,0,0,0,
,-0.821,-0.572,0.328,431.518,-140.748,673.339,0,0,0,
,-0.83,-0.602,0.345,447.021,-139.222,654.968,0,0,0,
,-0.757,-0.59,0.349,474.853,-126.954,663.391,0,0,0,
,-0.752,-0.605,0.258,499.45,-131.165,665.832,0,0,0,
,-0.756,-0.643,0.251,506.164,-122.193,659.118,0,0,0,
,-0.756,-0.707,0.27,505.798,-118.287,660.827,0,0,0,
,-0.732,-0.771,0.291,510.559,-111.817,663.94,0,0,0,
,-0.744,-0.791,0.254,503.906,-117.981,646.423,0,0,0,
,-0.744,-0.83,0.235,480.285,-111.756,635.07,0,0,0,
,-0.77,-0.865,0.211,440.551,-117.676,618.469,0,0,0,
,-0.749,-0.851,0.195,396.362,-126.16,599.06,0,0,0,
,-0.7,-0.827,0.165,411.926,-138.733,557.678,0,0,0,
,-0.687,-0.847,0.17,429.687,-161.377,529.602,0,0,0,
,-0.7,-0.966,0.232,411.132,-171.082,491.272,0,0,0,
,-0.7,-0.996,0.245,324.34,-180.237,447.937,0,0,0,
,-0.667,-0.951,0.187,239.135,-188.66,397.888,0,0,0,
,-0.624,-0.916,0.119,185.424,-190.003,360.046,0,0,0,
,-0.591,-0.962,0.079,124.206,-196.961,310.852,0,0,0,
,-0.554,-0.982,0.079,105.59,-231.751,261.535,0,0,0,
,-0.54,-0.908,0.07,89.172,-271.912,225.036,0,0,0,
,-0.526,-0.874,0.009,110.412,-311.646,192.016,0,0,0,
,-0.554,-0.888,-0.014,181.64,-360.718,184.082,0,0,0,
,-0.583,-0.98,0.035,176.88,-382.752,188.11,0,0,0,
,-0.589,-1.018,0.059,161.743,-404.541,193.237,0,0,0,
,-0.601,-1.019,0.063,122.253,-412.598,198.608,0,0,0,
,-0.592,-1.032,0.061,98.571,-402.771,215.332,0,0,0,
,-0.609,-1.021,0.09,40.527,-359.498,225.891,0,0,0,
,-0.626,-0.98,0.117,-8.851,-310.364,218.567,0,0,0,
,-0.627,-0.984,0.166,-15.564,-245.667,216.674,0,0,0,
,-0.625,-0.999,0.171,6.897,-169.8,220.52,0,0,0,
,-0.601,-1.023,0.143,15.991,-115.723,189.636,0,0,0,
,-0.586,-1.038,0.089,15.808,-71.412,166.442,0,0,0,
,-0.57,-1.019,0.034,-3.052,-46.998,128.173,0,0,0,
,-0.569,-1.02,0.002,-32.654,-35.889,100.28,0,0,0,
,-0.551,-1.028,-0.002,-66.651,-34.363,73.425,0,0,0,
,-0.531,-1.004,-0.025,-112.854,-45.105,42.358,0,0,0,
,-0.503,-0.942,-0.051,-145.874,-66.651,6.408,0,0,0,
,-0.478,-0.897,-0.087,-143.25,-86.365,-20.386,0,0,0,
,-0.473,-0.899,-0.079,-118.592,-108.094,-35.706,0,0,0,
,-0.474,-0.929,-0.071,-82.459,-126.77,-43.274,0,0,0,
,-0.471,-0.945,-0.04,-18.799,-142.701,-38.147,0,0,0,
,-0.473,-0.924,-0.011,39.001,-158.753,-48.096,0,0,0,
,-0.464,-0.917,-0.008,91.919,-153.626,-41.016,0,0,0,
,-0.455,-0.9,-0.033,157.409,-149.598,-40.039,0,0,0,
,-0.446,-0.92,-0.057,210.022,-133.973,-26.185,0,0,0,
,-0.451,-0.907,-0.074,237.671,-121.094,-23.011,0,0,0,
,-0.443,-0.898,-0.088,263.549,-106.08,-23.133,0,0,0,
,-0.456,-0.919,-0.064,255.371,-78.98,-14.588,0,0,0,
,-0.453,-0.931,-0.06,222.229,-51.575,-12.085,0,0,0,
,-0.46,-0.927,-0.082,182.617,-34.058,-14.1,0,0,0,
,-0.451,-0.915,-0.119,142.151,-16.175,-8.301,0,0,0,
,-0.441,-0.89,-0.138,122.497,-13.489,-12.269,0,0,0,
,-0.433,-0.917,-0.154,113.525,-8.606,-16.419,0,0,0,
,-0.438,-0.918,-0.148,110.656,-18.738,-22.095,0,0,0,
,-0.438,-0.921,-0.137,117.37,-23.072,-31.128,0,0,0,
,-0.452,-0.942,-0.136,129.455,-28.443,-31.434,0,0,0,
,-0.459,-0.942,-0.126,129.76,-36.866,-36.316,0,0,0,
,-0.454,-0.945,-0.127,133.178,-43.763,-42.786,0,0,0,
,-0.458,-0.923,-0.115,141.296,-30.274,-36.072,0,0,0,
,-0.466,-0.916,-0.116,137.268,-27.1,-35.157,0,0,0,
,-0.469,-0.905,-0.099,121.765,-2.747,-29.725,0,0,0,
,-0.466,-0.936,-0.123,65.002,16.723,-34.058,0,0,0,
,-0.455,-0.904,-0.155,13.488,32.47,-40.101,0,0,0,
,-0.451,-0.939,-0.173,-52.124,51.147,-39.917,0,0,0,
,-0.442,-0.951,-0.177,-111.268,57.739,-44.861,0,0,0,
,-0.448,-0.944,-0.176,-175.11,62.255,-52.857,0,0,0,
,-0.448,-0.95,-0.172,-207.215,65.734,-53.345,0,0,0,
,-0.463,-0.933,-0.151,-223.816,62.255,-54.139,0,0,0,
,-0.467,-0.911,-0.136,-214.783,55.419,-58.106,0,0,0,
,-0.467,-0.91,-0.121,-190.308,49.072,-62.073,0,0,0,
,-0.472,-0.933,-0.111,-161.499,39.367,-61.219,0,0,0,
,-0.469,-0.907,-0.114,-128.846,31.433,-64.515,0,0,0,
,-0.463,-0.893,-0.099,-58.289,23.925,-75.379,0,0,0,
,-0.473,-0.917,-0.091,-41.321,27.404,-74.524,0,0,0,
,-0.475,-0.917,-0.088,-28.931,30.944,-77.82,0,0,0,
,-0.486,-0.936,-0.086,-37.598,43.029,-80.323,0,0,0,
,-0.49,-0.979,-0.117,-75.44,49.255,-91.37,0,0,0,
,-0.503,-0.975,-0.125,-112.061,56.945,-105.347,0,0,0,
,-0.54,-0.984,-0.137,-156.983,73.852,-114.808,0,0,0,
,-0.559,-1.012,-0.106,-180.603,88.928,-146.363,0,0,0,
,-0.606,-1.054,-0.083,-232.544,115.173,-172.974,0,0,0,
,-0.628,-1.058,-0.072,-245.118,122.741,-229.187,0,0,0,
,-0.655,-1.071,-0.068,-259.095,150.024,-284.18,0,0,0,
,-0.681,-1.084,-0.06,-242.249,187.011,-317.2,0,0,0,
,-0.684,-1.097,-0.032,-175.415,220.703,-358.704,0,0,0,
,-0.69,-1.102,0.008,-161.744,260.315,-400.513,0,0,0,
,-0.699,-1.039,0.011,-150.94,291.626,-448.609,0,0,0,
,-0.695,-0.999,-0.008,-141.724,304.26,-490.601,0,0,0,
,-0.692,-0.982,-0.014,-141.358,306.884,-530.335,0,0,0,
,-0.704,-0.989,0,-159.913,308.471,-570.252,0,0,0,
,-0.694,-0.928,0.036,-148.926,310.852,-597.107,0,0,0,
,-0.693,-0.919,0.065,-163.453,330.749,-614.747,0,0,0,
,-0.689,-0.895,0.058,-203.675,346.191,-630.31,0,0,0,
,-0.671,-0.869,0.039,-235.169,354.37,-649.292,0,0,0,
,-0.69,-0.804,0.034,-262.879,363.769,-662.11,0,0,0,
,-0.705,-0.761,0.07,-257.264,377.99,-658.081,0,0,0,
,-0.727,-0.732,0.088,-246.399,384.155,-657.959,0,0,0,
,-0.736,-0.727,0.089,-266.724,392.517,-652.405,0,0,0,
,-0.73,-0.721,0.094,-265.809,394.043,-649.048,0,0,0,
,-0.735,-0.696,0.097,-270.02,395.202,-643.799,0,0,0,
,-0.731,-0.644,0.119,-300.599,386.779,-656.556,0,0,0,
,-0.712,-0.604,0.14,-311.219,385.681,-662.049,0,0,0,
,-0.729,-0.595,0.171,-308.96,382.995,-674.134,0,0,0,
,-0.735,-0.594,0.213,-311.829,384.46,-674.866,0,0,0,
,-0.74,-0.594,0.242,-352.601,376.281,-678.711,0,0,0,
,-0.726,-0.563,0.246,-372.376,362.487,-680.298,0,0,0,
,-0.751,-0.545,0.281,-426.148,336.486,-665.955,0,0,0,
,-0.767,-0.539,0.319,-521.668,308.288,-700.074,0,0,0,
,-0.745,-0.5,0.332,-554.261,275.085,-716.187,0,0,0,
,-0.743,-0.459,0.347,-530.945,251.037,-700.928,0,0,0,
,-0.762,-0.422,0.343,-521.424,229.248,-678.162,0,0,0,
,-0.774,-0.376,0.372,-494.935,223.449,-651.429,0,0,0,
,-0.793,-0.361,0.392,-431.824,210.571,-628.663,0,0,0,
,-0.79,-0.316,0.404,-372.742,194.702,-601.014,0,0,0,
,-0.823,-0.293,0.458,-338.196,188.293,-579.712,0,0,0,
,-0.808,-0.249,0.443,-291.993,182.19,-557.679,0,0,0,
,-0.797,-0.203,0.443,-220.52,182.434,-523.255,0,0,0,
,-0.812,-0.15,0.465,-169.495,210.998,-452.332,0,0,0,
,-0.802,-0.133,0.436,-182.496,219.055,-434.876,0,0,0,
,-0.816,-0.122,0.451,-212.769,218.2,-419.861,0,0,0,
,-0.863,-0.125,0.444,-233.094,210.937,-400.208,0,0,0,
,-0.867,-0.081,0.491,-237.671,218.139,-351.99,0,0,0,
,-0.85,-0.049,0.49,-228.455,230.59,-329.468,0,0,0,
,-0.843,-0.034,0.494,-182.373,224.304,-304.383,0,0,0,
,-0.835,-0.036,0.5,-152.405,230.468,-278.26,0,0,0,
,-0.815,-0.044,0.496,-126.709,219.299,-259.4,0,0,0,
,-0.818,-0.055,0.517,-119.873,203.003,-239.319,0,0,0,
,-0.843,-0.053,0.577,-147.889,185.852,-236.206,0,0,0,
,-0.827,-0.044,0.574,-162.72,176.941,-235.596,0,0,0,
,-0.813,-0.024,0.555,-153.199,155.822,-233.948,0,0,0,
,-0.809,-0.019,0.569,-148.56,155.334,-232.605,0,0,0,
,-0.808,-0.025,0.571,-157.349,148.986,-230.103,0,0,0,
,-0.82,-0.036,0.583,-158.265,135.803,-223.145,0,0,0,
,-0.819,-0.031,0.574,-166.748,129.638,-213.807,0,0,0,
,-0.813,-0.02,0.614,-196.289,124.511,-216.431,0,0,0,
,-0.805,0.001,0.625,-218.018,114.929,-221.375,0,0,0,
,-0.802,0.045,0.599,-199.646,107.177,-223.145,0,0,0,
,-0.794,0.062,0.592,-175.66,100.83,-225.708,0,0,0,
,-0.803,0.045,0.599,-165.039,84.716,-203.492,0,0,0,
,-0.796,0.058,0.597,-173.951,82.519,-211.121,0,0,0,
,-0.788,0.083,0.659,-205.14,95.642,-217.774,0,0,0,
,-0.808,0.071,0.674,-230.774,92.041,-230.225,0,0,0,
,-0.791,0.098,0.652,-248.902,100.525,-220.337,0,0,0,
,-0.791,0.127,0.601,-222.901,84.167,-216.614,0,0,0,
,-0.802,0.145,0.599,-168.396,80.505,-195.069,0,0,0,
,-0.783,0.166,0.598,-162.842,85.327,-178.162,0,0,0,
,-0.785,0.171,0.616,-154.297,83.374,-164.307,0,0,0,
,-0.792,0.169,0.642,-156.189,88.684,-158.387,0,0,0,
,-0.787,0.16,0.632,-198.548,97.045,-151.123,0,0,0,
,-0.796,0.176,0.603,-248.719,87.097,-140.809,0,0,0,
,-0.799,0.21,0.564,-258.973,95.947,-134.461,0,0,0,
,-0.791,0.218,0.597,-251.709,99.182,-120.24,0,0,0,
,-0.789,0.193,0.601,-234.253,94.787,-107.789,0,0,0,
,-0.796,0.188,0.624,-233.826,95.275,-98.45,0,0,0,
,-0.808,0.179,0.598,-242.188,86.364,-94.361,0,0,0,
,-0.8,0.194,0.592,-232.056,94.604,-79.224,0,0,0,
,-0.784,0.214,0.572,-218.934,75.317,-78.614,0,0,0,
,-0.778,0.227,0.536,-197.144,67.016,-73.304,0,0,0,
,-0.785,0.236,0.56,-160.706,63.354,-83.069,0,0,0,
,-0.79,0.225,0.596,-153.26,73.73,-80.933,0,0,0,
,-0.778,0.228,0.568,-135.437,60.852,-81.055,0,0,0,
,-0.772,0.217,0.573,-102.906,67.688,-90.088,0,0,0,
,-0.776,0.212,0.531,-108.948,71.228,-91.98,0,0,0,
,-0.768,0.269,0.585,-131.287,92.346,-105.164,0,0,0,
,-0.753,0.266,0.602,-131.653,96.069,-113.709,0,0,0,
,-0.767,0.269,0.613,-145.325,98.083,-122.559,0,0,0,
,-0.78,0.267,0.611,-166.138,102.6,-122.01,0,0,0,
,-0.762,0.299,0.611,-176.636,104.37,-123.169,0,0,0,
,-0.744,0.318,0.597,-156.495,96.496,-127.747,0,0,0,
,-0.743,0.319,0.62,-132.813,80.383,-123.291,0,0,0,
,-0.742,0.331,0.653,-149.781,74.646,-119.812,0,0,0,
,-0.731,0.33,0.645,-149.781,65.368,-107.483,0,0,0,
,-0.749,0.313,0.639,-137.024,50.781,-98.694,0,0,0,
,-0.725,0.327,0.632,-152.71,62.561,-87.281,0,0,0,
,-0.7,0.365,0.633,-169.617,44.433,-81.849,0,0,0,
,-0.705,0.364,0.629,-122.01,20.263,-78.675,0,0,0,
,-0.721,0.346,0.652,-96.802,16.479,-68.543,0,0,0,
,-0.729,0.344,0.622,-116.333,8.544,-72.876,0,0,0,
,-0.703,0.332,0.638,-88.929,14.892,-52.918,0,0,0,
,-0.726,0.308,0.633,-126.16,1.037,-58.472,0,0,0,
,-0.744,0.328,0.632,-168.519,19.531,-46.753,0,0,0,
,-0.734,0.353,0.603,-201.111,21.911,-31.495,0,0,0,
,-0.729,0.362,0.58,-198.426,19.531,-45.227,0,0,0,
,-0.733,0.376,0.596,-188.782,18.066,-42.054,0,0,0,
,-0.74,0.386,0.605,-186.829,17.761,-46.021,0,0,0,
,-0.736,0.379,0.602,-159.852,24.963,-35.889,0,0,0,
,-0.73,0.367,0.577,-145.264,25.573,-36.133,0,0,0,
,-0.725,0.332,0.594,-138.001,17.273,-27.771,0,0,0,
,-0.726,0.344,0.57,-125.55,15.38,-15.137,0,0,0,
,-0.715,0.377,0.547,-109.681,7.385,-11.17,0,0,0,
,-0.716,0.378,0.548,-72.571,-1.404,-13.367,0,0,0,
,-0.719,0.376,0.537,-41.565,-2.564,-11.17,0,0,0,
,-0.718,0.361,0.546,-16.846,-4.761,-4.944,0,0,0,
,-0.714,0.364,0.562,7.385,1.648,-4.334,0,0,0,
,-0.715,0.361,0.556,-4.151,8.178,-10.376,0,0,0,
,-0.709,0.341,0.552,4.882,15.319,-10.315,0,0,0,
,-0.707,0.355,0.533,-6.714,2.136,-12.391,0,0,0,
,-0.719,0.369,0.539,-6.714,2.014,-16.053,0,0,0,
,-0.717,0.36,0.522,-21.302,-12.207,-19.776,0,0,0,
,-0.709,0.34,0.543,-41.81,-26.307,-17.945,0,0,0,
,-0.729,0.343,0.564,-101.624,-21.424,-20.142,0,0,0,
,-0.738,0.367,0.598,-117.859,-8.851,-18.128,0,0,0,
,-0.745,0.388,0.611,-128.724,1.953,-26.612,0,0,0,
,-0.738,0.421,0.593,-93.628,22.888,-19.593,0,0,0,
,-0.752,0.436,0.551,-41.199,14.465,-32.166,0,0,0,
,-0.726,0.412,0.55,33.874,16.357,-13.489,0,0,0,
,-0.734,0.388,0.57,67.382,2.746,-6.47,0,0,0,
,-0.752,0.384,0.6,73.791,-2.503,4.882,0,0,0,
,-0.743,0.391,0.605,72.753,2.075,17.822,0,0,0,
,-0.725,0.418,0.583,73.974,7.69,36.315,0,0,0,
,-0.709,0.403,0.555,92.468,2.99,47.912,0,0,0,
,-0.723,0.39,0.559,99.121,10.498,52.612,0,0,0,
,-0.715,0.388,0.57,103.088,10.925,69.519,0,0,0,
,-0.701,0.38,0.571,105.713,15.136,92.59,0,0,0,
,-0.703,0.368,0.572,112.365,17.7,105.102,0,0,0,
,-0.693,0.371,0.54,150.024,2.38,127.685,0,0,0,
,-0.688,0.346,0.541,174.194,-5.86,139.892,0,0,0,
,-0.681,0.335,0.556,170.288,-15.137,168.518,0,0,0,
,-0.689,0.323,0.571,173.401,-21.119,181.396,0,0,0,
,-0.706,0.284,0.562,143.127,-19.654,187.439,0,0,0,
,-0.687,0.315,0.602,157.714,-9.461,210.449,0,0,0,
,-0.692,0.316,0.597,225.341,-12.085,218.2,0,0,0,
,-0.682,0.258,0.547,275.329,-22.095,239.685,0,0,0,
,-0.677,0.21,0.501,307.678,-43.396,255.92,0,0,0,
,-0.703,0.156,0.519,310.119,-66.468,279.724,0,0,0,
,-0.689,0.203,0.583,384.46,-80.079,301.635,0,0,0,
,-0.729,0.182,0.607,450.256,-90.699,322.265,0,0,0,
,-0.764,0.148,0.606,456.176,-100.586,319.58,0,0,0,
,-0.75,0.113,0.576,452.88,-109.925,336.303,0,0,0,
,-0.749,0.077,0.532,456.787,-143.738,347.412,0,0,0,
,-0.748,0.069,0.52,499.389,-169.129,362.426,0,0,0,
,-0.761,0.05,0.555,479.614,-182.984,368.957,0,0,0,
,-0.778,0.03,0.586,454.101,-193.299,367.797,0,0,0,
,-0.787,-0.001,0.606,428.161,-193.604,376.587,0,0,0,
,-0.773,-0.026,0.601,393.127,-187.195,376.22,0,0,0,
,-0.784,-0.056,0.557,358.154,-181.397,378.357,0,0,0,
,-0.835,-0.082,0.56,304.626,-171.021,369.934,0,0,0,
,-0.848,-0.11,0.564,236.633,-151.612,383.911,0,0,0,
,-0.811,-0.102,0.559,210.144,-138.977,400.512,0,0,0,
,-0.816,-0.093,0.525,264.099,-158.143,414.917,0,0,0,
,-0.859,-0.111,0.496,310.424,-154.48,427.734,0,0,0,
,-0.844,-0.159,0.529,318.237,-133.423,454.406,0,0,0,
,-0.805,-0.183,0.574,313.476,-126.709,474.792,0,0,0,
,-0.812,-0.207,0.548,337.463,-150.208,486.511,0,0,0,
,-0.858,-0.238,0.503,372.863,-163.819,495.788,0,0,0,
,-0.885,-0.257,0.451,365.783,-165.039,505.066,0,0,0,
,-0.865,-0.268,0.528,358.154,-141.419,529.358,0,0,0,
,-0.829,-0.313,0.519,349.609,-147.644,525.146,0,0,0,
,-0.871,-0.353,0.521,371.276,-170.35,513.061,0,0,0,
,-0.902,-0.407,0.441,382.385,-174.561,497.863,0,0,0,
,-0.86,-0.431,0.458,363.098,-148.621,486.877,0,0,0,
,-0.815,-0.46,0.443,348.51,-157.044,478.027,0,0,0,
,-0.826,-0.485,0.45,364.746,-166.138,454.589,0,0,0,
,-0.847,-0.523,0.427,351.379,-169.678,436.096,0,0,0,
,-0.838,-0.546,0.406,342.041,-165.467,412.353,0,0,0,
,-0.822,-0.594,0.422,296.508,-161.499,414.795,0,0,0,
,-0.826,-0.578,0.398,277.71,-166.565,387.085,0,0,0,
,-0.829,-0.585,0.373,263.855,-165.65,378.723,0,0,0,
,-0.818,-0.595,0.35,231.201,-168.396,372.253,0,0,0,
,-0.815,-0.606,0.349,208.435,-169.922,355.407,0,0,0,
,-0.818,-0.61,0.348,193.481,-174.683,345.703,0,0,0,
,-0.796,-0.613,0.339,190.673,-176.148,339.721,0,0,0,
,-0.799,-0.617,0.324,202.514,-182.618,325.561,0,0,0,
,-0.799,-0.657,0.32,206.298,-190.674,317.81,0,0,0,
,-0.798,-0.676,0.302,213.256,-196.167,307.129,0,0,0,
,-0.807,-0.699,0.292,183.41,-216.126,279.297,0,0,0,
,-0.788,-0.7,0.26,173.217,-218.384,274.902,0,0,0,
,-0.78,-0.75,0.244,168.335,-224.976,258.728,0,0,0,
,-0.762,-0.792,0.221,178.344,-235.962,249.633,0,0,0,
,-0.759,-0.826,0.217,160.888,-261.231,231.872,0,0,0,
,-0.742,-0.825,0.201,127.075,-272.767,210.693,0,0,0,
,-0.753,-0.807,0.209,96.13,-291.077,189.209,0,0,0,
,-0.767,-0.771,0.205,81.176,-284.302,173.034,0,0,0,
,-0.75,-0.74,0.214,71.655,-269.959,158.02,0,0,0,
,-0.753,-0.731,0.21,69.702,-246.033,151.855,0,0,0,
,-0.751,-0.752,0.213,84.899,-221.07,142.028,0,0,0,
,-0.753,-0.768,0.234,99.914,-188.477,149.109,0,0,0,
,-0.772,-0.773,0.226,96.557,-163.697,144.104,0,0,0,
,-0.763,-0.769,0.197,97.9,-132.752,151.245,0,0,0,
,-0.757,-0.746,0.177,81.481,-112.244,151.001,0,0,0,
,-0.748,-0.744,0.194,64.514,-76.844,158.874,0,0,0,
,-0.748,-0.749,0.196,45.349,-54.566,151.55,0,0,0,
,-0.731,-0.753,0.18,36.193,-38.269,152.038,0,0,0,
,-0.717,-0.763,0.159,12.146,-23.682,142.822,0,0,0,
,-0.71,-0.774,0.112,-3.663,-22.339,136.779,0,0,0,
,-0.693,-0.769,0.103,-20.02,-24.476,128.845,0,0,0,
,-0.688,-0.752,0.101,-24.109,-30.579,130.249,0,0,0,
,-0.682,-0.779,0.121,-43.824,-40.223,120.178,0,0,0,
,-0.671,-0.777,0.128,-47.791,-39.002,114.807,0,0,0,
,-0.661,-0.787,0.126,-53.894,-43.396,105.102,0,0,0,
,-0.652,-0.793,0.119,-53.833,-37.598,103.82,0,0,0,
,-0.644,-0.785,0.13,-55.848,-34.607,101.623,0,0,0,
,-0.634,-0.782,0.113,-39.246,-25.696,104.675,0,0,0,
,-0.636,-0.801,0.119,-22.583,-30.396,104.553,0,0,0,
,-0.625,-0.811,0.115,-17.212,-23.499,111.084,0,0,0,
,-0.614,-0.82,0.116,2.868,-27.344,109.375,0,0,0,
,-0.612,-0.844,0.117,4.15,-26.612,106.14,0,0,0,
,-0.611,-0.845,0.111,11.108,-27.222,102.539,0,0,0,
,-0.612,-0.841,0.097,28.625,-27.527,97.229,0,0,0,
,-0.599,-0.852,0.097,44.433,-24.231,95.153,0,0,0,
,-0.601,-0.869,0.095,55.358,-27.344,85.632,0,0,0,
,-0.606,-0.885,0.109,36.926,-18.616,71.411,0,0,0,
,-0.604,-0.877,0.115,33.996,-17.029,58.593,0,0,0,
,-0.61,-0.87,0.119,14.221,-9.888,48.95,0,0,0,
,-0.608,-0.859,0.098,12.146,-2.076,36.804,0,0,0,
,-0.602,-0.852,0.092,20.752,1.953,24.963,0,0,0,
,-0.604,-0.865,0.097,27.404,1.586,23.132,0,0,0,
,-0.597,-0.871,0.114,18.188,3.662,13.855,0,0,0,
,-0.601,-0.87,0.113,22.216,6.652,10.315,0,0,0,
,-0.586,-0.878,0.097,11.108,2.624,-2.259,0,0,0,
,-0.584,-0.883,0.091,3.723,2.563,-2.32,0,0,0,
,-0.584,-0.852,0.096,-23.682,8.056,-9.156,0,0,0,
,-0.574,-0.868,0.092,-10.315,9.033,-9.949,0,0,0,
,-0.564,-0.875,0.106,-14.466,12.573,-13.916,0,0,0,
,-0.563,-0.89,0.103,-18.555,12.756,-19.471,0,0,0,
,-0.567,-0.878,0.063,-24.292,20.385,-25.147,0,0,0,
,-0.574,-0.836,0.084,-20.691,22.888,-23.255,0,0,0,
,-0.584,-0.819,0.08,-2.564,25.512,-20.63,0,0,0,
,-0.574,-0.83,0.082,18.615,28.564,-18.067,0,0,0,
,-0.585,-0.839,0.084,24.78,46.752,-12.696,0,0,0,
,-0.576,-0.844,0.087,20.813,18.737,-22.889,0,0,0,
,-0.575,-0.853,0.091,28.747,15.686,-14.71,0,0,0,
,-0.584,-0.848,0.091,18.432,18.249,-15.992,0,0,0,
,-0.593,-0.861,0.096,18.31,18.31,-15.625,0,0,0,
,-0.581,-0.874,0.092,6.347,19.592,-21.18,0,0,0,
,-0.59,-0.865,0.077,-5.555,19.47,-27.1,0,0,0,
,-0.586,-0.87,0.087,-14.161,23.437,-38.88,0,0,0,
,-0.607,-0.896,0.091,-11.841,28.259,-44.861,0,0,0,
,-0.616,-0.897,0.087,-1.404,25.878,-70.13,0,0,0,
,-0.614,-0.91,0.08,-6.287,23.986,-99.305,0,0,0,
,-0.651,-0.957,0.107,-6.958,30.212,-116.394,0,0,0,
,-0.66,-0.97,0.104,-34.302,34.423,-154.297,0,0,0,
,-0.667,-0.947,0.078,-18.921,44.433,-193.238,0,0,0,
,-0.694,-0.944,0.091,-25.513,57.922,-246.338,0,0,0,
,-0.713,-0.977,0.107,-29.664,81.176,-275.879,0,0,0,
,-0.725,-0.974,0.139,-54.505,108.825,-317.933,0,0,0,
,-0.73,-1.005,0.138,-99.488,122.802,-368.287,0,0,0,
,-0.727,-1.022,0.128,-161.866,147.277,-413.208,0,0,0,
,-0.758,-0.978,0.164,-264.039,181.213,-457.886,0,0,0,
,-0.76,-0.909,0.197,-351.319,211.547,-498.475,0,0,0,
,-0.766,-0.857,0.225,-407.654,233.215,-531.495,0,0,0,
,-0.767,-0.832,0.225,-473.267,251.281,-567.627,0,0,0,
,-0.775,-0.804,0.225,-526.734,248.047,-593.811,0,0,0,
,-0.778,-0.735,0.241,-529.847,240.112,-599.549,0,0,0,
,-0.786,-0.733,0.273,-509.4,240.112,-596.07,0,0,0,
,-0.788,-0.707,0.297,-491.822,232.238,-585.267,0,0,0,
,-0.772,-0.642,0.297,-466.187,219.726,-594.239,0,0,0,
,-0.755,-0.66,0.278,-405.396,208.13,-587.403,0,0,0,
,-0.762,-0.675,0.291,-376.221,194.397,-586.548,0,0,0,
,-0.772,-0.655,0.318,-387.513,190.734,-585.755,0,0,0,
,-0.758,-0.61,0.309,-375.367,185.241,-592.408,0,0,0,
,-0.765,-0.597,0.312,-329.895,171.02,-607.972,0,0,0,
,-0.781,-0.567,0.305,-342.774,171.753,-618.409,0,0,0,
,-0.779,-0.529,0.338,-352.234,177.612,-632.142,0,0,0,
,-0.799,-0.512,0.325,-334.595,174.194,-644.227,0,0,0,
,-0.801,-0.502,0.343,-341.98,167.114,-652.955,0,0,0,
,-0.804,-0.484,0.351,-363.953,174.743,-662.72,0,0,0,
,-0.814,-0.438,0.375,-390.259,175.659,-668.335,0,0,0,
,-0.827,-0.392,0.387,-416.993,176.818,-674.744,0,0,0,
,-0.823,-0.345,0.39,-447.51,186.767,-673.829,0,0,0,
,-0.83,-0.302,0.372,-496.033,177.917,-675.049,0,0,0,
,-0.85,-0.29,0.363,-543.396,185.363,-664.551,0,0,0,
,-0.843,-0.216,0.395,-550.232,209.289,-631.043,0,0,0,
,-0.829,-0.148,0.4,-577.576,209.594,-614.991,0,0,0,
,-0.818,-0.14,0.41,-550.721,214.477,-581.971,0,0,0,
,-0.825,-0.126,0.422,-539.49,209.35,-559.937,0,0,0,
,-0.82,-0.084,0.457,-527.405,206.726,-531.25,0,0,0,
,-0.807,-0.075,0.455,-510.315,198.425,-505.31,0,0,0,
,-0.807,-0.051,0.48,-470.704,164.734,-484.131,0,0,0,
,-0.801,-0.011,0.474,-401.062,147.888,-457.215,0,0,0,
,-0.777,0.032,0.492,-332.581,137.573,-439.515,0,0,0,
,-0.79,0.033,0.522,-261.414,105.59,-425.049,0,0,0,
,-0.812,0.016,0.532,-200.379,81.359,-412.659,0,0,0,
,-0.801,0.037,0.529,-128.418,77.087,-382.691,0,0,0,
,-0.794,0.049,0.536,-70.496,68.115,-364.991,0,0,0,
,-0.793,0.078,0.504,-45.716,58.349,-353.15,0,0,0,
,-0.784,0.07,0.536,-30.396,62.561,-335.755,0,0,0,
,-0.787,0.059,0.565,-61.707,68.176,-319.825,0,0,0,
,-0.773,0.068,0.593,-81.665,87.341,-297.364,0,0,0,
,-0.801,0.077,0.57,-89.295,78.796,-272.706,0,0,0,
,-0.828,0.089,0.566,-133.851,70.495,-274.598,0,0,0,
,-0.79,0.142,0.525,-153.565,78.064,-238.892,0,0,0,
,-0.78,0.15,0.515,-112.366,70.8,-219.483,0,0,0,
,-0.799,0.172,0.52,-100.281,58.715,-195.801,0,0,0,
,-0.801,0.169,0.568,-93.689,72.753,-174.744,0,0,0,
,-0.8,0.162,0.575,-71.473,68.664,-156.8,0,0,0,
,-0.807,0.173,0.552,-40.406,59.204,-137.696,0,0,0,
,-0.804,0.15,0.549,-14.954,48.461,-111.023,0,0,0,
,-0.795,0.154,0.554,12.451,46.081,-81.482,0,0,0,
,-0.785,0.175,0.56,17.883,15.869,-64.209,0,0,0,
,-0.789,0.166,0.548,35.583,13.61,-43.213,0,0,0,
,-0.796,0.171,0.55,47.729,5.493,-21.851,0,0,0,
,-0.814,0.181,0.55,48.034,-2.015,-2.259,0,0,0,
,-0.81,0.17,0.552,68.42,-5.249,20.019,0,0,0,
,-0.805,0.159,0.559,62.377,-10.437,37.231,0,0,0,
,-0.808,0.162,0.548,32.409,-11.353,45.166,0,0,0,
,-0.814,0.14,0.533,57.067,-26.551,87.524,0,0,0,
,-0.825,0.13,0.552,57.434,-22.644,93.139,0,0,0,
,-0.812,0.125,0.587,38.574,-8.606,97.656,0,0,0,
,-0.79,0.121,0.567,41.87,-9.827,95.52,0,0,0,
,-0.819,0.103,0.553,70.739,-26.246,96.557,0,0,0,
,-0.828,0.065,0.532,44.067,-6.47,122.741,0,0,0,
,-0.841,0.057,0.594,30.7,-4.822,125.549,0,0,0,
,-0.857,0.056,0.632,10.437,21.24,123.84,0,0,0,
,-0.868,0.083,0.644,-9.583,47.851,109.619,0,0,0,
,-0.861,0.109,0.639,2.136,75.012,102.6,0,0,0,
,-0.859,0.123,0.638,19.165,82.214,80.017,0,0,0,
,-0.851,0.147,0.621,43.396,95.092,81.665,0,0,0,
,-0.847,0.156,0.617,92.163,101.013,81.97,0,0,0,
,-0.823,0.106,0.601,137.634,97.839,86.608,0,0,0,
,-0.815,0.057,0.565,190.246,65.551,82.946,0,0,0,
,-0.835,0.015,0.567,196.167,51.94,86.303,0,0,0,
,-0.835,0.02,0.561,166.259,39.123,79.834,0,0,0,
,-0.829,0.034,0.56,163.33,26.001,81.848,0,0,0,
,-0.864,-0.052,0.581,86.792,-27.955,39.55,0,0,0,
,-0.862,-0.041,0.579,38.879,-28.809,17.089,0,0,0,
,-0.862,-0.016,0.6,0,-19.898,-12.024,0,0,0,
,-0.847,-0.034,0.617,-37.72,-14.771,-34.913,0,0,0,
,-0.852,-0.022,0.605,-76.966,-20.63,-70.313,0,0,0,
,-0.885,-0.044,0.593,-103.272,-35.767,-99.732,0,0,0,
,-0.903,-0.056,0.592,-131.897,-23.316,-115.601,0,0,0,
,-0.897,-0.061,0.603,-174.378,-16.419,-134.827,0,0,0,
,-0.898,-0.009,0.678,-119.568,-7.63,-152.405,0,0,0,
,-0.9,-0.01,0.655,-59.388,-17.701,-147.461,0,0,0,
,-0.907,-0.006,0.614,-37.232,-6.409,-143.433,0,0,0,
,-0.839,0.086,0.553,-7.325,55.053,-168.274,0,0,0,
,-0.808,0.085,0.562,31.738,65.429,-171.326,0,0,0,
,-0.809,0.05,0.61,55.847,59.814,-170.594,0,0,0,
,-0.818,0.004,0.626,65.918,65.856,-159.913,0,0,0,
,-0.804,0.014,0.599,61.34,67.749,-143.25,0,0,0,
,-0.781,0.025,0.586,60.363,81.787,-138.367,0,0,0,
,-0.824,0.07,0.62,68.664,57.434,-141.419,0,0,0,
,-0.834,0.052,0.653,55.114,79.834,-133.179,0,0,0,
,-0.821,0.079,0.637,17.273,79.162,-137.818,0,0,0,
,-0.832,0.049,0.64,8.178,72.448,-130.555,0,0,0,
,-0.84,0.041,0.642,-29.358,93.627,-96.741,0,0,0,
,-0.832,0.065,0.637,-77.271,95.642,-69.458,0,0,0,
,-0.842,0.082,0.629,-123.169,91.369,-42.176,0,0,0,
,-0.863,0.111,0.614,-125.916,44.677,-122.559,0,0,0,
,-0.837,0.107,0.578,-146.363,59.814,-126.709,0,0,0,
,-0.809,0.076,0.535,-139.405,38.757,-118.836,0,0,0,
,-0.823,0.041,0.53,-144.837,1.159,-103.333,0,0,0,
,-0.846,0.044,0.538,-171.204,-8.484,-88.99,0,0,0,
,-0.848,0.061,0.541,-224.183,7.568,-107.483,0,0,0,
,-0.839,0.085,0.565,-234.314,9.277,-124.146,0,0,0,
,-0.846,0.113,0.549,-220.826,-21.973,-136.231,0,0,0,
,-0.855,0.108,0.552,-215.271,-10.193,-137.391,0,0,0,
,-0.839,0.126,0.554,-220.337,15.258,-151.062,0,0,0,
,-0.83,0.116,0.574,-215.149,17.211,-139.893,0,0,0,
,-0.845,0.123,0.597,-215.271,-5.066,-142.579,0,0,0,
,-0.866,0.131,0.606,-179.932,-8.973,-148.987,0,0,0,
,-0.86,0.122,0.603,-148.56,6.713,-120.301,0,0,0,
,-0.855,0.128,0.608,-164.246,16.845,-126.221,0,0,0,
,-0.852,0.205,0.583,-144.776,13.488,-136.963,0,0,0,
,-0.836,0.244,0.593,-88.257,38.269,-129.883,0,0,0,
,-0.821,0.258,0.612,-31.617,37.902,-130.005,0,0,0,
,-0.819,0.213,0.598,43.884,12.573,-124.695,0,0,0,
,-0.838,0.159,0.602,95.703,-10.315,-119.08,0,0,0,
,-0.846,0.133,0.607,33.142,5.31,-111.695,0,0,0,
,-0.824,0.162,0.598,-33.265,18.92,-121.033,0,0,0,
,-0.815,0.214,0.619,-73.792,15.197,-114.991,0,0,0,
,-0.819,0.272,0.607,-98.511,6.53,-115.906,0,0,0,
,-0.833,0.286,0.575,-87.098,4.577,-131.653,0,0,0,
,-0.825,0.257,0.568,-82.886,29.846,-117.432,0,0,0,
,-0.808,0.195,0.588,-70.862,27.71,-118.531,0,0,0,
,-0.815,0.156,0.584,-122.437,19.47,-124.512,0,0,0,
,-0.827,0.196,0.593,-203.797,38.208,-138.672,0,0,0,
,-0.797,0.235,0.568,-237.854,54.138,-152.222,0,0,0,
,-0.791,0.234,0.581,-208.374,56.64,-128.724,0,0,0,
,-0.815,0.238,0.591,-181.458,28.381,-144.165,0,0,0,
,-0.817,0.265,0.641,-209.351,74.585,-153.809,0,0,0,
,-0.778,0.282,0.612,-194.275,75.744,-141.419,0,0,0,
,-0.786,0.281,0.613,-143.128,40.588,-137.757,0,0,0,
,-0.816,0.288,0.579,-106.812,26.977,-139.344,0,0,0,
,-0.808,0.31,0.552,-82.642,59.448,-141.297,0,0,0,
,-0.795,0.332,0.569,-64.759,65.307,-152.283,0,0,0,
,-0.775,0.319,0.589,-33.753,53.405,-159.729,0,0,0,
,-0.768,0.288,0.595,0.61,49.56,-138.794,0,0,0,
,-0.778,0.26,0.606,-30.396,49.682,-132.996,0,0,0,
,-0.766,0.286,0.573,-58.106,49.133,-139.588,0,0,0,
,-0.751,0.304,0.557,-78.675,59.082,-123.291,0,0,0,
,-0.759,0.338,0.585,-119.202,50.659,-126.709,0,0,0,
,-0.75,0.331,0.567,-150.818,44.616,-135.071,0,0,0,
,-0.741,0.326,0.571,-145.691,33.203,-116.944,0,0,0,
,-0.756,0.332,0.569,-150.391,16.723,-113.77,0,0,0,
,-0.762,0.333,0.574,-170.594,34.79,-101.807,0,0,0,
,-0.741,0.391,0.549,-156.922,38.452,-98.45,0,0,0,
,-0.733,0.406,0.571,-123.78,42.724,-113.831,0,0,0,
,-0.741,0.384,0.564,-94.361,15.808,-115.174,0,0,0,
,-0.751,0.352,0.565,-80.811,13.122,-110.413,0,0,0,
,-0.721,0.349,0.59,-86.365,28.32,-110.718,0,0,0,
,-0.75,0.374,0.611,-62.806,23.742,-108.155,0,0,0,
,-0.733,0.415,0.55,-12.696,22.033,-100.831,0,0,0,
,-0.718,0.396,0.55,37.963,31.982,-80.018,0,0,0,
,-0.727,0.378,0.559,23.01,9.094,-85.877,0,0,0,
,-0.729,0.356,0.584,-13.306,24.047,-69.947,0,0,0,
,-0.717,0.356,0.571,-48.279,31.127,-60.547,0,0,0,
,-0.715,0.369,0.577,-76.6,31.738,-62.5,0,0,0,
,-0.706,0.356,0.545,-78.614,33.264,-45.227,0,0,0,
,-0.702,0.365,0.509,-93.873,15.502,-30.396,0,0,0,
,-0.7,0.377,0.531,-96.558,19.104,-23.804,0,0,0,
,-0.695,0.398,0.555,-94.3,14.221,-7.752,0,0,0,
,-0.679,0.402,0.575,-58.96,12.573,7.812,0,0,0,
,-0.666,0.368,0.544,1.464,-9.217,27.404,0,0,0,
,-0.675,0.327,0.516,39.184,-25.086,57.251,0,0,0,
,-0.645,0.389,0.495,157.47,-12.146,152.099,0,0,0,
,-0.644,0.371,0.498,247.741,-16.236,193.603,0,0,0,
,-0.663,0.355,0.476,309.509,-28.87,228.454,0,0,0,
,-0.648,0.329,0.452,373.108,-33.692,231.506,0,0,0,
,-0.618,0.351,0.422,475.83,-26.795,293.029,0,0,0,
,-0.587,0.284,0.389,589.599,-43.091,348.083,0,0,0,
,-0.594,0.231,0.466,677.49,-53.467,424.865,0,0,0,
,-0.622,0.193,0.473,666.442,-69.214,464.782,0,0,0,
,-0.608,0.207,0.477,724.548,-39.612,531.433,0,0,0,
,-0.617,0.237,0.527,756.042,-66.529,565.979,0,0,0,
,-0.64,0.201,0.541,814.087,-87.281,595.581,0,0,0,
,-0.666,0.16,0.535,924.926,-118.714,640.869,0,0,0,
,-0.669,0.094,0.52,1010.009,-143.311,687.072,0,0,0,
,-0.684,0.014,0.549,1064.087,-175.965,712.219,0,0,0,
,-0.725,-0.041,0.56,1074.401,-215.76,714.843,0,0,0,
,-0.721,-0.094,0.562,1105.102,-226.807,740.966,0,0,0,
,-0.688,-0.172,0.515,1067.566,-260.071,763.122,0,0,0,
,-0.688,-0.263,0.483,1021.362,-286.683,777.649,0,0,0,
,-0.722,-0.32,0.435,944.213,-321.778,793.64,0,0,0,
,-0.736,-0.363,0.422,838.195,-323.731,802.673,0,0,0,
,-0.713,-0.417,0.41,741.882,-318.543,809.692,0,0,0,
,-0.711,-0.449,0.401,653.625,-319.397,808.471,0,0,0,
,-0.728,-0.488,0.418,580.932,-300.11,808.899,0,0,0,
,-0.692,-0.539,0.401,491.394,-280.213,816.65,0,0,0,
,-0.695,-0.596,0.348,414.489,-263.977,806.64,0,0,0,
,-0.671,-0.605,0.32,339.843,-246.827,817.932,0,0,0,
,-0.674,-0.636,0.32,341.797,-244.996,813.781,0,0,0,
,-0.687,-0.652,0.358,317.077,-233.521,816.894,0,0,0,
,-0.671,-0.659,0.341,284.362,-209.29,824.585,0,0,0,
,-0.647,-0.683,0.303,312.378,-203.309,822.021,0,0,0,
,-0.591,-0.711,0.16,353.332,-202.21,824.768,0,0,0,
,-0.544,-0.836,0.014,409.607,-219.361,825.988,0,0,0,
,-0.553,-1,0.034,397.583,-261.536,841.003,0,0,0,
,-0.577,-1.06,0.192,270.996,-248.475,873.352,0,0,0,
,-0.595,-0.975,0.28,117.859,-221.619,831.909,0,0,0,
,-0.587,-0.878,0.25,67.81,-170.777,790.405,0,0,0,
,-0.579,-0.998,0.253,90.576,-128.418,760.864,0,0,0,
,-0.552,-1.03,0.263,76.355,-69.764,736.877,0,0,0,
,-0.53,-1.024,0.264,85.693,-38.269,702.27,0,0,0,
,-0.518,-1.063,0.305,148.376,-3.663,670.166,0,0,0,
,-0.481,-1.075,0.305,218.444,27.038,654.297,0,0,0,
,-0.493,-1.035,0.279,246.521,38.757,613.525,0,0,0,
,-0.471,-1.008,0.225,303.466,42.968,590.271,0,0,0,
,-0.448,-1.028,0.215,336.181,25.756,562.011,0,0,0,
,-0.408,-1.07,0.219,356.506,0.915,525.39,0,0,0,
,-0.391,-1.046,0.216,329.101,-28.565,478.027,0,0,0,
,-0.362,-1.075,0.201,288.757,-41.565,443.359,0,0,0,
,-0.354,-1.209,0.179,299.194,-59.998,419.555,0,0,0,
,-0.347,-1.209,0.201,239.013,-83.008,410.278,0,0,0,
,-0.332,-1.125,0.199,136.413,-92.957,367.309,0,0,0,
,-0.285,-1.074,0.146,149.353,-89.905,348.449,0,0,0,
,-0.278,-1.039,0.156,149.17,-123.169,288.33,0,0,0,
,-0.271,-1.088,0.18,130.676,-100.708,262.085,0,0,0,
,-0.268,-1.142,0.204,124.878,-79.407,249.084,0,0,0,
,-0.248,-1.165,0.177,121.826,-63.05,238.525,0,0,0,
,-0.229,-1.168,0.141,65.673,-38.453,223.388,0,0,0,
,-0.186,-1.143,0.099,36.071,-33.692,200.134,0,0,0,
,-0.184,-1.171,0.1,9.094,-22.339,178.833,0,0,0,
,-0.185,-1.171,0.115,-28.321,-28.382,161.438,0,0,0,
,-0.185,-1.145,0.111,-37.964,-21.607,143.31,0,0,0,
,-0.168,-1.121,0.082,-12.391,-24.903,130.066,0,0,0,
,-0.152,-1.132,0.052,25.634,-39.917,106.872,0,0,0,
,-0.144,-1.127,0.048,30.7,-60.303,81.298,0,0,0,
,-0.141,-1.071,0.064,62.133,-77.088,65.185,0,0,0,
,-0.156,-1.038,0.094,82.946,-90.21,42.419,0,0,0,
,-0.162,-1.022,0.109,88.317,-88.807,27.954,0,0,0,
,-0.167,-1.03,0.107,115.722,-79.407,17.395,0,0,0,
,-0.165,-1.039,0.078,101.135,-67.261,11.535,0,0,0,
,-0.15,-1.019,0.074,86.181,-57.496,5.188,0,0,0,
,-0.145,-1.005,0.066,66.284,-49.439,5.065,0,0,0,
,-0.143,-1,0.042,53.222,-43.213,-2.564,0,0,0,
,-0.128,-0.985,0.04,42.297,-45.838,-7.813,0,0,0,
,-0.117,-1.003,0.047,42.541,-43.946,-13.367,0,0,0,
,-0.122,-1.036,0.064,27.771,-32.837,-20.935,0,0,0,
,-0.12,-1.042,0.066,22.338,-30.274,-27.649,0,0,0,
,-0.131,-1.019,0.034,10.07,-19.776,-29.541,0,0,0,
,-0.116,-0.997,0.008,0.671,-21.241,-30.457,0,0,0,
,-0.118,-1.031,0.002,-3.296,-23.743,-35.462,0,0,0,
,-0.119,-1.042,0.027,-5.616,-32.959,-39.124,0,0,0,
,-0.13,-1.051,0.055,-12.574,-31.556,-46.326,0,0,0,
,-0.129,-1.049,0.06,-17.579,-17.029,-48.279,0,0,0,
,-0.136,-1.037,0.024,-14.527,-9.583,-57.496,0,0,0,
,-0.137,-1.068,-0.004,-1.587,-12.757,-76.783,0,0,0,
,-0.134,-1.123,-0.005,-12.024,-16.236,-98.816,0,0,0,
,-0.162,-1.155,0.022,-4.273,-14.039,-112.732,0,0,0,
,-0.179,-1.176,0.026,-17.945,-7.813,-143.677,0,0,0,
,-0.202,-1.204,0.027,-37.659,7.019,-180.909,0,0,0,
,-0.212,-1.224,0.004,-53.162,15.441,-230.957,0,0,0,
,-0.2,-1.297,-0.015,-90.149,28.686,-284.058,0,0,0,
,-0.193,-1.392,-0.028,-117.554,25.878,-355.957,0,0,0,
,-0.204,-1.406,-0.002,-145.264,36.499,-424.256,0,0,0,
,-0.244,-1.421,0.032,-160.218,55.175,-531.067,0,0,0,
,-0.281,-1.364,0.053,-156.25,84.472,-589.051,0,0,0,
,-0.314,-1.354,0.04,-112.549,122.619,-654.602,0,0,0,
,-0.344,-1.322,0.051,-88.868,152.71,-730.896,0,0,0,
,-0.409,-1.187,0.089,-84.961,196.533,-796.082,0,0,0,
,-0.428,-1.154,0.091,-72.083,230.774,-863.343,0,0,0,
,-0.472,-1.099,0.111,-56.885,266.845,-919.312,0,0,0,
,-0.473,-1.086,0.11,-75.135,285.644,-983.765,0,0,0,
,-0.49,-1.049,0.129,-133.728,299.255,-1053.284,0,0,0,
,-0.531,-0.981,0.14,-258.362,343.078,-1091.492,0,0,0,
,-0.521,-0.897,0.143,-431.458,361.45,-1133.24,0,0,0,
,-0.537,-0.855,0.141,-562.256,359.497,-1179.688,0,0,0,
,-0.534,-0.889,0.126,-620.057,350.891,-1185.73,0,0,0,
,-0.55,-0.862,0.156,-739.014,318.298,-1198.487,0,0,0,
,-0.564,-0.761,0.169,-748.597,272.766,-1186.646,0,0,0,
,-0.616,-0.681,0.268,-711.06,242.187,-1169.312,0,0,0,
,-0.621,-0.608,0.289,-683.533,216.369,-1148.072,0,0,0,
,-0.663,-0.59,0.315,-574.463,204.162,-1120.728,0,0,0,
,-0.683,-0.604,0.329,-542.176,190.185,-1087.281,0,0,0,
,-0.695,-0.574,0.309,-511.719,174.743,-1033.387,0,0,0,
,-0.698,-0.508,0.302,-534.119,174.926,-1007.996,0,0,0,
,-0.71,-0.431,0.291,-562.989,168.823,-982.911,0,0,0,
,-0.733,-0.389,0.311,-585.144,175.598,-946.228,0,0,0,
,-0.72,-0.296,0.357,-633.484,197.448,-921.204,0,0,0,
,-0.74,-0.27,0.376,-654.297,234.008,-886.414,0,0,0,
,-0.76,-0.236,0.411,-675.293,270.08,-868.653,0,0,0,
,-0.803,-0.259,0.391,-740.906,275.634,-892.212,0,0,0,
,-0.763,-0.262,0.387,-804.505,278.381,-886.353,0,0,0,
,-0.77,-0.268,0.439,-778.077,285.583,-832.276,0,0,0,
,-0.78,-0.264,0.469,-752.625,285.766,-788.086,0,0,0,
,-0.789,-0.194,0.464,-672.852,293.762,-725.708,0,0,0,
,-0.785,-0.15,0.455,-604.248,293.274,-671.936,0,0,0,
,-0.765,-0.159,0.46,-521.79,275.756,-616.456,0,0,0,
,-0.753,-0.102,0.456,-436.829,253.723,-555.359,0,0,0,
,-0.778,-0.03,0.509,-378.052,257.873,-519.349,0,0,0,
,-0.767,0.029,0.532,-258.24,243.835,-461.853,0,0,0,
,-0.766,0.038,0.512,-127.442,235.168,-415.65,0,0,0,
,-0.733,0.038,0.47,-58.899,221.801,-373.169,0,0,0,
,-0.716,0.029,0.475,-33.692,216.858,-346.863,0,0,0,
,-0.736,0.027,0.496,-89.173,184.448,-351.014,0,0,0,
,-0.751,0.071,0.661,-187.195,135.07,-294.129,0,0,0,
,-0.784,0.105,0.661,-229.981,146.85,-307.74,0,0,0,
,-0.724,0.126,0.658,-222.657,147.461,-279.725,0,0,0,
,-0.747,0.111,0.632,-220.337,147.949,-270.325,0,0,0,
,-0.759,0.123,0.626,-231.263,128.784,-252.686,0,0,0,
,-0.749,0.14,0.638,-211.853,107.238,-232.911,0,0,0,
,-0.753,0.141,0.652,-211.792,94.421,-220.093,0,0,0,
,-0.735,0.153,0.646,-224.06,82.275,-201.172,0,0,0,
,-0.716,0.18,0.602,-225.098,70.312,-178.223,0,0,0,
,-0.711,0.205,0.612,-227.051,69.152,-167.481,0,0,0,
,-0.715,0.263,0.634,-157.654,60.302,-149.476,0,0,0,
,-0.713,0.24,0.629,-44.556,68.115,-126.526,0,0,0,
,-0.726,0.22,0.621,2.624,65.185,-95.215,0,0,0,
,-0.721,0.195,0.6,13.549,63.354,-75.44,0,0,0,
,-0.76,0.186,0.648,-48.218,75.683,-69.031,0,0,0,
,-0.74,0.248,0.628,-135.376,87.829,-59.082,0,0,0,
,-0.745,0.263,0.633,-205.14,95.825,-70.679,0,0,0,
,-0.734,0.225,0.599,-286.805,107.727,-70.923,0,0,0,
,-0.746,0.218,0.635,-394.776,114.746,-78.858,0,0,0,
,-0.736,0.246,0.639,-464.112,118.652,-87.464,0,0,0,
,-0.761,0.24,0.65,-481.568,121.154,-97.046,0,0,0,
,-0.759,0.303,0.66,-413.941,113.342,-78.125,0,0,0,
,-0.753,0.288,0.617,-313.355,106.201,-70.984,0,0,0,
,-0.754,0.328,0.616,-198.609,88.806,-58.167,0,0,0,
,-0.743,0.304,0.613,-114.136,72.57,-52.552,0,0,0,
,-0.753,0.306,0.631,-63.111,63.476,-48.157,0,0,0,
,-0.76,0.282,0.64,-76.722,77.27,-43.763,0,0,0,
,-0.751,0.292,0.644,-110.901,93.2,-40.406,0,0,0,
,-0.752,0.325,0.605,-159.424,113.159,-46.875,0,0,0,
,-0.715,0.347,0.592,-148.56,105.835,-44.739,0,0,0,
,-0.713,0.317,0.59,-159.729,90.942,-53.65,0,0,0,
,-0.713,0.326,0.611,-153.077,70.434,-47.913,0,0,0,
,-0.707,0.284,0.646,-163.453,71.899,-42.481,0,0,0,
,-0.696,0.301,0.601,-162.842,59.387,-31.495,0,0,0,
,-0.669,0.299,0.557,-152.771,47.424,-19.959,0,0,0,
,-0.678,0.332,0.573,-160.462,37.353,-22.828,0,0,0,
,-0.665,0.347,0.573,-130.738,31.738,-26.856,0,0,0,
,-0.658,0.34,0.578,-76.111,16.662,-18.982,0,0,0,
,-0.672,0.303,0.581,-54.81,15.564,-11.048,0,0,0,
,-0.669,0.336,0.576,-31.678,11.291,6.897,0,0,0,
,-0.649,0.364,0.585,29.296,11.108,20.69,0,0,0,
,-0.652,0.368,0.561,46.63,11.657,20.446,0,0,0,
,-0.668,0.385,0.54,77.453,17.883,8.667,0,0,0,
,-0.686,0.358,0.588,100.219,20.507,8.117,0,0,0,
,-0.718,0.343,0.604,81.115,28.686,-0.184,0,0,0,
,-0.715,0.322,0.6,57.495,29.235,2.197,0,0,0,
,-0.73,0.292,0.623,-4.456,30.029,3.295,0,0,0,
,-0.714,0.309,0.648,-42.542,38.757,7.568,0,0,0,
,-0.725,0.301,0.659,-65.857,48.278,14.648,0,0,0,
,-0.698,0.301,0.61,-63.843,44.982,32.226,0,0,0,
,-0.703,0.362,0.611,-49.256,30.273,45.166,0,0,0,
,-0.702,0.388,0.593,-25.269,18.676,46.264,0,0,0,
,-0.709,0.362,0.608,4.211,12.451,50.17,0,0,0,
,-0.7,0.356,0.637,78.918,-2.32,68.847,0,0,0,
,-0.701,0.325,0.64,126.648,-3.113,86.853,0,0,0,
,-0.693,0.333,0.642,169.922,-1.587,112.182,0,0,0,
,-0.679,0.33,0.608,224.67,3.845,131.713,0,0,0,
,-0.668,0.316,0.573,253.112,2.502,156.799,0,0,0,
,-0.658,0.305,0.583,281.921,1.892,171.02,0,0,0,
,-0.635,0.294,0.605,349.792,6.53,204.467,0,0,0,
,-0.657,0.244,0.589,374.145,33.691,219.238,0,0,0,
,-0.682,0.256,0.596,591.125,54.992,327.148,0,0,0,
,-0.692,0.198,0.604,657.776,44.372,359.985,0,0,0,
,-0.693,0.157,0.628,679.626,29.602,385.864,0,0,0,
,-0.686,0.127,0.624,707.519,3.723,412.475,0,0,0,
,-0.704,0.086,0.613,755.432,-24.292,422.058,0,0,0,
,-0.703,0.026,0.611,749.878,-48.645,449.524,0,0,0,
,-0.693,0.014,0.64,727.783,-67.627,473.51,0,0,0,
,-0.687,-0.001,0.631,726.562,-90.271,481.567,0,0,0,
,-0.659,-0.032,0.565,727.234,-113.404,491.882,0,0,0,
,-0.654,-0.078,0.517,715.026,-141.053,503.723,0,0,0,
,-0.645,-0.116,0.528,701.66,-156.739,532.409,0,0,0,
,-0.664,-0.191,0.556,650.329,-156.25,547.241,0,0,0,
,-0.676,-0.201,0.53,602.478,-163.453,563.659,0,0,0,
,-0.677,-0.211,0.53,572.937,-168.03,575.622,0,0,0,
,-0.672,-0.214,0.52,537.231,-180.054,579.589,0,0,0,
,-0.654,-0.218,0.508,527.954,-185.059,598.571,0,0,0,
,-0.665,-0.285,0.502,524.536,-179.505,588.745,0,0,0,
,-0.688,-0.38,0.519,452.575,-181.092,593.444,0,0,0,
,-0.671,-0.443,0.542,421.447,-181.214,601.989,0,0,0,
,-0.686,-0.467,0.471,459.411,-206.116,607.055,0,0,0,
,-0.697,-0.523,0.416,499.389,-218.628,620.544,0,0,0,
,-0.678,-0.53,0.409,475.891,-255.31,635.742,0,0,0,
,-0.676,-0.531,0.406,499.511,-295.96,630.127,0,0,0,
,-0.677,-0.599,0.437,497.436,-314.942,621.643,0,0,0,
,-0.69,-0.689,0.483,475.586,-309.632,598.083,0,0,0,
,-0.718,-0.718,0.5,430.542,-293.457,581.787,0,0,0,
,-0.689,-0.748,0.451,310.363,-251.709,563.354,0,0,0,
,-0.667,-0.753,0.285,257.385,-244.812,543.151,0,0,0,
,-0.657,-0.758,0.259,267.883,-243.836,507.507,0,0,0,
,-0.644,-0.785,0.354,289.062,-236.084,496.093,0,0,0,
,-0.655,-0.805,0.401,302.49,-213.501,465.698,0,0,0,
,-0.638,-0.834,0.384,288.513,-193.36,448.303,0,0,0,
,-0.582,-0.86,0.282,314.453,-188.111,426.086,0,0,0,
,-0.562,-0.834,0.186,295.349,-204.529,408.325,0,0,0,
,-0.591,-0.832,0.206,297.302,-220.032,392.883,0,0,0,
,-0.625,-0.874,0.267,335.51,-218.018,414.672,0,0,0,
,-0.603,-0.907,0.322,324.157,-226.075,403.503,0,0,0,
,-0.585,-0.898,0.281,287.658,-229.676,396.972,0,0,0,
,-0.586,-0.909,0.193,287.719,-220.459,387.512,0,0,0,
,-0.579,-0.939,0.222,363.281,-210.144,385.131,0,0,0,
,-0.581,-0.996,0.271,375.427,-212.891,375.305,0,0,0,
,-0.551,-1.02,0.27,338.134,-195.252,358.764,0,0,0,
,-0.543,-1.007,0.208,289.795,-190.186,344.238,0,0,0,
,-0.545,-1.033,0.148,188.049,-188.416,294.677,0,0,0,
,-0.517,-1.047,0.155,26.672,-163.331,280.334,0,0,0,
,-0.498,-1.06,0.166,-120.484,-164.917,254.455,0,0,0,
,-0.474,-1.048,0.15,-132.935,-153.748,241.516,0,0,0,
,-0.447,-1.024,0.13,-131.348,-161.438,253.234,0,0,0,
,-0.439,-0.99,0.129,-106.568,-170.533,254.638,0,0,0,
,-0.422,-0.948,0.162,-72.205,-164.49,256.897,0,0,0,
,-0.394,-0.902,0.189,-19.471,-161.56,259.948,0,0,0,
,-0.387,-0.914,0.189,38.757,-154.664,253.296,0,0,0,
,-0.383,-0.98,0.139,69.458,-146.485,248.413,0,0,0,
,-0.372,-1.016,0.134,77.514,-136.78,268.798,0,0,0,
,-0.374,-0.992,0.094,57.373,-131.409,276.367,0,0,0,
,-0.368,-0.973,0.09,62.805,-135.865,272.4,0,0,0,
,-0.361,-0.979,0.108,100.28,-139.832,272.216,0,0,0,
,-0.361,-1.019,0.108,133.484,-138.062,264.648,0,0,0,
,-0.341,-1.089,0.125,162.109,-124.085,260.986,0,0,0,
,-0.34,-1.092,0.11,143.859,-112.122,234.802,0,0,0,
,-0.339,-1.072,0.111,97.595,-91.614,206.604,0,0,0,
,-0.327,-1.07,0.092,98.816,-64.209,184.143,0,0,0,
,-0.341,-1.1,0.053,71.167,-51.575,157.959,0,0,0,
,-0.324,-1.125,0.066,42.48,-52.002,139.404,0,0,0,
,-0.338,-1.085,0.09,15.625,-51.148,118.896,0,0,0,
,-0.329,-1.057,0.085,8.789,-42.237,104.675,0,0,0,
,-0.315,-1.042,0.067,24.658,-45.716,86.608,0,0,0,
,-0.319,-1.063,0.093,36.01,-53.589,67.932,0,0,0,
,-0.32,-1.063,0.103,37.78,-60.852,56.945,0,0,0,
,-0.31,-1.047,0.088,38.391,-51.941,46.936,0,0,0,
,-0.294,-1.053,0.067,26.001,-52.185,37.597,0,0,0,
,-0.278,-1.019,0.089,-4.09,-49.256,24.292,0,0,0,
,-0.287,-1.005,0.089,-11.536,-27.1,10.498,0,0,0,
,-0.279,-1.024,0.069,-26.001,-11.719,-5.921,0,0,0,
,-0.272,-1.053,0.055,-41.443,2.807,-22.095,0,0,0,
,-0.267,-1.045,0.06,-48.34,7.324,-23.499,0,0,0,
,-0.266,-1.02,0.044,-48.523,9.033,-34.241,0,0,0,
,-0.263,-1,0.045,-32.227,0.122,-39.307,0,0,0,
,-0.264,-0.988,0.07,-1.282,-3.174,-47.242,0,0,0,
,-0.264,-0.992,0.062,-1.77,5.737,-49.988,0,0,0,
,-0.263,-1.005,0.062,8.178,5.004,-55.481,0,0,0,
,-0.273,-1.004,0.052,-5.738,10.009,-50.965,0,0,0,
,-0.266,-1.003,0.046,-24.537,9.155,-51.453,0,0,0,
,-0.27,-0.988,0.046,-47.669,5.676,-50.904,0,0,0,
,-0.261,-0.983,0.049,-65.43,3.418,-59.998,0,0,0,
,-0.261,-0.967,0.08,-45.777,-4.273,-59.082,0,0,0,
,-0.272,-0.98,0.078,-23.499,10.498,-55.298,0,0,0,
,-0.265,-0.99,0.065,7.141,6.836,-54.2,0,0,0,
,-0.275,-0.997,0.054,30.578,11.84,-53.223,0,0,0,
,-0.269,-1.011,0.045,25.207,9.46,-53.833,0,0,0,
,-0.275,-1.006,0.064,-21.79,11.84,-72.449,0,0,0,
,-0.27,-1.008,0.053,-35.34,7.568,-74.341,0,0,0,
,-0.285,-1.013,0.056,-42.603,18.127,-80.079,0,0,0,
,-0.282,-0.992,0.056,-24.903,21.179,-76.233,0,0,0,
,-0.291,-0.994,0.077,-11.78,30.944,-80.811,0,0,0,
,-0.29,-0.998,0.07,4.394,45.654,-81.055,0,0,0,
,-0.293,-0.995,0.042,7.873,48.095,-85.755,0,0,0,
,-0.296,-0.972,0.049,0.61,48.523,-85.633,0,0,0,
,-0.3,-0.977,0.045,-20.447,51.574,-88.868,0,0,0,
,-0.292,-0.994,0.039,-39.124,46.02,-92.835,0,0,0,
,-0.296,-0.992,0.06,-50.721,39.123,-91.431,0,0,0,
,-0.293,-0.985,0.061,-11.17,32.898,-96.863,0,0,0,
,-0.303,-1.002,0.071,19.226,27.832,-99.366,0,0,0,
,-0.3,-0.989,0.06,58.96,27.587,-98.938,0,0,0,
,-0.305,-0.981,0.059,94.726,23.01,-108.277,0,0,0,
,-0.309,-0.999,0.059,104.736,30.212,-107.3,0,0,0,
,-0.304,-1.031,0.038,92.773,31.86,-119.507,0,0,0,
,-0.302,-1.054,0.017,64.392,31.189,-131.287,0,0,0,
,-0.316,-1.042,0.039,7.995,44.372,-141.114,0,0,0,
,-0.331,-1.015,0.07,-48.279,59.936,-150.94,0,0,0,
,-0.346,-1.022,0.062,-102.845,77.88,-170.838,0,0,0,
,-0.343,-1.001,0.074,-203.675,96.618,-178.406,0,0,0,
,-0.339,-0.964,0.037,-268.311,110.534,-193.543,0,0,0,
,-0.318,-0.973,0.086,-341.309,114.441,-202.576,0,0,0,
,-0.353,-1.003,0.122,-391.724,132.812,-206.482,0,0,0,
,-0.362,-1.003,0.143,-454.163,141.54,-200.928,0,0,0,
,-0.378,-0.976,0.14,-508.851,129.76,-227.784,0,0,0,
,-0.386,-0.973,0.171,-555.542,117.981,-261.597,0,0,0,
,-0.374,-0.963,0.187,-532.715,113.952,-258.362,0,0,0,
,-0.387,-0.954,0.207,-490.784,103.454,-253.602,0,0,0,
,-0.386,-0.939,0.219,-440.43,103.393,-245.423,0,0,0,
,-0.399,-0.908,0.199,-371.827,78.064,-269.349,0,0,0,
,-0.38,-0.914,0.188,-298.706,69.336,-270.02,0,0,0,
,-0.385,-0.922,0.203,-231.202,43.273,-258.362,0,0,0,
,-0.408,-0.913,0.223,-195.13,35.339,-252.076,0,0,0,
,-0.409,-0.884,0.248,-163.575,32.592,-246.705,0,0,0,
,-0.415,-0.837,0.244,-133.423,25.573,-236.084,0,0,0,
,-0.414,-0.828,0.236,-55.42,25.024,-227.906,0,0,0,
,-0.414,-0.84,0.244,0.61,18.92,-212.159,0,0,0,
,-0.423,-0.818,0.255,24.047,18.432,-194.458,0,0,0,
,-0.44,-0.802,0.258,53.283,25.268,-180.909,0,0,0,
,-0.435,-0.799,0.244,83.862,25.94,-162.415,0,0,0,
,-0.439,-0.81,0.254,69.824,27.832,-136.719,0,0,0,
,-0.454,-0.826,0.26,60.119,32.898,-110.108,0,0,0,
,-0.469,-0.817,0.254,30.7,29.235,-90.149,0,0,0,
,-0.461,-0.799,0.232,28.991,34.973,-63.233,0,0,0,
,-0.463,-0.771,0.263,13.61,25.39,-38.514,0,0,0,
,-0.48,-0.733,0.245,3.234,20.324,-18.372,0,0,0,
,-0.462,-0.736,0.254,6.836,21.789,-9.949,0,0,0,
,-0.446,-0.811,0.244,52.063,6.469,5.615,0,0,0,
,-0.455,-0.861,0.267,65.795,-16.358,28.625,0,0,0,
,-0.456,-0.888,0.266,83.984,-15.564,41.626,0,0,0,
,-0.444,-0.875,0.252,112.976,-27.588,57.922,0,0,0,
,-0.45,-0.86,0.247,130.676,-37.964,56.945,0,0,0,
,-0.457,-0.875,0.223,155.944,-40.284,55.481,0,0,0,
,-0.449,-0.879,0.222,164.306,-46.875,56.579,0,0,0,
,-0.45,-0.896,0.215,176.269,-48.829,49.194,0,0,0,
,-0.461,-0.926,0.234,179.321,-46.265,49.194,0,0,0,
,-0.467,-0.925,0.235,171.753,-35.157,46.264,0,0,0,
,-0.467,-0.927,0.207,165.283,-19.349,41.687,0,0,0,
,-0.461,-0.911,0.175,149.475,-14.954,38.391,0,0,0,
,-0.463,-0.937,0.179,105.407,2.014,29.113,0,0,0,
,-0.456,-0.941,0.183,80.078,7.385,22.583,0,0,0,
,-0.462,-0.948,0.185,42.663,11.718,14.77,0,0,0,
,-0.464,-0.948,0.187,7.202,18.249,-0.061,0,0,0,
,-0.454,-0.946,0.192,-17.579,26.55,-7.447,0,0,0,
,-0.457,-0.933,0.178,-36.316,27.771,-18.311,0,0,0,
,-0.449,-0.91,0.154,-58.777,27.587,-28.016,0,0,0,
,-0.441,-0.904,0.156,-55.97,18.31,-32.227,0,0,0,
,-0.455,-0.926,0.177,-31.922,14.221,-31.311,0,0,0,
,-0.452,-0.916,0.193,-22.4,7.69,-28.687,0,0,0,
,-0.447,-0.905,0.181,-0.367,9.277,-27.894,0,0,0,
,-0.443,-0.903,0.168,35.766,9.277,-30.579,0,0,0,
,-0.432,-0.913,0.168,41.198,6.469,-30.579,0,0,0,
,-0.436,-0.916,0.171,51.513,7.019,-35.645,0,0,0,
,-0.449,-0.926,0.186,55.175,5.554,-36.927,0,0,0,
,-0.449,-0.925,0.189,44.982,11.108,-35.218,0,0,0,
,-0.449,-0.92,0.16,33.63,15.441,-37.903,0,0,0,
,-0.447,-0.918,0.161,9.826,16.296,-36.499,0,0,0,
,-0.448,-0.926,0.166,15.502,14.709,-39.551,0,0,0,
,-0.447,-0.927,0.172,9.216,21.85,-38.453,0,0,0,
,-0.451,-0.926,0.171,2.746,20.446,-36.622,0,0,0,
,-0.451,-0.922,0.169,-2.93,19.226,-30.64,0,0,0,
,-0.457,-0.914,0.177,-10.743,10.498,-31.617,0,0,0,
,-0.451,-0.904,0.171,-18.067,19.104,-24.17,0,0,0,
,-0.445,-0.888,0.161,-14.527,20.568,-20.997,0,0,0,
,-0.445,-0.907,0.158,-1.709,23.437,-12.33,0,0,0,
,-0.44,-0.897,0.154,3.967,21.606,-12.269,0,0,0,
,-0.429,-0.892,0.15,0.427,22.888,-11.353,0,0,0,
,-0.424,-0.904,0.153,9.521,19.897,-7.264,0,0,0,
,-0.422,-0.933,0.147,11.596,20.08,-9.278,0,0,0,
,-0.418,-0.921,0.152,-1.404,14.282,-9.217,0,0,0,
,-0.425,-0.908,0.145,-2.381,15.258,-8.912,0,0,0,
,-0.432,-0.915,0.143,14.221,10.62,-6.409,0,0,0,
,-0.437,-0.933,0.142,24.597,7.141,-1.648,0,0,0,
,-0.432,-0.903,0.139,9.704,3.295,-2.564,0,0,0,
,-0.437,-0.902,0.131,23.559,1.953,-3.113,0,0,0,
,-0.437,-0.921,0.146,26.245,1.037,0.549,0,0,0,
,-0.432,-0.933,0.133,36.987,-3.113,-2.808,0,0,0,
,-0.431,-0.941,0.145,22.216,-10.987,-8.24,0,0,0,
,-0.438,-0.926,0.145,20.08,-6.592,-6.287,0,0,0,
,-0.448,-0.909,0.146,25.817,-4.09,-9.949,0,0,0,
,-0.439,-0.926,0.144,37.109,2.807,-9.644,0,0,0,
,-0.439,-0.944,0.138,36.438,0.671,-10.132,0,0,0,
,-0.443,-0.94,0.135,20.935,1.464,-8.728,0,0,0,
,-0.439,-0.929,0.126,13.366,5.065,-9.034,0,0,0,
,-0.438,-0.934,0.139,11.474,3.356,-15.686,0,0,0,
,-0.468,-0.929,0.138,5.798,9.582,-16.602,0,0,0,
,-0.438,-0.931,0.119,10.009,10.864,-20.691,0,0,0,
,-0.433,-0.947,0.12,27.893,13.122,-26.001,0,0,0,
,-0.44,-0.96,0.139,16.113,14.709,-26.978,0,0,0,
,-0.448,-0.947,0.144,6.836,16.723,-31.128,0,0,0,
,-0.445,-0.945,0.12,13.671,27.404,-32.715,0,0,0,
,-0.435,-0.953,0.115,9.948,27.465,-32.532,0,0,0,
,-0.437,-0.941,0.096,3.967,29.052,-37.171,0,0,0,
,-0.436,-0.928,0.11,-13.611,32.775,-36.622,0,0,0,
,-0.438,-0.937,0.106,-6.104,33.569,-46.998,0,0,0,
,-0.439,-0.943,0.124,-3.479,34.912,-44.8,0,0,0,
,-0.429,-0.932,0.129,-2.503,41.992,-44.007,0,0,0,
,-0.428,-0.929,0.115,-5.921,47.546,-43.091,0,0,0,
,-0.429,-0.919,0.11,-9.583,55.603,-43.457,0,0,0,
,-0.427,-0.928,0.107,-13.672,56.884,-42.664,0,0,0,
,-0.422,-0.926,0.1,-1.831,51.818,-49.317,0,0,0,
,-0.421,-0.934,0.117,-5.982,45.593,-52.185,0,0,0,
,-0.436,-0.95,0.125,-10.132,40.771,-58.716,0,0,0,
,-0.445,-0.951,0.134,-9.278,35.217,-67.505,0,0,0,
,-0.446,-0.957,0.127,-6.592,34.118,-75.623,0,0,0,
,-0.452,-0.945,0.139,-20.325,31.066,-87.708,0,0,0,
,-0.467,-0.947,0.139,-30.64,35.888,-104.371,0,0,0,
,-0.472,-0.946,0.144,-48.645,38.757,-114.319,0,0,0,
,-0.49,-0.947,0.157,-79.041,45.41,-134.461,0,0,0,
,-0.495,-0.966,0.181,-73.731,60.363,-147.95,0,0,0,
,-0.506,-1.008,0.213,-103.699,57.067,-173.768,0,0,0,
,-0.519,-1.037,0.194,-173.157,67.81,-195.74,0,0,0,
,-0.51,-1.003,0.203,-258.118,80.383,-226.014,0,0,0,
,-0.516,-1.01,0.22,-310.669,77.575,-250.794,0,0,0,
,-0.523,-1.022,0.235,-345.093,74.89,-279.48,0,0,0,
,-0.544,-1.016,0.23,-392.945,65.612,-308.96,0,0,0,
,-0.548,-0.985,0.254,-403.87,58.166,-346.436,0,0,0,
,-0.554,-0.983,0.267,-420.716,46.691,-372.559,0,0,0,
,-0.56,-0.984,0.27,-435.12,40.283,-400.94,0,0,0,
,-0.58,-0.972,0.31,-494.446,24.231,-443.177,0,0,0,
,-0.596,-0.917,0.348,-539.917,23.803,-471.192,0,0,0,
,-0.582,-0.886,0.366,-588.99,32.714,-489.075,0,0,0,
,-0.576,-0.854,0.394,-629.517,31.738,-501.77,0,0,0,
,-0.579,-0.822,0.395,-696.167,26.062,-497.864,0,0,0,
,-0.584,-0.823,0.399,-779.847,17.211,-489.808,0,0,0,
,-0.576,-0.797,0.418,-817.627,12.085,-452.271,0,0,0,
,-0.598,-0.751,0.512,-899.17,29.174,-392.151,0,0,0,
,-0.598,-0.618,0.613,-940.796,67.871,-333.13,0,0,0,
,-0.632,-0.509,0.69,-971.131,92.59,-263.672,0,0,0,
,-0.665,-0.381,0.711,-1042.359,133.056,-198.792,0,0,0,
,-0.661,-0.266,0.758,-1082.764,236.267,-119.202,0,0,0,
,-0.651,-0.183,0.665,-1149.17,278.32,-8.179,0,0,0,
,-0.706,-0.271,0.64,-1273.377,324.829,85.266,0,0,0,
,-0.791,-0.377,0.754,-1584.351,547.058,218.689,0,0,0,
,-0.773,-0.371,0.897,-2000,781.005,315.979,0,0,0,
,-0.688,-0.257,0.785,-2000,951.294,326.538,0,0,0,
,-0.67,-0.174,0.666,-2000,1105.346,386.352,0,0,0,
,-0.702,-0.235,0.422,-2000,1288.757,450.805,0,0,0,
,-0.709,0.058,0.198,-2000,1548.401,384.582,0,0,0,
,-0.662,0.373,0.05,-2000,1788.696,284.179,0,0,0,
,-0.587,0.54,0.011,-2000,1967.834,331.909,0,0,0,
,-0.501,0.62,-0.209,-2000,1988.525,197.387,0,0,0,
,-0.322,1.14,-0.036,-2000,1999.694,-111.756,0,0,0,
,0.077,1.283,-0.077,-2000,1999.694,1.953,0,0,0,
,0.2,1.157,-0.16,-1982.056,1972.656,-337.464,0,0,0,
,0.461,1.098,0.596,-2000,1999.694,-230.713,0,0,0,
,0.908,1.009,0.977,-2000,1999.694,-288.697,0,0,0,
,0.916,0.67,0.793,-2000,1999.694,-415.406,0,0,0,
,1.117,1.223,0.562,-1973.267,1999.694,-303.772,0,0,0,
,1.166,1.569,0.514,-1266.053,1869.018,-189.209,0,0,0,
,1.008,1.549,0.959,408.203,1454.651,16.296,0,0,0,
,0.895,1.28,1.003,1999.694,1081.909,462.707,0,0,0,
,0.94,1.183,0.677,1999.694,660.339,914.123,0,0,0,
,0.884,1.143,0.268,1999.694,158.691,1012.024,0,0,0,
,0.592,0.441,-0.336,1999.694,12.939,935.485,0,0,0,
,0.123,-1.689,0.016,1950.866,-115.479,645.691,0,0,0,
,0.424,-1.547,0.683,-1755.616,288.269,869.323,0,0,0,
,0.089,0.162,0.643,-2000,786.438,517.334,0,0,0,
,0.137,1.216,0.274,-2000,1073.73,186.767,0,0,0,
,0.713,1.618,0.581,-2000,564.27,-161.438,0,0,0,
,0.345,1.9,0.538,-435.303,139.404,-263.062,0,0,0,
,0.598,1.402,0.622,1999.694,-284.363,39.306,0,0,0,
,0.328,0.461,0.482,1999.694,-260.437,147.216,0,0,0,
,0.141,-0.21,0.374,1999.694,-87.708,338.012,0,0,0,
,0.171,-0.676,0.446,-676.697,136.657,264.77,0,0,0,
,0.115,0.648,0.297,-2000,358.825,164.489,0,0,0,
,0.178,1.382,0.209,-2000,198.242,-160.828,0,0,0,
,0.195,1.737,0.665,-1083.497,1.342,-154.664,0,0,0,
,0.401,1.861,0.707,1909.851,-323.487,139.16,0,0,0,
,0.28,1.499,0.335,1999.694,-478.577,316.894,0,0,0,
,0.205,0.272,0.306,1999.694,-458.558,352.05,0,0,0,
,-0.138,-0.693,0.533,1999.694,-157.471,594.299,0,0,0,
,0.116,-1.249,0.478,-1363.16,343.444,398.559,0,0,0,
,0.101,0.045,0.229,-2000,805.053,90.637,0,0,0,
,0.252,0.83,-0.172,-2000,953.735,-122.803,0,0,0,
,0.689,1.712,-0.103,-2000,75.195,-572.266,0,0,0,
,0.379,2.852,0.603,-1218.384,-354.493,-434.571,0,0,0,
,0.384,2.184,0.667,1999.694,-626.893,-23.56,0,0,0,
,0.172,0.96,0.096,1999.694,-562.989,242.37,0,0,0,
,0.18,0.384,0.532,1999.694,-548.523,625.244,0,0,0,
,-0.186,-0.616,0.016,1999.694,0.976,578.186,0,0,0,
,0.239,-0.783,0.499,-1573.365,369.14,212.036,0,0,0,
,0.123,0.47,0.041,-2000,706.054,184.143,0,0,0,
,0.23,0.897,-0.266,-2000,230.713,-309.876,0,0,0,
,0.567,2.245,0.888,-1965.516,-517.64,-343.628,0,0,0,
,0.21,2.702,0.469,1999.694,-766.358,-38.269,0,0,0,
,0.265,1.365,0.331,1999.694,-986.39,454.834,0,0,0,
,0.101,0.204,0.091,1999.694,-1103.15,687.744,0,0,0,
,0.001,-0.277,0.141,1999.694,-1215.394,919.86,0,0,0,
,-0.317,-2.094,1.182,1999.694,-363.648,923.462,0,0,0,
,-0.151,-1.337,1.179,-1808.35,226.684,285.522,0,0,0,
,-0.217,0.212,0.515,-2000,1029.968,-28.992,0,0,0,
,0.151,0.582,-0.016,-2000,981.384,-677.369,0,0,0,
,0.947,1.122,0.645,-2000,-47.242,-1085.206,0,0,0,
,-0.098,0.362,0.503,1999.694,-1071.045,619.995,0,0,0,
,-0.111,-0.517,0.599,1999.694,-1120.728,881.042,0,0,0,
,-0.23,-1.328,1.213,1999.694,-399.537,809.448,0,0,0,
,-0.127,-0.605,1.055,-1672.913,211.242,205.078,0,0,0,
,-0.26,0.299,0.722,-2000,908.203,-78.064,0,0,0,
,0.142,0.298,0.509,-2000,940.002,-650.94,0,0,0,
,0.744,0.423,0.42,-2000,189.514,-1025.147,0,0,0,
,0.215,1.723,0.675,-1050.782,-315.918,-472.107,0,0,0,
,0.234,1.793,0.761,1999.694,-770.264,254.394,0,0,0,
,-0.117,0.393,0.661,1999.694,-886.597,587.341,0,0,0,
,-0.102,-0.623,1.069,1999.694,-895.447,925.109,0,0,0,
,-0.141,-1.127,0.962,1201.965,-309.937,645.568,0,0,0,
,-0.151,-0.146,1.016,-1991.15,331.726,170.471,0,0,0,
,-0.172,0.341,0.913,-2000,785.827,-341.248,0,0,0,
,0.282,0.486,0.799,-2000,637.146,-910.767,0,0,0,
,0.432,0.995,0.815,-2000,162.719,-907.471,0,0,0,
,0.378,1.385,0.718,859.436,-451.233,-399.964,0,0,0,
,0.156,1.114,0.695,1999.694,-922.852,195.678,0,0,0,
,-0.035,0.287,0.353,1999.694,-1258.851,368.164,0,0,0,
,-0.34,-0.58,0.658,1999.694,-1392.395,448.608,0,0,0,
,-0.316,-1.024,1.218,1999.694,-993.531,441.955,0,0,0,
,-0.393,-0.875,1.346,100.83,-234.986,54.382,0,0,0,
,-0.335,-0.183,0.967,-2000,526.062,-193.116,0,0,0,
,-0.112,-0.167,0.908,-2000,1047.424,-612.671,0,0,0,
,0.147,-0.306,0.431,-2000,993.53,-1093.14,0,0,0,
,0.336,0.737,0.397,-2000,512.695,-1212.769,0,0,0,
,0.231,1.77,0.346,-1128.785,-133.301,-647.4,0,0,0,
,0.129,1.568,0.416,1999.694,-705.933,114.318,0,0,0,
,-0.044,0.161,0.314,1999.694,-1162.659,527.649,0,0,0,
,-0.231,-0.546,1.038,1999.694,-1351.319,772.155,0,0,0,
,-0.3,-0.486,1.28,1349.243,-934.51,557.8,0,0,0,
,-0.386,0.334,1.407,-1503.846,-215.76,155.273,0,0,0,
,-0.099,0.368,0.949,-2000,854.614,-1048.523,0,0,0,
,0.153,0.644,0.56,-2000,670.288,-1276.307,0,0,0,
,0.238,1.072,0.218,-2000,137.207,-948.365,0,0,0,
,0.101,1.343,0.171,852.234,-418.702,-210.022,0,0,0,
,0,0.647,0.49,1999.694,-826.539,503.051,0,0,0,
,-0.233,0.399,0.733,1999.694,-1127.381,1086.181,0,0,0,
,-0.29,0.187,1.241,1999.694,-1193.726,1295.837,0,0,0,
,-0.328,0.13,1.162,1999.694,-705.994,1008.789,0,0,0,
,-0.388,-0.052,1.134,647.888,26.123,415.1,0,0,0,
,-0.481,-0.174,1.099,-2000,880.188,-134.827,0,0,0,
,-0.243,-0.094,0.836,-2000,1600.097,-580.567,0,0,0,
,0.038,0.317,0.864,-2000,1849.975,-763.001,0,0,0,
,0.451,0.431,0.667,-2000,1508.484,-949.28,0,0,0,
,0.376,0.456,0.588,-2000,1094.848,-1052.552,0,0,0,
,0.246,0.363,-0.143,-281.495,570.678,-690.735,0,0,0,
,0.223,0.962,-0.213,1098.755,197.082,-346.192,0,0,0,
,0.301,1.339,0.246,1999.694,-102.662,-199.341,0,0,0,
,0.285,1.238,0.255,1999.694,-191.468,-454.407,0,0,0,
,0.233,0.647,0.418,1999.694,-233.033,-759.278,0,0,0,
,0.162,0.159,0.605,1999.694,-178.284,-936.158,0,0,0,
,0.205,-0.081,0.587,1999.694,-90.088,-1031.739,0,0,0,
,0.291,-0.248,0.648,1999.694,-40.467,-1037.354,0,0,0,
,0.196,-0.323,0.808,1999.694,-33.204,-984.314,0,0,0,
,0.134,-0.331,0.748,1999.694,87.28,-814.27,0,0,0,
,0.134,-0.338,0.696,1879.882,205.932,-848.45,0,0,0,
,0.185,-0.384,0.614,1953.979,264.77,-807.251,0,0,0,
,0.131,-0.864,0.429,1903.686,40.405,-784.607,0,0,0,
,0.112,-0.983,0.335,1748.23,99.67,-768.616,0,0,0,
,0.108,-1.051,0.331,1556.274,77.697,-793.58,0,0,0,
,0.127,-1.139,0.469,1351.013,87.524,-752.32,0,0,0,
,0.17,-1.248,0.514,1238.769,178.955,-733.277,0,0,0,
,0.191,-1.231,0.428,930.297,234.985,-751.709,0,0,0,
,0.193,-1.142,0.371,711.547,136.413,-806.397,0,0,0,
,0.113,-1.037,0.496,624.633,120.971,-767.64,0,0,0,
,0.022,-1.028,0.6,538.757,297.363,-687.317,0,0,0,
,0.001,-1.09,0.533,399.597,412.109,-645.997,0,0,0,
,-0.003,-1.071,0.505,340.088,424.194,-594.3,0,0,0,
,-0.033,-1.038,0.559,439.392,399.414,-601.197,0,0,0,
,-0.087,-1.032,0.542,485.962,391.418,-620.667,0,0,0,
,-0.165,-1.166,0.461,325.683,364.746,-661.011,0,0,0,
,-0.184,-1.154,0.421,340.149,345.092,-698.914,0,0,0,
,-0.207,-1.171,0.321,316.955,246.765,-778.077,0,0,0,
,-0.256,-1.163,0.309,442.81,179.077,-790.65,0,0,0,
,-0.297,-1.202,0.394,401.977,166.381,-743.592,0,0,0,
,-0.322,-1.154,0.435,289.611,139.16,-772.156,0,0,0,
,-0.336,-1.081,0.395,345.459,113.586,-821.778,0,0,0,
,-0.352,-1.017,0.309,473.877,46.936,-879.09,0,0,0,
,-0.403,-1.101,0.305,623.657,25.451,-924.683,0,0,0,
,-0.422,-1.172,0.292,616.882,24.536,-920.289,0,0,0,
,-0.456,-1.234,0.311,327.514,25.634,-903.321,0,0,0,
,-0.532,-1.116,0.273,-7.203,-10.682,-888.733,0,0,0,
,-0.585,-0.948,0.353,-176.88,46.386,-900.879,0,0,0,
,-0.562,-0.895,0.405,-56.458,104.858,-874.329,0,0,0,
,-0.58,-0.924,0.374,-3.357,106.811,-919.861,0,0,0,
,-0.6,-0.928,0.443,-45.533,143.371,-941.163,0,0,0,
,-0.622,-0.846,0.401,-217.469,151.733,-903.931,0,0,0,
,-0.656,-0.712,0.404,-291.443,165.832,-873.536,0,0,0,
,-0.641,-0.609,0.381,-191.529,176.147,-861.939,0,0,0,
,-0.656,-0.634,0.345,-71.167,175.048,-886.536,0,0,0,
,-0.677,-0.731,0.37,58.593,181.701,-843.873,0,0,0,
,-0.687,-0.714,0.387,-47.303,185.547,-826.539,0,0,0,
,-0.716,-0.669,0.378,-131.653,186.035,-802.735,0,0,0,
,-0.743,-0.587,0.361,-192.322,192.138,-770.02,0,0,0,
,-0.77,-0.597,0.324,-204.59,181.091,-735.291,0,0,0,
,-0.757,-0.597,0.326,-301.392,172.424,-716.248,0,0,0,
,-0.75,-0.534,0.377,-401.185,168.09,-662.049,0,0,0,
,-0.766,-0.482,0.375,-456.055,155.578,-648.377,0,0,0,
,-0.829,-0.474,0.407,-494.507,135.437,-600.159,0,0,0,
,-0.855,-0.458,0.413,-485.84,136.779,-560.975,0,0,0,
,-0.843,-0.408,0.418,-469.849,118.164,-536.927,0,0,0,
,-0.854,-0.393,0.413,-455.384,102.966,-485.596,0,0,0,
,-0.867,-0.391,0.416,-408.997,98.266,-448.487,0,0,0,
,-0.869,-0.338,0.439,-399.659,97.351,-427.918,0,0,0,
,-0.866,-0.304,0.42,-310.547,95.52,-402.283,0,0,0,
,-0.887,-0.265,0.47,-219.422,101.379,-385.437,0,0,0,
,-0.878,-0.275,0.515,-182.923,123.169,-343.201,0,0,0,
,-0.875,-0.311,0.504,-197.998,134.826,-342.652,0,0,0,
,-0.895,-0.355,0.499,-185.852,148.01,-333.985,0,0,0,
,-0.881,-0.354,0.501,-197.327,170.837,-319.336,0,0,0,
,-0.883,-0.316,0.444,-242.798,176.941,-310.669,0,0,0,
,-0.895,-0.247,0.424,-259.766,181.213,-320.435,0,0,0,
,-0.906,-0.238,0.419,-266.297,180.297,-287.415,0,0,0,
,-0.883,-0.228,0.46,-307.312,178.527,-294.19,0,0,0,
,-0.89,-0.225,0.476,-321.656,161.316,-299.927,0,0,0,
,-0.891,-0.245,0.488,-319.214,158.325,-299.683,0,0,0,
,-0.881,-0.279,0.475,-318.909,138.488,-294.495,0,0,0,
,-0.885,-0.298,0.463,-355.103,126.098,-272.461,0,0,0,
,-0.866,-0.221,0.473,-393.25,122.558,-290.101,0,0,0,
,-0.83,-0.12,0.422,-358.277,108.947,-274.964,0,0,0,
,-0.789,-0.08,0.41,-249.268,105.468,-256.348,0,0,0,
,-0.73,-0.081,0.432,-148.621,85.51,-216.553,0,0,0,
,-0.694,-0.132,0.444,-104.371,83.801,-182.984,0,0,0,
,-0.65,-0.126,0.428,-80.018,80.322,-140.748,0,0,0,
,-0.619,-0.12,0.406,-48.462,77.636,-78.431,0,0,0,
,-0.598,-0.118,0.379,-33.997,71.594,-9.217,0,0,0,
,-0.594,-0.102,0.389,69.213,55.236,48.645,0,0,0,
,-0.586,-0.042,0.358,116.333,47.485,103.759,0,0,0,
,-0.555,-0.024,0.343,217.102,33.813,176.635,0,0,0,
,-0.513,-0.017,0.342,365.051,-13.245,272.338,0,0,0,
,-0.501,-0.018,0.342,482.299,-49.317,349.853,0,0,0,
,-0.513,-0.05,0.291,602.478,-71.595,435.18,0,0,0,
,-0.505,-0.062,0.207,708.13,-99.183,539.55,0,0,0,
,-0.519,-0.125,0.277,849.609,-130.86,628.601,0,0,0,
,-0.581,-0.178,0.239,929.016,-166.687,737.487,0,0,0,
,-0.584,-0.219,0.252,988.891,-183.167,807.373,0,0,0,
,-0.594,-0.219,0.195,973.877,-221.802,856.445,0,0,0,
,-0.578,-0.229,0.182,978.332,-218.323,959.411,0,0,0,
,-0.612,-0.312,0.158,1015.319,-193.543,1036.438,0,0,0,
,-0.577,-0.442,0.178,966.735,-173.584,1104.492,0,0,0,
,-0.551,-0.543,0.088,1020.263,-178.956,1127.868,0,0,0,
,-0.529,-0.636,0.158,971.801,-195.862,1182.678,0,0,0,
,-0.547,-0.598,0.031,1007.995,-212.586,1178.772,0,0,0,
,-0.502,-0.592,0.02,1084.655,-260.254,1159.79,0,0,0,
,-0.461,-0.711,-0.037,1111.389,-247.437,1183.288,0,0,0,
,-0.446,-0.818,-0.102,1164.672,-268.128,1199.096,0,0,0,
,-0.443,-0.936,-0.137,1227.111,-331.727,1144.348,0,0,0,
,-0.446,-1.123,-0.15,1274.597,-304.139,1098.327,0,0,0,
,-0.433,-1.281,-0.192,1243.835,-312.073,1036.499,0,0,0,
,-0.415,-1.426,0.005,930.847,-284.913,1028.076,0,0,0,
,-0.404,-1.492,-0.059,420.776,-227.601,984.68,0,0,0,
,-0.338,-1.554,-0.251,196.167,-117.005,902.526,0,0,0,
,-0.292,-1.56,-0.257,-156.373,-85.877,829.895,0,0,0,
,-0.264,-1.54,-0.184,-380.31,-93.995,735.229,0,0,0,
,-0.256,-1.336,-0.057,-346.558,-5.005,684.021,0,0,0,
,-0.194,-1.375,0.168,-88.562,-37.232,584.655,0,0,0,
,-0.14,-1.226,0.114,219.604,-119.019,490.478,0,0,0,
,-0.163,-1.176,0.113,444.519,-202.21,462.524,0,0,0,
,-0.2,-1.157,0.168,426.513,-211.243,449.463,0,0,0,
,-0.235,-1.273,0.017,306.518,-144.532,433.776,0,0,0,
,-0.17,-1.307,-0.052,112.854,-54.322,422.668,0,0,0,
,-0.144,-1.159,-0.078,-105.408,-58.96,486.633,0,0,0,
,-0.145,-0.964,-0.047,-178.345,-88.196,500.732,0,0,0,
,-0.128,-0.857,0,-8.179,-20.874,509.948,0,0,0,
,-0.143,-0.959,-0.184,308.532,115.539,459.961,0,0,0,
,-0.061,-1.187,0.037,378.662,115.295,531.128,0,0,0,
,0,-1.264,-0.115,223.693,152.343,557.922,0,0,0,
,0.017,-1.13,-0.059,120.605,24.597,451.11,0,0,0,
,0.019,-1.041,-0.067,-171.998,-29.664,535.766,0,0,0,
,0.021,-1.009,-0.099,-324.891,-26.978,503.723,0,0,0,
,0.049,-0.872,-0.048,-401.429,-91.858,510.437,0,0,0,
,0.058,-0.765,-0.093,-449.28,-113.282,555.359,0,0,0,
,0.022,-0.737,-0.202,-374.024,-100.098,571.716,0,0,0,
,0.023,-0.791,-0.244,-125.123,-95.215,568.542,0,0,0,
,0.063,-0.789,-0.262,163.94,37.902,540.893,0,0,0,
,0.092,-0.725,-0.303,258.667,117.187,610.107,0,0,0,
,0.133,-0.639,-0.294,311.035,109.619,642.089,0,0,0,
,0.175,-0.689,-0.405,293.029,139.709,647.949,0,0,0,
,0.246,-0.855,-0.442,362.793,196.472,621.643,0,0,0,
,0.257,-0.789,-0.496,357.727,301.818,577.026,0,0,0,
,0.323,-0.752,-0.421,189.636,302.49,521.667,0,0,0,
,0.465,-0.791,-0.396,186.401,271.911,515.38,0,0,0,
,0.553,-0.825,-0.434,112.548,216.491,585.632,0,0,0,
,0.588,-0.804,-0.439,251.587,85.571,654.297,0,0,0,
,0.612,-0.914,-0.338,393.798,-125.245,602.417,0,0,0,
,0.61,-1.115,-0.225,563.476,-232.605,530.334,0,0,0,
,0.58,-1.22,-0.209,675.72,-85.267,503.967,0,0,0,
,0.643,-1.221,-0.124,683.41,22.827,595.153,0,0,0,
,0.693,-1.223,-0.173,495.849,129.028,605.163,0,0,0,
,0.692,-1.273,-0.241,256.775,144.531,583.191,0,0,0,
,0.669,-1.21,-0.205,22.338,199.951,632.08,0,0,0,
,0.616,-0.961,-0.288,-120.972,308.105,718.139,0,0,0,
,0.569,-0.763,-0.405,-149.659,349.548,632.873,0,0,0,
,0.604,-0.573,-0.395,94.909,296.569,512.573,0,0,0,
,0.648,-0.617,-0.447,286.071,160.766,216.003,0,0,0,
,0.685,-0.939,-0.479,599.731,-26.978,-148.377,0,0,0,
,0.68,-1.13,-0.507,583.496,-143.799,-165.101,0,0,0,
,0.603,-1.118,-0.503,310.302,-193.36,-126.648,0,0,0,
,0.54,-0.949,-0.468,-38.636,-141.053,-80.384,0,0,0,
,0.521,-0.825,-0.432,-256.409,-74.341,-33.753,0,0,0,
,0.532,-0.719,-0.442,-331.543,-1.709,13.244,0,0,0,
,0.564,-0.661,-0.444,-342.286,-1.16,34.606,0,0,0,
,0.566,-0.63,-0.445,-299.134,-28.748,38.086,0,0,0,
,0.556,-0.603,-0.427,-203.858,-22.706,46.386,0,0,0,
,0.551,-0.621,-0.407,-146.912,-12.391,86.669,0,0,0,
,0.558,-0.654,-0.404,-108.155,26.855,78.369,0,0,0,
,0.588,-0.683,-0.395,-90.943,33.02,60.852,0,0,0,
,0.618,-0.723,-0.371,-78.675,12.146,45.41,0,0,0,
,0.613,-0.75,-0.364,-66.651,-1.526,29.907,0,0,0,
,0.605,-0.738,-0.328,-22.156,-11.902,4.821,0,0,0,
,0.596,-0.726,-0.324,-9.766,-10.376,-11.231,0,0,0,
,0.598,-0.746,-0.312,-34.363,-16.48,-30.518,0,0,0,
,0.583,-0.715,-0.329,-48.584,-11.658,-7.813,0,0,0,
,0.585,-0.713,-0.322,-101.38,-28.26,-31.556,0,0,0,
,0.585,-0.703,-0.321,-79.956,-21.302,2.441,0,0,0,
,0.577,-0.713,-0.336,-66.712,-16.236,7.629,0,0,0,
,0.566,-0.682,-0.379,-67.139,-0.061,10.498,0,0,0,
,0.588,-0.69,-0.379,-75.013,-3.418,-1.282,0,0,0,
,0.599,-0.68,-0.397,-52.063,5.371,14.099,0,0,0,
,0.604,-0.679,-0.398,-31.739,-1.404,-4.517,0,0,0,
,0.621,-0.697,-0.382,12.085,-14.1,-17.151,0,0,0,
,0.608,-0.684,-0.371,76.416,-6.226,-42.847,0,0,0,
,0.619,-0.715,-0.347,119.69,-11.841,-52.552,0,0,0,
,0.621,-0.759,-0.337,104.858,-12.024,-54.749,0,0,0,
,0.627,-0.785,-0.316,32.836,-8.545,-43.03,0,0,0,
,0.624,-0.78,-0.32,-39.429,2.624,-20.325,0,0,0,
,0.612,-0.735,-0.332,-99.305,-5.005,-15.931,0,0,0,
,0.61,-0.716,-0.326,-116.761,-8.118,-12.696,0,0,0,
,0.605,-0.686,-0.327,-94.056,-18.433,-12.879,0,0,0,
,0.601,-0.671,-0.328,-56.519,-3.174,-3.479,0,0,0,
,0.592,-0.664,-0.356,-30.701,-23.438,-18.738,0,0,0,
,0.597,-0.678,-0.345,-16.053,-38.636,-29.053,0,0,0,
,0.592,-0.681,-0.344,-7.752,-34.241,-23.865,0,0,0,
,0.562,-0.684,-0.351,-12.757,-11.78,-21.424,0,0,0,
,0.605,-0.683,-0.35,-14.649,-13.794,-21.729,0,0,0,
,0.615,-0.679,-0.342,-1.038,-9.644,-18.921,0,0,0,
,0.616,-0.677,-0.344,21.667,-12.391,-20.63,0,0,0,
,0.62,-0.691,-0.337,32.226,-7.508,-23.621,0,0,0,
,0.617,-0.712,-0.347,31.25,-3.418,-24.231,0,0,0,
,0.617,-0.722,-0.354,-0.672,3.906,-20.935,0,0,0,
,0.618,-0.722,-0.35,-35.218,5.004,-12.085,0,0,0,
,0.612,-0.702,-0.358,-62.806,5.737,-10.254,0,0,0,
,0.616,-0.702,-0.34,-59.693,3.356,-15.931,0,0,0,
,0.608,-0.684,-0.338,-32.166,9.948,-16.419,0,0,0,
,0.604,-0.684,-0.342,-17.273,7.019,-19.104,0,0,0,
,0.602,-0.698,-0.339,-1.038,11.169,-16.846,0,0,0,
,0.607,-0.695,-0.339,-11.902,7.08,-11.658,0,0,0,
,0.616,-0.71,-0.328,-15.137,7.019,-13.489,0,0,0,
,0.615,-0.693,-0.334,-6.897,12.023,-7.874,0,0,0,
,0.62,-0.709,-0.329,-18.006,9.399,-18.982,0,0,0,
,0.625,-0.718,-0.341,-27.1,9.826,-17.395,0,0,0,
,0.623,-0.707,-0.341,-46.753,9.216,-18.494,0,0,0,
,0.629,-0.706,-0.327,-49.012,4.455,-19.654,0,0,0,
,0.623,-0.703,-0.332,-41.199,8.544,-22.461,0,0,0,
,0.624,-0.691,-0.334,-39.002,6.53,-23.499,0,0,0,
,0.625,-0.692,-0.327,-32.105,-3.907,-24.842,0,0,0,
,0.616,-0.693,-0.334,-26.795,2.441,-25.574,0,0,0,
,0.612,-0.686,-0.332,-27.466,6.591,-25.33,0,0,0,
,0.619,-0.687,-0.336,-23.499,12.023,-29.847,0,0,0,
,0.614,-0.687,-0.346,-18.86,10.192,-32.166,0,0,0,
,0.619,-0.7,-0.338,-18.006,7.141,-36.805,0,0,0,
,0.62,-0.701,-0.333,-14.527,11.718,-33.081,0,0,0,
,0.618,-0.696,-0.325,-13.306,10.192,-35.218,0,0,0,
,0.62,-0.698,-0.327,-0.611,11.596,-40.65,0,0,0,
,0.622,-0.704,-0.327,2.319,18.127,-40.528,0,0,0,
,0.623,-0.712,-0.334,-5.494,12.756,-44.861,0,0,0,
,0.62,-0.717,-0.326,-15.259,11.169,-42.176,0,0,0,
,0.622,-0.707,-0.321,-17.029,15.502,-35.462,0,0,0,
,0.621,-0.698,-0.325,-23.56,18.005,-32.349,0,0,0,
,0.624,-0.698,-0.325,-33.631,12.39,-32.471,0,0,0,
,0.627,-0.689,-0.332,-39.368,12.451,-27.161,0,0,0,
,0.624,-0.688,-0.337,-57.862,-0.489,-35.828,0,0,0,
,0.62,-0.691,-0.324,-32.105,5.737,-37.171,0,0,0,
,0.617,-0.679,-0.325,-5.555,3.356,-27.344,0,0,0,
,0.616,-0.689,-0.336,0.183,5.493,-15.992,0,0,0,
,0.619,-0.712,-0.331,-10.315,2.99,-29.541,0,0,0,
,0.593,-0.709,-0.343,-26.246,5.249,-21.729,0,0,0,
,0.626,-0.707,-0.348,-51.392,2.441,-33.081,0,0,0,
,0.632,-0.709,-0.335,-31.25,0.488,-38.514,0,0,0,
,0.63,-0.709,-0.34,-1.77,0.061,-29.419,0,0,0,
,0.627,-0.714,-0.334,12.512,-13.001,-21.241,0,0,0,
,0.62,-0.713,-0.332,-5.555,-26.917,-32.227,0,0,0,
,0.62,-0.725,-0.314,-18.433,-39.673,-39.307,0,0,0,
,0.613,-0.713,-0.317,-18.799,-44.983,-47.303,0,0,0,
,0.613,-0.725,-0.296,11.901,-62.195,-83.374,0,0,0,
,0.612,-0.702,-0.31,96.374,-27.344,-65.918,0,0,0,
,0.621,-0.735,-0.334,53.527,-20.264,-46.326,0,0,0,
,0.615,-0.709,-0.324,0.061,-40.284,-41.26,0,0,0,
,0.604,-0.67,-0.316,-11.353,-21.119,-30.579,0,0,0,
,0.608,-0.687,-0.305,-37.842,-23.499,-43.641,0,0,0,
,0.619,-0.702,-0.286,-23.865,-8.912,-36.927,0,0,0,
,0.624,-0.697,-0.292,-39.002,1.77,-10.743,0,0,0,
,0.617,-0.677,-0.303,-45.655,6.347,-9.278,0,0,0,
,0.619,-0.685,-0.311,-30.335,8.606,-24.231,0,0,0,
,0.62,-0.674,-0.331,-23.804,9.033,-22.706,0,0,0,
,0.631,-0.686,-0.327,-26.795,-5.005,-28.138,0,0,0,
,0.628,-0.704,-0.34,-22.217,1.159,-28.016,0,0,0,
,0.63,-0.722,-0.33,-22.339,1.281,-21.058,0,0,0,
,0.626,-0.734,-0.324,-27.71,-0.55,-28.931,0,0,0,
,0.624,-0.719,-0.319,-34.119,7.995,-21.851,0,0,0,
,0.614,-0.702,-0.329,-44.617,14.099,-30.213,0,0,0,
,0.622,-0.699,-0.323,-35.645,17.761,-24.109,0,0,0,
,0.62,-0.704,-0.318,-40.284,10.192,-26.307,0,0,0,
,0.621,-0.717,-0.302,-40.711,10.742,-21.973,0,0,0,
,0.61,-0.718,-0.304,-68.238,9.521,-24.781,0,0,0,
,0.609,-0.711,-0.303,-67.688,18.859,-21.668,0,0,0,
,0.609,-0.687,-0.302,-67.383,20.324,-20.935,0,0,0,
,0.615,-0.677,-0.307,-38.086,24.78,-24.048,0,0,0,
,0.624,-0.693,-0.308,-28.87,23.498,-28.382,0,0,0,
,0.629,-0.699,-0.31,-22.4,19.836,-23.133,0,0,0,
,0.631,-0.703,-0.283,-27.283,16.113,-25.818,0,0,0,
,0.632,-0.702,-0.31,-20.752,13.671,-29.664,0,0,0,
,0.631,-0.696,-0.3,-7.874,9.094,-27.222,0,0,0,
,0.624,-0.708,-0.307,-13.306,10.986,-33.631,0,0,0,
,0.622,-0.729,-0.297,-49.622,5.92,-28.809,0,0,0,
,0.621,-0.723,-0.299,-68.909,22.277,-19.288,0,0,0,
,0.614,-0.69,-0.314,-79.529,34.484,-13.245,0,0,0,
,0.624,-0.68,-0.314,-57.068,34.301,-25.33,0,0,0,
,0.635,-0.703,-0.307,-11.719,22.155,-27.1,0,0,0,
,0.628,-0.72,-0.3,-3.052,5.249,-35.035,0,0,0,
,0.617,-0.719,-0.306,-26.856,6.103,-25.757,0,0,0,
,0.622,-0.713,-0.3,-54.139,15.197,-21.485,0,0,0,
,0.63,-0.703,-0.31,-44.434,24.658,-17.334,0,0,0,
,0.639,-0.693,-0.305,-44.007,14.77,-17.823,0,0,0,
,0.642,-0.711,-0.305,-33.936,3.173,-20.813,0,0,0,
,0.639,-0.716,-0.301,-31.25,-16.419,-17.945,0,0,0,
,0.628,-0.717,-0.295,-50.354,-13.794,-16.602,0,0,0,
,0.624,-0.699,-0.301,-71.473,-4.883,-9.888,0,0,0,
,0.631,-0.705,-0.296,-84.473,-15.198,-16.541,0,0,0,
,0.634,-0.699,-0.289,-62.439,-19.227,-13.123,0,0,0,
,0.626,-0.683,-0.29,-38.636,-23.377,-23.255,0,0,0,
,0.633,-0.706,-0.279,-26.001,-29.236,-29.725,0,0,0,
,0.632,-0.726,-0.285,-16.236,-23.011,-28.199,0,0,0,
,0.628,-0.724,-0.283,-21.18,-20.997,-22.095,0,0,0,
,0.622,-0.711,-0.312,-27.771,-11.231,-24.414,0,0,0,
,0.637,-0.721,-0.28,-32.898,-20.752,-16.846,0,0,0,
,0.623,-0.714,-0.273,-42.786,-16.968,-34.546,0,0,0,
,0.618,-0.691,-0.281,-31.189,5.065,-19.41,0,0,0,
,0.634,-0.715,-0.283,-41.871,7.141,-23.255,0,0,0,
,0.648,-0.714,-0.275,-53.04,-10.865,-23.072,0,0,0,
,0.627,-0.718,-0.294,-67.383,-9.156,-34.241,0,0,0,
,0.629,-0.676,-0.294,-87.525,-6.47,-9.644,0,0,0,
,0.643,-0.668,-0.273,-62.317,22.522,1.098,0,0,0,
,0.648,-0.691,-0.266,-32.349,-8.973,-38.514,0,0,0,
,0.645,-0.712,-0.262,21.484,-4.273,-25.269,0,0,0,
,0.631,-0.71,-0.267,2.685,6.469,-26.429,0,0,0,
,0.625,-0.698,-0.281,-6.836,13.794,-16.785,0,0,0,
,0.638,-0.71,-0.286,-19.349,10.559,-21.241,0,0,0,
,0.649,-0.723,-0.272,-15.381,-8.545,-21.241,0,0,0,
,0.633,-0.719,-0.273,-12.024,-4.944,-27.344,0,0,0,
,0.629,-0.716,-0.273,-19.837,6.958,-20.447,0,0,0,
,0.631,-0.707,-0.266,-26.551,13.427,-16.602,0,0,0,
,0.647,-0.723,-0.257,-46.204,7.934,-22.889,0,0,0,
,0.641,-0.727,-0.26,-54.261,4.882,-24.781,0,0,0,
,0.629,-0.708,-0.271,-83.497,15.747,-14.649,0,0,0,
,0.646,-0.733,-0.254,-117.493,-2.625,-14.466,0,0,0,
,0.632,-0.688,-0.262,-141.968,2.868,-1.831,0,0,0,
,0.632,-0.672,-0.257,-129.578,26.062,-0.611,0,0,0,
,0.634,-0.656,-0.263,-19.104,35.095,-24.231,0,0,0,
,0.655,-0.688,-0.262,-7.142,15.075,-32.837,0,0,0,
,0.647,-0.707,-0.259,0.122,-13.245,-47.364,0,0,0,
,0.645,-0.728,-0.23,-5.982,-23.255,-40.467,0,0,0,
,0.627,-0.71,-0.231,-49.561,6.469,-25.879,0,0,0,
,0.635,-0.715,-0.228,-52.979,33.386,-16.846,0,0,0,
,0.64,-0.689,-0.251,-45.166,47.973,-10.743,0,0,0,
,0.647,-0.686,-0.263,-32.349,37.902,-19.288,0,0,0,
,0.643,-0.688,-0.268,-14.039,27.832,-22.95,0,0,0,
,0.637,-0.708,-0.267,-1.221,23.132,-29.114,0,0,0,
,0.634,-0.707,-0.264,8.911,28.625,-24.476,0,0,0,
,0.635,-0.697,-0.259,10.07,31.127,-20.997,0,0,0,
,0.633,-0.692,-0.27,27.16,40.893,-30.64,0,0,0,
,0.644,-0.674,-0.256,115.051,46.875,-36.866,0,0,0,
,0.661,-0.671,-0.225,212.219,48.034,-33.387,0,0,0,
,0.635,-0.717,-0.255,235.534,51.879,-27.649,0,0,0,
,0.623,-0.749,-0.254,222.168,77.087,-3.724,0,0,0,
,0.616,-0.734,-0.286,188.171,106.079,29.296,0,0,0,
,0.64,-0.744,-0.303,147.338,109.314,30.273,0,0,0,
,0.64,-0.765,-0.345,49.377,75.622,25.146,0,0,0,
,0.631,-0.78,-0.347,-69.458,39.55,20.019,0,0,0,
,0.608,-0.767,-0.336,-173.706,34.484,11.962,0,0,0,
,0.613,-0.738,-0.29,-228.333,39.672,1.464,0,0,0,
,0.628,-0.695,-0.28,-179.871,63.659,4.821,0,0,0,
,0.626,-0.696,-0.308,-125.061,64.819,-2.137,0,0,0,
,0.639,-0.746,-0.319,-12.513,70.983,-6.531,0,0,0,
,0.639,-0.79,-0.36,80.261,93.811,-2.503,0,0,0,
,0.653,-0.872,-0.276,120.056,52.063,-1.038,0,0,0,
,0.582,-1.056,-0.167,65.918,18.554,22.216,0,0,0,
,0.481,-1.281,0.004,-43.335,32.714,78.674,0,0,0,
,0.436,-1.525,0.153,-214.844,169.799,152.649,0,0,0,
,0.456,-1.839,0.072,-446.167,302.734,267.273,0,0,0,
,0.463,-1.925,-0.052,-617.554,257.507,266.357,0,0,0,
,0.462,-2.013,-0.221,-856.263,218.994,272.277,0,0,0,
,0.373,-2.279,-0.492,-1262.085,188.537,404.968,0,0,0,
,0.35,-3.06,-0.551,-1940.491,323.12,588.134,0,0,0,
,0.39,-3.512,-0.912,-2000,810.791,895.141,0,0,0,
,0.67,-3.198,-0.899,-2000,1107.849,1058.105,0,0,0,
,1.16,-2.451,-1.029,-2000,1516.296,1003.051,0,0,0,
,1.613,-1.986,-0.96,-2000,1554.138,1247.68,0,0,0,
,2.246,-1.269,-0.897,-2000,912.17,1002.319,0,0,0,
,2.823,-0.649,-0.708,-2000,-190.918,340.515,0,0,0,
,2.908,-0.433,-0.544,-2000,-1544.312,-480.347,0,0,0,
,2.477,-0.473,-0.334,-2000,-2000,-1121.094,0,0,0,
,2.386,-0.51,-0.017,-1770.691,-2000,-1347.291,0,0,0,
,2.546,-0.308,0.053,-1552.247,-2000,-1370.301,0,0,0,
,2.507,0.338,-0.014,-1260.132,-2000,-1098.816,0,0,0,
,2.26,1.496,0.068,-755.066,-2000,-834.046,0,0,0,
,2.009,1.837,0.87,-495.606,-2000,-593.201,0,0,0,
,2.089,1.035,1.187,-88.807,-2000,-240.479,0,0,0,
,2.825,-0.039,1.123,-157.654,-2000,677.063,0,0,0,
,3.037,-0.101,0.165,-309.51,-2000,1730.713,0,0,0,
,3.141,0.359,-0.627,-564.576,-2000,1999.694,0,0,0,
,2.71,0.601,-0.817,-403.626,-2000,1999.694,0,0,0,
,2.229,0.403,-0.781,11.596,-2000,1835.022,0,0,0,
,1.999,0.313,-0.747,322.509,-2000,1702.942,0,0,0,
,1.771,0.308,-0.858,308.532,-2000,1371.399,0,0,0,
,1.604,0.241,-0.963,425.293,-2000,1158.935,0,0,0,
,1.426,0.139,-1.284,577.88,-2000,1042.785,0,0,0,
,1.113,0.172,-1.66,707.275,-2000,941.65,0,0,0,
,0.92,0.272,-1.397,696.96,-2000,1039.367,0,0,0,
,0.9,0.255,-1.279,710.144,-1880.25,1406.738,0,0,0,
,0.981,0.56,-1.917,595.398,-1371.705,1596.679,0,0,0,
,0.659,0.413,-3.392,866.333,-1531.861,1522.766,0,0,0,
,0.433,-0.672,-2.511,1238.83,-1953.431,1487.304,0,0,0,
,0.08,-0.9,-2.41,695.251,-1571.9,1890.38,0,0,0,
,0.017,-0.971,-1.922,-579.224,-833.558,1999.694,0,0,0,
,-0.076,-0.735,-2.185,-1720.093,-14.588,1999.694,0,0,0,
,-0.056,-0.294,-2.195,-2000,767.089,1999.694,0,0,0,
,0.191,-0.161,-1.636,-2000,1926.757,1999.694,0,0,0,
,0.834,-0.23,-1.696,-1639.222,1999.694,1999.694,0,0,0,
,2.14,-0.2,-1.54,-496.216,1999.694,1999.694,0,0,0,
,1.965,-0.321,-1.227,653.564,1949.951,1999.694,0,0,0,
,1.809,-0.938,-1.336,1519.836,1999.694,1860.717,0,0,0,
,2.617,-1.459,-1.601,1780.883,1999.694,1993.286,0,0,0,
,2.992,-2.001,-0.92,1896.789,1938.415,1856.689,0,0,0,
,2.662,-2.418,-0.81,1792.236,1850.28,1888.183,0,0,0,
,2.552,-2.505,-1.36,1388.733,1875.549,1999.694,0,0,0,
,3.194,-3.38,-0.866,1157.837,1668.09,1999.694,0,0,0,
,2.606,-3.533,-0.458,900.146,1457.519,1910.827,0,0,0,
,1.877,-3.341,-0.162,457.397,1533.081,1649.292,0,0,0,
,2.088,-3.353,-0.451,-285.218,1663.452,1548.401,0,0,0,
,2.352,-3.605,-0.61,-1130.127,1432.129,1295.959,0,0,0,
,2.084,-3.521,-0.294,-1988.038,1402.221,829.589,0,0,0,
,3.008,-3.599,-0.287,-2000,1606.811,206.97,0,0,0,
,2.338,-2.747,-0.053,-2000,1524.047,102.417,0,0,0,
,1.56,-1.001,-0.298,-2000,1142.151,-235.291,0,0,0,
,1.971,-1.245,0.234,-2000,764.038,-429.078,0,0,0,
,2.495,-2.445,-0.701,-1613.892,23.01,-883.728,0,0,0,
,2.609,-2.743,-1.109,-1335.877,-554.81,-1264.71,0,0,0,
,2.863,-2.302,-1.499,-1382.203,-1189.881,-1782.227,0,0,0,
,3.187,-2.111,-1.307,-1410.584,-1625.489,-2000,0,0,0,
,2.725,-1.728,-0.9,-1224.976,-1255.921,-2000,0,0,0,
,2.71,-1.106,-0.642,-1013.428,-431.031,-2000,0,0,0,
,3.122,-1.173,-0.802,-414.49,85.388,-2000,0,0,0,
,3.165,-0.846,-0.814,123.291,245.361,-2000,0,0,0,
,2.972,-0.316,-0.875,520.813,400.207,-2000,0,0,0,
,2.737,-0.062,-0.618,923.339,548.217,-2000,0,0,0,
,2.342,0.065,-0.447,1232.36,772.277,-2000,0,0,0,
,2.069,0.224,-0.546,1148.132,868.103,-2000,0,0,0,
,1.751,0.142,-0.525,762.451,646.118,-2000,0,0,0,
,1.37,0.009,-0.429,108.093,485.473,-2000,0,0,0,
,1.145,0.073,-0.356,-646.79,457.336,-1850.159,0,0,0,
,1.03,0.274,-0.224,-1185.425,461.12,-1505.127,0,0,0,
,0.87,0.346,-0.04,-1444.458,476.074,-1351.197,0,0,0,
,0.638,0.542,0.051,-1403.382,538.452,-1234.742,0,0,0,
,0.431,0.696,0.095,-1165.955,523.132,-1193.665,0,0,0,
,0.23,0.79,0.276,-904.419,365.478,-1179.871,0,0,0,
,-0.051,0.931,0.486,-583.191,202.209,-1125,0,0,0,
,-0.422,1.055,0.656,-215.027,203.125,-1052.124,0,0,0,
,-0.557,1.037,0.705,45.166,319.885,-733.948,0,0,0,
,-0.482,0.945,0.622,184.143,336.181,-423.218,0,0,0,
,-0.403,0.834,0.515,219.421,154.48,-138.916,0,0,0,
,-0.42,0.819,0.481,84.228,-71.656,117.981,0,0,0,
,-0.39,0.774,0.444,25.756,-145.508,366.455,0,0,0,
,-0.329,0.722,0.411,-34.852,-188.965,563.598,0,0,0,
,-0.266,0.64,0.364,-37.598,-186.951,768.859,0,0,0,
,-0.186,0.544,0.298,-69.764,-142.334,992.92,0,0,0,
,-0.049,0.493,0.258,-127.991,-101.014,1210.144,0,0,0,
,0.099,0.434,0.198,-157.288,-51.697,1408.386,0,0,0,
,0.271,0.388,0.184,-190.552,-27.1,1622.863,0,0,0,
,0.448,0.434,0.104,-105.652,18.737,1768.432,0,0,0,
,0.693,0.247,0.135,143.676,-1.526,1843.75,0,0,0,
,0.927,0.014,-0.037,534.118,-74.341,1924.804,0,0,0,
,1.177,-0.188,-0.223,794.311,-223.45,1999.694,0,0,0,
,1.316,-0.326,-0.358,1002.258,-449.097,1999.694,0,0,0,
,1.343,-0.738,-0.451,1033.02,-587.952,1999.694,0,0,0,
,1.441,-1.045,-0.445,883.728,-643.433,1999.694,0,0,0,
,1.375,-1.028,-0.468,599.121,-581.421,1999.694,0,0,0,
,1.428,-1.062,-0.578,522.583,-449.28,1999.694,0,0,0,
,1.579,-1.179,-0.456,413.33,-410.828,1999.694,0,0,0,
,1.613,-1.178,-0.511,226.318,-256.165,1999.694,0,0,0,
,1.768,-1.237,-0.668,240.844,-204.468,1999.694,0,0,0,
,1.838,-1.499,-0.636,262.39,-340.332,1999.694,0,0,0,
,1.776,-1.681,-0.606,328.064,-312.5,1994.079,0,0,0,
,1.756,-1.585,-0.644,318.786,-272.522,1931.274,0,0,0,
,1.728,-1.587,-0.614,455.505,-282.41,1731.75,0,0,0,
,1.671,-1.836,-0.604,621.276,-285.95,1517.212,0,0,0,
,1.509,-2.03,-0.415,550.72,-229.981,1351.684,0,0,0,
,1.296,-2.014,-0.312,382.385,-75.074,1206.421,0,0,0,
,1.209,-1.925,-0.287,237.793,45.776,1045.837,0,0,0,
,1.172,-1.907,-0.227,113.403,133.728,893.737,0,0,0,
,1.14,-1.853,-0.247,-49.927,176.269,742.492,0,0,0,
,1.133,-1.751,-0.267,-171.143,181.884,532.287,0,0,0,
,1.059,-1.664,-0.213,-225.342,132.507,304.26,0,0,0,
,0.959,-1.65,-0.19,-285.889,155.456,98.144,0,0,0,
,0.957,-1.681,-0.127,-279.847,181.091,-134.4,0,0,0,
,0.949,-1.614,-0.165,-316.102,291.137,-327.149,0,0,0,
,0.973,-1.498,-0.278,-420.899,398.498,-602.356,0,0,0,
,1.052,-1.39,-0.291,-519.532,460.815,-882.996,0,0,0,
,1.072,-1.305,-0.256,-588.868,521.118,-1199.707,0,0,0,
,1.031,-1.216,-0.276,-621.949,642.028,-1447.693,0,0,0,
,0.999,-1.205,-0.315,-654.969,801.941,-1659.729,0,0,0,
,0.974,-1.218,-0.353,-702.149,919.983,-1795.044,0,0,0,
,0.937,-1.227,-0.38,-786.499,984.375,-1801.758,0,0,0,
,0.908,-1.163,-0.443,-874.268,904.907,-1750.55,0,0,0,
,0.787,-1.079,-0.5,-1072.327,736.206,-1668.946,0,0,0,
,0.662,-0.934,-0.422,-1291.321,533.935,-1640.015,0,0,0,
,0.549,-0.676,-0.242,-1464.6,396.24,-1616.822,0,0,0,
,0.449,-0.531,-0.143,-1360.535,268.676,-1539.002,0,0,0,
,0.331,-0.42,-0.127,-1274.659,160.278,-1372.193,0,0,0,
,0.234,-0.395,-0.042,-1178.956,58.349,-1266.236,0,0,0,
,0.164,-0.325,0.035,-1115.723,31.066,-1132.386,0,0,0,
,0.146,-0.262,0.092,-1216.37,-55.848,-1091.98,0,0,0,
,0.243,-0.309,0.163,-1310.059,-258.606,-1044.556,0,0,0,
,0.43,-0.461,0.239,-1376.587,-709.595,-862.244,0,0,0,
,0.44,-0.178,0.651,-1096.009,-1321.656,-573.182,0,0,0,
,0.028,-0.206,0.916,-305.787,-1066.834,-692.2,0,0,0,
,-0.044,-0.589,0.574,820.312,-816.834,-703.064,0,0,0,
,0.112,-1.119,0.048,998.352,-726.868,-691.956,0,0,0,
,0.052,-1.402,0.022,741.333,-785.401,-503.235,0,0,0,
,-0.15,-1.147,0.089,908.752,-618.226,-537.537,0,0,0,
,-0.219,-1.042,0.057,878.296,-458.13,-409.546,0,0,0,
,-0.241,-0.883,0.144,800.293,-314.881,-324.769,0,0,0,
,-0.207,-1.012,0.131,675.842,-159.546,-326.539,0,0,0,
,-0.29,-1.335,0.089,256.958,-26.062,-354.493,0,0,0,
,-0.319,-1.488,-0.033,-480.164,110.656,-141.907,0,0,0,
,-0.208,-1.539,0.033,-635.01,47.241,-578.186,0,0,0,
,-0.184,-1.422,0.285,-711.609,-426.941,-768.128,0,0,0,
,-0.427,-0.863,0.048,-560.669,-485.596,-747.498,0,0,0,
,-0.314,-0.81,0.397,-266.053,-757.264,-828.919,0,0,0,
,-0.462,-1.161,0.108,-515.015,-471.436,-922.791,0,0,0,
,-0.238,-1.304,-0.01,-849.06,-541.443,-892.456,0,0,0,
,-0.494,-0.908,0.056,-622.62,-468.201,-873.658,0,0,0,
,-0.56,-0.909,0.243,-280.64,-446.839,-811.524,0,0,0,
,-0.629,-1.036,0.109,-129.639,-410.828,-805.359,0,0,0,
,-0.645,-1.119,0.152,-67.566,-452.088,-837.342,0,0,0,
,-0.662,-0.93,0.302,-71.412,-463.623,-856.812,0,0,0,
,-0.641,-0.869,0.385,-119.385,-438.721,-912.781,0,0,0,
,-0.667,-0.809,0.439,-190.186,-392.273,-954.834,0,0,0,
,-0.683,-0.877,0.385,-493.164,-333.863,-969.788,0,0,0,
,-0.686,-0.798,0.324,-737.427,-323.365,-1030.335,0,0,0,
,-0.68,-0.721,0.319,-863.587,-256.775,-988.099,0,0,0,
,-0.698,-0.673,0.324,-907.288,-173.829,-958.924,0,0,0,
,-0.744,-0.592,0.216,-936.707,-97.229,-929.078,0,0,0,
,-0.689,-0.438,0.173,-874.268,-99.671,-956.482,0,0,0,
,-0.746,-0.385,0.159,-794.251,-83.497,-932.435,0,0,0,
,-0.759,-0.396,0.194,-670.838,-63.111,-904.419,0,0,0,
,-0.804,-0.339,0.249,-605.713,-30.396,-883.667,0,0,0,
,-0.844,-0.28,0.273,-511.597,9.46,-872.193,0,0,0,
,-0.857,-0.303,0.272,-440.369,78.735,-808.655,0,0,0,
,-0.852,-0.378,0.26,-468.323,120.361,-741.639,0,0,0,
,-0.847,-0.402,0.24,-520.63,165.71,-712.098,0,0,0,
,-0.822,-0.387,0.252,-513.123,182.739,-698.67,0,0,0,
,-0.827,-0.336,0.258,-558.655,197.204,-682.007,0,0,0,
,-0.843,-0.316,0.261,-613.038,221.984,-635.56,0,0,0,
,-0.844,-0.274,0.282,-694.031,252.563,-604.432,0,0,0,
,-0.846,-0.248,0.339,-739.258,273.071,-556.641,0,0,0,
,-0.846,-0.203,0.322,-740.113,270.996,-552.491,0,0,0,
,-0.818,-0.076,0.279,-665.101,248.535,-550.11,0,0,0,
,-0.841,-0.079,0.252,-599.549,228.942,-515.442,0,0,0,
,-0.844,-0.066,0.272,-545.166,197.082,-479.126,0,0,0,
,-0.851,-0.015,0.334,-505.494,187.805,-457.52,0,0,0,
,-0.841,0.076,0.338,-416.26,156.86,-447.937,0,0,0,
,-0.838,0.054,0.315,-300.415,133.239,-408.265,0,0,0,
,-0.85,0.017,0.307,-266.175,108.215,-371.644,0,0,0,
,-0.847,-0.091,0.257,-294.007,76.538,-321.839,0,0,0,
,-0.893,-0.051,0.353,-348.572,63.354,-327.637,0,0,0,
,-0.891,0.065,0.479,-418.519,87.341,-305.42,0,0,0,
,-0.894,0.176,0.472,-386.902,80.749,-261.353,0,0,0,
,-0.912,0.214,0.432,-284.485,92.163,-237.122,0,0,0,
,-0.915,0.183,0.459,-192.749,82.519,-217.53,0,0,0,
,-0.934,0.151,0.499,-220.276,91.186,-216.736,0,0,0,
,-0.929,0.175,0.597,-271.119,118.591,-208.497,0,0,0,
,-0.918,0.195,0.568,-300.477,134.033,-210.45,0,0,0,
,-0.902,0.172,0.511,-306.885,148.559,-210.511,0,0,0,
,-0.899,0.146,0.467,-307.862,162.536,-210.144,0,0,0,
,-0.877,0.244,0.493,-288.331,146.301,-219.788,0,0,0,
,-0.884,0.256,0.5,-279.725,149.658,-223.999,0,0,0,
,-0.904,0.259,0.508,-307.068,165.466,-248.291,0,0,0,
,-0.884,0.256,0.52,-311.646,170.654,-225.525,0,0,0,
,-0.848,0.22,0.466,-220.398,117.981,-221.192,0,0,0,
,-0.867,0.204,0.468,-46.448,90.087,-202.027,0,0,0,
,-0.868,0.17,0.473,-25.574,80.078,-196.473,0,0,0,
,-0.861,0.214,0.553,-34.79,82.092,-190.918,0,0,0,
,-0.857,0.238,0.568,-22.522,87.341,-174.805,0,0,0,
,-0.863,0.242,0.532,-4.639,79.406,-185.303,0,0,0,
,-0.835,0.196,0.48,-52.552,76.232,-175.538,0,0,0,
,-0.856,0.181,0.462,-150.452,87.829,-193.299,0,0,0,
,-0.835,0.206,0.469,-282.532,101.867,-195.191,0,0,0,
,-0.817,0.26,0.503,-330.445,97.595,-215.882,0,0,0,
,-0.823,0.272,0.501,-376.343,111.755,-222.413,0,0,0,
,-0.807,0.291,0.473,-397.156,123.413,-233.033,0,0,0,
,-0.789,0.311,0.475,-391.236,129.76,-228.577,0,0,0,
,-0.76,0.27,0.4,-382.752,118.408,-218.201,0,0,0,
,-0.757,0.233,0.405,-354.187,108.825,-223.572,0,0,0,
,-0.739,0.302,0.457,-300.599,95.703,-210.45,0,0,0,
,-0.759,0.33,0.484,-236.206,98.022,-206.421,0,0,0,
,-0.729,0.346,0.477,-139.283,85.937,-181.336,0,0,0,
,-0.731,0.347,0.441,-44.739,78.857,-166.016,0,0,0,
,-0.711,0.391,0.428,4.15,67.382,-162.476,0,0,0,
,-0.718,0.403,0.44,17.883,60.302,-149.598,0,0,0,
,-0.724,0.347,0.472,-66.285,64.941,-134.522,0,0,0,
,-0.732,0.395,0.502,-152.039,74.218,-145.386,0,0,0,
,-0.716,0.413,0.472,-195.374,74.523,-142.945,0,0,0,
,-0.718,0.448,0.441,-183.838,46.02,-142.64,0,0,0,
,-0.741,0.475,0.481,-120.911,37.963,-125.428,0,0,0,
,-0.737,0.451,0.508,-46.631,33.874,-104.371,0,0,0,
,-0.738,0.453,0.509,-9.766,33.752,-88.44,0,0,0,
,-0.736,0.455,0.504,42.968,26.306,-73.304,0,0,0,
,-0.752,0.438,0.502,43.823,37.658,-72.51,0,0,0,
,-0.725,0.466,0.49,27.526,47.79,-52.124,0,0,0,
,-0.733,0.472,0.477,-27.466,54.26,-55.542,0,0,0,
,-0.728,0.458,0.498,-79.102,63.72,-56.58,0,0,0,
,-0.753,0.469,0.531,-139.1,75.439,-67.505,0,0,0,
,-0.735,0.488,0.565,-157.288,96.069,-62.012,0,0,0,
,-0.735,0.478,0.519,-148.499,103.088,-61.768,0,0,0,
,-0.744,0.488,0.487,-163.025,95.275,-87.22,0,0,0,
,-0.734,0.499,0.479,-178.406,79.345,-71.045,0,0,0,
,-0.725,0.509,0.494,-145.752,60.974,-62.806,0,0,0,
,-0.746,0.509,0.522,-89.844,43.396,-52.002,0,0,0,
,-0.75,0.476,0.537,-59.754,75.439,-22.767,0,0,0,
,-0.733,0.508,0.507,-76.539,69.824,-24.292,0,0,0,
,-0.722,0.521,0.451,-100.281,62.316,-41.993,0,0,0,
,-0.698,0.507,0.44,-116.272,45.166,-45.472,0,0,0,
,-0.693,0.521,0.495,-47.486,27.526,-49.866,0,0,0,
,-0.672,0.466,0.501,52.49,14.343,-12.146,0,0,0,
,-0.664,0.468,0.472,85.632,0.915,6.164,0,0,0,
,-0.634,0.478,0.441,120.849,-7.325,37.78,0,0,0,
,-0.55,0.46,0.406,195.251,-43.457,111.633,0,0,0,
,-0.537,0.449,0.413,204.895,-47.547,155.7,0,0,0,
,-0.524,0.413,0.432,193.298,-45.289,162.902,0,0,0,
,-0.507,0.424,0.414,260.498,-43.519,229.37,0,0,0,
,-0.531,0.458,0.373,362.182,-46.509,272.277,0,0,0,
,-0.527,0.462,0.323,451.721,-67.688,318.542,0,0,0,
,-0.545,0.42,0.365,562.5,-90.394,363.037,0,0,0,
,-0.579,0.392,0.404,620.056,-117.92,407.348,0,0,0,
,-0.584,0.318,0.427,671.142,-131.836,467.59,0,0,0,
,-0.623,0.276,0.408,689.392,-149.292,494.69,0,0,0,
,-0.631,0.235,0.407,687.744,-164.49,537.475,0,0,0,
,-0.667,0.218,0.432,688.11,-185.303,567.138,0,0,0,
,-0.673,0.174,0.427,684.021,-211.548,607.605,0,0,0,
,-0.65,0.139,0.404,728.942,-246.705,652.771,0,0,0,
,-0.664,0.08,0.396,737.304,-283.02,672.729,0,0,0,
,-0.648,0.027,0.385,746.826,-304.322,715.088,0,0,0,
,-0.744,-0.067,0.437,695.678,-336.243,675.476,0,0,0,
,-0.761,-0.097,0.429,615.6,-336.304,673.034,0,0,0,
,-0.722,-0.143,0.421,567.688,-364.014,682.19,0,0,0,
,-0.771,-0.169,0.348,543.884,-386.902,703.491,0,0,0,
,-0.857,-0.209,0.302,548.706,-386.597,710.449,0,0,0,
,-0.914,-0.27,0.377,555.236,-360.962,736.267,0,0,0,
,-0.913,-0.308,0.501,525.94,-335.083,768.005,0,0,0,
,-0.887,-0.327,0.487,507.019,-321.839,780.517,0,0,0,
,-0.936,-0.296,0.391,572.998,-303.101,765.075,0,0,0,
,-0.944,-0.334,0.32,611.328,-289.734,766.113,0,0,0,
,-0.932,-0.381,0.307,593.75,-275.513,780.09,0,0,0,
,-0.907,-0.462,0.35,602.478,-267.273,806.335,0,0,0,
,-0.898,-0.511,0.36,577.148,-255.982,792.968,0,0,0,
,-0.929,-0.569,0.334,501.281,-253.785,736.389,0,0,0,
,-0.915,-0.646,0.301,397.4,-232.544,730.896,0,0,0,
,-0.892,-0.715,0.291,335.693,-260.621,727.6,0,0,0,
,-0.881,-0.678,0.309,300.659,-275.086,725.219,0,0,0,
,-0.806,-0.655,0.307,303.283,-269.837,739.746,0,0,0,
,-0.871,-0.724,0.342,208.618,-260.804,746.582,0,0,0,
,-0.863,-0.856,0.305,20.996,-237,736.328,0,0,0,
,-0.856,-0.839,0.198,-58.045,-227.173,705.444,0,0,0,
,-0.802,-0.757,0.315,-28.565,-229.126,688.354,0,0,0,
,-0.762,-0.751,0.21,145.568,-217.652,721.801,0,0,0,
,-0.726,-0.844,0.183,308.776,-205.018,740.051,0,0,0,
,-0.726,-0.889,0.172,335.571,-209.412,737.854,0,0,0,
,-0.685,-0.838,0.153,355.774,-209.29,734.008,0,0,0,
,-0.657,-0.905,0.193,361.328,-178.65,701.599,0,0,0,
,-0.661,-0.957,0.178,345.214,-142.762,678.588,0,0,0,
,-0.693,-1.021,0.171,345.581,-98.877,640.075,0,0,0,
,-0.643,-1.007,0.118,420.654,-66.712,654.174,0,0,0,
,-0.641,-0.952,0.087,547.058,-58.411,617.126,0,0,0,
,-0.6,-0.986,0.01,511.291,-70.374,574.829,0,0,0,
,-0.545,-1.123,0.032,444.397,-88.013,565.918,0,0,0,
,-0.565,-0.974,0.051,245.422,-148.255,491.577,0,0,0,
,-0.464,-1.004,-0.02,266.784,-116.028,411.682,0,0,0,
,-0.457,-1.099,-0.017,234.497,-82.764,376.098,0,0,0,
,-0.409,-1.098,-0.081,126.281,-26.062,248.535,0,0,0,
,-0.413,-1.089,-0.068,65.185,-4.029,214.904,0,0,0,
,-0.406,-1.041,-0.074,16.296,14.404,162.597,0,0,0,
,-0.407,-1.039,-0.056,-2.32,29.357,123.23,0,0,0,
