TIMECODE,ACC_X,ACC_Y,ACC_Z,GYR_X,GYR_Y,GYR_Z,ECG_I,ECG_II,ECG_III,TAG
,0.956,-0.247,0.103,7.385,7.202,-20.569,0,0,0,
,0.955,-0.245,0.103,4.821,6.469,-22.278,0,0,0,
,0.956,-0.245,0.101,1.77,7.263,-22.889,0,0,0,
,0.959,-0.246,0.1,-0.123,4.089,-23.377,0,0,0,
,0.956,-0.248,0.103,-5.494,4.15,-25.391,0,0,0,
,0.952,-0.244,0.102,-9.583,5.92,-20.997,0,0,0,
,0.949,-0.236,0.097,-7.935,8.422,-20.813,0,0,0,
,0.958,-0.234,0.095,-6.043,7.568,-22.156,0,0,0,
,0.955,-0.237,0.097,-3.907,7.202,-19.288,0,0,0,
,0.954,-0.238,0.103,8.3,9.46,-17.456,0,0,0,
,0.954,-0.243,0.108,8.239,6.897,-17.395,0,0,0,
,0.952,-0.245,0.104,5.249,7.873,-18.799,0,0,0,
,0.95,-0.246,0.101,2.99,7.69,-21.058,0,0,0,
,0.95,-0.247,0.1,-5.249,9.643,-20.63,0,0,0,
,0.954,-0.245,0.098,-10.376,12.695,-20.874,0,0,0,
,0.955,-0.243,0.095,-13.428,9.399,-21.607,0,0,0,
,0.956,-0.238,0.099,-12.452,10.009,-21.485,0,0,0,
,0.952,-0.236,0.093,-7.752,8.972,-22.278,0,0,0,
,0.948,-0.237,0.1,-4.212,10.498,-23.072,0,0,0,
,0.951,-0.239,0.1,-2.32,9.155,-23.316,0,0,0,
,0.951,-0.239,0.104,-3.418,12.451,-22.95,0,0,0,
,0.959,-0.239,0.099,-0.916,10.864,-21.119,0,0,0,
,0.959,-0.237,0.096,-1.343,9.765,-23.011,0,0,0,
,0.958,-0.241,0.098,-2.076,7.995,-23.133,0,0,0,
,0.956,-0.241,0.103,-3.907,10.803,-22.4,0,0,0,
,0.952,-0.241,0.109,-4.151,14.77,-22.583,0,0,0,
,0.956,-0.235,0.105,-6.043,13.366,-22.339,0,0,0,
,0.956,-0.232,0.097,-5.982,9.155,-22.706,0,0,0,
,0.952,-0.227,0.097,-2.991,6.774,-23.255,0,0,0,
,0.95,-0.228,0.095,2.075,7.934,-20.63,0,0,0,
,0.951,-0.231,0.093,8.85,10.131,-21.546,0,0,0,
,0.954,-0.237,0.095,13.549,11.596,-19.776,0,0,0,
,0.957,-0.241,0.098,12.756,10.742,-19.471,0,0,0,
,0.958,-0.24,0.098,11.352,9.582,-19.41,0,0,0,
,0.957,-0.24,0.1,9.46,6.774,-21.79,0,0,0,
,0.958,-0.244,0.103,5.249,6.652,-21.912,0,0,0,
,0.961,-0.241,0.1,-1.831,6.286,-20.386,0,0,0,
,0.956,-0.238,0.105,-8.24,8.117,-20.752,0,0,0,
,0.956,-0.234,0.103,-5.066,10.681,-19.043,0,0,0,
,0.954,-0.232,0.103,-5.433,10.498,-17.64,0,0,0,
,0.953,-0.23,0.1,-0.428,8.483,-17.945,0,0,0,
,0.951,-0.234,0.101,2.807,11.596,-16.48,0,0,0,
,0.951,-0.237,0.1,5.554,13.366,-16.175,0,0,0,
,0.953,-0.236,0.098,2.868,12.756,-15.931,0,0,0,
,0.955,-0.235,0.102,1.525,10.559,-16.236,0,0,0,
,0.954,-0.236,0.102,3.906,9.948,-17.09,0,0,0,
,0.955,-0.236,0.101,6.774,7.629,-18.372,0,0,0,
,0.954,-0.239,0.097,8.422,9.216,-20.569,0,0,0,
,0.954,-0.241,0.098,7.629,7.08,-20.569,0,0,0,
,0.959,-0.241,0.099,6.042,6.836,-19.959,0,0,0,
,0.959,-0.239,0.104,4.699,6.591,-20.142,0,0,0,
,0.953,-0.234,0.104,1.22,7.141,-18.128,0,0,0,
,0.952,-0.235,0.103,2.319,8.422,-17.762,0,0,0,
,0.952,-0.235,0.102,5.31,7.446,-18.372,0,0,0,
,0.95,-0.234,0.1,2.929,8.972,-18.921,0,0,0,
,0.95,-0.233,0.097,3.051,12.023,-17.395,0,0,0,
,0.958,-0.235,0.098,3.784,8.361,-18.555,0,0,0,
,0.957,-0.235,0.1,3.479,8.85,-17.823,0,0,0,
,0.955,-0.235,0.102,1.159,11.535,-17.151,0,0,0,
,0.95,-0.231,0.101,1.831,11.352,-18.616,0,0,0,
,0.952,-0.23,0.101,3.051,13.549,-17.884,0,0,0,
,0.96,-0.227,0.094,0.671,9.155,-18.372,0,0,0,
,0.952,-0.225,0.1,3.295,9.887,-19.532,0,0,0,
,0.951,-0.226,0.101,8.606,12.085,-17.518,0,0,0,
,0.957,-0.229,0.099,14.953,12.939,-17.518,0,0,0,
,0.957,-0.235,0.102,15.38,13.427,-17.762,0,0,0,
,0.958,-0.24,0.099,13.916,11.413,-17.762,0,0,0,
,0.959,-0.235,0.095,10.742,8.667,-17.64,0,0,0,
,0.956,-0.232,0.097,4.455,9.338,-20.997,0,0,0,
,0.961,-0.231,0.097,3.54,7.385,-20.63,0,0,0,
,0.956,-0.226,0.103,0.976,6.103,-21.912,0,0,0,
,0.953,-0.223,0.098,4.211,8.606,-19.165,0,0,0,
,0.96,-0.221,0.096,10.437,10.253,-20.264,0,0,0,
,0.96,-0.224,0.095,12.634,8.178,-19.471,0,0,0,
,0.956,-0.226,0.095,14.343,9.582,-18.067,0,0,0,
,0.957,-0.226,0.097,17.334,12.268,-15.625,0,0,0,
,0.958,-0.226,0.1,17.517,10.681,-16.785,0,0,0,
,0.956,-0.232,0.1,17.089,11.535,-18.494,0,0,0,
,0.957,-0.229,0.097,16.418,8.361,-18.311,0,0,0,
,0.954,-0.228,0.098,17.395,9.765,-18.921,0,0,0,
,0.956,-0.229,0.095,20.568,8.544,-19.654,0,0,0,
,0.958,-0.231,0.098,22.461,9.216,-19.288,0,0,0,
,0.957,-0.232,0.099,23.01,8.911,-20.02,0,0,0,
,0.958,-0.233,0.1,21.179,9.155,-20.997,0,0,0,
,0.957,-0.234,0.1,20.752,7.08,-21.485,0,0,0,
,0.953,-0.235,0.094,17.456,6.897,-22.644,0,0,0,
,0.954,-0.235,0.098,11.657,8.361,-21.851,0,0,0,
,0.953,-0.234,0.097,8.911,9.704,-22.95,0,0,0,
,0.956,-0.229,0.099,6.347,11.596,-20.508,0,0,0,
,0.961,-0.229,0.124,8.789,10.681,-20.203,0,0,0,
,0.963,-0.228,0.092,10.192,7.263,-21.668,0,0,0,
,0.959,-0.23,0.093,10.864,7.568,-23.133,0,0,0,
,0.958,-0.229,0.098,8.728,9.155,-21.18,0,0,0,
,0.952,-0.23,0.102,5.92,13.183,-22.217,0,0,0,
,0.955,-0.226,0.101,3.967,10.864,-21.912,0,0,0,
,0.957,-0.223,0.096,4.943,9.887,-24.353,0,0,0,
,0.957,-0.221,0.095,12.146,7.08,-23.377,0,0,0,
,0.954,-0.222,0.092,20.813,8.178,-21.546,0,0,0,
,0.956,-0.23,0.088,25.146,7.446,-22.217,0,0,0,
,0.957,-0.237,0.093,26.001,8.972,-22.828,0,0,0,
,0.957,-0.237,0.101,8.606,6.591,-26.978,0,0,0,
,0.961,-0.234,0.097,4.882,7.568,-25.33,0,0,0,
,0.963,-0.23,0.099,0.183,6.103,-25.147,0,0,0,
,0.957,-0.226,0.099,2.075,5.981,-25.757,0,0,0,
,0.957,-0.224,0.093,3.662,8.3,-25.269,0,0,0,
,0.955,-0.225,0.095,14.343,9.826,-22.461,0,0,0,
,0.956,-0.227,0.098,14.038,10.681,-20.142,0,0,0,
,0.957,-0.23,0.097,14.77,8.728,-20.447,0,0,0,
,0.96,-0.232,0.097,13.61,6.591,-20.874,0,0,0,
,0.955,-0.231,0.098,13.244,6.591,-22.034,0,0,0,
,0.956,-0.235,0.099,15.441,5.432,-21.668,0,0,0,
,0.954,-0.236,0.098,4.516,7.08,-24.781,0,0,0,
,0.955,-0.234,0.096,2.563,7.507,-24.659,0,0,0,
,0.956,-0.23,0.096,1.525,7.141,-24.17,0,0,0,
,0.953,-0.229,0.096,3.234,7.995,-24.537,0,0,0,
,0.958,-0.23,0.102,6.897,7.568,-23.987,0,0,0,
,0.956,-0.234,0.099,7.934,8.911,-24.476,0,0,0,
,0.954,-0.231,0.093,5.127,6.897,-23.377,0,0,0,
,0.954,-0.233,0.1,3.418,9.643,-23.499,0,0,0,
,0.957,-0.233,0.091,2.624,11.596,-21.424,0,0,0,
,0.957,-0.235,0.1,1.953,9.277,-21.912,0,0,0,
,0.952,-0.237,0.103,-1.404,9.338,-24.17,0,0,0,
,0.949,-0.231,0.097,-3.357,12.634,-22.034,0,0,0,
,0.956,-0.227,0.096,-0.733,9.399,-21.912,0,0,0,
,0.956,-0.223,0.095,1.525,7.202,-24.414,0,0,0,
,0.958,-0.234,0.096,19.043,7.507,-23.743,0,0,0,
,0.959,-0.24,0.099,14.587,5.859,-25.757,0,0,0,
,0.96,-0.239,0.096,7.995,6.347,-25.818,0,0,0,
,0.958,-0.234,0.099,2.502,5.004,-25.574,0,0,0,
,0.957,-0.231,0.099,-0.306,7.751,-27.222,0,0,0,
,0.962,-0.224,0.098,1.464,6.591,-24.231,0,0,0,
,0.959,-0.221,0.098,0.915,7.263,-26.673,0,0,0,
,0.954,-0.221,0.093,2.624,5.859,-25.025,0,0,0,
,0.957,-0.223,0.096,6.652,6.225,-20.63,0,0,0,
,0.958,-0.222,0.094,10.253,7.934,-21.058,0,0,0,
,0.959,-0.225,0.097,11.718,7.873,-22.461,0,0,0,
,0.959,-0.228,0.095,13.794,6.469,-21.363,0,0,0,
,0.956,-0.233,0.094,16.052,7.08,-20.325,0,0,0,
,0.956,-0.232,0.094,12.939,8.239,-21.485,0,0,0,
,0.956,-0.231,0.096,11.352,5.004,-22.4,0,0,0,
,0.956,-0.235,0.1,15.075,5.615,-23.133,0,0,0,
,0.954,-0.237,0.095,14.526,5.859,-23.865,0,0,0,
,0.958,-0.238,0.097,12.878,5.188,-23.255,0,0,0,
,0.958,-0.241,0.096,6.713,6.042,-23.926,0,0,0,
,0.955,-0.238,0.099,1.464,7.019,-22.156,0,0,0,
,0.955,-0.236,0.101,-4.151,7.873,-22.217,0,0,0,
,0.954,-0.235,0.098,-5.921,8.789,-22.278,0,0,0,
,0.953,-0.228,0.098,-3.479,9.765,-23.194,0,0,0,
,0.955,-0.228,0.098,-2.137,8.483,-21.485,0,0,0,
,0.957,-0.233,0.095,-6.531,10.376,-20.203,0,0,0,
,0.954,-0.235,0.094,-10.254,9.338,-21.729,0,0,0,
,0.953,-0.233,0.102,-12.085,10.437,-20.813,0,0,0,
,0.951,-0.231,0.108,-10.987,14.648,-21.973,0,0,0,
,0.96,-0.231,0.1,-11.048,14.038,-18.799,0,0,0,
,0.961,-0.231,0.09,-6.897,10.681,-20.203,0,0,0,
,0.959,-0.235,0.093,-6.043,10.253,-21.363,0,0,0,
,0.955,-0.236,0.097,-10.56,12.939,-21.241,0,0,0,
,0.95,-0.233,0.108,-13.428,15.38,-20.874,0,0,0,
,0.957,-0.228,0.097,-13.611,14.038,-20.752,0,0,0,
,0.957,-0.225,0.098,-7.752,10.192,-24.598,0,0,0,
,0.955,-0.222,0.124,-4.09,7.568,-25.574,0,0,0,
,0.953,-0.221,0.095,4.882,9.338,-23.316,0,0,0,
,0.96,-0.226,0.097,12.512,10.192,-22.767,0,0,0,
,0.959,-0.232,0.099,13.488,7.202,-21.058,0,0,0,
,0.957,-0.237,0.099,8.361,6.042,-22.583,0,0,0,
,0.958,-0.235,0.1,4.638,6.408,-23.072,0,0,0,
,0.961,-0.227,0.096,-5.86,5.92,-23.133,0,0,0,
,0.956,-0.228,0.1,-5.31,5.798,-23.682,0,0,0,
,0.953,-0.224,0.098,-3.602,10.131,-20.813,0,0,0,
,0.958,-0.223,0.099,-0.367,8.3,-18.738,0,0,0,
,0.96,-0.223,0.097,2.136,8.911,-20.569,0,0,0,
,0.953,-0.228,0.097,4.028,9.948,-18.921,0,0,0,
,0.955,-0.23,0.101,5.065,10.864,-19.104,0,0,0,
,0.955,-0.232,0.097,4.943,8.789,-18.738,0,0,0,
,0.953,-0.229,0.099,6.469,6.652,-21.973,0,0,0,
,0.955,-0.23,0.099,9.948,7.568,-21.241,0,0,0,
,0.956,-0.234,0.106,11.413,6.652,-22.644,0,0,0,
,0.955,-0.232,0.1,10.559,4.943,-21.851,0,0,0,
,0.953,-0.235,0.102,7.812,6.469,-23.804,0,0,0,
,0.955,-0.235,0.102,4.699,7.385,-23.499,0,0,0,
,0.958,-0.233,0.093,2.502,6.469,-23.682,0,0,0,
,0.956,-0.233,0.099,-3.602,6.53,-23.987,0,0,0,
,0.957,-0.231,0.1,-2.32,8.544,-21.546,0,0,0,
,0.954,-0.229,0.1,-2.747,8.422,-20.325,0,0,0,
,0.956,-0.23,0.103,-2.381,10.437,-21.302,0,0,0,
,0.955,-0.23,0.101,-2.442,10.009,-20.325,0,0,0,
,0.953,-0.23,0.099,-2.808,11.108,-21.302,0,0,0,
,0.952,-0.228,0.102,-4.212,10.803,-21.424,0,0,0,
,0.955,-0.224,0.103,-3.052,12.878,-21.424,0,0,0,
,0.964,-0.226,0.092,0.61,11.413,-20.02,0,0,0,
,0.963,-0.225,0.098,2.868,8.3,-20.386,0,0,0,
,0.955,-0.229,0.096,2.99,7.69,-21.485,0,0,0,
,0.956,-0.231,0.102,0.732,9.46,-19.227,0,0,0,
,0.954,-0.229,0.104,-1.648,11.108,-21.912,0,0,0,
,0.953,-0.227,0.104,-1.282,13.122,-20.569,0,0,0,
,0.96,-0.221,0.1,1.037,10.864,-21.668,0,0,0,
,0.957,-0.22,0.097,7.629,6.897,-23.438,0,0,0,
,0.953,-0.223,0.096,13.916,5.432,-21.546,0,0,0,
,0.956,-0.224,0.099,14.038,9.46,-21.79,0,0,0,
,0.958,-0.227,0.098,16.723,8.667,-20.325,0,0,0,
,0.957,-0.232,0.103,16.845,8.667,-21.119,0,0,0,
,0.96,-0.229,0.097,14.343,5.493,-22.522,0,0,0,
,0.959,-0.226,0.099,14.343,5.554,-22.828,0,0,0,
,0.955,-0.227,0.099,15.93,5.004,-23.56,0,0,0,
,0.96,-0.228,0.096,18.554,5.615,-22.4,0,0,0,
,0.96,-0.227,0.101,15.869,2.258,-23.072,0,0,0,
,0.949,-0.223,0.101,15.014,6.286,-23.011,0,0,0,
,0.956,-0.227,0.099,15.686,7.385,-22.034,0,0,0,
,0.962,-0.223,0.095,17.15,7.019,-19.837,0,0,0,
,0.959,-0.224,0.096,20.385,6.652,-21.912,0,0,0,
,0.955,-0.227,0.097,22.583,8.483,-20.569,0,0,0,
,0.955,-0.23,0.1,23.315,7.69,-19.959,0,0,0,
,0.955,-0.233,0.101,20.752,6.408,-22.156,0,0,0,
,0.955,-0.233,0.101,19.165,5.737,-22.644,0,0,0,
,0.954,-0.234,0.1,16.418,6.042,-22.889,0,0,0,
,0.953,-0.234,0.101,15.869,7.751,-23.987,0,0,0,
,0.953,-0.235,0.098,14.404,7.385,-23.56,0,0,0,
,0.952,-0.232,0.096,12.451,8.361,-24.17,0,0,0,
,0.951,-0.232,0.099,11.23,7.141,-25.025,0,0,0,
,0.957,-0.232,0.099,8.972,9.521,-23.438,0,0,0,
,0.955,-0.232,0.098,9.582,9.521,-23.194,0,0,0,
,0.955,-0.229,0.096,10.803,10.864,-23.072,0,0,0,
,0.959,-0.227,0.095,11.169,7.568,-23.316,0,0,0,
,0.957,-0.232,0.097,9.46,8.972,-23.438,0,0,0,
,0.955,-0.229,0.099,5.371,9.46,-22.889,0,0,0,
,0.955,-0.227,0.106,4.15,12.207,-22.767,0,0,0,
,0.962,-0.227,0.093,7.751,12.695,-22.4,0,0,0,
,0.96,-0.225,0.095,8.178,10.131,-21.363,0,0,0,
,0.96,-0.23,0.093,8.483,11.84,-19.837,0,0,0,
,0.956,-0.234,0.096,5.065,11.596,-20.752,0,0,0,
,0.952,-0.234,0.104,-2.015,14.282,-20.142,0,0,0,
,0.956,-0.228,0.102,-5.738,14.831,-20.997,0,0,0,
,0.959,-0.224,0.124,-2.991,11.413,-21.973,0,0,0,
,0.958,-0.222,0.09,2.441,9.033,-25.025,0,0,0,
,0.953,-0.225,0.093,7.69,10.62,-24.72,0,0,0,
,0.957,-0.226,0.094,11.291,10.803,-24.964,0,0,0,
,0.956,-0.231,0.095,8.728,10.498,-25.452,0,0,0,
,0.956,-0.232,0.096,4.516,10.315,-25.513,0,0,0,
,0.96,-0.228,0.093,2.746,9.887,-26.917,0,0,0,
,0.956,-0.224,0.095,0.732,6.652,-27.588,0,0,0,
,0.956,-0.221,0.095,2.441,8.361,-26.49,0,0,0,
,0.968,-0.222,0.095,1.403,7.324,-23.987,0,0,0,
,0.963,-0.218,0.102,2.38,10.62,-23.56,0,0,0,
,0.954,-0.219,0.098,8.056,20.446,-19.043,0,0,0,
,0.955,-0.225,0.089,10.62,21.179,-17.09,0,0,0,
,0.959,-0.231,0.085,7.507,17.7,-16.663,0,0,0,
,0.958,-0.227,0.093,3.723,13.61,-17.029,0,0,0,
,0.955,-0.23,0.093,4.272,12.573,-18.372,0,0,0,
,0.959,-0.233,0.097,5.31,13.794,-17.579,0,0,0,
,0.961,-0.236,0.1,1.159,10.742,-18.86,0,0,0,
,0.96,-0.267,0.121,2.624,10.742,-26.673,0,0,0,
,0.97,-0.37,0.155,-34.241,17.15,-41.321,0,0,0,
,1.035,-0.48,0.314,-174.195,2.441,-67.078,0,0,0,
,1.137,-0.661,0.455,-260.254,11.108,-61.951,0,0,0,
,1.197,-0.604,0.54,-302.613,32.653,-58.777,0,0,0,
,1.294,-0.477,0.508,-232.666,0.549,-155.335,0,0,0,
,1.514,-0.488,0.642,-139.466,-209.351,-400.147,0,0,0,
,1.773,-0.506,0.896,91.43,-470.276,-611.817,0,0,0,
,1.99,-0.741,1.026,169.128,-720.704,-880.249,0,0,0,
,2.217,-1.157,1.07,-84.717,-1011.17,-1025.94,0,0,0,
,2.433,-1.243,1.106,-465.699,-1346.497,-1119.507,0,0,0,
,2.479,-0.775,1.108,-517.945,-1761.231,-1306.153,0,0,0,
,2.502,-0.378,1.184,-126.526,-2000,-1769.104,0,0,0,
,2.296,-0.612,1.132,560.119,-2000,-2000,0,0,0,
,1.947,-0.982,1.096,811.706,-2000,-2000,0,0,0,
,1.727,-1.181,1.009,643.127,-2000,-2000,0,0,0,
,1.819,-1.28,0.774,361.816,-2000,-2000,0,0,0,
,1.964,-1.391,0.446,-26.612,-2000,-2000,0,0,0,
,2.002,-1.332,0.207,-492.432,-2000,-2000,0,0,0,
,2.05,-1.113,-0.166,-895.752,-2000,-2000,0,0,0,
,2.016,-0.887,-0.457,-1276.062,-2000,-2000,0,0,0,
,1.963,-0.762,-0.445,-1520.264,-2000,-2000,0,0,0,
,2.051,-0.438,-0.353,-1952.637,-2000,-2000,0,0,0,
,2.28,0.154,-0.531,-2000,-2000,-2000,0,0,0,
,2.048,0.516,-0.96,-2000,-2000,-2000,0,0,0,
,1.665,0.57,-1.306,-2000,-2000,-2000,0,0,0,
,0.932,0.895,-1.667,-1453.736,-2000,-2000,0,0,0,
,0.515,1.289,-1.905,-584.9,-2000,-1640.931,0,0,0,
,0.45,1.624,-1.815,-27.039,-2000,-1014.954,0,0,0,
,0.154,0.418,-1.444,-12.391,-877.747,-404.969,0,0,0,
,-0.067,-0.323,-1.248,-644.898,451.782,409.118,0,0,0,
,-0.1,-0.071,-1.065,-582.459,1515.808,1117.004,0,0,0,
,-0.077,0.005,-0.934,-73.365,1999.694,1434.57,0,0,0,
,-0.044,0.142,-0.861,388.183,1999.694,1614.074,0,0,0,
,0.037,0.226,-0.856,727.234,1999.694,1816.955,0,0,0,
,0.186,0.273,-0.716,972.412,1999.694,1999.511,0,0,0,
,0.29,0.27,-0.5,938.781,1999.694,1999.694,0,0,0,
,0.352,0.16,-0.293,647.522,1999.694,1999.694,0,0,0,
,0.479,0.1,-0.218,302.734,1999.694,1999.694,0,0,0,
,0.58,0.059,-0.285,92.102,1999.694,1999.694,0,0,0,
,0.785,-0.021,-0.41,99.853,1999.694,1999.694,0,0,0,
,0.936,0.081,-0.547,134.277,1999.694,1999.694,0,0,0,
,1.08,0.296,-0.641,100.097,1999.694,1999.694,0,0,0,
,1.26,0.308,-0.739,-33.081,1999.694,1999.694,0,0,0,
,1.587,0.128,-0.364,-224.732,1999.694,1999.694,0,0,0,
,2.082,-0.383,0.298,-251.709,1999.694,1999.694,0,0,0,
,2.586,-0.914,0.608,-334.351,1999.694,1999.694,0,0,0,
,2.78,-0.566,0.377,-629.029,1999.694,1999.694,0,0,0,
,2.953,0.403,-0.819,-1235.108,1999.694,1999.694,0,0,0,
,3.805,1.008,-0.897,-1140.381,1999.694,1999.694,0,0,0,
,3.999,0.928,-0.24,-402.832,1999.694,1999.694,0,0,0,
,3.999,2.046,0.347,1999.694,-228.76,1541.748,0,0,0,
,3.273,-0.574,0.109,1999.694,-818.97,-782.837,0,0,0,
,2.023,-2.307,0.402,1999.694,-842.53,-824.402,0,0,0,
,0.626,-2.353,0.428,1999.694,201.599,-645.325,0,0,0,
,1.143,-1.311,0.767,1516.296,763.061,-382.447,0,0,0,
,1.856,-0.447,0.69,1230.59,463.256,-341.187,0,0,0,
,1.4,-0.747,0.504,777.771,48.461,-1011.658,0,0,0,
,1.007,-0.72,0.162,99.182,27.954,-612.183,0,0,0,
,0.979,-0.374,-0.014,-297.974,52.856,-441.407,0,0,0,
,0.965,-0.345,-0.206,-352.845,1.953,-453.98,0,0,0,
,0.803,-0.348,-0.285,-408.753,-197.022,-335.633,0,0,0,
,0.595,-0.318,-0.262,-640.748,-267.884,-262.391,0,0,0,
,0.52,-0.218,-0.185,-841.797,-114.563,-133.24,0,0,0,
,0.655,-0.066,-0.087,-806.275,113.769,59.814,0,0,0,
,0.863,-0.022,0.018,-619.873,242.004,110.351,0,0,0,
,0.936,-0.084,-0.004,-390.015,281.433,91.857,0,0,0,
,0.973,-0.118,-0.039,-183.35,239.074,133.545,0,0,0,
,1.01,-0.148,-0.078,-26.551,160.095,149.231,0,0,0,
,1.008,-0.222,-0.146,39.978,77.209,113.586,0,0,0,
,0.982,-0.276,-0.153,-18.006,-4.578,99.243,0,0,0,
,0.965,-0.266,-0.112,-139.161,-39.551,86.425,0,0,0,
,0.963,-0.211,0.023,-274.659,-65.43,81.97,0,0,0,
,0.994,-0.107,0.21,-359.192,-43.58,97.473,0,0,0,
,1.046,0.031,0.301,-277.039,0.183,105.285,0,0,0,
,1.124,0.175,0.212,62.988,-15.198,69.824,0,0,0,
,1.213,0.286,0.081,575.561,-180.664,-53.589,0,0,0,
,1.146,0.235,-0.166,1287.109,-435.547,-302.613,0,0,0,
,1.016,-0.14,-0.358,1864.013,-731.507,-567.261,0,0,0,
,0.957,-0.577,-0.355,1980.59,-953.37,-651.429,0,0,0,
,0.929,-0.9,-0.209,1700.988,-1044.556,-652.649,0,0,0,
,0.849,-1.063,0.016,1191.284,-892.151,-612.122,0,0,0,
,0.944,-1.028,0.088,580.078,-653.077,-549.012,0,0,0,
,1.103,-0.911,0.019,96.13,-530.213,-590.027,0,0,0,
,1.097,-0.794,-0.089,-224.366,-464.722,-697.937,0,0,0,
,1.033,-0.712,-0.09,-444.153,-379.883,-821.839,0,0,0,
,1.008,-0.633,-0.025,-530.64,-250.123,-927.063,0,0,0,
,0.997,-0.572,0.05,-488.892,-109.375,-1049.012,0,0,0,
,0.972,-0.563,0.062,-340.882,18.859,-1177.796,0,0,0,
,0.942,-0.564,0.037,-108.765,115.356,-1271.485,0,0,0,
,0.894,-0.562,-0.035,110.717,177.185,-1349.244,0,0,0,
,0.822,-0.58,-0.084,345.031,211.303,-1413.758,0,0,0,
,0.747,-0.629,-0.116,545.471,217.407,-1440.064,0,0,0,
,0.668,-0.68,-0.107,698.974,289.062,-1397.95,0,0,0,
,0.599,-0.714,-0.087,688.293,357.116,-1334.717,0,0,0,
,0.518,-0.719,-0.045,531.433,433.044,-1229.493,0,0,0,
,0.452,-0.724,-0.005,270.63,515.197,-1114.686,0,0,0,
,0.42,-0.687,-0.029,-25.147,568.725,-996.155,0,0,0,
,0.431,-0.602,-0.087,-266.968,574.829,-911.499,0,0,0,
,0.461,-0.545,-0.137,-362.244,518.493,-863.831,0,0,0,
,0.469,-0.511,-0.077,-314.515,427.002,-842.347,0,0,0,
,0.393,-0.54,-0.025,-175.232,406.067,-793.213,0,0,0,
,0.392,-0.61,0.005,-103.577,398.376,-731.08,0,0,0,
,0.414,-0.634,0.034,-197.815,360.534,-665.345,0,0,0,
,0.398,-0.621,0.048,-335.755,325.317,-657.837,0,0,0,
,0.382,-0.607,0.113,-308.655,293.884,-603.821,0,0,0,
,0.431,-0.672,0.158,-238.282,272.644,-499.512,0,0,0,
,0.471,-0.684,0.19,-288.575,256.347,-467.408,0,0,0,
,0.487,-0.667,0.139,-307.679,219.36,-433.35,0,0,0,
,0.57,-0.667,0.058,-175.415,140.014,-380.921,0,0,0,
,0.605,-0.723,0.044,-30.518,33.447,-353.455,0,0,0,
,0.61,-0.795,0.069,78.735,-45.166,-334.29,0,0,0,
,0.612,-0.851,0.12,156.921,-93.323,-293.885,0,0,0,
,0.586,-0.884,0.16,203.308,-108.277,-249.939,0,0,0,
,0.577,-0.92,0.124,249.206,-119.08,-219.422,0,0,0,
,0.56,-0.911,0.067,345.092,-135.682,-194.092,0,0,0,
,0.554,-0.922,0.015,463.195,-140.259,-233.521,0,0,0,
,0.433,-1.029,-0.006,531.982,-138.245,-309.937,0,0,0,
,0.485,-1.136,-0.022,604.736,-172.547,-384.278,0,0,0,
,0.315,-1.35,0.008,629.699,-139.344,-298.523,0,0,0,
,0.316,-1.218,-0.016,547.973,-62.684,-248.414,0,0,0,
,0.266,-1.094,-0.06,521.972,-79.895,-267.212,0,0,0,
,0.226,-1.149,-0.048,442.871,-128.052,-315.186,0,0,0,
,0.193,-1.121,-0.003,398.559,-131.348,-321.473,0,0,0,
,0.197,-1.074,-0.064,390.869,-86.548,-289.856,0,0,0,
,0.188,-1.001,-0.187,429.199,-76.905,-258.301,0,0,0,
,0.24,-0.769,-0.318,463.134,-126.16,-321.473,0,0,0,
,0.091,-1.132,-0.221,531.189,-107.056,-188.66,0,0,0,
,0.161,-1.112,-0.237,438.11,-29.297,-188.599,0,0,0,
,0.146,-1.025,-0.333,481.323,28.808,-157.654,0,0,0,
,0.204,-0.975,-0.334,642.7,-24.781,-144.227,0,0,0,
,0.144,-1.083,-0.263,592.712,-40.345,-136.109,0,0,0,
,0.171,-1.128,-0.174,478.698,-22.217,-119.935,0,0,0,
,0.162,-1.23,-0.197,408.081,19.775,-77.21,0,0,0,
,0.166,-1.094,-0.35,349.792,44.921,-41.626,0,0,0,
,0.258,-0.874,-0.484,330.139,32.47,-79.468,0,0,0,
,0.141,-1.066,-0.363,335.632,59.631,5.798,0,0,0,
,0.237,-1.084,-0.293,270.324,86.059,-6.958,0,0,0,
,0.206,-1.082,-0.357,79.406,138.305,11.657,0,0,0,
,0.203,-1.16,-0.411,22.766,188.11,24.353,0,0,0,
,0.104,-1.262,-0.401,-52.552,233.215,62.255,0,0,0,
,0.16,-1.141,-0.492,-80.079,254.028,28.259,0,0,0,
,0.139,-1.13,-0.402,69.702,226.013,-13.001,0,0,0,
,0.14,-1.244,-0.406,154.297,231.567,-48.89,0,0,0,
,0.127,-1.238,-0.45,214.66,230.529,-82.764,0,0,0,
,0.103,-1.246,-0.511,264.099,253.967,-147.339,0,0,0,
,0.052,-1.295,-0.515,243.957,296.936,-180.176,0,0,0,
,0.051,-1.239,-0.59,180.297,355.041,-245.24,0,0,0,
,0.037,-1.297,-0.606,153.381,400.634,-298.279,0,0,0,
,0.051,-1.323,-0.678,152.282,466.247,-324.097,0,0,0,
,0.048,-1.308,-0.633,112.793,504.394,-329.041,0,0,0,
,-0.038,-1.131,-0.45,-21.241,556.762,-413.025,0,0,0,
,-0.073,-1.142,-0.544,-106.446,698.974,-459.656,0,0,0,
,-0.019,-1.079,-0.685,-108.765,744.14,-494.568,0,0,0,
,-0.065,-1.074,-0.632,-122.132,709.106,-506.653,0,0,0,
,-0.094,-1.075,-0.531,-103.943,708.618,-495.85,0,0,0,
,-0.105,-0.978,-0.5,-90.699,717.956,-478.15,0,0,0,
,-0.107,-0.857,-0.46,-70.069,747.863,-575.806,0,0,0,
,-0.17,-0.868,-0.531,-99.183,767.028,-631.897,0,0,0,
,-0.194,-0.948,-0.507,-129.7,758.484,-599.976,0,0,0,
,-0.218,-1.002,-0.46,-117.005,740.844,-573.121,0,0,0,
,-0.251,-0.955,-0.423,-183.594,704.162,-572.449,0,0,0,
,-0.254,-0.867,-0.388,-293.457,671.753,-622.559,0,0,0,
,-0.261,-0.755,-0.374,-314.148,612.854,-636.841,0,0,0,
,-0.275,-0.779,-0.343,-283.509,568.298,-669.19,0,0,0,
,-0.288,-0.842,-0.36,-198.731,540.405,-682.129,0,0,0,
,-0.355,-0.819,-0.322,-250.245,503.723,-695.679,0,0,0,
,-0.375,-0.777,-0.326,-285.645,486.328,-708.985,0,0,0,
,-0.404,-0.734,-0.241,-260.621,449.279,-720.154,0,0,0,
,-0.443,-0.711,-0.191,-249.146,447.876,-718.445,0,0,0,
,-0.461,-0.648,-0.148,-272.706,447.326,-725.708,0,0,0,
,-0.511,-0.628,-0.083,-282.898,462.158,-752.808,0,0,0,
,-0.573,-0.651,-0.08,-270.264,467.834,-760.498,0,0,0,
,-0.591,-0.712,-0.116,-220.459,461.181,-728.272,0,0,0,
,-0.609,-0.75,-0.06,-170.289,441.345,-715.271,0,0,0,
,-0.618,-0.679,-0.042,-228.882,462.219,-704.163,0,0,0,
,-0.612,-0.55,-0.032,-273.926,497.131,-699.341,0,0,0,
,-0.653,-0.519,-0.045,-293.58,541.748,-711.304,0,0,0,
,-0.654,-0.558,-0.048,-245.057,534.912,-690.613,0,0,0,
,-0.618,-0.574,-0.027,-180.726,509.094,-657.654,0,0,0,
,-0.614,-0.595,-0.045,-123.597,456.359,-614.808,0,0,0,
,-0.649,-0.53,0.027,-91.614,406.799,-600.342,0,0,0,
,-0.673,-0.413,0.152,-82.215,391.235,-625.794,0,0,0,
,-0.661,-0.319,0.184,-45.105,392.517,-540.223,0,0,0,
,-0.687,-0.334,0.104,27.893,389.038,-510.132,0,0,0,
,-0.676,-0.401,0.076,-32.41,346.557,-502.869,0,0,0,
,-0.708,-0.464,0.138,-99.976,320.556,-483.826,0,0,0,
,-0.724,-0.391,0.141,-84.046,331.787,-447.51,0,0,0,
,-0.762,-0.334,0.145,-9.888,334.289,-401.307,0,0,0,
,-0.778,-0.354,0.212,7.446,321.533,-374.329,0,0,0,
,-0.814,-0.366,0.209,-33.326,294.555,-369.324,0,0,0,
,-0.806,-0.356,0.289,-78.553,272.583,-355.164,0,0,0,
,-0.828,-0.417,0.267,-111.634,286.438,-318.482,0,0,0,
,-0.824,-0.359,0.26,-104.615,274.047,-295.899,0,0,0,
,-0.818,-0.385,0.246,-84.717,269.287,-263.428,0,0,0,
,-0.839,-0.356,0.263,-123.047,261.23,-258.118,0,0,0,
,-0.856,-0.384,0.299,-176.392,263.672,-251.526,0,0,0,
,-0.872,-0.364,0.344,-236.634,258.545,-251.587,0,0,0,
,-0.891,-0.394,0.397,-330.75,265.747,-239.747,0,0,0,
,-0.919,-0.365,0.349,-388.428,295.471,-225.159,0,0,0,
,-0.919,-0.293,0.254,-318.543,314.148,-219.91,0,0,0,
,-0.931,-0.341,0.298,-248.963,300.598,-225.708,0,0,0,
,-0.941,-0.397,0.378,-303.406,296.386,-242.249,0,0,0,
,-0.93,-0.36,0.334,-383.484,284.79,-264.832,0,0,0,
,-0.935,-0.366,0.314,-345.093,269.348,-269.715,0,0,0,
,-0.905,-0.324,0.293,-342.225,265.869,-285.462,0,0,0,
,-0.902,-0.323,0.322,-368.897,272.4,-313.477,0,0,0,
,-0.9,-0.318,0.368,-394.41,282.531,-334.9,0,0,0,
,-0.885,-0.242,0.398,-398.194,278.259,-347.107,0,0,0,
,-0.872,-0.228,0.416,-369.385,256.469,-339.356,0,0,0,
,-0.85,-0.148,0.405,-273.621,238.952,-311.402,0,0,0,
,-0.867,-0.151,0.44,-211.609,220.947,-292.115,0,0,0,
,-0.875,-0.147,0.459,-227.967,218.017,-282.166,0,0,0,
,-0.872,-0.127,0.44,-255.616,214.111,-274.781,0,0,0,
,-0.863,-0.151,0.411,-241.578,217.041,-263.184,0,0,0,
,-0.857,-0.131,0.449,-211.487,217.041,-240.906,0,0,0,
,-0.828,-0.103,0.453,-176.148,213.562,-221.558,0,0,0,
,-0.833,-0.114,0.507,-207.337,198.303,-217.469,0,0,0,
,-0.841,-0.101,0.551,-238.465,175.109,-215.332,0,0,0,
,-0.832,-0.05,0.521,-251.099,152.221,-214.6,0,0,0,
,-0.817,-0.028,0.525,-203.797,130.676,-210.144,0,0,0,
,-0.81,-0.005,0.501,-163.697,126.953,-185.975,0,0,0,
,-0.824,-0.04,0.517,-141.175,121.399,-166.626,0,0,0,
,-0.844,-0.026,0.488,-130.677,112.182,-144.898,0,0,0,
,-0.839,-0.046,0.529,-99.732,106.75,-140.748,0,0,0,
,-0.85,-0.047,0.543,-100.464,113.22,-140.809,0,0,0,
,-0.835,0.002,0.506,-122.01,121.093,-145.447,0,0,0,
,-0.822,-0.006,0.518,-117.188,125.671,-145.752,0,0,0,
,-0.805,0.001,0.55,-86.67,121.765,-143.006,0,0,0,
,-0.824,0.011,0.602,-62.317,113.281,-144.593,0,0,0,
,-0.832,-0.003,0.564,-101.441,109.802,-146.241,0,0,0,
,-0.833,-0.004,0.574,-153.504,106.994,-147.95,0,0,0,
,-0.818,0.058,0.547,-139.039,99.731,-146.851,0,0,0,
,-0.824,0.029,0.576,-133.301,84.961,-144.165,0,0,0,
,-0.833,0.04,0.602,-106.202,78.247,-139.222,0,0,0,
,-0.83,0.072,0.588,-110.352,74.035,-144.349,0,0,0,
,-0.832,0.052,0.583,-138.55,74.951,-142.945,0,0,0,
,-0.824,0.077,0.582,-156.067,81.176,-144.165,0,0,0,
,-0.834,0.053,0.556,-139.039,88.501,-142.579,0,0,0,
,-0.838,0.026,0.578,-93.262,86.975,-131.47,0,0,0,
,-0.834,0.059,0.584,-75.867,77.331,-130.677,0,0,0,
,-0.829,0.077,0.575,-83.985,70.007,-137.391,0,0,0,
,-0.838,0.055,0.58,-105.225,75.988,-151.673,0,0,0,
,-0.837,0.069,0.568,-87.891,95.947,-141.419,0,0,0,
,-0.833,0.121,0.539,-59.571,99.426,-161.133,0,0,0,
,-0.832,0.075,0.54,-51.087,93.444,-168.213,0,0,0,
,-0.839,0.086,0.556,-68.97,87.097,-178.284,0,0,0,
,-0.837,0.071,0.583,-61.219,102.234,-181.092,0,0,0,
,-0.818,0.078,0.593,-37.537,109.314,-179.017,0,0,0,
,-0.798,0.105,0.61,-23.438,101.806,-179.566,0,0,0,
,-0.787,0.138,0.592,-9.095,88.867,-174.988,0,0,0,
,-0.782,0.145,0.611,-30.518,89.843,-179.444,0,0,0,
,-0.778,0.127,0.617,-0.306,101.379,-173.89,0,0,0,
,-0.785,0.145,0.639,10.681,98.877,-170.35,0,0,0,
,-0.785,0.145,0.628,-24.903,96.74,-171.631,0,0,0,
,-0.773,0.159,0.597,-80.872,103.515,-180.298,0,0,0,
,-0.761,0.168,0.606,-103.15,107.544,-181.885,0,0,0,
,-0.762,0.192,0.644,-104.004,100.402,-188.05,0,0,0,
,-0.765,0.185,0.665,-94.666,87.036,-192.81,0,0,0,
,-0.762,0.185,0.651,-112.732,75.317,-193.299,0,0,0,
,-0.757,0.182,0.661,-117.432,76.904,-186.768,0,0,0,
,-0.748,0.241,0.632,-93.628,73.669,-184.327,0,0,0,
,-0.748,0.212,0.63,-78.675,69.213,-177.735,0,0,0,
,-0.736,0.228,0.632,-59.937,51.452,-165.65,0,0,0,
,-0.737,0.227,0.618,-60.975,53.1,-158.204,0,0,0,
,-0.726,0.235,0.64,-99.305,67.443,-158.997,0,0,0,
,-0.721,0.232,0.624,-115.479,81.604,-150.818,0,0,0,
,-0.713,0.241,0.609,-29.236,59.082,-104.737,0,0,0,
,-0.709,0.25,0.644,-21.607,55.419,-90.882,0,0,0,
,-0.706,0.261,0.614,-29.847,61.645,-83.497,0,0,0,
,-0.702,0.26,0.599,-29.297,59.021,-78.064,0,0,0,
,-0.691,0.237,0.611,2.502,56.152,-65.918,0,0,0,
,-0.686,0.24,0.643,17.395,48.339,-60.73,0,0,0,
,-0.686,0.24,0.665,-2.198,51.452,-65.125,0,0,0,
,-0.696,0.237,0.631,-57.19,53.222,-64.942,0,0,0,
,-0.695,0.247,0.643,-66.59,49.255,-58.35,0,0,0,
,-0.677,0.293,0.654,-5.616,22.033,-43.213,0,0,0,
,-0.681,0.272,0.665,29.846,-3.418,-30.152,0,0,0,
,-0.682,0.294,0.658,40.771,-30.701,-20.203,0,0,0,
,-0.671,0.294,0.615,29.296,-50.965,-8.057,0,0,0,
,-0.675,0.283,0.571,35.339,-60.547,8.972,0,0,0,
,-0.658,0.308,0.57,79.345,-71.412,36.01,0,0,0,
,-0.66,0.291,0.603,118.103,-88.562,65.124,0,0,0,
,-0.648,0.278,0.617,126.892,-118.103,91.796,0,0,0,
,-0.644,0.268,0.624,160.034,-149.659,114.38,0,0,0,
,-0.631,0.259,0.586,187.072,-162.598,143.188,0,0,0,
,-0.619,0.28,0.584,252.868,-174.317,172.18,0,0,0,
,-0.624,0.222,0.526,264.709,-195.557,196.716,0,0,0,
,-0.621,0.213,0.518,269.409,-226.258,227.844,0,0,0,
,-0.647,0.166,0.562,267.334,-244.202,251.526,0,0,0,
,-0.668,0.194,0.62,334.9,-244.568,283.508,0,0,0,
,-0.669,0.175,0.566,345.642,-268.555,304.687,0,0,0,
,-0.671,0.147,0.534,362.487,-327.454,332.885,0,0,0,
,-0.698,0.099,0.544,380.31,-364.991,368.896,0,0,0,
,-0.731,0.08,0.555,380.127,-362.366,393.066,0,0,0,
,-0.729,0.077,0.523,401.611,-374.146,416.931,0,0,0,
,-0.706,0.062,0.448,400.39,-425.843,436.34,0,0,0,
,-0.74,0,0.487,406.555,-455.018,456.726,0,0,0,
,-0.784,-0.108,0.51,222.107,-433.045,495.788,0,0,0,
,-0.773,-0.091,0.465,239.135,-462.159,527.71,0,0,0,
,-0.804,-0.093,0.447,376.098,-491.394,559.997,0,0,0,
,-0.815,-0.122,0.463,466.858,-520.752,569.519,0,0,0,
,-0.841,-0.149,0.401,485.901,-540.589,580.993,0,0,0,
,-0.834,-0.197,0.312,475.586,-564.515,586.425,0,0,0,
,-0.901,-0.289,0.266,454.956,-557.557,589.721,0,0,0,
,-0.92,-0.266,0.226,477.356,-535.767,575.439,0,0,0,
,-0.924,-0.375,0.228,498.718,-533.814,547.302,0,0,0,
,-0.953,-0.418,0.198,403.869,-546.143,507.812,0,0,0,
,-0.935,-0.383,0.157,313.537,-547.425,478.576,0,0,0,
,-0.973,-0.415,0.162,243.225,-494.385,454.04,0,0,0,
,-0.971,-0.44,0.132,219.238,-446.656,426.391,0,0,0,
,-0.959,-0.472,0.127,223.327,-454.224,404.113,0,0,0,
,-0.951,-0.487,0.111,241.76,-491.822,392.883,0,0,0,
,-0.95,-0.442,0.041,230.041,-523.804,378.173,0,0,0,
,-0.971,-0.442,0.027,213.745,-508.484,367.553,0,0,0,
,-0.952,-0.483,0.031,210.205,-463.44,351.989,0,0,0,
,-0.924,-0.489,-0.003,261.047,-442.81,342.773,0,0,0,
,-0.879,-0.52,-0.057,297.546,-479.493,331.298,0,0,0,
,-0.873,-0.542,-0.043,315.796,-503.418,324.646,0,0,0,
,-0.885,-0.549,-0.028,313.659,-493.531,300.415,0,0,0,
,-0.929,-0.585,-0.049,276.306,-450.623,270.996,0,0,0,
,-0.926,-0.588,-0.072,271.057,-421.326,243.286,0,0,0,
,-0.913,-0.602,-0.108,302.063,-409.485,235.046,0,0,0,
,-0.865,-0.552,-0.139,291.381,-389.771,222.9,0,0,0,
,-0.806,-0.531,-0.147,286.193,-367.188,217.59,0,0,0,
,-0.752,-0.528,-0.143,272.888,-350.464,208.068,0,0,0,
,-0.669,-0.499,-0.16,326.782,-383.973,197.998,0,0,0,
,-0.712,-0.507,-0.213,450.5,-452.21,213.501,0,0,0,
,-0.704,-0.526,-0.208,525.94,-531.128,250.793,0,0,0,
,-0.678,-0.515,-0.201,555.236,-589.051,288.086,0,0,0,
,-0.667,-0.519,-0.188,552.856,-616.456,325.683,0,0,0,
,-0.688,-0.521,-0.193,517.028,-632.874,336.731,0,0,0,
,-0.722,-0.504,-0.257,435.363,-669.8,340.637,0,0,0,
,-0.729,-0.503,-0.331,396.118,-748.841,356.689,0,0,0,
,-0.731,-0.556,-0.3,332.58,-805.787,382.202,0,0,0,
,-0.688,-0.682,-0.283,264.526,-819.642,417.175,0,0,0,
,-0.681,-0.645,-0.258,153.991,-782.105,437.805,0,0,0,
,-0.721,-0.545,-0.283,155.151,-732.85,448.547,0,0,0,
,-0.776,-0.567,-0.449,104.126,-682.496,421.569,0,0,0,
,-0.816,-0.641,-0.555,-73.792,-668.091,373.413,0,0,0,
,-0.743,-0.73,-0.565,-36.683,-661.011,409.24,0,0,0,
,-0.727,-0.761,-0.479,-33.326,-620.423,416.565,0,0,0,
,-0.7,-0.664,-0.412,-46.936,-559.571,399.047,0,0,0,
,-0.674,-0.626,-0.369,-67.749,-494.568,396.728,0,0,0,
,-0.637,-0.624,-0.392,-82.52,-455.811,369.201,0,0,0,
,-0.569,-0.606,-0.423,-59.632,-446.228,352.661,0,0,0,
,-0.538,-0.678,-0.362,32.348,-460.45,356.567,0,0,0,
,-0.485,-0.575,-0.279,109.253,-472.352,366.577,0,0,0,
,-0.425,-0.61,-0.336,222.656,-448.548,394.165,0,0,0,
,-0.422,-0.505,-0.425,250.854,-445.374,411.438,0,0,0,
,-0.315,-0.479,-0.674,356.262,-461.487,412.719,0,0,0,
,-0.314,-0.57,-0.597,306.762,-514.405,345.337,0,0,0,
,-0.291,-0.694,-0.461,199.524,-459.778,369.262,0,0,0,
,-0.249,-0.749,-0.446,153.747,-389.039,389.953,0,0,0,
,-0.21,-0.7,-0.624,168.457,-330.689,460.388,0,0,0,
,-0.059,-0.423,-0.778,301.452,-326.05,306.762,0,0,0,
,-0.128,-0.613,-0.77,327.514,-434.388,397.4,0,0,0,
,-0.06,-0.887,-0.63,192.382,-399.476,359.436,0,0,0,
,-0.064,-0.942,-0.615,98.693,-336.914,485.229,0,0,0,
,-0.042,-0.829,-0.745,164.795,-256.531,512.329,0,0,0,
,-0.028,-0.49,-1.09,214.416,-229.371,463.623,0,0,0,
,0.159,-0.546,-1.142,234.863,-393.372,324.035,0,0,0,
,0.141,-0.989,-0.921,219.421,-592.102,258.667,0,0,0,
,0.004,-1.114,-0.711,21.484,-505.799,384.094,0,0,0,
,-0.025,-1.008,-0.9,-119.141,-188.66,276.672,0,0,0,
,0.145,-0.718,-1.137,-205.75,-156.739,266.601,0,0,0,
,0.208,-0.771,-1.045,-64.82,-313.965,176.33,0,0,0,
,0.085,-0.957,-0.898,-26.429,-299.5,143.127,0,0,0,
,0.111,-0.863,-0.872,-20.691,-175.721,155.578,0,0,0,
,0.181,-0.743,-0.922,28.076,-168.824,135.437,0,0,0,
,0.158,-0.798,-0.922,91.247,-182.435,122.253,0,0,0,
,0.125,-0.845,-0.828,54.138,-143.86,128.784,0,0,0,
,0.116,-0.765,-0.877,36.071,-51.697,123.901,0,0,0,
,0.187,-0.709,-0.917,41.32,-47.608,81.054,0,0,0,
,0.174,-0.771,-0.911,60.363,-92.652,42.175,0,0,0,
,0.164,-0.814,-0.825,57.495,-92.774,32.714,0,0,0,
,0.133,-0.818,-0.817,-14.1,-44.922,19.104,0,0,0,
,0.167,-0.75,-0.816,-42.908,-22.461,17.822,0,0,0,
,0.172,-0.726,-0.846,-28.565,-44.922,5.188,0,0,0,
,0.177,-0.707,-0.779,13,-75.806,-26.612,0,0,0,
,0.161,-0.742,-0.762,82.641,-57.007,-46.448,0,0,0,
,0.173,-0.733,-0.724,98.327,-49.927,-52.124,0,0,0,
,0.144,-0.735,-0.732,110.717,-30.64,-43.274,0,0,0,
,0.147,-0.738,-0.783,105.407,-11.231,-22.4,0,0,0,
,0.184,-0.738,-0.857,109.008,-37.232,-21.851,0,0,0,
,0.175,-0.7,-0.773,131.652,-93.75,-54.139,0,0,0,
,0.126,-0.789,-0.722,116.699,-59.266,-64.087,0,0,0,
,0.147,-0.753,-0.742,30.517,-2.93,-53.528,0,0,0,
,0.179,-0.69,-0.752,-20.935,-20.752,-45.716,0,0,0,
,0.159,-0.701,-0.741,-9.034,-48.523,-39.246,0,0,0,
,0.169,-0.668,-0.741,45.532,-52.002,-24.598,0,0,0,
,0.195,-0.672,-0.753,79.895,-86.243,-23.621,0,0,0,
,0.181,-0.649,-0.711,96.008,-134.766,-23.987,0,0,0,
,0.138,-0.644,-0.689,101.684,-146.607,-21.424,0,0,0,
,0.107,-0.66,-0.685,85.937,-117.554,-21.119,0,0,0,
,0.109,-0.691,-0.74,82.763,-70.435,-7.752,0,0,0,
,0.15,-0.707,-0.783,69.274,-60.12,5.188,0,0,0,
,0.202,-0.748,-0.726,-0.794,-74.769,23.193,0,0,0,
,0.175,-0.434,-0.866,510.192,-39.429,14.343,0,0,0,
,0.124,-0.845,-0.965,275.634,-38.331,-83.313,0,0,0,
,0.147,-0.89,-0.847,210.144,21.118,-1.648,0,0,0,
,0.148,-0.646,-0.823,-81.482,-9.217,-48.768,0,0,0,
,0.114,-0.601,-0.792,-80.689,28.564,-16.907,0,0,0,
,0.164,-0.685,-0.767,-143.25,80.078,18.005,0,0,0,
,0.187,-0.649,-0.755,-237.549,92.895,59.265,0,0,0,
,0.174,-0.658,-0.747,-323.06,79.04,74.035,0,0,0,
,0.167,-0.75,-0.809,-363.221,96.313,84.594,0,0,0,
,0.234,-0.779,-0.816,-428.345,76.477,113.464,0,0,0,
,0.2,-0.7,-0.84,-512.696,11.352,80.139,0,0,0,
,0.183,-0.73,-0.794,-548.218,-26.917,73.303,0,0,0,
,0.302,-0.668,-0.59,-531.128,-160.34,108.093,0,0,0,
,0.205,-0.712,-0.689,-509.888,-217.774,36.743,0,0,0,
,0.222,-0.902,-0.707,-590.027,-231.08,39.306,0,0,0,
,0.179,-1.103,-0.704,-772.217,-207.093,95.764,0,0,0,
,0.198,-0.887,-0.514,-942.444,-191.346,67.443,0,0,0,
,0.398,-0.745,-0.463,-696.534,-140.686,22.827,0,0,0,
,0.374,-0.91,-0.534,-276.307,-214.783,25.94,0,0,0,
,0.333,-1.066,-0.472,-342.591,-192.81,58.776,0,0,0,
,0.46,-1.04,-0.47,-644.288,-152.405,97.412,0,0,0,
,0.564,-1.017,-0.371,-637.452,-194.764,109.497,0,0,0,
,0.541,-1.042,-0.388,-663.941,-197.998,102.05,0,0,0,
,0.641,-0.958,-0.4,-532.349,-211.853,103.759,0,0,0,
,0.671,-0.995,-0.376,-458.985,-271.424,92.163,0,0,0,
,0.678,-1.027,-0.365,-525.208,-306.702,119.751,0,0,0,
,0.685,-0.906,-0.296,-701.416,-343.934,132.263,0,0,0,
,0.608,-0.683,-0.239,-664.612,-283.326,132.446,0,0,0,
,0.573,-0.699,-0.242,-460.816,-168.702,146.728,0,0,0,
,0.568,-0.765,-0.23,-369.812,-118.653,195.922,0,0,0,
,0.516,-0.747,-0.217,-406.311,-82.093,269.104,0,0,0,
,0.467,-0.72,-0.213,-498.841,-50.843,339.294,0,0,0,
,0.408,-0.654,-0.23,-594.422,-18.189,407.959,0,0,0,
,0.362,-0.578,-0.276,-664.917,18.005,495.3,0,0,0,
,0.35,-0.548,-0.308,-717.957,31.86,556.945,0,0,0,
,0.358,-0.545,-0.297,-733.582,-15.198,661.193,0,0,0,
,0.368,-0.524,-0.222,-747.376,-101.99,790.527,0,0,0,
,0.288,-0.477,-0.115,-798.462,-126.709,906.189,0,0,0,
,0.211,-0.488,-0.047,-724.854,-14.649,1036.193,0,0,0,
,0.245,-0.567,-0.072,-603.699,127.136,1173.828,0,0,0,
,0.344,-0.691,-0.135,-465.394,213.684,1315.734,0,0,0,
,0.43,-0.739,-0.157,-276.795,231.567,1428.161,0,0,0,
,0.468,-0.777,-0.143,-164.612,206.543,1484.436,0,0,0,
,0.49,-0.87,-0.115,-197.571,192.871,1506.775,0,0,0,
,0.516,-0.914,-0.132,-367.615,210.266,1531.738,0,0,0,
,0.577,-0.822,-0.144,-498.291,260.315,1553.65,0,0,0,
,0.677,-0.697,-0.169,-549.927,298.95,1522.705,0,0,0,
,0.813,-0.64,-0.186,-464.417,316.284,1436.828,0,0,0,
,0.988,-0.662,-0.192,-327.393,266.723,1345.52,0,0,0,
,1.169,-0.726,-0.177,-186.951,159.668,1236.877,0,0,0,
,1.186,-0.757,-0.181,-102.356,30.334,1104.431,0,0,0,
,1.137,-0.722,-0.094,29.907,-46.936,905.761,0,0,0,
,1.118,-0.68,-0.073,215.454,-42.725,722.412,0,0,0,
,1.095,-0.59,-0.284,443.359,-43.885,585.083,0,0,0,
,1.044,-0.484,-0.374,647.949,-200.196,427.185,0,0,0,
,0.961,-0.465,-0.254,784.179,-290.711,144.958,0,0,0,
,0.885,-0.533,-0.159,732.483,-198.853,-67.566,0,0,0,
,0.905,-0.587,-0.081,497.375,-76.416,-117.493,0,0,0,
,0.925,-0.488,0.026,263.61,8.239,-125.428,0,0,0,
,0.943,-0.39,0.065,144.104,99.67,-126.16,0,0,0,
,0.966,-0.3,0.102,99.243,98.632,-137.085,0,0,0,
,1.004,-0.316,0.109,48.706,31.921,-143.799,0,0,0,
,1.036,-0.274,0.137,-31.311,-98.45,-94.727,0,0,0,
,1,-0.243,0.151,-121.888,-205.14,-102.417,0,0,0,
,0.934,-0.276,0.151,-188.172,-216.98,-125.245,0,0,0,
,0.927,-0.29,0.116,-242.554,-170.044,-93.934,0,0,0,
,0.96,-0.287,0.052,-313.965,-123.597,-65.613,0,0,0,
,0.969,-0.29,0.016,-385.071,-110.291,-61.463,0,0,0,
,0.949,-0.305,-0.022,-459.656,-81.36,-70.862,0,0,0,
,0.953,-0.292,-0.017,-530.64,-31.311,-75.379,0,0,0,
,0.907,-0.226,-0.062,-436.829,5.249,-95.398,0,0,0,
,0.91,-0.225,-0.057,-390.564,17.334,-77.454,0,0,0,
,0.924,-0.233,-0.038,-351.868,19.897,-59.327,0,0,0,
,0.92,-0.231,-0.025,-310.914,34.545,-51.758,0,0,0,
,0.927,-0.216,-0.003,-231.568,45.41,-44.495,0,0,0,
,0.932,-0.217,0.021,-153.687,58.532,-30.091,0,0,0,
,0.952,-0.211,0.01,-106.019,74.035,-28.321,0,0,0,
,0.968,-0.207,0.023,-72.632,63.72,-25.635,0,0,0,
,0.962,-0.203,0.04,-48.768,58.654,-38.331,0,0,0,
,0.958,-0.206,0.049,-25.94,60.913,-32.593,0,0,0,
,0.961,-0.193,0.05,21.85,64.636,-29.358,0,0,0,
,0.976,-0.193,0.043,83.007,44.738,-26.368,0,0,0,
,0.991,-0.202,0.052,125.732,30.578,-32.654,0,0,0,
,0.987,-0.235,0.054,137.817,4.699,-30.396,0,0,0,
,0.96,-0.259,0.033,118.591,3.784,-23.499,0,0,0,
,0.953,-0.266,0.036,91.674,14.953,-10.987,0,0,0,
,0.947,-0.261,0.033,65.002,24.719,-5.066,0,0,0,
,0.942,-0.243,0.028,53.588,41.076,1.525,0,0,0,
,0.955,-0.246,0.02,55.603,42.175,3.54,0,0,0,
,0.95,-0.252,0.022,54.931,35.339,0.549,0,0,0,
,0.929,-0.282,0.015,35.766,13.183,6.652,0,0,0,
,0.931,-0.313,0.081,16.174,24.475,11.718,0,0,0,
,0.946,-0.4,0.121,-69.642,43.273,22.583,0,0,0,
,0.973,-0.574,0.304,-237.977,72.021,7.69,0,0,0,
,1.04,-0.808,0.477,-303.223,127.929,69.458,0,0,0,
,1.244,-0.981,0.701,-298.218,249.145,137.024,0,0,0,
,1.357,-1.298,0.719,-644.837,316.65,158.142,0,0,0,
,1.472,-1.407,0.656,-1354.004,272.522,49.377,0,0,0,
,1.737,-1.014,0.861,-1666.993,22.644,-139.405,0,0,0,
,2.346,-0.558,0.964,-1416.321,-403.382,-371.216,0,0,0,
,2.936,-0.658,0.878,-874.268,-1263.672,-892.334,0,0,0,
,3.026,-1.029,0.888,-597.474,-2000,-1431.153,0,0,0,
,2.886,-1.001,1.156,-576.722,-2000,-1799.744,0,0,0,
,2.862,-0.73,1.369,-357.605,-2000,-1988.343,0,0,0,
,2.926,-0.754,1.195,85.815,-2000,-2000,0,0,0,
,2.831,-0.939,0.825,338.745,-2000,-2000,0,0,0,
,2.642,-0.844,0.646,316.711,-2000,-2000,0,0,0,
,2.462,-0.545,0.466,313.354,-2000,-2000,0,0,0,
,2.228,-0.447,0.22,292.663,-2000,-2000,0,0,0,
,1.933,-0.386,-0.151,42.236,-2000,-2000,0,0,0,
,1.852,-0.431,-0.323,-277.955,-2000,-2000,0,0,0,
,1.889,-0.491,-0.32,-385.865,-2000,-2000,0,0,0,
,1.839,-0.504,-0.405,-435.669,-2000,-2000,0,0,0,
,1.504,-0.312,-0.574,-437.623,-2000,-2000,0,0,0,
,1.497,-0.122,-0.782,-617.798,-2000,-2000,0,0,0,
,1.271,0.359,-1.11,-736.634,-2000,-2000,0,0,0,
,0.953,0.936,-1.696,-520.325,-2000,-2000,0,0,0,
,0.604,1.734,-2.115,-91.126,-2000,-2000,0,0,0,
,0.248,0.216,-0.689,-914.429,348.51,-490.174,0,0,0,
,0.026,-0.172,-0.586,-1660.889,1385.925,342.834,0,0,0,
,0.02,0.593,-0.496,-1091.919,1999.694,833.801,0,0,0,
,0.137,0.593,-0.482,118.042,1999.694,1097.351,0,0,0,
,0.27,0.402,-0.571,1070.556,1999.694,1454.223,0,0,0,
,0.365,0.242,-0.504,1686.889,1999.694,1808.471,0,0,0,
,0.363,0.106,-0.375,1825.073,1999.694,1999.694,0,0,0,
,0.431,-0.005,-0.26,1504.211,1999.694,1999.694,0,0,0,
,0.442,0.008,-0.191,1043.396,1999.694,1999.694,0,0,0,
,0.503,0.118,-0.164,675.293,1999.694,1999.694,0,0,0,
,0.649,0.121,-0.14,571.533,1999.694,1999.694,0,0,0,
,0.834,0.038,-0.191,665.771,1999.694,1999.694,0,0,0,
,1.06,-0.067,-0.269,800.903,1999.694,1999.694,0,0,0,
,1.241,-0.049,-0.282,785.278,1999.694,1999.694,0,0,0,
,1.471,-0.412,-0.025,841.308,1999.694,1999.694,0,0,0,
,1.897,-0.83,0.025,1060.974,1999.694,1999.694,0,0,0,
,2.08,-0.841,-0.111,1529.052,1999.694,1999.694,0,0,0,
,1.791,-0.386,-0.378,1211.303,1999.694,1999.694,0,0,0,
,2.03,-0.175,-0.483,790.405,1999.694,1999.694,0,0,0,
,3.077,-0.196,-0.207,562.622,1999.694,1999.694,0,0,0,
,3.999,-1.218,-0.372,663.086,1999.694,1999.694,0,0,0,
,3.999,-1.128,-0.518,-9.888,1999.694,1999.694,0,0,0,
,3.692,-1.163,-0.26,-217.164,1999.694,1999.694,0,0,0,
,3.999,-0.946,0.884,23.681,1657.104,1999.694,0,0,0,
,3.999,2.081,1.042,1999.694,-485.23,-1286.744,0,0,0,
,0.083,-1.588,0.605,-973.816,533.081,-414.002,0,0,0,
,1.67,-0.966,0.065,-1431.214,963.867,745.361,0,0,0,
,1.8,0.162,-0.459,-1551.697,-96.375,461.242,0,0,0,
,1.088,0.384,-0.356,-1034.363,-939.637,-348.206,0,0,0,
,0.381,0.172,-0.36,-345.52,-1199.219,-388.733,0,0,0,
,0.135,-0.057,-0.25,-43.152,-918.457,-313.538,0,0,0,
,0.206,-0.197,-0.038,-30.701,-224.61,-116.578,0,0,0,
,0.497,-0.182,-0.152,-217.774,357.116,54.443,0,0,0,
,0.77,-0.076,-0.297,-158.448,476.867,158.447,0,0,0,
,0.873,-0.124,-0.352,20.874,325.012,98.693,0,0,0,
,0.85,-0.287,-0.307,12.268,251.648,39.856,0,0,0,
,1.097,-0.039,-0.361,-266.053,298.156,85.571,0,0,0,
,1.08,-0.043,-0.4,-117.798,40.71,-40.467,0,0,0,
,0.961,-0.148,-0.283,22.461,-137.635,-86.853,0,0,0,
,0.877,-0.219,-0.11,47.424,-108.948,-44.007,0,0,0,
,0.882,-0.247,-0.048,33.325,28.686,-2.442,0,0,0,
,0.95,-0.237,-0.039,52.612,77.88,25.695,0,0,0,
,1.002,-0.272,-0.026,103.698,72.998,30.761,0,0,0,
,1.003,-0.352,-0.013,112.854,47.119,53.1,0,0,0,
,0.973,-0.399,0.038,47.302,43.579,78.979,0,0,0,
,0.962,-0.423,0.063,-45.166,81.909,104.614,0,0,0,
,0.999,-0.422,0.054,-130.738,103.82,117.614,0,0,0,
,1.045,-0.458,0.043,-182.007,84.716,98.755,0,0,0,
,1.104,-0.562,0.04,-215.149,32.104,52.856,0,0,0,
,1.171,-0.71,0.043,-303.772,-16.602,1.342,0,0,0,
,1.203,-0.758,-0.012,-494.019,-100.708,-60.914,0,0,0,
,1.221,-0.707,-0.012,-700.745,-209.412,-142.151,0,0,0,
,1.23,-0.669,-0.009,-829.773,-295.289,-259.888,0,0,0,
,1.276,-0.713,0.035,-911.438,-364.563,-365.845,0,0,0,
,1.302,-0.669,0.019,-996.827,-470.52,-468.811,0,0,0,
,1.307,-0.608,0.025,-1028.321,-604.187,-590.516,0,0,0,
,1.232,-0.433,-0.011,-1026.062,-754.151,-733.46,0,0,0,
,1.059,-0.284,0.035,-976.38,-906.983,-972.779,0,0,0,
,0.859,-0.168,0.141,-637.696,-917.481,-1125.55,0,0,0,
,0.631,-0.162,0.221,-122.376,-787.781,-1247.742,0,0,0,
,0.431,-0.393,0.139,1319.946,-288.514,-1391.968,0,0,0,
,0.285,-0.53,0.013,1394.775,-115.662,-1455.75,0,0,0,
,0.239,-0.667,-0.128,1335.693,46.569,-1354.371,0,0,0,
,0.298,-0.844,-0.195,1168.335,128.662,-1245.057,0,0,0,
,0.415,-1.022,-0.219,764.465,103.271,-1123.841,0,0,0,
,0.464,-1.052,-0.174,178.039,59.692,-1054.017,0,0,0,
,0.402,-0.885,-0.126,-245.484,80.993,-927.247,0,0,0,
,0.359,-0.707,-0.115,-356.385,148.925,-873.108,0,0,0,
,0.341,-0.61,-0.108,-268.067,207.519,-803.528,0,0,0,
,0.354,-0.579,-0.123,-201.416,242.187,-761.658,0,0,0,
,0.354,-0.576,-0.081,-198.67,272.338,-746.705,0,0,0,
,0.357,-0.593,-0.054,-241.7,290.71,-743.287,0,0,0,
,0.386,-0.58,-0.071,-173.523,281.433,-712.952,0,0,0,
,0.41,-0.592,-0.07,5.859,272.4,-651.795,0,0,0,
,0.402,-0.716,-0.049,66.772,320.434,-596.619,0,0,0,
,0.453,-0.825,0.043,-51.697,276.001,-490.845,0,0,0,
,0.563,-0.757,0.176,-184.815,148.62,-373.658,0,0,0,
,0.547,-0.705,0.265,-282.593,46.447,-380.921,0,0,0,
,0.425,-0.748,0.251,-408.02,95.581,-417.603,0,0,0,
,0.577,-0.967,0.147,-507.63,109.924,-405.213,0,0,0,
,0.646,-0.994,0.159,-489.258,0.061,-419.983,0,0,0,
,0.572,-0.847,0.215,25.085,-77.698,-431.824,0,0,0,
,0.549,-1.053,0.187,623.108,-72.693,-378.663,0,0,0,
,0.522,-1.185,0.185,774.658,-61.28,-333.619,0,0,0,
,0.44,-1.115,0.234,638.488,-73.304,-345.948,0,0,0,
,0.374,-1.089,0.214,455.627,-91.675,-392.579,0,0,0,
,0.351,-1.06,0.158,384.277,-142.212,-402.039,0,0,0,
,0.297,-1.047,0.13,407.959,-148.316,-388.916,0,0,0,
,0.255,-1.045,0.161,460.998,-92.652,-332.947,0,0,0,
,0.234,-1.044,0.123,462.646,-7.813,-266.907,0,0,0,
,0.22,-0.981,0.055,482.238,-2.015,-239.197,0,0,0,
,0.215,-0.971,-0.053,496.276,-23.255,-251.526,0,0,0,
,0.143,-1.157,0.081,481.384,-36.377,-179.139,0,0,0,
,0.205,-1.025,0.069,412.475,-51.514,-129.456,0,0,0,
,0.176,-1.108,-0.044,331.604,5.004,-116.272,0,0,0,
,0.176,-0.987,0.002,480.651,-44.922,-43.763,0,0,0,
,0.144,-1.033,-0.003,521.728,-45.838,-56.946,0,0,0,
,0.109,-1.148,0.009,469.177,-78.98,-89.478,0,0,0,
,0.141,-1.24,-0.105,322.815,-57.801,-107.239,0,0,0,
,0.121,-1.214,-0.204,265.503,-44.129,-125.672,0,0,0,
,0.041,-1.315,-0.304,417.053,-20.874,-112.061,0,0,0,
,0.133,-1.108,-0.304,504.211,-21.363,-129.151,0,0,0,
,0.11,-0.913,-0.258,656.799,-78.492,-150.086,0,0,0,
,0.121,-1.041,-0.303,813.659,-78.125,-140.625,0,0,0,
,0.15,-1.098,-0.324,788.757,-44.739,-182.862,0,0,0,
,0.108,-1.117,-0.368,860.656,50.842,-66.346,0,0,0,
,0.092,-1.193,-0.406,878.418,104.248,-75.44,0,0,0,
,0.106,-1.196,-0.333,29.602,131.897,-48.279,0,0,0,
,0.136,-1.047,-0.312,-42.298,155.09,-20.142,0,0,0,
,0.092,-1.065,-0.35,-141.846,169.372,-48.462,0,0,0,
,0.107,-1.136,-0.502,-6.348,172.912,-41.565,0,0,0,
,0.135,-1.055,-0.545,269.104,138.488,-70.679,0,0,0,
,0.023,-1.27,-0.523,534.423,159.484,-19.349,0,0,0,
,0.077,-1.347,-0.592,547.424,226.074,-50.843,0,0,0,
,0.087,-1.38,-0.654,481.079,277.038,-118.226,0,0,0,
,0.015,-1.315,-0.751,346.374,348.938,-171.021,0,0,0,
,0.028,-1.252,-0.798,161.377,392.761,-322.815,0,0,0,
,0.004,-1.206,-0.691,68.176,396.667,-398.255,0,0,0,
,0,-1.24,-0.713,117.248,430.053,-347.046,0,0,0,
,-0.022,-1.232,-0.715,37.17,440.307,-388.611,0,0,0,
,-0.048,-1.09,-0.695,-80.445,423.645,-475.708,0,0,0,
,-0.098,-1.008,-0.586,-158.692,433.96,-569.581,0,0,0,
,-0.116,-1.053,-0.467,-187.378,468.444,-589.112,0,0,0,
,-0.169,-0.987,-0.507,-258.728,511.23,-620.484,0,0,0,
,-0.136,-0.979,-0.503,-307.862,519.226,-669.007,0,0,0,
,-0.226,-0.879,-0.525,-376.465,558.166,-687.928,0,0,0,
,-0.247,-0.891,-0.568,-326.6,562.133,-737.793,0,0,0,
,-0.246,-0.849,-0.494,-201.233,518.982,-714.844,0,0,0,
,-0.268,-0.918,-0.422,-216.797,508.117,-750.855,0,0,0,
,-0.285,-0.895,-0.444,-365.052,506.225,-773.682,0,0,0,
,-0.294,-0.795,-0.382,-360.474,489.929,-792.298,0,0,0,
,-0.334,-0.766,-0.349,-274.781,500.488,-838.135,0,0,0,
,-0.358,-0.718,-0.319,-140.198,501.709,-830.689,0,0,0,
,-0.37,-0.726,-0.309,-79.895,506.347,-828.186,0,0,0,
,-0.369,-0.736,-0.344,-47.852,491.821,-804.993,0,0,0,
,-0.39,-0.726,-0.327,-24.964,466.064,-793.152,0,0,0,
,-0.443,-0.662,-0.306,53.1,451.294,-770.02,0,0,0,
,-0.432,-0.655,-0.287,111.755,435.424,-737.61,0,0,0,
,-0.436,-0.666,-0.252,89.721,449.463,-716.736,0,0,0,
,-0.462,-0.637,-0.213,132.873,462.097,-679.749,0,0,0,
,-0.522,-0.595,-0.192,227.966,484.558,-618.103,0,0,0,
,-0.524,-0.644,-0.182,257.141,489.013,-582.642,0,0,0,
,-0.525,-0.599,-0.165,182.495,482.788,-562.5,0,0,0,
,-0.539,-0.518,-0.109,83.679,491.882,-546.998,0,0,0,
,-0.529,-0.551,-0.139,123.413,476.867,-533.387,0,0,0,
,-0.604,-0.566,-0.15,201.599,464.599,-535.218,0,0,0,
,-0.616,-0.603,-0.224,190.002,445.678,-493.409,0,0,0,
,-0.61,-0.512,-0.247,226.562,404.174,-477.845,0,0,0,
,-0.635,-0.437,-0.068,176.635,393.921,-409.607,0,0,0,
,-0.659,-0.461,-0.214,53.527,443.847,-465.577,0,0,0,
,-0.705,-0.392,-0.106,-39.368,417.175,-440.918,0,0,0,
,-0.768,-0.352,-0.002,-2.869,460.51,-409.974,0,0,0,
,-0.78,-0.473,-0.036,-97.84,452.087,-419.556,0,0,0,
,-0.784,-0.407,0.001,-55.481,453.003,-401.185,0,0,0,
,-0.822,-0.41,0.042,-224.183,473.388,-420.227,0,0,0,
,-0.817,-0.321,0.056,-229.859,478.637,-418.335,0,0,0,
,-0.812,-0.373,0.088,-174.317,458.74,-394.043,0,0,0,
,-0.833,-0.37,0.122,-170.594,427.673,-384.461,0,0,0,
,-0.848,-0.358,0.143,-233.826,415.771,-379.029,0,0,0,
,-0.863,-0.375,0.143,-253.907,424.072,-359.681,0,0,0,
,-0.868,-0.349,0.089,-294.617,431.152,-344.971,0,0,0,
,-0.882,-0.344,0.11,-272.889,404.907,-313.599,0,0,0,
,-0.883,-0.364,0.125,-270.325,387.817,-294.312,0,0,0,
,-0.9,-0.393,0.155,-330.079,379.089,-279.053,0,0,0,
,-0.923,-0.348,0.162,-367.737,376.098,-285.401,0,0,0,
,-0.933,-0.338,0.217,-302.613,355.468,-271.973,0,0,0,
,-0.933,-0.322,0.194,-232.3,303.527,-238.648,0,0,0,
,-0.944,-0.306,0.254,-216.919,281.372,-219.788,0,0,0,
,-0.971,-0.326,0.279,-277.955,272.4,-225.342,0,0,0,
,-0.992,-0.292,0.241,-264.222,285.217,-234.925,0,0,0,
,-0.975,-0.29,0.187,-209.473,287.353,-229.554,0,0,0,
,-0.974,-0.232,0.34,-324.036,299.926,-251.77,0,0,0,
,-0.962,-0.254,0.325,-345.948,293.518,-264.71,0,0,0,
,-0.941,-0.209,0.324,-345.704,288.879,-279.664,0,0,0,
,-0.93,-0.177,0.309,-304.322,287.048,-283.081,0,0,0,
,-0.927,-0.168,0.358,-307.557,268.615,-288.819,0,0,0,
,-0.923,-0.186,0.371,-341.797,249.206,-281.678,0,0,0,
,-0.905,-0.175,0.352,-388.489,240.722,-275.818,0,0,0,
,-0.898,-0.131,0.351,-368.164,241.027,-265.015,0,0,0,
,-0.894,-0.093,0.369,-310.669,249.45,-254.883,0,0,0,
,-0.901,-0.103,0.406,-289.978,240.844,-246.521,0,0,0,
,-0.894,-0.092,0.418,-267.09,213.745,-236.206,0,0,0,
,-0.887,-0.122,0.39,-268.433,195.19,-224.244,0,0,0,
,-0.889,-0.071,0.382,-187.928,180.725,-209.107,0,0,0,
,-0.883,-0.065,0.414,-156.311,176.88,-203.553,0,0,0,
,-0.897,-0.083,0.436,-201.966,187.317,-205.689,0,0,0,
,-0.904,-0.063,0.422,-263.916,210.266,-207.032,0,0,0,
,-0.909,0.015,0.47,-204.773,244.69,-194.764,0,0,0,
,-0.915,-0.007,0.504,-191.102,234.192,-191.285,0,0,0,
,-0.922,-0.019,0.514,-193.482,220.337,-183.838,0,0,0,
,-0.912,0.015,0.503,-191.651,206.543,-182.496,0,0,0,
,-0.882,0.057,0.5,-179.871,209.472,-191.529,0,0,0,
,-0.863,0.006,0.499,-162.903,206.298,-201.416,0,0,0,
,-0.867,0.006,0.494,-172.059,198.791,-210.572,0,0,0,
,-0.872,0.006,0.497,-164.551,180.786,-208.497,0,0,0,
,-0.869,0.029,0.515,-202.332,178.466,-219.361,0,0,0,
,-0.855,0.043,0.507,-212.342,180.175,-232.483,0,0,0,
,-0.845,0.08,0.518,-211.121,187.072,-242.188,0,0,0,
,-0.849,0.046,0.52,-186.341,187.805,-242.676,0,0,0,
,-0.83,0.096,0.561,-149.353,169.189,-219.3,0,0,0,
,-0.831,0.106,0.56,-140.381,169.677,-206.055,0,0,0,
,-0.813,0.144,0.521,-119.08,175.354,-193.97,0,0,0,
,-0.812,0.147,0.523,-97.29,166.259,-191.468,0,0,0,
,-0.813,0.123,0.552,-96.07,163.147,-194.642,0,0,0,
,-0.802,0.13,0.573,-122.986,160.156,-193.482,0,0,0,
,-0.796,0.143,0.578,-158.387,168.823,-187.745,0,0,0,
,-0.799,0.161,0.565,-172.913,167.053,-184.998,0,0,0,
,-0.783,0.226,0.571,-158.57,156.799,-183.411,0,0,0,
,-0.781,0.206,0.604,-151.551,148.803,-191.712,0,0,0,
,-0.791,0.204,0.615,-158.326,144.653,-187.256,0,0,0,
,-0.799,0.222,0.598,-166.199,139.343,-178.772,0,0,0,
,-0.791,0.206,0.562,-156.373,133.545,-166.321,0,0,0,
,-0.77,0.247,0.566,-131.226,128.723,-149.231,0,0,0,
,-0.76,0.241,0.585,-112.61,130.615,-154.297,0,0,0,
,-0.771,0.214,0.594,-119.812,137.695,-156.006,0,0,0,
,-0.762,0.25,0.592,-143.433,143.737,-157.715,0,0,0,
,-0.755,0.236,0.597,-138.855,146.423,-155.152,0,0,0,
,-0.738,0.251,0.618,-102.967,134.704,-151.062,0,0,0,
,-0.744,0.263,0.635,-142.09,143.066,-157.227,0,0,0,
,-0.719,0.294,0.623,-139.1,147.888,-150.696,0,0,0,
,-0.704,0.309,0.616,-119.446,132.385,-146.302,0,0,0,
,-0.695,0.326,0.619,-82.032,107.544,-143.494,0,0,0,
,-0.707,0.31,0.616,-72.632,89.538,-140.992,0,0,0,
,-0.698,0.286,0.61,-96.07,87.89,-138.306,0,0,0,
,-0.695,0.291,0.62,-133.057,97.839,-137.207,0,0,0,
,-0.673,0.336,0.583,-135.743,89.111,-126.587,0,0,0,
,-0.672,0.368,0.594,-136.597,74.218,-135.071,0,0,0,
,-0.673,0.331,0.635,-106.385,76.782,-130.127,0,0,0,
,-0.672,0.354,0.667,-133.118,89.965,-120.667,0,0,0,
,-0.679,0.376,0.689,-122.254,94.726,-102.356,0,0,0,
,-0.673,0.418,0.632,-101.685,82.397,-94.727,0,0,0,
,-0.707,0.409,0.637,-65.796,71.044,-94.178,0,0,0,
,-0.71,0.373,0.673,-27.894,72.509,-79.895,0,0,0,
,-0.69,0.366,0.643,-31.861,83.435,-66.346,0,0,0,
,-0.676,0.404,0.604,-62.806,91.003,-69.519,0,0,0,
,-0.675,0.369,0.597,-90.088,100.402,-84.046,0,0,0,
,-0.668,0.373,0.597,-136.536,113.647,-101.99,0,0,0,
,-0.659,0.358,0.623,-149.598,131.042,-109.803,0,0,0,
,-0.647,0.385,0.646,-160.34,143.371,-108.826,0,0,0,
,-0.628,0.436,0.634,-145.935,143.066,-115.418,0,0,0,
,-0.635,0.416,0.648,-123.047,139.343,-113.831,0,0,0,
,-0.63,0.446,0.669,-96.741,138.916,-110.108,0,0,0,
,-0.629,0.425,0.657,-80.811,139.831,-100.464,0,0,0,
,-0.616,0.433,0.65,-66.346,129.028,-86.06,0,0,0,
,-0.616,0.447,0.614,-62.317,111.328,-80.262,0,0,0,
,-0.609,0.473,0.597,-76.05,98.205,-87.891,0,0,0,
,-0.596,0.453,0.611,-91.431,94.543,-105.225,0,0,0,
,-0.594,0.432,0.641,-115.418,98.693,-108.704,0,0,0,
,-0.588,0.454,0.609,-147.889,97.534,-114.136,0,0,0,
,-0.592,0.474,0.615,-156.495,90.698,-116.578,0,0,0,
,-0.587,0.489,0.625,-145.874,80.749,-109.681,0,0,0,
,-0.568,0.539,0.651,-99.793,80.993,-93.079,0,0,0,
,-0.57,0.532,0.667,-91.553,86.425,-91.065,0,0,0,
,-0.561,0.493,0.645,-56.153,78.369,-72.693,0,0,0,
,-0.564,0.498,0.617,-45.35,69.702,-57.801,0,0,0,
,-0.553,0.514,0.605,-74.097,59.997,-69.397,0,0,0,
,-0.54,0.458,0.635,-70.984,60.241,-61.341,0,0,0,
,-0.527,0.489,0.628,-70.862,51.879,-42.237,0,0,0,
,-0.499,0.499,0.612,-36.744,37.475,-19.837,0,0,0,
,-0.499,0.511,0.59,-23.743,7.69,-8.423,0,0,0,
,-0.487,0.506,0.571,6.225,-24.414,11.047,0,0,0,
,-0.475,0.514,0.543,64.025,-64.026,42.358,0,0,0,
,-0.46,0.499,0.554,157.653,-99.244,81.665,0,0,0,
,-0.446,0.501,0.564,202.453,-129.212,128.784,0,0,0,
,-0.445,0.483,0.565,210.144,-141.053,153.381,0,0,0,
,-0.462,0.453,0.566,217.895,-156.434,184.265,0,0,0,
,-0.471,0.443,0.567,242.248,-176.026,212.951,0,0,0,
,-0.489,0.447,0.583,269.104,-204.834,232.116,0,0,0,
,-0.502,0.422,0.581,276.184,-230.835,253.051,0,0,0,
,-0.525,0.372,0.586,302.49,-246.644,279.785,0,0,0,
,-0.529,0.348,0.557,322.692,-270.752,309.936,0,0,0,
,-0.527,0.352,0.476,366.455,-332.154,336.731,0,0,0,
,-0.515,0.337,0.365,433.715,-409.485,368.225,0,0,0,
,-0.584,0.27,0.545,458.313,-421.936,370.3,0,0,0,
,-0.628,0.337,0.652,402.099,-395.813,348.938,0,0,0,
,-0.645,0.403,0.572,383.484,-409.974,323.364,0,0,0,
,-0.695,0.324,0.477,433.532,-435.425,329.773,0,0,0,
,-0.759,0.216,0.545,445.922,-422.303,331.848,0,0,0,
,-0.799,0.18,0.59,421.875,-393.006,321.716,0,0,0,
,-0.843,0.225,0.661,409.118,-380.066,331.421,0,0,0,
,-0.848,0.261,0.627,375.061,-404.969,341.247,0,0,0,
,-0.87,0.229,0.584,365.295,-419.983,332.397,0,0,0,
,-0.902,0.177,0.582,345.031,-406.006,316.955,0,0,0,
,-0.917,0.091,0.607,310.73,-362.183,319.946,0,0,0,
,-0.918,0.08,0.576,268.493,-355.286,332.214,0,0,0,
,-0.905,0.114,0.549,225.708,-347.962,327.514,0,0,0,
,-0.888,0.058,0.484,204.895,-341.309,308.471,0,0,0,
,-0.896,0.062,0.493,178.344,-334.595,290.466,0,0,0,
,-0.893,0.014,0.476,180.603,-312.623,283.813,0,0,0,
,-0.9,0.023,0.501,201.66,-306.153,292.541,0,0,0,
,-0.879,0.031,0.464,202.27,-310.486,295.349,0,0,0,
,-0.888,0,0.41,196.167,-314.331,289.795,0,0,0,
,-0.883,-0.021,0.366,192.993,-319.031,280.944,0,0,0,
,-0.88,-0.061,0.397,205.993,-320.313,292.602,0,0,0,
,-0.873,-0.057,0.408,226.745,-334.29,320.495,0,0,0,
,-0.863,-0.041,0.366,245.422,-358.521,346.435,0,0,0,
,-0.875,-0.053,0.293,227.05,-377.93,354.858,0,0,0,
,-0.863,-0.092,0.266,231.811,-393.189,369.995,0,0,0,
,-0.844,-0.094,0.263,233.459,-395.508,390.625,0,0,0,
,-0.836,-0.128,0.277,245.056,-405.213,414.184,0,0,0,
,-0.825,-0.153,0.264,237.671,-424.622,448.974,0,0,0,
,-0.816,-0.162,0.197,250.122,-460.938,482.91,0,0,0,
,-0.812,-0.162,0.132,325.256,-500.306,513.855,0,0,0,
,-0.82,-0.236,0.145,362.793,-541.504,548.217,0,0,0,
,-0.81,-0.299,0.157,401.184,-568.055,584.35,0,0,0,
,-0.814,-0.359,0.117,391.723,-590.821,620.788,0,0,0,
,-0.865,-0.361,0.092,346.435,-590.027,633.972,0,0,0,
,-0.886,-0.36,0.034,344.177,-596.558,646.24,0,0,0,
,-0.88,-0.395,0.006,401.367,-610.535,672.79,0,0,0,
,-0.851,-0.438,-0.067,450.561,-631.287,694.519,0,0,0,
,-0.842,-0.508,-0.054,456.848,-643.738,694.763,0,0,0,
,-0.859,-0.542,-0.117,378.784,-604.187,681.762,0,0,0,
,-0.857,-0.474,-0.081,392.028,-558.045,677.673,0,0,0,
,-0.82,-0.515,-0.045,461.792,-526.368,686.706,0,0,0,
,-0.787,-0.576,-0.01,447.815,-518.555,688.964,0,0,0,
,-0.806,-0.565,-0.089,341.919,-531.189,685.913,0,0,0,
,-0.835,-0.548,-0.155,261.413,-597.474,692.81,0,0,0,
,-0.787,-0.503,-0.109,211.853,-668.702,707.336,0,0,0,
,-0.689,-0.538,-0.066,216.125,-710.572,754.577,0,0,0,
,-0.616,-0.539,-0.068,380.615,-787.11,807.312,0,0,0,
,-0.614,-0.551,-0.147,512.573,-857.178,855.041,0,0,0,
,-0.628,-0.459,-0.137,534.24,-903.992,868.469,0,0,0,
,-0.585,-0.47,-0.178,500.305,-900.696,844.299,0,0,0,
,-0.56,-0.473,-0.228,533.752,-877.015,815.918,0,0,0,
,-0.541,-0.562,-0.396,576.416,-830.872,769.653,0,0,0,
,-0.531,-0.725,-0.561,582.519,-858.216,710.388,0,0,0,
,-0.594,-0.807,-0.488,566.772,-900.086,685.485,0,0,0,
,-0.577,-0.885,-0.416,449.89,-811.097,637.207,0,0,0,
,-0.523,-0.875,-0.503,304.321,-698.67,598.571,0,0,0,
,-0.546,-0.773,-0.582,15.502,-626.16,514.831,0,0,0,
,-0.533,-0.678,-0.615,-54.627,-600.586,432.861,0,0,0,
,-0.481,-0.783,-0.49,104.492,-582.276,363.464,0,0,0,
,-0.429,-0.966,-0.475,268.615,-506.043,395.446,0,0,0,
,-0.421,-0.96,-0.526,193.908,-423.645,402.099,0,0,0,
,-0.398,-0.754,-0.653,46.142,-376.587,381.042,0,0,0,
,-0.366,-0.688,-0.714,2.563,-363.953,315.734,0,0,0,
,-0.33,-0.679,-0.734,164.795,-409.058,298.95,0,0,0,
,-0.267,-0.824,-0.599,348.51,-359.559,310.547,0,0,0,
,-0.2,-0.913,-0.61,244.262,-255.921,221.74,0,0,0,
,-0.233,-0.889,-0.734,46.569,-197.571,283.691,0,0,0,
,-0.251,-0.718,-0.86,-36.744,-185.364,250.854,0,0,0,
,-0.207,-0.756,-0.969,117.797,-215.455,276.062,0,0,0,
,-0.092,-0.829,-0.846,334.533,-276.978,288.696,0,0,0,
,-0.107,-1.043,-0.745,220.214,-207.703,276.977,0,0,0,
,-0.091,-1.099,-0.807,-7.569,-85.816,277.649,0,0,0,
,-0.134,-0.902,-0.925,-280.64,-53.162,237.854,0,0,0,
,-0.11,-0.778,-0.894,-240.784,-73.487,226.257,0,0,0,
,-0.033,-0.821,-0.768,-97.596,-91.187,206.909,0,0,0,
,0.001,-0.875,-0.699,-25.818,-91.614,220.031,0,0,0,
,0.017,-0.88,-0.666,13.488,-76.966,254.211,0,0,0,
,0.017,-0.877,-0.698,30.578,-59.998,259.887,0,0,0,
,0.04,-0.893,-0.8,-12.879,-51.575,250.366,0,0,0,
,0.133,-0.89,-0.767,82.702,-104.615,248.779,0,0,0,
,0.145,-0.963,-0.634,174.682,-137.94,231.018,0,0,0,
,0.06,-1.02,-0.611,105.468,-78.614,216.369,0,0,0,
,0.039,-0.975,-0.76,-92.102,-0.428,139.465,0,0,0,
,0.094,-0.85,-0.787,-117.493,-78.064,105.896,0,0,0,
,0.056,-0.889,-0.697,5.92,-129.09,72.998,0,0,0,
,0.014,-0.915,-0.658,15.38,-102.539,70.129,0,0,0,
,0.015,-0.854,-0.707,-12.513,-79.712,65.002,0,0,0,
,0.017,-0.806,-0.75,-20.874,-91.858,36.987,0,0,0,
,0.026,-0.802,-0.722,18.371,-114.319,31.005,0,0,0,
,0.03,-0.832,-0.713,43.151,-107.972,15.197,0,0,0,
,0.044,-0.82,-0.699,52.002,-95.093,24.231,0,0,0,
,0.041,-0.836,-0.751,16.052,-54.017,29.663,0,0,0,
,0.077,-0.812,-0.764,-31.678,-46.509,22.338,0,0,0,
,0.049,-0.815,-0.776,-52.613,-51.88,11.413,0,0,0,
,0.079,-0.757,-0.709,-11.597,-67.627,11.291,0,0,0,
,0.059,-0.816,-0.633,40.832,-46.753,16.235,0,0,0,
,0.061,-0.857,-0.684,-17.212,-0.733,37.475,0,0,0,
,0.086,-0.794,-0.729,-61.036,-1.16,36.865,0,0,0,
,0.096,-0.776,-0.773,12.512,-32.532,12.268,0,0,0,
,0.097,-0.687,-0.687,348.571,-122.498,34.668,0,0,0,
,-0.008,-0.891,-0.659,126.464,-89.539,-75.501,0,0,0,
,0.092,-0.896,-0.634,12.634,-30.396,-19.043,0,0,0,
,0.063,-0.87,-0.649,-197.083,-26.978,-7.386,0,0,0,
,0.085,-0.727,-0.738,-42.176,-7.386,20.935,0,0,0,
,0.078,-0.756,-0.659,-115.113,-46.021,1.525,0,0,0,
,0.056,-0.915,-0.759,-43.457,20.629,24.231,0,0,0,
,0.156,-0.918,-0.767,-242.493,38.086,57.495,0,0,0,
,0.125,-0.837,-0.705,-345.581,-2.198,69.091,0,0,0,
,0.184,-0.784,-0.518,-387.818,-47.913,113.403,0,0,0,
,0.145,-0.997,-0.55,-501.404,-8.118,117.309,0,0,0,
,0.151,-1.043,-0.6,-692.444,-25.208,131.958,0,0,0,
,0.146,-0.922,-0.606,-792.725,-61.219,127.441,0,0,0,
,0.181,-0.839,-0.573,-706.665,-84.351,145.202,0,0,0,
,0.198,-0.932,-0.411,-632.935,-160.218,133.545,0,0,0,
,0.195,-0.975,-0.355,-648.987,-147.706,203.857,0,0,0,
,0.12,-1.094,-0.514,-770.813,-69.642,260.864,0,0,0,
,0.234,-0.967,-0.289,-804.871,-80.323,397.705,0,0,0,
,0.306,-0.76,-0.26,-513.062,-78.858,408.752,0,0,0,
,0.436,-1.115,-0.346,-248.536,-51.331,305.481,0,0,0,
,0.556,-1.409,-0.355,-432.557,-145.142,263.794,0,0,0,
,0.613,-1.429,-0.296,-638.916,-208.497,199.401,0,0,0,
,0.633,-1.401,-0.29,-814.331,-215.882,174.255,0,0,0,
,0.652,-1.309,-0.309,-1002.259,-237.61,170.471,0,0,0,
,0.626,-1.059,-0.253,-1126.038,-268.189,155.822,0,0,0,
,0.598,-0.882,-0.23,-1106.995,-257.081,154.846,0,0,0,
,0.558,-0.585,-0.169,-830.018,-219.422,118.103,0,0,0,
,0.529,-0.577,-0.183,-309.754,-150.696,122.436,0,0,0,
,0.555,-0.692,-0.181,31.25,-112.793,195.495,0,0,0,
,0.523,-0.674,-0.157,153.137,-65.369,291.87,0,0,0,
,0.447,-0.655,-0.161,126.526,-3.602,398.071,0,0,0,
,0.38,-0.631,-0.16,5.92,43.945,494.506,0,0,0,
,0.312,-0.609,-0.141,-188.66,86.059,562.988,0,0,0,
,0.266,-0.597,-0.116,-362.122,155.517,659.79,0,0,0,
,0.226,-0.578,-0.092,-486.634,208.374,780.578,0,0,0,
,0.223,-0.538,-0.087,-555.664,257.385,936.279,0,0,0,
,0.208,-0.519,-0.109,-650.574,286.377,1102.905,0,0,0,
,0.189,-0.516,-0.146,-655.64,308.96,1239.563,0,0,0,
,0.237,-0.508,-0.094,-471.009,298.95,1356.689,0,0,0,
,0.285,-0.45,-0.067,-166.687,250.61,1433.593,0,0,0,
,0.327,-0.499,-0.079,92.224,183.654,1416.076,0,0,0,
,0.414,-0.69,-0.095,218.139,129.821,1403.503,0,0,0,
,0.648,-0.717,-0.127,141.906,70.556,1423.095,0,0,0,
,0.741,-0.723,-0.215,148.315,81.176,1395.752,0,0,0,
,0.862,-0.706,-0.273,118.774,57.556,1406.921,0,0,0,
,0.991,-0.646,-0.29,114.135,-15.198,1360.778,0,0,0,
,1.114,-0.69,-0.257,140.197,-105.347,1268.493,0,0,0,
,1.142,-0.845,-0.231,64.636,-156.8,954.956,0,0,0,
,1.077,-0.691,-0.354,135.742,-143.738,769.592,0,0,0,
,0.999,-0.493,-0.366,361.816,-116.883,498.962,0,0,0,
,0.906,-0.444,-0.388,724.426,-54.139,121.765,0,0,0,
,0.937,-0.527,-0.234,1080.81,-31.495,-180.115,0,0,0,
,0.916,-0.726,-0.154,929.687,19.897,-400.635,0,0,0,
,0.895,-0.726,-0.022,510.925,65.918,-404.541,0,0,0,
,0.988,-0.555,0.225,100.28,153.442,-398.072,0,0,0,
,1.057,-0.501,0.324,-98.877,162.109,-395.691,0,0,0,
,1.219,-0.485,0.443,-446.473,-29.602,-311.402,0,0,0,
,1.008,-0.166,0.312,-635.804,-203.431,-65.369,0,0,0,
,0.792,0.068,0.196,-527.955,-116.517,-92.164,0,0,0,
,0.851,-0.137,0.024,-307.801,50.354,-164.978,0,0,0,
,0.958,-0.297,-0.051,-237.977,71.838,-83.863,0,0,0,
,0.921,-0.316,-0.047,-399.414,55.481,91.064,0,0,0,
,0.835,-0.188,-0.072,-457.947,114.257,151.672,0,0,0,
,0.876,-0.178,-0.121,-391.785,169.555,136.535,0,0,0,
,0.951,-0.25,-0.145,-354.126,155.151,80.81,0,0,0,
,0.937,-0.261,-0.126,-335.816,95.764,79.589,0,0,0,
,0.876,-0.267,-0.099,-359.62,120.117,70.007,0,0,0,
,0.887,-0.268,-0.09,-374.268,179.748,110.901,0,0,0,
,0.966,-0.288,-0.07,-373.108,201.294,126.648,0,0,0,
,1.02,-0.355,-0.009,-371.338,147.4,129.943,0,0,0,
,1.001,-0.42,0.055,-416.748,103.088,140.747,0,0,0,
,0.984,-0.49,0.129,-536.744,98.144,167.358,0,0,0,
,1.001,-0.545,0.177,-699.83,130.737,197.57,0,0,0,
,1.065,-0.635,0.243,-954.041,175.903,247.985,0,0,0,
,1.215,-0.788,0.435,-1186.463,184.936,348.022,0,0,0,
,1.322,-0.839,0.626,-1303.772,192.566,443.664,0,0,0,
,1.466,-0.877,0.762,-1377.564,183.349,489.868,0,0,0,
,1.675,-0.723,0.86,-1403.931,180.664,521.057,0,0,0,
,1.887,-0.189,0.931,-1230.286,98.205,348.144,0,0,0,
,2.335,0.189,0.942,-711.853,-84.656,67.199,0,0,0,
,3.048,-0.083,0.667,-124.024,-658.081,-271.668,0,0,0,
,3.479,-0.459,0.338,-147.4,-1613.953,-704.041,0,0,0,
,3.44,-0.305,0.26,-391.297,-2000,-1145.386,0,0,0,
,3.439,-0.115,0.267,-406.922,-2000,-1542.542,0,0,0,
,3.514,-0.112,0.304,-262.94,-2000,-1843.506,0,0,0,
,3.523,-0.354,0.28,9.582,-2000,-2000,0,0,0,
,3.317,-0.751,0.105,317.505,-2000,-2000,0,0,0,
,2.991,-0.786,-0.07,317.505,-2000,-2000,0,0,0,
,2.638,-0.623,-0.161,399.353,-2000,-2000,0,0,0,
,2.361,-0.541,-0.399,401.489,-2000,-2000,0,0,0,
,1.953,-0.491,-0.511,230.774,-2000,-2000,0,0,0,
,2.092,-0.435,-0.613,57.312,-2000,-2000,0,0,0,
,2.183,-0.345,-0.416,-297.913,-2000,-2000,0,0,0,
,2.037,-0.203,-0.325,-771.363,-2000,-2000,0,0,0,
,2.378,0.043,-0.599,-1009.156,-2000,-2000,0,0,0,
,2.095,0.194,-0.831,-1078.125,-2000,-2000,0,0,0,
,1.88,0.359,-1.239,-799.073,-2000,-2000,0,0,0,
,1.541,0.914,-1.762,46.447,-2000,-2000,0,0,0,
,0.973,2.456,-2.327,1544.86,-2000,-2000,0,0,0,
,0.769,3.493,-1.798,1999.694,-2000,-2000,0,0,0,
,0.765,0.207,-1.209,737.243,-676.636,-1381.043,0,0,0,
,0.474,0.216,-1.342,-1734.07,868.042,617.859,0,0,0,
,0.217,0.132,-1.129,-1615.784,1954.528,1967.956,0,0,0,
,0.17,0.332,-0.754,-433.594,1999.694,1999.694,0,0,0,
,0.213,0.333,-0.654,270.385,1999.694,1999.694,0,0,0,
,0.501,0.639,-0.621,961.547,1999.694,1999.694,0,0,0,
,0.708,0.679,-0.47,1625.488,1999.694,1999.694,0,0,0,
,0.774,0.427,-0.228,1748.352,1999.694,1999.694,0,0,0,
,0.843,0.318,-0.152,1475.097,1999.694,1999.694,0,0,0,
,0.962,0.253,-0.158,1152.893,1999.694,1999.694,0,0,0,
,1.144,0.169,-0.299,893.188,1999.694,1999.694,0,0,0,
,1.308,0.154,-0.475,766.906,1999.694,1999.694,0,0,0,
,1.659,0.209,-0.736,795.288,1999.694,1999.694,0,0,0,
,1.976,-0.007,-0.777,785.705,1999.694,1999.694,0,0,0,
,2.301,-0.432,-0.594,525.634,1999.694,1999.694,0,0,0,
,2.399,-0.853,-0.317,287.78,1999.694,1999.694,0,0,0,
,2.625,-0.754,-0.039,640.258,1999.694,1999.694,0,0,0,
,3.11,0.429,-0.47,1746.338,1999.694,1999.694,0,0,0,
,3.999,-0.471,-1.599,1999.694,1999.694,1999.694,0,0,0,
,3.999,-2.807,-1.365,408.142,1999.694,1999.694,0,0,0,
,3.169,-2.567,-0.53,-1999.024,1494.14,1999.694,0,0,0,
,3.237,-1.904,0.033,-2000,1999.694,1999.694,0,0,0,
,3.999,3.999,3.999,1999.694,611.755,1133.789,0,0,0,
,2.216,-4,-0.62,1999.694,-2000,-2000,0,0,0,
,-0.7,-2.401,-0.081,1178.527,-1852.845,-1437.073,0,0,0,
,-0.464,-0.71,-0.129,-421.57,-211.548,-570.435,0,0,0,
,0.828,-0.739,0.035,-840.027,994.506,-188.538,0,0,0,
,1.508,-0.556,-0.503,-893.067,599.792,199.34,0,0,0,
,0.986,0.077,-0.191,-1138.123,-66.285,-259.827,0,0,0,
,0.43,0.07,-0.054,-717.53,-75.379,-383.545,0,0,0,
,0.36,-0.041,-0.135,-94.422,301.941,-67.688,0,0,0,
,0.615,-0.138,-0.346,199.707,581.726,78.002,0,0,0,
,0.824,-0.127,-0.551,178.65,372.253,166.565,0,0,0,
,0.846,-0.088,-0.544,39.123,-17.579,89.416,0,0,0,
,0.726,-0.14,-0.455,-120.423,-205.506,3.723,0,0,0,
,0.73,-0.307,-0.307,-428.589,-140.625,95.52,0,0,0,
,0.843,-0.314,-0.284,-760.071,53.649,271.24,0,0,0,
,0.984,-0.167,-0.296,-917.176,130.127,395.202,0,0,0,
,1.079,-0.153,-0.314,-882.935,75.683,364.074,0,0,0,
,1.053,-0.178,-0.292,-772.828,-29.602,305.236,0,0,0,
,0.967,-0.178,-0.213,-641.907,-55.726,280.212,0,0,0,
,0.925,-0.164,-0.152,-502.442,17.7,253.234,0,0,0,
,0.992,-0.172,-0.051,-373.963,85.815,205.139,0,0,0,
,1.081,-0.136,0.078,-174.622,73.059,75.195,0,0,0,
,1.169,-0.073,0.353,317.077,43.64,-61.89,0,0,0,
,1.135,-0.313,0.369,521.362,2.624,-295.777,0,0,0,
,1.073,-0.542,0.325,454.04,-22.156,-246.644,0,0,0,
,1.013,-0.547,0.159,196.289,-11.841,-124.024,0,0,0,
,0.987,-0.447,0.042,-102.906,-37.903,-56.275,0,0,0,
,0.969,-0.372,-0.015,-289.002,-65.491,-19.288,0,0,0,
,0.964,-0.368,-0.041,-427.369,-85.083,12.39,0,0,0,
,0.941,-0.363,-0.06,-552.857,-86.182,47.79,0,0,0,
,0.926,-0.412,-0.033,-613.77,-76.355,55.236,0,0,0,
,0.979,-0.554,-0.009,-559.571,-39.795,49.682,0,0,0,
,1.096,-0.815,0.012,-553.65,-6.653,31.005,0,0,0,
,1.172,-0.929,-0.03,-638.916,-3.785,-5.555,0,0,0,
,1.192,-0.799,-0.067,-780.457,-45.838,-76.905,0,0,0,
,1.203,-0.595,-0.103,-772.706,-117.981,-212.891,0,0,0,
,1.247,-0.514,-0.081,-647.4,-229.187,-415.223,0,0,0,
,1.266,-0.487,-0.072,-515.686,-361.268,-646.424,0,0,0,
,1.186,-0.495,0.004,-419.8,-473.389,-938.599,0,0,0,
,1.07,-0.439,0.029,-172.303,-491.456,-1156.983,0,0,0,
,0.945,-0.43,0.088,125.061,-501.221,-1342.103,0,0,0,
,0.801,-0.486,0.086,329.162,-484.375,-1468.079,0,0,0,
,0.679,-0.636,0.092,383.484,-463.196,-1518.555,0,0,0,
,0.577,-0.664,0.037,261.474,-453.919,-1539.307,0,0,0,
,0.495,-0.638,0.03,163.025,-518.006,-1573.792,0,0,0,
,0.341,-0.528,0.046,209.106,-586.609,-1629.029,0,0,0,
,0.247,-0.509,0.102,287.719,-557.007,-1572.754,0,0,0,
,0.172,-0.605,0.053,-41.81,-509.766,-1417.481,0,0,0,
,0.216,-0.733,0.022,-478.821,-551.575,-1411.744,0,0,0,
,0.181,-0.626,0.218,-425.477,-671.387,-1078.431,0,0,0,
,0.201,-0.582,0.262,-304.2,-604.554,-892.09,0,0,0,
,0.262,-0.482,0.199,-241.456,-566.285,-832.032,0,0,0,
,0.218,-0.466,0.289,-110.474,-507.935,-810.791,0,0,0,
,0.214,-0.496,0.332,122.009,-379.09,-684.021,0,0,0,
,0.214,-0.582,0.346,363.83,-139.893,-452.271,0,0,0,
,0.346,-0.67,0.229,450.439,75.622,-240.906,0,0,0,
,0.426,-0.57,0.158,364.135,133.606,-146.851,0,0,0,
,0.467,-0.491,0.218,405.334,51.147,-190.125,0,0,0,
,0.446,-0.69,0.177,520.141,-14.344,-163.269,0,0,0,
,0.506,-0.845,0.157,536.743,-73.792,-154.419,0,0,0,
,0.439,-1.173,0.354,393.127,-105.652,-313.233,0,0,0,
,0.395,-1.34,0.334,226.257,-76.539,-316.834,0,0,0,
,0.319,-1.152,0.264,301.33,-5.127,-210.755,0,0,0,
,0.28,-1.027,0.174,482.483,23.132,-152.588,0,0,0,
,0.338,-1.001,0.13,603.759,-65.674,-204.895,0,0,0,
,0.209,-1.284,0.262,308.349,-166.321,-315.857,0,0,0,
,0.165,-1.217,0.141,243.164,-113.282,-328.125,0,0,0,
,0.177,-1.059,0.073,440.307,-79.102,-326.416,0,0,0,
,0.199,-0.937,-0.094,751.098,-62.684,-374.878,0,0,0,
,0.082,-1.062,-0.089,1033.813,-49.622,-325.501,0,0,0,
,0.061,-0.986,-0.207,1101.379,-49.744,-301.331,0,0,0,
,-0.035,-0.942,-0.304,1506.591,12.573,-205.262,0,0,0,
,-0.058,-1.014,-0.369,1712.951,70.495,-130.249,0,0,0,
,-0.013,-1.161,-0.362,1358.886,71.594,-161.683,0,0,0,
,-0.061,-1.249,-0.359,885.376,89.965,-159.302,0,0,0,
,-0.012,-0.898,-0.286,708.068,102.356,-79.407,0,0,0,
,-0.003,-0.875,-0.304,956.543,73.974,-104.554,0,0,0,
,-0.062,-1.123,-0.322,861.45,77.392,-78.492,0,0,0,
,-0.052,-0.874,-0.459,233.459,80.627,13.732,0,0,0,
,-0.047,-1.042,-0.396,433.96,156.433,94.421,0,0,0,
,0.001,-1.117,-0.608,86.792,207.397,94.116,0,0,0,
,0.036,-1.026,-0.744,-85.511,175.781,100.647,0,0,0,
,0.029,-1.012,-0.62,-44.129,135.986,47.058,0,0,0,
,-0.016,-1.292,-0.597,-73.975,207.397,47.424,0,0,0,
,0.008,-1.138,-0.689,-103.211,262.329,62.011,0,0,0,
,0.028,-1.061,-0.751,2.502,244.812,52.734,0,0,0,
,0.031,-1.062,-0.748,170.898,200.683,9.277,0,0,0,
,0,-1.172,-0.705,303.039,178.405,-18.067,0,0,0,
,-0.022,-1.216,-0.643,361.389,211.792,-24.414,0,0,0,
,-0.078,-1.248,-0.713,382.385,304.687,-48.218,0,0,0,
,-0.106,-1.212,-0.807,398.681,369.567,-83.863,0,0,0,
,-0.124,-1.26,-0.855,376.77,406.494,-128.846,0,0,0,
,-0.143,-1.292,-0.843,316.284,438.415,-165.467,0,0,0,
,-0.166,-1.213,-0.683,199.646,474.731,-227.417,0,0,0,
,-0.227,-1.04,-0.726,88.012,567.199,-310.425,0,0,0,
,-0.213,-1.087,-0.8,88.562,611.206,-364.014,0,0,0,
,-0.203,-1.105,-0.76,58.044,588.501,-371.949,0,0,0,
,-0.235,-1.045,-0.722,14.282,586.609,-374.451,0,0,0,
,-0.242,-0.884,-0.61,10.925,616.333,-425.66,0,0,0,
,-0.278,-0.796,-0.591,-8.545,669.922,-529.297,0,0,0,
,-0.288,-0.886,-0.7,31.372,717.895,-543.702,0,0,0,
,-0.374,-0.9,-0.672,16.113,692.321,-535.279,0,0,0,
,-0.357,-0.93,-0.582,-40.039,687.011,-462.952,0,0,0,
,-0.39,-0.771,-0.41,-233.948,706.604,-635.193,0,0,0,
,-0.427,-0.771,-0.443,-318.421,681.884,-583.68,0,0,0,
,-0.454,-0.763,-0.449,-333.924,628.173,-572.632,0,0,0,
,-0.46,-0.721,-0.385,-304.017,606.567,-563.294,0,0,0,
,-0.438,-0.69,-0.275,-287.049,604.98,-562.989,0,0,0,
,-0.449,-0.655,-0.207,-385.315,598.877,-598.755,0,0,0,
,-0.478,-0.582,-0.259,-421.875,587.951,-623.841,0,0,0,
,-0.481,-0.634,-0.335,-368.226,549.194,-629.09,0,0,0,
,-0.475,-0.64,-0.306,-312.317,495.3,-601.38,0,0,0,
,-0.495,-0.576,-0.277,-288.392,453.735,-599.976,0,0,0,
,-0.492,-0.507,-0.216,-241.578,447.387,-598.084,0,0,0,
,-0.525,-0.457,-0.3,-229.615,351.867,-552.063,0,0,0,
,-0.532,-0.433,-0.278,-120.423,319.641,-544.312,0,0,0,
,-0.534,-0.392,-0.244,107.666,301.574,-512.024,0,0,0,
,-0.618,-0.378,-0.15,139.16,276.245,-539.612,0,0,0,
,-0.646,-0.51,-0.063,143.188,286.987,-530.03,0,0,0,
,-0.773,-0.436,-0.112,152.893,387.695,-386.536,0,0,0,
,-0.814,-0.468,-0.103,62.072,411.438,-391.236,0,0,0,
,-0.829,-0.437,0,-37.232,475.769,-402.466,0,0,0,
,-0.853,-0.409,0.033,-136.719,554.321,-408.509,0,0,0,
,-0.876,-0.448,0.045,-231.934,611.328,-413.758,0,0,0,
,-0.867,-0.398,0.163,-160.096,544.189,-392.945,0,0,0,
,-0.886,-0.385,0.26,-126.587,533.264,-388.123,0,0,0,
,-0.916,-0.416,0.222,-166.993,532.226,-381.836,0,0,0,
,-0.89,-0.319,0.151,-202.454,524.292,-373.902,0,0,0,
,-0.886,-0.307,0.099,-294.373,503.296,-388.001,0,0,0,
,-0.886,-0.333,0.223,-338.807,478.027,-384.217,0,0,0,
,-0.889,-0.357,0.28,-300.904,458.801,-345.948,0,0,0,
,-0.909,-0.289,0.304,-253.846,435.547,-319.275,0,0,0,
,-0.921,-0.287,0.272,-310.059,418.64,-303.101,0,0,0,
,-0.911,-0.243,0.244,-380.555,409.484,-300.721,0,0,0,
,-0.891,-0.256,0.223,-358.582,388.794,-286.377,0,0,0,
,-0.889,-0.281,0.28,-333.374,361.572,-266.053,0,0,0,
,-0.88,-0.242,0.27,-285.157,341.491,-241.211,0,0,0,
,-0.874,-0.196,0.271,-319.703,329.04,-243.775,0,0,0,
,-0.875,-0.238,0.306,-302.918,340.088,-234.559,0,0,0,
,-0.882,-0.244,0.319,-321.106,352.478,-231.08,0,0,0,
,-0.906,-0.216,0.323,-301.941,339.05,-221.497,0,0,0,
,-0.898,-0.184,0.329,-265.015,307.678,-214.173,0,0,0,
,-0.905,-0.169,0.387,-263.611,288.757,-211.365,0,0,0,
,-0.899,-0.173,0.401,-214.6,279.174,-202.21,0,0,0,
,-0.918,-0.186,0.385,-184.571,273.071,-193.177,0,0,0,
,-0.914,-0.147,0.409,-171.143,269.653,-192.2,0,0,0,
,-0.898,-0.122,0.353,-175.354,268.31,-204.163,0,0,0,
,-0.898,-0.142,0.391,-205.75,267.028,-211.365,0,0,0,
,-0.904,-0.169,0.427,-218.018,261.901,-213.685,0,0,0,
,-0.899,-0.112,0.466,-204.834,266.235,-210.877,0,0,0,
,-0.896,-0.075,0.484,-196.839,265.258,-202.698,0,0,0,
,-0.902,-0.03,0.52,-184.082,256.103,-198.426,0,0,0,
,-0.902,-0.088,0.498,-156.678,249.084,-187.867,0,0,0,
,-0.902,-0.037,0.523,-153.87,233.337,-181.885,0,0,0,
,-0.9,-0.082,0.497,-167.847,225.647,-180.42,0,0,0,
,-0.883,-0.036,0.547,-208.985,226.196,-184.205,0,0,0,
,-0.846,-0.027,0.5,-204.346,228.881,-162.842,0,0,0,
,-0.839,0.007,0.498,-163.147,213.44,-162.964,0,0,0,
,-0.833,0,0.487,-160.645,190.734,-172.852,0,0,0,
,-0.828,-0.018,0.514,-174.683,170.471,-202.332,0,0,0,
,-0.786,0.002,0.46,-95.52,161.926,-180.298,0,0,0,
,-0.773,-0.016,0.476,-108.765,144.592,-195.435,0,0,0,
,-0.789,-0.019,0.532,-140.259,138,-213.807,0,0,0,
,-0.804,0.018,0.577,-138.306,145.507,-211.609,0,0,0,
,-0.814,0.032,0.588,-105.164,149.17,-197.327,0,0,0,
,-0.838,0.096,0.621,-40.284,103.637,-170.777,0,0,0,
,-0.839,0.06,0.634,-61.036,110.168,-170.105,0,0,0,
,-0.829,0.066,0.596,-108.521,129.333,-164.307,0,0,0,
,-0.808,0.104,0.566,-156.922,141.113,-162.903,0,0,0,
,-0.806,0.11,0.631,-232.85,147.033,-183.472,0,0,0,
,-0.766,0.137,0.609,-268.189,160.339,-187.806,0,0,0,
,-0.745,0.161,0.596,-253.418,149.047,-187.317,0,0,0,
,-0.737,0.168,0.569,-193.116,127.807,-183.228,0,0,0,
,-0.758,0.18,0.615,-96.07,115.478,-168.702,0,0,0,
,-0.756,0.16,0.604,-69.703,132.873,-125.916,0,0,0,
,-0.747,0.182,0.575,-134.034,156.86,-134.461,0,0,0,
,-0.744,0.197,0.625,-127.137,173.217,-131.409,0,0,0,
,-0.738,0.232,0.654,-85.755,175.232,-120.789,0,0,0,
,-0.729,0.252,0.67,-34.974,156.494,-114.136,0,0,0,
,-0.729,0.199,0.672,-49.439,159.118,-117.371,0,0,0,
,-0.738,0.168,0.681,-88.562,172.241,-117.92,0,0,0,
,-0.75,0.182,0.703,-90.21,166.992,-111.939,0,0,0,
,-0.727,0.243,0.692,-109.925,155.334,-117.249,0,0,0,
,-0.715,0.262,0.689,-146.729,139.465,-138.977,0,0,0,
,-0.718,0.245,0.728,-162.415,139.831,-150.208,0,0,0,
,-0.718,0.229,0.717,-157.898,145.263,-148.926,0,0,0,
,-0.703,0.25,0.679,-154.053,140.319,-146.973,0,0,0,
,-0.677,0.284,0.632,-141.297,117.553,-154.053,0,0,0,
,-0.675,0.269,0.65,-165.528,96.496,-181.58,0,0,0,
,-0.67,0.224,0.711,-172.791,121.521,-179.383,0,0,0,
,-0.681,0.229,0.68,-217.408,149.963,-172.669,0,0,0,
,-0.645,0.315,0.628,-192.078,141.113,-152.344,0,0,0,
,-0.634,0.334,0.61,-111.329,101.989,-155.396,0,0,0,
,-0.648,0.302,0.635,-71.778,88.012,-156.067,0,0,0,
,-0.649,0.264,0.673,-68.787,109.436,-140.381,0,0,0,
,-0.657,0.294,0.685,-61.219,132.751,-131.287,0,0,0,
,-0.627,0.345,0.58,-51.331,109.069,-122.437,0,0,0,
,-0.637,0.376,0.62,-48.401,105.896,-136.719,0,0,0,
,-0.634,0.296,0.69,-95.398,128.051,-140.87,0,0,0,
,-0.65,0.34,0.753,-118.103,149.353,-134.461,0,0,0,
,-0.638,0.385,0.751,-93.873,142.944,-120.301,0,0,0,
,-0.626,0.428,0.64,-62.317,99.914,-118.226,0,0,0,
,-0.605,0.423,0.64,-27.344,66.772,-122.559,0,0,0,
,-0.621,0.35,0.719,-65.308,87.219,-126.709,0,0,0,
,-0.63,0.344,0.743,-131.165,118.774,-129.456,0,0,0,
,-0.605,0.356,0.749,-182.496,136.352,-124.512,0,0,0,
,-0.59,0.392,0.678,-209.595,123.169,-116.333,0,0,0,
,-0.559,0.429,0.66,-190.796,110.717,-108.46,0,0,0,
,-0.565,0.407,0.706,-158.936,109.436,-101.014,0,0,0,
,-0.56,0.434,0.725,-101.502,106.14,-81.482,0,0,0,
,-0.56,0.443,0.726,-60.73,103.149,-73.67,0,0,0,
,-0.548,0.43,0.696,-85.144,98.266,-83.924,0,0,0,
,-0.565,0.404,0.696,-150.025,105.957,-103.516,0,0,0,
,-0.559,0.398,0.688,-180.542,120.788,-104.31,0,0,0,
,-0.55,0.388,0.687,-164.917,128.051,-95.398,0,0,0,
,-0.547,0.44,0.682,-149.72,110.656,-82.459,0,0,0,
,-0.527,0.478,0.687,-139.832,92.102,-86.182,0,0,0,
,-0.528,0.458,0.71,-144.532,87.89,-99.366,0,0,0,
,-0.521,0.453,0.696,-146.485,94.726,-96.924,0,0,0,
,-0.503,0.459,0.674,-94.849,86.792,-74.097,0,0,0,
,-0.499,0.496,0.671,-47.791,61.401,-46.326,0,0,0,
,-0.485,0.528,0.655,-28.321,26.55,-31.25,0,0,0,
,-0.477,0.487,0.675,-7.813,12.023,-17.518,0,0,0,
,-0.465,0.457,0.658,-29.541,8.056,9.033,0,0,0,
,-0.442,0.479,0.649,-19.165,2.807,48.889,0,0,0,
,-0.421,0.512,0.611,-14.466,-24.537,74.035,0,0,0,
,-0.412,0.516,0.58,43.823,-71.9,88.928,0,0,0,
,-0.431,0.505,0.665,113.22,-101.075,112.609,0,0,0,
,-0.438,0.434,0.666,143.432,-105.713,145.752,0,0,0,
,-0.464,0.45,0.667,178.955,-123.108,177.795,0,0,0,
,-0.472,0.428,0.618,175.842,-152.283,190.185,0,0,0,
,-0.475,0.437,0.588,177.49,-179.078,204.651,0,0,0,
,-0.471,0.42,0.62,225.586,-204.407,225.83,0,0,0,
,-0.468,0.426,0.66,277.038,-225.892,248.657,0,0,0,
,-0.487,0.39,0.614,297.18,-258.606,256.836,0,0,0,
,-0.506,0.372,0.529,313.11,-300.904,264.16,0,0,0,
,-0.471,0.355,0.554,346.313,-335.389,284.546,0,0,0,
,-0.562,0.288,0.623,348.327,-339.905,301.635,0,0,0,
,-0.561,0.295,0.622,333.618,-357.544,313.171,0,0,0,
,-0.599,0.309,0.609,353.271,-395.508,318.481,0,0,0,
,-0.605,0.313,0.526,385.437,-436.402,335.083,0,0,0,
,-0.599,0.295,0.561,460.693,-456.665,355.713,0,0,0,
,-0.669,0.214,0.645,472.473,-438.05,363.769,0,0,0,
,-0.687,0.235,0.615,463.806,-435.975,388.549,0,0,0,
,-0.712,0.207,0.537,457.58,-460.633,409.423,0,0,0,
,-0.731,0.18,0.51,473.938,-492.92,430.481,0,0,0,
,-0.784,0.121,0.569,500.061,-489.319,434.509,0,0,0,
,-0.828,0.049,0.591,472.29,-474.244,434.753,0,0,0,
,-0.837,0.047,0.579,416.198,-478.821,441.528,0,0,0,
,-0.817,0.073,0.429,391.113,-522.644,448.059,0,0,0,
,-0.825,0.038,0.377,414.917,-545.838,438.659,0,0,0,
,-0.886,-0.018,0.479,422.546,-529.786,418.09,0,0,0,
,-0.897,-0.038,0.537,382.324,-491.578,408.325,0,0,0,
,-0.909,-0.091,0.457,312.561,-476.014,404.419,0,0,0,
,-0.867,-0.102,0.356,342.956,-507.081,429.199,0,0,0,
,-0.838,-0.129,0.303,395.813,-551.636,432.067,0,0,0,
,-0.837,-0.146,0.313,429.077,-574.707,423.523,0,0,0,
,-0.847,-0.172,0.302,443.42,-607.85,418.945,0,0,0,
,-0.849,-0.208,0.248,490.966,-654.114,432.8,0,0,0,
,-0.823,-0.169,0.16,499.694,-705.811,443.42,0,0,0,
,-0.846,-0.202,0.157,486.511,-693.36,432.556,0,0,0,
,-0.922,-0.272,0.227,424.133,-641.785,430.542,0,0,0,
,-0.944,-0.287,0.229,384.399,-612.977,453.003,0,0,0,
,-0.931,-0.263,0.12,437.866,-693.299,495.544,0,0,0,
,-0.917,-0.322,0.085,478.698,-746.46,510.986,0,0,0,
,-0.925,-0.346,0.092,501.648,-753.602,514.343,0,0,0,
,-0.994,-0.384,0.141,514.221,-724.122,507.873,0,0,0,
,-0.984,-0.371,0.064,453.674,-696.534,500.488,0,0,0,
,-0.934,-0.306,0.041,436.462,-695.74,498.962,0,0,0,
,-0.899,-0.279,-0.004,404.907,-710.144,481.567,0,0,0,
,-0.832,-0.368,-0.046,422.485,-724.06,511.596,0,0,0,
,-0.753,-0.5,-0.11,493.591,-771.424,563.537,0,0,0,
,-0.729,-0.532,-0.117,554.931,-850.037,607.605,0,0,0,
,-0.714,-0.414,-0.258,648.925,-984.681,585.205,0,0,0,
,-0.688,-0.403,-0.344,559.997,-1055.603,545.166,0,0,0,
,-0.658,-0.494,-0.289,549.316,-1087.464,521.484,0,0,0,
,-0.622,-0.62,-0.259,514.709,-1065.186,534.851,0,0,0,
,-0.661,-0.621,-0.294,433.044,-1043.763,528.442,0,0,0,
,-0.728,-0.483,-0.408,435.485,-1052.613,518.066,0,0,0,
,-0.74,-0.541,-0.41,404.174,-1065.43,490.905,0,0,0,
,-0.633,-0.627,-0.462,383.178,-1046.875,502.258,0,0,0,
,-0.569,-0.686,-0.498,408.081,-1022.217,498.657,0,0,0,
,-0.535,-0.642,-0.571,461.975,-1000.123,501.464,0,0,0,
,-0.56,-0.673,-0.562,567.993,-967.591,477.844,0,0,0,
,-0.436,-0.559,-0.829,212.036,-744.08,424.316,0,0,0,
,-0.388,-0.584,-0.745,199.218,-732.85,377.075,0,0,0,
,-0.385,-0.711,-0.694,245.483,-668.702,359.008,0,0,0,
,-0.354,-0.743,-0.777,273.864,-620.85,350.463,0,0,0,
,-0.337,-0.615,-0.756,262.085,-596.497,382.019,0,0,0,
,-0.316,-0.546,-0.836,90.271,-526.001,297.912,0,0,0,
,-0.283,-0.609,-0.836,-67.627,-500.55,249.755,0,0,0,
,-0.287,-0.548,-0.779,-108.033,-460.022,178.466,0,0,0,
,-0.345,-0.707,-0.858,-96.253,-377.564,242.736,0,0,0,
,-0.254,-0.735,-0.845,-93.995,-319.031,220.581,0,0,0,
,-0.266,-0.609,-0.916,-279.847,-326.233,186.035,0,0,0,
,-0.267,-0.478,-0.851,-288.025,-344.056,147.522,0,0,0,
,-0.228,-0.512,-0.766,-60.12,-329.163,150.817,0,0,0,
,-0.201,-0.698,-0.803,7.019,-268.372,155.883,0,0,0,
,-0.148,-0.721,-0.852,1.709,-241.028,204.345,0,0,0,
,-0.161,-0.629,-1.002,-123.902,-229.065,182.617,0,0,0,
,-0.115,-0.598,-1.036,-114.258,-231.568,133.911,0,0,0,
,-0.057,-0.825,-0.902,-46.143,-239.014,98.877,0,0,0,
,-0.089,-0.911,-0.731,-34.607,-163.147,196.167,0,0,0,
,-0.103,-0.818,-0.905,-239.685,2.563,161.255,0,0,0,
,0.027,-0.71,-1.058,-348.999,-34.729,171.264,0,0,0,
,-0.009,-0.771,-0.967,-252.625,-167.542,72.692,0,0,0,
,-0.11,-0.862,-0.817,-148.255,-162.232,63.354,0,0,0,
,-0.037,-0.816,-0.816,-120.24,-113.831,72.509,0,0,0,
,-0.005,-0.711,-0.867,-116.456,-152.039,62.5,0,0,0,
,-0.012,-0.767,-0.924,-140.015,-162.049,36.926,0,0,0,
,0.02,-0.752,-0.915,-110.657,-178.711,-0.428,0,0,0,
,0.028,-0.856,-0.828,-71.9,-174.561,-35.767,0,0,0,
,0.022,-0.837,-0.79,-120.606,-137.757,-37.598,0,0,0,
,0.031,-0.721,-0.818,-123.536,-131.592,-9.034,0,0,0,
,0.017,-0.701,-0.876,-70.435,-137.146,-10.01,0,0,0,
,0.013,-0.766,-0.831,-20.874,-140.992,-23.865,0,0,0,
,0.021,-0.739,-0.801,54.992,-117.127,-18.799,0,0,0,
,0.045,-0.734,-0.785,80.932,-105.53,-22.278,0,0,0,
,0.035,-0.741,-0.789,86.242,-87.342,0.183,0,0,0,
,0.059,-0.699,-0.828,72.876,-87.708,16.601,0,0,0,
,0.04,-0.757,-0.845,77.758,-88.257,-5.066,0,0,0,
,0.061,-0.793,-0.789,48.461,-78.37,-5.799,0,0,0,
,0.035,-0.787,-0.779,-26.49,-47.791,-15.259,0,0,0,
,0.064,-0.721,-0.802,-47.12,-39.917,-12.269,0,0,0,
,0.061,-0.715,-0.794,-51.148,-73.792,-26.368,0,0,0,
,0.037,-0.742,-0.732,-11.048,-95.765,-25.635,0,0,0,
,0.02,-0.753,-0.688,10.192,-68.787,-25.574,0,0,0,
,0.034,-0.743,-0.744,26.123,-34.729,0.793,0,0,0,
,0.069,-0.695,-0.775,30.883,-49.683,15.869,0,0,0,
,-0.077,-0.812,-1.049,138.733,-3.54,-35.462,0,0,0,
,0.104,-0.638,-0.8,327.392,-146.851,62.988,0,0,0,
,-0.04,-0.824,-0.813,134.399,-97.29,-90.088,0,0,0,
,0.045,-0.793,-0.738,16.967,-2.503,-54.139,0,0,0,
,-0.054,-0.71,-0.983,29.174,69.763,-10.315,0,0,0,
,0.051,-0.602,-0.813,-31.739,-72.693,-72.754,0,0,0,
,0.042,-0.911,-0.683,-32.471,-57.251,6.347,0,0,0,
,0.033,-0.827,-0.642,-250.306,36.621,24.78,0,0,0,
,0.067,-0.746,-0.74,-393.799,88.867,62.255,0,0,0,
,0.107,-0.735,-0.807,-412.659,13.244,69.702,0,0,0,
,0.095,-0.864,-0.721,-510.926,-101.563,63.354,0,0,0,
,0.001,-0.917,-0.628,-713.379,-75.623,129.699,0,0,0,
,0.026,-0.847,-0.742,-748.169,71.106,135.254,0,0,0,
,0.175,-0.802,-0.837,-656.128,71.289,145.08,0,0,0,
,0.19,-0.698,-0.798,-517.64,-38.147,229.065,0,0,0,
,0.106,-0.868,-0.65,-500.611,-129.944,174.133,0,0,0,
,0.169,-0.743,-0.441,-203.98,-186.585,212.829,0,0,0,
,0.282,-1.147,-0.508,-320.862,-131.226,232.544,0,0,0,
,0.309,-1.025,-0.448,-456.421,-55.664,323.974,0,0,0,
,0.397,-1.076,-0.486,-605.774,0.366,381.897,0,0,0,
,0.462,-1.07,-0.549,-857.117,-52.674,364.99,0,0,0,
,0.54,-0.993,-0.503,-769.104,-129.517,314.636,0,0,0,
,0.567,-0.986,-0.499,-533.081,-195.008,276.672,0,0,0,
,0.586,-1.045,-0.467,-229.92,-244.141,211.792,0,0,0,
,0.571,-1.097,-0.444,-168.885,-261.475,188.537,0,0,0,
,0.553,-1.051,-0.406,-272.95,-243.042,198.608,0,0,0,
,0.584,-1.001,-0.378,-398.072,-221.009,235.29,0,0,0,
,0.602,-0.868,-0.389,-507.752,-224.244,259.155,0,0,0,
,0.581,-0.739,-0.363,-450.257,-232.911,229.065,0,0,0,
,0.565,-0.813,-0.344,-290.345,-245.972,243.042,0,0,0,
,0.506,-0.788,-0.283,-200.257,-255.127,296.936,0,0,0,
,0.436,-0.755,-0.248,-168.58,-232.789,361.755,0,0,0,
,0.393,-0.707,-0.227,-176.026,-215.455,417.48,0,0,0,
,0.349,-0.654,-0.207,-167.847,-180.298,472.9,0,0,0,
,0.287,-0.618,-0.231,-104.432,-130.738,543.762,0,0,0,
,0.238,-0.622,-0.269,-128.052,-99.488,612.426,0,0,0,
,0.199,-0.626,-0.277,-200.013,-79.285,692.077,0,0,0,
,0.185,-0.611,-0.242,-240.479,-63.965,768.676,0,0,0,
,0.157,-0.6,-0.166,-261.109,-44.007,879.516,0,0,0,
,0.119,-0.566,-0.118,-292.786,-3.235,1009.155,0,0,0,
,0.119,-0.541,-0.12,-323.365,25.268,1138.122,0,0,0,
,0.149,-0.528,-0.173,-420.777,24.414,1294.555,0,0,0,
,0.204,-0.525,-0.284,-528.138,-1.526,1430.053,0,0,0,
,0.298,-0.518,-0.348,-605.103,-93.995,1564.514,0,0,0,
,0.43,-0.558,-0.327,-692.261,-243.653,1636.413,0,0,0,
,0.514,-0.607,-0.267,-797.364,-336.792,1749.878,0,0,0,
,0.605,-0.602,-0.157,-913.147,-327.027,1820.19,0,0,0,
,0.729,-0.593,-0.116,-1060.547,-228.394,1891.052,0,0,0,
,0.943,-0.594,-0.123,-1192.2,-117.554,1925.903,0,0,0,
,1.151,-0.68,-0.155,-1268.921,-24.353,1936.157,0,0,0,
,1.343,-0.724,-0.175,-1293.702,64.025,1890.197,0,0,0,
,1.389,-0.73,-0.219,-1234.192,161.621,1728.332,0,0,0,
,1.367,-0.509,-0.493,-843.75,238.952,1545.41,0,0,0,
,1.367,-0.188,-0.747,-279.602,30.822,1172.119,0,0,0,
,1.271,-0.088,-0.729,426.757,-348.938,563.293,0,0,0,
,1.03,-0.208,-0.462,1117.859,-540.772,-18.067,0,0,0,
,0.717,-0.444,-0.148,1530.822,-298.768,-431.702,0,0,0,
,0.603,-0.665,-0.12,1606.14,199.157,-661.377,0,0,0,
,0.788,-0.806,-0.099,1365.844,602.356,-740.174,0,0,0,
,1.085,-0.769,-0.013,973.816,661.438,-658.509,0,0,0,
,1.287,-0.672,0.02,417.602,387.817,-548.829,0,0,0,
,1.268,-0.34,0.557,-173.401,75.683,-470.887,0,0,0,
,1.329,-0.009,0.87,-193.482,-367.432,-268.555,0,0,0,
,0.813,0.309,0.784,162.292,-368.836,-244.263,0,0,0,
,0.714,-0.037,0.294,578.247,-6.592,-235.291,0,0,0,
,0.96,-0.379,0.033,526.001,175.476,-4.7,0,0,0,
,1.021,-0.551,-0.079,71.899,138.183,77.941,0,0,0,
,0.902,-0.479,-0.091,-345.276,127.99,174.682,0,0,0,
,0.892,-0.322,-0.152,-608.399,173.217,171.02,0,0,0,
,0.919,-0.159,-0.229,-629.7,161.377,100.402,0,0,0,
,0.905,-0.117,-0.272,-505.555,106.384,-0.306,0,0,0,
,0.888,-0.123,-0.241,-398.255,55.725,-25.391,0,0,0,
,0.903,-0.139,-0.133,-315.552,63.476,-10.987,0,0,0,
,0.942,-0.21,-0.094,-241.089,83.679,1.586,0,0,0,
,0.992,-0.277,-0.034,-207.52,74.462,29.419,0,0,0,
,1.01,-0.325,0.021,-257.752,54.687,21.362,0,0,0,
,1.027,-0.384,0.056,-339.417,48.645,28.686,0,0,0,
,1.028,-0.428,0.134,-457.459,15.808,46.875,0,0,0,
,1.053,-0.558,0.28,-651.551,26.245,85.266,0,0,0,
,1.179,-0.684,0.359,-871.766,58.471,210.693,0,0,0,
,1.303,-0.845,0.558,-1139.283,50.598,328.491,0,0,0,
,1.336,-0.905,0.74,-1269.593,114.929,385.803,0,0,0,
,1.493,-0.803,0.857,-1053.895,140.991,493.103,0,0,0,
,1.82,-0.541,0.973,-952.881,88.378,449.768,0,0,0,
,2.195,-0.159,1.01,-779.114,-57.312,155.517,0,0,0,
,2.744,-0.201,0.832,-342.896,-460.511,-162.415,0,0,0,
,3.245,-0.501,0.525,-267.701,-1319.703,-589.966,0,0,0,
,3.281,-0.165,0.492,-413.88,-2000,-1077.759,0,0,0,
,3.344,0.072,0.479,-175.171,-2000,-1575.013,0,0,0,
,3.505,-0.282,0.388,76.904,-2000,-1999.939,0,0,0,
,3.502,-0.555,0.365,129.882,-2000,-2000,0,0,0,
,3.373,-0.535,0.475,273.62,-2000,-2000,0,0,0,
,3.178,-0.423,0.269,643.371,-2000,-2000,0,0,0,
,2.953,-0.553,-0.105,966.735,-2000,-2000,0,0,0,
,2.62,-0.709,-0.431,799.56,-2000,-2000,0,0,0,
,2.419,-0.566,-0.578,525.695,-2000,-2000,0,0,0,
,2.343,-0.453,-0.757,377.319,-2000,-2000,0,0,0,
,2.274,-0.251,-0.923,245.483,-2000,-2000,0,0,0,
,2.176,-0.324,-0.408,196.594,-2000,-2000,0,0,0,
,2.599,-0.382,-0.222,-348.938,-2000,-2000,0,0,0,
,2.438,0.269,-0.457,-1052.124,-2000,-2000,0,0,0,
,2.153,0.536,-0.94,-1234.742,-2000,-2000,0,0,0,
,2.157,1.423,-2.378,-1073.548,-2000,-2000,0,0,0,
,1.212,3.999,-3.251,-949.036,-2000,-2000,0,0,0,
,0.316,3.999,-2.259,-149.231,-1621.277,-1459.473,0,0,0,
,0.424,0.013,-1.444,-748.475,-39.063,337.646,0,0,0,
,-0.107,-0.616,-0.935,-1229.981,1449.524,1633.728,0,0,0,
,0.04,0.786,-0.701,89.538,1999.694,1999.694,0,0,0,
,0.162,1.014,-0.681,1497.436,1999.694,1999.694,0,0,0,
,0.344,0.82,-0.883,1999.694,1999.694,1999.694,0,0,0,
,0.733,0.751,-0.895,1999.694,1999.694,1999.694,0,0,0,
,0.909,0.679,-0.71,1999.694,1999.694,1999.694,0,0,0,
,1.004,0.39,-0.446,1999.694,1999.694,1999.694,0,0,0,
,1.004,0.156,-0.287,1733.459,1999.694,1999.694,0,0,0,
,1.105,0.062,-0.296,1001.403,1999.694,1999.694,0,0,0,
,1.267,-0.198,-0.479,496.46,1999.694,1999.694,0,0,0,
,1.54,-0.407,-0.609,314.514,1999.694,1999.694,0,0,0,
,1.541,-0.381,-0.475,129.821,1725.586,1999.694,0,0,0,
,1.536,-0.535,-0.054,-35.828,1712.89,1999.694,0,0,0,
,1.593,-0.526,0.065,-397.339,1999.694,1999.694,0,0,0,
,1.922,-0.656,-0.13,-631.897,1999.694,1999.694,0,0,0,
,2.028,-0.442,-0.216,-676.392,1999.694,1999.694,0,0,0,
,2.364,0.023,-0.423,-321.778,1999.694,1999.694,0,0,0,
,3.076,0.02,-0.637,62.744,1999.694,1999.694,0,0,0,
,3.719,-0.352,-0.533,234.741,1999.694,1999.694,0,0,0,
,3.999,-0.843,0.191,-232.727,1910.217,1999.694,0,0,0,
,3.999,-1.482,0.735,-1100.342,1999.694,1999.694,0,0,0,
,3.999,-2.013,0.694,-1784.974,1999.694,1999.694,0,0,0,
,2.838,-1.053,-0.186,-1449.952,1999.694,1999.694,0,0,0,
,3.449,1.507,1.564,1898.559,398.559,1875.061,0,0,0,
,2.782,1.325,-0.139,1999.694,-135.743,-1991.272,0,0,0,
,1.342,-3.736,1.646,1999.694,-923.829,-2000,0,0,0,
,-0.326,-3.275,0.555,1963.928,408.935,-1446.961,0,0,0,
,1.525,-2.051,0.126,-657.837,1188.659,115.6,0,0,0,
,1.816,-0.681,-0.664,-2000,449.829,733.703,0,0,0,
,1.398,0.022,-0.721,-2000,-502.259,80.627,0,0,0,
,0.867,0.329,-0.637,-1707.825,-1042.969,-141.358,0,0,0,
,0.574,0.341,-0.458,-1050.416,-1016.48,-450.745,0,0,0,
,0.368,0.14,-0.464,-570.74,-625.672,-390.748,0,0,0,
,0.328,-0.064,-0.398,-290.528,-111.878,-15.625,0,0,0,
,0.545,-0.256,-0.36,-368.836,337.646,213.379,0,0,0,
,0.792,-0.278,-0.332,-739.563,561.279,400.817,0,0,0,
,0.903,0.131,-0.393,-916.199,585.144,523.803,0,0,0,
,0.955,0.39,-0.479,-651.001,479.675,337.341,0,0,0,
,0.933,0.223,-0.545,-293.457,273.254,91.369,0,0,0,
,0.841,0.048,-0.452,-192.81,114.807,11.84,0,0,0,
,0.802,-0.066,-0.257,-256.47,153.564,-2.137,0,0,0,
,0.868,-0.163,-0.188,-352.601,282.409,25.146,0,0,0,
,0.985,-0.264,-0.141,-429.688,290.283,75.134,0,0,0,
,1.071,-0.385,-0.108,-562.867,197.876,103.393,0,0,0,
,1.106,-0.418,-0.078,-725.892,84.533,143.371,0,0,0,
,1.152,-0.403,-0.06,-838.135,-27.405,181.396,0,0,0,
,1.218,-0.476,-0.084,-923.462,-169.922,172.546,0,0,0,
,1.256,-0.549,-0.095,-1099.366,-363.221,158.508,0,0,0,
,1.222,-0.47,-0.107,-1316.895,-505.677,147.216,0,0,0,
,1.177,-0.365,-0.1,-1459.046,-603.089,109.008,0,0,0,
,1.181,-0.226,-0.038,-1442.017,-662.232,24.597,0,0,0,
,1.185,-0.144,-0.079,-1335.755,-710.999,-94.605,0,0,0,
,1.178,-0.149,-0.216,-1168.58,-783.081,-255.799,0,0,0,
,1.154,-0.224,-0.228,-1023.133,-892.884,-446.228,0,0,0,
,1.099,-0.286,-0.079,-1051.026,-882.874,-625.306,0,0,0,
,1.046,-0.254,0.026,-1151.185,-740.052,-758.545,0,0,0,
,1.074,-0.153,0.171,-1126.709,-578.614,-879.7,0,0,0,
,1.139,-0.062,0.213,-935.425,-466.309,-976.38,0,0,0,
,1.127,-0.052,0.156,-538.575,-475.464,-1119.69,0,0,0,
,1.019,-0.162,0.151,77.697,-565.735,-1218.873,0,0,0,
,0.862,-0.265,0.17,585.754,-586.365,-1206.421,0,0,0,
,0.752,-0.367,0.111,892.761,-535.889,-1236.145,0,0,0,
,0.666,-0.426,0.093,982.849,-503.296,-1258.057,0,0,0,
,0.589,-0.503,0.07,980.896,-455.079,-1349.244,0,0,0,
,0.522,-0.616,0.108,929.87,-410.401,-1402.771,0,0,0,
,0.412,-0.754,0.089,873.047,-251.709,-1307.312,0,0,0,
,0.355,-0.754,0.046,762.451,-238.648,-1268.433,0,0,0,
,0.304,-0.754,0.04,684.997,-236.145,-1208.985,0,0,0,
,0.316,-0.81,0.056,635.498,-237.915,-1125.672,0,0,0,
,0.324,-0.792,0.048,503.418,-270.264,-1019.898,0,0,0,
,0.274,-0.704,0.038,283.142,-278.138,-963.807,0,0,0,
,0.268,-0.637,0.076,121.46,-249.878,-955.75,0,0,0,
,0.328,-0.694,0.034,49.316,-232.727,-888.855,0,0,0,
,0.474,-0.771,-0.079,-41.199,-279.541,-788.025,0,0,0,
,0.536,-0.755,-0.093,-177.369,-330.14,-761.719,0,0,0,
,0.46,-0.855,0.234,-412.903,-218.995,-760.682,0,0,0,
,0.361,-0.835,0.463,-666.993,28.381,-635.193,0,0,0,
,0.564,-0.73,0.133,-90.332,307.19,-441.468,0,0,0,
,0.57,-0.899,0.323,-44.739,199.524,-469.117,0,0,0,
,0.486,-0.985,0.432,-166.138,152.832,-462.708,0,0,0,
,0.471,-0.985,0.331,-233.826,118.896,-422.913,0,0,0,
,0.448,-0.878,0.208,-201.172,72.631,-412.659,0,0,0,
,0.42,-0.667,0.15,86.792,29.907,-451.172,0,0,0,
,0.399,-0.83,0.109,451.049,15.319,-483.216,0,0,0,
,0.404,-1.07,0.14,516.601,-22.034,-459.717,0,0,0,
,0.349,-1.047,0.15,450.805,-38.208,-395.997,0,0,0,
,0.34,-0.898,0.096,514.892,-81.238,-386.902,0,0,0,
,0.299,-0.941,0.071,645.935,-119.019,-424.317,0,0,0,
,0.268,-1.058,0.098,628.112,-151.368,-450.44,0,0,0,
,0.224,-1.173,0.089,492.981,-141.846,-392.395,0,0,0,
,0.285,-1.114,0.059,384.094,-172.852,-331.482,0,0,0,
,0.252,-0.791,0.075,680.908,-271.485,-302.063,0,0,0,
,0.181,-0.952,0.045,1187.439,-301.148,-273.987,0,0,0,
,0.17,-1.217,-0.042,1177.246,-315.247,-311.524,0,0,0,
,0.146,-1.338,-0.04,875.305,-331.849,-292.359,0,0,0,
,0.042,-1.363,-0.104,558.349,-225.159,-320.557,0,0,0,
,0.043,-1.017,-0.264,750.671,-114.869,-146.973,0,0,0,
,0.016,-0.975,-0.181,845.642,-128.052,-147.217,0,0,0,
,0.07,-1.007,-0.175,957.824,-78.248,-85.144,0,0,0,
,-0.062,-1.264,-0.314,930.786,-36.988,-52.308,0,0,0,
,0.112,-1.2,-0.4,658.508,-31.617,-26.673,0,0,0,
,0.003,-1.114,-0.376,635.803,-38.086,-14.039,0,0,0,
,0.043,-1.244,-0.39,684.326,-12.085,5.92,0,0,0,
,0.002,-1.289,-0.257,403.137,16.601,-0.855,0,0,0,
,0.038,-1.208,-0.324,18.615,77.148,1.464,0,0,0,
,0.04,-1.118,-0.384,-182.557,110.229,-6.714,0,0,0,
,0.054,-1.132,-0.406,-246.094,94.665,-18.494,0,0,0,
,0.032,-1.188,-0.36,-257.447,73.12,-16.419,0,0,0,
,0.038,-1.182,-0.331,-144.654,80.078,-1.099,0,0,0,
,0.04,-1.192,-0.417,40.161,103.088,10.009,0,0,0,
,0.054,-1.19,-0.517,177.856,110.412,-25.696,0,0,0,
,0.068,-1.26,-0.529,260.803,113.464,-71.534,0,0,0,
,0.01,-1.32,-0.533,331.421,160.034,-118.958,0,0,0,
,-0.052,-1.332,-0.539,369.812,228.637,-162.049,0,0,0,
,-0.098,-1.321,-0.608,383.484,300.109,-205.933,0,0,0,
,-0.093,-1.232,-0.734,404.358,364.502,-295.227,0,0,0,
,-0.193,-1.43,-0.746,404.174,375.305,-317.566,0,0,0,
,-0.079,-1.31,-0.668,203.979,437.744,-433.289,0,0,0,
,-0.172,-1.234,-0.612,127.746,479.492,-497.071,0,0,0,
,-0.191,-1.09,-0.58,142.334,519.226,-571.961,0,0,0,
,-0.233,-1.122,-0.615,110.473,558.715,-642.212,0,0,0,
,-0.241,-1.133,-0.637,85.266,587.646,-665.284,0,0,0,
,-0.207,-1.067,-0.616,58.166,613.037,-713.318,0,0,0,
,-0.269,-0.99,-0.552,12.146,608.581,-756.47,0,0,0,
,-0.271,-0.933,-0.495,-0.977,627.075,-784.607,0,0,0,
,-0.269,-0.849,-0.478,-23.926,642.273,-822.083,0,0,0,
,-0.276,-0.837,-0.5,-47.73,649.231,-836.243,0,0,0,
,-0.301,-0.857,-0.476,-88.257,639.892,-839.722,0,0,0,
,-0.334,-0.841,-0.528,-145.264,614.135,-833.619,0,0,0,
,-0.296,-0.73,-0.486,-149.414,556.823,-812.745,0,0,0,
,-0.315,-0.665,-0.42,-107.544,518.615,-841.37,0,0,0,
,-0.36,-0.632,-0.334,-44.373,511.291,-861.573,0,0,0,
,-0.399,-0.597,-0.232,-66.224,537.048,-893.006,0,0,0,
,-0.416,-0.592,-0.267,-115.357,561.34,-879.456,0,0,0,
,-0.456,-0.543,-0.298,-159.058,549.438,-888.916,0,0,0,
,-0.488,-0.515,-0.24,-161.499,516.845,-894.471,0,0,0,
,-0.495,-0.503,-0.202,-101.685,493.591,-864.93,0,0,0,
,-0.541,-0.495,-0.107,-53.711,494.201,-819.764,0,0,0,
,-0.567,-0.478,-0.153,-67.017,480.957,-791.016,0,0,0,
,-0.604,-0.449,-0.195,-60.975,437.683,-777.039,0,0,0,
,-0.638,-0.414,-0.138,-4.944,405.273,-751.648,0,0,0,
,-0.647,-0.397,-0.098,-0.306,399.047,-717.041,0,0,0,
,-0.659,-0.401,-0.105,-35.462,414.672,-702.515,0,0,0,
,-0.688,-0.391,-0.168,-77.027,417.968,-695.069,0,0,0,
,-0.699,-0.37,-0.146,-81.482,400.268,-675.232,0,0,0,
,-0.717,-0.384,-0.076,-65.247,388.855,-652.405,0,0,0,
,-0.75,-0.355,-0.039,-115.418,389.709,-636.902,0,0,0,
,-0.777,-0.316,-0.022,-104.432,410.034,-613.892,0,0,0,
,-0.81,-0.32,-0.038,-105.347,423.339,-597.84,0,0,0,
,-0.827,-0.314,-0.032,-154.236,417.846,-586.976,0,0,0,
,-0.851,-0.298,0.036,-153.687,406.921,-568.238,0,0,0,
,-0.88,-0.281,0.036,-142.701,411.316,-536.744,0,0,0,
,-0.89,-0.223,0.043,-76.722,398.986,-504.151,0,0,0,
,-0.911,-0.245,0.045,-80.567,389.038,-480.408,0,0,0,
,-0.909,-0.247,0.054,-96.192,384.582,-457.764,0,0,0,
,-0.912,-0.219,0.089,-105.713,377.868,-441.102,0,0,0,
,-0.914,-0.2,0.13,-95.154,381.469,-424.683,0,0,0,
,-0.949,-0.174,0.119,-158.326,407.837,-425.11,0,0,0,
,-0.951,-0.135,0.113,-216.614,427.734,-432.129,0,0,0,
,-0.954,-0.141,0.153,-188.843,432.556,-411.683,0,0,0,
,-0.966,-0.091,0.245,-131.226,407.348,-397.522,0,0,0,
,-0.988,-0.092,0.272,-125.061,403.198,-382.325,0,0,0,
,-0.994,-0.104,0.242,-187.684,434.753,-383.728,0,0,0,
,-0.981,-0.083,0.138,-235.413,469.482,-390.87,0,0,0,
,-0.98,-0.11,0.171,-206.543,469.909,-380.799,0,0,0,
,-0.974,-0.135,0.193,-172.242,437.622,-363.892,0,0,0,
,-0.971,-0.068,0.212,-110.474,393.249,-343.079,0,0,0,
,-0.951,-0.036,0.233,-126.954,371.643,-349.366,0,0,0,
,-0.958,-0.034,0.283,-159.119,383.85,-355.225,0,0,0,
,-0.961,0.015,0.273,-175.477,388.488,-361.634,0,0,0,
,-0.95,0.037,0.268,-126.893,344.787,-338.501,0,0,0,
,-0.949,0.031,0.311,-85.511,334.716,-319.825,0,0,0,
,-0.951,0.06,0.348,-110.718,333.801,-310.303,0,0,0,
,-0.955,0.037,0.385,-134.4,348.755,-304.932,0,0,0,
,-0.961,0.057,0.419,-170.105,346.374,-307.862,0,0,0,
,-0.95,0.034,0.397,-159.546,329.528,-294.19,0,0,0,
,-0.931,0.068,0.39,-152.771,299.865,-286.316,0,0,0,
,-0.919,0.071,0.42,-162.842,289.917,-285.401,0,0,0,
,-0.908,0.09,0.424,-185.791,294.189,-290.528,0,0,0,
,-0.897,0.102,0.421,-199.952,283.691,-293.519,0,0,0,
,-0.881,0.085,0.416,-230.896,270.507,-296.509,0,0,0,
,-0.864,0.073,0.392,-237.488,256.286,-290.223,0,0,0,
,-0.863,0.093,0.431,-174.927,238.342,-269.837,0,0,0,
,-0.854,0.124,0.445,-195.557,242.126,-267.64,0,0,0,
,-0.837,0.156,0.398,-198.243,231.079,-266.846,0,0,0,
,-0.813,0.19,0.413,-165.345,205.261,-264.527,0,0,0,
,-0.818,0.181,0.417,-125.977,192.26,-263.428,0,0,0,
,-0.827,0.196,0.433,-140.748,193.542,-267.395,0,0,0,
,-0.811,0.201,0.422,-163.208,206.115,-264.588,0,0,0,
,-0.803,0.215,0.432,-195.618,199.768,-265.381,0,0,0,
,-0.824,0.225,0.431,-175.599,172.729,-258.606,0,0,0,
,-0.823,0.25,0.452,-146.546,147.033,-247.498,0,0,0,
,-0.83,0.277,0.484,-152.894,157.409,-247.01,0,0,0,
,-0.837,0.304,0.521,-134.705,174.682,-244.324,0,0,0,
,-0.831,0.311,0.495,-110.108,163.94,-237.549,0,0,0,
,-0.835,0.297,0.491,-72.937,110.778,-225.769,0,0,0,
,-0.832,0.324,0.511,-33.814,102.844,-213.746,0,0,0,
,-0.848,0.264,0.527,-51.453,125.183,-213.685,0,0,0,
,-0.875,0.307,0.5,-86.121,157.776,-216.492,0,0,0,
,-0.84,0.299,0.483,-122.376,173.401,-222.718,0,0,0,
,-0.822,0.333,0.488,-140.32,171.63,-230.53,0,0,0,
,-0.819,0.333,0.495,-121.033,165.344,-229.798,0,0,0,
,-0.811,0.337,0.511,-96.985,163.635,-227.112,0,0,0,
,-0.79,0.321,0.523,-46.998,161.682,-222.046,0,0,0,
,-0.782,0.338,0.51,-43.824,147.277,-222.901,0,0,0,
,-0.763,0.33,0.508,-43.03,141.174,-224.183,0,0,0,
,-0.747,0.331,0.507,-59.51,148.498,-221.619,0,0,0,
,-0.732,0.379,0.511,-74.097,158.02,-222.168,0,0,0,
,-0.731,0.388,0.502,-92.164,163.635,-221.741,0,0,0,
,-0.728,0.373,0.493,-108.643,155.7,-221.07,0,0,0,
,-0.715,0.398,0.543,-83.069,153.625,-209.046,0,0,0,
,-0.699,0.416,0.557,-57.862,153.991,-195.618,0,0,0,
,-0.707,0.414,0.541,-27.894,130.066,-183.96,0,0,0,
,-0.704,0.399,0.545,-2.564,107.36,-170.044,0,0,0,
,-0.692,0.429,0.558,-23.194,117.004,-165.589,0,0,0,
,-0.693,0.42,0.54,-54.017,138,-165.467,0,0,0,
,-0.697,0.443,0.536,-74.646,149.597,-161.683,0,0,0,
,-0.692,0.443,0.569,-71.961,150.39,-151.978,0,0,0,
,-0.681,0.437,0.558,-82.642,125.488,-148.682,0,0,0,
,-0.672,0.452,0.6,-30.335,128.296,-131.348,0,0,0,
,-0.671,0.443,0.585,-0.428,129.211,-120.301,0,0,0,
,-0.667,0.467,0.583,-5.616,125.183,-115.296,0,0,0,
,-0.668,0.443,0.584,-21.851,127.807,-113.892,0,0,0,
,-0.648,0.455,0.544,-55.42,132.507,-115.784,0,0,0,
,-0.636,0.474,0.546,-55.787,131.347,-115.113,0,0,0,
,-0.641,0.477,0.581,-78.614,147.094,-116.944,0,0,0,
,-0.641,0.487,0.603,-88.318,159.362,-112,0,0,0,
,-0.645,0.486,0.58,-100.892,158.325,-103.028,0,0,0,
,-0.63,0.52,0.587,-76.294,141.174,-98.572,0,0,0,
,-0.618,0.515,0.594,-39.246,129.455,-93.323,0,0,0,
,-0.632,0.5,0.629,-39.673,137.207,-95.398,0,0,0,
,-0.642,0.489,0.592,-54.078,146.972,-94.3,0,0,0,
,-0.627,0.484,0.568,-61.463,139.16,-88.562,0,0,0,
,-0.603,0.53,0.585,-51.331,120.422,-83.741,0,0,0,
,-0.606,0.525,0.605,-33.875,109.192,-88.685,0,0,0,
,-0.61,0.505,0.591,-20.997,103.759,-86.853,0,0,0,
,-0.607,0.512,0.605,-28.626,112.732,-82.825,0,0,0,
,-0.609,0.51,0.635,-44.251,126.403,-75.379,0,0,0,
,-0.609,0.525,0.634,-62.806,138.488,-74.585,0,0,0,
,-0.592,0.532,0.601,-42.786,122.253,-72.571,0,0,0,
,-0.572,0.547,0.6,-11.536,100.28,-68.421,0,0,0,
,-0.559,0.543,0.604,-7.142,102.6,-70.252,0,0,0,
,-0.57,0.505,0.621,-43.641,118.652,-77.881,0,0,0,
,-0.565,0.524,0.621,-75.867,129.333,-81.849,0,0,0,
,-0.551,0.526,0.617,-105.408,135.925,-88.623,0,0,0,
,-0.535,0.549,0.623,-124.817,136.474,-99.122,0,0,0,
,-0.528,0.543,0.627,-110.657,131.713,-102.539,0,0,0,
,-0.529,0.576,0.64,-98.633,123.962,-104.859,0,0,0,
,-0.53,0.57,0.641,-74.28,112.243,-99.06,0,0,0,
,-0.534,0.575,0.6,-69.397,99.548,-89.966,0,0,0,
,-0.509,0.584,0.607,-52.063,82.397,-79.407,0,0,0,
,-0.507,0.562,0.59,-30.518,68.847,-80.506,0,0,0,
,-0.516,0.568,0.608,1.22,54.077,-73.548,0,0,0,
,-0.503,0.566,0.595,27.099,48.095,-54.078,0,0,0,
,-0.482,0.546,0.562,-2.198,48.767,-38.575,0,0,0,
,-0.446,0.538,0.548,-5.188,37.658,-11.353,0,0,0,
,-0.424,0.567,0.549,18.371,21.606,12.878,0,0,0,
,-0.417,0.562,0.591,46.936,15.197,36.987,0,0,0,
,-0.389,0.572,0.59,53.955,0.549,71.838,0,0,0,
,-0.364,0.553,0.604,89.111,-21.18,119.69,0,0,0,
,-0.378,0.579,0.586,126.953,-60.73,151.062,0,0,0,
,-0.405,0.543,0.597,196.777,-104.493,184.082,0,0,0,
,-0.421,0.533,0.594,234.924,-142.212,220.459,0,0,0,
,-0.417,0.521,0.573,271.545,-173.157,262.085,0,0,0,
,-0.415,0.516,0.538,276.001,-214.356,292.236,0,0,0,
,-0.446,0.446,0.578,280.395,-239.624,309.57,0,0,0,
,-0.472,0.457,0.607,280.517,-261.414,332.519,0,0,0,
,-0.479,0.433,0.612,296.081,-294.556,348.816,0,0,0,
,-0.48,0.46,0.598,327.087,-333.13,362.06,0,0,0,
,-0.513,0.424,0.586,304.26,-332.337,362.609,0,0,0,
,-0.606,0.399,0.611,238.281,-301.331,382.568,0,0,0,
,-0.623,0.391,0.571,276.794,-331.849,421.325,0,0,0,
,-0.616,0.398,0.582,317.932,-360.962,457.275,0,0,0,
,-0.627,0.364,0.552,348.938,-378.785,482.177,0,0,0,
,-0.644,0.347,0.555,388.794,-421.265,501.709,0,0,0,
,-0.688,0.311,0.546,427.612,-475.22,519.775,0,0,0,
,-0.756,0.184,0.518,472.839,-480.164,535.766,0,0,0,
,-0.752,0.155,0.485,465.454,-483.46,534.24,0,0,0,
,-0.749,0.119,0.432,489.807,-523.377,540.954,0,0,0,
,-0.712,0.126,0.327,530.761,-588.562,553.772,0,0,0,
,-0.717,0.089,0.289,589.721,-622.925,564.941,0,0,0,
,-0.739,0.004,0.281,699.035,-736.939,639.709,0,0,0,
,-0.748,-0.025,0.207,719.299,-803.223,652.221,0,0,0,
,-0.802,-0.111,0.253,693.054,-820.069,653.93,0,0,0,
,-0.82,-0.12,0.239,673.828,-812.684,664.672,0,0,0,
,-0.782,-0.148,0.192,656.677,-843.628,687.805,0,0,0,
,-0.744,-0.223,-0.029,853.149,-1068.726,737.976,0,0,0,
,-0.747,-0.302,-0.028,887.085,-1138.611,731.201,0,0,0,
,-0.783,-0.363,-0.057,886.169,-1159.485,728.82,0,0,0,
,-0.814,-0.425,-0.177,871.338,-1187.378,710.693,0,0,0,
,-0.902,-0.49,-0.215,879.821,-1238.709,690.063,0,0,0,
,-0.786,-0.555,-0.282,560.302,-1204.163,642.273,0,0,0,
,-0.746,-0.518,-0.448,570.007,-1202.576,630.249,0,0,0,
,-0.744,-0.587,-0.609,571.472,-1224.549,609.619,0,0,0,
,-0.738,-0.605,-0.483,557.739,-1256.653,612.732,0,0,0,
,-0.714,-0.64,-0.446,614.746,-1250.245,637.024,0,0,0,
,-0.576,-0.596,-0.624,562.255,-1123.963,576.965,0,0,0,
,-0.632,-0.634,-0.623,520.141,-1131.287,522.338,0,0,0,
,-0.618,-0.579,-0.525,489.929,-1123.23,507.019,0,0,0,
,-0.584,-0.542,-0.447,382.873,-1049.378,493.713,0,0,0,
,-0.565,-0.539,-0.508,253.051,-948.243,473.938,0,0,0,
,-0.539,-0.524,-0.594,308.227,-1054.81,377.99,0,0,0,
,-0.485,-0.522,-0.429,144.043,-920.044,394.958,0,0,0,
,-0.424,-0.549,-0.461,4.211,-737.915,386.352,0,0,0,
,-0.349,-0.551,-0.745,26.062,-576.477,409.851,0,0,0,
,-0.243,-0.372,-1.249,-84.107,-523.377,309.143,0,0,0,
,-0.001,-0.487,-1.139,-74.524,-770.508,262.756,0,0,0,
,-0.171,-0.617,-0.62,29.357,-925.171,369.14,0,0,0,
,-0.211,-0.79,-0.57,-22.706,-618.409,347.778,0,0,0,
,-0.052,-0.791,-0.856,-195.862,-354.615,372.497,0,0,0,
,-0.006,-0.48,-1.293,-513.916,-259.217,259.582,0,0,0,
,-0.058,-0.793,-0.799,-90.577,-439.148,276.794,0,0,0,
,0.074,-0.655,-1.015,-191.712,-111.512,234.375,0,0,0,
,0.275,-0.61,-1.323,-185.12,-109.498,240.722,0,0,0,
,0.242,-0.641,-1.495,-99.06,-293.152,125.427,0,0,0,
,0.222,-0.701,-1.313,65.856,-402.588,69.58,0,0,0,
,0.218,-0.914,-1.111,85.815,-290.894,33.691,0,0,0,
,0.187,-0.982,-1.129,-83.741,-78.553,45.227,0,0,0,
,0.225,-0.808,-1.294,-202.393,25.268,80.81,0,0,0,
,0.207,-0.683,-1.29,-97.474,-21.485,39.367,0,0,0,
,0.144,-0.718,-1.088,30.334,-71.839,2.929,0,0,0,
,0.07,-0.718,-0.905,28.442,-35.706,-6.592,0,0,0,
,0.062,-0.62,-0.862,-13.184,45.105,-4.029,0,0,0,
,0.029,-0.63,-0.828,-11.902,47.912,13.732,0,0,0,
,0.058,-0.536,-0.791,-11.719,-1.099,14.465,0,0,0,
,0.06,-0.552,-0.713,16.54,-64.148,-18.25,0,0,0,
,0.056,-0.631,-0.685,-0.245,-40.284,-14.893,0,0,0,
,0.092,-0.62,-0.789,-75.562,-3.174,3.845,0,0,0,
,0.135,-0.599,-0.796,-64.576,-66.407,-1.404,0,0,0,
,0.088,-0.667,-0.746,-50.599,-95.948,-24.842,0,0,0,
,0.089,-0.711,-0.761,-54.444,-38.758,-17.273,0,0,0,
,0.153,-0.641,-0.861,-61.646,-14.649,-18.25,0,0,0,
,0.18,-0.641,-0.89,-18.677,-73.975,-56.58,0,0,0,
,0.149,-0.653,-0.831,12.207,-109.803,-73.975,0,0,0,
,0.122,-0.68,-0.786,39.733,-67.994,-71.534,0,0,0,
,0.127,-0.656,-0.854,43.273,0.488,-50.599,0,0,0,
,0.173,-0.639,-0.915,56.457,-1.648,-45.472,0,0,0,
,0.164,-0.645,-0.908,55.114,-37.354,-54.566,0,0,0,
,0.161,-0.631,-0.843,52.856,-53.894,-65.552,0,0,0,
,0.003,-0.639,-0.969,104.858,27.099,-105.164,0,0,0,
,0.166,-0.671,-0.845,118.042,39.367,24.78,0,0,0,
,0.142,-0.587,-0.915,2.685,35.827,-52.308,0,0,0,
,0.14,-0.693,-0.924,28.747,43.335,-82.581,0,0,0,
,0.105,-0.633,-0.847,-64.393,10.864,-104.187,0,0,0,
,0.143,-0.627,-0.772,-59.388,33.386,-41.626,0,0,0,
,0.148,-0.641,-0.765,-102.539,50.293,-20.386,0,0,0,
,0.146,-0.683,-0.803,-146.668,54.87,7.385,0,0,0,
,0.162,-0.693,-0.849,-228.089,10.803,0.122,0,0,0,
,0.152,-0.732,-0.82,-311.585,-51.758,4.333,0,0,0,
,0.097,-0.713,-0.808,-388.794,-13.489,53.833,0,0,0,
,0.1,-0.599,-0.849,-373.658,33.996,56.64,0,0,0,
,0.16,-0.812,-0.843,-449.341,-43.58,77.453,0,0,0,
,0.157,-0.688,-0.658,-516.053,-222.596,48.4,0,0,0,
,0.063,-0.925,-0.695,-636.536,-193.909,70.373,0,0,0,
,0.06,-0.696,-0.758,-601.197,-109.131,84.289,0,0,0,
,0.255,-0.618,-0.702,-199.83,-178.284,41.32,0,0,0,
,0.155,-0.839,-0.749,-224.61,-304.749,28.32,0,0,0,
,0.033,-0.893,-0.657,-201.905,-212.22,41.87,0,0,0,
,0.232,-1.077,-0.429,-634.339,-112.366,123.596,0,0,0,
,0.183,-0.784,-0.671,-813.538,-24.231,224.975,0,0,0,
,0.294,-0.649,-0.667,-406.006,-62.623,222.473,0,0,0,
,0.31,-1.014,-0.559,-276.612,-174.744,156.005,0,0,0,
,0.279,-1.056,-0.382,-570.008,-163.269,198.059,0,0,0,
,0.357,-1.022,-0.415,-807.679,-21.485,273.742,0,0,0,
,0.548,-0.988,-0.425,-660.767,-6.104,318.298,0,0,0,
,0.708,-1.184,-0.475,-978.15,-100.159,213.745,0,0,0,
,0.818,-1.05,-0.41,-1026.001,-217.591,176.269,0,0,0,
,0.776,-1.019,-0.36,-981.446,-277.405,156.921,0,0,0,
,0.785,-0.917,-0.375,-948.731,-279.053,177.612,0,0,0,
,0.804,-0.765,-0.341,-935.73,-311.463,194.213,0,0,0,
,0.753,-0.636,-0.259,-835.206,-291.871,195.678,0,0,0,
,0.733,-0.553,-0.224,-594.971,-242.859,230.651,0,0,0,
,0.676,-0.581,-0.222,-377.137,-198.609,300.048,0,0,0,
,0.605,-0.566,-0.195,-249.573,-178.589,399.292,0,0,0,
,0.501,-0.553,-0.107,-219.666,-149.109,501.22,0,0,0,
,0.404,-0.625,-0.08,-291.321,-55.176,618.896,0,0,0,
,0.365,-0.636,-0.047,-477.539,59.082,759.399,0,0,0,
,0.31,-0.639,0.001,-680.359,197.815,907.348,0,0,0,
,0.262,-0.664,0.057,-756.043,438.293,1135.07,0,0,0,
,0.196,-0.623,-0.047,-716.309,684.509,1429.199,0,0,0,
,0.19,-0.513,-0.238,-689.393,789.55,1673.156,0,0,0,
,0.252,-0.485,-0.415,-790.894,764.77,1813.415,0,0,0,
,0.317,-0.497,-0.518,-883.179,567.566,1938.598,0,0,0,
,0.353,-0.465,-0.485,-752.747,433.044,1995.788,0,0,0,
,0.459,-0.388,-0.271,-401.734,336.12,1942.077,0,0,0,
,0.574,-0.446,-0.158,26.916,330.383,1805.175,0,0,0,
,0.751,-0.599,-0.126,350.341,369.018,1697.815,0,0,0,
,0.915,-0.754,-0.237,405.883,359.436,1660.827,0,0,0,
,0.976,-0.717,-0.392,340.393,258.85,1598.755,0,0,0,
,1.18,-0.534,-0.284,204.528,178.161,1308.471,0,0,0,
,1.337,-0.822,-0.522,234.863,-77.637,882.141,0,0,0,
,1.308,-0.711,-0.55,564.026,-462.891,701.721,0,0,0,
,1.162,-0.405,-0.419,1595.214,-669.129,191.162,0,0,0,
,1.071,-0.985,-0.675,1958.313,-701.966,-384.949,0,0,0,
,0.815,-1.032,-0.518,1683.41,-652.161,-138.489,0,0,0,
,0.58,-0.69,-0.457,1264.526,-192.261,-205.384,0,0,0,
,0.749,-0.853,-0.407,995.483,156.494,-390.198,0,0,0,
,1.106,-1,-0.056,586.731,140.808,-378.052,0,0,0,
,1.22,-0.802,0.26,17.944,-101.319,-300.721,0,0,0,
,1.062,-0.481,0.299,-280.091,-242.31,-180.848,0,0,0,
,0.884,-0.265,0.21,-374.634,-175.232,-64.82,0,0,0,
,0.892,-0.149,0.096,-414.368,-19.776,27.771,0,0,0,
,0.982,-0.186,0.021,-471.68,55.297,75.134,0,0,0,
,1.002,-0.167,-0.125,-490.601,53.833,105.285,0,0,0,
,0.957,-0.08,-0.185,-430.542,-5.86,113.342,0,0,0,
,0.894,-0.044,-0.24,-273.926,-11.719,85.083,0,0,0,
,0.904,-0.065,-0.275,-110.779,17.944,62.927,0,0,0,
,0.93,-0.096,-0.29,-22.095,15.686,43.823,0,0,0,
,0.904,-0.068,-0.262,23.742,-10.376,35.766,0,0,0,
,0.89,-0.059,-0.21,94.238,-1.221,8.483,0,0,0,
,0.911,-0.1,-0.186,174.011,17.7,-26.551,0,0,0,
,0.972,-0.179,-0.138,236.877,21.057,-45.044,0,0,0,
,1.022,-0.248,-0.079,272.644,0,-78.675,0,0,0,
,1.001,-0.277,-0.032,270.202,-25.147,-83.863,0,0,0,
,0.97,-0.308,-0.018,237.548,-15.564,-65.125,0,0,0,
,0.969,-0.366,-0.021,146.728,14.465,-21.241,0,0,0,
,0.981,-0.443,-0.03,-34.668,10.62,25.634,0,0,0,
,0.96,-0.457,-0.019,-262.207,21.301,97.656,0,0,0,
,0.948,-0.462,0.043,-432.496,55.114,130.188,0,0,0,
,0.986,-0.614,0.155,-621.582,129.821,176.574,0,0,0,
,1.139,-0.827,0.36,-803.833,224.487,289.245,0,0,0,
,1.372,-1.136,0.549,-1038.27,239.318,406.189,0,0,0,
,1.479,-1.382,0.628,-1486.634,171.508,485.901,0,0,0,
,1.536,-1.223,0.971,-1890.748,111.572,535.949,0,0,0,
,1.859,-1.031,1.179,-1873.841,187.683,562.439,0,0,0,
,2.449,-0.409,1.087,-1556.641,148.315,373.779,0,0,0,
,3.299,-0.096,0.706,-1015.992,-521.851,8.361,0,0,0,
,3.726,-0.362,0.413,-799.378,-1767.09,-726.38,0,0,0,
,3.65,-0.34,0.421,-970.154,-2000,-1243.409,0,0,0,
,3.876,-0.062,0.466,-867.493,-2000,-1684.266,0,0,0,
,3.999,-0.234,0.181,-437.256,-2000,-2000,0,0,0,
,3.999,-0.646,0.028,-25.757,-2000,-2000,0,0,0,
,3.81,-0.903,-0.089,205.505,-2000,-2000,0,0,0,
,3.509,-0.705,-0.264,444.58,-2000,-2000,0,0,0,
,3.324,-0.566,-0.503,698.364,-2000,-2000,0,0,0,
,3.002,-0.483,-0.719,634.582,-2000,-2000,0,0,0,
,2.64,-0.35,-0.837,469.97,-2000,-2000,0,0,0,
,2.729,-0.161,-0.899,459.777,-2000,-2000,0,0,0,
,2.78,-0.01,-0.976,614.196,-2000,-2000,0,0,0,
,2.558,0.043,-1.098,300.232,-2000,-2000,0,0,0,
,2.712,0.198,-1.082,-4.395,-2000,-2000,0,0,0,
,1.955,0.495,-0.871,-138.55,-2000,-2000,0,0,0,
,1.359,0.552,-0.974,485.351,-2000,-2000,0,0,0,
,1.382,1.338,-1.818,1457.458,-2000,-2000,0,0,0,
,0.527,3.999,-2.454,1999.694,-1346.68,-2000,0,0,0,
,0.282,3.999,-0.318,1999.694,-424.439,-2000,0,0,0,
,0.568,1.221,-1.065,1999.694,823.73,-1782.288,0,0,0,
,1.167,-3.714,-1.227,1856.14,-29.053,1990.844,0,0,0,
,0.144,0.606,0.171,1384.399,417.114,1999.694,0,0,0,
,-0.096,1.829,0.337,1713.134,644.531,1999.694,0,0,0,
,0.302,1.215,-0.009,1999.694,1176.086,1999.694,0,0,0,
,0.76,0.875,-0.269,1999.694,910.4,1999.694,0,0,0,
,1.104,0.751,-0.388,1683.41,793.884,1999.694,0,0,0,
,1.096,0.416,-0.66,1056.091,641.662,1999.694,0,0,0,
,1.139,0.098,-0.606,404.48,416.992,1999.694,0,0,0,
,1.181,-0.022,-0.57,-81.421,451.172,1999.694,0,0,0,
,1.35,-0.233,-0.585,-161.56,627.075,1999.694,0,0,0,
,1.439,-0.1,-0.544,3.479,658.691,1999.694,0,0,0,
,1.47,0.145,-0.329,126.77,747.619,1999.694,0,0,0,
,1.756,-0.289,-0.046,316.65,1176.513,1999.694,0,0,0,
,2.213,-1.174,-0.138,182.129,1639.282,1999.694,0,0,0,
,2.151,-1.797,-0.044,-324.646,1775.085,1999.694,0,0,0,
,1.568,-1.245,-0.174,-1023.865,1999.694,1999.694,0,0,0,
,2.251,-1.047,-0.037,-755.86,1999.694,1999.694,0,0,0,
,3.114,-0.694,-0.747,-472.474,1999.694,1999.694,0,0,0,
,3.669,-0.36,-0.954,72.57,1999.694,1999.694,0,0,0,
,3.583,-0.668,-0.655,560.302,1999.694,1999.694,0,0,0,
,3.409,-0.911,-0.219,626.587,1999.694,1999.694,0,0,0,
,3.742,-1.395,-0.228,328.735,1999.694,1887.085,0,0,0,
,3.985,-1.673,2.24,-15.198,173.584,1466.735,0,0,0,
,3.999,0.237,2.463,1999.694,-543.457,-1147.828,0,0,0,
,0.419,-1.497,0.045,830.505,-1280.457,-960.389,0,0,0,
,-0.055,-0.413,0.157,-267.64,-349.183,-16.785,0,0,0,
,0.183,-0.24,-0.097,-390.198,871.215,303.711,0,0,0,
,0.762,-0.36,-0.528,-464.539,1379.394,475.586,0,0,0,
,1.112,-0.069,-0.901,-805.726,842.163,715.088,0,0,0,
,0.983,0.222,-0.938,-787.476,-101.319,504.638,0,0,0,
,0.636,0.056,-0.909,-462.037,-573.06,134.826,0,0,0,
,0.394,0.014,-0.667,-297.425,-484.62,-79.407,0,0,0,
,0.443,-0.063,-0.354,-215.088,-25.269,-131.104,0,0,0,
,0.77,-0.168,-0.056,-320.374,399.414,-10.498,0,0,0,
,1.12,-0.166,0.121,-493.958,504.516,129.089,0,0,0,
,1.364,-0.067,0.135,-340.088,362.609,103.698,0,0,0,
,1.428,-0.085,-0.033,51.635,131.408,-57.129,0,0,0,
,1.287,-0.284,-0.103,281.372,-130.677,-171.998,0,0,0,
,1.035,-0.358,-0.185,259.704,-219.849,-163.514,0,0,0,
,0.882,-0.388,-0.239,114.929,-126.893,-136.048,0,0,0,
,0.857,-0.381,-0.244,-61.768,25.634,-41.199,0,0,0,
,0.907,-0.364,-0.214,-246.521,139.282,-23.499,0,0,0,
,0.962,-0.405,-0.214,-371.155,129.821,-7.142,0,0,0,
,0.942,-0.428,-0.213,-486.084,31.005,32.653,0,0,0,
,0.867,-0.446,-0.226,-582.825,-42.481,46.203,0,0,0,
,0.814,-0.464,-0.226,-689.576,-33.081,86.303,0,0,0,
,0.869,-0.501,-0.184,-810.669,-11.048,131.408,0,0,0,
,0.958,-0.666,-0.176,-955.872,48.278,170.105,0,0,0,
,1.095,-0.827,-0.248,-1141.724,2.014,200.195,0,0,0,
,1.167,-0.918,-0.293,-1320.679,-183.106,245.727,0,0,0,
,1.15,-0.78,-0.292,-1291.138,-353.577,143.554,0,0,0,
,1.228,-0.804,-0.241,-1143.799,-457.337,-23.804,0,0,0,
,1.406,-0.93,-0.188,-1268.311,-644.837,-191.712,0,0,0,
,1.524,-0.815,-0.083,-1458.741,-862.915,-446.534,0,0,0,
,1.425,-0.522,0.059,-1384.705,-933.533,-721.741,0,0,0,
,1.209,-0.314,0.04,-970.704,-834.961,-1055.909,0,0,0,
,1.073,-0.258,0.025,-348.938,-796.509,-1401.551,0,0,0,
,0.916,-0.286,-0.044,247.985,-834.839,-1683.045,0,0,0,
,0.676,-0.339,-0.078,665.283,-901.856,-1904.053,0,0,0,
,0.4,-0.408,-0.072,864.502,-865.784,-1991.883,0,0,0,
,0.191,-0.462,-0.074,871.887,-682.435,-1958.802,0,0,0,
,0.072,-0.446,-0.128,746.46,-488.404,-1874.268,0,0,0,
,0.046,-0.422,-0.129,626.281,-425.904,-1843.201,0,0,0,
,0.12,-0.484,-0.089,649.109,-322.327,-1695.618,0,0,0,
,0.227,-0.579,-0.061,578.796,-351.014,-1562.073,0,0,0,
,0.244,-0.794,0.061,304.321,-414.002,-1353.028,0,0,0,
,0.236,-0.796,0.136,-209.717,-352.112,-1103.089,0,0,0,
,0.267,-0.622,0.198,-700.745,-314.331,-935.852,0,0,0,
,0.279,-0.368,0.183,-875.672,-271.119,-872.193,0,0,0,
,0.297,-0.308,0.152,-635.987,-256.836,-796.936,0,0,0,
,0.343,-0.456,0.141,-193.604,-175.11,-655.945,0,0,0,
,0.388,-0.698,0.22,82.519,-118.47,-453.797,0,0,0,
,0.517,-0.847,0.204,-12.513,-68.543,-296.631,0,0,0,
,0.543,-0.719,0.165,-115.723,-71.045,-192.505,0,0,0,
,0.626,-0.612,0.171,63.903,-107.911,-136.841,0,0,0,
,0.649,-0.75,0.187,313.903,-168.885,-144.593,0,0,0,
,0.596,-0.92,0.229,465.942,-173.829,-149.17,0,0,0,
,0.578,-0.987,0.242,498.596,-153.992,-118.531,0,0,0,
,0.522,-1.053,0.229,485.717,-105.957,-107.3,0,0,0,
,0.362,-1.022,0.208,476.196,-112.549,-300.843,0,0,0,
,0.302,-1.187,0.202,481.689,-99.488,-324.646,0,0,0,
,0.283,-1.219,0.172,355.774,-76.966,-305.237,0,0,0,
,0.262,-1.107,0.203,232.971,-165.223,-281.128,0,0,0,
,0.299,-1.117,0.183,146.057,-265.015,-362.061,0,0,0,
,0.095,-1.188,0.307,-2.93,-293.763,-395.508,0,0,0,
,0.249,-1.345,0.216,-188.538,-271.851,-521.729,0,0,0,
,0.112,-1.205,0.295,41.87,-191.468,-500.55,0,0,0,
,0.178,-1.136,0.136,202.27,-93.506,-367.432,0,0,0,
,0.131,-0.975,0.059,589.66,-57.618,-269.593,0,0,0,
,0.149,-1.152,0.025,684.875,-62.745,-244.141,0,0,0,
,0.107,-1.075,0.058,498.657,-57.618,-230.164,0,0,0,
,0.069,-1.071,0.003,520.874,34.79,-186.829,0,0,0,
,0.043,-1.236,-0.038,647.705,62.744,-151.062,0,0,0,
,0.006,-1.258,-0.04,686.645,58.654,-115.906,0,0,0,
,0.02,-1.365,-0.019,701.538,80.566,-62.439,0,0,0,
,0.013,-1.101,0.022,573.974,22.888,-101.075,0,0,0,
,0.001,-1.305,0.076,468.322,89.843,-52.979,0,0,0,
,0.016,-1.239,0.078,281.25,135.254,-35.279,0,0,0,
,0.064,-1.242,-0.005,100.097,175.781,-32.776,0,0,0,
,0.07,-1.26,-0.06,-28.687,158.935,-44.068,0,0,0,
,0.067,-1.263,-0.117,160.156,142.395,-29.114,0,0,0,
,0.047,-1.304,-0.211,390.075,132.568,-46.509,0,0,0,
,0.051,-1.389,-0.243,477.478,119.812,-99.122,0,0,0,
,0.011,-1.452,-0.24,487.182,139.709,-148.072,0,0,0,
,-0.038,-1.412,-0.44,463.44,229.126,-346.68,0,0,0,
,-0.084,-1.353,-0.401,368.713,249.023,-434.754,0,0,0,
,-0.114,-1.317,-0.394,327.209,286.865,-484.62,0,0,0,
,-0.137,-1.174,-0.428,353.942,302.978,-539.49,0,0,0,
,-0.123,-1.105,-0.399,338.562,319.213,-607.3,0,0,0,
,-0.073,-1.099,-0.281,220.214,313.72,-745.545,0,0,0,
,-0.227,-1.157,-0.373,215.759,403.442,-655.579,0,0,0,
,-0.19,-1.068,-0.428,154.297,416.626,-691.346,0,0,0,
,-0.267,-1.001,-0.42,192.932,421.63,-708.863,0,0,0,
,-0.258,-1.002,-0.377,149.475,437.561,-726.99,0,0,0,
,-0.267,-0.986,-0.312,62.072,453.674,-736.329,0,0,0,
,-0.275,-0.922,-0.315,-61.829,475.83,-760.682,0,0,0,
,-0.263,-0.818,-0.358,-112.549,460.998,-789.49,0,0,0,
,-0.325,-0.795,-0.354,-104.493,471.618,-815.003,0,0,0,
,-0.329,-0.843,-0.348,-114.197,466.369,-821.961,0,0,0,
,-0.357,-0.819,-0.287,-136.536,473.755,-828.248,0,0,0,
,-0.394,-0.813,-0.248,-176.636,489.135,-826.783,0,0,0,
,-0.404,-0.626,-0.285,-164.978,424.56,-832.825,0,0,0,
,-0.461,-0.728,-0.198,-141.297,429.382,-813.111,0,0,0,
,-0.458,-0.728,-0.227,-159.729,420.959,-802.552,0,0,0,
,-0.511,-0.704,-0.244,-214.173,394.531,-815.857,0,0,0,
,-0.519,-0.627,-0.18,-168.152,374.328,-801.758,0,0,0,
,-0.55,-0.616,-0.158,-182.923,371.276,-802.552,0,0,0,
,-0.605,-0.58,-0.124,-264.71,374.206,-811.28,0,0,0,
,-0.619,-0.569,-0.148,-361.084,373.596,-826.477,0,0,0,
,-0.636,-0.534,-0.118,-386.841,366.76,-818.848,0,0,0,
,-0.638,-0.47,-0.045,-398.621,363.952,-823.853,0,0,0,
,-0.683,-0.458,-0.001,-341.431,377.929,-807.618,0,0,0,
,-0.757,-0.382,0.079,-228.455,362.487,-765.198,0,0,0,
,-0.761,-0.36,0.062,-175.171,346.618,-743.287,0,0,0,
,-0.803,-0.382,0.116,-172.669,350.28,-725.586,0,0,0,
,-0.816,-0.372,0.112,-206.055,354.614,-719.178,0,0,0,
,-0.866,-0.357,0.135,-246.155,357.177,-710.328,0,0,0,
,-0.886,-0.266,0.179,-248.047,374.817,-681.641,0,0,0,
,-0.913,-0.265,0.229,-252.869,357.177,-662.232,0,0,0,
,-0.879,-0.264,0.103,-329.956,295.166,-645.386,0,0,0,
,-0.906,-0.219,0.275,-299.195,284.729,-637.574,0,0,0,
,-0.918,-0.089,0.263,-322.205,283.447,-648.011,0,0,0,
,-0.921,-0.084,0.229,-345.276,281.799,-650.757,0,0,0,
,-0.913,-0.093,0.21,-368.409,264.892,-640.503,0,0,0,
,-0.921,-0.083,0.225,-359.009,261.169,-626.526,0,0,0,
,-0.894,-0.033,0.227,-329.163,242.92,-604.371,0,0,0,
,-0.904,-0.011,0.266,-316.59,235.473,-583.069,0,0,0,
,-0.912,0.039,0.249,-340.088,244.018,-570.313,0,0,0,
,-0.903,0.039,0.287,-317.2,259.643,-476.624,0,0,0,
,-0.914,0.088,0.298,-318.97,258.85,-444.397,0,0,0,
,-0.903,0.144,0.308,-312.195,260.437,-418.274,0,0,0,
,-0.881,0.153,0.32,-290.711,259.582,-392.456,0,0,0,
,-0.897,0.138,0.33,-253.174,263,-364.441,0,0,0,
,-0.902,0.166,0.29,-218.323,256.408,-341.065,0,0,0,
,-0.901,0.154,0.321,-205.384,233.764,-328.248,0,0,0,
,-0.885,0.166,0.342,-212.708,223.388,-329.407,0,0,0,
,-0.88,0.178,0.365,-187.256,218.444,-325.074,0,0,0,
,-0.881,0.208,0.381,-187.989,216.369,-331.055,0,0,0,
,-0.895,0.176,0.354,-190.735,204.956,-332.52,0,0,0,
,-0.895,0.221,0.392,-158.57,189.88,-323.792,0,0,0,
,-0.88,0.251,0.384,-125.184,181.884,-320.557,0,0,0,
,-0.87,0.249,0.406,-127.564,170.654,-322.51,0,0,0,
,-0.882,0.235,0.405,-184.937,166.442,-326.783,0,0,0,
,-0.889,0.261,0.391,-199.463,175.476,-323.67,0,0,0,
,-0.879,0.281,0.427,-185.12,179.565,-323.67,0,0,0,
,-0.867,0.322,0.432,-155.64,185.302,-323.121,0,0,0,
,-0.856,0.305,0.391,-160.889,175.964,-323.304,0,0,0,
,-0.852,0.308,0.411,-173.645,154.968,-317.2,0,0,0,
,-0.838,0.31,0.424,-171.753,147.155,-304.871,0,0,0,
,-0.826,0.314,0.455,-146.485,149.292,-288.636,0,0,0,
,-0.828,0.337,0.435,-140.931,155.09,-276.429,0,0,0,
,-0.814,0.416,0.4,-124.756,140.564,-270.203,0,0,0,
,-0.787,0.391,0.386,-122.803,124.694,-270.813,0,0,0,
,-0.779,0.347,0.425,-145.508,117.248,-264.222,0,0,0,
,-0.786,0.343,0.449,-139.771,125.793,-219.422,0,0,0,
,-0.788,0.398,0.409,-158.02,130.432,-233.46,0,0,0,
,-0.77,0.453,0.446,-150.208,127.99,-239.441,0,0,0,
,-0.755,0.469,0.45,-135.193,125.427,-246.399,0,0,0,
,-0.756,0.417,0.447,-121.644,116.394,-241.456,0,0,0,
,-0.764,0.447,0.459,-106.019,107.727,-227.051,0,0,0,
,-0.764,0.49,0.475,-106.934,109.314,-220.154,0,0,0,
,-0.766,0.507,0.451,-114.075,110.595,-221.131,0,0,0,
,-0.756,0.494,0.454,-126.221,117.981,-228.943,0,0,0,
,-0.757,0.482,0.421,-102.417,113.281,-225.647,0,0,0,
,-0.759,0.491,0.455,-84.168,108.032,-204.895,0,0,0,
,-0.76,0.552,0.488,-87.586,118.53,-190.918,0,0,0,
,-0.742,0.553,0.441,-99.854,114.99,-185.059,0,0,0,
