TIMECODE,ACC_X,ACC_Y,ACC_Z,GYR_X,GYR_Y,GYR_Z,TAG
00:00:00:0,0.947,0.154,0.187,24.414,8.239,-25.757,
00:00:00:16,0.95,0.157,0.189,19.714,7.263,-25.879,
00:00:00:33,0.944,0.156,0.19,18.249,6.591,-24.781,
00:00:00:50,0.948,0.156,0.186,15.564,8.483,-23.926,
00:00:00:66,0.946,0.158,0.189,13.488,8.789,-22.889,
00:00:00:83,0.952,0.16,0.185,7.019,10.925,-20.63,
00:00:00:100,0.951,0.16,0.187,6.713,7.08,-18.86,
00:00:00:116,0.953,0.164,0.188,9.216,6.774,-19.41,
00:00:00:133,0.949,0.161,0.184,11.23,5.554,-20.997,
00:00:00:150,0.95,0.152,0.188,12.573,14.343,-17.456,
00:00:00:166,0.951,0.155,0.19,9.277,14.709,-17.518,
00:00:00:183,0.953,0.157,0.184,9.277,14.038,-18.555,
00:00:00:200,0.952,0.158,0.187,10.803,12.512,-19.654,
00:00:00:216,0.95,0.156,0.186,8.361,11.23,-18.677,
00:00:00:233,0.952,0.16,0.188,11.84,8.483,-20.203,
00:00:00:250,0.947,0.16,0.19,12.695,9.582,-20.081,
00:00:00:266,0.951,0.158,0.19,11.108,12.39,-21.241,
00:00:00:283,0.951,0.156,0.188,10.131,11.108,-23.194,
00:00:00:300,0.951,0.159,0.158,9.216,8.728,-22.828,
00:00:00:316,0.948,0.159,0.186,7.873,9.033,-23.865,
00:00:00:333,0.951,0.161,0.186,10.681,9.826,-22.522,
00:00:00:350,0.951,0.157,0.184,12.512,9.399,-23.316,
00:00:00:366,0.949,0.156,0.188,11.657,11.474,-23.499,
00:00:00:383,0.953,0.158,0.19,10.009,9.46,-23.621,
00:00:00:400,0.954,0.156,0.189,9.582,9.521,-25.818,
00:00:00:416,0.952,0.157,0.188,9.338,8.117,-25.818,
00:00:00:433,0.949,0.159,0.188,10.253,5.798,-25.513,
00:00:00:450,0.949,0.162,0.191,10.681,7.751,-26.856,
00:00:00:466,0.948,0.156,0.189,12.268,9.582,-25.147,
00:00:00:483,0.951,0.158,0.189,11.718,9.704,-27.161,
00:00:00:500,0.95,0.16,0.184,13.244,8.3,-27.405,
00:00:00:516,0.946,0.16,0.194,12.817,8.667,-26.49,
00:00:00:533,0.944,0.156,0.187,8.361,8.85,-25.208,
00:00:00:550,0.952,0.158,0.185,6.286,6.958,-23.438,
00:00:00:566,0.956,0.159,0.181,2.136,4.272,-24.72,
00:00:00:583,0.949,0.157,0.189,0.183,3.662,-24.17,
00:00:00:600,0.95,0.159,0.188,1.342,6.836,-26.734,
00:00:00:616,0.947,0.161,0.182,3.234,6.713,-26.673,
00:00:00:633,0.941,0.158,0.188,10.803,7.141,-24.72,
00:00:00:650,0.941,0.153,0.192,11.23,11.291,-25.696,
00:00:00:666,0.951,0.152,0.188,5.004,10.925,-25.147,
00:00:00:683,0.953,0.158,0.184,-0.184,10.253,-26.307,
00:00:00:700,0.954,0.159,0.158,0.183,8.056,-26.734,
00:00:00:716,0.95,0.164,0.157,5.859,10.131,-23.621,
00:00:00:733,0.953,0.163,0.187,10.498,8.789,-23.072,
00:00:00:750,0.955,0.161,0.183,13.427,4.455,-22.95,
00:00:00:766,0.947,0.151,0.189,13.855,5.554,-20.447,
00:00:00:783,0.946,0.149,0.189,6.591,9.399,-20.386,
00:00:00:800,0.952,0.15,0.184,-3.54,8.911,-20.997,
00:00:00:816,0.951,0.151,0.187,-10.56,9.46,-20.935,
00:00:00:833,0.95,0.159,0.186,-13.184,8.239,-21.424,
00:00:00:850,0.951,0.158,0.188,1.77,11.84,-22.034,
00:00:00:866,0.953,0.156,0.183,2.99,9.521,-20.874,
00:00:00:883,0.953,0.158,0.186,-0.672,9.155,-22.339,
00:00:00:900,0.948,0.157,0.184,-1.404,7.446,-20.325,
00:00:00:916,0.949,0.158,0.185,-1.77,8.422,-23.316,
00:00:00:933,0.952,0.157,0.18,-2.686,9.887,-23.743,
00:00:00:950,0.954,0.158,0.18,-0.123,9.155,-22.767,
00:00:00:966,0.95,0.156,0.187,2.136,10.742,-24.537,
00:00:00:983,0.951,0.154,0.192,2.563,12.329,-24.292,
00:00:01:0,0.952,0.157,0.188,2.014,10.986,-26.551,
00:00:01:16,0.953,0.154,0.187,0,8.728,-25.757,
00:00:01:33,0.952,0.155,0.188,-5.616,6.225,-27.527,
00:00:01:50,0.95,0.157,0.188,-8.973,4.943,-27.283,
00:00:01:66,0.949,0.161,0.189,-10.621,7.019,-26.978,
00:00:01:83,0.946,0.166,0.19,-7.874,8.361,-28.626,
00:00:01:100,0.949,0.164,0.157,-3.479,8.178,-28.565,
00:00:01:116,0.948,0.161,0.193,1.342,6.164,-27.222,
00:00:01:133,0.948,0.161,0.189,3.601,2.502,-26.612,
00:00:01:150,0.949,0.161,0.187,2.075,2.38,-26.49,
00:00:01:166,0.951,0.16,0.183,-0.123,2.502,-26.368,
00:00:01:183,0.947,0.161,0.187,2.563,3.295,-26.185,
00:00:01:200,0.945,0.163,0.186,8.728,8.728,-26.612,
00:00:01:216,0.945,0.155,0.191,13.061,7.629,-24.292,
00:00:01:233,0.955,0.148,0.182,7.568,4.699,-24.781,
00:00:01:250,0.958,0.148,0.184,-2.503,-2.381,-24.659,
00:00:01:266,0.949,0.155,0.187,-6.47,-0.061,-26.123,
00:00:01:283,0.947,0.157,0.183,-3.113,6.103,-28.016,
00:00:01:300,0.947,0.16,0.188,1.709,7.568,-29.541,
00:00:01:316,0.944,0.156,0.19,3.662,9.765,-28.321,
00:00:01:333,0.947,0.154,0.186,1.77,7.812,-26.307,
00:00:01:350,0.948,0.158,0.187,2.319,7.934,-25.635,
00:00:01:366,0.953,0.161,0.184,3.723,6.042,-28.016,
00:00:01:383,0.951,0.161,0.185,8.361,7.202,-27.649,
00:00:01:400,0.949,0.16,0.188,9.277,10.803,-26.368,
00:00:01:416,0.953,0.158,0.186,6.958,10.315,-25.696,
00:00:01:433,0.952,0.158,0.185,7.263,8.728,-24.109,
00:00:01:450,0.947,0.154,0.189,6.958,8.483,-23.133,
00:00:01:466,0.951,0.151,0.182,5.493,10.192,-23.987,
00:00:01:483,0.951,0.152,0.187,1.464,6.713,-23.804,
00:00:01:500,0.954,0.152,0.187,-2.625,6.225,-23.499,
00:00:01:516,0.948,0.152,0.218,-3.113,8.056,-25.391,
00:00:01:533,0.946,0.155,0.191,-4.7,10.62,-25.513,
00:00:01:550,0.95,0.155,0.187,-3.785,10.986,-25.269,
00:00:01:566,0.953,0.155,0.187,-4.822,7.934,-24.781,
00:00:01:583,0.95,0.155,0.184,-4.395,8.361,-24.476,
00:00:01:600,0.951,0.154,0.184,-6.775,10.131,-23.621,
00:00:01:616,0.952,0.158,0.185,-7.325,9.277,-24.231,
00:00:01:633,0.953,0.161,0.184,-4.883,6.836,-26.551,
00:00:01:650,0.95,0.158,0.184,0.122,5.981,-24.598,
00:00:01:666,0.95,0.156,0.183,1.953,5.371,-24.414,
00:00:01:683,0.951,0.157,0.186,5.371,7.568,-24.964,
00:00:01:700,0.951,0.15,0.184,4.577,9.033,-24.72,
00:00:01:716,0.949,0.15,0.187,1.525,9.216,-24.17,
00:00:01:733,0.951,0.151,0.187,-1.221,8.3,-24.781,
00:00:01:750,0.951,0.149,0.181,-5.005,8.789,-24.476,
00:00:01:766,0.949,0.154,0.188,-9.522,7.324,-23.804,
00:00:01:783,0.954,0.157,0.188,-14.954,9.826,-23.621,
00:00:01:800,0.955,0.158,0.189,-11.841,9.704,-23.56,
00:00:01:816,0.953,0.159,0.186,-9.522,10.009,-26.001,
00:00:01:833,0.949,0.16,0.18,-7.813,7.69,-22.889,
00:00:01:850,0.947,0.16,0.183,-5.31,8.544,-23.011,
00:00:01:866,0.951,0.161,0.191,-5.127,10.498,-21.729,
00:00:01:883,0.953,0.164,0.191,-0.367,9.094,-20.813,
00:00:01:900,0.956,0.161,0.191,3.234,10.192,-22.828,
00:00:01:916,0.946,0.163,0.189,10.925,11.535,-20.325,
00:00:01:933,0.947,0.157,0.186,16.418,10.925,-19.532,
00:00:01:950,0.957,0.153,0.179,15.564,6.713,-19.959,
00:00:01:966,0.953,0.153,0.185,15.502,6.53,-19.593,
00:00:01:983,0.948,0.159,0.184,13.977,10.681,-22.644,
00:00:02:0,0.952,0.161,0.181,15.93,12.634,-24.476,
00:00:02:16,0.948,0.16,0.181,19.531,13.427,-24.537,
00:00:02:33,0.945,0.162,0.185,25.512,14.953,-22.644,
00:00:02:50,0.948,0.157,0.184,28.503,15.014,-19.349,
00:00:02:66,0.952,0.153,0.183,27.526,12.817,-18.738,
00:00:02:83,0.952,0.155,0.186,21.728,13.671,-18.799,
00:00:02:100,0.949,0.152,0.187,20.08,11.047,-19.837,
00:00:02:116,0.949,0.157,0.188,12.085,12.207,-18.738,
00:00:02:133,0.954,0.162,0.192,11.901,13.305,-19.349,
00:00:02:150,0.948,0.159,0.194,11.657,11.413,-15.564,
00:00:02:166,0.952,0.157,0.183,5.065,12.207,-16.724,
00:00:02:183,0.957,0.161,0.174,-0.184,5.676,-15.259,
00:00:02:200,0.953,0.168,0.174,2.258,1.281,-15.564,
00:00:02:216,0.946,0.167,0.168,10.192,6.774,-13.855,
00:00:02:233,0.946,0.167,0.173,15.991,8.972,-14.588,
00:00:02:250,0.943,0.163,0.174,16.662,14.77,-16.053,
00:00:02:266,0.947,0.158,0.18,15.808,17.944,-17.518,
00:00:02:283,0.949,0.158,0.184,13.549,21.24,-17.09,
00:00:02:300,0.953,0.159,0.19,13,18.493,-18.433,
00:00:02:316,0.956,0.163,0.19,13.916,12.756,-20.935,
00:00:02:333,0.957,0.168,0.191,18.737,7.324,-21.119,
00:00:02:350,0.956,0.169,0.188,26.733,6.469,-20.935,
00:00:02:366,0.954,0.166,0.187,36.804,7.08,-22.034,
00:00:02:383,0.955,0.161,0.187,46.814,2.746,-21.485,
00:00:02:400,0.953,0.152,0.185,48.767,-0.55,-20.874,
00:00:02:416,0.949,0.143,0.178,32.409,1.403,-20.447,
00:00:02:433,0.953,0.142,0.18,25.94,7.141,-23.987,
00:00:02:450,0.959,0.14,0.182,18.615,9.338,-27.222,
00:00:02:466,0.962,0.139,0.187,6.103,10.498,-29.053,
00:00:02:483,0.957,0.141,0.186,-4.578,5.859,-31.189,
00:00:02:500,0.955,0.157,0.198,-5.372,3.967,-30.64,
00:00:02:516,0.958,0.158,0.195,1.342,3.418,-33.081,
00:00:02:533,0.948,0.161,0.197,10.62,3.662,-33.265,
00:00:02:550,0.951,0.16,0.196,19.47,4.943,-34.18,
00:00:02:566,0.949,0.157,0.189,19.348,3.234,-32.349,
00:00:02:583,0.947,0.156,0.186,8.178,-2.32,-29.664,
00:00:02:600,0.943,0.158,0.177,6.897,2.197,-27.466,
00:00:02:616,0.94,0.158,0.216,7.69,5.127,-26.429,
00:00:02:633,0.944,0.153,0.189,7.812,10.62,-24.659,
00:00:02:650,0.947,0.151,0.192,2.197,12.329,-25.757,
00:00:02:666,0.95,0.161,0.191,-3.602,9.704,-25.757,
00:00:02:683,0.95,0.162,0.189,-1.099,6.591,-23.804,
00:00:02:700,0.946,0.165,0.191,2.502,5.065,-21.119,
00:00:02:716,0.95,0.164,0.192,11.169,8.606,-19.837,
00:00:02:733,0.951,0.156,0.19,13.244,6.103,-19.227,
00:00:02:750,0.946,0.153,0.195,13.671,8.606,-17.823,
00:00:02:766,0.944,0.153,0.191,-13.367,10.437,-20.447,
00:00:02:783,0.951,0.158,0.19,-16.419,10.498,-20.02,
00:00:02:800,0.943,0.165,0.185,-14.832,12.329,-20.63,
00:00:02:816,0.947,0.165,0.186,-8.973,14.099,-20.264,
00:00:02:833,0.949,0.161,0.188,-1.282,13.977,-17.884,
00:00:02:850,0.95,0.161,0.194,-2.503,14.526,-16.175,
00:00:02:866,0.951,0.163,0.192,1.464,14.343,-18.921,
00:00:02:883,0.948,0.162,0.191,9.887,12.695,-20.02,
00:00:02:900,0.95,0.159,0.192,11.352,12.146,-19.715,
00:00:02:916,0.952,0.157,0.181,0.793,9.521,-18.494,
00:00:02:933,0.947,0.156,0.218,1.892,8.239,-19.471,
00:00:02:950,0.951,0.154,0.187,-0.977,12.756,-20.081,
00:00:02:966,0.948,0.154,0.187,-4.822,12.023,-20.691,
00:00:02:983,0.949,0.155,0.187,-9.034,11.779,-21.119,
00:00:03:0,0.951,0.162,0.188,-13.245,7.263,-22.583,
00:00:03:16,0.947,0.164,0.19,-10.743,6.042,-22.156,
00:00:03:33,0.952,0.162,0.188,-10.987,5.92,-22.828,
00:00:03:50,0.958,0.161,0.184,-9.827,1.709,-22.767,
00:00:03:66,0.954,0.159,0.19,-11.414,0.854,-23.865,
00:00:03:83,0.949,0.164,0.187,-8.667,1.831,-26.001,
00:00:03:100,0.949,0.165,0.185,-1.893,1.831,-25.513,
00:00:03:116,0.943,0.163,0.193,3.906,3.784,-24.781,
00:00:03:133,0.945,0.158,0.19,8.361,9.521,-24.598,
00:00:03:150,0.948,0.154,0.19,4.394,6.103,-26.123,
00:00:03:166,0.953,0.158,0.19,-3.663,5.065,-26.246,
00:00:03:183,0.949,0.162,0.191,-6.226,4.638,-26.123,
00:00:03:200,0.956,0.163,0.184,-7.447,4.455,-26.856,
00:00:03:216,0.946,0.164,0.187,-11.048,4.089,-25.33,
00:00:03:233,0.954,0.164,0.186,-11.719,3.051,-24.414,
00:00:03:250,0.952,0.165,0.192,-8.362,-0.367,-25.33,
00:00:03:266,0.948,0.164,0.194,-4.761,-0.916,-25.757,
00:00:03:283,0.945,0.159,0.192,1.464,5.127,-25.879,
00:00:03:300,0.944,0.156,0.19,-2.808,7.202,-26.856,
00:00:03:316,0.945,0.158,0.188,-8.301,8.667,-27.527,
00:00:03:333,0.946,0.16,0.186,-10.437,9.765,-28.748,
00:00:03:350,0.948,0.165,0.183,-8.057,9.277,-30.396,
00:00:03:366,0.951,0.169,0.184,-2.137,11.84,-28.687,
00:00:03:383,0.948,0.17,0.186,5.554,11.779,-28.199,
00:00:03:400,0.947,0.167,0.189,11.291,13.488,-26.551,
00:00:03:416,0.949,0.162,0.191,14.343,14.099,-24.72,
00:00:03:433,0.949,0.161,0.192,13.488,12.146,-24.72,
00:00:03:450,0.95,0.155,0.193,13.366,8.239,-22.767,
00:00:03:466,0.947,0.152,0.193,8.972,7.751,-23.316,
00:00:03:483,0.946,0.15,0.189,1.953,10.253,-24.292,
00:00:03:500,0.946,0.153,0.189,-3.968,13.61,-24.292,
00:00:03:516,0.951,0.155,0.187,-13.733,13.183,-24.903,
00:00:03:533,0.953,0.16,0.19,-16.419,13.916,-24.659,
00:00:03:550,0.951,0.161,0.195,-18.25,10.742,-22.339,
00:00:03:566,0.946,0.168,0.198,-15.015,13.061,-22.339,
00:00:03:583,0.941,0.168,0.192,-9.949,12.023,-21.424,
00:00:03:600,0.953,0.163,0.183,-6.836,10.376,-22.522,
00:00:03:616,0.953,0.166,0.182,-4.517,7.385,-22.339,
00:00:03:633,0.948,0.165,0.191,1.281,10.315,-23.255,
00:00:03:650,0.949,0.169,0.19,12.573,14.587,-27.955,
00:00:03:666,0.949,0.165,0.19,21.789,13.366,-28.931,
00:00:03:683,0.946,0.16,0.192,26.245,12.085,-26.917,
00:00:03:700,0.951,0.156,0.19,19.104,10.559,-25.757,
00:00:03:716,0.95,0.157,0.185,15.869,9.277,-24.231,
00:00:03:733,0.953,0.16,0.183,16.113,8.728,-23.804,
00:00:03:750,0.952,0.159,0.184,14.221,10.498,-23.499,
00:00:03:766,0.955,0.159,0.186,16.113,10.62,-25.33,
00:00:03:783,0.954,0.159,0.184,14.16,12.695,-23.987,
00:00:03:800,0.944,0.159,0.19,10.925,9.765,-23.56,
00:00:03:816,0.947,0.158,0.187,8.667,11.596,-23.926,
00:00:03:833,0.954,0.154,0.185,4.028,7.202,-25.147,
00:00:03:850,0.948,0.16,0.188,3.051,6.53,-23.865,
00:00:03:866,0.946,0.164,0.187,7.141,9.948,-26.429,
00:00:03:883,0.947,0.166,0.186,10.131,12.878,-24.964,
00:00:03:900,0.953,0.162,0.187,13.488,12.695,-25.452,
00:00:03:916,0.953,0.162,0.184,14.465,11.779,-25.696,
00:00:03:933,0.951,0.161,0.187,13.305,8.3,-25.94,
00:00:03:950,0.953,0.165,0.187,17.578,10.315,-23.804,
00:00:03:966,0.948,0.165,0.183,21.545,9.033,-23.987,
00:00:03:983,0.953,0.159,0.183,23.742,9.948,-24.781,
00:00:04:0,0.948,0.155,0.185,25.024,7.507,-24.659,
00:00:04:16,0.951,0.153,0.189,22.461,9.338,-26.429,
00:00:04:33,0.952,0.152,0.185,22.277,13,-24.842,
00:00:04:50,0.952,0.151,0.189,18.981,10.986,-26.856,
00:00:04:66,0.953,0.153,0.187,14.099,9.277,-26.307,
00:00:04:83,0.95,0.157,0.183,9.765,8.056,-26.185,
00:00:04:100,0.947,0.159,0.18,10.864,10.803,-24.537,
00:00:04:116,0.948,0.161,0.183,13.794,12.268,-23.926,
00:00:04:133,0.949,0.156,0.181,14.282,13.488,-24.903,
00:00:04:150,0.953,0.156,0.182,14.77,13.244,-24.842,
00:00:04:166,0.954,0.156,0.183,12.756,11.84,-24.964,
00:00:04:183,0.95,0.158,0.192,9.948,11.413,-24.598,
00:00:04:200,0.949,0.16,0.188,12.146,10.62,-23.377,
00:00:04:216,0.954,0.154,0.182,9.704,7.69,-23.438,
00:00:04:233,0.961,0.153,0.182,8.483,4.089,-24.659,
00:00:04:250,0.954,0.155,0.187,5.493,4.516,-24.781,
00:00:04:266,0.95,0.158,0.188,8.667,7.629,-26.673,
00:00:04:283,0.947,0.158,0.184,12.817,10.742,-27.832,
00:00:04:300,0.947,0.158,0.183,21.362,7.568,-26.612,
00:00:04:316,0.945,0.152,0.189,24.169,6.713,-25.452,
00:00:04:333,0.948,0.151,0.18,18.493,10.009,-25.452,
00:00:04:350,0.95,0.154,0.186,12.207,10.742,-25.757,
00:00:04:366,0.947,0.158,0.177,12.146,12.451,-23.072,
00:00:04:383,0.953,0.157,0.181,13.732,10.803,-23.499,
00:00:04:400,0.953,0.155,0.188,17.761,13.305,-22.644,
00:00:04:416,0.955,0.153,0.187,16.906,13.122,-22.583,
00:00:04:433,0.948,0.151,0.189,11.108,13.549,-21.058,
00:00:04:450,0.954,0.152,0.19,6.225,12.573,-21.546,
00:00:04:466,0.958,0.153,0.192,1.525,9.338,-21.119,
00:00:04:483,0.951,0.155,0.191,0.732,4.211,-21.18,
00:00:04:500,0.947,0.154,0.189,4.089,3.784,-21.18,
00:00:04:516,0.944,0.156,0.156,6.652,6.164,-22.339,
00:00:04:533,0.948,0.153,0.184,7.019,7.812,-21.973,
00:00:04:550,0.949,0.151,0.181,3.479,9.948,-23.987,
00:00:04:566,0.951,0.157,0.179,0.488,10.864,-23.194,
00:00:04:583,0.951,0.158,0.179,0.854,12.695,-23.072,
00:00:04:600,0.951,0.159,0.181,2.624,13.183,-22.95,
00:00:04:616,0.952,0.162,0.177,7.08,12.939,-21.485,
00:00:04:633,0.954,0.16,0.182,12.268,13,-22.217,
00:00:04:650,0.952,0.154,0.183,16.54,13.488,-21.302,
00:00:04:666,0.951,0.147,0.188,16.052,14.038,-21.363,
00:00:04:683,0.957,0.143,0.189,11.291,10.681,-20.935,
00:00:04:700,0.952,0.145,0.186,-5.616,9.887,-22.522,
00:00:04:716,0.953,0.151,0.186,-10.743,9.704,-22.767,
00:00:04:733,0.955,0.153,0.18,-18.311,8.911,-23.377,
00:00:04:750,0.952,0.159,0.177,-21.058,7.08,-23.255,
00:00:04:766,0.953,0.164,0.181,-20.63,7.507,-21.119,
00:00:04:783,0.946,0.164,0.185,-14.039,6.53,-19.898,
00:00:04:800,0.948,0.164,0.181,-7.996,12.085,-19.959,
00:00:04:816,0.951,0.156,0.181,-6.043,9.582,-18.128,
00:00:04:833,0.959,0.153,0.174,-10.56,6.53,-20.691,
00:00:04:850,0.952,0.156,0.18,-13.916,4.76,-20.325,
00:00:04:866,0.949,0.163,0.182,-8.118,9.643,-24.292,
00:00:04:883,0.954,0.165,0.18,3.112,13.366,-27.1,
00:00:04:900,0.951,0.187,0.184,11.779,12.146,-26.123,
00:00:04:916,0.948,0.154,0.187,8.789,10.131,-24.17,
00:00:04:933,0.95,0.15,0.188,1.403,11.657,-23.011,
00:00:04:950,0.953,0.154,0.183,-8.057,9.216,-25.147,
00:00:04:966,0.955,0.162,0.183,-9.888,7.995,-25.086,
00:00:04:983,0.953,0.166,0.183,-8.179,9.521,-24.72,
00:00:05:0,0.951,0.165,0.179,-2.259,8.178,-25.025,
00:00:05:16,0.947,0.166,0.181,-0.428,8.483,-23.194,
00:00:05:33,0.944,0.165,0.187,2.38,10.62,-21.241,
00:00:05:50,0.953,0.161,0.181,2.258,10.192,-21.485,
00:00:05:66,0.952,0.162,0.181,5.065,5.615,-20.447,
00:00:05:83,0.954,0.163,0.185,7.202,5.065,-19.898,
00:00:05:100,0.954,0.163,0.188,11.474,6.591,-20.203,
00:00:05:116,0.948,0.161,0.187,15.258,5.249,-20.813,
00:00:05:133,0.952,0.155,0.189,13.305,5.31,-23.072,
00:00:05:150,0.955,0.155,0.189,6.897,2.441,-21.912,
00:00:05:166,0.955,0.158,0.186,2.99,-1.465,-20.264,
00:00:05:183,0.959,0.16,0.187,5.493,-5.249,-19.104,
00:00:05:200,0.952,0.162,0.183,8.728,-7.325,-20.386,
00:00:05:216,0.951,0.161,0.179,14.343,-6.409,-20.508,
00:00:05:233,0.951,0.16,0.185,14.709,-3.785,-21.485,
00:00:05:250,0.95,0.154,0.181,12.695,-1.465,-22.217,
00:00:05:266,0.944,0.152,0.175,5.554,-4.09,-19.471,
00:00:05:283,0.949,0.157,0.178,2.99,-1.16,-18.555,
00:00:05:300,0.949,0.159,0.183,6.774,1.22,-20.142,
00:00:05:316,0.948,0.158,0.179,9.155,5.554,-23.804,
00:00:05:333,0.95,0.156,0.18,7.934,7.995,-23.56,
00:00:05:350,0.951,0.159,0.183,6.591,9.887,-24.476,
00:00:05:366,0.946,0.158,0.186,6.042,11.413,-24.659,
00:00:05:383,0.949,0.159,0.189,5.432,9.643,-23.438,
00:00:05:400,0.954,0.158,0.182,5.615,9.765,-23.804,
00:00:05:416,0.942,0.155,0.178,5.798,7.751,-22.461,
00:00:05:433,0.941,0.152,0.179,1.648,9.887,-20.752,
00:00:05:450,0.941,0.151,0.182,-6.043,19.226,-19.959,
00:00:05:466,0.954,0.151,0.174,-13.062,20.996,-20.569,
00:00:05:483,0.955,0.156,0.179,-21.546,24.536,-22.706,
00:00:05:500,0.953,0.159,0.18,-24.048,25.695,-25.818,
00:00:05:516,0.953,0.165,0.182,-23.133,24.902,-26.795,
00:00:05:533,0.947,0.168,0.181,-0.855,22.522,-24.353,
00:00:05:550,0.941,0.167,0.187,-8.667,21.728,-24.353,
00:00:05:566,0.938,0.161,0.185,-10.132,29.174,-22.339,
00:00:05:583,0.944,0.163,0.19,-11.353,29.602,-21.119,
00:00:05:600,0.952,0.166,0.192,-10.56,28.808,-22.4,
00:00:05:616,0.953,0.165,0.192,-15.992,24.353,-21.912,
00:00:05:633,0.952,0.159,0.19,-23.682,22.155,-19.104,
00:00:05:650,0.957,0.186,0.181,-25.269,20.324,-15.625,
00:00:05:666,0.95,0.172,0.18,-9.278,17.334,-18.677,
00:00:05:683,0.948,0.167,0.185,-10.193,15.869,-16.968,
00:00:05:700,0.958,0.166,0.182,-11.597,12.146,-14.405,
00:00:05:716,0.956,0.158,0.217,-16.785,7.995,-16.297,
00:00:05:733,0.954,0.16,0.184,-25.33,6.652,-17.64,
00:00:05:750,0.954,0.161,0.18,-27.71,4.516,-17.823,
00:00:05:766,0.948,0.165,0.177,-23.987,9.765,-24.292,
00:00:05:783,0.946,0.169,0.176,-20.325,13.183,-23.255,
00:00:05:800,0.943,0.175,0.171,-11.597,18.554,-23.438,
00:00:05:816,0.943,0.172,0.174,-4.7,23.559,-25.147,
00:00:05:833,0.944,0.177,0.174,7.873,25.634,-26.429,
00:00:05:850,0.953,0.193,0.177,30.273,26.611,-28.931,
00:00:05:866,0.927,0.234,0.211,83.74,37.902,-26.551,
00:00:05:883,0.883,0.314,0.364,231.384,83.923,-10.987,
00:00:05:900,0.95,0.38,0.588,464.721,134.033,-32.898,
00:00:05:916,1.061,0.414,0.796,597.961,159.79,-108.521,
00:00:05:933,1.348,0.693,1.154,548.889,303.283,-163.147,
00:00:05:950,1.621,0.978,1.337,832.092,388.427,-267.395,
00:00:05:966,1.991,0.882,1.129,1392.089,367.675,-351.868,
00:00:05:983,2.54,0.005,0.814,1846.374,-246.827,-37.842,
00:00:06:0,2.885,-0.501,0.972,1403.198,-1256.226,476.013,
00:00:06:16,3.05,-0.466,1.329,424.926,-2000,769.165,
00:00:06:33,3.393,0.066,1.585,-261.597,-2000,1039.55,
00:00:06:50,3.732,0.398,1.717,-461.06,-2000,1281.921,
00:00:06:66,3.76,0.351,1.478,-543.274,-2000,1500.244,
00:00:06:83,3.6,0.414,1.078,-892.029,-2000,1754.516,
00:00:06:100,3.311,0.722,0.73,-1044.678,-2000,1999.694,
00:00:06:116,3.064,0.949,0.283,-786.438,-2000,1999.694,
00:00:06:133,3.034,0.928,-0.191,-337.098,-2000,1999.694,
00:00:06:150,3.167,0.616,-0.515,62.011,-2000,1999.694,
00:00:06:166,3.312,0.36,-0.781,382.263,-2000,1999.694,
00:00:06:183,3.224,-0.003,-1.095,607.91,-2000,1999.694,
00:00:06:200,3.139,-0.217,-1.402,448.364,-2000,1999.694,
00:00:06:216,2.757,-0.391,-1.841,222.351,-2000,1999.694,
00:00:06:233,2.008,-1.074,-2.662,-62.561,-2000,1999.694,
00:00:06:250,0.786,-2.106,-2.898,-552.002,-2000,1999.694,
00:00:06:266,0.155,-2.151,-2.945,-148.621,-2000,1999.694,
00:00:06:283,0.15,-0.683,-2.781,819.336,-994.141,1169.433,
00:00:06:300,-0.108,-0.337,-2.16,1095.764,556.396,-195.069,
00:00:06:316,0.141,-0.639,-1.483,-32.044,1928.588,-1050.965,
00:00:06:333,0.311,-0.697,-1.163,-1416.26,1999.694,-1588.746,
00:00:06:350,0.493,-0.518,-1.123,-2000,1999.694,-2000,
00:00:06:366,0.788,-0.345,-1.011,-2000,1999.694,-2000,
00:00:06:383,0.849,-0.166,-0.885,-1577.881,1999.694,-2000,
00:00:06:400,0.898,-0.102,-0.756,-557.435,1999.694,-2000,
00:00:06:416,1.023,-0.236,-0.67,228.637,1999.694,-2000,
00:00:06:433,1.243,-0.356,-0.605,569.091,1999.694,-2000,
00:00:06:450,1.475,-0.332,-0.64,525.879,1999.694,-2000,
00:00:06:466,1.652,-0.239,-0.63,233.337,1999.694,-2000,
00:00:06:483,1.877,-0.324,-0.775,-154.664,1999.694,-2000,
00:00:06:500,2.206,-0.518,-0.837,-488.404,1999.694,-2000,
00:00:06:516,2.499,-0.552,-0.581,-588.135,1999.694,-2000,
00:00:06:533,2.78,-0.412,-0.206,-432.496,1999.694,-2000,
00:00:06:550,3.928,0.89,0.824,-5.921,1999.694,-2000,
00:00:06:566,3.999,0.51,-0.693,815.063,1999.694,-2000,
00:00:06:583,3.999,-0.019,-0.104,1999.633,1999.694,-2000,
00:00:06:600,3.999,1.278,1.447,1999.694,1999.694,-2000,
00:00:06:616,3.999,1.454,1.963,1498.962,1999.694,-2000,
00:00:06:633,3.15,-0.884,-0.094,-870.789,-18.433,-861.634,
00:00:06:650,2.253,-1.711,2.755,-2000,-900.94,1433.532,
00:00:06:666,0.94,-1.044,2.376,-2000,-698.243,1265.625,
00:00:06:683,0.5,0.812,0.891,-2000,738.83,1303.894,
00:00:06:700,1.233,1.976,0.02,-2000,1205.383,924.865,
00:00:06:716,1.828,1.645,-0.385,-593.934,416.198,167.602,
00:00:06:733,1.014,0.151,-0.107,869.201,-559.876,73.547,
00:00:06:750,0.497,0.128,-0.166,1235.839,-483.704,33.752,
00:00:06:766,0.386,0.203,-0.259,657.47,-216.37,-304.688,
00:00:06:783,0.583,0.236,-0.41,166.381,32.531,-316.04,
00:00:06:800,0.798,0.263,-0.431,118.469,-4.883,-313.965,
00:00:06:816,0.817,0.25,-0.335,310.302,12.207,-153.077,
00:00:06:833,0.811,0.214,-0.195,425.659,168.335,-71.412,
00:00:06:850,0.954,0.215,-0.099,409.24,320.739,-81.91,
00:00:06:866,1.136,0.218,-0.079,369.506,340.393,-76.477,
00:00:06:883,1.195,0.159,-0.12,356.262,212.28,24.047,
00:00:06:900,1.124,-0.078,-0.105,239.013,9.826,122.009,
00:00:06:916,1.038,-0.259,-0.077,-21.302,-120.423,110.107,
00:00:06:933,0.989,-0.233,0.016,-235.169,-128.663,82.092,
00:00:06:950,0.946,-0.066,0.056,-157.288,-42.725,54.687,
00:00:06:966,0.975,-0.043,0.128,-24.048,36.743,-26.062,
00:00:06:983,1.049,0.034,0.22,59.509,78.125,-68.299,
00:00:07:0,1.105,0.105,0.193,152.893,46.997,-50.66,
00:00:07:16,1.076,0.143,0.112,280.273,-32.227,-2.076,
00:00:07:33,1.025,0.177,0.075,418.762,-76.05,29.724,
00:00:07:50,1.023,0.169,0.059,514.343,-108.094,55.419,
00:00:07:66,1.029,0.13,0.035,552.856,-133.057,85.937,
00:00:07:83,1.035,0.094,0.156,548.767,-156.25,101.623,
00:00:07:100,1.086,0.08,0.213,418.09,-137.818,122.619,
00:00:07:116,1.136,0.077,0.158,153.808,-174.866,187.133,
00:00:07:133,1.139,0.134,0.075,-42.542,-357.911,288.635,
00:00:07:150,1.063,0.177,0.126,-191.04,-552.918,393.921,
00:00:07:166,0.999,0.212,0.193,-339.905,-646.729,463.867,
00:00:07:183,0.972,0.276,0.389,-452.027,-678.284,517.212,
00:00:07:200,0.967,0.373,0.6,-494.751,-610.779,545.471,
00:00:07:216,1.005,0.404,0.497,-536.072,-528.138,550.659,
00:00:07:233,1.045,0.435,0.284,-572.632,-604.065,618.408,
00:00:07:250,1.023,0.511,0.268,-596.192,-756.775,715.698,
00:00:07:266,0.982,0.579,0.32,-631.897,-850.281,784.179,
00:00:07:283,0.937,0.595,0.429,-588.685,-900.33,845.031,
00:00:07:300,0.877,0.598,0.411,-506.775,-923.584,909.546,
00:00:07:316,0.82,0.6,0.294,-536.377,-969.849,967.346,
00:00:07:333,0.751,0.607,0.21,-651.307,-1026.124,1012.756,
00:00:07:350,0.639,0.613,0.206,-750.184,-1038.208,1047.241,
00:00:07:366,0.538,0.61,0.217,-776.734,-994.385,1095.214,
00:00:07:383,0.474,0.642,0.219,-781.983,-910.645,1115.539,
00:00:07:400,0.43,0.661,0.167,-762.452,-807.862,1114.685,
00:00:07:416,0.389,0.674,0.146,-739.441,-697.449,1068.603,
00:00:07:433,0.378,0.674,0.14,-678.162,-586.853,1011.596,
00:00:07:450,0.363,0.656,0.153,-581.604,-501.587,942.382,
00:00:07:466,0.345,0.585,0.078,-428.04,-452.027,889.038,
00:00:07:483,0.353,0.486,0.004,-317.261,-435.73,854.919,
00:00:07:500,0.324,0.495,0.09,-352.112,-436.341,822.082,
00:00:07:516,0.328,0.59,0.147,-525.208,-377.869,726.989,
00:00:07:533,0.364,0.67,0.15,-606.263,-322.754,616.333,
00:00:07:550,0.397,0.7,0.079,-524.353,-298.951,515.991,
00:00:07:566,0.404,0.645,0.065,-415.528,-269.593,487.426,
00:00:07:583,0.336,0.654,0.211,-314.942,-216.187,477.111,
00:00:07:600,0.339,0.732,0.27,-198.914,-160.096,427.734,
00:00:07:616,0.401,0.724,0.177,-110.779,-134.705,371.704,
00:00:07:633,0.451,0.69,0.114,-94.178,-114.563,340.088,
00:00:07:650,0.43,0.7,0.205,-88.074,-106.995,331.665,
00:00:07:666,0.414,0.748,0.252,-145.813,-77.759,297.363,
00:00:07:683,0.422,0.824,0.219,-281.434,-50.415,257.385,
00:00:07:700,0.444,0.895,0.206,-333.619,-9.278,236.816,
00:00:07:716,0.436,0.91,0.167,-211.548,22.766,229.431,
00:00:07:733,0.373,0.953,0.185,-3.54,50.781,251.159,
00:00:07:750,0.311,0.99,0.219,187.561,44.128,236.816,
00:00:07:766,0.29,0.891,0.219,119.751,33.142,190.368,
00:00:07:783,0.29,0.869,0.252,-173.462,51.879,152.893,
00:00:07:800,0.283,0.924,0.271,-377.259,14.221,166.565,
00:00:07:816,0.267,1.171,0.237,-300.171,-35.889,204.956,
00:00:07:833,0.234,1.192,0.237,-147.583,-109.375,227.722,
00:00:07:850,0.149,1.072,0.287,-68.36,-113.892,226.806,
00:00:07:866,0.105,0.935,0.288,-169.922,-44.495,191.65,
00:00:07:883,0.148,0.976,0.212,-253.235,5.493,138.427,
00:00:07:900,0.159,0.931,0.165,-406.922,0,98.51,
00:00:07:916,0.126,0.854,0.096,-695.008,-15.992,97.045,
00:00:07:933,0.092,1.004,0.009,-1034.363,-43.519,119.69,
00:00:07:950,0.073,1.219,-0.051,-1030.152,-73.182,206.604,
00:00:07:966,-0.083,1.283,-0.084,-896.485,18.371,264.404,
00:00:07:983,0.089,1.086,-0.137,-738.709,14.16,274.292,
00:00:08:0,0.022,0.996,-0.209,-865.723,30.7,265.258,
00:00:08:16,0.022,1.011,-0.302,-1026.978,30.395,205.627,
00:00:08:33,0.032,1.107,-0.203,-1082.215,-29.358,186.828,
00:00:08:50,-0.071,1.162,0.314,-940.857,-141.175,162.963,
00:00:08:66,0.027,1.505,0.088,-620.972,-29.358,161.132,
00:00:08:83,-0.013,1.195,-0.222,-91.309,29.48,104.98,
00:00:08:100,0.008,1.057,-0.365,-28.016,45.166,65.185,
00:00:08:116,-0.016,1.215,-0.37,-2.564,61.828,32.348,
00:00:08:133,-0.038,1.218,-0.317,105.835,71.044,35.583,
00:00:08:150,-0.059,1.255,-0.212,248.047,133.056,43.212,
00:00:08:166,-0.058,1.281,-0.306,401.184,200.683,67.749,
00:00:08:183,-0.113,1.253,-0.378,440.063,241.088,95.214,
00:00:08:200,-0.123,1.169,-0.38,460.876,234.619,135.742,
00:00:08:216,-0.145,1.108,-0.295,414.367,227.661,168.64,
00:00:08:233,-0.181,1.094,-0.22,373.413,240.051,206.298,
00:00:08:250,-0.182,1.064,-0.229,286.132,250.61,214.782,
00:00:08:266,-0.199,1.128,-0.226,191.345,280.212,221.13,
00:00:08:283,-0.198,1.143,-0.213,194.519,289.489,222.351,pourRH
00:00:08:300,-0.203,1.176,-0.246,267.395,313.598,222.29,
00:00:08:316,-0.185,1.008,-0.154,391.113,313.598,261.779,
00:00:08:333,-0.216,0.936,-0.186,437.439,340.088,334.228,
00:00:08:350,-0.179,0.949,-0.236,487.121,331.909,358.459,
00:00:08:366,-0.186,1.037,-0.178,542.236,309.021,337.89,
00:00:08:383,-0.2,1.001,-0.091,595.52,309.082,275.817,
00:00:08:400,-0.195,0.751,0.006,650.146,295.41,255.676,
00:00:08:416,-0.128,0.541,0.019,555.969,278.93,284.179,
00:00:08:433,-0.15,0.668,0.005,499.267,286.438,309.997,
00:00:08:450,-0.152,0.804,0.065,462.768,255.737,288.94,
00:00:08:466,-0.2,0.818,0.103,456.298,243.103,249.023,
00:00:08:483,-0.209,0.811,0.102,490.539,248.535,199.279,
00:00:08:500,-0.225,0.764,0.135,568.969,252.441,177.368,
00:00:08:516,-0.241,0.675,0.146,576.233,265.319,179.443,
00:00:08:533,-0.244,0.682,0.174,521.606,280.517,170.471,
00:00:08:550,-0.239,0.764,0.181,489.929,293.213,145.935,
00:00:08:566,-0.239,0.815,0.182,546.264,317.321,103.21,
00:00:08:583,-0.203,0.773,0.236,535.644,275.085,74.035,
00:00:08:600,-0.232,0.835,0.261,522.4,280.944,57.128,
00:00:08:616,-0.22,0.822,0.293,550.598,278.259,72.815,
00:00:08:633,-0.221,0.832,0.298,578.003,281.189,69.091,
00:00:08:650,-0.213,0.812,0.343,565.551,270.813,67.627,
00:00:08:666,-0.226,0.856,0.359,573.974,256.103,52.734,
00:00:08:683,-0.231,0.793,0.429,571.838,239.624,36.743,
00:00:08:700,-0.228,0.783,0.443,570.678,236.633,19.47,
00:00:08:716,-0.215,0.767,0.451,567.016,225.708,18.615,
00:00:08:733,-0.225,0.78,0.47,565.246,208.007,21.545,
00:00:08:750,-0.238,0.773,0.514,523.681,198.547,25.329,
00:00:08:766,-0.223,0.806,0.561,508.911,199.829,23.193,
00:00:08:783,-0.228,0.795,0.578,518.127,197.692,24.047,
00:00:08:800,-0.221,0.733,0.569,511.901,187.744,17.517,
00:00:08:816,-0.218,0.725,0.595,393.066,133.911,7.263,
00:00:08:833,-0.22,0.721,0.656,380.432,103.027,-10.254,
00:00:08:850,-0.23,0.755,0.674,413.33,90.21,-21.851,
00:00:08:866,-0.24,0.734,0.66,400.94,50.781,-21.729,
00:00:08:883,-0.247,0.75,0.692,380.859,42.907,-20.325,
00:00:08:900,-0.238,0.718,0.7,431.335,32.531,-8.301,
00:00:08:916,-0.245,0.684,0.712,463.012,28.381,4.333,
00:00:08:933,-0.247,0.646,0.741,403.32,27.832,14.282,
00:00:08:950,-0.252,0.657,0.745,362.732,26.123,10.009,
00:00:08:966,-0.24,0.619,0.765,361.877,22.094,11.596,
00:00:08:983,-0.241,0.626,0.759,376.709,22.705,15.441,
00:00:09:0,-0.252,0.608,0.778,370.727,26.245,18.005,
00:00:09:16,-0.261,0.597,0.759,357.849,38.024,20.935,
00:00:09:33,-0.25,0.579,0.759,361.999,45.288,38.147,
00:00:09:50,-0.248,0.571,0.79,390.991,52.917,55.297,
00:00:09:66,-0.256,0.579,0.806,406.738,75.805,58.166,
00:00:09:83,-0.257,0.551,0.78,435.363,87.768,65.002,
00:00:09:100,-0.258,0.542,0.788,447.326,100.097,71.472,
00:00:09:116,-0.248,0.506,0.796,464.721,100.28,80.261,
00:00:09:133,-0.25,0.489,0.85,465.698,105.468,92.041,
00:00:09:150,-0.248,0.477,0.863,457.458,120.3,99.304,
00:00:09:166,-0.25,0.472,0.833,457.702,128.173,102.478,
00:00:09:183,-0.254,0.471,0.817,477.172,124.267,107.422,
00:00:09:200,-0.257,0.432,0.861,481.445,123.474,119.567,
00:00:09:216,-0.249,0.421,0.875,479.858,132.263,121.093,
00:00:09:233,-0.238,0.378,0.898,445.984,147.216,132.873,
00:00:09:250,-0.24,0.414,0.859,445.373,150.451,129.394,
00:00:09:266,-0.245,0.371,0.863,462.89,146.789,149.231,
00:00:09:283,-0.243,0.374,0.901,509.582,150.39,168.09,
00:00:09:300,-0.246,0.332,0.978,497.009,176.391,191.345,
00:00:09:316,-0.246,0.348,0.919,475.708,209.533,195.007,
00:00:09:333,-0.227,0.324,0.89,488.342,213.623,209.167,
00:00:09:350,-0.208,0.268,0.871,519.287,190.796,236.633,
00:00:09:366,-0.203,0.208,0.947,497.07,167.846,271.545,
00:00:09:383,-0.205,0.225,0.994,494.873,174.133,284.546,
00:00:09:400,-0.205,0.177,0.998,488.769,186.889,294.677,
00:00:09:416,-0.198,0.148,0.954,463.806,193.664,291.931,
00:00:09:433,-0.188,0.145,0.956,435.852,189.026,299.682,
00:00:09:450,-0.193,0.112,1.008,425.048,201.11,289.55,
00:00:09:466,-0.175,0.107,0.966,399.719,208.862,274.414,
00:00:09:483,-0.169,0.053,0.95,386.596,205.505,271.301,
00:00:09:500,-0.163,0.071,0.974,360.168,200.927,284.912,
00:00:09:516,-0.176,0.102,0.992,349.121,217.285,289.428,
00:00:09:533,-0.151,0.098,0.974,357.299,224.609,269.897,
00:00:09:550,-0.134,0.005,0.933,360.656,223.083,272.338,
00:00:09:566,-0.11,0.018,0.933,346.679,199.463,274.841,
00:00:09:583,-0.108,0.037,1.029,328.674,172.302,266.235,
00:00:09:600,-0.123,0.028,1.053,316.528,177.49,237.365,
00:00:09:616,-0.095,-0.032,0.986,301.818,182.495,192.688,
00:00:09:633,-0.074,-0.185,0.916,281.799,156.921,189.392,
00:00:09:650,-0.067,-0.136,0.909,201.416,110.168,201.416,
00:00:09:666,-0.086,-0.085,0.989,159.24,76.355,190.49,
00:00:09:683,-0.088,-0.074,1.047,164.856,90.881,156.555,
00:00:09:700,-0.09,-0.099,1.006,121.765,112.854,108.764,
00:00:09:716,-0.06,-0.169,0.916,104.614,109.069,89.233,
00:00:09:733,-0.026,-0.211,0.922,59.997,76.904,80.2,
00:00:09:750,-0.038,-0.201,0.961,12.512,47.485,72.815,
00:00:09:766,-0.012,-0.187,1.022,-69.336,16.601,14.099,
00:00:09:783,-0.022,-0.229,1.029,-136.963,8.056,-47.547,
00:00:09:800,0.007,-0.183,0.936,-206.055,-25.513,-112.549,
00:00:09:816,0.014,-0.207,0.954,-219.788,-108.826,-168.396,
00:00:09:833,-0.016,-0.137,0.99,-287.293,-174.317,-222.962,
00:00:09:850,-0.022,-0.07,1.06,-338.562,-202.881,-281.373,
00:00:09:866,-0.029,-0.208,1.046,-618.287,-240.967,-364.563,
00:00:09:883,-0.001,-0.136,1.043,-827.576,-266.419,-411.927,
00:00:09:900,0.016,0.057,1.035,-804.688,-343.384,-429.261,
00:00:09:916,-0.081,-0.045,1.057,-799.256,-377.625,-461.609,
00:00:09:933,-0.117,-0.064,1.032,-1047.12,-374.451,-485.535,
00:00:09:950,-0.104,0.02,0.979,-1301.27,-374.329,-501.099,
00:00:09:966,-0.099,0.162,0.954,-1400.94,-402.527,-492.676,
00:00:09:983,-0.12,0.37,0.893,-1301.819,-443.482,-477.478,
00:00:10:0,-0.167,0.312,0.881,-1198.365,-464.417,-454.59,
00:00:10:16,-0.166,0.271,0.844,-1295.289,-455.567,-422.791,
00:00:10:33,-0.135,0.379,0.837,-1409.974,-463.929,-401.978,
00:00:10:50,-0.152,0.45,0.79,-1467.103,-491.15,-380.005,
00:00:10:66,-0.148,0.529,0.715,-1427.186,-505.249,-356.629,
00:00:10:83,-0.165,0.61,0.64,-1402.71,-523.621,-354.004,
00:00:10:100,-0.171,0.56,0.637,-1417.176,-552.796,-368.653,
00:00:10:116,-0.145,0.611,0.554,-1482.422,-573.06,-397.034,
00:00:10:133,-0.144,0.592,0.511,-1576.783,-623.78,-407.227,
00:00:10:150,-0.153,0.667,0.46,-1572.266,-639.71,-416.016,
00:00:10:166,-0.162,0.758,0.404,-1501.954,-638.977,-422.669,
00:00:10:183,-0.152,0.734,0.322,-1501.648,-634.583,-420.227,
00:00:10:200,-0.145,0.7,0.17,-1534.363,-629.761,-401.612,
00:00:10:216,-0.134,0.71,0.06,-1503.174,-651.246,-373.414,
00:00:10:233,-0.165,0.847,0.067,-1387.452,-642.395,-342.896,
00:00:10:250,-0.212,0.881,0.061,-1220.948,-586.976,-337.769,
00:00:10:266,-0.229,0.773,-0.002,-1228.943,-538.147,-344.178,
00:00:10:283,-0.204,0.785,-0.116,-1207.459,-496.338,-332.703,
00:00:10:300,-0.21,0.814,-0.108,-1146.973,-471.619,-339.051,
00:00:10:316,-0.242,0.919,-0.125,-1016.785,-397.767,-342.102,
00:00:10:333,-0.244,0.969,-0.233,-887.879,-313.599,-360.596,
00:00:10:350,-0.223,0.836,-0.403,-782.044,-281.006,-342.652,
00:00:10:366,-0.173,0.827,-0.417,-738.648,-305.603,-330.872,
00:00:10:383,-0.186,0.988,-0.331,-671.57,-295.655,-342.102,
00:00:10:400,-0.203,1.08,-0.305,-512.024,-208.619,-351.685,
00:00:10:416,-0.194,0.972,-0.406,-442.078,-118.897,-336.487,
00:00:10:433,-0.136,0.876,-0.551,-404.908,-87.708,-318.116,
00:00:10:450,-0.089,0.944,-0.528,-386.475,-147.217,-295.044,
00:00:10:466,-0.116,0.994,-0.4,-395.691,-156.983,-275.33,
00:00:10:483,-0.118,1.028,-0.39,-362.793,-113.953,-267.334,
00:00:10:500,-0.102,0.981,-0.427,-309.632,-78.064,-252.686,
00:00:10:516,-0.083,0.965,-0.489,-287.842,-73.182,-224.183,
00:00:10:533,-0.043,0.947,-0.521,-278.443,-115.784,-192.81,
00:00:10:550,-0.078,0.993,-0.407,-255.494,-138.855,-167.664,
00:00:10:566,-0.073,1.008,-0.418,-223.572,-106.202,-156.006,
00:00:10:583,-0.046,0.987,-0.435,-166.26,-93.506,-134.034,
00:00:10:600,-0.031,0.947,-0.46,-173.89,-94.849,-121.216,
00:00:10:616,-0.003,0.986,-0.484,-166.321,-116.944,-104.92,
00:00:10:633,-0.038,0.954,-0.42,-175.66,-125.245,-99.244,
00:00:10:650,-0.044,0.954,-0.411,-180.42,-98.145,-96.68,
00:00:10:666,-0.021,0.94,-0.469,-187.256,-74.341,-96.497,
00:00:10:683,0.017,0.911,-0.49,-181.641,-93.323,-84.412,
00:00:10:700,0.011,0.967,-0.473,-159.974,-102.845,-63.477,
00:00:10:716,-0.006,1,-0.456,-114.136,-86.792,-56.946,
00:00:10:733,-0.003,0.994,-0.477,-51.392,-61.768,-49.195,
00:00:10:750,-0.011,0.955,-0.489,-10.743,-42.42,-46.814,
00:00:10:766,0.005,0.924,-0.479,24.902,-51.453,-34.668,
00:00:10:783,0.002,0.957,-0.427,64.453,-59.327,-18.494,
00:00:10:800,0.004,0.952,-0.386,95.275,-51.575,-6.226,
00:00:10:816,0.013,0.894,-0.422,64.27,-49.744,-9.095,
00:00:10:833,0.028,0.851,-0.438,24.475,-81.055,-2.747,
00:00:10:850,0.031,0.915,-0.416,-42.176,-98.877,-14.1,
00:00:10:866,0.026,0.882,-0.423,-45.166,-71.106,-28.626,
00:00:10:883,0.085,0.829,-0.431,-274.659,-77.332,-15.809,
00:00:10:900,0.007,0.909,-0.484,-218.873,-50.415,-10.254,
00:00:10:916,0.057,0.989,-0.5,-127.93,-50.599,-25.635,
00:00:10:933,0.038,0.94,-0.474,39.123,-47.974,-18.128,
00:00:10:950,0.055,0.821,-0.413,-49.866,-50.293,-36.377,
00:00:10:966,0.026,0.877,-0.468,9.338,-19.593,-14.039,
00:00:10:983,0.023,0.88,-0.444,4.638,-24.537,-46.936,
00:00:11:0,0.039,0.89,-0.443,27.099,-21.79,-57.923,
00:00:11:16,0.06,0.901,-0.476,111.328,-32.898,-61.707,
00:00:11:33,0.043,0.866,-0.447,151.794,-35.279,-78.309,
00:00:11:50,0.056,0.861,-0.45,99.243,-38.575,-88.257,
00:00:11:66,0.071,0.905,-0.517,0.549,-38.941,-80.323,
00:00:11:83,0.061,1.142,-0.672,15.625,22.461,-55.787,
00:00:11:100,0.068,0.958,-0.548,286.01,9.948,-59.754,
00:00:11:116,0.067,0.858,-0.409,328.918,7.568,-81.177,
00:00:11:133,0.045,0.926,-0.416,333.313,43.151,-100.831,
00:00:11:150,0.136,0.765,-0.4,249.694,-19.41,-112.854,
00:00:11:166,0.142,0.9,-0.392,31.372,-68.726,-109.009,
00:00:11:183,0.163,0.956,-0.287,71.35,-110.596,-113.282,
00:00:11:200,0.173,1.017,-0.247,153.747,-111.206,-115.723,
00:00:11:216,0.297,1.115,-0.229,279.785,-217.164,-121.46,
00:00:11:233,0.298,0.983,-0.173,273.071,-255.86,-103.76,
00:00:11:250,0.443,0.995,-0.197,-0.611,-375.428,-135.071,
00:00:11:266,0.478,1.089,-0.172,-206.116,-503.357,-116.333,
00:00:11:283,0.499,1.208,-0.206,-190.247,-541.443,-92.774,
00:00:11:300,0.528,1.252,-0.257,54.687,-530.823,-69.153,
00:00:11:316,0.531,1.222,-0.283,422.912,-501.954,-56.275,
00:00:11:333,0.511,1.102,-0.311,720.52,-434.388,-84.534,
00:00:11:350,0.472,0.924,-0.296,772.094,-356.263,-132.935,
00:00:11:366,0.441,0.886,-0.292,635.986,-245.118,-212.464,
00:00:11:383,0.395,0.833,-0.269,538.513,-142.518,-297.059,
00:00:11:400,0.331,0.829,-0.242,530.944,-10.315,-400.025,
00:00:11:416,0.304,0.818,-0.221,622.253,122.741,-494.263,
00:00:11:433,0.251,0.808,-0.217,748.474,254.089,-607.544,
00:00:11:450,0.214,0.806,-0.245,848.022,384.521,-738.526,
00:00:11:466,0.19,0.763,-0.235,951.538,501.831,-880.494,
00:00:11:483,0.175,0.764,-0.136,1051.757,625.488,-1033.692,
00:00:11:500,0.198,0.79,-0.095,1205.444,745.605,-1201.478,
00:00:11:516,0.232,0.722,-0.127,1364.257,776.428,-1353.272,
00:00:11:533,0.234,0.545,-0.184,1429.321,756.897,-1445.801,
00:00:11:550,0.245,0.36,-0.178,1444.152,713.501,-1455.201,
00:00:11:566,0.304,0.346,-0.014,1328.003,714.111,-1438.721,
00:00:11:583,0.405,0.464,0.067,1173.278,778.442,-1467.774,
00:00:11:600,0.534,0.482,0.046,1039.917,786.621,-1437.867,
00:00:11:616,0.607,0.436,0.026,798.034,720.703,-1397.4,
00:00:11:633,0.625,0.438,0.017,519.165,672.607,-1333.313,
00:00:11:650,0.684,0.54,0.068,364.685,645.691,-1313.355,
00:00:11:666,0.794,0.64,0.19,390.686,636.108,-1304.81,
00:00:11:683,0.94,0.561,0.14,373.596,557.922,-1214.905,
00:00:11:700,0.955,0.519,0.08,256.591,476.501,-1142.212,
00:00:11:716,0.981,0.534,0.069,169.006,370.91,-1100.464,
00:00:11:733,1.015,0.567,0.117,132.202,284.423,-1039.49,
00:00:11:750,1.036,0.551,0.143,118.164,246.154,-974.61,
00:00:11:766,1.062,0.546,0.162,80.566,228.088,-889.771,
00:00:11:783,1.081,0.538,0.153,50.231,208.984,-792.298,
00:00:11:800,1.084,0.489,0.129,-33.692,191.955,-674.744,
00:00:11:816,1.072,0.48,0.088,-169.19,171.63,-555.054,
00:00:11:833,1.064,0.483,0.056,-271.058,137.939,-417.908,
00:00:11:850,1.044,0.457,0.034,-323.365,93.811,-289.368,
00:00:11:866,1.01,0.404,-0.011,-356.019,62.194,-151.551,
00:00:11:883,1.01,0.351,-0.019,-378.54,30.273,-54.322,
00:00:11:900,1.01,0.321,0.017,-397.889,6.225,43.396,
00:00:11:916,1.01,0.33,0.077,-425.782,11.352,85.449,
00:00:11:933,0.954,0.364,0.124,-372.681,30.151,140.38,
00:00:11:950,0.927,0.312,0.069,-251.282,60.119,102.295,
00:00:11:966,0.963,0.236,0.05,-166.748,33.935,60.18,
00:00:11:983,1.002,0.223,0.072,-66.163,-63.111,25.573,
00:00:12:0,0.962,0.181,0.118,28.198,-105.774,17.211,
00:00:12:16,0.916,0.115,0.102,75.805,-65.186,1.77,
00:00:12:33,0.915,0.084,0.043,45.654,-14.649,-9.705,
00:00:12:50,0.94,0.123,-0.008,28.381,12.939,-19.959,
00:00:12:66,0.964,0.132,-0.047,52.917,4.394,-33.875,
00:00:12:83,0.963,0.129,-0.051,89.782,-17.823,-37.537,
00:00:12:100,0.958,0.123,-0.045,96.252,-13.245,-29.114,
00:00:12:116,0.981,0.096,-0.026,72.998,0.671,-10.743,
00:00:12:133,0.994,0.112,-0.033,29.785,-5.738,5.493,
00:00:12:150,0.979,0.16,-0.032,15.869,-17.456,9.399,
00:00:12:166,0.965,0.178,-0.02,32.531,-20.752,0.427,
00:00:12:183,0.957,0.184,-0.008,55.603,-18.738,-4.822,
00:00:12:200,0.962,0.197,-0.005,87.829,-16.053,-11.719,
00:00:12:216,0.97,0.186,0.009,115.661,-12.635,-14.954,
00:00:12:233,0.963,0.193,0.016,140.258,-6.714,-11.78,
00:00:12:250,0.966,0.185,0.015,176.696,-2.198,-12.146,
00:00:12:266,0.968,0.167,0.02,199.157,0.122,-9.949,idleRH
00:00:12:283,0.966,0.137,-0.012,200.622,-0.733,-13.489,
00:00:12:300,0.977,0.1,-0.02,184.692,-8.057,-25.208,
00:00:12:316,0.966,0.099,-0.016,150.39,-15.32,-29.602,
00:00:12:333,0.964,0.104,-0.005,113.403,-8.301,-40.894,
00:00:12:350,0.979,0.129,-0.001,86.486,1.77,-48.218,
00:00:12:366,0.997,0.14,-0.014,87.402,2.868,-52.491,
00:00:12:383,0.997,0.121,0,90.332,-19.898,-57.618,
00:00:12:400,0.979,0.107,0.015,64.636,-23.072,-57.312,
00:00:12:416,0.972,0.11,0.021,21.24,-18.86,-68.543,
00:00:12:433,0.971,0.117,0.015,-16.175,-24.109,-69.031,
00:00:12:450,0.965,0.124,0.015,-45.655,-25.879,-62.684,
00:00:12:466,0.953,0.133,0.013,-69.764,-18.738,-57.312,
00:00:12:483,0.958,0.147,0.021,-85.755,-12.024,-48.829,
00:00:12:500,0.962,0.158,0.032,-92.896,-12.146,-46.753,
00:00:12:516,0.96,0.182,0.037,-99.732,-9.095,-43.946,
00:00:12:533,0.962,0.163,0.036,-107.605,-5.86,-41.748,
00:00:12:550,0.964,0.171,0.04,-127.564,-4.944,-37.72,
00:00:12:566,0.958,0.194,0.045,-126.282,-6.104,-32.776,
00:00:12:583,0.958,0.187,0.051,-104.615,-0.55,-34.18,
00:00:12:600,0.963,0.194,0.057,-85.511,4.638,-30.518,
00:00:12:616,0.978,0.209,0.05,-64.148,7.263,-31.495,
00:00:12:633,0.977,0.208,0.032,-35.95,-2.198,-31.983,
00:00:12:650,0.969,0.21,0.037,5.92,-9.4,-31.983,
00:00:12:666,0.969,0.19,0.02,55.908,-6.47,-34.18,
00:00:12:683,0.975,0.163,0.007,91.064,-3.479,-42.359,
00:00:12:700,0.979,0.139,0.016,107.116,-5.616,-44.556,
00:00:12:716,0.986,0.128,0.034,118.164,-2.503,-45.899,
00:00:12:733,0.983,0.123,0.034,118.469,-2.442,-51.148,
00:00:12:750,0.974,0.119,0.023,121.093,-3.296,-52.796,
00:00:12:766,0.974,0.118,0.019,123.352,-3.907,-52.063,
00:00:12:783,0.967,0.119,0.019,125.305,-5.372,-47.913,
00:00:12:800,0.964,0.122,0.02,133.606,0.183,-42.664,
00:00:12:816,0.968,0.108,0.024,140.808,0.854,-35.157,
00:00:12:833,0.963,0.105,0.029,125.61,5.554,-23.621,
00:00:12:850,0.965,0.114,0.03,104.187,9.643,-17.273,
00:00:12:866,0.977,0.122,0.03,84.228,10.009,-17.579,
00:00:12:883,0.989,0.127,0.037,71.472,-1.221,-18.25,
00:00:12:900,0.987,0.112,0.045,56.579,-9.766,-13.123,
00:00:12:916,0.968,0.108,0.05,34.423,-6.287,-6.287,
00:00:12:933,0.963,0.112,0.038,12.39,2.807,-13.123,
00:00:12:950,0.964,0.103,0.034,-6.226,5.127,-20.569,
00:00:12:966,0.958,0.117,0.04,-25.879,8.3,-16.785,
00:00:12:983,0.951,0.12,0.033,-34.546,9.826,-21.607,
00:00:13:0,0.961,0.117,0.038,-47.669,14.892,-24.048,
00:00:13:16,0.972,0.133,0.034,-55.42,21.423,-25.879,
00:00:13:33,0.976,0.155,0.042,-49.683,22.644,-34.913,
00:00:13:50,0.967,0.16,0.04,-35.096,21.24,-29.847,
00:00:13:66,0.954,0.172,0.036,-21.363,28.808,-28.382,
00:00:13:83,0.963,0.171,0.039,0.427,31.005,-25.879,
00:00:13:100,0.976,0.162,0.036,22.644,28.564,-22.095,
00:00:13:116,0.972,0.155,0.03,39.306,17.334,-19.654,
00:00:13:133,0.964,0.146,0.026,53.527,15.136,-16.114,
00:00:13:150,0.96,0.123,0.011,55.542,19.409,-12.33,
00:00:13:166,0.954,0.112,0.003,40.527,23.925,-10.56,
00:00:13:183,0.953,0.107,0.006,17.211,31.005,-13.611,
00:00:13:200,0.957,0.118,0.022,-10.56,41.565,-19.288,
00:00:13:216,0.964,0.144,0.032,-21.241,53.833,-28.016,
00:00:13:233,0.974,0.177,0.046,-1.831,61.584,-41.016,
00:00:13:250,0.994,0.205,0.041,47.241,59.936,-47.669,
00:00:13:266,1.002,0.203,0.022,124.084,40.71,-38.575,
00:00:13:283,0.987,0.177,0.008,189.392,21.972,-29.358,
00:00:13:300,0.972,0.135,-0.006,233.764,19.409,-22.339,
00:00:13:316,0.995,0.075,0.006,225.097,18.432,-9.583,
00:00:13:333,0.986,0.048,0.014,194.946,10.559,-0.489,
00:00:13:350,0.978,0.032,0.02,137.329,9.765,-0.123,
00:00:13:366,0.978,0.026,0.011,68.786,12.023,4.882,
00:00:13:383,0.977,0.048,0.018,-57.435,10.925,0.244,
00:00:13:400,0.972,0.08,0.023,-108.46,13.305,-3.968,
00:00:13:416,0.972,0.111,0.021,-143.86,18.493,-1.709,
00:00:13:433,0.97,0.141,0.007,-164.185,20.263,7.995,
00:00:13:450,0.965,0.184,0.014,-163.514,19.104,12.634,
00:00:13:466,0.96,0.214,0.011,-125.794,20.629,12.451,
00:00:13:483,0.954,0.227,0.009,-90.21,23.254,14.404,
00:00:13:500,0.961,0.245,0.012,-41.81,22.644,19.226,
00:00:13:516,0.957,0.228,0.007,6.164,24.658,19.104,
00:00:13:533,0.961,0.207,0.012,29.907,26.367,12.023,
00:00:13:550,0.965,0.192,0.026,51.94,25.268,9.155,
00:00:13:566,0.971,0.188,0.036,80.932,22.949,2.929,
00:00:13:583,0.971,0.194,0.03,122.009,20.813,-3.296,
00:00:13:600,0.968,0.17,0.02,163.94,19.531,-5.127,
00:00:13:616,0.974,0.17,0.017,192.321,22.644,-8.057,
00:00:13:633,0.978,0.139,0.009,210.022,18.371,-10.254,
00:00:13:650,0.979,0.104,0.013,199.157,12.573,-8.973,
00:00:13:666,0.979,0.091,0.006,162.048,12.023,-9.827,
00:00:13:683,0.981,0.083,0.011,118.103,12.329,-15.503,
00:00:13:700,0.98,0.08,0.003,59.692,13.549,-20.081,
00:00:13:716,0.975,0.086,0.001,13.305,15.441,-20.447,
00:00:13:733,0.97,0.113,0.007,-22.217,18.615,-22.767,
00:00:13:750,0.972,0.126,0.015,-34.729,19.226,-22.644,
00:00:13:766,0.968,0.145,0.018,-38.819,16.479,-19.959,
00:00:13:783,0.965,0.165,0.022,-41.26,22.766,-22.95,
00:00:13:800,0.971,0.182,0.015,-31.311,27.282,-25.391,
00:00:13:816,0.978,0.189,0.015,-8.484,24.536,-24.17,
00:00:13:833,0.966,0.189,0.012,19.592,13.916,-17.823,
00:00:13:850,0.955,0.179,0.011,35.522,7.202,-10.926,
00:00:13:866,0.96,0.169,0.002,43.701,13.183,-11.475,
00:00:13:883,0.975,0.162,0.009,42.358,18.615,-13.489,
00:00:13:900,0.995,0.163,0.007,39.306,12.207,-20.935,
00:00:13:916,0.992,0.167,0.022,44.494,-1.77,-21.973,
00:00:13:933,0.977,0.182,0.016,63.598,-10.498,-22.889,
00:00:13:950,0.962,0.165,0.013,80.444,-8.118,-23.743,
00:00:13:966,0.964,0.168,0.011,89.599,-3.846,-23.865,
00:00:13:983,0.963,0.163,0.013,110.168,-1.099,-24.537,
00:00:14:0,0.967,0.151,0.009,121.887,1.159,-28.199,
00:00:14:16,0.971,0.133,0.004,127.319,-1.526,-26.49,
00:00:14:33,0.951,0.116,-0.001,109.985,-4.761,-25.757,
00:00:14:50,0.943,0.102,-0.003,78.002,8.544,-30.884,
00:00:14:66,0.956,0.114,0.01,38.757,26.489,-35.767,
00:00:14:83,0.97,0.127,0.016,9.155,31.066,-34.241,
00:00:14:100,0.982,0.147,0.013,-2.869,30.456,-31.617,
00:00:14:116,0.989,0.159,0.008,-1.77,19.043,-20.142,
00:00:14:133,0.987,0.161,0.005,4.455,8.239,-10.315,
00:00:14:150,0.981,0.157,0.015,12.39,5.127,-11.841,
00:00:14:166,0.973,0.145,0.014,12.451,0.915,-12.269,
00:00:14:183,0.975,0.141,0.019,1.098,1.586,-13.672,
00:00:14:200,0.979,0.145,0.018,-7.874,0.549,-12.94,
00:00:14:216,0.975,0.144,0.017,-16.419,-8.973,-8.118,
00:00:14:233,0.968,0.146,0.02,-24.353,-13.184,-5.433,
00:00:14:250,0.962,0.149,0.017,-30.579,-9.461,-9.827,
00:00:14:266,0.961,0.149,0.016,-35.767,-4.822,-11.719,
00:00:14:283,0.96,0.164,0.022,-36.56,2.685,-13.855,
00:00:14:300,0.962,0.168,0.018,-30.701,5.065,-16.785,
00:00:14:316,0.971,0.168,0.023,-20.081,5.249,-13.977,
00:00:14:333,0.963,0.171,0.026,-13.245,0.366,-12.574,
00:00:14:350,0.963,0.167,0.024,-4.944,4.15,-14.283,
00:00:14:366,0.977,0.163,0.019,8.789,2.624,-17.273,
00:00:14:383,0.963,0.166,0.021,8.361,0.61,-16.419,
00:00:14:400,0.959,0.161,0.022,0.549,2.136,-21.18,
00:00:14:416,0.96,0.158,0.027,-14.893,5.615,-20.081,
00:00:14:433,0.962,0.16,0.035,-30.518,7.69,-20.935,
00:00:14:450,0.967,0.177,0.035,-35.584,10.009,-19.654,
00:00:14:466,0.967,0.186,0.033,-29.175,8.606,-14.588,
00:00:14:483,0.972,0.196,0.028,-12.879,3.479,-11.109,
00:00:14:500,0.97,0.193,0.026,3.112,-3.052,-9.583,
00:00:14:516,0.963,0.191,0.024,18.188,-3.846,-11.292,
00:00:14:533,0.966,0.187,0.023,36.315,-1.587,-14.1,
00:00:14:550,0.963,0.179,0.03,51.452,1.22,-15.381,
00:00:14:566,0.964,0.168,0.027,65.979,3.723,-15.625,
00:00:14:583,0.972,0.16,0.03,75.5,2.99,-16.358,
00:00:14:600,0.965,0.145,0.032,78.064,-15.259,-13.794,
00:00:14:616,0.965,0.141,0.033,66.345,-0.489,-17.334,
00:00:14:633,0.96,0.135,0.032,45.654,5.065,-23.804,
00:00:14:650,0.968,0.132,0.031,19.348,12.512,-23.621,
00:00:14:666,0.976,0.15,0.028,5.188,12.146,-22.889,
00:00:14:683,0.964,0.15,0.019,1.77,3.479,-19.227,
00:00:14:700,0.955,0.154,0.021,-1.526,8.117,-20.63,
00:00:14:716,0.963,0.162,0.029,-6.47,18.676,-23.804,
00:00:14:733,0.98,0.172,0.03,-12.146,18.371,-25.94,
00:00:14:750,0.978,0.187,0.027,-8.789,10.253,-22.522,
00:00:14:766,0.966,0.186,0.023,-2.137,4.028,-21.851,
00:00:14:783,0.957,0.18,0.024,12.146,3.234,-18.677,
00:00:14:800,0.964,0.169,0.029,18.798,10.62,-19.349,
00:00:14:816,0.973,0.16,0.026,22.094,9.399,-18.555,
00:00:14:833,0.962,0.151,0.024,16.235,3.112,-17.762,
00:00:14:850,0.956,0.152,0.022,8.483,6.103,-18.555,
00:00:14:866,0.964,0.155,0.022,-1.038,9.46,-20.813,
00:00:14:883,0.968,0.165,0.029,-9.034,11.657,-21.424,
00:00:14:900,0.969,0.173,0.032,-7.752,12.878,-21.302,
00:00:14:916,0.969,0.18,0.034,4.028,12.085,-21.241,
00:00:14:933,0.969,0.177,0.024,14.953,9.338,-22.034,
00:00:14:950,0.969,0.167,0.022,17.15,6.591,-20.935,
00:00:14:966,0.964,0.162,0.02,10.864,3.967,-20.569,
00:00:14:983,0.963,0.166,0.019,5.127,9.582,-19.715,
00:00:15:0,0.996,0.168,0.024,3.173,9.765,-19.532,
00:00:15:16,0.97,0.171,0.032,7.202,9.399,-18.616,
00:00:15:33,0.971,0.172,0.026,8.178,7.08,-20.691,
00:00:15:50,0.971,0.163,0.021,12.085,3.112,-19.837,
00:00:15:66,0.972,0.158,0.025,8.544,0.427,-20.264,
00:00:15:83,0.967,0.16,0.032,0.305,4.089,-20.447,
00:00:15:100,0.972,0.172,0.029,2.38,7.263,-23.194,
00:00:15:116,0.974,0.166,0.059,2.99,4.394,-23.377,
00:00:15:133,0.966,0.166,0.03,5.554,2.075,-21.363,
00:00:15:150,0.967,0.163,0.029,12.695,2.014,-19.776,
00:00:15:166,0.963,0.156,0.025,10.62,1.22,-17.64,
00:00:15:183,0.956,0.155,0.029,4.089,3.112,-17.518,
00:00:15:200,0.961,0.156,0.031,-6.043,4.455,-19.654,
00:00:15:216,0.968,0.16,0.029,-17.029,7.629,-19.898,
00:00:15:233,0.976,0.167,0.03,-24.17,2.807,-19.715,
00:00:15:250,0.969,0.178,0.032,-26.185,1.464,-19.104,
00:00:15:266,0.961,0.191,0.035,-17.212,3.234,-18.128,
00:00:15:283,0.956,0.199,0.023,0.793,4.15,-21.546,
00:00:15:300,0.956,0.184,0.026,11.596,5.798,-24.414,
00:00:15:316,0.962,0.179,0.031,7.446,8.3,-22.278,
00:00:15:333,0.961,0.182,0.033,10.315,7.385,-21.912,
00:00:15:350,0.964,0.186,0.03,12.146,8.178,-19.532,
00:00:15:366,0.961,0.187,0.034,22.461,5.004,-14.222,
00:00:15:383,0.964,0.175,0.024,22.216,8.483,-13.733,
00:00:15:400,0.998,0.157,0.026,21.057,2.502,-16.846,
00:00:15:416,0.962,0.151,0.034,10.192,2.807,-15.442,
00:00:15:433,0.959,0.155,0.032,1.22,7.385,-17.334,
00:00:15:450,0.964,0.168,0.035,-3.724,12.207,-23.743,
00:00:15:466,0.969,0.171,0.031,-4.09,11.718,-27.1,
00:00:15:483,0.964,0.172,0.029,-4.822,9.643,-27.588,
00:00:15:500,0.968,0.183,0.034,-3.968,7.263,-23.804,
00:00:15:516,0.965,0.182,0.035,1.709,8.483,-24.964,
00:00:15:533,0.967,0.18,0.035,8.239,10.62,-22.034,
00:00:15:550,0.973,0.178,0.036,11.901,6.591,-21.302,
00:00:15:566,0.964,0.176,0.031,14.77,4.638,-20.264,
00:00:15:583,0.963,0.172,0.032,17.761,6.225,-24.048,
00:00:15:600,0.971,0.169,0.03,20.996,6.225,-26.429,
00:00:15:616,0.971,0.164,0.034,23.986,2.258,-24.109,
00:00:15:633,0.967,0.16,0.03,26.001,1.77,-20.935,
00:00:15:650,0.967,0.152,0.033,19.592,4.028,-25.269,
00:00:15:666,0.973,0.149,0.038,8.972,5.615,-30.213,
00:00:15:683,0.969,0.153,0.043,-6.592,0.488,-31.128,
00:00:15:700,0.96,0.16,0.047,-18.677,3.723,-28.992,
00:00:15:716,0.966,0.173,0.048,-25.147,8.117,-28.809,
00:00:15:733,0.966,0.185,0.036,-24.476,4.943,-29.236,
00:00:15:750,0.958,0.191,0.031,-10.071,5.493,-30.884,
00:00:15:766,0.954,0.191,0.031,0.976,11.779,-28.626,
00:00:15:783,0.96,0.184,0.032,7.446,10.803,-26.795,
00:00:15:800,0.964,0.18,0.023,4.516,10.498,-25.025,
00:00:15:816,0.953,0.181,0.035,3.784,7.629,-22.522,
00:00:15:833,0.95,0.188,0.04,3.356,15.808,-23.011,
00:00:15:850,0.958,0.199,0.035,15.869,21.85,-25.94,
00:00:15:866,0.958,0.189,0.034,31.738,22.583,-28.138,
00:00:15:883,0.96,0.183,0.036,34.301,21.484,-28.565,
00:00:15:900,0.964,0.179,0.037,36.377,21.789,-27.649,
00:00:15:916,0.967,0.169,0.026,30.639,19.47,-24.659,
00:00:15:933,0.968,0.169,0.026,25.329,17.7,-24.781,
00:00:15:950,0.965,0.167,0.03,21.301,20.141,-25.391,
00:00:15:966,0.968,0.17,0.025,15.625,19.104,-24.964,
00:00:15:983,0.969,0.174,0.031,12.023,15.93,-22.767,
00:00:16:0,0.965,0.183,0.026,12.207,16.906,-20.081,
00:00:16:16,0.967,0.179,0.023,26.794,16.845,-20.02,
00:00:16:33,0.965,0.172,0.021,35.278,15.808,-16.541,
00:00:16:50,0.967,0.167,0.026,40.039,14.038,-18.677,
00:00:16:66,0.963,0.164,0.022,37.963,15.625,-16.846,
00:00:16:83,0.965,0.164,0.026,36.315,14.526,-19.654,
00:00:16:100,0.964,0.156,0.026,37.292,14.465,-20.447,
00:00:16:116,0.968,0.147,0.024,32.959,12.146,-23.987,
00:00:16:133,0.973,0.144,0.026,21.484,13,-24.476,
00:00:16:150,0.974,0.152,0.03,9.704,13,-22.156,
00:00:16:166,0.97,0.159,0.028,6.774,12.085,-20.386,
00:00:16:183,0.973,0.157,0.026,8.544,9.765,-20.935,
00:00:16:200,0.976,0.153,0.026,7.812,4.394,-22.278,
00:00:16:216,0.977,0.15,0.027,0.427,0.915,-24.842,
00:00:16:233,0.972,0.151,0.022,-13.55,0.061,-26.49,
00:00:16:250,0.97,0.163,0.026,-21.18,1.709,-27.955,
00:00:16:266,0.964,0.17,0.029,-17.212,0.732,-25.33,
00:00:16:283,0.961,0.176,0.03,-10.437,5.798,-26.062,
00:00:16:300,0.963,0.176,0.027,-5.249,4.394,-26.856,
00:00:16:316,0.962,0.175,0.027,-4.395,3.967,-24.353,
00:00:16:333,0.96,0.177,0.024,-4.883,3.723,-26.123,
00:00:16:350,0.962,0.171,0.06,-7.874,5.127,-22.461,
00:00:16:366,0.967,0.177,0.026,-11.353,5.31,-24.414,
00:00:16:383,0.972,0.181,0.031,-9.034,4.15,-22.889,
00:00:16:400,0.963,0.184,0.033,-3.113,3.173,-20.386,
00:00:16:416,0.963,0.182,0.032,4.76,7.751,-21.302,
00:00:16:433,0.967,0.171,0.026,9.033,3.967,-22.828,
00:00:16:450,0.961,0.169,0.03,8.544,2.441,-21.729,
00:00:16:466,0.956,0.172,0.029,3.601,5.371,-22.156,
00:00:16:483,0.959,0.17,0.033,2.99,10.376,-22.339,
00:00:16:500,0.961,0.173,0.034,3.845,13,-23.194,
00:00:16:516,0.962,0.177,0.032,3.418,12.146,-24.292,
00:00:16:533,0.957,0.185,0.035,6.103,13.305,-24.292,
00:00:16:550,0.967,0.187,0.037,12.39,15.136,-25.574,
00:00:16:566,0.968,0.189,0.036,14.465,8.789,-20.02,
00:00:16:583,0.964,0.185,0.035,22.216,9.338,-19.104,
00:00:16:600,0.964,0.179,0.029,29.296,9.216,-16.846,
00:00:16:616,0.96,0.173,0.026,32.836,9.216,-16.358,
00:00:16:633,0.963,0.168,0.022,28.808,14.282,-16.541,
00:00:16:650,0.975,0.167,0.02,24.658,12.268,-18.738,
00:00:16:667,0.98,0.164,0.024,16.845,4.211,-19.715,
00:00:16:683,0.968,0.166,0.034,11.84,0.854,-17.701,
00:00:16:700,0.962,0.166,0.029,13.061,3.479,-20.752,
00:00:16:717,0.965,0.163,0.036,13.488,8.422,-20.386,
00:00:16:733,0.971,0.163,0.029,17.15,6.836,-21.729,
00:00:16:750,0.968,0.162,0.029,17.028,4.943,-21.729,
00:00:16:767,0.968,0.156,0.026,11.596,4.638,-22.706,
00:00:16:783,0.968,0.158,0.021,6.347,2.136,-20.997,
00:00:16:800,0.97,0.161,0.029,6.042,4.821,-21.302,
00:00:16:817,0.967,0.168,0.062,4.516,2.99,-22.4,
00:00:16:833,0.965,0.163,0.035,1.709,6.774,-23.072,
00:00:16:850,0.965,0.17,0.034,-6.653,6.469,-23.56,
00:00:16:867,0.96,0.175,0.038,-5.799,2.807,-24.292,
00:00:16:883,0.959,0.178,0.04,-6.592,7.812,-27.955,
00:00:16:900,0.968,0.177,0.037,-2.381,11.169,-28.382,
00:00:16:917,0.964,0.19,0.032,2.441,4.455,-24.414,
00:00:16:933,0.959,0.176,0.033,8.422,4.821,-24.476,
00:00:16:950,0.963,0.177,0.033,6.836,9.46,-23.438,
00:00:16:967,0.971,0.177,0.025,6.286,8.3,-23.987,
00:00:16:983,0.978,0.171,0.023,6.225,5.249,-23.682,
00:00:17:0,0.969,0.175,0.025,5.249,1.709,-26.49,
00:00:17:17,0.96,0.169,0.034,9.46,2.38,-25.025,
00:00:17:33,0.96,0.169,0.034,11.169,4.516,-25.696,
00:00:17:50,0.966,0.164,0.035,11.962,6.652,-28.748,
00:00:17:67,0.962,0.162,0.034,6.53,6.469,-28.382,
00:00:17:83,0.965,0.157,0.032,2.075,6.713,-26.734,
00:00:17:100,0.963,0.163,0.028,0.488,8.972,-25.33,
00:00:17:117,0.965,0.166,0.027,-3.724,9.216,-23.987,
00:00:17:133,0.972,0.168,0.036,-8.789,8.178,-25.452,
00:00:17:150,0.97,0.173,0.033,-11.902,3.967,-26.001,
00:00:17:167,0.959,0.177,0.004,-15.381,6.347,-25.818,
00:00:17:183,0.96,0.18,0.037,-9.278,5.798,-24.292,
00:00:17:200,0.962,0.175,0.042,-7.386,4.028,-23.682,
00:00:17:217,0.957,0.18,0.036,-3.174,8.3,-23.621,
00:00:17:233,0.961,0.182,0.034,-0.123,11.169,-24.72,
00:00:17:250,0.959,0.181,0.03,3.418,7.873,-25.208,
00:00:17:267,0.96,0.179,0.031,7.141,10.864,-26.123,
00:00:17:283,0.966,0.175,0.033,2.685,13.122,-27.161,
00:00:17:300,0.967,0.179,0.036,7.934,7.629,-25.879,
00:00:17:317,0.968,0.178,0.034,14.648,10.559,-24.842,
00:00:17:333,0.964,0.176,0.029,14.892,8.361,-20.325,
00:00:17:350,0.962,0.171,0.034,15.014,6.713,-21.668,
00:00:17:367,0.959,0.173,0.035,15.625,11.84,-24.781,
00:00:17:383,0.965,0.171,0.037,16.296,14.038,-28.26,
00:00:17:400,0.972,0.172,0.032,17.089,14.099,-26.978,
00:00:17:417,0.964,0.174,0.026,18.798,6.958,-25.757,
00:00:17:433,0.96,0.172,0.032,16.723,10.009,-23.377,
00:00:17:450,0.96,0.18,0.032,18.066,14.038,-23.743,
00:00:17:467,0.97,0.177,0.029,22.583,16.052,-25.391,
00:00:17:483,0.973,0.171,0.028,22.338,13.061,-24.292,
00:00:17:500,0.969,0.174,0.028,25.634,7.69,-25.269,
00:00:17:517,0.968,0.171,0.036,25.268,12.451,-25.574,
00:00:17:533,0.977,0.163,0.035,25.451,11.413,-27.222,
00:00:17:550,0.981,0.167,0.024,28.442,5.127,-29.541,
00:00:17:567,0.969,0.156,0.033,36.071,-2.015,-28.077,
00:00:17:583,0.958,0.153,0.038,33.569,3.234,-15.748,
00:00:17:600,0.961,0.152,0.034,24.597,7.263,-31.373,
00:00:17:617,0.966,0.156,0.036,16.845,4.76,-29.114,
00:00:17:633,0.96,0.153,0.033,11.962,5.249,-31.373,
00:00:17:650,0.965,0.156,0.028,2.014,9.826,-31.678,
00:00:17:667,0.967,0.161,0.021,-3.602,9.704,-35.157,
00:00:17:683,0.971,0.169,0.025,-4.7,10.315,-36.072,
00:00:17:700,0.972,0.171,0.034,-2.015,7.873,-34.058,
00:00:17:717,0.971,0.173,0.039,2.136,5.371,-32.532,
00:00:17:733,0.965,0.169,0.034,3.784,-2.137,-28.199,
00:00:17:750,0.959,0.168,0.034,5.554,-0.611,-28.87,
00:00:17:767,0.964,0.162,0.027,11.596,5.615,-34.852,
00:00:17:783,0.972,0.161,0.032,8.85,3.356,-33.631,
00:00:17:800,0.967,0.166,0.033,5.981,2.441,-32.593,
00:00:17:817,0.964,0.163,0.033,4.15,2.868,-36.316,
00:00:17:833,0.972,0.155,0.032,-2.808,0.976,-31.556,
00:00:17:850,0.97,0.16,0.032,-9.034,-2.442,-30.762,
00:00:17:867,0.963,0.161,0.035,-14.222,0.854,-32.837,
00:00:17:883,0.963,0.168,0.036,-17.029,3.54,-34.058,
00:00:17:900,0.965,0.171,0.03,-17.151,1.953,-34.363,
00:00:17:917,0.964,0.178,0.023,-17.029,-1.221,-36.194,
00:00:17:933,0.963,0.176,0.027,-12.818,1.77,-39.368,
00:00:17:950,0.954,0.179,0.03,3.906,7.69,-31.861,
00:00:17:967,0.947,0.169,0.027,15.747,9.399,-30.335,
00:00:17:983,0.939,0.163,0.031,24.597,12.634,-25.94,
00:00:18:0,0.949,0.153,0.037,12.207,37.963,-28.26,
00:00:18:17,0.968,0.153,0.032,0.305,39.489,-30.274,
00:00:18:33,0.974,0.149,0.039,-14.649,33.264,-26.612,
00:00:18:50,0.978,0.153,0.05,-37.11,28.747,-25.757,
00:00:18:67,0.985,0.159,0.044,-65.918,24.78,-27.1,
00:00:18:83,0.991,0.174,0.033,-85.999,17.517,-27.039,
00:00:18:100,0.995,0.186,0.029,-85.938,9.643,-27.283,
00:00:18:117,0.985,0.194,0.025,-70.557,-0.977,-27.955,
00:00:18:133,0.985,0.187,0.027,-40.772,-7.874,-28.565,
00:00:18:150,0.976,0.172,0.028,-27.527,-14.222,-25.94,
00:00:18:167,0.967,0.164,0.03,-23.377,-17.456,-25.086,
00:00:18:183,0.968,0.154,0.034,-12.757,-12.818,-26.978,
00:00:18:200,0.979,0.155,0.035,-2.198,-12.085,-30.945,
00:00:18:217,0.976,0.143,0.031,18.554,-17.395,-36.622,
00:00:18:233,0.969,0.13,0.034,26.733,-15.686,-44.312,
00:00:18:250,0.972,0.122,0.037,27.893,-6.836,-51.331,
00:00:18:267,0.978,0.123,0.038,16.845,-1.893,-56.763,
00:00:18:283,0.98,0.134,0.032,11.352,-6.043,-58.045,
00:00:18:300,0.964,0.127,0.031,6.408,-8.301,-50.66,
00:00:18:317,0.953,0.13,0.033,-7.508,0.244,-47.303,
00:00:18:333,0.964,0.141,0.033,-18.25,9.704,-48.34,
00:00:18:350,0.965,0.153,0.03,-27.344,9.643,-46.631,
00:00:18:367,0.969,0.174,0.055,-25.879,14.099,-49.439,
00:00:18:383,0.983,0.186,0.052,-5.738,20.69,-76.966,
00:00:18:400,0.987,0.18,0.043,17.639,8.3,-64.331,
00:00:18:417,0.967,0.178,0.039,41.748,-5.066,-61.646,
00:00:18:433,0.958,0.166,0.038,58.349,-0.184,-63.172,
00:00:18:450,0.965,0.159,0.033,65.856,-2.747,-58.411,
00:00:18:467,0.977,0.147,0.033,69.458,-2.32,-58.777,
00:00:18:483,0.979,0.132,0.022,66.406,-7.081,-55.848,
00:00:18:500,0.976,0.118,0.029,63.72,-12.452,-54.81,
00:00:18:517,0.976,0.102,0.034,57.312,-8.118,-54.81,
00:00:18:533,0.977,0.096,0.047,47.668,-4.883,-53.772,
00:00:18:550,0.973,0.098,0.054,36.193,-8.973,-54.688,
00:00:18:567,0.967,0.106,0.062,29.48,-2.808,-55.054,
00:00:18:583,0.968,0.11,0.064,29.663,-1.099,-58.106,
00:00:18:600,0.967,0.116,0.06,30.883,3.662,-57.129,
00:00:18:617,0.971,0.127,0.052,37.719,6.103,-56.397,
00:00:18:633,0.973,0.129,0.045,38.818,1.464,-53.284,
00:00:18:650,0.969,0.129,0.039,32.165,2.929,-48.951,
00:00:18:667,0.96,0.126,0.039,20.324,4.028,-41.626,
00:00:18:683,0.958,0.13,0.045,8.3,11.962,-37.293,
00:00:18:700,0.964,0.137,0.056,7.263,11.84,-38.147,
00:00:18:717,0.961,0.136,0.059,17.822,14.038,-35.828,
00:00:18:733,0.96,0.136,0.064,28.32,18.493,-31.311,
00:00:18:750,0.972,0.138,0.063,33.752,22.094,-33.509,
00:00:18:767,0.991,0.15,0.057,45.288,20.69,-39.246,
00:00:18:783,0.978,0.133,0.039,78.552,2.624,-40.772,
00:00:18:800,0.966,0.113,0.034,86.303,2.99,-31.922,
00:00:18:817,0.963,0.107,0.036,85.144,9.399,-29.419,
00:00:18:833,0.971,0.093,0.041,77.392,10.986,-32.288,
00:00:18:850,0.969,0.075,0.045,50.537,12.634,-29.602,
00:00:18:867,0.96,0.079,0.049,12.573,17.761,-25.391,
00:00:18:883,0.955,0.104,0.059,-15.442,24.414,-23.377,
00:00:18:900,0.96,0.131,0.067,-21.668,29.541,-20.997,
00:00:18:917,0.971,0.15,0.073,-22.706,27.221,-18.372,
00:00:18:933,0.968,0.166,0.074,-11.414,26.123,-16.419,
00:00:18:950,0.968,0.183,0.079,5.981,31.738,-16.663,
00:00:18:967,0.984,0.195,0.077,35.522,31.555,-18.067,
00:00:18:983,0.992,0.188,0.07,63.171,21.057,-19.104,
00:00:19:0,0.989,0.194,0.059,96.252,11.23,-19.227,
00:00:19:17,0.976,0.19,0.054,138.549,0.671,-14.161,
00:00:19:33,0.942,0.082,0.069,217.102,-13.428,27.343,
00:00:19:50,0.931,0.061,0.102,183.532,7.812,30.151,
00:00:19:67,0.941,0.038,0.11,109.375,28.991,25.817,
00:00:19:83,0.94,0.043,0.108,14.526,40.527,25.94,
00:00:19:100,0.939,0.076,0.081,-72.083,53.222,30.822,
00:00:19:117,0.947,0.119,0.056,-114.075,60.913,15.686,
00:00:19:133,0.948,0.162,0.029,-102.051,68.115,39.001,
00:00:19:150,0.939,0.229,-0.006,-50.11,73.974,40.71,
00:00:19:167,0.945,0.266,0.012,45.349,94.482,46.997,
00:00:19:183,0.989,0.303,0.072,185.669,125.549,45.715,
00:00:19:200,1.041,0.299,0.121,335.205,115.234,49.011,
00:00:19:217,1.012,0.212,0.123,419.006,71.411,60.791,
00:00:19:233,0.985,0.194,0.079,440.002,66.833,69.641,
00:00:19:250,0.983,0.164,0.051,473.449,54.077,56.64,
00:00:19:267,0.978,0.103,0.034,458.496,47.607,44.067,
00:00:19:283,0.977,0.088,0.003,407.959,44.494,38.818,
00:00:19:300,0.963,0.071,-0.018,367.248,36.499,32.226,
00:00:19:317,0.957,0.066,-0.03,324.646,33.02,26.977,
00:00:19:333,0.97,0.045,-0.027,288.452,32.714,8.667,
00:00:19:350,0.983,0.015,-0.017,203.613,31.311,0.976,
00:00:19:367,0.984,0.014,-0.016,66.345,27.832,-7.752,
00:00:19:383,0.971,0.033,-0.01,-47.791,26.611,-11.231,
00:00:19:400,0.97,0.097,-0.003,-138.733,35.888,-22.583,
00:00:19:417,0.995,0.149,0.017,-178.833,44.494,-30.762,
00:00:19:433,1.013,0.192,0.006,-177.674,26.733,-31.861,
00:00:19:450,0.996,0.218,-0.01,-149.964,8.667,-36.683,
00:00:19:467,0.952,0.172,-0.034,-162.537,16.723,-27.405,
00:00:19:483,0.936,-0.084,0.023,-484.742,63.476,30.395,
00:00:19:500,1,0.027,0.021,-865.296,158.081,5.798,
00:00:19:517,1.043,0.265,-0.085,-830.323,135.07,1.709,
00:00:19:533,1.046,0.333,-0.091,-565.491,34.973,-1.831,
00:00:19:550,0.973,0.311,-0.072,-269.471,-37.72,-7.203,
00:00:19:567,0.901,0.26,-0.066,-103.943,-41.26,-15.686,
00:00:19:583,0.909,0.267,-0.055,0.122,-16.48,-2.015,
00:00:19:600,0.935,0.287,-0.039,138.366,-22.461,-46.631,
00:00:19:617,0.943,0.243,-0.033,260.498,-18.677,-31.311,
00:00:19:633,0.944,0.214,-0.028,352.844,-14.344,-46.631,
00:00:19:650,0.962,0.168,-0.007,392.334,-20.508,-45.044,
00:00:19:667,0.966,0.111,0.016,354.919,-26.123,-23.56,
00:00:19:683,0.944,0.099,0.026,267.089,-16.785,-3.174,
00:00:19:700,0.932,0.124,0.021,176.941,10.62,-1.526,
00:00:19:717,0.948,0.131,0.009,114.502,30.029,-15.381,
00:00:19:733,0.968,0.145,0.015,68.359,38.147,-19.654,
00:00:19:750,0.967,0.162,0.021,52.307,38.574,-19.715,
00:00:19:767,0.978,0.183,0.016,64.575,37.292,-15.748,
00:00:19:783,0.986,0.177,0.016,88.195,32.409,-21.546,
00:00:19:800,0.982,0.161,0.012,98.083,30.7,-22.217,
00:00:19:817,0.985,0.146,0.013,79.834,17.639,-17.029,
00:00:19:833,0.982,0.142,0.027,32.165,0.549,-17.884,
00:00:19:850,0.976,0.141,0.013,10.253,0.976,-19.898,
00:00:19:867,0.974,0.168,0.021,-9.461,11.901,-20.569,
00:00:19:883,0.958,0.161,-0.008,-2.137,19.592,-20.752,
00:00:19:900,0.945,0.169,-0.019,12.512,5.004,-18.799,
00:00:19:917,0.95,0.177,-0.006,9.582,4.577,-16.724,
00:00:19:933,0.947,0.18,0.026,23.132,9.887,-23.987,
00:00:19:950,0.939,0.182,0.036,26.916,37.414,-27.894,
00:00:19:967,0.957,0.177,0.016,33.691,67.565,-40.894,
00:00:19:983,0.973,0.188,-0.004,43.701,69.458,-38.331,
00:00:20:0,0.957,0.232,0,90.393,73.913,-50.171,
00:00:20:17,0.971,0.255,0.031,176.941,106.689,-58.228,
00:00:20:33,1.02,0.203,0.038,227.111,93.444,-70.862,
00:00:20:50,1.015,0.174,-0.006,228.21,38.757,-51.636,
00:00:20:67,0.967,0.232,0.051,261.413,11.169,-60.608,
00:00:20:83,1.007,0.376,0.304,403.442,86.242,-102.723,
00:00:20:100,1.237,0.577,0.392,629.516,118.652,-212.952,
00:00:20:117,1.49,0.702,0.54,673.889,99.121,-233.948,
00:00:20:133,1.629,0.997,0.691,741.882,30.212,-120.301,
00:00:20:150,1.994,1.126,0.873,1086.242,-102.601,25.634,
00:00:20:167,2.56,0.757,0.989,1589.904,-533.448,226.135,
00:00:20:183,3.231,0.302,1.385,1517.334,-1172.669,667.724,
00:00:20:200,3.692,-0.054,1.805,835.998,-1835.572,927.307,
00:00:20:217,3.937,-0.009,1.768,-46.753,-2000,1275.879,
00:00:20:233,3.999,0.387,1.404,-386.536,-2000,1447.509,
00:00:20:250,3.999,0.409,0.992,-421.204,-2000,1733.459,
00:00:20:267,3.999,0.539,0.514,-336.06,-2000,1994.629,
00:00:20:283,3.898,0.478,-0.006,-157.349,-2000,1999.694,
00:00:20:300,3.692,0.567,-0.53,-87.769,-2000,1999.694,
00:00:20:317,3.612,0.731,-1.079,-4.944,-2000,1999.694,
00:00:20:333,3.471,0.658,-1.582,200.927,-2000,1999.694,
00:00:20:350,3.601,0.407,-1.235,380.92,-2000,1999.694,
00:00:20:367,3.989,-0.113,-1.135,594.238,-2000,1999.694,
00:00:20:383,3.922,-0.604,-1.594,492.736,-2000,1999.694,
00:00:20:400,2.905,-0.596,-2.307,585.937,-2000,1999.694,
00:00:20:417,2.03,-0.845,-3.731,620.178,-2000,1999.694,
00:00:20:433,0.759,-2.115,-4,801.757,-2000,1999.694,
00:00:20:450,-0.383,-3.559,-3.431,657.104,-1565.308,1699.707,
00:00:20:467,0.494,-0.084,-2.128,-367.493,736.755,143.188,
00:00:20:483,0.379,0.956,-1.356,-207.825,1999.694,-895.386,
00:00:20:500,0.432,-0.448,-1.269,-1032.715,1999.694,-1670.411,
00:00:20:517,0.624,-0.923,-1.314,-1593.079,1999.694,-2000,
00:00:20:533,0.983,-0.83,-1.553,-1594.605,1999.694,-2000,
00:00:20:550,1.361,-0.61,-1.618,-1164.063,1999.694,-2000,
00:00:20:567,1.65,-0.576,-1.503,-665.345,1999.694,-2000,
00:00:20:583,2.059,-0.474,-1.346,-333.497,1999.694,-2000,
00:00:20:600,2.527,-0.17,-0.902,-62.561,1999.694,-2000,
00:00:20:617,2.607,0.435,-0.55,-30.03,1999.694,-2000,
00:00:20:633,2.405,0.544,-0.149,354.858,1999.694,-2000,
00:00:20:650,2.235,-0.03,-0.142,899.475,1999.694,-2000,
00:00:20:667,3.161,0.285,0.338,1326.721,1999.694,-2000,
00:00:20:683,3.999,-0.2,0.178,945.495,1999.694,-1722.474,
00:00:20:700,3.999,-1.303,0.721,-616.211,1999.694,-1796.814,
00:00:20:717,3.999,-0.756,0.97,-2000,1999.694,-1857.605,
00:00:20:733,3.999,0.52,1.393,-2000,1999.694,-2000,
00:00:20:750,3.999,0.552,1.167,-2000,1999.694,-2000,
00:00:20:767,3.999,-1.25,0.306,-2000,1933.776,-1009.156,
00:00:20:783,3.151,1.99,-1.901,-2000,-70.557,736.938,
00:00:20:800,0.694,3.394,0.055,-2000,-624.878,1073.852,
00:00:20:817,0.08,3.442,-0.16,-868.531,539.734,772.216,
00:00:20:833,1.213,1.449,-0.494,1093.933,922.363,-151.795,
00:00:20:850,1.481,0.288,-0.487,1999.694,204.345,-54.627,
00:00:20:867,0.972,-0.447,-0.278,1999.694,-242.859,135.925,
00:00:20:883,0.623,-0.55,-0.096,859.375,-256.653,118.103,
00:00:20:900,0.451,-0.053,-0.266,-40.833,-48.584,60.302,
00:00:20:917,0.49,0.227,-0.308,13,115.722,-127.32,
00:00:20:933,0.762,0.163,-0.133,230.407,252.746,-260.01,
00:00:20:950,1.095,0.238,0.01,320.739,229.98,-172.181,
00:00:20:967,1.243,0.197,0.123,396.667,25.94,-137.085,
00:00:20:983,1.121,0.073,0.137,427.307,-54.444,-80.567,
00:00:21:0,1.041,0.048,0.087,377.685,-29.908,-80.994,
00:00:21:17,1.023,0.109,-0.056,383.117,-12.513,-117.127,
00:00:21:33,0.997,0.262,-0.136,648.803,-10.01,-157.288,
00:00:21:50,0.983,0.313,-0.145,1002.502,-22.339,-183.106,
00:00:21:67,0.999,0.319,-0.096,1219.116,-82.703,-179.932,
00:00:21:83,0.994,0.386,-0.023,1316.223,-139.588,-134.766,
00:00:21:100,1.002,0.515,0.141,1400.573,-168.091,-131.531,
00:00:21:117,1.062,0.505,0.109,1405.273,-151.49,-127.747,
00:00:21:133,1.113,0.46,-0.025,1444.152,-289.734,1.831,
00:00:21:150,1.093,0.499,0.125,1481.689,-479.187,170.41,
00:00:21:167,1.103,0.491,0.354,1473.693,-525.696,383.85,
00:00:21:183,1.222,0.293,0.51,1172.485,-547.974,584.533,
00:00:21:200,1.294,0.139,0.484,484.863,-685.425,858.032,
00:00:21:217,1.187,0.23,0.461,-283.326,-809.449,1132.08,
00:00:21:233,0.982,0.625,0.461,-1042.359,-741.822,1423.706,
00:00:21:250,0.912,0.696,0.339,-1162.842,-665.894,1503.723,
00:00:21:267,0.806,0.704,0.162,-1205.628,-617.981,1562.072,
00:00:21:283,0.737,0.742,0.066,-1135.56,-606.385,1597.839,
00:00:21:300,0.691,0.705,-0.021,-972.474,-617.493,1613.22,
00:00:21:317,0.613,0.677,0.068,-742.737,-620.606,1593.933,
00:00:21:333,0.545,0.649,0.046,-537.476,-572.998,1557.495,
00:00:21:350,0.5,0.61,0.018,-319.947,-551.697,1490.478,
00:00:21:367,0.435,0.544,-0.005,-86.914,-537.415,1416.015,
00:00:21:383,0.39,0.482,0.01,115.051,-518.067,1328.796,
00:00:21:400,0.367,0.43,0.047,218.689,-513.55,1224.853,
00:00:21:417,0.365,0.423,0.086,245.361,-458.802,1113.403,
00:00:21:433,0.375,0.425,0.02,245.361,-396.851,1005.798,
00:00:21:450,0.394,0.438,-0.056,173.401,-372.986,906.494,
00:00:21:467,0.392,0.46,0.037,104.37,-376.587,827.575,
00:00:21:483,0.384,0.558,0.104,160.583,-342.713,732.727,
00:00:21:500,0.442,0.562,0.065,263.672,-304.078,628.601,
00:00:21:517,0.522,0.549,0.069,422.79,-396.79,590.271,
00:00:21:533,0.596,0.794,0.296,895.324,-586.731,526.367,
00:00:21:550,0.461,0.815,0.55,1474.06,-591.309,390.747,
00:00:21:567,0.395,0.663,0.551,1584.228,-401.856,273.925,
00:00:21:583,0.498,0.567,0.389,1190.307,-285.584,190.246,
00:00:21:600,0.532,0.514,0.481,527.404,-323.182,156.189,
00:00:21:617,0.464,0.67,0.609,-151.246,-333.435,142.944,
00:00:21:633,0.354,0.844,0.66,-545.838,-254.7,150.695,
00:00:21:650,0.33,0.82,0.669,-706.055,-179.383,147.766,
00:00:21:667,0.34,0.755,0.599,-712.22,-122.376,178.65,
00:00:21:683,0.325,0.808,0.475,-602.295,-107.972,205.322,
00:00:21:700,0.329,0.925,0.419,-494.507,-140.809,207.641,
00:00:21:717,0.292,0.77,0.432,-703.492,-208.191,212.646,
00:00:21:733,0.179,0.623,0.505,-1200.135,-223.694,248.84,
00:00:21:750,0.033,0.983,0.557,-1506.775,-93.506,241.272,
00:00:21:767,0.008,1.188,0.381,-1271.18,103.515,238.464,
00:00:21:783,-0.042,1.104,0.179,-963.013,90.454,263.672,
00:00:21:800,0,1.149,0.3,-848.45,-132.081,298.278,
00:00:21:817,-0.094,1.186,0.382,-911.805,-114.502,275.329,
00:00:21:833,-0.148,1.209,0.243,-1012.391,20.996,255.005,
00:00:21:850,-0.203,1.21,0.013,-951.233,111.999,304.687,
00:00:21:867,-0.179,1.134,-0.085,-768.25,83.313,371.521,
00:00:21:883,-0.167,1.176,-0.15,-613.343,77.209,404.297,
00:00:21:900,-0.136,1.091,-0.095,-506.958,51.94,316.345,
00:00:21:917,-0.194,0.806,-0.022,-589.051,102.661,244.629,
00:00:21:933,-0.166,0.771,-0.114,-747.803,142.151,154.724,
00:00:21:950,-0.03,1.146,-0.149,-670.35,83.252,116.821,
00:00:21:967,-0.143,1.033,0.009,-244.263,29.357,200.927,
00:00:21:983,-0.122,1.086,-0.017,-310.364,13.549,146.484,
00:00:22:0,-0.088,1.125,-0.072,-362.915,-15.625,132.019,
00:00:22:17,-0.077,1.115,-0.161,-386.597,-69.214,119.629,
00:00:22:33,-0.11,0.98,-0.222,-269.043,-87.464,119.506,
00:00:22:50,-0.113,0.977,-0.153,-244.812,-64.698,87.585,
00:00:22:67,-0.083,1.136,-0.12,-160.279,-64.331,48.645,
00:00:22:83,-0.163,1.106,-0.208,-48.157,-26.246,19.226,
00:00:22:100,-0.143,1.182,-0.218,-78.492,1.77,11.169,
00:00:22:117,-0.156,1.356,-0.208,39.733,45.471,46.63,
00:00:22:133,-0.222,1.309,-0.177,236.877,99.914,89.599,
00:00:22:150,-0.248,1.3,-0.243,450.5,147.949,136.779,
00:00:22:167,-0.262,1.25,-0.258,545.715,183.227,164.489,
00:00:22:183,-0.246,1.124,-0.217,508.606,184.326,174.377,
00:00:22:200,-0.289,1.084,-0.121,410.4,195.129,180.786,
00:00:22:217,-0.305,1.078,-0.09,350.036,213.928,200.378,
00:00:22:233,-0.347,1.165,-0.141,296.203,239.502,213.134,
00:00:22:250,-0.338,1.084,-0.156,273.742,242.614,225.219,
00:00:22:267,-0.329,1.063,-0.098,291.504,251.403,231.445,
00:00:22:283,-0.342,1.021,-0.079,323.303,264.77,236.511,
00:00:22:300,-0.351,1.058,-0.084,402.465,289.428,231.445,
00:00:22:317,-0.329,0.895,-0.065,508.3,269.043,261.901,pourRH
00:00:22:333,-0.312,0.861,-0.041,597.473,269.775,306.396,
00:00:22:350,-0.335,0.949,-0.012,726.013,284.973,329.284,
00:00:22:367,-0.317,0.89,0.02,772.766,285.827,308.776,
00:00:22:383,-0.334,0.822,0.037,731.201,286.316,273.315,
00:00:22:400,-0.302,0.685,0.107,728.759,263.549,250.61,
00:00:22:417,-0.32,0.665,0.173,770.08,275.634,271.423,
00:00:22:433,-0.323,0.77,0.141,853.454,278.93,285.095,
00:00:22:450,-0.353,0.742,0.244,774.963,251.464,274.414,
00:00:22:467,-0.339,0.724,0.298,591.491,252.258,232.055,
00:00:22:483,-0.335,0.718,0.286,540.161,233.459,182.373,
00:00:22:500,-0.361,0.703,0.295,589.355,221.74,174.499,
00:00:22:517,-0.339,0.618,0.363,658.325,170.288,135.437,
00:00:22:533,-0.362,0.603,0.413,632.934,172.79,160.888,
00:00:22:550,-0.352,0.703,0.418,620.483,185.669,153.076,
00:00:22:567,-0.366,0.752,0.427,659.484,190.612,137.024,
00:00:22:583,-0.37,0.679,0.439,629.516,189.148,106.079,
00:00:22:600,-0.349,0.635,0.427,590.088,183.349,83.496,
00:00:22:617,-0.323,0.588,0.474,561.34,157.592,75.561,
00:00:22:633,-0.338,0.596,0.557,515.258,154.602,54.504,
00:00:22:650,-0.338,0.626,0.577,455.688,148.986,1.403,
00:00:22:667,-0.341,0.622,0.569,362.976,136.901,-24.231,
00:00:22:683,-0.326,0.573,0.561,276.855,112.426,-43.763,
00:00:22:700,-0.325,0.644,0.605,264.77,94.299,-44.678,
00:00:22:717,-0.36,0.725,0.634,275.451,112.182,-39.368,
00:00:22:733,-0.367,0.744,0.607,327.087,128.845,-36.866,
00:00:22:750,-0.355,0.677,0.569,363.464,141.296,-22.156,
00:00:22:767,-0.337,0.67,0.592,395.935,144.958,1.403,
00:00:22:783,-0.341,0.685,0.631,459.961,148.559,23.498,
00:00:22:800,-0.359,0.65,0.666,485.412,161.926,31.066,
00:00:22:817,-0.344,0.608,0.669,466.247,163.818,30.822,
00:00:22:833,-0.324,0.559,0.691,396.667,150.756,20.752,
00:00:22:850,-0.329,0.589,0.743,409.607,142.395,13.61,
00:00:22:867,-0.352,0.583,0.759,408.508,146.423,7.324,
00:00:22:883,-0.334,0.536,0.745,382.08,145.202,4.089,
00:00:22:900,-0.317,0.537,0.75,349.914,136.291,5.127,
00:00:22:917,-0.317,0.565,0.805,352.783,126.831,2.319,
00:00:22:933,-0.346,0.57,0.807,388.916,127.868,0.305,
00:00:22:950,-0.333,0.536,0.804,419.494,130.737,8.911,
00:00:22:967,-0.334,0.518,0.821,404.235,136.474,31.799,
00:00:22:983,-0.324,0.547,0.822,402.954,142.761,35.583,
00:00:23:0,-0.323,0.532,0.801,418.762,133.3,33.142,
00:00:23:17,-0.343,0.477,0.826,412.597,120.849,36.132,
00:00:23:33,-0.341,0.427,0.864,392.334,130.249,47.729,
00:00:23:50,-0.331,0.404,0.892,354.431,143.615,62.683,
00:00:23:67,-0.342,0.427,0.903,322.387,160.4,68.664,
00:00:23:83,-0.332,0.445,0.85,358.764,161.682,70.434,
00:00:23:100,-0.321,0.413,0.828,376.77,141.296,85.51,
00:00:23:117,-0.323,0.405,0.875,376.831,125,105.224,
00:00:23:133,-0.32,0.368,0.893,379.699,128.173,132.202,
00:00:23:150,-0.319,0.397,0.902,376.037,143.554,149.292,
00:00:23:167,-0.325,0.37,0.876,374.328,153.503,153.625,
00:00:23:183,-0.297,0.355,0.855,390.93,146.118,148.193,
00:00:23:200,-0.3,0.266,0.891,395.08,137.756,164.795,
00:00:23:217,-0.3,0.251,0.946,337.158,157.348,169.189,
00:00:23:233,-0.29,0.267,0.932,323.852,176.452,168.335,
00:00:23:250,-0.281,0.264,0.898,318.176,171.569,162.658,
00:00:23:267,-0.288,0.249,0.9,319.152,153.442,162.17,
00:00:23:283,-0.292,0.216,0.915,306.945,140.991,162.841,
00:00:23:300,-0.279,0.227,0.973,301.391,148.864,172.668,
00:00:23:317,-0.297,0.249,0.972,279.174,185.547,173.339,
00:00:23:333,-0.272,0.241,0.91,303.283,202.026,175.903,
00:00:23:350,-0.258,0.223,0.871,338.806,184.57,190.185,
00:00:23:367,-0.259,0.18,0.916,344.726,165.039,213.44,
00:00:23:383,-0.263,0.207,0.971,339.721,165.039,236.511,
00:00:23:400,-0.278,0.166,1.007,355.713,190.551,259.887,
00:00:23:417,-0.244,0.164,0.963,358.459,207.458,277.649,
00:00:23:433,-0.235,0.134,0.97,365.234,194.641,284.057,
00:00:23:450,-0.24,0.14,1.002,369.018,198.791,291.931,
00:00:23:467,-0.255,0.114,0.982,378.601,227.6,317.199,
00:00:23:483,-0.235,0.089,0.954,408.02,254.516,353.027,
00:00:23:500,-0.195,0.071,0.947,430.603,254.089,382.019,
00:00:23:517,-0.22,0.075,0.982,439.758,265.136,399.414,
00:00:23:533,-0.209,0.09,0.995,471.679,291.626,406.677,
00:00:23:550,-0.19,-0.012,0.881,508.972,322.998,453.308,
00:00:23:567,-0.122,-0.141,0.871,526.672,317.993,492.004,
00:00:23:583,-0.106,-0.092,1.023,504.638,304.26,506.164,
00:00:23:600,-0.137,0.001,1.018,450.195,333.557,469.543,
00:00:23:617,-0.092,-0.038,0.882,477.05,349.06,427.551,
00:00:23:633,-0.022,-0.259,0.811,532.592,307.495,449.768,
00:00:23:650,-0.012,-0.318,0.949,428.65,275.085,452.819,
00:00:23:667,-0.017,-0.158,1.009,312.683,275.879,404.297,
00:00:23:683,-0.008,-0.216,0.897,281.189,256.347,361.084,
00:00:23:700,0.045,-0.398,0.844,252.868,219.299,340.21,
00:00:23:717,0.104,-0.401,0.879,110.717,128.418,310.913,
00:00:23:733,0.134,-0.301,1.139,87.707,39.489,237.365,
00:00:23:750,0.05,-0.338,1.157,18.249,25.817,139.831,
00:00:23:767,0.1,-0.408,1.015,-78.248,2.441,33.02,
00:00:23:783,0.122,-0.479,0.904,-184.082,-88.135,-61.463,
00:00:23:800,0.123,-0.443,0.826,-293.152,-207.093,-158.081,
00:00:23:817,0.127,-0.425,0.855,-401.062,-391.114,-297.913,
00:00:23:833,0.07,-0.404,1.128,-484.559,-522.461,-388.55,
00:00:23:850,-0.013,-0.401,1.217,-696.351,-505.372,-497.742,
00:00:23:867,0.027,-0.284,1.013,-886.963,-495.057,-598.084,
00:00:23:883,0.039,-0.346,0.914,-928.162,-548.951,-649.292,
00:00:23:900,-0.016,-0.326,0.925,-1094.849,-600.647,-696.778,
00:00:23:917,-0.06,-0.154,0.961,-1276.978,-671.753,-753.907,
00:00:23:933,-0.112,-0.023,1.01,-1476.502,-706.971,-798.401,
00:00:23:950,-0.134,0.104,0.936,-1624.512,-699.402,-834.9,
00:00:23:967,-0.135,0.115,0.837,-1726.807,-740.052,-858.399,
00:00:23:983,-0.127,0.152,0.723,-1884.034,-747.742,-835.389,
00:00:24:0,-0.196,0.344,0.615,-1904.847,-764.039,-767.09,
00:00:24:17,-0.289,0.452,0.631,-1896.973,-758.301,-699.097,
00:00:24:33,-0.282,0.491,0.653,-1919.8,-707.947,-623.23,
00:00:24:50,-0.293,0.576,0.597,-1838.929,-666.443,-571.289,
00:00:24:67,-0.253,0.413,0.46,-1793.091,-617.554,-505.372,
00:00:24:83,-0.232,0.541,0.337,-1738.404,-540.894,-419.983,
00:00:24:100,-0.264,0.794,0.255,-1505.738,-490.601,-374.573,
00:00:24:117,-0.276,0.782,0.266,-1356.568,-507.996,-371.46,
00:00:24:133,-0.242,0.7,0.257,-1421.021,-511.658,-404.358,
00:00:24:150,-0.226,0.764,0.267,-1549.378,-474.976,-418.519,
00:00:24:167,-0.219,0.844,0.17,-1528.199,-423.218,-400.269,
00:00:24:183,-0.222,0.828,0.04,-1386.597,-381.714,-373.352,
00:00:24:200,-0.164,0.947,-0.241,-1251.343,-404.969,-360.596,
00:00:24:217,-0.208,0.92,-0.149,-1171.326,-516.48,-371.705,
00:00:24:233,-0.214,0.829,-0.031,-1165.528,-550.232,-363.282,
00:00:24:250,-0.208,0.875,-0.052,-1216.797,-528.26,-343.934,
00:00:24:267,-0.26,0.941,-0.174,-1128.052,-470.948,-339.783,
00:00:24:283,-0.256,0.95,-0.355,-1036.988,-427.491,-343.384,
00:00:24:300,-0.277,0.962,-0.387,-947.388,-425.721,-344.117,
00:00:24:317,-0.248,1.03,-0.335,-895.203,-411.133,-338.99,
00:00:24:333,-0.256,0.986,-0.305,-818.055,-371.888,-320.313,
00:00:24:350,-0.26,1.044,-0.322,-728.394,-284.913,-316.956,
00:00:24:367,-0.204,1.133,-0.429,-564.698,-260.376,-253.602,
00:00:24:383,-0.243,1.098,-0.427,-411.988,-230.286,-233.46,
00:00:24:400,-0.217,1.067,-0.381,-349.488,-213.868,-193.421,
00:00:24:417,-0.212,1.076,-0.34,-327.332,-179.139,-181.885,
00:00:24:433,-0.187,1.034,-0.386,-282.105,-150.574,-158.204,
00:00:24:450,-0.18,1.059,-0.435,-169.983,-136.109,-151.917,
00:00:24:467,-0.19,1.038,-0.385,-80.323,-126.282,-136.536,
00:00:24:483,-0.16,0.991,-0.358,-139.527,-115.235,-128.418,
00:00:24:500,-0.157,1.037,-0.385,-162.232,-101.319,-114.319,
00:00:24:517,-0.145,1.068,-0.381,-127.93,-99.976,-102.234,
00:00:24:533,-0.153,1.073,-0.352,-57.557,-86.609,-83.863,
00:00:24:550,-0.158,1.097,-0.391,16.357,-62.745,-65.491,
00:00:24:567,-0.131,1.001,-0.407,-2.625,-57.19,-47.486,
00:00:24:583,-0.125,1.041,-0.394,-4.7,-63.965,-32.593,
00:00:24:600,-0.132,1,-0.356,53.833,-60.914,-29.236,
00:00:24:617,-0.134,0.972,-0.356,97.9,-49.012,-30.213,
00:00:24:633,-0.133,0.949,-0.401,113.708,-42.908,-32.288,
00:00:24:650,-0.106,0.836,-0.373,18.676,-61.341,-31.311,
00:00:24:667,-0.113,0.918,-0.341,-20.447,-64.209,-22.95,
00:00:24:683,-0.098,0.906,-0.364,-29.297,-58.716,-37.049,
00:00:24:700,-0.092,0.925,-0.373,-48.584,-56.397,-53.772,
00:00:24:717,-0.064,0.908,-0.369,-153.382,-85.755,-51.026,
00:00:24:733,-0.084,0.938,-0.37,-107.483,-72.144,-41.443,
00:00:24:750,-0.089,0.91,-0.419,-51.697,-48.157,-51.941,
00:00:24:767,-0.081,0.895,-0.441,-1.221,-41.565,-36.133,
00:00:24:783,-0.076,0.893,-0.418,6.347,-43.885,-37.598,
00:00:24:800,-0.07,0.852,-0.415,-23.682,-43.824,-51.148,
00:00:24:817,-0.066,0.88,-0.41,13.244,-32.349,-65.125,
00:00:24:833,-0.078,0.833,-0.383,9.826,-20.813,-96.863,
00:00:24:850,0.004,1.184,-0.549,-162.476,13.671,-62.134,
00:00:24:867,-0.158,0.633,-0.414,-123.963,-39.978,-83.558,
00:00:24:883,-0.022,1.234,-0.442,-138.977,-32.044,-45.227,
00:00:24:900,-0.087,0.941,-0.394,19.714,-16.846,-44.861,
00:00:24:917,-0.056,0.995,-0.407,25.512,-5.433,-62.317,
00:00:24:933,-0.085,1.001,-0.369,142.456,21.118,-58.899,
00:00:24:950,-0.072,0.91,-0.399,173.889,25.085,-73.792,
00:00:24:967,-0.087,0.936,-0.462,140.075,39.123,-91.431,
00:00:24:983,-0.103,0.929,-0.479,172.668,67.321,-98.45,
00:00:25:0,-0.051,0.983,-0.503,224.121,95.886,-108.765,
00:00:25:17,-0.099,0.711,-0.334,299.804,-13.855,-102.906,
00:00:25:33,-0.043,0.895,-0.285,128.601,-48.829,-141.968,
00:00:25:50,-0.017,0.88,-0.303,37.475,-109.07,-150.757,
00:00:25:67,-0.016,0.957,-0.292,3.784,-146.18,-180.787,
00:00:25:83,0.044,0.985,-0.296,9.948,-165.284,-182.679,
00:00:25:100,0.039,1.066,-0.313,206.604,-162.659,-161.56,
00:00:25:117,0.061,0.947,-0.307,407.592,-175.782,-172.181,
00:00:25:133,0.109,0.877,-0.305,402.526,-170.96,-208.008,
00:00:25:150,0.177,0.891,-0.288,203.064,-178.345,-246.338,
00:00:25:167,0.232,1.03,-0.297,-46.753,-213.135,-281.495,
00:00:25:183,0.278,1.094,-0.212,-236.512,-273.194,-305.603,
00:00:25:200,0.381,1.213,-0.245,43.029,-316.712,-267.09,
00:00:25:217,0.427,1.014,-0.22,192.199,-382.142,-246.399,
00:00:25:233,0.446,0.941,-0.223,149.047,-395.081,-239.624,
00:00:25:250,0.482,0.954,-0.253,122.192,-404.297,-250.672,
00:00:25:267,0.479,0.928,-0.272,153.564,-389.222,-288.819,
00:00:25:283,0.498,0.944,-0.28,173.645,-370.301,-348.633,
00:00:25:300,0.474,0.989,-0.296,267.578,-332.947,-405.823,
00:00:25:317,0.475,0.895,-0.252,427.856,-316.285,-449.402,
00:00:25:333,0.428,0.744,-0.222,468.078,-263.794,-481.69,
00:00:25:350,0.447,0.735,-0.218,362.671,-202.637,-518.982,
00:00:25:367,0.438,0.805,-0.242,264.099,-161.377,-568.421,
00:00:25:383,0.399,0.825,-0.259,266.662,-125.672,-620.85,
00:00:25:400,0.387,0.75,-0.271,415.954,-145.691,-636.536,
00:00:25:417,0.339,0.699,-0.235,604.37,-152.222,-592.164,
00:00:25:433,0.328,0.774,-0.18,791.442,-154.053,-544.251,
00:00:25:450,0.33,0.91,-0.189,983.825,-145.691,-540.223,
00:00:25:467,0.299,0.855,-0.159,1185.119,-114.93,-586.548,
00:00:25:483,0.276,0.749,-0.077,1265.808,8.422,-660.584,
00:00:25:500,0.251,0.618,0.075,1085.022,164.856,-741.028,
00:00:25:517,0.257,0.743,0.182,790.649,340.21,-806.702,
00:00:25:533,0.298,0.849,0.253,620.91,481.14,-879.944,
00:00:25:550,0.349,0.879,0.223,517.089,581.604,-942.017,
00:00:25:567,0.395,0.813,0.175,412.414,607.483,-987.366,
00:00:25:583,0.431,0.877,0.276,309.875,614.868,-1019.349,
00:00:25:600,0.472,0.926,0.284,156.189,632.934,-1071.839,
00:00:25:617,0.507,0.815,0.192,-89.844,621.521,-1117.188,
00:00:25:633,0.57,0.752,0.123,-361.634,559.814,-1114.991,
00:00:25:650,0.625,0.79,0.018,-487.977,495.544,-1052.735,
00:00:25:667,0.627,0.843,0.003,-471.985,452.026,-983.033,
00:00:25:683,0.633,0.855,-0.003,-322.754,440.979,-939.454,
00:00:25:700,0.671,0.825,-0.022,-58.777,423.706,-897.034,
00:00:25:717,0.71,0.796,-0.019,202.575,411.804,-869.996,
00:00:25:733,0.74,0.733,-0.063,450.988,397.4,-872.193,
00:00:25:750,0.751,0.693,-0.086,673.278,362.182,-872.254,
00:00:25:767,0.771,0.57,-0.112,741.15,336.303,-887.024,
00:00:25:783,0.812,0.409,-0.111,587.524,288.635,-888.855,
00:00:25:800,0.87,0.328,-0.104,292.968,235.595,-830.933,
00:00:25:817,0.912,0.385,-0.122,90.21,165.161,-714.234,
00:00:25:833,0.937,0.497,-0.122,66.955,64.27,-601.99,
00:00:25:850,0.939,0.557,-0.112,166.748,-45.472,-526.49,
00:00:25:867,0.931,0.547,-0.093,267.089,-122.742,-469.727,
00:00:25:883,0.944,0.492,-0.068,301.513,-137.391,-428.223,
00:00:25:900,0.962,0.447,-0.045,255.554,-135.621,-375,
00:00:25:917,0.961,0.418,-0.04,162.597,-127.808,-328.919,
00:00:25:933,0.952,0.401,-0.014,34.057,-120.606,-272.034,
00:00:25:950,0.967,0.428,0.041,-5.066,-101.197,-230.225,
00:00:25:967,0.963,0.378,0.073,-40.467,-97.779,-220.581,
00:00:25:983,0.967,0.352,0.052,-127.625,-78.309,-180.97,
00:00:26:0,0.983,0.387,0.122,-219.422,-91.431,-143.616,idleRH
00:00:26:17,0.998,0.364,0.062,-230.713,-88.074,-137.391,
00:00:26:33,1.013,0.25,0.043,-111.634,-148.316,-110.718,
00:00:26:50,0.924,0.171,0.009,-95.887,-181.763,-43.519,
00:00:26:67,0.856,0.194,-0.014,-170.716,-144.165,-45.289,
00:00:26:83,0.847,0.266,-0.018,-182.129,-54.261,-57.19,
00:00:26:100,0.884,0.266,-0.014,-138.367,28.32,-79.834,
00:00:26:117,0.924,0.267,-0.023,-105.835,93.566,-88.257,
00:00:26:133,0.926,0.297,-0.079,-18.311,120.666,-39.307,
00:00:26:150,0.942,0.298,-0.084,59.692,80.688,1.831,
00:00:26:167,0.952,0.335,-0.058,144.409,40.649,26.001,
00:00:26:183,0.919,0.274,-0.025,125.61,8.911,1.648,
00:00:26:200,0.929,0.248,0.031,52.612,3.54,-6.775,
00:00:26:217,0.96,0.286,0.044,33.142,-2.686,-7.935,
00:00:26:233,0.973,0.284,0.051,57.678,-36.011,-15.686,
00:00:26:250,0.939,0.244,0.065,73.73,-62.867,-10.804,
00:00:26:267,0.915,0.223,0.078,61.767,-49.927,-18.189,
00:00:26:283,0.917,0.191,0.021,43.579,-40.894,-27.283,
00:00:26:300,0.92,0.188,0.005,21.85,-23.682,-29.175,
00:00:26:317,0.939,0.196,-0.006,20.324,-8.301,-47.791,
00:00:26:333,0.967,0.18,0.042,-6.592,1.892,-56.336,
00:00:26:350,0.956,0.19,0.051,-35.523,5.004,-48.523,
00:00:26:367,0.947,0.195,0.055,-68.177,15.014,-55.176,
00:00:26:383,0.96,0.205,0.042,-96.253,19.592,-59.51,
00:00:26:400,0.986,0.222,0.083,-105.713,13.794,-64.637,
00:00:26:417,0.994,0.211,0.043,-126.648,-8.484,-66.04,
00:00:26:433,0.967,0.201,0.025,-162.476,-40.345,-60.242,
00:00:26:450,0.932,0.223,0.01,-190.308,-39.368,-59.876,
00:00:26:467,0.932,0.273,0.021,-173.035,-7.569,-75.806,
00:00:26:483,0.959,0.283,0.012,-121.094,6.53,-89.356,
00:00:26:500,0.962,0.272,0.007,-73.365,0.976,-75.928,
00:00:26:517,0.943,0.281,0.021,18.066,22.705,-42.847,
00:00:26:533,0.965,0.29,0.029,79.284,37.597,-55.909,
00:00:26:550,0.968,0.237,0.003,130.92,27.16,-48.584,
00:00:26:567,0.945,0.199,-0.01,154.724,12.634,-38.88,
00:00:26:583,0.936,0.176,0.004,150.451,19.653,-30.701,
00:00:26:600,0.966,0.164,0.01,129.211,22.827,-45.227,
00:00:26:617,0.954,0.138,-0.006,92.712,12.573,-38.636,
00:00:26:633,0.939,0.138,-0.005,58.776,13.488,-34.913,
00:00:26:650,0.94,0.15,0.007,35.156,28.198,-39.368,
00:00:26:667,0.961,0.162,0.015,22.888,47.668,-44.922,
00:00:26:683,0.978,0.158,-0.002,2.929,37.658,-46.082,
00:00:26:700,0.959,0.16,0.003,-24.414,23.742,-42.176,
00:00:26:717,0.947,0.184,0.013,-50.843,29.785,-44.495,
00:00:26:733,0.955,0.221,0.017,-62.561,41.015,-46.387,
00:00:26:750,0.963,0.238,0.014,-52.735,46.508,-43.457,
00:00:26:767,0.968,0.238,-0.003,-41.81,39.123,-35.523,
00:00:26:783,0.963,0.24,0.027,40.405,44.067,-14.1,
00:00:26:800,0.989,0.213,-0.012,48.889,37.414,-4.029,
00:00:26:817,0.972,0.177,-0.052,33.813,2.197,10.742,
00:00:26:833,0.923,0.151,-0.049,1.342,-7.386,20.019,
00:00:26:850,0.924,0.188,0.02,-16.114,42.907,7.934,
00:00:26:867,1.005,0.201,0.016,3.112,71.96,-13.977,
00:00:26:883,1.014,0.122,-0.051,-33.143,10.131,5.188,
00:00:26:900,0.924,0.107,-0.069,-127.137,-30.579,38.147,
00:00:26:917,0.889,0.187,-0.016,-172.059,31.311,19.714,
00:00:26:933,0.964,0.212,-0.006,-143.799,99.914,-10.621,
00:00:26:950,1.016,0.218,-0.041,-135.926,62.439,-4.517,
00:00:26:967,0.969,0.24,-0.033,-120.606,13.794,21.362,
00:00:26:983,0.923,0.253,-0.011,-91.797,20.629,17.334,
00:00:27:0,0.929,0.284,-0.009,-51.209,48.095,0.549,
00:00:27:17,0.96,0.292,-0.004,2.441,61.95,-8.423,
00:00:27:33,0.976,0.273,-0.031,66.711,40.71,-14.71,
00:00:27:50,0.957,0.243,-0.038,121.276,18.066,-8.912,
00:00:27:67,0.937,0.215,-0.028,151.001,24.231,-9.644,
00:00:27:83,0.947,0.206,-0.005,174.682,55.358,-13.184,
00:00:27:100,0.991,0.199,-0.015,203.003,67.016,-20.02,
00:00:27:117,1.018,0.17,-0.04,212.829,35.156,-14.71,
00:00:27:133,0.991,0.119,-0.052,182.8,-9.705,1.892,
00:00:27:150,0.947,0.106,-0.029,120.666,-7.019,2.441,
00:00:27:167,0.947,0.107,0.003,53.894,22.766,-11.658,
00:00:27:183,0.981,0.128,-0.005,-3.663,26.672,-18.982,
00:00:27:200,0.981,0.141,-0.016,-60.486,0.183,-9.156,
00:00:27:217,0.955,0.166,-0.026,-107.789,-9.766,-1.16,
00:00:27:233,0.956,0.207,-0.021,-133.423,3.723,-7.142,
00:00:27:250,0.982,0.247,-0.018,-129.334,10.192,-18.616,
00:00:27:267,0.964,0.267,-0.033,-97.962,1.586,-15.809,
00:00:27:283,0.943,0.27,-0.041,-64.331,-1.954,-19.898,
00:00:27:300,0.94,0.251,-0.043,-48.523,0.488,-20.752,
00:00:27:317,0.944,0.247,-0.049,-49.805,1.22,-13.794,
00:00:27:333,0.942,0.263,-0.035,-31.617,6.347,-17.029,
00:00:27:350,0.953,0.277,-0.019,-28.077,12.023,-17.212,
00:00:27:367,0.947,0.279,-0.024,7.995,7.873,-16.663,
00:00:27:383,0.936,0.269,-0.033,42.663,6.713,-16.175,
00:00:27:400,0.936,0.264,-0.027,66.345,11.596,-20.874,
00:00:27:417,0.938,0.264,-0.027,83.862,17.273,-20.325,
00:00:27:433,0.945,0.263,-0.021,93.994,11.535,-15.931,
00:00:27:450,0.944,0.26,-0.023,112.671,11.23,-17.273,
00:00:27:467,0.952,0.245,-0.021,130.066,11.413,-20.447,
00:00:27:483,0.956,0.212,-0.038,144.348,10.009,-18.555,
00:00:27:500,0.941,0.191,-0.034,124.084,6.652,-5.127,
00:00:27:517,0.932,0.18,-0.014,102.783,16.906,-11.17,
00:00:27:533,0.958,0.154,-0.015,63.049,35.217,-17.273,
00:00:27:550,0.979,0.172,-0.007,12.756,20.324,-12.879,
00:00:27:567,0.964,0.181,-0.009,-22.461,12.451,-13.611,
00:00:27:583,0.953,0.188,-0.018,-49.744,15.258,-17.212,
00:00:27:600,0.963,0.217,-0.028,-56.641,20.08,-24.964,
00:00:27:617,0.974,0.218,-0.032,-39.795,15.441,-30.884,
00:00:27:633,0.969,0.22,-0.032,-29.419,5.31,-22.583,
00:00:27:650,0.947,0.232,-0.031,-26.123,5.493,-19.593,
00:00:27:667,0.949,0.237,-0.033,-20.813,15.136,-27.71,
00:00:27:683,0.959,0.236,-0.029,-13.611,17.456,-29.419,
00:00:27:700,0.955,0.237,-0.03,-0.55,8.117,-24.598,
00:00:27:717,0.946,0.231,-0.021,5.615,2.99,-24.292,
00:00:27:733,0.942,0.232,-0.026,15.075,5.554,-29.541,
00:00:27:750,0.953,0.246,-0.029,26.245,11.84,-31.311,
00:00:27:767,0.965,0.265,-0.029,58.96,12.023,-41.626,
00:00:27:783,0.971,0.264,-0.027,110.962,2.685,-51.087,
00:00:27:800,0.964,0.234,-0.035,138.977,-8.912,-51.941,
00:00:27:817,0.956,0.209,-0.032,142.822,-13.977,-46.692,
00:00:27:833,0.946,0.19,-0.033,135.681,-5.799,-40.711,
00:00:27:850,0.944,0.193,-0.013,133.789,-3.54,-33.875,
00:00:27:867,0.944,0.18,0.003,119.995,8.483,-35.218,
00:00:27:883,0.948,0.175,0.005,87.768,13.855,-35.645,
00:00:27:900,0.959,0.164,-0.008,35.827,14.587,-34.424,
00:00:27:917,0.963,0.168,-0.021,-20.508,8.789,-24.353,
00:00:27:933,0.954,0.2,-0.025,-47.852,6.958,-20.63,
00:00:27:950,0.956,0.229,-0.02,-46.387,13.061,-22.4,
00:00:27:967,0.96,0.238,-0.021,-29.847,11.657,-25.086,
00:00:27:983,0.958,0.236,-0.019,-17.151,5.493,-20.569,
00:00:28:0,0.948,0.234,-0.009,-12.635,5.249,-20.691,
00:00:28:17,0.939,0.232,-0.003,-12.024,11.413,-21.912,
00:00:28:33,0.944,0.242,-0.002,-8.973,16.235,-22.461,
00:00:28:50,0.957,0.241,-0.01,-4.395,19.287,-22.828,
00:00:28:67,0.954,0.242,-0.028,-1.587,9.643,-20.447,
00:00:28:83,0.948,0.242,-0.024,4.76,7.751,-22.767,
00:00:28:100,0.945,0.244,-0.018,22.094,15.441,-25.269,
00:00:28:117,0.957,0.24,-0.004,39.733,18.92,-30.396,
00:00:28:133,0.968,0.226,-0.026,53.588,17.639,-30.335,
00:00:28:150,0.967,0.208,-0.032,52.307,8.3,-27.71,
00:00:28:167,0.957,0.195,-0.03,43.457,5.31,-26.001,
00:00:28:183,0.95,0.194,-0.022,32.47,5.371,-30.213,
00:00:28:200,0.952,0.2,-0.007,27.648,12.39,-30.945,
00:00:28:217,0.955,0.197,-0.001,24.78,17.211,-32.898,
00:00:28:233,0.964,0.193,-0.01,4.211,17.15,-31.983,
00:00:28:250,0.957,0.205,-0.017,-13.367,11.718,-27.283,
00:00:28:267,0.951,0.225,-0.025,-14.344,10.498,-24.903,
00:00:28:283,0.955,0.239,-0.026,0.61,11.84,-23.377,
00:00:28:300,0.963,0.233,-0.021,24.536,15.075,-27.039,
00:00:28:317,0.972,0.219,-0.02,38.269,11.169,-25.086,
00:00:28:333,0.97,0.192,-0.018,34.606,2.502,-23.133,
00:00:28:350,0.956,0.192,-0.022,19.47,-0.428,-19.471,
00:00:28:367,0.955,0.19,-0.021,0.793,3.906,-20.691,
00:00:28:383,0.956,0.203,-0.016,-7.63,6.347,-20.325,
00:00:28:400,0.964,0.21,-0.015,-8.728,4.272,-20.264,
00:00:28:417,0.963,0.212,-0.013,-3.479,0.488,-19.227,
00:00:28:433,0.954,0.213,-0.016,4.516,-3.602,-19.471,
00:00:28:450,0.944,0.211,-0.012,5.493,-15.564,-23.133,
00:00:28:467,0.946,0.213,-0.024,6.958,8.85,-25.94,
00:00:28:483,0.956,0.212,-0.016,10.131,10.742,-25.757,
00:00:28:500,0.96,0.207,-0.015,2.685,9.399,-22.4,
00:00:28:517,0.955,0.203,-0.016,-15.503,1.22,-17.334,
00:00:28:533,0.95,0.224,-0.016,-31.25,4.394,-16.053,
00:00:28:550,0.951,0.239,-0.022,-28.138,7.629,-19.104,
00:00:28:567,0.952,0.227,-0.018,7.385,7.568,-20.081,
00:00:28:583,0.957,0.225,-0.015,7.69,7.019,-16.114,
00:00:28:600,0.951,0.23,-0.013,14.526,5.676,-13.367,
00:00:28:617,0.948,0.222,-0.013,25.329,10.315,-17.151,
00:00:28:633,0.956,0.214,-0.008,31.86,11.047,-19.898,
00:00:28:650,0.963,0.213,-0.017,6.286,7.812,-22.095,
00:00:28:667,0.955,0.22,-0.024,8.056,5.798,-20.874,
00:00:28:683,0.955,0.221,-0.024,30.639,6.042,-22.034,
00:00:28:700,0.953,0.217,-0.01,24.292,7.568,-24.964,
00:00:28:717,0.954,0.211,-0.004,26.489,11.352,-26.917,
00:00:28:733,0.96,0.207,-0.002,23.681,12.329,-30.457,
00:00:28:750,0.966,0.209,-0.01,13.427,11.779,-28.87,
00:00:28:767,0.961,0.211,-0.021,7.263,5.798,-25.696,
00:00:28:783,0.951,0.22,-0.021,4.943,5.92,-25.147,
00:00:28:800,0.958,0.217,-0.02,7.507,8.361,-26.673,
00:00:28:817,0.961,0.187,-0.005,4.272,4.76,-25.391,
00:00:28:833,0.953,0.216,-0.013,-2.076,1.892,-20.691,
00:00:28:850,0.957,0.214,-0.011,-6.653,4.943,-19.165,
00:00:28:867,0.953,0.225,-0.017,-3.907,4.15,-24.842,
00:00:28:883,0.956,0.224,-0.011,-1.831,4.333,-25.513,
00:00:28:900,0.96,0.222,-0.017,-3.357,2.563,-22.828,
00:00:28:917,0.947,0.223,-0.009,5.615,8.667,-23.804,
00:00:28:933,0.952,0.22,-0.011,7.568,8.117,-24.17,
00:00:28:950,0.951,0.22,-0.012,5.188,5.493,-21.485,
00:00:28:967,0.948,0.22,-0.012,1.831,7.934,-18.921,
00:00:28:983,0.957,0.221,-0.017,1.648,10.315,-20.081,
00:00:29:0,0.955,0.223,-0.007,0.244,6.958,-22.156,
00:00:29:17,0.952,0.223,-0.011,1.586,11.718,-24.781,
00:00:29:33,0.957,0.223,-0.011,2.624,11.169,-24.048,
00:00:29:50,0.955,0.226,-0.027,1.037,7.629,-22.4,
00:00:29:67,0.951,0.226,-0.021,0.305,8.117,-21.668,
00:00:29:83,0.948,0.237,-0.02,6.347,9.887,-23.499,
00:00:29:100,0.952,0.232,-0.017,18.516,-1940.911,5901.104,
00:00:29:117,0.961,0.222,-0.018,16.052,8.178,-24.17,
00:00:29:133,0.957,0.224,-0.019,18.615,6.469,-23.316,
00:00:29:150,0.948,0.217,-0.015,21.667,7.324,-23.316,
00:00:29:167,0.954,0.21,-0.012,20.935,9.765,-26.673,
00:00:29:183,0.961,0.212,-0.011,8.544,7.507,-27.344,
00:00:29:200,0.954,0.234,-0.012,2.502,9.399,-21.729,
00:00:29:217,0.958,0.232,-0.013,8.667,9.948,-24.17,
00:00:29:233,0.958,0.219,-0.016,11.291,7.995,-22.522,
00:00:29:250,0.956,0.219,-0.011,8.606,3.479,-22.767,
00:00:29:267,0.954,0.219,-0.006,8.361,1.953,-20.813,
00:00:29:283,0.954,0.222,-0.017,5.859,5.676,-21.424,
00:00:29:300,0.959,0.218,-0.018,12.268,3.051,-20.813,
00:00:29:317,0.955,0.221,-0.014,13.671,4.821,-20.752,
00:00:29:333,0.954,0.217,-0.01,15.625,6.591,-26.978,
00:00:29:350,0.958,0.211,-0.004,13.732,8.178,-28.748,
00:00:29:367,0.957,0.212,-0.008,14.343,5.127,-28.687,
00:00:29:383,0.954,0.214,-0.013,18.554,6.286,-29.053,
00:00:29:400,0.951,0.211,-0.019,25.329,9.826,-29.847,
00:00:29:417,0.959,0.204,-0.012,32.409,11.108,-29.358,
00:00:29:433,0.968,0.186,-0.015,24.963,8.239,-33.692,
00:00:29:450,0.961,0.178,-0.01,4.882,1.159,-32.166,
00:00:29:467,0.954,0.192,-0.006,-23.194,2.014,-31.189,
00:00:29:483,0.956,0.215,-0.001,-42.908,8.728,-32.166,
00:00:29:500,0.963,0.239,0,-40.528,7.385,-29.175,
00:00:29:517,0.954,0.244,-0.006,-29.114,1.159,-27.649,
00:00:29:533,0.943,0.244,-0.005,-18.982,-1.099,-23.438,
00:00:29:550,0.949,0.243,-0.019,-13.55,6.774,-22.034,
00:00:29:567,0.948,0.239,-0.011,-7.447,5.615,-19.104,
00:00:29:583,0.944,0.24,-0.004,-2.808,9.765,-19.837,
00:00:29:600,0.947,0.238,-0.001,6.164,14.526,-21.729,
00:00:29:617,0.954,0.231,-0.011,14.099,15.625,-21.485,
00:00:29:633,0.958,0.226,-0.013,15.319,11.413,-18.25,
00:00:29:650,0.956,0.222,-0.018,16.845,10.925,-16.785,
00:00:29:667,0.958,0.225,-0.014,19.348,12.39,-20.203,
00:00:29:683,0.954,0.217,-0.008,23.132,11.901,-23.926,
00:00:29:700,0.957,0.207,0,21.606,12.573,-25.208,
00:00:29:717,0.958,0.197,-0.004,12.939,10.009,-23.377,
00:00:29:733,0.963,0.195,-0.011,1.098,8.239,-20.203,
00:00:29:750,0.96,0.207,-0.011,-12.818,5.127,-17.64,
00:00:29:767,0.962,0.22,-0.024,-9.339,5.004,-20.325,
00:00:29:783,0.96,0.223,-0.018,-4.273,3.418,-21.058,
00:00:29:800,0.957,0.217,-0.016,-0.123,0.549,-19.104,
00:00:29:817,0.948,0.208,-0.02,-1.099,1.709,-18.189,
00:00:29:833,0.95,0.204,-0.013,-3.479,8.117,-20.447,
00:00:29:850,0.954,0.209,-0.01,-8.667,9.338,-21.424,
00:00:29:867,0.951,0.216,-0.01,-9.034,10.864,-22.828,
00:00:29:883,0.952,0.221,-0.012,-11.475,10.192,-21.18,
00:00:29:900,0.953,0.234,-0.007,-5.066,9.948,-21.912,
00:00:29:917,0.958,0.243,-0.013,8.056,8.544,-24.414,
00:00:29:933,0.956,0.232,-0.013,23.193,5.493,-25.208,
00:00:29:950,0.956,0.222,-0.024,30.883,5.004,-25.635,
00:00:29:967,0.953,0.221,-0.024,30.09,2.624,-24.537,
00:00:29:983,0.947,0.222,-0.013,31.555,6.042,-24.964,
00:00:30:0,0.949,0.216,-0.01,26.367,12.268,-27.955,
00:00:30:17,0.958,0.215,-0.012,15.93,10.376,-24.476,
00:00:30:33,0.959,0.217,-0.016,1.098,10.009,-19.471,
00:00:30:50,0.962,0.228,-0.02,0.732,9.399,-19.593,
00:00:30:67,0.965,0.227,-0.021,5.493,2.38,-15.992,
00:00:30:83,0.96,0.23,-0.016,16.418,-4.517,-19.41,
00:00:30:100,0.956,0.213,-0.007,26.306,-3.54,-19.776,
00:00:30:117,0.959,0.202,-0.003,19.836,1.159,-16.297,
00:00:30:133,0.962,0.201,0,4.272,-1.099,-14.344,
00:00:30:150,0.961,0.197,-0.001,-12.33,-8.851,-15.137,
00:00:30:167,0.948,0.194,0.004,-34.302,-6.348,-11.902,
00:00:30:183,0.951,0.212,-0.005,-48.035,-1.16,-15.87,
00:00:30:200,0.955,0.199,-0.006,-60.852,1.648,-19.715,
00:00:30:217,0.951,0.224,-0.013,-66.224,-0.428,-16.48,
00:00:30:233,0.946,0.239,-0.007,-47.181,0.976,-22.828,
00:00:30:250,0.949,0.248,-0.01,-51.819,3.112,-26.795,
00:00:30:267,0.949,0.253,-0.001,-35.157,7.019,-26.001,
00:00:30:283,0.952,0.263,-0.005,-9.949,11.962,-25.391,
00:00:30:300,0.96,0.252,-0.006,19.897,11.352,-25.818,
00:00:30:317,0.951,0.239,-0.009,38.757,7.507,-23.072,
00:00:30:333,0.949,0.222,-0.014,45.288,9.643,-22.217,
00:00:30:350,0.959,0.209,-0.008,27.465,12.146,-23.865,
00:00:30:367,0.96,0.206,-0.005,17.7,10.986,-21.973,
00:00:30:383,0.963,0.207,-0.008,10.498,6.286,-21.546,
00:00:30:400,0.956,0.211,-0.007,2.441,0.549,-21.424,
00:00:30:417,0.946,0.22,-0.007,5.554,8.667,-25.147,
00:00:30:433,0.955,0.215,-0.009,6.897,12.39,-25.33,
00:00:30:450,0.954,0.221,-0.014,-0.306,6.897,-20.752,
00:00:30:467,0.957,0.221,-0.01,5.676,5.188,-23.194,
00:00:30:483,0.958,0.22,-0.009,8.911,5.065,-23.56,
00:00:30:500,0.959,0.215,-0.007,8.3,8.972,-25.879,
00:00:30:517,0.955,0.209,-0.011,-0.245,8.85,-24.72,
00:00:30:533,0.96,0.215,-0.011,-6.714,5.371,-24.231,
00:00:30:550,0.959,0.221,-0.01,-2.808,2.99,-22.706,
00:00:30:567,0.959,0.214,-0.009,1.953,4.577,-22.767,
00:00:30:583,0.954,0.213,-0.007,-1.465,3.173,-20.997,
00:00:30:600,0.952,0.218,-0.006,-2.564,8.117,-23.621,
00:00:30:617,0.955,0.217,-0.01,-3.724,8.178,-25.208,
00:00:30:633,0.957,0.218,-0.009,-7.081,5.737,-22.95,
00:00:30:650,0.948,0.222,-0.007,-5.188,3.051,-21.668,
00:00:30:667,0.951,0.222,-0.006,-3.113,5.798,-23.499,
00:00:30:683,0.956,0.224,-0.005,-6.348,9.338,-22.644,
00:00:30:700,0.96,0.226,-0.005,-7.203,6.897,-25.33,
00:00:30:717,0.955,0.237,-0.012,1.281,7.69,-25.086,
00:00:30:733,0.949,0.237,-0.007,13.061,10.437,-27.161,
00:00:30:750,0.948,0.229,-0.009,19.897,11.413,-28.138,
00:00:30:767,0.947,0.226,-0.016,23.01,12.39,-27.832,
00:00:30:783,0.951,0.234,-0.007,22.155,11.718,-31.617,
00:00:30:800,0.952,0.239,-0.006,26.428,14.221,-35.767,
00:00:30:817,0.952,0.249,-0.004,34.729,15.014,-34.424,
00:00:30:833,0.952,0.242,-0.004,45.959,17.578,-33.265,
00:00:30:850,0.963,0.228,-0.009,49.56,18.066,-29.175,
00:00:30:867,0.962,0.223,-0.019,49.621,9.399,-33.265,
00:00:30:883,0.959,0.203,-0.02,53.405,1.525,-33.509,
00:00:30:900,0.956,0.197,-0.012,43.212,2.746,-32.044,
00:00:30:917,0.956,0.2,-0.008,37.536,4.516,-33.326,
00:00:30:933,0.961,0.2,-0.003,29.48,7.69,-34.119,
00:00:30:950,0.964,0.206,-0.005,22.155,6.042,-34.668,
00:00:30:967,0.962,0.213,-0.002,21.118,2.99,-37.049,
00:00:30:983,0.951,0.211,-0.008,23.376,2.136,-38.331,
00:00:31:0,0.947,0.215,-0.007,26.916,3.601,-38.025,
00:00:31:17,0.959,0.209,-0.006,27.832,8.361,-39.49,
00:00:31:33,0.967,0.202,-0.021,27.282,4.272,-38.086,
00:00:31:50,0.954,0.193,-0.011,16.906,-2.015,-39.002,
00:00:31:67,0.942,0.202,-0.015,4.577,5.859,-41.138,
00:00:31:83,0.94,0.203,-0.006,-9.583,9.948,-41.932,
00:00:31:100,0.931,0.213,-0.008,-23.56,15.808,-42.786,
00:00:31:117,0.926,0.156,0.004,-48.584,21.972,-34.974,
00:00:31:133,0.928,0.18,0.014,-99.488,36.132,-29.419,
00:00:31:150,0.935,0.186,0.007,-143.311,41.748,-27.344,
00:00:31:167,0.933,0.2,-0.002,-163.758,42.663,-29.908,
00:00:31:183,0.935,0.226,-0.01,-155.762,45.532,-35.218,
00:00:31:200,0.959,0.24,-0.026,-144.593,55.725,-40.039,
00:00:31:217,0.994,0.245,-0.047,-130.127,40.466,-40.65,
00:00:31:233,0.987,0.259,-0.051,-103.211,18.249,-30.762,
00:00:31:250,0.971,0.279,-0.034,-53.467,13.427,-32.898,
00:00:31:267,0.971,0.283,-0.015,15.441,17.028,-39.673,
00:00:31:283,0.976,0.272,-0.007,77.941,15.441,-43.946,
00:00:31:300,0.972,0.226,-0.012,102.844,12.451,-43.457,
00:00:31:317,0.965,0.2,-0.031,95.947,8.178,-37.964,
00:00:31:333,0.956,0.201,-0.026,90.393,7.873,-36.316,
00:00:31:350,0.952,0.202,-0.021,95.153,12.512,-41.26,
00:00:31:367,0.968,0.186,-0.019,100.647,15.502,-49.256,
00:00:31:383,0.97,0.171,-0.025,86.181,4.943,-47.364,
00:00:31:400,0.954,0.185,-0.016,73.73,2.807,-44.678,
00:00:31:417,0.957,0.198,-0.009,62.133,11.596,-49.012,
00:00:31:433,0.968,0.203,-0.013,67.016,15.319,-53.284,
00:00:31:450,0.979,0.214,-0.014,83.374,11.535,-54.2,
00:00:31:467,0.972,0.21,-0.019,109.985,9.094,-59.632,
00:00:31:483,0.969,0.205,-0.021,142.089,7.08,-61.463,
00:00:31:500,0.963,0.171,-0.024,163.086,4.333,-63.294,
00:00:31:517,0.962,0.163,-0.017,164.978,11.535,-60.73,
00:00:31:533,0.984,0.154,-0.013,160.034,14.221,-66.651,
00:00:31:550,0.995,0.138,-0.01,141.601,5.065,-66.834,
00:00:31:567,0.991,0.12,-0.016,105.285,-12.024,-68.97,
00:00:31:583,0.972,0.103,-0.058,66.894,-23.011,-65.003,
00:00:31:600,0.955,0.089,-0.027,6.958,-25.696,-59.937,
00:00:31:617,0.949,0.094,-0.008,-63.111,-12.207,-54.2,
00:00:31:633,0.971,0.136,0.007,-111.512,-3.663,-54.627,
00:00:31:650,0.972,0.161,0.011,-139.405,-10.56,-60.914,
00:00:31:667,0.965,0.173,0,-157.471,-15.992,-61.768,
00:00:31:683,0.962,0.19,-0.006,-167.359,-14.771,-57.496,
00:00:31:700,0.952,0.21,-0.015,-164.307,-15.87,-48.218,
00:00:31:717,0.947,0.236,-0.014,-139.527,-9.522,-44.068,
00:00:31:733,0.956,0.264,-0.001,-88.868,-5.188,-43.641,
00:00:31:750,0.969,0.249,-0.016,-38.025,-12.635,-46.936,
00:00:31:767,0.959,0.223,-0.016,-19.104,-24.598,-38.453,
00:00:31:783,0.943,0.215,-0.013,-12.024,-16.358,-32.227,
00:00:31:800,0.947,0.212,-0.004,1.953,-5.31,-31.006,
00:00:31:817,0.958,0.199,0.005,40.222,0.854,-28.382,
00:00:31:833,0.963,0.171,0.002,50.354,0.61,-35.157,
00:00:31:850,0.963,0.157,0,40.588,-1.282,-32.776,
00:00:31:867,0.961,0.156,0,31.555,2.014,-34.119,
00:00:31:883,0.958,0.153,-0.002,18.859,2.563,-30.03,
00:00:31:900,0.965,0.167,0.004,11.291,7.934,-29.541,
00:00:31:917,0.976,0.165,0.003,19.592,5.615,-33.509,
00:00:31:933,0.966,0.16,-0.003,12.634,-1.709,-33.448,
00:00:31:950,0.963,0.159,-0.005,-5.127,-1.16,-37.171,
00:00:31:967,0.969,0.17,-0.01,-15.686,1.525,-34.668,
00:00:31:983,0.964,0.177,0.029,-10.804,-1.648,-30.457,
00:00:32:0,0.962,0.19,0,15.38,4.394,-28.443,
00:00:32:17,0.958,0.155,0.01,5.798,3.601,-34.058,
00:00:32:33,0.958,0.166,0.013,-5.616,6.836,-35.889,
00:00:32:50,0.961,0.184,0.011,-10.498,8.789,-32.227,
00:00:32:67,0.955,0.201,0.016,-2.32,11.535,-34.424,
00:00:32:83,0.959,0.202,0.012,14.404,11.535,-35.462,
00:00:32:100,0.956,0.198,0.01,24.963,14.282,-30.823,
00:00:32:117,0.961,0.198,0.015,31.738,17.211,-27.955,
00:00:32:133,0.967,0.186,0.018,41.931,16.967,-22.217,
00:00:32:150,0.965,0.182,0.015,44.128,15.93,-19.288,
00:00:32:167,0.971,0.17,0.017,48.095,17.944,-18.433,
00:00:32:183,0.97,0.167,0.013,49.56,15.686,-17.456,
00:00:32:200,0.96,0.157,0.01,46.081,19.104,-21.973,
00:00:32:217,0.965,0.163,0.002,37.78,23.254,-26.062,
00:00:32:233,0.97,0.177,0.004,44.616,26.245,-30.091,
00:00:32:250,0.967,0.187,0.011,66.284,25.39,-30.335,
00:00:32:267,0.975,0.193,0.012,99.853,30.09,-33.204,
00:00:32:283,0.977,0.177,0,132.507,22.338,-33.081,
00:00:32:300,0.971,0.168,-0.005,159.24,20.019,-33.448,
00:00:32:317,0.971,0.139,-0.004,166.442,22.644,-39.734,
00:00:32:333,0.973,0.112,-0.009,154.602,23.498,-33.753,
00:00:32:350,0.975,0.094,-0.004,123.596,27.893,-30.884,
00:00:32:367,0.979,0.1,-0.03,84.289,28.198,-32.593,
00:00:32:383,0.977,0.119,0.005,54.199,21.057,-33.02,
00:00:32:400,0.963,0.136,0.009,33.569,14.892,-35.035,
00:00:32:417,0.96,0.151,0.003,25.146,18.92,-38.453,
00:00:32:433,0.968,0.162,0.007,21.118,20.813,-36.744,
00:00:32:450,0.968,0.174,0.011,19.836,21.789,-29.297,
00:00:32:467,0.972,0.189,0.003,21.423,23.864,-25.391,
00:00:32:483,0.964,0.203,-0.004,31.982,17.395,-22.706,
00:00:32:500,0.963,0.199,0.001,43.518,22.277,-25.208,
00:00:32:517,0.97,0.199,0.008,45.898,20.996,-21.851,
00:00:32:533,0.963,0.198,0.019,45.837,18.615,-20.691,
00:00:32:550,0.95,0.211,0.018,53.161,20.69,-18.799,
00:00:32:567,0.945,0.218,0.011,73.913,26.367,-15.259,
00:00:32:583,0.944,0.213,0.014,91.613,35.034,-14.771,
00:00:32:600,0.953,0.207,0.017,119.201,41.137,-15.198,
00:00:32:617,0.942,0.195,0.027,125.366,36.926,-9.339,
00:00:32:633,0.906,0.184,0.032,116.882,48.706,-8.423,
00:00:32:650,0.966,0.177,0.033,100.158,71.655,-16.602,
00:00:32:667,0.981,0.194,0.029,89.904,73.12,-17.212,
00:00:32:683,0.955,0.214,0.034,85.388,85.266,-26.734,
00:00:32:700,0.954,0.252,0.062,99.853,122.131,-40.162,
00:00:32:717,0.943,0.278,0.078,141.723,154.663,-50.904,
00:00:32:733,0.937,0.283,0.035,221.13,157.287,-42.359,
00:00:32:750,0.957,0.228,0,269.226,145.263,-21.302,
00:00:32:767,0.963,0.177,0.01,286.193,122.07,-20.081,
00:00:32:783,0.962,0.166,-0.046,277.038,102.6,-43.58,
00:00:32:800,0.964,0.151,-0.054,263.855,93.322,-55.054,
00:00:32:817,0.952,0.149,-0.056,255.005,85.144,-70.496,
00:00:32:833,0.952,0.183,-0.073,296.02,81.481,-70.496,
00:00:32:850,0.973,0.157,-0.101,346.252,66.528,-68.97,
00:00:32:867,0.987,0.101,-0.097,352.539,54.443,-40.772,
00:00:32:883,0.991,0.098,-0.08,332.031,34.057,-16.053,
00:00:32:900,0.977,0.097,-0.053,311.889,29.602,-2.747,
00:00:32:917,0.983,0.105,-0.029,289.734,42.724,-1.282,
00:00:32:933,0.981,0.083,-0.034,257.385,51.025,7.812,
00:00:32:950,0.975,0.078,-0.038,201.66,52.612,26.428,
00:00:32:967,0.966,0.104,-0.038,151.428,53.772,30.212,
00:00:32:983,0.979,0.13,-0.047,133.606,64.758,28.076,
00:00:33:0,0.988,0.153,-0.048,136.84,61.95,18.493,
00:00:33:17,0.998,0.164,-0.053,144.531,57.556,9.338,
00:00:33:33,1.008,0.139,-0.053,161.804,43.335,18.249,
00:00:33:50,0.988,0.135,-0.069,178.527,26.062,26.672,
00:00:33:67,0.978,0.13,-0.073,195.861,34.973,6.53,
00:00:33:83,0.996,0.108,-0.073,194.152,39.917,-17.151,
00:00:33:100,0.997,0.108,-0.074,178.405,33.996,-23.133,
00:00:33:117,0.976,0.114,-0.068,152.526,22.338,-36.316,
00:00:33:133,0.97,0.112,-0.068,124.817,20.996,-48.951,
00:00:33:150,0.971,0.108,-0.069,111.938,17.517,-49.622,
00:00:33:167,0.963,0.127,-0.051,93.75,8.667,-51.514,
00:00:33:183,0.971,0.154,-0.001,69.763,8.85,-51.575,
00:00:33:200,0.983,0.186,-0.001,52.49,-7.508,-42.725,
00:00:33:217,0.978,0.203,-0.05,36.682,-16.785,-31.067,
00:00:33:233,0.986,0.233,-0.056,22.277,-19.837,-26.368,
00:00:33:250,0.978,0.247,-0.073,37.353,-28.992,-22.095,
00:00:33:267,0.983,0.263,-0.049,87.28,-41.199,2.746,
00:00:33:283,0.973,0.239,-0.038,181.518,-78.492,33.569,
00:00:33:300,0.928,0.212,-0.025,232.605,-77.637,57.495,
00:00:33:317,0.934,0.16,-0.002,219.848,-45.655,51.452,
00:00:33:334,0.954,0.131,-0.009,159.851,-35.096,42.236,
00:00:33:350,0.952,0.137,-0.006,82.763,-31.067,35.339,
00:00:33:367,0.932,0.171,-0.014,24.169,-25.757,29.419,
00:00:33:384,0.924,0.187,-0.026,13.366,-13.977,13.794,
00:00:33:400,0.933,0.169,-0.019,27.893,1.281,4.516,
00:00:33:417,0.93,0.184,-0.01,18.371,26.733,6.286,
00:00:33:434,0.94,0.212,-0.005,24.902,42.541,-5.921,
00:00:33:450,0.963,0.196,-0.005,34.301,41.87,-17.09,
00:00:33:467,0.979,0.18,0,26.184,29.968,-12.452,
00:00:33:484,0.982,0.166,-0.011,8.178,0.793,-13.733,
00:00:33:500,0.972,0.145,-0.027,-20.142,7.019,-4.151,
00:00:33:517,0.96,0.155,-0.031,-63.904,9.643,-0.794,
00:00:33:534,0.957,0.178,-0.03,-89.051,14.526,-2.869,
00:00:33:550,0.96,0.197,-0.024,-93.811,23.437,-10.01,
00:00:33:567,0.966,0.223,-0.017,-84.229,25.695,-12.146,
00:00:33:584,0.971,0.217,-0.016,-56.275,14.587,-5.921,
00:00:33:600,0.962,0.205,-0.008,-38.514,-0.733,2.868,
00:00:33:617,0.95,0.207,-0.003,-28.077,-4.151,6.286,
00:00:33:634,0.944,0.242,-0.007,-11.048,15.319,-5.86,
00:00:33:650,0.958,0.241,-0.007,25.634,22.766,-21.302,
00:00:33:667,0.954,0.218,-0.004,36.926,12.39,-22.767,
00:00:33:684,0.943,0.233,-0.009,31.066,22.583,-24.964,
00:00:33:700,0.959,0.262,0.025,47.302,39.55,-44.8,
00:00:33:717,1.024,0.361,0.167,138.61,60.119,-69.336,
00:00:33:734,1.141,0.584,0.295,351.562,54.138,-153.138,
00:00:33:750,1.312,0.721,0.318,476.379,9.216,-209.9,
00:00:33:767,1.385,0.957,0.338,544.494,-154.175,28.747,
00:00:33:784,1.463,1.387,0.572,999.633,-277.71,165.344,
00:00:33:800,1.987,1.425,1.177,1635.925,-541.443,186.95,
00:00:33:817,2.876,0.869,1.628,1689.575,-1106.385,377.929,
00:00:33:834,3.401,0.752,1.81,1250.61,-1680.909,1039.734,
00:00:33:850,3.555,0.891,1.81,911.01,-2000,1551.574,
00:00:33:867,3.814,0.868,1.876,648.132,-2000,1886.108,
00:00:33:884,3.961,1.005,1.689,594.299,-2000,1999.694,
00:00:33:900,3.986,0.968,1.315,754.699,-2000,1999.694,
00:00:33:917,3.988,0.623,0.804,698.364,-2000,1999.694,
00:00:33:934,3.829,0.401,0.156,347.351,-2000,1999.694,
00:00:33:950,3.681,0.474,-0.323,-56.153,-2000,1999.694,
00:00:33:967,3.66,0.575,-0.768,-148.743,-2000,1999.694,
00:00:33:984,3.773,0.498,-1.081,-86.487,-2000,1999.694,
00:00:34:0,3.7,0.313,-0.943,328.735,-2000,1999.694,
00:00:34:17,3.88,-0.032,-1.552,992.248,-2000,1999.694,
00:00:34:34,3.56,-0.291,-2.315,1538.452,-2000,1999.694,
00:00:34:50,2.873,-0.59,-3.258,1834.655,-2000,1999.694,
00:00:34:67,1.518,-1.168,-3.983,1902.221,-2000,1999.694,
00:00:34:84,0.199,-2.318,-4,1487.365,-2000,1999.694,
00:00:34:100,-0.728,-2.107,-3.243,746.154,-1998.353,1348.205,
00:00:34:117,-0.36,-0.426,-2.34,-684.449,-183.777,18.615,
00:00:34:134,0.214,0.348,-1.511,-706.482,1595.764,-1088.074,
00:00:34:150,0.21,-0.48,-1.317,-625.123,1999.694,-1618.287,
00:00:34:167,0.498,-0.808,-1.38,-1048.707,1999.694,-2000,
00:00:34:184,0.812,-0.547,-1.419,-1446.961,1999.694,-2000,
00:00:34:200,1.068,-0.365,-1.465,-1382.508,1999.694,-2000,
00:00:34:217,1.341,-0.399,-1.369,-1146.668,1999.694,-2000,
00:00:34:234,1.521,-0.257,-1.102,-987.732,1999.694,-2000,
00:00:34:250,1.768,-0.089,-0.922,-807.251,1999.694,-2000,
00:00:34:267,2.04,-0.098,-0.797,-574.219,1999.694,-2000,
00:00:34:284,2.217,-0.132,-0.577,-400.696,1999.694,-2000,
00:00:34:300,2.233,0.164,-0.073,-210.389,1999.694,-2000,
00:00:34:317,2.342,0.825,0.911,-117.188,1999.694,-2000,
00:00:34:334,2.5,0.559,0.742,-342.896,1999.694,-2000,
00:00:34:350,2.86,-0.435,-0.286,-113.221,1999.694,-2000,
00:00:34:367,3.802,-1.083,-0.747,-621.582,1999.694,-2000,
00:00:34:384,3.999,-0.216,-0.634,-1939.637,1999.694,-2000,
00:00:34:400,3.999,1.04,0.136,-1921.937,1999.694,-2000,
00:00:34:417,3.999,1.739,0.129,-1278.016,1499.45,-2000,
00:00:34:434,3.999,-1.103,2.751,-2000,1432.678,-320.008,
00:00:34:450,3.964,3.599,-0.393,-2000,-62.684,1589.294,
00:00:34:467,1.226,2.91,-0.339,-1656.373,-1202.881,1469.787,
00:00:34:484,0.28,1.33,0.007,530.883,-596.619,979.553,
00:00:34:500,0.554,0.555,-0.041,1234.192,160.705,440.612,
00:00:34:517,0.957,0.163,-0.206,1455.993,238.525,287.536,
00:00:34:534,0.875,-0.143,-0.162,1226.745,-10.498,197.509,
00:00:34:550,0.573,-0.002,-0.148,760.376,-42.481,48.95,
00:00:34:567,0.436,0.117,-0.316,469.665,41.565,-269.532,
00:00:34:584,0.575,0.101,-0.34,387.878,112.487,-309.876,
00:00:34:600,0.792,0.144,-0.243,215.454,106.994,-98.938,
00:00:34:617,0.908,0.258,-0.161,47.973,130.066,3.784,
00:00:34:634,1.073,0.324,0.011,47.912,141.296,20.629,
00:00:34:650,1.2,0.331,0.197,214.965,76.294,8.361,
00:00:34:667,1.158,0.24,0.187,370.788,-10.01,10.192,
00:00:34:684,1.047,0.151,0.102,459.716,-60.975,-22.706,
00:00:34:700,0.983,0.17,0.075,435.608,-52.247,-76.416,
00:00:34:717,0.986,0.262,0.113,372.68,-2.93,-112,
00:00:34:734,1.053,0.35,0.169,328.247,-19.471,-117.859,
00:00:34:750,1.12,0.356,0.186,178.466,-40.833,-3.052,
00:00:34:767,1.136,0.51,0.181,95.031,-127.198,179.26,
00:00:34:784,1.155,0.635,0.257,54.931,-211.182,283.935,
00:00:34:800,1.241,0.621,0.292,-3.724,-283.509,284.668,
00:00:34:817,1.143,0.56,0.401,-167.481,-420.044,510.559,
00:00:34:834,0.932,0.535,0.432,-397.644,-389.344,697.57,
00:00:34:850,0.903,0.594,0.363,-559.693,-253.724,743.225,
00:00:34:867,1.033,0.638,0.25,-610.718,-231.629,779.48,
00:00:34:884,1.063,0.7,0.187,-582.459,-335.572,895.996,
00:00:34:900,0.973,0.679,0.116,-521.546,-466.919,1007.751,
00:00:34:917,0.862,0.636,0.055,-484.498,-540.955,1097.961,
00:00:34:934,0.818,0.626,0.02,-452.82,-571.839,1170.349,
00:00:34:950,0.815,0.648,-0.016,-382.447,-607.911,1218.017,
00:00:34:967,0.781,0.662,-0.037,-279.297,-677.308,1247.07,
00:00:34:984,0.7,0.626,-0.051,-180.115,-735.352,1244.445,
00:00:35:0,0.61,0.596,-0.038,-101.014,-750.55,1216.308,
00:00:35:17,0.544,0.566,-0.023,-39.917,-720.459,1165.71,
00:00:35:34,0.505,0.539,-0.03,6.042,-672.486,1115.966,
00:00:35:50,0.487,0.518,-0.025,4.455,-613.16,1054.87,
00:00:35:67,0.459,0.463,-0.06,-5.555,-566.895,1024.536,
00:00:35:84,0.374,0.491,-0.053,16.906,-464.539,940.124,
00:00:35:100,0.367,0.558,0.079,9.765,-371.582,857.116,
00:00:35:117,0.384,0.612,0.101,51.33,-233.765,755.127,
00:00:35:134,0.427,0.528,-0.028,129.821,-178.589,725.586,
00:00:35:150,0.429,0.439,-0.076,103.82,-224.915,733.642,
00:00:35:167,0.38,0.452,-0.024,-82.459,-237.915,704.406,
00:00:35:184,0.332,0.615,0.119,-209.473,-180.542,618.469,
00:00:35:200,0.329,0.695,0.099,-269.837,-109.681,564.026,
00:00:35:217,0.335,0.625,0.061,-232.666,-95.765,544.738,
00:00:35:234,0.312,0.578,0.034,-251.587,-136.475,547.18,
00:00:35:250,0.26,0.734,0.198,-453.736,-108.338,525.634,
00:00:35:267,0.277,0.989,0.405,-477.845,15.686,416.687,
00:00:35:284,0.429,1.068,0.311,-344.544,112.487,310.302,
00:00:35:300,0.494,0.972,0.155,-239.808,72.387,341.247,
00:00:35:317,0.457,0.97,0.06,-333.497,-29.053,408.081,
00:00:35:334,0.392,1.017,0.044,-421.936,-134.339,426.818,
00:00:35:350,0.33,0.953,0.125,-512.269,-154.297,416.442,
00:00:35:367,0.255,0.887,0.152,-620.545,-43.213,400.451,
00:00:35:384,0.243,0.97,0.05,-679.749,116.882,380.798,
00:00:35:400,0.255,1.055,-0.103,-637.33,201.416,337.463,
00:00:35:417,0.188,0.846,-0.042,-51.148,143.188,276.062,
00:00:35:434,0.166,0.924,-0.008,-417.054,160.156,255.188,
00:00:35:450,0.101,1.105,-0.02,-608.399,195.373,218.322,
00:00:35:467,0.041,1.28,-0.018,-451.966,228.271,157.776,
00:00:35:484,0.03,1.233,-0.091,-27.894,278.198,107.483,
00:00:35:500,0.053,1.045,-0.145,127.685,266.174,118.896,
00:00:35:517,-0.017,1.045,-0.132,-32.898,239.196,180.114,
00:00:35:534,-0.058,1.158,-0.139,-128.663,167.48,159.973,
00:00:35:550,-0.09,1.125,-0.144,-127.93,36.01,179.748,
00:00:35:567,-0.097,1.08,-0.025,-322.571,-33.081,147.644,
00:00:35:584,-0.146,1.086,-0.056,-435.73,52.429,164.856,
00:00:35:600,-0.138,1.02,-0.42,-473.877,69.885,206.237,
00:00:35:617,-0.092,0.889,-0.348,-509.461,33.63,183.349,
00:00:35:634,-0.172,0.885,-0.247,-788.208,29.48,121.032,
00:00:35:650,0.027,1.126,0.007,-961.426,-120.911,103.088,
00:00:35:667,-0.107,1.503,0.096,-524.048,-215.882,182.617,
00:00:35:684,-0.155,1.116,-0.131,-80.75,-132.874,60.424,
00:00:35:700,-0.082,0.916,-0.365,-69.336,-90.516,21.667,
00:00:35:717,-0.116,0.977,-0.445,-165.711,-99.122,9.155,
00:00:35:734,-0.141,1.071,-0.323,-84.168,-137.879,25.39,
00:00:35:750,-0.175,1.125,-0.206,40.771,-96.314,16.54,
00:00:35:767,-0.172,1.113,-0.288,164.672,-1.282,14.465,
00:00:35:784,-0.185,1.111,-0.371,237.243,34.179,28.442,
00:00:35:800,-0.191,0.983,-0.334,311.157,35.766,67.565,
00:00:35:817,-0.195,0.999,-0.253,300.293,52.063,69.03,
00:00:35:834,-0.191,0.985,-0.294,254.943,64.636,60.669,
00:00:35:850,-0.221,1.002,-0.332,187.378,68.786,62.622,
00:00:35:867,-0.223,1.001,-0.315,107.544,61.096,61.401,
00:00:35:884,-0.215,1.021,-0.243,64.025,65.124,78.491,
00:00:35:900,-0.234,1.134,-0.307,100.83,119.69,105.224,
00:00:35:917,-0.237,1.137,-0.366,127.075,146.118,125.793,
00:00:35:934,-0.248,1.019,-0.264,234.802,142.883,157.653,
00:00:35:950,-0.251,1.051,-0.321,332.153,182.617,210.632,
00:00:35:967,-0.221,1.048,-0.298,377.624,179.992,220.825,
00:00:35:984,-0.252,1.006,-0.279,386.352,204.589,245.239,
00:00:36:0,-0.27,0.936,-0.236,382.446,201.172,215.515,
00:00:36:17,-0.258,0.893,-0.237,394.226,202.697,222.717,
00:00:36:34,-0.252,0.864,-0.177,359.619,193.908,222.168,pourRH
00:00:36:50,-0.263,0.888,-0.153,320.678,223.449,203.003,
00:00:36:67,-0.264,0.914,-0.164,315.551,226.44,183.41,
00:00:36:84,-0.263,0.9,-0.121,387.268,223.571,188.171,
00:00:36:100,-0.278,0.923,-0.161,473.999,239.868,200.988,
00:00:36:117,-0.27,0.925,-0.09,556.579,237.121,203.491,
00:00:36:134,-0.302,0.856,-0.052,522.4,245.056,197.509,
00:00:36:150,-0.27,0.827,-0.021,441.65,248.962,165.161,
00:00:36:167,-0.276,0.81,-0.007,430.542,246.826,164.001,
00:00:36:184,-0.326,0.809,0.024,422.241,238.281,123.169,
00:00:36:200,-0.335,0.74,0.108,402.343,248.047,93.505,
00:00:36:217,-0.316,0.705,0.141,346.984,263.672,88.806,
00:00:36:234,-0.304,0.699,0.117,311.462,286.132,76.721,
00:00:36:250,-0.315,0.783,0.098,320.007,294.433,63.903,
00:00:36:267,-0.316,0.83,0.12,341.247,296.63,24.536,
00:00:36:284,-0.297,0.848,0.145,321.228,295.471,-10.804,
00:00:36:300,-0.283,0.844,0.142,318.176,294.922,-32.044,
00:00:36:317,-0.264,0.839,0.173,310.852,293.701,-26.429,
00:00:36:334,-0.259,0.974,0.193,510.62,265.319,-13.428,
00:00:36:350,-0.252,0.93,0.272,584.045,258.789,-6.226,
00:00:36:367,-0.263,0.901,0.3,645.08,268.005,11.291,
00:00:36:384,-0.272,0.892,0.287,698.73,267.028,27.587,
00:00:36:400,-0.262,0.848,0.322,663.94,238.769,27.404,
00:00:36:417,-0.262,0.861,0.375,633.545,208.191,22.399,
00:00:36:434,-0.266,0.825,0.448,593.139,174.926,11.169,
00:00:36:450,-0.287,0.78,0.474,552.612,170.959,6.897,
00:00:36:467,-0.306,0.775,0.448,475.525,162.78,-1.404,
00:00:36:484,-0.287,0.758,0.457,416.748,136.413,-1.831,
00:00:36:500,-0.28,0.757,0.509,314.148,105.102,1.159,
00:00:36:517,-0.308,0.807,0.507,209.289,117.004,-6.653,
