TIMECODE,ACC_X,ACC_Y,ACC_Z,GYR_X,GYR_Y,GYR_Z,TAG
00:00:00:0,0.985,-0.212,0.232,52.49,6.958,62.927,
00:00:00:16,0.988,-0.203,0.224,42.114,-2.076,62.316,
00:00:00:33,0.984,-0.193,0.217,44.128,-19.715,58.044,
00:00:00:50,0.978,-0.188,0.217,57.617,-33.936,52.856,
00:00:00:66,0.969,-0.184,0.215,82.519,-47.913,45.105,
00:00:00:83,0.956,-0.191,0.207,102.478,-57.129,33.691,
00:00:00:100,0.944,-0.203,0.197,116.821,-61.768,26.55,
00:00:00:116,0.906,-0.215,0.193,121.643,-64.27,21.667,
00:00:00:133,0.927,-0.223,0.189,112.609,-65.369,20.08,
00:00:00:150,0.916,-0.228,0.186,98.877,-58.777,20.813,
00:00:00:166,0.913,-0.227,0.181,89.477,-48.951,16.845,
00:00:00:183,0.911,-0.224,0.174,81.054,-35.584,9.704,
00:00:00:200,0.912,-0.221,0.165,80.322,-25.879,3.601,
00:00:00:216,0.911,-0.225,0.163,79.345,-19.959,-5.127,
00:00:00:233,0.901,-0.226,0.157,77.636,-8.728,-13.489,
00:00:00:250,0.892,-0.231,0.154,72.876,6.347,-19.227,
00:00:00:266,0.889,-0.239,0.157,58.471,26.428,-23.56,
00:00:00:283,0.892,-0.246,0.159,37.292,48.461,-25.33,
00:00:00:300,0.899,-0.251,0.167,5.981,67.871,-24.292,
00:00:00:316,0.911,-0.25,0.167,-28.504,89.904,-23.194,
00:00:00:333,0.918,-0.24,0.164,-57.923,104.37,-25.086,
00:00:00:350,0.93,-0.23,0.163,-72.388,121.582,-26.978,
00:00:00:366,0.937,-0.221,0.169,-79.285,128.906,-33.631,
00:00:00:383,0.941,-0.218,0.167,-85.389,134.765,-41.687,
00:00:00:400,0.951,-0.211,0.156,-95.459,146.24,-45.227,
00:00:00:416,0.96,-0.192,0.159,-102.723,154.602,-46.448,
00:00:00:433,0.955,-0.174,0.167,-98.755,153.93,-49.683,
00:00:00:450,0.933,-0.167,0.173,-93.14,160.522,-49.439,
00:00:00:466,0.926,-0.167,0.166,-98.572,180.053,-44.922,
00:00:00:483,0.94,-0.163,0.162,-110.718,191.772,-35.95,
00:00:00:500,0.958,-0.153,0.157,-123.902,191.04,-26.062,
00:00:00:516,0.957,-0.148,0.154,-132.691,182.861,-16.48,
00:00:00:533,0.948,-0.146,0.141,-127.137,184.265,-10.01,
00:00:00:550,0.935,-0.15,0.138,-120.667,186.889,-1.099,
00:00:00:566,0.944,-0.157,0.138,-126.893,204.895,7.995,
00:00:00:583,0.969,-0.166,0.143,-149.048,212.158,14.77,
00:00:00:600,0.986,-0.171,0.162,-181.031,208.374,19.348,
00:00:00:616,0.993,-0.17,0.164,-207.276,200.622,29.113,
00:00:00:633,1.001,-0.134,0.161,-204.102,176.757,33.386,
00:00:00:650,0.999,-0.103,0.157,-164.551,140.564,29.357,
00:00:00:666,1.005,-0.079,0.156,-87.647,107.055,21.057,
00:00:00:683,1.019,-0.079,0.161,8.178,64.025,4.394,
00:00:00:700,1.019,-0.083,0.169,99.426,12.634,-10.315,
00:00:00:716,1.013,-0.094,0.169,171.02,-20.813,-21.058,
00:00:00:733,1.005,-0.11,0.165,222.595,-53.589,-30.274,
00:00:00:750,1.002,-0.13,0.161,254.211,-79.529,-33.753,
00:00:00:766,0.995,-0.132,0.149,261.413,-99.183,-27.588,
00:00:00:783,0.983,-0.132,0.149,262.878,-107.178,-21.302,
00:00:00:800,0.972,-0.131,0.148,260.742,-107.789,-13.428,
00:00:00:816,0.962,-0.134,0.144,245.3,-103.516,-3.846,
00:00:00:833,0.962,-0.148,0.14,227.478,-92.041,9.582,
00:00:00:850,0.957,-0.161,0.143,191.162,-80.445,29.296,
00:00:00:866,0.953,-0.17,0.136,148.132,-68.482,50.231,
00:00:00:883,0.955,-0.178,0.132,95.031,-57.373,72.265,
00:00:00:900,0.953,-0.176,0.126,46.264,-50.415,91.003,
00:00:00:916,0.958,-0.164,0.128,10.192,-43.702,103.271,
00:00:00:933,0.958,-0.146,0.119,2.929,-41.26,110.534,
00:00:00:950,0.96,-0.136,0.112,19.287,-44.617,105.163,
00:00:00:966,0.962,-0.142,0.111,46.691,-48.584,94.36,
00:00:00:983,0.963,-0.16,0.108,70.739,-52.796,82.58,
00:00:01:0,0.963,-0.171,0.11,83.435,-55.909,70.983,
00:00:01:16,0.961,-0.184,0.105,86.059,-59.632,56.152,
00:00:01:33,0.962,-0.192,0.101,88.501,-56.641,40.954,
00:00:01:50,0.964,-0.202,0.097,80.078,-54.322,26.916,
00:00:01:66,0.959,-0.212,0.093,69.519,-55.97,8.239,
00:00:01:83,0.952,-0.215,0.093,53.283,-52.369,-8.912,
00:00:01:100,0.947,-0.217,0.095,34.179,-44.312,-26.246,
00:00:01:116,0.945,-0.207,0.089,18.92,-31.311,-40.772,
00:00:01:133,0.94,-0.197,0.094,6.042,-21.973,-52.308,
00:00:01:150,0.937,-0.194,0.096,1.159,-9.766,-64.698,
00:00:01:166,0.932,-0.192,0.099,-7.081,3.051,-71.351,
00:00:01:183,0.933,-0.188,0.099,-14.832,18.127,-76.6,
00:00:01:200,0.934,-0.181,0.102,-23.194,29.174,-83.863,
00:00:01:216,0.945,-0.169,0.102,-29.419,40.039,-88.44,
00:00:01:233,0.96,-0.163,0.104,-30.274,44.311,-97.168,
00:00:01:250,0.962,-0.159,0.105,-25.757,43.151,-103.516,
00:00:01:266,0.963,-0.148,0.109,-24.598,46.02,-107.422,
00:00:01:283,0.964,-0.143,0.116,-23.194,49.743,-111.39,
00:00:01:300,0.971,-0.141,0.119,-23.987,54.992,-111.939,
00:00:01:316,0.965,-0.141,0.13,-30.945,59.204,-108.155,
00:00:01:333,0.967,-0.135,0.126,-41.81,64.453,-101.99,
00:00:01:350,0.967,-0.129,0.132,-52.491,70.312,-94.727,
00:00:01:366,0.973,-0.13,0.132,-59.388,72.326,-88.929,
00:00:01:383,0.971,-0.157,0.139,-64.026,67.504,-81.421,
00:00:01:400,0.973,-0.125,0.147,-67.81,67.443,-71.595,
00:00:01:416,0.979,-0.111,0.147,-69.092,64.27,-58.899,
00:00:01:433,0.989,-0.101,0.145,-56.031,57.067,-50.232,
00:00:01:450,0.98,-0.096,0.147,-28.443,38.33,-46.387,
00:00:01:466,0.973,-0.1,0.148,1.098,25.878,-38.269,
00:00:01:483,0.975,-0.094,0.145,19.592,19.348,-23.255,
00:00:01:500,0.985,-0.094,0.143,43.945,12.756,-13.855,
00:00:01:516,0.986,-0.098,0.146,61.584,-1.282,-3.296,
00:00:01:533,0.971,-0.104,0.142,69.763,-12.94,9.643,
00:00:01:550,0.96,-0.109,0.138,77.697,-14.832,25.451,
00:00:01:566,0.968,-0.112,0.13,79.956,-10.437,36.621,
00:00:01:583,0.982,-0.121,0.124,83.984,-15.87,46.02,
00:00:01:600,0.977,-0.127,0.122,78.247,-26.001,50.109,
00:00:01:616,0.968,-0.132,0.125,70.861,-28.504,51.879,
00:00:01:633,0.972,-0.134,0.122,69.702,-26.001,58.044,
00:00:01:650,0.979,-0.136,0.12,74.585,-28.809,61.767,
00:00:01:666,0.973,-0.138,0.12,82.397,-34.668,65.49,
00:00:01:683,0.963,-0.137,0.118,95.825,-39.246,61.523,
00:00:01:700,0.96,-0.142,0.115,113.83,-39.49,56.213,
00:00:01:716,0.961,-0.154,0.117,126.953,-41.993,47.18,
00:00:01:733,0.967,-0.171,0.109,134.399,-42.847,36.438,
00:00:01:750,0.969,-0.182,0.107,129.882,-44.007,28.076,
00:00:01:766,0.966,-0.189,0.113,111.938,-39.002,20.324,
00:00:01:783,0.969,-0.182,0.109,103.21,-37.659,10.131,
00:00:01:800,0.96,-0.176,0.111,93.933,-35.889,1.709,
00:00:01:816,0.951,-0.165,0.112,99.426,-38.514,-10.437,
00:00:01:833,0.945,-0.161,0.105,105.041,-36.194,-25.269,
00:00:01:850,0.94,-0.159,0.104,114.257,-32.898,-40.528,
00:00:01:866,0.94,-0.156,0.107,119.934,-29.786,-49.927,
00:00:01:883,0.946,-0.155,0.108,117.675,-24.048,-53.894,
00:00:01:900,0.951,-0.149,0.106,119.567,-20.447,-56.153,
00:00:01:916,0.947,-0.145,0.105,118.53,-21.851,-57.312,
00:00:01:933,0.94,-0.142,0.109,122.192,-19.227,-57.923,
00:00:01:950,0.94,-0.135,0.105,124.939,-11.414,-58.838,
00:00:01:966,0.952,-0.13,0.102,127.99,-8.301,-61.585,
00:00:01:983,0.958,-0.131,0.109,133.117,-5.982,-66.59,
00:00:02:0,0.959,-0.126,0.109,130.798,-6.043,-67.994,
00:00:02:16,0.96,-0.113,0.106,135.131,-5.31,-69.642,
00:00:02:33,0.96,-0.097,0.097,147.522,-9.095,-72.449,
00:00:02:50,0.963,-0.09,0.1,171.447,-18.86,-70.801,
00:00:02:66,0.96,-0.086,0.099,196.96,-25.452,-70.618,
00:00:02:83,0.955,-0.092,0.093,214.965,-26.551,-66.895,
00:00:02:100,0.953,-0.095,0.089,225.219,-26.368,-57.801,
00:00:02:116,0.963,-0.097,0.093,229.736,-25.757,-42.908,
00:00:02:133,0.979,-0.098,0.092,240.173,-32.349,-30.64,
00:00:02:150,0.983,-0.094,0.09,256.164,-51.209,-23.804,
00:00:02:166,0.975,-0.078,0.084,279.052,-67.627,-21.302,
00:00:02:183,0.98,-0.064,0.072,325.561,-81.299,-22.339,
00:00:02:200,0.986,-0.062,0.064,390.503,-104.432,-28.443,
00:00:02:216,0.979,-0.077,0.067,446.045,-121.644,-33.081,
00:00:02:233,0.979,-0.1,0.074,486.145,-128.54,-37.171,
00:00:02:250,0.988,-0.121,0.076,505.798,-121.46,-38.208,
00:00:02:266,0.998,-0.123,0.054,509.948,-120.423,-36.866,
00:00:02:283,1,-0.121,0.057,522.4,-135.071,-36.56,
00:00:02:300,0.988,-0.117,0.064,534.546,-142.518,-34.79,
00:00:02:316,0.977,-0.115,0.075,549.56,-145.691,-35.462,
00:00:02:333,0.968,-0.114,0.059,568.603,-141.419,-36.499,
00:00:02:350,0.969,-0.114,0.062,585.632,-146.912,-29.725,
00:00:02:366,0.964,-0.128,0.066,604.309,-148.438,-21.485,
00:00:02:383,0.953,-0.146,0.079,603.637,-144.654,-5.616,
00:00:02:400,0.939,-0.152,0.089,587.402,-125.184,16.967,
00:00:02:416,0.943,-0.15,0.095,569.946,-107.911,36.743,
00:00:02:433,0.945,-0.149,0.094,572.692,-99.122,60.058,
00:00:02:450,0.935,-0.159,0.098,576.233,-94.178,76.782,
00:00:02:466,0.926,-0.175,0.104,580.932,-83.558,90.271,
00:00:02:483,0.937,-0.194,0.113,577.209,-63.477,102.234,
00:00:02:500,0.954,-0.215,0.156,574.646,-51.514,110.962,
00:00:02:516,0.963,-0.23,0.137,570.434,-45.716,118.103,
00:00:02:533,0.957,-0.236,0.132,570.251,-39.368,121.704,
00:00:02:550,0.955,-0.246,0.135,577.819,-44.129,120.788,
00:00:02:566,0.954,-0.269,0.138,581.97,-41.504,121.093,
00:00:02:583,0.974,-0.293,0.145,577.453,-29.725,127.441,
00:00:02:600,1.001,-0.321,0.156,572.387,-18.433,135.192,
00:00:02:616,1.009,-0.338,0.163,572.509,-21.546,135.07,
00:00:02:633,0.995,-0.347,0.174,584.961,-30.64,127.197,
00:00:02:650,0.953,-0.366,0.167,608.52,-55.664,55.969,
00:00:02:666,0.939,-0.395,0.164,606.506,-78.431,11.474,
00:00:02:683,0.93,-0.415,0.161,588.745,-98.755,-22.217,
00:00:02:700,0.92,-0.416,0.166,566.162,-118.103,-46.143,
00:00:02:716,0.916,-0.411,0.156,549.072,-123.169,-69.764,
00:00:02:733,0.916,-0.412,0.15,529.602,-121.521,-91.98,
00:00:02:750,0.911,-0.414,0.138,500.732,-119.141,-108.399,
00:00:02:766,0.884,-0.408,0.139,456.726,-121.094,-122.864,
00:00:02:783,0.851,-0.394,0.147,410.644,-110.657,-135.01,
00:00:02:800,0.823,-0.382,0.144,363.769,-91.797,-139.222,
00:00:02:816,0.814,-0.373,0.143,317.199,-72.815,-140.87,
00:00:02:833,0.82,-0.371,0.129,273.376,-61.829,-127.869,
00:00:02:850,0.841,-0.364,0.116,229.675,-46.57,-102.173,
00:00:02:866,0.873,-0.354,0.09,194.397,-41.565,-71.961,
00:00:02:883,0.913,-0.339,0.064,179.565,-34.241,-34.79,
00:00:02:900,0.96,-0.329,0.03,189.514,-27.771,-3.418,
00:00:02:916,0.988,-0.323,-0.014,220.825,-37.232,16.174,
00:00:02:933,0.994,-0.323,-0.047,266.601,-50.843,27.526,
00:00:02:950,0.971,-0.328,-0.062,326.233,-65.064,20.69,
00:00:02:966,0.928,-0.335,-0.069,375.549,-74.524,5.065,
00:00:02:983,0.88,-0.334,-0.073,398.01,-61.951,-22.889,
00:00:03:0,0.852,-0.323,-0.091,403.991,-36.805,-59.266,
00:00:03:16,0.854,-0.307,-0.108,408.508,-8.423,-91.126,
00:00:03:33,0.866,-0.288,-0.131,414.001,5.859,-122.742,
00:00:03:50,0.878,-0.276,-0.146,430.786,23.498,-138.977,
00:00:03:66,0.88,-0.268,-0.176,456.421,38.024,-140.625,
00:00:03:83,0.876,-0.248,-0.201,487.243,50.964,-131.043,
00:00:03:100,0.887,-0.217,-0.237,522.949,86.547,-109.192,
00:00:03:116,0.945,-0.181,-0.275,589.477,127.38,-77.759,
00:00:03:133,0.95,-0.182,-0.263,943.176,203.43,50.415,
00:00:03:150,0.9,-0.157,-0.224,1040.039,270.263,110.107,
00:00:03:166,0.862,-0.121,-0.156,1115.173,352.295,166.32,
00:00:03:183,0.863,-0.195,-0.064,1144.714,468.689,244.018,
00:00:03:200,0.92,-0.348,-0.062,1114.624,585.815,306.03,
00:00:03:216,1.006,-0.579,-0.023,892.089,645.202,417.724,
00:00:03:233,1.075,-0.82,0.029,527.038,672.424,554.26,
00:00:03:250,1.102,-0.974,0.089,74.89,695.739,688.293,
00:00:03:266,1.094,-1.019,0.158,-350.708,726.745,767.883,
00:00:03:283,1.134,-1.056,0.281,-685.364,783.325,761.413,
00:00:03:300,1.251,-1.169,0.692,-858.765,775.634,660.278,
00:00:03:316,1.276,-1.316,1.011,-1155.03,830.383,563.537,
00:00:03:333,1.311,-1.426,1.322,-1406.678,814.27,423.339,
00:00:03:350,1.429,-1.51,1.362,-1593.75,817.199,277.588,
00:00:03:366,1.79,-1.467,1.237,-1734.559,710.815,173.278,
00:00:03:383,2.433,-1.42,1.23,-1777.283,313.049,7.385,
00:00:03:400,3.188,-1.446,0.974,-1594.117,-279.725,-238.77,
00:00:03:416,3.705,-1.13,0.626,-1251.832,-1214.417,-597.535,
00:00:03:433,3.916,-1.15,0.122,-672.425,-2000,-1259.034,
00:00:03:450,3.999,-1.338,-0.571,-30.945,-2000,-2000,
00:00:03:466,3.999,-1.578,-1.499,541.32,-2000,-2000,
00:00:03:483,3.999,-1.795,-1.827,990.051,-2000,-2000,
00:00:03:500,3.892,-2.25,-1.378,1136.718,-2000,-2000,
00:00:03:516,3.441,-2.238,-0.012,755.31,-2000,-2000,
00:00:03:533,3.999,-2.229,-0.255,473.144,-2000,-2000,
00:00:03:550,3.999,-1.69,-0.477,207.702,-2000,-2000,
00:00:03:566,3.999,-0.959,-1.145,-176.758,-1293.763,-2000,
00:00:03:583,3.94,-0.621,-1.735,-632.508,-808.106,-2000,
00:00:03:600,3.593,-0.303,-1.829,-999.207,-471.924,-2000,
00:00:03:616,3.435,0.234,-1.763,-1127.991,-287.537,-2000,
00:00:03:633,3.221,0.717,-1.657,-1184.815,-177.124,-2000,
00:00:03:650,2.956,1.554,-1.216,-1172.974,202.148,-2000,
00:00:03:666,2.26,2.655,-0.581,-1458.069,566.528,-2000,
00:00:03:683,1.894,3.901,-0.272,-2000,613.22,-2000,
00:00:03:700,1.302,3.999,-0.049,-2000,1213.623,285.644,
00:00:03:716,0.955,3.999,-0.117,-704.163,1449.035,1999.694,
00:00:03:733,1.192,2.848,-0.21,1698.669,1793.823,1999.694,
00:00:03:750,1.711,2.813,-0.959,1999.694,1687.988,1999.694,
00:00:03:766,2.14,2.487,-1.38,1999.694,1374.45,1999.694,
00:00:03:783,3.26,2.153,-1.525,1999.694,492.553,1999.694,
00:00:03:800,3.398,0.699,-1.871,1999.694,-703.675,1999.694,
00:00:03:816,3.191,-0.297,-1.695,1999.694,-1747.254,1999.694,
00:00:03:833,3.236,-0.947,-1.64,1999.694,-2000,1999.694,
00:00:03:850,3.999,-2.206,-2.353,920.41,-2000,1999.694,
00:00:03:866,3.999,-4,-2.464,-268.738,-2000,1999.694,
00:00:03:883,1.889,-3.501,-0.074,-673.462,-1043.519,1999.694,
00:00:03:900,2.154,-1.398,-0.645,-2000,425.171,1999.694,
00:00:03:916,3.901,-0.032,-0.884,-2000,1976.318,1999.694,
00:00:03:933,3.999,-0.458,-1.045,-2000,1999.694,1999.694,
00:00:03:950,3.999,-1.985,-0.379,-2000,1999.694,1999.694,
00:00:03:966,3.999,-3.565,-0.372,-2000,1999.694,1999.694,
00:00:03:983,2.757,-3.47,0.284,-2000,1999.694,1999.694,
00:00:04:0,1.862,-2.105,-1.214,-2000,1999.694,1750.183,
00:00:04:16,2.936,0.091,-1.661,-2000,1999.694,545.654,
00:00:04:33,3.607,2.902,-0.639,-2000,1028.747,-253.968,
00:00:04:50,1.652,1.37,0.578,263.855,230.896,-1555.604,
00:00:04:66,1.34,0.43,0.654,1108.947,944.152,-1462.586,
00:00:04:83,1.765,-0.084,0.578,1219.97,1000.183,-1445.923,
00:00:04:100,1.772,-0.282,0.579,1211.792,322.57,-1434.082,
00:00:04:116,1.375,-0.409,0.741,1024.109,-124.329,-1251.16,
00:00:04:133,1.135,-0.436,0.821,787.536,-216.614,-952.576,
00:00:04:150,1.151,0.046,1.042,520.996,-251.709,-359.314,
00:00:04:166,0.971,0.198,0.929,343.872,-515.503,458.13,
00:00:04:183,0.736,-0.37,0.801,-122.193,-294.678,307.251,
00:00:04:200,0.626,-0.862,0.674,-1007.142,-163.575,319.702,
00:00:04:216,0.743,-0.719,0.499,-1836.67,113.342,658.874,
00:00:04:233,0.899,-0.197,0.41,-2000,135.437,896.789,
00:00:04:250,0.975,0.338,0.525,-1883.362,-81.238,1113.098,
00:00:04:266,1.037,0.444,0.578,-1206.604,-89.661,1045.532,
00:00:04:283,1.201,0.093,0.447,-632.019,-43.091,1005.432,
00:00:04:300,1.497,-0.283,0.27,-395.508,-137.269,1123.962,
00:00:04:316,1.805,-0.388,0.074,-252.991,-424.5,1311.645,
00:00:04:333,1.928,-0.307,-0.047,-38.269,-830.567,1312.072,
00:00:04:350,1.928,-0.279,-0.07,245.971,-1155.884,1156.433,
00:00:04:366,1.898,-0.365,-0.138,537.353,-1403.382,1020.08,
00:00:04:383,1.923,-0.48,-0.235,715.759,-1625.428,839.477,
00:00:04:400,1.91,-0.616,-0.283,784.362,-1893.86,656.677,
00:00:04:416,1.848,-0.696,-0.248,751.587,-2000,474.06,
00:00:04:433,1.861,-0.62,-0.16,707.641,-2000,267.761,
00:00:04:450,1.829,-0.441,-0.248,811.645,-2000,22.155,
00:00:04:466,1.668,-0.307,-0.29,1123.413,-2000,-258.179,
00:00:04:483,1.444,-0.258,-0.251,1478.881,-2000,-599.244,
00:00:04:500,1.259,-0.313,-0.219,1731.994,-1888.001,-920.35,
00:00:04:516,1.163,-0.387,-0.19,1833.923,-1669.068,-1175.904,
00:00:04:533,1.104,-0.446,-0.194,1796.692,-1419.678,-1366.333,
00:00:04:550,1.018,-0.483,-0.251,1652.465,-1182.923,-1501.709,
00:00:04:566,0.978,-0.526,-0.275,1433.96,-970.643,-1567.811,
00:00:04:583,0.957,-0.582,-0.31,1129.089,-763.916,-1536.5,
00:00:04:600,0.926,-0.605,-0.297,760.192,-634.461,-1477.051,
00:00:04:616,0.882,-0.608,-0.225,350.219,-518.86,-1362.916,
00:00:04:633,0.828,-0.587,-0.176,-76.844,-406.556,-1220.337,
00:00:04:650,0.764,-0.529,-0.2,-457.337,-306.641,-1076.416,
00:00:04:666,0.713,-0.443,-0.232,-745.606,-245.423,-941.529,
00:00:04:683,0.676,-0.364,-0.209,-900.269,-205.14,-806.336,
00:00:04:700,0.618,-0.306,-0.159,-968.445,-149.048,-689.087,
00:00:04:716,0.54,-0.271,-0.093,-973.694,-74.952,-599.793,
00:00:04:733,0.486,-0.234,-0.019,-940.247,40.649,-517.334,walkLH
00:00:04:750,0.442,-0.201,0.01,-889.649,157.714,-451.172,
00:00:04:766,0.428,-0.173,0.038,-791.199,295.715,-402.283,
00:00:04:783,0.428,-0.162,0.051,-671.509,432.495,-357.239,
00:00:04:800,0.441,-0.166,0.078,-548.645,553.405,-305.787,
00:00:04:816,0.457,-0.192,0.099,-461.182,670.044,-242.31,
00:00:04:833,0.473,-0.228,0.091,-412.964,788.147,-162.842,
00:00:04:850,0.501,-0.255,0.104,-388.855,898.193,-78.064,
00:00:04:866,0.553,-0.278,0.144,-407.532,1008.789,16.052,
00:00:04:883,0.62,-0.308,0.123,-454.773,1128.723,120.544,
00:00:04:900,0.705,-0.327,0.08,-483.521,1238.83,210.815,
00:00:04:916,0.788,-0.315,0.065,-446.595,1325.683,293.518,
00:00:04:933,0.826,-0.294,0.05,-380.494,1362.915,349.06,
00:00:04:950,0.854,-0.305,0.181,-273.316,1399.231,379.394,
00:00:04:966,0.928,-0.355,0.389,-247.925,1495.3,420.044,
00:00:04:983,0.963,-0.446,0.412,-336.853,1649.475,444.58,
00:00:05:0,1.023,-0.497,0.362,-463.99,1765.136,430.175,
00:00:05:16,1.081,-0.509,0.256,-627.93,1833.435,411.621,
00:00:05:33,1.179,-0.504,0.272,-813.233,1821.045,380.188,
00:00:05:50,1.283,-0.535,0.337,-1083.436,1784.851,331.726,
00:00:05:66,1.3,-0.525,0.243,-1363.221,1695.678,234.253,
00:00:05:83,1.296,-0.399,0.171,-1565.857,1482.544,116.638,
00:00:05:100,1.282,-0.222,0.146,-1641.602,1267.273,-18.433,
00:00:05:116,1.37,-0.09,0.231,-1600.525,1129.333,-128.602,
00:00:05:133,1.573,-0.012,0.247,-1513.978,1005.432,-201.05,
00:00:05:150,1.736,0.14,0.162,-1318.238,695.312,-290.162,
00:00:05:166,1.687,0.29,0.252,-1035.401,242.614,-398.865,
00:00:05:183,1.625,0.274,0.441,-777.466,-100.098,-485.962,
00:00:05:200,1.581,0.216,0.613,-598.999,-413.147,-361.878,
00:00:05:216,1.491,0.33,0.753,-541.077,-694.825,-210.816,
00:00:05:233,1.248,0.362,0.726,-480.957,-698.853,-282.166,
00:00:05:250,1.02,0.26,0.58,-460.389,-565.247,-384.217,
00:00:05:266,0.9,0.164,0.463,-462.769,-479.126,-356.446,
00:00:05:283,0.873,0.156,0.359,-376.831,-421.875,-285.218,
00:00:05:300,0.893,0.164,0.26,-202.515,-427.735,-270.691,
00:00:05:316,0.894,0.09,0.205,36.315,-506.409,-312.867,
00:00:05:333,0.873,-0.006,0.166,302.856,-570.435,-292.725,
00:00:05:350,0.868,-0.105,0.116,510.803,-594.605,-230.591,
00:00:05:366,0.878,-0.206,0.05,590.026,-619.141,-146.973,
00:00:05:383,0.877,-0.282,0.003,568.908,-677.979,-80.567,
00:00:05:400,0.829,-0.335,0.002,496.46,-744.812,-8.606,
00:00:05:416,0.741,-0.349,0.037,411.01,-755.31,69.58,
00:00:05:433,0.659,-0.343,0.063,308.105,-683.838,138.366,
00:00:05:450,0.616,-0.348,0.082,216.674,-573.853,189.27,
00:00:05:466,0.605,-0.339,0.087,140.258,-450.196,234.069,
00:00:05:483,0.608,-0.332,0.085,73.059,-342.652,264.221,
00:00:05:500,0.599,-0.329,0.089,25.024,-229.615,285.339,
00:00:05:516,0.593,-0.342,0.097,-6.287,-102.906,303.711,
00:00:05:533,0.597,-0.353,0.101,-23.072,25.39,320.434,
00:00:05:550,0.647,-0.375,0.094,-37.049,164.245,325.012,
00:00:05:566,0.702,-0.39,0.058,-47.242,287.902,331.604,
00:00:05:583,0.765,-0.409,0.013,-52.735,384.277,333.374,
00:00:05:600,0.818,-0.444,0.007,-59.388,456.848,327.942,
00:00:05:616,0.842,-0.493,0.02,-100.586,516.418,318.237,
00:00:05:633,0.873,-0.551,0.046,-162.415,592.285,304.443,
00:00:05:650,0.957,-0.625,0.088,-233.277,688.049,285.156,
00:00:05:666,1.072,-0.606,0.079,-314.087,799.255,255.432,
00:00:05:683,1.197,-0.604,0.061,-383.545,869.323,202.453,
00:00:05:700,1.307,-0.604,0.062,-460.267,919.494,148.742,
00:00:05:716,1.425,-0.615,0.05,-567.444,998.474,111.084,
00:00:05:733,1.543,-0.647,0.053,-689.942,1044.433,68.603,
00:00:05:750,1.561,-0.702,0.138,-842.347,1015.136,22.338,
00:00:05:766,1.44,-0.743,0.305,-1030.762,951.11,-19.776,
00:00:05:783,1.262,-0.745,0.439,-1259.156,911.132,-73.731,
00:00:05:800,1.134,-0.665,0.456,-1494.874,881.286,-138.062,
00:00:05:816,1.071,-0.506,0.321,-1652.283,825.805,-225.647,
00:00:05:833,1.104,-0.307,0.2,-1631.348,670.288,-312.684,
00:00:05:850,1.172,-0.181,0.17,-1434.51,465.881,-369.202,
00:00:05:866,1.23,-0.14,0.136,-1098.999,242.492,-421.265,
00:00:05:883,1.289,-0.162,0.079,-773.316,9.033,-451.539,
00:00:05:900,1.308,-0.2,0.042,-546.814,-267.334,-459.717,
00:00:05:916,1.26,-0.237,0.019,-361.695,-542.847,-463.562,
00:00:05:933,1.145,-0.24,-0.005,-257.996,-822.022,-493.958,
00:00:05:950,1.041,-0.237,0.023,-144.104,-998.597,-524.476,
00:00:05:966,0.961,-0.252,0.048,-66.773,-1106.324,-553.406,
00:00:05:983,0.92,-0.269,0.039,-11.048,-1171.753,-589.722,
00:00:06:0,0.888,-0.281,0.039,27.282,-1209.351,-618.653,
00:00:06:16,0.84,-0.271,0.016,71.289,-1232.117,-631.043,
00:00:06:33,0.776,-0.266,0.04,139.709,-1252.625,-636.231,
00:00:06:50,0.703,-0.256,0.068,243.835,-1186.341,-645.386,
00:00:06:66,0.661,-0.302,0.086,350.586,-1084.351,-655.274,
00:00:06:83,0.657,-0.363,0.094,416.076,-951.05,-625.672,
00:00:06:100,0.694,-0.437,0.064,442.566,-805.481,-579.041,
00:00:06:116,0.728,-0.495,0.057,408.569,-679.2,-494.324,
00:00:06:133,0.732,-0.509,0.02,342.285,-578.675,-386.475,
00:00:06:150,0.697,-0.49,-0.016,261.352,-491.517,-272.4,
00:00:06:166,0.65,-0.45,-0.041,181.152,-408.448,-172.364,
00:00:06:183,0.616,-0.407,-0.069,102.539,-325.501,-92.957,
00:00:06:200,0.603,-0.384,-0.081,28.198,-253.418,-30.579,
00:00:06:216,0.616,-0.373,-0.069,-34.424,-172.73,19.653,
00:00:06:233,0.639,-0.369,-0.062,-93.201,-90.088,68.786,
00:00:06:250,0.707,-0.375,-0.047,-142.334,8.178,130.554,
00:00:06:266,0.829,-0.381,-0.061,-203.003,136.596,219.909,
00:00:06:283,0.984,-0.391,-0.093,-241.517,253.601,317.932,
00:00:06:300,1.119,-0.387,-0.125,-248.597,349.487,425.537,
00:00:06:316,1.203,-0.384,-0.121,-243.409,447.204,546.386,
00:00:06:333,1.229,-0.405,-0.037,-225.342,565.857,640.442,
00:00:06:350,1.187,-0.454,0.051,-217.652,695.007,723.205,
00:00:06:366,1.095,-0.485,0.155,-247.193,823.974,751.098,
00:00:06:383,0.999,-0.495,0.239,-320.069,963.989,756.103,
00:00:06:400,0.895,-0.474,0.239,-401.551,1089.355,701.11,
00:00:06:416,0.825,-0.395,0.201,-448.548,1146.24,595.825,
00:00:06:433,0.818,-0.313,0.161,-485.108,1190.918,475.952,
00:00:06:450,0.857,-0.256,0.14,-516.48,1216.797,349.914,
00:00:06:466,0.941,-0.242,0.162,-572.693,1193.969,229.797,
00:00:06:483,1.005,-0.248,0.139,-655.457,1139.831,133.606,
00:00:06:500,1.046,-0.223,0.085,-704.712,1029.724,58.593,
00:00:06:516,1.067,-0.149,0.039,-685.12,863.342,8.422,
00:00:06:533,1.056,-0.078,0.003,-532.471,655.944,-34.729,
00:00:06:550,1.017,-0.053,0.005,-285.95,446.777,-66.529,
00:00:06:566,0.971,-0.065,0.07,-25.025,291.687,-75.745,
00:00:06:583,0.96,-0.098,0.154,173.156,204.589,-76.905,
00:00:06:600,0.966,-0.121,0.209,297.18,143.127,-88.257,
00:00:06:616,1.002,-0.074,0.337,356.201,-0.428,-112.183,
00:00:06:633,1.022,-0.137,0.432,493.164,-150.147,-242.798,
00:00:06:650,0.963,-0.243,0.546,568.542,-234.62,-239.991,
00:00:06:666,0.881,-0.315,0.594,608.459,-146.546,-241.944,
00:00:06:683,0.826,-0.439,0.536,515.197,-39.612,-289.795,
00:00:06:700,0.805,-0.592,0.494,374.511,40.1,-210.633,
00:00:06:716,0.781,-0.543,0.435,147.033,111.267,0.061,
00:00:06:733,0.748,-0.426,0.359,-100.831,199.218,117.675,
00:00:06:750,0.848,-0.301,0.276,-342.164,365.539,198.364,
00:00:06:766,0.904,-0.25,0.202,-315.491,305.969,198.73,
00:00:06:783,0.881,-0.199,0.147,-234.559,216.797,187.927,
00:00:06:800,0.881,-0.205,0.11,-109.925,132.324,173.95,
00:00:06:816,1.149,-0.348,0.045,166.32,9.338,206.176,
00:00:06:833,1.352,-0.401,0.043,203.308,-38.941,231.933,
00:00:06:850,1.581,-0.478,0.039,208.74,-87.281,266.784,
00:00:06:866,1.777,-0.591,0.064,177.612,-163.819,306.579,
00:00:06:883,1.844,-0.722,0.142,83.679,-228.76,354.126,
00:00:06:900,1.696,-0.799,0.238,-54.505,-258.362,380.066,
00:00:06:916,1.461,-0.775,0.354,-219.971,-265.015,356.506,
00:00:06:933,1.261,-0.715,0.365,-386.414,-206.482,255.066,
00:00:06:950,1.146,-0.578,0.222,-515.015,-160.401,137.207,
00:00:06:966,1.121,-0.361,0.088,-613.709,-192.872,15.991,
00:00:06:983,1.182,-0.18,0.009,-595.948,-243.409,-148.804,
00:00:07:0,1.256,-0.088,-0.09,-441.224,-360.352,-344.483,
00:00:07:16,1.252,-0.104,-0.134,-235.962,-590.76,-513.062,
00:00:07:33,0.994,-0.216,-0.082,72.082,-981.629,-719.666,
00:00:07:50,0.888,-0.242,-0.042,156.128,-1077.82,-759.339,
00:00:07:66,0.826,-0.271,-0.026,264.526,-1122.925,-793.885,
00:00:07:83,0.799,-0.307,-0.014,341.308,-1155.762,-817.566,
00:00:07:100,0.772,-0.324,-0.009,407.592,-1174.134,-828.614,
00:00:07:116,0.727,-0.329,-0.02,450.439,-1160.34,-828.553,
00:00:07:133,0.674,-0.323,-0.026,470.825,-1130.188,-816.59,
00:00:07:150,0.617,-0.324,-0.006,469.543,-1070.13,-790.406,
00:00:07:166,0.577,-0.343,0.006,460.876,-968.628,-738.343,
00:00:07:183,0.562,-0.363,0.046,420.044,-859.07,-653.626,
00:00:07:200,0.555,-0.389,0.045,343.811,-750.367,-579.407,
00:00:07:216,0.549,-0.392,0.016,271.179,-637.94,-503.907,
00:00:07:233,0.551,-0.371,-0.002,224.609,-534.852,-404.725,
00:00:07:250,0.555,-0.351,-0.002,230.651,-434.082,-322.998,
00:00:07:266,0.567,-0.354,0.052,263.61,-350.159,-242.798,
00:00:07:283,0.579,-0.374,0.08,275.634,-232.789,-164.673,
00:00:07:300,0.588,-0.388,0.063,257.324,-124.146,-98.633,
00:00:07:316,0.581,-0.389,0.043,216.98,-45.838,-41.871,
00:00:07:333,0.578,-0.388,0.035,175.109,35.095,16.662,
00:00:07:350,0.905,-0.445,0.027,-86.121,370.788,287.597,
00:00:07:366,1.037,-0.438,0.016,-166.138,443.298,423.278,
00:00:07:383,1.087,-0.429,0.052,-217.408,518.859,566.345,
00:00:07:400,1.1,-0.454,0.064,-265.748,647.033,711.12,
00:00:07:416,1.159,-0.501,0.078,-312.867,784.118,831.115,
00:00:07:433,1.137,-0.541,0.127,-349.915,857.36,914.795,
00:00:07:450,1.022,-0.54,0.247,-416.565,931.945,947.204,
00:00:07:466,0.874,-0.501,0.29,-528.748,1050.903,904.113,
00:00:07:483,0.785,-0.417,0.253,-596.131,1171.203,783.63,
00:00:07:500,0.775,-0.267,0.184,-587.403,1252.319,622.985,
00:00:07:516,0.841,-0.148,0.127,-547.791,1306.762,496.093,
00:00:07:533,0.934,-0.106,0.054,-483.887,1300.903,335.998,
00:00:07:550,1.027,-0.149,0.052,-442.322,1230.102,194.885,
00:00:07:566,1.119,-0.211,0.108,-445.496,1128.173,121.948,
00:00:07:583,1.165,-0.238,0.092,-460.511,1024.353,72.204,
00:00:07:600,1.154,-0.211,0.064,-431.763,843.322,46.02,
00:00:07:616,1.07,-0.175,0.074,-310.242,625.915,18.615,
00:00:07:633,0.967,-0.166,0.103,-126.526,472.046,-4.273,
00:00:07:650,0.887,-0.183,0.146,53.161,390.075,-9.339,
00:00:07:666,0.875,-0.216,0.205,164.978,376.342,6.164,
00:00:07:683,0.924,-0.251,0.258,176.513,377.807,1.892,
00:00:07:700,0.966,-0.286,0.314,122.924,355.224,-25.452,
00:00:07:716,0.972,-0.286,0.367,33.996,342.895,-36.744,
00:00:07:733,0.949,-0.252,0.375,-33.265,343.505,-54.688,
00:00:07:750,0.925,-0.23,0.361,-38.392,333.557,-80.323,
00:00:07:766,0.925,-0.224,0.358,-6.531,311.95,-79.163,
00:00:07:783,0.94,-0.235,0.352,0.671,291.687,-65.491,
00:00:07:800,0.96,-0.266,0.339,-43.946,270.019,-56.031,
00:00:07:816,0.979,-0.301,0.33,-124.939,252.38,-32.776,
00:00:07:833,1,-0.294,0.323,-146.119,218.75,-21.119,
00:00:07:850,1.017,-0.278,0.28,-106.446,187.439,-30.03,
00:00:07:866,1.03,-0.29,0.228,-44.556,139.221,-57.679,
00:00:07:883,1.027,-0.32,0.174,26.306,77.209,-85.511,
00:00:07:900,1.013,-0.357,0.13,78.979,22.216,-84.229,
00:00:07:916,1.035,-0.381,0.093,78.369,7.812,-47.12,
00:00:07:933,1.181,-0.411,0.092,38.086,35.949,10.009,
00:00:07:950,1.385,-0.453,0.08,-15.686,85.327,91.064,
00:00:07:966,1.67,-0.559,0.014,-74.219,71.289,171.875,
00:00:07:983,1.859,-0.644,-0.027,-142.518,-38.086,277.771,
00:00:08:0,1.785,-0.74,0.018,-223.999,-204.407,363.464,
00:00:08:16,1.291,-0.639,0.185,-533.02,-350.586,416.015,
00:00:08:33,1.191,-0.5,0.126,-646.668,-335.755,346.252,
00:00:08:50,1.212,-0.347,0.044,-687.073,-331.482,243.957,
00:00:08:66,1.281,-0.189,-0.077,-670.777,-430.176,134.155,
00:00:08:83,1.292,-0.1,-0.142,-551.026,-615.845,-4.761,
00:00:08:100,1.234,-0.103,-0.125,-352.723,-808.472,-139.405,
00:00:08:116,1.142,-0.163,-0.065,-162.232,-970.582,-227.539,
00:00:08:133,1.095,-0.207,0.002,-15.931,-1061.463,-281.678,
00:00:08:150,1.051,-0.199,-0.054,120.422,-1130.738,-342.164,
00:00:08:166,0.982,-0.185,-0.098,301.33,-1258.545,-421.143,
00:00:08:183,0.879,-0.196,-0.116,502.868,-1343.14,-499.695,
00:00:08:200,0.786,-0.226,-0.136,677.978,-1362.732,-571.534,
00:00:08:216,0.724,-0.275,-0.137,787.414,-1348.45,-624.329,
00:00:08:233,0.698,-0.325,-0.115,858.825,-1301.88,-669.312,
00:00:08:250,0.685,-0.356,-0.109,834.35,-1227.723,-708.558,
00:00:08:266,0.674,-0.372,-0.112,769.226,-1143.25,-710.45,
00:00:08:283,0.643,-0.375,-0.109,684.265,-1063.965,-679.383,
00:00:08:300,0.614,-0.389,-0.084,588.195,-970.032,-635.621,
00:00:08:316,0.604,-0.406,-0.069,491.394,-848.694,-569.581,
00:00:08:333,0.607,-0.419,-0.082,383.178,-737.305,-500.061,
00:00:08:350,0.613,-0.415,-0.077,270.874,-633.606,-413.147,
00:00:08:366,0.599,-0.387,-0.064,176.635,-521.912,-323.06,
00:00:08:383,0.598,-0.363,-0.033,115.539,-402.161,-240.906,
00:00:08:400,0.609,-0.348,-0.023,74.462,-265.015,-148.377,
00:00:08:416,0.691,-0.326,-0.047,29.48,-5.494,9.399,
00:00:08:433,0.736,-0.33,-0.064,18.859,106.689,90.82,
00:00:08:450,0.818,-0.344,-0.077,-2.32,237.609,182.861,
00:00:08:466,0.928,-0.361,-0.099,-26.185,364.135,290.161,
00:00:08:483,1.048,-0.365,-0.105,-52.308,485.168,417.907,
00:00:08:500,1.166,-0.375,-0.078,-63.05,615.539,545.654,
00:00:08:516,1.22,-0.411,-0.029,-60.975,766.235,658.569,
00:00:08:533,1.171,-0.478,0.053,-70.74,899.658,734.558,
00:00:08:550,1.052,-0.549,0.21,-156.495,1017.578,771.179,
00:00:08:566,0.939,-0.596,0.334,-347.29,1189.819,769.714,
00:00:08:583,0.883,-0.597,0.35,-615.54,1367.248,714.965,
00:00:08:600,0.871,-0.515,0.266,-899.109,1490.112,619.14,
00:00:08:616,0.907,-0.379,0.143,-1152.955,1542.541,503.54,
00:00:08:633,1.027,-0.295,0.084,-1303.65,1524.902,380.31,
00:00:08:650,1.185,-0.276,0.045,-1278.565,1381.775,276.306,
00:00:08:666,1.274,-0.183,0.03,-1189.698,1112.854,257.324,
00:00:08:683,1.204,0.071,0,-994.629,778.381,227.417,
00:00:08:700,1.061,0.326,0.06,-651.795,452.575,162.109,
00:00:08:716,0.892,0.411,0.135,-173.768,265.564,37.17,
00:00:08:733,0.792,0.32,0.172,284.24,208.252,-79.041,
00:00:08:750,0.811,0.169,0.213,573.364,212.829,-168.457,walkLH
00:00:08:766,0.893,-0.009,0.215,715.026,203.491,-240.54,
00:00:08:783,0.971,-0.061,0.269,739.074,89.416,-246.338,
00:00:08:800,0.979,-0.171,0.346,681.762,16.723,-282.837,
00:00:08:816,0.976,-0.307,0.474,628.784,-11.963,-273.377,
00:00:08:833,0.944,-0.382,0.528,485.168,83.496,-201.172,
00:00:08:850,0.899,-0.468,0.534,265.136,188.415,-151.856,
00:00:08:866,0.861,-0.506,0.524,65.734,284.362,-89.661,
00:00:08:883,0.827,-0.45,0.438,-85.633,361.389,-13.855,
00:00:08:900,0.812,-0.332,0.366,-162.781,378.662,44.738,
00:00:08:916,0.805,-0.253,0.326,-166.565,376.892,71.838,
00:00:08:933,0.806,-0.252,0.305,-99.976,361.45,86.608,
00:00:08:950,0.837,-0.287,0.291,-54.81,362.854,113.22,
00:00:08:966,0.904,-0.344,0.23,-36.805,374.633,145.202,
00:00:08:983,0.989,-0.363,0.161,-40.223,346.618,191.589,
00:00:09:0,1.056,-0.363,0.115,-25.452,254.394,224.975,
00:00:09:16,1.099,-0.364,0.107,13.122,171.569,251.953,
00:00:09:33,1.18,-0.387,0.117,61.035,133.361,285.278,
00:00:09:50,1.462,-0.454,0.115,91.857,63.415,307.617,
00:00:09:66,1.575,-0.513,0.107,69.519,6.286,307.495,
00:00:09:83,1.608,-0.588,0.132,-4.7,-65.125,307.983,
00:00:09:100,1.579,-0.655,0.24,-164.551,-112.122,306.762,
00:00:09:116,1.499,-0.644,0.292,-371.216,-121.033,288.086,
00:00:09:133,1.369,-0.549,0.248,-569.092,-157.349,244.384,
00:00:09:150,1.28,-0.378,0.16,-664.917,-222.229,166.259,
00:00:09:166,1.242,-0.221,0.062,-658.814,-308.533,85.754,
00:00:09:183,1.243,-0.134,-0.038,-544.678,-435.669,-27.161,
00:00:09:200,1.251,-0.096,-0.096,-365.296,-593.873,-110.84,
00:00:09:216,1.258,-0.124,-0.081,-190.918,-761.658,-192.2,
00:00:09:233,1.235,-0.184,-0.083,-63.599,-906.128,-246.46,
00:00:09:250,1.151,-0.188,-0.036,35.644,-1069.581,-296.387,
00:00:09:266,1.058,-0.199,0,132.263,-1171.082,-350.647,
00:00:09:283,0.987,-0.218,-0.003,256.103,-1193.482,-414.063,
00:00:09:300,0.932,-0.232,-0.025,398.315,-1218.14,-475.953,
00:00:09:316,0.872,-0.242,-0.046,529.174,-1232.3,-541.321,
00:00:09:333,0.818,-0.255,-0.051,633.545,-1217.286,-608.216,
00:00:09:350,0.769,-0.261,-0.073,709.472,-1166.443,-663.331,
00:00:09:366,0.725,-0.267,-0.091,757.019,-1114.136,-706.299,
00:00:09:383,0.68,-0.283,-0.082,772.033,-1050.477,-737.488,
00:00:09:400,0.635,-0.307,-0.067,746.582,-955.933,-750.061,
00:00:09:416,0.604,-0.343,-0.047,669.067,-853.882,-726.685,
00:00:09:433,0.598,-0.381,0.005,568.237,-756.531,-678.772,
00:00:09:450,0.603,-0.42,0.02,436.645,-638.367,-606.69,
00:00:09:466,0.623,-0.43,0.015,313.842,-537.171,-535.767,
00:00:09:483,0.63,-0.413,0,206.298,-467.713,-449.158,
00:00:09:500,0.609,-0.367,-0.011,141.479,-402.405,-366.761,
00:00:09:516,0.582,-0.321,0.001,116.15,-345.459,-283.081,
00:00:09:533,0.586,-0.293,0.017,123.535,-259.644,-247.803,
00:00:09:550,0.626,-0.288,0.026,138.549,-165.406,-202.942,
00:00:09:566,0.673,-0.293,0.024,148.681,-89.417,-147.828,
00:00:09:583,0.725,-0.312,0.013,137.756,-2.564,-64.515,
00:00:09:600,0.807,-0.329,0.004,119.262,108.764,55.175,
00:00:09:616,0.92,-0.343,-0.008,111.694,224.365,198.852,
00:00:09:633,1.052,-0.36,-0.008,111.755,339.294,370.056,
00:00:09:650,1.176,-0.398,0.038,128.723,463.134,529.235,
00:00:09:666,1.225,-0.458,0.096,136.718,588.928,685.669,
00:00:09:683,1.125,-0.515,0.149,96.74,702.453,789.917,
00:00:09:700,0.992,-0.54,0.266,15.502,808.227,850.158,
00:00:09:716,0.884,-0.539,0.337,-157.532,961.792,866.15,
00:00:09:733,0.828,-0.512,0.311,-363.526,1116.76,814.087,
00:00:09:750,0.817,-0.42,0.226,-556.58,1226.135,736.572,
00:00:09:766,0.932,-0.32,0.171,-732.972,1312.072,653.808,
00:00:09:783,1.019,-0.247,0.079,-849.06,1380.981,560.485,
00:00:09:800,1.141,-0.207,-0.001,-893.311,1329.956,450.744,
00:00:09:816,1.224,-0.172,0.031,-869.263,1152.832,357.177,
00:00:09:833,1.22,-0.138,0.098,-782.227,984.863,266.174,
00:00:09:850,1.149,-0.083,0.141,-619.873,804.199,215.515,
00:00:09:866,1.047,-0.039,0.159,-401.062,631.469,148.925,
00:00:09:883,0.95,-0.03,0.148,-136.963,505.798,97.717,
00:00:09:900,0.965,-0.176,0.276,323.242,239.441,-15.992,
00:00:09:916,0.949,-0.193,0.322,272.338,221.313,-50.843,
00:00:09:933,0.915,-0.252,0.348,235.107,237.976,-80.933,
00:00:09:950,0.881,-0.288,0.352,188.781,252.685,-59.998,
00:00:09:966,0.854,-0.298,0.342,142.944,271.057,-32.654,
00:00:09:983,0.842,-0.292,0.316,100.525,291.137,-11.353,
00:00:10:0,0.854,-0.27,0.271,48.461,297.912,15.136,
00:00:10:16,0.875,-0.255,0.236,3.112,287.353,36.254,
00:00:10:33,0.9,-0.247,0.222,-39.063,257.385,45.471,
00:00:10:50,0.911,-0.238,0.245,-57.312,200.012,52.551,
00:00:10:66,0.925,-0.239,0.274,-43.457,175.476,60.791,
00:00:10:83,0.96,-0.245,0.255,-24.414,166.504,67.138,
00:00:10:100,0.995,-0.257,0.232,-13.489,109.68,72.021,
00:00:10:116,1.021,-0.258,0.219,-1.221,80.688,79.773,
00:00:10:133,1.081,-0.251,0.193,31.738,60.546,100.158,
00:00:10:150,1.223,-0.248,0.16,89.66,55.236,124.694,
00:00:10:166,1.41,-0.26,0.126,161.132,4.516,135.376,
00:00:10:183,1.569,-0.301,0.069,229.309,-92.164,122.436,
00:00:10:200,1.658,-0.352,0.025,279.419,-216.187,116.211,
00:00:10:216,1.705,-0.404,0.012,290.405,-327.698,107.666,
00:00:10:233,1.697,-0.438,0.007,270.935,-438.172,74.218,
00:00:10:250,1.551,-0.431,0.035,229.492,-585.022,0.915,
00:00:10:266,1.335,-0.385,0.073,159.79,-685.608,-83.069,
00:00:10:283,1.174,-0.294,0.073,62.683,-708.985,-175.049,
00:00:10:300,1.127,-0.192,0.002,5.981,-701.539,-286.988,
00:00:10:316,1.194,-0.123,-0.094,11.169,-720.276,-382.447,
00:00:10:333,1.28,-0.113,-0.195,98.938,-816.712,-457.764,
00:00:10:350,1.295,-0.143,-0.224,222.046,-988.465,-507.813,
00:00:10:366,1.203,-0.171,-0.171,332.946,-1130.738,-536.133,
00:00:10:383,1.08,-0.209,-0.111,414.245,-1191.834,-543.885,
00:00:10:400,0.988,-0.245,-0.065,493.652,-1197.266,-537.171,
00:00:10:416,0.913,-0.263,-0.048,548.523,-1181.092,-528.504,
00:00:10:433,0.848,-0.265,-0.055,586.486,-1148.255,-522.156,
00:00:10:450,0.662,-0.25,-0.072,571.289,-1008.423,-479.493,
00:00:10:466,0.716,-0.297,0.022,497.985,-899.292,-436.28,
00:00:10:483,0.815,-0.336,-0.018,381.652,-737.244,-366.7,
00:00:10:500,0.9,-0.329,-0.079,271.911,-708.68,-292.908,
00:00:10:516,0.86,-0.29,-0.091,199.463,-708.008,-219.666,
00:00:10:533,0.765,-0.253,-0.068,173.706,-658.57,-142.456,
00:00:10:550,0.709,-0.233,-0.06,192.138,-572.266,-67.139,
00:00:10:566,0.701,-0.236,-0.027,240.478,-487.854,-12.207,
00:00:10:583,0.742,-0.249,0.017,284.057,-396.302,40.466,
00:00:10:600,0.787,-0.245,0.005,302.917,-291.199,97.351,
00:00:10:616,0.794,-0.213,-0.036,325.5,-234.375,147.216,
00:00:10:633,0.741,-0.198,-0.037,363.464,-208.069,188.415,
00:00:10:650,0.685,-0.223,-0.008,400.573,-156.373,241.638,
00:00:10:666,0.708,-0.293,0.089,396.301,-5.921,393.798,
00:00:10:683,0.776,-0.302,0.104,350.769,68.908,484.985,
00:00:10:700,0.852,-0.289,0.079,312.866,131.775,581.543,
00:00:10:716,0.917,-0.27,0.043,313.842,159.484,678.894,
00:00:10:733,0.966,-0.266,0.011,370.117,170.105,775.756,
00:00:10:750,1.03,-0.282,-0.02,474.243,189.087,868.286,
00:00:10:766,1.105,-0.296,-0.069,612.671,200.866,954.345,
00:00:10:783,1.152,-0.281,-0.09,774.109,174.011,1014.16,
00:00:10:800,1.165,-0.277,-0.071,957.397,161.56,1035.766,
00:00:10:816,1.184,-0.305,-0.04,1097.595,184.692,1044.922,
00:00:10:833,1.243,-0.366,-0.006,1195.922,228.698,1041.626,
00:00:10:850,1.306,-0.423,0.014,1229.98,284.423,1030.212,
00:00:10:866,1.309,-0.483,0.051,1183.838,325.866,1008.972,
00:00:10:883,1.266,-0.545,0.129,1048.401,380.737,973.083,
00:00:10:900,1.217,-0.588,0.232,815.979,472.717,943.908,
00:00:10:916,1.157,-0.587,0.242,514.648,574.951,899.17,
00:00:10:933,1.1,-0.513,0.183,267.273,626.587,827.575,
00:00:10:950,1.06,-0.398,0.121,85.266,615.783,735.595,
00:00:10:966,1.026,-0.295,0.053,19.287,571.777,613.281,
00:00:10:983,1.018,-0.216,-0.001,71.411,486.938,502.624,
00:00:11:0,1.03,-0.148,-0.025,220.337,377.746,410.095,
00:00:11:16,1.041,-0.115,-0.036,441.589,253.967,299.072,
00:00:11:33,1.05,-0.13,-0.04,690.918,127.258,195.373,
00:00:11:50,1.056,-0.178,-0.038,901.306,13.244,110.839,
00:00:11:66,1.041,-0.237,-0.027,1060.18,-100.586,36.132,
00:00:11:83,1.012,-0.278,0.019,1155.761,-191.834,-25.086,
00:00:11:100,0.978,-0.306,0.042,1195.312,-232.117,-84.595,
00:00:11:116,0.931,-0.321,0.023,1209.716,-253.357,-142.151,
00:00:11:133,0.88,-0.345,0.039,1197.509,-274.048,-189.209,
00:00:11:150,0.842,-0.375,0.092,1146.667,-268.067,-222.962,
00:00:11:166,0.83,-0.395,0.148,1052.063,-228.272,-239.38,
00:00:11:183,0.826,-0.372,0.143,946.96,-181.397,-252.869,
00:00:11:200,0.822,-0.32,0.126,863.159,-167.786,-272.522,
00:00:11:216,0.824,-0.269,0.111,810.669,-155.823,-289.49,
00:00:11:233,0.836,-0.253,0.12,777.343,-158.692,-302.491,
00:00:11:250,0.847,-0.249,0.126,756.469,-162.781,-308.35,
00:00:11:266,0.854,-0.248,0.13,747.558,-175.171,-303.04,
00:00:11:283,0.852,-0.237,0.115,750.305,-188.965,-282.532,
00:00:11:300,0.828,-0.186,0.123,799.621,-230.652,-227.662,
00:00:11:316,0.821,-0.186,0.151,845.276,-238.587,-207.093,
00:00:11:333,0.81,-0.189,0.173,872.131,-224.366,-189.27,
00:00:11:350,0.819,-0.17,0.213,894.348,-192.749,-173.951,
00:00:11:366,0.846,-0.126,0.238,907.043,-149.72,-159.485,
00:00:11:383,0.864,-0.163,0.195,926.33,-103.821,-150.696,
00:00:11:400,0.881,-0.184,0.168,946.594,-95.826,-134.278,
00:00:11:416,0.895,-0.218,0.177,951.721,-85.755,-103.943,
00:00:11:433,0.913,-0.25,0.18,930.236,-64.576,-66.956,
00:00:11:450,0.925,-0.276,0.19,881.652,-44.129,-30.518,
00:00:11:466,0.936,-0.285,0.219,824.707,-12.391,-2.625,
00:00:11:483,0.947,-0.287,0.246,760.009,33.142,24.902,
00:00:11:500,0.943,-0.31,0.232,562.622,118.042,66.711,
00:00:11:516,0.932,-0.309,0.215,519.531,126.342,66.162,
00:00:11:533,0.936,-0.313,0.229,488.098,121.948,67.871,
00:00:11:550,0.991,-0.317,0.285,449.524,127.624,78.369,
00:00:11:566,1.014,-0.294,0.219,424.499,143.554,69.763,
00:00:11:583,1.041,-0.259,0.179,442.871,89.355,57.251,
00:00:11:600,1.062,-0.261,0.157,492.675,53.039,58.96,
00:00:11:616,1.134,-0.3,0.159,548.767,43.762,68.359,
00:00:11:633,1.227,-0.348,0.15,606.689,28.869,85.51,
00:00:11:650,1.341,-0.394,0.144,632.568,14.648,117.431,
00:00:11:666,1.363,-0.447,0.186,636.779,-23.194,136.779,
00:00:11:683,1.389,-0.514,0.293,594.726,-40.528,157.837,
00:00:11:700,1.367,-0.559,0.312,540.832,-25.208,168.945,
00:00:11:716,1.313,-0.552,0.257,523.681,-62.256,154.419,
00:00:11:733,1.229,-0.473,0.188,545.349,-157.471,108.337,
00:00:11:750,1.126,-0.448,0.118,581.787,-273.926,35.095,
00:00:11:766,1.05,-0.411,0.086,616.027,-387.207,-33.326,
00:00:11:783,1.023,-0.397,0.072,633.606,-456.91,-131.836,
00:00:11:800,1.053,-0.404,0.028,647.277,-512.452,-236.573,
00:00:11:816,1.074,-0.42,-0.023,665.344,-626.648,-341.797,
00:00:11:833,1.026,-0.445,-0.034,695.8,-769.227,-423.706,
00:00:11:850,0.933,-0.452,-0.022,722.473,-867.31,-474.976,
00:00:11:866,0.847,-0.47,0.022,743.896,-907.227,-518.799,
00:00:11:883,0.827,-0.497,0.077,739.563,-904.053,-559.876,
00:00:11:900,0.809,-0.504,0,703.979,-863.404,-599.06,
00:00:11:916,0.799,-0.478,-0.069,661.926,-881.531,-621.277,
00:00:11:933,0.75,-0.439,-0.102,633.972,-907.41,-625,
00:00:11:950,0.686,-0.42,-0.099,622.192,-897.95,-624.39,
00:00:11:966,0.643,-0.428,-0.044,609.863,-859.864,-616.15,
00:00:11:983,0.632,-0.463,0.031,554.992,-786.011,-600.953,
00:00:12:0,0.608,-0.454,0.083,366.088,-256.165,-139.71,
00:00:12:16,0.606,-0.447,0.051,325.988,-190.674,-63.599,
00:00:12:33,0.593,-0.424,0.032,296.508,-142.029,-0.672,
00:00:12:50,0.572,-0.422,0.049,273.498,-88.074,55.664,
00:00:12:66,0.572,-0.452,0.107,226.623,-16.48,111.877,
00:00:12:83,0.612,-0.497,0.166,152.404,76.294,184.875,
00:00:12:100,0.679,-0.528,0.176,41.32,175.842,234.802,
00:00:12:116,0.75,-0.534,0.162,-49.317,245.605,298.767,
00:00:12:133,0.807,-0.502,0.134,-93.201,294.311,363.22,
00:00:12:150,0.882,-0.461,0.094,-94.544,352.111,429.565,
00:00:12:166,1.037,-0.441,0.011,-58.96,437.805,483.459,
00:00:12:183,1.262,-0.427,-0.109,0.671,495.971,556.64,
00:00:12:200,1.457,-0.428,-0.198,60.791,456.298,623.901,
00:00:12:216,1.478,-0.462,-0.163,135.437,380.066,668.457,
00:00:12:233,1.345,-0.534,0,201.172,377.624,700.378,
00:00:12:250,1.224,-0.593,0.23,200.805,443.725,712.524,
00:00:12:266,1.081,-0.621,0.326,111.328,589.477,678.1,
00:00:12:283,0.943,-0.591,0.296,-39.307,673.767,599.365,
00:00:12:300,0.833,-0.493,0.2,-194.703,717.773,495.544,
00:00:12:316,0.792,-0.351,0.102,-289.551,736.694,395.874,
00:00:12:333,0.835,-0.246,0.042,-333.252,742.187,283.813,
00:00:12:350,0.941,-0.245,-0.023,-320.984,694.519,190.612,
00:00:12:366,1.011,-0.319,-0.046,-315.369,524.536,141.54,
00:00:12:383,0.984,-0.347,0,-345.887,296.997,121.215,
00:00:12:400,0.895,-0.268,0.08,-393.738,127.563,129.76,
00:00:12:416,0.823,-0.163,0.139,-349.976,52.795,118.042,
00:00:12:433,0.792,-0.068,0.188,-175.11,-19.837,81.787,
00:00:12:450,0.749,-0.041,0.201,78.125,-73.731,23.01,
00:00:12:466,0.705,-0.124,0.212,330.505,-97.535,-48.34,
00:00:12:483,0.678,-0.2,0.231,485.29,-77.881,-95.154,
00:00:12:500,0.689,-0.276,0.259,549.499,-28.199,-86.121,
00:00:12:516,0.721,-0.328,0.279,523.01,40.222,-59.266,
00:00:12:533,0.742,-0.366,0.288,476.806,101.44,-47.12,
00:00:12:550,0.737,-0.387,0.285,409.362,160.705,-28.87,
00:00:12:566,0.723,-0.368,0.265,333.74,223.022,-2.93,
00:00:12:583,0.731,-0.338,0.256,257.263,265.747,2.868,
00:00:12:600,0.753,-0.347,0.241,204.589,299.621,-9.156,
00:00:12:616,0.805,-0.372,0.234,171.692,343.078,-11.292,
00:00:12:633,0.866,-0.413,0.201,124.939,377.319,-8.789,
00:00:12:650,0.946,-0.447,0.174,47.241,392.456,4.882,
00:00:12:666,1,-0.458,0.15,-36.194,377.441,23.986,
00:00:12:683,1.039,-0.43,0.128,-104.004,357.055,40.71,
00:00:12:700,1.099,-0.407,0.125,-141.358,339.294,57.312,
00:00:12:716,1.173,-0.41,0.095,-144.715,314.819,55.603,
00:00:12:733,1.311,-0.417,0.082,-135.865,281.738,72.815,
00:00:12:750,1.479,-0.429,0.075,-121.888,251.281,98.083,walkLH
00:00:12:766,1.652,-0.451,0.054,-89.295,177.002,110.901,
00:00:12:783,1.732,-0.491,0.027,-58.777,68.908,123.962,
00:00:12:800,1.658,-0.544,0.02,-66.102,-61.097,134.887,
00:00:12:816,1.522,-0.586,0.056,-126.221,-181.885,132.934,
00:00:12:833,1.316,-0.58,0.066,-249.146,-242.31,113.281,
00:00:12:850,1.161,-0.528,0.14,-400.208,-302.185,65.002,
00:00:12:866,1.103,-0.411,0.205,-553.162,-301.453,7.812,
00:00:12:883,1.17,-0.341,0.12,-665.162,-240.235,-77.088,
00:00:12:900,1.308,-0.22,-0.002,-648.133,-329.59,-140.137,
00:00:12:916,1.365,-0.205,-0.097,-510.804,-522.217,-206.543,
00:00:12:933,1.298,-0.205,-0.122,-301.026,-748.963,-262.33,
00:00:12:950,1.131,-0.227,-0.094,-92.408,-945.801,-283.936,
00:00:12:966,1.002,-0.246,-0.041,45.898,-1040.894,-308.716,
00:00:12:983,0.929,-0.258,-0.002,161.438,-1061.707,-361.145,
00:00:13:0,0.896,-0.248,-0.012,256.286,-1071.656,-425.11,
00:00:13:16,0.834,-0.231,-0.048,338.012,-1107.117,-487.854,
00:00:13:33,0.753,-0.221,-0.061,414.734,-1129.7,-549.5,
00:00:13:50,0.686,-0.243,-0.045,483.703,-1114.38,-603.089,
00:00:13:66,0.641,-0.286,-0.027,551.452,-1061.219,-639.771,
00:00:13:83,0.638,-0.339,-0.012,585.754,-989.014,-656.128,
00:00:13:100,0.659,-0.384,-0.019,571.899,-906.617,-642.273,
00:00:13:116,0.67,-0.4,-0.044,510.559,-836.182,-600.281,
00:00:13:133,0.652,-0.396,-0.057,424.865,-797.791,-544.19,
00:00:13:150,0.634,-0.398,-0.023,338.195,-734.62,-483.46,
00:00:13:166,0.648,-0.425,0.013,241.638,-643.189,-406.311,
00:00:13:183,0.692,-0.445,0.007,148.925,-541.748,-323.609,
00:00:13:200,0.72,-0.421,-0.016,80.139,-479.676,-239.991,
00:00:13:216,0.697,-0.358,-0.028,52.49,-444.458,-167.664,
00:00:13:233,0.651,-0.301,-0.02,79.223,-398.804,-118.836,
00:00:13:250,0.653,-0.285,0.005,126.831,-301.636,-82.764,
00:00:13:266,0.713,-0.312,-0.006,156.799,-197.937,-36.011,
00:00:13:283,0.783,-0.362,0.007,151.062,-123.78,23.864,
00:00:13:300,0.845,-0.404,0.005,92.468,-36.927,122.009,
00:00:13:316,0.929,-0.403,-0.006,18.31,73.669,242.736,
00:00:13:333,1.038,-0.374,-0.04,-37.781,185.241,359.13,
00:00:13:350,1.142,-0.336,-0.071,-38.025,282.348,494.873,
00:00:13:366,1.179,-0.333,-0.059,20.263,350.647,601.684,
00:00:13:383,1.124,-0.359,0.027,118.164,417.907,684.326,
00:00:13:400,0.992,-0.393,0.083,188.293,496.276,735.595,
00:00:13:416,0.881,-0.42,0.164,186.157,609.13,751.464,
00:00:13:433,0.834,-0.434,0.216,114.318,749.694,725.158,
00:00:13:450,0.828,-0.436,0.232,-5.249,881.347,670.837,
00:00:13:466,0.865,-0.412,0.193,-152.894,1003.234,616.516,
00:00:13:483,0.949,-0.368,0.133,-312.256,1097.717,570.556,
00:00:13:500,1.051,-0.346,0.099,-454.102,1124.206,517.028,
00:00:13:516,1.085,-0.349,0.079,-531.556,1086.486,463.928,
00:00:13:533,1.041,-0.324,0.073,-566.04,978.698,411.193,
00:00:13:550,0.936,-0.263,0.085,-535.157,844.543,364.441,
00:00:13:566,0.838,-0.191,0.099,-447.266,747.07,305.603,
00:00:13:583,0.789,-0.145,0.107,-305.054,683.96,240.356,
00:00:13:600,0.794,-0.136,0.104,-139.832,632.812,174.194,
00:00:13:616,0.816,-0.157,0.107,-4.029,559.57,127.502,
00:00:13:633,0.837,-0.185,0.154,88.378,469.726,88.745,
00:00:13:650,0.856,-0.233,0.22,132.385,435.302,62.255,
00:00:13:666,0.891,-0.277,0.261,154.174,428.65,59.631,
00:00:13:683,0.939,-0.297,0.256,146.545,429.565,66.955,
00:00:13:700,0.963,-0.299,0.249,145.202,398.376,62.439,
00:00:13:716,0.947,-0.306,0.246,153.32,361.572,52.307,
00:00:13:733,0.915,-0.325,0.243,152.221,351.379,49.682,
00:00:13:750,0.928,-0.344,0.235,128.173,366.638,52.002,
00:00:13:766,0.978,-0.364,0.207,87.768,380.554,45.105,
00:00:13:783,1.016,-0.371,0.172,52.124,358.703,24.536,
00:00:13:800,1.025,-0.373,0.142,26.001,317.382,0.671,
00:00:13:816,1.015,-0.378,0.134,8.85,287.658,-14.161,
00:00:13:833,1.008,-0.405,0.14,-19.104,277.099,-24.781,
00:00:13:850,1.038,-0.457,0.159,-74.707,291.87,-22.156,
00:00:13:866,1.144,-0.489,0.172,-172.425,324.951,9.033,
00:00:13:883,1.297,-0.48,0.131,-268.799,341.43,26.062,
00:00:13:900,1.427,-0.445,0.079,-305.359,263,31.494,
00:00:13:916,1.496,-0.418,0.071,-291.26,157.348,44.25,
00:00:13:933,1.552,-0.426,0.09,-253.846,72.265,57.739,
00:00:13:950,1.595,-0.483,0.129,-238.465,-24.903,65.246,
00:00:13:966,1.581,-0.528,0.167,-278.138,-127.503,66.406,
00:00:13:983,1.457,-0.499,0.132,-371.766,-239.991,49.072,
00:00:14:0,1.291,-0.4,0.096,-437.989,-364.258,20.507,
00:00:14:16,1.182,-0.296,0.092,-514.893,-456.788,-19.288,
00:00:14:33,1.179,-0.236,0.05,-517.701,-501.587,-78.736,
00:00:14:50,1.253,-0.243,-0.005,-509.644,-589.539,-113.831,
00:00:14:66,1.351,-0.245,-0.062,-450.562,-733.46,-122.437,
00:00:14:83,1.365,-0.227,-0.095,-343.811,-899.659,-149.659,
00:00:14:100,1.269,-0.222,-0.087,-209.351,-1082.642,-172.486,
00:00:14:116,1.14,-0.227,-0.011,-21.485,-1220.704,-203.431,
00:00:14:133,1.031,-0.267,0.038,145.446,-1248.353,-258.851,
00:00:14:150,0.969,-0.297,0.007,249.755,-1225.831,-320.801,
00:00:14:166,0.926,-0.288,-0.027,317.382,-1234.925,-374.207,
00:00:14:183,0.878,-0.269,-0.056,364.624,-1235.23,-431.824,
00:00:14:200,0.824,-0.266,-0.084,404.419,-1227.356,-485.23,
00:00:14:216,0.78,-0.281,-0.098,451.599,-1212.708,-526.001,
00:00:14:233,0.761,-0.306,-0.096,499.206,-1179.81,-555.603,
00:00:14:250,0.762,-0.329,-0.094,526.062,-1130.311,-574.402,
00:00:14:266,0.751,-0.345,-0.096,521.24,-1087.342,-576.905,
00:00:14:283,0.719,-0.357,-0.09,493.286,-1038.392,-559.388,
00:00:14:300,0.686,-0.363,-0.075,444.091,-973.572,-531.983,
00:00:14:316,0.682,-0.372,-0.041,380.432,-883.179,-490.662,
00:00:14:333,0.701,-0.38,-0.039,310.974,-779.969,-435.73,
00:00:14:350,0.702,-0.368,-0.062,254.577,-706.543,-373.78,
00:00:14:366,0.68,-0.345,-0.051,225.525,-642.64,-316.224,
00:00:14:383,0.639,-0.325,-0.055,217.041,-554.078,-252.076,
00:00:14:400,0.614,-0.307,-0.057,230.774,-455.14,-186.646,
00:00:14:416,0.606,-0.302,-0.044,240.722,-351.075,-117.127,
00:00:14:433,0.61,-0.322,0,238.952,-241.394,-46.814,
00:00:14:450,0.66,-0.354,0.012,188.354,-79.895,44.067,
00:00:14:466,0.755,-0.377,-0.003,115.356,92.468,159.729,
00:00:14:483,0.868,-0.367,-0.046,56.396,223.877,285.949,
00:00:14:500,0.947,-0.334,-0.051,40.161,352.111,435.119,
00:00:14:516,0.995,-0.304,-0.031,60.241,509.033,568.115,
00:00:14:533,1.018,-0.322,-0.013,114.318,652.221,695.617,
00:00:14:550,1.012,-0.396,0.055,170.227,787.719,809.936,
00:00:14:566,0.948,-0.472,0.169,146.85,916.687,869.079,
00:00:14:583,0.89,-0.511,0.278,20.935,1080.261,916.748,
00:00:14:600,0.844,-0.515,0.294,-160.889,1258.361,916.015,
00:00:14:616,0.83,-0.476,0.253,-351.685,1394.592,869.384,
00:00:14:633,0.878,-0.421,0.208,-540.101,1497.741,794.311,
00:00:14:650,0.98,-0.373,0.133,-719.422,1585.449,708.068,
00:00:14:666,1.11,-0.347,0.059,-863.404,1611.267,628.906,
00:00:14:683,1.191,-0.314,-0.011,-950.074,1501.77,540.71,
00:00:14:700,1.166,-0.247,-0.021,-963.562,1280.212,442.077,
00:00:14:716,1.061,-0.159,0.005,-888.672,1053.955,338.134,
00:00:14:733,0.968,-0.091,0.065,-725.586,874.878,232.055,
00:00:14:750,0.939,-0.069,0.109,-542.298,794.555,156.372,
00:00:14:766,0.971,-0.052,0.143,-342.896,707.702,97.351,
00:00:14:783,1.028,-0.039,0.183,-166.077,585.876,24.902,
00:00:14:800,1.037,-0.071,0.239,-6.226,462.585,-63.782,
00:00:14:816,1.009,-0.106,0.266,94.787,373.352,-126.16,
00:00:14:833,0.997,-0.142,0.328,171.569,306.64,-168.824,
00:00:14:850,0.997,-0.183,0.323,208.435,318.481,-182.007,
00:00:14:866,1.034,-0.226,0.317,213.623,294.433,-191.895,
00:00:14:883,1.046,-0.219,0.324,235.473,222.717,-176.026,
00:00:14:900,1.008,-0.233,0.331,270.385,163.33,-188.233,
00:00:14:916,0.971,-0.278,0.323,264.099,151.611,-181.031,
00:00:14:933,0.964,-0.299,0.285,201.599,154.907,-138.611,
00:00:14:950,0.997,-0.296,0.257,110.046,152.343,-106.812,
00:00:14:966,1.024,-0.275,0.253,56.274,113.525,-91.675,
00:00:14:983,1.009,-0.274,0.237,39.428,54.687,-70.679,
00:00:15:0,0.99,-0.301,0.233,10.131,36.315,-59.266,
00:00:15:16,1.017,-0.324,0.201,-25.208,48.217,-32.654,
00:00:15:33,1.095,-0.322,0.162,-44.983,43.396,0.122,
00:00:15:50,1.185,-0.309,0.119,-44.373,14.953,16.906,
00:00:15:66,1.287,-0.311,0.093,-10.254,-21.363,35.095,
00:00:15:83,1.377,-0.324,0.065,46.264,-75.623,52.734,
00:00:15:100,1.446,-0.369,0.042,95.764,-130.372,75.927,
00:00:15:116,1.498,-0.452,0.035,98.755,-174.561,111.206,
00:00:15:133,1.541,-0.559,0.077,37.536,-212.769,146.179,
00:00:15:150,1.543,-0.645,0.158,-105.713,-246.521,190.857,
00:00:15:166,1.555,-0.666,0.301,-321.289,-250.184,220.947,
00:00:15:183,1.391,-0.504,0.104,-509.339,-271.18,160.034,
00:00:15:200,1.224,-0.303,-0.039,-555.176,-441.834,79.101,
00:00:15:216,1.104,-0.129,-0.122,-476.624,-580.262,-29.358,
00:00:15:233,1.069,-0.037,-0.16,-253.357,-689.698,-159.119,
00:00:15:250,1.093,-0.06,-0.168,-14.71,-789.734,-268.921,
00:00:15:266,1.105,-0.183,-0.138,137.207,-908.509,-368.592,
00:00:15:283,1.073,-0.275,-0.068,182.251,-1033.143,-401.856,
00:00:15:300,1.018,-0.314,0.005,169.555,-1099.244,-403.626,
00:00:15:316,0.947,-0.315,0.011,192.077,-1118.042,-408.326,
00:00:15:333,0.873,-0.318,-0.007,274.963,-1130.799,-411.377,
00:00:15:350,0.791,-0.319,-0.027,368.591,-1129.517,-411.377,
00:00:15:366,0.723,-0.315,-0.043,449.34,-1101.197,-421.936,
00:00:15:383,0.686,-0.342,-0.051,510.498,-1056.336,-434.082,
00:00:15:400,0.672,-0.317,-0.031,555.114,-998.902,-447.205,
00:00:15:416,0.69,-0.33,-0.019,553.466,-917.237,-454.468,
00:00:15:433,0.714,-0.341,-0.021,525.817,-841.309,-455.323,
00:00:15:450,0.711,-0.347,-0.045,475.402,-775.879,-444.336,
00:00:15:466,0.685,-0.354,-0.066,422.546,-712.647,-425.965,
00:00:15:483,0.662,-0.373,-0.068,354.492,-644.104,-392.151,
00:00:15:500,0.656,-0.398,-0.051,278.93,-565.857,-339.234,
00:00:15:516,0.676,-0.418,-0.007,191.589,-481.873,-266.419,
00:00:15:533,0.694,-0.42,0.03,99.121,-391.785,-203.064,
00:00:15:550,0.703,-0.398,0.041,24.841,-304.81,-139.466,
00:00:15:566,0.714,-0.353,0.022,-19.104,-211.67,-81.177,
00:00:15:583,0.735,-0.32,-0.007,-13.184,-135.254,-29.48,
00:00:15:600,0.767,-0.309,-0.012,20.019,-74.952,9.399,
00:00:15:616,0.813,-0.325,-0.008,39.245,-1.831,55.786,
00:00:15:633,0.921,-0.36,-0.003,39.611,117.065,124.084,
00:00:15:650,1.036,-0.364,-0.019,32.104,212.89,202.27,
00:00:15:666,1.118,-0.353,-0.021,29.968,301.025,299.621,
00:00:15:683,1.165,-0.344,-0.018,52.063,408.996,386.901,
00:00:15:700,1.168,-0.368,-0.006,110.351,527.771,459.472,
00:00:15:716,1.072,-0.401,0.065,170.288,580.383,502.319,
00:00:15:733,0.942,-0.429,0.192,162.841,661.499,511.963,
00:00:15:750,0.856,-0.447,0.307,70.922,781.555,485.29,
00:00:15:766,0.81,-0.452,0.308,-75.684,921.264,433.899,
00:00:15:783,0.799,-0.41,0.224,-227.112,1013.855,360.595,
00:00:15:800,0.853,-0.32,0.12,-364.808,1079.406,324.707,
00:00:15:816,0.964,-0.26,0.007,-464.295,1124.389,291.748,
00:00:15:833,1.113,-0.25,-0.047,-500.611,1072.57,255.371,
00:00:15:850,1.162,-0.254,-0.044,-494.996,901.794,225.402,
00:00:15:866,1.057,-0.251,0.087,-469.056,704.467,195.251,
00:00:15:883,0.936,-0.235,0.234,-439.576,612.732,179.809,
00:00:15:900,0.876,-0.191,0.288,-413.086,646.545,170.959,
00:00:15:916,0.872,-0.136,0.23,-334.778,635.437,158.386,
00:00:15:933,0.869,-0.076,0.205,-218.689,546.692,135.498,
00:00:15:950,0.829,-0.103,0.204,-77.149,468.2,79.223,
00:00:15:966,0.86,-0.107,0.305,83.618,339.965,51.269,
00:00:15:983,0.869,-0.15,0.377,264.526,237.426,-30.64,
00:00:16:0,0.783,-0.196,0.426,308.654,239.502,-9.217,
00:00:16:16,0.761,-0.335,0.425,191.65,393.31,-15.076,
00:00:16:33,0.824,-0.425,0.364,32.104,518.493,38.086,
00:00:16:50,0.913,-0.421,0.305,-146.363,587.89,146.911,
00:00:16:66,0.977,-0.366,0.255,-251.893,593.567,189.453,
00:00:16:83,1.01,-0.338,0.262,-245.911,542.785,193.115,
00:00:16:100,1.013,-0.374,0.275,-250.611,527.465,183.532,
00:00:16:116,1.035,-0.428,0.272,-259.034,534.179,153.686,
00:00:16:133,1.078,-0.428,0.264,-272.156,518.859,135.864,
00:00:16:150,1.119,-0.394,0.222,-263.55,475.219,93.689,
00:00:16:166,1.121,-0.313,0.14,-210.999,378.601,19.592,
00:00:16:183,1.119,-0.31,0.093,-153.077,280.212,-37.354,
00:00:16:200,1.158,-0.327,0.075,-120.484,219.055,-92.347,
00:00:16:216,1.257,-0.388,0.084,-116.211,164.184,-116.883,
00:00:16:233,1.44,-0.43,0.119,-124.695,116.577,-88.501,
00:00:16:250,1.627,-0.48,0.102,-144.593,31.311,-28.626,
00:00:16:266,1.68,-0.559,0.078,-151.795,-151.734,35.4,
00:00:16:283,1.498,-0.637,0.119,-190.003,-368.348,76.294,
00:00:16:300,1.165,-0.496,0.11,-434.937,-478.028,136.352,
00:00:16:316,1.219,-0.363,0.052,-524.109,-497.803,95.031,
00:00:16:333,1.312,-0.261,-0.041,-524.414,-593.934,48.767,
00:00:16:350,1.341,-0.194,-0.108,-439.82,-764.527,-13.367,
00:00:16:366,1.289,-0.182,-0.097,-290.223,-933.96,-85.328,
00:00:16:383,1.211,-0.211,-0.072,-129.639,-1042.847,-127.503,
00:00:16:400,1.164,-0.253,-0.022,-7.508,-1118.47,-156.311,
00:00:16:416,1.183,-0.278,0.034,74.646,-1147.217,-194.153,
00:00:16:433,1.206,-0.269,-0.017,155.029,-1156.983,-243.958,
00:00:16:450,1.163,-0.234,-0.107,280.09,-1221.314,-307.923,
00:00:16:466,1.034,-0.212,-0.16,425.842,-1309.693,-379.883,
00:00:16:483,0.955,-0.222,-0.192,561.523,-1326.6,-448.487,
00:00:16:500,0.877,-0.241,-0.194,658.569,-1325.379,-512.452,
00:00:16:516,0.814,-0.255,-0.16,708.984,-1301.392,-567.261,
00:00:16:533,0.766,-0.27,-0.097,710.022,-1246.766,-613.587,
00:00:16:550,0.729,-0.303,-0.043,665.283,-1153.748,-644.165,
00:00:16:566,0.723,-0.34,-0.021,591.797,-1037.659,-638.733,
00:00:16:583,0.725,-0.367,-0.039,528.625,-921.814,-604.554,
00:00:16:600,0.702,-0.372,-0.058,463.867,-838.623,-549.622,
00:00:16:616,0.658,-0.37,-0.049,411.193,-759.156,-487.488,
00:00:16:633,0.62,-0.36,-0.027,343.933,-654.969,-408.204,
00:00:16:650,0.604,-0.344,-0.012,263.672,-532.044,-325.562,
00:00:16:667,0.607,-0.32,-0.028,173.523,-419.617,-262.635,
00:00:16:683,0.599,-0.292,-0.035,121.399,-330.445,-186.707,
00:00:16:700,0.584,-0.275,-0.021,91.064,-243.775,-104.493,
00:00:16:717,0.599,-0.273,-0.013,90.576,-125,-10.682,
00:00:16:733,0.677,-0.292,-0.016,97.961,26.062,110.839,
00:00:16:750,0.797,-0.313,-0.036,111.267,146.301,238.464,walkLH
00:00:16:767,0.898,-0.33,-0.045,143.493,252.136,384.582,
00:00:16:783,0.972,-0.344,-0.015,178.1,393.493,537.475,
00:00:16:800,1.022,-0.374,0.003,210.266,540.832,661.743,
00:00:16:817,1.03,-0.422,0.088,219.238,685.974,773.742,
00:00:16:833,1.01,-0.467,0.177,177.063,799.438,841.613,
00:00:16:850,0.954,-0.511,0.283,44.494,945.19,881.652,
00:00:16:867,0.858,-0.513,0.281,-157.898,1081.482,879.272,
00:00:16:883,0.791,-0.463,0.211,-369.873,1166.748,835.815,
00:00:16:900,0.777,-0.372,0.125,-549.683,1224.609,768.127,
00:00:16:917,0.82,-0.293,0.034,-687.928,1261.779,686.34,
00:00:16:933,0.922,-0.249,-0.029,-763.184,1273.315,616.943,
00:00:16:950,1.072,-0.237,-0.005,-787.171,1223.693,551.696,
00:00:16:967,1.205,-0.226,0.042,-778.687,1130.432,489.868,
00:00:16:983,1.25,-0.169,0.071,-707.398,981.079,416.381,
00:00:17:0,1.208,-0.082,0.115,-552.247,805.908,331.543,
00:00:17:17,1.141,-0.013,0.136,-303.65,674.682,232.36,
00:00:17:33,1.096,0.007,0.133,10.62,569.885,138.366,
00:00:17:50,1.085,-0.013,0.129,289.184,477.905,55.908,
00:00:17:67,1.09,-0.074,0.139,503.906,391.479,-26.551,
00:00:17:83,1.082,-0.156,0.166,624.267,321.533,-98.999,
00:00:17:100,1.046,-0.21,0.206,656.86,268.249,-151.673,
00:00:17:117,1.001,-0.249,0.249,635.192,240.844,-175.171,
00:00:17:133,0.966,-0.287,0.281,589.66,230.041,-185.547,
00:00:17:150,0.928,-0.317,0.281,514.77,225.83,-183.838,
00:00:17:167,0.906,-0.336,0.271,417.48,218.933,-170.289,
00:00:17:183,0.888,-0.338,0.241,309.387,206.054,-146.119,
00:00:17:200,0.888,-0.315,0.223,195.495,174.865,-109.986,
00:00:17:217,0.904,-0.273,0.216,117.614,132.141,-89.173,
00:00:17:233,0.923,-0.224,0.206,101.867,84.167,-82.032,
00:00:17:250,0.947,-0.179,0.185,143.371,23.132,-84.778,
00:00:17:267,0.967,-0.149,0.156,236.206,-45.044,-102.723,
00:00:17:283,1.001,-0.129,0.108,368.591,-82.032,-112.305,
00:00:17:300,1.107,-0.142,0.076,505.859,-104.126,-97.107,
00:00:17:317,1.253,-0.195,0.043,629.882,-153.931,-80.201,
00:00:17:333,1.375,-0.278,0.024,725.28,-235.23,-62.989,
00:00:17:350,1.441,-0.359,0.02,779.785,-315.369,-20.325,
00:00:17:367,1.447,-0.426,0.052,790.588,-389.527,20.629,
00:00:17:383,1.336,-0.47,0.07,756.775,-471.619,29.174,
00:00:17:400,1.179,-0.476,0.081,676.818,-529.664,4.577,
00:00:17:417,1.048,-0.452,0.072,539.978,-534.302,-45.838,
00:00:17:433,0.964,-0.393,0.085,397.949,-528.626,-107.789,
00:00:17:450,0.954,-0.301,0.104,240.173,-494.446,-177.613,
00:00:17:467,1.011,-0.215,0.05,142.7,-453.675,-256.531,
00:00:17:483,1.149,-0.182,0,126.526,-497.742,-325.196,
00:00:17:500,1.199,-0.187,-0.054,180.297,-575.074,-361.695,
00:00:17:517,1.196,-0.191,-0.078,266.418,-674.988,-366.089,
00:00:17:533,1.124,-0.21,-0.056,343.75,-774.17,-345.459,
00:00:17:550,1.05,-0.24,-0.036,415.466,-816.59,-306.214,
00:00:17:567,0.996,-0.293,-0.015,463.195,-842.102,-264.405,
00:00:17:583,0.975,-0.342,0.044,481.689,-850.098,-226.136,
00:00:17:600,0.974,-0.344,0.019,475.586,-802.796,-185.852,
00:00:17:617,0.966,-0.283,-0.037,478.454,-801.941,-165.039,
00:00:17:633,0.938,-0.233,-0.081,513.672,-818.238,-177.674,
00:00:17:650,0.912,-0.225,-0.101,553.405,-804.139,-202.454,
00:00:17:667,0.916,-0.254,-0.113,567.382,-771.851,-216.858,
00:00:17:683,0.942,-0.285,-0.112,553.161,-727.356,-217.408,
00:00:17:700,0.893,-0.304,-0.045,381.286,-455.689,-66.773,
00:00:17:717,0.851,-0.305,-0.041,361.328,-384.583,-13.977,
00:00:17:733,0.841,-0.301,0.001,341.858,-320.13,35.766,
00:00:17:750,0.869,-0.292,0.035,311.767,-242.249,89.843,
00:00:17:767,0.885,-0.258,-0.003,278.564,-179.261,144.653,
00:00:17:783,0.87,-0.222,-0.006,259.582,-184.021,191.406,
00:00:17:800,0.823,-0.216,0.006,253.54,-184.266,236.755,
00:00:17:817,0.799,-0.216,0.016,261.291,-157.044,299.926,
00:00:17:833,0.835,-0.213,0.01,291.87,-116.028,376.77,
00:00:17:850,0.911,-0.213,-0.025,357.605,-92.164,454.406,
00:00:17:867,0.999,-0.229,-0.039,464.233,-90.21,528.137,
00:00:17:883,1.054,-0.25,-0.052,593.2,-93.811,595.214,
00:00:17:900,1.064,-0.271,-0.044,707.153,-100.769,653.93,
00:00:17:917,1.04,-0.294,-0.022,817.443,-87.159,702.453,
00:00:17:933,1.004,-0.333,0.007,899.231,-54.078,704.895,
00:00:17:950,0.972,-0.369,0.061,943.176,-10.56,705.81,
00:00:17:967,0.924,-0.383,0.047,944.275,27.282,700.927,
00:00:17:983,0.871,-0.385,0.054,907.287,65.612,687.866,
00:00:18:0,0.833,-0.392,0.06,843.872,113.586,667.236,
00:00:18:17,0.837,-0.407,0.066,750.244,171.081,655.029,
00:00:18:33,0.879,-0.416,0.045,640.503,227.722,645.019,
00:00:18:50,0.994,-0.412,0.051,476.562,277.16,642.639,
00:00:18:67,1.028,-0.414,0.088,436.035,297.424,647.033,
00:00:18:83,1.051,-0.406,0.117,413.879,326.172,648.681,
00:00:18:100,1.065,-0.382,0.136,417.968,345.459,632.873,
00:00:18:117,1.049,-0.346,0.126,462.219,351.989,591.064,
00:00:18:133,1.016,-0.299,0.103,544.494,336.731,532.592,
00:00:18:150,0.981,-0.268,0.088,645.324,307.251,462.158,
00:00:18:167,0.949,-0.261,0.084,751.098,278.564,380.615,
00:00:18:183,0.939,-0.281,0.115,824.951,256.347,303.466,
00:00:18:200,0.951,-0.309,0.149,848.816,255.188,232.727,
00:00:18:217,0.958,-0.321,0.133,837.89,246.276,164.978,
00:00:18:233,0.955,-0.322,0.136,815.673,211.242,109.802,
00:00:18:250,0.932,-0.315,0.17,803.283,159.973,65.124,
00:00:18:267,0.941,-0.296,0.249,801.452,146.301,24.841,
00:00:18:283,0.94,-0.259,0.197,818.664,144.348,-16.053,
00:00:18:300,0.936,-0.249,0.137,881.897,79.101,-78.431,
00:00:18:317,0.909,-0.226,0.122,964.965,-8.912,-145.508,
00:00:18:333,0.901,-0.253,0.19,1014.526,-68.421,-184.327,
00:00:18:350,0.921,-0.231,0.13,1030.395,-122.071,-269.837,
00:00:18:367,0.907,-0.242,0.116,1046.386,-186.89,-324.28,
00:00:18:383,0.878,-0.276,0.127,1044.189,-213.868,-359.62,
00:00:18:400,0.868,-0.31,0.157,992.553,-214.295,-366.517,
00:00:18:417,0.867,-0.337,0.196,913.025,-195.13,-371.46,
00:00:18:433,0.875,-0.344,0.219,799.621,-154.419,-374.39,
00:00:18:450,0.887,-0.334,0.225,682.983,-114.319,-372.376,
00:00:18:467,0.886,-0.31,0.206,572.998,-93.567,-363.282,
00:00:18:483,0.866,-0.289,0.187,489.38,-84.351,-355.774,
00:00:18:500,0.847,-0.278,0.183,424.987,-68.238,-340.943,
00:00:18:517,0.872,-0.262,0.208,380.493,-37.11,-323.182,
00:00:18:533,0.921,-0.228,0.193,349.426,-11.597,-311.463,
00:00:18:550,0.939,-0.181,0.163,348.693,-34.852,-316.468,
00:00:18:567,0.91,-0.149,0.154,380.371,-66.712,-330.506,
00:00:18:583,0.867,-0.154,0.145,428.1,-68.787,-337.159,
00:00:18:600,0.86,-0.18,0.131,458.068,-46.692,-326.783,
00:00:18:617,0.881,-0.203,0.112,451.904,-18.555,-303.223,
00:00:18:633,0.922,-0.22,0.098,411.071,12.268,-267.334,
00:00:18:650,0.962,-0.231,0.107,334.167,26.001,-220.581,
00:00:18:667,0.998,-0.224,0.116,282.837,28.503,-161.622,
00:00:18:683,1.046,-0.154,0.155,275.268,-18.128,-110.108,
00:00:18:700,1.106,-0.064,0.198,382.202,-54.566,-122.742,
00:00:18:717,1.178,-0.082,0.259,569.824,-114.197,-146.912,
00:00:18:733,1.271,-0.411,0.414,959.045,-218.873,-172.425,
00:00:18:750,1.265,-0.504,0.401,929.687,-199.097,-119.324,
00:00:18:767,1.237,-0.682,0.355,863.586,-129.883,-46.936,
00:00:18:783,1.213,-0.767,0.292,682.312,-14.222,170.166,
00:00:18:800,1.174,-0.741,0.228,398.376,62.011,369.934,
00:00:18:817,0.902,-0.363,0.095,4.943,-1.831,501.098,
00:00:18:833,0.867,-0.288,0.074,7.446,-53.406,441.101,
00:00:18:850,0.893,-0.24,0.059,54.26,-93.934,358.398,
00:00:18:867,0.986,-0.209,0.032,184.326,-145.508,247.802,
00:00:18:883,1.096,-0.168,-0.024,436.035,-262.574,101.684,
00:00:18:900,1.154,-0.145,-0.113,695.068,-463.074,-42.481,
00:00:18:917,1.12,-0.218,-0.149,941.955,-683.96,-173.34,
00:00:18:933,1.026,-0.347,-0.159,1090.576,-829.895,-302.247,
00:00:18:950,0.937,-0.453,-0.171,1141.357,-915.101,-387.452,
00:00:18:967,0.876,-0.504,-0.164,1106.628,-970.276,-434.205,
00:00:18:983,0.826,-0.512,-0.168,1035.278,-992.127,-465.088,
00:00:19:0,0.773,-0.519,-0.15,951.843,-993.592,-489.136,
00:00:19:17,0.737,-0.538,-0.066,895.263,-980.53,-519.959,
00:00:19:33,0.704,-0.553,-0.035,798.156,-908.57,-533.326,
00:00:19:50,0.693,-0.549,-0.028,711.547,-830.628,-503.479,
00:00:19:67,0.684,-0.505,-0.046,622.924,-748.047,-466.492,
00:00:19:83,0.683,-0.463,-0.029,554.931,-673.34,-430.787,
00:00:19:100,0.691,-0.47,0.047,513.427,-601.99,-393.677,
00:00:19:117,0.668,-0.497,0.047,443.42,-499.207,-346.802,
00:00:19:133,0.645,-0.498,0.015,354.797,-412.049,-287.964,
00:00:19:150,0.648,-0.462,-0.025,300.109,-331.421,-225.708,
00:00:19:167,0.645,-0.404,-0.046,288.94,-288.819,-173.645,
00:00:19:183,0.625,-0.386,-0.019,308.471,-266.602,-132.874,
00:00:19:200,0.593,-0.41,0.034,331.726,-207.581,-102.723,
00:00:19:217,0.586,-0.459,0.078,297.973,-115.601,-60.425,
00:00:19:233,0.599,-0.5,0.109,205.505,-17.823,-5.494,
00:00:19:250,0.636,-0.512,0.14,81.543,72.021,63.11,
00:00:19:267,0.691,-0.509,0.16,-44.922,155.578,139.221,
00:00:19:283,0.737,-0.5,0.168,-156.006,221.496,212.585,
00:00:19:300,0.775,-0.477,0.145,-236.939,274.902,276.062,
00:00:19:317,0.817,-0.452,0.108,-275.513,321.167,329.284,
00:00:19:333,0.888,-0.422,0.09,-250.611,355.957,367.859,
00:00:19:350,0.99,-0.387,0.044,-235.535,390.258,413.757,
00:00:19:367,1.123,-0.349,-0.037,-182.007,416.992,455.261,
00:00:19:383,1.266,-0.326,-0.129,-110.413,403.076,496.643,
00:00:19:400,1.366,-0.359,-0.145,-43.824,351.196,543.335,
00:00:19:417,1.362,-0.454,-0.064,-7.63,305.114,593.872,
00:00:19:433,1.25,-0.544,0.056,-44.8,335.205,645.935,
00:00:19:450,1.11,-0.602,0.213,-142.701,413.635,661.56,
00:00:19:467,0.886,-0.554,0.292,-496.888,673.645,544.738,
00:00:19:483,0.896,-0.463,0.23,-673.096,802.185,431.579,
00:00:19:500,0.955,-0.307,0.124,-802.857,873.901,320.007,
00:00:19:517,1.025,-0.162,0.044,-838.807,816.04,196.045,
00:00:19:533,1.057,-0.107,0.018,-788.941,725.769,75.012,
00:00:19:550,1.033,-0.094,0.02,-684.144,578.857,-27.894,
00:00:19:567,0.978,-0.064,0.033,-516.785,418.823,-94.971,
00:00:19:583,0.905,-0.023,0.05,-285.157,258.422,-137.696,
00:00:19:600,0.834,-0.013,0.062,-0.245,128.479,-176.88,
00:00:19:617,0.766,-0.06,0.071,302.185,18.371,-217.286,
00:00:19:633,0.701,-0.197,0.111,546.325,-88.074,-235.108,
00:00:19:650,0.697,-0.245,0.145,516.601,-87.769,-232.178,
00:00:19:667,0.705,-0.263,0.173,425.171,-43.702,-217.408,
00:00:19:683,0.729,-0.287,0.201,360.168,5.493,-200.806,
00:00:19:700,0.761,-0.317,0.211,294.799,58.837,-173.951,
00:00:19:717,0.765,-0.354,0.223,223.266,93.383,-135.865,
00:00:19:733,0.807,-0.297,0.241,-0.245,280.822,-4.517,
00:00:19:750,0.866,-0.251,0.223,-12.94,281.86,10.07,
00:00:19:767,0.911,-0.259,0.203,9.887,265.808,-3.54,
00:00:19:783,0.947,-0.287,0.198,29.296,266.052,-3.052,
00:00:19:800,0.99,-0.316,0.189,30.09,258.117,19.104,
00:00:19:817,1.055,-0.348,0.169,17.15,261.901,29.541,
00:00:19:833,1.152,-0.406,0.119,-7.081,261.657,48.95,
00:00:19:850,1.25,-0.382,0.062,-12.635,209.533,70.251,
00:00:19:867,1.33,-0.375,0,-19.715,138.183,90.332,
00:00:19:883,1.423,-0.372,0.027,-3.174,85.449,89.294,
00:00:19:900,1.508,-0.394,0.038,25.695,25.329,96.862,
00:00:19:917,1.591,-0.433,0.051,22.094,-5.127,102.905,
00:00:19:933,1.657,-0.483,0.043,-20.447,-29.297,106.933,
00:00:19:950,1.628,-0.532,0.042,-66.651,-110.596,131.652,
00:00:19:967,1.449,-0.55,0.044,-138.855,-208.802,132.202,
00:00:19:983,1.217,-0.511,0.034,-220.154,-304.81,99.67,
00:00:20:0,1.033,-0.429,0.037,-282.166,-366.517,39.978,
00:00:20:17,0.94,-0.329,0.026,-318.909,-386.231,-42.542,
00:00:20:33,0.956,-0.253,0.015,-318.299,-382.203,-126.16,
00:00:20:50,1.06,-0.229,-0.021,-274.292,-406.067,-200.684,
00:00:20:67,1.147,-0.254,-0.055,-196.656,-515.748,-244.751,
00:00:20:83,1.115,-0.289,-0.068,-92.774,-664.002,-265.137,
00:00:20:100,0.996,-0.31,-0.019,-1.038,-783.143,-268.006,
00:00:20:117,0.895,-0.313,-0.006,88.195,-806.58,-270.569,
00:00:20:133,0.818,-0.303,-0.023,194.946,-819.825,-293.763,
00:00:20:150,0.762,-0.296,-0.038,275.512,-836.67,-326.172,
00:00:20:167,0.709,-0.298,-0.053,330.322,-840.149,-365.662,
00:00:20:183,0.671,-0.308,-0.041,358.764,-825.135,-396.607,
00:00:20:200,0.649,-0.317,-0.032,373.718,-788.147,-421.936,
00:00:20:217,0.625,-0.331,-0.035,361.938,-720.643,-439.209,
00:00:20:233,0.676,-0.351,-0.038,340.698,-680.664,-445.069,
00:00:20:250,0.701,-0.368,-0.051,309.387,-639.527,-431.763,
00:00:20:267,0.71,-0.379,-0.045,267.151,-602.295,-401.001,
00:00:20:283,0.711,-0.396,-0.027,220.642,-555.664,-369.935,
00:00:20:300,0.719,-0.406,-0.024,158.996,-484.07,-317.139,
00:00:20:317,0.74,-0.4,-0.037,105.713,-427.857,-261.231,
00:00:20:333,0.759,-0.382,-0.003,78.613,-380.982,-206.91,
00:00:20:350,0.774,-0.353,-0.013,82.031,-334.778,-158.081,
00:00:20:367,0.78,-0.336,-0.009,104.553,-278.26,-111.023,
00:00:20:383,0.782,-0.334,-0.011,133.056,-222.535,-81.91,
00:00:20:400,0.792,-0.344,-0.01,149.17,-163.331,-54.993,
00:00:20:417,0.807,-0.358,0,142.395,-98.267,-25.635,
00:00:20:433,0.855,-0.373,0.009,104.492,-7.447,19.104,
00:00:20:450,0.96,-0.378,0.012,57.556,103.088,87.829,
00:00:20:467,1.084,-0.378,0.006,15.075,198.974,169.25,
00:00:20:483,1.174,-0.375,-0.007,-17.579,286.56,264.648,
00:00:20:500,1.202,-0.382,0.012,-32.044,363.464,363.525,
00:00:20:517,1.042,-0.444,0.134,-59.876,509.521,490.661,
00:00:20:533,0.935,-0.441,0.209,-129.09,570.19,499.145,
00:00:20:550,0.838,-0.411,0.232,-233.521,656.189,458.13,
00:00:20:567,0.767,-0.337,0.186,-317.872,718.872,385.62,
00:00:20:583,0.757,-0.243,0.138,-358.155,759.826,312.5,
00:00:20:600,0.811,-0.191,0.12,-364.563,785.095,241.455,
00:00:20:617,0.907,-0.213,0.098,-370.423,805.786,189.575,
00:00:20:633,0.995,-0.281,0.1,-389.1,755.676,165.222,
00:00:20:650,1.006,-0.248,0.108,-402.588,644.897,153.747,
00:00:20:667,0.938,-0.191,0.126,-336.121,518.798,136.901,
00:00:20:683,0.845,-0.117,0.135,-177.124,414.489,108.459,
00:00:20:700,0.763,-0.091,0.127,44.799,341.369,67.016,
00:00:20:717,0.706,-0.119,0.131,260.62,283.996,27.404,
00:00:20:733,0.693,-0.186,0.176,374.267,262.146,17.517,
00:00:20:750,0.718,-0.268,0.242,364.196,276.428,6.958,
00:00:20:767,0.777,-0.322,0.279,284.729,306.091,-6.226,walkLH
00:00:20:783,0.832,-0.318,0.255,188.354,318.603,5.92,
00:00:20:800,0.857,-0.292,0.231,141.418,301.818,30.7,
00:00:20:817,0.869,-0.29,0.235,158.142,279.113,40.649,
00:00:20:833,0.869,-0.327,0.259,189.636,273.803,51.452,
00:00:20:850,0.885,-0.387,0.291,176.33,291.076,58.105,
00:00:20:867,0.933,-0.444,0.321,109.985,333.984,50.354,
00:00:20:883,1.002,-0.466,0.32,14.465,373.23,42.907,
00:00:20:900,1.053,-0.461,0.278,-72.571,370.178,31.677,
00:00:20:917,1.062,-0.445,0.271,-105.286,326.965,-0.55,
00:00:20:933,1.062,-0.439,0.254,-86.182,312.805,-46.631,
00:00:20:950,1.096,-0.436,0.196,-34.729,307.617,-96.802,
00:00:20:967,1.156,-0.423,0.135,20.263,274.902,-147.4,
00:00:20:983,1.23,-0.388,0.054,75.134,216.247,-201.294,
00:00:21:0,1.3,-0.367,0.013,142.273,117.797,-246.766,
00:00:21:17,1.347,-0.387,0.007,210.571,12.207,-277.222,
00:00:21:33,1.438,-0.598,0.067,230.346,-100.22,-193.116,
00:00:21:50,1.505,-0.745,0.055,99.731,-104.371,-90.577,
00:00:21:67,1.5,-0.804,0.039,-60.852,-168.274,4.211,
00:00:21:83,1.301,-0.766,0.077,-194.092,-293.885,71.106,
00:00:21:100,1.052,-0.676,0.123,-326.844,-337.342,75.439,
00:00:21:117,0.883,-0.581,0.116,-518.982,-296.875,39.428,
00:00:21:133,0.85,-0.502,0.13,-722.535,-228.943,-26.123,
00:00:21:150,0.97,-0.39,0.057,-843.079,-134.522,-79.773,
00:00:21:167,1.146,-0.286,-0.039,-813.721,-192.505,-133.423,
00:00:21:183,1.186,-0.226,-0.083,-642.64,-383.912,-184.998,
00:00:21:200,1.054,-0.239,-0.039,-417.237,-562.5,-221.802,
00:00:21:217,0.884,-0.293,0.012,-232.85,-643.25,-223.572,
00:00:21:233,0.779,-0.348,0.037,-107.361,-648.926,-213.868,
00:00:21:250,0.737,-0.378,0.08,-29.297,-639.588,-219.483,
00:00:21:267,0.728,-0.386,0.086,10.376,-626.038,-233.155,
00:00:21:283,0.726,-0.372,0.045,36.438,-620.606,-250.855,
00:00:21:300,0.704,-0.342,-0.016,85.083,-639.1,-264.893,
00:00:21:317,0.659,-0.323,-0.054,148.559,-669.007,-285.462,
00:00:21:333,0.628,-0.332,-0.062,235.168,-667.725,-301.087,
00:00:21:350,0.633,-0.366,-0.049,309.692,-641.236,-311.768,
00:00:21:367,0.661,-0.403,-0.036,349.67,-612.61,-319.397,
00:00:21:383,0.674,-0.451,-0.008,244.384,-522.95,-284.852,
00:00:21:400,0.72,-0.476,0.012,195.922,-438.111,-259.339,
00:00:21:417,0.778,-0.493,-0.033,131.286,-400.513,-227.478,
00:00:21:433,0.81,-0.472,-0.061,80.688,-382.264,-173.706,
00:00:21:450,0.823,-0.43,-0.059,51.94,-350.892,-158.57,
00:00:21:467,0.874,-0.425,-0.024,37.78,-288.636,-134.095,
00:00:21:483,0.94,-0.448,0.005,9.094,-207.398,-105.408,
00:00:21:500,0.974,-0.47,0.011,-55.542,-143.006,-67.444,
00:00:21:517,1.005,-0.465,0.019,-151.856,-45.166,-3.357,
00:00:21:533,1.076,-0.428,-0.008,-218.506,66.955,68.176,
00:00:21:550,1.155,-0.367,-0.059,-221.802,155.639,148.498,
00:00:21:567,1.19,-0.334,-0.082,-145.447,204.101,219.726,
00:00:21:583,1.131,-0.334,-0.05,-11.414,242.004,275.756,
00:00:21:600,0.976,-0.363,0.051,118.469,274.841,304.87,
00:00:21:617,0.814,-0.389,0.137,169.555,362.121,312.561,
00:00:21:633,0.716,-0.392,0.17,112.548,484.253,291.992,
00:00:21:650,0.681,-0.365,0.146,0.549,596.923,250.366,
00:00:21:667,0.696,-0.326,0.102,-76.477,674.804,201.477,
00:00:21:683,0.771,-0.305,0.069,-161.255,725.708,173.889,
00:00:21:700,0.861,-0.306,0.037,-227.601,731.567,176.391,
00:00:21:717,0.908,-0.306,0.03,-268.86,672.241,188.598,
00:00:21:733,0.891,-0.289,0.044,-266.053,617.736,194.946,
00:00:21:750,0.823,-0.263,0.076,-208.863,559.753,192.688,
00:00:21:767,0.761,-0.232,0.124,-104.798,516.784,190.063,
00:00:21:783,0.738,-0.209,0.179,11.474,525.512,167.724,
00:00:21:800,0.736,-0.199,0.187,106.933,533.874,131.713,
00:00:21:817,0.751,-0.272,0.193,246.582,508.484,82.214,
00:00:21:833,0.76,-0.349,0.203,254.943,511.413,76.477,
00:00:21:850,0.78,-0.417,0.278,210.876,515.93,81.787,
00:00:21:867,0.817,-0.461,0.293,123.596,545.41,93.811,
00:00:21:883,0.86,-0.445,0.242,2.197,573.547,96.801,
00:00:21:900,0.898,-0.384,0.179,-128.846,536.132,61.279,
00:00:21:917,0.927,-0.363,0.175,-236.084,448.181,-5.86,
00:00:21:933,0.961,-0.395,0.219,-268.616,358.276,-57.312,
00:00:21:950,0.997,-0.446,0.261,-266.602,295.227,-57.312,
00:00:21:967,1.043,-0.469,0.293,-240.601,226.928,-45.044,
00:00:21:983,1.086,-0.414,0.348,-212.037,155.639,-2.625,
00:00:22:0,1.089,-0.358,0.396,-159.79,124.511,-1.404,
00:00:22:17,1.087,-0.374,0.393,-105.103,145.202,-25.391,
00:00:22:33,1.109,-0.439,0.36,-65.43,158.874,-28.26,
00:00:22:50,1.118,-0.455,0.297,-74.952,178.222,2.746,
00:00:22:67,1.203,-0.497,0.178,-46.021,191.162,26.611,
00:00:22:83,1.324,-0.487,0.12,-21.058,166.504,91.308,
00:00:22:100,1.453,-0.499,0.066,0.305,115.844,132.995,
00:00:22:117,1.541,-0.54,0.013,14.648,60.485,178.65,
00:00:22:133,1.578,-0.618,-0.029,-68.116,18.981,212.158,
00:00:22:150,1.547,-0.677,-0.036,-157.41,-63.782,262.939,
00:00:22:167,1.402,-0.598,0.017,-226.868,-179.261,284.546,
00:00:22:183,1.185,-0.548,0.052,-282.349,-246.155,226.013,
00:00:22:200,0.991,-0.447,0.036,-324.891,-293.152,123.779,
00:00:22:217,0.888,-0.343,0.027,-378.968,-321.839,5.371,
00:00:22:233,0.849,-0.279,0.031,-427.674,-328.37,-109.742,
00:00:22:250,0.935,-0.291,0.084,-435.547,-316.773,-199.463,
00:00:22:267,1.104,-0.327,0.031,-395.752,-309.937,-248.291,
00:00:22:283,1.208,-0.321,-0.064,-320.313,-466.065,-260.743,
00:00:22:300,1.124,-0.292,-0.089,-183.045,-690.064,-263.855,
00:00:22:317,0.959,-0.296,-0.053,-21.668,-821.9,-266.175,
00:00:22:333,0.845,-0.321,-0.034,130.188,-855.652,-258.484,
00:00:22:350,0.809,-0.35,-0.015,239.99,-852.906,-263.062,
00:00:22:367,0.816,-0.354,-0.013,308.532,-849.976,-295.594,
00:00:22:383,0.806,-0.34,-0.042,337.097,-854.554,-337.647,
00:00:22:400,0.767,-0.325,-0.048,355.774,-871.705,-372.376,
00:00:22:417,0.75,-0.319,-0.047,379.455,-838.44,-406.861,
00:00:22:433,0.76,-0.322,-0.083,403.259,-783.631,-438.599,
00:00:22:450,0.644,-0.338,-0.089,400.207,-697.937,-475.098,
00:00:22:467,0.616,-0.359,-0.051,339.294,-609.559,-446.961,
00:00:22:483,0.618,-0.385,-0.001,251.098,-529.786,-399.659,
00:00:22:500,0.648,-0.418,0.026,142.639,-418.763,-331.665,
00:00:22:517,0.679,-0.423,-0.003,36.743,-323.182,-245.972,
00:00:22:533,0.705,-0.397,-0.009,-27.1,-256.165,-149.292,
00:00:22:550,0.711,-0.354,-0.022,-54.322,-185.547,-56.824,
00:00:22:567,0.722,-0.327,-0.025,-44.434,-119.202,20.446,
00:00:22:583,0.775,-0.326,0.017,-28.504,34.301,161.926,
00:00:22:600,0.862,-0.342,0.015,-40.833,133.728,238.708,
00:00:22:617,0.992,-0.345,-0.012,-51.331,230.835,326.049,
00:00:22:633,1.098,-0.325,-0.066,-44.678,298.034,435.791,
00:00:22:650,1.171,-0.309,-0.083,4.455,345.52,536.804,
00:00:22:667,1.206,-0.351,-0.039,70.861,409.973,622.619,
00:00:22:683,1.171,-0.414,0.016,120.3,493.835,696.472,
00:00:22:700,1.053,-0.468,0.117,102.966,569.152,724.975,
00:00:22:717,0.909,-0.496,0.25,14.404,672.668,710.449,
00:00:22:733,0.789,-0.495,0.28,-130.249,823.974,651.977,
00:00:22:750,0.731,-0.445,0.235,-287.659,949.218,557.739,
00:00:22:767,0.741,-0.364,0.167,-446.595,1049.743,450.805,
00:00:22:783,0.829,-0.303,0.085,-589.173,1128.357,348.816,
00:00:22:800,0.965,-0.298,0.036,-682.496,1130.615,258.606,
00:00:22:817,1.071,-0.322,0.005,-764.405,1052.978,196.289,
00:00:22:833,1.092,-0.307,0.006,-782.776,903.442,143.188,
00:00:22:850,1.02,-0.248,0.041,-754.944,729.37,83.862,
00:00:22:867,0.931,-0.163,0.081,-628.785,591.43,23.254,
00:00:22:883,0.86,-0.098,0.098,-416.81,495.849,-39.368,
00:00:22:900,0.837,-0.087,0.105,-188.05,420.227,-96.314,
00:00:22:917,0.845,-0.118,0.116,-8.667,355.651,-137.391,
00:00:22:933,0.867,-0.167,0.141,90.82,287.719,-185.242,
00:00:22:950,0.882,-0.195,0.172,150.085,229.187,-220.948,
00:00:22:967,0.892,-0.212,0.211,179.748,200.927,-240.845,
00:00:22:983,0.898,-0.238,0.231,201.782,203.308,-234.498,
00:00:23:0,0.905,-0.276,0.227,185.547,209.228,-240.845,
00:00:23:17,0.94,-0.318,0.242,138.549,201.172,-198.67,
00:00:23:33,0.968,-0.273,0.261,69.152,165.771,-134.217,
00:00:23:50,0.969,-0.217,0.285,13.549,137.939,-92.469,
00:00:23:67,0.981,-0.157,0.307,-13.855,133.728,-56.519,
00:00:23:83,1.008,-0.125,0.295,-11.719,141.174,-44.434,
00:00:23:100,1.067,-0.155,0.309,29.785,127.685,-56.214,
00:00:23:117,1.087,-0.203,0.298,59.692,136.535,-55.848,
00:00:23:133,1.071,-0.305,0.262,62.683,152.893,-69.642,
00:00:23:150,1.058,-0.388,0.214,28.564,182.129,-46.509,
00:00:23:167,1.086,-0.415,0.168,-18.128,208.313,10.376,
00:00:23:183,1.156,-0.354,0.099,-35.645,221.984,85.327,
00:00:23:200,1.265,-0.34,0.045,-30.884,207.397,113.403,
00:00:23:217,1.38,-0.372,0.015,0.366,140.503,166.32,
00:00:23:233,1.474,-0.446,0.016,-23.865,83.74,215.576,
00:00:23:250,1.583,-0.54,0.04,-123.597,45.41,251.892,
00:00:23:267,1.608,-0.558,0.025,-201.905,-33.448,323.242,
00:00:23:283,1.456,-0.503,0.032,-252.259,-187.439,329.651,
00:00:23:300,1.222,-0.446,0.063,-272.034,-296.57,272.4,
00:00:23:317,1.012,-0.372,0.047,-274.72,-367.737,191.772,
00:00:23:333,0.907,-0.281,0.049,-296.204,-394.776,91.98,
00:00:23:350,0.951,-0.215,0.056,-334.961,-354.676,-2.015,
00:00:23:367,1.111,-0.186,-0.011,-321.045,-349.488,-78.736,
00:00:23:383,1.229,-0.186,-0.068,-241.883,-496.644,-128.846,
00:00:23:400,1.196,-0.212,-0.051,-130.127,-701.905,-145.02,
00:00:23:417,1.073,-0.24,-0.008,-20.935,-826.05,-138.001,
00:00:23:433,0.963,-0.261,0.006,115.661,-886.658,-129.395,
00:00:23:450,0.92,-0.272,0.026,261.291,-919.556,-137.818,
00:00:23:467,0.891,-0.27,-0.014,387.451,-932.435,-166.26,
00:00:23:483,0.858,-0.253,-0.044,484.13,-973.755,-211.243,
00:00:23:500,0.819,-0.237,-0.07,571.533,-991.15,-264.405,
00:00:23:517,0.793,-0.236,-0.095,635.07,-985.23,-325.745,
00:00:23:533,0.783,-0.249,-0.121,676.208,-967.652,-382.142,
00:00:23:550,0.785,-0.268,-0.136,698.608,-945.313,-426.392,
00:00:23:567,0.781,-0.292,-0.13,694.885,-916.993,-457.825,
00:00:23:583,0.777,-0.322,-0.101,660.156,-871.705,-474.488,
00:00:23:600,0.766,-0.35,-0.074,594.421,-802.308,-465.394,
00:00:23:617,0.768,-0.365,-0.042,518.127,-717.408,-431.092,
00:00:23:633,0.766,-0.371,0,429.199,-630.921,-374.146,
00:00:23:650,0.763,-0.374,0.03,342.59,-533.631,-311.524,
00:00:23:667,0.742,-0.36,0.017,274.719,-438.538,-254.7,
00:00:23:683,0.741,-0.335,0.005,232.116,-345.643,-196.412,
00:00:23:700,0.737,-0.306,-0.02,204.589,-256.775,-130.555,
00:00:23:717,0.725,-0.291,-0.017,194.885,-195.862,-64.759,
00:00:23:733,0.746,-0.293,-0.002,175.109,-98.694,-13.916,
00:00:23:750,0.845,-0.321,0.006,157.409,18.432,65.551,
00:00:23:767,0.955,-0.347,-0.012,136.779,115.966,158.63,
00:00:23:783,1.055,-0.35,-0.019,116.882,202.392,268.493,
00:00:23:800,1.124,-0.355,-0.004,117.981,301.513,383.85,
00:00:23:817,1.123,-0.386,0.053,139.038,381.591,459.35,
00:00:23:833,1.017,-0.432,0.101,133.239,483.398,513.427,
00:00:23:850,0.913,-0.46,0.162,89.599,571.899,523.986,
00:00:23:867,0.814,-0.466,0.202,-14.832,676.147,497.436,
00:00:23:883,0.75,-0.43,0.208,-132.019,769.958,436.706,
00:00:23:900,0.744,-0.367,0.183,-272.706,865.112,357.91,
00:00:23:917,0.812,-0.312,0.159,-386.231,934.204,282.409,
00:00:23:933,0.916,-0.284,0.126,-473.328,971.374,204.162,
00:00:23:950,1.005,-0.272,0.081,-515.198,932.067,140.319,
00:00:23:967,1.032,-0.241,0.059,-507.203,817.26,89.416,
00:00:23:983,0.998,-0.194,0.066,-431.885,671.63,38.635,
00:00:24:0,0.928,-0.153,0.067,-287.476,542.358,-0.916,
00:00:24:17,0.88,-0.129,0.072,-101.502,439.636,-32.349,
00:00:24:33,0.886,-0.133,0.096,65.673,365.661,-50.843,
00:00:24:50,0.916,-0.168,0.1,199.524,300.232,-76.05,
00:00:24:67,0.943,-0.21,0.128,257.08,212.707,-85.083,
00:00:24:83,0.936,-0.247,0.168,252.746,167.846,-75.196,
00:00:24:100,0.942,-0.275,0.212,213.379,158.325,-56.275,
00:00:24:117,0.968,-0.27,0.256,190.429,147.827,-33.387,
00:00:24:133,0.971,-0.263,0.304,189.941,126.831,-26.123,
00:00:24:150,0.929,-0.282,0.338,174.438,131.652,-17.945,
00:00:24:167,0.903,-0.306,0.371,124.145,164.795,-12.452,
00:00:24:183,0.921,-0.301,0.343,40.466,223.205,15.869,
00:00:24:200,0.96,-0.284,0.291,-41.199,243.469,36.743,
00:00:24:217,0.986,-0.256,0.23,-109.131,232.727,57.312,
00:00:24:233,1.042,-0.235,0.202,-115.784,193.176,71.106,
00:00:24:250,1.116,-0.141,0.197,-38.147,149.414,107.605,
00:00:24:267,1.191,-0.125,0.146,59.387,142.212,92.163,
00:00:24:283,1.323,-0.112,0.17,205.383,17.211,73.547,
00:00:24:300,1.326,-0.186,0.153,383.667,-132.203,16.54,
00:00:24:317,1.298,-0.351,0.173,588.867,-252.747,16.601,
00:00:24:333,1.26,-0.561,0.122,641.967,-278.992,113.403,
00:00:24:350,1.233,-0.65,0.088,475.647,-306.092,298.034,
00:00:24:367,1.216,-0.492,0.11,275.085,-364.93,436.706,
00:00:24:383,1.112,-0.344,0.1,142.089,-393.799,386.474,
00:00:24:400,1.036,-0.306,0.109,87.646,-419.19,287.475,
00:00:24:417,1.002,-0.232,0.086,95.092,-446.778,224.06,
00:00:24:433,1.025,-0.119,0.035,155.7,-471.741,125.549,
00:00:24:450,1.113,-0.059,-0.038,276.855,-510.498,11.352,
00:00:24:467,1.214,-0.073,-0.105,457.702,-600.831,-86.853,
00:00:24:483,1.248,-0.129,-0.145,670.288,-749.146,-164.49,
00:00:24:500,1.197,-0.192,-0.157,854.919,-890.809,-210.877,
00:00:24:517,1.128,-0.238,-0.15,1010.254,-971.619,-248.291,
00:00:24:533,1.057,-0.285,-0.146,1102.844,-1015.32,-281.495,
00:00:24:550,0.977,-0.324,-0.127,1168.884,-1035.462,-314.393,
00:00:24:567,0.902,-0.352,-0.093,1179.87,-1023.56,-343.567,
00:00:24:583,0.839,-0.355,-0.078,1125.122,-966.065,-368.409,
00:00:24:600,0.811,-0.36,-0.057,1051.574,-901.185,-381.226,
00:00:24:617,0.802,-0.36,-0.05,934.936,-820.801,-382.935,
00:00:24:633,0.807,-0.356,-0.04,796.508,-739.808,-367.737,
00:00:24:650,0.82,-0.356,-0.03,645.507,-664.063,-331.727,
00:00:24:667,0.849,-0.364,-0.018,498.718,-592.591,-275.025,
00:00:24:683,0.877,-0.363,-0.022,362.976,-531.861,-196.9,
00:00:24:700,0.891,-0.332,-0.037,267.273,-494.568,-111.39,
00:00:24:717,0.877,-0.282,-0.055,233.337,-474.122,-37.354,
00:00:24:733,0.849,-0.235,-0.094,262.512,-467.347,33.874,
00:00:24:750,0.844,-0.216,-0.065,334.167,-455.994,95.581,
00:00:24:767,0.903,-0.213,-0.087,421.936,-420.533,154.297,walkLH
00:00:24:783,0.977,-0.203,-0.135,515.564,-403.931,207.702,
00:00:24:800,1.006,-0.208,-0.155,630.432,-419.678,247.436,
00:00:24:817,0.97,-0.234,-0.141,743.896,-413.514,282.043,
00:00:24:833,0.915,-0.282,-0.1,815.979,-361.39,325.378,
00:00:24:850,0.896,-0.337,-0.055,845.947,-271.302,366.943,
00:00:24:867,0.89,-0.363,-0.022,836.486,-168.824,401.977,
00:00:24:883,0.859,-0.367,0.007,800.903,-70.679,425.048,
00:00:24:900,0.827,-0.364,0.061,735.839,40.1,440.429,
00:00:24:917,0.827,-0.377,0.143,631.286,167.602,457.275,
00:00:24:933,0.838,-0.408,0.161,466.797,305.908,483.032,
00:00:24:950,0.864,-0.42,0.174,297.302,414.856,510.437,
00:00:24:967,0.877,-0.405,0.207,139.587,488.525,546.264,
00:00:24:983,0.876,-0.371,0.218,35.888,544.25,576.66,
00:00:25:0,0.886,-0.317,0.182,11.779,587.707,589.477,
00:00:25:17,0.912,-0.25,0.125,76.965,580.505,592.895,
00:00:25:33,0.956,-0.193,0.082,210.754,559.997,583.618,
00:00:25:50,0.995,-0.164,0.041,392.456,497.863,559.021,
00:00:25:67,1.021,-0.18,0.018,569.824,411.438,524.047,
00:00:25:83,1.05,-0.252,0.084,692.627,320.312,493.896,
00:00:25:100,1.088,-0.318,0.18,743.957,262.573,464.355,
00:00:25:117,1.089,-0.345,0.175,732.849,233.459,426.696,
00:00:25:133,1.061,-0.329,0.14,725.463,167.602,392.334,
00:00:25:150,1.017,-0.301,0.126,746.948,96.801,348.877,
00:00:25:167,0.979,-0.297,0.101,792.358,35.095,303.833,
00:00:25:183,0.968,-0.316,0.089,840.088,-23.499,263.427,
00:00:25:200,0.978,-0.336,0.096,872.741,-68.787,223.449,
00:00:25:217,0.995,-0.342,0.104,898.681,-116.883,170.349,
00:00:25:233,0.99,-0.327,0.096,925.354,-166.748,119.384,
00:00:25:250,0.967,-0.305,0.076,967.102,-208.069,69.885,
00:00:25:267,0.951,-0.302,0.052,1026.733,-237.244,21.179,
00:00:25:283,0.951,-0.322,0.018,1077.88,-258.728,-18.677,
00:00:25:300,0.955,-0.347,-0.015,1093.322,-286.988,-47.608,
00:00:25:317,0.955,-0.366,-0.036,1078.125,-312.5,-64.637,
00:00:25:333,0.935,-0.376,-0.036,1048.339,-340.516,-79.468,
00:00:25:350,0.886,-0.378,-0.029,1014.038,-356.263,-93.384,
00:00:25:367,0.838,-0.391,0.003,955.322,-343.14,-104.248,
00:00:25:383,0.804,-0.395,0.024,917.663,-298.34,-115.357,
00:00:25:400,0.796,-0.391,0.061,856.994,-241.517,-128.846,
00:00:25:417,0.805,-0.37,0.072,797.851,-166.382,-143.25,
00:00:25:433,0.82,-0.341,0.074,746.46,-105.652,-156.922,
00:00:25:450,0.819,-0.318,0.069,714.538,-54.505,-168.335,
00:00:25:467,0.817,-0.31,0.056,692.627,-11.902,-170.533,
00:00:25:483,0.811,-0.314,0.071,675.354,17.883,-165.528,
00:00:25:500,0.811,-0.317,0.094,656.25,49.987,-157.105,
00:00:25:517,0.809,-0.311,0.117,629.882,76.11,-145.508,
00:00:25:533,0.807,-0.299,0.127,603.942,104.553,-132.935,
00:00:25:550,0.817,-0.289,0.122,587.463,126.281,-122.132,
00:00:25:567,0.837,-0.293,0.154,575.378,143.432,-104.248,
00:00:25:583,0.869,-0.312,0.128,562.133,161.56,-83.558,
00:00:25:600,0.921,-0.347,0.139,532.714,180.053,-60.852,
00:00:25:617,0.969,-0.379,0.128,471.618,201.11,-25.574,
00:00:25:633,1.018,-0.38,0.13,372.375,201.294,22.155,
00:00:25:650,1.085,-0.389,0.147,273.925,240.783,46.081,
00:00:25:667,1.174,-0.417,0.134,165.649,288.147,88.378,
00:00:25:683,1.291,-0.444,0.149,24.536,307.251,154.602,
00:00:25:700,1.436,-0.448,0.257,-127.686,298.217,206.543,
00:00:25:717,1.5,-0.412,0.315,-218.14,284.668,233.947,
00:00:25:733,1.331,-0.177,0.174,96.984,94.604,216.797,
00:00:25:750,1.21,-0.147,0.122,307.373,-40.284,161.865,
00:00:25:767,1.065,-0.182,0.103,475.891,-204.651,95.031,
00:00:25:783,0.962,-0.217,0.119,612.121,-325.257,60.669,
00:00:25:800,0.915,-0.258,0.114,677.795,-389.954,16.052,
00:00:25:817,0.955,-0.295,0.069,728.332,-428.528,-39.551,
00:00:25:833,1.061,-0.305,-0.006,755.493,-537.293,-91.431,
00:00:25:850,1.068,-0.325,-0.047,804.87,-697.022,-162.415,
00:00:25:867,1.011,-0.348,-0.057,872.985,-863.038,-233.887,
00:00:25:883,0.924,-0.405,-0.06,922.424,-955.018,-283.509,
00:00:25:900,0.863,-0.395,-0.061,969.055,-984.498,-330.567,
00:00:25:917,0.841,-0.397,-0.072,1047.729,-991.944,-399.842,
00:00:25:933,0.823,-0.402,-0.095,1160.644,-990.967,-473.023,
00:00:25:950,0.8,-0.423,-0.101,1265.93,-978.028,-540.162,
00:00:25:967,0.765,-0.493,-0.054,1287.719,-938.416,-591.187,
00:00:25:983,0.762,-0.58,0.039,1220.764,-820.923,-608.643,
00:00:26:0,0.806,-0.631,0.088,1072.998,-662.598,-593.262,
00:00:26:17,0.823,-0.62,0.064,894.714,-543.702,-565.552,
00:00:26:33,0.791,-0.565,0.024,718.2,-474.06,-522.644,
00:00:26:50,0.748,-0.511,-0.003,579.345,-417.42,-480.103,
00:00:26:67,0.718,-0.483,-0.043,476.257,-367.798,-441.712,
00:00:26:83,0.712,-0.472,-0.075,412.963,-348.877,-397.339,
00:00:26:100,0.705,-0.467,-0.082,375.976,-348.145,-353.943,
00:00:26:117,0.693,-0.462,-0.047,339.721,-338.868,-302.918,
00:00:26:133,0.667,-0.459,-0.009,282.714,-309.571,-245.789,
00:00:26:150,0.639,-0.456,0.033,248.596,-262.146,-192.505,
00:00:26:167,0.618,-0.456,0.076,191.894,-193.299,-142.579,
00:00:26:183,0.611,-0.448,0.09,130.859,-113.465,-93.567,
00:00:26:200,0.617,-0.427,0.093,87.28,-35.035,-36.072,
00:00:26:217,0.635,-0.404,0.099,62.316,18.859,21.606,
00:00:26:233,0.654,-0.403,0.117,36.193,67.871,81.604,
00:00:26:250,0.673,-0.426,0.126,-19.043,109.863,149.963,
00:00:26:267,0.713,-0.479,0.12,-105.042,154.968,221.313,
00:00:26:283,0.801,-0.525,0.104,-236.512,218.628,309.57,
00:00:26:300,0.914,-0.553,0.072,-408.631,268.615,417.785,
00:00:26:317,0.997,-0.544,0.031,-596.558,280.09,518.371,
00:00:26:333,1.046,-0.492,-0.006,-756.348,296.081,635.986,
00:00:26:350,1.125,-0.437,-0.031,-852.723,353.881,716.552,
00:00:26:367,1.26,-0.371,-0.04,-850.281,431.457,797.485,
00:00:26:383,1.42,-0.295,-0.043,-745.545,502.075,845.214,
00:00:26:400,1.482,-0.251,0.005,-549.683,543.64,829.467,
00:00:26:417,1.383,-0.258,0.151,-312.806,605.224,762.695,
00:00:26:433,1.193,-0.299,0.277,-126.221,700.256,666.626,
00:00:26:450,1.02,-0.336,0.337,-21.546,778.564,548.339,
00:00:26:467,0.881,-0.339,0.321,14.16,815.368,406.128,
00:00:26:483,0.788,-0.3,0.22,-23.377,828.979,260.131,
00:00:26:500,0.791,-0.235,0.12,-85.633,830.261,139.221,
00:00:26:517,0.857,-0.201,0.025,-150.33,798.217,37.475,
00:00:26:533,0.93,-0.199,-0.057,-189.454,679.382,-42.115,
00:00:26:550,0.956,-0.199,-0.104,-196.473,487.304,-97.779,
00:00:26:567,0.958,-0.195,-0.073,-142.212,283.63,-125.916,
00:00:26:583,0.943,-0.178,-0.021,-66.468,116.272,-132.935,
00:00:26:600,0.901,-0.147,0.018,76.11,-56.214,-144.715,
00:00:26:617,0.816,-0.121,0.06,244.384,-194.519,-165.284,
00:00:26:633,0.684,-0.246,0.197,646.911,-159.852,-233.521,
00:00:26:650,0.712,-0.278,0.207,638.977,-99.183,-223.694,
00:00:26:667,0.733,-0.32,0.209,601.44,-47.425,-197.937,
00:00:26:683,0.731,-0.368,0.229,533.813,7.69,-169.068,
00:00:26:700,0.73,-0.404,0.244,395.507,95.825,-125,
00:00:26:717,0.752,-0.418,0.247,210.388,185.119,-78.736,
00:00:26:733,0.797,-0.384,0.239,26.184,259.216,-44.251,
00:00:26:750,0.846,-0.332,0.216,-116.028,304.443,-29.908,
00:00:26:767,0.886,-0.307,0.2,-193.421,325.317,-18.311,
00:00:26:783,0.932,-0.323,0.209,-229.676,337.89,-5.433,
00:00:26:800,1,-0.373,0.237,-265.442,363.342,13.61,
00:00:26:817,1.109,-0.402,0.226,-302.369,395.63,39.489,
00:00:26:833,1.242,-0.384,0.17,-326.844,395.996,65.246,
00:00:26:850,1.337,-0.333,0.073,-317.2,329.223,71.411,
00:00:26:867,1.398,-0.291,-0.013,-260.437,228.332,72.021,
00:00:26:883,1.458,-0.284,-0.057,-175.843,117.553,76.66,
00:00:26:900,1.538,-0.303,-0.072,-68.238,21.362,81.97,
00:00:26:917,1.609,-0.35,-0.073,29.357,-88.196,80.993,
00:00:26:933,1.578,-0.428,-0.034,79.284,-201.477,62.622,
00:00:26:950,1.454,-0.51,0.045,58.105,-279.236,47.973,
00:00:26:967,1.271,-0.539,0.107,-18.677,-312.317,20.996,
00:00:26:983,1.091,-0.496,0.111,-163.514,-309.998,-26.734,
00:00:27:0,0.943,-0.403,0.085,-335.144,-293.58,-100.403,
00:00:27:17,0.935,-0.324,0.046,-471.985,-275.452,-179.993,
00:00:27:33,1.025,-0.264,-0.044,-510.376,-273.682,-237,
00:00:27:50,1.122,-0.23,-0.122,-443.97,-345.52,-259.4,
00:00:27:67,1.184,-0.218,-0.162,-290.711,-513.428,-275.452,
00:00:27:83,1.079,-0.221,-0.117,-122.742,-718.995,-286.805,
00:00:27:100,0.919,-0.258,-0.044,15.014,-810.12,-284.18,
00:00:27:117,0.802,-0.299,-0.004,118.591,-805.298,-275.269,
00:00:27:133,0.76,-0.325,0.056,195.617,-765.87,-285.34,
00:00:27:150,0.757,-0.26,-0.062,349.304,-744.935,-360.779,
00:00:27:167,0.691,-0.259,-0.077,421.081,-765.259,-401.49,
00:00:27:183,0.65,-0.286,-0.078,466.43,-734.803,-422.791,
00:00:27:200,0.647,-0.319,-0.076,490.356,-693.36,-434.082,
00:00:27:217,0.651,-0.348,-0.048,477.172,-662.659,-443.482,
00:00:27:233,0.669,-0.373,-0.027,424.56,-604.554,-435.303,
00:00:27:250,0.685,-0.386,-0.02,344.055,-537.293,-398.987,
00:00:27:267,0.711,-0.398,-0.005,269.043,-491.7,-346.741,
00:00:27:283,0.745,-0.407,0.009,187.5,-420.533,-281.678,
00:00:27:300,0.775,-0.412,0.006,148.498,-364.014,-214.905,
00:00:27:317,0.791,-0.409,-0.002,105.651,-321.106,-134.4,
00:00:27:333,0.802,-0.387,0.005,80.81,-272.583,-62.439,
00:00:27:350,0.818,-0.361,0.003,74.523,-215.577,-1.16,
00:00:27:367,0.858,-0.355,0.001,79.284,-162.72,43.518,
00:00:27:383,0.937,-0.365,-0.005,90.087,-99.793,86.364,
00:00:27:400,1.05,-0.357,-0.058,81.481,-27.466,147.4,
00:00:27:417,1.18,-0.336,-0.117,103.637,11.352,211.731,
00:00:27:433,1.26,-0.316,-0.13,167.785,28.625,276.428,
00:00:27:450,1.268,-0.337,-0.091,257.751,71.594,357.971,
00:00:27:467,1.219,-0.388,-0.017,329.345,131.408,398.864,
00:00:27:483,1.094,-0.448,0.053,355.407,208.679,432.067,
00:00:27:500,0.948,-0.469,0.109,309.509,296.569,436.645,
00:00:27:517,0.833,-0.461,0.147,201.294,396.85,409.301,
00:00:27:533,0.756,-0.427,0.147,38.147,509.704,343.505,
00:00:27:550,0.741,-0.379,0.136,-117.737,602.234,279.419,
00:00:27:567,0.778,-0.32,0.123,-280.274,688.72,225.952,
00:00:27:583,0.848,-0.294,0.13,-392.823,731.994,186.279,
00:00:27:600,0.906,-0.286,0.136,-447.693,731.933,160.522,
00:00:27:617,0.904,-0.259,0.105,-436.829,683.41,142.883,
00:00:27:633,0.842,-0.2,0.094,-352.234,579.712,137.756,
00:00:27:650,0.748,-0.151,0.094,-190.491,472.107,131.897,
00:00:27:667,0.678,-0.135,0.1,21.972,415.588,128.479,
00:00:27:683,0.671,-0.157,0.11,211.303,395.019,129.394,
00:00:27:700,0.74,-0.221,0.167,331.237,385.254,127.746,
00:00:27:717,0.821,-0.282,0.16,365.539,365.173,122.192,
00:00:27:733,0.864,-0.316,0.134,346.801,285.4,120.605,
00:00:27:750,0.858,-0.343,0.141,299.255,228.82,119.873,
00:00:27:767,0.856,-0.395,0.197,265.442,214.111,128.845,
00:00:27:783,0.892,-0.42,0.24,254.638,222.595,144.653,
00:00:27:800,0.925,-0.419,0.231,231.567,229.37,139.221,
00:00:27:817,0.935,-0.423,0.232,186.218,224.853,103.088,
00:00:27:833,0.91,-0.446,0.257,93.75,243.652,65.551,
00:00:27:850,0.907,-0.455,0.303,-17.579,290.161,52.856,
00:00:27:867,0.955,-0.432,0.291,-116.822,362.609,40.222,
00:00:27:883,1.007,-0.381,0.236,-152.588,386.901,14.709,
00:00:27:900,1.028,-0.331,0.196,-116.883,342.529,-8.851,
00:00:27:917,1.022,-0.334,0.167,-43.396,297.729,-44.617,
00:00:27:933,1.031,-0.375,0.14,36.743,260.07,-35.828,
00:00:27:950,1.084,-0.423,0.1,78.918,233.703,-24.964,
00:00:27:967,1.175,-0.452,0.077,99.304,204.223,-9.034,
00:00:27:983,1.265,-0.463,0.065,111.938,163.208,5.004,
00:00:28:0,1.343,-0.496,0.121,124.023,108.337,24.658,
00:00:28:17,1.443,-0.555,0.145,101.135,126.648,68.847,
00:00:28:33,1.563,-0.623,0.078,49.316,136.779,109.436,
00:00:28:50,1.589,-0.682,0.033,-35.34,37.841,152.099,
00:00:28:67,1.398,-0.692,0.032,-148.255,-97.29,166.076,
00:00:28:83,1.162,-0.628,0.034,-285.706,-178.894,144.287,
00:00:28:100,1.006,-0.517,0.035,-398.011,-210.45,86.731,
00:00:28:117,0.971,-0.402,0.067,-497.315,-207.825,-3.968,
00:00:28:133,1.038,-0.331,0.079,-584.473,-185.364,-98.45,
00:00:28:150,1.175,-0.303,0.046,-600.586,-218.262,-177.674,
00:00:28:167,1.224,-0.276,-0.023,-536.622,-362.366,-223.816,
00:00:28:183,1.122,-0.248,-0.038,-416.81,-556.641,-243.47,
00:00:28:200,0.97,-0.24,-0.013,-257.264,-689.637,-261.719,
00:00:28:217,0.791,-0.324,0.096,58.532,-761.536,-323.304,
00:00:28:233,0.826,-0.312,0.044,72.998,-722.779,-339.844,
00:00:28:250,0.843,-0.27,-0.025,111.328,-760.56,-359.742,
00:00:28:267,0.808,-0.243,-0.06,195.312,-818.543,-382.935,
00:00:28:283,0.765,-0.26,-0.074,282.837,-828.37,-397.095,
00:00:28:300,0.775,-0.374,-0.046,311.462,-741.028,-376.404,
00:00:28:317,0.784,-0.388,-0.027,253.723,-702.088,-348.816,
00:00:28:333,0.786,-0.38,-0.017,201.11,-647.644,-314.454,
00:00:28:350,0.79,-0.366,-0.021,173.767,-590.882,-279.358,
00:00:28:367,0.782,-0.336,-0.025,172.851,-542.786,-251.587,
00:00:28:383,0.778,-0.319,0,195.556,-491.578,-224.305,
00:00:28:400,0.783,-0.31,0,220.092,-421.692,-200.684,
00:00:28:417,0.82,-0.312,0.023,249.878,-366.211,-170.655,
00:00:28:433,0.854,-0.318,0.021,257.202,-312.684,-134.705,
00:00:28:450,0.879,-0.331,0.056,260.681,-282.837,-86.67,
00:00:28:467,0.902,-0.322,0.064,248.718,-219.971,-14.954,
00:00:28:483,0.936,-0.305,0.008,251.342,-152.588,76.355,
00:00:28:500,0.966,-0.294,-0.058,300.232,-115.357,171.203,
00:00:28:517,1,-0.312,-0.037,382.995,-79.224,292.785,
00:00:28:533,1.029,-0.387,0.037,458.618,-16.785,404.235,
00:00:28:550,0.997,-0.49,0.122,474.548,62.377,487.976,
00:00:28:567,0.889,-0.551,0.21,401.367,155.944,540.1,
00:00:28:583,0.762,-0.552,0.242,237.06,266.418,556.396,
00:00:28:600,0.68,-0.505,0.18,37.658,415.1,523.986,
00:00:28:617,0.677,-0.429,0.103,-138.855,544.799,471.435,
00:00:28:633,0.744,-0.367,0.046,-278.87,647.949,404.358,
00:00:28:650,0.879,-0.358,0.071,-398.926,709.777,334.106,
00:00:28:667,1.026,-0.4,0.118,-528.443,735.229,287.78,
00:00:28:683,1.066,-0.414,0.103,-637.269,734.802,239.563,
00:00:28:700,0.99,-0.324,0.07,-680.054,671.692,188.293,
00:00:28:717,0.874,-0.202,0.077,-603.028,589.904,126.22,
00:00:28:733,0.791,-0.121,0.135,-400.208,532.531,58.837,
00:00:28:750,0.764,-0.106,0.212,-140.442,500.976,-13.123,
00:00:28:767,0.737,-0.133,0.163,52.978,482.055,-70.435,walkLH
00:00:28:783,0.728,-0.158,0.135,226.928,410.827,-108.948,
00:00:28:800,0.715,-0.192,0.139,325.5,350.402,-127.259,
00:00:28:817,0.712,-0.252,0.167,347.717,320.251,-119.935,
00:00:28:833,0.744,-0.318,0.231,311.462,315.429,-86.548,
00:00:28:850,0.794,-0.362,0.256,234.13,348.877,-33.814,
00:00:28:867,0.838,-0.373,0.26,161.438,362.915,4.943,
00:00:28:883,0.866,-0.365,0.275,112.854,370.971,37.353,
00:00:28:900,0.877,-0.374,0.289,67.016,404.907,79.65,
00:00:28:917,0.903,-0.4,0.286,11.596,455.017,119.445,
00:00:28:933,0.947,-0.421,0.258,-55.298,514.587,155.761,
00:00:28:950,0.996,-0.424,0.201,-121.277,557.19,174.438,
00:00:28:967,1.025,-0.418,0.14,-171.998,559.509,189.575,
00:00:28:983,1.032,-0.414,0.115,-207.642,549.682,207.336,
00:00:29:0,1.065,-0.468,0.224,-233.46,532.409,212.341,
00:00:29:17,1.131,-0.48,0.313,-287.232,561.157,207.275,
00:00:29:33,1.165,-0.468,0.264,-320.191,582.946,174.011,
00:00:29:50,1.209,-0.384,0.169,-281.128,549.377,153.259,
00:00:29:67,1.281,-0.303,0.085,-142.518,476.623,146.545,
00:00:29:83,1.398,-0.297,0.005,46.203,346.008,139.709,
00:00:29:100,1.528,-0.409,0.027,166.015,211.609,150.695,
00:00:29:117,1.638,-0.571,0.052,215.088,70.373,163.574,
00:00:29:133,1.613,-0.733,0.057,105.163,-58.045,174.56,
00:00:29:150,1.159,-0.634,0.171,-255.555,-298.645,158.813,
00:00:29:167,0.983,-0.473,0.151,-365.174,-309.449,90.087,
00:00:29:183,0.945,-0.364,0.131,-462.952,-287.171,-35.401,
00:00:29:200,1.065,-0.295,0.074,-484.009,-255.127,-156.006,
00:00:29:217,1.235,-0.253,-0.026,-403.26,-366.333,-253.113,
00:00:29:233,1.28,-0.249,-0.093,-262.574,-601.075,-334.778,
00:00:29:250,1.176,-0.261,-0.093,-111.634,-790.467,-374.878,
00:00:29:267,1.026,-0.287,-0.056,6.836,-913.025,-407.471,
00:00:29:283,0.945,-0.315,-0.027,111.877,-942.505,-434.937,
00:00:29:300,0.92,-0.332,-0.016,199.524,-956.36,-472.84,
00:00:29:317,0.897,-0.323,-0.028,265.686,-982.605,-508.423,
00:00:29:333,0.857,-0.314,-0.035,325.622,-1000.733,-545.777,
00:00:29:350,0.806,-0.307,-0.06,384.216,-986.512,-583.13,
00:00:29:367,0.767,-0.316,-0.092,422.607,-958.68,-609.314,
00:00:29:383,0.779,-0.327,-0.1,439.697,-926.88,-630.555,
00:00:29:400,0.735,-0.346,-0.091,426.513,-885.804,-636.048,
00:00:29:417,0.722,-0.363,-0.075,376.403,-827.881,-618.47,
00:00:29:433,0.709,-0.384,-0.06,295.471,-759.705,-564.393,
00:00:29:450,0.718,-0.407,-0.043,204.284,-683.289,-505.066,
00:00:29:467,0.729,-0.402,-0.063,58.715,-533.326,-362.732,
00:00:29:483,0.717,-0.376,-0.049,38.269,-482.361,-286.988,
00:00:29:500,0.701,-0.349,-0.027,42.358,-404.969,-218.75,
00:00:29:517,0.697,-0.33,-0.011,61.096,-323.121,-161.988,
00:00:29:533,0.705,-0.321,-0.01,79.711,-236.939,-114.502,
00:00:29:550,0.729,-0.326,-0.009,87.341,-152.161,-63.965,
00:00:29:567,0.764,-0.351,-0.01,76.721,-74.524,-3.418,
00:00:29:583,0.822,-0.361,-0.024,51.696,6.713,75.073,
00:00:29:600,0.918,-0.355,-0.047,23.62,94.726,178.405,
00:00:29:617,1.009,-0.334,-0.09,35.766,156.86,277.465,
00:00:29:633,1.07,-0.327,-0.091,68.481,208.007,397.216,
00:00:29:650,1.095,-0.336,-0.073,114.196,276.977,507.507,
00:00:29:667,1.1,-0.381,-0.042,160.949,376.587,600.647,
00:00:29:683,1.046,-0.435,0.032,200.805,448.059,669.067,
00:00:29:700,0.93,-0.469,0.13,180.481,522.827,688.903,
00:00:29:717,0.83,-0.481,0.188,94.177,647.4,669.372,
00:00:29:733,0.775,-0.464,0.192,-17.823,763.61,613.769,
00:00:29:750,0.768,-0.412,0.15,-135.926,862.365,540.893,
00:00:29:767,0.837,-0.351,0.098,-249.939,947.876,466.613,
00:00:29:783,0.951,-0.327,0.039,-352.662,997.009,398.864,
00:00:29:800,1.043,-0.344,0.005,-424.744,966.674,333.801,
00:00:29:817,1.042,-0.36,0.027,-467.957,865.6,291.626,
00:00:29:833,0.971,-0.331,0.083,-475.281,763.305,268.188,
00:00:29:850,0.891,-0.262,0.155,-423.706,686.706,229.37,
00:00:29:867,0.832,-0.158,0.161,-293.152,642.517,169.616,
00:00:29:883,0.796,-0.148,0.143,-106.324,580.871,120.361,
00:00:29:900,0.775,-0.173,0.144,74.218,514.587,83.862,
00:00:29:917,0.772,-0.249,0.159,184.448,471.679,67.26,
00:00:29:933,0.796,-0.342,0.226,192.505,439.27,69.763,
00:00:29:950,0.841,-0.432,0.282,112.243,449.218,81.543,
00:00:29:967,0.889,-0.45,0.288,-14.1,455.505,103.942,
00:00:29:983,0.905,-0.409,0.278,-128.174,432.8,120.483,
00:00:30:0,0.9,-0.35,0.283,-183.167,408.813,117.553,
00:00:30:17,0.893,-0.323,0.281,-195.435,407.165,99.243,
00:00:30:33,0.926,-0.342,0.287,-182.923,407.226,71.777,
00:00:30:50,0.991,-0.36,0.268,-180.787,407.348,56.457,
00:00:30:67,1.047,-0.36,0.204,-195.252,387.146,41.381,
00:00:30:83,1.095,-0.356,0.135,-203.37,331.543,24.963,
00:00:30:100,1.133,-0.356,0.101,-206.849,255.005,16.967,
00:00:30:117,1.163,-0.376,0.101,-156.373,175.659,-0.123,
00:00:30:133,1.183,-0.401,0.099,-104.859,106.262,-25.513,
00:00:30:150,1.178,-0.404,0.066,-64.942,32.592,-55.603,
00:00:30:167,1.186,-0.374,0.037,-21.973,-44.007,-94.666,
00:00:30:183,1.182,-0.358,0.021,29.174,-54.505,-132.325,
00:00:30:200,1.24,-0.384,0,61.462,-80.689,-168.58,
00:00:30:217,1.289,-0.439,0.006,71.838,-121.094,-181.824,
00:00:30:233,1.379,-0.53,0.064,19.775,-135.376,-134.217,
00:00:30:250,1.508,-0.554,0.051,-80.933,-112.488,-67.872,
00:00:30:267,1.554,-0.559,-0.009,-147.095,-165.406,-21.851,
00:00:30:283,1.385,-0.512,-0.013,-132.081,-323.731,-15.137,
00:00:30:300,1.142,-0.431,0.007,-89.356,-428.65,-20.386,
00:00:30:317,0.996,-0.377,0.015,-93.323,-457.215,-96.619,
00:00:30:333,0.952,-0.349,0.017,-102.356,-474.427,-185.303,
00:00:30:350,0.994,-0.336,0.014,-125.306,-486.084,-260.743,
00:00:30:367,1.1,-0.347,-0.009,-129.273,-518.311,-328.431,
00:00:30:383,1.142,-0.352,-0.055,-107.911,-622.925,-349.549,
00:00:30:400,1.057,-0.355,-0.051,-66.834,-755.921,-365.723,
00:00:30:417,0.937,-0.355,-0.031,-41.26,-816.712,-369.812,
00:00:30:433,0.856,-0.352,-0.015,0.366,-831.727,-370.118,
00:00:30:450,0.833,-0.35,0.003,55.053,-828.064,-384.339,
00:00:30:467,0.843,-0.361,0.028,106.445,-827.942,-402.405,
00:00:30:483,0.913,-0.362,0.004,152.71,-794.617,-417.237,
00:00:30:500,0.947,-0.334,-0.119,197.876,-808.289,-438.477,
00:00:30:517,0.898,-0.298,-0.165,296.875,-905.701,-465.271,
00:00:30:533,0.799,-0.306,-0.147,419.311,-949.402,-495.789,
00:00:30:550,0.722,-0.356,-0.11,506.408,-930.237,-515.625,
00:00:30:567,0.686,-0.416,-0.052,524.292,-882.63,-522.644,
00:00:30:583,0.666,-0.455,-0.026,467.346,-806.946,-515.381,
00:00:30:600,0.666,-0.452,-0.044,274.719,-660.035,-444.947,
00:00:30:617,0.659,-0.44,-0.043,195.434,-609.131,-387.452,
00:00:30:633,0.647,-0.439,-0.01,159.973,-554.688,-313.172,
00:00:30:650,0.647,-0.445,0.044,139.221,-478.272,-253.357,
00:00:30:667,0.651,-0.438,0.04,121.154,-379.151,-216.98,
00:00:30:683,0.663,-0.401,0.013,114.135,-297.974,-161.805,
00:00:30:700,0.674,-0.367,0.01,131.775,-238.404,-112.366,
00:00:30:717,0.687,-0.366,0.021,173.095,-172.303,-67.322,
00:00:30:733,0.708,-0.389,0.031,201.416,-98.694,-7.874,
00:00:30:750,0.744,-0.413,0.037,198.181,-22.156,72.448,
00:00:30:767,0.805,-0.431,0.025,167.358,72.448,169.433,
00:00:30:783,0.925,-0.44,-0.011,129.15,176.88,288.818,
00:00:30:800,1.035,-0.432,-0.07,102.172,249.694,435.18,
00:00:30:817,1.076,-0.433,-0.082,102.356,292.175,561.34,
00:00:30:833,1.052,-0.453,-0.026,106.811,361.694,690.796,
00:00:30:850,1.022,-0.508,0.061,79.467,485.534,804.26,
00:00:30:867,0.986,-0.55,0.143,38.757,606.994,865.661,
00:00:30:883,0.913,-0.56,0.211,-73.975,715.21,888.183,
00:00:30:900,0.835,-0.546,0.204,-236.573,832.824,865.661,
00:00:30:917,0.789,-0.498,0.147,-413.392,943.969,802.429,
00:00:30:933,0.796,-0.418,0.078,-539.307,1012.817,730.041,
00:00:30:950,0.84,-0.354,0.04,-613.892,1039.367,640.258,
00:00:30:967,0.911,-0.336,0.072,-648.011,1026.916,546.447,
00:00:30:983,0.99,-0.36,0.115,-672.669,999.45,480.59,
00:00:31:0,1.042,-0.357,0.112,-699.952,955.444,431.457,
00:00:31:17,1.062,-0.302,0.081,-683.289,870.666,382.568,
00:00:31:33,1.053,-0.25,0.071,-595.032,743.713,326.049,
00:00:31:50,1.017,-0.228,0.09,-425.049,615.051,263.305,
00:00:31:67,0.981,-0.239,0.126,-241.7,506.713,210.327,
00:00:31:83,0.976,-0.267,0.204,-112,444.336,156.311,
00:00:31:100,0.999,-0.307,0.257,-67.688,424.804,96.923,
00:00:31:117,1.027,-0.322,0.261,-75.318,402.954,36.377,
00:00:31:133,1.023,-0.316,0.257,-106.385,370.117,-17.823,
00:00:31:150,0.999,-0.326,0.275,-123.536,341.003,-64.331,
00:00:31:167,0.995,-0.347,0.313,-138.611,326.416,-88.685,
00:00:31:183,1,-0.37,0.308,-165.162,339.233,-107.239,
00:00:31:200,1.011,-0.382,0.264,-242.249,338.928,-127.991,
00:00:31:217,1.03,-0.367,0.223,-336.121,302.49,-138.123,
00:00:31:233,1.029,-0.309,0.181,-416.016,252.075,-135.621,
00:00:31:250,1.011,-0.254,0.143,-432.068,195.984,-148.926,
00:00:31:267,0.97,-0.2,0.144,-398.926,97.29,-167.603,
00:00:31:283,0.895,-0.189,0.158,-351.624,47.363,-172.974,
00:00:31:300,0.849,-0.221,0.178,-322.693,60.241,-171.448,
00:00:31:317,0.845,-0.275,0.195,-300.293,93.627,-136.658,
00:00:31:333,0.876,-0.339,0.202,-292.42,128.173,-81.665,
00:00:31:350,0.905,-0.391,0.182,-302.735,145.935,-36.072,
00:00:31:367,0.927,-0.481,0.147,-322.815,167.785,-7.996,
00:00:31:383,0.953,-0.508,0.087,-398.194,172.485,55.297,
00:00:31:400,0.979,-0.49,0.017,-478.211,156.677,95.52,
00:00:31:417,0.994,-0.453,-0.033,-525.208,120.483,92.773,
00:00:31:433,1.002,-0.443,-0.054,-525.879,79.711,76.416,
00:00:31:450,1.046,-0.457,-0.054,-487.915,62.011,63.903,
00:00:31:467,1.108,-0.48,-0.082,-475.403,49.072,57.739,
00:00:31:483,1.148,-0.497,-0.097,-488.709,14.16,70.556,
00:00:31:500,1.153,-0.521,-0.103,-522.4,-19.288,85.815,
00:00:31:517,1.165,-0.565,-0.088,-579.956,-25.574,127.197,
00:00:31:533,1.199,-0.623,-0.081,-663.086,-14.588,185.302,
00:00:31:550,1.263,-0.665,-0.074,-758.301,-11.292,253.357,
00:00:31:567,1.291,-0.64,-0.118,-823.975,-6.104,316.955,
00:00:31:583,1.209,-0.552,-0.149,-814.454,-81.238,333.618,
00:00:31:600,1.033,-0.478,-0.145,-755.738,-167.969,298.217,
00:00:31:617,0.896,-0.444,-0.131,-689.82,-211.182,224.304,
00:00:31:633,0.817,-0.42,-0.098,-637.94,-239.441,165.588,
00:00:31:650,0.767,-0.408,-0.045,-627.564,-257.508,90.82,
00:00:31:667,0.757,-0.411,0.007,-664.49,-246.705,25.207,
00:00:31:683,0.784,-0.419,-0.003,-711.792,-220.643,-3.296,
00:00:31:700,0.848,-0.404,-0.024,-723.999,-231.873,13.061,
00:00:31:717,0.884,-0.391,-0.061,-704.895,-290.65,51.818,
00:00:31:733,0.886,-0.397,-0.081,-629.883,-360.779,94.421,
00:00:31:750,0.891,-0.432,-0.088,-538.269,-419.556,151.306,
00:00:31:767,0.925,-0.479,-0.085,-433.96,-460.45,205.139,
00:00:31:783,0.972,-0.495,-0.102,-372.742,-496.399,257.324,
00:00:31:800,0.997,-0.483,-0.123,-314.637,-542.237,278.259,
00:00:31:817,1.014,-0.455,-0.146,-198.487,-581.116,250.61,
00:00:31:833,1.041,-0.459,-0.142,-33.081,-618.958,186.767,
00:00:31:850,1.049,-0.491,-0.128,128.723,-652.771,100.463,
00:00:31:867,0.997,-0.513,-0.15,223.632,-671.143,-4.761,
00:00:31:883,0.944,-0.513,-0.165,271.972,-657.105,-112.793,
00:00:31:900,0.917,-0.504,-0.185,274.78,-614.563,-236.39,
00:00:31:917,0.905,-0.506,-0.192,247.253,-572.632,-355.713,
00:00:31:933,0.884,-0.521,-0.189,199.279,-515.381,-452.332,
00:00:31:950,0.864,-0.528,-0.183,136.291,-436.219,-516.541,
00:00:31:967,0.863,-0.538,-0.167,45.776,-338.257,-551.697,
00:00:31:983,0.871,-0.564,-0.153,-64.698,-236.939,-568.97,
00:00:32:0,0.861,-0.598,-0.136,-199.891,-144.288,-562.012,
00:00:32:17,0.839,-0.656,-0.115,-359.009,-38.392,-524.537,
00:00:32:33,0.876,-0.611,-0.114,-678.833,197.204,-444.581,
00:00:32:50,0.919,-0.563,-0.143,-812.317,293.09,-418.213,
00:00:32:67,0.932,-0.502,-0.165,-913.636,353.027,-404.48,
00:00:32:83,0.93,-0.451,-0.158,-983.216,401.062,-415.162,
00:00:32:100,0.936,-0.431,-0.144,-1018.494,447.754,-440.369,
00:00:32:117,0.953,-0.42,-0.131,-1028.504,487.304,-466.614,
00:00:32:133,0.97,-0.404,-0.125,-1023.194,514.038,-480.042,
00:00:32:150,0.978,-0.378,-0.128,-997.864,534.484,-493.775,
00:00:32:167,0.96,-0.341,-0.13,-879.822,540.649,-511.78,
00:00:32:183,0.954,-0.349,-0.084,-808.228,543.64,-515.686,
00:00:32:200,0.967,-0.376,-0.039,-756.165,569.519,-511.902,
00:00:32:217,0.985,-0.406,-0.019,-750.061,604.37,-501.526,
00:00:32:233,1.012,-0.426,0.007,-773.987,633.972,-490.174,
00:00:32:250,1.045,-0.427,0.044,-842.225,663.635,-483.704,
00:00:32:267,1.057,-0.409,0.042,-882.813,693.237,-484.803,
00:00:32:283,1.051,-0.368,0.021,-900.635,695.739,-493.714,
00:00:32:300,1.041,-0.323,0.017,-886.841,672.912,-510.926,
00:00:32:317,1.045,-0.308,0.041,-851.929,642.212,-523.072,
00:00:32:333,1.082,-0.328,0.13,-830.994,617.736,-527.405,
00:00:32:350,1.112,-0.344,0.138,-857.972,632.08,-515.32,
00:00:32:367,1.128,-0.31,0.072,-889.1,606.689,-488.282,
00:00:32:383,1.122,-0.245,0.049,-879.883,515.197,-466.248,
00:00:32:400,1.076,-0.206,0.051,-817.81,413.086,-445.13,
00:00:32:417,1.035,-0.192,0.07,-724.06,340.759,-411.866,
00:00:32:433,0.996,-0.198,0.088,-632.142,271.85,-363.282,
00:00:32:450,0.959,-0.201,0.101,-557.129,216.247,-312.5,
00:00:32:467,0.916,-0.201,0.103,-507.63,172.973,-255.677,
00:00:32:483,0.866,-0.203,0.1,-485.535,138.733,-194.703,
00:00:32:500,0.817,-0.204,0.11,-474.61,119.751,-122.132,
00:00:32:517,0.782,-0.204,0.111,-461.914,130.371,-57.74,
00:00:32:533,0.774,-0.228,0.126,-451.294,156.372,14.77,
00:00:32:550,0.822,-0.259,0.131,-440.247,215.454,95.336,
00:00:32:567,0.903,-0.265,0.083,-421.57,254.821,180.603,
00:00:32:583,0.965,-0.243,0.048,-392.762,243.225,260.315,
00:00:32:600,0.994,-0.224,0.038,-329.651,240.112,324.768,
00:00:32:617,1.023,-0.228,0.026,-252.015,255.249,369.751,
00:00:32:633,1.045,-0.254,0.043,-171.753,250.366,391.906,
00:00:32:650,1.03,-0.281,0.06,-115.784,262.512,404.907,
00:00:32:667,1.004,-0.296,0.088,-91.797,275.94,398.864,
00:00:32:683,0.973,-0.302,0.113,-84.534,298.034,381.347,
00:00:32:700,0.933,-0.297,0.12,-86.121,326.904,341.98,
00:00:32:717,0.894,-0.295,0.113,-100.708,348.205,295.898,
00:00:32:733,0.859,-0.298,0.116,-126.099,359.619,242.492,
00:00:32:750,0.819,-0.306,0.107,-172.12,373.169,188.415,walkLH
00:00:32:767,0.802,-0.317,0.109,-234.681,385.315,144.531,
00:00:32:783,0.845,-0.317,0.106,-303.956,428.1,123.23,
00:00:32:800,0.944,-0.318,0.068,-335.144,440.002,109.68,
00:00:32:817,1.002,-0.324,0.069,-324.036,364.563,103.149,
00:00:32:833,0.963,-0.281,0.081,-346.619,305.786,125.671,
00:00:32:850,0.889,-0.178,0.115,-365.723,296.447,140.991,
00:00:32:867,0.855,-0.105,0.168,-333.802,318.481,127.929,
00:00:32:883,0.86,-0.112,0.2,-268.494,370.971,85.083,
00:00:32:900,0.901,-0.192,0.193,-223.45,422.851,60.18,
00:00:32:917,0.955,-0.256,0.177,-239.014,453.796,62.5,
00:00:32:933,1.009,-0.292,0.171,-312.012,469.482,77.087,
00:00:32:950,1.034,-0.313,0.163,-416.199,471.496,77.209,
00:00:32:967,1.035,-0.309,0.153,-539.185,469.421,75.317,
00:00:32:983,1.041,-0.297,0.153,-647.156,471.374,60.058,
00:00:33:0,1.057,-0.262,0.119,-715.088,473.327,37.475,
00:00:33:17,1.069,-0.186,0.072,-729.432,434.326,13.794,
00:00:33:33,1.04,-0.112,0.051,-696.289,364.196,-8.728,
00:00:33:50,0.976,-0.086,0.08,-499.573,268.371,-53.894,
00:00:33:67,0.956,-0.116,0.089,-401.978,226.562,-51.697,
00:00:33:83,0.929,-0.17,0.105,-326.722,192.505,-49.5,
00:00:33:100,0.909,-0.222,0.105,-290.589,169.433,-30.579,
00:00:33:117,0.878,-0.247,0.066,-275.696,152.954,-5.249,
00:00:33:133,0.853,-0.239,0.037,-290.345,108.154,16.052,
00:00:33:150,0.822,-0.231,0.018,-314.087,82.58,28.137,
00:00:33:167,0.813,-0.235,0.016,-322.083,68.969,32.714,
00:00:33:183,0.816,-0.264,0.027,-323.975,57.251,35.278,
00:00:33:200,0.822,-0.29,0.022,-333.985,51.269,46.386,
00:00:33:217,0.826,-0.307,0.026,-357.605,45.959,55.114,
00:00:33:233,0.854,-0.324,0.015,-370.057,64.148,59.936,
00:00:33:250,0.913,-0.339,-0.005,-368.714,75.012,64.27,
00:00:33:267,0.986,-0.34,-0.027,-348.999,61.157,54.26,
00:00:33:283,1.04,-0.333,-0.047,-305.542,34.362,29.113,
00:00:33:300,1.073,-0.324,-0.065,-250.489,3.906,-2.808,
00:00:33:317,1.131,-0.33,-0.074,-205.384,-0.672,-32.959,
00:00:33:334,1.236,-0.349,-0.084,-179.627,10.864,-56.031,
00:00:33:350,1.356,-0.386,-0.091,-177.674,0.732,-75.135,
00:00:33:367,1.465,-0.442,-0.066,-191.102,-5.677,-75.074,
00:00:33:384,1.536,-0.507,0.029,-224.915,0.732,-46.57,
00:00:33:400,1.497,-0.556,0.042,-284.974,3.601,-28.992,
00:00:33:417,1.314,-0.542,0.05,-358.765,-23.255,-22.278,
00:00:33:434,1.117,-0.476,0.037,-445.13,-66.895,-46.021,
00:00:33:450,1.002,-0.39,0.001,-499.207,-101.624,-101.441,
00:00:33:467,0.989,-0.323,-0.035,-524.598,-131.714,-159.363,
00:00:33:484,1.041,-0.292,-0.073,-515.259,-193.97,-211.67,
00:00:33:500,1.12,-0.307,-0.089,-496.949,-298.34,-244.141,
00:00:33:517,1.17,-0.355,-0.089,-449.707,-422.059,-253.724,
00:00:33:534,1.191,-0.392,-0.046,-390.198,-542.298,-230.53,
00:00:33:550,1.142,-0.37,-0.077,-321.839,-615.723,-211.304,
00:00:33:567,1.052,-0.316,-0.068,-224.854,-733.826,-228.516,
00:00:33:584,0.961,-0.274,-0.069,-94.178,-760.01,-289.917,
00:00:33:600,0.877,-0.254,-0.095,39.978,-792.176,-372.742,
00:00:33:617,0.808,-0.252,-0.09,148.132,-828.614,-455.75,
00:00:33:634,0.74,-0.266,-0.09,219.36,-820.923,-537.049,
00:00:33:650,0.704,-0.275,-0.091,257.263,-794.739,-594.849,
00:00:33:667,0.689,-0.29,-0.095,263.549,-754.09,-628.235,
00:00:33:684,0.7,-0.317,-0.103,242.675,-700.196,-635.193,
00:00:33:700,0.728,-0.354,-0.112,195.312,-653.809,-618.897,
00:00:33:717,0.752,-0.382,-0.094,144.165,-626.038,-581.788,
00:00:33:734,0.756,-0.398,-0.086,76.477,-576.233,-520.081,
00:00:33:750,0.748,-0.391,-0.077,13.61,-523.621,-448.731,
00:00:33:767,0.756,-0.369,-0.055,-20.264,-463.746,-372.01,
00:00:33:784,0.77,-0.337,-0.062,-20.447,-391.419,-308.472,
00:00:33:800,0.775,-0.31,-0.062,14.465,-340.577,-254.517,
00:00:33:817,0.768,-0.29,-0.043,67.81,-293.457,-212.403,
00:00:33:834,0.756,-0.296,-0.041,105.346,-226.197,-180.848,
00:00:33:850,0.773,-0.321,-0.032,120.3,-148.743,-147.889,
00:00:33:867,0.823,-0.35,-0.033,104.797,-74.463,-102.906,
00:00:33:884,0.912,-0.369,-0.055,60.058,19.165,-36.805,
00:00:33:900,1.043,-0.359,-0.094,14.953,114.746,52.856,
00:00:33:917,1.185,-0.349,-0.119,-5.127,189.819,159.912,
00:00:33:934,1.29,-0.347,-0.099,6.347,264.953,264.831,
00:00:33:950,1.319,-0.377,-0.054,19.043,375.976,364.868,
00:00:33:967,1.23,-0.428,0.034,29.968,495.3,453.369,
00:00:33:984,1.053,-0.442,0.106,-20.02,592.895,488.281,
00:00:34:0,0.897,-0.436,0.181,-122.864,692.443,489.99,
00:00:34:17,0.785,-0.378,0.197,-248.047,810.058,437.866,
00:00:34:34,0.73,-0.313,0.158,-383.728,914.611,367.004,
00:00:34:50,0.743,-0.25,0.111,-494.141,990.173,283.203,
00:00:34:67,0.939,-0.185,0.015,-463.257,873.169,124.267,
00:00:34:84,0.953,-0.198,0.043,-381.836,733.276,143.798,
00:00:34:100,0.926,-0.203,0.067,-281.25,606.445,176.635,
00:00:34:117,0.89,-0.183,0.103,-180.97,489.99,229.431,
00:00:34:134,0.867,-0.15,0.138,-55.97,404.968,253.54,
00:00:34:150,0.841,-0.113,0.167,91.491,323.181,242.065,
00:00:34:167,0.806,-0.12,0.188,225.219,264.038,205.017,
00:00:34:184,0.803,-0.158,0.208,302.856,250.732,159.851,
00:00:34:200,0.829,-0.226,0.223,323.974,258.667,118.835,
00:00:34:217,0.894,-0.347,0.287,247.192,288.696,109.985,
00:00:34:234,0.902,-0.375,0.309,175.048,331.237,119.384,
00:00:34:250,0.902,-0.376,0.318,105.041,371.215,126.22,
00:00:34:267,0.902,-0.367,0.31,30.822,418.396,130.676,
00:00:34:284,0.916,-0.36,0.293,-43.457,451.416,127.868,
00:00:34:300,0.943,-0.376,0.285,-112.793,470.276,121.948,
00:00:34:317,1.043,-0.39,0.247,-245.301,440.734,134.155,
00:00:34:334,1.065,-0.37,0.237,-255.799,391.418,130.981,
00:00:34:350,1.082,-0.363,0.226,-236.268,328.369,118.652,
00:00:34:367,1.121,-0.35,0.184,-193.482,269.409,104.431,
00:00:34:384,1.179,-0.324,0.107,-129.761,198.12,90.454,
00:00:34:400,1.296,-0.306,0.069,-52.491,114.38,81.665,
00:00:34:417,1.462,-0.328,0.043,32.898,25.512,78.308,
00:00:34:434,1.617,-0.407,-0.005,92.59,-84.473,82.275,
00:00:34:450,1.702,-0.52,-0.062,88.928,-218.873,105.713,
00:00:34:467,1.69,-0.627,-0.045,15.38,-364.38,146.057,
00:00:34:484,1.551,-0.658,0.023,-96.07,-470.337,171.692,
00:00:34:500,1.32,-0.601,0.102,-223.694,-527.832,147.949,
00:00:34:517,1.088,-0.478,0.118,-338.501,-532.349,68.359,
00:00:34:534,0.957,-0.329,0.102,-433.716,-510.376,-38.453,
00:00:34:550,0.942,-0.2,0.039,-467.835,-462.708,-146.79,
00:00:34:567,1.076,-0.142,0.015,-375.061,-452.21,-250.611,
00:00:34:584,1.27,-0.177,-0.046,-191.712,-511.536,-331.36,
00:00:34:600,1.333,-0.232,-0.142,-14.649,-680.542,-367.188,
00:00:34:617,1.174,-0.26,-0.135,139.953,-903.687,-386.597,
00:00:34:634,0.953,-0.29,-0.085,251.77,-1002.808,-389.161,
00:00:34:650,0.805,-0.318,-0.067,335.998,-1001.954,-394.837,
00:00:34:667,0.735,-0.337,-0.032,403.747,-982.483,-416.626,
00:00:34:684,0.699,-0.335,-0.021,384.765,-943.177,-444.886,
00:00:34:700,0.675,-0.308,-0.057,347.412,-900.391,-474.61,
00:00:34:717,0.662,-0.28,-0.07,316.467,-869.263,-493.836,
00:00:34:734,0.662,-0.275,-0.096,297.79,-819.153,-507.386,
00:00:34:750,0.67,-0.291,-0.119,296.325,-773.194,-500.55,
00:00:34:767,0.692,-0.323,-0.105,296.081,-740.174,-476.929,
00:00:34:784,0.689,-0.363,-0.073,270.08,-694.031,-438.66,
00:00:34:800,0.689,-0.405,-0.026,210.632,-627.137,-383.484,
00:00:34:817,0.711,-0.424,0.001,128.723,-527.466,-323.121,
00:00:34:834,0.767,-0.413,-0.001,52.551,-422.791,-259.4,
00:00:34:850,0.809,-0.251,-0.097,85.083,-308.045,-156.311,
00:00:34:867,0.812,-0.263,-0.07,177.002,-262.757,-159.485,
00:00:34:884,0.822,-0.3,-0.075,215.759,-207.093,-145.813,
00:00:34:900,0.835,-0.33,-0.068,209.961,-158.448,-127.381,
