TIMECODE,ACC_X,ACC_Y,ACC_Z,GYR_X,GYR_Y,GYR_Z,TAG
00:00:00:0,-0.062,-0.983,0.296,12.085,9.46,-25.635,
00:00:00:16,-0.065,-0.985,0.288,14.709,6.408,-26.917,
00:00:00:33,-0.065,-0.987,0.29,15.686,5.004,-28.321,
00:00:00:50,-0.067,-0.989,0.288,16.296,5.493,-30.091,
00:00:00:66,-0.067,-0.99,0.288,14.16,5.554,-32.166,
00:00:00:83,-0.066,-0.99,0.286,13.732,3.295,-31.25,
00:00:00:100,-0.07,-0.991,0.285,12.695,3.051,-31.678,
00:00:00:116,-0.073,-0.992,0.28,10.62,2.99,-30.335,
00:00:00:133,-0.071,-0.989,0.284,6.591,6.347,-28.687,
00:00:00:150,-0.068,-0.991,0.284,2.014,5.676,-27.161,
00:00:00:166,-0.07,-0.987,0.286,-0.306,5.004,-26.551,
00:00:00:183,-0.07,-0.987,0.288,1.648,2.441,-25.574,
00:00:00:200,-0.07,-0.985,0.286,4.516,3.601,-23.316,
00:00:00:216,-0.072,-0.987,0.29,4.15,4.638,-23.865,
00:00:00:233,-0.068,-0.992,0.287,10.559,4.394,-25.757,
00:00:00:250,-0.07,-0.986,0.29,9.826,2.99,-25.818,
00:00:00:266,-0.073,-0.984,0.29,14.221,4.638,-25.818,
00:00:00:283,-0.069,-0.987,0.281,15.869,4.089,-25.147,
00:00:00:300,-0.072,-0.991,0.281,13.427,7.019,-24.231,
00:00:00:316,-0.072,-0.993,0.281,8.178,7.141,-23.133,
00:00:00:333,-0.071,-0.992,0.285,5.554,7.08,-22.278,
00:00:00:350,-0.074,-0.989,0.286,4.455,7.385,-21.912,
00:00:00:366,-0.071,-0.99,0.286,0.549,7.263,-22.583,
00:00:00:383,-0.074,-0.986,0.282,5.737,6.836,-22.95,
00:00:00:400,-0.071,-0.986,0.288,4.272,10.559,-20.325,
00:00:00:416,-0.074,-0.991,0.286,7.446,10.559,-19.227,
00:00:00:433,-0.072,-0.989,0.288,8.239,12.451,-17.029,
00:00:00:450,-0.073,-0.991,0.287,8.178,10.559,-17.273,
00:00:00:466,-0.07,-0.987,0.284,10.864,8.056,-15.625,
00:00:00:483,-0.069,-0.99,0.283,4.699,10.437,-16.48,
00:00:00:500,-0.068,-0.991,0.287,4.15,7.446,-18.006,
00:00:00:516,-0.073,-0.986,0.288,4.333,6.164,-19.349,
00:00:00:533,-0.07,-0.985,0.288,10.62,8.972,-20.752,
00:00:00:550,-0.072,-0.989,0.285,7.446,8.789,-20.264,
00:00:00:566,-0.068,-0.992,0.286,4.76,8.483,-22.767,
00:00:00:583,-0.068,-0.988,0.285,4.943,5.798,-23.255,
00:00:00:600,-0.072,-0.989,0.283,4.028,6.958,-24.17,
00:00:00:616,-0.073,-0.989,0.289,4.089,6.897,-21.119,
00:00:00:633,-0.075,-0.984,0.285,4.943,8.85,-19.043,
00:00:00:650,-0.071,-0.991,0.285,8.606,7.873,-19.288,
00:00:00:666,-0.072,-0.99,0.289,5.065,10.131,-17.395,
00:00:00:683,-0.072,-0.988,0.284,6.836,11.108,-14.771,
00:00:00:700,-0.069,-0.99,0.282,2.441,10.681,-15.809,
00:00:00:716,-0.066,-0.99,0.285,2.319,9.46,-16.419,
00:00:00:733,-0.067,-0.988,0.287,0.671,7.324,-15.748,
00:00:00:750,-0.067,-0.994,0.285,-0.428,7.629,-17.762,
00:00:00:766,-0.068,-0.986,0.282,0.976,5.737,-19.776,
00:00:00:783,-0.073,-0.988,0.289,-1.709,6.836,-20.997,
00:00:00:800,-0.07,-0.985,0.291,1.098,5.371,-22.217,
00:00:00:816,-0.07,-0.985,0.291,1.648,3.662,-22.828,
00:00:00:833,-0.071,-0.987,0.29,7.507,4.943,-23.499,
00:00:00:850,-0.073,-0.986,0.287,8.178,5.92,-22.339,
00:00:00:866,-0.072,-0.988,0.292,10.559,7.446,-21.424,
00:00:00:883,-0.07,-0.985,0.287,14.099,9.216,-19.471,
00:00:00:900,-0.066,-0.99,0.285,8.178,9.094,-17.029,
00:00:00:916,-0.067,-0.989,0.287,7.507,6.225,-18.677,
00:00:00:933,-0.069,-0.988,0.285,6.652,5.188,-19.227,
00:00:00:950,-0.069,-0.99,0.285,6.408,7.629,-20.081,
00:00:00:966,-0.073,-0.988,0.286,1.709,7.873,-18.189,
00:00:00:983,-0.07,-0.99,0.284,0.244,8.117,-18.25,
00:00:01:0,-0.069,-0.99,0.282,-2.93,8.789,-16.602,
00:00:01:16,-0.067,-0.988,0.287,-6.531,8.056,-17.945,
00:00:01:33,-0.065,-0.986,0.289,-7.325,5.615,-19.165,
00:00:01:50,-0.071,-0.986,0.294,-6.958,2.868,-20.386,
00:00:01:66,-0.072,-0.987,0.289,-1.709,2.807,-20.997,
00:00:01:83,-0.07,-0.987,0.293,-1.709,3.784,-21.851,
00:00:01:100,-0.068,-0.987,0.286,-0.916,2.624,-26.795,
00:00:01:116,-0.066,-0.984,0.29,-0.184,-0.428,-25.635,
00:00:01:133,-0.069,-0.992,0.294,-1.282,-0.611,-27.283,
00:00:01:150,-0.073,-0.985,0.292,1.281,1.22,-26.368,
00:00:01:166,-0.073,-0.987,0.293,-4.151,6.164,-26.734,
00:00:01:183,-0.07,-0.99,0.29,-4.7,7.812,-23.743,
00:00:01:200,-0.074,-0.985,0.294,-4.517,6.713,-23.133,
00:00:01:216,-0.073,-0.982,0.294,-4.151,5.371,-21.607,
00:00:01:233,-0.075,-0.985,0.296,-2.93,7.568,-19.654,
00:00:01:250,-0.073,-0.987,0.293,3.723,8.606,-20.142,
00:00:01:266,-0.073,-0.984,0.296,1.281,9.399,-15.931,
00:00:01:283,-0.073,-0.987,0.293,4.516,7.995,-15.137,
00:00:01:300,-0.072,-0.989,0.291,1.22,8.972,-13.489,
00:00:01:316,-0.071,-0.988,0.296,-2.015,10.131,-15.137,
00:00:01:333,-0.07,-0.986,0.295,1.525,8.056,-16.785,
00:00:01:350,-0.071,-0.983,0.295,-4.029,9.094,-17.762,
00:00:01:366,-0.072,-0.986,0.297,-2.259,10.315,-18.372,
00:00:01:383,-0.073,-0.989,0.297,-2.808,9.155,-17.212,
00:00:01:400,-0.071,-0.982,0.301,0.122,6.836,-13.428,
00:00:01:416,-0.072,-0.972,0.306,4.455,6.469,-14.527,
00:00:01:433,-0.069,-0.989,0.302,12.939,10.803,-15.931,
00:00:01:450,-0.071,-0.993,0.289,6.53,14.587,-13.245,
00:00:01:466,-0.07,-0.987,0.292,5.798,11.413,-7.691,
00:00:01:483,-0.068,-0.975,0.294,9.765,7.629,-6.897,
00:00:01:500,-0.072,-0.988,0.298,7.385,13.122,-9.888,
00:00:01:516,-0.071,-0.998,0.292,4.76,14.282,-9.278,
00:00:01:533,-0.068,-0.99,0.296,-2.564,13.427,-5.921,
00:00:01:550,-0.065,-0.985,0.294,-7.691,14.404,-6.409,
00:00:01:566,-0.059,-0.983,0.293,-9.4,13.061,-7.569,
00:00:01:583,-0.059,-0.983,0.299,-15.992,10.437,-10.254,
00:00:01:600,-0.061,-0.989,0.296,-14.954,7.751,-11.17,
00:00:01:616,-0.064,-0.983,0.306,-14.954,5.249,-13.733,
00:00:01:633,-0.065,-0.978,0.301,-7.081,7.202,-17.762,
00:00:01:650,-0.061,-0.983,0.304,-4.7,6.713,-20.63,
00:00:01:666,-0.059,-0.986,0.302,2.929,0.732,-26.551,
00:00:01:683,-0.064,-0.981,0.299,3.112,-2.564,-27.771,
00:00:01:700,-0.068,-0.989,0.301,0.915,-1.465,-29.48,
00:00:01:716,-0.064,-0.987,0.3,-0.794,2.075,-26.246,
00:00:01:733,-0.064,-0.988,0.301,-3.724,4.211,-24.292,
00:00:01:750,-0.071,-0.986,0.303,-8.851,3.479,-20.386,
00:00:01:766,-0.071,-0.982,0.304,-10.254,7.019,-18.799,
00:00:01:783,-0.065,-0.981,0.308,-9.461,9.582,-15.137,
00:00:01:800,-0.066,-0.982,0.304,-9.095,10.925,-12.207,
00:00:01:816,-0.062,-0.987,0.307,-8.24,11.413,-12.818,
00:00:01:833,-0.059,-0.982,0.304,-7.691,9.399,-14.1,
00:00:01:850,-0.061,-0.982,0.311,-9.705,7.019,-17.151,
00:00:01:866,-0.064,-0.981,0.308,-5.494,7.568,-20.203,
00:00:01:883,-0.065,-0.98,0.31,-5.494,5.981,-21.607,
00:00:01:900,-0.066,-0.984,0.312,-2.32,7.385,-22.767,
00:00:01:916,-0.066,-0.981,0.307,-3.235,7.446,-21.363,
00:00:01:933,-0.067,-0.979,0.341,1.22,7.019,-19.776,
00:00:01:950,-0.066,-0.982,0.343,7.263,9.399,-16.846,
00:00:01:966,-0.068,-0.983,0.281,6.164,12.451,-14.71,
00:00:01:983,-0.062,-0.983,0.307,5.432,14.038,-16.114,
00:00:02:0,-0.061,-0.981,0.309,3.051,11.413,-17.64,
00:00:02:16,-0.065,-0.984,0.309,5.493,11.779,-18.86,
00:00:02:33,-0.059,-0.982,0.31,11.657,12.939,-14.832,
00:00:02:50,-0.058,-0.983,0.307,14.709,11.657,-15.809,
00:00:02:66,-0.058,-0.981,0.307,12.817,6.958,-19.349,
00:00:02:83,-0.059,-0.983,0.311,13.122,6.836,-21.729,
00:00:02:100,-0.061,-0.981,0.307,16.784,3.479,-25.513,
00:00:02:116,-0.062,-0.982,0.312,14.465,4.516,-27.71,
00:00:02:133,-0.064,-0.983,0.308,17.822,5.249,-27.588,
00:00:02:150,-0.065,-0.984,0.308,14.16,3.845,-28.87,
00:00:02:166,-0.066,-0.987,0.308,15.991,6.103,-27.344,
00:00:02:183,-0.065,-0.983,0.303,10.986,7.385,-27.222,
00:00:02:200,-0.063,-0.984,0.303,9.887,7.995,-26.246,
00:00:02:216,-0.064,-0.98,0.298,10.62,6.042,-25.696,
00:00:02:233,-0.067,-0.986,0.306,4.638,9.765,-19.41,
00:00:02:250,-0.067,-0.983,0.309,4.516,10.437,-17.151,
00:00:02:266,-0.062,-0.983,0.308,-0.611,10.62,-16.785,
00:00:02:283,-0.063,-0.982,0.305,3.479,10.315,-18.677,
00:00:02:300,-0.065,-0.981,0.305,3.784,6.469,-19.593,
00:00:02:316,-0.064,-0.983,0.31,6.469,8.667,-21.607,
00:00:02:333,-0.063,-0.981,0.305,6.774,8.239,-22.156,
00:00:02:350,-0.064,-0.979,0.31,7.812,5.31,-24.659,
00:00:02:366,-0.066,-0.979,0.304,13.427,3.967,-24.292,
00:00:02:383,-0.067,-0.986,0.306,11.779,6.897,-23.316,
00:00:02:400,-0.066,-0.984,0.303,14.831,6.469,-20.142,
00:00:02:416,-0.067,-0.984,0.304,9.46,7.934,-20.081,
00:00:02:433,-0.064,-0.985,0.303,7.629,9.338,-20.569,
00:00:02:450,-0.063,-0.983,0.306,8.361,9.582,-19.593,
00:00:02:466,-0.064,-0.983,0.307,4.272,9.948,-20.508,
00:00:02:483,-0.062,-0.981,0.308,7.568,8.239,-21.363,
00:00:02:500,-0.065,-0.985,0.309,7.446,6.774,-21.607,
00:00:02:516,-0.067,-0.982,0.304,8.483,6.591,-20.569,
00:00:02:533,-0.066,-0.981,0.305,10.498,8.972,-19.471,
00:00:02:550,-0.066,-0.984,0.307,14.526,11.657,-18.555,
00:00:02:566,-0.064,-0.98,0.307,11.169,10.192,-19.349,
00:00:02:583,-0.06,-0.985,0.304,11.779,9.216,-23.011,
00:00:02:600,-0.064,-0.985,0.302,11.169,4.577,-20.752,
00:00:02:616,-0.066,-0.982,0.309,14.282,5.432,-21.424,
00:00:02:633,-0.063,-0.985,0.299,11.657,6.042,-25.452,
00:00:02:650,-0.064,-0.985,0.303,6.164,4.882,-26.429,
00:00:02:666,-0.066,-0.987,0.3,6.286,6.469,-27.588,
00:00:02:683,-0.069,-0.983,0.304,2.258,7.812,-26.062,
00:00:02:700,-0.066,-0.984,0.303,2.929,8.239,-25.086,
00:00:02:716,-0.073,-0.981,0.302,4.516,9.765,-20.997,
00:00:02:733,-0.072,-0.983,0.305,5.676,10.498,-21.119,
00:00:02:750,-0.069,-0.984,0.3,2.319,12.207,-20.386,
00:00:02:766,-0.064,-0.986,0.307,4.272,11.779,-20.386,
00:00:02:783,-0.064,-0.98,0.305,7.08,10.376,-19.837,
00:00:02:800,-0.067,-0.985,0.306,5.004,9.948,-21.912,
00:00:02:816,-0.062,-0.985,0.304,9.948,9.155,-23.865,
00:00:02:833,-0.065,-0.983,0.304,9.216,6.286,-25.452,
00:00:02:850,-0.067,-0.984,0.301,13.244,5.065,-26.917,
00:00:02:866,-0.069,-0.984,0.305,9.948,4.089,-24.903,
00:00:02:883,-0.067,-0.988,0.304,9.46,7.324,-24.842,
00:00:02:900,-0.067,-0.984,0.301,7.202,6.774,-25.452,
00:00:02:916,-0.069,-0.985,0.302,1.403,7.141,-24.903,
00:00:02:933,-0.068,-0.985,0.306,5.004,7.08,-25.818,
00:00:02:950,-0.067,-0.981,0.304,5.798,5.493,-24.231,
00:00:02:966,-0.07,-0.98,0.303,8.606,3.54,-25.818,
00:00:02:983,-0.069,-0.98,0.306,8.117,2.075,-26.185,
00:00:03:0,-0.07,-0.983,0.305,6.652,7.751,-25.208,
00:00:03:16,-0.071,-0.982,0.301,7.995,8.911,-21.546,
00:00:03:33,-0.069,-0.981,0.301,6.164,6.897,-22.95,
00:00:03:50,-0.067,-0.986,0.3,8.239,5.493,-24.292,
00:00:03:66,-0.07,-0.984,0.303,2.502,2.319,-21.851,
00:00:03:83,-0.072,-0.983,0.301,4.15,3.723,-21.18,
00:00:03:100,-0.07,-0.978,0.302,3.356,7.019,-21.485,
00:00:03:116,-0.069,-0.985,0.301,4.943,8.422,-22.278,
00:00:03:133,-0.066,-0.981,0.302,2.746,2.807,-23.133,
00:00:03:150,-0.073,-0.982,0.301,1.831,1.831,-22.034,
00:00:03:166,-0.074,-0.978,0.308,9.704,5.127,-17.212,
00:00:03:183,-0.074,-0.971,0.309,15.197,1.953,-10.071,
00:00:03:200,-0.073,-0.986,0.306,25.329,6.958,17.822,
00:00:03:216,-0.068,-0.987,0.297,22.583,14.587,18.554,
00:00:03:233,-0.061,-0.982,0.3,21.179,7.812,24.231,
00:00:03:250,-0.059,-0.971,0.302,28.442,-5.799,30.761,
00:00:03:266,-0.064,-0.986,0.293,21.24,-11.536,39.001,
00:00:03:283,-0.061,-1.009,0.281,1.831,-7.752,45.349,
00:00:03:300,-0.046,-1.017,0.278,-28.199,-2.503,42.48,
00:00:03:316,-0.035,-1.01,0.272,-62.561,-8.912,23.01,
00:00:03:333,-0.03,-1.012,0.272,-113.587,-11.902,-8.606,
00:00:03:350,-0.03,-1.011,0.284,-161.438,-20.203,-39.429,
00:00:03:366,-0.045,-0.999,0.31,-203.003,-31.495,-56.458,
00:00:03:383,-0.07,-0.978,0.339,-183.594,-29.297,-59.082,
00:00:03:400,-0.097,-0.972,0.356,-158.936,-12.513,-35.218,
00:00:03:416,-0.112,-0.991,0.353,-133.728,24.597,9.094,
00:00:03:433,-0.102,-1.088,0.384,-151.49,72.815,69.763,
00:00:03:450,0,-1.069,0.363,3.234,255.859,346.191,
00:00:03:466,-0.014,-0.889,0.43,177.612,7.141,324.646,
00:00:03:483,-0.112,-1.056,0.554,262.939,-21.546,148.437,
00:00:03:500,-0.194,-1.285,0.52,580.017,174.743,260.681,
00:00:03:516,-0.04,-1.574,0.564,743.957,183.715,180.175,
00:00:03:533,0.184,-1.957,0.475,1153.869,300.048,161.804,
00:00:03:550,0.355,-2.097,0.359,1083.435,-28.687,-18.982,
00:00:03:566,0.432,-2.191,0.125,550.109,-3.113,-241.822,
00:00:03:583,0.661,-2.442,-0.55,506.225,-8.118,-557.435,
00:00:03:600,1.106,-2.896,-0.856,428.039,-340.943,-1288.147,
00:00:03:616,1.227,-2.688,-0.801,232.422,-127.137,-1937.989,
00:00:03:633,0.65,-2.147,-0.334,185.485,276.611,-2000,
00:00:03:650,0.395,-1.958,-0.146,24.597,825.317,-2000,
00:00:03:666,0.5,-1.407,-0.059,-207.032,1151.733,-2000,
00:00:03:683,0.517,-0.722,0.032,-567.444,1275.512,-2000,
00:00:03:700,0.532,-0.202,0.046,-1205.689,1316.955,-2000,
00:00:03:716,0.595,0.143,0.071,-1570.252,1275.085,-2000,
00:00:03:733,0.663,0.415,-0.04,-1691.834,1158.325,-2000,
00:00:03:750,0.67,0.592,-0.097,-1485.657,921.936,-2000,
00:00:03:766,0.716,0.963,0.102,-1531.434,578.918,-2000,
00:00:03:783,0.539,1.223,0.057,-1927.186,61.584,-2000,
00:00:03:800,0.486,1.362,-0.056,-1476.685,-289.612,-2000,
00:00:03:816,0.624,2.713,0.335,-1442.811,-829.346,-534.363,
00:00:03:833,-0.131,3.472,1.29,-760.621,-529.175,487.06,
00:00:03:850,-0.164,2.28,0.796,488.403,585.51,1139.16,
00:00:03:866,0.14,1.191,0.483,1033.752,733.337,1932.861,
00:00:03:883,0.157,0.832,0.34,1308.96,515.686,1999.694,
00:00:03:900,0.125,0.677,0.207,1501.159,312.072,1999.694,
00:00:03:916,0.092,0.473,0.061,1578.186,157.714,1999.694,
00:00:03:933,0.109,0.143,0.035,1446.777,-68.848,1999.694,
00:00:03:950,0.175,-0.357,0.188,1104.614,-255.738,1999.694,
00:00:03:966,0.142,-0.919,0.192,749.023,-385.132,1999.694,
00:00:03:983,0.021,-1.224,0.04,356.628,-652.71,1999.694,
00:00:04:0,-0.206,-1.3,-0.063,-325.623,-932.74,1999.694,
00:00:04:16,-0.399,-1.268,-0.31,-1061.341,-822.998,1999.694,
00:00:04:33,-0.461,-1.732,-0.28,-869.141,-294.983,1999.694,
00:00:04:50,0.366,-2.016,0.451,-149.903,121.582,1999.694,
00:00:04:66,1.394,-2.197,0.633,-303.65,-449.585,1999.694,
00:00:04:83,0.117,-1.903,0.826,-521.363,-60.12,1687.866,
00:00:04:100,-0.1,-1.781,0.49,-481.507,504.211,596.435,
00:00:04:116,0.028,-1.882,0.204,44.555,618.286,-4.944,
00:00:04:133,0.265,-1.918,0.19,405.029,423.095,-6.409,
00:00:04:150,0.212,-1.779,0.308,243.957,163.513,226.867,
00:00:04:166,-0.076,-1.553,0.619,-280.64,25.39,173.095,
00:00:04:183,-0.233,-1.262,0.718,-698.487,150.024,98.266,
00:00:04:200,-0.206,-1.017,0.65,-824.036,195.129,-7.508,
00:00:04:216,-0.123,-0.938,0.536,-855.652,136.901,-58.777,
00:00:04:233,-0.134,-1.01,0.575,-889.588,58.532,-75.013,
00:00:04:250,-0.234,-0.97,0.742,-994.935,109.802,-18.555,
00:00:04:266,-0.25,-0.816,0.783,-895.691,239.685,-37.171,
00:00:04:283,-0.173,-0.619,0.749,-657.654,338.562,11.413,
00:00:04:300,-0.101,-0.552,0.7,-452.454,307.312,93.627,
00:00:04:316,-0.07,-0.56,0.659,-332.093,257.568,65.856,
00:00:04:333,-0.037,-0.597,0.696,-282.715,210.937,-15.076,
00:00:04:350,0.023,-0.667,0.836,-268.006,117.614,-169.678,
00:00:04:366,-0.046,-0.779,0.867,-301.758,48.523,-200.379,
00:00:04:383,-0.091,-0.672,0.812,-334.046,70.8,-106.629,
00:00:04:400,-0.03,-0.619,0.83,-300.965,39.55,-31.189,
00:00:04:416,0.035,-0.51,0.82,-256.165,10.253,2.685,
00:00:04:433,0.012,-0.383,0.844,-100.769,-93.323,29.602,
00:00:04:450,-0.072,-0.49,0.831,92.712,-94.666,-5.005,
00:00:04:466,-0.074,-0.65,0.854,132.629,-16.663,49.377,
00:00:04:483,0.026,-0.65,0.841,224.975,41.503,80.871,
00:00:04:500,0.091,-0.589,0.741,400.451,-15.87,51.452,
00:00:04:516,0.079,-0.604,0.779,641.296,-167.42,24.414,
00:00:04:533,0.01,-0.735,0.729,852.783,-203.919,-39.185,
00:00:04:550,-0.042,-0.836,0.753,929.26,-241.15,-66.834,
00:00:04:566,-0.032,-0.969,0.73,889.526,-232.361,-66.346,
00:00:04:583,-0.068,-1.012,0.694,795.044,-228.272,-22.889,
00:00:04:600,-0.103,-0.903,0.618,661.743,-245.606,-14.893,
00:00:04:616,-0.115,-0.815,0.598,555.114,-222.657,-137.94,
00:00:04:633,-0.087,-0.921,0.508,609.863,-150.452,-289.185,
00:00:04:650,-0.057,-1.065,0.442,782.592,-128.174,-421.021,
00:00:04:666,-0.061,-1.229,0.375,836.181,-188.416,-445.679,
00:00:04:683,-0.138,-1.26,0.334,716.797,-220.643,-411.438,
00:00:04:700,-0.216,-1.209,0.352,556.579,-170.35,-377.93,
00:00:04:716,-0.259,-1.13,0.371,417.419,-102.478,-386.17,
00:00:04:733,-0.26,-1.089,0.367,285.278,-43.946,-440.186,
00:00:04:750,-0.258,-1.058,0.359,188.171,28.076,-517.029,
00:00:04:766,-0.266,-1.096,0.343,115.417,58.105,-545.166,
00:00:04:783,-0.279,-1.134,0.265,40.405,67.932,-511.536,
00:00:04:800,-0.258,-1.017,0.301,-17.029,105.651,-429.566,
00:00:04:816,-0.297,-0.868,0.363,-82.398,137.634,-414.917,
00:00:04:833,-0.338,-0.835,0.379,-55.909,221.252,-419.861,
00:00:04:850,-0.306,-0.895,0.437,-59.571,358.886,-384.095,
00:00:04:866,-0.302,-0.993,0.33,-154.786,437.317,-416.932,
00:00:04:883,-0.294,-0.927,0.263,-157.044,380.859,-365.113,
00:00:04:900,-0.274,-0.872,0.254,-178.956,389.221,-246.705,
00:00:04:916,-0.269,-0.807,0.297,-174.134,397.338,-207.764,
00:00:04:933,-0.237,-0.799,0.389,-161.683,388.855,-174.561,
00:00:04:950,-0.204,-0.832,0.439,-234.681,374.084,-134.461,
00:00:04:966,-0.216,-0.818,0.45,-329.529,348.388,-112.427,
00:00:04:983,-0.238,-0.738,0.437,-317.627,350.708,-96.07,
00:00:05:0,-0.244,-0.697,0.42,-278.382,364.074,-93.75,
00:00:05:16,-0.224,-0.731,0.414,-201.966,364.38,-103.943,
00:00:05:33,-0.203,-0.795,0.41,-196.106,337.829,-102.845,
00:00:05:50,-0.174,-0.819,0.484,-243.836,289.428,-84.961,
00:00:05:66,-0.175,-0.838,0.499,-338.868,245.178,-49.073,
00:00:05:83,-0.205,-0.813,0.503,-392.029,214.233,-36.805,
00:00:05:100,-0.202,-0.79,0.516,-400.513,221.801,-52.43,
00:00:05:116,-0.166,-0.756,0.525,-405.152,193.725,-73.182,
00:00:05:133,-0.152,-0.704,0.57,-360.84,148.071,-97.84,
00:00:05:150,-0.184,-0.67,0.582,-308.533,96.618,-97.718,
00:00:05:166,-0.209,-0.7,0.608,-249.634,82.275,-136.353,
00:00:05:183,-0.21,-0.72,0.63,-205.75,56.213,-82.642,
00:00:05:200,-0.182,-0.726,0.642,-160.401,55.297,-82.398,
00:00:05:216,-0.157,-0.715,0.645,-147.156,10.559,-84.046,
00:00:05:233,-0.176,-0.727,0.624,-141.541,-31.983,-108.216,
00:00:05:250,-0.215,-0.727,0.614,-123.902,-26.185,-110.291,
00:00:05:266,-0.225,-0.699,0.63,-70.679,-34.729,-99.366,
00:00:05:283,-0.218,-0.732,0.626,-3.296,-40.162,-96.985,
00:00:05:300,-0.216,-0.712,0.697,57.739,-82.093,-63.294,
00:00:05:316,-0.224,-0.722,0.801,79.04,-85.755,-42.054,
00:00:05:333,-0.265,-0.737,0.789,63.903,-27.894,-11.536,
00:00:05:350,-0.295,-0.791,0.61,45.166,23.62,-17.395,
00:00:05:366,-0.235,-0.774,0.5,163.025,35.4,54.809,
00:00:05:383,-0.164,-0.765,0.608,219.787,-35.889,131.652,
00:00:05:400,-0.214,-0.759,0.719,229.919,-114.747,132.202,
00:00:05:416,-0.283,-0.762,0.724,142.151,-72.205,117.736,
00:00:05:433,-0.263,-0.63,0.652,182.8,18.798,115.783,
00:00:05:450,-0.232,-0.625,0.602,312.683,59.448,67.993,
00:00:05:466,-0.228,-0.759,0.557,399.719,69.274,25.94,
00:00:05:483,-0.2,-0.883,0.539,303.466,66.711,39.367,
00:00:05:500,-0.183,-0.837,0.55,213.867,58.044,71.044,
00:00:05:516,-0.203,-0.814,0.578,178.772,25.94,51.635,
00:00:05:533,-0.216,-0.819,0.571,129.943,6.774,34.362,
00:00:05:550,-0.209,-0.771,0.561,150.573,22.338,23.498,
00:00:05:566,-0.202,-0.771,0.557,273.315,28.686,21.911,
00:00:05:583,-0.218,-0.88,0.586,341.308,16.479,42.968,
00:00:05:600,-0.225,-0.974,0.559,222.412,60.913,36.621,
00:00:05:616,-0.164,-0.974,0.557,151.001,89.782,65.185,
00:00:05:633,-0.157,-0.918,0.517,78.43,75.866,79.406,
00:00:05:650,-0.178,-0.87,0.517,80.993,62.561,61.645,
00:00:05:666,-0.201,-0.849,0.485,139.587,63.415,60.607,
00:00:05:683,-0.203,-0.857,0.453,165.71,88.989,36.01,
00:00:05:700,-0.173,-0.957,0.478,157.043,51.818,41.259,
00:00:05:716,-0.173,-1.059,0.516,10.925,-3.602,31.616,
00:00:05:733,-0.159,-0.998,0.532,-210.144,28.93,7.629,
00:00:05:750,-0.164,-0.896,0.537,-242.005,7.568,-10.804,
00:00:05:766,-0.191,-0.828,0.512,-213.318,-1.221,-17.334,
00:00:05:783,-0.19,-0.812,0.528,-88.868,13.794,-16.48,
00:00:05:800,-0.159,-0.874,0.542,29.113,-30.884,23.986,
00:00:05:816,-0.165,-0.93,0.561,-32.715,-91.858,46.691,
00:00:05:833,-0.177,-0.886,0.565,-173.829,-66.59,1.586,
00:00:05:850,-0.178,-0.806,0.552,-230.408,-63.599,-13.123,
00:00:05:866,-0.199,-0.783,0.489,-216.858,-73.121,-23.987,
00:00:05:883,-0.18,-0.797,0.519,-108.582,-72.754,-19.471,
00:00:05:900,-0.211,-0.875,0.591,-120.545,-102.478,-2.625,
00:00:05:916,-0.25,-0.913,0.604,-248.719,-56.763,-20.691,
00:00:05:933,-0.216,-0.833,0.583,-299.012,-5.005,-15.564,
00:00:05:950,-0.182,-0.717,0.569,-205.018,-18.311,15.564,
00:00:05:966,-0.219,-0.692,0.566,-41.932,-49.622,2.197,
00:00:05:983,-0.248,-0.773,0.587,44.555,-29.175,-27.405,
00:00:06:0,-0.235,-0.896,0.623,-8.484,-7.508,-41.26,mixLH
00:00:06:16,-0.224,-0.931,0.643,-104.493,15.319,-24.476,
00:00:06:33,-0.217,-0.878,0.618,-139.832,59.997,-5.555,
00:00:06:50,-0.223,-0.793,0.603,-109.559,86.975,4.333,
00:00:06:66,-0.218,-0.84,0.603,-50.354,114.746,-0.061,
00:00:06:83,-0.198,-0.867,0.593,-53.04,129.821,12.756,
00:00:06:100,-0.173,-0.809,0.565,-93.689,130.188,9.521,
00:00:06:116,-0.17,-0.725,0.578,-4.883,106.811,0.366,
00:00:06:133,-0.189,-0.817,0.636,34.545,97.778,-37.72,
00:00:06:150,-0.168,-0.907,0.652,17.334,135.803,-48.401,
00:00:06:166,-0.124,-0.939,0.624,-53.589,144.775,-46.814,
00:00:06:183,-0.119,-0.891,0.571,-143.921,151.428,-47.425,
00:00:06:200,-0.117,-0.799,0.549,-179.078,161.926,-61.707,
00:00:06:216,-0.132,-0.76,0.565,-100.22,147.155,-81.36,
00:00:06:233,-0.119,-0.775,0.619,-38.88,158.203,-91.248,
00:00:06:250,-0.088,-0.771,0.654,-15.015,144.104,-109.681,
00:00:06:266,-0.091,-0.792,0.67,26.855,147.094,-104.371,
00:00:06:283,-0.093,-0.824,0.663,46.569,170.288,-107.666,
00:00:06:300,-0.058,-0.787,0.632,29.113,190.857,-104.493,
00:00:06:316,-0.07,-0.746,0.602,58.532,174.743,-130.066,
00:00:06:333,-0.084,-0.798,0.623,79.956,165.771,-136.597,
00:00:06:350,-0.06,-0.828,0.653,36.499,182.861,-149.17,
00:00:06:366,-0.044,-0.82,0.673,-7.813,204.284,-156.434,
00:00:06:383,-0.026,-0.828,0.69,5.615,215.088,-161.011,
00:00:06:400,-0.026,-0.791,0.664,17.578,217.59,-167.237,
00:00:06:416,-0.032,-0.804,0.652,48.645,195.434,-171.204,
00:00:06:433,-0.028,-0.826,0.684,55.175,146.728,-143.738,
00:00:06:450,-0.036,-0.811,0.722,-9.4,124.511,-128.724,
00:00:06:466,-0.023,-0.774,0.74,-59.51,116.027,-135.621,
00:00:06:483,-0.011,-0.713,0.72,-39.49,102.661,-130.616,
00:00:06:500,-0.026,-0.72,0.701,15.625,67.138,-142.762,
00:00:06:516,-0.043,-0.778,0.701,23.315,21.057,-128.54,
00:00:06:533,-0.057,-0.787,0.725,-40.955,-5.433,-95.826,
00:00:06:550,-0.075,-0.76,0.725,-83.985,-12.94,-68.421,
00:00:06:566,-0.075,-0.759,0.727,-101.441,-6.836,-61.402,
00:00:06:583,-0.06,-0.729,0.731,-102.417,-4.578,-55.298,
00:00:06:600,-0.064,-0.712,0.702,-30.518,-16.785,-44.739,
00:00:06:616,-0.182,-0.782,0.73,-124.207,-87.769,20.324,
00:00:06:633,-0.152,-0.721,0.732,-170.044,-99.305,17.822,
00:00:06:650,-0.151,-0.688,0.74,-129.212,-130.127,29.724,
00:00:06:666,-0.209,-0.722,0.717,-36.988,-181.519,49.072,
00:00:06:683,-0.287,-0.746,0.698,-56.885,-207.825,82.763,
00:00:06:700,-0.317,-0.679,0.678,-233.643,-206.604,106.018,
00:00:06:716,-0.326,-0.676,0.697,-220.093,-212.586,120.91,
00:00:06:733,-0.353,-0.653,0.68,-201.722,-221.924,139.77,
00:00:06:750,-0.383,-0.687,0.669,-204.224,-222.657,143.554,
00:00:06:766,-0.396,-0.682,0.658,-242.92,-209.229,150.39,
00:00:06:783,-0.411,-0.641,0.645,-223.084,-208.435,155.334,
00:00:06:800,-0.414,-0.646,0.641,-158.57,-183.167,149.658,
00:00:06:816,-0.39,-0.689,0.616,-107.3,-149.109,143.798,
00:00:06:833,-0.366,-0.775,0.58,-139.71,-127.259,120.3,
00:00:06:850,-0.324,-0.792,0.565,-216.797,-125.916,90.148,
00:00:06:866,-0.321,-0.783,0.606,-284.058,-143.799,70.617,
00:00:06:883,-0.347,-0.698,0.614,-326.661,-136.841,82.58,
00:00:06:900,-0.364,-0.624,0.64,-301.636,-113.282,88.44,
00:00:06:916,-0.341,-0.546,0.659,-218.689,-74.585,95.031,
00:00:06:933,-0.329,-0.542,0.646,-78.309,-52.979,96.618,
00:00:06:950,-0.312,-0.613,0.656,1.342,-19.288,75.195,
00:00:06:966,-0.276,-0.697,0.656,-12.33,5.493,64.758,
00:00:06:983,-0.244,-0.721,0.675,-52.185,10.986,50.598,
00:00:07:0,-0.243,-0.716,0.703,-76.355,6.774,43.212,
00:00:07:16,-0.247,-0.693,0.734,-45.044,15.075,40.344,
00:00:07:33,-0.242,-0.673,0.717,36.499,37.536,36.926,
00:00:07:50,-0.219,-0.656,0.702,127.624,56.213,19.104,
00:00:07:66,-0.202,-0.743,0.704,184.753,67.321,1.098,
00:00:07:83,-0.178,-0.809,0.727,148.315,91.919,-15.686,
00:00:07:100,-0.142,-0.782,0.696,99.914,126.159,-17.212,
00:00:07:116,-0.116,-0.76,0.698,102.783,122.497,-46.021,
00:00:07:133,-0.121,-0.759,0.721,141.723,125.793,-76.844,
00:00:07:150,-0.127,-0.728,0.728,183.044,150.024,-91.065,
00:00:07:166,-0.112,-0.795,0.726,188.354,161.071,-108.155,
00:00:07:183,-0.041,-0.872,0.739,118.164,172.424,-119.629,
00:00:07:200,-0.003,-0.818,0.729,41.015,162.78,-125.428,
00:00:07:216,-0.033,-0.753,0.743,38.696,137.573,-142.09,
00:00:07:233,-0.083,-0.694,0.752,82.519,157.837,-163.514,
00:00:07:250,-0.096,-0.649,0.741,202.209,196.96,-176.514,
00:00:07:266,-0.073,-0.682,0.714,321.716,225.036,-167.664,
00:00:07:283,-0.001,-0.852,0.699,284.118,215.881,-165.284,
00:00:07:300,0.017,-0.862,0.7,116.882,198.181,-152.649,
00:00:07:316,0.008,-0.78,0.741,6.103,150.94,-162.903,
00:00:07:333,-0.032,-0.719,0.767,25.207,141.418,-179.444,
00:00:07:350,-0.039,-0.686,0.784,135.498,167.541,-179.383,
00:00:07:366,-0.033,-0.655,0.789,261.413,198.73,-177.735,
00:00:07:383,-0.028,-0.709,0.741,324.768,212.707,-174.378,
00:00:07:400,-0.002,-0.822,0.725,281.433,213.012,-186.402,
00:00:07:416,0.039,-0.814,0.714,170.41,190.551,-181.641,
00:00:07:433,0.027,-0.785,0.731,131.958,136.901,-185.303,
00:00:07:450,-0.023,-0.774,0.772,118.408,108.337,-174.927,
00:00:07:466,-0.062,-0.779,0.769,83.984,114.318,-161.866,
00:00:07:483,-0.037,-0.795,0.74,46.02,129.394,-146.18,
00:00:07:500,0.033,-0.779,0.712,-8.057,107.483,-148.255,
00:00:07:516,0.049,-0.774,0.725,-56.031,17.761,-168.824,
00:00:07:533,-0.009,-0.774,0.764,-63.05,-47.852,-161.377,
00:00:07:550,-0.075,-0.714,0.796,-64.087,-43.824,-119.446,
00:00:07:566,-0.116,-0.672,0.778,-16.785,-20.508,-91.614,
00:00:07:583,-0.128,-0.675,0.767,52.795,-26.673,-60.181,
00:00:07:600,-0.117,-0.712,0.761,80.993,-41.748,-49.988,
00:00:07:616,-0.13,-0.777,0.723,-16.236,-80.14,-47.974,
00:00:07:633,-0.116,-0.75,0.734,-144.227,-116.089,-34.729,
00:00:07:650,-0.153,-0.68,0.752,-186.28,-169.739,3.479,
00:00:07:666,-0.242,-0.634,0.761,-132.203,-215.943,39.428,
00:00:07:683,-0.328,-0.624,0.746,-72.51,-202.637,69.458,
00:00:07:700,-0.349,-0.657,0.713,-61.646,-183.533,77.697,
00:00:07:716,-0.329,-0.72,0.703,-111.512,-170.777,85.937,
00:00:07:733,-0.312,-0.73,0.694,-193.055,-193.726,122.741,
00:00:07:750,-0.34,-0.678,0.716,-246.827,-239.38,158.447,
00:00:07:766,-0.403,-0.608,0.72,-228.272,-252.869,169.86,
00:00:07:783,-0.448,-0.606,0.711,-158.57,-224.427,155.456,
00:00:07:800,-0.45,-0.668,0.685,-131.775,-183.106,154.174,
00:00:07:816,-0.394,-0.709,0.669,-165.894,-152.894,160.949,
00:00:07:833,-0.355,-0.686,0.646,-188.111,-177.918,176.391,
00:00:07:850,-0.364,-0.684,0.665,-174.317,-198.548,170.227,
00:00:07:866,-0.368,-0.685,0.635,-159.852,-179.932,141.601,
00:00:07:883,-0.446,-0.663,0.566,-81.055,-180.176,113.525,
00:00:07:900,-0.417,-0.772,0.655,-30.579,-97.901,79.956,
00:00:07:916,-0.363,-0.706,0.574,-46.814,-74.707,98.999,
00:00:07:933,-0.36,-0.737,0.559,-111.39,-80.14,86.792,
00:00:07:950,-0.364,-0.673,0.639,-132.569,-37.293,84.777,
00:00:07:966,-0.244,-0.646,0.669,-127.32,36.071,96.496,
00:00:07:983,-0.222,-0.59,0.707,45.898,-61.524,80.139,
00:00:08:0,-0.336,-0.78,0.662,55.236,-52.857,33.142,
00:00:08:16,-0.267,-0.732,0.635,-68.909,6.408,47.668,
00:00:08:33,-0.254,-0.675,0.677,-70.984,-59.51,56.03,
00:00:08:50,-0.305,-0.691,0.722,-80.262,-36.866,67.138,
00:00:08:66,-0.277,-0.65,0.739,-42.176,42.48,58.898,
00:00:08:83,-0.224,-0.681,0.72,31.738,68.664,36.56,
00:00:08:100,-0.213,-0.72,0.695,35.217,63.842,5.859,
00:00:08:116,-0.225,-0.727,0.663,-5.616,61.157,-4.761,
00:00:08:133,-0.099,-0.693,0.738,20.08,145.141,-2.137,
00:00:08:150,-0.084,-0.71,0.734,125.244,139.648,-43.152,
00:00:08:166,-0.09,-0.758,0.733,169.006,148.742,-87.891,
00:00:08:183,-0.099,-0.826,0.707,122.314,153.076,-110.352,
00:00:08:200,-0.067,-0.903,0.761,0.305,158.874,-130.738,
00:00:08:216,-0.009,-0.762,0.764,-2.564,134.643,-165.345,
00:00:08:233,-0.032,-0.762,0.757,30.7,141.967,-222.596,
00:00:08:250,-0.066,-0.739,0.742,49.072,154.846,-240.662,
00:00:08:266,-0.073,-0.738,0.737,42.541,182.373,-242.127,
00:00:08:283,-0.049,-0.658,0.717,34.668,209.9,-226.38,
00:00:08:300,-0.051,-0.625,0.771,193.481,214.538,-261.78,
00:00:08:316,-0.06,-0.664,0.78,223.205,214.416,-252.076,
00:00:08:333,-0.05,-0.683,0.797,197.998,219.726,-238.709,
00:00:08:350,-0.024,-0.749,0.817,151.367,217.224,-244.202,
00:00:08:366,-0.059,-0.69,0.833,112.671,98.327,-240.54,
00:00:08:383,-0.105,-0.707,0.833,91.919,115.661,-227.539,
00:00:08:400,-0.08,-0.691,0.828,56.579,129.028,-219.91,
00:00:08:416,-0.056,-0.711,0.809,61.767,112.671,-220.704,
00:00:08:433,-0.058,-0.702,0.839,73.181,74.462,-191.285,
00:00:08:450,-0.102,-0.632,0.838,93.566,53.649,-161.377,
00:00:08:466,-0.121,-0.73,0.778,12.695,44.006,-111.573,
00:00:08:483,-0.109,-0.71,0.783,-122.986,1.464,-57.74,
00:00:08:500,-0.124,-0.669,0.836,-208.497,-56.824,-50.171,
00:00:08:516,-0.209,-0.602,0.865,-219.605,-110.962,-22.034,
00:00:08:533,-0.288,-0.525,0.857,-158.509,-119.446,13.061,
00:00:08:550,-0.227,-0.645,0.771,-171.265,-125.306,98.205,
00:00:08:566,-0.291,-0.635,0.785,-243.226,-187.195,119.567,
00:00:08:583,-0.333,-0.622,0.797,-286.133,-203.003,133.667,
00:00:08:600,-0.336,-0.562,0.804,-285.096,-201.722,160.644,
00:00:08:616,-0.35,-0.571,0.764,-237.244,-182.74,185.18,
00:00:08:633,-0.349,-0.577,0.724,-246.521,-174.073,188.842,
00:00:08:650,-0.366,-0.548,0.7,-248.963,-205.567,195.556,
00:00:08:666,-0.413,-0.569,0.681,-254.883,-212.83,197.326,
00:00:08:683,-0.398,-0.577,0.672,-283.265,-167.603,213.44,
00:00:08:700,-0.363,-0.532,0.644,-268.006,-158.814,220.581,
00:00:08:716,-0.37,-0.513,0.611,-200.928,-168.03,194.702,
00:00:08:733,-0.391,-0.557,0.606,-139.466,-143.433,167.724,
00:00:08:750,-0.382,-0.547,0.605,-101.502,-99.854,176.33,
00:00:08:766,-0.382,-0.544,0.623,-41.016,-70.557,172.302,
00:00:08:783,-0.356,-0.555,0.663,11.23,-25.208,159.118,
00:00:08:800,-0.315,-0.572,0.678,55.542,-0.855,136.718,
00:00:08:816,-0.275,-0.601,0.66,88.256,-15.564,106.445,
00:00:08:833,-0.266,-0.675,0.658,97.229,-42.481,108.886,
00:00:08:850,-0.24,-0.744,0.708,38.574,-51.453,108.398,
00:00:08:866,-0.22,-0.718,0.749,-13.855,-39.368,99.67,
00:00:08:883,-0.232,-0.642,0.725,19.104,-44.007,77.453,
00:00:08:900,-0.26,-0.643,0.702,69.213,-29.053,25.634,
00:00:08:916,-0.26,-0.668,0.669,74.646,6.836,-1.526,
00:00:08:933,-0.238,-0.662,0.651,48.156,39.245,3.906,
00:00:08:950,-0.202,-0.692,0.678,33.569,55.908,-14.954,
00:00:08:966,-0.16,-0.648,0.706,58.715,92.163,-9.644,
00:00:08:983,-0.146,-0.668,0.763,151.001,105.651,-56.397,
00:00:09:0,-0.149,-0.696,0.765,211.67,143.615,-69.153,
00:00:09:16,-0.137,-0.75,0.766,224.304,164.856,-92.469,
00:00:09:33,-0.122,-0.758,0.796,184.997,172.729,-108.826,
00:00:09:50,-0.085,-0.813,0.831,146.728,172.058,-122.132,
00:00:09:66,-0.052,-0.761,0.806,119.018,174.682,-115.052,
00:00:09:83,-0.054,-0.719,0.798,149.047,155.09,-148.743,
00:00:09:100,-0.078,-0.74,0.84,219.055,161.255,-190.613,
00:00:09:116,-0.084,-0.759,0.82,248.962,203.064,-209.351,
00:00:09:133,-0.067,-0.781,0.792,246.887,226.318,-217.774,
00:00:09:150,-0.042,-0.776,0.766,209.106,210.937,-210.389,
00:00:09:166,-0.026,-0.766,0.796,156.738,186.828,-217.957,
00:00:09:183,-0.02,-0.768,0.842,116.088,185.974,-207.154,
00:00:09:200,-0.005,-0.754,0.888,103.759,197.876,-208.68,
00:00:09:216,0.014,-0.714,0.919,169.25,211.303,-203.431,
00:00:09:233,0.001,-0.67,0.868,261.23,203.43,-200.684,
00:00:09:250,-0.03,-0.718,0.82,310.791,171.264,-223.755,
00:00:09:266,-0.041,-0.789,0.842,258.667,137.268,-223.023,
00:00:09:283,-0.039,-0.792,0.854,168.762,131.225,-204.224,
00:00:09:300,-0.046,-0.748,0.816,95.642,131.591,-196.106,
00:00:09:316,-0.043,-0.733,0.8,80.627,127.197,-204.407,
00:00:09:333,-0.052,-0.713,0.767,80.688,122.436,-189.698,
00:00:09:350,-0.062,-0.689,0.754,141.906,102.722,-172.852,
00:00:09:366,-0.105,-0.722,0.774,171.814,65.307,-152.771,
00:00:09:383,-0.158,-0.742,0.796,125.244,34.179,-125.611,
00:00:09:400,-0.173,-0.714,0.805,29.663,64.758,-102.845,
00:00:09:416,-0.136,-0.723,0.754,29.052,75.439,-71.717,
00:00:09:433,-0.088,-0.681,0.676,-3.357,32.104,-65.491,
00:00:09:450,-0.113,-0.647,0.7,-26.429,-78.614,-73.121,
00:00:09:466,-0.206,-0.687,0.746,-60.181,-157.898,-65.796,
00:00:09:483,-0.272,-0.67,0.771,-158.631,-147.461,-21.363,
00:00:09:500,-0.274,-0.595,0.776,-223.328,-105.957,22.461,
00:00:09:516,-0.222,-0.504,0.744,-170.777,-78.492,60.73,
00:00:09:533,-0.209,-0.52,0.711,-48.218,-118.714,67.138,
00:00:09:550,-0.261,-0.632,0.7,-16.541,-181.641,81.237,
00:00:09:566,-0.312,-0.731,0.724,-143.372,-211.609,105.163,
00:00:09:583,-0.325,-0.732,0.744,-336.976,-211.182,141.784,
00:00:09:600,-0.29,-0.634,0.765,-430.909,-210.022,179.504,
00:00:09:616,-0.302,-0.499,0.763,-352.845,-257.142,191.65,
00:00:09:633,-0.375,-0.526,0.763,-180.909,-277.588,171.997,
00:00:09:650,-0.398,-0.64,0.734,-123.047,-225.525,175.842,
00:00:09:666,-0.357,-0.687,0.701,-162.537,-195.191,200.927,
00:00:09:683,-0.326,-0.658,0.672,-198.243,-199.585,211.242,
00:00:09:700,-0.348,-0.611,0.652,-183.35,-213.807,198.791,
00:00:09:716,-0.365,-0.642,0.668,-134.034,-182.984,165.283,
00:00:09:733,-0.356,-0.703,0.662,-168.946,-123.169,153.503,
00:00:09:750,-0.317,-0.715,0.637,-244.202,-97.352,155.212,
00:00:09:766,-0.31,-0.626,0.656,-290.894,-124.634,162.231,
00:00:09:783,-0.342,-0.579,0.679,-242.92,-142.701,150.39,
00:00:09:800,-0.36,-0.597,0.686,-155.335,-112.854,139.099,
00:00:09:816,-0.352,-0.658,0.645,-114.869,-72.632,130.798,
00:00:09:833,-0.331,-0.679,0.648,-128.602,-50.354,106.201,
00:00:09:850,-0.335,-0.648,0.63,-165.772,-46.143,92.895,
00:00:09:866,-0.346,-0.573,0.621,-176.27,-41.443,85.449,
00:00:09:883,-0.36,-0.53,0.636,-134.095,-16.663,84.594,
00:00:09:900,-0.326,-0.586,0.673,-43.702,40.344,81.543,
00:00:09:916,-0.263,-0.667,0.699,-40.223,82.031,64.209,
00:00:09:933,-0.207,-0.605,0.718,-55.237,88.867,59.448,
00:00:09:950,-0.225,-0.519,0.728,7.08,65.673,62.377,
00:00:09:966,-0.253,-0.547,0.759,110.595,76.477,31.066,
00:00:09:983,-0.208,-0.644,0.798,206.298,127.746,26.855,
00:00:10:0,-0.113,-0.728,0.819,294.494,152.893,34.118,
00:00:10:16,-0.046,-0.787,0.813,298.889,129.516,11.169,
00:00:10:33,-0.056,-0.803,0.779,244.323,88.073,-32.41,mixLH
00:00:10:50,-0.124,-0.76,0.756,166.565,74.585,-72.083,
00:00:10:66,-0.124,-0.724,0.757,123.535,83.435,-110.962,
00:00:10:83,-0.098,-0.761,0.776,118.835,98.449,-114.991,
00:00:10:100,-0.082,-0.795,0.789,130.066,126.892,-115.235,
00:00:10:116,-0.033,-0.782,0.795,128.784,144.836,-99.793,
00:00:10:133,-0.038,-0.738,0.785,175.964,138.427,-111.512,
00:00:10:150,-0.067,-0.687,0.781,255.798,145.568,-140.686,
00:00:10:166,-0.087,-0.709,0.766,307.678,174.255,-179.505,
00:00:10:183,-0.063,-0.754,0.768,310.669,190.918,-215.943,
00:00:10:200,-0.041,-0.787,0.747,233.093,190.979,-212.891,
00:00:10:216,-0.027,-0.808,0.764,151.428,184.204,-214.478,
00:00:10:233,-0.033,-0.736,0.779,77.27,182.006,-205.445,
00:00:10:250,-0.06,-0.674,0.808,86.486,183.96,-201.172,
00:00:10:266,-0.068,-0.674,0.825,130.859,206.665,-211.792,
00:00:10:283,-0.04,-0.676,0.822,160.888,239.074,-213.807,
00:00:10:300,-0.019,-0.676,0.79,193.176,224.243,-223.999,
00:00:10:316,-0.027,-0.74,0.787,249.023,175.842,-220.643,
00:00:10:333,-0.042,-0.77,0.81,257.751,132.446,-162.476,
00:00:10:350,-0.07,-0.694,0.829,227.539,104.126,-126.282,
00:00:10:366,-0.104,-0.66,0.822,244.629,85.022,-133.057,
00:00:10:383,-0.104,-0.726,0.791,271.301,92.773,-145.874,
00:00:10:400,-0.066,-0.785,0.743,229.187,92.956,-149.048,
00:00:10:416,-0.044,-0.788,0.718,145.813,49.194,-145.508,
00:00:10:433,-0.055,-0.788,0.731,69.824,18.066,-114.991,
00:00:10:450,-0.081,-0.783,0.743,12.085,-6.958,-72.144,
00:00:10:466,-0.096,-0.742,0.76,2.624,-26.795,-41.932,
00:00:10:483,-0.098,-0.704,0.748,29.296,-41.81,-16.846,
00:00:10:500,-0.102,-0.65,0.73,58.898,-58.655,-23.743,
00:00:10:516,-0.115,-0.654,0.719,131.836,-84.351,-51.27,
00:00:10:533,-0.15,-0.682,0.717,161.132,-113.892,-41.443,
00:00:10:550,-0.233,-0.726,0.71,139.953,-160.279,-19.165,
00:00:10:566,-0.296,-0.771,0.703,46.936,-165.589,16.601,
00:00:10:583,-0.284,-0.797,0.717,-71.656,-131.104,53.466,
00:00:10:600,-0.236,-0.747,0.72,-171.509,-130.249,84.594,
00:00:10:616,-0.253,-0.693,0.718,-180.176,-191.773,99.06,
00:00:10:633,-0.347,-0.675,0.71,-136.17,-239.38,107.727,
00:00:10:650,-0.424,-0.659,0.701,-82.886,-210.938,121.948,
00:00:10:666,-0.427,-0.649,0.676,-44.312,-149.598,109.985,
00:00:10:683,-0.38,-0.754,0.637,-59.998,-118.287,79.711,
00:00:10:700,-0.308,-0.834,0.637,-158.509,-129.944,68.664,
00:00:10:716,-0.293,-0.791,0.638,-255.494,-192.383,102.844,
00:00:10:733,-0.344,-0.716,0.662,-273.011,-224.427,120.178,
00:00:10:750,-0.357,-0.666,0.677,-214.478,-175.66,112.732,
00:00:10:766,-0.344,-0.686,0.649,-127.442,-129.517,102.722,
00:00:10:783,-0.316,-0.779,0.638,-109.62,-99.915,97.351,
00:00:10:800,-0.27,-0.879,0.638,-212.037,-81.91,100.525,
00:00:10:816,-0.229,-0.817,0.628,-370.057,-103.821,117.248,
00:00:10:833,-0.246,-0.684,0.633,-408.509,-183.594,104.675,
00:00:10:850,-0.32,-0.605,0.627,-344.727,-212.83,75.134,
00:00:10:866,-0.355,-0.628,0.624,-302.308,-179.078,40.039,
00:00:10:883,-0.34,-0.648,0.61,-334.778,-141.114,61.706,
00:00:10:900,-0.33,-0.598,0.645,-359.314,-135.56,92.956,
00:00:10:916,-0.322,-0.555,0.693,-301.026,-103.394,99.792,
00:00:10:933,-0.291,-0.558,0.705,-188.233,-51.514,101.318,
00:00:10:950,-0.274,-0.579,0.678,-84.595,-41.016,85.754,
00:00:10:966,-0.295,-0.584,0.641,5.432,-44.007,77.514,
00:00:10:983,-0.332,-0.631,0.618,25.94,-37.598,67.138,
00:00:11:0,-0.314,-0.643,0.635,-23.865,6.774,59.692,
00:00:11:16,-0.258,-0.644,0.671,-41.138,45.593,68.542,
00:00:11:33,-0.192,-0.675,0.73,-16.846,62.255,53.039,
00:00:11:50,-0.168,-0.706,0.736,-7.447,57.128,24.353,
00:00:11:66,-0.189,-0.684,0.7,-3.418,29.968,2.868,
00:00:11:83,-0.238,-0.629,0.669,7.629,15.319,-1.404,
00:00:11:100,-0.264,-0.587,0.694,57.006,33.325,2.441,
00:00:11:116,-0.254,-0.613,0.727,103.515,82.519,12.268,
00:00:11:133,-0.183,-0.675,0.77,142.639,144.348,8.544,
00:00:11:150,-0.106,-0.7,0.747,144.409,166.565,6.652,
00:00:11:166,-0.097,-0.699,0.729,168.213,124.45,-18.738,
00:00:11:183,-0.136,-0.708,0.732,200.073,101.989,-45.166,
00:00:11:200,-0.167,-0.754,0.744,208.435,128.54,-67.566,
00:00:11:216,-0.13,-0.829,0.766,172.424,172.973,-75.074,
00:00:11:233,-0.053,-0.868,0.789,102.295,187.5,-96.68,
00:00:11:250,0.001,-0.784,0.765,59.875,181.823,-97.657,
00:00:11:266,-0.026,-0.727,0.731,120.178,131.775,-127.32,
00:00:11:283,-0.103,-0.7,0.732,222.229,113.708,-163.514,
00:00:11:300,-0.15,-0.728,0.719,279.724,176.208,-185.914,
00:00:11:316,-0.11,-0.881,0.733,205.444,250.366,-209.595,
00:00:11:333,0.005,-0.912,0.745,57.495,276.245,-214.051,
00:00:11:350,0.036,-0.786,0.744,-30.396,219.177,-198.914,
00:00:11:366,-0.036,-0.694,0.753,-11.963,149.597,-212.037,
00:00:11:383,-0.111,-0.686,0.792,43.151,153.564,-223.084,
00:00:11:400,-0.106,-0.69,0.837,91.369,208.374,-228.882,
00:00:11:416,-0.052,-0.719,0.828,105.346,235.717,-234.253,
00:00:11:433,-0.005,-0.791,0.831,63.232,205.383,-239.441,
00:00:11:450,-0.003,-0.752,0.834,1.831,153.32,-217.469,
00:00:11:466,-0.053,-0.644,0.824,-5.921,95.886,-207.154,
00:00:11:483,-0.108,-0.625,0.833,46.691,82.763,-219.849,
00:00:11:500,-0.106,-0.634,0.823,87.707,105.59,-208.191,
00:00:11:516,-0.069,-0.659,0.826,122.741,111.694,-188.599,
00:00:11:533,-0.056,-0.689,0.795,113.647,90.515,-148.56,
00:00:11:550,-0.07,-0.674,0.793,78.247,59.997,-119.202,
00:00:11:566,-0.123,-0.636,0.793,54.687,23.559,-102.417,
00:00:11:583,-0.152,-0.645,0.792,87.829,11.84,-114.747,
00:00:11:600,-0.174,-0.707,0.789,67.627,10.315,-110.901,
00:00:11:616,-0.14,-0.711,0.799,32.653,16.479,-81.543,
00:00:11:633,-0.121,-0.706,0.779,-42.237,-1.648,-37.293,
00:00:11:650,-0.136,-0.678,0.761,-83.558,-44.434,-12.452,
00:00:11:666,-0.202,-0.635,0.779,-117.92,-113.77,5.92,
00:00:11:683,-0.284,-0.607,0.812,-126.648,-142.334,15.136,
00:00:11:700,-0.301,-0.612,0.826,-109.009,-115.967,38.818,
00:00:11:716,-0.254,-0.625,0.813,-114.258,-83.985,73.791,
00:00:11:733,-0.23,-0.637,0.795,-121.094,-108.155,104.004,
00:00:11:750,-0.271,-0.614,0.747,-132.386,-153.931,125.854,
00:00:11:766,-0.336,-0.609,0.721,-138.245,-185.425,119.812,
00:00:11:783,-0.33,-0.668,0.742,-183.777,-179.261,110.962,
00:00:11:800,-0.305,-0.659,0.733,-281.8,-200.318,135.192,
00:00:11:816,-0.328,-0.618,0.748,-332.093,-230.652,172.851,
00:00:11:833,-0.336,-0.588,0.748,-331.421,-209.046,197.937,
00:00:11:850,-0.329,-0.538,0.74,-249.939,-198.975,219.848,
00:00:11:866,-0.36,-0.558,0.7,-151.49,-186.646,208.557,
00:00:11:883,-0.363,-0.656,0.671,-121.949,-151.978,182.678,
00:00:11:900,-0.327,-0.71,0.634,-189.209,-137.33,178.833,
00:00:11:916,-0.333,-0.671,0.621,-277.039,-171.326,175.171,
00:00:11:933,-0.372,-0.604,0.636,-303.101,-181.214,160.034,
00:00:11:950,-0.397,-0.545,0.662,-264.649,-143.006,154.113,
00:00:11:966,-0.387,-0.506,0.667,-180.726,-86.121,150.756,
00:00:11:983,-0.355,-0.542,0.667,-99.671,-18.067,130.981,
00:00:12:0,-0.3,-0.604,0.68,-69.519,-6.958,123.352,
00:00:12:16,-0.268,-0.614,0.702,-49.195,-22.339,112.793,
00:00:12:33,-0.283,-0.637,0.722,-33.692,-33.265,95.52,
00:00:12:50,-0.289,-0.649,0.741,-14.588,-13.001,80.932,
00:00:12:66,-0.268,-0.654,0.748,-5.127,15.014,48.278,
00:00:12:83,-0.241,-0.661,0.74,-16.785,27.038,35.4,
00:00:12:100,-0.237,-0.635,0.739,-17.09,21.728,15.564,
00:00:12:116,-0.241,-0.607,0.727,-7.447,16.235,6.408,
00:00:12:133,-0.247,-0.581,0.699,31.921,33.691,19.836,
00:00:12:150,-0.229,-0.599,0.68,91.308,53.772,29.48,
00:00:12:166,-0.188,-0.668,0.752,116.516,86.181,26.489,
00:00:12:183,-0.135,-0.72,0.791,98.144,120.788,1.098,
00:00:12:200,-0.105,-0.685,0.795,101.928,138.794,-21.363,
00:00:12:216,-0.122,-0.648,0.794,170.959,128.173,-59.449,
00:00:12:233,-0.143,-0.676,0.769,231.628,133.361,-102.112,
00:00:12:250,-0.125,-0.763,0.745,267.212,147.766,-112.366,
00:00:12:266,-0.081,-0.805,0.73,190.857,142.883,-98.023,
00:00:12:283,-0.059,-0.801,0.781,82.092,117.981,-119.935,
00:00:12:300,-0.063,-0.723,0.792,48.767,130.31,-124.146,
00:00:12:316,-0.077,-0.663,0.802,104.248,142.089,-146.912,
00:00:12:333,-0.078,-0.621,0.807,247.375,167.236,-168.274,
00:00:12:350,-0.086,-0.609,0.773,390.564,198.242,-174.866,
00:00:12:366,-0.079,-0.75,0.725,437.622,227.661,-197.754,
00:00:12:383,0.034,-0.74,0.816,49.682,192.932,-190.979,
00:00:12:400,-0.025,-0.624,0.837,162.597,168.457,-198.121,
00:00:12:416,-0.065,-0.6,0.83,339.965,192.077,-221.741,
00:00:12:433,-0.082,-0.735,0.779,397.583,223.693,-240.357,
00:00:12:450,-0.066,-0.906,0.728,221.557,231.994,-251.831,
00:00:12:466,-0.025,-0.881,0.739,-14.954,197.937,-234.742,
00:00:12:483,-0.026,-0.747,0.79,-107.727,129.333,-209.168,
00:00:12:500,-0.062,-0.682,0.843,-72.205,94.665,-222.474,
00:00:12:516,-0.075,-0.682,0.86,11.352,110.901,-237.488,
00:00:12:533,-0.067,-0.664,0.841,90.82,130.737,-231.873,
00:00:12:550,-0.068,-0.664,0.83,164.795,118.652,-220.581,
00:00:12:566,-0.06,-0.736,0.756,146.423,113.098,-207.52,
00:00:12:583,-0.023,-0.8,0.768,36.682,88.44,-201.539,
00:00:12:600,0.002,-0.733,0.8,-66.529,37.902,-166.26,
00:00:12:616,-0.044,-0.637,0.806,-74.463,-30.701,-150.94,
00:00:12:633,-0.114,-0.578,0.807,-2.808,-68.909,-126.465,
00:00:12:650,-0.15,-0.552,0.788,79.345,-75.074,-89.173,
00:00:12:666,-0.154,-0.593,0.763,97.106,-70.069,-67.078,
00:00:12:683,-0.139,-0.669,0.764,25.878,-70.557,-58.838,
00:00:12:700,-0.229,-0.583,0.8,-36.438,-205.384,74.585,
00:00:12:716,-0.274,-0.6,0.775,-27.71,-193.482,98.083,
00:00:12:733,-0.26,-0.6,0.735,-52.918,-202.027,95.764,
00:00:12:750,-0.229,-0.672,0.719,-85.511,-210.45,76.294,
00:00:12:766,-0.258,-0.723,0.742,-153.931,-288.941,104.858,
00:00:12:783,-0.379,-0.614,0.732,-266.419,-298.218,170.776,
00:00:12:800,-0.399,-0.584,0.71,-224.732,-272.461,183.654,
00:00:12:816,-0.398,-0.58,0.677,-194.092,-258.301,180.969,
00:00:12:833,-0.42,-0.609,0.655,-192.872,-269.959,185.669,
00:00:12:850,-0.437,-0.662,0.666,-242.188,-258.912,201.538,
00:00:12:866,-0.42,-0.649,0.695,-285.828,-231.69,225.341,
00:00:12:883,-0.368,-0.71,0.644,-142.762,-126.038,184.387,
00:00:12:900,-0.358,-0.744,0.608,-139.893,-157.166,140.93,
00:00:12:916,-0.405,-0.755,0.614,-222.29,-182.312,111.084,
00:00:12:933,-0.418,-0.673,0.614,-321.045,-148.377,112.793,
00:00:12:950,-0.4,-0.543,0.626,-303.772,-128.113,127.99,
00:00:12:966,-0.323,-0.575,0.643,-28.87,-31.678,91.125,
00:00:12:983,-0.32,-0.592,0.648,-0.367,-53.65,73.425,
00:00:13:0,-0.346,-0.587,0.662,-0.306,-65.064,71.35,
00:00:13:16,-0.358,-0.54,0.672,27.832,-39.551,97.229,
00:00:13:33,-0.335,-0.562,0.706,86.425,-0.977,107.299,
00:00:13:50,-0.169,-0.774,0.761,49.133,83.801,33.203,
00:00:13:66,-0.189,-0.724,0.73,16.906,51.086,2.624,
00:00:13:83,-0.24,-0.688,0.723,17.761,47.485,-45.899,
00:00:13:100,-0.265,-0.663,0.734,75.378,86.853,-48.218,
00:00:13:116,-0.254,-0.677,0.776,146.118,146.423,-54.2,
00:00:13:133,-0.201,-0.763,0.77,183.349,197.204,-72.51,
00:00:13:150,-0.12,-0.861,0.781,159.118,216.003,-88.685,
00:00:13:166,-0.07,-0.817,0.768,100.036,192.993,-83.069,
00:00:13:183,-0.106,-0.723,0.73,98.205,136.413,-112.488,
00:00:13:200,-0.178,-0.665,0.73,155.151,116.272,-148.011,
00:00:13:216,-0.202,-0.632,0.767,268.127,157.837,-169.434,
00:00:13:233,-0.184,-0.651,0.772,344.726,208.068,-152.527,
00:00:13:250,-0.153,-0.74,0.732,316.284,236.45,-156.006,
00:00:13:266,-0.1,-0.784,0.717,207.824,228.759,-153.992,
00:00:13:283,-0.084,-0.693,0.67,125.732,205.017,-122.132,
00:00:13:300,-0.106,-0.604,0.698,157.714,175.293,-128.602,
00:00:13:316,-0.107,-0.585,0.768,328.125,219.482,-157.776,
00:00:13:333,-0.061,-0.585,0.794,595.642,255.066,-167.481,
00:00:13:350,-0.03,-0.69,0.764,755.676,238.464,-193.116,
00:00:13:366,-0.049,-0.74,0.707,861.267,205.322,-200.806,
00:00:13:383,-0.084,-0.825,0.653,831.054,189.88,-195.008,
00:00:13:400,-0.08,-0.913,0.647,750.305,190.979,-164.185,
00:00:13:416,-0.037,-0.945,0.644,615.112,182.861,-126.221,
00:00:13:433,-0.132,-0.945,0.504,741.516,169.555,-101.136,
00:00:13:450,-0.105,-0.905,0.506,701.904,152.893,-47.73,
00:00:13:466,-0.097,-0.798,0.489,716.186,138.672,-10.56,
00:00:13:483,-0.099,-0.792,0.439,860.351,129.455,-4.09,
00:00:13:500,-0.08,-0.878,0.445,961.914,96.557,-22.583,
00:00:13:516,-0.079,-0.934,0.401,914.184,94.238,-35.218,
00:00:13:533,-0.085,-0.927,0.334,875.183,78.857,-39.49,
00:00:13:550,-0.111,-0.91,0.272,856.323,29.48,-48.035,
00:00:13:566,-0.137,-0.981,0.291,823.73,0.793,-85.694,
00:00:13:583,-0.122,-1.117,0.258,666.87,13.244,-105.347,
00:00:13:600,-0.055,-1.123,0.226,494.567,0,-55.787,
00:00:13:616,-0.062,-1.092,0.235,334.961,-30.64,-52.552,
00:00:13:633,-0.163,-1.002,0.203,243.469,-72.754,-68.726,
00:00:13:650,-0.255,-1.009,0.191,226.196,-96.436,-97.901,
00:00:13:666,-0.253,-1.041,0.161,250.976,-67.2,-77.637,
00:00:13:683,-0.226,-1.11,0.117,170.776,-97.413,-74.769,
00:00:13:700,-0.177,-1.151,0.131,-14.283,-114.93,-65.735,
00:00:13:716,-0.167,-1.248,0.125,-253.54,-170.227,-120.606,
00:00:13:733,-0.205,-1.341,0.165,-700.867,-236.451,-89.417,
00:00:13:750,-0.276,-1.044,0.125,-993.836,-282.593,23.986,
00:00:13:766,-0.363,-0.737,0.202,-911.438,-321.228,60.73,
00:00:13:783,-0.454,-0.751,0.308,-633.545,-240.723,-11.292,
00:00:13:800,-0.418,-0.886,0.337,-370.606,-60.852,-19.654,
00:00:13:816,-0.319,-1.001,0.26,-309.998,-9.644,-24.048,
00:00:13:833,-0.285,-1.185,0.261,-481.08,-84.961,-53.833,
00:00:13:850,-0.281,-1.085,0.329,-730.652,-136.475,-39.063,
00:00:13:866,-0.366,-0.822,0.382,-695.801,-195.252,1.709,
00:00:13:883,-0.465,-0.797,0.405,-532.105,-190.979,-3.602,
00:00:13:900,-0.442,-0.916,0.462,-459.9,-105.103,25.573,
00:00:13:916,-0.315,-0.925,0.488,-493.042,-54.505,39.184,
00:00:13:933,-0.282,-0.85,0.451,-499.878,-107.422,18.371,
00:00:13:950,-0.36,-0.876,0.42,-475.281,-168.763,7.385,
00:00:13:966,-0.409,-0.8,0.397,-392.945,-127.32,19.409,
00:00:13:983,-0.386,-0.861,0.409,-376.587,-100.892,13.122,
00:00:14:0,-0.333,-0.923,0.421,-450.196,-72.571,12.817,
00:00:14:16,-0.281,-0.791,0.455,-488.77,-91.492,65.979,
00:00:14:33,-0.344,-0.616,0.452,-375.489,-102.478,79.284,mixLH
00:00:14:50,-0.406,-0.641,0.486,-203.37,-71.412,74.462,
00:00:14:66,-0.39,-0.743,0.482,-108.033,18.432,87.097,
00:00:14:83,-0.276,-0.825,0.47,-48.157,87.28,81.115,
00:00:14:100,-0.203,-0.902,0.466,-21.18,55.236,35.827,
00:00:14:116,-0.196,-0.976,0.499,-44.678,-30.396,42.297,
00:00:14:133,-0.243,-0.859,0.518,-68.299,-2.93,70.922,
00:00:14:150,-0.289,-0.825,0.463,-3.479,26.489,77.514,
00:00:14:166,-0.238,-0.892,0.488,48.645,95.642,42.602,
00:00:14:183,-0.14,-1.017,0.513,109.985,144.714,35.339,
00:00:14:200,-0.098,-1.063,0.494,59.143,159.301,15.075,
00:00:14:216,-0.106,-1.046,0.495,-5.616,158.752,-30.213,
00:00:14:233,-0.123,-0.974,0.53,3.051,178.955,-59.876,
00:00:14:250,-0.141,-0.872,0.479,49.133,183.776,-75.989,
00:00:14:266,-0.131,-0.831,0.454,160.644,211.425,-74.158,
00:00:14:283,-0.109,-0.857,0.428,195.678,216.858,-56.58,
00:00:14:300,-0.059,-0.924,0.483,118.225,211.12,-81.788,
00:00:14:316,-0.01,-0.952,0.507,29.235,214.782,-103.394,
00:00:14:333,0.015,-0.93,0.524,17.944,206.421,-116.333,
00:00:14:350,-0.002,-0.904,0.53,41.198,195.19,-132.996,
00:00:14:366,-0.032,-0.863,0.541,98.388,212.036,-153.687,
00:00:14:383,-0.046,-0.818,0.524,184.753,245.544,-161.438,
00:00:14:400,-0.034,-0.796,0.496,289.001,272.461,-159.424,
00:00:14:416,0.001,-0.879,0.499,368.408,278.625,-174.134,
00:00:14:433,0.028,-0.931,0.501,338.379,257.568,-159.913,
00:00:14:450,0.019,-0.955,0.512,236.145,221.618,-147.95,
00:00:14:466,-0.001,-0.993,0.539,97.595,194.213,-157.166,
00:00:14:483,-0.005,-0.959,0.575,21.423,175.781,-155.396,
00:00:14:500,-0.022,-0.933,0.584,-9.034,168.335,-155.274,
00:00:14:516,-0.043,-0.899,0.586,-15.625,165.832,-174.195,
00:00:14:533,-0.068,-0.877,0.572,-0.367,141.418,-182.373,
00:00:14:550,-0.073,-0.845,0.556,38.696,153.991,-167.298,
00:00:14:566,-0.054,-0.851,0.541,59.875,146.179,-157.471,
00:00:14:583,-0.023,-0.863,0.555,74.523,126.403,-133.728,
00:00:14:600,-0.033,-0.864,0.581,54.199,84.228,-114.502,
00:00:14:616,-0.069,-0.89,0.597,-10.56,63.72,-118.592,
00:00:14:633,-0.071,-0.86,0.61,-72.083,48.461,-109.436,
00:00:14:650,-0.078,-0.828,0.598,-113.099,19.226,-94.727,
00:00:14:666,-0.059,-0.804,0.583,-109.559,-13.55,-74.707,
00:00:14:683,-0.093,-0.794,0.585,-75.928,-100.953,-38.697,
00:00:14:700,-0.204,-0.804,0.631,-55.97,-195.74,0.244,
00:00:14:716,-0.281,-0.832,0.645,-61.463,-189.881,38.33,
00:00:14:733,-0.285,-0.865,0.626,-102.356,-177.43,46.814,
00:00:14:750,-0.243,-0.862,0.614,-165.162,-187.134,46.691,
00:00:14:766,-0.247,-0.853,0.589,-214.112,-227.906,54.443,
00:00:14:783,-0.314,-0.81,0.554,-242.554,-289.612,58.044,
00:00:14:800,-0.37,-0.781,0.564,-209.168,-294.251,98.999,
00:00:14:816,-0.385,-0.758,0.566,-189.759,-280.457,127.441,
00:00:14:833,-0.376,-0.757,0.545,-192.81,-269.715,144.897,
00:00:14:850,-0.359,-0.779,0.517,-186.89,-268.311,152.832,
00:00:14:866,-0.378,-0.789,0.502,-173.218,-289.612,161.316,
00:00:14:883,-0.425,-0.802,0.5,-168.274,-288.514,159.301,
00:00:14:900,-0.464,-0.848,0.469,-161.133,-233.46,161.132,
00:00:14:916,-0.41,-0.901,0.452,-197.998,-196.167,155.151,
00:00:14:933,-0.409,-0.881,0.475,-288.025,-181.58,150.085,
00:00:14:950,-0.417,-0.79,0.468,-340.088,-164.49,143.371,
00:00:14:966,-0.435,-0.708,0.468,-287.049,-141.053,132.385,
00:00:14:983,-0.431,-0.676,0.466,-142.945,-103.882,129.333,
00:00:15:0,-0.393,-0.697,0.496,30.883,-58.594,129.455,
00:00:15:16,-0.359,-0.79,0.495,98.938,-29.175,127.258,
00:00:15:33,-0.318,-0.934,0.502,43.884,-17.762,109.985,
00:00:15:50,-0.266,-0.973,0.523,-69.397,-16.419,91.919,
00:00:15:66,-0.264,-0.947,0.523,-155.03,-42.725,82.824,
00:00:15:83,-0.273,-0.875,0.55,-145.813,-20.02,74.89,
00:00:15:100,-0.258,-0.853,0.55,-111.939,21.85,63.781,
00:00:15:116,-0.225,-0.85,0.554,-64.393,53.039,33.508,
00:00:15:133,-0.182,-0.852,0.559,21.118,65.856,21.728,
00:00:15:150,-0.167,-0.835,0.56,92.346,68.664,18.188,
00:00:15:166,-0.139,-0.879,0.548,180.664,90.881,4.821,
00:00:15:183,-0.112,-0.951,0.529,193.359,110.351,-8.545,
00:00:15:200,-0.073,-1,0.526,116.577,125.183,-38.147,
00:00:15:216,-0.053,-0.974,0.5,27.099,137.085,-56.031,
00:00:15:233,-0.053,-0.899,0.493,-7.142,155.09,-81.971,
00:00:15:250,-0.07,-0.844,0.481,61.95,171.875,-88.99,
00:00:15:266,-0.07,-0.838,0.489,136.352,205.017,-100.892,
00:00:15:283,-0.034,-0.846,0.519,210.693,243.225,-121.766,
00:00:15:300,-0.005,-0.873,0.555,256.836,253.906,-136.78,
00:00:15:316,-0.009,-0.875,0.543,273.437,252.929,-154.419,
00:00:15:333,-0.02,-0.916,0.506,272.4,244.018,-165.711,
00:00:15:350,-0.012,-0.959,0.521,229.126,230.651,-172.486,
00:00:15:366,0.006,-0.955,0.541,163.635,227.905,-166.81,
00:00:15:383,0.01,-0.922,0.564,96.923,229.004,-191.407,
00:00:15:400,0.008,-0.876,0.565,92.59,229.492,-206.177,
00:00:15:416,0.01,-0.845,0.532,114.99,229.492,-213.501,
00:00:15:433,0,-0.841,0.571,159.118,219.177,-207.276,
00:00:15:450,-0.019,-0.892,0.586,150.146,197.57,-205.811,
00:00:15:466,-0.029,-0.899,0.606,85.144,183.105,-205.506,
00:00:15:483,-0.043,-0.874,0.619,9.216,172.424,-201.477,
00:00:15:500,-0.044,-0.834,0.643,-6.592,163.208,-200.135,
00:00:15:516,-0.056,-0.824,0.639,26.428,156.677,-184.144,
00:00:15:533,-0.051,-0.801,0.631,102.661,141.296,-169.495,
00:00:15:550,-0.061,-0.834,0.633,130.737,84.35,-142.456,
00:00:15:566,-0.047,-0.866,0.622,27.221,65.673,-148.926,
00:00:15:583,-0.012,-0.849,0.612,9.277,40.588,-109.925,
00:00:15:600,-0.052,-0.82,0.618,7.69,-40.894,-81.604,
00:00:15:616,-0.128,-0.806,0.639,17.883,-82.032,-68.482,
00:00:15:633,-0.164,-0.804,0.634,29.235,-65.186,-45.96,
00:00:15:650,-0.12,-0.845,0.612,11.23,-63.477,-37.964,
00:00:15:666,-0.082,-0.883,0.61,-35.279,-100.586,-14.283,
00:00:15:683,-0.13,-0.861,0.612,-76.661,-176.331,25.268,
00:00:15:700,-0.242,-0.797,0.615,-97.901,-233.277,44.982,
00:00:15:716,-0.315,-0.78,0.617,-73.914,-232.178,53.222,
00:00:15:733,-0.315,-0.844,0.582,-89.783,-208.802,64.88,
00:00:15:750,-0.284,-0.862,0.56,-181.641,-216.675,81.176,
00:00:15:766,-0.303,-0.828,0.549,-283.631,-269.043,106.079,
00:00:15:783,-0.401,-0.78,0.558,-335.083,-331.91,126.77,
00:00:15:800,-0.476,-0.702,0.586,-312.867,-317.505,142.822,
00:00:15:816,-0.489,-0.703,0.594,-256.287,-267.212,155.334,
00:00:15:833,-0.432,-0.741,0.579,-148.865,-212.586,166.32,
00:00:15:850,-0.387,-0.802,0.535,-68.421,-223.877,172.912,
00:00:15:866,-0.399,-0.878,0.503,-71.717,-239.747,163.513,
00:00:15:883,-0.404,-0.888,0.481,-141.114,-207.703,146.545,
00:00:15:900,-0.386,-0.896,0.442,-235.596,-170.289,121.215,
00:00:15:916,-0.365,-0.834,0.446,-250.977,-148.743,118.469,
00:00:15:933,-0.371,-0.756,0.456,-186.402,-139.649,112.915,
00:00:15:950,-0.347,-0.791,0.473,-41.871,-66.285,97.961,
00:00:15:966,-0.313,-0.782,0.482,-66.04,-59.693,97.717,
00:00:15:983,-0.302,-0.766,0.498,-83.008,-62.867,101.013,
00:00:16:0,-0.304,-0.797,0.505,-117.615,-60.547,98.327,
00:00:16:16,-0.279,-0.802,0.533,-173.401,-30.64,93.139,
00:00:16:33,-0.256,-0.804,0.53,-188.721,-9.522,83.374,
00:00:16:50,-0.247,-0.797,0.561,-141.175,1.037,90.332,
00:00:16:66,-0.247,-0.817,0.58,-55.664,18.798,76.232,
00:00:16:83,-0.229,-0.88,0.618,47.546,40.222,49.926,
00:00:16:100,-0.196,-0.934,0.637,56.457,70.739,33.813,
00:00:16:116,-0.159,-0.923,0.605,42.968,91.796,13.366,
00:00:16:133,-0.131,-0.895,0.575,55.114,88.745,-11.353,
00:00:16:150,-0.133,-0.902,0.556,70.312,82.519,-25.086,
00:00:16:166,-0.146,-0.869,0.533,60.424,94.238,-15.137,
00:00:16:183,-0.162,-0.832,0.538,62.439,122.436,-17.945,
00:00:16:200,-0.135,-0.828,0.576,112.182,168.579,-38.758,
00:00:16:216,-0.076,-0.835,0.604,214.05,211.181,-63.172,
00:00:16:233,-0.055,-0.874,0.58,275.085,215.393,-82.642,
00:00:16:250,-0.071,-0.927,0.552,216.247,209.961,-114.685,
00:00:16:266,-0.082,-0.806,0.559,198.486,283.813,-129.151,
00:00:16:283,-0.062,-0.805,0.586,276.611,316.345,-136.292,
00:00:16:300,-0.043,-0.841,0.575,311.462,320.8,-158.02,
00:00:16:316,-0.032,-0.907,0.561,284.362,318.847,-190.796,
00:00:16:333,-0.037,-0.926,0.52,215.026,316.284,-202.027,
00:00:16:350,-0.034,-0.931,0.511,160.034,314.209,-200.074,
00:00:16:366,-0.003,-0.885,0.54,182.312,310.485,-165.528,
00:00:16:383,0.025,-0.862,0.581,248.657,301.269,-140.259,
00:00:16:400,0.044,-0.912,0.579,293.274,300.598,-137.574,
00:00:16:416,0.055,-0.974,0.574,266.235,275.146,-156.983,
00:00:16:433,0.031,-0.983,0.558,121.032,233.581,-171.998,
00:00:16:450,-0.002,-0.922,0.557,36.804,208.74,-178.894,
00:00:16:466,-0.031,-0.829,0.572,70.8,202.575,-155.884,
00:00:16:483,-0.04,-0.788,0.563,177.917,203.918,-154.236,
00:00:16:500,-0.027,-0.795,0.55,305.297,203.125,-146.668,
00:00:16:516,-0.003,-0.849,0.531,363.647,193.664,-138.062,
00:00:16:533,0.008,-1.004,0.493,233.703,160.095,-156.373,
00:00:16:550,0.03,-1.021,0.557,16.662,121.215,-132.325,
00:00:16:566,0.018,-0.928,0.552,-102.784,68.481,-112.488,
00:00:16:583,-0.019,-0.87,0.587,-105.957,20.996,-116.517,
00:00:16:600,-0.053,-0.846,0.6,-42.054,0.122,-100.953,
00:00:16:616,-0.065,-0.84,0.576,4.272,-30.701,-90.027,
00:00:16:633,-0.098,-0.864,0.552,-35.279,-76.539,-89.966,
00:00:16:650,-0.139,-0.85,0.568,-105.103,-114.869,-56.214,
00:00:16:667,-0.182,-0.814,0.569,-148.682,-132.935,-23.621,
00:00:16:683,-0.203,-0.761,0.596,-121.033,-134.583,0.976,
00:00:16:700,-0.222,-0.751,0.606,-68.848,-124.756,12.817,
00:00:16:717,-0.218,-0.829,0.592,-69.458,-107.666,6.713,
00:00:16:733,-0.194,-0.909,0.577,-118.531,-131.653,22.399,
00:00:16:750,-0.205,-0.903,0.586,-215.699,-202.271,66.04,
00:00:16:767,-0.252,-0.824,0.609,-247.437,-259.522,100.708,
00:00:16:783,-0.295,-0.803,0.607,-256.47,-251.404,102.539,
00:00:16:800,-0.302,-0.796,0.587,-249.207,-259.217,115.478,
00:00:16:817,-0.306,-0.792,0.554,-262.33,-269.776,127.746,
00:00:16:833,-0.342,-0.806,0.522,-295.838,-297.303,140.319,
00:00:16:850,-0.372,-0.784,0.525,-275.696,-302.002,166.504,
00:00:16:867,-0.386,-0.771,0.53,-252.32,-286.255,177.246,
00:00:16:883,-0.38,-0.795,0.514,-219.422,-252.381,176.269,
00:00:16:900,-0.357,-0.803,0.505,-220.765,-234.07,172.729,
00:00:16:917,-0.354,-0.8,0.49,-241.578,-243.226,173.767,
00:00:16:933,-0.38,-0.759,0.507,-236.573,-244.873,179.382,
00:00:16:950,-0.407,-0.724,0.519,-202.637,-219.239,186.462,
00:00:16:967,-0.378,-0.751,0.522,-98.267,-156.189,179.687,
00:00:16:983,-0.309,-0.818,0.522,-31.8,-128.357,167.114,
00:00:17:0,-0.272,-0.893,0.513,-42.176,-140.015,138.855,
00:00:17:17,-0.274,-0.929,0.515,-109.986,-136.658,130.005,
00:00:17:33,-0.291,-0.886,0.505,-164.368,-117.371,115.783,
00:00:17:50,-0.294,-0.822,0.502,-90.699,-79.285,95.153,
00:00:17:67,-0.286,-0.801,0.536,43.701,-34.119,96.801,
00:00:17:83,-0.264,-0.859,0.534,99.67,15.136,69.091,
00:00:17:100,-0.212,-0.961,0.52,52.978,58.593,38.269,
00:00:17:117,-0.147,-1.028,0.507,-64.331,47.546,14.892,
00:00:17:133,-0.116,-0.994,0.543,-132.874,45.105,-0.123,
00:00:17:150,-0.138,-0.878,0.559,-65.43,40.039,2.258,
00:00:17:167,-0.175,-0.874,0.574,45.349,73.425,-12.513,
00:00:17:183,-0.179,-0.87,0.57,54.87,143.554,-36.866,
00:00:17:200,-0.126,-0.876,0.55,-23.011,187.927,-72.144,
00:00:17:217,-0.076,-0.846,0.574,-80.689,189.636,-97.229,
00:00:17:233,-0.06,-0.815,0.541,-66.224,181.579,-114.319,
00:00:17:250,-0.051,-0.796,0.528,63.537,182.129,-104.981,
00:00:17:267,-0.02,-0.843,0.559,173.523,184.204,-87.037,
00:00:17:283,0.003,-0.92,0.586,108.52,199.829,-110.901,
00:00:17:300,0.03,-0.958,0.611,6.958,218.994,-149.598,
00:00:17:317,0.044,-0.918,0.616,-86.792,212.707,-166.81,
00:00:17:333,0.024,-0.838,0.621,-119.263,194.763,-181.58,
00:00:17:350,0.009,-0.783,0.624,-63.66,198.73,-194.825,
00:00:17:367,0.02,-0.756,0.629,19.043,214.355,-174.927,
00:00:17:383,0.04,-0.764,0.648,116.76,213.317,-184.632,
00:00:17:400,0.034,-0.789,0.665,157.531,190.368,-203.186,
00:00:17:417,-0.013,-0.789,0.663,173.339,168.029,-219.361,
00:00:17:433,-0.045,-0.777,0.652,187.744,159.118,-214.112,
00:00:17:450,-0.055,-0.783,0.661,213.623,160.156,-194.642,
00:00:17:467,-0.044,-0.786,0.671,260.376,170.898,-167.969,
00:00:17:483,-0.011,-0.802,0.674,346.008,179.931,-169.312,
00:00:17:500,0.009,-0.848,0.674,408.63,174.377,-180.97,
00:00:17:517,-0.008,-0.902,0.658,399.475,147.888,-203.614,
00:00:17:533,-0.047,-0.903,0.639,328.552,145.874,-206.971,
00:00:17:550,-0.069,-0.849,0.618,276.489,172.851,-190.735,
00:00:17:567,-0.067,-0.825,0.594,257.568,201.049,-171.631,
00:00:17:583,-0.034,-0.844,0.557,281.189,213.989,-155.701,
00:00:17:600,0.006,-0.88,0.565,252.563,181.274,-142.456,
00:00:17:617,0.025,-0.897,0.587,142.639,115.112,-121.094,
00:00:17:633,-0.007,-0.95,0.592,-29.602,41.442,-109.192,
00:00:17:650,-0.065,-0.938,0.629,-170.105,-24.231,-93.689,
00:00:17:667,-0.186,-0.825,0.642,-199.219,-107.544,-48.523,
00:00:17:683,-0.249,-0.75,0.662,-78.125,-106.629,-38.819,
00:00:17:700,-0.24,-0.771,0.635,72.998,-61.646,-34.852,
00:00:17:717,-0.175,-0.81,0.614,122.924,-43.702,-20.325,
00:00:17:733,-0.152,-0.854,0.549,70.373,-71.839,-3.907,
00:00:17:750,-0.159,-0.863,0.542,-22.889,-94.483,4.882,
00:00:17:767,-0.192,-0.911,0.563,-90.455,-136.17,12.878,
00:00:17:783,-0.28,-0.893,0.592,-171.936,-183.228,37.17,
00:00:17:800,-0.299,-0.916,0.569,-258.057,-198.487,47.119,
00:00:17:817,-0.299,-0.973,0.553,-420.533,-203.492,54.199,
00:00:17:833,-0.251,-0.927,0.569,-598.267,-234.925,79.406,
00:00:17:850,-0.312,-0.806,0.562,-697.815,-299.256,109.802,
00:00:17:867,-0.371,-0.705,0.578,-711.304,-330.872,122.07,
00:00:17:883,-0.451,-0.619,0.569,-667.298,-298.462,137.512,
00:00:17:900,-0.483,-0.566,0.555,-546.387,-232.422,154.419,
00:00:17:917,-0.464,-0.55,0.551,-353.638,-162.903,166.565,
00:00:17:933,-0.418,-0.599,0.56,-145.752,-119.507,170.715,
00:00:17:950,-0.377,-0.685,0.571,-32.227,-98.511,152.71,
00:00:17:967,-0.349,-0.786,0.569,-24.17,-94.544,121.948,
00:00:17:983,-0.327,-0.842,0.589,-80.201,-83.069,107.36,
00:00:18:0,-0.306,-0.792,0.586,-160.706,-67.688,108.642,
00:00:18:17,-0.3,-0.773,0.59,-204.285,-67.749,95.52,
00:00:18:33,-0.296,-0.751,0.599,-245.911,-61.707,92.773,
00:00:18:50,-0.277,-0.68,0.636,-213.685,-54.139,107.666,mixLH
00:00:18:67,-0.274,-0.653,0.63,-201.294,-56.031,109.619,
00:00:18:83,-0.271,-0.649,0.643,-182.251,-49.317,90.942,
00:00:18:100,-0.254,-0.641,0.652,-145.447,-23.865,96.252,
00:00:18:117,-0.227,-0.637,0.663,-77.149,-6.043,88.928,
00:00:18:133,-0.21,-0.709,0.661,-17.151,4.76,72.021,
00:00:18:150,-0.193,-0.805,0.678,-21.851,21.911,44.372,
00:00:18:167,-0.136,-0.811,0.67,25.024,50.781,23.925,
00:00:18:183,-0.13,-0.791,0.657,94.299,70.739,-0.611,
00:00:18:200,-0.118,-0.828,0.655,196.716,66.65,-26.185,
00:00:18:217,-0.13,-0.865,0.643,224.67,78.064,-23.926,
00:00:18:233,-0.138,-0.895,0.651,156.372,67.688,-35.889,
00:00:18:250,-0.126,-0.899,0.651,66.772,90.82,-49.073,
00:00:18:267,-0.107,-0.834,0.649,20.507,115.173,-49.195,
00:00:18:283,-0.117,-0.777,0.647,43.09,135.437,-62.745,
00:00:18:300,-0.112,-0.771,0.675,113.281,169.372,-85.816,
00:00:18:317,-0.094,-0.805,0.664,136.901,185.363,-103.394,
00:00:18:333,-0.085,-0.834,0.649,85.266,178.161,-117.127,
00:00:18:350,-0.087,-0.824,0.64,27.893,162.109,-118.897,
00:00:18:367,-0.089,-0.745,0.651,50.17,164.795,-106.873,
00:00:18:383,-0.084,-0.704,0.688,176.086,188.537,-108.887,
00:00:18:400,-0.053,-0.754,0.714,307.006,224.121,-133.973,
00:00:18:417,-0.014,-0.849,0.682,337.768,245.178,-155.091,
00:00:18:433,-0.005,-0.956,0.617,198.242,222.473,-175.66,
00:00:18:450,-0.005,-0.955,0.607,-15.686,192.382,-185.181,
00:00:18:467,-0.009,-0.824,0.656,-89.6,190.063,-172.852,
00:00:18:483,-0.024,-0.695,0.663,37.109,201.233,-160.706,
00:00:18:500,-0.029,-0.696,0.678,193.298,218.628,-175.904,
00:00:18:517,-0.021,-0.767,0.662,276.367,225.525,-195.496,
00:00:18:533,-0.016,-0.799,0.655,250.976,212.829,-204.468,
00:00:18:550,-0.013,-0.804,0.644,197.631,190.979,-207.642,
00:00:18:567,-0.004,-0.833,0.666,192.993,174.133,-193.665,
00:00:18:583,-0.001,-0.782,0.686,235.534,168.213,-157.776,
00:00:18:600,-0.027,-0.747,0.686,325.439,177.612,-163.025,
00:00:18:617,-0.033,-0.787,0.697,440.673,198.547,-172.12,
00:00:18:633,-0.023,-0.854,0.691,504.638,203.918,-165.711,
00:00:18:650,-0.037,-0.987,0.645,379.333,175.232,-189.454,
00:00:18:667,-0.041,-1.034,0.629,169.86,137.695,-191.102,
00:00:18:683,-0.036,-0.913,0.632,61.645,110.046,-143.555,
00:00:18:700,-0.069,-0.771,0.662,104.126,99.243,-116.028,
00:00:18:717,-0.125,-0.724,0.643,254.577,108.52,-111.573,
00:00:18:733,-0.202,-0.762,0.616,379.211,112.182,-115.906,
00:00:18:750,-0.25,-0.802,0.594,391.54,131.225,-105.286,
00:00:18:767,-0.235,-0.845,0.561,334.106,166.687,-99.976,
00:00:18:783,-0.184,-0.864,0.56,256.652,168.518,-89.539,
00:00:18:800,-0.139,-0.925,0.603,181.03,121.521,-99.61,
00:00:18:817,-0.147,-1.021,0.574,-35.767,51.086,-76.172,
00:00:18:833,-0.185,-0.853,0.567,-242.859,19.714,-23.438,
00:00:18:850,-0.255,-0.744,0.572,-205.811,-50.599,-5.616,
00:00:18:867,-0.297,-0.71,0.599,-166.504,-33.753,11.169,
00:00:18:883,-0.303,-0.711,0.57,-141.053,-3.235,28.381,
00:00:18:900,-0.307,-0.763,0.491,-224.549,-33.387,36.315,
00:00:18:917,-0.285,-0.744,0.496,-310.425,-64.331,62.744,
00:00:18:933,-0.284,-0.618,0.523,-289.978,-103.577,101.623,
00:00:18:950,-0.293,-0.639,0.603,-105.103,-108.277,85.693,
00:00:18:967,-0.254,-0.718,0.6,105.896,-59.937,94.421,
00:00:18:983,-0.233,-0.792,0.58,203.308,-15.381,69.397,
00:00:19:0,-0.186,-0.879,0.523,211.486,-13.062,59.997,
00:00:19:17,-0.168,-0.916,0.526,119.751,-39.368,62.439,
00:00:19:33,-0.178,-0.868,0.531,3.356,-62.561,65.673,
00:00:19:50,-0.198,-0.755,0.542,-33.509,-55.664,65.795,
00:00:19:67,-0.203,-0.732,0.536,19.104,-22.889,73.547,
00:00:19:83,-0.172,-0.753,0.512,95.764,12.939,78.43,
00:00:19:100,-0.115,-0.845,0.504,117.187,4.638,86.425,
00:00:19:117,-0.078,-0.89,0.529,84.167,-47.547,107.971,
00:00:19:133,-0.076,-0.866,0.546,68.908,-91.858,138.183,
00:00:19:150,-0.063,-0.883,0.571,133.789,-87.403,135.986,
00:00:19:167,-0.016,-0.97,0.574,161.621,-76.661,116.821,
00:00:19:183,0.005,-1.057,0.56,31.25,-106.08,88.989,
00:00:19:200,-0.017,-1.06,0.565,-155.091,-137.452,75.012,
00:00:19:217,-0.048,-0.994,0.556,-310.059,-156.739,80.688,
00:00:19:233,-0.034,-0.912,0.555,-294.922,-129.212,82.763,
00:00:19:250,0.023,-0.856,0.562,-176.026,-110.596,103.698,
00:00:19:267,0.052,-0.875,0.569,-96.863,-117.188,96.496,
00:00:19:283,0.03,-0.936,0.551,-124.817,-121.277,62.194,
00:00:19:300,0.014,-0.981,0.552,-259.4,-122.071,39.917,
00:00:19:317,0.011,-0.962,0.552,-358.643,-116.272,34.606,
00:00:19:333,0.021,-0.887,0.576,-356.751,-112.915,52.124,
00:00:19:350,0.013,-0.819,0.59,-281.739,-104.371,56.823,
00:00:19:367,-0.006,-0.803,0.594,-211.792,-92.774,42.663,
00:00:19:383,-0.017,-0.848,0.597,-177.369,-84.229,23.498,
00:00:19:400,-0.009,-0.912,0.603,-216.858,-91.004,17.273,
00:00:19:417,0.002,-0.907,0.627,-295.533,-106.324,20.629,
00:00:19:433,-0.003,-0.893,0.633,-376.404,-124.817,27.771,
00:00:19:450,-0.043,-0.801,0.637,-352.967,-133.973,27.526,
00:00:19:467,-0.085,-0.754,0.661,-280.213,-132.874,23.559,
00:00:19:483,-0.092,-0.773,0.675,-227.967,-103.943,13.061,
00:00:19:500,-0.045,-0.811,0.668,-212.281,-66.285,11.84,
00:00:19:517,0.01,-0.846,0.666,-224.549,-65.735,7.019,
00:00:19:533,-0.005,-0.827,0.641,-245.728,-98.023,15.991,
00:00:19:550,-0.114,-0.734,0.644,-218.384,-152.039,12.695,
00:00:19:567,-0.201,-0.7,0.651,-114.747,-144.837,-12.818,
00:00:19:583,-0.199,-0.726,0.666,-4.09,-90.821,-21.973,
00:00:19:600,-0.12,-0.793,0.669,51.086,-54.444,-34.79,
00:00:19:617,-0.06,-0.828,0.656,37.109,-61.402,-39.063,
00:00:19:633,-0.055,-0.812,0.659,6.652,-85.267,-40.284,
00:00:19:650,-0.128,-0.768,0.657,-5.249,-95.887,-45.838,
00:00:19:667,-0.184,-0.759,0.658,15.747,-76.539,-52.857,
00:00:19:683,-0.204,-0.754,0.667,10.376,-57.19,-60.364,
00:00:19:700,-0.175,-0.767,0.67,-31.922,-32.166,-64.759,
00:00:19:717,-0.119,-0.75,0.656,-37.232,-36.56,-75.074,
00:00:19:733,-0.14,-0.709,0.648,-2.564,-85.022,-65.979,
00:00:19:750,-0.235,-0.651,0.661,83.679,-120.24,-72.754,
00:00:19:767,-0.319,-0.636,0.645,227.783,-96.985,-81.665,
00:00:19:783,-0.346,-0.679,0.645,326.233,-43.824,-89.173,
00:00:19:800,-0.302,-0.762,0.63,340.271,22.888,-103.333,
00:00:19:817,-0.248,-0.807,0.615,294.128,41.565,-110.413,
00:00:19:833,-0.264,-0.805,0.592,232.849,21.972,-124.146,
00:00:19:850,-0.319,-0.763,0.582,244.629,29.052,-132.325,
00:00:19:867,-0.354,-0.712,0.57,343.444,62.011,-125.306,
00:00:19:883,-0.347,-0.729,0.571,465.149,109.68,-125.184,
00:00:19:900,-0.322,-0.861,0.522,431.152,142.151,-125.123,
00:00:19:917,-0.271,-0.961,0.514,215.088,147.338,-136.536,
00:00:19:933,-0.219,-0.828,0.521,28.564,119.812,-123.047,
00:00:19:950,-0.282,-0.729,0.524,11.413,61.523,-129.09,
00:00:19:967,-0.349,-0.667,0.565,79.956,83.252,-128.907,
00:00:19:983,-0.362,-0.624,0.576,209.961,156.738,-122.986,
00:00:20:0,-0.326,-0.671,0.56,321.045,215.576,-138.611,
00:00:20:17,-0.268,-0.775,0.545,364.624,221.923,-136.353,
00:00:20:33,-0.24,-0.819,0.552,315.124,171.447,-107.178,
00:00:20:50,-0.252,-0.841,0.561,256.408,132.446,-77.576,
00:00:20:67,-0.253,-0.859,0.59,229.37,120.971,-65.125,
00:00:20:83,-0.248,-0.85,0.602,211.609,122.863,-59.571,
00:00:20:100,-0.252,-0.893,0.555,177.612,126.403,-65.003,
00:00:20:117,-0.235,-0.927,0.535,95.642,120.117,-60.852,
00:00:20:133,-0.229,-0.853,0.547,1.037,97.168,-37.781,
00:00:20:150,-0.251,-0.785,0.556,-30.213,83.068,-20.935,
00:00:20:167,-0.263,-0.738,0.589,-17.212,101.989,-5.188,
00:00:20:183,-0.228,-0.742,0.622,51.147,127.624,5.065,
00:00:20:200,-0.176,-0.755,0.652,145.568,144.287,31.005,
00:00:20:217,-0.141,-0.851,0.65,170.105,123.718,27.71,
00:00:20:233,-0.104,-0.94,0.629,107.666,83.435,36.56,
00:00:20:250,-0.074,-0.974,0.63,-20.203,17.334,59.082,
00:00:20:267,-0.067,-0.91,0.636,-119.996,-44.739,93.627,
00:00:20:283,-0.071,-0.846,0.647,-101.624,-61.28,114.135,
00:00:20:300,-0.051,-0.831,0.645,-14.649,-41.565,112.976,
00:00:20:317,-0.028,-0.89,0.62,21.423,-44.556,92.712,
00:00:20:333,-0.018,-0.942,0.597,-50.049,-60.791,83.679,
00:00:20:350,-0.027,-0.903,0.581,-170.166,-88.685,102.172,
00:00:20:367,-0.045,-0.844,0.57,-243.164,-104.859,109.375,
00:00:20:383,-0.027,-0.767,0.574,-148.011,-98.511,133.422,
00:00:20:400,0.001,-0.763,0.587,-11.78,-96.436,145.446,
00:00:20:417,0.021,-0.821,0.596,82.641,-89.173,145.691,
00:00:20:433,0.033,-0.922,0.582,50.842,-103.516,120.056,
00:00:20:450,0.037,-0.963,0.565,-97.535,-128.907,114.746,
00:00:20:467,0.034,-0.916,0.553,-187.623,-147.278,120.849,
00:00:20:483,0.033,-0.859,0.56,-138.001,-160.157,133.911,
00:00:20:500,0.023,-0.855,0.575,-53.223,-156.556,130.066,
00:00:20:517,0.019,-0.897,0.58,-11.109,-135.437,105.285,
00:00:20:533,0.025,-0.95,0.554,-26.673,-125.184,86.608,
00:00:20:550,0.032,-0.981,0.537,-93.384,-143.799,67.077,
00:00:20:567,0.01,-0.936,0.527,-148.804,-172.486,61.035,
00:00:20:583,-0.033,-0.856,0.534,-127.442,-177.002,68.42,
00:00:20:600,-0.048,-0.824,0.53,-48.951,-147.4,57.495,
00:00:20:617,-0.041,-0.846,0.523,-0.977,-110.169,41.992,
00:00:20:633,-0.028,-0.909,0.528,7.202,-96.07,27.832,
00:00:20:650,-0.016,-0.959,0.521,-63.599,-94.361,14.709,
00:00:20:667,0.008,-0.968,0.56,-129.456,-97.84,-0.245,
00:00:20:683,-0.038,-0.888,0.525,-150.208,-123.597,5.92,
00:00:20:700,-0.144,-0.816,0.538,-80.567,-142.884,-6.714,
00:00:20:717,-0.196,-0.827,0.551,-7.63,-110.291,-14.588,
00:00:20:733,-0.149,-0.871,0.56,-1.16,-59.51,-33.692,
00:00:20:750,-0.062,-0.922,0.527,-75.379,-53.528,-45.96,
00:00:20:767,-0.039,-0.882,0.519,-125.855,-95.276,-35.218,
00:00:20:783,-0.182,-0.798,0.519,-104.493,-159.546,-21.485,
00:00:20:800,-0.333,-0.747,0.539,-60.791,-169.251,-29.847,
00:00:20:817,-0.367,-0.765,0.575,-25.757,-74.036,-47.974,
00:00:20:833,-0.25,-0.847,0.574,-13.855,-4.09,-47.547,
00:00:20:850,-0.138,-0.849,0.544,-51.209,-52.796,-25.208,
00:00:20:867,-0.221,-0.812,0.52,-105.591,-177.796,-12.024,
00:00:20:883,-0.404,-0.72,0.533,-92.408,-226.685,4.882,
00:00:20:900,-0.522,-0.654,0.53,-32.288,-167.176,21.911,
00:00:20:917,-0.522,-0.67,0.543,31.189,-64.026,14.404,
00:00:20:933,-0.442,-0.762,0.538,41.259,2.685,3.54,
00:00:20:950,-0.363,-0.8,0.531,19.409,11.047,9.887,
00:00:20:967,-0.326,-0.813,0.558,7.934,2.624,12.39,
00:00:20:983,-0.326,-0.797,0.56,79.406,14.709,10.986,
00:00:21:0,-0.313,-0.842,0.579,196.167,44.311,8.789,
00:00:21:17,-0.279,-0.888,0.559,215.026,86.303,-5.982,
00:00:21:33,-0.236,-0.983,0.537,132.141,94.604,-29.175,
00:00:21:50,-0.192,-0.983,0.553,9.826,77.331,-30.823,
00:00:21:67,-0.2,-0.869,0.548,-47.852,60.363,-22.522,
00:00:21:83,-0.247,-0.746,0.539,28.625,68.298,-23.438,
00:00:21:100,-0.242,-0.751,0.557,174.865,104.309,-36.866,
00:00:21:117,-0.196,-0.854,0.552,227.539,138.061,-47.73,
00:00:21:133,-0.146,-0.96,0.547,142.517,133.056,-62.378,
00:00:21:150,-0.12,-0.942,0.547,23.315,118.042,-58.106,
00:00:21:167,-0.119,-0.851,0.551,5.127,111.206,-56.519,
00:00:21:183,-0.135,-0.792,0.542,96.679,125.793,-58.533,
00:00:21:200,-0.122,-0.802,0.543,199.829,153.259,-56.092,
00:00:21:217,-0.08,-0.871,0.569,260.742,186.218,-57.129,
00:00:21:233,-0.034,-1.009,0.547,173.217,181.823,-86.426,
00:00:21:250,0,-1.034,0.541,17.761,156.555,-99.854,
00:00:21:267,-0.014,-0.941,0.539,-72.266,124.084,-93.384,
00:00:21:283,-0.055,-0.82,0.536,-19.715,133.178,-91.248,
00:00:21:300,-0.07,-0.801,0.544,74.462,161.438,-96.802,
00:00:21:317,-0.05,-0.854,0.562,125.793,198.486,-107.361,
00:00:21:333,-0.019,-0.896,0.556,102.234,218.2,-114.624,
00:00:21:350,0.001,-0.909,0.561,46.386,203.552,-132.386,
00:00:21:367,-0.003,-0.881,0.56,32.959,181.945,-130.616,
00:00:21:383,-0.022,-0.859,0.567,51.94,171.142,-128.785,
00:00:21:400,-0.029,-0.842,0.58,109.863,171.936,-121.582,
00:00:21:417,-0.027,-0.874,0.601,166.015,173.584,-117.493,
00:00:21:433,-0.018,-0.865,0.615,202.331,185.424,-140.442,
00:00:21:450,-0.017,-0.918,0.582,168.518,193.847,-135.682,
00:00:21:467,0,-0.946,0.574,94.787,185.18,-149.231,
00:00:21:483,0,-0.931,0.566,27.587,158.752,-141.175,
00:00:21:500,-0.016,-0.873,0.553,36.254,148.62,-127.747,
00:00:21:517,-0.02,-0.84,0.566,93.811,138.488,-113.404,
00:00:21:533,-0.007,-0.866,0.595,145.996,132.629,-107.3,
00:00:21:550,0.02,-0.896,0.595,142.822,130.432,-97.107,
00:00:21:567,0.031,-0.923,0.597,87.219,99.487,-89.661,
00:00:21:583,0.011,-0.917,0.589,22.155,46.081,-89.051,
00:00:21:600,-0.037,-0.875,0.602,-24.964,-0.428,-80.445,
00:00:21:617,-0.076,-0.827,0.606,-29.969,-23.377,-57.312,
00:00:21:633,-0.076,-0.809,0.602,-7.935,-22.339,-33.875,
00:00:21:650,-0.057,-0.8,0.597,-8.606,-36.438,-6.897,
00:00:21:667,-0.065,-0.811,0.601,-7.935,-78.98,11.84,
00:00:21:683,-0.127,-0.845,0.608,-21.302,-147.339,22.766,
00:00:21:700,-0.194,-0.853,0.617,-64.637,-199.769,44.921,
00:00:21:717,-0.236,-0.824,0.607,-105.835,-218.934,66.65,
00:00:21:733,-0.245,-0.795,0.592,-121.338,-226.746,93.627,
00:00:21:750,-0.244,-0.774,0.579,-94.727,-235.962,122.07,
00:00:21:767,-0.291,-0.794,0.545,-87.586,-277.71,132.08,
00:00:21:783,-0.352,-0.793,0.544,-90.821,-313.355,148.498,
00:00:21:800,-0.408,-0.786,0.52,-112.488,-314.087,160.644,
00:00:21:817,-0.427,-0.81,0.476,-138.794,-293.58,159.057,
00:00:21:833,-0.394,-0.834,0.464,-151.185,-267.395,141.845,
00:00:21:850,-0.333,-0.817,0.498,-96.253,-259.461,151.733,
00:00:21:867,-0.357,-0.833,0.445,-39.917,-227.906,149.597,
00:00:21:883,-0.35,-0.857,0.439,-3.235,-176.819,145.752,
00:00:21:900,-0.322,-0.868,0.412,-17.579,-156.739,133.606,
00:00:21:917,-0.301,-0.867,0.426,-59.693,-158.997,121.765,
00:00:21:933,-0.28,-0.857,0.433,-94.971,-156.556,115.356,
00:00:21:950,-0.237,-0.86,0.475,-83.191,-141.358,91.735,
00:00:21:967,-0.195,-0.885,0.464,-74.402,-121.644,80.932,
00:00:21:983,-0.184,-0.905,0.45,-81.849,-127.747,70.312,
00:00:22:0,-0.209,-0.876,0.462,-64.881,-136.719,69.946,
00:00:22:17,-0.251,-0.844,0.462,-15.32,-128.296,69.702,
00:00:22:33,-0.265,-0.841,0.443,19.592,-93.506,48.156,
00:00:22:50,-0.216,-0.89,0.452,35.156,-43.824,41.32,mixLH
00:00:22:67,-0.149,-0.948,0.456,38.757,-14.832,37.109,
00:00:22:83,-0.117,-0.974,0.49,25.878,-16.724,11.23,
00:00:22:100,-0.136,-0.99,0.488,6.836,-7.264,-20.874,
00:00:22:117,-0.188,-0.949,0.479,23.681,22.216,-44.007,
00:00:22:133,-0.164,-0.907,0.471,78.186,68.115,-43.885,
00:00:22:150,-0.152,-0.924,0.47,91.064,107.544,-58.96,
00:00:22:167,-0.11,-0.958,0.486,68.969,138.366,-78.125,
00:00:22:183,-0.065,-0.956,0.492,29.968,150.695,-92.774,
00:00:22:200,-0.056,-0.901,0.486,24.597,144.104,-98.084,
00:00:22:217,-0.081,-0.853,0.471,67.138,145.141,-102.601,
00:00:22:233,-0.103,-0.826,0.483,154.174,176.574,-98.023,
00:00:22:250,-0.088,-0.882,0.514,207.519,221.435,-102.906,
00:00:22:267,-0.04,-0.976,0.523,161.132,244.201,-127.686,
00:00:22:283,0,-1,0.522,72.326,220.947,-142.701,
00:00:22:300,-0.008,-0.947,0.533,31.677,193.42,-142.212,
00:00:22:317,-0.03,-0.885,0.544,53.222,197.998,-133.301,
00:00:22:333,-0.033,-0.863,0.55,104.248,219.055,-135.376,
00:00:22:350,-0.013,-0.888,0.571,128.418,240.783,-143.433,
00:00:22:367,0.009,-0.888,0.576,161.255,253.723,-150.879,
00:00:22:383,0.012,-0.861,0.55,213.317,249.023,-151.856,
00:00:22:400,0.007,-0.856,0.551,267.212,243.286,-167.542,
00:00:22:417,0.006,-0.894,0.525,290.283,246.46,-159.79,
00:00:22:433,0.022,-0.927,0.521,262.451,238.525,-149.414,
00:00:22:450,0.03,-0.946,0.522,177.307,211.059,-137.269,
00:00:22:467,0.026,-0.949,0.519,121.215,192.688,-142.334,
00:00:22:483,0.002,-0.911,0.553,92.651,174.499,-128.235,
00:00:22:500,-0.034,-0.873,0.568,98.999,173.095,-123.963,
00:00:22:517,-0.055,-0.875,0.57,109.192,185.791,-137.207,
00:00:22:533,-0.038,-0.883,0.548,146.423,198.486,-136.109,
00:00:22:550,-0.003,-0.891,0.533,190.307,181.396,-118.897,
00:00:22:567,0.014,-0.882,0.513,240.905,153.564,-102.051,
00:00:22:583,0.005,-0.88,0.502,272.338,120.666,-84.717,
00:00:22:600,-0.046,-0.938,0.494,236.206,82.946,-79.163,
00:00:22:617,-0.085,-0.992,0.516,161.804,56.64,-74.402,
00:00:22:633,-0.084,-0.999,0.529,68.908,47.973,-64.82,
00:00:22:650,-0.055,-0.986,0.517,-1.099,21.301,-63.233,
00:00:22:667,-0.035,-0.937,0.498,-42.664,-18.555,-48.706,
00:00:22:683,-0.052,-0.879,0.494,-47.364,-67.749,-37.903,
00:00:22:700,-0.117,-0.878,0.529,-41.504,-108.826,-34.119,
00:00:22:717,-0.205,-0.882,0.527,-66.346,-145.386,-10.498,
00:00:22:733,-0.24,-0.909,0.516,-96.741,-128.785,7.446,
00:00:22:750,-0.194,-0.924,0.497,-155.091,-121.094,16.723,
00:00:22:767,-0.154,-0.893,0.491,-190.43,-169.861,31.677,
00:00:22:783,-0.203,-0.88,0.494,-180.115,-238.282,42.114,
00:00:22:800,-0.296,-0.873,0.516,-180.176,-265.87,54.443,
00:00:22:817,-0.34,-0.869,0.524,-189.637,-232.483,71.289,
00:00:22:833,-0.325,-0.832,0.499,-191.834,-203.37,91.247,
00:00:22:850,-0.306,-0.831,0.47,-208.558,-214.173,92.834,
00:00:22:867,-0.317,-0.836,0.427,-231.568,-256.409,105.407,
00:00:22:883,-0.357,-0.827,0.43,-226.38,-301.331,111.816,
00:00:22:900,-0.386,-0.828,0.441,-223.999,-301.636,110.351,
00:00:22:917,-0.392,-0.857,0.438,-209.107,-250.55,119.14,
00:00:22:933,-0.361,-0.89,0.439,-200.684,-223.389,124.206,
00:00:22:950,-0.326,-0.905,0.438,-212.403,-203.98,121.643,
00:00:22:967,-0.314,-0.878,0.412,-237.488,-211.365,121.582,
00:00:22:983,-0.319,-0.819,0.415,-249.573,-212.098,113.647,
00:00:23:0,-0.331,-0.795,0.393,-231.446,-195.313,108.886,
00:00:23:17,-0.319,-0.831,0.416,-231.751,-168.213,91.735,
00:00:23:33,-0.283,-0.841,0.446,-239.319,-135.193,101.013,
00:00:23:50,-0.251,-0.826,0.449,-213.013,-129.212,105.835,
00:00:23:67,-0.247,-0.818,0.441,-130.372,-127.198,98.571,
00:00:23:83,-0.253,-0.829,0.444,-61.341,-106.08,86.425,
00:00:23:100,-0.25,-0.829,0.431,-11.292,-63.416,72.143,
00:00:23:117,-0.241,-0.858,0.451,45.593,-22.889,57.983,
00:00:23:133,-0.211,-0.913,0.487,74.829,18.981,45.715,
00:00:23:150,-0.182,-0.921,0.5,64.514,43.884,24.353,
00:00:23:167,-0.164,-0.938,0.485,66.711,48.034,-1.099,
00:00:23:183,-0.153,-0.929,0.467,74.462,53.222,-12.33,
00:00:23:200,-0.153,-0.895,0.474,82.885,63.171,-16.114,
00:00:23:217,-0.148,-0.912,0.478,91.491,93.383,-24.537,
00:00:23:233,-0.122,-0.927,0.487,85.083,129.394,-33.753,
00:00:23:250,-0.095,-0.932,0.498,71.838,155.395,-44.739,
00:00:23:267,-0.084,-0.917,0.516,66.406,166.015,-55.298,
00:00:23:283,-0.087,-0.891,0.509,110.839,181.701,-70.008,
00:00:23:300,-0.065,-0.897,0.512,189.819,196.96,-81.971,
00:00:23:317,-0.038,-0.93,0.502,248.535,212.768,-84.839,
00:00:23:333,-0.021,-0.966,0.495,248.047,209.167,-89.539,
00:00:23:350,-0.027,-0.958,0.51,206.176,217.712,-97.229,
00:00:23:367,-0.023,-0.934,0.543,203.735,243.042,-105.652,
00:00:23:383,-0.006,-0.927,0.556,237.121,269.47,-121.399,
00:00:23:400,0.003,-0.906,0.505,268.493,286.621,-155.64,
00:00:23:417,0,-0.897,0.454,285.888,281.005,-146.973,
00:00:23:433,-0.005,-0.908,0.392,296.02,281.738,-146.119,
00:00:23:450,0.002,-0.907,0.392,300.72,280.334,-123.841,
00:00:23:467,0.014,-0.937,0.477,292.48,287.536,-103.455,
00:00:23:483,0.033,-0.971,0.515,255.493,303.283,-114.869,
00:00:23:500,0.049,-0.994,0.508,207.153,305.175,-143.921,
00:00:23:517,0.036,-0.961,0.494,187.072,282.104,-146.119,
00:00:23:533,0.003,-0.934,0.49,203.857,263.916,-146.79,
00:00:23:550,-0.02,-0.947,0.499,209.594,275.573,-135.865,
00:00:23:567,0,-0.989,0.5,197.143,284.546,-138.489,
00:00:23:583,0.022,-1.007,0.48,159.79,258.484,-147.034,
00:00:23:600,0.031,-0.999,0.478,111.633,201.416,-146.729,
00:00:23:617,0.007,-0.986,0.487,68.298,158.996,-136.841,
00:00:23:633,-0.002,-0.944,0.489,41.32,153.686,-119.996,
00:00:23:650,0.001,-0.943,0.495,14.038,162.597,-114.563,
00:00:23:667,-0.003,-0.947,0.485,7.812,149.719,-107.544,
00:00:23:683,-0.019,-0.973,0.483,3.479,120.91,-104.615,
00:00:23:700,-0.021,-0.959,0.483,-28.321,79.345,-82.886,
00:00:23:717,-0.039,-0.947,0.495,-66.04,30.822,-82.398,
00:00:23:733,-0.124,-0.914,0.488,-105.042,-11.597,-65.918,
00:00:23:750,-0.161,-0.897,0.493,-124.573,-36.499,-51.27,
00:00:23:767,-0.202,-0.904,0.494,-119.202,-20.997,-34.18,
00:00:23:783,-0.152,-0.951,0.558,-126.404,19.043,30.273,
00:00:23:800,-0.122,-0.944,0.544,-170.777,-4.822,28.564,
00:00:23:817,-0.124,-0.941,0.537,-212.891,-66.163,24.963,
00:00:23:833,-0.149,-0.914,0.533,-242.127,-127.869,35.583,
00:00:23:850,-0.189,-0.878,0.513,-272.583,-167.847,51.391,
00:00:23:867,-0.214,-0.843,0.511,-276.49,-184.021,72.692,
00:00:23:883,-0.204,-0.844,0.522,-277.588,-179.505,95.581,
00:00:23:900,-0.169,-0.84,0.534,-277.649,-179.993,121.765,
00:00:23:917,-0.168,-0.851,0.54,-256.226,-210.389,133.606,
00:00:23:933,-0.218,-0.843,0.506,-246.277,-257.508,129.76,
00:00:23:950,-0.29,-0.828,0.482,-269.593,-291.871,108.276,
00:00:23:967,-0.315,-0.865,0.452,-322.022,-269.715,95.52,
00:00:23:983,-0.279,-0.856,0.45,-375.672,-258.667,120.91,
00:00:24:0,-0.268,-0.828,0.468,-407.288,-297.73,133.728,
00:00:24:17,-0.309,-0.767,0.476,-399.903,-305.909,148.193,
00:00:24:33,-0.344,-0.703,0.498,-316.712,-283.387,142.822,
00:00:24:50,-0.36,-0.688,0.486,-204.468,-227.906,134.765,
00:00:24:67,-0.347,-0.726,0.447,-178.162,-178.956,124.084,
00:00:24:83,-0.289,-0.803,0.403,-190.674,-136.475,109.192,
00:00:24:100,-0.227,-0.853,0.417,-238.77,-161.133,101.196,
00:00:24:117,-0.21,-0.849,0.468,-248.291,-209.961,94.116,
00:00:24:133,-0.253,-0.808,0.529,-191.59,-213.807,84.533,
00:00:24:150,-0.284,-0.777,0.557,-105.896,-148.56,70.312,
00:00:24:167,-0.275,-0.788,0.547,-47.303,-67.566,39.856,
00:00:24:183,-0.226,-0.814,0.527,-36.56,-31.861,28.625,
00:00:24:200,-0.169,-0.831,0.523,-95.581,-70.313,34.729,
00:00:24:217,-0.159,-0.774,0.557,-28.016,-81.727,43.273,
00:00:24:233,-0.179,-0.776,0.581,28.686,-67.81,42.114,
00:00:24:250,-0.183,-0.858,0.604,32.287,-17.09,18.188,
00:00:24:267,-0.141,-0.907,0.619,-55.115,18.005,-18.433,
00:00:24:283,-0.1,-0.908,0.598,-147.706,28.686,-34.913,
00:00:24:300,-0.075,-0.842,0.581,-113.892,27.526,-23.682,
00:00:24:317,-0.07,-0.755,0.579,42.663,28.625,-11.658,
00:00:24:333,-0.095,-0.755,0.581,216.125,47.79,-19.654,
00:00:24:350,-0.109,-0.849,0.599,294.372,89.233,-45.838,
00:00:24:367,-0.067,-0.946,0.609,211.853,137.146,-78.309,
00:00:24:383,-0.023,-0.96,0.587,63.476,149.292,-102.967,
00:00:24:400,-0.019,-0.894,0.573,16.784,125.305,-103.577,
00:00:24:417,-0.053,-0.79,0.543,93.261,132.751,-93.14,
00:00:24:433,-0.074,-0.75,0.523,281.372,167.968,-87.525,
00:00:24:450,-0.054,-0.848,0.602,393.859,231.262,-108.216,
00:00:24:467,-0.01,-0.959,0.636,358.947,251.526,-141.602,
00:00:24:483,0.024,-0.997,0.622,241.455,267.578,-170.96,
00:00:24:500,0.033,-0.936,0.572,203.979,257.263,-180.542,
00:00:24:517,0.015,-0.844,0.525,258.606,233.825,-173.645,
00:00:24:533,-0.01,-0.821,0.513,375.061,218.139,-162.659,
00:00:24:550,-0.017,-0.885,0.547,430.236,225.402,-157.044,
00:00:24:567,-0.001,-0.942,0.584,394.897,248.23,-149.964,
00:00:24:583,0.017,-0.943,0.58,320.312,256.958,-155.152,
00:00:24:600,0.006,-0.919,0.553,306.457,248.779,-161.927,
00:00:24:617,-0.029,-0.888,0.548,336.853,238.647,-159.058,
00:00:24:633,-0.065,-0.924,0.53,348.388,238.159,-168.519,
00:00:24:650,-0.056,-0.999,0.509,302.368,251.22,-163.819,
00:00:24:667,-0.021,-1.004,0.509,210.144,231.567,-141.602,
00:00:24:683,-0.002,-0.96,0.513,132.08,196.533,-128.235,
00:00:24:700,-0.008,-0.902,0.518,125.122,180.542,-115.906,
00:00:24:717,-0.016,-0.87,0.519,180.42,190.124,-110.352,
00:00:24:733,-0.045,-0.891,0.502,196.96,179.26,-120.606,
00:00:24:750,-0.082,-0.94,0.487,169.25,163.513,-125.55,
00:00:24:767,-0.089,-0.98,0.477,118.408,146.728,-105.53,
00:00:24:783,-0.079,-0.986,0.484,69.397,98.877,-75.074,
00:00:24:800,-0.096,-0.88,0.529,-33.692,-20.691,-41.626,
00:00:24:817,-0.098,-0.907,0.512,-18.738,-18.677,-38.208,
00:00:24:833,-0.095,-0.932,0.498,-37.354,-42.725,-41.321,
00:00:24:850,-0.116,-0.953,0.512,-114.685,-103.333,-32.41,
00:00:24:867,-0.139,-0.909,0.531,-186.89,-125.245,-1.831,
00:00:24:883,-0.148,-0.862,0.539,-204.956,-134.766,12.512,
00:00:24:900,-0.146,-0.821,0.551,-168.274,-140.931,33.325,
00:00:24:917,-0.152,-0.821,0.542,-106.08,-147.4,44.372,
00:00:24:933,-0.176,-0.846,0.503,-75.135,-178.284,45.654,
00:00:24:950,-0.224,-0.94,0.518,-389.527,-259.461,110.778,
00:00:24:967,-0.22,-0.821,0.543,-376.465,-282.471,125.366,
00:00:24:983,-0.268,-0.76,0.542,-268.982,-302.124,114.318,
00:00:25:0,-0.329,-0.823,0.444,-185.73,-250.061,97.717,
00:00:25:17,-0.326,-0.837,0.413,-225.708,-248.597,114.746,
00:00:25:33,-0.319,-0.842,0.41,-267.456,-251.893,128.54,
00:00:25:50,-0.313,-0.831,0.457,-282.471,-257.569,141.723,
00:00:25:67,-0.317,-0.793,0.488,-274.659,-245.85,149.841,
00:00:25:83,-0.329,-0.757,0.485,-205.506,-209.534,134.46,
00:00:25:100,-0.323,-0.759,0.436,-128.113,-158.814,111.572,
00:00:25:117,-0.305,-0.828,0.427,-99.976,-147.889,97.412,
00:00:25:133,-0.283,-0.871,0.435,-192.994,-150.696,112.121,
00:00:25:150,-0.248,-0.841,0.5,-278.87,-159.119,123.474,
00:00:25:167,-0.222,-0.836,0.525,-321.717,-171.814,110.29,
00:00:25:183,-0.192,-0.865,0.535,-280.701,-177.613,108.642,
00:00:25:200,-0.174,-0.838,0.536,-178.894,-178.162,126.648,
00:00:25:217,-0.211,-0.851,0.548,-125.245,-177.552,103.82,
00:00:25:233,-0.243,-0.891,0.536,-141.358,-127.686,78.979,
00:00:25:250,-0.216,-0.903,0.547,-225.586,-69.153,33.996,
00:00:25:267,-0.178,-0.867,0.542,-303.956,-39.978,18.249,
00:00:25:283,-0.16,-0.813,0.547,-281.983,-25.94,5.737,
00:00:25:300,-0.156,-0.732,0.552,-103.089,1.709,13.488,
00:00:25:317,-0.18,-0.731,0.561,115.844,26.306,8.728,
00:00:25:333,-0.192,-0.843,0.565,185.119,62.011,-31.373,
00:00:25:350,-0.147,-0.939,0.593,147.766,120.361,-52.613,
00:00:25:367,-0.089,-0.961,0.582,72.387,141.967,-67.2,
00:00:25:383,-0.068,-0.916,0.581,52.673,131.775,-83.374,
00:00:25:400,-0.095,-0.837,0.575,121.215,124.084,-86.06,
00:00:25:417,-0.124,-0.824,0.586,200.5,157.531,-103.882,
00:00:25:433,-0.103,-0.889,0.57,217.102,202.697,-127.747,
00:00:25:450,-0.052,-0.969,0.59,102.111,211.181,-149.903,
00:00:25:467,-0.03,-0.848,0.603,-72.693,187.5,-150.94,
00:00:25:483,-0.034,-0.787,0.652,17.211,188.11,-147.522,
00:00:25:500,-0.01,-0.761,0.651,145.813,200.317,-142.151,
00:00:25:517,0.001,-0.775,0.681,251.098,207.702,-152.283,
00:00:25:533,0.003,-0.839,0.671,286.682,215.576,-169.983,
00:00:25:550,0.022,-0.922,0.657,214.233,214.965,-181.031,
00:00:25:567,0.031,-0.918,0.643,121.276,194.213,-170.35,
00:00:25:583,0.022,-0.834,0.662,69.397,178.772,-156.067,
00:00:25:600,-0.002,-0.78,0.67,96.801,182.8,-156.006,
00:00:25:617,-0.003,-0.772,0.651,189.697,198.12,-157.105,
00:00:25:633,0.003,-0.821,0.633,223.144,196.777,-157.959,
00:00:25:650,0.004,-0.828,0.617,237.426,179.26,-146.851,
00:00:25:667,-0.002,-0.826,0.608,252.807,154.663,-123.902,
00:00:25:683,0,-0.835,0.614,289.672,126.037,-106.446,
00:00:25:700,0.014,-0.871,0.632,307.006,93.2,-89.844,
00:00:25:717,0.014,-0.902,0.6,276.672,53.588,-81.238,
00:00:25:733,-0.01,-0.87,0.573,261.535,-0.977,-59.449,
00:00:25:750,-0.067,-0.841,0.551,237.243,-43.274,-27.894,
00:00:25:767,-0.099,-0.839,0.565,197.265,-60.12,-29.48,
00:00:25:783,-0.114,-0.867,0.516,85.815,-74.585,-40.955,
00:00:25:800,-0.125,-0.885,0.541,-48.829,-119.324,-47.059,
00:00:25:817,-0.152,-0.853,0.568,-126.282,-167.298,-27.894,
00:00:25:833,-0.179,-0.817,0.608,-129.639,-200.928,-10.01,
00:00:25:850,-0.18,-0.801,0.613,-79.773,-213.685,9.399,
00:00:25:867,-0.176,-0.782,0.594,-18.25,-219.239,32.043,
00:00:25:883,-0.199,-0.817,0.543,9.704,-245.057,43.518,
00:00:25:900,-0.259,-0.879,0.526,-44.739,-281.861,52.978,
00:00:25:917,-0.293,-0.906,0.533,-159.668,-289.246,57.128,
00:00:25:933,-0.279,-0.889,0.55,-241.394,-286.927,75.561,
00:00:25:950,-0.273,-0.826,0.579,-243.531,-310.486,95.581,
00:00:25:967,-0.335,-0.801,0.537,-220.459,-328.919,103.881,
00:00:25:983,-0.394,-0.801,0.525,-185.425,-312.5,112.426,
00:00:26:0,-0.409,-0.793,0.492,-162.232,-267.334,125.305,
00:00:26:17,-0.384,-0.804,0.485,-154.786,-227.173,115.783,
00:00:26:33,-0.364,-0.817,0.469,-140.442,-208.313,108.703,
00:00:26:50,-0.365,-0.826,0.448,-126.282,-205.445,112.609,
00:00:26:67,-0.36,-0.843,0.453,-132.63,-192.322,107.605,mixLH
00:00:26:83,-0.351,-0.8,0.475,-107.789,-177.735,128.967,
00:00:26:100,-0.355,-0.782,0.507,-51.758,-154.908,127.38,
00:00:26:117,-0.333,-0.826,0.487,-13.611,-119.019,101.623,
00:00:26:133,-0.282,-0.868,0.47,-7.386,-97.413,80.2,
00:00:26:150,-0.254,-0.856,0.437,-22.461,-105.042,72.998,
00:00:26:167,-0.271,-0.842,0.436,-30.03,-118.714,79.773,
00:00:26:183,-0.284,-0.836,0.464,-34.852,-101.197,72.509,
00:00:26:200,-0.269,-0.846,0.473,-27.955,-81.238,62.622,
00:00:26:217,-0.241,-0.86,0.475,-28.87,-62.561,41.687,
00:00:26:233,-0.219,-0.852,0.476,9.765,-43.03,38.879,
00:00:26:250,-0.215,-0.85,0.47,53.649,-26.734,32.653,
00:00:26:267,-0.224,-0.866,0.492,72.204,-9.644,20.629,
00:00:26:283,-0.206,-0.874,0.503,78.613,8.361,1.342,
00:00:26:300,-0.185,-0.898,0.505,71.716,17.089,-21.302,
00:00:26:317,-0.155,-0.889,0.51,121.338,38.452,-25.818,
00:00:26:333,-0.135,-0.891,0.518,187.255,51.635,-33.143,
00:00:26:350,-0.145,-0.922,0.497,218.505,70.556,-49.866,
00:00:26:367,-0.132,-0.979,0.476,205.017,89.172,-73.243,
00:00:26:383,-0.104,-0.997,0.479,170.532,95.825,-83.558,
00:00:26:400,-0.079,-0.974,0.48,155.822,90.21,-86.67,
00:00:26:417,-0.072,-0.972,0.494,154.846,94.604,-88.807,
00:00:26:433,-0.066,-0.966,0.509,185.974,115.051,-99.366,
00:00:26:450,-0.066,-0.957,0.484,215.759,142.395,-113.16,
00:00:26:467,-0.071,-0.951,0.498,218.811,164.734,-137.818,
00:00:26:483,-0.085,-0.963,0.485,214.172,195.312,-148.621,
00:00:26:500,-0.077,-0.951,0.489,183.96,227.05,-162.293,
00:00:26:517,-0.072,-0.935,0.47,158.325,243.347,-176.209,
00:00:26:533,-0.074,-0.909,0.468,155.7,247.741,-186.89,
00:00:26:550,-0.095,-0.898,0.47,158.203,247.985,-190.247,
00:00:26:567,-0.107,-0.883,0.499,187.805,264.953,-176.697,
00:00:26:583,-0.103,-0.88,0.515,213.806,281.799,-177.002,
00:00:26:600,-0.094,-0.859,0.525,270.874,291.687,-166.81,
00:00:26:617,-0.08,-0.95,0.512,410.766,292.419,-146.546,
00:00:26:633,-0.07,-0.997,0.482,339.294,271.545,-146.973,
00:00:26:650,-0.054,-1.038,0.457,242.92,245.666,-151.062,
00:00:26:667,-0.051,-1.048,0.454,135.925,198.181,-143.128,
00:00:26:683,-0.065,-0.999,0.468,58.044,152.954,-131.531,
00:00:26:700,-0.093,-0.965,0.478,0.854,137.085,-126.465,
00:00:26:717,-0.094,-0.946,0.466,-32.959,148.803,-128.907,
00:00:26:733,-0.074,-0.93,0.448,-34.058,144.47,-126.526,
00:00:26:750,-0.09,-0.903,0.449,-19.837,93.505,-117.493,
00:00:26:767,-0.146,-0.906,0.459,-28.077,60.18,-94.91,
00:00:26:783,-0.18,-0.931,0.46,-56.641,60.485,-76.233,
00:00:26:800,-0.156,-0.951,0.479,-115.845,54.565,-66.346,
00:00:26:817,-0.143,-0.968,0.478,-177.552,4.394,-68.909,
00:00:26:833,-0.15,-0.905,0.481,-182.801,-55.909,-63.599,
00:00:26:850,-0.192,-0.861,0.473,-151.673,-119.446,-59.571,
00:00:26:867,-0.232,-0.889,0.46,-163.697,-151.062,-58.411,
00:00:26:883,-0.238,-0.9,0.452,-217.713,-171.021,-35.462,
00:00:26:900,-0.241,-0.859,0.463,-269.837,-225.464,-10.743,
00:00:26:917,-0.271,-0.85,0.472,-288.208,-270.325,-12.33,
00:00:26:933,-0.294,-0.825,0.471,-279.48,-290.223,3.418,
00:00:26:950,-0.329,-0.782,0.462,-240.174,-311.341,20.813,
00:00:26:967,-0.372,-0.807,0.456,-223.45,-311.89,7.995,
00:00:26:983,-0.374,-0.856,0.463,-255.921,-286.133,7.751,
00:00:27:0,-0.353,-0.841,0.486,-280.701,-285.096,32.714,
00:00:27:17,-0.369,-0.825,0.49,-266.419,-292.847,39.978,
00:00:27:33,-0.396,-0.822,0.529,-233.643,-285.157,46.203,
00:00:27:50,-0.42,-0.803,0.483,-183.167,-266.968,60.058,
00:00:27:67,-0.431,-0.775,0.484,-133.912,-230.957,73.974,
00:00:27:83,-0.436,-0.751,0.476,-106.202,-192.078,70.556,
00:00:27:100,-0.423,-0.784,0.479,-56.458,-153.321,53.222,
00:00:27:117,-0.409,-0.811,0.468,-21.912,-139.161,72.753,
00:00:27:133,-0.403,-0.831,0.475,-14.954,-130.86,70.312,
00:00:27:150,-0.391,-0.814,0.467,-7.447,-109.375,72.57,
00:00:27:167,-0.379,-0.825,0.456,14.709,-90.577,68.969,
00:00:27:183,-0.364,-0.844,0.462,15.136,-71.839,67.565,
00:00:27:200,-0.352,-0.862,0.454,4.516,-47.303,72.326,
00:00:27:217,-0.339,-0.867,0.455,-1.831,-40.528,68.054,
00:00:27:233,-0.334,-0.855,0.46,28.137,-35.34,73.059,
00:00:27:250,-0.309,-0.888,0.437,88.317,-5.433,64.514,
00:00:27:267,-0.27,-0.956,0.437,80.383,11.169,46.325,
00:00:27:283,-0.245,-0.966,0.425,7.263,9.338,41.381,
00:00:27:300,-0.257,-0.943,0.428,-60.364,4.15,19.653,
00:00:27:317,-0.266,-0.902,0.421,-77.21,30.456,8.972,
00:00:27:333,-0.274,-0.843,0.413,-59.937,42.602,11.779,
00:00:27:350,-0.273,-0.818,0.409,17.089,71.044,10.131,
00:00:27:367,-0.256,-0.826,0.414,111.938,97.168,-2.015,
00:00:27:383,-0.246,-0.888,0.403,151.367,111.511,-13.184,
00:00:27:400,-0.231,-0.943,0.399,130.432,121.521,-31.739,
00:00:27:417,-0.191,-0.971,0.396,80.81,109.924,-51.941,
00:00:27:433,-0.211,-0.967,0.416,62.439,133.484,-67.2,
00:00:27:450,-0.2,-0.951,0.432,85.327,151.367,-80.262,
00:00:27:467,-0.18,-0.925,0.435,112.793,174.56,-98.328,
00:00:27:483,-0.169,-0.919,0.409,122.375,186.157,-118.897,
00:00:27:500,-0.158,-0.906,0.403,109.68,184.997,-128.479,
00:00:27:517,-0.148,-0.927,0.414,114.685,180.725,-131.714,
00:00:27:533,-0.133,-0.926,0.442,136.108,177.429,-122.559,
00:00:27:550,-0.149,-0.909,0.46,142.212,163.391,-125,
00:00:27:567,-0.18,-0.915,0.492,158.508,179.748,-138.245,
00:00:27:583,-0.175,-0.927,0.506,182.006,217.468,-143.25,
00:00:27:600,-0.145,-0.912,0.479,198.547,239.074,-149.781,
00:00:27:617,-0.134,-0.927,0.464,205.139,232.422,-159.119,
00:00:27:633,-0.156,-0.93,0.443,200.073,224.731,-142.945,
00:00:27:650,-0.179,-0.904,0.482,198.12,257.141,-129.273,
00:00:27:667,-0.171,-0.944,0.487,186.767,293.701,-131.531,
00:00:27:683,-0.128,-0.95,0.473,187.255,326.049,-142.945,
00:00:27:700,-0.108,-0.902,0.447,228.21,311.279,-147.828,
00:00:27:717,-0.128,-0.844,0.461,315.979,298.401,-151.612,
00:00:27:733,-0.168,-0.879,0.484,385.07,312.744,-147.767,
00:00:27:750,-0.152,-0.948,0.486,415.405,354.309,-146.912,
00:00:27:767,-0.109,-1.005,0.476,369.262,352.6,-137.513,
00:00:27:783,-0.089,-1.023,0.463,317.199,310.241,-128.296,
00:00:27:800,-0.131,-1.027,0.477,249.328,256.164,-122.864,
00:00:27:817,-0.169,-1.044,0.493,186.706,240.6,-126.038,
00:00:27:833,-0.177,-1.062,0.477,95.947,246.582,-127.076,
00:00:27:850,-0.141,-1.042,0.467,23.193,235.351,-125.855,
00:00:27:867,-0.115,-0.97,0.442,-24.842,193.115,-112.427,
00:00:27:883,-0.121,-0.956,0.456,-24.842,150.634,-103.211,
00:00:27:900,-0.141,-0.948,0.484,-46.265,112.304,-73.853,
00:00:27:917,-0.154,-0.926,0.497,-83.13,89.355,-50.538,
00:00:27:933,-0.176,-0.944,0.475,-125.977,66.833,-44.861,
00:00:27:950,-0.179,-0.943,0.454,-180.664,21.362,-44.251,
00:00:27:967,-0.199,-0.964,0.423,-304.749,-46.875,-60.975,
00:00:27:983,-0.207,-1.009,0.428,-390.32,-102.601,-77.149,
00:00:28:0,-0.246,-0.953,0.479,-459.29,-195.496,-28.26,
00:00:28:17,-0.323,-0.856,0.52,-476.319,-233.216,-11.048,
00:00:28:33,-0.369,-0.779,0.549,-427.857,-198.487,-9.827,
00:00:28:50,-0.363,-0.763,0.53,-347.779,-147.278,1.709,
00:00:28:67,-0.33,-0.724,0.501,-304.566,-128.418,19.043,
00:00:28:83,-0.311,-0.74,0.483,-248.352,-169.983,24.414,
00:00:28:100,-0.292,-0.77,0.505,-221.192,-201.172,61.889,
00:00:28:117,-0.282,-0.772,0.546,-243.775,-227.845,81.787,
00:00:28:133,-0.304,-0.75,0.539,-267.09,-248.902,104.065,
00:00:28:150,-0.331,-0.752,0.535,-247.437,-235.718,98.144,
00:00:28:167,-0.328,-0.762,0.512,-191.407,-234.436,95.153,
00:00:28:183,-0.319,-0.798,0.491,-140.686,-228.76,85.51,
00:00:28:200,-0.304,-0.857,0.474,-146.485,-223.267,85.266,
00:00:28:217,-0.291,-0.861,0.457,-206.604,-245.362,108.642,
00:00:28:233,-0.316,-0.822,0.47,-263.733,-279.541,127.685,
00:00:28:250,-0.357,-0.737,0.468,-262.269,-284.241,139.038,
00:00:28:267,-0.373,-0.686,0.45,-174.622,-253.296,137.695,
00:00:28:283,-0.368,-0.683,0.418,-59.082,-218.506,139.343,
00:00:28:300,-0.352,-0.734,0.405,19.226,-183.228,127.319,
00:00:28:317,-0.308,-0.818,0.403,29.174,-144.471,115.417,
00:00:28:333,-0.283,-0.861,0.387,-23.56,-146.363,111.633,
00:00:28:350,-0.281,-0.851,0.374,-66.468,-168.885,98.877,
00:00:28:367,-0.303,-0.816,0.37,-23.865,-165.65,86.12,
00:00:28:383,-0.327,-0.831,0.428,50.781,-131.714,73.913,
00:00:28:400,-0.32,-0.879,0.453,65.918,-44.983,56.213,
00:00:28:417,-0.281,-0.898,0.448,66.223,19.836,45.288,
00:00:28:433,-0.246,-0.911,0.449,52.673,15.258,32.348,
00:00:28:450,-0.264,-0.901,0.452,10.315,-17.518,25.512,
00:00:28:467,-0.29,-0.831,0.485,11.474,-5.188,29.235,
00:00:28:483,-0.3,-0.824,0.491,137.634,81.604,7.385,
00:00:28:500,-0.249,-0.88,0.462,153.198,119.262,-14.771,
00:00:28:517,-0.21,-0.931,0.484,123.718,109.802,-14.283,
00:00:28:533,-0.223,-0.941,0.479,64.453,86.669,-23.865,
00:00:28:550,-0.25,-0.944,0.511,98.755,109.619,-13.306,
00:00:28:567,-0.229,-0.945,0.512,136.291,144.653,-31.739,
00:00:28:583,-0.149,-1.022,0.509,94.238,177.307,-74.402,
00:00:28:600,-0.105,-1.067,0.585,-1.099,173.523,-68.97,
00:00:28:617,-0.097,-1.042,0.662,-140.137,169.433,-81.238,
00:00:28:633,-0.121,-1.014,0.718,-213.44,134.765,-100.953,
00:00:28:650,-0.178,-0.938,0.725,-266.48,123.352,-132.142,
00:00:28:667,-0.208,-0.861,0.658,-210.022,132.568,-138.245,
00:00:28:683,-0.198,-0.825,0.606,-49.866,142.7,-136.475,
00:00:28:700,-0.197,-0.8,0.562,54.748,107.971,-104.248,
00:00:28:717,-0.222,-0.792,0.546,79.956,117.309,-113.099,
00:00:28:733,-0.251,-0.785,0.518,157.104,141.174,-109.436,
00:00:28:750,-0.255,-0.824,0.545,229.126,173.584,-109.803,
00:00:28:767,-0.249,-0.896,0.524,256.103,225.952,-118.103,
00:00:28:783,-0.231,-0.921,0.494,310.608,248.84,-140.931,
00:00:28:800,-0.211,-0.891,0.471,330.871,241.821,-153.26,
00:00:28:817,-0.214,-0.88,0.463,380.188,230.102,-135.804,
00:00:28:833,-0.227,-0.98,0.444,308.227,213.562,-145.325,
00:00:28:850,-0.206,-1.031,0.457,157.409,215.393,-148.072,
00:00:28:867,-0.183,-0.953,0.472,43.884,194.091,-124.39,
00:00:28:883,-0.204,-0.859,0.502,28.198,160.217,-122.742,
00:00:28:900,-0.229,-0.796,0.533,90.515,176.025,-130.738,
00:00:28:917,-0.222,-0.8,0.545,178.222,233.276,-134.827,
00:00:28:933,-0.179,-0.833,0.507,275.329,263.794,-146.851,
00:00:28:950,-0.129,-0.897,0.477,321.96,254.272,-155.518,
00:00:28:967,-0.103,-0.931,0.48,317.627,202.514,-124.756,
00:00:28:983,-0.108,-0.918,0.505,267.151,159.423,-81.116,
00:00:29:0,-0.131,-0.933,0.522,175.537,144.409,-66.651,
00:00:29:17,-0.112,-0.983,0.498,45.471,160.461,-74.402,
00:00:29:33,-0.079,-0.998,0.496,-86.243,121.704,-87.464,
00:00:29:50,-0.083,-0.944,0.498,-167.115,40.344,-73.914,
00:00:29:67,-0.134,-0.878,0.54,-163.575,-30.823,-49.012,
00:00:29:83,-0.185,-0.829,0.575,-107.727,-61.646,-28.077,
00:00:29:100,-0.218,-0.822,0.584,-76.477,-55.726,-16.297,
00:00:29:117,-0.228,-0.833,0.557,-82.337,-49.561,-26.795,
00:00:29:133,-0.211,-0.896,0.504,-126.038,-57.801,-36.255,
00:00:29:150,-0.184,-0.933,0.49,-223.328,-116.272,-17.334,
00:00:29:167,-0.19,-0.875,0.515,-326.416,-202.82,28.015,
00:00:29:183,-0.223,-0.779,0.562,-322.754,-248.291,69.152,
00:00:29:200,-0.257,-0.717,0.593,-256.958,-251.831,79.528,
00:00:29:217,-0.275,-0.713,0.576,-160.462,-227.417,81.481,
00:00:29:233,-0.281,-0.768,0.54,-91.309,-226.075,70.739,
00:00:29:250,-0.308,-0.815,0.491,-105.591,-258.912,80.078,
00:00:29:267,-0.326,-0.873,0.471,-183.411,-282.837,82.824,
00:00:29:283,-0.325,-0.854,0.484,-275.879,-309.998,119.934,
00:00:29:300,-0.354,-0.784,0.524,-311.219,-344.361,145.08,
00:00:29:317,-0.399,-0.777,0.51,-275.147,-343.75,139.526,
00:00:29:333,-0.429,-0.772,0.499,-235.047,-322.388,148.925,
00:00:29:350,-0.445,-0.771,0.476,-203.553,-291.26,151.062,
00:00:29:367,-0.439,-0.807,0.454,-208.435,-250,151.184,
00:00:29:383,-0.413,-0.821,0.457,-257.752,-236.268,125.549,
00:00:29:400,-0.393,-0.807,0.475,-291.443,-236.084,140.869,
00:00:29:417,-0.407,-0.764,0.485,-292.42,-231.934,150.268,
00:00:29:433,-0.387,-0.751,0.511,-216.248,-183.35,134.826,
00:00:29:450,-0.37,-0.755,0.505,-136.658,-149.353,132.629,
00:00:29:467,-0.371,-0.767,0.483,-106.751,-127.686,122.192,
00:00:29:483,-0.375,-0.753,0.468,-82.337,-122.254,129.15,
00:00:29:500,-0.377,-0.728,0.498,-60.669,-126.831,143.982,
00:00:29:517,-0.368,-0.731,0.524,-64.82,-115.235,142.456,
00:00:29:533,-0.328,-0.744,0.525,0.427,-67.749,134.277,
00:00:29:550,-0.282,-0.783,0.519,106.567,-51.209,116.882,
00:00:29:567,-0.265,-0.88,0.503,165.893,-43.274,97.106,
00:00:29:583,-0.273,-0.937,0.5,140.075,-36.622,84.777,
00:00:29:600,-0.285,-0.916,0.497,69.336,-15.259,73.913,
00:00:29:617,-0.288,-0.863,0.503,63.11,9.155,57.495,
00:00:29:633,-0.28,-0.838,0.513,125,37.17,45.166,
00:00:29:650,-0.25,-0.836,0.547,217.773,69.213,23.498,
00:00:29:667,-0.224,-0.925,0.517,231.323,124.939,16.967,
00:00:29:683,-0.185,-0.997,0.503,191.589,119.201,-11.17,
00:00:29:700,-0.171,-0.994,0.499,88.134,102.661,-28.809,
00:00:29:717,-0.204,-0.938,0.505,23.132,86.608,-35.462,
00:00:29:733,-0.235,-0.871,0.524,50.415,114.807,-42.908,
00:00:29:750,-0.223,-0.813,0.549,139.16,166.565,-46.021,
00:00:29:767,-0.173,-0.848,0.563,244.629,216.797,-51.392,
00:00:29:783,-0.136,-0.901,0.516,278.198,212.341,-47.425,
00:00:29:800,-0.129,-0.97,0.502,232.788,188.171,-58.838,
00:00:29:817,-0.13,-1.002,0.49,97.29,174.987,-72.754,
00:00:29:833,-0.115,-0.987,0.521,11.535,175.354,-96.558,
00:00:29:850,-0.125,-0.91,0.535,-3.174,170.898,-91.614,
00:00:29:867,-0.157,-0.856,0.525,69.885,185.424,-94.605,
00:00:29:883,-0.172,-0.829,0.524,170.044,217.041,-102.051,
00:00:29:900,-0.156,-0.846,0.539,258.361,256.347,-108.704,
00:00:29:917,-0.121,-0.887,0.497,287.719,281.982,-130.921,
00:00:29:933,-0.106,-0.906,0.463,260.07,273.315,-155.945,
00:00:29:950,-0.114,-0.896,0.424,252.38,257.019,-157.105,
00:00:29:967,-0.127,-0.879,0.427,283.63,251.77,-121.582,
00:00:29:983,-0.115,-0.872,0.476,322.509,267.639,-91.736,
00:00:30:0,-0.097,-0.935,0.494,285.278,282.043,-102.173,
00:00:30:17,-0.062,-0.983,0.477,239.563,279.724,-126.099,
00:00:30:33,-0.044,-0.991,0.474,170.349,220.276,-142.334,
00:00:30:50,-0.062,-0.955,0.497,126.709,194.091,-135.01,
00:00:30:67,-0.11,-0.921,0.495,92.407,176.88,-130.86,mixLH
00:00:30:83,-0.137,-0.902,0.5,119.14,178.711,-127.564,
00:00:30:100,-0.126,-0.887,0.506,182.678,185.73,-118.226,
00:00:30:117,-0.113,-0.919,0.504,233.093,191.772,-117.493,
00:00:30:133,-0.093,-0.954,0.493,221.496,188.415,-117.859,
00:00:30:150,-0.088,-0.953,0.472,173.95,173.523,-114.136,
00:00:30:167,-0.081,-0.942,0.458,117.492,158.386,-111.695,
00:00:30:183,-0.078,-0.975,0.429,43.884,148.254,-94.91,
00:00:30:200,-0.07,-1,0.449,-51.941,109.192,-82.154,
00:00:30:217,-0.053,-0.957,0.52,-115.174,55.664,-56.336,
00:00:30:233,-0.07,-0.89,0.577,-116.822,6.591,-46.875,
00:00:30:250,-0.102,-0.845,0.574,-56.031,-17.212,-40.65,
00:00:30:267,-0.125,-0.859,0.554,29.846,-36.377,-49.256,
00:00:30:283,-0.148,-0.91,0.496,16.357,-66.102,-41.016,
00:00:30:300,-0.163,-0.946,0.472,-61.341,-105.591,-20.997,
00:00:30:317,-0.176,-0.916,0.497,-122.132,-154.664,19.104,
00:00:30:333,-0.198,-0.883,0.528,-143.494,-187.012,33.996,
00:00:30:350,-0.225,-0.88,0.547,-122.742,-203.675,32.165,
00:00:30:367,-0.269,-0.92,0.503,-138.001,-222.84,36.621,
00:00:30:383,-0.3,-0.928,0.477,-187.256,-240.967,48.278,
00:00:30:400,-0.303,-0.9,0.462,-240.418,-247.315,66.65,
00:00:30:417,-0.295,-0.885,0.466,-275.391,-257.874,86.731,
00:00:30:433,-0.311,-0.943,0.447,-359.009,-294.739,73.73,
00:00:30:450,-0.335,-0.925,0.426,-470.643,-319.275,86.303,
00:00:30:467,-0.366,-0.855,0.438,-505.738,-349.732,89.172,
00:00:30:483,-0.422,-0.81,0.446,-481.568,-351.624,87.219,
00:00:30:500,-0.455,-0.778,0.449,-421.143,-306.031,76.049,
00:00:30:517,-0.461,-0.78,0.407,-370.789,-256.836,71.655,
00:00:30:533,-0.458,-0.792,0.393,-367.737,-230.225,62.5,
00:00:30:550,-0.44,-0.783,0.403,-404.114,-208.374,61.218,
00:00:30:567,-0.435,-0.723,0.424,-407.532,-195.679,73.913,
00:00:30:583,-0.43,-0.683,0.447,-372.498,-171.631,71.228,
00:00:30:600,-0.423,-0.659,0.47,-294.068,-139.954,70.434,
00:00:30:617,-0.412,-0.676,0.474,-208.252,-104.798,78.674,
00:00:30:633,-0.389,-0.71,0.474,-173.462,-78.492,72.509,
00:00:30:650,-0.364,-0.728,0.497,-164.978,-79.041,72.998,
00:00:30:667,-0.365,-0.729,0.52,-150.513,-92.225,86.975,
00:00:30:683,-0.362,-0.761,0.548,-120.728,-78.797,82.885,
00:00:30:700,-0.323,-0.809,0.57,-44.129,-42.786,70.617,
00:00:30:717,-0.293,-0.832,0.576,28.869,-26.856,68.359,
00:00:30:733,-0.289,-0.868,0.576,66.711,-21.729,44.189,
00:00:30:750,-0.299,-0.869,0.588,42.114,-9.278,27.282,
00:00:30:767,-0.309,-0.835,0.589,-15.686,20.996,18.737,
00:00:30:783,-0.302,-0.784,0.582,-45.289,47.973,16.662,
00:00:30:800,-0.268,-0.767,0.598,38.452,85.205,17.578,
00:00:30:817,-0.205,-0.78,0.59,197.937,123.047,21.667,
00:00:30:833,-0.153,-0.852,0.614,327.819,138.977,1.831,
00:00:30:850,-0.142,-0.98,0.577,331.665,141.357,-29.48,
00:00:30:867,-0.144,-1.056,0.538,192.81,143.798,-57.618,
00:00:30:883,-0.143,-1.011,0.54,63.72,147.277,-75.379,
00:00:30:900,-0.143,-0.922,0.581,73.364,154.541,-70.252,
00:00:30:917,-0.137,-0.868,0.597,134.582,192.505,-66.956,
00:00:30:933,-0.095,-0.856,0.584,243.469,232.849,-92.225,
00:00:30:950,-0.062,-0.862,0.552,325.195,239.563,-105.957,
00:00:30:967,-0.087,-0.862,0.53,355.041,204.406,-115.235,
00:00:30:983,-0.13,-0.87,0.547,364.318,206.482,-125.306,
00:00:31:0,-0.13,-0.885,0.551,358.52,237.121,-124.329,
00:00:31:17,-0.088,-0.903,0.537,354.919,260.192,-131.165,
00:00:31:33,-0.042,-0.907,0.53,357.788,248.413,-128.663,
00:00:31:50,-0.034,-0.894,0.524,374.878,235.473,-132.019,
00:00:31:67,-0.044,-0.908,0.507,377.441,227.783,-142.823,
00:00:31:83,-0.064,-0.92,0.478,340.026,220.764,-146.607,
00:00:31:100,-0.084,-0.909,0.48,302.795,212.524,-139.222,
00:00:31:117,-0.089,-0.898,0.485,306.335,206.359,-124.268,
00:00:31:133,-0.09,-0.905,0.512,308.227,207.885,-115.906,
00:00:31:150,-0.075,-0.893,0.522,332.275,206.726,-107.605,
00:00:31:167,-0.07,-0.943,0.509,346.862,197.57,-117.859,
00:00:31:183,-0.078,-0.952,0.49,325.073,186.401,-105.591,
00:00:31:200,-0.097,-0.923,0.474,299.56,158.935,-100.159,
00:00:31:217,-0.122,-0.933,0.441,268.249,138.549,-102.723,
00:00:31:233,-0.114,-0.983,0.447,226.745,133.728,-99.305,
00:00:31:250,-0.089,-0.979,0.455,156.921,119.262,-69.764,
00:00:31:267,-0.072,-0.947,0.445,120.605,92.895,-63.172,
00:00:31:283,-0.079,-0.946,0.452,94.238,64.27,-72.876,
00:00:31:300,-0.09,-0.939,0.452,69.458,46.997,-67.81,
00:00:31:317,-0.111,-0.938,0.45,53.649,24.902,-50.965,
00:00:31:333,-0.136,-0.981,0.437,-13.55,-6.409,-43.152,
00:00:31:350,-0.112,-1.002,0.47,-76.661,-33.57,-37.659,
00:00:31:367,-0.096,-0.964,0.496,-120.423,-81.299,-20.997,
00:00:31:383,-0.123,-0.904,0.517,-109.864,-136.292,-18.738,
00:00:31:400,-0.166,-0.893,0.524,-60.852,-164.795,-29.786,
00:00:31:417,-0.2,-0.924,0.471,-68.787,-177.369,-25.635,
00:00:31:433,-0.219,-0.965,0.424,-119.568,-212.403,-10.315,
00:00:31:450,-0.246,-0.957,0.411,-213.685,-278.626,12.939,
00:00:31:467,-0.292,-0.91,0.408,-290.955,-333.252,33.691,
00:00:31:483,-0.335,-0.868,0.422,-319.642,-345.459,43.029,
00:00:31:500,-0.338,-0.844,0.438,-294.556,-326.722,51.574,
00:00:31:517,-0.327,-0.844,0.451,-242.493,-307.801,65.124,
00:00:31:533,-0.342,-0.86,0.409,-202.942,-304.383,77.636,
00:00:31:550,-0.368,-0.867,0.401,-184.021,-314.026,84.045,
00:00:31:567,-0.397,-0.874,0.393,-197.876,-315.125,87.158,
00:00:31:583,-0.41,-0.872,0.413,-235.779,-291.687,81.054,
00:00:31:600,-0.381,-0.853,0.415,-232.85,-268.799,80.322,
00:00:31:617,-0.373,-0.863,0.405,-206.116,-275.879,80.932,
00:00:31:633,-0.384,-0.929,0.378,-224.244,-255.799,74.707,
00:00:31:650,-0.369,-0.896,0.366,-252.137,-239.624,88.623,
00:00:31:667,-0.391,-0.857,0.356,-235.779,-240.54,77.88,
00:00:31:683,-0.41,-0.88,0.354,-237.793,-207.459,39.245,
00:00:31:700,-0.395,-0.855,0.358,-269.593,-171.265,57.922,
00:00:31:717,-0.38,-0.817,0.355,-291.626,-172.669,61.096,
00:00:31:733,-0.376,-0.77,0.379,-255.86,-165.833,60.791,
00:00:31:750,-0.392,-0.784,0.383,-190.125,-155.884,53.527,
00:00:31:767,-0.394,-0.823,0.408,-185.486,-105.408,25.024,
00:00:31:783,-0.378,-0.826,0.437,-180.787,-49.073,20.324,
00:00:31:800,-0.361,-0.827,0.477,-164.002,-12.33,19.226,
00:00:31:817,-0.339,-0.835,0.487,-142.884,32.959,9.277,
00:00:31:833,-0.301,-0.83,0.512,-49.073,64.453,7.507,
00:00:31:850,-0.278,-0.835,0.503,58.349,71.899,15.319,
00:00:31:867,-0.283,-0.895,0.496,149.841,75.5,-6.043,
00:00:31:883,-0.279,-0.928,0.485,142.822,103.698,-16.358,
00:00:31:900,-0.268,-0.939,0.477,73.852,121.276,-34.729,
00:00:31:917,-0.252,-0.903,0.475,-2.198,132.08,-42.115,
00:00:31:933,-0.255,-0.879,0.481,-40.284,129.943,-51.209,
00:00:31:950,-0.239,-0.839,0.488,5.554,145.752,-49.378,
00:00:31:967,-0.235,-0.814,0.467,69.763,160.217,-43.641,
00:00:31:983,-0.23,-0.847,0.457,120.422,184.631,-46.57,
00:00:32:0,-0.193,-0.936,0.493,110.412,214.416,-63.721,
00:00:32:17,-0.145,-0.949,0.518,45.898,227.722,-62.867,
00:00:32:33,-0.12,-0.931,0.53,19.043,225.647,-76.294,
00:00:32:50,-0.094,-0.906,0.559,60.607,218.505,-72.876,
00:00:32:67,-0.088,-0.907,0.552,154.541,211.425,-82.703,
00:00:32:83,-0.092,-0.947,0.561,200.195,204.101,-95.215,
00:00:32:100,-0.077,-1.005,0.572,194.397,215.454,-126.709,
00:00:32:117,-0.056,-0.99,0.565,147.277,215.332,-135.743,
00:00:32:133,-0.059,-0.905,0.539,121.399,207.214,-128.968,
00:00:32:150,-0.09,-0.86,0.543,142.334,205.139,-146.241,
00:00:32:167,-0.113,-0.843,0.51,186.706,224.792,-138.001,
00:00:32:183,-0.127,-0.833,0.486,255.127,244.201,-135.865,
00:00:32:200,-0.128,-0.855,0.495,286.071,257.751,-140.625,
00:00:32:217,-0.131,-0.854,0.513,300.293,281.738,-137.513,
00:00:32:233,-0.117,-0.886,0.522,272.4,305.969,-137.024,
00:00:32:250,-0.082,-0.955,0.505,246.643,312.866,-140.931,
00:00:32:267,-0.05,-1.002,0.501,202.026,257.568,-123.902,
00:00:32:283,-0.038,-1.03,0.517,91.064,187.866,-107.911,
00:00:32:300,-0.034,-1.009,0.537,-38.331,142.883,-112.183,
00:00:32:317,-0.039,-0.947,0.56,-116.028,101.989,-110.291,
00:00:32:333,-0.062,-0.895,0.587,-113.953,58.349,-104.615,
00:00:32:350,-0.104,-0.816,0.593,-72.571,15.38,-78.553,
00:00:32:367,-0.156,-0.829,0.568,-22.889,-27.649,-83.13,
00:00:32:383,-0.189,-0.844,0.557,-12.33,-50.477,-73.487,
00:00:32:400,-0.191,-0.872,0.537,-49.195,-43.641,-53.711,
00:00:32:417,-0.164,-0.87,0.527,-106.141,-48.951,-38.758,
00:00:32:433,-0.152,-0.852,0.552,-111.939,-74.341,-26.673,
00:00:32:450,-0.181,-0.839,0.577,-62.317,-110.108,-19.349,
00:00:32:467,-0.239,-0.849,0.582,-13.733,-143.799,-7.325,
00:00:32:483,-0.27,-0.881,0.561,-18.006,-159.729,-4.578,
00:00:32:500,-0.264,-0.907,0.53,-121.766,-169.007,4.577,
00:00:32:517,-0.239,-0.894,0.524,-233.521,-199.891,21.606,
00:00:32:533,-0.262,-0.831,0.512,-310.975,-255.555,54.931,
00:00:32:550,-0.359,-0.777,0.502,-324.891,-317.261,77.392,
00:00:32:567,-0.438,-0.728,0.556,-286.194,-318.787,96.618,
00:00:32:583,-0.458,-0.716,0.554,-241.089,-247.01,116.516,
00:00:32:600,-0.401,-0.72,0.548,-181.214,-188.538,113.891,
00:00:32:617,-0.36,-0.786,0.496,-154.664,-188.843,107.849,
00:00:32:633,-0.327,-0.879,0.483,-171.204,-211.914,106.994,
00:00:32:650,-0.335,-0.886,0.497,-223.511,-252.259,132.202,
00:00:32:667,-0.37,-0.851,0.51,-232.789,-245.85,127.99,
00:00:32:683,-0.372,-0.866,0.498,-225.525,-184.021,105.529,
00:00:32:700,-0.312,-0.887,0.443,-218.689,-124.573,92.285,
00:00:32:717,-0.274,-0.9,0.44,-205.506,-134.278,98.327,
00:00:32:733,-0.312,-0.854,0.453,-247.559,-173.401,117.004,
00:00:32:750,-0.376,-0.812,0.467,-327.332,-167.054,85.693,
00:00:32:767,-0.396,-0.809,0.488,-410.035,-130.555,57.128,
00:00:32:783,-0.366,-0.748,0.511,-471.253,-121.338,64.636,
00:00:32:800,-0.362,-0.669,0.542,-462.281,-133.851,88.501,
00:00:32:817,-0.374,-0.621,0.589,-380.86,-117.676,92.224,
00:00:32:833,-0.369,-0.63,0.588,-287.232,-84.107,93.566,
00:00:32:850,-0.345,-0.627,0.576,-185.059,-61.097,97.229,
00:00:32:867,-0.349,-0.603,0.565,-69.642,-75.257,95.703,
00:00:32:883,-0.379,-0.657,0.58,9.46,-63.66,99.243,
00:00:32:900,-0.378,-0.718,0.631,94.665,-21.424,88.806,
00:00:32:917,-0.316,-0.799,0.668,174.316,31.799,90.087,
00:00:32:933,-0.243,-0.901,0.651,206.909,59.326,63.293,
00:00:32:950,-0.209,-0.939,0.611,172.18,40.1,32.165,
00:00:32:967,-0.242,-0.931,0.574,109.192,8.789,26.001,
00:00:32:983,-0.289,-0.877,0.583,42.785,17.456,22.766,
00:00:33:0,-0.293,-0.805,0.592,61.828,77.392,22.094,
00:00:33:17,-0.262,-0.783,0.6,165.283,112.426,11.779,
00:00:33:33,-0.206,-0.89,0.591,250.305,152.343,-17.09,
00:00:33:50,-0.143,-0.991,0.56,232.971,175.171,-39.368,
00:00:33:67,-0.14,-1.005,0.548,112.671,158.02,-56.397,
00:00:33:83,-0.183,-0.927,0.577,40.466,160.461,-73.914,
00:00:33:100,-0.2,-0.814,0.599,99.853,219.726,-74.769,
00:00:33:117,-0.192,-0.726,0.59,288.635,263.549,-90.271,
00:00:33:133,-0.19,-0.692,0.537,494.934,287.048,-96.192,
00:00:33:150,-0.194,-0.807,0.477,552.368,298.889,-97.901,
00:00:33:167,-0.102,-0.972,0.517,458.313,308.838,-127.869,
00:00:33:183,-0.02,-0.983,0.523,297.485,285.156,-119.446,
00:00:33:200,-0.035,-0.889,0.526,220.276,239.196,-106.385,
00:00:33:217,-0.087,-0.803,0.532,262.329,239.074,-111.634,
00:00:33:233,0.008,-0.859,0.623,308.166,289.856,-132.264,
00:00:33:250,-0.112,-0.905,0.517,253.723,497.985,5.798,
00:00:33:267,0.051,-0.965,0.592,150.817,425.842,-79.956,
00:00:33:283,0.056,-0.927,0.544,121.338,406.494,0.244,
00:00:33:300,0.043,-0.831,0.562,206.726,247.985,-120.545,
00:00:33:317,0.021,-0.853,0.581,332.092,215.637,-151.246,
00:00:33:334,0.018,-0.886,0.627,385.864,195.19,-182.74,
00:00:33:350,-0.011,-0.97,0.596,410.705,199.829,-211.914,
00:00:33:367,-0.036,-0.948,0.535,375.854,169.25,-239.563,
00:00:33:384,-0.093,-0.883,0.452,513.672,195.495,-154.48,
00:00:33:400,-0.062,-1.052,0.496,435.852,128.723,-214.356,
00:00:33:417,-0.067,-1.006,0.458,321.594,124.633,-124.451,
00:00:33:434,-0.057,-1.003,0.505,202.27,152.649,-61.463,
00:00:33:450,-0.079,-0.927,0.419,159.546,143.798,-98.572,
00:00:33:467,-0.07,-0.917,0.409,136.352,157.592,-110.23,
00:00:33:484,-0.043,-0.907,0.388,141.662,174.255,-108.704,
00:00:33:500,-0.026,-0.928,0.38,86.547,149.231,-111.512,
00:00:33:517,-0.015,-0.92,0.394,24.231,111.572,-100.525,
00:00:33:534,-0.021,-0.898,0.431,4.516,49.072,-88.318,
00:00:33:550,-0.065,-0.896,0.446,10.864,-12.207,-69.275,
00:00:33:567,-0.1,-0.907,0.469,-1.099,-37.964,-65.491,
00:00:33:584,-0.093,-0.885,0.468,-3.54,-51.026,-57.801,
00:00:33:600,-0.103,-0.898,0.478,-3.357,-96.192,-56.031,
00:00:33:617,-0.154,-0.989,0.458,-49.561,-169.556,-65.796,
00:00:33:634,-0.202,-1.001,0.478,-164.551,-237.427,-49.805,
00:00:33:650,-0.237,-0.952,0.502,-253.174,-279.358,-29.969,
00:00:33:667,-0.249,-0.874,0.518,-282.776,-287.049,-11.231,
00:00:33:684,-0.243,-0.813,0.523,-245.972,-277.955,10.131,
00:00:33:700,-0.256,-0.832,0.483,-218.079,-290.589,23.193,
00:00:33:717,-0.303,-0.873,0.431,-229.737,-326.05,42.175,
00:00:33:734,-0.344,-0.879,0.437,-275.025,-363.038,63.537,
00:00:33:750,-0.369,-0.852,0.464,-318.299,-371.155,93.933,
00:00:33:767,-0.366,-0.86,0.481,-347.046,-339.112,103.088,
00:00:33:784,-0.343,-0.849,0.486,-333.191,-319.214,119.629,
00:00:33:800,-0.358,-0.854,0.471,-270.63,-343.567,130.371,
00:00:33:817,-0.41,-0.866,0.441,-216.431,-330.567,126.77,
00:00:33:834,-0.441,-0.924,0.397,-218.506,-289.002,122.07,
00:00:33:850,-0.426,-0.944,0.376,-280.884,-257.63,116.272,
00:00:33:867,-0.429,-0.916,0.358,-339.722,-249.268,109.558,
00:00:33:884,-0.444,-0.889,0.401,-364.075,-226.563,100.097,
00:00:33:900,-0.445,-0.834,0.43,-357.3,-165.894,96.313,
00:00:33:917,-0.42,-0.792,0.429,-327.881,-104.92,85.571,
00:00:33:934,-0.397,-0.763,0.408,-295.899,-80.384,76.477,
00:00:33:950,-0.393,-0.75,0.411,-267.518,-66.407,74.34,
00:00:33:967,-0.374,-0.748,0.446,-226.197,-29.175,73.303,
00:00:33:984,-0.332,-0.792,0.476,-173.951,8.361,77.087,
00:00:34:0,-0.297,-0.814,0.49,-149.842,12.451,84.411,
00:00:34:17,-0.289,-0.83,0.502,-147.644,4.882,83.435,
00:00:34:34,-0.282,-0.83,0.538,-192.505,-5.249,62.5,
00:00:34:50,-0.266,-0.813,0.548,-217.164,-7.142,40.527,
00:00:34:67,-0.246,-0.795,0.561,-178.956,-12.574,38.33,mixLH
00:00:34:84,-0.244,-0.823,0.55,-136.719,-6.836,34.912,
00:00:34:100,-0.221,-0.899,0.551,-123.047,15.319,22.094,
00:00:34:117,-0.183,-0.875,0.531,-135.804,34.118,15.075,
00:00:34:134,-0.201,-0.837,0.527,-133.851,26.123,9.399,
00:00:34:150,-0.25,-0.789,0.538,-88.257,46.264,-2.625,
00:00:34:167,-0.269,-0.757,0.576,19.592,89.111,-18.86,
00:00:34:184,-0.265,-0.773,0.6,112.548,148.498,-24.842,
00:00:34:200,-0.234,-0.811,0.588,161.499,195.129,-32.593,
00:00:34:217,-0.187,-0.869,0.579,174.743,223.449,-52.918,
00:00:34:234,-0.131,-0.893,0.583,163.452,237.854,-61.036,
00:00:34:250,-0.105,-0.844,0.586,143.493,232.544,-55.176,
00:00:34:267,-0.119,-0.828,0.595,169.616,229.492,-60.303,
00:00:34:284,-0.115,-0.798,0.633,265.747,257.507,-32.227,
00:00:34:300,-0.08,-0.809,0.665,362.609,303.039,-52.247,
00:00:34:317,-0.019,-0.846,0.646,458.618,337.585,-80.506,
00:00:34:334,0.022,-0.903,0.613,498.23,337.524,-106.873,
00:00:34:350,0.024,-0.938,0.558,502.868,321.716,-115.479,
00:00:34:367,0.019,-0.966,0.542,490.539,304.26,-113.221,
00:00:34:384,0.03,-0.97,0.521,428.894,296.081,-113.648,
00:00:34:400,0.067,-1.014,0.565,270.202,380.066,-15.625,
00:00:34:417,0.074,-0.903,0.449,277.954,334.411,-62.867,
00:00:34:434,0.077,-0.862,0.473,312.5,267.639,-115.784,
00:00:34:450,0.042,-0.871,0.443,312.622,253.479,-138.489,
00:00:34:467,0.015,-0.927,0.448,271.789,244.629,-179.627,
00:00:34:484,0.001,-0.938,0.461,194.58,256.713,-195.252,
00:00:34:500,-0.002,-0.906,0.457,249.572,248.352,-221.436,
00:00:34:517,0.015,-0.91,0.473,558.838,320.251,-129.761,
00:00:34:534,-0.032,-0.952,0.448,448.303,124.45,-336.731,
00:00:34:550,-0.06,-1.008,0.428,458.923,213.745,-235.84,
00:00:34:567,-0.038,-1.057,0.418,283.325,300.232,-112.61,
00:00:34:584,0.044,-1.037,0.413,208.557,191.101,-150.94,
00:00:34:600,0.069,-1.042,0.445,136.596,114.013,-114.502,
00:00:34:617,0.024,-1.028,0.475,40.283,21.179,-119.507,
00:00:34:634,-0.05,-1.004,0.477,-66.773,-19.165,-140.503,
00:00:34:650,-0.081,-0.954,0.471,-127.32,-37.537,-160.706,
00:00:34:667,-0.079,-0.927,0.462,-153.199,-59.327,-163.697,
00:00:34:684,-0.056,-0.898,0.47,-136.536,-89.722,-152.1,
00:00:34:700,-0.05,-0.913,0.442,-123.719,-141.846,-120.24,
00:00:34:717,-0.061,-0.884,0.466,-129.029,-197.144,-81.482,
00:00:34:734,-0.12,-0.857,0.463,-160.035,-264.039,-83.252,
00:00:34:750,-0.221,-0.851,0.448,-194.458,-323.365,-84.595,
00:00:34:767,-0.278,-0.836,0.48,-191.04,-332.154,-57.862,
00:00:34:784,-0.273,-0.844,0.512,-163.575,-310.12,-26.368,
00:00:34:800,-0.236,-0.867,0.518,-141.846,-314.82,12.023,
00:00:34:817,-0.228,-0.869,0.516,-149.109,-366.761,33.325,
00:00:34:834,-0.293,-0.87,0.478,-160.767,-420.411,50.842,
00:00:34:850,-0.363,-0.871,0.447,-168.519,-437.073,60.302,
00:00:34:867,-0.416,-0.935,0.42,-216.919,-430.664,55.358,
00:00:34:884,-0.402,-0.922,0.439,-255.127,-390.137,80.749,
00:00:34:900,-0.386,-0.858,0.467,-241.7,-380.555,112.365,
00:00:34:917,-0.391,-0.837,0.476,-154.969,-346.436,103.637,
00:00:34:934,-0.397,-0.888,0.45,-99.122,-292.298,87.829,
00:00:34:950,-0.401,-0.915,0.364,-90.882,-260.315,94.299,
00:00:34:967,-0.437,-0.931,0.34,-110.657,-254.334,104.919,
00:00:34:984,-0.379,-0.941,0.369,-176.636,-249.268,97.717,
00:00:35:0,-0.394,-0.898,0.401,-237.061,-236.939,86.731,
00:00:35:17,-0.383,-0.847,0.369,-204.834,-232.422,93.811,
00:00:35:34,-0.376,-0.818,0.368,-81.543,-247.376,125.061,
00:00:35:50,-0.405,-0.84,0.371,-26.123,-253.113,149.109,
