TIMECODE,ACC_X,ACC_Y,ACC_Z,GYR_X,GYR_Y,GYR_Z,TAG
00:00:00:0,-0.137,-0.772,0.675,1.037,-59.388,-41.443,
00:00:00:16,-0.178,-0.704,0.625,45.227,-44.617,-26.185,
00:00:00:33,-0.211,-0.733,0.606,65.002,-25.391,-30.03,
00:00:00:50,-0.222,-0.783,0.605,20.446,11.352,-11.17,
00:00:00:66,-0.21,-0.772,0.601,-3.724,37.536,-1.587,
00:00:00:83,-0.186,-0.785,0.617,2.868,31.25,-1.282,
00:00:00:100,-0.165,-0.823,0.633,8.361,42.785,-10.804,
00:00:00:116,-0.147,-0.821,0.638,21.972,21.118,-26.123,
00:00:00:133,-0.154,-0.819,0.643,14.709,5.065,-28.016,
00:00:00:150,-0.171,-0.806,0.635,11.169,4.15,-34.241,
00:00:00:166,-0.169,-0.791,0.622,-14.466,28.93,-34.424,
00:00:00:183,-0.161,-0.771,0.612,-31.373,36.315,-33.448,
00:00:00:200,-0.162,-0.752,0.6,-14.222,23.864,-29.419,
00:00:00:216,-0.175,-0.774,0.614,15.625,11.169,-37.354,
00:00:00:233,-0.182,-0.803,0.625,26.794,12.695,-31.983,
00:00:00:250,-0.181,-0.805,0.616,34.484,10.131,-29.114,
00:00:00:266,-0.174,-0.785,0.61,25.94,10.498,-24.17,
00:00:00:283,-0.17,-0.769,0.619,36.56,1.648,-40.589,
00:00:00:300,-0.166,-0.786,0.65,39.672,-9.4,-41.504,
00:00:00:316,-0.158,-0.806,0.672,50.781,-20.508,-42.42,
00:00:00:333,-0.153,-0.806,0.665,58.898,-29.358,-39.307,
00:00:00:350,-0.16,-0.784,0.65,60.302,-33.509,-36.133,
00:00:00:366,-0.172,-0.756,0.638,81.298,-36.866,-39.856,
00:00:00:383,-0.195,-0.765,0.625,92.956,-30.945,-26.429,
00:00:00:400,-0.21,-0.816,0.616,110.839,-21.973,-20.569,
00:00:00:416,-0.2,-0.845,0.614,69.152,5.798,2.136,
00:00:00:433,-0.184,-0.808,0.601,42.175,16.906,13.671,
00:00:00:450,-0.176,-0.784,0.607,50.903,14.587,16.723,
00:00:00:466,-0.178,-0.806,0.621,40.466,14.648,11.657,
00:00:00:483,-0.183,-0.838,0.634,30.029,28.32,7.69,
00:00:00:500,-0.172,-0.845,0.625,5.065,45.898,4.028,
00:00:00:516,-0.162,-0.839,0.613,-23.011,44.555,1.892,
00:00:00:533,-0.163,-0.827,0.604,-43.152,42.968,4.089,
00:00:00:550,-0.169,-0.808,0.585,-15.931,35.278,-4.944,
00:00:00:566,-0.178,-0.815,0.603,-37.049,35.644,5.92,
00:00:00:583,-0.174,-0.81,0.599,-37.903,49.011,-4.029,
00:00:00:600,-0.163,-0.817,0.608,-30.274,51.269,-11.597,
00:00:00:616,-0.16,-0.82,0.611,-28.687,42.541,-23.255,
00:00:00:633,-0.161,-0.822,0.637,-29.175,36.56,-29.725,
00:00:00:650,-0.159,-0.812,0.642,-33.448,41.809,-31.556,
00:00:00:666,-0.146,-0.777,0.633,-23.621,37.841,-32.593,
00:00:00:683,-0.148,-0.758,0.619,6.469,18.859,-36.377,
00:00:00:700,-0.164,-0.787,0.62,11.535,12.573,-33.57,
00:00:00:716,-0.177,-0.797,0.605,8.483,27.465,-31.006,
00:00:00:733,-0.172,-0.808,0.613,5.31,35.278,-28.443,
00:00:00:750,-0.157,-0.811,0.613,-2.686,40.71,-24.292,
00:00:00:766,-0.15,-0.816,0.622,-11.719,24.902,-23.865,
00:00:00:783,-0.151,-0.802,0.619,1.586,15.625,-21.424,
00:00:00:800,-0.159,-0.8,0.617,11.84,12.573,-23.56,
00:00:00:816,-0.163,-0.806,0.609,6.652,18.92,-21.79,
00:00:00:833,-0.163,-0.824,0.613,0.793,22.277,-21.363,
00:00:00:850,-0.157,-0.811,0.627,-14.344,20.446,-18.799,
00:00:00:866,-0.152,-0.797,0.636,-10.743,18.31,-18.494,
00:00:00:883,-0.151,-0.788,0.631,-2.259,9.643,-17.579,
00:00:00:900,-0.156,-0.779,0.632,11.901,1.892,-18.738,
00:00:00:916,-0.158,-0.787,0.629,29.968,-0.611,-18.799,
00:00:00:933,-0.158,-0.794,0.619,29.357,5.004,-17.029,
00:00:00:950,-0.157,-0.803,0.611,26.428,2.929,-16.053,
00:00:00:966,-0.166,-0.813,0.621,22.888,4.028,-17.884,
00:00:00:983,-0.166,-0.813,0.625,13.183,15.075,-18.616,
00:00:01:0,-0.158,-0.808,0.619,0.488,20.263,-19.837,
00:00:01:16,-0.149,-0.801,0.619,-2.015,16.662,-17.518,
00:00:01:33,-0.148,-0.79,0.616,7.08,6.042,-15.564,
00:00:01:50,-0.166,-0.818,0.617,20.996,-3.052,-15.87,
00:00:01:66,-0.17,-0.813,0.625,14.709,9.704,-13.55,
00:00:01:83,-0.155,-0.796,0.615,7.873,26.611,-16.053,
00:00:01:100,-0.146,-0.803,0.625,11.108,15.991,-31.128,
00:00:01:116,-0.146,-0.801,0.619,12.207,9.887,-16.358,
00:00:01:133,-0.155,-0.804,0.621,13.549,-0.367,-17.151,
00:00:01:150,-0.16,-0.801,0.594,16.235,2.868,-17.395,
00:00:01:166,-0.16,-0.802,0.618,15.38,8.789,-17.273,
00:00:01:183,-0.157,-0.809,0.615,19.714,7.873,-16.968,
00:00:01:200,-0.157,-0.808,0.625,16.479,9.338,-17.945,
00:00:01:216,-0.152,-0.809,0.62,17.211,10.925,-17.823,
00:00:01:233,-0.153,-0.812,0.618,12.329,3.784,-17.579,
00:00:01:250,-0.153,-0.805,0.62,9.643,5.981,-17.64,
00:00:01:266,-0.158,-0.807,0.613,10.559,2.746,-18.433,
00:00:01:283,-0.159,-0.809,0.619,11.84,7.263,-18.494,
00:00:01:300,-0.156,-0.808,0.612,8.728,13.732,-18.738,
00:00:01:316,-0.156,-0.816,0.618,9.582,13,-21.912,
00:00:01:333,-0.154,-0.818,0.625,5.798,18.432,-21.241,
00:00:01:350,-0.149,-0.809,0.62,1.281,11.962,-19.104,
00:00:01:366,-0.151,-0.797,0.616,2.929,6.469,-19.898,
00:00:01:383,-0.159,-0.795,0.617,4.821,5.493,-20.997,
00:00:01:400,-0.161,-0.815,0.622,9.643,7.141,-22.889,
00:00:01:416,-0.155,-0.812,0.623,4.943,17.639,-21.424,
00:00:01:433,-0.141,-0.806,0.62,4.211,12.512,-21.058,
00:00:01:450,-0.145,-0.803,0.61,7.263,2.38,-21.973,
00:00:01:466,-0.153,-0.804,0.614,8.117,-2.808,-21.973,
00:00:01:483,-0.156,-0.806,0.614,4.028,5.92,-22.522,
00:00:01:500,-0.157,-0.807,0.617,7.385,5.92,-21.912,
00:00:01:516,-0.154,-0.812,0.617,7.263,5.065,-20.325,
00:00:01:533,-0.16,-0.82,0.613,10.131,1.281,-24.231,
00:00:01:550,-0.154,-0.81,0.62,-2.076,11.718,-21.607,
00:00:01:566,-0.15,-0.807,0.62,-1.954,7.324,-23.316,
00:00:01:583,-0.153,-0.804,0.617,-0.123,2.258,-21.424,
00:00:01:600,-0.154,-0.803,0.616,-0.245,1.403,-22.767,
00:00:01:616,-0.16,-0.808,0.616,3.54,-0.184,-22.889,
00:00:01:633,-0.16,-0.814,0.622,1.464,3.479,-25.269,
00:00:01:650,-0.155,-0.807,0.617,-8.484,11.84,-24.537,
00:00:01:666,-0.15,-0.806,0.615,-5.555,6.469,-25.208,
00:00:01:683,-0.157,-0.803,0.624,-4.09,6.103,-25.94,
00:00:01:700,-0.16,-0.805,0.622,-2.625,6.591,-26.978,
00:00:01:716,-0.157,-0.801,0.62,-2.32,9.399,-24.048,
00:00:01:733,-0.155,-0.795,0.619,14.648,4.882,-22.767,
00:00:01:750,-0.165,-0.804,0.621,7.141,6.103,-25.269,
00:00:01:766,-0.163,-0.808,0.63,7.934,12.329,-22.95,
00:00:01:783,-0.151,-0.804,0.619,7.507,14.038,-22.95,
00:00:01:800,-0.149,-0.8,0.619,7.202,1.586,-22.278,
00:00:01:816,-0.159,-0.807,0.622,10.742,-0.55,-23.072,
00:00:01:833,-0.163,-0.81,0.624,4.76,5.188,-21.79,
00:00:01:850,-0.158,-0.809,0.619,-1.465,14.77,-24.659,
00:00:01:866,-0.151,-0.809,0.614,-3.846,12.817,-23.438,
00:00:01:883,-0.148,-0.802,0.615,-3.174,5.371,-25.574,
00:00:01:900,-0.161,-0.805,0.611,-3.602,-0.245,-27.71,
00:00:01:916,-0.164,-0.808,0.625,-8.362,7.446,-29.541,
00:00:01:933,-0.161,-0.807,0.626,-10.437,14.648,-28.321,
00:00:01:950,-0.156,-0.801,0.655,-7.142,12.817,-26.123,
00:00:01:966,-0.157,-0.795,0.621,-4.761,5.859,-26.673,
00:00:01:983,-0.159,-0.796,0.616,-0.977,5.249,-25.513,
00:00:02:0,-0.162,-0.803,0.619,2.136,8.606,-24.17,
00:00:02:16,-0.16,-0.806,0.623,-0.306,12.329,-25.208,
00:00:02:33,-0.154,-0.809,0.623,-4.151,14.099,-22.339,
00:00:02:50,-0.152,-0.803,0.62,-6.714,6.408,-24.353,
00:00:02:66,-0.159,-0.803,0.627,-7.813,1.586,-24.903,
00:00:02:83,-0.165,-0.805,0.623,-8.545,6.164,-26.795,
00:00:02:100,-0.163,-0.801,0.625,-11.719,11.474,-26.49,
00:00:02:116,-0.157,-0.8,0.627,-15.137,15.441,-26.49,
00:00:02:133,-0.153,-0.799,0.626,-12.513,11.657,-26.429,
00:00:02:150,-0.153,-0.792,0.628,-10.01,6.408,-25.33,
00:00:02:166,-0.161,-0.789,0.628,-0.855,1.22,-26.307,
00:00:02:183,-0.162,-0.796,0.631,4.028,4.15,-24.903,
00:00:02:200,-0.162,-0.797,0.63,8.728,7.507,-24.292,
00:00:02:216,-0.188,-0.807,0.63,4.089,5.676,-25.208,
00:00:02:233,-0.154,-0.798,0.624,-0.794,2.136,-22.889,
00:00:02:250,-0.158,-0.791,0.621,0.915,-0.916,-23.682,
00:00:02:266,-0.166,-0.797,0.62,6.897,2.258,-25.452,
00:00:02:283,-0.169,-0.803,0.627,3.601,7.873,-25.757,
00:00:02:300,-0.166,-0.805,0.635,-0.794,11.84,-24.659,
00:00:02:316,-0.158,-0.799,0.63,-2.869,11.657,-23.743,
00:00:02:333,-0.154,-0.794,0.631,-2.808,6.286,-24.598,
00:00:02:350,-0.167,-0.797,0.622,6.958,0,-25.757,
00:00:02:366,-0.165,-0.795,0.628,1.586,3.112,-25.147,
00:00:02:383,-0.161,-0.795,0.622,3.479,8.056,-22.583,
00:00:02:400,-0.158,-0.796,0.618,2.014,8.85,-22.522,
00:00:02:416,-0.159,-0.801,0.623,4.272,7.446,-22.644,
00:00:02:433,-0.162,-0.802,0.624,5.004,6.042,-21.668,
00:00:02:450,-0.166,-0.801,0.628,-1.16,8.239,-21.912,
00:00:02:466,-0.164,-0.796,0.63,-2.625,11.596,-22.828,
00:00:02:483,-0.164,-0.792,0.636,-2.381,13.305,-22.4,
00:00:02:500,-0.161,-0.79,0.631,0.61,11.657,-21.546,
00:00:02:516,-0.163,-0.787,0.63,5.127,5.065,-21.241,
00:00:02:533,-0.166,-0.789,0.626,10.62,3.418,-22.217,
00:00:02:550,-0.17,-0.797,0.618,11.23,10.009,-21.973,
00:00:02:566,-0.17,-0.804,0.623,5.798,13.427,-20.447,
00:00:02:583,-0.161,-0.804,0.632,-0.733,19.958,-17.456,
00:00:02:600,-0.158,-0.801,0.635,-4.761,16.967,-21.668,
00:00:02:616,-0.153,-0.791,0.635,-4.639,13.61,-21.241,
00:00:02:633,-0.159,-0.784,0.631,3.418,4.943,-22.4,
00:00:02:650,-0.163,-0.784,0.631,7.812,5.127,-21.058,
00:00:02:666,-0.168,-0.79,0.63,11.718,7.141,-21.18,
00:00:02:683,-0.167,-0.797,0.633,11.291,15.502,-18.86,
00:00:02:700,-0.156,-0.799,0.63,6.469,19.043,-17.212,
00:00:02:716,-0.153,-0.797,0.593,9.765,12.878,-19.288,
00:00:02:733,-0.157,-0.789,0.619,10.681,6.591,-19.288,
00:00:02:750,-0.162,-0.782,0.618,13.305,7.629,-15.809,
00:00:02:766,-0.166,-0.795,0.625,18.676,9.277,-17.334,
00:00:02:783,-0.167,-0.795,0.637,16.723,14.953,-12.757,
00:00:02:800,-0.156,-0.8,0.639,16.357,15.136,-13.611,
00:00:02:816,-0.153,-0.795,0.63,20.019,7.568,-13.672,
00:00:02:833,-0.16,-0.796,0.627,25.268,2.441,-15.992,
00:00:02:850,-0.164,-0.803,0.62,22.338,6.469,-16.053,
00:00:02:866,-0.164,-0.804,0.616,15.197,13,-16.48,
00:00:02:883,-0.159,-0.803,0.613,5.676,18.371,-14.161,
00:00:02:900,-0.161,-0.8,0.616,1.464,17.944,-13.184,
00:00:02:916,-0.159,-0.796,0.62,-1.038,22.827,-9.827,
00:00:02:933,-0.155,-0.791,0.615,-4.822,25.39,-10.132,
00:00:02:950,-0.157,-0.792,0.61,0.671,19.348,-11.658,
00:00:02:966,-0.167,-0.799,0.622,58.044,1.892,-7.203,
00:00:02:983,-0.161,-0.815,0.613,24.902,29.419,-10.865,
00:00:03:0,-0.157,-0.804,0.603,-20.935,49.438,-13.123,
00:00:03:16,-0.164,-0.827,0.609,-65.674,49.316,-9.705,
00:00:03:33,-0.166,-0.838,0.636,-108.094,52.917,-3.174,
00:00:03:50,-0.156,-0.802,0.64,-101.563,68.237,-1.343,
00:00:03:66,-0.141,-0.77,0.631,-93.628,67.077,-1.16,
00:00:03:83,-0.137,-0.771,0.65,-54.871,51.696,-6.653,
00:00:03:100,-0.134,-0.763,0.658,4.882,31.494,-15.259,
00:00:03:116,-0.134,-0.773,0.666,11.535,23.742,-11.902,
00:00:03:133,-0.133,-0.787,0.666,10.253,25.695,-6.836,
00:00:03:150,-0.13,-0.792,0.664,-1.343,24.658,-8.973,
00:00:03:166,-0.135,-0.796,0.646,-9.339,19.043,-8.24,
00:00:03:183,-0.139,-0.784,0.636,-4.151,12.695,-9.156,
00:00:03:200,-0.143,-0.782,0.63,-7.447,18.371,-8.973,
00:00:03:216,-0.141,-0.781,0.635,1.525,23.864,-10.621,
00:00:03:233,-0.137,-0.776,0.634,17.7,22.461,-9.522,
00:00:03:250,-0.137,-0.772,0.631,23.437,20.141,-5.127,
00:00:03:266,-0.136,-0.761,0.628,26.611,21.667,-0.428,
00:00:03:283,-0.135,-0.762,0.636,31.616,24.78,2.624,
00:00:03:300,-0.137,-0.764,0.636,38.757,24.169,5.981,
00:00:03:316,-0.143,-0.777,0.635,29.724,27.648,16.54,
00:00:03:333,-0.138,-0.792,0.628,16.235,35.034,20.629,
00:00:03:350,-0.131,-0.786,0.613,19.043,42.053,27.771,
00:00:03:366,-0.144,-0.736,0.609,-29.847,41.687,57.434,
00:00:03:383,-0.161,-0.79,0.58,-65.674,43.029,88.806,
00:00:03:400,-0.146,-0.857,0.713,-210.206,75.683,117.065,
00:00:03:416,-0.122,-0.858,0.675,-167.847,61.889,172.119,
00:00:03:433,-0.085,-0.844,0.698,-152.955,110.778,213.195,
00:00:03:450,-0.07,-0.752,0.74,-149.903,118.957,180.175,
00:00:03:466,-0.066,-0.788,0.766,-64.026,93.383,171.692,
00:00:03:483,-0.088,-0.926,0.798,26.916,70.495,169.555,
00:00:03:500,-0.106,-1.082,0.875,157.592,45.166,169.677,
00:00:03:516,-0.199,-1.098,0.93,581.054,-55.603,8.361,
00:00:03:533,-0.151,-1.052,1.479,978.82,-168.274,-224.549,
00:00:03:550,-0.118,-1.169,1.624,1087.341,-211.06,-365.784,
00:00:03:566,0.03,-1.395,1.328,1743.347,-353.76,-468.323,
00:00:03:583,-0.026,-1.923,1.34,1912.658,-804.383,-159.058,
00:00:03:600,-0.375,-3.109,0.794,1217.407,-685.791,-261.841,
00:00:03:616,-0.13,-3.843,0.351,-59.082,90.515,-680.481,
00:00:03:633,0.99,-3.775,-0.181,-1415.65,876.648,-1723.694,
00:00:03:650,1.625,-2.803,-0.423,-1733.704,-38.269,-2000,
00:00:03:666,0.876,-2.166,-0.046,-1178.956,-1118.103,-2000,
00:00:03:683,0.474,-2.014,0.184,-843.384,-1144.959,-2000,
00:00:03:700,0.6,-1.824,0.012,-1128.052,-753.235,-2000,
00:00:03:716,1.319,-1.097,-0.159,-1667.42,-518.494,-2000,
00:00:03:733,1.723,-0.196,-0.548,-1993.653,-643.616,-2000,
00:00:03:750,1.719,0.861,-0.797,-1996.827,-986.939,-2000,
00:00:03:766,1.608,1.412,-0.554,-1554.383,-1280.579,-2000,
00:00:03:783,1.558,1.419,-1.178,-619.507,-338.807,-2000,
00:00:03:800,1.453,2.248,-0.641,-2000,349.731,-832.947,
00:00:03:816,1.007,3.999,-0.427,-1505.494,817.505,1831.176,
00:00:03:833,0.934,2.611,0.164,584.838,1226.074,1999.694,
00:00:03:850,0.924,1.408,-0.187,1876.403,1541.565,1999.694,
00:00:03:866,0.838,1.131,-0.567,1999.694,981.872,1999.694,
00:00:03:883,0.632,0.942,-0.846,1999.694,526.062,1999.694,
00:00:03:900,0.433,0.496,-0.825,1999.694,85.327,1999.694,
00:00:03:916,0.341,-0.146,-0.455,1999.694,-348.999,1999.694,
00:00:03:933,0.265,-1.273,0.061,1850.647,-438.355,1999.694,
00:00:03:950,0.019,-2.515,0.163,1127.746,-286.805,1999.694,
00:00:03:966,-0.394,-2.454,0.311,628.112,-333.863,1999.694,
00:00:03:983,-0.731,-1.295,-0.235,-322.327,-324.036,1999.694,
00:00:04:0,-0.654,-0.686,-0.672,-670.289,194.091,1999.694,
00:00:04:16,0.129,-1.181,0.418,-242.798,1515.319,1999.694,
00:00:04:33,1.924,-3.549,0.927,-847.29,1023.071,1244.567,
00:00:04:50,0.552,-3.271,1.158,-659.058,625.427,745.849,
00:00:04:66,-0.537,-1.379,0.707,604.919,29.602,-29.847,
00:00:04:83,-0.527,-1.252,0.694,645.813,147.033,-52.918,
00:00:04:100,-0.346,-1.099,0.803,436.767,237.243,-54.871,
00:00:04:116,-0.21,-0.92,0.848,139.526,268.982,10.559,
00:00:04:133,-0.141,-0.796,0.804,-153.626,246.704,20.874,
00:00:04:150,-0.192,-0.799,0.679,-290.833,187.072,-27.466,
00:00:04:166,-0.332,-0.97,0.635,-293.58,100.097,-24.414,
00:00:04:183,-0.44,-1.101,0.699,-311.829,151.794,42.175,
00:00:04:200,-0.375,-1.051,0.666,-616.15,410.705,169.494,
00:00:04:216,-0.207,-0.839,0.591,-784.852,602.172,199.463,
00:00:04:233,-0.008,-0.662,0.614,-750.428,621.826,164.489,
00:00:04:250,0.155,-0.689,0.696,-643.067,519.714,110.168,
00:00:04:266,0.187,-0.772,0.703,-484.314,303.833,37.536,
00:00:04:283,0.102,-0.871,0.792,-326.172,80.81,-57.74,
00:00:04:300,-0.004,-0.856,0.829,-269.593,45.959,-92.225,
00:00:04:316,0.027,-0.646,0.64,-238.709,95.947,-52.857,
00:00:04:333,0.062,-0.712,0.615,-159.058,-14.405,-75.44,
00:00:04:350,-0.007,-0.727,0.622,-123.963,-148.743,-43.03,
00:00:04:366,-0.116,-0.714,0.671,-40.345,-195.557,-21.668,
00:00:04:383,-0.145,-0.723,0.754,-63.477,-112.061,-16.968,
00:00:04:400,-0.083,-0.709,0.744,-136.78,30.639,-12.757,
00:00:04:416,0.005,-0.645,0.703,-114.136,63.415,-2.564,
00:00:04:433,0.074,-0.595,0.734,-36.316,-1.954,-15.686,
00:00:04:450,0.075,-0.658,0.699,131.775,-95.459,-70.008,
00:00:04:466,0.016,-0.757,0.694,255.92,-174.744,-89.356,
00:00:04:483,-0.047,-0.879,0.748,260.07,-221.619,-68.055,
00:00:04:500,-0.087,-0.907,0.775,142.028,-164.673,-24.353,
00:00:04:516,-0.095,-0.857,0.761,71.594,-132.019,-14.1,
00:00:04:533,-0.044,-0.791,0.78,77.27,-97.718,-6.775,
00:00:04:550,-0.022,-0.751,0.727,141.784,-114.014,-24.109,
00:00:04:566,-0.034,-0.819,0.668,247.68,-165.345,-122.071,
00:00:04:583,-0.129,-0.926,0.753,-62.928,-122.559,-94.239,
00:00:04:600,-0.102,-0.845,0.741,-162.171,-97.474,-114.624,
00:00:04:616,-0.099,-0.724,0.635,-81.36,-111.939,-157.959,
00:00:04:633,-0.105,-0.683,0.613,117.553,-164.551,-189.148,
00:00:04:650,-0.141,-0.717,0.602,287.78,-228.333,-211.792,
00:00:04:666,-0.21,-0.762,0.631,329.895,-267.151,-214.051,
00:00:04:683,-0.253,-0.805,0.72,340.332,-255.616,-227.539,
00:00:04:700,-0.245,-0.806,0.671,358.52,-175.354,-259.278,
00:00:04:716,-0.189,-0.754,0.558,434.814,-91.675,-279.664,
00:00:04:733,-0.14,-0.798,0.498,533.264,-70.923,-338.623,
00:00:04:750,-0.208,-0.885,0.489,604.065,-173.401,-351.563,
00:00:04:766,-0.323,-0.941,0.564,503.051,-208.252,-307.496,
00:00:04:783,-0.394,-0.915,0.581,310.73,-88.562,-250.733,
00:00:04:800,-0.388,-0.811,0.535,151.489,-0.184,-262.085,
00:00:04:816,-0.344,-0.702,0.444,226.989,12.939,-283.204,
00:00:04:833,-0.327,-0.713,0.431,432.556,-61.585,-300.538,
00:00:04:850,-0.356,-0.81,0.453,545.715,-102.967,-310.73,
00:00:04:866,-0.393,-0.896,0.497,445.434,-76.539,-307.435,
00:00:04:883,-0.42,-0.887,0.529,365.173,-42.969,-289.368,
00:00:04:900,-0.419,-0.731,0.442,380.31,-14.771,-265.992,
00:00:04:916,-0.419,-0.651,0.311,577.087,-32.959,-265.015,
00:00:04:933,-0.416,-0.696,0.332,829.528,-83.435,-250.977,
00:00:04:950,-0.423,-0.784,0.423,829.651,-77.942,-229.493,
00:00:04:966,-0.449,-0.853,0.376,638.305,-30.152,-213.501,
00:00:04:983,-0.455,-0.877,0.373,575.683,7.08,-218.628,
00:00:05:0,-0.437,-0.851,0.337,593.567,41.626,-213.501,
00:00:05:16,-0.41,-0.826,0.279,627.197,45.166,-200.562,
00:00:05:33,-0.416,-0.858,0.256,669.311,9.704,-182.129,
00:00:05:50,-0.441,-0.822,0.262,711.975,-7.569,-177.124,
00:00:05:66,-0.462,-0.854,0.275,546.447,5.004,-120.301,
00:00:05:83,-0.473,-1.058,0.213,297.058,61.645,-112.427,
00:00:05:100,-0.466,-1.064,0.195,123.047,91.919,-78.003,
00:00:05:116,-0.446,-0.953,0.235,-57.557,127.99,-29.358,
00:00:05:133,-0.412,-0.839,0.254,-105.164,138.061,-0.306,
00:00:05:150,-0.365,-0.743,0.233,-64.087,135.07,24.841,
00:00:05:166,-0.358,-0.735,0.142,-1.465,68.298,25.94,
00:00:05:183,-0.376,-0.863,0.131,68.786,32.043,18.127,
00:00:05:200,-0.423,-0.977,0.157,95.275,0.366,-24.781,
00:00:05:216,-0.406,-1.068,0.207,49.743,92.346,-8.301,
00:00:05:233,-0.386,-0.99,0.111,56.03,80.566,-47.059,
00:00:05:250,-0.372,-0.927,0.174,80.81,81.42,-30.152,breakEggLH
00:00:05:266,-0.299,-1.014,0.256,104.187,70.312,-28.382,
00:00:05:283,-0.263,-0.832,0.291,56.762,-68.177,43.457,
00:00:05:300,-0.337,-0.884,0.251,-37.354,-211.731,1.22,
00:00:05:316,-0.446,-0.924,0.215,48.767,-216.065,-4.822,
00:00:05:333,-0.512,-0.961,0.166,43.762,-140.87,23.681,
00:00:05:350,-0.494,-0.938,0.195,69.152,-50.415,37.719,
00:00:05:366,-0.455,-0.916,0.135,17.7,-8.423,64.575,
00:00:05:383,-0.435,-0.889,0.163,-2.381,-38.758,65.795,
00:00:05:400,-0.44,-0.888,0.241,109.13,-42.725,66.711,
00:00:05:416,-0.432,-0.918,0.317,74.646,3.418,60.18,
00:00:05:433,-0.441,-1.021,0.213,-28.138,5.127,-1.16,
00:00:05:450,-0.443,-1.059,0.212,13.488,-8.789,-10.132,
00:00:05:466,-0.446,-1,0.233,2.868,-34.058,-10.437,
00:00:05:483,-0.448,-0.953,0.249,-15.686,-59.998,-10.926,
00:00:05:500,-0.42,-0.865,0.327,20.935,-42.542,10.376,
00:00:05:516,-0.376,-0.797,0.268,13.488,-36.255,-10.682,
00:00:05:533,-0.363,-0.858,0.085,128.601,-66.407,-63.843,
00:00:05:550,-0.38,-0.921,0.045,288.208,-122.742,-91.553,
00:00:05:566,-0.423,-1.056,0.099,296.814,-142.334,-74.036,
00:00:05:583,-0.457,-1.073,0.147,220.703,-123.536,-27.344,
00:00:05:600,-0.424,-0.937,0.221,74.707,-81.849,27.343,
00:00:05:616,-0.361,-0.832,0.171,18.798,-75.562,55.969,
00:00:05:633,-0.34,-0.792,0.134,46.386,-119.385,61.584,
00:00:05:650,-0.355,-0.876,0.061,141.723,-127.503,76.355,
00:00:05:666,-0.377,-1.027,-0.028,222.229,-104.798,99.06,
00:00:05:683,-0.404,-1.156,-0.06,140.38,-72.571,116.577,
00:00:05:700,-0.402,-1.225,-0.021,-2.076,16.296,122.314,
00:00:05:716,-0.361,-1.173,0.028,-183.655,84.655,43.457,
00:00:05:733,-0.342,-1.075,0.038,-294.373,66.04,-47.181,
00:00:05:750,-0.373,-1.085,-0.053,-239.197,53.283,-128.174,
00:00:05:766,-0.429,-1.187,-0.016,-104.432,52.612,-191.285,
00:00:05:783,-0.456,-1.111,0.079,-153.016,111.206,-222.413,
00:00:05:800,-0.447,-1.022,0.138,-226.075,144.592,-304.139,
00:00:05:816,-0.424,-0.919,0.195,-244.996,147.155,-350.953,
00:00:05:833,-0.424,-0.817,0.245,-259.339,138.977,-290.894,
00:00:05:850,-0.427,-0.763,0.226,-273.682,108.215,-241.578,
00:00:05:866,-0.417,-0.729,0.207,-241.944,115.234,-171.326,
00:00:05:883,-0.373,-0.67,0.253,-180.176,132.08,-80.14,
00:00:05:900,-0.319,-0.642,0.309,-142.945,95.703,-7.325,
00:00:05:916,-0.284,-0.652,0.355,-97.718,57.19,97.351,
00:00:05:933,-0.277,-0.69,0.377,-62.745,3.601,167.419,
00:00:05:950,-0.295,-0.736,0.329,-119.263,11.23,265.014,
00:00:05:966,-0.318,-0.777,0.197,-321.473,51.452,344.726,
00:00:05:983,-0.356,-0.711,0.074,-436.219,60.241,367.553,
00:00:06:0,-0.362,-0.657,0.131,-207.459,132.263,415.283,
00:00:06:16,-0.332,-0.878,0.199,66.406,185.852,493.957,
00:00:06:33,-0.304,-1.23,0.19,164.55,197.326,526.428,
00:00:06:50,-0.288,-1.406,0.108,116.15,159.057,398.376,
00:00:06:66,-0.271,-1.398,0.086,15.441,109.008,146.911,
00:00:06:83,-0.265,-1.538,0.379,-34.119,55.297,-110.474,
00:00:06:100,-0.259,-1.492,0.529,103.149,-68.97,-250.916,
00:00:06:116,-0.383,-1.212,0.385,-213.013,-218.14,-232.605,
00:00:06:133,-0.492,-0.995,0.379,-361.878,-230.347,-279.114,
00:00:06:150,-0.509,-0.806,0.378,-202.454,-151.246,-234.742,
00:00:06:166,-0.426,-0.757,0.37,-201.477,11.413,-165.101,
00:00:06:183,-0.333,-0.778,0.359,-331.116,67.443,-68.665,
00:00:06:200,-0.285,-0.8,0.344,-431.458,93.444,32.531,
00:00:06:216,-0.312,-0.804,0.203,-549.744,112.365,111.45,
00:00:06:233,-0.343,-0.774,0.157,-480.103,184.631,192.932,
00:00:06:250,-0.323,-0.663,0.263,-360.535,243.591,281.25,
00:00:06:266,-0.252,-0.713,0.299,-333.008,256.408,273.559,
00:00:06:283,-0.194,-0.966,0.255,-218.995,220.031,188.415,
00:00:06:300,-0.158,-1.135,0.554,62.805,36.621,27.16,
00:00:06:316,-0.198,-1.276,0.538,516.967,-175.171,-49.866,
00:00:06:333,-0.396,-1.382,0.352,16.174,-224.122,-131.409,
00:00:06:350,-0.523,-1.313,0.294,-157.471,-110.047,-247.437,
00:00:06:366,-0.507,-1.065,0.308,-221.863,62.5,-296.143,
00:00:06:383,-0.444,-0.946,0.347,-129.761,109.863,-374.207,
00:00:06:400,-0.42,-0.979,0.359,7.08,67.627,-377.808,
00:00:06:416,-0.478,-1.106,0.355,-90.882,38.208,-374.329,
00:00:06:433,-0.54,-1.05,0.368,-252.991,104.797,-406.006,
00:00:06:450,-0.547,-0.887,0.46,-400.208,200.988,-420.716,
00:00:06:466,-0.511,-0.715,0.409,-423.096,242.126,-398.865,
00:00:06:483,-0.507,-0.67,0.412,-299.073,201.599,-412.476,
00:00:06:500,-0.437,-0.772,0.441,12.39,113.83,-335.511,
00:00:06:516,-0.44,-0.688,0.512,73.974,130.493,-314.454,
00:00:06:533,-0.402,-0.642,0.517,177.429,127.807,-337.647,
00:00:06:550,-0.364,-0.646,0.486,283.874,90.454,-314.393,
00:00:06:566,-0.349,-0.679,0.427,346.496,53.466,-301.331,
00:00:06:583,-0.353,-0.754,0.465,393.798,19.775,-285.218,
00:00:06:600,-0.372,-0.771,0.435,368.347,-6.043,-248.658,
00:00:06:616,-0.385,-0.829,0.454,327.27,-23.255,-232.727,
00:00:06:633,-0.369,-0.775,0.444,230.346,-39.368,-190.369,
00:00:06:650,-0.355,-0.754,0.402,55.969,-70.862,-167.176,
00:00:06:666,-0.383,-0.766,0.354,-70.923,-124.817,-154.053,
00:00:06:683,-0.472,-0.786,0.349,-82.947,-159.18,-145.447,
00:00:06:700,-0.509,-0.748,0.408,-32.593,-124.146,-122.498,
00:00:06:716,-0.485,-0.685,0.398,-10.56,-49.805,-118.531,
00:00:06:733,-0.433,-0.743,0.463,-1.404,-13.977,-128.113,
00:00:06:750,-0.396,-0.801,0.422,56.884,-5.799,-140.076,
00:00:06:766,-0.398,-0.74,0.442,116.027,-40.406,-118.714,
00:00:06:783,-0.488,-0.735,0.381,145.263,-70.557,-133.118,
00:00:06:800,-0.543,-0.752,0.364,241.821,-29.908,-146.058,
00:00:06:816,-0.525,-0.761,0.328,276.733,7.446,-90.271,
00:00:06:833,-0.482,-0.864,0.386,261.352,43.701,-106.324,
00:00:06:850,-0.407,-0.937,0.353,109.924,67.565,-128.602,
00:00:06:866,-0.448,-0.942,0.337,-3.113,28.808,-116.394,
00:00:06:883,-0.487,-0.848,0.408,-57.129,20.629,-95.337,
00:00:06:900,-0.504,-0.763,0.447,-140.748,48.156,-60.791,
00:00:06:916,-0.511,-0.701,0.389,-143.555,65.49,-28.748,
00:00:06:933,-0.52,-0.732,0.401,-13.916,52.551,-34.363,
00:00:06:950,-0.524,-0.842,0.396,30.09,52.49,-19.043,
00:00:06:966,-0.5,-0.92,0.466,14.77,74.523,-4.761,
00:00:06:983,-0.478,-0.914,0.482,-204.468,80.261,19.47,
00:00:07:0,-0.492,-0.877,0.441,-334.412,52.124,12.085,
00:00:07:16,-0.531,-0.741,0.328,-298.401,29.296,-9.522,
00:00:07:33,-0.533,-0.66,0.404,-44.922,23.437,-0.611,
00:00:07:50,-0.501,-0.736,0.367,110.656,43.335,9.094,
00:00:07:66,-0.475,-0.888,0.348,146.667,25.085,-21.363,
00:00:07:83,-0.473,-0.958,0.424,72.815,2.014,-40.467,
00:00:07:100,-0.486,-0.947,0.462,-100.769,8.239,-39.734,
00:00:07:116,-0.508,-0.869,0.434,-177.185,9.46,-47.913,
00:00:07:133,-0.523,-0.809,0.418,-216.675,10.437,-47.547,
00:00:07:150,-0.525,-0.827,0.427,-215.943,27.16,-42.237,
00:00:07:166,-0.512,-0.825,0.456,-281.311,48.095,-27.283,
00:00:07:183,-0.508,-0.816,0.485,-282.959,21.85,-49.561,
00:00:07:200,-0.526,-0.795,0.503,-265.137,-2.93,-54.017,
00:00:07:216,-0.55,-0.803,0.464,-228.15,-33.814,-66.59,
00:00:07:233,-0.562,-0.783,0.423,-163.025,-32.044,-45.594,
00:00:07:250,-0.563,-0.814,0.413,-73.731,-25.33,-69.703,
00:00:07:266,-0.559,-0.809,0.444,-89.295,-22.644,-80.445,
00:00:07:283,-0.561,-0.814,0.481,-176.087,-6.47,-104.248,
00:00:07:300,-0.57,-0.847,0.462,-242.493,-6.409,-135.987,
00:00:07:316,-0.571,-0.833,0.486,-264.771,17.211,-146.607,
00:00:07:333,-0.537,-0.81,0.506,-344.971,79.406,-158.326,
00:00:07:350,-0.518,-0.825,0.435,-456.116,89.599,-153.138,
00:00:07:366,-0.544,-0.805,0.399,-529.236,36.987,-147.889,
00:00:07:383,-0.584,-0.71,0.413,-596.68,46.081,-124.451,
00:00:07:400,-0.599,-0.59,0.412,-546.753,94.055,-132.508,
00:00:07:416,-0.574,-0.517,0.468,-395.508,112.854,-132.019,
00:00:07:433,-0.539,-0.578,0.55,-298.462,107.238,-120.85,
00:00:07:450,-0.537,-0.641,0.542,-347.29,101.684,-110.413,
00:00:07:466,-0.542,-0.69,0.541,-477.295,134.643,-109.864,
00:00:07:483,-0.547,-0.583,0.525,-508.362,154.48,-86.487,
00:00:07:500,-0.544,-0.433,0.593,-438.05,146.85,-56.458,
00:00:07:516,-0.547,-0.391,0.628,-293.457,84.35,-60.914,
00:00:07:533,-0.547,-0.43,0.702,-171.265,55.053,-64.759,
00:00:07:550,-0.539,-0.452,0.715,-117.493,64.392,-45.227,
00:00:07:566,-0.537,-0.539,0.7,-101.929,45.227,-44.312,
00:00:07:583,-0.547,-0.599,0.708,-127.869,39.367,-34.668,
00:00:07:600,-0.549,-0.564,0.686,-200.562,62.194,-6.47,
00:00:07:616,-0.525,-0.47,0.654,-149.414,65.002,12.085,
00:00:07:633,-0.515,-0.426,0.666,5.615,1.22,5.249,
00:00:07:650,-0.523,-0.481,0.666,132.568,-34.241,2.929,
00:00:07:666,-0.553,-0.592,0.683,160.156,-55.726,-18.128,
00:00:07:683,-0.565,-0.658,0.703,61.096,-11.17,-0.916,
00:00:07:700,-0.561,-0.658,0.7,-50.782,12.878,-15.259,
00:00:07:716,-0.546,-0.631,0.681,-187.256,37.292,-15.931,
00:00:07:733,-0.532,-0.512,0.673,-200.135,51.086,-0.184,
00:00:07:750,-0.528,-0.437,0.647,-87.22,28.015,4.394,
00:00:07:766,-0.533,-0.437,0.666,28.991,-13.55,-10.56,
00:00:07:783,-0.535,-0.473,0.659,117.248,-21.363,-22.034,
00:00:07:800,-0.525,-0.479,0.676,142.7,-19.227,0.366,
00:00:07:816,-0.526,-0.484,0.666,152.954,-36.255,30.639,
00:00:07:833,-0.546,-0.481,0.64,186.096,-45.899,57.128,
00:00:07:850,-0.544,-0.449,0.619,276.977,-20.63,88.501,
00:00:07:866,-0.539,-0.454,0.603,427.978,-38.453,104.492,
00:00:07:883,-0.54,-0.494,0.568,564.27,-47.12,127.746,
00:00:07:900,-0.536,-0.528,0.526,690.857,-37.232,135.376,
00:00:07:916,-0.526,-0.597,0.51,703.308,-41.871,131.836,
00:00:07:933,-0.527,-0.712,0.562,668.274,-57.373,110.839,
00:00:07:950,-0.532,-0.791,0.584,524.658,-51.453,124.389,
00:00:07:966,-0.561,-0.886,0.567,408.813,-58.838,134.338,
00:00:07:983,-0.577,-0.919,0.518,376.77,-30.518,93.75,
00:00:08:0,-0.511,-0.799,0.52,410.156,27.404,122.558,
00:00:08:16,-0.483,-0.706,0.534,515.442,-38.025,56.762,
00:00:08:33,-0.496,-0.778,0.516,595.337,-71.595,-31.373,
00:00:08:50,-0.526,-0.911,0.443,561.584,-71.351,-63.721,
00:00:08:66,-0.558,-0.995,0.402,403.93,-53.528,-94.544,
00:00:08:83,-0.547,-0.892,0.433,266.235,-13.184,-103.638,
00:00:08:100,-0.528,-0.751,0.47,268.676,-0.733,-127.93,
00:00:08:116,-0.493,-0.679,0.471,366.76,-6.287,-128.418,
00:00:08:133,-0.488,-0.757,0.381,406.494,-38.941,-98.145,
00:00:08:150,-0.501,-0.822,0.327,378.112,-72.998,-100.464,
00:00:08:166,-0.516,-0.837,0.415,301.818,-48.157,-87.708,
00:00:08:183,-0.497,-0.818,0.53,114.868,-27.649,-37.293,
00:00:08:200,-0.475,-0.797,0.543,90.515,-59.632,-84.412,
00:00:08:216,-0.46,-0.813,0.426,158.081,-85.816,-65.125,
00:00:08:233,-0.48,-0.85,0.341,206.115,-142.945,-37.537,
00:00:08:250,-0.518,-0.836,0.382,178.833,-125.123,-25.269,
00:00:08:266,-0.524,-0.834,0.403,125.549,-61.341,-35.584,
00:00:08:283,-0.496,-0.837,0.322,161.682,-39.429,-79.59,
00:00:08:300,-0.459,-0.838,0.289,282.531,-59.51,-87.464,
00:00:08:316,-0.441,-0.848,0.341,294.311,-69.397,-20.02,
00:00:08:333,-0.437,-0.938,0.445,133.545,-102.784,-33.57,
00:00:08:350,-0.445,-0.917,0.494,-109.253,-118.226,0.183,
00:00:08:366,-0.448,-0.856,0.449,-310.364,-122.132,46.63,
00:00:08:383,-0.43,-0.726,0.463,-355.957,-119.202,83.19,
00:00:08:400,-0.411,-0.64,0.463,-317.505,-141.297,115.234,
00:00:08:416,-0.404,-0.597,0.396,-225.831,-177.857,164.428,
00:00:08:433,-0.414,-0.61,0.396,-152.955,-205.323,220.398,
00:00:08:450,-0.418,-0.622,0.377,-112.366,-199.097,260.681,
00:00:08:466,-0.396,-0.594,0.331,-77.942,-205.872,320.373,
00:00:08:483,-0.361,-0.642,0.332,-17.029,-200.44,383.667,
00:00:08:500,-0.313,-0.688,0.308,79.284,-175.171,434.692,
00:00:08:516,-0.289,-0.741,0.284,113.159,-220.581,466.369,
00:00:08:533,-0.296,-0.79,0.253,67.26,-275.879,493.896,
00:00:08:550,-0.331,-0.79,0.218,-8.728,-287.476,521.911,
00:00:08:566,-0.406,-0.735,0.178,-71.656,-342.286,528.137,
00:00:08:583,-0.503,-0.691,0.117,-58.716,-424.256,523.132,
00:00:08:600,-0.567,-0.715,0.055,138.733,-368.836,605.102,
00:00:08:616,-0.565,-0.817,0.081,405.883,-274.537,665.649,
00:00:08:633,-0.502,-0.99,0.092,466.308,-251.343,694.946,
00:00:08:650,-0.54,-1.153,0.133,351.44,-269.349,705.2,
00:00:08:666,-0.621,-1.222,0.179,105.224,-299.744,632.507,
00:00:08:683,-0.689,-1.149,0.202,-86.487,-213.501,559.204,
00:00:08:700,-0.693,-1.07,0.239,-93.934,-62.867,484.314,
00:00:08:716,-0.617,-1.145,0.078,109.436,-10.01,394.592,
00:00:08:733,-0.581,-1.277,0.121,189.087,-127.503,221.13,
00:00:08:750,-0.649,-1.431,0.087,52.612,67.565,482.605,
00:00:08:766,-0.465,-1.387,0.112,17.761,249.206,319.519,
00:00:08:783,-0.277,-1.277,0.172,-367.981,410.888,235.656,
00:00:08:800,-0.121,-1.096,0.205,-639.954,430.175,223.632,
00:00:08:816,-0.08,-0.921,0.247,-769.471,312.622,192.81,
00:00:08:833,-0.142,-0.837,0.278,-729.554,237.426,167.419,
00:00:08:850,-0.165,-0.906,0.286,-538.636,243.103,155.761,
00:00:08:866,-0.167,-1.015,0.374,-435.364,248.901,177.124,
00:00:08:883,-0.133,-1.101,0.37,-583.13,264.648,196.594,
00:00:08:900,-0.047,-1.061,0.424,-586.548,255.493,64.819,
00:00:08:916,0.035,-1.068,0.549,-433.228,183.349,-75.318,
00:00:08:933,0.005,-1.054,0.434,-312.012,-1.77,-89.844,
00:00:08:950,-0.146,-1.015,0.423,-388.794,-125.184,-68.36,
00:00:08:966,-0.251,-0.932,0.443,-474.488,-36.316,-80.445,
00:00:08:983,-0.238,-0.831,0.385,-391.114,108.032,-92.286,
00:00:09:0,-0.149,-0.768,0.441,-358.399,171.508,-59.266,
00:00:09:16,-0.087,-0.762,0.511,-325.745,132.263,-69.153,
00:00:09:33,-0.089,-0.814,0.559,-246.033,58.776,-96.558,
00:00:09:50,-0.12,-0.833,0.54,-168.946,4.638,-115.052,
00:00:09:66,-0.158,-0.79,0.553,-75.257,-15.32,-105.408,
00:00:09:83,-0.187,-0.815,0.534,-33.57,-15.198,-85.328,
00:00:09:100,-0.19,-0.851,0.507,35.461,11.84,-27.771,
00:00:09:116,-0.193,-0.833,0.544,81.97,15.197,19.043,
00:00:09:133,-0.183,-0.826,0.555,74.401,-3.479,10.62,
00:00:09:150,-0.191,-0.835,0.551,46.325,-20.081,-12.33,
00:00:09:166,-0.201,-0.842,0.546,84.716,-9.461,-12.269,
00:00:09:183,-0.196,-0.868,0.539,110.962,2.075,-13.611,
00:00:09:200,-0.177,-0.886,0.521,136.474,13.488,-15.503,
00:00:09:216,-0.164,-0.899,0.512,187.317,8.422,-13.123,
00:00:09:233,-0.165,-0.901,0.508,225.463,-13.062,-8.057,
00:00:09:250,-0.172,-0.878,0.434,283.325,-35.523,-25.025,breakEggLH
00:00:09:266,-0.172,-0.894,0.458,341.613,-60.059,-70.13,
00:00:09:283,-0.178,-1,0.439,515.869,-116.578,-189.759,
00:00:09:300,-0.221,-1.136,0.448,591.125,-176.758,-268.311,
00:00:09:316,-0.28,-1.237,0.41,811.035,-270.997,-424.805,
00:00:09:333,-0.322,-1.312,0.378,762.756,-237.854,-485.657,
00:00:09:350,-0.352,-1.264,0.315,602.417,-201.416,-589.905,
00:00:09:366,-0.378,-1.202,0.265,460.144,-129.517,-647.95,
00:00:09:383,-0.428,-1.038,0.251,421.02,-128.052,-701.294,
00:00:09:400,-0.405,-1.064,0.278,148.315,-98.755,-758.851,
00:00:09:416,-0.419,-0.885,0.288,286.865,-41.016,-701.966,
00:00:09:433,-0.399,-0.831,0.331,250,25.329,-627.625,
00:00:09:450,-0.382,-0.835,0.357,123.779,75.256,-527.894,
00:00:09:466,-0.379,-0.837,0.339,-4.883,113.891,-456.788,
00:00:09:483,-0.371,-0.775,0.313,-177.369,146.789,-394.776,
00:00:09:500,-0.357,-0.689,0.263,-284.913,150.146,-344.849,
00:00:09:516,-0.318,-0.641,0.244,-239.563,207.458,-263.489,
00:00:09:533,-0.277,-0.583,0.333,-104.92,167.48,-208.374,
00:00:09:550,-0.261,-0.627,0.368,48.523,96.862,-159.363,
00:00:09:566,-0.292,-0.714,0.395,208.984,37.109,-126.038,
00:00:09:583,-0.338,-0.824,0.375,202.148,10.498,-99.732,
00:00:09:600,-0.381,-0.892,0.307,97.961,18.188,-93.262,
00:00:09:616,-0.41,-0.896,0.261,3.173,48.339,-62.989,
00:00:09:633,-0.433,-0.839,0.268,-120.789,65.612,-37.476,
00:00:09:650,-0.428,-0.786,0.297,-200.623,91.125,4.455,
00:00:09:666,-0.409,-0.689,0.352,-201.233,116.211,70.922,
00:00:09:683,-0.386,-0.621,0.376,-151.185,104.187,123.291,
00:00:09:700,-0.389,-0.612,0.302,-4.639,88.501,175.048,
00:00:09:716,-0.399,-0.633,0.265,207.092,75.012,239.38,
00:00:09:733,-0.421,-0.719,0.273,300.476,109.558,305.114,
00:00:09:750,-0.436,-0.829,0.248,262.939,153.442,359.924,
00:00:09:766,-0.427,-0.913,0.302,127.868,213.928,404.724,
00:00:09:783,-0.369,-0.979,0.356,45.166,316.467,394.104,
00:00:09:800,-0.273,-1.033,0.311,-19.349,314.697,320.678,
00:00:09:816,-0.247,-1.162,0.333,52.978,209.961,213.806,
00:00:09:833,-0.264,-1.318,0.436,211.975,75.195,88.806,
00:00:09:850,-0.359,-1.349,0.459,310.852,-104.493,-16.663,
00:00:09:866,-0.457,-1.347,0.527,322.082,-174.5,-127.991,
00:00:09:883,-0.495,-1.228,0.405,22.949,-146.424,-197.815,
00:00:09:900,-0.502,-1.08,0.327,-232.789,-109.131,-282.105,
00:00:09:916,-0.461,-0.934,0.296,-228.76,-94.117,-327.881,
00:00:09:933,-0.416,-0.836,0.322,-175.232,-80.262,-311.89,
00:00:09:950,-0.377,-0.759,0.348,-121.094,-93.201,-263.428,
00:00:09:966,-0.339,-0.706,0.343,-83.191,-62.195,-184.51,
00:00:09:983,-0.333,-0.774,0.27,-126.893,-17.579,-77.271,
00:00:10:0,-0.345,-0.817,0.266,-250.977,39.123,7.934,
00:00:10:16,-0.346,-0.761,0.238,-412.11,163.94,129.394,
00:00:10:33,-0.313,-0.618,0.214,-381.714,268.188,260.131,
00:00:10:50,-0.254,-0.415,0.086,-179.566,321.411,330.81,
00:00:10:66,-0.208,-0.441,0.087,-9.034,270.202,307.434,
00:00:10:83,-0.197,-0.956,0.437,290.954,192.749,130.066,
00:00:10:100,-0.216,-1.475,0.74,653.808,-7.874,26.062,
00:00:10:116,-0.308,-1.508,0.615,249.694,-154.114,112.793,
00:00:10:133,-0.445,-1.332,0.408,-195.252,-135.01,3.295,
00:00:10:150,-0.488,-1.155,0.314,-117.92,-127.442,-148.621,
00:00:10:166,-0.476,-1.059,0.327,-133.118,-55.726,-188.721,
00:00:10:183,-0.453,-1.107,0.375,-43.885,-44.068,-282.837,
00:00:10:200,-0.437,-1.178,0.396,-20.935,-63.05,-307.312,
00:00:10:216,-0.464,-1.157,0.349,-105.774,-61.585,-347.474,
00:00:10:233,-0.486,-1.086,0.338,-183.289,-33.02,-405.518,
00:00:10:250,-0.49,-0.976,0.336,-150.33,25.024,-433.106,
00:00:10:266,-0.495,-0.903,0.299,-164.856,50.048,-459.778,
00:00:10:283,-0.504,-0.828,0.239,-56.824,93.322,-477.051,
00:00:10:300,-0.536,-0.77,0.232,34.606,110.473,-466.858,
00:00:10:316,-0.61,-0.714,0.26,33.508,104.736,-451.844,
00:00:10:333,-0.68,-0.671,0.35,42.968,149.78,-354.432,
00:00:10:350,-0.716,-0.656,0.367,28.564,163.696,-297.364,
00:00:10:366,-0.682,-0.658,0.351,26.367,215.881,-293.702,
00:00:10:383,-0.548,-0.587,0.375,95.031,294.799,-248.414,
00:00:10:400,-0.445,-0.514,0.44,159.973,237.487,-260.193,
00:00:10:416,-0.403,-0.589,0.476,187.194,105.163,-219.727,
00:00:10:433,-0.409,-0.712,0.481,169.067,30.639,-122.925,
00:00:10:450,-0.408,-0.82,0.461,69.152,29.174,-114.502,
00:00:10:466,-0.378,-0.843,0.32,-6.653,24.169,-131.653,
00:00:10:483,-0.36,-0.801,0.236,54.565,-39.612,-147.4,
00:00:10:500,-0.37,-0.832,0.299,155.639,-92.286,-147.461,
00:00:10:516,-0.379,-0.877,0.428,193.725,-110.535,-137.391,
00:00:10:533,-0.405,-0.904,0.34,80.322,-77.515,-144.654,
00:00:10:550,-0.429,-0.818,0.386,-22.522,-58.838,-119.629,
00:00:10:566,-0.451,-0.722,0.339,-38.514,-37.598,-144.043,
00:00:10:583,-0.453,-0.746,0.363,65.368,-34.119,-138.367,
00:00:10:600,-0.461,-0.868,0.389,76.232,-33.57,-101.319,
00:00:10:616,-0.482,-0.891,0.385,19.714,-23.865,-87.159,
00:00:10:633,-0.513,-0.887,0.363,-45.838,-15.992,-92.713,
00:00:10:650,-0.537,-0.829,0.347,-92.957,5.676,-100.892,
00:00:10:666,-0.537,-0.831,0.369,-34.485,43.212,-109.253,
00:00:10:683,-0.528,-0.856,0.355,-26.673,98.144,-69.214,
00:00:10:700,-0.513,-0.897,0.385,-56.763,153.259,-38.025,
00:00:10:716,-0.486,-0.912,0.42,-161.499,168.396,-19.776,
00:00:10:733,-0.496,-0.823,0.344,-380.066,144.531,-22.339,
00:00:10:750,-0.449,-0.76,0.596,-271.18,151.55,-56.397,
00:00:10:766,-0.443,-0.579,0.545,-104.004,32.653,-36.805,
00:00:10:783,-0.529,-0.723,0.414,-28.565,-36.56,-76.172,
00:00:10:800,-0.571,-0.841,0.482,88.134,-1.526,-66.773,
00:00:10:816,-0.554,-0.821,0.482,-52.674,44.677,-53.101,
00:00:10:833,-0.519,-0.694,0.373,-154.664,46.081,-69.703,
00:00:10:850,-0.506,-0.664,0.345,-119.019,14.343,-98.755,
00:00:10:866,-0.54,-0.73,0.348,8.239,-54.2,-127.747,
00:00:10:883,-0.579,-0.834,0.399,104.126,-69.642,-119.202,
00:00:10:900,-0.585,-0.843,0.437,22.216,15.38,-52.674,
00:00:10:916,-0.566,-0.816,0.399,-276.795,48.461,-39.429,
00:00:10:933,-0.55,-0.779,0.38,-273.316,59.875,-56.458,
00:00:10:950,-0.54,-0.701,0.42,-148.804,22.033,-50.477,
00:00:10:966,-0.557,-0.658,0.4,-14.039,0.915,-55.481,
00:00:10:983,-0.58,-0.749,0.429,101.257,-8.973,-35.95,
00:00:11:0,-0.586,-0.921,0.499,24.78,13.855,-18.433,
00:00:11:16,-0.581,-0.988,0.565,-247.62,35.339,-16.785,
00:00:11:33,-0.556,-0.897,0.476,-586.06,86.364,-33.814,
00:00:11:50,-0.554,-0.773,0.415,-687.5,72.815,-60.669,
00:00:11:66,-0.571,-0.707,0.466,-596.009,53.161,-78.431,
00:00:11:83,-0.606,-0.836,0.411,-577.454,24.658,-62.561,
00:00:11:100,-0.669,-1.084,0.414,-711.914,1.953,-60.12,
00:00:11:116,-0.718,-1.056,0.443,-1002.015,95.886,-91.614,
00:00:11:133,-0.709,-0.8,0.466,-1271.973,257.019,-171.692,
00:00:11:150,-0.63,-0.579,0.442,-1315.857,368.774,-186.89,
00:00:11:166,-0.56,-0.434,0.487,-1166.321,350.463,-165.772,
00:00:11:183,-0.521,-0.448,0.621,-1009.278,291.687,-160.889,
00:00:11:200,-0.519,-0.466,0.663,-905.457,242.736,-172.242,
00:00:11:216,-0.55,-0.432,0.743,-859.498,219.665,-167.298,
00:00:11:233,-0.523,-0.323,0.819,-784.913,231.506,-158.57,
00:00:11:250,-0.468,-0.207,0.839,-653.687,245.91,-129.151,
00:00:11:266,-0.431,-0.293,0.811,-489.075,169.86,-143.006,
00:00:11:283,-0.431,-0.409,0.809,-443.97,85.449,-189.637,
00:00:11:300,-0.466,-0.386,0.83,-489.563,47.302,-169.007,
00:00:11:316,-0.485,-0.248,0.834,-414.917,49.255,-128.113,
00:00:11:333,-0.494,-0.197,0.775,-273.438,39.062,-107.911,
00:00:11:350,-0.487,-0.295,0.765,-154.969,24.414,-116.089,
00:00:11:366,-0.494,-0.359,0.735,-195.923,19.897,-129.395,
00:00:11:383,-0.499,-0.292,0.783,-285.34,22.949,-107.3,
00:00:11:400,-0.513,-0.161,0.794,-287.659,29.052,-81.299,
00:00:11:416,-0.526,-0.126,0.81,-153.199,17.334,-61.829,
00:00:11:433,-0.512,-0.193,0.772,-16.907,39.001,-29.297,
00:00:11:450,-0.465,-0.23,0.773,-2.808,65.368,-19.837,
00:00:11:466,-0.433,-0.199,0.79,-26.795,41.931,-12.269,
00:00:11:483,-0.46,-0.162,0.822,21.301,-8.118,-17.029,
00:00:11:500,-0.49,-0.175,0.841,96.557,-11.292,-12.635,
00:00:11:516,-0.494,-0.227,0.83,157.287,13.366,7.263,
00:00:11:533,-0.477,-0.302,0.803,154.419,29.968,28.076,
00:00:11:550,-0.46,-0.188,0.775,152.282,-2.564,85.693,
00:00:11:566,-0.476,-0.208,0.794,277.343,-22.278,80.383,
00:00:11:583,-0.493,-0.216,0.772,413.147,-37.049,95.275,
00:00:11:600,-0.501,-0.282,0.726,490.783,-43.519,111.816,
00:00:11:616,-0.486,-0.337,0.713,468.261,-16.724,128.723,
00:00:11:633,-0.456,-0.32,0.705,400.329,11.962,155.883,
00:00:11:650,-0.424,-0.262,0.771,502.319,-39.917,218.017,
00:00:11:666,-0.461,-0.32,0.737,683.654,-87.281,222.351,
00:00:11:683,-0.472,-0.379,0.735,856.933,-82.642,252.38,
00:00:11:700,-0.457,-0.451,0.668,960.998,-67.688,283.203,
00:00:11:716,-0.444,-0.52,0.618,1001.464,-78.919,263,
00:00:11:733,-0.447,-0.586,0.608,1020.874,-128.296,229.187,
00:00:11:750,-0.471,-0.647,0.638,1051.086,-172.791,204.528,
00:00:11:766,-0.516,-0.72,0.642,1093.872,-214.6,160.156,
00:00:11:783,-0.527,-0.769,0.606,1127.624,-212.586,161.865,
00:00:11:800,-0.541,-0.794,0.473,1080.81,-208.252,167.724,
00:00:11:816,-0.549,-0.848,0.407,1050.415,-176.819,123.901,
00:00:11:833,-0.55,-0.907,0.438,1014.77,-111.878,126.526,
00:00:11:850,-0.552,-1.056,0.45,762.573,-72.327,132.934,
00:00:11:866,-0.55,-1.142,0.448,483.703,-16.907,118.103,
00:00:11:883,-0.526,-1.023,0.391,269.165,20.019,76.599,
00:00:11:900,-0.519,-0.852,0.322,220.214,10.315,31.311,
00:00:11:916,-0.524,-0.797,0.366,396.667,-22.156,7.995,
00:00:11:933,-0.544,-0.904,0.441,477.172,-37.476,28.442,
00:00:11:950,-0.565,-1.04,0.435,279.297,-30.091,-6.348,
00:00:11:966,-0.554,-1.065,0.396,109.436,57.312,-43.396,
00:00:11:983,-0.496,-0.953,0.452,-27.222,120.91,-54.017,
00:00:12:0,-0.359,-0.734,0.545,8.667,32.898,-46.204,
00:00:12:16,-0.369,-0.741,0.485,116.821,-70.557,-32.654,
00:00:12:33,-0.521,-0.962,0.427,-22.461,-33.814,-62.134,
00:00:12:50,-0.508,-0.896,0.431,-114.258,-8.484,-68.787,
00:00:12:66,-0.477,-0.758,0.459,34.179,-13.794,-81.543,
00:00:12:83,-0.446,-0.733,0.468,179.077,-46.387,-78.37,
00:00:12:100,-0.435,-0.877,0.288,307.373,-93.018,-82.886,
00:00:12:116,-0.555,-1.087,0.415,-201.111,-20.142,-160.645,
00:00:12:133,-0.485,-0.966,0.427,-236.206,84.899,-145.264,
00:00:12:150,-0.398,-0.787,0.447,-180.603,51.391,-127.869,
00:00:12:166,-0.358,-0.699,0.398,-138.001,-21.973,-82.947,
00:00:12:183,-0.374,-0.812,0.431,-156.861,-86.976,-82.032,
00:00:12:200,-0.337,-0.836,0.482,-205.872,-15.87,-27.649,
00:00:12:216,-0.273,-0.794,0.494,-352.906,-19.532,5.371,
00:00:12:233,-0.216,-0.735,0.52,-468.506,-76.111,73.486,
00:00:12:250,-0.226,-0.667,0.468,-583.68,-172.059,143.554,breakEggLH
00:00:12:266,-0.321,-0.587,0.436,-661.255,-268.006,223.266,
00:00:12:283,-0.42,-0.521,0.402,-690.308,-303.101,310.852,
00:00:12:300,-0.478,-0.443,0.377,-696.656,-229.859,422.912,
00:00:12:316,-0.471,-0.43,0.375,-641.663,-157.105,505.432,
00:00:12:333,-0.448,-0.45,0.345,-559.815,-132.203,576.355,
00:00:12:350,-0.474,-0.483,0.289,-454.163,-166.321,638,
00:00:12:366,-0.544,-0.539,0.271,-246.155,-205.689,694.091,
00:00:12:383,-0.609,-0.629,0.336,-15.198,-174.866,712.951,
00:00:12:400,-0.437,-0.932,0.413,-342.774,202.148,664.367,
00:00:12:416,-0.391,-0.963,0.319,-411.927,216.43,559.631,
00:00:12:433,-0.393,-0.93,0.383,-269.471,192.627,468.322,
00:00:12:450,-0.41,-0.911,0.451,-215.76,215.759,441.833,
00:00:12:466,-0.402,-0.921,0.489,-130.616,232.055,390.503,
00:00:12:483,-0.221,-0.964,0.664,-133.484,251.037,202.148,
00:00:12:500,-0.183,-1.021,0.76,-87.769,200.561,124.939,
00:00:12:516,-0.216,-1.061,0.823,-75.318,99.914,64.086,
00:00:12:533,-0.279,-1.061,0.85,-249.207,52.002,24.169,
00:00:12:550,-0.303,-0.919,0.786,-370.667,139.709,41.565,
00:00:12:566,-0.265,-0.813,0.735,-434.571,195.312,42.541,
00:00:12:583,-0.218,-0.768,0.673,-361.084,219.543,5.798,
00:00:12:600,-0.174,-0.821,0.615,-242.615,196.655,-13.123,
00:00:12:616,-0.167,-0.93,0.604,-197.815,143.982,19.47,
00:00:12:633,-0.168,-0.951,0.642,-271.119,126.403,68.908,
00:00:12:650,-0.156,-0.841,0.657,-443.299,155.761,104.919,
00:00:12:666,-0.149,-0.641,0.684,-476.258,179.809,99.609,
00:00:12:683,-0.132,-0.542,0.715,-320.923,153.076,79.101,
00:00:12:700,-0.094,-0.53,0.731,-37.415,118.469,27.71,
00:00:12:716,-0.072,-0.776,0.82,147.155,10.498,-78.431,
00:00:12:733,-0.083,-0.97,0.794,330.322,-71.778,-64.759,
00:00:12:750,-0.126,-0.966,0.713,143.493,-115.906,-41.382,
00:00:12:766,-0.179,-0.791,0.649,-52.491,-79.041,-54.749,
00:00:12:783,-0.199,-0.607,0.607,-72.022,-33.02,-50.782,
00:00:12:800,-0.184,-0.509,0.62,-8.667,-7.569,-39.612,
00:00:12:816,-0.163,-0.646,0.698,38.391,-0.855,-32.227,
00:00:12:833,-0.144,-0.841,0.722,143.615,-25.94,-58.289,
00:00:12:850,-0.149,-0.915,0.736,62.683,-61.89,-46.692,
00:00:12:866,-0.174,-0.818,0.731,-89.539,-50.354,-27.405,
00:00:12:883,-0.189,-0.661,0.691,-103.699,-1.038,-38.941,
00:00:12:900,-0.157,-0.622,0.694,-67.322,14.404,-46.57,
00:00:12:916,-0.181,-0.655,0.688,-2.93,27.832,-22.278,
00:00:12:933,-0.174,-0.731,0.698,18.432,34.912,3.723,
00:00:12:950,-0.164,-0.788,0.679,29.052,40.466,23.437,
00:00:12:966,-0.151,-0.708,0.666,6.469,46.814,35.156,
00:00:12:983,-0.136,-0.637,0.723,25.634,17.761,-13.184,
00:00:13:0,-0.141,-0.745,0.782,127.197,-20.325,-51.27,
00:00:13:16,-0.166,-0.818,0.709,214.477,-62.928,-65.308,
00:00:13:33,-0.182,-0.823,0.702,156.86,-69.031,-46.936,
00:00:13:50,-0.184,-0.808,0.681,91.857,-36.011,-46.204,
00:00:13:66,-0.175,-0.811,0.653,96.435,-31.311,-69.397,
00:00:13:83,-0.16,-0.809,0.678,171.63,-76.233,-105.469,
00:00:13:100,-0.162,-0.787,0.745,248.962,-131.836,-128.418,
00:00:13:116,-0.21,-0.883,0.765,365.905,-173.706,-183.411,
00:00:13:133,-0.249,-0.958,0.728,517.028,-198.06,-265.015,
00:00:13:150,-0.26,-1.033,0.726,626.464,-199.158,-328.98,
00:00:13:166,-0.23,-1.103,0.738,547.119,-199.83,-407.349,
00:00:13:183,-0.226,-1.126,0.722,606.445,-220.337,-520.63,
00:00:13:200,-0.254,-1.132,0.7,561.279,-267.945,-615.906,
00:00:13:216,-0.339,-1.112,0.62,434.997,-298.401,-710.633,
00:00:13:233,-0.44,-1.067,0.538,190.673,-263.184,-775.33,
00:00:13:250,-0.491,-0.987,0.482,15.136,-182.129,-800.843,
00:00:13:266,-0.495,-0.819,0.454,-81.727,-79.956,-799.683,
00:00:13:283,-0.48,-0.639,0.444,-53.65,-7.935,-787.537,
00:00:13:300,-0.445,-0.482,0.411,62.805,24.231,-715.882,
00:00:13:316,-0.428,-0.388,0.407,215.942,18.798,-591.553,
00:00:13:333,-0.442,-0.412,0.398,342.224,-15.442,-517.395,
00:00:13:350,-0.48,-0.563,0.379,421.081,9.948,-423.768,
00:00:13:366,-0.51,-0.688,0.421,440.063,18.31,-332.947,
00:00:13:383,-0.468,-0.677,0.481,312.5,103.759,-236.878,
00:00:13:400,-0.37,-0.558,0.47,123.718,201.416,-172.181,
00:00:13:416,-0.31,-0.478,0.43,107.544,164.123,-185.059,
00:00:13:433,-0.302,-0.531,0.421,178.405,58.654,-171.875,
00:00:13:450,-0.337,-0.609,0.403,232.666,-3.479,-109.009,
00:00:13:466,-0.381,-0.677,0.434,284.057,-34.607,-105.896,
00:00:13:483,-0.403,-0.753,0.43,336.181,-24.903,-100.159,
00:00:13:500,-0.417,-0.828,0.436,356.628,-32.166,-43.152,
00:00:13:516,-0.417,-0.881,0.472,295.288,-32.593,3.845,
00:00:13:533,-0.421,-0.854,0.446,153.747,-30.518,5.615,
00:00:13:550,-0.439,-0.788,0.465,30.09,-34.546,28.259,
00:00:13:566,-0.455,-0.686,0.525,12.756,-16.602,80.444,
00:00:13:583,-0.458,-0.631,0.508,7.263,-6.897,83.007,
00:00:13:600,-0.461,-0.576,0.465,81.97,-25.635,132.08,
00:00:13:616,-0.474,-0.51,0.422,132.934,-38.636,224.121,
00:00:13:633,-0.471,-0.567,0.341,121.46,-5.005,295.044,
00:00:13:650,-0.476,-0.633,0.282,71.838,5.676,363.464,
00:00:13:666,-0.479,-0.577,0.268,-53.101,26.55,396.972,
00:00:13:683,-0.461,-0.601,0.368,-46.814,102.844,421.936,
00:00:13:700,-0.367,-0.657,0.415,148.986,204.589,448.242,
00:00:13:716,-0.25,-0.861,0.357,217.895,188.903,466.064,
00:00:13:733,-0.229,-1.09,0.301,194.58,82.031,465.21,
00:00:13:750,-0.265,-1.111,0.262,107.971,-0.428,401.001,
00:00:13:766,-0.332,-1.091,0.294,-28.199,-18.189,326.782,
00:00:13:783,-0.354,-1.07,0.411,65.612,7.568,261.718,
00:00:13:800,-0.371,-0.98,0.367,209.228,-39.124,166.32,
00:00:13:816,-0.359,-1.049,0.471,602.6,-154.419,-8.423,
00:00:13:833,-0.389,-1.323,0.489,870.788,-258.789,-4.578,
00:00:13:850,-0.512,-1.542,0.388,269.531,-339.112,-59.144,
00:00:13:866,-0.602,-1.408,0.19,-107.3,-196.839,-155.945,
00:00:13:883,-0.558,-1.157,0.326,-131.104,81.42,-230.713,
00:00:13:900,-0.41,-0.999,0.386,-157.41,178.527,-299.439,
00:00:13:916,-0.277,-1.001,0.368,13.916,76.477,-301.148,
00:00:13:933,-0.274,-0.997,0.359,90.332,-77.393,-296.875,
00:00:13:950,-0.356,-0.963,0.378,-114.991,-123.719,-298.523,
00:00:13:966,-0.412,-0.876,0.39,-423.829,-49.805,-222.901,
00:00:13:983,-0.401,-0.677,0.386,-644.715,94.482,-106.324,
00:00:14:0,-0.361,-0.417,0.325,-692.933,185.424,20.385,
00:00:14:16,-0.333,-0.298,0.226,-502.93,241.394,218.933,
00:00:14:33,-0.367,-0.323,0.103,-270.325,202.27,377.929,
00:00:14:50,-0.439,-0.511,0.164,-282.41,190.673,441.894,
00:00:14:66,-0.563,-0.817,0.201,-257.63,208.007,283.264,
00:00:14:83,-0.29,-1.186,0.929,867.004,229.98,54.016,
00:00:14:100,-0.152,-1.595,0.807,1057.922,-125.794,46.142,
00:00:14:116,-0.297,-1.931,0.416,22.705,-310.914,-151.551,
00:00:14:133,-0.489,-1.562,0.145,-440.003,-260.865,-173.584,
00:00:14:150,-0.572,-0.923,0.307,-712.83,-87.464,-318.116,
00:00:14:166,-0.529,-0.525,0.357,-172.425,50.109,-414.734,
00:00:14:183,-0.43,-0.705,0.415,214.294,35.766,-281.067,
00:00:14:200,-0.432,-1.046,0.31,249.633,-86.914,-318.604,
00:00:14:216,-0.576,-1.116,0.29,174.743,-86.792,-331.421,
00:00:14:233,-0.664,-0.953,0.285,41.381,41.503,-331.177,
00:00:14:250,-0.655,-0.833,0.292,-3.357,233.337,-311.951,
00:00:14:266,-0.575,-0.814,0.303,6.042,334.961,-289.917,
00:00:14:283,-0.514,-0.813,0.335,-40.223,321.289,-299.5,
00:00:14:300,-0.5,-0.758,0.372,-47.303,256.836,-310.059,
00:00:14:316,-0.495,-0.72,0.431,47.119,221.008,-325.928,
00:00:14:333,-0.479,-0.685,0.45,146.545,185.608,-346.985,
00:00:14:350,-0.449,-0.686,0.41,256.408,135.254,-337.708,
00:00:14:366,-0.431,-0.753,0.367,379.272,66.345,-312.989,
00:00:14:383,-0.441,-0.857,0.387,382.08,19.47,-292.603,
00:00:14:400,-0.458,-0.86,0.41,250.915,11.901,-271.058,
00:00:14:416,-0.45,-0.74,0.38,142.151,21.667,-249.756,
00:00:14:433,-0.405,-0.717,0.542,136.596,-15.015,-201.172,
00:00:14:450,-0.371,-0.603,0.702,99.06,-140.442,-139.71,
00:00:14:466,-0.43,-0.687,0.461,29.419,-179.017,-190.43,
00:00:14:483,-0.494,-0.751,0.297,131.225,-167.786,-175.293,
00:00:14:500,-0.506,-0.793,0.281,190.124,-111.329,-137.146,
00:00:14:516,-0.497,-0.844,0.138,68.847,-46.631,-127.747,
00:00:14:533,-0.504,-0.9,0.092,9.46,0.854,-125.428,
00:00:14:550,-0.52,-0.929,0.274,47.058,33.264,-120.179,
00:00:14:566,-0.465,-0.873,0.35,-105.347,146.484,-93.628,
00:00:14:583,-0.351,-0.728,0.356,-140.503,162.292,-84.168,
00:00:14:600,-0.302,-0.578,0.315,-14.771,44.006,-36.499,
00:00:14:616,-0.373,-0.646,0.335,132.019,-61.707,-45.35,
00:00:14:633,-0.486,-0.819,0.37,161.743,-58.838,-31.373,
00:00:14:650,-0.527,-0.862,0.451,50.659,12.268,22.644,
00:00:14:666,-0.503,-0.734,0.5,-45.777,54.077,69.641,
00:00:14:683,-0.496,-0.618,0.469,-7.996,16.845,72.509,
00:00:14:700,-0.514,-0.644,0.442,168.518,-5.555,23.803,
00:00:14:716,-0.556,-0.914,0.376,304.077,-2.503,0.488,
00:00:14:733,-0.576,-1.139,0.318,252.868,-3.052,15.014,
00:00:14:750,-0.569,-1.054,0.336,59.57,34.24,34.362,
00:00:14:766,-0.559,-0.92,0.272,-249.207,65.734,5.493,
00:00:14:783,-0.545,-0.87,0.257,-212.708,56.64,-4.822,
00:00:14:800,-0.538,-0.814,0.297,-140.259,56.152,-12.146,
00:00:14:816,-0.539,-0.809,0.338,-51.209,35.156,-57.312,
00:00:14:833,-0.546,-0.852,0.339,50.781,18.493,-71.167,
00:00:14:850,-0.548,-0.816,0.39,79.467,15.869,-37.964,
00:00:14:866,-0.567,-0.783,0.349,-40.467,4.516,-32.288,
00:00:14:883,-0.573,-0.764,0.289,-13.733,24.169,-52.857,
00:00:14:900,-0.562,-0.75,0.385,79.589,46.386,-36.499,
00:00:14:916,-0.515,-0.787,0.418,101.074,42.297,-46.265,
00:00:14:933,-0.503,-0.888,0.401,41.565,-33.448,-53.833,
00:00:14:950,-0.551,-0.923,0.42,-60.547,-92.774,-25.025,
00:00:14:966,-0.595,-0.889,0.373,-148.316,-28.626,2.075,
00:00:14:983,-0.602,-0.901,0.313,-165.589,30.395,-30.701,
00:00:15:0,-0.612,-1.03,0.35,-222.535,69.763,-23.804,
00:00:15:16,-0.64,-1.032,0.389,-372.254,91.43,-35.218,
00:00:15:33,-0.637,-1.091,0.471,-483.704,185.913,-56.336,
00:00:15:50,-0.629,-1.022,0.436,-683.35,183.838,-55.848,
00:00:15:66,-0.597,-0.928,0.414,-768.494,243.774,-73.914,
00:00:15:83,-0.595,-0.793,0.376,-892.823,227.905,-62.5,
00:00:15:100,-0.583,-0.771,0.494,-900.33,240.539,-96.497,
00:00:15:116,-0.56,-0.716,0.51,-838.257,282.898,-136.719,
00:00:15:133,-0.531,-0.76,0.551,-843.506,279.419,-159.729,
00:00:15:150,-0.524,-0.834,0.541,-890.992,248.718,-206.482,
00:00:15:166,-0.511,-0.782,0.592,-1014.466,254.272,-191.04,
00:00:15:183,-0.49,-0.597,0.534,-1006.043,278.381,-195.313,
00:00:15:200,-0.483,-0.522,0.564,-865.052,229.309,-208.313,
00:00:15:216,-0.5,-0.595,0.585,-859.436,198.12,-241.7,
00:00:15:233,-0.534,-0.721,0.644,-940.796,205.81,-270.447,
00:00:15:250,-0.513,-0.591,0.669,-1060.975,298.095,-247.803,
00:00:15:266,-0.473,-0.334,0.631,-1035.95,340.942,-202.942,
00:00:15:283,-0.409,-0.178,0.675,-789.734,303.161,-193.97,
00:00:15:300,-0.376,-0.222,0.721,-557.373,192.382,-212.403,
00:00:15:316,-0.373,-0.303,0.765,-499.39,107.055,-233.094,
00:00:15:333,-0.398,-0.314,0.768,-485.535,85.083,-189.759,
00:00:15:350,-0.421,-0.236,0.791,-457.215,49.682,-144.165,
00:00:15:366,-0.435,-0.158,0.783,-375.855,35.461,-128.663,
00:00:15:383,-0.459,-0.143,0.79,-256.653,22.338,-112.732,
00:00:15:400,-0.468,-0.199,0.791,-128.846,31.677,-97.779,
00:00:15:416,-0.455,-0.26,0.781,-99.305,48.95,-74.524,
00:00:15:433,-0.44,-0.255,0.79,-130.066,54.443,-53.467,
00:00:15:450,-0.444,-0.259,0.833,-135.254,17.578,-60.914,
00:00:15:466,-0.462,-0.234,0.861,-142.701,4.638,-48.462,
00:00:15:483,-0.474,-0.209,0.856,-100.281,16.418,-25.94,
00:00:15:500,-0.471,-0.195,0.826,-31.861,24.231,-14.649,
00:00:15:516,-0.452,-0.209,0.817,24.414,29.419,-6.165,
00:00:15:533,-0.449,-0.256,0.795,23.315,19.348,-12.024,
00:00:15:550,-0.455,-0.26,0.75,-20.935,13.427,-10.254,
00:00:15:566,-0.457,-0.205,0.796,-55.42,33.996,22.522,
00:00:15:583,-0.436,-0.136,0.755,-3.052,45.593,48.278,
00:00:15:600,-0.416,-0.104,0.776,117.492,28.381,63.476,
00:00:15:616,-0.396,-0.118,0.768,240.234,14.892,82.702,
00:00:15:633,-0.392,-0.172,0.75,322.998,3.845,104.736,
00:00:15:650,-0.394,-0.252,0.725,341.064,-18.311,124.145,
00:00:15:666,-0.401,-0.27,0.712,312.622,-22.217,157.287,
00:00:15:683,-0.386,-0.189,0.715,370.117,-1.099,238.647,
00:00:15:700,-0.385,-0.108,0.693,521.484,-33.02,279.052,
00:00:15:716,-0.404,-0.149,0.672,769.409,-97.84,261.413,
00:00:15:733,-0.422,-0.267,0.657,964.538,-135.682,250.549,
00:00:15:750,-0.422,-0.399,0.6,1061.95,-114.747,255.31,
00:00:15:766,-0.426,-0.504,0.659,1067.199,-118.348,267.639,
00:00:15:783,-0.442,-0.546,0.697,1028.137,-146.607,259.033,
00:00:15:800,-0.462,-0.568,0.687,1026.184,-171.753,236.267,
00:00:15:816,-0.488,-0.607,0.627,1102.661,-179.139,223.571,
00:00:15:833,-0.505,-0.718,0.572,1170.288,-186.585,197.265,
00:00:15:850,-0.503,-0.828,0.588,1183.593,-150.574,178.283,
00:00:15:866,-0.503,-0.937,0.62,1087.28,-143.25,137.634,
00:00:15:883,-0.512,-1.019,0.633,932.861,-156.678,117.37,
00:00:15:900,-0.523,-0.993,0.611,787.78,-142.823,118.347,
00:00:15:916,-0.517,-0.956,0.565,674.743,-141.175,73.059,
00:00:15:933,-0.515,-0.968,0.556,632.812,-111.756,64.697,
00:00:15:950,-0.527,-0.979,0.55,558.593,-128.663,56.701,
00:00:15:966,-0.549,-0.981,0.574,447.937,-121.338,6.897,
00:00:15:983,-0.56,-0.946,0.501,311.462,-75.196,-48.279,
00:00:16:0,-0.539,-0.942,0.46,260.254,-40.101,-94.422,
00:00:16:16,-0.476,-0.932,0.471,353.698,40.527,-82.581,
00:00:16:33,-0.399,-0.964,0.537,272.4,38.879,-42.115,
00:00:16:50,-0.387,-0.943,0.557,88.44,-63.05,-49.134,
00:00:16:66,-0.422,-0.832,0.527,21.972,-90.76,-67.017,
00:00:16:83,-0.419,-0.824,0.431,170.959,-57.801,-110.108,
00:00:16:100,-0.402,-0.907,0.423,318.786,-78.492,-95.581,
00:00:16:116,-0.397,-0.967,0.427,268.859,-118.836,-108.826,
00:00:16:133,-0.403,-0.992,0.401,143.921,-103.394,-106.934,
00:00:16:150,-0.382,-0.969,0.411,6.774,-48.89,-63.965,
00:00:16:166,-0.297,-0.901,0.483,-136.414,-0.672,-11.292,
00:00:16:183,-0.222,-0.785,0.547,-314.026,-66.712,19.714,
00:00:16:200,-0.208,-0.667,0.558,-402.894,-194.214,62.255,
00:00:16:216,-0.295,-0.61,0.453,-401.673,-330.75,78.43,
00:00:16:233,-0.435,-0.627,0.358,-320.496,-403.992,148.986,
00:00:16:250,-0.484,-0.629,0.342,-278.565,-367.066,259.033,
00:00:16:266,-0.512,-0.661,0.374,-328.186,-302.002,320.922,
00:00:16:283,-0.493,-0.771,0.397,-454.834,-205.384,458.679,breakEggLH
00:00:16:300,-0.46,-0.754,0.416,-663.453,-182.74,519.775,
00:00:16:316,-0.466,-0.687,0.331,-970.52,-202.759,581.115,
00:00:16:333,-0.523,-0.599,0.258,-1099.305,-199.524,646.789,
00:00:16:350,-0.567,-0.602,0.254,-1045.411,-118.592,670.959,
00:00:16:366,-0.545,-0.715,0.293,-1001.648,36.865,689.087,
00:00:16:383,-0.493,-0.806,0.377,-922.12,172.79,691.711,
00:00:16:400,-0.406,-0.72,0.442,-700.257,226.867,666.565,
00:00:16:416,-0.355,-0.589,0.493,-437.378,176.025,662.109,
00:00:16:433,-0.366,-0.606,0.52,-185.364,99.609,654.724,
00:00:16:450,-0.395,-0.773,0.544,-73.914,78.552,577.697,
00:00:16:466,-0.39,-1.003,0.623,-107.911,157.165,488.342,
00:00:16:483,-0.336,-1.145,0.672,-87.464,228.21,377.319,
00:00:16:500,-0.286,-1.151,0.766,-39.063,215.698,316.223,
00:00:16:516,-0.302,-1.052,0.824,-48.279,164.123,283.02,
00:00:16:533,-0.35,-0.894,0.811,-44.678,129.272,235.351,
00:00:16:550,-0.366,-0.866,0.681,-97.229,167.968,126.587,
00:00:16:566,-0.292,-0.819,0.641,-89.905,226.623,53.833,
00:00:16:583,-0.181,-0.882,0.653,-79.468,227.417,-9.461,
00:00:16:600,-0.13,-0.965,0.68,-106.934,153.015,-11.719,
00:00:16:616,-0.133,-0.903,0.739,-205.872,80.322,29.541,
00:00:16:633,-0.151,-0.774,0.751,-342.469,96.13,30.334,
00:00:16:650,-0.15,-0.721,0.748,-410.645,128.418,17.761,
00:00:16:667,-0.108,-0.658,0.718,-284.607,154.235,0.061,
00:00:16:683,-0.068,-0.644,0.693,-130.066,116.15,12.268,
00:00:16:700,-0.069,-0.719,0.703,43.457,39.428,-10.071,
00:00:16:717,-0.125,-0.805,0.752,30.7,0.122,-23.926,
00:00:16:733,-0.168,-0.774,0.741,27.587,35.644,-34.668,
00:00:16:750,-0.17,-0.724,0.783,-44.19,83.374,-28.809,
00:00:16:767,-0.157,-0.692,0.749,-56.824,95.642,-21.241,
00:00:16:783,-0.136,-0.732,0.753,-20.813,51.696,-38.819,
00:00:16:800,-0.131,-0.754,0.746,5.92,5.554,-27.955,
00:00:16:817,-0.149,-0.791,0.736,-55.848,-12.33,-9.095,
00:00:16:833,-0.144,-0.752,0.744,-80.872,18.493,-6.409,
00:00:16:850,-0.127,-0.715,0.702,-113.587,26.123,-21.18,
00:00:16:867,-0.113,-0.688,0.701,-66.285,7.141,-31.311,
00:00:16:883,-0.134,-0.709,0.704,-54.749,-34.302,-29.175,
00:00:16:900,-0.17,-0.804,0.721,-99.976,-41.565,-39.124,
00:00:16:917,-0.189,-0.836,0.71,-174.134,2.868,-43.213,
00:00:16:933,-0.183,-0.781,0.709,-242.188,44.25,-43.03,
00:00:16:950,-0.155,-0.693,0.695,-260.743,75.439,-43.946,
00:00:16:967,-0.141,-0.606,0.705,-173.035,56.518,-68.177,
00:00:16:983,-0.138,-0.631,0.742,-94.056,22.399,-102.417,
00:00:17:0,-0.139,-0.645,0.774,-40.528,17.089,-101.746,
00:00:17:17,-0.142,-0.689,0.804,-24.414,13.549,-103.394,
00:00:17:33,-0.127,-0.626,0.795,43.701,-1.526,-83.069,
00:00:17:50,-0.108,-0.536,0.803,143.554,-50.782,-57.801,
00:00:17:67,-0.107,-0.515,0.806,319.03,-125.489,-89.783,
00:00:17:83,-0.1,-0.586,0.789,594.543,-218.995,-153.87,
00:00:17:100,-0.091,-0.782,0.758,964.111,-311.402,-290.711,
00:00:17:117,-0.114,-1.068,0.697,1425.232,-486.084,-482.85,
00:00:17:133,-0.21,-1.256,0.619,1573.547,-615.906,-545.227,
00:00:17:150,-0.338,-1.211,0.521,1445.312,-595.826,-616.639,
00:00:17:167,-0.426,-1.047,0.465,1234.802,-526.368,-708.741,
00:00:17:183,-0.481,-0.936,0.383,1143.859,-440.613,-819.886,
00:00:17:200,-0.498,-0.872,0.33,1083.191,-326.661,-853.882,
00:00:17:217,-0.485,-0.845,0.343,916.87,-174.439,-776.734,
00:00:17:233,-0.464,-0.838,0.345,572.815,-17.151,-664.917,
00:00:17:250,-0.432,-0.765,0.34,243.652,111.389,-572.937,
00:00:17:267,-0.409,-0.621,0.287,-14.527,210.388,-481.141,
00:00:17:283,-0.398,-0.545,0.244,-84.595,243.835,-415.039,
00:00:17:300,-0.406,-0.516,0.252,0.488,253.051,-312.317,
00:00:17:317,-0.406,-0.549,0.328,149.292,248.169,-230.164,
00:00:17:333,-0.386,-0.63,0.367,190.857,239.502,-149.72,
00:00:17:350,-0.371,-0.735,0.426,168.274,202.758,-79.102,
00:00:17:367,-0.358,-0.771,0.446,98.938,164.428,-4.761,
00:00:17:383,-0.366,-0.777,0.47,37.17,117.492,29.296,
00:00:17:400,-0.395,-0.797,0.452,19.104,73.303,49.499,
00:00:17:417,-0.433,-0.833,0.447,65.368,34.729,37.719,
00:00:17:433,-0.462,-0.885,0.442,94.421,34.179,53.894,
00:00:17:450,-0.48,-0.937,0.438,82.214,32.348,56.213,
00:00:17:467,-0.48,-0.921,0.394,40.283,52.551,38.574,
00:00:17:483,-0.483,-0.845,0.374,-1.648,77.087,46.875,
00:00:17:500,-0.467,-0.809,0.386,-58.777,130.615,104.187,
00:00:17:517,-0.439,-0.797,0.443,-212.586,202.453,229.736,
00:00:17:533,-0.399,-0.875,0.473,-414.49,282.959,366.821,
00:00:17:550,-0.375,-0.912,0.45,-641.968,349.243,460.937,
00:00:17:567,-0.445,-0.723,0.068,-767.579,333.862,466.858,
00:00:17:583,-0.366,-0.676,0.42,-416.932,213.928,177.612,
00:00:17:600,-0.186,-1.108,1.016,480.59,175.293,148.986,
00:00:17:617,-0.232,-1.188,0.42,189.819,-199.952,95.947,
00:00:17:633,-0.461,-1.455,0.345,296.63,-372.132,-214.966,
00:00:17:650,-0.601,-1.246,0.333,120.544,-207.398,-57.129,
00:00:17:667,-0.569,-0.994,0.301,-611.939,16.479,-273.255,
00:00:17:683,-0.44,-0.755,0.331,-307.862,198.608,-300.538,
00:00:17:700,-0.247,-0.679,0.57,-90.088,72.326,-194.153,
00:00:17:717,-0.245,-0.769,0.491,-155.64,-143.738,-240.479,
00:00:17:733,-0.392,-0.845,0.489,-74.158,-182.557,-225.769,
00:00:17:750,-0.47,-0.713,0.499,-174.5,-110.901,-144.288,
00:00:17:767,-0.422,-0.605,0.459,-262.207,79.223,-54.322,
00:00:17:783,-0.344,-0.6,0.393,-288.025,167.236,46.569,
00:00:17:800,-0.34,-0.672,0.472,-423.706,156.311,147.4,
00:00:17:817,-0.41,-0.665,0.468,-571.656,207.702,288.879,
00:00:17:833,-0.452,-0.546,0.408,-599.61,325.012,348.449,
00:00:17:850,-0.421,-0.526,0.324,-459.107,387.39,298.034,
00:00:17:867,-0.331,-0.834,0.755,-137.696,358.215,101.562,
00:00:17:883,-0.275,-1.132,0.673,245.91,200.988,7.568,
00:00:17:900,-0.296,-1.349,0.943,390.258,-117.432,-105.347,
00:00:17:917,-0.418,-1.132,0.623,96.069,-235.718,-52.857,
00:00:17:933,-0.486,-0.933,0.482,-441.407,-76.539,-96.07,
00:00:17:950,-0.436,-0.662,0.536,-89.966,-31.922,-184.876,
00:00:17:967,-0.351,-0.618,0.592,145.324,-86.976,-160.645,
00:00:17:983,-0.359,-0.816,0.524,283.569,-177.124,-242.371,
00:00:18:0,-0.454,-0.993,0.498,286.316,-247.376,-280.213,
00:00:18:17,-0.534,-0.93,0.505,232.116,-197.937,-267.212,
00:00:18:33,-0.529,-0.806,0.512,262.573,-110.535,-288.514,
00:00:18:50,-0.454,-0.762,0.492,396.667,-43.457,-297.913,
00:00:18:67,-0.413,-0.8,0.471,480.102,-41.138,-289.429,
00:00:18:83,-0.458,-0.802,0.396,483.276,-60.852,-298.768,
00:00:18:100,-0.528,-0.828,0.421,461.242,-67.078,-328.736,
00:00:18:117,-0.567,-0.724,0.453,518.432,17.883,-281.556,
00:00:18:133,-0.552,-0.625,0.419,561.889,64.697,-287.842,
00:00:18:150,-0.521,-0.703,0.348,678.527,60.73,-252.137,
00:00:18:167,-0.533,-0.882,0.315,654.785,40.344,-192.994,
00:00:18:183,-0.552,-0.998,0.388,453.796,103.088,-152.649,
00:00:18:200,-0.543,-0.835,0.371,208.557,145.324,-134.644,
00:00:18:217,-0.537,-0.659,0.345,162.841,158.569,-127.32,
00:00:18:233,-0.523,-0.682,0.4,266.54,121.338,-110.535,
00:00:18:250,-0.483,-0.784,0.351,294.128,152.343,-73.731,
00:00:18:267,-0.415,-0.925,0.361,210.51,200.073,-93.079,
00:00:18:283,-0.382,-1.028,0.404,9.704,194.091,-114.563,
00:00:18:300,-0.361,-0.969,0.367,-249.451,157.592,-72.205,
00:00:18:317,-0.35,-0.695,0.502,-56.702,94.665,-13.367,
00:00:18:333,-0.334,-0.727,0.468,22.888,6.53,-9.278,
00:00:18:350,-0.415,-0.776,0.348,87.28,-95.276,-33.326,
00:00:18:367,-0.51,-0.889,0.307,94.604,-34.485,2.319,
00:00:18:383,-0.519,-0.894,0.324,-51.453,51.147,13.916,
00:00:18:400,-0.469,-0.889,0.426,-102.112,159.301,35.461,
00:00:18:417,-0.383,-0.751,0.459,-152.344,138.427,80.871,
00:00:18:433,-0.349,-0.729,0.438,-82.276,84.655,51.025,
00:00:18:450,-0.401,-0.802,0.427,12.268,-16.785,6.652,
00:00:18:467,-0.501,-0.88,0.38,15.319,-53.956,-45.35,
00:00:18:483,-0.549,-0.916,0.426,16.601,26.489,-42.847,
00:00:18:500,-0.516,-0.911,0.477,3.234,145.63,-13.245,
00:00:18:517,-0.477,-0.941,0.469,-48.401,160.644,-16.236,
00:00:18:533,-0.48,-0.968,0.411,-112.488,118.225,-16.785,
00:00:18:550,-0.524,-0.885,0.408,-183.106,73.669,-33.814,
00:00:18:567,-0.567,-0.817,0.451,-242.432,64.697,-53.711,
00:00:18:583,-0.546,-0.86,0.455,-256.47,107.666,-65.064,
00:00:18:600,-0.487,-0.803,0.461,-190.125,160.827,-15.992,
00:00:18:617,-0.449,-0.796,0.436,-177.063,100.219,-67.688,
00:00:18:633,-0.499,-0.849,0.436,-93.873,61.767,-62.134,
00:00:18:650,-0.515,-0.89,0.448,-127.625,59.204,-57.129,
00:00:18:667,-0.527,-0.974,0.531,-197.144,129.638,-52.002,
00:00:18:683,-0.484,-1.008,0.62,-410.523,197.082,-45.472,
00:00:18:700,-0.444,-1.028,0.625,-719.422,229.248,-52.247,
00:00:18:717,-0.434,-0.954,0.594,-932.862,236.572,-30.518,
00:00:18:733,-0.455,-0.816,0.61,-1037.598,236.572,-34.18,
00:00:18:750,-0.486,-0.723,0.612,-1006.836,221.252,-64.82,
00:00:18:767,-0.539,-0.721,0.561,-990.723,183.288,-73.792,
00:00:18:783,-0.585,-0.81,0.564,-999.634,210.205,-86.914,
00:00:18:800,-0.595,-0.835,0.562,-1054.444,297.973,-122.742,
00:00:18:817,-0.567,-0.767,0.57,-1140.015,405.639,-154.175,
00:00:18:833,-0.517,-0.615,0.553,-1158.631,495.605,-190.613,
00:00:18:850,-0.458,-0.529,0.599,-1046.143,503.173,-223.938,
00:00:18:867,-0.401,-0.45,0.707,-884.949,460.815,-233.948,
00:00:18:883,-0.327,-0.432,0.796,-857.544,429.26,-226.38,
00:00:18:900,-0.25,-0.423,0.806,-839.051,359.192,-222.474,
00:00:18:917,-0.205,-0.332,0.811,-831.299,271.118,-206.055,
00:00:18:933,-0.196,-0.225,0.847,-804.932,182.129,-183.594,
00:00:18:950,-0.211,-0.194,0.888,-680.787,122.863,-184.998,
00:00:18:967,-0.225,-0.202,0.906,-545.472,69.946,-166.993,
00:00:18:983,-0.248,-0.223,0.856,-453.797,32.898,-160.035,
00:00:19:0,-0.288,-0.196,0.824,-382.996,-11.414,-158.265,
00:00:19:17,-0.326,-0.142,0.83,-308.777,-25.94,-155.762,
00:00:19:33,-0.338,-0.144,0.865,-229.676,-1.465,-148.987,
00:00:19:50,-0.326,-0.219,0.887,-196.778,26.855,-146.485,
00:00:19:67,-0.313,-0.223,0.849,-196.9,45.227,-121.094,
00:00:19:83,-0.298,-0.156,0.846,-214.051,25.756,-77.637,
00:00:19:100,-0.297,-0.063,0.824,-166.138,3.906,-47.059,
00:00:19:117,-0.305,-0.035,0.814,-70.496,-12.635,-77.576,
00:00:19:133,-0.304,-0.063,0.812,5.554,-4.456,-60.547,
00:00:19:150,-0.296,-0.118,0.857,47.363,-5.127,-42.786,
00:00:19:167,-0.292,-0.167,0.885,59.143,-10.437,-24.476,
00:00:19:183,-0.295,-0.159,0.856,23.925,1.831,1.648,
00:00:19:200,-0.293,-0.112,0.855,29.724,12.146,29.419,
00:00:19:217,-0.295,-0.065,0.826,105.896,2.99,52.917,
00:00:19:233,-0.293,-0.059,0.826,203.918,-23.56,57.8,
00:00:19:250,-0.303,-0.088,0.812,298.462,-45.35,66.406,
00:00:19:267,-0.303,-0.17,0.826,349.487,-54.566,84.411,
00:00:19:283,-0.296,-0.198,0.809,363.098,-53.04,117.553,
00:00:19:300,-0.286,-0.177,0.786,382.446,-56.702,155.761,
00:00:19:317,-0.288,-0.161,0.783,461.12,-83.313,173.034,
00:00:19:333,-0.287,-0.161,0.792,591.858,-100.403,178.1,
00:00:19:350,-0.284,-0.206,0.772,713.806,-109.681,190.246,
00:00:19:367,-0.257,-0.267,0.769,814.209,-113.892,220.337,
00:00:19:383,-0.226,-0.307,0.773,876.587,-149.781,236.206,
00:00:19:400,-0.244,-0.344,0.743,919.25,-235.413,215.515,
00:00:19:417,-0.305,-0.421,0.752,952.88,-336.548,206.482,
00:00:19:433,-0.383,-0.526,0.752,954.162,-368.836,237.976,
00:00:19:450,-0.436,-0.626,0.739,964.05,-307.679,254.882,
00:00:19:467,-0.427,-0.697,0.713,941.406,-218.995,248.84,
00:00:19:483,-0.377,-0.759,0.681,893.371,-169.007,246.154,
00:00:19:500,-0.37,-0.804,0.637,819.519,-220.52,205.932,
00:00:19:517,-0.421,-0.801,0.614,752.136,-288.147,142.7,
00:00:19:533,-0.484,-0.801,0.64,731.079,-285.401,121.46,
00:00:19:550,-0.512,-0.763,0.663,753.357,-242.615,122.741,
00:00:19:567,-0.501,-0.755,0.634,781.616,-198.121,89.538,
00:00:19:583,-0.494,-0.813,0.572,785.827,-194.581,50.476,
00:00:19:600,-0.514,-0.875,0.5,753.845,-221.802,15.808,
00:00:19:617,-0.548,-0.849,0.46,736.511,-200.928,11.047,
00:00:19:633,-0.555,-0.864,0.518,761.596,-129.395,3.051,
00:00:19:650,-0.523,-0.944,0.549,746.276,-77.454,-4.822,
00:00:19:667,-0.496,-1.063,0.529,600.83,-58.594,-25.452,
00:00:19:683,-0.474,-1.114,0.507,375.854,-62.256,-54.627,
00:00:19:700,-0.464,-1.05,0.476,209.838,-52.491,-78.431,
00:00:19:717,-0.418,-0.877,0.479,170.898,-3.113,-85.389,
00:00:19:733,-0.354,-0.792,0.514,206.604,-42.42,-66.651,
00:00:19:750,-0.342,-0.752,0.639,258.056,-177.979,-42.603,
00:00:19:767,-0.404,-0.852,0.611,300.537,-222.718,-42.664,
00:00:19:783,-0.479,-0.953,0.479,360.901,-215.271,-74.463,
00:00:19:800,-0.499,-0.991,0.391,333.862,-148.682,-73.548,
00:00:19:817,-0.458,-1.023,0.39,290.527,-73.487,-77.149,
00:00:19:833,-0.445,-0.996,0.28,95.459,-91.309,-111.756,
00:00:19:850,-0.443,-1.034,0.278,-63.904,-70.008,-165.833,
00:00:19:867,-0.435,-1.046,0.346,-64.331,-3.052,-171.692,
00:00:19:883,-0.36,-1.007,0.494,-72.937,20.874,-160.279,
00:00:19:900,-0.277,-0.816,0.538,-115.906,-49.622,-121.827,
00:00:19:917,-0.255,-0.809,0.527,-220.154,-157.959,-126.16,
00:00:19:933,-0.284,-0.762,0.437,-216.37,-235.23,-100.769,
00:00:19:950,-0.328,-0.706,0.375,-300.171,-288.819,-50.538,
00:00:19:967,-0.378,-0.755,0.45,-425.538,-327.454,25.695,
00:00:19:983,-0.429,-0.764,0.472,-613.648,-381.348,91.98,
00:00:20:0,-0.44,-0.683,0.389,-738.526,-293.091,225.891,
00:00:20:17,-0.432,-0.487,0.344,-654.786,-257.386,303.833,
00:00:20:33,-0.438,-0.373,0.316,-546.265,-289.429,406.921,
00:00:20:50,-0.487,-0.44,0.289,-486.268,-312.012,517.089,
00:00:20:67,-0.546,-0.634,0.322,-542.481,-264.1,598.877,
00:00:20:83,-0.579,-0.773,0.317,-744.568,-143.372,648.254,
00:00:20:100,-0.551,-0.772,0.299,-906.067,34.179,669.067,
00:00:20:117,-0.498,-0.621,0.309,-820.74,168.579,670.288,
00:00:20:133,-0.457,-0.516,0.396,-628.724,187.072,705.322,
00:00:20:150,-0.433,-0.58,0.441,-300.599,192.871,740.539,
00:00:20:167,-0.407,-0.691,0.467,-113.038,180.42,723.266,
00:00:20:183,-0.36,-0.826,0.516,73.12,187.5,658.325,
00:00:20:200,-0.301,-0.907,0.507,366.211,164.611,598.388,
00:00:20:217,-0.257,-0.998,0.507,670.654,102.905,515.319,
00:00:20:233,-0.303,-1.129,0.464,923.339,-25.696,427.673,
00:00:20:250,-0.338,-1.489,0.598,700.317,-101.99,297.729,
00:00:20:267,-0.36,-1.595,0.602,437.866,-42.115,277.038,
00:00:20:283,-0.338,-1.469,0.62,-74.219,87.89,253.967,
00:00:20:300,-0.245,-1.173,0.556,-474.488,197.998,138.549,breakEggLH
00:00:20:317,-0.176,-0.976,0.441,-643.677,229.492,76.232,
00:00:20:333,-0.154,-0.836,0.409,-642.456,197.265,22.277,
00:00:20:350,-0.119,-0.861,0.468,-552.491,185.852,-8.973,
00:00:20:367,-0.106,-0.885,0.52,-463.318,147.338,-34.546,
00:00:20:383,-0.115,-0.852,0.553,-434.632,132.995,-45.044,
00:00:20:400,-0.123,-0.781,0.555,-380.799,138.61,-63.965,
00:00:20:417,-0.123,-0.748,0.614,-292.237,112.609,-84.351,
00:00:20:433,-0.129,-0.803,0.638,-318.177,78.002,-98.328,
00:00:20:450,-0.148,-0.873,0.635,-349.915,45.044,-99.915,
00:00:20:467,-0.191,-0.841,0.664,-412.72,78.613,-31.006,
00:00:20:483,-0.211,-0.722,0.681,-305.909,50.354,-76.905,
00:00:20:500,-0.208,-0.665,0.708,-213.746,63.72,-47.059,
00:00:20:517,-0.189,-0.64,0.674,-112.915,83.74,-11.841,
00:00:20:533,-0.168,-0.673,0.646,-59.571,63.049,-46.265,
00:00:20:550,-0.16,-0.692,0.641,-60.975,62.805,-39.856,
00:00:20:567,-0.152,-0.737,0.698,-43.885,47.79,-39.368,
00:00:20:583,-0.151,-0.805,0.716,-57.74,39.306,-33.265,
00:00:20:600,-0.188,-0.804,0.694,-76.905,36.01,-26.612,
00:00:20:617,-0.163,-0.738,0.699,-71.412,32.104,-19.227,
00:00:20:633,-0.161,-0.697,0.693,-62.806,44.921,-28.626,
00:00:20:650,-0.151,-0.678,0.708,-30.213,61.95,-38.697,
00:00:20:667,-0.149,-0.712,0.694,-13.611,55.725,-31.373,
00:00:20:683,-0.158,-0.789,0.694,-23.621,24.597,-16.358,
00:00:20:700,-0.165,-0.821,0.714,-32.288,18.371,-16.236,
00:00:20:717,-0.151,-0.766,0.727,-24.109,14.77,-1.893,
00:00:20:733,-0.141,-0.724,0.713,-21.119,0.305,0.061,
00:00:20:750,-0.143,-0.652,0.665,44.616,-9.705,-4.395,
00:00:20:767,-0.15,-0.663,0.683,108.947,-23.621,-18.189,
00:00:20:783,-0.158,-0.753,0.695,197.448,-41.26,-35.462,
00:00:20:800,-0.17,-0.784,0.689,275.451,-59.51,-44.617,
00:00:20:817,-0.175,-0.795,0.741,309.997,-87.037,-50.599,
00:00:20:833,-0.19,-0.829,0.74,433.105,-121.277,-98.572,
00:00:20:850,-0.17,-0.88,0.75,641.967,-195.313,-174.927,
00:00:20:867,-0.174,-1.025,0.67,923.889,-314.148,-337.342,
00:00:20:883,-0.212,-1.25,0.58,1272.705,-421.204,-535.401,
00:00:20:900,-0.267,-1.348,0.522,1419.25,-482.239,-621.521,
00:00:20:917,-0.381,-1.274,0.591,1159.546,-506.47,-714.356,
00:00:20:933,-0.461,-1.194,0.41,1041.076,-336.243,-803.772,
00:00:20:950,-0.458,-1.082,0.412,854.797,-257.813,-907.044,
00:00:20:967,-0.451,-0.975,0.354,605.529,-146.912,-917.664,
00:00:20:983,-0.457,-0.903,0.282,338.501,-32.044,-865.296,
00:00:21:0,-0.464,-0.8,0.254,67.749,49.621,-772.095,
00:00:21:17,-0.479,-0.682,0.215,-158.753,131.775,-666.687,
00:00:21:33,-0.466,-0.616,0.225,-296.204,232.788,-524.659,
00:00:21:50,-0.415,-0.507,0.277,-319.825,343.017,-342.957,
00:00:21:67,-0.336,-0.402,0.33,-381.958,372.253,-213.074,
00:00:21:83,-0.274,-0.267,0.386,-337.281,361.999,-70.679,
00:00:21:100,-0.294,-0.187,0.411,-187.928,293.884,33.813,
00:00:21:117,-0.33,-0.218,0.427,-12.94,227.539,127.624,
00:00:21:133,-0.283,-0.32,0.417,82.458,306.152,245.361,
00:00:21:150,-0.223,-0.472,0.388,110.046,330.2,297.119,
00:00:21:167,-0.221,-0.623,0.356,94.36,250.366,305.236,
00:00:21:183,-0.251,-0.74,0.372,85.388,220.947,427.246,
00:00:21:200,-0.275,-0.805,0.386,83.19,237.671,523.864,
00:00:21:217,-0.266,-0.953,0.346,65.063,255.981,485.046,
00:00:21:233,-0.261,-1.14,0.324,70.19,203.491,371.399,
00:00:21:250,-0.315,-1.244,0.521,274.109,-64.759,77.27,
00:00:21:267,-0.327,-1.593,1.002,1233.825,-365.113,-98.45,
00:00:21:283,-0.454,-1.638,0.757,750.671,-461.976,-44.251,
00:00:21:300,-0.572,-1.516,0.378,54.382,-339.295,-190.369,
00:00:21:317,-0.605,-1.264,0.21,-279.541,-139.649,-273.743,
00:00:21:333,-0.557,-0.965,0.303,-429.505,61.462,-353.394,
00:00:21:350,-0.443,-0.784,0.395,-322.998,170.41,-357.178,
00:00:21:367,-0.337,-0.726,0.404,-211.121,105.407,-253.907,
00:00:21:383,-0.319,-0.752,0.37,-210.267,25.207,-205.384,
00:00:21:400,-0.35,-0.74,0.361,-270.142,56.945,-139.161,
00:00:21:417,-0.348,-0.66,0.377,-345.093,116.516,-62.745,
00:00:21:433,-0.319,-0.586,0.364,-383.667,178.039,30.212,
00:00:21:450,-0.295,-0.523,0.394,-296.082,221.191,163.147,
00:00:21:467,-0.281,-0.532,0.395,-249.756,251.709,288.452,
00:00:21:483,-0.303,-0.59,0.292,-253.54,257.324,348.022,
00:00:21:500,-0.353,-0.621,0.171,-381.836,227.905,325.927,
00:00:21:517,-0.365,-0.895,0.627,-221.741,178.588,69.58,
00:00:21:533,-0.311,-1.186,0.698,419.433,100.891,-39.246,
00:00:21:550,-0.318,-1.383,0.659,351.684,-98.633,-59.876,
00:00:21:567,-0.434,-1.355,0.573,186.34,-200.074,-124.695,
00:00:21:583,-0.528,-1.126,0.521,-195.923,-147.706,-137.33,
00:00:21:600,-0.517,-0.895,0.523,-282.471,13.244,-180.664,
00:00:21:617,-0.433,-0.757,0.477,-259.095,90.271,-204.651,
00:00:21:633,-0.388,-0.771,0.492,-86.853,35.034,-248.536,
00:00:21:650,-0.41,-0.868,0.577,228.881,-51.636,-261.414,
00:00:21:667,-0.48,-0.978,0.534,279.663,-109.986,-303.772,
00:00:21:683,-0.55,-1.035,0.505,153.625,-69.886,-339.6,
00:00:21:700,-0.558,-0.979,0.484,77.758,4.394,-376.343,
00:00:21:717,-0.51,-0.844,0.487,153.32,64.88,-390.564,
00:00:21:733,-0.476,-0.731,0.447,251.159,29.113,-394.41,
00:00:21:750,-0.513,-0.722,0.416,391.54,-62.928,-402.466,
00:00:21:767,-0.592,-0.774,0.353,484.314,-99.06,-402.955,
00:00:21:783,-0.632,-0.858,0.317,397.705,-50.599,-432.312,
00:00:21:800,-0.607,-0.86,0.345,298.706,51.757,-438.416,
00:00:21:817,-0.524,-0.746,0.365,213.256,95.642,-426.453,
00:00:21:833,-0.456,-0.653,0.358,226.196,65.49,-364.563,
00:00:21:850,-0.431,-0.635,0.345,309.326,-14.771,-303.65,
00:00:21:867,-0.46,-0.689,0.325,336.975,-68.116,-283.448,
00:00:21:883,-0.501,-0.726,0.341,301.757,-68.848,-243.164,
00:00:21:900,-0.511,-0.659,0.344,205.81,-34.607,-198.731,
00:00:21:917,-0.495,-0.626,0.36,167.053,-12.879,-164.856,
00:00:21:933,-0.458,-0.578,0.395,211.059,-5.249,-110.596,
00:00:21:950,-0.447,-0.651,0.332,241.638,-42.115,-88.379,
00:00:21:967,-0.412,-0.803,0.454,317.199,-67.749,-64.515,
00:00:21:983,-0.285,-0.819,0.664,246.765,-61.524,3.906,
00:00:22:0,-0.351,-0.693,0.371,157.043,-254.212,-18.555,
00:00:22:17,-0.487,-0.745,0.222,364.746,-285.279,-62.073,
00:00:22:33,-0.562,-0.894,0.069,405.456,-172.73,-43.03,
00:00:22:50,-0.606,-1.079,0.001,176.33,-51.636,-25.818,
00:00:22:67,-0.604,-0.982,0.11,6.652,113.891,-30.457,
00:00:22:83,-0.537,-0.808,0.346,-76.111,199.646,-13.306,
00:00:22:100,-0.465,-0.793,0.335,-193.238,150.879,-14.222,
00:00:22:117,-0.491,-0.79,0.414,-189.087,88.134,12.878,
00:00:22:133,-0.526,-0.771,0.473,-145.081,75.866,17.639,
00:00:22:150,-0.527,-0.779,0.353,-104.126,90.026,1.648,
00:00:22:167,-0.528,-0.819,0.256,-91.492,68.298,3.112,
00:00:22:183,-0.554,-0.858,0.26,-64.026,16.54,6.347,
00:00:22:200,-0.596,-0.799,0.286,-86.304,0.854,39.917,
00:00:22:217,-0.616,-0.77,0.296,-159.729,33.935,50.415,
00:00:22:233,-0.599,-0.84,0.303,-215.455,93.017,37.414,
00:00:22:250,-0.583,-0.921,0.283,-257.019,99.06,18.005,
00:00:22:267,-0.586,-1.002,0.287,-310.12,78.247,-12.513,
00:00:22:283,-0.601,-1.008,0.353,-380.372,47.79,-39.551,
00:00:22:300,-0.595,-0.893,0.457,-471.924,72.387,-76.905,
00:00:22:317,-0.586,-0.739,0.466,-451.05,85.937,-61.341,
00:00:22:333,-0.581,-0.75,0.485,-445.801,106.811,-54.2,
00:00:22:350,-0.571,-0.875,0.431,-362.977,127.136,-92.957,
00:00:22:367,-0.565,-0.968,0.435,-466.187,144.836,-75.318,
00:00:22:383,-0.553,-1.055,0.408,-676.819,158.203,-108.277,
00:00:22:400,-0.542,-1.008,0.456,-952.027,160.278,-138.489,
00:00:22:417,-0.53,-0.834,0.47,-1214.783,172.729,-141.785,
00:00:22:433,-0.534,-0.673,0.496,-1213.257,157.043,-140.32,
00:00:22:450,-0.539,-0.608,0.523,-1051.575,136.535,-163.758,
00:00:22:467,-0.545,-0.658,0.516,-921.387,110.107,-207.215,
00:00:22:483,-0.552,-0.669,0.482,-828.614,100.891,-216.98,
00:00:22:500,-0.558,-0.583,0.444,-784.913,92.773,-234.192,
00:00:22:517,-0.553,-0.493,0.523,-699.036,96.069,-255.433,
00:00:22:533,-0.546,-0.45,0.629,-592.591,85.571,-251.893,
00:00:22:550,-0.534,-0.437,0.723,-498.23,66.162,-250.428,
00:00:22:567,-0.543,-0.457,0.728,-501.099,51.391,-246.155,
00:00:22:583,-0.554,-0.465,0.731,-500.611,51.208,-242.676,
00:00:22:600,-0.55,-0.372,0.723,-550.171,64.086,-235.047,
00:00:22:617,-0.536,-0.25,0.737,-562.745,65.856,-222.718,
00:00:22:633,-0.524,-0.168,0.751,-409.424,47.851,-179.627,
00:00:22:650,-0.518,-0.172,0.798,-201.05,-8.423,-158.997,
00:00:22:667,-0.561,-0.299,0.826,-117.981,-71.167,-146.79,
00:00:22:683,-0.612,-0.384,0.801,-132.996,-78.675,-137.207,
00:00:22:700,-0.618,-0.338,0.758,-203.614,-10.621,-101.685,
00:00:22:717,-0.589,-0.279,0.729,-186.829,36.438,-84.839,
00:00:22:733,-0.553,-0.282,0.709,-119.873,31.982,-69.336,
00:00:22:750,-0.53,-0.331,0.681,-94.422,12.146,-36.072,
00:00:22:767,-0.542,-0.335,0.705,-130.616,-2.259,-38.941,
00:00:22:783,-0.569,-0.317,0.762,-126.038,8.85,-41.626,
00:00:22:800,-0.583,-0.305,0.787,-70.069,30.09,-40.65,
00:00:22:817,-0.578,-0.332,0.78,-22.889,47.424,-39.551,
00:00:22:833,-0.559,-0.347,0.754,-27.405,65.368,-36.255,
00:00:22:850,-0.542,-0.316,0.726,-39.49,75.012,-20.081,
00:00:22:867,-0.535,-0.255,0.751,-32.105,55.725,-4.395,
00:00:22:883,-0.555,-0.231,0.784,8.606,0.549,2.624,
00:00:22:900,-0.58,-0.247,0.809,62.866,3.906,5.493,
00:00:22:917,-0.588,-0.278,0.809,90.759,17.517,19.47,
00:00:22:933,-0.581,-0.295,0.777,106.811,38.024,31.189,
00:00:22:950,-0.554,-0.293,0.746,114.99,48.095,43.518,
00:00:22:967,-0.535,-0.302,0.747,100.463,50.293,59.509,
00:00:22:983,-0.529,-0.282,0.738,115.539,40.771,77.941,
00:00:23:0,-0.539,-0.249,0.745,169.433,24.292,98.327,
00:00:23:17,-0.557,-0.219,0.734,280.273,4.211,103.332,
00:00:23:33,-0.567,-0.215,0.772,443.481,-20.325,106.567,
00:00:23:50,-0.547,-0.272,0.796,570.861,-16.785,135.742,
00:00:23:67,-0.539,-0.381,0.761,613.83,-37.537,160.949,
00:00:23:83,-0.544,-0.457,0.717,595.092,-48.279,155.212,
00:00:23:100,-0.547,-0.492,0.682,509.826,-23.316,171.997,
00:00:23:117,-0.558,-0.474,0.631,468.933,-8.057,185.669,
00:00:23:133,-0.575,-0.431,0.621,556.03,-14.039,206.482,
00:00:23:150,-0.565,-0.419,0.649,678.527,-6.531,239.441,
00:00:23:167,-0.545,-0.488,0.667,786.682,-10.498,223.755,
00:00:23:183,-0.528,-0.604,0.59,838.989,-18.494,166.809,
00:00:23:200,-0.547,-0.722,0.511,850.341,-14.588,105.774,
00:00:23:217,-0.547,-0.782,0.499,830.566,-8.851,86.792,
00:00:23:233,-0.558,-0.808,0.508,747.253,-0.367,96.679,
00:00:23:250,-0.556,-0.824,0.522,654.846,24.536,70.251,
00:00:23:267,-0.528,-0.832,0.547,529.052,54.138,57.556,
00:00:23:283,-0.506,-0.82,0.559,422.363,70.129,37.658,
00:00:23:300,-0.499,-0.806,0.549,396.179,33.935,-0.55,
00:00:23:317,-0.501,-0.797,0.562,387.329,17.761,-3.907,
00:00:23:333,-0.496,-0.787,0.601,396.179,10.07,14.831,
00:00:23:350,-0.504,-0.752,0.582,359.069,-25.94,8.728,
00:00:23:367,-0.493,-0.783,0.535,341.491,-34.058,-22.278,
00:00:23:383,-0.467,-0.826,0.536,335.022,-46.692,-11.231,
00:00:23:400,-0.476,-0.849,0.504,258.361,-105.591,3.784,
00:00:23:417,-0.513,-0.803,0.512,175.964,-123.291,8.239,
00:00:23:433,-0.532,-0.744,0.534,227.356,-86.914,-9.827,
00:00:23:450,-0.507,-0.775,0.478,339.111,-48.462,-43.335,
00:00:23:467,-0.485,-0.876,0.436,383.789,-61.951,-66.163,
00:00:23:483,-0.486,-0.904,0.4,297.851,-89.051,-97.779,
00:00:23:500,-0.504,-0.942,0.405,234.558,-89.661,-156.861,
00:00:23:517,-0.509,-0.982,0.447,200.866,-87.098,-159.546,
00:00:23:533,-0.487,-0.956,0.515,122.375,-88.685,-117.615,
00:00:23:550,-0.464,-0.924,0.53,-46.448,-74.83,-103.638,
00:00:23:567,-0.447,-0.825,0.498,-221.497,-56.702,-99.427,
00:00:23:583,-0.414,-0.756,0.52,-334.839,-27.161,-61.768,
00:00:23:600,-0.371,-0.757,0.532,-420.716,-40.772,-5.31,
00:00:23:617,-0.347,-0.751,0.591,-544.678,-63.294,81.054,
00:00:23:633,-0.331,-0.691,0.58,-664.124,-68.848,135.925,
00:00:23:650,-0.32,-0.554,0.53,-620.911,-81.177,191.711,
00:00:23:667,-0.314,-0.433,0.513,-464.722,-99.915,280.883,
00:00:23:683,-0.32,-0.395,0.474,-257.874,-139.649,371.276,
00:00:23:700,-0.383,-0.455,0.43,-141.907,-237.549,415.954,
00:00:23:717,-0.479,-0.619,0.419,-236.451,-279.664,530.334,
00:00:23:733,-0.559,-0.793,0.402,-540.101,-237.244,584.838,
00:00:23:750,-0.572,-0.845,0.363,-893.006,-78.675,671.386,
00:00:23:767,-0.531,-0.717,0.35,-1063.965,127.99,688.476,
00:00:23:783,-0.475,-0.577,0.379,-952.21,184.57,691.955,
00:00:23:800,-0.458,-0.53,0.421,-696.534,126.22,692.566,
00:00:23:817,-0.496,-0.583,0.467,-504.7,62.194,694.885,
00:00:23:833,-0.533,-0.677,0.483,-493.714,75.195,674.804,
00:00:23:850,-0.547,-0.75,0.494,-537.11,165.588,642.395,
00:00:23:867,-0.481,-0.724,0.513,-395.081,247.741,553.772,
00:00:23:883,-0.383,-0.678,0.578,-183.35,251.892,513.183,
00:00:23:900,-0.343,-0.716,0.631,52.002,146.24,484.802,
00:00:23:917,-0.385,-0.855,0.694,135.925,42.297,430.359,
00:00:23:933,-0.441,-1.001,0.76,5.127,62.255,378.967,
00:00:23:950,-0.437,-1.023,0.756,-149.537,140.747,310.73,
00:00:23:967,-0.373,-0.909,0.754,-199.341,186.218,246.093,
00:00:23:983,-0.305,-0.805,0.803,-80.811,148.681,196.106,
00:00:24:0,-0.294,-0.797,0.827,55.603,55.969,150.512,
00:00:24:17,-0.315,-0.837,0.821,107.483,8.606,106.201,
00:00:24:33,-0.321,-0.827,0.752,24.414,41.931,96.923,
00:00:24:50,-0.296,-0.779,0.698,-61.158,94.055,92.346,
00:00:24:67,-0.225,-0.735,0.69,-90.516,146.179,80.871,
00:00:24:83,-0.141,-0.734,0.7,-115.662,161.621,63.232,
00:00:24:100,-0.095,-0.756,0.715,-121.155,137.085,48.156,
00:00:24:117,-0.094,-0.754,0.722,-138.55,92.651,43.579,
00:00:24:133,-0.128,-0.733,0.716,-123.23,71.838,42.358,
00:00:24:150,-0.159,-0.723,0.724,-106.507,72.815,41.626,
00:00:24:167,-0.171,-0.71,0.734,-57.923,86.12,40.1,
00:00:24:183,-0.163,-0.685,0.729,-21.912,100.647,43.273,
00:00:24:200,-0.155,-0.693,0.762,26.55,95.031,14.465,
00:00:24:217,-0.154,-0.759,0.788,24.169,94.543,11.657,
00:00:24:233,-0.175,-0.758,0.773,42.419,61.889,-20.508,
00:00:24:250,-0.199,-0.763,0.786,-11.963,83.19,10.559,
00:00:24:267,-0.193,-0.75,0.782,-50.843,76.049,-2.442,
00:00:24:283,-0.167,-0.753,0.778,-97.718,102.295,11.779,
00:00:24:300,-0.135,-0.783,0.78,-186.829,108.52,18.188,breakEggLH
00:00:24:317,-0.125,-0.812,0.798,-242.92,84.899,8.85,
00:00:24:333,-0.135,-0.786,0.798,-229.676,57.251,-18.25,
00:00:24:350,-0.165,-0.744,0.752,-234.62,41.931,-16.236,
00:00:24:367,-0.181,-0.709,0.697,-280.823,56.274,-0.123,
00:00:24:383,-0.164,-0.679,0.637,-311.829,97.534,6.164,
00:00:24:400,-0.143,-0.594,0.685,-345.581,99.731,2.075,
00:00:24:417,-0.113,-0.578,0.788,-291.504,82.702,-28.077,
00:00:24:433,-0.106,-0.596,0.841,-135.132,21.118,-72.998,
00:00:24:450,-0.102,-0.643,0.859,-49.988,-10.498,-51.941,
00:00:24:467,-0.122,-0.639,0.81,-122.681,4.455,-44.678,
00:00:24:483,-0.138,-0.591,0.777,-187.623,35.4,-57.984,
00:00:24:500,-0.13,-0.567,0.789,-216.126,49.743,-45.35,
00:00:24:517,-0.127,-0.521,0.782,-158.02,47.729,-25.635,
00:00:24:533,-0.12,-0.532,0.823,-70.374,1.464,-27.222,
00:00:24:550,-0.139,-0.625,0.866,-9.766,14.282,-14.161,
00:00:24:567,-0.126,-0.612,0.824,-24.231,15.564,-25.147,
00:00:24:583,-0.121,-0.56,0.842,54.748,-29.541,-49.073,
00:00:24:600,-0.146,-0.59,0.891,189.026,-112.61,-81.971,
00:00:24:617,-0.189,-0.662,0.93,350.219,-181.153,-100.525,
00:00:24:633,-0.191,-0.756,0.96,527.526,-227.417,-155.945,
00:00:24:650,-0.135,-0.829,0.933,767.395,-263.916,-256.592,
00:00:24:667,-0.079,-0.907,0.871,1034.668,-380.066,-380.005,
00:00:24:683,-0.123,-1.012,0.753,1253.357,-530.518,-531.495,
00:00:24:700,-0.25,-1.136,0.694,1409.118,-626.282,-697.51,
00:00:24:717,-0.391,-1.114,0.674,1330.566,-598.877,-773.072,
00:00:24:733,-0.475,-0.994,0.643,1118.652,-501.038,-820.923,
00:00:24:750,-0.507,-0.898,0.566,877.502,-317.994,-870.423,
00:00:24:767,-0.485,-0.85,0.484,621.093,-135.193,-859.925,
00:00:24:783,-0.444,-0.8,0.406,310.424,-45.716,-818.116,
00:00:24:800,-0.428,-0.757,0.362,77.697,37.658,-747.925,
00:00:24:817,-0.429,-0.715,0.365,-72.205,89.416,-691.285,
00:00:24:833,-0.443,-0.657,0.4,-194.642,126.098,-607.178,
00:00:24:850,-0.453,-0.57,0.411,-266.663,150.817,-526.368,
00:00:24:867,-0.453,-0.48,0.405,-226.258,139.77,-451.05,
00:00:24:883,-0.425,-0.37,0.406,-115.418,135.62,-357.972,
00:00:24:900,-0.374,-0.31,0.468,49.499,179.199,-271.546,
00:00:24:917,-0.318,-0.371,0.473,182.067,198.73,-212.891,
00:00:24:933,-0.292,-0.487,0.486,77.27,137.207,-156.922,
00:00:24:950,-0.302,-0.568,0.529,-169.495,142.395,-50.538,
00:00:24:967,-0.313,-0.51,0.479,-357.789,194.091,24.047,
00:00:24:983,-0.307,-0.415,0.429,-371.582,235.839,107.91,
00:00:25:0,-0.283,-0.373,0.363,-132.935,250.61,200.378,
00:00:25:17,-0.271,-0.41,0.332,144.531,250.976,283.447,
00:00:25:33,-0.286,-0.491,0.465,259.765,251.22,363.037,
00:00:25:50,-0.312,-0.606,0.612,1.464,322.57,459.655,
00:00:25:67,-0.363,-0.73,0.558,-392.518,377.868,488.342,
00:00:25:83,-0.402,-0.704,0.456,-528.199,466.43,483.093,
00:00:25:100,-0.385,-0.663,0.508,-395.691,508.545,516.845,
00:00:25:117,-0.345,-0.754,0.868,13.549,335.022,301.757,
00:00:25:133,-0.145,-1.629,1.761,552.063,62.805,71.289,
00:00:25:150,-0.346,-1.424,0.844,467.712,-259.705,151.367,
00:00:25:167,-0.645,-1.543,0.96,326.66,-328.431,-163.147,
00:00:25:183,-0.71,-1.33,0.734,165.161,-278.626,-232.605,
00:00:25:200,-0.641,-0.994,0.669,-495.606,5.188,-290.894,
00:00:25:217,-0.451,-0.714,0.67,-564.698,114.013,-394.227,
00:00:25:233,-0.311,-0.523,0.687,-471.802,59.265,-261.78,
00:00:25:250,-0.294,-0.345,0.574,-342.713,-61.951,-180.481,
00:00:25:267,-0.356,-0.491,0.449,-159.729,162.292,90.698,
00:00:25:283,-0.342,-0.434,0.492,-326.111,291.504,168.09,
00:00:25:300,-0.316,-0.376,0.432,-394.593,382.385,247.497,
00:00:25:317,-0.298,-0.309,0.479,-394.043,418.701,322.876,
00:00:25:333,-0.289,-0.399,0.676,-130.86,393.798,252.014,
00:00:25:350,-0.213,-0.869,1.168,754.516,95.398,-106.751,
00:00:25:367,-0.298,-1.483,1.068,930.114,-231.69,-90.516,
00:00:25:383,-0.458,-1.614,0.844,136.901,-205.933,-157.288,
00:00:25:400,-0.544,-1.209,0.587,-441.346,-65.918,-182.373,
00:00:25:417,-0.482,-0.659,0.556,-656.434,131.836,-170.472,
00:00:25:433,-0.381,-0.363,0.7,-330.323,123.169,-248.23,
00:00:25:450,-0.309,-0.422,0.698,226.379,-27.527,-244.873,
00:00:25:467,-0.345,-0.674,0.666,447.448,-134.4,-269.41,
00:00:25:483,-0.455,-0.859,0.647,466.369,-136.719,-312.256,
00:00:25:500,-0.51,-0.815,0.644,453.735,-77.027,-297.608,
00:00:25:517,-0.48,-0.682,0.552,531.128,-17.518,-299.317,
00:00:25:533,-0.435,-0.618,0.513,722.412,-10.315,-315.674,
00:00:25:550,-0.418,-0.653,0.583,883.545,-51.331,-358.887,
00:00:25:567,-0.447,-0.724,0.56,904.541,-67.444,-393.799,
00:00:25:583,-0.483,-0.672,0.412,930.603,-25.879,-356.568,
00:00:25:600,-0.478,-0.745,0.356,906.921,-10.56,-311.402,
00:00:25:617,-0.49,-0.76,0.385,876.709,-19.593,-251.465,
00:00:25:633,-0.482,-0.723,0.462,769.775,6.713,-213.135,
00:00:25:650,-0.446,-0.663,0.456,730.346,30.334,-172.669,
00:00:25:667,-0.401,-0.707,0.427,722.534,32.47,-149.476,
00:00:25:683,-0.382,-0.825,0.358,638.549,15.625,-115.784,
00:00:25:700,-0.37,-1.004,0.384,434.387,4.516,-76.539,
00:00:25:717,-0.301,-0.965,0.546,176.696,15.136,19.714,
00:00:25:733,-0.297,-0.701,0.436,-17.579,-105.774,49.011,
00:00:25:750,-0.365,-0.732,0.317,252.624,-219.056,2.258,
00:00:25:767,-0.466,-0.968,0.224,270.446,-167.908,39.733,
00:00:25:783,-0.517,-1.183,0.252,-46.814,-60.364,40.588,
00:00:25:800,-0.519,-1.105,0.174,-343.689,69.702,34.606,
00:00:25:817,-0.431,-0.82,0.249,-294.068,193.237,36.438,
00:00:25:833,-0.344,-0.724,0.303,-124.695,133.728,18.798,
00:00:25:850,-0.376,-0.882,0.281,-41.443,1.586,-16.602,
00:00:25:867,-0.511,-0.988,0.306,-44.739,-70.984,-13.184,
00:00:25:883,-0.587,-0.878,0.377,-111.329,-1.709,21.484,
00:00:25:900,-0.536,-0.765,0.375,-164.917,94.238,26.611,
00:00:25:917,-0.437,-0.783,0.373,-143.921,108.886,9.704,
00:00:25:933,-0.414,-0.886,0.327,-143.555,55.725,-1.893,
00:00:25:950,-0.469,-0.826,0.348,-178.65,30.456,22.216,
00:00:25:967,-0.486,-0.799,0.31,-51.087,8.85,20.446,
00:00:25:983,-0.495,-0.8,0.351,20.324,53.405,26.001,
00:00:26:0,-0.449,-0.928,0.346,93.322,105.957,4.638,
00:00:26:17,-0.417,-0.997,0.368,46.814,83.557,-3.113,
00:00:26:33,-0.424,-1.01,0.386,-94.849,43.884,7.873,
00:00:26:50,-0.448,-0.914,0.397,-170.533,32.653,-2.503,
00:00:26:67,-0.468,-0.859,0.368,-237.977,16.906,-15.625,
00:00:26:83,-0.484,-0.827,0.391,-231.08,18.615,1.342,
00:00:26:100,-0.481,-0.809,0.366,-257.142,53.833,19.897,
00:00:26:117,-0.468,-0.831,0.406,-260.01,80.444,29.174,
00:00:26:133,-0.442,-0.903,0.455,-284.363,66.528,40.344,
00:00:26:150,-0.44,-0.93,0.464,-356.263,47.851,40.71,
00:00:26:167,-0.456,-0.942,0.497,-428.589,58.044,25.146,
00:00:26:183,-0.478,-0.997,0.522,-509.644,70.8,12.268,
00:00:26:200,-0.501,-1.042,0.5,-727.967,108.886,2.868,
00:00:26:217,-0.525,-1.082,0.459,-973.938,133.422,3.662,
00:00:26:233,-0.545,-1.05,0.462,-1187.439,170.715,-13.428,
00:00:26:250,-0.55,-0.958,0.474,-1419.495,247.497,-24.781,
00:00:26:267,-0.531,-0.88,0.488,-1591.309,325.805,-36.255,
00:00:26:283,-0.495,-0.776,0.503,-1624.268,346.252,-71.717,
00:00:26:300,-0.454,-0.587,0.525,-1495.057,366.943,-117.249,
00:00:26:317,-0.425,-0.436,0.659,-1206.788,335.876,-152.283,
00:00:26:333,-0.405,-0.446,0.769,-991.028,251.648,-178.772,
00:00:26:350,-0.41,-0.501,0.791,-881.897,188.415,-218.201,
00:00:26:367,-0.412,-0.506,0.799,-857.422,206.176,-231.507,
00:00:26:383,-0.386,-0.422,0.826,-882.081,229.37,-224.793,
00:00:26:400,-0.346,-0.32,0.824,-859.314,233.703,-200.684,
00:00:26:417,-0.322,-0.241,0.85,-783.081,202.209,-212.464,
00:00:26:433,-0.31,-0.229,0.884,-683.045,177.734,-219.605,
00:00:26:450,-0.311,-0.257,0.878,-579.285,158.142,-188.538,
00:00:26:467,-0.327,-0.26,0.867,-522.828,148.559,-183.899,
00:00:26:483,-0.342,-0.231,0.849,-469.849,154.968,-177.002,
00:00:26:500,-0.349,-0.186,0.831,-391.48,165.649,-168.885,
00:00:26:517,-0.323,-0.182,0.858,-345.093,191.955,-161.988,
00:00:26:533,-0.286,-0.203,0.871,-372.315,205.871,-164.185,
00:00:26:550,-0.245,-0.205,0.885,-379.456,199.951,-157.715,
00:00:26:567,-0.232,-0.152,0.887,-349.427,163.147,-140.381,
00:00:26:583,-0.25,-0.085,0.862,-259.217,108.52,-119.507,
00:00:26:600,-0.282,-0.089,0.855,-157.715,66.65,-105.774,
00:00:26:617,-0.299,-0.107,0.868,-132.691,73.669,-105.53,
00:00:26:633,-0.282,-0.098,0.872,-144.104,99.304,-90.394,
00:00:26:650,-0.246,-0.059,0.901,-117.127,97.168,-68.299,
00:00:26:667,-0.221,-0.025,0.929,-33.204,51.757,-43.03,
00:00:26:683,-0.229,-0.033,0.897,74.951,-4.822,-21.668,
00:00:26:700,-0.258,-0.089,0.878,137.085,-50.11,-0.672,
00:00:26:717,-0.28,-0.135,0.86,117.431,-39.551,23.498,
00:00:26:733,-0.292,-0.132,0.846,75.927,-20.081,45.166,
00:00:26:750,-0.28,-0.086,0.847,80.932,-4.09,69.763,
00:00:26:767,-0.252,-0.036,0.858,170.349,-12.269,92.956,
00:00:26:783,-0.244,-0.038,0.839,296.386,-62.256,105.529,
00:00:26:800,-0.244,-0.064,0.827,436.706,-82.52,122.375,
00:00:26:817,-0.252,-0.121,0.779,514.343,-116.578,152.832,
00:00:26:833,-0.267,-0.173,0.783,554.138,-139.222,160.339,
00:00:26:850,-0.283,-0.198,0.804,601.074,-144.532,178.833,
00:00:26:867,-0.305,-0.201,0.793,677.185,-154.664,202.575,
00:00:26:883,-0.331,-0.21,0.83,835.327,-169.251,203.491,
00:00:26:900,-0.335,-0.266,0.838,953.552,-156.067,206.054,
00:00:26:917,-0.333,-0.409,0.802,984.863,-156.373,212.646,
00:00:26:933,-0.345,-0.538,0.719,945.373,-183.716,196.838,
00:00:26:950,-0.368,-0.561,0.741,899.902,-201.477,184.448,
00:00:26:967,-0.405,-0.521,0.777,904.174,-235.474,176.208,
00:00:26:983,-0.427,-0.501,0.797,1012.512,-238.709,128.601,
00:00:27:0,-0.413,-0.559,0.842,1196.533,-242.432,86.486,
00:00:27:17,-0.395,-0.688,0.805,1261.474,-273.926,59.448,
00:00:27:33,-0.42,-0.781,0.725,1214.843,-303.345,28.198,
00:00:27:50,-0.478,-0.786,0.651,1132.263,-317.872,-0.123,
00:00:27:67,-0.533,-0.804,0.614,1067.321,-290.039,-34.852,
00:00:27:83,-0.547,-0.888,0.627,1054.748,-230.225,-71.534,
00:00:27:100,-0.51,-0.973,0.635,981.079,-154.541,-56.336,
00:00:27:117,-0.432,-1.012,0.639,807.861,-101.075,-55.542,
00:00:27:133,-0.381,-1.01,0.601,596.13,-114.502,-62.806,
00:00:27:150,-0.373,-0.964,0.583,466.43,-166.871,-54.322,
00:00:27:167,-0.403,-0.922,0.59,379.882,-186.28,-57.373,
00:00:27:183,-0.432,-0.93,0.623,296.875,-156.067,-63.477,
00:00:27:200,-0.419,-0.903,0.583,245.483,-95.215,-101.685,
00:00:27:217,-0.397,-0.885,0.412,241.882,-65.613,-119.324,
00:00:27:233,-0.413,-0.951,0.301,307.617,-71.9,-119.935,
00:00:27:250,-0.456,-0.994,0.41,219.909,-96.985,-84.168,
00:00:27:267,-0.508,-0.946,0.415,-38.941,-68.421,-72.754,
00:00:27:283,-0.53,-0.904,0.403,-122.681,5.31,-92.652,
00:00:27:300,-0.47,-0.842,0.469,-84.046,93.689,-99.427,breakEggLH
00:00:27:317,-0.378,-0.791,0.474,-59.327,96.374,-109.62,
00:00:27:333,-0.322,-0.745,0.475,-43.519,28.93,-128.968,
00:00:27:350,-0.3,-0.843,0.428,42.114,-6.836,-171.326,
00:00:27:367,-0.319,-0.928,0.396,85.754,-63.416,-128.418,
00:00:27:383,-0.329,-0.916,0.474,-21.546,-78.736,-77.942,
00:00:27:400,-0.306,-0.803,0.554,-90.76,-105.774,-67.688,
00:00:27:417,-0.247,-0.678,0.603,-52.918,-142.762,-60.242,
00:00:27:433,-0.215,-0.738,0.584,-164.917,-225.586,-44.129,
00:00:27:450,-0.224,-0.777,0.526,-239.869,-311.28,-18.311,
00:00:27:467,-0.264,-0.709,0.521,-358.033,-374.878,51.086,
00:00:27:483,-0.318,-0.602,0.503,-430.787,-405.762,113.342,
00:00:27:500,-0.372,-0.481,0.463,-373.047,-455.933,170.349,
00:00:27:517,-0.432,-0.412,0.391,-241.394,-487.915,238.037,
00:00:27:533,-0.491,-0.446,0.303,-93.811,-523.072,317.26,
00:00:27:550,-0.519,-0.553,0.296,-17.029,-501.404,414.001,
00:00:27:567,-0.527,-0.677,0.325,-54.81,-454.773,485.778,
00:00:27:583,-0.514,-0.751,0.323,-189.881,-419.007,531.921,
00:00:27:600,-0.507,-0.779,0.281,-317.261,-364.869,573.181,
00:00:27:617,-0.535,-0.735,0.224,-309.327,-319.336,584.411,
00:00:27:633,-0.581,-0.724,0.225,-231.507,-277.283,590.881,
00:00:27:650,-0.594,-0.768,0.262,-101.38,-154.053,647.705,
00:00:27:667,-0.549,-0.865,0.352,-74.891,-36.805,669.006,
00:00:27:683,-0.486,-1.031,0.344,-198.67,45.715,642.517,
00:00:27:700,-0.462,-1.06,0.315,-279.175,55.908,630.005,
00:00:27:717,-0.464,-1.016,0.377,-225.525,95.581,603.332,
00:00:27:733,-0.463,-0.98,0.448,-10.56,129.943,554.016,
00:00:27:750,-0.429,-1.014,0.509,214.538,150.817,528.381,
00:00:27:767,-0.395,-1.12,0.585,248.657,58.776,390.747,
00:00:27:783,-0.365,-1.209,0.414,122.619,133.85,363.769,
00:00:27:800,-0.342,-1.134,0.384,-121.766,170.41,354.431,
00:00:27:817,-0.318,-1.098,0.4,-286.683,241.394,241.821,
00:00:27:833,-0.236,-1.081,0.431,-206.299,255.066,147.277,
00:00:27:850,-0.169,-1.066,0.483,19.531,180.603,123.413,
00:00:27:867,-0.138,-1.021,0.513,82.824,116.943,140.686,
00:00:27:883,-0.145,-1.016,0.492,19.836,81.237,88.562,
00:00:27:900,-0.169,-1.001,0.491,-139.344,70.617,24.353,
00:00:27:917,-0.172,-0.914,0.425,-233.216,94.177,17.761,
00:00:27:933,-0.151,-0.815,0.456,-261.231,116.15,34.362,
00:00:27:950,-0.135,-0.782,0.46,-204.285,116.699,36.987,
00:00:27:967,-0.129,-0.793,0.501,-50.354,89.294,21.789,
00:00:27:983,-0.144,-0.873,0.526,-12.024,51.208,13.732,
00:00:28:0,-0.175,-0.938,0.535,6.591,46.997,0.793,
00:00:28:17,-0.186,-0.983,0.534,7.995,71.777,-5.799,
00:00:28:33,-0.178,-1.025,0.573,-4.151,81.481,-12.574,
00:00:28:50,-0.16,-1.02,0.552,-5.188,80.322,-18.189,
00:00:28:67,-0.152,-0.96,0.505,-33.204,55.358,-28.016,
00:00:28:83,-0.149,-0.885,0.5,-149.048,65.795,-12.574,
00:00:28:100,-0.159,-0.824,0.449,-167.481,69.274,-15.259,
00:00:28:117,-0.159,-0.786,0.436,-96.497,45.654,-9.4,
00:00:28:133,-0.174,-0.874,0.486,-134.522,33.325,-7.569,
00:00:28:150,-0.186,-0.939,0.505,-167.359,52.368,12.085,
00:00:28:167,-0.168,-0.931,0.533,-203.431,87.951,11.352,
00:00:28:183,-0.133,-0.901,0.539,-240.54,111.45,9.155,
00:00:28:200,-0.092,-0.868,0.565,-236.512,103.027,-7.019,
00:00:28:217,-0.077,-0.786,0.57,-202.759,48.828,-28.565,
00:00:28:233,-0.098,-0.736,0.598,-148.804,-2.137,-46.57,
00:00:28:250,-0.136,-0.732,0.589,-66.102,-22.889,-58.472,
00:00:28:267,-0.167,-0.789,0.601,-15.015,-27.71,-59.327,
00:00:28:283,-0.182,-0.877,0.603,44.921,-22.156,-50.904,
00:00:28:300,-0.176,-0.844,0.563,261.901,-7.508,-7.325,
00:00:28:317,-0.167,-0.92,0.613,358.642,-59.266,-30.457,
00:00:28:333,-0.183,-1.095,0.515,553.833,-131.592,-145.325,
00:00:28:350,-0.209,-1.278,0.518,802.551,-241.944,-350.281,
00:00:28:367,-0.209,-1.466,0.496,974.182,-304.81,-557.984,
00:00:28:383,-0.25,-1.487,0.466,854.431,-310.364,-622.376,
00:00:28:400,-0.289,-1.327,0.435,746.338,-270.569,-726.807,
00:00:28:417,-0.396,-1.098,0.398,609.985,-223.206,-810.364,
00:00:28:433,-0.409,-1.056,0.307,159.057,-150.269,-864.991,
00:00:28:450,-0.452,-0.835,0.236,235.595,-61.463,-850.831,
00:00:28:467,-0.441,-0.774,0.286,171.63,88.806,-780.823,
00:00:28:483,-0.416,-0.75,0.339,47.607,133.85,-728.76,
00:00:28:500,-0.409,-0.703,0.351,-62.867,188.11,-626.099,
00:00:28:517,-0.383,-0.663,0.351,-243.47,234.192,-532.715,
00:00:28:533,-0.356,-0.606,0.333,-358.948,276.794,-442.444,
00:00:28:550,-0.309,-0.577,0.356,-324.707,289.245,-368.714,
00:00:28:567,-0.264,-0.514,0.407,-253.174,281.921,-273.316,
00:00:28:583,-0.257,-0.459,0.465,-198.182,184.875,-194.031,
00:00:28:600,-0.248,-0.438,0.489,-160.523,119.506,-83.68,
00:00:28:617,-0.213,-0.412,0.455,-138.001,154.724,43.823,
00:00:28:633,-0.201,-0.429,0.397,-99.549,128.479,93.933,
00:00:28:650,-0.215,-0.557,0.366,-82.947,139.465,215.698,
00:00:28:667,-0.275,-0.625,0.35,-77.881,179.26,401.733,
00:00:28:683,-0.33,-0.644,0.43,-108.582,239.013,486.816,
00:00:28:700,-0.376,-0.701,0.406,-257.447,303.039,521.911,
00:00:28:717,-0.386,-0.796,0.328,-283.081,365.417,446.167,
00:00:28:733,-0.419,-1.001,0.432,-20.142,310.852,229.065,
00:00:28:750,-0.319,-1.494,1.039,585.754,128.845,16.662,
00:00:28:767,-0.238,-1.66,0.91,576.477,-153.504,-76.783,
00:00:28:783,-0.384,-1.505,0.661,341.186,-357.239,-164.49,
00:00:28:800,-0.553,-1.185,0.492,-54.078,-344.056,-229.615,
00:00:28:817,-0.586,-0.921,0.426,-223.755,-166.504,-296.936,
00:00:28:833,-0.48,-0.819,0.506,-136.78,3.723,-308.716,
00:00:28:850,-0.333,-0.791,0.478,-129.334,20.507,-247.803,
00:00:28:867,-0.299,-0.756,0.406,-218.445,-44.8,-192.078,
00:00:28:883,-0.356,-0.672,0.385,-266.297,-62.623,-164.795,
00:00:28:900,-0.389,-0.572,0.371,-279.847,25.756,-95.704,
00:00:28:917,-0.341,-0.475,0.347,-203.98,124.572,-5.127,
00:00:28:933,-0.267,-0.482,0.385,-107.239,204.04,121.948,
00:00:28:950,-0.245,-0.542,0.46,-113.038,220.642,209.228,
00:00:28:967,-0.303,-0.595,0.364,-315.491,224.121,293.945,
00:00:28:983,-0.388,-0.623,0.212,-315.43,303.65,390.075,
00:00:29:0,-0.402,-0.521,0.322,-215.882,377.258,419.311,
00:00:29:17,-0.384,-0.669,0.388,-51.026,362.915,260.559,
00:00:29:33,-0.196,-1.462,1.27,863.769,60.302,-129.822,
00:00:29:50,-0.237,-1.793,0.857,1051.941,-384.095,-12.94,
00:00:29:67,-0.465,-1.704,0.541,-6.104,-394.227,-131.592,
00:00:29:83,-0.533,-1.141,0.293,-533.631,-144.043,-260.56,
00:00:29:100,-0.45,-0.622,0.374,-717.286,105.163,-298.523,
00:00:29:117,-0.265,-0.508,0.593,-143.86,151.489,-270.752,
00:00:29:133,-0.183,-0.631,0.506,50.842,-86.121,-176.88,
00:00:29:150,-0.292,-0.745,0.485,-2.381,-127.381,-180.298,
00:00:29:167,-0.418,-0.662,0.548,-126.221,-56.946,-111.084,
00:00:29:183,-0.382,-0.518,0.532,-275.208,146.179,55.297,
00:00:29:200,-0.292,-0.39,0.455,-257.447,281.799,216.674,
00:00:29:217,-0.244,-0.4,0.406,-181.092,332.946,338.745,
00:00:29:233,-0.269,-0.554,0.367,-165.528,342.102,382.629,
00:00:29:250,-0.359,-0.636,0.378,-154.419,296.508,327.758,
00:00:29:267,-0.281,-1.308,1.258,486.938,119.384,-100.525,
00:00:29:283,-0.293,-1.746,0.703,654.419,-124.573,-66.346,
00:00:29:300,-0.416,-1.566,0.554,-115.418,-201.294,-108.765,
00:00:29:317,-0.472,-1.059,0.422,-410.95,-103.699,-182.923,
00:00:29:333,-0.418,-0.64,0.534,-418.274,52.551,-228.577,
00:00:29:350,-0.314,-0.544,0.651,-34.18,13.122,-279.297,
00:00:29:367,-0.283,-0.764,0.552,456.482,-149.903,-301.087,
00:00:29:383,-0.397,-0.987,0.534,481.689,-215.577,-316.102,
00:00:29:400,-0.514,-1.054,0.512,301.513,-138.001,-352.295,
00:00:29:417,-0.52,-0.927,0.503,127.685,10.376,-352.723,
00:00:29:433,-0.46,-0.792,0.5,79.773,127.197,-347.657,
00:00:29:450,-0.422,-0.761,0.516,132.873,119.079,-337.281,
00:00:29:467,-0.445,-0.796,0.488,161.01,67.504,-333.191,
00:00:29:483,-0.478,-0.756,0.493,267.944,65.918,-304.627,
00:00:29:500,-0.493,-0.729,0.504,293.213,76.416,-315.308,
00:00:29:517,-0.476,-0.744,0.499,330.993,85.022,-338.99,
00:00:29:533,-0.454,-0.784,0.464,324.951,71.594,-338.562,
00:00:29:550,-0.456,-0.761,0.432,326.049,60.791,-348.938,
00:00:29:567,-0.462,-0.734,0.445,396.118,35.766,-350.22,
00:00:29:583,-0.478,-0.706,0.392,479.614,33.02,-313.843,
00:00:29:600,-0.497,-0.741,0.427,460.022,22.522,-248.108,
00:00:29:617,-0.501,-0.751,0.427,355.468,64.514,-203.614,
00:00:29:633,-0.47,-0.68,0.393,227.966,112.426,-197.51,
00:00:29:650,-0.426,-0.622,0.379,206.909,125.793,-180.603,
00:00:29:667,-0.381,-0.669,0.363,357.605,92.529,-156.25,
00:00:29:683,-0.379,-0.759,0.324,422.973,3.112,-94.361,
00:00:29:700,-0.404,-0.818,0.441,331.787,-26.062,-40.284,
00:00:29:717,-0.356,-0.727,0.618,289.856,-35.401,41.87,
00:00:29:733,-0.314,-0.693,0.561,79.284,-99.183,54.199,
00:00:29:750,-0.341,-0.755,0.36,26.611,-159.974,-15.32,
00:00:29:767,-0.424,-0.827,0.236,171.814,-219.605,-29.541,
00:00:29:783,-0.481,-0.838,0.286,273.742,-205.018,-9.766,
00:00:29:800,-0.5,-0.811,0.201,369.629,-152.344,-29.664,
00:00:29:817,-0.501,-0.951,0.132,413.513,-141.968,-47.486,
00:00:29:833,-0.511,-0.969,0.234,334.777,-144.837,-23.926,
00:00:29:850,-0.523,-0.929,0.31,87.707,-110.962,-33.753,
00:00:29:867,-0.512,-0.848,0.264,-2.93,-74.952,-39.49,
00:00:29:883,-0.495,-0.785,0.237,-4.578,-40.406,-35.889,
00:00:29:900,-0.442,-0.801,0.351,145.263,-32.166,-32.105,
00:00:29:917,-0.377,-0.889,0.331,153.137,-50.782,-10.865,
00:00:29:933,-0.421,-0.981,0.309,67.016,-51.819,-18.128,
00:00:29:950,-0.456,-0.969,0.337,8.117,-41.016,15.747,
00:00:29:967,-0.471,-0.929,0.321,-74.83,13.244,40.466,
00:00:29:983,-0.449,-0.881,0.315,-69.336,57.434,21.789,
00:00:30:0,-0.433,-0.854,0.265,-43.335,60.424,14.77,
00:00:30:17,-0.473,-0.937,0.255,-21.363,12.451,-6.043,
00:00:30:33,-0.548,-0.969,0.246,-56.824,2.014,-1.221,
00:00:30:50,-0.602,-0.971,0.283,-131.836,31.616,13.671,
00:00:30:67,-0.585,-0.93,0.311,-188.965,109.192,16.906,
00:00:30:83,-0.52,-0.96,0.323,-246.582,138.733,24.475,
00:00:30:100,-0.475,-0.943,0.305,-312.623,102.234,31.982,
00:00:30:117,-0.471,-0.9,0.304,-314.515,47.241,-4.212,
00:00:30:133,-0.49,-0.895,0.389,-284.18,-6.958,-31.739,
00:00:30:150,-0.493,-0.84,0.39,-304.505,22.155,3.845,
00:00:30:167,-0.471,-0.8,0.413,-281.128,40.283,-4.761,
00:00:30:183,-0.468,-0.836,0.392,-272.644,26.184,-2.381,
00:00:30:200,-0.497,-0.946,0.347,-317.2,32.959,-15.137,
00:00:30:217,-0.523,-1.066,0.355,-423.035,47.851,-21.119,
00:00:30:233,-0.544,-1.144,0.358,-715.577,89.965,-23.316,
00:00:30:250,-0.572,-1.187,0.439,-1105.652,136.901,-51.148,
00:00:30:267,-0.577,-1.106,0.464,-1493.165,205.688,-88.99,
00:00:30:283,-0.566,-0.888,0.457,-1741.578,299.072,-100.281,
00:00:30:300,-0.537,-0.742,0.452,-1741.639,354.98,-124.268,
00:00:30:317,-0.51,-0.637,0.531,-1601.38,321.594,-158.326,
00:00:30:333,-0.496,-0.598,0.577,-1459.29,309.753,-169.007,
00:00:30:350,-0.493,-0.558,0.612,-1344.483,292.663,-183.106,
00:00:30:367,-0.487,-0.557,0.698,-1262.574,280.029,-201.844,
00:00:30:383,-0.483,-0.503,0.739,-1201.6,278.747,-227.173,
00:00:30:400,-0.468,-0.4,0.773,-1101.807,267.151,-245.85,
00:00:30:417,-0.442,-0.318,0.768,-965.455,232.727,-265.87,
00:00:30:433,-0.412,-0.275,0.762,-817.383,188.049,-259.766,
00:00:30:450,-0.375,-0.211,0.823,-691.773,164.245,-238.16,
00:00:30:467,-0.347,-0.211,0.862,-596.131,119.567,-229.432,
00:00:30:483,-0.343,-0.258,0.897,-526.734,53.711,-245.484,
00:00:30:500,-0.362,-0.25,0.889,-509.583,33.569,-227.784,
00:00:30:517,-0.381,-0.175,0.846,-514.954,25.024,-200.745,
00:00:30:533,-0.39,-0.097,0.834,-468.506,22.644,-177.674,
00:00:30:550,-0.391,-0.069,0.821,-389.222,24.353,-144.959,
00:00:30:567,-0.384,-0.092,0.829,-295.044,14.953,-131.836,
00:00:30:583,-0.388,-0.149,0.84,-241.761,3.723,-127.93,
00:00:30:600,-0.399,-0.16,0.847,-206.849,11.169,-104.859,
00:00:30:617,-0.399,-0.119,0.818,-179.871,24.414,-69.703,
00:00:30:633,-0.398,-0.072,0.805,-135.498,23.559,-56.824,
00:00:30:650,-0.398,-0.08,0.796,-88.379,26.916,-64.454,
00:00:30:667,-0.389,-0.089,0.794,-49.5,39.367,-68.36,
00:00:30:683,-0.378,-0.097,0.802,-44.495,39.123,-52.124,
00:00:30:700,-0.372,-0.088,0.831,-52.124,31.433,-30.03,
00:00:30:717,-0.367,-0.047,0.88,-74.585,33.386,-10.01,
00:00:30:733,-0.361,0.015,0.897,-37.415,22.216,18.859,
00:00:30:750,-0.361,0.057,0.905,68.298,-3.357,45.41,
00:00:30:767,-0.364,0.043,0.889,203.857,-27.283,70.983,
00:00:30:783,-0.373,-0.04,0.866,297.912,-46.936,83.618,
00:00:30:800,-0.388,-0.127,0.845,302.185,-50.049,98.205,
00:00:30:817,-0.406,-0.155,0.846,270.752,-39.551,108.215,
00:00:30:833,-0.402,-0.13,0.876,294.922,-23.804,118.469,
00:00:30:850,-0.397,-0.093,0.895,390.503,-29.847,124.328,
00:00:30:867,-0.389,-0.105,0.853,545.898,-47.12,131.408,
00:00:30:883,-0.39,-0.172,0.811,643.31,-79.041,143.249,
00:00:30:900,-0.395,-0.245,0.765,690.063,-87.281,151.855,
00:00:30:917,-0.44,-0.29,0.728,713.501,-111.939,148.803,
00:00:30:933,-0.484,-0.324,0.736,752.075,-112.061,148.01,
00:00:30:950,-0.497,-0.31,0.752,802.124,-68.726,179.016,
00:00:30:967,-0.475,-0.317,0.787,838.073,-38.208,176.086,
00:00:30:983,-0.425,-0.373,0.822,883.178,-12.696,153.381,
00:00:31:0,-0.389,-0.408,0.77,952.087,-26.551,151.794,
00:00:31:17,-0.386,-0.425,0.708,1022.827,-81.604,156.128,
00:00:31:33,-0.419,-0.46,0.65,1103.759,-151.856,171.264,
00:00:31:50,-0.456,-0.507,0.599,1145.202,-171.143,163.574,
00:00:31:67,-0.464,-0.595,0.568,1166.137,-130.249,160.522,
00:00:31:83,-0.431,-0.688,0.601,1157.226,-99.122,138,
00:00:31:100,-0.397,-0.762,0.623,1117.126,-108.887,100.586,
00:00:31:117,-0.388,-0.797,0.62,1106.262,-158.143,77.941,
00:00:31:133,-0.405,-0.836,0.535,1054.077,-218.384,53.894,
00:00:31:150,-0.443,-0.95,0.484,929.809,-246.338,51.086,
00:00:31:167,-0.505,-0.931,0.508,740.417,-254.944,69.641,
00:00:31:183,-0.555,-0.892,0.611,662.536,-200.745,45.105,
00:00:31:200,-0.529,-0.936,0.592,615.661,-93.079,3.662,
00:00:31:217,-0.482,-0.999,0.536,523.376,-73.365,21.484,
00:00:31:233,-0.463,-0.997,0.499,444.702,-90.455,32.47,
00:00:31:250,-0.466,-0.918,0.499,303.466,-89.051,27.587,
00:00:31:267,-0.456,-0.953,0.467,304.504,-65.735,-24.659,
00:00:31:283,-0.457,-1.034,0.481,318.237,-84.839,-56.885,
00:00:31:300,-0.461,-1.053,0.556,251.953,-93.384,-72.205,
00:00:31:317,-0.435,-1.015,0.531,140.747,-67.872,-87.037,breakEggLH
00:00:31:333,-0.401,-0.975,0.507,105.102,-54.139,-90.149,
00:00:31:350,-0.359,-0.951,0.495,52.673,-80.811,-80.75,
00:00:31:367,-0.354,-0.969,0.386,-30.335,-115.174,-63.843,
00:00:31:383,-0.371,-0.988,0.476,-128.357,-170.899,-58.533,
00:00:31:400,-0.361,-0.927,0.486,-319.947,-125.794,-47.974,
00:00:31:417,-0.333,-0.861,0.482,-476.807,-98.084,-21.607,
00:00:31:433,-0.301,-0.762,0.507,-555.481,-101.38,44.128,
00:00:31:450,-0.292,-0.66,0.468,-580.14,-133.484,65.124,
00:00:31:467,-0.317,-0.582,0.48,-538.758,-172.059,108.764,
00:00:31:483,-0.343,-0.552,0.453,-405.884,-193.299,173.278,
00:00:31:500,-0.354,-0.509,0.423,-252.686,-205.628,250.366,
00:00:31:517,-0.354,-0.522,0.344,-135.621,-205.445,323.669,
00:00:31:533,-0.352,-0.615,0.338,-76.477,-217.225,385.376,
00:00:31:550,-0.387,-0.749,0.28,-161.56,-274.476,454.467,
00:00:31:567,-0.467,-0.84,0.278,-337.525,-326.111,469.726,
00:00:31:583,-0.504,-0.839,0.29,-510.315,-223.816,515.564,
00:00:31:600,-0.488,-0.729,0.288,-534.729,-62.439,518.615,
00:00:31:617,-0.42,-0.668,0.337,-396.79,33.447,520.263,
00:00:31:633,-0.393,-0.723,0.387,-301.941,-7.569,547.18,
00:00:31:650,-0.453,-0.853,0.416,-272.828,-87.281,544.555,
00:00:31:667,-0.548,-0.881,0.408,-252.259,-75.257,544.311,
00:00:31:683,-0.6,-0.864,0.39,-247.681,-0.977,548.462,
00:00:31:700,-0.581,-0.83,0.395,-167.176,113.708,538.025,
00:00:31:717,-0.528,-0.914,0.467,-135.865,157.287,531.982,
00:00:31:733,-0.473,-1.056,0.549,-136.475,139.404,468.139,
00:00:31:750,-0.426,-1.114,0.631,-248.475,130.371,399.841,
00:00:31:767,-0.398,-1.016,0.724,-345.276,112.854,349.365,
00:00:31:783,-0.332,-1.036,0.673,-443.299,169.25,277.771,
00:00:31:800,-0.249,-0.95,0.625,-245.057,211.242,243.469,
00:00:31:817,-0.167,-0.952,0.617,-129.456,182.251,199.463,
00:00:31:833,-0.126,-0.982,0.559,-205.994,151.245,128.845,
00:00:31:850,-0.108,-0.937,0.592,-239.563,133.545,56.03,
00:00:31:867,-0.104,-0.873,0.669,-269.288,134.521,15.441,
00:00:31:883,-0.119,-0.816,0.685,-229.615,110.901,-6.287,
00:00:31:900,-0.123,-0.763,0.659,-95.826,91.369,-13.794,
00:00:31:917,-0.127,-0.744,0.644,-5.555,56.152,-27.832,
00:00:31:933,-0.149,-0.794,0.635,8.972,34.179,-31.25,
00:00:31:950,-0.165,-0.81,0.622,1.709,27.587,-25.33,
00:00:31:967,-0.174,-0.819,0.664,-111.451,69.946,22.461,
00:00:31:983,-0.166,-0.74,0.726,-126.038,67.688,28.991,
00:00:32:0,-0.162,-0.775,0.742,78.796,-19.349,-18.616,
00:00:32:17,-0.169,-0.811,0.695,99.365,-61.402,-6.958,
00:00:32:33,-0.186,-0.848,0.619,70.922,-46.509,-13.245,
00:00:32:50,-0.182,-0.793,0.582,41.381,-29.236,-11.597,
00:00:32:67,-0.173,-0.723,0.588,20.263,-8.667,-10.193,
00:00:32:83,-0.184,-0.771,0.607,-1.099,5.676,-20.02,
00:00:32:100,-0.181,-0.802,0.624,26.916,42.358,-21.973,
00:00:32:117,-0.161,-0.813,0.634,16.113,59.265,-17.884,
00:00:32:133,-0.143,-0.787,0.613,14.404,49.316,-20.264,
00:00:32:150,-0.145,-0.804,0.637,25.39,19.409,-31.861,
00:00:32:167,-0.15,-0.793,0.638,74.951,-7.691,-45.594,
00:00:32:183,-0.157,-0.789,0.649,102.295,-15.015,-36.927,
00:00:32:200,-0.176,-0.807,0.61,143.432,-23.316,-55.603,
00:00:32:217,-0.198,-0.832,0.605,277.954,-49.866,-99.244,
00:00:32:233,-0.235,-0.913,0.581,448.425,-95.704,-140.931,
00:00:32:250,-0.232,-1.055,0.598,610.901,-122.193,-276.062,
00:00:32:267,-0.22,-1.251,0.58,801.818,-159.485,-423.34,
00:00:32:283,-0.233,-1.552,0.518,592.712,-204.59,-660.218,
00:00:32:300,-0.305,-1.317,0.574,227.05,-263.184,-762.513,
00:00:32:317,-0.396,-1.155,0.419,15.869,-146.119,-821.9,
00:00:32:333,-0.412,-0.932,0.481,25.329,-162.964,-914.368,
00:00:32:350,-0.434,-0.771,0.467,90.148,-108.887,-946.839,
00:00:32:367,-0.455,-0.715,0.49,70.068,-74.158,-936.036,
00:00:32:383,-0.472,-0.654,0.534,12.329,-5.372,-881.287,
00:00:32:400,-0.484,-0.525,0.505,-117.066,55.908,-799.622,
00:00:32:417,-0.476,-0.409,0.459,-182.312,118.042,-697.937,
00:00:32:433,-0.438,-0.345,0.424,-112.122,201.782,-565.491,
00:00:32:450,-0.39,-0.341,0.426,-28.931,242.553,-421.448,
00:00:32:467,-0.347,-0.369,0.433,33.813,269.836,-281.861,
00:00:32:483,-0.388,-0.326,0.492,-282.41,290.344,134.826,
00:00:32:500,-0.307,-0.378,0.498,-333.313,446.472,284.973,
00:00:32:517,-0.162,-0.482,0.515,-290.65,519.592,363.525,
00:00:32:533,-0.117,-0.548,0.474,-237.183,508.3,462.951,
00:00:32:550,-0.13,-0.58,0.429,-209.656,452.087,576.11,
00:00:32:567,-0.275,-0.965,0.666,-117.92,451.11,372.863,
00:00:32:583,-0.174,-1.229,0.907,173.828,352.295,121.643,
00:00:32:600,-0.163,-1.773,1.031,644.836,-25.635,-216.614,
00:00:32:617,-0.391,-1.849,0.94,458.313,-377.625,-111.756,
00:00:32:633,-0.612,-1.242,0.884,-331.116,-308.106,-100.769,
00:00:32:650,-0.275,-0.351,0.723,38.696,7.385,-275.452,
00:00:32:667,-0.196,-0.678,0.726,394.775,-198.792,-265.748,
00:00:32:683,-0.307,-0.832,0.685,230.651,-301.026,-203.431,
00:00:32:700,-0.416,-0.76,0.645,-165.039,-155.213,-132.813,
00:00:32:717,-0.393,-0.516,0.557,-413.758,45.166,-28.809,
00:00:32:733,-0.272,-0.459,0.542,-92.896,292.419,340.637,
00:00:32:750,-0.322,-0.611,0.477,-165.528,383.789,400.207,
00:00:32:767,-0.387,-0.427,0.467,-220.032,339.111,301.757,
00:00:32:783,-0.318,-0.931,1.008,657.714,148.681,-121.827,
00:00:32:800,-0.336,-1.641,1.067,788.33,-122.559,-96.375,
00:00:32:817,-0.345,-1.734,0.848,-1.465,-129.883,-120.545,
00:00:32:833,-0.435,-1.087,0.6,-566.04,-110.291,-97.229,
00:00:32:850,-0.429,-0.531,0.525,-683.167,-35.096,-151.856,
00:00:32:867,-0.407,-0.292,0.673,-444.336,-41.077,-222.535,
00:00:32:883,-0.337,-0.457,0.717,296.02,-112.366,-228.272,
00:00:32:900,-0.319,-0.77,0.663,462.829,-224.549,-233.826,
00:00:32:917,-0.41,-1,0.589,291.565,-197.144,-265.931,
00:00:32:933,-0.491,-0.962,0.578,135.315,-113.465,-279.114,
00:00:32:950,-0.495,-0.775,0.549,84.777,-8.484,-270.142,
00:00:32:967,-0.442,-0.682,0.522,206.054,51.025,-299.439,
00:00:32:983,-0.39,-0.613,0.456,426.147,88.134,-293.091,
00:00:33:0,-0.394,-0.649,0.445,562.194,33.63,-342.957,
00:00:33:17,-0.45,-0.735,0.472,696.35,2.624,-393.555,
00:00:33:33,-0.506,-0.727,0.428,729.553,15.686,-370.667,
00:00:33:50,-0.526,-0.705,0.423,759.887,46.142,-353.516,
00:00:33:67,-0.506,-0.686,0.446,771.545,97.412,-312.867,
00:00:33:83,-0.483,-0.655,0.474,741.088,80.871,-293.03,
00:00:33:100,-0.455,-0.636,0.485,771.728,60.302,-249.451,
00:00:33:117,-0.438,-0.61,0.461,803.711,38.94,-191.529,
00:00:33:133,-0.408,-0.635,0.401,836.547,31.433,-161.805,
00:00:33:150,-0.395,-0.703,0.373,835.449,-9.339,-148.255,
00:00:33:167,-0.383,-0.771,0.433,834.533,-34.302,-104.31,
00:00:33:183,-0.345,-0.696,0.507,886.108,-161.866,-15.137,
00:00:33:200,-0.322,-0.855,0.548,765.075,-237.854,-31.556,
00:00:33:217,-0.323,-0.971,0.427,583.557,-209.534,-44.983,
00:00:33:233,-0.381,-0.942,0.253,287.536,-247.742,-31.189,
00:00:33:250,-0.441,-0.909,0.2,285.156,-192.078,-64.637,
00:00:33:267,-0.462,-0.872,0.126,485.962,-149.048,-54.688,
00:00:33:283,-0.475,-1.004,0.082,596.74,-120.484,-56.885,
00:00:33:300,-0.515,-1.184,0.125,399.414,-53.467,-51.026,
00:00:33:317,-0.536,-1.155,0.213,57.128,20.385,-39.246,
00:00:33:334,-0.5,-1.033,0.234,-242.798,111.572,-14.527,
00:00:33:350,-0.441,-0.909,0.289,-337.159,138.427,-5.677,
00:00:33:367,-0.411,-0.809,0.317,-293.58,111.938,9.155,
00:00:33:384,-0.406,-0.728,0.403,-75.867,39.55,42.663,
00:00:33:400,-0.419,-0.793,0.423,31.616,-16.785,60.363,
00:00:33:417,-0.443,-0.947,0.339,26.062,-24.414,47.607,
00:00:33:434,-0.463,-0.976,0.251,-8.789,-16.724,56.274,
00:00:33:450,-0.462,-0.94,0.202,-101.563,36.193,56.03,
00:00:33:467,-0.45,-0.972,0.167,-180.176,87.219,51.574,
00:00:33:484,-0.454,-1.015,0.188,-183.411,99.67,57.373,
00:00:33:500,-0.465,-0.996,0.244,-301.209,106.872,79.65,
00:00:33:517,-0.472,-0.982,0.283,-428.772,129.211,75.561,
00:00:33:534,-0.458,-0.955,0.311,-516.663,145.752,80.871,
00:00:33:550,-0.436,-0.937,0.356,-606.446,130.92,66.406,
00:00:33:567,-0.432,-0.919,0.34,-701.783,116.943,64.636,
00:00:33:584,-0.459,-0.889,0.327,-688.416,90.026,37.597,
00:00:33:600,-0.475,-0.832,0.392,-625.061,110.412,42.663,
00:00:33:617,-0.464,-0.866,0.477,-550.415,137.146,49.682,
00:00:33:634,-0.409,-0.995,0.486,-577.454,158.325,59.082,
00:00:33:650,-0.439,-1.132,0.459,-809.266,143.493,67.138,
00:00:33:667,-0.467,-1.175,0.453,-1206.482,148.681,75.622,
00:00:33:684,-0.502,-1.088,0.468,-1551.148,183.41,76.904,
00:00:33:700,-0.518,-0.9,0.451,-1777.283,292.358,16.845,
00:00:33:717,-0.498,-0.748,0.46,-1723.267,359.497,-17.579,
00:00:33:734,-0.461,-0.626,0.528,-1503.724,375.549,-41.81,
00:00:33:750,-0.428,-0.579,0.559,-1275.025,342.346,-74.952,
00:00:33:767,-0.41,-0.579,0.624,-1091.309,305.297,-123.841,
00:00:33:784,-0.39,-0.599,0.747,-997.193,285.278,-198.853,
00:00:33:800,-0.358,-0.549,0.844,-984.009,259.46,-237.915,
00:00:33:817,-0.333,-0.488,0.825,-946.106,225.891,-248.475,
00:00:33:834,-0.301,-0.358,0.861,-881.531,189.209,-216.004,
00:00:33:850,-0.273,-0.318,0.901,-834.595,123.413,-194.153,
00:00:33:867,-0.269,-0.259,0.917,-762.757,70.617,-197.937,
00:00:33:884,-0.287,-0.24,0.91,-623.291,31.127,-214.112,
00:00:33:900,-0.33,-0.281,0.916,-431.519,-19.288,-215.455,
00:00:33:917,-0.332,-0.272,0.884,-421.936,-17.395,-205.323,
00:00:33:934,-0.326,-0.21,0.879,-419.251,-12.33,-180.664,
00:00:33:950,-0.317,-0.147,0.832,-359.925,-14.954,-168.641,
00:00:33:967,-0.321,-0.12,0.841,-306.58,-42.908,-173.523,
00:00:33:984,-0.312,-0.108,0.816,-181.702,-24.476,-126.465,
00:00:34:0,-0.319,-0.049,0.797,-106.019,-28.321,-94.544,
00:00:34:17,-0.32,0.012,0.795,19.897,-25.33,-56.702,
00:00:34:34,-0.311,-0.005,0.8,107.36,-12.391,-38.086,
00:00:34:50,-0.305,-0.058,0.778,140.564,-8.912,-18.433,
00:00:34:67,-0.306,-0.081,0.81,131.958,-7.264,14.038,
00:00:34:84,-0.315,-0.068,0.815,136.718,-5.555,38.086,
00:00:34:100,-0.313,-0.072,0.869,160.644,7.568,65.063,
00:00:34:117,-0.312,-0.084,0.888,214.416,8.422,92.102,
00:00:34:134,-0.317,-0.127,0.879,284.362,-1.526,112.243,
00:00:34:150,-0.325,-0.182,0.852,300.964,-6.714,124.511,
00:00:34:167,-0.305,-0.154,0.846,464.721,-30.335,144.531,
00:00:34:184,-0.326,-0.149,0.837,655.151,-82.276,142.883,
00:00:34:200,-0.346,-0.178,0.833,834.411,-128.724,148.071,
00:00:34:217,-0.369,-0.282,0.783,921.875,-145.264,142.089,
00:00:34:234,-0.386,-0.404,0.749,925.476,-126.587,156.433,
00:00:34:250,-0.371,-0.454,0.74,870.178,-90.088,182.861,
00:00:34:267,-0.361,-0.439,0.756,812.5,-93.873,211.486,
00:00:34:284,-0.368,-0.446,0.783,847.778,-122.986,217.773,
00:00:34:300,-0.398,-0.523,0.766,925.903,-140.931,223.022,
00:00:34:317,-0.4,-0.561,0.768,1023.62,-139.893,206.848,
00:00:34:334,-0.366,-0.575,0.76,1097.168,-134.461,228.698,breakEggLH
00:00:34:350,-0.446,-0.809,0.569,1057.678,-176.209,122.192,
00:00:34:367,-0.456,-0.829,0.554,1063.293,-159.79,109.314,
00:00:34:384,-0.446,-0.851,0.515,1086.364,-138.916,51.696,
00:00:34:400,-0.43,-0.914,0.484,1067.871,-116.394,20.324,
00:00:34:417,-0.425,-0.999,0.484,981.689,-110.108,-6.165,
00:00:34:434,-0.428,-1.042,0.49,805.908,-98.023,-2.869,
00:00:34:450,-0.452,-1.053,0.47,609.863,-83.863,-9.705,
00:00:34:467,-0.464,-1.049,0.44,452.758,-44.922,-44.129,
00:00:34:484,-0.451,-1.016,0.456,330.017,3.356,-27.832,
00:00:34:500,-0.402,-0.97,0.529,222.9,46.936,-9.461,
00:00:34:517,-0.354,-0.941,0.585,159.912,34.729,-25.574,
00:00:34:534,-0.354,-0.855,0.518,300.72,-115.235,-82.764,
00:00:34:550,-0.38,-0.912,0.463,361.328,-161.194,-107.056,
00:00:34:567,-0.415,-0.978,0.44,394.47,-175.232,-107.056,
00:00:34:584,-0.438,-0.984,0.424,298.706,-137.207,-101.136,
00:00:34:600,-0.425,-0.959,0.383,202.148,-65.979,-121.094,
00:00:34:617,-0.338,-0.955,0.305,151.611,-16.724,-165.955,
00:00:34:634,-0.319,-0.938,0.338,191.894,-40.345,-186.829,
00:00:34:650,-0.318,-0.983,0.356,85.205,-64.637,-200.501,
00:00:34:667,-0.317,-1.017,0.387,-15.503,-85.938,-205.994,
00:00:34:684,-0.294,-0.935,0.427,-114.075,-99.305,-161.988,
00:00:34:700,-0.239,-0.707,0.431,-263.611,-269.532,-58.472,
00:00:34:717,-0.296,-0.724,0.445,-267.762,-342.713,2.563,
00:00:34:734,-0.356,-0.704,0.394,-342.347,-367.981,81.237,
00:00:34:750,-0.415,-0.682,0.35,-415.039,-383.606,147.338,
00:00:34:767,-0.458,-0.643,0.311,-407.959,-380.494,230.346,
00:00:34:784,-0.476,-0.685,0.294,-373.108,-349.671,333.801,
00:00:34:800,-0.472,-0.777,0.288,-302.43,-321.351,401.611,
00:00:34:817,-0.463,-0.762,0.286,-237.915,-302.796,420.105,
00:00:34:834,-0.466,-0.658,0.315,-153.809,-299.012,444.458,
00:00:34:850,-0.473,-0.649,0.332,49.743,-319.214,484.497,
00:00:34:867,-0.482,-0.742,0.317,182.556,-324.585,522.827,
00:00:34:884,-0.509,-0.922,0.168,-394.837,-183.899,564.514,
