TIMECODE,ACC_X,ACC_Y,ACC_Z,GYR_X,GYR_Y,GYR_Z,ECG_I,ECG_II,ECG_III,TAG
,-0.077,-0.892,0.513,1.831,12.756,-22.767,0,0,0,
,-0.079,-0.892,0.508,1.403,13.305,-22.461,0,0,0,
,-0.082,-0.892,0.51,4.882,12.451,-23.072,0,0,0,
,-0.079,-0.891,0.508,9.399,9.826,-24.903,0,0,0,
,-0.082,-0.887,0.513,10.559,9.643,-25.147,0,0,0,
,-0.081,-0.885,0.509,5.859,10.925,-23.743,0,0,0,
,-0.082,-0.893,0.505,4.882,8.911,-22.034,0,0,0,
,-0.079,-0.886,0.511,8.117,8.117,-21.058,0,0,0,
,-0.08,-0.886,0.508,7.019,10.986,-20.142,0,0,0,
,-0.082,-0.894,0.511,7.507,9.826,-20.325,0,0,0,
,-0.08,-0.893,0.512,6.042,12.634,-21.424,0,0,0,
,-0.078,-0.891,0.508,5.31,10.376,-21.79,0,0,0,
,-0.081,-0.886,0.505,4.882,6.103,-21.607,0,0,0,
,-0.085,-0.887,0.505,6.469,8.972,-20.203,0,0,0,
,-0.088,-0.889,0.505,2.502,11.291,-22.034,0,0,0,
,-0.079,-0.898,0.517,3.418,13.916,-21.912,0,0,0,
,-0.077,-0.887,0.512,2.014,14.099,-19.715,0,0,0,
,-0.076,-0.88,0.507,7.324,8.178,-19.288,0,0,0,
,-0.083,-0.885,0.511,12.695,5.737,-20.874,0,0,0,
,-0.085,-0.89,0.505,11.718,8.056,-19.837,0,0,0,
,-0.084,-0.896,0.511,9.338,11.352,-19.898,0,0,0,
,-0.077,-0.894,0.509,7.019,14.587,-18.372,0,0,0,
,-0.076,-0.885,0.507,5.92,8.056,-18.921,0,0,0,
,-0.082,-0.886,0.503,7.69,7.446,-18.921,0,0,0,
,-0.084,-0.895,0.51,7.385,12.451,-19.227,0,0,0,
,-0.076,-0.894,0.514,4.211,15.991,-18.433,0,0,0,
,-0.07,-0.886,0.513,8.544,9.399,-19.532,0,0,0,
,-0.078,-0.889,0.51,15.38,3.173,-21.363,0,0,0,
,-0.085,-0.889,0.505,16.967,2.563,-20.508,0,0,0,
,-0.088,-0.89,0.502,14.465,8.911,-19.654,0,0,0,
,-0.081,-0.898,0.503,8.239,12.756,-19.349,0,0,0,
,-0.078,-0.899,0.507,2.258,10.07,-17.518,0,0,0,
,-0.078,-0.891,0.507,1.648,10.376,-20.63,0,0,0,
,-0.079,-0.888,0.513,2.319,10.131,-20.874,0,0,0,
,-0.081,-0.886,0.511,8.85,7.69,-20.691,0,0,0,
,-0.08,-0.885,0.509,14.099,9.155,-17.945,0,0,0,
,-0.079,-0.89,0.503,15.747,9.033,-17.395,0,0,0,
,-0.081,-0.896,0.509,15.747,10.742,-17.395,0,0,0,
,-0.078,-0.895,0.51,11.108,10.131,-19.471,0,0,0,
,-0.075,-0.892,0.506,11.169,7.873,-18.189,0,0,0,
,-0.076,-0.89,0.508,12.207,3.601,-18.372,0,0,0,
,-0.083,-0.888,0.506,15.319,3.479,-18.677,0,0,0,
,-0.084,-0.9,0.505,13.977,5.737,-19.227,0,0,0,
,-0.08,-0.897,0.5,8.239,11.352,-18.616,0,0,0,
,-0.077,-0.893,0.497,2.502,10.498,-21.607,0,0,0,
,-0.08,-0.895,0.508,-0.184,9.399,-20.752,0,0,0,
,-0.079,-0.891,0.512,-2.747,10.803,-19.959,0,0,0,
,-0.079,-0.891,0.513,0.366,10.376,-20.203,0,0,0,
,-0.077,-0.884,0.509,7.873,7.507,-21.424,0,0,0,
,-0.082,-0.89,0.507,9.46,6.469,-20.935,0,0,0,
,-0.083,-0.893,0.509,10.437,10.192,-18.555,0,0,0,
,-0.08,-0.888,0.504,10.009,9.155,-18.433,0,0,0,
,-0.079,-0.898,0.509,7.934,9.765,-20.325,0,0,0,
,-0.078,-0.894,0.5,4.211,9.216,-19.654,0,0,0,
,-0.077,-0.891,0.51,5.981,12.207,-20.081,0,0,0,
,-0.079,-0.887,0.506,8.178,8.422,-20.63,0,0,0,
,-0.08,-0.889,0.505,8.972,5.798,-21.851,0,0,0,
,-0.085,-0.891,0.505,9.521,5.554,-20.508,0,0,0,
,-0.08,-0.897,0.501,6.103,11.779,-19.959,0,0,0,
,-0.079,-0.901,0.507,0.732,13.427,-18.372,0,0,0,
,-0.076,-0.894,0.508,-2.747,11.413,-21.668,0,0,0,
,-0.076,-0.892,0.51,-0.611,8.606,-23.072,0,0,0,
,-0.074,-0.886,0.513,2.929,9.765,-20.874,0,0,0,
,-0.075,-0.886,0.511,12.146,6.286,-22.217,0,0,0,
,-0.083,-0.891,0.504,15.93,3.173,-21.302,0,0,0,
,-0.084,-0.898,0.503,14.343,6.652,-21.729,0,0,0,
,-0.082,-0.902,0.501,4.821,10.498,-20.691,0,0,0,
,-0.077,-0.893,0.503,0.122,7.812,-21.973,0,0,0,
,-0.077,-0.894,0.505,-1.893,8.667,-22.278,0,0,0,
,-0.078,-0.889,0.51,-1.465,7.995,-21.363,0,0,0,
,-0.078,-0.888,0.509,3.967,9.46,-21.119,0,0,0,
,-0.08,-0.885,0.509,8.3,6.408,-21.18,0,0,0,
,-0.08,-0.89,0.507,10.925,8.361,-22.461,0,0,0,
,-0.08,-0.891,0.502,10.864,8.667,-20.203,0,0,0,
,-0.076,-0.894,0.507,7.446,9.765,-19.471,0,0,0,
,-0.076,-0.897,0.509,6.103,8.422,-19.837,0,0,0,
,-0.079,-0.895,0.507,3.601,5.981,-19.593,0,0,0,
,-0.082,-0.891,0.505,0.976,7.202,-21.424,0,0,0,
,-0.081,-0.891,0.499,-3.113,9.155,-22.217,0,0,0,
,-0.08,-0.893,0.503,-6.043,11.474,-23.255,0,0,0,
,-0.081,-0.894,0.511,-7.63,12.329,-20.874,0,0,0,
,-0.079,-0.889,0.509,-5.555,13,-23.133,0,0,0,
,-0.077,-0.885,0.508,-4.273,9.948,-23.255,0,0,0,
,-0.08,-0.883,0.507,1.098,7.751,-22.767,0,0,0,
,-0.083,-0.887,0.513,4.333,9.216,-20.935,0,0,0,
,-0.081,-0.887,0.51,6.286,10.315,-19.104,0,0,0,
,-0.075,-0.891,0.511,9.582,9.704,-20.386,0,0,0,
,-0.076,-0.891,0.506,6.286,8.117,-19.898,0,0,0,
,-0.078,-0.893,0.509,7.019,6.225,-21.485,0,0,0,
,-0.08,-0.889,0.506,4.089,7.934,-20.935,0,0,0,
,-0.083,-0.892,0.511,2.624,8.972,-22.583,0,0,0,
,-0.081,-0.891,0.509,2.685,10.681,-22.156,0,0,0,
,-0.077,-0.894,0.513,2.929,8.728,-22.95,0,0,0,
,-0.081,-0.889,0.51,5.798,8.361,-22.583,0,0,0,
,-0.081,-0.885,0.506,3.845,7.69,-22.034,0,0,0,
,-0.082,-0.889,0.504,7.324,9.216,-22.706,0,0,0,
,-0.08,-0.891,0.514,3.601,10.009,-21.363,0,0,0,
,-0.078,-0.891,0.516,4.15,11.474,-22.034,0,0,0,
,-0.077,-0.892,0.511,4.516,7.08,-21.119,0,0,0,
,-0.078,-0.884,0.509,5.859,6.286,-23.377,0,0,0,
,-0.085,-0.889,0.504,7.08,6.774,-22.156,0,0,0,
,-0.084,-0.894,0.512,5.432,8.544,-22.522,0,0,0,
,-0.082,-0.891,0.512,2.563,8.972,-23.072,0,0,0,
,-0.079,-0.891,0.51,2.38,10.131,-22.278,0,0,0,
,-0.075,-0.896,0.513,1.525,8.606,-21.485,0,0,0,
,-0.079,-0.883,0.514,2.99,7.141,-22.889,0,0,0,
,-0.081,-0.884,0.511,5.676,4.15,-22.706,0,0,0,
,-0.083,-0.89,0.512,7.019,7.507,-22.583,0,0,0,
,-0.079,-0.887,0.507,6.469,8.239,-21.302,0,0,0,
,-0.08,-0.891,0.511,7.812,4.272,-20.997,0,0,0,
,-0.082,-0.892,0.51,5.981,6.652,-22.706,0,0,0,
,-0.079,-0.892,0.515,5.432,7.202,-23.072,0,0,0,
,-0.08,-0.89,0.512,1.464,6.347,-22.034,0,0,0,
,-0.078,-0.884,0.512,3.784,2.746,-22.095,0,0,0,
,-0.085,-0.885,0.51,7.202,4.699,-21.546,0,0,0,
,-0.086,-0.888,0.507,7.507,6.042,-22.095,0,0,0,
,-0.082,-0.89,0.511,4.333,8.239,-22.095,0,0,0,
,-0.083,-0.889,0.512,-0.123,9.277,-21.424,0,0,0,
,-0.08,-0.887,0.511,2.441,7.995,-23.743,0,0,0,
,-0.084,-0.891,0.51,2.502,8.483,-22.889,0,0,0,
,-0.085,-0.891,0.51,2.197,8.667,-21.424,0,0,0,
,-0.082,-0.888,0.517,0.366,10.253,-23.072,0,0,0,
,-0.081,-0.887,0.513,2.563,8.544,-23.987,0,0,0,
,-0.079,-0.884,0.513,4.943,7.934,-23.194,0,0,0,
,-0.083,-0.885,0.512,8.422,5.981,-21.912,0,0,0,
,-0.083,-0.887,0.511,6.897,6.469,-21.485,0,0,0,
,-0.085,-0.889,0.511,6.347,9.521,-21.79,0,0,0,
,-0.083,-0.891,0.515,5.554,8.667,-21.18,0,0,0,
,-0.079,-0.887,0.51,5.859,9.399,-20.569,0,0,0,
,-0.08,-0.885,0.513,5.554,5.554,-21.546,0,0,0,
,-0.08,-0.886,0.511,8.361,4.821,-20.813,0,0,0,
,-0.084,-0.888,0.513,7.263,4.76,-22.706,0,0,0,
,-0.085,-0.89,0.513,8.239,9.765,-21.668,0,0,0,
,-0.084,-0.889,0.51,5.31,9.277,-22.95,0,0,0,
,-0.081,-0.892,0.511,5.127,8.239,-21.79,0,0,0,
,-0.082,-0.89,0.509,2.99,5.493,-22.278,0,0,0,
,-0.084,-0.884,0.506,3.051,8.789,-22.217,0,0,0,
,-0.084,-0.888,0.509,2.075,8.972,-21.729,0,0,0,
,-0.08,-0.889,0.516,0.549,8.544,-22.278,0,0,0,
,-0.08,-0.887,0.517,1.709,9.277,-21.912,0,0,0,
,-0.081,-0.887,0.515,4.333,5.859,-23.316,0,0,0,
,-0.087,-0.889,0.511,7.568,5.798,-24.659,0,0,0,
,-0.087,-0.892,0.511,6.408,9.826,-22.217,0,0,0,
,-0.082,-0.887,0.515,5.859,8.85,-23.011,0,0,0,
,-0.079,-0.886,0.515,7.568,6.164,-22.828,0,0,0,
,-0.079,-0.882,0.516,10.559,3.173,-20.081,0,0,0,
,-0.083,-0.886,0.515,11.291,1.586,-21.302,0,0,0,
,-0.085,-0.888,0.511,12.146,3.356,-21.485,0,0,0,
,-0.083,-0.886,0.507,12.329,4.76,-19.837,0,0,0,
,-0.081,-0.893,0.51,8.361,4.516,-20.142,0,0,0,
,-0.084,-0.891,0.51,5.371,7.141,-19.532,0,0,0,
,-0.091,-0.896,0.51,1.159,6.836,-25.757,0,0,0,
,-0.088,-0.895,0.51,-3.968,11.779,-21.18,0,0,0,
,-0.083,-0.885,0.512,-3.663,11.596,-22.644,0,0,0,
,-0.084,-0.878,0.513,1.037,7.019,-22.767,0,0,0,
,-0.088,-0.88,0.51,4.333,6.408,-22.156,0,0,0,
,-0.087,-0.887,0.511,5.371,9.704,-19.043,0,0,0,
,-0.085,-0.891,0.515,2.929,12.451,-19.227,0,0,0,
,-0.085,-0.897,0.519,-1.16,12.39,-21.607,0,0,0,
,-0.079,-0.889,0.518,-3.968,12.329,-20.691,0,0,0,
,-0.08,-0.883,0.518,-0.672,6.713,-21.79,0,0,0,
,-0.088,-0.876,0.511,3.967,5.798,-22.522,0,0,0,
,-0.089,-0.879,0.512,6.591,7.873,-21.668,0,0,0,
,-0.092,-0.886,0.512,7.08,10.62,-19.837,0,0,0,
,-0.085,-0.883,0.509,3.601,14.404,-18.006,0,0,0,
,-0.081,-0.886,0.513,0.915,16.052,-17.579,0,0,0,
,-0.081,-0.884,0.514,3.601,13.732,-16.907,0,0,0,
,-0.094,-0.878,0.504,4.821,12.695,-13.245,0,0,0,
,-0.095,-0.871,0.503,5.432,23.559,-5.86,0,0,0,
,-0.086,-0.869,0.515,7.324,35.644,-2.32,0,0,0,
,-0.076,-0.882,0.504,2.99,31.433,2.441,0,0,0,
,-0.081,-0.902,0.512,-34.546,23.071,0.549,0,0,0,
,-0.082,-0.911,0.491,-71.534,29.724,4.882,0,0,0,
,-0.072,-0.894,0.497,-84.778,29.663,2.563,0,0,0,
,-0.066,-0.873,0.528,-76.294,20.69,1.098,0,0,0,
,-0.068,-0.849,0.53,-48.89,15.564,0.061,0,0,0,
,-0.074,-0.85,0.522,-14.893,12.023,0.671,0,0,0,
,-0.076,-0.841,0.518,14.648,10.253,9.216,0,0,0,
,-0.083,-0.835,0.528,25.268,12.085,17.639,0,0,0,
,-0.089,-0.873,0.5,5.92,14.099,29.602,0,0,0,
,-0.087,-0.896,0.496,-37.476,21.606,31.372,0,0,0,
,-0.079,-0.871,0.506,-70.557,35.705,37.231,0,0,0,
,-0.058,-0.842,0.537,-32.044,38.452,43.273,0,0,0,
,-0.032,-0.868,0.553,-26.123,30.761,44.006,0,0,0,
,-0.024,-0.865,0.542,9.765,15.991,47.363,0,0,0,
,-0.026,-0.841,0.535,46.691,-0.855,51.147,0,0,0,
,-0.04,-0.828,0.533,74.34,-22.828,55.786,0,0,0,
,-0.053,-0.824,0.523,88.073,-26.246,69.03,0,0,0,
,-0.06,-0.807,0.62,80.505,-17.456,89.843,0,0,0,
,-0.072,-0.875,0.587,51.269,-24.17,115.661,0,0,0,
,-0.055,-1.008,0.621,160.888,22.583,137.146,0,0,0,
,-0.018,-1.182,0.645,142.883,53.527,111.267,0,0,0,
,-0.039,-1.253,0.688,464.782,39.306,135.254,0,0,0,
,-0.077,-1.448,1.347,659.79,-42.359,80.017,0,0,0,
,0.078,-2.089,1.392,955.078,12.512,-77.149,0,0,0,
,0.534,-2.849,0.994,980.896,-71.289,-420.716,0,0,0,
,1.03,-2.67,0.29,328.43,-140.87,-508.423,0,0,0,
,1.476,-2.751,-0.564,-258.973,69.03,-1164.734,0,0,0,
,1.513,-3.159,-0.14,-360.291,-601.38,-2000,0,0,0,
,0.766,-2.623,0.331,-711.548,-796.936,-2000,0,0,0,
,0.701,-1.767,0.29,-674.805,-645.691,-2000,0,0,0,
,0.807,-1.009,0.201,-365.235,-759.827,-2000,0,0,0,
,0.615,-0.422,0.086,42.419,-911.622,-2000,0,0,0,
,0.39,0.211,0.154,106.018,-791.626,-2000,0,0,0,
,0.133,0.545,0.222,-131.897,-513.062,-2000,0,0,0,
,0.071,1.089,0.218,35.461,-259.705,-2000,0,0,0,
,0.195,1.97,0.425,19.958,35.583,-2000,0,0,0,
,0.36,2.112,0.309,123.291,56.213,-2000,0,0,0,
,0.435,0.889,-0.241,-390.992,241.272,-2000,0,0,0,
,0.864,0.517,-0.342,-2000,358.642,-935.364,0,0,0,
,0.297,3.999,-0.2,-2000,49.133,1369.506,0,0,0,
,-0.013,2.852,0.46,-475.586,580.993,1425.598,0,0,0,
,0.253,1.339,-0.03,752.075,1263,1969.299,0,0,0,
,0.302,0.99,-0.066,1342.102,949.951,1999.694,0,0,0,
,0.213,0.718,0.003,1622.863,550.354,1999.694,0,0,0,
,0.073,0.531,0.087,1683.838,305.786,1999.694,0,0,0,
,-0.032,0.169,0.189,1382.812,147.888,1999.694,0,0,0,
,-0.089,-0.341,0.13,1501.342,85.754,1999.694,0,0,0,
,0.02,-0.834,-0.047,866.699,113.464,1999.694,0,0,0,
,0.012,-1.873,-0.203,169.983,31.799,1999.694,0,0,0,
,-0.261,-2.267,0.049,-55.848,-577.576,1999.694,0,0,0,
,-0.683,-1.272,-0.696,-1503.724,-768.25,1999.694,0,0,0,
,-0.861,-0.844,-0.22,-1860.596,-82.215,1999.694,0,0,0,
,-0.572,-0.792,1.07,-312.317,1833.313,1984.558,0,0,0,
,2.017,-1.559,1.132,224.731,1472.351,1414.917,0,0,0,
,1.144,-2.071,0.302,-315.186,181.396,676.696,0,0,0,
,0.25,-2.388,0.618,-132.264,-249.207,425.232,0,0,0,
,-0.526,-2.332,0.673,-834.778,-162.354,476.379,0,0,0,
,-0.757,-1.777,0.832,-811.951,216.613,371.276,0,0,0,
,-0.391,-1.067,0.968,-687.806,668.64,274.902,0,0,0,
,0.079,-0.694,0.884,-543.885,660.4,315.857,0,0,0,
,0.212,-0.771,0.751,-168.274,262.878,183.166,0,0,0,
,-0.01,-1.009,0.709,76.171,-75.562,25.512,0,0,0,
,-0.256,-1.073,0.733,-204.712,-24.048,59.143,0,0,0,
,-0.306,-0.933,0.839,-713.685,218.994,85.754,0,0,0,
,-0.077,-0.881,0.84,-963.562,395.874,53.161,0,0,0,
,0.165,-0.792,0.907,-864.014,348.388,62.133,0,0,0,
,0.19,-0.688,0.901,-668.396,96.74,-57.496,0,0,0,
,0.075,-0.703,0.853,-455.079,4.821,-125.123,0,0,0,
,-0.039,-0.661,0.776,-270.691,30.395,-186.097,0,0,0,
,-0.078,-0.548,0.741,-124.207,102.6,-207.764,0,0,0,
,-0.095,-0.518,0.728,-6.897,131.347,-234.498,0,0,0,
,-0.099,-0.633,0.69,33.874,136.901,-247.986,0,0,0,
,-0.099,-0.7,0.7,-55.542,118.042,-212.159,0,0,0,
,-0.087,-0.708,0.74,-249.512,112.548,-160.34,0,0,0,
,-0.092,-0.657,0.766,-398.072,128.906,-103.333,0,0,0,
,-0.071,-0.517,0.8,-342.835,135.925,-60.364,0,0,0,
,-0.026,-0.416,0.807,-175.049,124.389,-47.913,0,0,0,
,-0.004,-0.456,0.834,-35.95,46.386,-63.538,0,0,0,
,-0.013,-0.562,0.879,22.155,24.536,-98.816,0,0,0,
,0.006,-0.649,0.928,58.532,53.649,-75.501,0,0,0,
,0.068,-0.613,0.907,158.63,86.608,-30.213,0,0,0,
,0.068,-0.577,0.85,205.139,47.485,-11.048,0,0,0,
,0.029,-0.675,0.805,150.94,-2.747,-40.101,0,0,0,
,0.003,-0.832,0.813,27.648,6.836,-60.059,0,0,0,
,0.075,-0.767,0.845,-130.799,84.228,0.244,0,0,0,
,0.143,-0.638,0.903,-174.256,37.78,22.705,0,0,0,
,0.094,-0.593,0.882,-35.828,-61.646,-6.775,0,0,0,
,0.085,-0.605,0.822,137.695,-68.726,-32.654,0,0,0,
,0.088,-0.626,0.841,228.698,-54.2,-76.111,0,0,0,
,0.105,-0.719,0.802,317.932,-47.303,-143.921,0,0,0,
,0.137,-0.909,0.786,391.479,-100.647,-230.469,0,0,0,
,0.135,-1.002,0.711,321.96,-103.394,-265.137,0,0,0,
,0.137,-0.894,0.682,278.076,-65.003,-272.461,0,0,0,
,0.107,-0.897,0.701,316.101,-117.31,-351.502,0,0,0,
,0.041,-0.898,0.673,280.09,-101.868,-432.679,0,0,0,
,-0.049,-0.809,0.575,231.994,-87.769,-524.72,0,0,0,
,-0.124,-0.755,0.573,230.468,-92.286,-545.105,0,0,0,
,-0.12,-0.74,0.581,320.556,-10.315,-574.646,0,0,0,
,-0.138,-0.634,0.508,297.485,-52.552,-466.797,0,0,0,
,-0.219,-0.75,0.681,115.051,-17.701,-497.071,0,0,0,
,-0.262,-0.924,0.694,53.711,-24.414,-523.987,0,0,0,
,-0.265,-0.866,0.717,-5.738,36.254,-372.864,0,0,0,
,-0.321,-0.578,0.63,-70.557,81.97,-304.139,0,0,0,
,-0.404,-0.404,0.572,71.716,75.012,-303.284,0,0,0,
,-0.422,-0.457,0.585,144.165,143.432,-342.591,0,0,0,
,-0.374,-0.615,0.642,166.381,224.731,-369.751,0,0,0,
,-0.305,-0.768,0.653,92.041,235.351,-340.455,0,0,0,
,-0.306,-0.814,0.666,-13.977,180.908,-284.913,0,0,0,
,-0.334,-0.716,0.685,-209.29,135.254,-203.248,0,0,0,
,-0.353,-0.613,0.719,-491.761,133.056,-162.171,0,0,0,
,-0.321,-0.471,0.73,-573.182,210.693,-121.827,0,0,0,
,-0.262,-0.494,0.744,-295.777,240.478,-163.514,0,0,0,
,-0.229,-0.639,0.817,-29.908,175.415,-91.98,0,0,0,
,-0.267,-0.736,0.752,-119.935,201.66,-74.707,0,0,0,
,-0.277,-0.657,0.747,-234.375,204.528,-26.368,0,0,0,
,-0.249,-0.501,0.759,-290.772,233.337,5.188,0,0,0,
,-0.209,-0.482,0.798,-191.407,234.069,-47.669,0,0,0,
,-0.162,-0.567,0.766,-139.954,246.154,-80.567,0,0,0,
,-0.116,-0.568,0.832,-155.762,174.255,-44.861,0,0,0,
,-0.185,-0.508,0.838,-245.606,99.548,-12.696,0,0,0,
,-0.244,-0.421,0.857,-213.807,58.288,64.209,0,0,0,
,-0.285,-0.414,0.861,-50.721,79.773,93.872,0,0,0,
,-0.231,-0.58,0.862,39.917,97.351,75.256,0,0,0,
,-0.145,-0.65,0.828,-37.049,135.742,42.663,0,0,0,
,-0.108,-0.748,0.752,-135.437,95.581,38.269,0,0,0,
,-0.089,-0.71,0.78,-300.965,60.913,2.99,0,0,0,
,-0.096,-0.622,0.843,-296.265,22.277,-74.219,0,0,0,
,-0.141,-0.463,0.835,-247.986,-30.396,-44.068,0,0,0,
,-0.174,-0.446,0.875,-179.261,-34.485,-58.411,0,0,0,
,-0.155,-0.538,0.878,-143.921,-11.353,-83.435,0,0,0,
,-0.137,-0.511,0.863,-142.823,-4.212,-81.482,0,0,0,
,-0.144,-0.492,0.89,-84.168,-12.085,-81.91,0,0,0,
,-0.171,-0.518,0.862,-54.627,-5.249,-98.206,0,0,0,
,-0.183,-0.562,0.868,-72.937,-11.719,-68.909,0,0,0,
,-0.187,-0.473,0.897,-161.927,16.296,-54.81,0,0,0,
,-0.141,-0.491,0.86,6.408,26.794,-61.219,0,0,0,
,-0.156,-0.525,0.9,-18.189,5.188,-58.533,0,0,0,
,-0.192,-0.613,0.919,-56.458,-10.437,-26.185,0,0,0,
,-0.169,-0.628,0.93,-186.036,28.015,-23.987,0,0,0,
,-0.152,-0.508,0.936,-161.377,25.085,-37.598,0,0,0,
,-0.179,-0.455,0.865,-18.128,5.798,-67.688,0,0,0,
,-0.184,-0.483,0.873,14.77,13.855,-155.762,0,0,0,
,-0.197,-0.501,0.873,37.841,24.902,-192.2,0,0,0,
,-0.207,-0.572,0.837,-15.381,28.869,-148.987,0,0,0,
,-0.254,-0.458,0.787,-48.279,40.893,-178.65,0,0,0,
,-0.264,-0.517,0.819,49.621,43.518,-138.977,0,0,0,
,-0.256,-0.512,0.873,-84.534,89.05,-157.898,0,0,0,
,-0.262,-0.459,0.88,-83.313,72.326,-129.578,0,0,0,
,-0.266,-0.475,0.907,-195.435,52.612,-131.897,0,0,0,
,-0.265,-0.215,0.941,-228.15,33.264,-83.68,0,0,0,
,-0.316,-0.169,0.94,-7.935,-31.617,-42.176,0,0,0,
,-0.338,-0.412,0.957,-3.418,-27.283,-44.861,0,0,0,
,-0.3,-0.326,0.921,-137.696,5.554,-2.747,0,0,0,
,-0.308,-0.26,0.872,-86.06,-24.353,63.964,0,0,0,
,-0.316,-0.396,0.871,-68.116,-25.818,82.336,0,0,0,
,-0.274,-0.431,0.834,-207.703,42.968,79.345,0,0,0,
,-0.226,-0.361,0.886,-189.026,52.612,101.745,0,0,0,
,-0.172,-0.513,0.935,-109.07,72.326,49.804,0,0,0,
,-0.103,-0.602,0.978,-93.689,102.356,38.391,0,0,0,
,-0.019,-0.617,0.994,-85.267,119.506,6.408,0,0,0,
,0.072,-0.619,0.894,-74.097,97.778,-23.438,0,0,0,
,0.083,-0.546,0.933,-132.019,19.592,-62.745,0,0,0,
,0.06,-0.407,0.908,-80.445,43.029,-80.201,0,0,0,
,0.104,-0.337,0.934,-50.965,58.349,-56.458,0,0,0,
,0.153,-0.348,1,-1.282,75.805,-32.471,0,0,0,
,0.213,-0.453,0.98,23.071,29.296,-26.551,0,0,0,
,0.193,-0.405,0.959,7.141,12.634,-72.144,0,0,0,
,0.108,-0.365,0.951,130.981,-62.806,-75.806,0,0,0,
,-0.017,-0.502,0.918,148.498,-56.519,-113.77,0,0,0,
,-0.104,-0.501,0.818,101.318,-32.776,-117.676,0,0,0,
,-0.193,-0.48,0.799,56.884,-29.358,-105.286,0,0,0,
,-0.251,-0.412,0.753,81.909,25.085,-82.642,0,0,0,
,-0.253,-0.44,0.732,123.779,72.692,-75.562,0,0,0,
,-0.267,-0.5,0.806,49.316,92.163,-95.398,0,0,0,
,-0.284,-0.452,0.804,-60.181,94.116,-80.201,0,0,0,
,-0.346,-0.399,1.01,-138.733,-7.935,-110.352,0,0,0,
,-0.47,-0.327,0.962,-67.383,-38.453,-24.353,0,0,0,
,-0.554,-0.203,0.923,-43.946,-33.997,26.428,0,0,0,
,-0.524,-0.318,0.949,-68.116,-0.306,30.334,0,0,0,
,-0.454,-0.386,0.94,-212.098,42.846,28.93,0,0,0,
,-0.389,-0.243,0.963,-234.253,29.968,71.228,0,0,0,
,-0.344,-0.272,1.019,-158.997,-5.005,50.048,0,0,0,
,-0.299,-0.366,1.023,-84.9,11.474,35.278,0,0,0,
,-0.233,-0.382,0.959,-9.034,3.723,55.053,0,0,0,
,-0.172,-0.501,1.012,-79.895,2.197,34.606,0,0,0,
,-0.147,-0.454,0.976,-116.944,25.573,53.466,0,0,0,
,-0.138,-0.382,0.917,-63.721,41.442,53.955,0,0,0,
,-0.117,-0.391,0.918,-11.231,67.627,31.738,0,0,0,
,-0.073,-0.422,0.888,-25.025,119.995,21.85,0,0,0,
,-0.01,-0.52,0.886,-92.164,128.723,17.089,0,0,0,
,0.037,-0.431,0.887,-157.044,157.348,20.874,0,0,0,
,0.103,-0.41,0.886,-108.582,147.094,11.535,0,0,0,
,0.168,-0.454,0.904,-55.603,140.197,-53.65,0,0,0,
,0.152,-0.407,0.854,-0.855,96.618,-99.976,0,0,0,
,0.054,-0.424,0.861,-33.814,63.476,-136.658,0,0,0,
,-0.008,-0.369,0.825,-118.348,111.023,-130.738,0,0,0,
,-0.011,-0.315,0.883,-163.392,134.399,-98.389,0,0,0,
,-0.012,-0.31,0.945,-128.357,126.831,-95.215,0,0,0,
,-0.051,-0.342,1.021,-119.324,107.544,-114.502,0,0,0,
,-0.072,-0.439,1.222,-104.493,34.057,-156.922,0,0,0,
,-0.08,-0.441,1.131,18.188,13.427,-80.262,0,0,0,
,-0.048,-0.425,1.023,-3.174,2.929,-103.699,0,0,0,
,-0.067,-0.34,0.936,-2.808,-10.987,-91.126,0,0,0,
,-0.114,-0.325,0.922,-13.794,-23.987,-100.464,0,0,0,
,-0.127,-0.305,0.905,-48.462,17.334,-103.638,0,0,0,
,-0.091,-0.299,0.936,-50.415,24.169,-100.098,0,0,0,
,-0.153,-0.282,0.952,-20.386,-21.973,-100.953,0,0,0,
,-0.249,-0.259,0.938,11.413,-21.973,-95.887,0,0,0,
,-0.256,-0.267,0.945,44.738,9.155,-58.655,0,0,0,
,-0.193,-0.319,0.943,41.748,46.691,-40.345,0,0,0,
,-0.137,-0.378,1.014,22.766,33.508,-27.894,0,0,0,
,-0.112,-0.373,0.935,-7.813,38.818,-30.518,0,0,0,
,-0.116,-0.349,0.937,-32.654,1.953,-57.19,0,0,0,
,-0.166,-0.348,0.915,-33.57,-1.038,-76.294,0,0,0,
,-0.109,-0.357,0.884,-58.716,63.11,-111.512,0,0,0,
,-0.167,-0.314,0.907,-59.144,45.837,-126.465,0,0,0,
,-0.227,-0.245,0.884,-54.261,57.861,-107.727,0,0,0,
,-0.286,-0.189,0.853,-58.472,60.302,-63.965,0,0,0,
,-0.359,-0.085,0.793,-122.803,61.279,-40.772,0,0,0,
,-0.42,-0.031,0.907,-125.794,58.593,-3.357,0,0,0,
,-0.37,-0.235,1.152,-168.396,81.726,10.437,0,0,0,
,-0.24,-0.346,1.159,-142.884,63.903,72.265,0,0,0,
,-0.172,-0.375,1.069,-206.604,-22.278,48.828,0,0,0,
,-0.293,-0.126,1.018,-188.233,-105.286,75.378,0,0,0,
,-0.34,-0.242,0.958,-98.877,-31.434,72.692,0,0,0,
,-0.206,-0.303,0.914,-158.753,34.423,43.09,0,0,0,
,-0.174,-0.239,0.912,-195.496,-1.709,33.02,0,0,0,
,-0.191,-0.254,0.943,-212.464,9.704,6.103,0,0,0,
,-0.183,-0.166,0.89,-214.661,58.288,22.766,0,0,0,
,-0.207,-0.153,0.881,-192.505,111.938,85.632,0,0,0,
,-0.008,-0.22,0.877,-134.156,253.112,79.956,0,0,0,
,0.208,-0.486,1.031,-128.052,216.735,31.677,0,0,0,
,0.269,-0.426,1.112,-209.9,102.966,-25.452,0,0,0,
,0.153,-0.219,1.114,-120.362,4.516,-25.879,0,0,0,
,0.108,-0.168,1.055,-56.641,30.151,-37.232,0,0,0,
,0.135,-0.09,1.017,-10.865,24.475,-27.466,0,0,0,
,0.137,-0.066,0.953,13,4.15,-8.423,0,0,0,
,0.102,0.012,0.956,55.114,-32.837,11.84,0,0,0,
,0.065,-0.064,1.059,96.008,-45.289,32.287,0,0,0,
,0.062,-0.131,1.085,86.853,-41.565,46.814,0,0,0,
,0.033,-0.205,1.095,120.056,-91.553,57.067,0,0,0,
,-0.052,-0.251,1.035,133.972,-119.629,58.654,0,0,0,
,-0.088,-0.206,0.937,78.247,-76.477,44.982,0,0,0,
,-0.103,-0.243,0.993,119.262,-93.201,39.611,0,0,0,
,-0.123,-0.348,0.99,118.774,-87.281,37.17,0,0,0,
,-0.123,-0.433,1.001,18.981,-52.491,3.479,0,0,0,
,-0.105,-0.304,0.96,-42.542,-46.143,9.216,0,0,0,
,-0.118,-0.16,0.934,11.596,-36.622,-67.078,0,0,0,
,-0.124,-0.205,0.863,131.103,-4.7,-90.943,0,0,0,
,-0.083,-0.274,0.852,160.217,-20.874,-58.472,0,0,0,
,-0.051,-0.274,0.966,89.965,-55.054,-18.189,0,0,0,
,-0.035,-0.206,0.994,66.589,-77.393,10.315,0,0,0,
,-0.045,-0.16,0.971,152.099,-135.071,38.94,0,0,0,
,-0.087,-0.125,0.961,295.776,-180.176,54.26,0,0,0,
,-0.171,-0.067,0.884,402.16,-203.675,60.791,0,0,0,
,-0.23,-0.16,0.877,435.608,-201.661,34.362,0,0,0,
,-0.233,-0.255,0.947,371.399,-191.285,36.254,0,0,0,
,-0.217,-0.348,1,270.385,-191.224,85.022,0,0,0,
,-0.214,-0.359,0.977,276.794,-188.05,136.779,0,0,0,
,-0.229,-0.349,0.989,393.982,-213.379,176.574,0,0,0,
,-0.263,-0.365,0.918,419.189,-212.769,175.048,0,0,0,
,-0.264,-0.541,0.926,336.181,-177.979,93.811,0,0,0,
,-0.251,-0.623,0.934,172.607,-133.179,15.319,0,0,0,
,-0.271,-0.542,0.951,145.813,-108.521,0.915,0,0,0,
,-0.324,-0.392,0.866,372.924,-71.412,-25.879,0,0,0,
,-0.37,-0.443,0.75,701.721,-13.001,-75.196,0,0,0,
,-0.343,-0.834,0.689,648.071,38.147,-172.303,0,0,0,
,-0.301,-1.021,0.707,119.384,140.808,-261.414,0,0,0,
,-0.239,-0.628,0.8,-291.016,199.585,-232.178,0,0,0,
,-0.237,-0.208,0.811,-216.065,123.535,-157.837,0,0,0,
,-0.308,-0.179,0.778,97.9,49.865,-152.344,0,0,0,
,-0.327,-0.348,0.796,242.492,62.927,-156.434,0,0,0,
,-0.302,-0.487,0.878,54.626,57.128,-138.428,0,0,0,
,-0.252,-0.464,0.93,-135.56,84.411,-87.83,0,0,0,
,-0.216,-0.31,0.892,-161.866,84.106,-50.965,0,0,0,
,-0.226,-0.277,0.913,-19.349,37.353,-25.33,0,0,0,
,-0.23,-0.458,0.922,9.155,48.889,-50.049,0,0,0,
,-0.174,-0.568,0.924,-106.629,87.219,-72.388,0,0,0,
,-0.123,-0.495,0.938,-201.294,86.242,-49.134,0,0,0,
,-0.137,-0.368,0.931,-189.698,69.091,-62.378,0,0,0,
,-0.162,-0.283,0.912,-69.397,55.114,-75.379,0,0,0,
,-0.17,-0.398,0.917,8.789,48.889,-120.606,0,0,0,
,-0.147,-0.52,0.94,-76.05,64.636,-135.132,0,0,0,
,-0.138,-0.47,0.987,-192.078,62.377,-103.76,0,0,0,
,-0.156,-0.37,0.976,-212.891,44.982,-77.027,0,0,0,
,-0.175,-0.23,0.939,-134.095,26.672,-48.951,0,0,0,
,-0.18,-0.304,0.917,-7.691,29.663,-52.613,0,0,0,
,-0.142,-0.481,0.94,-76.233,9.277,-70.618,0,0,0,
,-0.147,-0.498,1.035,-277.222,3.967,-83.13,0,0,0,
,-0.173,-0.314,1.004,-195.984,-4.944,17.15,0,0,0,
,-0.209,-0.276,1.047,-96.985,-6.043,-6.043,0,0,0,
,-0.212,-0.344,0.936,-8.851,17.7,-4.029,0,0,0,
,-0.158,-0.458,0.967,-77.576,28.564,-46.875,0,0,0,
,-0.155,-0.39,0.982,-126.099,36.987,-54.2,0,0,0,
,-0.216,-0.32,0.967,-53.711,30.273,-53.65,0,0,0,
,-0.261,-0.294,0.955,-6.287,48.461,-77.21,0,0,0,
,-0.222,-0.209,0.96,110.534,79.956,-55.542,0,0,0,
,-0.19,-0.211,0.98,378.418,51.574,-29.175,0,0,0,
,-0.163,-0.44,0.933,422.058,42.541,-39.917,0,0,0,
,-0.179,-0.454,0.851,267.212,69.763,-85.938,0,0,0,
,-0.185,-0.407,0.869,275.879,32.348,-63.233,0,0,0,
,-0.209,-0.343,0.924,300.659,42.541,-79.468,0,0,0,
,-0.213,-0.259,0.867,469.116,24.475,-10.56,0,0,0,
,-0.098,-0.62,0.826,415.283,50.781,-44.983,0,0,0,
,-0.062,-0.445,0.866,90.454,-32.227,-17.212,0,0,0,
,-0.146,-0.206,0.943,197.876,-90.638,26.733,0,0,0,
,-0.011,-0.875,0.869,-38.575,-9.278,-6.47,0,0,0,
,-0.124,-0.485,0.903,-245.911,-88.807,48.095,0,0,0,
,-0.278,-0.23,0.82,31.616,-97.718,124.023,0,0,0,
,-0.24,-0.378,0.753,233.276,31.005,57.495,0,0,0,
,-0.134,-0.529,0.747,206.665,79.773,14.343,0,0,0,
,-0.118,-0.703,0.852,133.545,-16.175,-9.583,0,0,0,
,-0.141,-0.629,0.848,-19.959,-6.165,-3.479,0,0,0,
,-0.212,-0.489,0.875,17.883,-5.738,53.894,0,0,0,
,-0.223,-0.445,0.857,98.388,43.762,45.227,0,0,0,
,-0.183,-0.48,0.919,173.523,44.799,7.08,0,0,0,
,-0.182,-0.625,0.855,138.305,25.512,-17.09,0,0,0,
,-0.208,-0.629,0.857,-41.077,15.808,-29.602,0,0,0,
,-0.225,-0.42,0.872,-38.331,20.752,17.273,0,0,0,
,-0.196,-0.482,0.895,46.508,23.315,-15.137,0,0,0,
,-0.185,-0.593,0.881,25.756,10.864,-28.321,0,0,0,
,-0.201,-0.609,0.874,-79.773,18.249,-28.687,0,0,0,
,-0.212,-0.54,0.885,-106.202,33.813,-5.555,0,0,0,
,-0.233,-0.484,0.914,-104.187,34.24,-1.587,0,0,0,
,-0.237,-0.462,0.896,-46.57,41.198,-4.151,0,0,0,
,-0.218,-0.589,0.908,-78.309,9.582,-25.208,0,0,0,
,-0.227,-0.633,0.864,-219.605,14.404,-35.767,0,0,0,
,-0.258,-0.488,0.874,-301.758,17.517,-24.109,0,0,0,
,-0.287,-0.4,0.858,-226.624,24.841,-10.865,0,0,0,
,-0.261,-0.423,0.869,-195.679,30.029,-22.889,0,0,0,
,-0.252,-0.404,0.887,-225.769,17.15,-2.32,0,0,0,
,-0.234,-0.413,0.899,-264.222,40.222,12.878,0,0,0,
,-0.186,-0.375,0.92,-258.851,64.331,61.889,0,0,0,
,-0.088,-0.489,0.967,-224.671,74.34,52.673,0,0,0,
,-0.014,-0.491,0.95,-186.768,73.852,33.569,0,0,0,
,-0.021,-0.364,0.961,-27.955,13.732,10.986,0,0,0,
,-0.049,-0.352,0.977,140.319,19.775,-37.171,0,0,0,
,0.055,-0.485,0.88,249.206,94.238,-19.165,0,0,0,
,0.166,-0.617,0.898,175.903,35.339,3.418,0,0,0,
,0.156,-0.731,0.891,-23.194,25.329,-50.66,0,0,0,
,0.124,-0.456,0.859,-71.9,41.503,-28.26,0,0,0,
,0.1,-0.332,0.916,114.624,5.92,-72.815,0,0,0,
,0.038,-0.376,0.978,322.754,-25.94,-97.718,0,0,0,
,-0.016,-0.613,0.885,297.79,-19.104,-104.615,0,0,0,
,0.002,-0.658,0.833,68.481,20.08,-106.812,0,0,0,
,-0.096,-0.416,0.764,154.419,1.098,-56.763,0,0,0,
,-0.18,-0.584,0.785,158.081,2.38,-116.028,0,0,0,
,-0.208,-0.527,0.743,41.626,79.589,-106.812,0,0,0,
,-0.258,-0.455,0.746,21.301,51.696,-96.253,0,0,0,
,-0.337,-0.426,0.827,-19.165,43.273,-91.065,0,0,0,
,-0.415,-0.348,0.853,-32.593,51.879,-47.364,0,0,0,
,-0.476,-0.305,0.857,-59.998,54.26,-26.429,0,0,0,
,-0.527,-0.216,0.905,-127.869,27.648,-9.217,0,0,0,
,-0.509,-0.217,1.042,-116.7,43.518,49.926,0,0,0,
,-0.362,-0.505,1.276,31.921,62.866,-5.249,0,0,0,
,-0.264,-0.661,1.135,24.536,24.353,10.803,0,0,0,
,-0.246,-0.504,0.974,-66.651,-7.813,6.164,0,0,0,
,-0.242,-0.464,0.787,-82.337,0.183,24.719,0,0,0,
,-0.219,-0.411,0.762,-194.458,15.258,22.094,0,0,0,
,-0.175,-0.286,0.837,-198.853,60.302,28.198,0,0,0,
,-0.182,-0.24,0.883,-50.904,34.545,54.26,0,0,0,
,-0.161,-0.311,0.929,71.411,45.105,75.134,0,0,0,
,-0.084,-0.552,0.936,-10.071,78.552,66.406,0,0,0,
,-0.03,-0.524,0.943,-143.555,113.83,84.961,0,0,0,
,0.014,-0.439,0.928,-128.296,117.37,85.083,0,0,0,
,0.088,-0.389,0.835,36.132,116.027,76.232,0,0,0,
,0.13,-0.327,0.92,346.374,-12.879,97.656,0,0,0,
,0.079,-0.579,0.872,364.074,-21.058,23.254,0,0,0,
,0.091,-0.76,0.839,50.231,49.499,1.586,0,0,0,
,0.082,-0.646,0.802,-202.82,107.36,-0.672,0,0,0,
,0.109,-0.556,0.868,-236.145,160.705,-16.175,0,0,0,
,0.158,-0.518,0.918,-158.387,164.184,-63.416,0,0,0,
,0.152,-0.459,1.065,83.007,-13.733,-61.341,0,0,0,
,-0.062,-0.414,0.954,197.204,-106.812,-36.316,0,0,0,
,-0.169,-0.469,0.909,181.884,0.549,-44.129,0,0,0,
,-0.055,-0.658,0.945,158.996,115.295,-65.369,0,0,0,
,0.017,-0.768,0.877,37.475,94.787,-97.107,0,0,0,
,-0.051,-0.607,0.844,-22.522,22.155,-96.07,0,0,0,
,-0.166,-0.449,0.868,46.264,-25.269,-115.235,0,0,0,
,-0.22,-0.364,1.118,94.177,-115.174,-166.504,0,0,0,
,-0.356,-0.447,0.876,253.112,13.183,-80.384,0,0,0,
,-0.243,-0.526,0.64,21.484,136.963,-48.768,0,0,0,
,-0.231,-0.513,0.623,-258.301,60.302,-64.942,0,0,0,
,-0.343,-0.317,0.716,-343.995,0.183,-13.977,0,0,0,
,-0.381,-0.215,0.917,-215.21,24.108,-22.583,0,0,0,
,-0.335,-0.373,1.111,-62.073,92.102,-33.081,0,0,0,
,-0.206,-0.561,1.077,-70.496,153.442,-31.861,0,0,0,
,-0.128,-0.499,0.948,-139.283,88.867,7.324,0,0,0,
,-0.187,-0.362,0.807,-151.246,14.77,61.706,0,0,0,
,-0.156,-0.264,0.885,-114.869,28.808,44.86,0,0,0,
,-0.053,-0.345,0.859,-266.785,10.131,71.838,0,0,0,
,-0.089,-0.141,0.875,-255.555,-34.546,142.028,0,0,0,
,-0.118,-0.243,0.957,-59.632,0,156.311,0,0,0,
,0.008,-0.539,1.1,-16.053,89.66,134.216,0,0,0,
,0.216,-0.695,1.127,110.168,115.417,105.224,0,0,0,
,0.253,-0.805,1.012,140.991,22.949,51.208,0,0,0,
,0.302,-0.771,1.041,82.702,-16.358,-46.631,0,0,0,
,0.216,-0.655,0.861,62.255,-81.116,-79.834,0,0,0,
,0.166,-0.659,0.813,-49.622,-44.068,-117.371,0,0,0,
,0.155,-0.419,0.784,-100.586,10.864,-131.653,0,0,0,
,0.133,-0.396,0.731,109.985,11.535,-145.264,0,0,0,
,0.066,-0.53,0.727,66.589,4.272,-229.737,0,0,0,
,-0.021,-0.437,0.794,-46.143,7.995,-168.213,0,0,0,
,-0.078,-0.393,0.909,-157.166,69.641,-174.134,0,0,0,
,0.001,-0.389,0.95,-173.645,163.574,-143.25,0,0,0,
,0.054,-0.335,1.032,-79.163,67.26,-111.756,0,0,0,
,-0.034,-0.328,1.067,37.048,-54.505,-132.996,0,0,0,
,-0.131,-0.363,1.289,117.248,-204.651,-146.668,0,0,0,
,-0.304,-0.271,0.768,331.848,-91.431,28.503,0,0,0,
,-0.159,-0.523,0.887,155.761,70.373,-110.23,0,0,0,
,-0.067,-0.376,0.818,18.981,24.292,-35.523,0,0,0,
,-0.159,-0.313,0.836,89.538,-97.107,-26.368,0,0,0,
,-0.208,-0.345,0.869,134.155,-42.176,-56.092,0,0,0,
,-0.166,-0.368,0.849,195.19,-21.485,-39.734,0,0,0,
,-0.14,-0.547,0.964,210.51,-68.543,-103.028,0,0,0,
,-0.137,-0.673,1.002,77.026,-90.76,-103.638,0,0,0,
,-0.164,-0.535,1.003,-13.977,-122.315,-57.679,0,0,0,
,-0.205,-0.394,0.931,33.752,-125.733,-43.213,0,0,0,
,-0.231,-0.409,0.839,125.366,-129.09,-85.816,0,0,0,
,-0.273,-0.417,0.789,140.747,-168.702,-115.235,0,0,0,
,-0.329,-0.483,0.83,116.272,-186.951,-136.292,0,0,0,
,-0.346,-0.521,0.864,-14.039,-172.913,-152.1,0,0,0,
,-0.363,-0.435,0.937,-143.677,-164.124,-145.081,0,0,0,
,-0.404,-0.276,0.925,-111.817,-128.296,-81.849,0,0,0,
,-0.408,-0.205,0.863,47.302,-59.021,-37.232,0,0,0,
,-0.347,-0.298,0.822,203.796,21.789,-38.208,0,0,0,
,-0.264,-0.539,0.81,184.692,83.435,-68.116,0,0,0,
,-0.164,-0.699,0.815,19.165,111.694,-93.934,0,0,0,
,-0.089,-0.664,0.864,-165.162,63.049,-77.881,0,0,0,
,-0.115,-0.455,0.907,-195.13,-12.207,-48.523,0,0,0,
,-0.181,-0.297,0.894,-70.801,-28.565,-36.438,0,0,0,
,-0.201,-0.344,0.848,94.177,0.488,-26.795,0,0,0,
,-0.126,-0.5,0.813,120.483,17.395,-22.522,0,0,0,
,-0.109,-0.582,0.856,-43.03,7.995,-21.607,0,0,0,
,-0.113,-0.528,0.889,-194.581,-10.254,-10.743,0,0,0,
,-0.136,-0.4,0.93,-199.891,-29.297,23.62,0,0,0,
,-0.173,-0.321,0.953,-109.314,-21.729,29.907,0,0,0,
,-0.197,-0.361,0.911,41.748,19.775,30.029,0,0,0,
,-0.168,-0.468,0.848,97.473,60.791,11.047,0,0,0,
,-0.112,-0.547,0.823,35.705,72.509,-11.658,0,0,0,
,-0.09,-0.542,0.903,-58.777,30.944,-39.917,0,0,0,
,-0.14,-0.473,0.936,-93.506,20.019,-58.35,0,0,0,
,-0.162,-0.436,0.952,-54.017,47.18,-59.388,0,0,0,
,-0.136,-0.406,0.937,40.71,67.749,-11.414,0,0,0,
,-0.117,-0.435,0.883,72.265,62.316,-11.597,0,0,0,
,-0.119,-0.506,0.867,29.296,39.001,-16.297,0,0,0,
,-0.12,-0.462,0.912,-80.628,43.823,-23.316,0,0,0,
,-0.131,-0.41,0.944,-60.669,35.461,-35.706,0,0,0,
,-0.152,-0.431,0.961,14.77,27.832,-34.852,0,0,0,
,-0.164,-0.433,0.903,33.63,46.264,-15.748,0,0,0,
,-0.146,-0.442,0.907,2.807,44.921,-28.504,0,0,0,
,-0.154,-0.441,0.869,-20.935,22.094,-19.043,0,0,0,
,-0.176,-0.378,0.884,-37.415,10.925,1.22,0,0,0,
,-0.2,-0.334,0.932,-2.93,22.094,-2.747,0,0,0,
,-0.208,-0.412,0.945,21.789,48.461,-18.189,0,0,0,
,-0.17,-0.457,0.879,-19.898,70.617,-1.282,0,0,0,
,-0.146,-0.47,0.885,-49.073,8.361,26.306,0,0,0,
,-0.225,-0.418,0.929,-102.601,-27.222,1.403,0,0,0,
,-0.293,-0.314,0.908,-25.94,19.531,26.001,0,0,0,
,-0.282,-0.387,0.962,9.094,55.603,9.582,0,0,0,
,-0.235,-0.558,0.936,-49.378,109.619,-26.062,0,0,0,
,-0.146,-0.588,0.928,-139.527,83.496,15.686,0,0,0,
,-0.146,-0.417,0.948,-224.61,14.831,18.92,0,0,0,
,-0.215,-0.298,0.931,-74.341,-7.996,30.456,0,0,0,
,-0.206,-0.32,0.921,51.574,37.048,36.621,0,0,0,
,-0.12,-0.458,0.917,65.185,73.608,18.066,0,0,0,
,-0.045,-0.574,0.9,-50.904,93.689,7.08,0,0,0,
,0.021,-0.52,0.899,-171.509,102.05,2.38,0,0,0,
,0.037,-0.408,0.932,-136.17,69.274,5.859,0,0,0,
,0.033,-0.427,0.984,-28.992,65.612,-25.086,0,0,0,
,0.068,-0.505,0.975,9.338,96.984,-57.373,0,0,0,
,0.147,-0.482,0.947,65.368,98.388,-42.115,0,0,0,
,0.155,-0.459,0.954,138.305,22.766,-50.965,0,0,0,
,0.104,-0.579,0.921,73.852,-1.221,-103.211,0,0,0,
,0.058,-0.427,0.875,-39.246,27.465,-78.309,0,0,0,
,0.005,-0.313,0.866,36.804,16.052,-84.168,0,0,0,
,-0.026,-0.39,0.915,119.812,26.245,-107.361,0,0,0,
,-0.045,-0.435,0.89,117.126,48.095,-90.943,0,0,0,
,-0.099,-0.476,0.879,63.171,9.948,-85.755,0,0,0,
,-0.194,-0.45,0.894,-7.264,-4.639,-72.144,0,0,0,
,-0.277,-0.364,0.877,24.108,6.469,-44.8,0,0,0,
,-0.308,-0.393,0.929,69.03,22.216,-65.979,0,0,0,
,-0.335,-0.393,0.913,61.279,35.156,-75.196,0,0,0,
,-0.355,-0.374,0.893,15.747,3.784,-60.12,0,0,0,
,-0.42,-0.266,0.874,-27.283,-33.081,-0.611,0,0,0,
,-0.473,-0.195,0.897,-78.919,-34.18,24.108,0,0,0,
,-0.433,-0.252,0.93,-110.657,50.842,52.063,0,0,0,
,-0.316,-0.364,0.932,-101.014,110.351,57.922,0,0,0,
,-0.214,-0.436,0.933,-100.403,91.308,40.71,0,0,0,
,-0.199,-0.38,0.924,-70.374,46.081,33.752,0,0,0,
,-0.196,-0.361,0.984,10.62,43.151,23.864,0,0,0,
,-0.131,-0.43,0.983,22.461,81.359,34.24,0,0,0,
,-0.035,-0.473,0.973,-51.758,83.007,43.64,0,0,0,
,0.002,-0.442,0.961,-116.456,38.452,63.049,0,0,0,
,0.002,-0.336,0.925,-88.99,19.348,65.856,0,0,0,
,-0.011,-0.259,0.889,-6.226,5.065,82.214,0,0,0,
,0.006,-0.297,0.894,74.096,47.302,77.087,0,0,0,
,0.12,-0.545,0.851,-8.606,152.526,51.818,0,0,0,
,0.189,-0.577,0.916,-56.885,122.314,32.898,0,0,0,
,0.182,-0.522,0.94,-37.171,58.715,7.568,0,0,0,
,0.128,-0.43,0.97,28.564,2.929,-14.771,0,0,0,
,0.057,-0.354,0.97,136.108,-33.57,-11.109,0,0,0,
,-0.004,-0.438,0.934,142.944,14.404,-25.147,0,0,0,
,0.033,-0.545,0.914,26.794,65.246,-38.88,0,0,0,
,0.074,-0.551,0.931,-50.049,64.819,-35.096,0,0,0,
,0.057,-0.616,0.997,-37.11,-20.569,-71.778,0,0,0,
,-0.093,-0.527,0.917,-29.602,-20.874,-71.412,0,0,0,
,-0.1,-0.534,0.913,76.965,43.701,-100.647,0,0,0,
,-0.04,-0.609,0.878,93.017,53.222,-130.494,0,0,0,
,-0.07,-0.524,0.872,-27.039,-3.113,-138.733,0,0,0,
,-0.179,-0.318,0.88,-54.932,-40.711,-120.667,0,0,0,
,-0.27,-0.205,0.896,-9.888,-34.607,-105.347,0,0,0,
,-0.266,-0.142,1.043,-14.222,-56.824,-101.441,0,0,0,
,-0.324,-0.039,1.002,118.957,-110.413,24.475,0,0,0,
,-0.415,-0.151,0.996,235.901,-77.637,68.237,0,0,0,
,-0.302,-0.443,0.892,181.274,75.134,48.584,0,0,0,
,-0.185,-0.588,0.861,-24.659,83.984,33.325,0,0,0,
,-0.212,-0.531,0.865,-164.856,18.737,41.626,0,0,0,
,-0.237,-0.409,0.892,-167.298,38.452,21.301,0,0,0,
,-0.21,-0.359,0.914,-91.309,83.19,-11.78,0,0,0,
,-0.129,-0.34,0.912,-49.5,137.634,-16.968,0,0,0,
,0.009,-0.264,0.877,-28.138,66.894,55.419,0,0,0,
,-0.012,-0.209,0.87,0.671,22.216,80.017,0,0,0,
,-0.054,-0.25,0.87,39.367,23.071,100.219,0,0,0,
,-0.048,-0.453,0.908,-33.448,82.824,68.664,0,0,0,
,0.041,-0.492,1.134,-140.259,97.168,71.106,0,0,0,
,0.201,-0.664,1.255,45.105,37.78,-0.611,0,0,0,
,0.082,-0.602,0.9,14.038,-18.25,7.324,0,0,0,
,0.014,-0.363,0.863,-37.049,-42.786,-27.1,0,0,0,
,-0.049,-0.456,0.853,32.836,39.184,-51.88,0,0,0,
,0.098,-0.576,0.879,-82.52,197.021,-77.149,0,0,0,
,0.226,-0.477,0.964,-226.136,130.615,-73.853,0,0,0,
,0.137,-0.332,1.018,-203.919,34.362,-86.487,0,0,0,
,0.067,-0.309,1.238,-50.66,10.009,-95.154,0,0,0,
,0.07,-0.432,1.2,187.378,53.039,-115.113,0,0,0,
,0.156,-0.595,1.065,369.995,65.551,-152.161,0,0,0,
,0.102,-0.614,0.942,274.047,-68.909,-156.311,0,0,0,
,-0.006,-0.455,0.909,133.972,-121.094,-137.269,0,0,0,
,-0.092,-0.302,0.808,139.404,-66.04,-107.972,0,0,0,
,-0.107,-0.309,0.811,133.728,26.184,-120.118,0,0,0,
,-0.017,-0.357,0.812,105.041,74.035,-106.507,0,0,0,
,0.001,-0.441,0.816,56.518,8.422,-66.651,0,0,0,
,-0.004,-0.426,0.831,-15.442,-62.073,-27.588,0,0,0,
,-0.077,-0.277,0.822,28.564,-112.732,-20.935,0,0,0,
,-0.13,-0.258,0.888,164.672,-97.596,-27.588,0,0,0,
,-0.074,-0.284,0.861,273.986,1.159,-59.632,0,0,0,
,0,-0.448,0.827,342.285,-12.757,-83.497,0,0,0,
,0.001,-0.665,0.799,275.024,-58.777,-79.102,0,0,0,
,-0.016,-0.703,0.848,54.077,-97.046,-29.786,0,0,0,
,-0.072,-0.478,0.839,-117.371,-119.69,14.343,0,0,0,
,-0.1,-0.297,0.885,-95.826,-139.71,-4.822,0,0,0,
,-0.145,-0.277,0.887,66.711,-125.794,-41.077,0,0,0,
,-0.197,-0.437,0.847,180.847,-127.686,-58.777,0,0,0,
,-0.24,-0.522,0.859,129.089,-147.461,-54.017,0,0,0,
,-0.283,-0.533,0.964,-44.8,-175.415,-50.11,0,0,0,
,-0.338,-0.426,1.038,-146.302,-148.499,-18.494,0,0,0,
,-0.348,-0.293,0.971,-87.586,-84.168,28.259,0,0,0,
,-0.316,-0.251,0.923,59.692,-28.687,23.01,0,0,0,
,-0.27,-0.346,0.875,191.711,-4.822,-4.517,0,0,0,
,-0.223,-0.542,0.851,195.068,-17.701,-21.058,0,0,0,
,-0.178,-0.713,0.897,1.831,-16.48,-52.613,0,0,0,
,-0.142,-0.682,0.98,-257.935,-28.748,-65.43,0,0,0,
,-0.158,-0.455,0.993,-293.824,-33.448,-38.025,0,0,0,
,-0.204,-0.259,0.951,-73.06,-44.617,-25.879,0,0,0,
,-0.228,-0.296,0.889,187.927,-18.982,-57.618,0,0,0,
,-0.207,-0.528,0.814,237.182,13.916,-103.699,0,0,0,
,-0.144,-0.688,0.817,41.809,22.583,-111.451,0,0,0,
,-0.122,-0.609,0.865,-175.599,-24.537,-104.065,0,0,0,
,-0.156,-0.391,0.928,-205.567,-70.984,-64.576,0,0,0,
,-0.213,-0.279,0.945,-83.497,-66.468,-71.9,0,0,0,
,-0.222,-0.37,0.965,89.66,-18.86,-90.516,0,0,0,
,-0.189,-0.425,0.887,138.549,37.719,-44.556,0,0,0,
,-0.146,-0.523,0.793,91.369,44.86,-54.505,0,0,0,
,-0.109,-0.598,0.836,-51.331,19.47,-63.66,0,0,0,
,-0.096,-0.473,0.89,-226.014,-8.789,-39.429,0,0,0,
,-0.12,-0.321,0.952,-195.74,-37.293,-42.969,0,0,0,
,-0.154,-0.3,0.976,-36.499,-31.861,-49.195,0,0,0,
,-0.16,-0.404,0.92,104.98,4.577,-51.575,0,0,0,
,-0.143,-0.519,0.851,109.497,22.399,-62.989,0,0,0,
,-0.121,-0.579,0.854,-31.25,17.822,-60.303,0,0,0,
,-0.124,-0.501,0.885,-142.884,1.892,-54.261,0,0,0,
,-0.13,-0.393,0.926,-125.245,-8.789,-60.486,0,0,0,
,-0.149,-0.36,0.948,-21.851,-12.635,-65.857,0,0,0,
,-0.162,-0.409,0.945,71.044,-8.057,-68.97,0,0,0,
,-0.156,-0.478,0.872,75.073,15.197,-47.974,0,0,0,
,-0.13,-0.505,0.858,-15.076,13.427,-37.903,0,0,0,
,-0.122,-0.427,0.868,-112.061,-7.019,-19.41,0,0,0,
,-0.143,-0.379,0.916,-117.798,-20.874,-21.058,0,0,0,
,-0.146,-0.349,0.951,-69.397,-10.01,-13.672,0,0,0,
,-0.158,-0.36,0.944,24.475,-1.526,-13.611,0,0,0,
,-0.16,-0.438,0.932,97.045,10.437,-0.245,0,0,0,
,-0.157,-0.485,0.875,45.959,26.794,2.136,0,0,0,
,-0.135,-0.459,0.874,-66.04,37.048,-18.799,0,0,0,
,-0.122,-0.4,0.899,-88.501,24.047,-32.654,0,0,0,
,-0.139,-0.362,0.937,-34.363,1.281,-41.565,0,0,0,
,-0.179,-0.395,0.936,54.87,3.601,-48.218,0,0,0,
,-0.182,-0.461,0.914,92.285,30.334,-26.368,0,0,0,
,-0.161,-0.508,0.883,26.428,40.832,-24.72,0,0,0,
,-0.142,-0.466,0.87,-78.919,41.442,-17.823,0,0,0,
,-0.145,-0.368,0.91,-93.018,10.131,-11.353,0,0,0,
,-0.168,-0.34,0.931,-21.851,1.525,-22.644,0,0,0,
,-0.18,-0.383,0.935,65.734,15.93,-22.95,0,0,0,
,-0.171,-0.498,0.888,86.059,18.371,-7.691,0,0,0,
,-0.153,-0.523,0.905,-40.589,23.437,-13.977,0,0,0,
,-0.163,-0.381,0.89,-107.85,19.775,1.525,0,0,0,
,-0.193,-0.326,0.889,-35.096,-2.015,11.352,0,0,0,
,-0.201,-0.332,0.913,9.704,5.554,4.272,0,0,0,
,-0.185,-0.36,0.936,38.94,33.203,-9.4,0,0,0,
,-0.172,-0.446,0.897,68.664,43.151,-15.931,0,0,0,
,-0.161,-0.502,0.885,14.587,35.278,-12.33,0,0,0,
,-0.152,-0.433,0.889,-83.069,40.588,2.685,0,0,0,
,-0.175,-0.326,0.89,-60.059,30.944,17.273,0,0,0,
,-0.206,-0.276,0.883,30.883,35.095,32.47,0,0,0,
,-0.198,-0.375,0.866,77.636,75.988,31.25,0,0,0,
,-0.147,-0.469,0.874,7.324,118.225,40.893,0,0,0,
,-0.099,-0.506,0.853,-89.722,119.629,36.071,0,0,0,
,-0.048,-0.57,0.967,-187.439,64.575,-13.367,0,0,0,
,-0.121,-0.444,0.976,-180.298,3.234,5.737,0,0,0,
,-0.184,-0.386,0.977,-99.732,10.131,-4.09,0,0,0,
,-0.171,-0.471,0.964,-71.839,28.503,-23.804,0,0,0,
,-0.128,-0.497,0.913,-152.1,33.996,-22.095,0,0,0,
,-0.138,-0.381,0.875,-218.079,-13.123,-0.733,0,0,0,
,-0.195,-0.254,0.911,-209.473,-29.664,5.493,0,0,0,
,-0.231,-0.221,0.924,-131.592,35.095,21.606,0,0,0,
,-0.17,-0.273,0.969,-66.468,100.219,25.94,0,0,0,
,-0.104,-0.407,0.957,-65.857,103.149,6.713,0,0,0,
,-0.063,-0.462,0.99,-149.109,91.308,-2.625,0,0,0,
,-0.06,-0.353,1.029,-157.471,65.124,1.525,0,0,0,
,-0.057,-0.265,0.998,-68.787,54.504,-18.25,0,0,0,
,-0.03,-0.301,1.03,52.673,53.649,-13.306,0,0,0,
,0.018,-0.411,1.039,44.311,73.059,-24.781,0,0,0,
,0.068,-0.442,1.011,-61.097,99.426,-36.438,0,0,0,
,0.099,-0.397,0.982,-82.947,78.369,-29.725,0,0,0,
,0.103,-0.379,0.978,-40.772,52.124,-41.504,0,0,0,
,0.092,-0.347,0.94,20.385,37.048,-50.538,0,0,0,
,0.09,-0.36,0.963,116.455,25.329,-47.73,0,0,0,
,0.07,-0.455,0.979,108.947,12.756,-75.135,0,0,0,
,0.011,-0.466,0.919,19.287,8.789,-83.497,0,0,0,
,-0.061,-0.38,0.895,-3.174,-6.226,-95.826,0,0,0,
,-0.134,-0.362,0.927,39.794,-4.273,-96.314,0,0,0,
,-0.157,-0.39,0.93,77.575,41.931,-95.948,0,0,0,
,-0.151,-0.431,0.902,86.914,50.781,-80.079,0,0,0,
,-0.177,-0.453,0.961,8.117,18.859,-106.629,0,0,0,
,-0.233,-0.322,0.89,1.281,8.178,-75.257,0,0,0,
,-0.277,-0.254,0.889,71.838,-32.349,-54.383,0,0,0,
,-0.324,-0.195,0.902,91.491,-41.932,-46.814,0,0,0,
,-0.364,-0.176,0.887,92.285,-13.672,-2.442,0,0,0,
,-0.346,-0.224,0.884,-19.043,23.681,35.095,0,0,0,
,-0.299,-0.225,0.892,-103.76,43.518,78.613,0,0,0,
,-0.265,-0.266,0.912,-54.932,39.733,85.022,0,0,0,
,-0.224,-0.284,0.936,29.235,46.752,62.255,0,0,0,
,-0.197,-0.44,0.957,45.959,54.992,1.464,0,0,0,
,-0.142,-0.47,0.939,-81.177,88.562,-9.4,0,0,0,
,-0.097,-0.395,0.959,-115.479,69.702,29.846,0,0,0,
,-0.08,-0.375,0.947,-129.09,43.273,22.888,0,0,0,
,-0.098,-0.193,0.858,-105.164,44.982,58.654,0,0,0,
,-0.056,-0.15,0.908,9.643,53.344,70.434,0,0,0,
,-0.023,-0.287,0.916,68.969,87.89,67.81,0,0,0,
,0.049,-0.411,0.958,-59.082,125.915,69.336,0,0,0,
,0.115,-0.427,1.005,-133.789,122.802,73.059,0,0,0,
,0.154,-0.428,1.068,-83.863,92.407,53.039,0,0,0,
,0.166,-0.436,1.082,7.446,55.114,10.498,0,0,0,
,0.149,-0.44,1.09,82.641,7.507,-28.87,0,0,0,
,0.121,-0.387,1.074,102.844,-23.499,-36.988,0,0,0,
,0.087,-0.33,1.028,112.732,-43.946,-37.659,0,0,0,
,0.032,-0.3,1.019,141.418,-55.909,-30.701,0,0,0,
,-0.024,-0.369,0.968,163.452,-30.213,-52.308,0,0,0,
,-0.038,-0.414,0.961,125.366,4.272,-56.458,0,0,0,
,-0.068,-0.491,0.92,140.625,25.94,-59.632,0,0,0,
,-0.072,-0.519,0.86,127.685,52.673,-81.116,0,0,0,
,-0.102,-0.431,0.82,74.768,14.16,-76.783,0,0,0,
,-0.164,-0.338,0.835,37.597,-8.24,-81.971,0,0,0,
,-0.219,-0.218,0.829,85.937,-9.644,-56.519,0,0,0,
,-0.252,-0.214,0.906,104.797,-5.188,-55.542,0,0,0,
,-0.269,-0.317,0.903,93.383,44.372,-18.677,0,0,0,
,-0.205,-0.381,0.911,-27.832,67.688,0.549,0,0,0,
,-0.208,-0.287,0.889,-74.402,18.31,38.635,0,0,0,
,-0.258,-0.297,0.952,-17.212,1.648,36.132,0,0,0,
,-0.218,-0.403,0.97,13.183,79.773,27.465,0,0,0,
,-0.1,-0.467,0.934,-29.786,118.042,23.376,0,0,0,
,-0.036,-0.444,0.911,-67.017,56.091,28.625,0,0,0,
,-0.06,-0.364,0.857,-105.652,36.315,39.733,0,0,0,
,-0.058,-0.193,0.826,-95.154,47.241,63.537,0,0,0,
,0.002,-0.185,1.079,-32.593,38.513,45.41,0,0,0,
,0.018,-0.296,1.065,72.326,28.259,77.941,0,0,0,
,0.092,-0.502,0.991,21.118,61.096,14.953,0,0,0,
,-0.031,-0.281,0.946,-136.658,-54.444,87.768,0,0,0,
,-0.014,-0.505,1.119,-26.49,84.594,17.822,0,0,0,
,0.171,-0.839,1.015,-47.364,185.608,-42.298,0,0,0,
,0.238,-0.749,0.82,-175.538,94.482,-82.947,0,0,0,
,0.087,-0.325,0.928,-253.296,-94.422,-94.117,0,0,0,
,-0.087,-0.163,1.019,-75.562,-63.355,-117.005,0,0,0,
,0.073,-0.283,1.012,174.438,128.173,-130.86,0,0,0,
,0.205,-0.431,0.945,192.688,53.1,-138.611,0,0,0,
,0.135,-0.403,0.909,22.216,-12.574,-135.071,0,0,0,
,0.004,-0.269,0.914,-56.336,-40.406,-97.107,0,0,0,
,-0.053,-0.264,0.941,17.334,3.906,-91.004,0,0,0,
,-0.028,-0.378,0.959,56.335,55.175,-110.352,0,0,0,
,-0.001,-0.41,0.957,76.049,33.752,-115.784,0,0,0,
,-0.023,-0.349,0.975,154.48,-38.453,-98.755,0,0,0,
,-0.081,-0.338,1.005,225.952,-63.416,-95.337,0,0,0,
,-0.071,-0.361,0.978,239.99,-35.889,-97.657,0,0,0,
,-0.056,-0.368,0.955,164.306,-41.565,-77.271,0,0,0,
,-0.067,-0.343,0.882,129.821,-11.597,-42.054,0,0,0,
,-0.038,-0.37,0.851,107.666,4.76,-31.617,0,0,0,
,-0.032,-0.355,0.864,99.731,-25.208,-25.696,0,0,0,
,-0.058,-0.385,0.877,105.346,-3.296,-43.335,0,0,0,
,-0.055,-0.454,0.905,51.818,-5.188,-57.923,0,0,0,
,-0.082,-0.4,0.93,-25.452,8.544,-54.871,0,0,0,
,-0.072,-0.392,0.878,-26.856,52.063,-37.964,0,0,0,
,0.013,-0.386,0.869,-25.452,39.917,-26.551,0,0,0,
,0.023,-0.315,0.91,5.92,-46.204,-12.574,0,0,0,
,-0.045,-0.284,0.879,92.346,-83.374,-10.865,0,0,0,
,-0.082,-0.311,0.866,150.695,-79.773,-16.785,0,0,0,
,-0.101,-0.353,0.891,186.279,-72.022,-19.532,0,0,0,
,-0.108,-0.426,0.937,213.317,-43.335,-26.917,0,0,0,
,-0.092,-0.496,0.945,188.781,-7.019,-11.353,0,0,0,
,-0.064,-0.517,0.911,75.927,-46.692,-10.437,0,0,0,
,-0.105,-0.48,0.94,-39.185,-110.718,-26.612,0,0,0,
,-0.178,-0.385,0.986,-70.069,-165.162,-11.658,0,0,0,
,-0.241,-0.332,1.06,-23.316,-170.411,-28.26,0,0,0,
,-0.285,-0.344,1.052,68.115,-122.01,-24.781,0,0,0,
,-0.295,-0.338,0.948,179.565,-69.642,4.577,0,0,0,
,-0.3,-0.395,0.874,224.548,-54.322,-5.738,0,0,0,
,-0.29,-0.489,0.803,132.995,-25.696,-42.115,0,0,0,
,-0.239,-0.507,0.84,-24.659,-20.081,-56.397,0,0,0,
,-0.198,-0.505,0.917,-126.77,-60.791,-76.722,0,0,0,
,-0.2,-0.474,1.013,-186.585,-86.121,-95.093,0,0,0,
,-0.218,-0.428,1.029,-139.344,-70.618,-82.581,0,0,0,
,-0.209,-0.352,0.97,-1.893,-45.166,-44.861,0,0,0,
,-0.187,-0.437,0.87,97.045,-40.039,-72.205,0,0,0,
,-0.157,-0.54,0.87,38.33,-42.786,-106.324,0,0,0,
,-0.149,-0.532,0.917,-82.093,-52.124,-122.62,0,0,0,
,-0.16,-0.417,0.926,-131.958,-47.12,-124.512,0,0,0,
,-0.159,-0.327,0.917,-42.054,-45.533,-113.038,0,0,0,
,-0.173,-0.33,0.878,67.565,-45.35,-108.948,0,0,0,
,-0.172,-0.482,0.859,68.298,-36.194,-100.708,0,0,0,
,-0.136,-0.548,0.878,-55.298,-20.569,-49.805,0,0,0,
,-0.107,-0.449,0.919,-212.159,-27.832,-36.255,0,0,0,
,-0.125,-0.302,0.936,-216.919,-33.143,-36.927,0,0,0,
,-0.151,-0.262,0.919,-77.088,-24.17,-37.049,0,0,0,
,-0.15,-0.322,0.892,76.294,4.699,-9.522,0,0,0,
,-0.117,-0.444,0.845,77.331,15.441,-8.728,0,0,0,
,-0.103,-0.464,0.863,-56.824,13.916,-24.903,0,0,0,
,-0.108,-0.403,0.903,-149.903,13.61,-27.039,0,0,0,
,-0.107,-0.355,0.922,-122.132,31.982,-28.382,0,0,0,
,-0.087,-0.366,0.926,-33.936,38.452,-19.593,0,0,0,
,-0.097,-0.397,0.904,36.56,32.226,-11.719,0,0,0,
,-0.111,-0.464,0.891,27.587,37.78,-8.789,0,0,0,
,-0.089,-0.461,0.901,-39.856,47.424,4.577,0,0,0,
,-0.083,-0.397,0.927,-75.379,25.146,2.807,0,0,0,
,-0.103,-0.355,0.946,-50.232,13.916,-18.067,0,0,0,
,-0.121,-0.354,0.953,-0.367,19.714,-39.124,0,0,0,
,-0.109,-0.448,0.919,49.499,25.085,-36.438,0,0,0,
,-0.101,-0.489,0.898,-11.78,10.437,-23.499,0,0,0,
,-0.117,-0.443,0.93,-119.202,-27.039,-19.593,0,0,0,
,-0.146,-0.352,0.958,-148.804,-36.988,-5.372,0,0,0,
,-0.162,-0.271,0.982,-94.3,-36.438,-1.404,0,0,0,
,-0.168,-0.259,0.994,19.165,-11.536,-12.207,0,0,0,
,-0.173,-0.343,0.953,115.783,21.728,-37.232,0,0,0,
,-0.145,-0.479,0.882,108.337,52.734,-42.176,0,0,0,
,-0.114,-0.513,0.885,-33.753,39.672,-53.528,0,0,0,
,-0.122,-0.385,0.951,-151.795,11.047,-45.777,0,0,0,
,-0.163,-0.292,0.983,-96.619,-1.77,-34.241,0,0,0,
,-0.17,-0.302,0.973,27.343,27.648,-26.673,0,0,0,
,-0.139,-0.438,0.918,55.969,51.452,-39.795,0,0,0,
,-0.114,-0.509,0.885,-79.59,40.893,-55.298,0,0,0,
,-0.118,-0.397,0.903,-196.106,10.07,-50.477,0,0,0,
,-0.16,-0.258,0.965,-154.602,-14.161,-52.918,0,0,0,
,-0.184,-0.244,0.973,-6.47,-1.038,-50.965,0,0,0,
,-0.168,-0.313,0.959,93.627,19.714,-39.551,0,0,0,
,-0.151,-0.407,0.926,86.914,22.399,-40.589,0,0,0,
,-0.142,-0.477,0.901,-11.414,15.564,-31.434,0,0,0,
,-0.14,-0.387,0.901,-138.977,-0.611,-15.686,0,0,0,
,-0.171,-0.25,0.943,-148.438,-15.32,-17.518,0,0,0,
,-0.202,-0.174,0.983,-14.222,6.774,-12.33,0,0,0,
,-0.202,-0.201,0.962,174.804,47.607,-4.639,0,0,0,
,-0.168,-0.386,0.885,264.77,90.82,-10.254,0,0,0,
,-0.126,-0.556,0.856,134.399,89.66,-7.691,0,0,0,
,-0.124,-0.438,0.874,-96.924,66.833,5.432,0,0,0,
,-0.159,-0.223,0.915,-99.793,39.917,2.624,0,0,0,
,-0.187,-0.147,0.964,84.838,27.16,1.098,0,0,0,
,-0.219,-0.237,0.966,236.938,41.015,18.371,0,0,0,
,-0.162,-0.501,0.932,198.059,74.646,19.47,0,0,0,
,-0.108,-0.544,0.932,-58.106,70.312,19.043,0,0,0,
,-0.143,-0.342,0.961,-134.644,21.85,50.17,0,0,0,
,-0.21,-0.267,0.978,-25.574,12.268,41.442,0,0,0,
,-0.19,-0.292,0.943,76.11,42.724,50.598,0,0,0,
,-0.155,-0.459,0.938,68.298,27.099,39.306,0,0,0,
,-0.155,-0.414,0.901,-93.811,37.292,42.48,0,0,0,
,-0.195,-0.314,0.881,-138.55,41.748,60.302,0,0,0,
,-0.19,-0.256,0.912,-110.108,70.129,63.171,0,0,0,
,-0.15,-0.207,0.886,-39.673,86.303,71.655,0,0,0,
,-0.07,-0.328,0.908,12.329,88.928,59.448,0,0,0,
,0.01,-0.439,0.933,-19.593,105.651,66.162,0,0,0,
,0.067,-0.5,0.961,-33.936,107.238,60.974,0,0,0,
,0.118,-0.582,1.005,-25.33,121.887,17.639,0,0,0,
,0.18,-0.592,1.018,12.146,107.055,-30.274,0,0,0,
,0.201,-0.562,1.007,49.743,47.973,-60.364,0,0,0,
,0.141,-0.49,0.964,-4.944,-5.494,-94.666,0,0,0,
,0.039,-0.346,0.909,-40.589,-19.654,-81.91,0,0,0,
,-0.034,-0.288,0.91,-18.494,-6.104,-73.792,0,0,0,
,-0.038,-0.322,0.922,-8.545,30.456,-59.266,0,0,0,
,-0.026,-0.349,0.996,-9.522,-2.93,-42.481,0,0,0,
,-0.079,-0.4,1.001,10.376,-20.02,-51.453,0,0,0,
,-0.093,-0.43,0.972,-4.944,-17.273,-59.266,0,0,0,
,-0.11,-0.382,0.965,15.441,-24.476,-44.19,0,0,0,
,-0.157,-0.428,0.855,119.751,-30.579,-36.866,0,0,0,
,-0.148,-0.442,0.876,17.639,8.3,-65.43,0,0,0,
,-0.183,-0.318,0.898,40.466,-8.912,-33.387,0,0,0,
,-0.232,-0.291,0.909,57.251,0.183,-48.035,0,0,0,
,-0.272,-0.229,0.921,47.424,-5.066,-27.222,0,0,0,
,-0.323,-0.147,0.953,20.263,-22.278,-10.376,0,0,0,
,-0.348,-0.113,0.988,29.419,5.249,25.573,0,0,0,
,-0.315,-0.195,1.045,69.274,36.621,30.334,0,0,0,
,-0.203,-0.364,1.034,79.284,58.837,53.222,0,0,0,
,-0.136,-0.484,1.027,34.668,28.503,20.568,0,0,0,
,-0.155,-0.438,0.928,20.202,3.112,24.963,0,0,0,
,-0.17,-0.365,0.889,8.178,-0.794,8.667,0,0,0,
,-0.179,-0.32,0.822,6.042,33.386,13.794,0,0,0,
,-0.135,-0.379,0.821,-64.331,78.491,16.54,0,0,0,
,-0.122,-0.197,0.768,-148.133,86.425,84.533,0,0,0,
,-0.127,-0.165,0.877,-94.483,103.942,98.388,0,0,0,
,-0.043,-0.292,0.942,-2.625,148.559,112.121,0,0,0,
,0.067,-0.382,1.021,51.025,138.855,113.952,0,0,0,
,0.141,-0.505,1.062,105.713,115.661,97.534,0,0,0,
,0.222,-0.665,1.065,57.617,103.21,48.706,0,0,0,
,0.226,-0.533,1.055,-36.744,45.593,24.658,0,0,0,
,0.195,-0.422,1.026,-18.982,1.953,-20.935,0,0,0,
,0.152,-0.285,1.012,77.941,-21.912,-31.25,0,0,0,
,0.127,-0.362,0.938,166.687,-9.278,-46.448,0,0,0,
,0.103,-0.426,0.907,52.246,-7.996,-70.313,0,0,0,
,0.036,-0.388,0.863,18.127,-5.555,-65.186,0,0,0,
,-0.005,-0.411,0.896,54.565,-0.672,-67.872,0,0,0,
,-0.046,-0.519,0.918,85.083,6.286,-79.285,0,0,0,
,-0.07,-0.572,0.895,14.16,29.113,-88.501,0,0,0,
,-0.093,-0.433,0.847,23.315,32.348,-71.351,0,0,0,
,-0.104,-0.426,0.997,-23.621,-27.71,-111.634,0,0,0,
,-0.154,-0.246,0.977,-17.64,-34.485,-27.588,0,0,0,
,-0.181,-0.258,1.021,57.128,-36.316,-23.072,0,0,0,
,-0.156,-0.409,0.913,3.479,12.695,-18.555,0,0,0,
,-0.12,-0.437,0.911,-121.766,6.897,-34.913,0,0,0,
,-0.184,-0.312,0.903,-126.099,-18.067,-25.391,0,0,0,
,-0.229,-0.236,0.916,-47.12,-10.926,-40.711,0,0,0,
,-0.225,-0.134,0.9,31.616,8.056,-30.762,0,0,0,
,-0.228,-0.044,0.959,104.248,-15.686,-4.761,0,0,0,
,-0.249,-0.254,1.012,206.97,23.986,19.897,0,0,0,
,-0.154,-0.564,1.025,153.93,98.755,12.329,0,0,0,
,-0.061,-0.579,0.948,-1.526,86.792,27.282,0,0,0,
,-0.102,-0.395,0.9,-72.388,3.723,44.616,0,0,0,
,-0.167,-0.274,0.833,2.441,19.775,61.462,0,0,0,
,-0.117,-0.317,0.782,13.183,96.74,42.175,0,0,0,
,-0.037,-0.334,0.865,-55.909,117.675,41.992,0,0,0,
,0.06,-0.325,1.112,-58.411,12.39,54.565,0,0,0,
,-0.206,-0.278,0.643,-101.136,-44.19,86.731,0,0,0,
,-0.13,-0.253,0.852,-272.278,203.491,78.674,0,0,0,
,0.066,-0.421,0.987,-143.067,168.151,67.321,0,0,0,
,0.166,-0.563,1.061,-69.886,122.68,48.461,0,0,0,
,0.199,-0.585,1.148,9.643,53.161,29.907,0,0,0,
,0.257,-0.669,1.086,85.266,65.612,-27.71,0,0,0,
,0.275,-0.631,0.915,-10.254,21.667,-75.257,0,0,0,
,0.153,-0.346,0.971,-146.973,-58.96,-71.778,0,0,0,
,0.087,-0.292,1.072,-0.184,-35.096,-72.51,0,0,0,
,0.198,-0.522,1.003,143.676,69.641,-104.615,0,0,0,
,0.241,-0.565,0.985,112.06,-61.646,-125.916,0,0,0,
,0.04,-0.393,1.073,79.528,-212.525,-121.216,0,0,0,
,-0.159,-0.26,1.033,171.997,-179.2,-105.225,0,0,0,
,-0.218,-0.335,0.76,236.938,7.446,-126.038,0,0,0,
,0.026,-0.406,0.973,112.793,36.926,-141.602,0,0,0,
,-0.14,-0.288,0.776,145.63,-69.214,-95.337,0,0,0,
,-0.167,-0.387,0.947,43.884,7.629,-102.417,0,0,0,
,-0.126,-0.365,1.031,24.719,39.367,-76.05,0,0,0,
,-0.054,-0.472,1.058,52.795,82.092,-109.131,0,0,0,
,0.014,-0.45,1.087,65.734,20.08,-105.347,0,0,0,
,-0.007,-0.329,0.937,232.116,-15.625,-102.051,0,0,0,
,-0.043,-0.393,0.921,359.253,-53.406,-104.065,0,0,0,
,-0.022,-0.371,0.84,276.794,-13.794,-88.074,0,0,0,
,-0.029,-0.363,0.75,207.153,22.461,-71.839,0,0,0,
,0.028,-0.454,0.748,82.702,105.163,-88.685,0,0,0,
,0.065,-0.418,0.738,18.188,84.045,-70.74,0,0,0,
,-0.038,-0.434,0.725,21.789,15.686,-67.749,0,0,0,
,-0.096,-0.411,0.812,-11.475,11.108,-51.27,0,0,0,
,-0.116,-0.406,0.843,11.779,50.537,-48.951,0,0,0,
,-0.064,-0.523,0.913,-33.997,62.988,-75.013,0,0,0,
,-0.053,-0.488,0.894,-132.019,50.598,-58.777,0,0,0,
,-0.041,-0.367,0.95,-116.761,-7.996,-17.64,0,0,0,
,-0.063,-0.295,0.937,-35.096,-25.025,-27.588,0,0,0,
,-0.04,-0.294,0.946,57.617,-17.701,-37.842,0,0,0,
,-0.044,-0.324,0.931,196.228,-50.904,-53.711,0,0,0,
,-0.14,-0.485,0.987,231.323,-84.961,-87.83,0,0,0,
,-0.181,-0.615,0.958,104.37,-1.526,-52.491,0,0,0,
,-0.113,-0.502,0.946,-112.366,44.006,-18.616,0,0,0,
,-0.085,-0.352,0.96,-122.742,-19.654,-2.076,0,0,0,
,-0.133,-0.244,0.917,-55.848,-60.12,-18.616,0,0,0,
,-0.154,-0.257,0.891,86.792,-74.524,-43.885,0,0,0,
,-0.193,-0.427,0.966,166.015,-154.847,-85.45,0,0,0,
,-0.273,-0.581,1.011,80.932,-162.232,-76.661,0,0,0,
,-0.297,-0.514,0.993,-71.351,-109.864,27.954,0,0,0,
,-0.26,-0.332,0.952,-114.685,-79.956,44.189,0,0,0,
,-0.24,-0.282,0.891,-30.945,-75.989,30.517,0,0,0,
,-0.217,-0.382,0.888,45.349,-82.337,-3.174,0,0,0,
,-0.166,-0.538,0.886,7.385,-60.181,-25.513,0,0,0,
,-0.12,-0.611,0.917,-91.858,-73.853,-54.444,0,0,0,
,-0.108,-0.557,1,-181.519,-94.727,-74.524,0,0,0,
,-0.15,-0.383,0.97,-110.169,-84.046,-56.946,0,0,0,
,-0.162,-0.354,0.897,39.978,-52.002,-47.242,0,0,0,
,-0.123,-0.515,0.852,60.424,-31.495,-84.412,0,0,0,
,-0.094,-0.608,0.853,-90.577,-57.74,-103.638,0,0,0,
,-0.106,-0.483,0.92,-260.865,-93.323,-84.839,0,0,0,
,-0.136,-0.296,0.943,-242.188,-127.32,-59.449,0,0,0,
,-0.167,-0.259,0.95,-100.647,-124.024,-59.449,0,0,0,
,-0.173,-0.316,0.939,-6.653,-91.858,-57.068,0,0,0,
,-0.159,-0.368,0.9,51.452,-67.322,-31.373,0,0,0,
,-0.147,-0.43,0.854,40.649,-50.538,-23.194,0,0,0,
,-0.143,-0.451,0.842,-55.42,-29.053,-39.551,0,0,0,
,-0.123,-0.349,0.875,-109.925,-13.001,-39.002,0,0,0,
,-0.128,-0.278,0.924,-7.752,-14.71,-46.631,0,0,0,
,-0.137,-0.334,0.891,139.77,7.446,-41.748,0,0,0,
,-0.13,-0.478,0.841,163.757,26.245,-38.88,0,0,0,
,-0.111,-0.554,0.848,-6.531,38.208,-40.406,0,0,0,
,-0.121,-0.379,0.891,-134.827,34.79,1.037,0,0,0,
,-0.128,-0.29,0.916,-74.952,36.01,22.766,0,0,0,
,-0.105,-0.291,0.92,42.48,57.678,7.324,0,0,0,
,-0.087,-0.375,0.885,141.113,59.326,-9.705,0,0,0,
,-0.078,-0.526,0.874,121.399,27.099,-17.945,0,0,0,
,-0.073,-0.53,0.912,-45.899,0.549,-22.034,0,0,0,
,-0.105,-0.449,0.947,-165.039,-20.447,-16.663,0,0,0,
,-0.135,-0.318,1.001,-146.363,-30.03,10.192,0,0,0,
,-0.168,-0.277,0.989,25.329,2.502,41.809,0,0,0,
,-0.157,-0.346,0.878,133.667,51.086,37.353,0,0,0,
,-0.095,-0.467,0.83,101.013,54.931,33.569,0,0,0,
,-0.078,-0.51,0.903,-59.327,15.991,-18.494,0,0,0,
,-0.136,-0.402,0.964,-92.164,-17.518,-10.193,0,0,0,
,-0.184,-0.335,0.995,-38.025,17.15,-8.301,0,0,0,
,-0.15,-0.334,0.96,64.636,76.049,-15.809,0,0,0,
,-0.077,-0.495,0.954,130.554,65.124,-31.556,0,0,0,
,-0.058,-0.569,0.931,20.752,9.399,-40.711,0,0,0,
,-0.094,-0.428,0.943,-86.121,-29.236,-22.583,0,0,0,
,-0.153,-0.366,0.973,-45.716,-45.166,-33.081,0,0,0,
,-0.172,-0.342,0.943,10.253,7.995,-24.537,0,0,0,
,-0.132,-0.366,0.946,56.03,29.541,-33.631,0,0,0,
,-0.105,-0.487,0.92,31.372,16.052,-31.25,0,0,0,
,-0.093,-0.48,0.899,-93.873,-1.893,-24.353,0,0,0,
,-0.126,-0.341,0.932,-131.348,-26.978,-23.377,0,0,0,
,-0.177,-0.303,0.908,-51.758,-25.757,-27.222,0,0,0,
,-0.145,-0.368,1.06,2.197,-6.287,-50.049,0,0,0,
,-0.163,-0.449,0.961,76.904,-6.531,-2.503,0,0,0,
,-0.137,-0.529,0.884,-70.801,27.038,-9.522,0,0,0,
,-0.123,-0.341,0.922,-175.11,4.089,2.99,0,0,0,
,-0.166,-0.209,0.932,-28.748,-12.818,8.239,0,0,0,
,-0.184,-0.306,0.913,150.634,-10.193,9.948,0,0,0,
,-0.143,-0.472,0.943,78.735,23.559,-22.278,0,0,0,
,-0.133,-0.42,0.909,19.897,23.62,1.281,0,0,0,
,-0.132,-0.415,0.924,-12.513,19.592,-9.217,0,0,0,
,-0.154,-0.358,0.929,-30.518,8.483,1.403,0,0,0,
,-0.169,-0.296,0.921,31.677,15.991,7.08,0,0,0,
,-0.151,-0.321,0.905,95.275,20.385,3.234,0,0,0,
,-0.132,-0.337,0.925,125.183,0.366,9.948,0,0,0,
,-0.151,-0.435,0.886,102.295,8.422,16.723,0,0,0,
,-0.139,-0.467,0.916,-27.955,13.061,34.057,0,0,0,
,-0.175,-0.339,0.92,-106.263,22.522,59.875,0,0,0,
,-0.2,-0.268,0.916,-43.396,38.513,41.626,0,0,0,
,-0.208,-0.257,0.947,65.49,43.579,46.752,0,0,0,
,-0.21,-0.4,0.869,99.304,42.846,56.396,0,0,0,
,-0.153,-0.438,0.874,-43.824,49.011,61.523,0,0,0,
,-0.173,-0.329,0.922,-53.528,30.029,78.002,0,0,0,
,-0.186,-0.354,0.936,31.066,52.246,73.913,0,0,0,
,-0.142,-0.33,1.006,107.788,68.542,66.223,0,0,0,
,-0.157,-0.442,0.939,199.768,34.79,70.556,0,0,0,
,-0.093,-0.597,0.93,20.69,53.955,41.381,0,0,0,
,-0.076,-0.394,0.883,-50.721,20.568,78.918,0,0,0,
,-0.137,-0.379,0.933,28.991,-4.456,50.293,0,0,0,
,-0.12,-0.422,0.964,21.057,69.213,28.137,0,0,0,
,-0.024,-0.446,0.936,-8.24,112.854,23.864,0,0,0,
,0.059,-0.516,0.917,-22.767,86.486,26.245,0,0,0,
,0.055,-0.479,0.942,-27.527,33.386,26.733,0,0,0,
,0.049,-0.532,1.006,9.887,48.4,-19.654,0,0,0,
,0.117,-0.611,1.01,-10.987,83.618,-63.477,0,0,0,
,0.151,-0.504,0.978,20.629,36.804,-68.177,0,0,0,
,0.087,-0.505,0.969,129.821,-50.843,-79.163,0,0,0,
,-0.003,-0.499,0.911,52.856,-50.477,-92.164,0,0,0,
,-0.045,-0.357,0.884,38.757,-32.837,-59.754,0,0,0,
,-0.079,-0.361,0.868,75.927,-21.18,-59.998,0,0,0,
,-0.07,-0.426,0.888,57.006,13.549,-69.825,0,0,0,
,-0.098,-0.5,0.862,50.476,-3.418,-78.553,0,0,0,
,-0.155,-0.445,0.869,58.166,-10.865,-56.031,0,0,0,
,-0.216,-0.458,0.881,104.187,15.258,-85.511,0,0,0,
,-0.178,-0.486,0.866,63.354,63.11,-89.905,0,0,0,
,-0.185,-0.377,0.863,33.264,9.216,-57.923,0,0,0,
,-0.269,-0.267,0.848,13.488,-27.832,-44.617,0,0,0,
,-0.36,-0.146,0.792,28.381,-29.419,5.554,0,0,0,
,-0.408,-0.161,0.912,-24.17,-4.334,22.033,0,0,0,
,-0.379,-0.249,0.976,-25.208,104.553,55.114,0,0,0,
,-0.204,-0.496,1.029,-47.364,179.565,24.536,0,0,0,
,-0.059,-0.544,1.029,-62.134,117.859,21.301,0,0,0,
,-0.108,-0.488,0.992,-6.714,-5.86,10.498,0,0,0,
,-0.182,-0.451,0.994,-14.832,-4.273,-10.621,0,0,0,
,-0.154,-0.364,0.932,-28.382,70.312,-5.127,0,0,0,
,-0.078,-0.328,0.889,1.098,82.58,15.93,0,0,0,
,-0.071,-0.355,0.86,-7.508,43.09,38.391,0,0,0,
,-0.074,-0.311,0.843,-31.006,62.683,67.81,0,0,0,
,-0.07,-0.298,0.852,7.629,60.669,90.637,0,0,0,
,-0.064,-0.377,0.884,33.081,89.538,89.233,0,0,0,
,-0.011,-0.503,0.886,-2.442,124.817,90.393,0,0,0,
,0.074,-0.583,0.901,-52.002,138.549,58.96,0,0,0,
,0.111,-0.579,0.929,-88.868,94.421,23.559,0,0,0,
,0.064,-0.505,0.942,-110.779,28.015,3.906,0,0,0,
,-0.013,-0.392,0.958,-90.76,22.522,16.54,0,0,0,
,0.015,-0.395,1.004,-41.504,75.439,-3.663,0,0,0,
,0.102,-0.488,1.006,-31.373,127.99,-33.143,0,0,0,
,0.195,-0.517,0.985,-2.015,100.463,-45.838,0,0,0,
,0.17,-0.495,0.983,28.625,13.794,-70.069,0,0,0,
,0.083,-0.52,0.994,-0.245,-36.316,-89.478,0,0,0,
,0.037,-0.408,0.958,5.92,-14.039,-72.022,0,0,0,
,0.034,-0.42,0.948,57.312,-41.748,-68.604,0,0,0,
,-0.02,-0.426,0.951,98.632,-64.759,-82.642,0,0,0,
,-0.057,-0.487,0.831,253.479,0.061,-75.989,0,0,0,
,-0.067,-0.624,0.831,113.098,-16.114,-127.259,0,0,0,
,-0.136,-0.431,0.763,-52.185,-26.49,-66.651,0,0,0,
,-0.224,-0.306,0.828,-77.881,-58.35,-65.979,0,0,0,
,-0.281,-0.192,0.815,-73.548,-31.006,-22.095,0,0,0,
,-0.332,-0.114,0.968,-67.444,-70.74,-8.484,0,0,0,
,-0.363,-0.143,1.014,67.81,17.517,40.222,0,0,0,
,-0.207,-0.433,1.162,196.411,62.805,-7.142,0,0,0,
,-0.137,-0.566,1.029,102.295,39.611,9.46,0,0,0,
,-0.126,-0.523,0.928,33.447,8.789,16.723,0,0,0,
,-0.131,-0.488,0.831,-13.123,24.963,6.347,0,0,0,
,-0.097,-0.431,0.824,-52.552,41.503,7.812,0,0,0,
,-0.063,-0.428,0.88,-96.07,70.556,-12.574,0,0,0,
,-0.051,-0.401,0.939,-117.798,53.466,-16.907,0,0,0,
,-0.068,-0.319,0.937,-95.765,41.565,-5.31,0,0,0,
,-0.091,-0.304,0.94,-16.419,37.475,20.019,0,0,0,
,-0.066,-0.39,0.962,19.226,82.58,8.667,0,0,0,
,0.002,-0.422,0.939,15.136,86.364,23.193,0,0,0,
,-0.006,-0.454,0.967,9.887,31.066,39.856,0,0,0,
,0.089,-0.575,0.824,40.832,115.6,-23.987,0,0,0,
,-0.004,-0.386,0.877,-186.707,-111.573,12.268,0,0,0,
,-0.123,-0.216,0.86,-115.906,-5.127,69.763,0,0,0,
,-0.086,-0.32,0.919,-101.685,89.721,15.991,0,0,0,
,0.05,-0.346,0.975,-57.129,144.836,64.392,0,0,0,
,0.155,-0.535,0.986,41.748,127.014,39.123,0,0,0,
,0.208,-0.722,1.035,-75.684,107.849,-20.997,0,0,0,
,0.258,-0.68,0.975,-109.559,115.783,-58.533,0,0,0,
,0.177,-0.522,1.027,-206.116,-71.473,-97.168,0,0,0,
,0.061,-0.272,1.018,-46.387,-79.529,-53.772,0,0,0,
,0.062,-0.34,1.077,89.599,-48.34,-86.06,0,0,0,
,0.155,-0.45,0.832,280.456,45.654,-84.412,0,0,0,
,0.14,-0.568,0.82,166.626,-63.172,-146.241,0,0,0,
,0.024,-0.47,0.749,35.583,-62.623,-122.193,0,0,0,
,-0.01,-0.408,0.828,-59.937,-28.87,-128.907,0,0,0,
,-0.015,-0.334,0.875,-89.661,31.555,-123.597,0,0,0,
,-0.011,-0.366,0.955,-33.692,65.307,-125.55,0,0,0,
,-0.001,-0.463,1.031,-12.635,61.34,-149.781,0,0,0,
,-0.023,-0.448,1.036,49.926,-3.724,-140.442,0,0,0,
,-0.076,-0.431,1.081,129.15,-70.801,-137.879,0,0,0,
,-0.101,-0.415,1.248,73.364,-165.345,-186.219,0,0,0,
,-0.25,-0.247,1.124,136.779,-171.265,-75.928,0,0,0,
,-0.247,-0.162,0.74,329.406,16.235,-7.508,0,0,0,
,-0.008,-0.49,0.805,238.403,86.914,-158.081,0,0,0,
,0.02,-0.466,0.767,19.775,-40.894,-95.215,0,0,0,
,-0.152,-0.277,0.791,-15.442,-120.789,-58.533,0,0,0,
,-0.208,-0.221,0.836,63.476,-11.17,-76.6,0,0,0,
,-0.133,-0.339,0.882,186.523,57.373,-64.576,0,0,0,
,-0.061,-0.531,0.839,155.029,82.214,-70.252,0,0,0,
,0.003,-0.511,0.882,22.522,12.939,-38.208,0,0,0,
,-0.037,-0.361,0.965,-20.447,-79.834,2.868,0,0,0,
,-0.109,-0.357,0.956,31.921,-74.219,-18.372,0,0,0,
,-0.122,-0.41,0.959,65.246,-60.547,-19.776,0,0,0,
,-0.169,-0.384,0.913,111.633,-84.412,-1.954,0,0,0,
,-0.182,-0.41,0.882,147.4,-78.98,-5.86,0,0,0,
,-0.173,-0.483,0.828,116.15,-91.065,-23.926,0,0,0,
,-0.179,-0.441,0.835,29.48,-151.551,-19.104,0,0,0,
,-0.224,-0.375,0.916,-21.973,-210.816,-22.461,0,0,0,
,-0.264,-0.442,1.049,-56.092,-182.129,-33.204,0,0,0,
,-0.268,-0.4,1.054,-69.581,-105.225,-6.714,0,0,0,
,-0.24,-0.334,0.988,43.457,-27.466,46.814,0,0,0,
,-0.193,-0.42,0.848,156.799,31.433,20.324,0,0,0,
,-0.128,-0.569,0.795,124.328,43.212,-36.194,0,0,0,
,-0.086,-0.631,0.81,-0.55,3.723,-55.909,0,0,0,
,-0.087,-0.578,0.889,-116.761,-58.533,-70.13,0,0,0,
,-0.138,-0.482,0.962,-159.913,-78.736,-73.182,0,0,0,
,-0.178,-0.346,0.935,-66.346,-53.65,-67.078,0,0,0,
,-0.2,-0.318,0.898,105.774,-27.894,-62.623,0,0,0,
,-0.196,-0.45,0.811,186.706,6.408,-73.487,0,0,0,
,-0.149,-0.54,0.795,86.669,23.925,-72.266,0,0,0,
,-0.104,-0.514,0.838,-52.491,-2.625,-55.237,0,0,0,
,-0.115,-0.429,0.905,-111.634,-44.312,-50.782,0,0,0,
,-0.138,-0.388,0.946,-57.984,-46.387,-49.866,0,0,0,
,-0.148,-0.395,0.912,35.766,-25.269,-25.879,0,0,0,
,-0.143,-0.414,0.898,100.708,-9.278,4.028,0,0,0,
,-0.124,-0.502,0.835,64.514,3.051,-5.433,0,0,0,
,-0.098,-0.511,0.848,-62.073,-8.789,-9.095,0,0,0,
,-0.113,-0.453,0.914,-133.301,-36.194,-17.151,0,0,0,
,-0.134,-0.415,0.971,-99.976,-23.316,-9.644,0,0,0,
,-0.138,-0.428,0.949,-39.307,17.944,-6.714,0,0,0,
,-0.118,-0.457,0.932,17.456,34.484,8.667,0,0,0,
,-0.12,-0.442,0.857,30.334,33.935,49.682,0,0,0,
,-0.122,-0.432,0.809,-2.015,28.137,32.043,0,0,0,
,-0.1,-0.458,0.858,-61.28,27.771,-1.465,0,0,0,
,-0.074,-0.476,0.942,-75.013,12.329,-14.71,0,0,0,
,-0.094,-0.457,0.97,-21.851,-11.963,-26.673,0,0,0,
,-0.12,-0.518,0.949,40.832,-20.142,-22.461,0,0,0,
,-0.126,-0.501,0.898,-6.531,-7.081,-6.348,0,0,0,
,-0.117,-0.436,0.896,-59.632,-15.992,-11.536,0,0,0,
,-0.142,-0.389,0.928,-58.655,-31.739,-28.809,0,0,0,
,-0.17,-0.383,0.955,-16.724,-11.902,-35.279,0,0,0,
,-0.165,-0.452,0.959,5.127,45.044,-41.077,0,0,0,
,-0.142,-0.485,0.919,-30.03,70.678,-38.147,0,0,0,
,-0.114,-0.49,0.873,-49.378,77.453,-12.94,0,0,0,
,-0.098,-0.43,0.86,-83.802,38.452,0.366,0,0,0,
,-0.107,-0.362,0.883,-82.886,20.996,-19.349,0,0,0,
,-0.111,-0.392,0.923,-20.508,9.033,-43.58,0,0,0,
,-0.12,-0.448,0.955,12.573,-5.31,-48.218,0,0,0,
,-0.15,-0.466,0.948,2.746,-1.038,-37.598,0,0,0,
,-0.167,-0.455,0.897,-28.748,13.794,-20.935,0,0,0,
,-0.145,-0.419,0.879,-76.05,34.057,-10.682,0,0,0,
,-0.134,-0.357,0.892,-63.904,15.502,1.586,0,0,0,
,-0.142,-0.331,0.922,-21.851,6.469,-4.761,0,0,0,
,-0.139,-0.358,0.933,53.711,23.498,-14.954,0,0,0,
,-0.135,-0.461,0.918,100.28,24.597,-23.804,0,0,0,
,-0.143,-0.545,0.876,10.864,30.578,-15.137,0,0,0,
,-0.122,-0.451,0.895,-125.55,41.748,-0.428,0,0,0,
,-0.138,-0.318,0.913,-85.022,8.789,-1.709,0,0,0,
,-0.179,-0.288,0.943,29.968,2.441,-7.203,0,0,0,
,-0.174,-0.338,0.937,113.159,39.428,-17.701,0,0,0,
,-0.14,-0.453,0.93,113.159,51.208,-34.729,0,0,0,
,-0.125,-0.505,0.877,27.404,45.898,-28.687,0,0,0,
,-0.141,-0.433,0.892,-48.89,4.211,1.831,0,0,0,
,-0.189,-0.289,0.889,-18.067,-5.738,30.151,0,0,0,
,-0.2,-0.258,0.898,94.238,11.718,24.963,0,0,0,
,-0.188,-0.358,0.893,165.588,39.856,10.742,0,0,0,
,-0.16,-0.579,0.9,67.443,63.049,6.591,0,0,0,
,-0.119,-0.511,0.898,-134.278,87.829,36.621,0,0,0,
,-0.144,-0.387,0.906,-136.292,50.659,52.246,0,0,0,
,-0.16,-0.376,0.911,-44.922,51.147,37.414,0,0,0,
,-0.136,-0.343,0.937,18.066,62.377,28.564,0,0,0,
,-0.11,-0.408,0.907,51.086,68.176,19.775,0,0,0,
,-0.071,-0.531,0.937,-47.852,77.453,9.216,0,0,0,
,-0.039,-0.495,0.963,-133.484,104.797,33.935,0,0,0,
,0.032,-0.499,0.984,-66.59,97.961,41.137,0,0,0,
,0.074,-0.556,0.997,-20.508,72.937,6.591,0,0,0,
,0.107,-0.538,0.972,-9.4,56.457,-26.917,0,0,0,
,0.118,-0.518,0.974,-1.343,20.141,-57.557,0,0,0,
,0.099,-0.48,0.949,-1.648,14.953,-69.031,0,0,0,
,0.077,-0.449,0.938,-29.541,15.869,-73.731,0,0,0,
,0.061,-0.37,0.891,-47.608,3.662,-62.928,0,0,0,
,-0.005,-0.26,0.895,0.244,-34.607,-45.838,0,0,0,
,-0.073,-0.324,0.927,56.213,-34.668,-47.181,0,0,0,
,-0.076,-0.435,0.889,2.502,13.794,-34.363,0,0,0,
,-0.086,-0.398,0.891,-31.006,-1.465,-29.602,0,0,0,
,-0.132,-0.452,0.89,2.502,0.244,-38.941,0,0,0,
,-0.137,-0.457,0.886,-8.912,9.338,-40.162,0,0,0,
,-0.16,-0.432,0.892,47.302,-4.334,-35.584,0,0,0,
,-0.197,-0.443,0.877,73.364,-12.635,-24.048,0,0,0,
,-0.229,-0.345,0.87,-14.771,-9.705,-5.066,0,0,0,
,-0.261,-0.143,0.901,-54.139,-23.499,18.676,0,0,0,
,-0.298,-0.116,0.932,11.047,2.258,48.156,0,0,0,
,-0.256,-0.313,1.003,17.15,47.424,32.47,0,0,0,
,-0.151,-0.439,1.01,-57.679,100.83,53.039,0,0,0,
,-0.077,-0.417,1.015,-56.824,58.776,51.513,0,0,0,
,-0.101,-0.375,1.018,41.931,-1.893,36.438,0,0,0,
,-0.141,-0.382,1.018,109.375,-3.724,14.648,0,0,0,
,-0.115,-0.441,0.975,90.21,44.372,-1.16,0,0,0,
,-0.061,-0.446,0.921,-3.296,60.18,5.737,0,0,0,
,-0.062,-0.377,0.859,-48.34,50.781,29.663,0,0,0,
,-0.074,-0.379,0.865,-36.255,51.147,36.499,0,0,0,
,-0.09,-0.38,0.873,-24.537,74.462,39.062,0,0,0,
,-0.07,-0.41,0.923,5.981,97.839,42.236,0,0,0,
,-0.037,-0.49,0.982,1.709,103.759,15.502,0,0,0,
,-0.004,-0.487,0.986,-63.111,96.618,10.009,0,0,0,
,0.016,-0.382,0.965,-15.076,53.161,19.592,0,0,0,
,-0.007,-0.295,0.894,50.17,14.892,25.146,0,0,0,
,0,-0.25,0.851,173.706,6.774,62.5,0,0,0,
,-0.012,-0.4,0.839,228.393,3.54,53.344,0,0,0,
,-0.03,-0.595,0.821,137.329,53.283,14.221,0,0,0,
,-0.002,-0.668,0.856,-35.34,112.548,3.784,0,0,0,
,0.056,-0.632,0.953,-195.069,111.084,-12.207,0,0,0,
,0.092,-0.515,1.001,-204.163,79.04,-19.288,0,0,0,
,0.105,-0.404,1.053,-108.399,38.818,-36.744,0,0,0,
,0.099,-0.381,1.055,26.306,1.098,-49.195,0,0,0,
,0.078,-0.42,1.049,98.755,-52.979,-52.796,0,0,0,
,0.031,-0.421,0.971,72.753,-73.182,-39.429,0,0,0,
,-0.013,-0.406,0.915,68.725,-82.703,-33.631,0,0,0,
,-0.059,-0.437,0.856,144.653,-59.998,-34.485,0,0,0,
,-0.077,-0.535,0.826,78.796,-27.71,-63.538,0,0,0,
,-0.079,-0.45,0.813,-45.411,6.958,-62.5,0,0,0,
,-0.106,-0.298,0.841,-26.612,-3.174,-38.514,0,0,0,
,-0.143,-0.341,0.882,11.657,6.591,-53.04,0,0,0,
,-0.151,-0.406,0.938,-56.458,35.522,-55.848,0,0,0,
,-0.138,-0.336,0.963,-46.936,34.79,-25.513,0,0,0,
,-0.143,-0.339,0.962,26.55,5.188,-28.138,0,0,0,
,-0.156,-0.381,0.951,68.42,2.441,-25.391,0,0,0,
,-0.153,-0.373,0.891,85.632,14.282,-16.663,0,0,0,
,-0.174,-0.404,0.873,38.574,6.958,-16.053,0,0,0,
,-0.196,-0.323,0.819,3.723,44.25,2.685,0,0,0,
,-0.211,-0.408,0.905,28.747,65.551,-19.776,0,0,0,
,-0.154,-0.518,0.939,-25.33,143.798,-27.71,0,0,0,
,-0.04,-0.543,0.992,-78.248,142.639,-24.964,0,0,0,
,-0.019,-0.472,0.916,-122.437,75.805,-1.893,0,0,0,
,0.008,-0.315,1.019,-74.769,25.207,9.765,0,0,0,
,-0.033,-0.286,0.921,4.333,10.437,19.531,0,0,0,
,0.023,-0.376,0.986,-19.165,88.806,8.789,0,0,0,
,0.127,-0.488,0.993,-35.889,103.515,6.469,0,0,0,
,0.181,-0.556,0.981,-91.858,82.702,-25.147,0,0,0,
,0.147,-0.491,0.942,-104.554,40.161,-44.007,0,0,0,
,0.081,-0.476,0.936,-67.566,24.658,-66.407,0,0,0,
,0.078,-0.422,0.935,-96.863,48.217,-74.28,0,0,0,
,0.077,-0.34,0.909,-59.754,43.823,-70.496,0,0,0,
,0.048,-0.442,1.086,-41.687,35.949,-113.953,0,0,0,
,0.119,-0.537,1.165,98.205,43.151,-130.433,0,0,0,
,0.053,-0.549,0.895,183.899,-0.489,-129.395,0,0,0,
,-0.028,-0.502,0.924,23.864,-28.565,-156.8,0,0,0,
,-0.077,-0.335,0.975,-32.959,-35.889,-113.038,0,0,0,
,-0.111,-0.351,1.011,-25.086,17.273,-111.634,0,0,0,
,-0.038,-0.374,1.063,-17.395,74.34,-104.432,0,0,0,
,0.034,-0.29,0.948,47.912,14.16,-75.501,0,0,0,
,0.032,-0.196,0.898,215.332,-81.36,-35.218,0,0,0,
,-0.053,-0.256,0.928,351.074,-118.592,-59.144,0,0,0,
,-0.072,-0.397,0.869,267.151,-8.912,-50.66,0,0,0,
,0.069,-0.467,0.775,168.335,80.871,-19.165,0,0,0,
,0.117,-0.472,0.822,59.448,-12.757,-30.64,0,0,0,
,0.044,-0.351,0.838,72.082,-54.505,-17.212,0,0,0,
,0.012,-0.369,0.826,203.247,9.216,-26.856,0,0,0,
,0.033,-0.499,0.839,228.881,-1.343,-49.134,0,0,0,
,-0.029,-0.503,0.817,175.232,-24.414,-50.721,0,0,0,
,-0.038,-0.499,0.807,144.287,-48.035,-13.794,0,0,0,
,-0.038,-0.483,0.832,94.177,-57.557,-16.358,0,0,0,
,-0.047,-0.379,0.835,97.412,-69.275,-21.119,0,0,0,
,-0.082,-0.377,0.888,191.162,-105.103,-26.246,0,0,0,
,-0.118,-0.542,0.957,217.895,-93.811,-67.383,0,0,0,
,-0.162,-0.538,0.958,156.86,-110.657,-44.861,0,0,0,
,-0.249,-0.458,0.918,122.131,-122.498,-9.888,0,0,0,
,-0.284,-0.45,0.895,104.736,-102.295,-11.902,0,0,0,
,-0.276,-0.424,0.889,72.753,-91.492,-23.377,0,0,0,
,-0.266,-0.377,0.896,90.515,-117.737,-32.654,0,0,0,
,-0.294,-0.418,0.928,135.986,-160.828,-51.148,0,0,0,
,-0.331,-0.561,0.989,92.712,-149.109,-71.106,0,0,0,
,-0.322,-0.586,0.908,-18.25,-76.661,-27.466,0,0,0,
,-0.267,-0.537,0.839,-130.249,-34.119,-11.536,0,0,0,
,-0.204,-0.463,0.824,-161.255,-43.335,-39.307,0,0,0,
,-0.176,-0.426,0.843,-98.328,-79.407,-75.745,0,0,0,
,-0.167,-0.501,0.926,21.24,-113.648,-122.376,0,0,0,
,-0.171,-0.62,0.919,36.438,-111.878,-159.607,0,0,0,
,-0.182,-0.637,0.874,-43.091,-88.44,-155.701,0,0,0,
,-0.181,-0.477,0.826,-105.774,-64.637,-102.845,0,0,0,
,-0.18,-0.306,0.778,-30.884,-71.106,-77.881,0,0,0,
,-0.187,-0.253,0.785,82.946,-65.918,-78.553,0,0,0,
,-0.178,-0.396,0.809,167.236,-29.602,-81.421,0,0,0,
,-0.141,-0.653,0.868,91.491,5.065,-85.938,0,0,0,
,-0.073,-0.735,0.906,-131.348,31.25,-23.255,0,0,0,
,-0.043,-0.516,0.901,-296.875,22.461,46.569,0,0,0,
,-0.075,-0.259,0.86,-207.886,-20.142,67.016,0,0,0,
,-0.135,-0.199,0.851,36.56,-32.532,29.419,0,0,0,
,-0.148,-0.382,0.844,210.022,17.883,-19.471,0,0,0,
,-0.093,-0.677,0.888,188.293,51.33,-62.561,0,0,0,
,-0.055,-0.795,0.908,-56.58,71.777,-69.764,0,0,0,
,-0.069,-0.625,0.891,-228.394,52.429,8.178,0,0,0,
,-0.101,-0.378,0.866,-225.953,36.315,51.147,0,0,0,
,-0.125,-0.234,0.855,-71.961,33.63,55.664,0,0,0,
,-0.131,-0.293,0.857,106.14,51.269,31.799,0,0,0,
,-0.094,-0.561,0.88,146.972,66.467,1.037,0,0,0,
,-0.04,-0.742,0.913,-22.156,74.218,8.85,0,0,0,
,-0.039,-0.596,0.904,-211.914,56.335,50.354,0,0,0,
,-0.094,-0.346,0.901,-182.251,20.446,59.814,0,0,0,
,-0.149,-0.219,0.897,21.179,23.132,38.024,0,0,0,
,-0.15,-0.281,0.882,240.539,68.237,-4.029,0,0,0,
,-0.116,-0.583,0.863,293.945,66.772,-44.8,0,0,0,
,-0.078,-0.824,0.94,36.438,69.213,-51.514,0,0,0,
,-0.076,-0.602,0.961,-253.54,81.176,7.873,0,0,0,
,-0.111,-0.332,0.964,-187.378,53.161,-1.221,0,0,0,
,-0.14,-0.329,0.953,10.253,35.4,-57.068,0,0,0,
,-0.135,-0.387,0.96,139.465,36.865,-57.923,0,0,0,
,-0.132,-0.487,0.919,142.7,36.926,-44.678,0,0,0,
,-0.123,-0.57,0.904,42.48,33.63,-14.954,0,0,0,
,-0.138,-0.489,0.92,-92.835,23.62,11.596,0,0,0,
,-0.172,-0.394,0.876,-66.04,21.85,13.977,0,0,0,
,-0.19,-0.353,0.846,9.46,21.24,17.517,0,0,0,
,-0.187,-0.399,0.88,48.828,34.484,3.662,0,0,0,
,-0.173,-0.434,0.839,21.118,62.683,10.803,0,0,0,
,-0.156,-0.483,0.862,-20.325,76.355,30.212,0,0,0,
,-0.132,-0.454,0.895,-83.802,85.51,61.34,0,0,0,
,-0.102,-0.439,0.929,-26.246,93.872,55.236,0,0,0,
,-0.002,-0.598,0.926,-25.33,47.668,1.586,0,0,0,
,0.019,-0.63,0.902,-67.688,66.955,-0.855,0,0,0,
,0.081,-0.569,0.864,-85.511,75.744,9.948,0,0,0,
,0.113,-0.515,0.898,-14.222,18.615,0.244,0,0,0,
,0.097,-0.578,0.859,39.611,3.601,-50.721,0,0,0,
,0.1,-0.657,0.88,-33.57,29.296,-80.201,0,0,0,
,0.116,-0.611,0.849,-132.264,45.776,-79.102,0,0,0,
,0.09,-0.474,0.839,-176.636,1.586,-85.022,0,0,0,
,0.04,-0.327,0.871,-105.286,-6.287,-71.106,0,0,0,
,0.01,-0.292,0.88,11.169,-22.461,-46.082,0,0,0,
,-0.008,-0.423,0.926,26.367,-31.189,-53.894,0,0,0,
,-0.077,-0.501,0.931,-64.576,11.84,-32.898,0,0,0,
,-0.096,-0.49,0.911,47.18,-20.264,-51.575,0,0,0,
,-0.122,-0.529,0.894,84.655,-19.898,-82.215,0,0,0,
,-0.178,-0.475,0.88,90.759,-56.092,-77.271,0,0,0,
,-0.265,-0.414,0.853,27.221,-59.327,-73.304,0,0,0,
,-0.316,-0.273,0.889,-19.776,-42.237,-27.649,0,0,0,
,-0.277,-0.172,0.936,50.476,31.494,49.255,0,0,0,
,-0.211,-0.407,0.959,102.966,53.283,22.888,0,0,0,
,-0.141,-0.527,0.931,58.776,87.951,19.104,0,0,0,
,-0.106,-0.525,0.916,7.324,61.157,6.347,0,0,0,
,-0.121,-0.492,0.9,-18.738,38.208,8.117,0,0,0,
,-0.143,-0.393,0.884,-53.956,44.433,23.376,0,0,0,
,-0.142,-0.329,0.894,-35.584,74.585,33.142,0,0,0,
,-0.115,-0.334,0.913,-26.062,89.965,54.992,0,0,0,
,-0.081,-0.386,0.912,5.981,96.984,83.984,0,0,0,
,-0.047,-0.481,0.917,-12.696,79.528,85.998,0,0,0,
,-0.016,-0.508,0.889,-68.36,89.66,101.44,0,0,0,
,0.037,-0.48,0.895,-88.99,114.99,107.055,0,0,0,
,0.177,-0.602,0.983,20.08,137.939,28.991,0,0,0,
,0.26,-0.664,1.003,60.485,98.022,-16.846,0,0,0,
,0.235,-0.665,0.979,44.677,10.253,-43.03,0,0,0,
,0.12,-0.572,0.927,-30.823,-43.641,-59.51,0,0,0,
,0.039,-0.453,0.89,-55.603,-24.964,-48.768,0,0,0,
,0.023,-0.376,0.827,-46.875,6.774,-51.27,0,0,0,
,0.012,-0.374,0.814,-17.64,16.296,-56.885,0,0,0,
,-0.008,-0.444,0.85,-30.274,19.897,-59.388,0,0,0,
,-0.026,-0.494,0.859,-105.042,54.931,-67.322,0,0,0,
,-0.043,-0.464,0.91,-148.621,23.498,-55.97,0,0,0,
,-0.088,-0.429,0.964,-90.332,10.681,-65.003,0,0,0,
,-0.102,-0.402,0.927,91.186,44.25,-60.791,0,0,0,
,-0.094,-0.51,0.985,109.192,4.76,-114.869,0,0,0,
,-0.088,-0.452,1.072,-2.076,-18.982,-95.276,0,0,0,
,-0.153,-0.22,0.904,97.656,-28.87,1.22,0,0,0,
,-0.167,-0.255,0.915,58.776,-19.715,-5.005,0,0,0,
,-0.166,-0.306,0.941,-34.729,29.296,-10.682,0,0,0,
,-0.147,-0.437,1.036,-64.148,30.334,-20.691,0,0,0,
,-0.157,-0.43,0.988,-49.866,23.864,7.324,0,0,0,
,-0.147,-0.41,0.911,69.397,75.561,-4.212,0,0,0,
,-0.092,-0.44,0.853,25.451,106.811,1.22,0,0,0,
,-0.028,-0.439,0.839,-6.165,100.708,12.573,0,0,0,
,-0.005,-0.422,0.851,-34.302,78.674,6.286,0,0,0,
,-0.01,-0.392,0.848,-25.33,70.556,16.174,0,0,0,
,0.011,-0.355,0.904,-21.241,66.467,29.174,0,0,0,
,0.016,-0.368,0.878,-44.312,66.406,42.48,0,0,0,
,0.039,-0.351,0.961,-68.543,52.917,58.654,0,0,0,
,0.075,-0.415,1.04,6.591,42.297,54.931,0,0,0,
,0.112,-0.556,1.005,19.409,52.246,34.179,0,0,0,
,0.143,-0.609,0.992,-16.053,38.024,3.967,0,0,0,
,0.098,-0.595,0.95,-86.853,-5.31,-17.334,0,0,0,
,0.071,-0.546,0.948,-121.399,17.15,-35.218,0,0,0,
,0.072,-0.492,0.951,-109.559,30.944,-75.135,0,0,0,
,0.068,-0.403,0.938,-70.496,16.418,-90.455,0,0,0,
,0.037,-0.355,0.995,27.587,5.493,-85.755,0,0,0,
,0.085,-0.498,1.028,143.493,87.89,-117.005,0,0,0,
,0.207,-0.578,0.914,220.031,113.403,-133.057,0,0,0,
,0.136,-0.523,0.96,41.931,-112.305,-137.513,0,0,0,
,-0.011,-0.348,0.889,61.035,-86.792,-110.23,0,0,0,
,-0.069,-0.4,0.98,38.818,-16.602,-133.057,0,0,0,
,0.002,-0.377,0.858,41.687,97.717,-100.159,0,0,0,
,0.075,-0.377,0.958,78.491,0.61,-86.976,0,0,0,
,0.039,-0.378,0.897,203.43,-19.898,-91.553,0,0,0,
,0.004,-0.454,0.875,187.072,-52.247,-101.929,0,0,0,
,-0.039,-0.384,0.826,120.666,-33.814,-64.881,0,0,0,
,-0.037,-0.423,0.752,25.329,17.089,-41.993,0,0,0,
,0.027,-0.407,0.758,-75.013,19.287,-13.672,0,0,0,
,0.014,-0.347,0.819,-80.628,-24.964,1.464,0,0,0,
,0.01,-0.424,0.915,-40.772,20.324,-17.823,0,0,0,
,0.004,-0.53,0.879,10.192,-195.618,-18.311,0,0,0,
,-0.123,-0.38,0.901,56.335,-212.037,-7.935,0,0,0,
,-0.173,-0.284,0.851,153.564,-142.151,-26.001,0,0,0,
,-0.175,-0.323,0.818,278.503,-100.098,-80.14,0,0,0,
,-0.182,-0.496,0.888,283.447,-127.991,-118.348,0,0,0,
,-0.257,-0.544,0.951,187.194,-165.528,-102.173,0,0,0,
,-0.324,-0.504,0.955,65.124,-122.681,-52.247,0,0,0,
,-0.3,-0.391,0.923,-16.846,-50.782,-22.4,0,0,0,
,-0.258,-0.25,0.914,-1.893,-53.04,-22.522,0,0,0,
,-0.262,-0.248,0.888,98.999,-82.276,-27.1,0,0,0,
,-0.28,-0.354,0.88,163.757,-81.849,-36.194,0,0,0,
,-0.261,-0.501,0.935,107.544,-57.251,-41.871,0,0,0,
,-0.219,-0.655,1.017,-38.575,-16.968,-82.703,0,0,0,
,-0.163,-0.615,0.973,-174.012,16.906,-26.246,0,0,0,
,-0.131,-0.424,0.926,-169.068,-9.461,10.559,0,0,0,
,-0.146,-0.339,0.882,-27.039,-46.082,-13.306,0,0,0,
,-0.164,-0.383,0.819,82.946,-34.485,-53.956,0,0,0,
,-0.137,-0.558,0.803,113.891,-15.198,-85.511,0,0,0,
,-0.107,-0.647,0.88,-13.489,-23.987,-115.357,0,0,0,
,-0.085,-0.632,0.929,-144.41,-25.513,-86.304,0,0,0,
,-0.105,-0.442,0.932,-209.351,-36.622,-37.171,0,0,0,
,-0.138,-0.27,0.884,-88.196,-22.522,-15.259,0,0,0,
,-0.134,-0.242,0.81,102.539,17.578,-23.56,0,0,0,
,-0.073,-0.464,0.772,203.857,39.55,-62.134,0,0,0,
,-0.002,-0.692,0.854,87.463,-3.113,-66.163,0,0,0,
,-0.015,-0.694,0.969,-195.191,-56.885,-72.632,0,0,0,
,-0.091,-0.441,0.977,-294.312,-46.631,-14.283,0,0,0,
,-0.136,-0.239,0.941,-131.043,-16.358,12.451,0,0,0,
,-0.131,-0.217,0.835,111.084,30.761,29.724,0,0,0,
,-0.08,-0.429,0.8,186.95,39.245,6.103,0,0,0,
,-0.024,-0.61,0.849,21.606,30.273,-2.076,0,0,0,
,-0.002,-0.625,0.976,-178.284,7.568,-10.987,0,0,0,
,-0.048,-0.459,0.997,-224.671,-9.583,19.165,0,0,0,
,-0.105,-0.339,0.95,-89.356,1.281,36.193,0,0,0,
,-0.139,-0.276,0.857,92.041,23.132,67.932,0,0,0,
,-0.15,-0.393,0.783,155.639,50.415,47.851,0,0,0,
,-0.092,-0.547,0.786,44.738,99.914,26.428,0,0,0,
,-0.013,-0.567,0.883,-88.685,88.806,38.391,0,0,0,
,-0.019,-0.495,1.001,-142.212,26.794,53.039,0,0,0,
,-0.091,-0.433,0.986,-73.426,38.757,30.334,0,0,0,
,-0.099,-0.416,0.829,49.804,104.797,23.071,0,0,0,
,-0.007,-0.6,0.933,37.902,89.05,-69.336,0,0,0,
,0.028,-0.617,0.946,-40.162,14.831,-73.853,0,0,0,
,-0.058,-0.498,0.951,-57.923,-46.631,-36.499,0,0,0,
,-0.111,-0.405,0.953,-63.66,-27.955,-33.448,0,0,0,
,-0.107,-0.378,0.963,11.108,1.953,-27.832,0,0,0,
,-0.092,-0.443,0.919,35.217,6.408,-30.457,0,0,0,
,-0.063,-0.505,0.91,-12.024,4.638,-30.03,0,0,0,
,-0.069,-0.441,0.923,-66.834,-9.888,-21.302,0,0,0,
,-0.093,-0.422,0.931,-28.992,-25.208,-26.307,0,0,0,
,-0.103,-0.411,0.947,-52.185,-10.621,-49.683,0,0,0,
,-0.07,-0.447,0.999,-13.855,4.211,-77.149,0,0,0,
,-0.085,-0.474,0.963,31.86,-24.17,-67.078,0,0,0,
,-0.105,-0.519,0.909,-7.508,-13.245,-68.299,0,0,0,
,-0.094,-0.452,0.915,-73.304,-18.982,-53.894,0,0,0,
,-0.121,-0.327,0.889,-40.894,-33.448,-26.795,0,0,0,
,-0.156,-0.266,0.901,37.048,-33.265,-26.368,0,0,0,
,-0.16,-0.334,0.913,105.835,6.652,-47.242,0,0,0,
,-0.138,-0.454,0.872,100.708,56.518,-45.166,0,0,0,
,-0.124,-0.496,0.87,31.921,55.236,-14.344,0,0,0,
,-0.128,-0.401,0.873,-41.687,80.078,6.347,0,0,0,
,-0.132,-0.279,0.805,55.725,108.398,21.972,0,0,0,
,-0.072,-0.351,0.987,148.498,85.266,-79.956,0,0,0,
,-0.048,-0.457,0.949,263.672,61.584,-56.214,0,0,0,
,-0.081,-0.569,0.959,201.049,-30.762,-12.269,0,0,0,
,-0.112,-0.535,0.953,-30.945,-2.381,-1.16,0,0,0,
,-0.141,-0.354,0.914,-6.409,3.54,24.963,0,0,0,
,-0.149,-0.365,0.905,92.407,-4.456,12.268,0,0,0,
,-0.159,-0.369,0.934,167.236,7.812,28.991,0,0,0,
,-0.19,-0.48,0.864,143.798,15.319,19.775,0,0,0,
,-0.174,-0.547,0.866,9.826,47.668,28.869,0,0,0,
,-0.164,-0.479,0.876,-79.041,67.993,37.536,0,0,0,
,-0.169,-0.498,0.89,-101.624,68.786,39.978,0,0,0,
,-0.136,-0.49,0.894,-119.08,90.942,45.898,0,0,0,
,-0.095,-0.433,0.916,-58.716,81.115,60.485,0,0,0,
,-0.075,-0.473,0.92,-3.663,62.316,35.461,0,0,0,
,-0.055,-0.505,0.892,-23.072,71.96,18.432,0,0,0,
,-0.028,-0.477,0.888,-44.739,73.181,33.935,0,0,0,
,-0.004,-0.479,0.885,-57.557,72.876,20.08,0,0,0,
,0.043,-0.443,0.871,-18.921,95.153,33.813,0,0,0,
,0.089,-0.416,0.869,59.143,63.11,27.343,0,0,0,
,0.087,-0.454,0.916,122.375,27.221,-7.874,0,0,0,
,0.074,-0.545,0.922,108.52,46.203,-22.4,0,0,0,
,0.112,-0.61,0.928,14.038,88.195,-44.8,0,0,0,
,0.144,-0.6,0.913,-86.609,88.012,-58.96,0,0,0,
,0.148,-0.548,0.888,-121.582,75.988,-71.412,0,0,0,
,0.153,-0.514,0.889,-85.511,46.447,-39.734,0,0,0,
,0.129,-0.447,0.96,-72.632,-17.518,-77.698,0,0,0,
,0.053,-0.389,0.956,-21.18,-36.499,-52.796,0,0,0,
,0.026,-0.411,0.928,25.878,-41.748,-50.11,0,0,0,
,-0.016,-0.424,0.877,61.462,-64.759,-46.082,0,0,0,
,-0.059,-0.465,0.844,127.807,-40.833,-54.139,0,0,0,
,-0.11,-0.474,0.793,140.93,-52.674,-59.693,0,0,0,
,-0.168,-0.5,0.833,52.063,-30.091,-85.144,0,0,0,
,-0.184,-0.461,0.826,-1.526,29.724,-60.12,0,0,0,
,-0.188,-0.408,0.796,-51.636,-5.799,-41.932,0,0,0,
,-0.273,-0.233,0.901,-100.281,-66.529,-8.484,0,0,0,
,-0.37,-0.153,0.935,39.917,-41.321,20.752,0,0,0,
,-0.356,-0.321,0.987,85.022,55.053,4.333,0,0,0,
,-0.269,-0.448,1.015,33.935,111.755,14.77,0,0,0,
,-0.181,-0.575,0.998,-18.982,117.065,17.639,0,0,0,
,-0.115,-0.523,0.954,-48.279,92.285,21.789,0,0,0,
,-0.1,-0.431,0.959,3.54,41.809,16.479,0,0,0,
,-0.089,-0.447,0.921,10.559,63.781,15.136,0,0,0,
,-0.022,-0.398,0.889,-48.157,99.609,28.686,0,0,0,
,0.028,-0.38,0.876,-72.205,93.627,36.621,0,0,0,
,0.044,-0.341,0.836,-70.801,88.806,62.5,0,0,0,
,0.051,-0.304,0.846,-11.78,82.702,89.843,0,0,0,
,0.046,-0.375,0.905,34.24,71.289,95.764,0,0,0,
,0.11,-0.55,0.947,58.105,123.108,43.884,0,0,0,
,0.18,-0.634,0.982,23.437,111.206,39.001,0,0,0,
,0.242,-0.692,0.991,23.925,86.181,11.108,0,0,0,
,0.209,-0.624,0.944,5.859,5.493,-12.574,0,0,0,
,0.124,-0.526,0.906,14.831,-36.805,-40.955,0,0,0,
,0.017,-0.428,0.865,17.639,-44.373,-50.538,0,0,0,
,-0.011,-0.385,0.869,48.156,17.944,-36.988,0,0,0,
,0.026,-0.465,0.877,67.688,60.302,-55.542,0,0,0,
,0.068,-0.608,0.898,-10.315,61.401,-72.022,0,0,0,
,0.046,-0.587,0.884,-107.727,18.31,-63.416,0,0,0,
,-0.026,-0.498,0.907,-113.648,-30.579,-48.89,0,0,0,
,-0.054,-0.466,0.96,-43.763,-22.156,-52.063,0,0,0,
,0.01,-0.485,0.851,184.509,53.466,-49.5,0,0,0,
,0.063,-0.646,0.818,157.104,-24.476,-116.089,0,0,0,
,-0.034,-0.509,0.787,-36.194,-32.654,-90.271,0,0,0,
,-0.129,-0.317,0.742,-35.645,-15.076,-47.852,0,0,0,
,-0.157,-0.283,0.852,-131.592,-5.188,-55.359,0,0,0,
,-0.182,-0.274,0.872,-225.953,62.683,-51.026,0,0,0,
,-0.132,-0.245,0.88,-198.548,111.45,-16.907,0,0,0,
,-0.058,-0.325,1.047,-167.176,78.674,-43.519,0,0,0,
,0.008,-0.368,1.225,-14.893,26.916,-36.255,0,0,0,
,-0.003,-0.455,1.243,132.873,-96.802,-5.86,0,0,0,
,-0.164,-0.411,1.02,82.824,-38.025,-8.851,0,0,0,
,-0.073,-0.525,0.986,35.644,72.57,-29.969,0,0,0,
,0.117,-0.633,0.873,-27.527,164.062,-14.893,0,0,0,
,0.211,-0.61,0.932,-105.042,49.743,-54.566,0,0,0,
,0.06,-0.404,0.91,-13.55,-48.584,-54.017,0,0,0,
,-0.077,-0.318,0.907,145.813,-40.223,-83.435,0,0,0,
,-0.106,-0.404,0.891,179.748,30.639,-93.445,0,0,0,
,-0.058,-0.442,0.811,86.181,93.811,-75.623,0,0,0,
,0.035,-0.501,1.089,-34.119,26.489,-61.402,0,0,0,
,-0.015,-0.495,0.998,32.898,18.493,-33.204,0,0,0,
,0.028,-0.573,1.002,78.308,61.767,-74.341,0,0,0,
,0.093,-0.498,0.947,102.783,26.977,-83.741,0,0,0,
,0.043,-0.458,0.999,126.77,-72.083,-98.267,0,0,0,
,-0.008,-0.394,0.838,135.009,-3.968,-86.121,0,0,0,
,0.056,-0.355,0.855,189.575,26.489,-49.134,0,0,0,
,0.086,-0.421,0.838,194.03,6.286,-66.346,0,0,0,
,0.066,-0.43,0.825,121.948,0.427,-46.326,0,0,0,
,0.032,-0.436,0.809,97.717,8.789,-38.147,0,0,0,
,0.023,-0.501,0.826,32.043,31.005,-37.415,0,0,0,
,0.042,-0.54,0.884,8.728,20.69,-17.945,0,0,0,
,0.072,-0.538,0.842,4.211,18.371,-14.039,0,0,0,
,0.071,-0.523,0.895,38.94,-73.914,-18.86,0,0,0,
,-0.009,-0.455,0.881,101.318,-100.831,-33.387,0,0,0,
,-0.029,-0.46,0.899,184.509,-61.951,-63.294,0,0,0,
,0.008,-0.568,0.817,186.706,-33.387,-92.102,0,0,0,
,0.022,-0.52,0.804,171.936,-105.042,-83.435,0,0,0,
,-0.053,-0.426,0.833,199.34,-144.104,-64.942,0,0,0,
,-0.119,-0.451,0.837,238.342,-92.286,-98.145,0,0,0,
,-0.119,-0.54,0.851,191.711,-28.382,-87.464,0,0,0,
,-0.1,-0.545,0.835,87.951,-38.331,-48.706,0,0,0,
,-0.117,-0.504,0.859,-0.367,-79.102,-38.331,0,0,0,
,-0.146,-0.424,0.883,-17.884,-109.864,-28.321,0,0,0,
,-0.179,-0.374,0.914,70.129,-157.593,-27.1,0,0,0,
,-0.245,-0.431,0.937,167.541,-193.055,-52.674,0,0,0,
,-0.308,-0.476,0.897,187.988,-179.322,-31.8,0,0,0,
,-0.332,-0.542,0.848,113.525,-148.743,-16.968,0,0,0,
,-0.3,-0.563,0.848,-25.269,-117.188,-2.015,0,0,0,
,-0.258,-0.493,0.848,-144.776,-101.014,12.878,0,0,0,
,-0.219,-0.432,0.881,-124.756,-109.07,7.69,0,0,0,
,-0.206,-0.499,0.987,-17.884,-133.789,-32.288,0,0,0,
,-0.199,-0.655,0.982,47.241,-112.183,-83.924,0,0,0,
,-0.19,-0.688,0.888,-17.579,-67.688,-72.815,0,0,0,
,-0.181,-0.578,0.847,-46.631,-54.017,-40.345,0,0,0,
,-0.199,-0.442,0.767,-16.785,-52.185,-38.025,0,0,0,
,-0.208,-0.376,0.753,62.5,-36.194,-50.66,0,0,0,
,-0.188,-0.443,0.769,109.619,-10.987,-51.392,0,0,0,
,-0.136,-0.646,0.838,58.776,2.502,-70.862,0,0,0,
,-0.099,-0.737,0.88,-115.54,31.127,-61.036,0,0,0,
,-0.087,-0.59,0.875,-221.985,18.92,-12.269,0,0,0,
,-0.106,-0.398,0.824,-147.95,6.591,10.62,0,0,0,
,-0.11,-0.35,0.798,56.03,-19.165,5.92,0,0,0,
,-0.116,-0.441,0.792,123.718,-23.133,-14.832,0,0,0,
,-0.093,-0.631,0.862,39.733,-12.085,-43.457,0,0,0,
,-0.061,-0.732,0.944,-143.494,14.16,-41.382,0,0,0,
,-0.056,-0.583,0.916,-271.241,49.011,12.817,0,0,0,
,-0.049,-0.417,0.867,-165.467,38.269,39.428,0,0,0,
,-0.059,-0.376,0.817,24.841,-13.977,50.903,0,0,0,
,-0.116,-0.427,0.825,98.266,-40.711,38.024,0,0,0,
,-0.121,-0.621,0.888,53.039,-6.348,-26.123,0,0,0,
,-0.085,-0.711,0.94,-89.661,50.293,-27.466,0,0,0,
,-0.077,-0.55,0.91,-126.465,84.35,5.004,0,0,0,
,-0.081,-0.409,0.838,18.493,82.519,-9.095,0,0,0,
,-0.081,-0.475,0.82,199.401,43.762,-38.025,0,0,0,
,-0.11,-0.613,0.838,144.897,26.672,-69.214,0,0,0,
,-0.108,-0.637,0.884,17.517,59.692,-63.05,0,0,0,
,-0.077,-0.547,0.906,-40.223,67.016,-36.499,0,0,0,
,-0.061,-0.497,0.879,-12.269,44.372,-25.391,0,0,0,
,-0.072,-0.52,0.853,-19.288,14.77,-15.503,0,0,0,
,-0.081,-0.539,0.854,-97.352,6.042,-1.954,0,0,0,
,-0.088,-0.477,0.891,-132.691,-1.465,22.338,0,0,0,
,-0.099,-0.406,0.916,-79.651,-0.672,30.273,0,0,0,
,-0.109,-0.401,0.926,27.648,23.559,27.648,0,0,0,
,-0.098,-0.55,0.875,74.096,48.889,0.366,0,0,0,
,-0.07,-0.636,0.837,-31.128,55.481,9.582,0,0,0,
,-0.059,-0.548,0.857,-218.689,50.17,-1.465,0,0,0,
,-0.059,-0.5,0.921,-176.636,26.489,-18.555,0,0,0,
,-0.097,-0.441,0.936,-67.139,9.704,-28.626,0,0,0,
,-0.115,-0.456,0.935,41.931,26.062,-35.523,0,0,0,
,-0.114,-0.526,0.913,83.313,38.269,-51.087,0,0,0,
,-0.088,-0.625,0.908,-12.879,29.113,-42.725,0,0,0,
,-0.098,-0.518,0.855,-147.4,14.648,-19.959,0,0,0,
,-0.134,-0.408,0.872,-102.662,-7.019,0.793,0,0,0,
,-0.182,-0.408,0.932,-63.538,8.972,-21.363,0,0,0,
,-0.174,-0.395,0.896,-7.142,61.401,-22.217,0,0,0,
,-0.137,-0.448,0.895,-15.381,65.124,-31.861,0,0,0,
,-0.127,-0.451,0.892,-39.673,47.607,-35.34,0,0,0,
,-0.133,-0.49,0.866,-59.815,38.452,-4.883,0,0,0,
,-0.124,-0.417,0.876,-98.633,30.578,26.977,0,0,0,
,-0.166,-0.387,0.874,-54.566,25.085,2.929,0,0,0,
,-0.21,-0.445,0.818,-55.298,52.917,-1.954,0,0,0,
,-0.18,-0.444,0.831,-150.818,79.589,21.057,0,0,0,
,-0.169,-0.378,0.8,-166.687,85.815,37.841,0,0,0,
,-0.187,-0.318,0.846,-106.202,73.669,60.73,0,0,0,
,-0.191,-0.354,0.9,-42.542,93.872,65.49,0,0,0,
,-0.153,-0.408,0.909,-31.617,125.854,82.702,0,0,0,
,-0.074,-0.482,0.962,-57.19,137.817,82.519,0,0,0,
,0.012,-0.562,1.004,-73.426,137.756,71.228,0,0,0,
,0.069,-0.576,1.019,-94.117,125.854,52.185,0,0,0,
,0.106,-0.531,1.016,-50.721,96.679,38.513,0,0,0,
,0.143,-0.503,0.997,36.499,75.073,8.361,0,0,0,
,0.15,-0.47,0.974,103.332,36.926,-5.188,0,0,0,
,0.161,-0.496,0.947,104.187,41.931,-29.053,0,0,0,
,0.201,-0.536,0.909,47.546,66.894,-33.631,0,0,0,
,0.251,-0.57,0.866,-22.217,61.096,-43.702,0,0,0,
,0.227,-0.544,0.817,-103.821,25.329,-57.923,0,0,0,
,0.144,-0.493,0.848,-117.737,-26.368,-71.351,0,0,0,
,0.048,-0.486,0.868,-111.329,-28.138,-85.389,0,0,0,
,0.012,-0.441,0.891,-91.187,-12.818,-79.834,0,0,0,
,-0.011,-0.423,0.932,-51.819,-33.936,-80.384,0,0,0,
,-0.054,-0.462,0.871,5.371,-12.024,-87.22,0,0,0,
,-0.061,-0.458,0.897,49.255,-17.518,-83.741,0,0,0,
,-0.099,-0.483,0.846,85.998,-6.775,-83.619,0,0,0,
,-0.076,-0.489,0.874,-6.714,7.934,-115.296,0,0,0,
,-0.124,-0.325,0.852,8.789,-29.236,-63.172,0,0,0,
,-0.207,-0.303,0.935,18.005,-73.06,-56.824,0,0,0,
,-0.289,-0.282,0.927,-3.479,-28.382,-48.401,0,0,0,
,-0.334,-0.227,0.998,-77.21,-19.837,-14.222,0,0,0,
,-0.345,-0.166,0.99,-19.959,0.732,48.95,0,0,0,
,-0.306,-0.241,0.982,96.313,41.32,65.795,0,0,0,
,-0.218,-0.488,0.984,66.345,59.204,44.128,0,0,0,
,-0.169,-0.572,0.937,-43.152,75.195,15.502,0,0,0,
,-0.14,-0.504,0.916,-51.941,67.321,20.752,0,0,0,
,-0.125,-0.478,0.92,-24.414,34.973,19.226,0,0,0,
,-0.136,-0.364,0.892,-26.001,54.199,23.559,0,0,0,
,-0.098,-0.284,0.863,32.348,72.387,42.114,0,0,0,
,-0.06,-0.341,0.87,31.616,71.777,41.565,0,0,0,
,-0.052,-0.286,0.856,-29.358,86.059,89.538,0,0,0,
,-0.025,-0.286,0.935,-38.88,115.051,91.919,0,0,0,
,0.05,-0.319,0.91,6.958,139.892,132.263,0,0,0,
,0.134,-0.41,1,71.411,135.131,121.276,0,0,0,
,0.249,-0.545,1.028,138.427,155.395,89.111,0,0,0,
,0.374,-0.667,1.039,141.784,129.577,54.138,0,0,0,
,0.433,-0.706,1.022,114.135,63.598,1.098,0,0,0,
,0.364,-0.638,0.959,104.736,-38.758,-50.232,0,0,0,
,0.182,-0.501,0.854,64.453,-124.39,-61.646,0,0,0,
,0.01,-0.37,0.812,71.777,-138.672,-47.364,0,0,0,
,-0.073,-0.39,0.83,89.599,-89.844,-45.044,0,0,0,
,-0.086,-0.505,0.842,66.833,7.995,-53.894,0,0,0,
,-0.015,-0.61,0.843,43.945,83.923,-68.238,0,0,0,
,0.048,-0.655,0.856,76.904,60.913,-81.055,0,0,0,
,-0.012,-0.674,0.81,66.467,-1.831,-123.169,0,0,0,
,-0.088,-0.632,0.811,-76.722,-24.414,-136.719,0,0,0,
,-0.134,-0.426,0.822,-140.198,17.15,-113.282,0,0,0,
,-0.112,-0.319,0.871,-140.992,43.335,-107.3,0,0,0,
,-0.074,-0.274,1.005,-129.517,48.034,-83.374,0,0,0,
,-0.013,-0.07,1.246,-65.43,-120.728,13.794,0,0,0,
,-0.179,-0.062,0.925,246.093,-86.243,22.338,0,0,0,
,-0.243,-0.332,0.94,230.468,-60.425,-26.551,0,0,0,
,-0.16,-0.429,0.95,169.738,137.024,26.245,0,0,0,
,-0.079,-0.663,1.021,-28.321,135.498,12.878,0,0,0,
,-0.008,-0.729,0.998,-273.072,149.963,-34.363,0,0,0,
,-0.017,-0.486,0.94,-264.71,45.959,4.211,0,0,0,
,-0.077,-0.326,0.895,-148.377,-2.198,7.263,0,0,0,
,-0.047,-0.219,0.903,55.786,31.127,16.052,0,0,0,
,0,-0.261,0.884,254.15,12.329,-1.709,0,0,0,
,0.038,-0.485,0.928,302.063,36.682,-10.865,0,0,0,
,0.111,-0.684,0.968,199.585,61.096,-24.109,0,0,0,
,0.161,-0.745,0.91,-11.719,55.297,-42.115,0,0,0,
,0.119,-0.535,0.902,-157.349,-32.654,-14.161,0,0,0,
,0.032,-0.376,0.946,-47.547,-63.782,-10.987,0,0,0,
,0.017,-0.406,0.952,63.476,-10.498,-40.528,0,0,0,
,0.064,-0.462,0.953,93.383,11.047,-50.66,0,0,0,
,0.136,-0.541,1.001,184.57,42.053,-71.9,0,0,0,
,0.217,-0.667,0.843,300.476,65.734,-131.104,0,0,0,
,0.209,-0.728,0.823,158.63,-59.693,-160.218,0,0,0,
,0.023,-0.495,0.776,14.038,-119.141,-124.573,0,0,0,
,-0.076,-0.404,0.799,-14.954,-41.443,-128.479,0,0,0,
,-0.054,-0.406,0.854,-36.744,67.81,-114.747,0,0,0,
,0.013,-0.428,0.903,-49.012,105.285,-93.262,0,0,0,
,0.033,-0.457,0.932,-35.401,56.701,-81.971,0,0,0,
,0.048,-0.454,0.95,31.982,2.319,-57.618,0,0,0,
,-0.009,-0.422,0.954,108.398,-55.115,-60.608,0,0,0,
,-0.066,-0.446,0.933,178.283,-58.96,-64.637,0,0,0,
,-0.052,-0.505,0.879,175.476,-11.902,-62.256,0,0,0,
,0,-0.51,0.903,163.391,3.418,-60.059,0,0,0,
,0.038,-0.453,0.842,194.03,-5.982,-61.768,0,0,0,
,0.033,-0.436,0.772,270.568,-26.185,-59.998,0,0,0,
,0.01,-0.49,0.776,328.308,-86.426,-86.976,0,0,0,
,-0.027,-0.551,0.757,286.255,-100.342,-45.777,0,0,0,
,-0.049,-0.526,0.769,161.193,-83.252,-39.368,0,0,0,
,-0.046,-0.492,0.728,90.087,-39.856,-7.081,0,0,0,
,-0.017,-0.493,0.742,72.998,-34.058,6.347,0,0,0,
,0.003,-0.458,0.738,93.994,-75.623,24.108,0,0,0,
,-0.048,-0.485,0.744,90.271,-166.321,-14.344,0,0,0,
,-0.125,-0.516,0.818,88.195,-252.381,-32.593,0,0,0,
,-0.225,-0.512,0.894,75.134,-291.565,-6.836,0,0,0,
,-0.308,-0.493,0.97,68.969,-273.011,26.916,0,0,0,
,-0.36,-0.474,0.978,100.891,-217.102,52.856,0,0,0,
,-0.393,-0.451,0.904,147.644,-155.823,81.604,0,0,0,
,-0.408,-0.429,0.837,195.984,-104.676,94.97,0,0,0,
,-0.386,-0.527,0.77,212.158,-30.701,83.129,0,0,0,
,-0.287,-0.721,0.766,152.893,28.259,40.893,0,0,0,
,-0.232,-0.856,0.83,-23.804,27.526,-5.005,0,0,0,
,-0.182,-0.756,0.884,-199.646,-3.113,-32.898,0,0,0,
,-0.194,-0.6,0.901,-220.215,-39.551,-63.05,0,0,0,
,-0.242,-0.503,0.899,-110.169,-61.524,-69.642,0,0,0,
,-0.273,-0.45,0.834,15.747,-37.354,-58.228,0,0,0,
,-0.273,-0.474,0.78,97.839,12.085,-53.65,0,0,0,
,-0.212,-0.517,0.767,97.045,71.472,-37.293,0,0,0,
,-0.126,-0.615,0.808,70.007,107.605,-50.049,0,0,0,
,-0.045,-0.722,0.836,37.292,103.759,-61.036,0,0,0,
,-0.006,-0.744,0.867,-25.208,66.772,-74.219,0,0,0,
,-0.045,-0.648,0.828,-69.519,19.043,-60.669,0,0,0,
,-0.097,-0.563,0.786,-92.53,-0.733,-33.753,0,0,0,
,-0.083,-0.553,0.799,-106.019,22.949,-8.484,0,0,0,
,-0.016,-0.575,0.865,-125,49.438,12.268,0,0,0,
,0.037,-0.564,0.891,-126.587,65.979,-24.17,0,0,0,
,0.054,-0.596,0.9,-38.025,52.49,-68.909,0,0,0,
,0.037,-0.656,0.881,45.959,18.432,-80.933,0,0,0,
,-0.008,-0.649,0.86,-7.691,8.178,-68.97,0,0,0,
,-0.029,-0.626,0.846,-109.986,32.47,-65.613,0,0,0,
,0.002,-0.556,0.838,-159.913,59.204,-39.917,0,0,0,
,0.003,-0.408,0.841,-107.605,43.273,-52.369,0,0,0,
,-0.019,-0.41,0.878,48.889,29.296,-98.267,0,0,0,
,-0.001,-0.558,0.881,158.203,4.516,-82.154,0,0,0,
,-0.058,-0.686,0.868,7.629,2.136,-63.538,0,0,0,
,-0.074,-0.619,0.876,-168.396,26.611,-31.922,0,0,0,
,-0.098,-0.461,0.904,-171.814,23.559,9.277,0,0,0,
,-0.131,-0.381,0.87,-10.743,5.004,-18.311,0,0,0,
,-0.172,-0.451,0.876,139.953,24.292,-48.829,0,0,0,
,-0.171,-0.581,0.847,166.259,54.87,-21.851,0,0,0,
,-0.163,-0.702,0.83,-7.569,76.843,-20.508,0,0,0,
,-0.177,-0.555,0.832,-225.647,79.895,5.615,0,0,0,
,-0.207,-0.363,0.838,-221.375,82.031,34.179,0,0,0,
,-0.206,-0.299,0.874,-90.149,83.74,62.377,0,0,0,
,-0.182,-0.362,0.847,45.654,105.651,75.195,0,0,0,
,-0.119,-0.521,0.847,78.857,105.102,87.463,0,0,0,
,-0.076,-0.639,0.885,-56.397,107.177,81.604,0,0,0,
,-0.042,-0.642,0.867,-128.113,131.408,100.647,0,0,0,
,0.031,-0.7,0.934,-154.48,140.014,69.702,0,0,0,
,0.119,-0.719,0.892,-137.94,148.681,34.973,0,0,0,
,0.169,-0.639,0.871,-83.069,92.895,5.249,0,0,0,
,0.154,-0.595,0.879,-7.325,15.991,-41.016,0,0,0,
,0.135,-0.594,0.867,-0.428,47.424,-58.777,0,0,0,
,0.178,-0.59,0.864,-28.931,64.819,-79.712,0,0,0,
,0.201,-0.534,0.836,-50.477,42.48,-80.933,0,0,0,
,0.167,-0.484,0.845,-36.805,-4.151,-80.628,0,0,0,
,0.097,-0.444,0.871,5.859,-24.292,-73.06,0,0,0,
,0.049,-0.462,0.887,48.889,-16.419,-63.233,0,0,0,
,0.033,-0.515,0.877,46.508,-19.959,-55.542,0,0,0,
,-0.027,-0.544,0.896,4.394,-43.763,-60.486,0,0,0,
,-0.084,-0.506,0.862,-9.949,-28.748,-41.26,0,0,0,
,-0.094,-0.507,0.892,1.098,-13.794,-54.322,0,0,0,
,-0.075,-0.513,0.827,66.284,22.155,-57.19,0,0,0,
,-0.073,-0.547,0.918,92.163,-5.799,-62.073,0,0,0,
,-0.109,-0.565,0.847,65.063,29.296,-81.788,0,0,0,
,-0.111,-0.537,0.867,3.906,14.099,-79.346,0,0,0,
,-0.174,-0.42,0.771,-3.907,8.606,-42.786,0,0,0,
,-0.209,-0.389,0.903,-65.552,-26.551,-44.312,0,0,0,
,-0.255,-0.282,0.852,-50.415,31.799,-7.752,0,0,0,
,-0.228,-0.304,0.929,27.465,45.471,-7.203,0,0,0,
,-0.25,-0.382,0.965,38.086,48.095,-0.977,0,0,0,
,-0.211,-0.46,0.949,64.209,63.354,21.85,0,0,0,
,-0.157,-0.53,0.934,84.228,57.8,37.109,0,0,0,
,-0.128,-0.529,0.876,85.205,38.879,36.926,0,0,0,
,-0.13,-0.535,0.865,65.856,35.766,31.555,0,0,0,
,-0.104,-0.54,0.838,-20.935,72.448,34.545,0,0,0,
,-0.046,-0.508,0.789,-119.69,104.065,50.109,0,0,0,
,-0.021,-0.382,0.731,-139.283,76.782,96.374,0,0,0,
,-0.06,-0.256,0.747,-120.118,51.208,133.117,0,0,0,
,-0.031,-0.326,0.831,-38.575,133.545,117.492,0,0,0,
,0.104,-0.502,0.91,45.715,180.481,112.793,0,0,0,
,0.236,-0.732,0.973,50.354,178.222,73.303,0,0,0,
,0.335,-0.856,0.974,58.166,138.855,24.902,0,0,0,
,0.316,-0.802,0.946,56.762,22.033,-12.207,0,0,0,
,0.223,-0.703,0.925,49.438,-49.927,-48.462,0,0,0,
,0.103,-0.547,0.848,4.76,-57.862,-63.05,0,0,0,
,0.025,-0.417,0.785,-15.076,-28.565,-56.519,0,0,0,
,0.003,-0.394,0.804,20.385,9.826,-52.491,0,0,0,
,0.002,-0.527,0.83,12.817,66.589,-67.2,0,0,0,
,0.041,-0.65,0.874,-75.074,95.581,-74.646,0,0,0,
,0.041,-0.619,0.879,-155.152,64.331,-66.346,0,0,0,
,-0.014,-0.445,0.899,-117.127,1.464,-35.645,0,0,0,
,-0.071,-0.387,0.933,-17.823,-2.564,-31.434,0,0,0,
,-0.059,-0.434,0.959,18.493,38.33,-33.997,0,0,0,
,-0.015,-0.532,1.007,-21.363,61.096,-52.674,0,0,0,
,0.002,-0.589,0.984,-65.552,70.495,-72.205,0,0,0,
,0.01,-0.527,0.958,-95.643,38.94,-42.237,0,0,0,
,-0.003,-0.364,0.895,-6.714,13.305,0.244,0,0,0,
,-0.012,-0.299,0.888,153.625,0.183,26.672,0,0,0,
,-0.049,-0.417,0.938,200.744,15.197,-15.931,0,0,0,
,-0.052,-0.583,0.921,106.994,97.839,-43.702,0,0,0,
,0.022,-0.624,0.929,8.239,125.549,-11.841,0,0,0,
,0.044,-0.617,0.831,-34.18,99.365,-17.395,0,0,0,
,0.034,-0.583,0.875,-12.879,45.776,-16.724,0,0,0,
,0.002,-0.518,0.773,63.72,75.256,-25.269,0,0,0,
,0.051,-0.543,0.798,85.876,75.683,-45.899,0,0,0,
,0.071,-0.516,0.741,48.461,81.726,-31.861,0,0,0,
,0.079,-0.536,0.818,-17.212,52.856,-31.373,0,0,0,
,0.082,-0.604,0.928,-77.759,74.646,-33.387,0,0,0,
,0.119,-0.708,0.95,-158.936,116.699,-70.801,0,0,0,
,0.178,-0.647,0.911,-178.528,93.627,-66.407,0,0,0,
,0.159,-0.53,0.864,-122.376,-3.724,-82.337,0,0,0,
,0.101,-0.404,0.803,4.028,-39.002,-76.661,0,0,0,
,0.064,-0.35,0.853,107.849,-57.557,-71.167,0,0,0,
,0.054,-0.438,0.873,102.05,27.954,-76.783,0,0,0,
,0.133,-0.547,0.928,-29.541,88.684,-66.163,0,0,0,
,0.2,-0.595,0.914,-129.7,104.858,-54.81,0,0,0,
,0.209,-0.602,0.921,-157.105,39.245,-48.096,0,0,0,
,0.161,-0.558,0.894,-139.527,-5.616,-56.885,0,0,0,
,0.102,-0.459,0.906,-94.605,-9.095,-68.787,0,0,0,
,0.144,-0.373,0.879,36.01,34.118,-95.887,0,0,0,
,0.183,-0.395,0.866,153.991,23.742,-107.544,0,0,0,
,0.174,-0.431,0.857,148.376,-9.583,-92.225,0,0,0,
,0.111,-0.418,0.868,109.436,-27.466,-88.746,0,0,0,
,0.063,-0.442,0.888,88.134,-3.174,-82.398,0,0,0,
,0.056,-0.552,0.922,14.709,25.512,-65.857,0,0,0,
,0.1,-0.484,0.927,-125.794,3.234,51.086,0,0,0,
,0.125,-0.345,0.972,-165.955,-44.861,68.42,0,0,0,
,0.134,-0.269,1.006,35.705,-108.033,96.801,0,0,0,
,0.133,-0.316,1.008,258.789,-171.204,80.322,0,0,0,
,0.112,-0.348,0.954,429.687,-233.216,84.899,0,0,0,
,0.073,-0.428,0.858,546.508,-279.786,77.148,0,0,0,
,0.052,-0.539,0.793,561.95,-324.524,65.307,0,0,0,
,0.017,-0.583,0.744,443.786,-355.896,62.011,0,0,0,
,0.006,-0.58,0.836,267.028,-403.626,77.087,0,0,0,
,-0.03,-0.452,0.896,133.728,-450.867,134.948,0,0,0,
,-0.084,-0.338,0.876,140.808,-493.226,166.687,0,0,0,
,-0.156,-0.344,0.843,306.457,-534.485,208.557,0,0,0,
,-0.158,-0.351,0.795,484.436,-623.963,256.775,0,0,0,
,-0.307,-0.536,0.831,391.052,-692.627,325.805,0,0,0,
,-0.314,-0.686,0.814,307.251,-712.647,361.084,0,0,0,
,-0.315,-0.729,0.797,191.101,-745.118,405.578,0,0,0,
,-0.369,-0.649,0.77,33.935,-791.077,440.918,0,0,0,
,-0.447,-0.514,0.725,-44.8,-781.189,475.952,0,0,0,
,-0.497,-0.392,0.683,14.404,-702.759,505.249,0,0,0,
,-0.515,-0.506,0.635,62.072,-585.694,530.883,0,0,0,
,-0.427,-0.794,0.578,238.098,-457.825,519.897,0,0,0,
,-0.288,-1.016,0.594,230.346,-397.583,563.11,0,0,0,
,-0.177,-0.946,0.609,52.856,-434.937,601.867,0,0,0,
,-0.21,-0.613,0.555,-181.763,-425.293,534.729,0,0,0,
,-0.292,-0.471,0.519,-230.286,-311.707,371.338,0,0,0,
,-0.284,-0.477,0.5,92.041,-227.967,283.996,0,0,0,
,-0.198,-0.709,0.631,416.87,-198.609,335.693,0,0,0,
,-0.04,-1.055,0.641,644.531,-210.755,364.502,0,0,0,
,0.064,-1.124,0.576,531.128,-279.664,362.854,0,0,0,
,0.02,-1.035,0.563,190.796,-307.557,293.945,0,0,0,
,-0.126,-0.909,0.483,-66.529,-270.081,160.705,0,0,0,
,-0.188,-0.828,0.48,-102.784,-187.745,92.224,0,0,0,
,-0.128,-0.754,0.559,65.856,-135.987,116.333,0,0,0,
,-0.065,-0.767,0.646,375.671,-133.545,132.568,0,0,0,
,-0.058,-0.846,0.633,602.783,-121.094,92.468,0,0,0,
,-0.073,-0.944,0.564,602.234,-83.313,50.109,0,0,0,
,-0.091,-0.983,0.506,413.208,-24.659,0.122,0,0,0,
,-0.093,-0.963,0.494,201.782,26.245,-5.982,0,0,0,
,-0.075,-0.953,0.51,44.86,27.893,-4.517,0,0,0,
,-0.054,-0.956,0.599,63.11,11.047,11.535,0,0,0,
,-0.062,-0.913,0.642,84.716,0.061,29.113,0,0,0,
,-0.095,-0.864,0.643,90.82,18.31,26.245,0,0,0,
,-0.109,-0.884,0.581,58.044,40.71,26.123,0,0,0,
,-0.112,-0.847,0.492,-34.607,52.734,-5.433,0,0,0,
,-0.119,-0.833,0.518,-147.095,78.247,-39.978,0,0,0,
,-0.113,-0.882,0.569,-106.385,74.279,-59.388,0,0,0,
,-0.103,-0.903,0.6,-55.542,79.589,-52.369,0,0,0,
,-0.115,-0.882,0.595,18.676,76.965,-42.054,0,0,0,
,-0.13,-0.859,0.609,117.859,81.237,-25.269,0,0,0,
,-0.148,-0.857,0.558,186.096,86.853,-18.677,0,0,0,
,-0.154,-0.806,0.517,168.396,110.839,-19.41,0,0,0,
,-0.146,-0.769,0.519,149.841,122.314,-44.983,0,0,0,
,-0.129,-0.853,0.559,176.635,102.966,-58.838,0,0,0,
,-0.14,-0.94,0.57,72.631,81.604,-17.701,0,0,0,
,-0.136,-0.852,0.565,84.594,79.406,15.38,0,0,0,
,-0.137,-0.8,0.576,106.201,92.529,-3.785,0,0,0,
,-0.119,-0.848,0.565,144.043,69.336,-26.551,0,0,0,
,-0.112,-0.913,0.551,113.22,58.898,-21.546,0,0,0,
,-0.115,-0.949,0.563,87.463,28.076,-50.171,0,0,0,
,-0.124,-0.987,0.582,13.244,36.499,-23.438,0,0,0,
,-0.122,-0.929,0.591,-27.161,23.559,-25.391,0,0,0,
,-0.127,-0.894,0.564,-78.37,53.405,-5.982,0,0,0,
,-0.108,-0.894,0.56,-110.474,17.517,-8.606,0,0,0,
,-0.103,-0.849,0.522,-123.963,42.48,4.394,0,0,0,
,-0.088,-0.805,0.556,-103.028,40.039,-12.269,0,0,0,
,-0.083,-0.842,0.567,-9.095,33.081,1.892,0,0,0,
,-0.112,-0.893,0.546,17.944,17.578,-31.739,0,0,0,
,-0.114,-0.906,0.554,21.179,31.005,-18.738,0,0,0,
,-0.11,-0.931,0.548,-51.087,46.875,-6.348,0,0,0,
,-0.099,-0.893,0.539,-84.107,34.606,-2.686,0,0,0,
,-0.106,-0.859,0.55,-144.532,26.489,12.512,0,0,0,
,-0.144,-0.88,0.596,-91.248,28.381,29.724,0,0,0,
,-0.14,-0.848,0.533,-79.346,58.715,42.236,0,0,0,
,-0.12,-0.717,0.527,-75.562,53.161,60.119,0,0,0,
,-0.108,-0.733,0.551,-31.311,71.96,15.991,0,0,0,
,-0.079,-0.901,0.582,-42.481,71.777,22.216,0,0,0,
,-0.06,-0.906,0.617,-45.35,49.682,22.583,0,0,0,
,-0.075,-0.881,0.605,-95.032,39.733,17.456,0,0,0,
,-0.087,-0.825,0.579,-102.784,25.329,9.155,0,0,0,
,-0.102,-0.882,0.61,-279.48,20.752,1.709,0,0,0,
,-0.103,-0.843,0.604,-369.69,49.804,11.413,0,0,0,
,-0.066,-0.793,0.629,-383.484,52.673,44.372,0,0,0,
,-0.084,-0.759,0.638,-256.531,37.963,46.142,0,0,0,
,-0.082,-0.772,0.671,-105.591,30.7,31.738,0,0,0,
,-0.075,-0.888,0.686,-76.355,2.441,53.527,0,0,0,
,-0.066,-0.855,0.642,-160.767,6.286,78.064,0,0,0,
,-0.031,-0.907,0.725,-161.438,-37.781,50.72,0,0,0,
,-0.051,-0.921,0.678,-401.062,-83.802,77.88,0,0,0,
,-0.127,-0.663,0.612,-644.837,24.658,85.693,0,0,0,
,-0.093,-0.663,0.681,-419.678,27.221,-46.57,0,0,0,
,-0.009,-0.784,0.792,-102.967,-40.039,24.475,0,0,0,
