TIMECODE,ACC_X,ACC_Y,ACC_Z,GYR_X,GYR_Y,GYR_Z,ECG_I,ECG_II,ECG_III,TAG
,-0.091,-0.873,0.569,-83.558,-21.485,-40.223,0,0,0,
,-0.104,-0.894,0.576,-115.967,-5.005,-19.837,0,0,0,
,-0.105,-0.867,0.582,-143.25,34.362,5.615,0,0,0,
,-0.095,-0.815,0.606,-158.204,80.627,25.207,0,0,0,
,-0.073,-0.754,0.62,-131.836,92.529,39.55,0,0,0,
,-0.057,-0.78,0.616,-100.22,62.255,43.701,0,0,0,
,-0.051,-0.798,0.624,-69.825,29.48,31.127,0,0,0,
,-0.058,-0.823,0.612,-46.57,11.474,19.714,0,0,0,
,-0.062,-0.834,0.611,-45.472,8.483,15.686,0,0,0,
,-0.064,-0.837,0.616,-46.326,20.446,11.657,0,0,0,
,-0.059,-0.816,0.619,-53.711,36.926,8.361,0,0,0,
,-0.049,-0.795,0.624,-46.509,36.377,5.981,0,0,0,
,-0.043,-0.792,0.623,-35.462,20.385,7.019,0,0,0,
,-0.048,-0.809,0.619,-29.419,3.356,1.77,0,0,0,
,-0.057,-0.82,0.625,-25.33,-4.029,-7.691,0,0,0,
,-0.064,-0.822,0.625,-25.147,0.671,-15.625,0,0,0,
,-0.063,-0.818,0.619,-34.241,6.225,-15.381,0,0,0,
,-0.062,-0.828,0.616,-52.735,14.465,-3.846,0,0,0,
,-0.058,-0.822,0.621,-63.782,26.123,7.995,0,0,0,
,-0.055,-0.797,0.635,-67.994,34.973,13.671,0,0,0,
,-0.047,-0.788,0.637,-60.181,35.217,14.831,0,0,0,
,-0.043,-0.796,0.631,-57.74,21.545,11.596,0,0,0,
,-0.044,-0.806,0.641,-58.289,9.582,1.892,0,0,0,
,-0.049,-0.804,0.637,-55.115,10.681,-6.226,0,0,0,
,-0.047,-0.806,0.636,-60.425,9.643,-5.738,0,0,0,
,-0.052,-0.8,0.647,-65.735,12.268,-4.7,0,0,0,
,-0.049,-0.788,0.654,-71.534,21.911,-4.578,0,0,0,
,-0.043,-0.793,0.652,-67.566,25.817,-0.733,0,0,0,
,-0.039,-0.789,0.649,-67.749,24.231,2.014,0,0,0,
,-0.038,-0.784,0.662,-62.623,23.254,-3.479,0,0,0,
,-0.038,-0.779,0.657,-52.002,18.554,-9.827,0,0,0,
,-0.037,-0.78,0.658,-50.232,9.338,-19.227,0,0,0,
,-0.041,-0.783,0.659,-46.448,1.953,-21.119,0,0,0,
,-0.044,-0.785,0.661,-44.617,1.525,-20.264,0,0,0,
,-0.047,-0.782,0.664,-44.678,8.056,-10.743,0,0,0,
,-0.043,-0.77,0.668,-44.373,17.822,-8.728,0,0,0,
,-0.039,-0.772,0.671,-45.044,20.568,-6.836,0,0,0,
,-0.037,-0.778,0.671,-39.795,18.127,-10.987,0,0,0,
,-0.039,-0.769,0.667,-29.786,11.962,-12.391,0,0,0,
,-0.041,-0.757,0.677,-19.898,10.376,-10.315,0,0,0,
,-0.042,-0.763,0.674,-9.4,10.925,-4.761,0,0,0,
,-0.044,-0.772,0.673,-4.944,16.296,-2.503,0,0,0,
,-0.042,-0.778,0.674,-8.301,24.963,0.549,0,0,0,
,-0.033,-0.772,0.675,-3.296,32.836,-0.367,0,0,0,
,-0.027,-0.762,0.674,2.868,31.311,-1.16,0,0,0,
,-0.019,-0.759,0.675,14.404,21.24,-7.874,0,0,0,
,-0.019,-0.765,0.671,20.019,4.15,-20.203,0,0,0,
,-0.024,-0.775,0.673,26.367,-14.893,-31.434,0,0,0,
,-0.029,-0.786,0.659,16.967,-25.147,-38.514,0,0,0,
,-0.034,-0.825,0.646,-13.367,-32.898,-35.889,0,0,0,
,-0.042,-0.803,0.666,-36.866,-22.034,-39.49,0,0,0,
,-0.039,-0.749,0.688,-34.18,-0.245,-50.293,0,0,0,
,-0.033,-0.731,0.674,-25.635,-4.395,-46.753,0,0,0,
,-0.028,-0.761,0.679,-20.508,-29.297,-48.096,0,0,0,
,-0.036,-0.778,0.675,-6.775,-46.082,-62.134,0,0,0,
,-0.05,-0.769,0.674,-1.954,-47.852,-65.064,0,0,0,
,-0.067,-0.763,0.679,-3.113,-36.194,-59.205,0,0,0,
,-0.068,-0.77,0.681,-1.465,-16.724,-50.477,0,0,0,
,-0.066,-0.767,0.679,-1.282,3.356,-39.307,0,0,0,
,-0.063,-0.76,0.68,0.61,16.906,-26.49,0,0,0,
,-0.059,-0.757,0.678,5.249,22.338,-15.503,0,0,0,
,-0.055,-0.758,0.68,11.108,23.62,-7.691,0,0,0,
,-0.056,-0.767,0.681,9.155,23.071,-2.076,0,0,0,
,-0.056,-0.774,0.674,9.826,27.832,3.112,0,0,0,
,-0.05,-0.771,0.676,4.577,37.109,5.004,0,0,0,
,-0.046,-0.77,0.679,7.812,46.264,4.211,0,0,0,
,-0.037,-0.765,0.672,8.85,38.147,3.967,0,0,0,
,-0.033,-0.768,0.679,9.582,23.132,-0.672,0,0,0,
,-0.032,-0.765,0.676,10.864,13.916,-7.752,0,0,0,
,-0.037,-0.769,0.678,9.399,6.408,-16.297,0,0,0,
,-0.039,-0.769,0.672,11.108,3.784,-19.776,0,0,0,
,-0.04,-0.768,0.672,10.07,2.38,-24.842,0,0,0,
,-0.045,-0.769,0.674,7.568,1.037,-28.748,0,0,0,
,-0.043,-0.774,0.677,3.723,-0.916,-31.617,0,0,0,
,-0.046,-0.771,0.676,3.051,-1.099,-31.8,0,0,0,
,-0.046,-0.761,0.68,5.676,5.371,-30.152,0,0,0,
,-0.044,-0.758,0.678,9.887,6.958,-27.588,0,0,0,
,-0.045,-0.761,0.681,16.052,5.127,-25.94,0,0,0,
,-0.044,-0.765,0.681,16.723,-0.733,-30.335,0,0,0,
,-0.045,-0.77,0.675,21.667,-3.235,-33.57,0,0,0,
,-0.046,-0.771,0.674,24.047,-4.273,-33.448,0,0,0,
,-0.048,-0.769,0.672,21.606,-3.113,-15.686,0,0,0,
,-0.049,-0.774,0.669,18.798,-4.456,-27.466,0,0,0,
,-0.052,-0.773,0.674,15.93,-0.123,-28.138,0,0,0,
,-0.05,-0.765,0.673,15.075,1.709,-26.551,0,0,0,
,-0.048,-0.773,0.673,13.122,1.403,-24.964,0,0,0,
,-0.048,-0.773,0.67,14.648,-1.709,-24.292,0,0,0,
,-0.049,-0.778,0.673,8.728,0.61,-26.49,0,0,0,
,-0.051,-0.777,0.674,6.652,-0.184,-27.588,0,0,0,
,-0.052,-0.771,0.672,4.76,3.784,-28.992,0,0,0,
,-0.054,-0.763,0.672,9.033,7.385,-28.321,0,0,0,
,-0.053,-0.765,0.677,10.681,3.662,-23.56,0,0,0,
,-0.049,-0.775,0.673,13.61,3.112,-19.532,0,0,0,
,-0.055,-0.779,0.67,11.047,3.601,-17.945,0,0,0,
,-0.053,-0.768,0.672,10.62,10.009,-19.593,0,0,0,
,-0.053,-0.766,0.665,13,12.451,-15.686,0,0,0,
,-0.049,-0.775,0.673,13,11.169,-15.809,0,0,0,
,-0.047,-0.779,0.67,15.93,8.85,-18.86,0,0,0,
,-0.049,-0.774,0.67,10.009,1.22,-22.278,0,0,0,
,-0.051,-0.772,0.67,8.056,-1.893,-23.316,0,0,0,
,-0.051,-0.775,0.668,4.882,-1.404,-23.926,0,0,0,
,-0.052,-0.778,0.671,5.554,1.464,-23.499,0,0,0,
,-0.054,-0.773,0.67,0.732,4.272,-23.56,0,0,0,
,-0.053,-0.775,0.672,-3.54,1.464,-23.926,0,0,0,
,-0.053,-0.771,0.671,-1.282,-0.245,-24.964,0,0,0,
,-0.055,-0.768,0.674,-3.602,-0.489,-23.499,0,0,0,
,-0.054,-0.766,0.673,4.272,2.197,-22.4,0,0,0,
,-0.055,-0.768,0.673,3.54,3.295,-20.264,0,0,0,
,-0.05,-0.774,0.674,7.629,1.037,-23.804,0,0,0,
,-0.053,-0.771,0.673,6.347,-2.503,-24.842,0,0,0,
,-0.057,-0.769,0.668,8.789,-3.357,-27.039,0,0,0,
,-0.054,-0.768,0.667,8.056,-2.076,-24.659,0,0,0,
,-0.054,-0.777,0.671,9.338,0.366,-27.161,0,0,0,
,-0.054,-0.773,0.664,7.446,-0.489,-28.382,0,0,0,
,-0.055,-0.775,0.675,6.286,-4.822,-31.006,0,0,0,
,-0.059,-0.766,0.674,10.742,-4.212,-33.081,0,0,0,
,-0.062,-0.764,0.673,9.094,-5.921,-28.809,0,0,0,
,-0.059,-0.77,0.672,11.169,-1.893,-26.856,0,0,0,
,-0.062,-0.773,0.668,10.07,-2.076,-26.429,0,0,0,
,-0.06,-0.771,0.672,8.483,-1.648,-29.236,0,0,0,
,-0.056,-0.771,0.67,6.042,-2.991,-30.518,0,0,0,
,-0.059,-0.772,0.674,9.704,-5.616,-33.326,0,0,0,
,-0.058,-0.768,0.668,10.07,-7.874,-35.401,0,0,0,
,-0.061,-0.77,0.672,11.169,-8.362,-36.377,0,0,0,
,-0.064,-0.773,0.67,11.718,-10.804,-36.011,0,0,0,
,-0.069,-0.778,0.668,7.873,-7.63,-33.509,0,0,0,
,-0.071,-0.771,0.665,8.422,-3.724,-32.471,0,0,0,
,-0.072,-0.774,0.669,3.356,1.892,-29.847,0,0,0,
,-0.067,-0.776,0.674,2.807,1.342,-27.588,0,0,0,
,-0.064,-0.771,0.672,-1.648,2.685,-27.283,0,0,0,
,-0.068,-0.771,0.675,1.648,2.929,-24.781,0,0,0,
,-0.069,-0.772,0.666,0.061,2.685,-22.522,0,0,0,
,-0.066,-0.779,0.675,-2.93,8.422,-24.72,0,0,0,
,-0.064,-0.775,0.669,0.732,8.544,-29.114,0,0,0,
,-0.064,-0.766,0.676,-1.587,4.333,-30.823,0,0,0,
,-0.067,-0.763,0.672,2.99,2.746,-29.419,0,0,0,
,-0.071,-0.767,0.671,1.831,2.075,-28.199,0,0,0,
,-0.07,-0.772,0.673,4.089,6.774,-24.842,0,0,0,
,-0.071,-0.777,0.667,1.281,13,-20.874,0,0,0,
,-0.072,-0.774,0.675,0.793,18.432,-19.959,0,0,0,
,-0.069,-0.762,0.673,2.624,21.057,-18.311,0,0,0,
,-0.068,-0.766,0.675,3.112,18.371,-14.832,0,0,0,
,-0.066,-0.773,0.673,6.042,15.625,-12.757,0,0,0,
,-0.066,-0.774,0.67,4.821,17.639,-11.048,0,0,0,
,-0.066,-0.77,0.672,2.99,21.179,-9.827,0,0,0,
,-0.065,-0.768,0.674,1.22,24.536,-8.362,0,0,0,
,-0.061,-0.77,0.673,2.075,24.353,-6.958,0,0,0,
,-0.062,-0.766,0.675,0.549,20.935,-9.034,0,0,0,
,-0.058,-0.774,0.678,3.967,20.385,-13.245,0,0,0,
,-0.06,-0.771,0.671,7.019,12.512,-17.09,0,0,0,
,-0.064,-0.766,0.674,5.859,10.192,-15.992,0,0,0,
,-0.068,-0.765,0.673,7.934,13.427,-13.062,0,0,0,
,-0.067,-0.769,0.668,4.028,18.127,-8.973,0,0,0,
,-0.062,-0.774,0.673,3.784,22.338,-7.447,0,0,0,
,-0.06,-0.773,0.675,1.403,24.292,-11.292,0,0,0,
,-0.054,-0.767,0.674,2.38,18.249,-14.283,0,0,0,
,-0.055,-0.766,0.668,3.784,12.817,-18.433,0,0,0,
,-0.057,-0.77,0.671,4.577,7.812,-19.776,0,0,0,
,-0.061,-0.767,0.673,4.455,7.141,-19.654,0,0,0,
,-0.061,-0.773,0.677,0.793,13,-17.884,0,0,0,
,-0.061,-0.77,0.681,0.915,18.676,-0.184,0,0,0,
,-0.061,-0.767,0.673,-0.733,20.69,-10.804,0,0,0,
,-0.06,-0.767,0.673,0.061,21.179,-8.545,0,0,0,
,-0.058,-0.772,0.674,-3.052,20.568,-3.907,0,0,0,
,-0.057,-0.775,0.677,-3.663,25.085,-1.465,0,0,0,
,-0.056,-0.765,0.674,-0.489,29.541,-1.465,0,0,0,
,-0.054,-0.761,0.678,0.122,32.47,0.671,0,0,0,
,-0.051,-0.763,0.677,1.525,29.419,0.976,0,0,0,
,-0.048,-0.773,0.676,1.037,27.526,-0.367,0,0,0,
,-0.049,-0.773,0.676,-2.32,24.231,-2.747,0,0,0,
,-0.049,-0.771,0.674,-4.273,25.268,-1.954,0,0,0,
,-0.049,-0.763,0.683,-6.043,29.724,-4.09,0,0,0,
,-0.044,-0.759,0.678,-2.991,30.578,-3.907,0,0,0,
,-0.042,-0.767,0.674,-1.648,26.977,-4.517,0,0,0,
,-0.041,-0.769,0.672,-15.503,18.92,-6.287,0,0,0,
,-0.043,-0.767,0.68,-2.625,15.075,-7.813,0,0,0,
,-0.043,-0.765,0.676,-5.982,15.991,-9.522,0,0,0,
,-0.043,-0.768,0.683,-8.423,20.446,-12.94,0,0,0,
,-0.039,-0.764,0.678,-4.578,19.714,-14.1,0,0,0,
,-0.038,-0.756,0.686,-2.625,14.099,-11.292,0,0,0,
,-0.041,-0.757,0.677,6.347,10.009,-11.719,0,0,0,
,-0.042,-0.763,0.677,4.882,11.108,-9.522,0,0,0,
,-0.043,-0.77,0.68,5.676,17.15,-9.522,0,0,0,
,-0.04,-0.767,0.675,2.929,23.681,-7.874,0,0,0,
,-0.039,-0.764,0.682,2.807,24.475,-7.142,0,0,0,
,-0.035,-0.758,0.677,7.08,24.597,-6.287,0,0,0,
,-0.037,-0.762,0.679,7.202,19.104,-6.897,0,0,0,
,-0.037,-0.771,0.677,5.676,12.573,-4.029,0,0,0,
,-0.04,-0.769,0.677,2.014,13.977,-1.709,0,0,0,
,-0.044,-0.766,0.68,0.488,18.676,4.089,0,0,0,
,-0.043,-0.753,0.683,4.516,25.512,17.517,0,0,0,
,-0.046,-0.751,0.684,11.962,31.555,29.724,0,0,0,
,-0.063,-0.741,0.677,29.48,42.175,57.983,0,0,0,
,-0.045,-0.75,0.689,49.865,51.574,62.866,0,0,0,
,-0.043,-0.753,0.691,78.979,73.181,80.932,0,0,0,
,-0.04,-0.761,0.694,99.365,99.548,103.454,0,0,0,
,-0.029,-0.769,0.701,130.066,141.296,112.609,0,0,0,
,-0.011,-0.759,0.695,184.936,174.438,117.248,0,0,0,
,0.013,-0.757,0.666,194.458,181.457,118.469,0,0,0,
,0.019,-0.79,0.655,196.167,170.288,117.004,0,0,0,
,0.019,-0.813,0.675,203.186,167.297,109.13,0,0,0,
,0.015,-0.806,0.688,224.426,192.993,96.374,0,0,0,
,0.013,-0.801,0.69,269.165,254.821,81.787,0,0,0,
,0.018,-0.817,0.68,332.885,306.579,66.101,0,0,0,
,-0.053,-0.828,0.708,421.081,283.203,-47.913,0,0,0,
,-0.027,-0.872,0.787,739.929,252.502,-234.986,0,0,0,
,-0.13,-0.981,1.173,887.939,143.798,-511.109,0,0,0,
,0.026,-1.734,1.77,988.281,359.741,-162.415,0,0,0,
,0.35,-2.614,2.186,146.484,344.97,-37.11,0,0,0,
,0.419,-2.321,1.894,-235.413,60.058,-24.964,0,0,0,
,0.318,-1.452,1.155,-341.858,-189.698,-223.511,0,0,0,
,0.225,-0.762,-0.485,-382.691,-13.184,-147.034,0,0,0,
,0.696,-1.527,-0.367,204.04,90.21,-994.568,0,0,0,
,1.688,-3.075,-0.057,420.166,-1126.893,-2000,0,0,0,
,1.148,-2.962,-0.192,-45.166,-1999.573,-2000,0,0,0,
,0.319,-1.455,0.069,8.117,-2000,-2000,0,0,0,
,-0.087,-1.208,-0.285,-14.771,-1711.06,-2000,0,0,0,
,0.236,-1.477,-0.15,136.535,-1240.235,-2000,0,0,0,
,0.651,-1.226,-0.141,-416.199,-991.639,-2000,0,0,0,
,0.614,-0.412,-0.279,-789.856,-803.528,-2000,0,0,0,
,0.472,0.375,-0.298,-1220.582,-638.977,-2000,0,0,0,
,0.279,0.805,-0.229,-1374.878,-548.157,-2000,0,0,0,
,0.322,1.349,-0.057,-1506.592,-165.589,-2000,0,0,0,
,0.126,1.419,0.077,-1596.314,-448.731,-2000,0,0,0,
,-0.089,1.351,-0.076,-1461.426,-463.257,-2000,0,0,0,
,-0.254,0.44,-0.466,-1597.718,147.522,-2000,0,0,0,
,0.041,1.063,-0.623,-1894.227,595.337,-702.637,0,0,0,
,0.298,3.862,-0.127,-1201.05,396.362,772.888,0,0,0,
,0.005,2.997,0.444,533.02,651.123,862.243,0,0,0,
,0.02,1.396,-0.04,1734.558,1217.773,1281.067,0,0,0,
,0.133,0.84,-0.142,1999.694,1037.414,1788.879,0,0,0,
,0.153,0.563,-0.026,1999.694,720.398,1999.694,0,0,0,
,0.098,0.343,0.008,1826.355,457.336,1999.694,0,0,0,
,0.014,0.192,0.029,1392.028,282.348,1999.694,0,0,0,
,-0.038,0.088,0.117,970.764,207.58,1999.694,0,0,0,
,-0.01,-0.024,0.157,616.15,313.171,1999.694,0,0,0,
,0.072,-0.115,0.084,564.819,528.564,1999.694,0,0,0,
,0.145,-0.161,0.039,665.71,517.517,1999.694,0,0,0,
,0.149,-0.288,0.123,839.111,332.519,1999.694,0,0,0,
,0.119,-0.595,0.08,938.598,224.731,1999.694,0,0,0,
,0.204,-1.78,-0.372,803.772,466.125,1999.694,0,0,0,
,0.564,-3.365,-0.166,1751.831,428.711,1999.694,0,0,0,
,1.083,-2.922,-0.066,670.227,-374.817,1999.694,0,0,0,
,0.541,-1.553,0.341,440.673,-229.676,1999.694,0,0,0,
,0.114,-0.942,1.097,732.544,241.455,1152.832,0,0,0,
,-0.167,-1.812,0.841,680.175,520.385,52.551,0,0,0,
,-0.096,-2.402,0.76,395.874,522.4,-163.88,0,0,0,
,0.001,-2.554,0.551,-464.722,308.41,160.766,0,0,0,
,-0.422,-2.467,1.913,-2000,-166.138,20.202,0,0,0,
,-0.098,-2.378,0.518,-1448.182,-66.712,184.448,0,0,0,
,-0.258,-1.649,0.277,-1076.233,-212.708,-304.383,0,0,0,
,-0.39,-0.598,0.502,-761.841,-128.846,-410.523,0,0,0,
,-0.457,-0.004,0.724,-690.918,289.734,-114.441,0,0,0,
,-0.362,-0.068,0.911,-322.022,411.499,-47.791,0,0,0,
,-0.229,-0.286,0.788,258.178,332.519,212.219,0,0,0,
,-0.053,-0.599,0.521,560.608,341.43,313.354,0,0,0,
,0.068,-0.867,0.534,556.762,300.415,168.396,0,0,0,
,0.143,-1.058,0.413,420.715,242.37,143.31,0,0,0,
,0.162,-1.126,0.402,129.028,129.394,120.605,0,0,0,
,0.111,-1.145,0.464,-79.895,33.874,113.281,0,0,0,
,0.029,-1.147,0.507,-245.85,-12.085,27.587,0,0,0,
,-0.032,-1.064,0.518,-314.82,33.02,-55.054,0,0,0,
,-0.04,-0.99,0.588,-406.25,79.589,-96.009,0,0,0,
,-0.047,-0.888,0.627,-390.137,39.489,-130.066,0,0,0,
,-0.052,-0.718,0.626,-20.997,-75.684,-233.277,0,0,0,
,-0.138,-0.737,0.63,215.759,-197.205,-241.822,0,0,0,
,-0.225,-0.85,0.654,453.186,-211.121,-257.63,0,0,0,
,-0.247,-0.985,0.688,471.313,-201.6,-239.747,0,0,0,
,-0.256,-0.987,0.63,356.567,-192.749,-211.182,0,0,0,
,-0.281,-0.902,0.519,319.824,-128.907,-197.815,0,0,0,
,-0.261,-0.847,0.547,327.758,-62.867,-264.1,0,0,0,
,-0.246,-0.938,0.505,372.741,4.028,-304.81,0,0,0,
,-0.211,-1.052,0.537,397.033,-10.682,-344.117,0,0,0,
,-0.205,-1.12,0.482,263.122,-4.639,-352.051,0,0,0,
,-0.201,-1.157,0.498,19.653,-14.954,-323.182,0,0,0,
,-0.202,-1.09,0.499,-244.324,-13.367,-300.171,0,0,0,
,-0.183,-1.013,0.515,-457.703,-24.659,-302.735,0,0,0,
,-0.161,-0.993,0.504,-621.155,-52.247,-305.97,0,0,0,
,-0.147,-0.937,0.523,-749.512,-86.121,-292.603,0,0,0,
,-0.154,-0.865,0.529,-954.102,-100.525,-250.672,0,0,0,
,-0.178,-0.891,0.552,-1066.834,-70.252,-262.391,0,0,0,
,-0.184,-0.887,0.58,-1108.582,-1.587,-268.189,0,0,0,
,-0.176,-0.865,0.59,-1158.265,73.425,-259.949,0,0,0,
,-0.183,-0.773,0.573,-1112.916,145.446,-276.123,0,0,0,
,-0.187,-0.632,0.569,-1007.752,203.064,-308.472,0,0,0,
,-0.204,-0.528,0.577,-880.188,258.117,-328.309,0,0,0,
,-0.202,-0.477,0.662,-760.132,332.58,-352.662,0,0,0,
,-0.182,-0.485,0.697,-658.875,420.166,-358.338,0,0,0,
,-0.167,-0.529,0.653,-547.73,450.561,-367.371,0,0,0,
,-0.151,-0.594,0.65,-410.584,426.452,-360.047,0,0,0,
,-0.146,-0.581,0.735,-387.635,396.667,-285.523,0,0,0,
,-0.136,-0.477,0.838,-483.399,399.78,-204.59,0,0,0,
,-0.098,-0.325,0.946,-467.286,434.509,-146.302,0,0,0,
,-0.045,-0.207,0.983,-318.116,426.513,-102.356,0,0,0,
,-0.003,-0.124,0.941,-64.393,367.553,-73.182,0,0,0,
,-0.004,-0.113,0.853,169.677,275.146,-20.447,0,0,0,
,-0.044,-0.188,0.824,338.256,191.406,-13.001,0,0,0,
,-0.073,-0.31,0.814,455.017,201.965,-14.161,0,0,0,
,-0.063,-0.378,0.806,484.069,243.652,5.127,0,0,0,
,-0.021,-0.445,0.797,453.613,255.554,20.629,0,0,0,
,0.044,-0.552,0.857,370.056,197.387,-3.846,0,0,0,
,0.025,-0.551,0.886,342.529,80.444,-5.372,0,0,0,
,-0.006,-0.654,0.956,365.478,30.761,3.662,0,0,0,
,-0.015,-0.686,0.947,348.083,58.96,102.05,0,0,0,
,-0.004,-0.67,0.922,271.362,67.199,151.123,0,0,0,
,-0.002,-0.574,0.857,247.802,121.826,139.953,0,0,0,
,0.003,-0.53,0.801,336.609,164.428,60.424,0,0,0,
,-0.018,-0.582,0.791,433.227,210.937,72.021,0,0,0,
,0.037,-0.554,0.688,540.466,347.107,69.702,0,0,0,
,0.025,-0.526,0.58,779.174,301.452,20.69,0,0,0,
,0.011,-0.573,0.64,863.464,290.71,90.087,0,0,0,
,-0.01,-0.651,0.56,906.372,366.821,86.12,0,0,0,
,-0.013,-0.672,0.509,931.335,432.922,116.577,0,0,0,
,-0.017,-0.755,0.521,908.813,481.079,112.243,0,0,0,
,-0.008,-0.75,0.474,894.897,552.49,109.13,0,0,0,
,0.056,-0.735,0.411,902.893,595.092,82.092,0,0,0,
,0.141,-0.797,0.379,1001.281,535.095,75.256,0,0,0,
,0.125,-0.945,0.44,972.595,385.437,53.039,0,0,0,
,0.102,-1.058,0.428,836.914,398.498,31.799,0,0,0,
,0.169,-1.087,0.474,686.096,358.642,81.298,0,0,0,
,0.18,-1.044,0.471,583.13,275.695,72.448,0,0,0,
,0.143,-0.997,0.374,546.203,220.031,58.227,0,0,0,
,0.138,-1.093,0.388,493.591,200.256,16.906,0,0,0,
,0.125,-1.177,0.426,339.05,157.959,-2.381,0,0,0,
,0.119,-1.098,0.428,237.915,108.825,-9.888,0,0,0,
,0.124,-0.991,0.427,239.746,62.866,-54.2,0,0,0,
,0.122,-0.958,0.373,270.63,13,-125.489,0,0,0,
,0.096,-0.994,0.361,254.15,-53.833,-148.743,0,0,0,
,0.101,-1.082,0.427,120.788,-52.735,-159.607,0,0,0,
,0.118,-1.156,0.406,-141.358,-49.5,-119.507,0,0,0,
,0.089,-1.005,0.334,-342.102,-82.886,-24.842,0,0,0,
,0.058,-0.776,0.311,-374.817,-72.632,0.427,0,0,0,
,0.067,-0.712,0.363,-252.442,-43.091,-11.597,0,0,0,
,0.071,-0.751,0.405,-92.591,-32.532,-21.363,0,0,0,
,0.069,-0.838,0.385,0.427,2.258,-33.204,0,0,0,
,0.108,-0.98,0.385,-5.433,33.752,-29.908,0,0,0,
,0.145,-1.052,0.382,-82.764,26.672,-22.095,0,0,0,
,0.157,-1.046,0.423,-156.983,-8.484,-15.259,0,0,0,
,0.181,-0.951,0.477,-90.821,-22.644,-53.04,0,0,0,
,0.162,-0.965,0.472,-12.818,-76.294,-70.008,0,0,0,
,0.11,-1.001,0.473,-1.709,-81.971,-60.181,0,0,0,
,0.11,-1.029,0.457,-36.133,-32.41,-57.557,0,0,0,
,0.119,-1.06,0.42,-115.54,-30.518,-56.519,0,0,0,
,0.116,-1.001,0.413,-159.424,-45.289,-50.66,0,0,0,
,0.118,-0.933,0.408,-195.069,-46.265,-67.017,0,0,0,
,0.062,-0.875,0.412,-183.594,-81.788,-57.19,0,0,0,
,0.075,-0.872,0.462,-134.522,-75.318,-61.585,0,0,0,
,0.059,-0.897,0.46,-98.938,-44.068,-73.548,0,0,0,
,0.08,-0.923,0.446,-79.468,-12.452,-67.017,0,0,0,
,0.09,-0.876,0.416,-67.994,-25.391,-39.063,0,0,0,
,0.069,-0.879,0.415,-59.082,-38.086,-26.734,0,0,0,
,0.044,-0.852,0.394,-48.462,-37.293,-28.748,0,0,0,
,0.022,-0.858,0.396,-33.448,-39.734,-35.401,0,0,0,
,0.004,-0.854,0.394,-21.546,-28.565,-26.307,0,0,0,
,0.011,-0.853,0.417,-0.733,4.638,-18.494,0,0,0,
,0.059,-0.881,0.455,24.963,42.907,-6.409,0,0,0,
,0.101,-0.932,0.47,42.175,40.344,-14.222,0,0,0,
,0.098,-0.946,0.472,27.71,5.432,-15.625,0,0,0,
,0.093,-0.919,0.475,28.259,3.601,-22.034,0,0,0,
,0.097,-0.93,0.456,32.898,0.61,-41.321,0,0,0,
,0.094,-0.922,0.451,26.916,-8.912,-31.983,0,0,0,
,0.079,-0.89,0.444,36.377,-7.508,-28.565,0,0,0,
,0.069,-0.9,0.44,50.964,-2.625,-31.128,0,0,0,
,0.069,-0.903,0.446,67.077,8.85,-26.368,0,0,0,
,0.074,-0.912,0.443,72.753,12.268,-28.321,0,0,0,
,0.074,-0.941,0.447,69.274,13.061,-29.114,0,0,0,
,0.067,-0.964,0.444,38.757,12.39,-23.011,0,0,0,
,0.067,-0.959,0.44,-0.489,26.001,-14.039,0,0,0,
,0.076,-0.928,0.442,-19.898,22.461,-11.78,0,0,0,
,0.069,-0.898,0.448,-3.785,9.155,-18.433,0,0,0,
,0.063,-0.914,0.445,25.268,13.061,-23.194,0,0,0,
,0.066,-0.944,0.46,35.705,27.954,-26.49,0,0,0,
,0.088,-0.957,0.461,23.925,39.794,-27.222,0,0,0,
,0.104,-0.956,0.439,5.004,40.283,-22.95,0,0,0,
,0.112,-0.932,0.44,-10.376,25.451,-16.602,0,0,0,
,0.111,-0.922,0.439,-21.79,10.131,-24.964,0,0,0,
,0.098,-0.908,0.441,-30.091,-8.362,-18.128,0,0,0,
,0.079,-0.883,0.444,-27.71,-8.606,-9.461,0,0,0,
,0.064,-0.887,0.438,-2.137,1.281,-11.78,0,0,0,
,0.058,-0.908,0.432,17.211,13.549,-12.757,0,0,0,
,0.063,-0.926,0.434,22.888,25.207,-13.428,0,0,0,
,0.076,-0.942,0.426,14.404,31.311,-13.001,0,0,0,
,0.082,-0.935,0.435,-1.038,22.949,-7.813,0,0,0,
,0.078,-0.915,0.449,-7.874,19.958,-1.77,0,0,0,
,0.079,-0.927,0.451,-0.489,29.357,-5.005,0,0,0,
,0.08,-0.948,0.452,-11.048,30.761,-4.395,0,0,0,
,0.085,-0.922,0.445,-12.146,31.982,-5.799,0,0,0,
,0.09,-0.916,0.451,5.493,29.785,-17.273,0,0,0,
,0.092,-0.929,0.449,7.751,25.268,-20.447,0,0,0,
,0.096,-0.907,0.452,3.662,22.644,-13.123,0,0,0,
,0.104,-0.902,0.45,11.718,30.151,-17.579,0,0,0,
,0.112,-0.923,0.452,6.958,27.71,-13.977,0,0,0,
,0.115,-0.913,0.465,-1.587,14.16,-11.231,0,0,0,
,0.109,-0.906,0.462,0.244,9.338,-12.574,0,0,0,
,0.106,-0.905,0.458,7.202,1.892,-8.667,0,0,0,
,0.092,-0.89,0.444,23.62,-6.47,-10.987,0,0,0,
,0.08,-0.903,0.438,48.767,-3.846,-20.935,0,0,0,
,0.078,-0.938,0.437,44.616,5.127,-19.593,0,0,0,
,0.079,-0.932,0.436,32.775,6.958,-14.954,0,0,0,
,0.081,-0.912,0.423,33.691,8.606,-15.87,0,0,0,
,0.082,-0.937,0.424,30.822,14.709,-19.41,0,0,0,
,0.087,-0.932,0.425,13.366,21.484,-13.062,0,0,0,
,0.096,-0.919,0.437,6.713,23.62,-9.4,0,0,0,
,0.103,-0.928,0.45,6.286,20.996,-13.855,0,0,0,
,0.107,-0.918,0.445,11.23,18.066,-18.067,0,0,0,
,0.107,-0.911,0.441,21.85,8.606,-20.325,0,0,0,
,0.107,-0.911,0.443,36.132,8.056,-23.56,0,0,0,
,0.106,-0.929,0.446,35.034,7.751,-23.621,0,0,0,
,0.104,-0.919,0.446,37.048,9.033,-17.151,0,0,0,
,0.107,-0.918,0.436,37.963,10.925,-23.255,0,0,0,
,0.104,-0.918,0.423,40.71,2.502,-20.63,0,0,0,
,0.098,-0.902,0.413,47.729,-1.648,-23.377,0,0,0,
,0.086,-0.914,0.42,53.772,-1.77,-20.325,0,0,0,
,0.072,-0.933,0.407,53.1,8.544,-10.56,0,0,0,
,0.065,-0.939,0.397,40.71,26.001,5.127,0,0,0,
,0.071,-0.938,0.405,39.123,42.053,13.488,0,0,0,
,0.075,-0.941,0.411,36.254,49.865,36.926,0,0,0,
,0.086,-0.887,0.421,34.545,65.856,35.522,0,0,0,
,0.098,-0.9,0.42,76.11,76.843,13.61,0,0,0,
,0.09,-0.912,0.446,121.154,58.715,47.912,0,0,0,
,0.096,-0.874,0.459,153.625,100.708,51.147,0,0,0,
,0.131,-0.909,0.446,221.923,110.168,44.738,0,0,0,
,0.145,-0.933,0.399,274.658,84.35,33.813,0,0,0,
,0.13,-0.936,0.386,291.32,54.077,18.676,0,0,0,
,0.168,-0.936,0.458,342.163,60.302,-26.856,0,0,0,
,0.216,-0.917,0.473,484.985,14.16,-64.148,0,0,0,
,0.218,-1.038,0.48,570.739,-48.096,-107.178,0,0,0,
,0.184,-1.099,0.421,595.276,-97.535,-133.545,0,0,0,
,0.15,-1.129,0.315,570.984,-108.826,-189.209,0,0,0,
,0.154,-1.199,0.319,526.611,-123.719,-190.979,0,0,0,
,0.164,-1.208,0.292,441.894,-118.103,-182.801,0,0,0,
,0.169,-1.214,0.225,303.466,-111.329,-204.895,0,0,0,
,0.162,-1.16,0.197,188.293,-136.231,-215.455,0,0,0,
,0.132,-1.105,0.198,134.338,-169.922,-244.996,0,0,0,
,0.074,-1.181,0.143,43.335,-166.687,-293.457,0,0,0,
,0.055,-1.22,0.163,-92.896,-149.353,-307.862,0,0,0,
,0.056,-1.177,0.149,-222.657,-139.954,-322.815,0,0,0,
,0.047,-1.205,0.128,-391.968,-127.869,-385.682,0,0,0,
,0.027,-1.188,0.113,-589.295,-159.546,-416.932,0,0,0,
,0.001,-1.118,0.178,-686.707,-168.641,-411.316,0,0,0,
,-0.015,-1.106,0.084,-851.38,-101.746,-425.66,0,0,0,
,0.004,-1.158,0.022,-1105.225,-63.904,-468.262,0,0,0,
,0.003,-1.141,-0.019,-1399.17,-73.914,-453.614,0,0,0,
,-0.026,-0.975,0.119,-1617.371,-73.548,-419.434,0,0,0,
,-0.002,-0.672,0.097,-2000,127.075,-304.688,0,0,0,
,0.064,-0.668,0.204,-2000,202.087,-236.268,0,0,0,
,0.132,-0.392,0.272,-2000,251.831,-90.394,0,0,0,
,0.116,-0.099,0.265,-1997.986,161.499,70.983,0,0,0,
,0.073,0.147,0.408,-1661.683,20.324,88.745,0,0,0,
,-0.001,0.273,0.565,-1238.221,-16.114,19.897,0,0,0,
,-0.098,0.197,0.538,-853.76,49.56,-60.914,0,0,0,
,-0.185,-0.063,0.531,-451.722,158.63,-53.65,0,0,0,
,-0.217,-0.204,0.549,-312.561,315.857,64.148,0,0,0,
,-0.205,-0.179,0.586,-402.649,472.351,152.465,0,0,0,
,-0.153,-0.186,0.915,-462.586,531.86,197.326,0,0,0,
,-0.046,-0.169,1.046,-440.613,634.948,160.4,0,0,0,
,0.001,-0.193,0.924,-373.902,632.507,140.991,0,0,0,
,-0.037,-0.285,0.945,-4.761,443.237,94.238,0,0,0,
,-0.077,-0.313,1.347,19.836,281.189,97.351,0,0,0,
,-0.137,-0.344,1.578,-113.953,337.829,57.861,0,0,0,
,0.075,-0.101,1.412,-3.785,440.429,221.374,0,0,0,
,0.136,-0.21,1.616,-151.673,28.991,181.884,0,0,0,
,0.024,-0.476,1.591,287.353,-150.025,-6.775,0,0,0,
,-0.114,-0.133,1.387,145.996,-148.621,324.89,0,0,0,
,-0.035,-0.265,1.369,255.432,-188.172,79.223,0,0,0,
,0.061,-0.389,1.282,131.286,-153.382,54.016,0,0,0,
,-0.015,-0.349,1.125,-32.227,-113.343,106.445,0,0,0,
,-0.037,-0.221,1.081,-134.095,-113.587,102.539,0,0,0,
,0.001,-0.1,1.054,-124.695,-65.186,102.417,0,0,0,
,0.058,-0.064,0.979,15.991,-60.486,82.702,0,0,0,
,0.104,-0.266,0.974,141.418,-119.263,9.521,0,0,0,
,0.056,-0.338,1.018,15.441,-55.603,-11.353,0,0,0,
,0.024,-0.341,0.973,-102.356,13.427,-22.034,0,0,0,
,0.12,-0.294,1.002,-83.313,-15.32,-35.767,0,0,0,
,0.088,-0.301,1.021,-119.08,-58.777,-36.927,0,0,0,
,0.082,-0.271,1.05,-76.722,-59.021,-38.025,0,0,0,
,0.064,-0.207,1.074,15.014,-82.642,4.15,0,0,0,
,0.044,-0.199,1.104,129.76,-88.685,-7.569,0,0,0,
,0.051,-0.225,1.085,291.32,-96.558,12.512,0,0,0,
,0.063,-0.234,1.018,413.025,-121.827,16.113,0,0,0,
,0.064,-0.237,1.062,484.069,-177.369,20.385,0,0,0,
,0.032,-0.286,1.04,638.855,-189.27,11.901,0,0,0,
,0.027,-0.298,0.989,810.424,-182.129,37.719,0,0,0,
,0.031,-0.276,0.985,1029.174,-177.735,37.109,0,0,0,
,0.018,-0.279,0.95,1329.406,-177.43,23.376,0,0,0,
,0.008,-0.301,0.824,1513.549,-163.269,-0.245,0,0,0,
,-0.009,-0.344,0.681,1652.404,-155.701,-14.893,0,0,0,
,-0.011,-0.395,0.539,1868.408,-174.805,-42.237,0,0,0,
,0.009,-0.637,0.537,1973.205,-252.808,-113.77,0,0,0,
,0.045,-0.791,0.595,1959.838,-307.679,-67.017,0,0,0,
,-0.035,-0.843,0.537,1686.462,-336.426,-13.062,0,0,0,
,-0.117,-0.817,0.443,1407.714,-263.672,-17.884,0,0,0,
,-0.127,-0.848,0.41,1192.688,-196.412,-52.979,0,0,0,
,-0.119,-0.984,0.329,984.68,-156.311,-68.97,0,0,0,
,-0.104,-1.019,0.299,642.212,-90.882,3.906,0,0,0,
,-0.105,-1.044,0.26,423.767,-63.111,-11.414,0,0,0,
,-0.076,-0.999,0.337,412.048,-98.816,15.502,0,0,0,
,-0.069,-0.909,0.416,392.944,-130.066,54.382,0,0,0,
,-0.081,-0.876,0.445,489.868,-154.114,34.118,0,0,0,
,-0.084,-0.96,0.427,546.203,-129.822,12.268,0,0,0,
,-0.091,-1.059,0.347,474.67,-113.221,-15.809,0,0,0,
,-0.101,-1.103,0.313,347.778,-103.638,-21.302,0,0,0,
,-0.098,-1.06,0.324,262.939,-86.548,-21.729,0,0,0,
,-0.091,-1.023,0.335,247.192,-60.73,-27.527,0,0,0,
,-0.086,-0.979,0.297,264.465,-55.542,-26.551,0,0,0,
,-0.093,-0.957,0.279,285.278,-68.604,-10.498,0,0,0,
,-0.102,-0.972,0.311,332.092,-83.863,-11.658,0,0,0,
,-0.11,-1.016,0.317,313.659,-72.998,-10.376,0,0,0,
,-0.103,-1.073,0.285,245.117,-54.139,-7.569,0,0,0,
,-0.091,-1.101,0.285,164.184,-50.477,-22.034,0,0,0,
,-0.086,-1.055,0.307,113.952,-68.238,-40.833,0,0,0,
,-0.1,-1.018,0.319,147.094,-92.286,-51.819,0,0,0,
,-0.133,-0.987,0.291,202.636,-95.948,-53.589,0,0,0,
,-0.148,-1.014,0.259,230.957,-83.008,-63.416,0,0,0,
,-0.137,-1.098,0.255,217.712,-60.12,-78.37,0,0,0,
,-0.115,-1.16,0.262,142.761,-51.087,-86.731,0,0,0,
,-0.087,-1.162,0.279,61.706,-61.28,-103.455,0,0,0,
,-0.093,-1.08,0.276,16.357,-88.868,-111.512,0,0,0,
,-0.111,-0.997,0.286,67.016,-118.836,-126.099,0,0,0,
,-0.131,-0.97,0.303,107.36,-124.817,-123.475,0,0,0,
,-0.121,-1.04,0.346,95.642,-94.178,-94.178,0,0,0,
,-0.113,-1.134,0.341,-11.597,-94.422,-96.985,0,0,0,
,-0.11,-1.108,0.299,-118.409,-96.619,-101.075,0,0,0,
,-0.108,-1.012,0.266,-107.544,-124.756,-108.643,0,0,0,
,-0.123,-0.945,0.263,-12.818,-194.703,-115.479,0,0,0,
,-0.155,-0.937,0.322,63.232,-221.68,-94.605,0,0,0,
,-0.198,-1.007,0.327,72.631,-198.304,-115.174,0,0,0,
,-0.206,-1.102,0.245,30.7,-148.804,-144.165,0,0,0,
,-0.207,-1.092,0.15,1.281,-115.906,-110.169,0,0,0,
,-0.2,-1.003,0.103,-75.013,-100.831,-64.515,0,0,0,
,-0.198,-0.948,0.079,-74.646,-96.497,-76.355,0,0,0,
,-0.205,-0.925,0.113,-35.828,-109.375,-82.398,0,0,0,
,-0.224,-0.932,0.123,20.813,-119.141,-64.82,0,0,0,
,-0.234,-0.959,0.137,48.889,-98.267,-34.302,0,0,0,
,-0.234,-0.96,0.123,64.758,-44.251,-0.123,0,0,0,
,-0.213,-0.914,0.074,114.746,-2.93,7.751,0,0,0,
,-0.201,-0.946,0.071,159.912,-5.127,-9.766,0,0,0,
,-0.231,-0.977,0.057,146.972,-20.508,-3.54,0,0,0,
,-0.281,-0.909,0.102,156.677,-29.664,35.644,0,0,0,
,-0.336,-0.902,0.095,165.161,11.962,48.217,0,0,0,
,-0.34,-0.866,0.085,216.613,104.004,59.57,0,0,0,
,-0.313,-0.875,-0.004,253.357,166.687,79.345,0,0,0,
,-0.297,-0.955,0.004,283.386,168.518,98.388,0,0,0,
,-0.324,-1.038,0.104,224.731,162.17,135.681,0,0,0,
,-0.372,-1.006,0.142,113.098,213.012,187.683,0,0,0,
,-0.377,-0.94,0.129,105.59,311.462,200.5,0,0,0,
,-0.332,-0.923,0.108,178.894,369.873,201.965,0,0,0,
,-0.273,-1.036,0.075,182.556,387.817,164.306,0,0,0,
,-0.227,-1.194,0.1,85.815,367.065,133.361,0,0,0,
,-0.176,-1.147,0.158,-22.156,323.303,186.889,0,0,0,
,-0.158,-1.047,0.158,-79.407,302.368,181.701,0,0,0,
,-0.12,-1.018,0.158,-42.725,297.607,165.039,0,0,0,
,-0.102,-1.012,0.116,-13.672,278.686,153.32,0,0,0,
,-0.077,-1.009,0.119,-36.377,278.198,158.691,0,0,0,
,-0.035,-0.986,0.13,-39.795,270.019,152.343,0,0,0,
,-0.004,-0.965,0.139,-30.579,240.173,151.428,0,0,0,
,0.01,-0.947,0.161,23.315,213.928,155.334,0,0,0,
,0.023,-0.948,0.113,105.468,207.58,154.785,0,0,0,
,0.115,-1.086,0.389,175.109,204.467,186.401,0,0,0,
,0.217,-0.842,0.102,331.726,198.303,137.207,0,0,0,
,0.12,-1.255,-0.101,245.178,111.267,-28.321,0,0,0,
,-0.004,-1.23,-0.041,32.836,35.095,63.659,0,0,0,
,-0.01,-1.027,0.036,29.357,101.684,101.623,0,0,0,
,0.011,-1.024,0.002,95.092,154.052,75.866,0,0,0,
,0.005,-1.042,-0.032,96.252,166.259,62.377,0,0,0,
,0.018,-1.151,0.043,-18.006,197.082,54.565,0,0,0,
,0.001,-1.037,0.096,-68.665,168.335,92.163,0,0,0,
,-0.011,-0.949,0.097,15.197,194.275,73.364,0,0,0,
,0.007,-1.045,0.075,67.26,222.534,73.059,0,0,0,
,0.053,-1.08,0.061,75.195,231.262,73.669,0,0,0,
,0.085,-1.124,0.071,82.824,219.787,58.898,0,0,0,
,0.099,-1.13,0.09,86.242,189.941,31.433,0,0,0,
,0.032,-1.065,0.087,89.477,169.983,15.502,0,0,0,
,0.078,-1.106,0.122,68.42,199.768,-16.785,0,0,0,
,0.057,-1.041,0.108,50.781,126.22,24.597,0,0,0,
,0.04,-0.891,0.058,66.528,148.071,21.484,0,0,0,
,0.101,-0.912,0.001,159.851,190.002,-13.611,0,0,0,
,0.134,-1.131,-0.042,89.294,162.963,-27.588,0,0,0,
,0.167,-1.061,0.045,-3.785,125,20.69,0,0,0,
,0.195,-1.001,0.019,-37.598,118.286,-25.879,0,0,0,
,0.181,-1.126,-0.017,-90.088,70.19,-44.861,0,0,0,
,0.139,-1.076,0.053,-182.679,31.921,-23.682,0,0,0,
,0.17,-0.972,0.094,-191.773,65.795,-62.195,0,0,0,
,0.231,-1.038,0.145,-172.059,69.824,-85.328,0,0,0,
,0.259,-0.992,0.155,-116.517,33.569,-106.324,0,0,0,
,0.219,-1.055,0.114,-136.536,-36.377,-122.193,0,0,0,
,0.099,-0.842,0.082,-132.019,-143.128,-98.633,0,0,0,
,-0.032,-0.95,0.167,-116.272,-171.326,-90.516,0,0,0,
,-0.067,-0.867,0.195,-101.258,-108.826,-30.457,0,0,0,
,-0.02,-0.937,0.107,-50.415,-28.931,-33.143,0,0,0,
,0.036,-1.001,0.055,-62.867,-38.88,-8.973,0,0,0,
,0.023,-0.961,0.06,-80.689,-73.365,6.225,0,0,0,
,0.011,-1.027,0.105,-81.055,-43.396,-13.367,0,0,0,
,0.051,-1.041,0.083,-53.345,-15.87,-27.405,0,0,0,
,0.067,-1.082,0.085,-57.679,-29.175,-53.284,0,0,0,
,0.031,-1.028,0.062,-75.257,-74.646,-63.172,0,0,0,
,-0.07,-0.962,0.072,-82.947,-120.545,-47.974,0,0,0,
,-0.162,-0.901,0.047,-86.426,-81.849,-21.363,0,0,0,
,-0.134,-0.981,0.124,-62.256,-3.968,13.549,0,0,0,
,-0.029,-0.889,0.056,-76.233,69.091,22.155,0,0,0,
,-0.023,-0.917,0.071,-20.935,7.507,10.742,0,0,0,
,-0.109,-1.015,0.078,-21.912,21.057,76.904,0,0,0,
,-0.059,-0.862,0.068,-79.834,85.205,69.763,0,0,0,
,-0.011,-1.008,0.138,-106.873,75.805,99.914,0,0,0,
,0.043,-0.939,0.208,-133.912,105.468,128.296,0,0,0,
,0.135,-0.955,0.198,-64.698,132.446,121.582,0,0,0,
,0.142,-0.997,0.131,-31.617,73.852,89.965,0,0,0,
,0.054,-1.014,0.149,-48.89,26.611,59.448,0,0,0,
,0.007,-0.9,0.143,-20.264,33.691,50.659,0,0,0,
,0,-0.946,0.127,31.494,50.964,26.428,0,0,0,
,0.011,-0.973,0.144,65.551,43.212,26.184,0,0,0,
,0.039,-0.996,0.169,67.81,62.316,4.638,0,0,0,
,0.092,-1.072,0.183,61.95,65.307,-27.588,0,0,0,
,0.122,-1.066,0.216,57.922,26.306,-36.499,0,0,0,
,0.123,-1.072,0.22,76.599,3.784,-67.505,0,0,0,
,0.122,-1.122,0.205,54.626,-3.235,-82.276,0,0,0,
,0.134,-1.087,0.212,23.742,-10.498,-75.44,0,0,0,
,0.148,-1.054,0.182,29.541,-9.827,-74.158,0,0,0,
,0.138,-1.027,0.14,-37.476,-3.296,-62.989,0,0,0,
,0.13,-0.966,0.121,13.366,-22.889,-74.463,0,0,0,
,0.081,-0.967,0.134,-11.658,-49.378,-27.649,0,0,0,
,0.074,-0.943,0.104,-10.682,30.883,-10.56,0,0,0,
,0.113,-0.96,0.118,-45.838,23.62,-35.218,0,0,0,
,0.073,-0.995,0.162,-62.073,-44.007,-11.17,0,0,0,
,0.024,-0.909,0.186,-14.588,-27.405,-11.658,0,0,0,
,0.07,-0.987,0.172,65.368,29.235,-25.696,0,0,0,
,0.11,-1.101,0.183,58.96,16.357,-22.644,0,0,0,
,0.119,-1.089,0.12,-9.339,-4.517,-15.564,0,0,0,
,0.024,-1.184,0.108,-200.318,-49.744,-18.067,0,0,0,
,0.047,-0.986,0.146,-316.651,-3.052,33.447,0,0,0,
,0.081,-0.731,0.314,-127.747,-40.284,34.484,0,0,0,
,0.096,-0.846,0.267,227.966,-5.982,-52.552,0,0,0,
,0.053,-1.284,0.16,180.359,22.888,-107.3,0,0,0,
,0.077,-1.2,0.161,16.601,7.568,-56.458,0,0,0,
,0.088,-1.079,0.106,-66.407,-30.579,-51.148,0,0,0,
,0.046,-1.04,0.138,-79.407,-84.168,-50.66,0,0,0,
,0.005,-0.978,0.128,-73.548,-56.275,-62.195,0,0,0,
,0.025,-0.973,0.138,-23.072,-18.738,-71.656,0,0,0,
,0.036,-0.951,0.125,31.677,-23.865,-63.66,0,0,0,
,0.025,-0.954,0.117,53.588,-31.006,-72.327,0,0,0,
,-0.002,-1.035,0.106,24.475,-21.363,-80.811,0,0,0,
,-0.003,-1.115,0.13,-80.872,4.699,-59.632,0,0,0,
,0.018,-1.033,0.192,-167.725,7.263,-31.617,0,0,0,
,0.081,-0.953,0.27,-99.122,29.602,-70.923,0,0,0,
,0.06,-0.983,0.216,-1.587,-33.387,-77.698,0,0,0,
,0.031,-1.095,0.223,30.029,-32.349,-115.967,0,0,0,
,0.011,-1.058,0.215,-21.241,-73.792,-73.67,0,0,0,
,-0.009,-1.001,0.168,-44.312,-63.904,-79.773,0,0,0,
,-0.007,-1.051,0.16,-71.961,-43.152,-79.834,0,0,0,
,0.002,-1.055,0.172,-101.685,-25.391,-79.224,0,0,0,
,0.022,-1.083,0.162,-104.31,-16.602,-98.145,0,0,0,
,0.073,-1.172,0.211,-144.349,-39.002,-136.353,0,0,0,
,0.034,-1.119,0.177,-209.046,-96.192,-119.263,0,0,0,
,0.006,-1.107,0.166,-307.435,-70.923,-175.415,0,0,0,
,0.009,-1.189,0.163,-432.496,-72.754,-222.779,0,0,0,
,0.012,-1.135,0.2,-522.217,-73.06,-173.34,0,0,0,
,0.004,-1.03,0.189,-596.985,-39.246,-168.519,0,0,0,
,0.039,-1.038,0.208,-655.762,-2.32,-192.933,0,0,0,
,0.061,-0.961,0.229,-669.373,-4.273,-180.115,0,0,0,
,0.039,-0.881,0.322,-711.426,-68.238,-176.087,0,0,0,
,-0.035,-0.779,0.328,-689.698,-100.953,-173.89,0,0,0,
,-0.119,-0.762,0.328,-702.698,-116.028,-186.89,0,0,0,
,-0.172,-0.876,0.456,-720.154,-110.596,-131.287,0,0,0,
,-0.18,-0.662,0.39,-753.052,-6.653,48.156,0,0,0,
,-0.155,-0.592,0.455,-702.21,50.72,70.007,0,0,0,
,-0.078,-0.575,0.473,-437.989,80.139,84.716,0,0,0,
,-0.014,-0.631,0.591,-153.382,36.438,99.06,0,0,0,
,-0.016,-0.724,0.653,17.7,-28.504,54.687,0,0,0,
,-0.042,-0.841,0.726,66.711,-71.289,-9.461,0,0,0,
,-0.079,-1.018,0.686,-20.874,-57.496,-65.918,0,0,0,
,-0.068,-1.171,0.718,-63.233,-102.295,-18.799,0,0,0,
,-0.121,-1.038,0.663,-132.508,-78.248,65.734,0,0,0,
,-0.144,-0.928,0.66,-118.287,-35.706,-7.142,0,0,0,
,-0.166,-0.955,0.639,-47.852,-9.644,-50.721,0,0,0,
,-0.172,-0.942,0.606,30.578,33.813,-49.988,0,0,0,
,-0.154,-0.976,0.602,29.235,72.021,-71.839,0,0,0,
,-0.123,-0.965,0.595,12.939,79.895,-37.415,0,0,0,
,-0.105,-0.919,0.56,-75.318,93.872,-32.471,0,0,0,
,-0.079,-0.837,0.514,-86.792,93.444,-26.368,0,0,0,
,-0.064,-0.753,0.502,-59.327,80.017,-5.555,0,0,0,
,-0.07,-0.841,0.505,-69.214,55.419,-19.898,0,0,0,
,-0.066,-0.902,0.516,-135.254,65.307,10.009,0,0,0,
,-0.039,-0.959,0.594,-307.923,94.299,32.226,0,0,0,
,0.005,-0.945,0.624,-415.467,127.868,46.081,0,0,0,
,0.016,-0.807,0.606,-436.402,122.375,54.992,0,0,0,
,-0.004,-0.698,0.622,-272.583,86.914,44.433,0,0,0,
,-0.041,-0.688,0.65,-85.267,49.865,25.573,0,0,0,
,-0.082,-0.778,0.677,7.324,37.719,-0.184,0,0,0,
,-0.091,-0.834,0.713,18.432,67.993,20.019,0,0,0,
,-0.092,-0.815,0.757,30.944,91.308,60.73,0,0,0,
,-0.095,-0.721,0.739,66.955,129.028,92.407,0,0,0,
,-0.101,-0.727,0.71,159.301,147.4,97.961,0,0,0,
,-0.14,-0.756,0.572,239.563,175.842,75.256,0,0,0,
,-0.152,-0.781,0.53,299.987,196.838,94.36,0,0,0,
,-0.131,-0.814,0.579,289.611,228.576,144.348,0,0,0,
,-0.1,-0.845,0.603,244.018,265.625,176.757,0,0,0,
,-0.102,-0.879,0.585,246.215,311.035,198.608,0,0,0,
,-0.088,-0.839,0.565,238.22,404.419,226.135,0,0,0,
,-0.007,-0.715,0.521,326.049,486.755,241.577,0,0,0,
,0.1,-0.71,0.408,459.838,504.577,240.905,0,0,0,
,0.212,-0.883,0.418,484.375,464.721,247.558,0,0,0,
,0.265,-0.981,0.514,291.748,313.232,291.748,0,0,0,
,0.208,-0.766,0.452,176.941,253.967,345.337,0,0,0,
,0.216,-0.617,0.399,276.916,315.246,326.843,0,0,0,
,0.336,-0.66,0.187,477.356,441.528,254.699,0,0,0,
,0.443,-0.977,0.111,543.823,373.352,208.313,0,0,0,
,0.418,-1.141,0.132,385.254,235.717,199.463,0,0,0,
,0.389,-1.074,0.187,188.354,165.283,206.665,0,0,0,
,0.379,-0.981,0.213,70.922,81.298,188.415,0,0,0,
,0.399,-0.883,0.328,21.972,50.781,90.271,0,0,0,
,0.395,-0.741,0.333,72.876,-9.156,61.279,0,0,0,
,0.393,-0.723,0.384,219.238,-43.885,-29.847,0,0,0,
,0.349,-1.006,0.425,273.193,-83.191,-99.854,0,0,0,
,0.259,-1.053,0.407,154.297,-96.07,-49.195,0,0,0,
,0.25,-0.894,0.369,90.148,-73.06,-58.655,0,0,0,
,0.229,-0.857,0.369,173.523,-125.123,-94.849,0,0,0,
,0.165,-0.91,0.377,246.46,-152.039,-115.418,0,0,0,
,0.132,-0.964,0.355,261.291,-94.666,-110.291,0,0,0,
,0.177,-0.995,0.358,240.295,-36.194,-98.877,0,0,0,
,0.207,-0.981,0.343,212.158,-31.922,-89.417,0,0,0,
,0.191,-1.018,0.336,182.434,-37.293,-81.971,0,0,0,
,0.193,-0.989,0.317,160.4,-4.7,-73.243,0,0,0,
,0.223,-0.963,0.269,169.311,4.821,-73.365,0,0,0,
,0.228,-1.017,0.274,155.09,-29.053,-63.599,0,0,0,
,0.226,-1,0.293,114.257,-38.758,-54.078,0,0,0,
,0.247,-0.962,0.313,126.587,-21.363,-88.44,0,0,0,
,0.355,-0.929,0.326,160.888,-3.174,-144.593,0,0,0,
,0.289,-1.04,0.272,204.04,-116.578,-216.065,0,0,0,
,0.286,-1.188,0.291,196.472,-82.276,-237.671,0,0,0,
,0.294,-1.203,0.293,151.916,-130.799,-240.784,0,0,0,
,0.265,-1.238,0.309,110.412,-144.288,-297.669,0,0,0,
,0.225,-1.263,0.186,-2.625,-114.38,-337.037,0,0,0,
,0.224,-1.312,0.094,-215.516,-80.933,-420.289,0,0,0,
,0.254,-1.176,0.137,-342.835,-119.69,-437.195,0,0,0,
,0.189,-1.056,0.172,-346.314,-183.045,-481.263,0,0,0,
,0.106,-1.072,0.219,-314.942,-146.912,-511.536,0,0,0,
,0.081,-1.071,0.288,-378.846,-94.239,-454.834,0,0,0,
,0.074,-1.057,0.164,-567.749,-30.518,-458.558,0,0,0,
,0.114,-1.094,0.183,-786.194,-18.982,-512.269,0,0,0,
,0.144,-0.903,0.256,-977.845,-96.741,-429.017,0,0,0,
,0.034,-0.725,0.18,-1043.457,-184.327,-412.72,0,0,0,
,-0.085,-0.865,0.242,-1132.325,-149.109,-554.932,0,0,0,
,-0.1,-0.877,0.347,-1148.926,-45.472,-502.381,0,0,0,
,-0.091,-0.734,0.403,-1250.916,19.653,-345.032,0,0,0,
,-0.098,-0.679,0.482,-1309.388,-15.87,-303.345,0,0,0,
,-0.066,-0.616,0.733,-1356.202,-42.786,-265.686,0,0,0,
,-0.047,-0.457,0.793,-1462.281,-83.13,-191.04,0,0,0,
,-0.087,-0.429,0.718,-1530.396,-184.937,-172.059,0,0,0,
,-0.091,-0.355,0.763,-1626.832,-190.674,-111.023,0,0,0,
,-0.093,-0.128,0.729,-1567.383,-126.099,-10.132,0,0,0,
,-0.092,0.033,0.672,-1122.62,-115.662,57.006,0,0,0,
,-0.119,-0.208,0.627,-678.284,-110.779,40.161,0,0,0,
,-0.156,-0.448,0.626,-612.915,-28.321,-16.602,0,0,0,
,-0.192,-0.447,0.58,-627.015,96.923,18.066,0,0,0,
,-0.189,-0.324,0.48,-682.74,203.979,93.505,0,0,0,
,-0.16,-0.27,0.435,-704.895,318.359,127.746,0,0,0,
,-0.123,-0.306,0.468,-877.503,437.255,223.877,0,0,0,
,-0.09,-0.277,0.584,-1050.049,508.239,285.522,0,0,0,
,-0.078,-0.176,0.619,-1177.979,618.53,281.433,0,0,0,
,-0.083,-0.105,0.735,-952.027,679.26,287.353,0,0,0,
,-0.02,-0.039,0.885,-523.377,772.949,230.713,0,0,0,
,0.067,-0.001,0.931,-270.325,767.212,197.754,0,0,0,
,0.178,-0.286,1.228,-94.239,577.942,45.349,0,0,0,
,0.206,-0.383,1.315,3.418,415.466,28.991,0,0,0,
,0.189,0.344,1.17,-108.094,541.381,408.63,0,0,0,
,0.338,-0.377,2.077,54.87,-53.406,-215.943,0,0,0,
,0.241,-0.498,2,213.623,-217.53,107.483,0,0,0,
,-0.075,-0.109,1.519,19.165,-39.063,307.922,0,0,0,
,0.08,-0.113,1.473,58.044,-236.878,117.126,0,0,0,
,0.03,-0.302,1.154,-40.833,-191.224,18.737,0,0,0,
,0.047,-0.097,1.046,-29.786,-178.894,105.529,0,0,0,
,0.01,0.088,1.052,18.432,-190.552,82.946,0,0,0,
,0.025,-0.026,1.005,93.627,-165.528,42.968,0,0,0,
,0.09,-0.123,0.979,82.153,-147.4,79.284,0,0,0,
,0.095,-0.153,0.991,69.702,-137.635,87.585,0,0,0,
,0.106,-0.202,0.981,61.645,-148.438,69.702,0,0,0,
,0.099,-0.209,1.005,6.774,-124.878,21.728,0,0,0,
,0.087,-0.165,1.031,29.968,-113.099,12.817,0,0,0,
,0.112,-0.119,1.106,111.572,-127.686,24.353,0,0,0,
,0.114,-0.056,1.141,343.628,-111.451,32.898,0,0,0,
,0.11,0.006,1.138,781.982,-120.85,70.312,0,0,0,
,0.093,-0.105,1.087,1251.159,-135.498,49.865,0,0,0,
,0.071,-0.324,1.037,1999.694,-160.218,-115.296,0,0,0,
,0.036,-0.466,0.917,1999.694,-173.645,-167.115,0,0,0,
,-0.015,-0.671,0.647,1853.149,-224.793,-219.788,0,0,0,
,-0.026,-0.897,0.526,1696.716,-346.985,-244.202,0,0,0,
,-0.062,-0.908,0.658,1624.389,-495.545,-133.728,0,0,0,
,-0.108,-0.81,0.803,1378.173,-520.569,13.122,0,0,0,
,-0.256,-0.726,0.62,996.704,-352.662,-51.148,0,0,0,
,-0.267,-0.769,0.55,855.163,-145.081,-149.842,0,0,0,
,-0.126,-0.71,0.566,925.781,-79.529,-83.374,0,0,0,
,-0.099,-0.611,0.439,966.125,-122.803,-34.241,0,0,0,
,-0.089,-0.576,0.279,959.289,-166.565,-57.557,0,0,0,
,-0.052,-0.828,0.374,920.837,-178.833,-58.899,0,0,0,
,-0.056,-1.096,0.429,757.202,-198.06,-60.364,0,0,0,
,-0.076,-1.073,0.372,576.11,-125.184,33.142,0,0,0,
,-0.09,-1.047,0.362,429.138,-68.604,107.971,0,0,0,
,-0.092,-0.944,0.372,509.887,-109.131,159.668,0,0,0,
,-0.126,-0.814,0.353,600.158,-133.545,143.249,0,0,0,
,-0.151,-0.849,0.335,684.753,-126.221,74.279,0,0,0,
,-0.17,-1.066,0.289,628.112,-98.023,-34.729,0,0,0,
,-0.188,-1.17,0.315,551.635,-120.301,-4.151,0,0,0,
,-0.218,-1.012,0.322,422.424,-108.399,101.257,0,0,0,
,-0.237,-0.891,0.243,325.5,-22.95,96.374,0,0,0,
,-0.193,-0.914,0.171,254.333,61.096,78.674,0,0,0,
,-0.118,-1.004,0.164,180.664,97.29,93.627,0,0,0,
,-0.065,-0.999,0.131,155.7,81.481,135.864,0,0,0,
,-0.036,-0.884,0.152,145.08,76.049,114.502,0,0,0,
,-0.045,-0.861,0.109,312.072,57.128,31.433,0,0,0,
,-0.023,-1.02,0.204,472.717,86.425,55.908,0,0,0,
,-0.036,-1.101,0.081,393.371,119.262,0.793,0,0,0,
,0.032,-1.117,0.024,354.553,158.996,45.471,0,0,0,
,0.063,-1.107,-0.031,259.155,106.811,39.917,0,0,0,
,0.052,-1.058,0.048,202.636,47.058,54.321,0,0,0,
,0.002,-1.114,0.073,78.613,36.56,-2.625,0,0,0,
,-0.003,-1.07,0.128,76.11,46.447,-10.682,0,0,0,
,0.011,-1.034,0.11,59.936,54.748,-34.058,0,0,0,
,0.024,-1.047,0.005,50.415,49.072,-51.697,0,0,0,
,0.025,-1.068,0.009,5.554,25.024,-43.335,0,0,0,
,0.018,-0.998,0.082,-14.771,-4.761,-42.969,0,0,0,
,-0.018,-0.998,0.083,-43.885,-0.55,-80.323,0,0,0,
,-0.03,-0.993,0.115,-33.936,3.54,-84.534,0,0,0,
,-0.025,-0.936,0.13,2.441,4.516,-71.412,0,0,0,
,-0.012,-0.956,0.119,73.974,9.46,-96.192,0,0,0,
,-0.005,-0.999,0.088,104.492,12.268,-126.343,0,0,0,
,0.001,-1.049,0.106,118.042,9.216,-164.124,0,0,0,
,-0.015,-1.091,0.134,80.139,-17.762,-177.857,0,0,0,
,-0.039,-1.067,0.13,59.265,-16.663,-182.801,0,0,0,
,-0.045,-1.045,0.136,103.515,-16.236,-190.064,0,0,0,
,-0.033,-1.081,0.118,185.485,-25.208,-205.567,0,0,0,
,-0.02,-1.12,0.128,190.796,-39.856,-216.553,0,0,0,
,-0.029,-1.157,0.116,162.109,-73.548,-236.084,0,0,0,
,-0.057,-1.178,0.098,81.054,-90.21,-243.042,0,0,0,
,-0.078,-1.14,0.098,-5.31,-91.492,-246.216,0,0,0,
,-0.1,-1.044,0.069,-22.034,-90.271,-245.789,0,0,0,
,-0.131,-1.011,0.064,17.028,-84.717,-265.259,0,0,0,
,-0.123,-1.051,0.08,74.829,-61.585,-232.972,0,0,0,
,-0.133,-1.094,0.08,70.983,-92.286,-232.789,0,0,0,
,-0.156,-1.075,0.125,12.39,-103.455,-197.876,0,0,0,
,-0.176,-1.037,0.099,-51.575,-85.389,-201.966,0,0,0,
,-0.146,-1.012,0.107,-59.754,-75.135,-173.279,0,0,0,
,-0.127,-0.976,0.106,-67.139,-98.999,-176.758,0,0,0,
,-0.163,-0.981,0.077,-63.66,-127.137,-159.852,0,0,0,
,-0.204,-1.011,0.119,-85.022,-124.512,-124.329,0,0,0,
,-0.202,-0.987,0.152,-83.497,-90.638,-96.68,0,0,0,
,-0.168,-0.942,0.144,-42.847,-74.463,-77.271,0,0,0,
,-0.161,-0.907,0.068,-3.785,-87.708,-72.266,0,0,0,
,-0.183,-0.956,0.026,4.516,-105.347,-71.9,0,0,0,
,-0.224,-0.978,0.015,-41.443,-108.887,-24.048,0,0,0,
,-0.252,-0.944,-0.019,-68.604,-85.938,26.001,0,0,0,
,-0.278,-0.894,0.009,-63.05,-79.102,87.158,0,0,0,
,-0.317,-0.827,0.028,-29.419,-58.167,114.441,0,0,0,
,-0.348,-0.84,0.008,77.026,1.159,127.685,0,0,0,
,-0.365,-0.922,-0.014,156.128,43.701,152.771,0,0,0,
,-0.381,-0.977,-0.04,150.329,62.805,210.022,0,0,0,
,-0.402,-0.987,-0.068,85.449,106.201,258.667,0,0,0,
,-0.398,-0.943,-0.096,3.54,171.875,267.639,0,0,0,
,-0.224,-1,0.015,-123.719,303.527,265.075,0,0,0,
,-0.196,-0.988,0.058,-85.755,297.119,251.098,0,0,0,
,-0.174,-1.019,0.09,-33.02,296.447,230.468,0,0,0,
,-0.136,-1.074,0.129,-27.1,301.33,195.739,0,0,0,
,-0.089,-1.146,0.14,-78.675,293.029,162.109,0,0,0,
,-0.039,-1.155,0.186,-139.344,260.681,159.607,0,0,0,
,-0.007,-1.087,0.216,-164.978,224.792,149.475,0,0,0,
,0.011,-1.06,0.191,-136.231,199.951,127.685,0,0,0,
,0.021,-1.074,0.205,-94.605,161.743,127.441,0,0,0,
,0.032,-1.044,0.187,-61.28,150.573,116.516,0,0,0,
,0.05,-1.12,0.182,-67.017,149.414,92.407,0,0,0,
,0.07,-1.103,0.177,-87.464,129.028,106.445,0,0,0,
,0.066,-1.014,0.168,-93.811,108.093,103.332,0,0,0,
,0.048,-1.012,0.181,-67.933,101.379,90.515,0,0,0,
,0.039,-0.973,0.167,-32.349,99.243,101.745,0,0,0,
,0.029,-0.992,0.154,-10.621,99.304,101.623,0,0,0,
,0.024,-1.006,0.157,-37.598,107.544,119.079,0,0,0,
,0.052,-0.982,0.142,-49.378,118.957,115.234,0,0,0,
,0.066,-0.998,0.131,-44.007,105.224,102.356,0,0,0,
,0.064,-0.954,0.099,-21.18,88.378,107.483,0,0,0,
,0.063,-1.004,0.067,-14.527,113.769,80.627,0,0,0,
,0.073,-1.078,0.097,-69.153,108.276,89.172,0,0,0,
,0.073,-1.014,0.161,-126.343,78.979,71.472,0,0,0,
,0.074,-1.006,0.189,-120.606,86.12,74.523,0,0,0,
,0.085,-0.966,0.189,-95.032,82.214,66.711,0,0,0,
,0.097,-1.015,0.193,-72.693,76.721,59.753,0,0,0,
,0.095,-1.02,0.187,-89.295,65.734,61.95,0,0,0,
,0.081,-1.009,0.199,-99.549,62.683,53.039,0,0,0,
,0.075,-0.997,0.203,-83.191,62.988,42.846,0,0,0,
,0.068,-0.967,0.182,-53.711,73.547,38.94,0,0,0,
,0.072,-1.003,0.178,-44.983,70.495,30.578,0,0,0,
,0.076,-0.991,0.187,-82.886,50.964,60.974,0,0,0,
,0.087,-0.92,0.198,-41.565,51.635,60.791,0,0,0,
,0.088,-0.993,0.176,-40.406,62.072,46.203,0,0,0,
,0.12,-0.894,0.206,12.207,48.523,35.766,0,0,0,
,0.103,-1.08,0.231,87.646,41.748,-23.682,0,0,0,
,0.076,-1.037,0.172,-36.072,27.832,29.357,0,0,0,
,0.089,-0.97,0.194,-8.423,26.489,-18.86,0,0,0,
,0.072,-1.144,0.206,-7.752,25.695,-10.987,0,0,0,
,0.083,-1.002,0.197,-25.879,34.118,19.287,0,0,0,
,0.093,-1.052,0.191,14.648,29.052,-57.007,0,0,0,
,0.086,-1.145,0.205,-71.106,14.587,-3.907,0,0,0,
,0.062,-0.871,0.154,-81.055,22.399,8.3,0,0,0,
,0.075,-1.004,0.197,-74.341,47.729,-36.805,0,0,0,
,0.073,-1.047,0.188,-119.202,36.743,-7.813,0,0,0,
,0.062,-0.996,0.217,-138.55,26.977,-6.592,0,0,0,
,0.064,-1.03,0.196,-143.738,47.241,-26.368,0,0,0,
,0.072,-0.98,0.219,-107.3,32.226,-16.541,0,0,0,
,0.086,-1.037,0.227,-94.483,57.067,-37.415,0,0,0,
,0.121,-1.049,0.238,-132.874,47.851,-0.55,0,0,0,
,0.136,-0.962,0.283,-148.743,36.499,-22.95,0,0,0,
,0.139,-0.948,0.294,-125.245,14.953,-27.955,0,0,0,
,0.109,-0.973,0.31,-89.6,-14.344,-29.786,0,0,0,
,0.09,-0.934,0.281,-73.426,3.051,-11.048,0,0,0,
,0.119,-0.955,0.319,-83.313,27.282,-13.977,0,0,0,
,0.134,-0.998,0.32,-72.205,17.639,-26.307,0,0,0,
,0.116,-1.02,0.296,-44.068,-1.954,-57.312,0,0,0,
,0.089,-1.083,0.254,-41.748,-15.503,-76.661,0,0,0,
,0.067,-1.105,0.239,-100.281,-8.545,-91.614,0,0,0,
,0.056,-1.101,0.252,-229.798,0.915,-83.741,0,0,0,
,0.041,-1.025,0.224,-347.107,-4.639,-45.777,0,0,0,
,0.066,-0.896,0.289,-300.415,28.808,-86.609,0,0,0,
,0.005,-0.964,0.28,-262.085,-19.41,-91.858,0,0,0,
,-0.013,-0.897,0.357,-199.402,42.236,-47.608,0,0,0,
,0.037,-0.881,0.314,-143.555,113.159,-54.566,0,0,0,
,0.118,-0.983,0.327,-114.441,111.999,-41.748,0,0,0,
,0.108,-1.064,0.326,-230.164,35.888,-32.41,0,0,0,
,0.071,-1.063,0.327,-375.672,8.789,-5.433,0,0,0,
,0.001,-0.994,0.244,-484.62,-2.564,-23.072,0,0,0,
,0.03,-1.046,0.434,-468.201,72.937,-83.619,0,0,0,
,0.072,-0.958,0.463,-558.655,50.842,6.591,0,0,0,
,0.064,-0.781,0.497,-480.835,50.903,19.531,0,0,0,
,0.079,-0.823,0.51,-380.494,68.176,-18.616,0,0,0,
,0.084,-0.875,0.517,-308.716,57.495,-30.945,0,0,0,
,0.072,-0.804,0.472,-272.95,57.495,20.629,0,0,0,
,0.077,-0.782,0.48,-241.394,61.218,61.462,0,0,0,
,0.109,-0.717,0.489,-147.278,71.655,45.898,0,0,0,
,0.134,-0.716,0.492,14.709,52.612,45.227,0,0,0,
,0.13,-0.873,0.508,84.961,38.879,10.192,0,0,0,
,0.128,-1.001,0.518,27.221,56.335,7.568,0,0,0,
,0.139,-0.983,0.493,-46.692,54.809,27.221,0,0,0,
,0.148,-0.901,0.455,-68.116,38.33,12.39,0,0,0,
,0.091,-0.822,0.425,49.926,-24.476,-64.637,0,0,0,
,0.065,-1.028,0.443,66.528,9.033,-28.443,0,0,0,
,0.079,-0.953,0.454,-136.109,5.676,6.286,0,0,0,
,0.097,-0.787,0.465,-165.528,4.882,31.189,0,0,0,
,0.121,-0.765,0.51,-40.711,15.441,-20.142,0,0,0,
,0.127,-0.865,0.498,49.072,4.272,-56.275,0,0,0,
,0.106,-0.937,0.513,33.752,-9.156,-51.209,0,0,0,
,0.091,-0.932,0.505,-59.815,10.986,-37.476,0,0,0,
,0.125,-0.866,0.518,-73.975,25.512,-11.536,0,0,0,
,0.142,-0.844,0.518,-23.316,5.554,-28.443,0,0,0,
,0.109,-0.87,0.502,28.747,-16.114,-60.059,0,0,0,
,0.069,-0.881,0.494,52.551,-8.362,-53.162,0,0,0,
,0.059,-0.907,0.502,32.47,19.104,-61.89,0,0,0,
,0.062,-0.908,0.484,-23.377,16.174,-48.584,0,0,0,
,0.076,-0.872,0.519,-23.621,20.08,-3.724,0,0,0,
,0.067,-0.788,0.518,42.297,27.832,-10.132,0,0,0,
,0.075,-0.863,0.503,104.614,55.053,-54.139,0,0,0,
,0.083,-0.958,0.515,85.022,40.039,-29.053,0,0,0,
,0.072,-0.928,0.542,35.705,32.531,-5.249,0,0,0,
,0.081,-0.895,0.5,20.324,61.584,15.319,0,0,0,
,0.112,-0.902,0.504,12.39,67.382,-12.696,0,0,0,
,0.11,-0.913,0.509,2.319,36.132,-5.188,0,0,0,
,0.07,-0.912,0.526,-17.579,25.695,-3.785,0,0,0,
,0.054,-0.886,0.507,-32.532,69.763,0.305,0,0,0,
,0.071,-0.9,0.511,-27.527,100.525,14.526,0,0,0,
,0.089,-0.868,0.507,21.667,102.05,26.001,0,0,0,
,0.094,-0.867,0.536,101.196,90.454,14.16,0,0,0,
,0.076,-0.908,0.598,139.343,119.323,1.037,0,0,0,
,0.054,-0.849,0.682,182.251,148.498,43.762,0,0,0,
,0.063,-0.528,0.646,305.725,207.702,75.683,0,0,0,
,0.065,-0.408,0.504,778.686,220.825,25.878,0,0,0,
,0.045,-0.765,0.42,1110.046,227.234,62.439,0,0,0,
,0.082,-1.142,0.382,964.721,253.173,119.812,0,0,0,
,0.08,-1.116,0.327,690.857,204.406,272.461,0,0,0,
,0.094,-0.938,0.209,486.938,248.84,347.534,0,0,0,
,0.193,-0.892,0.125,452.697,282.165,369.812,0,0,0,
,0.263,-1.059,0.088,404.968,262.695,329.04,0,0,0,
,0.261,-1.064,0.099,332.214,191.65,330.383,0,0,0,
,0.254,-1.06,0.078,276.062,210.266,291.198,0,0,0,
,0.291,-1.083,0.107,217.346,223.51,297.668,0,0,0,
,0.306,-1.104,0.116,115.356,228.637,312.194,0,0,0,
,0.362,-1.017,0.124,21.667,258.789,265.686,0,0,0,
,0.419,-0.962,0.097,19.531,251.342,188.232,0,0,0,
,0.441,-0.966,0.127,29.724,163.94,111.206,0,0,0,
,0.388,-0.908,0.107,52.002,67.871,29.419,0,0,0,
,0.345,-0.801,0.114,105.774,44.738,-30.884,0,0,0,
,0.433,-0.776,0.221,227.172,53.466,-105.469,0,0,0,
,0.479,-1,0.296,251.709,-37.171,-168.58,0,0,0,
,0.397,-0.98,0.321,135.803,-134.339,-158.448,0,0,0,
,0.354,-0.798,0.232,123.23,-73.304,-202.149,0,0,0,
,0.38,-0.756,0.172,278.442,-110.352,-256.47,0,0,0,
,0.295,-0.903,0.185,368.957,-190.857,-279.053,0,0,0,
,0.222,-1,0.191,372.985,-159.302,-274.17,0,0,0,
,0.248,-1.027,0.156,320.251,-90.027,-240.54,0,0,0,
,0.295,-0.985,0.099,299.255,-83.924,-243.775,0,0,0,
,0.286,-1.005,0.031,312.805,-138.367,-291.993,0,0,0,
,0.244,-1.046,0.039,335.083,-170.777,-325.501,0,0,0,
,0.194,-1.122,0.066,369.506,-176.697,-330.933,0,0,0,
,0.16,-1.196,0.072,331.97,-137.207,-335.694,0,0,0,
,0.16,-1.279,0.085,257.446,-101.685,-351.319,0,0,0,
,0.154,-1.33,0.088,185.058,-102.234,-365.113,0,0,0,
,0.133,-1.27,0.081,158.996,-96.68,-396.607,0,0,0,
,0.102,-1.318,0.057,146.423,-128.296,-427.124,0,0,0,
,0.056,-1.34,0.075,33.691,-154.297,-432.923,0,0,0,
,0.048,-1.271,0.037,-90.149,-142.395,-425.415,0,0,0,
,0.013,-1.182,-0.058,-279.664,-97.718,-484.742,0,0,0,
,0.02,-1.295,-0.125,-522.889,-50.171,-505.188,0,0,0,
,0.046,-1.228,-0.071,-789.734,-40.894,-487.427,0,0,0,
,0.055,-1.103,0.004,-971.375,-90.882,-452.942,0,0,0,
,0.008,-1.052,0.048,-1137.879,-122.315,-438.294,0,0,0,
,-0.015,-0.992,0.122,-1282.166,-119.873,-411.805,0,0,0,
,0.003,-0.889,0.136,-1480.835,-77.576,-351.502,0,0,0,
,0.018,-0.829,0.11,-1629.273,-86.304,-299.866,0,0,0,
,0.021,-0.701,0.162,-1749.39,-130.188,-220.215,0,0,0,
,0.01,-0.521,0.205,-1765.137,-147.828,-162.659,0,0,0,
,-0.03,-0.408,0.231,-1723.755,-160.706,-113.343,0,0,0,
,-0.058,-0.37,0.331,-1657.532,-121.277,-83.558,0,0,0,
,-0.069,-0.36,0.385,-1611.695,-14.405,-20.264,0,0,0,
,-0.05,-0.351,0.403,-1517.823,87.341,27.038,0,0,0,
,0,-0.281,0.493,-1493.47,130.737,113.403,0,0,0,
,0.024,-0.113,0.542,-1337.037,119.018,172.973,0,0,0,
,0.003,-0.011,0.499,-1028.931,101.196,187.622,0,0,0,
,-0.032,0.014,0.509,-627.991,160.034,234.802,0,0,0,
,-0.067,-0.227,0.417,-405.762,338.623,244.201,0,0,0,
,-0.073,-0.443,0.463,-269.471,499.206,245.361,0,0,0,
,-0.025,-0.511,0.727,-305.359,611.511,238.098,0,0,0,
,0.017,-0.537,0.632,-202.454,685.547,194.397,0,0,0,
,0.035,-0.379,0.634,62.988,597.229,262.085,0,0,0,
,0.048,-0.476,0.898,194.397,427.917,300.293,0,0,0,
,0.002,-0.625,1.151,322.876,375.732,273.681,0,0,0,
,0.008,-0.615,1.182,234.985,430.053,324.707,0,0,0,
,0.051,-0.741,1.376,5.127,357.788,147.277,0,0,0,
,0.209,-0.886,1.552,-19.837,217.407,0.183,0,0,0,
,0.265,-1.005,1.648,144.836,-44.861,-38.88,0,0,0,
,0.072,-0.81,1.306,109.924,-178.65,68.603,0,0,0,
,-0.052,-0.689,1.373,-33.57,-283.753,-26.673,0,0,0,
,-0.105,-0.638,1.24,-120.972,-212.403,-58.838,0,0,0,
,-0.02,-0.493,1.197,-142.64,-112.549,-20.813,0,0,0,
,0.054,-0.433,1.113,-101.014,-88.685,-48.523,0,0,0,
,0.073,-0.423,1.009,16.662,-104.187,-59.876,0,0,0,
,0.073,-0.381,0.899,60.424,-127.137,-53.101,0,0,0,
,0.088,-0.5,0.873,34.606,-147.828,-142.518,0,0,0,
,0.113,-0.651,0.902,-40.467,-159.18,-158.326,0,0,0,
,0.091,-0.603,0.894,-161.927,-135.926,-80.079,0,0,0,
,0.089,-0.477,0.944,-117.554,-116.944,-53.589,0,0,0,
,0.095,-0.371,0.953,79.589,-112.366,-45.716,0,0,0,
,0.118,-0.335,0.974,389.16,-142.151,-20.691,0,0,0,
,0.132,-0.384,0.947,666.015,-193.36,-26.795,0,0,0,
,0.127,-0.5,0.946,813.72,-239.624,-40.039,0,0,0,
,0.097,-0.581,0.915,829.773,-252.198,-54.932,0,0,0,
,0.071,-0.715,0.912,803.711,-240.723,-70.801,0,0,0,
,0.079,-0.786,0.903,829.345,-207.947,-74.524,0,0,0,
,0.084,-0.7,0.822,913.879,-202.881,-57.496,0,0,0,
,0.066,-0.644,0.784,997.985,-262.207,-127.076,0,0,0,
,0.033,-0.659,0.668,1085.815,-286.499,-154.602,0,0,0,
,0.023,-0.836,0.724,1023.254,-331.421,-135.743,0,0,0,
,-0.024,-0.87,0.687,1024.902,-336.182,-150.94,0,0,0,
,-0.076,-0.814,0.702,936.401,-307.19,-104.859,0,0,0,
,-0.113,-0.736,0.562,866.882,-242.676,-90.638,0,0,0,
,-0.112,-0.72,0.514,942.993,-205.384,-98.511,0,0,0,
,-0.077,-0.649,0.471,1084.533,-212.647,-47.791,0,0,0,
,-0.077,-0.671,0.387,1055.297,-236.573,1.831,0,0,0,
,-0.114,-0.872,0.332,908.203,-239.502,-31.006,0,0,0,
,-0.131,-0.966,0.402,698.425,-210.999,-37.476,0,0,0,
,-0.121,-0.854,0.319,478.21,-181.763,56.579,0,0,0,
,-0.098,-0.704,0.306,486.45,-212.647,100.097,0,0,0,
,-0.077,-0.709,0.251,518.676,-212.525,68.847,0,0,0,
,-0.075,-0.897,0.223,555.42,-201.844,28.808,0,0,0,
,-0.069,-1.001,0.167,481.506,-183.106,43.884,0,0,0,
,-0.07,-0.96,0.125,451.843,-191.346,38.024,0,0,0,
,-0.079,-0.943,0.087,462.707,-181.885,45.532,0,0,0,
,-0.093,-0.933,0.034,490.051,-178.284,21.789,0,0,0,
,-0.086,-1.038,0.071,479.736,-151.795,-33.265,0,0,0,
,-0.082,-1.057,0.064,417.541,-148.926,-26.246,0,0,0,
,-0.099,-1.086,0.101,337.28,-158.02,-32.288,0,0,0,
,-0.11,-1.069,0.157,280.212,-148.621,-47.974,0,0,0,
,-0.111,-1.019,0.172,274.353,-129.09,-45.777,0,0,0,
,-0.106,-0.953,0.142,298.706,-119.202,-77.759,0,0,0,
,-0.097,-0.991,0.148,341.613,-128.846,-116.944,0,0,0,
,-0.114,-1.049,0.125,338.134,-164.673,-112.854,0,0,0,
,-0.141,-1.097,0.136,257.507,-192.322,-91.553,0,0,0,
,-0.16,-1.07,0.148,176.269,-190.491,-93.201,0,0,0,
,-0.159,-1.087,0.168,80.444,-188.599,-99.549,0,0,0,
,-0.157,-1.061,0.125,50.415,-190.857,-92.041,0,0,0,
,-0.168,-1.022,0.076,37.963,-203.553,-90.455,0,0,0,
,-0.181,-1.055,0.088,43.64,-196.839,-86.182,0,0,0,
,-0.195,-1.105,0.048,20.69,-187.134,-83.252,0,0,0,
,-0.214,-1.103,0.04,-22.461,-170.594,-85.206,0,0,0,
,-0.22,-1.079,0.065,-70.069,-156.434,-83.924,0,0,0,
,-0.225,-1.034,0.081,-74.097,-137.391,-68.055,0,0,0,
,-0.223,-0.96,0.099,-13.489,-116.15,-72.998,0,0,0,
,-0.229,-0.969,0.098,31.25,-114.808,-73.792,0,0,0,
,-0.232,-1.006,0.079,74.585,-91.553,-76.477,0,0,0,
,-0.225,-1.049,0.073,67.749,-71.167,-70.862,0,0,0,
,-0.211,-1.098,0.089,36.254,-49.988,-76.6,0,0,0,
,-0.19,-1.076,0.069,8.361,-41.748,-89.173,0,0,0,
,-0.168,-1.047,0.075,15.136,-45.777,-90.577,0,0,0,
,-0.154,-1.039,0.073,24.658,-50.843,-100.953,0,0,0,
,-0.144,-1.063,0.088,31.494,-48.706,-103.394,0,0,0,
,-0.146,-1.057,0.103,-1.038,-60.73,-106.69,0,0,0,
,-0.154,-1.047,0.109,-22.522,-60.12,-112.122,0,0,0,
,-0.155,-1.064,0.133,-47.059,-69.703,-109.009,0,0,0,
,-0.16,-1.043,0.116,-91.858,-65.43,-98.267,0,0,0,
,-0.171,-1.02,0.113,-113.221,-85.45,-96.985,0,0,0,
,-0.19,-1.004,0.099,-124.207,-78.248,-86.06,0,0,0,
,-0.205,-0.994,0.101,-114.563,-84.107,-76.844,0,0,0,
,-0.218,-1.022,0.12,-110.718,-79.041,-75.623,0,0,0,
,-0.223,-1.037,0.122,-126.954,-63.904,-68.482,0,0,0,
,-0.231,-1.015,0.119,-156.922,-56.275,-57.373,0,0,0,
,-0.247,-1.005,0.11,-164.368,-49.378,-57.435,0,0,0,
,-0.258,-1.014,0.114,-142.456,-29.725,-45.655,0,0,0,
,-0.263,-1.031,0.113,-138.733,-20.813,-46.021,0,0,0,
,-0.272,-1.053,0.132,-156.311,-19.043,-51.087,0,0,0,
,-0.283,-1.102,0.15,-249.39,12.512,-27.894,0,0,0,
,-0.285,-1.106,0.148,-331.421,20.69,-33.204,0,0,0,
,-0.283,-1.008,0.144,-351.258,51.147,-10.56,0,0,0,
,-0.285,-0.919,0.139,-255.066,47.302,-19.288,0,0,0,
,-0.313,-0.932,0.152,-185.181,38.818,-25.696,0,0,0,
,-0.352,-1.027,0.145,-204.834,66.589,-5.31,0,0,0,
,-0.374,-1.126,0.173,-318.848,120.788,41.381,0,0,0,
,-0.365,-1.121,0.166,-435.669,173.828,52.368,0,0,0,
,-0.302,-1.012,0.148,-494.141,222.229,14.587,0,0,0,
,-0.293,-0.941,0.126,-454.346,188.354,-19.776,0,0,0,
,-0.318,-0.931,0.294,-349.122,136.657,-21.18,0,0,0,
,-0.411,-0.952,0.301,-311.341,161.56,-5.005,0,0,0,
,-0.477,-0.958,0.161,-316.102,300.659,-6.653,0,0,0,
,-0.446,-0.976,0.114,-368.042,452.392,0.366,0,0,0,
,-0.346,-0.99,0.135,-433.655,509.155,-30.518,0,0,0,
,-0.348,-0.951,0.22,-543.763,519.348,-87.586,0,0,0,
,-0.356,-0.941,0.304,-552.369,495.117,-96.192,0,0,0,
,-0.36,-0.909,0.351,-534.058,516.906,-42.542,0,0,0,
,-0.317,-0.898,0.427,-555.664,573.12,-54.871,0,0,0,
,-0.258,-0.848,0.473,-483.765,604.797,-46.875,0,0,0,
,-0.195,-0.848,0.5,-278.87,590.637,0.854,0,0,0,
,-0.124,-0.733,0.576,-65.918,532.592,53.527,0,0,0,
,-0.126,-0.726,0.496,70.739,507.202,18.066,0,0,0,
,-0.111,-0.825,0.506,128.357,480.285,25.817,0,0,0,
,-0.091,-0.832,0.455,40.161,484.192,53.405,0,0,0,
,-0.024,-0.783,0.434,-34.424,504.699,49.133,0,0,0,
,0.098,-0.867,0.498,-39.49,514.099,-8.667,0,0,0,
,0.175,-0.86,0.526,73.242,429.321,49.682,0,0,0,
,0.127,-0.739,0.472,182.983,328.552,91.186,0,0,0,
,0.093,-0.732,0.427,294.616,319.397,80.078,0,0,0,
,0.093,-0.787,0.431,356.018,298.889,49.255,0,0,0,
,0.09,-0.856,0.37,369.262,256.347,85.754,0,0,0,
,0.107,-0.871,0.406,257.141,219.665,126.648,0,0,0,
,0.145,-0.863,0.462,156.86,198.364,135.009,0,0,0,
,0.182,-0.872,0.435,156.982,184.265,133.3,0,0,0,
,0.199,-0.858,0.385,178.1,134.704,115.6,0,0,0,
,0.232,-0.988,0.44,198.608,84.655,78.43,0,0,0,
,0.226,-1.103,0.425,90.087,43.457,96.191,0,0,0,
,0.223,-0.903,0.344,5.737,14.892,113.769,0,0,0,
,0.161,-0.879,0.31,65.979,-38.086,63.171,0,0,0,
,0.148,-1.037,0.415,50.659,5.737,75.622,0,0,0,
,0.21,-0.824,0.372,20.752,40.222,114.746,0,0,0,
,0.22,-0.843,0.408,174.377,-27.1,19.47,0,0,0,
,0.15,-1.073,0.406,168.64,-40.345,0.915,0,0,0,
,0.144,-1.087,0.45,59.509,-46.326,44.738,0,0,0,
,0.137,-0.93,0.423,20.935,-58.594,55.114,0,0,0,
,0.111,-0.953,0.403,57.067,-75.623,12.207,0,0,0,
,0.071,-0.966,0.39,73.181,-74.769,3.845,0,0,0,
,0.059,-0.964,0.38,81.543,-47.486,-10.193,0,0,0,
,0.051,-0.996,0.354,61.401,-49.927,-19.715,0,0,0,
,0.052,-0.99,0.368,55.236,-63.111,-12.085,0,0,0,
,0.062,-1.021,0.458,3.234,-51.209,-15.503,0,0,0,
,0.025,-0.902,0.344,-29.908,-60.486,-13.367,0,0,0,
,0.001,-0.873,0.385,14.587,-47.852,-26.612,0,0,0,
,0.023,-0.913,0.384,28.381,5.859,-27.039,0,0,0,
,0.102,-0.908,0.405,91.857,31.616,-49.622,0,0,0,
,0.102,-1.021,0.376,96.496,-9.461,-69.397,0,0,0,
,0.058,-0.978,0.351,56.457,-26.734,-57.007,0,0,0,
,0.02,-0.957,0.326,39.611,-15.503,-70.191,0,0,0,
,0.026,-0.968,0.33,-24.476,32.104,-48.218,0,0,0,
,0.046,-0.915,0.368,-7.325,21.911,-63.233,0,0,0,
,0.012,-0.919,0.381,35.034,11.84,-62.745,0,0,0,
,-0.013,-0.927,0.365,65.979,35.339,-73.243,0,0,0,
,0.001,-0.968,0.393,66.65,48.584,-60.73,0,0,0,
,0.018,-0.973,0.391,51.513,41.137,-58.777,0,0,0,
,0.025,-0.985,0.4,40.405,25.634,-64.393,0,0,0,
,0.035,-1.002,0.394,24.475,25.024,-63.538,0,0,0,
,0.049,-0.952,0.376,34.668,9.765,-70.618,0,0,0,
,0.039,-0.951,0.379,78.186,-23.56,-71.167,0,0,0,
,0.017,-0.98,0.358,89.599,-29.664,-79.407,0,0,0,
,0.015,-0.985,0.338,82.458,-24.231,-73.304,0,0,0,
,0.021,-0.983,0.334,69.702,-30.518,-58.228,0,0,0,
,0.027,-0.988,0.34,62.866,-25.147,-57.557,0,0,0,
,0.021,-1.007,0.328,70.373,-28.382,-53.65,0,0,0,
,0.004,-1.052,0.318,47.119,-18.555,-54.505,0,0,0,
,0.001,-1.039,0.325,12.268,-16.358,-41.443,0,0,0,
,-0.012,-1.011,0.373,4.028,-18.738,-33.875,0,0,0,
,-0.009,-1.024,0.361,-9.339,0.122,-28.87,0,0,0,
,0.021,-1.002,0.357,-42.481,18.066,-12.391,0,0,0,
,0.028,-0.958,0.348,-57.862,-1.587,-5.86,0,0,0,
,0.004,-0.941,0.353,-52.796,-6.348,-7.081,0,0,0,
,0.006,-0.91,0.368,-22.522,6.103,0.671,0,0,0,
,0.02,-0.941,0.367,12.268,17.273,-4.212,0,0,0,
,0.035,-0.974,0.342,24.231,16.296,0.427,0,0,0,
,0.046,-1.007,0.368,3.234,2.624,0.488,0,0,0,
,0.031,-0.969,0.343,-25.147,-3.418,-1.77,0,0,0,
,0.022,-0.942,0.35,-23.438,2.563,-11.658,0,0,0,
,0.016,-0.94,0.366,-10.498,3.723,-13.184,0,0,0,
,0.009,-0.94,0.349,2.441,14.343,-10.56,0,0,0,
,0.015,-0.961,0.368,3.662,11.169,1.464,0,0,0,
,0.045,-0.984,0.401,-5.677,15.686,3.723,0,0,0,
,0.045,-0.954,0.363,4.272,-6.897,5.676,0,0,0,
,0.01,-0.965,0.359,6.042,-13.794,-7.63,0,0,0,
,0.006,-0.952,0.362,16.418,2.99,-8.179,0,0,0,
,0.02,-0.974,0.349,24.169,14.77,-19.349,0,0,0,
,0.019,-0.97,0.336,16.845,4.699,-9.156,0,0,0,
,-0.001,-0.962,0.349,7.568,-1.648,-7.447,0,0,0,
,0.002,-0.966,0.367,-4.334,23.315,-8.484,0,0,0,
,0.034,-0.96,0.384,2.38,36.621,0.183,0,0,0,
,0.055,-0.987,0.378,-2.32,26.367,-5.799,0,0,0,
,0.046,-0.957,0.356,8.117,-4.456,-6.104,0,0,0,
,0.021,-0.954,0.339,17.822,-9.583,-18.677,0,0,0,
,0.005,-0.957,0.321,13.916,-8.545,-11.719,0,0,0,
,-0.011,-0.942,0.333,6.408,-4.7,-12.879,0,0,0,
,-0.018,-0.963,0.364,1.953,12.939,-6.836,0,0,0,
,0.015,-0.982,0.377,-2.076,41.626,-8.728,0,0,0,
,0.054,-1.009,0.386,-14.039,36.804,-5.616,0,0,0,
,0.066,-0.983,0.386,-17.579,2.502,-0.672,0,0,0,
,0.036,-0.955,0.356,-8.179,-12.757,-1.343,0,0,0,
,0.036,-0.966,0.358,-15.076,6.347,-10.498,0,0,0,
,0.049,-0.956,0.337,-18.067,15.502,-4.456,0,0,0,
,0.055,-0.935,0.356,-3.296,9.155,-14.283,0,0,0,
,0.035,-0.948,0.363,12.939,-0.245,-14.71,0,0,0,
,0.018,-0.965,0.367,5.188,-1.343,-12.207,0,0,0,
,0.019,-0.946,0.365,2.258,-0.367,-2.503,0,0,0,
,0.018,-0.933,0.36,26.123,-4.517,-5.188,0,0,0,
,0.023,-0.984,0.357,21.789,7.812,-7.569,0,0,0,
,0.033,-0.981,0.356,2.868,4.943,1.098,0,0,0,
,0.034,-0.975,0.347,-13.001,3.234,-2.198,0,0,0,
,0.03,-0.956,0.346,-11.536,1.648,-2.686,0,0,0,
,0.016,-0.966,0.373,-0.184,2.685,-10.682,0,0,0,
,0.018,-0.977,0.376,-5.005,19.409,-9.705,0,0,0,
,0.031,-0.975,0.383,-5.677,21.545,-8.423,0,0,0,
,0.04,-0.983,0.382,-11.231,20.69,-10.254,0,0,0,
,0.043,-0.949,0.37,-16.358,8.422,-4.151,0,0,0,
,0.044,-0.942,0.375,-16.663,4.15,-9.705,0,0,0,
,0.042,-0.916,0.372,-9.888,1.342,-0.733,0,0,0,
,0.042,-0.922,0.366,1.953,5.737,-7.691,0,0,0,
,0.045,-0.938,0.364,19.47,5.493,-7.386,0,0,0,
,0.047,-0.958,0.362,28.686,9.521,-9.034,0,0,0,
,0.052,-0.977,0.363,29.113,10.864,-11.17,0,0,0,
,0.047,-0.959,0.354,28.198,-1.709,-9.888,0,0,0,
,0.027,-0.952,0.35,27.648,-10.071,-17.09,0,0,0,
,0.02,-0.965,0.361,3.112,-1.465,-11.658,0,0,0,
,0.047,-0.945,0.393,4.76,6.225,-2.015,0,0,0,
,0.067,-0.962,0.381,16.845,2.868,-13.794,0,0,0,
,0.055,-0.97,0.361,31.982,-12.024,-10.437,0,0,0,
,0.044,-0.965,0.371,35.766,0.732,-14.161,0,0,0,
,0.049,-0.968,0.341,30.883,16.296,-13.367,0,0,0,
,0.037,-0.935,0.313,32.653,7.934,-15.87,0,0,0,
,0.026,-0.967,0.351,17.273,9.216,-11.78,0,0,0,
,0.043,-0.939,0.361,24.78,29.724,-6.592,0,0,0,
,0.068,-0.962,0.357,41.259,28.32,-17.64,0,0,0,
,0.063,-0.969,0.353,40.466,9.094,-14.771,0,0,0,
,0.039,-0.936,0.352,49.377,2.746,-18.555,0,0,0,
,0.034,-0.956,0.335,52.612,11.901,-20.813,0,0,0,
,0.05,-0.964,0.341,46.447,11.535,-14.832,0,0,0,
,0.056,-0.948,0.321,38.391,3.662,-13.672,0,0,0,
,0.056,-0.934,0.312,44.738,3.295,-9.583,0,0,0,
,0.085,-0.967,0.343,56.701,25.756,-26.49,0,0,0,
,0.096,-0.996,0.312,48.4,12.39,-37.354,0,0,0,
,0.068,-0.982,0.344,23.864,-13.489,-29.236,0,0,0,
,0.048,-0.966,0.353,14.343,7.629,-31.8,0,0,0,
,0.057,-0.961,0.359,22.705,22.705,-33.57,0,0,0,
,0.058,-0.956,0.35,42.968,27.282,-43.152,0,0,0,
,0.045,-0.961,0.368,53.588,20.385,-42.725,0,0,0,
,0.028,-0.927,0.37,73.547,34.118,-39.429,0,0,0,
,0.026,-0.925,0.371,127.136,50.659,-53.894,0,0,0,
,0.027,-0.959,0.378,170.776,42.663,-45.533,0,0,0,
,0.013,-1.002,0.394,165.039,36.193,-30.64,0,0,0,
,0.008,-1.004,0.398,157.837,49.499,10.681,0,0,0,
,0.021,-0.934,0.374,175.659,82.58,34.912,0,0,0,
,0.027,-0.955,0.359,233.886,108.764,41.076,0,0,0,
,0.01,-0.967,0.36,284.668,117.431,81.115,0,0,0,
,-0.011,-0.926,0.331,333.679,152.465,107.483,0,0,0,
,-0.016,-0.931,0.33,426.452,193.542,83.618,0,0,0,
,-0.017,-0.922,0.199,520.813,230.529,100.402,0,0,0,
,0.022,-1.091,0.229,485.656,258.484,92.346,0,0,0,
,0.024,-1.089,0.187,395.996,233.276,175.537,0,0,0,
,0.015,-0.979,0.176,351.379,238.952,194.397,0,0,0,
,0.057,-0.96,0.17,369.751,296.02,198.181,0,0,0,
,0.137,-1.057,0.138,391.357,310.424,178.405,0,0,0,
,0.173,-1.047,0.093,384.582,248.901,195.251,0,0,0,
,0.182,-0.975,0.02,401.672,213.684,172.485,0,0,0,
,0.181,-1.013,-0.038,385.864,164.489,159.668,0,0,0,
,0.208,-0.969,-0.093,363.83,147.094,151.062,0,0,0,
,0.269,-1.01,-0.135,384.582,126.098,68.115,0,0,0,
,0.286,-1.148,-0.102,296.569,50.842,15.441,0,0,0,
,0.242,-1.074,0.031,172.058,-11.78,30.029,0,0,0,
,0.248,-1.059,0.017,70.373,68.115,-29.297,0,0,0,
,0.286,-0.943,-0.032,18.798,34.057,-21.119,0,0,0,
,0.264,-0.94,-0.033,14.282,11.657,-102.784,0,0,0,
,0.231,-0.993,-0.033,30.822,-30.274,-132.447,0,0,0,
,0.179,-0.904,-0.011,59.875,-56.641,-128.846,0,0,0,
,0.134,-0.957,-0.013,45.349,-51.636,-149.598,0,0,0,
,0.128,-1.051,0.003,-44.312,-38.575,-142.029,0,0,0,
,0.129,-1.092,0.046,-204.407,-60.12,-104.737,0,0,0,
,0.108,-0.998,0.083,-309.937,-75.501,-65.369,0,0,0,
,0.109,-0.782,0.155,-214.844,-78.858,-53.589,0,0,0,
,0.152,-0.904,0.144,26.489,-74.524,-176.148,0,0,0,
,0.094,-1.11,0.112,84.961,-128.907,-156.922,0,0,0,
,0.059,-1.103,0.076,14.16,-98.389,-134.034,0,0,0,
,0.109,-1.113,0.047,-38.331,-62.317,-111.451,0,0,0,
,0.12,-1.127,0.037,-90.821,-82.947,-101.868,0,0,0,
,0.097,-0.98,0.04,-68.848,-91.797,-83.191,0,0,0,
,0.081,-0.979,0.093,22.583,-63.538,-92.102,0,0,0,
,0.078,-1.13,0.125,-33.936,-22.583,-46.814,0,0,0,
,0.103,-1.049,0.14,-50.721,-13.367,-33.631,0,0,0,
,0.098,-0.989,0.097,-10.01,-21.363,-36.622,0,0,0,
,0.065,-1.015,0.087,31.799,-28.992,-33.143,0,0,0,
,0.04,-1.04,0.104,35.766,-14.832,-19.227,0,0,0,
,0.077,-1.02,0.099,35.461,15.502,1.709,0,0,0,
,0.08,-1.058,0.088,28.32,20.874,-9.583,0,0,0,
,0.087,-1.039,0.071,23.925,26.245,-22.034,0,0,0,
,0.11,-1.007,0.037,38.818,36.804,-39.551,0,0,0,
,0.148,-0.97,0.061,90.21,53.772,-57.251,0,0,0,
,0.186,-0.96,0.056,183.776,36.865,-80.445,0,0,0,
,0.188,-1.101,0.054,234.375,28.442,-137.269,0,0,0,
,0.214,-1.186,0.019,165.832,40.161,-220.52,0,0,0,
,0.24,-1.205,0.028,116.821,-2.381,-249.817,0,0,0,
,0.17,-1.18,-0.004,85.876,-68.543,-273.438,0,0,0,
,0.093,-1.212,-0.006,32.348,-70.252,-329.468,0,0,0,
,0.076,-1.21,0.012,-33.509,-67.627,-336.304,0,0,0,
,0.062,-1.295,0.024,-190.613,-66.773,-355.103,0,0,0,
,0.002,-1.217,-0.077,-712.586,-80.201,-378.479,0,0,0,
,-0.012,-1.263,-0.008,-910.279,-76.722,-401.49,0,0,0,
,-0.037,-1.167,0.032,-1083.191,-76.355,-375.611,0,0,0,
,-0.063,-1.034,0.038,-1198.243,-37.049,-358.46,0,0,0,
,-0.053,-0.982,0.105,-1223.877,-0.428,-335.572,0,0,0,
,-0.043,-0.997,0.213,-1395.447,-4.883,-260.926,0,0,0,
,-0.072,-0.915,0.161,-1647.339,-9.278,-191.59,0,0,0,
,-0.076,-0.668,0.213,-1743.836,-20.63,-100.953,0,0,0,
,-0.076,-0.403,0.266,-1703.248,-29.541,8.3,0,0,0,
,-0.066,-0.253,0.332,-1474.549,-13.733,54.748,0,0,0,
,-0.041,-0.32,0.347,-1221.07,55.114,73.669,0,0,0,
,-0.036,-0.483,0.288,-1133.179,105.957,108.032,0,0,0,
,-0.053,-0.614,0.302,-1185.608,128.906,141.54,0,0,0,
,-0.072,-0.554,0.458,-1307.129,172.546,206.848,0,0,0,
,-0.079,-0.368,0.606,-1384.583,299.743,294.067,0,0,0,
,-0.09,-0.336,0.529,-1228.882,409.179,373.291,0,0,0,
,-0.025,-0.212,0.526,-828.614,463.623,384.521,0,0,0,
,0.057,-0.147,0.563,-649.537,495.361,342.285,0,0,0,
,0.093,-0.333,0.599,-279.602,490.783,164.184,0,0,0,
,0.082,-0.685,0.694,-148.804,466.797,106.872,0,0,0,
,0.024,-1.038,0.637,-178.528,432.067,125.854,0,0,0,
,-0.001,-0.856,0.755,-298.951,373.474,140.93,0,0,0,
,0.265,-0.742,1.202,-600.953,290.283,59.509,0,0,0,
,0.33,-0.831,1.652,-101.807,-27.039,-251.587,0,0,0,
,0.149,-0.421,1.498,-116.639,-234.864,219.604,0,0,0,
,-0.015,-0.453,1.303,-56.275,-191.834,-50.477,0,0,0,
,0.048,-0.565,1.279,31.738,-133.24,-84.473,0,0,0,
,0.093,-0.579,1.044,7.324,-113.77,23.803,0,0,0,
,0.095,-0.387,0.842,-106.08,-120.24,12.817,0,0,0,
,0.102,-0.274,0.933,-151.856,-141.724,-39.185,0,0,0,
,0.149,-0.337,0.973,-64.515,-112.183,-56.824,0,0,0,
,0.166,-0.421,0.892,25.024,-80.079,-44.251,0,0,0,
,0.192,-0.434,0.931,175.476,-140.259,-4.212,0,0,0,
,0.163,-0.458,0.876,263.244,-145.203,10.742,0,0,0,
,0.15,-0.632,0.863,162.231,-166.565,-18.616,0,0,0,
,0.162,-0.735,0.922,-97.474,-163.697,-40.162,0,0,0,
,0.163,-0.614,0.978,-264.649,-137.085,-8.301,0,0,0,
,0.188,-0.442,1.051,-181.031,-183.899,-7.813,0,0,0,
,0.199,-0.359,1.057,26.55,-252.259,-15.32,0,0,0,
,0.148,-0.309,0.988,305.664,-294.007,-8.118,0,0,0,
,0.098,-0.291,0.943,610.229,-325.379,-22.583,0,0,0,
,0.088,-0.314,0.941,1026.184,-292.054,-32.105,0,0,0,
,0.089,-0.312,0.918,1442.443,-262.269,-65.674,0,0,0,
,0.09,-0.415,0.902,1810.485,-272.339,-105.469,0,0,0,
,0.063,-0.524,0.72,1993.042,-226.197,-122.681,0,0,0,
,0.024,-0.685,0.579,1999.694,-245.972,-141.541,0,0,0,
,-0.096,-1.051,0.402,1467.834,-334.168,-235.047,0,0,0,
,-0.157,-1.134,0.416,1274.963,-301.026,-212.098,0,0,0,
,-0.209,-1.098,0.346,883.972,-205.994,-121.094,0,0,0,
,-0.207,-1.018,0.289,633.911,-132.019,-104.126,0,0,0,
,-0.182,-1.034,0.354,473.388,-132.386,-65.125,0,0,0,
,-0.166,-0.994,0.326,368.225,-154.725,-65.308,0,0,0,
,-0.167,-0.883,0.242,268.005,-163.453,-47.608,0,0,0,
,-0.158,-0.868,0.276,320.678,-137.33,-53.467,0,0,0,
,-0.14,-0.817,0.156,354.858,-88.807,-66.712,0,0,0,
,-0.114,-0.883,0.107,360.412,-59.815,-49.317,0,0,0,
,-0.102,-0.952,0.126,305.542,-74.097,-23.56,0,0,0,
,-0.096,-0.941,0.206,281.25,-73.487,8.239,0,0,0,
,-0.084,-0.911,0.191,315.979,-59.632,7.507,0,0,0,
,-0.058,-0.948,0.136,344.787,-21.546,-7.996,0,0,0,
,-0.022,-1.059,0.122,324.524,0,-24.781,0,0,0,
,-0.007,-1.083,0.035,265.014,0,-39.307,0,0,0,
,-0.007,-1.056,0.042,203.186,-1.282,-66.956,0,0,0,
,-0.019,-1.073,0.099,213.44,-25.269,-85.144,0,0,0,
,-0.028,-1.047,0.159,214.355,-36.56,-59.205,0,0,0,
,-0.031,-1.055,0.183,187.011,-27.039,-64.82,0,0,0,
,-0.02,-1.101,0.204,172.302,-35.157,-82.825,0,0,0,
,0,-1.073,0.226,163.391,-32.166,-99.854,0,0,0,
,0.008,-1.067,0.229,144.348,-66.956,-109.681,0,0,0,
,-0.006,-1.082,0.227,187.561,-103.577,-120.728,0,0,0,
,-0.053,-1.072,0.232,-48.218,-122.498,-72.449,0,0,0,
,-0.053,-0.976,0.22,-32.349,-127.686,-87.281,0,0,0,
,-0.068,-0.942,0.212,6.774,-155.274,-89.661,0,0,0,
,-0.096,-0.987,0.201,71.777,-180.481,-86.06,0,0,0,
,-0.132,-1.016,0.185,71.716,-187.623,-59.571,0,0,0,
,-0.155,-1.011,0.18,65.979,-193.299,-45.227,0,0,0,
,-0.166,-0.97,0.14,51.94,-166.993,-49.378,0,0,0,
,-0.161,-0.992,0.126,60.119,-146.729,-64.331,0,0,0,
,-0.158,-1.062,0.098,62.377,-139.649,-64.698,0,0,0,
,-0.177,-1.062,0.062,38.696,-149.476,-57.129,0,0,0,
,-0.192,-1.019,0.075,46.752,-150.086,-51.514,0,0,0,
,-0.2,-1.006,0.087,69.458,-134.705,-77.332,0,0,0,
,-0.184,-0.996,0.103,69.274,-116.822,-57.251,0,0,0,
,-0.191,-1.017,0.12,74.157,-123.475,-70.862,0,0,0,
,-0.208,-0.981,0.086,90.515,-132.752,-70.74,0,0,0,
,-0.232,-0.948,0.07,152.954,-129.151,-57.74,0,0,0,
,-0.248,-0.96,0.043,236.206,-113.465,-40.406,0,0,0,
,-0.275,-1.013,0.039,226.928,-102.967,-16.48,0,0,0,
,-0.301,-1.007,0.025,177.856,-69.581,6.286,0,0,0,
,-0.3,-0.999,0.011,143.066,-13.672,21.728,0,0,0,
,-0.281,-0.969,-0.022,138.366,34.912,48.217,0,0,0,
,-0.283,-0.942,-0.082,187.255,45.532,60.058,0,0,0,
,-0.311,-0.99,-0.101,213.134,74.646,94.299,0,0,0,
,-0.346,-1.055,-0.078,218.139,111.206,123.352,0,0,0,
,-0.347,-1.02,-0.098,211.242,201.904,171.02,0,0,0,
,-0.314,-1.005,-0.148,239.074,257.995,179.321,0,0,0,
,-0.282,-1.026,-0.192,266.357,267.212,206.421,0,0,0,
,-0.283,-1.103,-0.17,219.848,260.559,254.272,0,0,0,
,-0.271,-1.124,-0.131,16.113,307.739,267.028,0,0,0,
,-0.211,-1.072,-0.044,-139.222,338.806,263.855,0,0,0,
,-0.17,-1.102,-0.02,-286.866,371.032,266.54,0,0,0,
,-0.119,-0.974,0.003,-333.985,386.047,323.486,0,0,0,
,-0.057,-0.862,0.069,-232.789,372.192,327.27,0,0,0,
,-0.027,-0.914,0.044,-98.816,358.825,291.381,0,0,0,
,-0.008,-1.058,0.047,-120.911,346.191,266.723,0,0,0,
,0.047,-1.044,0.084,-237.732,352.539,284.729,0,0,0,
,0.095,-0.951,0.105,-221.985,345.092,266.723,0,0,0,
,0.112,-1.019,0.103,-122.62,325.561,255.005,0,0,0,
,0.137,-1.046,0.122,-109.253,356.445,209.167,0,0,0,
,0.151,-1.096,0.053,-47.181,303.222,170.349,0,0,0,
,0.159,-1.16,0.143,-40.589,238.159,236.206,0,0,0,
,0.158,-1,0.114,-55.298,254.455,166.137,0,0,0,
,0.184,-1.164,0.083,-39.978,230.346,119.018,0,0,0,
,0.174,-1.054,0.085,-114.258,148.62,142.578,0,0,0,
,0.15,-0.919,0.075,-112.183,120.117,136.963,0,0,0,
,0.139,-1.047,0.107,-135.682,145.935,132.568,0,0,0,
,0.17,-0.941,0.066,-197.51,178.466,156.555,0,0,0,
,0.199,-0.931,0.107,-193.543,187.378,156.372,0,0,0,
,0.202,-0.891,0.075,-127.625,126.587,172.79,0,0,0,
,0.172,-0.904,0.074,-87.159,112.121,150.329,0,0,0,
,0.145,-0.892,0.03,-74.769,89.843,140.869,0,0,0,
,0.141,-0.903,-0.004,-73.243,78.857,119.812,0,0,0,
,0.167,-0.911,0.067,-46.936,55.786,109.924,0,0,0,
,0.165,-0.942,0.069,-25.513,65.124,85.083,0,0,0,
,0.213,-0.99,0.077,-47.852,81.298,61.218,0,0,0,
,0.271,-1.061,0.204,-123.414,61.401,20.752,0,0,0,
,0.271,-0.94,0.219,-107.239,-10.56,-3.663,0,0,0,
,0.249,-0.934,0.229,1.098,-28.077,-26.612,0,0,0,
,0.254,-0.985,0.16,97.106,9.887,-80.262,0,0,0,
,0.261,-1.038,0.101,114.868,-10.926,-95.704,0,0,0,
,0.232,-1.042,0.098,79.284,-48.34,-89.417,0,0,0,
,0.18,-1.025,0.08,28.198,-54.932,-92.408,0,0,0,
,0.158,-1.011,0.1,-10.621,-58.289,-80.811,0,0,0,
,0.137,-0.996,0.113,-54.078,-49.012,-51.331,0,0,0,
,0.142,-0.908,0.096,-51.148,-23.682,-44.312,0,0,0,
,0.125,-0.963,0.082,-30.701,-27.466,-48.096,0,0,0,
,0.114,-1.02,0.126,-74.585,-13.977,-26.123,0,0,0,
,0.144,-0.933,0.171,-83.802,-14.649,9.887,0,0,0,
,0.158,-0.944,0.155,-6.226,5.493,-21.729,0,0,0,
,0.184,-0.942,0.096,105.651,7.019,-58.899,0,0,0,
,0.146,-1.198,0.125,84.594,-27.771,-52.43,0,0,0,
,0.127,-1.085,0.112,28.137,-7.203,-42.908,0,0,0,
,0.14,-1.106,0.132,4.821,2.258,-52.124,0,0,0,
,0.137,-1.099,0.148,-26.673,-10.132,-45.655,0,0,0,
,0.11,-1.006,0.175,-25.94,-27.588,-32.532,0,0,0,
,0.114,-1.021,0.175,-10.621,6.286,-47.364,0,0,0,
,0.144,-1.027,0.17,-18.982,9.765,-38.697,0,0,0,
,0.156,-1.013,0.173,-28.138,-7.264,-38.514,0,0,0,
,0.146,-1.013,0.159,-23.499,-19.165,-38.453,0,0,0,
,0.141,-1.024,0.139,-26.734,-24.903,-43.091,0,0,0,
,0.14,-0.996,0.12,-22.034,-27.283,-30.884,0,0,0,
,0.127,-0.991,0.098,-12.207,-13.489,-36.438,0,0,0,
,0.136,-1.02,0.094,-0.123,-2.93,-37.293,0,0,0,
,0.135,-1.011,0.125,-14.954,-8.728,-27.466,0,0,0,
,0.135,-1.001,0.131,-12.513,7.751,-37.903,0,0,0,
,0.147,-1.031,0.139,-20.02,8.239,-45.411,0,0,0,
,0.133,-1.008,0.161,-34.485,-16.541,-22.217,0,0,0,
,0.112,-0.953,0.148,-34.668,-16.907,-24.537,0,0,0,
,0.105,-0.979,0.161,-26.612,-12.635,-13.794,0,0,0,
,0.111,-0.969,0.161,-17.518,-8.24,-11.902,0,0,0,
,0.117,-1,0.164,-0.123,-1.038,-9.888,0,0,0,
,0.133,-1.011,0.165,4.699,5.798,-6.104,0,0,0,
,0.144,-1.005,0.152,12.207,4.455,-13.367,0,0,0,
,0.139,-1.113,0.165,26.184,1.525,-61.89,0,0,0,
,0.154,-1.102,0.21,-22.828,-14.405,-18.006,0,0,0,
,0.134,-1.008,0.156,-52.369,-28.565,-33.814,0,0,0,
,0.135,-1.011,0.202,-56.031,-17.762,-22.828,0,0,0,
,0.128,-0.935,0.228,-41.382,-31.25,-13.733,0,0,0,
,0.136,-0.834,0.147,65.307,-0.428,-37.354,0,0,0,
,0.109,-1.101,0.105,114.746,4.333,-77.515,0,0,0,
,0.093,-1.136,0.141,-4.029,-7.508,-16.541,0,0,0,
,0.105,-0.959,0.123,-67.383,13.671,4.638,0,0,0,
,0.126,-0.955,0.158,-39.49,16.723,-14.405,0,0,0,
,0.09,-0.975,0.119,-26.185,-0.428,-20.081,0,0,0,
,0.098,-0.954,0.18,35.888,22.399,-40.101,0,0,0,
,0.11,-1.072,0.207,33.813,27.099,-47.913,0,0,0,
,0.141,-0.968,0.203,-0.306,22.705,-9.522,0,0,0,
,0.138,-0.912,0.16,49.377,3.723,-26.856,0,0,0,
,0.103,-1.096,0.135,47.18,-9.949,-47.12,0,0,0,
,0.099,-1.005,0.15,-8.179,-7.508,1.098,0,0,0,
,0.119,-0.952,0.153,15.93,17.639,-18.006,0,0,0,
,0.145,-1.039,0.151,59.204,28.93,-34.058,0,0,0,
,0.121,-1.085,0.13,25.268,1.22,-30.091,0,0,0,
,0.11,-1.013,0.156,-3.235,9.216,-20.447,0,0,0,
,0.119,-1.03,0.152,-17.945,21.85,-29.175,0,0,0,
,0.124,-1.011,0.154,-33.02,10.803,-19.837,0,0,0,
,0.113,-0.955,0.168,-8.179,7.202,-25.025,0,0,0,
,0.116,-0.986,0.158,29.907,20.385,-34.302,0,0,0,
,0.118,-1.022,0.149,19.714,16.113,-34.546,0,0,0,
,0.112,-0.99,0.158,6.469,2.685,-18.86,0,0,0,
,0.1,-1.025,0.137,10.07,6.774,-29.969,0,0,0,
,0.104,-1.03,0.169,20.507,26.855,-29.847,0,0,0,
,0.114,-1.025,0.148,-3.54,21.789,-20.997,0,0,0,
,0.104,-1.001,0.151,-8.057,12.085,-19.288,0,0,0,
,0.12,-1.017,0.168,-7.508,36.926,-29.297,0,0,0,
,0.13,-0.973,0.161,-16.175,14.404,-14.71,0,0,0,
,0.13,-0.978,0.147,5.493,21.667,-26.978,0,0,0,
,0.134,-1.005,0.149,9.338,13.122,-22.034,0,0,0,
,0.143,-1.005,0.162,-1.282,7.263,-18.494,0,0,0,
,0.145,-1.039,0.179,-30.762,17.517,-26.185,0,0,0,
,0.146,-1.042,0.173,-64.454,31.555,-29.541,0,0,0,
,0.143,-1.045,0.133,-82.093,26.794,-45.899,0,0,0,
,0.117,-1.007,0.151,-82.337,-8.973,-41.321,0,0,0,
,0.084,-0.954,0.161,-39.063,-13.672,-43.091,0,0,0,
,0.093,-0.993,0.173,6.836,19.409,-56.214,0,0,0,
,0.124,-1.057,0.187,10.009,24.597,-63.965,0,0,0,
,0.13,-1.053,0.217,-14.954,-0.794,-50.354,0,0,0,
,0.11,-1.044,0.199,-23.987,-16.663,-77.759,0,0,0,
,0.069,-1.086,0.179,-45.533,-23.011,-59.693,0,0,0,
,0.052,-1.143,0.158,-154.847,-0.916,-58.594,0,0,0,
,0.042,-1.242,0.104,-350.098,32.653,-36.805,0,0,0,
,0.038,-1.322,0.115,-575.44,41.259,-3.174,0,0,0,
,0.065,-1.05,0.168,-677.857,63.842,-7.447,0,0,0,
,0.114,-0.913,0.261,-608.887,31.494,-80.994,0,0,0,
,0.063,-0.793,0.366,-329.529,-12.757,10.192,0,0,0,
,0,-0.819,0.316,-155.518,49.377,-71.717,0,0,0,
,0.021,-1.059,0.348,-176.636,127.136,-57.373,0,0,0,
,0.073,-1.001,0.316,-294.8,168.151,21.789,0,0,0,
,0.147,-0.839,0.303,-308.655,165.161,23.681,0,0,0,
,0.184,-0.797,0.337,-199.891,104.919,16.113,0,0,0,
,0.159,-0.875,0.367,-125.489,50.598,17.089,0,0,0,
,0.122,-0.883,0.365,-103.028,42.907,35.4,0,0,0,
,0.117,-0.854,0.356,-71.717,71.838,32.531,0,0,0,
,0.139,-0.857,0.342,-10.987,95.947,28.503,0,0,0,
,0.161,-0.912,0.338,45.776,81.97,30.151,0,0,0,
,0.163,-0.982,0.34,64.148,54.748,42.663,0,0,0,
,0.142,-0.938,0.335,29.968,33.02,37.292,0,0,0,
,0.113,-0.878,0.318,54.321,21.118,8.117,0,0,0,
,0.072,-0.907,0.334,112.915,11.291,29.846,0,0,0,
,0.042,-0.924,0.338,61.34,52.002,56.884,0,0,0,
,0.065,-0.843,0.276,61.218,108.886,39.428,0,0,0,
,0.072,-0.897,0.296,149.536,103.149,21.85,0,0,0,
,0.056,-0.929,0.316,185.547,101.867,54.443,0,0,0,
,0.072,-0.895,0.304,211.853,134.277,94.604,0,0,0,
,0.119,-0.875,0.271,277.649,190.307,103.21,0,0,0,
,0.186,-0.88,0.231,329.773,212.341,74.462,0,0,0,
,0.232,-0.896,0.197,358.52,187.194,80.871,0,0,0,
,0.234,-0.954,0.183,370.3,141.967,99.304,0,0,0,
,0.252,-0.964,0.214,344.177,128.723,105.651,0,0,0,
,0.287,-0.932,0.22,350.463,123.657,99.67,0,0,0,
,0.315,-0.951,0.191,386.657,120.178,55.725,0,0,0,
,0.316,-1.004,0.149,406.555,95.398,20.08,0,0,0,
,0.315,-1.06,0.102,379.272,84.777,11.84,0,0,0,
,0.31,-1.12,0.089,339.721,42.724,19.714,0,0,0,
,0.277,-1.117,0.089,227.783,9.521,34.423,0,0,0,
,0.26,-1.13,0.093,114.624,35.339,2.38,0,0,0,
,0.274,-1.048,0.083,89.721,-2.747,19.836,0,0,0,
,0.24,-0.966,0.094,141.723,-5.921,-29.114,0,0,0,
,0.224,-1.015,0.08,221.984,-25.147,-73.182,0,0,0,
,0.196,-1.078,0.078,228.21,-36.744,-103.516,0,0,0,
,0.188,-1.092,0.098,162.963,-45.838,-91.187,0,0,0,
,0.192,-1.039,0.133,89.965,-43.274,-70.923,0,0,0,
,0.203,-0.959,0.145,72.753,-38.269,-64.942,0,0,0,
,0.207,-0.985,0.151,87.158,-41.932,-72.571,0,0,0,
,0.193,-1.035,0.128,88.012,-40.162,-79.651,0,0,0,
,0.178,-1.068,0.078,64.697,-47.425,-74.769,0,0,0,
,0.161,-1.037,0.071,27.282,-61.951,-54.383,0,0,0,
,0.149,-1.022,0.072,13.122,-49.988,-49.317,0,0,0,
,0.156,-1.008,0.095,17.639,-38.269,-42.054,0,0,0,
,0.156,-1.014,0.111,2.502,-22.583,-51.819,0,0,0,
,0.158,-1.006,0.102,-3.296,-2.076,-46.204,0,0,0,
,0.167,-0.963,0.098,21.606,4.211,-44.373,0,0,0,
,0.169,-0.986,0.069,62.316,2.685,-65.735,0,0,0,
,0.173,-1.03,0.076,55.847,-1.465,-73.792,0,0,0,
,0.181,-1.006,0.091,41.626,-4.273,-58.533,0,0,0,
,0.183,-0.979,0.092,53.222,-5.799,-61.585,0,0,0,
,0.196,-0.986,0.095,68.054,-2.015,-73.243,0,0,0,
,0.201,-0.986,0.087,97.656,-6.043,-78.98,0,0,0,
,0.196,-0.998,0.054,122.741,-15.076,-93.506,0,0,0,
,0.193,-1.074,0.047,128.723,-22.828,-116.7,0,0,0,
,0.195,-1.119,0.071,101.562,-30.945,-115.906,0,0,0,
,0.189,-1.122,0.084,79.345,-44.007,-121.888,0,0,0,
,0.179,-1.156,0.082,50.476,-36.927,-155.03,0,0,0,
,0.169,-1.223,0.044,-5.677,-23.316,-187.012,0,0,0,
,0.185,-1.21,0.012,-81.482,1.281,-225.525,0,0,0,
,0.2,-1.203,0.02,-153.687,-18.067,-265.686,0,0,0,
,0.186,-1.136,0.08,-121.644,-68.848,-276.551,0,0,0,
,0.15,-1.084,0.115,-68.177,-84.046,-328.614,0,0,0,
,0.126,-1.195,0.139,-26.612,-65.491,-365.601,0,0,0,
,0.106,-1.365,0.074,-221.375,-27.466,-393.433,0,0,0,
,0.099,-1.401,-0.044,-550.538,-12.574,-439.637,0,0,0,
,0.147,-1.358,-0.058,-857.605,2.929,-457.337,0,0,0,
,0.129,-1.262,-0.055,-1065.735,-75.745,-454.59,0,0,0,
,0.051,-1.141,0.121,-1187.867,-139.71,-461.548,0,0,0,
,-0.017,-1.091,0.147,-1271.607,-97.901,-437.378,0,0,0,
,-0.061,-1.023,0.089,-1369.019,-41.016,-370.179,0,0,0,
,-0.048,-1.025,0.013,-1523.987,36.499,-310.059,0,0,0,
,-0.027,-1.059,0.089,-1739.258,46.814,-287.293,0,0,0,
,-0.024,-0.872,0.208,-1920.105,32.775,-262.757,0,0,0,
,-0.042,-0.615,0.309,-1983.277,33.081,-163.819,0,0,0,
,-0.064,-0.483,0.38,-1996.521,60.73,-70.862,0,0,0,
,-0.081,-0.379,0.356,-1996.888,71.716,-68.421,0,0,0,
,-0.052,-0.176,0.364,-1988.16,123.291,22.155,0,0,0,
,-0.032,0.023,0.521,-1781.739,124.817,94.787,0,0,0,
,0.018,0.156,0.713,-1389.771,177.429,85.815,0,0,0,
,0.041,0.06,0.705,-959.046,220.459,53.1,0,0,0,
,0.06,-0.03,0.648,-590.699,214.111,23.132,0,0,0,
,0.069,-0.21,0.604,-359.009,255.981,66.467,0,0,0,
,0.077,-0.321,0.522,-295.594,313.354,126.709,0,0,0,
,0.06,-0.39,0.472,-330.262,380.798,141.235,0,0,0,
,0.079,-0.295,0.686,-284.668,445.739,83.435,0,0,0,
,0.118,-0.33,0.785,-226.502,530.09,60.058,0,0,0,
,0.126,-0.481,0.637,-31.006,572.876,69.824,0,0,0,
,0.115,-0.502,0.681,-36.744,505.066,129.15,0,0,0,
,0.107,-0.315,0.909,-37.293,402.099,125.366,0,0,0,
,0.08,-0.163,1.185,154.541,290.649,137.329,0,0,0,
,0.086,-0.29,1.523,300.964,266.662,119.262,0,0,0,
,0.142,-0.5,1.517,307.556,285.705,124.145,0,0,0,
,0.186,-0.575,1.193,83.19,260.498,161.071,0,0,0,
,0.186,-0.788,1.498,43.64,-53.467,-51.392,0,0,0,
,0.068,-0.488,1.376,166.32,-229.615,128.479,0,0,0,
,-0.09,-0.503,1.321,132.812,-205.506,10.437,0,0,0,
,-0.027,-0.461,1.229,259.155,-123.536,-26.856,0,0,0,
,0.068,-0.435,1.133,234.985,-101.014,22.399,0,0,0,
,0.129,-0.418,1.02,180.847,-121.277,5.615,0,0,0,
,0.126,-0.385,0.931,81.848,-150.757,-22.95,0,0,0,
,0.136,-0.379,0.953,34.057,-164.49,-27.222,0,0,0,
,0.141,-0.384,0.951,97.717,-161.866,-31.617,0,0,0,
,0.148,-0.385,0.938,163.208,-155.213,-25.147,0,0,0,
,0.144,-0.419,0.91,255.859,-144.654,-41.199,0,0,0,
,0.129,-0.437,0.858,311.828,-152.955,-39.612,0,0,0,
,0.121,-0.489,0.884,293.701,-150.33,-38.941,0,0,0,
,0.136,-0.46,0.931,293.945,-126.77,-14.039,0,0,0,
,0.164,-0.439,0.96,391.784,-131.165,-21.79,0,0,0,
,0.175,-0.409,0.948,570.495,-167.054,-23.011,0,0,0,
,0.169,-0.437,0.897,802.612,-224.305,-32.959,0,0,0,
,0.129,-0.553,0.879,936.584,-300.049,-72.571,0,0,0,
,0.083,-0.705,0.871,1037.292,-294.739,-108.887,0,0,0,
,0.056,-0.609,0.782,1200.439,-244.873,-64.209,0,0,0,
,0.048,-0.464,0.712,1496.338,-244.996,-57.19,0,0,0,
,0.051,-0.551,0.674,1740.295,-270.997,-109.253,0,0,0,
,0.028,-0.798,0.587,1891.113,-248.23,-195.923,0,0,0,
,-0.001,-0.964,0.464,1751.892,-247.925,-215.638,0,0,0,
,-0.039,-1.045,0.393,1493.469,-247.071,-148.804,0,0,0,
,-0.077,-0.862,0.224,1259.277,-191.407,-119.385,0,0,0,
,-0.08,-0.751,0.157,920.471,-148.804,-194.458,0,0,0,
,-0.035,-0.984,0.181,860.901,-130.31,-285.462,0,0,0,
,-0.021,-1.114,0.196,815.612,-207.642,-212.952,0,0,0,
,-0.044,-1.045,0.228,587.402,-252.442,-70.191,0,0,0,
,-0.063,-0.939,0.287,440.307,-235.291,-43.824,0,0,0,
,-0.046,-0.965,0.324,376.526,-209.778,-64.637,0,0,0,
,-0.037,-1.021,0.317,308.593,-201.233,-70.069,0,0,0,
,-0.043,-1.033,0.264,203.796,-191.346,-78.614,0,0,0,
,-0.063,-1.024,0.207,152.526,-194.764,-88.868,0,0,0,
,-0.071,-0.974,0.208,183.654,-189.515,-79.712,0,0,0,
,-0.097,-0.95,0.17,199.951,-197.449,-96.68,0,0,0,
,-0.119,-0.976,0.167,262.085,-199.891,-142.701,0,0,0,
,-0.156,-0.994,0.169,310.791,-191.59,-137.146,0,0,0,
,-0.142,-1.022,0.183,289.245,-204.163,-125.733,0,0,0,
,-0.148,-1.085,0.199,222.839,-202.637,-122.254,0,0,0,
,-0.148,-1.088,0.181,111.328,-180.237,-105.408,0,0,0,
,-0.138,-1.094,0.197,-18.006,-159.302,-91.98,0,0,0,
,-0.126,-1.069,0.208,-103.15,-138.001,-72.449,0,0,0,
,-0.126,-0.991,0.236,-99.366,-120.85,-63.416,0,0,0,
,-0.129,-0.961,0.272,-78.064,-114.93,-55.481,0,0,0,
,-0.127,-0.983,0.272,32.653,-102.662,-55.542,0,0,0,
,-0.109,-0.982,0.253,116.455,-73.975,-31.8,0,0,0,
,-0.103,-1.023,0.227,139.465,-86.426,-33.265,0,0,0,
,-0.119,-1.027,0.181,150.817,-84.046,-18.311,0,0,0,
,-0.139,-1.023,0.141,107.91,-67.81,-14.71,0,0,0,
,-0.152,-1.059,0.145,64.88,-44.312,-18.616,0,0,0,
,-0.151,-1.064,0.161,13.427,-18.555,-22.644,0,0,0,
,-0.154,-1.044,0.189,-35.767,-22.95,-12.207,0,0,0,
,-0.161,-1.005,0.209,-53.284,-28.016,1.281,0,0,0,
,-0.16,-0.994,0.225,-26.185,-22.278,-10.743,0,0,0,
,-0.157,-0.988,0.21,30.456,-14.771,-21.241,0,0,0,
,-0.157,-1.006,0.176,75.012,-17.884,-32.898,0,0,0,
,-0.168,-1.024,0.148,88.134,-30.152,-45.838,0,0,0,
,-0.19,-1.051,0.15,75.5,-35.889,-49.256,0,0,0,
,-0.201,-1.066,0.169,30.639,-27.527,-58.228,0,0,0,
,-0.196,-1.048,0.178,-12.94,-6.531,-64.026,0,0,0,
,-0.176,-1.035,0.2,-33.204,11.84,-76.477,0,0,0,
,-0.141,-1.009,0.224,4.638,-36.927,-79.651,0,0,0,
,-0.148,-1.008,0.22,-7.813,-49.988,-85.633,0,0,0,
,-0.143,-1.032,0.255,-30.945,-47.486,-62.745,0,0,0,
,-0.131,-1.051,0.268,-86.609,-34.729,-59.449,0,0,0,
,-0.119,-1.074,0.346,-101.746,-34.852,-37.232,0,0,0,
,-0.114,-1.05,0.386,-83.191,-25.818,-9.461,0,0,0,
,-0.123,-0.952,0.281,45.715,-64.576,-10.682,0,0,0,
,-0.133,-0.901,0.146,275.512,-86.67,-33.448,0,0,0,
,-0.146,-0.973,0.088,370.056,-115.296,-20.569,0,0,0,
,-0.256,-1.052,0.077,409.118,-190.308,-32.898,0,0,0,
,-0.334,-0.987,0.229,444.152,-118.164,4.15,0,0,0,
,-0.346,-1.054,0.019,362.06,87.829,-1.954,0,0,0,
,-0.289,-1.085,-0.008,353.088,131.286,101.501,0,0,0,
,-0.263,-1.058,0.003,195.678,139.16,150.207,0,0,0,
,-0.279,-0.983,-0.09,127.929,139.77,154.052,0,0,0,
,-0.262,-0.84,0.03,232.36,117.736,271.667,0,0,0,
,-0.278,-0.845,0.047,207.824,150.268,228.698,0,0,0,
,-0.278,-1.027,0.052,175.354,227.417,194.519,0,0,0,
,-0.256,-0.98,0.04,129.699,284.79,275.39,0,0,0,
,-0.179,-0.883,-0.058,158.752,353.698,281.555,0,0,0,
,-0.102,-0.944,-0.172,312.622,301.147,260.925,0,0,0,
,-0.145,-1.133,-0.125,337.951,175.171,236.572,0,0,0,
,-0.24,-1.223,-0.139,212.463,190.063,242.309,0,0,0,
,-0.239,-1.228,-0.054,36.438,231.384,287.231,0,0,0,
,-0.13,-1.026,0.002,-193.665,238.464,249.694,0,0,0,
,-0.148,-0.86,0.032,-110.535,215.515,239.807,0,0,0,
,-0.121,-0.857,0.01,6.347,285.644,151.062,0,0,0,
,-0.044,-0.984,-0.025,27.343,275.695,151.794,0,0,0,
,0.011,-1.147,0.04,-179.749,238.647,175.293,0,0,0,
,0.016,-1.332,0.076,-592.896,238.83,162.414,0,0,0,
,0.074,-0.882,0.138,-623.414,190.49,237.426,0,0,0,
,0.104,-0.761,0.137,-270.203,191.284,133.422,0,0,0,
,0.121,-1.106,0.261,-63.538,201.11,76.416,0,0,0,
,0.228,-0.945,0.05,172.485,269.226,-21.668,0,0,0,
,0.091,-1.282,0.006,17.395,30.944,48.706,0,0,0,
,0.016,-0.978,-0.039,-74.463,115.6,-42.115,0,0,0,
,0.078,-1.146,0.048,-114.075,127.502,48.339,0,0,0,
,0.083,-0.89,-0.019,-144.776,112.671,95.336,0,0,0,
,0.083,-0.889,0.066,-57.618,79.956,93.139,0,0,0,
,0.022,-1.026,0.104,-108.033,73.364,92.529,0,0,0,
,0.021,-0.948,0.12,-178.467,95.153,111.45,0,0,0,
,0.081,-0.974,0.148,-257.874,115.051,80.688,0,0,0,
,0.155,-1.001,0.239,-317.261,91.674,117.797,0,0,0,
,0.132,-0.872,0.158,-312.439,71.289,89.477,0,0,0,
,0.178,-0.886,0.177,-83.924,69.702,69.397,0,0,0,
,0.187,-1.024,0.059,-27.1,100.891,22.766,0,0,0,
,0.248,-1.013,0.046,-49.012,100.83,7.507,0,0,0,
,0.271,-0.943,0.058,-22.095,64.636,-37.476,0,0,0,
,0.261,-1.032,0.127,-9.522,28.686,-80.445,0,0,0,
,0.226,-0.939,0.11,-32.654,24.78,-83.374,0,0,0,
,0.223,-0.948,0.119,-23.316,49.682,-84.656,0,0,0,
,0.218,-0.978,0.117,-61.402,57.983,-66.224,0,0,0,
,0.195,-0.958,0.068,-133.057,53.161,-51.819,0,0,0,
,0.197,-0.955,0.128,-161.622,46.142,-45.472,0,0,0,
,0.18,-0.905,0.167,-146.485,21.911,-33.081,0,0,0,
,0.171,-0.892,0.243,-96.253,11.047,-24.659,0,0,0,
,0.137,-0.902,0.254,-78.186,-4.456,-16.907,0,0,0,
,0.099,-0.948,0.26,-75.257,-12.818,3.173,0,0,0,
,0.093,-0.984,0.278,-86.914,3.234,18.127,0,0,0,
,0.092,-0.984,0.262,-52.613,0.671,0.366,0,0,0,
,0.071,-0.964,0.269,84.716,-16.663,11.779,0,0,0,
,0.116,-1.058,0.276,142.151,28.686,-26.368,0,0,0,
,0.155,-1.166,0.234,132.812,-2.015,-54.505,0,0,0,
,0.12,-1.206,0.171,39.123,-71.289,-50.904,0,0,0,
,0.051,-1.14,0.23,-76.783,-98.389,14.892,0,0,0,
,0.057,-0.903,0.166,-25.574,-17.212,-16.48,0,0,0,
,0.077,-1.037,0.151,53.772,-4.273,-65.186,0,0,0,
,0.05,-1.107,0.152,20.141,-30.518,-63.904,0,0,0,
,0.06,-1.068,0.195,-23.621,28.503,-46.021,0,0,0,
,0.091,-1.052,0.198,-45.411,26.977,-44.922,0,0,0,
,0.095,-1.002,0.221,-42.664,-0.733,-27.527,0,0,0,
,0.08,-0.984,0.211,-33.692,-12.024,-35.096,0,0,0,
,0.064,-0.994,0.227,-20.997,-15.015,-51.819,0,0,0,
,0.072,-0.971,0.227,7.202,-1.954,-41.687,0,0,0,
,0.082,-0.976,0.216,24.353,1.586,-50.721,0,0,0,
,0.079,-1.004,0.194,40.771,-9.217,-52.857,0,0,0,
,0.071,-1.019,0.184,28.747,-2.686,-51.27,0,0,0,
,0.044,-1.019,0.147,-5.494,3.601,-45.655,0,0,0,
,0.062,-0.961,0.236,-65.674,48.156,-8.423,0,0,0,
,0.113,-0.921,0.19,-10.071,61.157,-63.538,0,0,0,
,0.068,-0.964,0.191,5.31,-37.049,-24.964,0,0,0,
,0.01,-0.866,0.212,43.762,-29.114,9.948,0,0,0,
,0.008,-0.893,0.182,106.811,20.813,-21.973,0,0,0,
,0.072,-0.995,0.236,120.666,53.222,-3.052,0,0,0,
,0.102,-0.999,0.174,100.769,31.677,-8.118,0,0,0,
,0.053,-0.942,0.186,58.593,5.127,11.535,0,0,0,
,0.065,-1,0.219,93.017,4.516,25.512,0,0,0,
,0.071,-1.026,0.238,86.792,4.272,47.607,0,0,0,
,0.074,-1.01,0.224,68.725,7.751,53.527,0,0,0,
,0.095,-1.074,0.22,59.265,36.865,49.377,0,0,0,
,0.117,-1.145,0.171,19.836,53.588,53.1,0,0,0,
,0.12,-1.147,0.131,-34.363,38.33,41.076,0,0,0,
,0.112,-1.07,0.125,8.911,31.86,12.329,0,0,0,
,0.114,-1.139,0.159,40.893,31.433,-29.847,0,0,0,
,0.098,-1.181,0.208,-49.073,27.465,-33.997,0,0,0,
,0.09,-1.051,0.2,-131.47,33.203,-10.804,0,0,0,
,0.101,-0.95,0.203,-125.794,42.602,-13.794,0,0,0,
,0.115,-0.935,0.206,-69.458,36.499,-18.311,0,0,0,
,0.108,-0.938,0.193,-42.969,26.611,-4.883,0,0,0,
,0.106,-0.938,0.186,-22.95,32.653,8.789,0,0,0,
,0.106,-0.962,0.198,-7.325,33.264,17.211,0,0,0,
,0.113,-0.996,0.206,10.009,43.701,7.69,0,0,0,
,0.118,-1.025,0.213,28.808,40.832,-1.831,0,0,0,
,0.115,-1.023,0.199,18.005,36.499,0.671,0,0,0,
,0.112,-1.005,0.188,21.362,30.395,-4.7,0,0,0,
,0.096,-0.976,0.163,35.156,21.789,-3.602,0,0,0,
,0.077,-0.954,0.149,58.532,16.723,-8.912,0,0,0,
,0.063,-0.963,0.151,79.65,30.09,-5.677,0,0,0,
,0.076,-0.965,0.181,93.811,50.537,1.037,0,0,0,
,0.113,-0.989,0.199,105.774,71.472,-9.156,0,0,0,
,0.143,-1.048,0.198,96.74,57.006,-16.785,0,0,0,
,0.146,-1.032,0.181,83.984,25.024,-15.381,0,0,0,
,0.132,-0.988,0.158,85.388,10.986,-29.419,0,0,0,
,0.118,-0.99,0.14,121.521,2.868,-27.405,0,0,0,
,0.102,-0.992,0.133,131.713,1.342,-27.71,0,0,0,
,0.094,-0.989,0.134,139.343,8.483,-30.64,0,0,0,
,0.101,-0.961,0.17,184.448,19.897,-34.913,0,0,0,
,0.122,-0.941,0.161,213.562,23.864,-44.129,0,0,0,
,0.15,-0.997,0.148,228.637,18.188,-49.317,0,0,0,
,0.154,-1.004,0.118,200.927,-16.358,-34.546,0,0,0,
,0.129,-0.984,0.086,198.12,-35.34,-30.274,0,0,0,
,0.108,-0.987,0.057,217.956,-31.617,-35.401,0,0,0,
,0.101,-1.044,0.048,203.064,-21.302,-31.373,0,0,0,
,0.105,-1.09,0.053,138.733,-14.893,-23.987,0,0,0,
,0.116,-1.098,0.06,77.575,-16.541,-20.874,0,0,0,
,0.123,-1.091,0.057,43.64,-16.114,-30.152,0,0,0,
,0.113,-1.129,0.06,-6.47,-34.363,-33.875,0,0,0,
,0.082,-1.065,0.068,-44.373,-34.058,-25.208,0,0,0,
,0.069,-1.019,0.081,-30.701,-28.199,-14.832,0,0,0,
,0.06,-0.965,0.099,-28.809,-15.259,20.996,0,0,0,
,0.067,-0.995,0.116,4.333,19.775,-1.831,0,0,0,
,0.095,-1.062,0.104,11.962,15.258,15.686,0,0,0,
,0.097,-1.09,0.143,-33.57,-1.77,73.547,0,0,0,
,0.083,-1.03,0.187,-60.669,-11.231,126.77,0,0,0,
,0.071,-0.907,0.123,38.879,18.127,155.7,0,0,0,
,0.091,-0.96,0.042,214.599,64.209,127.746,0,0,0,
,0.111,-1.091,0.001,218.383,88.989,105.163,0,0,0,
,0.144,-1.206,0.099,64.392,91.674,89.843,0,0,0,
,0.151,-1.057,0.03,24.414,69.336,121.032,0,0,0,
,0.162,-1.022,0.044,32.348,74.401,67.749,0,0,0,
,0.174,-1.05,0.051,8.3,82.092,26.123,0,0,0,
,0.186,-1.04,0.085,-25.208,61.706,1.464,0,0,0,
,0.16,-0.989,0.062,-40.833,40.893,20.08,0,0,0,
,0.155,-0.945,0.031,-14.527,53.344,-10.376,0,0,0,
,0.161,-0.964,0.025,24.047,47.485,-50.354,0,0,0,
,0.202,-0.962,0.079,90.637,43.884,-85.083,0,0,0,
,0.242,-1.037,0.103,180.359,29.235,-128.235,0,0,0,
,0.231,-1.211,0.08,154.602,-9.888,-177.43,0,0,0,
,0.21,-1.172,0.04,80.322,-13.977,-199.402,0,0,0,
,0.179,-1.051,-0.05,103.027,-36.866,-243.287,0,0,0,
,0.151,-1.094,-0.016,137.451,-30.457,-282.471,0,0,0,
,0.147,-1.178,0.03,123.657,-7.874,-312.134,0,0,0,
,0.144,-1.199,0.072,34.545,-14.71,-326.905,0,0,0,
,0.137,-1.143,0.098,-41.748,-27.222,-339.783,0,0,0,
,0.124,-1.044,0.132,-18.372,-62.378,-348.816,0,0,0,
,0.072,-1.062,0.108,-9.156,-85.572,-369.751,0,0,0,
,0.033,-1.115,0.068,-64.026,-66.59,-395.752,0,0,0,
,0.013,-1.133,-0.011,-191.224,-80.567,-430.664,0,0,0,
,-0.003,-1.228,0.052,-333.985,-90.394,-457.52,0,0,0,
,-0.018,-1.266,0.039,-502.564,-91.797,-448.914,0,0,0,
,-0.051,-1.273,-0.073,-754.883,-74.707,-459.473,0,0,0,
,-0.085,-1.338,0.025,-1027.344,-83.802,-454.651,0,0,0,
,-0.087,-1.261,0.029,-1327.393,-55.176,-430.176,0,0,0,
,-0.045,-1.16,0.038,-1611.451,2.441,-373.291,0,0,0,
,-0.018,-1.011,0.082,-1846.131,-20.386,-321.412,0,0,0,
,-0.026,-0.825,0.158,-1960.877,-52.796,-232.422,0,0,0,
,-0.063,-0.602,0.114,-1998.108,-16.907,-163.819,0,0,0,
,-0.077,-0.384,0.19,-1966.248,5.859,-105.896,0,0,0,
,-0.064,-0.232,0.318,-1765.687,41.32,-33.387,0,0,0,
,-0.044,-0.178,0.445,-1477.234,106.75,21.24,0,0,0,
,-0.009,-0.194,0.516,-1137.574,209.228,26.245,0,0,0,
,0.038,-0.265,0.513,-971.741,294.86,56.579,0,0,0,
,0.084,-0.36,0.442,-831.36,334.411,98.449,0,0,0,
,0.102,-0.374,0.349,-773.804,296.753,121.215,0,0,0,
,0.078,-0.418,0.352,-835.999,232.299,160.095,0,0,0,
,0.018,-0.488,0.31,-1006.287,235.412,256.652,0,0,0,
,-0.06,-0.455,0.3,-1183.899,284.607,372.68,0,0,0,
,-0.129,-0.34,0.438,-1284.913,449.218,441.345,0,0,0,
,-0.104,-0.069,0.602,-984.62,625.671,375.61,0,0,0,
,-0.02,-0.199,0.659,-619.935,748.535,271.911,0,0,0,
,0.118,-0.613,1.004,-258.301,650.817,149.78,0,0,0,
,0.209,-0.927,1.249,-281.067,545.471,8.728,0,0,0,
,0.17,-0.637,1.308,-242.31,421.875,102.539,0,0,0,
,0.188,-0.266,1.605,-289.124,210.388,150.756,0,0,0,
,0.216,0.012,1.542,-350.953,191.711,182.373,0,0,0,
,0.131,-0.549,1.445,-263.611,13.122,-255.982,0,0,0,
,0.259,-0.413,1.785,84.594,-230.164,9.887,0,0,0,
,0.001,-0.22,1.362,92.773,-168.641,139.038,0,0,0,
,0.003,-0.365,1.177,248.901,-130.066,-52.002,0,0,0,
,0.039,-0.533,1.135,218.994,-127.625,-3.235,0,0,0,
,0.061,-0.482,1.097,91.064,-90.882,17.15,0,0,0,
,0.084,-0.318,1.014,-78.431,-50.904,-1.16,0,0,0,
,0.108,-0.213,0.988,-41.321,-56.031,-28.809,0,0,0,
,0.153,-0.183,1.009,36.743,-89.539,-11.841,0,0,0,
,0.136,-0.315,0.968,70.007,-72.815,-42.237,0,0,0,
,0.129,-0.384,0.956,-9.4,-40.772,-10.437,0,0,0,
,0.132,-0.33,0.912,-53.833,1.831,39.611,0,0,0,
,0.163,-0.287,0.905,-44.739,-1.831,23.193,0,0,0,
,0.172,-0.262,0.919,46.386,-16.175,17.211,0,0,0,
,0.167,-0.329,1,131.591,-37.537,-12.94,0,0,0,
,0.164,-0.412,1.006,212.341,-27.71,-14.649,0,0,0,
,0.161,-0.44,0.988,271.972,-35.767,-2.32,0,0,0,
,0.143,-0.419,0.976,343.261,-69.519,-13.001,0,0,0,
,0.132,-0.415,0.966,412.963,-122.498,-26.734,0,0,0,
,0.132,-0.472,0.969,417.785,-130.921,-56.702,0,0,0,
,0.116,-0.468,0.943,486.328,-150.33,-56.275,0,0,0,
,0.116,-0.398,0.985,745.422,-164.002,-66.956,0,0,0,
,0.095,-0.386,0.949,1011.352,-194.642,-58.411,0,0,0,
,0.068,-0.459,0.97,1254.638,-188.66,-68.116,0,0,0,
,0.062,-0.49,0.894,1426.696,-182.129,-82.032,0,0,0,
,0.048,-0.54,0.804,1502.685,-194.825,-120.789,0,0,0,
,0.056,-0.581,0.796,1741.821,-217.652,-130.31,0,0,0,
,0.038,-0.657,0.75,1712.524,-248.658,-88.868,0,0,0,
,-0.016,-0.771,0.72,1556.213,-195.557,-156.128,0,0,0,
,-0.041,-0.856,0.662,1497.741,-83.558,-143.372,0,0,0,
,-0.026,-0.828,0.466,1349.182,-40.406,-117.859,0,0,0,
,-0.036,-0.781,0.293,1286.865,-86.365,-172.608,0,0,0,
,-0.04,-0.912,0.342,1322.387,-168.824,-164.368,0,0,0,
,-0.087,-1.032,0.402,1234.375,-246.644,-107.3,0,0,0,
,-0.168,-1.086,0.415,943.603,-233.216,-23.377,0,0,0,
,-0.202,-1.119,0.516,744.201,-186.036,17.944,0,0,0,
,-0.214,-1.008,0.32,537.963,-119.935,26.794,0,0,0,
,-0.187,-0.912,0.097,397.461,12.817,25.268,0,0,0,
,-0.111,-0.907,0.146,344.97,68.725,6.042,0,0,0,
,-0.056,-1.006,0.225,283.264,62.622,-40.345,0,0,0,
,-0.048,-0.953,0.214,324.096,3.173,36.315,0,0,0,
,-0.07,-0.886,0.158,423.401,-47.12,124.023,0,0,0,
,-0.078,-0.863,0.18,397.766,-17.151,189.331,0,0,0,
,-0.071,-0.94,0.174,306.03,46.691,154.174,0,0,0,
,-0.022,-0.9,0.197,341.369,95.031,163.696,0,0,0,
,0.022,-0.885,0.098,377.319,131.53,147.338,0,0,0,
,0.084,-1.053,0.146,381.103,133.789,85.327,0,0,0,
,0.112,-1.075,0.148,320.984,96.313,134.887,0,0,0,
,0.128,-0.983,0.113,316.284,75.805,117.92,0,0,0,
,0.132,-1.057,0.048,299.682,67.382,66.589,0,0,0,
,0.126,-1.111,0.026,219.177,42.114,72.753,0,0,0,
,0.113,-1.062,-0.014,153.991,38.574,85.449,0,0,0,
,0.097,-1.064,-0.006,143.493,29.907,81.359,0,0,0,
,0.069,-1.108,0.001,83.313,51.452,54.077,0,0,0,
,0.077,-1.058,-0.006,36.132,95.52,42.968,0,0,0,
,0.107,-0.996,-0.036,28.686,111.938,31.005,0,0,0,
,0.139,-1.001,-0.003,16.357,111.389,-29.541,0,0,0,
,0.169,-1.031,0.049,23.01,83.129,-73.609,0,0,0,
,0.133,-0.996,0.083,15.502,24.841,-76.416,0,0,0,
,0.113,-0.948,0.11,41.442,27.893,-106.202,0,0,0,
,0.112,-1,0.102,56.518,35.888,-148.865,0,0,0,
,0.128,-1.036,0.088,57.678,14.221,-165.711,0,0,0,
,0.128,-1.02,0.102,52.307,-19.043,-183.716,0,0,0,
,0.124,-1.008,0.065,68.176,-38.392,-221.741,0,0,0,
,0.118,-1.047,0.058,95.52,-76.539,-256.775,0,0,0,
,0.105,-1.044,0.056,92.468,-101.197,-268.433,0,0,0,
,0.072,-1.036,0.055,62.011,-113.099,-275.513,0,0,0,
,0.034,-1.077,0.062,48.217,-116.394,-268.982,0,0,0,
,0.024,-1.055,0.123,58.349,-100.831,-239.869,0,0,0,
,0.028,-1.043,0.044,76.232,-87.708,-256.653,0,0,0,
,0.033,-1.098,0.06,104.98,-101.38,-288.941,0,0,0,
,0.014,-1.119,0.051,86.792,-120.362,-292.237,0,0,0,
,-0.027,-1.109,0.046,56.03,-147.217,-281.128,0,0,0,
,-0.065,-1.079,0.043,6.164,-133.423,-264.039,0,0,0,
,-0.104,-1.028,0.05,-21.302,-106.568,-189.148,0,0,0,
,-0.097,-1.012,0.066,5.004,-90.271,-168.03,0,0,0,
,-0.088,-1.047,0.063,23.132,-84.717,-163.392,0,0,0,
,-0.094,-1.082,0.039,-1.709,-90.21,-158.143,0,0,0,
,-0.115,-1.097,0.07,-64.087,-91.004,-143.555,0,0,0,
,-0.121,-1.058,0.092,-97.718,-75.379,-122.498,0,0,0,
,-0.113,-1.02,0.112,-116.7,-76.661,-107.727,0,0,0,
,-0.103,-1,0.119,-77.881,-81.727,-96.375,0,0,0,
,-0.09,-0.955,0.131,-22.4,-100.769,-74.219,0,0,0,
,-0.1,-0.94,0.105,11.657,-125.977,-72.632,0,0,0,
,-0.119,-1.006,0.088,9.399,-134.522,-77.027,0,0,0,
,-0.136,-1.003,0.075,-49.317,-134.461,-64.881,0,0,0,
,-0.131,-0.99,0.084,-76.787,4324.378,-525.136,0,0,0,
,-0.127,-0.922,0.079,59.692,-144.898,-73.487,0,0,0,
,-0.142,-0.949,0.073,129.211,-161.194,-76.905,0,0,0,
,-0.16,-0.994,0.011,121.704,-154.725,-78.003,0,0,0,
,-0.159,-1.03,0.009,73.242,-138.062,-79.895,0,0,0,
,-0.198,-1.029,0,51.452,-121.949,-44.495,0,0,0,
,-0.238,-1.045,0.006,41.137,-116.883,-49.317,0,0,0,
,-0.266,-1.043,0.001,17.028,-97.474,-37.293,0,0,0,
,-0.284,-1.032,0.016,4.455,-70.435,-20.752,0,0,0,
,-0.279,-0.991,0.028,14.343,-30.884,5.92,0,0,0,
,-0.277,-0.974,0.001,30.395,-12.024,19.958,0,0,0,
,-0.293,-0.928,-0.028,72.204,-5.372,63.842,0,0,0,
,-0.322,-0.887,-0.055,117.37,13.305,124.328,0,0,0,
,-0.349,-0.905,-0.056,147.4,53.344,173.095,0,0,0,
,-0.368,-0.918,-0.068,147.033,105.285,233.337,0,0,0,
,-0.352,-0.909,-0.091,129.455,171.447,271.85,0,0,0,
,-0.314,-0.974,-0.078,114.807,210.449,299.743,0,0,0,
,-0.16,-1.012,-0.031,8.178,270.691,328.796,0,0,0,
,-0.11,-1.051,-0.029,-63.904,264.953,303.527,0,0,0,
,-0.084,-1.048,0.001,-131.958,261.23,292.419,0,0,0,
,-0.062,-1.042,0.041,-182.007,270.324,296.142,0,0,0,
,0.004,-1.013,0.022,-189.454,310.608,287.048,0,0,0,
,0.095,-0.999,0.029,-121.46,293.823,284.729,0,0,0,
,0.154,-1.021,0.075,-23.316,223.022,268.493,0,0,0,
,0.151,-1.057,0.12,27.648,155.578,217.346,0,0,0,
,0.121,-1.148,0.106,9.948,136.169,182.556,0,0,0,
,0.13,-1.08,0.09,-18.372,124.267,169.067,0,0,0,
,0.136,-1.044,0.066,12.39,104.797,132.263,0,0,0,
,0.128,-1.134,0.041,3.906,102.295,110.778,0,0,0,
,0.117,-1.054,0.077,11.84,74.218,128.662,0,0,0,
,0.099,-1.008,0.035,25.146,80.932,102.783,0,0,0,
,0.104,-1.069,0.012,3.295,93.994,84.35,0,0,0,
,0.107,-0.967,-0.019,-26.856,67.749,85.205,0,0,0,
,0.076,-0.935,-0.016,13.244,57.739,83.984,0,0,0,
,0.072,-1.004,-0.015,7.446,108.703,80.261,0,0,0,
,0.132,-1.008,-0.005,-10.804,142.944,79.589,0,0,0,
,0.189,-1.045,0.005,-28.565,143.188,59.814,0,0,0,
,0.211,-1.036,0.01,-38.331,104.919,58.044,0,0,0,
,0.201,-1.002,0.042,-33.02,62.866,53.955,0,0,0,
,0.175,-1.013,0.025,-39.429,49.255,43.396,0,0,0,
,0.162,-1.001,0.044,-45.227,51.94,46.264,0,0,0,
,0.19,-0.983,0.043,-66.285,83.007,46.997,0,0,0,
,0.157,-0.919,0.002,-51.697,64.392,78.308,0,0,0,
,0.15,-1.001,0.05,-62.378,88.562,66.894,0,0,0,
,0.227,-0.935,0.147,-48.829,77.636,13.488,0,0,0,
,0.205,-1.248,0.059,11.413,21.301,-77.698,0,0,0,
,0.131,-0.972,0.151,-18.494,-91.98,24.231,0,0,0,
,0.108,-0.98,0.033,33.996,13.61,-73.487,0,0,0,
,0.163,-1.153,0.02,6.591,12.023,-76.172,0,0,0,
,0.116,-1.024,0.04,-45.105,-74.341,-36.988,0,0,0,
,0.052,-1.023,0.057,-39.856,-41.382,-60.242,0,0,0,
,0.073,-1.055,0.07,-55.787,10.803,-37.415,0,0,0,
,0.112,-0.97,0.067,-44.434,11.291,-34.974,0,0,0,
,0.103,-1.044,0.068,-36.56,-6.836,-48.035,0,0,0,
,0.079,-0.998,0.051,-22.217,-16.114,-30.701,0,0,0,
,0.068,-1.036,0.071,-9.4,3.54,-29.175,0,0,0,
,0.074,-1.025,0.031,-29.969,20.752,-19.593,0,0,0,
,0.085,-1.063,0.068,-59.815,19.775,-4.944,0,0,0,
,0.105,-0.992,0.057,-49.927,30.456,-5.86,0,0,0,
,0.128,-1.029,0.091,-53.528,25.268,-13.123,0,0,0,
,0.17,-0.981,0.096,-17.456,24.108,-6.653,0,0,0,
,0.19,-1.005,0.091,-9.156,12.878,-21.363,0,0,0,
,0.175,-1.011,0.058,8.85,-9.034,-30.396,0,0,0,
,0.153,-0.995,0.054,-18.494,-0.428,-28.382,0,0,0,
,0.143,-0.995,0.056,-1.465,-15.137,-35.584,0,0,0,
,0.118,-1.014,0.044,-8.057,-10.315,-33.57,0,0,0,
,0.108,-1.001,0.079,-7.386,-2.564,-18.86,0,0,0,
,0.105,-0.979,0.065,5.127,15.319,-15.686,0,0,0,
,0.11,-1.032,0.061,18.188,27.71,-27.039,0,0,0,
,0.092,-1.012,0.025,7.141,10.681,-21.668,0,0,0,
,0.097,-1.016,0.08,-1.16,33.569,-13.245,0,0,0,
,0.146,-1.019,0.093,6.652,49.926,-32.776,0,0,0,
,0.114,-1.047,0.104,18.676,22.216,-37.903,0,0,0,
,0.141,-1.028,0.092,13.488,20.996,-24.109,0,0,0,
,0.137,-1.009,0.083,16.784,7.812,-29.053,0,0,0,
,0.133,-1.029,0.083,19.897,8.728,-27.588,0,0,0,
,0.119,-1.031,0.079,6.713,2.136,-17.823,0,0,0,
,0.115,-1.032,0.081,-1.465,18.432,-10.071,0,0,0,
,0.129,-1.003,0.067,-2.137,28.015,-2.198,0,0,0,
,0.123,-0.99,0.04,12.573,15.93,-10.315,0,0,0,
,0.099,-0.997,0.052,39.672,5.432,-18.982,0,0,0,
,0.086,-1.049,0.04,50.231,19.348,-20.264,0,0,0,
,0.097,-1.077,0.079,17.639,33.325,-13.062,0,0,0,
,0.116,-0.995,0.106,-10.621,27.71,-12.757,0,0,0,
,0.116,-0.973,0.112,7.568,27.099,-14.466,0,0,0,
,0.135,-0.994,0.1,36.438,37.841,-31.006,0,0,0,
,0.145,-1.091,0.079,40.954,19.043,-47.242,0,0,0,
,0.088,-1.061,-0.094,-16.48,-11.353,-58.594,0,0,0,
,-0.013,-1.227,0.144,-268.921,-89.722,40.1,0,0,0,
,0.121,-0.659,0.288,-184.144,76.599,135.437,0,0,0,
,0.305,-0.862,0.1,110.046,146.728,-121.827,0,0,0,
,0.176,-1.19,0.037,80.017,-140.686,-46.448,0,0,0,
,-0.017,-0.941,0.1,9.46,-119.568,22.338,0,0,0,
,0.066,-0.983,0.078,3.967,88.623,-21.79,0,0,0,
,0.193,-1.023,0.017,47.668,57.617,-19.776,0,0,0,
,0.171,-1.138,0.068,50.537,-17.151,-35.523,0,0,0,
,0.096,-1.088,0.075,-23.865,-25.513,-15.015,0,0,0,
,0.088,-0.966,0.085,-6.47,28.015,-18.067,0,0,0,
,0.115,-1.018,0.067,20.019,56.884,-29.847,0,0,0,
,0.111,-1.039,0.089,12.817,23.315,-22.95,0,0,0,
,0.087,-1.001,0.118,2.075,6.408,-17.701,0,0,0,
,0.089,-1.002,0.117,-0.489,26.916,-13.184,0,0,0,
,0.109,-1.003,0.103,6.286,29.663,-8.057,0,0,0,
,0.081,-1.022,-0.022,-9.888,20.324,-32.349,0,0,0,
,0.067,-1.144,0.142,-20.813,23.437,-3.724,0,0,0,
,0.128,-1.044,0.097,-69.092,82.336,-9.339,0,0,0,
,0.176,-1.013,0.13,-36.744,39.55,-5.86,0,0,0,
,0.162,-0.979,0.108,-7.996,14.16,-7.691,0,0,0,
,0.134,-0.971,0.107,19.836,23.742,5.676,0,0,0,
,0.125,-0.94,0.066,49.438,53.955,12.207,0,0,0,
,0.131,-0.946,0.03,88.745,82.031,22.155,0,0,0,
,0.143,-0.983,0.064,112.304,93.994,63.171,0,0,0,
,0.144,-1.019,0.058,126.77,96.862,53.588,0,0,0,
,0.126,-1.07,0.063,119.384,100.708,58.349,0,0,0,
,0.126,-1.104,0.087,106.262,112.182,50.415,0,0,0,
,0.132,-1.124,0.075,60.607,114.38,36.315,0,0,0,
,0.121,-1.082,0.07,20.507,78.002,13.305,0,0,0,
,0.101,-1.061,0.078,3.356,40.1,-4.456,0,0,0,
,0.075,-0.985,0.078,17.028,53.772,-39.429,0,0,0,
,0.076,-0.962,0.087,84.961,55.053,-42.42,0,0,0,
,0.113,-0.993,0.029,48.339,82.336,-28.931,0,0,0,
,0.149,-0.888,0.019,58.288,83.618,22.827,0,0,0,
,0.18,-0.969,0.035,88.195,95.52,-14.771,0,0,0,
,0.191,-1.022,0.057,50.598,62.255,-10.071,0,0,0,
,0.172,-0.897,0.063,81.115,21.606,-2.808,0,0,0,
,0.16,-0.916,0.034,164.428,29.235,-30.64,0,0,0,
,0.164,-0.978,-0.001,191.894,35.156,-46.753,0,0,0,
,0.168,-1.004,-0.017,159.973,30.395,-33.509,0,0,0,
,0.186,-0.976,-0.004,151.062,29.357,-34.363,0,0,0,
,0.182,-0.972,-0.035,164.917,11.535,-50.11,0,0,0,
,0.154,-0.982,-0.073,178.955,-10.743,-68.726,0,0,0,
,0.147,-0.992,-0.081,177.246,0.183,-100.464,0,0,0,
,0.199,-1.001,-0.019,212.951,16.418,-124.451,0,0,0,
,0.223,-1.023,-0.056,246.215,-2.442,-152.649,0,0,0,
,0.204,-1.09,-0.084,243.286,-13.672,-180.97,0,0,0,
,0.193,-1.104,-0.104,217.529,-14.954,-188.843,0,0,0,
,0.169,-1.106,-0.09,198.547,-34.424,-193.665,0,0,0,
,0.142,-1.102,-0.054,166.442,-29.297,-207.642,0,0,0,
,0.138,-1.132,-0.088,155.822,-3.907,-227.356,0,0,0,
,0.143,-1.11,-0.098,139.465,-2.137,-253.846,0,0,0,
,0.124,-1.082,-0.1,144.287,-48.462,-262.757,0,0,0,
,0.057,-1.09,-0.077,132.141,-76.722,-287.415,0,0,0,
,0.013,-1.144,-0.068,90.759,-73.121,-305.42,0,0,0,
,0.002,-1.208,-0.093,32.226,-56.763,-318.909,0,0,0,
,0.005,-1.25,-0.078,-37.781,-54.81,-338.562,0,0,0,
,-0.006,-1.09,-0.047,-37.659,-65.43,-349.671,0,0,0,
,-0.041,-1.151,-0.056,35.827,-47.547,-446.9,0,0,0,
,-0.072,-1.324,0.002,-13.55,-67.749,-447.144,0,0,0,
,-0.116,-1.185,0.035,-57.129,-115.662,-421.753,0,0,0,
,-0.137,-1.16,-0.005,-36.683,-99.976,-426.392,0,0,0,
,-0.119,-1.23,-0.056,-189.515,-58.96,-443.055,0,0,0,
,-0.091,-1.409,-0.154,-660.523,-24.048,-443.909,0,0,0,
,-0.126,-1.566,-0.216,-1283.143,-44.678,-429.322,0,0,0,
,-0.166,-1.304,-0.152,-1873.414,13.305,-328.675,0,0,0,
,-0.111,-0.96,-0.148,-1976.746,155.09,-240.113,0,0,0,
,-0.05,-0.798,-0.012,-1835.389,196.96,-165.284,0,0,0,
,-0.014,-0.949,0.105,-1820.191,190.857,-134.644,0,0,0,
,-0.01,-1.04,0.115,-1983.46,170.349,-90.455,0,0,0,
,-0.035,-0.958,0.171,-2000,137.756,-9.644,0,0,0,
,-0.049,-0.653,0.175,-2000,131.103,96.374,0,0,0,
,-0.08,-0.37,0.055,-2000,138.122,184.082,0,0,0,
,-0.085,-0.133,0.155,-2000,158.447,227.111,0,0,0,
,-0.06,0.134,0.404,-2000,230.468,243.652,0,0,0,
,-0.019,0.22,0.531,-1495.545,328.369,267.273,0,0,0,
,0.026,-0.054,0.521,-883.057,341.247,206.421,0,0,0,
,0.013,-0.408,0.381,-737.915,335.815,133.728,0,0,0,
,0.005,-0.502,0.418,-778.382,338.867,113.037,0,0,0,
,0.003,-0.233,0.539,-927.43,384.033,266.052,0,0,0,
,0.003,0.025,0.681,-944.642,457.763,327.331,0,0,0,
,0.02,-0.074,0.677,-671.875,559.692,227.722,0,0,0,
,0.091,-0.36,0.675,-495.301,653.625,118.896,0,0,0,
,0.198,-0.572,0.852,-495.24,602.478,89.416,0,0,0,
,0.185,-0.619,1.137,-520.142,436.706,111.084,0,0,0,
,0.051,-0.554,1.251,-806.763,384.155,76.049,0,0,0,
,-0.032,-0.428,1.412,-825.928,490.112,-1.038,0,0,0,
,0.074,-0.136,1.401,-459.656,531.372,89.05,0,0,0,
,0.284,-0.005,1.221,-137.574,466.186,137.024,0,0,0,
,0.4,-0.061,1.417,-138.306,196.716,-106.995,0,0,0,
,0.287,-0.405,1.531,169.311,-64.209,-211.487,0,0,0,
,0.083,-0.132,1.429,-3.968,-142.518,94.543,0,0,0,
,0.065,-0.01,1.421,4.516,-72.327,-8.606,0,0,0,
,0.182,-0.132,1.026,40.954,-32.349,-1.954,0,0,0,
,0.197,-0.182,0.983,-105.591,-71.534,-6.775,0,0,0,
,0.182,-0.087,0.969,-196.412,-40.955,1.831,0,0,0,
,0.17,0.028,0.962,-87.281,6.652,3.051,0,0,0,
,0.197,-0.045,1.028,112.121,16.662,-62.623,0,0,0,
,0.228,-0.326,0.952,78.918,5.432,-25.025,0,0,0,
,0.21,-0.314,1.01,-135.865,8.483,-26.612,0,0,0,
,0.18,-0.214,1.05,-183.289,7.08,-13.855,0,0,0,
,0.176,-0.079,1.007,-83.008,17.334,-0.367,0,0,0,
,0.18,-0.025,0.968,149.109,-7.874,-26.307,0,0,0,
,0.182,-0.122,0.909,437.317,-51.819,-54.627,0,0,0,
,0.198,-0.268,0.932,528.686,-105.896,-39.795,0,0,0,
,0.194,-0.348,0.977,384.704,-114.319,-14.832,0,0,0,
,0.19,-0.31,1.03,300.842,-96.009,-5.921,0,0,0,
,0.184,-0.22,1.042,441.345,-103.699,-2.503,0,0,0,
,0.175,-0.162,1.029,697.082,-111.878,-32.959,0,0,0,
,0.179,-0.204,0.972,989.38,-129.944,-85.328,0,0,0,
,0.188,-0.373,0.996,1649.047,-152.466,-120.911,0,0,0,
,0.146,-0.428,0.902,1792.114,-135.315,-136.292,0,0,0,
,0.14,-0.473,0.858,1917.48,-118.103,-132.996,0,0,0,
,0.147,-0.561,0.784,1968.444,-167.42,-168.824,0,0,0,
,0.123,-0.594,0.502,1935.608,-161.072,-158.692,0,0,0,
,0.021,-0.79,0.47,1648.254,-213.868,-240.601,0,0,0,
,0.049,-1.154,0.783,1509.521,-343.811,-277.894,0,0,0,
,0.001,-1.034,0.713,1145.446,-254.761,-129.639,0,0,0,
,-0.051,-0.733,0.611,892.028,-143.921,-104.31,0,0,0,
,-0.039,-0.526,0.45,1000.732,-80.933,-149.048,0,0,0,
,-0.009,-0.522,0.258,1090.942,-110.474,-160.462,0,0,0,
,-0.007,-0.892,0.278,1041.076,-163.147,-204.834,0,0,0,
,-0.045,-1.182,0.328,868.042,-180.359,-182.923,0,0,0,
,-0.082,-1.207,0.386,503.479,-123.475,-55.787,0,0,0,
,-0.096,-1.115,0.404,141.113,-27.894,-31.617,0,0,0,
,-0.033,-0.973,0.453,158.264,32.531,-44.8,0,0,0,
,0.061,-0.878,0.481,339.843,23.559,-25.635,0,0,0,
,0.057,-0.821,0.277,554.931,-60.12,-83.68,0,0,0,
,-0.015,-0.813,0.092,608.886,-125.306,-158.02,0,0,0,
,-0.055,-0.981,0.169,730.896,-108.887,-189.881,0,0,0,
,-0.087,-1.115,0.148,637.817,-62.195,-141.419,0,0,0,
,-0.09,-1.191,0.212,410.705,-57.312,-77.759,0,0,0,
,-0.073,-1.104,0.258,158.874,-26.246,-64.331,0,0,0,
,-0.042,-0.946,0.283,132.446,-15.748,-54.078,0,0,0,
,0,-0.847,0.269,324.768,3.112,-53.406,0,0,0,
,0.035,-0.938,0.19,453.125,-0.55,-76.966,0,0,0,
,0.034,-1.108,0.16,453.186,-21.973,-112.854,0,0,0,
,-0.005,-1.179,0.134,308.899,-37.476,-101.258,0,0,0,
,-0.038,-1.105,0.146,214.172,-20.386,-61.829,0,0,0,
,-0.035,-1.061,0.18,139.038,14.16,-29.664,0,0,0,
,-0.008,-1.049,0.201,134.887,20.752,-25.208,0,0,0,
,0.033,-1.034,0.138,113.769,33.874,-18.982,0,0,0,
,0.048,-1.035,0.112,88.623,21.667,-41.504,0,0,0,
,0.066,-1.092,0.114,82.336,24.169,-75.257,0,0,0,
,0.045,-1.116,0.082,23.315,-13.489,-73.792,0,0,0,
,0.012,-1.063,0.078,-25.513,-49.195,-41.871,0,0,0,
,0.009,-0.981,0.113,12.023,-45.777,-41.26,0,0,0,
,0.028,-0.965,0.176,64.819,-31.128,-63.599,0,0,0,
,0.034,-1.052,0.171,95.703,-28.138,-111.817,0,0,0,
,0.021,-1.068,0.135,77.575,-42.298,-130.31,0,0,0,
,0.01,-1.04,0.141,38.086,-46.753,-112.977,0,0,0,
,-0.004,-1.029,0.153,4.211,-52.918,-122.376,0,0,0,
,-0.012,-1.032,0.148,-29.908,-44.434,-152.039,0,0,0,
,-0.016,-1.037,0.162,-71.839,-55.481,-163.575,0,0,0,
,-0.026,-1.023,0.185,-75.074,-71.167,-168.702,0,0,0,
,-0.034,-0.983,0.205,-73.487,-86.976,-166.993,0,0,0,
,-0.041,-0.981,0.204,-46.082,-98.755,-165.589,0,0,0,
,-0.051,-1.006,0.189,-29.236,-109.436,-172.425,0,0,0,
,-0.066,-1.036,0.186,-56.763,-122.193,-164.673,0,0,0,
,-0.086,-1.026,0.144,-103.028,-128.968,-155.884,0,0,0,
,-0.103,-1.011,0.161,-117.554,-125.061,-146.973,0,0,0,
,-0.099,-1.005,0.159,-92.408,-115.601,-119.935,0,0,0,
,-0.098,-1.012,0.143,-65.857,-129.822,-97.046,0,0,0,
,-0.111,-1.001,0.154,-54.261,-144.288,-80.811,0,0,0,
,-0.128,-0.98,0.123,-55.237,-142.518,-79.224,0,0,0,
,-0.143,-1.007,0.128,-55.909,-127.442,-74.646,0,0,0,
,-0.146,-1.022,0.122,-64.393,-99.06,-59.693,0,0,0,
,-0.144,-1,0.146,-90.882,-85.389,-28.992,0,0,0,
,-0.136,-0.962,0.128,-69.031,-74.097,-11.841,0,0,0,
,-0.132,-0.969,0.15,-32.837,-78.98,-2.442,0,0,0,
,-0.132,-0.966,0.149,-18.311,-77.088,4.76,0,0,0,
,-0.14,-0.99,0.134,-35.096,-79.285,-2.076,0,0,0,
,-0.134,-1.022,0.165,-48.401,-67.81,-0.123,0,0,0,
,-0.125,-1.028,0.207,-91.492,-55.542,23.62,0,0,0,
,-0.101,-0.996,0.229,-93.995,-51.27,20.996,0,0,0,
,-0.08,-0.964,0.211,-71.228,-73.487,16.174,0,0,0,
,-0.069,-0.938,0.198,6.408,-117.493,15.38,0,0,0,
,-0.079,-0.952,0.214,31.677,-144.532,-8.973,0,0,0,
,-0.08,-1.01,0.201,44.982,-161.622,-43.213,0,0,0,
,-0.094,-1,0.196,28.564,-186.707,-44.861,0,0,0,
,-0.111,-0.951,0.2,29.785,-195.923,-52.369,0,0,0,
,-0.128,-0.927,0.193,88.073,-210.328,-50.049,0,0,0,
,-0.157,-0.945,0.167,121.032,-226.441,-33.448,0,0,0,
,-0.199,-0.986,0.14,106.506,-244.019,-9.583,0,0,0,
,-0.247,-1.007,0.169,71.228,-250.428,24.902,0,0,0,
,-0.286,-1.08,0.102,-79.773,-195.069,26.733,0,0,0,
,-0.303,-1.051,0.061,-145.264,-152.71,53.039,0,0,0,
,-0.312,-1.011,0.102,-114.624,-139.527,112.609,0,0,0,
,-0.343,-0.997,0.141,-29.358,-126.404,113.037,0,0,0,
,-0.391,-0.998,0.12,33.081,-68.36,120.361,0,0,0,
,-0.398,-1.026,0.083,77.453,47.607,124.878,0,0,0,
,-0.351,-1.047,-0.029,52.856,162.048,126.159,0,0,0,
,-0.291,-1.065,-0.018,3.967,202.942,153.808,0,0,0,
,-0.257,-0.995,-0.039,-56.702,204.101,201.172,0,0,0,
,-0.256,-0.922,0.008,-75.989,217.895,198.12,0,0,0,
,-0.246,-0.881,0.009,-49.256,258.667,194.397,0,0,0,
,-0.214,-0.961,0.094,0.244,297.241,192.077,0,0,0,
,-0.191,-1.043,0.12,-54.017,322.082,210.876,0,0,0,
,-0.151,-0.974,0.173,-112.61,340.149,246.154,0,0,0,
,-0.079,-0.881,0.216,-50.477,359.069,244.445,0,0,0,
,-0.016,-0.914,0.218,61.401,363.464,205.017,0,0,0,
,0.029,-1.004,0.223,128.784,339.05,171.569,0,0,0,
,0.044,-1.085,0.185,97.045,307.556,142.761,0,0,0,
,0.077,-1.156,0.204,27.099,286.499,143.921,0,0,0,
,0.129,-1.121,0.198,-102.295,259.338,144.47,0,0,0,
,0.167,-1.015,0.232,-158.57,211.731,115.295,0,0,0,
,0.178,-0.948,0.259,-91.492,168.09,89.843,0,0,0,
,0.179,-0.923,0.248,10.315,148.803,67.138,0,0,0,
,0.185,-0.99,0.201,93.322,140.625,47.79,0,0,0,
,0.206,-0.996,0.175,107.727,137.085,33.142,0,0,0,
,0.212,-1.03,0.162,108.947,112.06,23.437,0,0,0,
,0.228,-1.068,0.178,59.997,102.844,8.789,0,0,0,
,0.183,-0.955,0.178,-19.532,-26.429,-23.499,0,0,0,
,0.11,-0.986,0.168,-2.015,9.216,-20.02,0,0,0,
,0.072,-0.976,0.103,48.156,29.846,-17.212,0,0,0,
,0.051,-1.164,0.156,21.728,67.932,32.836,0,0,0,
,0.055,-0.964,-0.034,-145.508,134.948,72.815,0,0,0,
,0.12,-0.922,0.125,-126.038,90.087,57.006,0,0,0,
,0.072,-1.098,0.141,-209.473,68.725,40.771,0,0,0,
,0.068,-0.973,0.278,-262.452,77.331,113.708,0,0,0,
,0.207,-0.757,0.319,50.293,128.967,-112.244,0,0,0,
,0.124,-1.303,0.316,100.341,-33.02,-50.232,0,0,0,
,0.039,-1.061,0.268,-116.333,-19.715,25.573,0,0,0,
,0.058,-1.09,0.21,23.742,-23.194,-61.829,0,0,0,
,0.005,-0.992,0.195,-7.63,-23.743,-25.025,0,0,0,
,0.013,-0.992,0.208,-23.194,22.949,-24.476,0,0,0,
,0.042,-1.043,0.23,-9.034,27.343,-21.973,0,0,0,
,0.054,-1.01,0.195,-36.194,26.611,-19.41,0,0,0,
,0.039,-0.978,0.2,-43.885,2.319,-1.77,0,0,0,
,0.04,-0.928,0.156,-26.429,45.166,-18.738,0,0,0,
,0.061,-1.018,0.198,6.836,44.799,-10.621,0,0,0,
,0.091,-1.081,0.226,-14.71,67.321,-38.269,0,0,0,
,0.163,-1.153,0.289,-85.206,81.298,-29.786,0,0,0,
,0.185,-1.026,0.301,-112.183,2.563,-24.109,0,0,0,
,0.136,-0.917,0.239,-52.491,-54.932,-47.669,0,0,0,
,0.095,-0.984,0.281,-20.813,-33.997,-52.308,0,0,0,
,0.101,-0.909,0.236,-20.63,-22.156,-45.105,0,0,0,
,0.106,-0.92,0.224,-6.958,-29.664,-23.56,0,0,0,
,0.087,-0.91,0.19,26.672,-34.241,-28.138,0,0,0,
,0.076,-0.971,0.197,47.485,-20.997,-24.537,0,0,0,
,0.063,-0.989,0.189,39.306,-11.841,-9.156,0,0,0,
,0.065,-0.967,0.196,46.02,-3.052,2.441,0,0,0,
,0.061,-0.994,0.201,65.856,-15.442,-14.222,0,0,0,
,0.033,-1.023,0.201,77.27,-32.959,-19.593,0,0,0,
,0.019,-1.019,0.212,81.543,-13.184,-25.513,0,0,0,
,0.041,-1.059,0.208,68.664,10.315,-29.541,0,0,0,
,0.063,-1.081,0.195,33.325,12.695,-50.965,0,0,0,
,0.062,-1.046,0.2,14.465,-5.127,-40.528,0,0,0,
,0.05,-1.002,0.207,19.592,1.892,-42.542,0,0,0,
,0.057,-0.995,0.207,16.174,5.737,-45.411,0,0,0,
,0.031,-0.969,0.232,25.94,-7.63,-31.373,0,0,0,
,0.06,-0.959,0.22,40.1,-0.367,-40.406,0,0,0,
,0.066,-1.003,0.231,33.935,1.831,-41.687,0,0,0,
,0.062,-1,0.212,20.141,-6.958,-29.602,0,0,0,
,0.062,-1,0.209,13.855,0.976,-28.382,0,0,0,
,0.073,-0.978,0.218,46.386,-8.667,-19.959,0,0,0,
,0.065,-0.997,0.202,70.19,-6.714,-29.786,0,0,0,
,0.06,-1.09,0.208,59.387,-3.479,-46.448,0,0,0,
,0.047,-1.058,0.166,26.611,-17.151,-42.176,0,0,0,
,0.041,-1.039,0.189,4.516,-3.968,-36.316,0,0,0,
,0.032,-0.996,0.181,-27.405,1.77,-33.631,0,0,0,
,0.037,-0.946,0.182,-6.775,20.813,-55.115,0,0,0,
,0.047,-1.036,0.206,21.667,36.926,-81.177,0,0,0,
,0.051,-1.019,0.208,15.136,24.536,-53.284,0,0,0,
,0.042,-0.982,0.241,39.306,6.164,-45.105,0,0,0,
,0.023,-1.015,0.215,50.109,12.207,-50.599,0,0,0,
,0.01,-1.018,0.206,18.371,-4.944,-40.65,0,0,0,
,-0.007,-1.013,0.188,-13.977,9.277,-27.466,0,0,0,
,0.011,-0.991,0.192,-30.823,28.137,-28.992,0,0,0,
,0.004,-0.956,0.209,12.329,7.812,-36.683,0,0,0,
,-0.019,-1.015,0.182,67.138,31.494,-34.974,0,0,0,
,-0.016,-1.055,0.17,69.274,64.148,-27.222,0,0,0,
,0.015,-1.102,0.161,26.916,90.21,-8.912,0,0,0,
,0.035,-1.068,0.185,-49.622,65.734,19.104,0,0,0,
,0.039,-1.02,0.206,-97.535,50.231,-10.987,0,0,0,
,0.049,-1.005,0.19,-100.647,51.33,-6.897,0,0,0,
,0.065,-0.952,0.169,-70.923,58.776,-11.414,0,0,0,
,0.068,-0.992,0.163,-23.56,42.114,-21.79,0,0,0,
,0.074,-1.095,0.227,-99.61,50.231,16.845,0,0,0,
,0.084,-0.985,0.201,-173.34,65.246,61.218,0,0,0,
,0.088,-0.912,0.15,-168.213,80.444,65.795,0,0,0,
,0.092,-0.928,0.147,-131.897,76.294,43.335,0,0,0,
,0.094,-0.958,0.249,-76.355,72.143,47.546,0,0,0,
,0.12,-1.025,0.257,108.154,71.777,-68.726,0,0,0,
,0.095,-1.186,0.289,0.671,41.565,25.756,0,0,0,
,0.046,-0.941,0.212,-88.013,68.359,33.142,0,0,0,
,0.113,-1.057,0.291,48.767,38.147,-46.814,0,0,0,
,0.083,-1.049,0.24,15.625,10.131,0,0,0,0,
,0.077,-0.973,0.231,14.465,25.756,1.098,0,0,0,
,0.096,-0.981,0.232,48.278,46.325,-2.747,0,0,0,
,0.091,-1.008,0.207,62.194,42.053,-20.691,0,0,0,
,0.064,-1.024,0.197,45.898,44.25,-19.898,0,0,0,
,0.092,-0.993,0.225,-16.48,89.538,-0.489,0,0,0,
,0.103,-0.961,0.246,20.019,72.753,-4.212,0,0,0,
,0.079,-0.972,0.22,37.78,61.584,-18.86,0,0,0,
,0.064,-1,0.236,34.118,54.87,-0.855,0,0,0,
,0.069,-0.977,0.247,18.127,78.125,9.765,0,0,0,
,0.13,-0.974,0.239,74.096,74.462,0.854,0,0,0,
,0.143,-1.019,0.292,58.288,44.311,11.474,0,0,0,
,0.118,-0.903,0.263,85.815,5.493,4.028,0,0,0,
,0.104,-0.887,0.239,207.702,13.122,-13.489,0,0,0,
,0.073,-0.998,0.145,241.699,39.917,-25.147,0,0,0,
,0.084,-1.067,0.104,179.138,85.632,-20.203,0,0,0,
,0.129,-1.042,0.068,104.675,93.017,-27.832,0,0,0,
,0.133,-1.011,0.126,53.222,20.813,-26.001,0,0,0,
,0.115,-0.934,0.204,68.42,-8.057,-13.001,0,0,0,
,0.131,-0.89,0.245,158.142,3.479,-30.64,0,0,0,
,0.156,-0.943,0.214,223.755,-3.846,-52.735,0,0,0,
,0.13,-1.004,0.172,227.6,-50.049,-34.607,0,0,0,
,0.091,-0.973,0.154,221.313,-56.031,-23.072,0,0,0,
,0.094,-0.961,0.119,231.994,-22.095,-32.166,0,0,0,
,0.117,-1.018,0.104,249.084,-11.597,-55.848,0,0,0,
,0.124,-1.062,0.118,251.77,-35.523,-52.002,0,0,0,
,0.099,-1.073,0.115,251.648,-66.224,-36.744,0,0,0,
,0.081,-1.111,0.131,248.169,-59.876,-48.706,0,0,0,
,0.084,-1.088,0.107,215.515,-41.81,-60.975,0,0,0,
,0.098,-1.1,0.107,218.322,-40.833,-77.088,0,0,0,
,0.088,-1.116,0.068,213.501,-52.491,-93.811,0,0,0,
,0.077,-1.193,0.085,183.593,-58.838,-115.113,0,0,0,
,0.074,-1.232,0.086,125.793,-62.989,-132.996,0,0,0,
,0.086,-1.223,0.105,111.633,-76.477,-143.128,0,0,0,
,0.073,-1.199,0.094,74.035,-81.727,-164.185,0,0,0,
,0.06,-1.241,0.046,22.522,-73.06,-193.482,0,0,0,
,0.036,-1.298,0.023,-119.629,-72.876,-231.69,0,0,0,
,0.037,-1.287,0.059,-220.459,-51.819,-253.296,0,0,0,
,0.01,-1.172,0.037,-208.558,-49.195,-301.148,0,0,0,
,-0.008,-1.205,0.069,-164.185,-26.795,-347.352,0,0,0,
,-0.004,-1.253,0.035,-195.374,-4.822,-364.136,0,0,0,
,-0.002,-1.225,-0.026,-326.416,-12.33,-442.566,0,0,0,
,-0.006,-1.276,0.147,-474.61,-88.196,-436.158,0,0,0,
,-0.048,-1.221,0.061,-779.358,-98.755,-430.176,0,0,0,
,-0.067,-1.376,0.002,-1197.083,-17.884,-487.671,0,0,0,
,-0.041,-1.303,-0.021,-1629.578,9.338,-397.889,0,0,0,
,-0.038,-0.862,0.027,-1904.908,21.423,-290.039,0,0,0,
,-0.053,-0.528,0.101,-1848.511,27.526,-261.719,0,0,0,
