TIMECODE,ACC_X,ACC_Y,ACC_Z,GYR_X,GYR_Y,GYR_Z,ECG_I,ECG_II,ECG_III,TAG
,-0.007,0.331,0.929,-14.405,10.07,-21.119,0,0,0,
,-0.018,0.33,0.94,-17.029,8.789,-19.104,0,0,0,
,-0.018,0.342,0.924,-14.039,12.939,-16.297,0,0,0,
,-0.013,0.351,0.931,-2.198,13.794,-19.776,0,0,0,
,-0.011,0.327,0.928,2.014,11.474,-19.776,0,0,0,
,-0.012,0.316,0.937,-7.447,11.047,-17.884,0,0,0,
,-0.016,0.323,0.938,-20.569,16.296,-17.151,0,0,0,
,-0.01,0.327,0.931,-29.908,15.686,-20.386,0,0,0,
,-0.012,0.356,0.928,-26.001,17.944,-18.982,0,0,0,
,-0.009,0.35,0.92,-15.87,11.901,-24.476,0,0,0,
,-0.015,0.35,0.929,-5.433,16.723,-20.569,0,0,0,
,-0.012,0.345,0.932,1.892,18.371,-21.424,0,0,0,
,-0.009,0.313,0.928,1.586,21.24,-19.532,0,0,0,
,-0.005,0.331,0.93,-1.709,16.723,-22.828,0,0,0,
,-0.008,0.339,0.93,-5.127,16.784,-19.349,0,0,0,
,-0.007,0.346,0.928,-8.057,15.747,-23.56,0,0,0,
,-0.009,0.343,0.93,-6.409,14.587,-20.447,0,0,0,
,-0.008,0.354,0.923,0.244,13.427,-19.165,0,0,0,
,-0.011,0.352,0.932,5.798,10.253,-22.156,0,0,0,
,-0.011,0.334,0.926,4.699,14.77,-21.119,0,0,0,
,-0.009,0.337,0.932,-4.517,14.953,-21.546,0,0,0,
,-0.007,0.336,0.926,-13.428,13.916,-19.898,0,0,0,
,-0.007,0.338,0.933,-17.823,14.709,-19.471,0,0,0,
,-0.005,0.352,0.925,-18.189,17.456,-20.813,0,0,0,
,-0.005,0.358,0.921,-10.437,15.564,-22.889,0,0,0,
,-0.011,0.366,0.926,0.549,15.38,-20.264,0,0,0,
,-0.006,0.349,0.92,3.784,13.916,-21.424,0,0,0,
,-0.006,0.346,0.93,5.004,14.587,-18.921,0,0,0,
,-0.006,0.337,0.921,-2.259,15.747,-18.677,0,0,0,
,-0.005,0.338,0.931,-6.958,14.099,-19.288,0,0,0,
,-0.008,0.354,0.93,-12.696,16.479,-19.776,0,0,0,
,-0.005,0.357,0.926,-11.963,14.404,-24.537,0,0,0,
,-0.002,0.369,0.918,0,14.77,-23.316,0,0,0,
,-0.005,0.356,0.913,11.84,12.878,-23.865,0,0,0,
,-0.006,0.355,0.932,15.014,12.207,-21.546,0,0,0,
,-0.009,0.315,0.922,12.878,15.808,-22.706,0,0,0,
,-0.003,0.342,0.926,6.713,13.244,-23.865,0,0,0,
,-0.001,0.348,0.917,2.563,18.554,-20.081,0,0,0,
,0,0.343,0.923,2.38,13.61,-21.546,0,0,0,
,0,0.35,0.924,-1.038,16.54,-18.067,0,0,0,
,0.002,0.347,0.923,-2.991,11.962,-20.447,0,0,0,
,-0.007,0.353,0.926,-5.433,14.526,-16.602,0,0,0,
,-0.004,0.356,0.919,-2.32,14.526,-18.677,0,0,0,
,-0.006,0.363,0.926,2.685,12.939,-18.982,0,0,0,
,-0.005,0.356,0.92,4.821,16.479,-19.41,0,0,0,
,-0.002,0.358,0.929,8.483,15.197,-23.804,0,0,0,
,-0.002,0.349,0.923,5.92,16.784,-20.63,0,0,0,
,0.002,0.346,0.928,2.197,13.305,-21.912,0,0,0,
,0,0.358,0.924,-0.061,17.822,-17.64,0,0,0,
,0.001,0.348,0.924,1.037,11.962,-22.156,0,0,0,
,-0.002,0.356,0.926,1.22,14.16,-17.395,0,0,0,
,-0.002,0.355,0.917,2.563,11.901,-19.593,0,0,0,
,0,0.355,0.932,2.441,9.521,-18.738,0,0,0,
,-0.005,0.352,0.912,1.525,9.46,-18.982,0,0,0,
,-0.005,0.352,0.925,-1.648,12.634,-21.546,0,0,0,
,0.002,0.358,0.918,-3.235,12.939,-19.654,0,0,0,
,0,0.364,0.918,1.525,10.192,-23.499,0,0,0,
,-0.002,0.36,0.925,7.385,10.376,-20.142,0,0,0,
,-0.002,0.349,0.923,7.568,7.446,-22.278,0,0,0,
,-0.003,0.347,0.934,3.356,9.643,-20.264,0,0,0,
,-0.003,0.346,0.921,-3.968,11.962,-21.363,0,0,0,
,0,0.353,0.929,-8.728,10.07,-22.095,0,0,0,
,-0.003,0.36,0.919,-7.203,12.878,-20.142,0,0,0,
,0.003,0.36,0.928,-5.982,10.192,-22.217,0,0,0,
,0,0.366,0.925,-0.977,13.061,-19.104,0,0,0,
,0.002,0.358,0.92,2.441,10.376,-22.583,0,0,0,
,0.003,0.357,0.92,5.737,9.46,-17.518,0,0,0,
,0.001,0.359,0.917,8.789,5.065,-18.799,0,0,0,
,-0.003,0.362,0.929,7.812,4.089,-18.189,0,0,0,
,-0.004,0.351,0.918,5.981,8.361,-21.546,0,0,0,
,0.002,0.344,0.926,-1.831,7.141,-23.438,0,0,0,
,0.001,0.356,0.919,-5.555,8.667,-19.104,0,0,0,
,0.003,0.358,0.919,-5.005,6.53,-22.522,0,0,0,
,0.001,0.365,0.921,15.197,6.774,-17.884,0,0,0,
,0,0.35,0.92,0.366,3.479,-19.776,0,0,0,
,-0.001,0.363,0.928,-0.733,7.69,-17.518,0,0,0,
,-0.003,0.359,0.918,-0.245,7.324,-22.583,0,0,0,
,0.001,0.365,0.928,1.464,8.606,-18.921,0,0,0,
,0,0.367,0.918,7.751,8.117,-20.325,0,0,0,
,-0.032,0.363,0.925,10.864,6.225,-20.081,0,0,0,
,-0.001,0.356,0.92,6.774,9.582,-16.907,0,0,0,
,0.002,0.353,0.92,3.784,7.751,-18.433,0,0,0,
,-0.001,0.357,0.927,-2.808,8.667,-18.494,0,0,0,
,-0.001,0.354,0.915,-6.348,7.202,-19.959,0,0,0,
,-0.002,0.371,0.927,-6.165,7.751,-19.288,0,0,0,
,-0.003,0.363,0.911,-0.061,7.385,-21.79,0,0,0,
,-0.003,0.368,0.922,3.479,5.615,-19.471,0,0,0,
,-0.003,0.367,0.914,10.986,8.3,-18.616,0,0,0,
,0.001,0.355,0.921,11.962,4.211,-20.874,0,0,0,
,0.001,0.36,0.921,9.582,5.737,-17.273,0,0,0,
,-0.001,0.356,0.918,6.897,4.333,-20.203,0,0,0,
,-0.002,0.358,0.924,3.784,3.295,-18.067,0,0,0,
,-0.005,0.355,0.917,-1.77,3.54,-18.799,0,0,0,
,-0.004,0.366,0.925,-1.16,5.432,-19.043,0,0,0,
,0,0.37,0.914,3.845,8.667,-19.776,0,0,0,
,-0.004,0.365,0.922,9.521,4.943,-20.264,0,0,0,
,-0.004,0.362,0.921,8.483,6.103,-17.945,0,0,0,
,-0.005,0.353,0.924,3.234,8.483,-21.729,0,0,0,
,-0.003,0.359,0.918,-2.076,10.315,-20.02,0,0,0,
,0.002,0.366,0.916,-0.55,8.117,-20.447,0,0,0,
,0,0.377,0.92,7.995,4.577,-16.968,0,0,0,
,-0.004,0.36,0.917,12.939,3.295,-18.433,0,0,0,
,-0.004,0.363,0.915,10.864,3.601,-16.785,0,0,0,
,-0.007,0.354,0.921,6.164,2.014,-19.165,0,0,0,
,-0.006,0.357,0.917,3.967,6.652,-16.053,0,0,0,
,-0.002,0.366,0.918,5.981,4.089,-20.081,0,0,0,
,-0.004,0.367,0.917,7.751,3.479,-18.067,0,0,0,
,-0.009,0.359,0.913,13.305,5.737,-19.837,0,0,0,
,-0.01,0.366,0.924,16.784,7.08,-17.395,0,0,0,
,-0.007,0.362,0.915,16.174,9.704,-19.104,0,0,0,
,-0.006,0.353,0.926,12.085,6.286,-21.119,0,0,0,
,-0.008,0.361,0.921,8.422,10.131,-18.311,0,0,0,
,-0.003,0.36,0.922,9.582,7.995,-21.607,0,0,0,
,-0.002,0.37,0.919,14.099,10.009,-16.358,0,0,0,
,-0.007,0.346,0.921,11.901,3.906,-18.799,0,0,0,
,-0.008,0.358,0.93,3.112,3.723,-21.79,0,0,0,
,-0.003,0.361,0.917,3.051,6.897,-22.461,0,0,0,
,-0.004,0.366,0.924,7.446,3.173,-22.095,0,0,0,
,-0.005,0.366,0.919,12.573,4.028,-17.945,0,0,0,
,-0.005,0.357,0.92,18.493,2.197,-19.471,0,0,0,
,-0.006,0.358,0.924,18.005,1.159,-16.846,0,0,0,
,-0.006,0.348,0.924,13.794,1.525,-19.776,0,0,0,
,-0.01,0.357,0.926,8.483,2.624,-17.273,0,0,0,
,-0.009,0.353,0.915,5.859,4.821,-22.339,0,0,0,
,-0.01,0.367,0.927,8.972,7.507,-18.799,0,0,0,
,-0.007,0.365,0.918,13.305,6.042,-17.884,0,0,0,
,-0.005,0.361,0.924,17.7,6.53,-17.945,0,0,0,
,-0.005,0.358,0.918,21.057,8.483,-15.625,0,0,0,
,-0.007,0.348,0.925,18.493,3.601,-16.419,0,0,0,
,-0.01,0.355,0.928,15.808,7.751,-15.32,0,0,0,
,-0.011,0.352,0.919,13.427,7.568,-18.128,0,0,0,
,-0.011,0.36,0.927,16.479,8.789,-18.555,0,0,0,
,-0.01,0.361,0.919,24.047,9.155,-21.729,0,0,0,
,-0.005,0.352,0.927,26.489,5.127,-21.485,0,0,0,
,-0.007,0.351,0.92,25.207,7.629,-17.579,0,0,0,
,-0.006,0.349,0.922,20.568,3.662,-20.63,0,0,0,
,-0.007,0.35,0.93,14.709,4.211,-18.25,0,0,0,
,-0.008,0.346,0.92,12.329,4.516,-18.128,0,0,0,
,-0.008,0.356,0.931,15.869,4.882,-14.222,0,0,0,
,-0.008,0.357,0.917,21.362,3.418,-11.109,0,0,0,
,-0.007,0.354,0.927,31.005,-0.733,-9.705,0,0,0,
,-0.012,0.352,0.923,29.785,-0.184,-6.775,0,0,0,
,-0.011,0.34,0.935,26.794,-2.625,-11.902,0,0,0,
,-0.016,0.336,0.932,14.892,1.525,-9.339,0,0,0,
,-0.015,0.34,0.924,6.408,-0.733,-14.344,0,0,0,
,-0.012,0.352,0.932,4.211,4.211,-13.367,0,0,0,
,-0.011,0.355,0.919,10.681,2.746,-12.146,0,0,0,
,-0.013,0.357,0.929,16.296,15.014,-10.071,0,0,0,
,-0.013,0.355,0.919,24.475,1.831,-10.071,0,0,0,
,-0.019,0.337,0.935,24.536,-0.672,-12.269,0,0,0,
,-0.021,0.334,0.932,16.662,5.004,-14.039,0,0,0,
,-0.018,0.333,0.929,3.356,5.737,-20.386,0,0,0,
,-0.015,0.347,0.922,0.122,8.606,-17.456,0,0,0,
,-0.013,0.352,0.921,4.272,7.324,-18.006,0,0,0,
,-0.017,0.358,0.928,10.253,6.347,-17.09,0,0,0,
,-0.022,0.349,0.928,14.099,9.582,-24.353,0,0,0,
,-0.025,0.337,0.932,10.437,14.526,-27.649,0,0,0,
,-0.019,0.334,0.927,5.615,17.395,-31.556,0,0,0,
,-0.019,0.333,0.933,-5.738,18.432,-36.072,0,0,0,
,-0.02,0.341,0.928,-12.818,20.69,-43.152,0,0,0,
,-0.021,0.34,0.93,-18.555,20.141,-52.674,0,0,0,
,-0.02,0.351,0.934,-19.898,28.93,-55.97,0,0,0,
,-0.016,0.367,0.929,-16.358,42.419,-57.251,0,0,0,
,-0.001,0.38,0.92,4.638,47.607,-57.068,0,0,0,
,0.013,0.379,0.91,27.282,41.137,-51.514,0,0,0,
,0.013,0.369,0.921,51.391,32.836,-43.152,0,0,0,
,0.003,0.339,0.927,59.509,28.442,-35.401,0,0,0,
,0.009,0.312,0.931,46.752,26.855,-25.513,0,0,0,
,0.012,0.327,0.932,31.799,26.794,-13.611,0,0,0,
,0.005,0.322,0.931,20.385,20.935,-10.682,0,0,0,
,-0.001,0.329,0.935,9.826,20.874,-2.32,0,0,0,
,-0.005,0.361,0.926,14.831,24.292,-5.005,0,0,0,
,-0.004,0.361,0.94,23.254,31.005,-16.785,0,0,0,
,-0.016,0.321,0.926,19.287,16.174,-27.466,0,0,0,
,-0.015,0.317,0.948,1.586,23.498,-34.302,0,0,0,
,-0.012,0.337,0.944,-7.203,32.104,-40.467,0,0,0,
,-0.008,0.36,0.941,0.549,31.372,-51.331,0,0,0,
,-0.017,0.356,0.958,4.028,41.381,-63.172,0,0,0,
,-0.022,0.333,0.969,-19.898,70.251,-81.604,0,0,0,
,-0.041,0.302,0.991,-72.876,99.304,-104.371,0,0,0,
,-0.083,0.276,1.053,-177.124,141.357,-111.878,0,0,0,
,-0.113,0.232,1.08,-287.72,184.265,-89.6,0,0,0,
,-0.128,0.248,1.186,-394.288,130.615,-26.49,0,0,0,
,-0.166,0.417,1.285,-407.166,174.56,60.974,0,0,0,
,-0.134,0.502,1.429,-331.299,167.785,135.62,0,0,0,
,-0.164,0.38,1.69,-8.973,64.575,263.183,0,0,0,
,0.126,0.559,1.437,-464.783,343.811,-187.439,0,0,0,
,0.146,0.598,1.632,-858.765,-104.126,-195.984,0,0,0,
,0.17,0.737,1.68,-1014.832,-181.031,-30.335,0,0,0,
,0.431,1.025,1.46,-1197.51,-411.499,187.133,0,0,0,
,0.57,1.685,1.339,-983.704,-816.468,481.75,0,0,0,
,0.659,2.325,1.443,-439.148,-1129.883,819.946,0,0,0,
,0.778,2.178,1.452,-167.237,-1282.837,933.899,0,0,0,
,0.93,1.733,1.243,-403.382,-1379.395,1221.801,0,0,0,
,1.097,1.696,0.847,-722.046,-1547.974,1681.335,0,0,0,
,1.153,1.822,0.647,-690.003,-1750.062,1999.694,0,0,0,
,1.133,1.699,0.398,-532.959,-1791.199,1999.694,0,0,0,
,1.25,1.168,0.042,-345.276,-1875.489,1999.694,0,0,0,
,1.213,0.513,-0.286,-185.303,-1999.756,1999.694,0,0,0,
,1.237,0.129,-0.61,-93.079,-2000,1999.694,0,0,0,
,1.088,-0.663,-0.926,88.867,-2000,1999.694,0,0,0,
,0.862,-1.643,-0.883,267.822,-2000,1999.694,0,0,0,
,0.968,-2.627,-1.09,776.55,-2000,1999.694,0,0,0,
,1.459,-3.233,-0.787,1546.325,-2000,1999.694,0,0,0,
,0.249,-4,-0.981,1290.283,-847.474,1999.694,0,0,0,
,-0.494,-2.081,-1.317,1563.293,623.657,371.826,0,0,0,
,0.159,-3.251,-0.86,96.252,1817.382,-2000,0,0,0,
,0.464,-1.98,-0.585,-1311.646,1999.694,-2000,0,0,0,
,0.717,-1.223,-0.767,-1994.08,1999.694,-2000,0,0,0,
,0.64,-0.767,-0.61,-2000,1794.189,-2000,0,0,0,
,0.462,-0.156,-0.125,-1542.908,1527.16,-2000,0,0,0,
,0.009,0.953,0.632,-421.57,1712.646,-2000,0,0,0,
,-0.195,2.431,0.944,191.345,1999.694,-2000,0,0,0,
,-0.187,2.034,0.608,430.481,1999.694,-2000,0,0,0,
,-0.181,1.348,-0.148,1697.509,1999.694,-2000,0,0,0,
,0.646,1.097,-0.261,1940.551,1782.714,-1583.436,0,0,0,
,1.386,1.021,0.078,1921.203,917.602,-545.716,0,0,0,
,0.802,1.577,1.975,519.775,-78.309,-166.687,0,0,0,
,-0.563,1.458,2.425,-165.772,859.802,-620.362,0,0,0,
,-0.528,1.081,1.758,-10.987,1057.617,-550.415,0,0,0,
,-0.316,0.929,1.224,-3.235,1086.792,-400.574,0,0,0,
,-0.189,1.069,0.941,298.523,1043.701,-340.455,0,0,0,
,-0.184,0.969,1.062,743.286,929.26,-310.852,0,0,0,
,-0.164,0.729,1.421,1119.384,968.2,-230.347,0,0,0,
,-0.051,0.438,1.416,1261.169,1105.163,-171.509,0,0,0,
,0.106,0.132,1.225,1083.313,1047.18,-149.292,0,0,0,
,0.22,0.012,1.061,757.995,812.683,-192.017,0,0,0,
,0.23,-0.041,1.147,239.868,505.676,-203.736,0,0,0,
,0.206,0.172,1.174,-88.257,451.721,-126.16,0,0,0,
,0.252,0.36,1.102,-171.387,442.993,-68.909,0,0,0,
,0.361,0.446,1.073,-126.648,309.021,6.103,0,0,0,
,0.327,0.547,1,151.123,78.491,62.683,0,0,0,
,0.087,0.161,0.983,119.873,-66.163,-82.337,0,0,0,
,-0.087,0.215,0.994,-57.435,101.623,5.554,0,0,0,
,0,0.336,0.973,-53.04,325.927,-42.054,0,0,0,
,0.205,-0.074,0.86,-260.071,481.628,12.207,0,0,0,
,0.264,0.024,0.828,-794.312,365.6,81.42,0,0,0,
,0.184,0.556,0.923,-600.159,217.224,116.211,0,0,0,
,0.254,0.412,0.971,-289.612,193.176,-28.382,0,0,0,
,0.364,0.413,0.928,-122.803,103.149,-73.243,0,0,0,
,0.298,0.181,0.874,-72.449,-81.665,-43.885,0,0,0,
,0.161,0.251,0.8,-275.696,-105.591,70.068,0,0,0,
,0.14,0.299,0.768,-476.868,-90.149,82.885,0,0,0,
,0.149,0.394,0.741,-622.742,-61.219,197.631,0,0,0,
,0.169,0.517,0.675,-693.055,-71.167,207.946,0,0,0,
,0.174,0.611,0.773,-651.49,-143.616,169.067,0,0,0,
,0.138,0.503,0.771,-595.093,-93.018,160.278,0,0,0,
,0.186,0.522,0.749,-612.366,-80.445,204.04,0,0,0,
,0.193,0.564,0.728,-642.09,-134.095,227.172,0,0,0,
,0.123,0.57,0.78,-686.402,-149.659,243.042,0,0,0,
,0.057,0.611,0.771,-698.914,-95.765,260.192,0,0,0,
,0.084,0.796,0.864,-566.468,-43.335,221.984,0,0,0,
,0.061,0.737,0.782,-277.161,61.889,158.02,0,0,0,
,0.144,0.697,0.702,-231.08,106.567,113.891,0,0,0,
,0.152,0.569,0.633,-303.956,-43.58,34.729,0,0,0,
,0.054,0.573,0.679,-361.695,-98.145,126.953,0,0,0,
,-0.013,0.689,0.718,-391.053,-135.437,212.402,0,0,0,
,-0.001,0.845,0.715,-339.6,-103.699,187.866,0,0,0,
,0.008,0.708,0.562,-363.953,-62.195,68.054,0,0,0,
,0.015,0.654,0.514,-515.686,-169.983,109.741,0,0,0,
,0.053,0.914,0.684,-503.968,-349.671,217.529,0,0,0,
,-0.065,1.147,0.809,-124.146,-288.147,214.172,0,0,0,
,-0.093,0.806,0.743,-23.377,-143.494,57.983,0,0,0,
,-0.131,0.728,0.723,-94.056,-97.474,94.299,0,0,0,
,-0.137,0.88,0.645,-162.903,-51.331,175.171,0,0,0,
,-0.084,0.891,0.597,-255.127,-65.064,164.795,0,0,0,
,-0.145,0.666,0.462,-496.46,49.499,212.036,0,0,0,
,-0.111,1.003,0.602,-573.914,-109.192,337.646,0,0,0,
,-0.102,1.263,0.665,-84.229,-82.886,325.805,0,0,0,
,-0.094,0.837,0.539,225.952,-43.641,207.092,0,0,0,
,-0.149,0.519,0.532,61.95,-51.27,206.176,0,0,0,
,-0.195,0.471,0.571,-280.091,-7.447,291.32,0,0,0,
,-0.211,0.771,0.512,-375.367,100.036,447.998,0,0,0,
,-0.133,0.815,0.42,-596.314,133.789,389.892,0,0,0,
,-0.185,0.888,0.42,-725.769,142.517,375.854,0,0,0,
,-0.204,1.002,0.346,-528.931,173.767,391.174,0,0,0,
,-0.187,0.882,0.28,-372.681,171.02,342.712,0,0,0,
,-0.245,1.045,0.282,-136.475,162.658,465.271,0,0,0,
,-0.187,1.061,0.22,162.597,142.089,419.677,0,0,0,
,-0.135,0.808,0.306,282.043,48.706,260.498,0,0,0,
,-0.176,0.674,0.652,341.43,19.653,226.562,0,0,0,
,-0.353,0.652,0.534,337.341,229.065,280.761,0,0,0,
,-0.221,0.644,0.477,262.695,298.767,260.803,0,0,0,
,-0.16,0.73,0.392,136.169,286.377,238.22,0,0,0,
,-0.196,0.765,0.465,68.359,264.038,175.415,0,0,0,
,-0.275,0.847,0.587,194.885,224.365,132.446,0,0,0,
,-0.248,0.698,0.632,230.59,206.543,128.051,0,0,0,
,-0.209,0.584,0.63,108.764,155.578,148.376,0,0,0,
,-0.225,0.803,0.542,7.446,150.573,227.111,0,0,0,
,-0.162,0.994,0.545,-73.06,104.126,203.186,0,0,0,
,-0.192,1.007,0.564,219.238,83.129,144.592,0,0,0,
,-0.167,0.796,0.603,555.359,-4.883,143.432,0,0,0,
,-0.191,0.645,0.673,539.672,-41.321,144.836,0,0,0,
,-0.21,0.596,0.743,479.675,-84.412,222.717,0,0,0,
,-0.275,0.708,0.764,230.346,-10.376,311.767,0,0,0,
,-0.138,0.86,0.589,34.179,119.629,340.332,0,0,0,
,-0.165,0.766,0.634,181.762,14.587,209.35,0,0,0,
,-0.296,0.781,0.706,385.62,45.959,282.714,0,0,0,
,-0.204,0.612,0.718,465.881,15.625,253.784,0,0,0,
,-0.232,0.559,0.787,513.305,72.998,317.993,0,0,0,
,-0.229,0.541,0.663,522.033,127.502,345.642,0,0,0,
,-0.203,0.605,0.614,441.04,142.273,316.955,0,0,0,
,-0.153,0.554,0.673,358.52,92.163,159.729,0,0,0,
,-0.275,0.491,0.821,405.151,148.925,179.565,0,0,0,
,-0.175,0.48,0.844,455.017,157.043,208.618,0,0,0,
,-0.165,0.543,0.786,437.133,215.088,193.664,0,0,0,
,0.077,0.32,0.922,258.117,-5.249,38.33,0,0,0,
,-0.202,0.171,0.969,1.281,-36.377,-30.579,0,0,0,
,-0.352,0.484,0.978,-5.555,25.695,68.603,0,0,0,
,-0.274,0.449,0.822,17.089,156.25,-37.171,0,0,0,
,-0.278,0.465,0.73,107.788,207.58,-11.109,0,0,0,
,-0.236,0.432,0.599,-20.02,211.303,24.047,0,0,0,
,-0.261,0.415,0.705,-163.697,105.468,10.315,0,0,0,
,-0.352,0.714,0.765,-254.883,52.124,-0.977,0,0,0,
,-0.26,0.836,0.823,147.155,-5.738,-77.454,0,0,0,
,-0.26,0.39,0.818,139.953,-51.026,-211.304,0,0,0,
,-0.342,0.433,0.885,45.593,-32.105,-56.214,0,0,0,
,-0.274,0.5,0.745,95.642,24.353,-3.052,0,0,0,
,-0.198,0.528,0.781,157.776,3.418,6.836,0,0,0,
,-0.217,0.669,0.791,288.757,45.898,25.634,0,0,0,
,-0.257,0.488,0.75,398.376,110.595,-113.099,0,0,0,
,-0.254,0.295,0.653,114.563,185.547,-112.732,0,0,0,
,-0.146,0.445,0.584,-164.795,168.884,-39.002,0,0,0,
,-0.197,0.526,0.594,-225.647,158.691,-43.885,0,0,0,
,-0.199,0.832,0.702,-210.633,135.864,50.293,0,0,0,
,-0.164,1.025,0.809,89.721,112.976,-17.456,0,0,0,
,-0.21,0.712,0.891,422.424,100.708,-147.889,0,0,0,
,-0.28,0.373,0.884,399.902,127.319,-148.56,0,0,0,
,-0.248,0.349,0.817,225.158,156.921,-90.394,0,0,0,
,-0.192,0.488,0.76,196.838,160.766,-66.224,0,0,0,
,-0.177,0.498,0.846,447.387,111.633,-127.32,0,0,0,
,-0.284,0.512,0.789,742.431,284.729,-126.221,0,0,0,
,-0.228,0.202,0.63,896.789,393.676,-307.435,0,0,0,
,-0.296,0.173,0.681,1021.362,594.116,-304.688,0,0,0,
,-0.146,-0.085,0.31,1023.681,778.686,-364.258,0,0,0,
,0.202,-0.33,0.694,233.947,469.909,-409.485,0,0,0,
,0.147,0.583,1.161,98.144,507.263,14.587,0,0,0,
,0.318,0.696,2.093,-881.531,-506.226,6.225,0,0,0,
,-0.961,1.768,2.016,-698.67,78.613,58.715,0,0,0,
,-0.475,0.848,1.089,736.084,273.803,-341.492,0,0,0,
,-0.169,0.111,0.714,464.782,109.375,-190.491,0,0,0,
,-0.152,0.254,0.787,127.258,26.855,17.639,0,0,0,
,-0.104,0.397,1.011,28.869,-63.416,79.956,0,0,0,
,0.018,0.294,0.992,99.06,-108.277,49.377,0,0,0,
,-0.036,0.035,0.963,-533.936,-390.503,-15.259,0,0,0,
,-0.299,0.726,0.975,-1449.707,-499.512,144.287,0,0,0,
,-0.241,0.961,0.861,-1319.825,-468.873,218.933,0,0,0,
,-0.249,1.072,0.797,-856.812,-462.037,308.776,0,0,0,
,-0.37,0.946,0.735,-360.901,-358.582,356.506,0,0,0,
,-0.427,0.74,0.673,-61.829,-261.597,421.325,0,0,0,
,-0.402,0.443,0.627,113.159,-155.457,411.804,0,0,0,
,-0.411,0.29,0.551,125.061,-105.957,446.838,0,0,0,
,-0.413,0.289,0.541,47.912,-52.063,383.606,0,0,0,
,-0.334,0.1,0.451,17.15,4.699,225.402,0,0,0,
,-0.219,0.029,0.447,-35.279,1.525,259.887,0,0,0,
,-0.13,0.219,0.454,-169.739,17.578,228.271,0,0,0,
,-0.087,0.417,0.553,-111.023,-7.691,200.439,0,0,0,
,-0.059,0.601,0.667,243.53,-15.076,143.249,0,0,0,
,-0.086,0.498,0.719,457.031,115.417,35.949,0,0,0,
,-0.054,0.336,0.765,615.905,309.448,-131.287,0,0,0,
,-0.124,0.068,0.716,473.205,416.87,-188.477,0,0,0,
,0.266,-0.086,0.783,93.2,228.942,-230.713,0,0,0,
,0.396,-0.051,1.267,-781.067,-302.43,-438.782,0,0,0,
,-0.743,0.901,1.222,-350.342,92.407,53.1,0,0,0,
,-0.302,0.918,0.811,483.337,184.631,-131.348,0,0,0,
,-0.025,0.497,0.759,541.626,27.16,-282.41,0,0,0,
,-0.232,0.305,0.861,466.369,-6.714,-221.68,0,0,0,
,-0.319,0.164,0.916,178.405,27.099,-257.813,0,0,0,
,-0.185,0.333,0.902,58.654,78.247,-163.88,0,0,0,
,-0.242,0.421,0.91,-17.151,99.731,-237.488,0,0,0,
,-0.337,0.513,0.883,-7.203,114.135,-265.442,0,0,0,
,-0.276,0.645,0.9,72.998,139.465,-284.852,0,0,0,
,-0.166,0.53,0.915,177.673,142.334,-308.899,0,0,0,
,-0.213,0.541,0.933,188.598,177.673,-199.158,0,0,0,
,-0.14,0.534,0.901,218.628,163.879,-185.303,0,0,0,
,-0.189,0.538,0.917,181.457,169.677,-166.443,0,0,0,
,-0.192,0.597,0.885,283.752,160.888,-147.767,0,0,0,
,-0.219,0.548,0.971,347.595,166.015,-162.598,0,0,0,
,-0.217,0.454,0.968,406.799,215.21,-156.922,0,0,0,
,-0.132,0.34,0.882,428.222,250.122,-169.678,0,0,0,
,-0.094,0.244,0.838,306.091,218.567,-167.847,0,0,0,
,-0.15,0.426,0.892,286.56,234.13,-83.13,0,0,0,
,-0.126,0.392,0.908,272.094,196.167,-161.866,0,0,0,
,-0.153,0.361,1.009,362.243,197.692,-150.452,0,0,0,
,-0.207,0.379,1.129,334.35,250.183,-165.894,0,0,0,
,-0.022,0.32,1.135,344.848,231.262,-197.388,0,0,0,
,-0.096,0.239,1.259,-153.26,2.136,-56.763,0,0,0,
,-0.269,0.781,1.148,15.258,145.202,177.368,0,0,0,
,-0.105,0.466,0.962,147.949,120.91,-72.205,0,0,0,
,-0.008,0.208,1.009,-65.186,-44.678,-49.256,0,0,0,
,-0.079,0.224,0.956,-396.546,-129.7,-33.081,0,0,0,
,-0.072,0.196,0.867,-798.279,-347.779,-8.667,0,0,0,
,-0.084,0.426,0.874,-1222.535,-481.995,87.829,0,0,0,
,-0.214,0.715,0.812,-1440.186,-547.059,151.428,0,0,0,
,-0.329,1.037,0.751,-1216.065,-550.782,266.784,0,0,0,
,-0.351,1.182,0.747,-557.312,-477.539,368.896,0,0,0,
,-0.328,0.972,0.662,155.883,-388.245,383.728,0,0,0,
,-0.321,0.559,0.623,405.273,-336.792,380.249,0,0,0,
,-0.325,0.288,0.594,288.086,-284.668,398.254,0,0,0,
,-0.289,0.175,0.538,30.151,-213.379,387.207,0,0,0,
,-0.23,0.195,0.702,-164.734,-183.533,343.017,0,0,0,
,-0.296,0.232,0.769,-173.279,-18.616,296.325,0,0,0,
,-0.266,0.367,0.755,14.16,155.029,251.403,0,0,0,
,-0.14,0.421,0.703,189.575,247.985,153.808,0,0,0,
,-0.083,0.331,0.586,279.785,270.874,2.38,0,0,0,
,0.003,0.171,0.571,417.846,275.634,-39.063,0,0,0,
,0.705,-0.146,1.095,227.05,-428.528,-153.016,0,0,0,
,-0.381,0.129,1.325,141.418,-129.761,-66.651,0,0,0,
,-0.451,0.435,0.905,256.286,93.322,50.537,0,0,0,
,0.02,0.212,0.682,11.291,116.333,-197.022,0,0,0,
,-0.094,0.205,0.774,-221.558,-40.162,-134.034,0,0,0,
,-0.28,0.558,0.87,39.306,27.954,-81.36,0,0,0,
,-0.22,0.461,1.024,61.95,-32.593,-129.151,0,0,0,
,-0.261,0.48,1.02,81.176,76.171,-95.154,0,0,0,
,-0.238,0.397,0.889,-25.147,73.852,-179.871,0,0,0,
,-0.226,0.374,0.813,-75.806,77.636,-170.044,0,0,0,
,-0.174,0.536,0.737,120.544,80.017,-96.741,0,0,0,
,-0.158,0.396,0.756,325.683,89.843,-129.883,0,0,0,
,-0.193,0.324,0.814,308.899,155.7,-124.085,0,0,0,
,-0.221,0.22,0.881,171.936,236.45,-203.37,0,0,0,
,-0.121,0.138,0.895,-158.081,200.012,-309.144,0,0,0,
,-0.314,0.54,1.05,-503.785,210.388,-190.918,0,0,0,
,-0.219,1.017,0.917,1.648,207.58,-103.638,0,0,0,
,-0.111,0.68,0.904,277.649,125.244,-203.064,0,0,0,
,-0.26,0.545,0.933,365.539,137.573,-111.206,0,0,0,
,-0.212,0.445,0.872,327.88,165.1,-150.269,0,0,0,
,-0.171,0.41,0.784,489.685,249.572,-155.579,0,0,0,
,-0.133,0.119,0.776,305.542,242.065,-279.908,0,0,0,
,-0.196,0.175,0.977,-27.039,281.677,-250.855,0,0,0,
,-0.136,0.511,1.061,28.564,302.978,-167.176,0,0,0,
,-0.086,0.507,1.383,-3.174,174.926,-210.328,0,0,0,
,-0.397,0.884,1.536,-51.636,192.321,11.84,0,0,0,
,-0.382,0.922,1.228,299.255,260.131,-1.16,0,0,0,
,-0.146,0.371,0.886,262.39,195.434,-78.003,0,0,0,
,-0.105,0.191,0.842,-132.019,50.048,13.916,0,0,0,
,-0.033,0.384,0.89,-339.539,-136.902,114.624,0,0,0,
,-0.067,0.359,0.855,-725.281,-327.698,-15.381,0,0,0,
,-0.214,0.484,0.984,-1236.512,-468.567,24.169,0,0,0,
,-0.34,0.902,0.843,-1276.856,-369.996,178.344,0,0,0,
,-0.335,1.14,0.752,-922.303,-399.17,285.583,0,0,0,
,-0.312,1.17,0.68,-265.748,-341.675,399.78,0,0,0,
,-0.305,0.862,0.624,236.694,-292.969,373.047,0,0,0,
,-0.298,0.391,0.574,365.234,-238.77,334.106,0,0,0,
,-0.259,0.165,0.553,185.363,-207.642,363.037,0,0,0,
,-0.212,0.08,0.614,-137.879,-201.111,332.275,0,0,0,
,-0.191,0.2,0.649,-331.238,-168.946,305.236,0,0,0,
,-0.186,0.361,0.747,-180.726,-58.167,281.067,0,0,0,
,-0.234,0.413,0.65,10.864,163.147,255.371,0,0,0,
,-0.056,0.453,0.628,289.489,244.323,263.061,0,0,0,
,-0.082,0.509,0.515,615.783,244.69,218.078,0,0,0,
,-0.03,0.281,0.509,897.583,207.031,149.414,0,0,0,
,0.108,0.039,0.653,843.261,123.169,80.383,0,0,0,
,0.374,-0.253,0.959,127.38,-242.981,-152.955,0,0,0,
,-0.205,-0.041,1.154,-496.644,-215.088,-168.702,0,0,0,
,-0.45,0.506,1.171,-345.337,35.278,10.62,0,0,0,
,-0.143,0.663,1.03,407.348,17.089,-73.365,0,0,0,
,-0.331,0.369,0.947,439.209,22.461,-75.684,0,0,0,
,-0.268,0.246,0.943,213.928,-15.137,-114.563,0,0,0,
,-0.28,0.319,0.891,43.457,4.028,-117.371,0,0,0,
,-0.242,0.422,0.867,60.18,13.122,-125.55,0,0,0,
,-0.247,0.451,0.889,122.192,28.259,-144.471,0,0,0,
,-0.262,0.462,0.856,189.453,69.336,-116.15,0,0,0,
,-0.227,0.386,0.826,218.139,69.03,-133.606,0,0,0,
,-0.26,0.278,0.883,155.944,97.351,-148.621,0,0,0,
,-0.29,0.305,0.986,67.993,137.146,-184.571,0,0,0,
,-0.21,0.398,0.889,228.271,221.74,-226.197,0,0,0,
,-0.128,0.145,0.816,97.045,184.875,-343.567,0,0,0,
,-0.203,0.429,0.893,-1.465,209.228,-204.712,0,0,0,
,-0.207,0.637,0.868,309.143,283.447,-174.317,0,0,0,
,-0.066,0.197,0.76,357.36,269.653,-301.331,0,0,0,
,-0.233,0.257,1.015,20.568,273.071,-168.335,0,0,0,
,-0.167,0.536,0.933,31.799,302.551,-148.377,0,0,0,
,-0.093,0.413,1.005,0.793,219.726,-232.605,0,0,0,
,-0.251,0.579,1.132,56.457,248.413,-155.701,0,0,0,
,-0.186,0.574,1.101,273.437,241.699,-170.35,0,0,0,
,-0.109,0.321,1.258,142.883,45.166,-123.291,0,0,0,
,-0.502,0.767,1.339,192.566,172.79,131.164,0,0,0,
,-0.311,0.593,1.08,393.31,246.46,13.671,0,0,0,
,-0.188,0.188,0.946,102.356,180.297,-71.717,0,0,0,
,-0.168,0.207,0.892,-188.538,95.153,1.464,0,0,0,
,-0.035,0.275,0.859,-376.831,-138.062,-7.874,0,0,0,
,-0.078,0.223,0.854,-951.478,-416.199,-85.389,0,0,0,
,-0.226,0.59,0.954,-1471.924,-571.045,8.972,0,0,0,
,-0.361,1.028,0.915,-1446.29,-548.462,110.901,0,0,0,
,-0.357,1.059,0.757,-250.794,-397.461,274.963,0,0,0,
,-0.354,0.704,0.623,204.589,-327.088,330.627,0,0,0,
,-0.321,0.411,0.566,268.859,-256.409,365.722,0,0,0,
,-0.304,0.099,0.534,-15.992,-198.182,342.163,0,0,0,
,-0.255,0.129,0.539,-284.546,-153.626,370.483,0,0,0,
,-0.229,0.195,0.492,-485.962,-103.577,357.422,0,0,0,
,-0.154,0.376,0.512,-446.717,-67.566,381.591,0,0,0,
,-0.114,0.504,0.522,-188.66,-59.082,331.176,0,0,0,
,-0.09,0.451,0.643,116.15,-39.551,180.969,0,0,0,
,-0.101,0.295,0.75,323.852,32.47,51.33,0,0,0,
,0.107,0.134,0.895,419.799,83.252,-90.76,0,0,0,
,0.46,0.022,1.196,93.505,-272.828,-171.814,0,0,0,
,-0.364,0.276,1.225,-144.837,7.263,-133.301,0,0,0,
,-0.247,0.726,0.827,395.202,131.53,138.549,0,0,0,
,-0.005,0.511,0.716,594.482,73.303,-8.973,0,0,0,
,-0.291,0.357,0.841,497.741,58.227,-53.284,0,0,0,
,-0.29,0.175,0.898,208.679,-7.874,-135.254,0,0,0,
,-0.378,0.415,1.002,-53.528,45.41,-107.666,0,0,0,
,-0.352,0.501,1.024,-76.539,67.749,-210.633,0,0,0,
,-0.341,0.553,0.986,71.472,123.718,-218.14,0,0,0,
,-0.282,0.581,0.875,244.629,126.037,-170.655,0,0,0,
,-0.29,0.515,0.777,322.326,125,-144.959,0,0,0,
,-0.251,0.407,0.782,301.635,114.257,-152.894,0,0,0,
,-0.208,0.356,0.804,281.555,104.004,-133.179,0,0,0,
,-0.233,0.392,0.843,263.549,125.366,-127.808,0,0,0,
,-0.191,0.327,0.812,176.941,104.553,-178.223,0,0,0,
,-0.231,0.395,0.832,60.241,115.234,-178.956,0,0,0,
,-0.23,0.456,0.879,30.212,124.572,-188.66,0,0,0,
,-0.208,0.441,0.882,79.773,134.155,-217.469,0,0,0,
,-0.243,0.397,0.949,-46.082,107.116,-202.454,0,0,0,
,-0.203,0.623,0.933,30.151,86.12,-138.245,0,0,0,
,-0.208,0.524,0.936,83.007,59.265,-166.26,0,0,0,
,-0.249,0.53,0.908,112.854,77.514,-156.983,0,0,0,
,-0.237,0.453,0.919,204.467,89.05,-185.669,0,0,0,
,-0.211,0.27,0.93,211.609,111.511,-224.122,0,0,0,
,-0.246,0.226,0.966,138.794,181.335,-219.056,0,0,0,
,-0.132,0.434,0.858,428.711,289.001,-163.758,0,0,0,
,-0.021,0.157,0.748,444.336,278.625,-318.36,0,0,0,
,-0.277,0.243,0.929,200.195,381.775,-241.211,0,0,0,
,-0.099,0.454,0.822,512.939,447.021,-228.394,0,0,0,
,0.038,0.015,1.328,-147.034,0.366,-221.924,0,0,0,
,-0.688,1.039,1.567,-333.191,131.347,240.966,0,0,0,
,-0.383,1.023,1.214,190.124,245.483,39.672,0,0,0,
,-0.169,0.365,0.876,212.829,239.196,-67.994,0,0,0,
,-0.124,0.202,0.919,-84.473,72.998,29.052,0,0,0,
,-0.094,0.286,0.85,-407.349,-77.271,40.466,0,0,0,
,-0.079,0.309,0.786,-859.864,-362.61,23.254,0,0,0,
,-0.202,0.634,0.872,-1205.994,-573.06,118.042,0,0,0,
,-0.303,0.892,0.794,-1191.224,-632.081,184.692,0,0,0,
,-0.305,0.889,0.715,-939.759,-679.749,194.946,0,0,0,
,-0.314,0.687,0.692,-733.582,-672.608,176.208,0,0,0,
,-0.395,0.448,0.677,-736.206,-594.3,198.303,0,0,0,
,-0.415,0.427,0.731,-701.05,-484.742,310.241,0,0,0,
,-0.423,0.481,0.726,-592.957,-277.588,330.566,0,0,0,
,-0.336,0.496,0.603,-419.678,-79.712,272.338,0,0,0,
,-0.234,0.309,0.511,-354.126,55.175,109.863,0,0,0,
,-0.17,0.265,0.475,-324.585,162.597,84.533,0,0,0,
,-0.05,0.413,0.447,-184.571,197.082,124.389,0,0,0,
,-0.02,0.554,0.518,149.292,215.637,126.159,0,0,0,
,-0.041,0.639,0.581,515.869,283.02,125.854,0,0,0,
,0.332,0.407,0.802,643.31,71.716,80.2,0,0,0,
,0.213,0.289,1.311,212.951,-249.512,26.55,0,0,0,
,-0.564,0.461,1.102,213.928,115.234,98.144,0,0,0,
,-0.103,0.641,0.75,536.132,134.826,151.123,0,0,0,
,-0.082,0.601,0.825,647.705,78.43,51.757,0,0,0,
,-0.352,0.406,0.876,668.335,109.619,-2.198,0,0,0,
,-0.233,0.244,0.872,421.02,74.89,-60.059,0,0,0,
,-0.3,0.325,0.922,145.691,91.247,-115.235,0,0,0,
,-0.225,0.546,0.814,163.635,117.309,-172.364,0,0,0,
,-0.245,0.554,0.784,278.259,128.784,-176.88,0,0,0,
,-0.209,0.501,0.787,306.579,115.539,-182.984,0,0,0,
,-0.259,0.52,0.79,357.422,178.772,-164.185,0,0,0,
,-0.227,0.384,0.824,351.562,169.128,-222.229,0,0,0,
,-0.299,0.284,0.912,142.883,168.09,-234.009,0,0,0,
,-0.262,0.456,0.889,-14.954,150.94,-210.206,0,0,0,
,-0.203,0.553,0.862,-12.391,124.817,-179.017,0,0,0,
,-0.182,0.694,0.838,177.246,96.191,-89.905,0,0,0,
,-0.224,0.65,0.869,336.609,77.575,-72.632,0,0,0,
,-0.256,0.429,0.933,275.085,73.364,-139.1,0,0,0,
,-0.289,0.33,0.941,105.957,107.788,-133.423,0,0,0,
,-0.255,0.351,0.92,-5.066,121.46,-146.851,0,0,0,
,-0.216,0.448,0.923,1.709,128.112,-145.691,0,0,0,
,-0.188,0.546,0.938,158.386,111.45,-113.099,0,0,0,
,-0.194,0.52,0.935,300.109,100.463,-107.178,0,0,0,
,-0.193,0.37,0.936,249.145,100.219,-135.987,0,0,0,
,-0.183,0.395,0.936,202.514,135.559,-98.877,0,0,0,
,-0.176,0.331,0.927,171.203,137.268,-126.221,0,0,0,
,-0.183,0.401,0.986,193.908,152.282,-67.627,0,0,0,
,-0.148,0.38,0.997,253.784,163.025,-100.586,0,0,0,
,-0.189,0.299,1.035,262.939,199.585,-115.052,0,0,0,
,-0.221,0.313,1.051,223.938,239.135,-115.052,0,0,0,
,-0.207,0.394,1.107,272.644,290.161,-95.276,0,0,0,
,-0.107,0.23,1.049,306.274,264.77,-78.003,0,0,0,
,-0.078,0.262,1.106,271.301,173.156,106.201,0,0,0,
,-0.084,0.403,1.039,119.14,96.435,157.287,0,0,0,
,-0.074,0.479,0.966,-46.448,-38.208,100.402,0,0,0,
,-0.053,0.299,0.861,-445.618,-219.544,-89.905,0,0,0,
,-0.163,0.239,0.863,-1098.267,-429.078,-104.981,0,0,0,
,-0.254,0.559,0.836,-1528.687,-486.878,10.192,0,0,0,
,-0.333,0.795,0.8,-1608.46,-476.319,49.194,0,0,0,
,-0.442,1.177,0.742,-1217.103,-356.751,240.295,0,0,0,
,-0.452,1.27,0.696,-367.249,-201.233,299.194,0,0,0,
,-0.379,0.891,0.528,338.44,-67.2,270.385,0,0,0,
,-0.296,0.388,0.434,495.239,-9.644,226.196,0,0,0,
,-0.213,-0.022,0.468,264.892,-29.602,161.621,0,0,0,
,-0.139,-0.06,0.584,-99.549,18.859,81.298,0,0,0,
,-0.104,0.12,0.651,-290.589,88.501,61.462,0,0,0,
,-0.042,0.277,0.79,-287.293,168.274,-19.837,0,0,0,
,0.02,0.339,0.713,-208.069,293.518,-20.142,0,0,0,
,0.122,0.44,0.642,-16.297,287.292,30.517,0,0,0,
,0.343,0.492,0.793,165.954,49.316,57.067,0,0,0,
,0.32,0.543,1.125,198.425,-275.757,42.785,0,0,0,
,-0.307,0.563,1.136,360.534,-58.228,12.634,0,0,0,
,-0.23,0.606,0.838,618.286,-40.955,161.926,0,0,0,
,0.009,0.609,0.732,794.25,-8.362,173.034,0,0,0,
,-0.138,0.331,0.738,768.432,-64.515,49.56,0,0,0,
,-0.288,-0.028,0.858,481.506,-85.389,-25.574,0,0,0,
,-0.231,-0.019,0.967,203.796,-75.318,12.634,0,0,0,
,-0.178,0.28,1.002,146.972,11.047,16.235,0,0,0,
,-0.201,0.431,0.984,148.132,46.203,-64.82,0,0,0,
,-0.179,0.397,0.905,157.409,67.504,-172.791,0,0,0,
,-0.133,0.377,0.828,258.728,123.657,-194.092,0,0,0,
,-0.084,0.26,0.697,407.409,169.922,-216.98,0,0,0,
,-0.108,-0.096,0.919,29.113,88.745,-285.035,0,0,0,
,-0.304,0.518,0.808,215.759,353.515,-57.312,0,0,0,
,0.152,0.066,0.644,103.637,134.948,-323.853,0,0,0,
,-0.434,0.346,1.392,-281.678,207.214,-140.931,0,0,0,
,-0.271,1.087,1.088,299.56,316.65,10.681,0,0,0,
,-0.111,0.339,0.973,426.574,218.933,-390.259,0,0,0,
,-0.285,0.092,1.093,181.579,214.843,-217.286,0,0,0,
,-0.251,0.494,0.982,98.327,307.006,-112.732,0,0,0,
,-0.087,0.342,0.905,61.706,216.125,-289.124,0,0,0,
,-0.158,0.427,1.056,-3.54,175.598,-172.364,0,0,0,
,-0.155,0.596,1.092,-8.912,73.913,-44.251,0,0,0,
,-0.35,0.715,1.174,107.177,62.439,94.848,0,0,0,
,-0.289,0.535,1.084,331.543,101.562,126.831,0,0,0,
,-0.162,0.253,1.043,266.601,95.947,101.44,0,0,0,
,-0.116,0.109,0.952,-13.489,70.922,118.286,0,0,0,
,-0.03,0.168,0.933,-354.004,-89.661,141.357,0,0,0,
,-0.061,0.328,0.81,-580.933,-224.732,92.102,0,0,0,
,-0.075,0.4,0.905,-770.386,-468.018,-29.786,0,0,0,
,-0.299,0.57,1.064,-914.795,-531.067,-7.508,0,0,0,
,-0.361,0.794,0.922,-711.67,-480.591,110.778,0,0,0,
,-0.279,0.821,0.854,-332.154,-425.965,175.659,0,0,0,
,-0.283,0.628,0.754,-53.589,-360.535,214.904,0,0,0,
,-0.297,0.462,0.703,100.158,-276.795,261.352,0,0,0,
,-0.268,0.358,0.718,222.229,-191.102,263.244,0,0,0,
,-0.504,0.231,0.762,94.665,239.196,106.567,0,0,0,
,-0.109,0.459,0.454,426.88,429.382,249.939,0,0,0,
,0.184,0.289,0.496,489.135,211.853,169.86,0,0,0,
,-0.095,0.224,0.742,495.849,128.051,188.781,0,0,0,
,-0.059,0.156,0.828,463.684,97.045,201.416,0,0,0,
,0.259,0.107,0.862,388.061,-79.468,149.047,0,0,0,
,-0.007,0.175,1.017,298.645,-104.432,80.932,0,0,0,
,-0.112,0.22,0.876,378.662,-53.711,94.665,0,0,0,
,-0.017,-0.002,0.87,159.729,-130.249,7.019,0,0,0,
,-0.139,0.281,0.753,274.475,-102.356,115.722,0,0,0,
,-0.129,0.227,0.777,261.718,-89.112,66.284,0,0,0,
,-0.179,-0.014,0.953,12.329,-86.243,-40.833,0,0,0,
,-0.319,0.041,1.152,-279.419,47.485,-124.512,0,0,0,
,-0.276,0.369,1.267,-347.657,115.417,-140.931,0,0,0,
,-0.276,0.603,1.15,7.507,154.907,-106.568,0,0,0,
,-0.233,0.514,0.962,310.241,149.292,-93.567,0,0,0,
,-0.153,0.246,0.827,438.232,126.831,-127.686,0,0,0,
,-0.197,-0.067,0.863,213.806,132.324,-154.908,0,0,0,
,-0.159,0.183,0.875,14.099,180.175,-68.238,0,0,0,
,-0.198,0.259,1.043,-42.786,187.622,-125.794,0,0,0,
,-0.219,0.37,1.103,105.468,225.341,-93.323,0,0,0,
,-0.207,0.32,1.109,206.298,230.896,-129.09,0,0,0,
,-0.213,0.353,0.979,330.2,275.94,-86.609,0,0,0,
,-0.115,0.164,0.91,363.037,231.323,-129.761,0,0,0,
,-0.21,0.192,0.931,310.73,298.339,-76.477,0,0,0,
,0.016,0.057,1.072,81.42,149.414,-151.429,0,0,0,
,-0.522,0.346,1.461,-283.448,194.152,-35.95,0,0,0,
,-0.398,0.692,1.251,79.528,153.808,39.794,0,0,0,
,-0.345,0.255,1.064,120.788,117.065,-71.9,0,0,0,
,-0.267,0.105,0.997,71.96,181.518,-2.015,0,0,0,
,-0.104,0.091,0.931,-82.52,168.579,2.563,0,0,0,
,-0.055,0.146,0.867,-309.937,85.876,12.512,0,0,0,
,-0.003,0.291,0.806,-557.068,-116.211,11.779,0,0,0,
,-0.155,0.391,1,-931.153,-378.174,-46.082,0,0,0,
,-0.302,0.652,1.029,-959.839,-433.96,-10.376,0,0,0,
,-0.297,0.667,0.975,-831.116,-495.911,-42.847,0,0,0,
,-0.315,0.693,0.955,-550.232,-492.798,26.184,0,0,0,
,-0.34,0.535,0.886,-328.064,-448.853,27.16,0,0,0,
,-0.31,0.442,0.744,-69.642,-394.288,108.642,0,0,0,
,-0.292,0.292,0.718,-62.439,-330.079,180.481,0,0,0,
,-0.3,0.263,0.654,-138.428,-301.941,83.252,0,0,0,
,-0.257,0.166,0.704,-285.218,-251.587,17.578,0,0,0,
,-0.213,0.175,0.726,-397.156,-175.293,76.416,0,0,0,
,-0.147,0.47,0.726,-258.973,-96.863,234.436,0,0,0,
,-0.112,0.577,0.797,24.597,-26.856,259.094,0,0,0,
,-0.139,0.49,0.804,248.474,81.726,267.151,0,0,0,
,-0.09,0.318,0.752,337.402,187.744,237.06,0,0,0,
,-0.044,0.25,0.721,306.579,247.314,188.11,0,0,0,
,0.166,0.186,0.73,212.951,119.629,104.675,0,0,0,
,0.218,-0.075,1.179,-0.245,-167.603,-180.909,0,0,0,
,-0.438,0.035,1.167,-94.971,122.619,-9.461,0,0,0,
,-0.1,0.505,0.969,208.679,101.379,85.754,0,0,0,
,-0.138,0.509,0.977,421.753,78.369,-1.404,0,0,0,
,-0.283,0.229,0.943,538.208,47.79,-24.414,0,0,0,
,-0.261,0.093,0.964,288.696,59.631,-62.378,0,0,0,
,-0.303,0.206,0.985,87.463,91.735,-76.294,0,0,0,
,-0.303,0.375,0.989,61.828,99.06,-72.022,0,0,0,
,-0.282,0.384,0.944,102.905,98.938,-103.699,0,0,0,
,-0.244,0.356,0.887,167.907,94.421,-74.707,0,0,0,
,-0.232,0.33,0.858,184.265,92.712,-43.824,0,0,0,
,-0.204,0.368,0.864,227.844,88.012,-4.883,0,0,0,
,-0.191,0.306,0.875,245.178,76.782,-36.072,0,0,0,
,-0.229,0.235,0.939,157.348,108.398,-77.759,0,0,0,
,-0.202,0.254,0.917,44.738,121.948,-115.723,0,0,0,
,-0.239,0.237,0.911,9.826,126.953,-123.536,0,0,0,
,-0.176,0.251,0.88,109.558,155.334,-118.714,0,0,0,
,-0.147,0.24,0.792,298.706,195.373,-96.802,0,0,0,
,-0.14,0.119,0.813,242.309,231.323,-167.969,0,0,0,
,-0.133,0.136,0.832,191.223,281.005,-191.346,0,0,0,
,-0.117,0.148,0.826,155.029,332.275,-212.83,0,0,0,
,-0.215,0.116,0.991,30.578,373.291,-266.785,0,0,0,
,-0.115,0.377,0.952,187.5,428.65,-178.833,0,0,0,
,-0.132,0.184,1.121,131.408,381.408,-308.716,0,0,0,
,0.054,0.307,1.521,-193.726,-17.518,-130.677,0,0,0,
,-0.627,0.825,1.54,-275.269,55.053,-62.5,0,0,0,
,-0.353,0.246,1.034,-25.574,102.966,-103.516,0,0,0,
,-0.293,0.223,0.95,-116.517,171.875,-27.039,0,0,0,
,-0.139,0.186,0.894,-202.515,137.695,-5.249,0,0,0,
,-0.012,0.249,0.784,-242.188,44.799,71.533,0,0,0,
,0.042,0.418,0.918,-414.429,-206.543,76.782,0,0,0,
,-0.16,0.4,1.003,-699.341,-334.107,-56.336,0,0,0,
,-0.242,0.496,1.041,-902.832,-387.391,-42.054,0,0,0,
,-0.233,0.715,0.966,-841.675,-396.241,20.813,0,0,0,
,-0.232,0.867,0.898,-529.908,-392.945,122.619,0,0,0,
,-0.281,0.794,0.797,-154.908,-354.615,179.992,0,0,0,
,-0.294,0.573,0.742,88.073,-337.586,192.016,0,0,0,
,-0.333,0.343,0.73,151.306,-297.364,211.059,0,0,0,
,-0.316,0.35,0.904,102.966,-265.931,194.58,0,0,0,
,-0.483,0.13,0.785,-144.349,-16.785,59.57,0,0,0,
,-0.274,0.343,0.687,121.582,82.763,256.897,0,0,0,
,-0.081,0.199,0.553,190.307,92.834,159.546,0,0,0,
,-0.08,0.11,0.698,226.379,-14.588,236.328,0,0,0,
,-0.148,0.402,0.69,322.815,123.413,359.192,0,0,0,
,-0.009,0.345,0.721,356.628,82.885,179.016,0,0,0,
,0.216,-0.06,0.931,327.331,-86.243,-85.999,0,0,0,
,0.105,-0.164,0.967,-21.424,-187.073,-116.028,0,0,0,
,-0.126,0.287,0.956,-64.27,-110.84,33.813,0,0,0,
,-0.195,0.532,0.936,161.926,-5.738,40.283,0,0,0,
,-0.15,0.321,0.936,309.814,8.972,-99.488,0,0,0,
,-0.169,0.047,1.095,73.12,-48.523,-216.675,0,0,0,
,-0.391,0.182,1.063,-33.081,46.752,-114.502,0,0,0,
,-0.278,0.38,0.993,41.442,56.823,-107.178,0,0,0,
,-0.282,0.383,0.974,181.03,88.195,-117.127,0,0,0,
,-0.264,0.396,0.948,233.642,116.272,-100.647,0,0,0,
,-0.202,0.365,0.891,313.72,133.85,-119.629,0,0,0,
,-0.141,0.225,0.836,322.631,133.911,-126.099,0,0,0,
,-0.2,0.122,0.862,140.319,149.902,-115.723,0,0,0,
,-0.196,0.261,0.913,12.207,133.117,-73.487,0,0,0,
,-0.255,0.41,1.013,90.271,138.916,-58.655,0,0,0,
,-0.237,0.309,1.049,170.41,122.07,-91.187,0,0,0,
,-0.291,0.29,1.067,87.097,122.68,-80.933,0,0,0,
,-0.249,0.319,0.999,37.231,118.225,-86.182,0,0,0,
,-0.266,0.234,0.969,4.699,117.126,-112.122,0,0,0,
,-0.229,0.282,0.914,88.134,124.572,-83.008,0,0,0,
,-0.182,0.296,0.848,205.017,135.07,-75.013,0,0,0,
,-0.162,0.178,0.905,244.262,117.187,-94.666,0,0,0,
,-0.134,0.134,0.94,165.405,133.117,-89.783,0,0,0,
,-0.117,0.242,0.952,122.192,158.752,-72.937,0,0,0,
,-0.109,0.238,0.938,92.651,164.001,-84.351,0,0,0,
,-0.2,0.216,1.088,-19.165,172.851,-80.506,0,0,0,
,-0.164,0.374,1.157,55.175,191.284,-28.748,0,0,0,
,-0.163,0.29,1.236,172.912,187.011,-60.914,0,0,0,
,-0.217,0.228,1.268,182.312,227.661,-53.772,0,0,0,
,-0.203,0.244,1.185,142.212,268.554,-51.331,0,0,0,
,-0.138,0.22,1.116,66.223,296.386,-75.867,0,0,0,
,-0.132,0.18,1.045,-73.487,290.71,-109.925,0,0,0,
,-0.044,0.212,0.975,-128.113,253.967,-150.94,0,0,0,
,0.11,0.052,0.891,-404.664,79.284,-263.367,0,0,0,
,0.092,0.011,0.954,-974.122,-129.517,-329.956,0,0,0,
,-0.081,0.167,0.975,-1523.133,-240.174,-338.501,0,0,0,
,-0.207,0.477,0.916,-1784.363,-219.239,-296.265,0,0,0,
,-0.203,0.71,0.91,-1829.224,-113.892,-266.846,0,0,0,
,-0.185,0.716,0.714,-1683.594,-27.344,-230.469,0,0,0,
,-0.141,0.712,0.811,-1591.187,123.596,-189.576,0,0,0,
,-0.19,0.259,0.617,-1724.244,173.095,-160.096,0,0,0,
,-0.168,0.238,0.346,-1877.137,21.545,49.011,0,0,0,
,-0.093,0.676,0.468,-1849.305,163.086,-3.54,0,0,0,
,-0.007,0.668,0.28,-1736.756,82.397,-107.239,0,0,0,
,0.03,0.797,0.279,-1826.111,-55.115,-23.865,0,0,0,
,0,0.915,0.597,-1606.995,-166.016,-136.719,0,0,0,
,-0.181,0.738,0.562,-1264.954,-119.935,-131.47,0,0,0,
,-0.138,0.821,0.497,-1150.818,40.893,-58.472,0,0,0,
,0.014,0.931,0.34,-1030.274,133.178,-16.785,0,0,0,
,0.084,0.919,0.176,-898.377,90.759,-21.546,0,0,0,
,0.074,0.986,0.081,-668.274,-61.585,-0.123,0,0,0,
,-0.008,0.911,0.058,-587.952,-155.945,-23.377,0,0,0,
,-0.05,0.921,0.199,-629.334,-147.889,-101.868,0,0,0,
,-0.082,0.89,0.235,-741.028,-60.059,-96.375,0,0,0,
,0.009,1.112,0.038,-763.55,-3.296,70.861,0,0,0,
,-0.026,1.074,0.026,-588.501,36.926,90.026,0,0,0,
,-0.069,0.81,0.026,-583.252,93.872,133.239,0,0,0,
,-0.105,0.849,0.02,-649.781,151.428,188.659,0,0,0,
,-0.185,0.934,0.011,-683.289,181.518,210.632,0,0,0,
,-0.28,1.1,0.005,-596.131,354.553,245.483,0,0,0,
,-0.311,1.115,-0.202,-373.902,608.093,354.797,0,0,0,
,-0.104,1.313,-0.267,-243.287,602.417,386.108,0,0,0,
,0.015,1.215,-0.275,-171.265,326.843,118.896,0,0,0,
,-0.213,1.04,-0.206,143.005,97.9,3.295,0,0,0,
,-0.209,1.051,-0.192,269.348,-3.418,76.171,0,0,0,
,-0.154,1.088,-0.195,476.867,-157.044,-45.044,0,0,0,
,-0.143,0.92,0.016,639.831,-309.082,-59.937,0,0,0,
,-0.127,0.759,-0.032,586.059,-268.86,-24.353,0,0,0,
,-0.01,0.851,0.016,315.979,-423.523,98.938,0,0,0,
,-0.207,1.347,-0.017,336.609,-304.505,241.088,0,0,0,
,-0.177,1.487,-0.17,1075.805,-280.945,68.969,0,0,0,
,-0.199,1.052,-0.134,1275.756,-387.574,-15.442,0,0,0,
,-0.274,0.973,0.07,1376.281,-369.935,-5.066,0,0,0,
,-0.372,0.812,0.257,1442.871,-275.757,-13.184,0,0,0,
,-0.293,0.763,0.194,1486.999,-74.402,59.387,0,0,0,
,-0.191,0.885,0.216,1426.635,-138.977,49.194,0,0,0,
,-0.194,0.911,0.192,1127.746,-193.543,67.871,0,0,0,
,-0.246,0.877,0.334,973.755,-185.425,-72.022,0,0,0,
,-0.311,0.812,0.398,791.809,-99.244,51.574,0,0,0,
,-0.235,0.75,0.449,571.899,56.335,71.228,0,0,0,
,-0.154,0.672,0.457,312.5,-44.922,166.931,0,0,0,
,-0.176,0.769,0.562,442.505,-87.464,91.003,0,0,0,
,-0.044,0.587,0.513,241.211,-47.547,102.111,0,0,0,
,-0.033,0.642,0.43,-20.813,-100.892,76.11,0,0,0,
,-0.12,0.849,0.627,41.076,-225.037,66.162,0,0,0,
,-0.211,1.312,1.059,369.567,-205.933,302.673,0,0,0,
,-0.508,1.221,0.578,692.688,11.657,94.055,0,0,0,
,-0.127,0.509,0.405,747.314,222.412,91.674,0,0,0,
,-0.066,0.293,0.425,412.536,94.726,67.688,0,0,0,
,-0.39,0.645,0.498,78.796,122.192,79.467,0,0,0,
,-0.308,0.647,0.656,70.312,211.914,-8.728,0,0,0,
,-0.255,0.539,0.732,114.502,270.813,40.71,0,0,0,
,-0.289,0.607,0.624,57.983,311.462,89.782,0,0,0,
,-0.166,0.813,0.606,71.777,214.599,45.471,0,0,0,
,-0.168,0.66,0.649,159.484,120.91,-85.022,0,0,0,
,-0.185,0.604,0.803,175.903,37.963,-108.46,0,0,0,
,-0.205,0.651,0.685,86.12,48.645,-120.057,0,0,0,
,-0.159,0.794,0.634,119.69,-19.654,-84.229,0,0,0,
,-0.176,0.861,0.569,212.402,-12.085,-79.224,0,0,0,
,-0.167,0.696,0.581,302.673,11.779,-86.304,0,0,0,
,-0.145,0.589,0.526,201.66,44.006,-70.496,0,0,0,
,-0.098,0.643,0.759,67.382,-3.357,-116.7,0,0,0,
,-0.187,0.817,0.753,207.092,30.395,-125.855,0,0,0,
,-0.171,0.767,0.732,395.935,-37.354,-134.705,0,0,0,
,-0.23,0.703,0.615,445.19,-26.062,-127.259,0,0,0,
,-0.238,0.602,0.542,438.72,25.94,-93.201,0,0,0,
,-0.159,0.496,0.636,312.744,16.54,-85.816,0,0,0,
,-0.169,0.587,0.678,221.984,4.394,-77.515,0,0,0,
,-0.193,0.63,0.861,275.268,-30.396,-110.23,0,0,0,
,-0.198,0.55,0.84,287.048,25.512,-142.029,0,0,0,
,-0.155,0.431,0.781,158.142,11.474,-197.998,0,0,0,
,-0.185,0.449,0.739,-15.931,26.367,-201.416,0,0,0,
,-0.153,0.494,0.67,-81.849,47.424,-217.164,0,0,0,
,-0.138,0.751,0.677,86.669,66.711,-111.512,0,0,0,
,-0.102,0.85,0.66,340.759,158.569,-70.13,0,0,0,
,-0.028,0.552,0.771,296.997,90.82,-127.259,0,0,0,
,-0.143,0.491,0.883,78.43,66.894,-152.527,0,0,0,
,-0.164,0.531,0.864,-26.612,67.688,-171.021,0,0,0,
,-0.157,0.576,0.744,15.625,87.89,-189.881,0,0,0,
,-0.154,0.604,0.726,104.004,75.866,-209.656,0,0,0,
,-0.148,0.608,0.649,254.455,115.234,-234.07,0,0,0,
,-0.079,0.446,0.659,216.125,96.374,-244.019,0,0,0,
,-0.099,0.442,0.759,108.947,85.083,-248.475,0,0,0,
,-0.105,0.571,0.806,182.19,132.568,-249.695,0,0,0,
,-0.083,0.435,0.815,172.851,131.958,-334.351,0,0,0,
,-0.068,0.608,0.878,144.165,123.352,-293.457,0,0,0,
,-0.044,0.731,0.794,265.258,139.465,-278.87,0,0,0,
,-0.101,0.546,0.884,216.552,123.596,-317.2,0,0,0,
,-0.167,0.67,0.863,206.176,170.837,-247.986,0,0,0,
,-0.035,0.679,0.935,280.212,187.317,-226.929,0,0,0,
,-0.063,0.673,1.099,227.417,136.474,-179.078,0,0,0,
,-0.055,0.677,1.086,159.24,160.766,-143.555,0,0,0,
,0.072,0.608,1.018,-32.349,110.412,-90.76,0,0,0,
,0.145,0.754,0.957,-325.745,-9.827,-10.132,0,0,0,
,0.059,0.995,0.948,-350.953,-94.3,55.481,0,0,0,
,0.098,0.719,0.913,-368.531,-172.303,60.241,0,0,0,
,-0.023,0.698,0.866,-742.737,-261.841,196.411,0,0,0,
,-0.087,0.909,0.85,-959.229,-306.824,315.796,0,0,0,
,-0.117,0.95,0.776,-902.832,-299.866,366.76,0,0,0,
,-0.168,0.901,0.623,-750.855,-282.532,417.541,0,0,0,
,-0.213,0.899,0.534,-502.93,-273.743,481.811,0,0,0,
,-0.24,0.802,0.49,-216.431,-196.595,513.427,0,0,0,
,-0.242,0.619,0.437,-7.874,-145.691,469.848,0,0,0,
,-0.257,0.488,0.459,137.878,-121.582,399.841,0,0,0,
,-0.236,0.391,0.461,229.858,-61.158,310.974,0,0,0,
,-0.182,0.355,0.473,240.417,-27.771,255.188,0,0,0,
,-0.153,0.4,0.482,292.602,28.93,168.518,0,0,0,
,-0.138,0.386,0.482,425.781,98.144,80.627,0,0,0,
,0.022,0.584,0.513,645.935,113.098,48.095,0,0,0,
,0.055,0.531,0.719,892.944,112.548,49.56,0,0,0,
,0.11,0.35,0.872,753.296,63.903,54.504,0,0,0,
,0.083,0.074,1.209,375.061,-92.957,-50.721,0,0,0,
,-0.243,0.315,1.049,113.403,80.932,-16.114,0,0,0,
,-0.131,0.456,0.889,9.521,101.074,-130.494,0,0,0,
,-0.171,0.539,0.785,80.2,83.801,-156.495,0,0,0,
,-0.226,0.594,0.689,218.322,76.11,-156.495,0,0,0,
,-0.186,0.56,0.73,336.792,54.504,-153.199,0,0,0,
,-0.209,0.485,0.879,402.771,44.494,-216.797,0,0,0,
,-0.207,0.235,0.971,290.771,44.982,-255.494,0,0,0,
,-0.163,0.341,0.949,-8.301,44.616,-238.282,0,0,0,
,-0.131,0.617,0.855,-139.344,46.936,-220.643,0,0,0,
,-0.104,0.739,0.714,50.415,58.41,-207.215,0,0,0,
,-0.128,0.765,0.761,326.11,43.029,-171.753,0,0,0,
,-0.144,0.439,0.743,578.735,119.323,-160.157,0,0,0,
,-0.073,0.14,0.89,300.659,34.362,-146.18,0,0,0,
,-0.22,0.492,0.974,-14.344,82.641,-140.748,0,0,0,
,-0.138,0.383,0.887,-73.365,120.849,-207.398,0,0,0,
,-0.125,0.441,0.809,-93.14,80.383,-199.891,0,0,0,
,-0.118,0.621,0.827,26.062,81.726,-167.237,0,0,0,
,-0.077,0.559,0.805,112.732,94.421,-180.176,0,0,0,
,-0.09,0.454,0.799,135.742,102.966,-175.171,0,0,0,
,-0.069,0.34,0.836,44.616,95.642,-172.974,0,0,0,
,-0.043,0.41,0.936,-79.529,73.974,-137.146,0,0,0,
,-0.076,0.587,0.966,-60.852,82.153,-96.131,0,0,0,
,-0.065,0.52,0.877,30.822,119.262,-118.653,0,0,0,
,-0.073,0.469,0.89,60.119,108.093,-72.998,0,0,0,
,-0.064,0.603,0.904,96.435,123.535,-9.156,0,0,0,
,-0.042,0.6,0.956,109.558,124.023,-58.96,0,0,0,
,-0.078,0.473,0.948,101.379,131.286,-68.787,0,0,0,
,-0.088,0.556,0.974,73.12,88.195,-61.89,0,0,0,
,-0.085,0.532,0.942,126.037,90.393,-106.507,0,0,0,
,-0.083,0.456,0.928,113.83,93.322,-107.972,0,0,0,
,-0.106,0.472,0.972,83.923,94.36,-93.445,0,0,0,
,-0.134,0.487,0.945,94.97,136.84,-93.384,0,0,0,
,-0.046,0.43,0.954,145.019,125.915,-91.126,0,0,0,
,0.081,0.431,0.862,72.998,101.745,-109.62,0,0,0,
,0.173,0.355,0.862,-164.185,-74.891,-93.079,0,0,0,
,0.15,0.445,0.979,-636.78,-236.023,-14.954,0,0,0,
,0.051,0.686,0.998,-1021.973,-352.112,52.185,0,0,0,
,-0.028,1.04,0.851,-1076.111,-393.799,175.293,0,0,0,
,-0.063,1.378,0.786,-702.576,-435.425,290.527,0,0,0,
,-0.213,1.317,0.729,-136.292,-368.714,339.721,0,0,0,
,-0.269,0.835,0.637,166.198,-293.335,341.735,0,0,0,
,-0.29,0.47,0.575,130.737,-234.925,388.122,0,0,0,
,-0.3,0.441,0.585,-20.02,-167.054,420.227,0,0,0,
,-0.284,0.509,0.616,-81.055,-91.065,388.61,0,0,0,
,-0.222,0.467,0.62,-49.378,-19.288,346.862,0,0,0,
,-0.174,0.433,0.597,9.338,29.052,323.913,0,0,0,
,-0.146,0.411,0.6,44.189,63.354,288.391,0,0,0,
,-0.09,0.363,0.612,83.984,85.083,238.159,0,0,0,
,-0.028,0.425,0.739,301.513,52.551,175.109,0,0,0,
,0.004,0.286,0.833,664.978,60.607,93.078,0,0,0,
,0.118,0,0.967,592.407,-86.853,-9.583,0,0,0,
,-0.147,-0.072,0.886,140.808,4.577,-58.838,0,0,0,
,-0.082,0.234,0.839,-148.011,28.991,-58.838,0,0,0,
,-0.019,0.489,0.747,-52.918,27.282,-97.962,0,0,0,
,-0.133,0.604,0.804,218.017,15.564,-119.812,0,0,0,
,-0.208,0.352,0.881,93.078,43.701,-121.766,0,0,0,
,-0.17,0.223,0.936,-111.512,21.362,-239.502,0,0,0,
,-0.234,0.494,0.858,-174.866,53.649,-241.456,0,0,0,
,-0.13,0.564,0.802,21.24,78.918,-228.394,0,0,0,
,-0.187,0.686,0.86,189.697,76.66,-209.9,0,0,0,
,-0.144,0.431,0.766,294.738,166.748,-292.969,0,0,0,
,-0.09,0.125,0.911,20.446,86.731,-268.982,0,0,0,
,-0.186,0.755,0.953,-36.316,155.09,-184.266,0,0,0,
,-0.095,0.545,0.946,-1.099,146.057,-281.189,0,0,0,
,-0.092,0.428,0.921,268.798,119.506,-248.169,0,0,0,
,-0.209,0.611,1,228.027,106.994,-129.7,0,0,0,
,-0.133,0.548,0.863,422.18,150.024,-151.612,0,0,0,
,-0.081,0.179,0.884,304.687,100.097,-144.043,0,0,0,
,-0.204,0.502,1.001,135.254,101.684,-87.037,0,0,0,
,-0.163,0.573,0.976,252.563,131.103,-117.92,0,0,0,
,-0.142,0.434,0.971,382.995,140.564,-97.901,0,0,0,
,-0.096,0.333,1.064,233.886,111.877,-113.709,0,0,0,
,-0.07,0.505,1.058,106.994,102.234,-72.022,0,0,0,
,0.095,0.356,1.003,-98.511,14.16,-98.267,0,0,0,
,0,0.329,1.065,-614.319,-96.924,-53.528,0,0,0,
,-0.05,0.479,1.067,-978.211,-124.939,59.326,0,0,0,
,-0.107,0.696,0.971,-1216.492,-152.283,167.175,0,0,0,
,-0.105,0.927,0.862,-1259.705,-176.819,264.77,0,0,0,
,-0.153,0.925,0.809,-1034.485,-186.951,290.527,0,0,0,
,-0.177,0.773,0.732,-771.546,-106.568,345.764,0,0,0,
,-0.177,0.563,0.69,-764.893,-76.905,436.34,0,0,0,
,-0.149,0.89,0.569,-881.409,81.726,551.941,0,0,0,
,-0.157,0.809,0.478,-835.755,-96.009,301.635,0,0,0,
,-0.221,0.396,0.525,-548.89,-253.785,142.089,0,0,0,
,-0.14,0.207,0.408,-742.127,-290.711,221.374,0,0,0,
,-0.233,0.621,0.272,-701.783,-343.262,345.031,0,0,0,
,-0.183,1.027,0.443,-353.516,-322.51,352.356,0,0,0,
,-0.047,1.067,0.65,-24.231,-29.175,360.962,0,0,0,
,-0.318,0.688,0.668,608.276,59.875,174.743,0,0,0,
,-0.266,0.243,0.646,656.494,60.18,224.243,0,0,0,
,-0.114,0.442,0.582,489.746,54.016,222.656,0,0,0,
,-0.155,0.438,0.541,434.204,48.523,136.169,0,0,0,
,-0.317,0.399,0.798,519.592,183.227,81.298,0,0,0,
,-0.35,0.571,1.158,685.913,354.065,67.443,0,0,0,
,-0.337,0.479,0.971,483.154,488.098,14.709,0,0,0,
,-0.158,0.501,0.808,230.529,399.841,-127.503,0,0,0,
,-0.044,0.552,0.758,53.222,135.925,-130.799,0,0,0,
,-0.203,0.441,0.828,134.948,60.669,-242.432,0,0,0,
,-0.268,0.729,0.606,242.981,183.96,96.557,0,0,0,
,-0.098,0.463,0.622,292.907,101.928,123.413,0,0,0,
,-0.094,0.443,0.576,-58.838,121.704,121.276,0,0,0,
,-0.02,0.589,0.778,-202.21,-45.227,108.581,0,0,0,
,-0.18,0.672,0.861,-331.482,50.781,-56.397,0,0,0,
,-0.213,0.637,0.877,-260.071,200.134,-135.315,0,0,0,
,-0.058,0.545,0.725,-178.04,236.511,-158.387,0,0,0,
,-0.007,0.591,0.681,-110.718,175.232,-135.743,0,0,0,
,-0.157,0.709,0.722,24.658,153.015,-72.571,0,0,0,
,-0.197,0.72,0.748,89.172,119.934,-103.15,0,0,0,
,-0.121,0.81,0.744,99.304,105.285,-131.226,0,0,0,
,-0.086,0.798,0.712,239.196,55.603,-149.292,0,0,0,
,-0.16,0.591,0.798,298.828,13.671,-161.438,0,0,0,
,-0.2,0.668,0.694,447.143,84.716,-75.684,0,0,0,
,-0.091,0.665,0.694,596.618,42.419,-99.793,0,0,0,
,-0.133,0.517,0.786,697.326,45.776,-112.549,0,0,0,
,-0.206,0.284,0.867,449.463,35.827,-169.617,0,0,0,
,-0.281,0.369,0.858,189.148,105.468,-162.049,0,0,0,
,-0.169,0.626,0.822,232.116,121.704,-137.207,0,0,0,
,-0.131,0.608,0.834,434.936,100.708,-192.994,0,0,0,
,-0.154,0.492,0.849,434.265,92.712,-219.666,0,0,0,
,-0.131,0.396,0.924,329.162,96.557,-197.998,0,0,0,
,-0.154,0.45,0.998,204.101,136.963,-146.546,0,0,0,
,-0.115,0.532,1.065,164.367,151.733,-134.949,0,0,0,
,-0.184,0.493,1.06,-38.208,163.94,-162.659,0,0,0,
,-0.142,0.663,0.969,27.71,126.831,-42.664,0,0,0,
,-0.081,0.656,0.986,112.243,31.494,-12.635,0,0,0,
,-0.109,0.614,1.044,123.413,-23.499,28.015,0,0,0,
,-0.092,0.532,1.002,42.663,-68.482,66.284,0,0,0,
,-0.064,0.513,0.945,-215.821,-209.656,114.868,0,0,0,
,-0.157,0.558,1.012,-545.777,-303.101,85.937,0,0,0,
,-0.22,0.526,0.841,-868.775,-344.727,188.659,0,0,0,
,-0.179,0.771,0.87,-1212.159,-445.191,306.03,0,0,0,
,-0.291,1.025,0.833,-988.465,-482.3,384.887,0,0,0,
,-0.318,1.052,0.785,-516.541,-406.983,455.749,0,0,0,
,-0.311,0.94,0.532,3.112,-326.233,490.295,0,0,0,
,-0.229,0.688,0.547,355.957,-296.936,444.03,0,0,0,
,-0.305,0.416,0.618,447.143,-247.254,367.187,0,0,0,
,-0.406,0.274,0.689,475.036,-106.385,358.215,0,0,0,
,-0.347,0.139,0.616,323.486,35.278,294.555,0,0,0,
,-0.282,0.155,0.603,127.075,141.601,251.892,0,0,0,
,-0.24,0.245,0.509,-2.442,248.474,159.179,0,0,0,
,-0.156,0.359,0.449,10.437,320.373,115.905,0,0,0,
,-0.037,0.295,0.509,110.29,169.372,32.409,0,0,0,
,0.125,0.29,0.652,72.204,-17.029,45.532,0,0,0,
,0.05,0.237,0.995,30.273,-282.959,-94.666,0,0,0,
,-0.297,0.239,0.924,46.142,-151.49,-54.993,0,0,0,
,-0.12,0.551,0.875,-132.142,-94.3,21.057,0,0,0,
,-0.123,0.712,0.841,-96.68,17.395,-99.183,0,0,0,
,-0.097,0.607,0.765,149.658,51.147,-165.65,0,0,0,
,-0.153,0.343,0.79,126.587,-19.654,-186.036,0,0,0,
,-0.256,0.414,0.854,86.12,9.704,-88.196,0,0,0,
,-0.253,0.459,0.862,127.014,12.512,-88.685,0,0,0,
,-0.257,0.284,0.882,-37.598,-25.452,-206.788,0,0,0,
,-0.259,0.405,0.879,-228.455,-3.968,-241.578,0,0,0,
,-0.256,0.457,0.809,-331.727,36.01,-340.455,0,0,0,
,-0.204,0.511,0.794,-324.585,9.033,-310.242,0,0,0,
,-0.291,0.737,0.811,-149.903,63.232,-199.585,0,0,0,
,-0.24,0.814,0.744,149.841,81.848,-183.35,0,0,0,
,-0.209,0.536,0.842,125.305,47.119,-228.638,0,0,0,
,-0.316,0.552,0.914,-71.9,68.542,-158.997,0,0,0,
,-0.268,0.78,0.91,76.721,109.314,-116.639,0,0,0,
,-0.23,0.645,0.832,283.813,120.239,-177.185,0,0,0,
,-0.196,0.422,0.756,326.233,91.064,-137.513,0,0,0,
,-0.238,0.482,0.758,224.67,102.417,-117.737,0,0,0,
,-0.194,0.48,0.752,270.202,106.323,-146.241,0,0,0,
,-0.157,0.429,0.789,292.785,132.019,-172.669,0,0,0,
,-0.11,0.422,0.827,302.856,125.976,-187.195,0,0,0,
,-0.196,0.419,0.93,188.903,138.549,-204.407,0,0,0,
,-0.236,0.685,0.842,304.565,233.215,-183.472,0,0,0,
,-0.135,0.332,0.785,321.411,184.509,-316.712,0,0,0,
,-0.239,0.361,0.999,1.464,183.471,-235.84,0,0,0,
,-0.227,0.72,0.953,-1.465,243.53,-161.072,0,0,0,
,-0.063,0.557,0.918,225.891,208.007,-192.2,0,0,0,
,-0.212,0.636,1.056,228.149,226.318,-75.257,0,0,0,
,-0.188,0.637,0.952,299.865,259.399,-109.314,0,0,0,
,-0.118,0.463,0.898,313.659,222.351,-110.779,0,0,0,
,-0.149,0.474,0.97,265.564,161.743,36.132,0,0,0,
,-0.088,0.456,1.007,69.885,120.605,-4.578,0,0,0,
,-0.093,0.472,0.979,-301.758,31.189,14.587,0,0,0,
,-0.063,0.697,0.881,-348.023,-23.865,124.572,0,0,0,
,-0.016,0.666,0.852,-390.198,-198.365,89.172,0,0,0,
,-0.052,0.434,0.995,-693.177,-326.477,-10.987,0,0,0,
,-0.262,0.442,0.827,-1043.213,-329.59,163.208,0,0,0,
,-0.215,0.797,0.842,-1278.016,-267.518,222.107,0,0,0,
,-0.243,0.982,0.694,-1142.212,-208.741,279.968,0,0,0,
,-0.268,1.005,0.698,-759.034,-168.091,316.406,0,0,0,
,-0.282,0.892,0.578,-364.502,-50.293,373.291,0,0,0,
,-0.189,0.823,0.683,-0.672,15.564,371.521,0,0,0,
,-0.199,0.508,0.643,188.964,78.186,289.184,0,0,0,
,-0.189,0.338,0.675,242.553,69.458,251.892,0,0,0,
,-0.215,0.313,0.646,256.652,143.31,193.786,0,0,0,
,-0.225,0.367,0.655,212.89,187.805,126.77,0,0,0,
,-0.195,0.353,0.68,204.528,254.516,33.081,0,0,0,
,-0.115,0.39,0.695,205.139,331.298,12.329,0,0,0,
,-0.126,0.408,0.828,233.764,360.778,-42.847,0,0,0,
,-0.045,0.283,0.555,236.389,308.227,-51.148,0,0,0,
,0.155,0.347,0.829,-43.213,130.188,-35.401,0,0,0,
,-0.031,0.595,0.8,-31.25,37.475,46.142,0,0,0,
,-0.177,0.694,0.705,118.286,20.446,46.508,0,0,0,
,-0.122,0.794,0.664,314.331,80.871,56.518,0,0,0,
,0.014,0.616,0.75,500.366,77.453,-25.757,0,0,0,
,0.007,0.356,0.879,429.321,-6.531,-94.361,0,0,0,
,-0.103,0.179,0.714,333.13,-85.755,-144.776,0,0,0,
,-0.122,0.342,0.77,127.197,-151.246,-41.443,0,0,0,
,-0.117,0.566,0.719,222.229,-116.7,-63.904,0,0,0,
,-0.089,0.578,0.878,337.768,-93.506,-155.762,0,0,0,
,-0.156,0.417,0.802,385.925,0.976,-213.379,0,0,0,
,-0.166,0.286,0.854,203.735,7.507,-220.52,0,0,0,
,-0.193,0.394,0.846,150.756,61.706,-186.951,0,0,0,
,-0.087,0.386,0.855,127.807,-6.836,-208.252,0,0,0,
,-0.153,0.418,0.94,-36.377,-39.551,-222.718,0,0,0,
,-0.23,0.608,0.927,80.932,27.099,-193.177,0,0,0,
,-0.158,0.656,0.909,432.8,136.963,-210.144,0,0,0,
,-0.133,0.394,0.886,563.232,167.724,-304.505,0,0,0,
,-0.164,0.117,0.871,333.618,218.75,-387.085,0,0,0,
,-0.108,0.128,0.825,95.031,250.671,-322.998,0,0,0,
,-0.138,0.28,0.903,-135.437,229.431,-289.124,0,0,0,
,-0.097,0.641,0.918,1.281,310.302,-221.253,0,0,0,
,0.015,0.666,1.02,159.362,232.483,-264.344,0,0,0,
,-0.042,0.59,1.181,199.035,190.918,-257.203,0,0,0,
,-0.128,0.666,1.187,235.29,242.553,-178.04,0,0,0,
,-0.084,0.663,1.132,307.983,271.301,-154.297,0,0,0,
,0.123,0.421,1.122,120.849,150.207,-158.204,0,0,0,
,-0.01,0.296,1.063,-465.638,2.502,-129.273,0,0,0,
,-0.195,0.674,0.876,-381.653,33.752,169.983,0,0,0,
,0.1,0.633,0.876,-370.484,-137.818,101.745,0,0,0,
,0.092,0.435,0.952,-725.708,-415.772,18.92,0,0,0,
,-0.152,0.626,0.975,-1017.945,-492.188,202.942,0,0,0,
,-0.214,1.071,0.78,-909.546,-486.878,292.541,0,0,0,
,-0.115,1.264,0.711,-476.136,-546.265,298.156,0,0,0,
,-0.194,1.036,0.725,-27.344,-590.394,249.633,0,0,0,
,-0.345,0.694,0.707,273.193,-511.658,309.326,0,0,0,
,-0.335,0.542,0.681,352.539,-373.475,373.535,0,0,0,
,-0.244,0.328,0.606,322.692,-308.655,328.43,0,0,0,
,-0.267,0.298,0.752,309.509,-199.891,301.574,0,0,0,
,-0.304,0.345,0.478,389.221,-59.876,361.633,0,0,0,
,-0.101,0.294,0.469,365.112,-63.477,263.305,0,0,0,
,-0.078,0.192,0.793,374.878,-153.565,254.76,0,0,0,
,-0.254,0.203,0.602,416.504,30.151,239.196,0,0,0,
,0.088,0.165,0.479,299.072,-78.797,144.043,0,0,0,
,0.082,0.289,0.871,301.147,-219.178,191.711,0,0,0,
,-0.306,0.26,0.994,520.019,82.763,260.803,0,0,0,
,-0.041,0.293,0.735,515.747,136.047,274.841,0,0,0,
,0.295,0.214,0.781,256.164,-111.939,56.823,0,0,0,
,-0.148,0.068,1.149,129.882,-206.665,-97.29,0,0,0,
,-0.417,0.21,1.035,119.018,-53.04,-13.733,0,0,0,
,-0.209,0.371,0.886,175.537,-44.495,-50.171,0,0,0,
,-0.243,0.385,0.934,386.169,8.667,-55.298,0,0,0,
,-0.324,0.264,0.909,508.606,75.988,-72.937,0,0,0,
,-0.2,0.053,0.911,353.149,38.94,-139.71,0,0,0,
,-0.338,0.051,1.001,-76.661,32.592,-162.781,0,0,0,
,-0.269,0.235,0.968,-239.685,29.846,-186.951,0,0,0,
,-0.219,0.396,0.982,-201.783,62.377,-182.923,0,0,0,
,-0.21,0.623,1.001,94.848,104.553,-116.517,0,0,0,
,-0.271,0.454,1.001,256.347,136.108,-156.128,0,0,0,
,-0.275,0.273,0.952,224.121,146.301,-163.941,0,0,0,
,-0.322,0.23,0.858,191.65,215.942,-147.461,0,0,0,
,-0.157,0.286,0.714,415.222,241.943,-125.855,0,0,0,
,-0.251,-0.129,0.744,303.466,272.033,-250.55,0,0,0,
,-0.175,-0.052,0.882,-66.102,251.403,-255.494,0,0,0,
,-0.183,0.242,1.085,-307.312,219.665,-269.104,0,0,0,
,-0.275,0.715,1.099,-104.065,263.916,-170.594,0,0,0,
,-0.22,0.705,1.005,362.976,314.758,-206.055,0,0,0,
,-0.324,0.301,0.975,565.368,384.155,-257.691,0,0,0,
,-0.084,0.108,0.887,477.6,350.463,-219.056,0,0,0,
,-0.243,-0.038,1.199,-88.44,268.554,-218.995,0,0,0,
,-0.18,0.382,1.171,-207.276,304.992,-111.817,0,0,0,
,-0.131,0.426,1.326,-342.286,179.565,-151.917,0,0,0,
,-0.326,0.532,1.369,-562.684,186.34,-105.103,0,0,0,
,-0.283,0.655,1.177,-602.051,240.722,-82.154,0,0,0,
,-0.073,0.527,0.956,-502.503,226.867,-87.769,0,0,0,
,0.042,0.443,0.894,-493.836,58.715,-17.945,0,0,0,
,0.048,0.464,0.915,-669.129,-101.685,20.507,0,0,0,
,-0.055,0.571,0.977,-886.17,-237.427,72.692,0,0,0,
,-0.221,0.665,1.043,-1021.546,-219.056,69.519,0,0,0,
,-0.238,0.658,0.838,-959.839,-142.701,63.476,0,0,0,
,-0.121,0.608,0.715,-895.264,-204.59,119.873,0,0,0,
,-0.173,0.638,0.746,-797.059,-268.067,156.494,0,0,0,
,-0.272,0.698,0.742,-626.831,-223.755,211.731,0,0,0,
,-0.251,0.579,0.798,-513.977,-161.194,144.287,0,0,0,
,-0.225,0.506,0.744,-472.474,-31.006,100.952,0,0,0,
,-0.212,0.434,0.677,-593.75,52.673,75.5,0,0,0,
,-0.14,0.401,0.5,-761.109,123.657,31.311,0,0,0,
,-0.006,0.3,0.428,-1086.548,13.427,-16.968,0,0,0,
,-0.05,0.431,0.573,-1243.836,-115.296,-89.295,0,0,0,
,-0.143,0.625,0.763,-1219.666,-29.175,-125.123,0,0,0,
,-0.1,0.636,0.706,-1143.555,98.693,-208.924,0,0,0,
,0.052,0.512,0.693,-971.802,190.307,-241.15,0,0,0,
,-0.013,0.545,0.533,-783.204,244.69,-75.684,0,0,0,
,0.228,0.501,0.686,-879.212,527.954,97.106,0,0,0,
,0.015,1.005,0.479,-1626.709,476.806,201.416,0,0,0,
,-0.261,1.315,0.35,-621.521,236.511,-18.982,0,0,0,
,-0.037,0.933,0.187,35.156,409.057,6.469,0,0,0,
,-0.045,0.851,0.097,145.324,131.836,39.062,0,0,0,
,-0.197,0.937,0.234,329.712,177.917,33.203,0,0,0,
,-0.159,0.97,0.415,552.856,300.598,31.372,0,0,0,
,-0.167,0.992,0.508,684.448,464.66,76.721,0,0,0,
,-0.005,0.861,0.445,864.502,504.943,-62.134,0,0,0,
,0.075,0.66,0.51,706.115,105.957,58.715,0,0,0,
,0.063,0.726,0.563,510.376,-71.351,42.602,0,0,0,
,-0.053,0.747,0.651,324.768,-265.015,58.837,0,0,0,
,-0.131,0.818,0.584,92.407,-136.536,167.602,0,0,0,
,-0.019,1.053,0.54,240.051,-341.187,81.665,0,0,0,
,-0.1,0.851,0.527,491.638,-459.473,-73.853,0,0,0,
,-0.217,0.667,0.513,449.829,-558.411,22.277,0,0,0,
,-0.259,0.76,0.648,327.88,-516.907,29.846,0,0,0,
,-0.282,0.527,0.733,184.753,-550.721,-24.903,0,0,0,
,-0.351,0.419,0.612,-144.959,-354.737,15.686,0,0,0,
,-0.347,0.573,0.494,-302.796,-214.844,26.367,0,0,0,
,-0.317,0.789,0.438,-211.487,-112.854,56.945,0,0,0,
,-0.231,0.682,0.388,-165.223,19.958,-48.584,0,0,0,
,-0.186,0.438,0.512,-265.931,-38.758,-116.333,0,0,0,
,-0.273,0.409,0.559,-684.632,-6.531,-61.524,0,0,0,
,-0.339,0.789,0.419,-1041.81,129.638,-105.774,0,0,0,
,-0.175,1.055,0.471,-736.084,186.706,-82.215,0,0,0,
,-0.078,1.072,0.396,-404.847,238.647,-125.428,0,0,0,
,-0.075,1.026,0.351,-206.849,162.658,-91.919,0,0,0,
,-0.122,0.9,0.475,-192.139,49.682,-62.561,0,0,0,
,-0.218,0.886,0.498,-196.778,27.221,-47.669,0,0,0,
,-0.255,0.825,0.357,-290.955,66.589,-43.03,0,0,0,
,-0.153,0.977,0.373,-218.934,-22.889,-73.06,0,0,0,
,-0.203,1.168,0.305,142.089,-101.258,-98.023,0,0,0,
,-0.194,1.097,0.372,415.771,-190.003,-170.777,0,0,0,
,-0.233,0.933,0.405,675.964,-277.1,-197.388,0,0,0,
,-0.284,0.962,0.363,832.092,-210.328,-166.504,0,0,0,
,-0.241,0.777,0.439,863.342,-197.571,-140.564,0,0,0,
,-0.204,0.617,0.597,531.799,-174.988,-141.419,0,0,0,
,-0.233,0.708,0.665,129.455,-75.684,-131.653,0,0,0,
,-0.298,0.892,0.655,-105.53,20.996,-113.404,0,0,0,
,-0.175,0.889,0.72,167.358,62.866,-113.221,0,0,0,
,-0.135,0.839,0.616,369.934,4.821,-143.128,0,0,0,
,-0.147,0.928,0.531,641.296,-19.41,-128.54,0,0,0,
,-0.2,0.652,0.515,786.255,-142.029,-140.137,0,0,0,
,-0.055,0.476,0.845,224.548,-97.901,-134.827,0,0,0,
,-0.198,0.438,0.682,-282.715,12.085,-182.068,0,0,0,
,-0.133,0.804,0.733,-512.024,144.287,15.747,0,0,0,
,-0.06,1.058,0.555,-376.648,231.689,-0.916,0,0,0,
,-0.01,1.075,0.543,-19.776,191.528,-43.885,0,0,0,
,-0.068,0.73,0.504,141.479,114.685,-124.817,0,0,0,
,-0.067,0.608,0.533,44.738,169.494,-138.794,0,0,0,
,-0.073,0.651,0.592,-7.935,132.141,-143.982,0,0,0,
,-0.078,0.656,0.675,-57.496,135.559,-156.922,0,0,0,
,-0.052,0.739,0.674,-64.454,154.235,-124.146,0,0,0,
,-0.057,0.786,0.526,16.906,167.541,-130.738,0,0,0,
,0.014,0.747,0.38,140.197,126.22,-150.452,0,0,0,
,0.05,0.669,0.453,154.235,5.249,-152.649,0,0,0,
,0.016,0.795,0.525,196.899,7.812,-128.846,0,0,0,
,0.017,0.672,0.58,172.485,-8.667,-203.309,0,0,0,
,-0.039,0.634,0.625,131.713,6.225,-188.477,0,0,0,
,-0.004,0.822,0.585,166.87,27.893,-171.326,0,0,0,
,0.04,0.778,0.581,251.403,7.812,-200.806,0,0,0,
,0.032,0.617,0.58,211.792,30.334,-175.721,0,0,0,
,0.061,0.604,0.577,91.98,51.269,-142.945,0,0,0,
,0.028,0.752,0.617,-9.034,71.777,-148.377,0,0,0,
,-0.017,0.77,0.627,69.763,91.919,-206.116,0,0,0,
,0.028,0.696,0.604,161.01,105.59,-240.784,0,0,0,
,-0.021,0.666,0.645,58.288,39.489,-239.136,0,0,0,
,-0.044,0.746,0.608,71.472,73.303,-243.348,0,0,0,
,0.024,0.713,0.586,59.814,31.921,-208.558,0,0,0,
,0.003,0.908,0.595,98.51,29.846,-187.134,0,0,0,
,-0.008,0.918,0.679,279.48,38.086,-233.46,0,0,0,
,0.027,0.73,0.708,358.398,66.345,-273.499,0,0,0,
,0.01,0.64,0.844,211.609,42.663,-226.563,0,0,0,
,-0.017,0.771,0.875,54.687,122.619,-171.326,0,0,0,
,0.037,0.833,0.732,85.083,154.541,-110.169,0,0,0,
,0.088,0.85,0.689,79.834,70.068,-73.914,0,0,0,
,0.034,0.833,0.757,9.826,2.441,-76.783,0,0,0,
,0.05,0.786,0.734,-80.506,16.235,-45.472,0,0,0,
,0.166,0.72,0.69,-342.957,-22.095,71.533,0,0,0,
,0.177,0.794,0.663,-704.285,-144.288,249.328,0,0,0,
,0.028,0.955,0.621,-1015.32,-214.295,408.081,0,0,0,
,-0.025,1.118,0.549,-1195.923,-239.808,521.789,0,0,0,
,-0.197,1.282,0.569,-1169.007,-198.304,589.05,0,0,0,
,-0.281,1.183,0.324,-943.238,-40.589,572.204,0,0,0,
,-0.246,1.313,0.232,-616.211,60.485,648.925,0,0,0,
,-0.227,1.201,0.245,-155.03,83.496,527.282,0,0,0,
,-0.294,0.867,0.201,182.556,121.032,448.059,0,0,0,
,-0.23,0.642,0.233,332.214,143.798,428.161,0,0,0,
,-0.172,0.507,0.42,289.734,76.355,319.641,0,0,0,
,-0.245,0.435,0.52,266.418,106.384,228.149,0,0,0,
,-0.156,0.408,0.444,203.552,208.679,153.259,0,0,0,
,-0.018,0.499,0.489,245.239,123.291,32.775,0,0,0,
,-0.011,0.58,0.51,419.311,39.917,-100.281,0,0,0,
,0.17,0.504,0.635,466.247,-52.674,-169.678,0,0,0,
,0.246,0.626,0.63,399.475,-249.817,-144.959,0,0,0,
,0.031,0.805,0.701,442.871,-319.214,-98.633,0,0,0,
,-0.083,0.895,0.531,571.289,-183.533,-107.972,0,0,0,
,-0.014,0.802,0.481,693.542,-185.791,-137.391,0,0,0,
,-0.191,0.692,0.618,745.361,-119.324,-214.844,0,0,0,
,-0.092,0.451,0.752,684.753,-71.473,-282.532,0,0,0,
,-0.093,0.223,0.843,161.865,-141.602,-273.438,0,0,0,
,-0.215,0.62,0.834,-160.523,-114.502,-214.478,0,0,0,
,-0.125,0.909,0.711,42.236,-75.562,-236.939,0,0,0,
,-0.047,0.872,0.757,276.611,-82.337,-239.685,0,0,0,
,-0.103,0.883,0.753,503.845,-46.448,-178.223,0,0,0,
,-0.157,0.686,0.741,596.923,-0.367,-219.788,0,0,0,
,-0.157,0.51,0.687,584.838,67.443,-238.526,0,0,0,
,-0.05,0.165,0.714,173.767,72.326,-289.063,0,0,0,
,-0.132,0.269,0.8,-284.058,84.655,-210.816,0,0,0,
,-0.051,0.679,0.741,-436.89,143.432,-148.499,0,0,0,
,0.073,1.058,0.625,-169.495,115.295,-149.292,0,0,0,
,0.016,1.015,0.624,225.952,40.649,-178.223,0,0,0,
,-0.105,0.701,0.641,468.444,46.569,-178.406,0,0,0,
,-0.11,0.596,0.666,546.753,78.125,-160.828,0,0,0,
,-0.004,0.248,0.693,305.786,55.297,-224.61,0,0,0,
,-0.142,0.474,0.937,-69.581,60.302,-144.654,0,0,0,
,0.041,1.002,0.741,119.995,94.177,-104.065,0,0,0,
,-0.04,1.042,0.817,507.69,61.767,-101.38,0,0,0,
,-0.109,0.749,0.953,737.121,97.595,-86.243,0,0,0,
,-0.076,0.423,1.033,462.707,99.243,-98.877,0,0,0,
,-0.111,0.512,1.081,156.494,113.525,27.099,0,0,0,
,0.009,0.593,0.939,-45.838,92.834,110.656,0,0,0,
,0.076,0.709,0.841,-258.851,-19.043,131.469,0,0,0,
,0.036,0.701,0.927,-326.905,-102.356,137.451,0,0,0,
,-0.052,0.526,0.922,-637.879,-128.602,199.524,0,0,0,
,-0.127,0.726,0.905,-884.339,-81.665,361.633,0,0,0,
,-0.116,0.879,0.706,-888.428,-13.672,469.238,0,0,0,
,-0.07,1.003,0.521,-810.425,-36.255,537.963,0,0,0,
,-0.081,1.089,0.469,-641.053,-130.249,453.796,0,0,0,
,-0.206,0.908,0.592,-374.512,-209.534,357.544,0,0,0,
,-0.368,0.803,0.687,-53.101,-76.783,436.645,0,0,0,
,-0.258,0.651,0.418,123.474,97.656,374.023,0,0,0,
,-0.071,0.485,0.632,41.565,36.743,325.378,0,0,0,
,-0.28,0.513,0.503,-82.276,155.883,343.933,0,0,0,
,-0.208,0.506,0.337,-218.201,197.754,279.846,0,0,0,
,-0.109,0.566,0.464,-143.372,70.495,270.324,0,0,0,
,-0.175,0.643,0.563,17.395,27.526,178.65,0,0,0,
,-0.189,0.549,0.698,243.53,23.62,84.655,0,0,0,
,-0.136,0.557,0.723,435.424,67.81,31.311,0,0,0,
,-0.08,0.47,0.694,516.845,114.196,-135.01,0,0,0,
,0.087,0.18,0.743,293.579,36.865,-250.184,0,0,0,
,0.074,0.196,0.823,-210.328,-147.889,-175.965,0,0,0,
,-0.198,0.776,0.724,-384.461,-109.436,-49.683,0,0,0,
,-0.103,1.235,0.642,87.585,-93.628,-15.748,0,0,0,
,-0.165,0.352,0.722,632.324,-34.302,-145.63,0,0,0,
,-0.104,0.387,0.76,440.734,-17.884,-136.353,0,0,0,
,-0.134,0.384,0.769,227.417,-29.053,-154.419,0,0,0,
,-0.151,0.607,0.764,156.982,-36.744,-109.314,0,0,0,
,-0.093,0.736,0.703,371.338,-24.048,-81.116,0,0,0,
,-0.096,0.727,0.783,571.533,-39.612,-93.628,0,0,0,
,-0.141,0.493,0.741,693.481,42.968,-144.715,0,0,0,
,-0.069,0.212,0.722,544.189,52.978,-168.091,0,0,0,
,-0.111,0.091,0.816,29.052,-15.198,-191.102,0,0,0,
,-0.245,0.484,0.807,-191.834,46.447,-115.845,0,0,0,
,-0.176,0.665,0.77,-158.448,15.502,-173.401,0,0,0,
,-0.151,0.767,0.814,12.695,-17.884,-170.105,0,0,0,
,-0.2,0.661,0.803,168.701,-11.963,-174.378,0,0,0,
,-0.161,0.519,0.814,232.849,-5.982,-167.847,0,0,0,
,-0.153,0.4,0.879,110.656,-7.203,-153.321,0,0,0,
,-0.169,0.524,0.961,-72.571,3.234,-152.71,0,0,0,
,-0.167,0.657,0.954,-70.618,46.814,-146.851,0,0,0,
,-0.17,0.764,0.929,94.299,51.452,-127.381,0,0,0,
,-0.13,0.79,0.875,309.204,67.993,-92.774,0,0,0,
,-0.14,0.669,0.894,472.717,79.589,-87.708,0,0,0,
,-0.145,0.525,0.907,565.063,108.947,-91.37,0,0,0,
,-0.187,0.406,0.936,544.433,153.869,-106.629,0,0,0,
,-0.206,0.383,0.928,473.022,218.567,-159.668,0,0,0,
,-0.144,0.34,0.922,419.983,250.366,-212.098,0,0,0,
,-0.128,0.288,0.979,265.747,200.134,-192.81,0,0,0,
,-0.012,0.402,1.005,131.897,156.86,-110.169,0,0,0,
,0.047,0.437,1.078,-83.497,41.931,-63.843,0,0,0,
,-0.018,0.655,1.076,-251.77,-19.837,-1.221,0,0,0,
,0.059,0.59,0.997,-272.644,-102.662,-7.935,0,0,0,
,-0.032,0.411,0.954,-604.859,-258.301,36.621,0,0,0,
,-0.152,0.523,0.901,-1034.791,-325.745,130.981,0,0,0,
,-0.187,0.684,0.786,-1285.096,-341.98,164.978,0,0,0,
,-0.198,0.802,0.677,-1314.576,-332.032,158.569,0,0,0,
,-0.229,0.848,0.592,-1106.202,-297.486,197.57,0,0,0,
,-0.264,0.887,0.612,-700.684,-234.009,300.72,0,0,0,
,-0.31,0.981,0.678,-253.602,-121.277,377.807,0,0,0,
,-0.218,0.871,0.616,145.141,32.409,344.543,0,0,0,
,-0.153,0.534,0.52,359.863,111.816,271.179,0,0,0,
,-0.139,0.352,0.499,334.045,80.383,237.976,0,0,0,
,-0.147,0.257,0.571,213.623,59.448,249.206,0,0,0,
,-0.166,0.297,0.59,51.391,99.609,255.432,0,0,0,
,-0.148,0.398,0.571,42.48,132.507,242.187,0,0,0,
,-0.133,0.505,0.554,89.721,121.521,175.354,0,0,0,
,-0.151,0.565,0.652,258.361,113.891,94.421,0,0,0,
,-0.166,0.575,0.667,562.378,193.725,57.19,0,0,0,
,0.029,0.425,0.742,767.7,103.82,-43.885,0,0,0,
,-0.353,0.17,1.205,-103.272,-138.123,-61.524,0,0,0,
,-0.249,0.696,0.846,-205.079,13.488,-10.437,0,0,0,
,-0.03,0.653,0.74,-84.778,-38.941,-189.637,0,0,0,
,-0.183,0.638,0.761,97.106,-28.809,-120.545,0,0,0,
,-0.167,0.619,0.712,316.711,5.798,-100.098,0,0,0,
,-0.11,0.445,0.684,370.361,-0.916,-122.62,0,0,0,
,-0.15,0.317,0.763,198.669,-18.128,-150.696,0,0,0,
,-0.177,0.342,0.873,44.677,20.324,-169.007,0,0,0,
,-0.13,0.376,0.867,-61.951,36.01,-204.529,0,0,0,
,-0.132,0.535,0.827,-49.012,33.874,-169.983,0,0,0,
,-0.174,0.584,0.783,24.597,31.982,-187.439,0,0,0,
,-0.216,0.547,0.77,154.419,56.945,-203.309,0,0,0,
,-0.243,0.536,0.925,-70.74,60.791,-196.9,0,0,0,
,-0.198,0.65,0.936,4.028,87.036,-218.934,0,0,0,
,-0.186,0.573,0.9,67.81,99.548,-216.919,0,0,0,
,-0.186,0.684,0.923,68.42,73.181,-185.914,0,0,0,
,-0.188,0.751,0.852,281.067,103.576,-159.852,0,0,0,
,-0.143,0.504,0.821,381.164,117.492,-207.581,0,0,0,
,-0.157,0.336,0.89,248.352,123.901,-196.289,0,0,0,
,-0.166,0.555,0.976,145.752,162.719,-155.945,0,0,0,
,-0.126,0.464,0.948,103.027,200.073,-205.994,0,0,0,
,-0.164,0.513,0.998,45.898,187.072,-148.194,0,0,0,
,-0.16,0.657,1.039,-6.653,166.076,-120.606,0,0,0,
,-0.076,0.728,0.988,36.071,129.028,-82.093,0,0,0,
,0.016,0.702,0.883,83.496,13.244,-17.212,0,0,0,
,0.011,0.609,0.831,56.884,-140.015,51.879,0,0,0,
,-0.04,0.54,0.896,-201.477,-300.415,86.059,0,0,0,
,-0.208,0.495,0.972,-674.378,-398.743,92.529,0,0,0,
,-0.274,0.662,0.866,-1055.176,-398.987,155.151,0,0,0,
,-0.247,0.789,0.667,-1246.888,-367.249,140.014,0,0,0,
,-0.256,0.812,0.533,-1208.802,-374.756,140.808,0,0,0,
,-0.27,0.828,0.485,-1066.346,-341.004,193.359,0,0,0,
,-0.282,0.803,0.628,-858.094,-268.494,213.928,0,0,0,
,-0.326,0.732,0.67,-601.807,-113.343,283.935,0,0,0,
,-0.209,0.678,0.558,-411.683,15.441,279.297,0,0,0,
,-0.162,0.652,0.448,-267.701,98.51,238.708,0,0,0,
,-0.147,0.518,0.446,-213.685,141.113,178.466,0,0,0,
,-0.162,0.474,0.478,-193.97,172.668,140.869,0,0,0,
,-0.137,0.529,0.503,-120.057,161.316,114.013,0,0,0,
,-0.081,0.568,0.534,-28.321,117.309,64.086,0,0,0,
,0.055,0.698,0.704,196.289,-47.181,45.837,0,0,0,
,-0.061,0.598,0.92,571.777,-135.682,63.293,0,0,0,
,-0.224,0.482,0.797,650.39,-110.84,135.131,0,0,0,
,-0.158,0.63,0.721,521.179,-83.802,105.041,0,0,0,
,-0.17,0.743,0.739,544.86,-44.739,38.208,0,0,0,
,-0.155,0.592,0.734,676.147,12.451,-15.809,0,0,0,
,-0.14,0.497,0.721,642.517,9.643,-12.33,0,0,0,
,-0.205,0.451,0.737,470.52,13.977,-40.345,0,0,0,
,-0.218,0.415,0.699,353.698,37.475,-108.643,0,0,0,
,-0.185,0.249,0.758,203.064,20.69,-175.66,0,0,0,
,-0.224,0.375,0.87,57.739,32.775,-204.285,0,0,0,
,-0.216,0.524,0.863,72.143,53.894,-246.155,0,0,0,
,-0.229,0.557,0.833,74.829,47.668,-280.457,0,0,0,
,-0.31,0.586,0.811,2.868,56.457,-288.269,0,0,0,
,-0.218,0.537,0.797,-61.219,55.419,-286.622,0,0,0,
,-0.27,0.666,0.806,-137.574,60.363,-256.348,0,0,0,
,-0.189,0.808,0.772,20.141,71.899,-215.76,0,0,0,
,-0.194,0.688,0.757,220.886,94.116,-172.913,0,0,0,
,-0.196,0.595,0.762,288.757,106.14,-145.874,0,0,0,
,-0.151,0.529,0.77,280.639,115.356,-154.358,0,0,0,
,-0.198,0.51,0.818,159.668,105.835,-161.744,0,0,0,
,-0.165,0.505,0.844,113.281,137.39,-187.928,0,0,0,
,-0.182,0.535,0.888,46.508,144.531,-206.727,0,0,0,
,-0.21,0.618,0.934,35.766,137.878,-157.105,0,0,0,
,-0.201,0.745,0.924,92.956,144.836,-160.645,0,0,0,
,-0.181,0.619,0.868,197.021,171.02,-182.801,0,0,0,
,-0.173,0.516,0.851,295.898,217.773,-161.316,0,0,0,
,-0.142,0.333,0.932,83.801,209.228,-172.12,0,0,0,
,-0.168,0.563,1.04,-110.718,205.81,-93.018,0,0,0,
,-0.134,0.472,1.046,-121.644,238.22,0,0,0,0,
,-0.141,0.569,0.906,-247.193,224.609,200.012,0,0,0,
,-0.044,1.127,0.752,-225.586,53.711,344.726,0,0,0,
,0.016,1.222,0.696,-61.89,-143.128,170.227,0,0,0,
,-0.148,0.783,0.788,-185.914,-356.568,60.241,0,0,0,
,-0.348,0.732,0.892,-326.355,-399.414,184.814,0,0,0,
,-0.344,0.828,0.784,-420.35,-327.149,270.324,0,0,0,
,-0.21,0.822,0.598,-484.986,-269.593,272.522,0,0,0,
,-0.221,0.704,0.482,-499.39,-241.883,275.634,0,0,0,
,-0.249,0.581,0.541,-538.392,-156.128,294.616,0,0,0,
,-0.261,0.554,0.546,-584.656,-46.631,280.212,0,0,0,
,-0.192,0.596,0.497,-556.519,38.391,239.441,0,0,0,
,-0.179,0.562,0.457,-420.289,81.97,190.918,0,0,0,
,-0.167,0.446,0.455,-200.684,61.34,214.599,0,0,0,
,-0.144,0.561,0.471,43.945,23.986,291.137,0,0,0,
,-0.171,0.601,0.573,295.471,-21.973,253.173,0,0,0,
,-0.185,0.513,0.591,453.064,-18.799,189.941,0,0,0,
,-0.153,0.404,0.599,432.556,-17.029,113.464,0,0,0,
,-0.037,0.392,0.619,363.22,-91.248,36.56,0,0,0,
,0.082,0.325,0.948,263,-345.093,-18.433,0,0,0,
,-0.288,0.462,0.859,211.975,-169.617,-25.94,0,0,0,
,-0.112,0.624,0.822,254.455,-91.187,12.573,0,0,0,
,-0.133,0.63,0.855,362.915,-29.48,-14.588,0,0,0,
,-0.235,0.626,0.862,465.454,-13.977,-3.785,0,0,0,
,-0.265,0.533,0.859,513,-15.992,-17.212,0,0,0,
,-0.309,0.412,0.876,498.169,6.103,-52.674,0,0,0,
,-0.331,0.355,0.911,415.283,35.278,-128.602,0,0,0,
,-0.307,0.285,0.896,234.069,64.392,-221.558,0,0,0,
,-0.282,0.385,0.863,10.803,101.44,-273.255,0,0,0,
,-0.24,0.532,0.769,-68.665,128.54,-290.589,0,0,0,
,-0.245,0.613,0.763,-24.414,140.197,-276.429,0,0,0,
,-0.24,0.682,0.799,93.933,122.436,-229.432,0,0,0,
,-0.215,0.635,0.783,202.88,108.093,-175.049,0,0,0,
,-0.231,0.552,0.836,164.734,96.557,-151.368,0,0,0,
,-0.24,0.618,0.838,164.489,115.051,-122.132,0,0,0,
,-0.219,0.569,0.813,185.241,122.924,-133.301,0,0,0,
,-0.197,0.538,0.834,188.049,107.727,-134.522,0,0,0,
,-0.207,0.522,0.809,207.763,106.933,-132.081,0,0,0,
,-0.174,0.45,0.797,193.786,120.056,-155.274,0,0,0,
,-0.169,0.404,0.83,132.629,140.686,-167.542,0,0,0,
,-0.193,0.411,0.872,43.701,175.232,-161.988,0,0,0,
,-0.209,0.433,0.939,-6.775,225.952,-107.727,0,0,0,
,-0.234,0.495,1.015,4.394,269.409,-30.884,0,0,0,
,-0.203,0.563,1.007,9.277,269.409,25.146,0,0,0,
,-0.223,0.912,1.083,56.518,230.224,47.851,0,0,0,
,-0.272,0.735,1.082,175.964,242.981,-64.82,0,0,0,
,-0.268,0.562,1.05,233.52,219.787,-57.618,0,0,0,
,-0.248,0.527,0.961,230.957,185.119,-18.555,0,0,0,
,-0.166,0.558,0.917,195.251,149.902,8.178,0,0,0,
,-0.129,0.646,0.846,226.928,100.402,-13.611,0,0,0,
,-0.085,0.551,0.737,261.718,15.319,-62.806,0,0,0,
,-0.015,0.331,0.694,180.664,-162.903,-53.711,0,0,0,
,0.032,0.336,0.769,-301.636,-357.3,31.555,0,0,0,
,-0.065,0.656,0.864,-902.283,-500.428,93.078,0,0,0,
,-0.204,0.981,0.821,-1076.294,-520.325,137.817,0,0,0,
,-0.251,1.011,0.687,-915.406,-487.977,182.8,0,0,0,
,-0.304,0.875,0.583,-690.857,-406.373,247.558,0,0,0,
,-0.298,0.694,0.525,-609.314,-314.515,279.602,0,0,0,
,-0.315,0.482,0.529,-581.665,-67.261,305.603,0,0,0,
,-0.242,0.485,0.479,-504.029,19.836,291.259,0,0,0,
,-0.198,0.561,0.515,-371.277,71.228,226.745,0,0,0,
,-0.202,0.508,0.563,-99.732,143.127,134.155,0,0,0,
,-0.154,0.317,0.549,86.608,213.684,54.809,0,0,0,
,-0.093,0.273,0.563,192.81,285.217,-10.987,0,0,0,
,0.128,0.177,1.44,249.328,-329.773,-145.569,0,0,0,
,-0.586,0.467,1.072,288.513,-21.79,27.893,0,0,0,
,0.033,0.769,0.868,489.99,-13.184,70.678,0,0,0,
,-0.203,0.573,0.764,498.23,45.044,-69.458,0,0,0,
,-0.227,0.471,0.777,419.983,18.127,-90.76,0,0,0,
,-0.241,0.397,0.795,275.879,37.414,-141.541,0,0,0,
,-0.248,0.39,0.857,105.713,108.276,-193.97,0,0,0,
,-0.279,0.463,0.907,86.853,111.755,-170.166,0,0,0,
,-0.262,0.675,0.901,141.662,123.474,-120.789,0,0,0,
,-0.262,0.753,0.827,149.353,143.31,-163.453,0,0,0,
,-0.303,0.731,0.796,170.227,152.893,-179.505,0,0,0,
,-0.256,0.689,0.785,244.873,126.159,-159.18,0,0,0,
,-0.204,0.491,0.779,219.421,136.474,-189.209,0,0,0,
,-0.205,0.481,0.79,249.878,138.305,-181.031,0,0,0,
,-0.168,0.504,0.816,281.433,126.892,-176.819,0,0,0,
,-0.183,0.464,0.803,226.867,136.963,-215.149,0,0,0,
,-0.195,0.571,0.876,193.603,144.775,-198.67,0,0,0,
,-0.141,0.406,0.942,114.868,201.11,-209.29,0,0,0,
,-0.124,0.43,0.957,26.306,205.322,-177.124,0,0,0,
,-0.132,0.518,0.963,73.852,229.126,-167.115,0,0,0,
,-0.132,0.627,0.966,221.13,226.257,-128.724,0,0,0,
,-0.129,0.567,0.924,361.572,217.102,-122.01,0,0,0,
,-0.139,0.407,0.924,506.286,269.47,-102.784,0,0,0,
,-0.068,0.287,0.874,579.284,296.081,-122.071,0,0,0,
,-0.029,0.248,0.792,413.696,233.337,-98.816,0,0,0,
,0.045,0.298,0.739,224.975,121.338,-70.557,0,0,0,
,0.155,0.255,0.753,-239.136,-118.775,-106.324,0,0,0,
,0.115,0.545,0.91,-798.218,-377.93,-31.311,0,0,0,
,0.03,0.816,0.99,-1128.968,-475.098,71.106,0,0,0,
,-0.095,1.028,0.914,-1213.074,-520.386,173.034,0,0,0,
,-0.176,1.076,0.722,-1102.112,-529.725,251.403,0,0,0,
,-0.243,0.984,0.585,-999.085,-538.636,322.692,0,0,0,
,-0.283,0.842,0.587,-924.073,-524.353,356.384,0,0,0,
,-0.354,0.695,0.637,-838.135,-435.364,367.187,0,0,0,
,-0.365,0.603,0.614,-702.088,-259.095,397.766,0,0,0,
,-0.288,0.521,0.61,-535.584,-82.52,374.328,0,0,0,
,-0.242,0.437,0.597,-405.213,63.964,298.645,0,0,0,
,-0.181,0.405,0.534,-306.641,158.264,222.961,0,0,0,
,-0.093,0.393,0.501,-203.858,209.045,146.545,0,0,0,
,-0.054,0.401,0.539,-32.044,250.061,107.116,0,0,0,
,-0.398,0.184,1.216,694.091,160.461,137.634,0,0,0,
,-0.084,0.409,0.871,591.369,132.446,230.835,0,0,0,
,0.077,0.596,0.857,416.32,117.736,55.786,0,0,0,
,-0.241,0.373,0.937,451.11,116.272,-112.183,0,0,0,
,-0.203,0.347,0.879,409.057,78.002,-120.301,0,0,0,
,-0.204,0.507,0.869,329.406,65.185,-162.537,0,0,0,
,-0.219,0.642,0.845,394.775,53.283,-166.932,0,0,0,
,-0.231,0.562,0.841,420.776,59.143,-205.262,0,0,0,
,-0.262,0.527,0.779,365.539,76.538,-214.051,0,0,0,
,-0.263,0.473,0.744,172.546,110.534,-264.161,0,0,0,
,-0.228,0.502,0.778,89.843,106.323,-275.879,0,0,0,
,-0.234,0.569,0.914,36.193,103.82,-270.447,0,0,0,
,-0.221,0.643,0.92,100.28,85.205,-241.7,0,0,0,
,-0.192,0.643,0.915,165.832,85.083,-211.914,0,0,0,
,-0.171,0.671,0.893,240.295,78.857,-160.767,0,0,0,
,-0.126,0.536,0.817,223.816,91.064,-184.998,0,0,0,
,-0.172,0.486,0.773,209.35,99.975,-174.988,0,0,0,
,-0.154,0.393,0.801,240.417,118.53,-181.458,0,0,0,
,-0.135,0.383,0.892,209.777,122.741,-167.664,0,0,0,
,-0.133,0.52,0.925,204.284,107.299,-152.527,0,0,0,
,-0.103,0.492,0.903,212.646,137.39,-188.355,0,0,0,
,-0.135,0.502,0.927,237.671,132.08,-179.383,0,0,0,
,-0.144,0.544,0.915,356.994,147.155,-168.824,0,0,0,
,-0.087,0.334,0.887,418.884,160.034,-162.842,0,0,0,
,-0.095,0.385,0.887,367.187,129.272,-103.455,0,0,0,
,-0.107,0.445,0.906,357.666,141.174,-106.629,0,0,0,
,-0.098,0.419,0.924,279.297,137.268,-133.179,0,0,0,
,-0.133,0.416,0.952,256.469,117.492,-140.87,0,0,0,
,-0.101,0.42,0.998,349.182,94.36,-142.701,0,0,0,
,0.02,0.121,1.024,414.001,0.244,-127.564,0,0,0,
,0.036,0.116,0.967,333.374,-149.842,-58.716,0,0,0,
,-0.048,0.395,0.998,108.093,-108.094,40.283,0,0,0,
,0.027,0.377,0.982,-130.494,-184.388,-2.076,0,0,0,
,-0.106,0.38,1.197,-40.589,-204.407,-144.471,0,0,0,
,-0.172,0.238,1.104,-45.35,-112.671,-180.054,0,0,0,
,-0.123,0.196,1.121,-381.653,-73.365,-195.984,0,0,0,
,-0.173,0.517,1.083,-313.66,-0.672,-135.987,0,0,0,
,-0.174,0.492,0.911,-252.198,115.6,-169.434,0,0,0,
,0.011,0.553,0.648,-154.48,-21.058,-78.37,0,0,0,
,-0.004,0.417,0.81,-94.544,-123.597,-36.56,0,0,0,
,0.113,0.857,1.086,227.661,-184.082,112.915,0,0,0,
,-0.124,0.198,1.322,-721.863,-45.899,-22.522,0,0,0,
,-0.484,0.536,0.905,-11.292,102.478,-124.817,0,0,0,
,-0.125,0.138,0.735,-376.038,450.012,45.898,0,0,0,
,0.133,0.012,0.793,-824.036,304.443,-75.135,0,0,0,
,-0.053,0.213,0.855,-1176.209,330.322,169.25,0,0,0,
,-0.082,0.247,0.871,-1177.979,487.732,274.414,0,0,0,
,0.065,0.39,0.628,-1461.243,657.776,341.247,0,0,0,
,0.186,0.724,0.649,-1832.825,494.018,309.692,0,0,0,
,0.067,0.892,0.749,-1803.528,360.595,208.068,0,0,0,
,-0.076,0.729,0.715,-1551.575,425.781,217.956,0,0,0,
,-0.096,0.606,0.629,-1332.032,562.622,340.576,0,0,0,
,-0.065,0.718,0.309,-1143.067,621.154,436.889,0,0,0,
,0.026,0.832,0.137,-1188.355,388.916,353.942,0,0,0,
,-0.014,0.815,0.032,-1231.69,53.711,177.978,0,0,0,
,-0.067,0.883,0.084,-1023.743,-220.643,152.465,0,0,0,
,-0.109,1.102,0.35,-806.397,-393.25,150.573,0,0,0,
,0,1.164,0.616,-751.648,-200.135,78.918,0,0,0,
,-0.141,1.245,0.285,-262.024,-222.168,6.469,0,0,0,
,-0.152,0.727,0.425,63.964,-292.847,-165.223,0,0,0,
,-0.273,0.718,0.351,146.179,-198.06,68.847,0,0,0,
,-0.239,0.869,0.34,88.745,-2.32,299.438,0,0,0,
,-0.074,1.102,0.071,150.268,191.101,81.848,0,0,0,
,0.075,0.651,0.137,-11.597,-129.517,-116.639,0,0,0,
,-0.063,0.493,0.201,-196.839,-322.144,31.86,0,0,0,
,-0.235,1.369,0.106,-267.395,-197.815,294.372,0,0,0,
,-0.105,1.36,0.136,-13.428,-236.451,56.091,0,0,0,
,-0.054,1.142,0.432,554.382,-351.136,-3.907,0,0,0,
,-0.238,1.031,0.54,871.643,-202.576,104.675,0,0,0,
,-0.164,0.699,0.588,680.359,-42.115,30.273,0,0,0,
,-0.17,0.439,0.415,228.271,49.133,-12.94,0,0,0,
,-0.142,0.607,0.324,-113.099,116.272,122.009,0,0,0,
,-0.172,0.964,0.251,-200.623,72.876,131.591,0,0,0,
,-0.202,1.051,0.236,29.357,10.192,54.443,0,0,0,
,-0.228,1.073,0.414,667.602,-150.208,51.757,0,0,0,
,-0.193,0.948,0.451,933.899,-103.516,120.666,0,0,0,
,-0.152,0.763,0.352,868.469,-163.453,74.401,0,0,0,
,-0.136,0.397,0.386,506.042,-216.797,-15.564,0,0,0,
,-0.179,0.328,0.46,-95.948,-234.864,-21.485,0,0,0,
,-0.253,0.843,0.608,-37.964,-162.903,6.774,0,0,0,
,-0.115,1.143,0.583,308.899,-78.919,-95.398,0,0,0,
,-0.054,1.074,0.628,836.609,-3.846,-142.151,0,0,0,
,-0.037,0.775,0.556,1133.3,56.518,-102.601,0,0,0,
,0.023,0.578,0.605,1081.054,27.832,-39.307,0,0,0,
,0.012,0.471,0.786,842.407,-39.734,-40.345,0,0,0,
,-0.134,0.55,0.831,709.228,-46.692,-69.764,0,0,0,
,-0.114,0.582,0.706,653.869,-31.189,-82.642,0,0,0,
,-0.074,0.579,0.704,543.457,-36.194,-111.817,0,0,0,
,-0.175,0.634,0.628,552.978,50.964,-101.685,0,0,0,
,-0.11,0.326,0.748,368.652,73.73,-169.007,0,0,0,
,-0.163,0.406,0.873,48.034,97.9,-140.87,0,0,0,
,-0.109,0.629,0.938,-89.722,78.552,-186.341,0,0,0,
,-0.143,0.589,0.967,-184.815,63.842,-222.474,0,0,0,
,-0.185,0.77,0.882,-84.046,79.467,-245.728,0,0,0,
,-0.086,0.663,0.754,58.96,75.012,-256.165,0,0,0,
,-0.084,0.66,0.675,27.954,24.353,-243.348,0,0,0,
,-0.096,0.696,0.627,75.622,68.42,-214.051,0,0,0,
,-0.043,0.694,0.635,140.991,105.041,-186.341,0,0,0,
,-0.024,0.654,0.7,194.946,135.07,-211.731,0,0,0,
,-0.032,0.55,0.804,163.269,125.427,-255.799,0,0,0,
,-0.017,0.518,0.823,67.993,131.53,-261.292,0,0,0,
,-0.054,0.581,0.76,-84.778,138.061,-261.902,0,0,0,
,-0.046,0.723,0.721,-65.918,142.456,-269.532,0,0,0,
,-0.016,0.767,0.728,93.689,147.583,-255.799,0,0,0,
,-0.033,0.674,0.728,148.986,154.846,-239.624,0,0,0,
,-0.064,0.745,0.779,275.329,193.481,-207.703,0,0,0,
,0.013,0.646,0.81,351.013,208.191,-231.995,0,0,0,
,0.015,0.534,0.895,270.507,201.172,-274.659,0,0,0,
,0.002,0.559,0.927,169.25,194.946,-218.628,0,0,0,
,0.101,0.571,0.868,-27.955,179.382,-105.591,0,0,0,
,0.159,0.726,0.858,-254.029,83.374,47.851,0,0,0,
,0.03,1.087,0.835,-277.588,-6.897,184.204,0,0,0,
,0.041,0.968,0.816,-11.414,10.742,159.057,0,0,0,
,0.079,0.673,0.818,31.677,-46.998,236.511,0,0,0,
,0.112,0.586,0.819,-238.648,-103.699,319.519,0,0,0,
,0.052,0.596,0.807,-699.646,-179.505,415.283,0,0,0,
,-0.034,0.951,0.755,-1014.466,-213.257,505.676,0,0,0,
,-0.078,1.186,0.661,-999.573,-247.925,441.467,0,0,0,
,-0.163,1.052,0.76,-664.429,-276.734,378.051,0,0,0,
,-0.262,0.81,0.601,-465.821,-185.059,420.959,0,0,0,
,-0.267,0.409,0.362,-769.593,-150.391,284.301,0,0,0,
,-0.315,0.538,0.412,-840.943,-153.565,227.783,0,0,0,
,-0.272,0.504,0.52,-761.231,-99.976,82.946,0,0,0,
,-0.223,0.537,0.525,-646.18,1.281,95.459,0,0,0,
,-0.13,0.676,0.581,-654.236,30.517,-39.673,0,0,0,
,-0.203,0.756,0.506,-553.956,128.234,-150.269,0,0,0,
,-0.104,0.697,0.318,-427.979,232.971,-295.716,0,0,0,
,-0.005,0.61,0.208,-399.842,137.512,-312.867,0,0,0,
,0.11,0.74,0.274,-496.46,-63.599,-241.7,0,0,0,
,0.013,1.176,0.19,-327.698,-228.394,-150.33,0,0,0,
,0.108,1.323,0.324,161.01,-318.665,-173.401,0,0,0,
,-0.059,1.175,0.345,605.774,-165.284,-91.614,0,0,0,
,-0.073,0.835,0.252,696.167,82.214,-10.376,0,0,0,
,-0.094,0.886,0.158,441.162,252.014,18.371,0,0,0,
,0.028,0.931,0.306,566.589,481.445,30.151,0,0,0,
,0.021,0.549,0.487,431.335,367.309,-110.962,0,0,0,
,-0.092,0.798,0.676,368.408,234.069,83.435,0,0,0,
,-0.032,0.926,0.82,199.279,77.27,-13.001,0,0,0,
,-0.11,0.94,0.734,470.214,-59.937,-1.648,0,0,0,
,-0.063,0.841,0.634,725.28,-152.588,-19.837,0,0,0,
,-0.154,0.748,0.638,876.159,-187.806,-55.237,0,0,0,
,-0.157,0.636,0.547,1027.343,-137.696,-100.953,0,0,0,
,-0.144,0.439,0.528,1024.963,-134.827,-144.593,0,0,0,
,-0.101,0.381,0.671,923.584,-144.349,-182.496,0,0,0,
,-0.123,0.487,0.799,716.613,-133.728,-194.275,0,0,0,
,-0.126,0.609,0.77,567.26,-110.779,-208.558,0,0,0,
,-0.114,0.77,0.718,646.057,-92.347,-215.943,0,0,0,
,-0.138,0.75,0.712,930.847,-53.406,-184.998,0,0,0,
,-0.108,0.443,0.63,1065.612,-19.837,-219.605,0,0,0,
,-0.131,0.399,0.768,1108.032,-6.592,-215.76,0,0,0,
,-0.104,0.139,0.867,613.22,27.099,-287.11,0,0,0,
,-0.099,0.554,0.968,213.44,32.714,-313.477,0,0,0,
,-0.043,0.718,0.897,598.755,72.509,-280.823,0,0,0,
,-0.038,0.507,0.875,906.982,68.603,-266.358,0,0,0,
,-0.148,0.473,0.791,1154.052,98.51,-228.577,0,0,0,
,-0.032,-0.026,0.874,1139.953,160.4,-292.298,0,0,0,
,-0.017,-0.02,1.075,421.264,203.125,-294.007,0,0,0,
,0.002,0.317,1.258,-229.554,218.567,-284.974,0,0,0,
,0.164,0.662,1.422,-450.196,83.923,-156.617,0,0,0,
,-0.008,1.103,1.335,-512.33,-42.054,5.981,0,0,0,
,0.015,0.807,0.938,-126.526,-4.517,82.519,0,0,0,
,0.117,0.512,0.853,-29.725,-164.124,141.418,0,0,0,
,-0.029,0.401,0.913,-127.137,-298.157,201.721,0,0,0,
,-0.114,0.483,1.088,-375.977,-330.384,238.647,0,0,0,
,-0.135,0.619,0.986,-528.016,-279.297,271.728,0,0,0,
,-0.145,0.546,0.916,-671.57,-216.614,255.615,0,0,0,
,-0.061,0.939,0.62,-573.182,89.538,460.388,0,0,0,
,-0.003,0.776,0.796,-445.862,52.002,398.071,0,0,0,
,-0.229,0.368,0.588,-498.352,204.284,292.114,0,0,0,
,-0.201,0.38,0.756,-479.126,178.833,383.667,0,0,0,
,-0.057,0.407,0.73,-567.261,212.707,357.666,0,0,0,
,-0.106,0.572,0.676,-482.666,192.199,347.778,0,0,0,
,-0.085,0.714,0.596,-216.797,78.125,335.388,0,0,0,
,-0.096,0.554,0.573,106.994,-29.664,125.244,0,0,0,
,-0.15,0.333,0.623,102.844,-3.846,116.027,0,0,0,
,-0.03,0.211,0.84,-282.288,-16.968,12.39,0,0,0,
,-0.202,0.4,0.898,-495.484,-62.378,-44.922,0,0,0,
,-0.2,0.505,0.715,-408.387,106.75,-194.153,0,0,0,
,-0.168,0.427,0.681,-467.041,146.423,-285.889,0,0,0,
,-0.111,0.334,0.542,-680.359,137.329,-297.303,0,0,0,
,-0.037,0.577,0.523,-767.273,40.954,-236.206,0,0,0,
,-0.015,1.014,0.689,-558.411,-30.091,-170.777,0,0,0,
,-0.067,1.192,0.628,-109.07,42.846,-156.434,0,0,0,
,-0.012,0.963,0.591,154.846,66.223,-142.884,0,0,0,
,-0.054,0.778,0.62,128.051,59.997,-129.639,0,0,0,
,-0.087,0.716,0.601,41.015,62.988,-134.156,0,0,0,
,-0.088,0.692,0.611,-48.584,55.236,-162.293,0,0,0,
,-0.098,0.71,0.612,-65.613,31.677,-174.317,0,0,0,
,-0.108,0.766,0.607,-35.889,25.39,-171.814,0,0,0,
,-0.099,0.766,0.612,-26.368,-3.174,-177.185,0,0,0,
,-0.14,0.675,0.629,-114.624,14.343,-211.121,0,0,0,
,-0.105,0.739,0.638,-142.945,42.907,-206.116,0,0,0,
,-0.024,0.774,0.618,-57.557,48.95,-216.065,0,0,0,
,-0.037,0.815,0.589,25.817,31.738,-205.872,0,0,0,
,-0.024,0.869,0.587,120.178,44.616,-188.538,0,0,0,
,-0.032,0.822,0.585,125.488,44.86,-200.623,0,0,0,
,-0.034,0.888,0.637,206.115,52.856,-181.092,0,0,0,
,-0.001,0.755,0.631,191.467,53.772,-175.721,0,0,0,
,-0.026,0.891,0.623,272.461,39.55,-120.728,0,0,0,
,0.023,0.803,0.605,400.756,42.114,-124.756,0,0,0,
,-0.035,0.786,0.655,410.888,5.798,-110.718,0,0,0,
,-0.035,0.833,0.739,490.112,12.756,-112.183,0,0,0,
,-0.028,0.783,0.723,601.623,45.654,-179.322,0,0,0,
,0.012,0.576,0.677,781.25,50.72,-225.403,0,0,0,
,0.012,0.498,0.683,761.169,72.692,-207.825,0,0,0,
,0.08,0.334,0.674,503.662,60.791,-186.158,0,0,0,
,0.111,0.362,0.77,172.973,24.536,-63.904,0,0,0,
,0.09,0.643,0.917,-147.4,-18.616,77.209,0,0,0,
,0.11,0.981,0.905,-256.165,-18.067,140.503,0,0,0,
,0.143,0.989,0.842,-261.78,-63.355,125.427,0,0,0,
,0.109,0.814,0.788,-354.248,-160.401,168.396,0,0,0,
,0.008,0.795,0.757,-556.946,-247.925,281.311,0,0,0,
,-0.084,0.832,0.691,-763.306,-267.762,408.508,0,0,0,
,-0.19,1.04,0.523,-537.537,-255.066,368.652,0,0,0,
,-0.203,0.787,0.461,-152.894,-149.964,358.337,0,0,0,
,-0.136,0.503,0.459,16.601,-76.416,412.048,0,0,0,
,-0.107,0.536,0.539,20.08,-10.193,448.486,0,0,0,
,-0.136,0.594,0.544,12.817,78.674,387.817,0,0,0,
,-0.181,0.598,0.541,60.974,118.225,226.135,0,0,0,
,-0.227,0.353,0.546,129.516,149.17,125.244,0,0,0,
,-0.126,0.14,0.511,-70.252,167.175,88.867,0,0,0,
,-0.036,0.321,0.457,-302.796,125.427,169.067,0,0,0,
,-0.02,0.668,0.556,-250.123,25.695,168.274,0,0,0,
,-0.027,0.953,0.773,80.993,-46.448,157.592,0,0,0,
,-0.156,0.831,0.79,177.307,15.441,48.584,0,0,0,
,-0.137,0.619,0.732,266.418,-169.678,8.483,0,0,0,
,-0.208,0.499,0.736,234.375,-86.182,-29.541,0,0,0,
,-0.137,0.473,0.683,40.283,-205.079,-32.654,0,0,0,
,-0.147,0.634,0.667,-34.852,-225.403,-38.025,0,0,0,
,-0.189,0.803,0.724,185.485,-268.555,-62.806,0,0,0,
,-0.242,0.795,0.708,425.964,-115.845,-39.917,0,0,0,
,-0.152,0.426,0.768,8.728,71.899,-239.136,0,0,0,
,-0.085,0.526,0.762,-258.912,47.729,-234.742,0,0,0,
,-0.099,0.854,0.753,-312.317,-11.475,-199.585,0,0,0,
,-0.185,1.046,0.716,-65.125,58.105,-180.115,0,0,0,
,-0.139,0.864,0.625,164.184,119.445,-203.309,0,0,0,
,-0.121,0.652,0.616,248.779,123.779,-184.51,0,0,0,
,-0.135,0.656,0.671,197.082,102.539,-141.663,0,0,0,
,-0.134,0.639,0.733,150.085,82.153,-147.767,0,0,0,
,-0.156,0.681,0.72,68.115,43.884,-154.602,0,0,0,
,-0.178,0.814,0.708,110.534,23.742,-151.978,0,0,0,
,-0.211,0.811,0.7,223.938,34.973,-160.401,0,0,0,
,-0.185,0.779,0.706,286.987,32.348,-147.278,0,0,0,
,-0.17,0.727,0.771,285.461,44.799,-156.311,0,0,0,
,-0.168,0.745,0.773,224.67,46.814,-142.456,0,0,0,
,-0.131,0.677,0.817,368.164,68.176,-147.522,0,0,0,
,-0.111,0.701,0.835,462.402,64.086,-102.784,0,0,0,
,-0.123,0.635,0.787,519.409,78.064,-90.882,0,0,0,
,-0.122,0.594,0.725,495.971,72.265,-70.984,0,0,0,
,-0.112,0.503,0.843,378.112,34.301,-109.07,0,0,0,
,-0.18,0.582,0.933,274.414,44.189,-131.653,0,0,0,
,-0.127,0.487,0.892,223.938,85.449,-172.547,0,0,0,
,-0.051,0.352,0.788,-46.753,16.357,-148.438,0,0,0,
,-0.029,0.5,0.768,-366.761,-108.521,-44.617,0,0,0,
,-0.023,0.81,0.748,-527.1,-195.435,52.368,0,0,0,
,0.007,0.978,0.738,-489.93,-308.045,103.942,0,0,0,
,-0.055,0.863,0.737,-554.871,-433.106,101.867,0,0,0,
,-0.202,0.804,0.753,-739.136,-483.643,187.133,0,0,0,
,-0.193,0.941,0.643,-869.873,-426.209,192.993,0,0,0,
,-0.259,0.849,0.523,-984.803,-367.737,208.74,0,0,0,
,-0.278,0.77,0.449,-994.996,-222.168,276.977,0,0,0,
,-0.245,0.865,0.464,-976.563,-57.801,299.255,0,0,0,
,-0.255,0.833,0.476,-740.906,96.13,275.146,0,0,0,
,-0.165,0.815,0.505,-516.602,166.198,242.126,0,0,0,
,-0.091,0.536,0.475,-394.227,240.478,225.83,0,0,0,
,-0.226,0.46,0.401,-601.868,341.308,249.878,0,0,0,
,-0.149,0.702,0.428,-568.909,204.162,230.529,0,0,0,
,-0.222,0.711,0.652,-506.714,69.397,129.577,0,0,0,
,-0.299,0.8,0.528,-192.444,67.016,161.071,0,0,0,
,-0.051,0.732,0.502,301.086,-96.436,87.402,0,0,0,
,-0.211,0.468,0.547,831.848,-100.831,142.761,0,0,0,
,-0.173,0.562,0.712,348.022,-39.307,-149.781,0,0,0,
,-0.143,0.57,0.747,48.4,-29.786,-220.459,0,0,0,
,-0.266,0.852,0.798,-57.801,-35.706,-158.875,0,0,0,
,-0.195,0.99,0.619,82.153,0.61,-75.501,0,0,0,
,-0.155,0.982,0.556,217.773,-14.832,-71.289,0,0,0,
,-0.276,0.902,0.568,478.21,-14.161,-42.481,0,0,0,
,-0.25,0.729,0.528,635.131,-3.846,-16.114,0,0,0,
,-0.245,0.546,0.542,582.702,-38.88,-41.321,0,0,0,
,-0.233,0.499,0.543,506.103,-76.477,-51.514,0,0,0,
,-0.204,0.496,0.566,446.838,-85.633,-75.379,0,0,0,
,-0.211,0.505,0.666,412.414,-48.401,-107.239,0,0,0,
,-0.178,0.613,0.742,372.192,-13.001,-138.55,0,0,0,
,-0.134,0.545,0.799,265.075,24.475,-213.135,0,0,0,
,-0.236,0.703,0.64,56.884,56.762,-274.109,0,0,0,
,-0.232,0.662,0.675,159.729,49.56,-223.755,0,0,0,
,-0.271,0.732,0.78,145.813,49.804,-204.041,0,0,0,
,-0.227,0.78,0.762,357.727,80.139,-228.699,0,0,0,
,-0.22,0.449,0.759,288.025,92.224,-256.409,0,0,0,
,-0.25,0.859,0.792,187.072,84.411,-199.341,0,0,0,
,-0.145,0.639,0.671,394.043,137.756,-309.998,0,0,0,
,-0.177,0.497,0.747,235.595,132.446,-238.099,0,0,0,
,-0.184,0.823,0.839,208.068,160.156,-178.101,0,0,0,
,-0.159,0.753,0.893,118.042,206.298,-142.334,0,0,0,
,-0.163,0.721,0.824,57.556,192.505,-47.364,0,0,0,
,-0.13,0.715,0.791,-101.319,118.408,28.686,0,0,0,
,-0.11,0.601,0.753,-249.939,33.203,11.779,0,0,0,
,-0.032,0.611,0.878,-444.642,-85.816,23.376,0,0,0,
,-0.324,0.74,1.029,-689.515,-88.074,85.937,0,0,0,
,-0.12,0.945,0.538,-734.314,-101.563,169.677,0,0,0,
,-0.001,0.822,0.484,-731.873,-234.375,133.3,0,0,0,
,-0.306,0.821,0.696,-754.7,-263.062,291.504,0,0,0,
,-0.293,0.887,0.648,-673.34,-209.534,379.089,0,0,0,
,-0.262,0.939,0.556,-592.408,-163.514,438.72,0,0,0,
,-0.258,1.014,0.628,-486.084,-93.506,361.572,0,0,0,
,-0.442,0.744,0.697,-263.733,205.139,249.817,0,0,0,
,-0.261,0.47,0.425,-167.115,274.109,250.976,0,0,0,
,-0.202,0.603,0.41,-134.4,275.94,338.867,0,0,0,
,-0.206,0.722,0.486,30.639,285.461,409.24,0,0,0,
,-0.209,0.479,0.492,84.716,268.737,347.534,0,0,0,
,-0.244,0.593,0.555,119.079,307.556,304.565,0,0,0,
,-0.221,0.716,0.421,421.02,395.08,287.536,0,0,0,
,0.101,0.614,0.399,567.382,223.693,109.13,0,0,0,
,0.111,0.566,0.821,791.32,-102.051,35.217,0,0,0,
,-0.334,0.42,0.942,929.992,-1.282,3.479,0,0,0,
,-0.237,0.451,0.886,898.01,155.395,41.931,0,0,0,
,-0.1,0.422,0.759,743.835,252.136,4.394,0,0,0,
,-0.116,0.556,0.644,690.49,236.328,1.831,0,0,0,
,-0.145,0.689,0.685,673.034,147.949,-16.541,0,0,0,
,-0.225,0.577,0.723,772.766,130.432,-95.337,0,0,0,
,-0.189,0.442,0.771,738.464,88.195,-84.229,0,0,0,
,-0.184,0.436,0.779,589.904,45.471,-83.497,0,0,0,
,-0.196,0.532,0.75,610.778,2.807,-53.162,0,0,0,
,-0.167,0.47,0.735,592.651,-50.538,-98.572,0,0,0,
,-0.249,0.376,0.956,361.694,107.666,-140.931,0,0,0,
,-0.277,0.447,0.969,287.963,112.304,-121.338,0,0,0,
,-0.253,0.475,0.889,325.561,106.079,-120.545,0,0,0,
,-0.214,0.43,0.889,330.2,85.449,-109.62,0,0,0,
,-0.216,0.457,0.918,408.935,92.468,-80.201,0,0,0,
,-0.178,0.427,0.929,534.729,105.285,-72.327,0,0,0,
,-0.195,0.356,0.989,513,135.009,-90.882,0,0,0,
,-0.158,0.282,0.964,454.284,133.728,-115.174,0,0,0,
,-0.17,0.381,0.972,429.748,134.765,-54.871,0,0,0,
,-0.131,0.382,0.93,520.63,125.061,-36.927,0,0,0,
,-0.121,0.234,0.946,509.704,119.995,-21.485,0,0,0,
,-0.117,0.138,0.937,410.766,159.912,-44.739,0,0,0,
,-0.126,0.099,0.911,388.244,162.048,-43.702,0,0,0,
,-0.147,0.11,0.95,351.989,175.232,-55.726,0,0,0,
,-0.138,0.113,0.973,275.329,192.749,-76.233,0,0,0,
,-0.138,0.042,1.072,-12.146,185.73,-120.362,0,0,0,
,-0.128,-0.012,1.082,-187.867,142.212,-155.945,0,0,0,
,0.005,-0.008,0.992,-463.013,4.211,-103.943,0,0,0,
,0.032,0.196,0.988,-811.524,-87.83,-20.081,0,0,0,
,-0.076,0.569,1.102,-801.026,-177.857,52.551,0,0,0,
,-0.004,0.521,0.999,-693.116,-301.209,-88.99,0,0,0,
,-0.104,0.331,1.068,-884.888,-489.014,-46.753,0,0,0,
,-0.28,0.637,1.117,-899.537,-488.221,109.375,0,0,0,
,-0.353,0.692,1.015,-736.512,-461.853,135.559,0,0,0,
,-0.337,0.618,0.866,-540.039,-421.631,205.993,0,0,0,
,-0.329,0.637,0.737,-352.539,-404.358,285.522,0,0,0,
,-0.36,0.571,0.715,-201.233,-398.255,273.132,0,0,0,
,-0.389,0.327,0.746,247.558,-68.848,248.962,0,0,0,
,-0.266,0.206,0.588,250.366,9.277,189.575,0,0,0,
,-0.115,0.122,0.553,152.893,-16.297,213.195,0,0,0,
,-0.092,0.073,0.743,-139.405,-128.052,247.924,0,0,0,
,-0.249,0.334,0.753,-43.152,46.569,319.152,0,0,0,
,-0.335,-0.154,1.043,402.832,52.551,89.233,0,0,0,
,-0.181,0.019,0.912,37.658,124.572,52.49,0,0,0,
,-0.225,0.213,0.976,2.258,206.97,-13.611,0,0,0,
,-0.374,0.403,1.011,268.066,397.888,46.264,0,0,0,
,-0.07,0.503,0.783,594.482,273.437,5.188,0,0,0,
,-0.176,0.295,0.979,-162.049,50.231,-9.217,0,0,0,
,-0.183,0.25,0.952,-178.833,0.549,-21.485,0,0,0,
,-0.24,0.523,0.856,7.446,32.226,47.363,0,0,0,
,-0.171,0.372,0.773,210.632,45.532,-30.03,0,0,0,
,-0.226,0.187,0.844,213.379,84.228,-73.243,0,0,0,
,-0.232,0.15,0.893,96.069,114.563,-99.976,0,0,0,
,-0.176,0.248,0.869,138.427,154.174,-91.858,0,0,0,
,-0.188,0.217,0.905,184.997,148.193,-138.55,0,0,0,
,-0.187,0.241,0.95,151.855,165.161,-134.888,0,0,0,
,-0.191,0.314,0.958,123.779,187.988,-134.583,0,0,0,
,-0.242,0.327,0.933,302.49,200.805,-94.422,0,0,0,
,-0.152,0.096,0.953,267.639,122.436,-131.348,0,0,0,
,-0.25,0.129,1.028,188.232,160.034,-97.657,0,0,0,
,-0.205,0.244,0.975,222.229,202.209,-122.925,0,0,0,
,-0.221,0.163,0.995,206.543,227.417,-186.768,0,0,0,
,-0.183,0.247,0.966,212.097,248.535,-174.744,0,0,0,
,-0.152,0.315,1.004,302.246,237.121,-88.807,0,0,0,
,-0.163,0.246,1.032,449.524,257.019,-140.442,0,0,0,
,-0.21,0.081,1.007,459.655,359.253,-178.589,0,0,0,
,-0.124,-0.086,0.92,425.781,401.428,-185.547,0,0,0,
,0.134,-0.274,1.058,138.549,121.154,-125.123,0,0,0,
,-0.018,0.425,0.961,-392.823,55.969,-160.462,0,0,0,
,0.061,0.229,0.878,-398.56,-89.844,-94.239,0,0,0,
,0.003,0.189,0.911,-498.963,-295.472,-71.778,0,0,0,
,-0.118,0.194,0.953,-724.61,-486.817,5.432,0,0,0,
,-0.164,0.424,1.035,-951.478,-593.201,103.942,0,0,0,
,-0.264,0.578,0.979,-999.939,-593.018,117.248,0,0,0,
,-0.348,0.642,0.929,-876.648,-581.971,181.884,0,0,0,
,-0.355,0.692,0.825,-605.347,-547.486,263.916,0,0,0,
,-0.373,0.581,0.87,-325.928,-490.845,302.063,0,0,0,
,-0.418,0.398,0.873,-122.864,-383.362,334.533,0,0,0,
,-0.373,0.381,0.931,0.488,-274.414,352.05,0,0,0,
,-0.424,0.21,0.985,-166.504,-109.07,161.926,0,0,0,
,-0.545,0.398,0.526,81.298,149.414,310.608,0,0,0,
,0.06,0.338,0.377,487.304,198.059,180.725,0,0,0,
,-0.025,-0.105,0.463,517.883,30.761,111.999,0,0,0,
,-0.004,0.109,0.778,642.578,12.573,267.028,0,0,0,
,0.175,0.131,0.998,789.123,-18.86,51.208,0,0,0,
,-0.125,-0.453,0.998,406.494,46.203,-136.292,0,0,0,
,-0.11,-0.051,1.038,-33.631,209.167,54.199,0,0,0,
,0.059,0.401,0.924,-41.321,161.804,31.494,0,0,0,
,-0.025,0.461,0.911,264.221,90.637,-55.909,0,0,0,
,-0.166,0.316,0.915,511.108,87.585,-39.063,0,0,0,
,-0.176,0.058,0.988,456.298,68.847,-69.703,0,0,0,
,-0.245,-0.029,1.035,278.137,76.782,-101.319,0,0,0,
,-0.271,0.041,1.037,133.178,102.966,-111.695,0,0,0,
,-0.257,0.225,0.935,131.103,142.273,-108.094,0,0,0,
,-0.192,0.262,0.883,190.612,109.253,-137.269,0,0,0,
,-0.237,0.194,0.922,226.928,108.947,-122.742,0,0,0,
,-0.212,0.153,0.911,216.369,123.413,-137.574,0,0,0,
,-0.198,0.062,0.935,114.196,116.638,-162.903,0,0,0,
,-0.219,0.162,0.949,43.64,137.512,-131.653,0,0,0,
,-0.211,0.202,0.954,79.65,139.77,-139.771,0,0,0,
,-0.179,0.226,0.941,165.954,157.348,-129.517,0,0,0,
,-0.161,0.18,0.911,265.991,189.697,-156.739,0,0,0,
,-0.21,0.118,0.928,330.383,280.212,-169.251,0,0,0,
,-0.092,-0.051,0.793,302.307,292.846,-239.258,0,0,0,
,-0.065,-0.191,0.872,32.714,245.971,-203.37,0,0,0,
,-0.183,0.166,1.146,-191.163,234.985,-118.714,0,0,0,
,-0.293,0.543,1.251,-29.786,260.131,-100.525,0,0,0,
,-0.213,0.347,1.239,190.002,277.099,-185.12,0,0,0,
,-0.211,0.225,1.204,325.073,301.757,-148.56,0,0,0,
,-0.029,0.164,1.056,332.153,182.251,-81.91,0,0,0,
,-0.331,-0.02,1.545,49.072,60.424,4.821,0,0,0,
,-0.409,0.476,1.236,99.121,160.766,108.276,0,0,0,
,-0.14,-0.014,1.046,19.348,109.314,-142.64,0,0,0,
,-0.227,-0.175,0.979,-292.481,111.328,-69.397,0,0,0,
,-0.153,0.045,0.93,-545.105,104.614,-47.669,0,0,0,
,0.056,0.207,0.954,-647.278,-47.791,-79.285,0,0,0,
,0.103,0.252,1.008,-722.779,-289.734,-134.644,0,0,0,
,-0.077,0.231,1.124,-879.212,-512.024,-129.517,0,0,0,
,-0.232,0.42,1.146,-1032.288,-545.35,-27.771,0,0,0,
,-0.259,0.615,1.056,-1071.29,-533.997,16.662,0,0,0,
,-0.292,0.643,0.89,-979.493,-466.309,49.011,0,0,0,
,-0.306,0.634,0.78,-812.073,-422.669,139.892,0,0,0,
,-0.339,0.589,0.687,-566.102,-349.305,200.805,0,0,0,
,-0.373,0.478,0.76,-370.85,-268.494,208.984,0,0,0,
,-0.388,0.41,0.713,-157.288,-166.565,257.812,0,0,0,
,-0.303,0.431,0.629,70.129,-34.241,268.249,0,0,0,
,-0.111,0.26,0.53,307.922,-118.775,273.132,0,0,0,
,-0.158,0.251,0.744,503.601,-127.869,266.052,0,0,0,
,-0.269,0.093,0.683,520.263,19.897,200.195,0,0,0,
,-0.008,0.098,0.629,319.702,-4.151,241.394,0,0,0,
,0.043,0.243,0.752,251.709,-29.297,198.486,0,0,0,
,0.047,0.359,0.974,492.797,-107.789,260.986,0,0,0,
,-0.074,0.157,0.952,678.894,-56.092,190.551,0,0,0,
,-0.13,-0.011,1.097,580.627,10.742,126.831,0,0,0,
,-0.244,-0.115,0.984,277.099,92.59,-13.428,0,0,0,
,-0.236,0.141,0.925,155.761,142.273,-21.546,0,0,0,
,-0.232,0.142,0.881,251.342,142.456,-78.736,0,0,0,
,-0.246,0.108,0.934,278.137,155.517,-79.468,0,0,0,
,-0.259,0.194,0.998,293.64,195.678,-54.505,0,0,0,
,-0.28,0.173,1.01,295.105,189.636,-68.299,0,0,0,
,-0.263,0.207,1.004,265.869,194.275,-82.459,0,0,0,
,-0.236,0.173,0.975,225.525,195.373,-133.423,0,0,0,
,-0.228,0.139,0.955,171.569,174.194,-137.024,0,0,0,
,-0.207,0.177,0.954,88.745,158.447,-131.775,0,0,0,
,-0.186,0.194,0.942,76.416,147.338,-114.747,0,0,0,
,-0.221,0.198,0.997,57.739,149.78,-88.501,0,0,0,
,-0.196,0.174,1.028,44.677,144.47,-93.323,0,0,0,
,-0.219,0.216,1.004,52.307,129.638,-76.905,0,0,0,
,-0.195,0.197,0.906,84.228,123.291,-89.234,0,0,0,
,-0.217,0.095,0.927,46.814,129.15,-107.483,0,0,0,
,-0.213,0.173,0.948,24.658,141.662,-77.942,0,0,0,
,-0.16,0.158,0.946,74.951,120.239,-90.699,0,0,0,
,-0.174,0.117,1.004,52.795,112.671,-91.858,0,0,0,
,-0.216,0.251,1.072,72.509,110.962,-104.248,0,0,0,
,-0.195,0.194,1.033,101.501,121.704,-98.206,0,0,0,
,-0.201,0.072,0.981,58.654,120.971,-102.234,0,0,0,
,-0.158,0.068,0.93,53.588,107.605,-69.825,0,0,0,
,-0.189,0.078,0.961,24.108,110.595,-51.27,0,0,0,
,-0.191,0.123,1.008,40.466,119.445,-39.307,0,0,0,
,-0.182,0.192,1.074,140.564,141.174,-15.564,0,0,0,
,-0.177,0.178,1.092,223.999,150.39,-23.926,0,0,0,
,-0.144,0.125,1.052,241.211,134.887,-3.724,0,0,0,
,-0.13,0.073,1.028,241.638,134.094,31.616,0,0,0,
,-0.141,0.129,1.043,183.105,125.549,54.87,0,0,0,
,-0.14,0.125,1.057,149.292,110.962,25.94,0,0,0,
,-0.143,0.175,1.069,148.803,114.013,28.991,0,0,0,
,-0.138,0.153,1.12,183.41,99.609,6.897,0,0,0,
,-0.137,0.107,1.18,207.946,99.121,-11.719,0,0,0,
,-0.137,0.089,1.213,182.129,114.135,-37.903,0,0,0,
,-0.156,0.127,1.187,142.7,152.465,-52.491,0,0,0,
,-0.145,0.119,1.109,170.105,181.701,-75.318,0,0,0,
,-0.203,0.13,0.991,327.819,257.446,-66.529,0,0,0,
,-0.006,-0.04,0.818,593.567,264.526,-101.075,0,0,0,
,0.187,-0.497,0.732,276.611,3.601,-234.986,0,0,0,
,0.077,-0.434,0.972,-552.552,-304.871,-159.913,0,0,0,
,-0.091,0.062,1.058,-1119.935,-435.242,-87.769,0,0,0,
,-0.126,0.414,0.943,-1345.337,-516.907,-87.708,0,0,0,
,-0.161,0.53,0.819,-1412.11,-661.683,-99.61,0,0,0,
,-0.294,0.598,0.777,-1368.653,-682.618,2.258,0,0,0,
,-0.355,0.625,0.777,-1236.207,-620.057,110.778,0,0,0,
,-0.394,0.564,0.773,-1120.667,-481.568,177.978,0,0,0,
,-0.417,0.466,0.76,-950.684,-315.918,250.61,0,0,0,
,-0.359,0.414,0.72,-740.601,-191.407,317.382,0,0,0,
,-0.277,0.464,0.684,-498.902,-122.742,371.093,0,0,0,
,-0.217,0.483,0.709,-191.773,-92.408,330.993,0,0,0,
,-0.233,0.328,0.779,60.18,-30.03,245.849,0,0,0,
,-0.214,0.196,0.798,163.452,73.425,173.278,0,0,0,
,-0.188,0.122,0.784,213.501,231.811,105.896,0,0,0,
,0.008,0.17,0.693,362.243,266.052,92.834,0,0,0,
,0.449,0.309,1.053,447.082,-196.412,75.866,0,0,0,
,-0.366,0.054,1.284,388.61,-17.334,-42.054,0,0,0,
,-0.234,0.165,1.047,281.616,116.272,73.547,0,0,0,
,0.011,0.454,1.012,333.068,113.342,35.217,0,0,0,
,-0.215,0.452,0.911,596.313,111.999,2.563,0,0,0,
,-0.212,0.148,0.865,545.227,66.345,-49.988,0,0,0,
,-0.201,0.191,0.897,341.003,82.58,-16.541,0,0,0,
,-0.235,0.183,0.992,302.551,90.759,-30.518,0,0,0,
,-0.274,0.085,0.984,251.159,117.92,-71.656,0,0,0,
,-0.26,0.078,0.995,140.686,127.99,-100.403,0,0,0,
,-0.241,0.222,0.939,150.573,134.216,-114.685,0,0,0,
,-0.226,0.26,0.933,217.59,121.093,-119.873,0,0,0,
,-0.264,0.278,0.907,218.383,115.783,-103.455,0,0,0,
,-0.269,0.267,0.987,185.852,100.097,-98.206,0,0,0,
,-0.287,0.334,1.002,209.472,120.422,-63.843,0,0,0,
,-0.282,0.293,0.992,253.418,121.948,-67.322,0,0,0,
,-0.285,0.162,0.977,200.988,110.901,-86.548,0,0,0,
,-0.258,0.177,0.92,162.536,114.074,-88.623,0,0,0,
,-0.197,0.117,0.884,128.479,112.121,-127.32,0,0,0,
,-0.176,0.182,0.905,170.227,117.492,-101.929,0,0,0,
,-0.188,0.098,0.947,173.339,123.657,-139.588,0,0,0,
,-0.157,0.083,0.955,59.875,128.54,-154.297,0,0,0,
,-0.199,0.183,0.948,30.334,151.123,-132.63,0,0,0,
,-0.176,0.191,1.011,47.607,137.634,-124.817,0,0,0,
,-0.208,0.282,1.083,119.69,155.456,-79.712,0,0,0,
,-0.196,0.229,1.116,223.632,146.606,-87.647,0,0,0,
,-0.194,0.232,1.089,266.418,164.123,-43.763,0,0,0,
,-0.216,0.189,1.096,304.138,190.551,-40.589,0,0,0,
,-0.19,0.094,1.064,339.477,196.045,-35.584,0,0,0,
,-0.195,0.001,1.072,271.728,216.369,-47.547,0,0,0,
,-0.17,0.094,1.056,245.727,203.125,-15.564,0,0,0,
,-0.133,0.126,1.074,310.485,200.317,-27.039,0,0,0,
,-0.11,0.024,1.087,301.269,183.838,-86.487,0,0,0,
,-0.106,-0.022,0.999,-335.999,121.948,-93.018,0,0,0,
,0.046,0.049,0.893,-565.247,-10.437,-161.133,0,0,0,
,0.054,0.063,0.879,-838.074,-227.539,-192.017,0,0,0,
,-0.071,0.214,0.96,-1093.445,-421.692,-141.541,0,0,0,
,-0.19,0.535,0.953,-1119.507,-501.038,-31.434,0,0,0,
,-0.222,0.731,0.892,-885.621,-536.072,45.349,0,0,0,
,-0.295,0.681,0.883,-606.812,-499.085,83.74,0,0,0,
,-0.388,0.504,0.916,-396.668,-412.232,184.692,0,0,0,
,-0.388,0.38,0.861,-274.414,-272.706,310.424,0,0,0,
,-0.316,0.345,0.785,-241.028,-182.19,398.437,0,0,0,
,-0.268,0.353,0.758,-278.748,-124.451,399.597,0,0,0,
,-0.253,0.296,0.792,-316.407,-81.177,323.669,0,0,0,
,-0.229,0.214,0.808,-276.734,-26.551,257.751,0,0,0,
,-0.175,0.171,0.801,-192.81,52.124,192.138,0,0,0,
,-0.137,0.137,0.776,-49.683,124.755,144.165,0,0,0,
,0.034,0.262,0.881,139.709,88.073,154.297,0,0,0,
,0.222,0.386,0.979,689.026,-60.73,106.75,0,0,0,
,-0.176,-0.165,0.918,709.228,-25.574,-73.121,0,0,0,
,-0.138,-0.211,0.956,196.655,30.883,9.826,0,0,0,
,-0.014,0.183,1.032,-64.393,63.72,-41.932,0,0,0,
,-0.163,0.371,1.015,98.022,122.863,-79.895,0,0,0,
,-0.191,0.383,0.955,311.706,129.699,-80.811,0,0,0,
,-0.133,0.282,0.944,414.367,106.567,-64.209,0,0,0,
,-0.201,0.145,0.983,348.999,95.703,-61.463,0,0,0,
,-0.232,0.174,0.967,246.46,99.731,-29.908,0,0,0,
,-0.187,0.226,0.885,254.76,97.473,-25.086,0,0,0,
,-0.173,0.169,0.881,265.93,80.322,-45.472,0,0,0,
,-0.214,0.07,0.962,163.452,69.091,-81.36,0,0,0,
,-0.234,0.121,1.028,51.757,80.505,-90.76,0,0,0,
,-0.251,0.213,1.038,27.038,86.914,-109.742,0,0,0,
,-0.265,0.259,1.011,15.319,80.688,-116.456,0,0,0,
,-0.272,0.307,0.985,69.519,65.551,-107.361,0,0,0,
,-0.266,0.262,0.947,135.925,53.955,-96.741,0,0,0,
,-0.233,0.188,0.909,143.371,43.701,-93.323,0,0,0,
,-0.227,0.142,0.934,86.425,53.466,-89.478,0,0,0,
,-0.202,0.126,0.983,13.305,50.537,-116.089,0,0,0,
,-0.177,0.141,0.949,0.122,58.166,-121.705,0,0,0,
,-0.157,0.189,0.937,42.907,63.049,-97.046,0,0,0,
,-0.124,0.199,0.884,130.31,59.875,-102.234,0,0,0,
,-0.106,0.104,0.907,105.041,54.016,-99.732,0,0,0,
,-0.161,0.184,0.979,-8.24,80.322,-93.384,0,0,0,
,-0.172,0.161,1.048,-65.735,80.871,-143.311,0,0,0,
,-0.221,0.252,1.083,-44.068,106.445,-100.525,0,0,0,
,-0.194,0.289,1.033,64.209,110.107,-103.882,0,0,0,
,-0.183,0.161,1.01,143.371,111.45,-107.422,0,0,0,
,-0.173,0.086,0.966,139.709,111.816,-106.873,0,0,0,
,-0.157,0.075,0.998,83.984,126.77,-110.169,0,0,0,
,-0.131,0.123,0.943,104.919,137.634,-109.62,0,0,0,
,-0.114,0.165,0.975,146.362,149.109,-115.296,0,0,0,
,-0.171,0.191,1.013,113.098,172.424,-117.615,0,0,0,
,-0.159,0.178,1.047,66.101,183.899,-142.518,0,0,0,
,-0.187,0.224,1.073,21.667,229.675,-125.306,0,0,0,
,-0.115,0.171,0.989,-42.115,244.506,-142.029,0,0,0,
,-0.061,0.109,1.007,-115.784,239.318,-118.592,0,0,0,
,-0.014,0.067,1.113,-247.742,273.681,-6.897,0,0,0,
,-0.074,0.147,1.088,-349.854,337.585,60.73,0,0,0,
,0.011,0.203,1.024,-548.523,297.729,55.969,0,0,0,
,0.119,0.17,1.07,-508.179,259.582,-11.414,0,0,0,
,-0.034,0.258,1.001,-941.59,196.045,95.459,0,0,0,
,0.034,0.334,0.722,-762.146,70.068,68.908,0,0,0,
,-0.038,0.377,0.811,-807.068,-27.405,8.178,0,0,0,
,-0.079,0.508,0.791,-690.369,-86.976,-36.56,0,0,0,
,-0.003,0.439,0.841,-605.713,-217.041,-145.63,0,0,0,
,-0.062,0.344,0.772,-527.161,-280.701,-249.146,0,0,0,
,-0.041,0.4,0.736,-473.999,-291.321,-148.255,0,0,0,
,0.069,0.196,1.244,-871.827,-397.889,-300.477,0,0,0,
,-0.257,0.359,1.117,-944.642,-313.599,-299.317,0,0,0,
,-0.107,0.395,0.644,-1260.071,222.9,-67.872,0,0,0,
,0.22,0.562,0.491,-1381.409,-7.019,-152.649,0,0,0,
,0.24,0.816,0.769,-1232.911,-231.019,-136.658,0,0,0,
,-0.226,1.237,0.745,-812.867,-101.136,77.209,0,0,0,
,-0.235,0.9,0.63,-565.979,15.197,18.92,0,0,0,
,0.02,0.764,0.696,-457.459,-29.664,-13.794,0,0,0,
,-0.084,0.783,0.472,-184.693,-5.677,-41.016,0,0,0,
,-0.063,0.662,0.661,-20.691,-129.7,-46.387,0,0,0,
,-0.135,0.609,0.655,-185.303,55.908,-49.134,0,0,0,
,-0.127,0.822,0.643,-310.303,81.298,57.067,0,0,0,
,-0.094,1.2,0.513,-211.731,151.672,28.869,0,0,0,
,-0.072,0.978,0.588,98.144,74.951,-126.648,0,0,0,
,-0.164,0.833,0.557,298.706,113.525,-42.42,0,0,0,
,-0.035,0.832,0.666,479.309,80.444,-31.617,0,0,0,
,0.044,0.72,0.726,539.978,6.225,-106.629,0,0,0,
,0.003,0.64,0.847,545.227,-18.128,-83.558,0,0,0,
,-0.074,0.594,0.801,347.29,66.162,-55.848,0,0,0,
,-0.005,0.646,0.892,170.654,142.395,-32.654,0,0,0,
,0.002,0.572,0.623,32.775,219.97,-66.163,0,0,0,
,0.01,0.584,0.7,-58.045,96.923,24.719,0,0,0,
,-0.062,0.723,0.698,17.334,171.692,72.815,0,0,0,
,-0.004,0.712,0.606,121.276,204.345,43.701,0,0,0,
,0.091,0.605,0.562,157.348,127.807,15.686,0,0,0,
,0.076,0.49,0.613,31.921,23.62,2.197,0,0,0,
,0.015,0.548,0.765,-172.974,-25.025,-5.127,0,0,0,
,-0.048,0.6,0.791,-255.738,103.21,10.07,0,0,0,
,0.055,0.696,0.747,-402.955,117.37,16.296,0,0,0,
,0.077,0.809,0.71,-452.881,107.605,14.221,0,0,0,
,0.058,0.806,0.637,-420.533,-4.883,35.217,0,0,0,
,0.023,0.833,0.706,-382.203,-117.676,48.461,0,0,0,
,-0.036,0.872,0.831,-260.071,-93.873,84.716,0,0,0,
,-0.128,0.941,0.756,-171.753,15.502,68.969,0,0,0,
,-0.11,0.727,0.533,-183.167,70.617,6.347,0,0,0,
,-0.094,0.804,0.622,-262.513,26.489,44.982,0,0,0,
,-0.065,0.739,0.521,-198.792,49.499,23.986,0,0,0,
,-0.011,0.617,0.617,-411.316,-17.273,38.94,0,0,0,
,-0.017,0.755,0.643,-478.943,-18.189,134.216,0,0,0,
,-0.018,0.686,0.521,-558.899,-29.358,119.323,0,0,0,
,-0.011,0.701,0.447,-655.335,-81.604,145.324,0,0,0,
,-0.052,0.696,0.345,-706.055,-229.615,138.244,0,0,0,
,-0.124,0.768,0.446,-665.101,-238.953,141.601,0,0,0,
,-0.17,0.823,0.428,-628.357,-104.737,185.302,0,0,0,
,-0.091,0.773,0.376,-661.622,-47.974,126.403,0,0,0,
,-0.064,0.775,0.327,-805.787,-61.524,131.286,0,0,0,
,-0.092,0.896,0.267,-863.221,-92.225,167.663,0,0,0,
,-0.109,1.027,0.377,-768.311,-148.926,90.148,0,0,0,
,-0.173,1.135,0.512,-472.168,5.798,157.531,0,0,0,
,-0.157,0.881,0.312,-553.65,227.417,90.698,0,0,0,
,-0.115,0.751,0.213,-776.368,319.458,179.992,0,0,0,
,-0.107,0.988,0.031,-818.604,304.565,263.977,0,0,0,
,-0.089,1.18,0.088,-604.737,120.849,225.769,0,0,0,
,-0.159,1.161,0.061,-323.975,27.648,117.309,0,0,0,
,-0.193,1.018,0.127,-125.184,-33.692,-2.869,0,0,0,
,-0.201,0.916,0.128,-13.733,-54.871,-56.58,0,0,0,
,-0.199,0.889,0.074,24.902,-66.712,-66.102,0,0,0,
,-0.167,1.029,0.169,48.461,-110.657,-94.056,0,0,0,
,-0.189,1.14,0.176,226.44,-105.347,-80.445,0,0,0,
,-0.163,1.01,0.34,408.752,-59.815,-127.808,0,0,0,
,-0.139,0.754,0.262,199.035,155.7,-55.848,0,0,0,
,-0.148,0.647,0.12,-12.024,107.238,-101.258,0,0,0,
,-0.143,1.021,0.094,-30.945,36.01,-3.235,0,0,0,
,-0.083,1.089,0.107,51.879,48.4,-74.707,0,0,0,
,-0.103,1.039,0.138,70.8,-86.487,-54.322,0,0,0,
,-0.173,1.161,0.125,269.775,-127.015,9.216,0,0,0,
,-0.162,1.078,0.037,542.968,-174.195,-91.736,0,0,0,
,-0.109,0.836,0.103,567.627,-338.196,-150.269,0,0,0,
,-0.219,0.858,0.242,483.764,-317.81,-72.998,0,0,0,
,-0.236,0.935,0.233,507.141,-189.454,-31.189,0,0,0,
,-0.175,1.02,0.248,605.041,-183.411,1.831,0,0,0,
,-0.173,1.06,0.281,760.315,-145.325,20.08,0,0,0,
,-0.162,1.059,0.312,958.252,-53.589,38.269,0,0,0,
,-0.137,0.88,0.277,1043.029,-70.496,60.913,0,0,0,
,-0.154,0.811,0.452,965.454,-91.065,118.53,0,0,0,
,-0.216,0.791,0.508,830.322,-42.359,148.254,0,0,0,
,-0.175,0.753,0.57,683.471,-2.259,145.446,0,0,0,
,-0.185,0.83,0.369,785.156,59.997,194.702,0,0,0,
,-0.176,0.704,0.419,792.236,-36.622,168.518,0,0,0,
,-0.223,0.601,0.488,804.809,-78.858,177.002,0,0,0,
,-0.232,0.454,0.532,730.102,-91.37,123.474,0,0,0,
,-0.24,0.439,0.668,618.225,-92.102,106.811,0,0,0,
,-0.048,0.44,0.426,656.311,20.935,-6.958,0,0,0,
,-0.135,0.462,0.522,595.092,-28.321,-18.555,0,0,0,
,-0.174,0.556,0.63,658.752,80.017,-28.321,0,0,0,
,0.341,0.252,1.044,491.943,-200.928,-152.588,0,0,0,
,-0.392,0.298,1.47,1.709,-194.519,-95.704,0,0,0,
,-0.414,0.666,1.002,163.391,11.047,-8.301,0,0,0,
,-0.1,0.512,0.752,119.567,-46.509,-159.241,0,0,0,
,-0.262,0.667,0.795,182.8,-86.182,-162.476,0,0,0,
,-0.22,0.556,0.758,205.078,-73.487,-182.373,0,0,0,
,-0.213,0.561,0.901,152.221,-44.251,-151.978,0,0,0,
,-0.258,0.541,1.001,117.92,17.517,-170.105,0,0,0,
,-0.285,0.56,0.996,91.857,48.156,-161.927,0,0,0,
,-0.237,0.494,0.822,72.509,56.335,-160.828,0,0,0,
,-0.212,0.596,0.745,81.543,49.011,-114.136,0,0,0,
,-0.152,0.619,0.73,174.438,19.958,-115.357,0,0,0,
,-0.167,0.657,0.777,257.019,11.23,-70.435,0,0,0,
,-0.191,0.609,0.845,317.505,17.211,-85.144,0,0,0,
,-0.225,0.482,0.9,289.306,57.006,-115.174,0,0,0,
,-0.238,0.444,0.925,182.067,60.485,-138.672,0,0,0,
,-0.223,0.45,0.86,100.891,71.106,-150.513,0,0,0,
,-0.181,0.484,0.77,104.309,66.833,-159.363,0,0,0,
,-0.179,0.556,0.747,177.612,72.815,-116.517,0,0,0,
,-0.148,0.594,0.74,343.444,75.988,-122.01,0,0,0,
,-0.124,0.266,0.749,433.715,87.89,-214.234,0,0,0,
,-0.25,0.187,0.917,141.906,99.487,-150.147,0,0,0,
,-0.207,0.41,1.002,48.4,143.432,-167.908,0,0,0,
,-0.202,0.52,0.902,48.217,197.265,-201.05,0,0,0,
,-0.077,0.624,0.79,195.373,173.95,-172.791,0,0,0,
,-0.064,0.656,0.814,409.729,137.878,-123.23,0,0,0,
,-0.17,0.463,0.897,353.454,110.962,-126.221,0,0,0,
,-0.151,0.433,0.91,282.776,129.638,-106.202,0,0,0,
,-0.11,0.447,0.942,214.233,121.338,-72.815,0,0,0,
,-0.157,0.46,0.966,185.547,130.371,-75.013,0,0,0,
,-0.087,0.412,1.025,183.41,99.365,-75.318,0,0,0,
,-0.209,0.577,1.126,106.628,84.35,16.54,0,0,0,
,-0.196,0.47,1.037,135.07,146.362,-50.599,0,0,0,
,-0.18,0.401,0.953,19.348,123.535,-40.284,0,0,0,
,-0.102,0.424,0.897,-74.83,54.626,-0.184,0,0,0,
,-0.011,0.411,0.932,-197.815,-34.058,-0.611,0,0,0,
,-0.002,0.476,0.987,-396.18,-152.649,2.868,0,0,0,
,-0.084,0.437,0.975,-620.972,-207.825,-15.809,0,0,0,
,-0.185,0.678,0.961,-767.456,-213.257,86.792,0,0,0,
,-0.245,0.95,0.811,-556.397,-89.356,241.882,0,0,0,
,-0.197,1.021,0.593,-184.144,-1.893,265.747,0,0,0,
,-0.177,0.806,0.481,152.221,-15.87,290.466,0,0,0,
,-0.21,0.496,0.551,386.474,-38.575,268.188,0,0,0,
,-0.25,0.296,0.669,387.39,-32.532,273.193,0,0,0,
,-0.228,0.131,0.725,250.549,21.301,193.115,0,0,0,
,-0.137,0.223,1.339,78.796,45.898,275.573,0,0,0,
,-0.323,0.329,0.726,-19.776,281.067,275.512,0,0,0,
,0.179,0.737,0.633,262.756,238.586,301.086,0,0,0,
,0.383,0.546,0.737,1140.93,-86.609,121.582,0,0,0,
,-0.066,-0.215,0.682,1106.201,-117.371,37.597,0,0,0,
,-0.087,-0.369,0.897,440.002,-165.65,143.066,0,0,0,
,-0.116,-0.036,0.85,-30.762,27.648,160.949,0,0,0,
,-0.026,0.08,0.982,-302.857,69.091,88.501,0,0,0,
,-0.124,0.198,0.79,-512.269,108.703,-4.212,0,0,0,
,-0.046,0.464,0.84,-300.782,64.941,54.809,0,0,0,
,-0.102,0.641,0.896,86.731,89.721,116.455,0,0,0,
,-0.152,0.258,1.127,256.652,90.332,9.521,0,0,0,
,-0.172,0.227,0.976,-90.76,159.912,1.892,0,0,0,
,-0.187,0.458,0.839,-4.456,15.93,36.315,0,0,0,
,-0.088,0.302,0.94,91.552,-141.602,-38.331,0,0,0,
,-0.272,0.265,0.829,140.503,-147.889,-17.151,0,0,0,
,-0.28,0.309,0.844,78.796,-173.89,-180.603,0,0,0,
,-0.266,0.257,0.748,166.381,-206.91,-154.175,0,0,0,
,-0.153,0.073,0.858,63.781,-360.474,-276.856,0,0,0,
,-0.29,0.271,0.913,-110.962,-311.524,-183.716,0,0,0,
,-0.208,0.564,0.828,-222.29,-119.324,-151.612,0,0,0,
,-0.118,0.588,1.01,-48.035,-142.762,-202.21,0,0,0,
,-0.239,0.552,0.949,203.003,-65.552,-185.547,0,0,0,
,-0.131,0.246,0.79,315.979,-35.767,-239.808,0,0,0,
,-0.18,0.041,0.886,181.762,-12.635,-218.873,0,0,0,
,-0.168,0.063,0.933,28.137,50.17,-235.901,0,0,0,
,-0.147,0.151,0.967,-152.894,106.079,-270.386,0,0,0,
,-0.195,0.308,1.072,-272.644,114.502,-277.1,0,0,0,
,-0.184,0.613,0.932,-66.773,159.484,-269.227,0,0,0,
,-0.131,0.336,0.951,14.343,98.388,-284.18,0,0,0,
,-0.236,0.604,0.969,154.724,109.924,-126.16,0,0,0,
,-0.153,0.402,1.012,277.71,120.666,-162.354,0,0,0,
,-0.133,0.298,0.991,216.613,134.765,-134.888,0,0,0,
,-0.337,0.684,1.3,115.905,110.29,99.182,0,0,0,
,-0.231,0.658,1.157,339.904,144.592,-45.411,0,0,0,
,-0.28,0.213,1.066,238.403,131.652,-51.819,0,0,0,
,-0.3,0.288,1.1,124.328,133.728,-28.992,0,0,0,
,-0.208,0.172,1.055,36.682,144.714,-85.877,0,0,0,
,-0.13,0.163,0.974,-103.455,101.196,-45.472,0,0,0,
,-0.065,0.308,0.845,-237.854,47.729,-35.95,0,0,0,
,-0.026,0.283,0.826,-402.894,-14.222,-86.976,0,0,0,
,-0.001,0.399,0.871,-567.078,-147.767,-52.552,0,0,0,
,-0.028,0.416,1.071,-800.293,-349.122,-87.525,0,0,0,
,-0.244,0.569,1.037,-1037.72,-402.283,-10.071,0,0,0,
,-0.234,0.9,1.111,-920.716,-447.876,69.946,0,0,0,
,-0.254,0.948,0.717,-637.269,-293.213,201.538,0,0,0,
,-0.187,0.729,0.593,-371.644,-335.572,226.013,0,0,0,
,-0.323,0.568,0.629,-252.686,-338.562,333.313,0,0,0,
,-0.384,0.503,0.656,-230.164,-281.861,398.437,0,0,0,
,-0.303,0.492,0.574,-189.087,-228.15,377.014,0,0,0,
,-0.231,0.338,0.597,-141.48,-238.404,294.799,0,0,0,
,-0.269,0.215,0.624,-175.782,-198.731,275.024,0,0,0,
,-0.177,0.206,0.557,-255.494,-176.331,233.215,0,0,0,
,-0.22,0.41,0.805,-181.092,-84.29,208.923,0,0,0,
,-0.244,0.417,0.696,-50.721,68.603,117.126,0,0,0,
,-0.053,0.385,0.626,55.603,154.174,-5.005,0,0,0,
,-0.267,0.561,1.042,112.121,25.39,5.615,0,0,0,
,-0.207,0.462,0.873,216.064,113.586,-57.984,0,0,0,
,-0.257,0.516,0.763,271.545,123.718,-46.936,0,0,0,
,-0.194,0.374,0.738,289.978,109.253,-94.849,0,0,0,
,-0.24,0.329,0.825,191.467,89.233,-82.581,0,0,0,
,-0.294,0.331,0.898,71.96,100.769,-122.559,0,0,0,
,-0.316,0.482,0.873,-11.292,113.83,-232.3,0,0,0,
,-0.249,0.501,0.786,28.381,97.961,-218.567,0,0,0,
,-0.258,0.596,0.796,104.675,73.974,-181.397,0,0,0,
,-0.211,0.53,0.824,200.439,60.669,-174.683,0,0,0,
,-0.247,0.567,0.876,233.276,85.022,-133.667,0,0,0,
,-0.23,0.548,0.82,309.021,105.102,-158.143,0,0,0,
,-0.217,0.323,0.764,291.931,140.319,-198.853,0,0,0,
,-0.228,0.244,0.846,125.305,160.644,-249.207,0,0,0,
,-0.199,0.414,0.713,261.474,242.37,-297.059,0,0,0,
,-0.061,-0.147,0.698,92.285,230.59,-455.567,0,0,0,
,-0.042,0.472,1.163,243.347,111.206,-190.491,0,0,0,
,-0.73,1.67,1.545,164.734,52.551,395.324,0,0,0,
,-0.198,0.825,1.093,630.066,75.073,-102.173,0,0,0,
,-0.436,0.12,1.06,294.616,59.631,39.306,0,0,0,
,-0.334,0.286,0.997,62.866,128.234,26.062,0,0,0,
,-0.205,0.147,0.92,-90.271,145.141,-10.132,0,0,0,
,-0.166,0.299,0.803,-305.359,128.234,45.593,0,0,0,
,-0.016,0.541,0.76,-362.61,54.077,60.302,0,0,0,
,0.116,0.545,0.91,-466.736,-221.802,71.106,0,0,0,
,-0.211,0.796,1.102,-665.101,-345.52,147.705,0,0,0,
,-0.295,0.911,1.022,-605.164,-345.581,168.945,0,0,0,
,-0.59,0.651,0.741,-339.966,39.672,417.724,0,0,0,
,-0.145,0.23,0.245,-423.645,16.845,111.633,0,0,0,
,-0.134,0.305,0.487,-450.684,-212.708,245.727,0,0,0,
,-0.408,0.513,0.568,-325.623,-140.381,230.774,0,0,0,
,-0.167,0.46,0.581,-111.695,-89.478,161.743,0,0,0,
,-0.091,0.365,0.658,26.428,-42.237,161.377,0,0,0,
,-0.173,0.435,0.696,100.647,95.153,171.508,0,0,0,
,0.223,0.494,0.619,261.901,17.944,69.091,0,0,0,
,0.033,0.128,0.91,240.173,-108.216,-59.51,0,0,0,
,-0.257,0.266,0.956,36.071,49.56,-10.071,0,0,0,
,0.033,0.454,0.89,-31.25,86.303,-67.994,0,0,0,
,-0.229,0.338,0.804,327.819,32.47,-84.351,0,0,0,
,-0.259,0.348,0.841,189.087,12.756,-104.737,0,0,0,
,-0.257,0.362,0.853,126.526,36.56,-140.686,0,0,0,
,-0.235,0.369,0.861,105.59,35.583,-166.077,0,0,0,
,-0.227,0.499,0.867,133.972,29.846,-148.499,0,0,0,
,-0.164,0.436,0.779,163.818,65.918,-178.162,0,0,0,
,-0.184,0.496,0.698,248.779,102.111,-127.503,0,0,0,
,-0.164,0.352,0.767,300.903,90.759,-159.668,0,0,0,
,-0.258,0.395,0.849,316.711,133.911,-179.81,0,0,0,
,-0.17,0.226,0.912,34.973,152.832,-266.114,0,0,0,
,-0.24,0.5,0.871,-97.413,144.47,-232.85,0,0,0,
,-0.153,0.617,0.743,79.711,115.173,-191.651,0,0,0,
,-0.17,0.611,0.82,290.954,93.139,-142.762,0,0,0,
,-0.278,0.532,1.05,269.653,110.229,-117.676,0,0,0,
,-0.228,0.493,1.123,258.3,140.808,-153.077,0,0,0,
,-0.206,0.304,1.146,84.35,122.985,-175.354,0,0,0,
,-0.402,0.899,1.301,2.929,94.299,98.449,0,0,0,
,-0.237,0.776,1.074,266.54,151.55,-52.857,0,0,0,
,-0.268,0.45,0.971,252.197,133.422,24.719,0,0,0,
,-0.264,0.392,0.951,179.138,147.216,28.991,0,0,0,
,-0.124,0.229,0.871,11.901,103.82,-10.132,0,0,0,
,-0.072,0.32,0.853,-140.259,27.343,46.569,0,0,0,
,0.05,0.561,0.961,-165.039,-138.062,117.248,0,0,0,
,-0.303,0.671,1.016,-924.866,-471.436,136.169,0,0,0,
,-0.27,0.757,0.818,-927.857,-448.975,148.559,0,0,0,
,-0.297,0.682,0.642,-866.7,-444.947,188.476,0,0,0,
,-0.347,0.663,0.582,-777.039,-416.077,262.695,0,0,0,
