TIMECODE,ACC_X,ACC_Y,ACC_Z,GYR_X,GYR_Y,GYR_Z,ECG_I,ECG_II,ECG_III,TAG
,0.166,-0.368,0.926,66.711,-93.079,-31.861,0,0,0,
,0.183,-0.373,0.948,45.715,-76.233,-29.358,0,0,0,
,0.177,-0.38,0.944,13.732,-53.406,-24.476,0,0,0,
,0.198,-0.365,0.909,15.564,-45.777,-19.227,0,0,0,
,0.197,-0.373,0.931,24.047,-50.477,-36.133,0,0,0,
,0.194,-0.364,0.936,-12.269,-34.18,-28.321,0,0,0,
,0.177,-0.335,0.931,-29.297,-33.753,-38.941,0,0,0,
,0.164,-0.327,0.932,-5.677,-16.419,-44.251,0,0,0,
,0.16,-0.341,0.939,10.253,-30.03,-43.763,0,0,0,
,0.156,-0.371,0.947,14.404,-21.424,-49.195,0,0,0,
,0.152,-0.38,0.944,1.586,-8.301,-47.852,0,0,0,
,0.17,-0.373,0.917,-1.893,-4.883,-48.218,0,0,0,
,0.175,-0.373,0.914,-3.602,-8.851,-45.594,0,0,0,
,0.17,-0.367,0.929,-4.578,-12.024,-44.739,0,0,0,
,0.166,-0.368,0.935,-11.658,-8.057,-47.608,0,0,0,
,0.153,-0.368,0.94,-14.161,-3.052,-46.143,0,0,0,
,0.159,-0.365,0.924,-10.987,-2.686,-41.443,0,0,0,
,0.159,-0.37,0.936,-10.743,-7.081,-40.955,0,0,0,
,0.159,-0.372,0.924,-10.071,-9.278,-42.664,0,0,0,
,0.161,-0.364,0.924,-5.677,-18.921,-37.354,0,0,0,
,0.163,-0.374,0.926,-0.855,-25.574,-32.898,0,0,0,
,0.161,-0.379,0.923,3.234,-28.077,-26.612,0,0,0,
,0.161,-0.372,0.936,-4.7,-23.255,-33.997,0,0,0,
,0.152,-0.378,0.937,-3.235,-22.217,-36.499,0,0,0,
,0.148,-0.363,0.924,-8.851,-23.194,-35.096,0,0,0,
,0.153,-0.364,0.928,-3.479,-22.644,-31.861,0,0,0,
,0.15,-0.375,0.931,-4.395,-26.123,-33.02,0,0,0,
,0.145,-0.373,0.934,-16.053,-17.884,-37.293,0,0,0,
,0.148,-0.368,0.936,-17.334,-10.071,-40.039,0,0,0,
,0.148,-0.363,0.935,-13.672,-9.766,-39.124,0,0,0,
,0.145,-0.368,0.933,-11.17,-9.156,-40.528,0,0,0,
,0.148,-0.378,0.924,-10.132,-7.203,-37.903,0,0,0,
,0.147,-0.377,0.921,-8.118,-14.405,-39.307,0,0,0,
,0.14,-0.378,0.938,-22.095,-5.555,-50.721,0,0,0,
,0.137,-0.364,0.933,-27.222,-5.188,-50.843,0,0,0,
,0.142,-0.359,0.926,-17.518,-3.724,-48.218,0,0,0,
,0.142,-0.405,0.942,-10.254,-3.724,-47.669,0,0,0,
,0.135,-0.384,0.938,-16.541,4.455,-53.406,0,0,0,
,0.14,-0.37,0.923,-23.316,3.418,-46.936,0,0,0,
,0.147,-0.38,0.923,-9.278,-1.221,-41.382,0,0,0,
,0.138,-0.391,0.939,-30.884,-7.264,-44.861,0,0,0,
,0.134,-0.373,0.931,-27.283,0.61,-44.495,0,0,0,
,0.14,-0.366,0.924,-16.541,-2.991,-42.054,0,0,0,
,0.139,-0.369,0.933,-8.179,-13.184,-36.988,0,0,0,
,0.135,-0.383,0.938,-3.235,-14.161,-38.941,0,0,0,
,0.129,-0.368,0.932,-2.625,-11.78,-36.438,0,0,0,
,0.135,-0.374,0.925,6.958,-13.611,-29.786,0,0,0,
,0.138,-0.381,0.927,9.887,-18.067,-26.429,0,0,0,
,0.135,-0.382,0.939,6.469,-15.015,-30.762,0,0,0,
,0.127,-0.372,0.928,10.742,-17.029,-27.344,0,0,0,
,0.136,-0.362,0.928,29.846,-24.598,-22.034,0,0,0,
,0.135,-0.389,0.938,23.559,-23.621,-27.161,0,0,0,
,0.123,-0.396,0.933,9.216,-16.175,-30.762,0,0,0,
,0.126,-0.393,0.93,1.403,-11.109,-27.894,0,0,0,
,0.13,-0.393,0.936,-8.24,-2.93,-34.058,0,0,0,
,0.121,-0.379,0.935,-13.428,0.793,-35.828,0,0,0,
,0.125,-0.381,0.924,-11.048,1.525,-33.692,0,0,0,
,0.127,-0.384,0.931,-10.071,-0.367,-31.739,0,0,0,
,0.121,-0.392,0.939,-21.302,4.15,-37.11,0,0,0,
,0.122,-0.38,0.929,-20.63,11.047,-34.485,0,0,0,
,0.13,-0.381,0.921,-12.391,8.178,-32.166,0,0,0,
,0.126,-0.386,0.925,-9.4,2.807,-31.678,0,0,0,
,0.125,-0.388,0.927,-11.414,3.906,-30.335,0,0,0,
,0.126,-0.392,0.935,-9.827,2.075,-28.26,0,0,0,
,0.122,-0.393,0.935,-12.146,6.836,-31.25,0,0,0,
,0.117,-0.387,0.931,-19.288,8.606,-29.48,0,0,0,
,0.129,-0.378,0.921,-16.297,8.85,-28.321,0,0,0,
,0.131,-0.381,0.926,-9.888,3.662,-29.236,0,0,0,
,0.121,-0.392,0.937,-9.522,-1.587,-29.969,0,0,0,
,0.12,-0.386,0.924,-13.001,0.61,-26.246,0,0,0,
,0.128,-0.384,0.923,-9.339,-3.724,-26.856,0,0,0,
,0.127,-0.388,0.936,-9.827,-5.616,-30.091,0,0,0,
,0.117,-0.387,0.936,-16.358,2.258,-31.373,0,0,0,
,0.119,-0.382,0.927,-13.672,3.845,-26.917,0,0,0,
,0.125,-0.394,0.927,-9.339,6.042,-28.077,0,0,0,
,0.119,-0.393,0.968,-19.41,4.943,-28.931,0,0,0,
,0.116,-0.373,0.928,-18.311,4.333,-28.809,0,0,0,
,0.124,-0.377,0.929,-12.391,4.577,-28.687,0,0,0,
,0.12,-0.39,0.933,-10.376,3.112,-32.105,0,0,0,
,0.114,-0.398,0.938,-15.809,8.667,-39.307,0,0,0,
,0.116,-0.386,0.924,-17.212,11.779,-34.302,0,0,0,
,0.122,-0.392,0.933,-12.513,5.188,-32.532,0,0,0,
,0.115,-0.386,0.926,-16.236,2.868,-30.457,0,0,0,
,0.118,-0.387,0.931,-13.428,5.554,-28.87,0,0,0,
,0.12,-0.39,0.929,-15.748,6.591,-31.678,0,0,0,
,0.12,-0.391,0.933,-10.865,1.525,-29.602,0,0,0,
,0.114,-0.39,0.929,-7.813,1.342,-27.405,0,0,0,
,0.116,-0.384,0.931,-2.442,6.286,-21.851,0,0,0,
,0.12,-0.382,0.927,6.836,-0.367,-20.691,0,0,0,
,0.119,-0.395,0.937,-6.714,14.465,-20.142,0,0,0,
,0.11,-0.414,0.937,-22.4,29.846,-8.667,0,0,0,
,0.114,-0.417,0.933,-57.862,45.41,-0.367,0,0,0,
,0.108,-0.411,0.93,-102.723,67.382,-0.123,0,0,0,
,0.129,-0.415,0.929,-156.8,85.632,12.146,0,0,0,
,0.116,-0.438,0.929,-249.573,148.376,19.165,0,0,0,
,0.144,-0.413,0.902,-278.321,134.155,22.644,0,0,0,
,0.147,-0.324,0.922,-252.076,69.397,4.577,0,0,0,
,0.125,-0.272,0.955,-190.369,39.062,-11.963,0,0,0,
,0.163,-0.324,0.943,-124.207,36.926,2.38,0,0,0,
,0.125,-0.305,0.945,-59.205,1.831,-18.555,0,0,0,
,0.155,-0.286,0.96,-34.424,-7.874,-36.988,0,0,0,
,0.144,-0.296,0.96,-3.418,1.831,-41.443,0,0,0,
,0.148,-0.346,0.934,20.324,-3.113,-36.133,0,0,0,
,0.156,-0.341,0.932,23.315,-11.658,-38.941,0,0,0,
,0.142,-0.35,0.948,32.47,-12.818,-31.128,0,0,0,
,0.159,-0.323,0.941,26.306,-12.269,-50.66,0,0,0,
,0.145,-0.329,0.947,32.653,-15.381,-54.871,0,0,0,
,0.116,-0.379,0.941,-6.043,-2.503,-43.519,0,0,0,
,0.138,-0.375,0.95,-15.931,0.793,-33.02,0,0,0,
,0.145,-0.325,0.946,-6.775,-4.517,-36.805,0,0,0,
,0.143,-0.335,0.941,11.901,-11.78,-38.392,0,0,0,
,0.146,-0.335,0.943,44.25,-29.053,-36.499,0,0,0,
,0.132,-0.358,0.94,51.147,-31.922,-24.781,0,0,0,
,0.135,-0.373,0.968,24.658,-21.18,-21.302,0,0,0,
,0.138,-0.344,0.943,7.202,-17.151,-25.33,0,0,0,
,0.131,-0.34,0.951,10.803,-12.574,-27.649,0,0,0,
,0.128,-0.344,0.94,17.089,-10.682,-21.302,0,0,0,
,0.143,-0.337,0.938,34.851,-14.954,-25.269,0,0,0,
,0.131,-0.367,0.94,37.414,-14.283,-27.588,0,0,0,
,0.133,-0.368,0.935,24.536,-9.583,-24.353,0,0,0,
,0.132,-0.36,0.944,14.343,-6.958,-25.574,0,0,0,
,0.128,-0.357,0.94,10.192,-6.653,-34.546,0,0,0,
,0.12,-0.352,0.937,2.075,-8.851,-29.908,0,0,0,
,0.129,-0.354,0.939,5.493,-5.494,-28.931,0,0,0,
,0.127,-0.366,0.935,4.089,-10.56,-22.4,0,0,0,
,0.136,-0.367,0.94,7.69,-8.362,-17.456,0,0,0,
,0.13,-0.372,0.942,8.361,-11.963,-17.579,0,0,0,
,0.129,-0.367,0.937,17.089,-9.644,-13.794,0,0,0,
,0.123,-0.368,0.935,6.774,-8.179,-12.33,0,0,0,
,0.129,-0.36,0.934,12.451,-11.597,-17.701,0,0,0,
,0.126,-0.364,0.937,6.164,-13.184,-21.851,0,0,0,
,0.12,-0.362,0.952,2.441,-8.423,-22.828,0,0,0,
,0.122,-0.362,0.944,7.69,-0.855,-26.001,0,0,0,
,0.119,-0.375,0.937,2.075,3.723,-27.344,0,0,0,
,0.129,-0.376,0.928,-1.526,7.385,-23.743,0,0,0,
,0.137,-0.365,0.923,2.624,-2.686,-21.668,0,0,0,
,0.129,-0.37,0.927,5.249,-8.057,-23.682,0,0,0,
,0.126,-0.368,0.939,0.854,-9.766,-23.743,0,0,0,
,0.131,-0.367,0.932,7.812,-10.743,-37.171,0,0,0,
,0.12,-0.355,0.932,3.234,-11.353,-25.513,0,0,0,
,0.136,-0.391,0.921,10.376,-22.095,-32.166,0,0,0,
,0.122,-0.376,0.925,1.098,-36.011,-34.302,0,0,0,
,0.11,-0.381,0.975,-4.883,-27.71,-32.41,0,0,0,
,0.089,-0.4,0.946,-12.024,4.272,-38.697,0,0,0,
,0.109,-0.379,0.924,-19.349,17.211,-28.382,0,0,0,
,0.133,-0.364,0.925,-11.109,3.784,-26.246,0,0,0,
,0.123,-0.407,0.918,-2.198,-6.47,-24.903,0,0,0,
,0.124,-0.369,0.939,-7.264,-8.789,-18.372,0,0,0,
,0.113,-0.382,0.957,-16.236,0.305,-27.222,0,0,0,
,0.101,-0.384,0.936,-18.25,9.826,-31.128,0,0,0,
,0.114,-0.375,0.932,-16.724,15.502,-28.077,0,0,0,
,0.114,-0.371,0.932,-10.865,8.178,-25.452,0,0,0,
,0.121,-0.376,0.93,-2.198,3.418,-22.278,0,0,0,
,0.126,-0.373,0.936,-0.245,-3.54,-19.593,0,0,0,
,0.113,-0.385,0.942,-1.099,-2.808,-23.377,0,0,0,
,0.106,-0.388,0.934,-13.001,9.643,-21.729,0,0,0,
,0.119,-0.373,0.932,-15.748,9.277,-25.94,0,0,0,
,0.113,-0.374,0.932,-11.536,3.479,-24.353,0,0,0,
,0.12,-0.374,0.932,-2.503,2.136,-20.447,0,0,0,
,0.117,-0.383,0.938,0.244,-1.954,-26.856,0,0,0,
,0.113,-0.379,0.929,-17.701,20.141,-21.363,0,0,0,
,0.12,-0.37,0.931,-16.419,10.315,-22.339,0,0,0,
,0.117,-0.375,0.927,-8.301,6.408,-23.011,0,0,0,
,0.127,-0.373,0.929,0,-2.808,-22.644,0,0,0,
,0.12,-0.39,0.942,2.868,-5.188,-29.358,0,0,0,
,0.107,-0.399,0.935,-7.935,10.131,-33.02,0,0,0,
,0.117,-0.389,0.926,-18.189,13.061,-26.856,0,0,0,
,0.119,-0.375,0.931,-8.362,12.451,-26.185,0,0,0,
,0.111,-0.381,0.93,-7.386,16.479,-26.001,0,0,0,
,0.111,-0.374,0.938,-4.09,14.404,-24.17,0,0,0,
,0.103,-0.386,0.947,-6.409,23.62,-29.114,0,0,0,
,0.105,-0.378,0.939,-20.142,40.344,-40.528,0,0,0,
,0.119,-0.381,0.928,-26.978,45.105,-38.208,0,0,0,
,0.123,-0.384,0.927,-30.091,42.48,-38.208,0,0,0,
,0.123,-0.374,0.932,-31.495,41.137,-44.251,0,0,0,
,0.116,-0.373,0.936,-32.837,42.114,-46.021,0,0,0,
,0.118,-0.369,0.946,-44.129,51.452,-60.791,0,0,0,
,0.096,-0.382,0.963,-82.581,83.923,-63.477,0,0,0,
,0.093,-0.333,0.988,-122.742,171.692,-77.576,0,0,0,
,-0.072,-0.201,1.538,-576.661,932.067,-249.451,0,0,0,
,0.475,-0.185,1.907,-195.496,864.502,-536.133,0,0,0,
,1.825,-0.58,2.653,849.243,-248.841,-1131.348,0,0,0,
,1.418,-3.288,2.881,1327.148,-1029.175,-1655.518,0,0,0,
,1.221,-2.414,2.581,-671.387,-2000,-1449.952,0,0,0,
,0.337,-0.952,2.305,-1232.789,-2000,-1490.906,0,0,0,
,0.485,-0.169,-0.751,-1218.934,-2000,-1210.877,0,0,0,
,0.265,0.762,-1.999,-1023.682,-2000,-1111.39,0,0,0,
,-0.153,1.321,-2.621,-686.768,-1934.815,-754.334,0,0,0,
,-0.133,1.452,-2.933,-575.623,-622.193,-166.016,0,0,0,
,-0.026,1.59,-2.495,-283.936,824.34,494.384,0,0,0,
,0.194,1.147,-1.708,195.678,1988.525,954.345,0,0,0,
,0.494,0.34,-0.659,440.551,1999.694,1171.142,0,0,0,
,0.391,-0.236,0.356,337.829,1999.694,1274.475,0,0,0,
,0.586,-0.861,1.229,428.588,1999.694,1163.086,0,0,0,
,0.565,-1.398,2.275,419.677,1999.694,980.835,0,0,0,
,0.417,-1.403,2.648,297.79,1761.963,764.587,0,0,0,
,0.162,-0.648,2.018,-61.524,452.636,140.258,0,0,0,
,0.099,-0.285,1.671,-181.641,272.522,141.357,0,0,0,
,0.009,-0.061,1.426,-133.484,244.079,194.397,0,0,0,
,0.116,0.069,0.959,-13.428,211.242,257.141,0,0,0,
,0.131,-0.044,0.89,33.996,217.529,217.712,0,0,0,
,0.316,-0.436,1.212,-46.753,143.676,171.508,0,0,0,
,0.338,-0.492,1.354,-80.018,39.794,85.937,0,0,0,
,0.186,-0.316,1.064,-9.705,4.76,-40.894,0,0,0,
,0.118,-0.23,0.877,30.761,24.047,-29.175,0,0,0,
,0.13,-0.24,0.839,30.639,59.814,2.075,0,0,0,
,0.268,-0.308,0.889,-13.428,3.967,-3.357,0,0,0,
,0.216,-0.322,0.875,-32.959,-44.068,-18.372,0,0,0,
,0.157,-0.098,0.903,-31.373,-49.561,-44.068,0,0,0,
,0.189,-0.176,1.04,49.377,-15.931,-53.589,0,0,0,
,0.175,-0.241,1.104,38.269,20.507,-56.336,0,0,0,
,0.161,-0.287,0.994,47.485,44.189,-60.975,0,0,0,
,0.158,-0.402,0.906,44.189,30.7,-42.969,0,0,0,
,0.162,-0.421,0.927,-0.672,17.273,-35.035,0,0,0,
,0.16,-0.356,0.94,12.39,-4.395,-42.725,0,0,0,
,0.161,-0.319,0.974,50.842,-20.325,-36.56,0,0,0,
,0.142,-0.318,0.971,44.006,-4.883,-3.663,0,0,0,
,0.158,-0.266,0.963,11.169,-1.282,5.554,0,0,0,
,0.164,-0.298,0.915,29.052,-2.381,1.037,0,0,0,
,0.15,-0.294,0.915,29.663,-14.954,-13.611,0,0,0,
,0.172,-0.331,0.968,54.077,5.065,-15.931,0,0,0,
,0.15,-0.353,0.958,45.837,23.193,-20.447,0,0,0,
,0.14,-0.384,0.925,-8.301,57.067,-7.508,0,0,0,
,0.182,-0.335,0.915,-35.401,58.41,-3.54,0,0,0,
,0.158,-0.273,0.92,-55.176,45.288,-23.255,0,0,0,
,0.153,-0.255,0.945,-27.527,36.743,-34.119,0,0,0,
,0.155,-0.25,0.99,-2.32,33.264,-52.674,0,0,0,
,0.172,-0.32,0.998,-10.437,66.223,-58.472,0,0,0,
,0.196,-0.302,0.95,-12.879,67.627,-63.721,0,0,0,
,0.171,-0.332,0.921,6.042,61.889,-75.44,0,0,0,
,0.167,-0.36,0.889,8.972,49.56,-71.412,0,0,0,
,0.175,-0.327,0.968,-41.81,29.052,-53.528,0,0,0,
,0.17,-0.306,0.969,2.014,26.855,-52.613,0,0,0,
,0.191,-0.332,0.942,36.254,31.799,-49.134,0,0,0,
,0.204,-0.333,0.913,51.269,8.789,-49.073,0,0,0,
,0.18,-0.33,0.883,65.49,-11.902,-57.312,0,0,0,
,0.175,-0.316,0.87,48.828,-26.673,-54.444,0,0,0,
,0.179,-0.315,0.908,-2.442,-12.574,-49.317,0,0,0,
,0.226,-0.269,0.963,-33.875,-30.274,-29.908,0,0,0,
,0.225,-0.214,1.01,59.265,-69.947,-63.599,0,0,0,
,0.261,-0.236,0.924,150.39,-224.671,-117.249,0,0,0,
,0.248,-0.541,0.934,116.272,-401.001,-115.174,0,0,0,
,0.213,-0.617,0.841,-106.385,-545.289,-86.853,0,0,0,
,0.189,-0.415,0.866,-242.615,-729.554,-90.21,0,0,0,
,0.115,-0.249,0.966,-175.599,-911.438,-3.968,0,0,0,
,0.004,-0.203,1.079,87.646,-1056.824,67.627,0,0,0,
,-0.11,-0.168,1.246,315.673,-978.089,110.473,0,0,0,
,-0.179,-0.396,1.312,246.399,-778.565,256.836,0,0,0,
,-0.199,-0.389,1.267,-116.517,-639.466,395.813,0,0,0,
,-0.297,-0.077,0.978,-498.597,-18.86,787.353,0,0,0,
,-0.204,-0.019,0.78,-319.397,183.471,834.411,0,0,0,
,-0.102,0.058,0.609,-187.745,226.989,834.411,0,0,0,
,0.005,-0.019,0.623,-109.07,247.192,686.096,0,0,0,
,0.121,-0.18,0.749,-52.674,213.379,564.331,0,0,0,
,0.24,-0.449,0.985,-95.215,153.93,332.092,0,0,0,
,0.333,-0.577,0.941,-32.288,-21.851,103.21,0,0,0,
,0.134,-0.59,1.034,61.828,-194.947,59.57,0,0,0,
,0.076,-0.528,1,59.814,-260.926,31.372,0,0,0,
,-0.007,-0.368,0.905,19.104,-89.661,8.239,0,0,0,
,-0.007,-0.323,0.927,24.902,22.399,-25.574,0,0,0,
,0.05,-0.182,0.995,418.823,24.353,-87.22,0,0,0,
,0.057,-0.304,0.999,658.447,-29.053,-105.957,0,0,0,
,0.019,-0.384,0.961,706.421,-41.321,-105.225,0,0,0,
,0.018,-0.483,0.929,638.305,-71.167,-100.708,0,0,0,
,-0.002,-0.474,0.924,566.528,-118.836,-70.13,0,0,0,
,-0.021,-0.463,0.943,529.541,-153.138,-66.407,0,0,0,
,-0.012,-0.464,0.968,520.874,-158.204,-68.97,0,0,0,
,-0.033,-0.457,0.914,572.143,-161.255,-89.173,0,0,0,
,-0.051,-0.538,0.882,639.221,-158.57,-122.559,0,0,0,
,-0.037,-0.596,0.853,662.17,-152.1,-137.452,0,0,0,
,-0.051,-0.63,0.846,720.153,-133.606,-146.79,0,0,0,
,-0.032,-0.602,0.81,686.035,-110.779,-169.861,0,0,0,
,-0.064,-0.67,0.85,598.449,-85.816,-225.708,0,0,0,
,-0.057,-0.699,0.832,511.352,-65.674,-292.786,0,0,0,
,-0.053,-0.887,0.785,492.187,-130.005,-287.415,0,0,0,
,-0.081,-0.72,0.74,525.695,-223.389,-258.973,0,0,0,
,-0.109,-0.581,0.762,708.618,-263.123,-264.222,0,0,0,
,-0.16,-0.745,0.792,824.218,-238.221,-281.556,0,0,0,
,-0.2,-0.77,0.78,753.173,-188.965,-313.782,0,0,0,
,-0.231,-0.732,0.726,592.468,-114.014,-369.202,0,0,0,
,-0.17,-0.984,0.598,542.602,-132.081,-408.57,0,0,0,
,-0.219,-0.909,0.558,466.919,-183.655,-354.187,0,0,0,
,-0.23,-0.672,0.597,570.495,-184.815,-385.376,0,0,0,
,-0.243,-0.818,0.665,631.958,-137.757,-422.059,0,0,0,
,-0.312,-0.809,0.639,599.731,-47.303,-426.636,0,0,0,
,-0.287,-0.759,0.552,591.491,47.241,-440.674,0,0,0,
,-0.243,-0.947,0.438,667.358,42.846,-439.82,0,0,0,
,-0.278,-0.842,0.461,590.393,37.17,-375.184,0,0,0,
,-0.315,-0.749,0.461,553.894,66.406,-391.602,0,0,0,
,-0.285,-0.84,0.481,468.994,83.129,-390.992,0,0,0,
,-0.304,-0.788,0.497,430.359,120.422,-386.963,0,0,0,
,-0.32,-0.811,0.482,418.701,172.18,-372.498,0,0,0,
,-0.318,-0.944,0.485,361.816,201.294,-336.06,0,0,0,
,-0.318,-0.802,0.445,264.343,221.435,-312.684,0,0,0,
,-0.294,-0.793,0.408,189.453,236.816,-317.261,0,0,0,
,-0.297,-0.799,0.437,108.215,238.83,-299.561,0,0,0,
,-0.317,-0.738,0.477,96.252,262.512,-280.884,0,0,0,
,-0.294,-0.775,0.435,147.522,281.311,-267.884,0,0,0,
,-0.285,-0.809,0.443,149.475,274.719,-204.041,0,0,0,
,-0.301,-0.776,0.447,128.601,251.892,-183.533,0,0,0,
,-0.303,-0.756,0.437,161.132,241.211,-159.974,0,0,0,
,-0.296,-0.79,0.42,243.774,217.834,-125.611,0,0,0,
,-0.303,-0.77,0.421,270.507,223.51,-103.943,0,0,0,
,-0.311,-0.826,0.432,260.803,250.488,-91.797,0,0,0,
,-0.303,-0.879,0.428,145.446,303.65,-93.873,0,0,0,
,-0.286,-0.858,0.379,52.856,348.632,-97.779,0,0,0,
,-0.242,-0.909,0.333,29.357,337.219,-98.267,0,0,0,
,-0.232,-0.883,0.346,25.878,278.869,-77.393,0,0,0,
,-0.255,-0.902,0.402,30.883,234.802,-86.792,0,0,0,
,-0.279,-0.927,0.486,-37.842,230.407,-87.403,0,0,0,
,-0.278,-0.911,0.502,-93.201,224.914,-93.506,0,0,0,
,-0.27,-0.864,0.469,-57.496,211.547,-115.052,0,0,0,
,-0.272,-0.85,0.406,22.644,211.853,-132.203,0,0,0,
,-0.27,-0.908,0.381,51.33,188.11,-128.846,0,0,0,
,-0.286,-0.886,0.438,27.343,168.579,-124.695,0,0,0,
,-0.323,-0.912,0.491,-76.477,169.433,-114.502,0,0,0,
,-0.326,-0.898,0.527,-201.233,180.725,-110.901,0,0,0,
,-0.323,-0.881,0.496,-271.18,214.843,-103.15,0,0,0,
,-0.289,-0.815,0.411,-299.988,215.088,-92.591,0,0,0,
,-0.268,-0.755,0.354,-281.189,199.829,-112.244,0,0,0,
,-0.284,-0.792,0.445,-289.368,185.547,-145.386,0,0,0,
,-0.319,-0.848,0.553,-341.37,182.006,-167.786,0,0,0,
,-0.333,-0.826,0.609,-297.364,176.33,-161.683,0,0,0,
,-0.32,-0.787,0.604,-127.564,167.114,-125.123,0,0,0,
,-0.337,-0.817,0.574,5.737,169.494,-94.727,0,0,0,
,-0.325,-0.823,0.563,25.817,160.339,-83.313,0,0,0,
,-0.317,-0.884,0.543,-54.688,160.339,-71.473,0,0,0,
,-0.304,-0.848,0.547,-221.253,136.84,-81.116,0,0,0,
,-0.295,-0.819,0.571,-305.298,126.403,-94.666,0,0,0,
,-0.304,-0.817,0.616,-302.185,127.197,-103.516,0,0,0,
,-0.31,-0.783,0.66,-202.149,125.244,-102.295,0,0,0,
,-0.299,-0.797,0.649,-80.201,133.3,-99.793,0,0,0,
,-0.301,-0.811,0.609,-21.424,135.559,-100.342,0,0,0,
,-0.296,-0.81,0.564,-18.799,128.906,-110.657,0,0,0,
,-0.288,-0.824,0.587,-75.196,101.318,-110.779,0,0,0,
,-0.3,-0.803,0.604,-116.883,80.017,-115.479,0,0,0,
,-0.305,-0.759,0.619,-164.429,71.044,-114.014,0,0,0,
,-0.32,-0.742,0.643,-156.006,75.378,-108.277,0,0,0,
,-0.316,-0.738,0.635,-98.633,78.613,-96.68,0,0,0,
,-0.308,-0.735,0.595,-39.368,82.031,-84.656,0,0,0,
,-0.296,-0.799,0.579,-72.632,51.94,-71.839,0,0,0,
,-0.312,-0.776,0.613,-155.823,34.24,-69.886,0,0,0,
,-0.333,-0.783,0.674,-242.615,52.429,-65.125,0,0,0,
,-0.323,-0.777,0.68,-296.204,69.03,-55.359,0,0,0,
,-0.318,-0.687,0.636,-254.151,90.881,-59.144,0,0,0,
,-0.297,-0.685,0.58,-145.63,101.379,-69.947,0,0,0,
,-0.301,-0.764,0.588,-43.885,77.087,-66.956,0,0,0,
,-0.306,-0.765,0.644,-68.97,54.809,-67.017,0,0,0,
,-0.336,-0.764,0.711,-162.964,60.241,-62.5,0,0,0,
,-0.327,-0.751,0.699,-278.138,90.21,-54.627,0,0,0,
,-0.318,-0.714,0.667,-316.04,109.802,-47.852,0,0,0,
,-0.301,-0.636,0.618,-242.615,126.342,-60.364,0,0,0,
,-0.289,-0.697,0.596,-129.578,110.412,-68.848,0,0,0,
,-0.294,-0.725,0.67,-89.6,86.242,-65.308,0,0,0,
,-0.307,-0.712,0.696,-133.179,79.589,-54.993,0,0,0,
,-0.31,-0.687,0.698,-182.129,80.993,-47.12,0,0,0,
,-0.307,-0.675,0.664,-196.961,87.341,-38.88,0,0,0,
,-0.3,-0.618,0.645,-155.518,78.979,-31.861,0,0,0,
,-0.286,-0.641,0.659,-73.548,68.054,-24.231,0,0,0,
,-0.262,-0.732,0.69,-59.449,40.161,-13.245,0,0,0,
,-0.255,-0.749,0.742,-116.7,3.173,1.648,0,0,0,
,-0.268,-0.738,0.758,-206.665,4.699,-15.381,0,0,0,
,-0.262,-0.706,0.736,-260.071,4.089,-34.607,0,0,0,
,-0.264,-0.673,0.736,-247.071,-2.747,-41.138,0,0,0,
,-0.265,-0.643,0.737,-188.965,-15.748,-44.312,0,0,0,
,-0.272,-0.642,0.753,-105.835,-23.255,-36.072,0,0,0,
,-0.278,-0.641,0.774,-70.252,-22.217,-31.006,0,0,0,
,-0.276,-0.645,0.767,-73.182,-14.588,-24.964,0,0,0,
,-0.265,-0.667,0.732,-82.886,-17.64,-14.893,0,0,0,
,-0.259,-0.688,0.733,-150.94,-35.157,-9.827,0,0,0,
,-0.28,-0.651,0.758,-197.815,-46.326,-7.203,0,0,0,
,-0.277,-0.601,0.758,-198.304,-41.138,2.807,0,0,0,
,-0.264,-0.585,0.75,-129.639,-29.175,3.662,0,0,0,
,-0.266,-0.615,0.768,-45.411,-35.157,8.667,0,0,0,
,-0.258,-0.685,0.755,-29.48,-27.771,13.183,0,0,0,
,-0.245,-0.707,0.722,-134.705,-55.909,14.099,0,0,0,
,-0.26,-0.653,0.732,-228.15,-74.646,9.338,0,0,0,
,-0.275,-0.606,0.76,-224.793,-77.515,4.577,0,0,0,
,-0.285,-0.579,0.773,-144.165,-78.186,10.009,0,0,0,
,-0.297,-0.594,0.776,-87.403,-69.642,15.686,0,0,0,
,-0.302,-0.597,0.768,-88.196,-53.101,25.024,0,0,0,
,-0.294,-0.602,0.747,-143.006,-49.988,39.428,0,0,0,
,-0.283,-0.548,0.737,-173.584,-55.603,49.865,0,0,0,
,-0.288,-0.553,0.75,-167.176,-57.984,50.476,0,0,0,
,-0.292,-0.571,0.795,-128.724,-41.626,50.476,0,0,0,
,-0.275,-0.624,0.804,-102.173,-25.635,53.772,0,0,0,
,-0.269,-0.632,0.79,-138.55,-15.564,50.17,0,0,0,
,-0.264,-0.635,0.77,-175.477,-16.724,40.954,0,0,0,
,-0.266,-0.606,0.776,-177.613,-31.8,37.719,0,0,0,
,-0.269,-0.594,0.8,-170.533,-35.95,32.959,0,0,0,
,-0.282,-0.574,0.812,-157.532,-29.602,35.705,0,0,0,
,-0.275,-0.572,0.802,-135.926,-31.067,36.01,0,0,0,
,-0.275,-0.593,0.79,-123.536,-30.64,33.203,0,0,0,
,-0.268,-0.593,0.792,-120.545,-38.208,32.531,0,0,0,
,-0.273,-0.571,0.791,-99.671,-31.617,29.846,0,0,0,
,-0.283,-0.585,0.809,-60.852,-31.25,36.193,0,0,0,
,-0.285,-0.594,0.804,-84.656,-28.626,37.109,0,0,0,
,-0.282,-0.538,0.787,-110.535,-22.278,41.137,0,0,0,
,-0.287,-0.536,0.787,-94.727,-23.377,39.794,0,0,0,
,-0.289,-0.567,0.802,-91.431,-24.048,43.212,0,0,0,
,-0.283,-0.578,0.812,-86.487,-26.185,51.269,0,0,0,
,-0.276,-0.571,0.814,-73.609,-25.025,52.185,0,0,0,
,-0.271,-0.624,0.818,-77.454,-28.748,46.569,0,0,0,
,-0.269,-0.564,0.821,-107.239,-24.537,18.005,0,0,0,
,-0.273,-0.613,0.83,-153.443,-14.283,9.277,0,0,0,
,-0.268,-0.602,0.834,-174.073,-10.56,1.098,0,0,0,
,-0.271,-0.564,0.82,-147.889,-17.456,-0.855,0,0,0,
,-0.28,-0.538,0.785,-92.591,-15.442,-12.33,0,0,0,
,-0.277,-0.573,0.821,-50.415,-21.546,-24.17,0,0,0,
,-0.294,-0.535,0.847,-46.631,-17.64,-19.898,0,0,0,
,-0.297,-0.609,0.851,-61.28,-2.259,-16.358,0,0,0,
,-0.294,-0.572,0.824,-118.47,16.296,-13.977,0,0,0,
,-0.274,-0.552,0.805,-128.968,24.841,-21.424,0,0,0,
,-0.28,-0.528,0.793,-129.822,22.033,-27.527,0,0,0,
,-0.282,-0.52,0.803,-105.164,26.794,-41.993,0,0,0,
,-0.289,-0.518,0.821,-67.2,24.841,-47.913,0,0,0,
,-0.301,-0.5,0.828,1.648,32.409,-47.547,0,0,0,
,-0.29,-0.524,0.821,48.767,32.043,-46.936,0,0,0,
,-0.284,-0.553,0.81,52.734,22.522,-42.664,0,0,0,
,-0.299,-0.553,0.82,6.042,20.019,-37.781,0,0,0,
,-0.296,-0.532,0.802,-18.067,31.066,-43.152,0,0,0,
,-0.292,-0.555,0.799,-20.752,32.287,-49.012,0,0,0,
,-0.272,-0.507,0.824,0.549,14.526,-55.237,0,0,0,
,-0.295,-0.563,0.84,-28.809,16.235,-61.89,0,0,0,
,-0.321,-0.548,0.84,-15.809,17.883,-65.491,0,0,0,
,-0.307,-0.53,0.829,-0.733,16.662,-65.796,0,0,0,
,-0.297,-0.513,0.813,95.336,22.094,-76.172,0,0,0,
,-0.292,-0.527,0.792,160.461,21.24,-72.998,0,0,0,
,-0.293,-0.528,0.776,181.762,24.536,-66.529,0,0,0,
,-0.284,-0.585,0.767,160.095,28.869,-77.332,0,0,0,
,-0.295,-0.56,0.767,122.924,24.841,-83.313,0,0,0,
,-0.298,-0.555,0.764,131.225,21.972,-89.234,0,0,0,
,-0.312,-0.56,0.788,165.527,19.897,-91.431,0,0,0,
,-0.327,-0.566,0.793,194.519,25.146,-90.027,0,0,0,
,-0.316,-0.598,0.77,169.86,29.907,-89.905,0,0,0,
,-0.318,-0.587,0.765,138.855,30.334,-92.591,0,0,0,
,-0.316,-0.605,0.758,133.178,27.16,-93.75,0,0,0,
,-0.319,-0.61,0.76,105.346,32.043,-97.474,0,0,0,
,-0.329,-0.599,0.791,93.566,47.607,-112,0,0,0,
,-0.318,-0.617,0.795,79.956,69.763,-122.315,0,0,0,
,-0.306,-0.577,0.79,76.843,74.707,-122.071,0,0,0,
,-0.303,-0.59,0.784,83.068,78.002,-125.794,0,0,0,
,-0.31,-0.61,0.796,63.659,69.519,-120.057,0,0,0,
,-0.304,-0.569,0.799,59.936,67.871,-115.235,0,0,0,
,-0.316,-0.574,0.821,119.445,61.889,-116.333,0,0,0,
,-0.3,-0.555,0.813,130.615,73.12,-108.033,0,0,0,
,-0.297,-0.621,0.804,172.668,74.035,-104.187,0,0,0,
,-0.299,-0.606,0.799,157.409,54.016,-84.351,0,0,0,
,-0.286,-0.57,0.75,170.349,40.893,-81.971,0,0,0,
,-0.297,-0.589,0.796,193.359,36.132,-71.717,0,0,0,
,-0.309,-0.585,0.826,177.429,33.935,-53.101,0,0,0,
,-0.296,-0.647,0.823,119.873,45.349,-41.199,0,0,0,
,-0.283,-0.624,0.805,67.199,38.024,-32.654,0,0,0,
,-0.279,-0.642,0.802,30.029,51.94,-42.237,0,0,0,
,-0.268,-0.651,0.781,-3.663,56.518,-49.134,0,0,0,
,-0.266,-0.64,0.773,-12.33,65.307,-46.265,0,0,0,
,-0.277,-0.62,0.78,16.296,75.439,-44.129,0,0,0,
,-0.273,-0.617,0.774,68.115,75.927,-29.48,0,0,0,
,-0.26,-0.617,0.756,28.625,71.594,-18.189,0,0,0,
,-0.26,-0.634,0.761,-34.302,56.823,-13.977,0,0,0,
,-0.267,-0.635,0.761,-122.071,43.762,-13.611,0,0,0,
,-0.279,-0.614,0.791,-149.353,27.771,-9.095,0,0,0,
,-0.283,-0.58,0.806,-110.657,9.643,-1.893,0,0,0,
,-0.296,-0.597,0.767,-102.967,-12.085,20.996,0,0,0,
,-0.295,-0.597,0.765,-141.846,-25.879,34.606,0,0,0,
,-0.298,-0.579,0.771,-131.775,-34.852,50.109,0,0,0,
,-0.292,-0.594,0.766,-106.141,-41.626,57.617,0,0,0,
,-0.294,-0.59,0.766,-101.685,-42.054,63.11,0,0,0,
,-0.299,-0.635,0.788,-127.869,-40.162,57.495,0,0,0,
,-0.292,-0.628,0.775,-144.837,-37.781,53.588,0,0,0,
,-0.293,-0.629,0.752,-153.443,-42.664,47.241,0,0,0,
,-0.301,-0.627,0.758,-165.039,-35.401,38.818,0,0,0,
,-0.31,-0.602,0.765,-159.241,-35.279,37.414,0,0,0,
,-0.308,-0.574,0.772,-132.264,-31.067,39.001,0,0,0,
,-0.303,-0.606,0.776,-130.494,-24.414,39.489,0,0,0,
,-0.302,-0.577,0.79,-141.602,-30.823,41.442,0,0,0,
,-0.29,-0.586,0.794,-118.714,-32.349,35.644,0,0,0,
,-0.301,-0.602,0.768,-96.253,-37.903,36.804,0,0,0,
,-0.302,-0.62,0.753,-129.151,-39.917,32.287,0,0,0,
,-0.3,-0.649,0.73,-275.452,-43.702,25.512,0,0,0,
,-0.308,-0.608,0.75,-375.123,-51.514,8.239,0,0,0,
,-0.32,-0.527,0.773,-345.704,-48.035,-8.606,0,0,0,
,-0.331,-0.497,0.788,-240.906,-42.298,-10.376,0,0,0,
,-0.338,-0.57,0.842,-189.026,-46.204,-4.273,0,0,0,
,-0.344,-0.502,0.803,-193.909,-41.81,2.624,0,0,0,
,-0.333,-0.503,0.791,-198.06,-27.466,-4.029,0,0,0,
,-0.315,-0.476,0.818,-176.941,-37.354,-3.602,0,0,0,
,-0.331,-0.475,0.839,-154.053,-40.894,7.751,0,0,0,
,-0.311,-0.493,0.831,-109.925,-44.19,18.005,0,0,0,
,-0.304,-0.499,0.836,-86.853,-53.956,24.719,0,0,0,
,-0.299,-0.506,0.853,-44.8,-50.904,25.512,0,0,0,
,-0.301,-0.535,0.842,-34.302,-52.735,21.484,0,0,0,
,-0.295,-0.539,0.829,-29.114,-48.645,11.901,0,0,0,
,-0.29,-0.535,0.806,-17.456,-47.73,7.08,0,0,0,
,-0.302,-0.512,0.798,-3.479,-43.519,1.709,0,0,0,
,-0.292,-0.522,0.811,-5.616,-26.612,-2.076,0,0,0,
,-0.291,-0.527,0.833,5.92,-30.03,-3.235,0,0,0,
,-0.304,-0.555,0.835,3.479,-27.466,-12.513,0,0,0,
,-0.307,-0.541,0.847,-6.165,-28.626,-18.921,0,0,0,
,-0.291,-0.568,0.844,-7.996,-31.861,-20.142,0,0,0,
,-0.306,-0.537,0.846,-35.645,-28.748,-24.537,0,0,0,
,-0.3,-0.52,0.816,-37.781,-25.391,-29.725,0,0,0,
,-0.308,-0.506,0.815,-23.438,-10.682,-32.593,0,0,0,
,-0.283,-0.497,0.82,-0.611,2.99,-34.668,0,0,0,
,-0.287,-0.566,0.822,-1.038,-1.526,-34.607,0,0,0,
,-0.288,-0.535,0.843,-9.461,-1.709,-37.171,0,0,0,
,-0.287,-0.536,0.831,-13.123,6.713,-42.969,0,0,0,
,-0.287,-0.55,0.847,11.108,16.296,-54.078,0,0,0,
,-0.299,-0.55,0.852,56.518,26.123,-62.561,0,0,0,
,-0.3,-0.566,0.811,99.609,41.687,-78.431,0,0,0,
,-0.301,-0.561,0.784,130.31,30.456,-83.252,0,0,0,
,-0.283,-0.538,0.781,134.521,37.475,-94.422,0,0,0,
,-0.308,-0.553,0.795,150.817,50.109,-90.882,0,0,0,
,-0.297,-0.571,0.826,135.62,51.086,-88.623,0,0,0,
,-0.297,-0.558,0.83,143.737,49.194,-108.765,0,0,0,
,-0.307,-0.554,0.794,177.307,59.936,-97.596,0,0,0,
,-0.293,-0.562,0.748,230.468,49.987,-95.826,0,0,0,
,-0.303,-0.54,0.773,242.553,45.593,-96.68,0,0,0,
,-0.299,-0.543,0.785,257.812,52.551,-96.619,0,0,0,
,-0.304,-0.575,0.79,245.056,41.137,-92.102,0,0,0,
,-0.313,-0.58,0.796,176.147,30.944,-92.225,0,0,0,
,-0.317,-0.577,0.791,147.216,19.592,-88.135,0,0,0,
,-0.323,-0.55,0.805,116.821,11.169,-78.614,0,0,0,
,-0.321,-0.555,0.811,107.36,10.864,-73.609,0,0,0,
,-0.329,-0.567,0.835,94.848,10.131,-64.82,0,0,0,
,-0.325,-0.553,0.855,113.647,12.146,-56.519,0,0,0,
,-0.322,-0.564,0.819,153.747,20.752,-46.57,0,0,0,
,-0.313,-0.576,0.816,164.367,26.611,-34.119,0,0,0,
,-0.315,-0.599,0.813,94.421,39.367,-29.114,0,0,0,
,-0.286,-0.581,0.822,52.307,38.94,-25.086,0,0,0,
,-0.281,-0.606,0.821,21.545,30.761,-24.72,0,0,0,
,-0.277,-0.623,0.821,-27.405,26.306,-28.382,0,0,0,
,-0.275,-0.586,0.83,-54.81,24.536,-21.302,0,0,0,
,-0.279,-0.595,0.816,-44.495,31.066,-16.419,0,0,0,
,-0.279,-0.561,0.777,-35.035,16.601,-5.005,0,0,0,
,-0.276,-0.577,0.77,-36.56,17.089,-4.273,0,0,0,
,-0.279,-0.578,0.77,-54.2,17.028,7.385,0,0,0,
,-0.27,-0.605,0.782,-80.14,13.794,21.789,0,0,0,
,-0.264,-0.607,0.791,-111.878,8.178,26.245,0,0,0,
,-0.259,-0.63,0.803,-110.84,0.305,26.245,0,0,0,
,-0.244,-0.624,0.822,-113.953,-7.996,27.587,0,0,0,
,-0.253,-0.623,0.808,-96.802,-11.048,21.179,0,0,0,
,-0.237,-0.619,0.774,-106.812,-31.067,20.874,0,0,0,
,-0.234,-0.621,0.739,-177.613,-30.152,27.038,0,0,0,
,-0.252,-0.574,0.751,-247.864,-44.312,38.94,0,0,0,
,-0.262,-0.544,0.787,-261.048,-39.063,44.006,0,0,0,
,-0.241,-0.536,0.8,-217.957,-34.546,53.405,0,0,0,
,-0.233,-0.549,0.784,-191.773,-44.068,51.757,0,0,0,
,-0.238,-0.586,0.796,-197.144,-44.556,55.175,0,0,0,
,-0.227,-0.594,0.821,-241.7,-49.622,54.931,0,0,0,
,-0.224,-0.624,0.851,-281.067,-51.758,51.94,0,0,0,
,-0.227,-0.59,0.841,-291.626,-52.369,47.18,0,0,0,
,-0.241,-0.548,0.838,-269.227,-46.204,34.973,0,0,0,
,-0.245,-0.544,0.804,-250.428,-32.654,25.573,0,0,0,
,-0.262,-0.524,0.815,-206.177,-27.832,23.742,0,0,0,
,-0.263,-0.522,0.825,-182.679,-15.625,22.155,0,0,0,
,-0.263,-0.519,0.825,-145.569,-2.808,20.813,0,0,0,
,-0.26,-0.569,0.816,-140.198,-10.804,19.043,0,0,0,
,-0.272,-0.552,0.854,-151.917,-7.142,12.512,0,0,0,
,-0.267,-0.582,0.848,-173.829,1.77,2.441,0,0,0,
,-0.261,-0.573,0.855,-232.117,5.859,-9.583,0,0,0,
,-0.263,-0.532,0.857,-218.201,7.995,-21.546,0,0,0,
,-0.266,-0.543,0.843,-174.195,13.671,-29.847,0,0,0,
,-0.28,-0.516,0.831,-113.099,13.977,-32.227,0,0,0,
,-0.271,-0.498,0.831,-85.389,14.465,-38.636,0,0,0,
,-0.28,-0.477,0.849,-20.386,13.916,-40.528,0,0,0,
,-0.29,-0.45,0.846,89.05,15.197,-35.828,0,0,0,
,-0.294,-0.501,0.837,182.617,20.996,-36.377,0,0,0,
,-0.286,-0.564,0.833,143.066,5.554,-34.119,0,0,0,
,-0.308,-0.545,0.835,84.899,-2.991,-39.124,0,0,0,
,-0.314,-0.547,0.829,59.021,0.427,-53.223,0,0,0,
,-0.327,-0.54,0.834,19.775,6.652,-61.829,0,0,0,
,-0.324,-0.524,0.838,34.729,16.662,-70.13,0,0,0,
,-0.327,-0.539,0.835,62.5,30.822,-73.121,0,0,0,
,-0.325,-0.511,0.818,91.919,33.02,-75.928,0,0,0,
,-0.317,-0.551,0.805,104.431,47.119,-86.243,0,0,0,
,-0.317,-0.529,0.842,104.004,50.598,-90.088,0,0,0,
,-0.316,-0.548,0.808,107.788,50.354,-95.398,0,0,0,
,-0.311,-0.539,0.8,89.111,43.09,-100.831,0,0,0,
,-0.314,-0.517,0.803,102.539,50.964,-107.239,0,0,0,
,-0.308,-0.528,0.799,110.412,53.466,-110.413,0,0,0,
,-0.316,-0.513,0.794,130.31,57.8,-113.526,0,0,0,
,-0.316,-0.522,0.779,159.851,57.8,-113.892,0,0,0,
,-0.329,-0.522,0.775,187.133,49.011,-104.737,0,0,0,
,-0.334,-0.549,0.782,154.235,54.504,-103.821,0,0,0,
,-0.326,-0.585,0.809,78.735,61.767,-106.995,0,0,0,
,-0.33,-0.565,0.846,9.46,47.973,-115.235,0,0,0,
,-0.339,-0.555,0.844,22.583,45.715,-116.028,0,0,0,
,-0.333,-0.539,0.787,69.274,44.86,-112.793,0,0,0,
,-0.342,-0.539,0.788,120.544,54.87,-114.747,0,0,0,
,-0.341,-0.524,0.783,174.804,65.795,-114.502,0,0,0,
,-0.324,-0.557,0.777,177.429,73.12,-119.812,0,0,0,
,-0.327,-0.55,0.77,166.137,72.326,-122.193,0,0,0,
,-0.314,-0.559,0.762,151.794,71.655,-120.24,0,0,0,
,-0.326,-0.558,0.779,134.338,67.26,-117.127,0,0,0,
,-0.328,-0.552,0.781,166.992,66.65,-115.845,0,0,0,
,-0.326,-0.576,0.783,169.311,68.237,-111.206,0,0,0,
,-0.329,-0.588,0.775,151.611,68.786,-113.343,0,0,0,
,-0.324,-0.602,0.779,119.995,68.908,-111.145,0,0,0,
,-0.328,-0.57,0.771,125.366,66.04,-107.544,0,0,0,
,-0.326,-0.597,0.773,112.976,62.377,-104.92,0,0,0,
,-0.327,-0.585,0.777,96.252,55.053,-103.455,0,0,0,
,-0.327,-0.625,0.779,122.436,59.082,-106.324,0,0,0,
,-0.337,-0.585,0.783,154.724,64.392,-99.305,0,0,0,
,-0.326,-0.609,0.773,154.113,62.866,-96.802,0,0,0,
,-0.34,-0.639,0.773,86.181,64.941,-95.459,0,0,0,
,-0.334,-0.612,0.809,14.404,58.227,-96.985,0,0,0,
,-0.337,-0.623,0.868,-16.175,63.354,-97.596,0,0,0,
,-0.335,-0.584,0.847,-4.212,61.767,-102.539,0,0,0,
,-0.342,-0.596,0.815,18.737,58.776,-106.812,0,0,0,
,-0.338,-0.594,0.777,-11.17,71.838,-107.483,0,0,0,
,-0.337,-0.55,0.754,-68.482,91.003,-110.23,0,0,0,
,-0.332,-0.548,0.753,-157.776,129.272,-120.301,0,0,0,
,-0.324,-0.538,0.748,-217.408,133.3,-123.658,0,0,0,
,-0.32,-0.55,0.775,-179.139,117.065,-111.023,0,0,0,
,-0.33,-0.557,0.841,-120.484,94.055,-89.234,0,0,0,
,-0.313,-0.576,0.877,-72.266,83.007,-70.252,0,0,0,
,-0.303,-0.618,0.891,-47.181,85.998,-61.341,0,0,0,
,-0.295,-0.601,0.862,-25.757,72.998,-52.002,0,0,0,
,-0.277,-0.614,0.812,-8.667,64.758,-51.636,0,0,0,
,-0.26,-0.628,0.74,-88.135,53.527,-54.627,0,0,0,
,-0.25,-0.566,0.753,-180.115,28.442,-53.406,0,0,0,
,-0.256,-0.568,0.771,-231.019,22.522,-52.674,0,0,0,
,-0.248,-0.544,0.807,-229.859,14.465,-36.255,0,0,0,
,-0.248,-0.512,0.813,-152.588,4.516,-22.767,0,0,0,
,-0.248,-0.536,0.803,-86.792,7.995,-15.625,0,0,0,
,-0.248,-0.558,0.779,-51.026,-3.724,-0.855,0,0,0,
,-0.241,-0.565,0.777,-114.624,-20.997,10.009,0,0,0,
,-0.249,-0.512,0.815,-146.424,-28.931,12.573,0,0,0,
,-0.245,-0.525,0.834,-136.658,-36.988,24.169,0,0,0,
,-0.247,-0.516,0.866,-95.704,-39.246,33.874,0,0,0,
,-0.253,-0.531,0.874,-9.766,-40.589,40.1,0,0,0,
,-0.252,-0.585,0.813,3.112,-39.551,41.015,0,0,0,
,-0.245,-0.586,0.777,-47.303,-47.608,43.579,0,0,0,
,-0.255,-0.558,0.79,-69.153,-64.087,44.677,0,0,0,
,-0.26,-0.533,0.797,-69.825,-53.528,41.565,0,0,0,
,-0.255,-0.558,0.825,-90.638,-47.486,40.283,0,0,0,
,-0.269,-0.526,0.872,-62.439,-49.622,47.668,0,0,0,
,-0.252,-0.586,0.848,-31.556,-41.077,44.677,0,0,0,
,-0.266,-0.59,0.833,-102.601,-66.285,44.86,0,0,0,
,-0.27,-0.588,0.827,-181.641,-72.998,36.193,0,0,0,
,-0.272,-0.59,0.813,-322.876,-96.924,39.062,0,0,0,
,-0.305,-0.49,0.861,-351.685,-93.995,36.682,0,0,0,
,-0.297,-0.485,0.88,-297.913,-73.487,38.818,0,0,0,
,-0.294,-0.429,0.868,-207.032,-72.815,54.321,0,0,0,
,-0.293,-0.45,0.831,-132.081,-58.655,54.199,0,0,0,
,-0.299,-0.447,0.796,-53.406,-54.261,64.392,0,0,0,
,-0.301,-0.486,0.781,2.624,-53.345,73.669,0,0,0,
,-0.325,-0.48,0.821,20.568,-50.721,74.34,0,0,0,
,-0.329,-0.532,0.833,-7.813,-50.721,72.265,0,0,0,
,-0.324,-0.521,0.832,-23.499,-52.491,68.298,0,0,0,
,-0.339,-0.52,0.828,-21.668,-47.303,63.598,0,0,0,
,-0.312,-0.553,0.83,-16.541,-44.007,59.143,0,0,0,
,-0.311,-0.527,0.856,-18.555,-62.867,56.884,0,0,0,
,-0.314,-0.564,0.857,-80.262,-65.491,50.17,0,0,0,
,-0.291,-0.539,0.87,-175.293,-73.914,49.011,0,0,0,
,-0.287,-0.503,0.902,-224.793,-84.473,50.537,0,0,0,
,-0.277,-0.485,0.9,-262.085,-84.473,55.114,0,0,0,
,-0.26,-0.516,0.892,-265.992,-92.347,56.335,0,0,0,
,-0.255,-0.446,0.88,-255.188,-95.032,61.096,0,0,0,
,-0.237,-0.469,0.872,-227.906,-73.121,58.105,0,0,0,
,-0.23,-0.458,0.863,-214.234,-57.557,51.635,0,0,0,
,-0.235,-0.48,0.887,-194.703,-33.509,40.588,0,0,0,
,-0.241,-0.463,0.891,-150.33,-12.207,27.771,0,0,0,
,-0.244,-0.502,0.877,-128.174,-4.029,17.517,0,0,0,
,-0.248,-0.491,0.892,-138.184,-5.249,9.521,0,0,0,
,-0.263,-0.464,0.907,-129.334,1.892,9.094,0,0,0,
,-0.269,-0.464,0.891,-116.394,6.408,4.333,0,0,0,
,-0.267,-0.439,0.864,-101.502,8.361,-2.259,0,0,0,
,-0.284,-0.452,0.904,-75.684,13.794,-8.606,0,0,0,
,-0.278,-0.439,0.89,-60.852,22.705,-15.442,0,0,0,
,-0.277,-0.462,0.896,-41.748,28.32,-23.621,0,0,0,
,-0.285,-0.492,0.885,-80.872,25.39,-24.537,0,0,0,
,-0.288,-0.437,0.898,-109.742,15.441,-25.147,0,0,0,
,-0.295,-0.444,0.871,-95.154,34.118,-38.575,0,0,0,
,-0.308,-0.422,0.868,-71.839,36.254,-42.969,0,0,0,
,-0.287,-0.415,0.855,-37.049,39.733,-47.974,0,0,0,
,-0.303,-0.427,0.871,-11.414,42.48,-49.317,0,0,0,
,-0.293,-0.472,0.884,-25.574,48.889,-63.782,0,0,0,
,-0.3,-0.459,0.887,-59.876,36.071,-65.186,0,0,0,
,-0.305,-0.441,0.87,-62.195,42.724,-73.243,0,0,0,
,-0.313,-0.41,0.875,-29.908,46.325,-75.928,0,0,0,
,-0.308,-0.402,0.857,42.297,52.246,-79.163,0,0,0,
,-0.31,-0.429,0.848,126.648,45.166,-80.689,0,0,0,
,-0.308,-0.427,0.862,170.654,39.062,-81.36,0,0,0,
,-0.307,-0.467,0.845,182.434,49.743,-87.281,0,0,0,
,-0.304,-0.48,0.84,156.25,46.63,-89.173,0,0,0,
,-0.298,-0.462,0.828,147.583,47.363,-93.75,0,0,0,
,-0.302,-0.473,0.824,164.917,47.851,-99.732,0,0,0,
,-0.302,-0.462,0.822,188.537,50.964,-111.939,0,0,0,
,-0.295,-0.474,0.809,239.929,45.654,-111.451,0,0,0,
,-0.303,-0.555,0.817,226.928,34.606,-115.54,0,0,0,
,-0.311,-0.526,0.84,158.63,16.662,-113.953,0,0,0,
,-0.318,-0.501,0.855,146.423,19.226,-119.019,0,0,0,
,-0.307,-0.482,0.837,164.306,7.568,-115.052,0,0,0,
,-0.321,-0.46,0.811,200.378,2.136,-106.202,0,0,0,
,-0.345,-0.444,0.784,263.366,11.901,-104.615,0,0,0,
,-0.349,-0.465,0.749,289.184,31.127,-98.572,0,0,0,
,-0.349,-0.513,0.761,246.093,30.273,-97.229,0,0,0,
,-0.363,-0.514,0.798,170.227,18.066,-88.135,0,0,0,
,-0.373,-0.47,0.826,129.028,5.188,-79.041,0,0,0,
,-0.387,-0.501,0.862,125.427,-0.061,-71.717,0,0,0,
,-0.389,-0.46,0.869,166.87,13.794,-63.538,0,0,0,
,-0.387,-0.496,0.869,248.535,14.343,-62.378,0,0,0,
,-0.377,-0.516,0.828,306.03,25.39,-56.58,0,0,0,
,-0.36,-0.588,0.779,264.221,29.907,-55.542,0,0,0,
,-0.351,-0.584,0.758,148.315,14.831,-52.491,0,0,0,
,-0.357,-0.575,0.805,75.134,11.84,-61.463,0,0,0,
,-0.353,-0.564,0.843,52.978,16.601,-68.116,0,0,0,
,-0.355,-0.551,0.86,83.313,25.451,-69.642,0,0,0,
,-0.357,-0.554,0.819,127.38,35.339,-70.069,0,0,0,
,-0.349,-0.578,0.768,126.403,33.691,-72.571,0,0,0,
,-0.347,-0.586,0.743,64.941,54.321,-70.008,0,0,0,
,-0.332,-0.58,0.762,3.54,44.128,-71.9,0,0,0,
,-0.366,-0.569,0.825,100.769,86.853,-85.633,0,0,0,
,-0.355,-0.601,0.804,105.835,103.027,-84.29,0,0,0,
,-0.333,-0.648,0.804,31.494,95.886,-84.168,0,0,0,
,-0.33,-0.622,0.799,-26.001,85.754,-83.435,0,0,0,
,-0.312,-0.578,0.802,-50.354,78.247,-74.769,0,0,0,
,-0.321,-0.602,0.786,-33.57,77.331,-77.759,0,0,0,
,-0.294,-0.563,0.762,-35.767,70.922,-70.618,0,0,0,
,-0.298,-0.589,0.755,-9.4,78.735,-80.384,0,0,0,
,-0.276,-0.585,0.776,-43.335,68.664,-76.722,0,0,0,
,-0.293,-0.576,0.796,-45.35,60.669,-67.627,0,0,0,
,-0.271,-0.585,0.816,-40.467,50.964,-54.322,0,0,0,
,-0.266,-0.583,0.796,-93.445,-14.527,-20.752,0,0,0,
,-0.265,-0.547,0.8,-115.723,-24.537,-9.156,0,0,0,
,-0.271,-0.528,0.8,-71.228,-26.673,1.464,0,0,0,
,-0.255,-0.531,0.773,-50.843,-37.171,13.671,0,0,0,
,-0.271,-0.52,0.773,-8.545,-36.744,23.193,0,0,0,
,-0.261,-0.554,0.78,-4.212,-42.542,36.193,0,0,0,
,-0.256,-0.554,0.801,-0.428,-50.599,49.072,0,0,0,
,-0.257,-0.622,0.806,-4.029,-63.355,57.922,0,0,0,
,-0.264,-0.626,0.797,-59.205,-85.999,66.894,0,0,0,
,-0.265,-0.586,0.805,-83.924,-98.572,69.824,0,0,0,
,-0.263,-0.603,0.807,-103.333,-102.723,66.162,0,0,0,
,-0.281,-0.626,0.803,-111.145,-97.535,64.331,0,0,0,
,-0.261,-0.613,0.797,-161.377,-106.385,65.368,0,0,0,
,-0.281,-0.613,0.802,-192.017,-104.615,56.64,0,0,0,
,-0.282,-0.576,0.82,-207.215,-98.938,52.063,0,0,0,
,-0.293,-0.573,0.814,-210.144,-88.99,52.185,0,0,0,
,-0.302,-0.529,0.801,-171.875,-72.754,52.063,0,0,0,
,-0.292,-0.519,0.816,-182.312,-66.529,49.621,0,0,0,
,-0.3,-0.549,0.819,-191.651,-64.393,55.969,0,0,0,
,-0.341,-0.525,0.834,-169.312,-69.336,63.842,0,0,0,
,-0.308,-0.531,0.846,-159.18,-61.463,59.265,0,0,0,
,-0.288,-0.541,0.826,-122.803,-41.626,61.828,0,0,0,
,-0.302,-0.563,0.859,-131.592,-41.016,51.33,0,0,0,
,-0.283,-0.566,0.851,-171.753,-51.209,48.339,0,0,0,
,-0.3,-0.563,0.859,-176.453,-42.298,29.235,0,0,0,
,-0.299,-0.566,0.843,-203.736,-29.602,19.592,0,0,0,
,-0.289,-0.523,0.838,-253.052,-23.072,0.793,0,0,0,
,-0.305,-0.485,0.851,-260.865,-15.381,7.019,0,0,0,
,-0.296,-0.466,0.866,-245.179,-15.32,9.582,0,0,0,
,-0.315,-0.514,0.879,-216.919,10.742,-0.245,0,0,0,
,-0.288,-0.476,0.874,-203.309,20.996,-44.739,0,0,0,
,-0.296,-0.419,0.855,-153.321,28.747,-53.101,0,0,0,
,-0.293,-0.421,0.86,-93.628,44.128,-56.519,0,0,0,
,-0.288,-0.437,0.859,-45.289,50.354,-56.641,0,0,0,
,-0.308,-0.489,0.863,3.356,43.579,-86.609,0,0,0,
,-0.311,-0.444,0.835,38.33,52.124,-99.61,0,0,0,
,-0.322,-0.463,0.819,110.229,71.533,-114.136,0,0,0,
,-0.341,-0.455,0.827,228.088,105.102,-153.199,0,0,0,
,-0.335,-0.495,0.801,280.578,110.839,-162.354,0,0,0,
,-0.353,-0.492,0.798,299.072,88.256,-161.927,0,0,0,
,-0.359,-0.492,0.796,297.302,100.952,-174.134,0,0,0,
,-0.355,-0.476,0.78,316.772,94.97,-173.279,0,0,0,
,-0.381,-0.502,0.766,354.248,91.369,-173.34,0,0,0,
,-0.393,-0.473,0.756,377.563,93.689,-171.387,0,0,0,
,-0.406,-0.492,0.782,407.531,114.318,-186.158,0,0,0,
,-0.408,-0.5,0.792,416.198,129.699,-191.407,0,0,0,
,-0.409,-0.536,0.777,372.009,119.14,-181.885,0,0,0,
,-0.413,-0.517,0.741,273.376,100.036,-171.998,0,0,0,
,-0.428,-0.513,0.734,219.177,82.092,-170.105,0,0,0,
,-0.431,-0.507,0.772,135.498,79.162,-159.485,0,0,0,
,-0.407,-0.525,0.867,115.539,92.163,-140.503,0,0,0,
,-0.42,-0.511,0.844,97.351,64.209,-123.414,0,0,0,
,-0.414,-0.504,0.827,43.029,55.236,-109.253,0,0,0,
,-0.395,-0.473,0.83,-10.987,44.86,-99.244,0,0,0,
,-0.374,-0.485,0.85,-27.527,40.039,-82.52,0,0,0,
,-0.323,-0.509,0.808,57.739,35.644,-43.58,0,0,0,
,-0.292,-0.547,0.807,23.498,27.343,-31.678,0,0,0,
,-0.298,-0.52,0.834,-1.16,28.564,-20.203,0,0,0,
,-0.265,-0.528,0.834,28.747,16.601,-12.94,0,0,0,
,-0.27,-0.557,0.832,33.142,19.165,-5.494,0,0,0,
,-0.257,-0.567,0.838,21.972,21.606,3.845,0,0,0,
,-0.228,-0.632,0.831,-16.48,11.291,14.221,0,0,0,
,-0.243,-0.601,0.832,-86.243,-11.17,19.104,0,0,0,
,-0.244,-0.544,0.833,-103.15,-11.353,28.503,0,0,0,
,-0.238,-0.559,0.827,-122.437,-18.555,34.729,0,0,0,
,-0.231,-0.53,0.843,-131.47,-27.71,48.156,0,0,0,
,-0.226,-0.56,0.842,-130.799,-24.537,59.265,0,0,0,
,-0.205,-0.556,0.852,-146.363,-39.368,74.157,0,0,0,
,-0.197,-0.578,0.843,-195.679,-57.618,87.158,0,0,0,
,-0.199,-0.589,0.836,-292.847,-67.444,94.421,0,0,0,
,-0.185,-0.552,0.856,-400.086,-93.628,106.506,0,0,0,
,-0.196,-0.523,0.859,-442.322,-96.497,122.802,0,0,0,
,-0.179,-0.531,0.877,-442.017,-107.789,134.887,0,0,0,
,-0.184,-0.554,0.874,-400.147,-118.103,142.089,0,0,0,
,-0.187,-0.521,0.886,-327.332,-114.197,144.104,0,0,0,
,-0.194,-0.514,0.869,-298.035,-98.938,134.216,0,0,0,
,-0.196,-0.536,0.837,-303.345,-87.525,117.553,0,0,0,
,-0.206,-0.522,0.844,-337.464,-73.121,103.149,0,0,0,
,-0.207,-0.496,0.854,-344.422,-71.961,97.29,0,0,0,
,-0.234,-0.47,0.89,-297.669,-63.904,90.026,0,0,0,
,-0.234,-0.464,0.897,-273.194,-63.477,90.271,0,0,0,
,-0.242,-0.459,0.896,-250.245,-55.054,80.383,0,0,0,
,-0.256,-0.472,0.92,-244.263,-44.861,65.307,0,0,0,
,-0.261,-0.442,0.913,-216.553,-32.654,60.18,0,0,0,
,-0.24,-0.411,0.902,-173.462,-20.203,49.682,0,0,0,
,-0.269,-0.424,0.914,-74.158,-21.241,42.785,0,0,0,
,-0.258,-0.433,0.886,-13.733,-18.372,33.63,0,0,0,
,-0.258,-0.441,0.87,59.143,-18.494,21.118,0,0,0,
,-0.28,-0.475,0.894,109.741,-3.54,5.31,0,0,0,
,-0.262,-0.56,0.855,53.527,-7.752,3.234,0,0,0,
,-0.302,-0.51,0.85,14.709,-22.4,-1.648,0,0,0,
,-0.3,-0.492,0.844,-8.912,-15.015,-20.935,0,0,0,
,-0.331,-0.473,0.851,20.385,8.056,-36.316,0,0,0,
,-0.323,-0.479,0.852,51.574,25.451,-61.341,0,0,0,
,-0.34,-0.476,0.855,104.126,41.32,-86.914,0,0,0,
,-0.353,-0.477,0.87,172.729,48.767,-96.741,0,0,0,
,-0.341,-0.52,0.845,162.658,52.917,-108.033,0,0,0,
,-0.359,-0.509,0.85,122.314,54.382,-116.456,0,0,0,
,-0.403,-0.46,0.829,132.141,56.274,-127.869,0,0,0,
,-0.376,-0.452,0.821,167.358,71.35,-143.433,0,0,0,
,-0.388,-0.441,0.807,201.843,83.862,-148.194,0,0,0,
,-0.399,-0.443,0.81,251.831,94.055,-156.983,0,0,0,
,-0.38,-0.47,0.769,293.213,97.412,-162.781,0,0,0,
,-0.389,-0.511,0.757,296.875,96.008,-167.664,0,0,0,
,-0.385,-0.514,0.756,260.131,98.144,-174.927,0,0,0,
,-0.399,-0.514,0.757,239.074,97.717,-181.946,0,0,0,
,-0.396,-0.497,0.775,210.876,97.534,-187.256,0,0,0,
,-0.415,-0.457,0.803,230.774,100.586,-190.247,0,0,0,
,-0.417,-0.454,0.809,262.451,110.717,-194.581,0,0,0,
,-0.413,-0.438,0.796,299.072,116.272,-185.242,0,0,0,
,-0.416,-0.486,0.778,332.458,113.586,-173.157,0,0,0,
,-0.4,-0.505,0.776,248.718,90.148,-148.56,0,0,0,
,-0.396,-0.503,0.787,164.55,64.514,-133.912,0,0,0,
,-0.384,-0.485,0.872,135.986,42.541,-119.568,0,0,0,
,-0.389,-0.517,0.865,158.996,39.001,-115.357,0,0,0,
,-0.388,-0.516,0.86,204.651,46.142,-105.469,0,0,0,
,-0.369,-0.579,0.817,207.397,55.236,-105.042,0,0,0,
,-0.342,-0.598,0.784,103.454,41.503,-96.68,0,0,0,
,-0.342,-0.588,0.78,2.99,26.794,-98.45,0,0,0,
,-0.339,-0.517,0.789,-18.738,14.282,-90.332,0,0,0,
,-0.354,-0.507,0.793,10.681,25.268,-84.839,0,0,0,
,-0.339,-0.495,0.796,48.095,24.597,-72.998,0,0,0,
,-0.338,-0.498,0.807,77.453,42.053,-58.777,0,0,0,
,-0.31,-0.561,0.811,85.51,41.565,-38.758,0,0,0,
,-0.278,-0.614,0.805,38.024,28.686,-22.706,0,0,0,
,-0.282,-0.632,0.8,-29.175,6.774,-22.339,0,0,0,
,-0.284,-0.618,0.822,-80.384,18.554,-27.832,0,0,0,
,-0.274,-0.573,0.866,-81.116,12.39,-31.25,0,0,0,
,-0.283,-0.554,0.874,-7.63,24.414,-33.204,0,0,0,
,-0.313,-0.589,0.844,38.269,26.367,-32.227,0,0,0,
,-0.277,-0.621,0.785,-0.916,23.01,-19.471,0,0,0,
,-0.277,-0.573,0.783,-70.923,1.586,-13.184,0,0,0,
,-0.286,-0.551,0.795,-88.135,2.441,-11.048,0,0,0,
,-0.281,-0.525,0.813,-65.125,-4.883,1.037,0,0,0,
,-0.287,-0.498,0.804,-26.978,-3.54,13,0,0,0,
,-0.281,-0.52,0.792,-8.667,-2.259,25.634,0,0,0,
,-0.253,-0.588,0.777,-44.068,-4.578,44.311,0,0,0,
,-0.247,-0.57,0.816,-85.083,-31.556,52.795,0,0,0,
,-0.253,-0.578,0.851,-115.662,-32.288,54.931,0,0,0,
,-0.251,-0.578,0.851,-156.434,-49.317,60.424,0,0,0,
,-0.253,-0.569,0.871,-180.237,-63.111,69.397,0,0,0,
,-0.241,-0.624,0.862,-218.567,-80.567,80.932,0,0,0,
,-0.254,-0.598,0.876,-260.682,-94.788,91.186,0,0,0,
,-0.248,-0.605,0.843,-309.327,-107.911,91.552,0,0,0,
,-0.258,-0.571,0.821,-366.272,-116.639,92.834,0,0,0,
,-0.254,-0.513,0.813,-357.117,-115.662,96.313,0,0,0,
,-0.246,-0.511,0.815,-336.121,-109.925,107.055,0,0,0,
,-0.247,-0.491,0.813,-311.341,-98.45,118.164,0,0,0,
,-0.248,-0.485,0.827,-253.602,-93.445,118.469,0,0,0,
,-0.236,-0.518,0.83,-220.704,-72.144,110.29,0,0,0,
,-0.236,-0.55,0.847,-231.263,-77.942,113.769,0,0,0,
,-0.219,-0.579,0.906,-232.85,-74.219,107.666,0,0,0,
,-0.211,-0.601,0.914,-230.347,-78.98,95.886,0,0,0,
,-0.218,-0.589,0.904,-245.789,-81.604,69.091,0,0,0,
,-0.216,-0.589,0.87,-281.006,-76.844,54.931,0,0,0,
,-0.231,-0.519,0.854,-306.824,-75.196,39.184,0,0,0,
,-0.229,-0.474,0.837,-309.998,-69.581,26.611,0,0,0,
,-0.258,-0.422,0.839,-266.785,-52.063,18.188,0,0,0,
,-0.264,-0.431,0.837,-256.592,-31.189,14.648,0,0,0,
,-0.281,-0.429,0.861,-224.366,-14.71,12.817,0,0,0,
,-0.27,-0.488,0.891,-213.013,0.427,5.004,0,0,0,
,-0.278,-0.481,0.917,-221.131,-6.836,-2.991,0,0,0,
,-0.294,-0.448,0.921,-217.774,-9.461,-10.071,0,0,0,
,-0.318,-0.42,0.925,-165.467,-1.893,-16.236,0,0,0,
,-0.328,-0.383,0.911,-59.998,6.103,-17.518,0,0,0,
,-0.329,-0.37,0.897,46.142,9.277,-18.86,0,0,0,
,-0.325,-0.39,0.894,163.94,14.282,-19.837,0,0,0,
,-0.335,-0.416,0.882,250.122,0,-21.79,0,0,0,
,-0.343,-0.468,0.862,262.268,17.089,-27.894,0,0,0,
,-0.352,-0.473,0.828,230.651,10.498,-31.25,0,0,0,
,-0.363,-0.467,0.808,213.379,19.043,-40.772,0,0,0,
,-0.364,-0.463,0.783,222.595,32.409,-50.232,0,0,0,
,-0.373,-0.465,0.778,241.577,55.664,-65.308,0,0,0,
,-0.362,-0.496,0.795,249.45,70.678,-84.351,0,0,0,
,-0.382,-0.502,0.804,285.827,67.504,-95.581,0,0,0,
,-0.378,-0.516,0.789,303.955,57.739,-100.647,0,0,0,
,-0.392,-0.524,0.759,287.353,60.485,-105.713,0,0,0,
,-0.399,-0.502,0.749,278.015,71.472,-119.324,0,0,0,
,-0.398,-0.516,0.749,272.949,86.486,-127.564,0,0,0,
,-0.401,-0.563,0.734,195.251,88.195,-133.179,0,0,0,
,-0.397,-0.542,0.757,124.878,77.575,-137.513,0,0,0,
,-0.413,-0.512,0.802,116.455,69.213,-147.889,0,0,0,
,-0.407,-0.494,0.804,158.203,76.599,-152.527,0,0,0,
,-0.415,-0.471,0.8,230.651,66.406,-142.762,0,0,0,
,-0.414,-0.477,0.809,313.354,67.932,-128.907,0,0,0,
,-0.392,-0.555,0.776,257.568,82.214,-121.338,0,0,0,
,-0.38,-0.545,0.792,160.034,48.706,-112.793,0,0,0,
,-0.372,-0.556,0.822,75.683,43.884,-105.53,0,0,0,
,-0.376,-0.486,0.839,69.519,21.301,-95.704,0,0,0,
,-0.367,-0.506,0.824,144.165,8.85,-91.797,0,0,0,
,-0.368,-0.524,0.802,173.401,21.545,-74.036,0,0,0,
,-0.359,-0.577,0.799,128.967,33.264,-73.121,0,0,0,
,-0.336,-0.588,0.787,47.912,23.986,-63.111,0,0,0,
,-0.342,-0.557,0.819,32.592,-11.475,-63.355,0,0,0,
,-0.339,-0.543,0.812,36.682,-17.823,-57.312,0,0,0,
,-0.346,-0.551,0.816,25.634,-18.006,-47.059,0,0,0,
,-0.343,-0.547,0.823,-32.044,-5.555,-54.749,0,0,0,
,-0.329,-0.55,0.845,-92.408,-0.184,-62.317,0,0,0,
,-0.323,-0.49,0.862,-81.665,-7.874,-64.637,0,0,0,
,-0.32,-0.541,0.813,-58.716,11.108,-61.036,0,0,0,
,-0.323,-0.513,0.812,-54.505,0.183,-43.091,0,0,0,
,-0.317,-0.572,0.809,-78.186,20.568,-48.768,0,0,0,
,-0.304,-0.618,0.812,-169.983,20.263,-49.927,0,0,0,
,-0.321,-0.537,0.829,-179.139,22.705,-34.729,0,0,0,
,-0.31,-0.561,0.812,-119.751,33.569,-22.95,0,0,0,
,-0.3,-0.518,0.791,-57.801,12.268,0.122,0,0,0,
,-0.321,-0.572,0.792,-17.762,17.334,9.643,0,0,0,
,-0.291,-0.588,0.769,-99.671,1.709,39.55,0,0,0,
,-0.291,-0.586,0.811,-188.355,-4.639,32.043,0,0,0,
,-0.27,-0.588,0.836,-257.508,-9.705,31.677,0,0,0,
,-0.274,-0.551,0.868,-266.907,-18.25,31.921,0,0,0,
,-0.252,-0.59,0.892,-242.554,-19.227,38.94,0,0,0,
,-0.233,-0.595,0.86,-281.739,-42.054,43.945,0,0,0,
,-0.24,-0.582,0.869,-303.956,-43.885,28.564,0,0,0,
,-0.252,-0.592,0.838,-365.479,-41.077,31.799,0,0,0,
,-0.251,-0.489,0.843,-389.222,-35.706,38.269,0,0,0,
,-0.248,-0.5,0.841,-368.164,-18.067,37.536,0,0,0,
,-0.23,-0.498,0.84,-363.221,-16.907,39.001,0,0,0,
,-0.24,-0.512,0.845,-388.672,-4.273,34.179,0,0,0,
,-0.244,-0.481,0.86,-421.326,9.399,30.883,0,0,0,
,-0.232,-0.507,0.896,-454.163,25.451,27.343,0,0,0,
,-0.237,-0.509,0.887,-527.222,10.253,22.155,0,0,0,
,-0.259,-0.403,0.901,-515.748,-4.029,22.766,0,0,0,
,-0.264,-0.358,0.899,-435.669,6.286,16.418,0,0,0,
,-0.29,-0.349,0.893,-365.845,31.127,11.718,0,0,0,
,-0.274,-0.394,0.889,-328.186,28.869,13.794,0,0,0,
,-0.288,-0.375,0.927,-324.891,14.892,17.456,0,0,0,
,-0.286,-0.367,0.938,-317.505,17.944,23.986,0,0,0,
,-0.284,-0.319,0.964,-268.189,15.869,21.728,0,0,0,
,-0.277,-0.352,0.955,-226.319,25.573,10.925,0,0,0,
,-0.288,-0.345,0.961,-181.214,26.123,4.333,0,0,0,
,-0.283,-0.329,0.955,-129.761,17.944,-6.592,0,0,0,
,-0.296,-0.355,0.945,-70.496,15.564,-16.541,0,0,0,
,-0.308,-0.36,0.924,-56.031,7.69,-19.104,0,0,0,
,-0.31,-0.339,0.91,-53.284,1.464,-20.508,0,0,0,
,-0.321,-0.307,0.907,-27.588,1.403,-25.391,0,0,0,
,-0.311,-0.317,0.927,47.363,15.319,-52.613,0,0,0,
,-0.328,-0.312,0.921,135.986,21.301,-72.876,0,0,0,
,-0.331,-0.362,0.905,200.256,35.4,-92.286,0,0,0,
,-0.334,-0.397,0.886,142.578,27.587,-85.877,0,0,0,
,-0.358,-0.387,0.883,81.848,18.127,-87.586,0,0,0,
,-0.355,-0.344,0.875,60.302,25.512,-97.596,0,0,0,
,-0.36,-0.324,0.874,80.566,45.593,-105.652,0,0,0,
,-0.342,-0.31,0.882,137.878,48.461,-114.136,0,0,0,
,-0.354,-0.328,0.891,219.238,55.053,-122.376,0,0,0,
,-0.345,-0.391,0.88,260.07,48.706,-125.489,0,0,0,
,-0.343,-0.421,0.86,208.313,30.517,-124.573,0,0,0,
,-0.355,-0.398,0.854,143.982,24.902,-128.357,0,0,0,
,-0.351,-0.38,0.851,139.831,32.714,-132.752,0,0,0,
,-0.366,-0.356,0.848,187.378,41.992,-142.64,0,0,0,
,-0.359,-0.377,0.842,207.885,47.363,-148.438,0,0,0,
,-0.362,-0.414,0.824,168.09,44.738,-145.691,0,0,0,
,-0.358,-0.414,0.829,122.985,33.203,-145.02,0,0,0,
,-0.361,-0.412,0.854,62.377,28.381,-138.428,0,0,0,
,-0.358,-0.359,0.868,45.715,7.629,-127.869,0,0,0,
,-0.372,-0.325,0.869,86.792,6.591,-123.23,0,0,0,
,-0.372,-0.334,0.862,142.639,4.516,-116.944,0,0,0,
,-0.373,-0.349,0.862,182.251,4.089,-103.516,0,0,0,
,-0.36,-0.388,0.867,159.851,-4.09,-87.586,0,0,0,
,-0.357,-0.394,0.864,130.249,-16.358,-79.224,0,0,0,
,-0.36,-0.392,0.872,96.679,-35.828,-60.12,0,0,0,
,-0.357,-0.349,0.898,116.516,-48.645,-51.819,0,0,0,
,-0.366,-0.398,0.932,135.742,-19.959,-50.721,0,0,0,
,-0.333,-0.395,0.951,163.33,-25.94,-43.763,0,0,0,
,-0.34,-0.435,0.923,178.711,-23.072,-39.429,0,0,0,
,-0.344,-0.456,0.874,151.916,-22.889,-30.152,0,0,0,
,-0.312,-0.486,0.837,43.945,-26.307,-25.208,0,0,0,
,-0.33,-0.452,0.841,-65.186,-41.138,-18.799,0,0,0,
,-0.33,-0.381,0.884,-114.93,-43.091,-26.673,0,0,0,
,-0.354,-0.331,0.895,-34.058,-18.006,-24.048,0,0,0,
,-0.333,-0.419,0.88,-23.865,-14.344,-12.269,0,0,0,
,-0.355,-0.396,0.901,-43.58,-32.166,4.394,0,0,0,
,-0.36,-0.422,0.931,-53.589,-16.114,18.493,0,0,0,
,-0.356,-0.373,0.908,-41.443,-49.561,43.273,0,0,0,
,-0.362,-0.381,0.872,-8.484,-37.354,43.151,0,0,0,
,-0.361,-0.414,0.8,-39.429,-45.838,58.898,0,0,0,
,-0.367,-0.364,0.842,-65.613,-41.871,67.993,0,0,0,
,-0.347,-0.405,0.897,-35.096,-26.307,73.12,0,0,0,
,-0.329,-0.424,0.909,29.419,-31.25,70.129,0,0,0,
,-0.344,-0.542,0.894,73.852,-22.034,52.368,0,0,0,
,-0.308,-0.548,0.844,34.24,-18.372,43.273,0,0,0,
,-0.31,-0.594,0.82,-17.64,-18.799,16.967,0,0,0,
,-0.329,-0.531,0.872,-37.171,-26.001,-17.273,0,0,0,
,-0.344,-0.514,0.905,-27.039,-3.357,-55.237,0,0,0,
,-0.354,-0.508,0.886,-29.297,6.836,-87.342,0,0,0,
,-0.352,-0.484,0.87,-30.701,17.334,-106.446,0,0,0,
,-0.357,-0.507,0.842,-64.087,19.165,-103.821,0,0,0,
,-0.344,-0.433,0.821,-103.638,17.761,-102.051,0,0,0,
,-0.365,-0.418,0.85,-91.37,25.573,-97.657,0,0,0,
,-0.4,-0.369,0.851,-39.429,32.898,-74.463,0,0,0,
,-0.422,-0.337,0.814,58.227,48.767,-62.134,0,0,0,
,-0.434,-0.335,0.767,178.039,55.542,-58.35,0,0,0,
,-0.413,-0.423,0.776,202.392,73.242,-78.125,0,0,0,
,-0.422,-0.483,0.837,166.504,102.722,-85.572,0,0,0,
,-0.379,-0.56,0.891,106.018,125.122,-84.717,0,0,0,
,-0.375,-0.486,0.92,61.34,157.104,-109.803,0,0,0,
,-0.372,-0.498,0.895,90.454,190.857,-125.367,0,0,0,
,-0.366,-0.509,0.833,145.752,202.636,-114.197,0,0,0,
,-0.339,-0.502,0.764,149.719,205.139,-107.178,0,0,0,
,-0.303,-0.531,0.789,50.72,202.514,-114.747,0,0,0,
,-0.275,-0.563,0.828,-98.328,187.194,-93.506,0,0,0,
,-0.24,-0.483,0.865,-161.255,181.396,-91.492,0,0,0,
,-0.241,-0.541,0.864,-118.836,190.063,-101.624,0,0,0,
,-0.203,-0.482,0.819,-52.735,156.067,-95.032,0,0,0,
,-0.188,-0.469,0.807,25.085,134.094,-114.685,0,0,0,
,-0.193,-0.507,0.826,64.758,97.778,-116.7,0,0,0,
,-0.199,-0.469,0.821,73.669,80.2,-105.286,0,0,0,
,-0.198,-0.563,0.87,-13.489,69.885,-104.004,0,0,0,
,-0.215,-0.455,0.906,-60.73,60.302,-74.952,0,0,0,
,-0.173,-0.487,0.949,8.056,80.444,-22.644,0,0,0,
,-0.156,-0.506,0.92,53.1,68.359,-45.96,0,0,0,
,-0.216,-0.495,0.869,94.97,40.161,-88.318,0,0,0,
,-0.185,-0.479,0.838,108.459,16.357,-82.825,0,0,0,
,-0.216,-0.477,0.864,124.511,-5.799,-91.614,0,0,0,
,-0.224,-0.505,0.889,125.061,-10.315,-86.06,0,0,0,
,-0.267,-0.528,0.877,18.371,22.338,-66.224,0,0,0,
,-0.274,-0.531,0.841,-31.8,81.604,-60.975,0,0,0,
,-0.272,-0.477,0.804,-52.124,124.572,-63.538,0,0,0,
,-0.16,-0.318,0.805,88.195,161.255,-99.305,0,0,0,
,-0.234,-0.701,0.978,197.387,155.456,-180.726,0,0,0,
,-0.203,-0.517,0.864,206.543,102.172,-121.582,0,0,0,
,-0.225,-0.567,0.902,219.848,93.75,-120.484,0,0,0,
,-0.235,-0.557,0.876,159.851,101.074,-105.957,0,0,0,
,-0.224,-0.558,0.899,144.47,89.233,-112,0,0,0,
,-0.245,-0.525,0.92,170.41,70.617,-112.183,0,0,0,
,-0.25,-0.516,0.921,252.746,62.683,-108.582,0,0,0,
,-0.27,-0.499,0.849,304.565,69.458,-110.718,0,0,0,
,-0.291,-0.491,0.778,317.138,96.984,-110.535,0,0,0,
,-0.3,-0.511,0.756,302.002,125.305,-106.568,0,0,0,
,-0.327,-0.594,0.697,142.456,122.436,-103.577,0,0,0,
,-0.344,-0.536,0.752,-35.157,68.786,-83.558,0,0,0,
,-0.384,-0.527,0.796,-217.102,46.569,-69.764,0,0,0,
,-0.366,-0.437,0.868,-318.787,1.464,-38.819,0,0,0,
,-0.396,-0.401,0.896,-284.668,-13.367,-11.841,0,0,0,
,-0.385,-0.373,0.895,-210.144,-31.434,15.93,0,0,0,
,-0.38,-0.363,0.878,-76.539,-40.772,42.114,0,0,0,
,-0.29,-0.615,0.833,-4.761,-49.744,95.459,0,0,0,
,-0.265,-0.597,0.809,-122.498,-90.699,88.195,0,0,0,
,-0.293,-0.572,0.815,-206.604,-87.586,67.81,0,0,0,
,-0.298,-0.494,0.808,-198.548,-57.496,61.401,0,0,0,
,-0.29,-0.464,0.84,-105.042,-24.842,52.49,0,0,0,
,-0.256,-0.479,0.799,-34.79,-4.212,58.044,0,0,0,
,-0.221,-0.587,0.789,50.72,-3.113,44.25,0,0,0,
,-0.191,-0.692,0.786,-8.24,-17.823,34.851,0,0,0,
,-0.169,-0.687,0.862,-130.982,-14.466,9.094,0,0,0,
,-0.157,-0.678,0.91,-151.368,19.653,-34.119,0,0,0,
,-0.155,-0.61,0.944,-29.175,49.377,-81.116,0,0,0,
,-0.167,-0.677,0.866,70.922,113.281,-132.874,0,0,0,
,-0.194,-0.551,0.752,133.239,153.381,-153.626,0,0,0,
,-0.219,-0.541,0.815,65.185,155.212,-154.786,0,0,0,
,-0.246,-0.525,0.868,0.183,173.95,-158.265,0,0,0,
,-0.231,-0.563,0.853,-58.045,135.07,-123.719,0,0,0,
,-0.286,-0.485,0.906,-223.328,56.274,-88.318,0,0,0,
,-0.317,-0.395,0.906,-335.572,23.315,-42.908,0,0,0,
,-0.308,-0.298,0.975,-355.774,-57.373,6.408,0,0,0,
,-0.331,-0.236,0.986,-350.403,-79.407,60.791,0,0,0,
,-0.316,-0.213,0.942,-308.716,-103.943,118.591,0,0,0,
,-0.298,-0.178,0.922,-131.653,-121.766,183.471,0,0,0,
,-0.254,-0.334,0.913,84.106,-108.765,211.975,0,0,0,
,-0.178,-0.525,0.888,218.933,-86.731,213.134,0,0,0,
,-0.139,-0.764,0.803,195.739,-77.21,163.94,0,0,0,
,-0.115,-0.782,0.782,105.407,-66.59,105.835,0,0,0,
,-0.141,-0.709,0.739,86.181,-7.142,33.325,0,0,0,
,-0.152,-0.62,0.723,154.541,76.416,-25.513,0,0,0,
,-0.133,-0.628,0.781,133.789,178.588,-96.802,0,0,0,
,-0.109,-0.584,0.862,51.94,212.951,-116.578,0,0,0,
,-0.09,-0.63,0.891,-0.611,204.406,-116.761,0,0,0,
,-0.085,-0.539,0.916,-95.948,113.708,-66.529,0,0,0,
,-0.151,-0.461,0.924,-135.376,68.054,-40.65,0,0,0,
,-0.17,-0.36,0.908,-85.877,-6.897,15.93,0,0,0,
,-0.207,-0.351,0.859,49.804,-36.377,73.059,0,0,0,
,-0.207,-0.333,0.817,208.74,-85.083,142.089,0,0,0,
,-0.166,-0.511,0.794,304.443,-117.493,200.012,0,0,0,
,-0.143,-0.64,0.734,98.449,-214.539,256.164,0,0,0,
,-0.211,-0.574,0.785,-17.212,-250.367,234.069,0,0,0,
,-0.216,-0.613,0.786,-36.622,-262.879,222.046,0,0,0,
,-0.261,-0.533,0.823,-31.373,-254.944,211.486,0,0,0,
,-0.248,-0.54,0.815,29.296,-229.432,191.955,0,0,0,
,-0.271,-0.611,0.783,32.714,-221.68,166.748,0,0,0,
,-0.274,-0.656,0.789,-61.097,-225.892,152.343,0,0,0,
,-0.296,-0.639,0.804,-185.242,-192.505,131.408,0,0,0,
,-0.296,-0.66,0.861,-238.038,-148.011,105.835,0,0,0,
,-0.292,-0.612,0.908,-238.526,-116.089,85.327,0,0,0,
,-0.279,-0.643,0.921,-240.296,-95.643,72.631,0,0,0,
,-0.264,-0.603,0.946,-206.299,-90.638,43.029,0,0,0,
,-0.287,-0.687,0.966,-287.659,-45.472,28.015,0,0,0,
,-0.26,-0.64,0.953,-366.15,-10.743,10.803,0,0,0,
,-0.271,-0.568,0.942,-342.835,-32.288,-2.137,0,0,0,
,-0.232,-0.438,0.863,-279.053,-62.012,-31.739,0,0,0,
,-0.265,-0.411,0.807,-227.845,-83.802,-63.05,0,0,0,
,-0.276,-0.376,0.807,-146.729,-86.365,-69.581,0,0,0,
,-0.32,-0.38,0.83,-12.452,-56.153,-51.148,0,0,0,
,-0.308,-0.385,0.811,153.259,-11.048,-50.66,0,0,0,
,-0.309,-0.475,0.789,236.328,13.305,-45.411,0,0,0,
,-0.286,-0.499,0.721,261.596,10.07,-50.477,0,0,0,
,-0.288,-0.557,0.755,199.951,-28.748,-51.087,0,0,0,
,-0.295,-0.527,0.819,132.751,-31.128,-63.843,0,0,0,
,-0.301,-0.568,0.828,44.006,-8.545,-82.398,0,0,0,
,-0.311,-0.52,0.817,76.843,-7.752,-90.577,0,0,0,
,-0.324,-0.517,0.811,174.743,-0.55,-110.962,0,0,0,
,-0.33,-0.51,0.763,252.685,-0.306,-113.526,0,0,0,
,-0.339,-0.496,0.728,335.937,10.559,-120.301,0,0,0,
,-0.338,-0.564,0.701,331.482,34.484,-112.061,0,0,0,
,-0.34,-0.578,0.708,262.634,43.518,-114.136,0,0,0,
,-0.347,-0.572,0.721,213.745,43.945,-114.991,0,0,0,
,-0.396,-0.571,0.757,238.159,38.879,-124.39,0,0,0,
,-0.384,-0.545,0.792,290.039,40.1,-126.465,0,0,0,
,-0.387,-0.534,0.842,316.345,50.293,-131.958,0,0,0,
,-0.363,-0.592,0.801,330.81,49.682,-129.517,0,0,0,
,-0.362,-0.615,0.753,349.548,21.24,-116.883,0,0,0,
,-0.36,-0.574,0.718,337.89,8.422,-114.075,0,0,0,
,-0.359,-0.626,0.691,311.218,20.69,-122.62,0,0,0,
,-0.353,-0.639,0.705,244.262,44.677,-117.554,0,0,0,
,-0.345,-0.681,0.741,185.485,65.673,-133.851,0,0,0,
,-0.336,-0.657,0.735,176.818,61.584,-136.475,0,0,0,
,-0.36,-0.632,0.719,163.513,62.072,-138.794,0,0,0,
,-0.366,-0.631,0.723,145.63,71.106,-137.146,0,0,0,
,-0.362,-0.623,0.764,122.009,78.857,-122.559,0,0,0,
,-0.354,-0.624,0.769,120.178,94.726,-114.38,0,0,0,
,-0.337,-0.683,0.764,105.285,92.346,-122.498,0,0,0,
,-0.312,-0.671,0.79,59.875,75.622,-106.324,0,0,0,
,-0.291,-0.69,0.792,47.546,63.903,-98.206,0,0,0,
,-0.287,-0.683,0.78,-0.977,46.936,-86.548,0,0,0,
,-0.274,-0.648,0.761,-34.668,34.606,-76.355,0,0,0,
,-0.268,-0.637,0.729,-40.711,21.301,-66.468,0,0,0,
,-0.273,-0.63,0.712,-80.14,16.052,-58.045,0,0,0,
,-0.264,-0.652,0.712,-121.338,13.488,-42.298,0,0,0,
,-0.236,-0.632,0.759,-159.18,-5.249,-16.48,0,0,0,
,-0.259,-0.629,0.795,-117.432,-9.644,-8.118,0,0,0,
,-0.251,-0.637,0.796,-50.843,-9.949,-3.785,0,0,0,
,-0.249,-0.688,0.791,-39.978,-7.569,2.197,0,0,0,
,-0.235,-0.76,0.76,-102.356,-9.522,4.15,0,0,0,
,-0.253,-0.694,0.773,-154.725,-15.748,4.638,0,0,0,
,-0.249,-0.723,0.73,-190.491,-16.602,-7.996,0,0,0,
,-0.259,-0.669,0.748,-263.611,-26.612,-5.616,0,0,0,
,-0.26,-0.604,0.764,-277.039,-34.424,-0.855,0,0,0,
,-0.267,-0.591,0.755,-257.935,-22.522,2.197,0,0,0,
,-0.272,-0.545,0.741,-240.235,-7.935,6.836,0,0,0,
,-0.282,-0.563,0.747,-235.84,6.652,18.981,0,0,0,
,-0.253,-0.584,0.769,-261.597,6.408,36.01,0,0,0,
,-0.252,-0.655,0.775,-274.659,-20.386,39.489,0,0,0,
,-0.263,-0.604,0.83,-365.479,-41.81,41.87,0,0,0,
,-0.28,-0.581,0.857,-378.724,-36.316,35.766,0,0,0,
,-0.292,-0.528,0.88,-321.534,-25.574,40.161,0,0,0,
,-0.297,-0.538,0.844,-226.319,-12.513,45.288,0,0,0,
,-0.292,-0.503,0.815,-169.739,-6.47,46.264,0,0,0,
,-0.272,-0.569,0.842,-176.27,4.089,36.743,0,0,0,
,-0.25,-0.585,0.808,-278.504,4.028,43.884,0,0,0,
,-0.245,-0.582,0.809,-318.604,-8.789,41.076,0,0,0,
,-0.238,-0.55,0.831,-324.524,-28.077,46.142,0,0,0,
,-0.246,-0.538,0.855,-323.853,-19.043,42.236,0,0,0,
,-0.246,-0.544,0.878,-241.028,-5.738,31.921,0,0,0,
,-0.222,-0.565,0.838,-230.347,-1.77,10.742,0,0,0,
,-0.238,-0.569,0.844,-263.367,2.868,-2.32,0,0,0,
,-0.25,-0.513,0.839,-291.199,-0.977,-3.418,0,0,0,
,-0.252,-0.485,0.832,-268.25,1.586,-1.282,0,0,0,
,-0.266,-0.5,0.855,-275.086,-9.034,-8.24,0,0,0,
,-0.251,-0.439,0.925,-227.417,-18.189,-11.658,0,0,0,
,-0.266,-0.512,0.944,-187.256,-11.902,-17.579,0,0,0,
,-0.266,-0.489,0.927,-180.481,-10.621,-20.142,0,0,0,
,-0.275,-0.523,0.918,-150.696,-20.386,-21.546,0,0,0,
,-0.275,-0.435,0.903,-136.841,-25.696,-20.081,0,0,0,
,-0.275,-0.48,0.903,-116.517,-13.489,-28.87,0,0,0,
,-0.262,-0.437,0.881,-79.834,-8.179,-20.813,0,0,0,
,-0.257,-0.455,0.86,-69.581,-1.465,-26.49,0,0,0,
,-0.266,-0.449,0.853,-60.547,1.77,-28.199,0,0,0,
,-0.271,-0.448,0.836,-63.294,11.413,-34.485,0,0,0,
,-0.27,-0.422,0.833,-59.998,16.906,-45.289,0,0,0,
,-0.279,-0.422,0.832,-25.086,32.47,-53.956,0,0,0,
,-0.288,-0.413,0.866,32.898,39.611,-56.58,0,0,0,
,-0.288,-0.434,0.862,82.153,34.79,-61.89,0,0,0,
,-0.294,-0.423,0.881,133.422,29.235,-65.552,0,0,0,
,-0.294,-0.42,0.87,181.701,22.155,-63.66,0,0,0,
,-0.315,-0.433,0.859,220.214,16.967,-63.66,0,0,0,
,-0.316,-0.431,0.832,232.666,16.601,-62.623,0,0,0,
,-0.333,-0.42,0.804,249.511,17.761,-60.242,0,0,0,
,-0.338,-0.482,0.792,275.573,19.592,-61.097,0,0,0,
,-0.352,-0.521,0.795,257.385,23.254,-57.862,0,0,0,
,-0.358,-0.538,0.794,214.538,25.817,-69.092,0,0,0,
,-0.357,-0.503,0.811,212.707,31.677,-73.121,0,0,0,
,-0.367,-0.507,0.819,236.511,40.649,-87.891,0,0,0,
,-0.372,-0.523,0.811,289.428,52.063,-94.971,0,0,0,
,-0.383,-0.527,0.811,326.11,66.894,-110.962,0,0,0,
,-0.38,-0.568,0.794,332.824,81.726,-131.836,0,0,0,
,-0.373,-0.585,0.796,253.723,75.256,-138.367,0,0,0,
,-0.373,-0.533,0.802,166.259,65.429,-141.846,0,0,0,
,-0.382,-0.528,0.802,113.037,55.664,-154.969,0,0,0,
,-0.389,-0.498,0.79,90.21,47.729,-151.307,0,0,0,
,-0.398,-0.483,0.796,115.722,42.297,-147.889,0,0,0,
,-0.386,-0.464,0.8,168.396,60.913,-141.114,0,0,0,
,-0.372,-0.504,0.802,240.295,70.251,-135.132,0,0,0,
,-0.365,-0.499,0.789,280.334,70.19,-131.47,0,0,0,
,-0.357,-0.54,0.762,295.288,79.895,-126.709,0,0,0,
,-0.347,-0.571,0.752,257.385,91.919,-113.526,0,0,0,
,-0.337,-0.625,0.776,158.691,93.322,-114.075,0,0,0,
,-0.334,-0.627,0.812,65.49,79.773,-104.493,0,0,0,
,-0.328,-0.614,0.829,27.587,64.636,-104.737,0,0,0,
,-0.328,-0.591,0.834,13.305,49.743,-104.798,0,0,0,
,-0.338,-0.559,0.823,24.841,54.382,-91.492,0,0,0,
,-0.334,-0.566,0.806,3.051,53.649,-87.952,0,0,0,
,-0.331,-0.533,0.795,-26.123,46.752,-75.257,0,0,0,
,-0.291,-0.55,0.806,-38.392,38.574,-56.58,0,0,0,
,-0.298,-0.581,0.833,-50.11,24.719,-43.702,0,0,0,
,-0.283,-0.573,0.853,-34.729,19.104,-32.837,0,0,0,
,-0.3,-0.59,0.845,6.164,28.32,-33.814,0,0,0,
,-0.279,-0.596,0.787,-6.104,36.804,-33.509,0,0,0,
,-0.301,-0.616,0.757,-32.349,39.184,-35.645,0,0,0,
,-0.298,-0.564,0.765,-44.373,41.87,-33.204,0,0,0,
,-0.31,-0.541,0.773,-2.686,51.269,-20.508,0,0,0,
,-0.305,-0.594,0.774,34.729,54.565,-10.071,0,0,0,
,-0.256,-0.617,0.786,25.329,44.494,-6.409,0,0,0,
,-0.28,-0.651,0.806,1.281,41.565,-10.926,0,0,0,
,-0.255,-0.654,0.778,-58.167,37.719,-14.222,0,0,0,
,-0.263,-0.653,0.772,-154.175,28.869,-16.541,0,0,0,
,-0.279,-0.6,0.78,-209.29,16.906,-19.471,0,0,0,
,-0.298,-0.522,0.786,-175.415,18.737,-10.987,0,0,0,
,-0.287,-0.474,0.786,-112.854,19.653,3.173,0,0,0,
,-0.298,-0.517,0.803,-36.438,41.687,7.385,0,0,0,
,-0.255,-0.566,0.81,-0.611,46.264,27.954,0,0,0,
,-0.274,-0.643,0.848,15.564,33.874,37.109,0,0,0,
,-0.237,-0.683,0.838,-45.655,32.836,33.081,0,0,0,
,-0.257,-0.69,0.856,-82.459,29.907,8.728,0,0,0,
,-0.261,-0.653,0.847,-140.564,38.757,-2.259,0,0,0,
,-0.269,-0.626,0.854,-158.814,49.804,-6.836,0,0,0,
,-0.239,-0.55,0.79,-169.312,37.658,-4.761,0,0,0,
,-0.242,-0.579,0.738,-180.542,24.231,-17.456,0,0,0,
,-0.236,-0.554,0.744,-247.01,16.845,-2.137,0,0,0,
,-0.195,-0.554,0.854,-196.045,9.338,10.376,0,0,0,
,-0.189,-0.535,0.832,-150.757,-11.658,16.052,0,0,0,
,-0.179,-0.626,0.811,-224.915,-29.664,11.901,0,0,0,
,-0.185,-0.617,0.795,-344.239,-42.786,6.591,0,0,0,
,-0.192,-0.472,0.808,-387.085,-59.021,1.709,0,0,0,
,-0.225,-0.459,0.799,-305.176,-46.265,2.807,0,0,0,
,-0.244,-0.427,0.798,-176.941,-33.387,9.826,0,0,0,
,-0.245,-0.414,0.827,7.568,-19.288,14.343,0,0,0,
,-0.249,-0.51,0.839,196.289,-2.015,12.878,0,0,0,
,-0.219,-0.569,0.857,294.189,-1.221,11.291,0,0,0,
,-0.223,-0.619,0.873,300.048,-5.616,-0.123,0,0,0,
,-0.232,-0.623,0.829,301.452,42.236,-60.608,0,0,0,
,-0.231,-0.61,0.792,306.335,70.434,-88.685,0,0,0,
,-0.231,-0.596,0.782,295.41,91.919,-101.929,0,0,0,
,-0.231,-0.588,0.772,261.474,115.295,-116.7,0,0,0,
,-0.228,-0.618,0.771,218.383,114.929,-127.137,0,0,0,
,-0.231,-0.624,0.795,183.105,111.145,-127.442,0,0,0,
,-0.228,-0.618,0.807,178.65,106.079,-129.273,0,0,0,
,-0.23,-0.645,0.824,141.601,100.891,-133.301,0,0,0,
,-0.235,-0.62,0.823,120.422,106.323,-139.771,0,0,0,
,-0.225,-0.621,0.815,140.93,105.774,-144.654,0,0,0,
,-0.22,-0.614,0.76,164.245,113.525,-142.456,0,0,0,
,-0.218,-0.6,0.798,171.997,120.605,-144.41,0,0,0,
,-0.216,-0.611,0.814,167.846,119.384,-134.888,0,0,0,
,-0.216,-0.631,0.811,168.518,116.516,-131.897,0,0,0,
,-0.222,-0.669,0.821,151.672,110.229,-126.038,0,0,0,
,-0.227,-0.653,0.828,131.958,110.29,-122.254,0,0,0,
,-0.229,-0.656,0.814,95.092,111.084,-120.24,0,0,0,
,-0.235,-0.636,0.811,53.344,98.755,-120.606,0,0,0,
,-0.235,-0.563,0.797,72.021,92.407,-107.911,0,0,0,
,-0.246,-0.603,0.788,122.619,84.961,-100.769,0,0,0,
,-0.237,-0.593,0.768,154.663,68.298,-71.106,0,0,0,
,-0.243,-0.643,0.768,107.971,69.641,-59.632,0,0,0,
,-0.229,-0.668,0.776,41.687,59.326,-54.932,0,0,0,
,-0.226,-0.612,0.782,11.352,41.198,-39.002,0,0,0,
,-0.24,-0.648,0.776,36.499,36.743,-44.739,0,0,0,
,-0.234,-0.667,0.766,27.71,25.634,-26.49,0,0,0,
,-0.236,-0.652,0.771,7.08,12.451,-20.386,0,0,0,
,-0.218,-0.661,0.773,-59.205,6.225,-10.682,0,0,0,
,-0.227,-0.611,0.775,-85.511,-4.273,0.915,0,0,0,
,-0.211,-0.641,0.776,-81.116,-15.564,6.042,0,0,0,
,-0.231,-0.613,0.798,-56.702,-33.692,16.784,0,0,0,
,-0.242,-0.629,0.793,-27.1,-45.533,34.484,0,0,0,
,-0.243,-0.622,0.777,-39.307,-48.462,43.09,0,0,0,
,-0.242,-0.646,0.772,-94.422,-54.566,51.574,0,0,0,
,-0.235,-0.623,0.772,-123.841,-69.397,62.805,0,0,0,
,-0.23,-0.609,0.782,-80.445,-86.243,67.932,0,0,0,
,-0.24,-0.643,0.783,-46.631,-101.685,75.744,0,0,0,
,-0.251,-0.636,0.766,-39.917,-98.999,71.167,0,0,0,
,-0.242,-0.637,0.749,-69.581,-100.281,74.646,0,0,0,
,-0.254,-0.663,0.734,-146.607,-90.332,75.256,0,0,0,
,-0.243,-0.63,0.752,-198.792,-114.441,95.703,0,0,0,
,-0.261,-0.59,0.778,-164.49,-120.484,91.125,0,0,0,
,-0.272,-0.598,0.79,-119.202,-119.263,86.914,0,0,0,
,-0.269,-0.601,0.789,-99.305,-100.403,90.148,0,0,0,
,-0.266,-0.687,0.779,-120.667,-88.44,82.092,0,0,0,
,-0.26,-0.705,0.769,-176.392,-115.052,72.815,0,0,0,
,-0.281,-0.745,0.732,-281.617,-140.809,65.979,0,0,0,
,-0.298,-0.683,0.767,-355.103,-169.19,67.26,0,0,0,
,-0.307,-0.509,0.789,-302.124,-116.272,71.838,0,0,0,
,-0.312,-0.518,0.752,-239.014,-105.347,82.214,0,0,0,
,-0.315,-0.501,0.736,-228.516,-96.314,96.862,0,0,0,
,-0.315,-0.483,0.744,-187.623,-95.52,101.928,0,0,0,
,-0.307,-0.521,0.753,-164.795,-103.638,114.135,0,0,0,
,-0.32,-0.54,0.764,-188.538,-109.131,106.933,0,0,0,
,-0.328,-0.536,0.791,-179.322,-94.544,105.163,0,0,0,
,-0.33,-0.543,0.827,-182.923,-85.816,97.29,0,0,0,
,-0.324,-0.589,0.811,-185.059,-65.003,77.88,0,0,0,
,-0.317,-0.589,0.804,-243.164,-72.754,69.091,0,0,0,
,-0.321,-0.556,0.792,-300.843,-75.928,62.5,0,0,0,
,-0.319,-0.48,0.79,-354.737,-86.121,60.302,0,0,0,
,-0.334,-0.445,0.835,-313.111,-65.186,55.786,0,0,0,
,-0.322,-0.419,0.876,-264.71,-50.904,56.64,0,0,0,
,-0.324,-0.454,0.873,-200.745,-48.035,58.593,0,0,0,
,-0.322,-0.415,0.857,-161.194,-60.364,62.744,0,0,0,
,-0.336,-0.417,0.818,-143.006,-54.566,59.204,0,0,0,
,-0.349,-0.373,0.792,-135.621,-78.125,87.463,0,0,0,
,-0.367,-0.383,0.837,-73.121,-63.416,93.627,0,0,0,
,-0.317,-0.424,0.869,-13.733,-66.773,102.966,0,0,0,
,-0.298,-0.498,0.881,18.981,-83.435,107.91,0,0,0,
,-0.291,-0.6,0.869,20.263,-83.008,94.848,0,0,0,
,-0.265,-0.565,0.875,11.047,-103.638,88.501,0,0,0,
,-0.277,-0.602,0.839,0.671,-77.149,54.565,0,0,0,
,-0.27,-0.572,0.839,-7.019,-72.815,29.968,0,0,0,
,-0.266,-0.547,0.805,-22.034,-56.153,3.784,0,0,0,
,-0.282,-0.516,0.781,-39.795,-38.697,-15.809,0,0,0,
,-0.3,-0.483,0.772,-34.729,-21.729,-23.56,0,0,0,
,-0.273,-0.491,0.828,-11.78,-22.706,-24.414,0,0,0,
,-0.289,-0.499,0.884,47.973,-24.537,-28.626,0,0,0,
,-0.323,-0.53,0.85,55.664,-13.062,-46.021,0,0,0,
,-0.297,-0.476,0.833,38.147,-0.367,-48.279,0,0,0,
,-0.313,-0.507,0.853,43.273,11.901,-49.378,0,0,0,
,-0.289,-0.5,0.883,66.345,-4.273,-45.96,0,0,0,
,-0.289,-0.499,0.861,67.382,-14.832,-45.899,0,0,0,
,-0.297,-0.507,0.86,42.358,-14.832,-42.176,0,0,0,
,-0.288,-0.522,0.859,45.105,-5.433,-43.946,0,0,0,
,-0.287,-0.499,0.862,52.246,4.333,-51.575,0,0,0,
,-0.283,-0.508,0.836,76.782,8.972,-58.106,0,0,0,
,-0.271,-0.515,0.816,101.867,10.315,-62.012,0,0,0,
,-0.276,-0.553,0.836,107.116,13.244,-67.749,0,0,0,
,-0.275,-0.563,0.834,107.116,22.644,-69.275,0,0,0,
,-0.274,-0.539,0.845,123.413,33.02,-76.966,0,0,0,
,-0.275,-0.541,0.84,131.164,33.63,-82.825,0,0,0,
,-0.28,-0.536,0.828,162.658,44.189,-89.295,0,0,0,
,-0.261,-0.575,0.815,161.132,54.626,-95.826,0,0,0,
,-0.258,-0.602,0.828,108.154,59.265,-102.784,0,0,0,
,-0.252,-0.62,0.847,36.682,70.312,-115.479,0,0,0,
,-0.249,-0.559,0.86,8.483,70.556,-120.118,0,0,0,
,-0.252,-0.549,0.853,34.484,76.843,-125.855,0,0,0,
,-0.238,-0.541,0.867,66.467,81.481,-123.78,0,0,0,
,-0.238,-0.555,0.855,108.764,92.59,-128.968,0,0,0,
,-0.247,-0.547,0.843,138.549,85.449,-132.752,0,0,0,
,-0.253,-0.575,0.777,250.732,102.478,-127.015,0,0,0,
,-0.245,-0.597,0.791,231.628,105.407,-120.728,0,0,0,
,-0.252,-0.637,0.791,228.21,108.947,-135.376,0,0,0,
,-0.258,-0.658,0.772,189.148,103.332,-145.142,0,0,0,
,-0.284,-0.605,0.82,145.202,121.338,-157.959,0,0,0,
,-0.285,-0.589,0.816,152.404,119.018,-155.152,0,0,0,
,-0.283,-0.574,0.808,184.326,115.356,-147.767,0,0,0,
,-0.271,-0.586,0.798,201.965,109.68,-138.062,0,0,0,
,-0.262,-0.632,0.796,185.363,92.529,-126.893,0,0,0,
,-0.274,-0.609,0.797,160.522,93.322,-118.409,0,0,0,
,-0.27,-0.614,0.794,161.071,91.735,-117.31,0,0,0,
,-0.251,-0.624,0.806,156.311,97.229,-112.732,0,0,0,
,-0.268,-0.622,0.811,148.315,90.637,-104.798,0,0,0,
,-0.277,-0.624,0.772,141.723,81.359,-96.924,0,0,0,
,-0.274,-0.624,0.74,132.995,60.363,-82.093,0,0,0,
,-0.278,-0.614,0.744,134.887,55.603,-77.637,0,0,0,
,-0.288,-0.636,0.734,125,54.992,-67.2,0,0,0,
,-0.294,-0.62,0.735,119.629,60.546,-59.876,0,0,0,
,-0.299,-0.642,0.723,111.755,56.03,-56.519,0,0,0,
,-0.298,-0.626,0.702,128.357,45.593,-49.134,0,0,0,
,-0.322,-0.648,0.69,109.069,42.785,-40.528,0,0,0,
,-0.332,-0.647,0.707,112.793,48.461,-46.692,0,0,0,
,-0.347,-0.634,0.738,135.498,62.377,-44.983,0,0,0,
,-0.346,-0.686,0.771,157.837,91.308,-58.655,0,0,0,
,-0.358,-0.673,0.773,213.745,116.577,-75.196,0,0,0,
,-0.353,-0.666,0.743,340.149,137.207,-87.891,0,0,0,
,-0.363,-0.73,0.694,386.23,167.907,-104.676,0,0,0,
,-0.341,-0.741,0.662,303.772,185.547,-104.92,0,0,0,
,-0.331,-0.795,0.665,180.847,178.283,-113.16,0,0,0,
,-0.303,-0.766,0.639,-19.898,143.615,-85.267,0,0,0,
,-0.303,-0.722,0.723,-135.56,105.59,-76.294,0,0,0,
,-0.293,-0.684,0.743,-185.975,86.608,-63.111,0,0,0,
,-0.293,-0.643,0.743,-92.774,96.435,-75.867,0,0,0,
,-0.257,-0.73,0.71,-54.993,92.773,-77.149,0,0,0,
,-0.235,-0.758,0.702,-104.31,67.565,-73.914,0,0,0,
,-0.23,-0.708,0.722,-127.625,45.593,-62.561,0,0,0,
,-0.197,-0.752,0.719,-149.537,50.903,-66.895,0,0,0,
,-0.166,-0.699,0.748,-147.095,20.263,-47.852,0,0,0,
,-0.163,-0.676,0.745,-125.184,9.521,-53.101,0,0,0,
,-0.18,-0.674,0.737,-128.54,16.052,-59.754,0,0,0,
,-0.188,-0.612,0.734,-114.014,34.484,-39.429,0,0,0,
,-0.183,-0.665,0.752,-93.689,42.175,-29.969,0,0,0,
,-0.175,-0.675,0.747,-93.873,23.132,-9.461,0,0,0,
,-0.19,-0.688,0.77,-92.469,-1.954,7.69,0,0,0,
,-0.191,-0.713,0.751,-117.554,-27.1,32.287,0,0,0,
,-0.212,-0.678,0.76,-164.978,-47.181,42.785,0,0,0,
,-0.207,-0.688,0.739,-226.014,-44.129,45.654,0,0,0,
,-0.219,-0.622,0.777,-225.159,-55.115,45.044,0,0,0,
,-0.222,-0.642,0.756,-199.463,-45.227,53.222,0,0,0,
,-0.242,-0.67,0.774,-197.754,-44.19,64.697,0,0,0,
,-0.244,-0.642,0.788,-198.609,-53.345,82.397,0,0,0,
,-0.248,-0.659,0.812,-152.588,-57.679,83.313,0,0,0,
,-0.252,-0.718,0.791,-198.731,-58.899,82.702,0,0,0,
,-0.262,-0.684,0.762,-286.255,-67.81,81.848,0,0,0,
,-0.284,-0.642,0.76,-338.807,-67.505,81.787,0,0,0,
,-0.283,-0.626,0.766,-324.097,-73.67,81.665,0,0,0,
,-0.303,-0.616,0.782,-310.059,-69.031,81.481,0,0,0,
,-0.299,-0.581,0.765,-294.556,-63.599,68.481,0,0,0,
,-0.316,-0.55,0.731,-287.049,-45.044,60.791,0,0,0,
,-0.324,-0.571,0.729,-337.708,-16.175,57.678,0,0,0,
,-0.306,-0.533,0.718,-407.776,-5.31,75.012,0,0,0,
,-0.313,-0.519,0.768,-378.663,-1.77,62.377,0,0,0,
,-0.288,-0.488,0.796,-293.58,-8.789,64.636,0,0,0,
,-0.305,-0.523,0.814,-152.161,-24.231,60.363,0,0,0,
,-0.292,-0.533,0.833,-98.267,-32.593,60.485,0,0,0,
,-0.29,-0.609,0.797,-161.011,-7.569,55.542,0,0,0,
,-0.272,-0.665,0.752,-327.698,-26.001,71.228,0,0,0,
,-0.279,-0.597,0.76,-509.461,-51.148,71.044,0,0,0,
,-0.302,-0.484,0.83,-559.205,-60.059,63.598,0,0,0,
,-0.291,-0.415,0.886,-498.047,-59.815,67.504,0,0,0,
,-0.294,-0.371,0.891,-359.253,-52.674,72.815,0,0,0,
,-0.288,-0.41,0.841,-246.582,-39.063,59.997,0,0,0,
,-0.285,-0.465,0.768,-252.198,-31.373,62.377,0,0,0,
,-0.297,-0.569,0.708,-407.227,-2.869,74.768,0,0,0,
,-0.285,-0.485,0.755,-582.215,-26.001,84.35,0,0,0,
,-0.281,-0.372,0.876,-609.314,-23.316,75.561,0,0,0,
,-0.28,-0.292,0.948,-473.877,-7.447,59.387,0,0,0,
,-0.273,-0.294,0.939,-238.221,-0.489,28.625,0,0,0,
,-0.269,-0.481,0.89,-116.639,9.216,13.855,0,0,0,
,-0.251,-0.534,0.901,-162.781,-11.78,8.3,0,0,0,
,-0.262,-0.51,0.868,-341.614,-25.025,5.676,0,0,0,
,-0.282,-0.344,0.903,-410.401,-27.039,9.46,0,0,0,
,-0.28,-0.248,0.901,-319.947,-10.071,-2.503,0,0,0,
,-0.272,-0.25,0.957,-183.35,-8.179,-4.395,0,0,0,
,-0.25,-0.296,0.943,-87.098,-19.471,-1.404,0,0,0,
,-0.26,-0.337,0.924,-95.459,-40.345,3.356,0,0,0,
,-0.257,-0.303,0.893,-141.419,-53.711,18.981,0,0,0,
,-0.257,-0.257,0.925,-150.513,-58.228,16.296,0,0,0,
,-0.257,-0.26,0.968,-94.483,-39.307,18.005,0,0,0,
,-0.241,-0.269,0.975,-7.019,-45.289,11.291,0,0,0,
,-0.237,-0.277,0.957,51.94,-66.346,9.521,0,0,0,
,-0.26,-0.292,0.925,94.299,-71.534,6.347,0,0,0,
,-0.26,-0.318,0.926,108.886,-64.515,2.441,0,0,0,
,-0.257,-0.346,0.94,94.116,-53.406,1.586,0,0,0,
,-0.259,-0.353,1.002,101.745,-38.575,-2.564,0,0,0,
,-0.232,-0.381,1.012,132.69,-32.898,-14.344,0,0,0,
,-0.246,-0.415,1.012,152.832,-26.429,-31.189,0,0,0,
,-0.237,-0.409,0.982,160.339,-18.372,-47.608,0,0,0,
,-0.244,-0.414,0.951,121.46,-3.113,-61.89,0,0,0,
,-0.24,-0.41,0.932,99.731,64.941,-107.544,0,0,0,
,-0.222,-0.427,0.957,108.642,60.669,-118.226,0,0,0,
,-0.23,-0.412,0.971,95.275,61.401,-118.226,0,0,0,
,-0.216,-0.402,0.93,94.238,36.071,-120.972,0,0,0,
,-0.225,-0.362,0.919,105.529,13.427,-119.996,0,0,0,
,-0.228,-0.35,0.908,176.941,-2.93,-123.169,0,0,0,
,-0.24,-0.363,0.903,256.103,0.671,-127.076,0,0,0,
,-0.244,-0.394,0.903,316.345,7.446,-132.386,0,0,0,
,-0.251,-0.409,0.908,367.187,11.047,-131.348,0,0,0,
,-0.261,-0.471,0.878,354.492,22.949,-131.043,0,0,0,
,-0.261,-0.503,0.856,253.357,34.545,-124.329,0,0,0,
,-0.266,-0.49,0.864,19.836,28.808,-108.765,0,0,0,
,-0.275,-0.443,0.896,27.648,29.174,-121.46,0,0,0,
,-0.27,-0.398,0.902,115.966,15.991,-118.47,0,0,0,
,-0.289,-0.378,0.877,251.22,20.324,-122.498,0,0,0,
,-0.287,-0.428,0.878,356.628,37.292,-132.752,0,0,0,
,-0.281,-0.507,0.875,379.882,42.663,-140.32,0,0,0,
,-0.284,-0.509,0.865,352.05,42.785,-132.142,0,0,0,
,-0.296,-0.533,0.815,293.762,41.87,-129.212,0,0,0,
,-0.302,-0.537,0.753,186.218,37.963,-112.305,0,0,0,
,-0.307,-0.527,0.711,65.063,17.334,-96.314,0,0,0,
,-0.306,-0.5,0.725,-15.992,-14.161,-74.341,0,0,0,
,-0.308,-0.441,0.788,-4.273,-35.462,-69.886,0,0,0,
,-0.33,-0.448,0.826,115.478,-23.072,-82.581,0,0,0,
,-0.34,-0.56,0.805,249.145,-6.287,-88.623,0,0,0,
,-0.348,-0.597,0.823,172.546,20.629,-108.216,0,0,0,
,-0.337,-0.56,0.843,105.224,23.925,-116.089,0,0,0,
,-0.363,-0.504,0.849,103.21,22.094,-118.836,0,0,0,
,-0.37,-0.547,0.84,115.905,36.438,-131.165,0,0,0,
,-0.349,-0.496,0.856,95.275,40.344,-85.755,0,0,0,
,-0.336,-0.517,0.859,52.978,10.07,-70.008,0,0,0,
,-0.349,-0.495,0.87,36.193,6.713,-59.754,0,0,0,
,-0.343,-0.532,0.89,52.49,30.09,-47.486,0,0,0,
,-0.305,-0.529,0.864,62.194,36.621,-64.087,0,0,0,
,-0.32,-0.551,0.837,61.706,41.626,-70.13,0,0,0,
,-0.302,-0.512,0.807,65.185,119.812,-90.516,0,0,0,
,-0.307,-0.502,0.806,121.704,131.775,-99.854,0,0,0,
,-0.313,-0.569,0.805,119.567,154.724,-99.915,0,0,0,
,-0.283,-0.583,0.848,-68.177,86.669,-54.505,0,0,0,
,-0.295,-0.547,0.852,-53.162,68.42,-38.331,0,0,0,
,-0.27,-0.512,0.873,14.099,51.147,-23.804,0,0,0,
,-0.272,-0.608,0.836,55.114,70.19,-11.841,0,0,0,
,-0.239,-0.623,0.787,-18.616,44.372,-2.198,0,0,0,
,-0.229,-0.582,0.787,-177.613,13.366,12.695,0,0,0,
,-0.243,-0.532,0.807,-135.315,20.263,13.244,0,0,0,
,-0.228,-0.534,0.799,-113.099,33.142,18.005,0,0,0,
,-0.234,-0.525,0.833,-73.304,21.24,27.465,0,0,0,
,-0.228,-0.532,0.834,-50.721,18.432,34.118,0,0,0,
,-0.214,-0.62,0.8,-95.704,8.3,38.086,0,0,0,
,-0.222,-0.573,0.827,-163.331,-19.532,51.269,0,0,0,
,-0.216,-0.564,0.859,-174.195,-22.095,61.462,0,0,0,
,-0.223,-0.52,0.883,-137.94,-15.442,67.993,0,0,0,
,-0.205,-0.622,0.872,-108.094,-26.062,70.861,0,0,0,
,-0.194,-0.623,0.834,-158.509,-58.289,81.726,0,0,0,
,-0.16,-0.59,0.86,-390.015,-106.507,105.163,0,0,0,
,-0.164,-0.541,0.891,-319.519,-146.241,113.037,0,0,0,
,-0.196,-0.504,0.854,-228.821,-141.358,109.008,0,0,0,
,-0.195,-0.493,0.823,-150.269,-133.606,95.398,0,0,0,
,-0.205,-0.491,0.814,-70.74,-114.258,79.284,0,0,0,
,-0.213,-0.504,0.837,-13.306,-86.426,63.903,0,0,0,
,-0.209,-0.533,0.815,1.77,-74.769,61.157,0,0,0,
,-0.228,-0.545,0.834,-11.292,-67.749,49.56,0,0,0,
,-0.231,-0.543,0.875,-40.589,-56.946,44.738,0,0,0,
,-0.234,-0.539,0.893,-47.242,-46.326,33.386,0,0,0,
,-0.238,-0.563,0.892,-47.669,-42.969,25.634,0,0,0,
,-0.246,-0.513,0.898,-36.438,-45.594,18.737,0,0,0,
,-0.237,-0.536,0.854,-24.842,-31.373,14.892,0,0,0,
,-0.249,-0.533,0.874,-17.579,-25.696,4.943,0,0,0,
,-0.233,-0.511,0.865,-2.137,-20.752,0.427,0,0,0,
,-0.242,-0.501,0.865,9.765,-20.997,-0.184,0,0,0,
,-0.262,-0.523,0.852,15.869,-8.301,-10.01,0,0,0,
,-0.276,-0.506,0.835,13.305,-4.639,-8.057,0,0,0,
,-0.285,-0.494,0.827,21.179,-1.404,-8.545,0,0,0,
,-0.291,-0.479,0.834,32.47,-0.55,0.976,0,0,0,
,-0.306,-0.5,0.847,39.123,9.765,6.53,0,0,0,
,-0.292,-0.516,0.839,6.958,1.403,11.596,0,0,0,
,-0.318,-0.518,0.849,-4.334,-2.259,13.366,0,0,0,
,-0.315,-0.507,0.851,-23.072,-7.813,16.052,0,0,0,
,-0.334,-0.527,0.857,-47.669,9.46,12.146,0,0,0,
,-0.326,-0.533,0.854,-54.078,0.061,14.282,0,0,0,
,-0.341,-0.49,0.859,-45.472,-12.269,11.535,0,0,0,
,-0.344,-0.523,0.837,-52.491,2.624,8.789,0,0,0,
,-0.346,-0.499,0.824,-96.009,3.967,7.812,0,0,0,
,-0.347,-0.509,0.845,-118.348,10.62,5.981,0,0,0,
,-0.345,-0.478,0.853,-106.69,4.333,7.812,0,0,0,
,-0.345,-0.498,0.85,-88.013,5.798,-3.907,0,0,0,
,-0.333,-0.476,0.83,-71.839,4.394,9.826,0,0,0,
,-0.332,-0.485,0.833,-89.356,-13.306,13.427,0,0,0,
,-0.335,-0.496,0.833,-158.143,-14.466,12.939,0,0,0,
,-0.333,-0.458,0.812,-203.675,-25.574,18.127,0,0,0,
,-0.345,-0.43,0.802,-211.304,-16.663,16.723,0,0,0,
,-0.338,-0.448,0.776,-226.38,-17.334,25.695,0,0,0,
,-0.353,-0.43,0.789,-232.605,-23.011,32.226,0,0,0,
,-0.331,-0.44,0.81,-235.84,-31.8,42.602,0,0,0,
,-0.34,-0.478,0.823,-283.692,-46.692,45.166,0,0,0,
,-0.351,-0.374,0.859,-241.272,-41.504,37.048,0,0,0,
,-0.341,-0.403,0.865,-175.171,-35.462,32.348,0,0,0,
,-0.343,-0.441,0.889,-137.452,-34.119,26.245,0,0,0,
,-0.337,-0.429,0.904,-132.569,-30.091,16.601,0,0,0,
,-0.325,-0.496,0.859,-138.55,-26.123,9.216,0,0,0,
,-0.331,-0.456,0.846,-190.186,-27.649,8.239,0,0,0,
,-0.335,-0.388,0.859,-196.717,-23.56,0.549,0,0,0,
,-0.328,-0.362,0.883,-153.687,-15.748,-3.846,0,0,0,
,-0.335,-0.362,0.892,-79.895,-11.902,-14.039,0,0,0,
,-0.331,-0.377,0.895,-41.016,-14.405,-16.053,0,0,0,
,-0.322,-0.379,0.896,-29.541,-20.691,-8.789,0,0,0,
,-0.318,-0.421,0.888,-64.087,-24.109,-3.357,0,0,0,
,-0.327,-0.396,0.9,-98.572,-21.973,4.333,0,0,0,
,-0.311,-0.364,0.911,-76.233,-16.175,1.953,0,0,0,
,-0.295,-0.362,0.915,-21.973,-20.874,4.882,0,0,0,
,-0.301,-0.396,0.931,51.086,-22.706,-2.93,0,0,0,
,-0.284,-0.413,0.893,70.678,-25.879,-2.686,0,0,0,
,-0.295,-0.44,0.867,37.048,-27.588,-3.479,0,0,0,
,-0.298,-0.438,0.882,12.695,-1.038,-2.564,0,0,0,
,-0.265,-0.435,0.904,-23.072,-18.25,-6.165,0,0,0,
,-0.27,-0.415,0.902,-19.593,-22.217,-7.752,0,0,0,
,-0.262,-0.443,0.908,35.278,-18.494,-20.935,0,0,0,
,-0.267,-0.455,0.887,62.683,-17.762,-30.518,0,0,0,
,-0.261,-0.464,0.864,68.115,-7.935,-47.547,0,0,0,
,-0.257,-0.457,0.884,71.533,15.075,-59.937,0,0,0,
,-0.246,-0.487,0.891,91.308,23.986,-77.454,0,0,0,
,-0.233,-0.496,0.911,88.378,21.301,-94.239,0,0,0,
,-0.246,-0.478,0.921,105.041,33.325,-110.84,0,0,0,
,-0.251,-0.462,0.908,134.582,41.076,-129.09,0,0,0,
,-0.258,-0.457,0.902,178.161,56.823,-141.175,0,0,0,
,-0.251,-0.484,0.892,192.993,70.495,-153.016,0,0,0,
,-0.249,-0.494,0.908,151.306,80.81,-158.265,0,0,0,
,-0.248,-0.477,0.903,137.817,75.622,-158.814,0,0,0,
,-0.253,-0.494,0.937,126.648,75.012,-158.57,0,0,0,
,-0.253,-0.481,0.888,101.562,73.425,-157.959,0,0,0,
,-0.258,-0.483,0.882,106.323,78.491,-164.307,0,0,0,
,-0.252,-0.476,0.891,119.567,78.979,-166.26,0,0,0,
,-0.254,-0.505,0.871,95.336,85.022,-169.068,0,0,0,
,-0.271,-0.535,0.87,59.509,95.398,-177.857,0,0,0,
,-0.258,-0.534,0.854,8.606,94.848,-177.918,0,0,0,
,-0.273,-0.5,0.873,-31.067,89.66,-183.35,0,0,0,
,-0.269,-0.495,0.831,-49.378,94.97,-188.538,0,0,0,
,-0.271,-0.445,0.84,-41.993,66.589,-183.289,0,0,0,
,-0.267,-0.409,0.847,-0.794,42.053,-177.918,0,0,0,
,-0.287,-0.411,0.849,45.044,51.391,-175.782,0,0,0,
,-0.283,-0.432,0.865,101.013,55.114,-172.364,0,0,0,
,-0.265,-0.454,0.873,97.839,42.48,-166.138,0,0,0,
,-0.276,-0.409,0.882,97.9,27.526,-152.588,0,0,0,
,-0.284,-0.429,0.857,131.408,27.71,-151.856,0,0,0,
,-0.292,-0.449,0.852,147.522,28.686,-144.104,0,0,0,
,-0.298,-0.432,0.844,160.583,25.451,-142.945,0,0,0,
,-0.315,-0.446,0.846,185.363,36.499,-136.902,0,0,0,
,-0.311,-0.434,0.841,208.74,39.428,-131.897,0,0,0,
,-0.322,-0.458,0.812,210.693,29.052,-125.733,0,0,0,
,-0.348,-0.443,0.801,206.604,26.184,-118.836,0,0,0,
,-0.362,-0.425,0.822,210.815,41.809,-108.887,0,0,0,
,-0.362,-0.457,0.815,228.393,38.94,-99.793,0,0,0,
,-0.373,-0.462,0.839,241.76,28.686,-86.121,0,0,0,
,-0.375,-0.496,0.825,188.171,24.047,-73.06,0,0,0,
,-0.381,-0.477,0.837,177.49,17.028,-47.913,0,0,0,
,-0.383,-0.469,0.853,173.462,20.385,-55.909,0,0,0,
,-0.371,-0.489,0.859,160.156,15.258,-39.124,0,0,0,
,-0.367,-0.497,0.867,180.908,14.404,-36.499,0,0,0,
,-0.36,-0.483,0.846,230.102,10.559,-33.143,0,0,0,
,-0.35,-0.499,0.812,259.033,8.789,-23.499,0,0,0,
,-0.362,-0.504,0.785,243.408,12.817,-11.048,0,0,0,
,-0.349,-0.526,0.783,214.66,27.404,-6.958,0,0,0,
,-0.351,-0.503,0.791,193.176,23.864,11.169,0,0,0,
,-0.333,-0.476,0.78,249.023,18.981,26.977,0,0,0,
,-0.347,-0.549,0.779,314.697,26.367,35.4,0,0,0,
,-0.325,-0.581,0.783,336.67,17.883,59.387,0,0,0,
,-0.324,-0.669,0.838,262.695,2.746,50.354,0,0,0,
,-0.298,-0.717,0.85,164.55,1.525,51.818,0,0,0,
,-0.278,-0.738,0.829,77.575,-15.992,41.198,0,0,0,
,-0.292,-0.737,0.778,20.08,-12.513,21.484,0,0,0,
,-0.267,-0.703,0.73,0,-19.837,19.592,0,0,0,
,-0.292,-0.679,0.709,-19.288,-8.728,4.943,0,0,0,
,-0.29,-0.624,0.719,-34.424,-4.7,7.507,0,0,0,
,-0.276,-0.605,0.759,7.08,12.756,19.531,0,0,0,
,-0.268,-0.612,0.73,51.513,16.723,26.184,0,0,0,
,-0.261,-0.614,0.71,122.07,18.615,32.47,0,0,0,
,-0.254,-0.678,0.686,134.704,11.169,40.527,0,0,0,
,-0.248,-0.688,0.704,140.258,-7.996,56.701,0,0,0,
,-0.255,-0.668,0.739,138.122,-18.738,65.063,0,0,0,
,-0.26,-0.685,0.708,111.267,-12.391,56.274,0,0,0,
,-0.257,-0.665,0.74,106.872,-22.4,64.88,0,0,0,
,-0.243,-0.734,0.752,78.308,-23.133,59.814,0,0,0,
,-0.243,-0.768,0.743,19.043,-41.26,59.57,0,0,0,
,-0.248,-0.787,0.722,-91.187,-60.12,43.884,0,0,0,
,-0.257,-0.764,0.711,-155.762,-69.458,30.7,0,0,0,
,-0.255,-0.718,0.71,-209.412,-74.463,19.836,0,0,0,
,-0.255,-0.664,0.71,-227.967,-75.318,19.775,0,0,0,
,-0.249,-0.688,0.7,-238.709,-75.074,25.512,0,0,0,
,-0.261,-0.634,0.73,-200.135,-72.937,35.339,0,0,0,
,-0.235,-0.697,0.723,-160.401,-78.431,31.311,0,0,0,
,-0.24,-0.715,0.705,-181.458,-68.97,24.353,0,0,0,
,-0.222,-0.726,0.728,-248.291,-69.886,19.653,0,0,0,
,-0.231,-0.671,0.757,-264.466,-66.834,6.347,0,0,0,
,-0.232,-0.653,0.77,-220.154,-54.993,5.249,0,0,0,
,-0.238,-0.647,0.752,-157.471,-56.153,8.117,0,0,0,
,-0.226,-0.635,0.762,-150.696,-49.317,10.742,0,0,0,
,-0.228,-0.669,0.749,-180.542,-53.467,10.559,0,0,0,
,-0.223,-0.651,0.774,-256.287,-66.834,7.324,0,0,0,
,-0.25,-0.629,0.804,-288.147,-73.121,4.15,0,0,0,
,-0.249,-0.596,0.802,-257.325,-62.439,8.728,0,0,0,
,-0.251,-0.596,0.803,-243.042,-50.538,10.559,0,0,0,
,-0.251,-0.61,0.8,-245.911,-44.861,12.207,0,0,0,
,-0.254,-0.59,0.802,-237.122,-45.166,17.578,0,0,0,
,-0.254,-0.569,0.8,-198.121,-47.486,18.615,0,0,0,
,-0.264,-0.578,0.801,-170.472,-46.082,12.207,0,0,0,
,-0.274,-0.581,0.806,-91.492,-26.612,1.525,0,0,0,
,-0.276,-0.578,0.786,-59.876,-17.579,-0.184,0,0,0,
,-0.28,-0.564,0.771,-19.349,-11.353,-4.822,0,0,0,
,-0.285,-0.571,0.763,5.065,0.793,-13.428,0,0,0,
,-0.274,-0.589,0.758,18.676,6.774,-8.912,0,0,0,
,-0.271,-0.589,0.778,16.113,5.127,-2.076,0,0,0,
,-0.288,-0.588,0.802,10.559,2.136,-0.916,0,0,0,
,-0.289,-0.582,0.806,75.805,-1.038,3.906,0,0,0,
,-0.31,-0.597,0.821,116.577,5.188,1.648,0,0,0,
,-0.289,-0.62,0.799,92.59,3.234,13.977,0,0,0,
,-0.3,-0.642,0.793,27.282,-7.569,15.564,0,0,0,
,-0.314,-0.61,0.779,-58.655,-24.659,12.756,0,0,0,
,-0.33,-0.591,0.785,-107.911,-35.157,12.634,0,0,0,
,-0.336,-0.563,0.793,-132.752,-36.56,13.855,0,0,0,
,-0.334,-0.558,0.808,-119.69,-29.541,16.113,0,0,0,
,-0.334,-0.542,0.815,-95.032,-38.269,24.169,0,0,0,
,-0.349,-0.579,0.803,-61.28,-30.335,18.554,0,0,0,
,-0.337,-0.582,0.783,-74.341,-37.476,20.263,0,0,0,
,-0.347,-0.607,0.759,-135.315,-38.208,18.676,0,0,0,
,-0.347,-0.571,0.779,-212.769,-43.396,16.967,0,0,0,
,-0.343,-0.537,0.793,-237.854,-48.218,12.023,0,0,0,
,-0.366,-0.534,0.791,-227.417,-49.317,10.986,0,0,0,
,-0.372,-0.487,0.788,-206.421,-45.655,14.282,0,0,0,
,-0.386,-0.509,0.774,-189.27,-28.321,13.244,0,0,0,
,-0.386,-0.472,0.782,-190.491,-23.377,14.648,0,0,0,
,-0.39,-0.508,0.764,-200.989,-16.053,9.338,0,0,0,
,-0.381,-0.469,0.792,-230.896,-35.767,17.517,0,0,0,
,-0.396,-0.474,0.814,-207.581,-28.138,18.31,0,0,0,
,-0.38,-0.466,0.822,-168.274,-27.1,21.545,0,0,0,
,-0.385,-0.503,0.832,-142.945,-24.659,12.756,0,0,0,
,-0.374,-0.521,0.818,-133.545,-22.4,5.31,0,0,0,
,-0.365,-0.519,0.825,-148.743,-23.743,3.54,0,0,0,
,-0.361,-0.495,0.803,-172.303,-30.274,-1.282,0,0,0,
,-0.356,-0.509,0.778,-216.004,-31.678,-5.494,0,0,0,
,-0.372,-0.448,0.806,-230.408,-20.508,-8.789,0,0,0,
,-0.376,-0.39,0.837,-159.363,-3.052,-13.855,0,0,0,
,-0.371,-0.391,0.847,-56.824,4.699,-9.339,0,0,0,
,-0.374,-0.406,0.841,37.292,12.085,-14.832,0,0,0,
,-0.374,-0.453,0.818,52.978,36.987,-11.048,0,0,0,
,-0.337,-0.511,0.809,10.803,25.024,-12.452,0,0,0,
,-0.344,-0.482,0.843,-21.546,1.281,-0.184,0,0,0,
,-0.32,-0.467,0.873,22.338,-26.917,20.507,0,0,0,
,-0.31,-0.481,0.865,82.763,-30.457,24.841,0,0,0,
,-0.295,-0.546,0.832,101.623,-28.931,24.414,0,0,0,
,-0.298,-0.579,0.838,68.176,-22.217,13.794,0,0,0,
,-0.286,-0.553,0.794,4.394,-31.25,13.549,0,0,0,
,-0.309,-0.542,0.766,-11.902,-23.438,3.234,0,0,0,
,-0.308,-0.499,0.777,32.714,-11.475,-5.433,0,0,0,
,-0.279,-0.512,0.841,55.175,-2.381,-6.775,0,0,0,
,-0.273,-0.576,0.863,71.106,4.333,-16.358,0,0,0,
,-0.254,-0.617,0.896,55.542,6.652,-26.429,0,0,0,
,-0.24,-0.651,0.895,47.363,2.807,-38.941,0,0,0,
,-0.258,-0.639,0.875,37.292,8.056,-63.66,0,0,0,
,-0.249,-0.591,0.842,35.4,20.141,-81.238,0,0,0,
,-0.242,-0.583,0.819,40.649,44.128,-99.976,0,0,0,
,-0.236,-0.571,0.8,52.917,62.622,-117.981,0,0,0,
,-0.241,-0.559,0.799,85.327,76.232,-135.498,0,0,0,
,-0.245,-0.558,0.814,129.272,87.89,-151.917,0,0,0,
,-0.244,-0.575,0.818,146.179,95.886,-158.265,0,0,0,
,-0.25,-0.59,0.827,118.957,99.914,-168.702,0,0,0,
,-0.25,-0.582,0.838,97.473,96.801,-174.439,0,0,0,
,-0.255,-0.556,0.816,100.647,93.933,-179.017,0,0,0,
,-0.268,-0.565,0.807,120.605,95.581,-174.866,0,0,0,
,-0.279,-0.555,0.795,153.198,90.21,-179.627,0,0,0,
,-0.294,-0.592,0.788,185.791,107.177,-193.36,0,0,0,
,-0.291,-0.601,0.808,166.504,121.521,-198.243,0,0,0,
,-0.282,-0.601,0.825,131.958,122.558,-208.68,0,0,0,
,-0.288,-0.589,0.835,108.032,117.309,-212.708,0,0,0,
,-0.3,-0.549,0.813,116.15,109.069,-213.318,0,0,0,
,-0.303,-0.546,0.773,126.159,115.783,-217.041,0,0,0,
,-0.306,-0.51,0.765,151.428,140.808,-214.173,0,0,0,
,-0.311,-0.482,0.75,186.645,129.699,-205.262,0,0,0,
,-0.322,-0.484,0.747,218.383,117.309,-191.712,0,0,0,
,-0.337,-0.501,0.76,222.961,113.83,-171.143,0,0,0,
,-0.342,-0.514,0.806,208.74,107.299,-154.725,0,0,0,
,-0.346,-0.527,0.846,191.101,98.205,-139.588,0,0,0,
,-0.348,-0.554,0.849,163.452,66.589,-124.817,0,0,0,
,-0.368,-0.547,0.828,134.338,44.982,-108.033,0,0,0,
,-0.379,-0.547,0.796,107.422,28.564,-87.281,0,0,0,
,-0.374,-0.528,0.814,84.228,25.146,-72.51,0,0,0,
,-0.375,-0.513,0.827,87.097,29.052,-61.158,0,0,0,
,-0.369,-0.539,0.83,130.798,28.869,-55.42,0,0,0,
,-0.358,-0.575,0.82,140.136,31.005,-37.354,0,0,0,
,-0.362,-0.605,0.82,106.445,35.888,-29.114,0,0,0,
,-0.344,-0.637,0.817,84.35,34.545,-28.504,0,0,0,
,-0.346,-0.614,0.833,57.678,23.254,-36.499,0,0,0,
,-0.345,-0.576,0.81,73.608,22.949,-40.833,0,0,0,
,-0.357,-0.559,0.787,100.891,32.348,-27.771,0,0,0,
,-0.348,-0.524,0.763,147.155,37.902,-11.048,0,0,0,
,-0.32,-0.587,0.762,160.522,42.541,1.648,0,0,0,
,-0.299,-0.642,0.769,145.935,38.452,10.131,0,0,0,
,-0.28,-0.701,0.741,62.622,32.409,18.493,0,0,0,
,-0.287,-0.662,0.739,8.667,19.775,16.418,0,0,0,
,-0.286,-0.616,0.743,14.648,12.817,30.639,0,0,0,
,-0.27,-0.615,0.751,52.429,11.779,44.25,0,0,0,
,-0.269,-0.648,0.733,55.114,9.582,62.316,0,0,0,
,-0.241,-0.663,0.727,40.405,-2.259,75.317,0,0,0,
,-0.247,-0.689,0.722,8.911,-18.006,75.866,0,0,0,
,-0.225,-0.711,0.737,-57.862,-31.495,79.65,0,0,0,
,-0.232,-0.703,0.736,-113.892,-43.457,82.458,0,0,0,
,-0.211,-0.699,0.753,-111.329,-59.266,87.219,0,0,0,
,-0.221,-0.7,0.747,-104.248,-59.876,85.327,0,0,0,
,-0.206,-0.712,0.752,-109.253,-61.341,85.083,0,0,0,
,-0.203,-0.734,0.712,-144.654,-52.857,75.988,0,0,0,
,-0.179,-0.722,0.712,-208.313,-72.998,71.106,0,0,0,
,-0.197,-0.717,0.735,-234.436,-80.506,55.297,0,0,0,
,-0.19,-0.709,0.752,-236.634,-76.661,49.255,0,0,0,
,-0.191,-0.675,0.761,-224.122,-67.261,42.175,0,0,0,
,-0.187,-0.706,0.753,-229.676,-60.914,32.226,0,0,0,
,-0.18,-0.676,0.748,-231.629,-72.388,30.456,0,0,0,
,-0.186,-0.67,0.761,-246.705,-80.018,28.503,0,0,0,
,-0.195,-0.603,0.766,-227.784,-83.191,28.869,0,0,0,
,-0.212,-0.614,0.758,-189.637,-80.323,24.597,0,0,0,
,-0.226,-0.6,0.754,-196.167,-80.445,27.893,0,0,0,
,-0.238,-0.579,0.77,-174.134,-79.041,27.954,0,0,0,
,-0.234,-0.608,0.768,-175.538,-73.182,32.836,0,0,0,
,-0.234,-0.617,0.798,-192.627,-76.6,29.968,0,0,0,
,-0.234,-0.614,0.819,-181.885,-85.083,28.503,0,0,0,
,-0.259,-0.631,0.814,-172.425,-83.619,26.733,0,0,0,
,-0.262,-0.595,0.819,-148.255,-75.196,26.001,0,0,0,
,-0.264,-0.585,0.819,-92.774,-67.139,27.343,0,0,0,
,-0.277,-0.567,0.801,-21.18,-57.312,27.343,0,0,0,
,-0.283,-0.593,0.777,0.366,-48.951,28.686,0,0,0,
,-0.293,-0.573,0.785,41.809,-45.411,27.648,0,0,0,
,-0.273,-0.633,0.775,13.916,-26.551,27.526,0,0,0,
,-0.289,-0.648,0.781,-60.547,-40.528,28.747,0,0,0,
,-0.296,-0.644,0.812,-126.465,-47.852,19.409,0,0,0,
,-0.317,-0.594,0.823,-159.729,-45.227,17.822,0,0,0,
,-0.312,-0.591,0.81,-168.335,-41.443,13.916,0,0,0,
,-0.312,-0.576,0.814,-162.598,-27.832,15.93,0,0,0,
,-0.322,-0.587,0.804,-177.735,-26.185,17.883,0,0,0,
,-0.377,-0.509,0.803,-154.664,-20.874,9.338,0,0,0,
,-0.365,-0.513,0.781,-156.25,-12.574,9.887,0,0,0,
,-0.371,-0.521,0.791,-181.763,-18.25,21.118,0,0,0,
,-0.394,-0.52,0.8,-215.394,-16.785,31.005,0,0,0,
,-0.395,-0.508,0.808,-236.39,-15.564,14.16,0,0,0,
,-0.401,-0.468,0.809,-248.963,-19.776,25.268,0,0,0,
,-0.392,-0.469,0.801,-227.906,-31.983,32.531,0,0,0,
,-0.414,-0.456,0.797,-205.506,-39.856,36.132,0,0,0,
,-0.411,-0.407,0.784,-190.552,-42.786,37.963,0,0,0,
,-0.417,-0.434,0.766,-199.83,-33.631,38.269,0,0,0,
,-0.412,-0.464,0.789,-228.333,-22.278,39.306,0,0,0,
,-0.385,-0.505,0.815,-144.165,-39.734,28.137,0,0,0,
,-0.389,-0.546,0.814,-143.311,-32.776,8.056,0,0,0,
,-0.379,-0.506,0.812,-186.341,-26.123,-9.156,0,0,0,
,-0.376,-0.51,0.798,-198.914,-15.015,-24.292,0,0,0,
,-0.373,-0.473,0.799,-210.694,-6.226,-35.767,0,0,0,
,-0.384,-0.442,0.81,-181.519,1.037,-51.697,0,0,0,
,-0.376,-0.436,0.849,-167.908,7.385,-49.134,0,0,0,
,-0.358,-0.516,0.87,-176.514,11.108,-49.378,0,0,0,
,-0.364,-0.428,0.9,-202.393,-18.006,-54.566,0,0,0,
,-0.373,-0.372,0.87,-163.147,-1.587,-54.505,0,0,0,
,-0.361,-0.403,0.814,-139.527,8.972,-63.233,0,0,0,
,-0.368,-0.37,0.832,-133.667,9.948,-57.984,0,0,0,
,-0.375,-0.338,0.854,-75.257,18.249,-58.045,0,0,0,
,-0.366,-0.349,0.878,-24.353,15.075,-47.303,0,0,0,
,-0.342,-0.372,0.908,25.268,0.732,-31.128,0,0,0,
,-0.359,-0.415,0.92,29.541,-3.907,-17.395,0,0,0,
,-0.345,-0.47,0.917,22.522,-1.404,-18.067,0,0,0,
,-0.321,-0.424,0.867,52.124,15.625,-51.575,0,0,0,
,-0.327,-0.484,0.815,78.186,47.546,-67.872,0,0,0,
,-0.329,-0.465,0.807,72.753,45.898,-77.271,0,0,0,
,-0.33,-0.442,0.85,59.57,76.477,-91.309,0,0,0,
,-0.327,-0.454,0.908,90.759,96.862,-99.427,0,0,0,
,-0.283,-0.504,0.946,104.309,103.515,-97.901,0,0,0,
,-0.264,-0.5,0.932,78.369,79.162,-93.445,0,0,0,
,-0.272,-0.502,0.906,52.673,67.565,-102.662,0,0,0,
,-0.244,-0.41,0.889,54.687,64.88,-100.708,0,0,0,
,-0.231,-0.435,0.878,98.571,80.566,-111.329,0,0,0,
,-0.208,-0.45,0.878,170.166,70.312,-120.667,0,0,0,
,-0.214,-0.432,0.87,214.233,51.208,-115.54,0,0,0,
,-0.229,-0.451,0.84,255.249,46.386,-115.601,0,0,0,
,-0.234,-0.461,0.822,271.85,53.283,-110.779,0,0,0,
,-0.236,-0.497,0.85,280.944,75.866,-113.099,0,0,0,
,-0.222,-0.533,0.87,278.625,81.42,-120.301,0,0,0,
,-0.233,-0.542,0.85,206.604,113.952,-128.846,0,0,0,
,-0.211,-0.552,0.823,122.863,122.68,-136.353,0,0,0,
,-0.202,-0.543,0.845,44.189,99.548,-133.973,0,0,0,
,-0.191,-0.53,0.908,27.343,82.275,-132.935,0,0,0,
,-0.205,-0.516,0.915,5.127,57.373,-132.813,0,0,0,
,-0.205,-0.44,0.904,40.832,46.569,-144.288,0,0,0,
,-0.237,-0.46,0.882,130.066,69.458,-142.518,0,0,0,
,-0.229,-0.461,0.87,225.463,69.824,-139.893,0,0,0,
,-0.232,-0.497,0.878,285.156,67.382,-132.447,0,0,0,
,-0.268,-0.511,0.83,314.758,61.767,-97.229,0,0,0,
,-0.263,-0.542,0.833,302.795,77.819,-96.375,0,0,0,
,-0.252,-0.595,0.844,229.187,80.078,-83.13,0,0,0,
,-0.246,-0.614,0.85,179.26,61.523,-78.186,0,0,0,
,-0.258,-0.621,0.834,142.089,37.231,-70.74,0,0,0,
,-0.252,-0.614,0.829,64.514,26.794,-69.031,0,0,0,
,-0.265,-0.58,0.843,44.006,15.625,-47.364,0,0,0,
,-0.26,-0.59,0.856,18.371,21.667,-67.994,0,0,0,
,-0.253,-0.58,0.84,-17.579,13,-61.524,0,0,0,
,-0.263,-0.563,0.827,-68.116,6.042,-52.796,0,0,0,
,-0.273,-0.569,0.819,-126.831,4.638,-41.687,0,0,0,
,-0.274,-0.532,0.815,-167.847,-14.283,-25.757,0,0,0,
,-0.294,-0.509,0.818,-167.664,-16.602,-11.048,0,0,0,
,-0.289,-0.512,0.84,-158.875,-24.17,4.699,0,0,0,
,-0.301,-0.515,0.858,-126.343,-24.353,11.901,0,0,0,
,-0.285,-0.554,0.837,-128.174,-31.8,21.789,0,0,0,
,-0.3,-0.566,0.845,-144.288,-39.368,26.123,0,0,0,
,-0.293,-0.577,0.805,-193.36,-41.504,25.024,0,0,0,
,-0.307,-0.549,0.82,-249.39,-45.105,34.79,0,0,0,
,-0.309,-0.527,0.829,-249.634,-29.847,31.616,0,0,0,
,-0.304,-0.516,0.846,-223.755,-25.208,29.174,0,0,0,
,-0.322,-0.532,0.858,-182.618,-2.808,16.601,0,0,0,
,-0.313,-0.523,0.847,-161.194,-2.747,17.639,0,0,0,
,-0.322,-0.55,0.847,-167.298,9.155,-0.367,0,0,0,
,-0.313,-0.522,0.832,-200.44,24.169,-4.151,0,0,0,
,-0.324,-0.524,0.848,-212.464,38.574,-11.231,0,0,0,
,-0.333,-0.515,0.857,-233.46,59.326,-9.522,0,0,0,
,-0.331,-0.532,0.85,-225.22,73.73,-21.668,0,0,0,
,-0.322,-0.516,0.834,-235.962,72.509,-26.185,0,0,0,
,-0.305,-0.483,0.808,-206.177,63.049,-38.147,0,0,0,
,-0.305,-0.463,0.817,-153.626,46.203,-45.594,0,0,0,
,-0.297,-0.438,0.84,-103.272,40.222,-36.805,0,0,0,
,-0.307,-0.462,0.824,-65.308,32.409,-50.354,0,0,0,
,-0.322,-0.486,0.792,-35.706,29.174,-65.735,0,0,0,
,-0.333,-0.413,0.794,11.596,25.756,-64.576,0,0,0,
,-0.351,-0.396,0.796,80.505,36.987,-86.182,0,0,0,
,-0.341,-0.421,0.798,171.203,39.489,-93.323,0,0,0,
,-0.355,-0.444,0.788,208.618,32.409,-100.892,0,0,0,
,-0.361,-0.484,0.768,198.913,23.742,-90.516,0,0,0,
,-0.363,-0.467,0.783,166.076,6.652,-79.346,0,0,0,
,-0.384,-0.457,0.804,169.128,14.099,-82.337,0,0,0,
,-0.37,-0.445,0.837,225.402,12.207,-93.14,0,0,0,
,-0.38,-0.425,0.833,329.162,-1.038,-96.497,0,0,0,
,-0.381,-0.492,0.818,404.602,14.282,-107.789,0,0,0,
,-0.356,-0.537,0.801,417.785,23.62,-111.145,0,0,0,
,-0.343,-0.573,0.792,389.099,25.878,-107.056,0,0,0,
,-0.337,-0.582,0.754,326.172,25.756,-108.887,0,0,0,
,-0.335,-0.586,0.739,258.3,13.183,-114.624,0,0,0,
,-0.352,-0.533,0.731,224.426,14.221,-103.394,0,0,0,
,-0.36,-0.503,0.747,240.051,18.188,-99.549,0,0,0,
,-0.353,-0.47,0.775,291.259,22.461,-90.577,0,0,0,
,-0.357,-0.461,0.771,368.652,25.146,-70.801,0,0,0,
,-0.336,-0.554,0.754,403.564,35.705,-57.068,0,0,0,
,-0.33,-0.645,0.732,349.365,36.438,-32.105,0,0,0,
,-0.33,-0.67,0.707,220.276,40.527,-11.719,0,0,0,
,-0.32,-0.664,0.702,90.698,18.493,-4.456,0,0,0,
,-0.331,-0.536,0.748,58.41,-6.47,2.929,0,0,0,
,-0.337,-0.55,0.782,122.253,3.051,-10.926,0,0,0,
,-0.337,-0.579,0.802,203.43,28.869,-3.724,0,0,0,
,-0.304,-0.684,0.812,235.29,30.273,6.408,0,0,0,
,-0.274,-0.748,0.802,202.453,20.629,4.638,0,0,0,
,-0.273,-0.801,0.783,105.224,20.996,1.953,0,0,0,
,-0.263,-0.764,0.769,13,11.474,-5.127,0,0,0,
,-0.266,-0.697,0.756,-11.048,2.38,1.953,0,0,0,
,-0.271,-0.672,0.745,-43.58,-0.245,-11.475,0,0,0,
,-0.266,-0.631,0.741,-27.1,-4.944,-9.522,0,0,0,
,-0.245,-0.661,0.742,-52.247,-15.931,16.296,0,0,0,
,-0.218,-0.701,0.748,-89.173,-46.143,34.118,0,0,0,
,-0.221,-0.734,0.778,-153.687,-63.477,29.235,0,0,0,
,-0.208,-0.679,0.794,-191.59,-87.22,34.118,0,0,0,
,-0.228,-0.71,0.772,-180.909,-81.788,14.831,0,0,0,
,-0.227,-0.716,0.759,-250.061,-89.539,21.728,0,0,0,
,-0.241,-0.635,0.796,-254.151,-98.389,35.949,0,0,0,
,-0.245,-0.618,0.79,-210.999,-80.628,35.644,0,0,0,
,-0.238,-0.669,0.753,-220.276,-82.276,36.743,0,0,0,
,-0.245,-0.652,0.75,-243.775,-98.145,39.978,0,0,0,
,-0.261,-0.636,0.787,-287.11,-100.037,48.095,0,0,0,
,-0.268,-0.614,0.798,-294.251,-92.713,61.584,0,0,0,
,-0.262,-0.649,0.82,-337.22,-89.234,65.429,0,0,0,
,-0.273,-0.613,0.827,-363.526,-78.125,64.209,0,0,0,
,-0.273,-0.619,0.852,-382.142,-74.28,68.481,0,0,0,
,-0.27,-0.587,0.854,-362.244,-72.266,68.481,0,0,0,
,-0.28,-0.588,0.86,-345.643,-73.792,74.89,0,0,0,
,-0.283,-0.561,0.838,-330.872,-67.505,81.237,0,0,0,
,-0.289,-0.587,0.814,-348.694,-62.989,81.481,0,0,0,
,-0.286,-0.558,0.81,-370.606,-59.082,82.214,0,0,0,
,-0.296,-0.501,0.826,-374.695,-58.655,87.219,0,0,0,
,-0.311,-0.516,0.843,-385.437,-39.246,83.801,0,0,0,
,-0.308,-0.472,0.829,-379.7,-28.748,85.205,0,0,0,
,-0.322,-0.495,0.812,-334.412,-36.072,71.228,0,0,0,
,-0.331,-0.465,0.782,-320.618,-30.762,81.115,0,0,0,
,-0.334,-0.458,0.765,-340.943,-28.443,83.74,0,0,0,
,-0.347,-0.424,0.783,-343.323,-22.034,85.754,0,0,0,
,-0.36,-0.409,0.821,-300.293,-18.86,85.388,0,0,0,
,-0.373,-0.434,0.853,-250.061,-1.709,76.11,0,0,0,
,-0.36,-0.449,0.875,-198.67,7.324,67.077,0,0,0,
,-0.356,-0.491,0.881,-175.477,17.028,53.649,0,0,0,
,-0.349,-0.495,0.868,-154.786,5.798,47.241,0,0,0,
,-0.345,-0.441,0.85,-117.676,10.742,38.208,0,0,0,
,-0.341,-0.456,0.826,-73.548,28.32,25.695,0,0,0,
,-0.332,-0.384,0.845,-27.527,23.803,22.583,0,0,0,
,-0.33,-0.378,0.839,43.212,35.156,10.559,0,0,0,
,-0.341,-0.414,0.818,113.891,35.705,11.962,0,0,0,
,-0.342,-0.444,0.832,114.318,19.47,23.132,0,0,0,
,-0.346,-0.458,0.851,96.374,4.455,33.63,0,0,0,
,-0.324,-0.447,0.859,75.866,-7.325,38.818,0,0,0,
,-0.324,-0.443,0.859,121.765,-18.982,35.4,0,0,0,
,-0.321,-0.435,0.834,207.519,-15.198,29.113,0,0,0,
,-0.294,-0.471,0.851,279.846,3.967,25.146,0,0,0,
,-0.27,-0.548,0.865,318.481,24.169,18.737,0,0,0,
,-0.246,-0.659,0.827,242.126,14.648,8.117,0,0,0,
,-0.241,-0.634,0.809,133.056,2.258,-4.395,0,0,0,
,-0.256,-0.559,0.792,98.755,7.568,-30.274,0,0,0,
,-0.258,-0.534,0.777,119.506,34.729,-47.669,0,0,0,
,-0.257,-0.544,0.778,125.915,58.96,-67.566,0,0,0,
,-0.268,-0.579,0.796,122.924,76.965,-84.412,0,0,0,
,-0.25,-0.562,0.821,97.412,74.34,-84.595,0,0,0,
,-0.251,-0.596,0.847,66.711,60.791,-86.914,0,0,0,
,-0.262,-0.58,0.886,40.039,50.842,-88.929,0,0,0,
,-0.254,-0.54,0.874,48.095,40.893,-90.332,0,0,0,
,-0.266,-0.536,0.842,85.815,43.823,-95.459,0,0,0,
,-0.262,-0.518,0.821,140.991,45.532,-96.009,0,0,0,
,-0.257,-0.523,0.799,205.627,50.476,-86.182,0,0,0,
,-0.244,-0.529,0.777,235.534,55.664,-88.929,0,0,0,
,-0.219,-0.565,0.802,232.971,64.88,-87.281,0,0,0,
,-0.211,-0.597,0.865,208.007,67.871,-88.501,0,0,0,
,-0.176,-0.734,0.818,78.918,65.368,-115.967,0,0,0,
,-0.201,-0.646,0.864,-4.517,49.377,-129.944,0,0,0,
,-0.194,-0.625,0.847,-23.438,52.429,-135.865,0,0,0,
,-0.206,-0.562,0.828,29.052,57.739,-150.879,0,0,0,
,-0.229,-0.513,0.78,85.266,89.721,-138.001,0,0,0,
,-0.223,-0.567,0.771,133.056,83.984,-154.419,0,0,0,
,-0.252,-0.52,0.803,181.579,95.581,-143.982,0,0,0,
,-0.244,-0.574,0.819,173.645,115.905,-140.381,0,0,0,
,-0.238,-0.629,0.854,110.473,117.065,-137.513,0,0,0,
,-0.227,-0.601,0.885,54.504,95.153,-127.137,0,0,0,
,-0.238,-0.622,0.876,46.63,74.89,-119.263,0,0,0,
,-0.234,-0.587,0.867,60.058,62.866,-109.07,0,0,0,
,-0.24,-0.55,0.877,92.651,65.673,-105.713,0,0,0,
,-0.232,-0.563,0.861,120.666,75.073,-100.464,0,0,0,
,-0.24,-0.544,0.841,158.142,88.44,-95.887,0,0,0,
,-0.221,-0.587,0.785,183.899,70.373,-88.318,0,0,0,
,-0.232,-0.591,0.791,159.729,57.006,-77.027,0,0,0,
,-0.224,-0.611,0.799,103.271,53.161,-59.815,0,0,0,
,-0.223,-0.614,0.813,55.664,36.682,-43.03,0,0,0,
,-0.232,-0.618,0.848,15.38,15.564,-38.086,0,0,0,
,-0.249,-0.585,0.841,16.235,7.568,-37.903,0,0,0,
,-0.246,-0.594,0.817,64.086,-9.461,-26.49,0,0,0,
,-0.259,-0.637,0.798,27.038,-17.945,-16.175,0,0,0,
,-0.251,-0.635,0.784,-44.007,-17.884,-8.301,0,0,0,
,-0.254,-0.617,0.786,-95.337,-30.518,-6.531,0,0,0,
,-0.254,-0.619,0.776,-121.155,-29.725,-3.663,0,0,0,
,-0.278,-0.612,0.77,-153.321,-22.583,3.54,0,0,0,
,-0.271,-0.586,0.759,-174.622,-19.471,6.286,0,0,0,
,-0.276,-0.602,0.778,-166.382,-13.245,8.178,0,0,0,
,-0.283,-0.574,0.799,-144.471,-13.672,9.704,0,0,0,
,-0.292,-0.583,0.785,-117.188,-12.818,18.798,0,0,0,
,-0.295,-0.569,0.777,-67.2,-10.498,12.817,0,0,0,
,-0.292,-0.619,0.765,-47.852,7.568,10.986,0,0,0,
,-0.293,-0.62,0.751,-57.923,6.286,8.911,0,0,0,
,-0.296,-0.611,0.765,-45.716,7.812,1.709,0,0,0,
,-0.302,-0.636,0.781,-54.078,18.493,-7.996,0,0,0,
,-0.301,-0.615,0.8,-60.669,17.395,-14.283,0,0,0,
,-0.315,-0.628,0.785,-29.48,20.629,-24.964,0,0,0,
,-0.307,-0.602,0.751,1.098,18.127,-33.204,0,0,0,
,-0.319,-0.602,0.737,13.916,21.789,-41.321,0,0,0,
,-0.315,-0.574,0.728,35.888,25.634,-47.059,0,0,0,
,-0.322,-0.593,0.741,85.266,44.555,-53.65,0,0,0,
,-0.319,-0.597,0.723,131.652,39.733,-61.829,0,0,0,
,-0.334,-0.574,0.706,210.51,36.865,-79.651,0,0,0,
,-0.345,-0.595,0.689,244.14,55.969,-94.605,0,0,0,
,-0.335,-0.58,0.679,256.042,65.918,-109.436,0,0,0,
,-0.342,-0.582,0.686,299.011,81.848,-112.854,0,0,0,
,-0.341,-0.605,0.682,330.81,96.496,-114.747,0,0,0,
,-0.345,-0.608,0.679,350.83,95.031,-109.131,0,0,0,
,-0.315,-0.623,0.668,357.605,98.022,-114.441,0,0,0,
,-0.342,-0.665,0.68,326.11,91.125,-116.578,0,0,0,
,-0.341,-0.685,0.687,259.033,91.369,-109.559,0,0,0,
,-0.33,-0.669,0.706,218.628,80.627,-106.141,0,0,0,
,-0.327,-0.674,0.721,208.068,69.336,-110.413,0,0,0,
,-0.338,-0.639,0.731,262.268,62.133,-121.766,0,0,0,
,-0.368,-0.673,0.705,301.88,90.515,-124.329,0,0,0,
,-0.343,-0.677,0.694,335.083,97.9,-126.343,0,0,0,
,-0.325,-0.735,0.675,320.434,104.98,-123.169,0,0,0,
,-0.29,-0.751,0.662,249.389,88.684,-113.587,0,0,0,
,-0.289,-0.773,0.67,162.597,62.622,-105.591,0,0,0,
,-0.291,-0.713,0.67,115.539,44.128,-97.596,0,0,0,
,-0.309,-0.717,0.674,109.253,62.072,-91.309,0,0,0,
,-0.297,-0.706,0.673,146.24,71.716,-86.365,0,0,0,
,-0.281,-0.714,0.655,161.316,82.275,-71.961,0,0,0,
,-0.264,-0.731,0.619,133.85,76.049,-57.801,0,0,0,
,-0.262,-0.739,0.631,105.651,63.415,-43.641,0,0,0,
,-0.24,-0.732,0.66,73.486,48.523,-30.518,0,0,0,
,-0.23,-0.755,0.699,64.758,34.057,-20.813,0,0,0,
,-0.212,-0.814,0.712,46.203,20.324,-14.039,0,0,0,
,-0.194,-0.829,0.694,11.535,1.464,-10.254,0,0,0,
,-0.18,-0.835,0.677,-30.823,-32.349,-10.498,0,0,0,
,-0.171,-0.849,0.668,-111.573,-63.111,-10.56,0,0,0,
,-0.174,-0.809,0.656,-215.21,-93.811,-10.621,0,0,0,
,-0.175,-0.755,0.677,-225.525,-126.038,-5.494,0,0,0,
,-0.192,-0.814,0.718,-256.043,-138.001,-7.874,0,0,0,
,-0.204,-0.728,0.7,-294.251,-148.255,6.469,0,0,0,
,-0.211,-0.726,0.707,-269.227,-141.907,11.84,0,0,0,
,-0.215,-0.725,0.716,-310.425,-139.039,28.747,0,0,0,
,-0.207,-0.744,0.704,-334.29,-142.762,40.832,0,0,0,
,-0.215,-0.761,0.731,-417.725,-151.978,38.147,0,0,0,
,-0.214,-0.692,0.777,-426.941,-159.852,42.968,0,0,0,
,-0.233,-0.72,0.804,-383.973,-147.461,37.353,0,0,0,
,-0.23,-0.716,0.799,-331.421,-141.114,42.724,0,0,0,
,-0.239,-0.693,0.792,-285.401,-129.517,42.114,0,0,0,
,-0.242,-0.698,0.763,-296.021,-112.488,41.076,0,0,0,
,-0.246,-0.696,0.749,-341.37,-107.117,39.001,0,0,0,
,-0.237,-0.663,0.757,-353.272,-114.624,41.381,0,0,0,
,-0.27,-0.628,0.776,-324.646,-108.216,44.616,0,0,0,
,-0.28,-0.598,0.762,-288.758,-90.149,48.034,0,0,0,
,-0.285,-0.599,0.73,-260.376,-78.309,54.809,0,0,0,
,-0.292,-0.597,0.713,-268.86,-71.717,54.504,0,0,0,
,-0.295,-0.608,0.71,-327.21,-67.688,59.265,0,0,0,
,-0.298,-0.556,0.726,-399.109,-70.191,69.946,0,0,0,
,-0.311,-0.567,0.75,-442.444,-61.28,67.443,0,0,0,
,-0.301,-0.512,0.813,-395.142,-60.975,80.81,0,0,0,
,-0.314,-0.55,0.813,-304.078,-54.749,78.186,0,0,0,
,-0.305,-0.555,0.815,-252.076,-41.626,78.002,0,0,0,
,-0.3,-0.603,0.823,-240.235,-34.546,77.636,0,0,0,
,-0.297,-0.62,0.832,-266.602,-27.955,64.758,0,0,0,
,-0.29,-0.594,0.826,-290.772,-18.494,54.87,0,0,0,
,-0.29,-0.61,0.81,-279.297,-18.006,41.015,0,0,0,
,-0.289,-0.567,0.804,-275.025,-24.292,35.156,0,0,0,
,-0.301,-0.557,0.803,-260.132,-17.09,32.836,0,0,0,
,-0.301,-0.537,0.82,-231.873,-8.728,21.118,0,0,0,
,-0.309,-0.54,0.818,-187.317,-4.578,12.512,0,0,0,
,-0.315,-0.534,0.829,-106.385,-4.334,-5.555,0,0,0,
,-0.324,-0.51,0.816,-54.871,6.347,-18.311,0,0,0,
,-0.343,-0.587,0.833,-32.166,25.451,-45.96,0,0,0,
,-0.332,-0.531,0.817,-3.663,40.954,-52.979,0,0,0,
,-0.34,-0.517,0.796,46.569,42.602,-77.332,0,0,0,
,-0.346,-0.502,0.787,85.083,50.293,-93.689,0,0,0,
,-0.334,-0.478,0.769,134.521,66.467,-98.328,0,0,0,
,-0.342,-0.492,0.765,209.35,67.321,-109.559,0,0,0,
,-0.335,-0.486,0.743,259.887,75.744,-119.507,0,0,0,
,-0.348,-0.509,0.752,305.236,83.19,-123.414,0,0,0,
,-0.332,-0.549,0.75,287.231,92.102,-130.494,0,0,0,
,-0.339,-0.553,0.757,276.001,88.928,-133.484,0,0,0,
,-0.346,-0.565,0.762,248.84,88.684,-136.658,0,0,0,
,-0.344,-0.563,0.755,202.636,80.322,-133.24,0,0,0,
,-0.361,-0.553,0.811,178.772,72.021,-135.56,0,0,0,
,-0.356,-0.527,0.771,196.716,69.519,-132.752,0,0,0,
,-0.366,-0.529,0.752,227.295,63.659,-125.794,0,0,0,
,-0.365,-0.545,0.768,225.769,68.908,-124.451,0,0,0,
,-0.362,-0.574,0.786,209.167,71.838,-124.085,0,0,0,
,-0.354,-0.598,0.763,176.757,61.462,-118.042,0,0,0,
,-0.345,-0.599,0.768,135.376,50.476,-110.657,0,0,0,
,-0.336,-0.586,0.781,83.374,34.729,-100.953,0,0,0,
,-0.338,-0.622,0.777,47.851,16.357,-97.046,0,0,0,
,-0.354,-0.557,0.788,37.353,8.239,-85.694,0,0,0,
,-0.347,-0.562,0.792,40.466,13.061,-83.68,0,0,0,
,-0.375,-0.557,0.81,74.707,20.141,-79.346,0,0,0,
,-0.326,-0.609,0.79,88.562,20.69,-65.674,0,0,0,
,-0.319,-0.613,0.773,84.533,1.953,-54.078,0,0,0,
,-0.302,-0.642,0.785,62.561,-17.884,-45.166,0,0,0,
,-0.301,-0.619,0.799,32.959,-31.25,-45.716,0,0,0,
,-0.308,-0.615,0.791,31.189,-41.077,-38.819,0,0,0,
,-0.329,-0.62,0.76,27.832,-36.927,-38.392,0,0,0,
,-0.333,-0.598,0.739,4.76,-44.678,-24.231,0,0,0,
,-0.349,-0.551,0.758,7.385,-36.988,-18.86,0,0,0,
,-0.336,-0.6,0.727,7.263,-38.269,-2.747,0,0,0,
,-0.323,-0.642,0.75,-41.199,-46.814,11.962,0,0,0,
,-0.323,-0.637,0.77,-89.356,-50.11,11.108,0,0,0,
,-0.317,-0.583,0.778,-70.618,-50.782,18.615,0,0,0,
,-0.331,-0.678,0.767,-71.595,-48.096,10.253,0,0,0,
,-0.342,-0.606,0.726,-54.932,-44.617,-1.404,0,0,0,
,-0.305,-0.651,0.702,-35.767,-43.58,-6.226,0,0,0,
,-0.327,-0.644,0.689,-71.717,-36.56,1.648,0,0,0,
,-0.285,-0.63,0.702,-126.404,-27.955,-5.066,0,0,0,
,-0.291,-0.597,0.74,-110.474,-12.818,-10.865,0,0,0,
,-0.267,-0.595,0.734,-89.234,19.409,-26.612,0,0,0,
,-0.253,-0.612,0.749,-56.336,54.443,-44.068,0,0,0,
,-0.237,-0.651,0.712,-16.846,80.81,-79.895,0,0,0,
,-0.232,-0.679,0.704,15.564,71.044,-88.196,0,0,0,
,-0.245,-0.68,0.761,-32.349,64.453,-96.985,0,0,0,
,-0.249,-0.642,0.777,-93.75,57.251,-105.835,0,0,0,
,-0.279,-0.631,0.834,-53.956,43.212,-102.112,0,0,0,
,-0.273,-0.599,0.839,-12.024,38.391,-96.375,0,0,0,
,-0.286,-0.6,0.837,57.128,54.382,-99.915,0,0,0,
,-0.273,-0.616,0.822,91.247,83.435,-112.366,0,0,0,
,-0.254,-0.65,0.783,131.469,98.022,-131.104,0,0,0,
,-0.25,-0.646,0.788,158.813,87.89,-119.507,0,0,0,
,-0.26,-0.645,0.811,135.131,99.67,-132.019,0,0,0,
,-0.251,-0.621,0.815,149.597,113.159,-129.334,0,0,0,
,-0.261,-0.636,0.808,154.419,115.905,-126.831,0,0,0,
,-0.259,-0.587,0.797,170.532,119.934,-126.282,0,0,0,
,-0.25,-0.592,0.775,198.242,124.389,-117.737,0,0,0,
,-0.24,-0.636,0.785,192.688,114.807,-108.887,0,0,0,
,-0.237,-0.643,0.791,159.607,111.877,-98.999,0,0,0,
,-0.242,-0.641,0.798,131.53,107.116,-92.041,0,0,0,
,-0.241,-0.646,0.769,132.507,101.745,-88.807,0,0,0,
,-0.249,-0.631,0.762,171.081,86.608,-78.186,0,0,0,
,-0.243,-0.655,0.759,152.343,80.993,-66.285,0,0,0,
,-0.242,-0.656,0.766,129.76,61.95,-53.345,0,0,0,
,-0.257,-0.665,0.79,98.266,57.128,-46.692,0,0,0,
,-0.252,-0.662,0.778,61.523,52.002,-41.504,0,0,0,
,-0.261,-0.652,0.783,57.739,48.645,-31.311,0,0,0,
,-0.253,-0.655,0.748,49.194,38.94,-19.104,0,0,0,
,-0.267,-0.644,0.738,31.005,30.822,-10.682,0,0,0,
,-0.276,-0.651,0.74,-3.54,24.658,0.854,0,0,0,
,-0.278,-0.632,0.752,-24.659,25.634,7.385,0,0,0,
,-0.29,-0.616,0.741,-3.479,17.761,11.291,0,0,0,
,-0.294,-0.608,0.724,-2.686,12.573,15.808,0,0,0,
,-0.298,-0.652,0.695,-40.589,-4.517,31.738,0,0,0,
,-0.305,-0.596,0.705,-120.179,-25.025,65.856,0,0,0,
,-0.308,-0.653,0.704,-215.027,-47.974,78.857,0,0,0,
,-0.282,-0.62,0.782,-275.086,-76.539,93.505,0,0,0,
,-0.323,-0.616,0.82,-273.011,-95.276,108.886,0,0,0,
,-0.323,-0.595,0.826,-229.798,-114.197,120.178,0,0,0,
,-0.334,-0.626,0.789,-196.473,-119.08,126.159,0,0,0,
,-0.323,-0.609,0.744,-208.924,-128.357,137.756,0,0,0,
,-0.331,-0.601,0.719,-236.695,-134.644,141.418,0,0,0,
,-0.326,-0.596,0.712,-252.198,-123.902,143.921,0,0,0,
,-0.318,-0.6,0.727,-247.62,-121.888,146.301,0,0,0,
,-0.313,-0.583,0.721,-237.549,-127.137,147.094,0,0,0,
,-0.331,-0.578,0.718,-179.688,-118.226,143.859,0,0,0,
,-0.33,-0.613,0.707,-140.992,-110.901,142.578,0,0,0,
,-0.331,-0.608,0.73,-109.253,-103.028,139.953,0,0,0,
,-0.314,-0.676,0.74,-102.478,-103.211,138.855,0,0,0,
,-0.307,-0.689,0.78,-107.422,-106.568,132.69,0,0,0,
,-0.322,-0.713,0.798,-97.535,-105.591,122.07,0,0,0,
,-0.323,-0.687,0.778,-106.019,-107.361,104.248,0,0,0,
,-0.346,-0.715,0.713,-146.546,-100.953,89.66,0,0,0,
,-0.349,-0.635,0.683,-218.75,-110.352,80.017,0,0,0,
,-0.377,-0.595,0.678,-250.794,-109.742,68.603,0,0,0,
,-0.37,-0.55,0.696,-244.996,-112.061,73.852,0,0,0,
,-0.377,-0.539,0.779,-180.115,-102.295,77.514,0,0,0,
,-0.373,-0.559,0.779,-97.718,-83.435,79.467,0,0,0,
,-0.371,-0.575,0.77,-18.86,-81.299,77.819,0,0,0,
,-0.368,-0.657,0.753,22.094,-65.43,51.33,0,0,0,
,-0.366,-0.651,0.703,-9.766,-58.899,41.137,0,0,0,
,-0.353,-0.664,0.73,-47.913,-49.317,21.362,0,0,0,
,-0.351,-0.645,0.762,-64.698,-36.866,8.056,0,0,0,
,-0.346,-0.651,0.773,-35.279,-18.067,-11.841,0,0,0,
,-0.357,-0.623,0.771,26.794,10.803,-35.34,0,0,0,
,-0.342,-0.661,0.723,62.377,26.428,-48.951,0,0,0,
,-0.328,-0.619,0.738,70.983,35.461,-58.411,0,0,0,
,-0.327,-0.626,0.755,69.03,49.438,-76.6,0,0,0,
,-0.309,-0.632,0.756,76.049,58.41,-93.628,0,0,0,
,-0.315,-0.661,0.753,74.096,72.876,-105.896,0,0,0,
,-0.285,-0.651,0.763,76.843,85.449,-114.319,0,0,0,
,-0.28,-0.658,0.765,94.299,86.731,-127.076,0,0,0,
,-0.26,-0.627,0.776,93.017,91.674,-129.334,0,0,0,
,-0.254,-0.644,0.757,80.322,100.769,-132.019,0,0,0,
,-0.244,-0.658,0.751,78.125,92.407,-128.174,0,0,0,
,-0.24,-0.625,0.758,57.251,86.608,-126.954,0,0,0,
,-0.24,-0.633,0.77,75.195,90.515,-137.818,0,0,0,
,-0.223,-0.65,0.786,75.927,92.712,-130.921,0,0,0,
,-0.214,-0.667,0.796,63.11,94.421,-133.301,0,0,0,
,-0.22,-0.642,0.792,76.721,92.285,-141.907,0,0,0,
,-0.214,-0.638,0.761,102.111,97.351,-145.447,0,0,0,
,-0.212,-0.627,0.746,128.173,93.322,-151.429,0,0,0,
,-0.21,-0.629,0.747,148.864,108.215,-144.654,0,0,0,
,-0.206,-0.636,0.771,158.02,125.366,-149.17,0,0,0,
,-0.184,-0.651,0.772,160.217,124.755,-144.959,0,0,0,
,-0.203,-0.659,0.76,158.203,115.539,-144.959,0,0,0,
,-0.208,-0.646,0.753,174.072,104.736,-138.916,0,0,0,
,-0.232,-0.642,0.764,177.185,113.891,-132.691,0,0,0,
,-0.223,-0.656,0.779,164.917,130.005,-132.508,0,0,0,
,-0.231,-0.686,0.803,137.817,131.652,-134.461,0,0,0,
,-0.22,-0.672,0.799,115.356,121.704,-122.681,0,0,0,
,-0.238,-0.683,0.776,117.126,104.675,-117.554,0,0,0,
,-0.231,-0.68,0.768,89.904,82.092,-109.375,0,0,0,
,-0.23,-0.688,0.772,19.897,78.308,-101.99,0,0,0,
,-0.236,-0.668,0.783,-39.246,62.316,-92.896,0,0,0,
,-0.234,-0.655,0.795,-64.393,52.917,-89.173,0,0,0,
,-0.246,-0.63,0.798,-90.088,44.128,-71.717,0,0,0,
,-0.256,-0.624,0.813,-89.173,44.494,-62.806,0,0,0,
,-0.251,-0.672,0.781,-133.912,35.949,-41.748,0,0,0,
,-0.246,-0.671,0.767,-194.092,5.615,-33.692,0,0,0,
,-0.243,-0.685,0.777,-229.92,-28.565,-30.518,0,0,0,
,-0.259,-0.659,0.788,-263.55,-48.951,-18.25,0,0,0,
,-0.273,-0.589,0.802,-211.548,-41.26,-9.461,0,0,0,
,-0.278,-0.618,0.788,-169.007,-21.119,-9.827,0,0,0,
,-0.275,-0.62,0.779,-147.156,-20.02,-2.137,0,0,0,
,-0.279,-0.61,0.754,-159.668,-15.809,-5.738,0,0,0,
,-0.276,-0.665,0.746,-226.441,-11.231,-2.442,0,0,0,
,-0.295,-0.591,0.759,-270.508,-20.935,9.582,0,0,0,
,-0.315,-0.607,0.795,-284.852,-14.039,3.784,0,0,0,
,-0.324,-0.559,0.822,-273.377,-5.005,-6.653,0,0,0,
,-0.325,-0.58,0.832,-243.103,10.253,-10.743,0,0,0,
,-0.313,-0.584,0.846,-193.909,10.62,-4.273,0,0,0,
,-0.343,-0.633,0.857,-209.717,14.465,-7.264,0,0,0,
,-0.327,-0.562,0.824,-214.478,7.934,-9.827,0,0,0,
,-0.353,-0.559,0.78,-171.998,8.911,-28.138,0,0,0,
,-0.336,-0.522,0.74,-153.199,12.329,-37.598,0,0,0,
,-0.346,-0.513,0.706,-131.226,17.944,-40.894,0,0,0,
,-0.355,-0.484,0.706,-74.463,28.137,-40.284,0,0,0,
,-0.357,-0.458,0.694,8.667,40.771,-38.392,0,0,0,
,-0.36,-0.466,0.679,123.962,39.794,-57.007,0,0,0,
,-0.369,-0.487,0.694,223.632,46.752,-70.069,0,0,0,
,-0.343,-0.499,0.709,279.541,53.711,-55.42,0,0,0,
,-0.352,-0.508,0.713,366.15,52.795,-61.036,0,0,0,
,-0.346,-0.587,0.706,390.747,57.373,-67.078,0,0,0,
,-0.359,-0.6,0.707,387.817,55.664,-65.857,0,0,0,
,-0.352,-0.608,0.689,392.578,51.33,-73.121,0,0,0,
,-0.354,-0.639,0.665,380.798,46.997,-73.487,0,0,0,
,-0.352,-0.657,0.678,343.505,49.499,-71.473,0,0,0,
,-0.356,-0.674,0.699,292.358,45.837,-79.956,0,0,0,
,-0.357,-0.675,0.727,277.282,44.189,-89.051,0,0,0,
,-0.362,-0.626,0.717,288.391,35.217,-85.999,0,0,0,
,-0.362,-0.672,0.699,291.381,31.799,-95.337,0,0,0,
,-0.359,-0.66,0.663,246.887,34.423,-75.745,0,0,0,
,-0.36,-0.671,0.653,208.496,23.01,-69.336,0,0,0,
,-0.334,-0.71,0.704,153.686,17.578,-69.825,0,0,0,
,-0.315,-0.688,0.747,117.431,-1.404,-69.214,0,0,0,
,-0.308,-0.734,0.753,90.576,-13.794,-77.027,0,0,0,
,-0.321,-0.762,0.722,-16.419,-15.748,-74.524,0,0,0,
,-0.311,-0.666,0.723,-67.078,-16.602,-70.923,0,0,0,
,-0.313,-0.689,0.738,-61.463,-30.945,-74.097,0,0,0,
,-0.294,-0.693,0.769,-78.125,-26.123,-73.06,0,0,0,
,-0.304,-0.657,0.784,-85.206,-27.527,-60.669,0,0,0,
,-0.302,-0.604,0.779,-62.745,-26.612,-46.143,0,0,0,
,-0.294,-0.628,0.76,-16.785,-25.635,-41.138,0,0,0,
,-0.28,-0.68,0.73,-63.66,-21.912,-25.452,0,0,0,
,-0.253,-0.691,0.701,-196.228,-46.143,3.051,0,0,0,
,-0.261,-0.667,0.746,-277.283,-78.858,13.794,0,0,0,
,-0.261,-0.606,0.84,-265.87,-94.605,21.484,0,0,0,
,-0.27,-0.623,0.885,-203.492,-90.271,32.592,0,0,0,
,-0.257,-0.644,0.855,-129.029,-73.243,50.781,0,0,0,
,-0.245,-0.703,0.783,-129.334,-57.923,49.682,0,0,0,
,-0.223,-0.761,0.723,-294.922,-70.679,44.921,0,0,0,
,-0.233,-0.684,0.753,-430.115,-110.962,43.823,0,0,0,
,-0.25,-0.641,0.81,-473.694,-120.179,46.142,0,0,0,
,-0.258,-0.608,0.858,-464.539,-128.235,57.434,0,0,0,
,-0.289,-0.522,0.871,-360.291,-105.164,81.543,0,0,0,
,-0.269,-0.573,0.815,-247.559,-64.759,79.101,0,0,0,
,-0.267,-0.649,0.764,-246.766,-47.852,73.73,0,0,0,
,-0.252,-0.651,0.764,-301.514,-51.819,77.209,0,0,0,
,-0.252,-0.647,0.792,-400.269,-65.247,81.115,0,0,0,
,-0.256,-0.582,0.831,-413.331,-80.445,86.059,0,0,0,
,-0.267,-0.567,0.849,-389.222,-77.759,87.524,0,0,0,
,-0.271,-0.503,0.837,-344.605,-71.9,99.67,0,0,0,
,-0.269,-0.535,0.804,-310.303,-52.674,102.111,0,0,0,
,-0.261,-0.541,0.785,-297.669,-50.904,98.999,0,0,0,
,-0.258,-0.562,0.78,-335.694,-56.031,103.21,0,0,0,
,-0.257,-0.545,0.814,-359.681,-69.825,104.065,0,0,0,
,-0.268,-0.521,0.858,-353.455,-74.341,110.656,0,0,0,
,-0.281,-0.524,0.877,-336.792,-70.496,106.689,0,0,0,
,-0.285,-0.529,0.891,-316.712,-50.293,97.045,0,0,0,
,-0.28,-0.565,0.885,-318.177,-41.993,87.28,0,0,0,
,-0.28,-0.548,0.881,-340.577,-28.626,70.922,0,0,0,
,-0.283,-0.525,0.86,-339.417,-28.87,65.795,0,0,0,
,-0.296,-0.467,0.831,-302.124,-20.386,47.79,0,0,0,
,-0.3,-0.448,0.821,-278.199,1.281,24.658,0,0,0,
,-0.303,-0.467,0.816,-228.028,22.338,7.629,0,0,0,
,-0.3,-0.491,0.844,-188.904,37.231,-6.104,0,0,0,
,-0.31,-0.488,0.858,-164.734,39.856,-31.556,0,0,0,
,-0.328,-0.441,0.858,-95.459,40.893,-56.885,0,0,0,
,-0.332,-0.409,0.851,-1.709,47.729,-81.604,0,0,0,
,-0.337,-0.388,0.864,121.948,47.912,-96.375,0,0,0,
,-0.334,-0.473,0.838,167.724,52.917,-104.615,0,0,0,
,-0.326,-0.505,0.823,117.981,47.485,-97.535,0,0,0,
,-0.339,-0.542,0.837,36.132,45.654,-104.004,0,0,0,
,-0.336,-0.493,0.826,-38.514,41.809,-111.39,0,0,0,
,-0.338,-0.402,0.839,-36.255,39.55,-116.517,0,0,0,
,-0.355,-0.423,0.842,11.169,47.485,-134.095,0,0,0,
,-0.347,-0.4,0.859,65.856,34.545,-139.344,0,0,0,
,-0.35,-0.407,0.867,124.694,32.653,-143.616,0,0,0,
,-0.362,-0.407,0.84,130.493,40.039,-141.724,0,0,0,
,-0.367,-0.395,0.847,146.118,33.691,-141.297,0,0,0,
,-0.374,-0.401,0.816,133.3,28.442,-130.738,0,0,0,
,-0.384,-0.411,0.788,128.357,17.089,-119.568,0,0,0,
,-0.386,-0.44,0.797,79.406,5.676,-110.962,0,0,0,
,-0.395,-0.424,0.831,34.179,7.507,-94.361,0,0,0,
,-0.36,-0.429,0.882,21.301,-4.883,-90.577,0,0,0,
,-0.391,-0.491,0.888,0.366,3.906,-90.088,0,0,0,
,-0.33,-0.344,0.846,30.334,-19.532,-65.491,0,0,0,
,-0.387,-0.384,0.827,203.613,-46.753,-72.205,0,0,0,
,-0.366,-0.405,0.767,310.974,-49.134,-64.881,0,0,0,
,-0.359,-0.546,0.746,280.883,-58.533,-56.092,0,0,0,
,-0.347,-0.576,0.719,146.789,-75.074,-36.011,0,0,0,
,-0.361,-0.546,0.772,47.119,-102.784,-27.588,0,0,0,
,-0.381,-0.477,0.816,7.69,-103.943,-34.424,0,0,0,
,-0.398,-0.403,0.846,62.5,-92.041,-38.941,0,0,0,
,-0.385,-0.386,0.846,105.102,-84.9,-32.105,0,0,0,
,-0.416,-0.417,0.783,165.588,-82.703,-34.913,0,0,0,
,-0.397,-0.482,0.797,109.741,-77.088,-22.339,0,0,0,
,-0.39,-0.528,0.812,-8.851,-84.473,-3.846,0,0,0,
,-0.402,-0.51,0.874,-113.16,-88.074,3.173,0,0,0,
,-0.375,-0.45,0.905,-121.827,-87.891,4.272,0,0,0,
,-0.428,-0.423,0.898,-39.612,-62.378,-5.005,0,0,0,
,-0.417,-0.43,0.838,72.021,-33.143,-21.302,0,0,0,
,-0.422,-0.438,0.796,143.432,-4.7,-30.091,0,0,0,
,-0.416,-0.386,0.746,175.781,11.901,-25.025,0,0,0,
,-0.425,-0.417,0.761,211.67,36.438,-26.612,0,0,0,
,-0.384,-0.557,0.807,157.043,51.818,-18.555,0,0,0,
,-0.361,-0.562,0.882,91.43,33.02,-5.982,0,0,0,
,-0.345,-0.573,0.905,70.617,35.156,-10.682,0,0,0,
,-0.331,-0.585,0.872,99.487,41.259,-28.321,0,0,0,
,-0.324,-0.541,0.801,150.756,55.419,-36.438,0,0,0,
,-0.311,-0.486,0.764,265.197,73.242,-50.11,0,0,0,
,-0.3,-0.556,0.739,334.533,96.435,-55.909,0,0,0,
,-0.273,-0.587,0.733,312.011,113.586,-68.665,0,0,0,
,-0.257,-0.684,0.755,262.939,112.426,-91.309,0,0,0,
,-0.227,-0.715,0.784,162.78,104.614,-96.192,0,0,0,
,-0.223,-0.696,0.833,115.966,85.815,-118.287,0,0,0,
,-0.243,-0.571,0.814,214.66,108.703,-125.55,0,0,0,
,-0.25,-0.547,0.815,337.463,115.844,-126.16,0,0,0,
,-0.225,-0.586,0.794,403.991,119.873,-109.559,0,0,0,
,-0.238,-0.636,0.768,386.963,116.76,-95.643,0,0,0,
,-0.243,-0.655,0.765,339.233,111.816,-84.534,0,0,0,
,-0.233,-0.647,0.774,271.789,111.938,-72.754,0,0,0,
,-0.243,-0.67,0.779,228.759,105.774,-68.36,0,0,0,
,-0.249,-0.652,0.775,230.224,92.346,-51.636,0,0,0,
,-0.257,-0.661,0.757,273.132,71.228,-44.007,0,0,0,
,-0.287,-0.664,0.77,302.978,63.72,-28.016,0,0,0,
,-0.293,-0.68,0.753,295.593,79.101,-22.889,0,0,0,
,-0.276,-0.685,0.737,260.315,76.904,-10.56,0,0,0,
,-0.288,-0.72,0.72,209.961,73.669,-7.752,0,0,0,
,-0.285,-0.713,0.692,162.597,50.537,-3.479,0,0,0,
,-0.308,-0.725,0.703,113.342,39.794,-6.043,0,0,0,
,-0.303,-0.704,0.72,59.936,39.367,0.976,0,0,0,
,-0.312,-0.694,0.743,64.575,29.541,6.836,0,0,0,
,-0.323,-0.684,0.763,64.453,21.911,16.723,0,0,0,
,-0.347,-0.661,0.739,81.726,15.747,27.343,0,0,0,
,-0.345,-0.714,0.682,39.794,14.587,39.55,0,0,0,
