TIMECODE,ACC_X,ACC_Y,ACC_Z,GYR_X,GYR_Y,GYR_Z,TAG
00:00:00:0,0.239,-0.379,0.913,21.179,-65.613,6.713,
00:00:00:16,0.235,-0.365,0.914,3.356,-70.862,3.356,
00:00:00:33,0.225,-0.339,0.923,3.723,-70.313,-0.061,
00:00:00:50,0.205,-0.364,0.96,-2.991,-46.998,-2.442,
00:00:00:66,0.206,-0.356,0.957,-11.597,-24.292,3.723,
00:00:00:83,0.214,-0.352,0.941,-14.893,0.793,12.939,
00:00:00:100,0.236,-0.351,0.927,-27.955,29.724,13.488,
00:00:00:116,0.26,-0.348,0.911,-29.358,40.649,16.235,
00:00:00:133,0.246,-0.349,0.889,-23.194,26.855,9.948,
00:00:00:150,0.209,-0.36,0.909,-29.175,30.578,4.455,
00:00:00:166,0.248,-0.349,0.931,-42.725,38.696,7.629,
00:00:00:183,0.226,-0.342,0.923,-36.866,37.841,8.3,
00:00:00:200,0.237,-0.355,0.913,-35.401,35.827,6.652,
00:00:00:216,0.242,-0.361,0.901,-44.068,32.592,-4.883,
00:00:00:233,0.23,-0.334,0.903,-48.096,17.456,-12.452,
00:00:00:250,0.222,-0.324,0.905,-35.584,4.333,-19.776,
00:00:00:266,0.227,-0.332,0.934,-20.691,0.854,-26.429,
00:00:00:283,0.229,-0.341,0.929,-17.273,-4.456,-21.302,
00:00:00:300,0.23,-0.35,0.914,-13.977,-10.01,-24.659,
00:00:00:316,0.225,-0.344,0.912,-8.301,-11.109,-23.56,
00:00:00:333,0.233,-0.355,0.912,4.394,-17.029,-15.748,
00:00:00:350,0.227,-0.362,0.924,8.789,-20.63,-13.733,
00:00:00:366,0.217,-0.366,0.926,-8.912,-10.132,-9.888,
00:00:00:383,0.234,-0.344,0.929,-26.49,3.479,-4.212,
00:00:00:400,0.241,-0.326,0.912,-26.856,-1.587,-7.142,
00:00:00:416,0.247,-0.323,0.924,-14.405,1.648,-7.264,
00:00:00:433,0.25,-0.353,0.923,-4.7,-2.686,0.854,
00:00:00:450,0.248,-0.363,0.901,-11.658,-16.846,2.807,
00:00:00:466,0.248,-0.375,0.881,-18.982,-24.476,7.812,
00:00:00:483,0.231,-0.352,0.892,-31.373,-37.293,7.446,
00:00:00:500,0.224,-0.33,0.909,-32.105,-43.824,6.897,
00:00:00:516,0.234,-0.333,0.909,-37.11,-49.439,7.263,
00:00:00:533,0.226,-0.318,0.916,-48.462,-45.838,-12.207,
00:00:00:550,0.221,-0.338,0.935,-93.079,-34.18,-27.039,
00:00:00:566,0.229,-0.3,0.916,-76.783,-31.128,-44.495,
00:00:00:583,0.205,-0.244,0.991,-23.194,-24.842,-52.491,
00:00:00:600,0.277,-0.289,1,38.757,9.765,-49.439,
00:00:00:616,0.232,-0.335,0.963,49.255,35.766,-61.402,
00:00:00:633,0.202,-0.335,0.945,16.723,52.673,-57.923,
00:00:00:650,0.202,-0.357,0.938,26.672,74.34,-68.238,
00:00:00:666,0.216,-0.391,0.901,39.001,86.669,-62.867,
00:00:00:683,0.221,-0.386,0.901,-3.724,74.707,-59.51,
00:00:00:700,0.191,-0.381,0.914,-23.926,75.744,-52.124,
00:00:00:716,0.225,-0.367,0.896,-6.775,70.495,-35.523,
00:00:00:733,0.231,-0.384,0.868,-21.973,43.579,-45.35,
00:00:00:750,0.223,-0.394,0.88,-81.788,26.123,-39.612,
00:00:00:766,0.228,-0.374,0.935,-96.863,27.404,-52.308,
00:00:00:783,0.205,-0.372,0.946,-93.201,34.24,-53.284,
00:00:00:800,0.211,-0.343,0.923,-92.53,31.921,-47.547,
00:00:00:816,0.205,-0.344,0.919,-115.662,41.992,-53.956,
00:00:00:833,0.233,-0.308,0.938,-109.62,26.55,-54.444,
00:00:00:850,0.21,-0.315,0.947,-100.098,23.986,-59.998,
00:00:00:866,0.228,-0.282,0.924,-61.951,8.422,-44.373,
00:00:00:883,0.25,-0.302,0.904,-31.556,-13.977,-49.561,
00:00:00:900,0.245,-0.289,0.938,-15.015,-37.476,-37.354,
00:00:00:916,0.271,-0.282,0.94,19.836,-34.974,-18.433,
00:00:00:933,0.268,-0.323,0.898,69.458,-48.89,-19.593,
00:00:00:950,0.228,-0.359,0.926,80.505,-60.547,-15.442,
00:00:00:966,0.193,-0.391,0.947,47.668,-51.514,-9.888,
00:00:00:983,0.183,-0.387,0.924,19.897,-40.955,8.422,
00:00:01:0,0.195,-0.39,0.913,-2.686,-37.171,20.874,
00:00:01:16,0.195,-0.373,0.91,-39.368,-46.509,42.541,
00:00:01:33,0.248,-0.328,0.94,-51.819,-43.702,51.879,
00:00:01:50,0.231,-0.304,0.947,-41.199,-40.528,64.086,
00:00:01:66,0.249,-0.312,0.926,-8.606,-39.49,69.641,
00:00:01:83,0.23,-0.33,0.926,-2.442,-44.068,63.11,
00:00:01:100,0.215,-0.348,0.919,-7.935,-44.129,53.588,
00:00:01:116,0.182,-0.298,0.963,-51.453,-5.738,8.422,
00:00:01:133,0.191,-0.286,0.944,-46.265,9.033,-6.958,
00:00:01:150,0.204,-0.295,0.927,-30.762,6.103,-21.241,
00:00:01:166,0.203,-0.314,0.932,-39.612,5.737,-26.795,
00:00:01:183,0.206,-0.315,0.953,-46.448,16.174,-29.602,
00:00:01:200,0.21,-0.339,0.918,-41.199,38.818,-28.077,
00:00:01:216,0.215,-0.334,0.926,-54.627,33.203,-21.485,
00:00:01:233,0.204,-0.32,0.934,-71.961,28.503,-26.062,
00:00:01:250,0.19,-0.302,0.953,-95.704,39.001,-33.997,
00:00:01:266,0.199,-0.28,0.947,-71.351,48.828,-26.612,
00:00:01:283,0.216,-0.295,0.956,-51.087,55.419,-7.081,
00:00:01:300,0.224,-0.329,0.945,-36.744,73.12,2.746,
00:00:01:316,0.22,-0.306,0.962,-68.604,104.98,-10.01,
00:00:01:333,0.23,-0.282,0.941,-98.999,142.944,-21.058,
00:00:01:350,0.265,-0.242,0.924,-109.436,159.607,-33.326,
00:00:01:366,0.282,-0.269,0.938,-86.426,177.856,-59.876,
00:00:01:383,0.282,-0.284,0.931,-65.064,188.232,-67.078,
00:00:01:400,0.295,-0.26,0.979,-26.429,229.492,-100.159,
00:00:01:416,0.325,-0.217,1.107,-99.427,337.646,-182.984,
00:00:01:433,0.441,0.052,1.21,59.875,227.234,-230.896,
00:00:01:450,0.675,-0.754,1.311,918.762,-253.418,-231.263,
00:00:01:466,0.605,-1.221,1.145,429.321,-562.134,-191.773,
00:00:01:483,0.535,-0.857,1.06,-156.373,-835.267,-89.173,
00:00:01:500,0.302,-0.387,1.076,-202.149,-877.198,-116.394,
00:00:01:516,0.296,-0.453,0.978,-45.716,-857.972,-100.464,
00:00:01:533,0.226,-0.485,0.895,-107.727,-949.097,-79.468,
00:00:01:550,0.098,-0.323,0.771,-45.716,-947.205,-81.36,
00:00:01:566,0.009,-0.331,0.566,84.411,-868.836,-76.539,
00:00:01:583,-0.08,-0.357,0.372,94.482,-745.606,-80.872,
00:00:01:600,-0.17,-0.418,0.307,-80.933,-580.323,-35.706,
00:00:01:616,-0.176,-0.37,0.279,-297.547,-438.843,49.987,
00:00:01:633,-0.221,-0.275,0.282,-421.692,-304.993,163.513,
00:00:01:650,-0.282,-0.223,0.308,-427.247,-51.819,229.126,
00:00:01:666,-0.245,-0.196,0.341,-342.652,214.355,264.892,
00:00:01:683,-0.189,-0.183,0.358,-203.309,423.462,302.063,
00:00:01:700,-0.176,-0.236,0.355,-131.836,608.215,320.068,
00:00:01:716,-0.092,-0.316,0.404,-202.515,695.617,325.805,
00:00:01:733,0.016,-0.292,0.655,-273.194,713.928,298.217,
00:00:01:750,0.116,-0.21,1.03,-106.385,708.984,251.464,
00:00:01:766,0.172,-0.318,1.13,147.033,706.665,244.323,
00:00:01:783,0.23,-0.506,1.071,138,620.422,233.032,
00:00:01:800,0.24,-0.528,1.068,-24.231,521.301,224.304,
00:00:01:816,0.27,-0.393,1.123,-129.456,410.827,205.139,
00:00:01:833,0.273,-0.311,1.146,-134.522,349.243,189.209,
00:00:01:850,0.27,-0.29,1.084,-98.877,329.101,190.918,
00:00:01:866,0.403,-0.598,1.391,-199.585,250.61,259.46,
00:00:01:883,0.808,-1.004,2.264,-551.087,-307.129,404.907,
00:00:01:900,0.243,0.218,1.415,-389.832,-222.229,10.986,
00:00:01:916,0.018,0.041,0.742,238.891,4.516,-14.1,
00:00:01:933,0.396,0.085,0.709,305.847,-134.583,-33.02,
00:00:01:950,0.37,-0.188,0.953,168.945,-163.88,-47.974,
00:00:01:966,0.278,-0.28,0.964,177.002,-134.583,-85.572,
00:00:01:983,0.247,-0.309,0.977,202.026,-109.009,-93.689,
00:00:02:0,0.172,-0.381,0.949,236.511,-96.314,-113.831,
00:00:02:16,0.099,-0.434,0.952,163.757,-61.158,-143.372,
00:00:02:33,0.094,-0.393,0.949,46.02,-34.729,-136.536,
00:00:02:50,0.111,-0.367,0.948,-9.888,-12.696,-134.644,
00:00:02:66,0.145,-0.348,0.952,-2.991,-1.648,-144.959,
00:00:02:83,0.164,-0.336,0.935,11.535,-14.466,-142.09,
00:00:02:100,0.218,-0.323,0.946,3.356,1.159,-125.794,
00:00:02:116,0.223,-0.339,0.929,22.766,0.183,-104.126,
00:00:02:133,0.228,-0.356,0.898,47.668,-11.292,-94.91,
00:00:02:150,0.216,-0.393,0.927,49.072,-11.17,-98.572,
00:00:02:166,0.234,-0.385,0.925,16.052,-5.738,-62.928,
00:00:02:183,0.24,-0.333,0.901,7.385,-22.583,-83.619,
00:00:02:200,0.196,-0.322,0.899,6.164,-42.115,-95.581,
00:00:02:216,0.081,-0.418,0.947,52.734,-67.139,-125.306,
00:00:02:233,0.109,-0.398,0.925,17.334,-51.88,-157.227,
00:00:02:250,0.16,-0.391,0.93,-19.41,-33.997,-152.771,
00:00:02:266,0.187,-0.343,0.932,-48.584,-18.738,-171.204,
00:00:02:283,0.198,-0.315,0.938,-41.626,-14.344,-194.703,
00:00:02:300,0.171,-0.337,0.965,-66.285,6.408,-208.008,
00:00:02:316,0.166,-0.294,0.954,-92.774,24.78,-230.042,
00:00:02:333,0.108,-0.303,0.943,-90.332,36.193,-254.578,
00:00:02:350,0.083,-0.328,0.973,-94.056,48.278,-263.184,
00:00:02:366,0.061,-0.37,0.976,-100.098,64.453,-257.691,
00:00:02:383,0.126,-0.455,0.975,-134.583,102.295,-220.887,
00:00:02:400,0.146,-0.454,0.918,-159.424,92.407,-181.275,
00:00:02:416,0.064,-0.414,1.049,-644.227,300.659,-153.382,
00:00:02:433,0.122,-0.194,1.023,-682.74,282.165,-141.297,
00:00:02:450,0.099,-0.221,1.052,-687.378,290.466,-113.099,
00:00:02:466,0.173,-0.183,1.013,-644.043,204.528,-62.989,
00:00:02:483,0.17,-0.145,0.968,-489.808,104.98,-53.467,
00:00:02:500,0.105,-0.186,0.968,-281.067,51.452,-74.28,
00:00:02:516,0.168,-0.227,0.921,-164.734,54.321,-58.472,
00:00:02:533,0.196,-0.194,0.829,-52.124,77.331,-54.139,
00:00:02:550,0.288,-0.214,0.736,20.202,96.618,-36.56,
00:00:02:566,0.321,-0.208,0.661,-11.536,98.51,-115.052,
00:00:02:583,0.314,-0.114,0.713,8.056,32.653,-90.088,
00:00:02:600,0.295,-0.124,0.908,16.845,40.832,-80.079,
00:00:02:616,0.304,-0.119,1.106,112.793,61.584,-27.71,
00:00:02:633,0.28,-0.196,1.225,255.31,31.799,-9.827,
00:00:02:650,0.18,-0.312,1.085,270.019,28.93,23.376,
00:00:02:666,0.174,-0.301,0.924,183.105,22.155,30.639,
00:00:02:683,0.152,-0.33,0.897,115.173,59.082,15.38,
00:00:02:700,0.169,-0.319,0.929,1.709,57.128,57.19,
00:00:02:716,0.215,-0.257,0.948,-53.223,43.457,66.589,
00:00:02:733,0.241,-0.196,0.933,-19.471,-8.24,57.006,
00:00:02:750,0.215,-0.23,0.979,17.028,-2.015,58.837,
00:00:02:766,0.233,-0.183,1.014,4.15,10.253,51.818,
00:00:02:783,0.216,-0.16,0.982,28.259,37.048,35.583,
00:00:02:800,0.232,-0.09,0.908,139.221,-2.564,6.836,
00:00:02:816,0.194,-0.117,0.947,253.418,-21.424,-8.851,
00:00:02:833,0.143,-0.242,1.035,245.727,23.925,-39.734,
00:00:02:850,0.108,0.223,1.55,-481.324,808.654,-51.575,
00:00:02:866,0.721,0.358,2.16,117.981,436.706,-176.636,
00:00:02:883,1.042,-0.854,3.415,31.799,-198.243,-274.414,
00:00:02:900,2.138,-1.462,3.285,-262.146,-1241.456,-194.092,
00:00:02:916,2.458,-1.6,3.105,-1203.125,-2000,15.502,
00:00:02:933,1.52,-0.677,3.143,-1089.478,-2000,-197.815,
00:00:02:950,0.946,-0.66,2.151,310.241,-2000,-540.162,
00:00:02:966,1.148,-1.08,0.659,1398.864,-2000,-1056.824,
00:00:02:983,1.128,-1.168,-0.577,1414.917,-2000,-1593.873,
00:00:03:0,1.345,-0.795,-1.7,449.34,-2000,-2000,
00:00:03:16,0.814,1.337,-3.283,-1042.786,-1640.076,-1915.528,
00:00:03:33,0.395,2.437,-3.322,-967.347,-104.004,-1165.65,
00:00:03:50,0.405,2.952,-2.877,66.528,1217.834,-167.786,
00:00:03:66,0.682,2.156,-1.879,797.79,1999.694,1027.771,
00:00:03:83,0.784,1.6,-0.764,912.658,1999.694,1921.63,
00:00:03:100,0.781,0.283,0.142,726.562,1999.694,1999.694,
00:00:03:116,0.54,-0.873,0.864,668.335,1999.694,1999.511,
00:00:03:133,0.556,-1.795,1.4,421.386,1999.694,1578.918,
00:00:03:150,0.442,-1.901,1.999,240.783,1999.694,1037.109,
00:00:03:166,0.284,-1.987,2.327,140.564,1981.445,664.062,
00:00:03:183,0.045,-1.498,2.219,90.82,1738.891,382.019,
00:00:03:200,0.007,-1.074,2.064,65.307,1490.783,229.431,
00:00:03:216,-0.027,-0.392,1.905,-12.085,1266.906,244.14,
00:00:03:233,0.172,-0.319,1.562,-14.344,1012.695,248.84,
00:00:03:250,0.349,-0.403,1.687,-64.942,626.953,162.597,
00:00:03:266,0.267,-0.573,1.762,-202.881,489.624,106.933,
00:00:03:283,0.174,-0.434,1.506,-264.344,402.771,118.896,
00:00:03:300,0.05,-0.257,1.305,-104.432,381.713,142.517,
00:00:03:316,0.083,-0.067,1.196,42.907,300.048,157.531,
00:00:03:333,0.276,-0.65,1.573,-4.334,-9.583,80.444,
00:00:03:350,-0.046,-0.07,1.165,-43.885,-260.071,58.898,
00:00:03:366,0.042,-0.418,0.904,101.318,41.565,6.713,
00:00:03:383,0.089,-0.387,0.916,21.057,144.165,-0.489,
00:00:03:400,0.146,-0.113,1.073,23.01,143.493,-4.7,
00:00:03:416,0.126,-0.12,1.05,157.592,135.498,-58.838,
00:00:03:433,0.159,-0.286,0.961,223.693,63.354,-76.844,
00:00:03:450,0.163,-0.463,0.84,202.392,5.737,-73.975,
00:00:03:466,0.135,-0.462,0.847,89.111,-27.527,-88.196,
00:00:03:483,0.121,-0.481,0.897,-54.261,-0.611,-77.576,
00:00:03:500,0.142,-0.434,0.979,-136.353,26.184,-103.15,
00:00:03:516,0.177,-0.458,0.984,-128.296,-29.847,-126.893,
00:00:03:533,0.291,-0.455,0.936,160.827,-143.372,-228.089,
00:00:03:550,0.324,-0.71,0.969,503.112,-298.279,-341.37,
00:00:03:566,0.176,-0.824,0.975,629.638,-301.88,-420.227,
00:00:03:583,0.083,-0.677,0.88,590.576,-182.373,-477.601,
00:00:03:600,0.037,-0.57,0.797,550.415,-121.094,-545.899,
00:00:03:616,0.006,-0.581,0.898,570.678,-115.296,-562.378,
00:00:03:633,-0.043,-0.631,0.93,654.174,-117.615,-579.163,
00:00:03:650,-0.148,-0.586,0.957,745.178,-66.285,-600.647,
00:00:03:666,-0.19,-0.466,0.884,859.802,-5.921,-604.737,
00:00:03:683,-0.171,2.023,-1.929,10117.546,6303.374,9795.214,
00:00:03:700,-0.177,-0.811,0.66,952.209,-15.442,-568.482,
00:00:03:716,-0.217,-0.857,0.674,578.735,-78.614,-484.681,
00:00:03:733,-0.258,-0.52,0.751,277.282,-116.7,-451.355,
00:00:03:750,-0.199,-0.47,0.801,306.823,-144.227,-461.914,
00:00:03:766,-0.247,-0.438,0.907,471.618,-171.57,-473.877,
00:00:03:783,-0.27,-0.527,0.868,577.819,-132.691,-460.206,
00:00:03:800,-0.219,-0.586,0.727,763.61,-151.246,-378.357,
00:00:03:816,-0.207,-0.636,0.668,767.395,-157.41,-292.298,
00:00:03:833,-0.135,-0.593,0.705,734.741,-166.321,-210.022,
00:00:03:850,-0.159,-0.601,0.664,712.158,-206.238,-127.503,
00:00:03:866,-0.186,-0.585,0.624,851.379,-243.287,-65.491,
00:00:03:883,-0.175,-0.745,0.651,932.861,-267.151,10.681,
00:00:03:900,-0.145,-0.789,0.72,768.249,-254.151,11.718,
00:00:03:916,-0.182,-0.896,0.743,505.676,-203.553,82.092,
00:00:03:933,-0.175,-0.926,0.649,261.596,-111.878,100.341,
00:00:03:950,-0.169,-0.811,0.484,153.686,-39.795,26.794,
00:00:03:966,-0.118,-0.883,0.42,37.963,-83.558,29.113,
00:00:03:983,-0.147,-0.868,0.461,-159.424,-145.508,53.405,
00:00:04:0,-0.18,-0.764,0.533,-349.976,-143.189,81.726,
00:00:04:16,-0.138,-0.745,0.61,-265.809,-105.286,74.401,
00:00:04:33,-0.143,-0.73,0.659,-156.189,-48.706,33.63,
00:00:04:50,-0.189,-0.762,0.718,-116.089,35.705,24.536,
00:00:04:66,-0.166,-0.994,0.638,-189.576,14.587,51.025,
00:00:04:83,-0.133,-0.832,0.569,-334.778,-40.894,-0.123,
00:00:04:100,-0.183,-0.961,0.645,-367.432,-59.51,-57.19,
00:00:04:116,-0.178,-0.958,0.736,-475.281,-71.717,-100.525,
00:00:04:133,-0.17,-0.646,0.709,-506.775,-26.917,-72.815,
00:00:04:150,-0.163,-0.5,0.733,-322.144,-3.785,-32.898,
00:00:04:166,-0.113,-0.908,0.782,-366.639,-24.109,0.732,
00:00:04:183,-0.135,-1.126,0.898,-940.796,-38.392,3.112,
00:00:04:200,-0.215,-0.912,0.938,-1458.313,-23.072,-40.345,
00:00:04:216,-0.194,-0.903,0.869,-1748.963,8.239,-144.715,
00:00:04:233,-0.171,-0.642,0.806,-1584.046,10.009,-211.731,
00:00:04:250,-0.262,-0.563,0.934,-985.596,-47.425,-218.079,
00:00:04:266,-0.276,-0.474,0.937,-400.635,-98.206,-156.495,
00:00:04:283,-0.254,-0.573,0.872,-114.747,-166.382,-111.206,
00:00:04:300,-0.279,-0.448,0.845,-140.198,-117.859,-100.159,
00:00:04:316,-0.238,-0.506,0.744,-300.11,-76.05,-140.809,
00:00:04:333,-0.26,-0.53,0.725,-410.279,-40.467,-170.472,
00:00:04:350,-0.268,-0.465,0.742,-367.249,12.023,-203.125,
00:00:04:366,-0.25,-0.391,0.728,-221.192,16.784,-219.483,
00:00:04:383,-0.286,-0.396,0.775,-132.325,115.966,-273.743,
00:00:04:400,-0.258,-0.34,0.769,201.172,160.522,-298.523,
00:00:04:416,-0.273,-0.738,0.689,369.69,207.641,-365.479,
00:00:04:433,-0.302,-0.822,0.644,170.715,255.92,-331.665,
00:00:04:450,-0.276,-0.619,0.76,-112.671,233.825,-299.439,
00:00:04:466,-0.37,-0.612,0.835,-245.85,236.328,-359.864,
00:00:04:483,-0.35,-0.633,0.807,-285.889,250.305,-338.501,
00:00:04:500,-0.456,-0.403,0.835,-241.639,398.376,-253.54,
00:00:04:516,-0.368,-0.479,0.848,-86.426,374.939,-342.164,
00:00:04:533,-0.449,-0.714,0.867,6.347,476.196,-458.374,
00:00:04:550,-0.386,-0.635,0.825,-126.16,530.273,-557.129,
00:00:04:566,-0.319,-0.61,0.783,-91.736,568.054,-702.393,
00:00:04:583,-0.213,-0.749,0.701,-24.842,554.626,-781.556,
00:00:04:600,-0.145,-0.642,0.774,28.625,480.346,-739.502,
00:00:04:616,-0.102,-0.4,0.904,90.881,450.317,-716.37,
00:00:04:633,0.011,-0.402,1.047,68.542,404.907,-637.085,whipLH
00:00:04:650,0.162,-0.127,1.07,105.651,307.373,-456.482,
00:00:04:666,0.199,-0.108,0.995,44.555,145.08,-310.242,
00:00:04:683,0.189,0.001,1.108,-18.311,-2.076,-151.917,
00:00:04:700,0.176,0.088,1.136,-36.255,-80.567,72.265,
00:00:04:716,0.339,-0.055,0.935,355.346,-264.1,504.699,
00:00:04:733,0.323,-0.308,0.868,387.817,-383.057,636.474,
00:00:04:750,0.288,-1.064,0.576,-157.166,-327.21,593.078,
00:00:04:766,0.152,-1.058,0.439,-348.267,-229.859,408.752,
00:00:04:783,0.002,-0.836,0.397,-247.315,-87.952,199.829,
00:00:04:800,-0.159,-0.819,0.401,143.615,78.491,18.493,
00:00:04:816,-0.245,-1.064,0.435,434.997,204.773,-124.756,
00:00:04:833,-0.375,-1.305,0.603,361.633,247.741,-163.269,
00:00:04:850,-0.556,-1.003,0.755,268.249,300.598,-231.324,
00:00:04:866,-0.682,-0.77,0.707,191.162,325.744,-363.709,
00:00:04:883,-0.879,-0.545,0.746,151.001,277.649,-464.112,
00:00:04:900,-0.906,-0.37,0.835,204.528,240.6,-479.31,
00:00:04:916,-0.864,-0.198,0.979,213.806,170.593,-493.226,
00:00:04:933,-0.796,-0.206,1.015,246.338,90.515,-478.882,
00:00:04:950,-0.723,-0.085,0.997,302.063,-19.898,-421.936,
00:00:04:966,-0.508,-0.013,1.037,396.728,-116.333,-301.209,
00:00:04:983,-0.234,-0.049,1.053,361.389,-160.889,-89.844,
00:00:05:0,0.191,0.027,1.21,110.412,-203.553,203.369,
00:00:05:16,0.577,-0.186,1.114,-60.364,-229.004,425.354,
00:00:05:33,1.149,-1.231,1.008,-312.928,-379.7,400.329,
00:00:05:50,0.836,-1.288,0.855,-69.642,-305.237,281.616,
00:00:05:66,0.511,-0.91,0.691,165.466,-237.427,268.188,
00:00:05:83,0.157,-0.91,0.511,536.621,-141.846,268.615,
00:00:05:100,-0.349,-0.894,0.323,760.315,-65.552,298.095,
00:00:05:116,-0.787,-1.007,0.164,837.951,35.217,265.197,
00:00:05:133,-1.009,-0.917,0.191,792.358,175.171,127.258,
00:00:05:150,-1.138,-0.802,0.226,677.917,256.225,-39.673,
00:00:05:166,-1.288,-0.521,0.496,580.688,302.063,-154.602,
00:00:05:183,-1.277,-0.441,0.754,403.259,305.114,-216.492,
00:00:05:200,-1.044,-0.482,0.977,122.863,275.634,-257.264,
00:00:05:216,-0.645,-0.303,1.179,-114.808,161.071,-250,
00:00:05:233,-0.21,-0.288,1.215,-198.304,-4.212,-143.86,
00:00:05:250,0.312,-0.273,1.212,-23.804,-248.23,108.032,
00:00:05:266,0.795,-0.521,1.093,163.94,-507.752,392.578,
00:00:05:283,1.014,-0.83,0.949,164.672,-720.215,533.752,
00:00:05:300,0.96,-1.097,0.744,170.166,-772.095,439.88,
00:00:05:316,0.773,-1.302,0.461,157.47,-715.943,387.756,
00:00:05:333,0.388,-1.256,0.274,197.631,-587.708,342.407,
00:00:05:350,-0.178,-1.32,0.043,284.973,-403.443,324.463,
00:00:05:366,-0.625,-1.342,-0.136,353.271,-182.007,243.957,
00:00:05:383,-0.906,-1.234,0.082,271.484,146.484,30.029,
00:00:05:400,-1.143,-1.303,0.201,78.979,385.986,-261.78,
00:00:05:416,-1.009,-0.714,0.429,-69.519,574.585,-406.739,
00:00:05:433,-1.13,-0.654,0.765,171.692,590.698,-477.539,
00:00:05:450,-0.998,-0.466,0.928,-46.814,549.56,-506.531,
00:00:05:466,-0.633,-0.342,0.976,-23.804,444.458,-535.584,
00:00:05:483,-0.367,-0.394,1.098,-131.958,245.849,-403.87,
00:00:05:500,-0.163,-0.158,1.198,-324.646,90.332,-196.656,
00:00:05:516,0.123,-0.146,1.276,-319.214,-91.431,35.522,
00:00:05:533,0.453,-0.216,1.158,-289.734,-353.394,329.284,
00:00:05:550,0.759,-0.291,0.91,-90.76,-622.01,541.442,
00:00:05:566,0.838,-1.502,0.52,-527.527,-820.435,389.892,
00:00:05:583,0.531,-1.552,0.212,-419.983,-667.42,213.989,
00:00:05:600,0.088,-1.302,0.28,-139.405,-373.658,72.998,
00:00:05:616,-0.649,-1.531,-0.539,822.448,-9.217,-157.105,
00:00:05:633,-0.672,-1.298,-0.375,111.938,149.719,-147.461,
00:00:05:650,-0.965,-0.828,-0.012,96.496,280.517,-359.986,
00:00:05:666,-1.302,-0.922,0.352,183.166,346.801,-488.648,
00:00:05:683,-1.195,-0.459,0.451,197.876,413.025,-506.897,
00:00:05:700,-1.05,-0.368,0.73,336.059,480.468,-602.356,
00:00:05:716,-0.958,-0.335,0.816,224.67,534.423,-567.505,
00:00:05:733,-0.75,-0.142,0.839,104.37,529.358,-470.52,
00:00:05:750,0.125,-0.457,1.29,-197.571,77.514,-39.49,
00:00:05:766,0.338,-0.713,1.25,-99.183,-100.647,97.9,
00:00:05:783,0.73,-1.15,1.144,-148.316,-261.353,189.392,
00:00:05:800,0.972,-1.282,1.01,-205.384,-333.313,223.938,
00:00:05:816,1.09,-1.377,0.8,-308.35,-358.033,174.377,
00:00:05:833,0.965,-1.266,0.751,-337.891,-335.144,120.544,
00:00:05:850,0.678,-0.964,0.629,-328.919,-250.916,139.709,
00:00:05:866,0.345,-0.917,0.401,-186.036,-138.855,209.838,
00:00:05:883,-0.105,-0.896,0.205,-111.39,-44.8,226.257,
00:00:05:900,-0.627,-0.964,0.054,-25.574,32.043,182.495,
00:00:05:916,-1.102,-0.834,-0.015,-0.855,129.638,106.506,
00:00:05:933,-1.368,-0.632,0.063,-26.368,272.155,-91.065,
00:00:05:950,-1.498,-0.57,0.139,-121.644,386.718,-271.668,
00:00:05:966,-1.519,-0.64,0.266,-148.194,379.028,-343.873,
00:00:05:983,-1.396,-0.429,0.649,-284.241,294.494,-415.589,
00:00:06:0,-1.04,-0.5,0.925,-414.185,231.933,-491.089,
00:00:06:16,-0.633,-0.349,1.02,-472.84,160.705,-457.093,
00:00:06:33,-0.164,-0.405,1.041,-421.753,104.614,-341.797,
00:00:06:50,0.122,-0.425,1.201,-461.914,18.798,-181.275,
00:00:06:66,0.475,-0.516,1.221,-276.001,-80.262,14.526,
00:00:06:83,0.665,-0.65,1.219,-31.495,-200.806,181.701,
00:00:06:100,0.842,-1.187,1.131,-113.648,-257.264,222.473,
00:00:06:116,0.838,-1.38,0.961,-490.967,-237.61,164.856,
00:00:06:133,0.725,-1.269,0.694,-525.269,-212.037,81.481,
00:00:06:150,0.436,-1.053,0.529,-286.683,-168.274,42.907,
00:00:06:166,-0.594,-1.007,0.121,492.187,172.363,-145.081,
00:00:06:183,-0.94,-0.781,0.211,539.184,337.707,-302.185,
00:00:06:200,-1.117,-0.597,0.297,639.465,469.421,-468.323,
00:00:06:216,-1.111,-0.485,0.521,684.814,518.127,-441.163,
00:00:06:233,-0.933,-0.261,0.788,539.001,463.623,-451.722,
00:00:06:250,-0.813,-0.122,1.074,250.732,352.6,-460.633,
00:00:06:266,-0.606,-0.009,1.278,-53.04,172.851,-398.682,
00:00:06:283,-0.481,0.06,1.36,-258.24,-15.076,-260.56,
00:00:06:300,-0.308,0.205,1.272,-213.99,-176.636,-15.809,
00:00:06:316,-0.153,-0.009,1.15,-88.807,-286.438,232.055,
00:00:06:333,0.124,-0.137,1.046,1.098,-388.55,477.05,
00:00:06:350,0.527,-1.198,0.793,87.524,-559.754,694.336,
00:00:06:366,0.721,-1.795,0.838,-200.379,-537.842,529.174,
00:00:06:383,0.748,-1.979,0.702,-359.925,-496.521,297.302,
00:00:06:400,0.572,-1.702,0.537,-249.207,-412.598,77.819,
00:00:06:416,0.251,-1.321,0.346,-62.439,-284.607,-62.012,
00:00:06:433,-0.041,-1.053,0.136,231.872,-131.897,-86.06,
00:00:06:450,-0.303,-0.7,0.078,367.614,84.411,-97.657,
00:00:06:466,-0.667,-0.509,0.098,520.507,286.01,-100.281,
00:00:06:483,-1.074,-0.278,0.13,646.362,426.391,-43.152,
00:00:06:500,-1.253,-0.173,0.328,795.654,478.515,-28.626,
00:00:06:516,-1.262,-0.319,0.502,759.765,443.908,-21.058,
00:00:06:533,-1.211,-0.418,0.625,495.178,328.491,15.93,
00:00:06:550,-1.073,-0.442,0.859,158.142,207.58,-91.614,
00:00:06:566,-0.86,-0.82,0.997,-169.678,70.556,-143.372,
00:00:06:583,-0.414,-0.723,1.042,-262.452,-26.368,-135.682,
00:00:06:600,-0.013,-1.064,1.001,-247.925,-103.76,-98.816,
00:00:06:616,0.38,-1.274,1.142,-221.07,-170.289,-74.707,
00:00:06:633,0.677,-1.152,0.987,-296.936,-241.089,-45.472,
00:00:06:650,0.939,-0.833,0.669,-463.196,-304.139,182.19,
00:00:06:666,0.634,-0.697,0.556,-320.374,-280.152,240.783,
00:00:06:683,0.101,-0.685,0.376,18.371,-282.715,345.52,
00:00:06:700,-0.592,-0.742,0.113,270.691,-263.245,423.828,
00:00:06:716,-1.076,-0.862,-0.059,429.931,-165.894,360.778,
00:00:06:733,-1.463,-0.971,-0.047,351.074,11.108,195.556,
00:00:06:750,-1.622,-0.93,-0.029,213.806,188.476,-37.72,
00:00:06:766,-1.621,-1.022,0.247,71.594,256.775,-282.715,
00:00:06:783,-1.509,-0.687,0.487,105.285,308.838,-413.636,
00:00:06:800,-1.104,-0.776,0.631,153.747,352.295,-501.709,
00:00:06:816,-0.586,-0.557,0.833,93.75,361.511,-485.169,
00:00:06:833,-0.132,-0.658,1.086,-46.509,327.331,-402.283,
00:00:06:850,0.241,-0.465,1.255,-214.6,179.199,-186.89,
00:00:06:866,0.647,-0.547,1.343,-236.451,-53.04,13.244,
00:00:06:883,0.947,-0.659,1.25,-196.595,-370.179,232.422,
00:00:06:900,1.075,-0.993,1.031,-93.873,-550.293,331.054,
00:00:06:916,0.894,-1.264,0.651,-336.548,-593.445,308.41,
00:00:06:933,0.645,-1.166,0.21,-380.066,-482.056,242.431,
00:00:06:950,0.227,-1.307,0.013,-182.068,-330.567,176.147,
00:00:06:966,-0.246,-1.319,-0.037,-25.879,-131.348,95.581,
00:00:06:983,-0.615,-1.23,-0.142,154.48,41.076,-9.888,
00:00:07:0,-0.867,-1.239,-0.072,169.189,231.323,-195.618,
00:00:07:16,-0.985,-0.846,-0.008,200.683,440.796,-382.63,
00:00:07:33,-1.07,-0.703,0.214,335.632,562.622,-483.948,
00:00:07:50,-1.108,-0.388,0.57,398.376,596.008,-442.383,
00:00:07:66,-0.991,-0.293,0.638,368.042,569.519,-453.064,
00:00:07:83,-0.774,-0.259,0.84,196.96,438.232,-383.912,
00:00:07:100,-0.484,-0.248,1.048,-120.667,248.779,-292.054,
00:00:07:116,-0.158,-0.105,1.314,-396.302,3.418,-124.573,
00:00:07:133,0.137,-0.271,1.373,-424.073,-200.806,98.571,
00:00:07:150,0.437,-0.444,1.215,-423.218,-374.329,341.552,
00:00:07:166,0.595,-0.879,1.012,-345.704,-533.814,470.214,
00:00:07:183,0.708,-1.178,0.871,-373.414,-591.126,487.915,
00:00:07:200,0.611,-1.439,0.663,-362.977,-563.904,414.184,
00:00:07:216,0.337,-1.48,0.413,-296.387,-494.69,302.612,
00:00:07:233,-0.079,-1.298,0.211,-89.539,-373.352,221.496,
00:00:07:250,-0.549,-1.333,-0.117,239.746,-229.92,109.314,
00:00:07:266,-0.776,-1.153,-0.202,276.001,-24.109,-14.161,
00:00:07:283,-0.888,-0.995,-0.137,263.916,261.718,-190.308,
00:00:07:300,-0.957,-0.769,-0.023,242.37,485.595,-357.85,
00:00:07:316,-0.956,-0.571,0.196,402.832,610.534,-420.227,
00:00:07:333,-0.881,-0.446,0.416,506.652,648.803,-443.665,
00:00:07:350,-0.678,-0.514,0.603,520.568,610.29,-426.392,
00:00:07:366,-0.443,-0.391,0.862,340.881,516.906,-335.755,
00:00:07:383,-0.191,-0.444,0.984,73.791,372.985,-260.071,
00:00:07:400,0.061,-0.342,1.183,-186.219,166.137,-99.854,
00:00:07:416,0.309,-0.485,1.364,-274.231,-89.722,89.538,
00:00:07:433,0.406,-0.532,1.466,-301.026,-366.15,301.391,
00:00:07:450,0.526,-0.824,1.275,-428.528,-574.097,440.857,
00:00:07:466,0.563,-0.925,1.142,-571.351,-676.026,516.723,
00:00:07:483,0.512,-1.19,0.836,-649.353,-677.185,523.254,
00:00:07:500,0.338,-1.317,0.61,-457.825,-586.365,475.463,
00:00:07:516,0.085,-1.501,0.301,-241.7,-415.833,373.413,
00:00:07:533,-0.35,-1.085,0.442,300.109,-111.329,273.62,
00:00:07:550,-0.799,-1.994,-0.801,875.244,131.591,56.945,
00:00:07:566,-0.859,-1.198,-0.437,-150.574,325.927,-250.916,
00:00:07:583,-0.904,-0.796,0.115,-124.085,454.589,-376.587,
00:00:07:600,-1.086,-0.503,0.323,-55.542,466.064,-466.126,
00:00:07:616,-1.042,-0.088,0.435,278.869,436.34,-520.142,
00:00:07:633,-1.138,-0.2,0.549,531.982,403.137,-486.145,
00:00:07:650,-1.001,-0.258,0.628,377.197,394.165,-442.322,
00:00:07:666,-0.8,-0.147,0.704,100.036,351.623,-381.714,
00:00:07:683,-0.597,-0.3,0.962,-176.697,253.418,-275.025,
00:00:07:700,-0.336,-0.241,1.047,-296.204,145.202,-144.165,
00:00:07:716,0.007,-0.601,1.11,-171.326,4.211,-7.447,
00:00:07:733,0.374,-0.946,1.234,-175.11,-124.634,137.634,
00:00:07:750,0.787,-1.35,1.238,-181.397,-223.328,202.575,
00:00:07:766,0.967,-1.52,1.117,-156.067,-293.885,165.039,
00:00:07:783,1,-1.6,0.859,-207.581,-269.959,43.273,
00:00:07:800,0.848,-1.297,0.676,-338.746,-202.088,-14.649,
00:00:07:816,0.636,-0.999,0.58,-225.22,-112.61,15.869,
00:00:07:833,0.369,-0.921,0.491,-33.204,-31.373,87.036,
00:00:07:850,-0.006,-0.867,0.279,173.217,38.513,147.4,
00:00:07:866,-0.524,-0.866,0.111,404.419,88.745,190.307,
00:00:07:883,-1.003,-0.841,0.043,498.84,118.835,199.951,
00:00:07:900,-1.311,-0.687,0.001,498.535,170.288,84.35,
00:00:07:916,-1.527,-0.441,0.093,457.458,242.92,-63.294,
00:00:07:933,-1.526,-0.378,0.187,332.702,283.203,-196.717,
00:00:07:950,-1.443,-0.296,0.451,27.465,260.803,-301.331,
00:00:07:966,-1.013,-0.213,0.603,-330.14,168.518,-366.883,
00:00:07:983,-0.68,-0.012,0.859,-425.66,48.4,-293.824,
00:00:08:0,-0.245,-0.131,0.992,-346.924,-74.524,-116.639,
00:00:08:16,0.208,-0.383,1.19,-162.598,-182.373,120.544,
00:00:08:33,0.642,-0.762,1.088,191.955,-327.271,368.042,
00:00:08:50,0.851,-1.431,1.096,492.431,-430.664,401.001,
00:00:08:66,0.957,-1.962,0.849,213.44,-425.354,282.287,
00:00:08:83,0.903,-1.789,0.437,-57.557,-327.088,111.45,
00:00:08:100,0.567,-1.672,0.264,-136.78,-182.923,-42.42,
00:00:08:116,-0.005,-1.266,0.054,-6.348,-17.64,-53.528,
00:00:08:133,-0.427,-1.066,-0.076,186.401,165.039,-48.157,
00:00:08:150,-0.77,-0.814,-0.062,280.273,371.948,-106.629,
00:00:08:166,-1.076,-0.647,-0.047,408.081,553.1,-161.194,
00:00:08:183,-1.164,-0.559,0.089,488.891,651.184,-213.501,
00:00:08:200,-1.189,-0.541,0.452,319.946,650.329,-264.161,
00:00:08:216,-1.044,-0.426,0.776,74.035,550.781,-366.211,
00:00:08:233,-0.857,-0.398,1.099,-194.458,341.98,-381.653,
00:00:08:250,-0.496,-0.246,1.207,-382.691,112.976,-291.077,
00:00:08:266,-0.222,-0.158,1.262,-283.081,-125.733,-125.916,
00:00:08:283,0.095,-0.404,1.261,-169.007,-330.628,99.609,
00:00:08:300,0.358,-0.542,1.135,-181.214,-508.728,340.454,
00:00:08:316,0.573,-0.819,0.908,-155.152,-638.245,493.896,
00:00:08:333,0.681,-1.253,0.771,-237.183,-670.227,498.596,
00:00:08:350,0.671,-1.357,0.638,-458.619,-619.08,470.52,
00:00:08:366,0.573,-1.506,0.381,-357.178,-501.465,383.667,
00:00:08:383,0.272,-1.475,0.064,-158.936,-411.866,279.113,
00:00:08:400,-0.128,-1.429,-0.217,1.586,-253.479,133.361,
00:00:08:416,-0.417,-1.288,-0.454,60.18,-39.734,-15.015,
00:00:08:433,-0.698,-1.156,-0.473,105.102,225.769,-150.879,
00:00:08:450,-0.864,-1.069,-0.348,217.773,445.007,-291.626,
00:00:08:466,-1.001,-0.761,-0.042,343.628,619.323,-366.639,
00:00:08:483,-0.968,-0.675,0.324,388.122,704.467,-468.323,
00:00:08:500,-0.941,-0.556,0.635,320.922,693.908,-513.184,
00:00:08:516,-0.801,-0.47,0.916,105.59,607.299,-558.106,
00:00:08:533,-0.669,-0.433,1.22,-96.131,453.308,-533.509,
00:00:08:550,-0.388,-0.302,1.359,-229.798,211.181,-397.828,
00:00:08:566,-0.139,-0.159,1.398,-196.167,-28.809,-180.603,
00:00:08:583,0.05,-0.328,1.408,-149.842,-254.212,42.236,
00:00:08:600,0.302,-0.586,1.223,-255.677,-424.683,253.173,
00:00:08:616,0.493,-0.737,1.018,-437.623,-516.114,408.386,
00:00:08:633,0.681,-1.048,0.879,-326.355,-552.002,496.276,
00:00:08:650,0.724,-1.424,0.679,-458.741,-518.555,476.44,whipLH
00:00:08:666,0.675,-1.39,0.442,-485.413,-443.238,417.541,
00:00:08:683,0.442,-1.494,0.217,-351.563,-328.003,296.081,
00:00:08:700,0.212,-1.323,0.048,-264.283,-170.899,188.598,
00:00:08:716,-0.022,-1.324,-0.096,-87.281,-3.296,82.885,
00:00:08:733,-0.371,-1.158,-0.266,3.662,132.934,-7.447,
00:00:08:750,-0.826,-1.12,-0.051,182.922,252.441,-65.735,
00:00:08:766,-1.01,-0.838,0.042,240.722,348.327,-172.12,
00:00:08:783,-1.174,-0.546,0.297,319.885,372.68,-283.814,
00:00:08:800,-1.29,-0.305,0.407,367.736,356.079,-348.511,
00:00:08:816,-1.237,-0.299,0.569,387.573,340.698,-422.669,
00:00:08:833,-1.175,-0.301,0.824,234.436,300.598,-446.534,
00:00:08:850,-0.842,-0.27,0.917,20.507,231.323,-396.851,
00:00:08:866,-0.594,-0.23,1.012,20.324,135.864,-265.503,
00:00:08:883,-0.28,-0.412,1.104,23.132,21.545,-117.127,
00:00:08:900,0.32,-0.742,1.249,-66.407,-122.376,62.5,
00:00:08:916,0.613,-0.979,1.263,-178.467,-276.795,207.885,
00:00:08:933,0.945,-1.247,1.151,-167.115,-429.81,264.831,
00:00:08:950,1.096,-1.538,0.899,-162.598,-473.877,242.248,
00:00:08:966,1.028,-1.465,0.565,-289.917,-396.668,176.818,
00:00:08:983,0.668,-1.333,0.331,-361.756,-220.704,121.46,
00:00:09:0,0.203,-1.028,0.151,-269.898,-37.415,153.991,
00:00:09:16,-0.304,-0.993,-0.08,109.497,100.219,207.641,
00:00:09:33,-0.742,-1.032,-0.04,220.276,176.941,156.555,
00:00:09:50,-1.016,-1.02,-0.043,278.076,254.943,55.236,
00:00:09:66,-1.124,-0.957,0.131,226.562,294.983,-152.588,
00:00:09:83,-1.164,-0.722,0.266,246.521,307.251,-309.632,
00:00:09:100,-1.206,-0.453,0.421,285.705,293.884,-444.825,
00:00:09:116,-1.175,-0.242,0.609,276.123,270.996,-502.686,
00:00:09:133,-1.082,-0.229,0.706,186.279,242.431,-480.286,
00:00:09:150,-0.803,-0.155,0.831,20.813,213.379,-405.03,
00:00:09:166,-0.473,-0.209,1.003,-77.332,146.972,-222.107,
00:00:09:183,-0.119,-0.358,1.116,-221.375,24.292,-19.715,
00:00:09:200,0.187,-0.536,1.276,-80.933,-123.475,174.133,
00:00:09:216,0.596,-0.997,1.152,44.189,-332.581,343.505,
00:00:09:233,0.89,-1.219,0.921,42.236,-474.244,385.07,
00:00:09:250,0.986,-1.534,0.735,11.474,-525.696,354.858,
00:00:09:266,0.865,-1.561,0.463,-253.602,-442.933,270.202,
00:00:09:283,0.557,-1.401,0.23,-249.939,-292.359,210.571,
00:00:09:300,0.139,-1.238,0.06,-70.984,-148.072,205.505,
00:00:09:316,-0.363,-1.168,-0.204,166.32,5.676,193.725,
00:00:09:333,-0.764,-1.138,-0.265,265.991,126.281,112.243,
00:00:09:350,-1.069,-1.044,-0.211,235.229,280.517,-36.622,
00:00:09:366,-1.299,-0.724,0.005,253.906,411.01,-196.289,
00:00:09:383,-1.375,-0.567,0.329,274.047,468.872,-350.159,
00:00:09:400,-1.332,-0.417,0.525,282.837,463.195,-454.956,
00:00:09:416,-1.263,-0.348,0.686,237.976,408.996,-507.081,
00:00:09:433,-0.891,-0.301,0.902,0.183,327.026,-488.892,
00:00:09:450,-0.501,-0.251,1.017,-121.949,214.355,-341.309,
00:00:09:466,0.014,-0.283,1.234,-213.44,39.123,-132.874,
00:00:09:483,0.432,-0.46,1.284,-174.378,-178.956,96.801,
00:00:09:500,0.789,-0.844,1.214,-33.02,-424.317,310.302,
00:00:09:516,1.041,-1.646,1.169,60.913,-607.3,393.066,
00:00:09:533,1.117,-2.01,0.816,-254.761,-668.457,273.62,
00:00:09:550,1.035,-1.276,0.358,-774.842,-549.5,222.229,
00:00:09:566,0.689,-1.462,0.164,-272.217,-361.878,228.454,
00:00:09:583,0.023,-1.394,0.044,-218.506,-209.351,197.937,
00:00:09:600,-0.594,-1.235,-0.287,66.772,-17.09,149.17,
00:00:09:616,-1.039,-1.174,-0.375,62.439,160.827,37.536,
00:00:09:633,-1.193,-0.881,-0.407,25.756,379.882,-154.053,
00:00:09:650,-1.29,-0.673,-0.059,34.423,578.735,-349.793,
00:00:09:666,-1.272,-0.384,0.3,68.847,677.856,-464.844,
00:00:09:683,-1.225,-0.318,0.593,143.371,673.706,-526.551,
00:00:09:700,-1.135,-0.19,0.843,86.059,576.599,-543.946,
00:00:09:716,-0.895,-0.24,1.066,-19.776,425.232,-497.803,
00:00:09:733,-0.469,-0.201,1.165,-167.908,240.295,-343.995,
00:00:09:750,-0.035,-0.328,1.349,-257.996,14.038,-111.451,
00:00:09:766,0.974,-1.29,1.047,-516.236,-579.956,336.486,
00:00:09:783,1.137,-1.363,0.79,-654.908,-633.728,354.98,
00:00:09:800,1.021,-1.242,0.527,-656.8,-587.342,382.69,
00:00:09:816,0.824,-1.049,0.327,-411.744,-474.366,428.344,
00:00:09:833,0.447,-0.971,0.129,112.243,-297.12,450.622,
00:00:09:850,-1.283,-1.976,-0.735,695.8,254.455,84.35,
00:00:09:866,-1.055,-1.263,-0.106,99.67,314.697,-189.881,
00:00:09:883,-1.508,-1.098,0.288,-17.456,372.07,-452.149,
00:00:09:900,-1.373,-0.185,0.516,42.663,376.709,-643.494,
00:00:09:916,-1.385,-0.218,0.737,374.328,379.089,-698.121,
00:00:09:933,-1.103,-0.064,0.891,405.334,389.221,-677.369,
00:00:09:950,-0.829,-0.126,0.873,373.474,376.526,-557.618,
00:00:09:966,-0.52,-0.228,0.96,168.884,322.326,-396.607,
00:00:09:983,-0.09,-0.536,1.101,-96.558,240.234,-269.776,
00:00:10:0,0.222,-0.693,1.24,-345.398,126.22,-121.827,
00:00:10:16,0.516,-0.652,1.257,-355.225,-22.767,73.913,
00:00:10:33,0.681,-0.71,1.234,-177.369,-209.595,247.863,
00:00:10:50,0.849,-0.886,0.953,102.417,-365.906,406.982,
00:00:10:66,0.856,-1.078,0.769,66.406,-463.44,487.732,
00:00:10:83,0.704,-1.361,0.366,-105.591,-472.29,488.342,
00:00:10:100,0.41,-1.498,0.025,-122.559,-421.998,423.767,
00:00:10:116,0.044,-1.69,-0.301,14.587,-291.199,279.663,
00:00:10:133,-0.353,-1.653,-0.676,52.246,-102.967,90.21,
00:00:10:150,-0.845,-1.441,-0.704,47.424,172.546,-107.056,
00:00:10:166,-1.159,-0.924,-0.35,63.537,449.096,-320.435,
00:00:10:183,-1.324,-0.619,0.202,253.051,612.671,-472.962,
00:00:10:200,-1.283,-0.328,0.781,379.394,656.128,-568.543,
00:00:10:216,-1.074,-0.338,1.197,326.904,570.495,-586.853,
00:00:10:233,-0.88,-0.067,1.366,108.764,383.056,-546.326,
00:00:10:250,-0.596,0.004,1.534,-131.165,137.146,-431.214,
00:00:10:266,-0.389,-0.086,1.6,-342.286,-118.531,-230.225,
00:00:10:283,-0.096,-0.156,1.347,-200.501,-313.965,64.025,
00:00:10:300,0.155,-0.514,1.039,-74.646,-412.842,261.657,
00:00:10:316,0.399,-0.77,0.939,-179.81,-464.051,387.268,
00:00:10:333,0.624,-0.884,0.789,-254.151,-503.235,528.137,
00:00:10:350,0.733,-1.138,0.611,-216.98,-531.922,568.969,
00:00:10:366,0.707,-1.411,0.501,-175.477,-488.16,495.056,
00:00:10:383,0.505,-1.566,0.347,-291.81,-406.678,350.952,
00:00:10:400,0.173,-1.505,0.146,-252.442,-253.663,210.449,
00:00:10:416,-0.212,-1.29,-0.04,-137.085,-117.615,135.925,
00:00:10:433,-0.609,-1.277,-0.122,104.553,42.602,73.242,
00:00:10:450,-0.882,-1.169,-0.184,155.639,213.684,-66.224,
00:00:10:466,-1.141,-1.019,-0.131,129.394,392.7,-239.808,
00:00:10:483,-1.22,-0.773,0.042,180.297,543.274,-414.917,
00:00:10:500,-1.188,-0.519,0.264,220.092,618.774,-528.992,
00:00:10:516,-1.035,-0.372,0.477,245.544,627.868,-599.793,
00:00:10:533,-0.806,-0.305,0.674,262.756,588.012,-579.041,
00:00:10:550,-0.532,-0.314,0.875,130.859,506.347,-507.081,
00:00:10:566,-0.192,-0.303,1.138,-76.111,386.474,-366.761,
00:00:10:583,0.057,-0.387,1.377,-167.054,187.5,-192.017,
00:00:10:600,0.38,-0.624,1.459,-127.137,-74.891,21.362,
00:00:10:616,0.615,-0.783,1.324,-107.361,-309.51,206.726,
00:00:10:633,0.799,-0.931,1.045,-165.406,-495.545,342.773,
00:00:10:650,0.907,-1.086,0.86,-289.734,-553.406,423.828,
00:00:10:666,0.878,-1.155,0.666,-381.592,-515.32,468.933,
00:00:10:683,0.696,-1.193,0.517,-331.971,-430.97,486.633,
00:00:10:700,0.427,-1.257,0.409,-202.027,-329.651,465.271,
00:00:10:716,0.035,-1.238,0.273,-70.252,-223.267,440.368,
00:00:10:733,-0.381,-1.266,0.044,77.087,-152.588,391.662,
00:00:10:750,-0.831,-1.389,-0.111,231.384,-76.905,315.002,
00:00:10:766,-1.138,-1.32,-0.27,226.318,19.958,93.872,
00:00:10:783,-1.4,-0.946,-0.295,238.769,202.88,-180.97,
00:00:10:800,-1.421,-0.774,-0.093,111.267,289.062,-390.381,
00:00:10:816,-1.443,-0.187,0.1,196.411,389.953,-586.548,
00:00:10:833,-1.375,-0.099,0.44,247.985,402.404,-631.897,
00:00:10:850,-1.115,-0.062,0.672,105.163,404.297,-592.957,
00:00:10:866,-0.763,-0.03,0.844,69.152,369.995,-469.361,
00:00:10:883,-0.391,-0.23,1.064,-26.246,265.503,-259.766,
00:00:10:900,-0.063,-0.488,1.239,-38.697,100.708,-106.446,
00:00:10:916,0.186,-0.757,1.329,-135.682,-118.409,44.006,
00:00:10:933,0.525,-0.925,1.306,-198.365,-316.407,188.11,
00:00:10:950,0.877,-1.068,1.132,-55.603,-497.864,327.27,
00:00:10:966,1.039,-1.485,0.885,-91.492,-572.51,349.243,
00:00:10:983,1.081,-1.614,0.588,-178.162,-524.476,291.076,
00:00:11:0,0.838,-1.555,0.333,-219.056,-370.606,190.002,
00:00:11:16,0.49,-1.376,0.156,-220.154,-176.88,143.554,
00:00:11:33,0.017,-1.226,-0.096,-17.945,34.484,133.85,
00:00:11:50,-0.448,-1.128,-0.154,106.384,178.833,73.791,
00:00:11:66,-0.889,-0.988,-0.077,219.421,307.434,5.798,
00:00:11:83,-1.245,-0.749,-0.034,329.956,421.386,-117.615,
00:00:11:100,-1.418,-0.636,0.203,362.182,473.083,-241.211,
00:00:11:116,-1.512,-0.45,0.425,353.881,471.008,-368.226,
00:00:11:133,-1.457,-0.313,0.77,216.369,416.626,-486.756,
00:00:11:150,-1.163,-0.136,0.95,-54.688,295.349,-531.983,
00:00:11:166,-0.81,0.005,1.098,-189.27,176.757,-405.579,
00:00:11:183,0.527,-0.668,1.306,21.24,-326.477,346.069,
00:00:11:200,0.78,-1.173,1.232,-24.781,-500.733,469.36,
00:00:11:216,0.963,-1.488,0.988,-248.841,-588.868,478.332,
00:00:11:233,0.961,-1.649,0.748,-321.9,-626.343,402.588,
00:00:11:250,0.737,-1.477,0.436,-430.909,-589.478,328.979,
00:00:11:266,0.351,-1.423,0.067,-304.81,-464.661,275.512,
00:00:11:283,-0.095,-1.282,-0.181,-171.143,-286.011,213.012,
00:00:11:300,-0.471,-1.25,-0.359,26.794,-85.694,141.784,
00:00:11:316,-1.022,-1.595,-0.907,525.39,227.783,-27.1,
00:00:11:333,-1.023,-0.913,-0.601,-107.422,432.861,-221.924,
00:00:11:350,-1.192,-0.945,-0.202,104.065,564.575,-392.456,
00:00:11:366,-0.979,-0.213,0.847,252.319,569.824,-658.509,
00:00:11:383,-0.804,-0.198,1.023,265.869,478.332,-577.271,
00:00:11:400,-0.496,-0.299,1.205,116.272,331.604,-416.993,
00:00:11:416,-0.213,-0.424,1.287,-19.837,150.756,-233.521,
00:00:11:433,-0.004,-0.647,1.367,-60.975,-34.913,-77.149,
00:00:11:450,0.778,-1.007,1.005,-293.702,-384.644,356.384,
00:00:11:466,0.907,-1.229,0.882,-318.482,-430.054,402.282,
00:00:11:483,0.985,-1.435,0.678,-396.058,-422.547,373.657,
00:00:11:500,0.863,-1.55,0.477,-404.419,-348.145,310.241,
00:00:11:516,0.553,-1.418,0.273,-384.766,-261.048,248.474,
00:00:11:533,-0.784,-1.02,-0.154,100.952,83.74,125.549,
00:00:11:550,-1.112,-0.724,-0.196,218.689,197.387,20.385,
00:00:11:566,-1.412,-0.567,-0.084,246.032,273.437,-77.942,
00:00:11:583,-1.47,-0.438,0.128,267.883,310.669,-226.197,
00:00:11:600,-1.163,-0.117,0.759,168.396,230.285,-449.646,
00:00:11:616,-0.885,-0.184,0.879,186.523,152.832,-341.858,
00:00:11:633,-0.497,-0.378,0.957,173.401,41.992,-189.759,
00:00:11:650,-0.066,-0.584,1.024,123.657,-73.426,-6.897,
00:00:11:666,0.84,-1.123,1.003,-77.271,-356.324,233.703,
00:00:11:683,1.197,-1.597,0.593,-175.538,-446.778,205.993,
00:00:11:700,0.722,-1.484,0.296,-184.754,-297.974,159.057,
00:00:11:716,0.27,-1.373,0.133,-89.539,-169.983,157.653,
00:00:11:733,-0.241,-1.15,-0.086,64.758,-25.208,168.213,
00:00:11:750,-0.738,-1.2,-0.07,179.382,88.989,108.642,
00:00:11:766,-1.136,-0.861,-0.116,341.491,209.045,26.184,
00:00:11:783,-1.372,-0.701,0.026,426.574,341.735,-93.079,
00:00:11:800,-1.533,-0.259,0.584,307.373,497.009,-323.548,
00:00:11:816,-1.472,-0.148,0.821,157.898,431.945,-384.827,
00:00:11:833,-1.285,-0.079,0.995,10.009,284.729,-417.542,
00:00:11:850,-0.864,-0.213,1.178,-186.28,95.336,-297.12,
00:00:11:866,0.543,-0.861,1.062,-84.534,-371.399,265.258,
00:00:11:883,0.886,-1.258,0.999,-100.708,-505.86,382.08,
00:00:11:900,1.082,-1.606,0.735,-188.355,-558.106,350.28,
00:00:11:916,1.005,-1.784,0.507,-387.146,-527.71,252.014,
00:00:11:933,0.817,-1.616,0.294,-469.605,-417.298,161.438,
00:00:11:950,0.372,-1.324,0.017,-428.345,-290.284,132.995,
00:00:11:966,-0.117,-1.182,-0.204,-172.852,-127.686,123.291,
00:00:11:983,-0.59,-1.09,-0.383,9.094,46.081,74.035,
00:00:12:0,-0.925,-1.113,-0.45,5.676,274.597,-56.946,
00:00:12:16,-1.18,-0.862,-0.216,-40.039,450.073,-257.935,
00:00:12:33,-1.381,-0.74,0.204,122.619,524.109,-403.504,
00:00:12:50,-1.255,-0.396,0.368,254.028,558.715,-543.702,
00:00:12:66,-1.126,-0.37,0.602,349.06,576.599,-617.066,
00:00:12:83,-0.901,-0.265,0.873,240.6,544.616,-589.112,
00:00:12:100,-0.617,-0.258,0.991,101.989,446.228,-503.724,
00:00:12:116,-0.353,-0.32,1.23,-60.791,245.971,-357.85,
00:00:12:133,-0.116,-0.361,1.339,-164.429,42.663,-170.716,
00:00:12:150,0.183,-0.528,1.387,-315.186,-194.825,42.175,
00:00:12:166,0.402,-0.732,1.189,-393.921,-379.09,233.642,
00:00:12:183,0.608,-1.006,1.094,-476.502,-466.919,340.881,
00:00:12:200,0.722,-1.068,0.889,-508.179,-495.301,420.959,
00:00:12:216,0.803,-1.189,0.673,-426.88,-476.624,463.806,
00:00:12:233,0.73,-1.357,0.535,-284.363,-393.494,449.646,
00:00:12:250,0.594,-1.355,0.284,142.395,-243.531,417.907,
00:00:12:266,0.36,-1.714,-0.1,43.457,-95.704,293.518,
00:00:12:283,0.112,-1.377,-0.02,-233.338,11.962,154.663,
00:00:12:300,-0.23,-1.469,0.059,-38.88,122.375,61.035,
00:00:12:316,-0.538,-1.075,0.127,46.875,233.642,-53.284,
00:00:12:333,-0.837,-0.907,0.201,245.3,331.359,-133.118,
00:00:12:350,-1.124,-0.671,0.266,502.197,358.642,-173.89,
00:00:12:366,-1.491,-0.451,0.163,654.48,364.441,-252.564,
00:00:12:383,-1.553,-0.253,0.221,512.268,333.984,-331.36,
00:00:12:400,-1.417,-0.163,0.414,158.874,302.246,-421.814,
00:00:12:416,-1.289,0.063,0.683,-190.674,318.908,-479.798,
00:00:12:433,-1.177,-0.022,0.747,-72.205,300.293,-417.847,
00:00:12:450,-0.872,-0.114,0.841,-97.84,224.121,-291.138,
00:00:12:466,-0.589,-0.376,0.931,143.066,107.422,-149.109,
00:00:12:483,-0.087,-0.827,0.978,93.689,-2.686,-28.26,
00:00:12:500,0.993,-1.654,0.896,-368.836,-275.574,22.461,
00:00:12:516,1.083,-1.6,0.812,-394.471,-308.411,-2.137,
00:00:12:533,0.999,-1.335,0.747,-456.055,-286.316,2.929,
00:00:12:550,0.797,-1.05,0.614,-418.152,-211.548,74.096,
00:00:12:566,0.584,-0.949,0.576,-344.544,-122.376,158.142,
00:00:12:583,0.391,-0.918,0.551,-261.048,-50.782,206.848,
00:00:12:600,0.077,-1.059,0.562,-189.515,-22.706,247.253,
00:00:12:616,-0.271,-0.994,0.371,-101.319,-26.612,250.427,
00:00:12:633,-0.816,-1,0.225,-77.393,-34.913,187.255,
00:00:12:650,-1.21,-0.85,0.117,-27.832,45.654,36.438,whipLH
00:00:12:666,-1.341,-0.626,-0.01,-36.683,154.785,-129.334,
00:00:12:683,-1.604,-0.433,-0.044,110.046,240.6,-244.751,
00:00:12:700,-1.532,-0.495,0.276,78.491,273.071,-334.29,
00:00:12:716,-1.334,-0.037,0.374,-107.789,309.082,-443.116,
00:00:12:733,-1.25,-0.115,0.664,-19.227,244.69,-473.938,
00:00:12:750,-0.914,-0.177,0.74,-10.132,155.639,-402.771,
00:00:12:766,-0.707,-0.29,0.777,114.624,67.993,-292.786,
00:00:12:783,-0.422,-0.469,0.826,101.257,6.042,-178.284,
00:00:12:800,-0.063,-0.573,0.929,-114.38,-56.092,-13.672,
00:00:12:816,0.26,-0.8,1.118,-244.141,-118.042,125.244,
00:00:12:833,0.475,-0.921,1.249,-418.091,-200.257,229.736,
00:00:12:850,0.726,-1.254,1.303,-502.076,-331.055,307.8,
00:00:12:866,1.087,-1.262,1.605,-443.665,-557.312,297.79,
00:00:12:883,0.762,-1.359,1.187,629.577,-494.812,362.854,
00:00:12:900,0.798,-1.607,0.187,64.209,-444.336,233.093,
00:00:12:916,0.422,-1.156,0.297,-388.245,-359.681,111.206,
00:00:12:933,0.149,-0.922,0.234,-260.498,-195.13,119.384,
00:00:12:950,-0.159,-1.002,0.003,38.635,-0.855,115.478,
00:00:12:966,-0.589,-0.922,-0.102,333.801,182.251,63.11,
00:00:12:983,-0.86,-1.127,-0.064,527.404,315.002,-46.204,
00:00:13:0,-1.076,-0.849,0.122,479.675,407.653,-167.725,
00:00:13:16,-1.152,-0.717,0.34,431.03,429.443,-332.276,
00:00:13:33,-1.229,-0.394,0.456,426.269,403.32,-414.673,
00:00:13:50,-1.146,-0.27,0.625,435.974,373.901,-455.445,
00:00:13:66,-1.047,-0.276,0.797,325.012,333.191,-449.952,
00:00:13:83,-0.864,-0.099,0.891,121.338,281.311,-354.31,
00:00:13:100,-0.711,-0.147,0.946,57.739,206.848,-233.033,
00:00:13:116,-0.54,-0.217,1.056,-6.409,97.473,-56.031,
00:00:13:133,-0.172,-0.527,1.133,-64.576,-46.082,133.056,
00:00:13:150,-0.027,-0.692,1.161,-178.284,-220.704,278.076,
00:00:13:166,0.204,-1.002,1.102,-423.462,-391.663,337.463,
00:00:13:183,0.478,-1.162,1.029,-559.082,-518.799,334.045,
00:00:13:200,0.651,-1.461,0.843,-567.994,-572.327,295.837,
00:00:13:216,0.752,-1.366,0.614,-500.611,-538.453,236.511,
00:00:13:233,0.681,-1.336,0.434,-47.73,-424.256,202.209,
00:00:13:250,0.444,-1.453,-0.101,195.19,-157.227,122.436,
00:00:13:266,0.225,-1.026,-0.119,-347.718,13.794,52.124,
00:00:13:283,0.017,-1.002,0.027,-109.925,220.642,40.039,
00:00:13:300,-0.208,-1.094,0.217,-2.625,318.481,4.15,
00:00:13:316,-0.541,-1.051,0.324,260.864,345.214,-61.707,
00:00:13:333,-0.885,-1.02,0.315,417.114,318.054,-170.411,
00:00:13:350,-1.096,-0.896,0.377,624.45,302.063,-216.98,
00:00:13:366,-1.136,-0.578,0.383,584.106,337.097,-346.619,
00:00:13:383,-1.091,-0.121,0.752,199.768,378.357,-384.888,
00:00:13:400,-0.804,-0.122,0.933,-41.077,303.405,-287.354,
00:00:13:416,-0.557,-0.183,1.14,-176.331,157.714,-128.968,
00:00:13:433,-0.284,-0.346,1.239,-93.018,-49.561,37.902,
00:00:13:450,0.011,-0.687,1.19,-39.49,-241.028,208.374,
00:00:13:466,0.228,-0.898,1.115,-146.79,-391.724,313.293,
00:00:13:483,0.45,-1.058,0.982,-224.366,-516.968,371.154,
00:00:13:500,0.64,-1.28,0.768,-225.953,-608.765,397.094,
00:00:13:516,0.761,-1.444,0.643,-337.403,-627.564,354.37,
00:00:13:533,0.741,-1.499,0.447,-369.629,-556.275,282.226,
00:00:13:550,0.599,-1.469,0.296,-364.93,-409.241,186.645,
00:00:13:566,0.346,-1.331,0.128,-309.327,-205.445,104.614,
00:00:13:583,0.094,-1.206,-0.035,-201.783,-29.358,73.425,
00:00:13:600,-1.072,-0.843,-0.051,183.715,363.159,-72.632,
00:00:13:616,-1.212,-0.719,0.089,356.445,396.301,-129.639,
00:00:13:633,-1.23,-0.614,0.332,304.382,425.964,-260.987,
00:00:13:650,-1.284,-0.307,0.524,124.511,393.31,-360.108,
00:00:13:666,-1.339,-0.362,0.666,184.57,318.664,-431.519,
00:00:13:683,-1.257,-0.119,0.673,134.887,234.314,-463.196,
00:00:13:700,-1.154,-0.213,0.737,186.279,169.128,-403.504,
00:00:13:716,-0.886,-0.236,0.713,170.532,96.923,-298.34,
00:00:13:733,-0.578,-0.387,0.682,104.248,31.982,-165.589,
00:00:13:750,-0.251,-0.672,0.732,50.72,-29.725,-60.791,
00:00:13:766,0.656,-1.307,0.992,-500.733,-199.402,118.591,
00:00:13:783,1.275,-1.749,1.614,-270.691,-505.982,-90.21,
00:00:13:800,0.737,-1.043,0.828,39.733,-417.664,94.177,
00:00:13:816,0.751,-0.94,0.271,-238.221,-367.432,161.01,
00:00:13:833,0.758,-1.148,0.578,-481.934,-316.529,154.724,
00:00:13:850,-0.071,-1.074,0.424,176.513,-1.16,300.415,
00:00:13:866,-0.473,-1.154,0.35,191.772,6.591,293.64,
00:00:13:883,-0.789,-1.158,0.279,225.341,-7.264,222.229,
00:00:13:900,-1.078,-1.028,0.141,236.816,-8.301,104.675,
00:00:13:916,-1.278,-0.802,0.068,274.963,42.663,-19.715,
00:00:13:933,-1.359,-0.875,-0.108,544.799,139.587,-131.714,
00:00:13:950,-1.338,-0.239,0.113,322.815,292.358,-275.269,
00:00:13:966,-1.258,-0.308,0.356,298.339,370.727,-304.139,
00:00:13:983,-0.925,-0.373,0.533,79.895,371.032,-290.039,
00:00:14:0,-0.725,-0.181,0.787,11.23,325.561,-237.671,
00:00:14:16,-0.479,-0.413,1.102,-162.049,187.988,-154.847,
00:00:14:33,0.339,-1.07,1.131,-232.544,-432.129,227.844,
00:00:14:50,0.547,-1.453,0.876,-192.383,-519.043,236.877,
00:00:14:66,0.672,-1.445,0.526,-343.079,-509.095,183.41,
00:00:14:83,0.678,-1.499,0.257,-280.823,-393.86,99.792,
00:00:14:100,0.464,-1.364,0.049,-241.211,-199.83,12.634,
00:00:14:116,0.208,-1.165,-0.104,-17.945,13.671,-26.49,
00:00:14:133,-0.047,-1.074,-0.23,205.261,221.069,-39.978,
00:00:14:150,-0.297,-1.006,-0.204,317.382,401.611,-60.669,
00:00:14:166,-0.572,-0.964,-0.085,573.852,515.258,-132.63,
00:00:14:183,-0.812,-0.804,0.147,669.433,608.276,-213.807,
00:00:14:200,-0.949,-0.623,0.375,791.748,653.32,-250.733,
00:00:14:216,-1.042,-0.462,0.56,731.811,636.413,-270.691,
00:00:14:233,-0.988,-0.44,0.763,498.901,518.188,-287.232,
00:00:14:250,-0.94,-0.387,0.906,194.458,348.327,-305.542,
00:00:14:266,-0.739,-0.49,1.071,-246.644,104.126,-287.293,
00:00:14:283,-0.631,-0.277,1.254,-360.901,-74.036,-155.457,
00:00:14:300,-0.34,-0.602,1.04,6.774,-168.519,12.512,
00:00:14:316,-0.151,-0.752,0.931,-41.748,-246.644,129.089,
00:00:14:333,0.559,-0.931,0.747,257.995,-531.8,444.091,
00:00:14:350,0.748,-1.272,0.606,278.015,-624.207,471.557,
00:00:14:366,0.757,-1.461,0.448,18.676,-636.536,404.663,
00:00:14:383,0.691,-1.692,0.202,-254.639,-592.652,283.447,
00:00:14:400,0.386,-1.562,0.087,-387.146,-485.596,169.006,
00:00:14:416,-0.994,-1.228,-1.178,337.524,113.098,-57.679,
00:00:14:433,-0.921,-0.907,-0.655,-252.991,339.355,-88.135,
00:00:14:450,-0.615,-0.439,-0.086,-327.149,473.755,-135.071,
00:00:14:466,-1.027,-0.511,0.291,-72.815,547.302,-254.09,
00:00:14:483,-1.042,-0.393,0.542,-78.553,499.45,-282.593,
00:00:14:500,-0.782,-0.62,0.756,-69.275,232.055,-384.766,
00:00:14:516,-0.572,-0.756,0.71,-198.06,90.576,-353.516,
00:00:14:533,-0.461,-0.753,0.71,-319.825,-7.142,-295.838,
00:00:14:550,-0.304,-0.8,0.752,-494.629,-55.542,-242.371,
00:00:14:566,-0.127,-0.696,0.781,-757.264,-91.797,-154.053,
00:00:14:583,0.128,-0.576,0.905,-796.387,-130.372,-8.606,
00:00:14:600,0.457,-0.762,0.971,-502.442,-215.882,199.951,
00:00:14:616,0.741,-1.002,0.919,-109.192,-314.576,342.102,
00:00:14:633,0.928,-1.474,0.822,16.906,-352.784,313.049,
00:00:14:650,0.643,-1.541,0.378,-248.841,-191.956,24.658,
00:00:14:666,0.205,-1.256,0.388,-223.694,-126.648,-25.269,
00:00:14:683,-0.136,-1.03,0.294,44.25,-43.58,-1.465,
00:00:14:700,-0.569,-0.902,0.039,367.187,147.033,-18.982,
00:00:14:716,-0.964,-0.818,-0.085,404.602,248.108,-74.585,
00:00:14:733,-1.195,-0.535,-0.065,379.577,357.483,-134.705,
00:00:14:750,-1.299,-0.399,0.083,385.376,413.025,-175.721,
00:00:14:766,-1.28,-0.284,0.266,338.195,443.908,-234.498,
00:00:14:783,-1.211,-0.196,0.411,250.427,416.504,-275.208,
00:00:14:800,-0.659,-0.422,0.753,131.836,221.374,-159.607,
00:00:14:816,-0.518,-0.723,0.719,84.472,103.82,-103.577,
00:00:14:833,-0.268,-0.832,0.804,65.734,-30.823,-68.299,
00:00:14:850,-0.016,-1.007,0.903,-14.1,-136.414,4.089,
00:00:14:866,0.508,-1.117,0.865,-29.297,-281.861,84.289,
00:00:14:883,0.75,-1.379,0.949,-237.549,-391.175,110.046,
00:00:14:900,0.916,-1.322,0.872,-313.172,-449.158,116.15,
00:00:14:916,0.845,-1.327,0.723,-279.969,-435.303,124.633,
00:00:14:933,0.7,-1.176,0.588,-215.027,-353.516,139.587,
00:00:14:950,0.411,-1.114,0.457,-149.72,-229.554,179.382,
00:00:14:966,0.106,-1.108,0.252,-36.988,-131.775,215.576,
00:00:14:983,-0.237,-1.197,0.057,65.673,-30.945,201.843,
00:00:15:0,-0.569,-1.288,-0.069,96.374,62.133,118.896,
00:00:15:16,-0.819,-1.145,-0.058,96.313,198.852,-13.123,
00:00:15:33,-0.98,-1.015,-0.029,125.732,352.966,-155.457,
00:00:15:50,-1.025,-0.812,0.175,136.535,451.233,-263.123,
00:00:15:66,-1.11,-0.546,0.36,232.727,506.347,-316.407,
00:00:15:83,-1.095,-0.376,0.522,195.922,496.46,-342.53,
00:00:15:100,-1.037,-0.28,0.677,103.027,403.564,-349.122,
00:00:15:116,-0.912,-0.265,0.835,-50.293,218.383,-316.956,
00:00:15:133,-0.756,-0.266,0.948,-269.227,29.113,-229.371,
00:00:15:150,-0.603,-0.201,0.999,-307.312,-127.442,-77.942,
00:00:15:166,-0.379,-0.271,0.938,-191.834,-233.826,95.459,
00:00:15:183,-0.053,-0.618,0.874,-51.27,-358.582,269.47,
00:00:15:200,0.12,-0.986,0.77,116.455,-426.636,344.909,
00:00:15:216,0.466,-1.381,0.759,236.755,-440.918,341.125,
00:00:15:233,0.693,-1.662,0.356,262.817,-408.081,213.989,
00:00:15:250,0.772,-1.873,0.107,19.165,-296.875,42.236,
00:00:15:266,0.65,-1.654,-0.021,-445.13,-112.671,-148.133,
00:00:15:283,0.507,-1.294,-0.023,-616.822,47.79,-220.032,
00:00:15:300,0.335,-0.951,0.002,-438.355,158.203,-182.557,
00:00:15:316,0.185,-0.762,-0.078,-155.701,241.455,-83.008,
00:00:15:333,-0.02,-0.892,-0.031,-22.339,331.298,-29.175,
00:00:15:350,-0.206,-0.886,-0.044,57.861,413.33,-3.724,
00:00:15:366,-0.594,-0.93,0.139,267.334,484.68,-49.622,
00:00:15:383,-0.974,-0.882,0.34,298.767,496.338,-127.503,
00:00:15:400,-1.22,-0.888,0.606,469.909,482.666,-199.036,
00:00:15:416,-1.253,-0.754,0.781,388.977,443.115,-282.898,
00:00:15:433,-0.899,-0.487,1.044,66.345,254.333,-442.139,
00:00:15:450,-0.716,-0.421,1.136,-45.166,91.857,-395.997,
00:00:15:466,-0.408,-0.277,1.151,-263.855,-67.749,-273.743,
00:00:15:483,-0.19,-0.31,1.065,-139.71,-172.669,-51.575,
00:00:15:500,0.001,-0.367,0.907,-111.939,-247.742,161.132,
00:00:15:516,0.178,-0.485,0.809,-120.728,-367.432,336.303,
00:00:15:533,0.37,-0.809,0.741,-60.791,-484.559,488.647,
00:00:15:550,0.508,-1.177,0.545,20.69,-573.304,533.874,
00:00:15:566,0.578,-1.621,0.404,-156.739,-588.807,424.865,
00:00:15:583,0.565,-1.872,0.192,-324.952,-525.635,260.864,
00:00:15:600,0.44,-1.722,0.056,-426.941,-397.828,70.251,
00:00:15:616,0.205,-1.445,0.013,-371.705,-267.945,-52.857,
00:00:15:633,-0.043,-1.092,-0.035,-222.522,5201.153,6388.223,
00:00:15:650,-0.193,-0.956,-0.006,-63.355,83.068,-41.382,
00:00:15:666,-0.337,-0.969,0.034,-85.938,257.141,-51.636,
00:00:15:683,-0.528,-0.862,0.23,-102.662,383.545,-87.403,
00:00:15:700,-0.869,-0.694,0.231,-39.185,416.381,-101.319,
00:00:15:716,-1.181,-0.601,0.301,169.128,349.487,-149.048,
00:00:15:733,-1.272,-0.45,0.427,189.331,287.902,-229.859,
00:00:15:750,-1.292,-0.339,0.531,105.835,252.197,-322.144,
00:00:15:766,-1.241,-0.234,0.551,-47.486,221.313,-376.343,
00:00:15:783,-1.129,-0.184,0.537,75.012,167.785,-352.845,
00:00:15:800,-0.919,-0.335,0.568,154.113,116.027,-276.307,
00:00:15:816,-0.534,-0.517,0.686,67.321,99.548,-175.599,
00:00:15:833,-0.102,-0.737,0.761,46.447,98.571,-42.969,
00:00:15:850,0.259,-1.026,0.897,20.752,52.795,39.611,
00:00:15:866,0.699,-1.388,0.975,-59.876,-35.523,72.143,
00:00:15:883,1.002,-1.579,0.998,-171.326,-129.7,43.273,
00:00:15:900,1.113,-1.491,0.933,-222.718,-196.9,12.634,
00:00:15:916,0.973,-1.285,0.751,-256.836,-217.102,16.723,
00:00:15:933,0.708,-0.96,0.602,-310.669,-223.267,90.393,
00:00:15:950,0.468,-0.823,0.57,-222.535,-200.928,208.618,
00:00:15:966,0.153,-0.748,0.432,-120.057,-169.922,339.66,
00:00:15:983,-0.173,-0.807,0.308,52.673,-154.664,431.091,
00:00:16:0,-0.573,-0.997,0.162,200.5,-157.593,439.575,
00:00:16:16,-0.941,-1.095,-0.043,228.454,-144.288,320.861,
00:00:16:33,-1.386,-1.12,0.148,445.251,-14.1,29.296,
00:00:16:50,-1.384,-1.161,-0.327,288.208,73.669,-141.236,
00:00:16:66,-1.223,-0.532,-0.036,-14.71,206.787,-366.333,
00:00:16:83,-1.079,-0.375,0.43,-110.718,360.656,-549.439,
00:00:16:100,-0.722,-0.252,0.593,70.922,385.864,-469.788,
00:00:16:116,-0.506,-0.262,0.793,177.673,360.412,-324.28,
00:00:16:133,-0.242,-0.409,0.958,40.649,272.338,-146.119,
00:00:16:150,0.158,-0.609,1.091,-23.377,136.779,-7.508,
00:00:16:166,0.249,-0.883,1.22,-16.724,-55.787,110.962,
00:00:16:183,0.632,-1.345,0.745,-244.812,-497.254,209.716,
00:00:16:200,0.566,-1.291,0.49,-350.037,-489.991,172.241,
00:00:16:216,0.486,-1.224,0.357,-446.534,-416.687,153.991,
00:00:16:233,0.325,-1.172,0.272,-370.606,-274.292,133.422,
00:00:16:250,0.121,-1.083,0.203,-185.547,-135.376,115.844,
00:00:16:266,-0.05,-1.173,0.055,-27.283,25.024,81.543,
00:00:16:283,-0.217,-1.242,-0.004,89.904,145.691,37.963,
00:00:16:300,-0.423,-1.079,0.047,148.986,248.84,-41.932,
00:00:16:316,-0.699,-0.938,0.173,284.118,309.204,-115.418,
00:00:16:333,-0.926,-0.704,0.226,399.047,349.975,-161.011,
00:00:16:350,-1.084,-0.593,0.296,515.686,363.464,-199.891,
00:00:16:366,-1.127,-0.465,0.388,554.199,362.487,-224.915,
00:00:16:383,-1.107,-0.362,0.47,455.383,357.849,-270.874,
00:00:16:400,-1.057,-0.354,0.533,294.494,332.763,-282.776,
00:00:16:416,-0.941,-0.318,0.635,107.605,267.7,-287.415,
00:00:16:433,-0.802,-0.416,0.768,5.432,162.78,-231.751,
00:00:16:450,-0.085,-0.81,0.887,-102.967,-189.82,69.091,
00:00:16:466,0.211,-1.021,0.888,-239.808,-323.853,162.475,
00:00:16:483,0.5,-1.17,0.807,-284.18,-406.861,210.998,
00:00:16:500,0.786,-1.52,0.741,-385.071,-459.412,179.992,
00:00:16:516,0.959,-1.545,0.53,-435.608,-460.144,128.173,
00:00:16:533,0.399,-1.356,0.096,-494.935,-108.399,-46.143,
00:00:16:550,0.073,-1.151,0.232,-505.31,33.996,-70.74,
00:00:16:566,-0.234,-1.039,0.205,-368.103,153.198,-73.67,
00:00:16:583,-0.423,-0.87,0.221,-223.023,252.746,-69.153,
00:00:16:600,-0.665,-0.769,0.238,-47.425,308.654,-78.431,
00:00:16:616,-0.944,-0.489,0.414,179.504,309.021,-138.428,
00:00:16:633,-1.131,-0.49,0.465,287.719,265.197,-165.833,
00:00:16:650,-1.266,-0.325,0.379,447.692,234.741,-183.838,whipLH
00:00:16:667,-1.274,-0.364,0.454,502.136,194.213,-225.708,
00:00:16:683,-1.156,-0.357,0.446,321.96,170.593,-271.607,
00:00:16:700,-0.915,-0.368,0.44,130.005,171.325,-271.607,
00:00:16:717,-0.733,-0.441,0.498,-38.697,168.884,-242.371,
00:00:16:733,-0.51,-0.484,0.672,-132.386,182.922,-161.011,
00:00:16:750,-0.302,-0.687,0.885,-231.995,178.466,-64.27,
00:00:16:767,0.045,-0.936,1.102,-407.471,108.642,32.226,
00:00:16:783,0.335,-1.158,1.201,-390.686,-35.218,109.192,
00:00:16:800,0.532,-1.35,1.18,-306.031,-183.777,103.149,
00:00:16:817,0.853,-1.402,1.087,-234.742,-387.635,17.028,
00:00:16:833,0.821,-1.429,0.573,-116.211,-389.832,67.321,
00:00:16:850,0.743,-1.036,0.274,-485.108,-360.718,29.419,
00:00:16:867,0.596,-0.833,0.281,-540.345,-279.602,100.525,
00:00:16:883,0.415,-0.785,0.138,-294.373,-145.508,186.828,
00:00:16:900,0.203,-0.914,0.072,-21.546,-25.818,240.966,
00:00:16:917,0.013,-1.173,0.009,139.282,97.351,228.698,
00:00:16:933,-0.889,-1.192,0.368,65.918,269.165,-200.379,
00:00:16:950,-1.096,-0.867,0.517,170.166,279.968,-315.552,
00:00:16:967,-1.193,-0.373,0.6,327.209,290.344,-376.343,
00:00:16:983,-1.241,-0.153,0.679,422.607,266.174,-406.25,
00:00:17:0,-1.175,-0.078,0.74,301.391,205.2,-382.019,
00:00:17:17,-1.091,0.015,0.786,45.288,142.578,-332.459,
00:00:17:33,-0.862,-0.043,0.872,-251.099,57.617,-246.888,
00:00:17:50,-0.657,-0.072,0.927,-278.931,-30.335,-71.351,
00:00:17:67,-0.432,-0.308,0.931,-74.524,-113.587,96.252,
00:00:17:83,-0.292,-0.594,0.844,-33.081,-200.806,234.863,
00:00:17:100,-0.001,-0.876,0.851,-204.529,-261.841,296.325,
00:00:17:117,0.304,-1.119,0.791,-473.816,-315.186,331.054,
00:00:17:133,0.545,-1.297,0.738,-485.718,-352.051,341.125,
00:00:17:150,0.713,-1.602,0.643,-243.042,-370.606,297.607,
00:00:17:167,0.738,-1.395,0.664,340.088,-311.89,204.467,
00:00:17:183,0.61,-2.021,-0.036,193.176,-145.997,36.865,
00:00:17:200,0.391,-1.132,0.146,-503.785,-35.462,-161.56,
00:00:17:217,-0.349,-0.873,0.389,288.635,221.191,-17.518,
00:00:17:233,-0.548,-0.855,0.401,398.01,262.207,-26.49,
00:00:17:250,-0.697,-0.812,0.382,374.023,278.381,-70.496,
00:00:17:267,-1.003,-0.665,0.238,419.494,281.738,-134.888,
00:00:17:283,-1.231,-0.509,0.201,498.413,304.626,-204.895,
00:00:17:300,-1.24,-0.537,0.425,443.725,366.516,-282.166,
00:00:17:317,-1.168,-0.431,0.508,210.815,424.011,-385.987,
00:00:17:333,-0.988,-0.292,0.563,8.85,408.447,-448.426,
00:00:17:350,-0.746,-0.349,0.851,-123.169,334.167,-414.734,
00:00:17:367,-0.382,-0.385,1.104,-209.473,240.966,-303.345,
00:00:17:383,-0.077,-0.495,1.159,-57.373,95.214,-136.719,
00:00:17:400,0.779,-1.028,1.006,-24.17,-474.305,318.298,
00:00:17:417,0.905,-1.276,0.896,-154.786,-608.765,367.309,
00:00:17:433,0.855,-1.335,0.681,-371.338,-631.47,349.975,
00:00:17:450,0.702,-1.213,0.552,-412.598,-567.933,353.759,
00:00:17:467,0.461,-1.146,0.39,-306.153,-465.149,363.22,
00:00:17:483,-0.583,-1.205,-0.236,81.359,-31.983,348.999,
00:00:17:500,-1.213,-0.878,-0.192,269.531,223.327,116.333,
00:00:17:517,-1.111,-1.619,-0.205,344.238,295.532,-31.8,
00:00:17:533,-1.056,-0.965,-0.019,6.836,390.319,-357.117,
00:00:17:550,-1.348,-0.359,0.407,-256.836,436.401,-591.248,
00:00:17:567,-1.336,-0.454,0.715,-109.253,376.526,-638.977,
00:00:17:583,-1.128,0.017,0.84,-7.569,319.03,-633.728,
00:00:17:600,-0.959,0.112,0.973,57.373,247.131,-503.724,
00:00:17:617,-0.631,-0.067,0.964,-11.109,150.329,-301.148,
00:00:17:633,-0.404,-0.126,0.998,-67.261,51.94,-131.409,
00:00:17:650,-0.111,-0.485,1.107,-169.373,-69.642,44.311,
00:00:17:667,0.196,-0.738,1.103,-321.717,-185.364,217.834,
00:00:17:683,0.482,-1.054,1.035,-247.071,-294.739,317.016,
00:00:17:700,0.67,-1.383,0.958,-291.321,-366.944,326.477,
00:00:17:717,0.839,-1.688,0.831,-317.872,-382.752,241.211,
00:00:17:733,0.854,-1.695,0.533,-320.862,-324.158,92.712,
00:00:17:750,0.667,-1.497,0.326,-253.052,-213.746,-26.368,
00:00:17:767,0.41,-1.21,0.18,-253.663,-47.12,-93.689,
00:00:17:783,0.118,-0.955,0.118,-32.41,109.985,-39.002,
00:00:17:800,-0.189,-0.926,0.07,237.732,236.328,-6.531,
00:00:17:817,-0.496,-0.859,0.147,365.356,331.237,-19.532,
00:00:17:833,-0.812,-0.696,0.256,474.609,377.99,-92.164,
00:00:17:850,-1.109,-0.342,0.419,567.077,413.635,-175.354,
00:00:17:867,-1.206,-0.392,0.302,843.261,370.971,-151.856,
00:00:17:883,-1.184,-0.208,0.485,640.503,273.193,-157.959,
00:00:17:900,-0.968,-0.363,0.713,150.512,150.817,-174.622,
00:00:17:917,-0.555,-0.455,0.956,-196.839,-36.133,-94.056,
00:00:17:933,-0.293,-0.825,0.971,-47.364,-110.108,14.526,
00:00:17:950,0.004,-0.811,0.956,-78.675,-198.426,111.877,
00:00:17:967,0.305,-1.012,0.88,2.624,-291.565,207.763,
00:00:17:983,0.557,-1.204,0.739,30.639,-396.058,241.394,
00:00:18:0,0.679,-1.42,0.652,-98.206,-460.999,205.932,
00:00:18:17,0.822,-1.449,0.522,-307.435,-471.497,162.414,
00:00:18:33,0.773,-1.468,0.362,-450.562,-423.89,90.21,
00:00:18:50,0.576,-1.36,0.36,-586.365,-324.219,41.992,
00:00:18:67,0.317,-1.183,0.336,-533.631,-148.011,26.977,
00:00:18:83,0.023,-1.051,0.317,-362.915,-13.55,45.532,
00:00:18:100,-0.3,-1.148,0.247,-133.912,91.247,40.954,
00:00:18:117,-0.622,-1.09,0.131,-81.36,152.404,6.53,
00:00:18:133,-0.831,-0.856,0.15,-57.068,181.213,-70.374,
00:00:18:150,-1.008,-0.626,0.118,37.719,189.636,-112.854,
00:00:18:167,-1.109,-0.446,0.181,185.913,229.98,-146.729,
00:00:18:183,-1.219,-0.41,0.248,276.062,275.817,-182.984,
00:00:18:200,-1.199,-0.442,0.403,267.212,308.227,-259.095,
00:00:18:217,-1.187,-0.361,0.529,120.91,298.278,-364.93,
00:00:18:233,-1.058,-0.356,0.744,44.494,224.121,-399.842,
00:00:18:250,-0.761,-0.332,0.831,36.254,127.136,-328.309,
00:00:18:267,-0.518,-0.312,0.877,-19.288,53.1,-204.773,
00:00:18:283,-0.21,-0.371,0.97,-40.223,-32.837,-42.786,
00:00:18:300,0.019,-0.525,1.034,-180.664,-146.302,95.642,
00:00:18:317,0.282,-0.744,1.052,-336.121,-268.677,222.778,
00:00:18:333,0.498,-1.023,1.066,-455.14,-395.203,328.979,
00:00:18:350,0.706,-1.169,0.992,-397.461,-492.798,388.916,
00:00:18:367,0.814,-1.465,0.945,-267.273,-524.476,361.755,
00:00:18:383,0.751,-1.526,0.848,58.166,-462.403,277.404,
00:00:18:400,0.601,-1.843,0.252,195.556,-268.006,188.598,
00:00:18:417,0.309,-1.287,0.062,-427.796,-163.575,-37.781,
00:00:18:433,-0.006,-1.12,0.16,-227.906,-34.058,-66.651,
00:00:18:450,-0.321,-1.028,0.069,13.977,114.135,-78.614,
00:00:18:467,-0.495,-0.902,0.073,284.729,250,-89.6,
00:00:18:483,-0.717,-1.004,0.09,434.509,352.111,-153.992,
00:00:18:500,-0.848,-0.737,0.236,422.119,410.949,-225.098,
00:00:18:517,-0.956,-0.548,0.311,417.663,444.397,-302.247,
00:00:18:533,-1.071,-0.348,0.409,436.157,437.378,-327.454,
00:00:18:550,-1.103,-0.261,0.573,313.232,411.926,-344.544,
00:00:18:567,-1.068,-0.239,0.707,211.242,324.768,-349.976,
00:00:18:583,-0.986,-0.147,0.848,42.053,193.054,-312.745,
00:00:18:600,-0.755,-0.208,0.843,-37.964,42.236,-194.336,
00:00:18:617,-0.578,-0.311,0.87,-93.384,-77.942,-57.251,
00:00:18:633,-0.348,-0.522,0.862,-27.955,-164.185,74.523,
00:00:18:650,-0.186,-0.759,0.898,-82.886,-238.404,192.81,
00:00:18:667,0.131,-1.115,0.881,-185.059,-318.299,268.982,
00:00:18:683,0.352,-1.495,0.774,-322.51,-390.503,294.555,
00:00:18:700,0.462,-1.679,0.737,-558.228,-387.574,150.634,
00:00:18:717,0.52,-1.784,0.686,-777.832,-323.121,-23.682,
00:00:18:733,0.586,-1.438,0.604,-734.986,-260.132,-114.136,
00:00:18:750,0.516,-1.055,0.515,-405.335,-197.815,-102.478,
00:00:18:767,0.459,-0.811,0.324,-270.203,-76.905,-58.838,
00:00:18:783,0.365,-0.723,0.222,-160.523,44.921,5.981,
00:00:18:800,0.159,-0.764,0.284,-66.834,170.471,39.001,
00:00:18:817,-0.036,-0.773,0.294,-52.491,245.544,54.565,
00:00:18:833,-0.43,-0.967,0.31,122.375,226.44,71.472,
00:00:18:850,-0.829,-0.738,0.321,312.255,154.48,69.885,
00:00:18:867,-1.14,-0.81,0.248,378.845,114.685,19.958,
00:00:18:883,-1.347,-0.649,0.293,418.64,138.916,-83.497,
00:00:18:900,-1.417,-0.532,0.415,253.357,165.71,-247.071,
00:00:18:917,-1.35,-0.394,0.509,190.918,179.443,-359.742,
00:00:18:933,-1.079,-0.285,0.689,189.331,178.894,-408.448,
00:00:18:950,-0.795,-0.318,0.816,177.49,154.052,-344.971,
00:00:18:967,-0.393,-0.437,0.931,186.157,124.939,-232.666,
00:00:18:983,-0.15,-0.541,0.945,218.872,71.594,-123.414,
00:00:19:0,0.121,-0.67,0.997,237.06,-32.471,5.31,
00:00:19:17,0.32,-0.863,1.018,81.176,-186.524,117.065,
00:00:19:33,0.502,-0.958,0.982,-161.377,-311.158,208.74,
00:00:19:50,0.681,-0.98,0.916,-218.201,-422.303,309.57,
00:00:19:67,0.74,-1.177,0.789,-127.32,-472.962,379.577,
00:00:19:83,0.64,-1.179,0.6,-70.13,-471.558,386.535,
00:00:19:100,0.425,-1.168,0.411,-27.161,-402.039,374.206,
00:00:19:117,0.066,-1.288,0.172,1.342,-267.945,339.172,
00:00:19:133,-0.324,-1.272,-0.053,116.882,-100.708,238.586,
00:00:19:150,-0.535,-1.245,-0.198,262.756,59.631,106.933,
00:00:19:167,-0.792,-1.205,-0.158,520.08,201.355,79.956,
00:00:19:183,-0.885,-1.085,-0.173,600.83,345.764,-70.679,
00:00:19:200,-1.146,-0.852,0.003,585.632,471.313,-174.073,
00:00:19:217,-1.19,-0.654,0.317,383.056,555.297,-307.312,
00:00:19:233,-1.165,-0.447,0.551,256.103,578.308,-413.88,
00:00:19:250,-1.111,-0.357,0.783,123.901,483.581,-456.055,
00:00:19:267,-1.01,-0.296,0.916,-22.217,335.693,-434.021,
00:00:19:283,-0.754,-0.32,0.996,-191.712,146.484,-347.474,
00:00:19:300,-0.517,-0.309,0.945,-332.154,-8.545,-167.359,
00:00:19:317,-0.223,-0.368,0.915,-283.081,-135.193,-13.794,
00:00:19:333,0.071,-0.818,0.844,-142.945,-237.671,155.822,
00:00:19:350,0.402,-1.191,0.8,-120.179,-301.148,240.051,
00:00:19:367,0.72,-1.601,0.623,-155.945,-349.793,256.652,
00:00:19:383,0.897,-1.647,0.305,-222.535,-376.526,150.268,
00:00:19:400,0.796,-1.741,0.182,-349.732,-322.388,-4.883,
00:00:19:417,0.583,-1.3,0.087,-399.048,-209.168,-78.858,
00:00:19:433,0.279,-0.947,-0.015,-101.014,-59.449,-32.593,
00:00:19:450,-0.075,-0.96,-0.13,225.769,102.417,49.804,
00:00:19:467,-0.39,-1.003,-0.237,303.283,277.038,59.082,
00:00:19:483,-0.73,-0.946,-0.232,299.865,451.049,-8.789,
00:00:19:500,-0.99,-0.933,0.137,328.125,591.369,-97.535,
00:00:19:517,-1.114,-0.732,0.517,256.164,627.929,-234.559,
00:00:19:533,-1.151,-0.621,0.849,181.579,531.372,-342.591,
00:00:19:550,-0.991,-0.433,1.06,47.119,355.346,-403.016,
00:00:19:567,-0.767,-0.341,1.068,-75.745,148.986,-385.865,
00:00:19:583,-0.486,-0.35,1.101,-138.428,-56.824,-278.565,
00:00:19:600,-0.245,-0.387,1.064,-150.33,-168.702,-110.413,
00:00:19:617,-0.029,-0.546,0.85,-139.344,-245.728,62.622,
00:00:19:633,0.126,-0.667,0.833,-199.707,-336.976,193.603,
00:00:19:650,0.335,-0.814,0.796,-191.407,-456.91,334.533,
00:00:19:667,0.53,-0.976,0.747,-108.216,-583.069,410.705,
00:00:19:683,0.609,-1.192,0.585,-151.123,-697.51,455.688,
00:00:19:700,0.581,-1.327,0.462,-241.944,-709.717,406.372,
00:00:19:717,0.471,-1.4,0.276,-279.358,-625.123,363.83,
00:00:19:733,0.253,-1.348,0.169,-261.353,-499.268,296.142,
00:00:19:750,-0.014,-1.324,0.028,-132.996,-342.835,239.807,
00:00:19:767,-0.209,-1.631,0.378,393.249,-144.043,174.682,
00:00:19:783,-0.218,-1.394,-0.693,491.455,109.985,86.975,
00:00:19:800,-0.615,-1.135,-0.331,-152.222,297.973,-177.002,
00:00:19:817,-0.827,-0.787,0.009,-401.795,433.654,-333.069,
00:00:19:833,-1.249,-0.139,0.648,314.514,418.884,-390.015,
00:00:19:850,-1.167,-0.066,0.72,206.848,373.779,-355.225,
00:00:19:867,-1.021,-0.265,0.625,191.162,300.171,-311.219,
00:00:19:883,-0.906,-0.477,0.667,-20.752,186.645,-296.021,
00:00:19:900,-0.683,-0.723,0.73,-191.529,93.139,-283.57,
00:00:19:917,-0.396,-0.944,0.752,-219.91,35.583,-230.408,
00:00:19:933,-0.233,-0.865,0.733,-335.083,25.085,-171.021,
00:00:19:950,0.069,-1.055,0.778,-345.459,41.931,-116.333,
00:00:19:967,0.402,-1.15,0.728,-352.234,69.397,-73.121,
00:00:19:983,0.693,-1.22,0.786,-204.468,69.397,-14.283,
00:00:20:0,0.912,-0.709,0.234,-103.76,-5.127,-62.317,
00:00:20:17,0.724,-1.153,0.49,-231.385,-37.659,31.921,
00:00:20:33,0.736,-1.022,0.607,-429.627,-42.359,106.262,
00:00:20:50,0.543,-0.812,0.507,-362.305,-52.247,198.913,
00:00:20:67,0.169,-0.94,0.544,-171.143,-68.177,286.621,
00:00:20:83,-0.212,-0.866,0.498,-114.624,-84.839,356.506,
00:00:20:100,-0.66,-0.838,0.473,-70.191,-134.217,387.939,
00:00:20:117,-1.053,-0.91,0.397,1.037,-198.182,361.633,
00:00:20:133,-1.258,-0.913,0.339,-20.569,-246.705,272.949,
00:00:20:150,-1.265,-0.451,0.186,-140.87,-79.163,-219.666,
00:00:20:167,-1.082,-0.365,0.214,-106.934,10.253,-307.984,
00:00:20:183,-1.017,-0.183,0.328,-11.658,119.567,-319.214,
00:00:20:200,-0.837,-0.396,0.326,207.214,202.27,-256.531,
00:00:20:217,-0.591,-0.649,0.424,278.198,230.529,-222.352,
00:00:20:233,-0.436,-0.777,0.481,133.911,227.844,-224.305,
00:00:20:250,-0.067,-0.936,0.635,-18.677,197.815,-217.652,
00:00:20:267,0.103,-0.979,0.756,-39.124,173.095,-162.781,
00:00:20:283,0.273,-1.001,0.875,-104.31,133.789,-130.249,
00:00:20:300,0.404,-1.094,0.995,-187.5,82.58,-113.465,
00:00:20:317,0.543,-1.066,0.994,-215.088,17.15,-65.308,
00:00:20:333,0.564,-1.053,0.985,-141.846,-39.307,14.404,
00:00:20:350,0.523,-0.986,0.741,-18.006,-55.42,82.153,
00:00:20:367,0.383,-1.007,0.787,-143.25,-96.07,92.956,
00:00:20:383,0.241,-1.001,0.735,-126.16,-105.713,120.727,
00:00:20:400,0.087,-0.945,0.614,-75.135,-99.976,137.573,
00:00:20:417,-0.115,-1.048,0.578,42.663,-74.891,170.654,
00:00:20:433,-0.804,-0.869,0.22,296.753,85.876,31.127,
00:00:20:450,-0.991,-0.629,0.187,437.5,162.414,-39.429,
00:00:20:467,-1.111,-0.545,0.218,498.779,232.849,-97.168,
00:00:20:483,-1.191,-0.417,0.158,652.221,291.87,-126.221,
00:00:20:500,-1.19,-0.386,0.194,576.172,318.603,-184.327,
00:00:20:517,-1.096,-0.416,0.274,502.99,309.875,-252.259,
00:00:20:533,-0.933,-0.356,0.362,331.543,252.258,-292.786,
00:00:20:550,-0.767,-0.444,0.466,198.303,192.505,-301.209,
00:00:20:567,-0.632,-0.444,0.541,104.248,152.893,-246.338,
00:00:20:583,-0.452,-0.547,0.702,138.488,126.464,-152.222,
00:00:20:600,-0.223,-0.648,0.807,232.971,44.067,-17.823,
00:00:20:617,0.127,-1.003,0.897,181.091,-65.857,104.187,
00:00:20:633,0.386,-1.126,0.892,-1.77,-200.074,156.494,
00:00:20:650,0.75,-1.863,1.379,-77.759,-450.623,136.901,
00:00:20:667,0.523,-1.283,0.738,-494.568,-424.561,102.234,
00:00:20:683,0.68,-1.222,0.627,-502.991,-451.05,154.235,whipLH
00:00:20:700,0.696,-1.227,0.662,-622.498,-423.706,165.1,
00:00:20:717,0.483,-1.23,0.544,-536.194,-348.755,182.434,
00:00:20:733,0.232,-1.193,0.488,-623.414,-270.813,165.344,
00:00:20:750,-0.045,-1.236,0.402,-492.859,-179.322,152.526,
00:00:20:767,-0.251,-1.104,0.308,-335.144,-108.521,117.126,
00:00:20:783,-0.427,-1.114,0.151,-189.881,-26.185,55.053,
00:00:20:800,-0.697,-1.001,-0.029,20.935,71.411,-12.757,
00:00:20:817,-0.858,-0.921,-0.072,53.711,177.795,-100.342,
00:00:20:833,-0.958,-0.773,-0.042,35.705,302.124,-198.609,
00:00:20:850,-0.983,-0.55,0.14,53.283,402.526,-291.81,
00:00:20:867,-1.018,-0.436,0.252,142.334,454.345,-348.389,
00:00:20:883,-1.004,-0.399,0.462,207.702,441.894,-389.222,
00:00:20:900,-0.96,-0.337,0.637,205.871,394.897,-376.954,
00:00:20:917,-0.874,-0.34,0.725,131.713,314.941,-369.507,
00:00:20:933,-0.771,-0.398,0.815,67.871,198.73,-309.266,
00:00:20:950,-0.581,-0.426,0.838,-32.227,63.232,-224.915,
00:00:20:967,-0.212,-0.498,0.909,-303.04,-127.442,26.123,
00:00:20:983,0.085,-0.638,0.921,-361.634,-228.821,185.73,
00:00:21:0,0.212,-0.741,0.963,-248.658,-290.711,288.147,
00:00:21:17,0.468,-1.175,0.891,-251.221,-371.277,336.67,
00:00:21:33,0.655,-1.198,0.782,-363.465,-433.472,326.965,
00:00:21:50,0.675,-1.455,0.683,-448.243,-450.379,275.024,
00:00:21:67,0.485,-1.284,0.504,-190.491,-352.478,158.325,
00:00:21:83,0.374,-1.198,0.143,54.138,-190.979,120.117,
00:00:21:100,0.17,-1.134,0.085,-305.298,-106.568,25.207,
00:00:21:117,-0.558,-1.336,-0.112,638.672,209.106,72.753,
00:00:21:133,-0.835,-1.004,-0.06,578.186,274.658,-75.379,
00:00:21:150,-1.036,-0.729,0.228,241.455,311.706,-252.442,
00:00:21:167,-1.16,-0.864,0.325,265.93,316.65,-381.958,
00:00:21:183,-1.21,-0.356,0.508,315.673,319.152,-496.888,
00:00:21:200,-1.238,-0.175,0.619,438.781,311.157,-507.813,
00:00:21:217,-1.162,-0.189,0.619,491.76,304.87,-476.38,
00:00:21:233,-1.066,-0.155,0.632,477.111,293.029,-409.729,
00:00:21:250,-0.764,-0.374,0.682,314.392,280.639,-322.144,
00:00:21:267,-0.519,-0.567,0.801,157.348,255.249,-221.07,
00:00:21:283,-0.266,-0.653,0.869,-16.419,176.269,-157.227,
00:00:21:300,-0.114,-0.711,0.968,-27.161,83.923,-56.092,
00:00:21:317,0.115,-0.886,1.044,-36.072,-50.965,47.424,
00:00:21:333,0.321,-1.048,1.025,-32.288,-243.958,152.404,
00:00:21:350,0.441,-1.142,1.064,-230.103,-408.57,187.988,
00:00:21:367,0.469,-0.973,1.005,-576.783,-586.853,233.947,
00:00:21:383,0.477,-1.014,0.897,-800.293,-707.032,302.612,
00:00:21:400,0.488,-0.985,0.757,-739.991,-760.437,382.873,
00:00:21:417,0.454,-1.047,0.592,-536.133,-690.674,446.777,
00:00:21:433,0.401,-1.064,0.385,-223.206,-570.74,449.524,
00:00:21:450,0.238,-1.245,0.162,10.986,-369.141,358.825,
00:00:21:467,0.035,-1.373,-0.032,88.501,-182.373,279.358,
00:00:21:483,-0.2,-1.538,-0.127,12.573,-9.644,164.734,
00:00:21:500,-0.475,-1.429,0.006,-28.626,129.638,27.71,
00:00:21:517,-1.044,-1.664,-0.126,251.159,321.594,-173.279,
00:00:21:533,-0.999,-0.821,0.072,121.826,428.955,-282.715,
00:00:21:550,-1.06,-0.734,0.324,169.494,472.534,-401.734,
00:00:21:567,-1.211,-0.409,0.342,299.011,497.131,-460.999,
00:00:21:583,-1.235,-0.191,0.508,352.234,498.108,-478.699,
00:00:21:600,-1.209,-0.019,0.535,356.14,507.08,-465.638,
00:00:21:617,-1.178,-0.019,0.558,274.902,472.595,-432.007,
00:00:21:633,-1.04,-0.045,0.595,55.175,394.47,-357.483,
00:00:21:650,-0.72,-0.229,0.704,-97.962,285.583,-237.427,
00:00:21:667,-0.573,-0.496,0.807,52.551,156.189,-100.098,
00:00:21:683,-0.429,-0.683,0.917,-18.25,16.479,-1.77,
00:00:21:700,-0.317,-0.93,0.89,16.723,-86.06,75.561,
00:00:21:717,-0.003,-1.193,0.864,-52.552,-174.439,118.469,
00:00:21:733,0.24,-1.321,0.817,-146.912,-206.788,122.436,
00:00:21:750,0.409,-1.269,0.788,-311.28,-211.121,70.251,
00:00:21:767,0.684,-1.74,1.401,-145.63,-329.102,1.831,
00:00:21:783,0.945,-1.03,0.478,-8.118,-257.874,89.477,
00:00:21:800,0.816,-0.962,0.548,-412.049,-271.241,113.647,
00:00:21:817,0.732,-0.926,0.737,-567.261,-255.066,173.095,
00:00:21:833,0.608,-0.866,0.655,-435.181,-205.018,239.135,
00:00:21:850,0.454,-0.931,0.67,-290.223,-192.994,323.181,
00:00:21:867,0.187,-0.91,0.531,-138.855,-196.412,377.014,
00:00:21:883,-0.228,-0.937,0.289,-121.155,-213.623,411.071,
00:00:21:900,-0.601,-0.952,0.12,-61.036,-218.14,401.428,
00:00:21:917,-0.908,-0.878,0.328,167.419,-79.529,311.035,
00:00:21:933,-1.009,-1.899,-0.747,974.365,85.632,170.288,
00:00:21:950,-1.585,-0.968,-0.397,479.004,233.947,-138.794,
00:00:21:967,-1.434,-0.871,-0.226,-65.918,326.721,-288.941,
00:00:21:983,-1.23,-0.491,0.336,-80.201,381.225,-538.575,
00:00:22:0,-1.325,-0.354,0.428,-35.767,368.652,-597.107,
00:00:22:17,-0.983,-0.157,0.545,450.683,413.33,-476.929,
00:00:22:33,-0.649,-0.507,0.661,331.726,396.118,-378.296,
00:00:22:50,-0.386,-0.517,0.737,39.367,371.032,-254.578,
00:00:22:67,-0.132,-0.667,0.889,-84.717,302.002,-183.838,
00:00:22:83,-0.043,-1.04,1.044,-18.799,179.077,-92.408,
00:00:22:100,0.057,-0.97,1.093,-199.646,30.578,-66.04,
00:00:22:117,0.3,-1.571,1.6,-223.45,-257.081,-99.183,
00:00:22:133,-0.013,-1.023,1.472,-659.668,-394.532,-85.572,
00:00:22:150,0.115,-0.464,0.199,-448.792,-298.035,100.586,
00:00:22:167,0.201,-0.616,0.711,-520.935,-373.291,198.486,
00:00:22:183,0.439,-0.987,0.869,-360.23,-361.512,316.772,
00:00:22:200,0.593,-0.884,0.53,-133.179,-305.726,364.441,
00:00:22:217,0.617,-1.061,0.405,111.694,-232.056,339.538,
00:00:22:233,0.558,-1.287,0.248,-117.676,-141.541,242.675,
00:00:22:250,0.439,-1.188,0.284,-240.052,-91.736,136.169,
00:00:22:267,0.155,-1.123,0.335,-90.149,-14.588,87.524,
00:00:22:283,0.014,-1.226,0.373,71.899,44.189,97.106,
00:00:22:300,-0.21,-1.124,0.255,251.587,91.369,89.843,
00:00:22:317,-0.479,-1.064,0.275,335.571,117.614,43.212,
00:00:22:333,-0.737,-0.989,0.312,338.195,132.873,-3.602,
00:00:22:350,-0.8,-0.851,0.359,327.819,140.258,-63.294,
00:00:22:367,-0.993,-0.688,0.4,308.349,154.297,-108.216,
00:00:22:383,-1.207,-0.456,0.369,282.714,188.72,-155.884,
00:00:22:400,-1.301,-0.375,0.421,305.236,209.411,-176.331,
00:00:22:417,-1.281,-0.207,0.499,141.174,209.228,-230.469,
00:00:22:433,-1.128,-0.154,0.825,-414.612,32.348,-211.976,
00:00:22:450,-0.931,-0.06,0.976,-377.869,-85.877,-90.882,
00:00:22:467,-0.596,-0.397,1.003,-116.089,-198.548,84.899,
00:00:22:483,-0.233,-0.709,0.994,-42.847,-313.355,238.708,
00:00:22:500,0.115,-1.053,0.952,-54.932,-384.705,303.772,
00:00:22:517,0.518,-1.252,0.8,-55.848,-414.185,295.288,
00:00:22:533,0.751,-1.567,0.69,-110.596,-404.236,215.271,
00:00:22:550,0.835,-1.542,0.565,-165.528,-346.863,119.018,
00:00:22:567,0.708,-1.296,0.338,-93.201,-255.555,47.973,
00:00:22:583,0.473,-1.153,0.248,57.983,-128.54,34.729,
00:00:22:600,0.242,-0.958,0.116,119.567,16.845,93.933,
00:00:22:617,-0.018,-0.968,0.017,195.19,127.624,126.587,
00:00:22:633,-0.303,-1.022,0.05,291.687,191.589,136.23,
00:00:22:650,-0.555,-1.06,0.018,341.858,231.201,63.903,
00:00:22:667,-0.737,-1.034,0.053,342.834,280.944,-65.247,
00:00:22:683,-0.959,-1.025,0.125,318.115,361.206,-195.618,
00:00:22:700,-1.137,-0.751,0.224,230.529,433.227,-315.369,
00:00:22:717,-1.206,-0.569,0.362,219.482,483.52,-419.373,
00:00:22:733,-1.166,-0.48,0.492,163.33,476.44,-469.788,
00:00:22:750,-1.042,-0.335,0.663,35.278,432.006,-495.423,
00:00:22:767,-0.796,-0.364,0.811,-21.424,341.552,-433.472,
00:00:22:783,-0.59,-0.338,0.96,-82.093,241.76,-318.055,
00:00:22:800,-0.432,-0.394,1.018,-90.088,132.873,-170.594,
00:00:22:817,-0.26,-0.599,1.112,-54.932,16.967,-20.569,
00:00:22:833,-0.059,-0.806,1.127,-106.019,-136.292,85.815,
00:00:22:850,0.106,-0.887,1.007,-210.755,-306.824,156.311,
00:00:22:867,0.273,-0.946,0.888,-405.396,-451.416,206.604,
00:00:22:883,0.429,-0.876,0.789,-613.709,-567.872,271.179,
00:00:22:900,0.624,-0.971,0.703,-511.902,-619.873,381.713,
00:00:22:917,0.681,-1.105,0.508,-337.952,-590.699,429.687,
00:00:22:933,0.585,-1.312,0.353,-180.298,-473.267,384.765,
00:00:22:950,0.416,-1.357,0.124,-46.875,-273.194,303.894,
00:00:22:967,0.174,-1.514,-0.018,36.254,-98.877,206.176,
00:00:22:983,-0.092,-1.438,-0.009,19.409,44.555,106.994,
00:00:23:0,-0.507,-0.946,0.063,235.351,246.826,-8.851,
00:00:23:17,-0.566,-1.465,0.114,488.098,339.416,-16.663,
00:00:23:33,-0.602,-0.947,0.129,348.022,434.448,-185.12,
00:00:23:50,-0.865,-0.759,0.376,207.885,456.909,-243.103,
00:00:23:67,-1.034,-0.506,0.461,229.126,434.387,-282.166,
00:00:23:83,-1.111,-0.301,0.573,137.756,339.416,-283.753,
00:00:23:100,-1.088,-0.267,0.681,-143.25,218.383,-282.898,
00:00:23:117,-1.085,0.028,0.627,-350.769,112.365,-248.475,
00:00:23:133,-1.12,0.05,0.589,-212.708,34.973,-140.748,
00:00:23:150,-1.003,-0.266,0.523,168.762,-17.884,-40.345,
00:00:23:167,-0.771,-0.679,0.411,98.816,-55.542,-6.531,
00:00:23:183,-0.601,-0.959,0.328,71.533,-37.964,-12.146,
00:00:23:200,-0.366,-1.223,0.406,-7.752,52.49,-52.918,
00:00:23:217,-0.044,-1.315,0.395,41.626,152.282,-86.243,
00:00:23:233,0.288,-1.613,0.429,101.684,234.802,-182.923,
00:00:23:250,0.516,-1.664,0.483,-56.946,307.739,-346.924,
00:00:23:267,0.702,-1.55,0.524,-202.576,391.784,-475.769,
00:00:23:283,0.715,-1.166,0.659,-299.5,465.576,-519.654,
00:00:23:300,0.693,-0.702,0.733,-316.407,468.933,-436.402,
00:00:23:317,0.544,-0.504,0.985,-43.152,370.666,-263.977,
00:00:23:333,0.403,-0.36,1.074,-64.759,213.623,-56.519,
00:00:23:350,0.172,-0.331,1.094,-74.219,-14.527,161.499,
00:00:23:367,-0.044,-0.415,1.069,-121.644,-263.184,362.609,
00:00:23:383,-0.287,-0.465,0.91,-152.832,-467.286,511.84,
00:00:23:400,-0.486,-0.617,0.707,-152.894,-620.301,601.196,
00:00:23:417,-0.588,-0.739,0.486,-188.05,-695.191,619.079,
00:00:23:433,-0.585,-0.904,0.295,-251.465,-706.055,575.195,
00:00:23:450,-0.596,-0.995,0.156,-283.509,-629.456,472.656,
00:00:23:467,-1.109,-0.336,0.061,216.858,-269.471,196.228,
00:00:23:483,-0.605,-1.793,-0.355,550.598,-107.727,253.601,
00:00:23:500,-0.334,-1.567,-0.414,-156.189,63.842,-147.339,
00:00:23:517,-0.258,-0.634,-0.019,-525.391,205.2,-188.538,
00:00:23:533,-0.417,-1.187,0.502,13.244,300.232,-302.796,
00:00:23:550,-0.284,-0.501,0.523,-88.257,318.237,-249.512,
00:00:23:567,-0.3,-0.702,0.539,357.483,343.75,-250.611,
00:00:23:583,-0.428,-0.706,0.67,510.192,303.283,-182.312,
00:00:23:600,-0.414,-0.732,0.545,505.005,265.442,-169.068,
00:00:23:617,-0.433,-0.875,0.569,365.844,206.97,-207.581,
00:00:23:633,-0.447,-0.808,0.65,36.621,165.527,-244.568,
00:00:23:650,-0.452,-0.729,0.673,-116.272,142.761,-263.489,
00:00:23:667,-0.492,-0.74,0.697,-163.331,117.797,-252.076,
00:00:23:683,-0.544,-0.681,0.707,-117.31,100.647,-212.647,
00:00:23:700,-0.605,-0.611,0.692,-132.019,84.961,-191.04,
00:00:23:717,-0.638,-0.609,0.688,-151.062,50.048,-155.762,
00:00:23:733,-0.664,-0.514,0.65,-189.148,-7.508,-123.841,
00:00:23:750,-0.577,-0.548,0.678,-239.624,-98.694,-84.473,
00:00:23:767,-0.52,-0.545,0.623,-261.841,-169.068,-19.776,
00:00:23:783,-0.383,-0.693,0.641,-267.884,-219.3,27.038,
00:00:23:800,-0.307,-0.766,0.626,-338.99,-237.793,47.18,
00:00:23:817,-0.201,-0.928,0.645,-297.791,-200.623,64.148,
00:00:23:833,-0.084,-0.926,0.518,-115.723,-135.621,86.242,
00:00:23:850,-0.012,-1.002,0.471,221.252,-68.604,42.907,
00:00:23:867,0.003,-1.185,0.414,299.499,-2.015,-2.869,
00:00:23:883,0.016,-1.223,0.344,176.88,80.261,-76.6,
00:00:23:900,0.021,-1.2,0.342,-29.053,161.865,-141.358,
00:00:23:917,-0.027,-0.996,0.401,-118.103,226.562,-177.552,
00:00:23:933,-0.053,-0.895,0.411,-49.988,269.104,-179.139,
00:00:23:950,-0.079,-0.821,0.488,86.12,301.147,-162.415,
00:00:23:967,-0.081,-0.816,0.59,136.169,314.331,-146.302,
00:00:23:983,-0.034,-0.812,0.601,165.283,315.368,-111.939,
00:00:24:0,0.04,-0.859,0.63,213.44,292.663,-78.431,
00:00:24:17,0.066,-0.896,0.64,272.461,243.469,-48.279,
00:00:24:33,0.039,-0.933,0.758,280.517,206.115,2.502,
00:00:24:50,0.029,-0.848,0.751,312.683,171.203,37.902,
00:00:24:67,-0.063,-0.87,0.786,285.583,87.219,88.073,
00:00:24:83,-0.133,-0.839,0.836,232.971,-5.799,141.784,
00:00:24:100,-0.31,-0.771,0.753,119.934,-110.84,207.031,
00:00:24:117,-0.524,-0.714,0.685,-50.599,-224.671,219.421,
00:00:24:133,-0.675,-0.66,0.649,-207.093,-317.322,241.821,
00:00:24:150,-0.813,-0.638,0.622,-333.313,-393.616,257.385,
00:00:24:167,-0.879,-0.462,0.515,-302.613,-441.651,260.498,
00:00:24:183,-0.984,-0.615,0.358,-292.298,-467.225,238.586,
00:00:24:200,-0.917,-0.655,0.229,-404.297,-460.144,157.409,
00:00:24:217,-0.867,-0.841,0.151,-436.036,-419.068,93.444,
00:00:24:233,-0.686,-0.892,0.176,-462.83,-326.355,14.16,
00:00:24:250,-0.487,-0.943,0.087,-398.987,-223.755,-51.88,
00:00:24:267,-0.332,-0.966,0.128,-240.601,-80.933,-106.263,
00:00:24:283,-0.2,-1.029,0.064,-59.082,71.228,-162.964,
00:00:24:300,-0.085,-1.086,0.095,87.951,272.766,-200.44,
00:00:24:317,0.084,-1.085,0.104,197.57,457.397,-204.651,
00:00:24:333,0.211,-1.085,0.246,318.054,566.833,-223.206,
00:00:24:350,0.242,-1.093,0.402,413.574,600.647,-227.906,
00:00:24:367,0.251,-0.94,0.565,469.36,567.566,-219.056,
00:00:24:383,0.222,-0.974,0.698,506.347,496.215,-206.91,
00:00:24:400,0.187,-0.885,0.769,462.829,393.921,-162.171,
00:00:24:417,0.135,-0.847,0.815,444.275,302.246,-122.132,
00:00:24:433,0.041,-0.853,0.929,387.451,182.19,-63.538,
00:00:24:450,-0.04,-0.816,0.947,261.718,69.641,-1.893,
00:00:24:467,-0.168,-0.834,0.916,159.912,-37.049,30.395,
00:00:24:483,-0.26,-0.846,0.889,99.548,-111.268,75.5,
00:00:24:500,-0.359,-0.84,0.875,9.826,-162.659,128.051,
00:00:24:517,-0.417,-0.82,0.857,-55.97,-201.539,164.184,
00:00:24:533,-0.543,-0.75,0.767,-125.916,-246.521,187.744,
00:00:24:550,-0.636,-0.646,0.61,-158.265,-320.496,216.491,
00:00:24:567,-0.706,-0.625,0.511,-164.063,-382.447,224.243,
00:00:24:583,-0.726,-0.635,0.363,-225.037,-411.499,206.482,
00:00:24:600,-0.73,-0.672,0.261,-333.619,-401.062,153.869,
00:00:24:617,-0.702,-0.695,0.136,-361.145,-367.127,104.797,
00:00:24:633,-0.647,-0.715,0.101,-297.791,-318.238,44.25,
00:00:24:650,-0.631,-0.691,0.091,-208.802,-255.616,6.897,
00:00:24:667,-0.502,-0.723,0.097,-34.485,-202.454,-2.32,
00:00:24:683,-0.385,-0.769,0.013,115.966,-157.654,31.311,whipLH
00:00:24:700,-0.08,-0.953,0.041,201.721,-71.839,33.325,
00:00:24:717,0.102,-1.123,0.056,214.111,59.875,28.564,
00:00:24:733,0.234,-1.34,0.155,356.018,187.011,-29.908,
00:00:24:750,0.353,-1.544,0.277,278.32,302.795,-123.23,
00:00:24:767,0.434,-1.443,0.403,248.718,402.71,-187.806,
00:00:24:783,0.369,-1.332,0.565,253.173,449.157,-240.906,
00:00:24:800,0.322,-1.16,0.674,291.32,434.509,-227.234,
00:00:24:817,0.198,-1.001,0.812,368.164,366.638,-177.979,
00:00:24:833,0.125,-0.959,0.868,416.687,293.151,-122.01,
00:00:24:850,-0.018,-0.967,0.907,310.791,219.543,-52.063,
00:00:24:867,-0.128,-0.911,0.888,86.242,135.131,-19.776,
00:00:24:883,-0.298,-0.842,0.903,-101.441,9.216,25.024,
00:00:24:900,-0.492,-0.668,0.813,-202.149,-111.512,78.674,
00:00:24:917,-0.651,-0.697,0.742,-185.486,-238.77,122.253,
00:00:24:933,-0.747,-0.603,0.613,-231.019,-317.749,152.588,
00:00:24:950,-0.824,-0.587,0.427,-328.003,-360.23,151.916,
00:00:24:967,-0.89,-0.512,0.253,-363.404,-362,134.704,
00:00:24:983,-0.888,-0.512,0.173,-342.286,-348.755,93.811,
00:00:25:0,-0.865,-0.577,0.074,-271.546,-312.256,83.801,
00:00:25:17,-0.823,-0.666,0.013,-224.244,-270.752,38.696,
00:00:25:33,-0.743,-0.762,-0.017,-95.276,-194.764,-20.203,
00:00:25:50,-0.61,-0.941,-0.07,30.151,-124.512,-74.097,
00:00:25:67,-0.369,-1.14,-0.09,80.322,-29.602,-135.926,
00:00:25:83,-0.133,-1.266,-0.048,78.247,119.262,-209.412,
00:00:25:100,-0.002,-1.334,0.054,71.716,299.255,-258.423,
00:00:25:117,0.149,-1.305,0.165,174.682,469.116,-347.229,
00:00:25:133,0.201,-1.325,0.432,125.061,571.533,-389.954,
00:00:25:150,0.251,-1.074,0.531,91.919,576.477,-393.189,
00:00:25:167,0.272,-1.002,0.719,37.17,492.004,-356.202,
00:00:25:183,0.341,-0.896,0.828,-75.074,343.139,-295.533,
00:00:25:200,0.417,-0.785,0.879,-207.825,175.598,-202.332,
00:00:25:217,0.419,-0.786,0.876,-220.52,44.738,-101.868,
00:00:25:233,0.378,-0.663,0.764,-81.91,-24.048,26.733,
00:00:25:250,0.284,-0.901,0.774,192.199,-66.102,145.935,
00:00:25:267,0.195,-0.938,0.595,345.703,-87.464,219.299,
00:00:25:283,0.072,-0.986,0.401,487.121,-140.076,288.452,
00:00:25:300,-0.081,-1.007,0.369,534.423,-151.551,321.411,
00:00:25:317,-0.215,-0.993,0.351,504.943,-147.278,316.223,
00:00:25:333,-0.363,-1.018,0.378,431.823,-124.146,302.124,
00:00:25:350,-0.512,-1.032,0.376,236.877,-101.746,282.592,
00:00:25:367,-0.573,-1.029,0.326,0.305,-83.985,174.987,
00:00:25:383,-0.988,-1.048,0.549,-336.121,-155.884,33.447,
00:00:25:400,-0.881,-1.178,0.486,-481.263,-211.243,-55.481,
00:00:25:417,-1.04,-0.667,0.557,-790.345,-277.039,-117.188,
00:00:25:433,-0.863,-0.658,0.566,-567.994,-285.584,-145.813,
00:00:25:450,-0.79,-0.464,0.416,-398.011,-274.964,-119.324,
00:00:25:467,-0.697,-0.66,0.319,-226.502,-216.553,-105.53,
00:00:25:483,-0.669,-0.562,0.216,-576.783,-187.073,-128.968,
00:00:25:500,-0.573,-0.717,0.339,-798.645,-177.491,-143.372,
00:00:25:517,-0.5,-0.82,0.448,-724.488,-187.378,-135.804,
00:00:25:533,-0.442,-0.907,0.504,-767.579,-213.135,-130.005,
00:00:25:550,-0.362,-0.942,0.545,-746.888,-220.826,-139.771,
00:00:25:567,-0.282,-1.042,0.538,-742.615,-222.168,-154.175,
00:00:25:583,-0.22,-0.976,0.481,-737.427,-199.158,-168.702,
00:00:25:600,-0.21,-0.509,0.661,-447.51,-171.998,-187.439,
00:00:25:617,-0.106,-1.118,0.275,657.714,-21.119,-79.834,
00:00:25:633,-0.138,-0.838,0.073,-14.283,5.188,-195.923,
00:00:25:650,-0.002,-1.061,0.278,191.284,43.701,-158.692,
00:00:25:667,0.116,-0.829,0.202,286.987,166.748,-192.81,
00:00:25:683,0.08,-0.908,0.096,422.363,285.095,-219.361,
00:00:25:700,0.067,-0.88,0.256,411.987,401.672,-237.915,
00:00:25:717,0.061,-0.886,0.352,407.959,477.478,-220.398,
00:00:25:733,0.103,-0.765,0.481,628.906,515.686,-154.236,
00:00:25:750,0.115,-0.969,0.582,877.929,500.732,-125.977,
00:00:25:767,0.081,-1.037,0.622,924.56,428.466,-87.769,
00:00:25:783,0.017,-1.081,0.739,863.83,346.435,-65.796,
00:00:25:800,-0.026,-1.141,0.853,714.904,278.015,-64.942,
00:00:25:817,-0.09,-1.056,0.859,526.611,192.932,-63.416,
00:00:25:833,-0.04,-1.327,0.969,306.03,44.006,-135.315,
00:00:25:850,-0.27,-1.037,1.017,-242.249,-110.474,-127.381,
00:00:25:867,-0.25,-0.613,0.926,-85.144,-180.726,-26.917,
00:00:25:883,-0.369,-0.728,0.793,118.591,-200.196,83.129,
00:00:25:900,-0.396,-0.653,0.648,82.519,-218.079,171.081,
00:00:25:917,-0.45,-0.72,0.563,-21.546,-263.367,223.022,
00:00:25:933,-0.514,-0.71,0.51,-166.077,-286.072,257.141,
00:00:25:950,-0.539,-0.766,0.475,-312.317,-311.463,275.879,
00:00:25:967,-0.598,-0.723,0.439,-260.621,-338.013,277.832,
00:00:25:983,-0.629,-0.917,0.381,-218.262,-361.206,261.291,
00:00:26:0,-0.612,-0.86,0.275,-262.024,-360.962,206.665,
00:00:26:17,-0.545,-0.952,0.257,-246.827,-301.087,160.034,
00:00:26:33,-0.417,-0.966,0.189,-253.602,-223.084,114.257,
00:00:26:50,-0.356,-0.926,0.14,-190.735,-132.691,71.167,
00:00:26:67,-0.241,-0.997,0.091,-123.841,-33.204,18.737,
00:00:26:83,-0.176,-1.038,0.107,-117.981,61.584,-15.931,
00:00:26:100,-0.073,-1.001,0.188,-92.896,142.761,-56.275,
00:00:26:117,-0.039,-1.138,0.297,-108.46,163.757,-92.774,
00:00:26:133,-0.066,-0.981,0.322,-194.336,173.889,-135.987,
00:00:26:150,-0.122,-0.904,0.4,-208.924,180.359,-137.452,
00:00:26:167,-0.353,-0.721,0.423,140.38,137.512,-57.129,
00:00:26:183,-0.4,-0.697,0.352,303.65,139.221,-30.457,
00:00:26:200,-0.456,-0.699,0.22,432.251,144.714,-7.447,
00:00:26:217,-0.545,-0.695,0.13,415.161,166.442,20.752,
00:00:26:233,-0.627,-0.837,0.115,339.599,189.026,-18.555,
00:00:26:250,-0.668,-0.776,0.118,288.269,212.402,-47.425,
00:00:26:267,-0.643,-0.849,0.309,253.967,235.351,-111.878,
00:00:26:283,-0.562,-0.952,0.356,160.156,218.444,-166.26,
00:00:26:300,-0.5,-0.89,0.389,-27.466,173.034,-239.502,
00:00:26:317,-0.352,-0.856,0.527,-217.286,102.966,-281.983,
00:00:26:333,-0.195,-0.857,0.614,-501.465,21.789,-279.297,
00:00:26:350,-0.085,-0.744,0.709,-614.624,-69.397,-221.741,
00:00:26:367,0.025,-0.855,0.823,-542.359,-153.687,-132.203,
00:00:26:383,0.136,-1.034,0.937,-657.41,-214.478,-83.13,
00:00:26:400,0.305,-1.151,0.988,-906.739,-232.666,-57.007,
00:00:26:417,0.569,-1.408,1.196,-1017.701,-349.427,-148.255,
00:00:26:433,0.407,-1.295,1.088,-513.001,-275.147,-82.154,
00:00:26:450,0.257,-1.256,0.616,-576.966,-141.053,-26.49,
00:00:26:467,0.251,-1.213,0.502,-771.424,-105.347,-137.696,
00:00:26:483,0.093,-0.907,0.576,-718.506,-37.964,-161.499,
00:00:26:500,-0.148,-0.792,0.58,-390.442,85.876,-155.152,
00:00:26:517,-0.319,-0.692,0.507,-33.204,188.72,-80.384,
00:00:26:533,-0.503,-0.683,0.512,311.645,254.028,-10.315,
00:00:26:550,-0.618,-0.662,0.514,421.508,295.349,40.832,
00:00:26:567,-0.669,-0.637,0.479,463.073,277.832,57.434,
00:00:26:583,-0.802,-0.514,0.355,622.619,160.949,62.622,
00:00:26:600,-0.915,-0.431,0.271,792.48,95.398,36.682,
00:00:26:617,-0.976,-0.402,0.071,814.392,43.579,-40.772,
00:00:26:633,-1.031,-0.325,0.132,769.958,27.099,-73.609,
00:00:26:650,-0.943,-0.41,0.17,610.229,77.026,-122.925,
00:00:26:667,-0.861,-0.414,0.169,514.404,111.084,-121.399,
00:00:26:683,-0.773,-0.507,0.247,409.668,125.061,-116.517,
00:00:26:700,-0.38,-0.857,0.53,11.962,177.246,-15.87,
00:00:26:717,-0.193,-0.801,0.656,4.882,186.645,-9.827,
00:00:26:733,-0.028,-1.145,0.849,319.946,145.141,23.071,
00:00:26:750,0.217,-1.354,0.677,159.79,18.432,27.893,
00:00:26:767,0.523,-2.046,1.745,72.265,-423.829,-127.32,
00:00:26:783,0.237,-1.136,0.903,-531.006,-317.627,-137.757,
00:00:26:800,0.373,-1.018,0.146,-452.088,-214.905,-29.969,
00:00:26:817,0.426,-1.155,0.517,-585.328,-272.644,-72.144,
00:00:26:833,0.241,-0.934,0.604,-839.112,-216.37,-12.085,
00:00:26:850,0.188,-0.801,0.506,-640.503,-141.846,67.565,
00:00:26:867,0.042,-0.952,0.499,-448.06,-103.089,123.596,
00:00:26:883,-0.035,-0.965,0.493,-395.264,-70.252,151.733,
00:00:26:900,-0.138,-1.036,0.425,-197.266,-33.814,136.413,
00:00:26:917,-0.278,-1.114,0.38,-118.47,4.882,85.937,
00:00:26:933,-0.396,-1.069,0.346,-36.255,48.461,13.671,
00:00:26:950,-0.468,-0.985,0.35,119.506,93.566,-48.096,
00:00:26:967,-0.556,-0.788,0.264,285.095,166.931,-105.042,
00:00:26:983,-0.612,-0.652,0.21,411.621,259.582,-128.54,
00:00:27:0,-0.635,-0.529,0.153,594.848,359.802,-87.952,
00:00:27:17,-0.696,-0.466,0.134,678.527,417.907,-35.035,
00:00:27:33,-0.746,-0.52,0.175,609.68,424.926,-45.411,
00:00:27:50,-0.667,-0.853,0.183,124.878,355.468,-160.706,
00:00:27:67,-0.877,-0.378,0.733,-575.623,174.865,-226.807,
00:00:27:83,-0.664,-0.493,0.904,37.536,92.468,-189.27,
00:00:27:100,-0.751,-0.559,0.695,367.065,15.38,-123.597,
00:00:27:117,-0.608,-0.586,0.515,254.211,-91.37,-91.98,
00:00:27:133,-0.561,-0.598,0.491,171.203,-141.541,-58.533,
00:00:27:150,-0.444,-0.699,0.54,-151.307,-163.575,2.563,
00:00:27:167,-0.262,-0.685,0.693,-488.038,-183.167,76.843,
00:00:27:183,-0.106,-0.822,0.805,-379.7,-215.821,168.701,
00:00:27:200,0.009,-1.216,0.809,-179.688,-259.522,193.603,
00:00:27:217,0.15,-1.38,0.866,-321.106,-299.195,137.512,
00:00:27:233,0.337,-1.546,0.822,-450.501,-294.251,74.707,
00:00:27:250,0.384,-1.465,0.633,-473.023,-267.579,-22.4,
00:00:27:267,0.373,-1.401,0.525,-495.057,-218.201,-105.53,
00:00:27:283,0.318,-1.094,0.445,-523.987,-137.696,-123.902,
00:00:27:300,0.2,-0.949,0.459,-481.751,-36.988,-91.248,
00:00:27:317,0.109,-0.866,0.399,-323.182,83.557,-43.641,
00:00:27:333,-0.017,-0.881,0.388,-151.123,179.687,-12.513,
00:00:27:350,-0.137,-0.919,0.337,-97.413,260.681,-8.179,
00:00:27:367,-0.312,-0.879,0.392,-28.443,287.231,-18.799,
00:00:27:383,-0.437,-0.872,0.476,-23.377,271.362,-51.758,
00:00:27:400,-0.667,-0.684,0.43,124.45,229.858,-87.708,
00:00:27:417,-0.949,-0.47,0.27,381.775,171.569,-94.361,
00:00:27:433,-1.075,-0.411,0.177,676.452,130.615,-114.38,
00:00:27:450,-1.08,-0.372,0.158,782.898,148.437,-153.077,
00:00:27:467,-0.982,-0.369,0.187,630.737,225.158,-216.248,
00:00:27:483,-0.846,-0.339,0.283,518.188,287.536,-248.902,
00:00:27:500,-0.704,-0.465,0.413,420.044,286.621,-212.098,
00:00:27:517,-0.556,-0.66,0.688,262.329,252.075,-184.51,
00:00:27:533,-0.38,-0.749,0.869,78.857,182.067,-137.33,
00:00:27:550,-0.208,-0.856,1.004,72.631,59.265,-68.726,
00:00:27:567,-0.025,-0.928,1.004,-18.311,-97.046,-8.179,
00:00:27:583,0.115,-1.097,1.051,-146.851,-249.756,35.339,
00:00:27:600,0.207,-1.113,1.054,-511.353,-334.717,81.054,
00:00:27:617,0.368,-1.009,0.847,-510.682,-355.774,146.789,
00:00:27:633,0.4,-1.206,0.826,-441.59,-376.343,180.297,
00:00:27:650,0.368,-1.1,0.714,-549.927,-350.831,176.025,
00:00:27:667,0.315,-1.11,0.631,-603.821,-306.763,187.255,
00:00:27:683,0.248,-1.051,0.565,-645.142,-254.517,197.448,
00:00:27:700,0.159,-1.007,0.53,-529.48,-209.595,212.524,
00:00:27:717,0.086,-1.048,0.462,-382.447,-168.213,233.276,
00:00:27:733,-0.119,-1.119,0.291,-171.326,-68.421,197.326,
00:00:27:750,-0.277,-1.064,0.242,-133.484,-4.822,124.267,
00:00:27:767,-0.419,-1.006,0.165,25.39,56.945,66.711,
00:00:27:783,-0.607,-0.876,0.136,113.464,137.451,-20.508,
00:00:27:800,-0.733,-0.787,0.108,208.374,220.031,-83.497,
00:00:27:817,-0.943,-0.535,0.142,406.189,285.095,-114.258,
00:00:27:833,-1.061,-0.499,0.219,477.478,303.65,-178.833,
00:00:27:850,-1.03,-0.489,0.33,529.297,294.433,-230.53,
00:00:27:867,-1.006,-0.475,0.442,386.535,278.625,-311.341,
00:00:27:883,-0.886,-0.436,0.592,262.512,241.821,-363.404,
00:00:27:900,-0.785,-0.462,0.682,138.794,182.861,-373.23,
00:00:27:917,-0.715,-0.441,0.694,127.38,116.821,-347.657,
00:00:27:933,-0.672,-0.575,0.779,149.047,45.654,-291.565,
00:00:27:950,-0.166,-0.793,0.779,-105.835,-113.709,-10.926,
00:00:27:967,-0.009,-0.885,0.763,-204.834,-170.411,50.781,
00:00:27:983,0.204,-1.155,0.828,-290.284,-209.412,84.472,
00:00:28:0,0.378,-1.171,0.817,-478.699,-206.36,91.796,
00:00:28:17,0.686,-1.331,0.884,-359.681,-266.907,104.004,
00:00:28:33,0.392,-1.167,0.929,128.296,-211.365,128.54,
00:00:28:50,0.585,-1.362,0.272,3.356,-101.014,123.84,
00:00:28:67,0.614,-1.111,0.315,-533.448,-69.336,18.859,
00:00:28:83,0.431,-0.972,0.535,-491.822,-18.677,67.077,
00:00:28:100,0.212,-1.005,0.528,-259.4,29.907,90.881,
00:00:28:117,0.056,-0.976,0.577,-86.487,52.124,115.844,
00:00:28:133,-0.13,-1.117,0.487,-12.818,70.983,114.502,
00:00:28:150,-0.303,-1.011,0.42,17.517,69.946,95.031,
00:00:28:167,-0.579,-0.965,0.338,129.272,37.231,58.288,
00:00:28:183,-0.723,-0.78,0.254,176.025,26.489,19.348,
00:00:28:200,-0.874,-0.587,0.119,287.353,54.931,-23.621,
00:00:28:217,-0.98,-0.403,0.044,299.194,116.211,-56.092,
00:00:28:233,-1.059,-0.351,0.099,340.698,215.576,-81.849,
00:00:28:250,-1.094,-0.348,0.191,319.458,249.817,-130.005,
00:00:28:267,-1.102,-0.389,0.447,239.624,229.553,-199.891,
00:00:28:283,-0.948,-0.431,0.598,195.495,182.8,-236.939,
00:00:28:300,-0.743,-0.48,0.659,182.861,148.864,-233.948,
00:00:28:317,-0.559,-0.647,0.728,174.621,113.159,-199.097,
00:00:28:333,-0.305,-0.769,0.821,125.854,80.749,-142.029,
00:00:28:350,-0.128,-0.987,0.889,28.686,17.334,-88.074,
00:00:28:367,0.042,-1.077,1.044,-199.769,-55.115,-73.182,
00:00:28:383,0.231,-1.215,1.051,-421.814,-121.399,-24.903,
00:00:28:400,0.398,-1.077,0.945,-387.33,-194.458,47.18,
00:00:28:417,0.498,-1.069,0.828,-320.984,-270.264,109.863,
00:00:28:433,0.549,-1.052,0.685,-205.262,-290.039,185.241,
00:00:28:450,0.493,-1.056,0.523,-194.336,-259.278,216.674,
00:00:28:467,0.342,-1.03,0.414,-177.552,-190.796,230.774,
00:00:28:483,0.125,-1.026,0.367,-180.787,-121.705,244.567,
00:00:28:500,-0.084,-1.038,0.335,-16.541,-46.143,260.62,
00:00:28:517,-0.316,-1.06,0.211,133.361,14.953,241.943,
00:00:28:533,-0.543,-1.108,0.185,272.4,80.993,177.917,
00:00:28:550,-0.648,-1.074,0.085,284.546,161.377,21.484,
00:00:28:567,-0.719,-1.002,0.136,249.572,237.365,-92.286,
00:00:28:583,-0.804,-0.715,0.221,402.588,316.833,-133.851,
00:00:28:600,-0.911,-0.657,0.346,547.546,339.66,-175.66,
00:00:28:617,-0.939,-0.462,0.34,525.146,372.863,-243.653,
00:00:28:633,-0.948,-0.451,0.52,372.436,373.474,-277.649,
00:00:28:650,-0.845,-0.424,0.591,148.925,333.74,-308.594,
00:00:28:667,-0.743,-0.482,0.699,65.734,219.787,-297.303,
00:00:28:683,-0.623,-0.515,0.821,-56.153,96.13,-278.687,
00:00:28:700,-0.446,-0.678,0.853,-28.992,-15.686,-199.524,whipLH
00:00:28:717,-0.3,-0.837,0.801,-43.335,-85.511,-97.596,
00:00:28:733,-0.14,-0.853,0.722,-115.235,-145.997,-47.242,
00:00:28:750,0.291,-0.911,0.683,-283.081,-231.263,120.788,
00:00:28:767,0.501,-1.04,0.73,-239.563,-269.471,200.744,
00:00:28:783,0.59,-1.245,0.685,-266.236,-299.134,234.985,
00:00:28:800,0.632,-1.356,0.474,-283.875,-310.303,194.641,
00:00:28:817,0.493,-1.274,0.437,-320.069,-284.913,154.846,
00:00:28:833,0.28,-1.129,0.415,-399.903,-251.343,152.771,
00:00:28:850,0.093,-1.083,0.391,-272.4,-197.51,182.251,
00:00:28:867,-0.12,-1.025,0.313,-165.833,-133.545,195.495,
00:00:28:883,-0.376,-1.051,0.188,-15.198,-73.06,195.556,
00:00:28:900,-0.59,-1.016,0.133,90.515,-19.104,130.31,
00:00:28:917,-0.752,-1.003,0.013,138.61,58.471,22.888,
00:00:28:933,-0.93,-0.894,-0.157,104.004,142.517,-96.985,
00:00:28:950,-1.133,-0.659,-0.119,113.647,225.28,-202.576,
00:00:28:967,-1.058,-0.426,0.239,118.164,396.423,-426.392,
00:00:28:983,-0.885,-0.376,0.432,106.445,458.557,-486.451,
00:00:29:0,-0.665,-0.417,0.587,122.741,451.233,-459.778,
00:00:29:17,-0.463,-0.545,0.819,161.621,394.592,-393.189,
00:00:29:33,-0.275,-0.685,0.973,166.076,289.978,-303.223,
00:00:29:50,-0.195,-0.805,1.088,126.831,160.522,-232.483,
00:00:29:67,-0.179,-0.842,1.078,83.74,14.526,-163.453,
00:00:29:83,-0.151,-0.801,0.965,-13.611,-137.452,-81.727,
00:00:29:100,-0.074,-0.725,0.776,-161.56,-242.798,-10.804,
00:00:29:117,-0.027,-0.762,0.699,-348.023,-315.064,70.983,
00:00:29:133,0.173,-0.808,0.685,-490.662,-323.548,167.846,
00:00:29:150,0.301,-0.918,0.657,-463.135,-305.664,255.127,
00:00:29:167,0.442,-1.127,0.59,-346.985,-277.771,266.052,
00:00:29:183,0.472,-1.331,0.733,96.557,-273.743,265.686,
00:00:29:200,0.603,-1.53,0.237,191.528,-199.524,283.203,
00:00:29:217,0.564,-1.453,0.13,-248.352,-204.407,115.661,
00:00:29:233,0.344,-1.183,0.33,-404.419,-145.203,65.429,
00:00:29:250,0.156,-1.044,0.348,-215.088,-72.693,80.993,
00:00:29:267,0.034,-0.968,0.431,-4.334,-26.978,144.775,
00:00:29:283,-0.115,-1.017,0.418,91.796,2.014,180.908,
00:00:29:300,-0.371,-0.962,0.449,126.648,11.535,186.401,
00:00:29:317,-0.582,-0.953,0.423,104.736,13.366,147.4,
00:00:29:333,-0.727,-0.887,0.46,46.203,-6.958,102.356,
00:00:29:350,-0.837,-0.788,0.42,3.601,-11.658,26.794,
00:00:29:367,-0.969,-0.724,0.4,-58.472,-20.203,-50.66,
00:00:29:383,-1.298,-0.531,0.053,116.76,18.432,-162.903,
00:00:29:400,-1.168,-0.575,0.283,65.979,37.719,-217.713,
00:00:29:417,-0.883,-0.485,0.178,139.099,119.751,-290.955,
00:00:29:433,-0.962,-0.225,0.201,106.811,196.777,-365.601,
00:00:29:450,-0.942,-0.516,0.248,361.816,277.771,-356.202,
00:00:29:467,-0.554,-0.92,0.568,78.247,278.808,-394.593,
00:00:29:483,-0.37,-0.799,0.682,-184.815,228.271,-377.32,
00:00:29:500,-0.249,-0.701,0.751,-156.983,167.297,-303.223,
00:00:29:517,-0.08,-0.808,0.841,-176.453,78.979,-233.826,
00:00:29:533,0.164,-0.996,1.018,-135.437,-15.748,-115.479,
00:00:29:550,0.31,-1.107,0.97,-160.889,-76.661,-1.831,
00:00:29:567,0.769,-2.042,1.715,-52.43,-407.654,-150.574,
00:00:29:583,0.587,-0.535,0.573,-410.462,-220.887,-26.246,
00:00:29:600,0.171,-0.997,0.357,-338.135,-180.542,111.328,
00:00:29:617,0.425,-1.009,0.632,-431.092,-162.232,129.028,
00:00:29:633,0.421,-0.845,0.591,-323.182,-111.756,216.125,
00:00:29:650,0.27,-1.026,0.596,-236.206,-76.539,253.112,
00:00:29:667,0.153,-1.041,0.575,-187.561,-55.481,246.765,
00:00:29:683,-0.001,-1.151,0.589,-212.708,-73.365,223.266,
00:00:29:700,-0.154,-1.141,0.643,-234.009,-115.479,190.246,
00:00:29:717,-0.299,-1.142,0.657,-259.583,-158.509,151.001,
00:00:29:733,-0.409,-1.047,0.595,-229.859,-191.651,113.037,
00:00:29:750,-0.519,-0.889,0.429,-49.622,-192.688,121.215,
00:00:29:767,-0.704,-0.765,0.232,149.17,-154.969,155.395,
00:00:29:783,-0.853,-0.643,0.083,210.571,-58.35,161.987,
00:00:29:800,-0.898,-0.614,0.062,262.207,96.984,106.933,
00:00:29:817,-0.864,-0.583,0.055,215.881,237.487,36.926,
00:00:29:833,-0.887,-0.465,0.07,242.37,316.65,-59.937,
00:00:29:850,-0.864,-0.509,0.273,144.409,328.857,-127.32,
00:00:29:867,-0.818,-0.399,0.375,227.722,316.955,-199.158,
00:00:29:883,-0.791,-0.485,0.44,239.074,281.189,-227.478,
00:00:29:900,-0.718,-0.405,0.494,342.224,245.361,-242.981,
00:00:29:917,-0.725,-0.554,0.534,427.917,197.326,-220.032,
00:00:29:933,-0.641,-0.555,0.542,490.234,137.573,-190.552,
00:00:29:950,-0.513,-0.695,0.548,497.497,88.012,-144.654,
00:00:29:967,-0.27,-0.917,0.607,257.751,30.212,-110.901,
00:00:29:983,-0.071,-0.975,0.685,60.73,-16.602,-81.055,
00:00:30:0,0.029,-1.133,0.801,-129.7,-81.055,-73.06,
00:00:30:17,0.132,-1.145,0.882,-387.024,-150.147,-67.383,
00:00:30:33,0.305,-1.233,0.925,-459.046,-229.432,-39.795,
00:00:30:50,0.383,-1.182,0.843,-458.802,-287.293,-24.598,
00:00:30:67,0.412,-1.168,0.735,-394.715,-313.355,-0.916,
00:00:30:83,0.314,-1.04,0.383,-142.151,-208.008,99.365,
00:00:30:100,0.319,-0.976,0.265,-285.706,-160.889,93.872,
00:00:30:117,0.251,-1.023,0.259,-214.295,-54.566,113.22,
00:00:30:133,0.11,-1.045,0.156,-43.885,64.392,100.28,
00:00:30:150,-0.033,-1.132,0.144,124.267,199.89,67.688,
00:00:30:167,-0.186,-1.239,0.117,207.824,311.096,-19.898,
00:00:30:183,-0.293,-1.116,0.107,195.495,400.39,-106.385,
00:00:30:200,-0.499,-0.899,0.308,353.759,455.139,-161.744,
00:00:30:217,-0.604,-0.817,0.426,500.549,467.407,-213.013,
00:00:30:233,-0.699,-0.698,0.537,559.265,465.271,-243.897,
00:00:30:250,-0.786,-0.531,0.688,497.314,430.664,-203.186,
00:00:30:267,-0.843,-0.339,0.762,338.928,354.675,-217.347,
00:00:30:283,-0.883,-0.343,0.906,175.781,234.069,-207.825,
00:00:30:300,-0.839,-0.437,0.93,-340.699,31.799,-233.826,
00:00:30:317,-0.883,-0.051,1.11,-456.421,-165.039,-140.87,
00:00:30:333,-0.676,-0.335,0.939,39.856,-254.944,38.574,
00:00:30:350,-0.596,-0.445,0.82,214.233,-318.238,165.344,
00:00:30:367,-0.479,-0.599,0.722,125.183,-349.366,236.816,
00:00:30:383,-0.265,-0.704,0.529,86.731,-416.932,277.71,
00:00:30:400,-0.065,-0.948,0.577,-47.608,-515.442,308.715,
00:00:30:417,0.198,-1.101,0.575,-131.165,-573.304,338.195,
00:00:30:433,0.336,-1.405,0.477,-103.211,-618.592,320.129,
00:00:30:450,0.426,-1.511,0.377,-184.815,-614.747,237.732,
00:00:30:467,0.431,-1.545,0.269,-257.996,-537.049,139.953,
00:00:30:483,0.339,-1.388,0.177,-348.267,-421.631,53.772,
00:00:30:500,0.214,-1.177,0.14,-79.773,-279.175,26.123,
00:00:30:517,0.08,-1.11,-0.086,-50.415,-111.084,42.114,
00:00:30:533,-0.198,-0.74,-0.117,-147.828,57.251,-11.292,
00:00:30:550,-0.143,-1.114,0.021,-140.748,187.072,32.714,
00:00:30:567,-0.139,-0.989,0.261,-258.912,250.305,-37.537,
00:00:30:583,-0.303,-1.124,0.424,-216.492,289.611,-64.026,
00:00:30:600,-0.34,-1.115,0.435,-223.45,284.179,-127.137,
00:00:30:617,-0.382,-1.047,0.422,-103.089,265.93,-184.205,
00:00:30:633,-0.49,-0.9,0.319,7.202,271.728,-229.248,
00:00:30:650,-0.6,-0.665,0.137,140.869,289.123,-256.409,
00:00:30:667,-0.702,-0.592,0.059,261.169,306.518,-272.278,
00:00:30:683,-0.728,-0.527,0.058,318.786,353.515,-271.607,
00:00:30:700,-0.803,-0.445,0.133,350.219,408.691,-272.339,
00:00:30:717,-0.796,-0.505,0.244,334.594,435.669,-312.745,
00:00:30:733,-0.757,-0.525,0.425,256.836,417.602,-364.808,
00:00:30:750,-0.742,-0.564,0.629,207.763,357.91,-387.269,
00:00:30:767,-0.693,-0.738,0.87,112.06,256.652,-394.593,
00:00:30:783,-0.574,-0.808,0.93,2.014,122.802,-372.437,
00:00:30:800,-0.431,-0.764,0.945,-85.938,15.625,-339.722,
00:00:30:817,-0.309,-0.731,0.926,-173.706,-81.482,-278.138,
00:00:30:833,-0.121,-0.762,0.905,-234.009,-177.857,-167.908,
00:00:30:850,-0.004,-0.971,1.203,-379.883,-319.397,-95.093,
00:00:30:867,0.136,-1.027,1.308,-479.126,-426.941,-17.823,
00:00:30:883,0.352,-0.693,0.492,-545.899,-347.474,142.822,
00:00:30:900,0.232,-0.765,0.711,-430.176,-304.322,272.277,
00:00:30:917,0.361,-0.993,0.601,-261.231,-206.482,325.683,
00:00:30:933,0.498,-1.115,0.474,-196.106,-146.546,321.106,
00:00:30:950,0.362,-1.296,0.47,-229.859,-69.336,277.771,
00:00:30:967,0.253,-1.341,0.494,-408.204,-31.922,209.9,
00:00:30:983,-0.204,-1.121,0.447,-122.376,8.239,119.629,
00:00:31:0,-0.362,-1.154,0.438,-111.756,21.667,74.218,
00:00:31:17,-0.469,-0.993,0.307,-158.753,74.34,17.761,
00:00:31:33,-0.633,-0.822,0.204,-64.82,118.652,-18.677,
00:00:31:50,-0.77,-0.665,0.156,48.523,161.132,-40.406,
00:00:31:67,-0.932,-0.505,0.088,188.171,207.275,-39.856,
00:00:31:83,-1.004,-0.398,0.087,293.457,264.709,-58.411,
00:00:31:100,-1.07,-0.342,0.153,313.659,264.587,-102.967,
00:00:31:117,-1.078,-0.24,0.279,260.986,252.075,-189.698,
00:00:31:133,-1.041,-0.279,0.433,258.117,195.434,-252.991,
00:00:31:150,-0.97,-0.357,0.545,246.948,116.272,-286.011,
00:00:31:167,-0.886,-0.437,0.593,319.397,35.888,-250.306,
00:00:31:183,-0.762,-0.611,0.578,384.826,-36.438,-229.615,
00:00:31:200,-0.644,-0.693,0.565,325.378,-72.571,-185.669,
00:00:31:217,-0.454,-0.684,0.518,247.802,-73.67,-126.16,
00:00:31:233,-0.235,-0.779,0.588,140.197,-79.773,-55.359,
00:00:31:250,-0.07,-0.993,0.78,32.47,-80.445,42.663,
00:00:31:267,0.199,-1.208,0.891,-76.416,-92.041,71.838,
00:00:31:283,0.904,-2.799,2.144,138.549,-572.022,-246.46,
00:00:31:300,0.585,-0.465,0.874,-176.758,-301.148,-78.186,
00:00:31:317,0.127,-1.345,0.378,193.298,-135.315,169.616,
00:00:31:333,0.593,-1.233,0.461,-366.883,-74.891,59.692,
00:00:31:350,0.528,-1.204,0.477,-669.068,-1.282,24.108,
00:00:31:367,0.321,-1.126,0.561,-612.61,61.889,33.02,
00:00:31:383,0.164,-1.015,0.52,-416.871,67.504,101.867,
00:00:31:400,0.044,-1.02,0.494,-209.839,43.09,142.151,
00:00:31:417,-0.049,-1.018,0.421,-143.25,-1.16,125.976,
00:00:31:433,-0.156,-0.917,0.329,-173.462,-36.011,76.355,
00:00:31:450,-0.281,-0.935,0.235,-182.862,-69.092,79.956,
00:00:31:467,-0.498,-0.752,0.098,-107.544,9.765,59.57,
00:00:31:483,-0.526,-0.7,0.07,-8.789,83.923,38.94,
00:00:31:500,-0.583,-0.734,0.079,128.479,124.878,11.23,
00:00:31:517,-0.752,-0.758,0.014,461.303,200.5,-33.02,
00:00:31:533,-0.966,-0.696,0.12,385.864,262.146,-136.048,
00:00:31:550,-0.898,-0.563,0.759,141.357,282.776,-445.313,
00:00:31:567,-0.887,-0.505,0.868,222.961,202.331,-466.37,
00:00:31:583,-0.751,-0.442,0.913,159.546,139.77,-407.898,
00:00:31:600,-0.635,-0.435,0.9,165.588,83.007,-323.121,
00:00:31:617,-0.582,-0.457,0.893,21.85,43.212,-235.962,
00:00:31:633,-0.452,-0.562,0.869,-54.993,4.821,-150.391,
00:00:31:650,-0.345,-0.6,0.887,-20.081,-23.316,-31.678,
00:00:31:667,-0.219,-0.758,0.902,17.334,-66.651,56.457,
00:00:31:683,-0.118,-0.997,0.828,-77.698,-109.192,103.759,
00:00:31:700,0.09,-1.033,0.809,-264.1,-154.786,117.92,
00:00:31:717,0.304,-1.055,0.764,-382.569,-227.906,154.907,
00:00:31:733,0.405,-1.094,0.758,-417.237,-307.251,183.532,
00:00:31:750,0.426,-1.081,0.683,-436.402,-363.465,210.266,
00:00:31:767,0.441,-1.099,0.551,-390.198,-379.029,229.431,
00:00:31:783,0.42,-1.068,0.427,-300.11,-349.488,250.488,
00:00:31:800,0.316,-1.092,0.249,-187.989,-284.974,254.577,
00:00:31:817,0.15,-1.084,0.143,-125.611,-211.121,255.249,
00:00:31:833,-0.021,-1.06,0.088,-110.535,-100.892,221.069,
00:00:31:850,-0.189,-1.093,0.104,-43.091,3.845,175.964,
00:00:31:867,-0.349,-1.082,0.161,16.357,86.059,111.755,
00:00:31:883,-0.503,-1.005,0.248,42.358,132.507,41.137,
00:00:31:900,-0.59,-0.996,0.353,69.397,131.286,-37.11,
00:00:31:917,-0.661,-0.936,0.354,135.681,102.722,-89.417,
00:00:31:933,-0.701,-0.843,0.337,223.693,81.848,-139.283,
00:00:31:950,-0.834,-0.664,0.351,247.985,78.674,-183.106,
00:00:31:967,-0.922,-0.634,0.455,145.446,103.454,-246.949,
00:00:31:983,-0.945,-0.495,0.515,23.559,109.008,-271.485,
00:00:32:0,-0.959,-0.385,0.556,-83.13,88.745,-284.729,
00:00:32:17,-0.946,-0.288,0.625,-127.198,31.616,-271.973,
00:00:32:33,-0.867,-0.313,0.708,-140.259,-44.739,-222.901,
00:00:32:50,-0.773,-0.292,0.72,-83.802,-85.755,-147.278,
00:00:32:67,-0.638,-0.511,0.692,62.866,-105.652,-46.998,
00:00:32:83,-0.481,-0.762,0.638,37.719,-132.447,-5.86,
00:00:32:100,-0.379,-0.968,0.589,-32.959,-115.662,-9.034,
00:00:32:117,-0.276,-1.135,0.568,-65.064,-78.736,-66.651,
00:00:32:133,-0.235,-1.128,0.498,30.212,-33.509,-75.867,
00:00:32:150,-0.189,-1.144,0.481,149.536,22.216,-87.769,
00:00:32:167,-0.093,-1.052,0.507,178.466,100.341,-80.018,
00:00:32:183,0.067,-1.007,0.431,142.456,151.794,-74.097,
00:00:32:200,0.172,-0.966,0.511,-42.969,168.335,-65.613,
00:00:32:217,0.492,-0.95,0.872,-222.168,58.898,-118.836,
00:00:32:233,0.287,-1.014,1.197,-353.577,-57.435,-61.219,
00:00:32:250,0.405,-0.741,0.702,-238.343,-74.097,16.662,
00:00:32:267,0.309,-0.818,0.702,-273.682,-132.752,63.537,
00:00:32:283,0.242,-0.747,0.735,-498.108,-171.875,102.844,
00:00:32:300,0.182,-0.729,0.753,-492.615,-228.211,174.072,
00:00:32:317,0.075,-0.688,0.799,-361.206,-273.011,265.014,
00:00:32:333,-0.024,-0.795,0.741,-203.186,-298.829,337.463,
00:00:32:350,-0.136,-0.867,0.617,-52.735,-301.148,377.929,
00:00:32:367,-0.232,-1.045,0.424,13.794,-277.039,355.102,
00:00:32:383,-0.363,-1.14,0.25,-90.821,-237.305,262.573,
00:00:32:400,-0.734,-0.568,0.218,205.444,-36.133,158.02,
00:00:32:417,-0.528,-1.548,-0.176,685.485,96.74,209.045,
00:00:32:433,-0.533,-0.894,0.002,173.156,254.882,-60.181,
00:00:32:450,-0.731,-1.052,0.305,-15.198,333.313,-177.369,
00:00:32:467,-0.726,-0.65,0.492,-167.542,359.008,-302.185,
00:00:32:483,-0.715,-0.707,0.501,85.51,316.04,-277.344,
00:00:32:500,-0.76,-0.428,0.475,324.585,269.958,-236.145,
00:00:32:517,-0.825,-0.356,0.456,472.473,239.868,-187.623,
00:00:32:533,-0.789,-0.497,0.357,465.698,219.299,-190.491,
00:00:32:550,-0.776,-0.426,0.377,351.318,202.026,-178.65,
00:00:32:567,-0.663,-0.551,0.38,181.64,181.457,-201.477,
00:00:32:583,-0.684,-0.514,0.42,170.898,173.278,-171.082,
00:00:32:600,-0.619,-0.639,0.459,219.177,191.04,-145.142,
00:00:32:617,-0.619,-0.697,0.56,245.3,221.557,-117.676,
00:00:32:633,-0.525,-0.841,0.57,232.177,230.041,-104.126,
00:00:32:650,-0.483,-0.822,0.616,203.857,164.917,-139.71,
00:00:32:667,-0.395,-1.073,0.612,58.776,61.279,-134.156,
00:00:32:683,-0.222,-0.978,0.665,-226.075,-17.884,-142.579,whipLH
00:00:32:700,-0.041,-1.014,0.778,-506.226,-80.811,-129.883,
00:00:32:717,0.126,-0.92,0.862,-643.494,-154.297,-57.862,
00:00:32:733,0.256,-0.986,0.898,-607.972,-222.229,-10.193,
00:00:32:750,0.339,-0.966,0.871,-675.843,-273.926,18.798,
00:00:32:767,0.379,-0.989,0.865,-684.937,-283.936,77.514,
00:00:32:783,0.392,-1.005,0.763,-604.676,-269.349,98.938,
00:00:32:800,0.293,-1.031,0.69,-540.223,-243.103,108.459,
00:00:32:817,0.156,-0.977,0.606,-508.789,-198.182,93.383,
00:00:32:833,0.056,-0.924,0.47,-457.947,-153.382,87.646,
00:00:32:850,-0.07,-0.933,0.453,-464.783,-138.306,104.736,
00:00:32:867,-0.188,-0.915,0.437,-468.567,-116.578,115.112,
00:00:32:883,-0.251,-0.898,0.44,-288.392,-84.9,129.333,
00:00:32:900,-0.373,-0.902,0.328,-140.686,-48.157,90.271,
00:00:32:917,-0.476,-0.895,0.299,-28.809,-1.404,31.982,
00:00:32:933,-0.579,-0.855,0.32,94.909,93.627,-34.363,
00:00:32:950,-0.648,-0.876,0.226,111.145,157.226,-93.934,
00:00:32:967,-0.788,-0.733,0.262,239.563,183.654,-140.503,
00:00:32:983,-0.874,-0.726,0.326,342.163,184.631,-191.773,
00:00:33:0,-0.895,-0.621,0.386,366.272,202.575,-232.361,
00:00:33:17,-0.888,-0.53,0.526,316.833,212.158,-300.049,
00:00:33:33,-0.859,-0.44,0.585,346.435,219.238,-323.243,
00:00:33:50,-0.835,-0.325,0.61,479.37,201.599,-329.407,
00:00:33:67,-0.763,-0.386,0.706,705.505,173.156,-270.02,
00:00:33:83,-0.699,-0.444,0.729,662.231,130.798,-217.041,
00:00:33:100,-0.532,-0.637,0.847,147.094,52.124,-183.045,
00:00:33:117,-0.433,-0.533,0.879,-93.873,-30.945,-122.742,
00:00:33:133,-0.282,-0.5,0.948,-231.69,-137.879,4.638,
00:00:33:150,0.046,-0.809,0.943,-448.365,-329.956,219.726,
00:00:33:167,0.118,-0.973,0.924,-463.074,-353.516,258.3,
00:00:33:183,0.183,-1.175,0.838,-425.171,-350.892,250.061,
00:00:33:200,0.203,-1.199,0.725,-345.704,-313.904,222.046,
00:00:33:217,0.211,-1.211,0.534,-198.06,-255.982,195.068,
00:00:33:233,0.146,-1.136,0.432,101.196,-180.359,154.602,
00:00:33:250,0.131,-1.153,0.152,-9.522,-62.745,105.713,
00:00:33:267,0.093,-0.995,0.242,-205.872,0.366,66.772,
00:00:33:283,0.035,-0.877,0.332,-102.295,76.11,100.341,
00:00:33:300,-0.006,-0.872,0.405,-15.992,112.671,104.37,
00:00:33:317,-0.035,-0.941,0.538,-13.245,111.999,100.097,
00:00:33:334,-0.118,-0.991,0.616,-8.484,74.646,112.365,
00:00:33:350,-0.163,-1.012,0.622,-128.113,1.464,93.872,
00:00:33:367,-0.254,-0.906,0.667,-104.737,-58.411,70.312,
00:00:33:384,-0.353,-0.858,0.64,-23.011,-91.675,73.364,
00:00:33:400,-0.47,-0.769,0.566,64.514,-101.685,84.106,
00:00:33:417,-0.619,-0.653,0.457,168.64,-62.745,76.843,
00:00:33:434,-0.801,-1.015,-0.2,709.045,105.59,42.48,
00:00:33:450,-1.175,-0.561,-0.055,505.127,259.887,4.943,
00:00:33:467,-1.033,-0.843,0.151,182.373,347.046,-59.388,
00:00:33:484,-0.909,-0.485,0.46,-231.507,365.112,-195.862,
00:00:33:500,-0.917,-0.256,0.794,5.127,296.753,-318.238,
00:00:33:517,-1.048,-0.444,0.877,248.535,215.454,-343.018,
00:00:33:534,-0.829,-0.322,0.701,160.278,153.503,-321.534,
00:00:33:550,-0.731,-0.366,0.714,299.377,133.728,-246.827,
00:00:33:567,-0.595,-0.46,0.631,111.755,125.793,-158.509,
00:00:33:584,-0.485,-0.493,0.601,27.099,94.665,-120.545,
00:00:33:600,-0.279,-0.782,0.771,-10.926,49.438,-53.467,
00:00:33:617,-0.138,-0.935,0.811,-101.136,2.502,10.62,
00:00:33:634,-0.04,-1.179,0.85,-194.703,-59.266,25.94,
00:00:33:650,0.065,-1.221,0.836,-325.623,-120.179,-2.137,
00:00:33:667,0.123,-1.293,0.804,-454.041,-153.199,-56.214,
00:00:33:684,0.154,-1.155,0.753,-506.104,-196.534,-73.731,
00:00:33:700,0.144,-1.01,0.656,-492.005,-220.765,-58.411,
00:00:33:717,0.117,-0.86,0.537,-373.597,-210.267,-6.287,
00:00:33:734,0.069,-0.743,0.372,-143.921,-140.686,55.297,
00:00:33:750,0.024,-0.786,0.187,123.474,12.695,97.168,
00:00:33:767,-0.001,-0.912,0.062,226.074,261.963,118.103,
00:00:33:784,-0.078,-0.964,0.081,271.911,487.671,66.955,
00:00:33:800,-0.241,-0.958,0.27,302.368,612.121,-66.468,
00:00:33:817,-0.342,-1.002,0.478,319.336,635.009,-152.588,
00:00:33:834,-0.483,-0.809,0.729,425.537,572.082,-157.471,
00:00:33:850,-0.46,-0.93,0.812,495.3,440.368,-122.437,
00:00:33:867,-0.591,-0.581,0.982,583.923,209.533,-63.416,
00:00:33:884,-0.526,-0.637,0.968,535.217,-5.433,-24.72,
00:00:33:900,-0.579,-0.397,0.996,265.564,-195.252,19.47,
00:00:33:917,-0.529,-0.434,0.829,-120.301,-359.742,57.067,
00:00:33:934,-0.463,-0.438,0.657,-296.387,-497.254,141.479,
00:00:33:950,-0.428,-0.468,0.518,-339.966,-570.923,208.984,
00:00:33:967,-0.295,-0.745,0.391,-242.798,-575.562,257.446,
00:00:33:984,-0.203,-0.962,0.227,-229.248,-502.686,276.977,
00:00:34:0,-0.044,-1.268,-0.057,-100.831,-312.073,217.712,
00:00:34:17,0.002,-1.549,-0.295,24.597,-12.818,54.931,
00:00:34:34,-0.003,-1.586,-0.198,104.858,381.53,-135.376,
00:00:34:50,-0.101,-1.37,0.038,13.61,667.602,-261.963,
00:00:34:67,-0.217,-1.025,0.497,5.127,729.736,-332.276,
00:00:34:84,-0.305,-0.764,0.915,46.142,623.84,-352.784,
00:00:34:100,-0.391,-0.715,1.208,197.265,439.209,-338.746,
00:00:34:117,-0.386,-0.632,1.229,215.026,216.552,-284.119,
00:00:34:134,-0.403,-0.458,1.129,276.855,-1.893,-156.311,
00:00:34:150,-0.351,-0.443,0.861,85.388,-243.47,-92.774,
00:00:34:167,-0.419,-0.25,0.674,-146.729,-448.975,-21.18,
00:00:34:184,-0.443,-0.183,0.543,-406.495,-533.692,71.899,
00:00:34:200,-0.375,-0.345,0.288,-480.591,-506.714,204.651,
00:00:34:217,-0.292,-0.673,0.204,-363.892,-386.719,330.871,
00:00:34:234,-0.133,-1.231,0.094,-48.035,-157.837,347.839,
00:00:34:250,-0.005,-1.841,-0.068,250.366,80.81,181.945,
00:00:34:267,0.03,-1.92,0.062,260.376,308.654,-56.641,
00:00:34:284,-0.087,-1.816,0.214,68.908,468.75,-329.956,
00:00:34:300,-0.187,-1.261,0.38,-83.924,517.273,-461.67,
00:00:34:317,-0.24,-0.714,0.683,-5.86,459.228,-496.155,
00:00:34:334,-0.284,-0.562,0.823,134.704,388.183,-413.331,
00:00:34:350,-0.303,-0.237,0.849,189.392,301.635,-264.771,
00:00:34:367,-0.354,-0.269,0.923,180.969,249.755,-117.493,
00:00:34:384,-0.395,-0.275,0.935,-83.68,119.384,11.047,
00:00:34:400,-0.413,-0.177,0.955,-327.454,-45.899,91.552,
00:00:34:417,-0.502,-0.173,1.031,-228.455,-264.405,222.107,
00:00:34:434,-0.449,-0.338,0.94,-147.522,-514.222,348.51,
00:00:34:450,-0.313,-0.812,0.678,53.527,-653.687,402.832,
00:00:34:467,-0.254,-1.254,0.293,-184.449,-661.255,335.754,
00:00:34:484,-0.094,-1.396,-0.061,-252.625,-501.282,218.872,
00:00:34:500,-0.02,-1.628,-0.22,-198.365,-219.056,68.969,
00:00:34:517,-0.047,-1.521,-0.244,-86.121,140.319,-112.427,
00:00:34:534,-0.112,-1.429,-0.098,23.62,457.397,-290.955,
00:00:34:550,-0.191,-1.146,0.086,-24.903,653.381,-341.187,
00:00:34:567,-0.217,-0.822,0.602,-14.71,673.889,-376.526,
00:00:34:584,-0.296,-0.825,0.991,67.688,556.457,-360.047,
00:00:34:600,-0.351,-0.516,1.155,119.873,370.117,-307.251,
00:00:34:617,-0.384,-0.434,1.096,157.409,168.151,-247.803,
00:00:34:634,-0.396,-0.304,1.058,99.853,-83.558,-153.565,
00:00:34:650,-0.448,-0.164,0.878,-78.797,-286.194,-40.833,
00:00:34:667,-0.377,-0.073,0.788,-130.921,-451.294,113.159,
00:00:34:684,-0.307,-0.361,0.62,-94.178,-511.17,250.671,
00:00:34:700,-0.23,-0.731,0.379,-105.042,-489.38,354.248,
