TIMECODE,ACC_X,ACC_Y,ACC_Z,GYR_X,GYR_Y,GYR_Z,ECG_I,ECG_II,ECG_III,TAG
,0.12,-0.306,0.954,16.174,-11.658,-12.391,0,0,0,
,0.113,-0.305,0.971,7.568,-2.808,-17.762,0,0,0,
,0.116,-0.294,0.968,15.502,4.333,-19.104,0,0,0,
,0.111,-0.289,0.968,4.028,7.08,-20.142,0,0,0,
,0.11,-0.296,0.953,14.038,1.159,-21.241,0,0,0,
,0.114,-0.307,0.958,11.901,-1.954,-20.386,0,0,0,
,0.116,-0.312,0.958,8.239,-4.7,-22.644,0,0,0,
,0.11,-0.309,0.976,-3.296,2.502,-26.856,0,0,0,
,0.114,-0.307,0.968,-6.226,9.155,-27.71,0,0,0,
,0.117,-0.297,0.95,-5.433,2.563,-26.062,0,0,0,
,0.111,-0.303,0.943,-5.555,-4.7,-21.729,0,0,0,
,0.116,-0.304,0.947,-7.996,-13.733,-23.804,0,0,0,
,0.115,-0.313,0.968,-10.193,-12.818,-25.757,0,0,0,
,0.111,-0.322,0.988,-12.574,-3.602,-26.856,0,0,0,
,0.109,-0.315,0.976,-12.696,8.972,-25.086,0,0,0,
,0.108,-0.302,0.959,-10.01,9.033,-25.818,0,0,0,
,0.105,-0.302,0.958,-4.151,11.108,-27.161,0,0,0,
,0.111,-0.305,0.958,1.159,9.948,-31.8,0,0,0,
,0.109,-0.3,0.959,1.22,6.897,-37.049,0,0,0,
,0.106,-0.32,0.988,-8.362,17.7,-42.847,0,0,0,
,0.101,-0.308,0.97,-16.785,27.221,-38.941,0,0,0,
,0.105,-0.294,0.948,-9.461,21.972,-39.185,0,0,0,
,0.106,-0.315,0.965,-4.639,19.836,-39.429,0,0,0,
,0.11,-0.321,0.962,-11.597,19.043,-37.293,0,0,0,
,0.114,-0.309,0.94,-5.738,14.099,-35.34,0,0,0,
,0.115,-0.31,0.949,-4.639,6.347,-35.584,0,0,0,
,0.112,-0.308,0.945,-3.052,6.897,-27.283,0,0,0,
,0.114,-0.319,0.957,3.54,-3.235,-26.917,0,0,0,
,0.112,-0.327,0.973,-0.611,-0.123,-24.964,0,0,0,
,0.104,-0.315,0.956,-3.418,0.244,-20.508,0,0,0,
,0.11,-0.302,0.947,-0.855,-8.24,-20.02,0,0,0,
,0.106,-0.323,0.97,-0.428,-6.714,-24.048,0,0,0,
,0.107,-0.313,0.957,0.793,-3.846,-23.438,0,0,0,
,0.107,-0.312,0.952,3.784,-3.663,-24.231,0,0,0,
,0.102,-0.314,0.966,-2.076,0.183,-27.1,0,0,0,
,0.098,-0.32,0.972,-5.738,12.207,-27.222,0,0,0,
,0.103,-0.313,0.96,-5.86,11.535,-24.109,0,0,0,
,0.102,-0.314,0.947,0.183,3.54,-27.832,0,0,0,
,0.1,-0.323,0.971,-3.663,9.155,-33.509,0,0,0,
,0.1,-0.323,0.969,-11.231,17.15,-33.143,0,0,0,
,0.104,-0.316,0.96,-10.621,18.066,-33.143,0,0,0,
,0.103,-0.312,0.951,-8.301,15.747,-33.57,0,0,0,
,0.107,-0.321,0.951,-4.883,8.789,-36.011,0,0,0,
,0.099,-0.32,0.961,-12.452,17.944,-36.255,0,0,0,
,0.1,-0.318,0.959,-12.085,19.409,-37.72,0,0,0,
,0.102,-0.321,0.954,-8.789,18.31,-35.889,0,0,0,
,0.104,-0.322,0.955,-10.01,11.779,-36.683,0,0,0,
,0.103,-0.326,0.953,-10.682,10.253,-34.302,0,0,0,
,0.105,-0.317,0.951,-8.728,3.051,-36.438,0,0,0,
,0.104,-0.324,0.965,-11.231,4.211,-36.316,0,0,0,
,0.105,-0.328,0.966,-13.733,16.052,-31.861,0,0,0,
,0.11,-0.324,0.952,-9.4,11.108,-29.48,0,0,0,
,0.108,-0.321,0.949,-8.362,5.615,-28.321,0,0,0,
,0.099,-0.326,0.96,-7.203,5.737,-27.894,0,0,0,
,0.099,-0.325,0.963,-7.874,3.54,-28.321,0,0,0,
,0.103,-0.318,0.953,-6.592,6.042,-26.001,0,0,0,
,0.103,-0.32,0.956,-3.785,3.295,-27.771,0,0,0,
,0.098,-0.318,0.967,-6.409,3.234,-28.992,0,0,0,
,0.096,-0.323,0.965,-9.217,5.737,-30.762,0,0,0,
,0.1,-0.321,0.957,-11.17,10.253,-29.725,0,0,0,
,0.1,-0.321,0.959,-7.874,10.925,-33.448,0,0,0,
,0.101,-0.328,0.96,-8.789,14.526,-34.363,0,0,0,
,0.102,-0.32,0.951,-5.372,11.779,-35.706,0,0,0,
,0.1,-0.328,0.957,-10.01,16.174,-37.842,0,0,0,
,0.1,-0.327,0.962,-18.128,17.334,-39.612,0,0,0,
,0.101,-0.318,0.962,-17.212,21.179,-41.26,0,0,0,
,0.101,-0.324,0.964,-20.752,20.202,-46.021,0,0,0,
,0.1,-0.322,0.961,-18.25,24.231,-42.359,0,0,0,
,0.102,-0.329,0.954,-16.541,18.249,-40.65,0,0,0,
,0.105,-0.334,0.949,-14.039,14.831,-40.711,0,0,0,
,0.1,-0.328,0.954,-17.456,8.667,-39.124,0,0,0,
,0.1,-0.327,0.962,-19.593,10.253,-38.086,0,0,0,
,0.103,-0.323,0.961,-19.898,11.474,-34.607,0,0,0,
,0.102,-0.326,0.959,-13.977,10.315,-32.776,0,0,0,
,0.106,-0.33,0.95,-10.804,5.615,-28.748,0,0,0,
,0.108,-0.332,0.948,-10.987,-1.526,-26.062,0,0,0,
,0.1,-0.333,0.966,-18.006,3.784,-24.964,0,0,0,
,0.101,-0.323,0.958,-14.527,8.361,-24.109,0,0,0,
,0.097,-0.319,0.962,-15.32,5.493,-23.987,0,0,0,
,0.094,-0.319,0.961,-11.414,6.408,-26.123,0,0,0,
,0.099,-0.322,0.956,-10.01,7.873,-25.025,0,0,0,
,0.096,-0.324,0.955,-7.203,4.882,-28.321,0,0,0,
,0.096,-0.324,0.958,-9.4,3.051,-28.809,0,0,0,
,0.097,-0.325,0.967,-8.728,8.117,-27.1,0,0,0,
,0.099,-0.33,0.958,-8.24,13.855,-27.894,0,0,0,
,0.102,-0.323,0.963,-10.56,14.343,-26.856,0,0,0,
,0.099,-0.325,0.963,-13.367,19.653,-27.588,0,0,0,
,0.099,-0.323,0.959,-12.513,19.775,-28.748,0,0,0,
,0.104,-0.322,0.948,-9.4,17.273,-30.457,0,0,0,
,0.106,-0.328,0.95,-8.179,14.77,-32.959,0,0,0,
,0.102,-0.328,0.956,-13.916,11.962,-36.438,0,0,0,
,0.098,-0.323,0.961,-17.64,14.282,-35.584,0,0,0,
,0.099,-0.322,0.96,-14.466,13.366,-36.805,0,0,0,
,0.102,-0.323,0.95,-11.841,10.925,-32.959,0,0,0,
,0.105,-0.328,0.951,-8.301,3.601,-31.983,0,0,0,
,0.098,-0.332,0.955,-7.264,1.403,-32.715,0,0,0,
,0.096,-0.332,0.955,-7.935,-2.076,-30.213,0,0,0,
,0.096,-0.329,0.962,-7.996,-2.137,-29.664,0,0,0,
,0.095,-0.331,0.963,-11.109,1.586,-26.246,0,0,0,
,0.1,-0.326,0.958,-10.804,0.976,-25.696,0,0,0,
,0.099,-0.321,0.964,-8.423,4.211,-26.917,0,0,0,
,0.099,-0.33,0.959,-8.851,4.699,-25.33,0,0,0,
,0.096,-0.328,0.956,-10.437,9.521,-25.269,0,0,0,
,0.097,-0.333,0.951,-6.531,10.07,-24.72,0,0,0,
,0.097,-0.327,0.954,-9.888,4.516,-26.673,0,0,0,
,0.092,-0.323,0.962,-11.536,7.141,-28.748,0,0,0,
,0.093,-0.325,0.965,-14.649,12.573,-29.664,0,0,0,
,0.095,-0.323,0.96,-17.151,15.441,-32.593,0,0,0,
,0.098,-0.324,0.959,-18.555,18.371,-33.509,0,0,0,
,0.101,-0.328,0.957,-18.067,17.822,-33.143,0,0,0,
,0.104,-0.328,0.952,-16.358,16.601,-34.18,0,0,0,
,0.099,-0.329,0.951,-15.686,14.709,-34.058,0,0,0,
,0.095,-0.331,0.957,-14.893,12.268,-32.959,0,0,0,
,0.095,-0.331,0.959,-17.151,12.878,-29.969,0,0,0,
,0.097,-0.331,0.953,-13.977,11.169,-26.978,0,0,0,
,0.1,-0.331,0.949,-8.912,4.943,-24.17,0,0,0,
,0.1,-0.329,0.957,-13.428,8.728,-26.795,0,0,0,
,0.097,-0.32,0.959,-15.015,6.53,-25.757,0,0,0,
,0.099,-0.317,0.961,-10.926,5.065,-27.955,0,0,0,
,0.096,-0.33,0.963,-11.292,8.239,-25.879,0,0,0,
,0.094,-0.332,0.955,-7.63,6.958,-25.635,0,0,0,
,0.092,-0.337,0.958,-9.766,6.774,-22.889,0,0,0,
,0.09,-0.333,0.959,-11.353,13.855,-24.231,0,0,0,
,0.096,-0.323,0.96,-14.771,10.498,-24.414,0,0,0,
,0.097,-0.323,0.958,-13.794,11.901,-26.368,0,0,0,
,0.095,-0.327,0.956,-13.245,12.146,-25.879,0,0,0,
,0.098,-0.329,0.956,-12.574,14.16,-26.49,0,0,0,
,0.098,-0.333,0.952,-12.452,9.887,-26.123,0,0,0,
,0.099,-0.332,0.952,-10.926,9.155,-25.94,0,0,0,
,0.097,-0.329,0.957,-12.818,8.85,-27.405,0,0,0,
,0.093,-0.325,0.963,-12.33,7.568,-28.26,0,0,0,
,0.091,-0.328,0.968,-14.1,12.512,-27.344,0,0,0,
,0.096,-0.329,0.954,-13.245,14.465,-25.147,0,0,0,
,0.102,-0.328,0.95,-12.635,12.695,-26.062,0,0,0,
,0.099,-0.33,0.957,-16.175,10.192,-27.466,0,0,0,
,0.093,-0.324,0.962,-17.64,13.427,-29.48,0,0,0,
,0.092,-0.324,0.957,-15.564,14.404,-30.518,0,0,0,
,0.091,-0.331,0.962,-15.198,14.282,-29.541,0,0,0,
,0.098,-0.331,0.955,-14.954,16.174,-29.725,0,0,0,
,0.098,-0.33,0.96,-17.029,18.066,-32.105,0,0,0,
,0.098,-0.324,0.953,-15.32,20.324,-31.617,0,0,0,
,0.103,-0.324,0.956,-14.71,17.395,-34.058,0,0,0,
,0.097,-0.327,0.959,-14.161,13.366,-32.349,0,0,0,
,0.096,-0.331,0.956,-11.475,11.596,-33.753,0,0,0,
,0.099,-0.333,0.961,-16.724,12.634,-31.25,0,0,0,
,0.099,-0.33,0.961,-15.931,11.779,-28.687,0,0,0,
,0.103,-0.328,0.954,-13.367,9.155,-29.786,0,0,0,
,0.1,-0.328,0.95,-10.865,6.713,-28.382,0,0,0,
,0.1,-0.328,0.956,-4.944,-0.977,-29.175,0,0,0,
,0.095,-0.319,0.961,2.502,-5.433,-28.077,0,0,0,
,0.092,-0.325,0.958,9.094,-9.278,-26.734,0,0,0,
,0.098,-0.322,0.952,25.573,-17.09,-26.429,0,0,0,
,0.091,-0.328,0.956,21.606,-20.63,-29.969,0,0,0,
,0.09,-0.333,0.961,14.587,-15.748,-36.866,0,0,0,
,0.078,-0.337,0.974,-6.348,5.615,-43.396,0,0,0,
,0.062,-0.332,0.988,-43.274,42.602,-56.458,0,0,0,
,0.06,-0.276,1.031,-77.271,102.295,-80.262,0,0,0,
,0.07,-0.185,1.126,-77.942,235.534,-98.511,0,0,0,
,0.095,-0.144,1.316,-43.824,416.381,-37.72,0,0,0,
,0.097,-0.21,1.442,-95.154,549.682,-27.955,0,0,0,
,0.672,-0.59,1.747,-93.018,89.904,-284.058,0,0,0,
,0.958,-1.388,2.531,-144.776,-775.696,-606.873,0,0,0,
,1.007,-1.816,2.802,-477.173,-1625.794,-942.566,0,0,0,
,1.02,-0.864,3.174,-1191.285,-2000,-1063.599,0,0,0,
,0.084,-0.841,3.231,-1577.881,-2000,-1156.861,0,0,0,
,0.355,-0.826,2.402,-1963.318,-2000,-1104.554,0,0,0,
,0.399,-0.521,1.451,-1999.878,-2000,-1029.541,0,0,0,
,0.411,-0.406,0.371,-1974.732,-2000,-982.178,0,0,0,
,0.434,-0.152,-0.184,-1744.446,-2000,-991.395,0,0,0,
,0.689,-0.327,-1.1,-1338.379,-2000,-907.776,0,0,0,
,0.555,-0.379,-1.953,-1053.895,-2000,-961.182,0,0,0,
,0.322,-0.177,-2.55,-935.059,-1887.208,-952.759,0,0,0,
,0.254,0.23,-2.836,-317.505,-699.402,-692.933,0,0,0,
,0.319,0.437,-2.714,490.173,504.211,-383.912,0,0,0,
,0.583,0.685,-2.215,1137.756,1614.929,61.889,0,0,0,
,0.704,0.542,-1.515,1671.63,1999.694,475.28,0,0,0,
,0.676,0.351,-0.812,1976.318,1999.694,835.266,0,0,0,
,0.628,0.038,0.128,1999.694,1999.694,1042.724,0,0,0,
,0.525,-0.61,0.942,1928.344,1999.694,1178.1,0,0,0,
,0.284,-0.864,1.598,1582.58,1999.694,1093.017,0,0,0,
,0.132,-1.224,2.165,1167.907,1999.694,890.503,0,0,0,
,0.147,-0.795,2.275,1044.494,1999.694,635.864,0,0,0,
,0.12,-1.029,2.637,876.526,1999.694,465.21,0,0,0,
,0.145,-0.82,2.581,649.963,1783.02,371.887,0,0,0,
,0.186,-0.581,2.129,423.706,1351.562,325.378,0,0,0,
,0.271,-0.618,1.921,282.226,918.274,207.214,0,0,0,
,0.202,-0.523,1.835,86.059,573.242,162.475,0,0,0,
,0.135,-0.355,1.588,64.636,377.441,136.779,0,0,0,
,0.036,-0.273,1.347,83.862,252.624,167.358,0,0,0,
,0.126,-0.299,1.142,50.964,166.931,164.611,0,0,0,
,0.161,-0.319,1.069,44.921,13,134.216,0,0,0,
,0.13,-0.252,1.002,19.531,-39.124,89.111,0,0,0,
,0.12,-0.369,1.019,41.381,-49.5,31.555,0,0,0,
,0.13,-0.287,0.925,-60.852,8.117,29.113,0,0,0,
,0.191,-0.164,0.943,-126.282,51.635,44.86,0,0,0,
,0.209,-0.115,1.014,-56.275,17.211,32.775,0,0,0,
,0.167,-0.215,1.018,-22.583,-7.813,25.268,0,0,0,
,0.098,-0.281,0.974,-2.93,10.131,3.112,0,0,0,
,0.114,-0.262,0.987,-16.419,21.728,-17.273,0,0,0,
,0.092,-0.233,0.977,11.413,30.944,-27.832,0,0,0,
,0.095,-0.257,0.982,28.198,37.536,-32.654,0,0,0,
,0.095,-0.316,0.965,26.001,36.132,-36.866,0,0,0,
,0.105,-0.32,0.963,-3.602,18.737,-30.213,0,0,0,
,0.098,-0.298,0.925,-10.437,15.258,-34.119,0,0,0,
,0.115,-0.278,0.937,-18.372,6.408,-35.462,0,0,0,
,0.111,-0.275,0.993,-25.94,14.953,-33.326,0,0,0,
,0.118,-0.263,1.002,-8.728,13.427,-29.175,0,0,0,
,0.088,-0.267,1.018,15.625,6.591,-32.41,0,0,0,
,0.104,-0.283,0.982,19.958,3.906,-30.762,0,0,0,
,0.094,-0.293,0.983,-7.142,9.216,-37.354,0,0,0,
,0.122,-0.273,0.989,-32.776,16.845,-34.729,0,0,0,
,0.081,-0.268,1.098,-45.777,24.169,-54.444,0,0,0,
,0.064,-0.287,1.103,-33.509,64.941,-62.256,0,0,0,
,0.061,-0.284,1.094,-67.078,75.5,-83.619,0,0,0,
,0.052,-0.23,1.123,-70.618,61.035,-128.357,0,0,0,
,0.021,-0.24,1.192,-73.792,54.382,-147.583,0,0,0,
,0.016,-0.166,1.198,-11.475,-24.353,-164.978,0,0,0,
,-0.079,-0.402,1.181,-74.219,-94.178,-193.482,0,0,0,
,-0.069,-0.194,1.17,-189.82,-213.929,-202.454,0,0,0,
,-0.137,-0.118,1.242,-146.79,-306.397,-271.302,0,0,0,
,-0.188,-0.292,1.295,-203.614,-270.691,-358.338,0,0,0,
,-0.181,-0.175,1.317,-436.707,-269.227,-413.941,0,0,0,
,-0.197,-0.152,1.382,-583.863,-256.836,-486.878,0,0,0,
,-0.217,-0.122,1.356,-793.152,-195.984,-563.965,0,0,0,
,-0.218,-0.093,1.291,-938.172,-158.631,-633.057,0,0,0,
,-0.192,-0.141,1.265,-1109.009,-120.789,-687.134,0,0,0,
,-0.158,-0.038,1.248,-1368.042,-137.024,-721.68,0,0,0,
,-0.154,0.101,1.245,-1548.34,-3.418,-745.484,0,0,0,
,-0.143,0.242,1.16,-1623.78,74.218,-775.94,0,0,0,
,-0.11,0.19,1.056,-1645.02,90.82,-855.164,0,0,0,
,-0.141,0.098,1.026,-1564.515,162.78,-908.02,0,0,0,
,0.016,0.069,0.89,-1554.2,195.19,-814.515,0,0,0,
,-0.059,0.089,0.807,-1635.01,246.826,-816.529,0,0,0,
,0.002,0.141,0.768,-1624.39,266.967,-835.328,0,0,0,
,0.014,0.181,0.744,-1606.507,353.942,-851.258,0,0,0,
,0.13,0.275,0.727,-1596.741,333.252,-866.822,0,0,0,
,0.131,0.275,0.724,-1527.588,375.61,-841.553,0,0,0,
,0.172,0.23,0.696,-1460.816,409.851,-819.336,0,0,0,
,0.246,0.273,0.655,-1388.672,364.074,-808.716,0,0,0,
,0.324,0.353,0.62,-1018.433,275.207,-768.738,0,0,0,
,0.346,0.368,0.656,-941.651,220.825,-739.014,0,0,0,
,0.386,0.369,0.718,-822.876,266.235,-659.424,0,0,0,
,0.389,0.39,0.73,-687.5,294.86,-623.169,0,0,0,
,0.427,0.4,0.708,-586.487,354.614,-546.753,0,0,0,
,0.463,0.48,0.58,-549.256,357.238,-468.567,0,0,0,
,0.501,0.596,0.42,-493.531,324.34,-464.356,0,0,0,
,0.518,0.486,0.38,-486.023,234.13,-475.037,0,0,0,
,0.544,0.513,0.441,-546.753,129.821,-463.318,0,0,0,
,0.495,0.604,0.496,-519.043,75.378,-430.726,0,0,0,
,0.536,0.664,0.495,-443.543,61.218,-365.296,0,0,0,
,0.503,0.715,0.473,-437.684,80.139,-271.546,0,0,0,
,0.49,0.725,0.377,-419.678,96.984,-186.341,0,0,0,
,0.488,0.78,0.276,-370.484,55.847,-110.535,0,0,0,
,0.473,0.739,0.221,-248.047,-0.611,-76.172,0,0,0,
,0.488,0.684,0.234,-184.815,-62.5,-55.42,0,0,0,
,0.438,0.644,0.285,-164.124,-106.934,-64.515,0,0,0,
,0.433,0.638,0.334,-196.289,-151.734,-77.271,0,0,0,
,0.428,0.646,0.39,-216.553,-148.987,-100.831,0,0,0,
,0.453,0.63,0.373,-223.45,-79.407,-103.821,0,0,0,
,0.495,0.722,0.364,-188.111,-53.894,-113.648,0,0,0,
,0.555,0.715,0.357,-137.696,-30.823,-101.014,0,0,0,
,0.587,0.76,0.34,-134.339,-36.56,-112.427,0,0,0,
,0.586,0.771,0.44,-100.525,-16.48,-129.761,0,0,0,
,0.585,0.717,0.446,-149.048,78.186,-121.277,0,0,0,
,0.547,0.801,0.446,-152.466,155.944,-94.178,0,0,0,
,0.573,0.749,0.352,-151.062,169.738,-83.374,0,0,0,
,0.553,0.738,0.375,-199.219,136.23,-76.355,0,0,0,
,0.554,0.699,0.365,-191.04,125.305,-112.122,0,0,0,
,0.54,0.693,0.373,-214.295,106.506,-130.494,0,0,0,
,0.527,0.7,0.331,-239.685,60.363,-158.448,0,0,0,
,0.523,0.74,0.328,-238.892,9.521,-205.933,0,0,0,
,0.509,0.758,0.349,-241.211,-30.335,-223.938,0,0,0,
,0.471,0.786,0.32,-183.655,-7.142,-209.29,0,0,0,
,0.492,0.792,0.319,-137.818,21.789,-199.402,0,0,0,
,0.504,0.807,0.286,-129.334,13.366,-169.129,0,0,0,
,0.501,0.747,0.236,-119.996,-3.663,-140.748,0,0,0,
,0.467,0.763,0.267,-62.684,-26.673,-127.259,0,0,0,
,0.493,0.717,0.22,-81.177,-91.797,-125.061,0,0,0,
,0.49,0.745,0.212,-22.828,-97.168,-108.826,0,0,0,
,0.484,0.728,0.278,16.418,-64.331,-92.774,0,0,0,
,0.516,0.725,0.317,47.241,-36.622,-72.449,0,0,0,
,0.559,0.706,0.284,-48.218,-41.687,-35.889,0,0,0,
,0.561,0.695,0.301,-57.435,-77.576,-46.265,0,0,0,
,0.552,0.676,0.337,-63.843,-102.417,-57.312,0,0,0,
,0.568,0.674,0.338,-93.262,-129.09,-58.96,0,0,0,
,0.559,0.722,0.333,-79.468,-133.362,-62.561,0,0,0,
,0.593,0.567,0.25,-39.185,-245.301,-63.477,0,0,0,
,0.468,0.522,0.09,181.884,-396.18,-113.343,0,0,0,
,0.699,0.586,0.124,-70.801,-81.238,-52.674,0,0,0,
,0.468,0.787,0.263,79.345,-336.487,-113.099,0,0,0,
,0.355,0.679,0.261,59.814,11.596,-31.434,0,0,0,
,0.563,0.82,0.457,235.168,-74.219,-54.932,0,0,0,
,0.564,0.611,0.578,516.418,-26.856,-13.428,0,0,0,
,0.41,0.719,0.707,802.49,80.383,22.399,0,0,0,
,0.928,0.781,0.381,812.988,69.213,71.289,0,0,0,
,0.608,0.559,0.446,827.697,-8.973,106.689,0,0,0,
,0.421,0.737,0.568,702.087,-37.171,113.891,0,0,0,
,0.776,0.724,0.412,469.116,2.441,144.226,0,0,0,
,0.457,0.642,0.595,736.816,-62.989,144.47,0,0,0,
,0.549,0.526,0.461,954.162,-154.175,131.408,0,0,0,
,0.303,0.678,0.654,940.063,10.864,117.92,0,0,0,
,0.624,0.409,0.615,544.677,-65.918,138.733,0,0,0,
,0.496,0.712,0.668,501.831,-130.31,121.887,0,0,0,
,0.567,0.536,0.564,557.006,-189.393,147.644,0,0,0,
,0.283,0.744,0.877,761.23,-106.69,92.956,0,0,0,
,0.68,0.619,0.633,947.754,37.963,165.771,0,0,0,
,0.449,0.578,0.644,1040.649,-179.871,111.206,0,0,0,
,0.341,0.489,0.832,872.131,-188.111,99.548,0,0,0,
,0.415,0.32,0.701,428.344,-11.536,174.499,0,0,0,
,0.414,0.502,0.906,425.842,-173.768,187.866,0,0,0,
,0.465,0.491,0.711,819.03,-226.929,219.055,0,0,0,
,0.421,0.572,0.878,962.097,-123.352,222.107,0,0,0,
,0.626,0.509,0.62,811.035,-299.439,196.655,0,0,0,
,0.392,0.495,0.671,741.577,-431.824,142.517,0,0,0,
,0.249,0.358,0.77,901.428,-344.239,165.466,0,0,0,
,0.279,-0.061,1.276,1358.276,-621.644,-8.301,0,0,0,
,0.262,0.04,0.658,1170.532,-535.462,52.429,0,0,0,
,0.142,0.408,0.846,1022.888,-571.289,38.879,0,0,0,
,0.38,-0.075,0.476,718.2,-629.151,33.02,0,0,0,
,0.016,0.496,0.901,515.014,-496.338,-31.617,0,0,0,
,0.39,0.171,0.66,761.23,-563.721,138.427,0,0,0,
,0.052,0.404,1.047,1072.326,-481.385,87.768,0,0,0,
,0.21,0.2,1.041,1325.927,-544.373,243.652,0,0,0,
,0.043,-0.052,1.261,1431.945,-546.326,316.711,0,0,0,
,0.245,-0.093,1.24,1142.7,-517.884,367.065,0,0,0,
,0.144,-0.213,1.072,1078.613,-532.593,344.787,0,0,0,
,0.057,0.033,1.187,1211.059,-596.741,368.286,0,0,0,
,0.143,-0.131,1.117,1053.222,-498.047,292.602,0,0,0,
,0.148,-0.089,0.972,944.336,-450.501,268.554,0,0,0,
,0.139,-0.014,1.005,1063.537,-397.767,224.487,0,0,0,
,0.136,-0.143,1.007,1102.417,-291.993,194.091,0,0,0,
,0.161,-0.174,1.071,1055.175,-180.237,200.744,0,0,0,
,0.173,-0.181,1.253,812.011,-4.334,116.821,0,0,0,
,0.162,-0.373,1.307,-41.016,244.445,-7.752,0,0,0,
,0.177,-0.293,1.297,-713.257,545.532,-116.578,0,0,0,
,0.22,-0.522,1.078,-800.354,693.481,-165.711,0,0,0,
,0.244,-0.241,0.936,-609.742,567.016,-96.07,0,0,0,
,0.26,-0.01,1,-289.795,304.077,-89.295,0,0,0,
,0.111,-0.202,1.115,-162.842,312.072,-119.69,0,0,0,
,0.007,-0.402,1.069,-597.29,506.775,-122.376,0,0,0,
,0.046,-0.486,1.049,-1297.303,674.255,-164.246,0,0,0,
,0.092,-0.448,0.98,-1942.994,742.675,-75.806,0,0,0,
,0.213,-0.344,0.822,-2000,666.32,57.19,0,0,0,
,0.148,0.005,0.72,-2000,667.724,26.794,0,0,0,
,0.083,0.179,0.624,-2000,636.291,91.491,0,0,0,
,0.12,0.194,0.592,-1847.901,709.716,86.12,0,0,0,
,0.198,-0.051,0.7,-1847.779,721.069,125.61,0,0,0,
,0.328,0.044,0.755,-1999.939,598.205,72.265,0,0,0,
,0.413,0.343,0.717,-2000,445.556,-2.442,0,0,0,
,0.369,0.748,0.671,-2000,379.943,-30.518,0,0,0,
,0.36,0.844,0.728,-1729.798,377.746,-98.206,0,0,0,
,0.385,0.636,0.736,-1145.569,306.579,-184.998,0,0,0,
,0.38,0.501,0.528,-946.961,241.516,-224.427,0,0,0,
,0.329,0.786,0.593,-828.858,10.07,-244.568,0,0,0,
,0.299,0.583,0.612,-444.947,-59.815,-291.321,0,0,0,
,0.302,0.597,0.685,-389.893,-225.22,-273.316,0,0,0,
,0.244,0.646,0.822,-329.407,-242.676,-230.408,0,0,0,
,0.287,0.62,0.857,-252.442,-150.33,-195.618,0,0,0,
,0.358,0.575,0.725,-265.625,-124.817,-160.34,0,0,0,
,0.423,0.666,0.627,-194.092,-121.277,-155.884,0,0,0,
,0.614,0.751,0.358,-318.909,-36.072,-94.849,0,0,0,
,0.637,0.769,0.274,-334.534,-86.976,-78.248,0,0,0,
,0.586,0.69,0.372,-186.341,-94.483,-71.839,0,0,0,
,0.484,0.651,0.43,73.669,42.114,-70.801,0,0,0,
,0.383,0.495,0.649,271.362,-20.447,-76.294,0,0,0,
,0.474,0.527,0.679,165.344,-23.743,-69.642,0,0,0,
,0.508,0.556,0.658,34.729,-31.617,-90.76,0,0,0,
,0.51,0.594,0.616,-70.557,-59.144,-98.633,0,0,0,
,0.495,0.661,0.629,-61.158,-52.002,-89.478,0,0,0,
,0.467,0.714,0.582,-41.321,-6.409,-31.434,0,0,0,
,0.431,0.679,0.557,-2.808,38.147,-13.123,0,0,0,
,0.375,0.54,0.454,1.709,-42.115,-30.945,0,0,0,
,0.368,0.562,0.487,15.075,38.391,-37.476,0,0,0,
,0.395,0.573,0.487,-41.016,-26.307,-53.101,0,0,0,
,0.423,0.697,0.526,172.485,-95.154,-60.181,0,0,0,
,0.418,0.596,0.562,346.679,-119.69,-55.726,0,0,0,
,0.383,0.527,0.603,403.381,-163.331,-54.627,0,0,0,
,0.3,0.557,0.606,524.78,-167.786,-69.825,0,0,0,
,0.564,0.547,0.476,332.336,-32.349,5.981,0,0,0,
,0.437,0.662,0.602,470.703,-173.096,23.681,0,0,0,
,0.416,0.334,0.645,782.043,-211.365,48.645,0,0,0,
,0.443,0.303,0.82,883.3,-371.216,36.56,0,0,0,
,0.663,0.349,0.688,645.874,-18.189,118.164,0,0,0,
,0.412,0.748,0.732,931.945,-353.272,43.335,0,0,0,
,0.119,0.603,1.074,1012.939,-117.981,103.088,0,0,0,
,0.56,0.494,0.877,674.743,-169.861,138.183,0,0,0,
,0.261,0.493,0.773,923.217,-341.492,148.925,0,0,0,
,0.1,0.711,0.972,1037.414,-212.22,118.042,0,0,0,
,0.356,0.143,0.747,919.25,-620.301,217.59,0,0,0,
,0.302,0.47,1.142,1087.829,-435.181,135.131,0,0,0,
,0.061,0.349,1.352,1109.069,-655.396,166.137,0,0,0,
,0.463,0.215,0.761,1096.679,-584.595,288.33,0,0,0,
,-0.271,0.268,1.236,1299.438,-636.048,259.094,0,0,0,
,0.383,0.144,0.846,1282.653,-691.163,352.417,0,0,0,
,-0.208,0.292,1.077,1132.568,-471.436,319.885,0,0,0,
,0.357,-0.078,0.714,914.245,-582.947,362.793,0,0,0,
,-0.07,0.228,1.092,1060.913,-562.134,298.523,0,0,0,
,0.215,-0.051,0.837,1030.822,-594.727,234.68,0,0,0,
,-0.062,0.191,1.095,1239.868,-569.031,255.859,0,0,0,
,0.183,-0.177,1.056,1292.602,-576.783,267.151,0,0,0,
,-0.14,-0.093,0.971,1460.632,-516.663,350.28,0,0,0,
,-0.022,-0.183,1.206,1390.014,-462.586,216.186,0,0,0,
,-0.066,-0.207,1.1,1057.678,-350.892,324.279,0,0,0,
,0.063,-0.023,1.29,1217.468,-331.116,298.95,0,0,0,
,0.019,-0.287,1.239,988.22,-238.648,265.075,0,0,0,
,0.038,-0.107,1.121,804.138,-191.224,227.539,0,0,0,
,0.093,-0.155,1.074,870.483,-144.043,132.69,0,0,0,
,0.11,-0.197,1.023,671.997,8.544,82.946,0,0,0,
,0.167,-0.436,0.953,484.375,110.412,77.758,0,0,0,
,0.07,-0.515,0.993,240.661,194.763,85.693,0,0,0,
,0.052,-0.662,1.117,18.554,311.767,95.336,0,0,0,
,0.044,-0.602,1.154,-585.328,441.589,27.404,0,0,0,
,0.082,-0.125,1.229,-654.114,475.219,-70.191,0,0,0,
,0.033,-0.469,1.11,-567.688,639.648,-94.91,0,0,0,
,0.015,-0.387,0.918,-607.666,741.272,-141.968,0,0,0,
,0.087,-0.306,0.913,-697.205,757.751,-175.538,0,0,0,
,0.012,-0.511,0.984,-1148.133,824.951,-252.808,0,0,0,
,0.02,-0.427,1.036,-1767.273,856.567,-249.878,0,0,0,
,0.132,-0.268,1.1,-2000,940.124,-185.364,0,0,0,
,0.23,-0.39,0.925,-2000,989.563,-109.131,0,0,0,
,0.282,-0.151,0.732,-2000,820.312,3.601,0,0,0,
,0.132,0.145,0.57,-2000,699.829,42.175,0,0,0,
,0.092,0.27,0.607,-1903.199,738.952,64.331,0,0,0,
,0.243,0.144,0.684,-1762.94,698.669,117.859,0,0,0,
,0.291,0.089,0.848,-1931.946,629.272,126.77,0,0,0,
,0.371,0.319,0.827,-1984.437,465.026,54.321,0,0,0,
,0.386,0.599,0.75,-1847.901,288.452,19.165,0,0,0,
,0.283,0.48,0.754,-1573.67,226.135,-49.866,0,0,0,
,0.321,0.473,0.808,-1312.562,204.284,-110.108,0,0,0,
,0.392,0.437,0.626,-998.169,164.428,-167.664,0,0,0,
,0.328,0.638,0.614,-717.53,-8.24,-221.863,0,0,0,
,0.311,0.526,0.683,-296.143,-83.558,-268.677,0,0,0,
,0.34,0.475,0.653,-202.088,-167.786,-253.174,0,0,0,
,0.314,0.541,0.743,-181.824,-220.337,-216.309,0,0,0,
,0.342,0.525,0.747,-105.53,-196.228,-172.059,0,0,0,
,0.355,0.509,0.714,-6.714,-175.843,-167.359,0,0,0,
,0.411,0.645,0.571,-60.242,-63.721,-145.264,0,0,0,
,0.61,0.761,0.405,-125.061,-69.581,-109.498,0,0,0,
,0.549,0.67,0.462,107.544,-89.051,-85.511,0,0,0,
,0.531,0.598,0.519,327.942,-85.877,-75.684,0,0,0,
,0.411,0.42,0.621,396.179,-27.955,-89.417,0,0,0,
,0.51,0.356,0.762,550.171,-89.6,-96.68,0,0,0,
,0.261,0.404,0.9,526.001,-171.143,-158.997,0,0,0,
,0.548,0.34,0.683,-1.831,19.836,-72.632,0,0,0,
,0.319,0.714,0.761,-137.696,-206.421,-86.67,0,0,0,
,0.303,0.465,0.583,100.341,-319.336,-94.727,0,0,0,
,0.442,0.373,0.653,-142.823,-28.504,-28.748,0,0,0,
,0.485,0.621,0.657,-176.697,-259.4,-40.711,0,0,0,
,0.341,0.509,0.701,633.667,-272.706,-23.499,0,0,0,
,0.454,0.571,1.006,604.675,111.389,84.167,0,0,0,
,0.427,0.521,0.89,646.362,-80.994,120.727,0,0,0,
,0.327,0.552,1.045,1058.776,-173.218,131.286,0,0,0,
,0.562,0.274,0.656,781.311,-84.778,173.095,0,0,0,
,0.308,0.333,0.726,653.869,-437.561,48.156,0,0,0,
,0.321,0.512,0.873,795.959,-93.384,99.609,0,0,0,
,0.501,0.331,0.873,702.392,-279.114,171.264,0,0,0,
,0.283,0.332,0.831,906.372,-462.281,138.855,0,0,0,
,0.261,0.478,1.047,838.012,-408.692,111.328,0,0,0,
,0.33,0.302,0.593,488.342,-552.43,153.442,0,0,0,
,0.091,0.306,0.819,1061.462,-799.195,76.294,0,0,0,
,0.112,0.026,1.17,1031.433,-721.07,54.321,0,0,0,
,-0.146,0.521,0.988,593.139,-508.728,197.387,0,0,0,
,0.267,0.304,0.6,718.444,-539.673,224.121,0,0,0,
,-0.046,0.562,0.916,927.856,-441.407,137.878,0,0,0,
,0.221,0.26,0.687,888.183,-438.05,277.526,0,0,0,
,0.095,0.299,0.919,1015.319,-333.008,117.187,0,0,0,
,0.137,-0.086,0.93,1005.798,-355.286,207.946,0,0,0,
,0.033,-0.01,1.166,1295.776,-428.894,288.208,0,0,0,
,0.158,-0.394,1.278,1091.003,-383.423,236.877,0,0,0,
,0.061,-0.05,1.198,930.847,-361.023,235.168,0,0,0,
,0.139,-0.098,1.381,929.077,-332.093,194.885,0,0,0,
,0.063,-0.165,1.229,676.025,-291.443,224.731,0,0,0,
,0.044,-0.114,1.026,897.766,-308.594,265.747,0,0,0,
,-0.013,-0.09,0.957,1090.576,-279.847,284.179,0,0,0,
,0.057,-0.04,0.947,1153.076,-217.774,276.367,0,0,0,
,0.114,-0.205,0.92,856.567,-122.864,139.16,0,0,0,
,0.098,-0.301,0.916,482.849,-35.157,97.473,0,0,0,
,0.055,-0.23,0.961,202.697,82.092,53.772,0,0,0,
,0.104,-0.277,0.989,-146.241,245.117,-16.968,0,0,0,
,0.071,-0.18,1.164,-564.82,451.904,-109.253,0,0,0,
,0.144,-0.361,1.11,-918.763,634.521,-181.092,0,0,0,
,0.209,-0.542,0.983,-1026.062,660.034,-214.905,0,0,0,
,0.184,-0.304,0.961,-981.751,566.528,-189.148,0,0,0,
,0.168,-0.09,1.122,-726.258,460.693,-150.879,0,0,0,
,0.118,-0.144,1.094,-668.396,534.484,-142.151,0,0,0,
,0.1,-0.094,1.049,-928.772,572.021,-130.005,0,0,0,
,0.112,-0.096,1.082,-1279.236,662.475,-178.833,0,0,0,
,0.17,-0.03,1.052,-1632.569,692.932,-187.989,0,0,0,
,0.205,-0.208,1.027,-1941.407,863.281,-106.324,0,0,0,
,0.28,-0.002,0.866,-1983.704,716.552,-55.726,0,0,0,
,0.276,0.358,0.916,-1619.141,609.619,-20.63,0,0,0,
,0.156,0.373,0.812,-1187.256,688.659,19.653,0,0,0,
,0.305,0.359,0.905,-1434.937,230.835,31.616,0,0,0,
,0.263,0.459,0.833,-1426.026,193.237,27.771,0,0,0,
,0.259,0.422,0.755,-1363.038,205.261,-16.785,0,0,0,
,0.269,0.461,0.736,-1397.095,187.561,-14.1,0,0,0,
,0.275,0.608,0.797,-1205.994,212.707,-44.007,0,0,0,
,0.318,0.569,0.683,-967.347,163.147,-89.6,0,0,0,
,0.31,0.584,0.598,-864.136,102.478,-153.077,0,0,0,
,0.313,0.588,0.551,-851.136,-22.767,-185.303,0,0,0,
,0.316,0.576,0.485,-750.123,-129.517,-234.803,0,0,0,
,0.289,0.599,0.602,-532.654,-267.334,-301.697,0,0,0,
,0.259,0.597,0.757,-249.695,-185.852,-321.106,0,0,0,
,0.5,0.656,0.407,-225.586,-44.617,-331.849,0,0,0,
,0.516,0.712,0.351,-157.471,-89.722,-333.008,0,0,0,
,0.544,0.73,0.358,55.236,-92.347,-327.21,0,0,0,
,0.626,0.839,0.488,340.393,-148.011,-270.752,0,0,0,
,0.524,0.604,0.68,435.18,-121.399,-171.204,0,0,0,
,0.471,0.522,0.823,329.712,-64.698,-116.7,0,0,0,
,0.478,0.424,0.791,99.975,-7.081,-46.326,0,0,0,
,0.465,0.494,0.722,-111.451,-46.326,-20.325,0,0,0,
,0.427,0.526,0.612,-108.582,-129.273,10.131,0,0,0,
,0.416,0.725,0.574,297.79,-188.111,-17.64,0,0,0,
,0.466,0.448,0.476,427.368,-218.567,-28.992,0,0,0,
,0.397,0.483,0.49,461.609,-274.781,-42.908,0,0,0,
,0.335,0.471,0.753,378.112,7.568,-24.537,0,0,0,
,0.472,0.402,0.69,125.915,-7.63,18.859,0,0,0,
,0.307,0.543,0.825,499.267,-100.525,42.175,0,0,0,
,0.384,0.283,0.664,771.545,-183.35,67.627,0,0,0,
,0.597,0.382,0.8,498.047,100.525,110.778,0,0,0,
,0.489,0.497,0.798,475.708,-194.397,73.73,0,0,0,
,0.649,0.194,0.627,630.737,-40.223,172.241,0,0,0,
,0.382,0.443,0.832,475.769,-455.323,172.119,0,0,0,
,0.458,0.479,1.233,872.863,-644.959,226.867,0,0,0,
,0.408,0.318,0.865,807.129,-283.448,276.123,0,0,0,
,0.259,0.21,0.671,560.791,-618.348,377.38,0,0,0,
,0.133,0.794,1.133,746.154,-344.056,286.865,0,0,0,
,0.34,0.033,0.79,557.861,-459.046,383.056,0,0,0,
,0.019,0.579,1.095,457.946,-608.521,336.059,0,0,0,
,0.393,0.275,0.889,444.152,-392.395,315.124,0,0,0,
,0.088,0.473,0.876,286.743,-550.293,359.741,0,0,0,
,0.07,0.582,0.846,689.209,-661.377,343.567,0,0,0,
,0.153,0.363,0.963,746.643,-502.991,265.869,0,0,0,
,0.064,0.42,0.814,591.125,-584.412,378.662,0,0,0,
,-0.068,0.312,0.777,674.011,-559.51,337.036,0,0,0,
,-0.01,0.011,1.092,525.085,-411.499,276.245,0,0,0,
,0.067,0.158,0.867,189.453,-416.687,334.228,0,0,0,
,-0.041,0.22,0.701,165.649,-442.2,223.571,0,0,0,
,0.052,0.161,1.082,108.093,-315.491,73.669,0,0,0,
,0.068,0.276,1.002,54.687,-362,188.537,0,0,0,
,-0.006,0.209,1.066,295.959,-364.319,185.852,0,0,0,
,-0.005,0.225,1.323,559.143,-274.048,69.397,0,0,0,
,-0.053,0.267,1.291,724.609,-251.099,165.649,0,0,0,
,-0.061,0.313,1.328,830.566,-218.628,197.448,0,0,0,
,-0.126,0.088,1.183,768.493,-147.034,201.904,0,0,0,
,-0.013,0.348,1.186,405.151,89.111,171.386,0,0,0,
,0.039,0.239,1.136,200.439,195.251,41.687,0,0,0,
,0.009,0.347,1.175,61.645,336.486,-11.841,0,0,0,
,0.077,0.108,1.025,133.484,427.795,-57.373,0,0,0,
,0.072,0.112,1.067,518.188,137.024,-13.55,0,0,0,
,-0.113,0.076,1.173,321.655,363.22,-34.058,0,0,0,
,-0.069,0.089,1.041,42.907,576.233,-81.116,0,0,0,
,-0.144,-0.176,1.056,-76.355,846.557,-362.488,0,0,0,
,-0.041,-0.29,1.055,-435.364,837.829,-298.645,0,0,0,
,0.02,-0.574,1.002,-969.178,994.384,-247.559,0,0,0,
,0.108,-0.453,0.748,-1310.181,943.176,-47.608,0,0,0,
,0.169,-0.062,0.723,-1382.569,697.143,-2.198,0,0,0,
,0.247,0.041,0.834,-895.935,690.307,-121.46,0,0,0,
,0.296,-0.161,0.875,-1160.401,669.86,-117.554,0,0,0,
,0.323,-0.186,0.808,-1797.364,600.219,-16.297,0,0,0,
,0.401,0.255,0.57,-2000,418.151,7.019,0,0,0,
,0.365,0.664,0.517,-2000,231.75,-86.426,0,0,0,
,0.357,0.678,0.546,-1803.284,170.166,-189.393,0,0,0,
,0.447,0.59,0.52,-1660.157,7.385,-197.327,0,0,0,
,0.422,0.61,0.566,-1814.393,-53.833,-188.904,0,0,0,
,0.447,0.947,0.775,-1818.116,-94.483,-201.6,0,0,0,
,0.4,0.747,0.672,-1567.627,-23.926,-230.225,0,0,0,
,0.376,0.791,0.535,-1477.112,-15.015,-246.766,0,0,0,
,0.472,0.836,0.54,-1347.046,-26.551,-273.133,0,0,0,
,0.413,0.806,0.652,-1124.512,52.795,-256.043,0,0,0,
,0.489,0.778,0.495,-987.61,53.772,-264.954,0,0,0,
,0.407,0.887,0.497,-719.605,19.165,-287.598,0,0,0,
,0.452,0.797,0.407,-451.294,17.456,-291.932,0,0,0,
,0.356,0.766,0.335,-325.257,33.386,-310.12,0,0,0,
,0.448,0.819,0.198,-290.772,54.809,-358.338,0,0,0,
,0.436,0.789,0.163,-216.187,70.8,-387.879,0,0,0,
,0.483,0.787,0.256,-103.638,132.812,-352.845,0,0,0,
,0.547,0.787,0.346,-95.765,70.129,-311.097,0,0,0,
,0.559,0.746,0.384,-117.859,22.155,-253.724,0,0,0,
,0.55,0.728,0.362,-106.934,-15.931,-205.628,0,0,0,
,0.508,0.666,0.338,-98.755,-15.198,-163.941,0,0,0,
,0.491,0.632,0.288,-76.966,-25.696,-139.283,0,0,0,
,0.49,0.632,0.257,8.544,-53.528,-124.878,0,0,0,
,0.471,0.634,0.255,72.631,-84.473,-127.564,0,0,0,
,0.479,0.59,0.292,111.267,-127.686,-131.958,0,0,0,
,0.474,0.657,0.361,32.714,-140.87,-126.709,0,0,0,
,0.512,0.711,0.394,53.833,-156.128,-123.597,0,0,0,
,0.512,0.716,0.44,58.41,-176.758,-74.891,0,0,0,
,0.463,0.728,0.447,194.213,-223.511,-76.661,0,0,0,
,0.479,0.613,0.352,306.518,-232.666,-51.453,0,0,0,
,0.478,0.576,0.267,393.249,-376.893,-98.145,0,0,0,
,0.647,0.575,0.216,255.432,-182.679,-36.438,0,0,0,
,0.461,0.774,0.455,194.519,-361.878,-82.52,0,0,0,
,0.408,0.672,0.422,682.556,-365.601,-39.002,0,0,0,
,0.763,0.584,0.421,842.834,-51.636,44.738,0,0,0,
,0.472,0.599,0.751,1108.215,-176.575,51.94,0,0,0,
,0.471,0.531,0.55,1497.619,-278.87,71.228,0,0,0,
,0.743,0.6,0.516,1174.621,-103.15,169.189,0,0,0,
,0.319,0.524,0.62,939.27,-313.66,162.658,0,0,0,
,0.377,0.629,0.457,1277.954,-436.28,214.965,0,0,0,
,0.82,0.362,0.476,1004.394,-108.46,331.237,0,0,0,
,0.213,0.268,0.498,826.416,-396.058,173.645,0,0,0,
,0.401,0.587,0.687,908.874,-125.916,167.907,0,0,0,
,0.314,0.229,0.648,768.31,-434.205,165.832,0,0,0,
,0.303,0.588,1.109,876.403,-165.039,202.453,0,0,0,
,0.354,0.299,1.025,742.37,-435.303,290.344,0,0,0,
,0.332,0.574,1.188,1117.92,-569.214,260.62,0,0,0,
,0.516,0.218,0.962,1036.071,-389.222,289.245,0,0,0,
,0.304,0.367,0.937,762.878,-547.669,302.795,0,0,0,
,0.313,0.236,0.743,791.137,-656.067,331.909,0,0,0,
,0.041,0.291,0.993,845.825,-668.091,318.115,0,0,0,
,0.403,-0.032,0.634,773.681,-587.464,351.013,0,0,0,
,-0.021,0.413,0.996,706.421,-533.204,293.64,0,0,0,
,0.369,0.234,0.755,755.249,-491.272,290.161,0,0,0,
,0.069,0.086,0.81,690.612,-559.876,218.139,0,0,0,
,0.013,0.297,1.228,750.915,-525.94,253.845,0,0,0,
,0.125,-0.033,1.071,703.979,-545.655,288.696,0,0,0,
,-0.084,0.218,1.26,583.007,-566.04,300.537,0,0,0,
,0.075,-0.053,1.248,468.872,-521.546,275.634,0,0,0,
,-0.087,-0.004,1.08,380.554,-503.602,312.317,0,0,0,
,-0.076,0.146,1.126,613.952,-541.687,343.322,0,0,0,
,0.034,-0.062,1.12,633.3,-463.196,296.875,0,0,0,
,-0.061,0.108,1.022,606.14,-415.833,278.076,0,0,0,
,-0.047,0.038,0.974,548.278,-337.586,238.586,0,0,0,
,-0.046,0.011,1.009,453.918,-218.445,167.541,0,0,0,
,0.043,0.07,1.265,480.346,-127.442,120.422,0,0,0,
,0.082,0.166,1.253,503.967,-31.617,58.898,0,0,0,
,0.088,0.187,1.294,692.077,42.724,0.488,0,0,0,
,0.094,-0.129,1.264,878.967,109.985,5.554,0,0,0,
,0.013,-0.056,1.278,983.581,201.416,68.725,0,0,0,
,0.009,-0.229,1.332,993.896,298.278,105.163,0,0,0,
,-0.021,-0.3,1.369,750.305,412.597,129.699,0,0,0,
,-0.011,-0.213,1.274,492.553,563.232,125.671,0,0,0,
,0.053,-0.183,1.145,244.934,719.665,7.446,0,0,0,
,0.049,-0.279,0.978,96.008,821.655,-14.161,0,0,0,
,0.059,-0.252,0.868,-43.763,875.244,-80.384,0,0,0,
,0.059,-0.259,0.922,-134.583,920.166,-149.414,0,0,0,
,0.045,-0.396,1,-273.499,1010.376,-173.462,0,0,0,
,0.113,-0.497,1.055,-463.746,1116.088,-143.311,0,0,0,
,0.198,-0.753,0.859,-814.698,1150.756,-38.269,0,0,0,
,0.297,-0.528,0.735,-1112.488,829.956,39.611,0,0,0,
,0.239,-0.282,0.701,-1097.901,651.733,102.478,0,0,0,
,0.136,-0.356,0.695,-1097.046,708.74,146.24,0,0,0,
,0.214,-0.341,0.736,-1368.897,684.082,161.071,0,0,0,
,0.284,-0.254,0.853,-1658.875,636.901,230.224,0,0,0,
,0.261,-0.319,0.822,-1991.639,731.567,276.367,0,0,0,
,0.381,-0.145,0.702,-2000,696.96,372.314,0,0,0,
,0.478,0.253,0.703,-2000,533.142,368.408,0,0,0,
,0.415,0.525,0.623,-2000,413.94,328.552,0,0,0,
,0.331,0.576,0.47,-1999.451,417.053,252.441,0,0,0,
,0.369,0.683,0.455,-1712.586,235.656,208.191,0,0,0,
,0.359,0.607,0.556,-1273.194,79.956,115.051,0,0,0,
,0.351,0.347,0.505,-1117.981,-21.851,46.691,0,0,0,
,0.368,0.446,0.636,-1315.186,-180.115,-7.508,0,0,0,
,0.308,0.698,0.806,-1309.937,-239.258,-43.274,0,0,0,
,0.316,0.651,0.765,-945.618,-151.185,-100.525,0,0,0,
,0.342,0.586,0.61,-678.589,-72.754,-118.714,0,0,0,
,0.434,0.65,0.531,-583.558,-110.962,-131.165,0,0,0,
,0.428,0.672,0.406,-549.134,-159.852,-152.222,0,0,0,
,0.473,0.694,0.393,-429.2,-307.007,-197.144,0,0,0,
,0.383,0.717,0.65,-82.947,-322.876,-255.616,0,0,0,
,0.42,0.633,0.706,51.818,-294.19,-251.709,0,0,0,
,0.469,0.64,0.737,-90.332,-270.386,-204.529,0,0,0,
,0.602,0.857,0.357,-420.044,-144.165,-149.537,0,0,0,
,0.541,0.811,0.382,-319.642,-161.866,-154.541,0,0,0,
,0.651,0.786,0.313,-168.824,-168.213,-125.977,0,0,0,
,0.432,0.661,0.477,120.666,-110.962,-138.062,0,0,0,
,0.593,0.724,0.564,367.187,-84.107,-145.386,0,0,0,
,0.516,0.508,0.633,399.292,-52.674,-110.962,0,0,0,
,0.518,0.557,0.654,189.758,-65.796,-140.137,0,0,0,
,0.51,0.584,0.662,47.668,-65.491,-123.475,0,0,0,
,0.488,0.567,0.64,-15.931,-102.845,-109.681,0,0,0,
,0.356,0.569,0.634,62.011,-95.032,-92.957,0,0,0,
,0.313,0.631,0.576,77.209,-146.79,-100.159,0,0,0,
,0.248,0.822,0.537,231.811,-166.565,-117.554,0,0,0,
,0.44,0.402,0.389,0.549,-156.067,-110.047,0,0,0,
,0.212,0.48,0.491,358.337,-302.124,-129.639,0,0,0,
,0.485,0.613,0.621,606.994,-23.621,-85.267,0,0,0,
,0.449,0.246,0.719,505.554,-68.665,-120.728,0,0,0,
,0.162,0.971,0.97,1079.773,42.053,-45.472,0,0,0,
,0.807,0.398,0.732,961.67,-132.752,76.721,0,0,0,
,0.226,0.787,0.905,993.896,-235.108,158.386,0,0,0,
,0.759,0.138,0.703,869.812,-143.799,325.439,0,0,0,
,0.376,0.331,0.824,778.198,-372.315,299.255,0,0,0,
,0.109,0.688,0.922,1247.131,-227.662,367.37,0,0,0,
,0.607,0.146,0.623,1283.935,-228.333,393.127,0,0,0,
,0.226,0.493,1.089,1191.284,-491.089,177.734,0,0,0,
,0.467,0.394,0.73,1100.402,-232.3,230.346,0,0,0,
,0.204,-0.007,0.621,469.665,-507.996,344.909,0,0,0,
,0.007,0.679,1.031,318.969,-358.46,346.74,0,0,0,
,0.384,0.052,0.682,347.961,-373.658,462.219,0,0,0,
,0.122,0.482,0.777,474.792,-729.798,374.572,0,0,0,
,0.361,0.381,1.025,842.346,-420.655,300.659,0,0,0,
,0.21,0.201,0.88,572.57,-633.851,405.517,0,0,0,
,0.014,0.461,1.096,728.881,-635.56,407.592,0,0,0,
,0.285,-0.08,0.93,692.932,-554.749,358.642,0,0,0,
,-0.049,0.242,0.887,510.62,-687.684,318.298,0,0,0,
,-0.148,0.405,1.187,568.115,-593.262,315.063,0,0,0,
,0.031,-0.047,1.004,602.783,-544.861,326.049,0,0,0,
,-0.126,0.18,0.928,693.725,-599.366,323.913,0,0,0,
,0.006,0.072,1.302,851.501,-483.765,176.574,0,0,0,
,-0.095,0.009,1.18,622.375,-454.529,314.819,0,0,0,
,-0.154,0.217,1.153,673.767,-420.227,347.656,0,0,0,
,0.011,-0.097,1.108,670.105,-343.14,200.256,0,0,0,
,-0.016,0.067,1.044,653.564,-281.861,184.753,0,0,0,
,0.058,0.079,1.17,841.369,-239.136,227.783,0,0,0,
,0.107,0.091,1.151,805.175,-117.493,188.964,0,0,0,
,0.075,-0.041,1.161,818.054,-23.621,203.491,0,0,0,
,0.046,-0.064,1.224,752.929,55.114,180.847,0,0,0,
,0.042,-0.107,1.218,645.263,152.038,154.297,0,0,0,
,0.048,-0.141,1.171,544.067,245.239,120.056,0,0,0,
,0.041,-0.052,1.126,374.206,345.398,62.683,0,0,0,
,0.045,-0.019,1.118,199.89,487.671,12.329,0,0,0,
,0.051,-0.216,1.021,129.394,629.333,-30.274,0,0,0,
,0.179,-0.32,0.918,6.286,524.597,-37.964,0,0,0,
,0.218,-0.101,0.994,-22.034,350.83,34.606,0,0,0,
,0.043,-0.212,1.017,-29.969,437.317,-43.885,0,0,0,
,-0.025,-0.336,1.041,-231.141,573.486,-127.93,0,0,0,
,-0.019,-0.286,1.115,-409.546,723.877,-181.946,0,0,0,
,-0.002,-0.536,1.104,-646.729,958.984,-166.016,0,0,0,
,0.12,-0.467,0.902,-759.522,866.333,-32.288,0,0,0,
,0.176,-0.265,0.774,-714.539,648.498,43.823,0,0,0,
,0.025,-0.338,0.688,-794.19,686.584,112.487,0,0,0,
,0.037,-0.49,0.714,-1041.199,629.455,141.845,0,0,0,
,0.122,-0.436,0.738,-1407.349,501.831,160.705,0,0,0,
,0.152,-0.065,0.817,-1729.92,359.985,116.882,0,0,0,
,0.22,0.164,0.973,-1617.127,262.268,-5.005,0,0,0,
,0.225,0.152,1.008,-1278.016,274.963,-39.063,0,0,0,
,0.299,0.142,0.925,-1138.001,208.679,-83.497,0,0,0,
,0.239,0.217,0.784,-1140.137,133.484,-100.525,0,0,0,
,0.254,0.281,0.822,-1169.434,119.629,-58.655,0,0,0,
,0.358,0.404,0.913,-1083.069,100.158,-65.003,0,0,0,
,0.328,0.342,0.947,-943.97,140.014,-74.463,0,0,0,
,0.421,0.322,0.803,-1122.132,126.526,-28.504,0,0,0,
,0.393,0.469,0.807,-1150.269,44.433,-37.171,0,0,0,
,0.39,0.516,0.756,-951.05,32.653,-50.721,0,0,0,
,0.35,0.524,0.845,-732.972,47.424,-103.882,0,0,0,
,0.369,0.389,0.761,-653.199,60.18,-73.67,0,0,0,
,0.329,0.422,0.749,-671.875,-2.686,-90.638,0,0,0,
,0.373,0.466,0.714,-591.065,47.424,-117.859,0,0,0,
,0.367,0.516,0.762,-536.499,44.433,-136.414,0,0,0,
,0.369,0.526,0.718,-453.431,60.974,-134.522,0,0,0,
,0.382,0.628,0.709,-344.178,37.963,-137.085,0,0,0,
,0.368,0.601,0.678,-244.996,16.113,-133.789,0,0,0,
,0.372,0.568,0.734,-198.182,-7.203,-114.38,0,0,0,
,0.382,0.631,0.702,-137.94,-28.138,-89.539,0,0,0,
,0.332,0.574,0.719,-75.44,-42.725,-71.289,0,0,0,
,0.335,0.52,0.695,-63.05,-120.423,-83.13,0,0,0,
,0.278,0.501,0.724,-81.482,-162.72,-91.492,0,0,0,
,0.301,0.532,0.763,-86.182,-135.621,-98.328,0,0,0,
,0.343,0.634,0.714,-9.4,-112.366,-104.371,0,0,0,
,0.257,0.481,0.623,87.097,-113.099,-106.812,0,0,0,
,0.239,0.474,0.534,84.045,-78.675,-115.662,0,0,0,
,0.237,0.599,0.711,-59.388,-48.706,-211.853,0,0,0,
,0.408,0.519,0.619,-249.207,6.958,-155.945,0,0,0,
,0.265,0.642,0.573,-91.553,-30.945,-143.616,0,0,0,
,0.228,0.528,0.878,199.951,39.062,-165.772,0,0,0,
,0.519,0.428,0.607,153.015,164.978,-65.979,0,0,0,
,0.498,0.752,0.723,482.299,-10.376,-92.408,0,0,0,
,0.441,0.402,0.776,906.005,-88.685,-73.487,0,0,0,
,0.491,0.697,1.17,1028.564,50.109,-66.773,0,0,0,
,0.55,0.435,1.084,996.582,-111.145,-30.579,0,0,0,
,0.326,0.353,0.768,1199.035,-256.653,-19.898,0,0,0,
,0.296,0.497,0.927,1037.841,-76.844,-25.269,0,0,0,
,0.409,0.21,0.676,743.774,-258.667,-4.639,0,0,0,
,-0.034,0.318,0.989,801.269,-193.909,-113.77,0,0,0,
,0.442,0.131,0.758,638.549,-178.772,-0.733,0,0,0,
,0.271,0.218,0.868,322.448,-301.392,-38.697,0,0,0,
,0.342,0.43,0.699,649.597,-345.826,-0.55,0,0,0,
,0.119,0.157,1.487,1211.181,-220.581,40.283,0,0,0,
,0.512,0.157,0.816,700.378,-304.139,151.916,0,0,0,
,0.176,0.383,0.992,674.499,-443.726,108.337,0,0,0,
,0.15,-0.2,0.845,805.114,-468.445,145.141,0,0,0,
,0.161,-0.032,0.763,565.063,-376.587,97.473,0,0,0,
,0.143,0.152,0.94,705.688,-573.67,12.939,0,0,0,
,0.246,0.003,0.758,774.17,-494.263,-44.068,0,0,0,
,-0.05,0.069,1.148,891.784,-581.055,-16.48,0,0,0,
,0.259,-0.18,0.862,918.151,-595.276,56.64,0,0,0,
,0.072,-0.019,1.309,831.787,-442.261,4.943,0,0,0,
,0.096,-0.182,1.088,706.054,-504.151,209.594,0,0,0,
,0.072,-0.035,1.32,661.132,-456.849,155.09,0,0,0,
,0.074,-0.302,1.12,391.967,-440.979,258.484,0,0,0,
,0.02,-0.187,1.042,324.463,-432.496,355.957,0,0,0,
,0.191,-0.321,1.082,229.248,-415.833,307.067,0,0,0,
,-0.043,-0.151,0.958,177.795,-371.216,281.128,0,0,0,
,-0.001,0.073,0.855,356.567,-363.099,327.88,0,0,0,
,0.19,0.122,0.991,578.003,-351.441,275.39,0,0,0,
,0.064,-0.038,0.968,836.792,-308.289,332.336,0,0,0,
,0.02,0.037,0.975,1076.355,-241.7,369.995,0,0,0,
,-0.007,-0.26,0.921,1063.903,-211.06,301.941,0,0,0,
,-0.013,-0.403,1.016,837.097,-183.716,260.986,0,0,0,
,-0.002,-0.467,1.141,731.323,-211.06,164.367,0,0,0,
,0.004,-0.481,1.17,345.703,-183.899,35.339,0,0,0,
,0.046,-0.418,1.034,35.156,-138.977,-14.039,0,0,0,
,0.004,-0.35,1.039,-2.015,-59.754,-17.09,0,0,0,
,0.009,-0.291,1.074,-30.579,70.068,-61.463,0,0,0,
,0.02,-0.556,1.142,7.019,143.432,-34.18,0,0,0,
,0.006,-0.415,1.254,-24.964,233.886,-3.907,0,0,0,
,0.003,-0.322,1.138,-170.289,341.98,-35.706,0,0,0,
,-0.053,-0.245,1.029,-384.4,452.026,-27.771,0,0,0,
,0.048,-0.209,1.004,-440.552,512.695,-239.258,0,0,0,
,0.128,-0.32,1.1,-388.977,438.415,-220.643,0,0,0,
,0.004,-0.428,1.061,-540.101,505.432,-185.364,0,0,0,
,0.005,-0.265,0.99,-689.698,560.913,-161.316,0,0,0,
,-0.012,-0.104,0.988,-621.216,668.579,-160.767,0,0,0,
,-0.022,-0.147,0.999,-602.906,749.267,-186.036,0,0,0,
,0.005,-0.134,1.069,-715.088,812.927,-205.445,0,0,0,
,0.06,-0.168,1.057,-822.022,891.723,-218.506,0,0,0,
,0.149,-0.297,0.958,-985.108,959.106,-140.87,0,0,0,
,0.26,-0.205,0.74,-992.798,750.61,6.836,0,0,0,
,0.238,-0.061,0.59,-947.388,577.392,61.889,0,0,0,
,0.094,-0.201,0.633,-914.124,555.114,141.479,0,0,0,
,0.145,-0.215,0.797,-1044.007,511.23,177.368,0,0,0,
,0.32,0.041,0.982,-1145.447,383.85,213.44,0,0,0,
,0.25,0.01,1.045,-1099.854,419.983,198.547,0,0,0,
,0.222,-0.091,0.941,-1251.343,467.59,211.242,0,0,0,
,0.315,-0.002,0.787,-1579.529,338.745,170.715,0,0,0,
,0.271,0.22,0.771,-1703.248,212.341,106.445,0,0,0,
,0.336,0.353,0.875,-1621.155,126.526,-1.954,0,0,0,
,0.299,0.294,0.975,-1489.563,65.124,-73.304,0,0,0,
,0.281,0.332,0.957,-1431.153,79.956,-88.196,0,0,0,
,0.373,0.429,0.791,-1338.562,19.104,-116.272,0,0,0,
,0.301,0.479,0.747,-938.477,-211.426,-259.339,0,0,0,
,0.243,0.538,0.967,-641.114,-246.399,-340.943,0,0,0,
,0.243,0.479,0.991,-353.089,-111.268,-346.192,0,0,0,
,0.37,0.489,0.825,-380.249,-18.067,-321.778,0,0,0,
,0.358,0.533,0.66,-400.818,-23.926,-305.115,0,0,0,
,0.426,0.553,0.499,-392.884,-13.794,-284.363,0,0,0,
,0.553,0.693,0.419,-374.817,-16.297,-227.723,0,0,0,
,0.561,0.663,0.494,-182.435,-69.458,-189.759,0,0,0,
,0.515,0.656,0.685,-23.255,-14.161,-148.377,0,0,0,
,0.527,0.649,0.761,247.314,3.601,-108.094,0,0,0,
,0.458,0.505,0.821,311.096,53.772,-79.468,0,0,0,
,0.458,0.426,0.799,161.865,36.865,-56.946,0,0,0,
,0.468,0.378,0.755,-20.081,-2.137,-31.373,0,0,0,
,0.472,0.39,0.714,-140.259,-21.851,-21.485,0,0,0,
,0.375,0.546,0.774,60.913,-97.596,-65.064,0,0,0,
,0.457,0.447,0.683,48.278,-19.104,-29.48,0,0,0,
,0.42,0.585,0.681,28.808,-36.438,-34.974,0,0,0,
,0.373,0.596,0.664,220.703,-20.386,-15.076,0,0,0,
,0.329,0.453,0.643,311.767,-56.336,3.295,0,0,0,
,0.311,0.479,0.67,456.787,-189.393,-8.912,0,0,0,
,0.403,0.504,0.7,281.677,96.008,38.024,0,0,0,
,0.377,0.329,0.637,-158.081,-45.166,6.897,0,0,0,
,0.261,0.639,0.722,-11.719,-48.951,38.635,0,0,0,
,0.299,0.572,0.926,402.038,-42.908,71.472,0,0,0,
,0.578,0.393,0.794,348.449,150.94,134.765,0,0,0,
,0.371,0.462,0.819,338.134,-147.706,81.787,0,0,0,
,0.41,0.453,0.89,748.23,-315.003,95.703,0,0,0,
,0.501,0.377,0.929,700.439,-31.25,104.919,0,0,0,
,0.38,0.197,0.76,581.787,-360.23,141.296,0,0,0,
,0.065,0.763,0.917,661.743,-137.024,98.938,0,0,0,
,0.506,0.035,0.654,415.405,-327.698,211.486,0,0,0,
,-0.023,0.574,1.229,429.87,-390.442,186.218,0,0,0,
,0.485,0.12,0.752,454.651,-162.11,337.89,0,0,0,
,0.125,0.457,0.571,420.715,-549.805,290.588,0,0,0,
,0.256,0.376,0.762,696.167,-396.546,292.724,0,0,0,
,0.258,-0.046,0.604,443.359,-769.532,389.343,0,0,0,
,0.102,0.4,0.944,663.391,-671.936,286.865,0,0,0,
,0.083,0.372,1.145,876.159,-762.146,466.369,0,0,0,
,0.12,0.395,1.388,1243.713,-842.774,567.077,0,0,0,
,0.158,0.228,1.26,953.979,-525.818,397.033,0,0,0,
,0.31,0.774,1.285,909.79,-480.225,395.874,0,0,0,
,0.486,0.699,1.248,595.581,-301.026,233.52,0,0,0,
,0.382,0.62,1.391,375.549,-165.406,135.742,0,0,0,
,0.321,0.575,1.501,449.524,55.664,34.545,0,0,0,
,0.285,0.393,1.553,636.657,184.387,13.488,0,0,0,
,0.181,0.359,1.062,364.807,920.837,-281.067,0,0,0,
,0.015,-0.001,0.857,-71.045,1244.018,-529.664,0,0,0,
,-0.325,-0.069,0.968,-852.112,1581.787,-698.304,0,0,0,
,-0.43,-0.063,1,-1471.375,1935.791,-610.779,0,0,0,
,-0.192,-0.687,0.469,-2000,1923.217,-367.737,0,0,0,
,0.018,-0.247,0.349,-2000,1421.142,-206.36,0,0,0,
,0.042,0.159,0.394,-2000,1102.417,-237.61,0,0,0,
,0.212,0.687,0.449,-2000,768.493,-604.126,0,0,0,
,-0.058,0.331,0.993,-2000,670.044,-795.472,0,0,0,
,0.255,0.18,0.342,-2000,628.112,-691.956,0,0,0,
,0.344,0.827,0.451,-2000,138.183,-793.885,0,0,0,
,0.896,1.355,0.251,-1348.694,-353.028,-652.039,0,0,0,
,0.492,0.058,0.461,-231.751,-565.186,-551.026,0,0,0,
,0.536,0.581,0.611,-380.249,-845.887,-323.243,0,0,0,
,0.444,0.301,0.607,-250.306,-862.977,-169.129,0,0,0,
,0.498,0.401,0.631,-77.698,-812.439,-133.973,0,0,0,
,0.59,0.359,0.21,-466.98,-335.877,-75.135,0,0,0,
,0.934,0.546,0.421,-76.783,-134.888,-68.909,0,0,0,
,0.808,0.042,0.565,368.042,-89.356,28.381,0,0,0,
,0.577,0.033,0.422,963.317,-231.751,-75.257,0,0,0,
,0.673,0.262,0.442,1225.219,-342.347,-52.308,0,0,0,
,0.723,0.405,0.551,1017.151,-409.79,-145.447,0,0,0,
,0.827,0.528,0.529,545.166,-312.623,-154.908,0,0,0,
,0.298,0.725,0.565,728.027,-319.336,-40.833,0,0,0,
,0.165,0.459,0.945,1616.027,-629.883,88.44,0,0,0,
,0.237,0.005,0.699,1294.616,-369.873,161.438,0,0,0,
,0.484,0.175,0.972,1147.888,-221.07,282.287,0,0,0,
,0.625,0.429,1.337,1272.644,-318.238,454.101,0,0,0,
,0.719,0.666,1.56,1231.75,-76.6,691.772,0,0,0,
,0.699,0.524,1.422,1016.479,-186.524,980.407,0,0,0,
,0.578,0.344,1.26,818.969,-271.485,1086.12,0,0,0,
,0.497,0.442,1.158,708.313,-205.323,1068.969,0,0,0,
,0.625,0.391,0.708,417.175,-242.432,910.156,0,0,0,
,0.489,0.481,0.397,128.784,-279.297,667.602,0,0,0,
,0.379,0.431,0.327,-231.629,-151.551,391.052,0,0,0,
,0.359,0.477,0.434,-562.867,55.847,92.468,0,0,0,
,0.207,0.67,0.852,-461.182,312.5,-39.551,0,0,0,
,0.207,0.467,0.944,-301.88,530.395,-62.928,0,0,0,
,0.234,0.643,0.884,-312.989,520.507,-57.373,0,0,0,
,0.216,0.558,0.804,-127.625,558.593,-34.485,0,0,0,
,0.254,0.397,0.595,-22.339,534.179,-53.162,0,0,0,
,0.293,0.279,0.493,-110.84,375.061,-54.444,0,0,0,
,0.358,0.363,0.566,-293.702,187.988,-92.225,0,0,0,
,0.394,0.505,0.783,-457.825,71.167,-118.958,0,0,0,
,0.47,0.526,0.996,-371.827,40.222,48.461,0,0,0,
,0.443,0.462,0.93,-338.196,-49.927,70.617,0,0,0,
,0.457,0.42,0.871,-228.089,-109.864,62.805,0,0,0,
,0.416,0.393,0.849,-165.711,-153.321,56.091,0,0,0,
,0.461,0.445,0.794,-25.147,-161.499,23.864,0,0,0,
,0.426,0.46,0.763,99.182,-165.039,36.682,0,0,0,
,0.39,0.476,0.72,214.965,-125.123,53.772,0,0,0,
,0.393,0.467,0.691,284.118,-75.501,46.569,0,0,0,
,0.424,0.465,0.678,337.524,-54.139,16.174,0,0,0,
,0.402,0.419,0.724,295.959,-33.692,-32.227,0,0,0,
,0.422,0.367,0.783,153.259,-19.593,-61.829,0,0,0,
,0.373,0.451,0.811,36.56,-0.123,-75.867,0,0,0,
,0.489,0.585,0.696,-45.96,36.926,-62.561,0,0,0,
,0.416,0.502,0.731,-167.542,21.301,-41.443,0,0,0,
,0.425,0.501,0.761,-382.264,45.837,-8.789,0,0,0,
,0.374,0.572,0.937,-385.132,77.697,-49.744,0,0,0,
,0.372,0.388,0.837,-228.699,263.488,-64.087,0,0,0,
,0.415,0.285,0.683,-640.992,184.57,-89.295,0,0,0,
,0.381,0.725,0.741,-680.237,125.061,-219.544,0,0,0,
,0.396,0.661,0.747,-623.414,122.802,-220.459,0,0,0,
,0.377,0.674,0.783,-646.973,179.443,-169.251,0,0,0,
,0.462,0.733,0.698,-796.448,173.217,-109.253,0,0,0,
,0.45,0.703,0.596,-971.253,171.447,-56.092,0,0,0,
,0.511,0.736,0.385,-1177.063,99.121,-21.485,0,0,0,
,0.436,0.75,0.343,-1069.703,17.211,-31.678,0,0,0,
,0.39,0.716,0.326,-850.342,-53.406,-55.054,0,0,0,
,0.391,0.738,0.365,-640.076,-76.477,-79.468,0,0,0,
,0.364,0.65,0.594,-442.2,-50.049,-141.663,0,0,0,
,0.424,0.658,0.536,-480.347,2.624,-184.388,0,0,0,
,0.471,0.712,0.427,-511.292,34.362,-222.962,0,0,0,
,0.551,0.736,0.383,-518.555,37.841,-205.933,0,0,0,
,0.517,0.801,0.377,-550.232,35.156,-179.322,0,0,0,
,0.517,0.775,0.296,-518.921,61.523,-152.955,0,0,0,
,0.506,0.75,0.267,-404.541,53.649,-144.654,0,0,0,
,0.48,0.661,0.312,-300.599,39.917,-185.608,0,0,0,
,0.529,0.732,0.383,-151.978,-7.813,-264.466,0,0,0,
,0.62,0.687,0.408,-145.447,-52.491,-262.33,0,0,0,
,0.63,0.775,0.452,-213.99,-105.896,-281.128,0,0,0,
,0.594,0.762,0.483,-241.883,-133.362,-273.499,0,0,0,
,0.507,0.716,0.573,-253.052,-117.127,-255.494,0,0,0,
,0.542,0.626,0.347,-203.797,-126.343,-174.988,0,0,0,
,0.48,0.587,0.444,-157.532,-98.999,-138.672,0,0,0,
,0.57,0.795,0.338,-181.885,-28.016,-62.684,0,0,0,
,0.936,0.862,-0.025,-199.219,-31.495,-44.312,0,0,0,
,0.447,0.457,0.182,-206.238,1.22,-47.242,0,0,0,
,0.506,0.778,0.043,41.076,10.131,-118.287,0,0,0,
,0.34,0.597,0.189,170.593,6.53,-107.178,0,0,0,
,0.439,0.72,0.325,183.471,-67.566,-71.412,0,0,0,
,0.699,0.642,0.174,287.536,44.189,-24.659,0,0,0,
,0.517,0.559,0.238,440.307,7.934,26.916,0,0,0,
,0.588,0.543,0.291,670.349,125,37.048,0,0,0,
,0.578,0.599,0.508,922.79,89.355,88.44,0,0,0,
,0.571,0.604,0.499,1178.1,13.427,178.222,0,0,0,
,0.624,0.621,0.576,885.131,19.104,215.515,0,0,0,
,0.586,0.512,0.549,292.663,-35.645,182.495,0,0,0,
,0.517,0.776,0.55,156.067,-41.321,174.682,0,0,0,
,0.508,0.689,0.481,134.704,-46.509,201.477,0,0,0,
,0.461,0.633,0.457,159.179,-61.158,217.834,0,0,0,
,0.396,0.599,0.456,321.655,-97.229,186.889,0,0,0,
,0.385,0.741,0.561,293.701,172.119,205.627,0,0,0,
,0.661,0.73,0.45,114.807,-0.489,196.472,0,0,0,
,0.461,0.58,0.537,285.522,13.183,248.108,0,0,0,
,0.46,0.501,0.572,335.022,28.625,251.342,0,0,0,
,0.441,0.514,0.596,470.947,51.757,269.287,0,0,0,
,0.451,0.571,0.562,632.141,83.068,254.638,0,0,0,
,0.455,0.693,0.44,901.367,64.514,203.979,0,0,0,
,0.368,0.698,0.622,954.345,9.826,188.659,0,0,0,
,0.675,0.451,0.467,237.365,-70.252,255.798,0,0,0,
,0.345,0.74,0.836,223.266,-156.006,248.047,0,0,0,
,0.448,0.564,0.71,478.515,-94.971,276.916,0,0,0,
,0.317,0.483,0.619,532.409,-151.368,226.745,0,0,0,
,0.329,0.53,0.567,875,-213.685,168.396,0,0,0,
,0.452,0.64,0.669,820.617,70.19,282.837,0,0,0,
,0.448,0.634,0.724,666.442,-31.189,285.278,0,0,0,
,0.331,0.557,0.759,606.262,-188.416,304.565,0,0,0,
,0.306,0.349,0.812,539.489,-211.731,239.929,0,0,0,
,0.293,0.355,0.804,484.13,-341.98,228.759,0,0,0,
,0.152,0.594,1.082,660.949,-276.246,194.641,0,0,0,
,0.524,0.446,0.698,591.98,-91.919,279.297,0,0,0,
,0.29,0.507,0.872,510.742,-387.207,254.028,0,0,0,
,0.215,0.439,0.842,643.31,-356.568,200.073,0,0,0,
,0.187,0.33,1.086,465.881,-213.501,247.741,0,0,0,
,0.485,0.338,0.738,375.61,-260.254,239.441,0,0,0,
,0.286,0.449,0.93,437.255,-442.444,191.955,0,0,0,
,0.252,0.349,1.001,476.013,-377.564,213.806,0,0,0,
,0.198,0.385,0.999,400.268,-360.23,233.642,0,0,0,
,0.143,0.396,0.979,472.9,-376.343,251.77,0,0,0,
,0.145,0.435,0.878,542.053,-382.203,245.361,0,0,0,
,0.084,0.191,0.816,524.047,-414.856,220.764,0,0,0,
,0.085,0.157,0.723,370.91,-499.146,178.527,0,0,0,
,0.15,0.339,0.963,155.456,-166.443,149.353,0,0,0,
,0.209,0.23,0.946,-46.998,-239.319,188.354,0,0,0,
,0.055,0.463,1.061,143.615,-222.596,154.358,0,0,0,
,0.081,0.253,1.09,314.514,-241.394,165.649,0,0,0,
,0.019,0.202,1.015,369.873,-307.373,171.02,0,0,0,
,0.003,0.203,0.898,423.828,-427.613,151.184,0,0,0,
,-0.016,0.441,1.152,315.002,-242.981,150.817,0,0,0,
,0.139,0.205,0.997,146.85,-296.448,215.271,0,0,0,
,-0.037,0.251,1.108,238.83,-266.846,185.791,0,0,0,
,0.034,0.048,0.916,284.118,-391.297,202.453,0,0,0,
,-0.053,0.115,0.866,558.471,-477.478,102.966,0,0,0,
,-0.226,-0.064,1.179,485.473,-425.354,70.8,0,0,0,
,-0.064,0.01,1.02,231.933,-305.359,46.325,0,0,0,
,-0.036,0.208,0.959,0.793,-321.351,110.351,0,0,0,
,-0.052,0.305,0.869,-26.978,-306.153,146.728,0,0,0,
,-0.117,0.184,1.063,128.845,-324.769,198.791,0,0,0,
,-0.057,0.354,1.019,305.969,-265.625,156.189,0,0,0,
,-0.161,0.123,1.014,356.323,-255.616,158.264,0,0,0,
,-0.158,-0.037,1.036,271.423,-241.639,161.56,0,0,0,
,-0.242,-0.141,0.976,71.35,-244.935,145.324,0,0,0,
,-0.097,0.155,1.211,-60.547,-169.983,53.772,0,0,0,
,-0.144,0.251,1.122,-55.481,-178.589,108.947,0,0,0,
,-0.173,0.243,1.062,51.086,-149.476,140.991,0,0,0,
,-0.188,0.172,1.014,206.176,-93.811,147.827,0,0,0,
,-0.164,0.087,1.014,302.673,-52.552,142.517,0,0,0,
,-0.172,0.093,1.03,327.942,5.737,114.074,0,0,0,
,-0.061,0.264,1.109,227.722,82.031,29.602,0,0,0,
,-0.095,0.203,1.145,117.187,132.934,-14.588,0,0,0,
,-0.085,0.231,1.173,31.433,226.867,-57.251,0,0,0,
,-0.094,0.232,1.194,-28.626,343.811,-141.541,0,0,0,
,-0.086,0.294,1.199,-125.977,489.746,-223.938,0,0,0,
,-0.107,0.364,1.201,-178.223,690.734,-334.229,0,0,0,
,-0.088,0.3,1.097,-213.99,926.452,-472.168,0,0,0,
,0.055,0.324,0.933,-100.953,853.454,-467.408,0,0,0,
,-0.052,0.276,1.033,16.479,813.354,-582.337,0,0,0,
,-0.126,0.058,1.081,44.128,964.599,-674.012,0,0,0,
,0.028,-0.122,1.171,-117.066,1045.593,-646.851,0,0,0,
,0.131,-0.261,1.119,-466.126,1085.144,-508.24,0,0,0,
,0.109,-0.13,1.045,-759.156,1021.545,-439.026,0,0,0,
,0.135,-0.155,0.879,-780.762,965.088,-352.478,0,0,0,
,0.123,-0.116,0.842,-877.381,890.014,-296.936,0,0,0,
,0.139,-0.081,0.811,-1130.921,826.965,-228.943,0,0,0,
,0.214,0.022,0.846,-1542.115,808.044,-194.886,0,0,0,
,0.314,0.203,0.84,-1955.933,594.482,-160.95,0,0,0,
,0.23,0.398,0.907,-2000,503.051,-189.087,0,0,0,
,0.301,0.46,0.689,-2000,464.904,-188.355,0,0,0,
,0.193,0.549,0.58,-2000,520.813,-220.154,0,0,0,
,0.345,0.867,0.516,-2000,283.569,-212.708,0,0,0,
,0.166,0.847,0.64,-1628.479,208.557,-265.503,0,0,0,
,0.288,0.746,0.604,-1118.714,219.604,-205.872,0,0,0,
,0.252,0.664,0.666,-848.816,183.532,-162.415,0,0,0,
,0.312,0.639,0.66,-732.3,120.422,-118.348,0,0,0,
,0.292,0.633,0.648,-592.041,44.677,-116.639,0,0,0,
,0.33,0.584,0.575,-442.81,-59.998,-129.456,0,0,0,
,0.316,0.513,0.613,-300.354,-119.141,-161.133,0,0,0,
,0.355,0.564,0.603,-170.35,-125.367,-174.378,0,0,0,
,0.449,0.583,0.542,-138.245,-140.87,-198.426,0,0,0,
,0.475,0.61,0.512,-191.773,-200.928,-208.374,0,0,0,
,0.51,0.624,0.355,-274.048,-173.34,-200.806,0,0,0,
,0.564,0.723,0.285,-238.221,-171.631,-182.129,0,0,0,
,0.562,0.68,0.317,-53.223,-145.691,-178.406,0,0,0,
,0.6,0.682,0.424,109.863,-122.986,-154.297,0,0,0,
,0.552,0.628,0.504,142.944,-89.417,-126.16,0,0,0,
,0.532,0.643,0.504,74.707,-126.709,-113.526,0,0,0,
,0.443,0.546,0.598,47.363,-141.541,-152.649,0,0,0,
,0.339,0.573,0.709,5.432,-101.319,-218.201,0,0,0,
,0.321,0.417,0.761,-78.125,-121.521,-255.31,0,0,0,
,0.383,0.653,0.635,-130.616,-93.628,-249.085,0,0,0,
,0.513,0.825,0.404,-181.153,8.85,-205.506,0,0,0,
,0.574,0.887,0.341,22.399,40.222,-146.607,0,0,0,
,0.599,0.929,0.358,245.666,63.842,-38.514,0,0,0,
,0.519,0.698,0.599,289.55,71.35,38.086,0,0,0,
,0.421,0.585,0.742,67.077,34.851,52.856,0,0,0,
,0.42,0.544,0.723,-68.604,-7.386,42.785,0,0,0,
,0.398,0.665,0.647,7.446,-87.647,3.479,0,0,0,
,0.492,0.686,0.481,19.531,-80.262,9.399,0,0,0,
,0.468,0.728,0.419,80.749,-86.426,-3.846,0,0,0,
,0.449,0.734,0.384,192.016,-90.394,-3.418,0,0,0,
,0.385,0.644,0.465,348.449,-163.453,-4.883,0,0,0,
,0.502,0.577,0.443,155.822,-3.907,49.865,0,0,0,
,0.48,0.691,0.558,31.311,-26.123,-4.029,0,0,0,
,0.48,0.6,0.561,234.436,-27.405,20.935,0,0,0,
,0.444,0.617,0.619,323.12,-40.833,31.921,0,0,0,
,0.426,0.598,0.663,460.266,-85.877,33.325,0,0,0,
,0.41,0.572,0.661,587.463,-145.447,24.231,0,0,0,
,0.377,0.611,0.692,770.996,-274.292,11.23,0,0,0,
,0.574,0.596,0.554,322.998,-7.63,111.267,0,0,0,
,0.412,0.687,0.648,11.779,-15.748,74.462,0,0,0,
,0.369,0.582,0.675,222.595,-22.461,132.263,0,0,0,
,0.35,0.478,0.709,354.126,-60.181,159.118,0,0,0,
,0.377,0.434,0.695,592.102,-138.367,123.413,0,0,0,
,0.33,0.436,0.68,735.901,-250.855,80.505,0,0,0,
,0.387,0.806,0.773,694.763,-161.072,57.617,0,0,0,
,0.506,0.394,0.663,185.852,-59.632,112.365,0,0,0,
,0.326,0.738,0.701,223.999,-103.943,110.107,0,0,0,
,0.336,0.442,0.75,467.346,-133.667,177.551,0,0,0,
,0.287,0.395,0.767,559.326,-177.552,165.649,0,0,0,
,0.295,0.402,0.714,760.559,-261.719,117.675,0,0,0,
,0.306,0.576,0.862,327.148,-88.929,134.46,0,0,0,
,0.278,0.37,0.871,368.957,-136.353,169.128,0,0,0,
,0.261,0.4,0.794,465.271,-179.444,149.719,0,0,0,
,0.245,0.355,0.63,625.976,-368.226,105.835,0,0,0,
,0.339,0.506,0.816,606.14,-245.972,104.675,0,0,0,
,0.255,0.394,0.777,310.791,-254.822,92.651,0,0,0,
,0.227,0.501,0.808,378.662,-286.072,121.704,0,0,0,
,0.134,0.338,0.985,479.065,-343.262,157.898,0,0,0,
,0.276,0.268,0.971,331.726,-243.164,185.424,0,0,0,
,0.195,0.341,0.994,256.591,-254.639,164.001,0,0,0,
,0.203,0.323,0.997,297.668,-267.334,183.715,0,0,0,
,0.137,0.207,0.99,262.085,-244.141,173.034,0,0,0,
,0.129,0.242,0.985,302.185,-256.287,156.128,0,0,0,
,0.139,0.216,0.92,370.727,-330.75,143.859,0,0,0,
,0.094,0.237,0.909,427.124,-426.636,110.168,0,0,0,
,0.163,0.324,0.998,346.252,-230.469,123.535,0,0,0,
,0.1,0.271,0.971,177.002,-171.326,132.934,0,0,0,
,0.061,0.324,1.011,249.878,-137.452,155.456,0,0,0,
,0.054,0.178,1.062,245.056,-141.236,137.268,0,0,0,
,0.048,0.13,1.032,214.05,-126.16,134.582,0,0,0,
,0.072,0.23,0.937,227.05,-195.252,92.468,0,0,0,
,0.023,0.112,0.814,270.568,-343.75,62.377,0,0,0,
,-0.089,0.311,1.051,249.939,-303.284,43.457,0,0,0,
,0.119,0.092,0.877,126.037,-186.036,70.678,0,0,0,
,-0.059,0.249,0.945,132.019,-200.867,40.954,0,0,0,
,-0.077,0.302,1.175,191.223,-151.001,64.697,0,0,0,
,0.025,0.089,1.097,162.78,-90.821,98.877,0,0,0,
,0.029,0.081,1.065,281.25,-191.285,95.092,0,0,0,
,-0.021,0.057,1.067,361.511,-242.493,93.75,0,0,0,
,-0.045,-0.037,1.01,273.315,-234.681,104.736,0,0,0,
,-0.081,0.054,1.083,191.528,-255.738,114.502,0,0,0,
,0.039,0.083,1.025,168.579,-182.984,82.763,0,0,0,
,-0.036,0.135,0.971,181.213,-222.29,117.492,0,0,0,
,-0.075,0.05,0.923,201.049,-243.592,173.339,0,0,0,
,-0.086,0.148,1.054,333.496,-224.61,200.988,0,0,0,
,-0.096,-0.231,1.117,307.922,-214.173,244.812,0,0,0,
,-0.091,-0.031,1.126,216.43,-261.231,270.813,0,0,0,
,-0.138,-0.192,1.108,82.275,-277.466,328.918,0,0,0,
,-0.157,-0.101,1.113,-17.579,-265.259,410.522,0,0,0,
,-0.157,0.038,1.076,20.874,-245.301,460.571,0,0,0,
,-0.006,0.108,0.904,86.669,-279.48,379.943,0,0,0,
,-0.102,-0.061,0.904,-115.54,-278.504,376.037,0,0,0,
,-0.06,0.015,0.88,-189.881,-231.324,379.882,0,0,0,
,-0.079,0.011,1.016,-125.306,-199.28,418.396,0,0,0,
,-0.095,-0.069,1.112,-135.682,-180.054,394.531,0,0,0,
,-0.173,0.034,1.147,-150.391,-177.552,419.555,0,0,0,
,-0.189,0.051,1.081,-83.374,-132.935,387.756,0,0,0,
,-0.163,0.125,1.135,-119.751,-104.432,292.724,0,0,0,
,-0.153,0.04,1.165,-183.899,-82.398,181.213,0,0,0,
,-0.153,0.224,1.161,-240.601,2.075,7.324,0,0,0,
,-0.13,0.259,1.204,-239.685,33.386,-68.543,0,0,0,
,-0.146,0.285,1.252,-131.348,74.34,-127.93,0,0,0,
,-0.218,0.254,1.236,-15.137,131.53,-145.691,0,0,0,
,-0.103,0.487,1.105,96.801,278.747,-396.424,0,0,0,
,-0.125,0.53,1.245,255.676,255.005,-351.014,0,0,0,
,-0.196,0.351,1.2,276.855,446.106,-426.819,0,0,0,
,-0.164,0.343,1.095,247.802,625.305,-492.554,0,0,0,
,-0.204,0.27,1.06,285.217,790.527,-581.36,0,0,0,
,-0.182,0.051,0.974,220.764,959.167,-654.419,0,0,0,
,-0.128,0.005,0.93,140.808,1037.292,-611.939,0,0,0,
,-0.125,0.01,0.834,73.73,1096.862,-575.379,0,0,0,
,-0.14,0.036,0.801,7.873,1159.118,-563.538,0,0,0,
,-0.124,0.026,0.852,-172.181,1263.488,-565.125,0,0,0,
,-0.027,-0.099,0.955,-419.861,1410.644,-588.196,0,0,0,
,0.089,-0.178,0.914,-700.196,1369.69,-455.933,0,0,0,
,0.191,-0.267,0.778,-946.9,1278.381,-304.017,0,0,0,
,0.267,-0.128,0.593,-995.545,1007.08,-31.983,0,0,0,
,0.21,0.008,0.589,-1106.202,831.726,-36.622,0,0,0,
,0.173,0.217,0.572,-1161.805,702.636,80.688,0,0,0,
,0.307,0.306,0.743,-1077.271,548.034,19.714,0,0,0,
,0.307,0.097,0.797,-1092.957,480.59,20.874,0,0,0,
,0.322,0.043,0.77,-1231.263,356.567,26.794,0,0,0,
,0.318,0.173,0.728,-1359.07,234.619,42.968,0,0,0,
,0.388,0.35,0.795,-1226.929,132.629,1.953,0,0,0,
,0.424,0.401,0.875,-954.651,80.627,-80.872,0,0,0,
,0.451,0.389,0.847,-844.971,-24.414,-102.051,0,0,0,
,0.407,0.401,0.799,-879.334,-88.746,-98.267,0,0,0,
,0.428,0.475,0.774,-952.637,-202.149,-94.117,0,0,0,
,0.365,0.457,0.743,-1063.233,-213.379,-55.848,0,0,0,
,0.393,0.635,0.644,-1099.366,-196.839,-55.237,0,0,0,
,0.37,0.72,0.636,-946.228,-169.129,-75.135,0,0,0,
,0.383,0.716,0.64,-637.696,-119.385,-81.482,0,0,0,
,0.43,0.757,0.628,-391.724,-121.277,-51.941,0,0,0,
,0.416,0.731,0.692,-183.96,-103.76,-32.105,0,0,0,
,0.431,0.609,0.746,-130.738,-54.871,-28.748,0,0,0,
,0.428,0.6,0.592,-313.355,17.15,-10.437,0,0,0,
,0.436,0.67,0.53,-430.787,17.456,-26.551,0,0,0,
,0.439,0.685,0.507,-283.814,37.719,-49.195,0,0,0,
,0.419,0.623,0.546,-12.452,-6.775,-90.332,0,0,0,
,0.42,0.529,0.604,58.593,49.133,-119.446,0,0,0,
,0.395,0.475,0.657,-10.56,64.636,-149.414,0,0,0,
,0.431,0.498,0.62,-151.185,91.369,-162.293,0,0,0,
,0.441,0.608,0.585,-208.802,111.023,-199.28,0,0,0,
,0.478,0.624,0.516,-207.459,134.094,-192.688,0,0,0,
,0.49,0.683,0.499,-208.313,117.675,-179.749,0,0,0,
,0.488,0.642,0.523,-192.078,109.741,-179.444,0,0,0,
,0.477,0.599,0.572,-188.782,80.505,-176.819,0,0,0,
,0.471,0.576,0.594,-185.73,32.47,-170.777,0,0,0,
,0.518,0.68,0.638,-9.095,-86.976,-112.61,0,0,0,
,0.463,0.653,0.707,-125.428,-78.309,-87.708,0,0,0,
,0.473,0.664,0.674,-198.853,-70.069,-59.144,0,0,0,
,0.459,0.692,0.628,-193.299,-62.256,-29.541,0,0,0,
,0.45,0.711,0.579,-140.015,-29.786,-18.677,0,0,0,
,0.464,0.727,0.535,-35.157,2.38,-0.794,0,0,0,
,0.485,0.674,0.522,112.06,-44.312,-1.587,0,0,0,
,0.384,0.478,0.516,287.719,-94.666,-64.331,0,0,0,
,0.369,0.552,0.478,195.068,-174.683,-109.62,0,0,0,
,0.32,0.713,0.568,248.23,-153.077,-135.682,0,0,0,
,0.558,0.538,0.48,-24.231,-66.712,-92.713,0,0,0,
,0.472,0.838,0.647,131.591,-81.604,-61.341,0,0,0,
,0.493,0.591,0.622,434.753,-99.183,-13.855,0,0,0,
,0.439,0.554,0.593,918.518,-235.596,11.84,0,0,0,
,0.428,0.51,0.722,840.271,-101.014,27.282,0,0,0,
,0.502,0.572,0.719,412.353,-73.67,62.988,0,0,0,
,0.354,0.779,0.78,609.802,-58.533,113.098,0,0,0,
,0.365,0.567,0.756,878.112,-32.959,176.574,0,0,0,
,0.456,0.466,0.717,1039.367,-133.362,209.9,0,0,0,
,0.367,0.345,0.695,1141.113,-224.488,156.555,0,0,0,
,0.509,0.432,0.752,747.497,-2.259,166.015,0,0,0,
,0.392,0.235,0.78,243.469,-132.752,71.411,0,0,0,
,0.342,0.562,0.821,233.093,-137.757,117.187,0,0,0,
,0.379,0.337,0.803,385.315,-141.419,147.522,0,0,0,
,0.364,0.345,0.733,481.933,-209.534,159.362,0,0,0,
,0.338,0.301,0.65,697.57,-299.927,118.408,0,0,0,
,0.338,0.419,0.896,594.36,-101.746,141.723,0,0,0,
,0.44,0.277,0.859,450.683,-173.218,127.258,0,0,0,
,0.267,0.425,0.902,478.088,-235.108,155.517,0,0,0,
,0.317,0.252,0.861,590.637,-251.221,215.026,0,0,0,
,0.257,0.263,0.816,621.887,-341.797,207.824,0,0,0,
,0.221,0.208,0.781,706.054,-419.861,171.569,0,0,0,
,0.216,0.118,0.824,785.034,-644.349,102.478,0,0,0,
,0.182,0.318,1.115,561.279,-301.392,156.433,0,0,0,
,0.336,0.086,0.916,330.2,-349.122,221.679,0,0,0,
,0.172,0.303,0.981,432.739,-421.448,210.327,0,0,0,
,0.182,0.124,0.895,608.764,-444.092,256.164,0,0,0,
,0.059,0.198,1.045,604.309,-454.59,203.796,0,0,0,
,0.203,0.154,0.992,681.518,-320.74,147.644,0,0,0,
,0.169,0.072,1.056,561.889,-461.792,132.995,0,0,0,
,0.133,0.144,1.092,595.642,-491.944,137.024,0,0,0,
,0.104,-0.059,1.009,608.581,-527.832,171.63,0,0,0,
,-0.002,0.19,1.192,528.442,-432.801,178.65,0,0,0,
,0.13,-0.109,0.964,501.587,-306.702,180.542,0,0,0,
,0.047,-0.051,1.041,260.437,-359.314,150.329,0,0,0,
,0.03,-0.05,1.052,184.082,-265.442,153.442,0,0,0,
,0.06,-0.245,1.047,26.428,-284.119,188.903,0,0,0,
,0.008,-0.191,1.03,-72.266,-317.444,195.739,0,0,0,
,-0.045,-0.102,0.873,49.926,-403.931,198.791,0,0,0,
,-0.001,-0.028,1.049,64.148,-390.259,198.608,0,0,0,
,0.013,-0.161,0.97,132.629,-262.146,219.97,0,0,0,
,-0.003,0.029,1.082,42.297,-378.602,255.005,0,0,0,
,-0.116,-0.072,1.125,116.394,-334.107,281.25,0,0,0,
,-0.091,-0.147,1.022,120.239,-363.282,287.353,0,0,0,
,-0.185,-0.061,0.923,111.938,-411.316,254.394,0,0,0,
,-0.237,-0.161,0.865,-21.058,-376.465,194.824,0,0,0,
,-0.26,-0.139,0.71,-232.117,-399.659,182.983,0,0,0,
,-0.117,0.069,1.165,-413.392,-241.517,126.831,0,0,0,
,-0.105,0.053,1.074,-528.26,-257.752,235.901,0,0,0,
,-0.255,0.11,1.128,-403.321,-270.508,243.408,0,0,0,
,-0.255,-0.016,1.115,-220.398,-263.489,238.525,0,0,0,
,-0.246,-0.094,1.021,-223.572,-299.988,280.334,0,0,0,
,-0.32,-0.097,0.835,-384.888,-312.012,244.751,0,0,0,
,-0.139,-0.075,1.138,-697.205,-250.367,159.362,0,0,0,
,-0.175,0.112,0.989,-749.878,-193.726,208.862,0,0,0,
,-0.283,0.095,1.164,-507.019,-153.138,322.631,0,0,0,
,-0.317,0.013,1.244,-483.582,-170.166,457.397,0,0,0,
,-0.356,0.041,0.861,-381.775,-201.905,499.023,0,0,0,
,-0.214,0.135,1.058,-365.967,-215.455,350.83,0,0,0,
,-0.306,0.212,0.944,-420.533,-197.144,381.713,0,0,0,
,-0.28,0.369,1.052,-304.444,-139.649,273.864,0,0,0,
,-0.355,0.263,1.059,-266.175,-77.21,263.61,0,0,0,
,-0.354,0.408,1.065,-212.281,-86.67,296.264,0,0,0,
,-0.367,0.371,1.008,-80.933,-36.744,253.845,0,0,0,
,-0.326,0.438,0.883,-61.585,-40.162,171.386,0,0,0,
,-0.311,0.5,0.838,-45.533,-29.419,61.401,0,0,0,
,-0.324,0.537,0.848,21.24,12.634,-14.405,0,0,0,
,-0.325,0.575,0.976,157.653,110.534,-84.351,0,0,0,
,-0.304,0.583,1.036,309.021,202.209,-140.198,0,0,0,
,-0.253,0.595,1.161,460.693,231.872,-264.1,0,0,0,
,-0.324,0.568,1.19,526.977,268.615,-203.614,0,0,0,
,-0.355,0.47,1.15,452.026,422.241,-260.315,0,0,0,
,-0.336,0.399,1.11,376.342,582.519,-397.644,0,0,0,
,-0.338,0.246,1.091,408.081,697.754,-545.411,0,0,0,
,-0.294,0.154,1.068,493.835,751.464,-608.582,0,0,0,
,-0.266,0.127,1.042,625.366,752.929,-660.523,0,0,0,
,-0.259,0.1,1.034,717.163,785.827,-689.026,0,0,0,
,-0.224,0.043,1.02,590.454,843.2,-702.027,0,0,0,
,-0.175,-0.148,0.924,401.55,874.694,-720.398,0,0,0,
,-0.151,-0.467,0.721,196.289,792.541,-751.343,0,0,0,
,-0.081,-0.622,0.502,8.3,604.492,-518.677,0,0,0,
,-0.148,-0.404,0.458,-164.246,566.528,-238.953,0,0,0,
,-0.267,-0.456,0.574,-514.71,786.255,-132.935,0,0,0,
,-0.106,-0.337,0.673,-1077.576,874.267,-13.55,0,0,0,
,0.072,-0.131,0.829,-1425.965,807.067,-37.598,0,0,0,
,0.185,0.119,1.005,-1404.969,749.878,-79.285,0,0,0,
,0.192,0.195,0.971,-1204.529,769.287,-137.33,0,0,0,
,0.125,0.202,0.743,-1131.958,748.84,-158.265,0,0,0,
,0.178,0.252,0.598,-1192.322,701.416,-125.855,0,0,0,
,0.412,0.555,0.813,-1082.825,391.723,-144.593,0,0,0,
,0.341,0.389,0.893,-868.714,302.856,-176.392,0,0,0,
,0.307,0.369,0.907,-976.197,193.542,-123.169,0,0,0,
,0.291,0.439,1.04,-1169.922,139.892,-53.162,0,0,0,
,0.293,0.375,0.937,-1431.214,153.503,53.833,0,0,0,
,0.318,0.519,0.854,-1531.25,56.152,40.283,0,0,0,
,0.256,0.633,0.732,-1328.736,0.549,-31.983,0,0,0,
,0.198,0.654,0.655,-1035.95,30.456,-142.395,0,0,0,
,0.257,0.578,0.772,-744.69,-10.865,-248.414,0,0,0,
,0.252,0.549,0.865,-575.501,-9.705,-285.035,0,0,0,
,0.27,0.617,0.729,-660.828,28.625,-246.644,0,0,0,
,0.287,0.818,0.642,-699.158,21.789,-205.567,0,0,0,
,0.289,0.885,0.538,-547.12,42.968,-181.641,0,0,0,
,0.321,0.83,0.601,-447.632,19.47,-193.482,0,0,0,
,0.296,0.721,0.645,-394.959,75.317,-179.993,0,0,0,
,0.322,0.729,0.606,-409.546,90.759,-176.697,0,0,0,
,0.32,0.664,0.661,-371.705,66.162,-200.501,0,0,0,
,0.336,0.636,0.588,-456.543,60.791,-212.22,0,0,0,
,0.358,0.707,0.494,-533.204,8.789,-238.282,0,0,0,
,0.347,0.765,0.438,-534.119,-47.059,-259.095,0,0,0,
,0.323,0.775,0.537,-389.954,-48.218,-284.668,0,0,0,
,0.29,0.693,0.57,-284.424,26.611,-287.72,0,0,0,
,0.414,0.669,0.559,-301.453,-26.551,-376.038,0,0,0,
,0.431,0.655,0.517,-282.593,-25.208,-340.21,0,0,0,
,0.453,0.678,0.525,-328.125,-128.052,-354.004,0,0,0,
,0.442,0.751,0.511,-362.427,-161.316,-326.539,0,0,0,
,0.397,0.737,0.519,-278.016,-75.074,-293.213,0,0,0,
,0.459,0.74,0.468,-213.623,-11.17,-244.385,0,0,0,
,0.471,0.749,0.409,-158.204,6.836,-204.59,0,0,0,
,0.519,0.734,0.386,-86.182,-20.142,-183.35,0,0,0,
,0.479,0.666,0.44,-82.642,-67.078,-182.74,0,0,0,
,0.464,0.663,0.51,-106.019,-99.671,-183.472,0,0,0,
,0.476,0.677,0.547,-151.673,-95.581,-170.899,0,0,0,
,0.49,0.733,0.549,-150.269,-57.984,-156.861,0,0,0,
,0.396,0.695,0.549,-68.848,-73.914,-154.541,0,0,0,
,0.38,0.604,0.515,-2.869,-36.927,-153.809,0,0,0,
,0.321,0.525,0.475,15.686,-139.649,-200.074,0,0,0,
,0.405,0.526,0.288,-131.897,-1.038,-197.754,0,0,0,
,0.518,1.011,0.274,-112.915,-88.257,-212.342,0,0,0,
,0.463,0.706,0.397,257.324,-132.447,-127.137,0,0,0,
,0.349,0.84,0.561,539.55,-80.811,-123.352,0,0,0,
,0.577,0.802,0.601,529.907,-3.479,103.698,0,0,0,
,0.507,0.607,0.691,791.565,45.837,113.281,0,0,0,
,0.45,0.42,0.669,880.737,-29.419,88.501,0,0,0,
,0.387,0.462,0.68,1025.512,-115.296,29.296,0,0,0,
,0.54,0.698,0.562,913.391,141.54,110.168,0,0,0,
,0.565,0.544,0.52,610.168,-29.053,77.331,0,0,0,
,0.413,0.677,0.516,572.692,-134.583,104.126,0,0,0,
,0.361,0.59,0.622,724.853,-190.552,82.946,0,0,0,
,0.51,0.431,0.489,458.068,123.657,213.379,0,0,0,
,0.417,0.637,0.635,393.921,-67.383,182.739,0,0,0,
,0.39,0.466,0.696,731.933,-14.161,180.175,0,0,0,
,0.322,0.519,0.68,744.812,-153.504,149.658,0,0,0,
,0.387,0.838,0.807,798.767,-134.583,158.447,0,0,0,
,0.471,0.333,0.671,553.222,-75.135,232.422,0,0,0,
,0.302,0.553,0.748,356.933,-246.277,228.759,0,0,0,
,0.324,0.508,0.76,479.614,-211.853,234.924,0,0,0,
,0.316,0.397,0.775,570.678,-249.634,228.942,0,0,0,
,0.289,0.434,0.735,727.05,-362.122,200.256,0,0,0,
,0.268,0.34,0.894,898.071,-582.581,129.943,0,0,0,
,0.276,0.44,0.936,692.505,-281.556,184.509,0,0,0,
,0.312,0.15,0.794,373.413,-386.902,201.11,0,0,0,
,0.265,0.394,1.021,380.249,-276.185,195.984,0,0,0,
,0.308,0.238,0.923,386.84,-288.636,163.086,0,0,0,
,0.169,0.282,1.011,341.247,-307.068,113.525,0,0,0,
,0.204,0.339,1.034,270.446,-319.458,146.057,0,0,0,
,0.142,0.352,0.849,351.928,-502.503,182.495,0,0,0,
,0.042,0.401,1.097,456.482,-453.248,224.487,0,0,0,
,0.139,0.172,0.866,509.216,-267.029,217.407,0,0,0,
,0.078,0.201,0.948,383.484,-302.308,230.59,0,0,0,
,0.038,0.175,0.987,369.14,-264.649,217.59,0,0,0,
,0.053,0.13,0.968,441.711,-409.546,245.117,0,0,0,
,0.031,0.098,0.909,571.35,-518.738,246.704,0,0,0,
,-0.003,0.031,0.845,617.981,-651.246,228.271,0,0,0,
,-0.056,0.254,0.983,599.975,-463.074,216.98,0,0,0,
,0.077,-0.118,0.89,419.128,-435.059,227.356,0,0,0,
,-0.12,0.035,0.946,273.803,-447.083,180.236,0,0,0,
,-0.084,-0.052,1.143,207.153,-443.909,170.959,0,0,0,
,-0.115,-0.002,1.074,176.941,-282.898,138.916,0,0,0,
,-0.051,0.026,1.094,218.811,-340.638,170.715,0,0,0,
,-0.128,0.023,1.151,294.738,-374.939,160.522,0,0,0,
,-0.168,-0.165,1.154,198.303,-402.894,166.504,0,0,0,
,-0.236,-0.11,1.07,33.935,-416.199,138.427,0,0,0,
,-0.289,-0.112,0.906,-36.927,-443.36,108.093,0,0,0,
,-0.247,0.099,1.146,-133.484,-300.965,46.203,0,0,0,
,-0.166,0.151,1.008,-125.184,-300.538,129.089,0,0,0,
,-0.223,0.161,0.965,-39.856,-318.726,166.442,0,0,0,
,-0.242,0.109,1.083,-176.331,-199.83,104.309,0,0,0,
,-0.247,0.016,1.15,-165.589,-203.309,120.544,0,0,0,
,-0.253,0.01,1.102,-119.568,-219.544,148.437,0,0,0,
,-0.348,-0.128,1.046,-117.676,-206.788,132.69,0,0,0,
,-0.33,-0.005,0.938,-149.048,-145.569,79.284,0,0,0,
,-0.347,-0.013,0.783,-213.135,-182.862,65.307,0,0,0,
,-0.224,0.272,1.087,-259.278,-106.934,1.342,0,0,0,
,-0.205,0.29,1.022,-242.798,-65.491,83.923,0,0,0,
,-0.257,0.17,1.029,-135.682,-26.612,145.507,0,0,0,
,-0.307,0.025,1.071,-94.971,8.789,153.381,0,0,0,
,-0.28,0.003,1.121,-130.31,36.499,160.034,0,0,0,
,-0.241,0.224,1.059,-67.81,9.948,36.193,0,0,0,
,-0.265,0.246,0.998,-14.039,61.218,15.075,0,0,0,
,-0.246,0.294,0.981,181.03,169.677,-45.96,0,0,0,
,-0.257,0.362,1.062,279.358,247.07,-87.159,0,0,0,
,-0.259,0.339,1.164,252.624,362.182,-137.696,0,0,0,
,-0.26,0.233,1.231,196.472,468.505,-175.049,0,0,0,
,-0.282,0.127,1.24,125.366,577.148,-195.496,0,0,0,
,-0.279,0.077,1.211,49.926,688.354,-207.459,0,0,0,
,-0.258,0.059,1.158,-16.541,758.911,-294.495,0,0,0,
,-0.252,0.187,1.096,-37.354,794.433,-379.395,0,0,0,
,-0.225,0.216,1.079,2.014,853.942,-518.921,0,0,0,
,-0.205,0.103,1.063,45.349,922.302,-652.039,0,0,0,
,-0.089,-0.165,1.032,-21.424,935.852,-693.36,0,0,0,
,-0.003,-0.195,1.012,-125.061,820.068,-608.338,0,0,0,
,-0.034,-0.011,0.996,-151.185,747.009,-544.8,0,0,0,
,-0.022,0.134,0.963,-1.282,704.712,-525.208,0,0,0,
,0.007,0.061,0.959,93.078,736.999,-498.719,0,0,0,
,0.042,-0.105,0.932,51.879,793.518,-400.513,0,0,0,
,0.11,-0.091,0.924,-33.143,708.496,-341.797,0,0,0,
,0.1,-0.044,0.92,75.256,624.878,-348.816,0,0,0,
,0.112,-0.014,0.936,417.968,574.279,-315.857,0,0,0,
,0.143,-0.066,0.908,688.049,531.982,-283.814,0,0,0,
,0.145,-0.238,0.815,637.207,462.036,-181.58,0,0,0,
,0.146,-0.249,0.815,394.409,391.235,-87.22,0,0,0,
,0.106,-0.261,0.807,157.653,414.306,-10.56,0,0,0,
,0.136,-0.221,0.74,-114.441,442.138,23.681,0,0,0,
,0.201,-0.124,0.829,-296.998,411.193,7.568,0,0,0,
,0.235,-0.191,0.869,-470.581,463.317,-2.198,0,0,0,
,0.277,-0.379,0.933,-846.802,551.391,41.076,0,0,0,
,0.376,-0.393,0.909,-1404.541,554.931,75.195,0,0,0,
,0.428,-0.058,0.821,-1870.179,471.13,63.171,0,0,0,
,0.446,0.266,0.659,-1953.553,396.606,37.536,0,0,0,
,0.559,0.567,0.707,-1940.735,200.683,57.556,0,0,0,
,0.574,0.572,0.865,-1603.638,116.76,24.963,0,0,0,
,0.47,0.406,0.995,-1367.31,140.747,16.601,0,0,0,
,0.503,0.291,1.058,-1398.743,234.253,33.02,0,0,0,
,0.472,0.217,0.935,-1503.479,291.687,83.923,0,0,0,
,0.438,0.208,0.705,-1790.467,198.364,61.218,0,0,0,
,0.366,0.473,0.515,-1726.746,100.28,-15.503,0,0,0,
,0.354,0.633,0.425,-1328.248,-61.158,-117.066,0,0,0,
,0.298,0.615,0.5,-964.905,-75.501,-180.726,0,0,0,
,0.36,0.705,0.573,-761.292,-43.152,-196.412,0,0,0,
,0.493,0.725,0.438,-719.178,3.356,-160.157,0,0,0,
,0.426,0.646,0.451,-590.699,31.86,-147.644,0,0,0,
,0.443,0.644,0.489,-474.61,-13.367,-153.321,0,0,0,
,0.437,0.63,0.553,-335.144,15.686,-166.321,0,0,0,
,0.497,0.643,0.536,-276.978,2.136,-169.8,0,0,0,
,0.465,0.714,0.54,19.592,-28.626,-117.798,0,0,0,
,0.491,0.705,0.578,-109.07,-69.703,-67.078,0,0,0,
,0.498,0.613,0.594,-258.057,-99.122,-45.411,0,0,0,
,0.433,0.644,0.558,-363.953,-133.179,-56.885,0,0,0,
,0.442,0.688,0.495,-332.032,-125.428,-66.59,0,0,0,
,0.429,0.749,0.444,-226.746,-94.971,-84.534,0,0,0,
,0.398,0.691,0.391,-168.457,-87.22,-104.187,0,0,0,
,0.411,0.693,0.377,-115.113,-91.37,-134.644,0,0,0,
,0.418,0.679,0.434,-39.978,-85.877,-146.546,0,0,0,
,0.425,0.678,0.54,-16.419,-75.562,-153.321,0,0,0,
,0.44,0.7,0.588,-13.184,-65.857,-147.95,0,0,0,
,0.355,0.598,0.598,67.26,-130.249,-126.831,0,0,0,
,0.258,0.739,0.668,312.317,-173.645,-155.03,0,0,0,
,0.656,0.675,0.259,-213.135,-75.867,-77.881,0,0,0,
,0.422,0.804,0.384,39.306,-157.349,-76.416,0,0,0,
,0.432,0.747,0.472,242.065,-108.216,-70.618,0,0,0,
,0.575,0.748,0.499,92.346,-59.266,-22.767,0,0,0,
,0.533,0.669,0.593,340.026,-22.461,38.635,0,0,0,
,0.572,0.682,0.589,610.778,-5.616,85.327,0,0,0,
,0.534,0.651,0.575,685.058,5.798,112.609,0,0,0,
,0.449,0.572,0.636,651.428,34.362,94.421,0,0,0,
,0.399,0.412,0.58,516.479,12.023,59.57,0,0,0,
,0.359,0.454,0.543,382.507,-91.736,19.897,0,0,0,
,0.411,0.509,0.498,440.49,-252.442,-22.889,0,0,0,
,0.548,0.637,0.442,268.005,38.757,22.522,0,0,0,
,0.479,0.739,0.536,169.983,-43.091,-5.738,0,0,0,
,0.446,0.75,0.574,562.988,-10.865,58.166,0,0,0,
,0.408,0.441,0.674,750,-75.684,83.068,0,0,0,
,0.272,0.47,0.887,764.77,-56.397,104.126,0,0,0,
,0.55,0.457,0.751,492.37,89.965,213.928,0,0,0,
,0.443,0.555,0.806,476.44,-62.317,208.801,0,0,0,
,0.396,0.494,0.849,469.36,-107.178,222.778,0,0,0,
,0.397,0.589,0.721,646.85,-144.41,222.839,0,0,0,
,0.376,0.458,0.566,759.582,-270.63,196.35,0,0,0,
,0.276,0.549,0.831,701.904,-178.406,147.338,0,0,0,
,0.456,0.274,0.66,308.227,-62.745,211.12,0,0,0,
,0.244,0.53,0.853,233.642,-106.568,154.297,0,0,0,
,0.374,0.405,0.887,347.595,-52.124,207.397,0,0,0,
,0.341,0.412,0.899,419.311,-98.755,210.937,0,0,0,
,0.362,0.411,0.776,557.067,-208.741,180.175,0,0,0,
,0.348,0.351,0.609,709.228,-499.207,97.778,0,0,0,
,0.355,0.571,0.917,711.425,-147.767,112.182,0,0,0,
,0.365,0.15,0.852,425.72,-218.201,156.005,0,0,0,
,0.253,0.16,0.806,703.43,-347.535,118.042,0,0,0,
,0.091,0.316,1.13,671.447,-307.373,111.389,0,0,0,
,0.284,0.198,0.857,528.198,-243.042,131.958,0,0,0,
,0.149,0.213,0.936,329.162,-366.822,122.924,0,0,0,
,0.164,0.289,0.893,386.963,-424.622,129.394,0,0,0,
,0.145,0.173,0.897,474.609,-537.476,127.014,0,0,0,
,0.146,0.33,1.139,540.344,-383.912,124.939,0,0,0,
,0.17,0.082,0.975,360.595,-409.607,152.465,0,0,0,
,0.081,0.183,0.994,242.859,-445.679,152.771,0,0,0,
,0.079,0.114,0.962,214.233,-491.272,163.635,0,0,0,
,0.079,0.158,0.88,267.883,-646.363,150.329,0,0,0,
,0.015,0.314,1.106,326.233,-445.435,171.264,0,0,0,
,0.152,0.186,0.881,284.851,-490.601,194.946,0,0,0,
,0.003,0.14,0.832,322.387,-551.819,167.175,0,0,0,
,-0.038,-0.002,1.225,290.344,-572.388,162.719,0,0,0,
,-0.011,0.064,0.96,212.707,-380.188,154.235,0,0,0,
,0.003,0.077,0.962,305.786,-495.24,184.814,0,0,0,
,-0.127,0.011,0.78,394.287,-534.363,177.673,0,0,0,
,-0.158,0.124,1.159,337.341,-400.391,128.784,0,0,0,
,-0.024,0.081,1.073,267.273,-388.245,195.007,0,0,0,
,-0.128,-0.012,1.121,197.509,-379.639,190.429,0,0,0,
,-0.209,-0.034,0.955,124.572,-384.949,189.27,0,0,0,
,-0.194,-0.03,1.182,128.479,-315.979,140.38,0,0,0,
,-0.131,0.119,1.047,107.238,-301.514,165.893,0,0,0,
,-0.193,0.018,0.997,99.121,-287.72,146.484,0,0,0,
,-0.221,-0.008,0.779,70.556,-282.532,138.061,0,0,0,
,-0.223,-0.086,1.006,19.104,-196.106,77.941,0,0,0,
,-0.185,0.058,0.977,-232.789,-120.972,62.866,0,0,0,
,-0.245,0.056,0.944,-111.634,-140.564,48.767,0,0,0,
,-0.235,0.178,1.219,13.427,-106.507,-0.794,0,0,0,
,-0.206,0.215,1.274,68.42,-102.723,42.053,0,0,0,
,-0.2,0.134,1.265,209.716,-102.845,61.096,0,0,0,
,-0.278,0.068,1.172,284.668,-68.604,62.561,0,0,0,
,-0.326,-0.095,1.096,156.921,-29.847,86.303,0,0,0,
,-0.272,-0.037,1.085,69.519,10.253,71.777,0,0,0,
,-0.232,-0.047,1.084,5.493,36.193,44.921,0,0,0,
,-0.198,0.088,1.046,36.193,57.983,28.32,0,0,0,
,-0.15,0.083,1.051,113.891,67.443,13,0,0,0,
,-0.147,0.123,1.023,139.709,95.581,12.39,0,0,0,
,-0.146,0.129,1.019,175.232,139.648,10.437,0,0,0,
,-0.137,0.128,1.044,182.739,207.397,-10.865,0,0,0,
,-0.143,0.108,1.089,32.714,389.831,-70.862,0,0,0,
,-0.164,0.133,1.129,-30.274,479.797,-121.094,0,0,0,
,-0.156,0.095,1.148,-63.66,602.234,-169.678,0,0,0,
,-0.012,0.067,1.212,-14.283,661.56,-284.18,0,0,0,
,-0.065,0.053,1.066,-37.476,677.612,-161.988,0,0,0,
,-0.085,0.138,1.097,64.27,658.691,-252.442,0,0,0,
,-0.112,0.085,1.109,247.985,758.545,-310.669,0,0,0,
,-0.066,0.039,1.103,238.342,805.175,-337.708,0,0,0,
,-0.015,-0.063,1.134,126.77,844.909,-379.639,0,0,0,
,0.033,-0.41,0.975,-49.012,857.116,-331.91,0,0,0,
,0.117,-0.205,0.87,-10.315,574.646,-207.886,0,0,0,
,0.02,-0.155,0.864,138.855,520.813,-131.287,0,0,0,
,-0.087,-0.259,0.764,86.853,538.574,-51.575,0,0,0,
,-0.06,-0.308,0.773,-270.752,574.34,81.909,0,0,0,
,0.048,-0.188,0.833,-731.263,536.743,143.737,0,0,0,
,0.095,-0.138,0.889,-1004.7,481.018,117.859,0,0,0,
,0.117,-0.025,0.934,-1068.116,395.385,87.341,0,0,0,
,0.127,0.012,0.919,-1011.292,371.704,55.236,0,0,0,
,0.092,-0.04,0.838,-1045.838,423.523,17.517,0,0,0,
,0.175,0.016,0.767,-1193.116,370.361,-14.954,0,0,0,
,0.147,0.077,0.776,-1274.415,370.544,-50.11,0,0,0,
,0.198,0.156,0.773,-1402.344,388.244,-85.938,0,0,0,
,0.275,0.309,0.821,-1544.373,304.504,-139.405,0,0,0,
,0.268,0.423,0.943,-1410.218,248.596,-175.782,0,0,0,
,0.232,0.484,0.946,-1047.608,284.362,-255.494,0,0,0,
,0.278,0.47,0.942,-694.336,365.112,-221.07,0,0,0,
,0.344,0.411,0.885,-527.222,283.752,-214.112,0,0,0,
,0.352,0.419,0.856,-557.74,181.091,-204.834,0,0,0,
,0.35,0.459,0.826,-620.24,48.523,-198.975,0,0,0,
,0.327,0.478,0.846,-645.813,-62.806,-181.641,0,0,0,
,0.317,0.501,0.936,-548.279,-97.29,-162.842,0,0,0,
,0.314,0.512,0.905,-385.071,-54.932,-150.025,0,0,0,
,0.351,0.53,0.841,-270.447,-38.514,-124.451,0,0,0,
,0.337,0.514,0.787,-190.735,-38.269,-103.455,0,0,0,
,0.357,0.452,0.74,-160.462,-42.176,-89.051,0,0,0,
,0.341,0.477,0.72,-159.241,-76.539,-88.074,0,0,0,
,0.383,0.457,0.709,-112.61,-64.942,-88.257,0,0,0,
,0.398,0.453,0.644,-182.618,-29.602,-96.436,0,0,0,
,0.482,0.558,0.719,-153.992,-26.49,-128.663,0,0,0,
,0.414,0.473,0.745,-82.398,5.065,-145.081,0,0,0,
,0.409,0.501,0.756,-67.994,0.549,-149.17,0,0,0,
,0.378,0.48,0.784,-18.494,10.009,-163.758,0,0,0,
,0.375,0.447,0.818,1.953,18.554,-174.195,0,0,0,
,0.365,0.416,0.764,-76.966,24.902,-166.016,0,0,0,
,0.382,0.481,0.719,-151.856,28.259,-167.298,0,0,0,
,0.412,0.503,0.68,-179.688,44.311,-163.514,0,0,0,
,0.408,0.549,0.675,-188.172,58.532,-156.983,0,0,0,
,0.407,0.534,0.668,-157.105,57.739,-146.973,0,0,0,
,0.411,0.568,0.666,-76.477,29.907,-138.733,0,0,0,
,0.381,0.544,0.671,37.353,25.512,-115.113,0,0,0,
,0.457,0.444,0.733,237.793,-166.871,-93.384,0,0,0,
,0.197,0.448,0.848,537.353,-283.448,-147.461,0,0,0,
,0.376,0.268,0.737,64.148,-49.378,-59.449,0,0,0,
,0.411,0.65,0.761,-317.688,-170.899,-63.233,0,0,0,
,0.338,0.585,0.774,48.584,-145.997,-25.696,0,0,0,
,0.337,0.462,0.754,188.781,-171.082,-25.208,0,0,0,
,0.259,0.593,0.942,358.459,-135.498,-16.602,0,0,0,
,0.552,0.359,0.744,162.048,-12.635,43.945,0,0,0,
,0.325,0.633,0.78,183.96,-280.274,22.827,0,0,0,
,0.289,0.387,0.568,419.494,-386.353,66.772,0,0,0,
,0.418,0.564,0.841,279.48,-127.991,115.478,0,0,0,
,0.298,0.209,0.585,507.507,-220.154,112.365,0,0,0,
,0.318,0.547,0.874,524.047,-37.842,110.107,0,0,0,
,0.397,0.33,0.713,335.022,-171.509,148.376,0,0,0,
,0.231,0.431,0.801,404.541,-272.95,125.366,0,0,0,
,0.193,0.406,0.988,393.615,-232.361,125.244,0,0,0,
,0.39,0.268,0.891,111.084,-101.99,232.299,0,0,0,
,0.234,0.377,0.955,152.954,-260.132,250.549,0,0,0,
,0.24,0.319,0.854,374.45,-327.454,269.104,0,0,0,
,0.072,0.251,0.946,374.45,-386.048,273.193,0,0,0,
,0.339,0.307,1.011,364.685,-171.814,336.12,0,0,0,
,0.229,0.308,1.018,302.856,-286.377,305.725,0,0,0,
,0.11,0.185,1.034,506.408,-241.028,386.779,0,0,0,
,0.098,0.196,0.845,630.127,-396.546,384.155,0,0,0,
,0.165,0.609,0.921,662.536,-381.104,278.686,0,0,0,
,0.126,0.063,0.68,330.505,-454.041,314.514,0,0,0,
,-0.015,0.195,0.875,-85.144,-604.248,239.746,0,0,0,
,0.098,0.22,0.923,-191.712,-377.625,229.004,0,0,0,
,0.071,0.28,0.92,-225.464,-513.489,284.607,0,0,0,
,-0.077,0.283,1.011,155.883,-529.114,271.484,0,0,0,
,-0.131,0.191,1.178,391.601,-558.96,262.39,0,0,0,
,-0.061,0.26,1.246,485.046,-429.871,273.132,0,0,0,
,-0.113,0.066,1.155,397.705,-445.679,371.826,0,0,0,
,-0.162,0.247,1.265,176.513,-381.104,372.497,0,0,0,
,-0.086,0.085,1.134,-82.398,-329.285,449.096,0,0,0,
,-0.228,0.195,1.126,-159.546,-292.42,412.658,0,0,0,
,-0.256,0.235,1.081,-73.06,-264.466,441.467,0,0,0,
,-0.327,0.359,0.906,57.739,-248.169,449.463,0,0,0,
,-0.231,0.438,0.916,214.477,-223.877,415.405,0,0,0,
,-0.137,0.343,0.828,160.827,-211.792,322.815,0,0,0,
,-0.199,0.191,0.781,188.476,-141.236,257.629,0,0,0,
,-0.181,0.133,0.815,152.771,-103.211,199.829,0,0,0,
,-0.144,0.119,1.042,110.595,-42.847,123.413,0,0,0,
,-0.041,0.308,1.139,6.897,-24.598,79.528,0,0,0,
,-0.104,0.291,1.183,20.141,-18.128,31.372,0,0,0,
,-0.146,0.378,1.11,110.717,20.69,-0.611,0,0,0,
,-0.171,0.435,1.002,321.716,215.21,-130.616,0,0,0,
,-0.178,0.382,1.062,146.606,348.144,-225.769,0,0,0,
,-0.209,0.325,1.041,54.565,504.089,-285.401,0,0,0,
,-0.165,0.435,1.011,191.467,541.992,-339.661,0,0,0,
,-0.122,0.408,1,491.027,507.141,-428.528,0,0,0,
,-0.084,0.431,1.064,831.298,436.035,-553.589,0,0,0,
,-0.19,0.224,1.123,1123.047,613.22,-654.786,0,0,0,
,0.04,-0.107,1.115,1128.357,619.751,-624.207,0,0,0,
,0.054,-0.263,1.084,937.011,566.406,-397.95,0,0,0,
,-0.09,-0.242,1.088,807.006,594.665,-298.768,0,0,0,
,-0.098,-0.44,0.993,646.24,717.102,-178.894,0,0,0,
,-0.041,-0.546,0.937,359.253,736.633,-113.221,0,0,0,
,-0.019,-0.307,0.983,-539.978,675.598,-61.402,0,0,0,
,-0.014,-0.296,1.012,-772.522,724.731,-54.078,0,0,0,
,0.055,-0.146,1.037,-891.663,676.147,-75.684,0,0,0,
,0.079,-0.156,1.026,-997.742,666.626,-84.595,0,0,0,
,0.147,-0.112,0.995,-1250.611,614.441,-63.172,0,0,0,
,0.132,-0.035,0.989,-1563.477,585.388,-45.166,0,0,0,
,0.187,0.109,0.958,-1852.845,552.734,10.742,0,0,0,
,0.242,0.266,0.908,-1963.624,446.838,33.691,0,0,0,
,0.219,0.264,0.767,-1989.38,406.433,7.751,0,0,0,
,0.194,0.266,0.682,-2000,355.713,-23.133,0,0,0,
,0.206,0.385,0.694,-2000,335.693,-63.355,0,0,0,
,0.211,0.593,0.669,-2000,326.843,-157.654,0,0,0,
,0.175,0.644,0.639,-1668.824,273.498,-229.126,0,0,0,
,0.257,0.548,0.631,-1179.993,286.56,-266.907,0,0,0,
,0.239,0.597,0.681,-893.982,240.112,-275.879,0,0,0,
,0.334,0.539,0.644,-743.897,163.635,-232.361,0,0,0,
,0.408,0.498,0.586,-751.587,-18.799,-264.71,0,0,0,
,0.413,0.521,0.629,-722.474,-161.194,-267.579,0,0,0,
,0.409,0.524,0.729,-578.186,-195.862,-304.017,0,0,0,
,0.469,0.621,0.628,-463.685,-191.04,-305.359,0,0,0,
,0.502,0.593,0.552,-388.55,-184.876,-290.101,0,0,0,
,0.511,0.654,0.515,-281.556,-173.951,-283.326,0,0,0,
,0.513,0.644,0.546,-148.072,-150.757,-269.288,0,0,0,
,0.525,0.681,0.588,-88.074,-120.972,-217.53,0,0,0,
,0.486,0.655,0.614,-39.002,-66.407,-163.514,0,0,0,
,0.504,0.637,0.534,12.634,-51.941,-105.225,0,0,0,
,0.51,0.643,0.516,51.452,-42.847,-88.501,0,0,0,
,0.495,0.591,0.558,40.71,-33.265,-73.243,0,0,0,
,0.507,0.682,0.626,69.702,-14.344,-52.063,0,0,0,
,0.48,0.646,0.639,107.116,-23.194,-22.339,0,0,0,
,0.465,0.502,0.613,159.79,-169.983,-8.851,0,0,0,
,0.336,0.521,0.551,215.271,-203.492,-37.964,0,0,0,
,0.331,0.434,0.552,-3.052,-208.619,-107.422,0,0,0,
,0.171,0.753,0.628,41.32,-156.861,-155.945,0,0,0,
,0.498,0.63,0.562,-305.237,-39.795,-113.221,0,0,0,
,0.409,0.801,0.595,-119.69,-18.067,-72.937,0,0,0,
,0.472,0.842,0.558,187.317,-5.005,28.503,0,0,0,
,0.435,0.637,0.553,446.35,12.023,102.722,0,0,0,
,0.555,0.548,0.553,576.66,73.547,146.118,0,0,0,
,0.243,0.585,0.778,511.779,65.551,104.248,0,0,0,
,0.393,0.616,0.761,942.443,47.607,171.386,0,0,0,
,0.346,0.42,0.741,1037.414,12.023,180.359,0,0,0,
,0.31,0.465,0.825,1142.334,-125.672,139.099,0,0,0,
,0.625,0.337,0.593,655.822,65.49,229.98,0,0,0,
,0.37,0.463,0.751,483.154,-255.433,83.313,0,0,0,
,0.297,0.448,0.736,688.415,-327.576,122.863,0,0,0,
,0.429,0.513,0.823,461.547,-70.496,161.01,0,0,0,
,0.361,0.336,1.017,445.984,-128.479,127.38,0,0,0,
,0.286,0.407,0.883,500.549,-130.066,192.199,0,0,0,
,0.329,0.392,0.731,660.644,-266.419,208.984,0,0,0,
,0.059,0.567,0.948,765.319,-219.483,255.737,0,0,0,
,0.445,0.403,0.768,704.834,-194.336,259.521,0,0,0,
,0.233,0.436,0.829,477.722,-462.464,235.717,0,0,0,
,0.133,0.391,0.807,551.88,-519.043,268.615,0,0,0,
,0.235,0.435,0.942,395.263,-303.894,307.006,0,0,0,
,0.25,0.208,0.796,276.672,-352.295,340.942,0,0,0,
,0.067,0.399,0.872,387.146,-438.477,272.644,0,0,0,
,0.08,0.27,0.929,490.234,-488.892,285.461,0,0,0,
,0.156,0.404,1.073,389.099,-349.732,295.288,0,0,0,
,0.21,0.283,0.866,312.561,-386.963,304.504,0,0,0,
,0.078,0.213,0.892,295.044,-447.937,268.615,0,0,0,
,0.029,0.158,0.902,277.771,-493.714,301.696,0,0,0,
,-0.023,0.274,1.082,204.101,-445.557,324.279,0,0,0,
,0.105,0.239,0.933,204.406,-373.047,276.428,0,0,0,
,0.014,0.165,0.916,157.531,-425.171,260.254,0,0,0,
,-0.063,0.246,0.829,75.622,-444.825,272.888,0,0,0,
,-0.086,0.282,1.063,-8.545,-360.169,286.926,0,0,0,
,-0.013,0.188,1,-59.449,-302.491,276.855,0,0,0,
,-0.056,0.257,0.953,-43.457,-322.083,241.882,0,0,0,
,-0.099,0.203,0.9,6.286,-353.516,238.647,0,0,0,
,-0.061,0.172,1.102,47.241,-293.946,167.602,0,0,0,
,-0.042,0.296,1.074,43.396,-304.932,239.502,0,0,0,
,-0.074,0.239,1.065,69.885,-308.533,252.99,0,0,0,
,-0.139,0.255,0.995,142.944,-321.778,269.531,0,0,0,
,-0.181,0.186,1.016,171.447,-293.03,270.263,0,0,0,
,-0.111,0.223,1.068,152.099,-239.563,192.505,0,0,0,
,-0.118,0.346,1.037,63.293,-217.225,198.059,0,0,0,
,-0.155,0.227,1.026,136.84,-188.904,197.57,0,0,0,
,-0.16,0.223,1.051,176.941,-146.851,180.603,0,0,0,
,-0.166,0.206,1.025,194.641,-110.901,162.231,0,0,0,
,-0.189,0.18,1.013,153.93,-77.942,127.075,0,0,0,
,-0.189,0.188,0.998,74.951,-44.434,83.374,0,0,0,
,-0.187,0.203,1.005,40.222,-11.902,32.653,0,0,0,
,-0.193,0.2,1.002,91.674,6.713,19.653,0,0,0,
,-0.19,0.2,1.049,95.031,60.18,-22.095,0,0,0,
,-0.163,0.261,1.072,63.781,98.083,-55.054,0,0,0,
,-0.156,0.199,1.117,39.306,137.573,-77.21,0,0,0,
,-0.118,0.275,1.127,51.879,158.996,-109.253,0,0,0,
,-0.147,0.266,1.136,133.056,172.729,-103.577,0,0,0,
,-0.089,0.317,1.145,179.992,218.75,-186.158,0,0,0,
,-0.083,0.413,1.215,285.095,276.123,-247.559,0,0,0,
,-0.076,0.405,1.204,347.351,355.896,-262.146,0,0,0,
,-0.09,0.299,1.185,376.77,454.406,-270.508,0,0,0,
,-0.092,0.251,1.093,411.438,556.701,-271.729,0,0,0,
,-0.084,0.222,1.029,453.491,611.45,-302.857,0,0,0,
,-0.079,0.158,1.039,511.901,639.282,-352.906,0,0,0,
,-0.108,0.099,1.054,529.358,735.229,-392.64,0,0,0,
,-0.093,-0.03,1.022,428.161,802.429,-464.173,0,0,0,
,0,-0.256,1.017,224.365,775.39,-472.474,0,0,0,
,0.031,-0.141,1.054,80.444,738.037,-401.978,0,0,0,
,0.002,-0.066,1.077,121.582,741.882,-385.498,0,0,0,
,0.024,-0.153,1.022,110.046,792.48,-311.829,0,0,0,
,0.003,-0.131,0.958,35.705,803.894,-266.114,0,0,0,
,0.025,-0.274,0.855,-221.863,798.523,-190.247,0,0,0,
,0.031,-0.343,0.877,-637.635,795.532,-150.452,0,0,0,
,0.098,-0.191,0.955,-984.681,742.126,-101.868,0,0,0,
,0.107,-0.109,0.965,-1254.334,780.334,-44.861,0,0,0,
,0.089,-0.189,0.867,-1765.137,874.633,25.146,0,0,0,
,0.171,-0.101,0.721,-2000,857.422,93.505,0,0,0,
,0.235,0.11,0.594,-2000,783.203,126.526,0,0,0,
,0.295,0.447,0.474,-2000,607.727,82.519,0,0,0,
,0.364,0.746,0.475,-2000,364.929,-28.138,0,0,0,
,0.392,0.862,0.559,-1903.077,148.315,-129.212,0,0,0,
,0.404,0.759,0.667,-1400.391,7.202,-200.623,0,0,0,
,0.36,0.583,0.727,-1177.857,-48.34,-204.773,0,0,0,
,0.411,0.629,0.736,-1130.738,-91.065,-157.837,0,0,0,
,0.381,0.624,0.734,-1032.41,-151.429,-138.184,0,0,0,
,0.39,0.621,0.718,-850.769,-135.682,-154.847,0,0,0,
,0.36,0.572,0.632,-767.823,-113.465,-128.418,0,0,0,
,0.404,0.611,0.514,-662.476,-88.99,-117.554,0,0,0,
,0.423,0.597,0.526,-521.485,-105.896,-105.286,0,0,0,
,0.429,0.594,0.461,-395.691,-9.827,-113.465,0,0,0,
,0.486,0.648,0.44,-263.306,85.388,-149.598,0,0,0,
,0.512,0.679,0.418,-259.705,187.072,-198.304,0,0,0,
,0.58,0.691,0.351,-131.653,163.757,-219.361,0,0,0,
,0.602,0.63,0.41,-32.227,86.731,-273.194,0,0,0,
,0.625,0.657,0.417,-118.348,9.704,-257.264,0,0,0,
,0.579,0.631,0.433,-172.486,-23.987,-246.521,0,0,0,
,0.556,0.697,0.452,-187.684,-43.885,-209.595,0,0,0,
,0.552,0.739,0.475,-155.762,-17.945,-193.909,0,0,0,
,0.511,0.749,0.456,-119.385,-12.391,-164.856,0,0,0,
,0.497,0.786,0.413,-45.472,-32.105,-153.992,0,0,0,
,0.482,0.825,0.384,52.49,-43.702,-123.78,0,0,0,
,0.418,0.741,0.443,149.414,-84.229,-88.257,0,0,0,
,0.387,0.619,0.488,46.814,-89.844,-66.895,0,0,0,
,0.455,0.68,0.552,-133.851,-143.372,-84.961,0,0,0,
,0.477,0.748,0.58,-101.624,-113.038,-78.98,0,0,0,
,0.444,0.63,0.518,-76.844,-126.404,-36.011,0,0,0,
,0.472,0.721,0.44,-25.696,-68.238,-31.128,0,0,0,
,0.445,0.691,0.417,48.645,-71.595,-41.748,0,0,0,
,0.417,0.637,0.314,99.914,-85.633,-62.439,0,0,0,
,0.367,0.708,0.431,200.988,-8.301,-93.873,0,0,0,
,0.502,0.744,0.391,262.878,-11.231,-72.876,0,0,0,
,0.422,0.689,0.456,586.303,19.531,-39.124,0,0,0,
,0.333,0.651,0.508,749.145,27.282,-44.739,0,0,0,
,0.675,0.639,0.484,810.791,103.942,6.774,0,0,0,
,0.515,0.722,0.661,1030.639,-73.182,34.606,0,0,0,
,0.528,0.351,0.596,1114.318,-216.614,80.81,0,0,0,
,0.701,0.614,0.789,780.395,-48.157,126.281,0,0,0,
,0.486,0.582,0.865,823.364,-130.066,163.391,0,0,0,
,0.475,0.462,0.685,962.036,-93.262,181.274,0,0,0,
,0.389,0.277,0.544,824.401,-145.935,146.667,0,0,0,
,0.352,0.356,0.612,677.002,-233.582,65.002,0,0,0,
,0.517,0.406,0.526,439.392,-100.708,89.294,0,0,0,
,0.367,0.477,0.708,368.652,-287.964,24.475,0,0,0,
,0.425,0.559,0.671,392.944,-180.603,29.663,0,0,0,
,0.429,0.499,0.739,311.889,-246.705,74.768,0,0,0,
,0.336,0.536,0.688,500.305,-304.505,116.76,0,0,0,
,0.219,0.658,1.018,730.651,-267.823,153.564,0,0,0,
,0.507,0.393,0.683,419.616,-274.476,215.21,0,0,0,
,0.126,0.416,0.818,504.699,-352.417,206.054,0,0,0,
,0.315,0.379,0.873,679.382,-441.712,228.21,0,0,0,
,0.316,0.199,0.937,516.357,-162.537,335.632,0,0,0,
,0.36,0.418,0.958,525.634,-343.384,361.267,0,0,0,
,0.22,0.216,0.933,494.018,-391.358,349.06,0,0,0,
,0.227,0.252,0.797,467.834,-502.076,341.919,0,0,0,
,0.163,0.504,1.043,605.59,-414.612,350.341,0,0,0,
,0.325,0.162,0.88,530.761,-353.699,313.659,0,0,0,
,0.159,0.012,0.982,465.332,-395.874,241.882,0,0,0,
,0.183,0.189,0.961,255.92,-391.602,245.849,0,0,0,
,0.115,0.175,0.873,339.538,-420.899,235.412,0,0,0,
,0.06,0.462,1.038,591.064,-447.205,217.529,0,0,0,
,0.184,0.202,0.906,511.413,-386.292,202.026,0,0,0,
,0.061,0.17,0.898,414.734,-436.768,168.09,0,0,0,
,0.032,0.277,1.129,377.502,-370.362,182.678,0,0,0,
,0.13,0.074,1.112,70.373,-273.804,219.482,0,0,0,
,0.029,0.266,1.195,70.678,-299.134,197.754,0,0,0,
,0.011,0.165,1.183,242.859,-295.105,213.867,0,0,0,
,-0.004,0.094,1.105,315.307,-316.102,239.685,0,0,0,
,-0.061,0.05,1.009,400.573,-346.68,234.253,0,0,0,
,-0.117,0.097,0.745,461.609,-374.756,194.824,0,0,0,
,-0.113,0.127,0.999,381.164,-316.773,139.16,0,0,0,
,-0.044,0.099,0.905,64.697,-252.32,134.155,0,0,0,
,-0.073,0.142,0.948,0.427,-229.554,104.858,0,0,0,
,-0.111,0.082,0.934,184.387,-261.414,106.933,0,0,0,
,-0.085,0.108,1.131,327.331,-226.624,78.064,0,0,0,
,-0.062,0.041,1.144,367.981,-249.573,120.971,0,0,0,
,-0.104,-0.052,1.16,355.041,-265.076,89.66,0,0,0,
,-0.139,-0.09,1.073,278.808,-255.494,88.684,0,0,0,
,-0.168,-0.128,0.999,218.2,-252.015,102.661,0,0,0,
,-0.196,-0.041,1.007,204.712,-228.15,120.666,0,0,0,
,-0.073,0.095,1.031,261.474,-245.301,119.018,0,0,0,
,-0.102,-0.084,1.006,180.908,-235.596,147.644,0,0,0,
,-0.128,-0.051,0.992,105.224,-216.004,202.575,0,0,0,
,-0.214,-0.157,0.966,104.492,-189.515,207.763,0,0,0,
,-0.19,-0.114,0.997,141.906,-186.524,195.312,0,0,0,
,-0.077,-0.015,1.071,195.373,-231.385,192.627,0,0,0,
,-0.109,-0.09,1.077,153.381,-245.118,225.586,0,0,0,
,-0.155,-0.113,1.017,94.543,-259.644,269.043,0,0,0,
,-0.173,-0.096,0.994,86.303,-255.188,285.705,0,0,0,
,-0.211,-0.074,0.969,141.845,-257.569,283.264,0,0,0,
,-0.219,-0.059,0.98,202.819,-243.287,245.178,0,0,0,
,-0.23,-0.078,1.029,241.272,-188.111,196.045,0,0,0,
,-0.22,-0.058,1.159,177.002,-119.69,132.568,0,0,0,
,-0.21,0.125,1.294,177.917,-63.05,84.533,0,0,0,
,-0.269,0.063,1.28,275.024,35.827,20.568,0,0,0,
,-0.287,0.145,1.322,427.734,164.856,-29.725,0,0,0,
,-0.264,0.119,1.309,512.939,320.19,-111.939,0,0,0,
,-0.249,0.039,1.28,476.684,490.295,-174.195,0,0,0,
,-0.219,-0.026,1.257,324.218,682.067,-274.476,0,0,0,
,-0.165,-0.127,1.207,117.004,817.199,-388.733,0,0,0,
,-0.127,-0.146,1.189,-25.757,887.573,-446.778,0,0,0,
,-0.064,-0.201,1.168,-71.595,895.385,-472.84,0,0,0,
,-0.095,-0.337,1.154,-128.235,950.195,-450.44,0,0,0,
,-0.112,-0.292,1.021,-141.785,984.436,-388.611,0,0,0,
,-0.106,-0.229,0.967,-134.217,1050.048,-359.62,0,0,0,
,-0.093,-0.217,0.939,-256.47,1110.534,-346.192,0,0,0,
,-0.111,-0.18,0.948,-505.86,1228.82,-346.68,0,0,0,
,-0.119,-0.156,0.979,-691.346,1293.823,-357.789,0,0,0,
,-0.078,-0.214,1.017,-815.43,1390.014,-379.7,0,0,0,
,0.038,-0.34,0.938,-1041.199,1426.147,-305.848,0,0,0,
,0.24,-0.247,0.702,-1062.745,1127.441,-82.093,0,0,0,
,0.246,-0.053,0.629,-952.088,866.699,-15.198,0,0,0,
,0.128,0.005,0.564,-827.82,742.126,9.765,0,0,0,
,0.153,0.017,0.61,-827.82,642.883,0.732,0,0,0,
,0.233,0.002,0.687,-955.14,530.395,24.78,0,0,0,
,0.279,-0.055,0.799,-1145.936,435.974,36.743,0,0,0,
,0.303,-0.012,0.788,-1405.945,365.783,79.895,0,0,0,
,0.407,0.163,0.786,-1448.548,257.446,27.771,0,0,0,
,0.479,0.267,0.792,-1197.632,137.451,-38.636,0,0,0,
,0.462,0.222,0.838,-802.735,41.565,-157.654,0,0,0,
,0.415,0.177,0.838,-596.192,28.198,-115.357,0,0,0,
,0.457,0.163,0.861,-653.382,53.222,-112.183,0,0,0,
,0.47,0.176,0.902,-920.533,33.996,-91.858,0,0,0,
,0.468,0.227,0.896,-1163.453,2.258,-77.82,0,0,0,
,0.444,0.391,0.799,-1318.238,7.446,-70.069,0,0,0,
,0.495,0.503,0.641,-1366.578,19.348,-67.505,0,0,0,
,0.527,0.64,0.586,-1225.22,-78.553,-92.713,0,0,0,
,0.464,0.628,0.628,-931.519,-102.845,-126.038,0,0,0,
,0.483,0.701,0.646,-602.662,-124.39,-157.349,0,0,0,
,0.453,0.581,0.673,-401.246,-130.921,-166.016,0,0,0,
,0.446,0.536,0.651,-450.44,-70.191,-152.649,0,0,0,
,0.477,0.613,0.662,-533.143,-49.256,-160.035,0,0,0,
,0.495,0.614,0.635,-549.134,-18.128,-171.448,0,0,0,
,0.469,0.586,0.588,-606.385,-7.019,-182.618,0,0,0,
,0.467,0.63,0.546,-567.261,-32.837,-178.894,0,0,0,
,0.437,0.637,0.489,-420.655,-68.177,-172.242,0,0,0,
,0.394,0.58,0.53,-144.043,-105.164,-152.649,0,0,0,
,0.406,0.532,0.582,13.061,-64.881,-133.423,0,0,0,
,0.452,0.579,0.574,108.398,-16.114,-118.409,0,0,0,
,0.533,0.621,0.541,222.717,21.545,-109.253,0,0,0,
,0.597,0.674,0.536,341.98,37.78,-108.521,0,0,0,
,0.591,0.583,0.597,439.88,52.124,-58.655,0,0,0,
,0.551,0.497,0.646,413.086,52.429,-23.499,0,0,0,
,0.506,0.449,0.713,399.902,17.761,-15.259,0,0,0,
,0.481,0.389,0.75,312.866,-1.099,-12.146,0,0,0,
,0.492,0.505,0.751,261.047,-66.163,-19.349,0,0,0,
,0.514,0.5,0.691,309.814,-80.262,9.216,0,0,0,
,0.383,0.45,0.608,250.488,-151.307,0.671,0,0,0,
,0.424,0.499,0.503,139.587,-95.581,9.094,0,0,0,
,0.343,0.503,0.513,-8.789,-124.024,-17.456,0,0,0,
,0.296,0.51,0.491,110.778,-113.099,-37.415,0,0,0,
,0.212,0.424,0.575,355.835,-216.248,-78.003,0,0,0,
,0.522,0.416,0.503,40.344,18.493,6.774,0,0,0,
,0.395,0.587,0.66,-20.386,-79.834,-37.049,0,0,0,
,0.418,0.565,0.698,376.831,-124.085,-9.4,0,0,0,
,0.304,0.586,0.947,685.424,-208.802,-3.846,0,0,0,
,0.69,0.465,0.847,475.463,-18.555,70.617,0,0,0,
,0.514,0.54,0.881,556.579,-224.122,76.782,0,0,0,
,0.425,0.355,0.843,785.217,-299.622,134.216,0,0,0,
,0.45,0.496,0.964,658.63,-231.446,157.409,0,0,0,
,0.446,0.169,0.875,296.508,-183.228,204.101,0,0,0,
,0.35,0.394,0.86,386.169,-251.648,207.458,0,0,0,
,0.35,0.297,0.766,564.819,-341.614,226.44,0,0,0,
,0.425,0.429,0.929,762.512,-299.317,306.884,0,0,0,
,0.399,0.107,0.768,643.615,-333.069,296.569,0,0,0,
,0.325,0.339,0.8,503.967,-418.702,252.38,0,0,0,
,0.263,0.231,0.944,578.186,-476.624,280.7,0,0,0,
,0.268,0.283,1.038,461.67,-244.873,341.674,0,0,0,
,0.31,0.142,0.934,281.921,-300.049,414.795,0,0,0,
,0.188,0.342,0.972,426.574,-431.824,376.037,0,0,0,
,0.204,0.23,0.918,621.826,-594.544,405.151,0,0,0,
,0.152,0.376,1.037,603.576,-440.003,359.13,0,0,0,
,0.214,0.148,0.825,375.671,-477.601,412.841,0,0,0,
,0.058,0.23,0.874,237.487,-557.129,396.545,0,0,0,
,0.054,0.19,0.859,315.979,-573.548,414.672,0,0,0,
,-0.025,0.16,0.971,421.875,-686.768,399.841,0,0,0,
,0.003,0.326,1.001,575.439,-505.433,297.119,0,0,0,
,0.002,0.097,0.956,480.041,-538.392,311.828,0,0,0,
,-0.081,0.176,0.995,328.491,-536.499,306.03,0,0,0,
,-0.132,-0.048,0.996,273.864,-555.542,311.523,0,0,0,
,-0.115,0.157,1.187,172.973,-414.856,160.888,0,0,0,
,-0.2,0.166,1.034,139.221,-416.81,182.739,0,0,0,
,-0.226,0.018,0.906,160.522,-412.903,182.129,0,0,0,
,-0.153,0.1,1.097,12.573,-296.021,83.862,0,0,0,
,-0.109,0.063,1.036,-173.706,-297.913,169.555,0,0,0,
,-0.173,0.08,1.029,-264.954,-325.135,223.999,0,0,0,
,-0.221,0.044,1.037,-229.554,-377.991,284.912,0,0,0,
,-0.144,0.101,1.107,108.032,-340.394,245.239,0,0,0,
,-0.206,0.064,1.122,229.431,-334.778,251.098,0,0,0,
,-0.248,0.12,1.06,294.372,-341.675,272.277,0,0,0,
,-0.277,-0.017,0.955,261.23,-366.028,276.306,0,0,0,
,-0.166,0.164,1.139,198.059,-283.143,130.188,0,0,0,
,-0.213,0.155,1.015,79.406,-219.971,120.117,0,0,0,
,-0.237,0.171,1.01,82.58,-161.927,118.042,0,0,0,
,-0.227,0.138,1.09,122.253,-95.032,75.439,0,0,0,
,-0.233,0.142,1.142,148.193,-26.123,41.503,0,0,0,
,-0.219,0.141,1.187,153.808,48.461,11.291,0,0,0,
,-0.211,0.159,1.186,180.42,126.953,-23.804,0,0,0,
,-0.198,0.153,1.208,185.119,215.576,-55.42,0,0,0,
,-0.187,0.177,1.237,116.211,329.956,-90.21,0,0,0,
,-0.175,0.21,1.213,30.029,441.772,-114.502,0,0,0,
,-0.14,0.258,1.191,-45.594,521.606,-158.936,0,0,0,
,-0.162,0.293,1.153,-80.445,600.341,-213.562,0,0,0,
,-0.114,0.323,1.127,-151.978,630.493,-355.713,0,0,0,
,-0.189,0.169,1.158,-173.645,688.72,-431.092,0,0,0,
,-0.202,0.027,1.11,-206.727,749.328,-476.99,0,0,0,
,-0.084,-0.021,1.025,-240.662,727.111,-486.695,0,0,0,
,-0.103,-0.034,0.985,-263.855,657.226,-458.374,0,0,0,
,-0.166,-0.039,0.957,-300.232,667.602,-444.397,0,0,0,
,-0.097,-0.003,0.876,-441.773,695.434,-464.112,0,0,0,
,-0.089,-0.069,0.949,-573.487,716.247,-420.594,0,0,0,
,-0.028,-0.103,0.995,-698.06,764.221,-392.151,0,0,0,
,0.016,-0.016,0.972,-964.661,817.566,-389.222,0,0,0,
,0.091,0.136,0.934,-1239.441,774.78,-395.447,0,0,0,
,0.122,0.123,0.895,-1587.159,764.526,-381.104,0,0,0,
,0.133,0.183,0.858,-1942.811,731.14,-420.227,0,0,0,
,0.156,0.421,0.851,-2000,720.398,-467.469,0,0,0,
,0.203,0.405,0.774,-2000,625,-462.83,0,0,0,
,0.179,0.47,0.625,-2000,424.255,-498.536,0,0,0,
,0.168,0.705,0.618,-1988.038,298.706,-503.418,0,0,0,
,0.143,0.711,0.645,-1453.675,277.343,-483.033,0,0,0,
,0.139,0.598,0.671,-1006.897,278.686,-421.021,0,0,0,
,0.166,0.606,0.676,-682.068,286.071,-353.15,0,0,0,
,0.229,0.629,0.657,-482.3,230.407,-250.367,0,0,0,
,0.236,0.6,0.596,-381.531,230.102,-208.619,0,0,0,
,0.294,0.593,0.53,-384.339,137.024,-207.215,0,0,0,
,0.333,0.533,0.572,-362.915,46.386,-206.971,0,0,0,
,0.356,0.622,0.603,-357.85,-57.435,-211.976,0,0,0,
,0.367,0.653,0.656,-246.521,-92.102,-177.491,0,0,0,
,0.397,0.652,0.693,-123.536,-106.141,-123.169,0,0,0,
,0.441,0.615,0.644,-112.549,-87.159,-83.985,0,0,0,
,0.486,0.647,0.575,-157.898,-90.21,-79.346,0,0,0,
,0.527,0.627,0.532,-210.267,-96.192,-125.855,0,0,0,
,0.552,0.606,0.565,-206.116,-110.352,-159.913,0,0,0,
,0.549,0.557,0.572,-175.415,-109.559,-197.205,0,0,0,
,0.542,0.551,0.597,-120.24,-97.474,-223.816,0,0,0,
,0.488,0.542,0.642,-92.591,-87.281,-264.649,0,0,0,
,0.456,0.579,0.623,-120.24,-78.431,-280.579,0,0,0,
,0.448,0.617,0.47,-198.609,-30.518,-287.415,0,0,0,
,0.481,0.729,0.497,-133.789,-12.696,-237.793,0,0,0,
,0.5,0.79,0.459,-67.017,41.32,-197.083,0,0,0,
,0.532,0.857,0.428,48.461,60.424,-115.723,0,0,0,
,0.51,0.816,0.501,215.942,-46.509,-69.886,0,0,0,
,0.407,0.605,0.584,254.638,-22.828,-27.771,0,0,0,
,0.439,0.647,0.578,157.959,-54.444,-31.189,0,0,0,
,0.319,0.651,0.606,175.109,-47.547,-16.358,0,0,0,
,0.453,0.63,0.529,-101.075,27.343,-9.217,0,0,0,
,0.419,0.665,0.575,86.547,8.239,40.039,0,0,0,
,0.447,0.545,0.55,122.985,32.043,70.983,0,0,0,
,0.411,0.541,0.532,298.095,-135.315,69.885,0,0,0,
,0.59,0.596,0.468,293.64,49.743,121.704,0,0,0,
,0.514,0.705,0.525,282.47,-36.805,64.697,0,0,0,
,0.445,0.563,0.551,497.985,-64.881,100.463,0,0,0,
,0.403,0.49,0.52,611.633,-142.945,89.233,0,0,0,
,0.548,0.535,0.586,426.696,145.996,165.466,0,0,0,
,0.473,0.702,0.641,377.197,76.232,163.635,0,0,0,
,0.462,0.695,0.615,617.187,63.049,214.172,0,0,0,
,0.465,0.599,0.584,730.59,-19.41,215.332,0,0,0,
,0.374,0.512,0.619,932.312,-129.761,180.908,0,0,0,
,0.308,0.757,0.764,944.397,-31.311,180.725,0,0,0,
,0.43,0.377,0.611,626.159,32.043,249.694,0,0,0,
,0.281,0.575,0.705,465.82,-115.906,263.794,0,0,0,
,0.28,0.468,0.718,550.537,-45.899,259.216,0,0,0,
,0.261,0.396,0.819,531.25,-67.444,298.706,0,0,0,
,0.308,0.549,0.71,793.762,-170.105,200.012,0,0,0,
,0.207,0.752,0.874,928.527,-301.026,160.583,0,0,0,
,0.339,0.378,0.75,823.913,-165.772,194.58,0,0,0,
,0.272,0.391,0.806,411.316,-339.783,221.862,0,0,0,
,0.186,0.451,0.809,417.114,-358.521,195.068,0,0,0,
,0.172,0.555,1.076,490.844,-275.33,205.749,0,0,0,
,0.297,0.329,0.816,544.067,-143.616,225.769,0,0,0,
,0.279,0.372,0.885,425.659,-290.039,246.338,0,0,0,
,0.246,0.315,0.893,440.307,-287.964,220.398,0,0,0,
,0.217,0.224,0.951,342.346,-263.062,221.191,0,0,0,
,0.2,0.328,0.874,346.557,-268.128,198.059,0,0,0,
,0.187,0.326,0.793,423.034,-352.662,146.606,0,0,0,
,0.142,0.397,1.105,540.344,-437.439,123.413,0,0,0,
,0.14,0.29,1.111,581.115,-176.819,135.864,0,0,0,
,0.181,0.047,0.94,108.032,-166.199,204.284,0,0,0,
,0.105,0.268,0.969,-154.358,-138.123,233.215,0,0,0,
,0.102,0.179,0.95,-107.789,-113.038,205.993,0,0,0,
,0.122,0.296,0.942,0.854,-223.328,165.344,0,0,0,
,0.073,0.234,0.931,111.694,-264.893,128.234,0,0,0,
,0.112,0.278,0.808,156.494,-366.028,118.957,0,0,0,
,-0.043,0.183,1.048,127.38,-406.067,104.858,0,0,0,
,0.055,0.298,0.869,127.99,-219.666,119.506,0,0,0,
,0.036,0.174,0.841,9.704,-296.326,142.089,0,0,0,
,-0.005,0.298,0.842,106.994,-390.442,147.705,0,0,0,
,-0.021,0.395,1.129,173.828,-249.695,143.798,0,0,0,
,0.119,0.311,1.06,244.629,-296.814,181.823,0,0,0,
,-0.022,0.226,1.056,288.696,-377.93,181.091,0,0,0,
,-0.076,0.235,0.94,338.806,-389.222,190.918,0,0,0,
,-0.143,-0.083,0.98,335.754,-388.733,198.669,0,0,0,
,-0.069,0.228,1.021,202.453,-307.557,181.457,0,0,0,
,-0.022,0.164,1.012,127.624,-309.266,215.393,0,0,0,
,-0.072,0.215,1.017,156.433,-331.543,228.332,0,0,0,
,-0.186,0.04,0.846,219.177,-349.305,238.098,0,0,0,
,-0.144,0.181,1.076,171.02,-287.659,179.565,0,0,0,
,-0.085,0.157,1.103,92.407,-259.827,247.741,0,0,0,
,-0.132,0.207,1.094,-0.672,-280.518,283.203,0,0,0,
,-0.184,0.044,1.049,35.461,-262.818,290.893,0,0,0,
,-0.275,0.01,1.02,85.571,-269.593,297.607,0,0,0,
,-0.301,0.14,0.847,181.64,-312.561,278.381,0,0,0,
,-0.127,0.242,1.066,43.762,-278.748,181.457,0,0,0,
,-0.167,0.219,0.968,-25.147,-243.714,230.224,0,0,0,
,-0.227,0.235,0.864,-14.771,-215.21,247.619,0,0,0,
,-0.219,0.056,1.023,37.414,-168.763,220.214,0,0,0,
,-0.171,0.242,1.12,43.335,-147.889,222.168,0,0,0,
,-0.164,0.221,1.124,144.592,-138.733,210.144,0,0,0,
,-0.227,0.131,1.097,179.626,-141.541,171.814,0,0,0,
,-0.241,0.09,1.071,142.456,-97.535,127.075,0,0,0,
,-0.231,0.14,1.061,125.793,-47.608,82.946,0,0,0,
,-0.231,0.184,1.1,146.301,8.3,50.354,0,0,0,
,-0.227,0.224,1.06,158.813,55.297,24.231,0,0,0,
,-0.242,0.186,1.063,168.884,102.295,-18.067,0,0,0,
,-0.245,0.169,1.073,176.269,171.203,-68.421,0,0,0,
,-0.234,0.249,1.129,120.239,255.493,-143.25,0,0,0,
,-0.205,0.342,1.202,28.869,359.13,-227.662,0,0,0,
,-0.168,0.384,1.212,-51.88,435.974,-287.232,0,0,0,
,-0.249,0.265,1.217,-111.268,622.558,-377.869,0,0,0,
,-0.233,0.234,1.124,-254.822,867.736,-465.943,0,0,0,
,-0.1,0.3,0.996,-281.739,881.652,-595.337,0,0,0,
,-0.053,0.327,1.089,-139.771,757.995,-640.259,0,0,0,
,-0.199,0.28,1.152,59.448,871.887,-727.723,0,0,0,
,-0.184,0.212,1.097,212.707,1004.943,-792.42,0,0,0,
,-0.064,-0.011,1.11,164.489,1100.463,-806.275,0,0,0,
,0.039,-0.133,1.072,70.434,1021.972,-648.987,0,0,0,
,0.019,-0.043,0.967,124.45,940.429,-530.701,0,0,0,
,0.001,0.004,0.792,233.276,892.151,-416.077,0,0,0,
,0.022,-0.143,0.737,168.396,879.76,-295.227,0,0,0,
,0.062,-0.353,0.765,-173.645,853.942,-191.285,0,0,0,
,0.116,-0.397,0.849,-733.582,792.907,-80.689,0,0,0,
,0.163,-0.316,0.847,-1446.656,733.642,-5.86,0,0,0,
,0.233,0.077,0.85,-1817.078,580.505,-11.963,0,0,0,
,0.186,0.381,0.927,-1562.317,606.811,-52.063,0,0,0,
,0.254,0.327,0.86,-1080.689,629.943,-63.782,0,0,0,
,0.253,0.264,0.723,-809.449,536.193,-51.636,0,0,0,
,0.281,0.3,0.747,-763.306,441.467,-47.974,0,0,0,
,0.282,0.218,0.768,-882.325,452.392,-19.41,0,0,0,
,0.354,0.148,0.692,-1242.859,435.058,1.22,0,0,0,
,0.434,0.379,0.669,-1459.351,315.307,-34.119,0,0,0,
,0.403,0.51,0.652,-1387.207,247.802,-31.983,0,0,0,
,0.428,0.564,0.794,-1191.712,306.579,-58.106,0,0,0,
,0.548,0.553,0.789,-980.713,273.925,-48.706,0,0,0,
,0.569,0.545,0.722,-945.008,212.768,-20.874,0,0,0,
,0.536,0.602,0.642,-952.515,123.047,-3.418,0,0,0,
,0.544,0.611,0.552,-864.014,-50.11,-5.799,0,0,0,
,0.498,0.616,0.548,-798.523,-187.684,-8.606,0,0,0,
,0.498,0.642,0.596,-618.775,-343.567,-5.799,0,0,0,
,0.411,0.534,0.632,-467.286,-299.805,-37.354,0,0,0,
,0.431,0.539,0.689,-329.224,-299.317,-63.111,0,0,0,
,0.453,0.517,0.629,-182.007,-281.25,-97.901,0,0,0,
,0.424,0.581,0.57,-129.029,-260.56,-141.053,0,0,0,
,0.424,0.554,0.468,-104.981,-195.679,-170.411,0,0,0,
,0.46,0.686,0.508,-60.486,-199.036,-169.922,0,0,0,
,0.372,0.601,0.63,7.141,-106.69,-168.641,0,0,0,
,0.427,0.669,0.667,-31.373,-78.98,-136.414,0,0,0,
,0.494,0.681,0.58,-114.685,-13.184,-103.821,0,0,0,
,0.353,0.678,0.581,-0.123,-154.297,-137.94,0,0,0,
,0.369,0.516,0.447,152.526,-112.366,-118.47,0,0,0,
,0.308,0.849,0.586,139.831,-66.04,-133.667,0,0,0,
,0.62,0.776,0.403,-98.572,21.118,-44.068,0,0,0,
,0.42,0.876,0.593,137.146,87.28,17.761,0,0,0,
,0.438,0.659,0.677,367.797,160.766,111.206,0,0,0,
,0.416,0.537,0.679,600.83,80.749,120.483,0,0,0,
,0.42,0.428,0.655,717.407,-44.129,70.678,0,0,0,
,0.329,0.594,0.777,718.078,10.192,23.498,0,0,0,
,0.639,0.383,0.583,219.909,28.991,117.981,0,0,0,
,0.407,0.681,0.698,111.023,-176.331,90.332,0,0,0,
,0.385,0.524,0.617,366.943,-94.117,146.057,0,0,0,
,0.39,0.395,0.567,505.92,-169.007,130.981,0,0,0,
,0.4,0.68,0.733,553.344,28.808,149.17,0,0,0,
,0.56,0.351,0.536,416.076,-39.002,210.998,0,0,0,
,0.302,0.576,0.691,503.906,-146.302,178.039,0,0,0,
,0.347,0.452,0.64,594.36,-80.567,206.665,0,0,0,
,0.322,0.405,0.73,519.775,-168.641,215.332,0,0,0,
,0.288,0.404,0.811,627.014,-248.414,273.315,0,0,0,
,0.459,0.625,0.788,490.661,-37.72,374.328,0,0,0,
,0.444,0.406,0.695,369.751,-157.959,413.635,0,0,0,
,0.252,0.591,0.817,457.702,-228.882,403.625,0,0,0,
,0.279,0.473,0.848,674.438,-260.254,399.109,0,0,0,
,0.25,0.245,0.862,749.206,-282.654,386.108,0,0,0,
,0.231,0.369,0.734,768.493,-408.265,364.563,0,0,0,
,0.099,0.396,0.604,1008.361,-638.001,314.636,0,0,0,
,0.286,0.6,0.939,791.442,-450.684,400.024,0,0,0,
,0.304,0.074,0.731,499.45,-435.608,405.578,0,0,0,
,0.078,0.394,0.886,384.46,-571.778,378.601,0,0,0,
,0.109,0.253,0.854,774.17,-579.163,363.647,0,0,0,
,0.028,0.256,1.057,815.979,-524.598,413.025,0,0,0,
,0.093,0.124,0.924,837.28,-423.035,406.128,0,0,0,
,0.021,0.085,0.989,716.552,-529.725,387.39,0,0,0,
,-0.038,0.141,1.023,659.24,-608.643,363.159,0,0,0,
,-0.094,0.073,1.018,623.169,-716.126,352.111,0,0,0,
,-0.122,0.279,1.196,632.263,-811.402,371.093,0,0,0,
,-0.113,0.276,1.109,757.446,-645.813,355.59,0,0,0,
,-0.114,-0.003,1.03,703.674,-671.631,423.523,0,0,0,
,-0.234,0.086,1.07,550.476,-639.71,420.532,0,0,0,
,-0.266,-0.154,1.031,411.255,-543.213,403.808,0,0,0,
,-0.298,-0.07,0.979,238.464,-587.647,361.206,0,0,0,
,-0.3,0.007,1.103,254.272,-606.873,311.889,0,0,0,
,-0.286,0.117,1.072,308.166,-439.331,249.511,0,0,0,
,-0.224,0.038,1.019,242.981,-428.65,312.622,0,0,0,
,-0.34,0.019,1.019,151.245,-381.043,313.964,0,0,0,
,-0.315,-0.132,0.995,51.452,-388.367,298.401,0,0,0,
,-0.403,-0.093,0.864,15.869,-432.435,268.127,0,0,0,
,-0.357,0.205,1.109,45.41,-321.717,144.714,0,0,0,
,-0.318,-0.025,0.94,60.974,-299.012,213.928,0,0,0,
,-0.404,0,0.985,74.096,-246.644,178.65,0,0,0,
,-0.408,-0.147,0.885,-69.031,-220.643,157.165,0,0,0,
,-0.354,0.071,1.143,-169.8,-176.331,116.577,0,0,0,
,-0.296,-0.021,1.05,-63.843,-153.016,155.639,0,0,0,
,-0.378,0,1.06,7.568,-170.777,176.086,0,0,0,
,-0.392,-0.201,0.986,50.842,-151.001,180.297,0,0,0,
,-0.416,-0.259,0.865,-60.242,-170.289,174.682,0,0,0,
,-0.308,0.018,1.131,-67.139,-138.489,54.016,0,0,0,
,-0.331,0.099,0.979,-83.069,-167.908,139.16,0,0,0,
,-0.35,-0.045,0.929,-64.026,-166.748,160.278,0,0,0,
,-0.399,-0.078,0.815,-126.709,-167.603,158.02,0,0,0,
,-0.356,-0.038,1.074,-201.6,-114.38,88.378,0,0,0,
,-0.357,0.078,1.101,-114.258,-116.211,149.353,0,0,0,
,-0.384,-0.014,1.104,-22.339,-105.835,150.94,0,0,0,
,-0.483,-0.094,1.113,50.72,-103.333,136.291,0,0,0,
,-0.444,-0.141,1.168,93.505,-52.308,130.432,0,0,0,
,-0.443,-0.064,1.193,16.784,-11.597,120.483,0,0,0,
,-0.402,0.093,1.076,-44.129,31.372,85.937,0,0,0,
,-0.396,0.075,1.045,-63.05,69.03,26.55,0,0,0,
,-0.357,0.11,1.072,-68.482,144.043,-3.602,0,0,0,
,-0.348,0.156,1.072,-98.145,222.9,-74.707,0,0,0,
,-0.359,0.165,1.091,-92.652,311.95,-154.725,0,0,0,
,-0.328,0.256,1.184,-51.453,423.034,-316.407,0,0,0,
,-0.294,0.442,1.211,62.377,469.787,-403.199,0,0,0,
,-0.32,0.4,1.182,108.032,605.285,-552.002,0,0,0,
,-0.337,0.255,1.155,87.707,715.393,-644.043,0,0,0,
,-0.337,0.196,1.145,131.53,802.49,-697.51,0,0,0,
,-0.386,0.076,1.053,207.58,920.532,-757.019,0,0,0,
,-0.3,0.053,0.911,337.341,896.972,-783.997,0,0,0,
,-0.303,0.005,0.939,419.86,886.108,-853.272,0,0,0,
,-0.362,-0.075,0.976,403.381,943.603,-890.015,0,0,0,
,-0.376,-0.142,1.034,197.937,1080.444,-852.478,0,0,0,
,-0.347,-0.236,1.094,-94.605,1138.61,-796.875,0,0,0,
,-0.281,-0.468,1.076,-440.552,1225.769,-617.737,0,0,0,
,-0.28,-0.422,0.844,-769.593,1168.945,-464.051,0,0,0,
,-0.22,-0.22,0.843,-690.125,1180.297,-464.783,0,0,0,
,-0.135,-0.222,0.725,-691.102,1296.63,-319.092,0,0,0,
,0.091,-0.308,0.75,-925.049,1168.151,-325.989,0,0,0,
,0.183,-0.267,0.809,-1311.89,1027.282,-272.522,0,0,0,
,0.303,0.015,0.904,-1577.82,822.387,-252.076,0,0,0,
,0.261,0.232,0.943,-1416.993,718.261,-236.39,0,0,0,
,0.204,0.245,0.885,-1112.305,684.631,-189.454,0,0,0,
,0.201,0.107,0.819,-1054.444,651.855,-128.968,0,0,0,
,0.282,0.017,0.679,-1369.385,516.54,-3.174,0,0,0,
,0.294,0.236,0.67,-1694.153,297.424,26.123,0,0,0,
,0.257,0.4,0.636,-1689.698,175.659,49.072,0,0,0,
,0.288,0.469,0.601,-1487.305,47.668,9.643,0,0,0,
,0.263,0.473,0.649,-1175.11,-21.607,-80.75,0,0,0,
,0.295,0.446,0.725,-850.464,-49.927,-148.377,0,0,0,
,0.323,0.395,0.742,-637.391,-72.449,-175.354,0,0,0,
,0.328,0.37,0.789,-551.636,-104.248,-209.412,0,0,0,
,0.384,0.396,0.788,-521.973,-153.382,-249.817,0,0,0,
,0.363,0.409,0.806,-521.18,-206.299,-327.21,0,0,0,
,0.456,0.616,0.722,-723.45,-207.642,-302.002,0,0,0,
,0.572,0.827,0.586,-940.613,-182.679,-294.007,0,0,0,
,0.543,0.849,0.547,-843.934,-154.236,-335.572,0,0,0,
,0.446,0.789,0.562,-519.471,-83.619,-326.294,0,0,0,
,0.422,0.697,0.56,-242.615,12.146,-316.468,0,0,0,
,0.442,0.586,0.554,-50.232,40.039,-300.843,0,0,0,
,0.404,0.506,0.502,70.129,45.837,-304.017,0,0,0,
,0.363,0.567,0.604,253.479,147.705,-309.205,0,0,0,
,0.51,0.636,0.58,12.39,105.774,-275.696,0,0,0,
,0.492,0.747,0.625,-26.429,99.304,-218.934,0,0,0,
,0.452,0.657,0.659,-63.355,89.233,-157.349,0,0,0,
,0.435,0.625,0.659,-93.14,40.405,-117.188,0,0,0,
,0.402,0.549,0.72,25.756,-12.879,-96.253,0,0,0,
,0.389,0.451,0.654,99.731,-84.107,-82.276,0,0,0,
,0.35,0.363,0.563,110.046,-206.849,-89.783,0,0,0,
,0.2,0.667,0.522,167.358,-204.407,-145.142,0,0,0,
,0.563,0.377,0.347,-205.506,-116.333,-81.177,0,0,0,
,0.41,0.833,0.514,24.231,-168.702,-45.838,0,0,0,
,0.362,0.473,0.542,497.985,-172.852,5.432,0,0,0,
,0.339,0.671,0.718,660.583,-76.661,73.12,0,0,0,
,0.522,0.335,0.712,422.18,-41.016,84.411,0,0,0,
,0.397,0.695,0.825,582.092,-157.227,108.581,0,0,0,
,0.377,0.453,0.751,814.453,-257.142,162.963,0,0,0,
,0.384,0.744,0.788,679.199,-197.937,203.552,0,0,0,
,0.453,0.338,0.749,487.182,-170.655,270.202,0,0,0,
,0.332,0.643,0.761,685.058,-311.829,317.382,0,0,0,
,0.301,0.349,0.686,954.345,-411.072,337.646,0,0,0,
,0.123,0.549,0.814,896.728,-368.287,312.317,0,0,0,
,0.413,0.206,0.7,728.759,-261.658,362.671,0,0,0,
,0.22,0.411,0.783,744.69,-395.569,306.518,0,0,0,
,0.204,0.725,0.859,1058.105,-362.427,317.077,0,0,0,
,0.39,0.122,0.898,933.471,-245.667,421.508,0,0,0,
,0.237,0.311,0.979,626.953,-336.548,410.827,0,0,0,
,0.178,0.273,0.882,880.615,-406.861,431.274,0,0,0,
,0.097,0.335,0.949,1024.78,-506.287,393.005,0,0,0,
,0.232,0.129,0.94,1019.897,-436.097,410.461,0,0,0,
,0.155,0.08,1.004,775.879,-476.807,409.546,0,0,0,
,0.106,0.109,0.996,741.15,-497.559,427.246,0,0,0,
,0.069,0.029,0.898,723.999,-615.235,404.724,0,0,0,
,-0.021,0.152,1.012,776.306,-687.989,359.375,0,0,0,
,0.125,0.009,0.88,893.737,-557.312,365.966,0,0,0,
,0.008,0.058,0.873,726.623,-688.05,378.418,0,0,0,
,-0.137,0.189,1.154,807.373,-636.231,367.492,0,0,0,
,0.009,-0.202,1.011,810.241,-553.528,414.672,0,0,0,
,-0.177,-0.225,1.105,642.883,-550.477,364.868,0,0,0,
,-0.164,-0.054,1.097,676.025,-602.295,343.078,0,0,0,
,-0.26,-0.192,1.041,609.192,-631.287,324.34,0,0,0,
,-0.243,-0.075,1.098,456.848,-596.009,295.715,0,0,0,
,-0.186,-0.094,1.091,392.883,-549.256,268.066,0,0,0,
,-0.235,-0.196,1.037,264.526,-534.485,280.7,0,0,0,
,-0.251,-0.187,0.991,232.238,-514.344,303.222,0,0,0,
,-0.293,-0.241,0.951,322.876,-516.358,289.245,0,0,0,
,-0.345,-0.269,0.948,352.966,-519.288,253.173,0,0,0,
,-0.254,-0.243,1.17,203.43,-465.577,179.321,0,0,0,
,-0.192,-0.219,1.166,-0.794,-437.561,233.703,0,0,0,
,-0.255,-0.229,1.116,-6.592,-437.684,296.692,0,0,0,
,-0.31,-0.207,0.993,130.493,-449.28,353.027,0,0,0,
,-0.339,-0.332,0.948,257.08,-460.755,383.3,0,0,0,
,-0.328,-0.391,0.886,247.558,-486.512,373.657,0,0,0,
,-0.372,-0.412,0.882,25.207,-469.605,329.101,0,0,0,
,-0.422,-0.221,0.717,-248.963,-438.355,325.927,0,0,0,
,-0.416,-0.068,0.987,-280.274,-361.878,268.676,0,0,0,
,-0.355,-0.026,1.012,-151.856,-365.357,352.6,0,0,0,
,-0.456,-0.247,1.036,65.856,-362.671,403.076,0,0,0,
,-0.477,-0.31,1.06,139.16,-346.497,426.941,0,0,0,
,-0.486,-0.366,1.004,82.153,-327.82,435.547,0,0,0,
,-0.397,-0.194,0.923,36.499,-314.454,321.106,0,0,0,
,-0.375,-0.324,0.916,-158.143,-241.517,221.557,0,0,0,
,-0.366,-0.157,0.902,-224.122,-163.758,168.945,0,0,0,
,-0.352,-0.088,0.961,-180.97,-86.976,151.367,0,0,0,
,-0.363,-0.146,1.075,-90.271,2.502,144.531,0,0,0,
,-0.395,-0.117,1.176,-76.233,72.021,89.782,0,0,0,
,-0.42,-0.119,1.265,-14.893,132.263,17.028,0,0,0,
,-0.428,0.047,1.298,21.057,177.612,-58.838,0,0,0,
,-0.479,0.065,1.277,144.897,234.68,-87.037,0,0,0,
,-0.488,0.06,1.21,268.31,335.754,-139.466,0,0,0,
,-0.49,-0.025,1.18,410.461,497.741,-216.492,0,0,0,
,-0.445,-0.028,1.071,507.446,613.586,-395.935,0,0,0,
,-0.477,-0.101,1.018,588.195,702.88,-340.638,0,0,0,
,-0.457,-0.224,0.897,725.525,786.438,-416.871,0,0,0,
,-0.469,-0.3,0.838,864.929,858.764,-485.108,0,0,0,
,-0.47,-0.549,0.826,739.441,898.132,-450.989,0,0,0,
,-0.422,-0.594,0.893,410.034,934.387,-301.819,0,0,0,
,-0.435,-0.597,0.933,84.411,1052.612,-248.414,0,0,0,
,-0.409,-0.599,0.899,-216.187,1124.694,-223.023,0,0,0,
,-0.365,-0.416,0.868,-397.522,1152.038,-264.405,0,0,0,
,-0.355,-0.481,0.874,-576.783,1312.866,-363.465,0,0,0,
,-0.269,-0.754,0.782,-906.556,1447.692,-421.509,0,0,0,
,-0.092,-0.737,0.669,-987,1315.124,-231.934,0,0,0,
,0.014,-0.619,0.62,-957.093,1158.752,-81.788,0,0,0,
,-0.081,-0.72,0.537,-1317.139,1103.759,38.086,0,0,0,
,-0.116,-0.712,0.598,-1963.624,1214.538,76.965,0,0,0,
,0.122,-0.531,0.682,-2000,1118.53,118.774,0,0,0,
,0.278,-0.086,0.758,-2000,832.214,52.551,0,0,0,
,0.242,0.372,0.885,-2000,579.956,-149.048,0,0,0,
,0.185,0.323,0.904,-1359.437,529.419,-318.97,0,0,0,
,0.228,0.129,0.858,-894.715,463.256,-407.715,0,0,0,
,0.224,0.008,0.897,-797.364,388.549,-403.016,0,0,0,
,0.267,0.002,0.959,-907.776,388.366,-346.07,0,0,0,
,0.328,0.098,0.875,-1240.479,336.609,-261.414,0,0,0,
,0.346,0.342,0.77,-1584.778,240.234,-205.323,0,0,0,
,0.393,0.615,0.598,-1726.685,138.855,-127.137,0,0,0,
,0.412,0.799,0.659,-1364.197,-0.061,-180.237,0,0,0,
,0.447,0.709,0.763,-970.948,-27.71,-169.8,0,0,0,
,0.465,0.649,0.825,-741.394,1.22,-129.7,0,0,0,
,0.422,0.502,0.757,-684.449,8.911,-98.145,0,0,0,
,0.438,0.487,0.741,-712.037,-33.875,-98.084,0,0,0,
,0.416,0.436,0.67,-798.645,-134.949,-128.724,0,0,0,
,0.369,0.49,0.708,-861.084,-230.957,-180.237,0,0,0,
,0.362,0.51,0.71,-793.946,-228.943,-200.806,0,0,0,
,0.318,0.601,0.771,-653.138,-135.56,-240.418,0,0,0,
,0.397,0.63,0.705,-431.397,-74.28,-251.404,0,0,0,
,0.411,0.621,0.665,-325.806,-50.599,-252.259,0,0,0,
,0.414,0.681,0.608,-332.337,-52.185,-254.517,0,0,0,
,0.507,0.737,0.63,-234.62,-109.253,-377.137,0,0,0,
,0.392,0.617,0.761,-285.157,-39.429,-221.741,0,0,0,
,0.39,0.65,0.755,-244.446,-36.56,-188.294,0,0,0,
,0.415,0.691,0.668,-143.25,-9.217,-128.724,0,0,0,
,0.385,0.631,0.712,-96.131,-27.894,-91.919,0,0,0,
,0.399,0.587,0.664,-287.171,-31.434,-39.49,0,0,0,
,0.378,0.626,0.664,-373.597,-77.393,-19.41,0,0,0,
,0.349,0.592,0.674,-326.233,-53.589,-20.02,0,0,0,
,0.342,0.661,0.659,-243.226,-4.334,-16.114,0,0,0,
,0.388,0.705,0.569,-113.587,26.977,-19.776,0,0,0,
,0.407,0.691,0.485,-22.644,6.225,-4.822,0,0,0,
,0.311,0.631,0.451,38.757,-53.467,-62.073,0,0,0,
,0.379,0.644,0.448,22.277,-32.166,-67.749,0,0,0,
,0.333,0.64,0.575,-23.987,-108.277,-117.92,0,0,0,
,0.485,0.768,0.539,-108.582,-12.024,-53.345,0,0,0,
,0.313,0.823,0.684,28.564,-19.41,-55.726,0,0,0,
,0.352,0.757,0.714,281.677,21.911,0.061,0,0,0,
,0.325,0.634,0.668,365.173,28.076,77.453,0,0,0,
,0.369,0.729,0.527,480.59,-68.299,81.42,0,0,0,
,0.308,0.606,0.432,578.613,-96.741,20.996,0,0,0,
,0.301,0.499,0.387,390.075,-133.789,-23.255,0,0,0,
,0.226,0.663,0.605,237.548,-30.945,-61.585,0,0,0,
,0.453,0.855,0.608,465.576,-17.456,-20.691,0,0,0,
,0.308,0.614,0.614,838.806,31.799,20.996,0,0,0,
,0.322,0.365,0.531,825.5,-0.245,41.137,0,0,0,
,0.361,0.569,0.811,695.678,37.231,5.432,0,0,0,
,0.485,0.614,0.862,707.885,-86.976,10.376,0,0,0,
,0.353,0.459,0.834,827.514,-76.661,41.076,0,0,0,
,0.327,0.342,0.6,820.984,-120.972,54.504,0,0,0,
,0.162,0.362,0.787,923.401,-109.375,-27.222,0,0,0,
,0.282,0.365,0.682,1002.624,-175.66,2.319,0,0,0,
,0.171,0.133,0.767,872.314,-145.508,-36.805,0,0,0,
,0.514,0.316,0.693,418.09,-249.512,35.827,0,0,0,
,0.298,0.494,0.841,595.337,-297.974,12.023,0,0,0,
,0.298,0.339,0.769,1187.133,-419.312,27.404,0,0,0,
,0.259,0.119,0.915,1152.16,-194.214,150.451,0,0,0,
,0.338,0.08,0.9,1027.099,-527.039,149.658,0,0,0,
,0.105,-0.012,0.765,1135.254,-544.739,152.16,0,0,0,
,0.308,-0.057,1.027,592.102,-612.244,233.154,0,0,0,
,0.109,-0.05,0.812,808.96,-677.552,238.464,0,0,0,
,0.167,0.148,1.085,821.96,-531.922,309.448,0,0,0,
,0.301,-0.16,0.991,628.418,-693.055,368.347,0,0,0,
,0.033,-0.112,0.931,591.247,-746.155,332.885,0,0,0,
,-0.061,-0.323,1.206,494.995,-705.75,323.608,0,0,0,
,0.093,-0.213,1.123,271.789,-582.703,370.056,0,0,0,
,-0.017,-0.129,0.958,231.384,-756.226,398.01,0,0,0,
,-0.12,-0.148,0.803,393.982,-869.812,375.549,0,0,0,
,-0.239,-0.056,1.123,348.816,-712.586,356.079,0,0,0,
,-0.025,-0.048,1.142,138.488,-687.561,424.011,0,0,0,
,-0.225,0,0.991,109.314,-748.963,368.103,0,0,0,
,-0.352,-0.143,0.919,71.289,-736.756,343.689,0,0,0,
,-0.245,0.031,1.076,24.353,-638.794,303.283,0,0,0,
,-0.259,-0.062,1.117,17.578,-610.474,356.445,0,0,0,
,-0.37,-0.098,1.093,-30.152,-587.891,404.907,0,0,0,
,-0.427,-0.221,1.208,-86.426,-505.127,375.305,0,0,0,
,-0.292,0.057,1.244,-173.462,-503.296,373.291,0,0,0,
,-0.402,0.031,1.057,-190.979,-450.867,357.788,0,0,0,
,-0.425,-0.041,0.852,-270.081,-376.221,311.767,0,0,0,
