TIMECODE,ACC_X,ACC_Y,ACC_Z,GYR_X,GYR_Y,GYR_Z,ECG_I,ECG_II,ECG_III,TAG
,-0.214,0.598,0.758,2.99,6.774,-20.997,0,0,0,
,-0.214,0.598,0.755,3.173,7.69,-20.935,0,0,0,
,-0.213,0.599,0.755,4.943,6.591,-20.935,0,0,0,
,-0.215,0.595,0.753,9.338,5.493,-19.654,0,0,0,
,-0.216,0.597,0.756,9.704,5.676,-19.593,0,0,0,
,-0.215,0.595,0.76,11.108,6.225,-20.569,0,0,0,
,-0.211,0.596,0.756,10.559,5.554,-21.424,0,0,0,
,-0.214,0.595,0.757,9.826,7.507,-21.485,0,0,0,
,-0.214,0.592,0.759,8.422,8.361,-19.41,0,0,0,
,-0.212,0.596,0.758,7.019,9.46,-19.959,0,0,0,
,-0.214,0.591,0.755,7.629,9.399,-19.043,0,0,0,
,-0.218,0.598,0.758,9.277,8.178,-18.128,0,0,0,
,-0.216,0.591,0.754,7.812,8.85,-19.471,0,0,0,
,-0.214,0.592,0.761,5.615,9.338,-20.569,0,0,0,
,-0.215,0.594,0.761,4.516,10.253,-20.935,0,0,0,
,-0.216,0.591,0.76,4.638,8.361,-19.959,0,0,0,
,-0.215,0.599,0.755,7.69,9.582,-20.569,0,0,0,
,-0.211,0.591,0.756,8.728,9.765,-19.837,0,0,0,
,-0.214,0.597,0.756,9.765,9.277,-19.715,0,0,0,
,-0.214,0.591,0.755,9.521,6.836,-18.311,0,0,0,
,-0.219,0.599,0.763,7.507,6.042,-22.034,0,0,0,
,-0.216,0.592,0.757,7.08,10.315,-24.048,0,0,0,
,-0.213,0.596,0.756,7.873,11.108,-24.72,0,0,0,
,-0.211,0.596,0.759,9.887,9.399,-21.546,0,0,0,
,-0.213,0.589,0.759,9.765,11.352,-20.325,0,0,0,
,-0.214,0.592,0.761,6.713,10.803,-19.043,0,0,0,
,-0.213,0.585,0.757,2.258,11.474,-19.532,0,0,0,
,-0.215,0.591,0.761,-1.038,7.751,-20.081,0,0,0,
,-0.217,0.594,0.756,-2.747,9.033,-22.095,0,0,0,
,-0.217,0.598,0.752,1.159,9.765,-21.485,0,0,0,
,-0.214,0.605,0.755,8.728,7.751,-18.128,0,0,0,
,-0.214,0.598,0.758,13.794,6.836,-18.494,0,0,0,
,-0.21,0.595,0.757,15.136,8.911,-18.067,0,0,0,
,-0.213,0.586,0.761,12.512,7.202,-17.273,0,0,0,
,-0.215,0.592,0.757,6.347,3.112,-18.677,0,0,0,
,-0.209,0.591,0.755,4.76,6.836,-18.372,0,0,0,
,-0.216,0.595,0.755,3.356,4.638,-19.104,0,0,0,
,-0.216,0.598,0.757,5.859,6.286,-19.776,0,0,0,
,-0.216,0.593,0.753,6.774,8.178,-21.485,0,0,0,
,-0.216,0.597,0.76,7.629,7.69,-21.668,0,0,0,
,-0.214,0.59,0.756,5.798,9.826,-19.776,0,0,0,
,-0.214,0.595,0.758,5.981,9.887,-20.997,0,0,0,
,-0.213,0.586,0.757,2.624,7.08,-20.142,0,0,0,
,-0.217,0.595,0.76,-2.076,5.615,-21.363,0,0,0,
,-0.217,0.592,0.755,-2.442,8.911,-20.691,0,0,0,
,-0.215,0.595,0.759,-1.831,6.774,-22.095,0,0,0,
,-0.217,0.601,0.753,-1.16,7.385,-21.546,0,0,0,
,-0.214,0.6,0.754,3.295,4.821,-21.546,0,0,0,
,-0.213,0.602,0.754,9.643,8.056,-18.86,0,0,0,
,-0.215,0.596,0.757,8.3,6.408,-18.128,0,0,0,
,-0.216,0.598,0.759,12.756,7.873,-21.607,0,0,0,
,-0.215,0.591,0.757,8.85,8.911,-20.63,0,0,0,
,-0.215,0.592,0.76,6.713,9.643,-20.752,0,0,0,
,-0.214,0.594,0.759,4.15,9.399,-21.485,0,0,0,
,-0.219,0.595,0.755,5.859,7.446,-21.912,0,0,0,
,-0.215,0.599,0.759,5.737,9.948,-21.119,0,0,0,
,-0.216,0.596,0.756,8.361,11.413,-20.264,0,0,0,
,-0.215,0.597,0.757,8.972,12.329,-19.41,0,0,0,
,-0.213,0.59,0.759,8.361,10.986,-19.104,0,0,0,
,-0.216,0.594,0.76,7.995,10.681,-19.837,0,0,0,
,-0.215,0.592,0.755,5.065,10.681,-20.264,0,0,0,
,-0.214,0.597,0.761,3.662,7.141,-20.691,0,0,0,
,-0.218,0.599,0.755,6.713,7.995,-20.63,0,0,0,
,-0.213,0.595,0.753,5.554,9.338,-20.142,0,0,0,
,-0.214,0.598,0.757,9.582,7.019,-19.165,0,0,0,
,-0.212,0.592,0.759,11.474,6.225,-18.921,0,0,0,
,-0.216,0.601,0.76,13.427,4.638,-19.532,0,0,0,
,-0.216,0.59,0.758,13.183,6.652,-19.776,0,0,0,
,-0.22,0.597,0.758,9.704,8.3,-23.743,0,0,0,
,-0.213,0.596,0.757,11.352,13.366,-23.865,0,0,0,
,-0.215,0.592,0.759,9.094,11.108,-22.522,0,0,0,
,-0.215,0.592,0.758,7.69,13.427,-20.02,0,0,0,
,-0.213,0.589,0.757,4.699,12.207,-21.241,0,0,0,
,-0.214,0.593,0.758,-1.221,10.803,-19.715,0,0,0,
,-0.217,0.591,0.757,-1.954,8.85,-21.973,0,0,0,
,-0.217,0.597,0.755,-2.564,10.864,-22.339,0,0,0,
,-0.211,0.6,0.755,2.075,12.146,-21.18,0,0,0,
,-0.213,0.599,0.756,8.972,7.873,-19.776,0,0,0,
,-0.214,0.594,0.758,11.474,9.948,-17.518,0,0,0,
,-0.214,0.592,0.757,11.23,8.239,-17.64,0,0,0,
,-0.216,0.595,0.758,9.582,7.141,-19.227,0,0,0,
,-0.213,0.589,0.756,7.202,7.019,-18.128,0,0,0,
,-0.213,0.598,0.759,8.483,5.188,-18.982,0,0,0,
,-0.215,0.595,0.753,7.385,6.469,-18.616,0,0,0,
,-0.217,0.595,0.753,9.887,6.591,-18.128,0,0,0,
,-0.218,0.598,0.758,13.122,11.291,-20.569,0,0,0,
,-0.214,0.587,0.754,11.596,9.704,-21.424,0,0,0,
,-0.214,0.592,0.761,6.591,10.253,-20.142,0,0,0,
,-0.212,0.585,0.758,1.281,9.948,-20.813,0,0,0,
,-0.215,0.594,0.76,0.061,8.544,-20.203,0,0,0,
,-0.215,0.594,0.752,-0.855,8.422,-19.593,0,0,0,
,-0.216,0.599,0.756,0.061,6.836,-20.997,0,0,0,
,-0.215,0.598,0.756,3.845,8.239,-21.241,0,0,0,
,-0.213,0.599,0.755,8.422,5.676,-22.828,0,0,0,
,-0.211,0.599,0.758,11.84,7.08,-21.058,0,0,0,
,-0.214,0.594,0.756,8.544,6.958,-20.386,0,0,0,
,-0.212,0.596,0.757,10.559,7.446,-20.264,0,0,0,
,-0.213,0.593,0.756,8.3,7.324,-20.874,0,0,0,
,-0.215,0.592,0.762,7.263,8.544,-19.532,0,0,0,
,-0.212,0.591,0.756,5.188,8.422,-18.86,0,0,0,
,-0.216,0.591,0.756,4.699,8.117,-18.067,0,0,0,
,-0.214,0.596,0.756,4.882,8.667,-19.288,0,0,0,
,-0.217,0.592,0.754,6.408,7.812,-20.142,0,0,0,
,-0.217,0.598,0.758,6.897,10.498,-20.142,0,0,0,
,-0.216,0.595,0.756,7.202,9.948,-20.081,0,0,0,
,-0.214,0.597,0.759,9.094,9.216,-20.508,0,0,0,
,-0.215,0.592,0.757,9.46,9.643,-20.264,0,0,0,
,-0.213,0.593,0.753,10.803,4.333,-21.668,0,0,0,
,-0.211,0.595,0.754,9.094,-0.123,-19.227,0,0,0,
,-0.213,0.591,0.755,9.155,-3.113,-18.799,0,0,0,
,-0.215,0.593,0.756,5.065,-2.93,-17.762,0,0,0,
,-0.214,0.585,0.76,0.732,3.051,-9.949,0,0,0,
,-0.221,0.592,0.764,-5.433,5.371,-8.667,0,0,0,
,-0.211,0.584,0.757,-15.931,1.953,-5.433,0,0,0,
,-0.208,0.587,0.759,-25.147,-15.198,-8.362,0,0,0,
,-0.216,0.597,0.78,-37.903,-11.475,5.92,0,0,0,
,-0.225,0.558,0.768,-63.294,-17.334,0.732,0,0,0,
,-0.224,0.584,0.761,-96.741,-15.503,-6.348,0,0,0,
,-0.217,0.57,0.757,-132.691,-9.339,-1.893,0,0,0,
,-0.208,0.556,0.768,-187.012,-18.738,8.056,0,0,0,
,-0.222,0.601,0.752,-246.155,-27.71,13.061,0,0,0,
,-0.219,0.589,0.74,-278.199,-18.921,29.419,0,0,0,
,-0.224,0.61,0.741,-327.576,-38.697,16.906,0,0,0,
,-0.23,0.627,0.722,-363.465,-35.828,-16.419,0,0,0,
,-0.209,0.666,0.744,-363.831,-25.574,-14.588,0,0,0,
,-0.246,0.581,0.69,-430.726,-41.932,5.188,0,0,0,
,-0.262,0.677,0.684,-481.812,-42.542,1.77,0,0,0,
,-0.247,0.683,0.657,-511.17,-29.297,-11.475,0,0,0,
,-0.228,0.704,0.638,-533.081,-35.096,-12.207,0,0,0,
,-0.232,0.722,0.616,-534.852,-47.425,0.488,0,0,0,
,-0.246,0.713,0.605,-552.491,-59.876,2.136,0,0,0,
,-0.252,0.731,0.582,-565.369,-59.388,-5.738,0,0,0,
,-0.253,0.741,0.574,-586.731,-45.289,-13.55,0,0,0,
,-0.251,0.758,0.551,-618.287,-40.467,-26.612,0,0,0,
,-0.232,0.804,0.526,-647.522,-29.969,-63.111,0,0,0,
,-0.239,0.814,0.471,-642.334,-46.143,-83.863,0,0,0,
,-0.252,0.838,0.446,-624.939,-51.392,-92.774,0,0,0,
,-0.277,0.838,0.443,-622.01,-73.304,-36.927,0,0,0,
,-0.273,0.843,0.438,-632.752,-58.289,-36.805,0,0,0,
,-0.189,0.798,0.395,-676.026,-37.659,-47.608,0,0,0,
,-0.188,0.86,0.355,-686.768,-131.958,-98.45,0,0,0,
,-0.242,0.838,0.335,-712.647,-105.164,-11.78,0,0,0,
,-0.217,0.649,0.159,-961.182,55.358,-202.271,0,0,0,
,-0.22,0.946,0.233,-1114.686,-80.628,-51.941,0,0,0,
,-0.26,0.93,0.228,-1011.902,-83.924,-39.307,0,0,0,
,-0.248,0.958,0.197,-978.76,-49.988,4.455,0,0,0,
,-0.192,0.964,0.045,-870.972,-92.469,-92.041,0,0,0,
,-0.299,1.027,0.085,-715.455,-40.406,28.808,0,0,0,
,-0.332,1.029,0.075,-466.98,-96.314,43.762,0,0,0,
,-0.343,0.976,0.052,-323.609,-103.882,72.204,0,0,0,
,-0.299,0.975,0.035,-254.334,-71.412,-10.437,0,0,0,
,-0.291,0.966,0.026,-175.293,-57.312,-29.297,0,0,0,
,-0.3,0.963,0.023,-138.367,-36.927,-63.477,0,0,0,
,-0.275,0.961,0.01,-86.182,-19.593,-96.131,0,0,0,
,-0.262,0.967,0.003,-34.485,-9.827,-103.821,0,0,0,
,-0.251,0.957,0.014,21.606,5.31,-105.652,0,0,0,
,-0.239,0.949,0.019,60.424,19.775,-89.722,0,0,0,
,-0.24,0.948,0.031,90.148,21.545,-76.477,0,0,0,
,-0.238,0.96,0.037,119.018,29.724,-61.646,0,0,0,
,-0.233,0.948,0.044,144.653,30.029,-43.641,0,0,0,
,-0.241,0.949,0.05,161.987,28.808,-25.208,0,0,0,
,-0.237,0.937,0.067,158.996,24.597,-20.447,0,0,0,
,-0.235,0.925,0.076,137.573,17.211,-20.203,0,0,0,
,-0.241,0.939,0.083,116.699,10.864,-19.898,0,0,0,
,-0.245,0.928,0.085,93.811,9.704,-28.199,0,0,0,
,-0.238,0.946,0.087,86.303,8.239,-30.091,0,0,0,
,-0.242,0.936,0.088,86.303,8.117,-20.264,0,0,0,
,-0.244,0.95,0.093,89.294,9.155,-21.668,0,0,0,
,-0.242,0.936,0.09,89.05,11.169,-23.133,0,0,0,
,-0.237,0.942,0.097,88.501,6.225,-23.743,0,0,0,
,-0.241,0.95,0.091,96.13,10.437,-19.654,0,0,0,
,-0.243,0.941,0.101,103.271,17.028,-17.456,0,0,0,
,-0.245,0.942,0.11,97.473,20.629,-20.691,0,0,0,
,-0.246,0.936,0.117,89.599,31.372,-14.588,0,0,0,
,-0.246,0.937,0.118,78.491,38.269,-17.09,0,0,0,
,-0.247,0.943,0.116,74.157,44.372,-25.94,0,0,0,
,-0.242,0.941,0.124,75.866,46.997,-32.105,0,0,0,
,-0.245,0.943,0.126,70.007,50.537,-36.499,0,0,0,
,-0.243,0.937,0.131,64.88,52.551,-40.406,0,0,0,
,-0.239,0.935,0.136,49.621,62.316,-44.068,0,0,0,
,-0.23,0.918,0.144,26.428,63.476,-39.917,0,0,0,
,-0.232,0.926,0.139,4.089,57.312,-32.593,0,0,0,
,-0.228,0.932,0.134,-6.592,55.725,-23.804,0,0,0,
,-0.23,0.942,0.125,-3.907,52.49,-17.395,0,0,0,
,-0.239,0.951,0.125,6.713,49.011,-13.367,0,0,0,
,-0.242,0.959,0.12,32.226,49.804,-23.865,0,0,0,
,-0.24,0.949,0.129,57.251,56.884,-29.602,0,0,0,
,-0.24,0.945,0.142,64.941,62.5,-38.208,0,0,0,
,-0.235,0.941,0.142,51.33,68.42,-43.213,0,0,0,
,-0.244,0.954,0.149,28.137,74.585,-50.782,0,0,0,
,-0.25,0.946,0.17,0.488,84.411,-67.383,0,0,0,
,-0.261,0.959,0.183,-41.81,109.253,-89.6,0,0,0,
,-0.264,0.956,0.231,-97.352,148.742,-124.512,0,0,0,
,-0.265,0.99,0.259,-114.319,193.481,-177.735,0,0,0,
,-0.267,1.002,0.286,-195.557,246.154,-238.221,0,0,0,
,-0.228,1.074,0.265,-170.594,278.747,-276.795,0,0,0,
,-0.251,1.446,0.331,135.742,226.074,-151.551,0,0,0,
,-0.167,1.641,0.175,90.454,269.531,-130.127,0,0,0,
,-0.002,1.847,0.099,185.363,240.051,16.662,0,0,0,
,0.197,2.232,-0.006,296.997,116.821,265.869,0,0,0,
,0.271,2.426,-0.046,349.304,24.78,661.01,0,0,0,
,0.392,2.342,-0.029,142.456,11.474,1144.958,0,0,0,
,0.274,2.313,-0.07,27.771,27.404,1597.229,0,0,0,
,0.156,1.987,-0.079,126.709,30.395,1967.468,0,0,0,
,0.05,1.505,0.012,292.663,28.869,1999.694,0,0,0,
,0.006,0.993,0.099,477.966,17.7,1999.694,0,0,0,
,0.027,0.475,0.136,726.135,-30.701,1999.694,0,0,0,
,0.043,0.109,0.136,960.083,-119.751,1999.694,0,0,0,
,-0.19,-1.046,-0.055,1196.289,-496.216,1999.694,0,0,0,
,-0.318,-1.161,-0.077,936.767,-549.134,1922.119,0,0,0,
,-0.396,-1.133,-0.042,712.707,-578.919,1521.301,0,0,0,
,-0.431,-1.263,-0.044,553.833,-513.55,992.492,0,0,0,
,-0.433,-1.414,-0.212,432.556,-396.302,304.931,0,0,0,
,-0.42,-1.459,-0.278,256.408,-246.766,-384.766,0,0,0,
,-0.355,-1.276,-0.207,-79.346,-51.148,-1001.77,0,0,0,
,-0.275,-0.981,-0.14,-417.298,126.831,-1516.968,0,0,0,
,-0.26,-0.737,-0.053,-751.648,292.663,-1956.788,0,0,0,
,-0.271,-0.432,0.044,-1183.899,417.968,-2000,0,0,0,
,-0.275,0.118,0.168,-1523.377,506.713,-2000,0,0,0,
,-0.335,0.905,0.273,-1535.523,635.254,-2000,0,0,0,
,-0.429,1.618,0.316,-1046.265,655.273,-2000,0,0,0,
,-0.627,1.709,0.002,-216.919,558.899,-2000,0,0,0,
,-0.388,1.731,-0.098,124.817,428.527,-1932.801,0,0,0,
,-0.154,1.894,-0.098,-77.82,345.276,-1455.201,0,0,0,
,-0.166,1.942,0.177,46.386,228.027,-1021.546,0,0,0,
,-0.42,2.075,0.392,185.18,170.288,-588.44,0,0,0,
,-0.499,1.668,0.377,342.773,161.56,-431.519,0,0,0,
,-0.525,1.348,0.281,371.154,152.649,-319.642,0,0,0,
,-0.549,1.12,0.247,233.032,179.199,-254.883,0,0,0,
,-0.519,0.963,0.299,33.203,224.365,-251.404,0,0,0,
,-0.442,0.894,0.319,-108.216,255.798,-277.527,0,0,0,
,-0.373,0.939,0.288,-129.395,278.564,-312.989,0,0,0,
,-0.324,0.996,0.262,-39.002,272.949,-343.384,0,0,0,
,-0.273,0.968,0.283,44.189,249.328,-370.789,0,0,0,
,-0.229,0.936,0.294,49.987,226.44,-379.334,0,0,0,
,-0.22,0.887,0.303,36.804,205.139,-377.198,0,0,0,
,-0.21,0.826,0.307,24.108,189.453,-347.84,0,0,0,
,-0.12,0.971,0.309,18.371,111.877,-205.384,0,0,0,
,-0.12,0.976,0.326,-2.076,95.947,-180.42,0,0,0,
,-0.109,0.969,0.307,-75.257,99.243,-161.744,0,0,0,
,-0.103,0.962,0.286,-152.466,102.295,-136.597,0,0,0,
,-0.108,0.979,0.278,-158.814,93.078,-123.047,0,0,0,
,-0.121,1.014,0.277,-122.132,86.425,-111.939,0,0,0,
,-0.136,1.016,0.288,-77.088,88.501,-94.788,0,0,0,
,-0.148,0.995,0.29,-42.115,86.547,-87.037,0,0,0,
,-0.151,0.998,0.281,1.098,72.509,-83.374,0,0,0,
,-0.148,0.981,0.267,42.114,66.284,-76.6,0,0,0,
,-0.15,0.966,0.274,81.726,61.462,-65.735,0,0,0,
,-0.152,0.951,0.288,74.035,65.063,-54.444,0,0,0,
,-0.152,0.944,0.296,43.335,64.819,-43.519,0,0,0,
,-0.151,0.952,0.291,29.419,62.194,-35.706,0,0,0,
,-0.143,0.97,0.274,46.875,56.64,-40.65,0,0,0,
,-0.132,0.972,0.242,76.232,43.273,-34.18,0,0,0,
,-0.143,0.945,0.267,104.126,44.067,-18.616,0,0,0,
,-0.15,0.926,0.283,90.271,53.466,-6.836,0,0,0,
,-0.147,0.938,0.283,70.007,75.439,-4.944,0,0,0,
,-0.12,0.963,0.275,96.923,80.2,5.065,0,0,0,
,-0.12,0.964,0.276,156.005,82.275,8.361,0,0,0,
,-0.133,0.935,0.293,202.697,90.148,5.615,0,0,0,
,-0.137,0.894,0.305,216.552,95.336,9.338,0,0,0,
,-0.147,0.87,0.308,195.007,113.037,-0.55,0,0,0,
,-0.13,0.852,0.305,152.649,110.778,-7.874,0,0,0,
,-0.113,0.859,0.309,137.268,97.29,-18.738,0,0,0,
,-0.11,0.838,0.34,127.38,63.415,-26.185,0,0,0,
,-0.118,0.807,0.387,99.182,29.296,-48.279,0,0,0,
,-0.111,0.814,0.396,52.429,42.846,-28.626,0,0,0,
,-0.11,0.906,0.356,35.156,65.918,1.464,0,0,0,
,-0.115,0.919,0.339,85.998,50.659,-11.109,0,0,0,
,-0.1,0.836,0.319,90.271,51.269,22.094,0,0,0,
,-0.11,0.86,0.325,19.348,44.921,27.404,0,0,0,
,-0.106,0.905,0.341,15.502,28.686,7.446,0,0,0,
,-0.116,0.861,0.363,41.87,14.587,-14.1,0,0,0,
,-0.145,0.83,0.364,7.019,15.197,-11.597,0,0,0,
,-0.154,0.899,0.339,-17.212,24.658,-9.095,0,0,0,
,-0.143,0.941,0.334,27.832,17.822,-1.526,0,0,0,
,-0.143,0.951,0.355,93.261,-24.048,7.446,0,0,0,
,-0.15,0.931,0.38,160.888,-92.469,10.681,0,0,0,
,-0.149,0.893,0.396,189.514,-146.729,6.225,0,0,0,
,-0.188,0.887,0.385,231.079,-128.296,10.376,0,0,0,
,-0.177,0.865,0.397,288.33,-91.431,0.061,0,0,0,
,-0.167,0.835,0.422,255.249,-67.261,-9.034,0,0,0,
,-0.166,0.9,0.411,166.809,-48.462,-20.508,0,0,0,
,-0.165,0.9,0.432,108.947,-61.585,-31.556,0,0,0,
,-0.154,0.933,0.429,122.802,-53.101,-16.48,0,0,0,
,-0.145,0.899,0.461,174.56,-53.162,15.014,0,0,0,
,-0.165,0.842,0.472,168.396,-37.537,12.573,0,0,0,
,-0.17,0.836,0.455,90.576,-16.663,5.859,0,0,0,
,-0.188,0.837,0.442,-0.611,1.342,-1.221,0,0,0,
,-0.181,0.868,0.438,-19.837,4.76,-26.917,0,0,0,
,-0.189,0.859,0.436,-19.471,15.38,-27.1,0,0,0,
,-0.196,0.885,0.464,-24.537,26.55,-25.208,0,0,0,
,-0.195,0.878,0.455,-45.105,47.485,-16.907,0,0,0,
,-0.205,0.866,0.433,-74.646,63.171,-16.175,0,0,0,
,-0.21,0.855,0.419,-121.766,71.594,-20.386,0,0,0,
,-0.194,0.909,0.419,-130.31,65.185,-38.453,0,0,0,
,-0.185,0.921,0.42,-116.333,54.931,-19.349,0,0,0,
,-0.191,0.96,0.421,-64.026,44.189,-12.452,0,0,0,
,-0.188,0.973,0.421,-4.334,32.043,10.253,0,0,0,
,-0.196,0.977,0.432,55.664,23.864,34.973,0,0,0,
,-0.2,0.962,0.428,75.195,24.353,45.349,0,0,0,
,-0.208,0.969,0.435,77.148,22.461,50.72,0,0,0,
,-0.212,0.963,0.434,54.565,19.226,57.495,0,0,0,
,-0.214,0.937,0.44,22.094,18.554,55.358,0,0,0,
,-0.219,0.939,0.447,20.629,11.596,58.471,0,0,0,
,-0.217,0.906,0.435,46.447,2.746,69.763,0,0,0,
,-0.23,0.909,0.428,75.805,0.366,78.186,0,0,0,
,-0.235,0.932,0.415,103.332,0.976,83.129,0,0,0,
,-0.243,0.926,0.421,147.155,0.244,92.102,0,0,0,
,-0.236,0.918,0.434,185.18,4.943,92.59,0,0,0,
,-0.242,0.892,0.434,206.726,7.202,95.031,0,0,0,
,-0.238,0.876,0.435,202.758,8.239,92.285,0,0,0,
,-0.232,0.849,0.433,199.707,4.394,94.604,0,0,0,
,-0.239,0.818,0.431,190.734,4.516,85.51,0,0,0,
,-0.247,0.809,0.423,185.302,3.967,77.941,0,0,0,
,-0.248,0.802,0.431,161.438,9.643,72.387,0,0,0,
,-0.243,0.799,0.446,135.131,20.568,58.96,0,0,0,
,-0.254,0.787,0.467,119.69,40.466,45.654,0,0,0,
,-0.265,0.757,0.502,101.684,69.03,32.409,0,0,0,
,-0.272,0.763,0.481,101.745,82.458,28.442,0,0,0,
,-0.261,0.754,0.43,99.243,80.444,36.926,0,0,0,
,-0.263,0.75,0.441,100.708,74.89,32.226,0,0,0,
,-0.231,0.786,0.474,110.901,64.514,27.16,0,0,0,
,-0.212,0.785,0.489,98.999,58.593,33.996,0,0,0,
,-0.203,0.791,0.487,82.885,59.997,36.315,0,0,0,
,-0.204,0.823,0.487,84.411,55.175,36.377,0,0,0,
,-0.25,0.783,0.47,49.438,51.147,39.672,0,0,0,
,-0.224,0.806,0.491,21.789,49.682,35.949,0,0,0,
,-0.218,0.825,0.515,41.076,46.203,47.18,0,0,0,
,-0.211,0.834,0.516,62.561,37.414,54.199,0,0,0,
,-0.221,0.841,0.505,83.862,29.296,66.04,0,0,0,
,-0.211,0.83,0.51,94.238,24.78,71.716,0,0,0,
,-0.215,0.811,0.52,95.825,23.254,77.27,0,0,0,
,-0.207,0.802,0.518,112.121,14.892,77.209,0,0,0,
,-0.223,0.779,0.512,129.211,5.737,83.007,0,0,0,
,-0.231,0.781,0.512,159.79,-4.09,81.359,0,0,0,
,-0.242,0.779,0.519,188.659,-6.104,84.045,0,0,0,
,-0.238,0.763,0.531,195.068,6.897,80.322,0,0,0,
,-0.227,0.771,0.542,195.8,18.432,77.026,0,0,0,
,-0.229,0.765,0.54,200.561,26.001,75.5,0,0,0,
,-0.228,0.735,0.543,205.505,27.832,72.021,0,0,0,
,-0.221,0.703,0.542,211.547,24.292,57.8,0,0,0,
,-0.232,0.676,0.535,207.031,20.996,55.969,0,0,0,
,-0.243,0.666,0.541,170.715,26.123,33.325,0,0,0,
,-0.23,0.663,0.552,139.282,34.24,17.089,0,0,0,
,-0.236,0.648,0.578,59.204,55.847,-10.437,0,0,0,
,-0.23,0.685,0.587,51.879,64.331,-15.381,0,0,0,
,-0.231,0.704,0.592,78.43,63.415,-17.701,0,0,0,
,-0.229,0.698,0.586,115.356,61.706,-17.762,0,0,0,
,-0.23,0.706,0.589,159.24,51.33,-17.029,0,0,0,
,-0.246,0.71,0.622,198.791,48.95,-9.4,0,0,0,
,-0.26,0.673,0.613,200.134,39.184,-29.602,0,0,0,
,-0.219,0.652,0.627,161.926,51.757,-3.724,0,0,0,
,-0.263,0.637,0.661,128.662,58.471,-27.955,0,0,0,
,-0.252,0.646,0.65,88.562,68.664,-35.462,0,0,0,
,-0.24,0.653,0.682,39.55,70.556,-43.213,0,0,0,
,-0.245,0.684,0.651,26.794,63.964,-46.692,0,0,0,
,-0.239,0.696,0.625,30.761,54.992,-48.34,0,0,0,
,-0.238,0.709,0.656,22.766,44.738,-46.753,0,0,0,
,-0.223,0.722,0.652,18.127,40.649,-42.664,0,0,0,
,-0.221,0.72,0.635,27.587,33.63,-29.725,0,0,0,
,-0.235,0.701,0.646,27.526,32.043,-21.851,0,0,0,
,-0.238,0.699,0.648,20.996,36.499,-21.79,0,0,0,
,-0.252,0.689,0.662,12.512,37.353,-19.837,0,0,0,
,-0.248,0.675,0.658,-12.574,37.78,-20.813,0,0,0,
,-0.25,0.699,0.651,-20.447,26.062,-21.546,0,0,0,
,-0.247,0.711,0.662,-9.766,19.47,-19.349,0,0,0,
,-0.247,0.718,0.661,-13.062,18.127,-16.785,0,0,0,
,-0.245,0.736,0.655,2.075,21.179,-11.719,0,0,0,
,-0.253,0.72,0.65,6.774,21.667,-5.921,0,0,0,
,-0.25,0.719,0.655,8.422,24.231,-7.142,0,0,0,
,-0.253,0.714,0.656,20.202,22.766,-4.273,0,0,0,
,-0.261,0.701,0.661,24.108,20.141,-6.775,0,0,0,
,-0.258,0.701,0.657,25.756,19.714,-4.639,0,0,0,
,-0.257,0.7,0.668,26.428,16.418,0.793,0,0,0,
,-0.254,0.706,0.669,29.052,16.845,0.671,0,0,0,
,-0.261,0.709,0.671,42.663,13.244,1.709,0,0,0,
,-0.257,0.712,0.666,41.259,12.023,6.774,0,0,0,
,-0.248,0.715,0.676,45.532,7.568,8.239,0,0,0,
,-0.245,0.704,0.666,46.569,1.953,13,0,0,0,
,-0.251,0.68,0.658,23.681,0.793,9.216,0,0,0,
,-0.254,0.673,0.66,6.897,2.197,8.911,0,0,0,
,-0.261,0.673,0.665,-15.381,2.014,5.065,0,0,0,
,-0.257,0.688,0.645,-23.133,3.784,3.479,0,0,0,
,-0.264,0.697,0.653,-17.395,5.004,8.606,0,0,0,
,-0.263,0.716,0.656,-18.982,4.15,8.789,0,0,0,
,-0.266,0.728,0.654,9.887,1.159,14.77,0,0,0,
,-0.27,0.699,0.658,25.817,1.403,20.813,0,0,0,
,-0.269,0.709,0.653,25.268,2.868,21.24,0,0,0,
,-0.285,0.692,0.662,15.869,7.69,22.644,0,0,0,
,-0.294,0.697,0.651,3.173,5.676,23.376,0,0,0,
,-0.297,0.706,0.653,-8.912,7.263,21.484,0,0,0,
,-0.299,0.695,0.652,-12.269,10.376,25.329,0,0,0,
,-0.295,0.7,0.656,-11.048,13.916,31.738,0,0,0,
,-0.29,0.709,0.65,-0.916,18.676,36.987,0,0,0,
,-0.294,0.702,0.635,22.888,19.897,46.02,0,0,0,
,-0.296,0.692,0.641,34.545,17.639,45.959,0,0,0,
,-0.293,0.687,0.626,17.944,22.094,42.48,0,0,0,
,-0.299,0.678,0.621,3.784,24.658,42.785,0,0,0,
,-0.302,0.674,0.612,-51.27,35.339,30.883,0,0,0,
,-0.3,0.673,0.609,-58.594,42.297,28.442,0,0,0,
,-0.297,0.672,0.612,-57.862,51.452,31.127,0,0,0,
,-0.289,0.681,0.619,-40.528,56.762,32.653,0,0,0,
,-0.287,0.685,0.623,-11.231,58.898,35.888,0,0,0,
,-0.285,0.68,0.618,13.061,57.983,35.766,0,0,0,
,-0.287,0.672,0.618,15.38,60.73,36.987,0,0,0,
,-0.287,0.682,0.618,14.709,61.828,31.127,0,0,0,
,-0.281,0.668,0.625,14.648,64.086,31.066,0,0,0,
,-0.278,0.655,0.634,14.16,66.467,28.747,0,0,0,
,-0.275,0.66,0.64,17.517,68.664,26.428,0,0,0,
,-0.283,0.658,0.633,5.798,73.73,23.498,0,0,0,
,-0.273,0.677,0.643,0.061,80.993,19.409,0,0,0,
,-0.275,0.688,0.643,2.624,81.298,20.08,0,0,0,
,-0.273,0.69,0.648,20.019,86.425,21.362,0,0,0,
,-0.27,0.674,0.65,33.569,88.195,21.667,0,0,0,
,-0.271,0.673,0.658,47.119,88.378,24.414,0,0,0,
,-0.273,0.673,0.669,84.167,89.782,26.123,0,0,0,
,-0.279,0.65,0.675,94.055,93.139,26.916,0,0,0,
,-0.268,0.663,0.664,100.708,78.552,19.592,0,0,0,
,-0.278,0.651,0.662,112.487,96.679,20.507,0,0,0,
,-0.268,0.644,0.671,109.436,102.539,11.352,0,0,0,
,-0.26,0.634,0.687,106.506,103.393,8.85,0,0,0,
,-0.252,0.625,0.684,105.102,107.544,6.469,0,0,0,
,-0.25,0.622,0.685,94.421,103.027,-0.855,0,0,0,
,-0.251,0.605,0.68,78.735,101.257,-6.836,0,0,0,
,-0.256,0.61,0.717,60.546,102.111,-18.311,0,0,0,
,-0.246,0.619,0.69,41.687,102.234,-26.246,0,0,0,
,-0.242,0.622,0.703,33.142,103.027,-25.513,0,0,0,
,-0.231,0.637,0.705,34.79,104.553,-26.368,0,0,0,
,-0.231,0.645,0.706,43.09,97.473,-26.551,0,0,0,
,-0.229,0.636,0.702,44.555,91.735,-27.222,0,0,0,
,-0.242,0.639,0.705,37.109,90.21,-25.757,0,0,0,
,-0.241,0.644,0.721,43.762,91.796,-26.734,0,0,0,
,-0.234,0.642,0.715,46.386,90.881,-27.405,0,0,0,
,-0.239,0.65,0.711,52.429,88.256,-27.1,0,0,0,
,-0.238,0.662,0.719,74.401,86.669,-25.513,0,0,0,
,-0.237,0.658,0.723,113.403,85.754,-15.076,0,0,0,
,-0.228,0.645,0.734,143.982,86.364,-11.841,0,0,0,
,-0.228,0.65,0.749,167.968,86.364,-11.414,0,0,0,
,-0.225,0.638,0.741,173.645,87.341,-7.264,0,0,0,
,-0.22,0.634,0.74,187.439,87.402,-9.522,0,0,0,
,-0.223,0.615,0.752,168.64,88.44,-6.47,0,0,0,
,-0.216,0.612,0.758,169.677,91.919,-6.409,0,0,0,
,-0.219,0.602,0.768,187.072,95.581,1.586,0,0,0,
,-0.209,0.594,0.765,185.18,91.613,3.967,0,0,0,
,-0.213,0.587,0.769,177.795,83.801,7.141,0,0,0,
,-0.199,0.579,0.759,156.616,82.702,1.281,0,0,0,
,-0.198,0.564,0.763,126.342,77.209,1.159,0,0,0,
,-0.21,0.557,0.769,94.787,75.073,-2.747,0,0,0,
,-0.209,0.561,0.78,72.387,74.035,-7.447,0,0,0,
,-0.212,0.556,0.793,52.551,75.561,-6.226,0,0,0,
,-0.199,0.564,0.801,44.616,71.594,-10.865,0,0,0,
,-0.2,0.563,0.794,38.513,63.842,-11.658,0,0,0,
,-0.203,0.573,0.789,64.209,54.016,-13.916,0,0,0,
,-0.202,0.551,0.795,88.989,49.194,-9.095,0,0,0,
,-0.194,0.567,0.807,82.763,47.607,-17.456,0,0,0,
,-0.191,0.569,0.795,97.595,47.546,-17.212,0,0,0,
,-0.192,0.543,0.798,103.332,46.508,-18.067,0,0,0,
,-0.182,0.539,0.802,92.834,44.25,-23.743,0,0,0,
,-0.179,0.527,0.802,81.359,39.367,-25.879,0,0,0,
,-0.18,0.524,0.811,59.204,41.809,-28.138,0,0,0,
,-0.179,0.525,0.825,34.973,42.114,-30.701,0,0,0,
,-0.167,0.531,0.823,16.845,39.001,-34.607,0,0,0,
,-0.18,0.53,0.805,-1.404,31.25,-29.236,0,0,0,
,-0.177,0.541,0.805,-15.503,25.329,-32.898,0,0,0,
,-0.17,0.568,0.805,-16.358,19.47,-32.105,0,0,0,
,-0.18,0.558,0.811,2.929,19.043,-24.109,0,0,0,
,-0.183,0.546,0.819,5.371,20.507,-23.56,0,0,0,
,-0.18,0.533,0.809,14.038,16.845,-25.391,0,0,0,
,-0.187,0.551,0.821,34.057,16.906,-20.142,0,0,0,
,-0.19,0.547,0.809,29.724,17.395,-22.095,0,0,0,
,-0.186,0.564,0.799,32.287,14.221,-26.734,0,0,0,
,-0.199,0.538,0.809,33.325,18.432,-20.874,0,0,0,
,-0.183,0.542,0.802,11.291,21.789,-27.222,0,0,0,
,-0.187,0.556,0.805,22.705,23.254,-20.142,0,0,0,
,-0.188,0.553,0.808,31.066,26.062,-21.485,0,0,0,
,-0.186,0.555,0.794,32.348,27.587,-17.945,0,0,0,
,-0.191,0.551,0.799,44.616,29.602,-15.625,0,0,0,
,-0.184,0.557,0.799,55.664,29.724,-13.855,0,0,0,
,-0.191,0.542,0.8,68.298,31.311,-8.728,0,0,0,
,-0.192,0.544,0.809,78.674,33.142,-6.348,0,0,0,
,-0.187,0.559,0.812,116.943,31.066,-2.198,0,0,0,
,-0.193,0.54,0.811,152.16,26.611,4.821,0,0,0,
,-0.182,0.555,0.834,150.879,24.231,-1.709,0,0,0,
,-0.159,0.558,0.819,147.4,27.526,17.517,0,0,0,
,-0.184,0.481,0.829,136.352,22.277,-4.029,0,0,0,
,-0.179,0.508,0.832,120.971,30.212,-1.831,0,0,0,
,-0.161,0.497,0.831,101.013,32.959,9.216,0,0,0,
,-0.184,0.483,0.832,66.223,28.686,-8.851,0,0,0,
,-0.187,0.498,0.839,58.044,31.982,-6.653,0,0,0,
,-0.168,0.498,0.853,43.64,27.71,-8.545,0,0,0,
,-0.162,0.492,0.844,34.24,26.977,1.098,0,0,0,
,-0.178,0.467,0.838,12.756,17.578,-14.283,0,0,0,
,-0.172,0.5,0.824,7.995,16.418,-13.062,0,0,0,
,-0.179,0.502,0.826,18.676,17.761,-11.597,0,0,0,
,-0.181,0.508,0.844,41.748,16.967,-7.569,0,0,0,
,-0.18,0.499,0.825,63.903,13.122,-15.32,0,0,0,
,-0.166,0.498,0.846,81.054,10.681,2.197,0,0,0,
,-0.19,0.478,0.841,102.172,4.089,-1.343,0,0,0,
,-0.181,0.501,0.844,114.624,4.638,-5.005,0,0,0,
,-0.174,0.498,0.861,122.863,6.713,-2.808,0,0,0,
,-0.173,0.476,0.86,119.751,7.812,-6.226,0,0,0,
,-0.168,0.465,0.854,114.38,8.483,-5.31,0,0,0,
,-0.175,0.449,0.853,106.262,6.164,-6.775,0,0,0,
,-0.181,0.443,0.855,86.608,6.958,-8.24,0,0,0,
,-0.177,0.471,0.862,94.543,0.183,-9.827,0,0,0,
,-0.174,0.467,0.867,93.505,2.685,-7.996,0,0,0,
,-0.173,0.465,0.875,94.665,5.859,-9.217,0,0,0,
,-0.177,0.442,0.876,98.632,7.995,-4.151,0,0,0,
,-0.173,0.449,0.882,94.482,7.629,-9.827,0,0,0,
,-0.182,0.434,0.858,82.763,5.554,-14.71,0,0,0,
,-0.174,0.414,0.885,52.185,9.765,-3.54,0,0,0,
,-0.18,0.419,0.866,26.489,9.704,-15.503,0,0,0,
,-0.181,0.434,0.869,14.831,11.047,-21.241,0,0,0,
,-0.175,0.423,0.862,4.333,17.15,-21.912,0,0,0,
,-0.175,0.432,0.867,-11.719,11.962,-22.706,0,0,0,
,-0.176,0.425,0.862,-33.753,13.244,-26.368,0,0,0,
,-0.173,0.441,0.854,-53.04,12.085,-27.832,0,0,0,
,-0.183,0.432,0.858,-60.242,11.291,-25.757,0,0,0,
,-0.181,0.442,0.863,-76.294,11.413,-27.344,0,0,0,
,-0.18,0.462,0.854,-66.834,9.582,-27.466,0,0,0,
,-0.184,0.46,0.854,-39.734,7.507,-22.95,0,0,0,
,-0.183,0.46,0.863,-35.584,6.225,-22.889,0,0,0,
,-0.179,0.461,0.855,-31.128,4.516,-20.569,0,0,0,
,-0.185,0.464,0.862,-10.926,0.671,-17.456,0,0,0,
,-0.181,0.45,0.864,-18.494,3.295,-18.433,0,0,0,
,-0.175,0.472,0.849,-18.982,-0.916,-21.729,0,0,0,
,-0.185,0.459,0.854,1.159,-2.686,-17.701,0,0,0,
,-0.176,0.464,0.866,-13.916,-0.306,-21.18,0,0,0,
,-0.177,0.466,0.852,-9.034,2.563,-18.738,0,0,0,
,-0.182,0.442,0.853,-10.56,-2.686,-19.959,0,0,0,
,-0.182,0.445,0.856,-23.682,-0.611,-20.508,0,0,0,
,-0.188,0.457,0.866,-44.007,3.601,-23.072,0,0,0,
,-0.182,0.463,0.865,-58.594,10.253,-25.025,0,0,0,
,-0.18,0.473,0.863,-55.481,10.437,-26.673,0,0,0,
,-0.171,0.454,0.858,-78.919,12.146,-28.687,0,0,0,
,-0.17,0.468,0.835,-109.07,3.418,-32.227,0,0,0,
,-0.182,0.444,0.836,-124.512,4.028,-32.593,0,0,0,
,-0.172,0.465,0.847,-153.748,-2.747,-40.528,0,0,0,
,-0.18,0.468,0.85,-174.195,-0.184,-40.284,0,0,0,
,-0.176,0.474,0.841,-212.708,4.699,-49.378,0,0,0,
,-0.182,0.499,0.83,-219.788,2.319,-49.134,0,0,0,
,-0.17,0.519,0.814,-216.614,6.897,-49.866,0,0,0,
,-0.175,0.524,0.801,-208.558,0.305,-44.19,0,0,0,
,-0.19,0.544,0.809,-187.195,-2.442,-39.795,0,0,0,
,-0.187,0.568,0.818,-157.593,-1.16,-38.453,0,0,0,
,-0.188,0.564,0.813,-116.639,-2.686,-29.114,0,0,0,
,-0.194,0.556,0.821,-81.177,-5.616,-24.781,0,0,0,
,-0.186,0.573,0.815,-13.977,-15.503,-20.997,0,0,0,
,-0.193,0.545,0.815,8.361,-18.677,-13.977,0,0,0,
,-0.18,0.551,0.802,10.07,-22.583,-17.701,0,0,0,
,-0.194,0.524,0.795,9.826,-24.964,-12.513,0,0,0,
,-0.188,0.535,0.803,-15.198,-21.241,-20.325,0,0,0,
,-0.179,0.548,0.79,-20.63,-23.255,-22.522,0,0,0,
,-0.193,0.532,0.784,-38.819,-22.095,-27.894,0,0,0,
,-0.177,0.558,0.78,-59.205,-22.95,-34.302,0,0,0,
,-0.184,0.57,0.783,-44.983,-28.626,-27.161,0,0,0,
,-0.192,0.552,0.802,-37.537,-29.053,-26.917,0,0,0,
,-0.187,0.571,0.802,-40.894,-26.856,-26.49,0,0,0,
,-0.201,0.549,0.792,-38.086,-21.363,-17.945,0,0,0,
,-0.211,0.543,0.794,-50.477,-17.09,-17.273,0,0,0,
,-0.21,0.531,0.803,-56.214,-10.56,-20.691,0,0,0,
,-0.212,0.56,0.802,-44.068,-4.822,-13.062,0,0,0,
,-0.211,0.569,0.806,-25.025,-1.893,-11.414,0,0,0,
,-0.206,0.59,0.802,5.981,0.183,-5.494,0,0,0,
,-0.212,0.601,0.798,31.738,1.098,-4.883,0,0,0,
,-0.204,0.592,0.789,47.668,5.493,-2.381,0,0,0,
,-0.208,0.575,0.797,58.898,6.225,-0.855,0,0,0,
,-0.203,0.572,0.804,63.903,8.117,-5.249,0,0,0,
,-0.201,0.565,0.792,70.861,6.713,-5.738,0,0,0,
,-0.204,0.56,0.798,69.641,9.094,-7.996,0,0,0,
,-0.199,0.556,0.802,63.232,9.704,-9.095,0,0,0,
,-0.194,0.554,0.801,53.039,8.483,-9.034,0,0,0,
,-0.193,0.554,0.797,59.204,3.906,-9.461,0,0,0,
,-0.191,0.532,0.792,56.762,2.563,-7.264,0,0,0,
,-0.206,0.53,0.788,35.034,-3.113,-2.564,0,0,0,
,-0.204,0.548,0.79,33.813,-4.029,-9.095,0,0,0,
,-0.198,0.529,0.793,28.808,-2.198,-6.897,0,0,0,
,-0.198,0.536,0.782,7.019,-2.259,-10.804,0,0,0,
,-0.203,0.555,0.795,5.737,-10.132,-12.635,0,0,0,
,-0.207,0.538,0.793,16.662,-5.616,-12.696,0,0,0,
,-0.205,0.529,0.789,10.681,-6.165,-15.137,0,0,0,
,-0.206,0.543,0.796,8.789,-2.991,-15.87,0,0,0,
,-0.205,0.54,0.8,18.859,-0.916,-15.137,0,0,0,
,-0.212,0.538,0.8,18.554,-0.184,-15.015,0,0,0,
,-0.215,0.546,0.798,34.79,-0.855,-19.532,0,0,0,
,-0.217,0.537,0.805,50.354,6.164,-17.64,0,0,0,
,-0.216,0.541,0.797,64.453,12.39,-17.518,0,0,0,
,-0.22,0.55,0.807,102.905,15.991,-13.55,0,0,0,
,-0.211,0.535,0.811,122.131,19.775,-7.813,0,0,0,
,-0.215,0.526,0.804,127.319,20.202,-3.052,0,0,0,
,-0.214,0.524,0.797,135.742,20.996,-3.296,0,0,0,
,-0.206,0.513,0.797,135.559,22.949,-4.456,0,0,0,
,-0.209,0.5,0.812,128.418,25.695,-8.057,0,0,0,
,-0.203,0.491,0.815,114.441,28.137,-11.231,0,0,0,
,-0.212,0.483,0.815,99.609,29.541,-9.095,0,0,0,
,-0.212,0.484,0.812,74.096,30.212,-18.86,0,0,0,
,-0.204,0.492,0.822,58.41,31.494,-24.109,0,0,0,
,-0.198,0.49,0.824,41.137,27.465,-23.621,0,0,0,
,-0.198,0.493,0.816,36.682,21.972,-27.222,0,0,0,
,-0.2,0.495,0.818,41.381,16.845,-26.612,0,0,0,
,-0.193,0.499,0.818,32.348,16.235,-28.748,0,0,0,
,-0.195,0.487,0.818,27.038,15.991,-28.687,0,0,0,
,-0.199,0.495,0.824,24.414,17.578,-27.832,0,0,0,
,-0.199,0.502,0.831,20.324,19.409,-28.565,0,0,0,
,-0.203,0.497,0.832,11.474,20.263,-25.757,0,0,0,
,-0.203,0.505,0.834,9.399,18.127,-28.321,0,0,0,
,-0.197,0.503,0.836,9.216,18.432,-26.001,0,0,0,
,-0.2,0.511,0.832,11.962,16.723,-24.292,0,0,0,
,-0.197,0.513,0.842,20.019,18.554,-19.41,0,0,0,
,-0.193,0.515,0.839,33.752,17.211,-16.907,0,0,0,
,-0.201,0.493,0.838,48.156,16.601,-10.498,0,0,0,
,-0.193,0.493,0.844,35.827,13.732,-13.428,0,0,0,
,-0.192,0.493,0.835,31.433,12.695,-10.071,0,0,0,
,-0.203,0.493,0.839,34.423,10.864,-6.775,0,0,0,
,-0.199,0.486,0.848,31.25,13.122,-6.958,0,0,0,
,-0.203,0.483,0.838,27.404,14.892,-6.714,0,0,0,
,-0.208,0.473,0.845,25.268,11.962,-9.156,0,0,0,
,-0.201,0.472,0.848,11.596,9.643,-13.001,0,0,0,
,-0.201,0.48,0.839,0.732,7.324,-13.916,0,0,0,
,-0.205,0.483,0.84,-0.245,6.286,-15.564,0,0,0,
,-0.199,0.489,0.844,-1.465,6.836,-14.527,0,0,0,
,-0.198,0.488,0.833,5.92,7.934,-12.757,0,0,0,
,-0.205,0.484,0.846,11.84,5.737,-13.245,0,0,0,
,-0.206,0.484,0.845,9.399,5.798,-15.32,0,0,0,
,-0.208,0.486,0.847,7.019,1.342,-18.494,0,0,0,
,-0.208,0.481,0.837,8.728,2.929,-16.846,0,0,0,
,-0.208,0.479,0.837,3.479,5.615,-21.18,0,0,0,
,-0.206,0.491,0.845,1.464,5.859,-23.621,0,0,0,
,-0.205,0.494,0.838,11.291,9.155,-21.973,0,0,0,
,-0.2,0.484,0.828,15.075,7.629,-22.95,0,0,0,
,-0.195,0.487,0.832,18.92,5.432,-21.668,0,0,0,
,-0.202,0.493,0.836,24.841,6.103,-19.288,0,0,0,
,-0.202,0.484,0.835,32.348,6.164,-18.921,0,0,0,
,-0.199,0.489,0.844,44.372,6.53,-18.86,0,0,0,
,-0.203,0.473,0.836,45.41,6.53,-18.799,0,0,0,
,-0.203,0.473,0.834,43.212,7.324,-22.583,0,0,0,
,-0.204,0.475,0.832,41.32,10.009,-23.56,0,0,0,
,-0.202,0.48,0.831,49.987,10.803,-22.4,0,0,0,
,-0.202,0.469,0.835,48.889,10.192,-21.607,0,0,0,
,-0.202,0.488,0.838,57.861,10.62,-19.593,0,0,0,
,-0.203,0.49,0.836,81.97,9.643,-14.71,0,0,0,
,-0.201,0.476,0.842,97.351,4.455,-14.161,0,0,0,
,-0.203,0.481,0.844,110.534,6.53,-14.466,0,0,0,
,-0.198,0.48,0.85,127.99,4.15,-8.545,0,0,0,
,-0.208,0.471,0.855,153.686,10.559,-7.264,0,0,0,
,-0.204,0.451,0.853,163.818,8.178,-0.55,0,0,0,
,-0.205,0.441,0.852,172.546,10.498,0.854,0,0,0,
,-0.205,0.441,0.846,197.937,6.408,4.699,0,0,0,
,-0.21,0.431,0.866,206.115,9.582,5.92,0,0,0,
,-0.202,0.426,0.882,188.598,17.028,3.784,0,0,0,
,-0.206,0.407,0.868,166.931,18.127,4.089,0,0,0,
,-0.208,0.396,0.864,155.639,16.052,0.671,0,0,0,
,-0.201,0.412,0.874,158.996,14.587,-4.395,0,0,0,
,-0.2,0.409,0.879,175.415,14.16,-0.306,0,0,0,
,-0.2,0.393,0.885,189.209,12.268,-1.587,0,0,0,
,-0.21,0.385,0.893,203.613,10.681,-0.733,0,0,0,
,-0.21,0.383,0.906,209.533,11.84,2.197,0,0,0,
,-0.206,0.376,0.908,213.745,13.061,-1.404,0,0,0,
,-0.215,0.366,0.914,223.755,9.704,5.371,0,0,0,
,-0.212,0.358,0.919,248.718,8.789,2.441,0,0,0,
,-0.212,0.339,0.923,252.014,10.131,5.981,0,0,0,
,-0.214,0.331,0.912,239.38,5.31,2.319,0,0,0,
,-0.216,0.33,0.926,236.389,5.737,3.479,0,0,0,
,-0.202,0.305,0.921,228.942,4.577,0.366,0,0,0,
,-0.205,0.313,0.939,226.379,2.197,3.112,0,0,0,
,-0.203,0.318,0.935,237.854,-1.77,5.065,0,0,0,
,-0.209,0.312,0.936,273.62,-8.851,14.343,0,0,0,
,-0.21,0.284,0.938,297.241,-15.259,20.507,0,0,0,
,-0.212,0.276,0.936,310.058,-14.71,23.864,0,0,0,
,-0.207,0.255,0.938,321.228,-13.977,26.123,0,0,0,
,-0.211,0.234,0.955,314.758,-15.198,30.395,0,0,0,
,-0.213,0.21,0.958,281.005,-5.188,24.047,0,0,0,
,-0.219,0.2,0.955,260.254,-8.912,23.132,0,0,0,
,-0.214,0.202,0.958,258.178,-11.17,17.761,0,0,0,
,-0.215,0.197,0.957,280.151,-12.33,26.611,0,0,0,
,-0.214,0.181,0.96,302.795,-16.907,29.907,0,0,0,
,-0.215,0.155,0.962,291.442,-15.992,24.414,0,0,0,
,-0.217,0.137,0.953,279.174,-13.977,18.005,0,0,0,
,-0.225,0.122,0.955,275.146,-13.55,20.324,0,0,0,
,-0.221,0.13,0.96,282.287,-11.597,18.676,0,0,0,
,-0.222,0.115,0.967,294.86,-13.367,21.545,0,0,0,
,-0.223,0.092,0.974,298.156,-15.137,21.667,0,0,0,
,-0.219,0.097,0.98,304.321,-15.198,16.296,0,0,0,
,-0.222,0.101,0.97,307.556,-19.349,13.671,0,0,0,
,-0.23,0.069,0.972,299.743,-16.541,14.709,0,0,0,
,-0.229,0.039,0.974,285.217,-17.823,17.028,0,0,0,
,-0.232,0.022,0.986,261.291,-17.64,15.564,0,0,0,
,-0.222,0.014,0.984,238.281,-19.349,7.873,0,0,0,
,-0.239,0.008,0.98,212.341,-17.701,4.943,0,0,0,
,-0.237,0.012,0.983,180.847,-15.137,-1.404,0,0,0,
,-0.244,-0.005,0.99,155.456,-11.414,-0.184,0,0,0,
,-0.242,-0.009,0.984,136.352,-7.935,-8.24,0,0,0,
,-0.245,-0.015,0.98,132.507,-6.165,-8.973,0,0,0,
,-0.246,-0.019,0.972,133.361,-6.775,-11.719,0,0,0,
,-0.245,-0.032,0.971,140.503,-3.907,-10.437,0,0,0,
,-0.244,-0.043,0.977,122.314,3.234,-10.682,0,0,0,
,-0.244,-0.026,0.988,118.652,1.403,-14.405,0,0,0,
,-0.243,-0.058,0.995,95.886,3.479,-16.785,0,0,0,
,-0.236,-0.026,0.992,91.98,-2.503,-22.278,0,0,0,
,-0.244,-0.046,0.991,108.947,-1.77,-11.597,0,0,0,
,-0.239,-0.03,0.984,122.009,-9.034,-13.245,0,0,0,
,-0.246,-0.046,0.988,149.109,-10.01,1.892,0,0,0,
,-0.239,-0.045,0.992,123.962,-9.156,1.22,0,0,0,
,-0.245,-0.028,0.993,136.474,-10.987,3.356,0,0,0,
,-0.247,-0.06,0.989,144.897,-14.1,4.76,0,0,0,
,-0.255,-0.103,0.986,168.579,-19.165,5.31,0,0,0,
,-0.248,-0.083,0.975,167.48,-18.799,-0.428,0,0,0,
,-0.255,-0.109,0.977,177.795,-18.616,9.094,0,0,0,
,-0.249,-0.101,0.974,184.753,-17.273,6.713,0,0,0,
,-0.252,-0.123,0.981,191.406,-16.846,17.211,0,0,0,
,-0.25,-0.128,0.973,159.668,-14.588,21.789,0,0,0,
,-0.255,-0.139,0.974,172.119,-12.452,27.099,0,0,0,
,-0.259,-0.145,0.962,180.725,-12.024,30.029,0,0,0,
,-0.258,-0.158,0.971,206.482,-15.137,35.156,0,0,0,
,-0.258,-0.181,0.984,211.364,-16.297,37.719,0,0,0,
,-0.266,-0.186,0.969,183.349,-12.757,25.695,0,0,0,
,-0.266,-0.214,0.969,201.049,-9.827,31.982,0,0,0,
,-0.262,-0.215,0.957,207.458,-9.217,34.851,0,0,0,
,-0.269,-0.221,0.964,209.716,-4.517,40.405,0,0,0,
,-0.27,-0.233,0.968,208.801,0.061,41.259,0,0,0,
,-0.267,-0.241,0.954,218.933,9.582,48.217,0,0,0,
,-0.268,-0.236,0.949,239.502,13.366,59.631,0,0,0,
,-0.26,-0.269,0.945,261.474,17.517,67.932,0,0,0,
,-0.256,-0.293,0.946,267.822,15.93,73.669,0,0,0,
,-0.257,-0.313,0.952,259.277,12.512,77.697,0,0,0,
,-0.246,-0.297,0.929,282.959,12.146,88.623,0,0,0,
,-0.247,-0.327,0.938,318.42,8.361,100.341,0,0,0,
,-0.246,-0.37,0.94,321.045,5.065,100.708,0,0,0,
,-0.243,-0.392,0.935,299.926,1.159,92.712,0,0,0,
,-0.241,-0.404,0.922,278.808,0.976,84.411,0,0,0,
,-0.24,-0.392,0.895,282.653,-6.348,84.716,0,0,0,
,-0.249,-0.425,0.904,295.105,-15.381,95.336,0,0,0,
,-0.242,-0.43,0.903,294.067,-18.86,92.712,0,0,0,
,-0.244,-0.429,0.899,284.118,-16.358,86.608,0,0,0,
,-0.251,-0.468,0.894,263,-10.682,76.66,0,0,0,
,-0.24,-0.474,0.893,224.975,-4.883,56.884,0,0,0,
,-0.224,-0.472,0.874,170.654,3.051,39.428,0,0,0,
,-0.226,-0.479,0.867,174.377,-2.991,45.837,0,0,0,
,-0.228,-0.484,0.869,175.781,-2.137,54.748,0,0,0,
,-0.229,-0.467,0.866,188.171,-1.221,60.119,0,0,0,
,-0.232,-0.483,0.87,215.881,-1.343,70.983,0,0,0,
,-0.233,-0.522,0.856,252.929,13.366,101.745,0,0,0,
,-0.224,-0.511,0.844,252.502,16.296,104.858,0,0,0,
,-0.249,-0.523,0.848,271.118,16.784,114.441,0,0,0,
,-0.217,-0.555,0.849,275.817,13.916,123.291,0,0,0,
,-0.203,-0.57,0.849,280.09,13.244,125.061,0,0,0,
,-0.204,-0.591,0.83,270.202,10.925,126.403,0,0,0,
,-0.205,-0.572,0.827,266.54,6.103,129.821,0,0,0,
,-0.203,-0.584,0.819,268.921,2.868,138,0,0,0,
,-0.206,-0.632,0.809,258.911,0.549,153.991,0,0,0,
,-0.194,-0.587,0.806,238.586,0.61,149.414,0,0,0,
,-0.195,-0.578,0.784,233.703,-4.578,148.437,0,0,0,
,-0.196,-0.553,0.769,226.684,-5.921,144.897,0,0,0,
,-0.192,-0.578,0.763,231.872,-7.935,153.686,0,0,0,
,-0.189,-0.597,0.761,249.633,-11.353,170.471,0,0,0,
,-0.176,-0.646,0.753,262.451,-18.006,179.992,0,0,0,
,-0.175,-0.664,0.755,260.192,-19.288,181.762,0,0,0,
,-0.166,-0.667,0.75,257.324,-20.386,166.504,0,0,0,
,-0.17,-0.715,0.737,223.327,-14.222,167.053,0,0,0,
,-0.158,-0.716,0.741,183.288,-8.301,151.794,0,0,0,
,-0.132,-0.724,0.744,164.672,7.019,131.897,0,0,0,
,-0.126,-0.687,0.736,173.645,16.967,121.521,0,0,0,
,-0.132,-0.695,0.726,175.964,25.817,109.314,0,0,0,
,-0.153,-0.698,0.717,168.64,37.597,115.112,0,0,0,
,-0.136,-0.677,0.711,146.057,50.537,122.436,0,0,0,
,-0.144,-0.674,0.704,151.794,59.326,138,0,0,0,
,-0.119,-0.678,0.698,153.381,55.603,138.977,0,0,0,
,-0.097,-0.722,0.713,160.034,60.119,139.587,0,0,0,
,-0.114,-0.728,0.711,139.587,70.556,131.53,0,0,0,
,-0.113,-0.737,0.712,122.68,72.692,113.098,0,0,0,
,-0.111,-0.769,0.687,80.383,75.561,98.449,0,0,0,
,-0.101,-0.744,0.691,53.833,72.204,89.843,0,0,0,
,-0.093,-0.748,0.678,26.672,72.998,80.871,0,0,0,
,-0.081,-0.697,0.672,28.381,66.223,74.035,0,0,0,
,-0.076,-0.732,0.663,27.221,57.19,67.871,0,0,0,
,-0.063,-0.722,0.669,39.917,39.062,59.143,0,0,0,
,-0.066,-0.755,0.671,47.851,26.367,46.447,0,0,0,
,-0.07,-0.747,0.677,54.748,17.334,34.24,0,0,0,
,-0.074,-0.776,0.672,49.072,24.658,22.644,0,0,0,
,-0.069,-0.774,0.673,35.766,27.893,12.268,0,0,0,
,-0.065,-0.804,0.68,31.555,25.878,3.723,0,0,0,
,-0.058,-0.795,0.684,6.591,22.888,-13.062,0,0,0,
,-0.056,-0.769,0.672,-6.897,17.822,-26.185,0,0,0,
,-0.061,-0.758,0.676,-12.513,10.925,-37.11,0,0,0,
,-0.068,-0.756,0.694,-14.527,10.498,-41.321,0,0,0,
,-0.059,-0.755,0.68,-21.668,13.244,-47.181,0,0,0,
,-0.066,-0.763,0.693,-18.86,11.901,-46.448,0,0,0,
,-0.06,-0.747,0.691,-26.551,12.878,-52.43,0,0,0,
,-0.071,-0.762,0.687,-30.64,13.427,-53.711,0,0,0,
,-0.07,-0.763,0.683,-63.294,15.38,-56.946,0,0,0,
,-0.062,-0.728,0.679,-78.492,11.413,-63.05,0,0,0,
,-0.075,-0.733,0.685,-80.018,12.878,-65.247,0,0,0,
,-0.057,-0.727,0.677,-85.206,9.399,-66.651,0,0,0,
,-0.068,-0.737,0.678,-101.624,11.779,-69.825,0,0,0,
,-0.055,-0.729,0.685,-127.808,11.718,-77.21,0,0,0,
,-0.064,-0.717,0.697,-146.058,3.479,-83.008,0,0,0,
,-0.066,-0.718,0.701,-178.284,3.906,-92.347,0,0,0,
,-0.072,-0.7,0.714,-199.524,-3.968,-99.366,0,0,0,
,-0.08,-0.708,0.725,-230.774,-5.982,-103.882,0,0,0,
,-0.079,-0.711,0.719,-277.039,-10.926,-106.507,0,0,0,
,-0.087,-0.705,0.731,-331.971,-11.292,-110.718,0,0,0,
,-0.081,-0.652,0.718,-355.774,-12.818,-118.592,0,0,0,
,-0.097,-0.651,0.736,-336.609,-20.386,-123.536,0,0,0,
,-0.107,-0.638,0.741,-322.815,-8.057,-124.634,0,0,0,
,-0.108,-0.639,0.759,-285.462,0.061,-117.615,0,0,0,
,-0.109,-0.65,0.769,-279.541,7.812,-106.934,0,0,0,
,-0.108,-0.643,0.803,-284.058,11.779,-109.436,0,0,0,
,-0.099,-0.681,0.801,-305.603,15.075,-126.404,0,0,0,
,-0.108,-0.597,0.843,-282.654,1.403,-139.527,0,0,0,
,-0.115,-0.654,0.843,-312.5,-1.77,-153.748,0,0,0,
,-0.119,-0.653,0.813,-353.882,-11.109,-192.627,0,0,0,
,-0.125,-0.707,0.859,-456.665,-25.635,-228.028,0,0,0,
,-0.103,-0.566,0.884,-530.518,-51.758,-281.556,0,0,0,
,-0.111,-0.553,0.897,-458.191,-79.895,-287.171,0,0,0,
,-0.122,-0.592,0.887,-514.954,-104.31,-322.022,0,0,0,
,-0.138,-0.565,0.874,-573.67,-122.376,-352.906,0,0,0,
,-0.15,-0.564,0.881,-694.397,-138.306,-375,0,0,0,
,-0.139,-0.49,0.872,-821.778,-146.485,-420.105,0,0,0,
,-0.142,-0.399,0.886,-839.051,-168.152,-426.209,0,0,0,
,-0.171,-0.409,0.903,-874.329,-171.692,-433.838,0,0,0,
,-0.187,-0.307,0.936,-903.138,-164.246,-447.144,0,0,0,
,-0.191,-0.27,0.89,-892.212,-158.997,-427.369,0,0,0,
,-0.221,-0.267,0.88,-960.938,-170.227,-440.491,0,0,0,
,-0.217,-0.271,0.869,-1079.102,-170.411,-456.177,0,0,0,
,-0.223,-0.164,0.888,-1142.457,-176.758,-469.3,0,0,0,
,-0.235,-0.107,0.908,-1159.729,-177.308,-453.98,0,0,0,
,-0.235,0.002,0.912,-1157.532,-182.007,-463.807,0,0,0,
,-0.267,0.07,0.931,-1119.629,-179.81,-444.519,0,0,0,
,-0.256,0.08,0.904,-1142.945,-176.88,-439.759,0,0,0,
,-0.291,0.107,0.916,-1181.946,-176.331,-420.838,0,0,0,
,-0.278,0.158,0.911,-1210.816,-164.307,-426.331,0,0,0,
,-0.264,0.308,0.914,-1127.442,-180.237,-422.547,0,0,0,
,-0.292,0.272,0.889,-1080.079,-172.852,-365.906,0,0,0,
,-0.283,0.332,0.828,-1098.633,-175.843,-386.841,0,0,0,
,-0.304,0.406,0.827,-1064.087,-168.213,-367.859,0,0,0,
,-0.284,0.423,0.788,-1003.724,-163.941,-367.432,0,0,0,
,-0.281,0.447,0.8,-934.388,-169.861,-343.079,0,0,0,
,-0.282,0.402,0.794,-930.298,-170.35,-322.693,0,0,0,
,-0.261,0.471,0.754,-957.032,-175.599,-334.229,0,0,0,
,-0.264,0.531,0.722,-924.256,-187.012,-331.727,0,0,0,
,-0.262,0.565,0.687,-845.52,-193.604,-325.989,0,0,0,
,-0.273,0.567,0.679,-773.926,-196.228,-309.388,0,0,0,
,-0.273,0.531,0.667,-724.549,-185.547,-301.88,0,0,0,
,-0.261,0.576,0.663,-681.031,-174.317,-294.8,0,0,0,
,-0.265,0.575,0.643,-661.377,-177.979,-305.603,0,0,0,
,-0.256,0.59,0.601,-628.54,-180.726,-309.937,0,0,0,
,-0.283,0.623,0.562,-558.655,-188.172,-303.589,0,0,0,
,-0.288,0.644,0.547,-474.793,-189.27,-302.979,0,0,0,
,-0.273,0.665,0.558,-413.025,-186.768,-304.932,0,0,0,
,-0.262,0.694,0.567,-350.953,-182.923,-311.707,0,0,0,
,-0.269,0.696,0.551,-305.542,-176.88,-314.27,0,0,0,
,-0.288,0.71,0.545,-277.039,-173.584,-310.791,0,0,0,
,-0.277,0.737,0.542,-251.099,-165.528,-306.397,0,0,0,
,-0.288,0.79,0.528,-196.717,-158.814,-300.538,0,0,0,
,-0.292,0.817,0.527,-127.015,-148.743,-299.439,0,0,0,
,-0.284,0.851,0.526,-94.788,-134.461,-308.228,0,0,0,
,-0.274,0.864,0.521,-88.685,-111.939,-312.684,0,0,0,
,-0.276,0.828,0.542,-102.906,-79.163,-292.603,0,0,0,
,-0.269,0.865,0.525,-115.723,-54.383,-296.448,0,0,0,
,-0.263,0.904,0.512,-94.361,-39.49,-292.664,0,0,0,
,-0.251,0.911,0.49,-63.477,-40.039,-285.584,0,0,0,
,-0.257,0.924,0.478,-60.547,-44.983,-274.842,0,0,0,
,-0.23,0.935,0.474,-107.85,-31.434,-274.537,0,0,0,
,-0.218,0.952,0.482,-130.372,-50.965,-255.433,0,0,0,
,-0.231,0.947,0.487,-109.314,-48.035,-218.14,0,0,0,
,-0.216,0.964,0.46,-85.45,-51.331,-204.834,0,0,0,
,-0.228,0.968,0.454,-34.852,-52.491,-169.8,0,0,0,
,-0.224,0.941,0.432,-27.649,-47.425,-154.847,0,0,0,
,-0.224,0.939,0.421,-34.729,-38.208,-144.837,0,0,0,
,-0.227,0.931,0.43,-50.843,-23.926,-134.461,0,0,0,
,-0.203,0.925,0.467,-74.707,-9.766,-139.893,0,0,0,
,-0.195,0.921,0.432,-86.976,-1.16,-136.231,0,0,0,
,-0.181,0.9,0.411,-107.422,0.366,-135.498,0,0,0,
,-0.172,0.891,0.392,-107.727,-8.24,-129.822,0,0,0,
,-0.164,0.869,0.397,-59.571,-21.546,-115.418,0,0,0,
,-0.174,0.881,0.416,-19.532,-22.95,-109.681,0,0,0,
,-0.178,0.835,0.407,-27.039,-12.146,-100.22,0,0,0,
,-0.159,0.84,0.394,-58.045,-7.813,-107.483,0,0,0,
,-0.165,0.848,0.409,-82.459,-7.508,-95.765,0,0,0,
,-0.16,0.883,0.404,-95.704,-11.902,-104.859,0,0,0,
,-0.164,0.902,0.405,-78.003,-18.372,-91.614,0,0,0,
,-0.147,0.937,0.395,-64.881,-14.771,-92.957,0,0,0,
,-0.147,0.757,0.492,-150.33,-12.513,-27.222,0,0,0,
,-0.167,0.955,0.363,-457.032,17.15,-76.844,0,0,0,
,-0.147,1.168,0.307,-268.738,7.873,-47.852,0,0,0,
,-0.144,0.951,0.335,-70.557,2.136,-20.935,0,0,0,
,-0.144,0.883,0.368,-29.908,2.197,-42.359,0,0,0,
,-0.143,0.879,0.391,-22.339,17.211,-13.001,0,0,0,
,-0.152,0.855,0.369,-19.837,42.297,-6.409,0,0,0,
,-0.143,0.808,0.342,-11.475,75.012,0.732,0,0,0,
,-0.126,0.826,0.33,-85.572,102.234,-18.738,0,0,0,
,-0.142,0.854,0.334,-102.723,115.051,-42.176,0,0,0,
,-0.131,0.878,0.356,-67.872,115.295,-24.353,0,0,0,
,-0.119,0.891,0.364,-55.481,115.112,-20.752,0,0,0,
,-0.123,0.911,0.366,-60.181,115.112,-16.785,0,0,0,
,-0.127,0.973,0.37,-41.626,100.463,-26.49,0,0,0,
,-0.128,0.981,0.359,2.441,88.745,-9.583,0,0,0,
,-0.128,0.941,0.348,23.559,79.773,-5.799,0,0,0,
,-0.133,0.88,0.32,1.586,86.242,15.686,0,0,0,
,-0.131,0.943,0.311,-53.101,97.045,6.469,0,0,0,
,-0.119,0.974,0.342,-45.044,103.759,3.051,0,0,0,
,-0.113,0.905,0.354,-50.904,126.464,-13.733,0,0,0,
,-0.112,1.001,0.365,-36.866,119.812,-8.24,0,0,0,
,-0.15,0.993,0.353,30.273,120.483,28.137,0,0,0,
,-0.15,0.917,0.318,106.384,121.704,33.996,0,0,0,
,-0.134,0.866,0.314,88.256,124.633,29.052,0,0,0,
,-0.143,0.865,0.328,16.418,134.826,10.62,0,0,0,
,-0.144,0.902,0.362,-42.115,141.052,-2.32,0,0,0,
,-0.132,0.946,0.375,-24.17,133.178,0.061,0,0,0,
,-0.12,0.907,0.35,-6.165,113.098,2.136,0,0,0,
,-0.11,0.889,0.309,-49.5,83.435,-8.667,0,0,0,
,-0.111,0.903,0.31,-87.342,54.199,-23.56,0,0,0,
,-0.111,0.936,0.329,-96.619,24.658,-32.654,0,0,0,
,-0.097,0.875,0.355,-90.455,11.718,-40.65,0,0,0,
,-0.074,0.901,0.386,-60.791,-8.851,-24.109,0,0,0,
,-0.054,0.927,0.38,16.357,-45.472,-42.237,0,0,0,
,-0.069,0.93,0.382,67.504,-81.665,-6.897,0,0,0,
,-0.081,0.909,0.395,138.366,-110.352,23.62,0,0,0,
,-0.064,0.885,0.391,221.252,-124.573,54.199,0,0,0,
,-0.095,0.908,0.408,333.007,-167.725,62.255,0,0,0,
,-0.114,0.913,0.463,461.242,-181.519,58.837,0,0,0,
,-0.094,0.916,0.436,762.146,-221.558,65.368,0,0,0,
,-0.095,0.981,0.466,1091.43,-256.714,65.246,0,0,0,
,-0.134,0.8,0.506,1235.473,-247.986,70.007,0,0,0,
,-0.17,0.742,0.553,1172.729,-209.717,79.223,0,0,0,
,-0.148,0.789,0.58,904.052,-214.905,47.973,0,0,0,
,-0.153,0.83,0.695,868.347,-263.916,78.064,0,0,0,
,-0.212,0.775,0.567,895.996,-307.435,57.373,0,0,0,
,-0.251,0.544,0.711,888.61,-267.518,46.569,0,0,0,
,-0.215,0.76,0.756,1028.32,-208.619,-107.85,0,0,0,
,-0.204,0.439,0.897,882.629,-165.528,57.983,0,0,0,
,-0.332,0.33,0.72,369.629,-144.165,-79.163,0,0,0,
,-0.282,0.517,0.691,-54.383,-82.886,-99.183,0,0,0,
,-0.287,0.548,0.662,-286.866,-11.963,-106.629,0,0,0,
,-0.288,0.619,0.746,-389.893,57.739,-92.835,0,0,0,
,-0.251,0.664,0.717,-351.563,90.759,-99.122,0,0,0,
,-0.21,0.706,0.637,-119.263,100.341,-95.093,0,0,0,
,-0.169,0.784,0.658,201.66,72.265,-122.193,0,0,0,
,-0.181,0.784,0.693,564.941,47.668,-141.907,0,0,0,
,-0.198,0.763,0.732,854.492,54.992,-192.078,0,0,0,
,-0.212,0.805,0.774,1066.711,79.101,-249.512,0,0,0,
,-0.2,0.715,0.833,1230.59,148.01,-210.877,0,0,0,
,-0.167,0.545,0.769,1279.297,209.777,-206.36,0,0,0,
,-0.096,0.506,0.724,1192.627,262.512,-227.967,0,0,0,
,-0.081,0.338,0.811,1087.28,258.972,-190.064,0,0,0,
,-0.098,0.23,0.853,826.599,254.577,-161.499,0,0,0,
,-0.113,0.27,0.829,573.974,275.207,-173.218,0,0,0,
,-0.111,0.31,0.811,436.767,335.815,-179.749,0,0,0,
,-0.073,0.265,0.789,382.507,344.36,-192.139,0,0,0,
,-0.085,0.076,0.934,-239.258,363.83,-190.308,0,0,0,
,-0.111,0.676,1.111,-307.801,331.909,-244.019,0,0,0,
,0.057,0.505,1,305.603,251.342,-125.489,0,0,0,
,0.064,0.131,0.934,256.713,6.347,-28.626,0,0,0,
,-0.092,0.132,0.952,18.005,-78.431,-15.809,0,0,0,
,-0.15,0.325,0.924,-50.415,62.011,-93.811,0,0,0,
,-0.059,0.263,0.974,115.234,166.809,-95.643,0,0,0,
,0.046,0.088,1.02,36.01,158.203,-97.779,0,0,0,
,0.077,0.239,1.01,-85.144,81.848,-73.975,0,0,0,
,0.018,0.312,0.921,-61.28,2.563,-58.045,0,0,0,
,-0.046,0.26,0.939,-85.877,8.789,-91.309,0,0,0,
,-0.048,0.315,0.959,-110.596,53.344,-69.886,0,0,0,
,-0.008,0.344,0.939,-96.436,59.143,-70.801,0,0,0,
,0.003,0.341,0.929,-53.406,35.949,-51.758,0,0,0,
,-0.011,0.317,0.93,-32.044,22.888,-55.909,0,0,0,
,-0.006,0.306,0.926,-17.64,26.245,-50.66,0,0,0,
,0.005,0.274,0.933,-32.105,32.47,-47.364,0,0,0,
,0.016,0.272,0.929,-65.247,27.771,-32.349,0,0,0,
,0.016,0.283,0.939,-86.182,27.587,-35.889,0,0,0,
,0.019,0.305,0.96,-99.488,22.216,-21.79,0,0,0,
,0.01,0.268,0.928,-119.507,14.526,-18.311,0,0,0,
,-0.003,0.333,0.951,-127.381,14.099,-32.41,0,0,0,
,0.004,0.353,0.944,-95.765,22.644,-20.386,0,0,0,
,0.015,0.308,0.931,-103.15,16.418,-17.029,0,0,0,
,-0.001,0.264,0.932,-185.852,7.141,-18.006,0,0,0,
,-0.01,0.356,0.942,-194.947,12.695,-40.223,0,0,0,
,0.011,0.387,0.934,-184.449,16.662,-32.532,0,0,0,
,0.031,0.355,0.919,-195.069,18.432,-24.048,0,0,0,
,0.027,0.332,0.915,-261.292,9.277,-13.489,0,0,0,
,0.012,0.352,0.904,-290.406,1.648,-26.368,0,0,0,
,0.01,0.436,0.92,-215.943,-9.339,-21.79,0,0,0,
,0.008,0.428,0.905,-152.588,-21.485,-11.597,0,0,0,
,-0.002,0.422,0.89,-148.194,-18.799,-14.1,0,0,0,
,-0.003,0.448,0.896,-139.222,-10.376,-15.931,0,0,0,
,0.002,0.439,0.898,-132.264,1.648,-10.193,0,0,0,
,0.009,0.419,0.892,-138.977,5.676,-9.705,0,0,0,
,0.011,0.426,0.885,-138.367,-3.479,-12.452,0,0,0,
,0.001,0.438,0.891,-140.503,-10.621,-11.292,0,0,0,
,-0.005,0.426,0.876,-140.686,-8.423,-7.996,0,0,0,
,-0.002,0.449,0.885,-133.118,-8.973,-14.649,0,0,0,
,-0.006,0.453,0.88,-132.142,-13.001,-5.005,0,0,0,
,-0.02,0.448,0.88,-128.907,-15.076,-6.043,0,0,0,
,-0.02,0.464,0.878,-136.658,-4.517,-3.113,0,0,0,
,-0.011,0.494,0.869,-121.216,3.784,0.061,0,0,0,
,-0.002,0.499,0.86,-97.29,5.31,3.906,0,0,0,
,0.002,0.489,0.854,-68.97,2.258,8.85,0,0,0,
,-0.001,0.489,0.867,-43.885,-2.137,9.033,0,0,0,
,-0.008,0.475,0.86,-30.213,0.244,11.169,0,0,0,
,-0.012,0.468,0.865,-35.523,1.831,9.826,0,0,0,
,-0.014,0.477,0.859,-39.978,8.85,8.972,0,0,0,
,-0.008,0.483,0.853,-42.969,13.488,6.897,0,0,0,
,-0.003,0.487,0.854,-47.547,18.798,5.493,0,0,0,
,-0.007,0.486,0.843,-37.11,0.671,8.178,0,0,0,
,-0.01,0.493,0.85,-34.485,13.916,9.582,0,0,0,
,-0.019,0.497,0.855,-23.987,13.183,3.173,0,0,0,
,-0.02,0.486,0.857,-20.752,18.676,1.159,0,0,0,
,-0.009,0.486,0.847,-22.217,18.676,-4.212,0,0,0,
,-0.009,0.479,0.863,-23.926,12.39,-4.822,0,0,0,
,-0.016,0.487,0.855,-32.41,7.629,-1.404,0,0,0,
,-0.017,0.504,0.849,-39.063,9.277,-2.625,0,0,0,
,-0.015,0.524,0.845,-30.701,15.502,-2.747,0,0,0,
,-0.013,0.51,0.837,-6.226,12.207,1.281,0,0,0,
,-0.018,0.503,0.856,6.164,3.54,-4.395,0,0,0,
,-0.019,0.488,0.854,11.474,6.164,-5.066,0,0,0,
,-0.011,0.482,0.862,-0.367,8.117,-7.752,0,0,0,
,-0.007,0.482,0.854,-12.818,4.455,-9.705,0,0,0,
,-0.008,0.482,0.864,-21.668,0.122,-9.095,0,0,0,
,-0.004,0.489,0.845,-29.175,-0.245,-8.851,0,0,0,
,-0.021,0.525,0.836,-28.504,-0.123,-10.193,0,0,0,
,-0.027,0.526,0.822,-9.705,2.136,-11.17,0,0,0,
,-0.018,0.519,0.84,-3.785,15.197,-16.602,0,0,0,
,-0.014,0.493,0.848,8.85,10.376,-20.325,0,0,0,
,-0.02,0.475,0.848,3.112,4.028,-22.644,0,0,0,
,-0.02,0.494,0.851,-11.963,8.178,-23.804,0,0,0,
,-0.022,0.494,0.844,-19.349,12.085,-24.903,0,0,0,
,-0.018,0.51,0.849,-24.17,30.822,-28.626,0,0,0,
,-0.012,0.508,0.829,-22.583,18.432,-22.156,0,0,0,
,-0.01,0.521,0.829,-19.227,17.456,-21.668,0,0,0,
,-0.018,0.52,0.833,-10.254,16.54,-20.081,0,0,0,
,-0.028,0.512,0.848,3.784,17.028,-22.95,0,0,0,
,-0.023,0.501,0.854,4.394,21.911,-27.588,0,0,0,
,-0.014,0.495,0.854,-4.639,22.277,-26.612,0,0,0,
,-0.013,0.501,0.85,-18.677,16.052,-26.429,0,0,0,
,-0.019,0.512,0.84,-20.142,10.131,-24.537,0,0,0,
,-0.022,0.528,0.839,-17.762,14.16,-25.94,0,0,0,
,-0.013,0.524,0.832,-7.508,18.859,-25.574,0,0,0,
,-0.005,0.521,0.839,-2.869,16.906,-26.612,0,0,0,
,-0.002,0.506,0.835,-2.32,11.718,-23.621,0,0,0,
,-0.015,0.505,0.84,-0.977,4.272,-24.964,0,0,0,
,-0.024,0.507,0.844,-4.151,5.493,-27.283,0,0,0,
,-0.018,0.499,0.842,-9.705,18.249,-31.8,0,0,0,
,-0.007,0.505,0.842,-16.846,21.972,-34.913,0,0,0,
,-0.002,0.51,0.834,-20.752,16.723,-30.823,0,0,0,
,-0.004,0.525,0.838,-22.4,12.695,-26.062,0,0,0,
,-0.011,0.521,0.834,-20.752,9.704,-22.889,0,0,0,
,-0.017,0.526,0.836,-17.09,9.277,-26.612,0,0,0,
,-0.012,0.52,0.84,-12.818,11.84,-29.358,0,0,0,
,-0.003,0.511,0.838,-7.447,9.155,-26.856,0,0,0,
,-0.005,0.52,0.839,-8.728,4.211,-26.368,0,0,0,
,-0.017,0.515,0.833,-8.545,-2.137,-21.79,0,0,0,
,-0.023,0.53,0.836,-9.888,6.897,-27.588,0,0,0,
,-0.006,0.521,0.829,-5.616,18.798,-23.194,0,0,0,
,-0.001,0.517,0.83,-3.418,14.282,-24.292,0,0,0,
,-0.009,0.521,0.833,-8.179,10.315,-20.386,0,0,0,
,-0.015,0.514,0.835,-12.879,12.756,-22.95,0,0,0,
,-0.007,0.516,0.834,-11.475,18.493,-27.832,0,0,0,
,-0.004,0.516,0.835,-10.987,12.695,-25.879,0,0,0,
,-0.013,0.52,0.838,-19.349,7.751,-25.208,0,0,0,
,-0.011,0.519,0.83,-24.17,10.986,-25.391,0,0,0,
,-0.007,0.534,0.827,-27.588,15.564,-27.405,0,0,0,
,-0.004,0.537,0.822,-25.818,9.46,-23.987,0,0,0,
,-0.011,0.541,0.82,-16.846,5.737,-25.452,0,0,0,
,-0.01,0.537,0.824,-5.738,10.009,-28.26,0,0,0,
,-0.007,0.525,0.827,-4.883,10.07,-28.992,0,0,0,
,-0.004,0.522,0.833,-5.31,8.483,-30.091,0,0,0,
,-0.007,0.522,0.831,-8.423,6.408,-26.978,0,0,0,
,-0.005,0.532,0.826,-11.353,9.948,-24.842,0,0,0,
,0.029,0.526,0.829,-9.644,12.023,-23.011,0,0,0,
,-0.004,0.535,0.821,-16.053,6.164,-19.959,0,0,0,
,-0.019,0.535,0.82,-15.137,4.455,-22.889,0,0,0,
,-0.021,0.545,0.821,-9.827,11.718,-27.71,0,0,0,
,-0.001,0.537,0.827,-6.836,8.056,-27.588,0,0,0,
,-0.006,0.531,0.821,-7.508,3.906,-23.438,0,0,0,
,-0.015,0.548,0.822,-5.982,3.418,-26.185,0,0,0,
,-0.007,0.54,0.818,-0.428,16.601,-27.222,0,0,0,
,-0.006,0.54,0.825,2.136,14.038,-27.466,0,0,0,
,0.001,0.531,0.828,5.676,13.671,-21.851,0,0,0,
,-0.006,0.532,0.83,3.295,8.178,-17.762,0,0,0,
,-0.014,0.529,0.827,-0.306,7.446,-16.236,0,0,0,
,-0.012,0.533,0.832,-3.296,11.718,-20.874,0,0,0,
,-0.001,0.54,0.814,-2.869,12.939,-19.471,0,0,0,
,0.001,0.543,0.824,-1.709,8.667,-20.691,0,0,0,
,-0.002,0.546,0.82,2.38,6.469,-18.677,0,0,0,
,-0.006,0.535,0.826,2.746,5.615,-21.424,0,0,0,
,-0.003,0.536,0.821,-0.55,8.117,-25.33,0,0,0,
,0.002,0.533,0.822,-2.686,6.53,-25.574,0,0,0,
,-0.001,0.536,0.828,-4.883,1.953,-24.842,0,0,0,
,-0.006,0.532,0.823,-4.151,3.601,-21.729,0,0,0,
,-0.005,0.537,0.817,-1.893,4.211,-21.424,0,0,0,
,-0.008,0.552,0.814,-3.174,3.601,-23.682,0,0,0,
,-0.01,0.543,0.814,-1.282,8.239,-18.86,0,0,0,
,-0.008,0.543,0.82,-1.099,7.751,-26.246,0,0,0,
,-0.004,0.547,0.823,1.831,6.103,-23.072,0,0,0,
,-0.007,0.529,0.816,2.319,3.051,-24.231,0,0,0,
,-0.001,0.528,0.821,-1.282,12.329,-23.377,0,0,0,
,-0.002,0.543,0.817,-4.151,8.117,-23.011,0,0,0,
,-0.006,0.547,0.814,0.488,8.85,-21.912,0,0,0,
,-0.006,0.55,0.814,0.488,12.817,-22.034,0,0,0,
,-0.002,0.543,0.814,3.845,10.192,-19.776,0,0,0,
,-0.004,0.536,0.819,3.54,7.873,-21.729,0,0,0,
,-0.008,0.535,0.821,-5.799,12.634,-22.828,0,0,0,
,-0.003,0.546,0.817,-5.249,12.39,-24.048,0,0,0,
,0,0.558,0.809,-1.038,11.779,-20.447,0,0,0,
,-0.003,0.532,0.815,11.291,7.324,-14.893,0,0,0,
,-0.005,0.534,0.823,25.94,9.338,-10.01,0,0,0,
,-0.003,0.531,0.824,15.38,12.023,-16.053,0,0,0,
,0.001,0.534,0.823,6.347,12.207,-14.832,0,0,0,
,-0.007,0.536,0.819,-0.245,5.554,-15.809,0,0,0,
,-0.015,0.549,0.82,2.563,6.286,-18.494,0,0,0,
,-0.006,0.541,0.815,3.845,10.498,-17.151,0,0,0,
,-0.005,0.546,0.817,0.122,8.3,-19.104,0,0,0,
,0.001,0.545,0.815,3.234,7.019,-18.677,0,0,0,
,-0.003,0.544,0.818,1.159,2.807,-18.982,0,0,0,
,-0.01,0.547,0.815,5.249,3.479,-20.203,0,0,0,
,-0.009,0.541,0.819,4.821,8.178,-21.485,0,0,0,
,-0.002,0.54,0.821,-0.367,12.939,-22.644,0,0,0,
,0.003,0.54,0.82,1.22,12.817,-20.02,0,0,0,
,0,0.542,0.821,-0.184,7.629,-18.555,0,0,0,
,-0.01,0.538,0.817,-2.015,6.713,-19.959,0,0,0,
,-0.003,0.55,0.819,-2.869,9.46,-22.156,0,0,0,
,-0.006,0.549,0.812,-0.611,3.723,-15.564,0,0,0,
,-0.018,0.553,0.817,-1.893,1.892,-19.165,0,0,0,
,-0.007,0.545,0.819,2.38,11.779,-21.546,0,0,0,
,0.002,0.534,0.815,3.112,9.887,-20.325,0,0,0,
,0,0.547,0.818,-4.578,2.685,-23.621,0,0,0,
,-0.006,0.541,0.811,-0.611,5.981,-20.386,0,0,0,
,-0.004,0.545,0.817,-2.015,9.216,-25.391,0,0,0,
,-0.005,0.55,0.812,0.183,6.408,-21.485,0,0,0,
,-0.007,0.541,0.822,-2.747,6.53,-25.757,0,0,0,
,-0.001,0.553,0.813,-8.545,10.803,-22.4,0,0,0,
,-0.005,0.551,0.808,-2.137,4.699,-20.691,0,0,0,
,-0.011,0.553,0.817,4.638,5.371,-20.813,0,0,0,
,-0.01,0.553,0.812,7.019,9.46,-21.607,0,0,0,
,0.001,0.548,0.817,10.62,10.192,-21.729,0,0,0,
,0.005,0.541,0.815,7.019,8.422,-18.25,0,0,0,
,-0.004,0.548,0.818,1.953,2.563,-16.297,0,0,0,
,-0.01,0.549,0.814,0.915,4.455,-17.64,0,0,0,
,-0.012,0.546,0.813,-1.404,7.263,-18.677,0,0,0,
,-0.005,0.552,0.815,1.159,10.253,-20.142,0,0,0,
,-0.006,0.543,0.81,4.882,6.591,-16.907,0,0,0,
,-0.013,0.551,0.818,3.173,2.807,-19.837,0,0,0,
,-0.013,0.545,0.816,3.845,10.376,-20.447,0,0,0,
,-0.002,0.549,0.817,1.464,12.268,-24.414,0,0,0,
,-0.002,0.553,0.807,2.563,4.577,-20.02,0,0,0,
,-0.009,0.551,0.81,2.014,3.418,-16.968,0,0,0,
,-0.004,0.552,0.815,6.897,4.943,-18.677,0,0,0,
,-0.009,0.545,0.809,6.469,4.455,-17.273,0,0,0,
,-0.014,0.549,0.814,9.582,4.211,-18.555,0,0,0,
,-0.012,0.543,0.815,5.31,7.995,-21.485,0,0,0,
,-0.003,0.544,0.82,2.075,10.62,-18.433,0,0,0,
,-0.007,0.551,0.811,-0.733,5.798,-18.921,0,0,0,
,-0.004,0.557,0.813,2.746,8.178,-19.654,0,0,0,
,-0.002,0.549,0.813,8.117,5.859,-16.236,0,0,0,
,-0.006,0.552,0.782,7.568,4.638,-18.372,0,0,0,
,-0.01,0.55,0.809,8.728,3.234,-18.677,0,0,0,
,-0.01,0.552,0.815,9.399,3.906,-19.959,0,0,0,
,-0.009,0.546,0.815,11.169,7.629,-17.762,0,0,0,
,-0.007,0.543,0.819,9.46,8.789,-19.654,0,0,0,
,-0.01,0.544,0.817,2.258,6.286,-18.433,0,0,0,
,-0.013,0.544,0.812,0.305,5.676,-19.104,0,0,0,
,-0.009,0.55,0.81,-0.916,9.582,-21.729,0,0,0,
,-0.005,0.549,0.811,-3.54,9.399,-20.813,0,0,0,
,-0.008,0.56,0.811,1.403,3.54,-23.987,0,0,0,
,-0.013,0.553,0.811,3.723,4.943,-22.278,0,0,0,
,-0.007,0.554,0.814,6.958,9.094,-22.828,0,0,0,
,-0.007,0.545,0.819,4.882,5.004,-18.921,0,0,0,
,-0.019,0.547,0.813,1.403,0.793,-16.907,0,0,0,
,-0.014,0.549,0.814,1.464,8.483,-18.677,0,0,0,
,-0.01,0.552,0.811,-2.015,9.338,-20.691,0,0,0,
,-0.001,0.555,0.804,-1.404,10.315,-16.297,0,0,0,
,-0.013,0.562,0.805,3.662,3.662,-14.954,0,0,0,
,-0.017,0.551,0.816,9.887,4.516,-18.372,0,0,0,
,-0.01,0.552,0.81,3.662,11.291,-16.907,0,0,0,
,-0.007,0.561,0.814,6.103,8.3,-20.142,0,0,0,
,-0.008,0.553,0.813,10.437,6.408,-18.86,0,0,0,
,-0.014,0.544,0.81,7.568,7.385,-17.762,0,0,0,
,-0.007,0.555,0.814,5.432,7.019,-20.508,0,0,0,
,-0.007,0.548,0.808,6.591,5.859,-16.663,0,0,0,
,-0.009,0.554,0.816,4.577,4.76,-19.837,0,0,0,
,-0.007,0.554,0.808,6.713,7.69,-18.372,0,0,0,
,-0.009,0.553,0.811,5.554,6.408,-15.076,0,0,0,
,-0.015,0.553,0.811,7.568,3.906,-16.785,0,0,0,
,-0.012,0.549,0.811,5.615,9.643,-19.776,0,0,0,
,-0.011,0.556,0.81,5.371,5.92,-22.095,0,0,0,
,-0.016,0.55,0.808,8.422,4.211,-19.959,0,0,0,
,-0.013,0.556,0.812,7.446,6.774,-22.828,0,0,0,
,-0.009,0.551,0.809,8.056,8.667,-20.203,0,0,0,
,-0.01,0.555,0.811,8.3,8.483,-20.142,0,0,0,
,-0.008,0.551,0.811,9.033,9.033,-18.25,0,0,0,
,-0.005,0.549,0.814,8.85,10.376,-19.776,0,0,0,
,-0.007,0.553,0.814,8.178,7.324,-17.456,0,0,0,
,-0.015,0.547,0.814,8.117,1.22,-18.067,0,0,0,
,-0.022,0.551,0.812,4.76,2.502,-20.142,0,0,0,
,-0.018,0.544,0.811,0.61,13.427,-26.307,0,0,0,
,-0.005,0.555,0.813,1.403,12.634,-24.842,0,0,0,
,-0.006,0.555,0.813,-0.733,8.911,-22.583,0,0,0,
,-0.011,0.557,0.818,4.516,8.422,-22.461,0,0,0,
,-0.007,0.557,0.808,9.216,9.643,-18.067,0,0,0,
,-0.013,0.548,0.812,8.544,5.493,-17.456,0,0,0,
,-0.016,0.551,0.785,6.897,7.202,-20.569,0,0,0,
,-0.012,0.548,0.811,5.31,6.164,-20.264,0,0,0,
,-0.015,0.555,0.843,2.563,6.774,-23.865,0,0,0,
,-0.012,0.552,0.809,7.019,6.591,-22.583,0,0,0,
,-0.005,0.553,0.813,1.403,8.85,-21.973,0,0,0,
,-0.007,0.56,0.811,8.972,3.54,-18.372,0,0,0,
,-0.017,0.55,0.81,10.62,1.586,-18.189,0,0,0,
,-0.019,0.557,0.813,10.437,7.873,-20.691,0,0,0,
,-0.015,0.548,0.81,12.451,10.864,-21.18,0,0,0,
,-0.008,0.55,0.813,5.798,10.803,-22.156,0,0,0,
,-0.009,0.547,0.811,2.319,9.338,-20.203,0,0,0,
,-0.013,0.554,0.812,15.258,9.887,-22.828,0,0,0,
,-0.008,0.551,0.813,4.333,8.483,-19.532,0,0,0,
,-0.012,0.557,0.81,1.342,6.103,-20.569,0,0,0,
,-0.016,0.553,0.809,2.99,6.958,-20.752,0,0,0,
,-0.013,0.553,0.818,6.713,8.911,-23.682,0,0,0,
,-0.011,0.549,0.813,2.136,4.516,-22.034,0,0,0,
,-0.014,0.553,0.812,-0.306,5.371,-24.231,0,0,0,
,-0.007,0.558,0.804,1.464,11.108,-24.109,0,0,0,
,0.001,0.559,0.802,5.554,10.559,-21.607,0,0,0,
,-0.004,0.559,0.804,12.39,3.784,-18.799,0,0,0,
,-0.015,0.548,0.81,12.207,2.563,-17.518,0,0,0,
,-0.014,0.551,0.814,6.103,7.995,-20.447,0,0,0,
,-0.012,0.549,0.811,7.202,8.789,-20.203,0,0,0,
,-0.014,0.548,0.813,1.586,7.385,-21.241,0,0,0,
,-0.018,0.557,0.807,0.244,9.46,-20.752,0,0,0,
,-0.011,0.553,0.807,2.075,9.704,-22.4,0,0,0,
,-0.005,0.562,0.808,6.225,10.253,-22.156,0,0,0,
,-0.009,0.547,0.809,10.376,8.972,-19.471,0,0,0,
,-0.011,0.558,0.814,8.606,8.606,-19.288,0,0,0,
,-0.009,0.545,0.809,9.521,8.789,-19.288,0,0,0,
,-0.015,0.552,0.814,3.906,4.638,-19.654,0,0,0,
,-0.021,0.553,0.81,3.967,7.995,-18.25,0,0,0,
,-0.011,0.556,0.813,4.882,13.366,-19.471,0,0,0,
,-0.014,0.554,0.814,5.493,6.958,-19.043,0,0,0,
,-0.005,0.549,0.81,3.845,10.864,-20.142,0,0,0,
,-0.006,0.559,0.812,-0.672,5.31,-20.752,0,0,0,
,-0.015,0.554,0.805,3.418,0.366,-19.959,0,0,0,
,-0.018,0.557,0.808,7.69,7.263,-21.79,0,0,0,
,-0.014,0.553,0.812,1.037,6.408,-20.264,0,0,0,
,-0.013,0.556,0.807,1.953,9.094,-20.935,0,0,0,
,-0.01,0.56,0.841,5.676,10.437,-20.874,0,0,0,
,-0.007,0.555,0.809,11.779,8.85,-18.921,0,0,0,
,-0.012,0.551,0.812,9.582,3.54,-18.311,0,0,0,
,-0.017,0.547,0.811,6.408,3.234,-19.654,0,0,0,
,-0.016,0.552,0.807,1.037,7.995,-21.668,0,0,0,
,-0.008,0.561,0.806,2.99,9.521,-22.889,0,0,0,
,-0.009,0.55,0.808,7.69,8.789,-20.569,0,0,0,
,-0.014,0.56,0.813,9.948,5.127,-20.203,0,0,0,
,-0.015,0.55,0.811,10.498,9.216,-18.86,0,0,0,
,-0.013,0.553,0.815,4.394,8.361,-19.532,0,0,0,
,-0.016,0.555,0.807,4.699,7.324,-21.363,0,0,0,
,-0.014,0.555,0.811,6.103,10.803,-21.851,0,0,0,
,-0.013,0.554,0.805,7.873,10.742,-21.18,0,0,0,
,-0.012,0.553,0.809,6.103,7.751,-22.522,0,0,0,
,-0.012,0.557,0.814,6.408,6.958,-21.668,0,0,0,
,-0.01,0.549,0.809,9.582,7.751,-20.752,0,0,0,
,-0.01,0.553,0.815,5.065,10.681,-22.828,0,0,0,
,-0.013,0.554,0.805,1.77,6.164,-20.142,0,0,0,
,-0.016,0.555,0.808,1.342,7.019,-22.461,0,0,0,
,-0.007,0.559,0.81,6.286,10.315,-22.522,0,0,0,
,-0.008,0.552,0.811,5.249,7.995,-20.935,0,0,0,
,-0.017,0.553,0.814,7.141,5.554,-19.898,0,0,0,
,-0.02,0.551,0.809,3.356,9.399,-22.095,0,0,0,
,-0.012,0.554,0.811,2.197,13.244,-21.668,0,0,0,
,-0.009,0.556,0.806,4.516,9.216,-21.302,0,0,0,
,-0.012,0.554,0.812,8.239,7.202,-21.058,0,0,0,
,-0.014,0.548,0.812,8.178,10.07,-19.043,0,0,0,
,-0.012,0.557,0.816,4.699,8.483,-21.79,0,0,0,
,-0.015,0.555,0.808,5.981,8.239,-19.043,0,0,0,
,-0.009,0.559,0.806,8.178,8.239,-20.386,0,0,0,
,-0.016,0.554,0.805,10.498,5.798,-19.654,0,0,0,
,-0.014,0.554,0.812,10.009,8.178,-21.302,0,0,0,
,-0.009,0.555,0.807,11.108,10.07,-20.569,0,0,0,
,-0.011,0.55,0.81,11.23,3.784,-20.813,0,0,0,
,-0.012,0.557,0.807,9.582,8.728,-21.241,0,0,0,
,-0.011,0.553,0.807,10.498,6.958,-19.471,0,0,0,
,-0.007,0.556,0.817,9.094,9.704,-19.288,0,0,0,
,-0.011,0.553,0.81,8.3,7.08,-16.358,0,0,0,
,-0.017,0.556,0.814,8.667,6.347,-16.053,0,0,0,
,-0.012,0.554,0.808,11.474,8.361,-16.175,0,0,0,
,-0.009,0.551,0.812,10.131,6.774,-16.846,0,0,0,
,-0.01,0.561,0.807,9.887,4.577,-18.738,0,0,0,
,-0.014,0.549,0.81,11.23,5.432,-16.541,0,0,0,
,-0.02,0.549,0.812,4.76,7.995,-21.058,0,0,0,
,-0.013,0.555,0.811,0.671,11.779,-24.292,0,0,0,
,-0.009,0.558,0.807,3.295,12.085,-23.56,0,0,0,
,-0.011,0.558,0.809,7.751,9.521,-20.935,0,0,0,
,-0.012,0.552,0.815,7.568,8.606,-19.043,0,0,0,
,-0.013,0.548,0.815,4.76,8.361,-18.128,0,0,0,
,-0.017,0.544,0.814,-1.954,5.615,-16.724,0,0,0,
,-0.011,0.556,0.812,-5.31,8.483,-15.076,0,0,0,
,-0.011,0.548,0.807,-6.165,8.117,-8.912,0,0,0,
,-0.011,0.553,0.822,-9.949,7.873,-1.038,0,0,0,
,-0.011,0.544,0.804,-14.771,8.361,16.601,0,0,0,
,-0.015,0.53,0.817,-35.95,4.455,36.621,0,0,0,
,-0.024,0.577,0.803,-53.589,6.591,55.419,0,0,0,
,-0.019,0.553,0.807,-48.829,10.07,54.809,0,0,0,
,-0.011,0.539,0.815,-50.782,1.22,55.297,0,0,0,
,-0.016,0.54,0.824,-69.947,-17.701,61.523,0,0,0,
,-0.002,0.608,0.784,-159.546,-30.762,76.599,0,0,0,
,-0.03,0.606,0.783,-145.813,-31.8,73.852,0,0,0,
,-0.034,0.57,0.782,-132.019,-39.551,81.42,0,0,0,
,-0.05,0.586,0.793,-142.029,-47.303,65.795,0,0,0,
,-0.055,0.575,0.796,-163.819,-45.655,61.035,0,0,0,
,-0.051,0.587,0.78,-206.177,-48.768,53.649,0,0,0,
,-0.06,0.6,0.763,-258.484,-51.087,72.204,0,0,0,
,-0.079,0.591,0.707,-327.454,-66.163,104.675,0,0,0,
,-0.099,0.72,0.74,-539.856,-31.311,191.528,0,0,0,
,-0.043,0.707,0.744,-441.529,-37.354,67.26,0,0,0,
,-0.07,0.575,0.728,-462.22,-83.008,137.573,0,0,0,
,-0.122,0.634,0.682,-635.865,-57.129,124.328,0,0,0,
,-0.111,0.744,0.672,-672.486,-31.495,125.122,0,0,0,
,-0.092,0.759,0.64,-602.234,-34.363,126.892,0,0,0,
,-0.11,0.727,0.63,-568.421,-45.716,130.554,0,0,0,
,-0.133,0.739,0.616,-594.788,-33.753,133.056,0,0,0,
,-0.133,0.758,0.597,-618.775,-23.377,123.901,0,0,0,
,-0.121,0.791,0.571,-618.348,-18.006,117.614,0,0,0,
,-0.133,0.79,0.539,-595.52,-14.039,101.257,0,0,0,
,-0.162,0.801,0.523,-600.708,3.601,79.834,0,0,0,
,-0.172,0.799,0.499,-599.366,32.348,63.842,0,0,0,
,-0.163,0.842,0.494,-574.891,52.063,48.095,0,0,0,
,-0.154,0.842,0.469,-546.326,65.612,42.846,0,0,0,
,-0.155,0.869,0.412,-502.808,76.171,20.202,0,0,0,
,-0.159,0.894,0.383,-453.736,80.627,8.606,0,0,0,
,-0.163,0.898,0.378,-408.814,82.153,-5.616,0,0,0,
,-0.164,0.875,0.37,-398.011,91.308,-8.851,0,0,0,
,-0.16,0.891,0.364,-385.071,94.421,-16.114,0,0,0,
,-0.153,0.907,0.362,-368.714,96.984,-14.344,0,0,0,
,-0.154,0.917,0.332,-340.943,83.496,-2.564,0,0,0,
,-0.157,0.895,0.306,-362.732,93.017,1.525,0,0,0,
,-0.157,0.901,0.29,-397.583,105.041,2.258,0,0,0,
,-0.154,0.918,0.287,-406.067,101.867,9.704,0,0,0,
,-0.152,0.947,0.268,-375.977,95.581,10.131,0,0,0,
,-0.148,0.931,0.238,-353.943,90.698,19.409,0,0,0,
,-0.151,0.933,0.214,-343.628,94.543,14.221,0,0,0,
,-0.156,0.947,0.204,-325.623,90.759,1.586,0,0,0,
,-0.157,0.961,0.194,-282.959,88.195,-10.621,0,0,0,
,-0.137,0.971,0.183,-239.319,90.881,-23.865,0,0,0,
,-0.118,0.968,0.147,-174.256,80.2,-29.541,0,0,0,
,-0.114,0.979,0.137,-105.347,65.795,-44.373,0,0,0,
,-0.12,0.989,0.157,44.25,55.542,-37.781,0,0,0,
,-0.112,0.98,0.186,87.829,66.406,-28.26,0,0,0,
,-0.111,0.937,0.201,97.778,74.218,-14.771,0,0,0,
,-0.12,0.93,0.197,85.266,80.383,-9.766,0,0,0,
,-0.127,0.955,0.183,113.342,88.134,-19.288,0,0,0,
,-0.118,0.986,0.186,192.138,80.383,-42.054,0,0,0,
,-0.115,0.925,0.161,258.117,52.734,-44.19,0,0,0,
,-0.109,0.941,0.249,263.427,40.161,-54.749,0,0,0,
,-0.116,0.944,0.276,180.236,30.456,-60.608,0,0,0,
,-0.1,0.881,0.312,175.537,35.583,-38.147,0,0,0,
,-0.093,0.891,0.286,120.3,57.495,-12.391,0,0,0,
,-0.103,0.903,0.294,71.533,64.148,-31.128,0,0,0,
,-0.106,0.938,0.299,48.339,56.335,-23.926,0,0,0,
,-0.131,0.898,0.262,-86.365,80.627,-20.081,0,0,0,
,-0.12,0.921,0.27,-119.507,77.697,-23.377,0,0,0,
,-0.103,0.965,0.265,-88.99,67.321,-20.63,0,0,0,
,-0.11,0.967,0.243,0.305,46.997,-19.227,0,0,0,
,-0.127,0.941,0.243,76.477,33.935,-33.204,0,0,0,
,-0.122,0.925,0.239,78.002,33.935,-40.284,0,0,0,
,-0.114,0.917,0.265,45.044,14.343,-34.668,0,0,0,
,-0.113,0.926,0.255,32.043,26.184,-24.598,0,0,0,
,-0.111,0.939,0.244,31.738,25.268,-24.109,0,0,0,
,-0.12,0.95,0.241,70.068,8.239,-20.386,0,0,0,
,-0.127,0.951,0.253,115.783,2.624,-18.555,0,0,0,
,-0.123,0.923,0.257,125.122,9.155,-20.325,0,0,0,
,-0.116,0.921,0.268,99.548,13.427,-19.288,0,0,0,
,-0.121,0.916,0.281,79.406,8.483,-19.471,0,0,0,
,-0.121,0.922,0.291,67.565,5.981,-20.813,0,0,0,
,-0.112,0.919,0.29,55.236,7.08,-18.555,0,0,0,
,-0.106,0.943,0.281,63.232,3.112,-21.668,0,0,0,
,-0.117,0.935,0.271,69.091,-1.831,-22.644,0,0,0,
,-0.117,0.908,0.276,53.405,8.056,-25.391,0,0,0,
,-0.123,0.914,0.27,19.043,9.765,-27.527,0,0,0,
,-0.124,0.93,0.287,8.056,14.343,-34.974,0,0,0,
,-0.123,0.916,0.289,1.281,15.686,-30.152,0,0,0,
,-0.117,0.935,0.305,0.671,15.991,-29.358,0,0,0,
,-0.116,0.92,0.303,12.817,9.643,-25.147,0,0,0,
,-0.114,0.92,0.295,-10.621,15.747,-34.424,0,0,0,
,-0.115,0.921,0.283,-32.105,13.488,-27.283,0,0,0,
,-0.116,0.939,0.281,-47.913,12.146,-27.405,0,0,0,
,-0.118,0.907,0.284,-28.992,8.117,-24.048,0,0,0,
,-0.115,0.933,0.269,-28.748,3.54,-18.311,0,0,0,
,-0.117,0.925,0.274,31.311,-5.921,-21.058,0,0,0,
,-0.124,0.916,0.265,21.057,-5.677,-35.767,0,0,0,
,-0.104,0.928,0.245,33.691,4.516,-39.612,0,0,0,
,-0.088,0.934,0.233,33.264,1.464,-45.96,0,0,0,
,-0.091,0.941,0.249,67.993,0.671,-34.913,0,0,0,
,-0.098,0.881,0.328,-8.912,17.395,-31.678,0,0,0,
,-0.09,0.899,0.342,-53.589,16.296,-36.805,0,0,0,
,-0.098,0.932,0.328,-57.496,5.188,-29.053,0,0,0,
,-0.104,0.929,0.306,-38.331,-6.287,-31.434,0,0,0,
,-0.114,0.934,0.293,-33.57,-10.926,-33.204,0,0,0,
,-0.121,0.934,0.276,-27.344,-16.297,-41.199,0,0,0,
,-0.133,0.961,0.262,-23.743,-11.17,-38.208,0,0,0,
,-0.139,0.97,0.268,-14.954,0,-38.941,0,0,0,
,-0.133,0.979,0.301,6.286,16.601,-31.434,0,0,0,
,-0.118,0.971,0.304,26.855,26.794,-19.349,0,0,0,
,-0.111,0.99,0.275,46.447,30.578,-12.757,0,0,0,
,-0.122,1,0.262,110.229,20.813,-11.414,0,0,0,
,-0.143,0.956,0.265,129.211,21.606,-3.418,0,0,0,
,-0.146,0.94,0.27,111.023,19.653,-0.672,0,0,0,
,-0.154,0.949,0.281,126.831,11.779,-9.827,0,0,0,
,-0.151,0.9,0.278,153.869,11.23,-21.546,0,0,0,
,-0.131,0.876,0.307,136.84,8.178,-35.035,0,0,0,
,-0.118,0.876,0.323,83.984,15.014,-34.668,0,0,0,
,-0.1,0.903,0.287,63.171,16.601,-36.622,0,0,0,
,-0.112,0.908,0.271,23.62,13.366,-28.626,0,0,0,
,-0.103,0.971,0.291,27.954,11.047,-22.889,0,0,0,
,-0.118,0.922,0.298,39.184,6.652,-6.592,0,0,0,
,-0.132,0.949,0.315,30.09,6.53,1.281,0,0,0,
,-0.168,0.975,0.316,30.578,-4.883,31.372,0,0,0,
,-0.143,0.982,0.304,16.967,9.521,-0.184,0,0,0,
,-0.143,1.005,0.308,25.39,-2.869,28.93,0,0,0,
,-0.153,0.985,0.323,21.179,-5.921,46.386,0,0,0,
,-0.145,0.986,0.33,-15.686,5.004,42.968,0,0,0,
,-0.139,1.004,0.321,-30.823,8.972,54.26,0,0,0,
,-0.149,1.002,0.322,-26.123,6.958,65.49,0,0,0,
,-0.147,1.009,0.32,-28.26,12.695,74.035,0,0,0,
,-0.147,1.028,0.306,-28.26,10.009,76.11,0,0,0,
,-0.155,1.036,0.296,3.418,2.868,83.679,0,0,0,
,-0.158,1.033,0.297,39.428,3.112,89.294,0,0,0,
,-0.159,1.024,0.307,72.448,6.103,92.102,0,0,0,
,-0.156,1.007,0.318,111.877,7.446,107.849,0,0,0,
,-0.174,0.979,0.32,157.531,11.535,127.929,0,0,0,
,-0.187,0.955,0.314,199.951,13.244,134.704,0,0,0,
,-0.192,0.934,0.299,219.909,17.7,134.643,0,0,0,
,-0.194,0.92,0.289,233.825,20.324,124.084,0,0,0,
,-0.197,0.903,0.309,243.774,30.7,124.145,0,0,0,
,-0.196,0.884,0.329,239.746,49.316,120.117,0,0,0,
,-0.213,0.822,0.356,323.669,80.627,121.215,0,0,0,
,-0.213,0.826,0.366,327.27,85.022,112.06,0,0,0,
,-0.218,0.794,0.369,322.876,84.899,97.595,0,0,0,
,-0.232,0.752,0.402,304.87,88.806,84.777,0,0,0,
,-0.222,0.755,0.399,296.753,108.459,73.059,0,0,0,
,-0.208,0.738,0.405,309.143,117.92,72.265,0,0,0,
,-0.21,0.753,0.428,281.128,124.694,48.461,0,0,0,
,-0.206,0.748,0.433,272.644,131.042,49.194,0,0,0,
,-0.188,0.757,0.406,265.014,142.334,38.818,0,0,0,
,-0.178,0.754,0.456,248.169,143.188,31.005,0,0,0,
,-0.182,0.771,0.457,246.154,152.343,24.78,0,0,0,
,-0.171,0.771,0.469,269.47,148.62,31.677,0,0,0,
,-0.172,0.766,0.498,297.729,143.921,34.668,0,0,0,
,-0.165,0.776,0.515,318.969,141.418,34.545,0,0,0,
,-0.159,0.77,0.542,330.078,142.517,41.931,0,0,0,
,-0.147,0.786,0.551,357.666,130.249,45.898,0,0,0,
,-0.152,0.747,0.574,367.797,119.079,53.466,0,0,0,
,-0.141,0.719,0.578,338.44,111.328,53.466,0,0,0,
,-0.147,0.719,0.592,323.425,105.346,53.649,0,0,0,
,-0.147,0.717,0.602,321.106,104.248,61.767,0,0,0,
,-0.141,0.715,0.621,328.369,99.609,69.885,0,0,0,
,-0.147,0.717,0.651,346.435,88.256,76.11,0,0,0,
,-0.159,0.67,0.682,327.453,94.116,83.007,0,0,0,
,-0.144,0.685,0.687,286.132,93.994,78.369,0,0,0,
,-0.163,0.694,0.668,286.743,82.946,77.514,0,0,0,
,-0.16,0.689,0.685,325.134,71.167,74.768,0,0,0,
,-0.16,0.672,0.712,369.384,55.481,74.218,0,0,0,
,-0.175,0.67,0.709,400.695,52.429,75.073,0,0,0,
,-0.176,0.609,0.72,362.732,60.669,80.017,0,0,0,
,-0.187,0.579,0.735,267.395,81.726,68.542,0,0,0,
,-0.177,0.589,0.728,212.402,100.28,53.161,0,0,0,
,-0.188,0.581,0.716,187.622,107.605,40.527,0,0,0,
,-0.184,0.58,0.747,172.668,104.248,30.7,0,0,0,
,-0.185,0.586,0.729,188.415,91.125,23.132,0,0,0,
,-0.182,0.6,0.756,198.974,86.12,20.263,0,0,0,
,-0.175,0.607,0.766,203.369,82.031,16.052,0,0,0,
,-0.176,0.595,0.776,224.182,77.88,15.319,0,0,0,
,-0.178,0.576,0.787,239.502,75.561,14.099,0,0,0,
,-0.182,0.556,0.776,231.628,76.171,7.263,0,0,0,
,-0.178,0.55,0.779,227.6,71.716,7.08,0,0,0,
,-0.165,0.549,0.779,230.713,66.833,1.709,0,0,0,
,-0.177,0.548,0.798,232.055,62.866,6.652,0,0,0,
,-0.177,0.537,0.799,209.655,66.101,2.258,0,0,0,
,-0.168,0.549,0.8,221.557,54.992,2.868,0,0,0,
,-0.168,0.528,0.817,234.619,49.743,7.324,0,0,0,
,-0.166,0.536,0.826,243.286,47.851,9.155,0,0,0,
,-0.175,0.532,0.838,254.943,44.25,15.869,0,0,0,
,-0.167,0.516,0.84,267.883,42.114,18.615,0,0,0,
,-0.169,0.489,0.83,259.033,34.057,23.559,0,0,0,
,-0.174,0.495,0.84,255.127,19.104,17.089,0,0,0,
,-0.183,0.484,0.837,249.389,16.357,22.033,0,0,0,
,-0.177,0.461,0.839,217.773,15.93,11.962,0,0,0,
,-0.185,0.451,0.853,197.631,15.93,12.756,0,0,0,
,-0.171,0.464,0.868,209.961,9.155,8.85,0,0,0,
,-0.179,0.442,0.884,201.416,4.394,15.869,0,0,0,
,-0.177,0.455,0.88,192.077,3.845,10.742,0,0,0,
,-0.175,0.439,0.877,177.49,7.69,13.427,0,0,0,
,-0.18,0.42,0.869,159.729,8.544,11.474,0,0,0,
,-0.184,0.426,0.883,157.898,8.056,14.587,0,0,0,
,-0.173,0.408,0.869,145.446,6.103,10.315,0,0,0,
,-0.191,0.409,0.877,143.188,-3.357,10.925,0,0,0,
,-0.181,0.406,0.873,148.132,1.831,11.535,0,0,0,
,-0.187,0.406,0.873,151.794,1.77,11.962,0,0,0,
,-0.186,0.401,0.882,143.371,9.033,11.352,0,0,0,
,-0.182,0.402,0.892,143.005,9.094,11.779,0,0,0,
,-0.185,0.381,0.913,147.277,5.371,15.625,0,0,0,
,-0.178,0.378,0.904,121.948,5.31,6.286,0,0,0,
,-0.188,0.376,0.897,116.211,0.915,5.127,0,0,0,
,-0.193,0.353,0.884,91.98,1.464,3.54,0,0,0,
,-0.192,0.349,0.889,65.429,3.234,-2.93,0,0,0,
,-0.192,0.348,0.886,55.053,4.516,-7.63,0,0,0,
,-0.196,0.331,0.885,20.019,7.69,-9.339,0,0,0,
,-0.196,0.369,0.903,-2.93,9.643,-17.212,0,0,0,
,-0.189,0.369,0.901,3.845,9.033,-15.503,0,0,0,
,-0.193,0.368,0.905,2.868,5.92,-15.87,0,0,0,
,-0.187,0.372,0.895,3.173,3.112,-18.372,0,0,0,
,-0.2,0.366,0.901,16.723,0.61,-16.236,0,0,0,
,-0.197,0.354,0.9,3.234,4.394,-18.555,0,0,0,
,-0.197,0.395,0.908,16.052,7.263,-18.067,0,0,0,
,-0.197,0.362,0.915,24.536,6.408,-11.658,0,0,0,
,-0.198,0.381,0.91,48.461,1.281,-6.653,0,0,0,
,-0.198,0.372,0.91,60.119,-1.526,-6.226,0,0,0,
,-0.201,0.377,0.912,69.702,-0.672,-4.7,0,0,0,
,-0.197,0.357,0.908,76.477,-3.052,-5.005,0,0,0,
,-0.197,0.344,0.901,71.228,1.586,-5.005,0,0,0,
,-0.199,0.355,0.903,70.19,2.502,-7.508,0,0,0,
,-0.202,0.345,0.914,68.115,6.469,-8.24,0,0,0,
,-0.202,0.335,0.908,52.795,6.347,-10.315,0,0,0,
,-0.211,0.361,0.916,65.49,4.943,-9.705,0,0,0,
,-0.201,0.378,0.921,116.76,2.258,-7.142,0,0,0,
,-0.203,0.362,0.932,148.498,-4.273,-1.893,0,0,0,
,-0.198,0.344,0.945,145.019,-3.174,-5.249,0,0,0,
,-0.194,0.332,0.944,148.437,-7.081,-5.188,0,0,0,
,-0.199,0.304,0.933,136.108,-8.423,-5.677,0,0,0,
,-0.204,0.308,0.911,111.511,-11.475,-11.841,0,0,0,
,-0.2,0.319,0.91,114.929,-15.625,-8.973,0,0,0,
,-0.203,0.322,0.909,124.023,-18.189,-3.846,0,0,0,
,-0.202,0.314,0.927,124.755,-13.611,-2.625,0,0,0,
,-0.205,0.3,0.927,115.966,-15.198,0.915,0,0,0,
,-0.204,0.302,0.933,120.056,-19.959,2.563,0,0,0,
,-0.214,0.293,0.926,122.619,-21.302,6.774,0,0,0,
,-0.209,0.303,0.921,137.329,-24.414,5.859,0,0,0,
,-0.212,0.287,0.913,153.808,-25.452,12.573,0,0,0,
,-0.221,0.291,0.92,171.875,-21.058,16.052,0,0,0,
,-0.221,0.283,0.929,200.5,-17.762,23.925,0,0,0,
,-0.221,0.262,0.936,216.797,-18.982,24.78,0,0,0,
,-0.222,0.269,0.937,225.647,-20.142,23.315,0,0,0,
,-0.225,0.254,0.935,237.793,-18.555,22.705,0,0,0,
,-0.23,0.238,0.943,252.807,-16.297,27.221,0,0,0,
,-0.233,0.211,0.959,255.615,-15.137,27.954,0,0,0,
,-0.232,0.186,0.954,228.332,-8.118,29.724,0,0,0,
,-0.234,0.193,0.948,228.881,-7.264,27.954,0,0,0,
,-0.23,0.179,0.948,228.027,-5.249,28.93,0,0,0,
,-0.231,0.164,0.947,224.853,-6.287,27.648,0,0,0,
,-0.236,0.151,0.956,242.309,-7.691,33.935,0,0,0,
,-0.243,0.128,0.965,281.982,-13.977,44.067,0,0,0,
,-0.235,0.119,0.97,279.968,-10.56,40.283,0,0,0,
,-0.238,0.083,0.98,261.047,-9.644,41.931,0,0,0,
,-0.242,0.079,0.969,232.544,-12.696,32.226,0,0,0,
,-0.237,0.098,0.972,250.793,-19.898,32.714,0,0,0,
,-0.242,0.071,0.979,265.197,-19.532,39.123,0,0,0,
,-0.245,0.075,0.978,263.061,-18.494,43.09,0,0,0,
,-0.24,0.044,0.985,249.45,-14.649,45.044,0,0,0,
,-0.241,0.05,0.975,251.403,-18.799,40.222,0,0,0,
,-0.245,0.032,0.975,265.258,-24.781,47.424,0,0,0,
,-0.25,0.017,0.976,271.728,-27.527,45.044,0,0,0,
,-0.257,0.021,0.973,301.635,-32.898,49.743,0,0,0,
,-0.258,-0.012,0.973,313.964,-29.114,59.753,0,0,0,
,-0.25,-0.025,0.967,301.025,-27.71,57.251,0,0,0,
,-0.246,-0.042,0.962,296.386,-26.795,57.373,0,0,0,
,-0.256,-0.05,0.956,301.941,-29.541,57.8,0,0,0,
,-0.258,-0.068,0.968,321.045,-33.692,62.988,0,0,0,
,-0.254,-0.075,0.971,320.556,-33.326,64.453,0,0,0,
,-0.256,-0.09,0.966,308.044,-29.175,67.199,0,0,0,
,-0.244,-0.129,0.956,287.841,-21.851,68.237,0,0,0,
,-0.257,-0.116,0.972,276.245,-17.762,66.772,0,0,0,
,-0.258,-0.13,0.965,292.114,-22.095,73.974,0,0,0,
,-0.264,-0.138,0.968,304.626,-27.222,77.514,0,0,0,
,-0.273,-0.136,0.955,329.162,-26.612,81.054,0,0,0,
,-0.274,-0.166,0.948,334.533,-19.227,86.486,0,0,0,
,-0.265,-0.179,0.949,337.402,-9.461,87.402,0,0,0,
,-0.262,-0.219,0.956,351.562,-6.226,95.153,0,0,0,
,-0.261,-0.225,0.971,347.778,-6.226,87.89,0,0,0,
,-0.265,-0.21,0.965,341.674,-5.31,79.834,0,0,0,
,-0.27,-0.232,0.967,325.134,2.014,81.543,0,0,0,
,-0.269,-0.222,0.97,315.246,9.643,72.387,0,0,0,
,-0.272,-0.267,0.964,331.482,13.61,82.214,0,0,0,
,-0.271,-0.302,0.956,341.919,10.559,86.12,0,0,0,
,-0.267,-0.296,0.941,357.422,10.07,91.064,0,0,0,
,-0.268,-0.283,0.927,362.365,12.756,93.078,0,0,0,
,-0.262,-0.337,0.921,343.261,15.808,90.942,0,0,0,
,-0.254,-0.348,0.911,338.745,15.564,93.139,0,0,0,
,-0.251,-0.347,0.922,372.68,10.681,100.952,0,0,0,
,-0.249,-0.367,0.924,401.245,6.225,109.192,0,0,0,
,-0.245,-0.386,0.921,429.504,0.915,118.164,0,0,0,
,-0.239,-0.419,0.915,435.73,-5.86,126.403,0,0,0,
,-0.238,-0.421,0.894,420.593,-2.93,125.976,0,0,0,
,-0.237,-0.428,0.877,417.053,-5.249,125.488,0,0,0,
,-0.233,-0.469,0.869,397.827,-12.574,128.845,0,0,0,
,-0.233,-0.461,0.871,373.413,-18.006,129.577,0,0,0,
,-0.234,-0.465,0.842,368.408,-25.513,136.108,0,0,0,
,-0.232,-0.477,0.861,361.999,-32.898,148.071,0,0,0,
,-0.231,-0.466,0.851,358.52,-33.57,156.005,0,0,0,
,-0.219,-0.492,0.85,387.451,-30.701,172.058,0,0,0,
,-0.226,-0.553,0.834,373.779,-21.363,177.673,0,0,0,
,-0.218,-0.561,0.804,353.454,-10.987,175.842,0,0,0,
,-0.222,-0.561,0.783,337.463,-0.245,171.203,0,0,0,
,-0.212,-0.593,0.761,317.688,-4.273,172.241,0,0,0,
,-0.213,-0.615,0.765,290.161,-3.602,170.166,0,0,0,
,-0.198,-0.617,0.782,247.863,12.451,162.78,0,0,0,
,-0.192,-0.654,0.793,219.177,18.31,148.498,0,0,0,
,-0.183,-0.663,0.785,191.467,16.662,129.028,0,0,0,
,-0.175,-0.67,0.78,152.588,14.648,107.91,0,0,0,
,-0.18,-0.689,0.765,97.351,15.625,91.125,0,0,0,
,-0.181,-0.683,0.763,54.626,16.601,68.42,0,0,0,
,-0.171,-0.69,0.761,4.943,17.883,39.489,0,0,0,
,-0.167,-0.695,0.767,-54.017,16.723,5.493,0,0,0,
,-0.175,-0.645,0.784,-75.928,11.352,-31.617,0,0,0,
,-0.182,-0.671,0.796,-117.615,12.146,-57.923,0,0,0,
,-0.171,-0.661,0.79,-171.326,12.268,-91.126,0,0,0,
,-0.187,-0.684,0.792,-233.338,10.315,-110.169,0,0,0,
,-0.192,-0.683,0.773,-368.226,31.25,-143.677,0,0,0,
,-0.2,-0.699,0.763,-528.016,45.532,-163.453,0,0,0,
,-0.2,-0.629,0.819,-861.756,76.965,-231.08,0,0,0,
,-0.196,-0.563,0.841,-984.742,85.937,-263.855,0,0,0,
,-0.194,-0.449,0.851,-1064.026,97.29,-296.021,0,0,0,
,-0.193,-0.387,0.871,-1083.985,101.074,-302.735,0,0,0,
,-0.188,-0.364,0.858,-1093.75,81.481,-297.242,0,0,0,
,-0.156,-0.192,0.921,-933.594,-32.166,-248.23,0,0,0,
,-0.171,-0.155,0.97,-871.033,-36.072,-234.559,0,0,0,
,-0.198,-0.147,1.002,-903.687,-15.259,-227.539,0,0,0,
,-0.187,-0.077,1.011,-956.177,-4.7,-247.437,0,0,0,
,-0.212,-0.049,1.04,-1004.639,9.826,-240.784,0,0,0,
,-0.213,0.027,1.021,-1039.612,12.146,-270.874,0,0,0,
,-0.235,0.104,1.027,-980.103,-3.174,-250.672,0,0,0,
,-0.209,0.151,1.014,-906.861,-28.931,-249.024,0,0,0,
,-0.22,0.208,1.002,-767.518,-61.158,-227.723,0,0,0,
,-0.22,0.202,0.973,-676.087,-74.219,-209.656,0,0,0,
,-0.23,0.222,0.952,-655.335,-77.027,-206.36,0,0,0,
,-0.226,0.198,0.928,-683.167,-66.712,-212.586,0,0,0,
,-0.236,0.252,0.919,-740.845,-56.702,-218.934,0,0,0,
,-0.237,0.256,0.903,-771.607,-58.35,-207.093,0,0,0,
,-0.218,0.325,0.892,-804.017,-67.444,-216.309,0,0,0,
,-0.216,0.336,0.865,-877.869,-68.665,-223.999,0,0,0,
,-0.213,0.385,0.827,-945.923,-67.017,-245.972,0,0,0,
,-0.225,0.429,0.808,-974.244,-61.402,-243.836,0,0,0,
,-0.214,0.468,0.796,-1020.569,-49.622,-242.005,0,0,0,
,-0.211,0.499,0.778,-1083.619,-24.903,-235.657,0,0,0,
,-0.186,0.582,0.745,-1092.164,-14.161,-230.408,0,0,0,
,-0.201,0.634,0.722,-1030.945,-12.024,-213.807,0,0,0,
,-0.195,0.622,0.682,-959.717,-12.146,-201.539,0,0,0,
,-0.18,0.671,0.621,-892.09,19.226,-182.251,0,0,0,
,-0.166,0.689,0.606,-854.126,20.019,-171.692,0,0,0,
,-0.139,0.689,0.601,-838.257,9.277,-153.016,0,0,0,
,-0.139,0.695,0.562,-834.9,-7.325,-133.179,0,0,0,
,-0.123,0.731,0.535,-825.501,-29.541,-115.296,0,0,0,
,-0.102,0.737,0.518,-833.252,-45.472,-88.196,0,0,0,
,-0.084,0.79,0.506,-812.317,-56.824,-63.233,0,0,0,
,-0.086,0.795,0.466,-730.774,-72.632,-29.175,0,0,0,
,-0.07,0.783,0.421,-638.245,-99.671,8.422,0,0,0,
,-0.067,0.794,0.373,-578.309,-130.127,33.203,0,0,0,
,-0.073,0.827,0.351,-594.056,-154.297,29.113,0,0,0,
,-0.115,0.832,0.34,-596.558,-169.068,22.155,0,0,0,
,-0.13,0.873,0.322,-561.707,-178.711,8.606,0,0,0,
,-0.168,0.895,0.292,-367.249,-228.455,-21.119,0,0,0,
,-0.186,0.924,0.291,-281.861,-235.23,-37.964,0,0,0,
,-0.198,0.928,0.294,-185.059,-239.136,-47.974,0,0,0,
,-0.185,0.926,0.291,-93.811,-235.352,-58.167,0,0,0,
,-0.188,0.952,0.268,-3.418,-243.897,-70.923,0,0,0,
,-0.206,0.958,0.267,65.612,-250.184,-107.422,0,0,0,
,-0.209,0.948,0.25,86.792,-256.165,-116.7,0,0,0,
,-0.216,0.952,0.284,113.281,-248.352,-138.123,0,0,0,
,-0.222,0.941,0.259,114.257,-230.957,-168.641,0,0,0,
,-0.194,0.923,0.262,119.69,-208.741,-198.548,0,0,0,
,-0.186,0.923,0.244,161.743,-195.74,-200.989,0,0,0,
,-0.207,0.962,0.224,266.174,-194.031,-199.341,0,0,0,
,-0.218,0.967,0.219,336.303,-183.838,-211.67,0,0,0,
,-0.22,0.906,0.238,293.274,-153.077,-222.352,0,0,0,
,-0.226,0.858,0.256,165.527,-108.094,-233.643,0,0,0,
,-0.202,0.893,0.224,47.18,-53.162,-228.577,0,0,0,
,-0.191,0.977,0.171,50.537,-22.156,-212.525,0,0,0,
,-0.185,1.022,0.1,101.318,-23.987,-204.651,0,0,0,
,-0.191,1.02,0.133,113.281,-28.26,-208.558,0,0,0,
,-0.203,0.933,0.181,40.405,-16.48,-202.088,0,0,0,
,-0.202,0.92,0.184,-39.307,2.014,-175.782,0,0,0,
,-0.201,0.96,0.183,-92.774,9.216,-149.781,0,0,0,
,-0.198,0.983,0.179,-124.695,18.371,-140.32,0,0,0,
,-0.185,1.002,0.185,-141.48,21.301,-123.963,0,0,0,
,-0.18,0.951,0.164,-180.237,13.366,-119.996,0,0,0,
,-0.172,0.965,0.155,-210.083,19.714,-88.562,0,0,0,
,-0.151,0.991,0.193,-122.864,15.93,-75.501,0,0,0,
,-0.145,0.965,0.177,-116.7,28.015,-69.642,0,0,0,
,-0.128,0.946,0.155,-173.706,45.715,-64.942,0,0,0,
,-0.11,0.975,0.152,-204.956,41.381,-58.594,0,0,0,
,-0.112,1.024,0.171,-184.815,27.099,-56.641,0,0,0,
,-0.123,1.02,0.236,-142.64,18.005,-37.293,0,0,0,
,-0.124,1.021,0.213,-139.893,21.972,-23.255,0,0,0,
,-0.115,1.046,0.187,-110.291,23.864,-13.672,0,0,0,
,-0.109,1.005,0.167,-83.313,18.92,-25.147,0,0,0,
,-0.117,0.966,0.181,-138.977,27.526,10.315,0,0,0,
,-0.136,1.009,0.147,-177.002,27.221,-15.076,0,0,0,
,-0.105,0.958,0.177,-130.372,37.658,-4.578,0,0,0,
,-0.112,0.921,0.18,-112.732,25.94,-5.921,0,0,0,
,-0.119,0.927,0.16,-100.403,20.446,-4.151,0,0,0,
,-0.115,0.934,0.142,-72.754,6.897,-9.827,0,0,0,
,-0.119,0.944,0.1,-43.946,-7.752,-13.794,0,0,0,
,-0.115,1.16,0.065,-51.453,-6.775,9.704,0,0,0,
,-0.157,1.252,0.05,-29.602,-0.367,8.789,0,0,0,
,-0.179,0.871,0.054,190.246,11.23,7.934,0,0,0,
,-0.129,0.776,0.12,124.939,51.269,10.192,0,0,0,
,-0.105,0.932,0.14,-13.245,60.791,-7.019,0,0,0,
,-0.125,0.98,0.13,1.22,47.607,-12.635,0,0,0,
,-0.134,0.922,0.079,29.419,55.542,-36.438,0,0,0,
,-0.103,0.877,0.068,4.821,57.495,-58.899,0,0,0,
,-0.075,0.922,0.12,-28.931,33.325,-108.765,0,0,0,
,-0.066,0.939,0.174,-2.808,8.544,-108.277,0,0,0,
,-0.088,0.943,0.197,-3.052,-16.053,-103.638,0,0,0,
,-0.093,0.955,0.223,-22.339,-7.63,-110.718,0,0,0,
,-0.067,0.983,0.233,-38.208,2.441,-100.953,0,0,0,
,-0.063,0.994,0.235,-29.602,-13.367,-96.619,0,0,0,
,-0.083,0.998,0.19,-41.443,-6.653,-68.116,0,0,0,
,-0.082,1.004,0.152,-38.88,13.671,-48.584,0,0,0,
,-0.078,1.012,0.112,-38.025,13.732,-36.988,0,0,0,
,-0.078,1.014,0.104,-11.109,4.76,-30.213,0,0,0,
,-0.088,0.993,0.114,-5.738,-2.747,-28.077,0,0,0,
,-0.099,0.996,0.126,-3.54,-3.785,-29.419,0,0,0,
,-0.099,0.976,0.128,6.836,-5.921,-37.415,0,0,0,
,-0.097,0.961,0.131,9.948,-17.579,-39.917,0,0,0,
,-0.106,0.942,0.116,9.643,-15.015,-37.598,0,0,0,
,-0.099,0.94,0.11,-8.606,-4.639,-48.829,0,0,0,
,-0.072,0.972,0.104,-8.057,1.159,-31.006,0,0,0,
,-0.059,0.97,0.116,35.827,-19.288,-34.546,0,0,0,
,-0.071,0.958,0.11,37.597,2.38,-11.902,0,0,0,
,-0.057,0.976,0.115,68.359,2.319,-10.682,0,0,0,
,-0.07,0.962,0.141,89.66,-5.616,-1.343,0,0,0,
,-0.088,0.94,0.155,93.017,-8.667,-4.761,0,0,0,
,-0.09,0.927,0.185,70.617,3.784,-3.113,0,0,0,
,-0.092,0.969,0.15,51.757,26.428,6.53,0,0,0,
,-0.088,0.971,0.156,73.852,22.949,-3.907,0,0,0,
,-0.096,0.965,0.166,80.505,10.681,-11.963,0,0,0,
,-0.114,0.943,0.164,105.346,9.521,-21.363,0,0,0,
,-0.122,0.935,0.166,116.943,21.972,-17.823,0,0,0,
,-0.077,0.949,0.173,-26.551,19.653,-34.058,0,0,0,
,-0.068,0.962,0.182,-37.964,0.549,-38.331,0,0,0,
,-0.076,0.958,0.19,-38.025,-10.132,-34.913,0,0,0,
,-0.071,0.961,0.197,-29.664,-8.973,-34.241,0,0,0,
,-0.058,0.955,0.177,-34.058,-1.282,-21.607,0,0,0,
,-0.06,0.943,0.175,-37.293,-5.677,-25.94,0,0,0,
,-0.067,0.948,0.158,-58.716,-6.165,-25.33,0,0,0,
,-0.079,0.935,0.151,-69.581,-19.532,-22.156,0,0,0,
,-0.092,0.924,0.15,-107.789,-25.208,-27.161,0,0,0,
,-0.085,0.936,0.154,-158.57,-21.302,-23.011,0,0,0,
,-0.061,0.965,0.161,-194.886,-20.997,-19.593,0,0,0,
,-0.057,0.975,0.143,-199.524,-35.889,-9.522,0,0,0,
,-0.071,0.972,0.141,-192.566,-51.026,-7.325,0,0,0,
,-0.086,0.96,0.122,-177.918,-57.496,-9.461,0,0,0,
,-0.093,0.945,0.091,-169.495,-54.688,-20.264,0,0,0,
,-0.08,0.97,0.08,-166.504,-57.373,-22.4,0,0,0,
,-0.072,0.988,0.057,-157.532,-59.571,-28.26,0,0,0,
,-0.066,1.004,0.07,-120.545,-77.82,-19.349,0,0,0,
,-0.106,0.99,0.081,-8.118,-54.871,6.225,0,0,0,
,-0.1,0.979,0.067,41.503,-44.556,-3.479,0,0,0,
,-0.099,0.954,0.06,45.471,-33.204,-15.748,0,0,0,
,-0.107,0.961,0.062,45.227,-33.692,-37.354,0,0,0,
,-0.118,0.955,0.071,44.799,-20.691,-57.435,0,0,0,
,-0.108,0.934,0.088,29.907,-7.935,-69.642,0,0,0,
,-0.094,0.945,0.106,9.155,7.141,-49.927,0,0,0,
,-0.085,0.98,0.091,-8.545,27.648,-20.691,0,0,0,
,-0.08,0.988,0.092,4.333,23.803,-9.278,0,0,0,
,-0.092,0.971,0.102,28.808,25.695,-3.785,0,0,0,
,-0.105,0.955,0.098,59.875,36.804,1.586,0,0,0,
,-0.104,0.962,0.074,76.171,51.086,-7.081,0,0,0,
,-0.091,0.969,0.057,103.393,57.495,-6.714,0,0,0,
,-0.077,0.989,0.064,155.273,47.79,-0.123,0,0,0,
,-0.076,0.989,0.099,195.129,22.705,2.868,0,0,0,
,-0.07,0.994,0.115,230.896,7.446,20.507,0,0,0,
,-0.081,0.977,0.119,254.455,0.366,17.944,0,0,0,
,-0.089,0.974,0.117,284.423,1.953,11.718,0,0,0,
,-0.097,0.981,0.112,331.604,-7.63,12.878,0,0,0,
,-0.119,0.918,0.128,421.386,9.521,11.535,0,0,0,
,-0.095,0.916,0.212,344.299,22.522,4.882,0,0,0,
,-0.094,0.918,0.28,274.231,23.925,11.108,0,0,0,
,-0.103,0.939,0.309,251.892,6.286,26.977,0,0,0,
,-0.132,0.886,0.299,207.397,4.76,31.189,0,0,0,
,-0.093,0.929,0.264,34.179,32.959,-10.926,0,0,0,
,-0.091,0.912,0.247,29.357,21.179,-23.804,0,0,0,
,-0.1,0.917,0.265,-2.259,20.202,-22.156,0,0,0,
,-0.115,0.953,0.249,11.413,26.916,-5.677,0,0,0,
,-0.118,0.939,0.255,20.935,29.48,-15.137,0,0,0,
,-0.116,0.924,0.262,26.001,28.869,-12.879,0,0,0,
,-0.118,0.924,0.264,13.855,27.282,-15.809,0,0,0,
,-0.108,0.923,0.27,-2.625,28.137,-20.264,0,0,0,
,-0.101,0.94,0.258,-0.855,21.484,-17.029,0,0,0,
,-0.106,0.938,0.252,9.887,8.422,-19.837,0,0,0,
,-0.111,0.928,0.261,14.221,1.159,-19.776,0,0,0,
,-0.107,0.906,0.267,7.385,3.234,-26.551,0,0,0,
,-0.102,0.923,0.262,4.638,5.065,-15.625,0,0,0,
,-0.107,0.924,0.261,-0.489,2.746,-15.32,0,0,0,
,-0.107,0.928,0.249,-3.602,9.582,-21.851,0,0,0,
,-0.101,0.927,0.257,1.037,9.826,-25.391,0,0,0,
,-0.106,0.939,0.258,-2.442,7.873,-14.527,0,0,0,
,-0.101,0.943,0.257,10.376,9.216,-18.86,0,0,0,
,-0.1,0.927,0.244,23.62,6.713,-21.851,0,0,0,
,-0.104,0.911,0.245,1.098,8.606,-18.555,0,0,0,
,-0.101,0.94,0.269,-2.625,8.85,-11.963,0,0,0,
,-0.104,0.949,0.261,13.366,6.225,-8.667,0,0,0,
,-0.115,0.925,0.255,3.784,12.146,-9.583,0,0,0,
,-0.117,0.934,0.26,1.098,15.625,-16.114,0,0,0,
,-0.117,0.932,0.271,15.014,11.474,-14.527,0,0,0,
,-0.114,0.912,0.27,3.601,11.047,-10.865,0,0,0,
,-0.118,0.921,0.255,-16.541,12.268,-9.888,0,0,0,
,-0.115,0.953,0.247,-7.752,13.427,-15.931,0,0,0,
,-0.109,0.934,0.25,8.117,14.892,-16.968,0,0,0,
,-0.112,0.916,0.254,2.868,12.268,-12.635,0,0,0,
,-0.117,0.935,0.25,-5.005,14.892,-15.564,0,0,0,
,-0.106,0.932,0.247,8.85,13.427,-23.255,0,0,0,
,-0.11,0.92,0.267,6.53,6.469,-17.579,0,0,0,
,-0.12,0.926,0.263,-0.916,6.103,-21.424,0,0,0,
,-0.118,0.934,0.254,-5.005,6.469,-25.94,0,0,0,
,-0.114,0.931,0.254,0.305,8.117,-25.147,0,0,0,
,-0.11,0.938,0.253,-0.672,9.765,-21.424,0,0,0,
,-0.12,0.923,0.252,8.422,10.315,-21.729,0,0,0,
,-0.114,0.923,0.254,1.586,9.704,-22.217,0,0,0,
,-0.109,0.931,0.265,0.671,7.263,-22.095,0,0,0,
,-0.111,0.926,0.26,2.197,3.051,-24.964,0,0,0,
,-0.116,0.932,0.252,-0.061,2.197,-28.87,0,0,0,
,-0.1,0.943,0.237,-8.973,8.178,-22.217,0,0,0,
,-0.105,0.937,0.247,3.54,8.972,-22.156,0,0,0,
,-0.107,0.933,0.251,7.141,6.286,-15.32,0,0,0,
,-0.112,0.931,0.259,12.756,4.455,-19.104,0,0,0,
,-0.114,0.932,0.254,11.718,6.103,-23.133,0,0,0,
,-0.115,0.941,0.253,10.803,9.399,-15.503,0,0,0,
,-0.12,0.929,0.252,19.958,8.178,-17.762,0,0,0,
,-0.12,0.924,0.254,7.812,11.474,-20.142,0,0,0,
,-0.109,0.934,0.262,4.028,13.366,-18.982,0,0,0,
,-0.106,0.936,0.265,10.07,7.812,-21.729,0,0,0,
,-0.108,0.941,0.262,14.892,7.324,-21.363,0,0,0,
,-0.116,0.922,0.251,20.08,7.751,-16.785,0,0,0,
,-0.13,0.918,0.254,22.094,6.53,-14.1,0,0,0,
,-0.128,0.91,0.253,7.995,20.996,-23.56,0,0,0,
,-0.107,0.922,0.252,-3.479,23.681,-24.476,0,0,0,
,-0.1,0.939,0.251,2.929,12.634,-25.147,0,0,0,
,-0.097,0.937,0.255,-0.489,9.46,-23.865,0,0,0,
,-0.095,0.938,0.239,1.098,2.075,-17.518,0,0,0,
,-0.104,0.948,0.236,8.239,1.831,-21.058,0,0,0,
,-0.106,0.932,0.246,9.948,5.92,-17.395,0,0,0,
,-0.11,0.934,0.244,6.836,7.385,-15.442,0,0,0,
,-0.119,0.94,0.255,11.596,2.807,-20.874,0,0,0,
,-0.124,0.924,0.257,17.639,4.516,-21.729,0,0,0,
,-0.119,0.923,0.261,-13.977,9.582,-21.79,0,0,0,
,-0.111,0.931,0.26,0.122,12.023,-20.386,0,0,0,
,-0.104,0.939,0.255,3.845,13.244,-17.029,0,0,0,
,-0.113,0.929,0.249,7.019,6.286,-11.231,0,0,0,
,-0.125,0.925,0.257,11.291,2.99,-14.222,0,0,0,
,-0.11,0.923,0.252,-2.137,16.235,-23.011,0,0,0,
,-0.105,0.933,0.255,-5.921,11.657,-24.292,0,0,0,
,-0.104,0.931,0.255,1.77,7.507,-24.72,0,0,0,
,-0.11,0.929,0.253,-3.54,6.652,-26.673,0,0,0,
,-0.108,0.951,0.243,-0.55,13.794,-17.151,0,0,0,
,-0.102,0.939,0.256,11.23,8.361,-23.804,0,0,0,
,-0.119,0.933,0.256,-0.855,10.986,-21.973,0,0,0,
,-0.116,0.928,0.257,3.112,7.568,-21.912,0,0,0,
,-0.116,0.938,0.249,1.464,9.643,-19.471,0,0,0,
,-0.111,0.929,0.246,-0.306,9.399,-23.133,0,0,0,
,-0.107,0.934,0.245,1.098,12.512,-20.203,0,0,0,
,-0.122,0.918,0.258,12.695,9.399,-19.837,0,0,0,
,-0.111,0.917,0.252,-2.625,11.169,-24.292,0,0,0,
,-0.109,0.942,0.249,-11.658,10.986,-18.555,0,0,0,
,-0.113,0.939,0.245,-0.489,9.338,-23.133,0,0,0,
,-0.115,0.925,0.25,4.699,8.361,-19.959,0,0,0,
,-0.113,0.936,0.253,-0.977,10.803,-21.607,0,0,0,
,-0.104,0.945,0.254,9.033,10.925,-21.668,0,0,0,
,-0.11,0.923,0.248,9.582,8.728,-20.569,0,0,0,
,-0.111,0.926,0.246,2.868,10.009,-16.785,0,0,0,
,-0.112,0.938,0.249,2.258,9.338,-18.616,0,0,0,
,-0.118,0.928,0.25,8.483,7.568,-24.537,0,0,0,
,-0.12,0.923,0.254,-4.151,10.07,-22.4,0,0,0,
,-0.109,0.948,0.248,-6.104,14.587,-22.889,0,0,0,
,-0.1,0.946,0.28,8.544,9.521,-21.912,0,0,0,
,-0.111,0.933,0.256,14.404,3.54,-13.794,0,0,0,
,-0.122,0.926,0.252,15.441,3.356,-13.001,0,0,0,
,-0.118,0.928,0.249,7.934,12.695,-21.241,0,0,0,
,-0.113,0.926,0.247,7.263,9.277,-25.025,0,0,0,
,-0.112,0.926,0.25,3.601,9.338,-19.898,0,0,0,
,-0.115,0.931,0.249,-0.855,9.155,-23.133,0,0,0,
,-0.107,0.925,0.251,-6.775,11.84,-24.842,0,0,0,
,-0.109,0.939,0.25,-2.747,8.3,-21.363,0,0,0,
,-0.109,0.937,0.244,3.051,8.3,-21.18,0,0,0,
,-0.108,0.934,0.249,4.211,9.46,-20.386,0,0,0,
,-0.12,0.927,0.25,-15.503,6.591,-23.377,0,0,0,
,-0.116,0.939,0.243,2.014,10.315,-24.353,0,0,0,
,-0.109,0.933,0.245,0.488,9.765,-23.926,0,0,0,
,-0.11,0.936,0.245,2.929,8.3,-20.752,0,0,0,
,-0.108,0.942,0.249,3.234,8.85,-21.607,0,0,0,
,-0.106,0.933,0.251,9.948,9.277,-19.532,0,0,0,
,-0.109,0.936,0.253,7.69,8.606,-18.067,0,0,0,
,-0.115,0.93,0.25,10.07,6.042,-15.198,0,0,0,
,-0.124,0.927,0.251,8.972,8.911,-20.997,0,0,0,
,-0.118,0.928,0.253,5.554,11.901,-23.804,0,0,0,
,-0.109,0.928,0.248,4.15,11.291,-22.95,0,0,0,
,-0.103,0.939,0.245,9.521,7.263,-19.41,0,0,0,
,-0.11,0.936,0.246,14.953,6.225,-22.156,0,0,0,
,-0.112,0.933,0.255,15.258,6.469,-23.926,0,0,0,
,-0.113,0.922,0.252,9.826,4.577,-17.823,0,0,0,
,-0.12,0.933,0.246,2.685,6.652,-23.499,0,0,0,
,-0.107,0.939,0.247,4.882,10.986,-16.724,0,0,0,
,-0.106,0.932,0.253,14.465,6.042,-20.63,0,0,0,
,-0.111,0.926,0.253,13.549,7.385,-20.813,0,0,0,
,-0.109,0.927,0.246,5.188,8.422,-18.25,0,0,0,
,-0.107,0.934,0.248,1.037,8.911,-23.987,0,0,0,
,-0.111,0.934,0.248,4.699,8.361,-20.63,0,0,0,
,-0.113,0.933,0.246,-0.55,8.3,-21.119,0,0,0,
,-0.115,0.935,0.251,0.793,8.178,-20.935,0,0,0,
,-0.112,0.938,0.246,7.08,10.803,-22.583,0,0,0,
,-0.112,0.935,0.248,8.483,7.507,-22.217,0,0,0,
,-0.116,0.928,0.25,11.23,6.652,-21.363,0,0,0,
,-0.11,0.935,0.249,6.347,11.291,-22.156,0,0,0,
,-0.107,0.931,0.25,6.53,10.253,-20.447,0,0,0,
,-0.109,0.933,0.248,1.648,8.667,-20.386,0,0,0,
,-0.108,0.934,0.247,2.685,11.657,-20.02,0,0,0,
,-0.105,0.935,0.251,3.173,9.338,-21.485,0,0,0,
,-0.109,0.939,0.244,7.202,5.31,-19.043,0,0,0,
,-0.115,0.928,0.253,7.873,9.582,-19.959,0,0,0,
,-0.11,0.937,0.249,6.164,10.07,-21.607,0,0,0,
,-0.109,0.935,0.249,10.742,8.789,-15.32,0,0,0,
,-0.111,0.931,0.247,11.657,8.789,-17.518,0,0,0,
,-0.112,0.926,0.241,11.474,5.127,-18.189,0,0,0,
,-0.111,0.924,0.243,4.821,9.643,-23.804,0,0,0,
,-0.107,0.935,0.246,3.295,9.216,-23.682,0,0,0,
,-0.11,0.934,0.254,8.178,8.85,-24.414,0,0,0,
,-0.113,0.923,0.22,1.709,9.46,-24.353,0,0,0,
,-0.112,0.94,0.245,-4.029,14.099,-22.095,0,0,0,
,-0.107,0.95,0.248,5.188,12.146,-23.926,0,0,0,
,-0.107,0.929,0.255,19.226,5.798,-16.602,0,0,0,
,-0.111,0.923,0.246,12.817,4.455,-18.921,0,0,0,
,-0.114,0.933,0.252,6.836,7.324,-21.729,0,0,0,
,-0.11,0.934,0.254,3.601,7.324,-21.79,0,0,0,
,-0.108,0.933,0.252,3.173,7.873,-21.973,0,0,0,
,-0.106,0.931,0.251,3.418,7.934,-22.217,0,0,0,
,-0.111,0.937,0.247,7.995,8.972,-20.997,0,0,0,
,-0.111,0.933,0.248,9.277,9.399,-19.043,0,0,0,
,-0.111,0.934,0.251,9.155,6.713,-20.02,0,0,0,
,-0.115,0.931,0.255,11.108,4.882,-22.095,0,0,0,
,-0.117,0.933,0.255,15.258,8.606,-23.255,0,0,0,
,-0.104,0.925,0.254,11.901,11.901,-20.447,0,0,0,
,-0.103,0.932,0.245,3.662,9.521,-18.189,0,0,0,
,-0.102,0.937,0.248,4.272,11.413,-18.128,0,0,0,
,-0.106,0.94,0.248,6.408,10.803,-18.921,0,0,0,
,-0.112,0.931,0.253,13.549,5.798,-19.165,0,0,0,
,-0.112,0.93,0.255,10.07,7.08,-23.865,0,0,0,
,-0.11,0.93,0.251,11.047,8.178,-22.461,0,0,0,
,-0.107,0.936,0.25,8.361,10.009,-19.654,0,0,0,
,-0.107,0.936,0.248,10.559,8.667,-18.616,0,0,0,
,-0.113,0.927,0.251,6.958,10.864,-16.053,0,0,0,
,-0.118,0.933,0.253,6.774,7.934,-19.593,0,0,0,
,-0.115,0.924,0.255,10.864,6.286,-20.813,0,0,0,
,-0.11,0.933,0.238,-0.245,12.878,-19.104,0,0,0,
,-0.106,0.932,0.261,-0.123,8.239,-30.091,0,0,0,
,-0.109,0.932,0.252,11.413,9.765,-17.579,0,0,0,
,-0.109,0.939,0.251,14.465,8.239,-17.945,0,0,0,
,-0.109,0.93,0.249,14.77,9.338,-18.189,0,0,0,
,-0.111,0.924,0.26,8.361,7.751,-16.785,0,0,0,
,-0.114,0.924,0.252,2.807,8.728,-20.752,0,0,0,
,-0.112,0.932,0.251,0.61,13.183,-21.912,0,0,0,
,-0.107,0.944,0.251,4.028,14.465,-18.677,0,0,0,
,-0.107,0.934,0.255,17.395,10.437,-21.729,0,0,0,
,-0.107,0.926,0.255,11.718,10.376,-17.273,0,0,0,
,-0.109,0.927,0.255,6.591,12.146,-19.043,0,0,0,
,-0.113,0.932,0.25,4.577,10.986,-21.607,0,0,0,
,-0.115,0.928,0.251,5.737,12.146,-21.058,0,0,0,
,-0.11,0.934,0.252,4.211,16.479,-22.522,0,0,0,
,-0.109,0.935,0.253,9.582,15.075,-21.363,0,0,0,
,-0.108,0.933,0.256,8.728,13.183,-21.668,0,0,0,
,-0.106,0.927,0.25,3.967,14.77,-23.011,0,0,0,
,-0.112,0.928,0.248,2.441,12.878,-21.729,0,0,0,
,-0.112,0.927,0.251,7.995,16.54,-26.368,0,0,0,
,-0.1,0.933,0.252,2.99,17.211,-25.696,0,0,0,
,-0.1,0.938,0.253,9.277,13.427,-23.804,0,0,0,
,-0.105,0.939,0.254,8.728,11.779,-24.659,0,0,0,
,-0.11,0.934,0.25,13.366,12.39,-21.363,0,0,0,
,-0.111,0.935,0.253,12.756,9.155,-16.297,0,0,0,
,-0.117,0.918,0.26,5.188,5.249,-19.776,0,0,0,
,-0.122,0.919,0.255,-2.32,7.446,-19.959,0,0,0,
,-0.116,0.939,0.261,-7.935,10.681,-26.612,0,0,0,
,-0.108,0.945,0.243,6.347,8.667,-21.912,0,0,0,
,-0.106,0.941,0.249,9.033,10.925,-21.119,0,0,0,
,-0.107,0.933,0.253,5.737,12.023,-17.823,0,0,0,
,-0.108,0.932,0.257,4.455,13.305,-17.029,0,0,0,
,-0.111,0.931,0.248,0.244,12.878,-18.372,0,0,0,
,-0.114,0.921,0.25,-0.611,12.939,-19.776,0,0,0,
,-0.112,0.928,0.245,-7.508,13.061,-19.41,0,0,0,
,-0.114,0.933,0.244,-4.151,14.709,-16.602,0,0,0,
,-0.11,0.931,0.261,6.897,15.441,-9.034,0,0,0,
,-0.107,0.922,0.264,17.517,16.235,-3.296,0,0,0,
,-0.106,0.914,0.258,2.868,9.765,6.347,0,0,0,
,-0.114,0.923,0.253,-17.273,11.108,10.009,0,0,0,
,-0.115,0.941,0.241,-30.274,16.601,2.746,0,0,0,
,-0.111,0.951,0.241,-15.931,18.127,2.38,0,0,0,
,-0.104,0.947,0.254,-5.433,13.427,6.958,0,0,0,
,-0.112,0.931,0.261,-3.418,8.239,8.361,0,0,0,
,-0.115,0.942,0.26,-12.207,5.188,6.286,0,0,0,
,-0.115,0.949,0.249,-10.193,4.882,2.38,0,0,0,
,-0.115,0.943,0.241,-12.33,-5.188,1.648,0,0,0,
,-0.12,0.963,0.223,15.564,-1.038,12.634,0,0,0,
,-0.122,0.936,0.244,47.607,-4.7,4.699,0,0,0,
,-0.139,0.909,0.25,39.733,-5.677,4.943,0,0,0,
,-0.146,0.894,0.26,17.334,-2.93,-28.687,0,0,0,
,-0.131,0.918,0.244,-10.376,4.455,-42.298,0,0,0,
,-0.127,0.941,0.228,-8.484,7.385,-42.054,0,0,0,
,-0.121,0.943,0.238,9.399,13,-54.383,0,0,0,
,-0.105,0.943,0.247,21.118,33.264,-58.045,0,0,0,
,-0.104,0.915,0.278,29.113,19.226,-48.89,0,0,0,
,-0.126,0.893,0.278,-2.076,3.479,-34.424,0,0,0,
,-0.145,0.887,0.253,-31.922,-6.836,-47.486,0,0,0,
,-0.143,0.916,0.236,-44.922,-0.916,-61.585,0,0,0,
,-0.126,0.919,0.222,-78.858,16.052,-62.806,0,0,0,
,-0.109,0.967,0.211,-72.754,29.724,-43.274,0,0,0,
,-0.083,1,0.222,-35.706,39.978,-33.509,0,0,0,
,-0.071,0.973,0.236,18.554,28.686,-21.607,0,0,0,
,-0.078,0.931,0.239,20.263,5.127,-18.189,0,0,0,
,-0.106,0.926,0.244,14.282,0.549,-20.569,0,0,0,
,-0.105,0.926,0.243,-12.391,3.234,-27.955,0,0,0,
,-0.104,0.917,0.223,-40.772,5.676,-24.903,0,0,0,
,-0.111,0.934,0.224,-61.036,19.165,-23.926,0,0,0,
,-0.102,0.955,0.232,-69.519,31.921,-22.828,0,0,0,
,-0.091,0.963,0.238,-26.185,29.296,-20.02,0,0,0,
,-0.101,0.939,0.226,3.418,19.165,-23.926,0,0,0,
,-0.102,0.967,0.219,19.897,18.249,-29.664,0,0,0,
,-0.099,0.95,0.21,15.564,21.301,-22.767,0,0,0,
,-0.091,0.957,0.201,32.226,29.724,-13.062,0,0,0,
,-0.092,0.97,0.201,72.631,22.033,-4.334,0,0,0,
,-0.113,0.96,0.22,121.826,12.756,-1.77,0,0,0,
,-0.121,0.924,0.279,143.921,12.39,-2.869,0,0,0,
,-0.115,0.926,0.241,156.555,10.742,1.525,0,0,0,
,-0.11,0.922,0.247,159.729,4.76,0.61,0,0,0,
,-0.121,0.914,0.257,142.212,1.586,7.629,0,0,0,
,-0.121,0.922,0.284,118.652,5.249,6.286,0,0,0,
,-0.133,0.901,0.294,89.904,22.461,4.638,0,0,0,
,-0.128,0.891,0.298,39.672,40.344,-12.146,0,0,0,
,-0.12,0.925,0.283,23.803,46.814,-17.518,0,0,0,
,-0.125,0.932,0.264,32.165,41.198,-18.006,0,0,0,
,-0.121,0.923,0.268,19.348,35.949,-19.349,0,0,0,
,-0.11,0.941,0.279,10.07,30.273,-3.602,0,0,0,
,-0.116,0.941,0.303,16.418,19.653,1.098,0,0,0,
,-0.119,0.925,0.318,5.554,17.089,8.422,0,0,0,
,-0.119,0.924,0.29,-19.165,16.174,9.399,0,0,0,
,-0.117,0.931,0.254,-52.613,25.817,8.178,0,0,0,
,-0.121,0.915,0.238,-71.961,26.672,-4.944,0,0,0,
,-0.116,0.919,0.24,-91.919,27.648,-12.757,0,0,0,
,-0.107,0.937,0.256,-106.934,35.766,-19.043,0,0,0,
,-0.081,0.963,0.29,-75.867,34.973,-32.715,0,0,0,
,-0.087,0.954,0.298,-69.947,35.827,-21.607,0,0,0,
,-0.09,0.926,0.268,-86.304,49.865,-12.452,0,0,0,
,-0.085,0.94,0.22,-82.215,45.532,-4.151,0,0,0,
,-0.116,0.929,0.203,-70.984,36.071,-10.315,0,0,0,
,-0.14,0.911,0.245,-82.825,41.015,-29.175,0,0,0,
,-0.144,0.939,0.251,-93.445,46.386,-35.523,0,0,0,
,-0.125,0.986,0.235,-93.75,44.86,-13.916,0,0,0,
,-0.107,0.97,0.232,-89.6,33.386,-29.175,0,0,0,
,-0.105,0.934,0.22,-116.211,34.301,-20.874,0,0,0,
,-0.104,0.937,0.203,-143.555,34.851,-26.856,0,0,0,
,-0.119,0.946,0.185,-145.081,31.982,-18.25,0,0,0,
,-0.126,0.954,0.171,-135.376,22.216,-24.781,0,0,0,
,-0.124,0.96,0.175,-135.193,19.775,-21.363,0,0,0,
,-0.141,0.931,0.206,-103.15,4.699,-25.147,0,0,0,
,-0.161,0.927,0.217,-109.131,7.141,-29.297,0,0,0,
,-0.152,0.941,0.194,-140.259,8.117,-32.715,0,0,0,
,-0.152,1,0.148,-145.142,1.831,-31.861,0,0,0,
,-0.156,1.034,0.136,-97.046,-11.292,-44.861,0,0,0,
,-0.187,0.996,0.172,-33.02,-20.508,-48.035,0,0,0,
,-0.199,1.068,0.187,2.868,-3.418,-26.001,0,0,0,
,-0.19,1.13,0.156,25.756,24.475,-29.175,0,0,0,
,-0.18,1.124,0.166,122.375,33.508,-23.255,0,0,0,
,-0.171,1.068,0.197,204.162,36.621,-15.32,0,0,0,
,-0.171,1.033,0.19,206.237,42.602,5.92,0,0,0,
,-0.174,1.038,0.186,180.725,43.518,18.066,0,0,0,
,-0.162,1.035,0.201,154.968,47.302,31.311,0,0,0,
,-0.149,1.039,0.217,120.666,49.194,62.439,0,0,0,
,-0.169,1.051,0.215,88.134,44.372,90.698,0,0,0,
,-0.166,1.103,0.212,85.998,44.128,109.985,0,0,0,
,-0.183,1.072,0.202,138.427,39.733,148.864,0,0,0,
,-0.181,1.047,0.207,151.611,46.081,175.537,0,0,0,
,-0.197,1.043,0.207,171.447,46.508,201.721,0,0,0,
,-0.202,1.023,0.197,175.354,62.805,209.045,0,0,0,
,-0.203,1.026,0.184,170.654,74.34,214.965,0,0,0,
,-0.211,0.991,0.187,169.616,86.792,224.853,0,0,0,
,-0.219,0.962,0.206,176.33,103.454,224.67,0,0,0,
,-0.227,0.951,0.216,183.105,117.492,221.801,0,0,0,
,-0.241,0.908,0.21,175.171,128.234,216.064,0,0,0,
,-0.238,0.88,0.211,145.507,147.461,210.876,0,0,0,
,-0.227,0.88,0.217,129.15,158.081,195.495,0,0,0,
,-0.231,0.867,0.208,137.634,163.696,186.157,0,0,0,
,-0.236,0.833,0.22,140.258,167.419,176.025,0,0,0,
,-0.228,0.798,0.239,129.577,178.711,167.297,0,0,0,
,-0.216,0.786,0.25,121.765,186.34,160.156,0,0,0,
,-0.25,0.789,0.281,112.243,220.886,113.342,0,0,0,
,-0.215,0.778,0.289,93.261,230.041,96.984,0,0,0,
,-0.203,0.77,0.295,72.692,236.877,72.998,0,0,0,
,-0.203,0.769,0.304,89.172,225.586,61.645,0,0,0,
,-0.193,0.789,0.32,113.464,217.956,45.105,0,0,0,
,-0.179,0.802,0.357,170.837,206.176,-6.897,0,0,0,
,-0.162,0.787,0.375,214.66,214.66,-20.325,0,0,0,
,-0.154,0.774,0.407,249.511,225.28,-23.194,0,0,0,
,-0.154,0.763,0.407,247.863,239.196,-29.725,0,0,0,
,-0.133,0.811,0.427,239.013,250.976,-40.223,0,0,0,
,-0.138,0.834,0.467,291.87,237.365,-45.472,0,0,0,
,-0.133,0.813,0.498,310.119,228.21,-46.631,0,0,0,
,-0.122,0.806,0.517,334.533,209.289,-40.772,0,0,0,
,-0.132,0.794,0.55,364.013,190.124,-38.392,0,0,0,
,-0.137,0.764,0.545,343.933,184.814,-39.795,0,0,0,
,-0.133,0.77,0.519,336.12,177.49,-51.27,0,0,0,
,-0.135,0.762,0.523,321.533,163.208,-56.458,0,0,0,
,-0.134,0.768,0.564,320.922,153.93,-67.139,0,0,0,
,-0.127,0.764,0.56,317.26,147.522,-67.383,0,0,0,
,-0.136,0.768,0.581,338.806,133.056,-66.102,0,0,0,
,-0.143,0.748,0.58,327.392,135.559,-63.965,0,0,0,
,-0.129,0.753,0.591,308.899,130.371,-75.562,0,0,0,
,-0.14,0.732,0.587,301.269,125.183,-75.562,0,0,0,
,-0.125,0.763,0.654,391.479,104.675,-71.106,0,0,0,
,-0.128,0.757,0.64,417.602,100.708,-64.637,0,0,0,
,-0.131,0.741,0.657,439.209,103.027,-56.702,0,0,0,
,-0.121,0.701,0.679,418.151,116.699,-52.247,0,0,0,
,-0.11,0.719,0.712,420.471,118.957,-54.932,0,0,0,
,-0.1,0.656,0.737,439.087,101.867,-44.617,0,0,0,
,-0.101,0.661,0.755,454.834,92.163,-45.044,0,0,0,
,-0.103,0.631,0.749,463.44,86.425,-34.79,0,0,0,
,-0.095,0.598,0.752,436.157,85.388,-34.363,0,0,0,
,-0.093,0.576,0.773,393.737,82.763,-25.513,0,0,0,
,-0.085,0.517,0.776,121.521,69.336,-36.866,0,0,0,
,-0.067,0.529,0.79,23.742,66.65,-48.829,0,0,0,
,-0.057,0.584,0.807,-0.428,55.114,-38.819,0,0,0,
,-0.068,0.588,0.795,-6.592,37.048,-28.504,0,0,0,
,-0.074,0.628,0.793,7.141,22.644,-18.982,0,0,0,
,-0.078,0.619,0.79,37.536,20.385,-8.179,0,0,0,
,-0.078,0.589,0.78,47.18,14.77,-2.564,0,0,0,
,-0.092,0.599,0.793,58.654,8.239,0.183,0,0,0,
,-0.097,0.57,0.794,47.363,5.004,2.929,0,0,0,
,-0.096,0.576,0.796,22.033,0.732,-6.348,0,0,0,
,-0.103,0.571,0.8,12.939,-1.404,-6.226,0,0,0,
,-0.094,0.568,0.801,-11.536,3.173,-3.785,0,0,0,
,-0.09,0.597,0.806,-17.456,0.366,-3.54,0,0,0,
,-0.09,0.592,0.802,-11.536,-3.296,0.488,0,0,0,
,-0.093,0.6,0.803,-6.897,-5.494,1.648,0,0,0,
,-0.1,0.597,0.807,13.61,-6.287,0.549,0,0,0,
,-0.102,0.59,0.808,39.184,-0.489,3.051,0,0,0,
,-0.092,0.592,0.807,67.688,1.281,0.183,0,0,0,
,-0.104,0.571,0.811,78.369,-0.123,3.112,0,0,0,
,-0.111,0.569,0.817,75.317,3.601,-0.794,0,0,0,
,-0.107,0.55,0.807,87.036,5.676,-7.996,0,0,0,
,-0.099,0.564,0.811,93.75,10.437,-15.015,0,0,0,
,-0.101,0.573,0.809,109.924,13.244,-18.25,0,0,0,
,-0.099,0.583,0.811,130.859,13,-19.776,0,0,0,
,-0.092,0.575,0.802,170.349,9.704,-18.494,0,0,0,
,-0.093,0.555,0.801,199.401,5.981,-20.447,0,0,0,
,-0.064,0.535,0.798,207.519,6.713,-22.522,0,0,0,
,-0.102,0.479,0.814,159.179,19.287,-19.288,0,0,0,
,-0.089,0.5,0.834,118.469,21.85,-30.457,0,0,0,
,-0.085,0.53,0.834,102.539,16.357,-22.767,0,0,0,
,-0.086,0.503,0.835,80.261,13.244,-26.551,0,0,0,
,-0.084,0.523,0.823,69.702,8.789,-26.612,0,0,0,
,-0.093,0.51,0.827,60.424,2.868,-22.095,0,0,0,
,-0.085,0.515,0.827,46.386,1.586,-21.668,0,0,0,
,-0.084,0.518,0.826,50.293,0.732,-16.968,0,0,0,
,-0.096,0.521,0.83,57.006,-5.188,-8.728,0,0,0,
,-0.103,0.537,0.838,81.909,-4.517,-5.127,0,0,0,
,-0.095,0.529,0.849,106.262,-5.127,0.915,0,0,0,
,-0.094,0.545,0.854,145.324,-14.832,4.516,0,0,0,
,-0.103,0.523,0.853,173.034,-23.011,11.962,0,0,0,
,-0.106,0.502,0.845,163.147,-18.006,10.437,0,0,0,
,-0.104,0.498,0.837,169.067,-18.433,14.953,0,0,0,
,-0.109,0.47,0.837,170.288,-16.114,20.996,0,0,0,
,-0.106,0.452,0.835,164.611,-19.532,28.93,0,0,0,
,-0.104,0.465,0.844,177.734,-28.199,38.33,0,0,0,
,-0.109,0.469,0.847,200.988,-32.105,40.1,0,0,0,
,-0.12,0.461,0.836,249.206,-37.537,50.598,0,0,0,
,-0.126,0.46,0.854,267.456,-35.096,52.185,0,0,0,
,-0.119,0.449,0.861,305.603,-32.227,55.175,0,0,0,
,-0.133,0.438,0.871,354.065,-33.387,56.03,0,0,0,
,-0.141,0.424,0.896,394.592,-34.18,56.884,0,0,0,
,-0.136,0.4,0.904,426.269,-33.265,57.495,0,0,0,
,-0.13,0.372,0.918,422.424,-34.241,54.687,0,0,0,
,-0.138,0.348,0.912,387.878,-29.602,46.63,0,0,0,
,-0.144,0.315,0.903,342.895,-20.874,41.809,0,0,0,
,-0.149,0.29,0.916,281.494,-13.977,35.644,0,0,0,
,-0.149,0.277,0.922,225.952,-9.217,30.212,0,0,0,
,-0.144,0.278,0.931,183.471,-6.47,27.587,0,0,0,
,-0.147,0.295,0.937,167.541,-5.616,24.108,0,0,0,
,-0.148,0.307,0.941,151.733,-4.456,20.446,0,0,0,
,-0.158,0.305,0.941,143.188,1.342,12.634,0,0,0,
,-0.157,0.288,0.953,140.136,1.77,8.789,0,0,0,
,-0.155,0.279,0.954,137.451,5.371,-0.916,0,0,0,
,-0.159,0.283,0.95,158.386,1.159,-1.954,0,0,0,
,-0.162,0.269,0.952,173.339,4.089,-3.663,0,0,0,
,-0.157,0.265,0.952,202.88,2.624,-4.517,0,0,0,
,-0.156,0.246,0.955,226.135,3.356,0.61,0,0,0,
,-0.156,0.245,0.955,225.463,5.31,-3.052,0,0,0,
,-0.156,0.223,0.953,214.294,9.521,-7.813,0,0,0,
,-0.148,0.207,0.969,191.894,11.352,-13.367,0,0,0,
,-0.148,0.196,0.958,160.583,10.498,-22.217,0,0,0,
,-0.151,0.186,0.949,136.84,8.85,-25.269,0,0,0,
,-0.15,0.199,0.959,121.582,8.361,-29.969,0,0,0,
,-0.144,0.21,0.963,124.45,8.728,-26.856,0,0,0,
,-0.147,0.207,0.976,130.981,5.493,-23.377,0,0,0,
,-0.143,0.187,0.977,122.924,7.812,-25.147,0,0,0,
,-0.148,0.193,0.969,118.835,7.446,-23.133,0,0,0,
,-0.141,0.195,0.973,125.976,7.141,-22.644,0,0,0,
,-0.142,0.191,0.979,133.361,4.76,-17.518,0,0,0,
,-0.139,0.205,0.982,146.24,3.295,-12.085,0,0,0,
,-0.134,0.196,0.976,162.353,1.159,-6.226,0,0,0,
,-0.141,0.183,0.984,172.851,-4.761,-1.099,0,0,0,
,-0.143,0.175,0.984,185.608,-6.958,-0.306,0,0,0,
,-0.15,0.166,0.989,194.091,-10.987,5.249,0,0,0,
,-0.148,0.139,0.994,176.818,-8.179,1.464,0,0,0,
,-0.15,0.134,0.98,153.015,-6.714,-3.968,0,0,0,
,-0.152,0.121,0.987,137.512,-9.217,-5.005,0,0,0,
,-0.148,0.114,0.986,113.342,-6.653,-7.691,0,0,0,
,-0.142,0.133,0.973,102.966,-6.897,-10.376,0,0,0,
,-0.149,0.142,0.959,123.596,-6.47,-6.043,0,0,0,
,-0.143,0.142,0.955,158.996,-8.545,-0.489,0,0,0,
,-0.15,0.139,0.967,204.528,-10.376,10.803,0,0,0,
,-0.149,0.126,0.97,222.168,-10.071,15.319,0,0,0,
,-0.158,0.117,0.969,231.445,-13.306,22.216,0,0,0,
,-0.166,0.083,0.98,236.816,-13.672,25.207,0,0,0,
,-0.169,0.053,0.978,220.581,-14.283,27.771,0,0,0,
,-0.172,0.045,0.979,204.406,-14.954,30.639,0,0,0,
,-0.174,0.043,0.989,200.5,-17.151,33.081,0,0,0,
,-0.181,0.035,0.984,195.19,-20.386,30.944,0,0,0,
,-0.178,0.026,0.981,176.391,-17.273,27.404,0,0,0,
,-0.172,0.023,0.979,169.311,-15.748,21.667,0,0,0,
,-0.182,0.007,0.981,155.578,-16.541,23.376,0,0,0,
,-0.179,0.012,0.984,148.132,-16.358,18.676,0,0,0,
,-0.177,-0.005,0.992,157.226,-15.259,20.568,0,0,0,
,-0.178,-0.017,0.992,158.264,-14.1,18.432,0,0,0,
,-0.179,-0.01,0.995,166.687,-13.916,21.728,0,0,0,
,-0.172,-0.002,0.99,167.419,-11.963,16.418,0,0,0,
,-0.174,0,0.992,183.654,-12.269,15.869,0,0,0,
,-0.175,-0.021,0.991,201.782,-10.193,18.432,0,0,0,
,-0.17,-0.033,0.99,221.069,-11.231,23.071,0,0,0,
,-0.167,-0.047,0.983,250.244,-16.114,29.052,0,0,0,
,-0.171,-0.067,0.989,255.066,-18.128,34.912,0,0,0,
,-0.172,-0.062,0.984,256.713,-14.771,30.151,0,0,0,
,-0.174,-0.078,0.976,264.953,-11.048,32.836,0,0,0,
,-0.178,-0.085,0.981,266.906,-14.344,30.517,0,0,0,
,-0.169,-0.092,0.975,269.47,-10.437,26.367,0,0,0,
,-0.167,-0.09,0.963,286.132,-15.076,24.719,0,0,0,
,-0.153,-0.076,0.971,308.593,-15.442,22.216,0,0,0,
,-0.147,-0.102,0.954,322.143,-15.625,31.189,0,0,0,
,-0.128,-0.116,0.961,344.055,-21.851,37.109,0,0,0,
,-0.165,-0.157,0.937,345.886,-19.471,49.194,0,0,0,
,-0.172,-0.176,0.936,334.472,-19.043,58.227,0,0,0,
,-0.181,-0.207,0.943,317.077,-16.663,67.199,0,0,0,
,-0.186,-0.25,0.949,296.081,-14.222,69.946,0,0,0,
,-0.188,-0.217,0.959,293.335,-8.789,70.068,0,0,0,
,-0.188,-0.195,0.966,341.003,-5.982,71.35,0,0,0,
,-0.194,-0.223,0.998,408.752,-6.714,79.65,0,0,0,
,-0.197,-0.236,0.969,460.937,-1.648,75.744,0,0,0,
,-0.195,-0.295,0.962,489.685,10.253,73.608,0,0,0,
,-0.193,-0.297,0.954,523.803,14.465,55.419,0,0,0,
,-0.197,-0.357,0.946,547.058,23.62,55.297,0,0,0,
,-0.198,-0.39,0.941,522.033,30.883,43.823,0,0,0,
,-0.184,-0.363,0.91,538.879,31.799,28.625,0,0,0,
,-0.185,-0.402,0.915,587.524,28.747,44.982,0,0,0,
,-0.173,-0.422,0.899,613.525,26.672,47.607,0,0,0,
,-0.163,-0.446,0.878,626.526,20.446,54.382,0,0,0,
,-0.164,-0.5,0.854,581.176,27.954,51.818,0,0,0,
,-0.156,-0.497,0.839,541.687,21.118,46.142,0,0,0,
,-0.163,-0.569,0.837,470.825,16.052,54.992,0,0,0,
,-0.158,-0.571,0.834,405.029,8.361,41.565,0,0,0,
,-0.161,-0.569,0.838,347.107,10.498,38.452,0,0,0,
,-0.155,-0.592,0.843,311.035,5.127,37.048,0,0,0,
,-0.161,-0.62,0.831,232.544,3.601,31.921,0,0,0,
,-0.174,-0.598,0.833,168.823,11.779,19.958,0,0,0,
,-0.169,-0.619,0.826,130.188,14.465,13.549,0,0,0,
,-0.155,-0.593,0.845,106.872,16.784,6.713,0,0,0,
,-0.167,-0.609,0.832,54.687,31.066,-9.278,0,0,0,
,-0.154,-0.575,0.842,34.179,41.076,-16.48,0,0,0,
,-0.157,-0.582,0.845,17.944,43.579,-25.452,0,0,0,
,-0.135,-0.571,0.828,-21.058,42.175,-40.711,0,0,0,
,-0.145,-0.573,0.83,-38.025,35.095,-47.608,0,0,0,
,-0.131,-0.56,0.811,-58.96,32.104,-63.294,0,0,0,
,-0.146,-0.598,0.808,-119.202,29.419,-64.331,0,0,0,
,-0.135,-0.583,0.818,-204.651,36.254,-86.365,0,0,0,
,-0.136,-0.589,0.812,-263.428,38.635,-99.793,0,0,0,
,-0.136,-0.563,0.817,-336.792,39.001,-121.582,0,0,0,
,-0.142,-0.522,0.835,-384.522,36.743,-127.32,0,0,0,
,-0.158,-0.559,0.835,-510.01,45.227,-140.748,0,0,0,
,-0.16,-0.549,0.85,-696.167,58.532,-158.692,0,0,0,
,-0.152,-0.502,0.846,-866.578,62.866,-189.881,0,0,0,
,-0.15,-0.438,0.894,-974.732,57.128,-207.459,0,0,0,
,-0.152,-0.365,0.944,-1008.362,54.077,-219.605,0,0,0,
,-0.154,-0.289,1,-977.173,57.678,-217.469,0,0,0,
,-0.156,-0.253,0.996,-865.479,58.044,-201.477,0,0,0,
,-0.159,-0.252,0.991,-740.052,46.691,-161.866,0,0,0,
,-0.155,-0.22,1.008,-645.508,47.912,-131.775,0,0,0,
,-0.153,-0.204,0.992,-633.973,61.889,-115.845,0,0,0,
,-0.161,-0.221,0.972,-719.544,75.134,-113.465,0,0,0,
,-0.159,-0.227,0.956,-880.127,77.27,-125.733,0,0,0,
,-0.158,-0.155,0.986,-988.038,47.79,-149.842,0,0,0,
,-0.16,-0.14,1.015,-1085.022,30.273,-149.537,0,0,0,
,-0.161,-0.05,1.006,-1201.478,10.925,-178.406,0,0,0,
,-0.167,0.042,0.997,-1303.101,5.981,-188.904,0,0,0,
,-0.16,0.1,0.958,-1390.992,0.549,-210.083,0,0,0,
,-0.151,0.192,0.933,-1444.397,-3.052,-216.736,0,0,0,
,-0.148,0.247,0.923,-1482.056,-8.362,-219.361,0,0,0,
,-0.145,0.301,0.897,-1497.193,-11.17,-219.178,0,0,0,
,-0.14,0.37,0.877,-1510.865,-16.358,-222.962,0,0,0,
,-0.14,0.383,0.814,-1565.43,-13.123,-221.741,0,0,0,
,-0.146,0.472,0.774,-1563.233,-23.011,-237.732,0,0,0,
,-0.142,0.538,0.74,-1483.033,-28.87,-233.948,0,0,0,
,-0.142,0.518,0.723,-1458.13,-25.452,-228.394,0,0,0,
,-0.136,0.529,0.662,-1503.113,-4.578,-242.92,0,0,0,
,-0.123,0.687,0.621,-1473.816,7.873,-262.94,0,0,0,
,-0.12,0.755,0.601,-1347.779,17.456,-248.108,0,0,0,
,-0.109,0.747,0.58,-1279.419,30.639,-236.023,0,0,0,
,-0.117,0.787,0.556,-1252.747,30.517,-247.01,0,0,0,
,-0.119,0.834,0.52,-1202.515,31.677,-251.343,0,0,0,
,-0.092,0.808,0.502,-1141.785,26.55,-220.154,0,0,0,
,-0.087,0.846,0.5,-1108.399,27.954,-188.843,0,0,0,
,-0.099,0.873,0.497,-1013.794,34.24,-123.23,0,0,0,
,-0.082,0.933,0.457,-894.532,47.729,-82.703,0,0,0,
,-0.077,0.963,0.441,-728.15,48.095,-32.776,0,0,0,
,-0.066,0.958,0.417,-630.494,45.471,3.723,0,0,0,
,-0.06,0.991,0.393,-583.619,38.696,32.104,0,0,0,
,-0.052,0.994,0.338,-576.783,37.658,61.279,0,0,0,
,-0.04,1.031,0.297,-545.044,22.155,92.224,0,0,0,
,-0.053,1.042,0.283,-439.148,-3.846,123.657,0,0,0,
,-0.053,1.03,0.277,-383.545,-33.02,146.972,0,0,0,
,-0.045,1.003,0.244,-383.24,-52.308,164.795,0,0,0,
,-0.073,0.966,0.219,-411.499,-78.431,184.692,0,0,0,
,-0.08,0.951,0.214,-466.431,-85.144,187.988,0,0,0,
,-0.073,0.998,0.187,-454.041,-103.272,190.918,0,0,0,
,-0.099,1.002,0.187,-396.973,-127.869,200.988,0,0,0,
,-0.1,0.992,0.178,-332.032,-149.048,206.543,0,0,0,
,-0.116,0.971,0.158,-279.236,-174.744,213.562,0,0,0,
,-0.128,0.928,0.145,-273.133,-181.153,215.942,0,0,0,
,-0.12,0.915,0.135,-293.152,-186.097,203.064,0,0,0,
,-0.118,0.951,0.106,-271.607,-198.365,195.251,0,0,0,
,-0.138,0.938,0.087,-223.999,-218.262,185.73,0,0,0,
,-0.137,0.905,0.057,-179.505,-241.333,184.143,0,0,0,
,-0.144,0.942,0.046,-140.503,-255.494,165.161,0,0,0,
,-0.143,0.908,0.041,-106.629,-263.428,148.254,0,0,0,
,-0.155,0.893,0.026,-77.515,-267.884,130.31,0,0,0,
,-0.158,0.901,0.014,-30.823,-274.964,114.257,0,0,0,
,-0.168,0.903,0.01,27.648,-296.387,94.238,0,0,0,
,-0.183,0.933,0.01,121.154,-342.041,68.115,0,0,0,
,-0.204,0.888,0.001,192.81,-368.836,46.63,0,0,0,
,-0.231,0.778,-0.016,168.029,-375,10.986,0,0,0,
,-0.242,0.797,-0.037,72.265,-372.437,-56.275,0,0,0,
,-0.264,0.806,-0.037,30.883,-378.968,-99.488,0,0,0,
,-0.27,0.8,-0.022,26.123,-369.202,-140.564,0,0,0,
,-0.259,0.826,-0.026,30.822,-334.656,-181.336,0,0,0,
,-0.244,0.858,-0.059,79.223,-315.613,-226.014,0,0,0,
,-0.24,0.811,-0.1,119.262,-305.054,-230.713,0,0,0,
,-0.247,0.779,-0.069,78.43,-289.429,-240.479,0,0,0,
,-0.213,0.845,-0.042,9.033,-263.977,-266.419,0,0,0,
,-0.218,0.903,-0.018,-8.728,-242.798,-261.475,0,0,0,
,-0.196,0.887,-0.015,-39.978,-206.421,-270.997,0,0,0,
,-0.189,0.923,-0.034,-33.814,-197.266,-267.334,0,0,0,
,-0.2,0.974,-0.06,18.066,-189.759,-238.526,0,0,0,
,-0.193,0.95,-0.053,25.268,-179.871,-209.473,0,0,0,
,-0.18,0.958,-0.058,-18.86,-156.8,-203.675,0,0,0,
,-0.177,1.041,-0.05,-13.611,-140.87,-206.727,0,0,0,
,-0.175,1.054,-0.047,41.565,-129.883,-190.735,0,0,0,
,-0.166,1.041,-0.061,53.283,-111.268,-176.514,0,0,0,
,-0.158,1.069,-0.068,50.964,-92.896,-150.025,0,0,0,
,-0.159,1.052,-0.094,57.373,-90.027,-133.24,0,0,0,
,-0.149,1.024,-0.036,76.477,-88.929,-111.451,0,0,0,
,-0.161,1.017,-0.021,75.439,-76.966,-92.713,0,0,0,
,-0.174,0.995,-0.032,20.813,-61.097,-83.68,0,0,0,
,-0.158,0.992,-0.033,-48.035,-40.955,-92.957,0,0,0,
,-0.147,0.982,-0.017,-33.753,-59.327,-49.805,0,0,0,
,-0.13,0.989,-0.035,-39.185,-69.458,-40.833,0,0,0,
,-0.115,1.014,-0.034,-26.062,-76.661,-36.988,0,0,0,
,-0.119,1.004,-0.029,-17.334,-73.609,-26.368,0,0,0,
,-0.122,1.034,-0.027,-1.282,-65.979,-15.992,0,0,0,
,-0.118,1.044,-0.033,-5.86,-52.185,-12.879,0,0,0,
,-0.115,1.045,-0.03,17.822,-33.814,-12.818,0,0,0,
,-0.111,1.04,-0.048,48.461,-19.654,-9.827,0,0,0,
,-0.109,1.012,-0.054,65.368,-8.179,-4.456,0,0,0,
,-0.105,0.974,-0.034,39.611,1.709,-7.142,0,0,0,
,-0.089,0.89,-0.025,-52.552,29.724,-12.024,0,0,0,
,-0.069,0.92,-0.026,-111.512,41.015,-39.612,0,0,0,
,-0.067,0.91,-0.068,-118.103,32.714,-36.622,0,0,0,
,-0.063,0.922,-0.079,-127.015,22.216,-56.458,0,0,0,
,-0.059,0.948,-0.1,-147.889,12.573,-56.824,0,0,0,
,-0.07,1.07,-0.119,-142.579,1.22,-48.096,0,0,0,
,-0.094,1.367,-0.193,-65.918,-18.921,9.338,0,0,0,
,-0.135,1.472,-0.146,29.785,0.183,54.565,0,0,0,
,-0.077,0.843,-0.083,240.6,19.958,42.297,0,0,0,
,-0.06,0.707,-0.064,118.896,45.715,17.334,0,0,0,
,-0.158,0.842,-0.072,16.418,57.739,-23.56,0,0,0,
,-0.157,0.999,-0.015,-13.489,101.196,-78.309,0,0,0,
,-0.141,0.972,0.076,96.923,83.923,-78.309,0,0,0,
,-0.142,1.029,0.099,122.863,61.34,-12.452,0,0,0,
,-0.076,1.051,0.063,225.525,31.738,-9.705,0,0,0,
,-0.075,0.875,-0.003,170.898,19.592,26.733,0,0,0,
,-0.117,0.908,0.01,54.626,-0.672,-8.301,0,0,0,
,-0.106,0.981,0.002,61.157,-5.86,-29.602,0,0,0,
,-0.102,0.937,-0.02,76.232,-15.015,-25.818,0,0,0,
,-0.094,0.902,-0.01,58.349,-10.376,-31.739,0,0,0,
,-0.093,0.955,0.029,34.118,-5.372,-36.622,0,0,0,
,-0.096,0.974,0.049,41.565,-1.587,-31.373,0,0,0,
,-0.091,0.988,0.053,38.024,7.019,-27.649,0,0,0,
,-0.092,0.997,0.031,33.203,18.981,-20.874,0,0,0,
,-0.104,1.004,0.014,55.419,22.888,-15.442,0,0,0,
,-0.111,0.985,-0.005,73.303,23.071,-6.958,0,0,0,
,-0.115,0.957,-0.017,70.434,19.348,-4.151,0,0,0,
,-0.108,0.938,-0.049,66.162,15.38,-12.269,0,0,0,
,-0.104,0.959,-0.029,67.749,3.54,18.31,0,0,0,
,-0.112,0.978,-0.031,76.355,4.394,2.929,0,0,0,
,-0.117,0.997,0.005,114.807,6.164,21.423,0,0,0,
,-0.105,0.992,0.008,125.061,15.686,28.259,0,0,0,
,-0.115,0.978,0.015,138.427,20.324,46.203,0,0,0,
,-0.099,1,0.055,169.433,21.667,37.048,0,0,0,
,-0.099,0.982,0.101,185.669,16.113,44.067,0,0,0,
,-0.111,0.95,0.117,183.899,19.531,37.658,0,0,0,
,-0.11,0.954,0.11,176.025,24.719,32.226,0,0,0,
,-0.114,0.923,0.094,147.888,31.677,15.991,0,0,0,
,-0.12,0.928,0.087,100.952,33.447,12.329,0,0,0,
,-0.105,0.949,0.086,90.637,31.005,5.493,0,0,0,
,-0.105,0.969,0.115,78.674,24.963,9.033,0,0,0,
,-0.096,0.98,0.135,103.21,25.268,9.704,0,0,0,
,-0.085,1.009,0.115,150.207,17.944,29.48,0,0,0,
,-0.112,0.967,0.119,197.876,1.403,-7.081,0,0,0,
,-0.103,0.962,0.122,224.182,-6.775,-1.282,0,0,0,
,-0.121,0.904,0.129,221.008,-15.076,-24.292,0,0,0,
,-0.156,0.923,0.17,105.896,-12.94,-35.95,0,0,0,
,-0.16,0.944,0.178,65.673,-15.564,-33.387,0,0,0,
,-0.163,0.937,0.17,58.776,-17.701,-37.049,0,0,0,
,-0.159,0.944,0.157,33.813,-4.212,-30.213,0,0,0,
,-0.163,0.94,0.146,1.525,8.483,-33.204,0,0,0,
,-0.167,0.966,0.149,-3.174,15.93,-36.377,0,0,0,
,-0.156,0.965,0.13,9.826,16.479,-21.363,0,0,0,
,-0.155,0.959,0.131,10.131,14.953,-30.701,0,0,0,
,-0.14,0.945,0.131,9.216,16.845,-35.035,0,0,0,
,-0.119,0.958,0.141,23.681,14.099,-31.495,0,0,0,
,-0.123,0.956,0.139,48.706,8.239,-40.65,0,0,0,
,-0.12,0.921,0.138,43.212,11.108,-24.964,0,0,0,
,-0.136,0.934,0.147,7.385,9.033,-36.988,0,0,0,
,-0.117,0.971,0.148,3.845,18.31,-46.509,0,0,0,
,-0.095,0.97,0.142,18.92,15.625,-47.303,0,0,0,
,-0.102,0.973,0.149,21.911,4.028,-29.908,0,0,0,
,-0.115,0.997,0.147,34.057,5.432,-26.123,0,0,0,
,-0.114,0.991,0.15,72.448,-9.217,-24.537,0,0,0,
,-0.12,0.979,0.141,125.549,-27.832,-12.757,0,0,0,
,-0.128,0.926,0.15,139.16,-28.016,-2.93,0,0,0,
,-0.133,0.893,0.147,80.749,-20.081,-5.616,0,0,0,
,-0.132,0.932,0.166,18.737,-10.56,-10.132,0,0,0,
,-0.111,0.957,0.175,0.427,-5.494,-19.043,0,0,0,
,-0.105,0.961,0.167,8.972,-4.639,-16.358,0,0,0,
,-0.111,0.975,0.168,22.033,-0.245,-13.55,0,0,0,
,-0.107,0.957,0.175,55.481,0.488,-12.269,0,0,0,
,-0.114,0.947,0.17,65.979,5.737,-2.442,0,0,0,
,-0.119,0.942,0.166,59.387,5.188,-10.193,0,0,0,
,-0.114,0.928,0.18,29.174,0.549,-14.039,0,0,0,
,-0.128,0.956,0.167,9.887,4.638,-1.099,0,0,0,
,-0.124,0.959,0.186,4.943,6.408,-2.442,0,0,0,
,-0.137,0.943,0.162,3.601,21.545,0.549,0,0,0,
,-0.136,0.952,0.178,3.051,24.047,-1.648,0,0,0,
,-0.138,0.959,0.186,11.718,27.404,9.277,0,0,0,
,-0.131,0.962,0.194,27.526,34.606,19.043,0,0,0,
,-0.129,0.943,0.183,28.747,41.931,30.883,0,0,0,
,-0.133,0.933,0.163,11.291,49.682,25.817,0,0,0,
,-0.135,0.924,0.174,1.159,50.293,16.967,0,0,0,
,-0.14,0.923,0.189,-7.081,47.241,8.056,0,0,0,
,-0.146,0.932,0.179,-15.564,40.222,-1.404,0,0,0,
,-0.137,0.935,0.175,-15.686,32.775,-12.635,0,0,0,
,-0.138,0.956,0.17,-23.194,25.268,-6.226,0,0,0,
,-0.147,0.96,0.168,-18.982,10.315,-8.728,0,0,0,
,-0.138,0.954,0.175,-15.198,10.681,-16.48,0,0,0,
,-0.129,0.946,0.171,-21.363,11.718,-15.809,0,0,0,
,-0.137,0.944,0.159,-16.968,7.446,-18.433,0,0,0,
,-0.151,0.949,0.158,-20.386,5.859,-15.748,0,0,0,
,-0.158,0.949,0.155,-19.837,12.023,-15.931,0,0,0,
