TIMECODE,ACC_X,ACC_Y,ACC_Z,GYR_X,GYR_Y,GYR_Z,TAG
00:00:00:0,0.045,0.484,0.854,1.709,8.544,-21.729,
00:00:00:16,0.044,0.486,0.856,0.549,9.521,-21.607,
00:00:00:33,0.045,0.489,0.854,3.662,9.277,-20.142,
00:00:00:50,0.047,0.486,0.858,7.568,11.657,-21.241,
00:00:00:66,0.044,0.481,0.857,9.704,8.606,-17.456,
00:00:00:83,0.045,0.485,0.854,7.507,8.239,-20.874,
00:00:00:100,0.046,0.481,0.854,9.826,8.789,-19.043,
00:00:00:116,0.048,0.483,0.856,8.483,11.291,-22.034,
00:00:00:133,0.047,0.478,0.856,6.652,9.277,-21.18,
00:00:00:150,0.047,0.479,0.856,4.211,8.972,-21.424,
00:00:00:166,0.047,0.49,0.856,5.554,9.948,-21.668,
00:00:00:183,0.045,0.481,0.854,5.493,10.192,-20.142,
00:00:00:200,0.041,0.488,0.856,2.38,8.117,-20.935,
00:00:00:216,0.042,0.485,0.846,6.286,9.948,-19.837,
00:00:00:233,0.046,0.482,0.856,6.591,10.498,-21.79,
00:00:00:250,0.047,0.489,0.857,8.606,10.498,-20.997,
00:00:00:266,0.046,0.48,0.857,10.315,10.437,-20.142,
00:00:00:283,0.044,0.482,0.857,9.948,8.361,-20.081,
00:00:00:300,0.048,0.479,0.859,5.31,10.131,-19.532,
00:00:00:316,0.043,0.484,0.856,5.798,9.643,-21.119,
00:00:00:333,0.046,0.483,0.853,6.286,8.85,-20.081,
00:00:00:350,0.046,0.491,0.857,7.568,10.192,-20.386,
00:00:00:366,0.047,0.483,0.856,11.352,9.704,-19.471,
00:00:00:383,0.047,0.482,0.853,7.751,9.033,-20.142,
00:00:00:400,0.048,0.482,0.854,8.789,10.131,-19.776,
00:00:00:416,0.047,0.477,0.855,7.202,9.277,-18.616,
00:00:00:433,0.046,0.481,0.859,5.615,8.667,-20.569,
00:00:00:450,0.048,0.478,0.855,2.258,8.239,-20.935,
00:00:00:466,0.046,0.488,0.858,-0.367,7.629,-20.813,
00:00:00:483,0.044,0.483,0.852,6.53,8.178,-20.142,
00:00:00:500,0.046,0.484,0.857,7.507,7.08,-20.63,
00:00:00:516,0.045,0.486,0.857,10.315,6.225,-20.142,
00:00:00:533,0.046,0.482,0.858,10.803,8.178,-19.532,
00:00:00:550,0.048,0.482,0.856,11.291,9.704,-18.677,
00:00:00:566,0.046,0.48,0.855,11.047,8.972,-20.874,
00:00:00:583,0.047,0.486,0.855,11.291,9.277,-18.25,
00:00:00:600,0.045,0.475,0.857,12.756,9.155,-16.663,
00:00:00:616,0.046,0.476,0.862,8.972,9.033,-20.142,
00:00:00:633,0.043,0.486,0.855,8.239,10.864,-20.752,
00:00:00:650,0.046,0.481,0.854,8.117,10.253,-19.593,
00:00:00:666,0.043,0.481,0.858,10.864,8.3,-19.593,
00:00:00:683,0.046,0.48,0.855,8.606,9.033,-19.837,
00:00:00:700,0.048,0.483,0.856,9.826,9.826,-22.522,
00:00:00:716,0.047,0.478,0.857,8.117,7.324,-20.203,
00:00:00:733,0.043,0.483,0.864,6.225,8.056,-22.217,
00:00:00:750,0.042,0.475,0.855,7.385,9.155,-19.837,
00:00:00:766,0.043,0.481,0.857,4.577,10.437,-22.522,
00:00:00:783,0.048,0.484,0.858,9.643,8.789,-22.095,
00:00:00:800,0.047,0.478,0.857,8.361,10.437,-21.058,
00:00:00:816,0.043,0.482,0.856,10.498,6.286,-18.738,
00:00:00:833,0.044,0.479,0.859,8.483,10.376,-19.532,
00:00:00:850,0.043,0.484,0.858,6.164,12.268,-19.104,
00:00:00:866,0.045,0.481,0.858,7.69,8.483,-19.532,
00:00:00:883,0.045,0.48,0.857,6.652,9.887,-21.363,
00:00:00:900,0.045,0.48,0.854,10.681,7.995,-20.691,
00:00:00:916,0.047,0.48,0.858,8.728,7.934,-22.278,
00:00:00:933,0.045,0.483,0.858,8.972,9.948,-20.386,
00:00:00:950,0.048,0.476,0.855,9.094,7.873,-19.837,
00:00:00:966,0.046,0.479,0.855,7.263,8.544,-21.851,
00:00:00:983,0.043,0.475,0.854,3.356,9.338,-20.63,
00:00:01:0,0.046,0.485,0.859,3.906,7.202,-22.339,
00:00:01:16,0.046,0.48,0.855,7.995,7.751,-21.241,
00:00:01:33,0.046,0.479,0.859,4.577,8.361,-23.804,
00:00:01:50,0.042,0.479,0.853,7.08,8.667,-21.302,
00:00:01:66,0.043,0.476,0.859,6.347,6.958,-22.522,
00:00:01:83,0.044,0.483,0.86,5.676,7.812,-22.034,
00:00:01:100,0.047,0.473,0.858,7.812,10.437,-20.02,
00:00:01:116,0.042,0.485,0.86,4.943,8.117,-22.278,
00:00:01:133,0.047,0.479,0.858,12.451,8.728,-19.288,
00:00:01:150,0.046,0.478,0.858,10.192,8.789,-19.898,
00:00:01:166,0.043,0.475,0.854,8.544,7.263,-19.349,
00:00:01:183,0.046,0.477,0.862,7.019,12.39,-21.546,
00:00:01:200,0.047,0.48,0.859,5.127,9.033,-20.325,
00:00:01:216,0.046,0.48,0.857,1.403,9.582,-20.935,
00:00:01:233,0.045,0.481,0.858,0.915,7.08,-20.386,
00:00:01:250,0.047,0.48,0.854,0.976,8.728,-20.813,
00:00:01:266,0.046,0.485,0.858,4.211,9.155,-22.034,
00:00:01:283,0.046,0.481,0.86,8.85,8.239,-21.424,
00:00:01:300,0.042,0.482,0.86,10.437,8.85,-21.546,
00:00:01:316,0.044,0.475,0.857,7.507,6.713,-21.607,
00:00:01:333,0.045,0.48,0.86,7.873,8.789,-20.63,
00:00:01:350,0.048,0.477,0.861,8.3,8.361,-20.203,
00:00:01:366,0.044,0.476,0.856,6.042,9.46,-21.79,
00:00:01:383,0.047,0.484,0.859,3.479,8.3,-20.874,
00:00:01:400,0.046,0.481,0.857,6.042,8.972,-21.119,
00:00:01:416,0.045,0.483,0.858,8.789,7.751,-20.447,
00:00:01:433,0.043,0.481,0.854,10.315,9.216,-19.043,
00:00:01:450,0.047,0.481,0.857,9.704,10.07,-20.325,
00:00:01:466,0.045,0.481,0.858,12.023,9.704,-21.119,
00:00:01:483,0.047,0.474,0.86,9.338,9.033,-20.569,
00:00:01:500,0.044,0.476,0.863,4.882,8.85,-21.851,
00:00:01:516,0.049,0.474,0.858,1.403,7.934,-22.156,
00:00:01:533,0.045,0.482,0.859,1.892,8.3,-22.522,
00:00:01:550,0.044,0.482,0.858,4.028,8.789,-20.142,
00:00:01:566,0.044,0.48,0.858,6.836,7.08,-20.447,
00:00:01:583,0.045,0.476,0.86,8.3,6.713,-20.508,
00:00:01:600,0.042,0.477,0.857,4.089,8.667,-22.278,
00:00:01:616,0.043,0.481,0.855,4.394,10.192,-21.363,
00:00:01:633,0.047,0.478,0.859,2.502,10.376,-21.973,
00:00:01:650,0.048,0.486,0.857,5.249,8.239,-22.156,
00:00:01:666,0.046,0.479,0.852,9.948,7.446,-21.119,
00:00:01:683,0.045,0.483,0.86,7.873,8.3,-21.729,
00:00:01:700,0.042,0.476,0.855,10.131,8.483,-21.302,
00:00:01:716,0.045,0.476,0.857,9.948,8.056,-20.813,
00:00:01:733,0.045,0.474,0.858,7.568,8.361,-20.508,
00:00:01:750,0.046,0.476,0.86,6.774,9.155,-21.363,
00:00:01:766,0.043,0.483,0.859,5.432,8.117,-20.325,
00:00:01:783,0.046,0.48,0.854,4.15,9.094,-22.095,
00:00:01:800,0.045,0.485,0.856,7.568,9.338,-21.363,
00:00:01:816,0.048,0.477,0.855,10.803,9.033,-20.386,
00:00:01:833,0.047,0.48,0.861,8.789,7.446,-22.4,
00:00:01:850,0.044,0.477,0.858,9.216,7.995,-20.02,
00:00:01:866,0.042,0.476,0.857,7.934,6.897,-22.644,
00:00:01:883,0.044,0.482,0.86,8.911,12.146,-20.752,
00:00:01:900,0.047,0.474,0.859,7.324,10.253,-20.569,
00:00:01:916,0.043,0.477,0.86,7.263,8.239,-20.63,
00:00:01:933,0.045,0.477,0.858,6.469,9.46,-21.119,
00:00:01:950,0.048,0.48,0.857,6.897,9.094,-21.119,
00:00:01:966,0.045,0.474,0.856,7.507,7.629,-20.142,
00:00:01:983,0.046,0.479,0.858,2.807,10.253,-22.278,
00:00:02:0,0.045,0.484,0.855,5.493,7.751,-19.898,
00:00:02:16,0.044,0.477,0.858,7.385,9.094,-19.532,
00:00:02:33,0.044,0.479,0.865,2.197,7.934,-21.363,
00:00:02:50,0.05,0.473,0.859,5.188,7.995,-21.485,
00:00:02:66,0.047,0.479,0.861,3.906,7.263,-22.339,
00:00:02:83,0.046,0.478,0.862,3.662,6.53,-23.255,
00:00:02:100,0.044,0.479,0.859,3.418,7.507,-21.18,
00:00:02:116,0.041,0.481,0.861,6.591,7.202,-21.119,
00:00:02:133,0.042,0.479,0.854,5.615,7.934,-22.217,
00:00:02:150,0.047,0.481,0.858,7.385,9.033,-19.654,
00:00:02:166,0.044,0.476,0.856,8.422,10.742,-20.081,
00:00:02:183,0.047,0.48,0.861,9.826,10.315,-21.058,
00:00:02:200,0.046,0.476,0.861,9.216,9.948,-19.227,
00:00:02:216,0.045,0.476,0.86,8.3,7.019,-19.41,
00:00:02:233,0.046,0.482,0.857,6.469,10.559,-20.935,
00:00:02:250,0.047,0.483,0.855,7.69,8.239,-20.203,
00:00:02:266,0.045,0.477,0.858,8.178,7.568,-20.63,
00:00:02:283,0.045,0.479,0.862,6.897,8.728,-20.63,
00:00:02:300,0.045,0.475,0.859,5.493,9.704,-22.217,
00:00:02:316,0.047,0.482,0.864,3.295,10.62,-22.095,
00:00:02:333,0.045,0.476,0.863,3.662,8.422,-18.799,
00:00:02:350,0.046,0.477,0.861,0.61,9.216,-19.165,
00:00:02:366,0.042,0.481,0.855,2.197,9.826,-19.837,
00:00:02:383,0.046,0.474,0.854,3.234,11.535,-20.081,
00:00:02:400,0.047,0.482,0.857,-2.686,11.596,-19.959,
00:00:02:416,0.049,0.474,0.864,-7.935,9.765,-19.349,
00:00:02:433,0.045,0.483,0.859,-14.161,7.995,-21.241,
00:00:02:450,0.045,0.481,0.848,-9.156,7.812,-21.18,
00:00:02:466,0.044,0.488,0.849,-9.034,9.216,-24.292,
00:00:02:483,0.043,0.478,0.85,-0.428,8.728,-25.33,
00:00:02:500,0.041,0.484,0.86,-0.55,7.751,-25.818,
00:00:02:516,0.04,0.48,0.857,0.854,8.667,-26.856,
00:00:02:533,0.046,0.486,0.858,0.061,8.606,-25.33,
00:00:02:550,0.045,0.484,0.854,4.76,8.667,-24.048,
00:00:02:566,0.049,0.489,0.857,6.225,9.338,-24.109,
00:00:02:583,0.049,0.484,0.855,12.939,8.3,-20.264,
00:00:02:600,0.048,0.474,0.854,12.634,6.897,-22.828,
00:00:02:616,0.046,0.474,0.856,6.713,6.713,-22.583,
00:00:02:633,0.05,0.479,0.856,2.197,8.911,-25.025,
00:00:02:650,0.051,0.485,0.856,2.99,5.004,-24.292,
00:00:02:666,0.043,0.476,0.855,-0.367,3.723,-24.903,
00:00:02:683,0.043,0.489,0.856,-1.893,6.836,-27.527,
00:00:02:700,0.046,0.489,0.853,3.418,5.859,-27.771,
00:00:02:716,0.046,0.483,0.856,6.591,4.089,-24.598,
00:00:02:733,0.047,0.481,0.858,5.92,4.15,-26.49,
00:00:02:750,0.043,0.477,0.847,4.638,6.042,-23.743,
00:00:02:766,0.045,0.484,0.853,4.394,6.836,-25.147,
00:00:02:783,0.047,0.482,0.856,4.821,9.033,-24.17,
00:00:02:800,0.048,0.484,0.857,0.244,7.202,-23.438,
00:00:02:816,0.045,0.485,0.854,1.281,6.53,-23.682,
00:00:02:833,0.048,0.474,0.847,2.136,1.464,-23.377,
00:00:02:850,0.059,0.464,0.839,-14.893,-25.757,-23.255,
00:00:02:866,0.035,0.37,0.809,-81.971,-29.419,-3.174,
00:00:02:883,0.023,0.294,0.835,-285.584,-15.32,1.159,
00:00:02:900,0.029,0.322,0.881,-601.807,35.461,-16.968,
00:00:02:916,0.071,0.269,0.815,-986.023,22.338,-32.959,
00:00:02:933,0.036,0.262,0.656,-1500.062,-43.641,-8.789,
00:00:02:950,0.071,0.845,0.675,-1987.549,-115.418,22.705,
00:00:02:966,0.078,0.977,0.729,-1936.158,-163.514,196.655,
00:00:02:983,0.072,0.884,0.757,-1758.545,-244.69,225.525,
00:00:03:0,0.027,0.913,0.718,-1680.787,-246.338,264.648,
00:00:03:16,-0.03,0.894,0.582,-1597.352,-184.998,268.798,
00:00:03:33,-0.076,0.838,0.388,-1544.983,-78.919,253.845,
00:00:03:50,-0.087,0.787,0.19,-1482.361,31.494,210.632,
00:00:03:66,-0.067,0.898,0.124,-1308.106,69.885,155.334,
00:00:03:83,-0.057,0.977,0.151,-947.266,39.917,70.739,
00:00:03:100,-0.065,0.923,0.218,-598.206,-14.222,-3.235,
00:00:03:116,-0.089,0.899,0.252,-347.657,-28.687,-77.271,
00:00:03:133,-0.026,1.016,0.204,-167.054,-47.73,-98.877,
00:00:03:150,-0.021,1.012,0.198,-188.233,-35.157,-60.852,
00:00:03:166,-0.024,1.032,0.21,-143.555,-36.683,-35.95,
00:00:03:183,-0.026,0.972,0.218,-83.863,-38.697,-28.626,
00:00:03:200,-0.044,0.923,0.197,-77.088,-28.87,-27.405,
00:00:03:216,-0.054,0.902,0.183,-114.258,-20.386,-35.828,
00:00:03:233,-0.059,0.894,0.165,-171.143,-9.949,-36.56,
00:00:03:250,-0.055,0.965,0.162,-156.006,-1.77,-43.763,
00:00:03:266,-0.039,1.003,0.168,-8.667,-14.71,-38.758,
00:00:03:283,-0.044,0.967,0.162,-6.958,-16.175,-34.485,
00:00:03:300,-0.043,0.948,0.146,-84.351,-1.587,-33.936,
00:00:03:316,-0.027,0.99,0.12,-147.339,7.019,-39.429,
00:00:03:333,-0.014,1.005,0.117,-143.86,5.615,-34.363,
00:00:03:350,-0.03,0.947,0.121,-92.041,4.028,-21.973,
00:00:03:366,-0.047,0.902,0.143,-18.006,12.085,-8.423,
00:00:03:383,-0.043,0.92,0.17,52.673,8.056,-10.01,
00:00:03:400,-0.045,0.957,0.181,80.505,-3.602,-14.649,
00:00:03:416,-0.058,0.946,0.197,6.897,-9.827,-21.119,
00:00:03:433,-0.043,0.953,0.192,-102.356,-3.785,-24.292,
00:00:03:450,-0.035,1.056,0.163,-180.664,1.22,-13.672,
00:00:03:466,-0.048,1.168,0.174,-168.396,20.874,-2.259,
00:00:03:483,-0.053,1.258,0.137,-113.709,18.676,-6.043,
00:00:03:500,-0.063,1.272,0.084,-83.985,11.169,2.319,
00:00:03:516,-0.06,1.415,0.057,-227.845,33.386,59.082,
00:00:03:533,-0.013,1.736,0.118,-98.084,23.925,189.575,
00:00:03:550,0.105,1.941,0.163,144.409,20.69,373.23,
00:00:03:566,0.278,2.164,0.128,422.363,-9.827,645.446,
00:00:03:583,0.399,2.192,0.005,506.836,-43.457,1017.028,
00:00:03:600,0.534,2.365,-0.156,384.521,-115.967,1443.359,
00:00:03:616,0.726,2.571,-0.197,261.596,-155.579,1930.359,
00:00:03:633,0.741,2.542,0.028,363.403,-195.74,1999.694,
00:00:03:650,0.513,1.794,0.191,565.979,-228.638,1999.694,
00:00:03:666,0.376,1.123,0.218,756.53,-262.635,1999.694,
00:00:03:683,0.323,0.509,0.092,830.688,-341.858,1999.694,
00:00:03:700,0.318,0.132,-0.108,833.374,-439.27,1999.694,
00:00:03:716,0.311,-0.12,-0.221,856.567,-567.2,1999.694,
00:00:03:733,0.232,-0.844,-0.173,896.789,-693.543,1999.694,
00:00:03:750,0.028,-1.412,-0.092,683.288,-670.411,1999.694,
00:00:03:766,-0.265,-1.954,0.036,386.779,-601.319,1769.104,
00:00:03:783,-0.545,-2.279,0.039,83.618,-484.803,1212.951,
00:00:03:800,-0.615,-2.166,0.01,-132.081,-353.882,503.967,
00:00:03:816,-0.553,-2.026,-0.08,-154.48,-221.558,-294.434,
00:00:03:833,-0.489,-1.918,-0.088,-231.69,-33.692,-1043.702,
00:00:03:850,-0.364,-1.488,-0.074,-426.087,171.997,-1690.857,
00:00:03:866,-0.266,-1.05,-0.035,-572.571,345.276,-2000,
00:00:03:883,-0.196,-0.562,0.055,-688.477,486.145,-2000,
00:00:03:900,-0.226,-0.087,0.194,-759.217,549.011,-2000,
00:00:03:916,-0.31,0.288,0.327,-807.74,569.58,-2000,
00:00:03:933,-0.24,0.682,0.449,-938.477,526.794,-2000,
00:00:03:950,-0.137,1.156,0.174,-1005.494,366.699,-2000,
00:00:03:966,0.051,1.656,-0.25,-829.773,121.338,-2000,
00:00:03:983,0.449,2.258,-0.291,-509.949,-143.982,-2000,
00:00:04:0,0.554,2.404,-0.11,-75.318,-372.01,-1685.791,
00:00:04:16,0.12,2.246,-0.038,104.614,-373.169,-1115.418,
00:00:04:33,-0.008,2.166,-0.042,-36.988,-255.127,-828.614,
00:00:04:50,-0.012,2.016,-0.024,-193.055,-144.288,-583.191,
00:00:04:66,-0.135,1.806,-0.047,-210.267,-50.11,-390.686,
00:00:04:83,-0.175,1.599,-0.109,-133.912,-1.282,-268.921,
00:00:04:100,-0.192,1.408,-0.139,32.836,22.094,-157.166,
00:00:04:116,-0.197,1.239,-0.149,193.298,20.08,-66.468,
00:00:04:133,-0.186,1.082,-0.113,305.847,37.597,-16.419,
00:00:04:150,-0.164,1.01,-0.026,316.955,78.491,-9.034,
00:00:04:166,-0.146,0.935,0.017,262.817,119.873,-20.264,
00:00:04:183,-0.152,0.873,0.022,175.659,153.32,-33.02,
00:00:04:200,-0.181,0.853,0.02,109.68,178.222,-51.941,
00:00:04:216,-0.221,0.825,0.022,66.467,193.054,-60.608,
00:00:04:233,-0.244,0.865,0.052,92.285,196.96,-68.787,
00:00:04:250,-0.236,0.928,0.062,110.717,203.43,-73.792,
00:00:04:266,-0.22,0.984,0.073,153.808,213.806,-78.37,
00:00:04:283,-0.204,1.017,0.095,181.152,227.356,-89.051,
00:00:04:300,-0.186,1.026,0.15,186.645,244.873,-97.474,
00:00:04:316,-0.163,1.019,0.144,165.222,258.789,-98.267,
00:00:04:333,-0.146,1.043,0.132,140.197,264.343,-81.177,
00:00:04:350,-0.152,1.049,0.126,130.859,268.127,-49.622,
00:00:04:366,-0.163,1.063,0.153,161.499,265.625,-14.039,
00:00:04:383,-0.167,1.069,0.17,193.054,255.859,19.836,
00:00:04:400,-0.175,1.066,0.187,237.487,244.201,47.241,
00:00:04:416,-0.188,1.051,0.182,254.272,236.694,65.612,
00:00:04:433,-0.201,1.035,0.177,267.028,232.727,74.89,
00:00:04:450,-0.214,1.044,0.176,292.053,237.487,75.195,
00:00:04:466,-0.235,1.059,0.219,325.256,235.046,84.472,
00:00:04:483,-0.203,1.019,0.241,358.154,242.736,91.919,
00:00:04:500,-0.207,0.994,0.234,383.972,233.947,124.328,
00:00:04:516,-0.222,1.009,0.26,519.104,229.797,164.428,
00:00:04:533,-0.212,0.969,0.314,594.055,223.755,180.053,
00:00:04:550,-0.199,0.934,0.365,654.235,207.763,199.157,
00:00:04:566,-0.195,0.923,0.396,709.838,195.251,220.825,
00:00:04:583,-0.185,0.905,0.393,792.053,175.903,247.497,
00:00:04:600,-0.185,0.83,0.362,898.071,126.892,303.894,
00:00:04:616,-0.191,0.774,0.335,1059.387,44.982,380.859,
00:00:04:633,-0.229,0.815,0.427,1266.235,-16.419,427.368,
00:00:04:650,-0.245,0.813,0.549,1488.342,-56.824,440.368,
00:00:04:666,-0.248,0.701,0.698,1600.463,-93.628,426.452,
00:00:04:683,-0.262,0.704,0.798,1688.476,-83.13,430.725,
00:00:04:700,-0.274,0.699,0.807,1830.078,-52.735,432.006,
00:00:04:716,-0.285,0.631,0.775,1967.407,-12.574,416.015,
00:00:04:733,-0.303,0.557,0.697,1999.694,22.827,412.414,
00:00:04:750,-0.313,0.416,0.696,1999.694,57.128,399.047,
00:00:04:766,-0.303,0.248,0.795,1999.694,112.121,429.931,
00:00:04:783,-0.299,0.114,0.877,1999.694,138.61,399.658,
00:00:04:800,-0.285,0.04,0.888,1788.818,163.757,388.122,
00:00:04:816,-0.286,0.003,0.874,1538.696,156.921,395.141,
00:00:04:833,-0.296,-0.071,0.905,1331.726,150.39,404.174,
00:00:04:850,-0.295,-0.101,0.931,1190.124,149.719,397.644,
00:00:04:866,-0.289,-0.145,0.949,1139.221,132.019,374.511,
00:00:04:883,-0.295,-0.269,0.956,1073.547,109.985,355.041,
00:00:04:900,-0.303,-0.34,0.95,944.336,114.563,337.707,
00:00:04:916,-0.279,-0.365,0.95,824.401,127.685,322.937,
00:00:04:933,-0.243,-0.388,0.974,720.764,136.657,328.186,
00:00:04:950,-0.235,-0.358,0.981,664.795,155.212,320.922,
00:00:04:966,-0.213,-0.396,1.031,673.584,169.555,311.157,
00:00:04:983,-0.208,-0.361,0.991,702.514,201.904,292.907,
00:00:05:0,-0.2,-0.398,0.928,637.39,241.516,281.677,
00:00:05:16,-0.178,-0.345,0.878,646.179,255.493,275.634,
00:00:05:33,-0.147,-0.388,0.859,672.607,237.915,287.475,
00:00:05:50,-0.139,-0.394,0.885,641.052,222.778,296.997,canRH
00:00:05:66,-0.121,-0.412,0.848,551.452,233.703,300.415,
00:00:05:83,-0.111,-0.385,0.771,527.282,242.92,298.034,
00:00:05:100,-0.1,-0.453,0.731,525.024,224.243,301.33,
00:00:05:116,-0.125,-0.495,0.733,489.013,224.975,290.588,
00:00:05:133,-0.09,-0.515,0.734,453.735,232.055,269.104,
00:00:05:150,-0.065,-0.47,0.735,440.185,218.444,257.873,
00:00:05:166,-0.02,-0.49,0.708,465.21,197.509,237.915,
00:00:05:183,-0.017,-0.542,0.757,484.069,154.602,235.473,
00:00:05:200,-0.027,-0.544,0.799,470.52,181.762,209.167,
00:00:05:216,-0.009,-0.611,0.729,467.407,214.904,200.988,
00:00:05:233,-0.009,-0.667,0.682,419.006,231.262,206.97,
00:00:05:250,0.001,-0.629,0.681,386.535,243.164,208.801,
00:00:05:266,0.14,-0.758,0.758,428.283,141.601,146.24,
00:00:05:283,-0.012,-0.839,0.9,295.227,98.877,118.774,
00:00:05:300,-0.017,-0.734,0.846,239.257,140.625,103.759,
00:00:05:316,0.015,-0.657,0.837,265.136,163.513,112.548,
00:00:05:333,0.049,-0.67,0.815,333.068,135.559,103.21,
00:00:05:350,0.052,-0.686,0.758,393.676,99.426,129.76,
00:00:05:366,0.053,-0.714,0.743,392.639,68.542,135.925,
00:00:05:383,0.068,-0.753,0.756,377.746,48.523,119.14,
00:00:05:400,0.072,-0.761,0.693,418.213,66.223,94.604,
00:00:05:416,0.075,-0.816,0.641,388.977,78.369,106.445,
00:00:05:433,0.077,-0.759,0.588,351.684,98.449,80.871,
00:00:05:450,0.097,-0.792,0.573,371.643,104.675,107.727,
00:00:05:466,0.069,-0.773,0.609,360.962,122.863,135.498,
00:00:05:483,0.085,-0.798,0.637,320.434,142.395,121.276,
00:00:05:500,0.099,-0.736,0.576,278.808,146.972,108.825,
00:00:05:516,0.118,-0.717,0.546,300.72,114.38,92.346,
00:00:05:533,0.145,-0.875,0.559,331.848,71.777,100.341,
00:00:05:550,0.123,-0.87,0.545,292.785,65.307,104.614,
00:00:05:566,0.105,-0.855,0.51,195.373,93.566,72.387,
00:00:05:583,0.033,-0.783,0.522,40.344,125.488,15.38,
00:00:05:600,0.156,-0.897,0.696,-9.705,189.514,-19.349,
00:00:05:616,0.104,-0.715,0.566,-38.636,253.112,-70.435,
00:00:05:633,0.246,-0.802,0.615,31.066,222.656,-7.508,
00:00:05:650,0.031,-0.636,0.39,-153.931,155.151,-3.54,
00:00:05:666,0.211,-0.764,0.566,-509.278,159.179,-91.553,
00:00:05:683,0.173,-0.895,0.493,-705.811,187.317,-173.401,
00:00:05:700,0.123,-0.645,0.289,-386.719,39.184,-23.865,
00:00:05:716,0.166,-1.364,0.514,-1105.53,-11.048,-186.341,
00:00:05:733,0.198,-1.074,0.669,-1988.526,59.692,-335.511,
00:00:05:750,0.061,-0.906,0.775,-2000,66.162,-536.622,
00:00:05:766,0.129,-0.509,0.738,-2000,120.056,-723.938,
00:00:05:783,0.213,-0.187,0.717,-2000,269.653,-804.322,
00:00:05:800,0.174,-0.198,0.885,-2000,240.478,-837.464,
00:00:05:816,0.113,-0.381,1.026,-2000,250.305,-777.588,
00:00:05:833,0.12,-0.203,1.001,-2000,363.586,-788.392,
00:00:05:850,0.073,0.095,0.883,-2000,539.428,-754.334,
00:00:05:866,-0.026,0.144,0.676,-2000,618.652,-545.838,
00:00:05:883,0.091,0.402,0.496,-2000,660.339,-433.655,
00:00:05:900,0.334,1.234,0.01,-2000,600.586,-166.81,
00:00:05:916,0.346,1.265,0.122,-2000,384.094,-90.394,
00:00:05:933,0.393,1.592,0.058,-1045.899,224.853,58.288,
00:00:05:950,0.361,1.263,0.193,45.227,35.644,73.974,
00:00:05:966,0.245,1.098,0.267,625.793,-24.903,3.54,
00:00:05:983,0.271,1.161,0.328,1096.74,-29.541,5.676,
00:00:06:0,0.293,1.292,0.341,1767.212,-97.596,46.997,
00:00:06:16,0.322,1.31,0.322,1999.694,-252.381,152.282,
00:00:06:33,0.386,1.096,0.363,1999.694,-539.185,202.453,
00:00:06:50,0.341,0.72,0.444,1999.694,-707.459,207.397,
00:00:06:66,0.209,0.187,0.498,1999.694,-780.884,183.776,
00:00:06:83,0.052,0.003,0.722,1999.694,-765.564,354.736,
00:00:06:100,0.027,-0.175,0.667,1999.694,-666.077,333.374,
00:00:06:116,0.015,-0.397,0.813,1999.694,-681.397,340.881,
00:00:06:133,-0.016,-0.548,0.886,1999.694,-646.363,399.292,
00:00:06:150,-0.065,-0.595,0.92,1999.694,-579.285,327.514,
00:00:06:166,-0.119,-0.608,1.023,1999.694,-441.346,255.798,
00:00:06:183,-0.13,-0.637,0.961,1535.034,-286.255,241.699,
00:00:06:200,-0.126,-0.523,0.879,1178.466,-106.812,242.004,
00:00:06:216,-0.112,-0.482,0.699,1093.505,-4.578,230.835,
00:00:06:233,-0.09,-0.356,0.723,1018.676,53.283,240.234,
00:00:06:250,-0.07,-0.539,0.743,890.075,42.236,211.609,
00:00:06:266,-0.108,-0.632,0.687,654.48,113.342,223.205,
00:00:06:283,-0.077,-0.399,0.569,519.958,202.636,196.716,
00:00:06:300,-0.01,-0.555,0.567,537.597,121.704,227.111,
00:00:06:316,-0.031,-0.311,0.48,621.765,101.562,212.524,
00:00:06:333,0.073,-0.876,0.736,765.075,-148.804,117.309,
00:00:06:350,-0.021,-1.196,0.827,754.272,-108.155,173.034,
00:00:06:366,0.191,-1.162,0.634,512.39,-135.498,103.82,
00:00:06:383,0.09,-1.002,0.662,-212.891,-104.615,177.429,
00:00:06:400,0.102,-0.541,0.752,-723.023,-22.156,1.525,
00:00:06:416,0.03,-0.848,0.92,-1710.267,63.293,-274.842,
00:00:06:433,0.057,-0.61,0.894,-2000,158.081,-370.423,
00:00:06:450,0.11,-0.169,0.88,-2000,319.885,-435.12,
00:00:06:466,0.175,-0.043,1.128,-2000,344.665,-442.261,
00:00:06:483,0.025,-0.208,1.234,-2000,361.755,-390.259,
00:00:06:500,-0.025,-0.625,1.258,-2000,419.25,-533.875,
00:00:06:516,-0.045,-0.739,1.184,-2000,547.485,-664.917,
00:00:06:533,0.012,-0.363,0.886,-2000,530.029,-723.572,
00:00:06:550,-0.003,0.266,0.741,-2000,380.371,-611.573,
00:00:06:566,0.054,0.266,0.553,-1880.372,349.67,-428.04,
00:00:06:583,0.272,0.622,0.547,-1380.86,280.761,-273.072,
00:00:06:600,0.281,0.857,0.598,-760.682,151.977,-292.237,
00:00:06:616,0.245,0.677,0.597,-282.41,122.863,-263.855,
00:00:06:633,0.278,0.726,0.679,113.342,119.079,-157.532,
00:00:06:650,0.306,0.767,0.803,526.855,79.284,-90.332,
00:00:06:666,0.382,0.831,0.764,900.695,19.836,-4.029,
00:00:06:683,0.471,0.896,0.794,1351.44,-148.316,105.59,
00:00:06:700,0.45,0.59,0.857,1828.003,-434.876,110.901,
00:00:06:716,0.392,0.329,1.091,1999.694,-673.035,295.227,
00:00:06:733,0.256,0.196,1.222,1999.694,-783.081,435.363,
00:00:06:750,0.121,0.04,1.156,1999.694,-716.065,526.672,
00:00:06:766,0.028,-0.12,1.057,1999.694,-604.187,578.247,
00:00:06:783,-0.035,-0.212,0.967,1999.694,-471.375,628.845,
00:00:06:800,-0.073,-0.245,0.943,1999.694,-262.818,553.894,
00:00:06:816,-0.133,-0.423,0.86,1178.466,129.211,403.625,
00:00:06:833,-0.184,-0.362,0.768,684.692,282.165,375.488,
00:00:06:850,-0.195,-0.167,0.699,452.514,431.274,314.331,
00:00:06:866,-0.079,-0.088,0.658,663.025,464.599,323.425,
00:00:06:883,0.113,-0.07,0.755,1084.9,343.872,336.975,
00:00:06:900,0.247,-0.273,0.913,1332.885,188.232,262.268,
00:00:06:916,0.2,-0.764,0.86,1306.091,126.953,201.599,
00:00:06:933,0.162,-0.753,0.639,1170.288,92.163,246.154,
00:00:06:950,0.144,-0.867,0.611,916.809,19.165,220.153,
00:00:06:966,0.144,-0.697,0.66,585.083,-20.386,176.208,
00:00:06:983,0.155,-0.703,0.838,348.449,-56.458,164.734,
00:00:07:0,0.173,-0.445,0.664,275.573,0.244,203.613,
00:00:07:16,0.067,-0.594,0.702,56.091,-107.178,192.26,
00:00:07:33,0.122,-0.515,0.632,-25.452,-94.666,137.39,
00:00:07:50,0.095,-0.779,0.776,-141.724,-45.472,76.965,
00:00:07:66,0.142,-1.014,0.907,-767.823,218.628,20.324,
00:00:07:83,0.206,-0.714,0.828,-1671.204,441.101,-209.351,
00:00:07:100,0.182,-0.624,0.944,-2000,589.416,-411.011,
00:00:07:116,0.236,-0.665,1.032,-2000,743.469,-487.549,
00:00:07:133,0.289,-0.511,0.961,-2000,815.307,-549.683,
00:00:07:150,0.326,-0.436,0.779,-2000,629.76,-585.328,
00:00:07:166,0.359,-0.595,0.981,-2000,353.82,-573.67,
00:00:07:183,0.398,-0.403,1.044,-2000,263.733,-528.138,
00:00:07:200,0.412,0.468,0.737,-2000,151.489,-366.272,
00:00:07:216,0.484,0.66,0.683,-1945.069,118.225,-426.758,
00:00:07:233,0.526,0.943,0.476,-1224.671,89.294,-189.759,
00:00:07:250,0.537,1.191,0.418,-334.9,2.014,-95.093,
00:00:07:266,0.529,1.17,0.427,716.858,-88.746,11.718,
00:00:07:283,0.473,0.5,0.81,1999.694,-158.326,401.428,
00:00:07:300,0.453,0.157,0.741,1999.694,-226.563,444.641,
00:00:07:316,0.42,-0.196,0.591,1999.694,-399.598,397.705,
00:00:07:333,0.336,-0.678,0.587,1999.694,-547.425,198.608,
00:00:07:350,0.223,-1.065,0.752,1999.694,-682.74,97.961,
00:00:07:366,0.153,-0.755,1.034,123.962,-164.307,145.446,
00:00:07:383,0.167,-0.693,0.924,-283.814,16.174,186.828,
00:00:07:400,0.131,-0.532,0.729,-522.4,91.064,203.674,
00:00:07:416,0.105,-0.289,0.713,-435.486,115.905,249.389,
00:00:07:433,0.148,-0.104,0.76,-110.779,147.155,239.196,
00:00:07:450,0.26,-0.045,0.764,434.875,177.002,-16.785,
00:00:07:466,0.263,-0.605,0.693,750.976,112.243,-48.462,
00:00:07:483,0.21,-0.713,0.631,665.649,21.789,-28.321,
00:00:07:500,0.223,-0.629,0.615,646.606,-16.846,24.231,
00:00:07:516,0.227,-0.6,0.732,586.364,-44.434,-14.649,
00:00:07:533,0.227,-0.865,0.837,214.904,2.319,-73.243,
00:00:07:550,0.22,-0.631,0.694,-85.022,13.244,-47.303,
00:00:07:566,0.187,-0.352,0.901,-61.768,-200.928,-61.036,
00:00:07:583,0.285,-0.327,0.853,187.988,-155.457,-34.241,
00:00:07:600,0.139,-0.428,0.64,189.758,-132.447,-61.524,
00:00:07:616,0.1,-0.458,0.603,210.327,-163.941,-86.304,
00:00:07:633,0.14,-0.522,0.602,286.56,-218.506,-50.171,
00:00:07:650,0.15,-0.495,0.606,406.677,-297.852,-9.766,
00:00:07:666,0.141,-0.593,0.609,409.179,-338.685,15.075,
00:00:07:683,0.091,-0.808,0.843,-0.794,-252.32,-15.87,
00:00:07:700,0.149,-0.661,1.002,-344.361,-34.974,-37.964,
00:00:07:716,0.237,-0.875,0.976,-629.822,75.5,-116.944,
00:00:07:733,0.143,-0.986,1.113,-1532.288,286.316,-231.019,
00:00:07:750,0.146,-0.662,1.032,-2000,539.245,-434.266,
00:00:07:766,0.175,-0.621,1.122,-2000,680.725,-621.766,
00:00:07:783,0.202,-0.662,0.986,-2000,789.062,-722.168,
00:00:07:800,0.32,-0.73,0.982,-2000,589.477,-633.973,
00:00:07:816,0.406,-0.246,0.993,-2000,336.547,-444.519,
00:00:07:833,0.289,-0.177,1.081,-2000,240.173,-534.119,
00:00:07:850,0.321,0.099,0.988,-2000,237.182,-586.182,
00:00:07:866,0.425,0.453,0.82,-1971.131,213.989,-480.408,
00:00:07:883,0.437,0.761,0.588,-1017.395,186.889,-152.955,
00:00:07:900,0.481,0.866,0.586,-167.42,101.013,-79.834,
00:00:07:916,0.479,0.801,0.588,477.295,26.794,28.442,
00:00:07:933,0.454,0.728,0.706,1179.382,-48.523,82.885,
00:00:07:950,0.406,0.516,0.803,1997.619,-111.451,276.062,
00:00:07:966,0.434,0.355,0.946,1999.694,-208.252,387.268,
00:00:07:983,0.468,0.118,0.969,1999.694,-343.201,455.688,
00:00:08:0,0.409,-0.173,0.892,1999.694,-460.816,440.063,
00:00:08:16,0.333,-0.539,0.853,1999.694,-580.384,370.544,
00:00:08:33,0.227,-0.88,0.857,1999.694,-588.868,163.757,
00:00:08:50,0.154,-0.993,0.915,1860.717,-493.958,135.986,
00:00:08:66,0.138,-0.969,0.907,984.13,-364.991,139.892,
00:00:08:83,0.143,-0.802,0.888,305.175,-262.024,131.713,
00:00:08:100,0.157,-0.624,0.861,-141.358,-127.686,172.119,
00:00:08:116,0.128,-0.479,0.756,-385.865,-50.049,183.593,
00:00:08:133,0.109,-0.273,0.771,-353.211,10.009,185.058,
00:00:08:150,0.123,-0.234,0.781,-108.094,18.493,172.363,
00:00:08:166,0.12,-0.202,0.753,184.753,44.494,191.223,
00:00:08:183,0.131,-0.358,0.732,331.726,38.024,169.677,
00:00:08:200,0.154,-0.365,0.695,408.386,39.55,171.02,
00:00:08:216,0.22,-0.313,0.696,618.469,20.752,82.946,
00:00:08:233,0.246,-0.631,0.749,710.327,-65.613,61.035,
00:00:08:250,0.184,-0.899,0.919,397.888,-96.131,37.658,
00:00:08:266,0.164,-0.62,0.772,162.719,-11.17,63.72,
00:00:08:283,0.225,-0.586,0.691,223.693,-42.176,17.456,
00:00:08:300,0.195,-0.701,0.74,103.393,-92.652,4.089,
00:00:08:316,0.186,-0.507,0.701,21.972,-85.633,-5.127,
00:00:08:333,0.214,-0.51,0.68,98.999,-124.512,-35.035,
00:00:08:350,0.126,-0.48,0.625,47.119,-97.29,-24.781,
00:00:08:366,0.097,-0.51,0.648,-49.683,-72.632,-73.975,
00:00:08:383,0.125,-0.538,0.644,-35.218,-37.293,-88.929,
00:00:08:400,0.137,-0.575,0.632,74.096,-86.914,-64.27,
00:00:08:416,0.158,-0.656,0.739,36.743,-121.644,-33.081,
00:00:08:433,0.144,-0.482,0.718,-172.242,-101.258,-23.072,
00:00:08:450,0.145,-0.611,0.873,-445.313,-62.989,-20.508,
00:00:08:466,0.225,-0.583,0.89,-676.758,12.023,-72.571,
00:00:08:483,0.245,-0.634,1.028,-1008.484,148.437,-101.075,
00:00:08:500,0.212,-0.561,1.163,-1404.358,294.799,-268.86,
00:00:08:516,0.219,-0.551,1.194,-1719.971,481.201,-444.581,
00:00:08:533,0.206,-0.625,0.95,-1989.991,628.173,-561.951,
00:00:08:550,0.227,-0.47,0.78,-2000,547.241,-531.861,
00:00:08:566,0.242,-0.432,0.791,-2000,322.692,-444.031,
00:00:08:583,0.283,-0.321,0.933,-2000,224.243,-487.244,
00:00:08:600,0.25,-0.295,1.165,-1993.104,131.347,-561.951,
00:00:08:616,0.29,-0.194,1.194,-1883.24,155.334,-563.782,
00:00:08:633,0.352,0.133,0.91,-1672.852,162.353,-404.847,
00:00:08:650,0.355,0.288,0.822,-1314.026,176.208,-331.299,
00:00:08:666,0.408,0.437,0.814,-900.391,92.59,-256.47,
00:00:08:683,0.379,0.486,0.761,-406.495,60.974,-113.404,
00:00:08:700,0.392,0.479,0.816,44.433,6.225,-23.56,
00:00:08:716,0.38,0.465,0.842,528.259,-52.124,61.706,
00:00:08:733,0.341,0.362,0.97,1125.122,-71.473,192.199,
00:00:08:750,0.33,0.229,1.075,1769.714,-79.712,375.671,
00:00:08:766,0.364,0.115,1.134,1999.694,-119.08,509.216,
00:00:08:783,0.362,-0.107,1.189,1999.694,-73.121,596.496,
00:00:08:800,0.415,-0.205,1.047,1999.694,-84.839,543.762,
00:00:08:816,0.399,-0.378,0.934,1999.694,-247.071,362.182,
00:00:08:833,0.297,-0.63,0.926,1789.367,-347.962,196.411,
00:00:08:850,0.189,-0.756,0.869,1039.123,-323.487,134.216,
00:00:08:866,0.135,-0.728,0.835,311.889,-304.017,52.368,
00:00:08:883,0.139,-0.508,0.835,-166.932,-251.954,79.834,
00:00:08:900,0.141,-0.319,0.908,-335.389,-231.934,45.288,
00:00:08:916,0.134,-0.231,1.004,-322.388,-172.547,30.883,
00:00:08:933,0.105,0.049,0.762,146.545,-46.509,126.342,
00:00:08:950,0.089,-0.031,0.643,516.418,-57.007,141.052,
00:00:08:966,0.104,-0.224,0.723,627.624,-65.552,101.928,
00:00:08:983,0.156,-0.423,0.9,440.49,-33.753,90.942,
00:00:09:0,0.156,-0.454,0.973,233.52,-8.545,126.098,
00:00:09:16,0.131,-0.256,0.795,228.576,66.894,169.738,
00:00:09:33,0.103,-0.287,0.751,330.932,121.154,126.464,canRH
00:00:09:50,0.162,-0.383,0.694,422.424,134.399,34.606,
00:00:09:66,0.172,-0.431,0.649,508.972,56.518,16.662,
00:00:09:83,0.168,-0.664,0.81,434.692,-5.921,8.3,
00:00:09:100,0.219,-0.6,0.941,249.023,6.774,8.3,
00:00:09:116,0.203,-0.56,0.801,336.547,-26.246,-33.204,
00:00:09:133,0.213,-0.589,0.749,341.003,-64.27,-66.346,
00:00:09:150,0.261,-0.633,0.765,358.581,-153.077,-61.463,
00:00:09:166,0.252,-0.681,0.88,238.952,-171.875,-57.19,
00:00:09:183,0.219,-0.541,0.837,156.555,-112.732,-49.927,
00:00:09:200,0.206,-0.55,0.755,123.596,-77.271,-71.656,
00:00:09:216,0.142,-0.511,0.536,-36.255,-78.858,-46.265,
00:00:09:233,0.123,-0.671,0.765,-281.8,-133.423,-41.687,
00:00:09:250,0.202,-0.364,0.749,-210.694,-129.639,-62.745,
00:00:09:266,0.167,-0.48,0.873,-74.891,-160.523,-93.75,
00:00:09:283,0.149,-0.432,0.82,-113.587,-167.42,-75.318,
00:00:09:300,0.075,-0.364,0.874,-253.296,-167.176,-87.159,
00:00:09:316,0.07,-0.184,0.78,-376.099,-112.427,-89.417,
00:00:09:333,0.085,-0.27,0.832,-337.281,-137.391,-100.892,
00:00:09:350,0.054,-0.491,1.109,-509.888,-35.584,-79.59,
00:00:09:366,0.092,-0.423,1.089,-765.259,176.818,-192.383,
00:00:09:383,0.138,-0.486,1.186,-1111.39,329.467,-325.501,
00:00:09:400,0.219,-0.35,0.775,-1494.812,498.657,-424.744,
00:00:09:416,0.104,-0.499,0.913,-1805.542,404.663,-586.06,
00:00:09:433,0.138,-0.52,0.711,-1994.935,529.602,-587.952,
00:00:09:450,0.239,-0.457,0.882,-2000,295.044,-592.102,
00:00:09:466,0.327,-0.356,0.951,-1999.695,210.693,-467.591,
00:00:09:483,0.303,-0.398,1.281,-1976.929,51.574,-529.602,
00:00:09:500,0.241,-0.097,1.16,-1945.679,118.225,-412.964,
00:00:09:516,0.297,0.05,1.22,-1750.55,109.069,-533.204,
00:00:09:533,0.35,0.223,1.027,-1519.288,188.72,-364.747,
00:00:09:550,0.409,0.652,0.871,-953.553,153.442,-194.397,
00:00:09:566,0.401,0.594,0.839,-221.253,72.387,-20.813,
00:00:09:583,0.425,0.592,0.919,388.122,-10.621,105.896,
00:00:09:600,0.403,0.443,1.032,1112.365,-50.232,295.532,
00:00:09:616,0.471,0.503,1.054,1567.26,-177.552,376.831,
00:00:09:633,0.464,0.325,1.094,1892.822,-369.263,359.985,
00:00:09:650,0.37,0.094,1.081,1999.694,-519.471,383.056,
00:00:09:666,0.245,-0.196,1.142,1999.694,-639.1,401.306,
00:00:09:683,0.121,-0.365,1.124,1999.694,-636.353,432.434,
00:00:09:700,0.054,-0.451,1.084,1999.694,-509.827,418.884,
00:00:09:716,0.072,-0.478,1.02,1872.436,-351.868,358.032,
00:00:09:733,0.078,-0.62,0.959,1386.291,-241.394,223.205,
00:00:09:750,0.044,-0.754,0.978,567.077,-210.144,129.272,
00:00:09:766,0.001,-0.61,0.916,-230.286,-145.691,114.99,
00:00:09:783,-0.034,-0.262,0.842,-595.032,-51.819,120.3,
00:00:09:800,-0.033,-0.062,0.726,-511.17,-6.775,112.793,
00:00:09:816,0.003,-0.015,0.701,-295.35,13.732,102.539,
00:00:09:833,-0.002,0.005,0.682,-111.268,6.897,32.653,
00:00:09:850,-0.03,0.06,0.736,181.152,-31.189,-32.837,
00:00:09:866,-0.019,0.11,0.752,655.517,-51.026,-68.604,
00:00:09:883,-0.006,-0.158,0.713,977.417,-45.472,-50.965,
00:00:09:900,-0.006,-0.554,0.792,914.123,-43.763,-65.918,
00:00:09:916,0.023,-0.752,0.857,444.519,23.681,-52.124,
00:00:09:933,0.042,-0.414,0.804,206.237,17.639,-30.091,
00:00:09:950,0.07,-0.269,0.814,401.428,-66.773,-30.152,
00:00:09:966,0.059,-0.413,0.84,454.834,-93.873,-25.33,
00:00:09:983,0.065,-0.579,0.923,344.421,-74.158,5.676,
00:00:10:0,0.027,-0.491,0.716,410.522,-29.664,31.921,
00:00:10:16,0.023,-0.585,0.722,387.451,-18.616,40.588,
00:00:10:33,0.043,-0.6,0.775,339.843,16.845,55.114,
00:00:10:50,0.05,-0.488,0.632,459.961,38.635,48.767,
00:00:10:66,0.036,-0.728,0.608,523.132,51.94,32.409,
00:00:10:83,0.068,-0.594,0.552,-84.595,139.099,83.313,
00:00:10:100,0.117,-0.556,0.662,-286.194,115.356,26.672,
00:00:10:116,0.165,-0.606,0.731,-501.709,55.969,14.16,
00:00:10:133,0.125,-0.667,0.884,-904.969,-11.17,27.16,
00:00:10:150,0.138,-0.589,0.988,-1446.9,-23.682,-10.926,
00:00:10:166,0.166,-0.492,1.171,-1963.868,-2.442,-96.253,
00:00:10:183,0.095,-0.3,1.228,-2000,78.186,-150.757,
00:00:10:200,0.091,-0.13,1.084,-2000,124.328,-374.268,
00:00:10:216,0.069,-0.388,1.113,-2000,99.609,-582.093,
00:00:10:233,0.102,-0.327,1.089,-2000,92.163,-601.685,
00:00:10:250,0.101,-0.061,1.077,-2000,81.054,-528.077,
00:00:10:266,0.061,0.072,1.174,-2000,65.979,-560.425,
00:00:10:283,0.034,-0.15,1.011,-2000,113.281,-604.554,
00:00:10:300,0.113,0.011,1.025,-2000,146.118,-581.177,
00:00:10:316,0.139,0.289,0.84,-1990.357,228.759,-412.842,
00:00:10:333,0.182,0.557,0.673,-1587.342,249.267,-355.103,
00:00:10:350,0.271,0.706,0.656,-1083.497,262.634,-267.456,
00:00:10:366,0.335,0.933,0.602,-465.882,208.984,-105.53,
00:00:10:383,0.301,0.858,0.637,246.276,167.602,-25.513,
00:00:10:400,0.307,0.673,0.671,777.343,145.568,102.539,
00:00:10:416,0.398,0.782,0.739,1088.44,73.425,258.545,
00:00:10:433,0.465,0.903,0.744,1388.549,-124.939,334.716,
00:00:10:450,0.418,0.947,0.879,1744.262,-322.266,300.964,
00:00:10:466,0.32,0.52,0.935,1999.694,-494.202,313.842,
00:00:10:483,0.186,0.331,1.049,1999.694,-601.746,470.092,
00:00:10:500,0.026,0.262,1.064,1999.694,-571.106,544.128,
00:00:10:516,-0.047,0.068,1.006,1999.694,-530.152,544.983,
00:00:10:533,-0.043,-0.141,0.988,1999.694,-439.27,534.423,
00:00:10:550,-0.079,-0.197,0.909,1999.694,-326.905,410.522,
00:00:10:566,-0.105,-0.398,0.799,1999.694,-273.316,310.058,
00:00:10:583,-0.134,-0.48,0.755,1732.971,-168.213,232.116,
00:00:10:600,-0.166,-0.652,0.787,1091.369,-68.36,97.412,
00:00:10:616,-0.183,-0.532,0.768,651.794,95.092,73.852,
00:00:10:633,-0.113,-0.481,0.781,540.71,132.812,46.569,
00:00:10:650,-0.058,-0.435,0.721,506.775,142.883,120.971,
00:00:10:666,-0.02,-0.314,0.749,525.634,94.909,175.598,
00:00:10:683,0.008,-0.316,0.816,655.944,73.12,166.32,
00:00:10:700,0.047,-0.493,0.847,835.51,61.767,140.869,
00:00:10:716,0.097,-0.708,0.807,885.62,22.216,121.887,
00:00:10:733,0.071,-0.746,0.71,797.973,28.747,114.807,
00:00:10:750,0.069,-0.852,0.679,665.527,-23.072,82.153,
00:00:10:766,0.07,-0.928,0.709,421.02,-53.589,40.893,
00:00:10:783,0.074,-0.697,0.722,255.737,-41.81,28.991,
00:00:10:800,0.089,-0.632,0.735,242.981,-77.82,21.118,
00:00:10:816,0.084,-0.67,0.715,139.526,-72.876,5.065,
00:00:10:833,0.025,-0.655,0.749,-120.484,-101.99,-8.484,
00:00:10:850,0.033,-0.667,0.713,-369.873,-96.07,-39.612,
00:00:10:866,0.007,-0.477,0.717,-435.547,-60.914,-58.838,
00:00:10:883,0.002,-0.39,0.691,-216.187,-75.562,-100.159,
00:00:10:900,-0.021,-0.619,0.828,-1.893,-136.292,-59.693,
00:00:10:916,-0.077,-0.51,0.837,-128.113,-97.962,-67.322,
00:00:10:933,-0.037,-0.494,0.771,-257.325,-32.776,-100.403,
00:00:10:950,-0.056,-0.743,0.901,-424.866,36.438,-158.387,
00:00:10:966,-0.035,-0.826,0.949,-863.526,233.032,-256.958,
00:00:10:983,-0.021,-0.766,0.876,-1298.279,390.197,-442.2,
00:00:11:0,-0.03,-1.042,1.013,-1747.071,501.281,-505.738,
00:00:11:16,0.009,-1.194,1.069,-2000,606.933,-608.338,
00:00:11:33,0.064,-1.073,0.994,-2000,596.496,-757.264,
00:00:11:50,0.056,-0.804,0.837,-2000,613.098,-732.056,
00:00:11:66,0.084,-0.73,0.712,-2000,537.536,-717.164,
00:00:11:83,0.178,-0.453,0.676,-2000,517.578,-680.97,
00:00:11:100,0.264,0.016,0.666,-2000,371.032,-733.277,
00:00:11:116,0.256,-0.023,0.753,-2000,346.435,-780.64,
00:00:11:133,0.395,0.126,0.77,-2000,387.878,-729.676,
00:00:11:150,0.509,0.685,0.691,-2000,356.323,-530.884,
00:00:11:166,0.515,1.159,0.638,-1521.119,293.335,-318.97,
00:00:11:183,0.512,1.121,0.59,-700.44,215.271,-83.191,
00:00:11:200,0.489,1.211,0.571,65.918,96.679,91.186,
00:00:11:216,0.471,1.048,0.629,758.85,-44.861,176.086,
00:00:11:233,0.492,0.962,0.742,1245.849,-189.942,255.127,
00:00:11:250,0.482,0.792,0.875,1719.726,-371.399,336.853,
00:00:11:266,0.418,0.543,0.938,1999.694,-534.302,468.75,
00:00:11:283,0.267,0.22,1.008,1999.694,-662.964,551.635,
00:00:11:300,0.12,-0.086,1.057,1999.694,-687.5,612.121,
00:00:11:316,0.019,-0.331,1.128,1999.694,-633.362,601.989,
00:00:11:333,-0.043,-0.444,1.145,1999.694,-496.582,607.177,
00:00:11:350,-0.081,-0.49,1.135,1672.729,-355.164,632.446,
00:00:11:366,-0.085,-0.482,1.036,1209.961,-217.041,597.656,
00:00:11:383,-0.093,-0.474,0.969,774.414,-103.821,550.232,
00:00:11:400,-0.092,-0.425,0.854,411.438,7.019,482.116,
00:00:11:416,-0.106,-0.128,0.736,206.176,55.114,375.915,
00:00:11:433,-0.123,0.39,0.624,410.095,132.873,226.135,
00:00:11:450,-0.092,0.08,0.51,1060.913,121.215,-26.856,
00:00:11:466,-0.083,-0.45,0.411,1323.608,103.759,-18.494,
00:00:11:483,-0.11,-0.596,0.426,1240.722,59.692,39.794,
00:00:11:500,-0.076,-0.497,0.515,1059.265,62.011,98.205,
00:00:11:516,0.009,-0.48,0.672,877.502,53.772,59.021,
00:00:11:533,0.131,-0.571,0.836,651.855,-47.608,45.532,
00:00:11:550,0.111,-0.584,0.929,450.805,-99.183,106.994,
00:00:11:566,0.048,-0.481,0.902,263.366,-81.116,127.38,
00:00:11:583,0.107,-0.551,1.107,127.868,-93.14,91.98,
00:00:11:600,0.158,-0.41,0.843,166.931,-41.26,67.688,
00:00:11:616,0.103,-0.603,0.895,4.821,-40.406,46.264,
00:00:11:633,0.072,-0.753,0.865,-475.342,110.901,35.4,
00:00:11:650,0.103,-0.688,0.82,-1071.961,220.947,-74.341,
00:00:11:666,0.053,-0.543,0.824,-1491.028,252.441,-165.955,
00:00:11:683,0.062,-0.373,0.854,-1677.308,333.801,-272.4,
00:00:11:700,0.117,-0.234,0.868,-1881.653,347.656,-420.044,
00:00:11:716,0.104,-0.313,0.927,-2000,282.959,-499.268,
00:00:11:733,0.087,-0.241,0.999,-2000,273.01,-642.884,
00:00:11:750,0.151,-0.181,0.946,-2000,198.181,-645.447,
00:00:11:766,0.109,-0.392,0.995,-2000,113.525,-643.86,
00:00:11:783,0.184,-0.376,1.143,-2000,108.276,-611.756,
00:00:11:800,0.156,-0.326,1.244,-2000,99.792,-652.527,
00:00:11:816,0.181,-0.157,0.952,-2000,304.382,-758.789,
00:00:11:833,0.288,0.225,0.718,-2000,405.09,-792.664,
00:00:11:850,0.563,1.223,0.639,-2000,282.714,-506.226,
00:00:11:866,0.507,1.179,0.49,-1385.743,180.908,-293.946,
00:00:11:883,0.48,1.426,0.526,-247.132,35.156,-87.098,
00:00:11:900,0.433,1.205,0.538,715.515,-35.401,39.917,
00:00:11:916,0.399,1.035,0.674,1313.354,-83.313,115.051,
00:00:11:933,0.322,0.812,0.755,1800.048,-120.179,251.831,
00:00:11:950,0.327,0.619,0.779,1999.694,-174.927,471.984,
00:00:11:966,0.298,0.373,0.846,1999.694,-294.068,611.633,
00:00:11:983,0.225,0.359,0.886,1999.694,-389.405,627.685,
00:00:12:0,0.148,0.212,0.898,1999.694,-469.971,461.914,
00:00:12:16,0.09,-0.173,0.946,1999.694,-580.079,360.412,
00:00:12:33,0.051,-0.474,0.956,1999.694,-645.935,339.782,
00:00:12:50,0.022,-0.642,0.919,1999.694,-653.077,367.675,
00:00:12:66,-0.037,-0.757,0.85,1999.694,-555.603,411.804,
00:00:12:83,-0.073,-0.769,0.828,1955.078,-390.198,418.518,
00:00:12:100,-0.085,-0.785,0.859,1123.779,-245.057,296.325,
00:00:12:116,-0.066,-0.748,0.9,518.982,-89.295,238.159,
00:00:12:133,-0.028,-0.692,0.861,181.762,43.273,200.195,
00:00:12:150,-0.004,-0.533,0.773,-0.611,182.495,169.311,
00:00:12:166,-0.008,-0.375,0.69,-22.95,244.445,169.067,
00:00:12:183,0.007,-0.234,0.672,104.736,286.071,174.133,
00:00:12:200,0.043,-0.249,0.626,257.995,242.553,139.038,
00:00:12:216,0.07,-0.185,0.605,399.231,200.744,184.997,
00:00:12:233,0.1,-0.219,0.556,640.869,126.281,76.294,
00:00:12:250,0.133,-0.545,0.568,817.871,3.112,30.7,
00:00:12:266,0.106,-0.703,0.654,668.64,-88.868,46.447,
00:00:12:283,0.062,-0.783,0.737,285.034,-116.944,35.156,
00:00:12:300,0.074,-0.659,0.782,-57.679,-90.332,18.554,
00:00:12:316,0.123,-0.536,0.817,-191.956,-138.428,21.789,
00:00:12:333,0.106,-0.587,0.994,-194.336,-180.298,10.315,
00:00:12:350,0.101,-0.542,0.941,-26.795,-112.427,31.372,
00:00:12:366,0.107,-0.595,0.869,33.02,-68.848,-4.517,
00:00:12:383,0.067,-0.669,0.851,-133.851,-7.874,-42.054,
00:00:12:400,0.041,-0.594,0.696,-335.694,65.185,-81.971,
00:00:12:416,0.026,-0.585,0.728,-461.731,104.675,-82.093,
00:00:12:433,0.075,-0.577,0.668,-442.078,117.492,-52.735,
00:00:12:450,0.08,-0.674,0.934,-605.347,139.099,-40.894,
00:00:12:466,0.083,-0.676,1.071,-927.491,210.571,-112.793,
00:00:12:483,0.16,-0.63,1.112,-1450.806,332.519,-222.046,
00:00:12:500,0.159,-0.335,1.082,-1954.285,425.109,-369.568,
00:00:12:516,0.113,-0.187,1.088,-2000,476.562,-408.143,
00:00:12:533,0.22,-0.247,0.973,-1969.605,396.179,-326.661,
00:00:12:550,0.213,0.049,0.958,-1558.289,183.593,-152.527,
00:00:12:566,0.151,0.127,0.739,-721.131,25.878,-132.325,
00:00:12:583,0.16,-0.282,1.092,-180.237,-11.17,-41.504,
00:00:12:600,0.198,-0.035,0.709,-55.603,-117.005,-102.723,
00:00:12:616,0.144,-0.505,1.027,15.991,-151.612,-92.591,
00:00:12:633,0.144,0.002,0.268,-436.951,-126.16,-74.585,
00:00:12:650,-0.089,-0.916,1.17,-888.245,-327.759,-390.686,
00:00:12:666,0.132,-0.362,1.185,-1907.715,-38.086,-304.261,
00:00:12:683,0.15,0.387,1.205,-1834.107,101.501,-330.628,
00:00:12:700,0.179,0.363,1.198,-1190.491,67.565,-262.818,
00:00:12:716,0.173,0.146,1.267,-1205.933,9.338,-220.643,
00:00:12:733,0.157,0.178,1.176,-1590.882,124.694,-238.953,
00:00:12:750,0.13,0.231,1.084,-1600.342,165.222,-304.871,
00:00:12:766,0.148,0.276,0.964,-1477.54,195.373,-282.532,
00:00:12:783,0.147,0.421,0.917,-1262.452,206.787,-267.273,
00:00:12:800,0.188,0.622,0.91,-824.219,196.045,-193.726,
00:00:12:816,0.232,0.585,0.875,-198.243,163.94,-76.6,
00:00:12:833,0.254,0.68,0.873,588.806,113.037,53.222,
00:00:12:850,0.321,0.785,0.918,1513.122,42.968,181.884,
00:00:12:866,0.358,0.667,0.855,1999.694,-80.445,335.693,
00:00:12:883,0.358,0.498,0.907,1999.694,-323.304,334.472,
00:00:12:900,0.288,0.197,0.963,1999.694,-487.366,334.594,
00:00:12:916,0.199,-0.034,0.924,1999.694,-567.2,323.974,
00:00:12:933,0.095,-0.422,0.878,1999.694,-609.986,337.097,
00:00:12:950,0.013,-0.669,0.869,1999.694,-535.218,324.707,
00:00:12:966,-0.025,-0.754,0.9,1999.694,-433.838,263.794,
00:00:12:983,-0.028,-0.799,0.971,1314.087,-284.119,162.109,
00:00:13:0,-0.032,-0.86,0.949,449.096,-102.784,146.606,
00:00:13:16,-0.015,-0.71,0.788,-264.161,63.781,155.456,
00:00:13:33,-0.002,-0.374,0.733,-616.272,172.302,170.471,
00:00:13:50,0.006,-0.189,0.692,-631.409,205.444,146.057,canRH
00:00:13:66,0.037,-0.134,0.692,-515.259,203.979,159.729,
00:00:13:83,0.041,-0.098,0.718,-343.262,157.043,141.296,
00:00:13:100,-0.003,-0.006,0.621,-30.64,151.855,105.224,
00:00:13:116,-0.003,0.049,0.527,549.865,137.024,88.195,
00:00:13:133,0.034,-0.135,0.468,1161.499,101.257,55.847,
00:00:13:150,0.063,-0.628,0.477,1363.159,5.737,64.025,
00:00:13:166,0.056,-0.96,0.603,924.865,-53.589,75.683,
00:00:13:183,0.035,-0.821,0.753,226.745,-54.81,57.251,
00:00:13:200,0.128,-0.484,0.848,-77.576,-92.774,17.395,
00:00:13:216,0.177,-0.373,0.898,224.304,-199.524,7.202,
00:00:13:233,0.205,-0.63,0.993,651.489,-313.05,36.132,
00:00:13:250,0.081,-0.759,0.864,461.181,-220.032,1.586,
00:00:13:266,0.034,-0.747,0.781,91.552,-135.01,-52.796,
00:00:13:283,0.123,-0.678,0.712,-128.052,-76.233,-46.692,
00:00:13:300,0.093,-0.621,0.849,-265.442,-67.566,2.563,
00:00:13:316,0.064,-0.716,0.952,-459.229,47.729,-13.489,
00:00:13:333,0.046,-0.541,0.881,-766.785,203.186,-112.977,
00:00:13:350,0.036,-0.533,0.947,-1008.545,256.775,-171.875,
00:00:13:366,0.051,-0.381,0.905,-1359.375,338.012,-210.572,
00:00:13:383,0.021,-0.135,0.793,-1508.851,347.534,-294.007,
00:00:13:400,0.062,-0.159,0.828,-1363.587,302.734,-315.796,
00:00:13:416,0.11,-0.154,0.78,-1123.23,215.271,-248.658,
00:00:13:433,0.128,-0.319,1.063,-933.594,112.976,-233.704,
00:00:13:450,0.204,-0.423,1.313,-909.363,47.424,-326.722,
00:00:13:466,0.135,-0.554,1.483,-1128.907,78.918,-392.579,
00:00:13:483,0.101,-0.654,1.407,-1543.763,211.792,-434.327,
00:00:13:500,0.123,-0.597,1.354,-1920.533,251.403,-513.733,
00:00:13:516,0.187,-0.303,1.15,-1870.667,296.997,-411.499,
00:00:13:533,0.265,0.182,0.945,-1426.575,262.939,-321.595,
00:00:13:550,0.29,0.227,0.92,-848.633,187.561,-236.817,
00:00:13:566,0.312,0.277,0.957,-302.491,144.653,-76.416,
00:00:13:583,0.318,0.334,1.018,339.843,123.535,31.066,
00:00:13:600,0.297,0.303,1.144,1086.547,94.543,131.53,
00:00:13:616,0.26,0.224,1.199,1843.383,71.777,329.101,
00:00:13:633,0.241,0.083,1.113,1999.694,49.438,442.138,
00:00:13:650,0.337,-0.118,1.031,1999.694,-41.932,432.19,
00:00:13:666,0.351,-0.283,0.989,1999.694,-96.436,244.629,
00:00:13:683,0.256,-0.444,0.791,1999.694,-230.957,57.312,
00:00:13:700,0.156,-0.706,0.797,1525.695,-371.705,21.728,
00:00:13:716,0.102,-0.77,0.831,764.587,-365.845,15.564,
00:00:13:733,0.084,-0.573,0.845,165.771,-308.96,-23.011,
00:00:13:750,0.09,-0.425,0.881,-82.398,-250.123,-39.978,
00:00:13:766,0.113,-0.368,0.887,-169.8,-183.167,-23.865,
00:00:13:783,0.12,-0.364,0.837,-196.961,-172.303,13.061,
00:00:13:800,0.125,-0.325,0.823,-162.476,-174.378,109.863,
00:00:13:816,0.071,-0.207,0.757,-177.369,-164.612,124.084,
00:00:13:833,0.036,0.019,0.627,27.71,-127.93,103.027,
00:00:13:850,0.008,0.007,0.521,439.27,-130.799,55.786,
00:00:13:866,-0.045,-0.298,0.555,746.887,-124.756,48.4,
00:00:13:883,-0.071,-0.53,0.582,802.002,-71.351,41.809,
00:00:13:900,-0.05,-0.639,0.523,739.318,2.746,44.433,
00:00:13:916,-0.037,-0.753,0.486,544.494,29.174,93.627,
00:00:13:933,-0.013,-0.664,0.515,319.763,70.678,110.473,
00:00:13:950,0.048,-0.558,0.612,250.671,91.125,89.355,
00:00:13:966,0.085,-0.432,0.769,321.655,65.002,46.325,
00:00:13:983,0.167,-0.557,0.914,558.654,-29.236,-54.322,
00:00:14:0,0.288,-0.816,1.029,573.303,-145.386,-55.97,
00:00:14:16,0.213,-0.901,1.056,472.595,-249.146,-3.602,
00:00:14:33,0.114,-0.872,1.011,202.392,-190.491,3.418,
00:00:14:50,0.048,-0.692,0.872,-24.598,-65.979,-68.116,
00:00:14:66,0.044,-0.796,0.81,-136.414,-19.288,-124.329,
00:00:14:83,0.022,-0.638,0.684,-221.192,19.653,-84.046,
00:00:14:100,0.005,-0.581,0.619,-308.167,74.279,-76.539,
00:00:14:116,0.051,-0.75,0.878,-404.602,63.903,-21.729,
00:00:14:133,0.114,-0.632,0.871,-659.546,142.578,-5.555,
00:00:14:150,0.107,-0.735,1.003,-961.121,225.586,46.569,
00:00:14:166,0.067,-0.415,0.811,-1087.891,280.761,14.526,
00:00:14:183,0.081,-0.426,0.949,-916.382,309.387,40.649,
00:00:14:200,0.141,-0.201,0.948,-572.327,256.042,-15.686,
00:00:14:216,0.13,-0.189,0.834,-383.973,234.253,8.972,
00:00:14:233,0.167,-0.482,1.086,-483.155,215.942,-16.053,
00:00:14:250,0.117,-0.074,0.471,-667.664,208.007,1.525,
00:00:14:266,0.064,-0.648,0.725,-583.558,140.686,-46.814,
00:00:14:283,0.123,-0.161,0.425,-685.242,38.696,-108.582,
00:00:14:300,0.226,-0.762,1.212,-287.049,-10.437,-426.941,
00:00:14:316,0.317,-0.908,1.115,-766.053,-14.588,-240.723,
00:00:14:333,0.12,-0.869,1.233,-1349.793,47.18,-344.971,
00:00:14:350,0.213,-0.389,1.227,-1994.751,141.723,-476.807,
00:00:14:366,0.249,-0.209,1.125,-2000,186.279,-474.915,
00:00:14:383,0.205,0.291,0.863,-1788.331,189.88,-221.985,
00:00:14:400,0.248,0.602,0.941,-950.623,106.689,-116.211,
00:00:14:416,0.219,0.406,0.971,103.881,97.473,76.721,
00:00:14:433,0.243,0.172,0.99,819.58,85.632,131.286,
00:00:14:450,0.251,0.105,0.971,1147.033,4.394,90.637,
00:00:14:466,0.225,0.022,0.895,1415.344,-112,77.636,
00:00:14:483,0.153,-0.328,1.06,1760.131,-335.816,-15.625,
00:00:14:500,0.248,-0.527,1.166,1564.636,-370.484,86.12,
00:00:14:516,0.221,-0.33,1.178,1473.083,-380.738,82.275,
00:00:14:533,0.175,-0.476,1.154,1486.816,-351.38,131.652,
00:00:14:550,0.134,-0.594,1.047,1275.573,-239.319,146.911,
00:00:14:566,0.116,-0.594,0.864,932.067,-157.41,126.831,
00:00:14:583,0.102,-0.566,0.821,537.475,-141.419,82.214,
00:00:14:600,0.1,-0.552,0.909,187.255,-117.737,39.978,
00:00:14:616,0.105,-0.493,0.942,-85.511,-62.073,35.461,
00:00:14:633,0.069,-0.285,0.841,-109.498,-16.724,51.574,
00:00:14:650,0.068,-0.081,0.69,192.871,-8.301,75.195,
00:00:14:666,0.041,-0.327,0.633,454.04,-49.866,41.198,
00:00:14:683,-0.04,-0.449,0.622,455.932,-68.116,32.775,
00:00:14:700,-0.011,-0.319,0.592,610.656,7.812,-27.161,
00:00:14:716,0.033,-0.786,0.628,630.554,21.728,-88.929,
00:00:14:733,0.019,-0.887,0.688,227.295,18.859,-33.448,
00:00:14:750,0.038,-0.531,0.667,2.014,25.634,16.662,
00:00:14:766,0.079,-0.384,0.675,148.254,2.258,59.631,
00:00:14:783,0.107,-0.478,0.822,208.374,-12.94,68.115,
00:00:14:800,0.119,-0.498,0.906,134.46,5.004,38.696,
00:00:14:816,0.082,-0.435,0.85,154.113,38.635,22.338,
00:00:14:833,0.071,-0.571,0.748,227.966,47.424,-1.404,
00:00:14:850,0.076,-0.54,0.705,351.745,33.691,-0.611,
00:00:14:866,0.114,-0.787,0.774,366.76,-87.098,-5.494,
00:00:14:883,0.067,-0.647,0.835,91.491,-127.625,15.869,
00:00:14:900,0.053,-0.487,0.83,29.602,-151.612,4.394,
00:00:14:916,0.052,-0.521,0.786,97.778,-157.105,-11.963,
00:00:14:933,0.054,-0.631,0.82,218.139,-197.51,-8.667,
00:00:14:950,0.049,-0.672,0.753,222.839,-161.56,70.8,
00:00:14:966,0.029,-0.624,0.738,217.041,-122.01,59.875,
00:00:14:983,0.069,-0.809,0.836,171.875,-90.332,44.311,
00:00:15:0,0.065,-0.783,0.592,-190.369,91.308,17.639,
00:00:15:16,0.032,-0.718,0.574,-701.111,150.573,20.019,
00:00:15:33,0.038,-0.797,0.656,-1138.855,192.566,-31.189,
00:00:15:50,0.099,-0.453,0.825,-1300.293,229.98,-1.221,
00:00:15:66,0.133,-0.282,0.883,-1187.562,255.127,-46.448,
00:00:15:83,0.12,-0.489,1.01,-1097.352,202.453,-113.526,
00:00:15:100,0.149,-0.567,1.202,-1338.562,222.595,-125.184,
00:00:15:116,0.199,-0.35,1.293,-1562.806,325.439,-299.317,
00:00:15:133,0.167,-0.609,1.093,-1543.519,335.571,-431.092,
00:00:15:150,0.157,-0.473,0.924,-1673.951,338.989,-325.806,
00:00:15:166,0.17,-0.271,0.977,-1898.011,222.351,-423.951,
00:00:15:183,0.181,-0.286,0.954,-1801.819,226.257,-429.566,
00:00:15:200,0.204,-0.013,0.908,-1874.451,172.668,-344.239,
00:00:15:216,0.182,-0.057,0.899,-1613.526,108.52,-422.364,
00:00:15:233,0.233,0.065,0.931,-1401.856,83.923,-292.115,
00:00:15:250,0.285,0.529,0.923,-993.714,48.889,-151.185,
00:00:15:266,0.259,0.52,1.032,-292.359,8.483,-88.44,
00:00:15:283,0.266,0.388,1.03,287.597,-3.052,40.954,
00:00:15:300,0.307,0.313,1.076,800.293,-76.722,97.351,
00:00:15:316,0.303,0.157,1.028,1284.423,-370.789,147.277,
00:00:15:333,0.204,-0.026,1.076,1333.557,-507.752,146.301,
00:00:15:350,0.109,-0.151,1.057,1308.41,-568.055,187.622,
00:00:15:366,0.048,-0.286,1.084,1352.234,-592.896,172.668,
00:00:15:383,0.023,-0.339,1.122,1366.394,-536.377,258.178,
00:00:15:400,0.018,-0.406,1.12,1302.185,-453.125,289.184,
00:00:15:416,-0.006,-0.342,1.123,1207.824,-293.335,289.306,
00:00:15:433,-0.032,-0.303,1.024,1134.033,-135.804,226.318,
00:00:15:450,-0.003,-0.221,0.838,982.177,-7.447,197.631,
00:00:15:466,-0.027,-0.283,0.734,849.914,22.094,136.535,
00:00:15:483,-0.056,-0.205,0.709,843.261,30.029,114.807,
00:00:15:500,-0.024,-0.386,0.7,799.804,67.871,50.964,
00:00:15:516,-0.028,-0.514,0.628,586.425,89.965,53.894,
00:00:15:533,-0.043,-0.384,0.638,453.918,108.825,93.322,
00:00:15:550,-0.049,-0.381,0.656,449.218,120.117,99.548,
00:00:15:566,-0.005,-0.472,0.673,455.2,132.507,86.914,
00:00:15:583,0.02,-0.567,0.696,359.008,110.29,78.064,
00:00:15:600,0.04,-0.569,0.725,258.056,77.758,73.364,
00:00:15:616,0.056,-0.535,0.76,237.915,31.25,80.017,
00:00:15:633,0.062,-0.577,0.873,219.604,-22.644,64.636,
00:00:15:650,0.058,-0.64,0.924,76.355,-65.491,47.729,
00:00:15:666,0.043,-0.426,0.954,99.853,-65.369,61.767,
00:00:15:683,0.088,-0.427,0.871,461.547,-166.932,3.173,
00:00:15:700,0.061,-0.666,0.905,463.745,-188.904,26.977,
00:00:15:716,0.019,-0.697,0.873,343.322,-168.213,-8.179,
00:00:15:733,0.061,-0.752,0.941,217.224,-206.177,-52.002,
00:00:15:750,-0.002,-0.56,0.807,216.674,-89.295,-23.438,
00:00:15:766,0.019,-0.752,0.757,291.015,-45.472,-115.845,
00:00:15:783,0.013,-0.849,0.692,131.775,13.732,-112.488,
00:00:15:800,0.005,-0.74,0.63,-48.951,55.786,-123.902,
00:00:15:816,0.037,-0.697,0.633,-195.984,36.01,-113.282,
00:00:15:833,0.073,-0.508,0.721,-797.059,188.659,-107.727,
00:00:15:850,0.08,-0.551,0.879,-795.533,188.11,-79.651,
00:00:15:866,0.04,-0.419,0.647,-739.747,166.565,-54.078,
00:00:15:883,-0.014,-0.547,0.602,-906.311,183.838,-32.349,
00:00:15:900,0.103,-0.038,0.895,-1391.846,217.773,-178.101,
00:00:15:916,0.206,-0.164,1.286,-998.597,159.546,-307.923,
00:00:15:933,0.216,-0.527,1.388,-1025.879,181.518,-341.736,
00:00:15:950,0.127,-0.69,1.352,-1511.17,194.885,-333.619,
00:00:15:966,0.168,-0.545,1.054,-1998.658,275.085,-317.322,
00:00:15:983,0.206,-0.073,0.889,-2000,159.362,-334.961,
00:00:16:0,0.108,-0.036,0.911,-1964.478,72.265,-314.27,
00:00:16:16,0.092,0.103,0.845,-1853.394,76.599,-256.287,
00:00:16:33,0.174,0.255,0.969,-1599.854,76.294,-295.838,
00:00:16:50,0.222,0.585,0.958,-1100.77,62.255,-148.438,
00:00:16:66,0.215,0.542,0.953,442.993,57.739,100.463,
00:00:16:83,0.288,0.605,0.934,1006.286,-13.001,143.493,
00:00:16:100,0.298,0.547,0.929,1415.1,-231.385,112.854,
00:00:16:116,0.236,0.329,0.973,1660.583,-452.515,113.647,
00:00:16:133,0.126,0.1,1.021,1924.072,-610.108,71.533,
00:00:16:150,0.031,-0.183,1.084,1999.694,-665.223,125.183,
00:00:16:166,-0.009,-0.366,1.11,1978.21,-591.98,213.44,
00:00:16:183,-0.062,-0.42,1.091,1874.328,-477.356,293.274,
00:00:16:200,-0.089,-0.471,1.083,1645.874,-344.239,337.341,
00:00:16:216,-0.099,-0.602,1.032,1237.304,-227.356,338.867,
00:00:16:233,-0.114,-0.589,0.956,605.957,-71.167,323.608,
00:00:16:250,-0.119,-0.284,0.792,156.86,53.039,228.271,
00:00:16:266,-0.111,0.003,0.721,216.552,101.928,157.592,
00:00:16:283,-0.096,-0.027,0.703,491.088,119.323,132.995,
00:00:16:300,-0.087,-0.214,0.754,603.088,96.923,107.971,
00:00:16:316,-0.087,-0.292,0.752,604.736,117.553,107.36,
00:00:16:333,-0.068,-0.378,0.668,580.261,139.221,90.82,
00:00:16:350,-0.054,-0.456,0.627,535.766,133.789,57.495,
00:00:16:366,-0.027,-0.499,0.653,472.412,108.398,37.536,
00:00:16:383,-0.015,-0.474,0.675,425.903,93.872,36.682,
00:00:16:400,0.017,-0.644,0.764,408.63,43.64,5.493,
00:00:16:416,0.034,-0.689,0.837,112.976,8.239,47.363,
00:00:16:433,0.021,-0.594,0.932,-200.867,-43.03,50.537,
00:00:16:450,0.018,-0.383,1.003,-282.837,-26.429,62.316,
00:00:16:466,0.072,-0.215,0.905,104.675,-120.301,37.353,
00:00:16:483,0.034,-0.464,0.854,401.123,-167.115,16.54,
00:00:16:500,-0.056,-0.557,0.812,376.098,-113.465,2.319,
00:00:16:516,-0.054,-0.658,0.774,320.373,-76.966,-25.513,
00:00:16:533,-0.008,-0.66,0.784,176.818,-3.235,-2.259,
00:00:16:550,-0.005,-0.634,0.803,75.439,36.438,-0.733,
00:00:16:566,-0.013,-0.69,0.834,-71.717,127.624,-1.831,
00:00:16:583,0.017,-0.688,0.82,-384.4,213.44,13.061,
00:00:16:600,0.035,-0.588,0.915,-650.33,246.154,-14.344,
00:00:16:616,0.061,-0.436,0.954,-868.042,273.559,-38.758,
00:00:16:633,0.039,-0.466,0.854,-1135.132,273.742,-61.463,
00:00:16:650,0.034,-0.39,0.914,-1455.567,297.973,-129.334,
00:00:16:667,0.069,-0.161,0.843,-1676.331,322.876,-270.142,
00:00:16:683,0.069,-0.299,0.883,-1589.051,250,-336.731,
00:00:16:700,0.111,-0.39,0.999,-1629.456,177.063,-387.635,
00:00:16:717,0.195,-0.431,1.242,-1754.822,119.506,-463.807,
00:00:16:733,0.131,-0.307,1.241,-1856.629,60.241,-483.46,
00:00:16:750,0.09,-0.39,1.291,-1966.126,98.816,-480.957,
00:00:16:767,0.171,0,1.158,-1992.249,122.985,-476.258,
00:00:16:783,0.169,0.191,1.018,-1718.262,134.094,-430.909,
00:00:16:800,0.171,0.293,0.983,-1339.966,157.287,-315.979,
00:00:16:817,0.29,0.661,0.942,-826.416,98.388,-225.403,
00:00:16:833,0.183,0.316,0.995,-351.441,71.044,-178.223,
00:00:16:850,0.227,0.476,0.97,-50.354,100.097,-4.883,
00:00:16:867,0.208,0.399,0.954,563.964,82.824,91.247,
00:00:16:883,0.233,0.373,0.884,902.893,23.742,175.171,
00:00:16:900,0.219,0.261,1.04,1088.317,-175.843,83.129,
00:00:16:917,0.223,0.205,1.07,1081.482,-257.874,138.305,
00:00:16:933,0.203,0.296,1.065,1320.251,-382.691,136.108,
00:00:16:950,0.123,0,1.095,1695.312,-460.511,155.273,
00:00:16:967,0.061,-0.161,1.104,1807.8,-463.257,193.908,
00:00:16:983,0.004,-0.239,1.078,1849.365,-394.165,281.494,
00:00:17:0,-0.036,-0.263,1.033,1941.406,-271.912,399.047,
00:00:17:17,-0.038,-0.289,0.961,1999.694,-156.617,497.741,
00:00:17:33,-0.047,-0.434,0.898,1869.262,-94.3,482.422,
00:00:17:50,-0.033,-0.49,0.783,1388.366,26.489,357.422,
00:00:17:67,-0.048,-0.386,0.638,1017.273,63.537,221.435,
00:00:17:83,-0.061,-0.242,0.551,796.508,41.137,192.871,canRH
00:00:17:100,-0.082,-0.191,0.498,731.628,58.96,146.972,
00:00:17:117,-0.081,-0.132,0.505,850.525,111.694,105.163,
00:00:17:133,-0.016,-0.34,0.541,1060.363,78.247,67.016,
00:00:17:150,0.001,-0.629,0.64,1027.526,24.475,87.524,
00:00:17:167,-0.003,-0.657,0.697,816.589,30.639,127.685,
00:00:17:183,0.081,-0.702,0.755,603.332,10.559,146.24,
00:00:17:200,0.128,-0.625,0.822,467.224,-18.311,159.484,
00:00:17:217,0.135,-0.654,0.851,401.916,-64.881,114.257,
00:00:17:233,0.114,-0.716,0.846,351.135,-104.493,63.659,
00:00:17:250,0.093,-0.705,0.807,354.065,-135.865,21.118,
00:00:17:267,0.093,-0.669,0.798,483.642,-156.006,3.295,
00:00:17:283,0.081,-0.826,0.769,648.62,-217.469,8.85,
00:00:17:300,-0.02,-0.886,0.746,472.107,-101.197,52.795,
00:00:17:317,-0.009,-0.822,0.708,321.594,5.676,7.08,
00:00:17:333,0.031,-0.813,0.664,264.282,65.124,23.498,
00:00:17:350,0.024,-0.791,0.646,257.019,110.534,56.762,
00:00:17:367,0.056,-0.787,0.646,268.859,138.122,94.604,
00:00:17:383,0.089,-0.807,0.672,298.156,141.784,121.46,
00:00:17:400,0.11,-0.809,0.63,332.275,132.69,127.868,
00:00:17:417,0.11,-0.819,0.635,299.133,123.962,126.403,
00:00:17:433,0.104,-0.833,0.608,299.743,125.122,106.018,
00:00:17:450,0.132,-0.882,0.569,290.954,140.442,74.523,
00:00:17:467,0.129,-0.921,0.531,224.548,140.747,92.102,
00:00:17:483,0.151,-0.958,0.495,119.384,137.695,73.974,
00:00:17:500,0.166,-0.932,0.496,-10.743,146.606,80.2,
00:00:17:517,0.137,-0.848,0.447,-187.073,184.326,48.95,
00:00:17:533,0.123,-0.924,0.486,-421.143,226.684,34.057,
00:00:17:550,0.145,-0.926,0.457,-760.56,231.872,45.715,
00:00:17:567,0.17,-0.865,0.577,-1119.568,209.411,76.843,
00:00:17:583,0.302,-0.75,0.819,-1035.584,236.572,-94.605,
00:00:17:600,0.286,-0.625,0.745,-902.161,180.603,-138.672,
00:00:17:617,0.098,-0.791,0.714,-1007.02,163.025,-108.704,
00:00:17:633,0.074,-0.802,0.726,-1417.115,263.916,-207.459,
00:00:17:650,0.142,-0.619,0.692,-1704.529,339.721,-226.624,
00:00:17:667,0.18,-0.595,0.76,-1729.615,301.33,-259.339,
00:00:17:683,0.198,-0.574,0.807,-1760.254,274.353,-267.579,
00:00:17:700,0.203,-0.555,0.862,-1910.706,230.59,-267.64,
00:00:17:717,0.239,-0.391,0.909,-2000,208.74,-283.57,
00:00:17:733,0.234,-0.197,0.967,-2000,209.533,-425.11,
00:00:17:750,0.213,-0.387,0.97,-2000,172.302,-520.569,
00:00:17:767,0.199,-0.326,1.016,-2000,106.811,-465.027,
00:00:17:783,0.254,-0.032,0.899,-2000,185.058,-348.084,
00:00:17:800,0.273,0.25,0.921,-1535.157,142.944,-309.571,
00:00:17:817,0.237,0.115,0.92,-1138.367,156.128,-274.231,
00:00:17:833,0.357,0.309,0.866,-900.879,155.395,-187.928,
00:00:17:850,0.358,0.442,0.855,-408.936,85.388,-94.361,
00:00:17:867,0.344,0.409,0.892,111.511,48.889,-7.813,
00:00:17:883,0.376,0.488,0.86,640.93,-0.367,55.297,
00:00:17:900,0.345,0.474,0.967,1390.991,-22.95,216.003,
00:00:17:917,0.392,0.363,0.937,1993.286,-57.373,359.558,
00:00:17:933,0.393,0.173,1,1999.694,-236.756,310.669,
00:00:17:950,0.338,-0.128,1.074,1999.694,-377.869,324.401,
00:00:17:967,0.257,-0.338,0.995,1999.694,-461.121,301.941,
00:00:17:983,0.225,-0.589,0.896,1999.694,-531.861,221.435,
00:00:18:0,0.138,-0.836,0.823,1999.694,-584.229,139.404,
00:00:18:17,0.046,-0.946,0.793,1773.681,-568.848,166.32,
00:00:18:33,0.004,-0.936,0.806,1308.288,-447.388,243.408,
00:00:18:50,-0.003,-0.888,0.785,900.512,-288.147,194.763,
00:00:18:67,-0.01,-0.722,0.81,573.913,-101.807,193.725,
00:00:18:83,0.014,-0.507,0.863,368.225,59.265,140.564,
00:00:18:100,0.122,-0.376,0.784,380.981,151.977,61.645,
00:00:18:117,0.183,-0.455,0.656,599.731,133.606,66.589,
00:00:18:133,0.156,-0.739,0.594,655.09,40.954,111.023,
00:00:18:150,0.015,-0.727,0.583,437.805,55.114,83.862,
00:00:18:167,0.03,-0.652,0.62,181.823,168.701,-27.771,
00:00:18:183,0.144,-0.522,0.624,95.459,221.008,-67.322,
00:00:18:200,0.219,-0.544,0.659,198.669,145.691,-44.617,
00:00:18:217,0.172,-0.664,0.705,230.285,65.002,-4.029,
00:00:18:233,0.141,-0.622,0.648,191.772,60.241,2.502,
00:00:18:250,0.156,-0.662,0.573,161.377,17.517,1.098,
00:00:18:267,0.118,-0.614,0.484,130.005,-28.016,2.197,
00:00:18:283,0.121,-0.62,0.422,166.198,-64.576,-56.336,
00:00:18:300,0.18,-0.654,0.752,125.61,-211.548,-0.794,
00:00:18:317,0.087,-0.741,0.742,121.276,-211.792,3.967,
00:00:18:333,0.132,-0.796,0.628,192.505,-214.905,-90.821,
00:00:18:350,0.128,-0.876,0.601,147.583,-278.809,-87.403,
00:00:18:367,0.053,-0.754,0.607,46.63,-304.444,-75.379,
00:00:18:383,0.029,-0.724,0.78,-37.781,-281.434,-88.135,
00:00:18:400,0.016,-0.66,0.844,-192.322,-170.655,-87.22,
00:00:18:417,-0.008,-0.546,0.879,-416.016,-3.724,-81.299,
00:00:18:433,0.018,-0.567,0.846,-686.707,161.071,-176.819,
00:00:18:450,0.02,-0.777,0.861,-1038.88,314.087,-248.597,
00:00:18:467,0.094,-0.844,0.878,-2000,672.973,-309.021,
00:00:18:483,0.145,-0.603,0.937,-2000,564.392,-395.264,
00:00:18:500,0.152,-0.526,0.976,-2000,497.924,-399.72,
00:00:18:517,0.153,-0.689,1.006,-2000,404.358,-424.988,
00:00:18:533,0.17,-0.646,0.903,-2000,327.942,-463.318,
00:00:18:550,0.243,-0.214,1.104,-1987.916,204.956,-403.565,
00:00:18:567,0.302,0.081,1.003,-2000,218.139,-395.142,
00:00:18:583,0.314,0.406,0.833,-1927.247,192.81,-350.098,
00:00:18:600,0.305,0.527,0.771,-1469.605,188.598,-220.826,
00:00:18:617,0.382,0.819,0.69,-1071.106,132.141,-115.723,
00:00:18:633,0.42,0.737,0.856,407.592,-93.262,128.54,
00:00:18:650,0.36,0.619,0.921,867.126,-200.135,186.584,
00:00:18:667,0.329,0.558,0.887,1381.775,-302.918,312.683,
00:00:18:683,0.291,0.403,0.821,1981.994,-458.497,403.869,
00:00:18:700,0.225,0.199,0.768,1999.694,-681.702,405.944,
00:00:18:717,0.101,-0.154,0.858,1999.694,-920.289,272.949,
00:00:18:733,-0.014,-0.456,0.976,1999.694,-1003.785,223.51,
00:00:18:750,-0.092,-0.505,1.095,1999.694,-923.829,246.887,
00:00:18:767,-0.137,-0.461,1.2,1999.694,-756.958,282.287,
00:00:18:783,-0.132,-0.537,1.204,1999.694,-491.578,395.874,
00:00:18:800,-0.12,-0.636,1.036,1850.036,-217.102,470.825,
00:00:18:817,-0.073,-0.674,0.936,1384.094,45.288,443.908,
00:00:18:833,-0.015,-0.61,0.846,710.327,241.943,400.634,
00:00:18:850,0.054,-0.413,0.801,210.632,294.922,316.223,
00:00:18:867,0.034,-0.131,0.694,-19.165,291.198,210.693,
00:00:18:883,0.009,0.037,0.607,79.101,201.355,210.876,
00:00:18:900,-0.005,0.042,0.538,374.45,98.51,200.256,
00:00:18:917,0.021,-0.124,0.633,724.975,-10.01,127.929,
00:00:18:933,0.025,-0.386,0.703,912.353,-99.732,78.43,
00:00:18:950,-0.023,-0.61,0.76,869.201,-144.41,42.053,
00:00:18:967,-0.05,-0.673,0.797,682.983,-113.526,23.803,
00:00:18:983,-0.018,-0.687,0.815,507.019,-79.041,-4.883,
00:00:19:0,0.031,-0.73,0.869,418.335,-89.966,-12.696,
00:00:19:17,0.069,-0.814,0.91,280.517,-73.975,-14.405,
00:00:19:33,0.038,-0.75,0.818,208.679,-42.908,-37.293,
00:00:19:50,0,-0.724,0.743,146.85,-9.4,-49.927,
00:00:19:67,-0.006,-0.747,0.661,109.314,-7.569,-59.815,
00:00:19:83,-0.013,-0.733,0.582,78.796,-37.964,-33.509,
00:00:19:100,-0.061,-0.594,0.56,-27.1,-73.853,-18.006,
00:00:19:117,-0.035,-0.595,0.652,-69.153,-79.102,-60.975,
00:00:19:133,-0.006,-0.714,0.76,-124.756,-105.835,-86.853,
00:00:19:150,-0.01,-0.739,0.898,-284.79,-41.626,-51.087,
00:00:19:167,-0.012,-0.684,0.888,-557.312,25.817,-27.71,
00:00:19:183,-0.013,-0.606,0.819,-899.842,104.248,-71.351,
00:00:19:200,0.053,-0.569,0.798,-1205.75,136.596,-92.652,
00:00:19:217,0.038,-0.444,0.831,-1467.835,125.061,-63.538,
00:00:19:233,0.041,-0.362,0.851,-1536.683,92.041,-19.715,
00:00:19:250,0.115,-0.252,1.127,-1848.938,28.137,-339.295,
00:00:19:267,0.058,-0.385,1.345,-1764.466,58.96,-412.659,
00:00:19:283,-0.037,-0.525,1.427,-2000,152.771,-560.425,
00:00:19:300,-0.068,-0.768,1.316,-2000,284.729,-678.528,
00:00:19:317,-0.001,-0.787,1.087,-2000,357.422,-756.409,
00:00:19:333,0.054,-0.405,0.958,-2000,356.201,-827.698,
00:00:19:350,0.071,0.358,0.851,-2000,417.114,-715.699,
00:00:19:367,0.237,0.608,0.642,-2000,377.502,-547.974,
00:00:19:383,0.366,1.269,0.519,-1947.754,237.976,-405.213,
00:00:19:400,0.299,1.126,0.492,-799.134,125.549,-272.828,
00:00:19:417,0.301,1.027,0.398,-37.354,92.102,-101.075,
00:00:19:433,0.303,1.061,0.408,529.541,32.226,-50.599,
00:00:19:450,0.228,0.858,0.458,1073.242,-1.587,17.273,
00:00:19:467,0.23,0.815,0.538,1651.55,-45.35,169.738,
00:00:19:483,0.342,0.771,0.572,1999.694,-137.574,343.017,
00:00:19:500,0.35,0.769,0.697,1999.694,-257.508,344.909,
00:00:19:517,0.258,0.438,0.853,1999.694,-419.739,297.302,
00:00:19:533,0.171,0.117,0.919,1999.694,-534.241,366.76,
00:00:19:550,0.093,-0.146,0.93,1999.694,-576.172,370.361,
00:00:19:567,0.043,-0.418,0.916,1999.694,-542.725,397.4,
00:00:19:583,0.004,-0.52,0.919,1999.694,-481.324,468.811,
00:00:19:600,-0.068,-0.597,0.889,1999.694,-383.362,419.616,
00:00:19:617,-0.112,-0.806,0.87,1775.512,-327.454,327.27,
00:00:19:633,-0.121,-0.882,0.918,946.96,-252.137,310.119,
00:00:19:650,-0.116,-0.555,0.941,346.374,-32.959,263,
00:00:19:667,-0.085,-0.334,0.86,193.969,59.265,132.934,
00:00:19:683,-0.045,-0.419,0.712,149.231,66.162,143.982,
00:00:19:700,-0.032,-0.322,0.587,5.004,-1.831,147.4,
00:00:19:717,-0.078,-0.027,0.666,112.976,-20.508,99.426,
00:00:19:733,-0.078,-0.026,0.692,633.484,-18.555,-20.081,
00:00:19:750,-0.024,-0.509,0.778,943.542,-95.215,-78.492,
00:00:19:767,-0.028,-0.693,0.84,843.628,-110.596,-53.04,
00:00:19:783,-0.018,-0.629,0.82,667.602,-66.163,-34.852,
00:00:19:800,0.07,-0.761,0.829,554.382,-92.102,-40.467,
00:00:19:817,0.046,-0.788,0.813,303.65,-98.206,9.582,
00:00:19:833,-0.007,-0.697,0.848,169.86,-115.296,-45.166,
00:00:19:850,0.016,-0.659,0.768,119.934,-127.198,-85.45,
00:00:19:867,-0.023,-0.712,0.738,26.245,-165.894,-71.9,
00:00:19:883,-0.084,-0.68,0.74,-147.156,-174.5,-65.186,
00:00:19:900,-0.058,-0.579,0.758,-205.262,-187.073,-106.507,
00:00:19:917,-0.07,-0.644,0.96,-85.206,-218.628,-140.809,
00:00:19:933,-0.107,-0.563,0.902,-241.15,-102.051,-162.293,
00:00:19:950,-0.12,-0.67,0.983,-391.724,-31.8,-275.147,
00:00:19:967,-0.12,-0.748,0.888,-787.72,95.886,-217.713,
00:00:19:983,-0.111,-0.577,0.738,-1304.322,176.452,-210.328,
00:00:20:0,-0.094,-0.518,0.876,-1682.19,182.617,-177.918,
00:00:20:17,-0.057,-0.297,0.859,-1913.575,256.775,-94.3,
00:00:20:33,-0.099,-0.137,0.864,-1924.927,178.711,-188.355,
00:00:20:50,-0.092,-0.048,0.903,-1702.576,166.32,-238.648,
00:00:20:67,-0.073,-0.198,0.936,-1450.806,99.731,-290.406,
00:00:20:83,-0.021,-0.287,1.088,-1144.837,38.635,-355.835,
00:00:20:100,-0.016,-0.214,1.037,-1049.439,4.394,-329.041,
00:00:20:117,-0.095,-0.453,1.406,-1451.355,-45.166,-496.216,
00:00:20:133,0.018,-0.344,0.989,-2000,24.047,-549.866,
00:00:20:150,-0.012,-0.082,0.867,-2000,-21.729,-407.166,
00:00:20:167,-0.047,-0.095,0.944,-2000,0.122,-409.18,
00:00:20:183,0.108,0.16,0.861,-2000,33.752,-337.586,
00:00:20:200,0.121,0.704,0.768,-2000,33.569,-276.246,
00:00:20:217,0.131,0.799,0.697,-1898.316,49.316,-195.008,
00:00:20:233,0.211,1.161,0.594,-1281.495,31.738,-42.542,
00:00:20:250,0.265,1.348,0.478,805.481,-188.416,185.485,
00:00:20:267,0.196,1.095,0.518,1520.935,-339.234,335.632,
00:00:20:283,0.027,0.833,0.725,1949.646,-439.454,416.442,
00:00:20:300,-0.053,0.636,0.84,1999.694,-461.731,426.818,
00:00:20:317,-0.02,0.405,0.973,1999.694,-557.74,373.23,
00:00:20:333,-0.047,0.197,1.121,1999.694,-682.312,392.517,
00:00:20:350,-0.08,0.076,1.061,1999.694,-734.07,469.909,
00:00:20:367,-0.101,-0.078,0.907,1947.692,-748.352,388.061,
00:00:20:383,-0.201,-0.328,0.907,1207.458,-752.808,186.828,
00:00:20:400,-0.299,-0.372,1.02,651.733,-745.85,99.243,
00:00:20:417,-0.384,-0.288,0.993,325.378,-679.505,100.586,
00:00:20:433,-0.434,-0.189,0.906,176.88,-546.082,119.934,
00:00:20:450,-0.443,-0.206,0.789,85.754,-444.886,105.163,
00:00:20:467,-0.426,-0.205,0.736,-112,-410.218,87.341,
00:00:20:483,-0.438,-0.083,0.716,-289.246,-356.446,60.241,
00:00:20:500,-0.465,0.078,0.73,-293.519,-261.902,14.282,
00:00:20:517,-0.487,0.15,0.695,-197.388,-184.632,21.911,
00:00:20:533,-0.448,0.08,0.716,170.776,-197.266,40.222,
00:00:20:550,-0.472,-0.014,0.72,334.35,-252.991,23.193,
00:00:20:567,-0.523,-0.15,0.818,316.894,-266.785,11.047,
00:00:20:583,-0.538,-0.179,0.898,205.627,-234.925,-13.245,
00:00:20:600,-0.51,-0.233,1.003,48.95,-198.975,5.493,
00:00:20:617,-0.494,-0.013,0.946,-57.007,-146.119,33.691,
00:00:20:633,-0.512,0.074,0.834,60.18,-132.813,3.723,
00:00:20:650,-0.534,0.078,0.805,148.925,-92.896,-6.409,
00:00:20:667,-0.522,-0.082,0.919,256.775,-61.463,47.241,
00:00:20:683,-0.535,-0.283,1.072,251.77,-61.28,77.087,
00:00:20:700,-0.822,-0.089,1.071,245.422,-30.945,125.244,
00:00:20:717,-0.525,-0.269,0.903,204.345,234.924,-44.739,
00:00:20:733,-0.16,-0.409,0.828,20.507,205.749,-52.124,
00:00:20:750,-0.477,0.016,0.903,-70.679,66.772,-51.636,
00:00:20:767,-0.388,0.008,0.873,-60.364,73.974,-47.303,
00:00:20:783,-0.424,0.091,0.793,-59.998,69.641,2.258,
00:00:20:800,-0.477,0.099,0.798,-54.932,81.848,35.827,
00:00:20:817,-0.513,0.164,0.743,-45.166,132.69,70.251,
00:00:20:833,-0.54,0.33,0.643,126.831,180.297,82.092,
00:00:20:850,-0.459,0.068,0.683,373.352,156.738,106.506,
00:00:20:867,-0.448,-0.14,0.763,439.209,111.45,122.924,
00:00:20:883,-0.457,-0.194,0.993,344.299,38.879,48.217,
00:00:20:900,-0.394,-0.091,1.022,61.279,106.506,109.863,
00:00:20:917,-0.371,0.028,1.198,-222.168,104.431,128.723,
00:00:20:933,-0.48,0.369,0.959,-365.906,113.525,70.983,
00:00:20:950,-0.444,0.723,0.766,-177.185,146.362,40.466,
00:00:20:967,-0.462,0.295,0.808,135.681,122.436,90.881,
00:00:20:983,-0.432,-0.055,0.661,162.963,203.186,35.339,
00:00:21:0,-0.436,-0.187,1.112,-236.878,90.759,-109.375,
00:00:21:17,-0.387,-0.468,1.315,-235.779,68.542,-450.745,
00:00:21:33,-0.41,-0.71,1.307,-573.914,-35.218,-496.827,
00:00:21:50,-0.533,-0.893,1.206,-1092.286,-12.513,-841.736,
00:00:21:67,-0.468,-0.575,1.079,-1340.882,59.692,-664.551,canRH
00:00:21:83,-0.355,-0.417,1.02,-1338.074,51.025,-514.039,
00:00:21:100,-0.372,-0.234,0.982,-1371.277,106.323,-478.333,
00:00:21:117,-0.181,0.255,0.993,-917.176,143.249,-297.852,
00:00:21:133,-0.09,0.445,1.03,-679.139,120.605,-154.297,
00:00:21:150,-0.147,0.488,1.016,-187.134,54.809,-12.391,
00:00:21:167,-0.186,0.407,1.107,99.548,-3.357,110.656,
00:00:21:183,-0.264,0.221,1.212,259.46,-7.081,207.275,
00:00:21:200,-0.295,0.321,1.054,172.363,-85.267,286.621,
00:00:21:217,-0.274,0.239,1.035,98.877,-270.203,111.145,
00:00:21:233,-0.32,0.194,1.077,218.078,-416.199,123.108,
00:00:21:250,-0.373,0.111,1.036,434.143,-509.766,181.945,
00:00:21:267,-0.41,0.067,0.97,510.986,-510.254,228.454,
00:00:21:283,-0.442,0.084,0.852,450.805,-466.553,246.154,
00:00:21:300,-0.493,0.064,0.786,280.517,-390.198,251.709,
00:00:21:317,-0.547,-0.037,0.813,42.419,-272.644,260.009,
00:00:21:333,-0.571,-0.004,0.807,-221.558,-112.427,255.859,
00:00:21:350,-0.534,0.165,0.515,-406.067,5.981,202.453,
00:00:21:367,-0.554,0.169,0.47,-458.374,-18.189,152.771,
00:00:21:383,-0.616,0.277,0.525,-587.647,-30.64,111.633,
00:00:21:400,-0.637,0.517,0.587,-541.687,70.678,111.999,
00:00:21:417,-0.634,0.576,0.641,-259.949,149.414,71.472,
00:00:21:433,-0.6,0.526,0.644,20.019,202.758,83.007,
00:00:21:450,-0.572,0.541,0.652,289.856,235.656,109.741,
00:00:21:467,-0.575,0.579,0.73,552.368,258.178,95.52,
00:00:21:483,-0.524,0.466,0.805,756.836,197.387,50.415,
00:00:21:500,-0.417,0.047,0.964,706.298,94.299,72.753,
00:00:21:517,-0.462,0.168,0.887,451.11,52.978,65.49,
00:00:21:533,-0.534,0.226,0.893,684.387,51.208,137.817,
00:00:21:550,-0.48,0.268,0.884,757.263,120.605,97.717,
00:00:21:567,-0.465,-0.029,0.784,841.552,63.415,45.959,
00:00:21:583,-0.469,-0.17,0.851,667.724,51.574,38.208,
00:00:21:600,-0.497,-0.12,0.819,536.865,72.387,38.086,
00:00:21:617,-0.509,-0.027,0.765,560.669,122.741,-7.264,
00:00:21:633,-0.437,-0.099,0.894,575.378,133.239,-58.228,
00:00:21:650,-0.41,-0.014,0.79,485.473,128.418,-30.64,
00:00:21:667,-0.441,-0.058,0.912,313.842,103.759,43.762,
00:00:21:683,-0.508,0.045,0.777,99.182,177.246,129.089,
00:00:21:700,-0.497,0.187,0.844,117.248,199.035,78.674,
00:00:21:717,-0.379,0.063,0.967,172.79,244.262,48.523,
00:00:21:733,-0.381,-0.063,0.943,137.39,189.514,-15.87,
00:00:21:750,-0.43,-0.132,1.087,44.25,171.814,-102.356,
00:00:21:767,-0.46,-0.182,1.19,-485.596,263.061,-364.93,
00:00:21:783,-0.392,-0.479,0.939,-679.2,328.003,-519.471,
00:00:21:800,-0.376,-0.333,0.858,-739.808,300.537,-455.994,
00:00:21:817,-0.314,-0.306,1.063,-706.36,187.927,-584.595,
00:00:21:833,-0.309,-0.22,0.865,-588.257,139.892,-383.728,
00:00:21:850,-0.263,-0.155,1.077,-377.259,25.268,-491.639,
00:00:21:867,-0.235,-0.189,1.048,-255.066,-31.434,-316.529,
00:00:21:883,-0.264,-0.095,1.104,-213.501,-63.111,-231.934,
00:00:21:900,-0.34,-0.094,1.2,-109.07,-62.134,4.333,
00:00:21:917,-0.338,-0.062,1.244,-125.123,-60.975,52.124,
00:00:21:933,-0.314,-0.029,1.261,-46.57,-60.303,177.185,
00:00:21:950,-0.322,0.045,1.189,27.343,-65.735,333.801,
00:00:21:967,-0.291,0.123,1.062,37.719,-75.135,370.727,
00:00:21:983,-0.249,0.076,0.971,116.638,-156.678,355.346,
00:00:22:0,-0.312,0.039,0.869,97.29,-389.283,220.642,
00:00:22:17,-0.416,0.042,0.822,0.183,-411.316,187.439,
00:00:22:33,-0.508,0.032,0.827,-100.464,-346.497,174.743,
00:00:22:50,-0.54,-0.004,0.848,-260.804,-221.436,139.953,
00:00:22:67,-0.533,-0.029,0.814,-491.028,-164.551,67.871,
00:00:22:83,-0.542,0.309,0.734,-559.388,-80.933,77.575,
00:00:22:100,-0.567,0.323,0.71,-474.122,-22.461,92.59,
00:00:22:117,-0.57,0.31,0.701,-391.663,34.973,49.56,
00:00:22:133,-0.567,0.308,0.67,-345.765,100.158,29.907,
00:00:22:150,-0.56,0.35,0.646,-255.066,135.009,13.183,
00:00:22:167,-0.538,0.46,0.664,589.416,135.131,25.512,
00:00:22:183,-0.479,0.185,0.805,848.755,91.125,-13.55,
00:00:22:200,-0.419,-0.204,0.973,596.618,13,-4.395,
00:00:22:217,-0.477,0.141,0.851,309.814,-1.465,84.838,
00:00:22:233,-0.548,0.237,0.853,381.042,-7.935,101.745,
00:00:22:250,-0.537,0.203,0.794,408.081,74.279,91.43,
00:00:22:267,-0.488,0.116,0.824,580.749,73.669,80.322,
00:00:22:283,-0.477,-0.014,0.915,564.087,57.983,60.119,
00:00:22:300,-0.465,-0.036,0.853,525.268,56.701,26.306,
00:00:22:317,-0.468,-0.021,0.841,470.764,31.616,6.286,
00:00:22:333,-0.493,-0.094,0.821,605.529,56.396,-74.646,
00:00:22:350,-0.442,-0.135,0.801,473.693,92.651,26.977,
00:00:22:367,-0.442,-0.199,0.991,439.514,26.306,10.376,
00:00:22:383,-0.437,-0.104,0.926,279.358,101.379,-5.555,
00:00:22:400,-0.359,-0.272,1.021,34.301,27.954,-34.607,
00:00:22:417,-0.457,-0.026,0.785,-88.562,54.809,-97.779,
00:00:22:433,-0.472,-0.006,0.818,37.048,157.348,-142.395,
00:00:22:450,-0.418,-0.075,0.625,243.103,213.195,-88.379,
00:00:22:467,-0.451,-0.179,0.932,428.955,96.557,-28.809,
00:00:22:483,-0.41,-0.442,0.897,583.74,133.728,1.77,
00:00:22:500,-0.419,-0.546,0.84,325.866,128.906,-109.131,
00:00:22:517,-0.409,-0.589,1.004,77.819,138.183,-254.944,
00:00:22:533,-0.4,-0.436,1.081,-275.269,156.738,-287.11,
00:00:22:550,-0.408,-0.345,0.969,-627.259,208.252,-392.212,
00:00:22:567,-0.4,-0.334,1.196,-938.904,135.925,-442.017,
00:00:22:583,-0.4,-0.35,1.223,-1068.543,179.26,-391.175,
00:00:22:600,-0.249,-0.018,1.08,-513.306,110.656,-150.635,
00:00:22:617,-0.261,0.056,1.015,-369.202,64.331,-76.844,
00:00:22:633,-0.284,0.006,1.053,-115.906,19.043,24.169,
00:00:22:650,-0.322,-0.109,1.117,46.203,-24.048,104.675,
00:00:22:667,-0.334,-0.198,1.263,8.667,-37.293,205.749,
00:00:22:683,-0.316,-0.226,1.254,-55.787,-45.166,285.278,
00:00:22:700,-0.289,-0.167,1.174,-112.671,-38.208,350.586,
00:00:22:717,-0.224,0.077,0.923,-359.742,-87.891,176.269,
00:00:22:733,-0.243,0.127,0.805,-404.664,-192.749,69.458,
00:00:22:750,-0.472,0.267,0.673,-244.568,-298.401,107.36,
00:00:22:767,-0.554,0.251,0.664,-224.793,-309.144,70.312,
00:00:22:783,-0.594,0.358,0.675,-127.32,-171.509,117.065,
00:00:22:800,-0.602,0.334,0.633,81.909,-55.42,136.84,
00:00:22:817,-0.587,0.245,0.639,133.545,61.401,133.728,
00:00:22:833,-0.567,0.204,0.661,104.126,116.882,82.702,
00:00:22:850,-0.561,0.167,0.678,270.324,184.875,61.401,
00:00:22:867,-0.498,-0.115,0.894,360.656,175.903,54.504,
00:00:22:883,-0.39,-0.165,0.96,64.086,210.266,118.042,
00:00:22:900,-0.391,0.098,0.885,35.156,114.624,137.939,
00:00:22:917,-0.442,0.087,0.834,554.443,-117.798,1.037,
00:00:22:933,-0.509,-0.082,0.953,518.676,-116.272,12.512,
00:00:22:950,-0.511,-0.116,0.953,244.201,-50.66,2.197,
00:00:22:967,-0.509,0.119,0.842,92.163,13.671,26.733,
00:00:22:983,-0.509,0.333,0.762,325.073,32.714,-23.926,
00:00:23:0,-0.409,0.069,0.708,528.32,-57.007,25.024,
00:00:23:17,-0.502,-0.067,0.753,486.816,-114.441,83.557,
00:00:23:33,-0.619,0.109,0.714,440.673,-15.748,52.429,
00:00:23:50,-0.563,-0.058,0.815,574.585,-3.235,-46.753,
00:00:23:67,-0.473,-0.103,0.797,519.958,2.624,-42.298,
00:00:23:83,-0.418,-0.245,0.84,631.958,-72.266,-70.557,
00:00:23:100,-0.419,-0.401,0.91,520.935,18.737,-107.117,
00:00:23:117,-0.414,-0.508,1.111,263.977,173.339,-145.691,
00:00:23:133,-0.353,-0.575,1.115,-50.843,285.339,-157.532,
00:00:23:150,-0.392,-0.476,1.342,-342.591,347.229,-369.629,
00:00:23:167,-0.388,-0.348,1.065,-596.131,470.642,-400.208,
00:00:23:183,-0.374,-0.308,0.939,-860.352,454.284,-432.557,
00:00:23:200,-0.359,-0.138,0.916,-1005.616,385.254,-427.369,
00:00:23:217,-0.333,-0.06,0.936,-980.591,272.888,-392.334,
00:00:23:233,-0.348,-0.209,1.044,-811.219,175.293,-311.524,
00:00:23:250,-0.363,-0.124,1.05,-721.314,121.704,-291.382,
00:00:23:267,-0.32,-0.125,1.125,-997.01,118.408,-371.094,
00:00:23:283,-0.297,0.011,1.058,-892.029,133.178,-315.979,
00:00:23:300,-0.261,0.259,1.126,-721.131,98.144,-225.22,
00:00:23:317,-0.259,0.297,1.184,-405.762,103.149,-122.071,
00:00:23:333,-0.21,0.274,1.245,-148.865,110.962,68.176,
00:00:23:350,-0.184,0.141,1.382,41.015,57.251,251.77,
00:00:23:367,-0.189,0.184,1.235,35.583,-16.48,494.629,
00:00:23:383,-0.174,0.316,1.121,-150.025,-117.432,423.095,
00:00:23:400,-0.161,0.305,0.973,-162.293,-246.521,314.819,
00:00:23:417,-0.238,0.284,0.747,216.674,-488.953,374.267,
00:00:23:433,-0.306,0.273,0.651,365.478,-604.676,321.594,
00:00:23:450,-0.394,0.184,0.614,422.668,-630.982,309.753,
00:00:23:467,-0.561,0.157,0.581,181.518,-563.172,267.456,
00:00:23:483,-0.641,0.153,0.562,133.117,-393.555,330.383,
00:00:23:500,-0.701,0.112,0.558,105.651,-256.897,305.664,
00:00:23:517,-0.723,0.141,0.544,41.137,-84.107,278.32,
00:00:23:533,-0.702,0.125,0.559,60.852,33.996,249.084,
00:00:23:550,-0.68,0.113,0.599,61.462,111.023,193.847,
00:00:23:567,-0.668,0.122,0.653,110.229,164.428,153.747,
00:00:23:583,-0.65,0.05,0.744,143.127,207.336,79.773,
00:00:23:600,-0.601,-0.009,0.813,104.309,255.005,30.822,
00:00:23:617,-0.547,-0.073,0.843,18.554,272.461,-2.747,
00:00:23:633,-0.526,-0.074,0.868,-97.535,281.982,-23.011,
00:00:23:650,-0.488,-0.11,0.897,-145.447,277.404,-68.604,
00:00:23:667,-0.457,-0.077,0.914,-305.237,245.056,-59.754,
00:00:23:683,-0.433,0.15,0.928,-302.491,178.894,-14.283,
00:00:23:700,-0.42,0.346,0.961,-194.153,116.76,35.827,
00:00:23:717,-0.408,0.345,0.967,33.142,57.495,31.494,
00:00:23:733,-0.443,0.181,0.96,170.654,18.615,14.709,
00:00:23:750,-0.438,0.149,0.859,234.253,-8.851,-11.109,
00:00:23:767,-0.502,0.121,0.77,284.423,-55.909,-2.381,
00:00:23:783,-0.54,0.078,0.748,291.259,-32.349,20.874,
00:00:23:800,-0.505,0.111,0.825,234.558,7.507,37.048,
00:00:23:817,-0.451,0.073,0.891,239.99,21.301,11.84,
00:00:23:833,-0.472,0.148,0.749,263.672,15.258,-34.424,
00:00:23:850,-0.526,0.038,0.764,357.544,-9.4,-63.66,
00:00:23:867,-0.521,-0.097,0.783,341.919,17.456,-65.491,
00:00:23:883,-0.54,0.013,0.697,211.792,57.067,-60.669,
00:00:23:900,-0.505,0.039,0.832,83.801,112.06,-36.011,
00:00:23:917,-0.488,0.282,0.852,152.404,179.26,-86.792,
00:00:23:933,-0.44,0.167,0.862,378.051,138,-83.497,
00:00:23:950,-0.454,0.148,0.829,428.772,131.775,9.216,
00:00:23:967,-0.451,0.102,0.774,540.893,86.12,35.522,
00:00:23:983,-0.5,0.128,0.965,633.361,99.06,14.038,
00:00:24:0,-0.424,-0.034,0.814,759.216,94.909,-75.867,
00:00:24:17,-0.373,-0.268,0.843,676.33,85.632,-77.393,
00:00:24:33,-0.442,-0.205,0.819,372.375,157.348,-78.492,
00:00:24:50,-0.352,-0.382,1.152,431.213,214.843,-175.843,
00:00:24:67,-0.348,-0.242,0.941,111.694,220.337,-261.475,
00:00:24:83,-0.273,-0.521,1.393,93.505,118.408,-460.206,
00:00:24:100,-0.327,-0.455,1.121,-460.083,197.57,-334.412,
00:00:24:117,-0.346,-0.391,1.071,-801.88,22.888,-550.599,
00:00:24:133,-0.497,-0.51,1.061,-980.53,46.203,-540.833,
00:00:24:150,-0.535,-0.447,0.918,-1206.666,260.437,-519.715,
00:00:24:167,-0.339,-0.253,0.912,-1296.814,235.595,-540.711,
00:00:24:183,-0.164,-0.106,0.936,-1215.394,122.314,-511.17,
00:00:24:200,-0.272,0.148,1.012,-1099.366,85.144,-426.697,
00:00:24:217,-0.191,0.44,0.979,-829.956,121.276,-258.484,
00:00:24:233,-0.172,0.406,1.037,-415.039,69.641,-124.878,
00:00:24:250,-0.204,0.407,1.023,-53.406,18.493,77.575,
00:00:24:267,-0.222,0.318,1.11,123.047,-92.102,145.752,
00:00:24:283,-0.286,0.196,1.203,237.06,-171.448,207.092,
00:00:24:300,-0.294,0.173,1.219,241.15,-230.103,261.657,
00:00:24:317,-0.305,0.14,1.145,232.36,-326.233,263.244,
00:00:24:333,-0.322,0.067,1.049,251.526,-389.71,319.275,
00:00:24:350,-0.375,0.079,0.98,189.453,-396.241,340.942,
00:00:24:367,-0.45,0.12,0.885,119.323,-316.102,382.629,
00:00:24:383,-0.488,0.16,0.811,160.949,-153.87,481.018,
00:00:24:400,-0.483,0.122,0.688,186.279,-115.967,381.286,
00:00:24:417,-0.477,0.097,0.579,54.016,-146.851,283.142,
00:00:24:433,-0.512,0.133,0.552,-92.652,-166.993,237.915,
00:00:24:450,-0.602,0.169,0.585,-171.204,-164.673,189.453,
00:00:24:467,-0.666,0.23,0.65,-123.047,-50.293,143.859,
00:00:24:483,-0.665,0.265,0.689,30.944,57.067,106.262,
00:00:24:500,-0.645,0.254,0.696,176.086,120.483,90.82,
00:00:24:517,-0.604,0.137,0.687,296.997,176.757,61.218,
00:00:24:533,-0.567,0.075,0.718,401.672,195.19,90.637,
00:00:24:550,-0.548,-0.022,0.758,454.528,176.391,57.251,
00:00:24:567,-0.528,-0.042,0.822,460.022,76.11,-70.984,
00:00:24:583,-0.523,-0.076,0.846,419.616,43.945,-109.62,
00:00:24:600,-0.504,-0.097,0.848,402.588,29.785,-145.935,
00:00:24:617,-0.505,-0.138,0.837,376.831,6.897,-90.271,
00:00:24:633,-0.535,-0.108,0.804,226.257,29.113,-50.293,
00:00:24:650,-0.533,-0.067,0.839,78.43,75.195,-2.625,
00:00:24:667,-0.508,-0.004,0.848,66.345,101.257,16.601,
00:00:24:683,-0.485,-0.035,0.951,102.356,112.243,-5.799,
00:00:24:700,-0.443,-0.033,0.92,264.587,144.836,-27.405,
00:00:24:717,-0.352,-0.258,1.046,328.857,73.547,-10.56,
00:00:24:733,-0.331,-0.253,0.992,62.194,43.64,16.723,
00:00:24:750,-0.386,-0.171,0.998,-91.736,15.38,20.019,
00:00:24:767,-0.433,-0.053,0.984,-67.81,8.667,-53.04,
00:00:24:783,-0.422,-0.015,1.052,-47.547,-2.442,-99.427,
00:00:24:800,-0.393,-0.003,0.885,-190.369,-13.367,-87.83,
00:00:24:817,-0.482,0.162,0.792,-200.562,-31.678,-95.887,
00:00:24:833,-0.49,0.196,0.796,-82.215,16.174,-74.769,
00:00:24:850,-0.498,0.046,0.795,-146.485,46.447,-23.926,
00:00:24:867,-0.517,0.197,0.839,-212.403,105.285,-33.631,
00:00:24:883,-0.495,0.143,0.842,-8.362,126.281,-90.088,
00:00:24:900,-0.461,-0.003,0.949,42.724,135.62,-159.302,
00:00:24:917,-0.444,-0.021,0.979,-41.871,178.894,-199.402,
00:00:24:933,-0.381,0.015,0.97,-262.757,229.309,-222.413,
00:00:24:950,-0.425,0.167,0.867,-410.34,187.072,-191.956,
00:00:24:967,-0.451,0.078,0.978,-255.738,158.264,-192.688,
00:00:24:983,-0.424,-0.004,0.775,-303.528,246.704,-125.123,
00:00:25:0,-0.42,0.061,0.703,-543.152,205.017,-159.058,
00:00:25:17,-0.411,0.092,0.607,-726.502,248.84,-172.486,
00:00:25:33,-0.484,0.098,0.626,-1048.707,276.794,-221.192,
00:00:25:50,-0.401,0.111,1.04,-1138.794,290.466,-355.835,
00:00:25:67,-0.178,0.046,1.311,-706.238,59.021,-392.395,canRH
00:00:25:83,-0.296,0.031,1.427,-471.436,-27.1,-237.977,
00:00:25:100,-0.265,0.056,1.359,-432.373,-21.363,-244.324,
00:00:25:117,-0.343,0.025,1.367,-386.597,18.005,-201.294,
00:00:25:133,-0.253,0.146,1.309,-468.445,63.11,-154.358,
00:00:25:150,-0.257,0.187,1.248,-435.669,64.392,-105.896,
00:00:25:167,-0.235,0.221,1.196,-347.962,68.664,-4.395,
00:00:25:183,-0.217,0.251,1.151,-172.486,16.113,95.581,
00:00:25:200,-0.221,0.343,1.09,-51.331,-103.943,116.638,
00:00:25:217,-0.209,0.279,1.081,-127.564,-192.566,92.346,
00:00:25:233,-0.227,0.259,0.995,-162.11,-318.116,62.5,
00:00:25:250,-0.28,0.335,0.912,-59.449,-461.121,99.365,
00:00:25:267,-0.318,0.333,0.883,174.621,-465.21,184.631,
00:00:25:283,-0.363,0.321,0.853,226.684,-447.266,205.993,
00:00:25:300,-0.421,0.35,0.761,286.682,-352.967,326.538,
00:00:25:317,-0.494,0.402,0.645,381.103,-267.151,341.369,
00:00:25:333,-0.535,0.366,0.584,445.556,-155.03,292.053,
00:00:25:350,-0.533,0.302,0.597,468.261,-68.055,261.474,
00:00:25:367,-0.531,0.214,0.649,349.731,-69.092,192.749,
00:00:25:383,-0.572,0.154,0.703,123.474,-58.655,129.638,
00:00:25:400,-0.61,0.161,0.743,-93.14,13.732,87.585,
00:00:25:417,-0.608,0.211,0.77,-222.107,81.726,45.898,
00:00:25:433,-0.564,0.283,0.723,-238.16,141.967,24.719,
00:00:25:450,-0.528,0.31,0.653,-165.101,185.608,0.183,
00:00:25:467,-0.521,0.272,0.615,-122.254,209.838,-2.686,
00:00:25:483,-0.504,0.329,0.594,-85.267,195.373,-5.31,
00:00:25:500,-0.448,0.322,0.656,110.229,161.682,27.465,
00:00:25:517,-0.465,0.274,0.742,124.694,92.407,69.213,
00:00:25:533,-0.467,0.352,0.822,32.409,54.443,75.5,
00:00:25:550,-0.503,0.411,0.868,-13.001,30.517,79.528,
00:00:25:567,-0.501,0.391,0.997,133.972,64.392,85.388,
00:00:25:583,-0.44,0.261,0.999,307.373,83.862,-37.537,
00:00:25:600,-0.395,0.209,0.89,401.062,67.749,-64.942,
00:00:25:617,-0.391,0.125,0.802,462.28,25.329,-49.5,
00:00:25:633,-0.416,0.1,0.792,418.518,-5.555,-13.55,
00:00:25:650,-0.47,0.127,0.724,330.139,9.216,-6.409,
00:00:25:667,-0.528,0.178,0.778,253.662,50.781,-1.099,
00:00:25:683,-0.512,0.19,0.839,212.341,123.657,-16.907,
00:00:25:700,-0.466,0.259,0.889,184.326,160.4,-57.862,
00:00:25:717,-0.436,0.215,0.924,219.848,154.419,-71.656,
00:00:25:733,-0.428,0.154,0.889,246.582,131.775,-70.374,
00:00:25:750,-0.428,0.202,0.808,279.907,156.799,-53.833,
00:00:25:767,-0.413,0.216,0.867,282.531,138.672,-33.387,
00:00:25:783,-0.386,0.152,0.856,254.028,139.892,-25.452,
00:00:25:800,-0.408,0.133,1.004,101.318,92.407,-46.082,
00:00:25:817,-0.42,0.04,0.947,-153.443,97.961,-65.552,
00:00:25:833,-0.405,0.147,1.017,-342.53,132.934,-60.791,
00:00:25:850,-0.363,0.321,0.902,-373.352,224.243,-31.556,
00:00:25:867,-0.386,0.504,0.807,-193.543,157.653,-88.623,
00:00:25:883,-0.345,0.161,1.124,173.217,160.705,-139.588,
00:00:25:900,-0.387,0.109,0.699,149.536,163.269,-101.685,
00:00:25:917,-0.377,0.125,0.837,29.724,148.071,-144.654,
00:00:25:933,-0.374,0.242,0.564,-167.237,296.142,-78.431,
00:00:25:950,-0.127,-0.003,1.336,-304.505,24.841,-493.775,
00:00:25:967,-0.189,-0.236,1.241,-443.482,-84.717,-350.831,
00:00:25:983,-0.386,-0.293,1.386,-563.782,-167.42,-463.868,
00:00:26:0,-0.399,-0.312,1.317,-539.673,15.625,-321.717,
00:00:26:17,-0.234,-0.016,1.209,-579.163,83.496,-188.294,
00:00:26:33,-0.248,0.072,1.229,-553.406,59.509,-162.11,
00:00:26:50,-0.272,0.063,1.22,-505.31,83.862,-68.36,
00:00:26:67,-0.222,0.188,1.19,-444.397,75.561,46.508,
00:00:26:83,-0.205,0.26,1.132,-428.772,-4.7,81.298,
00:00:26:100,-0.271,0.159,1.149,-466.98,-98.328,90.148,
00:00:26:117,-0.263,0.188,1.055,-651.978,-126.282,122.497,
00:00:26:133,-0.182,0.303,0.893,-793.396,-233.521,106.018,
00:00:26:150,-0.19,0.414,0.816,-703.736,-363.953,156.982,
00:00:26:167,-0.24,0.532,0.802,-456.91,-459.168,234.985,
00:00:26:183,-0.351,0.609,0.749,-205.079,-451.722,314.087,
00:00:26:200,-0.436,0.646,0.648,8.3,-366.272,353.332,
00:00:26:217,-0.47,0.616,0.535,222.412,-219.361,374.694,
00:00:26:233,-0.481,0.497,0.487,349.853,-168.457,340.332,
00:00:26:250,-0.513,0.324,0.485,230.346,-176.392,253.112,
00:00:26:267,-0.578,0.274,0.527,-19.227,-168.274,211.059,
00:00:26:283,-0.634,0.286,0.593,-261.536,-103.089,134.155,
00:00:26:300,-0.629,0.381,0.585,-441.407,-0.611,67.26,
00:00:26:317,-0.6,0.512,0.575,-458.863,77.331,18.371,
00:00:26:333,-0.578,0.57,0.54,-317.017,142.578,14.099,
00:00:26:350,-0.561,0.591,0.544,-112.915,191.162,48.828,
00:00:26:367,-0.543,0.575,0.592,88.806,210.327,58.654,
00:00:26:383,-0.514,0.481,0.609,224.365,201.233,22.827,
00:00:26:400,-0.5,0.471,0.632,296.264,160.4,12.329,
00:00:26:417,-0.503,0.47,0.695,394.287,131.103,6.225,
00:00:26:433,-0.462,0.396,0.9,471.13,122.558,16.479,
00:00:26:450,-0.411,0.466,0.822,342.285,78.002,11.962,
00:00:26:467,-0.431,0.399,0.77,462.89,73.974,2.929,
00:00:26:483,-0.444,0.381,0.687,431.823,72.448,-0.916,
00:00:26:500,-0.503,0.373,0.674,401.611,62.072,-39.246,
00:00:26:517,-0.536,0.383,0.639,426.33,96.252,-69.519,
00:00:26:533,-0.537,0.325,0.688,443.908,128.173,-95.826,
00:00:26:550,-0.516,0.338,0.77,428.833,207.702,-88.257,
00:00:26:567,-0.45,0.292,0.819,540.649,234.619,-84.107,
00:00:26:583,-0.364,0.164,0.922,500.671,210.815,-74.769,
00:00:26:600,-0.324,0.169,0.877,272.4,213.928,-61.768,
00:00:26:617,-0.339,0.266,0.811,101.806,200.012,-54.261,
00:00:26:633,-0.382,0.342,0.901,103.82,180.664,-77.759,
00:00:26:650,-0.35,0.263,1.114,152.465,162.17,-74.097,
00:00:26:667,-0.361,0.289,0.937,35.583,143.432,-93.384,
00:00:26:683,-0.382,0.215,1.099,-7.264,48.889,-127.198,
00:00:26:700,-0.29,0.135,1.036,-94.422,126.648,-54.383,
00:00:26:717,-0.242,0.356,0.912,-244.263,45.227,-47.608,
00:00:26:733,-0.262,0.361,0.771,-91.37,-25.879,-7.63,
00:00:26:750,-0.408,0.213,0.674,29.113,-67.627,-5.188,
00:00:26:767,-0.467,0.026,0.812,25.634,37.78,-58.716,
00:00:26:783,-0.441,-0.001,0.854,-65.308,125.854,-89.844,
00:00:26:800,-0.334,0.015,0.954,-131.592,136.474,-126.221,
00:00:26:817,-0.278,0.077,1.078,-167.237,65.002,-179.993,
00:00:26:833,-0.27,0.107,1.102,-218.934,48.584,-195.496,
00:00:26:850,-0.302,0.202,1.173,-315.186,68.42,-158.814,
00:00:26:867,-0.232,0.244,1.307,-93.567,-16.785,-178.711,
00:00:26:883,-0.297,0.039,1.231,-70.923,12.329,-49.012,
00:00:26:900,-0.32,0.072,1.177,-247.498,49.987,-56.336,
00:00:26:917,-0.284,0.126,1.177,-277.1,89.599,3.967,
00:00:26:933,-0.27,0.109,1.234,-234.131,114.929,68.908,
00:00:26:950,-0.286,0.084,1.244,-150.757,120.666,167.175,
00:00:26:967,-0.221,0.161,1.221,-138.062,171.081,258.85,
00:00:26:983,-0.158,0.263,1.139,-182.312,135.803,230.346,
00:00:27:0,-0.064,0.326,1.012,-231.812,-4.822,176.941,
00:00:27:17,-0.082,0.39,0.834,-184.082,-196.717,155.273,
00:00:27:33,-0.205,0.4,0.711,-72.327,-393.677,129.882,
00:00:27:50,-0.355,0.476,0.666,92.468,-449.769,85.205,
00:00:27:67,-0.438,0.495,0.667,267.578,-438.782,10.376,
00:00:27:83,-0.501,0.388,0.702,301.574,-395.508,-60.608,
00:00:27:100,-0.52,0.395,0.727,232.238,-314.82,-48.035,
00:00:27:117,-0.51,0.398,0.687,253.173,-251.465,-68.787,
00:00:27:133,-0.53,0.388,0.649,190.307,-172.364,-47.242,
00:00:27:150,-0.553,0.52,0.601,187.866,-109.986,-67.139,
00:00:27:167,-0.568,0.504,0.594,329.651,-41.26,-75.135,
00:00:27:183,-0.561,0.36,0.62,437.561,3.54,-74.707,
00:00:27:200,-0.535,0.252,0.67,398.437,34.24,-38.269,
00:00:27:217,-0.527,0.236,0.682,366.577,42.602,-14.466,
00:00:27:233,-0.515,0.149,0.693,322.998,60.546,37.597,
00:00:27:250,-0.507,0.157,0.737,269.714,51.208,62.683,
00:00:27:267,-0.502,0.139,0.742,233.703,45.776,98.266,
00:00:27:283,-0.486,0.162,0.755,193.176,28.93,121.154,
00:00:27:300,-0.485,0.122,0.821,161.682,3.051,116.333,
00:00:27:317,-0.418,0.141,1.237,26.001,-7.081,176.269,
00:00:27:333,-0.297,0.181,1.112,117.37,32.043,93.444,
00:00:27:350,-0.323,0.135,0.881,84.961,7.934,53.222,
00:00:27:367,-0.408,0.135,0.758,183.471,-22.95,49.621,
00:00:27:383,-0.473,0.044,0.691,171.997,5.004,26.672,
00:00:27:400,-0.499,0.054,0.78,56.396,14.648,18.493,
00:00:27:417,-0.489,0.119,0.806,-64.331,70.373,-0.245,
00:00:27:433,-0.526,0.426,0.753,10.376,100.036,-8.24,
00:00:27:450,-0.511,0.271,0.853,143.127,117.797,-42.054,
00:00:27:467,-0.541,0.388,0.549,248.23,183.96,-44.129,
00:00:27:483,-0.454,0.131,1.104,425.659,123.84,-231.446,
00:00:27:500,-0.455,0.133,0.748,176.88,283.386,-47.669,
00:00:27:517,-0.397,0.295,0.9,-307.435,231.262,-82.703,
00:00:27:533,-0.418,0.514,0.743,-275.696,250.122,-60.059,
00:00:27:550,-0.447,0.405,0.831,-115.418,308.471,-64.209,
00:00:27:567,-0.398,0.32,0.756,-23.987,425.903,-38.88,
00:00:27:583,-0.331,0.374,0.905,152.465,377.502,-111.39,
00:00:27:600,-0.291,0.084,1.006,365.295,346.435,-210.267,
00:00:27:617,-0.145,-0.172,1.321,249.694,266.845,-360.413,
00:00:27:633,-0.036,-0.398,1.478,30.7,81.176,-367.92,
00:00:27:650,-0.09,-0.316,1.459,-123.169,-58.167,-265.015,
00:00:27:667,-0.213,-0.296,1.287,-204.346,-38.636,-223.389,
00:00:27:683,-0.23,-0.213,1.111,-366.761,11.474,-180.481,
00:00:27:700,-0.204,0.014,1.045,-447.266,25.146,-128.113,
00:00:27:717,-0.237,0.093,1.04,-371.582,6.897,-42.176,
00:00:27:733,-0.272,0.111,1.119,-275.696,0.488,29.663,
00:00:27:750,-0.274,0.054,1.179,-181.824,-0.123,104.004,
00:00:27:767,-0.268,0.089,1.141,-129.212,0.671,178.1,
00:00:27:783,-0.25,0.175,1.059,-255.86,-20.508,111.816,
00:00:27:800,-0.235,0.119,1.005,-383.973,-103.577,26.367,
00:00:27:817,-0.25,0.141,0.936,-440.857,-179.322,37.475,
00:00:27:833,-0.274,0.21,0.912,-462.464,-233.704,55.603,
00:00:27:850,-0.303,0.372,0.891,-234.436,-307.74,113.525,
00:00:27:867,-0.333,0.268,0.821,-138.062,-334.473,110.962,
00:00:27:883,-0.387,0.182,0.785,-224.61,-330.384,108.52,
00:00:27:900,-0.444,0.158,0.746,-437.5,-300.11,113.098,
00:00:27:917,-0.488,0.211,0.745,-668.885,-263.428,101.013,
00:00:27:933,-0.497,0.385,0.746,-830.75,-180.664,78.186,
00:00:27:950,-0.471,0.557,0.713,-789.307,-119.385,82.702,
00:00:27:967,-0.453,0.663,0.671,-651.062,-108.338,76.416,
00:00:27:983,-0.47,0.669,0.652,-478.699,-94.91,95.642,
00:00:28:0,-0.504,0.627,0.636,-347.596,-67.933,93.322,
00:00:28:17,-0.538,0.482,0.604,-209.29,98.693,100.586,
00:00:28:33,-0.531,0.472,0.61,-182.923,135.864,107.483,
00:00:28:50,-0.522,0.46,0.666,-134.4,181.091,96.13,
00:00:28:67,-0.506,0.476,0.689,-108.948,223.571,71.106,
00:00:28:83,-0.47,0.515,0.687,-63.599,247.985,20.935,
00:00:28:100,-0.335,0.388,0.696,564.453,133.667,-39.429,
00:00:28:117,-0.404,0.286,0.849,534.118,-44.922,-52.247,
00:00:28:133,-0.426,0.283,0.94,447.631,-16.114,-19.41,
00:00:28:150,-0.363,0.46,0.712,330.444,0.366,-52.613,
00:00:28:167,-0.424,0.397,0.699,381.775,-69.519,-55.115,
00:00:28:183,-0.531,0.347,0.711,728.515,-52.247,-114.624,
00:00:28:200,-0.512,0.234,0.742,623.718,-3.54,-78.797,
00:00:28:217,-0.495,0.28,0.744,383.728,42.968,-30.701,
00:00:28:233,-0.478,0.36,0.804,204.406,89.294,-39.917,
00:00:28:250,-0.44,0.278,0.938,34.912,122.436,-34.18,
00:00:28:267,-0.364,0.293,0.91,-142.884,196.655,32.287,
00:00:28:283,-0.356,0.358,0.969,-191.224,180.114,93.872,
00:00:28:300,-0.371,0.294,0.862,-223.45,164.184,126.098,
00:00:28:317,-0.374,0.471,0.797,-146.851,166.076,88.501,
00:00:28:333,-0.367,0.409,0.769,213.012,121.032,-52.796,
00:00:28:350,-0.361,0.117,0.878,216.674,108.093,-9.4,
00:00:28:367,-0.353,0.239,0.934,56.457,96.923,-8.484,
00:00:28:383,-0.316,0.137,0.874,306.518,132.507,-124.634,
00:00:28:400,-0.283,0.102,1.009,354.187,34.912,-211.426,
00:00:28:417,-0.291,0.054,1.071,310.669,-60.12,-205.262,
00:00:28:433,-0.346,0.02,1.08,172.607,-70.008,-185.975,
00:00:28:450,-0.386,0.02,1.111,-27.894,-47.12,-225.769,
00:00:28:467,-0.342,0.194,0.992,-337.22,33.02,-174.805,
00:00:28:483,-0.335,0.298,1.019,-300.477,14.587,-142.029,
00:00:28:500,-0.33,0.293,1.042,-211.304,15.38,-118.47,
00:00:28:517,-0.317,0.255,1.101,-125.306,17.639,-50.232,
00:00:28:533,-0.304,0.215,1.174,-38.514,40.039,20.507,
00:00:28:550,-0.259,0.08,1.039,-52.308,128.296,237.915,
00:00:28:567,-0.213,0.18,0.981,-158.753,95.642,218.322,
00:00:28:583,-0.188,0.171,0.864,-290.101,-22.522,143.066,
00:00:28:600,-0.227,0.183,0.786,-471.07,-178.406,113.647,
00:00:28:617,-0.332,0.298,0.733,-568.726,-307.19,99.06,
00:00:28:633,-0.467,0.416,0.706,-584.473,-308.594,29.541,
00:00:28:650,-0.503,0.533,0.717,-468.201,-202.332,-35.157,
00:00:28:667,-0.493,0.571,0.697,-353.211,-115.906,-70.13,
00:00:28:683,-0.471,0.527,0.678,-303.65,-68.97,-83.435,
00:00:28:700,-0.468,0.56,0.623,-249.024,-49.805,-69.458,
00:00:28:717,-0.488,0.503,0.66,-182.068,-42.603,-85.999,
00:00:28:733,-0.5,0.489,0.664,-105.286,-4.395,-73.975,
00:00:28:750,-0.451,0.494,0.637,-27.832,25.39,-51.453,
00:00:28:767,-0.449,0.452,0.674,70.495,18.432,-11.353,
00:00:28:783,-0.45,0.442,0.695,51.208,26.611,3.723,
00:00:28:800,-0.452,0.465,0.751,2.319,41.809,14.77,
00:00:28:817,-0.421,0.45,0.755,34.668,52.307,19.043,
00:00:28:833,-0.42,0.484,0.721,70.495,34.24,38.513,
00:00:28:850,-0.424,0.489,0.698,120.483,32.653,88.256,
00:00:28:867,-0.436,0.52,0.709,99.182,1.403,115.356,
00:00:28:883,-0.447,0.542,0.792,135.498,-10.804,87.524,
00:00:28:900,-0.393,0.537,0.695,319.336,-67.872,61.95,
00:00:28:917,-0.441,0.474,0.728,494.384,-142.701,23.498,
00:00:28:933,-0.496,0.415,0.704,600.891,-151.185,-6.775,
00:00:28:950,-0.531,0.327,0.704,650.756,-109.803,-63.965,
00:00:28:967,-0.53,0.201,0.685,579.773,-7.325,-79.407,
00:00:28:983,-0.509,0.308,0.599,410.644,54.992,-88.868,
00:00:29:0,-0.496,0.347,0.694,468.994,82.153,-110.718,
00:00:29:17,-0.483,0.296,0.74,584.289,130.127,-109.253,
00:00:29:33,-0.461,0.253,0.841,704.223,158.386,-131.775,
00:00:29:50,-0.4,0.218,0.987,817.871,198.059,-193.97,
00:00:29:67,-0.34,0.044,1.086,833.13,209.167,-188.233,canRH
00:00:29:83,-0.222,-0.105,1.183,626.464,201.049,-184.449,
00:00:29:100,-0.259,0.107,0.977,286.377,165.039,-87.586,
00:00:29:117,-0.311,0.066,0.987,352.417,67.627,-44.861,
00:00:29:133,-0.355,0.092,0.877,239.257,142.395,5.188,
00:00:29:150,-0.349,0.178,0.909,42.907,234.253,38.208,
00:00:29:167,-0.384,0.063,0.825,0.793,223.938,46.752,
00:00:29:183,-0.389,0.116,0.883,-195.191,302.307,84.777,
00:00:29:200,-0.201,0.057,1.231,94.909,216.858,-157.593,
00:00:29:217,-0.163,-0.188,1.219,117.492,121.704,-145.386,
00:00:29:233,-0.2,-0.136,1.139,-65.064,30.883,-126.831,
00:00:29:250,-0.266,-0.089,1.046,-248.658,6.347,-137.33,
00:00:29:267,-0.291,0.029,0.993,-354.798,31.494,-146.851,
00:00:29:283,-0.268,0.137,0.999,-354.798,48.461,-156.739,
00:00:29:300,-0.251,0.168,1.001,-275.025,28.381,-147.217,
00:00:29:317,-0.258,0.134,1.009,-152.283,-4.822,-78.309,
00:00:29:333,-0.245,0.167,1.12,-58.716,-25.208,-3.846,
00:00:29:350,-0.211,0.102,1.18,135.864,-51.453,114.685,
00:00:29:367,-0.221,0.103,1.16,111.511,-127.991,113.647,
00:00:29:383,-0.261,0.048,1.081,-41.199,-173.279,77.026,
00:00:29:400,-0.277,0.035,1.014,-189.759,-173.157,90.148,
00:00:29:417,-0.287,0.049,0.971,-327.759,-202.881,114.257,
00:00:29:433,-0.274,0.219,0.894,-337.525,-211.304,141.906,
00:00:29:450,-0.26,0.31,0.88,-203.125,-276.917,130.798,
00:00:29:467,-0.333,0.296,0.853,-33.936,-367.432,136.352,
00:00:29:483,-0.417,0.252,0.83,70.861,-383.912,149.658,
00:00:29:500,-0.478,0.248,0.812,128.723,-336.792,162.78,
00:00:29:517,-0.535,0.184,0.791,92.285,-265.32,129.089,
00:00:29:533,-0.544,0.141,0.792,-29.419,-117.005,62.622,
00:00:29:550,-0.49,0.141,0.813,-279.602,0.61,71.411,
00:00:29:567,-0.458,0.222,0.791,-404.847,52.368,136.169,
00:00:29:583,-0.482,0.253,0.777,-495.789,112.182,167.541,
00:00:29:600,-0.499,0.366,0.733,-562.928,178.955,174.255,
00:00:29:617,-0.444,0.332,0.734,-514.466,195.068,104.248,
00:00:29:633,-0.423,0.278,0.782,-451.172,102.417,47.851,
00:00:29:650,-0.463,0.329,0.849,-376.099,72.692,4.943,
00:00:29:667,-0.383,0.33,0.819,-184.693,69.763,-54.627,
00:00:29:683,-0.389,0.27,0.771,-73.487,17.15,-57.007,
00:00:29:700,-0.438,0.271,0.742,-39.673,-21.729,-48.523,
00:00:29:717,-0.451,0.268,0.75,-2.808,-32.959,-47.913,
00:00:29:733,-0.451,0.331,0.782,26.916,-45.227,-54.932,
00:00:29:750,-0.457,0.379,0.792,138.366,-54.993,-64.026,
00:00:29:767,-0.46,0.399,0.779,245.605,-65.43,-49.744,
00:00:29:783,-0.486,0.342,0.818,266.479,-54.017,-39.673,
00:00:29:800,-0.481,0.302,0.766,223.449,-17.395,-38.636,
00:00:29:817,-0.472,0.302,0.684,177.368,-36.255,-44.434,
00:00:29:833,-0.489,0.27,0.694,199.035,-66.163,-50.843,
00:00:29:850,-0.505,0.223,0.745,233.215,-48.706,-84.351,
00:00:29:867,-0.489,0.116,0.776,264.343,-24.292,-118.836,
00:00:29:883,-0.469,0.078,0.681,250.854,11.047,-152.649,
00:00:29:900,-0.504,0.252,0.638,198.364,35.278,-187.623,
00:00:29:917,-0.505,0.142,0.683,256.652,83.496,-231.263,
00:00:29:933,-0.495,0.286,0.665,141.784,170.532,-229.92,
00:00:29:950,-0.488,0.369,0.756,267.944,225.28,-238.953,
00:00:29:967,-0.422,0.224,0.828,404.297,268.615,-191.529,
00:00:29:983,-0.36,0.295,0.899,357.91,256.042,-208.985,
00:00:30:0,-0.304,0.262,1.232,508.361,231.262,-261.963,
00:00:30:17,-0.145,0.167,1.117,354.858,308.593,-191.712,
00:00:30:33,-0.18,0.398,1.059,6.042,187.378,-117.371,
00:00:30:50,-0.28,0.432,1.088,-52.857,114.99,43.762,
00:00:30:67,-0.345,0.487,1.092,-122.376,129.272,79.101,
00:00:30:83,-0.29,0.25,1.197,-22.034,197.021,16.296,
00:00:30:100,-0.211,0.19,1.101,25.146,194.946,-79.041,
00:00:30:117,-0.255,0.04,0.972,148.132,-41.382,-181.519,
00:00:30:133,-0.296,-0.058,1.141,-200.562,-38.208,-270.081,
00:00:30:150,-0.285,-0.215,1.193,-581.177,-38.941,-266.053,
00:00:30:167,-0.282,-0.072,1.235,-828.858,-45.716,-236.206,
00:00:30:183,-0.227,0.034,1.262,-878.663,-15.198,-235.108,
00:00:30:200,-0.215,0.204,1.104,-843.811,-9.217,-201.111,
00:00:30:217,-0.272,0.286,1.02,-671.631,-28.565,-192.994,
00:00:30:233,-0.309,0.305,0.905,-494.873,-18.372,-83.435,
00:00:30:250,-0.295,0.398,0.865,-308.411,-25.33,-38.941,
00:00:30:267,-0.299,0.441,0.88,-51.087,-53.406,39.978,
00:00:30:283,-0.323,0.392,0.938,176.635,-67.2,111.084,
00:00:30:300,-0.314,0.372,1.004,458.313,-40.223,281.799,
00:00:30:317,-0.286,0.367,0.98,548.828,-32.715,297.302,
00:00:30:333,-0.261,0.349,0.919,564.575,-41.321,265.442,
00:00:30:350,-0.276,0.29,0.84,471.435,-70.374,243.835,
00:00:30:367,-0.325,0.248,0.77,313.171,-108.094,203.369,
00:00:30:383,-0.364,0.286,0.739,125,-130.127,138.488,
00:00:30:400,-0.394,0.364,0.751,91.98,-127.808,85.754,
00:00:30:417,-0.418,0.4,0.765,160.461,-102.662,51.513,
00:00:30:433,-0.429,0.403,0.786,260.07,-87.342,29.48,
00:00:30:450,-0.422,0.382,0.816,348.693,-89.051,5.493,
00:00:30:467,-0.412,0.341,0.857,417.48,-95.337,11.23,
00:00:30:483,-0.414,0.285,0.907,487.854,-111.512,30.944,
00:00:30:500,-0.419,0.214,0.95,521.972,-96.558,37.231,
00:00:30:517,-0.407,0.098,0.958,441.406,-100.037,-3.174,
00:00:30:533,-0.389,0.036,0.93,320.007,-92.041,6.652,
00:00:30:550,-0.383,0.007,0.899,213.256,-99.854,0.671,
00:00:30:567,-0.366,0.068,0.858,194.03,-44.8,30.09,
00:00:30:583,-0.347,0.062,0.852,268.615,-21.546,89.721,
00:00:30:600,-0.387,0.021,0.904,333.13,-6.714,189.209,
00:00:30:617,-0.498,0.045,0.965,360.351,24.597,233.032,
00:00:30:633,-0.588,0.091,0.951,399.292,135.437,273.803,
00:00:30:650,-0.625,0.055,0.91,468.994,256.164,294.738,
00:00:30:667,-0.606,0.003,0.836,528.076,347.229,282.898,
00:00:30:683,-0.575,0.01,0.767,585.571,416.015,267.089,
00:00:30:700,-0.524,-0.101,0.743,711.914,446.533,219.055,
00:00:30:717,-0.464,-0.164,0.753,782.776,479.858,225.769,
00:00:30:733,-0.403,-0.218,0.767,838.44,491.577,191.467,
00:00:30:750,-0.339,-0.435,0.735,876.22,464.599,183.166,
00:00:30:767,-0.327,-0.538,0.784,752.502,428.283,210.266,
00:00:30:783,-0.299,-0.404,1.076,605.59,454.101,188.842,
00:00:30:800,-0.234,-0.084,1.041,681.091,488.769,200.195,
00:00:30:817,-0.116,-0.26,1.03,823.12,336.12,215.576,
00:00:30:833,-0.144,-0.363,1.014,665.039,260.254,262.878,
00:00:30:850,-0.233,-0.261,0.995,523.315,288.574,254.76,
00:00:30:867,-0.186,-0.395,0.992,305.053,291.504,261.718,
00:00:30:883,-0.239,-0.318,0.991,41.748,298.034,303.344,
00:00:30:900,-0.211,-0.13,1.076,99.609,263.794,298.462,
00:00:30:917,-0.079,-0.105,1.086,447.692,195.19,270.935,
00:00:30:933,-0.121,-0.39,1.001,628.296,132.995,255.188,
00:00:30:950,-0.223,-0.49,0.914,568.115,200.622,252.929,
00:00:30:967,-0.142,-0.527,0.828,534.301,233.154,235.412,
00:00:30:983,-0.062,-0.537,0.823,530.212,193.359,252.929,
00:00:31:0,-0.062,-0.604,0.828,462.28,200.5,259.155,
00:00:31:17,-0.096,-0.63,0.822,286.682,249.817,247.314,
00:00:31:33,-0.084,-0.486,0.8,165.771,325.744,208.374,
00:00:31:50,-0.021,-0.407,0.761,251.709,326.416,187.072,
00:00:31:67,-0.014,-0.485,0.777,324.524,275.573,214.66,
00:00:31:83,0.013,-0.493,0.796,264.526,266.967,231.567,
00:00:31:100,0.045,-0.414,0.764,220.398,242.92,238.586,
00:00:31:117,0.014,-0.395,0.764,181.091,229.797,239.563,
00:00:31:133,0.035,-0.369,0.77,184.143,228.637,218.567,
00:00:31:150,0.066,-0.391,0.766,289.428,196.594,246.399,
00:00:31:167,0.083,-0.531,0.776,390.625,138.183,253.906,
00:00:31:183,0.118,-0.647,0.78,356.079,81.726,213.928,
00:00:31:200,0.127,-0.709,0.868,285.156,77.026,166.137,
00:00:31:217,0.114,-0.677,0.911,156.128,82.641,96.496,
00:00:31:233,0.108,-0.531,0.982,91.064,98.816,17.273,
00:00:31:250,0.132,-0.433,0.988,148.742,59.814,-31.189,
00:00:31:267,0.087,-0.465,1.049,116.699,26.245,-52.918,
00:00:31:283,0.094,-0.423,1.032,24.78,11.474,-103.028,
00:00:31:300,0.108,-0.427,1.02,-66.285,21.301,-113.648,
00:00:31:317,0.078,-0.437,0.971,-214.783,46.447,-155.701,
00:00:31:333,0.111,-0.615,0.879,-464.844,82.519,-188.294,
00:00:31:350,0.058,-0.703,0.87,-813.05,150.695,-232.239,
00:00:31:367,0.079,-0.657,0.823,-1068.543,237.243,-315.369,
00:00:31:383,0.047,-0.696,0.874,-1077.637,233.032,-370.484,
00:00:31:400,0.127,-0.633,0.874,-1001.526,278.869,-333.985,
00:00:31:417,0.085,-0.563,0.857,-972.657,244.873,-377.625,
00:00:31:433,0.144,-0.676,0.907,-2000,435.669,-530.823,
00:00:31:450,0.177,-0.36,1.017,-2000,363.891,-695.74,
00:00:31:467,0.145,-0.324,1.054,-2000,367.065,-669.434,
00:00:31:483,0.124,-0.259,1.049,-1924.927,395.446,-587.159,
00:00:31:500,0.191,0.041,0.91,-1735.169,442.199,-421.204,
00:00:31:517,0.273,0.347,0.824,-1366.822,380.676,-317.261,
00:00:31:533,0.306,0.446,0.767,-821.839,285.583,-226.502,
00:00:31:550,0.359,0.589,0.704,-193.787,213.989,-67.872,
00:00:31:567,0.375,0.822,0.671,715.881,115.234,109.985,
00:00:31:583,0.378,0.642,0.793,1830.505,-4.822,285.949,
00:00:31:600,0.342,0.328,0.946,1999.694,-65.857,466.125,
00:00:31:617,0.367,0.109,0.991,1999.694,-169.617,561.218,
00:00:31:633,0.375,-0.204,1.009,1999.694,-328.003,500.61,
00:00:31:650,0.282,-0.458,0.956,1999.694,-395.691,375.122,
00:00:31:667,0.114,-0.732,0.878,1795.227,-375.55,282.898,
00:00:31:683,0.013,-0.816,0.828,1232.666,-303.162,216.735,
00:00:31:700,0.002,-0.736,0.848,867.187,-164.978,180.908,
00:00:31:717,0.022,-0.531,0.842,726.623,-38.453,78.125,
00:00:31:733,0.064,-0.535,0.777,705.627,31.677,-11.414,
00:00:31:750,0.096,-0.61,0.612,687.5,23.559,-31.311,
00:00:31:767,0.065,-0.59,0.515,614.929,-8.667,-52.308,
00:00:31:783,0.035,-0.571,0.496,573.974,-25.757,-50.171,
00:00:31:800,0.034,-0.607,0.537,561.279,-9.034,-65.186,
00:00:31:817,0.06,-0.645,0.656,507.019,2.441,-102.295,
00:00:31:833,0.095,-0.596,0.802,336.303,35.827,-117.493,
00:00:31:850,0.161,-0.535,0.867,225.708,7.629,-96.314,
00:00:31:867,0.19,-0.544,0.852,263.61,-78.431,-14.222,
00:00:31:883,0.144,-0.615,0.827,287.963,-149.353,70.8,
00:00:31:900,0.089,-0.63,0.788,256.775,-150.94,131.836,
00:00:31:917,0.08,-0.559,0.812,155.578,-99.854,143.31,
00:00:31:933,0.091,-0.484,0.772,74.585,-30.152,132.873,
00:00:31:950,0.126,-0.469,0.718,102.966,-9.827,115.722,
00:00:31:967,0.139,-0.66,0.709,82.214,-98.023,97.961,
00:00:31:983,0.112,-0.707,0.827,-77.515,-138.062,126.526,
00:00:32:0,0.14,-0.452,0.83,-39.368,-130.677,146.057,
00:00:32:17,0.187,-0.502,0.808,259.277,-247.437,90.271,
00:00:32:33,0.116,-0.75,0.836,247.375,-223.877,62.439,
00:00:32:50,0.118,-0.849,0.814,236.938,-163.453,-3.54,
00:00:32:67,0.125,-0.798,0.811,207.885,-77.149,9.704,
00:00:32:83,0.074,-0.755,0.75,92.834,21.179,3.54,
00:00:32:100,0.088,-0.74,0.681,-142.151,82.092,-84.778,
00:00:32:117,0.116,-0.688,0.675,-515.809,139.77,-115.845,
00:00:32:133,0.126,-0.772,0.77,-972.413,196.716,-174.5,
00:00:32:150,0.105,-0.748,0.805,-1451.355,316.162,-207.215,
00:00:32:167,0.12,-0.666,0.917,-1929.749,437.927,-223.572,
00:00:32:183,0.172,-0.438,0.902,-2000,520.446,-303.772,
00:00:32:200,0.17,-0.457,0.956,-2000,509.704,-329.712,
00:00:32:217,0.157,-0.576,1.089,-2000,530.761,-323.121,
00:00:32:233,0.245,-0.471,1.022,-2000,560.18,-345.276,
00:00:32:250,0.281,-0.417,1.042,-2000,467.407,-438.66,
00:00:32:267,0.305,-0.289,1.048,-2000,375.488,-376.709,
00:00:32:283,0.224,-0.383,0.959,-2000,294.433,-373.414,
00:00:32:300,0.257,-0.287,0.775,-2000,242.675,-441.712,
00:00:32:317,0.382,0.116,0.719,-2000,188.354,-431.397,
00:00:32:333,0.323,0.469,0.681,-2000,152.221,-249.756,
00:00:32:350,0.334,0.541,0.696,-1580.445,129.211,-168.702,
00:00:32:367,0.365,0.705,0.696,-1199.646,117.859,-145.508,
00:00:32:383,0.349,0.772,0.687,-802.674,130.249,-107.727,
00:00:32:400,0.404,0.929,0.622,-383.24,112.365,-21.119,
00:00:32:417,0.42,1.015,0.62,231.567,33.142,73.425,
00:00:32:433,0.387,1.067,0.6,1101.318,-24.659,195.434,
00:00:32:450,0.421,0.973,0.577,1856.323,-120.911,312.5,
00:00:32:467,0.461,0.793,0.661,1999.694,-329.407,234.802,
00:00:32:483,0.366,0.463,0.79,1999.694,-570.557,206.604,
00:00:32:500,0.218,0.275,0.882,1999.694,-650.818,297.729,
00:00:32:517,0.12,0.089,0.911,1999.694,-621.338,293.335,
00:00:32:533,0.079,-0.178,0.878,1999.694,-584.9,331.97,
00:00:32:550,0.063,-0.36,0.797,1999.694,-512.818,313.842,
00:00:32:567,0.075,-0.599,0.811,1999.694,-407.532,246.521,
00:00:32:583,0.083,-0.859,0.855,1875.732,-341.004,206.359,
00:00:32:600,0.059,-0.895,0.92,959.106,-255.494,191.101,
00:00:32:617,0.046,-0.636,0.939,399.475,-108.094,235.29,
00:00:32:633,0.039,-0.415,0.927,207.092,-19.349,182.434,
00:00:32:650,0.04,-0.247,0.833,188.354,78.491,143.249,
00:00:32:667,0.056,-0.297,0.735,275.879,99.914,90.393,
00:00:32:683,0.051,-0.206,0.596,460.998,72.876,116.516,
00:00:32:700,0.089,-0.312,0.609,734.436,-0.611,121.399,
00:00:32:717,0.113,-0.376,0.636,987.732,-49.744,130.554,
00:00:32:733,0.134,-0.503,0.658,1056.762,-65.918,120.239,
00:00:32:750,0.119,-0.689,0.642,972.473,-69.336,87.158,
00:00:32:767,0.097,-0.955,0.672,695.312,-67.078,69.152,
00:00:32:783,0.111,-0.879,0.736,324.463,-58.96,54.504,
00:00:32:800,0.179,-0.654,0.757,134.033,-68.726,33.752,
00:00:32:817,0.253,-0.657,0.792,186.767,-203.431,59.021,
00:00:32:833,0.165,-0.704,0.885,131.958,-273.255,88.195,
00:00:32:850,0.108,-0.697,0.965,56.03,-220.765,100.463,
00:00:32:867,0.158,-0.586,0.887,127.258,-156.189,87.158,
00:00:32:883,0.1,-0.507,0.767,49.865,-135.743,39.001,
00:00:32:900,0.056,-0.484,0.775,-88.379,-56.458,-13.916,
00:00:32:917,0.092,-0.561,0.758,-77.149,-29.725,-46.936,
00:00:32:933,0.095,-0.703,0.844,-169.007,16.906,-26.673,
00:00:32:950,0.082,-0.684,0.839,-322.022,61.34,-31.128,
00:00:32:967,0.099,-0.667,0.909,-549.439,136.23,-56.519,
00:00:32:983,0.102,-0.63,0.874,-724.61,210.022,-102.662,
00:00:33:0,0.089,-0.674,0.858,-922.608,263.305,-122.559,
00:00:33:17,0.088,-0.673,0.858,-1190.308,343.2,-134.034,
00:00:33:33,0.115,-0.623,0.887,-1366.028,391.479,-149.537,
00:00:33:50,0.182,-0.578,0.75,-1477.54,459.472,-134.156,
00:00:33:67,0.193,-0.555,0.8,-1687.073,393.982,-165.589,canRH
00:00:33:83,0.255,-0.485,0.841,-1768.677,341.858,-197.51,
00:00:33:100,0.279,-0.383,0.915,-1878.663,217.956,-311.158,
00:00:33:117,0.284,-0.364,0.985,-1807.374,179.138,-394.654,
00:00:33:133,0.31,-0.405,1.038,-1937.623,160.705,-413.086,
00:00:33:150,0.296,-0.167,0.975,-2000,78.491,-394.104,
00:00:33:167,0.234,-0.266,1.063,-2000,56.457,-458.13,
00:00:33:183,0.242,-0.201,0.98,-2000,113.342,-436.585,
00:00:33:200,0.317,0.211,0.905,-2000,175.354,-489.502,
00:00:33:217,0.339,0.647,0.829,-2000,199.096,-391.602,
00:00:33:233,0.304,0.803,0.691,-1564.942,203.003,-322.327,
00:00:33:250,0.32,0.665,0.624,-1001.893,206.482,-229.737,
00:00:33:267,0.34,0.998,0.542,-377.259,202.819,-25.696,
00:00:33:283,0.421,1.179,0.596,544.372,78.125,75.134,
00:00:33:300,0.397,1.013,0.684,1503.784,-84.168,130.188,
00:00:33:317,0.38,0.76,0.707,1999.694,-234.131,280.578,
00:00:33:334,0.363,0.657,0.787,1999.694,-399.476,266.113,
00:00:33:350,0.26,0.37,0.852,1999.694,-573.67,253.173,
00:00:33:367,0.064,-0.479,0.917,1999.694,-621.399,337.951,
00:00:33:384,0.044,-0.625,0.877,1999.694,-526.123,352.722,
00:00:33:400,0.022,-0.733,0.853,1999.694,-441.895,364.257,
00:00:33:417,-0.004,-0.85,0.883,1475.769,-319.092,339.294,
00:00:33:434,-0.031,-0.837,0.927,786.071,-135.01,280.09,
00:00:33:450,-0.027,-0.595,0.911,356.872,52.307,259.094,
00:00:33:467,0.008,-0.326,0.814,143.737,185.424,195.617,
00:00:33:484,0.061,-0.182,0.707,199.89,218.567,191.284,
00:00:33:500,0.119,-0.121,0.635,444.519,180.725,140.808,
00:00:33:517,0.124,-0.188,0.557,743.042,97.412,114.624,
00:00:33:534,0.134,-0.46,0.57,998.413,-1.038,110.229,
00:00:33:550,0.104,-0.677,0.583,1022.888,-57.923,111.023,
00:00:33:567,0.146,-0.742,0.708,581.665,-66.834,112.304,
00:00:33:584,0.171,-0.775,0.767,342.773,-81.299,97.168,
00:00:33:600,0.167,-0.763,0.786,140.869,-85.877,76.477,
00:00:33:617,0.153,-0.687,0.826,51.391,-89.539,50.048,
00:00:33:634,0.185,-0.673,0.835,100.341,-71.961,46.508,
00:00:33:650,0.182,-0.647,0.765,161.255,-61.28,41.748,
00:00:33:667,0.155,-0.785,0.782,54.26,-45.655,63.537,
00:00:33:684,0.162,-0.765,0.757,-504.822,7.324,-54.749,
00:00:33:700,0.169,-0.712,0.722,-755.066,1.342,-95.154,
00:00:33:717,0.139,-0.622,0.723,-865.906,13.916,-179.322,
00:00:33:734,0.125,-0.593,0.795,-884.156,65.979,-243.714,
00:00:33:750,0.154,-0.591,0.822,-949.646,108.581,-251.526,
00:00:33:767,0.114,-0.602,0.961,-1157.593,165.771,-251.16,
00:00:33:784,0.112,-0.638,0.941,-1395.325,268.188,-288.819,
00:00:33:800,0.153,-0.433,0.871,-1784.363,404.907,-270.203,
00:00:33:817,0.107,-0.426,0.947,-1974.061,413.33,-284.424,
00:00:33:834,0.16,-0.287,0.933,-2000,407.959,-293.213,
00:00:33:850,0.301,0.02,0.986,-2000,288.94,-336.548,
00:00:33:867,0.356,0.196,1.052,-2000,162.231,-409.119,
00:00:33:884,0.255,0.162,1.033,-1994.202,58.593,-365.723,
00:00:33:900,0.214,0.093,0.997,-1864.014,30.09,-399.17,
00:00:33:917,0.265,0.129,0.877,-1776.063,77.758,-359.681,
00:00:33:934,0.333,0.445,0.77,-1673.218,57.373,-256.836,
00:00:33:950,0.25,0.29,0.753,-1538.392,98.266,-328.064,
00:00:33:967,0.247,0.216,0.748,-1676.331,156.494,-320.557,
00:00:33:984,0.336,0.65,0.698,-1589.112,190.429,-271.485,
00:00:34:0,0.304,0.678,0.577,-1336.121,224.792,-287.171,
00:00:34:17,0.347,0.784,0.623,-1182.74,221.679,-154.786,
00:00:34:34,0.322,0.809,0.688,-973.145,208.496,-111.939,
00:00:34:50,0.303,0.651,0.662,-850.647,226.684,-128.724,
00:00:34:67,0.37,0.851,0.549,-752.808,226.562,-83.985,
00:00:34:84,0.433,1.127,0.534,-361.084,111.389,-34.852,
00:00:34:100,0.391,1.162,0.493,220.459,16.601,24.231,
00:00:34:117,0.423,1.251,0.41,906.067,-51.514,83.252,
00:00:34:134,0.424,1.245,0.416,1635.803,-167.664,213.195,
00:00:34:150,0.388,1.058,0.561,1999.694,-236.329,393.554,
00:00:34:167,0.359,0.712,0.696,1999.694,-277.039,486.877,
00:00:34:184,0.303,0.446,0.761,1999.694,-419.678,419.922,
00:00:34:200,0.25,0.255,0.733,1999.694,-499.634,399.536,
00:00:34:217,0.128,-0.091,0.659,1999.694,-611.206,284.729,
00:00:34:234,-0.026,-0.714,0.639,1999.694,-509.949,-1.831,
00:00:34:250,0.006,-0.793,0.896,1712.28,-406.311,85.144,
00:00:34:267,0.024,-0.792,1.041,1110.168,-272.522,171.997,
00:00:34:284,0.02,-0.509,0.928,605.407,-6.958,230.102,
00:00:34:300,0.036,-0.287,0.703,650.329,86.425,161.499,
00:00:34:317,0.161,-0.478,0.641,727.417,31.433,176.452,
00:00:34:334,0.173,-0.507,0.615,608.947,-57.557,219.604,
00:00:34:350,0.114,-0.451,0.651,570.984,-124.146,223.693,
00:00:34:367,0.104,-0.524,0.767,468.872,-119.019,111.267,
00:00:34:384,0.093,-0.493,0.799,351.074,-91.614,36.132,
00:00:34:400,0.118,-0.61,0.85,262.939,-148.926,-24.842,
00:00:34:417,0.162,-0.496,0.772,259.521,-124.634,29.419,
00:00:34:434,0.078,-0.638,0.713,144.836,-97.413,10.437,
00:00:34:450,0.058,-0.696,0.73,-48.401,-40.833,-69.153,
00:00:34:467,0.097,-0.694,0.777,-162.171,11.23,-80.445,
00:00:34:484,0.09,-0.588,0.762,-141.053,24.414,-83.558,
00:00:34:500,0.052,-0.6,0.909,-525.94,65.49,-80.872,
00:00:34:517,0.064,-0.671,0.967,-847.901,137.878,-101.868,
00:00:34:534,0.076,-0.611,0.971,-1281.006,239.929,-135.193,
00:00:34:550,0.068,-0.472,0.974,-1665.406,358.581,-203.675,
00:00:34:567,0.063,-0.448,0.898,-1881.348,454.101,-238.343,
00:00:34:584,0.226,-0.217,0.957,-2000,287.475,-260.926,
00:00:34:600,0.296,0.043,1.065,-1952.698,201.538,-317.261,
00:00:34:617,0.278,0.098,0.981,-1669.19,117.675,-331.543,
00:00:34:634,0.166,-0.253,1.049,-1742.615,26.733,-424.866,
00:00:34:650,0.169,-0.377,0.834,-2000,51.513,-478.577,
00:00:34:667,0.26,0.023,0.728,-2000,-19.471,-490.113,
00:00:34:684,0.278,0.491,0.671,-2000,-134.644,-465.149,
00:00:34:700,0.124,0.51,0.749,-2000,-112,-381.104,
00:00:34:717,0.108,0.404,0.732,-2000,31.433,-387.513,
00:00:34:734,0.265,0.596,0.698,-2000,148.071,-348.206,
00:00:34:750,0.318,0.994,0.561,-1998.902,152.71,-252.625,
00:00:34:767,0.349,1.261,0.536,-1423.768,88.806,-191.956,
00:00:34:784,0.288,1.157,0.532,-600.464,41.076,-54.81,
00:00:34:800,0.325,1.163,0.513,60.485,5.615,46.691,
00:00:34:817,0.322,1.137,0.501,657.531,-60.669,95.52,
00:00:34:834,0.297,1.074,0.52,1205.993,-124.939,166.809,
00:00:34:850,0.287,0.623,0.613,1999.694,-454.712,427.002,
00:00:34:867,0.237,0.503,0.643,1999.694,-615.174,429.199,
00:00:34:884,0.126,0.22,0.786,1999.694,-720.154,399.78,
00:00:34:900,0.035,-0.074,0.907,1999.694,-693.177,419.677,
00:00:34:917,-0.023,-0.292,1.003,1999.694,-622.01,454.284,
00:00:34:934,-0.016,-0.417,1.003,1999.694,-505.066,495.666,
00:00:34:950,-0.056,-0.501,0.961,1999.694,-356.568,500.305,
00:00:34:967,-0.039,-0.569,0.883,1999.694,-223.145,483.093,
00:00:34:984,-0.066,-0.688,0.863,1753.479,-96.68,488.342,
00:00:35:0,-0.088,-0.33,0.689,373.657,216.858,281.555,
00:00:35:17,0.023,-0.888,0.463,933.654,-120.301,-7.386,
00:00:35:34,-0.08,-1.069,0.448,652.771,-176.209,-0.733,
00:00:35:50,-0.066,-0.837,0.609,125.549,-90.821,4.76,
00:00:35:67,0.033,-0.568,0.805,-251.282,-72.693,-83.313,
00:00:35:84,0.122,-0.535,1.006,-429.444,-154.908,-80.689,
00:00:35:100,0.027,-0.336,1.195,-420.227,-120.667,-34.363,
00:00:35:117,0.038,-0.226,0.987,-122.071,-129.395,-75.684,
00:00:35:134,0.042,-0.45,0.954,-43.03,-156.739,-68.482,
00:00:35:150,-0.067,-0.602,0.883,-249.268,-112.977,-75.379,
00:00:35:167,-0.035,-0.704,0.779,-573.121,-49.988,-141.297,
00:00:35:184,-0.023,-0.669,0.737,-906.434,-19.349,-154.969,
00:00:35:200,-0.042,-0.533,0.773,-1183.655,-2.137,-207.642,
00:00:35:217,-0.004,-0.525,0.899,-1252.503,30.578,-256.47,
00:00:35:234,0.004,-0.409,0.916,-1295.899,26.367,-334.046,
00:00:35:250,-0.001,-0.65,1.148,-1493.104,-22.95,-329.285,
00:00:35:267,0.017,-0.626,1.032,-1947.693,26.916,-365.662,
00:00:35:284,0.03,-0.54,0.885,-2000,-54.749,-506.348,
00:00:35:300,0.053,-0.334,0.839,-2000,-149.964,-532.532,
00:00:35:317,0.028,-0.105,0.769,-2000,-291.382,-572.754,
00:00:35:334,-0.073,-0.128,0.658,-2000,-366.211,-623.23,
00:00:35:350,-0.023,0.315,0.686,-2000,-393.006,-553.162,
00:00:35:367,-0.051,0.596,0.792,-2000,-451.783,-492.859,
00:00:35:384,-0.168,0.505,0.783,-2000,-374.207,-430.237,
00:00:35:400,-0.132,0.495,0.785,-2000,-229.187,-443.055,
00:00:35:417,-0.068,0.658,0.626,-2000,-83.802,-379.822,
00:00:35:434,0.046,1.001,0.648,-2000,-139.649,-311.524,
00:00:35:450,-0.028,1.252,0.66,-1445.923,-207.642,-94.361,
00:00:35:467,-0.064,1.296,0.695,-669.556,-213.685,31.677,
00:00:35:484,-0.03,1.25,0.712,-133.728,-214.478,123.108,
00:00:35:500,-0.012,1.254,0.752,341.919,-240.174,200.317,
00:00:35:517,-0.048,1.03,0.699,840.454,-284.119,307.861,
