TIMECODE,ACC_X,ACC_Y,ACC_Z,GYR_X,GYR_Y,GYR_Z,ECG_I,ECG_II,ECG_III,TAG
,-0.145,0.411,0.894,4.516,4.76,-22.889,0,0,0,
,-0.144,0.41,0.89,6.408,7.69,-23.621,0,0,0,
,-0.142,0.41,0.892,2.868,8.972,-20.997,0,0,0,
,-0.145,0.412,0.89,5.554,7.568,-21.119,0,0,0,
,-0.148,0.414,0.892,5.859,9.216,-19.532,0,0,0,
,-0.148,0.41,0.891,5.554,8.361,-20.325,0,0,0,
,-0.143,0.408,0.895,4.821,10.559,-20.935,0,0,0,
,-0.144,0.41,0.89,4.76,7.568,-21.302,0,0,0,
,-0.142,0.41,0.888,1.22,5.92,-19.471,0,0,0,
,-0.146,0.415,0.891,4.638,3.662,-18.433,0,0,0,
,-0.147,0.412,0.889,6.774,5.676,-20.142,0,0,0,
,-0.145,0.414,0.891,5.127,5.127,-21.485,0,0,0,
,-0.146,0.416,0.889,6.042,5.31,-23.804,0,0,0,
,-0.149,0.41,0.893,5.554,6.774,-25.818,0,0,0,
,-0.144,0.413,0.89,3.54,8.789,-25.147,0,0,0,
,-0.143,0.408,0.889,2.624,6.774,-25.086,0,0,0,
,-0.144,0.408,0.895,2.868,4.333,-21.607,0,0,0,
,-0.147,0.409,0.888,3.54,3.601,-18.555,0,0,0,
,-0.146,0.412,0.888,4.699,5.371,-18.433,0,0,0,
,-0.147,0.413,0.889,3.967,5.798,-19.104,0,0,0,
,-0.145,0.411,0.893,5.554,5.127,-17.884,0,0,0,
,-0.147,0.414,0.891,2.746,6.897,-20.447,0,0,0,
,-0.147,0.413,0.889,2.014,5.981,-22.583,0,0,0,
,-0.146,0.416,0.891,4.577,5.065,-21.607,0,0,0,
,-0.146,0.413,0.887,4.821,7.08,-21.851,0,0,0,
,-0.148,0.414,0.889,3.601,4.516,-24.659,0,0,0,
,-0.148,0.41,0.888,4.699,5.31,-22.217,0,0,0,
,-0.149,0.414,0.893,4.028,3.295,-21.729,0,0,0,
,-0.149,0.414,0.892,3.967,6.469,-20.325,0,0,0,
,-0.148,0.412,0.892,7.08,8.972,-20.63,0,0,0,
,-0.147,0.41,0.892,4.089,11.108,-19.898,0,0,0,
,-0.148,0.411,0.893,4.028,9.826,-19.959,0,0,0,
,-0.149,0.411,0.889,3.173,11.169,-17.456,0,0,0,
,-0.146,0.413,0.893,6.164,12.023,-17.395,0,0,0,
,-0.147,0.411,0.888,4.943,10.742,-16.846,0,0,0,
,-0.15,0.411,0.89,4.272,9.887,-16.541,0,0,0,
,-0.148,0.414,0.889,4.394,7.995,-19.349,0,0,0,
,-0.148,0.418,0.89,4.76,7.873,-20.569,0,0,0,
,-0.147,0.418,0.892,5.432,6.103,-21.302,0,0,0,
,-0.147,0.417,0.885,6.897,5.493,-22.217,0,0,0,
,-0.145,0.412,0.892,6.897,4.15,-24.781,0,0,0,
,-0.148,0.415,0.889,5.676,5.188,-24.048,0,0,0,
,-0.148,0.41,0.894,4.882,5.065,-26.185,0,0,0,
,-0.151,0.412,0.892,6.042,6.774,-21.912,0,0,0,
,-0.149,0.411,0.891,4.943,8.544,-21.79,0,0,0,
,-0.148,0.416,0.89,5.615,10.315,-19.715,0,0,0,
,-0.146,0.416,0.891,6.408,9.704,-19.654,0,0,0,
,-0.146,0.412,0.89,6.836,9.948,-20.386,0,0,0,
,-0.146,0.415,0.89,7.202,10.192,-20.997,0,0,0,
,-0.149,0.412,0.887,6.713,9.399,-21.912,0,0,0,
,-0.146,0.415,0.89,4.394,11.474,-23.255,0,0,0,
,-0.149,0.412,0.889,5.249,10.681,-22.95,0,0,0,
,-0.145,0.416,0.891,5.737,10.864,-22.095,0,0,0,
,-0.146,0.417,0.888,7.995,11.352,-22.461,0,0,0,
,-0.147,0.413,0.892,8.911,9.033,-21.729,0,0,0,
,-0.144,0.411,0.891,6.958,10.07,-22.034,0,0,0,
,-0.149,0.409,0.892,9.826,11.169,-22.4,0,0,0,
,-0.146,0.411,0.892,4.699,9.765,-22.156,0,0,0,
,-0.148,0.411,0.888,3.356,11.657,-22.339,0,0,0,
,-0.148,0.416,0.89,6.347,12.39,-22.156,0,0,0,
,-0.146,0.416,0.886,5.859,10.986,-19.349,0,0,0,
,-0.15,0.415,0.888,5.981,11.291,-20.935,0,0,0,
,-0.149,0.414,0.889,8.3,12.756,-20.63,0,0,0,
,-0.146,0.409,0.891,6.713,12.451,-22.767,0,0,0,
,-0.146,0.412,0.893,6.164,10.742,-23.011,0,0,0,
,-0.146,0.41,0.888,3.601,9.826,-22.522,0,0,0,
,-0.145,0.413,0.89,2.685,8.056,-24.659,0,0,0,
,-0.143,0.413,0.889,2.685,6.347,-22.095,0,0,0,
,-0.15,0.415,0.889,6.286,5.004,-22.095,0,0,0,
,-0.146,0.415,0.888,5.004,8.789,-21.058,0,0,0,
,-0.15,0.413,0.889,6.286,4.943,-22.461,0,0,0,
,-0.149,0.412,0.891,6.897,4.211,-22.889,0,0,0,
,-0.147,0.412,0.893,5.798,4.211,-23.865,0,0,0,
,-0.149,0.415,0.893,6.286,3.723,-25.635,0,0,0,
,-0.147,0.413,0.89,4.516,5.188,-26.185,0,0,0,
,-0.148,0.415,0.89,3.356,8.239,-25.879,0,0,0,
,-0.146,0.415,0.888,3.784,9.216,-25.818,0,0,0,
,-0.145,0.413,0.892,5.859,6.103,-22.95,0,0,0,
,-0.146,0.415,0.891,4.577,5.188,-20.325,0,0,0,
,-0.15,0.409,0.893,5.676,8.3,-20.569,0,0,0,
,-0.149,0.412,0.892,9.094,10.986,-19.104,0,0,0,
,-0.146,0.41,0.888,5.004,10.925,-19.471,0,0,0,
,-0.145,0.409,0.89,4.516,11.291,-20.508,0,0,0,
,-0.147,0.414,0.887,3.173,9.216,-19.837,0,0,0,
,-0.148,0.415,0.889,3.112,5.188,-19.471,0,0,0,
,-0.148,0.42,0.89,3.906,8.667,-21.119,0,0,0,
,-0.147,0.415,0.887,5.615,9.216,-18.738,0,0,0,
,-0.148,0.413,0.89,6.042,8.117,-20.508,0,0,0,
,-0.148,0.41,0.888,4.638,9.826,-19.532,0,0,0,
,-0.148,0.413,0.888,7.08,9.521,-19.959,0,0,0,
,-0.148,0.411,0.89,5.371,9.216,-18.677,0,0,0,
,-0.15,0.414,0.892,6.591,10.803,-19.104,0,0,0,
,-0.145,0.413,0.89,5.981,11.291,-18.555,0,0,0,
,-0.144,0.411,0.89,4.028,10.131,-19.043,0,0,0,
,-0.146,0.412,0.888,2.685,8.911,-17.029,0,0,0,
,-0.148,0.414,0.89,2.624,9.643,-15.503,0,0,0,
,-0.147,0.416,0.886,3.845,7.629,-16.297,0,0,0,
,-0.153,0.416,0.891,2.746,6.958,-16.053,0,0,0,
,-0.148,0.412,0.889,5.127,6.225,-18.006,0,0,0,
,-0.149,0.415,0.89,5.188,5.493,-19.532,0,0,0,
,-0.147,0.418,0.884,3.051,5.798,-21.546,0,0,0,
,-0.146,0.419,0.887,5.188,2.624,-22.461,0,0,0,
,-0.147,0.417,0.887,4.455,2.441,-23.255,0,0,0,
,-0.148,0.414,0.889,5.493,1.953,-23.316,0,0,0,
,-0.148,0.412,0.893,2.929,2.624,-23.56,0,0,0,
,-0.15,0.414,0.889,4.455,2.197,-24.231,0,0,0,
,-0.149,0.414,0.887,2.99,1.892,-24.414,0,0,0,
,-0.15,0.414,0.887,4.577,3.173,-23.499,0,0,0,
,-0.148,0.416,0.888,3.54,4.516,-23.804,0,0,0,
,-0.147,0.413,0.888,5.737,2.441,-20.997,0,0,0,
,-0.149,0.416,0.89,4.333,4.76,-20.691,0,0,0,
,-0.148,0.416,0.887,5.127,4.882,-20.63,0,0,0,
,-0.152,0.412,0.89,2.624,6.652,-22.461,0,0,0,
,-0.152,0.415,0.887,3.784,8.056,-20.569,0,0,0,
,-0.152,0.414,0.888,3.051,6.897,-20.874,0,0,0,
,-0.149,0.415,0.892,2.624,7.141,-21.729,0,0,0,
,-0.149,0.414,0.888,6.225,9.46,-21.79,0,0,0,
,-0.148,0.415,0.892,3.112,7.629,-19.898,0,0,0,
,-0.152,0.413,0.89,6.469,7.446,-20.325,0,0,0,
,-0.148,0.419,0.887,6.103,9.399,-19.104,0,0,0,
,-0.152,0.414,0.89,4.638,8.239,-19.837,0,0,0,
,-0.153,0.412,0.89,5.981,9.277,-19.959,0,0,0,
,-0.152,0.413,0.89,4.394,13.061,-20.02,0,0,0,
,-0.152,0.414,0.888,4.394,10.559,-19.471,0,0,0,
,-0.15,0.416,0.891,4.211,10.864,-18.799,0,0,0,
,-0.15,0.416,0.887,5.31,12.817,-18.433,0,0,0,
,-0.152,0.413,0.889,4.394,14.099,-17.884,0,0,0,
,-0.151,0.418,0.889,-1.282,13.488,-19.532,0,0,0,
,-0.15,0.418,0.887,0.061,11.84,-20.081,0,0,0,
,-0.147,0.408,0.89,0.305,11.535,-20.386,0,0,0,
,-0.148,0.418,0.886,-5.738,10.07,-22.4,0,0,0,
,-0.145,0.419,0.89,-0.184,9.033,-21.302,0,0,0,
,-0.147,0.418,0.885,-1.038,5.92,-21.546,0,0,0,
,-0.151,0.423,0.885,-2.442,5.737,-22.034,0,0,0,
,-0.149,0.42,0.883,-0.061,6.897,-23.682,0,0,0,
,-0.15,0.417,0.887,2.136,3.967,-22.522,0,0,0,
,-0.152,0.42,0.885,0.244,4.028,-23.499,0,0,0,
,-0.152,0.421,0.891,8.3,1.281,-26.734,0,0,0,
,-0.154,0.414,0.889,8.178,4.638,-27.649,0,0,0,
,-0.151,0.416,0.89,4.638,6.53,-28.016,0,0,0,
,-0.148,0.417,0.889,-0.184,6.103,-27.894,0,0,0,
,-0.149,0.415,0.889,0.366,5.493,-26.734,0,0,0,
,-0.152,0.413,0.889,0.244,6.958,-22.4,0,0,0,
,-0.15,0.419,0.886,4.638,9.094,-22.889,0,0,0,
,-0.151,0.416,0.889,5.92,9.643,-19.288,0,0,0,
,-0.152,0.416,0.887,5.737,8.728,-18.128,0,0,0,
,-0.153,0.42,0.887,2.319,10.498,-18.799,0,0,0,
,-0.153,0.42,0.887,1.892,9.216,-19.288,0,0,0,
,-0.149,0.42,0.886,3.662,9.704,-19.227,0,0,0,
,-0.149,0.423,0.883,6.958,8.483,-20.142,0,0,0,
,-0.155,0.417,0.882,8.178,8.911,-19.471,0,0,0,
,-0.153,0.42,0.887,8.667,10.131,-21.668,0,0,0,
,-0.152,0.413,0.887,6.042,7.934,-22.706,0,0,0,
,-0.149,0.419,0.884,5.798,9.277,-22.522,0,0,0,
,-0.149,0.42,0.889,7.141,6.652,-19.959,0,0,0,
,-0.152,0.417,0.885,6.958,10.009,-19.532,0,0,0,
,-0.152,0.421,0.885,7.873,13.366,-19.165,0,0,0,
,-0.149,0.413,0.889,6.042,13.916,-18.067,0,0,0,
,-0.148,0.418,0.884,5.798,13.061,-16.724,0,0,0,
,-0.149,0.408,0.893,4.76,10.742,-17.579,0,0,0,
,-0.151,0.416,0.89,2.258,10.681,-15.992,0,0,0,
,-0.148,0.423,0.888,2.685,12.268,-16.48,0,0,0,
,-0.15,0.419,0.887,-2.259,9.216,-17.762,0,0,0,
,-0.152,0.427,0.884,2.197,7.263,-18.738,0,0,0,
,-0.149,0.421,0.884,2.624,7.751,-21.607,0,0,0,
,-0.148,0.424,0.887,3.234,5.31,-21.485,0,0,0,
,-0.15,0.424,0.882,5.798,1.892,-22.339,0,0,0,
,-0.155,0.418,0.886,6.652,0.732,-24.476,0,0,0,
,-0.153,0.422,0.886,5.004,1.159,-25.086,0,0,0,
,-0.153,0.418,0.889,4.394,1.037,-27.894,0,0,0,
,-0.158,0.422,0.884,4.15,3.601,-25.513,0,0,0,
,-0.153,0.42,0.886,7.629,2.99,-26.734,0,0,0,
,-0.153,0.422,0.884,9.033,3.601,-24.964,0,0,0,
,-0.156,0.415,0.891,11.901,4.577,-23.011,0,0,0,
,-0.16,0.416,0.9,7.507,5.065,-25.147,0,0,0,
,-0.167,0.478,0.915,52.124,36.56,-37.903,0,0,0,
,-0.191,0.462,1.003,222.717,76.416,19.531,0,0,0,
,-0.306,0.405,1.237,584.045,176.88,134.643,0,0,0,
,-0.431,0.507,1.219,864.563,439.758,191.772,0,0,0,
,-0.207,0.284,1.654,409.912,359.741,237.121,0,0,0,
,-0.123,0.667,2.033,7.873,161.132,370.056,0,0,0,
,-0.149,0.703,2.547,-78.797,-408.57,437.439,0,0,0,
,-0.294,1.094,2.909,141.967,-990.479,678.833,0,0,0,
,-0.207,1.007,3.155,306.335,-1356.019,746.093,0,0,0,
,-0.054,1.363,3.032,447.204,-1809.632,1001.892,0,0,0,
,0.175,1.396,2.781,746.154,-2000,1082.092,0,0,0,
,0.458,1.083,2.394,862.121,-2000,1162.353,0,0,0,
,0.865,0.969,1.893,801.147,-2000,1313.415,0,0,0,
,1.204,0.731,1.339,755.005,-2000,1583.801,0,0,0,
,1.109,0.511,0.741,713.256,-2000,1710.937,0,0,0,
,1.437,0.31,0.156,730.041,-2000,1709.289,0,0,0,
,1.826,0.19,-0.245,1000.915,-2000,1830.932,0,0,0,
,1.884,0.026,-0.7,991.882,-2000,1727.966,0,0,0,
,1.606,-0.041,-1.396,616.638,-2000,1544.983,0,0,0,
,1.264,-0.241,-2.274,57.373,-2000,1379.15,0,0,0,
,0.986,-0.563,-3.044,-488.465,-1779.908,1184.021,0,0,0,
,0.61,-1.035,-2.949,-444.153,-327.332,722.29,0,0,0,
,0.575,-1.065,-2.023,-171.631,1195.739,-6.714,0,0,0,
,0.749,-0.639,-1.336,-204.529,1999.694,-724.183,0,0,0,
,0.815,-0.575,-1.165,-492.798,1999.694,-1203.553,0,0,0,
,0.7,-0.678,-1.099,-1151.185,1999.694,-1413.392,0,0,0,
,0.74,-0.515,-0.976,-1611.146,1999.694,-1819.397,0,0,0,
,0.788,-0.389,-0.633,-1434.021,1999.694,-2000,0,0,0,
,0.869,0.092,-0.093,-1165.406,1999.694,-2000,0,0,0,
,0.841,0.385,0.398,-961.548,1999.694,-1970.948,0,0,0,
,0.703,0.181,0.462,-673.706,1999.694,-1853.821,0,0,0,
,0.728,0.313,0.487,-689.881,1999.694,-1498.78,0,0,0,
,0.956,1.103,1.256,-877.381,1999.694,-1282.715,0,0,0,
,1.031,1.497,1.832,-249.39,1999.694,-1206.604,0,0,0,
,0.965,0.963,2.131,427.063,1999.694,-1014.344,0,0,0,
,0.799,0.425,2.502,68.298,1859.497,-763.794,0,0,0,
,0.527,0.848,2.696,-645.02,1427.978,-480.042,0,0,0,
,0.374,1.235,2.61,-717.774,1003.479,-456.727,0,0,0,
,0.19,1.223,2.317,-487.671,555.664,-427.491,0,0,0,
,-0.158,0.834,1.933,-128.663,136.047,-347.046,0,0,0,
,0.317,1.667,3.999,141.967,-767.09,-215.027,0,0,0,
,-0.315,0.077,1.626,289.062,-1156.128,-67.81,0,0,0,
,-0.642,0.322,1.125,-350.403,-680.176,-164.307,0,0,0,
,-0.525,0.304,0.832,-282.227,-112,-208.497,0,0,0,
,-0.153,0.078,0.68,-266.053,222.656,-143.738,0,0,0,
,-0.061,0.246,0.419,-217.102,206.787,-141.724,0,0,0,
,0.094,0.057,0.28,9.46,237.121,-42.969,0,0,0,
,0.209,0.229,0.517,92.224,114.318,78.552,0,0,0,
,0.114,0.193,0.649,226.806,10.803,66.711,0,0,0,
,0.049,0.074,0.862,150.573,7.995,53.222,0,0,0,
,0.103,0.362,1.361,-119.873,33.813,20.324,0,0,0,
,0.237,0.623,1.831,-284.546,-220.093,14.526,0,0,0,
,-0.272,0.209,0.969,-70.74,-532.898,39.489,0,0,0,
,-0.5,0.231,0.867,-254.029,-285.584,-91.553,0,0,0,
,-0.349,0.463,0.89,-401.062,151.611,-69.886,0,0,0,
,-0.034,0.564,0.851,-244.996,250.488,-102.906,0,0,0,
,0.099,0.475,0.847,-23.316,41.931,-87.952,0,0,0,
,0.03,0.356,0.916,70.678,-150.635,-45.899,0,0,0,
,-0.097,0.331,0.978,44.616,-159.852,-30.274,0,0,0,
,-0.138,0.333,0.949,7.995,-52.918,-41.626,0,0,0,
,-0.089,0.317,0.947,-11.841,14.099,-63.843,0,0,0,
,-0.058,0.327,0.907,-12.696,2.258,-55.054,0,0,0,
,-0.07,0.344,0.936,5.92,-22.889,-54.444,0,0,0,
,-0.101,0.38,0.914,32.104,-9.949,-38.941,0,0,0,
,-0.101,0.426,0.932,85.937,25.268,-45.594,0,0,0,
,-0.12,0.437,0.924,210.449,89.721,-25.147,0,0,0,
,-0.109,0.497,0.922,387.085,218.017,3.723,0,0,0,
,-0.005,0.641,0.953,484.924,297.668,86.059,0,0,0,
,0.159,0.785,0.902,441.101,304.687,81.298,0,0,0,
,0.394,0.795,0.951,375.61,-1.404,219.36,0,0,0,
,0.495,0.784,1.16,453.369,-528.992,346.069,0,0,0,
,0.046,0.851,1.211,-343.384,-690.247,761.596,0,0,0,
,-0.175,0.902,1.104,-492.127,-787.049,756.042,0,0,0,
,-0.288,0.769,1.02,-685.242,-698.182,855.224,0,0,0,
,-0.355,0.662,0.869,-1028.626,-541.321,952.636,0,0,0,
,-0.365,0.531,0.735,-1352.478,-324.036,973.144,0,0,0,
,-0.31,0.279,0.721,-1552.613,-141.907,970.642,0,0,0,
,-0.239,0.001,0.665,-1888.123,-29.541,944.213,0,0,0,
,-0.252,0.013,0.566,-2000,83.068,863.83,0,0,0,
,-0.334,0.188,0.546,-2000,264.77,698.852,0,0,0,
,-0.387,0.418,0.678,-2000,436.645,515.93,0,0,0,
,-0.319,0.48,0.791,-1706.177,482.971,287.17,0,0,0,
,-0.19,0.389,0.828,-1032.654,344.116,161.01,0,0,0,
,-0.11,0.693,1.053,-562.378,57.678,65.124,0,0,0,
,-0.166,0.298,1.015,-211.67,-329.041,-119.141,0,0,0,
,-0.346,0.359,0.936,-362.61,-481.629,-169.739,0,0,0,
,-0.403,0.372,0.937,-625.855,-552.613,-279.297,0,0,0,
,-0.452,0.629,0.715,-916.199,-483.399,-357.911,0,0,0,
,-0.423,0.816,0.46,-852.539,-388.977,-391.48,0,0,0,
,-0.37,0.964,0.288,-646.302,-280.03,-286.744,0,0,0,
,-0.375,0.895,0.224,-424.805,-251.709,-323.304,0,0,0,
,-0.38,0.9,0.225,-392.823,-171.57,-197.51,0,0,0,
,-0.345,0.934,0.272,-457.764,-117.249,-156.067,0,0,0,
,-0.334,0.969,0.26,-452.637,-125.672,-123.352,0,0,0,
,-0.383,0.817,0.311,-406.006,-137.94,-131.47,0,0,0,
,-0.388,0.868,0.256,-498.78,4.577,11.047,0,0,0,
,-0.432,1.005,0.143,-459.229,59.082,-117.554,0,0,0,
,-0.367,1.027,0.077,-83.008,65.002,-107.422,0,0,0,
,-0.311,0.941,0.148,176.208,18.127,-100.403,0,0,0,
,-0.322,0.889,0.213,253.54,3.479,-104.615,0,0,0,
,-0.331,0.866,0.279,313.598,-20.447,-92.835,0,0,0,
,-0.323,0.889,0.364,330.078,-57.251,-69.092,0,0,0,
,-0.328,0.904,0.425,366.699,-99.61,-82.947,0,0,0,
,-0.329,0.874,0.438,399.902,-134.766,-81.604,0,0,0,
,-0.317,0.937,0.438,389.16,-154.602,-94.3,0,0,0,
,-0.297,0.909,0.427,426.33,-172.974,-94.361,0,0,0,
,-0.28,0.886,0.431,484.558,-190.369,-109.864,0,0,0,
,-0.285,0.924,0.453,641.357,-196.106,-122.803,0,0,0,
,-0.256,0.936,0.444,938.11,-196.473,-138.245,0,0,0,
,-0.202,0.916,0.412,1156.799,-192.383,-163.941,0,0,0,
,-0.196,0.907,0.408,1235.412,-167.298,-193.909,0,0,0,
,-0.236,0.873,0.459,1210.998,-87.403,-210.083,0,0,0,
,-0.241,0.818,0.465,1143.005,24.78,-229.92,0,0,0,
,-0.197,0.775,0.419,1002.197,69.885,-289.978,0,0,0,
,-0.204,0.726,0.43,766.357,119.934,-307.74,0,0,0,
,-0.243,0.799,0.443,651.062,259.094,-381.836,0,0,0,
,-0.188,0.795,0.423,697.509,365.478,-360.535,0,0,0,
,-0.094,0.842,0.398,741.638,348.999,-283.753,0,0,0,
,-0.105,0.882,0.413,939.575,289.184,-242.92,0,0,0,
,-0.147,0.778,0.468,1024.597,208.74,-179.81,0,0,0,
,-0.224,0.75,0.615,839.599,161.804,-199.769,0,0,0,
,-0.308,0.718,0.764,683.227,143.249,-245.118,0,0,0,
,-0.348,0.682,0.869,585.632,124.267,-237.061,0,0,0,
,-0.403,0.615,0.859,433.715,137.329,-252.381,0,0,0,
,-0.437,0.651,0.807,378.723,161.682,-210.816,0,0,0,
,-0.411,0.665,0.771,461.853,141.54,-159.607,0,0,0,
,-0.39,0.6,0.769,475.769,67.749,-103.516,0,0,0,
,-0.404,0.477,0.761,506.408,-6.714,-78.675,0,0,0,
,-0.428,0.372,0.829,515.38,-37.781,-39.307,0,0,0,
,-0.418,0.299,0.787,390.747,9.216,15.625,0,0,0,
,-0.326,0.207,0.767,246.032,65.979,15.258,0,0,0,
,-0.177,0.284,0.803,157.104,47.485,85.632,0,0,0,
,-0.044,0.521,0.905,192.138,-65.125,70.678,0,0,0,
,-0.012,0.37,1.049,292.663,-173.34,36.865,0,0,0,
,-0.146,0.311,1.101,172.912,-180.237,19.653,0,0,0,
,-0.11,0.354,1.076,106.201,-120.301,0.61,0,0,0,
,-0.125,0.404,1.052,130.066,-97.352,-72.327,0,0,0,
,-0.1,0.392,1.009,237.426,-51.697,-134.522,0,0,0,
,-0.094,0.26,0.933,300.964,-4.09,-165.589,0,0,0,
,-0.048,0.097,0.788,237.06,30.639,-158.57,0,0,0,
,0.014,0.143,0.759,154.663,18.188,-164.368,0,0,0,
,0.056,0.265,0.841,176.086,-29.664,-153.992,0,0,0,
,0.05,0.341,0.949,273.132,-115.113,-151.856,0,0,0,
,-0.038,0.27,0.999,323.669,-75.44,-163.147,0,0,0,
,-0.015,0.251,0.991,276.123,-18.128,-169.922,0,0,0,
,-0.044,0.159,0.954,181.884,33.02,-145.874,0,0,0,
,-0.024,0.186,0.901,22.949,81.481,-107.666,0,0,0,
,-0.031,0.285,0.874,-147.156,75.805,-74.524,0,0,0,
,-0.043,0.4,0.874,-181.946,69.336,-55.909,0,0,0,
,-0.039,0.483,0.909,-77.088,51.33,-33.326,0,0,0,
,-0.047,0.436,0.943,51.452,32.592,-12.391,0,0,0,
,-0.08,0.334,0.955,89.233,37.963,-10.56,0,0,0,
,-0.122,0.294,0.946,27.771,60.852,-9.034,0,0,0,
,-0.138,0.304,0.936,-50.782,84.533,-18.372,0,0,0,
,-0.136,0.334,0.965,-74.463,102.356,-18.128,0,0,0,
,-0.096,0.395,0.949,-17.518,96.679,-5.921,0,0,0,
,-0.093,0.363,0.978,66.589,54.504,-8.057,0,0,0,
,-0.109,0.277,0.988,94.421,36.132,-7.752,0,0,0,
,-0.12,0.255,0.983,45.288,31.921,-8.484,0,0,0,
,-0.125,0.304,0.955,9.887,31.86,-11.414,0,0,0,
,-0.125,0.33,0.944,15.197,38.452,-13.489,0,0,0,
,-0.129,0.335,0.937,37.78,56.152,-11.963,0,0,0,
,-0.112,0.323,0.915,28.137,78.735,-5.188,0,0,0,
,-0.088,0.313,0.921,0.61,68.542,13.549,0,0,0,
,-0.088,0.313,0.932,-50.721,44.128,29.235,0,0,0,
,-0.086,0.375,0.94,-89.783,27.832,22.705,0,0,0,
,-0.065,0.395,0.918,-52.979,10.253,14.953,0,0,0,
,-0.067,0.383,0.898,-25.391,-10.315,11.413,0,0,0,
,-0.069,0.343,0.884,-0.916,-22.156,6.836,0,0,0,
,-0.1,0.359,0.893,-18.738,-27.1,2.441,0,0,0,
,-0.122,0.394,0.939,-7.569,-18.616,-1.954,0,0,0,
,-0.131,0.408,0.943,14.892,-8.24,-2.808,0,0,0,
,-0.145,0.365,0.956,43.151,4.699,-8.301,0,0,0,
,-0.128,0.332,0.939,22.033,16.296,0.854,0,0,0,
,-0.125,0.348,0.942,-2.93,12.329,5.065,0,0,0,
,-0.128,0.35,0.943,-0.672,0.549,2.685,0,0,0,
,-0.148,0.314,0.928,-0.611,3.967,1.403,0,0,0,
,-0.15,0.324,0.925,-11.414,29.846,-2.869,0,0,0,
,-0.129,0.324,0.901,-6.836,55.236,1.953,0,0,0,
,-0.103,0.351,0.902,20.568,62.744,12.451,0,0,0,
,-0.09,0.339,0.91,32.043,46.997,25.085,0,0,0,
,-0.103,0.334,0.919,22.094,45.166,34.301,0,0,0,
,-0.099,0.357,0.917,27.526,45.776,34.118,0,0,0,
,-0.106,0.348,0.918,48.706,48.034,33.264,0,0,0,
,-0.124,0.351,0.931,59.631,53.527,31.921,0,0,0,
,-0.112,0.334,0.926,59.021,47.973,25.085,0,0,0,
,-0.128,0.338,0.939,55.847,37.902,19.714,0,0,0,
,-0.135,0.326,0.935,43.335,37.414,13.488,0,0,0,
,-0.159,0.304,0.937,30.151,38.147,8.361,0,0,0,
,-0.159,0.315,0.934,7.934,54.016,3.601,0,0,0,
,-0.143,0.329,0.926,5.31,53.772,-2.991,0,0,0,
,-0.144,0.322,0.919,5.188,54.931,-1.709,0,0,0,
,-0.139,0.312,0.924,11.291,61.523,2.929,0,0,0,
,-0.117,0.317,0.945,13.366,73.059,6.103,0,0,0,
,-0.108,0.336,0.923,-11.17,47.363,8.178,0,0,0,
,-0.104,0.334,0.912,-8.851,50.415,11.657,0,0,0,
,-0.117,0.338,0.908,6.774,43.212,6.469,0,0,0,
,-0.14,0.296,0.926,-19.043,59.265,0.976,0,0,0,
,-0.12,0.334,0.925,-45.411,78.857,-3.479,0,0,0,
,-0.106,0.333,0.907,1.159,53.833,-9.461,0,0,0,
,-0.125,0.334,0.924,1.831,55.053,-12.146,0,0,0,
,-0.104,0.342,0.94,-5.005,68.359,-17.029,0,0,0,
,-0.085,0.356,0.942,-2.015,67.199,-20.935,0,0,0,
,-0.068,0.357,0.944,4.638,48.767,-17.884,0,0,0,
,-0.078,0.344,0.935,7.324,33.691,-9.827,0,0,0,
,-0.105,0.346,0.928,-0.733,23.376,-11.841,0,0,0,
,-0.105,0.341,0.935,7.995,26.184,-12.574,0,0,0,
,-0.082,0.346,0.952,8.3,33.325,-13.611,0,0,0,
,-0.046,0.346,0.958,8.606,19.043,-16.419,0,0,0,
,-0.047,0.328,0.952,2.685,6.164,-18.25,0,0,0,
,-0.121,0.279,0.87,-39.795,7.446,-37.598,0,0,0,
,-0.139,0.276,0.872,-54.383,38.879,-49.744,0,0,0,
,-0.082,0.357,0.917,-43.946,74.768,-60.73,0,0,0,
,-0.03,0.37,0.922,-13.672,64.88,-67.017,0,0,0,
,-0.043,0.35,0.909,-6.531,48.828,-60.364,0,0,0,
,-0.039,0.334,0.911,-10.315,58.105,-43.335,0,0,0,
,-0.013,0.368,0.922,-8.179,84.167,-24.537,0,0,0,
,0.048,0.412,0.945,14.404,106.811,-20.63,0,0,0,
,0.159,0.414,0.936,68.115,118.591,-13.367,0,0,0,
,0.224,0.401,0.963,111.389,95.52,-7.813,0,0,0,
,0.25,0.357,0.993,141.601,84.594,1.892,0,0,0,
,0.234,0.315,1.023,153.686,75.683,7.507,0,0,0,
,0.181,0.428,1.203,142.883,15.808,-2.32,0,0,0,
,0.139,0.384,1.232,12.39,-15.076,10.315,0,0,0,
,0.008,0.347,1.035,-161.683,-37.781,19.531,0,0,0,
,-0.105,0.397,0.897,-201.355,-39.307,38.818,0,0,0,
,-0.203,0.351,0.808,-153.626,-39.917,36.193,0,0,0,
,-0.312,0.305,0.762,-70.435,-21.851,-0.916,0,0,0,
,-0.396,0.275,0.747,29.052,26.062,-32.532,0,0,0,
,-0.433,0.221,0.742,103.393,68.237,-52.124,0,0,0,
,-0.43,0.154,0.721,100.463,90.515,-67.627,0,0,0,
,-0.423,0.121,0.686,35.461,80.261,-61.341,0,0,0,
,-0.375,0.157,0.718,-58.228,68.603,-48.035,0,0,0,
,-0.294,0.305,0.839,-88.807,79.406,-29.969,0,0,0,
,-0.083,0.415,0.919,146.179,-42.969,16.113,0,0,0,
,-0.117,0.318,0.89,142.151,-55.298,24.292,0,0,0,
,-0.141,0.232,0.879,99.182,-48.34,12.085,0,0,0,
,-0.104,0.311,0.92,82.336,14.587,-11.17,0,0,0,
,-0.001,0.329,0.97,156.494,41.076,-32.959,0,0,0,
,0.036,0.196,0.941,162.231,14.221,-76.6,0,0,0,
,0.042,0.196,0.904,64.025,30.7,-75.379,0,0,0,
,0.046,0.209,0.881,5.432,29.296,-81.421,0,0,0,
,0.054,0.255,0.979,-3.418,77.453,-78.125,0,0,0,
,0.2,0.401,1.086,26.611,170.959,-75.806,0,0,0,
,0.312,0.402,1.068,74.829,155.822,-74.707,0,0,0,
,0.175,0.336,1.016,58.41,28.198,-12.635,0,0,0,
,0.131,0.288,1.014,100.586,63.171,-15.564,0,0,0,
,0.179,0.34,1.036,150.817,79.528,-17.579,0,0,0,
,0.189,0.329,1.106,187.683,58.166,-28.199,0,0,0,
,0.179,0.317,1.146,146.118,57.739,-40.162,0,0,0,
,0.159,0.3,1.13,18.859,59.021,-22.95,0,0,0,
,0.128,0.347,1.003,-91.431,65.185,-4.761,0,0,0,
,0.024,0.304,0.901,-116.761,14.77,17.578,0,0,0,
,-0.067,0.298,0.835,-88.868,-15.259,17.761,0,0,0,
,-0.145,0.285,0.829,-6.348,-7.264,2.014,0,0,0,
,-0.207,0.245,0.825,63.72,1.037,-9.949,0,0,0,
,-0.249,0.186,0.784,113.83,-13.489,-0.977,0,0,0,
,-0.313,0.157,0.939,108.154,-71.534,-31.617,0,0,0,
,-0.405,0.074,0.866,-8.912,-11.231,-23.499,0,0,0,
,-0.366,0.101,0.859,-81.665,7.995,-20.02,0,0,0,
,-0.297,0.188,0.939,-145.02,9.582,-32.044,0,0,0,
,-0.183,0.341,1.013,-159.119,46.752,-25.025,0,0,0,
,-0.095,0.473,0.926,-72.754,32.592,-21.302,0,0,0,
,-0.192,0.442,0.811,24.414,-21.912,4.089,0,0,0,
,-0.088,0.381,0.838,233.581,-19.532,21.545,0,0,0,
,-0.086,0.149,0.904,255.615,-116.761,5.127,0,0,0,
,-0.092,0.05,0.917,135.559,-51.392,-5.066,0,0,0,
,-0.042,0.079,0.898,67.016,17.517,-35.767,0,0,0,
,0.108,0.215,0.967,72.448,138.672,-69.703,0,0,0,
,0.303,0.269,1.009,133.361,175.842,-86.731,0,0,0,
,0.405,0.251,1.034,121.643,155.883,-80.567,0,0,0,
,0.557,0.296,1.121,40.039,142.028,-60.73,0,0,0,
,0.624,0.412,1.169,-10.498,-15.137,18.798,0,0,0,
,0.174,0.151,1.033,34.545,-64.454,6.103,0,0,0,
,0.245,0.259,0.971,-30.152,111.511,-7.386,0,0,0,
,0.232,0.287,0.971,-3.113,88.256,-10.926,0,0,0,
,0.173,0.359,1.071,9.338,85.266,-3.174,0,0,0,
,0.123,0.368,1.056,4.699,69.763,-0.672,0,0,0,
,-0.007,0.294,1.012,0.61,-3.724,15.991,0,0,0,
,-0.068,0.327,1.023,-1.648,0.671,-12.818,0,0,0,
,-0.089,0.225,0.922,-1.221,37.048,-9.156,0,0,0,
,-0.068,0.222,0.941,-16.175,27.099,-3.663,0,0,0,
,-0.097,0.21,0.949,-24.476,40.466,-3.724,0,0,0,
,-0.073,0.248,0.992,-18.494,38.33,-9.705,0,0,0,
,-0.015,0.332,1.052,-0.733,66.833,-29.664,0,0,0,
,-0.053,0.243,0.876,59.387,74.89,-20.142,0,0,0,
,-0.002,0.209,0.988,54.199,28.747,9.094,0,0,0,
,-0.032,0.179,0.998,-6.226,23.498,7.202,0,0,0,
,0.034,0.181,0.991,-39.063,52.185,4.15,0,0,0,
,0.057,0.173,0.998,-65.857,18.432,1.281,0,0,0,
,0.09,0.227,0.974,-81.543,14.465,-2.503,0,0,0,
,0.099,0.255,0.972,-80.628,5.615,-13.977,0,0,0,
,0.094,0.268,0.994,-101.075,1.525,-23.682,0,0,0,
,0.029,0.189,0.908,-121.705,17.334,-24.781,0,0,0,
,0.053,0.23,0.788,-151.49,84.899,-30.701,0,0,0,
,0.039,0.253,0.774,-126.954,38.696,-7.142,0,0,0,
,-0.029,0.238,0.821,-26.246,-8.118,-16.358,0,0,0,
,-0.02,0.213,0.907,28.93,5.065,-45.105,0,0,0,
,0.019,0.209,0.868,22.399,14.953,-63.538,0,0,0,
,0.003,0.281,0.942,-5.86,-8.24,-66.468,0,0,0,
,0.023,0.238,0.956,0.732,-20.752,-57.679,0,0,0,
,0.043,0.265,0.956,-22.889,-50.538,-67.017,0,0,0,
,0.088,0.293,0.966,-15.442,-71.473,-48.951,0,0,0,
,0.099,0.287,0.984,-40.589,-130.433,-43.641,0,0,0,
,0.134,0.28,1.003,-41.81,-161.072,-30.518,0,0,0,
,0.177,0.315,1.042,-60.425,-196.778,-17.212,0,0,0,
,0.212,0.316,1.052,-62.745,-227.601,-15.809,0,0,0,
,0.214,0.306,1.046,-76.539,-244.873,7.995,0,0,0,
,0.192,0.244,0.947,-116.517,-264.222,42.236,0,0,0,
,0.055,0.216,0.874,-221.924,-384.034,62.377,0,0,0,
,-0.146,0.253,0.852,-327.637,-439.026,52.795,0,0,0,
,-0.286,0.334,0.795,-396.668,-413.208,28.93,0,0,0,
,-0.375,0.411,0.761,-380.249,-379.7,-2.869,0,0,0,
,-0.443,0.475,0.73,-272.156,-351.38,-39.124,0,0,0,
,-0.501,0.488,0.735,-134.339,-322.571,-39.246,0,0,0,
,-0.562,0.346,0.704,-24.231,-281.311,-44.068,0,0,0,
,-0.581,0.265,0.676,-41.932,-179.688,-34.363,0,0,0,
,-0.531,0.259,0.645,-86.304,-60.791,0.915,0,0,0,
,-0.429,0.36,0.729,-94.666,42.48,46.081,0,0,0,
,-0.302,0.464,0.831,-59.51,98.938,75.744,0,0,0,
,-0.206,0.479,0.908,39.245,62.744,86.303,0,0,0,
,-0.179,0.419,0.946,97.106,20.874,81.481,0,0,0,
,-0.175,0.356,0.945,102.905,25.512,67.565,0,0,0,
,-0.141,0.273,0.947,47.729,54.26,56.64,0,0,0,
,-0.09,0.287,0.948,-40.284,79.162,17.456,0,0,0,
,-0.041,0.346,0.955,-69.214,100.402,8.056,0,0,0,
,0.006,0.432,0.989,-12.696,105.224,-15.198,0,0,0,
,0.059,0.461,0.987,113.037,101.44,-34.485,0,0,0,
,0.058,0.387,0.984,193.603,71.655,-49.927,0,0,0,
,0.025,0.316,0.975,173.401,71.044,-60.181,0,0,0,
,0.011,0.274,0.965,104.248,83.862,-55.298,0,0,0,
,-0.004,0.285,0.967,10.009,90.21,-58.289,0,0,0,
,-0.031,0.349,1.005,-43.335,107.849,-64.759,0,0,0,
,-0.008,0.434,1.027,-40.162,124.572,-78.797,0,0,0,
,0,0.443,1.03,18.371,95.581,-94.3,0,0,0,
,-0.03,0.392,1.003,64.025,53.833,-97.901,0,0,0,
,-0.003,0.354,1.06,61.157,4.638,-81.604,0,0,0,
,-0.06,0.344,1.011,10.315,-21.79,-49.317,0,0,0,
,-0.069,0.349,0.98,-27.894,-36.683,-35.706,0,0,0,
,-0.119,0.366,0.946,-35.279,-38.147,-33.875,0,0,0,
,-0.137,0.352,0.909,-0.367,-9.522,-40.711,0,0,0,
,-0.13,0.343,0.908,35.888,13.183,-49.927,0,0,0,
,-0.111,0.283,0.925,51.757,31.005,-51.209,0,0,0,
,-0.095,0.275,0.912,19.531,46.569,-44.922,0,0,0,
,-0.069,0.3,0.892,-24.842,37.658,-30.945,0,0,0,
,-0.067,0.364,0.895,-24.231,12.207,-24.353,0,0,0,
,-0.091,0.39,0.925,23.498,-7.081,-20.691,0,0,0,
,-0.114,0.364,0.946,50.476,6.836,-24.476,0,0,0,
,-0.108,0.342,0.959,37.902,35.034,-28.138,0,0,0,
,-0.085,0.333,0.952,1.098,49.377,-28.504,0,0,0,
,-0.076,0.34,0.917,-30.457,36.071,-26.978,0,0,0,
,-0.084,0.358,0.908,-24.231,15.258,-25.513,0,0,0,
,-0.092,0.395,0.912,13.427,3.479,-21.729,0,0,0,
,-0.096,0.365,0.928,52.002,-1.587,-23.621,0,0,0,
,-0.103,0.333,0.94,41.565,25.512,-20.386,0,0,0,
,-0.073,0.338,0.928,8.972,48.217,-17.395,0,0,0,
,-0.071,0.333,0.906,-11.353,39.672,-16.48,0,0,0,
,-0.075,0.34,0.895,-10.254,32.531,-15.748,0,0,0,
,-0.066,0.37,0.903,19.531,22.461,-16.053,0,0,0,
,-0.081,0.344,0.946,57.8,-1.038,-18.067,0,0,0,
,-0.105,0.34,0.967,46.508,26.001,-32.654,0,0,0,
,-0.068,0.355,0.951,41.381,41.259,-35.95,0,0,0,
,-0.074,0.369,0.948,56.518,24.78,-33.509,0,0,0,
,-0.086,0.352,0.93,74.34,19.653,-33.02,0,0,0,
,-0.08,0.326,0.912,72.265,7.873,-29.725,0,0,0,
,-0.081,0.307,0.905,61.34,3.112,-15.259,0,0,0,
,-0.065,0.3,0.916,34.729,-0.916,-5.249,0,0,0,
,-0.067,0.333,0.928,14.465,-10.315,-6.836,0,0,0,
,-0.081,0.349,0.926,24.231,-15.564,-12.879,0,0,0,
,-0.096,0.351,0.94,35.4,-5.921,-14.466,0,0,0,
,-0.089,0.347,0.939,43.335,3.356,-15.625,0,0,0,
,-0.077,0.332,0.936,13.061,9.887,-6.653,0,0,0,
,-0.069,0.342,0.94,43.029,6.836,-5.555,0,0,0,
,-0.074,0.33,0.934,64.636,2.502,-10.437,0,0,0,
,-0.079,0.307,0.921,67.688,1.159,-14.649,0,0,0,
,-0.097,0.293,0.92,56.091,-1.648,-15.076,0,0,0,
,-0.106,0.279,0.927,28.442,4.211,-14.771,0,0,0,
,-0.1,0.295,0.943,-0.916,12.39,-13.367,0,0,0,
,-0.095,0.322,0.945,1.648,12.573,-20.264,0,0,0,
,-0.086,0.313,0.938,18.432,8.972,-23.56,0,0,0,
,-0.086,0.3,0.937,9.094,5.554,-23.499,0,0,0,
,-0.078,0.318,0.945,-1.77,2.807,-22.95,0,0,0,
,-0.063,0.317,0.941,-4.212,-9.339,-20.813,0,0,0,
,-0.063,0.344,0.931,-2.442,-19.288,-15.686,0,0,0,
,-0.053,0.351,0.933,18.737,-28.504,-6.714,0,0,0,
,-0.07,0.33,0.947,27.893,-45.838,-5.249,0,0,0,
,-0.101,0.306,0.93,18.005,-31.311,-6.165,0,0,0,
,-0.127,0.286,0.929,-18.128,-9.644,-15.503,0,0,0,
,-0.137,0.326,0.913,-38.819,18.371,-24.72,0,0,0,
,-0.105,0.281,0.908,16.967,35.4,-50.049,0,0,0,
,-0.075,0.307,0.938,44.067,22.949,-48.401,0,0,0,
,-0.061,0.303,0.986,43.335,-11.536,-47.73,0,0,0,
,-0.092,0.308,0.98,28.869,-26.062,-43.763,0,0,0,
,-0.11,0.303,0.953,16.479,-18.006,-38.636,0,0,0,
,-0.119,0.303,0.928,-0.977,-0.367,-30.457,0,0,0,
,-0.102,0.324,0.93,3.051,19.104,-26.673,0,0,0,
,-0.103,0.311,0.961,5.188,18.127,-26.123,0,0,0,
,-0.1,0.307,0.962,-3.602,23.132,-27.161,0,0,0,
,-0.085,0.318,0.948,-16.968,29.296,-20.691,0,0,0,
,-0.088,0.332,0.946,-17.701,15.136,-18.006,0,0,0,
,-0.098,0.317,0.929,-16.48,25.695,-14.954,0,0,0,
,-0.087,0.313,0.924,-11.17,29.48,-13.245,0,0,0,
,-0.098,0.31,0.93,-14.039,28.137,-15.076,0,0,0,
,-0.091,0.314,0.937,-6.226,27.099,-16.297,0,0,0,
,-0.095,0.318,0.934,0.976,20.813,-17.456,0,0,0,
,-0.107,0.333,0.936,5.127,20.996,-18.433,0,0,0,
,-0.097,0.326,0.94,8.178,27.771,-16.968,0,0,0,
,-0.093,0.324,0.948,7.629,30.761,-13.001,0,0,0,
,-0.092,0.317,0.942,3.662,29.846,-11.597,0,0,0,
,-0.107,0.31,0.941,-0.916,34.423,-13.977,0,0,0,
,-0.112,0.302,0.943,-7.447,37.231,-17.212,0,0,0,
,-0.128,0.301,0.944,-21.058,35.217,-19.898,0,0,0,
,-0.136,0.303,0.934,-31.434,43.579,-20.935,0,0,0,
,-0.138,0.325,0.942,-29.48,39.917,-22.767,0,0,0,
,-0.144,0.34,0.945,-15.625,42.236,-18.982,0,0,0,
,-0.162,0.348,0.918,-0.55,46.325,-11.048,0,0,0,
,-0.188,0.341,0.935,46.569,40.71,-7.325,0,0,0,
,-0.19,0.306,0.949,44.311,53.283,-4.09,0,0,0,
,-0.188,0.319,0.937,35.827,57.8,-5.127,0,0,0,
,-0.187,0.302,0.918,37.048,35.522,-6.104,0,0,0,
,-0.207,0.276,0.897,29.296,18.127,-8.667,0,0,0,
,-0.218,0.271,0.872,19.775,21.85,-18.372,0,0,0,
,-0.217,0.232,0.848,18.92,30.395,-31.617,0,0,0,
,-0.207,0.233,0.886,17.15,62.133,-53.833,0,0,0,
,-0.078,0.346,0.947,42.114,126.587,-70.801,0,0,0,
,0.009,0.388,0.994,91.857,105.041,-75.257,0,0,0,
,0.07,0.385,1.012,92.163,99.731,-62.561,0,0,0,
,0.126,0.37,0.99,69.274,71.838,-37.049,0,0,0,
,0.139,0.333,0.971,22.949,42.602,-23.316,0,0,0,
,0.154,0.329,0.949,-6.226,37.658,-18.189,0,0,0,
,0.192,0.345,0.972,8.483,59.082,-18.372,0,0,0,
,0.277,0.363,0.99,47.912,79.895,-18.738,0,0,0,
,0.268,0.328,0.974,84.533,87.951,-18.189,0,0,0,
,0.25,0.299,0.943,93.627,84.106,-6.897,0,0,0,
,0.259,0.312,0.945,101.013,69.213,8.239,0,0,0,
,0.233,0.318,0.958,115.783,62.927,29.296,0,0,0,
,0.183,0.278,0.999,94.055,43.151,36.193,0,0,0,
,0.126,0.255,1.063,37.719,43.029,27.465,0,0,0,
,0.089,0.242,1.093,-102.295,49.316,3.418,0,0,0,
,-0.012,0.291,0.993,-205.567,59.265,-3.54,0,0,0,
,-0.063,0.372,0.946,-199.097,46.203,-9.034,0,0,0,
,-0.149,0.341,0.917,-156.067,10.681,-18.128,0,0,0,
,-0.226,0.316,0.88,-136.597,12.085,-28.87,0,0,0,
,-0.272,0.311,0.833,-115.967,18.554,-28.87,0,0,0,
,-0.337,0.306,0.806,-76.905,13.122,-25.757,0,0,0,
,-0.41,0.292,0.793,-28.321,2.441,-27.161,0,0,0,
,-0.481,0.253,0.778,-0.428,-16.175,-44.068,0,0,0,
,-0.508,0.23,0.817,-1.221,19.043,-42.786,0,0,0,
,-0.439,0.223,0.862,-42.115,86.608,-40.162,0,0,0,
,-0.311,0.312,0.917,-84.595,135.498,-34.363,0,0,0,
,-0.164,0.439,0.983,-67.688,131.713,-28.626,0,0,0,
,-0.021,0.45,0.993,-0.428,67.749,-0.794,0,0,0,
,-0.136,0.399,0.932,-2.625,-9.034,-3.54,0,0,0,
,-0.037,0.329,0.863,11.901,128.845,-0.55,0,0,0,
,0.041,0.298,0.836,4.211,75.927,-14.954,0,0,0,
,0.05,0.318,0.917,24.047,96.801,-40.345,0,0,0,
,0.166,0.378,0.973,79.589,141.113,-70.496,0,0,0,
,0.247,0.356,0.931,145.08,99.548,-103.577,0,0,0,
,0.215,0.264,0.925,156.067,66.833,-107.117,0,0,0,
,0.257,0.226,0.9,76.049,81.054,-95.581,0,0,0,
,0.287,0.27,0.954,-9.4,83.435,-85.328,0,0,0,
,0.387,0.394,1.034,-32.044,81.909,-63.599,0,0,0,
,0.41,0.449,1.077,43.945,8.606,-52.674,0,0,0,
,0.239,0.369,1.004,101.501,6.53,-37.232,0,0,0,
,0.21,0.337,0.953,124.572,36.438,-29.664,0,0,0,
,0.143,0.307,0.976,153.015,3.112,-32.044,0,0,0,
,0.094,0.306,1.035,161.499,15.93,-45.96,0,0,0,
,0.114,0.326,1.142,111.755,34.301,-53.65,0,0,0,
,0.113,0.361,1.082,-13.977,59.021,-39.185,0,0,0,
,0.09,0.414,0.987,-54.932,27.587,-7.935,0,0,0,
,0.009,0.431,1.015,-48.34,-64.087,5.249,0,0,0,
,-0.13,0.311,0.87,-16.297,-48.035,2.868,0,0,0,
,-0.177,0.213,0.91,-29.969,-44.678,-32.837,0,0,0,
,-0.237,0.228,0.855,-122.986,-23.987,-12.085,0,0,0,
,-0.298,0.231,0.773,-133.545,31.799,-30.396,0,0,0,
,-0.333,0.261,0.773,-72.083,22.827,-42.115,0,0,0,
,-0.372,0.249,0.756,10.315,2.685,-54.261,0,0,0,
,-0.298,0.221,0.884,25.146,33.752,-48.34,0,0,0,
,-0.133,0.335,0.963,-68.36,73.242,-28.626,0,0,0,
,-0.018,0.461,0.89,-60.364,47.912,-12.269,0,0,0,
,-0.077,0.449,0.843,-15.076,35.156,-1.77,0,0,0,
,0.05,0.444,0.817,114.318,70.861,8.544,0,0,0,
,0.061,0.326,0.86,209.106,-8.545,-11.719,0,0,0,
,0.048,0.23,0.908,216.613,41.137,-24.842,0,0,0,
,0.124,0.168,0.933,190.734,104.065,-57.496,0,0,0,
,0.212,0.201,0.969,163.086,137.634,-79.468,0,0,0,
,0.258,0.251,1.029,151.428,124.206,-85.694,0,0,0,
,0.37,0.286,1.135,149.78,100.891,-79.712,0,0,0,
,0.27,0.295,1.203,86.608,5.004,-54.261,0,0,0,
,0.149,0.226,1.057,41.137,64.148,-32.044,0,0,0,
,0.077,0.195,0.941,11.413,51.513,-34.363,0,0,0,
,0.004,0.176,0.919,-17.945,57.983,-44.617,0,0,0,
,0.009,0.219,0.943,-47.547,60.302,-44.19,0,0,0,
,0.003,0.311,0.99,-46.814,59.936,-40.223,0,0,0,
,0.042,0.366,0.997,-25.696,86.731,-34.546,0,0,0,
,0.093,0.393,0.967,23.193,78.918,-35.828,0,0,0,
,0.133,0.382,0.934,90.515,79.956,-37.903,0,0,0,
,0.131,0.278,0.906,117.859,63.11,-29.236,0,0,0,
,0.147,0.259,0.911,88.501,72.143,-20.142,0,0,0,
,0.114,0.225,0.982,100.952,31.921,-17.151,0,0,0,
,0.114,0.192,1.016,36.132,40.649,-22.706,0,0,0,
,0.088,0.23,1.066,-42.298,35.156,-33.081,0,0,0,
,0.119,0.36,1.04,-66.651,47.241,-35.584,0,0,0,
,0.127,0.406,0.988,-13.001,44.128,-31.8,0,0,0,
,0.129,0.399,0.957,50.659,27.954,-20.081,0,0,0,
,0.092,0.282,0.908,113.952,8.85,-16.053,0,0,0,
,0.054,0.168,0.899,99.426,-6.409,-8.057,0,0,0,
,0.079,0.209,0.855,69.213,4.272,4.699,0,0,0,
,0.027,0.163,0.903,26.916,0.61,-13.001,0,0,0,
,0.073,0.248,0.894,5.127,22.216,-5.372,0,0,0,
,0.06,0.256,1.028,8.056,-5.982,-13.855,0,0,0,
,0.078,0.306,0.939,31.738,-7.63,-7.935,0,0,0,
,0.024,0.233,0.934,57.373,-5.921,-9.034,0,0,0,
,0.011,0.168,0.935,15.869,10.131,3.173,0,0,0,
,-0.011,0.149,0.934,-40.467,29.907,1.281,0,0,0,
,-0.002,0.152,0.886,-91.492,52.185,-8.789,0,0,0,
,0.041,0.224,0.911,-93.445,34.912,-10.254,0,0,0,
,0.121,0.326,0.981,-49.5,42.236,-18.128,0,0,0,
,0.125,0.326,0.993,5.737,15.869,-24.17,0,0,0,
,0.109,0.273,0.958,14.892,19.897,-19.349,0,0,0,
,0.109,0.257,0.935,2.319,32.775,-16.907,0,0,0,
,0.127,0.253,0.945,-7.935,24.169,-11.536,0,0,0,
,0.177,0.297,0.952,-6.226,23.559,-8.24,0,0,0,
,0.168,0.273,0.998,13.61,3.54,-13.184,0,0,0,
,0.197,0.283,1.006,-12.94,15.502,-9.339,0,0,0,
,0.177,0.275,0.994,-26.978,-11.475,-5.433,0,0,0,
,0.144,0.294,0.979,-39.185,-19.165,-7.386,0,0,0,
,0.108,0.309,0.995,-22.278,-20.203,-10.804,0,0,0,
,0.08,0.309,0.938,-9.095,-46.265,-4.334,0,0,0,
,0.028,0.257,0.96,-6.836,-20.813,-6.104,0,0,0,
,-0.005,0.197,0.932,-18.067,-11.597,-9.034,0,0,0,
,-0.019,0.179,0.943,-65.918,-2.93,-9.217,0,0,0,
,0.004,0.233,0.945,-63.904,-0.061,-12.269,0,0,0,
,0.006,0.284,0.938,-40.467,-5.799,-20.997,0,0,0,
,0.035,0.31,0.972,-24.048,4.699,-13.184,0,0,0,
,0.048,0.307,0.999,-5.31,3.173,-8.789,0,0,0,
,0.079,0.306,0.963,-12.818,6.408,-5.677,0,0,0,
,0.092,0.31,0.966,-24.109,2.502,-0.794,0,0,0,
,0.102,0.302,0.936,-15.259,2.441,4.394,0,0,0,
,0.086,0.291,0.911,-24.353,4.821,5.737,0,0,0,
,0.078,0.29,0.901,-22.828,14.099,8.056,0,0,0,
,0.08,0.251,0.913,-27.71,17.028,3.723,0,0,0,
,0.082,0.25,0.9,-33.143,24.963,4.699,0,0,0,
,0.072,0.263,0.915,-24.842,10.925,-0.794,0,0,0,
,0.072,0.282,0.899,-25.025,20.141,-9.827,0,0,0,
,0.066,0.279,0.898,-16.114,8.789,-9.339,0,0,0,
,0.073,0.286,0.915,-10.804,-1.038,-6.897,0,0,0,
,0.061,0.279,0.934,-13.794,-2.503,-6.714,0,0,0,
,0.088,0.298,0.952,-4.334,-13.184,-8.606,0,0,0,
,0.055,0.27,0.965,13.122,-25.879,-16.663,0,0,0,
,0.086,0.288,0.97,-21.729,-9.4,-25.391,0,0,0,
,0.061,0.289,0.958,-44.495,-14.527,-21.973,0,0,0,
,0.047,0.298,0.942,-52.185,-4.456,-24.414,0,0,0,
,0.049,0.316,0.928,-49.988,-3.663,-22.889,0,0,0,
,0.044,0.312,0.909,-41.993,-6.714,-19.471,0,0,0,
,0.038,0.321,0.897,-26.551,-3.479,-11.719,0,0,0,
,0.018,0.309,0.91,-22.156,-8.362,-13.001,0,0,0,
,0.01,0.307,0.901,-11.048,-12.94,-11.536,0,0,0,
,0.012,0.321,0.955,2.624,-11.841,-30.274,0,0,0,
,0.042,0.32,0.973,4.028,-2.808,-20.386,0,0,0,
,0.049,0.309,0.975,-12.024,-7.691,-19.471,0,0,0,
,0.05,0.311,0.944,-22.95,-10.804,-15.686,0,0,0,
,0.045,0.321,0.926,-19.532,-8.728,-16.48,0,0,0,
,0.067,0.334,0.928,-1.587,-5.31,-18.128,0,0,0,
,0.064,0.323,0.932,8.239,-7.874,-16.846,0,0,0,
,0.075,0.308,0.933,13,-9.156,-14.222,0,0,0,
,0.083,0.303,0.938,6.591,-11.475,-13.733,0,0,0,
,0.078,0.3,0.929,-3.663,-19.288,-13.367,0,0,0,
,0.062,0.304,0.934,-11.231,-21.729,-13.367,0,0,0,
,0.05,0.31,0.934,-3.724,-19.288,-15.442,0,0,0,
,0.05,0.322,0.943,-1.831,-17.029,-16.175,0,0,0,
,0.069,0.321,0.953,-2.32,-19.471,-19.837,0,0,0,
,0.072,0.324,0.954,-5.188,-27.588,-17.884,0,0,0,
,0.062,0.318,0.951,-6.775,-35.767,-12.513,0,0,0,
,0.042,0.31,0.955,-7.325,-31.922,-14.039,0,0,0,
,0.046,0.284,0.942,-7.447,-12.696,-16.907,0,0,0,
,0.033,0.279,0.923,-24.231,-21.546,-19.898,0,0,0,
,-0.004,0.287,0.913,-38.941,-27.1,-25.391,0,0,0,
,-0.033,0.293,0.907,-45.533,-17.09,-28.504,0,0,0,
,-0.034,0.296,0.916,-49.195,-2.137,-26.612,0,0,0,
,-0.014,0.294,0.911,-48.035,0.366,-13.367,0,0,0,
,0.003,0.321,0.931,-55.664,-13.062,-2.869,0,0,0,
,0.011,0.356,0.953,-50.293,-23.072,-16.785,0,0,0,
,0.029,0.391,0.959,-27.588,-2.686,-32.654,0,0,0,
,0.059,0.395,0.948,17.883,4.455,-38.758,0,0,0,
,0.051,0.353,0.934,23.864,-6.592,-36.255,0,0,0,
,0.03,0.341,0.926,9.155,-6.348,-29.175,0,0,0,
,0.022,0.352,0.915,2.014,-6.409,-20.02,0,0,0,
,0.019,0.332,0.901,13.732,-9.766,-9.644,0,0,0,
,0.014,0.336,0.891,20.385,-20.691,-0.55,0,0,0,
,-0.001,0.334,0.876,44.494,-40.406,-8.545,0,0,0,
,-0.03,0.337,0.9,74.707,-49.012,-34.18,0,0,0,
,-0.032,0.338,0.912,111.999,-21.546,-44.19,0,0,0,
,-0.028,0.338,0.929,139.892,-10.437,-44.556,0,0,0,
,0.015,0.349,0.958,156.982,5.92,-42.054,0,0,0,
,0.035,0.322,0.979,158.996,-17.334,-32.105,0,0,0,
,0.011,0.267,0.984,136.596,-35.34,-27.894,0,0,0,
,0.015,0.263,0.958,87.463,-9.217,-30.762,0,0,0,
,0.022,0.26,0.944,72.509,-9.034,-31.434,0,0,0,
,0.02,0.308,0.935,69.274,7.629,-37.476,0,0,0,
,0.047,0.306,0.932,95.886,16.723,-40.711,0,0,0,
,0.042,0.275,0.941,93.322,13.488,-51.697,0,0,0,
,0.048,0.247,0.968,74.401,34.057,-56.153,0,0,0,
,0.095,0.241,0.968,39.245,40.405,-56.58,0,0,0,
,0.107,0.281,0.971,27.343,8.117,-58.045,0,0,0,
,0.096,0.3,0.999,44.067,1.586,-63.233,0,0,0,
,0.117,0.302,1.018,62.622,12.023,-65.247,0,0,0,
,0.139,0.277,1.005,57.067,14.465,-60.12,0,0,0,
,0.119,0.271,0.983,49.255,-26.368,-53.04,0,0,0,
,0.064,0.258,0.953,58.715,-49.439,-57.373,0,0,0,
,0.044,0.239,0.922,61.218,-46.692,-57.618,0,0,0,
,0.021,0.248,0.919,79.834,-54.749,-62.561,0,0,0,
,0.009,0.279,0.958,81.787,-28.748,-69.703,0,0,0,
,0.027,0.299,0.948,78.491,-15.809,-73.487,0,0,0,
,0.011,0.255,0.998,100.036,-43.396,-66.468,0,0,0,
,0.002,0.235,0.999,112.609,-34.79,-87.159,0,0,0,
,0.025,0.241,0.981,137.146,-52.735,-116.089,0,0,0,
,-0.072,0.268,0.941,331.604,-163.392,-272.034,0,0,0,
,0.089,-0.18,0.995,602.783,-166.932,-310.12,0,0,0,
,-0.136,-0.469,1.086,273.254,-191.407,-284.241,0,0,0,
,-0.02,0.049,1.018,-145.691,-35.584,-247.254,0,0,0,
,0.157,0.301,0.964,-83.13,2.319,-135.071,0,0,0,
,0.125,0.479,0.968,-17.884,-42.542,-52.124,0,0,0,
,0.131,0.501,0.951,17.944,-18.982,114.38,0,0,0,
,0.112,0.536,0.985,-27.527,-56.214,140.869,0,0,0,
,0.073,0.425,1.008,-42.542,-62.317,190.979,0,0,0,
,0.047,0.338,1.022,-60.242,-70.679,192.138,0,0,0,
,0.003,0.237,1.039,-81.482,-85.511,167.114,0,0,0,
,-0.025,0.175,0.993,-142.823,-76.233,140.747,0,0,0,
,-0.055,0.125,0.913,-211.609,-87.037,120.422,0,0,0,
,-0.079,0.23,0.863,-246.827,-90.332,97.351,0,0,0,
,-0.099,0.273,0.85,-196.412,-115.113,70.556,0,0,0,
,-0.13,0.249,0.866,-126.648,-131.592,47.729,0,0,0,
,-0.138,0.234,0.895,-89.356,-122.864,34.729,0,0,0,
,-0.126,0.212,0.924,-95.52,-109.009,33.203,0,0,0,
,-0.128,0.25,0.916,-123.108,-108.887,29.663,0,0,0,
,-0.144,0.295,0.865,-116.15,-104.248,38.879,0,0,0,
,-0.158,0.342,0.827,-64.331,-95.032,61.523,0,0,0,
,-0.185,0.304,0.858,-9.034,-101.624,85.266,0,0,0,
,-0.22,0.275,0.94,6.958,-70.252,91.735,0,0,0,
,-0.225,0.242,0.98,-25.391,24.292,84.167,0,0,0,
,-0.167,0.247,0.956,-72.083,100.219,58.166,0,0,0,
,-0.115,0.244,0.898,-90.76,123.291,31.799,0,0,0,
,-0.067,0.253,0.851,-62.378,129.455,27.404,0,0,0,
,-0.017,0.25,0.858,-21.973,101.318,23.071,0,0,0,
,-0.02,0.225,0.923,-6.165,59.204,7.385,0,0,0,
,-0.032,0.244,1.002,4.455,66.589,-17.823,0,0,0,
,-0.021,0.245,1.042,-12.452,97.045,-42.969,0,0,0,
,0.004,0.264,1.011,-31.495,118.469,-71.045,0,0,0,
,0.009,0.272,1.001,-33.448,120.91,-89.356,0,0,0,
,0.092,0.301,0.971,-18.738,136.596,-46.387,0,0,0,
,0.068,0.283,1.031,1.037,37.902,-36.499,0,0,0,
,0.026,0.315,1.063,-59.937,0.183,-18.067,0,0,0,
,0.011,0.351,1.069,-55.726,-6.958,-26.185,0,0,0,
,-0.001,0.315,1.016,-30.701,-17.151,-28.138,0,0,0,
,-0.026,0.283,0.977,-9.766,-25.818,-38.819,0,0,0,
,-0.046,0.296,0.982,0.61,-16.114,-38.819,0,0,0,
,-0.047,0.312,0.963,13.732,-0.916,-41.993,0,0,0,
,-0.029,0.309,0.927,22.766,-12.146,-30.03,0,0,0,
,-0.044,0.319,0.957,16.296,-34.241,-20.203,0,0,0,
,-0.06,0.31,0.951,-2.137,-15.992,-11.597,0,0,0,
,-0.059,0.325,0.927,-19.532,-0.55,-3.479,0,0,0,
,-0.061,0.321,0.937,5.676,-20.447,7.446,0,0,0,
,-0.091,0.268,0.946,-11.475,-7.264,4.028,0,0,0,
,-0.073,0.291,0.925,-31.189,16.906,4.882,0,0,0,
,-0.059,0.288,0.921,-20.386,0.671,-13.855,0,0,0,
,-0.069,0.275,0.917,-4.395,-12.269,-30.213,0,0,0,
,-0.07,0.264,0.91,10.253,-9.156,-42.237,0,0,0,
,-0.081,0.261,0.917,12.634,0.488,-56.702,0,0,0,
,-0.079,0.273,0.938,14.77,33.02,-70.862,0,0,0,
,-0.069,0.259,0.937,-3.174,57.8,-75.44,0,0,0,
,-0.049,0.277,0.933,-19.41,86.425,-75.684,0,0,0,
,-0.012,0.286,0.893,-46.875,100.219,-38.88,0,0,0,
,-0.01,0.313,0.949,-20.447,43.64,-29.664,0,0,0,
,-0.023,0.337,0.995,-38.88,39.245,-12.94,0,0,0,
,-0.007,0.346,1.011,-17.762,26.916,-21.302,0,0,0,
,-0.02,0.314,1.002,-7.569,-10.01,-19.349,0,0,0,
,-0.062,0.287,0.977,-14.588,-17.518,-24.781,0,0,0,
,-0.05,0.296,0.936,-35.035,3.601,-25.33,0,0,0,
,-0.027,0.329,0.937,-24.476,-4.761,-24.414,0,0,0,
,-0.022,0.357,0.955,0,-7.386,-21.241,0,0,0,
,-0.011,0.349,0.956,31.005,-8.851,-21.058,0,0,0,
,-0.028,0.326,0.94,39.001,-20.203,-19.349,0,0,0,
,-0.049,0.305,0.933,31.738,-6.958,-10.987,0,0,0,
,-0.05,0.284,0.936,9.216,3.784,-10.865,0,0,0,
,-0.07,0.273,0.93,-22.706,12.878,-12.879,0,0,0,
,-0.057,0.321,0.92,-18.128,37.536,-17.579,0,0,0,
,-0.033,0.335,0.945,41.259,19.958,-20.63,0,0,0,
,-0.061,0.281,0.968,55.481,6.347,-27.222,0,0,0,
,-0.063,0.261,0.948,11.84,26.367,-25.513,0,0,0,
,-0.048,0.29,0.928,-15.32,17.883,-19.104,0,0,0,
,-0.057,0.312,0.942,-18.677,2.807,-21.668,0,0,0,
,-0.052,0.34,0.954,6.958,10.131,-22.95,0,0,0,
,-0.054,0.328,0.946,37.536,1.342,-25.818,0,0,0,
,-0.069,0.315,0.953,43.029,12.207,-22.522,0,0,0,
,-0.061,0.294,0.957,28.076,27.343,-14.161,0,0,0,
,-0.041,0.306,0.954,2.075,28.32,-6.653,0,0,0,
,-0.025,0.313,0.943,-2.442,9.643,-0.55,0,0,0,
,-0.044,0.299,0.948,7.324,-7.386,-1.16,0,0,0,
,-0.054,0.295,0.942,2.502,-1.954,-5.372,0,0,0,
,-0.048,0.287,0.938,2.441,8.3,-11.658,0,0,0,
,-0.053,0.287,0.946,0.488,5.676,-17.64,0,0,0,
,-0.056,0.296,0.94,1.159,14.282,-21.668,0,0,0,
,-0.05,0.294,0.934,11.962,19.775,-23.316,0,0,0,
,-0.039,0.289,0.94,7.324,14.526,-19.593,0,0,0,
,-0.055,0.281,0.947,-14.832,8.911,-18.86,0,0,0,
,-0.075,0.283,0.944,-34.241,13.061,-20.569,0,0,0,
,-0.089,0.265,0.925,-44.861,20.69,-20.874,0,0,0,
,-0.107,0.27,0.932,-51.758,20.568,-21.302,0,0,0,
,-0.115,0.284,0.938,-58.777,28.198,-19.837,0,0,0,
,-0.12,0.311,0.948,-38.941,40.954,-22.217,0,0,0,
,-0.121,0.302,0.944,-15.198,36.987,-25.025,0,0,0,
,-0.141,0.29,0.937,-13.489,36.438,-25.391,0,0,0,
,-0.16,0.302,0.916,-29.236,41.87,-22.95,0,0,0,
,-0.162,0.339,0.94,-13.977,59.875,-23.133,0,0,0,
,-0.143,0.325,0.954,-2.747,69.213,-22.339,0,0,0,
,-0.13,0.322,0.958,-11.109,76.721,-23.316,0,0,0,
,-0.123,0.316,0.906,-10.987,62.255,-25.818,0,0,0,
,-0.145,0.288,0.896,19.104,52.246,-36.622,0,0,0,
,-0.139,0.259,0.921,20.324,80.505,-50.049,0,0,0,
,-0.071,0.332,0.96,10.864,121.399,-60.242,0,0,0,
,0.03,0.355,0.96,29.724,120.361,-67.505,0,0,0,
,0.025,0.377,0.968,37.963,104.736,-65.247,0,0,0,
,0.084,0.366,0.943,38.696,91.919,-46.387,0,0,0,
,0.104,0.323,0.907,7.446,53.466,-36.072,0,0,0,
,0.092,0.301,0.895,-38.392,46.447,-29.602,0,0,0,
,0.161,0.339,0.916,-52.918,80.139,-37.11,0,0,0,
,0.251,0.398,0.937,-11.048,92.59,-40.711,0,0,0,
,0.326,0.419,0.907,55.725,70.678,-41.321,0,0,0,
,0.313,0.37,0.944,97.412,31.189,-25.94,0,0,0,
,0.292,0.364,0.918,94.726,34.24,-10.132,0,0,0,
,0.256,0.363,0.89,117.736,19.409,3.418,0,0,0,
,0.194,0.323,0.903,144.043,11.779,10.742,0,0,0,
,0.195,0.327,0.972,164.55,28.442,10.498,0,0,0,
,0.162,0.288,1.049,148.193,10.864,-0.245,0,0,0,
,0.13,0.286,1.179,40.71,28.381,-9.827,0,0,0,
,0.062,0.294,1.051,-130.921,45.837,-19.959,0,0,0,
,-0.019,0.358,1.003,-212.342,27.71,-15.198,0,0,0,
,-0.116,0.41,0.963,-215.394,-3.907,-30.213,0,0,0,
,-0.22,0.41,0.923,-140.076,-10.743,-52.247,0,0,0,
,-0.289,0.336,0.905,-64.576,0.854,-72.022,0,0,0,
,-0.333,0.245,0.872,-50.171,21.301,-71.228,0,0,0,
,-0.336,0.176,0.834,-45.96,28.442,-74.769,0,0,0,
,-0.356,0.125,0.809,-49.866,4.211,-70.74,0,0,0,
,-0.331,0.163,0.865,-62.561,32.348,-71.412,0,0,0,
,-0.234,0.23,0.904,-61.158,66.65,-68.177,0,0,0,
,-0.107,0.339,0.958,-46.753,97.045,-57.373,0,0,0,
,-0.005,0.376,0.968,-27.1,66.528,-45.289,0,0,0,
,-0.011,0.333,0.962,-51.575,-5.127,-33.204,0,0,0,
,-0.04,0.318,0.953,-104.493,-31.006,-40.039,0,0,0,
,-0.061,0.296,0.918,-156.922,-35.828,-54.81,0,0,0,
,-0.053,0.265,0.862,-183.106,-11.78,-87.098,0,0,0,
,0.003,0.291,0.851,-152.832,21.118,-114.38,0,0,0,
,0.137,0.367,0.855,-69.092,50.17,-136.231,0,0,0,
,0.214,0.403,0.888,19.714,32.47,-140.809,0,0,0,
,0.243,0.407,0.933,30.029,47.119,-123.047,0,0,0,
,0.275,0.419,0.942,3.234,58.898,-87.586,0,0,0,
,0.328,0.447,0.968,-23.743,62.988,-51.575,0,0,0,
,0.324,0.393,0.949,-14.527,45.532,-27.222,0,0,0,
,0.302,0.338,0.917,-4.578,43.579,-7.569,0,0,0,
,0.252,0.311,0.885,32.287,42.053,1.22,0,0,0,
,0.241,0.327,0.9,68.664,44.921,-3.418,0,0,0,
,0.215,0.369,0.933,113.586,56.945,-6.043,0,0,0,
,0.228,0.432,0.972,159.851,62.866,-3.785,0,0,0,
,0.222,0.431,1.002,185.363,36.01,1.953,0,0,0,
,0.237,0.412,1.046,114.196,57.861,24.597,0,0,0,
,0.167,0.408,0.977,-8.423,66.406,44.555,0,0,0,
,0.115,0.434,0.921,-45.166,72.631,58.044,0,0,0,
,0.057,0.411,0.93,-18.067,64.697,53.039,0,0,0,
,-0.034,0.353,0.89,11.169,53.955,33.203,0,0,0,
,-0.14,0.302,0.865,30.822,47.485,10.253,0,0,0,
,-0.239,0.263,0.885,34.118,42.846,-9.4,0,0,0,
,-0.31,0.215,0.891,18.432,39.184,-24.048,0,0,0,
,-0.317,0.236,0.994,-7.691,-16.541,-40.467,0,0,0,
,-0.355,0.227,0.904,-26.612,-21.302,-56.885,0,0,0,
,-0.284,0.325,0.924,-16.236,-1.404,-60.608,0,0,0,
,-0.173,0.41,0.945,6.958,9.521,-50.538,0,0,0,
,-0.08,0.441,0.911,22.827,8.056,-17.395,0,0,0,
,-0.119,0.374,0.797,94.604,-47.669,-10.56,0,0,0,
,-0.108,0.263,0.829,95.581,1.648,-11.231,0,0,0,
,-0.024,0.236,0.798,99.914,26.855,-28.077,0,0,0,
,-0.02,0.182,0.788,86.425,37.231,-58.228,0,0,0,
,0.074,0.239,0.877,80.2,111.023,-79.651,0,0,0,
,0.265,0.368,0.98,97.778,145.935,-91.614,0,0,0,
,0.36,0.454,1.086,123.596,125.244,-81.788,0,0,0,
,0.39,0.44,1.11,102.661,105.896,-58.655,0,0,0,
,0.421,0.42,1.108,34.362,90.21,-21.912,0,0,0,
,0.386,0.311,1.005,-7.447,6.713,-5.677,0,0,0,
,0.177,0.173,0.892,-50.538,13.122,-7.203,0,0,0,
,0.256,0.266,0.83,-74.707,87.402,-0.184,0,0,0,
,0.301,0.381,0.877,34.057,55.847,-17.334,0,0,0,
,0.259,0.361,0.925,150.94,58.105,-17.701,0,0,0,
,0.219,0.338,0.975,179.565,58.776,-27.771,0,0,0,
,0.164,0.342,1.062,151.306,45.776,-30.335,0,0,0,
,0.229,0.458,1.051,21.667,135.009,4.394,0,0,0,
,0.215,0.462,0.994,-10.682,102.417,31.25,0,0,0,
,0.137,0.448,0.926,26.733,54.809,52.185,0,0,0,
,0.061,0.459,0.916,228.149,-90.271,101.684,0,0,0,
,-0.055,0.149,1.12,24.292,47.729,-39.673,0,0,0,
,0.078,0.43,0.881,108.337,68.786,104.004,0,0,0,
,-0.061,0.084,0.926,-12.085,63.781,-25.147,0,0,0,
,-0.058,0.272,0.849,-33.753,158.02,14.953,0,0,0,
,-0.116,0.205,0.887,6.958,3.112,7.69,0,0,0,
,-0.283,0.12,0.888,37.048,-24.17,5.004,0,0,0,
,-0.27,0.036,0.821,24.963,-75.562,7.69,0,0,0,
,-0.165,0.158,0.897,-58.35,-116.089,7.751,0,0,0,
,-0.09,0.258,0.754,-72.144,-112.671,-0.55,0,0,0,
,-0.094,0.217,0.885,85.388,-187.5,-41.138,0,0,0,
,-0.081,0.128,0.996,148.681,-127.137,-81.727,0,0,0,
,0.018,0.207,0.912,84.655,22.522,-106.69,0,0,0,
,0.227,0.381,0.832,51.818,75.744,-92.713,0,0,0,
,0.383,0.542,0.938,46.875,91.43,-61.829,0,0,0,
,0.505,0.54,1.035,76.355,135.864,-1.038,0,0,0,
,0.591,0.492,1,97.473,137.756,28.076,0,0,0,
,0.355,0.174,0.945,200.073,-15.87,21.667,0,0,0,
,0.174,0.098,1.041,150.207,37.17,-6.592,0,0,0,
,0.265,0.168,1.139,-0.855,123.657,-11.536,0,0,0,
,0.366,0.333,1.112,-114.808,131.591,-9.095,0,0,0,
,0.352,0.393,1.063,-155.213,74.89,15.014,0,0,0,
,0.289,0.384,1.038,-164.49,35.583,31.555,0,0,0,
,0.24,0.357,0.968,-180.542,39.917,50.17,0,0,0,
,0.206,0.343,0.842,-136.902,57.251,58.227,0,0,0,
,0.153,0.326,0.815,-60.303,44.311,52.185,0,0,0,
,0.088,0.208,0.658,12.817,28.137,69.274,0,0,0,
,0.016,0.211,1.056,70.19,-95.093,19.165,0,0,0,
,-0.033,0.202,1.059,-82.337,32.653,0.122,0,0,0,
,0.034,0.407,0.831,-82.032,1.77,46.752,0,0,0,
,-0.188,0.242,1.065,-9.766,-111.451,-78.431,0,0,0,
,-0.215,0.42,0.936,-37.964,124.572,-15.381,0,0,0,
,-0.084,0.298,0.824,50.354,10.681,-17.945,0,0,0,
,-0.269,0.039,1.03,72.448,-81.177,-65.796,0,0,0,
,-0.184,0.095,0.915,-140.809,118.103,-21.851,0,0,0,
,0.008,0.141,0.847,-151.062,32.47,-19.532,0,0,0,
,-0.021,0.253,0.944,-113.892,-66.834,-27.161,0,0,0,
,0.065,0.328,0.947,-91.98,-24.048,-48.523,0,0,0,
,0.123,0.419,0.986,-57.557,-23.011,-43.396,0,0,0,
,0.135,0.388,0.837,-3.968,-40.467,-38.086,0,0,0,
,0.115,0.344,0.916,7.934,-45.105,-28.748,0,0,0,
,0.112,0.297,0.906,-12.207,-39.002,-30.884,0,0,0,
,0.119,0.3,0.872,-49.805,-8.973,-21.058,0,0,0,
,0.1,0.346,0.857,-55.176,-12.452,-23.377,0,0,0,
,0.122,0.392,0.871,3.845,-10.01,-28.809,0,0,0,
,0.12,0.355,0.883,65.612,-35.584,-30.884,0,0,0,
,0.12,0.321,0.923,81.543,-50.415,-34.852,0,0,0,
,0.131,0.273,0.939,78.613,-43.702,-28.992,0,0,0,
,0.142,0.249,0.962,39.489,-54.444,-24.231,0,0,0,
,0.162,0.23,0.96,-12.33,-79.59,-16.541,0,0,0,
,0.16,0.228,0.954,-49.195,-101.258,-11.658,0,0,0,
,0.201,0.261,0.951,-69.153,-140.076,-1.831,0,0,0,
,0.198,0.286,0.968,-72.51,-178.345,3.479,0,0,0,
,0.19,0.285,0.99,-70.496,-167.359,1.586,0,0,0,
,0.206,0.277,0.944,-74.463,-166.687,8.85,0,0,0,
,0.183,0.241,0.933,-57.435,-224.976,13.183,0,0,0,
,0.116,0.182,0.918,-81.116,-256.104,13.916,0,0,0,
,0.053,0.201,0.896,-137.146,-277.588,5.249,0,0,0,
,-0.034,0.207,0.876,-173.584,-306.763,-39.185,0,0,0,
,-0.111,0.257,0.864,-185.059,-321.473,-92.347,0,0,0,
,-0.18,0.299,0.846,-119.873,-318.36,-137.085,0,0,0,
,-0.197,0.296,0.843,-11.536,-330.262,-184.449,0,0,0,
,-0.203,0.244,0.874,96.069,-356.873,-217.53,0,0,0,
,-0.214,0.207,0.888,184.204,-398.499,-261.292,0,0,0,
,-0.204,0.218,0.894,267.883,-447.205,-320.252,0,0,0,
,-0.227,0.229,0.915,384.277,-508.973,-380.066,0,0,0,
,-0.273,0.327,0.899,502.014,-539.429,-414.185,0,0,0,
,-0.352,0.18,0.888,605.163,-588.562,-513.794,0,0,0,
,-0.426,0.098,0.974,544.616,-508.851,-503.54,0,0,0,
,-0.412,0.259,1.026,386.474,-275.208,-516.419,0,0,0,
,-0.281,0.357,1.004,257.324,-131.165,-533.387,0,0,0,
,-0.208,0.33,0.889,173.828,-94.361,-497.925,0,0,0,
,-0.22,0.324,0.821,48.461,-8.301,-410.828,0,0,0,
,-0.165,0.341,0.86,-96.192,132.141,-308.106,0,0,0,
,-0.068,0.375,0.953,-191.712,239.013,-205.262,0,0,0,
,-0.012,0.399,1,-304.749,287.902,-110.779,0,0,0,
,0.018,0.369,1.014,-508.667,321.35,-64.515,0,0,0,
,0.043,0.328,1.007,-679.749,370.727,-15.564,0,0,0,
,0.129,0.225,1.075,-985.352,338.928,31.189,0,0,0,
,0.187,0.513,1.011,-1274.842,175.903,2.99,0,0,0,
,0.114,0.973,0.888,-961.731,41.626,-15.137,0,0,0,
,0.057,0.981,0.952,-230.103,-95.581,-33.997,0,0,0,
,0.013,0.468,1.044,183.471,-166.504,-31.8,0,0,0,
,-0.108,0.264,0.941,114.441,-157.654,-35.096,0,0,0,
,-0.094,0.286,0.879,-44.373,-134.766,-63.782,0,0,0,
,-0.073,0.378,0.95,33.264,-142.701,-111.573,0,0,0,
,-0.041,0.219,0.998,149.17,-202.271,-124.512,0,0,0,
,-0.162,0.161,1.049,78.064,-129.578,-176.27,0,0,0,
,-0.075,0.257,0.971,-36.988,-59.632,-176.636,0,0,0,
,-0.052,0.318,0.92,-53.162,-49.5,-180.115,0,0,0,
,-0.069,0.394,0.901,-13.916,-44.434,-159.79,0,0,0,
,-0.058,0.461,0.905,69.397,-49.012,-144.349,0,0,0,
,-0.067,0.454,0.94,135.559,-68.848,-144.349,0,0,0,
,-0.083,0.428,0.957,173.828,-72.022,-146.241,0,0,0,
,-0.096,0.41,0.944,175.537,-55.542,-149.476,0,0,0,
,-0.086,0.412,0.924,179.931,-26.185,-141.968,0,0,0,
,-0.066,0.424,0.908,187.194,-14.527,-145.935,0,0,0,
,-0.059,0.431,0.89,198.73,-2.686,-135.987,0,0,0,
,-0.04,0.466,0.897,235.29,22.705,-126.038,0,0,0,
,0.002,0.499,0.895,313.903,42.541,-99.488,0,0,0,
,0.029,0.526,0.884,372.131,55.236,-74.219,0,0,0,
,0.077,0.621,0.914,506.836,26.977,-47.73,0,0,0,
,0.109,0.646,0.962,810.18,-34.729,-30.396,0,0,0,
,0.105,0.546,1.009,1003.112,-93.018,-22.4,0,0,0,
,0.097,0.323,0.97,962.585,-153.199,24.047,0,0,0,
,0.095,0.215,1.045,683.166,-233.521,57.983,0,0,0,
,0.037,0.449,1.096,435.974,-223.511,146.301,0,0,0,
,0.026,0.457,1.057,315.673,-221.68,215.576,0,0,0,
,-0.032,0.399,0.988,222.595,-209.046,348.877,0,0,0,
,-0.173,0.406,0.838,154.419,-106.019,479.614,0,0,0,
,-0.247,0.364,0.757,171.386,-3.663,581.604,0,0,0,
,-0.28,0.296,0.84,146.362,54.382,689.575,0,0,0,
,-0.319,0.08,0.913,-17.334,138,655.517,0,0,0,
,-0.36,-0.188,0.814,-384.949,286.499,607.483,0,0,0,
,-0.374,-0.169,0.663,-869.812,457.946,567.871,0,0,0,
,-0.345,0.03,0.553,-1114.014,602.6,537.841,0,0,0,
,-0.277,0.246,0.485,-944.581,673.95,500.244,0,0,0,
,-0.188,0.385,0.587,-411.988,604.797,398.742,0,0,0,
,-0.061,0.341,0.773,42.785,467.285,310.485,0,0,0,
,-0.022,0.259,0.977,383.545,316.955,177.612,0,0,0,
,-0.012,0.156,1.117,545.532,241.211,94.116,0,0,0,
,0.004,0.092,1.163,533.63,220.886,56.457,0,0,0,
,0.037,0.052,1.199,446.167,207.092,47.119,0,0,0,
,0.081,0.021,1.187,321.716,161.438,40.893,0,0,0,
,0.081,0,1.177,123.596,82.031,6.347,0,0,0,
,0.035,0.054,1.106,-44.251,59.631,-12.574,0,0,0,
,0.013,0.148,1.064,-78.248,52.002,-29.786,0,0,0,
,0.023,0.235,1.072,-29.48,50.598,-31.861,0,0,0,
,0.036,0.247,1.067,28.442,40.405,-27.405,0,0,0,
,0.037,0.216,1.018,32.104,37.292,-2.015,0,0,0,
,0.024,0.191,0.974,-43.641,27.404,50.659,0,0,0,
,0.015,0.285,0.92,-122.437,50.231,65.795,0,0,0,
,0.025,0.315,0.924,-121.949,46.325,92.285,0,0,0,
,0.019,0.364,0.964,-56.275,44.311,85.327,0,0,0,
,0.026,0.309,1.011,37.17,36.01,82.336,0,0,0,
,0.031,0.219,1.009,33.874,30.395,41.503,0,0,0,
,0.036,0.134,0.952,-33.57,19.531,33.752,0,0,0,
,0.029,0.113,0.883,-88.196,-13.855,19.226,0,0,0,
,0.001,0.163,0.963,-150.208,-65.125,-3.602,0,0,0,
,-0.014,0.259,1.01,-113.099,-45.044,-40.101,0,0,0,
,0.006,0.264,1.011,-18.311,-40.955,-47.913,0,0,0,
,0.015,0.193,0.97,54.26,-58.228,-46.448,0,0,0,
,-0.01,0.117,0.936,62.133,-66.834,-48.279,0,0,0,
,-0.028,0.106,0.948,-14.649,-45.411,-31.983,0,0,0,
,-0.036,0.186,0.95,-65.125,-20.569,-30.762,0,0,0,
,-0.035,0.227,0.954,-69.153,-12.757,-57.007,0,0,0,
,-0.027,0.232,0.986,-46.509,-22.767,-73.792,0,0,0,
,-0.01,0.19,0.991,-1.404,-18.311,-77.82,0,0,0,
,-0.002,0.166,0.956,5.554,-31.678,-66.163,0,0,0,
,-0.025,0.164,0.955,-8.301,-47.425,-62.439,0,0,0,
,-0.057,0.202,0.992,-9.583,-30.518,-45.105,0,0,0,
,-0.063,0.228,0.996,-9.644,-1.587,-30.701,0,0,0,
,-0.057,0.255,0.973,-34.485,19.47,-35.279,0,0,0,
,-0.038,0.267,0.963,-1.343,31.372,-58.899,0,0,0,
,-0.016,0.216,0.95,20.568,23.803,-68.909,0,0,0,
,0.001,0.204,0.95,42.297,20.263,-60.303,0,0,0,
,0.026,0.183,0.944,59.265,20.996,-51.026,0,0,0,
,0,0.192,0.983,38.024,-12.085,-28.809,0,0,0,
,-0.006,0.201,1.005,-10.132,-7.447,-20.813,0,0,0,
,-0.023,0.233,0.98,-59.327,16.723,-14.893,0,0,0,
,-0.018,0.253,0.964,-69.214,25.146,-28.077,0,0,0,
,-0.005,0.232,0.959,-42.847,10.498,-26.062,0,0,0,
,-0.023,0.248,0.966,-19.165,5.737,-22.583,0,0,0,
,-0.031,0.239,0.968,-5.372,13.244,-20.691,0,0,0,
,-0.04,0.231,0.994,-3.968,19.897,-15.87,0,0,0,
,-0.041,0.211,0.998,-22.217,44.128,-4.7,0,0,0,
,-0.033,0.212,0.977,-51.087,57.861,7.69,0,0,0,
,-0.023,0.236,0.951,-57.679,51.757,9.521,0,0,0,
,-0.007,0.239,0.958,-55.542,37.902,-0.184,0,0,0,
,-0.013,0.246,0.96,-17.701,15.319,-0.611,0,0,0,
,-0.034,0.217,0.971,15.441,9.277,-3.479,0,0,0,
,-0.042,0.205,0.973,23.925,21.789,3.906,0,0,0,
,-0.035,0.219,0.98,23.437,35.278,9.399,0,0,0,
,-0.025,0.233,0.99,26.367,35.4,10.986,0,0,0,
,-0.016,0.24,0.984,29.48,34.362,8.361,0,0,0,
,-0.008,0.235,0.96,37.841,29.541,13.855,0,0,0,
,-0.015,0.222,0.946,38.94,12.878,20.874,0,0,0,
,-0.043,0.228,0.962,32.836,18.493,15.686,0,0,0,
,-0.035,0.242,0.97,31.677,47.119,21.423,0,0,0,
,-0.016,0.233,0.965,41.32,58.227,20.019,0,0,0,
,-0.006,0.223,0.966,45.227,56.091,20.019,0,0,0,
,0.029,0.226,0.948,46.875,58.715,31.189,0,0,0,
,0.012,0.228,0.942,16.479,42.48,17.089,0,0,0,
,0.013,0.22,0.939,12.878,25.756,9.887,0,0,0,
,0.013,0.232,0.955,12.023,17.456,-1.282,0,0,0,
,0.01,0.229,0.963,9.277,21.057,-4.273,0,0,0,
,0.015,0.243,0.964,9.46,27.099,-7.752,0,0,0,
,0.013,0.25,0.958,17.578,32.226,-13.184,0,0,0,
,0.013,0.251,0.956,29.602,38.391,-9.339,0,0,0,
,0.012,0.239,0.953,28.381,32.409,-21.058,0,0,0,
,-0.002,0.228,0.946,20.935,19.104,-20.447,0,0,0,
,-0.019,0.25,0.96,25.94,22.583,-24.353,0,0,0,
,-0.011,0.231,0.979,44.982,25.94,-28.077,0,0,0,
,-0.014,0.228,0.992,42.785,32.898,-24.292,0,0,0,
,-0.012,0.223,0.991,53.344,43.64,-23.072,0,0,0,
,0.001,0.202,0.997,39.184,36.865,-18.738,0,0,0,
,-0.012,0.209,0.995,18.249,18.31,-16.907,0,0,0,
,-0.043,0.207,0.982,5.432,8.117,-14.161,0,0,0,
,-0.068,0.224,0.977,-1.404,18.554,-9.156,0,0,0,
,-0.057,0.242,0.978,14.282,35.461,-8.728,0,0,0,
,-0.036,0.213,0.981,15.197,33.447,-5.555,0,0,0,
,-0.035,0.216,0.971,8.483,24.78,-4.822,0,0,0,
,-0.072,0.22,0.942,23.01,21.057,0.488,0,0,0,
,-0.074,0.217,0.962,31.311,37.475,1.648,0,0,0,
,-0.054,0.226,0.966,22.399,53.039,1.586,0,0,0,
,-0.039,0.204,0.956,7.324,38.208,-1.77,0,0,0,
,-0.035,0.189,0.944,-6.043,38.757,-9.156,0,0,0,
,0.064,0.239,1.005,39.245,75.988,-21.485,0,0,0,
,0.097,0.24,1.005,46.691,40.527,-11.719,0,0,0,
,0.09,0.238,1.004,32.104,2.197,-9.705,0,0,0,
,0.059,0.258,1.005,20.813,-11.292,-6.653,0,0,0,
,0.046,0.228,0.983,44.86,-4.944,-4.029,0,0,0,
,0.039,0.198,0.957,73.242,5.127,5.798,0,0,0,
,0.039,0.169,0.955,115.356,15.686,1.709,0,0,0,
,0.043,0.163,0.96,130.798,29.235,-7.508,0,0,0,
,0.052,0.172,0.995,130.737,43.64,-17.212,0,0,0,
,0.088,0.16,1.004,90.515,53.833,-3.907,0,0,0,
,0.133,0.199,1.007,42.541,51.94,-2.137,0,0,0,
,0.2,0.23,1.002,16.113,61.462,4.211,0,0,0,
,0.277,0.229,0.959,44.25,72.021,9.216,0,0,0,
,0.277,0.178,0.937,103.454,44.311,12.756,0,0,0,
,0.229,0.136,0.942,141.662,56.396,17.15,0,0,0,
,0.205,0.121,0.963,151.916,83.679,16.601,0,0,0,
,0.184,0.117,1.014,146.667,89.233,12.268,0,0,0,
,0.092,0.184,1.13,-31.8,2.624,2.014,0,0,0,
,0.084,0.225,1.139,-146.058,-36.194,-1.038,0,0,0,
,0.044,0.246,0.996,-219.239,-65.308,-2.625,0,0,0,
,-0.052,0.253,0.905,-196.106,-122.437,-7.691,0,0,0,
,-0.171,0.243,0.861,-118.592,-130.31,-31.189,0,0,0,
,-0.243,0.191,0.839,-58.533,-84.107,-33.448,0,0,0,
,-0.249,0.133,0.813,-49.256,-25.086,-35.218,0,0,0,
,-0.258,0.09,0.756,-65.613,-0.061,-26.612,0,0,0,
,-0.268,0.077,0.791,-100.953,-18.311,-31.861,0,0,0,
,-0.271,0.11,0.848,-110.535,-12.33,-39.673,0,0,0,
,-0.233,0.164,0.896,-80.079,15.319,-42.725,0,0,0,
,-0.163,0.231,0.941,-27.466,63.903,-44.861,0,0,0,
,-0.07,0.276,0.962,29.48,77.514,-33.57,0,0,0,
,-0.031,0.246,0.959,72.753,23.925,-25.879,0,0,0,
,-0.051,0.139,0.956,-55.42,-9.644,-27.222,0,0,0,
,-0.062,0.148,0.925,-116.883,5.859,-44.19,0,0,0,
,-0.037,0.226,0.984,-101.868,68.359,-53.284,0,0,0,
,0.08,0.329,1.035,-27.588,145.568,-49.439,0,0,0,
,0.201,0.348,1.078,78.674,133.667,-42.176,0,0,0,
,0.242,0.28,1.077,98.083,56.152,-32.41,0,0,0,
,0.195,0.222,1.052,51.269,0.915,-16.663,0,0,0,
,0.169,0.177,1.016,-12.269,1.709,-19.593,0,0,0,
,0.166,0.161,0.963,-33.57,20.507,-25.879,0,0,0,
,0.093,0.147,1.104,56.091,3.234,-4.029,0,0,0,
,0.045,0.154,1.059,-12.452,-28.748,3.601,0,0,0,
,0.007,0.186,1.034,-73.548,-36.194,10.559,0,0,0,
,-0.027,0.246,0.989,-86.426,-45.044,11.779,0,0,0,
,-0.089,0.225,0.922,-56.153,-66.346,10.559,0,0,0,
,-0.18,0.2,0.863,-30.884,-79.285,8.85,0,0,0,
,-0.249,0.181,0.823,-9.156,-58.716,9.643,0,0,0,
,-0.272,0.145,0.783,13.977,-28.809,9.887,0,0,0,
,-0.293,0.098,0.755,33.996,-39.429,3.662,0,0,0,
,-0.265,0.084,0.804,15.686,-19.715,-11.841,0,0,0,
,-0.197,0.136,0.853,0.671,38.024,-16.053,0,0,0,
,-0.114,0.206,0.924,10.864,68.054,-23.987,0,0,0,
,-0.069,0.198,0.902,36.193,46.569,-30.762,0,0,0,
,-0.062,0.186,0.935,51.696,23.071,-24.353,0,0,0,
,-0.039,0.122,0.916,51.269,38.391,-32.837,0,0,0,
,-0.011,0.088,0.89,33.996,53.039,-52.002,0,0,0,
,0.009,0.077,0.927,46.936,74.951,-64.881,0,0,0,
,0.416,0.298,1.174,126.953,118.225,-74.769,0,0,0,
,0.406,0.263,1.166,95.153,31.494,-57.618,0,0,0,
,0.368,0.24,1.12,50.72,11.047,-30.945,0,0,0,
,0.333,0.207,1.03,29.724,-10.071,-28.138,0,0,0,
,0.234,0.16,0.947,95.398,-40.467,-23.682,0,0,0,
,0.157,0.138,0.936,183.471,-10.376,-26.429,0,0,0,
,0.169,0.128,0.972,257.385,43.273,-27.1,0,0,0,
,0.163,0.1,0.993,265.014,37.17,-26.673,0,0,0,
,0.112,0.081,1.044,217.041,12.268,-22.461,0,0,0,
,0.141,0.092,1.108,90.026,66.04,-5.86,0,0,0,
,0.099,0.09,1.043,-2.564,16.906,12.817,0,0,0,
,0.025,0.136,1.018,-29.419,0.61,8.178,0,0,0,
,-0.074,0.069,0.991,76.232,-12.574,-2.93,0,0,0,
,-0.112,0.062,0.976,39.245,-9.583,-1.282,0,0,0,
,-0.123,0.07,0.952,-18.494,-9.705,0,0,0,0,
,-0.165,0.09,0.919,-73.731,-36.866,-9.339,0,0,0,
,-0.219,0.105,0.862,-85.572,-46.082,-17.884,0,0,0,
,-0.162,0.126,0.894,-85.45,-34.852,-14.039,0,0,0,
,-0.109,0.165,0.921,-67.261,-22.461,-16.907,0,0,0,
,-0.056,0.174,0.941,-42.603,-44.678,-19.288,0,0,0,
,-0.02,0.171,1.005,-16.785,-55.054,-20.386,0,0,0,
,-0.007,0.136,0.995,8.483,-51.758,-22.767,0,0,0,
,-0.073,0.027,0.927,33.508,-98.877,-50.721,0,0,0,
,-0.067,-0.015,0.913,25.085,-12.207,-67.078,0,0,0,
,0.208,0.111,0.982,24.475,73.486,-85.328,0,0,0,
,0.254,0.166,1.026,12.085,77.392,-86.853,0,0,0,
,0.301,0.173,1.016,23.681,72.326,-75.135,0,0,0,
,0.307,0.168,1.016,37.719,42.175,-66.224,0,0,0,
,0.286,0.119,0.983,72.509,36.377,-52.674,0,0,0,
,0.224,0.088,1.007,99.792,41.381,-39.795,0,0,0,
,0.204,0.086,1.049,125.488,80.871,-31.311,0,0,0,
,0.194,0.121,1.091,126.953,87.951,-22.4,0,0,0,
,0.138,0.157,1.116,136.413,60.18,-11.292,0,0,0,
,0.089,0.149,1.127,144.47,33.386,3.54,0,0,0,
,0.079,0.142,1.192,122.436,31.189,27.648,0,0,0,
,0.128,0.101,1.133,25.39,60.485,40.832,0,0,0,
,0.005,-0.002,0.925,-124.878,-1.587,33.081,0,0,0,
,-0.007,0.011,0.947,-144.104,19.043,23.559,0,0,0,
,0.008,0.09,0.952,-139.649,35.034,3.601,0,0,0,
,-0.006,0.156,0.987,-110.962,18.432,-2.442,0,0,0,
,-0.042,0.188,0.965,-96.314,-4.7,-12.269,0,0,0,
,-0.201,0.065,0.787,-139.893,-73.426,2.319,0,0,0,
,-0.235,-0.009,0.818,-203.675,-90.699,-12.757,0,0,0,
,-0.187,0.098,0.855,-230.652,-23.072,-37.415,0,0,0,
,-0.036,0.291,0.964,-115.723,31.616,-51.514,0,0,0,
,0.047,0.251,0.763,93.139,26.794,-64.27,0,0,0,
,-0.101,0.093,0.809,224.426,-122.437,-66.712,0,0,0,
,-0.121,-0.076,0.762,192.321,-45.838,-76.905,0,0,0,
,-0.041,-0.062,0.926,36.804,3.662,-72.632,0,0,0,
,0.1,0.034,0.953,7.202,96.191,-100.464,0,0,0,
,0.296,0.257,1.188,14.16,175.964,-109.864,0,0,0,
,0.647,0.395,1.545,115.112,90.698,-121.521,0,0,0,
,0.614,0.189,1.457,-3.235,-95.765,-31.128,0,0,0,
,0.163,0.128,0.921,-75.928,-65.918,-41.504,0,0,0,
,0.162,0.034,0.837,-20.874,52.185,4.638,0,0,0,
,0.283,0.209,0.966,33.935,77.27,2.563,0,0,0,
,0.245,0.13,1.055,167.053,71.838,7.995,0,0,0,
,0.272,0.126,1.099,116.394,119.262,36.499,0,0,0,
,0.243,0.145,1.114,33.264,60.485,60.607,0,0,0,
,0.136,0.155,1.107,-13.428,23.864,58.776,0,0,0,
,0.075,0.148,0.977,4.638,50.598,48.95,0,0,0,
,0.061,0.152,0.958,61.523,34.362,56.884,0,0,0,
,0.026,0.083,0.984,121.46,20.141,48.217,0,0,0,
,0.002,0.023,0.947,81.176,50.964,42.968,0,0,0,
,-0.005,0.004,0.93,24.963,76.843,40.405,0,0,0,
,-0.013,0.027,0.938,-44.678,81.481,31.066,0,0,0,
,-0.035,0.095,0.998,-95.826,84.533,18.798,0,0,0,
,-0.014,0.18,1.02,-73.548,93.689,10.009,0,0,0,
,0.045,0.204,1.062,-6.348,76.11,19.714,0,0,0,
,0.082,0.18,1.034,63.171,18.066,64.697,0,0,0,
,0.045,0.125,1.08,17.7,-40.223,71.228,0,0,0,
,0.004,0.051,1.097,-94.971,-28.565,52.978,0,0,0,
,0.003,0.024,0.816,-207.337,3.479,-4.395,0,0,0,
,0.083,0.143,0.908,-165.955,40.466,-23.682,0,0,0,
,0.14,0.17,0.92,-64.698,-15.015,-39.246,0,0,0,
,0.124,0.215,0.981,-7.325,-30.03,-50.66,0,0,0,
,0.095,0.277,0.875,-31.678,9.704,0.366,0,0,0,
,0.114,0.291,0.954,-14.527,19.47,-1.77,0,0,0,
,0.092,0.246,0.931,51.33,0.854,4.699,0,0,0,
,0.038,0.157,0.905,99.304,-46.692,0.244,0,0,0,
,-0.051,0.063,0.848,105.468,-103.333,-5.31,0,0,0,
,-0.131,0.046,0.773,53.039,-116.333,-20.203,0,0,0,
,-0.105,0.039,0.865,21.667,-144.532,-6.348,0,0,0,
,-0.119,0.075,0.681,17.456,-188.782,-36.011,0,0,0,
,-0.106,0.227,0.884,13,-229.615,-70.618,0,0,0,
,-0.081,0.316,1.044,227.844,-130.066,-72.998,0,0,0,
,-0.042,0.069,1.022,364.196,-30.274,-103.699,0,0,0,
,-0.023,-0.115,0.964,148.071,12.878,-98.877,0,0,0,
,0.043,0.06,0.97,-106.568,55.419,-99.488,0,0,0,
,0.115,0.244,1.003,-157.776,55.542,-85.816,0,0,0,
,0.164,0.358,1.112,-72.449,21.362,-79.346,0,0,0,
,0.169,0.317,1.107,38.879,12.146,-65.491,0,0,0,
,0.149,0.217,1.094,63.171,-7.325,-56.458,0,0,0,
,0.121,0.153,1.064,52.673,-38.514,-44.312,0,0,0,
,0.047,0.12,1.079,70.983,-82.154,-65.003,0,0,0,
,0.008,0.043,1.051,59.204,-45.044,-66.102,0,0,0,
,0.034,0.109,1.038,7.446,-9.766,-66.712,0,0,0,
,0.046,0.129,1.023,-4.944,-12.391,-62.5,0,0,0,
,0.026,0.139,1.008,0.549,-14.1,-56.58,0,0,0,
,0.005,0.132,0.99,25.268,-10.682,-47.791,0,0,0,
,-0.014,0.1,0.961,29.235,-8.057,-40.528,0,0,0,
,0.011,0.085,0.974,-10.865,17.334,-32.898,0,0,0,
,0.057,0.179,1.019,-33.509,32.409,-31.25,0,0,0,
,0.095,0.233,1.026,58.288,23.071,-28.809,0,0,0,
,0.074,0.145,1.022,142.517,-11.902,-34.607,0,0,0,
,0.035,0.07,1.001,126.77,-12.146,-22.706,0,0,0,
,0.033,0.063,0.979,77.636,-9.888,-18.738,0,0,0,
,0.023,0.08,0.976,41.565,-21.18,-17.456,0,0,0,
,0.015,0.083,0.986,29.235,0.122,-17.151,0,0,0,
,0.046,0.094,0.993,27.16,15.564,-21.058,0,0,0,
,0.047,0.111,0.992,19.348,10.498,-33.692,0,0,0,
,0.047,0.118,0.987,36.499,5.127,-29.908,0,0,0,
,0.046,0.095,0.992,35.461,-12.452,-21.119,0,0,0,
,0.029,0.098,1.008,18.127,-14.649,-24.17,0,0,0,
,0.032,0.078,0.998,-1.282,-6.043,-29.419,0,0,0,
,0.031,0.078,0.987,-4.151,-2.564,-35.828,0,0,0,
,0.031,0.07,0.989,13.61,-0.55,-50.11,0,0,0,
,0.031,0.091,0.999,30.395,-3.602,-54.139,0,0,0,
,0.023,0.097,0.998,41.626,4.638,-58.472,0,0,0,
,0.027,0.089,1.01,17.089,8.422,-51.148,0,0,0,
,0.049,0.113,0.999,-5.982,10.437,-34.485,0,0,0,
,0.042,0.139,1.006,-6.47,-6.165,-36.011,0,0,0,
,0.03,0.128,0.985,37.109,-11.353,-39.307,0,0,0,
,0.01,0.088,0.98,59.692,-15.198,-40.894,0,0,0,
,-0.009,0.08,0.978,52.002,3.601,-49.378,0,0,0,
,0.002,0.083,0.948,59.875,3.173,-50.11,0,0,0,
,-0.003,0.099,0.975,58.105,-12.696,-42.481,0,0,0,
,0.006,0.109,0.985,55.969,-6.165,-43.274,0,0,0,
,0.024,0.13,0.991,68.908,-16.602,-45.533,0,0,0,
,0.012,0.139,0.959,101.806,-17.945,-45.777,0,0,0,
,-0.015,0.142,0.926,125.671,-18.799,-36.316,0,0,0,
,-0.023,0.126,0.931,147.155,-17.09,-27.832,0,0,0,
,-0.038,0.031,0.937,141.784,-23.194,-32.044,0,0,0,
,-0.076,-0.047,0.966,116.821,-15.931,-34.119,0,0,0,
,-0.055,-0.068,1.001,102.111,4.272,-62.317,0,0,0,
,-0.032,-0.061,1.066,90.393,10.62,-91.004,0,0,0,
,0.002,-0.053,1.07,63.903,23.01,-113.648,0,0,0,
,0.023,-0.063,1.022,45.227,0.244,-148.804,0,0,0,
,0.17,-0.363,1.084,180.908,11.779,-321.9,0,0,0,
,0.215,-0.065,1.088,-54.932,14.221,-225.525,0,0,0,
,0.177,0.253,1.1,-1.648,-3.479,-247.925,0,0,0,
,0.202,-0.003,1.001,81.909,-18.311,-151.551,0,0,0,
,0.087,0.147,1.006,-188.538,-28.504,-51.697,0,0,0,
,0.088,0.471,0.984,-157.532,6.286,-26.734,0,0,0,
,0.067,0.291,0.916,75.195,-23.56,7.446,0,0,0,
,0.008,0.098,0.973,87.463,-43.763,29.113,0,0,0,
,0.01,0.077,0.973,21.484,-27.466,45.288,0,0,0,
,0.025,0.089,0.937,-30.945,-49.744,77.392,0,0,0,
,0.003,0.152,0.96,-46.998,-81.971,86.059,0,0,0,
,0.01,0.178,1.084,9.277,-109.986,106.018,0,0,0,
,-0.026,0.044,1.126,9.704,-116.761,80.444,0,0,0,
,-0.052,-0.052,1.05,-82.337,-83.069,65.429,0,0,0,
,-0.052,-0.038,0.987,-166.565,-60.73,54.687,0,0,0,
,-0.042,-0.005,0.983,-173.096,-59.51,46.63,0,0,0,
,-0.04,-0.022,1.016,-176.636,-70.496,50.476,0,0,0,
,-0.03,-0.03,1.048,-231.934,-55.603,70.434,0,0,0,
,0.017,0.126,1.023,-163.453,-125.184,61.462,0,0,0,
,-0.044,0.079,0.987,-145.569,-154.602,61.706,0,0,0,
,-0.094,0.06,0.957,-172.486,-151.734,64.27,0,0,0,
,-0.131,0.116,0.951,-215.394,-130.433,65.368,0,0,0,
,-0.131,0.18,0.932,-190.979,-98.877,59.448,0,0,0,
,-0.131,0.162,0.916,-107.483,-93.384,31.799,0,0,0,
,-0.166,0.113,0.89,-65.979,-80.445,40.222,0,0,0,
,-0.2,0.087,0.862,-56.58,-43.03,37.414,0,0,0,
,-0.195,0.066,0.825,-70.313,1.22,47.973,0,0,0,
,-0.186,0.106,0.851,-106.873,29.113,34.362,0,0,0,
,-0.162,0.115,0.911,-115.784,61.401,14.831,0,0,0,
,-0.008,0.132,1,11.047,73.852,-33.936,0,0,0,
,-0.017,0.132,1.004,-7.813,66.162,-32.776,0,0,0,
,0,0.154,1.002,-37.781,59.875,-32.41,0,0,0,
,-0.003,0.177,1.002,-37.476,38.208,-28.199,0,0,0,
,-0.021,0.176,0.992,-7.935,37.475,-27.039,0,0,0,
,-0.047,0.126,1.003,15.441,63.781,-35.035,0,0,0,
,-0.05,0.121,0.977,-5.249,78.857,-40.162,0,0,0,
,-0.033,0.127,0.959,-28.077,75.134,-31.495,0,0,0,
,-0.01,0.198,0.994,-27.649,49.865,-22.522,0,0,0,
,0.003,0.249,1.034,9.399,8.483,-20.264,0,0,0,
,-0.006,0.213,1.064,46.997,-15.442,-19.043,0,0,0,
,-0.05,0.153,0.985,4.821,8.606,-11.658,0,0,0,
,-0.054,0.162,0.972,6.897,7.69,-15.748,0,0,0,
,-0.053,0.161,0.982,18.737,18.249,-17.823,0,0,0,
,-0.035,0.157,0.988,24.597,33.935,-26.551,0,0,0,
,-0.015,0.123,0.974,14.892,43.396,-26.795,0,0,0,
,-0.006,0.12,0.948,-33.081,48.706,-17.884,0,0,0,
,0.007,0.158,0.929,-38.819,31.982,-9.461,0,0,0,
,-0.009,0.213,0.986,-10.743,-1.16,-9.827,0,0,0,
,-0.039,0.195,1.006,35.156,-6.043,-17.151,0,0,0,
,-0.048,0.154,0.998,31.311,8.544,-19.043,0,0,0,
,-0.042,0.142,0.987,-9.766,17.822,-13.184,0,0,0,
,-0.054,0.165,0.968,-6.897,16.052,-3.846,0,0,0,
,-0.059,0.151,0.989,-0.123,20.446,-11.292,0,0,0,
,-0.045,0.145,0.993,-0.916,29.357,-11.658,0,0,0,
,-0.022,0.156,1.002,-2.198,24.353,-8.973,0,0,0,
,-0.017,0.164,1.006,-13.367,14.892,-7.386,0,0,0,
,-0.029,0.154,0.992,10.131,30.029,1.648,0,0,0,
,-0.021,0.16,0.982,8.422,34.729,6.347,0,0,0,
,-0.03,0.152,0.986,14.648,33.691,17.273,0,0,0,
,-0.031,0.147,0.986,10.803,35.034,21.423,0,0,0,
,-0.033,0.139,0.98,4.028,38.086,23.315,0,0,0,
,-0.031,0.123,0.936,50.415,54.809,32.47,0,0,0,
,-0.028,0.12,0.943,81.97,64.331,35.766,0,0,0,
,-0.023,0.119,0.963,113.647,82.702,43.762,0,0,0,
,-0.024,0.12,0.987,146.423,97.595,56.64,0,0,0,
,-0.016,0.136,1.002,120.605,101.623,53.772,0,0,0,
,-0.031,0.238,1.047,56.579,65.918,49.865,0,0,0,
,-0.027,0.241,1.028,61.035,58.227,54.626,0,0,0,
,-0.029,0.2,1.003,65.307,45.227,56.701,0,0,0,
,-0.034,0.165,0.985,48.156,42.236,58.593,0,0,0,
,-0.027,0.143,0.966,45.471,44.311,50.17,0,0,0,
,-0.015,0.109,0.953,51.696,35.278,41.992,0,0,0,
,-0.017,0.081,0.958,39.672,26.611,29.663,0,0,0,
,-0.017,0.08,0.958,13.305,34.057,16.967,0,0,0,
,0.006,0.104,0.956,-10.621,40.039,8.972,0,0,0,
,0.023,0.136,0.965,0.549,34.24,4.089,0,0,0,
,0.022,0.134,0.968,4.089,21.118,-2.93,0,0,0,
,-0.011,0.139,0.971,-6.775,18.127,-6.043,0,0,0,
,-0.016,0.169,0.992,-18.189,38.879,-2.93,0,0,0,
,0.007,0.168,1.003,-11.475,38.696,-0.794,0,0,0,
,0.009,0.16,1.027,-11.475,29.235,1.159,0,0,0,
,0.021,0.15,1.029,-18.433,24.658,0.061,0,0,0,
,0.029,0.147,1.018,-24.17,11.474,0.183,0,0,0,
,0.019,0.149,1.01,-9.339,-6.226,-1.221,0,0,0,
,-0.002,0.122,0.996,-2.137,-9.705,-5.066,0,0,0,
,-0.008,0.108,0.98,-6.104,2.197,-5.494,0,0,0,
,-0.012,0.098,0.96,-10.987,17.089,-2.747,0,0,0,
,-0.01,0.091,0.958,-9.4,24.719,-1.404,0,0,0,
,-0.016,0.09,0.96,-15.381,29.541,-0.733,0,0,0,
,-0.024,0.108,0.977,-22.217,29.724,-7.874,0,0,0,
,-0.031,0.144,0.984,-16.236,25.573,-13.245,0,0,0,
,-0.042,0.169,0.991,5.676,18.432,-14.466,0,0,0,
,-0.054,0.161,1.001,9.521,19.653,-5.738,0,0,0,
,-0.064,0.164,0.998,-4.334,21.728,2.868,0,0,0,
,-0.087,0.18,0.988,-7.081,18.615,16.662,0,0,0,
,-0.113,0.192,0.984,12.085,18.615,26.733,0,0,0,
,-0.123,0.169,0.996,36.926,17.334,29.968,0,0,0,
,-0.132,0.06,0.94,16.601,7.507,15.808,0,0,0,
,-0.131,0.069,0.939,-4.639,30.273,-2.32,0,0,0,
,-0.082,0.121,0.959,-8.057,50.231,-25.574,0,0,0,
,-0.02,0.145,0.97,5.371,53.588,-36.011,0,0,0,
,0.021,0.209,1.003,6.469,60.607,-47.486,0,0,0,
,0.072,0.219,1.002,19.47,67.688,-38.697,0,0,0,
,0.116,0.187,0.97,11.108,57.8,-19.837,0,0,0,
,0.146,0.176,0.985,-8.789,52.124,-23.316,0,0,0,
,0.193,0.164,1.002,-19.227,67.443,-25.391,0,0,0,
,0.269,0.176,1.01,-1.404,87.585,-31.922,0,0,0,
,0.343,0.162,1.026,14.526,76.66,-25.025,0,0,0,
,0.343,0.124,1.011,10.498,42.602,-19.776,0,0,0,
,0.233,0.147,1.03,27.587,40.283,-45.166,0,0,0,
,0.212,0.138,1.06,14.709,17.028,-41.077,0,0,0,
,0.151,0.119,1.134,-36.072,-17.151,-42.481,0,0,0,
,0.103,0.124,1.064,-171.509,22.888,-32.837,0,0,0,
,0.042,0.169,0.996,-216.919,11.23,-22.522,0,0,0,
,-0.032,0.221,0.964,-154.541,-7.63,-24.537,0,0,0,
,-0.14,0.242,0.943,-45.96,-33.814,-34.729,0,0,0,
,-0.248,0.216,0.91,54.382,-41.382,-37.415,0,0,0,
,-0.31,0.156,0.908,100.097,-37.049,-24.537,0,0,0,
,-0.352,0.111,0.905,76.843,-29.236,-14.71,0,0,0,
,-0.375,0.055,0.867,16.174,-25.147,-5.249,0,0,0,
,-0.386,0.064,0.88,-56.336,-7.691,-0.733,0,0,0,
,-0.33,0.142,0.901,-89.051,56.64,-2.808,0,0,0,
,-0.203,0.25,0.934,-42.054,98.266,-9.766,0,0,0,
,-0.079,0.277,0.93,51.147,82.275,-4.761,0,0,0,
,-0.067,0.207,0.92,128.173,-15.503,2.746,0,0,0,
,-0.099,0.137,0.946,123.84,-19.959,-10.071,0,0,0,
,-0.082,0.052,0.923,53.405,14.892,-17.029,0,0,0,
,-0.032,0.001,0.932,-26.734,52.917,-41.81,0,0,0,
,0.036,0.103,1.015,-47.852,120.483,-62.134,0,0,0,
,0.22,0.208,1.117,20.874,169.372,-74.524,0,0,0,
,0.34,0.228,1.127,100.769,111.816,-77.576,0,0,0,
,0.343,0.164,1.112,85.693,43.457,-69.092,0,0,0,
,0.309,0.111,1.058,-23.011,12.756,-39.124,0,0,0,
,0.288,0.128,1.042,-128.724,8.911,-31.678,0,0,0,
,0.275,0.162,0.936,-1.221,92.773,-25.757,0,0,0,
,0.257,0.185,0.965,92.956,81.909,-26.856,0,0,0,
,0.232,0.193,0.986,164.245,90.454,-25.208,0,0,0,
,0.16,0.145,1.011,195.007,35.827,-13.55,0,0,0,
,0.115,0.148,1.047,170.288,40.649,-13.611,0,0,0,
,0.184,0.149,1.134,56.945,84.228,10.498,0,0,0,
,0.087,0.136,0.993,29.357,31.738,25.329,0,0,0,
,0.004,0.188,1.017,55.175,12.756,25.329,0,0,0,
,-0.011,0.132,0.988,33.325,-38.819,-10.376,0,0,0,
,-0.13,0.159,0.952,17.822,-74.707,-36.683,0,0,0,
,-0.192,0.14,0.949,1.037,-65.735,-23.194,0,0,0,
,-0.322,0.09,0.858,-105.042,-73.548,-32.776,0,0,0,
,-0.278,0.128,0.881,-55.42,-4.151,-35.34,0,0,0,
,-0.174,0.177,0.909,-2.137,69.397,-40.162,0,0,0,
,-0.073,0.148,0.923,11.596,78.125,-35.401,0,0,0,
,-0.055,0.142,0.963,-21.607,25.268,-34.607,0,0,0,
,-0.027,0.157,0.997,-73.853,53.588,-46.265,0,0,0,
,0.065,0.176,1.004,-101.929,74.523,-58.777,0,0,0,
,0.16,0.223,1.036,-57.557,72.387,-65.796,0,0,0,
,0.262,0.191,1.049,31.677,55.664,-69.153,0,0,0,
,0.323,0.159,1.026,72.753,44.616,-69.825,0,0,0,
,0.347,0.098,1.002,64.636,20.813,-64.454,0,0,0,
,0.33,0.048,0.99,-11.963,22.644,-66.163,0,0,0,
,0.338,0.085,1.025,-94.178,65.307,-57.312,0,0,0,
,0.371,0.145,1.009,-104.92,96.801,-40.223,0,0,0,
,0.347,0.183,1.014,-33.204,77.514,-35.645,0,0,0,
,0.29,0.194,1.005,56.213,78.43,-28.992,0,0,0,
,0.255,0.195,0.995,96.252,58.654,-27.466,0,0,0,
,0.2,0.177,0.997,109.924,2.563,-36.866,0,0,0,
,0.112,0.158,1.049,89.843,-32.166,-34.485,0,0,0,
,0.095,0.145,1.184,33.874,-1.893,-24.781,0,0,0,
,0.128,0.197,1.002,-69.275,105.896,-3.846,0,0,0,
,0.137,0.246,1.015,-46.814,57.922,11.23,0,0,0,
,0.129,0.189,0.982,1.403,17.334,16.784,0,0,0,
,0.075,0.131,0.93,30.761,-35.706,-2.259,0,0,0,
,-0.104,0.075,0.869,25.085,-34.852,-4.7,0,0,0,
,-0.256,0.084,0.843,-18.616,-8.728,-17.09,0,0,0,
,-0.361,0.137,0.97,20.446,-22.034,-23.865,0,0,0,
,-0.249,0.189,1.049,2.441,100.463,-21.607,0,0,0,
,-0.049,0.28,1.064,-7.691,150.329,-1.404,0,0,0,
,0.102,0.313,1.012,31.066,68.115,3.051,0,0,0,
,0.077,0.243,0.989,101.013,-115.784,-5.982,0,0,0,
,-0.006,0.14,0.995,118.652,-113.038,-26.062,0,0,0,
,0.007,0.06,0.937,70.19,-28.748,-27.894,0,0,0,
,0.062,0.041,0.897,52.612,6.164,-41.687,0,0,0,
,0.125,0.006,0.925,66.284,42.785,-57.129,0,0,0,
,0.203,0.035,0.984,62.439,97.595,-60.242,0,0,0,
,0.305,0.129,1.032,73.364,140.319,-66.468,0,0,0,
,0.371,0.158,1.016,95.459,102.417,-58.472,0,0,0,
,0.328,0.155,1.035,92.163,44.128,-48.218,0,0,0,
,0.321,0.146,1.067,38.94,62.805,-21.424,0,0,0,
,0.336,0.16,1.038,34.729,33.935,-15.686,0,0,0,
,0.26,0.13,0.991,79.162,14.953,-22.339,0,0,0,
,0.193,0.096,0.979,140.442,31.616,-18.738,0,0,0,
,0.208,0.125,1.011,183.044,74.829,-16.419,0,0,0,
,0.226,0.156,1.013,230.957,58.471,-8.851,0,0,0,
,0.184,0.119,1.016,251.709,7.69,-9.705,0,0,0,
,0.142,0.108,1.052,226.013,-15.564,-1.282,0,0,0,
,0.19,0.096,1.248,145.08,7.385,8.239,0,0,0,
,0.081,0.016,0.971,-55.97,-42.786,19.043,0,0,0,
,0.001,-0.026,0.912,-45.411,-47.12,5.432,0,0,0,
,-0.108,-0.032,0.896,-46.875,-58.289,-1.343,0,0,0,
,-0.186,-0.03,0.901,-76.294,-29.48,-19.715,0,0,0,
,-0.215,-0.013,0.883,-132.569,13.61,-21.912,0,0,0,
,-0.218,0.051,0.877,-133.667,17.639,-27.955,0,0,0,
,-0.149,0.125,0.946,-138.916,43.029,-26.001,0,0,0,
,-0.087,0.221,0.979,-159.485,45.105,-24.048,0,0,0,
,-0.038,0.34,0.997,-145.325,37.536,-14.71,0,0,0,
,0.024,0.371,1.026,-51.026,27.282,-1.465,0,0,0,
,0.071,0.247,0.942,8.056,-0.977,-5.494,0,0,0,
,0.145,-0.156,0.83,-21.607,46.936,-84.29,0,0,0,
,0.177,-0.154,0.818,-88.318,47.912,-105.53,0,0,0,
,0.231,0.041,0.938,-92.041,126.281,-115.235,0,0,0,
,0.392,0.224,0.927,-25.147,196.96,-84.473,0,0,0,
,0.408,0.286,1.103,122.619,90.21,-79.529,0,0,0,
,0.496,0.315,1.312,112.671,39.917,-61.28,0,0,0,
,0.288,0.086,1.062,154.663,-121.094,-31.25,0,0,0,
,-0.024,-0.058,0.997,54.565,-92.957,-36.011,0,0,0,
,0.062,0.032,1.041,1.464,119.751,-13.367,0,0,0,
,0.23,0.16,1.01,22.949,132.568,-28.016,0,0,0,
,0.207,0.285,1.062,116.943,16.967,-31.311,0,0,0,
,0.171,0.256,1.137,210.51,-3.479,-11.597,0,0,0,
,0.254,0.269,0.99,162.841,108.215,33.02,0,0,0,
,0.258,0.11,0.984,83.557,-33.509,54.87,0,0,0,
,0.11,0.033,0.956,76.843,-60.364,58.898,0,0,0,
,0.082,-0.073,0.887,85.327,41.687,43.335,0,0,0,
,0.086,-0.087,0.877,69.274,44.677,25.695,0,0,0,
,0.055,-0.042,0.981,78.613,38.513,0.122,0,0,0,
,0.083,0.003,1.072,52.795,41.87,-2.381,0,0,0,
,0.094,0.068,1.036,22.216,56.701,-6.653,0,0,0,
,0.14,0.089,0.993,11.047,49.072,13.732,0,0,0,
,0.128,0.118,0.983,-10.315,13.855,15.93,0,0,0,
,0.072,0.1,0.946,5.615,1.77,15.93,0,0,0,
,0.045,0.104,0.929,32.959,0.854,18.371,0,0,0,
,-0.012,-0.038,0.914,5.798,3.723,-10.56,0,0,0,
,0.019,-0.007,0.864,-30.884,-0.55,-32.837,0,0,0,
,0.029,0.06,0.92,-30.945,-27.222,-40.101,0,0,0,
,0.074,0.116,0.991,-32.959,12.146,-43.58,0,0,0,
,0.152,0.18,1.044,52.673,-0.55,-26.795,0,0,0,
,0.131,0.106,0.995,51.269,-15.564,-16.846,0,0,0,
,0.114,0.047,0.942,25.756,-24.659,-5.982,0,0,0,
,0.104,0.007,0.917,-1.831,-36.683,-16.419,0,0,0,
,0.096,0.016,0.914,-19.043,-47.242,-33.02,0,0,0,
,0.082,0.035,0.929,2.685,-49.073,-49.622,0,0,0,
,0.104,0.107,0.948,81.97,-9.4,-52.247,0,0,0,
,0.063,0.016,0.954,107.422,-81.849,-48.096,0,0,0,
,0.007,0.038,0.959,49.438,-44.678,-52.735,0,0,0,
,0.013,0.054,0.973,55.053,-6.226,-41.81,0,0,0,
,0.023,0.056,0.993,54.992,-12.391,-51.392,0,0,0,
,0.046,0.05,1.056,67.81,-1.099,-49.805,0,0,0,
,0.143,0.053,1.033,-21.668,17.334,-49.561,0,0,0,
,0.124,0.035,0.979,-7.752,-16.236,-54.505,0,0,0,
,0.086,0.024,0.991,0.427,6.652,-63.05,0,0,0,
,0.193,0.048,1.028,-8.057,49.499,-43.885,0,0,0,
,0.238,0.073,1.081,23.132,23.864,-55.176,0,0,0,
,0.235,0.045,0.976,13.916,-0.184,-16.236,0,0,0,
,0.139,0.013,0.948,54.443,-26.001,-8.179,0,0,0,
,0.1,-0.014,0.933,85.388,-5.677,-16.602,0,0,0,
,0.095,-0.005,0.954,91.857,6.53,-26.551,0,0,0,
,0.107,0.041,1.001,110.717,10.376,-16.358,0,0,0,
,0.118,0.077,1.039,148.132,3.967,-33.814,0,0,0,
,0.102,0.079,1.021,163.574,-16.968,-31.128,0,0,0,
,0.079,0.089,1.002,171.936,-28.321,-32.959,0,0,0,
,0.075,0.087,0.997,191.467,-40.955,-27.222,0,0,0,
,0.064,0.008,0.995,193.725,-32.959,-26.185,0,0,0,
,0.061,-0.033,0.963,147.338,-8.667,-31.983,0,0,0,
,0.08,-0.043,0.934,129.028,-8.789,-42.786,0,0,0,
,0.065,-0.034,0.93,127.929,-15.137,-53.345,0,0,0,
,0.057,0.015,0.958,155.395,1.037,-69.886,0,0,0,
,0.095,0.01,0.99,215.576,16.113,-74.952,0,0,0,
,0.118,-0.014,1.012,244.445,-5.86,-75.501,0,0,0,
,0.124,-0.074,1.081,205.993,-54.078,-64.637,0,0,0,
,0.067,-0.087,1.035,174.377,-48.706,-68.482,0,0,0,
,0.057,-0.152,1.007,88.44,-0.55,-79.407,0,0,0,
,0.077,-0.163,1.037,69.641,2.441,-95.276,0,0,0,
,0.066,-0.19,1.026,33.569,-3.052,-106.263,0,0,0,
,0.066,-0.117,0.995,7.263,-5.494,-115.113,0,0,0,
,0.063,-0.083,0.97,18.127,-14.527,-123.047,0,0,0,
,0.055,-0.086,0.969,45.105,-8.851,-122.254,0,0,0,
,0.072,-0.108,1.002,36.804,-2.503,-123.352,0,0,0,
,0.103,-0.074,1.007,52.551,9.521,-114.747,0,0,0,
,0.099,-0.116,1.007,33.996,-8.179,-119.935,0,0,0,
,0.083,-0.14,0.996,2.075,-3.296,-109.559,0,0,0,
,0.087,-0.094,1.002,-30.396,-1.282,-111.023,0,0,0,
,0.101,-0.053,1.022,15.441,-20.081,-91.065,0,0,0,
,0.1,-0.018,1.004,-25.33,-24.048,-51.636,0,0,0,
,0.095,-0.053,1.002,-33.326,-24.781,-14.71,0,0,0,
,0.087,-0.086,1.024,-68.055,-13.001,31.982,0,0,0,
,0.073,-0.088,0.993,-91.126,-6.653,69.58,0,0,0,
,0.149,-0.074,1.065,-148.621,-48.768,-25.513,0,0,0,
,0.177,-0.004,1.021,-261.719,-114.869,36.804,0,0,0,
,0.088,0.094,1.051,-233.216,-128.54,19.165,0,0,0,
,0.076,-0.04,1.047,-228.882,-135.315,36.499,0,0,0,
,-0.024,-0.099,1.037,-341.675,-116.944,30.456,0,0,0,
,-0.029,-0.12,1.027,-508.728,-45.227,34.729,0,0,0,
,0.001,-0.033,0.972,-646.79,26.001,34.912,0,0,0,
,0.047,0.03,0.925,-680.97,42.175,44.738,0,0,0,
,0.084,0.137,0.891,-633.606,14.404,46.875,0,0,0,
,0.098,0.317,0.904,-420.35,-74.707,35.461,0,0,0,
,0.066,0.255,0.947,-121.705,-140.198,23.071,0,0,0,
,0.014,0.133,0.97,5.249,-183.899,10.009,0,0,0,
,-0.019,0.096,1.016,-36.316,-175.721,-0.55,0,0,0,
,-0.02,0.08,1.025,-117.127,-150.208,7.08,0,0,0,
,-0.033,0.126,1.003,-199.219,-126.282,18.859,0,0,0,
,-0.036,0.178,0.945,-224.427,-108.033,29.785,0,0,0,
,-0.048,0.22,0.909,-151.307,-106.873,47.363,0,0,0,
,-0.085,0.177,0.92,-54.566,-109.62,58.288,0,0,0,
,-0.126,0.14,0.92,-7.569,-79.529,56.396,0,0,0,
,-0.122,0.078,0.929,-11.719,-29.541,49.194,0,0,0,
,-0.115,0.062,0.933,-52.063,14.77,35.522,0,0,0,
,-0.088,0.037,0.911,-68.848,58.532,21.789,0,0,0,
,-0.063,0.05,0.921,-78.736,73.669,10.803,0,0,0,
,-0.023,0.131,0.958,-43.457,77.392,-4.639,0,0,0,
,0.016,0.145,1.005,11.779,51.025,-19.227,0,0,0,
,0.037,0.176,1.059,57.739,31.86,-27.161,0,0,0,
,0.071,0.16,1.094,64.025,10.253,-31.128,0,0,0,
,0.063,0.149,1.078,28.015,-7.813,-29.358,0,0,0,
,0.042,0.15,1.043,-17.579,-14.954,-21.668,0,0,0,
,0.018,0.175,1.003,-40.039,-11.109,-17.395,0,0,0,
,0.028,0.184,0.988,-31.983,-2.869,-14.039,0,0,0,
,-0.006,0.178,0.983,-4.517,10.864,-14.405,0,0,0,
,-0.001,0.145,0.969,14.038,19.653,-6.958,0,0,0,
,-0.004,0.115,0.959,6.53,19.47,-5.982,0,0,0,
,-0.01,0.119,0.961,-18.738,10.742,-1.16,0,0,0,
,-0.027,0.147,0.97,-20.386,-3.174,-7.142,0,0,0,
,-0.038,0.159,0.978,-0.855,-5.372,-14.039,0,0,0,
,-0.041,0.157,0.986,25.024,2.014,-22.767,0,0,0,
,-0.027,0.149,0.977,31.005,9.399,-22.889,0,0,0,
,-0.021,0.141,0.983,31.921,19.836,-31.434,0,0,0,
,-0.013,0.114,0.937,3.173,29.907,-27.771,0,0,0,
,-0.015,0.183,0.971,-31.617,43.518,-20.508,0,0,0,
,0.01,0.205,0.964,12.695,42.602,-11.719,0,0,0,
,0.023,0.189,1,66.406,6.53,-5.005,0,0,0,
,0.01,0.139,1.026,74.218,-3.968,-4.517,0,0,0,
,0.014,0.109,1.02,30.151,-7.325,-6.409,0,0,0,
,0.004,0.128,1.013,-10.498,-5.31,-8.545,0,0,0,
,0.004,0.152,0.99,-21.424,1.892,-13.306,0,0,0,
,0.003,0.172,0.981,14.587,-0.916,-15.564,0,0,0,
,0.003,0.17,0.991,23.315,2.197,-13.062,0,0,0,
,0.008,0.164,0.993,27.832,3.234,-7.203,0,0,0,
,0.006,0.164,0.996,23.986,4.821,-6.165,0,0,0,
,0.011,0.182,0.993,23.315,9.216,3.295,0,0,0,
,0.019,0.155,0.991,20.813,4.76,5.798,0,0,0,
,0.005,0.146,0.988,-1.831,-4.212,11.108,0,0,0,
,-0.006,0.159,0.984,-17.884,0.488,15.319,0,0,0,
,-0.023,0.164,0.975,-27.283,-3.296,17.334,0,0,0,
,-0.044,0.186,0.97,-17.273,12.329,13.61,0,0,0,
,-0.048,0.153,0.963,-12.207,20.69,10.376,0,0,0,
,-0.05,0.145,0.963,5.188,28.93,1.709,0,0,0,
,-0.046,0.136,0.954,31.921,28.076,-8.851,0,0,0,
,-0.037,0.107,0.973,57.128,8.544,-15.564,0,0,0,
,-0.053,0.098,1.002,38.147,2.563,-24.537,0,0,0,
,-0.049,0.123,1.009,-4.151,15.747,-28.016,0,0,0,
,-0.023,0.178,1.013,-19.471,21.85,-25.269,0,0,0,
,-0.011,0.189,1.008,-20.203,11.23,-17.701,0,0,0,
,-0.011,0.177,0.999,-24.048,-5.372,-13.55,0,0,0,
,-0.006,0.178,1,-16.602,-9.644,-9.4,0,0,0,
,-0.007,0.185,1,2.746,-10.926,-11.048,0,0,0,
,-0.005,0.157,0.982,14.892,-14.954,-14.588,0,0,0,
,-0.014,0.165,0.982,21.789,-23.56,-13.794,0,0,0,
,-0.012,0.14,0.998,30.7,-24.781,-5.921,0,0,0,
,-0.032,0.151,0.972,2.319,-16.053,-11.658,0,0,0,
,-0.062,0.148,0.968,-6.531,-2.808,-7.508,0,0,0,
,-0.042,0.145,0.968,-17.334,4.699,-6.897,0,0,0,
,-0.049,0.185,0.963,-24.231,34.362,-5.433,0,0,0,
,-0.033,0.165,0.947,-16.175,55.236,-8.24,0,0,0,
,-0.025,0.147,0.948,-12.024,58.288,-12.085,0,0,0,
,-0.008,0.14,0.916,-16.785,67.504,-14.039,0,0,0,
,0.03,0.171,0.991,19.043,12.146,-15.564,0,0,0,
,-0.008,0.165,1.025,41.259,-17.823,-34.668,0,0,0,
,-0.01,0.168,1.007,31.189,-5.127,-42.969,0,0,0,
,0.001,0.194,1.002,31.372,-10.498,-41.748,0,0,0,
,-0.013,0.178,0.998,29.296,-5.799,-30.518,0,0,0,
,-0.004,0.17,0.992,14.526,5.493,-15.32,0,0,0,
,0.002,0.144,0.979,1.159,2.746,-4.822,0,0,0,
,-0.013,0.155,0.985,1.342,-6.47,-2.015,0,0,0,
,-0.026,0.154,0.971,18.005,-0.916,-2.076,0,0,0,
,-0.028,0.124,1,42.602,-13.184,-3.479,0,0,0,
,-0.073,0.116,0.998,20.752,3.967,-20.02,0,0,0,
,-0.057,0.111,0.979,5.004,40.039,-23.194,0,0,0,
,-0.054,0.122,0.96,6.042,55.175,-35.462,0,0,0,
,-0.001,0.131,0.942,25.94,68.481,-50.293,0,0,0,
,0.022,0.154,0.985,58.227,30.822,-37.232,0,0,0,
,-0.012,0.173,1.053,60.119,5.249,-39.612,0,0,0,
,-0.005,0.17,1.032,23.742,34.301,-15.748,0,0,0,
,0.016,0.174,1.001,-24.842,24.841,-18.25,0,0,0,
,-0.002,0.162,1.006,-66.224,12.695,-10.926,0,0,0,
,-0.023,0.151,0.993,-100.464,21.484,-14.832,0,0,0,
,-0.025,0.182,0.963,-77.881,26.916,-17.884,0,0,0,
,-0.024,0.179,0.956,-12.94,15.319,-15.992,0,0,0,
,-0.034,0.138,0.963,24.475,20.019,-16.175,0,0,0,
,-0.024,0.133,0.971,14.892,34.423,-13.123,0,0,0,
,-0.002,0.146,0.968,-0.611,44.067,-4.517,0,0,0,
,0.001,0.165,0.973,1.77,38.696,-9.339,0,0,0,
,-0.01,0.135,0.963,16.54,35.522,-8.362,0,0,0,
,-0.027,0.135,0.959,12.329,34.973,-9.461,0,0,0,
,-0.046,0.137,0.976,18.066,44.189,-11.17,0,0,0,
,-0.03,0.141,0.992,15.93,55.908,-13.245,0,0,0,
,-0.017,0.165,0.992,9.155,40.649,-8.667,0,0,0,
,-0.024,0.195,1.003,15.258,23.986,-6.653,0,0,0,
,-0.042,0.193,0.999,26.672,13.671,-2.564,0,0,0,
,-0.082,0.193,0.992,23.986,14.77,1.281,0,0,0,
,-0.098,0.202,0.987,16.967,24.658,2.319,0,0,0,
,-0.096,0.197,0.99,35.156,27.282,12.939,0,0,0,
,-0.109,0.161,0.986,57.251,24.597,13.916,0,0,0,
,-0.127,0.141,0.979,57.922,28.442,10.131,0,0,0,
,-0.136,0.104,0.962,62.255,35.522,-2.564,0,0,0,
,-0.162,0.049,0.931,52.429,38.574,-11.414,0,0,0,
,-0.167,0.017,0.904,22.522,67.81,-22.889,0,0,0,
,-0.108,-0.009,0.885,-30.091,99.67,-29.175,0,0,0,
,-0.037,0.043,0.93,-56.153,110.595,-30.762,0,0,0,
,0.073,0.151,1.004,-40.039,120.971,-33.448,0,0,0,
,0.175,0.23,1.081,3.967,95.581,-31.434,0,0,0,
,0.221,0.259,1.133,34.423,62.988,-15.564,0,0,0,
,0.252,0.259,1.114,36.01,52.429,-0.977,0,0,0,
,0.276,0.228,1.047,44.738,36.193,14.099,0,0,0,
,0.268,0.155,0.993,49.865,34.301,15.258,0,0,0,
,0.286,0.136,0.978,37.17,61.34,12.878,0,0,0,
,0.308,0.135,0.951,42.358,68.908,5.188,0,0,0,
,0.3,0.14,0.966,56.884,71.35,-0.245,0,0,0,
,0.307,0.174,0.999,65.551,68.481,3.295,0,0,0,
,0.295,0.197,1.007,81.543,34.24,-0.367,0,0,0,
,0.215,0.146,1.005,86.853,-6.592,3.601,0,0,0,
,0.144,0.113,1.017,50.964,-16.907,-0.611,0,0,0,
,0.086,0.115,1.044,-61.219,3.479,1.281,0,0,0,
,-0.002,0.13,0.974,-125.794,21.911,-7.264,0,0,0,
,-0.058,0.207,0.938,-118.531,31.311,-14.405,0,0,0,
,-0.101,0.193,0.941,-15.809,21.911,-19.776,0,0,0,
,-0.156,0.171,0.95,56.701,14.16,-19.654,0,0,0,
,-0.194,0.117,0.961,78.369,24.169,-21.119,0,0,0,
,-0.261,0.074,0.885,-1.16,14.465,-11.963,0,0,0,
,-0.281,0.059,0.898,-7.203,-0.184,-9.034,0,0,0,
,-0.258,0.052,0.902,-26.856,26.733,-14.771,0,0,0,
,-0.207,0.084,0.895,-46.448,45.044,-12.146,0,0,0,
,-0.143,0.138,0.912,-47.791,58.532,-20.264,0,0,0,
,-0.099,0.153,0.891,-43.702,48.461,-21.241,0,0,0,
,-0.134,0.109,0.883,-40.101,26.123,-24.17,0,0,0,
,-0.115,0.083,0.879,-48.829,60.058,-36.438,0,0,0,
,-0.066,0.102,0.959,-46.143,77.819,-49.012,0,0,0,
,0.038,0.182,1.056,-13.062,114.074,-63.721,0,0,0,
,0.189,0.224,1.114,34.729,122.192,-68.055,0,0,0,
,0.303,0.238,1.132,16.113,64.27,-73.67,0,0,0,
,0.344,0.204,1.132,-20.813,1.098,-70.252,0,0,0,
,0.348,0.163,1.069,-83.802,-16.175,-60.852,0,0,0,
,0.356,0.151,0.998,-120.484,-1.831,-59.937,0,0,0,
,0.392,0.163,0.987,-113.221,25.634,-45.594,0,0,0,
,0.414,0.169,0.944,-67.566,30.517,-33.692,0,0,0,
,0.337,0.133,0.919,5.615,25.573,-26.185,0,0,0,
,0.255,0.097,0.92,56.213,62.377,-16.663,0,0,0,
,0.222,0.14,0.983,74.401,75.988,-13.611,0,0,0,
,0.227,0.213,1.055,117.92,93.261,-14.161,0,0,0,
,0.223,0.229,1.116,152.343,79.223,-13.123,0,0,0,
,0.233,0.193,1.201,112.365,47.302,16.357,0,0,0,
,0.202,0.17,1.08,-10.804,30.761,46.752,0,0,0,
,0.12,0.119,1.02,-113.892,0.183,40.039,0,0,0,
,0.082,0.145,0.937,-150.208,25.024,46.081,0,0,0,
,0.027,0.13,0.911,-120.179,16.723,25.268,0,0,0,
,-0.051,0.138,0.924,-76.783,24.108,13.488,0,0,0,
,-0.101,0.173,0.928,-15.564,50.476,3.356,0,0,0,
,-0.135,0.169,0.931,35.827,52.734,2.929,0,0,0,
,-0.187,0.174,0.94,35.522,22.827,7.019,0,0,0,
,-0.244,0.159,0.918,-8.179,-18.128,-0.367,0,0,0,
,-0.304,0.128,0.864,-77.088,-38.025,-17.579,0,0,0,
,-0.331,0.099,0.89,-110.413,-44.007,-9.583,0,0,0,
,-0.285,0.138,0.907,-174.256,20.141,-13.184,0,0,0,
,-0.176,0.233,0.913,-187.317,70.617,-22.095,0,0,0,
,-0.09,0.311,0.855,-135.865,56.03,-26.062,0,0,0,
,-0.109,0.258,0.82,-12.818,-45.105,-34.058,0,0,0,
,-0.133,0.192,0.85,37.719,-27.955,-52.308,0,0,0,
,-0.064,0.136,0.906,43.762,54.321,-46.998,0,0,0,
,0.083,0.167,0.978,14.648,124.267,-66.224,0,0,0,
,0.274,0.212,1.041,30.517,133.361,-78.248,0,0,0,
,0.395,0.274,1.109,81.665,116.15,-77.759,0,0,0,
,0.481,0.253,1.13,122.314,52.246,-67.322,0,0,0,
,0.463,0.186,1.087,92.102,-0.306,-63.904,0,0,0,
,0.43,0.186,1.058,46.752,7.568,-45.777,0,0,0,
,0.465,0.185,1.002,40.893,41.442,-28.26,0,0,0,
,0.426,0.2,0.98,127.99,59.387,-10.071,0,0,0,
,0.344,0.215,0.985,251.587,101.745,11.352,0,0,0,
,0.34,0.237,0.992,385.742,138.488,32.653,0,0,0,
,0.332,0.185,1.001,459.533,67.749,26.672,0,0,0,
,0.24,0.094,1.126,440.734,-37.049,38.635,0,0,0,
,0.211,0.007,1.129,201.172,31.311,57.922,0,0,0,
,0.124,0.038,1.017,-53.345,41.442,69.885,0,0,0,
,0.082,0.125,0.975,-169.556,79.04,81.909,0,0,0,
,0.052,0.131,0.959,-144.165,64.758,77.026,0,0,0,
,-0.021,0.143,0.964,-75.257,60.73,50.048,0,0,0,
,-0.078,0.09,0.931,-33.081,47.424,32.959,0,0,0,
,-0.149,0.034,0.916,-58.167,1.464,10.986,0,0,0,
,-0.223,0.013,0.893,-154.664,-30.64,-9.766,0,0,0,
,-0.285,-0.01,0.849,-274.72,-53.894,-30.884,0,0,0,
,-0.342,0.025,0.846,-359.314,-72.815,-51.819,0,0,0,
,-0.276,0.215,0.88,-351.197,10.498,-58.838,0,0,0,
,-0.114,0.437,0.927,-163.147,90.881,-45.838,0,0,0,
,0.069,0.296,0.903,273.071,-99.488,-41.016,0,0,0,
,-0.022,0.176,0.995,235.778,-118.897,-23.743,0,0,0,
,0.054,0.085,0.976,120.422,0.183,-20.203,0,0,0,
,0.149,0.036,0.926,6.713,14.465,-53.345,0,0,0,
,0.184,0.029,0.883,-11.536,-18.006,-81.421,0,0,0,
,0.198,0.023,0.938,31.127,-8.545,-104.615,0,0,0,
,0.301,0.099,1.018,61.218,76.66,-94.056,0,0,0,
,0.448,0.195,1.063,64.392,106.384,-105.408,0,0,0,
,0.57,0.328,1.311,68.542,21.667,-99.122,0,0,0,
,0.521,0.222,1.193,36.254,-34.729,-57.435,0,0,0,
,0.209,0.046,0.953,-21.973,-29.541,-39.673,0,0,0,
,0.156,0.04,0.881,-24.72,68.298,-34.119,0,0,0,
,0.223,0.13,0.954,49.926,83.557,-44.495,0,0,0,
,0.221,0.236,1.032,189.819,86.792,-59.937,0,0,0,
,0.235,0.306,1.125,325.195,71.411,-51.636,0,0,0,
,0.28,0.275,1.24,372.07,21.301,-37.293,0,0,0,
,0.32,0.239,1.062,221.496,47.668,11.535,0,0,0,
,0.205,0.109,0.993,66.406,-58.655,52.551,0,0,0,
,0.082,0.12,0.916,-29.786,-38.269,73.913,0,0,0,
,-0.104,-0.025,0.859,86.425,3.051,12.329,0,0,0,
,-0.164,-0.068,0.873,76.294,-14.039,-1.526,0,0,0,
,-0.253,-0.083,0.891,-7.203,-48.829,-20.508,0,0,0,
,-0.328,-0.045,0.946,-82.398,-62.134,-43.03,0,0,0,
,-0.219,0.118,1.035,-171.204,70.617,-30.884,0,0,0,
,0.015,0.266,1.002,-184.998,116.088,-23.499,0,0,0,
,0.129,0.304,0.887,-89.6,34.484,-23.987,0,0,0,
,0.055,0.272,0.914,43.579,-105.896,-25.696,0,0,0,
,0.022,0.099,0.872,132.202,-54.322,-35.889,0,0,0,
,0.016,-0.054,0.771,164.917,-37.842,-64.209,0,0,0,
,0.02,-0.14,0.8,98.938,-21.912,-88.562,0,0,0,
,0.101,-0.075,0.944,27.771,83.313,-97.474,0,0,0,
,0.282,0.083,1.028,26.977,176.33,-105.408,0,0,0,
,0.449,0.219,1.238,72.753,114.074,-105.713,0,0,0,
,0.601,0.232,1.516,67.26,8.422,-117.92,0,0,0,
,0.433,0.071,1.244,-149.72,-38.086,-44.678,0,0,0,
,0.269,0.046,0.818,-166.26,-6.409,-33.387,0,0,0,
,0.281,0.098,0.948,-99.549,-40.467,-35.95,0,0,0,
,0.238,0.109,0.958,11.962,21.972,-39.978,0,0,0,
,0.355,0.186,0.913,41.198,116.15,-6.714,0,0,0,
,0.316,0.173,1.055,114.135,16.906,5.859,0,0,0,
,0.255,0.151,1.047,89.294,57.128,19.958,0,0,0,
,0.24,0.077,1.021,57.8,41.137,31.86,0,0,0,
,0.175,0.067,1.014,9.46,13.183,24.78,0,0,0,
,-0.004,0.048,0.897,15.808,45.227,2.136,0,0,0,
,0.019,0.04,0.933,31.066,61.157,2.075,0,0,0,
,0.009,0.076,0.973,51.086,12.634,-4.639,0,0,0,
,-0.037,0.103,1.097,56.884,-4.395,-30.396,0,0,0,
,0.001,0.084,1.054,47.729,43.701,-17.64,0,0,0,
,0.062,0.11,1.033,-0.367,18.31,-3.846,0,0,0,
,0.05,0.113,0.97,-13.794,-11.963,-4.944,0,0,0,
,0.045,0.11,0.906,-21.485,-10.498,-3.235,0,0,0,
,0.04,0.098,0.824,10.131,-27.832,-0.733,0,0,0,
,0.02,0.056,0.772,29.357,-53.284,-12.696,0,0,0,
,0.004,0.029,0.78,34.24,-52.491,-18.738,0,0,0,
,0.048,0.083,0.954,28.076,-12.818,-23.133,0,0,0,
,0.114,0.138,1.014,67.26,30.7,-26.123,0,0,0,
,0.139,0.103,1.049,96.191,-12.024,-34.119,0,0,0,
,0.113,0.071,1.028,58.166,-37.293,-37.72,0,0,0,
,0.096,0.046,0.998,-16.297,-43.641,-39.063,0,0,0,
,0.081,0.049,0.894,-53.284,-49.561,-42.237,0,0,0,
,0.067,0.086,0.891,-41.077,-78.736,-52.002,0,0,0,
,0.047,0.1,0.863,23.559,-57.496,-61.524,0,0,0,
,0.064,0.153,0.94,57.128,-28.077,-74.097,0,0,0,
,0.094,0.154,1.013,110.962,-23.072,-81.482,0,0,0,
,0.095,0.116,1.062,96.496,-30.274,-75.745,0,0,0,
,0.101,0.086,1.061,53.405,-18.189,-54.993,0,0,0,
,0.114,0.054,1.055,-4.395,-20.386,-49.378,0,0,0,
,0.114,0.044,1.002,-28.443,-26.49,-52.369,0,0,0,
,0.11,0.047,0.983,-17.09,-26.368,-58.289,0,0,0,
,0.117,0.069,0.976,24.658,-23.133,-67.444,0,0,0,
,0.146,0.058,1.028,59.082,-0.367,-67.749,0,0,0,
,0.192,0.074,1.114,43.701,-4.029,-74.402,0,0,0,
,0.212,0.062,1.067,24.963,-13.123,-60.791,0,0,0,
,0.137,0.042,0.988,9.155,-43.457,-53.956,0,0,0,
,0.082,0.035,0.96,27.954,-34.607,-51.697,0,0,0,
,0.078,0.023,0.938,38.635,-23.377,-51.575,0,0,0,
,0.075,0.065,0.961,55.908,-15.442,-43.396,0,0,0,
,0.099,0.123,0.974,113.098,-11.231,-45.289,0,0,0,
,0.097,0.132,1.009,180.847,-19.227,-42.176,0,0,0,
,0.1,0.105,1.024,220.947,-17.823,-43.213,0,0,0,
,0.089,0.035,1.055,224.67,-27.283,-59.388,0,0,0,
,0.099,-0.025,1.027,232.727,-28.687,-78.125,0,0,0,
,0.106,-0.087,1.022,230.102,-41.138,-99.244,0,0,0,
,0.094,-0.112,0.998,166.748,-56.031,-109.62,0,0,0,
,0.065,-0.048,0.962,122.619,-45.227,-114.258,0,0,0,
,0.067,-0.038,0.949,133.239,-46.57,-124.695,0,0,0,
,0.057,-0.112,0.983,117.736,-27.71,-125.306,0,0,0,
,0.077,-0.108,0.974,74.89,-5.005,-121.949,0,0,0,
,0.099,-0.048,0.962,89.965,-26.551,-124.268,0,0,0,
,0.075,-0.07,0.98,119.323,-42.115,-132.142,0,0,0,
,0.051,-0.102,0.971,102.539,-30.701,-143.738,0,0,0,
,0.032,-0.046,0.968,95.153,-17.518,-162.72,0,0,0,
,0.031,-0.084,1.007,127.746,3.723,-190.247,0,0,0,
,0.064,-0.145,1.018,111.145,24.902,-202.393,0,0,0,
,0.104,-0.115,1.065,41.015,33.996,-185.181,0,0,0,
,0.139,0.03,1.055,-73.67,30.029,-119.629,0,0,0,
,0.133,0.223,1.052,-113.099,17.578,-39.673,0,0,0,
,0.11,0.222,1.051,-49.317,-17.395,6.286,0,0,0,
,0.068,0.119,1.101,51.086,-29.725,70.19,0,0,0,
,0.042,0.028,1.042,58.715,-28.016,103.942,0,0,0,
,0.036,-0.041,1.025,-43.763,-32.593,25.634,0,0,0,
,0.103,-0.087,1.076,-98.328,-40.101,17.883,0,0,0,
,0.166,-0.051,0.954,-267.945,-62.928,131.53,0,0,0,
,0.101,0.164,1.09,-358.216,-136.353,58.41,0,0,0,
,0.126,0.109,1.072,-250.123,-134.949,109.253,0,0,0,
,0.091,0.059,1.033,-246.705,-180.298,84.228,0,0,0,
,0.034,-0.008,0.995,-298.34,-165.711,64.575,0,0,0,
,0.027,-0.019,0.956,-352.356,-144.471,74.279,0,0,0,
,0.02,0.006,0.917,-382.569,-134.095,69.519,0,0,0,
,0.003,-0.001,0.921,-377.747,-126.099,77.087,0,0,0,
,-0.028,0.032,0.94,-404.236,-103.272,82.031,0,0,0,
,-0.067,0.061,0.902,-461.304,-73.975,76.049,0,0,0,
,-0.082,0.172,0.869,-435.12,-30.945,65.307,0,0,0,
,-0.063,0.169,0.848,-325.623,-18.311,61.828,0,0,0,
,-0.082,0.142,0.872,-241.211,-19.715,56.701,0,0,0,
,-0.093,0.162,0.894,-195.862,7.263,39.917,0,0,0,
,-0.082,0.19,0.925,-121.582,15.075,24.841,0,0,0,
,-0.075,0.193,0.954,-44.007,7.812,4.272,0,0,0,
,-0.06,0.156,0.985,-4.578,14.953,-11.658,0,0,0,
,-0.003,0.122,1.01,-23.804,44.86,-15.442,0,0,0,
,0.021,0.152,1.01,-60.975,43.457,-15.198,0,0,0,
,0.045,0.185,1.013,-50.782,16.235,-16.541,0,0,0,
,0.042,0.194,1.014,20.446,-14.222,-26.673,0,0,0,
,0.039,0.159,1.039,105.041,-30.335,-44.739,0,0,0,
,0.027,0.096,1.039,133.789,-22.278,-50.782,0,0,0,
,0.013,0.12,1.03,102.356,0.976,-56.092,0,0,0,
,0.021,0.125,1.014,37.292,21.118,-36.805,0,0,0,
,0.031,0.158,1.007,-26.795,25.94,-15.625,0,0,0,
,0.04,0.21,1.011,-41.81,10.07,-4.09,0,0,0,
,0.015,0.202,1.003,-2.259,-3.968,-0.672,0,0,0,
,-0.003,0.176,0.968,23.925,2.197,-3.968,0,0,0,
,-0.013,0.163,0.957,39.184,6.897,-4.456,0,0,0,
,-0.016,0.153,0.972,40.1,20.629,-9.217,0,0,0,
,-0.012,0.123,0.969,9.338,32.226,-10.804,0,0,0,
,0.004,0.158,0.978,-21.18,38.696,-17.701,0,0,0,
,0.028,0.177,0.981,-6.287,23.925,-20.935,0,0,0,
,0.017,0.166,0.977,22.705,0.671,-25.635,0,0,0,
,-0.001,0.171,0.966,28.259,1.77,-24.17,0,0,0,
,-0.016,0.176,0.969,22.399,11.169,-23.438,0,0,0,
,-0.018,0.177,0.97,18.554,28.381,-15.992,0,0,0,
,-0.012,0.171,0.97,13.061,38.391,-5.188,0,0,0,
,-0.004,0.156,0.976,16.418,36.865,-2.442,0,0,0,
,0.006,0.145,0.992,6.836,29.724,-7.019,0,0,0,
,0.002,0.148,0.997,14.831,22.033,-10.071,0,0,0,
,-0.008,0.146,1.001,16.967,15.38,-18.616,0,0,0,
,-0.016,0.15,0.996,15.258,20.385,-26.917,0,0,0,
,-0.026,0.154,0.992,5.127,28.076,-23.987,0,0,0,
,-0.014,0.163,0.997,3.173,39.428,-13.672,0,0,0,
,-0.018,0.143,0.983,-4.822,40.832,-1.282,0,0,0,
,-0.018,0.159,0.978,-15.076,40.283,-0.184,0,0,0,
,-0.015,0.181,0.975,17.15,27.038,-3.846,0,0,0,
,-0.039,0.166,0.966,49.072,20.141,-5.677,0,0,0,
,-0.051,0.161,0.982,55.236,30.578,-0.733,0,0,0,
,-0.046,0.142,0.988,42.846,50.231,6.103,0,0,0,
,-0.034,0.136,0.989,22.399,58.898,14.77,0,0,0,
,-0.039,0.13,0.977,7.995,49.255,15.869,0,0,0,
,-0.06,0.112,0.967,0,41.381,15.441,0,0,0,
,-0.091,0.102,0.968,-7.935,42.846,14.343,0,0,0,
,-0.099,0.084,0.943,-5.372,56.335,10.803,0,0,0,
,-0.102,0.054,0.933,2.685,60.241,4.211,0,0,0,
,-0.098,0.039,0.974,3.662,88.195,-2.686,0,0,0,
,-0.036,0.116,1.026,-6.348,122.07,-12.024,0,0,0,
,0.052,0.167,1.038,4.028,111.816,-18.372,0,0,0,
,0.05,0.175,1.046,-8.728,65.429,-16.663,0,0,0,
,0.045,0.203,1.027,-32.837,58.044,-11.048,0,0,0,
,0.053,0.208,0.976,-18.433,65.612,-8.789,0,0,0,
,0.053,0.161,0.895,-7.935,77.148,-11.292,0,0,0,
,0.081,0.147,0.866,-30.823,87.402,-39.368,0,0,0,
,0.152,0.17,0.922,-3.846,104.98,-37.293,0,0,0,
,0.237,0.25,0.965,16.479,144.409,-48.951,0,0,0,
,0.356,0.343,1.025,75.317,135.376,-43.763,0,0,0,
,0.42,0.314,1.067,118.835,104.797,-31.983,0,0,0,
,0.467,0.267,1,125.488,79.467,-0.184,0,0,0,
,0.399,0.172,0.929,104.858,21.484,8.422,0,0,0,
,0.295,0.09,0.907,89.416,23.742,8.667,0,0,0,
,0.262,0.078,0.911,73.364,61.828,3.173,0,0,0,
,0.252,0.108,0.98,101.135,68.725,-7.996,0,0,0,
,0.267,0.172,1.098,131.042,64.331,-13.977,0,0,0,
,0.317,0.205,1.083,54.138,71.106,0.305,0,0,0,
,0.176,0.15,1.047,-24.048,-35.096,10.498,0,0,0,
,0.021,0.17,1.039,-74.158,-36.744,16.784,0,0,0,
,-0.043,0.156,0.992,-88.135,-8.667,7.629,0,0,0,
,-0.126,0.143,0.929,-59.815,-12.635,-3.479,0,0,0,
,-0.212,0.127,0.937,-8.545,-12.391,-9.4,0,0,0,
,-0.25,0.147,0.967,44.677,29.113,-12.757,0,0,0,
,-0.242,0.119,0.982,92.346,40.588,-9.827,0,0,0,
,-0.251,0.097,0.978,61.096,25.146,-0.977,0,0,0,
,-0.272,0.073,0.946,11.779,1.77,5.798,0,0,0,
,-0.274,0.1,0.982,-39.795,-11.658,9.46,0,0,0,
,-0.226,0.116,0.962,-67.81,6.408,7.812,0,0,0,
,-0.158,0.128,0.938,-65.674,4.089,3.784,0,0,0,
,-0.1,0.181,0.925,-29.847,-1.587,-4.334,0,0,0,
,-0.08,0.135,0.919,48.339,-61.219,-15.686,0,0,0,
,-0.105,0.063,0.919,75.439,-57.068,-48.523,0,0,0,
,-0.105,-0.014,0.875,32.287,-23.499,-59.998,0,0,0,
,-0.068,-0.027,0.826,-46.875,12.023,-88.257,0,0,0,
,-0.01,0.007,0.882,-77.088,50.354,-112.183,0,0,0,
,0.139,0.206,1.032,-67.749,143.921,-123.169,0,0,0,
,0.384,0.397,1.142,32.775,164.428,-117.676,0,0,0,
,0.494,0.396,1.219,108.52,95.886,-88.623,0,0,0,
,0.499,0.289,1.171,67.321,38.33,-37.72,0,0,0,
,0.496,0.197,1.108,-31.861,-3.296,-3.357,0,0,0,
,0.474,0.131,0.987,-87.952,-20.997,-7.813,0,0,0,
,0.363,0.055,0.871,-19.227,-16.907,-8.667,0,0,0,
,0.322,0.008,0.819,76.11,32.043,-15.259,0,0,0,
,0.315,0.017,0.878,150.634,64.453,-21.607,0,0,0,
,0.308,0.093,0.969,197.021,103.82,-24.72,0,0,0,
,0.317,0.128,1.042,238.769,99.06,-31.8,0,0,0,
,0.377,0.14,1.228,148.986,81.848,9.765,0,0,0,
,0.308,0.097,1.085,-11.353,32.592,23.498,0,0,0,
,0.152,0.086,1.063,-155.457,-8.484,39.489,0,0,0,
,0.047,0.122,1.03,-247.437,12.451,39.55,0,0,0,
,-0.018,0.146,0.97,-250.245,25.329,17.822,0,0,0,
,-0.097,0.165,0.94,-182.435,2.807,-1.648,0,0,0,
,-0.199,0.168,0.938,-101.38,-11.292,-13.916,0,0,0,
,-0.268,0.123,0.925,-71.289,-12.146,-21.119,0,0,0,
,-0.319,0.104,0.896,-91.248,-21.729,-20.142,0,0,0,
,-0.361,0.07,0.826,-121.399,-39.551,-25.208,0,0,0,
,-0.389,0.053,0.853,-135.804,-66.773,-25.696,0,0,0,
,-0.338,0.209,0.912,-142.884,13.366,-29.541,0,0,0,
,-0.19,0.346,0.929,-37.232,85.815,-38.697,0,0,0,
,-0.072,0.318,0.897,80.627,31.066,-50.599,0,0,0,
,-0.087,0.225,0.944,87.463,-76.6,-46.143,0,0,0,
,-0.1,0.163,0.959,3.234,-20.081,-55.726,0,0,0,
,-0.008,0.121,0.949,-126.709,48.645,-52.674,0,0,0,
,0.092,0.128,0.929,-178.894,75.744,-76.172,0,0,0,
,0.205,0.174,0.977,-130.982,94.421,-98.572,0,0,0,
,0.389,0.239,1.011,-33.814,122.924,-112.61,0,0,0,
,0.524,0.227,1.02,62.011,67.443,-111.268,0,0,0,
,0.513,0.186,1.066,36.987,22.033,-96.314,0,0,0,
,0.526,0.247,1.092,-33.631,56.64,-64.454,0,0,0,
,0.625,0.307,1.009,-11.719,79.956,-42.969,0,0,0,
,0.484,0.202,0.915,100.891,-13.611,-25.147,0,0,0,
,0.272,0.127,0.891,190.429,5.859,-19.837,0,0,0,
,0.238,0.14,0.954,266.845,88.012,-17.456,0,0,0,
,0.269,0.202,1.036,289.306,101.135,-25.025,0,0,0,
,0.35,0.243,1.358,235.901,69.03,1.464,0,0,0,
,0.312,0.186,1.167,78.613,45.044,26.855,0,0,0,
,0.159,0.199,1.128,-103.211,-57.74,38.33,0,0,0,
,0.08,0.163,1.038,-218.811,-44.434,54.26,0,0,0,
,0.001,0.175,0.935,-241.517,-46.387,39.794,0,0,0,
,-0.118,0.175,0.849,-149.842,-66.895,14.77,0,0,0,
,-0.243,0.093,0.844,-29.602,-69.581,-4.7,0,0,0,
,-0.316,0.092,0.843,35.156,-37.049,-24.842,0,0,0,
,-0.343,0.028,0.802,54.138,-11.109,-32.044,0,0,0,
,-0.373,-0.018,0.812,9.46,-38.025,-38.88,0,0,0,
,-0.318,0.061,0.924,-123.78,20.752,-49.683,0,0,0,
,-0.173,0.273,0.896,-150.635,123.291,-33.02,0,0,0,
,0.005,0.369,0.88,-52.124,102.722,-38.269,0,0,0,
,0.015,0.403,0.883,97.595,-40.039,-34.668,0,0,0,
,0.012,0.284,0.908,236.145,-19.959,-32.41,0,0,0,
,0.099,0.139,0.884,244.629,41.503,-35.95,0,0,0,
,0.197,0.047,0.878,184.936,62.194,-40.039,0,0,0,
,0.271,0.037,0.89,146.606,76.11,-63.477,0,0,0,
,0.298,0.087,0.843,208.191,67.81,-83.68,0,0,0,
,0.339,0.099,0.975,255.737,38.452,-88.013,0,0,0,
,0.409,0.155,1.138,286.804,53.833,-87.525,0,0,0,
,0.664,0.313,1.522,279.602,22.888,-75.44,0,0,0,
,0.449,-0.011,1.177,169.86,-35.157,-15.137,0,0,0,
,0.123,-0.046,1.008,18.432,-31.434,-12.269,0,0,0,
,0.239,0.093,0.964,17.211,96.069,-25.208,0,0,0,
,0.298,0.158,1.046,114.074,11.352,-29.175,0,0,0,
,0.362,0.233,1.173,133.545,64.086,14.648,0,0,0,
,0.404,0.201,1.107,143.493,-14.649,26.855,0,0,0,
,0.244,0.17,1.008,70.434,-59.266,41.381,0,0,0,
,0.121,0.116,0.934,51.33,-36.011,44.311,0,0,0,
,0.052,0.027,0.884,43.457,-18.799,44.311,0,0,0,
,-0.006,-0.03,0.857,58.837,-2.015,30.883,0,0,0,
,-0.017,-0.045,0.888,64.697,29.724,21.118,0,0,0,
,0.01,-0.026,0.93,67.993,51.208,12.023,0,0,0,
,0.032,-0.002,0.992,45.105,43.335,9.826,0,0,0,
,0.039,0.031,1.021,13.427,37.963,12.085,0,0,0,
,0.084,0.063,1.003,-18.677,34.973,28.564,0,0,0,
,0.112,0.036,1,-53.894,-19.288,35.339,0,0,0,
,0.075,0.063,1.04,-93.567,-77.637,18.493,0,0,0,
,0.064,0.11,0.954,-48.584,-8.484,1.77,0,0,0,
,0.089,0.121,0.901,43.335,-5.677,-15.748,0,0,0,
,0.071,0.123,0.914,116.821,-22.95,-18.921,0,0,0,
,0.033,0.063,0.898,128.662,-15.442,-8.728,0,0,0,
,-0.017,0.033,0.91,55.786,-16.846,-2.869,0,0,0,
,-0.021,0.048,0.91,4.943,-6.348,-17.884,0,0,0,
,0.008,0.082,0.965,-4.151,-10.865,-32.593,0,0,0,
,0.091,0.105,0.935,12.573,12.756,-50.477,0,0,0,
,0.092,0.091,0.893,27.954,-45.411,-55.726,0,0,0,
,0.029,0.088,0.85,41.137,-80.384,-60.425,0,0,0,
,-0.007,0.122,0.939,78.979,-55.176,-63.294,0,0,0,
,0.017,0.115,0.997,121.582,-5.86,-62.317,0,0,0,
,0.032,0.081,1.061,132.995,-8.912,-71.473,0,0,0,
,0.072,0.067,1.057,85.51,-39.246,-72.632,0,0,0,
,0.103,0.095,1.115,30.7,-49.195,-68.97,0,0,0,
,0.068,0.047,0.956,18.493,-104.737,-67.383,0,0,0,
,-0.061,0.035,1.058,-74.646,-50.171,-90.149,0,0,0,
,0.22,0.174,0.988,14.526,70.068,-36.011,0,0,0,
,0.178,0.061,1.131,70.373,-64.026,-88.807,0,0,0,
,0.203,0.061,1.073,92.895,-9.034,-38.575,0,0,0,
,0.166,-0.03,1.096,45.593,-11.292,-66.102,0,0,0,
,0.209,-0.004,1.015,-13.245,21.667,-38.819,0,0,0,
,0.152,-0.067,0.943,-28.87,-7.447,-50.293,0,0,0,
,0.143,-0.037,0.928,-53.162,27.526,-47.425,0,0,0,
,0.214,0.063,0.941,39.245,12.146,-49.988,0,0,0,
,0.163,0.01,0.978,133.117,-15.625,-56.946,0,0,0,
,0.146,0.028,0.989,144.592,-10.865,-44.373,0,0,0,
,0.117,0.054,0.989,161.132,-26.673,-38.208,0,0,0,
,0.089,0.052,0.991,181.03,-32.593,-39.246,0,0,0,
,0.076,0.015,0.984,220.092,-30.457,-42.237,0,0,0,
,0.069,-0.013,0.976,233.581,-35.95,-45.96,0,0,0,
,0.059,-0.023,0.969,237.121,-26.978,-52.552,0,0,0,
,0.063,-0.021,0.953,264.892,-24.353,-58.899,0,0,0,
,0.046,-0.062,0.982,315.796,-30.213,-62.439,0,0,0,
,0.032,-0.151,1.039,291.565,-20.081,-70.557,0,0,0,
,0.085,-0.148,1.088,215.698,-6.897,-70.191,0,0,0,
,0.083,-0.175,1.07,157.348,-6.897,-81.727,0,0,0,
,0.094,-0.191,1.02,105.713,2.502,-96.192,0,0,0,
,0.104,-0.163,0.984,95.886,-2.076,-122.864,0,0,0,
,0.077,-0.136,0.981,93.811,-5.555,-136.231,0,0,0,
,0.053,-0.101,0.965,116.211,15.686,-154.847,0,0,0,
,0.066,-0.139,1.002,149.536,22.583,-176.941,0,0,0,
,0.051,-0.166,1.033,126.281,26.672,-194.153,0,0,0,
,0.065,-0.171,0.978,-1.831,55.725,-131.836,0,0,0,
,0.071,0.098,0.993,-125.794,31.127,-106.385,0,0,0,
,0.063,0.228,0.985,-42.603,6.225,-75.745,0,0,0,
,0.066,0.168,1.015,68.908,-3.418,-33.204,0,0,0,
,0.053,0.046,1.034,90.148,-10.743,3.295,0,0,0,
,0.048,-0.037,1.042,62.927,5.493,47.668,0,0,0,
,0.062,-0.168,1.002,-8.362,10.376,81.665,0,0,0,
,0.072,-0.192,1.036,-259.583,-12.207,-11.658,0,0,0,
,0.123,-0.171,1.024,-358.826,-21.18,-34.546,0,0,0,
,0.152,-0.036,1.009,-365.54,-46.692,-81.238,0,0,0,
,0.125,-0.126,0.986,-315.064,-75.928,-102.356,0,0,0,
,0.125,-0.186,0.946,-403.565,-47.547,-101.136,0,0,0,
,0.17,-0.064,0.943,-564.087,-37.049,-50.232,0,0,0,
,0.111,0.163,1.01,-646.363,-39.551,-74.28,0,0,0,
,0.132,0.179,0.97,-488.648,-3.846,-45.655,0,0,0,
,0.12,0.15,0.934,-357.117,-18.921,-30.396,0,0,0,
,0.088,0.085,0.944,-326.661,-29.908,-18.494,0,0,0,
,0.08,0.076,0.941,-382.019,-24.353,-12.635,0,0,0,
,0.085,0.135,0.954,-447.266,-34.302,-12.94,0,0,0,
,0.092,0.288,0.96,-363.343,-72.022,-23.926,0,0,0,
,0.069,0.306,0.978,-152.283,-119.141,-34.119,0,0,0,
,0.026,0.241,1.004,21.911,-149.598,-44.068,0,0,0,
,-0.002,0.115,1.017,79.467,-143.616,-44.007,0,0,0,
,-0.021,0.048,1.009,-18.921,-131.531,-29.358,0,0,0,
,-0.039,0.093,1.008,-163.331,-106.568,-34.729,0,0,0,
,-0.033,0.132,0.987,-226.319,-84.29,-30.823,0,0,0,
,-0.036,0.163,0.983,-257.569,-85.877,-28.016,0,0,0,
,-0.057,0.177,0.971,-231.934,-74.036,-23.987,0,0,0,
,-0.054,0.199,0.943,-166.077,-65.918,-25.025,0,0,0,
,-0.052,0.155,0.948,-71.167,-67.688,-32.471,0,0,0,
,-0.053,0.081,0.962,-31.311,-52.491,-50.293,0,0,0,
,-0.04,0.038,0.953,-24.72,-21.241,-63.782,0,0,0,
,-0.02,0.02,0.955,-50.11,-5.921,-72.815,0,0,0,
,-0.003,0.075,0.973,-59.51,-2.137,-91.248,0,0,0,
,0.01,0.116,1.01,-25.513,-10.376,-113.953,0,0,0,
,0.01,0.13,1.032,28.015,-23.316,-133.24,0,0,0,
,0.002,0.126,1.045,58.349,-26.917,-150.818,0,0,0,
,0.006,0.151,1.03,69.519,-32.349,-160.767,0,0,0,
,0.007,0.151,1.043,62.561,-46.631,-167.603,0,0,0,
,-0.002,0.167,1.028,34.606,-51.209,-165.467,0,0,0,
,-0.005,0.194,1.018,14.282,-54.383,-159.852,0,0,0,
,-0.014,0.247,0.998,17.944,-61.402,-147.156,0,0,0,
,-0.035,0.28,0.986,45.898,-65.43,-127.381,0,0,0,
,-0.047,0.308,0.971,79.345,-56.153,-96.619,0,0,0,
,-0.043,0.303,0.964,92.285,-47.669,-53.772,0,0,0,
,-0.038,0.271,0.963,76.232,-41.077,-9.461,0,0,0,
,-0.049,0.257,0.954,11.352,-33.081,51.086,0,0,0,
,-0.051,0.304,0.977,-74.219,-31.922,83.557,0,0,0,
,-0.043,0.303,0.97,-113.038,-29.175,102.844,0,0,0,
,-0.037,0.309,0.948,-120.728,-28.382,135.376,0,0,0,
,-0.062,0.304,0.921,-94.361,-61.341,163.574,0,0,0,
,-0.07,0.195,0.972,-52.979,-59.876,185.119,0,0,0,
,-0.069,0.179,0.959,-83.68,-43.274,178.466,0,0,0,
,-0.066,0.164,0.942,-103.577,-42.176,162.597,0,0,0,
,-0.069,0.174,0.927,-89.661,-41.687,145.874,0,0,0,
,-0.069,0.158,0.927,-66.285,-52.735,113.891,0,0,0,
,-0.071,0.136,0.927,-35.645,-44.495,88.012,0,0,0,
,-0.068,0.12,0.928,-28.321,-28.443,67.688,0,0,0,
,-0.062,0.112,0.918,-39.795,-10.865,45.898,0,0,0,
,-0.062,0.138,0.94,-60.364,18.066,29.907,0,0,0,
,-0.039,0.167,0.964,-66.59,45.715,16.54,0,0,0,
,-0.019,0.191,0.98,-66.773,62.561,9.033,0,0,0,
,0.005,0.205,0.983,-68.604,57.128,2.868,0,0,0,
,0.015,0.233,0.995,-56.031,30.578,-4.944,0,0,0,
,0.012,0.214,1.014,-52.247,-1.526,-12.452,0,0,0,
,-0.006,0.21,1.023,-62.378,-30.091,-21.424,0,0,0,
,-0.021,0.202,1.025,-83.924,-38.758,-34.18,0,0,0,
,-0.03,0.211,1.016,-94.544,-40.345,-46.387,0,0,0,
,-0.05,0.222,0.999,-101.319,-38.575,-58.838,0,0,0,
,-0.053,0.238,0.97,-101.563,-31.739,-70.618,0,0,0,
,-0.039,0.245,0.952,-88.929,-37.964,-75.745,0,0,0,
,-0.041,0.231,0.944,-80.933,-53.04,-78.919,0,0,0,
,-0.05,0.235,0.948,-89.783,-54.932,-79.529,0,0,0,
,-0.049,0.252,0.942,-93.262,-57.129,-80.262,0,0,0,
,-0.067,0.258,0.924,-83.863,-61.28,-78.431,0,0,0,
,-0.087,0.254,0.932,-81.543,-54.078,-75.562,0,0,0,
,-0.096,0.26,0.918,-88.807,-35.035,-69.336,0,0,0,
,-0.099,0.265,0.899,-99.305,-28.809,-58.228,0,0,0,
,-0.107,0.281,0.898,-114.563,-22.339,-49.622,0,0,0,
,-0.105,0.318,0.875,-115.967,-13.977,-40.528,0,0,0,
,-0.104,0.336,0.916,-94.666,-8.973,-37.232,0,0,0,
,-0.109,0.333,0.927,-65.003,-3.235,-25.879,0,0,0,
,-0.112,0.33,0.938,-58.411,6.958,-17.518,0,0,0,
,-0.103,0.335,0.95,-60.303,14.831,-8.118,0,0,0,
,-0.097,0.335,0.961,-60.975,16.357,0.61,0,0,0,
,-0.086,0.326,0.962,-74.036,15.014,13.244,0,0,0,
,-0.078,0.323,0.953,-93.995,4.821,21.057,0,0,0,
,-0.081,0.339,0.95,-98.267,-1.77,31.25,0,0,0,
,-0.085,0.327,0.951,-93.384,-8.667,36.621,0,0,0,
,-0.095,0.326,0.961,-102.356,-6.714,42.175,0,0,0,
,-0.097,0.342,0.951,-101.441,-13.916,39.794,0,0,0,
,-0.104,0.342,0.952,-80.811,-24.964,39.55,0,0,0,
,-0.118,0.334,0.946,-62.623,-24.476,39.672,0,0,0,
,-0.125,0.332,0.944,-53.406,-20.935,39.062,0,0,0,
,-0.13,0.336,0.947,-46.936,-12.879,35.949,0,0,0,
,-0.119,0.327,0.945,-46.631,-6.897,36.132,0,0,0,
,-0.1,0.345,0.93,-36.56,-8.973,36.193,0,0,0,
,-0.093,0.348,0.934,-6.409,-10.254,40.1,0,0,0,
,-0.091,0.335,0.933,9.765,-16.541,44.494,0,0,0,
,-0.112,0.33,0.943,13.488,1.525,49.682,0,0,0,
,-0.119,0.329,0.943,8.972,27.282,54.565,0,0,0,
,-0.118,0.328,0.931,4.089,53.955,57.128,0,0,0,
,-0.105,0.31,0.925,0.244,59.814,58.593,0,0,0,
,-0.105,0.325,0.922,-5.005,62.866,59.387,0,0,0,
,-0.094,0.335,0.911,8.789,58.105,53.527,0,0,0,
,-0.094,0.339,0.928,30.212,42.48,43.823,0,0,0,
,-0.109,0.337,0.941,44.555,43.518,32.775,0,0,0,
,-0.112,0.322,0.937,55.603,52.551,24.658,0,0,0,
,-0.106,0.332,0.934,51.33,64.514,28.32,0,0,0,
,-0.099,0.338,0.919,21.606,66.589,22.277,0,0,0,
,-0.084,0.342,0.908,-13.916,59.997,21.484,0,0,0,
,-0.096,0.264,0.953,36.254,33.081,-0.184,0,0,0,
,-0.089,0.266,0.958,38.574,45.532,0.183,0,0,0,
,-0.081,0.258,0.961,42.846,45.044,-4.334,0,0,0,
,-0.085,0.244,0.958,40.588,39.978,-7.081,0,0,0,
,-0.095,0.244,0.967,20.08,45.837,-4.151,0,0,0,
,-0.102,0.27,0.971,1.22,51.086,2.258,0,0,0,
,-0.105,0.264,0.968,-3.724,56.823,7.507,0,0,0,
,-0.113,0.268,0.957,-21.424,66.833,13.855,0,0,0,
,-0.101,0.246,0.966,-44.983,74.096,16.967,0,0,0,
,-0.094,0.279,0.941,-54.81,70.129,17.089,0,0,0,
,-0.102,0.305,0.93,-23.255,54.321,15.075,0,0,0,
,-0.118,0.311,0.95,17.456,39.733,6.652,0,0,0,
,-0.138,0.306,0.937,37.597,38.269,-0.306,0,0,0,
,-0.154,0.3,0.918,33.691,40.344,-7.203,0,0,0,
,-0.15,0.284,0.896,20.813,45.837,-1.77,0,0,0,
,-0.144,0.253,0.863,-6.531,46.691,-2.869,0,0,0,
,-0.158,0.207,0.831,-37.415,40.588,-12.574,0,0,0,
,-0.182,0.162,0.797,-65.796,53.283,-29.297,0,0,0,
,-0.183,0.191,0.831,-59.815,99.304,-49.744,0,0,0,
,-0.089,0.294,0.897,1.892,157.959,-67.933,0,0,0,
,0.019,0.349,0.973,93.566,148.437,-74.524,0,0,0,
,0.048,0.281,1.021,122.009,115.844,-63.05,0,0,0,
,0.075,0.263,1.038,44.982,101.196,-39.551,0,0,0,
,0.106,0.279,1.037,-7.752,71.472,-30.274,0,0,0,
,0.105,0.306,1.056,-1.16,62.5,-30.64,0,0,0,
,0.157,0.333,1.062,55.236,88.806,-25.208,0,0,0,
,0.256,0.349,1.06,112.793,100.83,-13.367,0,0,0,
,0.281,0.32,1.028,145.385,55.481,-15.076,0,0,0,
,0.258,0.287,1.005,142.517,46.02,-3.663,0,0,0,
,0.247,0.247,0.956,129.577,40.588,2.38,0,0,0,
,0.199,0.216,0.903,99.06,28.015,5.004,0,0,0,
,0.147,0.238,0.903,70.861,24.414,2.868,0,0,0,
,0.065,0.277,0.941,90.026,39.062,-2.259,0,0,0,
,0.058,0.29,0.978,130.981,48.278,-5.86,0,0,0,
,0.096,0.286,1.066,94.238,76.355,3.906,0,0,0,
,0.062,0.231,0.97,40.649,48.4,1.403,0,0,0,
,-0.036,0.266,0.964,-7.142,14.831,2.319,0,0,0,
,-0.108,0.267,0.969,-4.151,9.887,1.159,0,0,0,
,-0.171,0.252,0.933,-3.663,10.986,-14.405,0,0,0,
,-0.227,0.243,0.93,5.859,17.822,-18.25,0,0,0,
,-0.245,0.236,0.924,20.202,31.677,-22.828,0,0,0,
,-0.254,0.206,0.921,29.357,19.653,-20.264,0,0,0,
,-0.285,0.159,0.882,21.789,-0.061,-21.973,0,0,0,
,-0.29,0.132,0.942,-18.433,-3.296,-14.039,0,0,0,
,-0.253,0.136,0.945,-88.501,23.925,-23.804,0,0,0,
,-0.198,0.19,0.956,-126.465,37.597,-29.786,0,0,0,
,-0.134,0.273,0.966,-112.427,40.954,-27.649,0,0,0,
,-0.086,0.307,0.937,-62.5,26.55,-24.781,0,0,0,
,-0.1,0.239,0.885,-22.889,-20.081,-18.006,0,0,0,
,-0.154,0.172,0.859,-17.701,-34.485,-25.818,0,0,0,
,-0.167,0.075,0.832,-58.838,1.648,-46.936,0,0,0,
,-0.16,0.108,0.868,-95.765,57.006,-67.872,0,0,0,
,-0.08,0.242,0.927,-68.116,132.202,-87.464,0,0,0,
,0.047,0.354,0.98,3.173,151.367,-97.413,0,0,0,
,0.124,0.328,1.009,70.312,93.2,-87.464,0,0,0,
,0.152,0.272,1.042,43.09,69.274,-66.163,0,0,0,
,0.239,0.344,1.094,-7.691,109.985,-47.181,0,0,0,
,0.342,0.366,1.083,-5.005,98.327,-32.105,0,0,0,
,0.366,0.356,1.064,41.32,71.167,-23.621,0,0,0,
,0.395,0.324,1.032,62.439,48.889,-13.916,0,0,0,
,0.334,0.254,0.97,79.101,4.699,-7.019,0,0,0,
,0.231,0.187,0.9,89.538,10.192,-6.409,0,0,0,
,0.175,0.161,0.874,90.026,56.274,-7.325,0,0,0,
,0.165,0.215,0.899,112.548,98.877,-21.241,0,0,0,
,0.16,0.293,0.984,148.559,116.027,-22.889,0,0,0,
,0.169,0.318,1.039,153.747,98.388,-18.677,0,0,0,
,0.149,0.305,1.065,121.582,40.161,-13.977,0,0,0,
,0.183,0.291,1.156,1.831,37.658,23.742,0,0,0,
,0.112,0.264,0.989,-66.956,9.582,28.991,0,0,0,
,0.048,0.245,0.951,-81.177,-0.061,27.038,0,0,0,
,-0.004,0.213,0.916,-79.285,-8.423,15.258,0,0,0,
,-0.096,0.204,0.888,-54.505,-19.959,-9.278,0,0,0,
,-0.187,0.193,0.856,-32.654,-5.494,-25.94,0,0,0,
,-0.246,0.181,0.855,-28.077,16.784,-31.128,0,0,0,
,-0.269,0.117,0.824,-71.045,25.207,-39.917,0,0,0,
,-0.324,0.069,0.829,-101.014,-4.395,-54.749,0,0,0,
,-0.319,0.17,0.922,-145.081,46.997,-56.031,0,0,0,
,-0.224,0.341,0.992,-110.718,108.52,-62.073,0,0,0,
,-0.079,0.466,1.022,-21.668,88.195,-64.82,0,0,0,
,0.006,0.459,1.064,93.139,-27.894,-40.894,0,0,0,
,-0.039,0.331,1.05,91.125,-139.649,-33.997,0,0,0,
,-0.121,0.255,0.992,-1.648,-104.432,-22.278,0,0,0,
,-0.073,0.208,0.885,-36.194,-36.133,-32.715,0,0,0,
,-0.02,0.117,0.82,-6.775,-34.18,-57.923,0,0,0,
,0.001,0.088,0.77,36.804,7.812,-74.891,0,0,0,
,0.106,0.174,0.866,109.741,90.637,-85.144,0,0,0,
,0.288,0.234,0.911,169.555,146.606,-83.558,0,0,0,
,0.357,0.311,1.087,175.598,95.52,-70.008,0,0,0,
,0.537,0.485,1.488,121.154,17.517,-63.05,0,0,0,
,0.331,0.266,1.085,133.056,-12.696,-48.523,0,0,0,
,0.167,0.117,0.873,62.988,32.226,9.338,0,0,0,
,0.187,0.15,1.146,91.064,28.869,33.386,0,0,0,
,0.239,0.33,1.09,-163.819,77.697,90.881,0,0,0,
,0.151,0.264,0.942,-135.804,-28.443,79.65,0,0,0,
,0.042,0.274,0.886,-109.314,-25.574,71.838,0,0,0,
,0.007,0.237,0.825,-5.31,19.409,53.527,0,0,0,
,-0.034,0.15,0.789,64.88,19.226,34.606,0,0,0,
,-0.082,0.124,0.805,83.374,26.977,22.461,0,0,0,
,-0.129,0.123,0.831,43.151,30.822,-0.916,0,0,0,
,-0.194,0.098,0.796,-52.796,12.39,-10.621,0,0,0,
,-0.342,0.082,0.703,-108.704,-58.106,-44.068,0,0,0,
,-0.361,0.082,0.841,-160.584,-36.011,-57.74,0,0,0,
,-0.229,0.217,0.923,-175.415,80.261,-52.674,0,0,0,
,0.028,0.415,1.001,-84.778,148.62,-46.387,0,0,0,
,0.113,0.387,0.941,132.202,-6.226,-58.35,0,0,0,
,-0.064,0.214,0.962,197.57,-87.525,-72.693,0,0,0,
,-0.024,0.117,0.879,152.099,59.082,-62.5,0,0,0,
,0.096,0.068,0.863,62.316,67.077,-78.919,0,0,0,
,0.134,0.117,0.713,10.437,88.928,-72.693,0,0,0,
,0.262,0.225,0.978,103.698,56.701,-105.591,0,0,0,
,0.308,0.296,1.015,218.078,33.691,-125.428,0,0,0,
,0.346,0.335,1.286,290.405,60.791,-99.366,0,0,0,
,0.638,0.286,1.362,110.839,60.424,-15.748,0,0,0,
,-0.005,0.007,1.106,94.665,-123.963,-54.871,0,0,0,
,0.117,0.023,0.912,42.419,145.935,3.601,0,0,0,
,0.245,0.119,0.963,73.12,58.593,-8.667,0,0,0,
,0.156,0.193,1.137,148.803,52.002,-6.653,0,0,0,
,0.357,0.336,1.068,127.99,125.854,21.179,0,0,0,
,0.303,0.288,1.074,57.312,42.358,47.363,0,0,0,
,0.22,0.24,0.979,65.49,30.395,65.49,0,0,0,
,0.134,0.11,0.906,75.256,24.108,71.044,0,0,0,
,0.09,0.025,0.774,72.937,71.472,59.143,0,0,0,
,0.065,0.033,0.9,111.877,53.894,50.964,0,0,0,
,0.073,0.017,1.046,128.967,-8.057,22.033,0,0,0,
,-0.027,0.04,1.073,22.766,-7.325,-2.076,0,0,0,
,-0.007,0.147,1.051,-37.415,20.752,-5.188,0,0,0,
,-0.019,0.193,1.048,-16.236,-9.4,-5.433,0,0,0,
,-0.041,0.197,0.955,26.916,6.042,-2.076,0,0,0,
,-0.049,0.151,0.917,60.058,4.028,0.793,0,0,0,
,-0.06,0.112,0.901,63.72,-0.428,0.061,0,0,0,
,-0.102,0.028,0.868,67.321,-7.508,-3.846,0,0,0,
,-0.144,-0.025,0.876,41.32,-5.494,-18.006,0,0,0,
,0.02,0.086,1.005,-42.298,90.271,-19.959,0,0,0,
,0.173,0.193,1.01,-26.123,31.738,-24.72,0,0,0,
,0.122,0.172,1.027,5.859,9.094,-28.077,0,0,0,
,0.17,0.145,0.944,5.615,32.836,-13.916,0,0,0,
,0.145,0.128,0.915,12.573,-1.648,-15.137,0,0,0,
,0.132,0.077,0.918,31.25,9.155,-18.921,0,0,0,
,0.13,0.048,0.949,-0.794,-4.639,-25.147,0,0,0,
,0.117,0.072,0.989,-33.753,-2.32,-33.997,0,0,0,
,0.113,0.081,1.005,-58.838,-10.01,-41.077,0,0,0,
,0.09,0.096,1,-92.53,-15.931,-50.415,0,0,0,
,0.087,0.105,0.956,-106.934,-29.786,-43.152,0,0,0,
,0.046,0.135,0.896,-117.31,-61.097,-57.618,0,0,0,
,0.027,0.185,0.871,-89.905,-71.839,-58.594,0,0,0,
,0.029,0.19,0.809,-35.95,-80.567,-57.801,0,0,0,
,-0.026,0.173,0.941,59.448,-125.977,-75.379,0,0,0,
,-0.069,0.13,0.949,68.908,-57.618,-58.411,0,0,0,
,-0.061,0.216,0.972,54.016,3.784,-58.411,0,0,0,
,0.021,0.204,1.113,101.501,-12.513,-57.679,0,0,0,
,0.034,0.188,1.119,82.336,-5.86,-57.007,0,0,0,
,0.097,0.212,1.207,56.884,9.948,-57.312,0,0,0,
,0.099,0.139,0.932,51.635,-38.392,-29.786,0,0,0,
,-0.071,0.092,0.916,37.536,-6.165,-65.796,0,0,0,
,0.145,0.151,0.931,110.473,91.98,-25.94,0,0,0,
,0.163,0.115,0.955,167.785,17.761,-62.745,0,0,0,
,0.177,0.072,1.069,186.584,31.311,-44.678,0,0,0,
,0.303,0.06,1.118,146.179,64.331,-37.049,0,0,0,
,0.372,0.068,1.188,55.786,43.762,-20.203,0,0,0,
,0.29,0.034,0.971,14.465,11.535,-5.066,0,0,0,
,0.147,0.027,0.94,39.062,-1.465,-9.339,0,0,0,
,0.168,0.051,0.891,89.294,25.817,-3.052,0,0,0,
,0.171,0.119,0.95,191.589,4.638,-14.222,0,0,0,
,0.162,0.112,1.01,210.022,2.38,-12.085,0,0,0,
,0.133,0.135,1.063,192.566,-10.315,3.723,0,0,0,
,0.083,0.075,1.042,233.886,-20.02,-2.991,0,0,0,
,0.036,-0.006,1.026,218.322,-24.353,-18.128,0,0,0,
,0.007,-0.04,0.979,175.232,-18.494,-36.866,0,0,0,
,0.008,0.015,0.953,186.767,-15.015,-58.899,0,0,0,
,0.027,-0.003,0.904,222.839,-23.316,-84.412,0,0,0,
,0.014,-0.032,0.892,256.897,-30.884,-102.478,0,0,0,
,0.024,-0.079,0.927,260.559,-26.49,-106.324,0,0,0,
,0.028,-0.107,0.951,211.792,-34.119,-115.174,0,0,0,
,0.011,-0.058,0.993,180.053,-37.72,-121.582,0,0,0,
,0.011,-0.075,1.031,177.185,-23.682,-132.63,0,0,0,
,0.028,-0.081,1.021,146.24,-4.761,-147.889,0,0,0,
,0.056,-0.087,1.011,109.192,-10.865,-159.302,0,0,0,
,0.061,-0.056,1.02,82.824,-18.616,-160.584,0,0,0,
,0.093,-0.042,1.055,64.331,-10.804,-157.471,0,0,0,
,0.109,0.076,1.035,-47.242,-2.503,-124.817,0,0,0,
,0.151,0.235,1.027,-84.473,3.418,-60.73,0,0,0,
,0.156,0.249,1.052,-31.556,-24.048,-23.011,0,0,0,
,0.127,0.153,1.019,1.037,-31.495,16.967,0,0,0,
,0.097,0.026,1.017,24.231,-39.978,46.875,0,0,0,
,0.054,-0.126,1.002,-53.467,-43.946,35.522,0,0,0,
