TIMECODE,ACC_X,ACC_Y,ACC_Z,GYR_X,GYR_Y,GYR_Z,TAG
00:00:00:0,-0.259,0.415,0.866,5.493,9.704,-21.424,
00:00:00:16,-0.261,0.412,0.867,6.652,9.643,-22.156,
00:00:00:33,-0.258,0.411,0.868,8.728,10.925,-20.203,
00:00:00:50,-0.261,0.412,0.864,5.615,10.803,-21.973,
00:00:00:66,-0.258,0.416,0.866,4.699,10.986,-21.729,
00:00:00:83,-0.258,0.414,0.864,6.774,11.413,-21.668,
00:00:00:100,-0.26,0.412,0.862,6.897,9.094,-21.485,
00:00:00:116,-0.258,0.415,0.868,9.643,8.483,-20.325,
00:00:00:133,-0.263,0.411,0.866,5.004,7.873,-21.729,
00:00:00:150,-0.261,0.416,0.868,5.493,7.263,-20.63,
00:00:00:166,-0.26,0.411,0.864,3.601,6.897,-22.767,
00:00:00:183,-0.259,0.412,0.866,4.394,7.446,-22.522,
00:00:00:200,-0.26,0.416,0.863,3.112,5.615,-23.072,
00:00:00:216,-0.264,0.412,0.864,7.263,6.836,-24.659,
00:00:00:233,-0.256,0.414,0.87,6.897,6.774,-22.828,
00:00:00:250,-0.26,0.41,0.867,4.821,6.652,-22.889,
00:00:00:266,-0.261,0.411,0.865,4.455,8.972,-22.522,
00:00:00:283,-0.258,0.414,0.866,4.455,9.765,-22.095,
00:00:00:300,-0.26,0.414,0.868,6.591,10.376,-20.691,
00:00:00:316,-0.259,0.414,0.865,4.272,8.85,-19.715,
00:00:00:333,-0.26,0.416,0.867,7.751,8.911,-21.424,
00:00:00:350,-0.259,0.416,0.869,5.859,8.3,-20.874,
00:00:00:366,-0.263,0.413,0.861,5.127,7.812,-20.752,
00:00:00:383,-0.261,0.412,0.87,4.333,8.483,-20.142,
00:00:00:400,-0.259,0.41,0.862,5.798,8.361,-21.241,
00:00:00:416,-0.26,0.413,0.868,4.333,8.728,-19.043,
00:00:00:433,-0.26,0.412,0.869,4.821,9.338,-21.119,
00:00:00:450,-0.259,0.415,0.865,4.638,9.399,-19.715,
00:00:00:466,-0.262,0.415,0.866,4.821,9.155,-20.935,
00:00:00:483,-0.261,0.414,0.868,6.53,7.934,-21.119,
00:00:00:500,-0.261,0.414,0.868,5.004,9.643,-20.447,
00:00:00:516,-0.261,0.41,0.866,5.065,9.338,-22.034,
00:00:00:533,-0.261,0.414,0.868,5.615,8.422,-20.447,
00:00:00:550,-0.258,0.413,0.863,5.188,8.728,-20.63,
00:00:00:566,-0.261,0.411,0.866,4.15,7.812,-20.874,
00:00:00:583,-0.258,0.42,0.868,3.234,6.469,-23.316,
00:00:00:600,-0.261,0.414,0.867,5.371,6.958,-22.828,
00:00:00:616,-0.26,0.411,0.87,4.516,8.789,-21.058,
00:00:00:633,-0.26,0.408,0.864,4.76,10.986,-21.119,
00:00:00:650,-0.259,0.411,0.869,5.065,7.568,-19.165,
00:00:00:666,-0.258,0.413,0.869,7.873,6.408,-20.874,
00:00:00:683,-0.263,0.414,0.864,7.446,8.117,-19.959,
00:00:00:700,-0.26,0.416,0.869,9.765,7.08,-22.889,
00:00:00:716,-0.262,0.416,0.863,5.31,7.08,-25.147,
00:00:00:733,-0.261,0.417,0.867,5.004,8.056,-25.696,
00:00:00:750,-0.262,0.413,0.863,3.601,8.361,-26.429,
00:00:00:766,-0.26,0.412,0.867,9.46,9.46,-23.499,
00:00:00:783,-0.259,0.41,0.875,9.643,11.047,-23.865,
00:00:00:800,-0.259,0.41,0.868,8.178,9.399,-20.63,
00:00:00:816,-0.258,0.413,0.866,7.08,11.413,-21.729,
00:00:00:833,-0.257,0.413,0.862,8.483,11.413,-19.715,
00:00:00:850,-0.261,0.414,0.866,7.507,13.061,-19.532,
00:00:00:866,-0.262,0.413,0.862,5.065,10.009,-21.79,
00:00:00:883,-0.259,0.412,0.871,7.873,10.253,-23.011,
00:00:00:900,-0.261,0.414,0.866,8.117,10.253,-22.889,
00:00:00:916,-0.26,0.409,0.864,8.117,9.582,-20.874,
00:00:00:933,-0.257,0.415,0.865,6.713,7.934,-19.227,
00:00:00:950,-0.256,0.414,0.865,8.178,7.629,-21.363,
00:00:00:966,-0.258,0.416,0.869,7.507,10.192,-22.95,
00:00:00:983,-0.261,0.412,0.863,6.53,9.033,-21.668,
00:00:01:0,-0.261,0.415,0.867,6.164,8.789,-22.828,
00:00:01:16,-0.259,0.413,0.868,3.356,8.422,-24.048,
00:00:01:33,-0.26,0.414,0.866,6.897,7.873,-23.133,
00:00:01:50,-0.26,0.41,0.866,7.202,6.591,-21.241,
00:00:01:66,-0.26,0.41,0.864,5.798,6.774,-20.752,
00:00:01:83,-0.26,0.417,0.866,4.638,8.728,-20.264,
00:00:01:100,-0.261,0.413,0.864,3.967,8.117,-21.424,
00:00:01:116,-0.26,0.419,0.863,4.211,8.544,-20.997,
00:00:01:133,-0.259,0.414,0.869,6.042,6.836,-23.987,
00:00:01:150,-0.263,0.414,0.865,4.089,5.432,-23.377,
00:00:01:166,-0.261,0.417,0.866,4.638,4.089,-24.414,
00:00:01:183,-0.262,0.413,0.865,7.751,7.202,-24.476,
00:00:01:200,-0.257,0.414,0.871,10.681,7.934,-21.607,
00:00:01:216,-0.26,0.411,0.867,6.958,7.08,-24.414,
00:00:01:233,-0.259,0.411,0.869,5.615,7.812,-21.485,
00:00:01:250,-0.26,0.41,0.867,10.742,8.178,-22.339,
00:00:01:266,-0.266,0.412,0.872,11.352,8.361,-19.898,
00:00:01:283,-0.26,0.411,0.861,5.493,9.216,-19.288,
00:00:01:300,-0.262,0.417,0.862,8.728,9.826,-17.456,
00:00:01:316,-0.259,0.414,0.873,9.643,8.728,-20.874,
00:00:01:333,-0.259,0.412,0.87,9.399,7.08,-20.081,
00:00:01:350,-0.256,0.416,0.875,12.207,7.263,-22.278,
00:00:01:366,-0.263,0.416,0.874,11.108,2.258,-25.574,
00:00:01:383,-0.261,0.415,0.868,12.268,1.281,-21.058,
00:00:01:400,-0.26,0.41,0.863,15.319,2.319,-21.424,
00:00:01:416,-0.258,0.409,0.863,11.84,3.54,-23.56,
00:00:01:433,-0.256,0.41,0.859,5.981,6.53,-21.607,
00:00:01:450,-0.26,0.406,0.858,2.99,7.202,-20.569,
00:00:01:466,-0.259,0.412,0.866,0.122,9.887,-20.386,
00:00:01:483,-0.262,0.413,0.871,2.746,8.178,-20.386,
00:00:01:500,-0.265,0.417,0.873,2.624,5.737,-22.339,
00:00:01:516,-0.264,0.415,0.868,4.333,6.958,-22.644,
00:00:01:533,-0.265,0.413,0.864,5.065,7.934,-22.889,
00:00:01:550,-0.257,0.413,0.863,4.638,7.812,-22.339,
00:00:01:566,-0.256,0.411,0.866,4.821,9.216,-21.912,
00:00:01:583,-0.257,0.407,0.867,4.455,7.507,-22.034,
00:00:01:600,-0.261,0.411,0.873,4.638,6.103,-22.278,
00:00:01:616,-0.263,0.417,0.868,5.371,4.943,-23.011,
00:00:01:633,-0.261,0.412,0.864,6.469,5.371,-24.17,
00:00:01:650,-0.261,0.415,0.869,5.493,7.202,-20.508,
00:00:01:666,-0.262,0.408,0.867,7.507,7.446,-21.546,
00:00:01:683,-0.262,0.409,0.863,4.272,8.789,-22.278,
00:00:01:700,-0.261,0.416,0.867,1.953,6.225,-20.874,
00:00:01:716,-0.264,0.411,0.87,6.164,4.821,-19.898,
00:00:01:733,-0.261,0.416,0.872,6.713,6.591,-23.377,
00:00:01:750,-0.265,0.416,0.86,4.028,5.188,-25.269,
00:00:01:766,-0.26,0.414,0.865,10.131,10.009,-25.574,
00:00:01:783,-0.261,0.409,0.864,5.004,10.009,-25.757,
00:00:01:800,-0.26,0.408,0.866,4.272,11.901,-22.095,
00:00:01:816,-0.262,0.405,0.868,6.652,12.207,-20.386,
00:00:01:833,-0.264,0.408,0.871,9.094,12.756,-19.715,
00:00:01:850,-0.263,0.414,0.868,7.324,7.873,-18.799,
00:00:01:866,-0.263,0.415,0.864,9.826,12.268,-19.471,
00:00:01:883,-0.256,0.412,0.868,11.291,12.451,-18.982,
00:00:01:900,-0.258,0.406,0.865,5.92,10.62,-20.752,
00:00:01:916,-0.26,0.415,0.863,2.441,9.643,-20.874,
00:00:01:933,-0.261,0.411,0.864,5.127,10.864,-21.485,
00:00:01:950,-0.263,0.412,0.867,5.127,10.315,-22.278,
00:00:01:966,-0.263,0.412,0.87,2.441,8.789,-23.804,
00:00:01:983,-0.263,0.414,0.868,7.629,8.239,-23.438,
00:00:02:0,-0.259,0.409,0.863,5.737,10.192,-23.316,
00:00:02:16,-0.259,0.409,0.869,5.92,7.568,-22.522,
00:00:02:33,-0.257,0.414,0.868,5.554,6.713,-22.339,
00:00:02:50,-0.261,0.412,0.866,7.629,6.164,-23.255,
00:00:02:66,-0.262,0.413,0.869,7.263,6.286,-21.973,
00:00:02:83,-0.26,0.408,0.867,5.798,8.056,-24.537,
00:00:02:100,-0.261,0.408,0.867,5.615,7.507,-22.889,
00:00:02:116,-0.256,0.409,0.865,4.089,8.606,-20.752,
00:00:02:133,-0.26,0.41,0.868,3.967,6.652,-21.912,
00:00:02:150,-0.259,0.415,0.863,2.075,6.591,-21.546,
00:00:02:166,-0.264,0.412,0.863,3.54,7.019,-21.546,
00:00:02:183,-0.261,0.415,0.87,2.746,5.249,-21.18,
00:00:02:200,-0.262,0.416,0.867,3.967,5.127,-22.4,
00:00:02:216,-0.265,0.415,0.871,5.859,5.554,-23.865,
00:00:02:233,-0.259,0.412,0.865,3.601,5.31,-25.452,
00:00:02:250,-0.261,0.413,0.867,2.258,5.249,-21.973,
00:00:02:266,-0.26,0.413,0.866,4.15,7.446,-22.4,
00:00:02:283,-0.261,0.408,0.867,5.004,8.911,-22.828,
00:00:02:300,-0.259,0.411,0.871,3.845,11.718,-20.935,
00:00:02:316,-0.263,0.411,0.869,4.028,8.483,-22.339,
00:00:02:333,-0.262,0.416,0.869,7.141,8.483,-20.752,
00:00:02:350,-0.263,0.411,0.862,7.873,8.239,-20.142,
00:00:02:366,-0.261,0.413,0.865,9.765,10.192,-20.386,
00:00:02:383,-0.261,0.413,0.864,6.164,11.047,-20.386,
00:00:02:400,-0.264,0.412,0.864,3.295,8.117,-20.63,
00:00:02:416,-0.259,0.413,0.87,5.554,8.85,-19.776,
00:00:02:433,-0.263,0.412,0.864,4.272,4.943,-21.241,
00:00:02:450,-0.261,0.414,0.864,5.859,7.141,-23.133,
00:00:02:466,-0.26,0.412,0.868,4.394,6.164,-23.133,
00:00:02:483,-0.258,0.413,0.87,5.554,8.544,-20.752,
00:00:02:500,-0.262,0.41,0.865,5.554,8.056,-21.729,
00:00:02:516,-0.264,0.41,0.865,4.821,9.765,-21.058,
00:00:02:533,-0.262,0.416,0.863,3.845,10.437,-22.034,
00:00:02:550,-0.261,0.415,0.865,8.056,6.958,-21.668,
00:00:02:566,-0.259,0.416,0.866,6.225,8.911,-20.569,
00:00:02:583,-0.263,0.411,0.86,7.812,7.873,-22.034,
00:00:02:600,-0.26,0.415,0.869,7.446,8.544,-21.729,
00:00:02:616,-0.261,0.411,0.862,4.333,5.798,-21.546,
00:00:02:633,-0.262,0.414,0.865,5.737,9.704,-22.156,
00:00:02:650,-0.261,0.414,0.865,3.54,6.836,-21.241,
00:00:02:666,-0.263,0.411,0.865,4.394,8.178,-23.133,
00:00:02:683,-0.259,0.417,0.869,4.394,8.606,-23.438,
00:00:02:700,-0.263,0.412,0.862,5.859,5.188,-22.156,
00:00:02:716,-0.263,0.413,0.866,6.164,7.934,-21.058,
00:00:02:733,-0.262,0.41,0.865,8.117,7.263,-22.217,
00:00:02:750,-0.259,0.412,0.866,4.516,8.422,-21.119,
00:00:02:766,-0.263,0.413,0.869,2.929,7.385,-20.874,
00:00:02:783,-0.262,0.414,0.865,5.31,6.774,-20.386,
00:00:02:800,-0.263,0.416,0.866,6.591,5.371,-21.546,
00:00:02:816,-0.265,0.417,0.869,7.995,8.361,-22.767,
00:00:02:833,-0.261,0.418,0.87,5.188,9.399,-26.062,
00:00:02:850,-0.263,0.414,0.863,6.225,9.887,-26.856,
00:00:02:866,-0.257,0.411,0.866,8.422,12.878,-24.781,
00:00:02:883,-0.262,0.405,0.868,6.836,12.268,-22.583,
00:00:02:900,-0.26,0.411,0.866,7.629,10.803,-18.494,
00:00:02:916,-0.26,0.415,0.871,6.164,9.887,-19.471,
00:00:02:933,-0.268,0.418,0.863,5.554,10.986,-13.977,
00:00:02:950,-0.265,0.417,0.867,11.291,16.784,-16.053,
00:00:02:966,-0.265,0.41,0.866,12.573,18.92,-12.696,
00:00:02:983,-0.257,0.408,0.873,9.521,19.287,-13.733,
00:00:03:0,-0.255,0.405,0.871,6.53,19.409,-14.344,
00:00:03:16,-0.257,0.412,0.875,6.164,22.155,-15.137,
00:00:03:33,-0.258,0.417,0.865,3.601,22.766,-14.832,
00:00:03:50,-0.261,0.415,0.863,3.601,23.193,-15.625,
00:00:03:66,-0.261,0.413,0.866,3.112,23.559,-17.273,
00:00:03:83,-0.262,0.414,0.869,2.807,23.986,-15.809,
00:00:03:100,-0.275,0.419,0.882,10.803,26.245,-12.757,
00:00:03:116,-0.285,0.413,0.892,23.315,34.668,-7.325,
00:00:03:133,-0.284,0.431,0.933,66.589,32.531,9.643,
00:00:03:150,-0.284,0.407,0.998,175.232,7.568,35.583,
00:00:03:166,-0.269,0.518,1.294,406.25,-153.504,136.169,
00:00:03:183,-0.344,0.869,1.591,1007.202,-381.348,377.197,
00:00:03:200,-0.932,0.676,1.954,1000.915,-49.256,480.713,
00:00:03:216,-1,0.055,1.981,604.553,-21.851,550.659,
00:00:03:233,-0.62,0.48,2.398,-139.954,-383.789,450.683,
00:00:03:250,-0.927,0.546,2.918,-427.308,-776.185,732.238,
00:00:03:266,-0.571,0.88,2.867,-741.517,-1205.689,827.697,
00:00:03:283,-0.18,1.307,2.468,-457.764,-1535.096,901.001,
00:00:03:300,-0.013,1.562,1.958,93.994,-2000,1142.761,
00:00:03:316,-0.374,0.554,1.073,1999.694,-2000,1236.755,
00:00:03:333,-0.01,0.193,0.933,1735.534,-2000,940.307,
00:00:03:350,0.233,0.137,0.641,822.143,-2000,910.705,
00:00:03:366,0.617,0.413,0.392,107.666,-2000,1016.296,
00:00:03:383,0.937,0.604,0.234,253.296,-2000,1187.866,
00:00:03:400,0.918,0.332,-0.101,684.753,-2000,1270.752,
00:00:03:416,0.879,0.067,-0.436,752.258,-2000,1273.986,
00:00:03:433,0.805,-0.048,-0.893,654.48,-2000,1166.809,
00:00:03:450,0.539,-0.287,-1.254,700.378,-1997.254,1087.646,
00:00:03:466,0.285,-0.518,-1.312,570.068,-1435.486,923.401,
00:00:03:483,0.206,-0.471,-1.27,257.141,-872.681,838.256,
00:00:03:500,0.161,-0.412,-1.188,-1.526,-291.26,709.533,
00:00:03:516,0.125,-0.524,-1.144,-195.191,218.811,559.631,
00:00:03:533,0.084,-0.658,-1.132,-415.284,668.213,387.573,
00:00:03:550,0.064,-0.672,-1.078,-584.351,1076.172,204.589,
00:00:03:566,0.061,-0.609,-0.982,-670.838,1428.222,14.404,
00:00:03:583,0.042,-0.536,-0.849,-679.627,1717.163,-172.425,
00:00:03:600,0.008,-0.473,-0.703,-736.145,1953.308,-346.802,
00:00:03:616,-0.025,-0.414,-0.558,-850.892,1999.694,-499.024,
00:00:03:633,-0.044,-0.378,-0.407,-967.041,1999.694,-648.804,
00:00:03:650,-0.067,-0.374,-0.225,-1060.791,1999.694,-792.359,
00:00:03:666,-0.099,-0.385,-0.039,-1086.487,1999.694,-933.594,
00:00:03:683,-0.149,-0.376,0.145,-1084.229,1999.694,-1056.214,
00:00:03:700,-0.178,-0.3,0.341,-1092.041,1999.694,-1184.388,
00:00:03:716,-0.204,-0.056,0.544,-1208.13,1999.694,-1232.972,
00:00:03:733,-0.292,0.141,0.669,-1224.488,1999.694,-1282.715,
00:00:03:750,-0.384,0.029,0.894,-1024.72,1999.694,-1378.663,
00:00:03:766,-0.372,-0.256,0.696,-791.382,1999.694,-1426.941,
00:00:03:783,-0.103,-0.032,0.576,-677.796,1999.694,-1374.878,
00:00:03:800,0.12,0.257,0.866,-556.153,1999.694,-1351.319,
00:00:03:816,0.265,0.693,1.552,-298.218,1715.454,-1157.593,
00:00:03:833,-0.019,0.869,2.176,-16.358,1588.317,-1065.552,
00:00:03:850,-0.059,0.885,2.463,167.724,1390.38,-939.515,
00:00:03:866,0.004,0.685,2.347,76.66,1026.55,-771.363,
00:00:03:883,-0.065,0.659,2.097,-158.997,647.583,-620.179,
00:00:03:900,-0.164,0.644,1.81,-324.097,391.235,-519.959,
00:00:03:916,-0.248,0.577,1.609,-399.659,220.642,-451.355,
00:00:03:933,-0.285,0.478,1.473,-415.833,150.207,-390.931,
00:00:03:950,-0.286,0.448,1.348,-374.878,100.525,-300.171,
00:00:03:966,-0.3,0.467,1.217,-240.601,103.637,-211.67,
00:00:03:983,-0.347,0.259,1.311,-157.654,121.521,-231.812,
00:00:04:0,-0.288,0.185,1.422,-350.22,58.227,-184.266,
00:00:04:16,-0.203,0.364,1.265,-477.234,-126.709,-153.626,
00:00:04:33,-0.389,0.345,1.042,-345.398,-111.023,-95.398,
00:00:04:50,-0.305,0.359,0.89,-342.041,-56.763,-101.624,
00:00:04:66,-0.196,0.373,0.787,-307.007,-9.461,-55.176,
00:00:04:83,-0.131,0.401,0.766,-208.741,33.813,-22.156,
00:00:04:100,-0.088,0.364,0.795,-80.872,77.331,-22.278,
00:00:04:116,-0.07,0.296,0.833,-43.519,94.238,-31.434,
00:00:04:133,-0.078,0.262,0.889,-87.098,81.176,-51.087,
00:00:04:150,-0.107,0.275,0.953,-157.166,47.912,-60.425,
00:00:04:166,-0.153,0.332,0.982,-197.144,17.395,-56.519,
00:00:04:183,-0.164,0.404,0.996,-176.209,-11.353,-52.735,
00:00:04:200,-0.18,0.438,0.967,-121.644,-31.739,-42.603,
00:00:04:216,-0.189,0.442,0.915,-59.144,-36.011,-27.466,
00:00:04:233,-0.184,0.424,0.893,-14.161,-30.274,-22.461,
00:00:04:250,-0.166,0.389,0.897,8.544,-25.147,-18.677,
00:00:04:266,-0.148,0.372,0.907,7.69,-29.908,-16.419,
00:00:04:283,-0.142,0.355,0.918,-7.935,-34.302,-21.79,
00:00:04:300,-0.141,0.345,0.924,-27.71,-43.03,-28.931,
00:00:04:316,-0.152,0.351,0.925,-49.805,-55.787,-31.25,
00:00:04:333,-0.168,0.369,0.917,-66.102,-62.623,-32.837,
00:00:04:350,-0.179,0.385,0.906,-73.365,-63.721,-34.302,
00:00:04:366,-0.181,0.401,0.901,-63.904,-53.406,-31.067,
00:00:04:383,-0.186,0.411,0.901,-43.213,-40.894,-26.856,
00:00:04:400,-0.181,0.406,0.901,-27.466,-28.382,-24.109,
00:00:04:416,-0.177,0.398,0.901,-13.306,-22.156,-20.813,
00:00:04:433,-0.179,0.396,0.917,-2.747,-20.691,-16.297,
00:00:04:450,-0.183,0.39,0.909,2.624,-13.306,-16.541,
00:00:04:466,-0.187,0.381,0.906,9.704,-3.968,-19.471,
00:00:04:483,-0.179,0.38,0.9,10.192,2.99,-22.339,
00:00:04:500,-0.176,0.383,0.903,6.042,6.897,-22.156,
00:00:04:516,-0.173,0.391,0.897,8.789,9.887,-24.598,
00:00:04:533,-0.175,0.393,0.893,10.315,11.901,-28.26,
00:00:04:550,-0.182,0.4,0.901,9.033,13.549,-31.373,
00:00:04:566,-0.182,0.402,0.9,5.798,19.653,-28.016,
00:00:04:583,-0.184,0.396,0.897,8.911,27.648,-28.199,
00:00:04:600,-0.177,0.397,0.9,13.977,27.343,-25.086,
00:00:04:616,-0.171,0.393,0.904,25.695,26.855,-23.499,
00:00:04:633,-0.169,0.378,0.911,38.086,22.522,-20.935,
00:00:04:650,-0.164,0.367,0.917,45.227,9.887,-12.207,
00:00:04:666,-0.164,0.384,0.918,63.293,-11.109,3.967,
00:00:04:683,-0.183,0.38,0.945,115.6,-21.119,21.789,
00:00:04:700,-0.186,0.397,0.98,179.687,-45.166,37.475,
00:00:04:716,-0.176,0.411,0.962,247.802,-52.796,33.325,
00:00:04:733,-0.204,0.389,0.937,273.193,-33.692,34.912,
00:00:04:750,-0.219,0.348,0.928,193.786,-17.945,24.231,
00:00:04:766,-0.199,0.368,0.95,121.948,-32.593,27.954,
00:00:04:783,-0.204,0.387,0.943,107.299,-38.025,33.874,
00:00:04:800,-0.198,0.414,0.946,89.172,-34.119,38.696,
00:00:04:816,-0.177,0.444,0.928,62.683,-43.519,43.151,
00:00:04:833,-0.225,0.464,0.934,22.399,-75.928,81.604,
00:00:04:850,-0.22,0.514,0.916,-33.509,-74.646,115.539,
00:00:04:866,-0.262,0.467,0.901,-53.711,-97.535,138.183,
00:00:04:883,-0.313,0.482,0.847,-99.671,-109.131,196.411,
00:00:04:900,-0.35,0.506,0.854,-90.76,-102.967,247.314,
00:00:04:916,-0.387,0.433,0.869,-105.469,-56.946,263,
00:00:04:933,-0.378,0.371,0.846,-207.642,-49.378,265.747,
00:00:04:950,-0.38,0.328,0.847,-397.522,-53.894,262.817,
00:00:04:966,-0.392,0.316,0.831,-714.722,-20.63,266.784,
00:00:04:983,-0.374,0.31,0.822,-1040.955,16.235,251.831,
00:00:05:0,-0.343,0.306,0.771,-1364.93,49.987,228.149,
00:00:05:16,-0.342,0.323,0.687,-1557.496,87.463,211.242,
00:00:05:33,-0.328,0.436,0.637,-1640.809,106.811,190.246,
00:00:05:50,-0.305,0.532,0.652,-1555.298,130.005,154.358,
00:00:05:66,-0.27,0.579,0.71,-1339.112,162.963,106.506,
00:00:05:83,-0.203,0.651,0.745,-1101.014,143.371,94.116,
00:00:05:100,-0.159,0.646,0.742,-880.127,106.872,57.678,
00:00:05:116,-0.161,0.539,0.718,-768.006,74.646,34.484,
00:00:05:133,-0.156,0.614,0.657,-825.684,41.503,38.024,pourRH
00:00:05:150,-0.145,0.765,0.558,-854.676,29.968,-26.062,
00:00:05:166,-0.129,0.979,0.495,-900.818,36.377,-30.335,
00:00:05:183,-0.188,0.824,0.461,-806.763,8.3,-47.364,
00:00:05:200,-0.228,0.829,0.411,-779.847,13.916,-48.401,
00:00:05:216,-0.244,0.848,0.403,-718.873,11.901,-43.396,
00:00:05:233,-0.238,0.88,0.374,-667.054,10.07,-51.941,
00:00:05:250,-0.242,0.901,0.351,-592.774,0.732,-69.825,
00:00:05:266,-0.236,0.901,0.335,-530.64,4.455,-74.952,
00:00:05:283,-0.23,0.86,0.313,-491.7,13.305,-80.628,
00:00:05:300,-0.225,0.847,0.303,-521.729,20.08,-51.575,
00:00:05:316,-0.222,0.935,0.307,-519.165,8.667,-2.991,
00:00:05:333,-0.222,0.941,0.25,-462.22,12.939,-39.795,
00:00:05:350,-0.207,1.016,0.264,-312.806,20.385,5.371,
00:00:05:366,-0.222,1.029,0.231,-116.394,19.897,-6.958,
00:00:05:383,-0.28,1.016,0.228,41.503,18.981,-1.77,
00:00:05:400,-0.275,0.989,0.186,101.074,32.898,9.033,
00:00:05:416,-0.283,1.046,0.147,115.234,19.714,56.762,
00:00:05:433,-0.307,1.025,0.152,172.302,9.887,-5.005,
00:00:05:450,-0.314,0.877,0.219,214.355,38.208,-44.983,
00:00:05:466,-0.349,0.806,0.281,75.134,35.4,-7.447,
00:00:05:483,-0.34,0.879,0.231,-125.061,40.039,8.85,
00:00:05:500,-0.321,0.947,0.195,-181.824,37.475,3.112,
00:00:05:516,-0.291,0.964,0.178,-150.574,42.358,-9.461,
00:00:05:533,-0.302,0.966,0.243,-109.925,41.565,-2.259,
00:00:05:550,-0.274,0.959,0.223,-75.074,81.97,11.474,
00:00:05:566,-0.249,0.954,0.219,-11.475,82.641,41.992,
00:00:05:583,-0.253,0.838,0.134,29.296,76.232,36.682,
00:00:05:600,-0.271,0.87,0.208,-12.574,74.523,38.94,
00:00:05:616,-0.255,0.872,0.218,-61.951,85.144,7.08,
00:00:05:633,-0.227,0.842,0.286,-100.159,65.734,-17.456,
00:00:05:650,-0.225,0.813,0.262,-221.68,52.551,-3.602,
00:00:05:666,-0.231,0.882,0.196,-306.275,25.695,13,
00:00:05:683,-0.246,0.911,0.171,-290.528,28.808,-10.315,
00:00:05:700,-0.246,0.93,0.166,-242.859,42.663,-8.179,
00:00:05:716,-0.27,0.903,0.109,-114.991,25.573,-10.682,
00:00:05:733,-0.307,0.938,0.136,2.38,42.48,-10.56,
00:00:05:750,-0.323,0.938,0.137,91.186,82.58,-30.152,
00:00:05:766,-0.305,0.928,0.169,107.483,91.003,-39.124,
00:00:05:783,-0.291,0.927,0.169,118.53,92.59,-26.246,
00:00:05:800,-0.284,0.975,0.164,176.696,87.524,-3.113,
00:00:05:816,-0.293,0.992,0.157,270.141,95.398,-5.738,
00:00:05:833,-0.288,0.906,0.147,398.437,98.571,-2.747,
00:00:05:850,-0.302,0.887,0.281,477.417,121.276,-6.287,
00:00:05:866,-0.309,0.799,0.294,463.867,158.569,-4.456,
00:00:05:883,-0.285,0.76,0.308,312.439,145.141,12.207,
00:00:05:900,-0.295,0.761,0.297,57.495,114.135,29.48,
00:00:05:916,-0.274,0.8,0.297,-158.081,81.298,-3.052,
00:00:05:933,-0.244,0.904,0.297,-189.515,43.579,-3.54,
00:00:05:950,-0.243,0.939,0.31,-89.112,7.69,-35.157,
00:00:05:966,-0.267,0.891,0.371,14.343,7.446,-37.354,
00:00:05:983,-0.204,0.915,0.301,-12.146,16.357,-11.597,
00:00:06:0,-0.23,0.987,0.208,21.972,-18.555,-9.156,
00:00:06:16,-0.341,0.897,0.198,77.392,8.178,-37.964,
00:00:06:33,-0.314,0.841,0.272,28.381,53.405,-56.092,
00:00:06:50,-0.25,0.914,0.265,-125.061,36.56,-20.142,
00:00:06:66,-0.263,1.036,0.276,-135.682,9.033,-19.959,
00:00:06:83,-0.301,0.969,0.304,-32.227,11.962,-28.199,
00:00:06:100,-0.28,0.904,0.313,24.231,17.822,-25.025,
00:00:06:116,-0.268,0.919,0.249,13.61,12.817,-13.428,
00:00:06:133,-0.261,1.003,0.249,48.889,15.869,-11.963,
00:00:06:150,-0.249,0.963,0.285,90.271,34.423,-24.659,
00:00:06:166,-0.241,0.932,0.267,66.162,30.944,-11.231,
00:00:06:183,-0.311,0.919,0.281,52.002,26.977,-10.743,
00:00:06:200,-0.27,0.964,0.271,20.69,38.086,-5.494,
00:00:06:216,-0.287,0.982,0.263,51.818,28.93,6.103,
00:00:06:233,-0.301,0.941,0.265,61.401,41.503,20.507,
00:00:06:250,-0.281,0.968,0.268,20.446,34.301,39.184,
00:00:06:266,-0.293,0.978,0.288,26.062,27.587,48.339,
00:00:06:283,-0.293,0.972,0.295,19.653,28.076,61.035,
00:00:06:300,-0.302,0.964,0.292,9.582,23.62,79.345,
00:00:06:316,-0.293,1.012,0.308,5.004,28.808,101.379,
00:00:06:333,-0.336,0.953,0.258,40.344,26.611,108.398,
00:00:06:350,-0.306,0.945,0.248,18.188,36.132,110.901,
00:00:06:366,-0.32,0.916,0.28,19.409,35.522,125.549,
00:00:06:383,-0.31,0.919,0.271,-20.63,33.752,134.338,
00:00:06:400,-0.337,0.916,0.287,15.319,33.264,141.601,
00:00:06:416,-0.329,0.922,0.29,17.334,40.527,140.686,
00:00:06:433,-0.345,0.925,0.314,23.132,32.531,149.963,
00:00:06:450,-0.359,0.897,0.278,37.536,34.729,152.71,
00:00:06:466,-0.367,0.889,0.267,19.043,38.33,158.142,
00:00:06:483,-0.373,0.896,0.275,15.686,42.602,161.01,
00:00:06:500,-0.368,0.904,0.285,21.85,43.579,161.377,
00:00:06:516,-0.381,0.893,0.317,11.657,49.865,159.118,
00:00:06:533,-0.394,0.917,0.29,11.291,52.429,161.377,
00:00:06:550,-0.427,0.889,0.268,47.485,63.232,160.766,
00:00:06:566,-0.414,0.885,0.251,81.115,81.298,159.851,
00:00:06:583,-0.414,0.88,0.249,116.455,92.834,156.799,
00:00:06:600,-0.408,0.837,0.262,107.116,112.365,146.423,
00:00:06:616,-0.41,0.814,0.258,103.576,121.032,141.54,
00:00:06:633,-0.408,0.798,0.288,101.623,134.46,131.042,
00:00:06:650,-0.401,0.795,0.296,116.394,139.16,120.422,
00:00:06:666,-0.398,0.801,0.297,131.836,139.709,112.732,
00:00:06:683,-0.395,0.794,0.299,164.795,141.357,104.309,
00:00:06:700,-0.396,0.768,0.301,166.381,144.409,90.942,
00:00:06:716,-0.394,0.74,0.287,150.512,139.892,77.636,
00:00:06:733,-0.393,0.716,0.294,146.667,140.38,60.119,
00:00:06:750,-0.369,0.73,0.326,132.934,137.695,43.151,
00:00:06:766,-0.362,0.753,0.359,150.268,124.633,29.907,
00:00:06:783,-0.368,0.762,0.347,174.926,118.286,18.188,
00:00:06:800,-0.382,0.766,0.338,208.252,110.839,9.521,
00:00:06:816,-0.383,0.758,0.336,201.416,114.746,0.61,
00:00:06:833,-0.381,0.779,0.346,187.622,107.055,-6.592,
00:00:06:850,-0.389,0.78,0.37,184.631,113.891,-14.161,
00:00:06:866,-0.388,0.76,0.401,168.701,109.802,-22.095,
00:00:06:883,-0.394,0.771,0.416,160.156,105.896,-27.039,
00:00:06:900,-0.393,0.772,0.416,176.025,107.483,-29.786,
00:00:06:916,-0.397,0.791,0.418,197.998,112.304,-30.03,
00:00:06:933,-0.388,0.796,0.428,210.693,128.784,-32.105,
00:00:06:950,-0.368,0.801,0.434,203.369,129.76,-37.72,
00:00:06:966,-0.383,0.774,0.45,206.909,126.77,-31.739,
00:00:06:983,-0.37,0.79,0.483,193.908,130.676,-39.368,
00:00:07:0,-0.361,0.79,0.501,201.66,123.047,-36.072,
00:00:07:16,-0.364,0.786,0.515,232.91,117.859,-30.396,
00:00:07:33,-0.355,0.786,0.52,277.404,115.051,-25.818,
00:00:07:50,-0.355,0.785,0.508,322.876,115.356,-18.738,
00:00:07:66,-0.349,0.768,0.507,317.321,113.647,-16.114,
00:00:07:83,-0.352,0.752,0.506,274.231,105.835,-19.776,
00:00:07:100,-0.365,0.731,0.524,249.939,106.445,-21.18,
00:00:07:116,-0.363,0.721,0.559,232.116,109.375,-31.678,
00:00:07:133,-0.356,0.737,0.578,241.516,106.079,-25.391,
00:00:07:150,-0.367,0.729,0.601,244.812,113.281,-19.043,
00:00:07:166,-0.356,0.726,0.6,216.308,108.642,-18.25,
00:00:07:183,-0.358,0.731,0.602,197.754,104.614,-16.419,
00:00:07:200,-0.364,0.742,0.606,198.73,117.065,-18.372,
00:00:07:216,-0.359,0.734,0.603,235.046,121.704,-20.081,
00:00:07:233,-0.36,0.747,0.615,281.067,127.38,-9.461,
00:00:07:250,-0.361,0.752,0.639,351.013,140.564,0.976,
00:00:07:266,-0.365,0.748,0.653,445.251,158.081,10.681,
00:00:07:283,-0.364,0.702,0.667,485.901,173.462,16.113,
00:00:07:300,-0.348,0.684,0.663,480.529,173.523,21.118,
00:00:07:316,-0.356,0.627,0.675,461.975,191.772,22.766,
00:00:07:333,-0.328,0.596,0.686,397.827,187.5,8.728,
00:00:07:350,-0.326,0.569,0.685,329.712,174.499,15.319,
00:00:07:366,-0.326,0.572,0.718,305.542,170.959,5.432,
00:00:07:383,-0.317,0.614,0.718,314.88,163.33,6.408,
00:00:07:400,-0.334,0.61,0.737,363.037,187.378,20.507,
00:00:07:416,-0.317,0.601,0.732,367.736,181.152,21.301,
00:00:07:433,-0.312,0.591,0.728,366.76,169.006,27.526,
00:00:07:450,-0.32,0.551,0.733,353.149,173.767,28.015,
00:00:07:466,-0.307,0.521,0.752,327.697,176.88,20.568,
00:00:07:483,-0.29,0.515,0.77,315.063,172.851,20.935,
00:00:07:500,-0.271,0.523,0.792,308.532,162.658,20.019,
00:00:07:516,-0.271,0.509,0.77,319.213,153.137,27.893,
00:00:07:533,-0.242,0.448,0.765,213.806,143.188,20.08,
00:00:07:550,-0.24,0.43,0.794,164.611,124.145,18.615,
00:00:07:566,-0.236,0.419,0.82,118.469,109.13,4.943,
00:00:07:583,-0.231,0.43,0.822,68.725,83.435,-3.479,
00:00:07:600,-0.239,0.463,0.823,64.331,57.434,-0.245,
00:00:07:616,-0.216,0.535,0.9,213.256,43.396,17.15,
00:00:07:633,-0.262,0.378,0.886,252.502,38.147,17.334,
00:00:07:650,-0.255,0.345,0.878,149.719,37.17,2.99,
00:00:07:666,-0.248,0.365,0.878,85.693,15.747,2.075,
00:00:07:683,-0.261,0.382,0.9,41.748,1.831,-15.809,
00:00:07:700,-0.27,0.454,0.88,115.966,-1.709,-15.198,
00:00:07:716,-0.275,0.465,0.855,191.406,18.615,-2.503,
00:00:07:733,-0.277,0.483,0.843,251.587,42.968,17.578,
00:00:07:750,-0.28,0.496,0.839,346.313,53.039,33.752,
00:00:07:766,-0.291,0.441,0.85,413.147,90.087,42.663,
00:00:07:783,-0.277,0.375,0.871,452.88,108.825,52.612,
00:00:07:800,-0.271,0.313,0.916,470.764,123.352,63.293,
00:00:07:816,-0.255,0.284,0.943,452.819,126.22,59.753,
00:00:07:833,-0.242,0.261,0.948,375.671,115.844,56.884,
00:00:07:850,-0.237,0.26,0.927,336.181,88.501,52.246,
00:00:07:866,-0.245,0.226,0.93,256.713,92.041,30.7,
00:00:07:883,-0.223,0.251,0.91,182.251,76.416,10.253,
00:00:07:900,-0.224,0.244,0.915,164.001,70.983,13.061,
00:00:07:916,-0.219,0.233,0.921,129.882,77.148,11.23,
00:00:07:933,-0.199,0.238,0.928,85.022,72.509,0.305,
00:00:07:950,-0.192,0.283,0.936,94.787,40.161,-4.151,
00:00:07:966,-0.217,0.272,0.956,123.657,28.564,-5.433,
00:00:07:983,-0.213,0.297,0.937,188.598,26.672,8.3,
00:00:08:0,-0.23,0.22,0.914,262.451,49.621,30.334,
00:00:08:16,-0.227,0.198,0.912,216.186,45.532,26.306,
00:00:08:33,-0.232,0.188,0.918,157.714,46.447,22.338,
00:00:08:50,-0.227,0.169,0.942,145.08,49.499,8.728,
00:00:08:66,-0.215,0.184,0.978,129.699,44.616,7.141,
00:00:08:83,-0.214,0.199,0.97,143.066,28.808,4.211,
00:00:08:100,-0.227,0.169,0.941,170.654,43.64,6.591,
00:00:08:116,-0.222,0.174,0.932,165.771,36.377,12.573,
00:00:08:133,-0.231,0.154,0.951,157.592,44.494,10.498,
00:00:08:150,-0.214,0.145,0.976,155.944,46.081,0.854,
00:00:08:166,-0.214,0.106,0.987,136.23,39.978,-0.977,
00:00:08:183,-0.21,0.108,0.975,81.237,28.869,-5.127,
00:00:08:200,-0.21,0.116,0.96,32.714,18.249,-9.827,
00:00:08:216,-0.208,0.148,0.962,13.916,16.54,-20.569,
00:00:08:233,-0.204,0.16,0.977,36.682,12.695,-18.738,
00:00:08:250,-0.202,0.179,0.985,72.448,10.376,-8.606,
00:00:08:266,-0.21,0.178,0.979,119.567,14.648,6.652,
00:00:08:283,-0.219,0.152,0.975,147.705,17.578,8.85,
00:00:08:300,-0.218,0.141,0.971,160.827,18.188,12.329,
00:00:08:316,-0.224,0.134,0.972,187.5,20.141,18.676,
00:00:08:333,-0.226,0.095,0.977,203.613,30.639,18.249,
00:00:08:350,-0.217,0.077,0.985,188.964,26.733,11.108,
00:00:08:366,-0.213,0.085,0.988,175.354,17.089,7.019,
00:00:08:383,-0.222,0.084,0.985,188.781,15.502,4.699,
00:00:08:400,-0.215,0.099,0.98,218.261,22.338,12.085,
00:00:08:416,-0.215,0.086,0.985,256.713,26.184,19.104,
00:00:08:433,-0.21,0.074,0.985,278.076,27.343,21.728,
00:00:08:450,-0.212,0.066,0.995,289.795,24.414,17.7,
00:00:08:466,-0.213,0.039,0.992,287.475,27.038,21.667,
00:00:08:483,-0.214,0.02,0.995,264.953,24.536,25.634,
00:00:08:500,-0.211,0.006,0.995,227.844,26.428,23.132,
00:00:08:516,-0.204,0.018,0.992,239.441,21.057,33.02,
00:00:08:533,-0.211,-0.014,0.999,252.929,32.47,34.423,
00:00:08:550,-0.2,0.002,0.984,260.376,25.756,38.879,
00:00:08:566,-0.212,-0.02,0.982,279.785,29.48,41.015,
00:00:08:583,-0.203,-0.04,0.971,260.498,35.827,35.705,
00:00:08:600,-0.198,-0.041,0.98,254.638,29.907,40.771,
00:00:08:616,-0.199,-0.049,0.988,278.991,29.174,38.94,
00:00:08:633,-0.195,-0.095,0.996,281.311,36.865,41.565,
00:00:08:650,-0.186,-0.082,0.994,256.042,18.981,35.034,
00:00:08:666,-0.197,-0.089,0.994,254.882,21.24,43.945,
00:00:08:683,-0.19,-0.091,0.983,260.131,19.287,42.663,
00:00:08:700,-0.193,-0.088,0.979,285.644,18.249,52.978,
00:00:08:716,-0.196,-0.103,0.982,305.786,28.076,60.974,
00:00:08:733,-0.185,-0.115,0.981,312.988,25.085,61.218,
00:00:08:750,-0.191,-0.129,1.001,333.618,16.906,55.114,
00:00:08:766,-0.19,-0.168,1,331.482,28.686,64.819,
00:00:08:783,-0.188,-0.183,1.003,322.937,19.714,69.091,
00:00:08:800,-0.193,-0.196,0.981,329.406,19.653,77.026,
00:00:08:816,-0.188,-0.218,0.975,320.129,26.916,74.89,
00:00:08:833,-0.196,-0.224,0.958,324.951,25.451,76.782,
00:00:08:850,-0.196,-0.284,0.956,340.515,43.64,86.425,
00:00:08:866,-0.182,-0.285,0.961,317.993,39.672,77.88,
00:00:08:883,-0.183,-0.314,0.953,306.518,44.86,77.88,
00:00:08:900,-0.173,-0.336,0.945,291.198,47.668,68.664,
00:00:08:916,-0.17,-0.347,0.943,265.625,40.222,61.584,
00:00:08:933,-0.175,-0.337,0.933,242.431,34.912,59.204,
00:00:08:950,-0.188,-0.336,0.938,222.717,36.56,64.148,
00:00:08:966,-0.184,-0.317,0.936,224.304,41.931,64.88,
00:00:08:983,-0.181,-0.329,0.924,274.292,55.053,77.148,
00:00:09:0,-0.172,-0.361,0.924,294.494,66.711,78.002,
00:00:09:16,-0.166,-0.372,0.891,360.29,75.195,100.952,
00:00:09:33,-0.162,-0.411,0.903,395.385,90.759,103.088,
00:00:09:50,-0.144,-0.385,0.902,439.026,88.195,97.29,
00:00:09:66,-0.14,-0.429,0.892,483.886,109.13,114.074,
00:00:09:83,-0.132,-0.472,0.859,474.06,106.018,117.614,
00:00:09:100,-0.125,-0.494,0.845,469.177,119.079,139.038,
00:00:09:116,-0.108,-0.5,0.835,454.895,126.77,152.038,
00:00:09:133,-0.109,-0.531,0.843,429.504,134.155,157.104,
00:00:09:150,-0.106,-0.539,0.854,413.574,140.991,164.428,
00:00:09:166,-0.096,-0.551,0.86,394.775,147.644,163.635,
00:00:09:183,-0.082,-0.588,0.833,364.196,154.724,156.921,
00:00:09:200,-0.071,-0.636,0.812,321.167,151.855,172.119,
00:00:09:216,-0.042,-0.629,0.835,130.127,156.616,191.101,
00:00:09:233,-0.026,-0.598,0.872,135.254,158.081,193.969,
00:00:09:250,-0.013,-0.574,0.861,182.861,151.611,187.011,
00:00:09:266,-0.023,-0.616,0.825,200.073,159.362,143.432,
00:00:09:283,0.037,-0.596,0.8,215.21,146.301,170.105,
00:00:09:300,0.01,-0.625,0.779,230.957,137.085,192.627,
00:00:09:316,0.028,-0.631,0.784,244.14,137.024,174.499,
00:00:09:333,0.046,-0.655,0.809,253.784,132.629,141.784,
00:00:09:350,0.062,-0.699,0.798,237.304,123.474,137.878,
00:00:09:366,0.079,-0.693,0.809,187.927,92.956,122.131,
00:00:09:383,0.081,-0.663,0.787,169.006,68.481,107.055,
00:00:09:400,0.079,-0.678,0.758,171.569,69.336,89.782,
00:00:09:416,0.092,-0.661,0.745,135.681,50.109,60.424,
00:00:09:433,0.091,-0.681,0.736,122.863,43.029,56.457,
00:00:09:450,0.09,-0.668,0.737,105.285,28.686,37.109,
00:00:09:466,0.082,-0.669,0.725,97.595,22.094,19.287,
00:00:09:483,0.087,-0.656,0.715,96.496,14.465,4.943,
00:00:09:500,0.074,-0.693,0.702,90.454,18.92,-0.916,
00:00:09:516,0.079,-0.713,0.708,58.715,18.371,-14.344,
00:00:09:533,0.1,-0.7,0.721,34.606,12.146,-26.856,
00:00:09:550,0.098,-0.724,0.732,-6.531,8.483,-39.49,
00:00:09:566,0.1,-0.693,0.728,-47.913,-8.118,-57.618,
00:00:09:583,0.084,-0.707,0.722,-49.317,1.464,-62.928,
00:00:09:600,0.102,-0.713,0.712,-87.098,-6.775,-84.595,
00:00:09:616,0.096,-0.719,0.713,-123.902,-12.269,-100.464,
00:00:09:633,0.101,-0.697,0.72,-165.65,-19.349,-128.54,
00:00:09:650,0.088,-0.691,0.733,-196.412,-29.358,-147.828,
00:00:09:666,0.078,-0.674,0.728,-230.408,-31.067,-167.359,
00:00:09:683,0.082,-0.679,0.723,-241.761,-30.762,-180.176,
00:00:09:700,0.077,-0.695,0.715,-290.223,-30.396,-201.111,
00:00:09:716,0.075,-0.707,0.706,-376.587,-27.894,-225.464,
00:00:09:733,0.062,-0.709,0.715,-502.991,-30.64,-256.165,
00:00:09:750,0.035,-0.691,0.739,-630.982,-32.227,-266.236,
00:00:09:766,0.014,-0.618,0.799,-724.183,-29.053,-282.837,
00:00:09:783,0.009,-0.524,0.838,-673.768,-28.748,-246.827,
00:00:09:800,-0.029,-0.506,0.866,-633.789,-2.503,-228.394,
00:00:09:816,-0.007,-0.457,0.911,-606.263,3.662,-211.243,
00:00:09:833,0.014,-0.403,0.919,-604.737,6.286,-196.595,
00:00:09:850,-0.001,-0.411,0.935,-579.712,-15.992,-179.688,
00:00:09:866,-0.015,-0.443,0.918,-625,1.403,-179.627,
00:00:09:883,0.003,-0.405,0.912,-663.208,-36.744,-172.425,
00:00:09:900,-0.011,-0.388,0.927,-677.735,-71.289,-160.645,
00:00:09:916,-0.029,-0.352,0.942,-680.115,-106.568,-169.007,
00:00:09:933,-0.053,-0.332,0.967,-667.42,-112.305,-173.157,
00:00:09:950,-0.05,-0.286,0.961,-654.908,-129.456,-181.885,
00:00:09:966,-0.072,-0.262,0.973,-611.023,-156.128,-171.326,
00:00:09:983,-0.095,-0.238,0.966,-595.948,-164.368,-169.19,
00:00:10:0,-0.113,-0.211,0.979,-558.716,-169.373,-157.532,
00:00:10:16,-0.129,-0.219,0.989,-559.571,-111.756,-156.067,
00:00:10:33,-0.139,-0.159,0.973,-577.881,-122.01,-138.489,
00:00:10:50,-0.138,-0.122,0.971,-602.784,-106.019,-135.743,
00:00:10:66,-0.137,-0.062,0.964,-557.373,-113.831,-121.033,
00:00:10:83,-0.152,-0.038,0.997,-477.662,-94.666,-101.868,
00:00:10:100,-0.144,-0.015,0.999,-428.833,-52.979,-98.511,
00:00:10:116,-0.126,-0.009,1.003,-398.377,-41.26,-92.286,
00:00:10:133,-0.125,-0.009,1.007,-393.738,-63.172,-86.67,
00:00:10:150,-0.127,0.019,1.001,-399.048,-80.872,-85.999,
00:00:10:166,-0.139,0.021,0.988,-415.406,-86.121,-90.271,
00:00:10:183,-0.136,0.023,0.994,-453.37,-67.505,-104.065,
00:00:10:200,-0.108,0.05,0.969,-481.873,-68.421,-110.291,
00:00:10:216,-0.103,0.071,0.967,-460.633,-98.45,-100.586,
00:00:10:233,-0.109,0.087,0.97,-454.407,-93.384,-119.873,
00:00:10:250,-0.083,0.114,0.961,-458.863,-116.211,-128.235,
00:00:10:266,-0.083,0.116,0.943,-487.915,-152.894,-137.879,
00:00:10:283,-0.101,0.107,0.936,-570.313,-174.378,-150.635,
00:00:10:300,-0.096,0.168,0.945,-637.024,-206.116,-156.617,
00:00:10:316,-0.112,0.196,0.979,-622.559,-229.859,-158.631,
00:00:10:333,-0.117,0.173,0.977,-666.321,-221.985,-180.726,
00:00:10:350,-0.074,0.209,0.928,-766.785,-251.709,-202.149,
00:00:10:366,-0.053,0.247,0.851,-902.466,-341.614,-214.356,
00:00:10:383,-0.073,0.288,0.802,-1028.626,-412.781,-221.009,
00:00:10:400,-0.113,0.351,0.777,-1138.428,-463.99,-226.502,
00:00:10:416,-0.155,0.436,0.785,-1183.96,-476.807,-224.427,
00:00:10:433,-0.198,0.451,0.798,-1191.956,-469.178,-267.64,
00:00:10:450,-0.198,0.488,0.744,-1172.608,-448.609,-273.804,
00:00:10:466,-0.224,0.54,0.71,-1099.061,-462.708,-271.485,
00:00:10:483,-0.26,0.588,0.697,-1050.66,-436.951,-273.926,
00:00:10:500,-0.258,0.627,0.63,-1007.203,-413.025,-274.964,
00:00:10:516,-0.285,0.643,0.599,-942.872,-411.805,-272.767,
00:00:10:533,-0.307,0.669,0.572,-895.081,-385.987,-281.739,
00:00:10:550,-0.328,0.774,0.472,-874.695,-269.165,-313.355,
00:00:10:566,-0.328,0.825,0.452,-781.739,-222.168,-311.646,
00:00:10:583,-0.351,0.855,0.436,-685.608,-190.857,-305.237,
00:00:10:600,-0.366,0.879,0.416,-629.212,-158.57,-306.702,
00:00:10:616,-0.349,0.903,0.423,-615.601,-142.64,-297.547,
00:00:10:633,-0.307,0.942,0.326,-161.56,-20.569,-249.695,
00:00:10:650,-0.305,0.947,0.312,-148.194,-2.686,-221.009,
00:00:10:666,-0.306,0.972,0.323,-140.015,19.714,-202.454,
00:00:10:683,-0.298,0.977,0.343,-104.432,35.461,-186.89,
00:00:10:700,-0.285,0.975,0.355,-83.191,41.687,-169.312,
00:00:10:716,-0.279,0.951,0.344,-77.942,38.086,-145.691,
00:00:10:733,-0.276,0.909,0.341,-138.428,47.119,-137.574,
00:00:10:750,-0.241,0.96,0.293,-187.684,44.616,-121.399,
00:00:10:766,-0.252,0.955,0.311,-173.218,28.198,-116.089,
00:00:10:783,-0.238,0.929,0.318,-182.19,45.776,-113.099,
00:00:10:800,-0.222,0.927,0.328,-177.491,34.24,-97.84,
00:00:10:816,-0.234,0.953,0.345,-131.653,30.883,-86.914,
00:00:10:833,-0.231,0.953,0.343,-59.998,40.954,-86.121,
00:00:10:850,-0.219,0.92,0.333,-42.603,50.537,-84.534,
00:00:10:866,-0.201,0.925,0.321,-54.444,42.785,-78.858,
00:00:10:883,-0.201,0.93,0.315,-62.378,31.066,-81.177,
00:00:10:900,-0.187,0.931,0.32,-91.797,27.832,-80.811,
00:00:10:916,-0.179,0.93,0.315,-90.332,14.099,-76.416,
00:00:10:933,-0.177,0.922,0.322,-89.051,7.507,-71.961,
00:00:10:950,-0.159,0.93,0.313,-77.576,-2.869,-64.209,
00:00:10:966,-0.163,0.929,0.292,-57.19,-10.865,-59.144,
00:00:10:983,-0.173,0.925,0.292,-44.861,-14.405,-56.153,
00:00:11:0,-0.175,0.912,0.29,-56.824,-10.193,-57.373,
00:00:11:16,-0.171,0.92,0.272,-50.171,-12.452,-51.148,
00:00:11:33,-0.176,0.932,0.292,-28.809,-12.269,-58.655,
00:00:11:50,-0.153,0.943,0.276,-22.278,-9.339,-61.097,
00:00:11:66,-0.167,0.927,0.277,-11.902,-16.785,-56.58,
00:00:11:83,-0.163,0.927,0.26,-15.381,-7.996,-57.007,
00:00:11:100,-0.161,0.936,0.269,-5.86,-7.447,-57.618,
00:00:11:116,-0.161,0.928,0.27,-26.246,-1.465,-59.144,
00:00:11:133,-0.157,0.934,0.278,-40.039,-1.709,-56.885,
00:00:11:150,-0.149,0.935,0.264,-45.044,-5.31,-55.726,
00:00:11:166,-0.159,0.938,0.263,-37.72,-5.249,-52.552,
00:00:11:183,-0.156,0.95,0.259,-28.748,0.122,-49.927,
00:00:11:200,-0.156,0.927,0.251,-36.499,3.845,-52.063,
00:00:11:216,-0.158,0.916,0.253,-30.03,4.089,-52.247,
00:00:11:233,-0.146,0.907,0.273,-40.101,16.296,-59.082,
00:00:11:250,-0.131,0.929,0.268,-47.242,9.643,-54.566,
00:00:11:266,-0.149,0.931,0.263,-41.321,10.376,-50.904,
00:00:11:283,-0.147,0.943,0.247,-44.922,17.822,-56.641,
00:00:11:300,-0.151,0.955,0.253,-36.56,16.723,-58.106,
00:00:11:316,-0.148,0.934,0.255,-35.218,20.385,-60.059,
00:00:11:333,-0.167,0.817,0.228,-32.349,17.273,-62.745,
00:00:11:350,-0.141,0.97,0.158,-86.792,10.376,-35.95,
00:00:11:366,-0.198,0.961,0.259,18.615,9.094,-20.02,
00:00:11:383,-0.115,1.06,0.318,-4.273,41.32,-24.476,
00:00:11:400,-0.139,0.999,0.302,20.202,-4.395,-11.658,
00:00:11:416,-0.175,0.932,0.254,2.746,13.061,-28.504,
00:00:11:433,-0.136,0.909,0.234,2.136,14.16,-33.143,
00:00:11:450,-0.135,0.922,0.243,-8.667,15.136,-37.659,
00:00:11:466,-0.121,0.934,0.218,-7.996,18.615,-47.486,
00:00:11:483,-0.112,0.926,0.212,-12.452,21.301,-53.345,
00:00:11:500,-0.11,0.944,0.217,-39.551,20.813,-56.336,
00:00:11:516,-0.115,0.944,0.249,-29.358,12.207,-64.148,
00:00:11:533,-0.131,0.925,0.236,6.164,12.878,-64.942,
00:00:11:550,-0.132,0.947,0.216,44.555,19.409,-60.486,
00:00:11:566,-0.14,0.929,0.218,87.28,30.883,-56.763,
00:00:11:583,-0.133,0.935,0.228,66.589,40.405,-48.035,
00:00:11:600,-0.141,0.922,0.291,-13.794,28.869,-35.95,
00:00:11:616,-0.139,0.942,0.245,-35.096,23.498,-27.649,
00:00:11:633,-0.166,0.984,0.306,-41.626,0.793,-3.907,
00:00:11:650,-0.176,0.962,0.263,-38.88,-15.686,-19.959,
00:00:11:666,-0.155,0.924,0.228,-30.091,-6.714,-16.175,
00:00:11:683,-0.142,0.915,0.232,-39.368,-13.428,-14.649,
00:00:11:700,-0.144,0.929,0.237,-49.622,-6.043,-15.198,
00:00:11:716,-0.126,0.958,0.244,-29.908,2.319,-20.142,
00:00:11:733,-0.123,0.96,0.257,5.92,1.586,-17.456,
00:00:11:750,-0.12,0.955,0.266,38.33,-0.55,-22.095,
00:00:11:766,-0.115,0.953,0.259,54.199,-4.212,-22.156,
00:00:11:783,-0.101,0.97,0.258,87.585,-5.372,-25.452,
00:00:11:800,-0.087,0.967,0.248,115.539,-2.076,-27.527,
00:00:11:816,-0.075,0.966,0.244,141.052,-8.851,-28.809,
00:00:11:833,-0.082,0.926,0.25,169.86,-12.207,-28.992,
00:00:11:850,-0.077,0.913,0.209,184.021,-1.282,-37.537,
00:00:11:866,-0.082,0.989,0.327,327.636,-14.466,-42.847,
00:00:11:883,-0.091,0.943,0.307,387.756,5.798,-45.105,
00:00:11:900,-0.094,0.944,0.274,391.113,2.563,-41.016,
00:00:11:916,-0.132,0.918,0.263,393.737,-7.569,-33.265,
00:00:11:933,-0.173,0.909,0.262,372.192,-9.339,-20.569,
00:00:11:950,-0.196,0.921,0.261,347.351,-1.526,-9.4,
00:00:11:966,-0.185,0.989,0.311,383.239,0.61,2.319,
00:00:11:983,-0.158,0.956,0.346,506.408,-0.061,-15.931,
00:00:12:0,-0.148,0.888,0.384,604.919,-17.334,-12.024,
00:00:12:16,-0.145,0.846,0.437,661.255,-30.091,-1.099,
00:00:12:33,-0.137,0.795,0.49,730.651,-45.411,-8.789,
00:00:12:50,-0.121,0.753,0.508,762.695,-54.993,-15.259,
00:00:12:66,-0.12,0.784,0.515,700.866,-58.655,-10.926,
00:00:12:83,-0.103,0.882,0.513,623.169,-62.134,8.911,
00:00:12:100,-0.113,0.901,0.542,656.433,-71.839,-16.053,
00:00:12:116,-0.134,0.795,0.613,712.463,-49.683,-10.254,
00:00:12:133,-0.135,0.705,0.665,750.549,-85.633,-71.595,
00:00:12:150,-0.11,0.714,0.68,797.912,-106.08,-40.589,
00:00:12:166,-0.079,0.725,0.639,841.186,-120.118,-47.12,
00:00:12:183,-0.072,0.718,0.73,787.536,-136.658,-22.889,
00:00:12:200,-0.059,0.681,0.785,717.163,-147.278,-31.25,
00:00:12:216,-0.026,0.753,0.889,812.439,-142.884,-9.827,
00:00:12:233,0.069,0.847,0.859,1028.503,-183.655,-10.437,
00:00:12:250,0.028,0.738,0.734,1264.16,-172.913,-14.954,
00:00:12:266,-0.058,0.605,0.706,1408.752,-163.758,-5.127,
00:00:12:283,-0.071,0.43,0.749,1411.682,-145.081,-29.297,
00:00:12:300,-0.044,0.309,0.861,1375.854,-140.809,-30.518,
00:00:12:316,-0.022,0.316,0.948,1336.853,-136.292,-38.269,
00:00:12:333,-0.042,0.346,0.924,1358.581,-140.381,-51.026,
00:00:12:350,-0.127,0.286,0.919,1375.488,-103.638,-59.937,
00:00:12:366,-0.209,0.088,0.913,1238.952,-2.137,-110.718,
00:00:12:383,-0.252,-0.197,0.828,950.256,77.392,-198.792,
00:00:12:400,-0.286,-0.188,0.728,578.979,104.858,-179.993,
00:00:12:416,-0.269,0.065,0.707,390.991,97.961,-174.683,
00:00:12:433,-0.31,0.161,0.768,411.01,192.627,-167.847,
00:00:12:450,-0.318,0.101,0.892,406.189,287.963,-175.477,
00:00:12:466,-0.278,0.019,0.944,284.607,306.335,-216.248,
00:00:12:483,-0.248,0.002,0.946,99.304,286.804,-316.895,
00:00:12:500,-0.25,-0.058,0.948,-10.193,291.442,-232.239,
00:00:12:516,-0.193,0.139,0.998,-152.405,208.496,-225.831,
00:00:12:533,-0.204,0.29,1.045,-150.879,166.87,-201.233,
00:00:12:550,-0.275,0.391,0.902,-138.367,169.067,-190.064,
00:00:12:566,-0.33,0.246,1.118,-419.129,153.869,-236.023,
00:00:12:583,-0.184,0.333,1.02,-685.547,30.517,-169.8,
00:00:12:600,-0.241,0.327,0.969,-737.854,-57.068,-159.79,
00:00:12:616,-0.268,0.399,0.969,-666.932,-63.782,-121.521,
00:00:12:633,-0.177,0.538,0.909,-539.978,-101.319,-61.341,
00:00:12:650,-0.191,0.507,0.901,-270.02,-78.125,-40.772,
00:00:12:666,-0.165,0.393,0.927,-68.36,-24.353,-19.532,
00:00:12:683,-0.032,0.326,0.904,-6.836,-33.02,1.525,
00:00:12:700,-0.008,0.217,0.998,26.245,-60.914,-11.902,
00:00:12:716,-0.019,0.111,0.957,-107.361,-83.68,-9.339,
00:00:12:733,-0.012,0.161,0.923,-189.759,-138.855,-38.086,
00:00:12:750,-0.059,0.224,0.896,-230.408,-139.71,-23.072,
00:00:12:766,-0.097,0.304,0.905,-181.763,-127.381,-17.701,
00:00:12:783,-0.137,0.325,0.953,-111.695,-98.206,-12.391,
00:00:12:800,-0.157,0.333,0.972,-106.995,-84.412,0.183,
00:00:12:816,-0.173,0.335,0.982,-108.521,-88.196,9.155,
00:00:12:833,-0.19,0.335,0.983,-116.639,-94.117,15.808,
00:00:12:850,-0.183,0.347,0.959,-128.479,-102.601,16.235,
00:00:12:866,-0.184,0.353,0.905,-131.836,-96.68,30.456,
00:00:12:883,-0.174,0.349,0.894,-110.474,-73.548,35.034,
00:00:12:900,-0.151,0.332,0.924,-91.126,-67.688,41.931,
00:00:12:916,-0.14,0.333,0.95,-95.093,-72.388,43.701,
00:00:12:933,-0.164,0.328,0.946,-110.413,-91.126,35.278,
00:00:12:950,-0.191,0.324,0.935,-132.081,-88.196,41.137,
00:00:12:966,-0.196,0.322,0.915,-148.377,-72.388,44.433,
00:00:12:983,-0.188,0.338,0.918,-169.373,-59.876,44.921,
00:00:13:0,-0.192,0.359,0.912,-167.237,-47.425,54.687,
00:00:13:16,-0.197,0.371,0.903,-143.494,-30.03,77.087,
00:00:13:33,-0.197,0.376,0.901,-116.7,-15.564,64.086,
00:00:13:50,-0.202,0.389,0.91,-100.831,-7.386,67.688,
00:00:13:66,-0.206,0.391,0.897,-82.886,7.934,69.274,
00:00:13:83,-0.194,0.401,0.904,-78.98,15.808,66.955,
00:00:13:100,-0.204,0.403,0.907,-64.209,17.15,61.34,
00:00:13:116,-0.217,0.39,0.904,-53.833,21.484,56.945,
00:00:13:133,-0.213,0.391,0.882,-59.876,24.414,57.495,
00:00:13:150,-0.206,0.403,0.888,-44.129,24.658,53.039,
00:00:13:166,-0.201,0.404,0.877,-35.645,29.663,49.621,
00:00:13:183,-0.197,0.415,0.883,-30.335,30.029,47.607,
00:00:13:200,-0.204,0.413,0.878,-14.161,35.644,44.372,
00:00:13:216,-0.193,0.414,0.907,-15.503,29.419,38.086,
00:00:13:233,-0.207,0.393,0.899,-2.015,31.189,26.062,
00:00:13:250,-0.207,0.388,0.883,-15.259,31.433,22.155,
00:00:13:266,-0.204,0.398,0.889,-28.016,24.414,18.432,
00:00:13:283,-0.217,0.401,0.883,-22.034,27.648,17.517,
00:00:13:300,-0.207,0.404,0.876,-12.818,27.099,17.578,
00:00:13:316,-0.201,0.405,0.886,-2.198,28.198,18.31,
00:00:13:333,-0.201,0.401,0.896,5.92,26.062,11.352,
00:00:13:350,-0.204,0.392,0.892,-0.794,23.315,3.356,
00:00:13:366,-0.205,0.393,0.893,-17.09,22.705,-2.625,
00:00:13:383,-0.203,0.409,0.886,-19.165,23.681,-7.63,
00:00:13:400,-0.206,0.413,0.884,-12.94,21.85,-11.475,
00:00:13:416,-0.208,0.419,0.887,-4.09,23.559,-12.574,
00:00:13:433,-0.206,0.406,0.884,2.441,25.207,-17.579,
00:00:13:450,-0.207,0.401,0.889,8.483,26.123,-19.41,
00:00:13:466,-0.2,0.395,0.887,5.31,21.972,-25.757,
00:00:13:483,-0.198,0.395,0.89,-1.099,17.578,-29.358,
00:00:13:500,-0.199,0.4,0.885,-9.644,13.427,-33.875,
00:00:13:516,-0.203,0.411,0.879,-9.4,10.681,-36.072,
00:00:13:533,-0.202,0.416,0.884,-2.015,11.596,-37.659,
00:00:13:550,-0.199,0.404,0.882,5.249,7.873,-39.978,
00:00:13:566,-0.198,0.403,0.889,-2.686,2.807,-37.659,
00:00:13:583,-0.202,0.404,0.881,0.732,-0.306,-39.673,
00:00:13:600,-0.2,0.408,0.887,3.601,-0.55,-38.636,
00:00:13:616,-0.195,0.402,0.882,5.737,-1.831,-39.551,
00:00:13:633,-0.19,0.406,0.884,6.774,-2.869,-36.927,
00:00:13:650,-0.192,0.4,0.886,8.483,-5.188,-36.194,
00:00:13:666,-0.202,0.394,0.883,5.676,-9.522,-36.133,
00:00:13:683,-0.202,0.404,0.888,0.61,-12.94,-36.805,
00:00:13:700,-0.208,0.412,0.877,-4.822,-12.635,-35.157,
00:00:13:716,-0.205,0.413,0.885,10.986,-7.874,-36.072,
00:00:13:733,-0.2,0.394,0.893,4.394,-2.259,-34.668,
00:00:13:750,-0.208,0.395,0.888,2.38,-2.015,-32.471,
00:00:13:766,-0.209,0.404,0.885,-2.564,1.098,-28.626,
00:00:13:783,-0.211,0.404,0.88,0.793,2.197,-28.931,
00:00:13:800,-0.208,0.411,0.884,2.868,3.479,-24.109,
00:00:13:816,-0.201,0.409,0.88,7.385,3.173,-22.034,
00:00:13:833,-0.2,0.409,0.88,9.277,2.99,-20.752,
00:00:13:850,-0.2,0.401,0.884,10.62,2.38,-18.738,
00:00:13:866,-0.202,0.401,0.885,5.859,-4.212,-20.142,
00:00:13:883,-0.205,0.405,0.883,2.563,-6.958,-22.217,
00:00:13:900,-0.206,0.407,0.883,0.122,-7.264,-23.072,
00:00:13:916,-0.21,0.411,0.881,-3.296,-5.799,-21.851,
00:00:13:933,-0.212,0.414,0.878,3.173,-6.226,-20.203,
00:00:13:950,-0.212,0.411,0.882,8.728,-4.395,-17.151,
00:00:13:966,-0.211,0.401,0.881,10.559,-4.334,-14.771,
00:00:13:983,-0.213,0.402,0.886,11.352,-6.592,-14.222,
00:00:14:0,-0.209,0.402,0.884,10.803,-5.677,-15.076,
00:00:14:16,-0.21,0.401,0.884,9.948,-7.63,-15.503,
00:00:14:33,-0.206,0.403,0.886,5.127,-6.104,-16.297,
00:00:14:50,-0.201,0.404,0.883,1.098,-7.752,-19.41,
00:00:14:66,-0.205,0.411,0.882,0,-9.278,-15.381,
00:00:14:83,-0.209,0.406,0.877,3.234,-10.193,-15.015,
00:00:14:100,-0.211,0.409,0.881,5.615,-10.621,-12.207,
00:00:14:116,-0.215,0.408,0.879,5.188,-13.489,-13.062,
00:00:14:133,-0.216,0.405,0.881,8.667,-15.564,-14.039,
00:00:14:150,-0.217,0.401,0.883,3.418,-18.311,-15.198,
00:00:14:166,-0.215,0.397,0.882,-1.954,-20.447,-31.25,
00:00:14:183,-0.22,0.404,0.877,-9.461,-24.353,-13.916,
00:00:14:200,-0.219,0.404,0.873,-12.33,-25.452,-13.489,
00:00:14:216,-0.218,0.412,0.881,-8.484,-27.649,-9.339,
00:00:14:233,-0.223,0.405,0.878,-4.273,-24.109,-8.179,
00:00:14:250,-0.224,0.401,0.884,-3.296,-25.818,-6.47,
00:00:14:266,-0.228,0.398,0.878,-7.508,-23.377,-1.465,
00:00:14:283,-0.231,0.398,0.883,-11.231,-21.119,-1.282,
00:00:14:300,-0.23,0.405,0.883,-15.931,-22.034,-0.916,
00:00:14:316,-0.23,0.405,0.876,-15.015,-17.64,-2.808,
00:00:14:333,-0.228,0.409,0.879,-20.081,-18.494,-0.489,
00:00:14:350,-0.233,0.408,0.878,-22.522,-15.992,0.366,
00:00:14:366,-0.234,0.413,0.876,-21.058,-15.32,2.624,
00:00:14:383,-0.243,0.41,0.873,-18.616,-13.489,2.685,
00:00:14:400,-0.242,0.413,0.871,-15.992,-16.236,6.103,
00:00:14:416,-0.245,0.413,0.872,-10.987,-14.649,7.568,
00:00:14:433,-0.246,0.41,0.867,-6.714,-12.085,6.652,
00:00:14:450,-0.241,0.414,0.867,-14.405,-13.245,8.606,
00:00:14:466,-0.243,0.417,0.863,-15.076,-13.306,7.08,
00:00:14:483,-0.244,0.419,0.869,-16.419,-17.456,6.591,
00:00:14:500,-0.247,0.421,0.871,-13.916,-17.151,5.615,
00:00:14:516,-0.246,0.422,0.865,-8.728,-19.715,4.455,
00:00:14:533,-0.252,0.419,0.863,-9.095,-18.616,2.441,
00:00:14:550,-0.247,0.413,0.865,-6.348,-21.607,0.061,
00:00:14:566,-0.248,0.415,0.871,-9.644,-25.33,-5.555,
00:00:14:583,-0.253,0.416,0.862,-6.714,-26.551,-5.127,
00:00:14:600,-0.252,0.42,0.866,-10.132,-26.734,-3.602,
00:00:14:616,-0.256,0.425,0.859,-8.728,-26.246,-3.174,
00:00:14:633,-0.257,0.426,0.863,-7.508,-30.884,-2.076,
00:00:14:650,-0.261,0.422,0.862,-4.883,-28.626,-4.334,
00:00:14:666,-0.268,0.42,0.864,-5.066,-26.001,-6.043,
00:00:14:683,-0.266,0.421,0.861,-4.273,-24.353,-7.264,
00:00:14:700,-0.262,0.423,0.864,-4.578,-23.865,-9.4,
00:00:14:716,-0.268,0.416,0.864,0.854,-22.706,-11.658,
00:00:14:733,-0.268,0.415,0.862,-3.663,-22.339,-13.55,
00:00:14:750,-0.273,0.42,0.863,-6.714,-19.898,-12.207,
00:00:14:766,-0.272,0.424,0.857,-4.7,-17.029,-11.719,
00:00:14:783,-0.272,0.424,0.863,0.305,-14.771,-9.095,
00:00:14:800,-0.271,0.42,0.859,1.037,-12.513,-9.461,
00:00:14:816,-0.279,0.415,0.864,-0.611,-10.01,-10.987,
00:00:14:833,-0.279,0.42,0.864,-5.677,-6.165,-11.963,
00:00:14:850,-0.281,0.42,0.857,-6.409,-3.846,-12.757,
00:00:14:866,-0.276,0.427,0.858,-3.663,-2.137,-14.405,
00:00:14:883,-0.274,0.423,0.856,-0.672,0.915,-14.161,
00:00:14:900,-0.268,0.421,0.861,-1.221,2.441,-14.1,
00:00:14:916,-0.27,0.419,0.858,-6.104,1.525,-15.137,
00:00:14:933,-0.276,0.423,0.858,-3.602,1.403,-11.353,
00:00:14:950,-0.285,0.422,0.852,-4.273,2.868,-12.024,
00:00:14:966,-0.286,0.423,0.858,-3.296,2.807,-12.574,
00:00:14:983,-0.283,0.431,0.853,-4.7,2.197,-13.55,
00:00:15:0,-0.276,0.428,0.854,2.624,2.319,-18.311,
00:00:15:16,-0.272,0.427,0.856,2.868,0.183,-15.931,
00:00:15:33,-0.275,0.421,0.854,0.244,-1.221,-19.349,
00:00:15:50,-0.275,0.425,0.858,-0.55,-3.968,-18.006,
00:00:15:66,-0.276,0.423,0.853,-1.954,-4.395,-18.921,
00:00:15:83,-0.279,0.427,0.86,-0.855,-4.883,-18.128,
00:00:15:100,-0.284,0.425,0.854,0.976,-5.005,-20.142,
00:00:15:116,-0.285,0.423,0.855,0.305,-2.32,-22.156,
00:00:15:133,-0.284,0.427,0.855,-1.221,-3.785,-22.583,
00:00:15:150,-0.283,0.427,0.856,2.746,-0.489,-24.048,
00:00:15:166,-0.278,0.426,0.857,5.554,0.305,-22.95,
00:00:15:183,-0.279,0.42,0.854,4.211,1.281,-20.264,
00:00:15:200,-0.281,0.424,0.857,1.77,-0.55,-18.555,
00:00:15:216,-0.285,0.422,0.854,2.746,0.671,-18.433,
00:00:15:233,-0.286,0.425,0.855,6.408,-0.306,-16.846,
00:00:15:250,-0.286,0.428,0.856,4.394,-3.296,-18.433,
00:00:15:266,-0.286,0.423,0.854,5.371,-2.442,-18.311,
00:00:15:283,-0.284,0.426,0.852,4.394,-1.038,-16.663,
00:00:15:300,-0.253,0.419,0.853,2.807,-2.503,-17.334,
00:00:15:316,-0.313,0.425,0.853,0.854,-4.578,-16.114,
00:00:15:333,-0.285,0.425,0.845,3.051,-7.325,-13.428,
00:00:15:350,-0.287,0.426,0.854,5.188,-8.789,-14.771,
00:00:15:366,-0.288,0.426,0.85,4.333,-9.766,-13.794,
00:00:15:383,-0.289,0.424,0.847,2.807,-11.109,-15.259,
00:00:15:400,-0.293,0.416,0.848,-3.479,-7.691,-30.701,
00:00:15:416,-0.289,0.413,0.846,-0.733,-11.048,-15.381,
00:00:15:433,-0.29,0.424,0.846,-2.198,-8.912,-9.522,
00:00:15:450,-0.295,0.419,0.851,2.502,-10.865,-10.804,
00:00:15:466,-0.293,0.424,0.849,-4.944,-8.301,-10.071,
00:00:15:483,-0.296,0.423,0.851,-0.855,-8.057,-10.743,
00:00:15:500,-0.297,0.422,0.85,0,-6.531,-10.254,
00:00:15:516,-0.295,0.424,0.855,0.976,-7.081,-9.339,
00:00:15:533,-0.297,0.415,0.85,0.915,-5.494,-10.01,
00:00:15:550,-0.293,0.423,0.853,-5.372,-4.578,-6.897,
00:00:15:566,-0.299,0.434,0.852,-4.273,-4.334,-5.188,
00:00:15:583,-0.302,0.425,0.843,0,-3.785,-5.738,
00:00:15:600,-0.303,0.426,0.849,3.54,-1.709,-5.86,
00:00:15:616,-0.3,0.421,0.843,2.38,-3.968,-7.081,
00:00:15:633,-0.298,0.426,0.845,0.549,-6.653,-6.47,
00:00:15:650,-0.297,0.423,0.85,-2.625,-10.193,-6.47,
00:00:15:666,-0.304,0.428,0.846,-3.602,-11.475,-7.386,
00:00:15:683,-0.305,0.431,0.846,-2.503,-11.658,-6.653,
00:00:15:700,-0.306,0.432,0.842,-0.977,-14.466,-7.508,
00:00:15:716,-0.306,0.434,0.843,3.784,-13.733,-6.165,
00:00:15:733,-0.295,0.451,0.848,-11.658,-20.203,-67.322,
00:00:15:750,-0.311,0.403,0.853,25.756,-14.649,13.305,
00:00:15:766,-0.313,0.416,0.847,-4.212,-23.56,-11.231,
00:00:15:783,-0.31,0.434,0.84,-0.367,-15.503,-1.282,
00:00:15:800,-0.316,0.43,0.842,1.586,-20.935,-2.869,
00:00:15:816,-0.314,0.432,0.84,5.676,-21.119,-3.907,
00:00:15:833,-0.317,0.426,0.843,6.897,-23.621,-3.968,
00:00:15:850,-0.321,0.424,0.841,4.211,-20.935,-6.47,
00:00:15:866,-0.318,0.423,0.846,5.554,-19.471,-7.264,
00:00:15:883,-0.323,0.418,0.843,1.159,-19.593,-7.874,
00:00:15:900,-0.321,0.422,0.841,-3.663,-18.189,-9.949,
00:00:15:916,-0.329,0.429,0.842,-3.907,-18.067,-4.578,
00:00:15:933,-0.326,0.428,0.84,-2.198,-15.931,-7.63,
00:00:15:950,-0.327,0.428,0.839,-0.306,-11.353,-2.076,
00:00:15:966,-0.33,0.427,0.842,4.089,-11.597,-1.831,
00:00:15:983,-0.333,0.421,0.843,2.38,-10.926,-3.296,
00:00:16:0,-0.337,0.425,0.836,-0.733,-6.165,-4.029,
00:00:16:16,-0.328,0.426,0.846,-0.428,-5.799,-4.456,
00:00:16:33,-0.329,0.427,0.838,-0.733,-4.761,-4.029,
00:00:16:50,-0.332,0.427,0.839,1.403,-5.555,-3.479,
00:00:16:66,-0.333,0.43,0.841,-0.489,-4.212,-3.785,
00:00:16:83,-0.333,0.431,0.837,-4.944,-2.503,-3.479,
00:00:16:100,-0.336,0.428,0.834,-6.836,-1.343,-5.982,
00:00:16:116,-0.339,0.431,0.833,-5.616,-1.038,-6.836,
00:00:16:133,-0.334,0.433,0.838,0.976,-0.184,-7.203,
00:00:16:150,-0.34,0.427,0.832,3.295,3.295,-8.301,
00:00:16:166,-0.338,0.421,0.839,2.929,0.915,-10.987,
00:00:16:183,-0.335,0.423,0.838,-2.198,1.342,-12.757,
00:00:16:200,-0.331,0.425,0.835,-4.517,1.281,-13.184,
00:00:16:216,-0.332,0.432,0.836,-2.503,-1.77,-9.217,
00:00:16:233,-0.338,0.429,0.832,0.61,0.122,-9.888,
00:00:16:250,-0.345,0.428,0.832,1.831,-1.465,-10.193,
00:00:16:266,-0.346,0.424,0.831,-0.55,-1.404,-13.916,
00:00:16:283,-0.34,0.431,0.835,1.586,-3.602,-18.067,
00:00:16:300,-0.34,0.437,0.83,3.295,-4.334,-17.029,
00:00:16:316,-0.341,0.427,0.832,13.61,-5.494,-17.64,
00:00:16:333,-0.341,0.427,0.834,9.765,-5.433,-18.921,
00:00:16:350,-0.344,0.426,0.828,7.385,-6.531,-23.865,
00:00:16:366,-0.34,0.465,0.838,-2.93,-9.949,-48.768,
00:00:16:383,-0.343,0.409,0.836,23.071,-3.968,-19.532,
00:00:16:400,-0.343,0.419,0.835,6.652,-4.334,-23.804,
00:00:16:416,-0.344,0.429,0.835,6.958,-1.831,-14.771,
00:00:16:433,-0.34,0.419,0.836,14.77,-2.808,-15.198,
00:00:16:450,-0.375,0.421,0.835,4.028,-4.273,-14.466,
00:00:16:466,-0.345,0.427,0.828,0.915,-3.907,-14.771,
00:00:16:483,-0.346,0.433,0.833,-1.16,-2.869,-14.222,
00:00:16:500,-0.347,0.433,0.83,3.723,-1.404,-16.48,
00:00:16:516,-0.346,0.433,0.837,8.483,-0.306,-17.456,
00:00:16:533,-0.35,0.423,0.834,10.009,0.915,-17.212,
00:00:16:550,-0.35,0.417,0.837,4.455,-0.55,-17.212,
00:00:16:566,-0.349,0.423,0.834,-2.93,0.854,-16.602,
00:00:16:583,-0.351,0.426,0.829,0.854,0,-16.785,
00:00:16:600,-0.349,0.428,0.83,2.258,1.953,-14.344,
00:00:16:616,-0.346,0.423,0.828,5.31,5.615,-14.832,
00:00:16:633,-0.346,0.423,0.835,1.342,3.845,-13.977,
00:00:16:650,-0.351,0.424,0.828,-3.052,5.432,-13.184,
00:00:16:667,-0.353,0.428,0.83,-8.057,6.591,-13.306,
00:00:16:683,-0.351,0.432,0.827,-4.761,7.141,-12.146,
00:00:16:700,-0.353,0.428,0.832,3.601,9.46,-11.963,
00:00:16:717,-0.351,0.427,0.832,2.929,10.62,-10.437,
00:00:16:733,-0.351,0.424,0.828,3.356,9.46,-11.536,
00:00:16:750,-0.35,0.428,0.83,-2.503,10.131,-11.597,
00:00:16:767,-0.35,0.428,0.827,0.61,9.704,-11.536,
00:00:16:783,-0.347,0.429,0.831,-1.099,8.667,-11.475,
00:00:16:800,-0.352,0.427,0.827,2.868,8.361,-9.949,
00:00:16:817,-0.35,0.429,0.831,-0.306,6.774,-11.963,
00:00:16:833,-0.352,0.429,0.827,-0.55,5.249,-12.635,
00:00:16:850,-0.351,0.433,0.824,-2.991,5.676,-15.442,
00:00:16:867,-0.355,0.437,0.823,0.549,4.455,-14.771,
00:00:16:883,-0.353,0.429,0.829,9.216,7.69,-17.518,
00:00:16:900,-0.355,0.427,0.832,7.263,5.615,-18.555,
00:00:16:917,-0.35,0.426,0.828,4.211,6.713,-20.508,
00:00:16:933,-0.348,0.425,0.833,6.042,4.943,-17.823,
00:00:16:950,-0.351,0.425,0.828,-1.099,5.31,-17.456,
00:00:16:967,-0.352,0.427,0.83,-2.198,3.295,-18.433,
00:00:16:983,-0.355,0.435,0.824,0.671,3.234,-17.395,
00:00:17:0,-0.359,0.431,0.828,7.08,7.446,-18.372,
00:00:17:17,-0.359,0.431,0.83,8.3,10.192,-18.25,
00:00:17:33,-0.353,0.424,0.827,8.239,10.009,-19.227,
00:00:17:50,-0.355,0.426,0.83,5.127,9.46,-19.776,
00:00:17:67,-0.352,0.426,0.827,2.624,9.826,-20.935,
00:00:17:83,-0.35,0.433,0.827,2.868,8.361,-21.546,
00:00:17:100,-0.35,0.431,0.826,2.807,5.371,-23.621,
00:00:17:117,-0.353,0.427,0.825,4.028,4.272,-24.353,
00:00:17:133,-0.354,0.429,0.829,6.042,3.479,-22.828,
00:00:17:150,-0.356,0.428,0.826,8.972,3.295,-24.537,
00:00:17:167,-0.353,0.429,0.827,11.291,5.31,-21.607,
00:00:17:183,-0.355,0.422,0.83,9.155,4.76,-22.339,
00:00:17:200,-0.35,0.426,0.833,1.709,4.272,-24.781,
00:00:17:217,-0.354,0.428,0.828,-1.099,5.615,-23.316,
00:00:17:233,-0.353,0.43,0.828,7.08,8.361,-22.278,
00:00:17:250,-0.353,0.427,0.825,5.615,8.3,-20.02,
00:00:17:267,-0.355,0.428,0.833,5.188,11.108,-18.433,
00:00:17:283,-0.357,0.432,0.827,5.554,11.413,-20.264,
00:00:17:300,-0.351,0.429,0.828,9.399,11.718,-21.546,
00:00:17:317,-0.35,0.429,0.833,3.906,13.671,-21.912,
00:00:17:333,-0.354,0.425,0.829,6.347,10.742,-21.912,
00:00:17:350,-0.354,0.43,0.828,5.432,10.131,-22.889,
00:00:17:367,-0.356,0.431,0.828,5.615,12.146,-21.485,
00:00:17:383,-0.355,0.427,0.828,8.056,11.413,-23.133,
00:00:17:400,-0.354,0.427,0.831,6.286,8.178,-21.668,
00:00:17:417,-0.352,0.427,0.83,8.056,10.559,-24.109,
00:00:17:433,-0.353,0.432,0.829,9.216,5.31,-24.659,
00:00:17:450,-0.354,0.426,0.826,8.667,5.92,-25.025,
00:00:17:467,-0.356,0.429,0.829,6.897,4.882,-23.377,
00:00:17:483,-0.354,0.429,0.828,8.178,6.958,-23.621,
00:00:17:500,-0.35,0.425,0.832,10.192,5.188,-25.94,
00:00:17:517,-0.353,0.43,0.832,6.408,8.85,-23.194,
00:00:17:533,-0.356,0.424,0.826,7.507,8.117,-23.682,
00:00:17:550,-0.357,0.426,0.827,6.958,10.437,-23.316,
00:00:17:567,-0.355,0.426,0.827,5.127,10.559,-23.316,
00:00:17:583,-0.353,0.429,0.831,8.361,9.521,-21.424,
00:00:17:600,-0.353,0.425,0.832,4.76,12.023,-20.386,
00:00:17:617,-0.353,0.427,0.824,3.784,11.962,-21.912,
00:00:17:633,-0.355,0.435,0.829,4.516,10.62,-21.119,
00:00:17:650,-0.354,0.429,0.824,8.911,8.544,-22.217,
00:00:17:667,-0.352,0.425,0.831,10.315,7.507,-20.447,
00:00:17:683,-0.352,0.431,0.823,3.845,6.774,-21.851,
00:00:17:700,-0.355,0.427,0.827,8.3,6.958,-21.912,
00:00:17:717,-0.354,0.424,0.829,12.329,5.737,-22.522,
00:00:17:733,-0.35,0.421,0.826,8.85,3.601,-23.377,
00:00:17:750,-0.352,0.432,0.829,5.371,3.295,-24.109,
00:00:17:767,-0.352,0.43,0.831,7.141,3.479,-24.659,
00:00:17:783,-0.35,0.426,0.832,7.873,4.028,-23.499,
00:00:17:800,-0.356,0.423,0.826,4.943,4.76,-25.574,
00:00:17:817,-0.353,0.428,0.825,5.065,3.906,-24.659,
00:00:17:833,-0.355,0.427,0.829,4.394,3.418,-23.743,
00:00:17:850,-0.354,0.429,0.83,6.958,4.028,-23.987,
00:00:17:867,-0.355,0.429,0.83,8.911,7.507,-21.058,
00:00:17:883,-0.356,0.42,0.832,10.864,8.117,-23.316,
00:00:17:900,-0.358,0.424,0.834,3.784,9.338,-22.889,
00:00:17:917,-0.353,0.43,0.824,3.662,9.216,-23.011,
00:00:17:933,-0.354,0.431,0.828,8.972,8.972,-22.583,
00:00:17:950,-0.355,0.428,0.829,9.338,12.207,-20.874,
00:00:17:967,-0.35,0.424,0.83,8.117,11.23,-23.438,
00:00:17:983,-0.352,0.428,0.829,2.441,12.146,-21.485,
00:00:18:0,-0.352,0.424,0.827,3.723,10.864,-20.264,
00:00:18:17,-0.355,0.429,0.829,3.967,9.338,-19.776,
00:00:18:33,-0.356,0.428,0.827,4.333,10.315,-21.607,
00:00:18:50,-0.353,0.43,0.83,6.897,10.681,-20.386,
00:00:18:67,-0.352,0.426,0.827,9.216,9.826,-19.898,
00:00:18:83,-0.349,0.424,0.829,6.347,9.704,-20.142,
00:00:18:100,-0.353,0.426,0.828,3.051,8.789,-18.433,
00:00:18:117,-0.354,0.427,0.828,0.732,8.361,-20.386,
00:00:18:133,-0.355,0.432,0.828,0.976,11.169,-20.997,
00:00:18:150,-0.355,0.428,0.823,6.897,9.094,-22.4,
00:00:18:167,-0.355,0.429,0.827,9.155,7.263,-21.424,
00:00:18:183,-0.355,0.431,0.821,11.413,6.164,-21.485,
00:00:18:200,-0.354,0.428,0.828,14.953,6.53,-22.889,
00:00:18:217,-0.349,0.423,0.83,11.901,5.859,-21.546,
00:00:18:233,-0.348,0.424,0.831,7.202,3.54,-22.95,
00:00:18:250,-0.352,0.427,0.828,2.258,1.953,-22.095,
00:00:18:267,-0.357,0.426,0.828,5.31,2.319,-22.278,
00:00:18:283,-0.356,0.431,0.827,4.516,4.211,-22.278,
00:00:18:300,-0.357,0.428,0.823,7.08,4.333,-19.532,
00:00:18:317,-0.355,0.425,0.83,10.986,5.493,-20.02,
00:00:18:333,-0.357,0.426,0.826,10.376,7.324,-20.874,
00:00:18:350,-0.352,0.421,0.832,6.408,6.042,-19.898,
00:00:18:367,-0.351,0.426,0.829,3.662,5.188,-19.349,
00:00:18:383,-0.357,0.428,0.829,5.981,4.699,-20.997,
00:00:18:400,-0.356,0.429,0.825,4.516,4.699,-20.325,
00:00:18:417,-0.357,0.425,0.822,6.225,8.3,-21.18,
00:00:18:433,-0.355,0.425,0.834,3.723,5.249,-20.691,
00:00:18:450,-0.356,0.424,0.823,2.075,5.065,-20.447,
00:00:18:467,-0.356,0.426,0.827,3.845,4.394,-21.363,
00:00:18:483,-0.357,0.43,0.825,4.089,4.394,-19.715,
00:00:18:500,-0.355,0.428,0.829,9.948,4.516,-21.546,
00:00:18:517,-0.359,0.427,0.828,7.324,5.432,-19.837,
00:00:18:533,-0.355,0.426,0.827,8.544,4.943,-20.752,
00:00:18:550,-0.357,0.423,0.831,6.103,4.15,-20.203,
00:00:18:567,-0.361,0.42,0.827,4.211,4.76,-23.804,
00:00:18:583,-0.355,0.431,0.828,0.793,7.202,-23.011,
00:00:18:600,-0.36,0.427,0.821,5.859,4.821,-21.729,
00:00:18:617,-0.358,0.43,0.83,10.498,7.629,-19.593,
00:00:18:633,-0.357,0.426,0.828,12.695,10.925,-19.593,
00:00:18:650,-0.355,0.425,0.83,15.625,8.3,-20.203,
00:00:18:667,-0.355,0.425,0.83,7.324,8.911,-18.067,
00:00:18:683,-0.356,0.421,0.83,6.958,9.46,-18.006,
00:00:18:700,-0.357,0.426,0.831,1.953,8.3,-18.555,
00:00:18:717,-0.362,0.427,0.825,3.356,8.117,-21.241,
00:00:18:733,-0.359,0.431,0.822,6.713,6.713,-21.973,
00:00:18:750,-0.36,0.426,0.821,8.911,6.713,-23.316,
00:00:18:767,-0.355,0.426,0.826,6.774,4.699,-23.987,
00:00:18:783,-0.354,0.43,0.82,11.047,1.281,-22.767,
00:00:18:800,-0.356,0.426,0.829,15.686,-0.428,-22.889,
00:00:18:817,-0.359,0.425,0.83,11.657,-0.367,-23.499,
00:00:18:833,-0.359,0.42,0.832,8.85,1.525,-25.391,
00:00:18:850,-0.358,0.425,0.829,1.648,0.122,-26.001,
00:00:18:867,-0.36,0.431,0.822,1.831,-1.465,-25.818,
00:00:18:883,-0.36,0.428,0.825,10.437,0.244,-26.246,
00:00:18:900,-0.359,0.42,0.826,14.465,3.112,-24.964,
00:00:18:917,-0.36,0.417,0.829,8.361,3.784,-24.598,
00:00:18:933,-0.361,0.426,0.826,0.854,2.075,-23.499,
00:00:18:950,-0.361,0.431,0.824,7.446,5.737,-23.194,
00:00:18:967,-0.364,0.429,0.831,10.925,6.286,-22.278,
00:00:18:983,-0.362,0.422,0.827,11.84,7.629,-21.18,
00:00:19:0,-0.356,0.424,0.83,8.667,8.239,-20.569,
00:00:19:17,-0.357,0.424,0.825,11.779,6.408,-19.837,
00:00:19:33,-0.361,0.425,0.828,14.404,7.507,-17.456,
00:00:19:50,-0.361,0.416,0.826,9.277,7.446,-16.053,
00:00:19:67,-0.361,0.422,0.826,6.225,6.225,-17.762,
00:00:19:83,-0.363,0.426,0.823,4.516,2.929,-17.395,
00:00:19:100,-0.358,0.428,0.823,10.986,2.075,-19.959,
00:00:19:117,-0.361,0.426,0.829,10.62,2.014,-18.128,
00:00:19:133,-0.359,0.421,0.832,11.291,1.648,-19.532,
00:00:19:150,-0.356,0.424,0.83,7.873,2.258,-18.494,
00:00:19:167,-0.364,0.422,0.825,9.765,3.54,-17.212,
00:00:19:183,-0.363,0.418,0.836,3.418,4.028,-19.043,
00:00:19:200,-0.365,0.423,0.826,0.244,3.723,-19.654,
00:00:19:217,-0.364,0.426,0.828,4.699,5.065,-18.86,
00:00:19:233,-0.367,0.427,0.827,7.507,5.615,-19.471,
00:00:19:250,-0.363,0.419,0.828,12.268,6.836,-18.86,
00:00:19:267,-0.361,0.421,0.832,6.958,6.347,-18.738,
00:00:19:283,-0.365,0.421,0.822,1.525,6.225,-16.968,
00:00:19:300,-0.362,0.423,0.827,4.577,5.92,-17.029,
00:00:19:317,-0.365,0.426,0.826,2.868,7.507,-14.954,
00:00:19:333,-0.363,0.42,0.827,5.554,5.31,-16.846,
00:00:19:350,-0.364,0.425,0.825,3.234,5.065,-16.114,
00:00:19:367,-0.365,0.427,0.825,6.042,5.676,-16.114,
00:00:19:383,-0.363,0.424,0.829,7.263,6.347,-16.419,
00:00:19:400,-0.365,0.42,0.826,10.376,6.408,-17.579,
00:00:19:417,-0.361,0.42,0.828,8.422,4.76,-15.259,
00:00:19:433,-0.364,0.421,0.825,5.493,6.591,-16.175,
00:00:19:450,-0.365,0.422,0.827,6.958,5.737,-18.799,
00:00:19:467,-0.367,0.426,0.827,4.699,5.615,-17.823,
00:00:19:483,-0.37,0.421,0.825,9.155,4.516,-20.935,
00:00:19:500,-0.368,0.421,0.825,7.69,8.483,-21.424,
00:00:19:517,-0.366,0.42,0.827,11.169,7.324,-22.217,
00:00:19:533,-0.363,0.421,0.828,7.446,9.399,-23.011,
00:00:19:550,-0.363,0.416,0.827,5.493,8.422,-23.743,
00:00:19:567,-0.362,0.424,0.833,2.563,10.131,-22.706,
00:00:19:583,-0.364,0.424,0.824,3.112,11.596,-23.987,
00:00:19:600,-0.366,0.424,0.83,6.042,13.366,-21.973,
00:00:19:617,-0.37,0.419,0.825,6.713,17.273,-21.363,
00:00:19:633,-0.364,0.416,0.828,6.347,15.197,-21.18,
00:00:19:650,-0.366,0.418,0.826,3.356,15.686,-17.151,
00:00:19:667,-0.364,0.416,0.827,0,14.587,-19.043,
00:00:19:683,-0.364,0.422,0.829,1.342,16.113,-16.297,
00:00:19:700,-0.361,0.421,0.829,1.403,15.197,-16.602,
00:00:19:717,-0.363,0.424,0.826,0.793,11.84,-18.067,
00:00:19:733,-0.366,0.425,0.82,1.77,8.85,-19.043,
00:00:19:750,-0.366,0.422,0.821,7.873,4.882,-22.278,
00:00:19:767,-0.36,0.422,0.825,5.432,1.953,-23.316,
00:00:19:783,-0.361,0.424,0.82,5.493,-2.015,-22.889,
00:00:19:800,-0.363,0.424,0.827,10.253,-4.517,-22.644,
00:00:19:817,-0.362,0.421,0.826,7.629,-4.334,-25.025,
00:00:19:833,-0.365,0.426,0.829,6.652,-4.7,-26.246,
00:00:19:850,-0.367,0.423,0.825,6.469,-5.494,-28.077,
00:00:19:867,-0.367,0.42,0.828,6.836,-4.334,-28.992,
00:00:19:883,-0.369,0.427,0.827,2.868,-0.977,-28.26,
00:00:19:900,-0.366,0.42,0.825,9.399,1.831,-25.696,
00:00:19:917,-0.371,0.416,0.83,10.131,1.22,-23.804,
00:00:19:933,-0.371,0.416,0.823,6.408,3.601,-22.156,
00:00:19:950,-0.366,0.423,0.833,6.042,4.455,-22.217,
00:00:19:967,-0.369,0.422,0.825,6.286,7.141,-23.804,
00:00:19:983,-0.369,0.42,0.826,6.225,8.361,-24.231,
00:00:20:0,-0.369,0.425,0.824,4.455,12.023,-24.781,
00:00:20:17,-0.369,0.423,0.823,4.943,13.183,-25.635,
00:00:20:33,-0.365,0.42,0.821,5.92,10.559,-26.001,
00:00:20:50,-0.363,0.421,0.825,4.15,10.742,-24.292,
00:00:20:67,-0.366,0.426,0.824,3.662,8.056,-25.33,
00:00:20:83,-0.366,0.427,0.825,4.455,10.07,-28.138,
00:00:20:100,-0.367,0.428,0.828,6.469,8.911,-28.26,
00:00:20:117,-0.369,0.424,0.828,5.065,11.779,-32.715,
00:00:20:133,-0.363,0.422,0.827,5.249,12.268,-30.64,
00:00:20:150,-0.366,0.427,0.825,2.197,13.732,-31.617,
00:00:20:167,-0.366,0.426,0.826,5.432,15.38,-30.396,
00:00:20:183,-0.365,0.424,0.828,7.629,17.944,-26.917,
00:00:20:200,-0.365,0.418,0.827,6.469,17.944,-26.001,
00:00:20:217,-0.364,0.423,0.83,5.249,20.813,-23.987,
00:00:20:233,-0.365,0.42,0.826,5.188,23.01,-24.903,
00:00:20:250,-0.367,0.425,0.826,2.624,21.972,-25.879,
00:00:20:267,-0.364,0.43,0.824,3.173,22.827,-26.856,
00:00:20:283,-0.361,0.431,0.82,7.873,21.728,-29.297,
00:00:20:300,-0.36,0.431,0.826,9.643,22.216,-28.992,
00:00:20:317,-0.358,0.426,0.826,11.962,21.362,-31.006,
00:00:20:333,-0.358,0.429,0.826,10.803,19.653,-31.434,
00:00:20:350,-0.355,0.426,0.822,12.085,18.005,-32.349,
00:00:20:367,-0.358,0.425,0.826,10.131,14.404,-33.814,
00:00:20:383,-0.359,0.421,0.826,6.652,12.207,-35.767,
00:00:20:400,-0.359,0.426,0.828,6.408,12.451,-35.462,
00:00:20:417,-0.358,0.43,0.826,6.774,10.253,-36.499,
00:00:20:433,-0.359,0.427,0.823,11.901,11.474,-37.964,
00:00:20:450,-0.359,0.428,0.826,12.512,12.573,-38.392,
00:00:20:467,-0.355,0.42,0.828,17.456,11.291,-40.284,
00:00:20:483,-0.353,0.421,0.834,16.967,9.216,-38.636,
00:00:20:500,-0.355,0.421,0.831,15.747,7.69,-37.354,
00:00:20:517,-0.352,0.421,0.833,18.066,5.859,-37.293,
00:00:20:533,-0.351,0.424,0.828,14.282,3.295,-39.612,
00:00:20:550,-0.351,0.432,0.826,15.136,1.037,-40.528,
00:00:20:567,-0.356,0.433,0.824,21.24,-1.038,-41.077,
00:00:20:583,-0.36,0.427,0.825,30.944,-1.404,-43.58,
00:00:20:600,-0.361,0.423,0.837,26.489,-2.381,-49.744,
00:00:20:617,-0.363,0.424,0.83,18.31,0.61,-54.383,
00:00:20:633,-0.356,0.428,0.832,22.216,0.366,-56.092,
00:00:20:650,-0.356,0.428,0.826,24.414,3.54,-57.618,
00:00:20:667,-0.356,0.421,0.834,28.259,4.76,-61.219,
00:00:20:683,-0.353,0.418,0.833,26.855,8.728,-61.402,
00:00:20:700,-0.352,0.42,0.829,22.094,6.836,-61.951,
00:00:20:717,-0.351,0.432,0.831,23.071,6.347,-62.012,
00:00:20:733,-0.353,0.427,0.83,32.714,10.315,-61.402,
00:00:20:750,-0.351,0.424,0.835,43.884,13.61,-57.801,
00:00:20:767,-0.347,0.416,0.831,48.034,14.221,-57.251,
00:00:20:783,-0.345,0.411,0.836,50.598,31.127,-54.871,
00:00:20:800,-0.372,0.411,0.84,43.396,13,-57.007,
00:00:20:817,-0.342,0.414,0.841,39.856,10.315,-59.632,
00:00:20:833,-0.346,0.419,0.841,35.522,11.84,-59.937,
00:00:20:850,-0.349,0.424,0.836,38.818,14.099,-63.843,
00:00:20:867,-0.351,0.428,0.839,43.151,18.92,-62.561,
00:00:20:883,-0.349,0.421,0.833,46.325,20.996,-67.505,
00:00:20:900,-0.347,0.419,0.841,53.649,27.587,-69.336,
00:00:20:917,-0.347,0.414,0.84,54.443,33.264,-69.092,
00:00:20:933,-0.344,0.411,0.848,58.715,35.949,-70.069,
00:00:20:950,-0.339,0.409,0.85,61.95,41.381,-68.055,
00:00:20:967,-0.335,0.403,0.851,63.476,46.691,-69.458,
00:00:20:983,-0.329,0.404,0.855,63.598,50.659,-65.857,
00:00:21:0,-0.33,0.401,0.852,60.73,54.565,-65.552,
00:00:21:17,-0.332,0.402,0.854,55.236,57.19,-66.712,
00:00:21:33,-0.334,0.407,0.854,52.917,65.063,-66.224,
00:00:21:50,-0.332,0.408,0.853,55.481,73.425,-68.299,
00:00:21:67,-0.322,0.408,0.849,54.443,81.481,-66.651,
00:00:21:83,-0.318,0.41,0.85,57.495,85.022,-68.36,
00:00:21:100,-0.313,0.409,0.855,58.105,90.148,-64.331,
00:00:21:117,-0.31,0.395,0.852,61.95,94.36,-60.12,
00:00:21:133,-0.31,0.393,0.862,60.302,97.717,-54.627,
00:00:21:150,-0.316,0.392,0.862,61.035,99.06,-53.833,
00:00:21:167,-0.307,0.402,0.875,59.143,107.971,-56.946,
00:00:21:183,-0.294,0.395,0.873,71.289,120.971,-60.181,
00:00:21:200,-0.279,0.383,0.87,73.12,123.84,-63.416,
00:00:21:217,-0.27,0.379,0.879,56.701,120.3,-65.125,
00:00:21:233,-0.27,0.381,0.868,47.607,114.807,-70.801,
00:00:21:250,-0.265,0.389,0.876,44.982,111.023,-71.9,
00:00:21:267,-0.263,0.389,0.878,50.415,107.299,-75.867,
00:00:21:283,-0.256,0.388,0.879,56.396,99.792,-78.003,
00:00:21:300,-0.257,0.383,0.872,52.246,93.261,-78.736,
00:00:21:317,-0.257,0.382,0.846,52.795,84.411,-77.332,
00:00:21:333,-0.254,0.379,0.882,56.091,80.261,-75.684,
00:00:21:350,-0.25,0.374,0.885,64.148,76.294,-76.722,
00:00:21:367,-0.245,0.367,0.89,62.927,69.091,-77.82,
00:00:21:383,-0.238,0.367,0.889,61.584,64.27,-80.872,
00:00:21:400,-0.229,0.371,0.89,51.574,56.823,-81.91,
00:00:21:417,-0.224,0.368,0.887,42.236,53.588,-84.473,
00:00:21:433,-0.225,0.375,0.894,35.644,48.156,-87.159,
00:00:21:450,-0.223,0.372,0.894,29.113,44.494,-90.516,
00:00:21:467,-0.228,0.373,0.896,27.221,43.518,-93.689,
00:00:21:483,-0.225,0.369,0.898,27.587,43.151,-97.413,
00:00:21:500,-0.222,0.361,0.898,26.916,40.161,-96.741,
00:00:21:517,-0.225,0.363,0.903,24.414,37.475,-94.666,
00:00:21:533,-0.223,0.361,0.893,23.864,34.545,-90.516,
00:00:21:550,-0.217,0.365,0.903,25.268,33.386,-86.731,
00:00:21:567,-0.211,0.363,0.893,26.367,31.738,-84.229,
00:00:21:583,-0.204,0.359,0.9,26.672,31.738,-82.703,
00:00:21:600,-0.205,0.36,0.901,21.423,28.808,-80.628,
00:00:21:617,-0.209,0.363,0.903,12.695,23.437,-79.712,
00:00:21:633,-0.206,0.369,0.897,8.606,22.338,-75.379,
00:00:21:650,-0.211,0.371,0.892,8.422,20.019,-73.426,
00:00:21:667,-0.21,0.369,0.897,7.385,19.897,-68.665,
00:00:21:683,-0.21,0.37,0.891,6.591,12.39,-62.317,
00:00:21:700,-0.21,0.367,0.901,10.986,7.995,-57.068,
00:00:21:717,-0.207,0.365,0.895,10.62,5.249,-54.017,
00:00:21:733,-0.202,0.364,0.898,8.667,2.197,-48.829,
00:00:21:750,-0.197,0.37,0.897,7.69,-2.991,-45.105,
00:00:21:767,-0.197,0.369,0.897,8.361,-8.057,-42.115,
00:00:21:783,-0.196,0.369,0.896,6.164,-13.062,-39.612,
00:00:21:800,-0.198,0.369,0.893,-0.672,-16.846,-38.758,
00:00:21:817,-0.209,0.372,0.89,-4.761,-22.767,-36.194,
00:00:21:833,-0.212,0.376,0.897,0.671,-24.659,-34.852,
00:00:21:850,-0.216,0.373,0.898,2.99,-24.964,-31.739,
00:00:21:867,-0.211,0.368,0.902,7.507,-20.691,-29.908,
00:00:21:883,-0.21,0.362,0.903,4.516,-20.02,-25.208,
00:00:21:900,-0.207,0.36,0.903,0.854,-20.508,-21.607,
00:00:21:917,-0.214,0.363,0.906,2.075,-18.921,-17.395,
00:00:21:933,-0.217,0.362,0.9,2.258,-15.992,-12.269,
00:00:21:950,-0.22,0.37,0.901,1.586,-15.198,-7.569,
00:00:21:967,-0.219,0.374,0.894,1.098,-10.498,-3.602,
00:00:21:983,-0.189,0.377,0.887,5.31,-8.912,0.244,
00:00:22:0,-0.221,0.371,0.893,-2.137,-4.212,5.127,
00:00:22:17,-0.224,0.359,0.883,3.662,-5.249,-2.381,
00:00:22:33,-0.216,0.386,0.904,-2.991,-6.47,3.54,
00:00:22:50,-0.219,0.365,0.885,3.295,-6.897,-3.479,
00:00:22:67,-0.216,0.373,0.892,-6.775,-7.996,5.188,
00:00:22:83,-0.22,0.374,0.932,8.483,-19.349,0.305,
00:00:22:100,-0.23,0.38,0.89,-2.259,-16.114,5.92,
00:00:22:117,-0.233,0.399,0.918,16.052,-24.353,0.488,
00:00:22:133,-0.234,0.386,0.883,12.512,-13.062,0.305,
00:00:22:150,-0.235,0.395,0.926,21.728,-17.945,-0.428,
00:00:22:167,-0.232,0.373,0.876,10.925,-9.156,-4.273,
00:00:22:183,-0.224,0.38,0.915,10.803,-14.588,-0.916,
00:00:22:200,-0.229,0.355,0.884,8.178,-13.977,-5.005,
00:00:22:217,-0.226,0.377,0.923,8.178,-21.302,2.38,
00:00:22:233,-0.228,0.359,0.886,15.869,-24.659,-2.991,
00:00:22:250,-0.236,0.374,0.917,13.244,-32.654,6.042,
00:00:22:267,-0.252,0.365,0.905,18.432,-36.377,7.08,
00:00:22:283,-0.272,0.364,0.917,11.535,-29.847,13.977,
00:00:22:300,-0.268,0.373,0.915,30.212,-24.17,13.671,
00:00:22:317,-0.249,0.401,0.895,31.372,-29.236,17.578,
00:00:22:333,-0.24,0.408,0.908,97.778,-35.828,21.057,
00:00:22:350,-0.23,0.383,0.922,187.133,-50.782,37.597,
00:00:22:367,-0.233,0.34,0.91,249.633,-57.618,39.794,
00:00:22:383,-0.255,0.301,0.888,226.562,-45.716,27.71,
00:00:22:400,-0.274,0.366,0.899,39.978,-28.504,-2.137,
00:00:22:417,-0.284,0.366,0.902,89.233,-14.283,3.967,
00:00:22:433,-0.27,0.34,0.917,137.024,-4.395,8.544,
00:00:22:450,-0.259,0.298,0.925,150.085,-1.038,8.728,
00:00:22:467,-0.252,0.287,0.925,111.511,-3.663,6.469,
00:00:22:483,-0.26,0.276,0.913,43.09,-4.639,-8.057,
00:00:22:500,-0.263,0.296,0.916,-13.733,-10.01,-16.297,
00:00:22:517,-0.284,0.324,0.921,-31.006,-11.048,-16.48,
00:00:22:533,-0.288,0.349,0.937,-9.522,-8.484,-17.212,
00:00:22:550,-0.292,0.339,0.946,29.235,3.173,-5.31,
00:00:22:567,-0.295,0.312,0.941,36.743,2.563,-3.663,
00:00:22:583,-0.292,0.317,0.945,27.038,1.464,6.958,
00:00:22:600,-0.283,0.345,0.953,10.192,-0.489,12.39,
00:00:22:617,-0.285,0.378,0.972,-18.006,-1.831,27.099,
00:00:22:633,-0.346,0.382,0.962,-135.315,-31.067,64.086,
00:00:22:650,-0.359,0.484,1.003,-172.12,-50.293,75.744,
00:00:22:667,-0.32,0.431,0.944,-137.33,-11.17,89.355,
00:00:22:683,-0.336,0.362,0.885,-237,-44.129,135.009,
00:00:22:700,-0.337,0.419,0.892,-260.132,-68.116,169.067,
00:00:22:717,-0.359,0.444,0.895,-211.365,-64.331,185.608,
00:00:22:733,-0.383,0.39,0.88,-179.261,-37.964,182.983,
00:00:22:750,-0.375,0.32,0.856,-229.065,-15.015,172.302,
00:00:22:767,-0.368,0.263,0.82,-365.967,1.464,161.499,
00:00:22:783,-0.362,0.285,0.811,-517.701,-1.893,160.827,
00:00:22:800,-0.377,0.362,0.795,-684.693,47.912,129.211,
00:00:22:817,-0.376,0.379,0.78,-671.753,71.838,120.117,
00:00:22:833,-0.365,0.395,0.744,-622.864,96.13,107.055,
00:00:22:850,-0.339,0.479,0.747,-546.509,104.126,109.436,
00:00:22:867,-0.318,0.543,0.762,-413.636,118.835,97.045,
00:00:22:883,-0.236,0.553,0.797,15.869,120.361,63.964,
00:00:22:900,-0.239,0.476,0.784,126.281,131.958,36.743,
00:00:22:917,-0.228,0.423,0.777,123.169,124.206,20.996,
00:00:22:933,-0.219,0.419,0.762,66.955,110.229,-0.428,
00:00:22:950,-0.229,0.434,0.774,11.23,104.98,-25.025,
00:00:22:967,-0.248,0.405,0.772,-88.318,119.384,-65.43,
00:00:22:983,-0.263,0.372,0.755,-260.926,136.23,-92.408,
00:00:23:0,-0.25,0.445,0.747,-473.023,128.357,-106.141,
00:00:23:17,-0.249,0.55,0.72,-603.882,129.455,-115.54,
00:00:23:33,-0.257,0.616,0.718,-647.339,125.854,-125.061,
00:00:23:50,-0.26,0.633,0.716,-653.87,127.563,-134.095,
00:00:23:67,-0.259,0.623,0.701,-684.632,118.835,-131.226,
00:00:23:83,-0.267,0.643,0.7,-737.427,101.623,-117.127,
00:00:23:100,-0.279,0.658,0.696,-811.585,84.167,-114.502,
00:00:23:117,-0.276,0.681,0.686,-878.479,68.115,-113.77,
00:00:23:133,-0.255,0.682,0.665,-938.111,60.791,-126.587,
00:00:23:150,-0.234,0.709,0.588,-1002.198,58.044,-107.972,
00:00:23:167,-0.219,0.815,0.535,-972.352,32.653,-73.975,
00:00:23:183,-0.207,0.926,0.49,-806.092,15.136,-51.026,
00:00:23:200,-0.242,0.909,0.491,-626.099,3.295,-75.013,
00:00:23:217,-0.269,0.84,0.51,-545.655,1.281,-85.328,
00:00:23:233,-0.256,0.836,0.507,-513.733,3.784,-80.933,
00:00:23:250,-0.229,0.881,0.494,-466.858,15.502,-54.505,
00:00:23:267,-0.214,0.906,0.432,-406.128,13.855,-39.002,
00:00:23:283,-0.23,0.862,0.44,-401.307,12.573,-46.387,
00:00:23:300,-0.243,0.816,0.418,-505.31,5.31,-34.119,
00:00:23:317,-0.233,0.819,0.364,-581.055,-7.508,-24.109,
00:00:23:333,-0.227,0.873,0.295,-596.619,-8.423,25.573,
00:00:23:350,-0.235,0.956,0.256,-522.889,-36.683,43.273,
00:00:23:367,-0.253,0.987,0.24,-376.404,-52.185,83.74,
00:00:23:383,-0.273,0.957,0.241,-252.198,-41.687,-18.189,
00:00:23:400,-0.276,0.905,0.283,-125.123,-19.654,-8.912,
00:00:23:417,-0.258,0.793,0.286,-180.542,-16.419,-24.17,
00:00:23:433,-0.244,0.778,0.266,-322.815,-27.466,-0.916,
00:00:23:450,-0.241,0.852,0.199,-423.523,-63.965,10.192,
00:00:23:467,-0.233,0.937,0.151,-420.411,-73.731,67.077,
00:00:23:483,-0.262,0.986,0.16,-289.978,-18.433,-75.562,
00:00:23:500,-0.249,1.005,0.21,-127.93,25.207,-42.176,
00:00:23:517,-0.283,0.923,0.191,93.444,26.062,12.451,
00:00:23:533,-0.284,0.879,0.203,92.224,54.321,-2.869,
00:00:23:550,-0.256,0.824,0.14,-26.612,97.717,26.489,
00:00:23:567,-0.274,0.932,0.16,-164.063,50.537,27.343,
00:00:23:583,-0.3,0.891,0.158,-206.543,91.98,-12.696,
00:00:23:600,-0.256,0.917,0.19,-189.576,126.342,-15.137,
00:00:23:617,-0.232,0.9,0.188,-155.457,115.112,-7.752,
00:00:23:633,-0.237,0.871,0.22,-151.123,101.257,-20.142,
00:00:23:650,-0.244,0.856,0.233,-157.166,100.28,-30.64,
00:00:23:667,-0.235,0.924,0.189,-201.111,102.783,-12.33,
00:00:23:683,-0.233,0.997,0.117,-156.922,102.966,-23.987,
00:00:23:700,-0.236,0.972,0.141,22.277,96.435,-34.79,
00:00:23:717,-0.243,0.948,0.199,68.603,75.866,-35.462,
00:00:23:733,-0.235,0.874,0.186,43.457,76.599,-31.495,
00:00:23:750,-0.232,0.911,0.122,31.005,48.645,-22.034,
00:00:23:767,-0.266,0.973,0.103,163.818,64.514,-25.269,
00:00:23:783,-0.26,1.009,0.121,407.47,89.599,-27.283,
00:00:23:800,-0.27,1.009,0.202,630.859,109.069,-26.307,
00:00:23:817,-0.292,0.949,0.303,698.608,128.234,-40.711,
00:00:23:833,-0.323,0.817,0.375,581.421,156.494,-37.598,
00:00:23:850,-0.29,0.706,0.36,313.659,151.123,-68.726,
00:00:23:867,-0.239,0.804,0.262,97.778,100.891,-47.364,
00:00:23:883,-0.234,1.013,0.279,43.762,84.35,-27.832,
00:00:23:900,-0.209,1.105,0.365,226.562,106.445,-59.632,
00:00:23:917,-0.157,0.973,0.409,395.446,116.943,-41.199,
00:00:23:933,-0.133,0.831,0.367,278.076,66.528,-12.146,
00:00:23:950,-0.183,0.856,0.287,105.774,35.705,3.601,
00:00:23:967,-0.233,0.86,0.301,88.256,61.34,-23.682,
00:00:23:983,-0.199,0.832,0.319,82.641,80.871,-47.608,
00:00:24:0,-0.185,0.792,0.307,60.485,77.697,-60.242,
00:00:24:17,-0.184,0.787,0.36,-2.015,79.528,-59.632,
00:00:24:33,-0.158,0.844,0.354,-71.045,58.471,-52.613,
00:00:24:50,-0.186,0.886,0.347,-57.007,46.752,-57.862,
00:00:24:67,-0.196,0.899,0.384,-43.152,37.597,-57.312,
00:00:24:83,-0.201,0.937,0.379,-26.429,21.789,-35.645,
00:00:24:100,-0.222,0.952,0.367,4.882,13,-18.86,
00:00:24:117,-0.228,0.954,0.372,39.062,9.094,-4.578,
00:00:24:133,-0.222,0.947,0.378,48.034,2.136,9.216,
00:00:24:150,-0.229,0.934,0.377,32.104,-5.127,21.667,
00:00:24:167,-0.238,0.923,0.37,-17.029,-9.461,31.799,
00:00:24:183,-0.236,0.957,0.385,-28.626,-9.827,45.41,
00:00:24:200,-0.237,0.973,0.385,-18.616,-7.447,62.316,
00:00:24:217,-0.24,0.987,0.386,15.441,-7.386,78.43,
00:00:24:233,-0.246,0.973,0.387,61.95,-8.362,96.313,
00:00:24:250,-0.245,0.981,0.39,102.05,-10.437,110.046,
00:00:24:267,-0.251,0.935,0.395,144.165,-6.653,117.248,
00:00:24:283,-0.258,0.895,0.4,121.338,-6.165,121.887,
00:00:24:300,-0.266,0.858,0.374,77.941,0.427,122.68,
00:00:24:317,-0.266,0.855,0.362,27.404,7.202,121.948,
00:00:24:333,-0.261,0.858,0.363,-0.367,20.202,117.248,
00:00:24:350,-0.258,0.846,0.358,-35.401,26.428,107.91,
00:00:24:367,-0.259,0.855,0.351,-57.251,27.832,95.153,
00:00:24:383,-0.271,0.847,0.312,-66.346,26.306,86.914,
00:00:24:400,-0.284,0.823,0.324,-49.866,33.569,79.834,
00:00:24:417,-0.277,0.812,0.315,-32.349,39.184,71.716,
00:00:24:433,-0.267,0.808,0.324,-24.659,42.358,58.227,
00:00:24:450,-0.274,0.77,0.335,-18.067,43.212,42.907,
00:00:24:467,-0.282,0.752,0.33,-46.326,40.649,27.771,
00:00:24:483,-0.285,0.771,0.331,-60.547,36.01,13.488,
00:00:24:500,-0.284,0.786,0.338,-52.613,33.935,-1.77,
00:00:24:517,-0.281,0.801,0.348,-33.692,22.399,-16.236,
00:00:24:533,-0.282,0.828,0.347,-11.902,13.427,-25.147,
00:00:24:550,-0.277,0.843,0.355,9.582,3.662,-30.457,
00:00:24:567,-0.279,0.841,0.348,10.498,-3.479,-37.11,
00:00:24:583,-0.281,0.847,0.33,-8.789,-6.775,-38.208,
00:00:24:600,-0.286,0.849,0.338,-18.616,-4.029,-44.495,
00:00:24:617,-0.274,0.848,0.34,-49.012,-1.221,-44.129,
00:00:24:633,-0.277,0.87,0.35,-53.162,-2.015,-47.425,
00:00:24:650,-0.282,0.866,0.353,-42.969,-3.418,-48.096,
00:00:24:667,-0.281,0.877,0.344,-32.044,-8.423,-53.406,
00:00:24:683,-0.292,0.875,0.339,-3.602,-8.301,-55.176,
00:00:24:700,-0.282,0.86,0.327,13.732,-1.709,-56.519,
00:00:24:717,-0.288,0.864,0.325,29.174,3.479,-55.42,
00:00:24:733,-0.278,0.883,0.313,32.165,10.62,-59.205,
00:00:24:750,-0.281,0.871,0.359,17.578,10.376,-63.355,
00:00:24:767,-0.287,0.871,0.367,-3.174,5.92,-62.073,
00:00:24:783,-0.285,0.886,0.365,0.488,2.197,-63.599,
00:00:24:800,-0.281,0.875,0.362,-4.334,-0.733,-62.256,
00:00:24:817,-0.278,0.889,0.358,-23.072,-7.142,-62.745,
00:00:24:833,-0.285,0.89,0.352,-12.818,-7.264,-62.561,
00:00:24:850,-0.281,0.893,0.346,-14.527,-9.827,-59.449,
00:00:24:867,-0.276,0.906,0.342,4.272,-9.339,-54.932,
00:00:24:883,-0.275,0.895,0.336,20.446,-5.005,-51.758,
00:00:24:900,-0.265,0.894,0.336,14.221,-2.625,-46.692,
00:00:24:917,-0.27,0.888,0.339,10.376,-1.831,-45.533,
00:00:24:933,-0.27,0.884,0.335,4.577,-2.93,-45.411,
00:00:24:950,-0.265,0.89,0.323,-4.273,-3.052,-41.382,
00:00:24:967,-0.267,0.89,0.32,-1.709,-5.249,-40.406,
00:00:24:983,-0.269,0.898,0.327,4.394,-4.334,-39.612,
00:00:25:0,-0.276,0.893,0.334,13.427,-5.616,-37.11,
00:00:25:17,-0.273,0.885,0.331,26.062,-5.494,-34.18,
00:00:25:33,-0.268,0.886,0.331,33.691,-4.578,-33.57,
00:00:25:50,-0.269,0.879,0.333,30.029,-4.09,-36.683,
00:00:25:67,-0.267,0.872,0.342,15.258,-5.31,-36.866,
00:00:25:83,-0.266,0.876,0.338,6.836,-2.198,-37.171,
00:00:25:100,-0.261,0.878,0.331,-2.015,-1.404,-37.049,
00:00:25:117,-0.263,0.874,0.334,-2.808,5.065,-37.659,
00:00:25:133,-0.258,0.884,0.327,-2.991,8.361,-37.781,
00:00:25:150,-0.262,0.876,0.336,-0.672,7.507,-36.377,
00:00:25:167,-0.261,0.883,0.329,-4.822,10.62,-36.988,
00:00:25:183,-0.264,0.891,0.327,-1.954,10.925,-36.499,
00:00:25:200,-0.264,0.887,0.326,-1.709,10.864,-35.767,
00:00:25:217,-0.263,0.88,0.323,-7.142,12.268,-34.119,
00:00:25:233,-0.263,0.881,0.329,-7.081,14.16,-33.143,
00:00:25:250,-0.263,0.881,0.328,-4.151,12.39,-33.448,
00:00:25:267,-0.267,0.876,0.336,-9.034,11.962,-35.828,
00:00:25:283,-0.266,0.883,0.334,-14.527,10.681,-35.95,
00:00:25:300,-0.263,0.887,0.327,-9.4,10.742,-36.438,
00:00:25:317,-0.258,0.885,0.324,-1.526,12.085,-36.499,
00:00:25:333,-0.258,0.878,0.324,-0.916,13.061,-36.194,
00:00:25:350,-0.256,0.884,0.33,-4.883,13.794,-34.119,
00:00:25:367,-0.259,0.889,0.34,-1.038,13.549,-32.715,
00:00:25:383,-0.259,0.891,0.343,-1.526,11.779,-34.058,
00:00:25:400,-0.264,0.896,0.339,-3.235,10.559,-31.189,
00:00:25:417,-0.261,0.894,0.332,1.709,9.033,-32.288,
00:00:25:433,-0.259,0.887,0.329,-0.184,9.887,-30.396,
00:00:25:450,-0.255,0.901,0.322,1.586,11.474,-26.673,
00:00:25:467,-0.259,0.892,0.331,6.408,14.77,-24.964,
00:00:25:483,-0.256,0.901,0.335,1.22,15.014,-21.302,
00:00:25:500,-0.261,0.9,0.347,7.446,11.84,-19.104,
00:00:25:517,-0.258,0.896,0.341,0.915,10.253,-17.029,
00:00:25:533,-0.26,0.898,0.341,3.967,6.652,-10.56,
00:00:25:550,-0.262,0.897,0.344,5.065,8.117,-8.973,
00:00:25:567,-0.262,0.896,0.342,-3.785,5.92,-6.897,
00:00:25:583,-0.264,0.898,0.341,-5.31,8.056,-4.273,
00:00:25:600,-0.261,0.905,0.33,-7.264,6.591,-2.137,
00:00:25:617,-0.265,0.902,0.33,-0.733,6.164,-0.061,
00:00:25:633,-0.268,0.907,0.335,2.99,5.92,0,
00:00:25:650,-0.27,0.901,0.339,12.756,6.347,1.342,
00:00:25:667,-0.269,0.898,0.331,11.108,7.812,2.319,
00:00:25:683,-0.271,0.902,0.333,20.141,13.977,5.188,
00:00:25:700,-0.264,0.896,0.329,23.986,16.479,7.812,
00:00:25:717,-0.265,0.892,0.323,22.033,18.249,10.803,
00:00:25:733,-0.268,0.892,0.32,16.54,21.728,13.488,
00:00:25:750,-0.265,0.902,0.314,17.211,24.169,15.014,
00:00:25:767,-0.269,0.896,0.322,28.503,26.062,18.981,pourRH
00:00:25:783,-0.268,0.896,0.329,24.231,27.587,21.545,
00:00:25:800,-0.276,0.902,0.334,31.311,27.343,25.39,
00:00:25:817,-0.282,0.896,0.339,27.343,28.93,25.756,
00:00:25:833,-0.292,0.908,0.332,16.662,28.991,30.334,
00:00:25:850,-0.306,0.909,0.338,25.695,33.996,29.907,
00:00:25:867,-0.307,0.908,0.344,30.761,37.719,38.086,
00:00:25:883,-0.311,0.911,0.344,43.09,45.105,43.945,
00:00:25:900,-0.318,0.909,0.352,55.603,49.56,53.1,
00:00:25:917,-0.317,0.903,0.352,60.791,55.297,59.265,
00:00:25:933,-0.319,0.896,0.348,58.715,57.8,63.415,
00:00:25:950,-0.32,0.903,0.337,57.434,63.049,68.176,
00:00:25:967,-0.321,0.902,0.328,50.598,67.016,70.068,
00:00:25:983,-0.323,0.885,0.344,56.396,72.692,71.167,
00:00:26:0,-0.314,0.879,0.358,59.326,76.538,80.322,
00:00:26:17,-0.318,0.844,0.37,69.152,76.232,79.162,
00:00:26:33,-0.321,0.853,0.379,90.698,76.232,80.81,
00:00:26:50,-0.322,0.86,0.386,106.201,73.913,84.106,
00:00:26:67,-0.327,0.834,0.387,130.066,76.843,81.359,
00:00:26:83,-0.327,0.839,0.393,132.934,80.749,81.909,
00:00:26:100,-0.335,0.848,0.393,154.541,80.444,78.918,
00:00:26:117,-0.339,0.846,0.395,174.56,82.519,74.829,
00:00:26:133,-0.34,0.862,0.401,191.894,84.106,76.416,
00:00:26:150,-0.343,0.865,0.405,211.609,89.721,70.556,
00:00:26:167,-0.343,0.835,0.421,220.825,91.064,64.086,
00:00:26:183,-0.348,0.8,0.436,216.797,95.398,64.636,
00:00:26:200,-0.334,0.797,0.442,217.59,98.632,59.448,
00:00:26:217,-0.332,0.77,0.454,209.961,101.196,52.551,
00:00:26:233,-0.327,0.781,0.446,203.43,103.393,49.743,
00:00:26:250,-0.323,0.766,0.447,201.782,104.187,41.015,
00:00:26:267,-0.323,0.788,0.448,202.575,112.121,40.405,
00:00:26:283,-0.313,0.812,0.441,237.06,118.53,31.189,
00:00:26:300,-0.31,0.782,0.451,267.395,116.638,28.137,
00:00:26:317,-0.317,0.78,0.477,297.424,118.347,32.287,
00:00:26:333,-0.307,0.775,0.489,308.776,115.417,26.611,
00:00:26:350,-0.311,0.743,0.515,301.391,110.717,22.888,
00:00:26:367,-0.311,0.75,0.526,279.907,109.375,23.376,
00:00:26:383,-0.307,0.742,0.539,244.384,111.389,17.822,
00:00:26:400,-0.312,0.744,0.548,210.388,114.38,18.31,
00:00:26:417,-0.306,0.754,0.551,191.284,113.403,15.686,
00:00:26:433,-0.305,0.756,0.557,181.579,108.764,18.92,
00:00:26:450,-0.303,0.748,0.555,194.336,106.384,16.296,
00:00:26:467,-0.297,0.758,0.57,219.909,108.093,27.038,
00:00:26:483,-0.293,0.752,0.571,261.901,110.839,23.803,
00:00:26:500,-0.299,0.723,0.577,284.301,113.281,29.602,
00:00:26:517,-0.3,0.709,0.592,276.001,110.839,33.63,
00:00:26:533,-0.297,0.691,0.601,250.61,108.703,31.738,
00:00:26:550,-0.307,0.693,0.618,222.961,109.253,27.71,
00:00:26:567,-0.303,0.681,0.631,198.913,106.201,24.536,
00:00:26:583,-0.317,0.71,0.633,211.12,115.783,30.639,
00:00:26:600,-0.299,0.722,0.619,292.48,121.46,33.63,
00:00:26:617,-0.307,0.719,0.639,365.905,119.14,41.931,
00:00:26:633,-0.298,0.687,0.655,418.518,123.23,48.034,
00:00:26:650,-0.292,0.633,0.665,409.24,123.413,49.682,
00:00:26:667,-0.296,0.606,0.694,376.098,119.934,48.156,
00:00:26:683,-0.299,0.577,0.709,319.946,123.352,42.114,
00:00:26:700,-0.298,0.569,0.719,235.962,121.826,36.01,
00:00:26:717,-0.292,0.577,0.728,198.303,114.502,30.456,
00:00:26:733,-0.284,0.595,0.721,194.702,111.45,23.925,
00:00:26:750,-0.279,0.598,0.722,225.036,111.023,14.099,
00:00:26:767,-0.274,0.599,0.715,253.662,107.422,14.892,
00:00:26:783,-0.277,0.586,0.722,294.86,107.177,19.714,
00:00:26:800,-0.282,0.557,0.737,321.472,111.877,23.925,
00:00:26:817,-0.291,0.552,0.758,358.215,127.563,26.184,
00:00:26:833,-0.277,0.542,0.792,404.297,132.019,0.244,
00:00:26:850,-0.274,0.552,0.806,418.579,128.234,53.711,
00:00:26:867,-0.266,0.534,0.808,463.989,129.089,49.377,
00:00:26:883,-0.269,0.516,0.798,474.548,126.098,47.241,
00:00:26:900,-0.274,0.496,0.842,453.247,122.985,58.166,
00:00:26:917,-0.268,0.474,0.828,444.519,123.84,57.739,
00:00:26:933,-0.254,0.447,0.848,425.354,119.69,60.974,
00:00:26:950,-0.253,0.435,0.872,388.794,114.807,63.781,
00:00:26:967,-0.241,0.434,0.891,393.249,108.215,66.711,
00:00:26:983,-0.242,0.399,0.9,381.347,97.229,67.443,
00:00:27:0,-0.248,0.403,0.884,395.752,94.97,62.988,
00:00:27:17,-0.252,0.373,0.858,381.347,94.726,75.927,
00:00:27:33,-0.249,0.368,0.858,373.596,96.008,64.025,
00:00:27:50,-0.243,0.36,0.879,387.024,102.966,77.453,
00:00:27:67,-0.24,0.319,0.903,388.061,106.018,72.082,
00:00:27:83,-0.23,0.289,0.921,356.75,101.684,71.472,
00:00:27:100,-0.227,0.283,0.912,325.683,90.881,68.054,
00:00:27:117,-0.232,0.287,0.904,321.167,91.308,72.387,
00:00:27:133,-0.232,0.279,0.907,322.57,94.543,66.345,
00:00:27:150,-0.229,0.256,0.912,312.317,96.069,65.795,
00:00:27:167,-0.249,0.246,0.92,309.143,93.2,63.293,
00:00:27:183,-0.22,0.232,0.928,306.579,89.965,60.546,
00:00:27:200,-0.222,0.2,0.923,299.743,91.369,55.358,
00:00:27:217,-0.218,0.198,0.933,285.095,88.745,53.222,
00:00:27:233,-0.219,0.197,0.936,278.259,89.843,52.551,
00:00:27:250,-0.211,0.178,0.947,260.437,88.378,45.593,
00:00:27:267,-0.21,0.158,0.956,245.3,86.059,42.785,
00:00:27:283,-0.21,0.133,0.975,210.876,79.528,35.644,
00:00:27:300,-0.204,0.139,0.975,178.527,66.467,27.587,
00:00:27:317,-0.207,0.159,0.964,179.382,59.509,25.634,
00:00:27:333,-0.167,0.295,1.031,222.595,24.169,45.715,
00:00:27:350,-0.224,0.076,0.987,339.477,55.236,14.892,
00:00:27:367,-0.201,0.041,1.023,183.593,51.879,9.277,
00:00:27:383,-0.163,0.137,0.965,94.116,12.146,11.657,
00:00:27:400,-0.212,0.158,0.971,157.592,19.348,15.625,
00:00:27:417,-0.206,0.126,0.957,217.956,47.119,16.723,
00:00:27:433,-0.194,0.103,0.979,224.182,43.823,26.794,
00:00:27:450,-0.199,0.123,0.983,237.548,40.954,35.278,
00:00:27:467,-0.199,0.085,0.983,271.118,52.124,36.438,
00:00:27:483,-0.19,0.067,0.975,257.568,47.851,34.545,
00:00:27:500,-0.19,0.07,0.976,242.736,40.405,38.086,
00:00:27:517,-0.204,0.045,0.984,249.389,45.044,40.71,
00:00:27:533,-0.197,0.021,0.997,238.037,45.776,31.921,
00:00:27:550,-0.193,0.017,0.996,233.886,39.917,32.165,
00:00:27:567,-0.199,0.001,0.993,227.905,37.048,33.264,
00:00:27:583,-0.193,0.005,0.979,230.896,41.931,33.203,
00:00:27:600,-0.192,0,0.98,235.962,41.32,32.714,
00:00:27:617,-0.19,-0.018,0.987,241.516,38.391,28.076,
00:00:27:633,-0.187,-0.021,0.987,253.784,36.621,32.409,
00:00:27:650,-0.193,-0.047,0.985,252.746,42.724,30.578,
00:00:27:667,-0.187,-0.055,0.994,234.375,39.245,30.09,
00:00:27:683,-0.183,-0.056,1.002,231.018,33.447,32.165,
00:00:27:700,-0.185,-0.061,1.008,235.839,31.738,30.334,
00:00:27:717,-0.179,-0.077,0.994,220.947,25.451,29.846,
00:00:27:733,-0.176,-0.068,0.989,217.224,20.202,31.799,
00:00:27:750,-0.187,-0.07,0.982,238.159,20.202,33.142,
00:00:27:767,-0.185,-0.087,0.98,252.929,29.724,34.912,
00:00:27:783,-0.172,-0.111,0.979,250.793,30.761,34.423,
00:00:27:800,-0.173,-0.117,0.972,260.742,29.602,43.762,
00:00:27:817,-0.176,-0.145,0.981,253.784,28.686,40.832,
00:00:27:833,-0.173,-0.146,0.981,245.3,22.461,41.137,
00:00:27:850,-0.181,-0.162,0.992,234.802,23.986,38.574,
00:00:27:867,-0.173,-0.173,0.99,222.839,21.118,33.02,
00:00:27:883,-0.167,-0.171,0.982,225.586,16.723,28.076,
00:00:27:900,-0.176,-0.198,0.981,222.839,17.517,33.203,
00:00:27:917,-0.172,-0.2,0.97,201.66,17.944,29.907,
00:00:27:933,-0.176,-0.214,0.959,194.702,19.897,24.78,
00:00:27:950,-0.174,-0.219,0.954,199.34,22.094,19.775,
00:00:27:967,-0.177,-0.241,0.958,208.435,29.48,16.662,
00:00:27:983,-0.172,-0.25,0.973,196.655,46.814,15.502,
00:00:28:0,-0.172,-0.235,0.962,194.58,31.799,11.047,
00:00:28:17,-0.173,-0.243,0.96,213.379,42.663,4.821,
00:00:28:33,-0.163,-0.272,0.977,182.922,45.166,2.441,
00:00:28:50,-0.155,-0.246,0.971,161.071,29.113,11.23,
00:00:28:67,-0.169,-0.258,0.974,175.293,39.428,16.967,
00:00:28:83,-0.147,-0.259,0.972,169.677,35.827,18.371,
00:00:28:100,-0.148,-0.262,0.965,184.814,34.179,25.024,
00:00:28:117,-0.147,-0.286,0.976,182.19,38.391,25.817,
00:00:28:133,-0.14,-0.278,0.966,182.495,34.423,28.015,
00:00:28:150,-0.159,-0.296,0.955,185.424,35.644,30.944,
00:00:28:167,-0.156,-0.286,0.94,204.04,37.597,33.996,
00:00:28:183,-0.159,-0.299,0.951,238.281,49.56,41.32,
00:00:28:200,-0.154,-0.305,0.955,258.789,51.94,31.433,
00:00:28:217,-0.151,-0.346,0.95,289.55,60.18,11.169,
00:00:28:233,-0.13,-0.368,0.947,304.626,59.814,60.241,
00:00:28:250,-0.148,-0.372,0.932,287.719,50.17,53.711,
00:00:28:267,-0.142,-0.395,0.901,329.284,76.049,55.175,
00:00:28:283,-0.133,-0.405,0.895,334.045,81.665,40.283,
00:00:28:300,-0.131,-0.449,0.871,374.389,93.872,15.686,
00:00:28:317,-0.099,-0.453,0.887,378.234,89.294,54.382,
00:00:28:333,-0.112,-0.43,0.886,397.461,98.266,51.391,
00:00:28:350,-0.115,-0.438,0.909,439.331,119.69,45.837,
00:00:28:367,-0.116,-0.482,0.927,451.11,118.896,3.845,
00:00:28:383,-0.08,-0.524,0.935,440.918,126.037,73.73,
00:00:28:400,-0.082,-0.507,0.936,354.431,91.674,62.805,
00:00:28:417,-0.094,-0.51,0.904,336.059,97.29,61.523,
00:00:28:433,-0.08,-0.521,0.888,330.81,92.407,47.912,
00:00:28:450,-0.071,-0.578,0.864,312.255,93.078,68.786,
00:00:28:467,-0.058,-0.589,0.841,277.099,86.364,88.501,
00:00:28:483,-0.055,-0.581,0.841,256.897,83.984,88.012,
00:00:28:500,-0.052,-0.582,0.85,261.413,87.707,83.984,
00:00:28:517,-0.058,-0.584,0.867,248.108,81.848,83.19,
00:00:28:533,-0.061,-0.58,0.858,233.581,78.125,83.679,
00:00:28:550,-0.065,-0.603,0.843,220.581,75.439,88.745,
00:00:28:567,-0.058,-0.592,0.819,212.951,70.129,89.904,
00:00:28:583,-0.059,-0.607,0.811,214.294,81.176,90.698,
00:00:28:600,-0.048,-0.619,0.813,201.965,76.965,78.552,
00:00:28:617,-0.041,-0.648,0.816,195.556,73.974,93.078,
00:00:28:633,-0.048,-0.644,0.803,171.508,63.415,93.322,
00:00:28:650,-0.043,-0.64,0.788,164.428,67.871,93.017,
00:00:28:667,-0.038,-0.624,0.776,193.603,75.073,93.383,
00:00:28:683,-0.035,-0.644,0.754,206.787,86.242,100.647,
00:00:28:700,-0.016,-0.642,0.763,221.069,95.031,114.074,
00:00:28:717,-0.014,-0.672,0.749,233.215,109.192,119.384,
00:00:28:733,0.002,-0.667,0.741,228.088,121.032,131.53,
00:00:28:750,0.017,-0.705,0.743,231.689,138.366,139.038,
00:00:28:767,0.041,-0.68,0.753,218.505,147.155,173.278,
00:00:28:783,0.039,-0.643,0.778,219.665,150.451,193.542,
00:00:28:800,0.043,-0.655,0.77,246.276,157.776,219.665,
00:00:28:817,0.05,-0.67,0.769,252.502,164.001,250.061,
00:00:28:833,0.07,-0.705,0.763,274.17,170.715,269.47,
00:00:28:850,0.092,-0.749,0.78,269.531,164.489,278.442,
00:00:28:867,0.117,-0.752,0.748,259.948,137.085,277.832,
00:00:28:883,0.132,-0.755,0.716,223.999,124.328,256.042,
00:00:28:900,0.143,-0.767,0.667,217.102,121.948,236.633,
00:00:28:917,0.163,-0.756,0.673,209.228,114.074,216.919,
00:00:28:933,0.174,-0.765,0.695,202.942,102.234,183.715,
00:00:28:950,0.181,-0.741,0.703,187.683,79.773,150.94,
00:00:28:967,0.173,-0.747,0.674,167.541,54.748,119.079,
00:00:28:983,0.167,-0.75,0.635,109.192,38.879,83.252,
00:00:29:0,0.174,-0.733,0.624,46.752,27.648,55.114,
00:00:29:17,0.179,-0.715,0.629,23.254,16.723,25.329,
00:00:29:33,0.179,-0.733,0.646,6.591,1.831,0,
00:00:29:50,0.182,-0.727,0.647,-21.607,-11.597,-20.813,
00:00:29:67,0.179,-0.742,0.597,-32.532,-16.358,-43.58,
00:00:29:83,0.164,-0.726,0.593,-45.411,-16.541,-65.125,
00:00:29:100,0.158,-0.709,0.609,-53.589,-10.193,-77.942,
00:00:29:117,0.16,-0.711,0.652,-63.538,-12.635,-84.351,
00:00:29:133,0.164,-0.698,0.667,-64.148,-15.625,-85.816,
00:00:29:150,0.17,-0.714,0.668,-48.523,-21.18,-81.421,
00:00:29:167,0.17,-0.767,0.656,-80.567,-18.189,-81.36,
00:00:29:183,0.17,-0.747,0.656,-111.451,-13.489,-78.736,
00:00:29:200,0.171,-0.746,0.672,-96.07,-12.085,-73.67,
00:00:29:217,0.161,-0.758,0.693,-115.967,-6.348,-75.867,
00:00:29:233,0.166,-0.732,0.698,-118.409,-12.33,-73.487,
00:00:29:250,0.153,-0.77,0.708,-134.461,-15.198,-79.59,
00:00:29:267,0.149,-0.735,0.7,-182.373,-17.456,-88.501,
00:00:29:283,0.154,-0.717,0.704,-178.284,-21.058,-96.314,
00:00:29:300,0.149,-0.695,0.701,-152.894,-24.781,-101.563,
00:00:29:317,0.149,-0.72,0.694,-130.86,-25.452,-100.037,
00:00:29:333,0.146,-0.74,0.701,-146.79,-26.978,-102.234,
00:00:29:350,0.15,-0.783,0.723,-198.06,-32.41,-119.202,
00:00:29:367,0.138,-0.744,0.715,-257.752,-34.729,-139.527,
00:00:29:383,0.121,-0.687,0.722,-275.635,-36.255,-150.33,
00:00:29:400,0.107,-0.657,0.706,-273.865,-35.889,-154.969,
00:00:29:417,0.109,-0.649,0.713,-242.981,-30.762,-146.973,
00:00:29:433,0.106,-0.688,0.727,-237,-27.955,-146.912,
00:00:29:450,0.111,-0.656,0.74,-215.821,-34.424,-147.522,
00:00:29:467,0.103,-0.675,0.767,-180.664,-31.434,-152.649,
00:00:29:483,0.094,-0.677,0.776,-211.976,-35.157,-156.617,
00:00:29:500,0.085,-0.661,0.786,-246.766,-37.72,-167.603,
00:00:29:517,0.077,-0.723,0.789,-329.834,-43.885,-186.402,
00:00:29:533,0.093,-0.624,0.797,-437.5,-57.19,-190.308,
00:00:29:550,0.085,-0.614,0.82,-497.925,-64.942,-197.327,
00:00:29:567,0.072,-0.552,0.836,-527.832,-75.074,-185.669,
00:00:29:583,0.071,-0.501,0.864,-534.058,-83.924,-173.829,
00:00:29:600,0.052,-0.526,0.849,-576.966,-91.187,-189.759,
00:00:29:617,0.067,-0.461,0.868,-567.688,-119.873,-190.43,
00:00:29:633,0.035,-0.529,0.846,-646.973,-134.278,-226.868,
00:00:29:650,0.054,-0.532,0.853,-801.392,-151.917,-237.488,
00:00:29:667,0.053,-0.497,0.857,-982.422,-179.322,-242.066,
00:00:29:683,0.048,-0.423,0.904,-1109.498,-197.754,-256.653,
00:00:29:700,0.034,-0.409,0.939,-1194.886,-214.966,-265.259,
00:00:29:717,0.03,-0.325,0.975,-1238.221,-271.363,-268.128,
00:00:29:733,-0.018,-0.251,0.986,-1231.873,-329.468,-278.199,
00:00:29:750,-0.043,-0.187,0.96,-1198.487,-372.681,-296.57,
00:00:29:767,-0.04,-0.113,0.906,-1166.687,-387.94,-296.875,
00:00:29:783,-0.062,-0.098,0.862,-1187.195,-385.926,-293.885,
00:00:29:800,-0.079,-0.066,0.883,-1199.402,-384.217,-280.335,
00:00:29:817,-0.104,-0.063,0.933,-1273.804,-379.212,-266.785,
00:00:29:833,-0.119,-0.004,0.964,-1366.761,-415.039,-262.757,
00:00:29:850,-0.181,0.07,0.999,-1343.323,-449.036,-257.569,
00:00:29:867,-0.2,0.115,0.995,-1357.789,-468.934,-264.527,
00:00:29:883,-0.169,0.182,0.936,-1421.509,-493.287,-277.039,
00:00:29:900,-0.171,0.234,0.834,-1587.464,-504.273,-275.94,
00:00:29:917,-0.193,0.328,0.765,-1656.556,-494.263,-249.39,
00:00:29:933,-0.218,0.398,0.733,-1582.581,-465.577,-222.29,
00:00:29:950,-0.238,0.476,0.773,-1499.512,-432.007,-198.182,
00:00:29:967,-0.252,0.521,0.819,-1384.888,-413.941,-184.754,
00:00:29:983,-0.258,0.576,0.796,-1256.348,-411.438,-157.654,
00:00:30:0,-0.267,0.644,0.71,-1126.77,-410.157,-132.508,
00:00:30:17,-0.309,0.666,0.619,-1018.067,-376.648,-124.756,
00:00:30:33,-0.348,0.661,0.583,-945.069,-315.186,-120.118,
00:00:30:50,-0.318,0.747,0.597,-895.325,-265.137,-112.915,
00:00:30:67,-0.321,0.746,0.629,-834.29,-241.944,-112.61,
00:00:30:83,-0.32,0.756,0.642,-811.829,-232.789,-115.967,
00:00:30:100,-0.317,0.809,0.611,-776.795,-228.638,-76.905,
00:00:30:117,-0.314,0.859,0.585,-697.693,-215.394,-74.341,
00:00:30:133,-0.278,0.878,0.531,-645.752,-199.402,-47.974,
00:00:30:150,-0.282,0.842,0.485,-613.831,-203.064,-110.779,
00:00:30:167,-0.267,0.855,0.465,-551.636,-198.243,-99.915,
00:00:30:183,-0.302,0.856,0.464,-521.668,-204.407,-93.384,
00:00:30:200,-0.321,0.866,0.465,-461.67,-199.891,-99.06,
00:00:30:217,-0.31,0.869,0.475,-402.222,-209.717,-102.784,
00:00:30:233,-0.298,0.853,0.455,-358.826,-217.102,-104.065,
00:00:30:250,-0.274,0.838,0.425,-317.627,-230.103,-94.239,
00:00:30:267,-0.297,0.864,0.383,-294.434,-242.676,-129.761,
00:00:30:283,-0.331,0.853,0.354,-222.413,-243.653,-145.264,
00:00:30:300,-0.337,0.872,0.333,-158.753,-239.441,-158.692,
00:00:30:317,-0.357,0.852,0.334,-123.475,-249.817,-190.064,
00:00:30:333,-0.368,0.856,0.308,-61.402,-239.624,-205.018,
00:00:30:350,-0.38,0.839,0.288,2.502,-224.305,-226.075,
00:00:30:367,-0.369,0.813,0.263,34.545,-197.144,-246.338,
00:00:30:383,-0.406,0.789,0.253,43.396,-165.894,-260.682,
00:00:30:400,-0.372,0.79,0.216,41.809,-127.869,-275.513,
00:00:30:417,-0.366,0.81,0.222,24.597,-96.802,-281.434,
00:00:30:433,-0.384,0.784,0.237,6.469,-67.749,-239.502,
00:00:30:450,-0.326,0.873,0.254,-46.998,-43.213,-268.677,
00:00:30:467,-0.349,0.852,0.224,-62.806,-27.832,-270.691,
00:00:30:483,-0.327,0.876,0.239,-41.748,-11.536,-289.551,
00:00:30:500,-0.317,0.895,0.226,-39.368,1.77,-269.41,
00:00:30:517,-0.285,0.932,0.223,-40.772,21.789,-282.288,
00:00:30:533,-0.264,0.937,0.204,-56.763,35.888,-260.437,
00:00:30:550,-0.258,0.956,0.222,-52.735,39.611,-265.198,
00:00:30:567,-0.25,0.963,0.229,-53.833,51.33,-253.052,
00:00:30:583,-0.234,0.951,0.251,-58.899,51.757,-232.3,
00:00:30:600,-0.236,0.931,0.258,-81.849,49.255,-219.971,
00:00:30:617,-0.224,0.934,0.258,-101.746,45.715,-203.675,
00:00:30:633,-0.209,0.96,0.252,-110.901,44.189,-189.637,
00:00:30:650,-0.219,0.941,0.239,-138.123,42.968,-195.313,
00:00:30:667,-0.193,0.964,0.219,-153.87,47.729,-188.66,
00:00:30:683,-0.189,0.999,0.234,-114.136,49.621,-150.696,
00:00:30:700,-0.182,1.007,0.245,-54.688,55.664,-155.579,
00:00:30:717,-0.162,0.995,0.266,-28.687,46.203,-141.297,
00:00:30:733,-0.175,0.983,0.271,-18.433,37.841,-133.667,
00:00:30:750,-0.172,0.961,0.258,-6.043,34.484,-123.108,
00:00:30:767,-0.166,0.952,0.251,-4.639,33.935,-112.488,
00:00:30:783,-0.146,0.96,0.248,-8.545,27.404,-104.798,
00:00:30:800,-0.133,0.969,0.256,-23.377,26.245,-99.671,
00:00:30:817,-0.135,0.975,0.244,-33.631,19.714,-89.722,
00:00:30:833,-0.125,0.994,0.24,-39.49,15.441,-82.581,
00:00:30:850,-0.118,0.99,0.237,-21.424,10.253,-70.801,
00:00:30:867,-0.122,0.977,0.231,-10.132,4.394,-59.327,
00:00:30:883,-0.122,0.953,0.217,-3.602,3.418,-51.148,
00:00:30:900,-0.125,0.94,0.22,-6.958,7.446,-50.477,
00:00:30:917,-0.121,0.928,0.228,-11.109,11.84,-48.401,
00:00:30:933,-0.112,0.94,0.23,-27.405,8.606,-49.256,
00:00:30:950,-0.108,0.949,0.236,-27.039,4.821,-45.105,
00:00:30:967,-0.103,0.957,0.23,-37.415,-0.123,-42.115,
00:00:30:983,-0.121,0.948,0.23,-37.049,-1.893,-38.636,
00:00:31:0,-0.109,0.955,0.211,-32.166,0.61,-36.133,
00:00:31:17,-0.116,0.957,0.225,-17.334,2.685,-29.358,
00:00:31:33,-0.098,0.966,0.228,-15.076,5.188,-28.565,
00:00:31:50,-0.113,0.94,0.23,-20.325,0.183,-23.316,
00:00:31:67,-0.111,0.937,0.231,-44.617,-3.907,-21.485,
00:00:31:83,-0.11,0.955,0.225,-63.538,-8.301,-20.874,
00:00:31:100,-0.119,0.942,0.217,-73.426,-9.766,-22.217,
00:00:31:117,-0.119,0.95,0.209,-62.378,-13.672,-20.691,
00:00:31:133,-0.115,0.941,0.201,-36.866,-13.794,-18.982,
00:00:31:150,-0.108,0.94,0.201,-36.011,-16.358,-18.555,
00:00:31:167,-0.117,0.921,0.195,-43.213,-20.203,-20.997,
00:00:31:183,-0.116,0.918,0.202,-59.388,-20.081,-27.161,
00:00:31:200,-0.114,0.938,0.2,-58.594,-23.987,-30.579,
00:00:31:217,-0.116,0.95,0.199,-56.275,-21.302,-35.401,
00:00:31:233,-0.115,0.956,0.194,-41.138,-21.607,-36.499,
00:00:31:250,-0.117,0.963,0.192,-17.64,-13.794,-36.683,
00:00:31:267,-0.118,0.963,0.188,4.821,-10.987,-39.795,
00:00:31:283,-0.126,0.953,0.217,17.883,-4.151,-44.861,
00:00:31:300,-0.126,0.934,0.179,8.606,-1.465,-44.373,
00:00:31:317,-0.142,0.813,0.174,-13.611,4.15,-48.279,
00:00:31:333,-0.088,1.036,0.135,-86.426,-19.654,-18.433,
00:00:31:350,-0.185,0.994,0.204,-18.372,13,-10.132,
00:00:31:367,-0.082,0.971,0.186,-14.405,10.864,-23.621,
00:00:31:383,-0.116,1.012,0.207,-3.418,9.338,3.356,
00:00:31:400,-0.159,0.919,0.17,6.164,28.564,-24.292,
00:00:31:417,-0.096,0.9,0.194,-2.869,40.283,-40.894,
00:00:31:433,-0.109,0.954,0.171,-3.663,43.029,-35.584,
00:00:31:450,-0.098,0.965,0.175,24.108,57.556,-50.232,
00:00:31:467,-0.085,0.956,0.178,36.743,59.204,-52.491,
00:00:31:483,-0.085,0.971,0.177,3.234,58.593,-44.068,
00:00:31:500,-0.074,0.999,0.171,6.042,53.344,-49.561,
00:00:31:517,-0.078,0.979,0.175,-5.799,48.889,-51.636,
00:00:31:533,-0.073,0.99,0.193,31.127,42.053,-54.871,
00:00:31:550,-0.076,0.965,0.218,56.335,33.386,-53.589,
00:00:31:567,-0.076,1.096,0.177,5.432,15.136,17.028,
00:00:31:583,-0.079,1.004,0.191,99.304,-1.16,-12.696,
00:00:31:600,-0.06,0.924,0.193,126.953,-4.151,-4.09,
00:00:31:617,-0.064,0.976,0.199,154.358,-20.447,9.643,
00:00:31:633,-0.079,0.993,0.234,242.492,-22.828,3.356,
00:00:31:650,-0.062,0.973,0.224,282.165,-26.49,1.586,
00:00:31:667,-0.069,0.985,0.266,326.233,-33.631,2.258,
00:00:31:683,-0.075,0.947,0.258,377.38,-38.88,-1.099,
00:00:31:700,-0.075,0.922,0.242,398.132,-40.772,9.216,
00:00:31:717,-0.074,0.934,0.214,417.968,-37.354,18.798,
00:00:31:733,-0.089,0.919,0.272,490.417,-42.359,9.216,
00:00:31:750,-0.116,0.945,0.28,573.303,-34.546,15.014,
00:00:31:767,-0.112,0.977,0.318,654.541,-40.955,22.705,
00:00:31:783,-0.108,0.856,0.384,701.721,-41.687,-0.245,
00:00:31:800,-0.125,0.878,0.369,668.274,-70.069,29.419,
00:00:31:817,-0.136,0.986,0.353,721.618,-51.88,44.616,
00:00:31:833,-0.133,0.952,0.424,882.69,-48.951,7.324,
00:00:31:850,-0.115,0.849,0.457,915.283,-87.342,13.061,
00:00:31:867,-0.102,0.705,0.522,857.299,-91.492,-23.377,
00:00:31:883,-0.092,0.632,0.538,732.422,-81.604,-6.775,
00:00:31:900,-0.115,0.733,0.532,566.772,-64.087,-2.442,
00:00:31:917,-0.093,0.822,0.586,648.986,-63.172,-36.744,
00:00:31:933,-0.048,0.863,0.682,944.885,-94.483,-49.317,
00:00:31:950,-0.041,0.751,0.655,1201.233,-87.159,-76.05,
00:00:31:967,-0.051,0.661,0.65,1381.591,-82.703,-75.257,
00:00:31:983,-0.044,0.598,0.651,1505.31,-93.262,-106.263,
00:00:32:0,-0.065,0.443,0.701,1544.616,-98.694,-136.048,
00:00:32:17,-0.076,0.373,0.784,1409.301,-96.985,-159.302,
00:00:32:33,-0.052,0.316,0.888,1201.599,-103.455,-189.087,
00:00:32:50,-0.045,0.287,0.936,949.218,-136.841,-261.963,
00:00:32:67,-0.084,0.268,0.847,723.938,-118.103,-190.064,
00:00:32:83,-0.112,0.298,0.792,529.419,-134.705,-198.975,
00:00:32:100,-0.128,0.402,0.775,467.59,-155.945,-193.97,
00:00:32:117,-0.177,0.403,0.805,543.884,-113.465,-210.816,
00:00:32:133,-0.21,0.328,0.906,580.627,-41.871,-216.187,
00:00:32:150,-0.201,0.283,0.944,510.192,-18.494,-213.99,
00:00:32:167,-0.216,0.299,0.984,448.059,-35.035,-205.262,
00:00:32:183,-0.257,0.292,0.982,460.327,-37.171,-196.228,
00:00:32:200,-0.285,0.257,0.965,511.779,-4.578,-195.679,
00:00:32:217,-0.278,0.217,0.973,497.192,26.977,-192.994,
00:00:32:233,-0.246,0.167,0.962,404.724,42.114,-189.942,
00:00:32:250,-0.217,0.205,0.962,306.396,39.062,-180.298,
00:00:32:267,-0.205,0.257,0.964,222.961,24.231,-171.143,
00:00:32:283,-0.214,0.28,0.945,206.97,20.69,-153.138,
00:00:32:300,-0.227,0.27,0.937,281.677,36.865,-133.545,
00:00:32:317,-0.229,0.216,0.95,313.781,69.397,-135.56,
00:00:32:333,-0.212,0.173,0.937,226.501,69.213,-137.513,
00:00:32:350,-0.193,0.158,0.937,91.674,52.856,-146.058,
00:00:32:367,-0.193,0.156,0.949,-26.856,49.377,-156.311,
00:00:32:383,-0.173,0.191,0.983,-145.752,32.653,-170.594,
00:00:32:400,-0.152,0.289,0.989,-191.529,-1.648,-159.974,
00:00:32:417,-0.16,0.336,0.964,-111.084,7.385,-143.555,
00:00:32:433,-0.164,0.291,0.942,-43.824,41.565,-135.804,
00:00:32:450,-0.145,0.133,0.922,-189.942,89.05,-185.303,
00:00:32:467,-0.12,0.028,0.998,-583.435,90.637,-222.901,
00:00:32:483,-0.073,0.173,0.946,-1066.285,-16.541,-181.824,
00:00:32:500,-0.076,0.509,0.873,-1109.437,-66.04,-129.7,
00:00:32:517,-0.122,0.712,0.836,-841.126,47.119,-59.021,
00:00:32:533,-0.091,0.706,1.029,-331.36,137.939,-32.837,
00:00:32:550,-0.125,0.359,1.026,-37.72,235.962,-18.86,
00:00:32:567,-0.083,0.167,0.92,-72.51,213.012,5.004,
00:00:32:583,-0.035,0.189,0.929,-250.977,148.681,21.301,
00:00:32:600,-0.029,0.354,0.925,-362.61,90.393,37.902,
00:00:32:617,-0.056,0.453,0.91,-274.231,84.961,42.358,
00:00:32:633,-0.06,0.481,0.936,-143.433,67.382,46.997,
00:00:32:650,-0.095,0.469,0.913,-102.601,48.706,64.514,
00:00:32:667,-0.101,0.472,0.858,-126.709,31.555,64.697,
00:00:32:683,-0.076,0.472,0.826,-118.958,20.324,65.429,
00:00:32:700,-0.054,0.433,0.826,-93.995,4.821,55.969,
00:00:32:717,-0.041,0.425,0.851,-107.605,-23.987,51.94,
00:00:32:733,-0.049,0.453,0.878,-124.939,-52.491,45.898,
00:00:32:750,-0.069,0.471,0.869,-114.014,-67.505,40.71,
00:00:32:767,-0.072,0.45,0.875,-101.258,-80.445,26.184,
00:00:32:783,-0.078,0.445,0.861,-120.484,-94.666,23.559,
00:00:32:800,-0.087,0.499,0.87,-129.883,-107.422,20.935,
00:00:32:817,-0.091,0.508,0.881,-102.478,-110.291,24.353,
00:00:32:833,-0.114,0.492,0.877,-56.397,-100.708,30.456,
00:00:32:850,-0.125,0.442,0.865,-50.66,-93.079,29.541,
00:00:32:867,-0.128,0.424,0.865,-88.501,-96.497,28.808,
00:00:32:883,-0.135,0.464,0.845,-112.183,-90.027,32.226,
00:00:32:900,-0.132,0.504,0.874,-91.37,-72.449,33.386,
00:00:32:917,-0.121,0.482,0.861,-54.078,-64.026,36.193,
00:00:32:933,-0.126,0.473,0.854,-32.349,-54.688,46.875,
00:00:32:950,-0.131,0.465,0.851,-39.307,-60.486,53.405,
00:00:32:967,-0.141,0.482,0.854,-50.171,-68.665,59.753,
00:00:32:983,-0.152,0.499,0.855,-49.744,-67.444,61.157,
00:00:33:0,-0.164,0.515,0.85,-52.918,-69.275,57.251,
00:00:33:17,-0.165,0.507,0.848,-43.946,-67.444,49.316,
00:00:33:33,-0.158,0.498,0.846,-43.152,-66.59,42.541,
00:00:33:50,-0.156,0.486,0.843,-37.537,-68.421,42.358,
00:00:33:67,-0.126,0.479,0.838,-44.19,-69.825,40.893,
00:00:33:83,-0.126,0.518,0.879,-59.937,-70.069,37.414,
00:00:33:100,-0.165,0.529,0.83,-4.639,-56.336,18.432,
00:00:33:117,-0.197,0.502,0.847,7.873,-43.519,17.395,
00:00:33:133,-0.184,0.464,0.856,-35.096,-33.448,-0.489,
00:00:33:150,-0.203,0.51,0.848,-30.335,-25.513,3.54,
00:00:33:167,-0.193,0.488,0.841,-7.447,-10.071,2.99,
00:00:33:183,-0.174,0.494,0.836,-11.17,-0.489,7.873,
00:00:33:200,-0.185,0.487,0.831,-7.142,10.62,20.935,
00:00:33:217,-0.191,0.488,0.841,-7.325,18.005,33.508,
00:00:33:233,-0.197,0.477,0.846,-25.208,22.094,32.592,
00:00:33:250,-0.194,0.487,0.846,-51.941,24.902,29.357,
00:00:33:267,-0.193,0.509,0.823,-61.097,26.916,29.602,
00:00:33:283,-0.194,0.515,0.82,-59.021,24.108,17.456,
00:00:33:300,-0.197,0.528,0.819,-41.626,21.972,5.371,
00:00:33:317,-0.201,0.543,0.815,-8.362,25.146,-9.705,
00:00:33:334,-0.189,0.52,0.826,28.137,23.559,-13.977,
00:00:33:350,-0.183,0.492,0.827,21.057,19.226,-20.935,
00:00:33:367,-0.178,0.51,0.834,7.446,18.432,-25.635,
00:00:33:384,-0.184,0.517,0.824,4.15,18.554,-25.208,
00:00:33:400,-0.177,0.515,0.831,15.502,18.127,-21.79,
00:00:33:417,-0.185,0.506,0.827,26.184,17.517,-17.701,
00:00:33:434,-0.218,0.494,0.834,24.658,15.564,-16.846,
00:00:33:450,-0.188,0.497,0.851,18.066,12.023,-17.456,
00:00:33:467,-0.186,0.5,0.828,3.906,13.855,-21.363,
00:00:33:484,-0.173,0.506,0.829,1.77,10.925,-18.067,
00:00:33:500,-0.187,0.51,0.823,-2.015,10.681,-13.977,
00:00:33:517,-0.184,0.519,0.829,7.629,11.474,-13.184,
00:00:33:534,-0.189,0.504,0.836,7.263,13.061,-14.893,
00:00:33:550,-0.196,0.507,0.831,5.981,17.517,-18.25,
00:00:33:567,-0.192,0.5,0.837,6.103,16.296,-22.339,
00:00:33:584,-0.192,0.499,0.833,2.685,15.441,-25.086,
00:00:33:600,-0.184,0.507,0.833,8.606,16.418,-25.452,
00:00:33:617,-0.186,0.5,0.825,9.643,16.784,-26.795,
00:00:33:634,-0.18,0.503,0.828,1.648,13.183,-30.213,
00:00:33:650,-0.179,0.512,0.82,-1.893,12.939,-27.894,
00:00:33:667,-0.182,0.517,0.83,1.953,8.85,-23.255,
00:00:33:684,-0.187,0.517,0.824,12.756,9.704,-22.522,
00:00:33:700,-0.184,0.505,0.83,29.357,11.474,-23.56,
00:00:33:717,-0.187,0.498,0.842,35.339,12.023,-25.818,
00:00:33:734,-0.186,0.482,0.832,22.705,13.916,-31.861,
00:00:33:750,-0.178,0.507,0.834,13.977,15.38,-27.344,
00:00:33:767,-0.178,0.505,0.837,19.47,16.967,-20.386,
00:00:33:784,-0.186,0.503,0.845,15.014,20.813,-16.602,
00:00:33:800,-0.184,0.489,0.839,0.061,25.573,-16.175,
00:00:33:817,-0.183,0.502,0.841,-12.94,28.198,-16.053,
00:00:33:834,-0.187,0.499,0.831,-20.874,32.898,-15.992,
00:00:33:850,-0.185,0.508,0.827,-12.085,36.254,-19.41,
00:00:33:867,-0.182,0.507,0.829,-0.977,34.423,-24.781,
00:00:33:884,-0.178,0.5,0.832,7.629,33.081,-24.476,
00:00:33:900,-0.17,0.469,0.836,1.22,27.343,-26.551,
00:00:33:917,-0.167,0.5,0.822,-9.888,21.545,-25.391,
00:00:33:934,-0.16,0.512,0.819,-11.475,14.221,-23.072,
00:00:33:950,-0.167,0.511,0.82,-0.123,2.868,-23.682,
00:00:33:967,-0.171,0.505,0.822,7.507,-3.479,-28.077,
00:00:33:984,-0.164,0.51,0.825,16.418,-15.015,-28.077,
00:00:34:0,-0.176,0.522,0.822,33.142,-24.353,-26.551,
00:00:34:17,-0.187,0.521,0.839,58.044,-21.79,-27.649,
00:00:34:34,-0.187,0.485,0.837,60.669,-17.151,-36.072,
00:00:34:50,-0.17,0.491,0.846,38.024,-9.644,-47.486,
00:00:34:67,-0.184,0.486,0.839,12.573,-17.151,-29.908,
00:00:34:84,-0.182,0.499,0.839,-2.32,-11.292,-31.006,
00:00:34:100,-0.185,0.502,0.832,-1.221,-10.071,-28.809,
00:00:34:117,-0.19,0.506,0.836,7.812,-6.653,-33.265,
00:00:34:134,-0.186,0.513,0.83,20.08,-0.611,-40.039,
00:00:34:150,-0.16,0.524,0.844,40.771,12.329,-57.618,
00:00:34:167,-0.195,0.482,0.852,36.499,-7.142,-25.147,
00:00:34:184,-0.196,0.487,0.836,17.578,10.437,-43.152,
00:00:34:200,-0.176,0.496,0.839,11.718,9.094,-30.884,
00:00:34:217,-0.185,0.499,0.837,6.836,12.512,-25.757,
00:00:34:234,-0.182,0.494,0.838,10.192,15.38,-24.842,
00:00:34:250,-0.181,0.494,0.839,4.821,17.334,-23.438,
00:00:34:267,-0.179,0.496,0.836,6.164,15.319,-25.33,
00:00:34:284,-0.18,0.5,0.838,5.31,15.686,-23.621,
00:00:34:300,-0.176,0.496,0.833,6.958,17.822,-25.696,
00:00:34:317,-0.173,0.496,0.836,1.037,14.77,-24.842,
00:00:34:334,-0.171,0.497,0.83,-4.334,10.009,-21.546,
00:00:34:350,-0.173,0.505,0.827,0,4.76,-17.395,
00:00:34:367,-0.174,0.506,0.828,15.014,-0.367,-13.062,
00:00:34:384,-0.178,0.501,0.833,30.212,-5.86,-12.085,
00:00:34:400,-0.18,0.496,0.839,26.733,-9.827,-14.832,
00:00:34:417,-0.186,0.494,0.837,24.108,-10.132,-18.616,
00:00:34:434,-0.174,0.498,0.841,22.827,-10.621,-18.616,
00:00:34:450,-0.177,0.489,0.835,20.263,-14.954,-16.663,
00:00:34:467,-0.187,0.502,0.84,18.493,-15.137,-16.663,
00:00:34:484,-0.19,0.505,0.828,27.648,-10.193,-17.212,
00:00:34:500,-0.193,0.499,0.84,39.062,-6.409,-15.259,
00:00:34:517,-0.195,0.482,0.846,33.325,-1.404,-18.433,
00:00:34:534,-0.186,0.474,0.848,21.911,-0.245,-20.264,
00:00:34:550,-0.183,0.48,0.847,8.117,0.671,-19.165,
00:00:34:567,-0.184,0.486,0.84,0.427,-0.672,-19.349,
00:00:34:584,-0.186,0.494,0.841,-3.724,-0.367,-19.532,
00:00:34:600,-0.19,0.5,0.828,-6.409,0.671,-20.447,
00:00:34:617,-0.188,0.501,0.835,1.831,14.831,-21.973,
00:00:34:634,-0.19,0.497,0.834,7.019,0.061,-19.165,
00:00:34:650,-0.157,0.487,0.84,9.155,-0.733,-18.799,
00:00:34:667,-0.189,0.487,0.841,6.408,-2.93,-19.715,
00:00:34:684,-0.188,0.49,0.839,10.253,-4.273,-24.292,
00:00:34:700,-0.186,0.494,0.833,11.657,-3.724,-24.353,
00:00:34:717,-0.185,0.498,0.84,11.23,-4.212,-45.533,
00:00:34:734,-0.172,0.486,0.828,0.854,-28.504,-73.487,
00:00:34:750,-0.221,0.467,0.844,15.747,-0.367,-17.579,
00:00:34:767,-0.19,0.489,0.843,8.972,6.286,-20.203,
00:00:34:784,-0.181,0.495,0.839,15.197,-0.611,-15.931,
00:00:34:800,-0.193,0.488,0.841,17.211,-1.954,-15.442,
00:00:34:817,-0.185,0.489,0.841,12.329,0.244,-15.809,
00:00:34:834,-0.191,0.487,0.838,8.483,0.061,-13.916,
00:00:34:850,-0.191,0.492,0.842,7.507,-2.137,-10.987,
00:00:34:867,-0.192,0.49,0.835,10.925,-2.747,-8.545,
00:00:34:884,-0.195,0.492,0.838,8.178,-3.724,-9.522,
00:00:34:900,-0.194,0.491,0.837,10.986,-2.32,-12.269,
00:00:34:917,-0.199,0.49,0.837,14.587,-2.442,-15.625,
00:00:34:934,-0.194,0.494,0.841,20.629,-2.076,-21.058,
00:00:34:950,-0.188,0.504,0.838,22.705,-5.249,-31.678,
00:00:34:967,-0.19,0.442,0.85,32.592,-13.428,-30.823,
00:00:34:984,-0.193,0.482,0.837,10.376,-1.099,-22.95,
00:00:35:0,-0.195,0.488,0.841,12.39,0.915,-24.353,
00:00:35:17,-0.212,0.489,0.847,8.056,-2.381,-13.184,
00:00:35:34,-0.2,0.489,0.843,10.07,1.525,-18.921,
00:00:35:50,-0.196,0.491,0.842,12.817,0.549,-21.79,
00:00:35:67,-0.191,0.5,0.841,19.958,10.62,-33.631,
00:00:35:84,-0.19,0.484,0.843,17.456,0.793,-37.232,
00:00:35:100,-0.2,0.445,0.815,-7.142,-1.587,-58.167,
00:00:35:117,-0.193,0.49,0.838,-2.93,6.652,-17.456,
00:00:35:134,-0.199,0.492,0.841,0.61,5.676,-16.419,
00:00:35:150,-0.202,0.49,0.836,3.295,7.202,-16.419,
00:00:35:167,-0.199,0.485,0.84,4.76,8.483,-21.607,
00:00:35:184,-0.201,0.491,0.841,8.239,11.169,-24.598,
00:00:35:200,-0.199,0.491,0.841,14.099,11.352,-27.1,
00:00:35:217,-0.197,0.487,0.839,16.174,14.404,-22.278,
00:00:35:234,-0.194,0.475,0.843,9.643,14.16,-17.823,
00:00:35:250,-0.196,0.475,0.846,-2.686,14.221,-15.625,
00:00:35:267,-0.194,0.482,0.842,-13.794,18.127,-13.001,
00:00:35:284,-0.193,0.49,0.837,-14.771,15.625,-13.855,
00:00:35:300,-0.2,0.494,0.835,-10.56,15.747,-13.062,
00:00:35:317,-0.197,0.495,0.833,-6.653,9.704,-17.456,
00:00:35:334,-0.196,0.499,0.835,2.258,8.728,-18.555,
00:00:35:350,-0.194,0.49,0.839,11.23,6.408,-21.485,
00:00:35:367,-0.196,0.487,0.839,11.474,6.53,-22.278,
00:00:35:384,-0.192,0.484,0.837,9.948,6.347,-21.119,
00:00:35:400,-0.195,0.485,0.837,3.967,4.516,-18.982,
00:00:35:417,-0.199,0.496,0.833,5.249,4.089,-17.518,
00:00:35:434,-0.201,0.488,0.838,10.864,5.004,-18.982,
00:00:35:450,-0.201,0.489,0.838,14.099,7.69,-21.058,
00:00:35:467,-0.198,0.484,0.84,14.038,9.704,-22.4,
00:00:35:484,-0.193,0.485,0.813,10.986,9.277,-20.691,
00:00:35:500,-0.195,0.482,0.837,3.662,7.812,-18.494,
00:00:35:517,-0.195,0.491,0.838,1.648,9.338,-17.273,
00:00:35:534,-0.197,0.491,0.838,7.08,9.277,-15.625,
00:00:35:550,-0.202,0.484,0.843,7.507,6.469,-17.945,
00:00:35:567,-0.2,0.49,0.838,5.737,6.286,-19.837,
00:00:35:584,-0.198,0.488,0.84,10.864,5.981,-22.034,
00:00:35:600,-0.196,0.492,0.841,11.169,4.638,-24.537,
00:00:35:617,-0.195,0.487,0.838,15.747,2.319,-26.856,
00:00:35:634,-0.196,0.494,0.839,16.601,1.281,-25.391,
00:00:35:650,-0.198,0.487,0.836,21.911,-0.611,-24.72,
00:00:35:667,-0.199,0.486,0.829,22.461,0.732,-25.696,
00:00:35:684,-0.199,0.467,0.841,8.3,5.859,-26.856,
00:00:35:700,-0.2,0.462,0.844,10.62,2.99,-27.283,
00:00:35:717,-0.203,0.48,0.829,7.019,1.159,-21.058,
00:00:35:734,-0.202,0.475,0.838,5.554,2.624,-27.71,
00:00:35:750,-0.202,0.473,0.832,5.493,7.629,-23.804,
00:00:35:767,-0.199,0.475,0.84,10.62,3.051,-25.086,
00:00:35:784,-0.198,0.483,0.837,2.502,7.08,-22.278,
00:00:35:800,-0.203,0.475,0.843,0.793,6.958,-19.837,
00:00:35:817,-0.205,0.482,0.84,-1.954,9.643,-22.034,
00:00:35:834,-0.201,0.482,0.841,-0.184,11.23,-20.997,
00:00:35:850,-0.203,0.481,0.831,-0.55,12.512,-22.706,
00:00:35:867,-0.199,0.482,0.841,3.845,12.39,-24.72,
00:00:35:884,-0.202,0.469,0.835,3.479,12.085,-22.706,
00:00:35:900,-0.197,0.486,0.87,1.281,12.451,-22.767,
00:00:35:917,-0.199,0.476,0.83,5.127,8.056,-21.912,
00:00:35:934,-0.198,0.487,0.839,5.92,10.192,-20.325,
00:00:35:950,-0.198,0.475,0.84,10.62,6.774,-19.288,
00:00:35:967,-0.203,0.477,0.839,3.418,6.103,-19.41,
00:00:35:984,-0.201,0.484,0.839,4.272,7.873,-20.264,
00:00:36:0,-0.196,0.485,0.838,9.704,4.821,-20.997,
00:00:36:17,-0.199,0.48,0.839,8.728,4.028,-19.837,
00:00:36:34,-0.2,0.486,0.843,9.704,3.051,-19.104,
00:00:36:50,-0.201,0.482,0.841,10.559,3.662,-18.25,
00:00:36:67,-0.201,0.479,0.843,11.413,2.136,-21.424,
00:00:36:84,-0.2,0.484,0.838,12.023,-0.061,-19.165,
00:00:36:100,-0.205,0.474,0.843,13.732,3.967,-22.4,
00:00:36:117,-0.2,0.476,0.832,12.878,2.441,-22.278,
00:00:36:134,-0.198,0.48,0.845,12.451,-0.977,-22.889,
00:00:36:150,-0.203,0.479,0.837,7.873,3.112,-22.339,
00:00:36:167,-0.203,0.478,0.845,10.192,0.549,-21.302,
00:00:36:184,-0.208,0.466,0.839,5.31,4.028,-20.264,
00:00:36:200,-0.207,0.474,0.845,0.732,3.479,-22.644,
00:00:36:217,-0.207,0.484,0.832,7.141,4.15,-21.058,
00:00:36:234,-0.206,0.479,0.843,9.521,4.394,-22.767,
00:00:36:250,-0.207,0.471,0.836,3.479,8.667,-21.119,
00:00:36:267,-0.202,0.477,0.848,2.075,4.699,-20.874,
00:00:36:284,-0.203,0.476,0.837,-3.235,6.103,-20.325,
00:00:36:300,-0.203,0.486,0.845,3.112,4.943,-20.325,
00:00:36:317,-0.204,0.477,0.839,5.493,2.929,-18.067,
00:00:36:334,-0.204,0.48,0.846,3.295,2.99,-18.555,
00:00:36:350,-0.206,0.478,0.839,2.136,1.586,-19.715,
00:00:36:367,-0.207,0.485,0.838,4.882,2.99,-20.935,
00:00:36:384,-0.205,0.486,0.84,14.221,0.244,-21.424,
00:00:36:400,-0.204,0.475,0.843,10.131,2.868,-20.508,
00:00:36:417,-0.205,0.481,0.843,5.554,1.22,-22.034,
00:00:36:434,-0.206,0.481,0.842,8.483,1.342,-19.959,
00:00:36:450,-0.205,0.476,0.842,5.92,1.892,-21.363,
00:00:36:467,-0.206,0.482,0.838,0.305,1.342,-23.011,
00:00:36:484,-0.207,0.506,0.835,-3.846,-1.282,-37.354,
00:00:36:500,-0.206,0.459,0.85,12.939,-0.794,-15.076,
00:00:36:517,-0.21,0.478,0.84,1.159,-3.602,-22.034,
00:00:36:534,-0.205,0.485,0.843,0.915,-1.282,-17.64,
00:00:36:550,-0.209,0.488,0.833,5.554,-3.724,-18.86,
00:00:36:567,-0.207,0.49,0.841,11.596,-2.869,-21.18,
