TIMECODE,ACC_X,ACC_Y,ACC_Z,GYR_X,GYR_Y,GYR_Z,TAG
00:00:00:0,-0.047,0.446,0.885,5.31,12.451,-21.79,
00:00:00:16,-0.044,0.443,0.882,5.065,9.582,-19.837,
00:00:00:33,-0.045,0.436,0.889,6.591,1.831,-18.494,
00:00:00:50,-0.054,0.433,0.885,5.737,-1.587,-17.823,
00:00:00:66,-0.052,0.441,0.886,4.455,-0.794,-19.471,
00:00:00:83,-0.053,0.448,0.881,4.821,4.882,-21.058,
00:00:00:100,-0.051,0.448,0.882,6.652,9.704,-23.377,
00:00:00:116,-0.048,0.449,0.879,9.704,15.869,-23.133,
00:00:00:133,-0.047,0.439,0.884,6.897,17.089,-22.767,
00:00:00:150,-0.046,0.437,0.882,4.882,10.07,-20.02,
00:00:00:166,-0.047,0.432,0.888,1.831,1.403,-18.799,
00:00:00:183,-0.056,0.442,0.89,0.305,-1.099,-19.165,
00:00:00:200,-0.058,0.443,0.886,4.882,6.469,-22.95,
00:00:00:216,-0.053,0.446,0.879,5.188,13.366,-25.391,
00:00:00:233,-0.044,0.447,0.877,4.516,16.479,-26.795,
00:00:00:250,-0.042,0.447,0.88,5.249,10.559,-24.964,
00:00:00:266,-0.047,0.444,0.88,6.408,4.028,-21.668,
00:00:00:283,-0.051,0.439,0.884,7.751,8.056,-22.95,
00:00:00:300,-0.049,0.437,0.878,5.676,11.047,-22.095,
00:00:00:316,-0.049,0.439,0.882,2.807,11.291,-24.109,
00:00:00:333,-0.043,0.442,0.881,1.77,8.361,-22.278,
00:00:00:350,-0.048,0.448,0.882,1.464,1.464,-21.729,
00:00:00:366,-0.051,0.45,0.882,7.324,8.606,-22.583,
00:00:00:383,-0.047,0.447,0.886,7.629,12.39,-22.034,
00:00:00:400,-0.044,0.445,0.88,7.812,13.305,-22.706,
00:00:00:416,-0.051,0.436,0.885,8.3,5.493,-18.555,
00:00:00:433,-0.05,0.436,0.884,4.089,5.004,-19.776,
00:00:00:450,-0.049,0.447,0.88,0.366,6.897,-21.119,
00:00:00:466,-0.048,0.453,0.876,6.713,7.995,-20.935,
00:00:00:483,-0.049,0.446,0.882,7.08,9.826,-19.837,
00:00:00:500,-0.049,0.442,0.882,7.08,12.451,-21.058,
00:00:00:516,-0.048,0.438,0.884,5.31,9.399,-21.668,
00:00:00:533,-0.05,0.441,0.883,7.019,8.483,-21.546,
00:00:00:550,-0.052,0.442,0.884,5.92,11.84,-24.414,
00:00:00:566,-0.051,0.446,0.88,6.774,12.817,-22.889,
00:00:00:583,-0.046,0.444,0.879,5.859,10.986,-23.011,
00:00:00:600,-0.045,0.446,0.883,5.249,6.897,-20.63,
00:00:00:616,-0.05,0.447,0.885,5.188,5.249,-21.424,
00:00:00:633,-0.054,0.445,0.883,6.713,8.789,-21.302,
00:00:00:650,-0.048,0.439,0.884,7.629,15.564,-22.522,
00:00:00:666,-0.045,0.436,0.885,5.798,9.826,-23.926,
00:00:00:683,-0.046,0.44,0.884,2.868,5.92,-21.119,
00:00:00:700,-0.049,0.448,0.884,5.92,2.563,-21.607,
00:00:00:716,-0.046,0.439,0.885,8.728,16.845,-24.537,
00:00:00:733,-0.045,0.437,0.881,4.943,13.732,-24.903,
00:00:00:750,-0.046,0.443,0.881,4.089,7.751,-23.438,
00:00:00:766,-0.048,0.446,0.882,8.483,8.789,-23.316,
00:00:00:783,-0.046,0.44,0.885,6.469,12.39,-21.668,
00:00:00:800,-0.045,0.437,0.885,5.615,10.864,-20.386,
00:00:00:816,-0.048,0.455,0.883,7.08,5.859,-23.743,
00:00:00:833,-0.046,0.448,0.884,12.939,12.573,-21.119,
00:00:00:850,-0.046,0.437,0.885,13.855,12.939,-21.729,
00:00:00:866,-0.044,0.435,0.88,11.291,5.981,-21.119,
00:00:00:883,-0.052,0.432,0.883,6.225,-0.55,-19.959,
00:00:00:900,-0.052,0.443,0.886,4.272,1.464,-19.104,
00:00:00:916,-0.051,0.445,0.886,3.54,8.056,-23.072,
00:00:00:933,-0.046,0.446,0.884,4.577,16.418,-22.767,
00:00:00:950,-0.044,0.443,0.882,5.798,13.061,-23.926,
00:00:00:966,-0.044,0.448,0.881,4.943,9.765,-22.339,
00:00:00:983,-0.047,0.443,0.88,7.324,8.3,-23.682,
00:00:01:0,-0.049,0.443,0.882,6.958,11.535,-19.471,
00:00:01:16,-0.049,0.447,0.884,6.53,13.855,-15.931,
00:00:01:33,-0.042,0.46,0.873,14.953,10.192,-18.189,
00:00:01:50,-0.043,0.415,0.888,13.671,-7.264,-26.917,
00:00:01:66,-0.021,0.454,0.872,7.446,-39.49,-15.137,
00:00:01:83,-0.08,0.43,0.885,15.686,-56.702,7.812,
00:00:01:100,-0.064,0.491,0.87,39.489,-18.799,-10.132,
00:00:01:116,-0.051,0.479,0.856,56.701,-21.851,-57.74,
00:00:01:133,-0.012,0.497,0.877,109.497,-96.802,-48.462,
00:00:01:150,0.009,0.489,0.826,180.359,-213.318,-67.017,
00:00:01:166,-0.034,0.343,0.927,173.401,-312.012,-92.591,
00:00:01:183,-0.145,0.254,0.986,-56.519,-215.21,-171.448,
00:00:01:200,-0.156,0.426,1.019,-95.276,-97.535,-98.816,
00:00:01:216,-0.052,0.493,0.909,-16.907,-67.749,-91.126,
00:00:01:233,-0.106,0.559,0.887,56.945,-56.946,-69.519,
00:00:01:250,-0.164,0.442,0.872,116.088,87.28,-99.549,
00:00:01:266,-0.178,0.468,0.891,152.404,139.526,-99.793,
00:00:01:283,-0.142,0.462,0.878,187.805,164.672,-152.527,
00:00:01:300,-0.097,0.429,0.919,215.271,198.303,-145.264,
00:00:01:316,-0.089,0.318,0.923,228.82,214.172,-183.045,
00:00:01:333,0.007,0.358,0.934,125.854,129.577,-57.557,
00:00:01:350,-0.048,0.345,0.891,124.633,38.879,-36.255,
00:00:01:366,-0.036,0.399,0.909,190.918,-42.603,-7.142,
00:00:01:383,-0.031,0.365,0.913,225.769,-15.564,-2.137,
00:00:01:400,0.01,0.435,0.868,231.445,51.94,22.277,
00:00:01:416,-0.037,0.306,0.954,33.874,-49.195,-10.01,
00:00:01:433,-0.076,0.288,0.945,-22.095,-8.728,-25.208,
00:00:01:450,-0.053,0.335,0.942,-96.497,19.348,-25.086,
00:00:01:466,-0.031,0.344,0.923,-78.553,31.066,-24.292,
00:00:01:483,-0.053,0.344,0.908,-79.102,32.409,-25.33,
00:00:01:500,-0.038,0.336,0.918,-75.989,53.405,-32.715,
00:00:01:516,-0.06,0.335,0.932,-65.247,47.363,-32.288,
00:00:01:533,-0.035,0.361,0.94,-57.129,50.354,-29.419,
00:00:01:550,-0.033,0.374,0.945,-43.457,47.485,-26.123,
00:00:01:566,-0.036,0.361,0.925,-23.133,53.222,-25.025,
00:00:01:583,-0.009,0.345,0.92,-12.757,57.983,-22.217,
00:00:01:600,0,0.327,0.917,-23.804,43.579,-25.33,
00:00:01:616,-0.013,0.345,0.904,-36.194,31.066,-26.49,
00:00:01:633,-0.016,0.366,0.913,-42.359,24.108,-28.077,
00:00:01:650,-0.024,0.378,0.92,-29.114,18.188,-23.865,
00:00:01:666,-0.026,0.357,0.932,-9.278,17.7,-27.283,
00:00:01:683,-0.021,0.349,0.933,-9.522,21.606,-25.33,
00:00:01:700,-0.013,0.34,0.925,-20.325,29.846,-27.222,
00:00:01:716,0.003,0.366,0.91,-29.541,32.043,-27.222,
00:00:01:733,-0.001,0.37,0.913,-27.649,15.93,-31.189,
00:00:01:750,-0.03,0.381,0.916,-15.748,9.948,-31.678,
00:00:01:766,-0.037,0.366,0.937,-8.423,12.939,-33.57,
00:00:01:783,-0.027,0.358,0.925,-13.977,26.001,-33.631,
00:00:01:800,-0.019,0.345,0.922,-44.861,32.653,-33.997,
00:00:01:816,-0.026,0.329,0.911,-120.24,41.626,-42.908,
00:00:01:833,-0.018,0.351,0.915,-227.295,61.889,-36.072,
00:00:01:850,-0.019,0.414,0.883,-238.221,81.298,-32.044,
00:00:01:866,-0.007,0.425,0.905,-159.363,93.261,-24.17,
00:00:01:883,-0.025,0.403,0.935,-80.201,105.041,-20.142,
00:00:01:900,-0.002,0.39,0.978,-20.569,146.911,-19.593,
00:00:01:916,0.018,0.405,0.909,11.657,155.212,-21.241,
00:00:01:933,-0.031,0.41,0.898,28.808,134.277,5.92,
00:00:01:950,0.003,0.402,0.892,37.841,142.028,1.098,
00:00:01:966,0.037,0.394,0.884,27.038,134.277,-3.174,
00:00:01:983,0.044,0.412,0.904,22.155,116.027,-4.822,
00:00:02:0,0.038,0.419,0.894,36.743,98.022,-9.644,
00:00:02:16,0.043,0.408,0.897,57.861,77.575,-16.907,
00:00:02:33,0.031,0.378,0.887,59.57,62.439,-15.992,
00:00:02:50,0.041,0.371,0.903,31.005,42.724,-20.691,
00:00:02:66,0.045,0.378,0.894,-5.372,28.442,-23.926,
00:00:02:83,0.045,0.394,0.892,-24.72,7.568,-23.56,
00:00:02:100,0.035,0.4,0.904,-25.025,-7.63,-26.856,
00:00:02:116,0.038,0.392,0.897,-15.32,-11.963,-26.001,
00:00:02:133,0.031,0.398,0.907,-11.78,-10.682,-25.391,
00:00:02:150,0.033,0.395,0.909,-0.611,-8.057,-24.109,
00:00:02:166,0.027,0.397,0.909,7.751,-3.479,-24.414,
00:00:02:183,0.022,0.394,0.912,14.465,0,-23.926,
00:00:02:200,0.024,0.402,0.913,17.15,3.601,-23.499,
00:00:02:216,0.028,0.395,0.906,23.742,9.826,-23.133,
00:00:02:233,0.03,0.385,0.906,19.531,11.962,-17.029,
00:00:02:250,0.031,0.391,0.9,17.578,14.404,-13.55,
00:00:02:266,0.034,0.39,0.901,17.7,12.817,-11.048,
00:00:02:283,0.03,0.4,0.903,20.202,9.033,-10.132,
00:00:02:300,0.028,0.386,0.906,18.554,6.103,-15.137,
00:00:02:316,0.029,0.394,0.904,15.014,4.577,-13.916,
00:00:02:333,0.029,0.401,0.903,10.376,1.709,-11.78,
00:00:02:350,0.006,0.404,0.901,4.028,-2.625,-10.56,
00:00:02:366,0.008,0.405,0.909,9.399,8.3,-16.358,
00:00:02:383,0.046,0.367,0.913,24.414,14.221,-22.767,
00:00:02:400,0.073,0.366,0.909,6.286,3.356,-19.165,
00:00:02:416,0.061,0.395,0.9,1.77,-9.888,-14.1,
00:00:02:433,0.029,0.407,0.897,7.751,-15.015,-8.484,
00:00:02:450,-0.001,0.386,0.908,18.615,-13.123,-10.315,
00:00:02:466,-0.01,0.385,0.917,12.878,-11.109,-12.94,
00:00:02:483,0.01,0.4,0.911,5.981,-2.991,-18.311,
00:00:02:500,0.027,0.416,0.904,2.746,6.713,-17.823,
00:00:02:516,0.03,0.4,0.904,15.625,9.704,-14.588,
00:00:02:533,0.029,0.368,0.916,18.371,9.216,-16.175,
00:00:02:550,0.029,0.35,0.924,14.465,7.324,-20.447,
00:00:02:566,0.032,0.381,0.906,0.427,8.361,-18.982,
00:00:02:583,0.028,0.428,0.89,-2.503,10.192,-10.437,
00:00:02:600,0.019,0.434,0.884,12.451,11.291,-6.409,
00:00:02:616,0.015,0.393,0.905,30.029,10.07,-10.743,
00:00:02:633,0.02,0.36,0.923,25.146,5.981,-17.884,
00:00:02:650,0.029,0.357,0.928,15.747,0.366,-26.612,
00:00:02:666,0.035,0.38,0.908,3.601,0.244,-27.466,
00:00:02:683,0.033,0.411,0.898,-2.076,-2.442,-20.63,
00:00:02:700,0.023,0.421,0.902,5.92,-5.738,-17.395,
00:00:02:716,0.005,0.39,0.918,16.662,-3.052,-16.297,
00:00:02:733,0.009,0.371,0.921,18.798,8.483,-19.654,
00:00:02:750,0.028,0.377,0.913,5.92,10.742,-19.165,
00:00:02:766,0.029,0.394,0.903,-0.306,8.3,-18.86,
00:00:02:783,0.024,0.397,0.913,8.117,1.77,-19.837,
00:00:02:800,0.016,0.372,0.915,16.54,-1.221,-22.522,
00:00:02:816,0.026,0.425,0.896,-4.029,1.159,-22.95,
00:00:02:833,0.022,0.423,0.899,13.183,-0.367,-16.236,
00:00:02:850,0.006,0.385,0.915,27.587,2.563,-16.358,
00:00:02:866,0.009,0.356,0.925,28.625,4.211,-19.654,
00:00:02:883,0.023,0.357,0.918,8.606,0.915,-25.879,
00:00:02:900,0.021,0.39,0.908,0.122,-3.113,-23.987,
00:00:02:916,0.021,0.408,0.902,6.225,0.915,-23.377,
00:00:02:933,0.021,0.405,0.901,11.23,0.061,-22.217,
00:00:02:950,0.013,0.383,0.906,18.676,3.112,-22.034,
00:00:02:966,0.02,0.368,0.908,9.643,5.92,-23.133,
00:00:02:983,0.023,0.391,0.915,-3.602,1.464,-19.288,
00:00:03:0,0.013,0.4,0.913,3.173,0.732,-17.945,
00:00:03:16,0.006,0.38,0.917,14.587,6.53,-18.128,
00:00:03:33,0.013,0.368,0.918,13.794,7.08,-21.058,
00:00:03:50,0.023,0.375,0.905,8.3,4.089,-22.217,
00:00:03:66,0.023,0.394,0.905,-1.954,0.915,-24.292,
00:00:03:83,0.017,0.408,0.9,-2.015,2.075,-18.799,
00:00:03:100,0.015,0.407,0.899,5.92,6.774,-16.663,
00:00:03:116,0.014,0.388,0.917,16.357,8.544,-18.616,
00:00:03:133,0.012,0.365,0.921,16.723,6.774,-18.677,
00:00:03:150,0.017,0.366,0.908,5.737,5.493,-20.813,
00:00:03:166,0.013,0.378,0.913,-1.831,0.549,-20.874,
00:00:03:183,0.011,0.398,0.898,-5.982,1.648,-20.447,
00:00:03:200,0.016,0.405,0.903,3.845,3.662,-19.959,
00:00:03:216,0.018,0.384,0.915,12.695,2.746,-19.959,
00:00:03:233,0.017,0.379,0.909,4.333,6.164,-17.762,
00:00:03:250,0.019,0.39,0.907,2.136,5.493,-18.372,
00:00:03:266,0.012,0.385,0.909,5.676,-0.733,-18.006,
00:00:03:283,0.004,0.379,0.907,-0.977,1.342,-20.935,
00:00:03:300,0.012,0.382,0.915,5.92,0.061,-23.804,
00:00:03:316,0.018,0.378,0.912,5.981,-0.855,-22.767,
00:00:03:333,0.017,0.392,0.911,-3.113,-3.113,-21.18,
00:00:03:350,0.012,0.404,0.9,1.648,-0.55,-19.165,
00:00:03:366,0.01,0.393,0.91,5.31,1.953,-17.273,
00:00:03:383,0.008,0.385,0.91,4.882,7.629,-19.959,
00:00:03:400,0.012,0.375,0.913,9.399,6.408,-20.508,
00:00:03:416,0.016,0.373,0.914,7.385,5.859,-20.691,
00:00:03:433,0.013,0.383,0.911,2.624,2.136,-20.508,
00:00:03:450,0.009,0.388,0.91,2.624,3.662,-19.715,
00:00:03:466,0.008,0.389,0.905,3.479,5.432,-19.837,
00:00:03:483,0.014,0.393,0.902,-0.061,4.272,-20.997,
00:00:03:500,0.013,0.405,0.901,0.183,1.403,-20.142,
00:00:03:516,0.008,0.39,0.908,10.009,4.699,-20.813,
00:00:03:533,0.009,0.379,0.915,4.028,2.441,-21.607,
00:00:03:550,0.01,0.38,0.914,3.784,3.234,-21.912,
00:00:03:566,0.011,0.378,0.916,4.516,-1.221,-23.804,
00:00:03:583,0.006,0.386,0.909,2.258,1.159,-23.316,
00:00:03:600,0.01,0.393,0.906,-0.061,5.859,-23.316,
00:00:03:616,0.009,0.398,0.904,4.516,6.53,-21.058,
00:00:03:633,0.009,0.395,0.917,9.399,9.765,-19.715,
00:00:03:650,0.01,0.387,0.907,6.652,12.085,-18.128,
00:00:03:666,0.012,0.38,0.912,9.46,10.009,-20.264,
00:00:03:683,0.008,0.383,0.907,5.554,5.615,-20.203,
00:00:03:700,0.006,0.389,0.913,5.127,7.629,-22.461,
00:00:03:716,0.008,0.383,0.907,5.615,8.361,-22.217,
00:00:03:733,0.01,0.394,0.91,8.361,10.376,-20.142,
00:00:03:750,0.012,0.39,0.906,10.07,12.451,-18.799,
00:00:03:766,0.01,0.385,0.907,7.995,10.62,-19.227,
00:00:03:783,0.012,0.381,0.912,7.08,5.004,-20.264,
00:00:03:800,0.004,0.385,0.913,5.371,5.493,-22.767,
00:00:03:816,0.008,0.381,0.916,4.211,6.408,-23.072,
00:00:03:833,0.007,0.393,0.908,2.197,9.46,-21.607,
00:00:03:850,0.011,0.397,0.907,3.295,9.582,-20.325,
00:00:03:866,0.009,0.393,0.908,6.53,8.117,-20.203,
00:00:03:883,0.005,0.388,0.904,5.92,8.117,-20.63,
00:00:03:900,0.015,0.387,0.908,4.211,7.019,-21.424,
00:00:03:916,0.005,0.389,0.912,1.586,4.943,-21.607,
00:00:03:933,0.005,0.393,0.907,3.723,9.521,-20.813,
00:00:03:950,0.008,0.394,0.908,7.324,10.559,-19.471,
00:00:03:966,0.009,0.394,0.911,8.3,10.07,-19.654,
00:00:03:983,0.007,0.388,0.908,12.023,12.207,-19.043,
00:00:04:0,0.01,0.384,0.911,9.216,12.939,-19.227,
00:00:04:16,0.012,0.384,0.909,8.911,9.704,-18.738,
00:00:04:33,0.01,0.387,0.909,7.385,8.972,-20.02,
00:00:04:50,0.01,0.392,0.908,9.399,6.53,-23.255,
00:00:04:66,0.005,0.394,0.909,8.972,5.493,-24.964,
00:00:04:83,0.007,0.393,0.911,10.742,6.774,-24.781,
00:00:04:100,0.012,0.39,0.907,10.62,9.094,-25.391,
00:00:04:116,0.013,0.391,0.906,12.756,5.249,-26.368,
00:00:04:133,0.012,0.386,0.912,11.84,6.408,-27.71,
00:00:04:150,0.012,0.378,0.918,14.77,4.577,-27.71,
00:00:04:166,0.017,0.378,0.916,10.742,10.742,-28.687,
00:00:04:183,0.015,0.391,0.922,19.958,15.93,-26.185,
00:00:04:200,-0.031,0.381,0.914,25.146,19.226,-29.664,
00:00:04:216,-0.003,0.389,0.913,20.629,27.038,-29.664,
00:00:04:233,0.003,0.394,0.915,28.747,31.616,-28.321,
00:00:04:250,0.01,0.388,0.912,31.982,34.912,-27.771,
00:00:04:266,0.017,0.385,0.904,27.954,36.071,-27.283,
00:00:04:283,0.027,0.387,0.905,24.719,28.869,-26.368,
00:00:04:300,0.012,0.383,0.923,17.517,26.672,-24.659,
00:00:04:316,-0.013,0.377,0.958,27.343,47.18,-12.33,
00:00:04:333,-0.01,0.372,0.985,100.83,109.619,8.056,
00:00:04:350,0.003,0.417,1.084,262.207,202.636,48.461,
00:00:04:366,-0.124,0.455,1.475,750.061,468.689,124.206,
00:00:04:383,-0.454,0.977,1.475,1359.985,1472.229,237.304,
00:00:04:400,0.644,-0.118,3.125,839.782,1103.332,350.097,
00:00:04:416,1.271,1.351,3.87,13.61,502.014,323.547,
00:00:04:433,1.569,1.307,3.385,40.405,-719.666,566.101,
00:00:04:450,1.024,1.748,3.173,475.341,-1465.699,776.123,
00:00:04:466,1.312,1.712,3.04,1633.239,-2000,806.03,
00:00:04:483,1.394,1.195,2.646,1999.694,-2000,892.212,
00:00:04:500,0.97,0.604,2.011,1999.694,-2000,698.486,
00:00:04:516,0.837,0.053,1.272,1999.694,-2000,344.604,
00:00:04:533,0.987,0.056,0.597,1535.339,-2000,196.289,
00:00:04:550,1.326,0.186,0.064,735.29,-2000,151.428,
00:00:04:566,1.601,0.178,-0.467,649.597,-2000,369.567,
00:00:04:583,1.664,-0.046,-1.397,536.499,-2000,362.365,
00:00:04:600,1.385,-0.589,-2.343,89.111,-2000,528.686,
00:00:04:616,1.082,-0.468,-2.504,-153.26,-2000,665.832,
00:00:04:633,1.05,-0.113,-2.095,-255.066,-1390.137,355.835,
00:00:04:650,0.917,0.114,-1.77,-70.984,-293.152,92.712,
00:00:04:666,0.681,0.012,-1.678,203.613,678.527,-165.589,
00:00:04:683,0.672,-0.214,-1.563,178.65,1447.021,-315.857,
00:00:04:700,0.536,-0.338,-1.333,-45.35,1999.694,-406.861,
00:00:04:716,0.474,-0.308,-1.096,-302.491,1999.694,-433.899,
00:00:04:733,0.452,-0.139,-0.921,-561.829,1999.694,-439.454,
00:00:04:750,0.327,0.014,-0.564,-781.434,1999.694,-480.835,
00:00:04:766,0.178,0.171,-0.16,-1006.287,1999.694,-539.795,
00:00:04:783,0.071,0.323,0.216,-1140.931,1999.694,-690.125,
00:00:04:800,0.134,0.311,0.705,-1027.771,1999.694,-748.414,
00:00:04:816,0.264,0.05,1.309,-768.067,1999.694,-703.125,
00:00:04:833,0.557,-0.086,1.745,-1087.83,1999.694,-461.121,
00:00:04:850,0.601,0.324,1.659,-1578.797,1999.694,-297.974,
00:00:04:866,0.583,1.23,2.241,-1047.364,1999.694,-395.569,
00:00:04:883,1.251,0.081,2.114,322.815,1521.545,-567.81,
00:00:04:900,0.821,0.064,3.35,239.868,558.96,-341.736,
00:00:04:916,0.151,0.243,2.783,-396.302,111.694,-141.602,
00:00:04:933,-0.14,0.458,2.212,-676.148,23.986,-219.788,
00:00:04:950,-0.168,0.566,1.873,-778.565,220.337,-186.28,
00:00:04:966,-0.069,0.516,1.492,-561.402,416.076,-109.436,
00:00:04:983,0.045,0.332,1.054,-212.281,452.026,-79.102,
00:00:05:0,0.044,0.413,0.782,355.102,543.213,79.04,
00:00:05:16,0.571,-0.823,1.961,284.668,-208.374,-205.14,
00:00:05:33,0.223,0.071,1.917,-479.493,-337.525,240.478,
00:00:05:50,-0.115,0.398,1.046,-435.059,-269.227,-107.605,
00:00:05:66,-0.088,0.204,0.771,-532.41,-88.623,-45.105,
00:00:05:83,-0.02,0.356,0.738,-541.687,-22.522,20.935,
00:00:05:100,0.04,0.339,0.849,-288.086,-51.819,-11.231,
00:00:05:116,0.052,0.205,0.929,-158.936,-95.032,-7.325,
00:00:05:133,0.058,0.169,0.945,-152.1,-112.793,24.353,
00:00:05:150,0.079,0.187,0.98,-163.086,-131.104,17.028,
00:00:05:166,0.089,0.25,0.976,-190.003,-162.354,5.676,
00:00:05:183,0.087,0.343,0.978,-224.915,-206.665,-7.813,
00:00:05:200,0.026,0.379,0.943,-169.007,-235.718,-5.921,
00:00:05:216,-0.025,0.319,0.955,-94.849,-229.126,-32.593,
00:00:05:233,-0.045,0.279,0.969,-67.688,-175.11,-34.607,
00:00:05:250,-0.029,0.285,0.976,-70.252,-132.081,-45.96,
00:00:05:266,-0.016,0.321,0.964,-89.478,-123.78,-49.866,
00:00:05:283,-0.026,0.354,0.959,-74.219,-139.222,-45.716,
00:00:05:300,-0.061,0.352,0.961,-14.466,-125,-45.227,
00:00:05:316,-0.071,0.297,0.963,27.648,-76.416,-54.688,
00:00:05:333,-0.039,0.264,0.961,12.451,-28.26,-57.373,
00:00:05:350,-0.011,0.282,0.947,-12.207,-13.611,-53.162,
00:00:05:366,-0.006,0.301,0.943,-14.344,-24.414,-48.157,
00:00:05:383,-0.034,0.307,0.959,-5.433,-38.269,-41.138,
00:00:05:400,-0.069,0.314,0.967,5.737,-22.95,-37.415,
00:00:05:416,-0.064,0.318,0.966,42.114,61.706,-29.114,
00:00:05:433,-0.044,0.317,0.956,61.096,83.252,-25.208,
00:00:05:450,-0.033,0.306,0.973,91.308,94.909,-19.349,
00:00:05:466,-0.034,0.287,0.973,119.506,117.065,-12.269,
00:00:05:483,-0.033,0.285,0.971,153.32,150.39,-4.334,
00:00:05:500,-0.026,0.287,0.955,173.156,192.932,-0.367,
00:00:05:516,-0.019,0.294,0.959,208.252,218.994,11.291,
00:00:05:533,-0.016,0.287,0.975,235.229,235.351,24.231,
00:00:05:550,-0.003,0.254,0.975,238.159,237.732,29.48,
00:00:05:566,0.02,0.248,0.992,232.177,213.501,37.292,
00:00:05:583,0.041,0.227,0.97,167.297,149.963,32.531,
00:00:05:600,0.043,0.175,0.924,148.925,85.754,31.982,
00:00:05:616,0.031,0.171,0.903,104.248,23.071,43.029,
00:00:05:633,0.041,0.233,0.957,-0.428,-69.519,105.713,
00:00:05:650,-0.015,0.304,0.987,-118.164,-273.865,270.935,
00:00:05:666,-0.186,0.628,0.87,-212.525,-212.525,189.941,
00:00:05:683,-0.265,0.51,0.998,29.235,-370.789,214.416,
00:00:05:700,-0.305,0.3,1.072,295.105,-307.496,182.556,
00:00:05:716,-0.287,0.267,1.106,298.278,-203.736,232.849,
00:00:05:733,-0.25,0.343,1.106,337.28,-138.306,291.87,
00:00:05:750,-0.201,0.323,1.023,400.879,-139.527,315.857,
00:00:05:766,-0.214,0.256,0.984,433.288,-144.532,332.397,
00:00:05:783,-0.257,0.162,0.942,472.473,-104.676,294.799,
00:00:05:800,-0.244,0.085,0.973,502.929,-72.266,262.634,
00:00:05:816,-0.232,0.004,0.967,525.451,-35.523,192.199,
00:00:05:833,-0.23,-0.144,0.877,463.501,13.305,124.328,
00:00:05:850,-0.227,-0.227,0.815,297.79,95.214,85.083,
00:00:05:866,-0.175,-0.155,0.826,130.493,163.452,49.438,
00:00:05:883,-0.091,-0.046,0.859,46.447,191.711,-1.831,
00:00:05:900,0.007,-0.012,0.966,109.008,131.897,-77.393,
00:00:05:916,0.034,0.019,1.089,156.311,105.346,-106.812,
00:00:05:933,0.022,0.072,1.082,185.485,174.438,-158.875,
00:00:05:950,0.095,0.012,0.972,161.926,194.885,-188.904,
00:00:05:966,0.173,0.035,0.925,158.447,138.427,-174.927,
00:00:05:983,0.194,-0.003,0.934,219.238,14.77,-170.411,
00:00:06:0,0.154,-0.06,0.948,203.186,-73.182,-145.081,
00:00:06:16,0.081,0.026,1.034,101.318,-52.735,-120.484,
00:00:06:33,0.08,-0.019,1.024,38.269,-9.034,-161.133,
00:00:06:50,0.102,-0.023,1.053,-97.413,16.784,-158.631,
00:00:06:66,0.085,-0.011,1.004,-206.177,26.367,-172.669,
00:00:06:83,0.051,0.04,1.007,-247.498,54.687,-168.641,
00:00:06:100,0.077,0.053,1.008,-249.939,38.452,-165.833,
00:00:06:116,0.115,0.108,0.995,-257.935,-7.325,-108.033,
00:00:06:133,0.041,0.114,0.943,-178.833,-48.279,-124.146,
00:00:06:150,0.039,0.059,0.977,-160.157,-119.019,-93.934,
00:00:06:166,0.058,0.095,1.012,-293.824,-166.871,-63.05,
00:00:06:183,0.093,0.213,0.933,-348.572,-182.801,-43.58,
00:00:06:200,0.041,0.133,0.889,-399.17,-242.615,-56.214,
00:00:06:216,-0.014,0.173,0.892,-462.586,-251.709,2.929,
00:00:06:233,-0.019,0.202,0.882,-469.727,-239.563,19.104,
00:00:06:250,-0.023,0.194,0.894,-447.937,-248.169,49.621,
00:00:06:266,-0.068,0.199,0.969,-482.178,-238.282,69.641,
00:00:06:283,-0.114,0.258,1.055,-594.91,-184.51,63.659,
00:00:06:300,-0.156,0.239,1.121,-700.745,-100.831,71.533,
00:00:06:316,-0.141,0.175,1.049,-807.618,-70.435,91.919,
00:00:06:333,-0.14,0.281,1.066,-861.084,-44.556,172.058,
00:00:06:350,-0.196,0.5,1.002,-727.234,19.287,233.642,
00:00:06:366,-0.147,0.468,0.82,-439.515,5.371,246.826,
00:00:06:383,-0.095,0.412,0.863,-128.785,-31.067,279.235,
00:00:06:400,-0.146,0.397,0.877,59.57,-8.179,239.685,
00:00:06:416,-0.153,0.368,0.893,148.071,70.556,188.842,
00:00:06:433,-0.133,0.338,0.88,149.047,121.948,161.987,
00:00:06:450,-0.137,0.321,0.837,122.619,118.408,164.795,
00:00:06:466,-0.183,0.34,0.887,109.863,101.501,177.856,
00:00:06:483,-0.204,0.363,0.925,93.75,96.801,176.147,
00:00:06:500,-0.153,0.358,0.952,21.301,73.852,149.292,
00:00:06:516,-0.151,0.404,0.973,-32.349,38.879,145.752,
00:00:06:533,-0.145,0.447,0.961,-27.283,35.644,128.418,
00:00:06:550,-0.139,0.474,0.981,103.393,22.766,123.291,
00:00:06:566,-0.132,0.427,1,267.517,13.183,115.173,
00:00:06:583,-0.138,0.348,0.967,431.03,13.366,108.886,
00:00:06:600,-0.145,0.25,0.943,525.329,-0.55,120.117,idleRH
00:00:06:616,-0.181,0.195,0.897,471.313,19.409,109.253,
00:00:06:633,-0.18,0.126,0.869,245.483,97.106,49.194,
00:00:06:650,-0.162,0.144,0.916,141.052,104.736,34.24,
00:00:06:666,-0.147,0.149,0.968,38.208,84.289,10.864,
00:00:06:683,-0.149,0.136,0.989,-62.256,78.552,-17.151,
00:00:06:700,-0.146,0.166,0.996,-117.981,86.731,-42.42,
00:00:06:716,-0.144,0.175,0.988,-132.752,92.773,-53.833,
00:00:06:733,-0.146,0.21,0.978,-117.005,91.247,-78.431,
00:00:06:750,-0.137,0.208,0.967,-75.562,67.138,-86.121,
00:00:06:766,-0.139,0.213,0.95,-59.449,33.142,-98.45,
00:00:06:783,-0.153,0.225,0.955,-83.008,32.104,-110.718,
00:00:06:800,-0.139,0.242,0.96,-128.724,49.438,-121.155,
00:00:06:816,-0.125,0.243,0.945,-168.152,52.368,-117.066,
00:00:06:833,-0.117,0.274,0.952,-197.083,24.841,-109.07,
00:00:06:850,-0.115,0.289,0.948,-229.737,-12.574,-98.938,
00:00:06:866,-0.128,0.321,0.943,-244.69,-29.053,-91.797,
00:00:06:883,-0.126,0.334,0.94,-234.07,-12.269,-97.352,
00:00:06:900,-0.104,0.294,0.93,-278.931,-18.311,-79.285,
00:00:06:916,-0.115,0.288,0.904,-389.405,-33.692,-58.655,
00:00:06:933,-0.125,0.317,0.917,-527.527,-46.753,-62.256,
00:00:06:950,-0.124,0.39,0.927,-567.444,-54.444,-86.914,
00:00:06:966,-0.106,0.392,0.96,-481.568,-82.703,-95.093,
00:00:06:983,-0.117,0.39,0.925,-405.213,-93.506,-94.422,
00:00:07:0,-0.144,0.401,0.884,-330.872,-83.558,-95.704,
00:00:07:16,-0.135,0.38,0.885,-345.459,-85.389,-92.652,
00:00:07:33,-0.15,0.426,0.894,-418.152,-78.064,-99.06,
00:00:07:50,-0.155,0.498,0.878,-458.069,-74.952,-103.516,
00:00:07:66,-0.158,0.497,0.849,-447.693,-55.481,-103.089,
00:00:07:83,-0.16,0.525,0.829,-397.278,-39.063,-105.591,
00:00:07:100,-0.158,0.516,0.835,-315.125,-26.429,-83.558,
00:00:07:116,-0.175,0.51,0.814,-245.911,-9.034,-80.079,
00:00:07:133,-0.184,0.56,0.831,-225.892,42.785,-88.074,
00:00:07:150,-0.155,0.557,0.806,-185.059,71.35,-96.314,
00:00:07:166,-0.138,0.611,0.812,-142.884,105.59,-77.332,
00:00:07:183,-0.132,0.623,0.776,-80.262,141.662,-59.388,
00:00:07:200,-0.114,0.598,0.784,-39.49,137.817,-23.926,
00:00:07:216,-0.119,0.572,0.788,-2.015,125.305,9.155,
00:00:07:233,-0.141,0.58,0.804,51.513,128.234,17.334,
00:00:07:250,-0.151,0.538,0.82,117.37,113.281,14.404,
00:00:07:266,-0.132,0.56,0.841,148.193,106.14,-14.283,
00:00:07:283,-0.105,0.586,0.791,160.705,124.572,9.277,
00:00:07:300,-0.093,0.556,0.765,254.882,78.002,1.586,
00:00:07:316,-0.08,0.565,0.816,292.236,48.584,-6.653,
00:00:07:333,-0.03,0.526,0.753,427.246,37.292,-94.483,
00:00:07:350,-0.063,0.425,0.876,551.391,-137.757,27.343,
00:00:07:366,-0.15,0.45,0.895,412.78,-75.318,-17.212,
00:00:07:383,-0.065,0.448,0.877,275.024,-43.519,-82.764,
00:00:07:400,-0.078,0.422,0.896,128.051,-91.675,-89.6,
00:00:07:416,-0.128,0.411,0.927,16.662,-93.018,-119.996,
00:00:07:433,-0.119,0.437,0.933,-15.076,-64.82,-125,
00:00:07:450,-0.108,0.38,0.891,-30.213,-55.176,-115.662,
00:00:07:466,-0.102,0.404,0.843,-57.068,-91.919,-100.342,
00:00:07:483,-0.13,0.484,0.823,-60.486,-122.986,-87.586,
00:00:07:500,-0.143,0.522,0.833,-30.213,-141.724,-88.929,
00:00:07:516,-0.153,0.505,0.864,5.981,-126.465,-85.206,
00:00:07:533,-0.155,0.49,0.853,26.672,-110.962,-95.215,
00:00:07:550,-0.15,0.479,0.841,88.317,-104.371,-99.305,
00:00:07:566,-0.169,0.395,0.844,124.45,-109.498,-90.882,
00:00:07:583,-0.181,0.402,0.824,2.014,-97.657,-81.177,
00:00:07:600,-0.192,0.507,0.819,10.192,-54.505,-92.835,
00:00:07:616,-0.138,0.478,0.855,29.48,-54.932,-101.441,
00:00:07:633,-0.146,0.452,0.879,16.479,-36.316,-116.211,
00:00:07:650,-0.144,0.421,0.909,-5.677,-16.907,-118.897,
00:00:07:666,-0.137,0.421,0.893,-24.048,1.159,-110.474,
00:00:07:683,-0.134,0.439,0.893,-1.648,1.22,-103.943,
00:00:07:700,-0.128,0.444,0.889,-18.799,-3.724,-89.966,
00:00:07:716,-0.145,0.482,0.87,-18.738,1.892,-85.877,
00:00:07:733,-0.136,0.465,0.849,15.564,4.821,-82.52,
00:00:07:750,-0.14,0.468,0.865,-10.621,-5.188,-74.036,
00:00:07:766,-0.146,0.444,0.881,-27.894,-14.161,-80.567,
00:00:07:783,-0.14,0.447,0.885,-78.614,-24.842,-71.167,
00:00:07:800,-0.139,0.498,0.869,-99.854,-24.842,-66.895,
00:00:07:816,-0.144,0.521,0.851,-67.505,-16.358,-60.608,
00:00:07:833,-0.146,0.526,0.847,-30.213,-4.7,-50.049,
00:00:07:850,-0.137,0.519,0.843,13.916,9.094,-32.898,
00:00:07:866,-0.128,0.525,0.845,59.326,24.169,-13.916,
00:00:07:883,-0.117,0.513,0.86,71.167,30.151,20.202,
00:00:07:900,-0.13,0.503,0.857,80.505,46.569,34.606,
00:00:07:916,-0.135,0.466,0.846,138.855,65.429,59.814,
00:00:07:933,-0.159,0.423,0.841,141.845,80.627,79.101,
00:00:07:950,-0.169,0.424,0.851,133.361,99.365,85.876,
00:00:07:966,-0.167,0.44,0.865,125.488,126.77,82.275,
00:00:07:983,-0.187,0.431,0.856,110.412,148.925,59.448,
00:00:08:0,-0.129,0.43,0.841,74.646,164.367,52.917,
00:00:08:16,-0.1,0.493,0.863,91.491,141.052,33.752,
00:00:08:33,-0.081,0.375,0.951,268.249,31.005,15.441,
00:00:08:50,-0.117,0.338,0.965,185.241,23.681,5.737,
00:00:08:66,-0.109,0.343,0.954,81.665,32.348,-0.489,
00:00:08:83,-0.099,0.382,0.918,26.672,29.602,-8.728,
00:00:08:100,-0.107,0.406,0.889,27.893,21.545,-14.405,
00:00:08:116,-0.115,0.405,0.865,17.089,21.911,-5.616,
00:00:08:133,-0.123,0.408,0.862,-29.541,49.011,-17.273,
00:00:08:150,-0.139,0.465,0.869,-35.584,39.55,26.001,
00:00:08:166,-0.136,0.429,0.855,1.281,43.029,28.076,
00:00:08:183,-0.151,0.429,0.85,47.607,69.458,46.142,
00:00:08:200,-0.136,0.409,0.881,101.562,81.298,50.354,
00:00:08:216,-0.115,0.391,0.912,126.831,70.434,57.373,
00:00:08:233,-0.111,0.374,0.935,135.62,64.025,59.326,
00:00:08:250,-0.109,0.369,0.952,135.131,62.866,54.138,
00:00:08:266,-0.1,0.369,0.943,106.445,58.532,46.875,
00:00:08:283,-0.104,0.397,0.907,109.253,51.635,36.193,
00:00:08:300,-0.107,0.385,0.909,157.714,53.711,20.202,
00:00:08:316,-0.104,0.311,0.927,158.02,32.043,16.174,
00:00:08:333,-0.101,0.284,0.964,72.937,9.216,14.587,
00:00:08:350,-0.114,0.321,0.943,-11.536,7.385,14.282,
00:00:08:366,-0.109,0.327,0.915,-38.88,13.732,-4.029,
00:00:08:383,-0.1,0.331,0.9,-58.289,9.46,-18.25,
00:00:08:400,-0.11,0.38,0.9,-80.933,11.108,-16.48,
00:00:08:416,-0.11,0.404,0.894,-77.027,15.258,-13.55,
00:00:08:433,-0.1,0.406,0.896,-60.486,11.474,-5.188,
00:00:08:450,-0.111,0.407,0.936,-33.936,0.305,2.38,
00:00:08:466,-0.125,0.395,0.917,-16.541,4.943,-0.733,
00:00:08:483,-0.105,0.384,0.904,-42.542,2.38,-0.977,
00:00:08:500,-0.104,0.381,0.901,-55.603,-4.212,1.953,
00:00:08:516,-0.112,0.379,0.897,-51.087,-2.93,1.586,
00:00:08:533,-0.104,0.388,0.899,-49.012,2.99,2.746,
00:00:08:550,-0.103,0.397,0.911,-40.039,-2.503,0.427,
00:00:08:566,-0.109,0.383,0.915,-30.823,-10.132,-0.061,
00:00:08:583,-0.117,0.388,0.907,-34.241,-6.775,1.342,
00:00:08:600,-0.121,0.403,0.905,-28.748,-6.165,-1.831,
00:00:08:616,-0.125,0.398,0.907,-18.433,-6.897,-3.846,
00:00:08:633,-0.131,0.384,0.902,-18.555,-0.855,-7.325,
00:00:08:650,-0.129,0.391,0.901,-20.02,5.859,-14.466,
00:00:08:666,-0.121,0.39,0.903,-21.729,9.826,-23.316,
00:00:08:683,-0.123,0.405,0.897,-11.719,14.465,-34.119,
00:00:08:700,-0.118,0.401,0.898,1.342,1.159,-46.326,
00:00:08:716,-0.12,0.4,0.898,-7.752,19.592,-56.641,
00:00:08:733,-0.133,0.38,0.883,-21.241,18.127,-64.393,
00:00:08:750,-0.123,0.381,0.894,-37.842,18.066,-67.505,
00:00:08:766,-0.105,0.4,0.901,-59.388,5.432,-67.322,
00:00:08:783,-0.095,0.442,0.869,-82.764,-32.471,-76.905,
00:00:08:800,-0.113,0.458,0.857,-61.341,-66.285,-81.116,
00:00:08:816,-0.119,0.433,0.884,-52.002,-81.971,-94.605,
00:00:08:833,-0.119,0.429,0.908,-67.017,-80.384,-114.624,
00:00:08:850,-0.121,0.415,0.929,-42.298,-67.2,-135.437,
00:00:08:866,-0.146,0.368,0.899,-43.58,-41.26,-151.978,
00:00:08:883,-0.157,0.344,0.853,-117.554,-14.405,-145.752,
00:00:08:900,-0.117,0.423,0.85,-188.965,-18.616,-124.695,
00:00:08:916,-0.107,0.482,0.874,-150.025,-41.81,-113.404,
00:00:08:933,-0.122,0.45,0.898,-86.67,-50.293,-102.112,
00:00:08:950,-0.125,0.435,0.906,-108.826,-36.744,-94.91,
00:00:08:966,-0.105,0.47,0.885,-122.071,-25.696,-85.755,
00:00:08:983,-0.109,0.472,0.862,-96.253,-29.175,-85.694,
00:00:09:0,-0.108,0.456,0.865,-97.596,-26.429,-68.543,
00:00:09:16,-0.114,0.473,0.871,-100.22,-19.593,-57.373,
00:00:09:33,-0.118,0.491,0.869,-82.703,-13.367,-43.457,
00:00:09:50,-0.119,0.49,0.866,-55.848,-4.395,-34.79,
00:00:09:66,-0.128,0.497,0.843,-31.8,8.178,-25.757,
00:00:09:83,-0.123,0.501,0.834,5.004,13,-15.686,
00:00:09:100,-0.124,0.484,0.853,31.555,2.624,-18.616,
00:00:09:116,-0.135,0.462,0.883,31.189,0.915,-17.884,
00:00:09:133,-0.13,0.452,0.88,11.535,5.31,-31.983,
00:00:09:150,-0.116,0.448,0.863,-0.489,8.483,-40.955,
00:00:09:166,-0.111,0.458,0.87,-6.531,13.183,-40.589,
00:00:09:183,-0.106,0.458,0.873,-14.71,12.817,-35.828,
00:00:09:200,-0.109,0.461,0.858,-22.034,16.906,-25.696,
00:00:09:216,-0.113,0.47,0.867,-4.883,19.958,-0.184,
00:00:09:233,-0.118,0.459,0.883,6.836,28.442,-4.578,
00:00:09:250,-0.127,0.47,0.877,0.244,47.241,2.624,
00:00:09:266,-0.116,0.459,0.878,3.601,52.795,10.559,
00:00:09:283,-0.134,0.461,0.854,-24.109,77.331,32.836,
00:00:09:300,-0.124,0.511,0.832,-2.625,101.318,41.015,
00:00:09:316,-0.11,0.495,0.824,35.034,96.557,62.194,
00:00:09:333,-0.127,0.499,0.833,48.828,87.646,55.603,
00:00:09:350,-0.126,0.482,0.853,23.986,88.989,44.616,
00:00:09:366,-0.122,0.505,0.855,30.944,93.322,31.616,
00:00:09:383,-0.094,0.494,0.878,78.979,83.068,23.925,
00:00:09:400,-0.084,0.475,0.897,101.562,71.106,21.118,
00:00:09:416,-0.084,0.434,0.888,78.369,64.88,10.742,
00:00:09:433,-0.088,0.458,0.885,64.819,79.589,39.062,
00:00:09:450,-0.071,0.494,0.873,109.069,72.021,57.922,
00:00:09:466,-0.052,0.447,0.895,104.187,32.898,81.237,
00:00:09:483,-0.091,0.466,0.898,92.041,25.817,112.793,
00:00:09:500,-0.109,0.517,0.891,113.891,57.922,128.54,
00:00:09:516,-0.083,0.544,0.868,179.321,75.317,137.268,
00:00:09:533,-0.045,0.468,0.899,215.576,86.364,140.38,
00:00:09:550,-0.09,0.542,0.894,128.906,29.785,185.608,
00:00:09:566,-0.116,0.513,0.868,187.805,35.949,199.768,
00:00:09:583,-0.136,0.517,0.837,267.028,39.428,225.158,
00:00:09:600,-0.143,0.462,0.821,370.544,48.4,222.046,
00:00:09:616,-0.144,0.464,0.878,556.396,20.813,165.649,
00:00:09:633,-0.093,0.098,0.99,571.594,-97.901,98.449,
00:00:09:650,-0.192,0.058,0.967,364.441,-95.948,72.753,
00:00:09:666,-0.205,0.034,0.956,148.315,-74.952,-6.653,
00:00:09:683,-0.171,0.12,0.917,-93.934,4.455,-46.143,
00:00:09:700,-0.135,0.224,0.873,-164.002,15.808,-79.468,
00:00:09:716,-0.102,0.298,0.861,-167.176,2.441,-89.661,
00:00:09:733,-0.111,0.368,0.883,-175.232,-11.048,-94.483,
00:00:09:750,-0.127,0.395,0.91,-192.322,-16.236,-103.638,
00:00:09:766,-0.139,0.43,0.92,-204.163,-10.315,-105.713,
00:00:09:783,-0.136,0.473,0.941,-141.297,-5.86,-111.206,
00:00:09:800,-0.114,0.416,0.957,-12.085,-15.381,-105.896,
00:00:09:816,-0.111,0.373,0.964,13.061,-29.053,-97.84,
00:00:09:833,-0.108,0.372,0.934,-11.841,-45.777,-98.45,
00:00:09:850,-0.093,0.391,0.906,-59.754,-80.079,-101.929,
00:00:09:866,-0.119,0.38,0.903,-49.927,-107.727,-114.258,
00:00:09:883,-0.146,0.328,0.924,-37.11,-106.385,-129.517,
00:00:09:900,-0.135,0.282,0.947,-75.074,-100.464,-137.269,
00:00:09:916,-0.143,0.378,0.891,-142.701,-80.201,-132.142,
00:00:09:933,-0.147,0.412,0.883,-119.568,-77.21,-144.654,
00:00:09:950,-0.149,0.384,0.887,-108.704,-65.003,-151.123,
00:00:09:966,-0.155,0.415,0.883,-99.671,-45.35,-140.32,
00:00:09:983,-0.131,0.39,0.884,-42.969,-52.918,-139.893,
00:00:10:0,-0.141,0.413,0.886,-68.055,-43.519,-121.399,
00:00:10:16,-0.142,0.456,0.855,-97.046,-27.039,-110.535,
00:00:10:33,-0.132,0.489,0.864,-83.435,-31.311,-94.422,
00:00:10:50,-0.142,0.492,0.863,-55.359,-28.016,-80.201,
00:00:10:66,-0.156,0.476,0.863,-13.855,-22.461,-66.773,
00:00:10:83,-0.173,0.458,0.864,30.639,-16.785,-56.031,
00:00:10:100,-0.164,0.424,0.865,18.31,-7.752,-46.814,
00:00:10:116,-0.163,0.433,0.87,-2.625,-2.808,-49.012,
00:00:10:133,-0.158,0.413,0.871,-26.429,-3.052,-53.894,
00:00:10:150,-0.159,0.42,0.88,-34.607,3.845,-62.623,
00:00:10:166,-0.155,0.388,0.898,-36.988,8.972,-69.397,
00:00:10:183,-0.152,0.389,0.91,-70.801,16.601,-77.576,
00:00:10:200,-0.141,0.42,0.917,-82.581,23.681,-91.065,
00:00:10:216,-0.128,0.43,0.885,-72.998,34.057,-115.296,
00:00:10:233,-0.146,0.412,0.859,-86.182,43.884,-142.823,
00:00:10:250,-0.14,0.373,0.855,-124.085,60.363,-149.17,
00:00:10:266,-0.102,0.403,0.888,-164.612,45.837,-138.611,
00:00:10:283,-0.09,0.456,0.915,-179.078,26.062,-132.386,
00:00:10:300,-0.094,0.488,0.918,-159.18,11.657,-126.16,
00:00:10:316,-0.104,0.502,0.881,-132.142,-3.54,-132.325,
00:00:10:333,-0.11,0.504,0.862,-93.262,-12.574,-137.391,
00:00:10:350,-0.122,0.49,0.86,-53.589,-10.865,-146.607,
00:00:10:366,-0.129,0.464,0.868,-46.387,-1.038,-147.767,
00:00:10:383,-0.119,0.462,0.865,-87.83,3.418,-147.034,
00:00:10:400,-0.112,0.483,0.842,-115.723,15.38,-144.898,
00:00:10:416,-0.097,0.485,0.862,-174.561,22.033,-120.301,
00:00:10:433,-0.088,0.533,0.794,-252.93,-6.836,-123.352,
00:00:10:450,-0.093,0.563,0.796,-208.008,-29.175,-117.005,
00:00:10:466,-0.098,0.555,0.789,-145.813,-22.767,-119.019,
00:00:10:483,-0.088,0.567,0.809,-113.953,-24.048,-113.038,
00:00:10:500,-0.098,0.576,0.815,-69.764,-19.227,-105.408,
00:00:10:516,-0.108,0.565,0.831,5.859,-0.489,-84.168,
00:00:10:533,-0.115,0.535,0.814,101.196,6.958,-65.247,
00:00:10:550,-0.112,0.539,0.851,175.476,32.348,-41.687,
00:00:10:566,-0.113,0.592,0.788,217.041,65.246,-11.048,
00:00:10:583,-0.089,0.616,0.826,396.423,91.308,-1.099,
00:00:10:600,-0.072,0.553,0.833,528.625,108.459,35.949,idleRH
00:00:10:616,-0.072,0.487,0.831,588.012,113.952,39.245,
00:00:10:633,-0.061,0.483,0.874,645.691,102.783,60.058,
00:00:10:650,-0.057,0.412,0.884,674.743,98.449,84.961,
00:00:10:666,-0.075,0.188,0.755,201.843,98.816,-45.777,
00:00:10:683,-0.024,0.388,0.931,48.339,77.209,46.752,
00:00:10:700,-0.045,0.311,0.936,58.532,21.545,20.324,
00:00:10:716,-0.107,0.247,0.901,87.158,21.545,26.306,
00:00:10:733,-0.091,0.247,0.958,8.056,21.362,8.667,
00:00:10:750,-0.074,0.464,0.97,16.113,1.464,33.386,
00:00:10:766,-0.116,0.31,0.89,1.098,11.352,-14.344,
00:00:10:783,-0.082,0.378,0.915,-56.946,18.371,6.713,
00:00:10:800,-0.069,0.397,0.89,-62.45,5260.283,1792.515,
00:00:10:816,-0.104,0.428,0.881,-1.465,24.414,-5.066,
00:00:10:833,-0.087,0.39,0.897,-24.659,27.587,-6.409,
00:00:10:850,-0.081,0.419,0.9,-12.94,22.216,0.183,
00:00:10:866,-0.084,0.411,0.91,3.662,25.024,3.479,
00:00:10:883,-0.08,0.379,0.935,-1.099,27.587,2.502,
00:00:10:900,-0.074,0.379,0.92,-27.161,20.202,3.479,
00:00:10:916,-0.073,0.391,0.902,-67.688,14.953,-8.484,
00:00:10:933,-0.068,0.419,0.893,-104.432,6.652,-3.907,
00:00:10:950,-0.064,0.421,0.893,-117.066,4.76,1.586,
00:00:10:966,-0.052,0.473,0.951,-102.417,-7.264,2.563,
00:00:10:983,-0.066,0.465,0.876,-98.145,2.075,2.807,
00:00:11:0,-0.068,0.47,0.94,-96.68,-2.808,7.629,
00:00:11:16,-0.094,0.447,0.872,-94.666,9.887,8.3,
00:00:11:33,-0.096,0.461,0.917,-91.858,16.845,14.77,
00:00:11:50,-0.102,0.489,0.898,-80.811,30.517,11.535,
00:00:11:66,-0.094,0.515,0.88,-15.87,48.461,15.93,
00:00:11:83,-0.09,0.497,0.891,50.17,64.086,20.385,
00:00:11:100,-0.078,0.48,0.867,76.782,67.504,29.724,
00:00:11:116,-0.078,0.474,0.894,92.224,70.922,34.179,
00:00:11:133,-0.079,0.459,0.882,101.867,71.289,33.874,
00:00:11:150,-0.072,0.444,0.897,120.483,76.11,38.147,
00:00:11:166,-0.072,0.436,0.89,106.994,73.303,37.719,
00:00:11:183,-0.076,0.417,0.893,97.778,75.012,9.216,
00:00:11:200,-0.061,0.408,0.877,92.224,78.064,62.377,
00:00:11:216,-0.066,0.412,0.901,71.838,76.965,39.55,
00:00:11:233,-0.067,0.414,0.885,35.949,77.392,43.64,
00:00:11:250,-0.069,0.415,0.885,18.92,69.397,42.907,
00:00:11:266,-0.063,0.409,0.897,11.596,51.818,41.992,
00:00:11:283,-0.07,0.41,0.909,-20.997,37.902,40.71,
00:00:11:300,-0.071,0.394,0.9,-42.603,39.123,39.306,
00:00:11:316,-0.055,0.394,0.911,-58.594,30.639,54.321,
00:00:11:333,-0.053,0.428,0.899,-84.534,18.493,56.823,
00:00:11:350,-0.05,0.457,0.883,-111.084,13.916,63.232,
00:00:11:366,-0.065,0.484,0.865,-109.131,10.559,65.979,
00:00:11:383,-0.062,0.489,0.854,-62.134,-3.479,75.683,
00:00:11:400,-0.086,0.513,0.846,13.122,-5.738,85.815,
00:00:11:416,-0.109,0.502,0.843,111.145,-4.822,69.336,
00:00:11:433,-0.093,0.424,0.886,170.837,-19.715,40.1,
00:00:11:450,-0.11,0.395,0.917,155.944,-21.363,18.798,
00:00:11:466,-0.123,0.372,0.905,125.61,2.99,-17.456,
00:00:11:483,-0.105,0.379,0.889,79.65,30.273,-42.664,
00:00:11:500,-0.085,0.411,0.884,75.988,41.503,-64.515,
00:00:11:516,-0.073,0.411,0.887,109.558,34.545,-67.688,
00:00:11:533,-0.074,0.409,0.875,119.323,23.437,-67.139,
00:00:11:550,-0.068,0.402,0.86,81.909,-7.264,-70.923,
00:00:11:566,-0.078,0.425,0.909,37.963,-15.503,-59.388,
00:00:11:583,-0.067,0.409,0.928,18.859,-34.974,-48.706,
00:00:11:600,-0.073,0.388,0.925,14.831,-41.871,-37.598,
00:00:11:616,-0.07,0.39,0.897,-9.949,-47.608,-34.729,
00:00:11:633,-0.073,0.415,0.893,-11.292,-42.786,-26.49,
00:00:11:650,-0.082,0.413,0.902,14.831,-37.049,-24.781,
00:00:11:666,-0.087,0.393,0.904,18.615,-26.001,-15.992,
00:00:11:683,-0.079,0.403,0.903,24.658,-15.076,-8.362,
00:00:11:700,-0.078,0.389,0.904,28.503,-33.143,-7.325,
00:00:11:716,-0.101,0.389,0.909,13.366,-36.438,-5.921,
00:00:11:733,-0.103,0.394,0.911,-3.724,-23.316,-12.757,
00:00:11:750,-0.095,0.389,0.91,-4.822,-10.56,-15.381,
00:00:11:766,-0.096,0.388,0.907,-3.968,-6.531,-12.574,
00:00:11:783,-0.101,0.4,0.903,-16.846,-9.156,-12.391,
00:00:11:800,-0.105,0.393,0.901,-13.184,-10.376,-13.794,
00:00:11:816,-0.108,0.396,0.909,-26.062,-7.264,-22.583,
00:00:11:833,-0.105,0.399,0.903,-29.053,-5.188,-28.565,
00:00:11:850,-0.102,0.402,0.897,-32.471,-4.456,-31.495,
00:00:11:866,-0.098,0.407,0.889,-33.814,-7.142,-33.081,
00:00:11:883,-0.109,0.41,0.886,-26.001,-5.127,-32.959,
00:00:11:900,-0.109,0.405,0.89,-24.476,-3.357,-35.584,
00:00:11:916,-0.107,0.41,0.893,-47.425,1.77,-33.448,
00:00:11:933,-0.102,0.421,0.888,-52.308,1.831,-35.035,
00:00:11:950,-0.096,0.423,0.89,-34.79,-5.982,-31.861,
00:00:11:966,-0.099,0.426,0.894,-31.495,-7.691,-29.541,
00:00:11:983,-0.111,0.432,0.888,-24.292,-1.465,-24.292,
00:00:12:0,-0.103,0.424,0.887,0.488,7.69,-25.025,
00:00:12:16,-0.095,0.418,0.884,11.474,2.624,-19.837,
00:00:12:33,-0.097,0.418,0.897,12.023,-7.142,-12.696,
00:00:12:50,-0.11,0.431,0.897,21.484,-3.235,-8.851,
00:00:12:66,-0.104,0.426,0.899,32.226,-1.526,-9.4,
00:00:12:83,-0.099,0.42,0.892,22.277,-7.569,-12.452,
00:00:12:100,-0.115,0.432,0.891,23.864,-13.489,-17.945,
00:00:12:116,-0.108,0.432,0.894,26.733,-17.029,-23.987,
00:00:12:133,-0.111,0.436,0.893,36.377,-9.278,-26.123,
00:00:12:150,-0.103,0.424,0.884,62.683,-14.222,-27.344,
00:00:12:166,-0.102,0.428,0.885,66.711,-17.945,-19.593,
00:00:12:183,-0.116,0.424,0.889,74.218,-18.006,-16.358,
00:00:12:200,-0.111,0.396,0.893,79.223,-18.799,-12.818,
00:00:12:216,-0.117,0.39,0.9,60.119,-23.011,-11.231,
00:00:12:233,-0.119,0.389,0.902,36.438,-22.278,-12.757,
00:00:12:250,-0.114,0.385,0.908,18.493,-24.231,-10.621,
00:00:12:266,-0.117,0.383,0.916,7.568,-26.551,-9.339,
00:00:12:283,-0.122,0.394,0.916,4.394,-25.574,-5.799,
00:00:12:300,-0.124,0.39,0.915,2.319,-28.443,-4.761,
00:00:12:316,-0.119,0.379,0.911,-10.437,-39.856,-1.282,
00:00:12:333,-0.13,0.401,0.903,-15.748,-41.871,-0.245,
00:00:12:350,-0.127,0.41,0.934,-17.945,-38.269,1.648,
00:00:12:366,-0.12,0.416,0.894,-21.546,-40.833,6.469,
00:00:12:383,-0.125,0.419,0.879,-12.574,-45.289,11.901,
00:00:12:400,-0.129,0.41,0.912,19.165,-45.044,34.362,
00:00:12:416,-0.133,0.398,0.916,12.756,-43.702,34.24,
00:00:12:433,-0.141,0.396,0.91,15.502,-40.039,29.174,
00:00:12:450,-0.143,0.349,0.886,-53.833,-15.015,17.578,
00:00:12:466,-0.153,0.426,0.874,-31.556,-34.18,11.291,
00:00:12:483,-0.151,0.413,0.902,4.089,-62.195,21.057,
00:00:12:500,-0.161,0.408,0.903,0.183,-69.153,18.127,
00:00:12:516,-0.171,0.407,0.902,0.549,-72.144,16.845,
00:00:12:533,-0.176,0.416,0.902,15.686,-77.576,19.104,
00:00:12:550,-0.18,0.429,0.898,43.762,-79.712,23.01,
00:00:12:566,-0.194,0.414,0.912,172.18,-91.37,44.006,
00:00:12:583,-0.194,0.403,0.89,201.66,-95.581,47.851,
00:00:12:600,-0.213,0.39,0.893,194.824,-90.271,49.926,
00:00:12:616,-0.213,0.37,0.889,167.602,-80.933,48.034,
00:00:12:633,-0.215,0.36,0.889,144.775,-62.378,40.283,
00:00:12:650,-0.207,0.357,0.884,134.885,2066.109,13588.489,
00:00:12:666,-0.232,0.313,0.868,160.278,28.198,-23.621,
00:00:12:683,-0.244,0.267,0.856,144.409,73.059,-33.204,
00:00:12:700,-0.208,0.228,0.885,94.543,93.261,-37.11,
00:00:12:716,-0.195,0.266,0.916,41.992,97.412,-43.763,
00:00:12:733,-0.199,0.306,0.933,39.184,107.299,-56.885,
00:00:12:750,-0.179,0.297,0.915,-31.434,87.463,-88.929,
00:00:12:766,-0.167,0.336,0.913,-14.588,66.772,-73.487,
00:00:12:783,-0.177,0.34,0.928,-4.639,59.448,-67.017,
00:00:12:800,-0.174,0.353,0.937,-6.653,56.03,-72.327,
00:00:12:816,-0.174,0.337,0.937,-23.926,48.767,-78.248,
00:00:12:833,-0.184,0.326,0.92,-55.909,46.63,-76.477,
00:00:12:850,-0.166,0.35,0.918,-42.664,43.701,-70.679,
00:00:12:866,-0.161,0.364,0.936,-35.34,28.564,-62.317,
00:00:12:883,-0.163,0.367,0.947,-43.335,21.606,-60.425,
00:00:12:900,-0.165,0.379,0.93,-25.635,24.108,-67.994,
00:00:12:916,-0.157,0.378,0.912,22.827,21.545,-64.515,
00:00:12:933,-0.165,0.359,0.901,50.415,26.55,-61.463,
00:00:12:950,-0.165,0.318,0.884,30.029,32.898,-52.613,
00:00:12:966,-0.168,0.337,0.889,8.85,35.217,-39.551,
00:00:12:983,-0.164,0.354,0.91,27.648,35.766,-38.819,
00:00:13:0,-0.162,0.349,0.934,9.277,40.283,-37.781,
00:00:13:16,-0.159,0.355,0.932,-0.916,51.025,-47.608,
00:00:13:33,-0.15,0.368,0.93,27.465,57.678,-56.946,
00:00:13:50,-0.151,0.352,0.906,42.053,64.453,-56.641,
00:00:13:66,-0.149,0.322,0.896,40.71,63.415,-60.364,
00:00:13:83,-0.137,0.322,0.912,40.344,53.405,-49.256,
00:00:13:100,-0.129,0.323,0.945,38.452,38.269,-40.223,
00:00:13:116,-0.134,0.322,0.979,42.968,38.086,-34.546,
00:00:13:133,-0.134,0.362,0.976,56.396,39.55,-37.171,
00:00:13:150,-0.122,0.4,0.955,103.698,32.836,-41.016,
00:00:13:166,-0.127,0.397,0.904,186.462,17.395,-52.613,
00:00:13:183,-0.154,0.326,0.893,239.929,19.958,-50.232,
00:00:13:200,-0.147,0.259,0.929,272.705,25.512,-37.232,
00:00:13:216,-0.13,0.252,0.958,203.491,24.536,-17.029,
00:00:13:233,-0.133,0.307,0.972,152.099,13.977,-9.4,
00:00:13:250,-0.129,0.355,0.97,152.404,17.211,-7.935,
00:00:13:266,-0.116,0.384,0.986,210.083,15.319,0.854,
00:00:13:283,-0.112,0.385,0.99,262.146,19.165,13.855,
00:00:13:300,-0.106,0.364,0.981,325.927,46.508,14.831,
00:00:13:316,-0.121,0.276,0.934,367.492,34.24,-37.598,
00:00:13:333,-0.102,0.203,0.958,331.421,-8.545,75.622,
00:00:13:350,-0.114,0.215,0.969,279.419,-59.51,79.956,
00:00:13:366,-0.158,0.252,0.964,313.171,-61.89,96.618,
00:00:13:383,-0.18,0.232,0.992,364.502,-21.058,87.463,
00:00:13:400,-0.151,0.195,0.993,315.49,4.272,76.904,
00:00:13:416,-0.128,0.18,0.951,268.737,5.249,68.359,
00:00:13:433,-0.145,0.129,0.913,268.554,-7.081,64.88,
00:00:13:450,-0.169,0.08,0.896,254.211,-8.423,70.434,
00:00:13:466,-0.179,0.09,0.92,209.594,18.493,81.97,
00:00:13:483,-0.176,0.14,0.935,176.086,55.847,76.416,
00:00:13:500,-0.163,0.147,0.936,165.588,75.378,72.082,
00:00:13:516,-0.15,0.102,0.908,144.653,47.973,74.829,
00:00:13:533,-0.171,0.087,0.905,123.108,43.579,86.608,
00:00:13:550,-0.19,0.055,0.892,99.975,64.514,80.871,
00:00:13:566,-0.174,0.059,0.876,60.058,89.233,78.613,
00:00:13:583,-0.145,0.076,0.935,80.688,106.201,57.922,
00:00:13:600,-0.126,0.022,1.011,67.138,98.571,26.733,
00:00:13:616,-0.112,-0.07,1.043,-12.635,37.17,-1.16,
00:00:13:633,-0.136,-0.028,1.037,-114.747,21.911,-1.221,
00:00:13:650,-0.141,0.021,1.001,-151.368,40.283,-36.622,
00:00:13:666,-0.107,0.026,0.995,-141.785,38.818,-59.021,
00:00:13:683,-0.063,0.06,1.006,-161.438,26.489,-63.294,
00:00:13:700,-0.098,0.087,1.005,-171.448,18.371,-74.891,
00:00:13:716,-0.108,0.103,1.01,-184.876,18.432,-79.529,
00:00:13:733,-0.097,0.102,1.016,-218.079,18.31,-79.529,
00:00:13:750,-0.105,0.186,1.005,-241.822,28.259,-58.838,
00:00:13:766,-0.113,0.212,1.008,-235.23,19.409,-43.885,
00:00:13:783,-0.113,0.238,1.002,-196.106,14.831,-32.227,
00:00:13:800,-0.114,0.233,0.992,-147.339,12.451,-31.128,
00:00:13:816,-0.122,0.213,0.987,-113.16,10.253,-24.109,
00:00:13:833,-0.123,0.184,0.963,-133.973,3.173,-10.682,
00:00:13:850,-0.113,0.166,0.941,-186.158,-14.588,14.831,
00:00:13:866,-0.112,0.177,0.936,-266.053,-33.387,31.738,
00:00:13:883,-0.134,0.192,0.925,-391.724,-40.833,49.987,
00:00:13:900,-0.168,0.215,0.927,-522.889,-16.236,47.485,
00:00:13:916,-0.175,0.278,0.94,-548.89,27.648,46.02,
00:00:13:933,-0.14,0.287,0.952,-463.99,36.926,43.64,
00:00:13:950,-0.145,0.302,0.962,-360.169,44.006,27.343,
00:00:13:966,-0.137,0.312,0.969,-237.61,42.968,18.737,
00:00:13:983,-0.128,0.278,0.995,-79.895,54.931,8.056,
00:00:14:0,-0.134,0.343,0.982,-91.858,62.194,26.916,
00:00:14:16,-0.155,0.366,0.942,-68.177,79.528,7.263,
00:00:14:33,-0.155,0.393,0.884,-52.735,104.919,-0.489,
00:00:14:50,-0.149,0.423,0.861,16.967,129.882,-17.945,
00:00:14:66,-0.13,0.336,0.891,99.304,149.536,-28.382,
00:00:14:83,-0.113,0.272,0.93,73.974,162.658,-12.635,
00:00:14:100,-0.103,0.289,0.946,6.958,183.899,-13.367,
00:00:14:116,-0.089,0.304,0.949,-13.062,197.326,-17.09,
00:00:14:133,-0.065,0.299,0.955,-15.137,213.379,-26.123,
00:00:14:150,-0.037,0.304,0.974,-12.207,162.902,-32.41,
00:00:14:166,0.003,0.278,0.994,-39.917,75.012,-25.208,
00:00:14:183,-0.034,0.291,0.976,-104.432,19.653,-18.25,
00:00:14:200,-0.068,0.335,0.943,-110.962,10.498,-13.062,
00:00:14:216,-0.073,0.352,0.928,-65.979,23.071,-10.621,
00:00:14:233,-0.074,0.361,0.924,-24.109,32.775,-8.912,
00:00:14:250,-0.076,0.347,0.916,27.282,28.991,-9.522,
00:00:14:266,-0.08,0.34,0.924,24.231,33.691,2.136,
00:00:14:283,-0.076,0.349,0.913,-6.958,42.663,-0.489,
00:00:14:300,-0.066,0.364,0.914,-26.551,45.227,-2.808,
00:00:14:316,-0.054,0.366,0.922,-21.363,36.315,-0.367,
00:00:14:333,-0.054,0.364,0.929,-8.973,20.446,1.037,
00:00:14:350,-0.062,0.352,0.927,5.004,-0.123,-3.235,
00:00:14:366,-0.068,0.339,0.927,9.948,-12.757,-7.996,
00:00:14:383,-0.068,0.34,0.931,7.629,-22.889,-12.207,
00:00:14:400,-0.072,0.34,0.928,1.831,-31.25,-18.311,
00:00:14:416,-0.076,0.328,0.92,-13.855,-27.527,-34.241,
00:00:14:433,-0.085,0.333,0.925,-25.574,-18.799,-37.171,
00:00:14:450,-0.088,0.35,0.925,-13.062,-2.015,-52.002,
00:00:14:466,-0.081,0.356,0.915,-34.729,4.821,-49.195,
00:00:14:483,-0.059,0.348,0.909,-39.49,-11.841,-21.363,
00:00:14:500,-0.068,0.353,0.896,-47.425,16.418,-31.189,
00:00:14:516,-0.048,0.365,0.92,-2.93,16.601,-8.973,
00:00:14:533,-0.047,0.306,0.912,7.568,-8.851,-4.212,
00:00:14:550,-0.104,0.317,0.921,-54.932,-7.752,-7.203,
00:00:14:566,-0.131,0.335,0.935,-74.158,7.873,-21.607,
00:00:14:583,-0.123,0.352,0.942,-92.591,20.813,-21.851,
00:00:14:600,-0.098,0.378,0.946,-92.53,12.878,-26.123,
00:00:14:616,-0.084,0.398,0.938,-77.637,11.047,-19.776,idleRH
00:00:14:633,-0.098,0.443,0.937,-56.031,37.475,3.54,
00:00:14:650,-0.045,0.403,0.916,69.824,30.151,-24.598,
00:00:14:666,-0.022,0.342,0.924,65.124,3.234,13.855,
00:00:14:683,-0.032,0.339,0.893,-16.297,-10.254,10.559,
00:00:14:700,-0.06,0.36,0.897,-25.879,-25.94,9.399,
00:00:14:716,-0.089,0.371,0.913,-48.035,-17.273,4.821,
00:00:14:733,-0.091,0.376,0.926,-57.312,0.366,0.732,
00:00:14:750,-0.092,0.388,0.912,-54.139,6.225,5.859,
00:00:14:766,-0.096,0.376,0.916,-46.998,-7.081,7.812,
00:00:14:783,-0.106,0.364,0.913,-90.332,-3.968,17.761,
00:00:14:800,-0.115,0.401,0.91,-110.901,21.301,8.3,
00:00:14:816,-0.1,0.397,0.919,-63.721,42.785,0.671,
00:00:14:833,-0.093,0.388,0.922,-15.198,49.072,-9.766,
00:00:14:850,-0.081,0.382,0.889,-84.046,24.902,-20.203,
00:00:14:866,-0.096,0.381,0.901,-82.276,23.437,-26.49,
00:00:14:883,-0.094,0.388,0.907,-96.192,35.4,-29.114,
00:00:14:900,-0.077,0.405,0.901,-91.98,40.161,-36.683,
00:00:14:916,-0.058,0.412,0.897,-68.787,27.404,-47.73,
00:00:14:933,-0.056,0.421,0.896,-33.204,28.564,-50.66,
00:00:14:950,-0.051,0.411,0.905,-10.621,24.536,-49.073,
00:00:14:966,-0.053,0.411,0.9,-19.471,19.47,-40.589,
00:00:14:983,-0.052,0.411,0.892,-60.547,10.376,-27.466,
00:00:15:0,-0.061,0.423,0.885,-68.543,8.178,-20.081,
00:00:15:16,-0.065,0.431,0.891,-54.139,3.845,-11.658,
00:00:15:33,-0.068,0.435,0.883,-26.734,7.202,-7.691,
00:00:15:50,-0.077,0.419,0.91,18.92,10.986,-31.189,
00:00:15:66,-0.079,0.414,0.929,-1.343,12.939,-20.142,
00:00:15:83,-0.073,0.418,0.905,-7.874,13.244,-22.828,
00:00:15:100,-0.071,0.426,0.898,-19.898,3.173,-24.17,
00:00:15:116,-0.069,0.427,0.894,-31.617,-5.31,-26.307,
00:00:15:133,-0.072,0.438,0.895,-41.993,-7.081,-31.983,
00:00:15:150,-0.073,0.437,0.897,-27.832,-0.428,-37.659,
00:00:15:166,-0.069,0.444,0.891,-4.7,14.465,-29.053,
00:00:15:183,-0.067,0.435,0.876,19.714,25.085,-22.522,
00:00:15:200,-0.065,0.42,0.883,10.62,25.146,-17.212,
00:00:15:216,-0.064,0.433,0.889,-2.442,19.958,-18.982,
00:00:15:233,-0.073,0.425,0.902,24.963,-18.128,-16.053,
00:00:15:250,-0.082,0.422,0.903,23.559,-9.4,-14.344,
00:00:15:266,-0.079,0.42,0.896,27.404,-9.827,-13.123,
00:00:15:283,-0.08,0.42,0.896,28.015,-11.841,-11.658,
00:00:15:300,-0.084,0.413,0.887,25.634,-11.719,-12.574,
00:00:15:316,-0.085,0.408,0.882,26.001,-4.7,-14.71,
00:00:15:333,-0.079,0.4,0.883,20.08,-2.32,-19.654,
00:00:15:350,-0.079,0.43,0.896,27.587,-9.461,-28.138,
00:00:15:366,-0.082,0.404,0.901,10.131,-7.874,-31.678,
00:00:15:383,-0.081,0.407,0.899,27.587,3.662,-35.279,
00:00:15:400,-0.086,0.414,0.896,27.526,1.77,-53.833,
00:00:15:416,-0.086,0.421,0.896,19.958,7.141,-49.195,
00:00:15:433,-0.083,0.42,0.894,10.131,12.085,-49.744,
00:00:15:450,-0.081,0.437,0.887,7.69,14.587,-45.289,
00:00:15:466,-0.078,0.432,0.883,26.184,12.207,-46.387,
00:00:15:483,-0.075,0.421,0.883,32.714,13.183,-46.692,
00:00:15:500,-0.071,0.419,0.879,40.161,11.657,-45.166,
00:00:15:516,-0.073,0.411,0.888,39.428,3.662,-40.467,
00:00:15:533,-0.081,0.392,0.906,32.348,12.695,-36.927,
00:00:15:550,-0.077,0.392,0.916,13.122,18.249,-38.88,
00:00:15:566,-0.072,0.404,0.911,8.972,25.268,-42.115,
00:00:15:583,-0.032,0.413,0.915,14.953,23.071,-38.941,
00:00:15:600,-0.06,0.416,0.899,19.653,8.056,-36.866,
00:00:15:616,-0.065,0.42,0.902,36.254,0.976,-33.509,
00:00:15:633,-0.076,0.419,0.897,47.424,5.493,-26.612,
00:00:15:650,-0.064,0.408,0.902,66.467,19.287,-20.569,
00:00:15:666,-0.057,0.415,0.9,63.72,18.798,-16.846,
00:00:15:683,-0.06,0.41,0.893,86.792,19.653,-1.343,
00:00:15:700,-0.066,0.411,0.905,90.148,8.544,3.356,
00:00:15:716,-0.084,0.401,0.918,103.088,9.948,6.103,
00:00:15:733,-0.089,0.385,0.918,101.623,24.78,8.239,
00:00:15:750,-0.081,0.386,0.912,113.037,29.296,7.324,
00:00:15:766,-0.075,0.376,0.917,128.662,24.841,6.958,
00:00:15:783,-0.068,0.375,0.923,137.085,14.526,9.338,
00:00:15:800,-0.058,0.37,0.925,153.991,11.108,6.713,
00:00:15:816,-0.054,0.361,0.939,169.677,9.338,9.033,
00:00:15:833,-0.049,0.351,0.949,162.292,1.403,15.014,
00:00:15:850,-0.055,0.351,0.946,151.916,9.582,6.225,
00:00:15:866,-0.062,0.381,0.949,178.344,0.061,22.949,
00:00:15:883,-0.065,0.383,0.954,290.283,-10.804,33.63,
00:00:15:900,-0.064,0.38,0.955,356.018,-2.442,44.067,
00:00:15:916,-0.078,0.352,0.954,440.307,-7.508,55.297,
00:00:15:933,-0.066,0.336,0.976,467.407,9.765,70.617,
00:00:15:950,-0.06,0.352,0.941,528.137,24.963,66.589,
00:00:15:966,-0.052,0.339,0.951,629.272,11.413,60.119,
00:00:15:983,-0.077,0.236,0.945,722.412,-4.517,38.33,
00:00:16:0,-0.092,0.114,0.932,705.749,-7.508,37.231,
00:00:16:16,-0.103,0.046,0.942,576.782,-9.095,38.33,
00:00:16:33,-0.135,0.033,0.971,435.363,22.461,40.039,
00:00:16:50,-0.118,0.023,0.985,367.92,1.342,-3.54,
00:00:16:66,-0.094,-0.019,1.005,336.547,-17.823,-17.945,
00:00:16:83,-0.087,-0.013,0.993,266.113,-46.509,-35.645,
00:00:16:100,-0.092,0.007,0.982,205.871,-63.782,-54.932,
00:00:16:116,-0.089,0.017,0.989,197.509,-63.111,-79.346,
00:00:16:133,-0.078,0.031,0.989,226.318,-55.298,-95.948,
00:00:16:150,-0.071,0.046,0.988,231.933,-59.266,-104.554,
00:00:16:166,-0.08,0.047,1.004,214.538,-64.393,-106.995,
00:00:16:183,-0.088,0.036,0.99,209.411,-69.947,-109.253,
00:00:16:200,-0.097,0.049,0.977,202.575,-68.36,-109.925,
00:00:16:216,-0.102,0.088,0.978,248.779,-79.102,-110.657,
00:00:16:233,-0.095,0.093,0.965,356.994,-109.498,-120.606,
00:00:16:250,-0.095,0.083,0.958,367.126,-147.461,-123.963,
00:00:16:266,-0.133,0.085,0.973,300.964,-168.824,-124.878,
00:00:16:283,-0.146,0.045,0.977,304.443,-167.725,-153.626,
00:00:16:300,-0.149,-0.033,1.018,312.927,-171.875,-169.495,
00:00:16:316,-0.169,-0.126,1.05,297.058,-165.589,-180.176,
00:00:16:333,-0.194,-0.21,1.015,280.822,-96.009,-166.565,
00:00:16:350,-0.21,-0.291,0.964,201.965,-45.716,-158.326,
00:00:16:366,-0.182,-0.302,0.911,57.739,16.357,-106.934,
00:00:16:383,-0.16,-0.234,0.909,-116.7,46.02,-54.749,
00:00:16:400,-0.141,-0.158,0.948,-257.081,56.091,-27.955,
00:00:16:416,-0.142,-0.131,1.001,-405.701,59.692,4.211,
00:00:16:433,-0.151,-0.085,1.005,-527.955,78.369,9.155,
00:00:16:450,-0.144,-0.022,0.996,-610.901,110.412,34.362,
00:00:16:466,-0.14,0.017,0.976,-635.437,136.169,35.644,
00:00:16:483,-0.144,0.01,0.967,-635.804,166.504,31.616,
00:00:16:500,-0.136,0.017,0.953,-626.465,180.297,38.574,
00:00:16:516,-0.118,0.094,0.936,-635.987,151.062,47.302,
00:00:16:533,-0.12,0.18,0.955,-591.309,97.9,23.803,
00:00:16:550,-0.131,0.198,0.995,-490.723,65.124,-8.301,
00:00:16:566,-0.132,0.168,1.017,-435.791,71.289,-34.363,
00:00:16:583,-0.132,0.192,1.02,-420.716,93.505,-46.448,
00:00:16:600,-0.113,0.208,1.003,-358.277,108.459,-67.383,
00:00:16:616,-0.088,0.229,0.993,-289.612,98.938,-72.022,
00:00:16:633,-0.057,0.254,0.985,-239.075,42.48,-69.092,
00:00:16:650,-0.063,0.277,0.992,-183.35,-13.55,-69.519,
00:00:16:667,-0.092,0.296,0.983,-142.151,-33.448,-77.881,
00:00:16:683,-0.106,0.306,0.972,-61.951,-12.757,-82.825,
00:00:16:700,-0.083,0.305,0.947,27.526,-3.479,-85.45,
00:00:16:717,-0.033,0.297,0.944,96.679,-33.326,-78.37,
00:00:16:733,-0.073,0.276,0.959,148.071,-71.289,-75.745,
00:00:16:750,-0.097,0.224,0.981,151.672,-83.435,-72.876,
00:00:16:767,-0.114,0.216,0.996,100.341,-56.153,-74.952,
00:00:16:783,-0.099,0.213,0.994,76.232,-45.166,-78.064,
00:00:16:800,-0.091,0.203,0.978,83.984,-52.979,-81.299,
00:00:16:817,-0.114,0.198,0.976,97.29,-59.815,-90.638,
00:00:16:833,-0.123,0.182,0.977,117.492,-55.298,-99.854,
00:00:16:850,-0.115,0.163,0.966,130.798,-44.983,-102.478,
00:00:16:867,-0.116,0.157,0.971,125,-40.223,-101.99,
00:00:16:883,-0.124,0.152,0.974,99.365,-35.523,-91.675,
00:00:16:900,-0.128,0.163,0.971,78.735,-23.56,-84.046,
00:00:16:917,-0.122,0.182,0.978,79.834,-23.56,-78.003,
00:00:16:933,-0.121,0.194,0.977,99.426,-23.377,-69.886,
00:00:16:950,-0.125,0.208,0.98,120.056,-27.771,-59.449,
00:00:16:967,-0.136,0.2,0.965,139.526,-30.091,-50.11,
00:00:16:983,-0.148,0.192,0.974,128.54,-26.49,-31.311,
00:00:17:0,-0.148,0.189,0.972,113.342,-10.926,-17.151,
00:00:17:17,-0.129,0.198,0.962,103.698,2.319,0.366,
00:00:17:33,-0.123,0.196,0.946,110.717,1.281,4.272,
00:00:17:50,-0.112,0.162,0.95,139.587,2.38,9.338,
00:00:17:67,-0.104,0.133,0.961,126.709,-1.404,19.775,
00:00:17:83,-0.113,0.122,0.972,98.083,-8.118,18.432,
00:00:17:100,-0.125,0.111,0.977,79.223,-0.184,9.033,
00:00:17:117,-0.125,0.1,0.979,50.781,2.929,0.976,
00:00:17:133,-0.131,0.106,0.983,27.526,1.098,-9.278,
00:00:17:150,-0.135,0.092,0.99,21.057,-4.273,-18.067,
00:00:17:167,-0.137,0.088,0.994,3.967,-16.419,-21.973,
00:00:17:183,-0.136,0.09,1.007,-41.993,-34.363,-30.152,
00:00:17:200,-0.134,0.097,0.996,-84.961,-34.852,-40.101,
00:00:17:217,-0.127,0.136,0.984,-120.85,-35.157,-53.223,
00:00:17:233,-0.135,0.167,0.978,-102.601,-33.936,-62.439,
00:00:17:250,-0.132,0.179,0.976,-61.158,-38.819,-66.59,
00:00:17:267,-0.137,0.166,0.98,-25.879,-40.039,-67.444,
00:00:17:283,-0.144,0.163,0.977,-5.372,-27.405,-70.191,
00:00:17:300,-0.145,0.163,0.981,-5.738,-6.531,-60.73,
00:00:17:317,-0.142,0.167,0.972,-2.93,0.671,-54.017,
00:00:17:333,-0.158,0.174,0.958,-11.658,8.911,-46.998,
00:00:17:350,-0.166,0.175,0.953,-4.151,19.958,-41.199,
00:00:17:367,-0.168,0.16,0.961,-7.142,28.259,-35.34,
00:00:17:383,-0.161,0.15,0.972,-47.425,31.799,-28.382,
00:00:17:400,-0.149,0.163,0.984,-66.712,32.531,-31.495,
00:00:17:417,-0.14,0.155,0.982,-57.007,29.419,-28.992,
00:00:17:433,-0.141,0.15,0.988,-57.496,33.081,-25.696,
00:00:17:450,-0.14,0.172,0.979,-41.321,34.545,-29.053,
00:00:17:467,-0.135,0.175,0.983,-8.423,31.494,-22.889,
00:00:17:483,-0.126,0.191,0.982,2.746,28.686,-16.968,
00:00:17:500,-0.128,0.185,0.985,18.798,20.935,-14.649,
00:00:17:517,-0.132,0.183,0.977,31.494,12.817,-13.428,
00:00:17:533,-0.135,0.193,0.976,47.973,7.507,-11.231,
00:00:17:550,-0.136,0.202,0.981,50.842,6.774,-0.184,
00:00:17:567,-0.124,0.179,0.96,56.213,9.887,-11.597,
00:00:17:583,-0.132,0.168,0.999,74.218,14.343,-3.357,
00:00:17:600,-0.128,0.149,0.979,86.242,18.371,-1.038,
00:00:17:617,-0.131,0.133,0.991,74.157,24.597,-1.404,
00:00:17:633,-0.135,0.126,0.997,59.265,28.381,-7.203,
00:00:17:650,-0.134,0.12,0.995,46.02,24.963,-10.926,
00:00:17:667,-0.139,0.118,0.985,31.005,23.071,-10.804,
00:00:17:683,-0.138,0.118,0.987,8.422,22.033,-11.658,
00:00:17:700,-0.131,0.133,0.977,-7.813,22.522,-12.513,
00:00:17:717,-0.126,0.155,0.976,-11.231,18.859,-13.184,
00:00:17:733,-0.124,0.165,0.988,0.183,16.235,-8.728,
00:00:17:750,-0.128,0.158,0.988,11.718,11.474,-8.973,
00:00:17:767,-0.128,0.157,0.991,11.535,13.916,-4.578,
00:00:17:783,-0.127,0.154,0.984,11.352,14.587,-2.198,
00:00:17:800,-0.126,0.139,0.976,10.376,11.657,1.709,
00:00:17:817,-0.129,0.135,0.968,2.685,14.831,2.075,
00:00:17:833,-0.127,0.127,0.961,-6.958,15.808,1.464,
00:00:17:850,-0.13,0.126,0.97,-23.865,25.39,-2.442,
00:00:17:867,-0.134,0.131,0.971,-46.936,34.057,-8.179,
00:00:17:883,-0.128,0.141,0.975,-64.27,41.32,-14.893,
00:00:17:900,-0.126,0.153,0.981,-72.327,42.846,-13.184,
00:00:17:917,-0.128,0.168,0.983,-61.89,36.01,-9.217,
00:00:17:933,-0.126,0.182,0.985,-35.34,32.226,-7.081,
00:00:17:950,-0.131,0.177,0.979,-5.066,28.259,-5.127,
00:00:17:967,-0.123,0.174,0.992,-5.249,21.362,3.356,
00:00:17:983,-0.122,0.161,0.998,-21.302,8.544,-0.611,
00:00:18:0,-0.125,0.173,0.992,-29.419,1.709,-9.095,
00:00:18:17,-0.134,0.169,0.977,-5.372,-0.55,-19.165,
00:00:18:33,-0.13,0.158,0.96,-6.836,-1.648,-26.246,
00:00:18:50,-0.134,0.167,0.965,-19.471,0.854,-31.495,
00:00:18:67,-0.125,0.159,0.972,-12.085,2.075,-39.124,
00:00:18:83,-0.126,0.16,0.982,-7.569,2.746,-36.011,
00:00:18:100,-0.126,0.157,0.991,-3.113,3.723,-39.368,
00:00:18:117,-0.121,0.166,0.995,-13.855,2.441,-44.007,
00:00:18:133,-0.116,0.165,0.997,-10.132,1.953,-50.354,
00:00:18:150,-0.117,0.17,0.99,-1.465,-0.428,-51.941,
00:00:18:167,-0.114,0.174,0.98,10.742,1.953,-55.176,
00:00:18:183,-0.123,0.179,0.974,24.108,-0.367,-56.885,
00:00:18:200,-0.128,0.17,0.968,20.813,5.371,-60.73,
00:00:18:217,-0.122,0.168,0.968,13.671,8.3,-59.815,
00:00:18:233,-0.12,0.178,0.979,11.108,6.897,-60.669,
00:00:18:250,-0.119,0.169,0.996,11.047,5.371,-59.205,
00:00:18:267,-0.125,0.164,0.997,2.502,4.394,-64.637,
00:00:18:283,-0.125,0.165,0.987,-12.085,7.629,-69.581,
00:00:18:300,-0.122,0.166,0.982,-19.898,6.164,-65.369,
00:00:18:317,-0.122,0.164,0.961,-13.55,8.056,-60.486,
00:00:18:333,-0.117,0.164,0.957,3.723,7.385,-42.603,
00:00:18:350,-0.12,0.178,0.96,4.455,10.131,-32.593,
00:00:18:367,-0.124,0.186,0.957,3.906,18.92,-28.138,
00:00:18:383,-0.116,0.182,0.966,3.54,28.137,-17.945,
00:00:18:400,-0.113,0.187,0.966,3.906,30.883,-9.705,
00:00:18:417,-0.111,0.185,0.965,6.652,30.334,-1.099,
00:00:18:433,-0.118,0.188,0.976,-1.343,29.663,5.371,
00:00:18:450,-0.119,0.183,0.979,-10.01,24.169,4.333,
00:00:18:467,-0.122,0.172,0.973,-2.503,27.954,8.972,
00:00:18:483,-0.123,0.177,0.998,-7.569,18.493,2.014,
00:00:18:500,-0.119,0.161,0.983,-2.625,14.648,0.244,
00:00:18:517,-0.124,0.156,0.979,2.014,9.948,-2.503,
00:00:18:533,-0.128,0.153,0.981,-12.024,11.291,-10.437,
00:00:18:550,-0.119,0.148,0.98,-32.654,12.939,-14.283,
00:00:18:567,-0.114,0.15,0.978,-50.599,12.451,-14.527,
00:00:18:583,-0.113,0.171,0.977,-58.228,9.643,-8.912,
00:00:18:600,-0.119,0.193,0.976,-55.542,11.23,-14.222,
00:00:18:617,-0.123,0.191,0.966,-46.814,4.516,-22.767,idleRH
00:00:18:633,-0.12,0.18,0.984,-47.364,2.197,-32.654,
00:00:18:650,-0.123,0.193,0.982,-62.5,-6.226,-36.56,
00:00:18:667,-0.127,0.207,0.983,-55.97,-10.498,-39.978,
00:00:18:683,-0.124,0.207,0.982,-66.651,-11.597,-42.481,
00:00:18:700,-0.124,0.209,0.977,-91.919,-12.696,-45.166,
00:00:18:717,-0.126,0.226,0.962,-97.229,-12.635,-43.335,
00:00:18:733,-0.126,0.237,0.96,-75.928,-14.832,-39.185,
00:00:18:750,-0.121,0.234,0.956,-53.406,-13.306,-38.269,
00:00:18:767,-0.123,0.229,0.957,-38.575,-14.954,-34.913,
00:00:18:783,-0.123,0.223,0.955,-23.987,-7.691,-35.706,
00:00:18:800,-0.117,0.221,0.958,-12.085,-3.113,-35.767,
00:00:18:817,-0.116,0.214,0.954,1.648,-5.188,-31.678,
00:00:18:833,-0.113,0.203,0.963,15.014,-3.357,-32.41,
00:00:18:850,-0.122,0.196,0.968,16.906,-0.611,-28.016,
00:00:18:867,-0.126,0.194,0.972,9.216,1.648,-32.105,
00:00:18:883,-0.124,0.189,0.968,0.366,2.99,-35.523,
00:00:18:900,-0.129,0.187,0.971,-13.55,-3.785,-38.575,
00:00:18:917,-0.134,0.189,0.977,-36.56,-0.733,-44.861,
00:00:18:933,-0.127,0.197,0.982,-56.519,-0.428,-54.078,
00:00:18:950,-0.12,0.211,0.993,-64.515,-4.822,-62.012,
00:00:18:967,-0.118,0.212,0.991,-70.13,-6.348,-68.848,
00:00:18:983,-0.125,0.208,0.985,-77.149,-11.292,-77.82,
00:00:19:0,-0.13,0.227,0.977,-73.365,-9.522,-82.276,
00:00:19:17,-0.125,0.232,0.965,-49.195,-15.992,-85.694,
00:00:19:33,-0.127,0.238,0.945,-34.607,-17.64,-85.633,
00:00:19:50,-0.097,0.237,0.937,-29.602,-12.452,-82.825,
00:00:19:67,-0.125,0.238,0.931,-22.889,-6.348,-79.102,
00:00:19:83,-0.131,0.233,0.927,-20.935,0.854,-67.933,
00:00:19:100,-0.141,0.231,0.929,-42.969,16.357,-67.078,
00:00:19:117,-0.136,0.243,0.937,-68.97,33.142,-59.082,
00:00:19:133,-0.128,0.266,0.941,-76.233,40.71,-57.007,
00:00:19:150,-0.12,0.294,0.955,-35.096,41.198,-51.087,
00:00:19:167,-0.113,0.283,0.957,9.033,34.057,-44.739,
00:00:19:183,-0.119,0.281,0.963,20.752,28.869,-38.208,
00:00:19:200,-0.112,0.273,0.971,38.391,22.338,-39.246,
00:00:19:217,-0.115,0.246,0.975,28.076,19.165,-33.997,
00:00:19:233,-0.126,0.258,0.964,-4.639,22.399,-33.509,
00:00:19:250,-0.112,0.269,0.947,4.272,19.043,-31.861,
00:00:19:267,-0.11,0.247,0.951,26.794,10.986,-36.072,
00:00:19:283,-0.125,0.233,0.955,24.963,13.794,-32.41,
00:00:19:300,-0.117,0.233,0.958,14.343,25.39,-36.133,
00:00:19:317,-0.111,0.244,0.957,25.207,23.986,-37.842,
00:00:19:333,-0.105,0.237,0.965,34.423,19.043,-39.002,
00:00:19:350,-0.113,0.233,0.972,20.69,14.953,-38.208,
00:00:19:367,-0.12,0.238,0.964,-6.287,15.93,-42.42,
00:00:19:383,-0.12,0.237,0.951,-16.785,23.742,-44.861,
00:00:19:400,-0.118,0.249,0.949,-10.193,26.306,-44.312,
00:00:19:417,-0.119,0.257,0.961,15.197,26.428,-45.289,
00:00:19:433,-0.106,0.257,0.964,4.15,21.545,-45.838,
00:00:19:450,-0.116,0.241,0.955,7.141,21.972,-50.782,
00:00:19:467,-0.12,0.239,0.966,0.244,16.601,-53.406,
00:00:19:483,-0.111,0.239,0.96,-8.606,21.118,-56.824,
00:00:19:500,-0.105,0.251,0.963,-10.254,21.972,-60.181,
00:00:19:517,-0.105,0.257,0.96,-4.883,21.301,-61.951,
00:00:19:533,-0.101,0.261,0.965,5.127,20.019,-46.936,
00:00:19:550,-0.097,0.267,0.957,10.925,17.273,-60.975,
00:00:19:567,-0.096,0.265,0.963,8.178,12.573,-55.237,
00:00:19:583,-0.099,0.258,0.937,1.953,7.934,-56.397,
00:00:19:600,-0.101,0.25,0.969,-6.47,8.178,-56.458,
00:00:19:617,-0.103,0.247,0.961,-7.813,5.493,-57.679,
00:00:19:633,-0.11,0.247,0.953,3.967,4.211,-61.158,
00:00:19:650,-0.109,0.24,0.95,13.916,6.408,-64.942,
00:00:19:667,-0.105,0.23,0.95,5.432,11.718,-66.285,
00:00:19:683,-0.101,0.253,0.959,1.953,17.15,-63.477,
00:00:19:700,-0.098,0.262,0.963,10.009,19.775,-61.89,
00:00:19:717,-0.089,0.269,0.967,16.357,18.066,-58.655,
00:00:19:733,-0.087,0.267,0.956,27.343,16.174,-58.411,
00:00:19:750,-0.09,0.266,0.958,27.465,8.606,-51.514,
00:00:19:767,-0.099,0.268,0.951,29.052,3.479,-50.66,
00:00:19:783,-0.102,0.256,0.948,45.715,5.127,-56.702,
00:00:19:800,-0.101,0.249,0.962,45.166,1.464,-55.664,
00:00:19:817,-0.094,0.257,0.967,42.785,1.586,-54.932,
00:00:19:833,-0.09,0.242,0.966,52.734,-8.362,-52.124,
00:00:19:850,-0.098,0.235,0.97,48.156,-15.503,-47.12,
00:00:19:867,-0.113,0.245,0.966,38.696,-13.489,-51.148,
00:00:19:883,-0.11,0.239,0.958,31.982,-18.86,-58.716,
00:00:19:900,-0.099,0.235,0.96,18.676,-16.297,-51.026,
00:00:19:917,-0.089,0.252,0.964,-3.052,-24.72,-46.631,
00:00:19:933,-0.107,0.232,0.954,-39.734,-27.894,-46.692,
00:00:19:950,-0.114,0.228,0.948,-58.167,-17.823,-36.744,
00:00:19:967,-0.093,0.245,0.946,-66.895,-15.625,-28.443,
00:00:19:983,-0.094,0.244,0.962,-82.276,-10.743,-20.386,
00:00:20:0,-0.101,0.272,0.963,-77.942,-5.799,-15.686,
00:00:20:17,-0.103,0.281,0.963,-38.147,-7.142,-22.4,
00:00:20:33,-0.104,0.273,0.971,-17.64,-14.283,-23.438,
00:00:20:50,-0.118,0.258,0.971,-6.165,-14.71,-30.274,
00:00:20:67,-0.118,0.254,0.972,-16.236,-8.179,-28.199,
00:00:20:83,-0.117,0.262,0.966,-28.382,-8.118,-28.016,
00:00:20:100,-0.113,0.264,0.96,-23.499,-5.249,-25.879,
00:00:20:117,-0.119,0.258,0.954,-1.343,-6.409,-25.086,
00:00:20:133,-0.126,0.245,0.967,5.371,-1.893,-24.048,
00:00:20:150,-0.124,0.238,0.973,-11.475,1.464,-27.405,
00:00:20:167,-0.122,0.238,0.981,-42.176,13.061,-23.255,
00:00:20:183,-0.111,0.281,0.97,-54.932,21.179,-23.316,
00:00:20:200,-0.105,0.301,0.955,-23.804,18.615,-27.283,
00:00:20:217,-0.108,0.304,0.959,6.103,12.695,-36.499,
00:00:20:233,-0.108,0.312,0.96,63.781,12.939,-59.937,
00:00:20:250,-0.1,0.287,0.945,117.431,12.268,-48.279,
00:00:20:267,-0.097,0.264,0.934,131.469,13.183,-45.411,
00:00:20:283,-0.109,0.21,0.902,107.544,9.216,-47.791,
00:00:20:300,-0.132,0.153,0.892,79.834,5.615,-39.063,
00:00:20:317,-0.147,0.177,0.901,48.4,-1.709,-39.734,
00:00:20:333,-0.143,0.209,0.96,24.475,8.544,-56.092,
00:00:20:350,-0.108,0.243,1.003,16.601,23.132,-62.317,
00:00:20:367,-0.069,0.267,1,15.319,20.019,-49.927,
00:00:20:383,-0.073,0.259,0.937,39.917,11.779,-53.223,
00:00:20:400,-0.078,0.267,0.974,24.597,12.756,-36.316,
00:00:20:417,-0.073,0.281,0.965,12.023,16.052,-25.879,
00:00:20:433,-0.089,0.292,0.934,2.136,14.038,-16.968,
00:00:20:450,-0.097,0.257,0.931,41.503,17.944,-3.968,
00:00:20:467,-0.099,0.252,0.942,62.194,28.686,-1.465,
00:00:20:483,-0.089,0.249,0.969,83.679,33.02,9.338,
00:00:20:500,-0.09,0.225,0.978,81.665,29.907,13.244,
00:00:20:517,-0.103,0.227,0.98,57.373,28.381,16.296,
00:00:20:533,-0.09,0.265,0.957,67.993,26.306,21.484,
00:00:20:550,-0.1,0.236,0.955,78.186,20.08,24.658,
00:00:20:567,-0.107,0.233,0.956,68.786,22.399,22.949,
00:00:20:583,-0.099,0.242,0.967,59.387,25.268,35.4,
00:00:20:600,-0.09,0.23,0.965,67.749,24.292,38.94,
00:00:20:617,-0.084,0.241,0.972,54.748,19.775,45.288,
00:00:20:633,-0.069,0.265,0.975,44.311,8.239,50.598,
00:00:20:650,-0.068,0.286,0.986,80.139,-4.578,51.879,
00:00:20:667,-0.124,0.21,0.959,118.835,-22.706,51.391,
00:00:20:683,-0.146,0.153,0.924,98.205,-34.79,53.955,
00:00:20:700,-0.173,0.144,0.906,47.241,-6.287,50.476,
00:00:20:717,-0.153,0.158,0.948,8.789,22.583,31.372,
00:00:20:733,-0.126,0.177,0.973,-3.174,38.513,43.09,
00:00:20:750,-0.102,0.215,1.031,16.723,32.836,43.64,
00:00:20:767,-0.077,0.192,1.017,38.33,27.648,41.992,
00:00:20:783,-0.069,0.181,1.003,10.742,18.005,34.668,
00:00:20:800,-0.06,0.19,0.982,2.99,5.065,40.161,
00:00:20:817,-0.072,0.188,0.962,23.437,-13.977,51.452,
00:00:20:833,-0.098,0.21,1.003,76.416,-50.843,63.354,
00:00:20:850,-0.117,0.158,1.014,78.186,-55.603,60.424,
00:00:20:867,-0.129,0.157,0.985,3.723,-51.697,56.457,
00:00:20:883,-0.124,0.189,0.973,-2.137,-46.143,58.105,
00:00:20:900,-0.118,0.172,0.967,29.785,-49.805,64.697,
00:00:20:917,-0.135,0.173,0.976,40.405,-46.814,72.815,
00:00:20:933,-0.139,0.169,0.985,9.887,-35.035,73.303,
00:00:20:950,-0.13,0.189,0.967,-10.804,-26.734,79.162,
00:00:20:967,-0.135,0.201,0.952,-10.498,-33.57,70.068,
00:00:20:983,-0.159,0.196,0.935,-3.357,-26.185,46.691,
00:00:21:0,-0.152,0.182,0.963,1.525,-18.677,39.123,
00:00:21:17,-0.14,0.179,0.972,-13.855,-24.598,28.808,
00:00:21:33,-0.159,0.192,1.003,-37.415,-35.401,16.601,
00:00:21:50,-0.143,0.176,0.99,-64.331,-26.856,3.784,
00:00:21:67,-0.156,0.169,0.99,-79.956,-29.053,-2.808,
00:00:21:83,-0.162,0.155,0.98,-112.793,-26.795,-12.146,
00:00:21:100,-0.153,0.18,0.956,-138.489,-18.25,-19.165,
00:00:21:117,-0.147,0.197,0.956,-127.259,-7.813,-26.49,
00:00:21:133,-0.141,0.209,0.973,-90.76,-6.47,-32.288,
00:00:21:150,-0.141,0.205,0.976,-49.744,-14.649,-36.316,
00:00:21:167,-0.15,0.191,0.96,-4.212,-1.16,-30.152,
00:00:21:183,-0.138,0.185,0.952,-25.391,3.173,-24.048,
00:00:21:200,-0.142,0.204,0.942,-67.688,-2.259,-16.724,
00:00:21:217,-0.152,0.234,0.975,-110.596,-7.019,3.906,
00:00:21:233,-0.155,0.228,0.966,-162.232,-12.391,-0.977,
00:00:21:250,-0.155,0.262,0.944,-195.618,-5.372,1.525,
00:00:21:267,-0.164,0.277,0.933,-171.509,-11.597,-0.245,
00:00:21:283,-0.147,0.269,0.941,-145.02,-23.682,9.216,
00:00:21:300,-0.168,0.28,0.948,-68.787,-28.687,1.586,
00:00:21:317,-0.161,0.228,0.977,-63.721,-34.485,20.69,
00:00:21:333,-0.157,0.295,0.948,-123.352,-38.636,12.939,
00:00:21:350,-0.163,0.325,0.946,-52.552,-44.8,8.056,
00:00:21:367,-0.156,0.273,0.94,14.465,-51.758,-4.151,
00:00:21:383,-0.168,0.254,0.961,-7.081,-37.72,15.014,
00:00:21:400,-0.166,0.241,0.98,-36.805,-46.875,32.898,
00:00:21:417,-0.174,0.242,0.947,-40.955,-76.661,24.475,
00:00:21:433,-0.183,0.265,0.932,-61.707,-68.665,28.93,
00:00:21:450,-0.179,0.32,0.942,-70.13,-73.792,29.541,
00:00:21:467,-0.19,0.315,0.947,-24.231,-68.604,24.536,
00:00:21:483,-0.201,0.301,0.956,6.103,-68.97,10.376,
00:00:21:500,-0.2,0.283,0.957,14.099,-64.27,2.197,
00:00:21:517,-0.219,0.247,0.924,19.47,-52.552,-1.709,
00:00:21:533,-0.207,0.258,0.928,7.263,-44.983,-0.367,
00:00:21:550,-0.204,0.288,0.934,3.967,-54.078,-9.4,
00:00:21:567,-0.214,0.293,0.932,26.733,-48.218,-19.288,
00:00:21:583,-0.214,0.276,0.953,33.142,-41.077,-27.283,
00:00:21:600,-0.225,0.251,0.945,21.179,-25.33,-35.279,
00:00:21:617,-0.218,0.262,0.932,16.906,-15.259,-38.025,
00:00:21:633,-0.219,0.281,0.917,20.507,-9.583,-37.659,
00:00:21:650,-0.223,0.289,0.915,30.578,-4.212,-46.814,
00:00:21:667,-0.224,0.262,0.929,28.747,4.028,-53.65,
00:00:21:683,-0.226,0.262,0.913,9.765,11.901,-61.219,
00:00:21:700,-0.221,0.266,0.928,5.493,13.488,-54.688,
00:00:21:717,-0.217,0.273,0.929,7.69,17.822,-52.124,
00:00:21:733,-0.209,0.28,0.939,-14.466,12.756,-55.542,
00:00:21:750,-0.207,0.285,0.922,-3.663,4.333,-51.636,
00:00:21:767,-0.209,0.292,0.942,0.305,1.709,-46.448,
00:00:21:783,-0.222,0.261,0.949,-20.447,-0.428,-35.767,
00:00:21:800,-0.207,0.266,0.915,-61.158,-9.522,-26.001,
00:00:21:817,-0.203,0.294,0.928,-98.084,-12.269,-31.556,
00:00:21:833,-0.221,0.304,0.933,-44.678,-5.86,-43.58,
00:00:21:850,-0.211,0.265,0.906,-42.176,-4.7,-39.307,
00:00:21:867,-0.221,0.287,0.918,-63.172,-4.273,-48.584,
00:00:21:883,-0.217,0.289,0.933,-40.894,-1.77,-49.988,
00:00:21:900,-0.194,0.271,0.956,-17.395,-15.32,-52.308,
00:00:21:917,-0.213,0.306,0.887,10.131,-36.194,-67.688,
00:00:21:933,-0.231,0.301,0.953,80.444,-20.691,-65.491,
00:00:21:950,-0.227,0.263,0.961,114.257,-8.118,-61.951,
00:00:21:967,-0.233,0.271,0.94,78.002,12.817,-59.998,
00:00:21:983,-0.206,0.27,0.924,65.612,14.404,-65.125,
00:00:22:0,-0.214,0.287,0.909,64.025,5.31,-50.782,
00:00:22:17,-0.218,0.287,0.922,68.42,12.939,-37.537,
00:00:22:33,-0.221,0.272,0.944,52.49,16.601,-35.95,
00:00:22:50,-0.223,0.285,0.942,30.517,25.94,-39.612,
00:00:22:67,-0.216,0.286,0.943,62.805,30.273,-36.56,
00:00:22:83,-0.214,0.265,0.922,71.655,26.916,-15.931,
00:00:22:100,-0.219,0.271,0.925,57.067,30.212,-24.842,
00:00:22:117,-0.223,0.256,0.941,38.94,29.357,-23.682,
00:00:22:133,-0.214,0.264,0.945,9.46,29.907,-25.574,
00:00:22:150,-0.211,0.285,0.93,18.554,27.832,-32.959,
00:00:22:167,-0.207,0.276,0.942,33.386,23.681,-34.607,
00:00:22:183,-0.205,0.256,0.956,29.907,17.334,-33.814,
00:00:22:200,-0.204,0.266,0.953,35.461,15.258,-37.171,
00:00:22:217,-0.2,0.257,0.939,39.489,5.798,-46.387,
00:00:22:233,-0.203,0.264,0.958,58.593,-0.855,-81.91,
00:00:22:250,-0.213,0.265,0.957,59.997,-6.714,-98.633,
00:00:22:267,-0.22,0.202,0.933,50.231,0.244,-94.971,
00:00:22:283,-0.194,0.199,0.936,27.099,-12.94,-84.107,
00:00:22:300,-0.205,0.224,0.962,7.629,-33.997,-63.477,
00:00:22:317,-0.217,0.248,0.951,-13.306,-47.486,-77.881,
00:00:22:333,-0.21,0.258,0.945,-2.503,-50.11,-75.318,
00:00:22:350,-0.217,0.261,0.947,2.38,-42.786,-83.985,
00:00:22:367,-0.206,0.268,0.943,8.422,-42.664,-85.816,
00:00:22:383,-0.218,0.263,0.926,8.483,-43.274,-92.469,
00:00:22:400,-0.228,0.266,0.926,13.732,-32.41,-104.493,
00:00:22:417,-0.223,0.252,0.931,22.277,-16.358,-105.408,
00:00:22:433,-0.223,0.255,0.943,25.329,-3.663,-100.037,
00:00:22:450,-0.212,0.256,0.942,27.465,3.295,-83.008,
00:00:22:467,-0.211,0.265,0.934,23.803,3.234,-70.252,
00:00:22:483,-0.22,0.277,0.939,36.56,9.948,-66.468,
00:00:22:500,-0.209,0.271,0.938,49.133,13,-61.951,
00:00:22:517,-0.217,0.265,0.94,54.199,12.634,-65.674,
00:00:22:533,-0.209,0.247,0.946,46.447,11.535,-65.796,
00:00:22:550,-0.217,0.238,0.95,24.292,14.038,-71.412,
00:00:22:567,-0.231,0.235,0.938,10.986,26.855,-85.755,
00:00:22:583,-0.212,0.194,0.936,1.953,37.597,-78.125,
00:00:22:600,-0.205,0.211,0.909,-41.077,43.029,-54.383,
00:00:22:617,-0.21,0.263,0.921,-83.863,39.978,-33.509,
00:00:22:633,-0.207,0.285,0.953,-100.892,38.452,-41.199,idleRH
00:00:22:650,-0.198,0.274,0.944,-69.581,13.488,-48.89,
00:00:22:667,-0.195,0.275,0.943,-52.247,12.573,-41.443,
00:00:22:683,-0.194,0.289,0.932,-47.608,11.901,-31.006,
00:00:22:700,-0.202,0.295,0.925,-29.236,15.625,-25.208,
00:00:22:717,-0.201,0.298,0.929,-5.738,22.583,-17.945,
00:00:22:733,-0.192,0.292,0.942,0.732,23.864,-6.836,
00:00:22:750,-0.204,0.296,0.937,-19.41,18.127,-11.841,
00:00:22:767,-0.204,0.283,0.938,-8.179,26.062,-0.611,
00:00:22:783,-0.204,0.284,0.932,-24.17,36.682,6.652,
00:00:22:800,-0.199,0.295,0.907,-53.406,51.94,12.817,
00:00:22:817,-0.192,0.304,0.931,-76.294,62.683,19.165,
00:00:22:833,-0.204,0.239,0.942,-47.73,108.093,46.203,
00:00:22:850,-0.21,0.266,0.918,-116.211,147.522,52.734,
00:00:22:867,-0.21,0.336,0.88,-149.109,177.185,51.269,
00:00:22:883,-0.211,0.373,0.855,-26.734,207.519,52.673,
00:00:22:900,-0.177,0.352,0.851,140.503,220.214,56.396,
00:00:22:917,-0.158,0.302,0.885,205.749,206.97,54.809,
00:00:22:933,-0.17,0.254,0.938,143.737,203.003,50.659,
00:00:22:950,-0.157,0.234,0.984,45.532,212.341,51.452,
00:00:22:967,-0.141,0.302,0.999,-25.208,206.359,86.792,
00:00:22:983,-0.11,0.294,0.994,-0.672,160.4,32.898,
00:00:23:0,-0.102,0.287,0.993,8.911,111.633,34.118,
00:00:23:17,-0.106,0.26,0.984,18.554,66.345,16.601,
00:00:23:33,-0.103,0.24,0.981,-0.367,36.193,15.075,
00:00:23:50,-0.118,0.241,0.97,-38.88,25.085,7.141,
00:00:23:67,-0.155,0.257,0.945,-25.147,28.991,-0.123,
00:00:23:83,-0.114,0.255,0.927,-32.227,15.319,-2.076,
00:00:23:100,-0.129,0.277,0.913,-38.514,13.305,-9.034,
00:00:23:117,-0.119,0.286,0.936,-34.668,11.474,-10.682,
00:00:23:133,-0.121,0.31,0.939,-52.308,10.253,-5.005,
00:00:23:150,-0.141,0.306,0.94,-40.345,29.541,-4.09,
00:00:23:167,-0.128,0.31,0.939,-12.635,37.597,-2.564,
00:00:23:183,-0.128,0.318,0.944,-3.418,42.602,-4.334,
00:00:23:200,-0.132,0.32,0.945,23.864,49.072,-9.766,
00:00:23:217,-0.116,0.302,0.949,45.593,46.02,-10.071,
00:00:23:233,-0.117,0.294,0.945,36.926,36.01,-5.799,
00:00:23:250,-0.129,0.293,0.944,45.105,36.804,-12.085,
00:00:23:267,-0.124,0.294,0.952,48.339,37.048,-9.705,
00:00:23:283,-0.118,0.29,0.952,56.335,36.377,-11.719,
00:00:23:300,-0.12,0.299,0.957,71.411,41.259,-12.879,
00:00:23:317,-0.117,0.297,0.963,78.979,51.879,-16.907,
00:00:23:333,-0.112,0.293,0.954,93.444,66.406,-25.086,
00:00:23:350,-0.117,0.271,0.937,148.742,72.082,-29.541,
00:00:23:367,-0.093,0.248,0.967,121.46,63.293,-11.048,
00:00:23:383,-0.098,0.261,0.954,69.091,46.142,-14.222,
00:00:23:400,-0.097,0.275,0.944,75.073,23.681,-12.696,
00:00:23:417,-0.089,0.246,0.932,72.692,4.15,-5.31,
00:00:23:433,-0.109,0.243,0.958,73.547,-12.024,-4.944,
00:00:23:450,-0.117,0.213,0.979,38.269,-30.884,-2.137,
00:00:23:467,-0.133,0.215,0.967,-4.273,-10.254,-16.724,
00:00:23:483,-0.155,0.231,0.949,-25.94,16.906,-28.016,
00:00:23:500,-0.106,0.238,0.954,-20.935,23.498,-33.753,
00:00:23:517,-0.091,0.245,0.951,-25.696,5.554,-29.786,
00:00:23:533,-0.098,0.257,0.948,-26.123,-11.658,-35.035,
00:00:23:550,-0.106,0.255,0.956,-32.776,-23.926,-32.349,
00:00:23:567,-0.111,0.259,0.96,-38.697,-19.593,-39.673,
00:00:23:583,-0.106,0.269,0.963,-38.88,-20.142,-41.993,
00:00:23:600,-0.109,0.272,0.962,-30.152,-27.039,-44.007,
00:00:23:617,-0.114,0.267,0.951,-15.076,-39.307,-46.509,
00:00:23:633,-0.117,0.263,0.95,2.685,-43.03,-46.509,
00:00:23:650,-0.122,0.241,0.957,-3.846,-38.575,-47.303,
00:00:23:667,-0.119,0.273,0.946,-37.659,-32.227,-48.34,
00:00:23:683,-0.124,0.258,0.957,-43.091,-37.293,-49.866,
00:00:23:700,-0.129,0.28,0.954,-48.584,-32.288,-56.641,
00:00:23:717,-0.128,0.282,0.952,-35.096,-27.161,-63.172,
00:00:23:733,-0.126,0.271,0.947,-25.513,-24.17,-69.336,
00:00:23:750,-0.125,0.278,0.946,-0.489,-19.349,-69.336,
00:00:23:767,-0.124,0.285,0.939,-11.292,-16.968,-68.177,
00:00:23:783,-0.124,0.289,0.944,-16.48,-19.104,-70.191,
00:00:23:800,-0.13,0.293,0.949,-10.682,-15.381,-75.44,
00:00:23:817,-0.125,0.278,0.952,3.234,-11.719,-70.679,
00:00:23:833,-0.128,0.282,0.957,1.22,-12.94,-69.764,
00:00:23:850,-0.132,0.292,0.946,9.826,-5.249,-68.604,
00:00:23:867,-0.13,0.288,0.943,18.188,-2.015,-70.069,
00:00:23:883,-0.12,0.28,0.948,11.108,-10.254,-64.881,
00:00:23:900,-0.13,0.285,0.948,4.76,-11.658,-63.172,
00:00:23:917,-0.133,0.283,0.946,14.282,0.732,-59.266,
00:00:23:933,-0.13,0.279,0.951,16.845,8.117,-53.956,
00:00:23:950,-0.132,0.29,0.949,11.108,16.723,-50.477,
00:00:23:967,-0.127,0.293,0.938,5.432,19.226,-49.927,
00:00:23:983,-0.127,0.298,0.944,8.667,11.474,-50.293,
00:00:24:0,-0.127,0.29,0.938,18.554,3.967,-48.829,
00:00:24:17,-0.129,0.283,0.945,21.545,4.821,-48.584,
00:00:24:33,-0.131,0.289,0.944,20.141,8.239,-46.326,
00:00:24:50,-0.131,0.281,0.95,16.418,14.282,-44.19,
00:00:24:67,-0.127,0.289,0.953,11.169,19.47,-45.105,
00:00:24:83,-0.12,0.289,0.951,25.756,11.718,-42.176,
00:00:24:100,-0.124,0.287,0.943,43.579,12.329,-45.35,
00:00:24:117,-0.12,0.27,0.959,38.94,16.723,-40.833,
00:00:24:133,-0.121,0.285,0.949,0.244,17.578,-35.34,
00:00:24:150,-0.12,0.285,0.947,20.996,17.273,-34.18,
00:00:24:167,-0.12,0.275,0.951,26.123,17.761,-30.64,
00:00:24:183,-0.121,0.271,0.949,27.343,17.028,-26.429,
00:00:24:200,-0.116,0.27,0.952,29.174,13.671,-25.879,
00:00:24:217,-0.12,0.262,0.949,37.963,18.554,-26.795,
00:00:24:233,-0.11,0.248,0.956,46.447,30.456,-27.832,
00:00:24:250,-0.124,0.269,0.948,36.926,33.264,-25.757,
00:00:24:267,-0.112,0.257,0.941,38.33,44.189,-45.777,
00:00:24:283,-0.114,0.232,0.951,-30.091,17.822,-34.119,
00:00:24:300,-0.104,0.284,0.944,-25.879,15.319,-23.133,
00:00:24:317,-0.116,0.272,0.953,-17.334,-3.296,-8.851,
00:00:24:333,-0.112,0.277,0.94,-16.541,-11.231,-2.564,
00:00:24:350,-0.114,0.28,0.948,-21.851,-13.733,-2.198,
00:00:24:367,-0.12,0.261,0.95,-42.42,-2.564,6.774,
00:00:24:383,-0.117,0.274,0.944,-78.98,5.127,7.446,
00:00:24:400,-0.112,0.315,0.94,-4.09,13.427,18.676,
00:00:24:417,-0.11,0.299,0.96,15.075,-15.564,14.587,
00:00:24:433,-0.125,0.258,0.993,3.051,-22.767,19.714,
00:00:24:450,-0.119,0.267,1.002,-37.659,-7.203,18.249,
00:00:24:467,-0.122,0.306,0.931,-56.763,-48.706,-0.428,
00:00:24:483,-0.131,0.286,0.963,-40.772,-49.927,-2.442,
00:00:24:500,-0.136,0.249,0.978,-71.595,-33.875,11.962,
00:00:24:517,-0.141,0.263,0.952,-140.259,-28.748,6.836,
00:00:24:533,-0.149,0.345,0.901,-185.486,-17.334,2.868,
00:00:24:550,-0.162,0.326,0.92,-95.032,7.873,-23.987,
00:00:24:567,-0.141,0.341,0.921,-102.173,27.832,-36.011,
00:00:24:583,-0.13,0.347,0.918,-49.683,34.973,-32.959,
00:00:24:600,-0.126,0.36,0.921,-10.682,26.977,-28.687,
00:00:24:617,-0.135,0.356,0.913,4.394,19.958,-32.41,
00:00:24:633,-0.143,0.354,0.918,25.329,19.714,-32.898,
00:00:24:650,-0.15,0.335,0.919,21.301,25.268,-35.889,
00:00:24:667,-0.143,0.315,0.891,3.845,33.264,-43.763,
00:00:24:683,-0.144,0.353,0.944,56.396,50.659,-46.509,
00:00:24:700,-0.126,0.304,0.935,109.802,38.818,-41.016,
00:00:24:717,-0.119,0.281,0.922,64.758,24.902,-25.147,
00:00:24:733,-0.136,0.313,0.909,31.738,22.277,-30.701,
00:00:24:750,-0.143,0.314,0.893,29.052,21.118,-18.433,
00:00:24:767,-0.13,0.339,0.893,45.593,17.639,-11.353,
00:00:24:783,-0.128,0.33,0.896,82.092,6.652,-22.522,
00:00:24:800,-0.131,0.317,0.924,112.609,5.127,-16.419,
00:00:24:817,-0.128,0.301,0.926,101.684,17.822,-11.719,
00:00:24:833,-0.13,0.311,0.929,87.89,28.259,-12.269,
00:00:24:850,-0.121,0.315,0.944,81.604,9.338,2.014,
00:00:24:867,-0.156,0.3,0.946,68.359,-3.052,8.544,
00:00:24:883,-0.137,0.311,0.948,87.158,-2.137,9.826,
00:00:24:900,-0.126,0.305,0.956,107.727,-28.931,20.752,
00:00:24:917,-0.125,0.314,0.987,105.713,-33.936,23.986,
00:00:24:933,-0.136,0.294,0.994,103.393,-52.308,21.972,
00:00:24:950,-0.128,0.276,0.988,86.853,-58.289,20.507,
00:00:24:967,-0.136,0.275,0.94,87.585,-55.176,9.338,
00:00:24:983,-0.133,0.257,0.956,85.815,-71.167,17.456,
00:00:25:0,-0.141,0.277,0.944,69.213,-88.807,17.883,
00:00:25:17,-0.145,0.284,0.943,74.218,-112.305,19.531,
00:00:25:33,-0.156,0.287,0.951,104.553,-132.386,6.408,
00:00:25:50,-0.152,0.218,0.992,60.18,-128.174,31.86,
00:00:25:67,-0.164,0.25,0.937,-20.447,-133.545,5.249,
00:00:25:83,-0.172,0.28,0.944,20.629,-144.41,17.883,
00:00:25:100,-0.176,0.231,0.954,24.292,-147.217,20.385,
00:00:25:117,-0.194,0.234,0.971,-24.414,-142.456,17.761,
00:00:25:133,-0.198,0.253,0.954,-57.923,-138.367,12.573,
00:00:25:150,-0.201,0.277,0.937,-46.753,-138.855,8.361,
00:00:25:167,-0.222,0.28,0.931,-21.546,-121.644,0.122,
00:00:25:183,-0.212,0.258,0.93,-13.916,-112.915,0.915,
00:00:25:200,-0.214,0.255,0.93,-27.71,-107.483,-0.794,
00:00:25:217,-0.224,0.271,0.929,-34.852,-97.413,1.892,
00:00:25:233,-0.227,0.286,0.932,-33.02,-83.802,2.075,
00:00:25:250,-0.228,0.281,0.936,-18.677,-72.51,3.234,
00:00:25:267,-0.233,0.28,0.945,-10.621,-51.514,2.807,
00:00:25:283,-0.235,0.291,0.935,-2.381,-34.058,2.441,
00:00:25:300,-0.249,0.286,0.924,25.207,-4.944,7.751,
00:00:25:317,-0.237,0.28,0.921,42.907,12.695,20.446,
00:00:25:333,-0.237,0.297,0.912,44.86,19.348,27.587,
00:00:25:350,-0.236,0.305,0.934,72.57,20.141,41.198,
00:00:25:367,-0.242,0.251,0.934,86.669,44.677,57.556,
00:00:25:383,-0.24,0.248,0.934,57.617,77.331,70.922,
00:00:25:400,-0.264,0.262,0.891,73.852,114.257,66.223,
00:00:25:417,-0.249,0.236,0.908,116.272,141.479,97.717,
00:00:25:433,-0.236,0.212,0.925,84.045,148.498,93.078,
00:00:25:450,-0.24,0.229,0.947,50.109,152.221,93.017,
00:00:25:467,-0.212,0.225,0.947,38.33,153.869,71.044,
00:00:25:483,-0.213,0.242,0.939,36.438,162.475,60.791,
00:00:25:500,-0.193,0.243,0.947,77.209,167.358,54.687,
00:00:25:517,-0.194,0.227,0.98,132.751,163.635,33.569,
00:00:25:533,-0.17,0.192,0.955,135.498,172.424,11.779,
00:00:25:550,-0.155,0.185,0.937,142.028,156.311,14.831,
00:00:25:567,-0.141,0.186,0.953,142.883,127.38,23.864,
00:00:25:583,-0.149,0.173,0.989,121.338,94.238,23.01,
00:00:25:600,-0.156,0.159,1.013,55.725,76.294,16.54,
00:00:25:617,-0.127,0.182,1.007,20.446,71.228,6.042,
00:00:25:633,-0.144,0.177,0.997,49.255,71.167,2.624,
00:00:25:650,-0.157,0.18,0.965,51.757,24.963,8.239,
00:00:25:667,-0.163,0.183,0.969,28.991,14.831,4.699,
00:00:25:683,-0.163,0.184,0.968,29.357,12.634,3.173,
00:00:25:700,-0.158,0.178,0.999,49.377,15.808,6.286,
00:00:25:717,-0.156,0.163,0.966,49.316,20.446,2.746,
00:00:25:733,-0.158,0.162,0.957,28.259,18.859,1.403,
00:00:25:750,-0.159,0.163,0.956,10.742,26.306,1.831,
00:00:25:767,-0.154,0.16,0.964,4.089,31.372,2.99,
00:00:25:783,-0.155,0.166,0.97,-2.259,30.395,1.709,
00:00:25:800,-0.152,0.179,0.967,11.657,43.273,1.648,
00:00:25:817,-0.149,0.168,0.973,22.705,48.339,-2.381,
00:00:25:833,-0.145,0.151,0.98,24.963,47.363,-2.076,
00:00:25:850,-0.146,0.143,0.975,8.239,43.212,0.427,
00:00:25:867,-0.149,0.183,0.967,-13.733,48.767,3.906,
00:00:25:883,-0.141,0.187,0.968,-8.912,41.931,-5.799,
00:00:25:900,-0.143,0.168,0.983,-4.639,29.968,-2.32,
00:00:25:917,-0.147,0.174,0.987,-7.691,25.695,-10.437,
00:00:25:933,-0.148,0.171,0.969,3.418,29.357,-11.78,
00:00:25:950,-0.132,0.156,0.979,5.249,26.611,-12.818,
00:00:25:967,-0.13,0.166,0.978,-1.526,13.488,-11.841,
00:00:25:983,-0.138,0.173,0.98,4.516,13.671,-11.292,
00:00:26:0,-0.138,0.177,0.975,11.84,16.601,-16.724,
00:00:26:17,-0.137,0.178,0.966,9.704,18.676,-18.433,
00:00:26:33,-0.146,0.17,0.971,15.319,19.653,-22.034,
00:00:26:50,-0.154,0.164,0.978,10.315,34.851,-26.307,
00:00:26:67,-0.141,0.172,0.967,-0.306,48.278,-28.443,
00:00:26:83,-0.131,0.173,0.961,9.094,50.903,-25.757,
00:00:26:100,-0.132,0.169,0.971,12.268,50.598,-23.255,
00:00:26:117,-0.125,0.167,0.98,-16.785,48.095,-20.081,
00:00:26:133,-0.127,0.166,0.977,-52.185,28.686,-19.349,
00:00:26:150,-0.135,0.185,0.968,-51.636,22.033,-21.18,
00:00:26:167,-0.142,0.189,0.969,-9.4,21.057,-30.762,
00:00:26:183,-0.14,0.177,0.975,8.483,36.804,-44.556,
00:00:26:200,-0.13,0.149,0.981,-6.775,36.01,-38.819,
00:00:26:217,-0.107,0.147,1.009,-37.11,7.568,-34.668,
00:00:26:233,-0.111,0.17,0.998,-91.065,-10.621,-22.217,
00:00:26:250,-0.127,0.204,0.975,-65.186,-15.259,-33.997,
00:00:26:267,-0.12,0.183,0.968,-23.499,-15.381,-37.354,
00:00:26:283,-0.127,0.185,0.964,-13.916,-13.977,-42.359,
00:00:26:300,-0.134,0.186,0.965,-16.907,-13.733,-48.951,
00:00:26:317,-0.137,0.176,0.973,-23.621,-10.254,-51.636,
00:00:26:333,-0.138,0.176,0.97,-33.081,-11.597,-52.369,
00:00:26:350,-0.137,0.175,0.973,-48.035,-15.015,-55.481,
00:00:26:367,-0.141,0.18,0.977,-52.674,-16.053,-59.388,
00:00:26:383,-0.138,0.186,0.98,-63.294,-15.748,-61.341,
00:00:26:400,-0.126,0.201,0.965,-79.468,-15.198,-67.749,
00:00:26:417,-0.126,0.216,0.967,-72.693,-21.729,-70.435,
00:00:26:433,-0.128,0.203,0.967,-67.933,-33.265,-68.787,
00:00:26:450,-0.132,0.21,0.97,-51.819,-36.194,-72.327,
00:00:26:467,-0.137,0.209,0.974,-49.012,-30.884,-71.9,
00:00:26:483,-0.137,0.206,0.978,-65.796,-24.476,-74.402,
00:00:26:500,-0.137,0.227,0.984,-90.821,-11.231,-68.421,
00:00:26:517,-0.134,0.234,0.991,-109.681,-9.461,-65.918,
00:00:26:533,-0.14,0.24,0.995,-115.723,-5.494,-61.707,
00:00:26:550,-0.13,0.247,0.985,-92.408,-8.118,-62.012,
00:00:26:567,-0.133,0.253,0.957,-85.267,-21.241,-62.806,
00:00:26:583,-0.142,0.272,0.934,-80.14,-33.204,-67.322,
00:00:26:600,-0.148,0.274,0.93,-33.692,-34.424,-67.322,
00:00:26:617,-0.143,0.242,0.932,-12.513,-46.204,-72.266,
00:00:26:633,-0.125,0.236,1.024,-30.03,-80.567,-70.862,idleRH
00:00:26:650,-0.148,0.22,0.953,-84.107,-62.806,-63.294,
00:00:26:667,-0.156,0.247,0.945,-79.346,-60.975,-67.322,
00:00:26:683,-0.146,0.253,0.938,-62.561,-52.674,-78.919,
00:00:26:700,-0.14,0.264,0.941,-42.359,-72.205,-70.923,
00:00:26:717,-0.153,0.273,0.928,-38.269,-80.018,-63.05,
00:00:26:733,-0.167,0.269,0.92,-20.386,-85.755,-73.609,
00:00:26:750,-0.171,0.252,0.962,-8.912,-105.957,-85.267,
00:00:26:767,-0.156,0.172,1.007,-56.397,-118.042,-71.656,
00:00:26:783,-0.185,0.294,0.945,-104.493,-52.124,-60.181,
00:00:26:800,-0.167,0.284,0.924,-95.826,-35.645,-70.923,
00:00:26:817,-0.166,0.304,0.912,-41.871,-53.223,-61.707,
00:00:26:833,-0.188,0.28,0.93,-21.668,-53.956,-51.331,
00:00:26:850,-0.194,0.293,0.966,-23.133,-51.575,-48.523,
00:00:26:867,-0.188,0.292,0.938,-21.546,-43.763,-44.495,
00:00:26:883,-0.194,0.288,0.968,-29.725,-39.063,-44.739,
00:00:26:900,-0.196,0.307,0.938,-26.001,-28.077,-45.533,
00:00:26:917,-0.185,0.299,0.933,-9.156,-29.48,-47.974,
00:00:26:933,-0.191,0.296,0.943,-10.254,-31.006,-44.922,
00:00:26:950,-0.186,0.302,0.94,-2.381,-32.044,-47.913,
00:00:26:967,-0.185,0.286,0.942,-1.587,-37.903,-48.645,
00:00:26:983,-0.192,0.285,0.934,3.173,-41.199,-52.674,
00:00:27:0,-0.192,0.276,0.932,1.281,-43.457,-57.862,
00:00:27:17,-0.197,0.269,0.932,4.516,-45.227,-62.561,
00:00:27:33,-0.204,0.27,0.931,-5.921,-41.504,-61.707,
00:00:27:50,-0.198,0.279,0.929,-7.081,-32.349,-65.43,
00:00:27:67,-0.205,0.276,0.926,-8.484,-26.185,-66.956,
00:00:27:83,-0.204,0.283,0.917,-4.883,-17.945,-68.604,
00:00:27:100,-0.201,0.294,0.937,6.958,-15.015,-68.177,
00:00:27:117,-0.205,0.296,0.933,11.596,-6.409,-72.51,
00:00:27:133,-0.204,0.293,0.935,19.043,-0.733,-75.379,
00:00:27:150,-0.2,0.298,0.942,19.897,-0.123,-76.05,
00:00:27:167,-0.199,0.301,0.949,14.648,-3.846,-74.646,
00:00:27:183,-0.207,0.299,0.944,8.178,-4.151,-72.632,
00:00:27:200,-0.207,0.308,0.938,18.554,-1.465,-70.679,
00:00:27:217,-0.203,0.292,0.931,27.648,-9.461,-68.421,
00:00:27:233,-0.207,0.295,0.928,26.428,-7.752,-60.852,
00:00:27:250,-0.205,0.303,0.931,21.362,-6.531,-60.181,
00:00:27:267,-0.214,0.311,0.908,11.84,-1.587,-64.759,
00:00:27:283,-0.204,0.31,0.917,42.297,-6.104,-72.449,
00:00:27:300,-0.211,0.304,0.923,34.423,-2.259,-66.102,
00:00:27:317,-0.216,0.314,0.905,45.044,14.526,-69.886,
00:00:27:333,-0.201,0.3,0.923,76.965,14.16,-63.355,
00:00:27:350,-0.219,0.282,0.896,62.683,17.089,-62.5,
00:00:27:367,-0.186,0.346,0.97,86.242,19.226,-26.978,
00:00:27:383,-0.188,0.249,0.984,80.444,-34.363,-38.697,
00:00:27:400,-0.215,0.263,0.944,-9.278,-10.376,-51.331,
00:00:27:417,-0.186,0.306,0.932,15.258,-8.789,-48.645,
00:00:27:433,-0.197,0.266,0.914,17.456,-9.034,-50.843,
00:00:27:450,-0.21,0.257,0.909,-1.526,1.281,-38.941,
00:00:27:467,-0.201,0.271,0.921,-2.869,6.713,-20.386,
00:00:27:483,-0.203,0.279,0.929,2.38,17.517,-9.766,
00:00:27:500,-0.187,0.282,0.941,19.897,24.231,-6.165,
00:00:27:517,-0.191,0.277,0.95,29.968,28.137,-2.625,
00:00:27:533,-0.189,0.273,0.96,25.512,27.771,-2.503,
00:00:27:550,-0.19,0.281,0.947,29.052,26.367,3.967,
00:00:27:567,-0.196,0.281,0.942,32.043,22.522,5.493,
00:00:27:583,-0.197,0.27,0.938,24.353,20.324,8.85,
00:00:27:600,-0.2,0.285,0.929,26.794,23.254,16.784,
00:00:27:617,-0.198,0.283,0.926,39.306,27.282,21.179,
00:00:27:633,-0.202,0.294,0.917,44.555,70.434,41.076,
00:00:27:650,-0.204,0.287,0.929,45.044,88.073,55.297,
00:00:27:667,-0.206,0.321,0.941,73.852,106.75,58.776,
00:00:27:683,-0.181,0.322,0.952,123.291,113.952,62.927,
00:00:27:700,-0.18,0.343,0.971,129.028,112.243,62.194,
00:00:27:717,-0.154,0.298,0.926,221.984,103.515,91.308,
00:00:27:733,-0.142,0.22,0.895,278.686,118.774,127.38,
00:00:27:750,-0.173,0.185,0.888,317.566,118.835,150.695,
00:00:27:767,-0.176,0.138,0.972,261.657,84.167,161.987,
00:00:27:783,-0.183,0.091,0.997,166.137,80.993,143.921,
00:00:27:800,-0.194,0.12,0.992,131.225,91.43,128.112,
00:00:27:817,-0.181,0.109,0.996,166.381,90.148,120.3,
00:00:27:833,-0.163,0.121,1.005,182.8,87.829,101.684,
00:00:27:850,-0.15,0.168,1.006,198.12,86.303,87.341,
00:00:27:867,-0.144,0.185,0.984,216.064,76.66,65.368,
00:00:27:883,-0.135,0.149,0.981,225.219,73.608,63.171,
00:00:27:900,-0.134,0.098,0.979,227.722,93.2,21.606,
00:00:27:917,-0.123,0.096,0.994,227.844,90.759,48.095,
00:00:27:933,-0.125,0.11,1.016,225.952,82.519,25.512,
00:00:27:950,-0.115,0.08,1.026,246.704,67.627,19.165,
00:00:27:967,-0.114,0.05,1.011,218.872,51.452,16.54,
00:00:27:983,-0.137,0.035,0.997,182.678,24.231,19.714,
00:00:28:0,-0.162,0,0.983,166.992,16.296,19.531,
00:00:28:17,-0.173,-0.009,0.973,120.3,27.526,18.249,
00:00:28:33,-0.157,0.023,0.972,78.613,35.461,16.967,
00:00:28:50,-0.134,0.037,0.984,63.476,35.888,7.995,
00:00:28:67,-0.121,0.023,0.994,46.264,27.16,-0.672,
00:00:28:83,-0.116,0.019,0.992,21.423,10.376,-0.55,
00:00:28:100,-0.137,-0.002,1.003,6.225,-15.198,-16.968,
00:00:28:117,-0.141,-0.015,0.992,-19.104,-10.132,-24.842,
00:00:28:133,-0.14,0.005,0.974,-51.27,-13.001,-24.17,
00:00:28:150,-0.138,0.015,0.975,-74.28,-20.325,-31.8,
00:00:28:167,-0.141,0.04,0.987,-102.295,-23.926,-28.138,
00:00:28:183,-0.136,0.07,0.99,-131.653,-16.358,-32.593,
00:00:28:200,-0.14,0.09,0.991,-128.174,-8.057,-31.006,
00:00:28:217,-0.143,0.092,0.985,-95.643,-8.24,-33.265,
00:00:28:233,-0.154,0.075,0.986,-76.477,-7.935,-27.1,
00:00:28:250,-0.158,0.077,0.99,-82.337,-1.709,-23.682,
00:00:28:267,-0.151,0.089,0.991,-79.59,-1.221,-23.682,
00:00:28:283,-0.141,0.088,0.999,-39.49,-13.977,-28.138,
00:00:28:300,-0.145,0.084,1.001,-39.856,-16.175,-30.03,
00:00:28:317,-0.137,0.083,0.995,-47.974,-20.142,-31.128,
00:00:28:333,-0.153,0.087,0.992,-50.843,-30.213,-34.607,
00:00:28:350,-0.152,0.088,0.981,-51.026,-26.978,-39.368,
00:00:28:367,-0.145,0.1,0.981,-55.481,-31.434,-36.622,
00:00:28:383,-0.152,0.097,0.981,-46.753,-31.617,-40.101,
00:00:28:400,-0.154,0.108,0.983,-33.204,-31.311,-37.964,
00:00:28:417,-0.157,0.109,0.983,-37.964,-28.199,-38.941,
00:00:28:433,-0.159,0.106,0.974,-57.496,-39.429,-43.274,
00:00:28:450,-0.157,0.115,0.979,-67.444,-44.007,-37.903,
00:00:28:467,-0.17,0.114,0.986,-59.632,-37.964,-44.922,
00:00:28:483,-0.176,0.106,0.995,-65.857,-29.297,-53.101,
00:00:28:500,-0.165,0.131,0.965,-62.745,-15.381,-54.566,
00:00:28:517,-0.154,0.104,0.985,-37.049,-22.522,-58.838,
00:00:28:533,-0.16,0.119,0.981,-106.263,-1.282,-51.941,
00:00:28:550,-0.149,0.121,0.985,-105.53,0.122,-48.035,
00:00:28:567,-0.162,0.128,0.968,-91.736,2.38,-44.251,
00:00:28:583,-0.166,0.131,0.978,-85.938,9.338,-43.274,
00:00:28:600,-0.179,0.115,0.93,-80.323,30.883,-49.012,
00:00:28:617,-0.173,0.176,0.965,-97.84,11.047,-31.556,
00:00:28:633,-0.162,0.206,1.012,-140.32,-23.987,-44.861,
00:00:28:650,-0.155,0.189,1.008,-59.51,-31.922,-39.551,
00:00:28:667,-0.182,0.144,0.978,-29.786,-15.809,-54.993,
00:00:28:683,-0.165,0.173,0.999,-44.8,-5.188,-58.35,
00:00:28:700,-0.156,0.169,0.966,-47.425,-12.818,-55.237,
00:00:28:717,-0.173,0.159,0.971,-66.285,-9.4,-47.547,
00:00:28:733,-0.163,0.17,0.968,-71.045,-9.766,-38.697,
00:00:28:750,-0.162,0.189,0.966,-43.396,-10.743,-31.617,
00:00:28:767,-0.165,0.183,0.967,-22.828,-8.484,-31.983,
00:00:28:783,-0.17,0.179,0.968,-2.198,-2.869,-33.875,
00:00:28:800,-0.173,0.172,0.972,4.577,2.502,-37.72,
00:00:28:817,-0.178,0.164,0.967,2.38,3.295,-34.119,
00:00:28:833,-0.181,0.169,0.974,-6.47,7.69,-33.631,
00:00:28:850,-0.172,0.178,0.973,-8.851,10.498,-33.204,
00:00:28:867,-0.175,0.183,0.965,0.427,10.192,-34.974,
00:00:28:883,-0.176,0.184,0.967,2.746,11.291,-37.354,
00:00:28:900,-0.172,0.182,0.957,9.887,9.582,-39.734,
00:00:28:917,-0.176,0.186,0.953,18.432,6.713,-41.321,
00:00:28:933,-0.181,0.178,0.959,20.935,5.554,-42.969,
00:00:28:950,-0.186,0.171,0.971,19.47,10.437,-45.411,
00:00:28:967,-0.179,0.153,0.975,11.718,12.085,-46.57,
00:00:28:983,-0.169,0.155,0.968,-3.846,13.244,-44.19,
00:00:29:0,-0.159,0.171,0.972,-4.761,8.85,-47.303,
00:00:29:17,-0.155,0.173,0.974,-7.569,3.112,-52.796,
00:00:29:33,-0.157,0.191,0.972,-3.296,-5.433,-58.838,
00:00:29:50,-0.171,0.184,0.984,-7.752,-9.827,-66.468,
00:00:29:67,-0.178,0.196,0.982,-18.616,-4.151,-70.435,
00:00:29:83,-0.182,0.2,0.969,12.023,-1.099,-76.905,
00:00:29:100,-0.173,0.215,0.971,32.043,2.197,-74.463,
00:00:29:117,-0.175,0.213,1.002,18.798,-4.578,-68.543,
00:00:29:133,-0.164,0.193,1.01,16.235,-31.189,-75.318,
00:00:29:150,-0.176,0.186,0.998,11.169,-41.199,-74.585,
00:00:29:167,-0.171,0.206,0.979,20.202,-49.744,-77.881,
00:00:29:183,-0.171,0.205,0.951,41.565,-51.087,-74.769,
00:00:29:200,-0.19,0.177,0.947,60.607,-41.382,-76.111,
00:00:29:217,-0.176,0.166,0.942,41.992,-62.439,-63.904,
00:00:29:233,-0.187,0.197,0.928,2.197,-52.308,-63.233,
00:00:29:250,-0.193,0.194,0.948,2.38,-44.373,-67.2,
00:00:29:267,-0.18,0.171,0.963,1.586,-41.26,-66.163,
00:00:29:283,-0.184,0.185,0.967,-15.137,-43.091,-68.421,
00:00:29:300,-0.196,0.171,0.977,2.38,-15.748,-70.679,
00:00:29:317,-0.201,0.176,0.967,1.953,0.61,-67.566,
00:00:29:333,-0.184,0.171,0.964,4.272,-0.306,-53.04,
00:00:29:350,-0.198,0.172,0.963,-2.808,6.958,-43.763,
00:00:29:367,-0.19,0.187,0.971,-5.494,10.192,-32.288,
00:00:29:383,-0.186,0.197,0.967,-3.113,12.634,-24.903,
00:00:29:400,-0.185,0.206,0.963,1.037,6.897,-20.447,
00:00:29:417,-0.191,0.204,0.965,4.699,10.315,-19.593,
00:00:29:433,-0.188,0.189,0.963,5.615,13,-9.827,
00:00:29:450,-0.2,0.188,0.958,4.821,18.615,-5.31,
00:00:29:467,-0.197,0.189,0.955,10.742,22.949,0.915,
00:00:29:483,-0.194,0.191,0.964,11.779,25.024,4.638,
00:00:29:500,-0.16,0.19,0.971,14.404,28.442,4.943,
00:00:29:517,-0.184,0.186,0.967,18.127,28.869,10.986,
00:00:29:533,-0.219,0.193,0.962,22.766,30.822,10.07,
00:00:29:550,-0.183,0.192,0.964,33.02,30.883,10.131,
00:00:29:567,-0.187,0.186,0.959,37.902,25.268,3.54,
00:00:29:583,-0.187,0.178,0.973,40.405,25.329,5.981,
00:00:29:600,-0.182,0.171,0.975,29.724,21.606,4.211,
00:00:29:617,-0.183,0.178,0.974,23.62,21.118,7.507,
00:00:29:633,-0.184,0.174,0.937,24.536,20.629,5.554,
00:00:29:650,-0.185,0.181,0.97,41.198,20.324,6.958,
00:00:29:667,-0.182,0.174,0.97,47.912,19.958,5.004,
00:00:29:683,-0.188,0.166,0.972,34.973,21.118,0.061,
00:00:29:700,-0.19,0.172,0.975,29.724,21.24,-8.606,
00:00:29:717,-0.183,0.177,0.984,26.428,22.277,-13.611,
00:00:29:733,-0.186,0.19,0.989,8.422,26.55,-25.635,
00:00:29:750,-0.185,0.194,0.991,-7.508,31.677,-32.044,
00:00:29:767,-0.192,0.201,0.98,-26.978,38.147,-34.119,
00:00:29:783,-0.19,0.196,0.966,-10.987,38.94,-40.223,
00:00:29:800,-0.184,0.18,0.961,26.245,37.048,-38.331,
00:00:29:817,-0.165,0.154,0.961,47.058,15.136,-27.161,
00:00:29:833,-0.164,0.17,0.978,52.978,15.38,-17.273,
00:00:29:850,-0.16,0.171,0.977,53.588,13.61,-8.606,
00:00:29:867,-0.16,0.157,0.978,57.983,9.521,-1.587,
00:00:29:883,-0.155,0.139,0.961,56.701,-6.592,5.004,
00:00:29:900,-0.17,0.13,0.963,52.063,-2.076,11.108,
00:00:29:917,-0.168,0.126,0.978,49.316,6.469,15.686,
00:00:29:933,-0.166,0.135,0.971,4.943,2.929,20.935,
00:00:29:950,-0.188,0.144,0.98,-22.339,5.493,20.019,
00:00:29:967,-0.185,0.126,0.969,-23.621,12.023,25.94,
00:00:29:983,-0.171,0.126,0.97,-14.1,14.282,41.809,
00:00:30:0,-0.17,0.135,0.963,-13.306,15.075,50.842,
00:00:30:17,-0.186,0.17,0.931,-18.006,22.644,31.982,
00:00:30:33,-0.196,0.157,0.966,-31.8,-2.076,22.155,
00:00:30:50,-0.209,0.158,0.971,-52.369,-1.954,7.446,
00:00:30:67,-0.211,0.171,0.977,-40.467,8.544,0.366,
00:00:30:83,-0.188,0.167,0.975,2.38,6.591,-6.47,
00:00:30:100,-0.181,0.161,0.964,21.301,6.897,-8.24,
00:00:30:117,-0.194,0.161,0.954,-20.081,27.099,-20.813,
00:00:30:133,-0.188,0.162,0.955,-24.537,40.039,-12.207,
00:00:30:150,-0.178,0.156,0.959,-24.598,36.377,-12.94,
00:00:30:167,-0.181,0.156,0.963,-12.452,35.461,-20.203,
00:00:30:183,-0.18,0.15,0.979,-8.118,32.775,-26.368,
00:00:30:200,-0.179,0.161,0.981,-19.837,31.921,-30.335,
00:00:30:217,-0.172,0.174,0.99,-10.865,15.014,-33.387,
00:00:30:233,-0.178,0.163,0.981,-1.893,14.77,-32.288,
00:00:30:250,-0.163,0.155,0.985,-7.996,11.901,-25.391,
00:00:30:267,-0.159,0.172,0.968,-31.189,3.662,-23.56,
00:00:30:283,-0.172,0.181,0.959,-34.18,-12.452,-30.64,
00:00:30:300,-0.176,0.182,0.97,-23.377,-10.682,-29.358,
00:00:30:317,-0.18,0.182,0.975,-23.743,-1.343,-32.715,
00:00:30:333,-0.179,0.195,0.982,-14.771,3.234,-29.969,
00:00:30:350,-0.173,0.217,0.969,-1.404,4.394,-25.879,
00:00:30:367,-0.182,0.188,0.967,8.361,13.122,-30.457,
00:00:30:383,-0.183,0.186,0.961,23.254,20.324,-29.175,
00:00:30:400,-0.196,0.159,0.957,32.592,28.808,-30.457,
00:00:30:417,-0.17,0.172,0.964,-7.569,38.635,-33.57,
00:00:30:433,-0.17,0.174,0.975,-11.414,37.353,-34.79,
00:00:30:450,-0.164,0.173,0.981,-20.997,32.348,-35.828,
00:00:30:467,-0.164,0.185,0.971,-25.391,28.625,-41.932,
00:00:30:483,-0.167,0.204,0.977,-29.786,23.925,-35.706,
00:00:30:500,-0.159,0.213,0.97,-11.109,14.221,-29.175,
00:00:30:517,-0.153,0.18,0.979,12.268,0.976,-6.348,
00:00:30:533,-0.157,0.183,0.979,18.92,5.188,-7.203,
00:00:30:550,-0.163,0.176,0.977,24.841,11.474,-5.616,
00:00:30:567,-0.169,0.174,0.973,22.705,16.052,-4.639,
00:00:30:583,-0.173,0.171,0.961,18.066,20.446,-5.31,
00:00:30:600,-0.18,0.176,0.978,14.16,24.475,-8.301,
00:00:30:617,-0.169,0.176,0.977,9.094,19.775,-11.17,
00:00:30:633,-0.17,0.179,0.982,11.169,16.174,-17.151,idleRH
00:00:30:650,-0.162,0.168,0.983,21.118,12.146,-17.701,
00:00:30:667,-0.164,0.174,0.972,11.962,11.901,-23.987,
00:00:30:683,-0.165,0.169,0.965,15.38,13.61,-24.842,
00:00:30:700,-0.159,0.166,0.967,17.028,12.207,-24.72,
00:00:30:717,-0.169,0.167,0.96,11.779,15.502,-23.072,
00:00:30:733,-0.17,0.172,0.996,3.234,23.742,-23.133,
00:00:30:750,-0.171,0.172,0.966,-0.489,25.573,-24.781,
00:00:30:767,-0.171,0.169,0.972,4.76,28.869,-24.414,
00:00:30:783,-0.171,0.17,0.978,-2.686,29.541,-25.33,
00:00:30:800,-0.169,0.175,0.985,-15.442,31.982,-24.414,
00:00:30:817,-0.17,0.188,0.975,-13.977,30.822,-23.56,
00:00:30:833,-0.161,0.209,0.965,-5.738,26.672,-21.668,
00:00:30:850,-0.161,0.193,0.968,10.742,21.606,-21.851,
00:00:30:867,-0.156,0.177,0.964,12.939,19.897,-19.288,
00:00:30:883,-0.16,0.178,0.96,14.709,18.554,-19.776,
00:00:30:900,-0.156,0.173,0.961,17.883,18.005,-21.546,
00:00:30:917,-0.152,0.169,0.968,16.723,16.784,-18.616,
00:00:30:933,-0.152,0.176,0.975,12.573,16.662,-20.325,
00:00:30:950,-0.149,0.172,0.977,20.324,15.808,-21.546,
00:00:30:967,-0.158,0.166,0.982,15.564,17.334,-22.461,
00:00:30:983,-0.156,0.164,0.979,2.746,18.249,-24.476,
00:00:31:0,-0.155,0.171,0.979,-2.32,18.554,-25.269,
00:00:31:17,-0.154,0.178,0.974,-2.015,17.028,-26.856,
00:00:31:33,-0.156,0.174,0.97,-4.517,12.451,-27.71,
00:00:31:50,-0.164,0.179,0.969,-3.174,12.329,-30.64,
00:00:31:67,-0.159,0.174,0.972,1.953,12.878,-46.692,
00:00:31:83,-0.151,0.179,0.98,-4.639,11.657,-32.471,
00:00:31:100,-0.151,0.171,0.974,-8.606,8.239,-33.265,
00:00:31:117,-0.153,0.185,0.974,-15.503,9.704,-31.556,
00:00:31:133,-0.15,0.184,0.972,-5.066,8.544,-29.48,
00:00:31:150,-0.149,0.183,0.967,1.831,8.056,-25.452,
00:00:31:167,-0.159,0.193,0.968,10.437,6.408,-32.837,
00:00:31:183,-0.15,0.177,0.974,13.183,7.141,-24.842,
00:00:31:200,-0.156,0.185,0.967,13.977,8.544,-25.696,
00:00:31:217,-0.151,0.187,0.963,18.188,12.512,-24.292,
00:00:31:233,-0.153,0.177,0.972,16.296,13.488,-24.048,
00:00:31:250,-0.155,0.169,0.969,0.976,10.864,-22.217,
00:00:31:267,-0.157,0.174,0.976,-4.212,12.756,-23.499,
00:00:31:283,-0.161,0.174,0.972,0.183,11.291,-23.804,
00:00:31:300,-0.159,0.198,0.947,12.512,5.004,-26.49,
00:00:31:317,-0.161,0.16,0.985,-1.221,2.99,-27.71,
00:00:31:333,-0.153,0.171,0.982,1.403,4.455,-28.626,
00:00:31:350,-0.147,0.174,0.982,1.098,5.065,-28.321,
00:00:31:367,-0.145,0.185,0.973,7.812,3.784,-29.48,
00:00:31:383,-0.148,0.183,0.971,7.812,-15.442,-27.039,
00:00:31:400,-0.155,0.186,0.969,9.826,2.014,-25.879,
00:00:31:417,-0.154,0.183,0.975,12.817,5.31,-23.926,
00:00:31:433,-0.159,0.177,0.973,20.752,4.455,-23.682,
00:00:31:450,-0.16,0.175,0.968,18.127,8.056,-23.621,
00:00:31:467,-0.158,0.171,0.965,18.432,10.742,-23.194,
00:00:31:483,-0.159,0.174,0.97,11.352,13.855,-23.194,
00:00:31:500,-0.15,0.175,0.973,10.192,15.808,-23.194,
00:00:31:517,-0.152,0.18,0.976,8.606,17.578,-24.292,
00:00:31:533,-0.151,0.174,0.976,11.352,14.343,-25.269,
00:00:31:550,-0.155,0.175,0.975,11.718,15.319,-23.621,
00:00:31:567,-0.154,0.17,0.973,8.728,16.418,-21.607,
00:00:31:583,-0.148,0.176,0.971,8.117,14.709,-18.86,
00:00:31:600,-0.151,0.185,0.967,10.559,14.892,-20.02,
00:00:31:617,-0.147,0.177,0.97,18.92,14.892,-21.18,
00:00:31:633,-0.148,0.177,0.97,13.366,12.817,-18.311,
00:00:31:650,-0.151,0.177,0.975,9.521,8.667,-16.358,
00:00:31:667,-0.152,0.175,0.972,14.282,3.54,-16.053,
00:00:31:683,-0.159,0.164,0.974,17.211,3.051,-17.334,
00:00:31:700,-0.16,0.161,0.976,18.005,6.042,-18.372,
00:00:31:717,-0.158,0.166,0.976,13.549,10.131,-22.95,
00:00:31:733,-0.153,0.168,0.976,10.986,10.681,-29.175,
00:00:31:750,-0.148,0.169,0.977,5.432,6.591,-26.978,
00:00:31:767,-0.151,0.175,0.979,5.065,7.934,-29.541,
00:00:31:783,-0.15,0.176,0.973,3.723,7.568,-29.236,
00:00:31:800,-0.155,0.175,0.973,5.554,7.08,-26.123,
00:00:31:817,-0.155,0.18,0.969,4.882,10.376,-24.598,
00:00:31:833,-0.152,0.18,0.968,11.047,9.094,-23.56,
00:00:31:850,-0.16,0.176,0.972,12.268,10.803,-22.034,
00:00:31:867,-0.157,0.177,0.976,8.606,16.845,-18.982,
00:00:31:883,-0.15,0.182,0.97,12.329,15.38,-16.602,
00:00:31:900,-0.149,0.175,0.967,14.343,12.023,-13.489,
00:00:31:917,-0.147,0.176,0.971,11.962,16.113,-11.414,
00:00:31:933,-0.145,0.172,0.976,9.094,16.418,-8.545,
00:00:31:950,-0.146,0.171,0.974,11.169,14.587,-10.621,
00:00:31:967,-0.151,0.165,0.974,10.07,16.54,-10.682,
00:00:31:983,-0.155,0.166,0.977,7.934,18.676,-12.635,
00:00:32:0,-0.151,0.16,0.979,5.981,14.77,-14.222,
00:00:32:17,-0.151,0.161,0.979,1.22,8.972,-13.977,
00:00:32:33,-0.149,0.156,0.986,-6.226,8.972,-14.1,
00:00:32:50,-0.142,0.174,0.981,-9.339,8.056,-17.64,
00:00:32:67,-0.141,0.181,0.969,2.685,6.897,-19.837,
00:00:32:83,-0.148,0.173,0.965,-15.259,10.009,-17.701,
00:00:32:100,-0.158,0.191,0.958,15.502,13.061,-16.175,
00:00:32:117,-0.159,0.183,0.966,22.522,11.657,-17.029,
00:00:32:133,-0.161,0.162,0.981,24.231,9.704,-15.015,
00:00:32:150,-0.154,0.165,0.989,8.972,11.23,-14.893,
00:00:32:167,-0.144,0.171,0.98,-2.503,8.667,-17.09,
00:00:32:183,-0.14,0.172,0.967,1.159,6.591,-18.86,
00:00:32:200,-0.144,0.164,0.966,7.934,8.361,-19.227,
00:00:32:217,-0.146,0.165,0.972,11.23,11.596,-20.508,
00:00:32:233,-0.147,0.168,0.976,7.934,14.099,-21.607,
00:00:32:250,-0.149,0.169,0.971,4.699,12.512,-20.325,
00:00:32:267,-0.158,0.175,0.974,1.037,8.3,-17.884,
00:00:32:283,-0.155,0.171,0.975,7.812,10.253,-19.104,
00:00:32:300,-0.149,0.171,0.978,6.225,11.474,-20.447,
00:00:32:317,-0.148,0.169,0.975,6.897,12.085,-23.56,
00:00:32:333,-0.144,0.169,0.972,1.342,11.413,-22.217,
00:00:32:350,-0.144,0.179,0.971,-4.273,5.859,-21.424,
00:00:32:367,-0.153,0.169,0.974,2.99,7.751,-19.104,
00:00:32:383,-0.154,0.17,0.977,5.188,8.789,-19.593,
00:00:32:400,-0.149,0.174,0.974,9.155,10.315,-20.203,
00:00:32:417,-0.147,0.165,0.979,11.352,12.695,-19.41,
00:00:32:433,-0.144,0.166,0.974,0.793,10.62,-19.593,
00:00:32:450,-0.141,0.178,0.976,1.648,11.535,-19.165,
00:00:32:467,-0.144,0.171,0.975,9.399,9.765,-19.959,
00:00:32:483,-0.149,0.17,0.972,7.568,13.061,-19.532,
00:00:32:500,-0.148,0.175,0.969,10.009,11.352,-17.762,
00:00:32:517,-0.152,0.164,0.975,6.591,10.376,-17.762,
00:00:32:533,-0.15,0.169,0.977,1.831,9.46,-16.663,
00:00:32:550,-0.149,0.176,0.979,0.366,10.009,-18.311,
00:00:32:567,-0.146,0.173,0.978,13.916,8.667,-21.729,
00:00:32:583,-0.14,0.172,0.973,9.704,-14.527,-21.729,
00:00:32:600,-0.145,0.177,0.971,3.662,-2.137,-19.654,
00:00:32:617,-0.152,0.173,0.971,8.422,-1.282,-19.043,
00:00:32:633,-0.148,0.173,0.973,14.526,-3.968,-16.419,
00:00:32:650,-0.144,0.172,0.975,20.446,-14.832,-16.541,
00:00:32:667,-0.153,0.166,0.977,23.681,-15.931,-15.32,
00:00:32:683,-0.16,0.168,0.978,19.653,-4.822,-13.245,
00:00:32:700,-0.156,0.178,0.976,16.662,4.821,-10.01,
00:00:32:717,-0.143,0.167,0.967,14.953,5.493,-2.93,
00:00:32:733,-0.148,0.2,0.959,10.803,5.004,2.563,
00:00:32:750,-0.145,0.186,0.973,54.199,6.164,0.122,
00:00:32:767,-0.146,0.173,0.989,58.349,7.141,8.85,
00:00:32:783,-0.149,0.185,0.989,85.571,6.774,8.911,
00:00:32:800,-0.148,0.186,0.992,130.249,9.277,15.686,
00:00:32:817,-0.154,0.175,0.986,164.734,8.239,20.446,
00:00:32:833,-0.161,0.188,0.981,190.063,11.352,30.395,
00:00:32:850,-0.159,0.2,0.974,267.212,10.864,37.475,
00:00:32:867,-0.157,0.149,0.979,337.646,11.352,44.799,
00:00:32:883,-0.159,0.122,0.999,341.797,18.92,58.96,
00:00:32:900,-0.148,0.09,1.002,309.997,27.893,61.096,
00:00:32:917,-0.136,0.092,1.002,322.082,24.475,66.467,
00:00:32:933,-0.128,0.07,1.011,378.173,4.882,68.42,
00:00:32:950,-0.14,0.028,1.023,441.589,-25.757,68.359,
00:00:32:967,-0.189,0.001,1.003,443.542,-37.232,60.363,
00:00:32:983,-0.206,-0.013,0.999,408.63,-24.231,41.015,
00:00:33:0,-0.186,-0.043,1.052,389.282,-13.977,37.475,
00:00:33:17,-0.147,-0.004,1,406.25,-15.809,17.395,
00:00:33:33,-0.116,-0.029,1.039,419.25,-20.752,15.38,
00:00:33:50,-0.091,-0.059,1.001,342.163,-5.799,-28.26,
00:00:33:67,-0.104,-0.134,0.904,254.394,-23.804,-33.997,
00:00:33:83,-0.146,-0.166,0.9,173.217,-58.289,9.887,
00:00:33:100,-0.202,-0.119,0.939,115.112,-55.054,33.569,
00:00:33:117,-0.241,-0.107,0.995,134.216,-33.204,41.503,
00:00:33:133,-0.244,-0.121,1.014,103.637,16.845,11.23,
00:00:33:150,-0.195,-0.06,1.008,78.613,52.002,20.752,
00:00:33:167,-0.168,-0.07,0.998,86.364,45.593,2.685,
00:00:33:183,-0.155,-0.092,0.99,79.589,30.517,27.587,
00:00:33:200,-0.162,-0.081,0.978,75.683,29.724,48.767,
00:00:33:217,-0.157,-0.083,0.979,69.641,26.611,64.636,
00:00:33:233,-0.157,-0.111,0.972,54.748,23.742,77.026,
00:00:33:250,-0.161,-0.114,0.973,37.231,19.714,94.909,
00:00:33:267,-0.161,-0.109,0.986,46.508,9.582,94.97,
00:00:33:283,-0.158,-0.117,1.005,53.649,5.127,83.252,
00:00:33:300,-0.164,-0.129,1.019,35.644,3.173,74.646,
00:00:33:317,-0.172,-0.131,1.028,10.192,12.268,63.537,
00:00:33:334,-0.166,-0.136,1.005,-26.978,22.094,55.358,
00:00:33:350,-0.162,-0.128,1.002,-33.448,17.761,63.354,
00:00:33:367,-0.167,-0.11,1.006,-3.357,10.131,79.406,
00:00:33:384,-0.178,-0.115,1.026,53.466,7.934,93.444,
00:00:33:400,-0.183,-0.145,1.033,86.12,23.01,105.285,
00:00:33:417,-0.176,-0.16,1.025,67.077,45.105,121.704,
00:00:33:434,-0.164,-0.128,1.017,27.465,68.725,140.075,
00:00:33:450,-0.148,-0.186,1.023,-9.766,74.218,154.297,
00:00:33:467,-0.132,-0.137,1.011,-43.396,59.57,177.368,
00:00:33:484,-0.126,-0.128,1.009,-90.882,43.518,182.617,
00:00:33:500,-0.123,-0.12,0.997,-123.536,36.682,182.067,
00:00:33:517,-0.099,-0.121,0.94,-95.215,35.766,166.259,
00:00:33:534,-0.084,-0.134,0.916,-71.9,-2.625,161.56,
00:00:33:550,-0.102,-0.151,0.916,-68.055,-43.457,158.02,
00:00:33:567,-0.134,-0.162,0.92,-93.201,-53.345,145.019,
00:00:33:584,-0.151,-0.152,0.947,-118.47,-35.523,139.77,
00:00:33:600,-0.145,-0.134,0.954,-135.01,-17.151,116.455,
00:00:33:617,-0.155,-0.126,0.943,-130.494,-2.137,101.684,
00:00:33:634,-0.155,-0.133,0.93,-101.319,-7.386,74.096,
00:00:33:650,-0.162,-0.142,0.932,-71.778,-16.358,59.753,
00:00:33:667,-0.162,-0.122,0.946,-75.806,-31.678,45.105,
00:00:33:684,-0.158,-0.114,0.945,-90.21,-49.5,30.883,
00:00:33:700,-0.174,-0.129,0.95,-105.957,-52.796,17.15,
00:00:33:717,-0.175,-0.101,0.961,-148.865,-49.561,6.774,
00:00:33:734,-0.176,-0.04,0.97,-154.114,-52.247,-2.625,
00:00:33:750,-0.166,-0.013,1.01,-132.874,-55.848,-19.959,
00:00:33:767,-0.158,0.009,1.034,-104.065,-70.557,-33.936,
00:00:33:784,-0.16,0.009,1.037,-36.988,-78.919,-46.936,
00:00:33:800,-0.153,-0.028,1.009,-15.381,-99.549,-53.162,
00:00:33:817,-0.158,-0.042,0.984,-45.289,-115.906,-56.275,
00:00:33:834,-0.159,-0.06,0.971,-80.201,-124.451,-60.059,
00:00:33:850,-0.157,-0.053,0.981,-122.681,-135.804,-62.012,
00:00:33:867,-0.163,-0.054,0.988,-151.307,-148.865,-65.979,
00:00:33:884,-0.173,-0.033,0.991,-162.964,-134.644,-70.984,
00:00:33:900,-0.196,-0.027,0.999,-170.227,-109.131,-80.262,
00:00:33:917,-0.21,-0.053,0.962,-201.05,-70.618,-87.342,
00:00:33:934,-0.204,-0.051,0.936,-258.606,-39.978,-81.543,
00:00:33:950,-0.208,0.015,0.937,-286.744,-32.837,-73.792,
00:00:33:967,-0.23,0.091,0.99,-293.03,-28.016,-76.294,
00:00:33:984,-0.236,0.095,1.039,-264.466,-17.701,-73.182,
00:00:34:0,-0.223,0.104,1.09,-218.628,-8.789,-66.04,
00:00:34:17,-0.217,0.123,1.086,-150.94,-19.471,-48.096,
00:00:34:34,-0.227,0.134,1.054,-35.279,-33.753,-29.053,
00:00:34:50,-0.226,0.129,1.033,78.43,-45.044,-1.038,
00:00:34:67,-0.211,0.095,1,127.075,-78.98,30.578,
00:00:34:84,-0.23,0.076,0.971,104.675,-106.568,50.415,
00:00:34:100,-0.256,0.059,0.952,31.066,-108.216,60.241,
00:00:34:117,-0.272,0.082,0.961,-14.161,-86.304,62.072,
00:00:34:134,-0.234,0.051,0.945,-19.165,-69.764,66.65,
00:00:34:150,-0.226,0.066,0.942,1.77,-43.885,59.875,
00:00:34:167,-0.226,0.084,0.957,43.212,-0.55,44.433,
00:00:34:184,-0.221,0.067,0.982,82.885,12.634,18.127,
00:00:34:200,-0.229,0.067,0.993,92.285,50.293,-9.034,
00:00:34:217,-0.231,0.031,0.974,74.157,82.153,-42.115,
00:00:34:234,-0.251,0.024,0.922,68.786,120.788,-92.713,
00:00:34:250,-0.252,-0.035,0.883,75.439,158.02,-81.849,
00:00:34:267,-0.219,-0.038,0.893,73.547,152.343,-67.872,
00:00:34:284,-0.218,0.008,0.939,65.734,124.023,-53.65,
00:00:34:300,-0.236,0.022,0.992,57.861,95.764,-53.711,
00:00:34:317,-0.237,0.015,1.026,18.249,78.369,-52.43,
00:00:34:334,-0.236,0.033,1.031,-28.565,63.964,-49.5,
00:00:34:350,-0.232,0.049,1.012,-29.786,49.438,-49.5,
00:00:34:367,-0.223,0.057,0.997,-2.625,36.254,-47.12,
00:00:34:384,-0.211,0.05,0.995,39.794,17.883,-38.269,
00:00:34:400,-0.207,0.037,1,67.138,6.103,-32.044,
00:00:34:417,-0.207,0.03,1.005,76.599,2.685,-25.025,
00:00:34:434,-0.202,0.017,0.99,73.181,-1.587,-21.058,
00:00:34:450,-0.205,0.012,0.985,55.053,-0.977,-15.809,
00:00:34:467,-0.201,0.014,0.99,56.762,9.338,-13.489,
00:00:34:484,-0.191,0.005,0.991,55.358,13.061,-15.625,
00:00:34:500,-0.188,-0.006,0.983,53.161,18.066,-13.428,
00:00:34:517,-0.185,-0.019,0.974,48.706,23.315,-11.292,
00:00:34:534,-0.219,-0.022,0.975,48.645,26.489,-11.231,
00:00:34:550,-0.192,-0.025,0.979,40.527,27.404,-8.667,
00:00:34:567,-0.197,-0.014,0.993,18.859,23.559,-9.949,
00:00:34:584,-0.199,-0.003,0.998,11.535,19.653,-12.635,
00:00:34:600,-0.204,-0.008,1.006,12.634,18.432,-16.48,
00:00:34:617,-0.205,-0.007,1.001,7.263,16.845,-17.151,
00:00:34:634,-0.2,-0.003,0.986,-1.404,8.422,-21.424,idleRH
00:00:34:650,-0.203,0.009,0.985,-4.273,1.586,-18.006,
00:00:34:667,-0.201,0.003,0.99,-7.874,-1.648,-14.588,
00:00:34:684,-0.185,-0.022,0.986,-19.532,-27.588,-4.273,
00:00:34:700,-0.198,0.004,1.01,-37.171,-47.181,5.493,
00:00:34:717,-0.217,0.004,1.042,-72.205,-47.059,-0.977,
00:00:34:734,-0.22,0.014,1.037,-126.648,-22.828,-14.466,
00:00:34:750,-0.22,0.023,1.004,-156.495,3.54,-30.457,
00:00:34:767,-0.173,0.053,0.913,-87.037,11.535,-57.435,
00:00:34:784,-0.201,0.038,0.955,-13.367,-28.504,-70.801,
00:00:34:800,-0.233,0.014,0.977,1.098,-16.907,-80.14,
00:00:34:817,-0.247,0.011,0.976,-19.349,25.512,-86.487,
00:00:34:834,-0.225,0.012,0.957,-36.194,53.833,-96.619,
00:00:34:850,-0.176,0.087,0.973,-27.649,47.973,-99.183,
00:00:34:867,-0.176,0.09,1.016,17.883,39.245,-97.229,
00:00:34:884,-0.185,0.064,1.035,32.959,24.292,-95.643,
00:00:34:900,-0.196,0.047,1.036,21.301,30.212,-81.116,
00:00:34:917,-0.172,0.054,1.015,-4.273,25.085,-62.623,
00:00:34:934,-0.175,0.084,1.018,-2.076,-31.495,0.854,
00:00:34:950,-0.178,0.067,1.01,-17.334,-55.237,44.372,
00:00:34:967,-0.186,0.091,1.002,-19.776,-78.675,89.782,
00:00:34:984,-0.268,0.125,0.999,10.986,-182.74,156.067,
00:00:35:0,-0.26,0.128,0.991,23.681,-178.467,135.864,
00:00:35:17,-0.255,0.102,0.961,34.668,-162.659,111.999,
00:00:35:34,-0.263,0.039,0.938,72.753,-130.188,77.575,
00:00:35:50,-0.262,-0.036,0.932,87.951,-85.633,42.419,
00:00:35:67,-0.256,-0.069,0.933,82.702,-33.936,10.009,
00:00:35:84,-0.247,-0.067,0.922,78.369,15.441,-20.935,
00:00:35:100,-0.224,-0.056,0.912,13.732,113.647,-78.858,
00:00:35:117,-0.237,-0.012,0.933,-36.744,124.389,-82.642,
00:00:35:134,-0.228,0.018,0.972,-63.782,118.896,-83.191,
00:00:35:150,-0.228,0.049,1.012,-83.374,108.703,-80.994,
00:00:35:167,-0.231,0.086,1.028,-94.666,92.285,-76.661,
00:00:35:184,-0.235,0.119,1.036,-89.966,79.711,-77.332,
00:00:35:200,-0.22,0.13,1.03,-47.12,64.331,-77.759,
00:00:35:217,-0.213,0.126,1.017,6.591,52.978,-77.027,
00:00:35:234,-0.203,0.129,1.015,55.908,43.64,-78.186,
00:00:35:250,-0.208,0.111,0.996,101.318,39.184,-84.107,
00:00:35:267,-0.212,0.081,0.984,131.836,43.335,-94.056,
00:00:35:284,-0.21,0.041,0.985,158.569,51.574,-92.652,
00:00:35:300,-0.205,0.011,0.984,156.921,46.752,-96.131,
00:00:35:317,-0.209,-0.002,0.979,144.592,50.354,-98.938,
00:00:35:334,-0.214,-0.047,0.962,134.155,58.227,-99.549,
00:00:35:350,-0.182,-0.09,0.955,71.044,34.057,-82.642,
00:00:35:367,-0.186,-0.051,0.993,-6.043,5.249,-59.51,
00:00:35:384,-0.205,-0.004,1,-62.928,-38.636,-35.828,
00:00:35:400,-0.188,0.006,0.997,-71.534,-66.224,-15.32,
00:00:35:417,-0.187,0.041,0.998,-108.094,-114.38,3.479,
00:00:35:434,-0.219,0.067,1.013,-121.949,-140.686,6.713,
00:00:35:450,-0.23,0.061,1.013,-119.202,-149.353,-0.245,
00:00:35:467,-0.23,0.046,0.994,-129.883,-158.081,-2.015,
00:00:35:484,-0.23,0.034,0.956,-145.935,-176.026,4.699,
00:00:35:500,-0.246,0.075,0.956,-155.152,-190.613,14.526,
00:00:35:517,-0.277,0.102,0.984,-131.958,-188.233,19.714,
00:00:35:534,-0.28,0.079,0.989,-111.084,-172.913,7.08,
00:00:35:550,-0.274,0.051,0.976,-129.578,-157.166,2.197,
00:00:35:567,-0.275,0.045,0.961,-176.209,-131.958,-2.625,
00:00:35:584,-0.299,0.061,0.906,-495.85,-71.778,32.104,
00:00:35:600,-0.296,0.136,0.924,-545.289,-67.017,33.935,
00:00:35:617,-0.309,0.213,0.931,-456.421,-42.908,21.972,
00:00:35:634,-0.288,0.214,0.932,-326.844,-18.006,1.098,
00:00:35:650,-0.277,0.229,0.925,-183.472,-6.409,-16.968,
00:00:35:667,-0.293,0.219,0.932,-14.344,10.742,-42.054,
00:00:35:684,-0.301,0.153,0.945,94.665,23.62,-65.491,
00:00:35:700,-0.304,0.117,0.947,111.755,43.335,-80.811,
00:00:35:717,-0.295,0.116,0.952,133.85,50.903,-83.191,
00:00:35:734,-0.284,0.124,0.976,153.625,38.452,-81.604,
00:00:35:750,-0.286,0.181,0.96,156.067,23.559,-87.891,
00:00:35:767,-0.3,0.148,0.942,192.749,-0.184,-99.671,
00:00:35:784,-0.298,0.151,0.956,83.801,-15.686,-89.6,
00:00:35:800,-0.288,0.191,0.972,12.085,-25.452,-88.318,
00:00:35:817,-0.307,0.218,0.934,-7.752,-18.25,-82.459,
00:00:35:834,-0.301,0.187,0.963,-17.151,-10.376,-81.482,
00:00:35:850,-0.275,0.218,0.955,-10.193,-0.611,-77.82,
00:00:35:867,-0.273,0.204,0.93,67.871,-5.005,-61.28,
00:00:35:884,-0.277,0.177,0.927,100.463,-8.057,-47.547,
00:00:35:900,-0.287,0.171,0.93,74.279,-13.672,-37.049,
00:00:35:917,-0.305,0.154,0.919,24.536,-18.616,-27.1,
00:00:35:934,-0.313,0.162,0.921,-22.644,-15.564,-22.522,
00:00:35:950,-0.307,0.147,0.947,23.742,5.615,-33.326,
00:00:35:967,-0.291,0.127,0.952,46.447,20.568,-36.377,
00:00:35:984,-0.277,0.121,0.942,40.405,29.419,-30.457,
00:00:36:0,-0.268,0.126,0.946,23.62,26.428,-27.955,
00:00:36:17,-0.278,0.127,0.951,-4.212,17.334,-26.062,
00:00:36:34,-0.286,0.139,0.958,-21.485,21.728,-33.875,
00:00:36:50,-0.291,0.154,0.955,-12.513,24.963,-35.523,
00:00:36:67,-0.305,0.148,0.947,0.671,27.893,-35.889,
00:00:36:84,-0.307,0.149,0.94,12.573,37.719,-36.866,
00:00:36:100,-0.303,0.147,0.936,16.845,42.419,-31.556,
00:00:36:117,-0.3,0.154,0.947,17.395,43.396,-22.034,
00:00:36:134,-0.292,0.161,0.949,14.709,39.611,-17.823,
00:00:36:150,-0.288,0.162,0.959,5.798,39.367,-13.855,
00:00:36:167,-0.282,0.168,0.949,2.197,42.785,-15.076,
00:00:36:184,-0.271,0.155,0.962,24.719,42.419,-9.583,
00:00:36:200,-0.267,0.139,0.955,33.02,38.33,-0.489,
00:00:36:217,-0.271,0.144,0.963,45.349,31.799,5.798,
00:00:36:234,-0.279,0.138,0.971,55.419,25.573,7.263,
00:00:36:250,-0.281,0.121,0.974,49.438,25.512,2.136,
00:00:36:267,-0.283,0.119,0.978,40.283,16.906,-3.113,
00:00:36:284,-0.295,0.117,0.965,26.306,8.911,-7.813,
00:00:36:300,-0.289,0.116,0.964,14.709,3.723,-17.518,
00:00:36:317,-0.281,0.12,0.969,11.596,3.173,-24.964,
00:00:36:334,-0.271,0.129,0.972,30.395,2.502,-31.922,
00:00:36:350,-0.268,0.127,0.962,28.808,-0.367,-37.232,
00:00:36:367,-0.273,0.135,0.96,40.832,1.525,-39.124,
00:00:36:384,-0.274,0.131,0.946,45.959,2.929,-40.528,
00:00:36:400,-0.277,0.123,0.938,46.447,2.685,-35.096,
00:00:36:417,-0.279,0.113,0.938,33.081,1.525,-26.49,
00:00:36:434,-0.286,0.11,0.933,1.648,6.042,-22.4,
00:00:36:450,-0.292,0.123,0.933,-19.41,12.878,-22.828,
00:00:36:467,-0.292,0.129,0.943,-17.579,20.324,-28.931,
00:00:36:484,-0.289,0.125,0.942,-6.47,28.32,-34.485,
00:00:36:500,-0.285,0.121,0.939,4.211,30.334,-36.072,
00:00:36:517,-0.289,0.12,0.948,7.324,37.536,-37.415,
00:00:36:534,-0.277,0.126,0.956,2.197,39.978,-39.734,
00:00:36:550,-0.27,0.139,0.963,-2.991,38.33,-40.039,
00:00:36:567,-0.269,0.148,0.968,4.333,38.635,-39.063,
00:00:36:584,-0.264,0.143,0.968,4.394,36.743,-36.683,
00:00:36:600,-0.265,0.148,0.963,10.009,36.499,-33.02,
00:00:36:617,-0.26,0.146,0.975,17.822,27.832,-28.016,
