TIMECODE,ACC_X,ACC_Y,ACC_Z,GYR_X,GYR_Y,GYR_Z,ECG_I,ECG_II,ECG_III,TAG
,0.256,0.292,0.906,-0.977,8.056,-21.912,0,0,0,
,0.253,0.289,0.908,7.995,8.422,-22.278,0,0,0,
,0.252,0.282,0.916,10.742,9.399,-22.889,0,0,0,
,0.249,0.278,0.912,5.188,10.498,-25.269,0,0,0,
,0.251,0.284,0.911,4.516,12.573,-22.4,0,0,0,
,0.256,0.281,0.903,3.54,9.887,-21.241,0,0,0,
,0.253,0.281,0.907,7.08,7.629,-21.668,0,0,0,
,0.255,0.283,0.909,3.845,6.897,-21.851,0,0,0,
,0.253,0.286,0.907,2.563,6.286,-21.058,0,0,0,
,0.254,0.29,0.911,2.563,8.361,-22.889,0,0,0,
,0.254,0.286,0.913,9.155,6.958,-22.828,0,0,0,
,0.252,0.28,0.911,9.46,8.85,-21.851,0,0,0,
,0.253,0.277,0.913,4.821,8.422,-21.973,0,0,0,
,0.248,0.285,0.91,3.906,9.521,-21.363,0,0,0,
,0.251,0.287,0.913,8.056,10.864,-21.668,0,0,0,
,0.252,0.282,0.909,11.047,11.108,-22.278,0,0,0,
,0.258,0.278,0.911,5.188,9.704,-21.973,0,0,0,
,0.257,0.283,0.906,3.295,7.812,-21.546,0,0,0,
,0.256,0.291,0.907,2.746,7.263,-20.508,0,0,0,
,0.252,0.285,0.914,7.751,5.859,-21.424,0,0,0,
,0.249,0.281,0.91,7.385,8.483,-23.499,0,0,0,
,0.25,0.284,0.91,2.075,9.643,-23.194,0,0,0,
,0.255,0.276,0.911,5.371,7.69,-22.095,0,0,0,
,0.252,0.282,0.906,-1.404,7.751,-22.217,0,0,0,
,0.254,0.289,0.909,2.258,8.239,-23.743,0,0,0,
,0.254,0.293,0.909,8.117,10.986,-21.668,0,0,0,
,0.253,0.281,0.908,9.826,9.948,-21.607,0,0,0,
,0.251,0.282,0.909,5.92,9.094,-22.156,0,0,0,
,0.253,0.282,0.911,5.432,8.178,-22.889,0,0,0,
,0.252,0.283,0.91,5.432,7.812,-22.156,0,0,0,
,0.255,0.283,0.904,6.591,8.667,-23.316,0,0,0,
,0.253,0.284,0.908,4.882,8.606,-21.729,0,0,0,
,0.255,0.281,0.913,6.286,8.606,-21.424,0,0,0,
,0.253,0.282,0.911,4.638,7.69,-22.095,0,0,0,
,0.252,0.286,0.911,4.272,10.009,-21.546,0,0,0,
,0.251,0.281,0.907,7.019,7.812,-21.912,0,0,0,
,0.252,0.282,0.908,5.188,8.117,-22.095,0,0,0,
,0.253,0.284,0.905,4.516,8.85,-21.424,0,0,0,
,0.252,0.283,0.911,8.3,8.728,-23.316,0,0,0,
,0.254,0.283,0.909,6.469,10.192,-22.034,0,0,0,
,0.253,0.281,0.908,5.92,8.3,-20.264,0,0,0,
,0.251,0.281,0.912,4.516,10.559,-22.034,0,0,0,
,0.252,0.282,0.91,5.554,9.094,-19.593,0,0,0,
,0.251,0.283,0.912,5.798,9.643,-20.569,0,0,0,
,0.254,0.285,0.912,2.136,8.422,-20.447,0,0,0,
,0.251,0.283,0.912,6.347,8.667,-20.386,0,0,0,
,0.252,0.284,0.91,7.385,10.315,-20.752,0,0,0,
,0.252,0.28,0.909,6.103,10.009,-20.691,0,0,0,
,0.252,0.284,0.912,3.967,10.009,-20.752,0,0,0,
,0.252,0.282,0.907,6.347,10.009,-20.02,0,0,0,
,0.253,0.282,0.913,3.845,8.117,-20.874,0,0,0,
,0.252,0.28,0.91,4.577,9.094,-20.142,0,0,0,
,0.252,0.281,0.91,2.685,9.277,-20.02,0,0,0,
,0.256,0.281,0.911,2.563,7.263,-19.043,0,0,0,
,0.25,0.284,0.91,4.455,7.324,-20.508,0,0,0,
,0.25,0.285,0.909,4.394,7.385,-20.997,0,0,0,
,0.219,0.286,0.905,2.868,7.568,-23.56,0,0,0,
,0.253,0.289,0.908,2.38,9.704,-23.682,0,0,0,
,0.253,0.289,0.912,8.667,9.033,-24.964,0,0,0,
,0.251,0.283,0.913,11.596,9.765,-22.339,0,0,0,
,0.252,0.276,0.915,9.094,10.315,-23.499,0,0,0,
,0.25,0.273,0.911,3.662,8.3,-22.461,0,0,0,
,0.255,0.279,0.908,1.159,10.437,-21.485,0,0,0,
,0.252,0.286,0.908,1.648,9.826,-21.18,0,0,0,
,0.251,0.292,0.905,3.845,9.216,-21.79,0,0,0,
,0.255,0.289,0.875,10.315,7.995,-23.133,0,0,0,
,0.253,0.285,0.907,9.338,9.338,-23.865,0,0,0,
,0.252,0.282,0.908,7.446,9.826,-22.583,0,0,0,
,0.252,0.277,0.911,8.911,9.216,-21.424,0,0,0,
,0.251,0.277,0.913,7.324,8.117,-22.522,0,0,0,
,0.25,0.281,0.913,7.995,9.033,-20.752,0,0,0,
,0.252,0.285,0.911,7.507,10.864,-21.912,0,0,0,
,0.249,0.283,0.909,9.826,11.108,-20.508,0,0,0,
,0.252,0.278,0.911,5.737,11.657,-20.691,0,0,0,
,0.255,0.284,0.909,2.441,8.85,-21.851,0,0,0,
,0.254,0.288,0.908,5.493,8.361,-22.522,0,0,0,
,0.253,0.288,0.91,8.911,9.521,-22.828,0,0,0,
,0.253,0.281,0.91,10.498,9.155,-20.935,0,0,0,
,0.254,0.277,0.909,9.887,8.117,-20.508,0,0,0,
,0.256,0.272,0.913,4.394,8.422,-18.799,0,0,0,
,0.251,0.279,0.909,3.295,5.737,-19.165,0,0,0,
,0.252,0.28,0.909,3.479,6.836,-20.081,0,0,0,
,0.248,0.29,0.908,0.122,5.798,-22.278,0,0,0,
,0.252,0.295,0.909,4.943,9.46,-23.56,0,0,0,
,0.254,0.285,0.911,13.122,10.253,-23.011,0,0,0,
,0.254,0.274,0.909,11.291,8.606,-22.339,0,0,0,
,0.254,0.277,0.905,3.356,8.483,-21.729,0,0,0,
,0.253,0.282,0.909,3.662,7.934,-21.302,0,0,0,
,0.253,0.282,0.91,3.662,6.958,-21.058,0,0,0,
,0.253,0.284,0.909,3.112,8.117,-21.729,0,0,0,
,0.253,0.284,0.909,5.127,6.713,-23.621,0,0,0,
,0.253,0.284,0.911,8.728,7.751,-22.767,0,0,0,
,0.253,0.282,0.911,7.141,7.446,-21.302,0,0,0,
,0.254,0.28,0.907,6.164,9.155,-20.997,0,0,0,
,0.252,0.282,0.908,5.31,7.202,-21.424,0,0,0,
,0.252,0.285,0.909,3.234,7.69,-19.959,0,0,0,
,0.254,0.282,0.909,7.751,7.873,-20.569,0,0,0,
,0.252,0.281,0.907,6.225,9.46,-21.18,0,0,0,
,0.254,0.276,0.911,3.723,9.399,-21.607,0,0,0,
,0.255,0.281,0.91,0.549,8.3,-19.837,0,0,0,
,0.252,0.287,0.906,3.845,9.033,-21.79,0,0,0,
,0.252,0.286,0.907,6.958,8.972,-22.522,0,0,0,
,0.251,0.286,0.909,4.577,8.789,-21.851,0,0,0,
,0.255,0.281,0.912,7.141,8.544,-21.973,0,0,0,
,0.253,0.28,0.911,5.31,9.216,-23.072,0,0,0,
,0.253,0.278,0.91,5.676,7.751,-22.461,0,0,0,
,0.255,0.284,0.908,2.929,9.277,-21.485,0,0,0,
,0.254,0.286,0.906,2.197,8.544,-21.241,0,0,0,
,0.251,0.281,0.907,6.652,6.164,-21.668,0,0,0,
,0.252,0.279,0.911,2.624,6.591,-21.485,0,0,0,
,0.253,0.285,0.913,1.77,7.019,-23.56,0,0,0,
,0.254,0.288,0.904,5.065,8.3,-21.302,0,0,0,
,0.251,0.279,0.909,8.667,7.568,-20.997,0,0,0,
,0.253,0.277,0.913,7.202,8.239,-19.898,0,0,0,
,0.253,0.276,0.909,1.037,6.591,-20.752,0,0,0,
,0.25,0.284,0.91,-0.306,6.591,-21.546,0,0,0,
,0.253,0.288,0.907,1.342,6.713,-20.813,0,0,0,
,0.253,0.285,0.91,4.882,5.188,-20.874,0,0,0,
,0.249,0.279,0.912,3.906,7.995,-20.386,0,0,0,
,0.249,0.284,0.91,0.549,7.812,-22.461,0,0,0,
,0.254,0.292,0.909,2.624,7.995,-23.133,0,0,0,
,0.251,0.287,0.911,8.117,7.873,-22.644,0,0,0,
,0.252,0.276,0.915,10.803,9.582,-22.706,0,0,0,
,0.254,0.276,0.913,3.051,8.728,-21.79,0,0,0,
,0.249,0.283,0.91,1.403,10.437,-21.973,0,0,0,
,0.253,0.286,0.904,5.981,6.774,-18.677,0,0,0,
,0.252,0.282,0.905,7.141,6.713,-19.837,0,0,0,
,0.252,0.286,0.905,6.164,6.408,-20.691,0,0,0,
,0.222,0.286,0.907,9.399,7.446,-19.227,0,0,0,
,0.281,0.282,0.916,10.192,6.836,-21.912,0,0,0,
,0.252,0.281,0.914,2.99,6.958,-22.339,0,0,0,
,0.251,0.287,0.906,7.324,9.46,-21.729,0,0,0,
,0.253,0.284,0.908,11.657,8.483,-21.302,0,0,0,
,0.249,0.274,0.908,10.253,9.155,-20.63,0,0,0,
,0.251,0.279,0.911,5.127,10.437,-22.461,0,0,0,
,0.252,0.282,0.877,1.037,9.46,-22.95,0,0,0,
,0.258,0.29,0.876,3.173,9.277,-23.194,0,0,0,
,0.256,0.286,0.906,8.85,8.972,-20.63,0,0,0,
,0.253,0.281,0.91,8.056,7.446,-21.912,0,0,0,
,0.249,0.281,0.909,3.601,7.568,-23.682,0,0,0,
,0.251,0.285,0.909,4.089,8.544,-22.644,0,0,0,
,0.253,0.282,0.912,7.934,9.338,-24.048,0,0,0,
,0.25,0.278,0.916,8.056,9.46,-23.865,0,0,0,
,0.254,0.275,0.911,7.934,8.728,-24.659,0,0,0,
,0.253,0.286,0.91,5.737,10.498,-24.17,0,0,0,
,0.253,0.288,0.904,9.643,10.131,-24.414,0,0,0,
,0.253,0.282,0.908,9.521,10.009,-24.109,0,0,0,
,0.252,0.277,0.908,5.004,10.498,-24.048,0,0,0,
,0.255,0.285,0.909,5.615,9.704,-21.973,0,0,0,
,0.255,0.286,0.903,9.033,8.789,-22.034,0,0,0,
,0.255,0.277,0.914,11.901,7.507,-21.302,0,0,0,
,0.255,0.275,0.913,3.906,5.859,-22.583,0,0,0,
,0.252,0.285,0.91,-0.977,7.873,-22.034,0,0,0,
,0.255,0.291,0.908,6.897,8.483,-23.194,0,0,0,
,0.253,0.285,0.91,10.864,10.315,-24.048,0,0,0,
,0.253,0.28,0.914,9.338,10.498,-23.316,0,0,0,
,0.253,0.281,0.914,8.178,10.437,-22.156,0,0,0,
,0.253,0.28,0.912,5.676,9.338,-20.508,0,0,0,
,0.255,0.281,0.91,5.554,8.911,-22.522,0,0,0,
,0.251,0.28,0.911,3.356,8.483,-22.217,0,0,0,
,0.254,0.288,0.91,3.967,8.483,-22.339,0,0,0,
,0.252,0.285,0.905,9.033,8.911,-22.889,0,0,0,
,0.253,0.277,0.912,4.577,10.192,-23.804,0,0,0,
,0.252,0.277,0.91,3.295,9.521,-23.499,0,0,0,
,0.255,0.286,0.909,2.563,10.009,-23.865,0,0,0,
,0.258,0.286,0.907,7.629,9.765,-22.95,0,0,0,
,0.254,0.278,0.91,9.338,10.192,-21.363,0,0,0,
,0.254,0.28,0.91,6.958,10.253,-23.011,0,0,0,
,0.252,0.285,0.91,7.934,10.253,-23.499,0,0,0,
,0.252,0.286,0.915,8.544,10.803,-23.56,0,0,0,
,0.253,0.278,0.908,10.192,10.009,-21.302,0,0,0,
,0.252,0.274,0.907,8.422,9.277,-21.424,0,0,0,
,0.255,0.281,0.905,3.418,8.422,-22.339,0,0,0,
,0.254,0.282,0.911,6.225,8.361,-21.851,0,0,0,
,0.252,0.28,0.911,6.774,7.995,-22.095,0,0,0,
,0.254,0.277,0.91,8.606,11.474,-22.644,0,0,0,
,0.256,0.279,0.909,9.033,9.216,-23.255,0,0,0,
,0.258,0.279,0.907,5.859,9.582,-23.926,0,0,0,
,0.255,0.276,0.908,8.422,9.582,-21.363,0,0,0,
,0.252,0.278,0.907,6.408,5.92,-21.79,0,0,0,
,0.255,0.28,0.908,1.464,4.272,-21.18,0,0,0,
,0.256,0.279,0.907,-2.686,1.831,-20.447,0,0,0,
,0.251,0.289,0.912,-3.907,2.685,-22.095,0,0,0,
,0.252,0.288,0.909,2.624,6.103,-19.593,0,0,0,
,0.252,0.274,0.912,4.638,7.995,-18.921,0,0,0,
,0.255,0.268,0.913,0.061,6.103,-17.518,0,0,0,
,0.254,0.275,0.911,-5.86,5.249,-16.785,0,0,0,
,0.25,0.289,0.909,-5.127,8.483,-19.593,0,0,0,
,0.254,0.297,0.909,1.342,10.192,-18.067,0,0,0,
,0.257,0.288,0.912,4.15,8.789,-20.752,0,0,0,
,0.262,0.275,0.902,-7.325,2.807,-18.555,0,0,0,
,0.268,0.28,0.89,-46.448,-8.912,-15.076,0,0,0,
,0.274,0.295,0.898,-47.303,-22.461,-4.639,0,0,0,
,0.237,0.249,0.927,-17.395,-18.677,24.475,0,0,0,
,0.209,0.188,0.949,-13.672,-9.705,46.63,0,0,0,
,0.235,0.233,0.954,-82.581,12.634,70.434,0,0,0,
,0.299,0.29,0.94,-104.615,41.381,111.328,0,0,0,
,0.212,0.361,1.049,-91.187,78.735,145.63,0,0,0,
,0.144,0.39,1.229,13.244,283.508,142.089,0,0,0,
,0.205,0.494,1.312,480.285,459.045,179.321,0,0,0,
,0.366,0.52,1.728,682.006,152.588,224.975,0,0,0,
,0.552,0.339,2.38,337.463,-159.729,483.764,0,0,0,
,0.665,1.146,2.488,111.328,80.749,69.213,0,0,0,
,0.756,1.221,2.118,29.357,-900.086,647.583,0,0,0,
,0.987,0.96,2.701,306.152,-1701.478,709.594,0,0,0,
,1.011,1.116,3.11,134.704,-2000,957.824,0,0,0,
,0.911,1.298,2.653,161.438,-2000,1043.029,0,0,0,
,1.106,1.278,2.253,459.655,-2000,1112.182,0,0,0,
,1.296,0.882,1.883,751.587,-2000,1164.795,0,0,0,
,1.055,0.586,1.493,924.743,-2000,1192.077,0,0,0,
,0.883,0.317,1.024,949.218,-2000,1101.257,0,0,0,
,0.75,0.123,0.569,842.712,-2000,999.572,0,0,0,
,0.654,0.093,0.234,698.364,-2000,893.371,0,0,0,
,0.709,0.049,-0.06,570.434,-2000,821.594,0,0,0,
,0.822,-0.125,-0.454,376.831,-2000,725.708,0,0,0,
,0.826,-0.462,-1.122,176.147,-2000,627.746,0,0,0,
,0.665,-0.853,-1.644,-124.878,-2000,576.538,0,0,0,
,0.567,-0.959,-1.741,-528.199,-1937.684,468.811,0,0,0,
,0.636,-0.66,-1.76,-503.54,-1326.966,234.069,0,0,0,
,0.584,-0.596,-1.754,-108.826,-678.589,-124.573,0,0,0,
,0.476,-0.655,-1.752,-35.157,47.18,-426.575,0,0,0,
,0.364,-0.47,-1.641,-184.815,743.408,-602.906,0,0,0,
,0.373,-0.406,-1.25,39.123,1999.694,-682.19,0,0,0,
,0.454,-0.312,-0.997,141.723,1999.694,-661.56,0,0,0,
,0.581,-0.043,-0.535,140.442,1999.694,-632.081,0,0,0,
,0.623,0.183,-0.199,-8.24,1999.694,-635.315,0,0,0,
,0.454,0.445,0.337,-73.609,1999.694,-717.408,0,0,0,
,0.215,0.398,1.018,405.578,1999.694,-794.8,0,0,0,
,0.1,-0.051,1.841,1121.582,1999.694,-752.442,0,0,0,
,0.64,-1.318,2.26,-57.068,1999.694,-570.923,0,0,0,
,0.971,0.041,2.123,-1180.176,1999.694,-235.413,0,0,0,
,1.3,1.598,2.889,-956.604,1999.694,-442.566,0,0,0,
,1.278,1.042,3.049,67.321,772.766,-592.652,0,0,0,
,-0.202,0.425,2.527,76.171,-590.149,-195.679,0,0,0,
,-0.893,0.234,2.019,-186.707,441.223,-245.24,0,0,0,
,-0.105,0.179,1.623,-335.022,670.227,-143.128,0,0,0,
,0.299,0.173,1.285,-353.699,529.297,-113.648,0,0,0,
,0.196,0.246,1.219,-152.405,183.166,-84.595,0,0,0,
,0.071,0.392,1.133,229.431,167.236,-37.171,0,0,0,
,0.27,-0.076,1.757,180.114,-25.025,-85.572,0,0,0,
,0.109,0.296,1.786,14.648,-263.367,22.522,0,0,0,
,-0.154,-0.086,1.263,11.535,-195.374,-144.715,0,0,0,
,-0.115,-0.015,0.963,-278.565,-110.23,-78.553,0,0,0,
,0.015,0.265,0.86,-299.622,-52.308,-82.764,0,0,0,
,0.102,0.184,0.89,-176.514,-48.157,-75.318,0,0,0,
,0.098,0.139,0.914,-100.281,-49.439,-51.697,0,0,0,
,0.07,0.104,0.933,-55.542,-37.476,-51.087,0,0,0,
,0.053,0.118,0.943,-83.374,-27.955,-69.825,0,0,0,
,0.033,0.158,0.96,-126.587,-25.452,-75.379,0,0,0,
,0.016,0.203,0.999,-131.47,-23.438,-67.2,0,0,0,
,0.01,0.22,1.059,-113.831,-28.016,-56.763,0,0,0,
,0.007,0.235,1.07,-73.975,-32.105,-40.345,0,0,0,
,0.013,0.19,1.061,-44.19,-34.974,-31.617,0,0,0,
,0.038,0.161,0.987,-33.997,-32.349,-7.63,0,0,0,
,0.037,0.152,0.967,-15.259,-30.213,2.38,0,0,0,
,0.039,0.14,0.962,-3.235,-25.635,12.695,0,0,0,
,0.033,0.169,0.985,30.578,-23.56,18.554,0,0,0,
,0.034,0.191,1.002,46.264,-26.001,22.277,0,0,0,
,0.017,0.188,1.019,52.429,-38.208,30.883,0,0,0,
,-0.001,0.208,1.043,47.851,-43.152,41.137,0,0,0,
,-0.006,0.227,1.053,45.471,-40.833,53.039,0,0,0,
,-0.014,0.234,1.072,71.96,-41.321,66.772,0,0,0,
,-0.032,0.267,1.138,95.764,-21.729,90.454,0,0,0,
,-0.036,0.269,1.147,106.262,18.005,91.674,0,0,0,
,-0.026,0.125,1.167,95.764,-1.038,110.595,0,0,0,
,-0.039,0.087,1.184,9.277,-70.74,165.71,0,0,0,
,-0.087,0.073,1.191,-101.014,-174.195,182.617,0,0,0,
,-0.192,0.133,1.188,-158.814,-283.326,171.692,0,0,0,
,-0.343,0.205,1.118,-119.996,-386.841,208.007,0,0,0,
,-0.493,0.294,1.05,3.662,-399.353,201.294,0,0,0,
,-0.872,0.143,1.003,-51.209,-303.772,219.299,0,0,0,
,-0.851,0.435,1.021,-23.011,-309.937,301.025,0,0,0,
,-0.923,0.44,1,191.284,-207.764,329.162,0,0,0,
,-0.897,0.355,1.007,305.725,-45.044,331.482,0,0,0,
,-0.709,0.364,0.955,352.417,51.574,366.699,0,0,0,
,-0.452,0.144,0.613,614.624,310.913,440.551,0,0,0,
,-0.298,0.069,0.581,700.378,452.514,435.302,0,0,0,
,-0.113,0.016,0.583,766.845,602.905,417.358,0,0,0,
,0.033,0.02,0.657,797.668,772.277,425.293,0,0,0,
,0.195,0.121,0.64,829.589,998.169,365.844,0,0,0,
,0.432,0.153,0.643,869.018,1084.777,261.291,0,0,0,
,0.668,0.076,0.712,924.316,928.65,203.491,0,0,0,
,0.791,-0.062,0.758,942.993,657.776,245.788,0,0,0,
,0.746,-0.269,0.83,858.337,467.224,309.631,0,0,0,
,0.661,-0.342,0.847,674.377,407.592,346.679,0,0,0,
,0.664,-0.293,0.838,506.042,418.823,332.885,0,0,0,
,0.737,-0.218,0.875,444.275,355.346,308.838,0,0,0,
,0.772,-0.184,0.917,427.978,242.614,299.987,0,0,0,
,0.739,-0.214,0.93,369.384,128.784,304.87,0,0,0,
,0.654,-0.255,0.916,280.029,35.217,306.945,0,0,0,
,0.553,-0.25,0.957,200.134,-10.56,322.998,0,0,0,
,0.463,-0.23,0.977,206.543,-18.006,309.204,0,0,0,
,0.406,-0.286,0.973,253.662,-26.856,273.498,0,0,0,
,0.352,-0.367,0.891,286.987,-31.739,226.562,0,0,0,
,0.321,-0.458,0.876,182.495,-67.078,187.317,0,0,0,
,0.257,-0.413,0.921,24.597,-41.993,156.86,0,0,0,
,0.229,-0.338,0.898,10.192,12.573,93.017,0,0,0,
,0.27,-0.401,0.905,27.221,-10.743,53.405,0,0,0,
,0.215,-0.311,0.907,82.641,-52.674,35.156,0,0,0,
,0.152,-0.312,0.909,151.062,-9.705,22.888,0,0,0,
,0.157,-0.307,0.918,173.156,46.447,6.897,0,0,0,
,0.179,-0.297,0.923,194.275,93.627,22.522,0,0,0,
,0.217,-0.338,0.92,219.909,112.609,30.7,0,0,0,
,0.265,-0.365,0.958,185.424,118.957,26.794,0,0,0,
,0.308,-0.38,0.955,199.524,87.097,23.132,0,0,0,
,0.401,-0.392,0.978,238.952,56.152,4.455,0,0,0,
,0.528,-0.4,0.962,275.146,43.273,-18.067,0,0,0,
,0.534,-0.574,0.963,110.534,-14.771,-30.091,0,0,0,
,0.634,-0.44,0.933,27.221,-31.373,-54.627,0,0,0,
,0.709,-0.381,0.834,228.637,-68.482,-46.631,0,0,0,
,0.761,-0.461,1.093,177.124,-179.566,-58.167,0,0,0,
,0.743,-0.273,0.821,188.354,-167.359,-76.233,0,0,0,
,0.817,-0.438,0.889,194.702,-262.635,-81.299,0,0,0,
,0.786,-0.387,0.939,0.488,-305.787,-59.51,0,0,0,
,0.78,-0.349,0.954,-98.389,-330.323,-68.177,0,0,0,
,0.698,-0.261,0.922,-142.273,-328.37,-75.318,0,0,0,
,0.67,-0.251,0.823,-128.846,-297.608,-72.998,0,0,0,
,0.58,-0.192,0.744,-54.2,-384.583,-32.715,0,0,0,
,0.464,-0.07,0.825,-23.743,-430.787,-0.977,0,0,0,
,0.341,-0.162,0.823,-97.901,-456.727,21.606,0,0,0,
,0.186,-0.248,0.832,-164.002,-442.017,58.715,0,0,0,
,0.027,-0.273,0.707,-44.434,-390.076,46.142,0,0,0,
,-0.084,-0.438,0.61,49.011,-400.757,9.399,0,0,0,
,-0.239,-0.51,0.595,-120.911,-389.344,53.711,0,0,0,
,-0.424,-0.426,0.645,-374.268,-328.431,67.565,0,0,0,
,-0.598,-0.187,0.651,-453.675,-166.81,10.498,0,0,0,
,-0.653,0.036,0.984,-85.572,-157.044,-60.425,0,0,0,
,-0.698,-0.197,1.003,306.335,-159.424,-79.712,0,0,0,
,-0.81,-0.426,0.787,248.047,-41.016,-67.444,0,0,0,
,-0.716,-0.493,0.711,-34.363,78.552,-148.743,0,0,0,
,-0.598,-0.447,0.8,-109.314,118.53,-197.876,0,0,0,
,-0.471,-0.482,0.915,-7.081,101.989,-195.74,0,0,0,
,-0.362,-0.483,0.975,65.856,82.153,-186.341,0,0,0,
,-0.243,-0.522,1.03,54.748,64.27,-183.167,0,0,0,
,-0.124,-0.521,1.018,8.483,64.697,-153.016,0,0,0,
,0.077,-0.687,1.064,39.856,-160.096,-146.668,0,0,0,
,-0.094,-0.494,0.851,-86.243,-211.426,-39.185,0,0,0,
,-0.161,-0.362,0.868,-38.331,-146.424,-66.956,0,0,0,
,-0.138,-0.367,0.804,56.823,-4.761,-12.94,0,0,0,
,-0.104,-0.418,0.755,27.099,29.296,41.931,0,0,0,
,-0.138,-0.418,0.677,-67.078,41.015,115.722,0,0,0,
,-0.156,-0.434,0.819,-117.554,94.238,145.141,0,0,0,
,-0.199,-0.59,1.034,-65.918,137.756,150.634,0,0,0,
,-0.19,-0.645,1.263,-50.171,170.654,173.767,0,0,0,
,-0.198,-0.65,1.29,-50.538,116.516,164.489,0,0,0,
,-0.229,-0.695,1.119,-93.995,59.753,193.237,0,0,0,
,-0.255,-0.55,0.986,-140.198,67.81,175.232,0,0,0,
,-0.155,-0.506,0.938,-40.65,67.871,171.814,0,0,0,
,-0.141,-0.557,0.956,-8.545,42.48,166.076,0,0,0,
,-0.139,-0.383,0.985,-19.165,43.823,142.639,0,0,0,
,-0.072,-0.366,0.96,24.475,33.325,119.812,0,0,0,
,-0.056,-0.391,0.867,-13.123,37.231,90.454,0,0,0,
,-0.058,-0.314,0.766,-48.035,63.598,55.725,0,0,0,
,-0.013,-0.312,0.714,7.385,91.552,31.677,0,0,0,
,0.046,-0.422,0.786,-23.133,110.046,15.502,0,0,0,
,0.09,-0.331,0.854,-68.909,122.497,-5.005,0,0,0,
,0.112,-0.277,0.955,-115.418,109.863,-31.434,0,0,0,
,0.102,-0.274,0.895,-136.048,116.943,-42.054,0,0,0,
,0.08,-0.32,0.906,-90.638,105.346,-49.012,0,0,0,
,0.029,-0.33,0.976,-49.866,109.863,-71.717,0,0,0,
,0.138,-0.224,1.067,-59.021,119.69,-84.9,0,0,0,
,0.204,-0.264,1.102,-85.816,105.651,-59.144,0,0,0,
,0.236,-0.14,1.081,-67.627,79.834,-25.086,0,0,0,
,0.257,-0.197,0.978,12.207,64.27,-3.052,0,0,0,
,0.304,-0.301,0.856,7.324,119.14,-4.09,0,0,0,
,0.429,-0.251,0.892,-59.998,197.143,-6.836,0,0,0,
,0.598,-0.097,1.04,-77.576,196.289,18.005,0,0,0,
,0.658,-0.13,1.01,-93.567,150.879,30.395,0,0,0,
,0.644,-0.137,1.208,-31.983,-5.555,36.315,0,0,0,
,0.413,-0.239,1.122,-54.566,-118.103,3.479,0,0,0,
,0.289,-0.194,1.178,-41.199,-124.512,-16.48,0,0,0,
,0.252,-0.165,1.199,-3.174,-172.608,-36.011,0,0,0,
,0.206,-0.179,1.162,25.268,-211.182,-35.096,0,0,0,
,0.204,-0.226,1.043,27.771,-217.164,-23.865,0,0,0,
,0.207,-0.27,0.893,-7.264,-210.267,2.197,0,0,0,
,0.171,-0.269,0.75,-44.861,-166.199,30.761,0,0,0,
,0.118,-0.282,0.715,-48.951,-94.239,58.227,0,0,0,
,0.046,-0.295,0.756,-48.279,-55.115,75.805,0,0,0,
,-0.025,-0.278,0.935,-64.576,-16.358,87.463,0,0,0,
,-0.1,-0.25,1.066,-85.328,4.516,75.988,0,0,0,
,-0.105,-0.247,1.094,-74.463,9.704,62.622,0,0,0,
,-0.047,-0.312,0.963,-70.252,23.437,62.622,0,0,0,
,-0.009,-0.37,0.816,-69.153,48.523,68.908,0,0,0,
,0.034,-0.391,0.756,-93.995,99.243,84.045,0,0,0,
,0.071,-0.37,0.701,-110.779,153.503,91.98,0,0,0,
,0.072,-0.392,0.847,-74.707,152.343,126.22,0,0,0,
,-0.031,-0.426,0.954,-92.469,161.682,128.54,0,0,0,
,-0.037,-0.26,0.994,-141.236,189.392,112.182,0,0,0,
,-0.002,-0.287,0.996,-61.829,152.221,114.99,0,0,0,
,-0.067,-0.424,0.981,-52.918,99.548,104.37,0,0,0,
,-0.181,-0.451,0.909,-59.205,71.044,73.852,0,0,0,
,-0.283,-0.466,0.942,-21.912,48.645,36.56,0,0,0,
,-0.296,-0.46,1.057,36.621,34.729,-1.221,0,0,0,
,-0.164,-0.506,1.009,-41.138,30.334,-22.889,0,0,0,
,-0.036,-0.282,0.844,-99.183,41.565,-52.979,0,0,0,
,0.038,-0.415,0.798,22.033,21.057,-80.811,0,0,0,
,0.052,-0.392,0.86,-37.11,41.748,-102.601,0,0,0,
,0.128,-0.198,0.967,-79.956,55.419,-120.545,0,0,0,
,0.176,-0.12,1.042,-33.081,24.414,-132.264,0,0,0,
,0.163,-0.193,1.033,-26.856,8.911,-123.352,0,0,0,
,0.217,-0.168,1.006,-13.733,4.028,-118.836,0,0,0,
,0.159,-0.2,0.996,18.798,-6.47,-112.061,0,0,0,
,0.148,-0.219,1,15.38,-9.705,-115.906,0,0,0,
,0.133,-0.303,1.002,4.577,-29.969,-122.071,0,0,0,
,0.076,-0.228,1.024,-30.518,-50.477,-135.193,0,0,0,
,0.087,-0.2,1.007,1.586,-60.303,-139.527,0,0,0,
,0.099,-0.251,0.94,37.658,-66.346,-136.475,0,0,0,
,0.09,-0.28,0.921,14.099,-55.176,-140.992,0,0,0,
,0.089,-0.269,0.923,19.653,-38.575,-144.471,0,0,0,
,0.089,-0.274,0.937,37.78,-29.786,-147.644,0,0,0,
,0.121,-0.265,0.947,37.17,-13.855,-148.865,0,0,0,
,0.151,-0.205,0.974,31.25,-1.893,-140.686,0,0,0,
,0.129,-0.243,0.986,24.536,-4.09,-136.414,0,0,0,
,0.096,-0.26,1.017,11.108,-11.292,-144.898,0,0,0,
,0.077,-0.223,1.004,17.822,-35.096,-158.509,0,0,0,
,0.064,-0.188,0.951,43.029,-40.223,-172.913,0,0,0,
,0.135,-0.246,0.947,45.105,-25.086,-175.354,0,0,0,
,0.178,-0.211,0.972,30.212,-18.372,-153.565,0,0,0,
,0.183,-0.2,0.982,39.856,-12.879,-126.404,0,0,0,
,0.245,-0.21,0.981,53.772,3.845,-106.019,0,0,0,
,0.345,-0.189,1.04,24.108,8.728,-81.604,0,0,0,
,0.371,-0.072,1.032,38.452,-3.968,-43.763,0,0,0,
,0.314,-0.138,1.011,87.402,-16.602,-7.752,0,0,0,
,0.304,-0.129,0.995,64.514,-7.752,16.479,0,0,0,
,0.219,-0.22,0.992,52.368,-29.602,40.588,0,0,0,
,0.19,-0.193,1.001,7.507,-32.776,40.71,0,0,0,
,0.188,-0.218,0.961,-33.692,-32.166,46.02,0,0,0,
,0.161,-0.234,0.9,-77.698,-33.936,51.574,0,0,0,
,0.138,-0.203,0.869,-109.62,-6.104,55.236,0,0,0,
,0.145,-0.199,0.914,-102.478,14.221,64.819,0,0,0,
,0.123,-0.221,0.938,-111.023,19.531,73.547,0,0,0,
,0.076,-0.207,0.906,-158.875,34.24,82.153,0,0,0,
,0.06,-0.171,0.942,-108.277,44.616,85.815,0,0,0,
,0.009,-0.284,0.993,-92.774,34.24,84.899,0,0,0,
,0,-0.264,1.015,-102.723,32.043,58.715,0,0,0,
,-0.037,-0.339,1.038,-73.243,-0.916,54.504,0,0,0,
,-0.134,-0.35,1.056,-50.721,-26.978,32.165,0,0,0,
,-0.168,-0.392,0.999,-9.522,-45.227,3.051,0,0,0,
,-0.205,-0.376,0.96,6.042,-49.744,4.089,0,0,0,
,-0.199,-0.386,0.934,60.18,-55.42,-0.855,0,0,0,
,-0.218,-0.494,0.941,102.234,-62.806,-0.794,0,0,0,
,-0.25,-0.545,0.915,79.773,-55.97,-15.381,0,0,0,
,-0.259,-0.527,0.937,34.545,-26.246,-23.987,0,0,0,
,-0.12,-0.33,0.952,8.789,16.113,-13.184,0,0,0,
,-0.089,-0.386,0.968,54.382,3.967,-2.564,0,0,0,
,-0.12,-0.418,0.938,14.648,23.437,-10.498,0,0,0,
,-0.086,-0.396,0.901,-11.048,56.213,-29.114,0,0,0,
,-0.106,-0.287,0.973,4.333,78.125,-45.166,0,0,0,
,-0.044,-0.24,1.029,23.254,100.463,-57.435,0,0,0,
,0.034,-0.187,1.063,66.65,95.947,-47.913,0,0,0,
,0.032,-0.34,1.026,75.744,78.796,-57.923,0,0,0,
,0.024,-0.381,0.991,29.541,70.434,-84.412,0,0,0,
,-0.013,-0.361,0.947,10.192,55.908,-120.606,0,0,0,
,0.008,-0.284,0.939,-25.696,47.119,-162.354,0,0,0,
,0.026,-0.213,0.927,-51.392,35.583,-190.613,0,0,0,
,0.027,-0.169,0.925,-11.719,26.916,-201.661,0,0,0,
,0.089,-0.229,0.955,34.423,20.507,-207.581,0,0,0,
,0.231,-0.287,1.041,8.728,17.028,-216.187,0,0,0,
,0.341,-0.11,0.944,-68.177,20.752,-203.797,0,0,0,
,0.339,0.037,0.868,-72.815,35.583,-174.317,0,0,0,
,0.353,-0.039,0.89,-37.842,83.313,-125.367,0,0,0,
,0.468,-0.094,1.017,-27.1,128.784,-78.248,0,0,0,
,0.577,-0.038,1.163,-42.908,116.088,-27.588,0,0,0,
,0.578,0.11,1.151,-25.025,51.33,5.188,0,0,0,
,0.491,0.115,1.091,58.227,-33.631,42.968,0,0,0,
,0.403,-0.03,1.091,79.956,-72.205,71.106,0,0,0,
,0.324,-0.12,1.052,50.659,-105.042,74.035,0,0,0,
,0.259,-0.167,1.046,-29.541,-119.324,73.913,0,0,0,
,0.213,-0.136,1.004,-58.899,-119.629,70.739,0,0,0,
,0.194,-0.102,0.941,-66.895,-111.573,81.176,0,0,0,
,0.139,-0.134,0.912,-45.044,-104.92,93.322,0,0,0,
,0.095,-0.224,0.84,-80.323,-60.181,102.905,0,0,0,
,0.083,-0.179,0.804,-148.133,-5.066,120.117,0,0,0,
,0.049,-0.169,0.838,-169.739,43.212,128.967,0,0,0,
,0.031,-0.143,0.921,-153.321,82.58,134.399,0,0,0,
,0.037,-0.239,0.96,-95.704,88.012,127.319,0,0,0,
,-0.019,-0.345,1.062,-81.238,69.091,114.99,0,0,0,
,-0.081,-0.416,1.076,-65.064,43.884,96.984,0,0,0,
,-0.149,-0.398,1.068,-73.853,15.258,77.88,0,0,0,
,-0.251,-0.409,1.039,-47.242,-12.879,53.039,0,0,0,
,-0.293,-0.352,0.973,-14.954,-11.658,47.241,0,0,0,
,-0.265,-0.421,0.965,49.072,-18.738,40.71,0,0,0,
,-0.305,-0.518,0.944,76.538,-36.194,40.771,0,0,0,
,-0.327,-0.527,0.971,92.651,-37.903,11.596,0,0,0,
,-0.295,-0.654,0.96,50.659,-27.344,-11.841,0,0,0,
,-0.207,-0.389,0.918,-19.776,9.216,-25.086,0,0,0,
,-0.136,-0.329,0.954,101.684,18.127,-32.837,0,0,0,
,-0.108,-0.303,0.997,93.566,30.883,-40.711,0,0,0,
,-0.051,-0.303,0.991,111.633,29.235,-54.749,0,0,0,
,-0.035,-0.294,0.952,113.891,38.086,-68.665,0,0,0,
,-0.041,-0.265,0.954,121.521,61.523,-77.027,0,0,0,
,0,-0.227,0.99,124.023,85.998,-86.914,0,0,0,
,0.023,-0.307,0.96,92.041,110.656,-99.06,0,0,0,
,0.02,-0.309,0.955,23.132,124.939,-125.306,0,0,0,
,0.041,-0.274,0.999,3.295,115.051,-168.396,0,0,0,
,0.031,-0.214,0.957,1.953,86.914,-220.704,0,0,0,
,0.028,-0.138,0.875,37.048,76.66,-248.719,0,0,0,
,0.099,-0.144,0.84,67.382,87.646,-265.32,0,0,0,
,0.26,-0.228,0.846,26.062,113.769,-278.992,0,0,0,
,0.414,-0.139,0.818,-107.239,145.691,-266.663,0,0,0,
,0.571,0.047,0.937,-182.007,171.386,-216.858,0,0,0,
,0.661,0.129,1.057,-154.725,151.123,-141.236,0,0,0,
,0.7,0.111,1.095,-83.069,128.357,-94.239,0,0,0,
,0.727,0.081,1.196,-57.129,72.876,-34.18,0,0,0,
,0.668,0.191,1.182,0.183,-19.898,-1.343,0,0,0,
,0.454,0.029,1.198,18.249,-125.245,42.846,0,0,0,
,0.337,-0.089,1.159,41.992,-148.499,51.086,0,0,0,
,0.302,-0.158,1.095,-26.368,-185.73,75.256,0,0,0,
,0.236,-0.118,0.994,-79.834,-206.177,84.533,0,0,0,
,0.151,-0.079,0.895,-89.905,-178.894,101.074,0,0,0,
,0.096,-0.101,0.85,-77.942,-138.977,113.708,0,0,0,
,0.07,-0.135,0.838,-73.609,-86.731,138.672,0,0,0,
,0.036,-0.221,0.78,-77.454,-30.152,149.658,0,0,0,
,-0.02,-0.251,0.784,-136.292,34.973,147.522,0,0,0,
,-0.055,-0.201,0.852,-112.977,80.2,146.057,0,0,0,
,-0.072,-0.307,0.919,-83.985,112.06,131.775,0,0,0,
,-0.078,-0.321,1.036,-68.238,104.004,117.309,0,0,0,
,-0.122,-0.383,1.099,-37.781,72.387,102.417,0,0,0,
,-0.186,-0.408,1.078,-30.823,33.752,86.792,0,0,0,
,-0.256,-0.339,1.07,-9.278,0.305,69.091,0,0,0,
,-0.266,-0.424,1.043,90.454,-32.227,49.743,0,0,0,
,-0.305,-0.499,1.01,116.699,-55.542,35.644,0,0,0,
,-0.304,-0.527,0.948,105.285,-49.988,1.709,0,0,0,
,-0.204,-0.516,0.871,-25.696,-7.203,-0.916,0,0,0,
,-0.09,-0.305,0.838,-99.366,40.771,-12.696,0,0,0,
,0.064,-0.265,0.878,-63.416,70.922,-13.306,0,0,0,
,0.114,-0.168,1.025,-10.254,82.092,11.047,0,0,0,
,0.154,-0.156,1.07,-24.903,85.388,3.906,0,0,0,
,0.161,-0.081,1.077,-5.86,64.025,-7.752,0,0,0,
,0.102,-0.118,1.039,9.643,53.344,-11.353,0,0,0,
,0.069,-0.092,0.945,-17.456,64.453,-30.213,0,0,0,
,0.102,-0.091,0.995,27.648,52.978,-54.017,0,0,0,
,0.13,-0.106,1.006,30.09,24.963,-77.637,0,0,0,
,0.149,-0.181,1.023,47.607,-9.705,-107.483,0,0,0,
,0.102,-0.149,0.994,30.029,-46.387,-133.484,0,0,0,
,0.053,-0.159,0.952,49.377,-61.463,-156.434,0,0,0,
,0.073,-0.17,0.916,47.302,-59.51,-183.045,0,0,0,
,0.086,-0.165,0.929,13.366,-52.613,-199.036,0,0,0,
,0.086,-0.194,0.938,3.418,-40.772,-207.154,0,0,0,
,0.065,-0.186,1.001,9.033,-23.987,-188.111,0,0,0,
,0.073,-0.185,1.068,30.212,-9.888,-171.936,0,0,0,
,0.034,-0.195,1.08,48.156,-5.982,-171.936,0,0,0,
,0.014,-0.202,1.019,59.204,-14.527,-203.125,0,0,0,
,0.06,-0.159,0.947,75.012,-5.494,-230.469,0,0,0,
,0.089,-0.141,0.941,92.59,1.709,-226.746,0,0,0,
,0.131,-0.191,1.037,102.844,14.404,-213.318,0,0,0,
,0.203,-0.21,1.045,68.664,21.179,-196.717,0,0,0,
,0.209,-0.144,0.984,34.179,23.132,-192.566,0,0,0,
,0.29,-0.076,0.958,7.08,49.743,-168.641,0,0,0,
,0.461,-0.053,1.001,-26.978,74.279,-117.554,0,0,0,
,0.553,0.021,1.103,-24.903,66.162,-42.908,0,0,0,
,0.502,0.04,1.113,79.345,27.893,26.733,0,0,0,
,0.399,-0.043,1.109,174.743,-15.625,71.838,0,0,0,
,0.287,-0.15,0.985,114.38,-41.504,96.74,0,0,0,
,0.279,-0.095,0.922,28.198,-41.504,112.671,0,0,0,
,0.16,-0.047,0.866,-56.031,-14.527,145.752,0,0,0,
,0.093,-0.234,0.809,-77.637,-3.602,151.428,0,0,0,
,-0.011,-0.291,0.755,-182.862,45.41,148.071,0,0,0,
,-0.058,-0.289,0.755,-230.652,114.38,133.911,0,0,0,
,-0.057,-0.207,1.016,-166.321,137.39,132.568,0,0,0,
,-0.081,-0.26,1.245,-59.998,89.477,118.286,0,0,0,
,-0.211,-0.366,1.19,-10.621,23.437,95.947,0,0,0,
,-0.368,-0.394,1.047,24.047,-3.235,61.34,0,0,0,
,-0.426,-0.498,0.978,83.252,9.826,45.532,0,0,0,
,-0.378,-0.601,1.061,121.093,29.724,36.193,0,0,0,
,-0.232,-0.551,1.122,-2.076,37.719,5.249,0,0,0,
,-0.019,-0.323,0.978,-90.027,52.002,-8.789,0,0,0,
,0.125,-0.257,0.829,-95.948,72.753,6.225,0,0,0,
,0.174,-0.155,0.809,-66.04,100.341,26.367,0,0,0,
,0.228,-0.022,0.95,3.784,119.812,51.452,0,0,0,
,0.283,-0.062,1.024,52.917,115.173,71.411,0,0,0,
,0.243,-0.066,1.029,2.136,91.552,89.721,0,0,0,
,0.177,-0.117,0.977,-10.437,82.214,108.947,0,0,0,
,0.135,-0.18,0.94,-37.415,72.265,73.425,0,0,0,
,0.093,-0.195,0.886,-91.553,56.091,38.574,0,0,0,
,0.103,-0.12,0.902,-125.855,46.203,11.535,0,0,0,
,0.163,-0.153,0.945,-119.507,36.377,-8.423,0,0,0,
,0.199,-0.139,1.019,-131.714,20.141,-25.025,0,0,0,
,0.204,-0.049,1.031,-143.616,-6.409,-46.631,0,0,0,
,0.175,-0.037,1.003,-108.521,-26.123,-51.27,0,0,0,
,0.137,-0.08,0.999,-84.351,-26.673,-45.411,0,0,0,
,0.156,-0.122,1.045,-56.336,-25.452,-43.274,0,0,0,
,0.146,-0.161,1.062,-71.717,-20.203,-43.824,0,0,0,
,0.116,-0.132,1.016,-47.608,-10.621,-48.584,0,0,0,
,0.083,-0.135,0.979,-11.414,3.784,-46.082,0,0,0,
,0.072,-0.166,0.961,24.536,11.352,-44.251,0,0,0,
,0.09,-0.154,1.035,22.766,22.338,-38.025,0,0,0,
,0.137,-0.13,1.062,13.61,19.897,-29.48,0,0,0,
,0.124,-0.125,1.017,14.465,14.282,-32.776,0,0,0,
,0.088,-0.146,0.973,13.916,11.474,-36.744,0,0,0,
,0.095,-0.136,0.99,26.367,1.159,-42.969,0,0,0,
,0.102,-0.136,0.977,-9.339,-6.043,-44.312,0,0,0,
,0.131,-0.138,0.988,-29.358,-10.804,-49.866,0,0,0,
,0.141,-0.098,1.011,-53.345,-22.156,-50.599,0,0,0,
,0.134,-0.121,1.047,-35.889,-34.79,-59.998,0,0,0,
,0.121,-0.117,1.02,-42.42,-47.425,-70.13,0,0,0,
,0.12,-0.068,1.003,-37.842,-43.824,-75.013,0,0,0,
,0.18,-0.062,0.989,-16.785,-30.64,-69.581,0,0,0,
,0.187,-0.048,0.992,31.189,-20.264,-51.087,0,0,0,
,0.173,-0.08,0.945,45.959,-9.339,-34.241,0,0,0,
,0.175,-0.037,0.891,45.166,3.356,-23.865,0,0,0,
,0.188,-0.048,0.908,59.265,17.456,-23.194,0,0,0,
,0.201,-0.081,0.929,84.472,34.362,-23.072,0,0,0,
,0.198,-0.074,1.001,81.726,40.832,-33.753,0,0,0,
,0.19,-0.045,0.976,88.867,35.278,-46.387,0,0,0,
,0.182,-0.024,0.936,108.825,27.465,-50.354,0,0,0,
,0.173,-0.013,0.927,170.166,22.888,-42.542,0,0,0,
,0.16,-0.099,0.946,244.323,17.944,-51.88,0,0,0,
,0.14,-0.137,1.003,257.873,15.258,-53.528,0,0,0,
,0.188,-0.24,1.022,224.487,13.061,-38.269,0,0,0,
,0.236,-0.163,1.01,106.933,5.004,-12.146,0,0,0,
,0.208,-0.058,0.982,134.277,-2.381,9.033,0,0,0,
,0.177,-0.176,1.004,127.319,11.535,31.372,0,0,0,
,0.185,-0.17,1.016,69.458,24.047,57.373,0,0,0,
,0.157,-0.245,0.986,33.935,25.451,59.265,0,0,0,
,0.091,-0.234,0.969,-59.266,35.644,76.599,0,0,0,
,0.062,-0.169,0.955,-39.49,51.33,81.359,0,0,0,
,0.068,-0.215,0.967,4.394,53.405,87.28,0,0,0,
,0.054,-0.285,0.992,23.62,54.077,85.51,0,0,0,
,0.057,-0.254,1.01,23.376,43.762,74.096,0,0,0,
,0.039,-0.32,0.973,1.037,41.503,65.856,0,0,0,
,-0.001,-0.361,0.953,-64.454,48.095,55.358,0,0,0,
,0.011,-0.341,0.951,-105.774,39.733,53.405,0,0,0,
,-0.009,-0.29,0.998,-123.78,26.855,26.367,0,0,0,
,-0.065,-0.342,1.051,-104.981,22.827,-2.747,0,0,0,
,-0.037,-0.387,1.109,-141.907,13.427,-19.104,0,0,0,
,-0.004,-0.411,1.089,-245.423,-2.442,-55.787,0,0,0,
,0.043,-0.294,1.126,-324.402,-51.209,-66.956,0,0,0,
,0.073,-0.228,1.064,-319.825,-123.902,-129.578,0,0,0,
,0.117,-0.015,0.96,-235.108,-145.813,-108.521,0,0,0,
,0.072,-0.206,1.057,-57.007,-206.421,-168.702,0,0,0,
,-0.022,-0.178,1.105,-43.03,-243.592,-160.096,0,0,0,
,0.099,-0.099,1.226,20.263,-298.401,-181.641,0,0,0,
,0.082,-0.165,1.141,78.186,-359.07,-189.759,0,0,0,
,0.013,-0.168,1.107,61.279,-382.386,-215.821,0,0,0,
,0.001,-0.123,1.005,-7.203,-352.723,-209.778,0,0,0,
,-0.055,-0.091,0.834,1.22,-283.204,-197.083,0,0,0,
,-0.129,-0.032,0.743,11.047,-192.933,-158.57,0,0,0,
,-0.175,-0.144,0.59,32.714,-61.524,-134.522,0,0,0,
,-0.113,-0.21,0.551,79.406,95.092,-73.487,0,0,0,
,0.078,-0.04,0.65,54.504,211.303,-42.298,0,0,0,
,0.169,0.053,0.787,108.764,236.023,-21.912,0,0,0,
,0.197,0.007,0.952,106.689,244.751,-10.804,0,0,0,
,0.25,-0.026,0.938,32.409,254.821,-8.423,0,0,0,
,0.293,-0.066,0.91,22.888,222.9,-6.226,0,0,0,
,0.276,-0.062,0.911,26.123,153.747,-5.494,0,0,0,
,0.202,-0.14,0.902,45.227,117.248,-24.476,0,0,0,
,0.107,-0.205,0.817,27.16,120.788,-39.917,0,0,0,
,-0.003,-0.194,0.72,9.887,166.687,-56.824,0,0,0,
,-0.067,-0.257,0.729,47.973,210.022,-65.003,0,0,0,
,0.298,0.126,1.81,283.874,58.837,7.568,0,0,0,
,0.083,-0.369,1.551,135.254,-83.985,-32.349,0,0,0,
,-0.189,-0.122,1.207,-109.314,-119.446,-32.349,0,0,0,
,-0.066,-0.414,0.871,-70.435,-101.624,-85.511,0,0,0,
,-0.15,-0.498,0.86,-16.602,-90.088,-79.224,0,0,0,
,-0.182,-0.319,1.018,7.385,-40.772,-86.67,0,0,0,
,-0.145,-0.248,1.195,104.309,-27.1,-85.022,0,0,0,
,-0.15,-0.285,1.196,155.578,-32.959,-90.76,0,0,0,
,-0.186,-0.255,1.043,129.76,-21.79,-101.807,0,0,0,
,-0.205,-0.213,0.804,179.443,25.94,-115.174,0,0,0,
,-0.15,-0.313,0.619,218.505,134.033,-84.717,0,0,0,
,0.038,-0.263,0.71,192.749,254.516,-58.289,0,0,0,
,0.252,-0.263,0.955,169.128,307.129,-39.063,0,0,0,
,0.595,-0.043,1.54,90.026,212.707,-6.348,0,0,0,
,0.793,0.303,1.279,17.639,119.506,28.564,0,0,0,
,0.621,0.149,1.055,-22.583,31.982,38.513,0,0,0,
,0.553,0.014,0.837,-46.326,41.992,38.574,0,0,0,
,0.616,0.006,0.856,-140.076,48.034,72.509,0,0,0,
,0.528,0.169,0.953,-138.55,0.732,74.157,0,0,0,
,0.43,0.194,1.068,-115.54,-46.143,87.463,0,0,0,
,0.378,0.111,1.08,-51.026,-102.845,92.956,0,0,0,
,0.259,-0.087,0.955,-17.273,-129.517,104.065,0,0,0,
,0.194,-0.198,0.84,-46.814,-107.911,114.624,0,0,0,
,0.108,-0.232,0.846,-46.143,-73.426,119.995,0,0,0,
,0.062,-0.153,0.856,-61.524,-18.799,129.394,0,0,0,
,-0.014,-0.152,0.862,-77.332,26.489,141.662,0,0,0,
,0.023,-0.101,0.86,-91.675,87.585,140.686,0,0,0,
,0.074,-0.179,0.875,-91.187,125.671,155.09,0,0,0,
,0.08,-0.151,0.808,-130.677,162.292,191.406,0,0,0,
,0.043,-0.183,0.754,-126.709,198.425,201.965,0,0,0,
,-0.032,-0.298,0.906,-131.043,216.247,187.011,0,0,0,
,-0.012,-0.481,2.024,21.728,12.146,54.138,0,0,0,
,-0.794,-0.833,1.116,265.136,-203.919,-141.541,0,0,0,
,-0.939,-0.491,0.661,10.803,-134.4,-132.63,0,0,0,
,-0.204,-0.483,0.804,130.493,-17.456,-147.706,0,0,0,
,0.126,-0.47,1.094,75.195,-17.64,-83.252,0,0,0,
,0.15,-0.208,1.299,56.823,-45.594,-73.914,0,0,0,
,0.078,-0.325,1.219,98.022,-64.515,-110.413,0,0,0,
,-0.064,-0.362,1.066,67.565,-60.486,-140.809,0,0,0,
,-0.161,-0.226,0.879,86.914,-41.687,-173.035,0,0,0,
,-0.191,-0.234,0.711,181.152,29.663,-180.298,0,0,0,
,-0.018,-0.227,0.763,164.856,114.196,-179.993,0,0,0,
,0.2,-0.155,0.912,125.061,173.706,-164.246,0,0,0,
,0.348,-0.17,1.08,107.971,167.785,-149.231,0,0,0,
,0.547,0.015,1.058,6.347,144.47,-111.268,0,0,0,
,0.77,0.293,1.025,-110.108,118.713,-73.243,0,0,0,
,0.75,0.205,0.924,-158.936,96.984,-45.96,0,0,0,
,0.8,0.223,0.953,-135.743,85.449,-1.221,0,0,0,
,0.684,0.086,1.031,-73.121,9.521,2.502,0,0,0,
,0.367,0.041,1.033,-110.84,-55.237,9.216,0,0,0,
,0.186,0.01,1.037,-38.88,-96.497,-4.883,0,0,0,
,0.058,-0.105,1.084,-28.016,-121.46,-0.123,0,0,0,
,0.078,-0.123,1.026,-26.062,-131.531,1.464,0,0,0,
,0.066,-0.242,0.962,8.422,-125.184,7.995,0,0,0,
,0.004,-0.334,0.846,-29.053,-110.474,5.92,0,0,0,
,-0.032,-0.294,0.783,-68.665,-58.533,14.16,0,0,0,
,-0.053,-0.234,0.89,-79.956,-1.099,32.043,0,0,0,
,-0.036,-0.187,1.001,-87.952,42.236,51.147,0,0,0,
,0.032,-0.133,1.096,-69.825,46.325,68.664,0,0,0,
,0.039,-0.264,1.074,-6.653,30.334,61.889,0,0,0,
,0.044,-0.24,1.001,-12.696,31.127,64.941,0,0,0,
,0.05,-0.266,0.947,3.967,46.508,59.57,0,0,0,
,0.082,-0.188,0.99,5.31,59.631,57.312,0,0,0,
,0.13,-0.155,0.99,-3.235,57.434,43.701,0,0,0,
,0.146,-0.103,0.955,-18.128,56.884,49.56,0,0,0,
,0.155,-0.166,0.919,-26.429,55.297,53.1,0,0,0,
,0.105,-0.132,0.916,-60.181,48.4,55.358,0,0,0,
,0.087,-0.089,0.941,-67.566,47.607,61.889,0,0,0,
,0.104,-0.121,0.981,-35.584,32.409,57.983,0,0,0,
,0.099,-0.167,0.938,-51.453,15.93,52.002,0,0,0,
,0.057,-0.264,0.82,-66.407,6.042,31.127,0,0,0,
,-0.06,-0.347,0.815,-84.351,16.174,-0.367,0,0,0,
,-0.131,-0.312,0.999,-63.416,29.48,-31.678,0,0,0,
,-0.132,-0.243,1.248,-18.433,-0.306,-72.327,0,0,0,
,-0.105,-0.237,1.233,-22.156,-43.396,-94.361,0,0,0,
,0.05,-0.128,1.075,-66.163,-51.819,-71.961,0,0,0,
,0.074,-0.266,1.015,81.665,-67.505,-75.806,0,0,0,
,-0.006,-0.232,1.03,69.458,-54.139,-58.472,0,0,0,
,0.068,-0.191,1.039,90.087,-31.067,-62.439,0,0,0,
,0.073,-0.171,1.048,94.177,-29.236,-70.13,0,0,0,
,0.045,-0.167,1.002,91.919,-15.198,-86.487,0,0,0,
,0.027,-0.137,0.95,96.069,-0.184,-91.248,0,0,0,
,0.009,-0.163,0.956,132.995,13.488,-102.478,0,0,0,
,-0.014,-0.176,0.969,147.094,18.859,-119.873,0,0,0,
,-0.014,-0.263,0.894,127.075,45.349,-151.673,0,0,0,
,0.012,-0.235,0.784,13.427,90.454,-168.641,0,0,0,
,0.098,-0.159,0.842,11.901,122.192,-165.101,0,0,0,
,0.219,-0.141,0.993,35.339,116.455,-148.499,0,0,0,
,0.4,-0.021,1.081,-31.739,102.234,-117.859,0,0,0,
,0.446,0.016,1.039,-72.205,77.88,-119.324,0,0,0,
,0.446,0.065,0.888,-157.227,102.356,-116.822,0,0,0,
,0.513,0.136,0.997,-156.311,81.543,-71.228,0,0,0,
,0.497,0.109,1.088,-102.784,32.104,-67.994,0,0,0,
,0.444,0.171,1.109,-20.142,-31.128,-45.105,0,0,0,
,0.352,0.024,1.051,30.7,-72.693,-44.007,0,0,0,
,0.29,-0.017,0.978,3.356,-73.243,-17.823,0,0,0,
,0.33,-0.09,0.97,51.086,-66.712,-6.165,0,0,0,
,0.266,-0.16,1.06,67.749,-101.136,18.127,0,0,0,
,0.156,-0.166,1.053,26.184,-111.634,27.71,0,0,0,
,0.092,-0.113,1.016,-0.184,-109.498,34.729,0,0,0,
,0.059,-0.141,0.965,1.037,-85.877,28.686,0,0,0,
,0.104,-0.085,0.866,-40.223,-43.702,54.748,0,0,0,
,0.175,-0.11,0.856,-42.725,8.178,76.965,0,0,0,
,0.159,-0.205,0.845,-71.534,41.626,86.731,0,0,0,
,0.161,-0.139,0.876,-171.509,81.604,115.417,0,0,0,
,0.185,-0.062,0.908,-152.588,102.295,118.835,0,0,0,
,0.184,0.006,0.956,-158.204,115.295,146.179,0,0,0,
,0.168,-0.025,0.969,-135.56,111.389,149.719,0,0,0,
,0.121,-0.097,0.914,-125.489,98.327,151.062,0,0,0,
,0.039,-0.167,0.843,-93.323,101.989,133.728,0,0,0,
,-0.067,-0.311,0.993,-41.748,92.834,91.369,0,0,0,
,-0.206,-0.372,1.323,7.568,14.099,27.526,0,0,0,
,-0.575,-0.532,1.154,144.165,-96.741,-84.595,0,0,0,
,-0.696,-0.549,0.921,27.038,-90.149,-118.897,0,0,0,
,-0.234,-0.374,0.846,-8.545,-20.813,-109.803,0,0,0,
,0.023,-0.32,1.041,117.37,-17.273,-79.407,0,0,0,
,0.089,-0.271,1.21,134.155,-19.715,-80.994,0,0,0,
,0.132,-0.264,1.182,107.116,-24.353,-96.192,0,0,0,
,0.102,-0.177,1.117,36.804,-18.982,-114.93,0,0,0,
,0.057,-0.098,1.011,79.528,-11.292,-121.827,0,0,0,
,0.021,-0.073,0.972,115.539,20.202,-128.174,0,0,0,
,0.077,-0.074,1.009,156.25,50.537,-125.855,0,0,0,
,0.095,-0.131,1,176.391,53.039,-124.817,0,0,0,
,0.068,-0.216,0.969,196.838,44.799,-127.564,0,0,0,
,-0.006,-0.284,0.844,152.649,61.584,-146.363,0,0,0,
,0.022,-0.152,0.832,67.077,107.666,-174.073,0,0,0,
,0.154,-0.075,0.881,84.961,110.534,-198.792,0,0,0,
,0.316,-0.009,0.955,44.616,122.497,-204.895,0,0,0,
,0.536,0.008,1.055,-75.074,124.633,-170.96,0,0,0,
,0.727,0.12,1.015,-138.916,112.548,-110.962,0,0,0,
,0.778,0.118,0.927,-129.761,99.731,-49.134,0,0,0,
,0.696,0.163,1.016,-158.936,69.091,-15.381,0,0,0,
,0.573,0.177,1.103,-89.112,8.789,2.929,0,0,0,
,0.358,0.109,1.108,-1.221,-50.171,22.399,0,0,0,
,0.322,0.063,1.092,49.865,-80.872,48.095,0,0,0,
,0.303,0.009,1.032,82.519,-124.329,65.185,0,0,0,
,0.271,-0.082,0.954,68.359,-152.527,82.824,0,0,0,
,0.26,-0.112,0.858,26.855,-137.207,106.628,0,0,0,
,0.2,-0.136,0.787,-41.199,-87.525,113.83,0,0,0,
,0.151,-0.096,0.764,-102.173,-21.912,136.596,0,0,0,
,0.119,-0.085,0.729,-135.743,42.48,161.621,0,0,0,
,0.088,-0.11,0.796,-122.803,93.322,166.137,0,0,0,
,-0.015,-0.266,0.815,-172.73,146.606,154.113,0,0,0,
,-0.034,-0.192,0.939,-189.942,183.96,135.986,0,0,0,
,-0.087,-0.26,1.203,-111.878,147.338,103.027,0,0,0,
,-0.259,-0.353,1.58,-18.921,-9.949,28.991,0,0,0,
,-0.685,-0.719,0.996,124.817,-91.675,-52.735,0,0,0,
,-0.641,-0.661,0.767,-18.067,-22.461,-69.275,0,0,0,
,-0.193,-0.428,0.934,22.766,40.832,-73.426,0,0,0,
,0.068,-0.287,1.131,118.774,30.883,-36.438,0,0,0,
,0.173,-0.218,1.097,40.527,39.306,-27.588,0,0,0,
,0.209,-0.201,1.036,-16.48,52.612,-30.823,0,0,0,
,0.234,0.009,1.07,0.793,47.607,-29.969,0,0,0,
,0.277,0.091,1.066,48.95,51.33,-10.071,0,0,0,
,0.262,-0.006,0.994,79.834,73.547,8.606,0,0,0,
,0.275,0.004,0.947,52.429,88.562,18.31,0,0,0,
,0.255,-0.09,0.942,92.285,86.364,1.709,0,0,0,
,0.149,-0.173,0.974,59.204,58.288,-35.767,0,0,0,
,0.08,-0.081,0.95,22.827,16.174,-92.469,0,0,0,
,0.046,-0.12,0.952,50.903,-26.062,-137.879,0,0,0,
,0.043,-0.187,1.022,74.585,-59.144,-169.922,0,0,0,
,-0.019,-0.219,1.059,115.051,-81.543,-198.304,0,0,0,
,-0.036,-0.232,1.093,112.976,-86.609,-232.361,0,0,0,
,0.057,-0.239,1.043,83.435,-79.102,-263.672,0,0,0,
,0.073,-0.16,0.904,11.474,-38.147,-254.517,0,0,0,
,0.104,-0.17,0.863,100.83,25.94,-213.257,0,0,0,
,0.182,-0.236,0.939,134.094,85.571,-176.026,0,0,0,
,0.292,-0.127,1.055,75.866,107.299,-156.922,0,0,0,
,0.394,-0.065,1.117,3.112,79.895,-152.222,0,0,0,
,0.518,0.083,0.966,-95.398,51.452,-147.095,0,0,0,
,0.555,0.126,0.832,-165.528,31.005,-84.351,0,0,0,
,0.609,0.155,0.828,-33.875,25.207,-50.782,0,0,0,
,0.556,0.027,0.974,20.385,-32.776,-33.265,0,0,0,
,0.393,0.033,1.034,-66.59,-106.019,-49.5,0,0,0,
,0.35,0.179,1.055,-103.882,-166.993,-55.176,0,0,0,
,0.351,0.085,1.002,-39.734,-222.107,-49.805,0,0,0,
,0.353,0.004,0.962,-12.513,-265.381,-28.992,0,0,0,
,0.342,-0.016,0.83,-25.452,-233.094,18.554,0,0,0,
,0.328,-0.09,0.813,-73.304,-154.664,82.885,0,0,0,
,0.275,-0.125,0.791,-50.477,-82.093,124.084,0,0,0,
,0.131,-0.142,0.847,-60.73,-3.052,164.917,0,0,0,
,0.042,-0.065,0.893,-83.252,67.504,186.828,0,0,0,
,-0.046,-0.13,1.041,-2.686,74.707,178.527,0,0,0,
,-0.157,-0.305,1.072,41.076,56.091,146.728,0,0,0,
,-0.226,-0.461,0.891,-51.27,70.8,112.121,0,0,0,
,-0.282,-0.433,0.958,-59.876,92.468,85.388,0,0,0,
,-0.335,-0.38,1.362,87.89,39.611,45.593,0,0,0,
,-0.539,-0.561,1.178,198.547,-5.494,1.892,0,0,0,
,-0.538,-0.557,0.864,-11.475,37.414,3.662,0,0,0,
,-0.154,-0.33,0.854,58.654,93.322,24.414,0,0,0,
,0.038,-0.414,1.011,182.434,120.178,48.706,0,0,0,
,0.097,-0.223,1.144,39.611,140.258,59.021,0,0,0,
,0.216,-0.109,1.139,13.671,147.4,57.312,0,0,0,
,0.261,-0.136,1.132,85.388,132.69,68.542,0,0,0,
,0.205,-0.123,1.05,133.545,115.966,70.373,0,0,0,
,0.206,-0.005,0.928,78.369,122.009,67.504,0,0,0,
,0.274,0.018,0.835,72.57,130.859,74.462,0,0,0,
,0.346,-0.052,0.87,48.523,141.479,90.271,0,0,0,
,0.329,-0.058,0.971,5.065,130.676,91.247,0,0,0,
,0.241,-0.101,0.976,3.845,103.881,58.044,0,0,0,
,0.135,-0.178,1,-6.653,77.087,21.423,0,0,0,
,0.064,-0.123,0.95,-35.889,50.659,-20.691,0,0,0,
,0.095,-0.194,1.037,24.231,22.033,-54.749,0,0,0,
,0.151,-0.191,1.037,28.259,-14.71,-75.623,0,0,0,
,0.129,-0.125,1.028,50.781,-28.809,-96.68,0,0,0,
,0.185,-0.111,0.936,41.809,-30.03,-110.535,0,0,0,
,0.17,-0.2,0.916,60.669,-13.977,-115.54,0,0,0,
,0.154,-0.235,0.989,58.044,-2.808,-126.099,0,0,0,
,0.115,-0.22,1.081,56.091,-7.142,-151.978,0,0,0,
,0.073,-0.138,1.085,63.171,-33.02,-181.946,0,0,0,
,0.064,-0.2,1.032,100.219,-39.002,-206.36,0,0,0,
,0.138,-0.259,1.025,102.478,-27.588,-216.431,0,0,0,
,0.205,-0.261,1.058,70.495,-29.297,-212.281,0,0,0,
,0.184,-0.2,1.002,-7.019,-21.119,-214.478,0,0,0,
,0.269,-0.122,0.893,-93.506,-4.883,-202.576,0,0,0,
,0.359,0.017,0.827,-201.05,3.418,-180.359,0,0,0,
,0.452,0.082,0.838,-261.963,-3.846,-154.175,0,0,0,
,0.519,0.114,0.877,-234.986,-35.34,-140.076,0,0,0,
,0.504,0.065,0.882,-221.009,-82.825,-133.057,0,0,0,
,0.405,0.072,0.918,-241.028,-143.799,-126.954,0,0,0,
,0.382,0.215,0.958,-203.98,-185.975,-88.99,0,0,0,
,0.407,0.17,1.022,-57.984,-225.342,-32.959,0,0,0,
,0.432,0.012,0.983,20.935,-223.877,4.943,0,0,0,
,0.389,0.001,0.908,-3.052,-199.524,57.251,0,0,0,
,0.278,0.014,0.858,24.719,-162.11,99.304,0,0,0,
,0.173,-0.016,0.846,69.58,-117.432,130.249,0,0,0,
,0.036,-0.137,0.925,123.657,-79.163,149.414,0,0,0,
,-0.024,-0.188,1.038,78.247,-40.65,160.4,0,0,0,
,-0.05,-0.228,1.113,74.462,-23.133,144.104,0,0,0,
,-0.084,-0.234,0.883,-64.148,28.991,130.554,0,0,0,
,-0.107,-0.247,0.796,-148.56,93.078,131.469,0,0,0,
,-0.029,-0.314,1.265,-17.456,53.527,145.507,0,0,0,
,-0.238,-0.577,1.451,401.184,-92.225,59.875,0,0,0,
,-0.514,-0.638,1.119,113.098,-53.406,43.64,0,0,0,
,-0.441,-0.492,0.88,-209.595,29.907,0.549,0,0,0,
,-0.455,-0.436,0.87,-76.6,52.063,-1.648,0,0,0,
,-0.375,-0.553,0.823,23.315,98.755,0.793,0,0,0,
,-0.179,-0.409,0.945,92.102,147.4,20.69,0,0,0,
,-0.088,-0.369,1.043,127.258,170.471,33.02,0,0,0,
,0.127,-0.099,1.064,82.58,191.406,65.368,0,0,0,
,0.277,0.004,0.904,12.39,205.749,71.472,0,0,0,
,0.185,-0.123,0.71,38.818,222.168,59.814,0,0,0,
,0.401,-0.074,0.909,75.195,226.501,49.804,0,0,0,
,0.38,-0.034,1.203,67.81,172.302,48.217,0,0,0,
,0.3,0.013,1.252,16.235,120.544,29.663,0,0,0,
,0.269,0.02,0.991,-49.561,70.617,13.488,0,0,0,
,0.153,-0.053,0.703,-101.685,65.124,1.586,0,0,0,
,0.175,-0.126,0.776,-62.317,79.956,-10.865,0,0,0,
,0.199,-0.152,1.054,-49.134,78.064,-32.776,0,0,0,
,0.181,-0.111,1.146,-98.206,52.551,-60.12,0,0,0,
,0.172,-0.133,1.063,-86.365,25.512,-70.252,0,0,0,
,0.13,-0.087,0.953,-53.162,7.568,-81.665,0,0,0,
,0.135,-0.051,0.968,21.057,-1.038,-76.722,0,0,0,
,0.177,-0.197,1.079,96.679,-15.442,-82.825,0,0,0,
,0.107,-0.179,1.067,66.894,-33.387,-100.342,0,0,0,
,0.057,-0.16,1.072,75.195,-39.429,-126.954,0,0,0,
,0.08,-0.13,1.012,40.954,-38.819,-163.636,0,0,0,
,0.145,-0.121,1.041,89.416,-54.444,-193.543,0,0,0,
,0.176,-0.082,1.045,101.745,-78.125,-219.361,0,0,0,
,0.14,-0.116,0.988,87.951,-68.36,-230.469,0,0,0,
,0.152,-0.185,0.987,37.78,-34.913,-235.291,0,0,0,
,0.17,-0.162,1.013,-19.715,-20.813,-255.372,0,0,0,
,0.241,-0.079,0.987,-79.59,-21.546,-294.922,0,0,0,
,0.436,-0.011,1.013,-232.605,-27.894,-306.092,0,0,0,
,0.55,0.209,0.944,-389.832,-71.778,-282.471,0,0,0,
,0.577,0.377,0.82,-349.854,-144.898,-229.065,0,0,0,
,0.54,0.179,0.755,-227.967,-183.716,-170.899,0,0,0,
,0.482,0.135,0.808,-193.848,-196.167,-115.296,0,0,0,
,0.405,0.121,0.913,-206.116,-223.816,-81.971,0,0,0,
,0.388,0.275,1.061,-169.129,-264.039,-24.72,0,0,0,
,0.372,0.232,0.909,-152.1,-272.4,-22.156,0,0,0,
,0.158,0.192,0.82,-151.673,-264.039,28.137,0,0,0,
,0.079,-0.032,0.766,-97.352,-177.979,45.776,0,0,0,
,0.009,-0.075,0.916,-56.275,-130.066,152.343,0,0,0,
,0.005,-0.093,1.411,102.783,-165.345,149.902,0,0,0,
,-0.101,-0.192,1.423,151.611,-200.501,141.723,0,0,0,
,-0.282,-0.109,1.226,-67.444,-204.346,118.469,0,0,0,
,-0.11,-0.458,0.964,241.699,-120.118,134.582,0,0,0,
,-0.395,-0.736,1.026,239.807,-127.015,95.703,0,0,0,
,-0.487,-0.495,1.01,-219.361,22.827,25.451,0,0,0,
,-0.329,-0.144,1.008,-395.63,91.552,-5.127,0,0,0,
,-0.197,-0.04,0.996,-316.773,89.233,-31.25,0,0,0,
,0.005,-0.119,0.817,-250.672,102.905,-48.523,0,0,0,
,0.101,-0.182,0.642,-227.906,147.888,-45.289,0,0,0,
,0.115,-0.17,0.786,-53.956,162.109,-55.359,0,0,0,
,0.024,-0.207,1.086,-16.358,162.475,-57.923,0,0,0,
,0.009,0.193,1.351,-150.269,114.196,-80.384,0,0,0,
,0.104,0.377,1.503,157.104,-37.598,-86.914,0,0,0,
,-0.026,-0.199,1.201,269.592,-98.755,-116.028,0,0,0,
,0.056,-0.012,0.924,45.593,-72.632,-107.239,0,0,0,
,0.066,-0.02,1.05,356.872,-129.273,-56.336,0,0,0,
,-0.112,-0.159,1.151,273.254,-119.385,-81.849,0,0,0,
,-0.073,-0.287,0.775,196.472,-35.828,-115.601,0,0,0,
,-0.02,-0.25,0.847,225.647,-23.255,-144.349,0,0,0,
,0.004,-0.182,0.982,285.766,-31.678,-162.171,0,0,0,
,0.028,-0.204,1.032,266.479,-20.081,-154.114,0,0,0,
,0.014,-0.178,0.932,37.719,60.669,-122.376,0,0,0,
,0.018,-0.169,1.032,23.01,60.241,-118.409,0,0,0,
,0.003,-0.024,1.088,-13.062,41.931,-141.602,0,0,0,
,-0.004,-0.022,1.026,8.789,27.404,-148.621,0,0,0,
,0.029,-0.01,1.065,31.311,18.737,-139.405,0,0,0,
,0.048,-0.095,1.087,26.123,-14.771,-138.001,0,0,0,
,0.037,-0.242,0.984,-74.097,-13.123,-154.236,0,0,0,
,0.006,-0.225,1.034,-141.419,-6.165,-180.664,0,0,0,
,-0.051,-0.102,0.999,-129.639,-16.297,-233.155,0,0,0,
,-0.053,0.022,0.985,1.403,-12.269,-233.521,0,0,0,
,0.056,-0.187,1.08,36.499,-2.32,-209.229,0,0,0,
,0.101,-0.163,1.115,-126.77,17.211,-194.275,0,0,0,
,0.206,0.174,0.915,-330.445,5.249,-138.306,0,0,0,
,0.225,0.5,0.825,-211.67,-19.776,-65.735,0,0,0,
,0.307,0.481,0.9,11.657,-10.01,51.086,0,0,0,
,0.285,0.255,1.081,44.555,-5.921,152.649,0,0,0,
,0.214,0.14,0.908,-167.481,35.156,259.887,0,0,0,
,0.138,0.156,0.791,-125,81.787,307.556,0,0,0,
,0.025,-0.009,0.71,-61.585,113.403,342.407,0,0,0,
,-0.013,0.111,1.475,305.542,-29.297,426.208,0,0,0,
,-0.172,-0.387,1.442,337.524,-113.465,343.628,0,0,0,
,-0.405,-0.554,1.243,-131.104,-65.613,294.494,0,0,0,
,-0.151,-0.079,1.016,-174.622,-53.894,275.39,0,0,0,
,-0.162,-0.121,0.895,135.254,-109.559,283.569,0,0,0,
,-0.165,-0.355,0.802,199.463,-65.064,296.569,0,0,0,
,-0.093,-0.445,0.759,153.625,-3.113,287.109,0,0,0,
,-0.055,-0.472,0.914,134.216,62.866,277.832,0,0,0,
,-0.032,-0.503,0.994,146.85,104.248,233.154,0,0,0,
,-0.091,-0.516,0.936,44.433,128.479,163.696,0,0,0,
,-0.127,-0.415,0.784,-53.956,151.916,100.097,0,0,0,
,-0.207,-0.271,0.871,13.122,168.151,92.834,0,0,0,
,-0.255,-0.172,0.978,92.59,186.889,43.64,0,0,0,
,-0.14,-0.161,1.093,-1.404,201.721,34.545,0,0,0,
,-0.009,-0.024,1.035,-37.964,178.466,14.892,0,0,0,
,0.029,-0.175,0.895,34.912,148.376,-17.945,0,0,0,
,-0.007,-0.196,0.784,24.841,145.935,-59.998,0,0,0,
,0.015,-0.077,0.882,108.581,152.71,-96.863,0,0,0,
,0.018,-0.064,1.056,217.529,129.821,-143.067,0,0,0,
,0.093,0.098,1.2,211.181,63.964,-196.289,0,0,0,
,0.067,-0.126,1.187,318.115,12.573,-206.482,0,0,0,
,0.066,-0.158,1.103,192.138,5.249,-224.549,0,0,0,
,0.086,-0.131,0.954,82.153,15.808,-245.911,0,0,0,
,0.11,-0.128,0.928,43.029,33.142,-246.338,0,0,0,
,0.119,-0.058,0.93,-13.672,48.217,-237.793,0,0,0,
,0.182,-0.07,0.997,32.775,47.424,-229.126,0,0,0,
,0.176,-0.101,1.023,14.77,54.443,-217.774,0,0,0,
,0.12,-0.099,0.989,-82.642,73.974,-223.206,0,0,0,
,0.124,-0.006,1.067,-101.624,84.472,-212.83,0,0,0,
,0.147,0.036,1.157,-42.237,61.584,-185.669,0,0,0,
,0.191,-0.005,1.149,-29.297,55.481,-150.574,0,0,0,
,0.251,-0.056,1.073,-25.025,39.856,-128.479,0,0,0,
,0.219,-0.125,1.049,-28.748,14.099,-117.005,0,0,0,
,0.152,-0.216,1.084,-112.732,9.582,-113.099,0,0,0,
,0.133,-0.132,1.029,-231.08,8.544,-109.375,0,0,0,
,0.137,0.113,0.918,-299.134,-9.888,-82.886,0,0,0,
,0.147,0.183,0.853,-87.525,-44.861,-31.8,0,0,0,
,0.187,-0.099,0.853,-3.54,-15.015,24.414,0,0,0,
,0.326,-0.071,0.927,-15.442,7.69,107.422,0,0,0,
,0.385,-0.052,0.975,57.983,-3.113,178.955,0,0,0,
,0.31,-0.074,0.885,62.439,10.07,223.999,0,0,0,
,0.203,-0.04,0.969,42.419,31.738,294.616,0,0,0,
,0.108,-0.021,0.909,84.961,121.704,338.134,0,0,0,
,0.084,-0.025,1.065,287.292,117.248,382.446,0,0,0,
,-0.069,-0.277,1.053,239.746,105.835,342.834,0,0,0,
,-0.211,-0.229,1.084,126.403,129.882,362.06,0,0,0,
,-0.213,-0.304,1.036,183.654,166.565,340.515,0,0,0,
,-0.231,-0.494,1.023,239.563,150.817,309.326,0,0,0,
,-0.199,-0.317,0.808,238.464,225.952,324.829,0,0,0,
,-0.079,-0.286,1.072,561.157,204.712,304.199,0,0,0,
,-0.184,-0.756,1.226,409.301,141.418,297.729,0,0,0,
,-0.326,-0.205,0.887,189.758,147.216,228.759,0,0,0,
,-0.229,-0.074,0.86,270.568,187.561,280.212,0,0,0,
,-0.081,-0.159,1.16,428.711,161.316,294.677,0,0,0,
,0.063,-0.329,1.197,407.898,120.605,277.038,0,0,0,
,0.059,-0.152,1.136,305.725,56.091,286.377,0,0,0,
,-0.023,-0.218,1.005,334.716,22.277,258.3,0,0,0,
,-0.067,-0.234,1.004,339.904,23.559,269.104,0,0,0,
,0.003,-0.24,1.053,392.639,34.362,280.761,0,0,0,
,0.113,-0.326,1.08,407.287,55.664,268.921,0,0,0,
,0.172,-0.204,0.925,315.002,93.2,277.71,0,0,0,
,0.198,-0.062,0.846,304.504,133.422,295.654,0,0,0,
,0.221,-0.149,0.853,385.254,168.09,303.222,0,0,0,
,0.281,-0.253,1.037,447.143,179.504,290.344,0,0,0,
,0.346,-0.196,1.181,437.378,147.155,263.916,0,0,0,
,0.363,-0.222,1.102,370.178,82.641,241.027,0,0,0,
,0.295,-0.211,0.935,292.175,55.908,237.365,0,0,0,
,0.293,-0.244,0.906,329.834,47.424,209.228,0,0,0,
,0.291,-0.093,0.912,315.49,32.348,188.049,0,0,0,
,0.314,-0.039,0.796,338.867,37.414,152.771,0,0,0,
,0.435,-0.366,0.883,238.464,27.465,124.389,0,0,0,
,0.412,-0.352,0.854,212.768,-25.757,87.097,0,0,0,
,0.304,-0.26,0.79,134.582,-44.19,32.775,0,0,0,
,0.274,-0.105,0.592,132.019,-25.147,9.521,0,0,0,
,0.28,-0.357,0.605,69.702,32.836,-12.818,0,0,0,
,0.456,-0.407,0.769,-43.213,81.848,-33.081,0,0,0,
,0.454,-0.376,0.956,-92.835,42.053,-77.637,0,0,0,
,0.387,-0.218,1.008,-117.92,-13.672,-120.057,0,0,0,
,0.325,-0.225,0.968,-71.351,-83.802,-168.641,0,0,0,
,0.241,-0.232,0.85,-61.768,-110.352,-203.431,0,0,0,
,0.252,-0.291,0.834,-66.712,-106.69,-232.789,0,0,0,
,0.338,-0.437,0.888,-60.486,-89.234,-251.77,0,0,0,
,0.428,-0.432,0.99,-112,-91.187,-256.775,0,0,0,
,0.38,-0.39,0.938,-169.312,-115.906,-268.738,0,0,0,
,0.29,-0.35,0.778,-258.545,-105.774,-280.213,0,0,0,
,0.314,-0.24,0.703,-265.442,-59.937,-273.743,0,0,0,
,0.421,-0.422,0.757,-213.44,-22.095,-278.992,0,0,0,
,0.499,-0.484,0.886,-234.62,-16.785,-289.368,0,0,0,
,0.548,-0.433,0.93,-303.833,-46.936,-309.082,0,0,0,
,0.502,-0.124,0.905,-332.337,-74.707,-292.603,0,0,0,
,0.455,-0.037,0.896,-180.298,-47.73,-206.971,0,0,0,
,0.602,-0.389,1.046,-36.194,-39.551,-152.405,0,0,0,
,0.598,-0.406,1.029,-42.054,-48.951,-85.083,0,0,0,
,0.519,-0.332,0.902,-24.537,-36.683,-38.819,0,0,0,
,0.392,-0.278,0.808,-61.89,-14.954,-7.142,0,0,0,
,0.314,-0.295,0.905,3.173,21.301,21.85,0,0,0,
,0.236,-0.413,1.042,35.339,26.062,31.494,0,0,0,
,0.078,-0.313,1.003,7.873,46.325,42.907,0,0,0,
,-0.027,-0.32,0.958,-29.175,81.543,51.025,0,0,0,
,-0.118,-0.35,0.839,-48.706,129.943,62.866,0,0,0,
,-0.231,-0.422,0.802,-47.425,169.677,65.063,0,0,0,
,-0.249,-0.441,0.792,-75.867,237.06,64.209,0,0,0,
,-0.256,-0.502,1.027,-41.565,230.957,50.354,0,0,0,
,-0.253,-0.413,1.114,-39.429,198.425,37.414,0,0,0,
,-0.278,-0.466,1.189,-3.54,132.019,28.564,0,0,0,
,-0.263,-0.578,1.096,-25.513,64.148,1.709,0,0,0,
,-0.189,-0.337,0.918,1.159,46.691,-3.907,0,0,0,
,-0.216,-0.482,0.915,57.8,47.119,5.249,0,0,0,
,-0.058,-0.366,1.036,54.321,76.538,25.146,0,0,0,
,0.169,-0.308,0.938,179.87,39.062,110.839,0,0,0,
,0.173,-0.296,0.884,198.486,73.852,126.159,0,0,0,
,0.216,-0.26,0.925,191.589,95.153,131.775,0,0,0,
,0.348,-0.231,1.15,192.321,98.205,140.319,0,0,0,
,0.286,-0.322,1.052,245.422,44.067,128.234,0,0,0,
,0.253,-0.213,0.895,260.742,41.565,128.601,0,0,0,
,0.261,-0.451,0.741,192.077,65.246,118.286,0,0,0,
,0.311,-0.308,0.753,134.826,96.862,99.609,0,0,0,
,0.393,-0.322,0.891,134.094,107.91,88.012,0,0,0,
,0.453,-0.239,0.929,144.897,101.135,77.697,0,0,0,
,0.457,-0.314,0.813,161.682,98.449,70.068,0,0,0,
,0.488,-0.346,0.78,146.484,123.596,75.805,0,0,0,
,0.512,-0.406,0.82,82.092,122.375,58.41,0,0,0,
,0.414,-0.295,0.853,38.147,106.933,29.907,0,0,0,
,0.401,-0.275,0.884,44.86,92.346,6.042,0,0,0,
,0.397,-0.302,0.855,60.485,86.547,-18.555,0,0,0,
,0.369,-0.238,0.867,84.655,75.378,-43.274,0,0,0,
,0.384,-0.382,0.972,42.724,43.518,-79.468,0,0,0,
,0.332,-0.285,0.906,1.892,-17.884,-129.212,0,0,0,
,0.243,-0.275,0.846,-28.077,-61.28,-175.293,0,0,0,
,0.213,-0.265,0.811,-42.115,-82.154,-212.769,0,0,0,
,0.247,-0.355,0.804,-22.95,-81.971,-247.437,0,0,0,
,0.313,-0.26,0.882,-68.055,-77.271,-261.597,0,0,0,
,0.346,-0.558,0.954,-159.668,-104.248,-323.975,0,0,0,
,0.379,-0.331,0.726,-315.369,-112.793,-336.304,0,0,0,
,0.485,-0.346,0.552,-283.448,-77.576,-341.797,0,0,0,
,0.676,-0.277,0.672,-204.163,1.77,-278.565,0,0,0,
,0.828,-0.372,0.917,-126.038,-13.306,-228.089,0,0,0,
,0.781,-0.285,0.987,-165.65,-61.463,-178.589,0,0,0,
,0.749,-0.135,1.036,-199.28,-103.577,-137.879,0,0,0,
,0.716,-0.184,1.05,-105.469,-140.198,-69.397,0,0,0,
,0.623,-0.017,0.879,-75.318,-130.677,17.028,0,0,0,
,0.577,-0.036,0.651,-72.571,-48.829,105.407,0,0,0,
,0.499,-0.306,0.843,-9.095,-21.851,154.724,0,0,0,
,0.432,-0.44,1.225,11.535,-86.121,146.118,0,0,0,
,0.151,-0.313,0.971,-89.051,-113.343,110.778,0,0,0,
,0.048,-0.222,0.788,-140.87,-32.715,120.422,0,0,0,
,0.098,-0.405,0.658,-131.531,30.578,115.844,0,0,0,
,-0.029,-0.479,0.745,-113.16,55.358,75.256,0,0,0,
,-0.046,-0.34,1.026,-112.305,107.483,53.1,0,0,0,
,0.065,-0.303,1.274,-84.656,61.828,33.447,0,0,0,
,-0.009,-0.349,1.223,-98.694,-19.776,9.765,0,0,0,
,-0.034,-0.358,0.898,-114.136,-29.908,-8.606,0,0,0,
,-0.057,-0.523,0.725,-89.295,-5.616,-29.358,0,0,0,
,-0.01,-0.428,0.723,-133.301,55.664,-29.297,0,0,0,
,0.043,-0.565,0.945,-124.756,83.129,-34.546,0,0,0,
,0.1,-0.359,1.082,-175.354,66.101,-51.087,0,0,0,
,0.14,-0.17,1.046,-176.514,39.062,-58.228,0,0,0,
,0.169,-0.209,1.035,-109.07,20.141,-45.899,0,0,0,
,0.245,-0.334,0.931,-91.553,13.427,-30.518,0,0,0,
,0.286,-0.292,0.945,-69.458,39.611,5.676,0,0,0,
,0.279,-0.187,0.956,-118.897,58.349,22.399,0,0,0,
,0.297,-0.274,0.937,-148.133,76.538,33.996,0,0,0,
,0.219,-0.179,0.924,-113.038,70.739,30.944,0,0,0,
,0.182,-0.344,0.967,-45.838,53.161,16.784,0,0,0,
,-0.122,-0.468,0.933,-12.391,15.014,-34.79,0,0,0,
,-0.214,-0.499,1.043,-9.705,8.422,-66.773,0,0,0,
,-0.166,-0.44,1.186,-68.665,-15.259,-80.323,0,0,0,
,0.156,-0.473,0.974,61.035,-44.495,-105.957,0,0,0,
,0.13,-0.425,0.906,69.641,-30.64,-117.31,0,0,0,
,0.094,-0.285,0.957,101.928,-26.856,-117.92,0,0,0,
,0.053,-0.229,1.004,175.109,-52.43,-132.081,0,0,0,
,-0.007,-0.283,0.927,232.483,-75.196,-147.828,0,0,0,
,-0.009,-0.321,0.847,218.505,-62.867,-167.237,0,0,0,
,0.026,-0.413,0.807,161.193,-31.8,-161.255,0,0,0,
,0.186,-0.387,0.924,128.479,-17.029,-156.922,0,0,0,
,0.223,-0.353,0.961,128.845,-50.477,-171.326,0,0,0,
,0.245,-0.218,0.878,110.412,-40.65,-176.026,0,0,0,
,0.3,-0.169,0.81,85.998,-32.227,-166.871,0,0,0,
,0.358,-0.245,0.929,97.656,-10.437,-165.589,0,0,0,
,0.418,-0.203,1.059,103.149,-17.395,-164.49,0,0,0,
,0.433,-0.165,1.034,54.443,-22.339,-160.706,0,0,0,
,0.483,-0.229,0.881,-0.245,4.516,-152.405,0,0,0,
,0.551,-0.145,0.781,-28.87,28.259,-123.719,0,0,0,
,0.557,-0.077,0.875,1.525,39.672,-82.093,0,0,0,
,0.588,-0.151,0.999,30.334,42.602,-42.054,0,0,0,
,0.568,-0.152,1.025,12.878,16.845,-21.668,0,0,0,
,0.489,-0.084,0.923,40.466,-12.635,-15.076,0,0,0,
,0.314,-0.203,0.84,81.848,-40.162,-15.198,0,0,0,
,0.316,-0.236,0.958,32.714,-13.306,2.136,0,0,0,
,0.366,-0.245,1.032,22.705,-45.594,1.281,0,0,0,
,0.298,-0.209,0.993,-57.618,-64.087,7.324,0,0,0,
,0.359,-0.162,0.955,-66.712,-61.402,13.122,0,0,0,
,0.341,-0.217,0.937,-43.58,-75.623,33.325,0,0,0,
,0.274,-0.37,0.86,-67.322,-69.581,41.381,0,0,0,
,0.221,-0.359,0.837,-97.657,-36.255,62.683,0,0,0,
,0.172,-0.323,0.956,-88.807,14.709,78.369,0,0,0,
,0.104,-0.239,1.031,-99.61,15.625,84.228,0,0,0,
,0.056,-0.227,0.99,-97.596,34.79,92.407,0,0,0,
,0.057,-0.339,0.92,-10.865,45.105,79.528,0,0,0,
,0.076,-0.491,0.891,-9.827,56.945,87.036,0,0,0,
,0.044,-0.495,0.929,-21.729,61.584,73.059,0,0,0,
,0.039,-0.395,1.001,-57.068,67.077,53.222,0,0,0,
,0.086,-0.356,1.037,-31.739,46.752,35.461,0,0,0,
,0.125,-0.271,0.967,-57.068,29.541,29.174,0,0,0,
,0.179,-0.251,0.893,19.836,22.338,39.245,0,0,0,
,0.191,-0.357,0.912,61.34,15.38,54.382,0,0,0,
,0.169,-0.418,0.959,58.227,18.066,51.879,0,0,0,
,0.135,-0.356,0.961,-11.536,27.954,45.349,0,0,0,
,0.133,-0.296,0.92,-38.147,45.776,45.471,0,0,0,
,0.161,-0.344,0.906,-23.194,49.011,42.541,0,0,0,
,0.1,-0.405,0.898,-61.524,38.269,23.01,0,0,0,
,0.067,-0.289,0.91,-12.146,29.296,10.131,0,0,0,
,0.007,-0.387,0.985,43.09,4.333,-2.625,0,0,0,
,-0.002,-0.422,0.953,16.174,-1.831,-28.992,0,0,0,
,0.002,-0.387,0.902,3.173,-14.1,-47.913,0,0,0,
,0.037,-0.457,0.883,22.644,8.544,-59.388,0,0,0,
,0.068,-0.454,0.904,12.939,11.352,-72.815,0,0,0,
,0.035,-0.391,0.962,59.509,-2.381,-103.394,0,0,0,
,-0.028,-0.376,1,85.022,-10.621,-128.113,0,0,0,
,-0.061,-0.348,0.956,103.027,-8.973,-157.288,0,0,0,
,0.081,-0.314,0.901,128.051,9.46,-200.562,0,0,0,
,0.236,-0.418,0.915,64.636,36.438,-201.416,0,0,0,
,0.197,-0.278,0.879,81.359,12.268,-211.548,0,0,0,
,0.238,-0.255,0.819,33.203,57.678,-214.783,0,0,0,
,0.42,-0.23,0.972,36.926,79.773,-197.449,0,0,0,
,0.629,-0.042,0.977,13.244,16.601,-120.362,0,0,0,
,0.701,-0.113,0.963,4.943,11.108,-79.529,0,0,0,
,0.643,-0.034,0.897,-17.884,-5.494,-35.767,0,0,0,
,0.595,-0.018,0.808,25.39,-0.672,-4.7,0,0,0,
,0.444,-0.235,0.832,72.265,-26.368,-3.968,0,0,0,
,0.46,-0.144,0.963,-45.289,2.563,13.366,0,0,0,
,0.49,-0.187,0.962,-72.998,-46.021,10.986,0,0,0,
,0.387,-0.122,0.878,-142.151,-55.97,20.935,0,0,0,
,0.403,-0.186,0.874,-144.532,-48.523,27.343,0,0,0,
,0.365,-0.184,0.952,-141.968,-82.52,19.653,0,0,0,
,0.286,-0.265,0.952,-147.278,-107.239,8.85,0,0,0,
,0.215,-0.295,0.962,-184.51,-108.46,13.671,0,0,0,
,0.157,-0.268,0.975,-191.956,-84.29,19.714,0,0,0,
,0.132,-0.23,0.989,-208.252,-47.791,39.123,0,0,0,
,0.138,-0.214,1.002,-161.316,-25.086,51.635,0,0,0,
,0.136,-0.276,0.938,-126.099,7.507,65.734,0,0,0,
,0.168,-0.295,0.961,-103.455,34.668,79.101,0,0,0,
,0.254,-0.346,0.959,-155.152,62.561,97.839,0,0,0,
,0.177,-0.304,1.137,-82.947,6.713,92.041,0,0,0,
,-0.112,-0.393,1.028,-30.579,-36.744,44.25,0,0,0,
,-0.093,-0.273,0.851,-150.147,56.945,68.908,0,0,0,
,0.118,-0.27,0.881,-81.788,57.556,86.731,0,0,0,
,-0.034,-0.476,1.088,26.123,-3.235,59.509,0,0,0,
,-0.271,-0.512,0.815,-12.391,35.339,22.461,0,0,0,
,-0.266,-0.508,0.832,-57.862,87.097,23.437,0,0,0,
,-0.19,-0.563,1.051,98.205,59.082,-16.907,0,0,0,
,-0.277,-0.6,1.243,98.51,-10.437,-68.909,0,0,0,
,-0.206,-0.41,1.141,25.146,-49.866,-105.469,0,0,0,
,-0.076,-0.296,0.979,9.033,-61.158,-113.465,0,0,0,
,0.049,-0.313,1.004,147.338,-85.083,-110.779,0,0,0,
,0.013,-0.49,1.015,164.367,-108.155,-144.654,0,0,0,
,-0.139,-0.367,0.846,79.101,-69.214,-152.71,0,0,0,
,-0.091,-0.251,0.805,79.162,-2.869,-139.588,0,0,0,
,0.148,-0.248,0.979,126.709,43.64,-114.991,0,0,0,
,0.243,-0.376,0.91,120.056,67.199,-105.835,0,0,0,
,0.13,-0.423,0.725,59.448,108.947,-88.562,0,0,0,
,0.167,-0.382,0.79,55.786,165.954,-86.304,0,0,0,
,0.164,-0.203,1.064,112.243,131.408,-93.384,0,0,0,
,0.083,-0.153,1.058,141.113,119.567,-125.306,0,0,0,
,0.201,-0.026,1.107,118.042,77.697,-130.494,0,0,0,
,0.133,-0.369,0.9,140.258,58.593,-153.748,0,0,0,
,0.115,-0.356,0.799,47.79,92.224,-172.059,0,0,0,
,0.282,-0.34,0.989,78.064,103.454,-189.515,0,0,0,
,0.383,-0.28,1.062,69.274,53.894,-233.582,0,0,0,
,0.437,-0.26,1.021,-26.856,33.203,-264.954,0,0,0,
,0.675,0.051,0.881,-165.223,45.959,-246.399,0,0,0,
,0.638,0.114,0.777,-39.307,18.127,-208.069,0,0,0,
,0.711,-0.095,0.874,-49.866,73.12,-144.532,0,0,0,
,0.859,-0.063,0.917,-75.806,62.988,-84.961,0,0,0,
,0.771,-0.002,0.914,-73.548,15.014,-22.644,0,0,0,
,0.578,-0.084,0.889,62.194,-32.593,3.662,0,0,0,
,0.534,-0.05,1.037,-21.607,-27.527,50.72,0,0,0,
,0.512,-0.137,0.903,-45.716,-79.773,74.646,0,0,0,
,0.444,-0.233,0.805,-110.413,-71.351,98.022,0,0,0,
,0.433,-0.169,0.798,-172.852,-48.462,119.812,0,0,0,
,0.334,-0.161,0.898,-137.207,-45.411,126.281,0,0,0,
,0.332,-0.141,1.032,-135.621,-36.011,126.831,0,0,0,
,0.209,-0.242,1.13,-113.404,-83.252,129.333,0,0,0,
,0.141,-0.25,1.015,-179.322,-65.43,123.962,0,0,0,
,0.086,-0.254,0.937,-167.786,-44.556,125.061,0,0,0,
,0.033,-0.274,0.943,-151.123,-7.569,130.493,0,0,0,
,0.026,-0.239,0.956,-115.906,27.587,128.845,0,0,0,
,0.034,-0.224,0.878,-121.644,61.401,135.192,0,0,0,
,0.002,-0.388,0.988,-54.627,61.279,161.621,0,0,0,
,0.037,-0.476,1.079,-85.877,55.725,108.825,0,0,0,
,-0.152,-0.445,1.077,-24.964,7.507,78.491,0,0,0,
,-0.272,-0.483,0.946,-86.426,45.532,55.053,0,0,0,
,-0.19,-0.379,0.891,-65.735,42.053,37.292,0,0,0,
,-0.289,-0.511,0.93,64.331,0.366,1.525,0,0,0,
,-0.343,-0.577,1.003,58.349,-1.099,-34.913,0,0,0,
,-0.23,-0.424,1.031,-28.565,4.333,-62.806,0,0,0,
,-0.08,-0.474,1.055,27.16,-22.278,-89.478,0,0,0,
,-0.038,-0.45,1.01,17.517,-52.613,-145.63,0,0,0,
,-0.078,-0.313,0.956,13.427,-63.355,-190.003,0,0,0,
,-0.072,-0.238,0.91,56.884,-52.979,-202.027,0,0,0,
,0.009,-0.277,0.974,98.816,-36.194,-202.149,0,0,0,
,0.042,-0.33,1.026,154.052,-38.88,-197.083,0,0,0,
,0.055,-0.293,1.003,111.816,-26.795,-191.712,0,0,0,
,0.06,-0.378,0.925,168.701,19.958,-201.966,0,0,0,
,0.135,-0.361,0.884,94.055,54.26,-206.849,0,0,0,
,0.063,-0.41,0.811,19.592,124.878,-221.192,0,0,0,
,0.213,-0.055,0.962,-25.696,168.64,-213.379,0,0,0,
,0.446,-0.06,1.134,73.303,119.567,-227.295,0,0,0,
,0.388,-0.126,1.048,74.279,76.538,-239.624,0,0,0,
,0.444,-0.057,0.934,35.4,74.035,-244.263,0,0,0,
,0.424,-0.165,0.953,69.458,80.566,-221.985,0,0,0,
,0.579,-0.13,0.966,10.864,83.129,-197.876,0,0,0,
,0.499,-0.098,0.874,-39.856,53.222,-210.816,0,0,0,
,0.526,0.029,0.898,-71.717,69.702,-191.04,0,0,0,
,0.6,0.038,0.913,-104.554,61.889,-163.269,0,0,0,
,0.624,0.032,0.987,-36.011,-35.767,-123.841,0,0,0,
,0.555,0.043,0.926,-73.243,-62.317,-84.229,0,0,0,
,0.523,0.023,0.936,31.066,-81.177,-57.618,0,0,0,
,0.437,-0.146,1.002,4.211,-104.92,-36.499,0,0,0,
,0.468,-0.039,0.986,-20.569,-121.827,-24.781,0,0,0,
,0.511,-0.057,0.913,-52.857,-153.321,3.601,0,0,0,
,0.421,-0.055,0.917,-55.054,-193.604,40.588,0,0,0,
,0.354,-0.032,0.968,-134.949,-187.684,67.749,0,0,0,
,0.301,-0.008,0.947,-131.409,-193.665,66.589,0,0,0,
,0.23,-0.206,0.908,-179.322,-192.994,80.505,0,0,0,
,0.076,-0.285,0.906,-275.391,-158.143,81.359,0,0,0,
,0.107,-0.235,1.064,-261.536,-151.734,82.031,0,0,0,
,-0.024,-0.216,1.104,-286.744,-174.134,59.692,0,0,0,
,-0.108,-0.092,0.952,-391.602,-117.92,47.973,0,0,0,
,-0.11,-0.09,0.887,-286.988,-90.21,72.57,0,0,0,
,-0.158,-0.331,0.857,-105.347,-79.346,92.285,0,0,0,
,-0.213,-0.719,0.917,-49.134,-67.2,111.755,0,0,0,
,-0.282,-0.779,0.933,-217.957,-18.25,76.538,0,0,0,
,-0.287,-0.366,1.087,-67.933,20.324,-72.388,0,0,0,
,-0.077,-0.139,1.132,-77.942,15.564,-81.299,0,0,0,
,0.022,-0.252,1.158,118.347,-27.71,-72.693,0,0,0,
,0.057,-0.236,1.061,54.626,-30.945,-80.262,0,0,0,
,0.092,-0.195,0.976,99.06,-24.231,-81.971,0,0,0,
,0.065,-0.248,0.971,182.251,-22.217,-95.704,0,0,0,
,0.022,-0.257,0.987,151.733,-4.151,-123.536,0,0,0,
,0.038,-0.281,0.941,191.833,-2.259,-176.941,0,0,0,
,0.031,-0.383,0.91,189.88,5.92,-213.074,0,0,0,
,0.015,-0.275,0.939,158.935,3.112,-214.051,0,0,0,
,-0.07,-0.223,0.998,195.984,6.225,-240.235,0,0,0,
,-0.01,-0.202,1.058,185.791,-6.897,-270.02,0,0,0,
,0.057,-0.201,1.013,174.438,-18.372,-271.485,0,0,0,
,0.085,-0.203,0.998,126.281,-17.579,-276.612,0,0,0,
,0.079,-0.291,0.86,24.047,21.24,-309.082,0,0,0,
,0.11,-0.214,0.768,-186.768,113.708,-289.795,0,0,0,
,0.178,-0.075,0.825,65.918,135.315,-278.016,0,0,0,
,0.132,-0.284,0.986,189.636,141.967,-277.466,0,0,0,
,0.131,-0.302,0.984,5.004,200.256,-277.222,0,0,0,
,0.203,-0.197,0.945,-161.744,229.797,-265.503,0,0,0,
,0.237,-0.194,0.989,-276.551,222.107,-254.883,0,0,0,
,0.456,0.475,1.458,-219.849,107.605,-156.128,0,0,0,
,0.393,0.278,1.328,-103.943,19.836,-119.629,0,0,0,
,0.325,0.452,0.975,-130.738,13.244,-10.926,0,0,0,
,0.295,-0.189,0.746,153.625,-36.255,25.634,0,0,0,
,0.152,-0.305,0.9,-27.466,-25.269,46.752,0,0,0,
,0.251,0.051,1.1,-35.035,-36.805,47.363,0,0,0,
,0.23,0.169,1.12,20.019,-96.863,75.988,0,0,0,
,0.271,0.271,1.179,132.568,-138.733,146.789,0,0,0,
,0.296,0.122,1.14,245.91,-215.455,199.096,0,0,0,
,0.161,-0.093,1.041,170.105,-259.583,263.061,0,0,0,
,0.092,-0.114,1.06,155.822,-269.288,275.817,0,0,0,
,0.067,-0.2,1.023,240.295,-297.608,264.16,0,0,0,
,-0.014,-0.312,0.928,165.649,-266.114,224.121,0,0,0,
,0.057,-0.202,0.734,-23.865,-167.847,246.643,0,0,0,
,0.055,-0.38,0.611,-71.045,-109.559,236.572,0,0,0,
,0.053,-0.297,0.767,-65.735,-52.979,282.531,0,0,0,
,-0.026,-0.407,0.894,-105.652,-25.452,245.666,0,0,0,
,-0.049,-0.322,0.995,-181.946,-1.221,233.032,0,0,0,
,-0.055,-0.241,1.037,-162.354,-13.001,199.646,0,0,0,
,-0.074,-0.334,1.025,-59.205,-37.415,159.546,0,0,0,
,-0.107,-0.473,0.926,-80.201,-32.654,126.709,0,0,0,
,-0.086,-0.371,0.87,-93.628,-19.532,83.313,0,0,0,
,-0.072,-0.401,0.925,39.428,-47.974,43.518,0,0,0,
,-0.093,-0.423,1.038,93.75,-45.289,-17.64,0,0,0,
,-0.004,-0.331,1.051,-0.489,-31.678,-52.369,0,0,0,
,0.064,0.06,1.003,-55.42,-33.326,-48.218,0,0,0,
,0.086,-0.078,0.885,96.557,-60.425,-8.484,0,0,0,
,0.001,-0.214,0.866,144.836,-46.265,30.944,0,0,0,
,0.024,-0.344,0.942,176.696,-15.137,24.047,0,0,0,
,0.022,-0.345,1.193,166.748,15.441,5.798,0,0,0,
,-0.034,-0.39,1.15,97.29,15.258,-42.725,0,0,0,
,-0.063,-0.172,1.034,40.893,22.338,-65.857,0,0,0,
,-0.095,-0.073,1.046,219.299,1.22,-60.181,0,0,0,
,-0.046,-0.337,1.042,299.133,-23.682,-75.684,0,0,0,
,-0.003,-0.253,0.938,217.834,-33.02,-106.385,0,0,0,
,0.058,-0.467,0.936,173.828,-23.682,-128.602,0,0,0,
,0.113,-0.277,0.97,123.352,-0.306,-168.519,0,0,0,
,0.053,-0.42,0.982,140.625,0.366,-225.22,0,0,0,
,0.062,-0.288,0.838,54.626,46.752,-265.381,0,0,0,
,0.101,-0.342,0.786,94.726,76.66,-273.194,0,0,0,
,0.086,-0.258,0.909,49.804,116.821,-281.8,0,0,0,
,0.04,-0.303,1.054,39.062,109.436,-282.349,0,0,0,
,-0.026,-0.235,1.1,-1.099,107.116,-289.246,0,0,0,
,-0.035,-0.336,1.072,-9.278,81.115,-316.651,0,0,0,
,0.018,-0.084,0.925,1.342,72.998,-333.313,0,0,0,
,0.081,-0.242,0.867,175.415,72.082,-296.387,0,0,0,
,0.097,-0.279,1.041,109.253,109.008,-268.555,0,0,0,
,0.136,-0.286,1.093,103.332,129.943,-247.254,0,0,0,
,0.074,-0.313,1.071,2.441,145.202,-237.427,0,0,0,
,0.089,-0.246,1.042,-63.233,142.639,-224.183,0,0,0,
,0.073,-0.079,1.001,-185.852,122.436,-187.317,0,0,0,
,0.033,0.22,1.024,-176.88,81.97,-114.258,0,0,0,
,0.014,0.252,1.078,-56.702,35.583,-27.832,0,0,0,
,0.009,-0.056,1.012,96.191,-8.484,-16.114,0,0,0,
,0.121,-0.372,0.985,-20.325,-20.813,-15.381,0,0,0,
,0.205,-0.228,0.988,-127.991,-64.698,9.033,0,0,0,
,0.218,-0.051,1.041,-179.871,-135.071,61.279,0,0,0,
,0.133,-0.013,1.072,-125.123,-199.158,93.994,0,0,0,
,0.048,-0.026,1.059,-206.971,-230.713,141.296,0,0,0,
,-0.005,0.018,1.01,-265.137,-229.92,179.199,0,0,0,
,0.003,-0.039,1.001,-314.942,-229.126,241.394,0,0,0,
,-0.036,-0.028,0.978,-342.957,-235.23,263.244,0,0,0,
,-0.059,-0.149,0.881,-422.913,-203.736,275.879,0,0,0,
,-0.062,-0.101,0.78,-502.686,-152.527,292.846,0,0,0,
,-0.055,-0.191,0.715,-425.293,-135.254,263,0,0,0,
,-0.066,-0.364,0.81,-312.5,-130.494,212.951,0,0,0,
,-0.034,-0.527,1.044,-234.07,-147.217,151.794,0,0,0,
,-0.108,-0.577,1.164,-290.039,-141.48,58.715,0,0,0,
,-0.072,-0.629,1.064,-173.157,-133.912,-35.279,0,0,0,
,-0.087,-0.553,0.858,-219.483,-103.028,-127.869,0,0,0,
,-0.019,-0.397,0.805,-93.262,-57.557,-111.451,0,0,0,
,-0.027,-0.372,1.004,45.654,-51.575,-104.065,0,0,0,
,-0.031,-0.276,1.254,50.354,-11.536,-68.726,0,0,0,
,-0.073,-0.145,1.223,17.7,4.211,-69.397,0,0,0,
,-0.115,-0.052,1.083,-39.185,23.864,-52.552,0,0,0,
,-0.092,0.028,0.977,52.795,1.648,-39.795,0,0,0,
,-0.083,-0.121,0.973,171.997,6.469,-39.551,0,0,0,
,-0.046,-0.069,0.978,153.259,23.254,-65.857,0,0,0,
,-0.033,-0.067,0.879,185.18,32.043,-83.985,0,0,0,
,-0.074,-0.14,0.871,164.184,51.696,-80.811,0,0,0,
,-0.041,-0.086,0.948,153.32,64.88,-83.435,0,0,0,
,-0.095,-0.222,1.001,156.005,42.114,-131.714,0,0,0,
,-0.046,-0.043,1.138,-8.545,10.07,-158.814,0,0,0,
,-0.036,-0.095,0.972,59.326,-34.668,-206.177,0,0,0,
,-0.016,-0.048,0.854,80.383,-11.719,-197.327,0,0,0,
,-0.015,-0.205,0.881,82.519,8.789,-182.923,0,0,0,
,-0.011,-0.144,0.969,5.371,47.302,-188.538,0,0,0,
,0.008,-0.133,1.032,32.348,51.879,-199.707,0,0,0,
,-0.063,-0.119,1.067,9.338,58.471,-224.427,0,0,0,
,-0.086,-0.069,1.061,16.784,57.312,-231.568,0,0,0,
,-0.097,-0.142,1.075,41.931,50.354,-219.727,0,0,0,
,-0.051,-0.148,1.1,-10.498,41.015,-196.228,0,0,0,
,-0.044,-0.138,1.075,-14.222,33.813,-188.172,0,0,0,
,-0.035,-0.113,1.019,-31.189,30.395,-186.158,0,0,0,
,-0.1,0.006,0.94,-77.942,44.433,-167.176,0,0,0,
,-0.059,0.054,0.925,-72.449,62.377,-117.31,0,0,0,
,-0.021,0.108,1.015,-109.253,38.086,-56.214,0,0,0,
,0.015,0.176,1.056,-145.142,8.911,-4.273,0,0,0,
,-0.034,0.132,0.995,-29.664,-44.434,19.165,0,0,0,
,-0.082,-0.026,1.038,-17.762,-70.618,39.794,0,0,0,
,-0.088,-0.008,1.086,-60.73,-73.731,61.95,0,0,0,
,-0.064,0.015,1.069,-145.325,-101.441,92.285,0,0,0,
,-0.071,0.129,1.09,-194.458,-131.409,149.719,0,0,0,
,-0.102,0.172,1.067,-221.375,-158.448,192.81,0,0,0,
,-0.176,0.106,0.962,-342.896,-143.921,233.398,0,0,0,
,-0.137,0.216,0.857,-459.168,-112.244,269.653,0,0,0,
,-0.127,0.182,0.849,-358.643,-154.358,302.368,0,0,0,
,-0.241,-0.018,0.85,-421.509,-153.138,271.85,0,0,0,
,-0.176,-0.063,0.846,-515.442,-80.079,244.751,0,0,0,
,-0.121,-0.069,0.944,-531.25,-101.38,178.833,0,0,0,
,-0.079,-0.129,0.98,-495.118,-114.808,121.154,0,0,0,
,-0.078,-0.233,1.027,-474.183,-140.625,47.058,0,0,0,
,-0.121,-0.079,0.974,-447.632,-169.739,-71.839,0,0,0,
,-0.037,-0.135,1.19,-275.147,-225.159,-106.995,0,0,0,
,-0.108,-0.266,1.03,-341.614,-197.388,-196.9,0,0,0,
,0.037,-0.022,0.966,-364.014,-123.841,-194.642,0,0,0,
,-0.019,-0.074,0.924,-220.52,-147.217,-212.647,0,0,0,
,-0.124,-0.105,0.854,-311.402,-26.123,-231.751,0,0,0,
,-0.017,0.22,0.99,-255.677,-32.227,-202.881,0,0,0,
,-0.142,0.211,1.089,-103.577,-87.586,-208.13,0,0,0,
,-0.237,-0.007,1.078,6.164,-77.088,-209.107,0,0,0,
,-0.216,-0.053,1.097,-51.331,-62.317,-269.959,0,0,0,
,-0.192,0.109,1.208,-68.421,-90.577,-258.362,0,0,0,
,-0.199,0.133,1.2,-23.438,-136.414,-263.062,0,0,0,
,-0.194,0.111,1.083,-67.627,-128.235,-251.16,0,0,0,
,-0.157,0.179,0.774,-81.665,-59.876,-236.939,0,0,0,
,-0.022,0.246,0.602,76.049,2.563,-194.275,0,0,0,
,-0.04,0.093,0.694,248.596,-7.691,-132.019,0,0,0,
,-0.165,0.225,0.962,172.668,-27.71,-132.874,0,0,0,
,-0.197,0.072,1.078,114.929,-26.795,-139.466,0,0,0,
,-0.294,0.289,1.085,10.192,9.887,-156.373,0,0,0,
,-0.204,0.287,1.036,60.058,-0.794,-150.025,0,0,0,
,-0.239,0.224,0.997,67.321,-18.921,-132.325,0,0,0,
,-0.167,0.209,0.956,62.316,-28.565,-117.005,0,0,0,
,-0.181,0.148,0.972,30.456,-45.472,-117.798,0,0,0,
,-0.141,0.248,0.969,19.409,-37.537,-121.216,0,0,0,
,-0.153,0.231,0.935,61.157,-39.673,-140.87,0,0,0,
,-0.127,0.249,0.96,117.248,-22.4,-146.241,0,0,0,
,-0.127,0.191,0.999,153.503,-19.165,-145.874,0,0,0,
,-0.125,0.078,1.005,132.934,-23.804,-152.588,0,0,0,
,-0.159,0.098,0.977,114.563,-15.015,-171.204,0,0,0,
,-0.16,0.131,0.92,142.273,13.488,-186.89,0,0,0,
,-0.143,0.171,0.854,195.922,65.979,-186.036,0,0,0,
,-0.143,0.234,0.872,208.191,91.796,-149.109,0,0,0,
,-0.181,0.201,0.945,158.569,106.933,-102.295,0,0,0,
,-0.218,0.23,0.967,20.141,125.854,-60.12,0,0,0,
,-0.254,0.368,1.018,-48.768,105.651,-17.456,0,0,0,
,-0.318,0.438,1.067,14.709,84.777,23.437,0,0,0,
,-0.333,0.286,1.071,162.048,58.532,40.344,0,0,0,
,-0.266,0.019,1.066,107.91,58.166,57.8,0,0,0,
,-0.139,-0.073,1.074,-100.525,61.706,84.228,0,0,0,
,-0.096,0.138,1.008,-293.641,18.676,102.722,0,0,0,
,-0.125,0.362,0.972,-328.553,-22.583,136.352,0,0,0,
,-0.224,0.525,0.964,-313.355,-37.537,173.156,0,0,0,
,-0.304,0.531,0.886,-302.857,-33.204,208.374,0,0,0,
,-0.296,0.483,0.852,-300.415,-26.734,242.126,0,0,0,
,-0.293,0.32,0.818,-404.908,-19.898,246.704,0,0,0,
,-0.227,0.383,0.787,-467.713,-19.776,263.244,0,0,0,
,-0.269,0.245,0.712,-484.864,-5.249,236.145,0,0,0,
,-0.162,0.273,0.729,-446.839,23.62,199.401,0,0,0,
,-0.113,0.235,0.922,-320.801,-3.663,155.7,0,0,0,
,-0.137,0.102,1.055,-390.381,1.525,123.474,0,0,0,
,-0.096,0.084,1.103,-543.824,8.606,61.828,0,0,0,
,-0.082,0.079,0.989,-704.651,-21.424,33.874,0,0,0,
,-0.004,0.422,1.008,-535.889,-66.04,27.282,0,0,0,
,-0.079,0.012,0.998,-372.864,-140.931,-37.842,0,0,0,
,-0.083,0.021,0.899,-407.105,-75.013,-65.613,0,0,0,
,-0.046,0.165,0.852,-457.581,-59.388,-82.032,0,0,0,
,-0.007,0.407,0.78,-334.229,-37.415,-76.172,0,0,0,
,-0.061,0.341,0.908,-43.396,-80.262,-72.876,0,0,0,
,-0.174,0.331,1.114,-38.208,-104.798,-92.225,0,0,0,
,-0.245,0.161,1.097,-151.49,-69.642,-124.573,0,0,0,
,-0.249,0.511,0.98,-322.815,-35.523,-154.419,0,0,0,
,-0.232,0.483,0.963,-218.934,-83.985,-178.406,0,0,0,
,-0.276,0.557,0.858,-192.078,-76.416,-178.467,0,0,0,
,-0.221,0.526,0.764,-81.727,-64.759,-162.964,0,0,0,
,-0.154,0.499,0.793,40.771,-63.721,-143.616,0,0,0,
,-0.191,0.361,0.936,60.302,-85.083,-147.889,0,0,0,
,-0.209,0.364,0.959,-24.048,-75.562,-158.509,0,0,0,
,-0.258,0.475,0.894,-95.765,-64.454,-153.077,0,0,0,
,-0.238,0.497,0.767,-94.178,-51.209,-124.695,0,0,0,
,-0.199,0.386,0.772,-72.449,-32.166,-101.136,0,0,0,
,-0.177,0.432,0.839,-98.816,-18.067,-85.328,0,0,0,
,-0.243,0.448,0.867,-154.175,-19.593,-76.477,0,0,0,
,-0.197,0.535,0.892,-107.239,-14.405,-50.415,0,0,0,
,-0.216,0.53,0.903,-68.482,-0.123,-36.011,0,0,0,
,-0.219,0.503,0.917,-2.564,-3.418,-21.241,0,0,0,
,-0.159,0.408,0.929,-8.362,-5.188,-15.748,0,0,0,
,-0.176,0.398,0.871,-64.454,-13.062,-28.016,0,0,0,
,-0.189,0.462,0.795,-108.765,-5.86,-28.931,0,0,0,
,-0.152,0.575,0.738,-41.321,-2.137,-21.851,0,0,0,
,-0.194,0.524,0.805,57.373,-19.532,-13.489,0,0,0,
,-0.213,0.525,0.903,39.123,-17.334,-6.836,0,0,0,
,-0.238,0.496,0.894,21.85,-30.213,-12.513,0,0,0,
,-0.226,0.474,0.855,6.836,-31.128,-13.55,0,0,0,
,-0.205,0.432,0.83,-15.931,-28.748,-14.466,0,0,0,
,-0.203,0.433,0.836,-36.499,-23.316,-25.635,0,0,0,
,-0.199,0.55,0.795,-35.523,-10.621,-38.392,0,0,0,
,-0.185,0.56,0.793,59.082,-47.181,-42.42,0,0,0,
,-0.215,0.475,0.816,78.918,-24.476,-44.617,0,0,0,
,-0.195,0.426,0.86,76.355,-20.997,-58.045,0,0,0,
,-0.232,0.333,0.899,-60.303,0.366,-80.872,0,0,0,
,-0.21,0.529,0.897,-100.098,14.282,-96.924,0,0,0,
,-0.177,0.564,0.879,-27.344,-21.241,-121.582,0,0,0,
,-0.132,0.512,0.861,86.303,-58.96,-135.926,0,0,0,
,-0.172,0.419,0.867,140.503,-81.604,-145.63,0,0,0,
,-0.177,0.389,0.913,115.234,-83.13,-163.819,0,0,0,
,-0.199,0.369,0.939,89.477,-84.534,-194.031,0,0,0,
,-0.175,0.446,0.916,57.312,-62.989,-228.943,0,0,0,
,-0.154,0.501,0.861,140.747,-86.121,-234.498,0,0,0,
,-0.191,0.494,0.834,208.252,-77.942,-218.323,0,0,0,
,-0.215,0.482,0.805,238.403,-59.327,-188.782,0,0,0,
,-0.282,0.422,0.857,198.852,-51.026,-167.847,0,0,0,
,-0.309,0.485,0.92,131.286,-32.837,-147.339,0,0,0,
,-0.314,0.513,0.795,126.587,-26.978,-157.166,0,0,0,
,-0.17,0.572,0.572,235.839,10.925,-162.232,0,0,0,
,-0.11,0.324,0.772,350.769,49.438,-115.113,0,0,0,
,-0.187,0.331,0.834,77.758,58.41,-87.708,0,0,0,
,-0.229,0.594,0.857,-57.435,80.2,-62.623,0,0,0,
,-0.31,0.78,0.961,31.738,33.142,-74.646,0,0,0,
,-0.356,0.69,1.002,118.591,11.352,-63.843,0,0,0,
,-0.335,0.585,0.948,109.008,1.342,-42.115,0,0,0,
,-0.28,0.531,0.845,73.12,-1.709,-11.841,0,0,0,
,-0.219,0.5,0.777,56.64,3.723,37.109,0,0,0,
,-0.153,0.39,0.731,167.663,11.901,49.682,0,0,0,
,-0.145,0.328,0.769,155.029,36.621,63.537,0,0,0,
,-0.094,0.345,0.87,171.63,60.058,74.646,0,0,0,
,-0.144,0.284,0.969,55.419,80.627,72.692,0,0,0,
,-0.175,0.418,0.998,-31.067,95.031,77.941,0,0,0,
,-0.243,0.474,0.937,-47.059,87.646,87.097,0,0,0,
,-0.278,0.519,0.824,-42.847,77.331,116.394,0,0,0,
,-0.323,0.462,0.79,-61.28,69.03,135.62,0,0,0,
,-0.302,0.455,0.825,-132.63,93.2,162.17,0,0,0,
,-0.274,0.507,0.843,-263.733,116.333,187.255,0,0,0,
,-0.255,0.624,0.788,-353.76,137.085,211.486,0,0,0,
,-0.249,0.629,0.683,-348.938,141.662,238.525,0,0,0,
,-0.222,0.575,0.606,-296.753,148.376,248.84,0,0,0,
,-0.179,0.438,0.665,-251.709,140.075,239.135,0,0,0,
,-0.155,0.441,0.725,-265.259,138.61,214.782,0,0,0,
,-0.139,0.491,0.804,-271.851,101.928,188.842,0,0,0,
,-0.202,0.489,0.893,-294.434,68.542,156.555,0,0,0,
,-0.185,0.522,0.996,-332.886,55.236,157.165,0,0,0,
,-0.144,0.491,1.141,-311.646,-15.87,127.075,0,0,0,
,-0.091,0.282,1,-179.688,-70.557,43.09,0,0,0,
,0.195,0.204,1.028,43.823,-127.198,-14.649,0,0,0,
,0.037,0.121,0.959,41.503,-168.58,-94.605,0,0,0,
,0.065,0.213,0.941,119.262,-103.699,-128.724,0,0,0,
,-0.233,0.304,0.965,-10.254,-58.35,-121.399,0,0,0,
,-0.229,0.447,1.039,22.888,-5.86,-128.54,0,0,0,
,-0.293,0.533,1.193,75.561,-42.786,-141.968,0,0,0,
,-0.275,0.484,1.187,117.065,-85.022,-170.411,0,0,0,
,-0.208,0.489,1.088,177.673,-125.611,-202.942,0,0,0,
,-0.174,0.376,0.901,120.605,-130.31,-238.465,0,0,0,
,-0.026,0.398,0.74,362.365,-137.024,-258.545,0,0,0,
,-0.096,0.166,0.739,406.372,-155.03,-294.495,0,0,0,
,-0.044,0.213,0.744,437.561,-90.699,-322.51,0,0,0,
,-0.131,0.372,0.828,369.323,-79.834,-306.458,0,0,0,
,-0.215,0.467,0.853,334.716,-48.829,-284.119,0,0,0,
,-0.321,0.568,0.829,295.593,-23.316,-263.001,0,0,0,
,-0.345,0.45,0.719,311.706,14.099,-245.911,0,0,0,
,-0.315,0.526,0.534,218.811,125.244,-199.585,0,0,0,
,-0.181,0.715,0.633,192.199,143.615,-133.301,0,0,0,
,-0.118,0.665,1.009,224.609,73.608,-46.814,0,0,0,
,-0.417,0.589,1.009,-164.917,60.058,-6.226,0,0,0,
,-0.419,0.936,0.817,-321.534,135.62,38.757,0,0,0,
,-0.318,0.895,0.741,-62.989,45.654,56.518,0,0,0,
,-0.269,0.583,0.734,163.33,9.582,60.669,0,0,0,
,-0.116,0.346,0.863,-90.882,17.944,75.256,0,0,0,
,-0.125,0.516,0.936,-88.99,-2.747,83.679,0,0,0,
,-0.219,0.476,0.978,-41.871,-44.739,98.083,0,0,0,
,-0.286,0.483,0.943,-123.352,-33.204,136.108,0,0,0,
,-0.313,0.553,0.873,-184.144,-7.508,177.246,0,0,0,
,-0.285,0.411,0.803,-170.044,4.394,195.861,0,0,0,
,-0.25,0.359,0.779,-188.599,50.231,206.298,0,0,0,
,-0.167,0.368,0.771,-164.612,79.04,202.942,0,0,0,
,-0.128,0.31,0.834,-111.512,88.195,177.124,0,0,0,
,-0.095,0.327,0.897,-97.779,85.205,150.207,0,0,0,
,-0.089,0.359,0.942,-77.454,76.049,124.328,0,0,0,
,-0.18,0.424,0.852,-131.592,62.072,86.792,0,0,0,
,-0.237,0.399,0.826,-149.659,56.884,75.927,0,0,0,
,-0.248,0.507,0.85,-155.091,67.932,80.139,0,0,0,
,-0.255,0.472,0.864,-160.95,56.701,79.528,0,0,0,
,-0.179,0.614,0.815,-285.157,90.759,59.692,0,0,0,
,-0.153,0.662,0.808,-171.57,75.012,71.106,0,0,0,
,-0.195,0.556,0.816,-45.777,54.931,85.022,0,0,0,
,-0.185,0.45,0.865,-40.955,49.743,102.661,0,0,0,
,-0.196,0.509,0.966,-48.768,40.649,103.149,0,0,0,
,-0.14,0.246,1.098,108.52,-32.898,71.167,0,0,0,
,-0.191,0.2,1.086,-57.801,-26.49,28.381,0,0,0,
,-0.112,0.363,0.957,-107.422,-47.425,-3.113,0,0,0,
,-0.149,0.5,0.854,-30.213,-24.72,18.798,0,0,0,
,-0.169,0.5,0.866,63.415,-8.728,46.325,0,0,0,
,-0.198,0.429,0.914,88.073,21.911,74.951,0,0,0,
,-0.228,0.407,0.977,72.937,64.758,85.693,0,0,0,
,-0.228,0.286,1.041,-83.558,130.676,69.824,0,0,0,
,-0.164,0.291,0.974,-129.334,145.202,75.5,0,0,0,
,-0.126,0.271,0.921,-106.263,147.094,84.838,0,0,0,
,-0.101,0.314,0.913,-74.707,166.992,92.712,0,0,0,
,-0.13,0.385,0.936,-25.269,179.87,96.13,0,0,0,
,-0.17,0.397,0.998,67.199,190.796,98.205,0,0,0,
,-0.151,0.345,1.194,207.031,189.209,155.395,0,0,0,
,-0.239,0.299,1.158,282.348,216.613,142.273,0,0,0,
,-0.063,0.276,1.423,541.626,229.309,178.344,0,0,0,
,0.001,0.045,1.54,636.352,41.565,24.963,0,0,0,
,-0.258,0.044,1.325,570.312,-106.324,-10.132,0,0,0,
,-0.388,0.195,1.249,526.123,94.055,161.621,0,0,0,
,-0.443,0.234,1.112,715.271,10.131,2.197,0,0,0,
,-0.53,0.303,1.01,993.164,-7.142,76.843,0,0,0,
,-0.64,0.075,0.872,1247.436,22.338,52.124,0,0,0,
,-0.688,-0.137,0.998,1407.409,53.649,78.43,0,0,0,
,-0.788,-0.275,0.974,1360.046,154.846,114.196,0,0,0,
,-0.777,-0.185,0.67,940.063,420.776,294.677,0,0,0,
,-0.72,0.189,0.441,740.905,497.985,347.717,0,0,0,
,-0.685,0.456,0.387,952.575,461.792,258.728,0,0,0,
,-0.676,0.547,0.496,1567.81,389.709,268.921,0,0,0,
,-0.687,0.371,0.77,1999.694,467.956,359.619,0,0,0,
,-0.617,0.382,1.023,1999.694,728.942,602.6,0,0,0,
,-0.461,0.27,1.102,1742.92,936.584,678.955,0,0,0,
,-0.319,0.177,0.919,1057.678,950.378,735.229,0,0,0,
,-0.137,0.497,0.635,611.084,958.74,714.111,0,0,0,
,0.129,0.246,0.632,856.811,622.558,669.433,0,0,0,
,0.247,-0.052,0.883,985.595,525.756,631.591,0,0,0,
,0.495,-0.264,1.298,682.251,175.781,595.398,0,0,0,
,0.398,-0.013,1.348,151.428,74.89,602.356,0,0,0,
,0.335,0.168,1.172,-78.064,111.694,417.236,0,0,0,
,0.498,-0.238,0.977,-77.576,5.127,306.457,0,0,0,
,0.511,-0.324,0.892,-101.563,-292.786,316.406,0,0,0,
,0.374,-0.167,1.019,-19.043,-446.9,320.373,0,0,0,
,0.165,-0.302,1,14.038,-216.004,292.785,0,0,0,
,0.27,-0.34,0.876,23.315,-58.533,218.383,0,0,0,
,0.353,-0.479,0.783,72.998,13.366,223.693,0,0,0,
,0.362,-0.571,0.733,125.183,86.792,214.904,0,0,0,
,0.499,-0.553,0.687,175.964,165.222,214.233,0,0,0,
,0.531,-0.611,0.789,171.692,185.913,245.056,0,0,0,
,0.511,-0.528,0.874,109.802,216.674,263,0,0,0,
,0.551,-0.121,1.369,97.045,174.804,307.373,0,0,0,
,0.538,-0.563,1.189,88.562,127.807,236.572,0,0,0,
,0.469,-0.311,1.063,71.716,116.516,273.254,0,0,0,
,0.438,-0.193,1.167,179.443,93.994,257.812,0,0,0,
,0.352,-0.372,0.852,208.13,108.52,289.978,0,0,0,
,0.217,-0.344,0.627,129.76,176.208,313.171,0,0,0,
,0.219,-0.548,0.597,81.665,275.695,260.437,0,0,0,
,0.208,-0.443,0.752,49.743,341.98,236.328,0,0,0,
,0.233,-0.25,0.815,76.965,379.821,225.463,0,0,0,
,0.209,-0.313,0.813,68.847,386.779,210.754,0,0,0,
,0.173,-0.357,0.891,-35.462,370.117,202.27,0,0,0,
,0.181,-0.459,0.922,-71.9,309.997,156.677,0,0,0,
,0.272,-0.245,0.934,-149.842,239.929,93.261,0,0,0,
,0.374,-0.328,0.885,-132.996,162.597,46.752,0,0,0,
,0.389,-0.343,0.886,-128.663,96.679,27.465,0,0,0,
,0.427,-0.427,0.965,-80.933,37.963,15.869,0,0,0,
,0.391,-0.406,1.062,-34.607,-21.485,-5.982,0,0,0,
,0.392,-0.273,1.134,-46.509,-67.749,-4.09,0,0,0,
,0.411,-0.285,0.966,45.105,-122.254,-19.165,0,0,0,
,0.254,-0.306,0.805,53.1,-117.554,11.535,0,0,0,
,0.262,-0.543,0.74,85.266,-67.505,16.601,0,0,0,
,0.283,-0.418,0.758,100.28,-9.095,44.555,0,0,0,
,0.449,-0.509,0.89,109.924,36.499,67.443,0,0,0,
,0.583,-0.508,0.939,100.097,35.034,76.721,0,0,0,
,0.557,-0.418,0.773,115.478,26.489,64.575,0,0,0,
,0.54,-0.39,0.726,121.704,35.766,55.114,0,0,0,
,0.534,-0.341,0.749,92.346,43.151,37.292,0,0,0,
,0.47,-0.3,0.729,80.078,24.414,-3.785,0,0,0,
,0.411,-0.261,0.694,49.011,20.813,-23.011,0,0,0,
,0.473,-0.345,0.785,25.207,-6.714,-68.726,0,0,0,
,0.404,-0.334,0.781,3.112,-64.148,-96.802,0,0,0,
,0.329,-0.41,0.745,-19.165,-96.131,-113.038,0,0,0,
,0.255,-0.433,0.777,-50.477,-109.62,-132.996,0,0,0,
,0.345,-0.376,0.872,-56.946,-103.455,-156.678,0,0,0,
,0.447,-0.456,0.931,-42.786,-114.38,-150.757,0,0,0,
,0.415,-0.454,0.911,-13.977,-119.263,-132.447,0,0,0,
,0.391,-0.506,0.908,-15.625,-100.586,-115.662,0,0,0,
,0.464,-0.504,1.004,-15.625,-101.99,-112.977,0,0,0,
,0.431,-0.382,0.929,-4.212,-126.954,-119.568,0,0,0,
,0.426,-0.36,0.839,-17.945,-146.79,-137.757,0,0,0,
,0.445,-0.498,0.787,-23.438,-159.363,-165.039,0,0,0,
,0.462,-0.489,0.708,-89.844,-153.199,-188.66,0,0,0,
,0.511,-0.371,0.713,-169.556,-145.02,-211.548,0,0,0,
,0.539,-0.365,0.656,-263.367,-142.334,-224.244,0,0,0,
,0.58,-0.33,0.675,-296.814,-138.123,-224.854,0,0,0,
,0.636,-0.331,0.668,-240.479,-115.784,-203.248,0,0,0,
,0.641,-0.421,0.675,-178.65,-96.924,-182.007,0,0,0,
,0.727,-0.47,0.661,-193.97,-53.772,-165.284,0,0,0,
,0.785,-0.395,0.714,-238.16,-37.537,-141.175,0,0,0,
,0.737,-0.299,0.846,-104.615,-43.274,-91.248,0,0,0,
,0.739,-0.396,1.034,-76.05,-58.716,-66.59,0,0,0,
,0.619,-0.4,1.096,-107.544,-93.873,-60.914,0,0,0,
,0.444,-0.265,1.003,-15.931,-82.703,-65.918,0,0,0,
,0.309,-0.357,0.941,84.045,-56.763,-72.144,0,0,0,
,0.169,-0.347,0.873,103.027,-4.09,-91.187,0,0,0,
,0.051,-0.396,0.847,128.051,46.875,-94.483,0,0,0,
,-0.08,-0.359,0.833,150.634,110.656,-84.29,0,0,0,
,-0.211,-0.25,0.808,161.01,184.997,-55.603,0,0,0,
,-0.294,-0.189,0.754,189.697,260.742,-26.062,0,0,0,
,-0.299,-0.254,0.757,281.067,314.209,21.911,0,0,0,
,-0.273,-0.402,0.711,367.065,338.134,61.462,0,0,0,
,-0.241,-0.474,0.634,311.889,363.891,101.989,0,0,0,
,-0.087,-1.207,1.314,-81.971,293.579,30.517,0,0,0,
,0.532,-0.637,1.698,19.226,123.718,-163.941,0,0,0,
,-0.06,0.001,1.187,219.604,-38.819,79.65,0,0,0,
,-0.017,-0.305,0.757,126.648,57.495,82.214,0,0,0,
,0.125,-0.639,0.676,155.822,98.51,129.15,0,0,0,
,0.16,-0.741,0.674,91.186,168.396,157.776,0,0,0,
,0.314,-0.547,0.931,87.158,179.687,160.156,0,0,0,
,0.383,-0.38,1.133,45.288,150.146,164.734,0,0,0,
,0.447,-0.337,1.155,78.308,69.824,146.911,0,0,0,
,0.336,-0.296,0.924,118.408,10.498,132.385,0,0,0,
,0.293,-0.467,0.83,113.769,-14.405,102.6,0,0,0,
,0.286,-0.374,0.768,-11.78,-49.927,48.645,0,0,0,
,0.341,-0.324,0.709,-83.741,-39.246,48.156,0,0,0,
,0.427,-0.403,0.711,-93.873,-5.372,65.246,0,0,0,
,0.463,-0.466,0.692,-95.398,32.531,77.087,0,0,0,
,0.454,-0.38,0.754,-43.091,66.833,89.477,0,0,0,
,0.493,-0.451,0.925,-31.922,59.753,78.186,0,0,0,
,0.457,-0.374,0.98,-79.041,12.085,52.368,0,0,0,
,0.309,-0.334,0.787,-106.995,-31.006,7.629,0,0,0,
,0.312,-0.394,0.807,-78.431,-15.259,5.432,0,0,0,
,0.366,-0.415,0.905,-2.808,-39.917,-9.888,0,0,0,
,0.324,-0.315,0.835,2.075,-64.27,-21.058,0,0,0,
,0.295,-0.401,0.745,-32.532,-47.547,-19.959,0,0,0,
,0.334,-0.475,0.773,-44.129,-32.959,-32.654,0,0,0,
,0.419,-0.402,0.881,-13.672,-25.452,-40.833,0,0,0,
,0.464,-0.349,0.899,-8.362,-30.701,-36.499,0,0,0,
,0.512,-0.403,0.908,-5.31,-35.462,-37.903,0,0,0,
,0.518,-0.405,0.885,17.273,-40.101,-36.377,0,0,0,
,0.461,-0.301,0.824,85.815,-38.331,-28.687,0,0,0,
,0.47,-0.412,0.895,90.576,-26.368,-30.213,0,0,0,
,0.493,-0.374,0.887,47.119,-42.847,-44.922,0,0,0,
,0.449,-0.376,0.829,67.81,-34.058,-40.345,0,0,0,
,0.453,-0.458,0.796,103.515,-12.94,-46.814,0,0,0,
,0.417,-0.427,0.818,154.113,13,-44.129,0,0,0,
,0.429,-0.43,0.895,193.542,25.573,-39.368,0,0,0,
,0.416,-0.425,0.856,180.236,15.747,-47.12,0,0,0,
,0.358,-0.463,0.806,156.86,9.582,-54.81,0,0,0,
,0.331,-0.453,0.74,96.069,15.686,-79.834,0,0,0,
,0.311,-0.396,0.776,58.044,28.137,-105.896,0,0,0,
,0.386,-0.369,0.824,61.34,8.911,-137.696,0,0,0,
,0.393,-0.336,0.766,20.629,-26.551,-165.223,0,0,0,
,0.374,-0.37,0.755,-74.707,-64.82,-190.552,0,0,0,
,0.343,-0.453,0.777,-160.828,-101.929,-224.854,0,0,0,
,0.365,-0.437,0.779,-218.75,-125.55,-255.921,0,0,0,
,0.44,-0.446,0.76,-206.177,-146.912,-276.795,0,0,0,
,0.553,-0.541,0.678,-313.416,-128.174,-274.292,0,0,0,
,0.589,-0.53,0.669,-341.248,-123.963,-269.959,0,0,0,
,0.654,-0.6,0.741,-415.223,-144.532,-270.386,0,0,0,
,0.741,-0.421,0.661,-516.785,-187.928,-258.179,0,0,0,
,0.759,-0.544,0.908,-471.375,-216.797,-246.46,0,0,0,
,0.85,-0.391,1.012,-339.478,-270.203,-175.538,0,0,0,
,0.612,-0.464,1.022,-233.521,-315.125,-127.259,0,0,0,
,0.507,-0.381,1.017,-151.429,-277.161,-113.221,0,0,0,
,0.379,-0.311,0.989,12.268,-243.653,-86.548,0,0,0,
,0.24,-0.464,0.934,175.781,-187.134,-83.68,0,0,0,
,0.139,-0.555,0.875,245.361,-117.798,-85.206,0,0,0,
,0.05,-0.409,0.784,258.484,-18.677,-75.928,0,0,0,
,-0.052,-0.353,0.784,297.729,73.73,-60.975,0,0,0,
,-0.118,-0.348,0.793,410.034,183.899,-51.697,0,0,0,
,-0.172,-0.473,0.754,473.266,272.827,-14.588,0,0,0,
,-0.151,-0.448,0.647,435.547,378.357,-16.785,0,0,0,
,-0.126,-0.532,0.618,502.319,471.13,2.502,0,0,0,
,-0.096,-0.653,0.609,508.422,520.385,21.484,0,0,0,
,0.005,-0.515,0.741,387.268,550.354,20.568,0,0,0,
,0.103,-0.432,0.935,375.671,521.606,25.024,0,0,0,
,0.133,-0.415,0.877,341.369,488.83,46.264,0,0,0,
,0.341,0.283,1.51,110.473,348.449,137.756,0,0,0,
,0.22,-0.52,1.448,65.551,154.48,237.06,0,0,0,
,0.048,-0.38,0.989,105.224,82.458,143.982,0,0,0,
,-0.003,-0.375,0.677,-42.908,121.643,137.512,0,0,0,
,-0.025,-0.388,0.549,21.423,197.754,206.115,0,0,0,
,0.059,-0.627,0.638,-43.58,286.804,266.662,0,0,0,
,0.32,-0.705,0.985,-162.659,308.715,241.15,0,0,0,
,0.44,-0.692,1.18,-17.64,212.829,178.466,0,0,0,
,0.51,-0.324,1.16,-18.616,103.942,145.691,0,0,0,
,0.402,-0.412,0.932,-3.907,6.103,139.526,0,0,0,
,0.287,-0.501,0.732,-15.992,-26.673,80.383,0,0,0,
,0.313,-0.504,0.825,-14.771,-37.476,33.996,0,0,0,
,0.384,-0.452,1.117,-3.54,-95.154,18.981,0,0,0,
,0.541,-0.401,1.172,26.062,-200.135,0.854,0,0,0,
,0.297,-0.289,0.531,94.848,-193.36,84.777,0,0,0,
,0.22,-0.491,0.283,52.734,-81.055,108.764,0,0,0,
,0.354,-0.539,0.384,-28.565,50.659,96.862,0,0,0,
,0.585,-0.487,0.761,-80.75,84.838,73.608,0,0,0,
,0.708,-0.611,0.977,-39.734,24.414,42.724,0,0,0,
,0.684,-0.434,0.979,-14.1,-51.27,15.319,0,0,0,
,0.607,-0.398,0.8,-7.142,-68.726,8.972,0,0,0,
,0.575,-0.395,0.646,29.541,-36.683,10.376,0,0,0,
,0.573,-0.339,0.648,75.195,23.62,18.676,0,0,0,
,0.599,-0.548,0.798,79.711,55.908,20.813,0,0,0,
,0.595,-0.496,0.887,90.576,40.161,-7.691,0,0,0,
,0.48,-0.413,0.805,79.467,9.582,-47.852,0,0,0,
,0.412,-0.415,0.687,33.691,7.812,-94.849,0,0,0,
,0.413,-0.408,0.669,7.385,32.653,-112.854,0,0,0,
,0.495,-0.436,0.764,-3.113,43.09,-132.081,0,0,0,
,0.523,-0.495,0.862,-18.555,-4.151,-172.791,0,0,0,
,0.496,-0.433,0.858,-71.045,-80.994,-236.206,0,0,0,
,0.454,-0.385,0.805,-172.608,-168.519,-311.829,0,0,0,
,0.425,-0.308,0.755,-237.549,-231.019,-359.253,0,0,0,
,0.449,-0.292,0.739,-264.283,-263.794,-368.409,0,0,0,
,0.518,-0.356,0.732,-317.505,-290.772,-381.104,0,0,0,
,0.5,-0.361,0.615,-360.291,-307.618,-379.822,0,0,0,
,0.563,-0.477,0.586,-457.642,-281.678,-385.621,0,0,0,
,0.689,-0.559,0.741,-553.04,-283.814,-415.101,0,0,0,
,0.719,-0.554,0.7,-568.909,-283.875,-419.251,0,0,0,
,0.831,-0.451,0.803,-478.272,-259.705,-387.33,0,0,0,
,0.805,-0.408,0.93,-384.034,-275.452,-324.219,0,0,0,
,0.737,-0.373,1.024,-283.204,-282.105,-271.668,0,0,0,
,0.631,-0.345,0.999,-197.266,-260.987,-206.665,0,0,0,
,0.515,-0.303,0.96,-116.639,-231.08,-173.829,0,0,0,
,0.415,-0.301,0.943,-86.487,-185.303,-154.358,0,0,0,
,0.329,-0.206,0.93,-36.744,-130.066,-145.997,0,0,0,
,0.26,-0.272,0.845,24.719,-69.336,-155.03,0,0,0,
,0.196,-0.37,0.844,-10.987,-29.847,-146.302,0,0,0,
,0.099,-0.354,0.868,-56.885,10.192,-132.019,0,0,0,
,0.036,-0.205,0.838,-48.89,71.716,-132.752,0,0,0,
,0.004,-0.174,0.759,-77.698,121.093,-138.916,0,0,0,
,-0.05,-0.187,0.718,-60.975,179.992,-145.63,0,0,0,
,-0.088,-0.358,0.735,-153.199,195.617,-142.884,0,0,0,
,-0.176,-0.077,1.187,-402.222,119.934,-98.511,0,0,0,
,-0.132,-0.211,1.076,-165.223,136.108,-142.09,0,0,0,
,-0.154,-0.24,1.079,-118.958,79.345,-93.079,0,0,0,
,-0.139,-0.391,1.128,-156.189,55.175,-147.095,0,0,0,
,-0.188,-0.338,0.878,-109.925,35.644,-186.646,0,0,0,
,-0.19,-0.463,0.806,-222.168,74.707,-160.584,0,0,0,
,-0.166,-0.207,0.851,-221.68,119.018,-99.976,0,0,0,
,-0.151,-0.283,1.053,-162.781,142.944,-30.091,0,0,0,
,0.009,-0.799,1.098,-67.139,106.079,66.101,0,0,0,
,-0.101,-0.652,0.922,-163.269,127.258,93.933,0,0,0,
,-0.112,-0.716,1.021,-158.57,162.658,54.87,0,0,0,
,-0.107,-0.368,1.192,-107.85,175.659,46.02,0,0,0,
,-0.036,-0.471,1.218,-17.029,106.018,9.643,0,0,0,
,-0.019,-0.473,1.107,44.982,31.799,-25.208,0,0,0,
,0.02,-0.71,1.052,29.052,-24.476,-102.906,0,0,0,
,0.086,-0.657,1.053,-41.321,-76.6,-178.284,0,0,0,
,0.161,-0.251,0.925,-20.874,-96.741,-217.713,0,0,0,
,0.154,-0.032,0.718,35.095,-53.772,-190.918,0,0,0,
,0.179,0.037,0.531,119.567,53.344,-127.869,0,0,0,
,0.293,-0.205,0.533,142.578,178.833,-86.853,0,0,0,
,0.518,-0.418,0.884,104.248,250.427,-68.726,0,0,0,
,0.53,-0.332,1.101,95.275,178.405,-97.413,0,0,0,
,0.413,-0.222,1.135,5.92,95.703,-147.767,0,0,0,
,0.324,-0.13,0.978,46.081,33.813,-189.454,0,0,0,
,0.274,-0.209,0.924,120.056,15.808,-201.844,0,0,0,
,0.446,-0.236,1.057,150.695,15.747,-197.998,0,0,0,
,0.46,-0.4,1.029,117.675,-2.93,-198.426,0,0,0,
,0.439,-0.39,0.959,38.635,1.525,-192.81,0,0,0,
,0.379,-0.407,0.871,-107.178,1.281,-200.135,0,0,0,
,0.303,-0.338,0.833,-248.597,-3.174,-231.568,0,0,0,
,0.267,-0.09,0.835,-218.14,-27.588,-252.076,0,0,0,
,0.292,-0.165,0.867,-124.207,-55.42,-276.856,0,0,0,
,0.395,-0.224,0.872,-194.764,-54.139,-287.903,0,0,0,
,0.518,-0.176,0.8,-279.48,-48.218,-285.462,0,0,0,
,0.591,-0.128,0.785,-352.539,-54.322,-287.171,0,0,0,
,0.64,0.022,0.835,-321.106,-75.318,-237.793,0,0,0,
,0.685,0.094,0.924,-239.319,-114.136,-144.165,0,0,0,
,0.635,-0.054,0.928,-186.89,-196.9,-80.323,0,0,0,
,0.519,-0.057,0.911,-241.211,-178.223,7.995,0,0,0,
,0.459,-0.191,0.794,-266.785,-88.379,43.273,0,0,0,
,0.347,-0.203,0.793,-216.675,-140.32,110.107,0,0,0,
,0.186,-0.091,1.044,-47.303,-229.554,131.164,0,0,0,
,-0.003,-0.12,1.099,96.496,-185.852,127.014,0,0,0,
,-0.062,-0.188,1.271,132.568,-155.457,146.362,0,0,0,
,-0.142,-0.261,1.065,-21.058,-124.634,138.672,0,0,0,
,-0.177,-0.211,0.99,-18.982,-99.732,153.076,0,0,0,
,-0.119,-0.459,0.828,55.297,-60.486,119.506,0,0,0,
,-0.146,-0.685,0.642,-102.906,-13.977,107.299,0,0,0,
,-0.195,-0.443,0.878,-95.52,52.063,106.75,0,0,0,
,-0.169,-0.501,1.093,49.56,102.172,87.646,0,0,0,
,-0.215,-0.724,1.167,-104.126,85.937,82.885,0,0,0,
,-0.296,-0.539,1.104,-203.736,70.678,20.507,0,0,0,
,-0.266,-0.634,0.986,-139.954,47.485,-39.185,0,0,0,
,-0.183,-0.614,0.882,-121.705,51.147,-81.665,0,0,0,
,-0.125,-0.513,0.896,-142.884,55.664,-131.958,0,0,0,
,0.009,-0.22,0.974,-33.448,40.405,-166.138,0,0,0,
,0.11,-0.098,1.173,61.645,-2.137,-148.377,0,0,0,
,0.224,-0.074,1.12,160.583,-9.217,-127.808,0,0,0,
,0.309,-0.116,0.998,157.653,-3.174,-110.291,0,0,0,
,0.254,-0.24,0.836,170.105,13.732,-122.498,0,0,0,
,0.163,-0.31,0.725,125.915,65.49,-147.339,0,0,0,
,0.279,-0.094,0.961,109.558,75.683,-158.387,0,0,0,
,0.219,-0.339,1.041,83.984,81.115,-140.809,0,0,0,
,0.311,-0.264,1.023,-27.588,87.585,-149.048,0,0,0,
,0.232,-0.243,0.964,-46.692,55.603,-165.284,0,0,0,
,0.199,-0.121,0.958,-29.114,41.992,-182.923,0,0,0,
,0.184,-0.035,0.919,13.183,6.103,-200.013,0,0,0,
,0.17,-0.217,0.971,96.923,-10.01,-209.595,0,0,0,
,0.115,-0.376,0.988,53.222,-22.4,-249.878,0,0,0,
,0.084,-0.408,0.963,-46.753,-9.217,-270.813,0,0,0,
,0.071,-0.284,0.882,-100.159,-12.513,-312.5,0,0,0,
,0.072,-0.184,0.943,-50.599,-14.344,-327.393,0,0,0,
,0.214,-0.293,1.14,16.784,5.676,-334.473,0,0,0,
,0.348,-0.375,1.239,-40.406,10.742,-331.116,0,0,0,
,0.416,-0.401,1.157,-234.192,16.723,-311.036,0,0,0,
,0.483,-0.102,1.022,-406.189,-0.123,-265.87,0,0,0,
,0.494,0.068,0.931,-437.928,-44.434,-208.069,0,0,0,
,0.476,0.185,0.816,-411.56,-67.383,-142.029,0,0,0,
,0.499,0.303,0.779,-318.665,-72.205,-83.435,0,0,0,
,0.554,0.202,0.847,-228.455,-115.723,-25.513,0,0,0,
,0.556,-0.027,0.812,-166.138,-170.044,-13.184,0,0,0,
,0.511,0.099,1.004,-177.613,-253.846,75.439,0,0,0,
,0.507,0.038,1.148,-101.685,-294.495,58.654,0,0,0,
,0.305,-0.147,1.003,-76.477,-347.474,50.537,0,0,0,
,0.115,-0.137,0.919,-147.339,-307.068,89.477,0,0,0,
,0.026,-0.014,0.819,-162.72,-220.276,106.872,0,0,0,
,-0.048,0.062,0.793,-70.069,-202.393,135.559,0,0,0,
,-0.14,0.086,0.824,106.994,-168.457,175.048,0,0,0,
,-0.214,-0.138,0.813,171.692,-91.004,170.837,0,0,0,
,-0.266,-0.224,0.823,43.151,-27.771,210.754,0,0,0,
,-0.266,-0.203,0.796,-86.365,98.571,225.158,0,0,0,
,-0.171,-0.228,0.802,-210.45,193.908,225.83,0,0,0,
,-0.124,-0.203,0.825,-222.352,182.983,204.895,0,0,0,
,-0.149,-0.215,0.982,-49.073,82.641,176.941,0,0,0,
,-0.192,-0.311,1.314,671.875,-103.028,-39.246,0,0,0,
,-0.081,-0.688,1.645,662.414,-214.783,96.252,0,0,0,
,-0.217,-0.476,1.291,-1.343,-168.152,8.483,0,0,0,
,-0.232,-0.401,1,26.611,-79.346,1.464,0,0,0,
,-0.09,-0.648,0.648,-306.153,79.528,-41.687,0,0,0,
,-0.009,-0.295,0.636,-692.688,137.939,13.732,0,0,0,
,0.011,0.089,0.565,-354.615,233.52,152.588,0,0,0,
,0.24,-0.318,1.244,89.782,157.837,224.182,0,0,0,
,0.08,-0.559,1.391,-418.946,183.288,168.335,0,0,0,
,-0.013,0.016,1.234,-688.965,205.139,94.421,0,0,0,
,0.024,0.031,0.981,-473.694,148.193,-2.747,0,0,0,
,-0.071,0.14,1.033,-306.397,47.119,-41.932,0,0,0,
,-0.042,0.172,1.03,-230.591,6.774,-74.036,0,0,0,
,0.128,0.09,1.036,-21.668,-47.181,-79.407,0,0,0,
,0.119,-0.06,1.013,56.64,-90.271,-71.289,0,0,0,
,0.141,0.098,0.917,10.864,-64.698,-88.013,0,0,0,
,0.126,0.182,0.866,105.59,-60.669,-87.952,0,0,0,
,0.131,0.104,0.925,208.191,-55.664,-78.736,0,0,0,
,0.112,0.073,1.074,243.652,-63.782,-83.741,0,0,0,
,0.132,-0.014,1.149,210.449,-72.266,-82.825,0,0,0,
,0.14,-0.064,1.037,141.418,-83.069,-98.389,0,0,0,
,0.07,-0.183,0.923,-17.273,-64.759,-95.215,0,0,0,
,0.071,0.012,0.888,-125.123,-19.471,-82.398,0,0,0,
,0.071,-0.006,0.952,2.441,-18.616,-70.13,0,0,0,
,0.005,-0.188,1.04,62.133,-14.466,-77.881,0,0,0,
,0.006,-0.337,1.093,-13.245,-19.349,-133.118,0,0,0,
,-0.028,-0.242,1.029,-117.859,-42.115,-202.027,0,0,0,
,0.005,0.002,0.953,-19.776,-59.998,-240.723,0,0,0,
,0.052,-0.059,0.992,215.454,-68.848,-231.324,0,0,0,
,0.025,-0.059,1.026,205.322,-46.936,-227.173,0,0,0,
,0.017,-0.054,1.038,263.305,-36.194,-233.826,0,0,0,
,-0.019,-0.278,1.075,319.152,-36.377,-265.076,0,0,0,
,-0.033,-0.283,1.038,245.788,-20.081,-317.383,0,0,0,
,-0.003,-0.087,0.979,284.607,17.211,-326.539,0,0,0,
,0.092,-0.127,0.987,377.563,56.884,-309.754,0,0,0,
,0.166,-0.28,1.021,329.834,105.041,-291.199,0,0,0,
,0.267,-0.268,1.139,9.765,159.668,-262.024,0,0,0,
,0.328,-0.106,1.134,-292.664,193.176,-233.582,0,0,0,
,0.335,0.303,0.998,-403.321,147.522,-212.708,0,0,0,
,0.263,0.544,0.843,-173.768,18.676,-170.472,0,0,0,
,0.227,0.267,0.842,95.214,-52.918,-115.296,0,0,0,
,0.195,0.206,1.022,33.874,-112.793,-41.932,0,0,0,
,0.274,0.201,1.106,-31.617,-161.805,-0.977,0,0,0,
,0.259,0.192,1.134,-72.937,-272.156,20.874,0,0,0,
,0.19,0.266,1.101,-64.148,-324.341,52.246,0,0,0,
,0.23,0.09,0.966,-2.015,-332.581,94.848,0,0,0,
,0.005,-0.001,0.985,-89.661,-353.394,134.094,0,0,0,
,-0.124,-0.051,0.916,-226.319,-261.048,142.7,0,0,0,
,-0.114,-0.014,0.845,-293.274,-203.858,172.607,0,0,0,
,-0.17,0.015,0.887,-286.316,-173.218,179.077,0,0,0,
,-0.217,-0.012,0.836,-268.128,-115.906,186.767,0,0,0,
,-0.214,-0.09,0.791,-292.176,-64.087,204.773,0,0,0,
,-0.225,-0.068,0.816,-349.976,-9.461,222.229,0,0,0,
,-0.214,-0.13,0.766,-319.825,45.227,214.05,0,0,0,
,-0.176,-0.253,0.804,-324.952,84.655,201.965,0,0,0,
,-0.144,-0.201,0.88,-421.448,113.159,199.463,0,0,0,
,-0.151,-0.017,0.994,-450.684,117.92,170.166,0,0,0,
,-0.182,0.123,1.347,-80.262,7.751,67.504,0,0,0,
,0.258,0.064,1.778,362.732,-251.343,374.572,0,0,0,
,-0.301,-0.565,1.286,-386.658,-329.407,-97.962,0,0,0,
,-0.361,0.02,0.966,-551.087,-78.492,60.302,0,0,0,
,-0.08,-0.039,0.646,-309.266,61.645,-8.057,0,0,0,
,-0.054,-0.01,0.629,-116.517,43.64,-11.536,0,0,0,
,0.031,0.022,0.836,191.833,3.051,-19.227,0,0,0,
,0.024,-0.308,1.152,241.394,-34.974,-78.736,0,0,0,
,-0.063,-0.287,1.437,-35.462,-0.367,-120.667,0,0,0,
,-0.049,0.123,1.29,-303.772,17.456,-163.147,0,0,0,
,-0.058,0.221,0.961,-235.779,-48.645,-187.5,0,0,0,
,-0.125,0.226,0.825,-128.052,-90.821,-183.472,0,0,0,
,-0.038,0.183,0.897,19.836,-119.141,-215.516,0,0,0,
,-0.063,0.026,1.017,108.703,-182.19,-259.888,0,0,0,
,-0.085,-0.215,0.976,57.556,-171.448,-286.744,0,0,0,
,-0.068,-0.146,0.901,-34.18,-127.198,-302.43,0,0,0,
,-0.026,-0.25,0.82,-109.986,-108.582,-319.214,0,0,0,
,-0.021,-0.116,0.91,-57.74,-73.609,-339.173,0,0,0,
,0.003,-0.051,1.085,6.347,-92.408,-365.418,0,0,0,
,-0.067,-0.035,1.187,28.625,-108.521,-371.46,0,0,0,
,-0.136,0.02,1.131,24.108,-81.727,-353.455,0,0,0,
,-0.133,0.108,0.999,79.406,-49.988,-317.872,0,0,0,
,-0.115,0.006,0.901,125.793,-14.588,-265.442,0,0,0,
,-0.063,-0.004,0.919,156.128,22.888,-241.578,0,0,0,
,-0.074,0.02,0.991,190.002,38.269,-228.943,0,0,0,
,-0.094,0.119,1.055,212.768,49.316,-204.102,0,0,0,
,-0.064,0.073,1.137,231.811,46.142,-167.786,0,0,0,
,-0.072,0.107,1.124,133.239,34.484,-141.297,0,0,0,
,-0.028,0.068,1.027,85.876,-16.175,-146.424,0,0,0,
,-0.055,0.02,1.022,68.359,-105.774,-175.415,0,0,0,
,-0.045,0.066,1.086,-2.747,-90.516,-198.182,0,0,0,
,-0.045,0.049,1.001,-145.142,-71.473,-219.605,0,0,0,
,-0.037,0.247,0.811,-276.551,43.335,-201.05,0,0,0,
,0.059,0.39,0.736,-188.843,78.735,-157.776,0,0,0,
,-0.104,0.311,0.765,-67.749,158.264,-129.639,0,0,0,
,0.035,0.234,0.957,-42.847,76.416,-101.136,0,0,0,
,-0.045,0.14,1.041,-40.589,24.597,-80.262,0,0,0,
,-0.099,0.143,1.07,-252.015,12.512,-76.6,0,0,0,
,-0.124,0.428,1.01,-308.35,-32.654,-65.674,0,0,0,
,-0.009,0.494,1.155,-193.604,-86.976,29.052,0,0,0,
,0.01,0.247,0.881,-235.718,-62.745,99.06,0,0,0,
,0.009,0.393,0.992,-258.728,-52.308,197.937,0,0,0,
,-0.023,0.164,1.041,-153.382,-49.073,225.647,0,0,0,
,-0.08,0.027,1.013,-233.643,-10.621,242.92,0,0,0,
,-0.105,0.156,1.022,-253.724,18.005,244.69,0,0,0,
,-0.118,0.143,1.055,-110.596,-0.184,220.52,0,0,0,
,-0.157,0.002,1.026,-47.425,-10.987,196.411,0,0,0,
,-0.206,0.008,1.011,-90.149,0.915,176.33,0,0,0,
,-0.218,0.087,0.988,-65.674,18.92,155.761,0,0,0,
,-0.242,0.08,0.952,-52.43,36.926,139.953,0,0,0,
,-0.25,0.083,0.89,-62.561,75.988,131.53,0,0,0,
,-0.218,0.043,0.771,-99.488,121.704,137.329,0,0,0,
,-0.189,0.123,0.776,-162.598,155.09,152.832,0,0,0,
,-0.166,0.204,0.838,-136.78,201.477,170.166,0,0,0,
,-0.158,0.189,0.851,-70.923,246.765,159.912,0,0,0,
,-0.159,0.172,0.839,-79.163,270.935,151.55,0,0,0,
,-0.149,0.237,0.958,-3.846,270.507,102.905,0,0,0,
,0.148,0.418,1.507,357.36,121.948,318.115,0,0,0,
,-0.088,0.114,1.357,-146.546,59.814,68.359,0,0,0,
,-0.176,0.36,1.061,-182.312,120.971,170.593,0,0,0,
,-0.048,0.21,0.994,-113.648,106.811,125.061,0,0,0,
,-0.073,0.125,0.931,-131.836,58.532,114.013,0,0,0,
,-0.074,0.01,1.061,-55.909,44.738,53.955,0,0,0,
,-0.046,-0.009,1.058,-18.738,40.405,-2.503,0,0,0,
,-0.084,-0.053,1.022,-12.024,16.845,-74.769,0,0,0,
,-0.103,0.085,0.937,-134.461,28.625,-128.602,0,0,0,
,-0.006,0.247,0.824,-10.01,17.334,-159.974,0,0,0,
,0.008,0.095,0.872,174.438,-53.101,-195.13,0,0,0,
,0.014,0.11,0.986,179.382,-71.839,-232.361,0,0,0,
,0.031,0.207,1.073,159.484,-104.798,-240.235,0,0,0,
,-0.042,0.195,1.036,118.225,-111.39,-231.873,0,0,0,
,-0.083,0.244,0.911,27.099,-71.289,-203.431,0,0,0,
,-0.06,0.219,0.943,118.774,-82.337,-216.98,0,0,0,
,-0.066,0.12,0.931,156.067,-74.097,-237.915,0,0,0,
,-0.038,0.182,0.947,100.83,-37.964,-228.882,0,0,0,
,-0.027,0.302,0.951,71.838,-15.503,-197.998,0,0,0,
,-0.066,0.231,0.961,83.252,-14.71,-161.988,0,0,0,
,-0.064,0.26,0.988,68.42,3.723,-123.78,0,0,0,
,-0.082,0.215,1.007,70.617,-7.63,-111.695,0,0,0,
,-0.085,0.238,1.026,28.015,-12.818,-99.488,0,0,0,
,-0.068,0.247,0.97,28.808,-30.335,-86.548,0,0,0,
,-0.073,0.168,0.881,32.531,-38.697,-77.088,0,0,0,
,-0.05,0.107,0.906,29.724,-27.466,-84.229,0,0,0,
,-0.034,0.041,0.969,54.016,-29.358,-98.511,0,0,0,
,-0.051,0.069,1.054,70.861,-23.56,-105.103,0,0,0,
,-0.063,0.012,1.088,99.426,-35.401,-117.432,0,0,0,
,-0.147,0.139,1.041,90.21,-32.471,-133.545,0,0,0,
,-0.107,0.081,0.986,273.437,-13.733,-152.955,0,0,0,
,-0.035,0.028,1.027,371.215,-14.954,-159.79,0,0,0,
,-0.052,-0.038,1.068,399.231,5.798,-175.354,0,0,0,
,-0.023,-0.109,1.171,410.827,-3.846,-188.843,0,0,0,
,-0.102,-0.12,1.164,318.603,11.291,-204.773,0,0,0,
,-0.055,-0.038,1.094,252.136,38.635,-212.708,0,0,0,
,-0.004,0.204,1.07,213.256,48.828,-193.543,0,0,0,
,-0.005,0.296,0.97,196.045,72.326,-165.955,0,0,0,
,0.022,0.259,0.956,192.688,91.308,-101.502,0,0,0,
,0.018,0.212,0.94,135.925,99.792,-57.679,0,0,0,
,-0.006,0.255,0.915,60.058,99.67,-27.405,0,0,0,
,-0.003,0.296,0.847,69.152,68.908,33.63,0,0,0,
,0.033,0.32,0.98,95.275,32.104,44.189,0,0,0,
,0.11,0.047,0.917,78.308,24.414,65.856,0,0,0,
,0.187,0.348,1.104,-152.161,-17.151,60.241,0,0,0,
,0.102,0.22,0.907,-16.236,-88.135,93.994,0,0,0,
,-0.025,0.22,1.061,-38.88,-134.278,130.615,0,0,0,
,-0.065,0.065,1.078,-40.711,-128.968,132.751,0,0,0,
,-0.097,0.048,1.002,-121.766,-106.873,158.63,0,0,0,
,-0.167,0.036,0.892,-131.104,-83.497,187.805,0,0,0,
,-0.253,0.066,0.861,-197.51,-45.533,195.129,0,0,0,
,-0.303,0.139,0.875,-180.848,-9.705,196.106,0,0,0,
,-0.311,0.098,0.898,-115.418,8.606,211.425,0,0,0,
,-0.328,0.063,0.898,-136.597,41.809,228.088,0,0,0,
,-0.179,0.091,0.777,-236.939,172.241,291.015,0,0,0,
,-0.128,0.082,0.798,-224.915,200.988,308.471,0,0,0,
,-0.06,0.155,0.887,-241.456,229.065,316.894,0,0,0,
,0.008,0.191,0.987,-192.322,237.976,312.011,0,0,0,
,0.01,0.184,1.031,-183.716,218.567,293.029,0,0,0,
,0.259,0.379,1.723,198.12,18.798,205.139,0,0,0,
,0.321,0.132,1.502,53.527,-110.474,339.66,0,0,0,
,-0.212,-0.207,1.045,-465.332,-74.036,106.75,0,0,0,
,-0.08,0.252,0.797,-331.055,120.605,132.69,0,0,0,
,0.04,-0.062,0.607,-141.297,98.693,42.907,0,0,0,
,-0.069,-0.016,0.689,-13.306,79.711,57.495,0,0,0,
,0.001,-0.164,0.933,103.515,105.163,33.63,0,0,0,
,-0.004,-0.094,1.258,81.909,36.315,-2.076,0,0,0,
,-0.178,-0.191,1.449,-53.345,4.516,-62.684,0,0,0,
,-0.125,0.113,1.375,-201.111,-5.921,-122.803,0,0,0,
,-0.06,0.182,1.122,-140.809,-87.586,-149.048,0,0,0,
,-0.008,0.216,0.902,-51.209,-129.944,-152.466,0,0,0,
,0.01,0.255,0.851,45.532,-159.546,-143.067,0,0,0,
,-0.012,0.229,0.792,111.877,-155.213,-117.371,0,0,0,
,-0.061,0.075,0.724,86.059,-98.267,-103.333,0,0,0,
,-0.051,0.046,0.853,21.179,-46.021,-103.516,0,0,0,
,-0.06,0.181,1.048,-37.415,-17.151,-115.418,0,0,0,
,-0.059,0.222,1.097,-37.354,-31.739,-130.127,0,0,0,
,-0.097,0.243,1.053,-49.073,-67.322,-134.217,0,0,0,
,-0.104,0.284,0.944,-59.144,-66.895,-116.761,0,0,0,
,-0.058,0.263,0.885,-18.372,-51.575,-69.031,0,0,0,
,-0.09,0.156,0.873,-62.867,-28.016,-45.044,0,0,0,
,-0.05,0.173,0.908,-87.342,9.948,-37.964,0,0,0,
,-0.055,0.142,1.018,-81.91,0.915,-46.021,0,0,0,
,-0.098,0.201,1.029,-112.122,11.352,-45.777,0,0,0,
,-0.099,0.18,1.02,-71.717,9.033,-34.18,0,0,0,
,-0.086,0.17,1.044,-40.467,1.648,-19.593,0,0,0,
,-0.083,0.202,1.042,-21.18,-20.63,-17.579,0,0,0,
,-0.055,0.259,1.012,-11.841,-31.25,-13.672,0,0,0,
,-0.052,0.31,0.992,41.015,-62.256,2.197,0,0,0,
,-0.12,0.175,0.929,81.481,-83.008,13.977,0,0,0,
,-0.134,0.093,0.923,77.453,-71.045,10.437,0,0,0,
,-0.077,0.114,1.009,69.824,-46.936,-5.86,0,0,0,
,-0.037,0.158,1.075,43.579,-56.275,-28.748,0,0,0,
,-0.094,0.271,1.081,15.686,-50.293,-48.096,0,0,0,
,-0.104,0.237,1.006,74.523,-43.641,-47.913,0,0,0,
,-0.165,0.107,0.872,36.804,-30.213,-45.044,0,0,0,
,-0.127,0.177,0.815,6.469,13.61,-31.373,0,0,0,
,-0.072,0.24,0.926,69.213,18.981,-10.682,0,0,0,
,-0.101,0.169,1.054,84.289,11.047,-4.883,0,0,0,
,-0.116,0.144,1.07,26.855,12.023,-25.391,0,0,0,
,-0.1,0.154,1.011,23.193,-0.672,-59.205,0,0,0,
,-0.101,0.191,0.923,34.606,-20.569,-77.881,0,0,0,
,-0.099,0.208,0.905,96.923,-21.668,-70.618,0,0,0,
,-0.099,0.164,0.973,129.455,-31.067,-65.857,0,0,0,
,-0.096,0.13,1.033,118.774,-21.729,-76.233,0,0,0,
,-0.11,0.119,1.039,98.327,-31.067,-94.544,0,0,0,
,-0.136,0.054,1.012,72.387,-34.913,-116.333,0,0,0,
,-0.139,0.139,0.985,65.002,-21.729,-123.536,0,0,0,
,-0.069,0.084,0.966,190.49,0.366,-127.076,0,0,0,
,-0.081,0.006,0.997,199.463,-7.996,-131.897,0,0,0,
,-0.118,0.07,0.98,117.126,13,-138.489,0,0,0,
,-0.106,0.183,0.924,121.704,48.339,-134.705,0,0,0,
,-0.085,0.193,0.921,158.874,66.162,-120.728,0,0,0,
,-0.067,0.181,0.985,180.542,71.899,-99.305,0,0,0,
,-0.069,0.131,1.032,128.662,36.01,-74.891,0,0,0,
,-0.138,0.172,1.06,56.213,17.7,-65.43,0,0,0,
,-0.144,0.196,1.047,50.048,26.184,-59.571,0,0,0,
,-0.103,0.137,1.018,83.679,15.197,-59.205,0,0,0,
,-0.062,0.06,0.986,112.793,14.709,-66.834,0,0,0,
,-0.05,-0.046,0.958,68.237,17.517,-78.553,0,0,0,
,-0.048,-0.035,0.944,3.662,30.212,-97.657,0,0,0,
,-0.04,0.013,0.954,-10.132,31.921,-122.864,0,0,0,
,-0.06,0.04,0.963,12.939,28.808,-158.448,0,0,0,
,-0.073,0.043,0.974,41.32,36.804,-190.735,0,0,0,
,-0.054,0.05,1.002,47.058,21.423,-222.352,0,0,0,
,-0.065,0.06,1.023,66.162,-0.916,-247.193,0,0,0,
,-0.047,0.092,1.033,51.818,-15.686,-254.395,0,0,0,
,-0.012,0.185,1.064,29.48,-44.556,-228.638,0,0,0,
,0.012,0.272,1.124,33.63,-68.604,-218.384,0,0,0,
,0.125,0.327,1.211,43.212,-95.032,-195.557,0,0,0,
,0.207,0.276,1.121,-61.646,-134.217,-128.785,0,0,0,
,0.105,0.404,1.03,-122.01,-185.547,-69.275,0,0,0,
,0.081,0.428,1.141,-50.782,-196.595,5.432,0,0,0,
,-0.035,0.322,0.967,-37.842,-163.819,44.128,0,0,0,
,-0.193,0.326,0.848,-83.374,-117.737,109.802,0,0,0,
,-0.269,0.299,0.805,-144.227,-45.96,163.269,0,0,0,
,-0.251,0.286,0.78,-178.101,9.338,223.449,0,0,0,
,-0.292,0.248,0.777,-163.086,28.808,286.682,0,0,0,
,-0.328,0.175,0.769,-146.119,34.301,314.941,0,0,0,
,-0.375,0.112,0.79,-127.503,36.499,323.73,0,0,0,
,-0.391,0.031,0.793,-150.452,60.363,309.57,0,0,0,
,-0.369,-0.011,0.772,-164.856,91.919,290.954,0,0,0,
,-0.323,-0.06,0.779,-157.044,103.759,260.62,0,0,0,
,-0.279,-0.083,0.815,-156.983,112.915,220.642,0,0,0,
,-0.203,-0.047,0.884,-136.353,139.831,176.818,0,0,0,
,-0.144,-0.028,0.945,-130.677,164.245,110.229,0,0,0,
,-0.087,0.037,1.016,-148.499,191.345,99.67,0,0,0,
,-0.009,0.112,1.077,-172.913,229.614,77.026,0,0,0,
,0.111,0.389,1.461,67.016,142.883,41.015,0,0,0,
,0.425,0.197,1.417,189.026,-41.443,143.982,0,0,0,
,-0.093,-0.532,1.135,-159.974,-248.414,-97.901,0,0,0,
,-0.297,0.02,0.914,-331.91,31.86,-71.473,0,0,0,
,-0.056,-0.028,0.787,-231.812,143.432,-149.109,0,0,0,
,-0.035,0.056,0.775,10.62,10.803,-148.926,0,0,0,
,-0.207,-0.209,0.984,246.704,-22.583,-210.267,0,0,0,
,-0.231,-0.337,1.179,296.875,12.634,-298.768,0,0,0,
,-0.248,-0.315,1.4,189.087,-10.437,-384.644,0,0,0,
,-0.096,0.186,1.512,-21.607,-47.181,-359.375,0,0,0,
,-0.113,0.321,1.137,-178.65,-108.094,-347.29,0,0,0,
,-0.053,0.494,0.802,-81.177,-83.252,-279.602,0,0,0,
,0.039,0.359,0.746,113.952,-90.455,-212.769,0,0,0,
,0.012,0.287,0.854,257.141,-77.698,-161.499,0,0,0,
,-0.018,0.088,0.968,213.256,-30.091,-109.436,0,0,0,
,-0.115,-0.01,0.861,-61.585,44.067,-101.441,0,0,0,
,-0.126,0.207,0.718,-269.288,127.502,-112.732,0,0,0,
,-0.024,0.408,0.776,-53.406,100.097,-132.081,0,0,0,
,-0.066,0.357,0.974,257.995,-15.076,-139.222,0,0,0,
,-0.063,0.089,1.082,103.759,-56.275,-117.127,0,0,0,
,-0.082,0.134,0.97,7.629,-33.814,-105.713,0,0,0,
,-0.067,0.178,0.874,22.705,-21.851,-106.019,0,0,0,
,-0.095,0.206,0.891,106.75,-7.752,-101.624,0,0,0,
,-0.092,0.146,0.884,151.306,16.113,-101.258,0,0,0,
,-0.098,0.087,0.916,113.464,37.292,-98.084,0,0,0,
,-0.084,0.093,0.929,35.888,69.519,-88.257,0,0,0,
,-0.129,0.188,0.959,30.578,71.106,-99.488,0,0,0,
,-0.092,0.184,0.947,85.632,113.22,-93.384,0,0,0,
,0.009,0.173,1.03,88.684,92.285,-78.37,0,0,0,
,-0.009,0.2,1.048,67.443,90.21,-58.167,0,0,0,
,0.048,0.267,1.084,33.691,104.126,-23.743,0,0,0,
,0.178,0.285,1.125,21.667,65.307,46.02,0,0,0,
,0.167,0.295,1.137,51.33,-3.968,76.599,0,0,0,
,0.071,0.141,0.976,-64.698,0.244,132.141,0,0,0,
,-0.015,0.291,0.997,-90.149,-2.503,194.641,0,0,0,
,-0.135,0.223,1.046,10.864,-10.682,158.935,0,0,0,
,-0.196,0.138,0.981,22.888,33.203,184.509,0,0,0,
,-0.209,0.142,0.924,-19.227,52.978,202.636,0,0,0,
,-0.209,0.138,0.873,-76.6,56.701,220.031,0,0,0,
,-0.213,0.168,0.828,-81.116,66.833,247.741,0,0,0,
,-0.233,0.167,0.825,-35.95,76.66,269.592,0,0,0,
,-0.251,0.143,0.871,-5.616,91.064,288.025,0,0,0,
,-0.241,0.117,0.903,-4.456,129.455,302.429,0,0,0,
,-0.19,0.085,0.908,-19.898,175.72,307.678,0,0,0,
,-0.119,0.033,0.897,-60.73,224.487,306.823,0,0,0,
,-0.054,0.036,0.904,-107.117,258.789,302.185,0,0,0,
,0.173,0.125,1.364,306.823,120.056,205.322,0,0,0,
,0.383,-0.108,1.554,306.884,39.001,288.818,0,0,0,
,0.034,-0.527,1.087,-64.331,-57.496,27.465,0,0,0,
,-0.162,-0.103,0.977,-200.928,-18.372,127.502,0,0,0,
,-0.177,-0.294,0.919,-177.857,53.711,-53.467,0,0,0,
,-0.122,-0.098,0.961,-88.501,18.737,13.427,0,0,0,
,-0.173,-0.244,1.042,36.438,-28.565,-87.037,0,0,0,
,-0.22,-0.354,1.04,-111.756,13.366,-111.756,0,0,0,
,-0.171,-0.017,1.167,-295.777,74.462,-118.164,0,0,0,
,-0.097,0.219,1.195,-230.408,33.447,-136.475,0,0,0,
,-0.12,0.04,1.147,-210.144,-21.363,-160.706,0,0,0,
,-0.11,0.138,0.928,-343.262,1.464,-163.636,0,0,0,
,0.027,0.286,0.66,-255.86,51.269,-161.438,0,0,0,
,0.082,0.308,0.625,64.758,44.189,-152.832,0,0,0,
,0.009,0.088,0.737,258.728,59.631,-168.03,0,0,0,
,-0.011,0.026,1.029,203.491,122.863,-162.659,0,0,0,
,-0.025,0.153,1.018,94.604,129.821,-190.918,0,0,0,
,-0.057,0.154,1.062,5.737,105.346,-217.591,0,0,0,
,-0.007,0.427,1.023,40.771,95.214,-206.421,0,0,0,
,0.115,0.443,1.132,32.653,63.598,-177.674,0,0,0,
,0.059,0.42,0.921,262.207,12.878,-179.688,0,0,0,
,0.027,0.083,0.883,273.376,63.415,-148.011,0,0,0,
,0.094,0.278,1.082,199.463,111.694,-126.465,0,0,0,
,0.078,0.316,1.107,269.043,93.811,-124.634,0,0,0,
,0.009,0.231,1.081,247.497,91.369,-94.178,0,0,0,
,0.017,0.08,1.08,235.656,93.078,-84.961,0,0,0,
,0.015,0.047,1.026,150.695,100.097,-66.224,0,0,0,
,0.017,0.005,0.939,134.521,115.112,-70.252,0,0,0,
,0.098,0.018,0.925,149.109,141.54,-81.727,0,0,0,
,0.195,0.071,0.861,201.904,156.555,-95.459,0,0,0,
,0.231,0.216,0.884,265.319,96.069,-64.454,0,0,0,
,0.229,0.326,1.046,266.601,0.366,-13.306,0,0,0,
,0.17,0.301,0.872,205.322,2.807,27.282,0,0,0,
,0.172,0.244,0.996,94.787,-63.782,138.61,0,0,0,
,0.135,0.319,0.94,51.33,-36.377,231.323,0,0,0,
,0.053,0.224,0.962,250.732,-102.234,259.948,0,0,0,
,-0.072,0.011,0.893,383.972,-98.206,274.292,0,0,0,
,-0.175,-0.054,0.901,397.827,-79.834,293.64,0,0,0,
,-0.232,-0.079,0.92,366.088,-28.138,309.875,0,0,0,
,-0.258,-0.164,0.908,322.082,20.202,300.842,0,0,0,
,-0.254,-0.243,0.905,307.434,58.105,318.115,0,0,0,
,-0.249,-0.333,0.875,300.659,49.987,326.11,0,0,0,
,-0.251,-0.41,0.876,274.902,44.006,317.016,0,0,0,
,-0.264,-0.442,0.884,327.27,42.297,292.175,0,0,0,
,-0.253,-0.345,0.929,418.151,59.57,290.466,0,0,0,
,-0.186,-0.234,0.886,446.533,94.482,258.3,0,0,0,
,-0.102,-0.175,0.998,392.334,106.933,257.629,0,0,0,
,-0.088,-0.171,0.923,485.778,144.653,235.534,0,0,0,
,-0.034,-0.245,0.973,502.563,198.913,229.004,0,0,0,
,0.061,-0.131,0.965,432.861,256.042,267.517,0,0,0,
,0.166,0.054,1,432.251,284.607,289.978,0,0,0,
,0.258,0.012,1.059,518.31,256.164,296.692,0,0,0,
,0.305,-0.273,1.061,473.999,232.116,301.513,0,0,0,
,0.461,-0.616,1.572,342.163,52.917,172.424,0,0,0,
,0.375,-0.189,1.25,51.635,114.196,216.003,0,0,0,
,0.263,0.048,1.037,126.342,145.752,158.447,0,0,0,
,0.236,-0.17,0.867,109.008,187.927,171.508,0,0,0,
,0.216,-0.141,0.729,-3.663,227.783,194.397,0,0,0,
,0.133,-0.2,0.695,-46.143,262.146,222.839,0,0,0,
,0.1,-0.178,0.7,-117.859,317.138,266.723,0,0,0,
,0.137,-0.254,0.699,-197.571,388.977,257.385,0,0,0,
,0.215,-0.37,1.388,-271.729,263.305,284.118,0,0,0,
,0.117,-0.368,0.899,-366.089,203.308,185.241,0,0,0,
,0.141,-0.177,0.867,-617.005,219.116,151.489,0,0,0,
,0.268,0.086,0.996,-518.006,185.974,119.079,0,0,0,
,0.341,0.038,1.212,-221.68,142.273,147.644,0,0,0,
,0.263,-0.218,1.035,-181.519,59.875,88.195,0,0,0,
,0.267,-0.098,0.994,-8.362,-25.147,57.8,0,0,0,
,0.258,-0.125,0.924,91.857,-86.365,25.146,0,0,0,
,0.298,0.027,0.952,162.78,-130.066,20.874,0,0,0,
,0.242,-0.122,0.933,203.491,-152.222,18.371,0,0,0,
,0.299,-0.196,0.859,88.012,-146.546,-5.31,0,0,0,
,0.255,-0.062,0.805,-47.242,-110.962,-9.949,0,0,0,
,0.285,-0.11,0.823,-13.428,-91.797,16.784,0,0,0,
,0.266,-0.232,1.094,-35.706,-57.129,27.771,0,0,0,
,0.273,-0.089,1.172,-23.682,-65.369,-2.015,0,0,0,
,0.143,-0.159,0.995,27.099,-60.975,-24.476,0,0,0,
,0.06,-0.228,0.944,5.676,-49.378,-50.782,0,0,0,
,0.035,-0.272,0.929,10.62,-41.199,-76.05,0,0,0,
,0.051,-0.269,1.053,-18.982,-33.326,-82.947,0,0,0,
,0.112,-0.176,1.148,28.564,-42.359,-93.384,0,0,0,
,0.086,-0.237,1.037,0.244,-45.227,-118.47,0,0,0,
,0.047,-0.189,0.912,38.086,-41.626,-119.324,0,0,0,
,0.088,-0.206,0.833,39.306,-4.456,-114.685,0,0,0,
,0.186,-0.218,0.873,-2.381,34.973,-93.445,0,0,0,
,0.295,-0.156,0.958,-24.476,53.527,-62.5,0,0,0,
,0.327,-0.156,1.039,-9.4,64.27,-50.965,0,0,0,
,0.333,-0.021,1.105,9.155,45.959,-48.523,0,0,0,
,0.286,-0.062,0.969,-1.77,45.41,-66.834,0,0,0,
,0.314,-0.029,0.923,45.654,33.569,-63.294,0,0,0,
,0.306,-0.044,0.959,86.486,20.08,-74.036,0,0,0,
,0.292,-0.038,1.007,94.36,-3.052,-83.191,0,0,0,
,0.269,-0.103,0.906,100.647,-25.452,-108.643,0,0,0,
,0.196,-0.107,0.839,110.717,-42.115,-121.644,0,0,0,
,0.182,-0.148,0.926,113.586,-49.866,-121.216,0,0,0,
,0.214,-0.128,1.056,85.266,-56.58,-125.428,0,0,0,
,0.193,-0.203,1.029,65.734,-56.58,-141.175,0,0,0,
,0.131,-0.253,0.995,76.416,-38.941,-139.1,0,0,0,
,0.123,-0.254,1.022,48.156,-27.344,-142.64,0,0,0,
,0.123,-0.24,1.087,36.499,-18.555,-152.283,0,0,0,
,0.149,-0.206,1.074,62.133,-4.151,-155.152,0,0,0,
,0.173,-0.249,1.005,176.086,-8.973,-128.602,0,0,0,
,0.131,-0.319,0.996,152.526,9.338,-131.409,0,0,0,
,0.087,-0.252,0.99,153.93,29.357,-135.804,0,0,0,
,0.056,-0.043,0.743,145.019,94.665,-154.664,0,0,0,
,0.212,-0.364,0.824,51.025,133.178,-132.813,0,0,0,
,0.276,-0.076,1.021,106.994,100.647,-128.724,0,0,0,
,0.201,-0.204,1.008,72.265,100.158,-156.922,0,0,0,
,0.204,-0.227,0.999,32.653,108.947,-185.181,0,0,0,
,0.262,-0.126,1.068,53.283,97.106,-218.811,0,0,0,
,0.327,-0.131,0.944,57.495,108.276,-246.766,0,0,0,
,0.366,-0.078,0.854,60.241,118.774,-245.179,0,0,0,
,0.403,-0.116,0.938,54.138,113.159,-219.971,0,0,0,
,0.463,-0.15,1.005,-33.692,92.834,-194.397,0,0,0,
,0.526,-0.152,0.986,-156.739,59.265,-152.466,0,0,0,
,0.566,-0.15,0.933,-197.51,11.84,-108.338,0,0,0,
,0.533,-0.17,0.931,-190.979,-54.566,-82.764,0,0,0,
,0.496,-0.107,0.965,-302.857,-126.648,-85.328,0,0,0,
,0.621,0.064,1.002,-301.331,-187.073,-35.645,0,0,0,
,0.573,-0.005,0.8,-200.989,-198.548,-19.654,0,0,0,
,0.564,0.014,0.903,-175.965,-205.994,48.278,0,0,0,
,0.5,-0.089,0.784,-20.63,-184.388,54.382,0,0,0,
,0.492,-0.036,0.909,26.367,-166.26,125.488,0,0,0,
,0.387,-0.149,0.871,51.513,-107.117,138.122,0,0,0,
,0.238,-0.152,0.808,11.169,-26.917,158.02,0,0,0,
,0.127,-0.13,0.694,40.771,55.297,159.423,0,0,0,
,0.029,0.038,0.742,142.639,133.484,177.124,0,0,0,
,0.017,-0.009,0.791,228.637,218.444,191.162,0,0,0,
,-0.035,-0.092,0.725,176.269,303.527,200.988,0,0,0,
,-0.195,-0.981,2.1,707.092,-47.425,-67.139,0,0,0,
,0.138,-0.573,1.251,-204.102,11.291,215.698,0,0,0,
,0.228,0.016,1.009,-58.838,-60.975,82.153,0,0,0,
,0.047,-0.254,0.867,91.003,-41.016,142.578,0,0,0,
,0.058,-0.287,0.699,-33.631,74.768,177.368,0,0,0,
,0.097,-0.406,0.643,-159.363,150.146,187.255,0,0,0,
,-0.032,-0.443,0.648,-152.344,209.106,178.039,0,0,0,
,-0.054,-0.383,1.234,67.871,177.734,187.744,0,0,0,
,-0.13,-0.542,1.448,257.751,110.595,164.856,0,0,0,
,-0.276,-0.495,1.357,-45.105,69.152,67.321,0,0,0,
,-0.258,-0.5,0.981,-117.859,18.31,39.245,0,0,0,
,-0.218,-0.485,0.907,150.634,-3.235,48.278,0,0,0,
,-0.009,-0.437,1.14,304.077,-28.26,58.898,0,0,0,
,0.004,-0.37,0.675,241.211,-45.044,-36.194,0,0,0,
,-0.009,-0.482,0.564,283.691,6.347,-48.462,0,0,0,
,0.07,-0.484,0.83,179.382,78.735,-39.368,0,0,0,
,0.316,-0.271,1.19,129.455,55.969,-11.597,0,0,0,
,0.217,-0.319,1.184,239.441,0.976,-46.509,0,0,0,
,0.097,-0.29,0.924,127.624,15.502,-102.845,0,0,0,
,0.209,-0.273,0.792,87.585,23.986,-108.582,0,0,0,
,0.303,-0.24,0.767,78.369,59.997,-115.113,0,0,0,
,0.307,-0.247,0.916,62.866,71.106,-113.587,0,0,0,
,0.282,-0.3,0.979,3.967,73.181,-119.629,0,0,0,
,0.312,-0.207,1.022,-20.63,63.537,-132.508,0,0,0,
,0.25,-0.185,1.002,-27.283,34.79,-153.382,0,0,0,
,0.219,-0.171,0.927,28.442,8.239,-161.316,0,0,0,
,0.269,-0.3,0.956,70.617,5.676,-155.579,0,0,0,
,0.281,-0.3,1.01,73.364,5.676,-156.556,0,0,0,
,0.24,-0.299,0.979,48.217,10.803,-149.598,0,0,0,
,0.199,-0.289,0.896,34.668,40.222,-144.654,0,0,0,
,0.225,-0.312,0.944,81.665,57.983,-142.395,0,0,0,
,0.203,-0.259,0.99,118.164,51.635,-150.269,0,0,0,
,0.228,-0.277,1.04,161.926,35.461,-152.832,0,0,0,
,0.198,-0.344,0.98,92.102,40.344,-150.757,0,0,0,
,0.221,-0.246,0.826,42.968,60.241,-160.462,0,0,0,
,0.321,-0.303,0.846,93.933,69.519,-170.044,0,0,0,
,0.378,-0.285,0.905,-7.63,93.444,-195.679,0,0,0,
,0.472,-0.212,0.972,-90.271,102.783,-196.839,0,0,0,
,0.452,-0.308,0.871,-263.55,120.971,-207.947,0,0,0,
,0.494,-0.258,0.882,-376.709,105.774,-180.481,0,0,0,
,0.521,-0.209,0.898,-440.247,62.5,-157.532,0,0,0,
,0.537,-0.158,0.939,-517.456,34.79,-126.282,0,0,0,
,0.54,-0.091,0.985,-554.139,-41.81,-116.15,0,0,0,
,0.489,-0.17,0.983,-601.258,-122.437,-147.217,0,0,0,
