TIMECODE,ACC_X,ACC_Y,ACC_Z,GYR_X,GYR_Y,GYR_Z,TAG
00:00:00:0,-0.046,-0.515,0.873,1.464,7.507,-23.194,
00:00:00:16,-0.052,-0.51,0.878,1.586,7.751,-24.72,
00:00:00:33,-0.052,-0.508,0.88,4.699,10.192,-23.56,
00:00:00:50,-0.047,-0.506,0.881,5.432,7.324,-22.339,
00:00:00:66,-0.047,-0.507,0.878,6.53,4.516,-22.034,
00:00:00:83,-0.051,-0.512,0.881,7.69,3.173,-20.447,
00:00:00:100,-0.055,-0.51,0.877,5.127,6.53,-20.447,
00:00:00:116,-0.052,-0.513,0.879,9.216,10.131,-20.264,
00:00:00:133,-0.054,-0.518,0.874,7.69,8.606,-22.767,
00:00:00:150,-0.054,-0.516,0.88,2.014,8.667,-20.874,
00:00:00:166,-0.05,-0.507,0.878,-0.977,13.427,-22.156,
00:00:00:183,-0.045,-0.503,0.88,0.854,12.268,-20.935,
00:00:00:200,-0.042,-0.504,0.882,6.652,9.765,-20.691,
00:00:00:216,-0.046,-0.512,0.878,11.779,7.324,-23.56,
00:00:00:233,-0.05,-0.516,0.879,10.009,4.76,-22.583,
00:00:00:250,-0.054,-0.516,0.875,4.699,7.995,-23.56,
00:00:00:266,-0.054,-0.513,0.88,3.906,8.728,-21.241,
00:00:00:283,-0.05,-0.507,0.879,2.868,9.46,-20.752,
00:00:00:300,-0.046,-0.507,0.885,5.615,10.986,-19.471,
00:00:00:316,-0.045,-0.509,0.879,6.408,6.713,-21.973,
00:00:00:333,-0.05,-0.509,0.879,7.202,5.004,-22.583,
00:00:00:350,-0.052,-0.511,0.876,8.789,6.53,-22.522,
00:00:00:366,-0.05,-0.515,0.876,8.606,9.338,-23.438,
00:00:00:383,-0.048,-0.513,0.877,9.643,10.131,-22.4,
00:00:00:400,-0.05,-0.511,0.876,3.295,6.53,-25.574,
00:00:00:416,-0.053,-0.51,0.881,4.089,7.751,-23.926,
00:00:00:433,-0.048,-0.506,0.879,5.249,7.751,-21.973,
00:00:00:450,-0.048,-0.509,0.876,8.178,6.347,-19.959,
00:00:00:466,-0.048,-0.51,0.88,9.094,3.54,-22.156,
00:00:00:483,-0.055,-0.514,0.881,9.582,3.112,-23.316,
00:00:00:500,-0.058,-0.515,0.878,6.958,6.469,-22.461,
00:00:00:516,-0.053,-0.509,0.88,3.784,10.009,-23.255,
00:00:00:533,-0.049,-0.509,0.881,6.042,10.681,-23.499,
00:00:00:550,-0.048,-0.514,0.876,8.239,9.887,-23.377,
00:00:00:566,-0.051,-0.512,0.879,4.394,6.164,-22.95,
00:00:00:583,-0.05,-0.506,0.879,3.662,5.432,-23.56,
00:00:00:600,-0.053,-0.508,0.881,5.371,6.286,-20.874,
00:00:00:616,-0.052,-0.518,0.878,9.948,10.131,-20.081,
00:00:00:633,-0.051,-0.517,0.883,2.319,7.751,-21.973,
00:00:00:650,-0.047,-0.51,0.879,3.845,9.704,-19.288,
00:00:00:666,-0.047,-0.508,0.874,5.432,9.704,-23.133,
00:00:00:683,-0.05,-0.51,0.879,5.798,4.699,-22.828,
00:00:00:700,-0.053,-0.509,0.878,9.277,5.981,-23.682,
00:00:00:716,-0.054,-0.512,0.884,7.995,7.568,-20.874,
00:00:00:733,-0.051,-0.512,0.882,7.507,7.568,-21.18,
00:00:00:750,-0.05,-0.512,0.877,6.225,7.812,-23.194,
00:00:00:766,-0.053,-0.511,0.877,5.676,6.164,-24.231,
00:00:00:783,-0.055,-0.513,0.876,6.591,7.202,-21.485,
00:00:00:800,-0.052,-0.513,0.877,7.507,9.826,-21.424,
00:00:00:816,-0.049,-0.515,0.881,6.408,9.948,-20.508,
00:00:00:833,-0.048,-0.51,0.875,5.676,9.094,-20.142,
00:00:00:850,-0.052,-0.509,0.88,6.225,5.188,-22.095,
00:00:00:866,-0.051,-0.509,0.878,9.582,8.483,-20.997,
00:00:00:883,-0.054,-0.509,0.88,8.422,7.568,-21.363,
00:00:00:900,-0.05,-0.513,0.88,5.371,7.751,-18.799,
00:00:00:916,-0.05,-0.516,0.879,6.713,9.521,-22.583,
00:00:00:933,-0.05,-0.512,0.872,8.056,7.995,-21.912,
00:00:00:950,-0.048,-0.514,0.878,7.568,8.789,-23.133,
00:00:00:966,-0.047,-0.516,0.881,3.906,8.3,-24.109,
00:00:00:983,-0.055,-0.508,0.879,0.061,6.408,-21.18,
00:00:01:0,-0.055,-0.506,0.883,3.051,4.943,-21.668,
00:00:01:16,-0.053,-0.51,0.873,8.239,8.239,-18.738,
00:00:01:33,-0.053,-0.513,0.879,5.92,7.08,-20.142,
00:00:01:50,-0.05,-0.515,0.876,5.981,10.253,-20.02,
00:00:01:66,-0.051,-0.516,0.88,5.249,10.864,-22.95,
00:00:01:83,-0.047,-0.514,0.878,3.784,11.413,-23.865,
00:00:01:100,-0.047,-0.509,0.871,5.249,8.972,-23.56,
00:00:01:116,-0.047,-0.511,0.876,7.934,5.127,-25.025,
00:00:01:133,-0.053,-0.512,0.848,4.333,7.385,-25.33,
00:00:01:150,-0.056,-0.505,0.885,6.042,3.601,-22.217,
00:00:01:166,-0.061,-0.505,0.877,5.432,10.437,-19.288,
00:00:01:183,-0.048,-0.516,0.88,11.474,12.39,-19.776,
00:00:01:200,-0.046,-0.519,0.874,9.033,8.3,-18.494,
00:00:01:216,-0.051,-0.513,0.877,6.53,8.3,-20.203,
00:00:01:233,-0.052,-0.511,0.877,4.516,10.864,-22.889,
00:00:01:250,-0.049,-0.512,0.879,4.272,10.192,-23.926,
00:00:01:266,-0.05,-0.508,0.881,3.234,9.582,-22.644,
00:00:01:283,-0.056,-0.505,0.881,6.408,8.544,-21.851,
00:00:01:300,-0.05,-0.509,0.876,9.582,9.094,-19.349,
00:00:01:316,-0.043,-0.515,0.875,6.774,8.544,-20.508,
00:00:01:333,-0.049,-0.514,0.875,5.31,4.394,-21.241,
00:00:01:350,-0.05,-0.516,0.88,1.953,5.737,-22.461,
00:00:01:366,-0.052,-0.516,0.877,4.516,7.995,-22.706,
00:00:01:383,-0.05,-0.511,0.878,7.324,8.911,-21.546,
00:00:01:400,-0.05,-0.515,0.878,5.188,8.85,-21.485,
00:00:01:416,-0.054,-0.51,0.881,3.723,8.117,-20.386,
00:00:01:433,-0.055,-0.508,0.88,3.906,10.192,-21.119,
00:00:01:450,-0.051,-0.508,0.877,5.798,11.779,-19.654,
00:00:01:466,-0.048,-0.513,0.879,6.836,10.315,-22.644,
00:00:01:483,-0.046,-0.516,0.877,6.347,8.544,-23.011,
00:00:01:500,-0.052,-0.515,0.875,6.225,6.469,-26.307,
00:00:01:516,-0.058,-0.513,0.881,5.004,8.178,-20.63,
00:00:01:533,-0.055,-0.51,0.882,3.784,11.779,-21.18,
00:00:01:550,-0.05,-0.51,0.88,4.15,10.681,-19.898,
00:00:01:566,-0.051,-0.507,0.843,5.493,9.46,-21.546,
00:00:01:583,-0.047,-0.509,0.879,6.103,10.192,-21.851,
00:00:01:600,-0.046,-0.51,0.878,4.882,8.422,-19.654,
00:00:01:616,-0.047,-0.512,0.877,7.446,7.202,-22.583,
00:00:01:633,-0.048,-0.51,0.879,5.798,5.432,-22.278,
00:00:01:650,-0.055,-0.514,0.878,6.591,9.826,-24.292,
00:00:01:666,-0.056,-0.518,0.875,4.394,8.483,-22.156,
00:00:01:683,-0.052,-0.512,0.88,2.258,10.192,-20.203,
00:00:01:700,-0.048,-0.509,0.876,4.211,12.451,-21.424,
00:00:01:716,-0.046,-0.509,0.878,5.92,6.408,-20.264,
00:00:01:733,-0.045,-0.51,0.879,8.85,5.432,-22.706,
00:00:01:750,-0.052,-0.514,0.88,7.873,2.014,-24.048,
00:00:01:766,-0.056,-0.512,0.875,6.591,6.225,-24.048,
00:00:01:783,-0.057,-0.51,0.875,5.493,8.667,-21.241,
00:00:01:800,-0.053,-0.515,0.874,4.76,8.544,-19.288,
00:00:01:816,-0.05,-0.515,0.879,5.004,10.925,-22.217,
00:00:01:833,-0.05,-0.51,0.878,1.037,9.094,-20.691,
00:00:01:850,-0.049,-0.507,0.883,2.502,9.338,-20.874,
00:00:01:866,-0.048,-0.507,0.876,7.324,9.399,-21.485,
00:00:01:883,-0.049,-0.509,0.877,7.08,7.568,-22.95,
00:00:01:900,-0.052,-0.513,0.879,6.652,7.446,-23.011,
00:00:01:916,-0.054,-0.514,0.873,6.774,7.995,-25.513,
00:00:01:933,-0.056,-0.513,0.882,6.469,9.704,-20.691,
00:00:01:950,-0.052,-0.513,0.876,2.746,12.023,-21.79,
00:00:01:966,-0.048,-0.514,0.877,3.967,10.925,-20.264,
00:00:01:983,-0.045,-0.512,0.875,4.821,10.62,-21.058,
00:00:02:0,-0.048,-0.511,0.876,3.662,6.713,-24.048,
00:00:02:16,-0.05,-0.509,0.877,6.408,6.042,-21.607,
00:00:02:33,-0.054,-0.511,0.878,7.995,6.713,-23.621,
00:00:02:50,-0.052,-0.516,0.878,7.934,8.117,-22.522,
00:00:02:66,-0.056,-0.513,0.88,3.601,8.972,-22.583,
00:00:02:83,-0.052,-0.51,0.879,4.577,8.056,-21.973,
00:00:02:100,-0.051,-0.51,0.878,6.53,9.582,-20.874,
00:00:02:116,-0.048,-0.514,0.876,6.164,10.253,-22.889,
00:00:02:133,-0.048,-0.512,0.876,4.882,5.859,-21.546,
00:00:02:150,-0.049,-0.511,0.878,4.699,6.103,-24.109,
00:00:02:166,-0.052,-0.51,0.877,2.624,5.188,-26.673,
00:00:02:183,-0.054,-0.51,0.876,4.272,4.455,-24.048,
00:00:02:200,-0.056,-0.511,0.879,6.897,5.004,-24.537,
00:00:02:216,-0.055,-0.519,0.884,3.112,7.446,-21.241,
00:00:02:233,-0.054,-0.514,0.873,0.671,12.39,-20.142,
00:00:02:250,-0.049,-0.505,0.875,2.685,11.84,-19.288,
00:00:02:266,-0.048,-0.507,0.881,8.056,7.141,-22.522,
00:00:02:283,-0.049,-0.511,0.877,9.582,5.737,-22.156,
00:00:02:300,-0.053,-0.512,0.876,8.667,6.103,-22.461,
00:00:02:316,-0.053,-0.511,0.884,4.15,9.765,-21.424,
00:00:02:333,-0.055,-0.509,0.885,2.563,9.338,-21.241,
00:00:02:350,-0.052,-0.511,0.906,5.859,10.437,-22.4,
00:00:02:366,-0.052,-0.511,0.88,7.385,8.911,-21.607,
00:00:02:383,-0.049,-0.512,0.877,5.676,7.995,-24.109,
00:00:02:400,-0.049,-0.513,0.879,3.845,7.446,-21.546,
00:00:02:416,-0.051,-0.509,0.878,8.606,7.324,-21.668,
00:00:02:433,-0.05,-0.515,0.879,8.606,10.07,-23.499,
00:00:02:450,-0.051,-0.514,0.88,5.615,4.76,-23.194,
00:00:02:466,-0.055,-0.51,0.881,3.845,7.568,-19.593,
00:00:02:483,-0.053,-0.512,0.87,2.441,11.596,-21.607,
00:00:02:500,-0.048,-0.506,0.881,4.15,9.826,-21.79,
00:00:02:516,-0.05,-0.508,0.874,7.202,8.728,-21.302,
00:00:02:533,-0.051,-0.514,0.875,6.53,8.239,-23.255,
00:00:02:550,-0.048,-0.512,0.877,4.394,8.056,-23.377,
00:00:02:566,-0.047,-0.509,0.879,4.211,6.53,-24.048,
00:00:02:583,-0.054,-0.513,0.879,7.324,3.295,-24.048,
00:00:02:600,-0.054,-0.514,0.883,8.606,4.882,-23.987,
00:00:02:616,-0.053,-0.517,0.88,6.591,10.742,-22.4,
00:00:02:633,-0.052,-0.513,0.877,4.272,9.826,-20.508,
00:00:02:650,-0.051,-0.512,0.874,4.577,11.474,-21.973,
00:00:02:666,-0.049,-0.507,0.877,4.577,8.056,-21.424,
00:00:02:683,-0.052,-0.507,0.879,5.676,10.192,-21.058,
00:00:02:700,-0.052,-0.509,0.881,6.836,11.047,-22.095,
00:00:02:716,-0.048,-0.512,0.879,7.812,7.995,-24.048,
00:00:02:733,-0.05,-0.511,0.878,5.127,6.591,-23.255,
00:00:02:750,-0.053,-0.512,0.881,5.432,8.85,-23.499,
00:00:02:766,-0.053,-0.515,0.877,6.347,10.742,-22.95,
00:00:02:783,-0.048,-0.513,0.875,4.516,9.094,-20.02,
00:00:02:800,-0.048,-0.512,0.875,3.967,7.873,-21.18,
00:00:02:816,-0.048,-0.51,0.874,4.943,3.662,-21.18,
00:00:02:833,-0.053,-0.507,0.88,5.981,4.821,-23.377,
00:00:02:850,-0.058,-0.508,0.883,7.995,4.882,-23.865,
00:00:02:866,-0.054,-0.515,0.882,1.342,14.038,-26.673,
00:00:02:883,-0.051,-0.506,0.884,-1.404,18.371,-27.039,
00:00:02:900,-0.049,-0.505,0.879,0.671,17.089,-27.894,
00:00:02:916,-0.053,-0.514,0.876,-0.184,19.409,-28.748,
00:00:02:933,-0.051,-0.523,0.877,-14.283,21.423,-28.199,
00:00:02:950,-0.056,-0.526,0.88,-31.739,22.705,-28.931,
00:00:02:966,-0.068,-0.53,0.885,-55.42,32.959,-31.311,
00:00:02:983,-0.077,-0.51,0.882,-86.731,73.059,-36.194,
00:00:03:0,-0.072,-0.547,0.903,-127.869,131.347,-52.491,
00:00:03:16,-0.078,-0.603,0.907,-175.721,263.916,-78.064,
00:00:03:33,-0.135,-0.614,1.054,-231.324,451.049,-135.132,
00:00:03:50,-0.251,-0.596,1.377,-501.465,842.224,-219.788,
00:00:03:66,-0.325,-0.503,1.827,-1070.923,1473.144,-304.627,
00:00:03:83,-0.038,-0.455,2.337,-1066.224,1734.008,-321.961,
00:00:03:100,0.821,-0.202,2.593,-531.373,1334.228,-130.982,
00:00:03:116,1.172,-0.511,2.179,2.685,456.848,-148.316,
00:00:03:133,1.28,-0.849,1.755,268.432,-310.975,-177.369,
00:00:03:150,1.206,-1.236,1.432,168.701,-1011.902,-349.122,
00:00:03:166,1.205,-1.109,1.125,-347.718,-1606.812,-722.413,
00:00:03:183,1.146,-0.844,1.281,-519.715,-2000,-874.146,
00:00:03:200,0.939,-0.676,1.245,-209.473,-2000,-1055.298,
00:00:03:216,0.667,-0.796,1.012,-7.203,-2000,-1285.096,
00:00:03:233,0.561,-0.895,0.692,-73.365,-2000,-1376.709,
00:00:03:250,0.432,-0.246,-0.104,-333.069,-2000,-1386.658,
00:00:03:266,0.265,0.031,-0.294,-272.767,-2000,-1464.173,
00:00:03:283,0.132,0.176,-0.378,-77.21,-2000,-1506.409,
00:00:03:300,0.051,0.212,-0.426,196.838,-2000,-1568.299,
00:00:03:316,0.04,0.155,-0.496,373.352,-2000,-1666.687,
00:00:03:333,0.024,0.119,-0.575,406.067,-2000,-1728.272,
00:00:03:350,-0.035,0.284,-0.764,376.526,-2000,-1699.83,
00:00:03:366,-0.145,0.577,-0.924,304.077,-1998.78,-1593.873,
00:00:03:383,-0.321,0.944,-1.111,173.217,-1746.521,-1447.022,
00:00:03:400,-0.594,1.283,-1.229,-15.992,-1321.961,-1284.424,
00:00:03:416,-0.871,1.428,-1.227,-82.581,-580.323,-980.225,
00:00:03:433,-0.79,1.543,-1.273,-107.911,-5.127,-336.67,
00:00:03:450,-0.609,1.492,-1.196,-75.196,524.047,325.561,
00:00:03:466,-0.441,1.258,-1.06,124.023,976.806,872.436,
00:00:03:483,-0.354,1.002,-0.897,406.005,1360.351,1308.166,
00:00:03:500,-0.251,0.872,-0.746,601.623,1731.75,1639.343,
00:00:03:516,-0.16,0.75,-0.586,697.754,1999.694,1831.97,
00:00:03:533,-0.137,0.656,-0.407,763.488,1999.694,1953.43,
00:00:03:550,-0.166,0.56,-0.284,856.384,1999.694,1999.694,
00:00:03:566,-0.155,0.38,-0.168,914.672,1999.694,1999.694,
00:00:03:583,-0.001,-0.118,0.221,724.792,1999.694,1999.694,
00:00:03:600,0.031,-0.497,0.562,531.921,1999.694,1999.694,
00:00:03:616,-0.018,-0.676,0.886,336.181,1999.694,1966.674,
00:00:03:633,0.004,-0.894,1.168,-70.496,1999.694,1848.571,
00:00:03:650,0.241,-0.789,1.469,-362.61,1811.584,1141.845,
00:00:03:666,0.251,-1.003,1.603,-117.005,1621.399,888.488,
00:00:03:683,0.364,-1.169,1.689,-107.3,1360.473,756.042,
00:00:03:700,0.446,-1.019,1.57,-286.133,926.147,709.472,
00:00:03:716,0.321,-0.767,1.551,-241.089,500.061,544.372,
00:00:03:733,0.118,-0.598,1.449,18.798,261.169,356.262,
00:00:03:750,-0.032,-0.597,1.314,277.099,224.914,201.538,
00:00:03:766,-0.042,-0.767,1.161,290.466,308.776,111.572,
00:00:03:783,0.084,-0.825,1.192,49.987,289.672,106.079,
00:00:03:800,0.303,-0.839,1.256,-330.689,68.176,97.839,
00:00:03:816,0.283,-0.43,1.205,-341.797,-180.787,7.629,
00:00:03:833,0.045,-0.277,1.153,-262.696,-286.072,-3.235,
00:00:03:850,-0.036,-0.297,0.917,89.233,55.053,29.174,
00:00:03:866,0.023,-0.385,0.906,68.359,47.546,-5.982,
00:00:03:883,0.046,-0.405,0.909,17.822,0.305,-11.902,
00:00:03:900,0,-0.364,0.94,-19.41,-32.837,15.075,
00:00:03:916,-0.02,-0.356,0.937,-2.442,-27.894,-26.917,
00:00:03:933,-0.026,-0.346,0.936,19.653,-30.274,-13.489,
00:00:03:950,-0.018,-0.341,0.932,55.908,-28.992,-21.546,
00:00:03:966,-0.027,-0.371,0.951,92.529,-30.884,-17.029,
00:00:03:983,-0.031,-0.407,0.959,104.553,-41.077,-22.522,
00:00:04:0,-0.045,-0.433,0.957,87.463,-48.951,-17.151,
00:00:04:16,-0.052,-0.432,0.939,63.354,-52.857,-6.714,
00:00:04:33,-0.026,-0.391,0.915,42.053,-39.124,-3.479,
00:00:04:50,-0.027,-0.373,0.922,42.053,-52.308,-11.597,
00:00:04:66,-0.047,-0.397,0.951,27.038,-41.382,-21.851,
00:00:04:83,-0.059,-0.436,0.968,-7.752,-19.165,-28.809,
00:00:04:100,-0.055,-0.418,0.951,-38.88,-13.794,-18.006,
00:00:04:116,-0.058,-0.399,0.952,-41.871,-5.005,-17.151,
00:00:04:133,-0.049,-0.38,0.945,-21.302,6.53,-17.762,
00:00:04:150,-0.045,-0.388,0.939,2.319,18.737,-20.386,
00:00:04:166,-0.037,-0.392,0.934,13.366,14.404,-22.828,
00:00:04:183,-0.039,-0.392,0.924,16.601,10.07,-25.208,
00:00:04:200,-0.042,-0.397,0.917,15.686,11.23,-27.1,
00:00:04:216,-0.042,-0.403,0.936,1.892,-6.775,-15.503,
00:00:04:233,-0.052,-0.393,0.92,23.315,-9.888,-10.865,
00:00:04:250,-0.048,-0.394,0.907,42.053,-11.719,-9.644,
00:00:04:266,-0.037,-0.411,0.911,37.536,-12.452,-6.592,
00:00:04:283,-0.036,-0.415,0.922,18.31,-28.748,-10.437,
00:00:04:300,-0.041,-0.427,0.925,-7.081,-34.546,-3.174,
00:00:04:316,-0.043,-0.422,0.918,-33.814,-37.11,6.897,
00:00:04:333,-0.042,-0.421,0.913,-53.589,-38.208,15.93,
00:00:04:350,-0.056,-0.429,0.938,-94.422,-40.345,17.028,
00:00:04:366,-0.064,-0.429,0.959,-122.681,-21.302,17.334,
00:00:04:383,-0.075,-0.31,0.991,-139.954,72.998,-36.255,
00:00:04:400,-0.065,-0.309,1.015,-126.893,97.045,-61.097,
00:00:04:416,-0.049,-0.346,1.032,-110.84,122.497,-91.675,
00:00:04:433,-0.042,-0.388,1.046,-109.131,112.915,-97.046,
00:00:04:450,-0.067,-0.375,1.07,-96.985,55.725,-109.375,
00:00:04:466,-0.102,-0.378,1.077,-96.436,67.871,-100.831,
00:00:04:483,-0.059,-0.319,1.006,-36.499,90.637,-91.675,
00:00:04:500,-0.002,-0.326,0.94,63.11,24.78,-85.328,
00:00:04:516,-0.017,-0.439,0.863,79.101,-58.838,-87.586,
00:00:04:533,-0.073,-0.437,0.808,26.611,-124.695,-53.65,
00:00:04:550,-0.078,-0.379,0.819,16.357,-127.93,-11.841,
00:00:04:566,-0.058,-0.323,0.848,108.642,-139.344,-25.269,
00:00:04:583,-0.079,-0.426,0.894,207.824,-149.659,-6.653,
00:00:04:600,-0.082,-0.443,0.901,218.383,-166.26,8.178,
00:00:04:616,-0.105,-0.439,0.893,248.596,-200.745,0.549,
00:00:04:633,-0.157,-0.474,0.87,244.751,-232.605,-15.015,
00:00:04:650,-0.243,-0.432,0.878,275.329,-146.851,-62.317,
00:00:04:666,-0.235,-0.492,0.935,291.809,-99.06,-138.733,
00:00:04:683,-0.229,-0.554,0.934,242.492,-39.429,-185.608,
00:00:04:700,-0.222,-0.544,0.965,158.63,1.464,-210.694,
00:00:04:716,-0.206,-0.489,0.934,89.843,40.466,-214.6,
00:00:04:733,-0.203,-0.446,0.898,60.974,56.579,-223.572,
00:00:04:750,-0.2,-0.419,0.873,44.921,86.242,-228.516,
00:00:04:766,-0.178,-0.442,0.842,3.54,135.192,-217.957,
00:00:04:783,-0.136,-0.46,0.869,-85.938,179.321,-201.844,
00:00:04:800,-0.104,-0.455,0.857,-179.322,208.007,-183.655,
00:00:04:816,-0.077,-0.407,0.883,-259.583,232.116,-154.725,
00:00:04:833,-0.035,-0.345,0.897,-266.358,262.329,-114.563,
00:00:04:850,0.012,-0.327,0.918,-243.103,278.564,-79.773,
00:00:04:866,0.051,-0.375,0.917,-263.611,273.071,-72.51,
00:00:04:883,0.113,-0.428,0.916,-361.573,224.06,-66.529,
00:00:04:900,0.125,-0.395,0.928,-455.445,98.755,-57.496,
00:00:04:916,0.054,-0.31,0.935,-516.053,-1.465,-56.275,
00:00:04:933,-0.01,-0.253,0.961,-511.231,-19.471,-62.378,
00:00:04:950,-0.009,-0.235,0.933,-456.604,-1.526,-58.655,
00:00:04:966,0,-0.176,1.003,-338.257,-64.637,-56.519,
00:00:04:983,-0.049,-0.188,1,-204.041,-82.947,-23.377,
00:00:05:0,-0.077,-0.297,0.987,-199.83,-73.243,-27.832,
00:00:05:16,-0.06,-0.265,1.002,-226.99,-84.961,3.906,
00:00:05:33,-0.065,-0.179,1.008,-195.435,-94.849,27.099,
00:00:05:50,-0.115,-0.151,0.984,-113.221,-64.942,37.109,
00:00:05:66,-0.112,-0.076,1.018,62.316,-77.942,33.63,
00:00:05:83,-0.129,-0.15,1,225.402,-62.806,87.158,
00:00:05:100,-0.121,-0.224,0.97,223.877,-66.956,83.984,
00:00:05:116,-0.11,-0.214,1.009,187.317,-88.99,127.624,
00:00:05:133,-0.104,-0.188,1.163,159.912,-155.64,197.815,
00:00:05:150,-0.128,-0.238,1.086,90.026,-116.456,139.892,
00:00:05:166,-0.159,-0.134,1.128,85.51,-144.593,223.388,
00:00:05:183,-0.152,-0.177,1.219,238.403,-207.581,239.135,
00:00:05:200,-0.137,-0.285,1.313,383.545,-298.218,253.173,
00:00:05:216,-0.152,-0.335,1.239,489.441,-360.84,257.751,
00:00:05:233,-0.163,-0.372,1.181,712.402,-461.365,215.698,
00:00:05:250,-0.193,-0.588,1.092,974.792,-504.883,103.698,
00:00:05:266,-0.234,-0.643,0.948,1152.893,-561.585,28.564,
00:00:05:283,-0.333,-0.616,0.969,1361.572,-635.926,-111.634,
00:00:05:300,-0.451,-0.77,0.939,1473.266,-584.534,-256.653,
00:00:05:316,-0.422,-1.009,0.827,1075.988,-449.036,-396.546,
00:00:05:333,-0.39,-0.92,0.645,455.261,-357.789,-533.265,
00:00:05:350,-0.407,-0.708,0.561,85.083,-315.186,-657.105,
00:00:05:366,-0.449,-0.617,0.543,-41.932,-245.484,-702.271,
00:00:05:383,-0.499,-0.547,0.581,-108.704,-137.635,-750.489,
00:00:05:400,-0.509,-0.536,0.564,-122.01,2.868,-758.484,
00:00:05:416,-0.504,-0.518,0.544,-139.466,141.967,-714.966,
00:00:05:433,-0.484,-0.398,0.54,-179.688,245.3,-663.941,
00:00:05:450,-0.442,-0.232,0.539,-181.092,343.139,-678.589,
00:00:05:466,-0.41,-0.183,0.585,-90.577,371.704,-716.065,
00:00:05:483,-0.412,-0.325,0.639,47.302,411.743,-722.352,
00:00:05:500,-0.381,-0.531,0.733,122.924,460.632,-595.398,
00:00:05:516,-0.301,-0.5,0.771,89.172,462.158,-418.763,
00:00:05:533,-0.253,-0.383,0.75,63.598,411.56,-319.703,
00:00:05:550,-0.263,-0.345,0.732,93.383,342.895,-288.697,
00:00:05:566,-0.268,-0.445,0.805,39.184,286.377,-247.681,
00:00:05:583,-0.246,-0.525,0.838,-96.131,240.661,-223.267,
00:00:05:600,-0.238,-0.524,0.872,-229.248,194.336,-180.909,
00:00:05:616,-0.261,-0.437,0.815,-281.128,171.814,-123.047,
00:00:05:633,-0.279,-0.353,0.78,-235.474,147.644,-85.877,
00:00:05:650,-0.277,-0.317,0.79,-123.78,129.577,-61.585,
00:00:05:666,-0.267,-0.409,0.852,-77.454,119.934,-61.463,
00:00:05:683,-0.27,-0.566,0.879,-202.332,126.648,-44.983,
00:00:05:700,-0.273,-0.574,0.886,-399.964,124.817,-15.87,
00:00:05:716,-0.297,-0.429,0.853,-517.212,137.268,36.926,
00:00:05:733,-0.314,-0.245,0.815,-474.183,164.734,45.471,
00:00:05:750,-0.303,-0.256,0.87,-360.169,220.031,10.986,
00:00:05:766,-0.242,-0.421,0.888,-283.57,258.545,-5.982,
00:00:05:783,-0.185,-0.447,0.955,-349.305,221.252,-3.296,
00:00:05:800,-0.219,-0.372,0.977,-379.334,180.847,-55.42,
00:00:05:816,-0.221,-0.317,0.955,-339.417,169.86,-72.754,
00:00:05:833,-0.229,-0.247,0.95,-253.907,180.786,-90.027,
00:00:05:850,-0.211,-0.229,0.978,-152.283,182.434,-141.358,
00:00:05:866,-0.201,-0.277,1.008,-51.575,181.457,-173.462,
00:00:05:883,-0.198,-0.268,1.015,33.874,169.677,-166.748,
00:00:05:900,-0.206,-0.258,1.003,142.639,165.222,-173.768,
00:00:05:916,-0.207,-0.261,0.977,239.257,162.475,-156.495,
00:00:05:933,-0.189,-0.293,0.943,308.838,157.837,-143.372,
00:00:05:950,-0.151,-0.288,0.981,350.83,99.975,-123.23,
00:00:05:966,-0.153,-0.335,0.997,380.31,52.49,-143.25,
00:00:05:983,-0.176,-0.369,0.999,401.489,23.742,-147.461,
00:00:06:0,-0.184,-0.36,0.979,434.692,15.319,-136.841,
00:00:06:16,-0.189,-0.37,0.955,448.059,11.291,-131.653,
00:00:06:33,-0.188,-0.396,0.935,437.988,7.934,-128.052,mixLH
00:00:06:50,-0.193,-0.405,0.926,409.179,2.075,-112.183,
00:00:06:66,-0.193,-0.406,0.914,399.047,8.3,-109.375,
00:00:06:83,-0.189,-0.403,0.89,409.118,5.92,-112.366,
00:00:06:100,-0.196,-0.45,0.905,414.123,-0.672,-117.249,
00:00:06:116,-0.211,-0.482,0.916,365.478,-5.31,-104.981,
00:00:06:133,-0.218,-0.477,0.918,283.142,-13.367,-92.774,
00:00:06:150,-0.228,-0.402,0.891,296.692,-28.809,-70.923,
00:00:06:166,-0.248,-0.381,0.883,374.817,-50.293,-59.815,
00:00:06:183,-0.27,-0.405,0.851,452.697,-61.768,-45.96,
00:00:06:200,-0.277,-0.464,0.839,493.591,-72.815,-34.79,
00:00:06:216,-0.289,-0.52,0.821,469.299,-82.947,-19.104,
00:00:06:233,-0.293,-0.559,0.802,398.498,-88.44,-10.498,
00:00:06:250,-0.31,-0.56,0.76,333.252,-115.418,11.413,
00:00:06:266,-0.332,-0.559,0.762,289.184,-137.818,29.846,
00:00:06:283,-0.351,-0.553,0.745,252.319,-145.02,44.982,
00:00:06:300,-0.364,-0.572,0.725,219.116,-146.79,67.504,
00:00:06:316,-0.378,-0.563,0.701,187.5,-155.396,77.758,
00:00:06:333,-0.39,-0.544,0.655,217.895,-127.747,110.595,
00:00:06:350,-0.386,-0.587,0.638,229.736,-114.319,116.088,
00:00:06:366,-0.375,-0.64,0.66,182.617,-106.385,120.483,
00:00:06:383,-0.375,-0.683,0.712,77.758,-107.422,117.309,
00:00:06:400,-0.367,-0.648,0.683,-0.306,-78.736,149.536,
00:00:06:416,-0.365,-0.616,0.674,-21.18,-74.341,155.883,
00:00:06:433,-0.374,-0.608,0.688,-23.072,-77.637,163.696,
00:00:06:450,-0.375,-0.555,0.696,14.648,-75.257,156.86,
00:00:06:466,-0.371,-0.508,0.687,134.094,-71.534,171.63,
00:00:06:483,-0.37,-0.545,0.663,237.548,-66.773,155.761,
00:00:06:500,-0.343,-0.698,0.691,252.563,-66.224,141.113,
00:00:06:516,-0.31,-0.769,0.719,134.216,-69.397,141.662,
00:00:06:533,-0.298,-0.735,0.724,10.986,-74.219,132.873,
00:00:06:550,-0.313,-0.648,0.73,-10.376,-60.425,122.741,
00:00:06:566,-0.31,-0.646,0.731,87.829,-17.579,101.928,
00:00:06:583,-0.277,-0.668,0.689,196.96,20.019,66.406,
00:00:06:600,-0.239,-0.694,0.683,285.949,20.813,33.874,
00:00:06:616,-0.235,-0.677,0.695,402.832,30.822,8.117,
00:00:06:633,-0.238,-0.739,0.699,503.723,43.09,-17.029,
00:00:06:650,-0.209,-0.826,0.7,502.136,69.213,-51.941,
00:00:06:666,-0.206,-0.83,0.677,446.228,95.336,-83.313,
00:00:06:683,-0.22,-0.754,0.652,467.346,113.464,-103.638,
00:00:06:700,-0.242,-0.771,0.639,504.028,119.567,-108.521,
00:00:06:716,-0.246,-0.821,0.639,440.063,125.793,-104.371,
00:00:06:733,-0.219,-0.889,0.651,276.367,145.446,-103.821,
00:00:06:750,-0.211,-0.938,0.627,31.494,164.428,-114.258,
00:00:06:766,-0.16,-0.984,0.666,-273.682,141.052,-135.987,
00:00:06:783,-0.147,-0.817,0.671,-404.297,81.543,-100.708,
00:00:06:800,-0.188,-0.636,0.73,-307.923,46.752,-82.459,
00:00:06:816,-0.215,-0.729,0.796,-176.819,65.734,-120.789,
00:00:06:833,-0.176,-0.876,0.799,-223.999,115.234,-144.165,
00:00:06:850,-0.139,-0.756,0.725,-263.306,142.212,-169.8,
00:00:06:866,-0.152,-0.691,0.707,-107.911,140.197,-216.736,
00:00:06:883,-0.168,-0.824,0.703,80.505,164.489,-240.479,
00:00:06:900,-0.156,-0.87,0.733,59.936,140.747,-180.054,
00:00:06:916,-0.142,-0.786,0.759,-49.866,88.073,-161.438,
00:00:06:933,-0.163,-0.681,0.776,-63.05,35.156,-168.519,
00:00:06:950,-0.175,-0.697,0.804,13.305,7.202,-187.439,
00:00:06:966,-0.18,-0.73,0.782,24.536,-38.269,-166.26,
00:00:06:983,-0.198,-0.687,0.797,-0.855,-90.577,-159.18,
00:00:07:0,-0.215,-0.673,0.747,-19.898,-133.606,-168.824,
00:00:07:16,-0.233,-0.674,0.68,-43.274,-200.379,-143.921,
00:00:07:33,-0.261,-0.686,0.646,-99.366,-241.394,-84.351,
00:00:07:50,-0.293,-0.671,0.64,-229.92,-288.819,-27.1,
00:00:07:66,-0.337,-0.616,0.647,-364.502,-325.867,18.249,
00:00:07:83,-0.37,-0.559,0.635,-445.923,-348.145,85.083,
00:00:07:100,-0.404,-0.497,0.611,-452.393,-349.488,148.803,
00:00:07:116,-0.422,-0.524,0.595,-419.495,-340.271,202.392,
00:00:07:133,-0.434,-0.55,0.589,-433.106,-337.159,206.97,
00:00:07:150,-0.448,-0.576,0.564,-426.087,-335.083,229.98,
00:00:07:166,-0.49,-0.577,0.586,-415.589,-330.323,243.164,
00:00:07:183,-0.522,-0.597,0.593,-383.301,-289.734,225.769,
00:00:07:200,-0.527,-0.601,0.592,-341.919,-231.141,208.252,
00:00:07:216,-0.525,-0.595,0.565,-300.477,-156.373,184.204,
00:00:07:233,-0.522,-0.614,0.548,-244.08,-76.172,160.583,
00:00:07:250,-0.513,-0.628,0.598,-216.675,-4.212,136.047,
00:00:07:266,-0.498,-0.578,0.632,-205.506,69.824,120.666,
00:00:07:283,-0.467,-0.509,0.674,-77.82,139.465,102.417,
00:00:07:300,-0.425,-0.503,0.695,116.699,166.015,86.853,
00:00:07:316,-0.403,-0.617,0.726,203.064,175.537,63.842,
00:00:07:333,-0.369,-0.673,0.74,153.991,169.189,46.325,
00:00:07:350,-0.339,-0.739,0.776,96.13,138.977,18.615,
00:00:07:366,-0.308,-0.712,0.826,48.095,102.172,7.629,
00:00:07:383,-0.308,-0.686,0.862,76.416,77.697,-20.386,
00:00:07:400,-0.323,-0.675,0.842,134.46,71.838,-47.669,
00:00:07:416,-0.319,-0.719,0.857,179.26,70.068,-73.914,
00:00:07:433,-0.315,-0.697,0.812,205.627,79.589,-84.534,
00:00:07:450,-0.298,-0.701,0.876,224.731,89.111,-124.756,
00:00:07:466,-0.327,-0.724,0.759,143.188,117.614,-113.343,
00:00:07:483,-0.242,-0.715,0.805,102.478,100.402,-143.982,
00:00:07:500,-0.262,-0.642,0.797,116.699,83.129,-130.921,
00:00:07:516,-0.298,-0.573,0.758,226.989,126.953,-153.748,
00:00:07:533,-0.275,-0.739,0.753,204.467,149.292,-156.189,
00:00:07:550,-0.228,-0.766,0.791,117.065,156.982,-142.09,
00:00:07:566,-0.226,-0.74,0.765,-37.903,132.69,-143.128,
00:00:07:583,-0.226,-0.602,0.796,-49.5,125,-158.509,
00:00:07:600,-0.257,-0.568,0.779,4.943,106.201,-177.552,
00:00:07:616,-0.267,-0.581,0.776,79.65,113.708,-169.129,
00:00:07:633,-0.251,-0.557,0.779,157.287,106.323,-131.104,
00:00:07:650,-0.244,-0.548,0.804,239.502,96.008,-109.559,
00:00:07:666,-0.247,-0.542,0.78,318.969,85.266,-116.944,
00:00:07:683,-0.257,-0.567,0.773,353.393,72.143,-116.761,
00:00:07:700,-0.26,-0.544,0.726,439.697,62.133,-106.934,
00:00:07:716,-0.259,-0.578,0.679,604.065,46.875,-108.704,
00:00:07:733,-0.273,-0.633,0.669,750.793,5.493,-101.258,
00:00:07:750,-0.298,-0.723,0.664,814.697,-18.86,-100.281,
00:00:07:766,-0.315,-0.827,0.625,733.337,-37.781,-94.361,
00:00:07:783,-0.328,-0.828,0.522,575.561,-70.984,-94.361,
00:00:07:800,-0.332,-0.708,0.511,560.791,-131.897,-92.102,
00:00:07:816,-0.374,-0.704,0.478,752.502,-149.781,-107.789,
00:00:07:833,-0.398,-0.774,0.48,851.623,-208.435,-90.76,
00:00:07:850,-0.428,-0.84,0.5,883.789,-187.806,-81.177,
00:00:07:866,-0.436,-0.922,0.484,819.702,-175.415,-54.017,
00:00:07:883,-0.43,-0.95,0.48,645.019,-159.119,-36.744,
00:00:07:900,-0.455,-0.899,0.488,441.528,-149.048,-51.88,
00:00:07:916,-0.466,-0.885,0.464,305.114,-88.807,-75.684,
00:00:07:933,-0.45,-0.887,0.351,216.674,-52.552,-84.839,
00:00:07:950,-0.423,-0.848,0.295,283.203,-81.849,-85.999,
00:00:07:966,-0.413,-0.897,0.428,456.482,-87.586,-87.586,
00:00:07:983,-0.461,-0.917,0.423,428.65,-59.998,-32.837,
00:00:08:0,-0.447,-1.059,0.43,181.762,-29.236,-42.359,
00:00:08:16,-0.424,-1.159,0.446,-215.149,0.366,-83.374,
00:00:08:33,-0.369,-1.199,0.428,-668.274,2.99,-84.717,
00:00:08:50,-0.354,-1.101,0.43,-1113.465,-20.691,-84.839,
00:00:08:66,-0.375,-0.894,0.417,-1459.107,-57.435,-99.183,
00:00:08:83,-0.361,-0.781,0.445,-1591.675,-100.892,-107.361,
00:00:08:100,-0.332,-0.759,0.523,-1544.861,-133.545,-104.432,
00:00:08:116,-0.356,-0.706,0.593,-1386.658,-114.869,-69.092,
00:00:08:133,-0.392,-0.574,0.661,-891.663,-51.575,-54.871,
00:00:08:150,-0.409,-0.434,0.653,-281.556,13,19.043,
00:00:08:166,-0.419,-0.49,0.671,293.823,98.755,67.077,
00:00:08:183,-0.432,-0.586,0.578,600.463,192.26,79.345,
00:00:08:200,-0.412,-0.636,0.451,641.662,251.403,94.97,
00:00:08:216,-0.361,-0.648,0.343,559.997,235.534,81.909,
00:00:08:233,-0.336,-0.709,0.367,389.099,195.19,56.152,
00:00:08:250,-0.341,-0.909,0.48,53.711,126.77,39.611,
00:00:08:266,-0.377,-1.055,0.486,-477.601,115.844,51.086,
00:00:08:283,-0.396,-0.933,0.472,-847.779,100.463,108.215,
00:00:08:300,-0.345,-0.479,0.717,-599.244,55.603,45.288,
00:00:08:316,-0.369,-0.538,0.698,-43.396,-9.888,-41.81,
00:00:08:333,-0.459,-0.944,0.643,-16.968,24.597,-43.519,
00:00:08:350,-0.396,-0.96,0.617,-333.802,17.944,36.254,
00:00:08:366,-0.347,-0.645,0.612,-462.403,-6.775,122.192,
00:00:08:383,-0.37,-0.495,0.625,-301.941,-8.606,86.792,
00:00:08:400,-0.398,-0.593,0.712,-161.255,41.931,96.13,
00:00:08:416,-0.381,-0.71,0.702,-203.431,109.68,125.549,
00:00:08:433,-0.324,-0.647,0.708,-272.156,136.84,137.451,
00:00:08:450,-0.298,-0.527,0.654,-240.479,145.141,92.468,
00:00:08:466,-0.295,-0.566,0.677,-172.852,128.906,49.377,
00:00:08:483,-0.312,-0.637,0.759,-115.479,113.098,39.917,
00:00:08:500,-0.304,-0.696,0.781,-146.973,136.657,55.603,
00:00:08:516,-0.264,-0.799,0.817,-242.676,154.663,32.653,
00:00:08:533,-0.225,-0.779,0.773,-362.977,164.795,37.475,
00:00:08:550,-0.232,-0.645,0.776,-352.845,135.864,31.189,
00:00:08:566,-0.26,-0.629,0.782,-264.405,116.027,17.395,
00:00:08:583,-0.243,-0.603,0.793,-182.862,103.088,11.535,
00:00:08:600,-0.2,-0.583,0.878,-69.764,49.377,-11.292,
00:00:08:616,-0.229,-0.654,0.881,-39.002,35.888,-29.236,
00:00:08:633,-0.198,-0.662,0.862,-249.573,90.026,-29.725,
00:00:08:650,-0.176,-0.53,0.876,-198.792,94.116,-48.096,
00:00:08:666,-0.168,-0.48,0.899,20.324,100.952,-125.977,
00:00:08:683,-0.173,-0.603,0.923,193.481,133.728,-190.43,
00:00:08:700,-0.152,-0.658,0.912,281.616,168.762,-208.374,
00:00:08:716,-0.133,-0.594,0.897,335.449,183.654,-205.811,
00:00:08:733,-0.142,-0.557,0.902,387.329,173.462,-234.07,
00:00:08:750,-0.175,-0.598,0.826,404.174,135.742,-241.15,
00:00:08:766,-0.221,-0.597,0.794,382.69,75.561,-209.534,
00:00:08:783,-0.263,-0.62,0.852,388.427,-1.77,-170.044,
00:00:08:800,-0.309,-0.642,0.747,371.338,-27.1,-129.151,
00:00:08:816,-0.311,-0.652,0.79,371.765,-79.834,-109.192,
00:00:08:833,-0.314,-0.7,0.84,330.993,-120.85,-91.004,
00:00:08:850,-0.343,-0.762,0.711,218.322,-162.293,-86.06,
00:00:08:866,-0.381,-0.698,0.745,151.733,-202.088,-95.581,
00:00:08:883,-0.38,-0.684,0.735,175.903,-158.081,0.61,
00:00:08:900,-0.359,-0.592,0.621,150.879,-137.818,45.166,
00:00:08:916,-0.323,-0.651,0.541,136.596,-141.724,-1.831,
00:00:08:933,-0.311,-0.816,0.461,0.061,-210.022,-52.369,
00:00:08:950,-0.361,-0.984,0.461,-263.916,-313.904,-4.578,
00:00:08:966,-0.416,-0.988,0.482,-741.211,-389.466,54.992,
00:00:08:983,-0.421,-0.746,0.505,-1073.121,-423.645,103.637,
00:00:09:0,-0.466,-0.475,0.531,-1109.62,-407.837,124.267,
00:00:09:16,-0.471,-0.36,0.58,-891.053,-408.875,104.98,
00:00:09:33,-0.539,-0.439,0.583,-683.716,-348.267,101.44,
00:00:09:50,-0.529,-0.483,0.627,-642.64,-220.826,103.393,
00:00:09:66,-0.483,-0.393,0.603,-586.243,-157.349,110.473,
00:00:09:83,-0.48,-0.374,0.665,-462.952,-122.62,130.981,
00:00:09:100,-0.475,-0.358,0.655,-364.441,-48.706,110.839,
00:00:09:116,-0.446,-0.297,0.676,-205.506,30.761,106.323,
00:00:09:133,-0.425,-0.333,0.705,1.953,96.374,106.323,
00:00:09:150,-0.396,-0.405,0.718,177.185,133.3,77.026,
00:00:09:166,-0.387,-0.469,0.745,303.833,162.536,72.631,
00:00:09:183,-0.38,-0.552,0.747,344.116,191.955,90.332,
00:00:09:200,-0.342,-0.569,0.726,324.707,223.144,89.843,
00:00:09:216,-0.295,-0.558,0.786,402.771,203.613,76.232,
00:00:09:233,-0.287,-0.619,0.821,484.985,172.424,44.494,
00:00:09:250,-0.296,-0.651,0.882,527.404,157.043,13.549,
00:00:09:266,-0.289,-0.744,0.863,549.682,143.31,-16.907,
00:00:09:283,-0.298,-0.821,0.77,436.34,147.766,-16.114,
00:00:09:300,-0.289,-0.786,0.708,292.541,140.442,-22.522,
00:00:09:316,-0.289,-0.749,0.699,169.799,145.874,-38.208,
00:00:09:333,-0.282,-0.7,0.739,94.055,138.244,-70.496,
00:00:09:350,-0.306,-0.672,0.778,101.562,132.751,-83.863,
00:00:09:366,-0.282,-0.707,0.867,61.34,153.015,-69.031,
00:00:09:383,-0.226,-0.654,0.891,-7.508,114.257,-45.777,
00:00:09:400,-0.212,-0.609,0.907,10.62,59.57,-33.631,
00:00:09:416,-0.202,-0.64,0.938,80.322,19.287,-43.641,
00:00:09:433,-0.204,-0.69,0.926,82.458,-9.522,-55.481,
00:00:09:450,-0.27,-0.616,0.865,226.013,-11.048,-95.765,
00:00:09:466,-0.282,-0.661,0.813,330.993,22.705,-116.15,
00:00:09:483,-0.267,-0.724,0.767,382.019,44.006,-133.912,
00:00:09:500,-0.261,-0.744,0.721,389.587,42.358,-146.302,
00:00:09:516,-0.282,-0.767,0.698,358.398,36.01,-161.866,
00:00:09:533,-0.296,-0.782,0.695,272.216,41.87,-141.297,
00:00:09:550,-0.294,-0.774,0.674,171.264,33.142,-156.067,
00:00:09:566,-0.295,-0.74,0.698,108.154,16.418,-145.691,
00:00:09:583,-0.311,-0.676,0.671,105.957,-10.621,-140.931,
00:00:09:600,-0.332,-0.658,0.641,130.737,-18.372,-144.227,
00:00:09:616,-0.34,-0.698,0.644,167.236,-24.048,-143.494,
00:00:09:633,-0.345,-0.734,0.667,137.756,-32.044,-119.08,
00:00:09:650,-0.35,-0.706,0.609,73.669,-39.917,-117.127,
00:00:09:666,-0.351,-0.691,0.621,38.757,-45.411,-104.248,
00:00:09:683,-0.351,-0.708,0.63,15.075,-57.923,-103.211,
00:00:09:700,-0.351,-0.723,0.612,-40.284,-59.815,-89.478,
00:00:09:716,-0.354,-0.734,0.648,-109.436,-78.858,-65.674,
00:00:09:733,-0.348,-0.741,0.654,-190.125,-86.243,-45.96,
00:00:09:750,-0.338,-0.724,0.653,-269.837,-98.938,-39.246,
00:00:09:766,-0.342,-0.734,0.633,-344.117,-123.047,-20.813,
00:00:09:783,-0.362,-0.711,0.643,-493.897,-181.58,9.704,
00:00:09:800,-0.371,-0.677,0.661,-528.565,-207.703,24.902,
00:00:09:816,-0.382,-0.636,0.693,-535.035,-231.141,31.921,
00:00:09:833,-0.403,-0.62,0.678,-512.635,-236.573,37.902,
00:00:09:850,-0.423,-0.583,0.625,-485.596,-224.488,39.062,
00:00:09:866,-0.439,-0.566,0.593,-463.318,-213.013,26.977,
00:00:09:883,-0.47,-0.641,0.614,-501.648,-191.895,31.982,
00:00:09:900,-0.478,-0.576,0.633,-596.192,-150.879,49.316,
00:00:09:916,-0.476,-0.4,0.634,-550.293,-111.939,47.363,
00:00:09:933,-0.489,-0.334,0.631,-356.019,-65.857,32.592,
00:00:09:950,-0.506,-0.375,0.695,-167.176,-5.738,7.873,
00:00:09:966,-0.499,-0.431,0.7,-72.571,86.975,-0.367,
00:00:09:983,-0.458,-0.511,0.706,-36.927,156.25,6.164,
00:00:10:0,-0.41,-0.574,0.702,-73.426,185.302,3.051,
00:00:10:16,-0.38,-0.563,0.742,-137.024,140.869,12.207,
00:00:10:33,-0.386,-0.503,0.737,-173.951,111.328,3.295,mixLH
00:00:10:50,-0.403,-0.455,0.755,-110.23,93.933,8.667,
00:00:10:66,-0.423,-0.499,0.754,-35.95,122.192,1.892,
00:00:10:83,-0.41,-0.594,0.779,-23.438,159.973,-1.221,
00:00:10:100,-0.364,-0.614,0.757,-97.29,186.889,6.469,
00:00:10:116,-0.344,-0.563,0.762,-169.312,170.349,0.671,
00:00:10:133,-0.339,-0.509,0.782,-151.246,153.747,-28.565,
00:00:10:150,-0.348,-0.526,0.868,-101.746,150.817,-58.411,
00:00:10:166,-0.346,-0.551,0.872,-91.98,170.898,-83.619,
00:00:10:183,-0.329,-0.547,0.861,-101.075,189.148,-90.21,
00:00:10:200,-0.304,-0.505,0.848,-101.014,198.242,-104.432,
00:00:10:216,-0.3,-0.45,0.852,-48.157,186.828,-121.705,
00:00:10:233,-0.309,-0.413,0.863,40.344,182.434,-142.029,
00:00:10:250,-0.31,-0.419,0.91,157.592,186.645,-160.401,
00:00:10:266,-0.305,-0.422,0.96,250.976,202.758,-159.302,
00:00:10:283,-0.281,-0.419,0.953,327.27,219.299,-137.757,
00:00:10:300,-0.258,-0.442,0.949,378.173,209.411,-125.184,
00:00:10:316,-0.248,-0.466,0.949,409.362,178.161,-116.944,
00:00:10:333,-0.249,-0.476,0.949,440.734,148.132,-112.305,
00:00:10:350,-0.251,-0.494,0.961,498.108,126.159,-106.263,
00:00:10:366,-0.253,-0.536,0.967,532.287,111.999,-100.281,
00:00:10:383,-0.249,-0.561,0.932,528.991,101.135,-98.023,
00:00:10:400,-0.243,-0.578,0.885,514.282,79.589,-94.178,
00:00:10:416,-0.243,-0.616,0.874,481.994,49.255,-91.37,
00:00:10:433,-0.256,-0.674,0.862,405.883,29.907,-92.286,
00:00:10:450,-0.271,-0.725,0.865,291.992,19.226,-96.924,
00:00:10:466,-0.273,-0.677,0.824,192.993,-0.123,-89.234,
00:00:10:483,-0.279,-0.634,0.821,188.598,-16.114,-93.079,
00:00:10:500,-0.291,-0.621,0.825,220.459,-37.964,-93.873,
00:00:10:516,-0.315,-0.672,0.814,240.173,-49.134,-111.634,
00:00:10:533,-0.324,-0.709,0.773,176.391,-44.129,-107.789,
00:00:10:550,-0.316,-0.714,0.745,85.388,-39.673,-114.075,
00:00:10:566,-0.322,-0.698,0.739,13.977,-70.069,-87.464,
00:00:10:583,-0.327,-0.721,0.746,-57.129,-75.074,-83.13,
00:00:10:600,-0.332,-0.714,0.773,-168.274,-84.29,-49.378,
00:00:10:616,-0.331,-0.666,0.73,-260.804,-96.131,-30.823,
00:00:10:633,-0.334,-0.586,0.68,-285.096,-109.864,-22.156,
00:00:10:650,-0.344,-0.646,0.672,-276.917,-134.156,-33.936,
00:00:10:666,-0.342,-0.711,0.669,-377.32,-166.626,-10.804,
00:00:10:683,-0.353,-0.66,0.687,-511.719,-203.553,10.559,
00:00:10:700,-0.364,-0.583,0.7,-563.416,-223.023,23.254,
00:00:10:716,-0.389,-0.502,0.706,-544.739,-254.883,40.588,
00:00:10:733,-0.414,-0.468,0.692,-469.361,-239.258,34.973,
00:00:10:750,-0.413,-0.459,0.713,-389.832,-224.549,37.414,
00:00:10:766,-0.413,-0.547,0.648,-374.939,-203.553,46.691,
00:00:10:783,-0.403,-0.595,0.656,-457.337,-208.13,61.828,
00:00:10:800,-0.401,-0.537,0.681,-548.584,-233.643,82.885,
00:00:10:816,-0.427,-0.415,0.673,-561.158,-248.902,85.571,
00:00:10:833,-0.459,-0.443,0.679,-495.301,-222.352,64.758,
00:00:10:850,-0.46,-0.451,0.674,-477.784,-183.167,58.227,
00:00:10:866,-0.469,-0.43,0.692,-458.924,-150.818,51.33,
00:00:10:883,-0.476,-0.411,0.706,-433.045,-100.892,36.377,
00:00:10:900,-0.467,-0.377,0.712,-384.461,-47.364,28.259,
00:00:10:916,-0.46,-0.32,0.682,-307.312,-15.809,10.192,
00:00:10:933,-0.47,-0.331,0.67,-227.539,8.483,-8.301,
00:00:10:950,-0.478,-0.384,0.729,-182.618,43.457,-23.56,
00:00:10:966,-0.476,-0.383,0.772,-240.052,109.741,2.258,
00:00:10:983,-0.436,-0.301,0.804,-260.926,144.47,8.178,
00:00:11:0,-0.423,-0.233,0.799,-191.163,125.854,24.963,
00:00:11:16,-0.438,-0.214,0.807,-68.421,141.54,27.71,
00:00:11:33,-0.454,-0.289,0.855,41.809,173.034,8.239,
00:00:11:50,-0.442,-0.378,0.934,78.918,215.149,-10.56,
00:00:11:66,-0.404,-0.411,0.93,18.981,241.821,-1.221,
00:00:11:83,-0.378,-0.407,0.925,-2.32,215.515,12.695,
00:00:11:100,-0.37,-0.392,0.908,13.549,174.377,25.878,
00:00:11:116,-0.378,-0.39,0.869,34.668,150.207,22.094,
00:00:11:133,-0.374,-0.402,0.921,72.631,132.812,-14.466,
00:00:11:150,-0.363,-0.418,0.954,85.266,129.882,-41.871,
00:00:11:166,-0.357,-0.394,0.928,84.533,135.864,-43.091,
00:00:11:183,-0.348,-0.345,0.879,124.817,148.498,-41.626,
00:00:11:200,-0.344,-0.356,0.862,188.293,167.968,-47.181,
00:00:11:216,-0.329,-0.388,0.888,218.383,180.236,-69.397,
00:00:11:233,-0.309,-0.425,0.955,208.191,198.425,-99.976,
00:00:11:250,-0.27,-0.435,0.974,187.744,218.444,-101.502,
00:00:11:266,-0.245,-0.396,0.995,204.589,205.993,-89.112,
00:00:11:283,-0.255,-0.359,0.967,293.151,193.481,-99.915,
00:00:11:300,-0.261,-0.341,0.976,392.639,191.345,-105.042,
00:00:11:316,-0.25,-0.477,0.955,442.199,248.596,-81.36,
00:00:11:333,-0.21,-0.58,0.947,317.688,244.201,-88.746,
00:00:11:350,-0.179,-0.54,0.976,179.626,177.307,-111.512,
00:00:11:366,-0.186,-0.416,1.003,134.704,80.81,-135.865,
00:00:11:383,-0.227,-0.358,1.041,210.022,53.772,-140.381,
00:00:11:400,-0.239,-0.396,1.1,330.505,43.457,-156.922,
00:00:11:416,-0.221,-0.451,1.109,409.668,29.602,-170.777,
00:00:11:433,-0.223,-0.492,1.046,438.293,-5.921,-170.899,
00:00:11:450,-0.235,-0.497,0.966,434.997,-59.632,-148.682,
00:00:11:466,-0.259,-0.536,0.904,412.536,-103.943,-156.373,
00:00:11:483,-0.292,-0.589,0.902,359.192,-154.969,-159.852,
00:00:11:500,-0.308,-0.615,0.856,270.568,-171.326,-152.649,
00:00:11:516,-0.329,-0.58,0.829,161.56,-188.721,-141.48,
00:00:11:533,-0.343,-0.565,0.82,113.525,-169.068,-133.789,
00:00:11:550,-0.365,-0.567,0.78,46.752,-150.757,-135.987,
00:00:11:566,-0.38,-0.526,0.78,23.986,-130.127,-92.896,
00:00:11:583,-0.379,-0.519,0.769,-24.231,-84.595,-88.257,
00:00:11:600,-0.367,-0.545,0.779,-68.238,-59.693,-67.566,
00:00:11:616,-0.345,-0.556,0.772,-141.358,-52.43,-28.687,
00:00:11:633,-0.328,-0.538,0.736,-215.516,-69.825,-24.476,
00:00:11:650,-0.331,-0.53,0.702,-264.588,-116.333,-13.367,
00:00:11:666,-0.355,-0.579,0.704,-323.243,-171.448,-0.733,
00:00:11:683,-0.367,-0.621,0.702,-452.149,-202.088,15.625,
00:00:11:700,-0.38,-0.568,0.695,-606.019,-231.446,57.006,
00:00:11:716,-0.392,-0.481,0.682,-701.539,-262.574,78.857,
00:00:11:733,-0.417,-0.379,0.696,-677.247,-293.213,93.2,
00:00:11:750,-0.456,-0.313,0.691,-582.276,-278.809,86.669,
00:00:11:766,-0.467,-0.406,0.714,-502.32,-244.446,70.007,
00:00:11:783,-0.464,-0.461,0.77,-559.082,-208.68,75.683,
00:00:11:800,-0.41,-0.373,0.776,-615.723,-185.242,93.139,
00:00:11:816,-0.454,-0.297,0.764,-561.646,-191.224,104.065,
00:00:11:833,-0.489,-0.253,0.781,-485.657,-186.097,83.496,
00:00:11:850,-0.511,-0.266,0.774,-422.12,-154.786,69.763,
00:00:11:866,-0.519,-0.257,0.812,-406.922,-117.981,73.059,
00:00:11:883,-0.527,-0.295,0.765,-403.87,-60.486,94.787,
00:00:11:900,-0.513,-0.215,0.755,-413.514,-4.029,131.164,
00:00:11:916,-0.519,-0.15,0.747,-340.516,14.343,120.3,
00:00:11:933,-0.537,-0.165,0.758,-218.506,61.34,92.041,
00:00:11:950,-0.533,-0.186,0.785,-104.798,139.831,51.33,
00:00:11:966,-0.493,-0.205,0.796,-14.71,209.777,22.827,
00:00:11:983,-0.463,-0.252,0.828,64.575,261.413,18.981,
00:00:12:0,-0.43,-0.295,0.851,80.993,288.391,-13.977,
00:00:12:16,-0.392,-0.307,0.886,83.313,317.321,-30.03,
00:00:12:33,-0.354,-0.322,0.92,46.936,308.593,-54.444,
00:00:12:50,-0.32,-0.334,0.951,46.203,293.762,-63.172,
00:00:12:66,-0.311,-0.356,0.969,22.155,233.276,-77.027,
00:00:12:83,-0.328,-0.297,0.961,-12.391,196.167,-83.802,
00:00:12:100,-0.339,-0.221,0.968,38.269,187.317,-86.914,
00:00:12:116,-0.329,-0.196,0.956,161.865,199.89,-104.371,
00:00:12:133,-0.306,-0.214,0.956,258.972,200.866,-120.728,
00:00:12:150,-0.298,-0.298,0.957,345.703,180.664,-134.522,
00:00:12:166,-0.29,-0.367,0.96,337.524,158.508,-130.066,
00:00:12:183,-0.285,-0.38,0.967,292.297,140.319,-134.949,
00:00:12:200,-0.277,-0.338,0.99,259.399,108.947,-148.194,
00:00:12:216,-0.285,-0.275,0.99,296.997,88.684,-151.307,
00:00:12:233,-0.296,-0.257,0.981,368.53,86.12,-170.166,
00:00:12:250,-0.308,-0.261,0.978,471.801,96.435,-188.294,
00:00:12:266,-0.308,-0.317,0.964,539.123,119.934,-204.041,
00:00:12:283,-0.3,-0.401,0.974,535.644,132.019,-226.075,
00:00:12:300,-0.285,-0.469,0.974,446.899,133.178,-245.301,
00:00:12:316,-0.285,-0.465,0.994,328.369,113.159,-207.093,
00:00:12:333,-0.285,-0.371,0.979,279.052,93.261,-164.917,
00:00:12:350,-0.29,-0.326,0.981,320.617,76.904,-159.79,
00:00:12:366,-0.286,-0.35,0.98,421.203,57.8,-170.044,
00:00:12:383,-0.292,-0.421,0.95,508.789,35.949,-164.063,
00:00:12:400,-0.291,-0.504,0.932,511.84,5.31,-160.218,
00:00:12:416,-0.291,-0.587,0.917,436.035,-16.175,-156.556,
00:00:12:433,-0.292,-0.608,0.902,308.044,-41.321,-130.555,
00:00:12:450,-0.295,-0.581,0.871,196.533,-60.181,-116.333,
00:00:12:466,-0.309,-0.555,0.866,112.671,-81.604,-113.709,
00:00:12:483,-0.327,-0.546,0.832,56.884,-83.374,-120.911,
00:00:12:500,-0.337,-0.533,0.837,7.568,-91.431,-111.145,
00:00:12:516,-0.346,-0.544,0.846,-39.124,-98.45,-102.051,
00:00:12:533,-0.349,-0.567,0.856,-123.475,-106.08,-79.407,
00:00:12:550,-0.35,-0.554,0.857,-213.257,-135.01,-60.059,
00:00:12:566,-0.367,-0.498,0.811,-302.247,-160.767,-24.903,
00:00:12:583,-0.388,-0.462,0.811,-338.562,-188.599,-11.658,
00:00:12:600,-0.406,-0.443,0.79,-367.615,-207.52,-0.061,
00:00:12:616,-0.42,-0.419,0.794,-396.79,-216.919,28.991,
00:00:12:633,-0.433,-0.419,0.797,-415.345,-218.934,37.475,
00:00:12:650,-0.448,-0.444,0.774,-461.731,-195.557,79.711,
00:00:12:666,-0.436,-0.416,0.767,-517.09,-183.96,103.027,
00:00:12:683,-0.43,-0.358,0.747,-538.514,-195.313,123.352,
00:00:12:700,-0.442,-0.33,0.747,-517.945,-205.323,124.878,
00:00:12:716,-0.457,-0.344,0.746,-482.544,-200.684,118.896,
00:00:12:733,-0.457,-0.307,0.733,-477.845,-192.566,105.651,
00:00:12:750,-0.485,-0.289,0.715,-442.688,-187.012,103.271,
00:00:12:766,-0.503,-0.288,0.705,-414.673,-148.926,87.463,
00:00:12:783,-0.504,-0.277,0.698,-389.222,-99.366,81.665,
00:00:12:800,-0.494,-0.25,0.689,-368.714,-55.42,76.171,
00:00:12:816,-0.493,-0.21,0.7,-319.764,-34.119,66.711,
00:00:12:833,-0.507,-0.221,0.712,-253.724,25.573,70.007,
00:00:12:850,-0.497,-0.246,0.741,-188.172,101.257,49.621,
00:00:12:866,-0.461,-0.248,0.773,-163.575,161.255,39.917,
00:00:12:883,-0.426,-0.243,0.813,-121.155,168.884,23.742,
00:00:12:900,-0.415,-0.224,0.829,-91.614,155.151,28.93,
00:00:12:916,-0.42,-0.2,0.824,-68.909,128.906,27.16,
00:00:12:933,-0.434,-0.21,0.838,-23.926,129.455,35.522,
00:00:12:950,-0.431,-0.262,0.876,-20.264,167.907,49.316,
00:00:12:966,-0.392,-0.336,0.923,-42.664,217.407,31.433,
00:00:12:983,-0.348,-0.35,0.929,-110.413,206.848,26.306,
00:00:13:0,-0.342,-0.3,0.948,-165.162,145.507,21.362,
00:00:13:16,-0.361,-0.214,0.974,-119.263,107.666,9.887,
00:00:13:33,-0.386,-0.184,1,0.366,119.506,-17.273,
00:00:13:50,-0.39,-0.211,0.989,115.234,166.32,-54.566,
00:00:13:66,-0.37,-0.239,1.008,170.837,194.336,-85.694,
00:00:13:83,-0.344,-0.279,1.026,200.256,201.965,-98.877,
00:00:13:100,-0.319,-0.305,1.044,198.242,179.87,-105.042,
00:00:13:116,-0.301,-0.304,1.03,196.411,154.602,-106.507,
00:00:13:133,-0.303,-0.291,1.012,204.101,113.281,-121.949,
00:00:13:150,-0.314,-0.251,1.009,245.788,83.618,-135.071,
00:00:13:166,-0.333,-0.22,1.029,328.735,73.73,-154.053,
00:00:13:183,-0.336,-0.192,1.017,438.964,88.806,-171.998,
00:00:13:200,-0.338,-0.249,0.989,537.292,113.525,-176.331,
00:00:13:216,-0.323,-0.337,0.97,552.063,136.169,-187.561,
00:00:13:233,-0.3,-0.38,0.988,486.206,146.667,-186.585,
00:00:13:250,-0.281,-0.335,0.968,408.996,119.079,-184.082,
00:00:13:266,-0.287,-0.281,0.947,424.133,75.988,-168.885,
00:00:13:283,-0.315,-0.293,0.939,473.755,61.523,-158.081,
00:00:13:300,-0.329,-0.363,0.962,480.468,80.627,-145.386,
00:00:13:316,-0.308,-0.435,0.936,411.255,105.774,-144.715,
00:00:13:333,-0.274,-0.454,0.914,315.918,93.2,-134.034,
00:00:13:350,-0.258,-0.43,0.899,259.216,48.828,-91.309,
00:00:13:366,-0.271,-0.422,0.887,231.323,2.258,-64.881,
00:00:13:383,-0.298,-0.473,0.868,185.485,-9.339,-82.886,
00:00:13:400,-0.312,-0.528,0.888,130.737,-4.944,-92.469,
00:00:13:416,-0.311,-0.538,0.911,35.034,-6.592,-83.435,
00:00:13:433,-0.3,-0.459,0.9,-15.503,-26.001,-65.613,
00:00:13:450,-0.304,-0.402,0.871,17.578,-40.833,-64.393,
00:00:13:466,-0.319,-0.415,0.885,81.176,-41.077,-99.854,
00:00:13:483,-0.324,-0.46,0.889,91.064,-52.491,-123.169,
00:00:13:500,-0.326,-0.472,0.896,32.898,-70.557,-109.375,
00:00:13:516,-0.325,-0.458,0.872,-2.747,-82.459,-95.704,
00:00:13:533,-0.335,-0.455,0.888,-29.664,-93.018,-68.055,
00:00:13:550,-0.323,-0.423,0.866,-44.739,-100.281,-42.237,
00:00:13:566,-0.316,-0.424,0.852,-52.185,-127.503,-25.513,
00:00:13:583,-0.339,-0.472,0.829,-76.233,-185.791,-5.433,
00:00:13:600,-0.364,-0.502,0.782,-146.485,-192.688,34.362,
00:00:13:616,-0.403,-0.505,0.769,-256.043,-203.248,60.18,
00:00:13:633,-0.414,-0.474,0.784,-362.915,-174.622,109.069,
00:00:13:650,-0.424,-0.455,0.818,-435.12,-169.373,116.699,
00:00:13:666,-0.419,-0.372,0.804,-452.942,-158.326,148.071,
00:00:13:683,-0.421,-0.291,0.787,-384.705,-151.307,140.991,
00:00:13:700,-0.436,-0.311,0.791,-272.583,-142.945,104.126,
00:00:13:716,-0.447,-0.428,0.766,-248.536,-109.375,84.35,
00:00:13:733,-0.44,-0.459,0.758,-323.182,-106.385,93.322,
00:00:13:750,-0.433,-0.388,0.77,-387.513,-124.878,122.375,
00:00:13:766,-0.441,-0.341,0.788,-396.119,-129.517,110.168,
00:00:13:783,-0.442,-0.337,0.804,-371.705,-140.503,116.943,
00:00:13:800,-0.455,-0.302,0.796,-364.014,-153.199,125.976,
00:00:13:816,-0.481,-0.286,0.799,-342.469,-150.818,115.417,
00:00:13:833,-0.499,-0.278,0.782,-310.608,-98.45,105.529,
00:00:13:850,-0.5,-0.285,0.781,-276.49,-39.978,72.815,
00:00:13:866,-0.486,-0.277,0.775,-255.127,14.526,55.053,
00:00:13:883,-0.472,-0.252,0.772,-215.027,38.024,33.874,
00:00:13:900,-0.467,-0.276,0.784,-180.542,74.707,4.638,
00:00:13:916,-0.458,-0.303,0.817,-188.05,114.563,-28.077,
00:00:13:933,-0.44,-0.32,0.85,-220.826,140.747,-27.161,
00:00:13:950,-0.419,-0.236,0.851,-239.563,149.536,-8.179,
00:00:13:966,-0.414,-0.159,0.849,-160.34,133.789,-18.006,
00:00:13:983,-0.426,-0.205,0.839,-77.454,136.657,-46.875,
00:00:14:0,-0.43,-0.291,0.858,-47.73,161.377,-58.655,
00:00:14:16,-0.413,-0.313,0.876,-110.352,180.053,-51.026,
00:00:14:33,-0.392,-0.245,0.896,-151.673,170.715,-46.021,
00:00:14:50,-0.387,-0.176,0.9,-112.488,171.386,-53.04,mixLH
00:00:14:66,-0.388,-0.142,0.922,-28.321,194.58,-76.416,
00:00:14:83,-0.376,-0.148,0.942,76.599,243.164,-104.432,
00:00:14:100,-0.35,-0.231,0.967,134.216,295.654,-132.935,
00:00:14:116,-0.301,-0.287,0.991,119.751,308.044,-157.41,
00:00:14:133,-0.257,-0.262,1.001,94.177,274.475,-162.476,
00:00:14:150,-0.24,-0.186,1.021,130.371,216.797,-157.654,
00:00:14:166,-0.253,-0.182,1.033,240.6,184.143,-182.679,
00:00:14:183,-0.267,-0.205,1.044,331.482,191.101,-205.323,
00:00:14:200,-0.257,-0.285,1.05,374.817,211.486,-216.187,
00:00:14:216,-0.2,-0.226,1.03,399.536,98.388,-203.064,
00:00:14:233,-0.223,-0.187,1.047,473.266,56.823,-208.008,
00:00:14:250,-0.247,-0.217,1.039,553.894,50.231,-212.708,
00:00:14:266,-0.26,-0.292,1.01,574.89,52.246,-208.863,
00:00:14:283,-0.258,-0.337,0.999,542.175,45.471,-179.932,
00:00:14:300,-0.253,-0.34,0.977,505.981,19.409,-145.691,
00:00:14:316,-0.258,-0.352,0.974,473.755,-1.16,-121.216,
00:00:14:333,-0.264,-0.381,0.95,445.007,-14.588,-120.423,
00:00:14:350,-0.275,-0.437,0.932,387.817,-22.767,-107.789,
00:00:14:366,-0.284,-0.462,0.923,315.002,-37.781,-96.741,
00:00:14:383,-0.289,-0.473,0.91,247.802,-44.007,-79.529,
00:00:14:400,-0.302,-0.474,0.877,121.215,-76.966,-60.242,
00:00:14:416,-0.316,-0.48,0.869,55.725,-84.351,-57.984,
00:00:14:433,-0.32,-0.501,0.867,-17.701,-90.882,-65.552,
00:00:14:450,-0.32,-0.472,0.875,-86.426,-116.639,-31.8,
00:00:14:466,-0.337,-0.441,0.863,-135.56,-146.058,-7.752,
00:00:14:483,-0.359,-0.455,0.87,-177.002,-155.701,-4.395,
00:00:14:500,-0.364,-0.465,0.875,-240.479,-157.898,11.779,
00:00:14:516,-0.361,-0.44,0.872,-307.496,-158.326,51.94,
00:00:14:533,-0.36,-0.406,0.869,-334.839,-175.171,49.499,
00:00:14:550,-0.364,-0.39,0.857,-354.248,-196.839,71.716,
00:00:14:566,-0.385,-0.396,0.856,-368.042,-215.943,81.787,
00:00:14:583,-0.395,-0.392,0.869,-396.424,-210.999,96.862,
00:00:14:600,-0.401,-0.337,0.871,-397.644,-211.243,109.68,
00:00:14:616,-0.401,-0.324,0.848,-266.785,-156.617,125.976,
00:00:14:633,-0.408,-0.314,0.81,-259.156,-153.199,137.024,
00:00:14:650,-0.421,-0.264,0.791,-250.367,-144.898,141.418,
00:00:14:666,-0.418,-0.236,0.735,-240.967,-141.358,124.084,
00:00:14:683,-0.428,-0.302,0.715,-235.718,-153.199,108.886,
00:00:14:700,-0.451,-0.347,0.73,-291.382,-171.265,111.877,
00:00:14:716,-0.476,-0.339,0.749,-372.62,-152.71,126.403,
00:00:14:733,-0.489,-0.261,0.75,-402.771,-104.432,157.226,
00:00:14:750,-0.485,-0.175,0.752,-346.497,-30.701,134.704,
00:00:14:766,-0.473,-0.179,0.749,-227.356,40.1,86.608,
00:00:14:783,-0.451,-0.264,0.749,-140.198,88.012,37.963,
00:00:14:800,-0.438,-0.342,0.763,-156.922,124.084,0.61,
00:00:14:816,-0.424,-0.363,0.806,-238.648,144.165,12.573,
00:00:14:833,-0.407,-0.276,0.858,-309.693,161.804,10.681,
00:00:14:850,-0.401,-0.176,0.888,-291.199,163.086,12.817,
00:00:14:866,-0.405,-0.133,0.912,-206.421,174.804,-0.733,
00:00:14:883,-0.398,-0.163,0.924,-114.808,201.782,-13.977,
00:00:14:900,-0.374,-0.228,0.931,-90.149,214.233,-18.921,
00:00:14:916,-0.343,-0.268,0.944,-116.822,190.979,-20.935,
00:00:14:933,-0.324,-0.237,0.934,-170.044,126.037,-11.841,
00:00:14:950,-0.344,-0.168,0.962,-170.411,52.063,-6.897,
00:00:14:966,-0.373,-0.137,0.974,-112.122,42.114,-14.1,
00:00:14:983,-0.39,-0.134,0.969,-36.805,66.833,-33.692,
00:00:15:0,-0.379,-0.147,0.985,29.541,108.276,-42.237,
00:00:15:16,-0.35,-0.187,0.987,63.842,131.408,-64.515,
00:00:15:33,-0.336,-0.206,0.981,71.594,112.976,-79.834,
00:00:15:50,-0.337,-0.204,0.982,64.697,95.336,-92.652,
00:00:15:66,-0.335,-0.178,1.001,78.857,98.877,-103.089,
00:00:15:83,-0.339,-0.171,1.012,123.84,118.225,-127.015,
00:00:15:100,-0.328,-0.163,1.003,174.926,133.3,-155.762,
00:00:15:116,-0.316,-0.168,0.994,227.905,137.939,-162.293,
00:00:15:133,-0.309,-0.185,0.983,270.08,133.361,-179.505,
00:00:15:150,-0.311,-0.198,0.95,293.579,128.845,-185.547,
00:00:15:166,-0.309,-0.205,0.952,312.805,138.183,-187.684,
00:00:15:183,-0.294,-0.198,0.955,334.838,148.01,-196.595,
00:00:15:200,-0.28,-0.195,0.955,377.258,139.648,-197.144,
00:00:15:216,-0.27,-0.19,0.96,435.913,127.136,-200.928,
00:00:15:233,-0.272,-0.249,0.973,481.689,122.802,-205.994,
00:00:15:250,-0.26,-0.268,0.975,494.262,121.399,-198.243,
00:00:15:266,-0.253,-0.289,0.97,503.54,108.215,-188.355,
00:00:15:283,-0.246,-0.299,0.975,497.68,89.233,-181.031,
00:00:15:300,-0.246,-0.298,0.978,489.929,65.002,-172.364,
00:00:15:316,-0.248,-0.289,0.986,503.662,44.128,-167.786,
00:00:15:333,-0.256,-0.327,1.001,518.127,27.893,-157.959,
00:00:15:350,-0.253,-0.349,0.982,497.985,23.193,-130.738,
00:00:15:366,-0.25,-0.357,0.95,466.552,-1.038,-108.338,
00:00:15:383,-0.254,-0.38,0.927,429.077,-26.49,-89.539,
00:00:15:400,-0.258,-0.4,0.931,386.718,-60.12,-74.524,
00:00:15:416,-0.268,-0.435,0.905,343.933,-70.679,-65.064,
00:00:15:433,-0.269,-0.471,0.889,283.203,-79.102,-51.514,
00:00:15:450,-0.279,-0.53,0.91,220.642,-97.046,-59.754,
00:00:15:466,-0.279,-0.552,0.909,108.093,-129.151,-36.133,
00:00:15:483,-0.296,-0.546,0.909,8.178,-155.701,-15.32,
00:00:15:500,-0.318,-0.534,0.906,-67.444,-180.176,-17.151,
00:00:15:516,-0.342,-0.527,0.929,-145.997,-196.473,-2.747,
00:00:15:533,-0.351,-0.504,0.905,-202.515,-186.463,7.568,
00:00:15:550,-0.354,-0.501,0.893,-252.808,-194.092,-3.785,
00:00:15:566,-0.372,-0.521,0.887,-311.646,-211.487,5.249,
00:00:15:583,-0.392,-0.494,0.889,-391.236,-227.295,22.644,
00:00:15:600,-0.406,-0.414,0.888,-434.876,-228.089,43.273,
00:00:15:616,-0.414,-0.367,0.861,-415.894,-223.389,36.438,
00:00:15:633,-0.422,-0.377,0.839,-379.578,-206.177,30.517,
00:00:15:650,-0.428,-0.394,0.841,-396.485,-196.289,24.78,
00:00:15:666,-0.434,-0.393,0.823,-424.5,-193.604,33.63,
00:00:15:683,-0.438,-0.336,0.79,-460.328,-184.144,76.538,
00:00:15:700,-0.447,-0.313,0.759,-469.605,-172.12,79.528,
00:00:15:716,-0.457,-0.38,0.757,-489.441,-151.49,81.359,
00:00:15:733,-0.443,-0.356,0.76,-580.262,-156.25,109.375,
00:00:15:750,-0.447,-0.254,0.749,-606.446,-174.439,134.216,
00:00:15:766,-0.474,-0.187,0.726,-540.711,-164.124,117.37,
00:00:15:783,-0.5,-0.222,0.712,-423.706,-98.633,68.664,
00:00:15:800,-0.511,-0.162,0.748,-378.663,-65.43,69.763,
00:00:15:816,-0.514,-0.199,0.77,-348.206,14.099,36.071,
00:00:15:833,-0.489,-0.16,0.772,-337.647,81.604,70.678,
00:00:15:850,-0.454,-0.079,0.798,-272.583,113.281,78.491,
00:00:15:866,-0.44,-0.115,0.797,-156.311,128.906,6.469,
00:00:15:883,-0.45,-0.164,0.859,-125.733,150.329,10.498,
00:00:15:900,-0.436,-0.124,0.869,-115.052,157.104,11.718,
00:00:15:916,-0.429,-0.108,0.872,-73.914,152.404,7.202,
00:00:15:933,-0.436,-0.141,0.875,-56.519,146.301,-9.583,
00:00:15:950,-0.432,-0.159,0.885,-74.463,161.56,-7.508,
00:00:15:966,-0.412,-0.147,0.929,-90.027,181.518,-19.043,
00:00:15:983,-0.375,-0.115,0.979,-52.063,195.8,-37.598,
00:00:16:0,-0.351,-0.089,1.018,10.803,182.251,-45.35,
00:00:16:16,-0.339,-0.076,1.017,124.328,168.213,-59.144,
00:00:16:33,-0.341,-0.112,1.019,217.529,162.597,-82.032,
00:00:16:50,-0.346,-0.151,1.018,284.668,172.424,-119.507,
00:00:16:66,-0.328,-0.163,1.022,321.594,186.279,-135.743,
00:00:16:83,-0.315,-0.161,0.989,366.455,180.236,-160.767,
00:00:16:100,-0.31,-0.181,0.985,400.39,157.043,-171.631,
00:00:16:116,-0.308,-0.163,0.974,447.509,152.038,-162.415,
00:00:16:133,-0.299,-0.161,0.97,516.052,144.226,-168.641,
00:00:16:150,-0.309,-0.204,0.949,576.782,157.47,-171.326,
00:00:16:166,-0.292,-0.232,0.961,563.903,178.833,-167.481,
00:00:16:183,-0.278,-0.288,0.965,568.969,185.913,-181.092,
00:00:16:200,-0.262,-0.323,0.991,531.25,180.42,-166.382,
00:00:16:216,-0.241,-0.293,0.977,498.23,161.316,-146.485,
00:00:16:233,-0.246,-0.248,0.975,499.817,117.126,-131.775,
00:00:16:250,-0.26,-0.237,0.984,546.081,85.754,-127.93,
00:00:16:266,-0.268,-0.281,0.983,601.135,68.664,-142.456,
00:00:16:283,-0.272,-0.341,0.986,625.244,59.021,-134.339,
00:00:16:300,-0.265,-0.38,0.988,625.183,41.626,-123.23,
00:00:16:316,-0.272,-0.424,0.952,571.228,7.507,-109.314,
00:00:16:333,-0.288,-0.471,0.934,497.68,-18.921,-83.069,
00:00:16:350,-0.298,-0.513,0.929,397.033,-31.495,-85.022,
00:00:16:366,-0.296,-0.52,0.914,295.593,-58.411,-62.5,
00:00:16:383,-0.313,-0.519,0.917,195.495,-75.44,-53.589,
00:00:16:400,-0.32,-0.519,0.917,114.99,-80.445,-51.148,
00:00:16:416,-0.326,-0.517,0.92,56.884,-89.844,-41.382,
00:00:16:433,-0.332,-0.534,0.895,-2.137,-86.182,-38.025,
00:00:16:450,-0.337,-0.539,0.888,-85.022,-97.046,-28.626,
00:00:16:466,-0.333,-0.5,0.94,-123.291,-106.873,-21.973,
00:00:16:483,-0.335,-0.479,0.886,-135.987,-96.985,-37.293,
00:00:16:500,-0.349,-0.469,0.871,-122.498,-108.948,-15.686,
00:00:16:516,-0.358,-0.476,0.86,-128.602,-105.225,-26.123,
00:00:16:533,-0.357,-0.516,0.854,-152.832,-106.324,-43.213,
00:00:16:550,-0.359,-0.55,0.829,-256.714,-116.761,-26.368,
00:00:16:566,-0.357,-0.515,0.832,-359.986,-146.851,-5.494,
00:00:16:583,-0.373,-0.43,0.861,-421.143,-177.735,18.371,
00:00:16:600,-0.391,-0.345,0.854,-391.053,-185.059,33.386,
00:00:16:616,-0.396,-0.288,0.868,-340.638,-164.917,23.742,
00:00:16:633,-0.407,-0.294,0.829,-246.399,-142.823,23.01,
00:00:16:650,-0.418,-0.319,0.84,-214.417,-133.606,24.047,
00:00:16:667,-0.428,-0.332,0.8,-220.215,-99.305,39.856,
00:00:16:683,-0.411,-0.341,0.798,-229.676,-89.051,59.082,
00:00:16:700,-0.405,-0.34,0.826,-282.41,-114.075,83.984,
00:00:16:717,-0.407,-0.271,0.784,-297.059,-108.887,115.051,
00:00:16:733,-0.423,-0.356,0.687,-220.581,-64.759,112.365,
00:00:16:750,-0.419,-0.358,0.74,-265.992,-69.275,106.994,
00:00:16:767,-0.409,-0.347,0.744,-265.87,-62.073,95.52,
00:00:16:783,-0.409,-0.366,0.792,-260.682,-58.289,80.444,
00:00:16:800,-0.416,-0.364,0.798,-275.635,-33.692,66.711,
00:00:16:817,-0.413,-0.338,0.73,-283.02,10.681,31.86,
00:00:16:833,-0.415,-0.336,0.758,-339.722,16.174,31.982,
00:00:16:850,-0.409,-0.308,0.831,-382.813,13.549,11.535,
00:00:16:867,-0.418,-0.251,0.903,-404.725,32.714,25.94,
00:00:16:883,-0.422,-0.178,0.957,-383.545,58.96,13.855,
00:00:16:900,-0.413,-0.117,0.977,-270.63,102.234,-3.846,
00:00:16:917,-0.403,-0.092,0.986,-100.403,134.521,-23.987,
00:00:16:933,-0.4,-0.142,0.918,51.452,168.274,-63.904,
00:00:16:950,-0.413,-0.25,0.928,112.243,178.161,-85.083,
00:00:16:967,-0.394,-0.27,0.909,78.796,218.383,-97.168,
00:00:16:983,-0.366,-0.239,0.919,33.691,206.543,-112.732,
00:00:17:0,-0.351,-0.17,0.915,40.893,180.42,-114.38,
00:00:17:17,-0.365,-0.156,0.941,108.886,167.846,-133.545,
00:00:17:33,-0.373,-0.147,0.946,197.387,182.19,-131.897,
00:00:17:50,-0.368,-0.162,0.938,274.963,208.801,-146.363,
00:00:17:67,-0.35,-0.19,0.951,330.017,231.994,-166.871,
00:00:17:83,-0.328,-0.273,0.942,335.266,262.207,-171.936,
00:00:17:100,-0.294,-0.311,0.962,267.212,247.436,-168.519,
00:00:17:117,-0.263,-0.246,0.979,217.529,200.378,-145.569,
00:00:17:133,-0.266,-0.177,1.022,259.643,131.164,-143.616,
00:00:17:150,-0.291,-0.13,1.048,389.831,104.919,-143.372,
00:00:17:167,-0.314,-0.146,1.015,523.498,135.925,-132.203,
00:00:17:183,-0.305,-0.261,0.984,601.501,180.786,-143.616,
00:00:17:200,-0.268,-0.388,0.955,555.481,200.744,-147.156,
00:00:17:217,-0.222,-0.416,0.955,446.411,157.165,-118.775,
00:00:17:233,-0.203,-0.359,0.971,372.619,75.073,-89.356,
00:00:17:250,-0.222,-0.299,0.988,397.644,10.864,-90.821,
00:00:17:267,-0.262,-0.286,0.985,470.886,-4.09,-80.994,
00:00:17:283,-0.286,-0.345,0.956,528.625,26.245,-99.549,
00:00:17:300,-0.27,-0.437,0.93,506.408,58.288,-102.356,
00:00:17:317,-0.243,-0.542,0.91,406.189,46.63,-82.52,
00:00:17:333,-0.233,-0.558,0.932,249.389,-14.954,-53.956,
00:00:17:350,-0.24,-0.473,0.924,136.108,-82.825,-19.837,
00:00:17:367,-0.272,-0.392,0.922,144.653,-118.531,-17.823,
00:00:17:383,-0.308,-0.399,0.915,219.055,-117.737,-42.237,
00:00:17:400,-0.319,-0.469,0.921,266.784,-88.257,-61.219,
00:00:17:417,-0.307,-0.569,0.88,225.463,-61.524,-48.829,
00:00:17:433,-0.287,-0.626,0.855,100.525,-87.098,-31.739,
00:00:17:450,-0.286,-0.594,0.853,-54.322,-135.315,-7.691,
00:00:17:467,-0.302,-0.515,0.86,-147.644,-184.266,5.004,
00:00:17:483,-0.332,-0.489,0.881,-166.565,-202.942,-14.588,
00:00:17:500,-0.344,-0.495,0.896,-193.909,-191.04,14.404,
00:00:17:517,-0.344,-0.482,0.89,-209.656,-178.833,6.774,
00:00:17:533,-0.342,-0.456,0.859,-212.22,-180.909,17.883,
00:00:17:550,-0.353,-0.435,0.827,-194.214,-191.346,10.559,
00:00:17:567,-0.376,-0.459,0.811,-186.585,-188.355,-4.09,
00:00:17:583,-0.39,-0.493,0.808,-226.624,-191.224,5.615,
00:00:17:600,-0.393,-0.484,0.786,-325.379,-175.477,37.963,
00:00:17:617,-0.399,-0.478,0.807,-406.373,-182.923,60.791,
00:00:17:633,-0.403,-0.446,0.836,-473.023,-181.946,86.242,
00:00:17:650,-0.409,-0.385,0.816,-476.38,-172.303,107.36,
00:00:17:667,-0.412,-0.337,0.798,-426.087,-157.898,95.703,
00:00:17:683,-0.416,-0.335,0.794,-358.704,-158.081,66.467,
00:00:17:700,-0.419,-0.396,0.806,-328.003,-160.645,29.785,
00:00:17:717,-0.428,-0.435,0.812,-371.155,-158.875,33.691,
00:00:17:733,-0.429,-0.343,0.815,-412.049,-155.518,43.762,
00:00:17:750,-0.429,-0.282,0.793,-362.183,-135.498,24.78,
00:00:17:767,-0.433,-0.302,0.791,-304.017,-128.663,-6.531,
00:00:17:783,-0.441,-0.352,0.789,-302.857,-121.338,-21.485,
00:00:17:800,-0.448,-0.306,0.808,-344.361,-121.521,-9.644,
00:00:17:817,-0.455,-0.24,0.802,-352.845,-104.371,-3.602,
00:00:17:833,-0.47,-0.198,0.796,-310.242,-80.872,-9.156,
00:00:17:850,-0.47,-0.185,0.814,-250.061,-49.012,-27.405,
00:00:17:867,-0.465,-0.185,0.811,-192.2,-15.992,-35.584,
00:00:17:883,-0.47,-0.188,0.797,-138.062,17.028,-33.387,
00:00:17:900,-0.467,-0.188,0.792,-108.46,53.344,-31.983,
00:00:17:917,-0.467,-0.2,0.79,-79.468,65.918,-41.077,
00:00:17:933,-0.466,-0.249,0.832,-100.831,113.525,-70.191,
00:00:17:950,-0.441,-0.183,0.851,-124.268,140.808,-36.866,
00:00:17:967,-0.428,-0.104,0.844,-35.889,159.179,-36.744,
00:00:17:983,-0.433,-0.14,0.835,91.857,181.03,-79.895,
00:00:18:0,-0.426,-0.249,0.828,145.446,208.191,-93.811,
00:00:18:17,-0.419,-0.308,0.832,98.205,217.407,-105.896,
00:00:18:33,-0.412,-0.299,0.867,7.69,211.67,-109.436,
00:00:18:50,-0.411,-0.221,0.932,-36.194,223.693,-103.516,
00:00:18:67,-0.397,-0.163,0.966,17.395,263.183,-106.263,mixLH
00:00:18:83,-0.37,-0.158,0.999,93.444,286.255,-107.789,
00:00:18:100,-0.337,-0.2,1.005,142.456,288.635,-100.831,
00:00:18:117,-0.308,-0.224,1.016,123.535,247.009,-90.332,
00:00:18:133,-0.295,-0.216,1.02,101.989,178.344,-87.159,
00:00:18:150,-0.31,-0.171,0.976,110.107,125.122,-69.153,
00:00:18:167,-0.332,-0.125,0.961,186.157,83.19,-63.233,
00:00:18:183,-0.356,-0.124,0.968,279.419,63.964,-79.285,
00:00:18:200,-0.37,-0.143,0.973,385.681,83.862,-79.651,
00:00:18:217,-0.362,-0.197,0.976,434.265,134.765,-78.98,
00:00:18:233,-0.326,-0.285,0.957,439.087,195.312,-100.953,
00:00:18:250,-0.282,-0.318,0.973,395.813,181.579,-93.75,
00:00:18:267,-0.26,-0.226,0.986,388.244,139.709,-61.829,
00:00:18:283,-0.264,-0.18,0.999,489.929,100.219,-57.679,
00:00:18:300,-0.285,-0.188,1,671.447,83.068,-68.604,
00:00:18:317,-0.297,-0.253,0.991,814.209,96.862,-76.661,
00:00:18:333,-0.287,-0.357,0.963,881.897,118.53,-75.44,
00:00:18:350,-0.258,-0.489,0.953,851.989,118.225,-73.975,
00:00:18:367,-0.232,-0.544,0.923,727.661,69.091,-67.322,
00:00:18:383,-0.234,-0.525,0.893,633.728,5.371,-46.936,
00:00:18:400,-0.259,-0.543,0.873,601.013,-51.453,-58.96,
00:00:18:417,-0.289,-0.598,0.853,539.856,-69.275,-67.688,
00:00:18:433,-0.309,-0.624,0.829,433.227,-68.726,-71.961,
00:00:18:450,-0.314,-0.639,0.822,314.514,-53.284,-57.801,
00:00:18:467,-0.312,-0.629,0.818,204.834,-49.622,-58.35,
00:00:18:483,-0.312,-0.605,0.813,136.047,-54.81,-44.678,
00:00:18:500,-0.318,-0.591,0.789,93.566,-65.552,-40.284,
00:00:18:517,-0.319,-0.618,0.78,51.086,-65.613,-41.565,
00:00:18:533,-0.321,-0.647,0.805,-46.814,-74.463,-38.269,
00:00:18:550,-0.314,-0.634,0.804,-133.179,-90.271,-18.677,
00:00:18:567,-0.312,-0.605,0.815,-205.628,-113.282,-5.005,
00:00:18:583,-0.315,-0.596,0.8,-261.597,-127.32,-7.081,
00:00:18:600,-0.317,-0.585,0.803,-309.327,-145.997,-11.231,
00:00:18:617,-0.327,-0.57,0.808,-346.68,-174.439,-1.526,
00:00:18:633,-0.374,-0.565,0.823,-378.724,-186.646,4.089,
00:00:18:650,-0.364,-0.577,0.81,-445.984,-178.406,6.469,
00:00:18:667,-0.365,-0.497,0.807,-481.812,-179.261,26.855,
00:00:18:683,-0.369,-0.391,0.813,-462.708,-193.909,21.057,
00:00:18:700,-0.394,-0.358,0.817,-345.093,-197.632,6.53,
00:00:18:717,-0.419,-0.387,0.802,-257.264,-167.298,6.713,
00:00:18:733,-0.434,-0.426,0.752,-237.977,-119.446,3.601,
00:00:18:750,-0.428,-0.47,0.759,-292.176,-71.595,-0.123,
00:00:18:767,-0.406,-0.442,0.797,-350.769,-69.153,18.615,
00:00:18:783,-0.404,-0.394,0.819,-356.873,-87.037,35.827,
00:00:18:800,-0.417,-0.36,0.836,-330.506,-91.675,29.968,
00:00:18:817,-0.413,-0.361,0.842,-289.063,-57.923,17.089,
00:00:18:833,-0.396,-0.418,0.832,-265.686,-42.969,3.784,
00:00:18:850,-0.383,-0.45,0.819,-293.396,-60.791,6.164,
00:00:18:867,-0.385,-0.463,0.798,-359.253,-95.643,5.31,
00:00:18:883,-0.397,-0.423,0.805,-430.359,-127.564,1.831,
00:00:18:900,-0.437,-0.3,0.817,-422.425,-107.483,-21.485,
00:00:18:917,-0.443,-0.249,0.789,-377.198,-73.243,-35.828,
00:00:18:933,-0.457,-0.277,0.744,-324.646,-23.804,-63.111,
00:00:18:950,-0.457,-0.294,0.733,-316.407,15.075,-82.276,
00:00:18:967,-0.453,-0.316,0.767,-377.137,36.438,-104.798,
00:00:18:983,-0.449,-0.252,0.816,-434.693,48.828,-109.681,
00:00:19:0,-0.449,-0.137,0.836,-423.523,86.364,-68.604,
00:00:19:17,-0.446,-0.088,0.831,-334.839,121.582,-83.924,
00:00:19:33,-0.442,-0.114,0.829,-238.77,150.879,-96.802,
00:00:19:50,-0.438,-0.159,0.845,-218.873,162.902,-93.934,
00:00:19:67,-0.42,-0.133,0.851,-223.084,166.87,-70.008,
00:00:19:83,-0.412,-0.065,0.878,-179.139,160.156,-48.584,
00:00:19:100,-0.415,-0.027,0.88,-70.008,166.626,-49.134,
00:00:19:117,-0.423,-0.063,0.899,38.391,184.265,-44.068,
00:00:19:133,-0.414,-0.073,0.936,127.197,203.247,-53.528,
00:00:19:150,-0.4,-0.086,0.967,207.885,227.478,-58.045,
00:00:19:167,-0.381,-0.09,0.978,296.142,237.121,-64.27,
00:00:19:183,-0.359,-0.084,0.99,397.888,228.759,-65.735,
00:00:19:200,-0.349,-0.091,0.991,521.972,217.041,-70.923,
00:00:19:217,-0.334,-0.163,1.044,622.436,215.332,-79.529,
00:00:19:233,-0.309,-0.253,1.045,670.227,219.787,-86.243,
00:00:19:250,-0.275,-0.231,1.01,664.917,124.389,-57.251,
00:00:19:267,-0.295,-0.234,0.997,725.219,80.2,-60.425,
00:00:19:283,-0.316,-0.263,0.993,788.452,57.128,-67.933,
00:00:19:300,-0.318,-0.313,0.975,829.406,71.289,-67.322,
00:00:19:317,-0.303,-0.393,0.936,833.191,96.618,-67.933,
00:00:19:333,-0.284,-0.475,0.904,768.31,96.252,-62.5,
00:00:19:350,-0.269,-0.54,0.89,639.892,75.988,-51.575,
00:00:19:367,-0.259,-0.545,0.886,519.958,49.011,-37.171,
00:00:19:383,-0.261,-0.509,0.872,451.172,19.287,-19.532,
00:00:19:400,-0.271,-0.492,0.856,430.908,2.929,-22.278,
00:00:19:417,-0.284,-0.518,0.855,441.223,2.502,-42.359,
00:00:19:433,-0.282,-0.564,0.861,439.27,-0.611,-48.035,
00:00:19:450,-0.285,-0.608,0.856,399.963,-11.048,-42.847,
00:00:19:467,-0.308,-0.617,0.777,249.084,-43.335,-35.889,
00:00:19:483,-0.312,-0.637,0.779,186.157,-46.204,-25.513,
00:00:19:500,-0.311,-0.647,0.763,103.637,-52.43,-15.015,
00:00:19:517,-0.307,-0.657,0.772,15.136,-68.665,-2.259,
00:00:19:533,-0.31,-0.641,0.78,-65.003,-91.736,14.221,
00:00:19:550,-0.319,-0.602,0.779,-125.855,-115.601,23.132,
00:00:19:567,-0.329,-0.597,0.78,-129.151,-118.226,20.935,
00:00:19:583,-0.332,-0.643,0.777,-148.56,-119.873,12.023,
00:00:19:600,-0.338,-0.637,0.775,-219.483,-130.799,15.136,
00:00:19:617,-0.351,-0.603,0.798,-277.283,-146.973,22.461,
00:00:19:633,-0.359,-0.54,0.833,-282.105,-147.095,24.475,
00:00:19:650,-0.362,-0.518,0.803,-239.93,-124.207,15.564,
00:00:19:667,-0.334,-0.609,0.79,-375.245,-159.119,16.235,
00:00:19:683,-0.35,-0.505,0.782,-416.687,-187.989,28.015,
00:00:19:700,-0.381,-0.469,0.767,-357.117,-197.876,9.582,
00:00:19:717,-0.397,-0.513,0.737,-330.14,-171.021,-3.357,
00:00:19:733,-0.398,-0.558,0.729,-385.254,-158.753,-7.447,
00:00:19:750,-0.393,-0.537,0.731,-458.008,-162.171,7.812,
00:00:19:767,-0.408,-0.454,0.728,-497.742,-166.382,20.69,
00:00:19:783,-0.425,-0.364,0.73,-445.984,-145.874,9.216,
00:00:19:800,-0.462,-0.384,0.731,-386.292,-81.727,-7.935,
00:00:19:817,-0.465,-0.399,0.796,-351.197,-16.724,-22.034,
00:00:19:833,-0.436,-0.362,0.791,-338.379,65.734,-16.724,
00:00:19:850,-0.404,-0.306,0.784,-68.543,120.178,-42.664,
00:00:19:867,-0.407,-0.342,0.791,-26.917,127.807,-51.27,
00:00:19:883,-0.396,-0.365,0.811,-33.143,130.798,-49.012,
00:00:19:900,-0.385,-0.378,0.825,-53.406,127.258,-38.636,
00:00:19:917,-0.382,-0.383,0.84,-79.59,117.065,-23.804,
00:00:19:933,-0.375,-0.268,0.877,62.072,121.154,-35.828,
00:00:19:950,-0.382,-0.264,0.889,194.091,125,-54.017,
00:00:19:967,-0.385,-0.288,0.904,318.664,136.535,-75.196,
00:00:19:983,-0.386,-0.361,0.904,403.747,168.274,-83.069,
00:00:20:0,-0.378,-0.469,0.898,395.568,202.148,-81.727,
00:00:20:17,-0.348,-0.513,0.892,292.724,227.111,-75.745,
00:00:20:33,-0.317,-0.504,0.893,179.87,212.585,-61.524,
00:00:20:50,-0.297,-0.439,0.913,120.3,177.368,-43.519,
00:00:20:67,-0.297,-0.362,0.933,151.672,143.005,-49.317,
00:00:20:83,-0.303,-0.319,0.958,270.874,132.995,-61.768,
00:00:20:100,-0.302,-0.321,0.979,422.058,139.526,-84.839,
00:00:20:117,-0.234,-0.618,0.909,459.777,145.507,-109.253,
00:00:20:133,-0.219,-0.6,0.905,320.068,79.589,-89.295,
00:00:20:150,-0.23,-0.499,0.91,278.076,16.723,-68.421,
00:00:20:167,-0.264,-0.469,0.926,322.937,-9.949,-86.365,
00:00:20:183,-0.291,-0.515,0.906,380.798,14.77,-107.605,
00:00:20:200,-0.279,-0.55,0.873,390.564,37.414,-101.685,
00:00:20:217,-0.259,-0.572,0.835,372.68,30.944,-101.38,
00:00:20:233,-0.259,-0.603,0.807,334.167,3.173,-91.614,
00:00:20:250,-0.275,-0.624,0.793,258.3,-21.424,-75.745,
00:00:20:267,-0.296,-0.627,0.794,180.236,-26.429,-67.261,
00:00:20:283,-0.303,-0.602,0.805,111.938,-13.855,-54.322,
00:00:20:300,-0.299,-0.561,0.829,91.491,5.065,-37.476,
00:00:20:317,-0.298,-0.571,0.821,107.788,9.826,-39.49,
00:00:20:333,-0.291,-0.611,0.823,101.318,18.188,-38.758,
00:00:20:350,-0.273,-0.614,0.811,61.035,15.869,-26.917,
00:00:20:367,-0.265,-0.645,0.753,11.474,-22.217,-39.185,
00:00:20:383,-0.273,-0.721,0.778,-81.055,-77.637,-36.683,
00:00:20:400,-0.286,-0.736,0.795,-243.287,-134.644,1.709,
00:00:20:417,-0.303,-0.657,0.791,-377.442,-180.787,25.573,
00:00:20:433,-0.329,-0.561,0.789,-410.279,-219.361,32.898,
00:00:20:450,-0.355,-0.517,0.778,-367.737,-224.305,29.174,
00:00:20:467,-0.373,-0.548,0.786,-319.642,-222.901,8.483,
00:00:20:483,-0.38,-0.605,0.779,-349.854,-203.675,8.789,
00:00:20:500,-0.378,-0.625,0.782,-431.214,-193.848,18.554,
00:00:20:517,-0.386,-0.599,0.781,-524.72,-198.67,33.081,
00:00:20:533,-0.391,-0.488,0.804,-565.796,-211.06,49.194,
00:00:20:550,-0.411,-0.411,0.824,-501.465,-210.328,33.996,
00:00:20:567,-0.427,-0.411,0.828,-410.157,-172.12,19.47,
00:00:20:583,-0.43,-0.445,0.81,-359.803,-136.231,23.925,
00:00:20:600,-0.414,-0.456,0.775,-359.009,-108.826,16.906,
00:00:20:617,-0.404,-0.46,0.782,-370.057,-113.16,15.136,
00:00:20:633,-0.404,-0.465,0.786,-398.194,-130.677,28.991,
00:00:20:650,-0.417,-0.43,0.764,-444.886,-133.484,47.302,
00:00:20:667,-0.418,-0.365,0.764,-441.346,-132.264,44.25,
00:00:20:683,-0.413,-0.319,0.74,-374.146,-126.343,24.902,
00:00:20:700,-0.431,-0.323,0.721,-309.327,-125.123,2.807,
00:00:20:717,-0.443,-0.349,0.689,-288.819,-89.844,-23.316,
00:00:20:733,-0.453,-0.381,0.655,-325.806,-61.707,-25.147,
00:00:20:750,-0.454,-0.36,0.673,-401.734,-36.499,-7.752,
00:00:20:767,-0.453,-0.274,0.713,-461.792,-14.71,2.868,
00:00:20:783,-0.46,-0.19,0.769,-446.351,31.799,3.723,
00:00:20:800,-0.461,-0.11,0.806,-345.52,97.106,12.146,
00:00:20:817,-0.441,-0.108,0.838,-181.885,183.96,25.756,
00:00:20:833,-0.406,-0.162,0.851,-40.772,234.13,-15.259,
00:00:20:850,-0.374,-0.254,0.841,39.123,232.238,-7.874,
00:00:20:867,-0.369,-0.286,0.836,24.963,181.152,-1.709,
00:00:20:883,-0.391,-0.248,0.839,-15.748,128.357,17.334,
00:00:20:900,-0.427,-0.205,0.874,-33.387,117.492,16.662,
00:00:20:917,-0.435,-0.212,0.917,-11.658,176.086,19.409,
00:00:20:933,-0.4,-0.247,0.959,2.685,243.713,14.16,
00:00:20:950,-0.35,-0.255,0.953,10.864,271.301,23.864,
00:00:20:967,-0.319,-0.251,0.97,26.001,242.92,33.569,
00:00:20:983,-0.303,-0.259,0.994,83.374,214.599,21.789,
00:00:21:0,-0.296,-0.291,1.029,142.761,200.195,-8.973,
00:00:21:17,-0.272,-0.328,1.054,213.379,196.167,-51.575,
00:00:21:33,-0.254,-0.339,1.048,255.737,168.701,-72.327,
00:00:21:50,-0.263,-0.348,1.024,288.574,121.887,-89.844,
00:00:21:67,-0.283,-0.369,0.995,304.199,88.073,-111.939,
00:00:21:83,-0.299,-0.377,0.977,306.335,84.961,-121.949,
00:00:21:100,-0.306,-0.346,0.962,296.569,91.857,-139.1,
00:00:21:117,-0.305,-0.357,0.951,300.72,99.792,-157.044,
00:00:21:133,-0.303,-0.356,0.943,318.969,107.971,-169.495,
00:00:21:150,-0.309,-0.391,0.922,319.336,132.995,-182.496,
00:00:21:167,-0.304,-0.446,0.919,256.836,176.941,-194.153,
00:00:21:183,-0.272,-0.425,0.918,164.917,198.059,-195.557,
00:00:21:200,-0.233,-0.363,0.919,118.225,188.537,-197.632,
00:00:21:217,-0.236,-0.315,0.969,168.701,137.146,-224.549,
00:00:21:233,-0.239,-0.31,0.993,245.3,125.854,-214.783,
00:00:21:250,-0.25,-0.315,1.019,318.054,120.788,-231.446,
00:00:21:267,-0.247,-0.351,1.01,356.567,124.511,-210.144,
00:00:21:283,-0.238,-0.386,0.991,358.947,102.661,-194.031,
00:00:21:300,-0.23,-0.391,0.975,344.909,67.138,-157.288,
00:00:21:317,-0.231,-0.394,0.967,335.51,22.888,-135.193,
00:00:21:333,-0.24,-0.417,0.951,316.772,-17.029,-125.428,
00:00:21:350,-0.248,-0.476,0.96,253.54,-46.998,-122.864,
00:00:21:367,-0.247,-0.505,0.943,176.757,-70.679,-90.149,
00:00:21:383,-0.248,-0.495,0.904,123.474,-107.972,-61.768,
00:00:21:400,-0.256,-0.493,0.882,97.961,-136.353,-52.308,
00:00:21:417,-0.263,-0.538,0.866,80.2,-144.288,-52.369,
00:00:21:433,-0.266,-0.606,0.858,12.878,-130.494,-42.603,
00:00:21:450,-0.257,-0.618,0.841,-127.137,-150.574,-28.321,
00:00:21:467,-0.255,-0.555,0.83,-263.001,-187.989,-20.569,
00:00:21:483,-0.276,-0.496,0.845,-336.121,-247.376,-25.452,
00:00:21:500,-0.312,-0.434,0.853,-354.004,-273.194,-9.278,
00:00:21:517,-0.354,-0.379,0.849,-334.717,-272.461,-3.479,
00:00:21:533,-0.379,-0.346,0.831,-300.782,-259.949,-12.94,
00:00:21:550,-0.404,-0.339,0.825,-270.142,-243.836,3.112,
00:00:21:567,-0.427,-0.379,0.825,-272.461,-219.605,16.54,
00:00:21:583,-0.428,-0.393,0.806,-341.675,-179.749,58.105,
00:00:21:600,-0.422,-0.379,0.784,-425.66,-159.119,94.787,
00:00:21:617,-0.423,-0.313,0.79,-487.366,-159.79,127.258,
00:00:21:633,-0.439,-0.291,0.788,-493.592,-155.762,148.681,
00:00:21:650,-0.444,-0.259,0.813,-470.154,-145.081,150.085,
00:00:21:667,-0.445,-0.221,0.812,-421.021,-134.522,157.287,
00:00:21:683,-0.458,-0.258,0.78,-358.765,-117.188,132.812,
00:00:21:700,-0.466,-0.291,0.76,-334.717,-122.437,126.892,
00:00:21:717,-0.48,-0.289,0.748,-334.107,-119.629,117.92,
00:00:21:733,-0.494,-0.268,0.76,-330.201,-85.999,101.196,
00:00:21:750,-0.491,-0.272,0.772,-315.552,-7.874,84.289,
00:00:21:767,-0.474,-0.275,0.787,-317.444,55.175,84.899,
00:00:21:783,-0.457,-0.278,0.785,-332.703,92.346,69.213,
00:00:21:800,-0.441,-0.255,0.796,-347.84,112.121,80.078,
00:00:21:817,-0.424,-0.195,0.817,-340.882,124.45,80.078,
00:00:21:833,-0.421,-0.176,0.83,-281.556,137.512,54.26,
00:00:21:850,-0.417,-0.158,0.84,-222.962,138.916,34.729,
00:00:21:867,-0.421,-0.16,0.862,-173.584,142.7,23.193,
00:00:21:883,-0.421,-0.153,0.882,-131.348,153.442,9.338,
00:00:21:900,-0.424,-0.141,0.871,-107.483,154.602,-6.775,
00:00:21:917,-0.424,-0.12,0.899,-79.651,149.047,-1.465,
00:00:21:933,-0.415,-0.132,0.944,-25.757,189.209,-2.564,
00:00:21:950,-0.382,-0.191,0.999,11.657,243.53,-17.884,
00:00:21:967,-0.325,-0.242,1.023,3.906,266.906,-27.1,
00:00:21:983,-0.282,-0.22,1.025,-22.828,221.679,-34.18,
00:00:22:0,-0.274,-0.177,1.009,-0.123,162.902,-51.148,
00:00:22:17,-0.298,-0.129,0.997,73.547,127.624,-75.013,
00:00:22:33,-0.315,-0.118,1.04,186.157,139.587,-103.028,
00:00:22:50,-0.282,-0.187,1.07,310.485,191.589,-152.771,
00:00:22:67,-0.246,-0.267,1.054,347.534,177.185,-180.054,mixLH
00:00:22:83,-0.233,-0.293,1.023,317.443,118.774,-175.171,
00:00:22:100,-0.239,-0.259,0.999,297.058,60.363,-184.754,
00:00:22:117,-0.272,-0.22,0.999,336.12,33.203,-189.82,
00:00:22:133,-0.292,-0.186,0.98,404.113,50.781,-212.403,
00:00:22:150,-0.296,-0.183,0.984,482.727,76.965,-234.925,
00:00:22:167,-0.281,-0.191,0.975,563.842,112.915,-241.15,
00:00:22:183,-0.259,-0.23,0.946,636.84,138,-244.08,
00:00:22:200,-0.239,-0.312,0.934,649.902,132.385,-244.324,
00:00:22:217,-0.229,-0.35,0.919,604.248,112.793,-222.29,
00:00:22:233,-0.234,-0.36,0.932,545.532,93.75,-204.834,
00:00:22:250,-0.241,-0.361,0.942,498.718,83.313,-199.524,
00:00:22:267,-0.245,-0.362,0.942,471.13,92.285,-185.73,
00:00:22:283,-0.235,-0.369,0.93,456.359,88.44,-174.561,
00:00:22:300,-0.233,-0.414,0.928,425.476,61.035,-162.964,
00:00:22:317,-0.238,-0.498,0.932,342.468,29.602,-143.677,
00:00:22:333,-0.244,-0.521,0.935,221.496,1.403,-109.864,
00:00:22:350,-0.24,-0.513,0.942,99.243,-37.11,-63.477,
00:00:22:367,-0.242,-0.478,0.94,30.273,-81.727,-49.927,
00:00:22:383,-0.255,-0.453,0.94,0.976,-118.226,-26.917,
00:00:22:400,-0.27,-0.468,0.924,-27.832,-145.081,-36.622,
00:00:22:417,-0.284,-0.503,0.921,-76.294,-170.96,-44.312,
00:00:22:433,-0.3,-0.499,0.912,-145.935,-198.06,-32.349,
00:00:22:450,-0.315,-0.478,0.91,-212.769,-221.009,-24.414,
00:00:22:467,-0.331,-0.438,0.918,-259.156,-244.751,-15.686,
00:00:22:483,-0.351,-0.398,0.913,-265.931,-244.08,-6.47,
00:00:22:500,-0.37,-0.391,0.92,-264.71,-233.582,-5.921,
00:00:22:517,-0.376,-0.38,0.901,-268.494,-206.788,9.826,
00:00:22:533,-0.38,-0.346,0.861,-271.729,-197.449,14.77,
00:00:22:550,-0.392,-0.319,0.834,-253.113,-191.285,36.193,
00:00:22:567,-0.412,-0.334,0.843,-248.108,-178.833,34.484,
00:00:22:583,-0.41,-0.335,0.837,-261.109,-148.987,59.692,
00:00:22:600,-0.398,-0.342,0.828,-285.157,-135.621,81.726,
00:00:22:617,-0.393,-0.34,0.818,-321.778,-136.353,108.459,
00:00:22:633,-0.393,-0.3,0.824,-333.558,-146.729,133.911,
00:00:22:650,-0.405,-0.284,0.826,-314.026,-153.504,136.901,
00:00:22:667,-0.412,-0.297,0.809,-287.964,-151.062,140.991,
00:00:22:683,-0.422,-0.314,0.808,-295.227,-152.283,139.343,
00:00:22:700,-0.431,-0.289,0.793,-305.542,-154.053,150.146,
00:00:22:717,-0.447,-0.268,0.761,-300.904,-147.583,136.291,
00:00:22:733,-0.46,-0.293,0.748,-292.115,-145.203,127.746,
00:00:22:750,-0.476,-0.301,0.721,-324.524,-151.612,127.563,
00:00:22:767,-0.487,-0.287,0.721,-364.869,-143.25,133.545,
00:00:22:783,-0.502,-0.273,0.738,-393.86,-117.066,119.384,
00:00:22:800,-0.496,-0.213,0.797,-386.902,-81.36,121.887,
00:00:22:817,-0.499,-0.212,0.817,-323.548,-48.768,114.868,
00:00:22:833,-0.495,-0.243,0.792,-303.04,39.672,89.05,
00:00:22:850,-0.465,-0.22,0.796,-297.242,71.96,120.605,
00:00:22:867,-0.431,-0.178,0.823,-295.411,77.392,72.815,
00:00:22:883,-0.44,-0.177,0.86,-228.821,42.114,41.32,
00:00:22:900,-0.461,-0.179,0.901,-178.467,44.25,22.277,
00:00:22:917,-0.469,-0.152,0.914,-125.245,92.163,15.075,
00:00:22:933,-0.451,-0.11,0.88,-36.438,133.667,6.958,
00:00:22:950,-0.439,-0.114,0.864,69.946,144.47,-18.494,
00:00:22:967,-0.43,-0.139,0.866,156.86,139.709,-37.781,
00:00:22:983,-0.433,-0.163,0.898,261.657,130.554,-66.04,
00:00:23:0,-0.437,-0.243,0.924,293.274,154.235,-79.163,
00:00:23:17,-0.425,-0.277,0.958,272.094,194.213,-84.9,
00:00:23:33,-0.39,-0.281,0.959,233.398,231.018,-79.468,
00:00:23:50,-0.348,-0.256,0.933,212.89,227.234,-102.539,
00:00:23:67,-0.336,-0.224,0.954,251.77,176.574,-105.286,
00:00:23:83,-0.357,-0.219,0.956,320.495,133.117,-130.494,
00:00:23:100,-0.39,-0.284,0.99,347.961,133.667,-151.062,
00:00:23:117,-0.378,-0.301,0.999,344.543,166.137,-144.41,
00:00:23:133,-0.352,-0.27,0.968,332.946,183.838,-134.949,
00:00:23:150,-0.344,-0.271,0.923,323.181,174.743,-124.085,
00:00:23:167,-0.35,-0.265,0.934,302.917,161.682,-122.01,
00:00:23:183,-0.348,-0.214,0.907,326.66,166.32,-117.127,
00:00:23:200,-0.329,-0.173,0.955,421.325,170.837,-121.033,
00:00:23:217,-0.312,-0.257,0.979,528.991,198.486,-121.766,
00:00:23:233,-0.271,-0.355,0.979,540.771,217.59,-129.456,
00:00:23:250,-0.222,-0.42,0.964,496.276,206.054,-121.399,
00:00:23:267,-0.197,-0.415,0.933,450.256,136.718,-108.582,
00:00:23:283,-0.203,-0.444,0.931,408.874,71.777,-115.662,
00:00:23:300,-0.235,-0.464,0.926,345.031,25.085,-109.436,
00:00:23:317,-0.261,-0.471,0.947,284.729,15.747,-114.563,
00:00:23:333,-0.265,-0.403,0.956,270.385,24.047,-103.882,
00:00:23:350,-0.263,-0.385,0.951,333.557,39.001,-121.521,
00:00:23:367,-0.256,-0.408,0.928,409.301,31.616,-129.639,
00:00:23:383,-0.261,-0.447,0.914,436.096,18.005,-124.573,
00:00:23:400,-0.265,-0.481,0.911,426.269,1.403,-134.217,
00:00:23:417,-0.262,-0.465,0.906,457.58,-30.579,-120.85,
00:00:23:433,-0.283,-0.497,0.882,479.797,-51.941,-96.558,
00:00:23:450,-0.295,-0.555,0.868,439.819,-62.073,-94.422,
00:00:23:467,-0.3,-0.604,0.844,330.139,-75.623,-84.473,
00:00:23:483,-0.299,-0.626,0.856,209.289,-101.441,-61.463,
00:00:23:500,-0.304,-0.623,0.84,92.163,-133.118,-45.35,
00:00:23:517,-0.326,-0.608,0.799,0.122,-159.668,-36.988,
00:00:23:533,-0.348,-0.56,0.765,-63.416,-185.303,-15.625,
00:00:23:550,-0.374,-0.489,0.782,-40.772,-201.111,-1.893,
00:00:23:567,-0.391,-0.467,0.8,36.804,-192.139,-25.513,
00:00:23:583,-0.395,-0.514,0.81,129.882,-179.688,-52.979,
00:00:23:600,-0.404,-0.585,0.75,127.136,-152.955,-65.918,
00:00:23:617,-0.408,-0.593,0.737,42.358,-138.489,-29.969,
00:00:23:633,-0.411,-0.536,0.721,-38.88,-138.977,12.085,
00:00:23:650,-0.416,-0.478,0.732,-58.716,-138.123,32.47,
00:00:23:667,-0.423,-0.451,0.735,-24.476,-139.283,28.686,
00:00:23:683,-0.436,-0.433,0.732,32.592,-146.546,54.87,
00:00:23:700,-0.452,-0.434,0.726,86.059,-147.644,72.204,
00:00:23:717,-0.455,-0.442,0.73,136.779,-142.579,96.801,
00:00:23:733,-0.447,-0.467,0.705,211.12,-152.527,87.097,
00:00:23:750,-0.462,-0.585,0.699,222.839,-159.607,94.726,
00:00:23:767,-0.474,-0.709,0.657,100.525,-139.527,115.295,
00:00:23:783,-0.464,-0.76,0.683,-83.924,-126.343,154.602,
00:00:23:800,-0.447,-0.681,0.656,-226.685,-118.592,178.772,
00:00:23:817,-0.437,-0.559,0.659,-228.638,-132.142,192.382,
00:00:23:833,-0.445,-0.549,0.641,-154.175,-147.583,140.564,
00:00:23:850,-0.475,-0.683,0.657,-111.084,-134.278,102.05,
00:00:23:867,-0.494,-0.767,0.686,-223.633,-91.065,116.577,
00:00:23:883,-0.475,-0.689,0.671,-418.702,-36.988,134.46,
00:00:23:900,-0.451,-0.533,0.674,-470.704,-21.485,114.929,
00:00:23:917,-0.449,-0.459,0.682,-368.409,-15.259,93.017,
00:00:23:933,-0.476,-0.47,0.743,-255.677,11.535,83.313,
00:00:23:950,-0.472,-0.491,0.774,-204.163,80.932,62.072,
00:00:23:967,-0.428,-0.517,0.773,-165.162,142.822,50.293,
00:00:23:983,-0.376,-0.514,0.763,-129.273,144.531,49.56,
00:00:24:0,-0.364,-0.54,0.74,-129.334,120.422,41.687,
00:00:24:17,-0.376,-0.532,0.738,-140.137,103.637,18.737,
00:00:24:33,-0.388,-0.516,0.775,-153.199,100.341,2.685,
00:00:24:50,-0.386,-0.496,0.819,-128.602,119.201,-25.147,
00:00:24:67,-0.375,-0.44,0.8,-39.246,146.789,-42.481,
00:00:24:83,-0.366,-0.419,0.768,103.942,171.508,-54.627,
00:00:24:100,-0.358,-0.458,0.803,246.521,206.359,-79.834,
00:00:24:117,-0.355,-0.506,0.827,415.771,230.163,-123.658,
00:00:24:133,-0.342,-0.57,0.856,388.183,256.164,-117.188,
00:00:24:150,-0.301,-0.608,0.859,316.345,278.198,-160.218,
00:00:24:167,-0.269,-0.595,0.843,285.278,250.244,-132.508,
00:00:24:183,-0.266,-0.582,0.846,284.79,198.12,-142.273,
00:00:24:200,-0.295,-0.573,0.838,287.475,173.584,-132.264,
00:00:24:217,-0.294,-0.567,0.843,285.888,163.574,-125.367,
00:00:24:233,-0.266,-0.593,0.838,269.348,154.602,-118.164,
00:00:24:250,-0.246,-0.611,0.84,237.609,132.263,-116.456,
00:00:24:267,-0.242,-0.598,0.848,209.289,99.304,-113.343,
00:00:24:283,-0.245,-0.576,0.85,218.444,84.961,-120.606,
00:00:24:300,-0.255,-0.563,0.862,254.882,74.096,-101.38,
00:00:24:317,-0.256,-0.535,0.845,318.847,74.157,-89.417,
00:00:24:333,-0.261,-0.556,0.793,379.394,78.552,-111.39,
00:00:24:350,-0.254,-0.62,0.781,399.109,73.303,-110.474,
00:00:24:367,-0.246,-0.653,0.786,360.046,59.509,-89.6,
00:00:24:383,-0.25,-0.648,0.799,311.157,32.348,-71.717,
00:00:24:400,-0.261,-0.644,0.792,276.062,15.747,-70.313,
00:00:24:417,-0.272,-0.622,0.765,285.461,-3.785,-57.496,
00:00:24:433,-0.282,-0.641,0.735,315.796,-27.1,-47.486,
00:00:24:450,-0.303,-0.681,0.727,319.519,-48.157,-39.612,
00:00:24:467,-0.318,-0.776,0.738,255.066,-48.768,-40.467,
00:00:24:483,-0.312,-0.827,0.754,113.342,-61.524,-16.419,
00:00:24:500,-0.311,-0.862,0.764,-41.138,-92.102,10.192,
00:00:24:517,-0.304,-0.807,0.735,-176.758,-113.892,69.03,
00:00:24:533,-0.312,-0.721,0.635,-276.307,-147.461,75.073,
00:00:24:550,-0.321,-0.732,0.626,-342.835,-171.631,8.056,
00:00:24:567,-0.341,-0.717,0.661,-363.892,-216.797,4.882,
00:00:24:583,-0.368,-0.702,0.724,-373.475,-231.934,29.785,
00:00:24:600,-0.377,-0.645,0.709,-380.31,-208.619,47.851,
00:00:24:617,-0.388,-0.64,0.706,-356.202,-184.144,26.489,
00:00:24:633,-0.392,-0.642,0.695,-342.652,-166.748,44.189,
00:00:24:650,-0.386,-0.62,0.68,-363.465,-154.236,22.522,
00:00:24:667,-0.437,-0.641,0.673,-385.437,-161.622,40.527,
00:00:24:683,-0.418,-0.615,0.698,-456.299,-152.161,57.739,
00:00:24:700,-0.413,-0.535,0.713,-473.694,-125.916,67.871,
00:00:24:717,-0.427,-0.544,0.696,-426.941,-110.657,63.781,
00:00:24:733,-0.426,-0.535,0.682,-432.068,-87.098,71.838,
00:00:24:750,-0.42,-0.462,0.706,-430.298,-78.492,102.05,
00:00:24:767,-0.402,-0.415,0.701,-379.029,-74.28,110.29,
00:00:24:783,-0.405,-0.448,0.71,-317.261,-72.693,106.689,
00:00:24:800,-0.397,-0.496,0.702,-301.88,-51.514,105.041,
00:00:24:817,-0.387,-0.512,0.703,-341.309,-47.852,114.441,
00:00:24:833,-0.391,-0.487,0.704,-346.314,-45.777,127.441,
00:00:24:850,-0.391,-0.477,0.701,-321.045,-31.434,106.689,
00:00:24:867,-0.38,-0.45,0.711,-256.775,-25.391,74.829,
00:00:24:883,-0.382,-0.49,0.737,-170.227,-36.622,47.607,
00:00:24:900,-0.401,-0.56,0.773,-154.969,-40.65,38.696,
00:00:24:917,-0.412,-0.562,0.792,-220.276,-21.058,49.438,
00:00:24:933,-0.405,-0.506,0.806,-272.156,14.953,40.588,
00:00:24:950,-0.396,-0.464,0.802,-254.944,37.719,30.761,
00:00:24:967,-0.389,-0.455,0.828,-198.609,45.288,14.099,
00:00:24:983,-0.386,-0.462,0.834,-168.763,57.495,-10.865,
00:00:25:0,-0.39,-0.457,0.834,-159.424,64.575,-25.574,
00:00:25:17,-0.391,-0.477,0.86,-164.612,85.022,-44.312,
00:00:25:33,-0.376,-0.437,0.863,-186.89,102.417,-54.749,
00:00:25:50,-0.369,-0.402,0.887,-166.687,115.844,-69.703,
00:00:25:67,-0.359,-0.361,0.887,-103.089,135.131,-76.233,
00:00:25:83,-0.353,-0.344,0.872,-26.978,140.319,-84.961,
00:00:25:100,-0.351,-0.37,0.871,46.752,150.879,-93.567,
00:00:25:117,-0.342,-0.418,0.874,51.757,166.626,-93.384,
00:00:25:133,-0.318,-0.429,0.894,1.892,177.917,-94.666,
00:00:25:150,-0.287,-0.407,0.916,-42.359,169.983,-101.502,
00:00:25:167,-0.273,-0.357,0.923,-45.655,132.385,-88.746,
00:00:25:183,-0.28,-0.331,0.928,15.136,98.571,-90.577,
00:00:25:200,-0.309,-0.318,0.931,85.022,83.129,-77.759,
00:00:25:217,-0.315,-0.31,0.918,179.931,106.689,-90.821,
00:00:25:233,-0.304,-0.378,0.91,256.347,136.413,-102.906,
00:00:25:250,-0.289,-0.438,0.954,268.31,144.653,-80.994,
00:00:25:267,-0.268,-0.464,0.938,228.454,167.053,-86.304,
00:00:25:283,-0.25,-0.428,0.991,199.157,152.343,-94.544,
00:00:25:300,-0.252,-0.371,0.955,248.108,139.709,-95.704,
00:00:25:317,-0.249,-0.359,0.97,354.248,125,-98.328,
00:00:25:333,-0.255,-0.413,0.973,411.132,115.417,-127.259,
00:00:25:350,-0.25,-0.489,0.968,400.573,111.938,-147.767,
00:00:25:367,-0.236,-0.52,0.952,370.3,93.017,-140.87,
00:00:25:383,-0.232,-0.518,0.932,324.157,62.561,-122.01,
00:00:25:400,-0.237,-0.502,0.924,303.65,21.85,-99.915,
00:00:25:417,-0.253,-0.489,0.909,294.067,-0.184,-85.267,
00:00:25:433,-0.261,-0.519,0.899,292.907,-25.391,-94.849,
00:00:25:450,-0.273,-0.528,0.871,266.662,-29.725,-77.698,
00:00:25:467,-0.272,-0.535,0.841,243.286,-42.603,-69.519,
00:00:25:483,-0.277,-0.564,0.839,207.092,-51.758,-65.43,
00:00:25:500,-0.283,-0.621,0.867,134.277,-62.195,-72.937,
00:00:25:517,-0.285,-0.607,0.855,13.549,-72.205,-53.528,
00:00:25:533,-0.295,-0.514,0.845,-29.908,-97.413,-41.382,
00:00:25:550,-0.315,-0.481,0.838,28.259,-106.568,-45.594,
00:00:25:567,-0.338,-0.523,0.838,87.768,-87.647,-35.218,
00:00:25:583,-0.33,-0.571,0.801,87.768,-67.322,-24.537,
00:00:25:600,-0.321,-0.612,0.763,41.565,-73.67,-13.855,
00:00:25:617,-0.326,-0.621,0.733,-71.106,-101.136,18.676,
00:00:25:633,-0.333,-0.594,0.741,-183.228,-141.358,27.282,
00:00:25:650,-0.361,-0.582,0.765,-265.809,-164.734,41.076,
00:00:25:667,-0.379,-0.516,0.747,-295.35,-169.617,78.491,
00:00:25:683,-0.399,-0.5,0.732,-293.885,-163.269,93.322,
00:00:25:700,-0.401,-0.517,0.71,-323.731,-143.067,103.21,
00:00:25:717,-0.389,-0.501,0.722,-347.657,-153.748,95.764,
00:00:25:733,-0.392,-0.537,0.706,-371.033,-165.65,107.788,
00:00:25:750,-0.402,-0.536,0.745,-433.472,-171.509,120.422,
00:00:25:767,-0.399,-0.475,0.758,-472.413,-167.603,120.239,
00:00:25:783,-0.395,-0.395,0.783,-417.908,-176.026,101.867,
00:00:25:800,-0.414,-0.379,0.779,-297.791,-170.166,98.205,
00:00:25:817,-0.435,-0.417,0.75,-227.784,-135.804,80.871,
00:00:25:833,-0.423,-0.46,0.724,-212.098,-99.549,61.645,
00:00:25:850,-0.41,-0.464,0.689,-240.174,-85.267,56.274,
00:00:25:867,-0.41,-0.447,0.687,-264.954,-89.356,57.922,
00:00:25:883,-0.423,-0.43,0.709,-279.541,-84.351,66.284,
00:00:25:900,-0.436,-0.411,0.738,-276.062,-49.866,58.044,
00:00:25:917,-0.434,-0.387,0.765,-248.414,1.77,56.091,
00:00:25:933,-0.426,-0.384,0.79,-226.807,53.222,46.569,
00:00:25:950,-0.41,-0.39,0.815,-204.59,91.308,34.362,
00:00:25:967,-0.398,-0.384,0.841,-187.561,111.816,32.959,
00:00:25:983,-0.385,-0.354,0.869,-154.358,138.733,18.92,
00:00:26:0,-0.375,-0.339,0.865,-88.318,160.705,1.831,
00:00:26:17,-0.366,-0.335,0.87,-20.081,161.132,-11.719,
00:00:26:33,-0.365,-0.367,0.9,23.437,174.255,-40.528,
00:00:26:50,-0.349,-0.418,0.938,15.808,196.228,-65.43,
00:00:26:67,-0.313,-0.454,0.951,-28.565,214.111,-87.22,
00:00:26:83,-0.284,-0.442,0.944,-58.838,178.894,-92.957,mixLH
00:00:26:100,-0.294,-0.397,0.964,-52.185,134.399,-92.347,
00:00:26:117,-0.314,-0.362,0.986,14.099,117.614,-98.755,
00:00:26:133,-0.319,-0.366,0.995,107.544,128.906,-118.958,
00:00:26:150,-0.308,-0.363,0.999,201.904,144.409,-147.767,
00:00:26:167,-0.287,-0.363,0.964,285.278,148.559,-165.284,
00:00:26:183,-0.286,-0.411,0.946,318.115,138.244,-181.641,
00:00:26:200,-0.282,-0.425,0.94,284.851,137.512,-198.304,
00:00:26:217,-0.266,-0.39,0.952,255.249,135.986,-213.501,
00:00:26:233,-0.256,-0.368,0.963,269.714,128.601,-214.6,
00:00:26:250,-0.253,-0.344,0.953,303.833,126.953,-199.219,
00:00:26:267,-0.254,-0.302,0.957,352.478,117.675,-187.928,
00:00:26:283,-0.263,-0.29,0.955,430.053,119.751,-182.19,
00:00:26:300,-0.263,-0.308,0.943,505.615,135.376,-165.345,
00:00:26:317,-0.249,-0.373,0.934,554.992,143.615,-162.049,
00:00:26:333,-0.235,-0.39,0.925,565.918,133.911,-143.555,
00:00:26:350,-0.226,-0.442,0.914,540.1,112.06,-122.01,
00:00:26:367,-0.225,-0.474,0.893,473.327,81.543,-105.591,
00:00:26:383,-0.226,-0.493,0.881,391.235,40.039,-84.412,
00:00:26:400,-0.237,-0.502,0.869,317.749,-12.391,-75.135,
00:00:26:417,-0.258,-0.534,0.878,243.225,-52.735,-52.124,
00:00:26:433,-0.273,-0.593,0.859,176.513,-68.726,-41.138,
00:00:26:450,-0.271,-0.641,0.845,78.613,-92.469,-7.63,
00:00:26:467,-0.274,-0.619,0.851,-30.823,-133.24,30.273,
00:00:26:483,-0.295,-0.593,0.861,-98.816,-167.725,39.672,
00:00:26:500,-0.311,-0.565,0.854,-112.61,-175.477,38.94,
00:00:26:517,-0.322,-0.558,0.857,-101.441,-178.223,33.264,
00:00:26:533,-0.326,-0.555,0.845,-84.595,-176.941,33.935,
00:00:26:550,-0.332,-0.572,0.849,-72.693,-177.979,24.047,
00:00:26:567,-0.339,-0.598,0.852,-98.389,-178.406,13.977,
00:00:26:583,-0.373,-0.51,0.804,-120.85,-180.115,11.047,
00:00:26:600,-0.378,-0.521,0.791,-90.516,-167.664,0.122,
00:00:26:617,-0.392,-0.512,0.793,-89.173,-163.453,-4.334,
00:00:26:633,-0.399,-0.492,0.76,-71.045,-144.227,-19.288,
00:00:26:650,-0.418,-0.571,0.691,-22.4,-83.802,-9.278,
00:00:26:667,-0.397,-0.641,0.677,-152.466,-71.961,-1.16,
00:00:26:683,-0.381,-0.642,0.689,-299.683,-98.267,30.029,
00:00:26:700,-0.39,-0.576,0.723,-414.368,-132.142,59.997,
00:00:26:717,-0.408,-0.485,0.734,-441.102,-140.32,67.565,
00:00:26:733,-0.402,-0.531,0.744,-339.295,-66.224,17.273,
00:00:26:750,-0.394,-0.535,0.727,-420.105,-91.431,20.507,
00:00:26:767,-0.406,-0.48,0.773,-468.567,-115.723,24.108,
00:00:26:783,-0.42,-0.399,0.777,-487.305,-122.925,22.766,
00:00:26:800,-0.429,-0.343,0.771,-445.557,-129.822,3.601,
00:00:26:817,-0.473,-0.337,0.774,-399.903,-69.153,5.432,
00:00:26:833,-0.465,-0.282,0.781,-444.642,-45.411,28.076,
00:00:26:850,-0.463,-0.227,0.782,-445.191,-41.138,30.944,
00:00:26:867,-0.468,-0.214,0.799,-407.715,-12.757,47.119,
00:00:26:883,-0.465,-0.205,0.824,-356.324,25.207,51.818,
00:00:26:900,-0.456,-0.21,0.853,-273.133,73.12,47.363,
00:00:26:917,-0.437,-0.18,0.864,-147.278,112.976,66.223,
00:00:26:933,-0.429,-0.19,0.863,-20.691,139.343,51.452,
00:00:26:950,-0.424,-0.233,0.872,88.378,170.166,28.259,
00:00:26:967,-0.407,-0.339,0.899,138.244,222.656,4.455,
00:00:26:983,-0.366,-0.405,0.926,108.093,250.061,-15.015,
00:00:27:0,-0.349,-0.235,0.994,202.331,211.609,-81.421,
00:00:27:17,-0.353,-0.178,0.977,415.649,255.981,-110.352,
00:00:27:33,-0.334,-0.269,0.952,622.985,310.302,-146.424,
00:00:27:50,-0.301,-0.497,0.919,677.124,350.525,-210.083,
00:00:27:67,-0.246,-0.592,0.91,510.437,305.297,-192.81,
00:00:27:83,-0.215,-0.477,0.917,338.928,178.222,-160.95,
00:00:27:100,-0.248,-0.347,0.946,321.106,88.195,-163.758,
00:00:27:117,-0.326,-0.329,0.981,423.034,60.485,-189.27,
00:00:27:133,-0.358,-0.336,0.985,508.239,110.778,-197.937,
00:00:27:150,-0.332,-0.371,0.939,575.439,169.555,-208.069,
00:00:27:167,-0.293,-0.424,0.936,580.566,184.753,-206.238,
00:00:27:183,-0.276,-0.48,0.936,405.944,99.609,-161.316,
00:00:27:200,-0.274,-0.461,0.943,384.704,75.317,-147.095,
00:00:27:217,-0.279,-0.483,0.928,391.357,48.767,-143.555,
00:00:27:233,-0.287,-0.515,0.897,384.521,23.864,-131.531,
00:00:27:250,-0.295,-0.531,0.851,366.15,10.009,-115.723,
00:00:27:267,-0.298,-0.575,0.818,316.162,-0.611,-112.977,
00:00:27:283,-0.301,-0.61,0.814,223.938,-18.372,-113.953,
00:00:27:300,-0.297,-0.617,0.813,123.047,-40.223,-94.666,
00:00:27:317,-0.307,-0.592,0.815,44.25,-64.454,-70.618,
00:00:27:333,-0.319,-0.554,0.809,-6.531,-77.332,-53.65,
00:00:27:350,-0.327,-0.545,0.816,-35.218,-82.276,-41.382,
00:00:27:367,-0.322,-0.527,0.793,-56.275,-96.68,-36.744,
00:00:27:383,-0.329,-0.536,0.784,-65.125,-105.103,-38.758,
00:00:27:400,-0.335,-0.583,0.775,-82.52,-121.521,-35.218,
00:00:27:417,-0.346,-0.614,0.78,-166.321,-136.353,-4.151,
00:00:27:433,-0.356,-0.612,0.777,-277.161,-153.687,11.596,
00:00:27:450,-0.367,-0.575,0.785,-374.634,-171.082,32.592,
00:00:27:467,-0.379,-0.498,0.804,-415.589,-190.125,54.992,
00:00:27:483,-0.398,-0.453,0.79,-381.836,-195.74,49.316,
00:00:27:500,-0.411,-0.465,0.794,-336.304,-189.454,54.626,
00:00:27:517,-0.411,-0.511,0.804,-328.919,-166.748,52.429,
00:00:27:533,-0.402,-0.531,0.842,-374.695,-154.541,51.94,
00:00:27:550,-0.392,-0.458,0.855,-396.058,-150.818,58.105,
00:00:27:567,-0.397,-0.399,0.848,-326.233,-159.852,53.1,
00:00:27:583,-0.412,-0.398,0.842,-225.647,-151.917,37.292,
00:00:27:600,-0.419,-0.434,0.817,-162.232,-134.644,20.629,
00:00:27:617,-0.415,-0.49,0.753,-175.171,-114.014,12.023,
00:00:27:633,-0.408,-0.522,0.729,-247.437,-133.606,14.831,
00:00:27:650,-0.41,-0.481,0.709,-347.474,-169.556,34.912,
00:00:27:667,-0.436,-0.418,0.699,-401.123,-195.801,37.719,
00:00:27:683,-0.47,-0.352,0.722,-406.556,-185.73,33.996,
00:00:27:700,-0.494,-0.337,0.715,-361.268,-130.86,38.269,
00:00:27:717,-0.498,-0.323,0.71,-362.488,-54.932,45.227,
00:00:27:733,-0.483,-0.307,0.699,-333.191,-3.479,57.434,
00:00:27:750,-0.463,-0.282,0.721,-292.603,28.015,58.288,
00:00:27:767,-0.459,-0.282,0.766,-228.333,52.49,50.537,
00:00:27:783,-0.451,-0.285,0.807,-169.19,85.815,40.161,
00:00:27:800,-0.432,-0.282,0.826,-116.761,121.704,47.18,
00:00:27:817,-0.419,-0.341,0.825,-70.496,141.967,42.358,
00:00:27:833,-0.405,-0.388,0.821,-88.99,137.573,53.222,
00:00:27:850,-0.397,-0.395,0.801,-156.556,115.234,74.157,
00:00:27:867,-0.407,-0.359,0.817,-217.225,85.876,108.886,
00:00:27:883,-0.417,-0.33,0.846,-243.531,89.233,91.857,
00:00:27:900,-0.405,-0.295,0.901,-213.257,116.15,90.637,
00:00:27:917,-0.388,-0.276,0.943,-145.63,138,69.885,
00:00:27:933,-0.378,-0.279,0.969,-67.627,154.419,37.475,
00:00:27:950,-0.374,-0.289,1.003,8.972,168.457,-1.526,
00:00:27:967,-0.367,-0.282,1.011,63.72,185.363,-43.091,
00:00:27:983,-0.353,-0.249,0.971,121.399,209.289,-89.539,
00:00:28:0,-0.339,-0.255,0.959,212.158,200.5,-106.873,
00:00:28:17,-0.329,-0.299,0.964,271.667,182.251,-122.559,
00:00:28:33,-0.322,-0.351,0.999,262.451,154.174,-148.194,
00:00:28:50,-0.313,-0.354,1.008,235.046,132.751,-149.781,
00:00:28:67,-0.308,-0.29,0.974,266.235,117.614,-154.541,
00:00:28:83,-0.322,-0.29,0.961,330.261,102.417,-149.292,
00:00:28:100,-0.327,-0.323,0.935,375,95.459,-165.039,
00:00:28:117,-0.327,-0.342,0.926,393.188,115.173,-173.584,
00:00:28:133,-0.32,-0.346,0.893,393.249,115.417,-176.941,
00:00:28:150,-0.312,-0.384,0.859,406.555,133.239,-187.378,
00:00:28:167,-0.308,-0.398,0.885,385.986,133.545,-163.392,
00:00:28:183,-0.298,-0.402,0.874,363.098,135.498,-161.133,
00:00:28:200,-0.289,-0.412,0.874,339.416,130.127,-161.133,
00:00:28:217,-0.282,-0.405,0.9,325.927,106.994,-149.048,
00:00:28:233,-0.288,-0.41,0.905,292.724,85.693,-138.367,
00:00:28:250,-0.299,-0.425,0.898,228.881,81.543,-114.502,
00:00:28:267,-0.298,-0.468,0.879,168.884,82.824,-97.107,
00:00:28:283,-0.297,-0.449,0.855,132.385,77.392,-84.961,
00:00:28:300,-0.298,-0.445,0.861,105.59,66.101,-56.519,
00:00:28:317,-0.294,-0.422,0.88,109.13,57.251,-37.537,
00:00:28:333,-0.287,-0.434,0.893,131.164,50.659,-33.936,
00:00:28:350,-0.272,-0.482,0.933,140.808,42.541,-33.631,
00:00:28:367,-0.253,-0.46,0.958,156.189,-3.235,-33.57,
00:00:28:383,-0.259,-0.422,0.952,238.342,-49.805,-20.325,
00:00:28:400,-0.286,-0.441,0.926,340.637,-81.971,-52.552,
00:00:28:417,-0.311,-0.488,0.905,407.531,-93.445,-67.2,
00:00:28:433,-0.318,-0.545,0.875,426.208,-100.464,-92.835,
00:00:28:450,-0.325,-0.588,0.849,389.648,-109.253,-90.21,
00:00:28:467,-0.329,-0.607,0.806,315.734,-125.123,-79.651,
00:00:28:483,-0.332,-0.65,0.793,214.111,-137.391,-62.623,
00:00:28:500,-0.33,-0.668,0.756,38.574,-148.865,-32.349,
00:00:28:517,-0.334,-0.6,0.753,-137.085,-201.416,1.403,
00:00:28:533,-0.37,-0.56,0.793,-198.243,-247.559,8.606,
00:00:28:550,-0.412,-0.581,0.813,-246.644,-240.967,24.292,
00:00:28:567,-0.426,-0.566,0.81,-300.11,-202.881,39.306,
00:00:28:583,-0.423,-0.502,0.785,-316.712,-173.584,52.978,
00:00:28:600,-0.427,-0.499,0.773,-289.734,-157.41,47.424,
00:00:28:617,-0.436,-0.532,0.781,-284.79,-148.743,28.503,
00:00:28:633,-0.436,-0.521,0.776,-310.73,-125.245,33.569,
00:00:28:650,-0.427,-0.507,0.762,-313.782,-101.258,21.179,
00:00:28:667,-0.419,-0.529,0.762,-313.294,-105.896,1.831,
00:00:28:683,-0.423,-0.515,0.773,-346.497,-122.864,14.465,
00:00:28:700,-0.436,-0.478,0.789,-348.084,-126.77,6.225,
00:00:28:717,-0.441,-0.468,0.757,-344.056,-108.887,-5.86,
00:00:28:733,-0.441,-0.475,0.784,-343.75,-103.882,-12.574,
00:00:28:750,-0.436,-0.464,0.77,-370.545,-91.37,-16.053,
00:00:28:767,-0.428,-0.437,0.756,-387.024,-90.271,-4.944,
00:00:28:783,-0.423,-0.394,0.738,-398.56,-95.948,-10.621,
00:00:28:800,-0.433,-0.375,0.716,-390.625,-105.774,-12.635,
00:00:28:817,-0.457,-0.384,0.719,-426.514,-75.867,-0.245,
00:00:28:833,-0.455,-0.372,0.751,-458.497,-54.322,-4.09,
00:00:28:850,-0.445,-0.267,0.751,-458.924,-28.626,27.771,
00:00:28:867,-0.446,-0.175,0.738,-328.736,-0.733,22.888,
00:00:28:883,-0.454,-0.251,0.702,-185.059,55.419,-23.316,
00:00:28:900,-0.451,-0.379,0.679,-169.434,108.093,-34.607,
00:00:28:917,-0.436,-0.419,0.755,-294.19,138.305,-20.447,
00:00:28:933,-0.411,-0.345,0.86,-382.203,149.353,-19.043,
00:00:28:950,-0.392,-0.187,0.918,-362.915,172.424,-14.832,
00:00:28:967,-0.386,-0.113,0.945,-193.299,180.786,-44.617,
00:00:28:983,-0.403,-0.143,0.927,5.859,180.603,-57.618,
00:00:29:0,-0.414,-0.243,0.94,85.083,186.706,-70.191,
00:00:29:17,-0.404,-0.298,0.962,88.317,178.466,-87.708,
00:00:29:33,-0.393,-0.274,0.975,66.894,154.174,-57.862,
00:00:29:50,-0.402,-0.246,0.955,70.8,109.985,-50.11,
00:00:29:67,-0.422,-0.261,0.939,88.195,96.069,-48.157,
00:00:29:83,-0.426,-0.316,0.951,59.143,122.192,-38.88,
00:00:29:100,-0.384,-0.32,0.95,13,160.461,-61.036,
00:00:29:117,-0.329,-0.304,0.962,0.732,156.494,-67.749,
00:00:29:133,-0.307,-0.277,0.97,13.427,104.675,-84.229,
00:00:29:150,-0.324,-0.233,1.015,77.27,73.303,-101.38,
00:00:29:167,-0.342,-0.226,1.014,145.019,82.275,-119.446,
00:00:29:183,-0.325,-0.233,1.014,210.266,105.468,-146.546,
00:00:29:200,-0.3,-0.264,1.001,259.887,103.515,-160.584,
00:00:29:217,-0.291,-0.277,0.988,280.883,75.988,-165.406,
00:00:29:233,-0.304,-0.225,0.974,308.776,46.386,-154.786,
00:00:29:250,-0.319,-0.144,0.977,423.645,46.997,-151.307,
00:00:29:267,-0.324,-0.133,0.971,609.13,80.078,-154.664,
00:00:29:283,-0.301,-0.176,0.944,806.274,112.426,-171.082,
00:00:29:300,-0.28,-0.33,0.871,910.583,128.234,-176.331,
00:00:29:317,-0.27,-0.52,0.826,823.974,113.403,-176.636,
00:00:29:333,-0.266,-0.602,0.789,616.027,75.683,-147.278,
00:00:29:350,-0.271,-0.583,0.794,411.255,17.517,-107.178,
00:00:29:367,-0.303,-0.52,0.806,248.962,-34.058,-88.379,
00:00:29:383,-0.334,-0.432,0.841,174.499,-50.904,-69.519,
00:00:29:400,-0.355,-0.422,0.882,185.547,-29.175,-59.266,
00:00:29:417,-0.35,-0.441,0.91,181.762,-7.996,-50.599,
00:00:29:433,-0.335,-0.453,0.881,147.888,-1.954,-21.302,
00:00:29:450,-0.332,-0.485,0.894,111.267,-32.105,-14.283,
00:00:29:467,-0.332,-0.501,0.905,42.114,-54.261,-13.916,
00:00:29:483,-0.333,-0.506,0.936,-12.818,-83.313,-13.184,
00:00:29:500,-0.337,-0.475,0.941,-48.951,-115.174,0.549,
00:00:29:517,-0.358,-0.431,0.927,-43.213,-152.71,6.591,
00:00:29:533,-0.391,-0.457,0.879,-13.001,-165.039,5.798,
00:00:29:550,-0.401,-0.502,0.892,-9.827,-153.382,-1.526,
00:00:29:567,-0.402,-0.529,0.864,-61.219,-144.043,0.122,
00:00:29:583,-0.398,-0.52,0.831,-126.831,-149.537,6.103,
00:00:29:600,-0.409,-0.506,0.841,-175.354,-159.607,17.089,
00:00:29:617,-0.419,-0.472,0.846,-197.998,-153.809,26.611,
00:00:29:633,-0.429,-0.44,0.828,-176.453,-139.954,38.391,
00:00:29:650,-0.436,-0.429,0.801,-121.338,-126.77,33.935,
00:00:29:667,-0.449,-0.473,0.754,-111.329,-105.652,33.569,
00:00:29:683,-0.444,-0.533,0.74,-136.963,-85.999,24.475,
00:00:29:700,-0.425,-0.546,0.736,-227.845,-78.98,54.626,
00:00:29:717,-0.425,-0.535,0.731,-319.092,-114.502,84.655,
00:00:29:733,-0.448,-0.478,0.744,-388.123,-132.508,100.83,
00:00:29:750,-0.49,-0.388,0.717,-378.54,-114.93,131.775,
00:00:29:767,-0.51,-0.344,0.653,-310.73,-61.341,125,
00:00:29:783,-0.503,-0.374,0.633,-270.081,-27.955,69.702,
00:00:29:800,-0.49,-0.43,0.643,-296.021,-12.94,56.274,
00:00:29:817,-0.491,-0.422,0.663,-337.403,-15.076,75.317,
00:00:29:833,-0.5,-0.403,0.734,-399.842,4.089,70.068,
00:00:29:850,-0.481,-0.332,0.791,-421.814,61.706,59.265,
00:00:29:867,-0.442,-0.256,0.833,-351.441,95.459,51.086,
00:00:29:883,-0.43,-0.222,0.848,-191.04,105.713,36.315,
00:00:29:900,-0.432,-0.304,0.803,-54.993,130.005,3.784,
00:00:29:917,-0.423,-0.392,0.784,-22.034,148.559,3.662,
00:00:29:933,-0.403,-0.399,0.773,-53.162,141.967,3.234,
00:00:29:950,-0.388,-0.399,0.798,-63.904,142.395,6.591,
00:00:29:967,-0.367,-0.406,0.852,-72.815,149.597,7.507,
00:00:29:983,-0.341,-0.396,0.879,-60.914,177.002,4.638,
00:00:30:0,-0.321,-0.383,0.902,-29.053,174.743,-7.569,
00:00:30:17,-0.32,-0.361,0.902,12.695,166.442,-28.443,
00:00:30:33,-0.327,-0.337,0.916,62.5,161.743,-52.918,
00:00:30:50,-0.326,-0.329,0.941,109.008,178.222,-87.342,
00:00:30:67,-0.302,-0.339,0.95,143.432,208.191,-114.441,
00:00:30:83,-0.276,-0.338,0.964,164.978,201.843,-135.01,mixLH
00:00:30:100,-0.265,-0.299,0.967,205.932,185.485,-152.161,
00:00:30:117,-0.275,-0.263,0.97,278.808,171.02,-167.786,
00:00:30:133,-0.279,-0.26,0.985,384.582,174.377,-190.552,
00:00:30:150,-0.27,-0.261,1.002,457.275,182.678,-212.22,
00:00:30:167,-0.252,-0.283,1.005,519.47,187.561,-237.732,
00:00:30:183,-0.239,-0.309,0.999,545.41,167.724,-269.165,
00:00:30:200,-0.234,-0.35,0.984,556.213,126.953,-290.162,
00:00:30:217,-0.281,-0.397,0.973,593.75,93.505,-275.94,
00:00:30:233,-0.275,-0.418,0.95,603.942,62.561,-223.633,
00:00:30:250,-0.294,-0.428,0.934,580.627,77.697,-180.115,
00:00:30:267,-0.293,-0.434,0.92,562.072,89.294,-162.11,
00:00:30:283,-0.284,-0.483,0.886,541.015,90.759,-124.634,
00:00:30:300,-0.276,-0.538,0.878,480.529,76.782,-78.37,
00:00:30:317,-0.263,-0.558,0.87,373.047,51.879,-66.285,
00:00:30:333,-0.264,-0.569,0.864,300.109,23.315,-58.167,
00:00:30:350,-0.267,-0.548,0.858,275.085,-5.31,-45.227,
00:00:30:367,-0.277,-0.564,0.853,271.24,-22.522,-29.786,
00:00:30:383,-0.279,-0.619,0.829,226.684,-36.683,-22.4,
00:00:30:400,-0.288,-0.713,0.808,99.853,-57.923,-13.428,
00:00:30:417,-0.292,-0.684,0.803,-24.414,-93.934,9.826,
00:00:30:433,-0.312,-0.597,0.785,-99.915,-136.414,15.258,
00:00:30:450,-0.337,-0.569,0.794,-111.268,-162.11,16.296,
00:00:30:467,-0.362,-0.621,0.808,-138.001,-164.49,11.901,
00:00:30:483,-0.358,-0.632,0.791,-233.033,-166.138,31.189,
00:00:30:500,-0.358,-0.579,0.787,-303.101,-188.172,49.865,
00:00:30:517,-0.377,-0.519,0.781,-319.886,-208.191,57.434,
00:00:30:533,-0.391,-0.515,0.799,-288.697,-201.111,50.17,
00:00:30:550,-0.397,-0.517,0.822,-250.55,-182.373,46.752,
00:00:30:567,-0.39,-0.513,0.832,-247.437,-163.086,41.931,
00:00:30:583,-0.391,-0.483,0.811,-221.985,-144.898,50.903,
00:00:30:600,-0.402,-0.515,0.765,-179.444,-131.775,53.711,
00:00:30:617,-0.409,-0.561,0.759,-201.416,-120.85,76.477,
00:00:30:633,-0.396,-0.518,0.735,-283.265,-119.202,76.294,
00:00:30:650,-0.395,-0.462,0.722,-321.839,-154.114,62.133,
00:00:30:667,-0.414,-0.454,0.757,-302.247,-159.302,60.302,
00:00:30:683,-0.432,-0.439,0.749,-275.208,-144.349,64.636,
00:00:30:700,-0.438,-0.424,0.74,-244.873,-118.531,69.824,
00:00:30:717,-0.439,-0.419,0.72,-219.483,-91.919,73.913,
00:00:30:733,-0.441,-0.411,0.709,-211.853,-74.463,76.66,
00:00:30:750,-0.432,-0.432,0.746,-226.99,-64.148,62.683,
00:00:30:767,-0.429,-0.454,0.742,-257.019,-61.707,84.472,
00:00:30:783,-0.427,-0.44,0.765,-295.838,-47.303,107.666,
00:00:30:800,-0.426,-0.4,0.776,-292.969,-21.79,114.685,
00:00:30:817,-0.413,-0.391,0.777,-243.897,12.329,103.088,
00:00:30:833,-0.392,-0.417,0.778,-185.242,21.118,78.064,
00:00:30:850,-0.393,-0.438,0.759,-175.904,11.169,55.908,
00:00:30:867,-0.414,-0.459,0.759,-183.96,0.366,39.611,
00:00:30:883,-0.435,-0.469,0.789,-236.39,27.282,7.446,
00:00:30:900,-0.43,-0.398,0.82,-276.978,79.528,-1.16,
00:00:30:917,-0.413,-0.301,0.839,-229.248,126.709,-11.17,
00:00:30:933,-0.394,-0.286,0.865,-104.31,167.48,-27.466,
00:00:30:950,-0.378,-0.329,0.884,17.761,212.036,-45.105,
00:00:30:967,-0.349,-0.377,0.884,81.359,236.511,-67.688,
00:00:30:983,-0.322,-0.422,0.865,83.618,240.661,-93.079,
00:00:31:0,-0.3,-0.455,0.854,55.969,214.721,-110.901,
00:00:31:17,-0.29,-0.46,0.852,14.892,169.311,-108.033,
00:00:31:33,-0.301,-0.469,0.892,-36.377,125.488,-111.573,
00:00:31:50,-0.317,-0.454,0.938,-84.412,115.844,-125,
00:00:31:67,-0.313,-0.402,0.96,-95.765,124.267,-141.541,
00:00:31:83,-0.31,-0.339,0.979,-48.096,125.549,-153.138,
00:00:31:100,-0.316,-0.29,0.972,64.148,121.582,-186.585,
00:00:31:117,-0.323,-0.273,0.954,184.753,124.45,-182.496,
00:00:31:133,-0.325,-0.352,0.963,263.305,144.043,-211.243,
00:00:31:150,-0.313,-0.425,0.956,262.39,165.283,-210.511,
00:00:31:167,-0.287,-0.405,0.959,210.327,167.602,-194.886,
00:00:31:183,-0.268,-0.343,0.945,200.744,154.235,-193.238,
00:00:31:200,-0.263,-0.29,0.954,253.418,131.958,-185.303,
00:00:31:217,-0.255,-0.269,0.978,361.816,122.619,-192.994,
00:00:31:233,-0.249,-0.296,0.987,481.628,112.915,-195.74,
00:00:31:250,-0.246,-0.328,0.967,567.932,99.731,-180.115,
00:00:31:267,-0.258,-0.385,0.944,608.825,82.031,-158.875,
00:00:31:283,-0.269,-0.461,0.925,569.03,83.618,-137.024,
00:00:31:300,-0.259,-0.472,0.913,484.497,78.247,-110.169,
00:00:31:317,-0.248,-0.449,0.891,429.138,45.837,-92.53,
00:00:31:333,-0.266,-0.463,0.894,427.734,5.004,-81.788,
00:00:31:350,-0.278,-0.524,0.885,415.466,-9.034,-75.867,
00:00:31:367,-0.282,-0.563,0.868,346.13,-16.541,-52.247,
00:00:31:383,-0.273,-0.584,0.849,285.034,-28.809,-37.293,
00:00:31:400,-0.264,-0.596,0.835,199.34,-52.674,-29.053,
00:00:31:417,-0.268,-0.595,0.833,122.802,-80.14,-21.058,
00:00:31:433,-0.274,-0.58,0.838,51.879,-106.69,-8.301,
00:00:31:450,-0.282,-0.549,0.834,2.075,-130.188,6.836,
00:00:31:467,-0.295,-0.509,0.823,-5.738,-152.955,23.315,
00:00:31:483,-0.309,-0.513,0.824,18.737,-159.302,32.043,
00:00:31:500,-0.318,-0.548,0.847,28.076,-163.758,32.165,
00:00:31:517,-0.319,-0.577,0.832,-6.043,-159.607,46.875,
00:00:31:533,-0.324,-0.566,0.822,-46.57,-167.786,63.903,
00:00:31:550,-0.335,-0.578,0.802,-84.229,-184.388,68.664,
00:00:31:567,-0.355,-0.604,0.791,-132.63,-204.529,76.355,
00:00:31:583,-0.374,-0.602,0.801,-183.655,-217.408,82.641,
00:00:31:600,-0.393,-0.586,0.794,-225.647,-228.516,81.787,
00:00:31:617,-0.413,-0.618,0.783,-259.949,-233.46,89.05,
00:00:31:633,-0.419,-0.653,0.744,-361.451,-234.62,100.647,
00:00:31:650,-0.424,-0.661,0.747,-457.032,-237.793,110.168,
00:00:31:667,-0.43,-0.596,0.745,-540.833,-246.033,110.595,
00:00:31:683,-0.448,-0.5,0.738,-521.973,-250.184,99.792,
00:00:31:700,-0.471,-0.464,0.749,-448.487,-233.033,74.585,
00:00:31:717,-0.479,-0.498,0.767,-385.56,-183.777,40.588,
00:00:31:733,-0.463,-0.535,0.737,-405.335,-133.973,28.32,
00:00:31:750,-0.44,-0.547,0.734,-447.144,-124.878,27.038,
00:00:31:767,-0.433,-0.483,0.732,-507.935,-149.109,30.639,
00:00:31:783,-0.457,-0.398,0.718,-520.02,-176.209,21.911,
00:00:31:800,-0.487,-0.332,0.73,-483.155,-181.763,8.911,
00:00:31:817,-0.513,-0.312,0.716,-411.927,-141.968,-8.545,
00:00:31:833,-0.524,-0.349,0.706,-364.258,-89.844,-7.081,
00:00:31:850,-0.513,-0.372,0.716,-366.7,-36.194,-16.175,
00:00:31:867,-0.495,-0.332,0.722,-375.306,5.798,-9.156,
00:00:31:883,-0.487,-0.276,0.725,-353.333,33.02,1.831,
00:00:31:900,-0.492,-0.257,0.753,-282.837,58.044,-12.635,
00:00:31:917,-0.49,-0.252,0.784,-208.619,106.079,-10.254,
00:00:31:933,-0.466,-0.231,0.831,-131.897,160.766,-13.184,
00:00:31:950,-0.419,-0.228,0.877,-37.476,198.364,-28.199,
00:00:31:967,-0.389,-0.264,0.922,18.981,204.773,-24.476,
00:00:31:983,-0.369,-0.299,0.932,40.161,191.467,-17.945,
00:00:32:0,-0.372,-0.325,0.899,13.855,166.565,-11.78,
00:00:32:17,-0.382,-0.325,0.854,-32.532,135.192,-17.945,
00:00:32:33,-0.392,-0.302,0.854,-59.998,116.577,-20.386,
00:00:32:50,-0.398,-0.253,0.879,-30.152,110.473,-31.8,
00:00:32:67,-0.386,-0.249,0.893,36.804,134.216,-57.801,
00:00:32:83,-0.375,-0.272,0.908,105.224,150.512,-63.965,
00:00:32:100,-0.365,-0.3,0.894,152.771,165.222,-68.177,
00:00:32:117,-0.355,-0.319,0.885,164.795,174.743,-80.14,
00:00:32:133,-0.344,-0.309,0.869,188.842,195.8,-97.229,
00:00:32:150,-0.332,-0.309,0.869,218.994,205.261,-111.084,
00:00:32:167,-0.327,-0.338,0.91,245.422,208.984,-134.156,
00:00:32:183,-0.306,-0.359,0.958,236.206,255.615,-147.461,
00:00:32:200,-0.262,-0.37,0.996,238.281,292.541,-150.696,
00:00:32:217,-0.219,-0.357,0.99,252.685,283.02,-154.664,
00:00:32:233,-0.207,-0.351,0.973,284.729,227.172,-162.842,
00:00:32:250,-0.231,-0.34,0.984,322.815,163.818,-169.373,
00:00:32:267,-0.256,-0.312,0.999,365.112,137.207,-170.594,
00:00:32:283,-0.267,-0.344,1.016,421.753,145.813,-177.735,
00:00:32:300,-0.251,-0.366,0.997,445.312,152.954,-162.537,
00:00:32:317,-0.237,-0.368,0.964,457.885,128.234,-155.396,
00:00:32:333,-0.247,-0.381,0.971,479.675,90.82,-125.855,
00:00:32:350,-0.253,-0.417,0.974,481.628,76.232,-135.071,
00:00:32:367,-0.246,-0.442,0.967,463.989,63.476,-138.123,
00:00:32:383,-0.243,-0.444,0.945,451.294,40.71,-119.568,
00:00:32:400,-0.249,-0.468,0.921,441.772,13.794,-112.549,
00:00:32:417,-0.258,-0.491,0.904,418.762,-0.245,-105.469,
00:00:32:433,-0.264,-0.52,0.897,377.563,-3.907,-105.774,
00:00:32:450,-0.261,-0.545,0.875,307.617,2.075,-92.286,
00:00:32:467,-0.258,-0.558,0.861,225.83,-6.104,-87.159,
00:00:32:483,-0.264,-0.547,0.857,164.489,-23.682,-74.402,
00:00:32:500,-0.272,-0.55,0.862,116.943,-30.945,-58.533,
00:00:32:517,-0.275,-0.561,0.869,73.791,-37.842,-40.101,
00:00:32:533,-0.28,-0.561,0.857,26.55,-48.157,-19.41,
00:00:32:550,-0.283,-0.546,0.833,-18.433,-65.979,-2.869,
00:00:32:567,-0.296,-0.522,0.804,-53.101,-91.553,-5.005,
00:00:32:583,-0.312,-0.527,0.786,-68.787,-107.361,-8.118,
00:00:32:600,-0.324,-0.529,0.803,-89.173,-116.578,-12.696,
00:00:32:617,-0.34,-0.515,0.823,-108.033,-120.972,-8.24,
00:00:32:633,-0.366,-0.501,0.822,-116.517,-121.521,2.441,
00:00:32:650,-0.389,-0.5,0.793,-103.943,-114.38,19.958,
00:00:32:667,-0.41,-0.503,0.785,-109.253,-101.319,37.17,
00:00:32:683,-0.414,-0.53,0.778,-132.447,-92.896,37.231,
00:00:32:700,-0.417,-0.52,0.761,-169.251,-99.671,56.823,
00:00:32:717,-0.433,-0.533,0.757,-201.661,-107.605,68.176,
00:00:32:733,-0.441,-0.528,0.776,-249.451,-103.577,75.317,
00:00:32:750,-0.432,-0.502,0.789,-281.25,-92.041,78.064,
00:00:32:767,-0.419,-0.455,0.816,-270.02,-88.196,84.228,
00:00:32:783,-0.413,-0.445,0.817,-218.384,-66.773,89.904,
00:00:32:800,-0.399,-0.476,0.804,-174.5,-54.322,100.28,
00:00:32:817,-0.384,-0.508,0.783,-179.566,-54.505,101.196,
00:00:32:833,-0.374,-0.529,0.776,-219.788,-71.778,106.811,
00:00:32:850,-0.376,-0.534,0.779,-275.269,-91.187,112.487,
00:00:32:867,-0.378,-0.478,0.777,-319.519,-115.54,111.267,
00:00:32:883,-0.394,-0.44,0.778,-308.106,-129.273,95.886,
00:00:32:900,-0.411,-0.444,0.772,-275.818,-119.202,99.243,
00:00:32:917,-0.41,-0.473,0.774,-283.57,-94.788,93.75,
00:00:32:933,-0.409,-0.464,0.774,-297.303,-77.271,102.05,
00:00:32:950,-0.423,-0.426,0.773,-295.166,-53.956,108.947,
00:00:32:967,-0.433,-0.389,0.774,-269.776,-12.024,110.473,
00:00:32:983,-0.42,-0.366,0.75,-215.027,16.845,80.2,
00:00:33:0,-0.407,-0.368,0.74,-158.875,30.761,41.015,
00:00:33:17,-0.416,-0.405,0.746,-113.953,38.696,10.803,
00:00:33:33,-0.402,-0.448,0.765,-117.005,74.89,-15.686,
00:00:33:50,-0.373,-0.457,0.812,-153.016,101.318,-29.725,
00:00:33:67,-0.344,-0.43,0.853,-181.885,105.285,-33.753,
00:00:33:83,-0.336,-0.37,0.885,-177.063,96.313,-37.72,
00:00:33:100,-0.334,-0.324,0.886,-130.372,89.05,-53.284,
00:00:33:117,-0.342,-0.323,0.868,-64.82,75.561,-78.125,
00:00:33:133,-0.343,-0.366,0.875,-35.096,70.922,-67.566,
00:00:33:150,-0.341,-0.405,0.887,-62.806,65.063,-67.933,
00:00:33:167,-0.337,-0.391,0.893,-113.221,62.866,-58.411,
00:00:33:183,-0.331,-0.358,0.9,-125.733,69.58,-74.646,
00:00:33:200,-0.323,-0.34,0.929,-89.295,91.98,-95.765,
00:00:33:217,-0.308,-0.332,0.96,-25.33,113.891,-130.799,
00:00:33:233,-0.283,-0.303,0.991,59.753,126.403,-161.194,
00:00:33:250,-0.277,-0.289,1.001,170.654,122.802,-187.073,
00:00:33:267,-0.282,-0.334,0.983,263.122,134.704,-204.346,
00:00:33:283,-0.276,-0.384,0.963,294.311,149.902,-218.018,
00:00:33:300,-0.259,-0.394,0.953,272.277,155.883,-239.747,
00:00:33:317,-0.25,-0.362,0.944,252.441,140.564,-238.831,
00:00:33:334,-0.258,-0.334,0.947,261.963,121.582,-243.836,
00:00:33:350,-0.266,-0.311,0.942,295.166,119.506,-241.272,
00:00:33:367,-0.272,-0.299,0.945,346.13,120.971,-232.422,
00:00:33:384,-0.27,-0.309,0.944,384.643,140.014,-227.295,
00:00:33:400,-0.256,-0.366,0.933,396.606,164.734,-217.164,
00:00:33:417,-0.232,-0.392,0.943,352.661,172.18,-192.505,
00:00:33:434,-0.201,-0.391,0.949,308.776,155.7,-172.059,
00:00:33:450,-0.196,-0.374,0.96,274.353,121.582,-146.851,
00:00:33:467,-0.204,-0.366,0.988,255.615,76.355,-130.616,
00:00:33:484,-0.211,-0.368,0.998,255.493,41.442,-107.3,
00:00:33:500,-0.208,-0.435,0.996,247.009,12.451,-83.008,
00:00:33:517,-0.211,-0.446,0.989,237.732,-33.753,-46.631,
00:00:33:534,-0.224,-0.496,0.965,196.472,-80.75,-0.245,
00:00:33:550,-0.248,-0.498,0.919,131.408,-126.954,6.713,
00:00:33:567,-0.283,-0.482,0.843,85.815,-159.18,2.197,
00:00:33:584,-0.321,-0.493,0.878,53.161,-172.059,-4.456,
00:00:33:600,-0.338,-0.492,0.882,19.714,-159.424,-3.357,
00:00:33:617,-0.344,-0.49,0.884,-4.944,-135.682,0.915,
00:00:33:634,-0.341,-0.488,0.882,-24.842,-122.681,0.549,
00:00:33:650,-0.341,-0.47,0.877,-35.706,-125.672,13,
00:00:33:667,-0.347,-0.466,0.847,-37.293,-114.93,9.338,
00:00:33:684,-0.34,-0.495,0.857,-49.927,-118.042,4.943,
00:00:33:700,-0.333,-0.536,0.855,-100.037,-133.545,17.028,
00:00:33:717,-0.341,-0.545,0.846,-192.566,-167.725,42.968,
00:00:33:734,-0.375,-0.475,0.802,-265.931,-199.402,69.336,
00:00:33:750,-0.415,-0.438,0.782,-278.504,-203.98,71.472,
00:00:33:767,-0.427,-0.46,0.765,-296.692,-197.144,82.336,
00:00:33:784,-0.432,-0.473,0.767,-322.815,-196.351,100.036,
00:00:33:800,-0.438,-0.432,0.749,-349.854,-190.674,119.14,
00:00:33:817,-0.45,-0.386,0.736,-328.431,-182.251,125.915,
00:00:33:834,-0.463,-0.394,0.704,-296.814,-166.81,109.436,
00:00:33:850,-0.464,-0.452,0.688,-283.509,-141.419,106.323,
00:00:33:867,-0.47,-0.473,0.705,-329.346,-159.119,109.497,
00:00:33:884,-0.472,-0.432,0.718,-399.781,-134.278,103.088,
00:00:33:900,-0.474,-0.405,0.725,-428.101,-105.225,113.159,
00:00:33:917,-0.468,-0.341,0.74,-428.284,-81.849,93.994,
00:00:33:934,-0.477,-0.328,0.755,-372.803,-57.984,92.651,
00:00:33:950,-0.475,-0.347,0.756,-332.032,-23.743,84.716,
00:00:33:967,-0.465,-0.343,0.754,-323.182,9.643,78.918,
00:00:33:984,-0.452,-0.336,0.779,-314.209,35.4,65.673,
00:00:34:0,-0.444,-0.328,0.83,-310.059,49.255,59.57,
00:00:34:17,-0.436,-0.289,0.867,-307.19,59.326,55.175,
00:00:34:34,-0.447,-0.233,0.894,-289.612,53.588,58.166,
00:00:34:50,-0.461,-0.216,0.902,-242.31,61.889,57.617,
00:00:34:67,-0.461,-0.2,0.878,-192.627,85.815,58.898,
00:00:34:84,-0.445,-0.203,0.865,-143.067,107.849,38.33,mixLH
00:00:34:100,-0.431,-0.221,0.864,-92.53,102.661,20.263,
00:00:34:117,-0.423,-0.246,0.887,-65.552,101.318,5.798,
00:00:34:134,-0.413,-0.277,0.904,-52.063,124.389,-14.344,
00:00:34:150,-0.392,-0.285,0.927,-45.289,151.55,-31.617,
00:00:34:167,-0.37,-0.281,0.935,-20.02,172.851,-52.43,
00:00:34:184,-0.346,-0.271,0.924,25.695,191.04,-69.153,
00:00:34:200,-0.328,-0.266,0.928,73.547,187.683,-100.342,
00:00:34:217,-0.316,-0.272,0.931,130.005,197.265,-118.164,
00:00:34:234,-0.303,-0.317,0.922,172.973,208.801,-147.644,
00:00:34:250,-0.291,-0.33,0.924,174.682,218.322,-158.326,
00:00:34:267,-0.28,-0.311,0.931,192.138,213.989,-168.335,
00:00:34:284,-0.282,-0.299,0.969,247.07,219.055,-164.856,
00:00:34:300,-0.263,-0.296,1.012,307.678,242.675,-179.749,
00:00:34:317,-0.229,-0.288,1,390.686,248.901,-195.679,
00:00:34:334,-0.208,-0.322,0.99,459.594,213.867,-203.858,
00:00:34:350,-0.207,-0.391,0.985,464.111,161.193,-204.285,
00:00:34:367,-0.211,-0.407,0.99,403.503,129.089,-211.121,
00:00:34:384,-0.209,-0.365,0.985,346.252,106.689,-224.06,
00:00:34:400,-0.221,-0.303,0.993,334.045,83.313,-235.047,
00:00:34:417,-0.239,-0.28,0.989,376.587,76.843,-232.3,
00:00:34:434,-0.243,-0.288,0.989,429.016,85.51,-217.835,
00:00:34:450,-0.231,-0.334,0.979,436.34,95.52,-203.98,
00:00:34:467,-0.22,-0.391,0.988,389.343,90.148,-176.331,
00:00:34:484,-0.212,-0.389,0.982,291.748,78.064,-153.138,
00:00:34:500,-0.202,-0.382,1.003,230.59,54.077,-139.71,
00:00:34:517,-0.195,-0.369,1.007,220.337,25.39,-120.85,
00:00:34:534,-0.203,-0.376,1.008,226.806,-15.442,-97.474,
00:00:34:550,-0.223,-0.395,1.018,228.698,-39.002,-93.201,
00:00:34:567,-0.228,-0.419,1.001,239.013,-60.486,-96.192,
00:00:34:584,-0.243,-0.431,0.956,250.854,-75.074,-90.455,
00:00:34:600,-0.266,-0.429,0.92,278.564,-86.426,-77.088,
00:00:34:617,-0.282,-0.459,0.899,292.053,-89.966,-74.83,
00:00:34:634,-0.297,-0.496,0.878,265.014,-74.158,-70.069,
00:00:34:650,-0.285,-0.525,0.839,209.716,-64.331,-62.623,
00:00:34:667,-0.273,-0.54,0.817,126.403,-81.665,-43.58,
00:00:34:684,-0.282,-0.548,0.81,34.668,-119.08,-25.452,
00:00:34:700,-0.306,-0.525,0.807,-52.918,-148.743,-5.921,
00:00:34:717,-0.34,-0.49,0.795,-107.666,-156.25,23.071,
00:00:34:734,-0.36,-0.485,0.801,-131.165,-134.522,46.752,
00:00:34:750,-0.353,-0.501,0.811,-167.786,-116.333,76.66,
00:00:34:767,-0.347,-0.503,0.823,-220.337,-119.446,102.661,
00:00:34:784,-0.355,-0.462,0.822,-244.507,-123.23,149.841,
00:00:34:800,-0.37,-0.449,0.828,-235.901,-122.437,171.203,
00:00:34:817,-0.373,-0.441,0.816,-212.403,-112.977,184.326,
00:00:34:834,-0.379,-0.418,0.799,-189.637,-126.282,185.119,
00:00:34:850,-0.393,-0.439,0.806,-164.063,-136.048,166.504,
00:00:34:867,-0.405,-0.466,0.788,-169.861,-144.41,166.626,
00:00:34:884,-0.413,-0.482,0.77,-199.83,-153.504,162.658,
00:00:34:900,-0.417,-0.488,0.722,-243.348,-167.176,154.968,
00:00:34:917,-0.423,-0.463,0.736,-292.42,-193.848,150.146,
00:00:34:934,-0.439,-0.431,0.73,-313.782,-215.577,132.629,
00:00:34:950,-0.463,-0.448,0.7,-318.787,-222.229,128.418,
00:00:34:967,-0.482,-0.481,0.687,-366.394,-213.135,116.211,
