TIMECODE,ACC_X,ACC_Y,ACC_Z,GYR_X,GYR_Y,GYR_Z,ECG_I,ECG_II,ECG_III,TAG
,-0.096,-0.485,0.888,27.832,-8.118,-9.156,0,0,0,
,-0.092,-0.485,0.896,30.151,-2.198,-10.987,0,0,0,
,-0.094,-0.486,0.891,25.207,0.793,-15.076,0,0,0,
,-0.093,-0.488,0.885,25.573,5.127,-16.968,0,0,0,
,-0.092,-0.494,0.888,21.484,5.31,-19.165,0,0,0,
,-0.095,-0.501,0.888,13.977,9.521,-22.278,0,0,0,
,-0.094,-0.491,0.884,11.535,10.62,-21.729,0,0,0,
,-0.095,-0.494,0.89,9.155,9.582,-23.072,0,0,0,
,-0.097,-0.489,0.887,7.263,9.887,-22.644,0,0,0,
,-0.09,-0.496,0.887,14.343,8.85,-21.119,0,0,0,
,-0.092,-0.502,0.882,9.521,7.934,-22.339,0,0,0,
,-0.092,-0.496,0.88,9.033,8.972,-21.912,0,0,0,
,-0.095,-0.495,0.886,10.742,5.493,-22.461,0,0,0,
,-0.095,-0.492,0.885,7.751,7.446,-21.424,0,0,0,
,-0.093,-0.493,0.886,5.798,7.507,-20.569,0,0,0,
,-0.091,-0.492,0.888,7.141,6.713,-21.729,0,0,0,
,-0.096,-0.496,0.886,10.437,8.178,-19.593,0,0,0,
,-0.098,-0.498,0.886,7.995,8.239,-19.227,0,0,0,
,-0.097,-0.497,0.882,5.065,10.192,-21.973,0,0,0,
,-0.092,-0.495,0.886,5.981,8.3,-22.4,0,0,0,
,-0.094,-0.491,0.889,7.385,8.117,-22.4,0,0,0,
,-0.089,-0.492,0.888,9.704,8.606,-21.18,0,0,0,
,-0.093,-0.491,0.884,6.836,7.08,-21.668,0,0,0,
,-0.096,-0.493,0.886,8.789,8.178,-22.522,0,0,0,
,-0.094,-0.498,0.889,7.446,7.751,-22.828,0,0,0,
,-0.097,-0.497,0.885,4.211,9.277,-23.072,0,0,0,
,-0.094,-0.495,0.882,6.774,10.07,-22.095,0,0,0,
,-0.09,-0.494,0.883,7.202,9.826,-24.048,0,0,0,
,-0.091,-0.493,0.881,7.202,8.483,-23.377,0,0,0,
,-0.096,-0.492,0.884,8.911,7.202,-22.706,0,0,0,
,-0.092,-0.499,0.885,11.779,8.667,-20.63,0,0,0,
,-0.096,-0.499,0.889,8.3,8.422,-19.654,0,0,0,
,-0.098,-0.497,0.888,5.004,10.864,-19.654,0,0,0,
,-0.095,-0.493,0.885,3.967,12.085,-21.302,0,0,0,
,-0.093,-0.495,0.882,5.371,11.657,-21.973,0,0,0,
,-0.094,-0.495,0.889,5.981,12.512,-20.63,0,0,0,
,-0.093,-0.494,0.885,6.225,13.061,-22.889,0,0,0,
,-0.09,-0.493,0.888,7.751,10.62,-21.302,0,0,0,
,-0.095,-0.495,0.884,5.615,10.437,-23.072,0,0,0,
,-0.064,-0.492,0.886,8.117,10.925,-22.522,0,0,0,
,-0.092,-0.493,0.885,11.84,7.69,-23.133,0,0,0,
,-0.091,-0.498,0.888,9.887,8.972,-20.874,0,0,0,
,-0.09,-0.5,0.885,8.483,9.521,-21.607,0,0,0,
,-0.094,-0.495,0.882,6.408,7.934,-23.072,0,0,0,
,-0.098,-0.495,0.885,6.713,7.69,-21.973,0,0,0,
,-0.092,-0.492,0.889,7.568,9.704,-20.142,0,0,0,
,-0.093,-0.497,0.882,10.742,6.836,-20.081,0,0,0,
,-0.089,-0.501,0.884,10.742,6.53,-19.165,0,0,0,
,-0.092,-0.49,0.882,10.925,5.737,-20.264,0,0,0,
,-0.096,-0.497,0.885,15.686,4.821,-21.119,0,0,0,
,-0.094,-0.498,0.887,12.39,5.31,-20.203,0,0,0,
,-0.095,-0.501,0.884,10.437,8.178,-20.997,0,0,0,
,-0.094,-0.498,0.885,10.07,5.92,-20.935,0,0,0,
,-0.094,-0.49,0.883,11.474,5.371,-20.752,0,0,0,
,-0.097,-0.498,0.885,11.169,7.446,-20.874,0,0,0,
,-0.092,-0.497,0.888,11.413,8.606,-19.959,0,0,0,
,-0.125,-0.501,0.887,6.103,8.056,-20.935,0,0,0,
,-0.092,-0.498,0.883,9.033,12.756,-21.424,0,0,0,
,-0.095,-0.498,0.882,6.958,9.887,-23.072,0,0,0,
,-0.098,-0.5,0.886,7.08,9.704,-22.706,0,0,0,
,-0.092,-0.47,0.885,5.737,12.939,-20.63,0,0,0,
,-0.093,-0.501,0.889,4.028,11.535,-21.119,0,0,0,
,-0.093,-0.496,0.888,4.577,11.474,-19.776,0,0,0,
,-0.091,-0.496,0.882,8.606,9.521,-20.569,0,0,0,
,-0.093,-0.5,0.885,10.742,7.324,-21.18,0,0,0,
,-0.094,-0.498,0.881,10.803,7.263,-20.874,0,0,0,
,-0.091,-0.499,0.885,14.892,6.591,-20.508,0,0,0,
,-0.097,-0.505,0.88,13.061,4.028,-20.874,0,0,0,
,-0.09,-0.5,0.882,9.521,4.577,-19.593,0,0,0,
,-0.095,-0.495,0.886,9.155,6.836,-20.997,0,0,0,
,-0.094,-0.5,0.888,9.155,7.019,-20.325,0,0,0,
,-0.093,-0.499,0.881,7.08,11.169,-20.63,0,0,0,
,-0.094,-0.5,0.886,5.432,10.864,-22.706,0,0,0,
,-0.095,-0.498,0.884,6.591,12.573,-19.654,0,0,0,
,-0.098,-0.503,0.883,3.112,12.451,-21.485,0,0,0,
,-0.093,-0.497,0.879,-0.061,12.695,-20.569,0,0,0,
,-0.089,-0.495,0.881,5.554,12.39,-21.546,0,0,0,
,-0.087,-0.498,0.885,5.249,9.46,-20.325,0,0,0,
,-0.089,-0.495,0.878,9.277,5.188,-21.546,0,0,0,
,-0.094,-0.501,0.88,8.911,5.065,-21.607,0,0,0,
,-0.064,-0.498,0.88,8.911,4.638,-19.227,0,0,0,
,-0.094,-0.5,0.884,11.352,2.929,-17.029,0,0,0,
,-0.124,-0.501,0.883,12.573,3.173,-17.579,0,0,0,
,-0.091,-0.5,0.886,8.606,3.173,-18.128,0,0,0,
,-0.094,-0.501,0.889,12.268,3.295,-17.884,0,0,0,
,-0.101,-0.5,0.88,6.286,6.958,-20.691,0,0,0,
,-0.092,-0.494,0.883,9.216,6.713,-19.715,0,0,0,
,-0.097,-0.503,0.887,8.056,7.568,-20.874,0,0,0,
,-0.093,-0.499,0.88,5.065,10.62,-21.668,0,0,0,
,-0.092,-0.497,0.884,4.272,6.652,-22.828,0,0,0,
,-0.097,-0.496,0.889,5.615,7.141,-23.133,0,0,0,
,-0.096,-0.501,0.885,9.094,9.155,-22.706,0,0,0,
,-0.094,-0.501,0.878,5.249,7.385,-21.729,0,0,0,
,-0.095,-0.502,0.879,3.418,7.873,-21.973,0,0,0,
,-0.091,-0.5,0.884,5.92,8.483,-19.227,0,0,0,
,-0.095,-0.499,0.884,8.361,9.277,-20.203,0,0,0,
,-0.091,-0.498,0.88,8.789,5.127,-18.86,0,0,0,
,-0.092,-0.497,0.88,11.352,3.356,-20.691,0,0,0,
,-0.089,-0.501,0.884,12.878,1.403,-18.677,0,0,0,
,-0.095,-0.5,0.883,12.207,3.54,-19.471,0,0,0,
,-0.094,-0.502,0.884,10.681,4.089,-18.433,0,0,0,
,-0.093,-0.497,0.878,6.774,5.737,-20.264,0,0,0,
,-0.094,-0.499,0.879,9.338,5.371,-21.119,0,0,0,
,-0.094,-0.501,0.881,7.507,4.272,-21.79,0,0,0,
,-0.094,-0.5,0.883,7.019,7.568,-21.851,0,0,0,
,-0.125,-0.505,0.888,7.324,8.361,-22.95,0,0,0,
,-0.096,-0.499,0.878,1.22,10.742,-22.889,0,0,0,
,-0.093,-0.502,0.889,4.882,11.169,-20.935,0,0,0,
,-0.094,-0.53,0.881,3.54,10.498,-21.912,0,0,0,
,-0.091,-0.531,0.884,5.127,9.094,-20.02,0,0,0,
,-0.096,-0.501,0.879,8.3,5.004,-22.461,0,0,0,
,-0.097,-0.502,0.882,9.338,6.408,-20.935,0,0,0,
,-0.098,-0.501,0.879,10.315,4.333,-20.935,0,0,0,
,-0.097,-0.502,0.884,9.887,3.295,-18.433,0,0,0,
,-0.093,-0.5,0.879,8.728,4.577,-18.311,0,0,0,
,-0.091,-0.5,0.883,9.948,3.845,-16.846,0,0,0,
,-0.097,-0.498,0.882,11.291,3.295,-19.593,0,0,0,
,-0.094,-0.503,0.879,15.014,0.793,-19.165,0,0,0,
,-0.1,-0.506,0.884,11.962,1.403,-21.241,0,0,0,
,-0.096,-0.503,0.885,8.117,4.943,-21.607,0,0,0,
,-0.093,-0.502,0.886,6.164,6.347,-20.569,0,0,0,
,-0.096,-0.501,0.881,5.371,8.667,-21.363,0,0,0,
,-0.097,-0.501,0.88,4.15,8.85,-21.546,0,0,0,
,-0.096,-0.501,0.885,3.479,8.911,-21.729,0,0,0,
,-0.096,-0.499,0.881,7.812,8.606,-22.889,0,0,0,
,-0.092,-0.505,0.878,8.239,11.291,-22.034,0,0,0,
,-0.093,-0.503,0.882,5.981,9.521,-22.644,0,0,0,
,-0.099,-0.505,0.888,3.906,11.657,-22.339,0,0,0,
,-0.101,-0.503,0.879,1.892,11.84,-22.217,0,0,0,
,-0.093,-0.501,0.878,1.464,9.765,-20.264,0,0,0,
,-0.094,-0.5,0.877,3.234,9.155,-21.424,0,0,0,
,-0.091,-0.496,0.876,7.202,8.117,-21.546,0,0,0,
,-0.09,-0.499,0.884,11.779,4.15,-22.95,0,0,0,
,-0.097,-0.502,0.885,13.977,3.967,-21.912,0,0,0,
,-0.101,-0.505,0.885,10.742,2.685,-20.691,0,0,0,
,-0.098,-0.502,0.874,8.667,5.371,-19.715,0,0,0,
,-0.099,-0.503,0.879,10.07,4.394,-20.142,0,0,0,
,-0.097,-0.5,0.88,8.789,3.967,-21.424,0,0,0,
,-0.091,-0.502,0.882,12.573,3.601,-19.593,0,0,0,
,-0.099,-0.508,0.887,9.704,2.929,-19.349,0,0,0,
,-0.102,-0.5,0.879,6.774,3.845,-17.884,0,0,0,
,-0.097,-0.502,0.882,10.925,5.615,-18.799,0,0,0,
,-0.098,-0.499,0.881,8.728,7.202,-21.485,0,0,0,
,-0.098,-0.504,0.881,10.864,7.08,-20.447,0,0,0,
,-0.095,-0.506,0.882,5.981,9.521,-21.79,0,0,0,
,-0.096,-0.504,0.884,3.906,9.643,-22.217,0,0,0,
,-0.098,-0.502,0.878,3.967,8.789,-18.921,0,0,0,
,-0.097,-0.501,0.883,6.713,8.911,-19.532,0,0,0,
,-0.099,-0.503,0.881,8.789,7.202,-20.691,0,0,0,
,-0.098,-0.506,0.877,8.178,9.826,-20.264,0,0,0,
,-0.1,-0.501,0.874,6.286,7.812,-21.973,0,0,0,
,-0.1,-0.503,0.883,7.873,6.713,-20.935,0,0,0,
,-0.099,-0.502,0.88,11.108,5.615,-20.569,0,0,0,
,-0.097,-0.501,0.881,10.62,4.516,-19.959,0,0,0,
,-0.093,-0.507,0.88,9.643,5.92,-21.668,0,0,0,
,-0.095,-0.504,0.879,8.667,5.92,-20.874,0,0,0,
,-0.097,-0.504,0.88,6.958,6.042,-21.668,0,0,0,
,-0.102,-0.501,0.879,9.521,7.202,-20.997,0,0,0,
,-0.101,-0.507,0.882,10.559,6.713,-23.072,0,0,0,
,-0.103,-0.503,0.879,7.324,9.338,-21.912,0,0,0,
,-0.093,-0.503,0.878,6.836,9.948,-21.546,0,0,0,
,-0.098,-0.502,0.88,7.08,5.249,-21.18,0,0,0,
,-0.097,-0.502,0.879,9.887,7.263,-20.935,0,0,0,
,-0.095,-0.508,0.88,6.103,9.155,-20.997,0,0,0,
,-0.101,-0.504,0.878,7.019,7.324,-20.935,0,0,0,
,-0.093,-0.505,0.875,6.469,5.92,-18.982,0,0,0,
,-0.093,-0.492,0.876,13.244,3.356,-19.776,0,0,0,
,-0.103,-0.506,0.882,25.268,0,-18.677,0,0,0,
,-0.101,-0.519,0.873,17.944,-0.123,-17.518,0,0,0,
,-0.107,-0.51,0.879,11.413,-1.404,-14.588,0,0,0,
,-0.098,-0.502,0.877,8.544,-0.733,-13.611,0,0,0,
,-0.096,-0.5,0.88,14.465,-0.55,-15.259,0,0,0,
,-0.095,-0.505,0.878,11.352,-0.977,-17.395,0,0,0,
,-0.102,-0.506,0.878,13.244,0.366,-21.18,0,0,0,
,-0.1,-0.512,0.88,9.277,7.568,-20.081,0,0,0,
,-0.101,-0.508,0.878,1.709,12.634,-22.644,0,0,0,
,-0.098,-0.507,0.88,-1.038,16.052,-22.706,0,0,0,
,-0.102,-0.503,0.877,-3.54,15.38,-22.461,0,0,0,
,-0.103,-0.521,0.873,-3.785,19.47,-19.227,0,0,0,
,-0.121,-0.548,0.913,-32.532,59.387,-20.691,0,0,0,
,-0.12,-0.503,0.965,-62.623,106.018,-16.785,0,0,0,
,-0.205,-0.488,1.096,-112.305,231.14,-37.781,0,0,0,
,-0.303,-0.562,1.247,-298.768,511.474,-63.538,0,0,0,
,-0.322,-0.442,1.491,-477.478,881.408,-138.184,0,0,0,
,-0.077,-0.215,1.737,-150.086,1027.343,-130.677,0,0,0,
,0.414,-0.342,2.167,487.304,573.791,-173.462,0,0,0,
,0.357,-0.48,2.14,601.257,130.493,-227.967,0,0,0,
,0.422,-0.972,1.949,789.795,-21.912,-266.358,0,0,0,
,0.83,-1.551,1.522,264.343,-475.953,-390.992,0,0,0,
,0.849,-1.593,1.69,-401.978,-1257.935,-548.401,0,0,0,
,0.745,-1.47,1.836,-823.121,-1867.737,-646.363,0,0,0,
,0.693,-1.224,1.823,-835.389,-2000,-723.267,0,0,0,
,0.82,-1.115,1.537,-639.893,-2000,-844.971,0,0,0,
,0.789,-1.027,1.164,-465.577,-2000,-1059.021,0,0,0,
,0.715,-0.939,0.768,-336.182,-2000,-1250.672,0,0,0,
,0.659,-0.843,0.454,-252.442,-2000,-1414.917,0,0,0,
,0.664,-0.66,0.107,-217.408,-2000,-1549.805,0,0,0,
,0.6,-0.396,-0.142,-125.306,-2000,-1679.932,0,0,0,
,0.502,-0.043,-0.391,136.901,-2000,-1832.093,0,0,0,
,0.333,0.264,-0.523,530.395,-2000,-1999.695,0,0,0,
,0.136,0.229,-0.522,866.943,-2000,-2000,0,0,0,
,0.244,-0.058,-0.504,784.912,-2000,-2000,0,0,0,
,0.493,0.19,-0.793,466.369,-2000,-2000,0,0,0,
,0.453,0.757,-1.253,236.267,-1788.453,-1989.563,0,0,0,
,0.093,1.403,-1.66,-1.404,-1543.702,-1727.662,0,0,0,
,-0.306,1.851,-1.866,-246.949,-1140.687,-1318.482,0,0,0,
,-0.462,1.903,-1.925,-545.899,-497.254,-649.231,0,0,0,
,-0.317,1.761,-1.798,-646.485,246.765,199.89,0,0,0,
,-0.076,1.528,-1.494,-394.593,942.016,886.291,0,0,0,
,0.001,1.329,-1.183,44.738,1561.828,1434.204,0,0,0,
,0.02,1.111,-1.044,482.055,1999.694,1807.861,0,0,0,
,0.068,0.851,-0.934,714.965,1999.694,1999.694,0,0,0,
,0.127,0.642,-0.789,779.297,1999.694,1999.694,0,0,0,
,0.182,0.304,-0.584,803.222,1999.694,1999.694,0,0,0,
,0.237,-0.115,-0.347,727.783,1999.694,1999.694,0,0,0,
,0.244,-0.574,0.108,488.83,1999.694,1999.694,0,0,0,
,0.203,-0.892,0.576,90.21,1999.694,1999.694,0,0,0,
,0.414,-0.559,0.718,-165.955,1999.694,1999.694,0,0,0,
,0.689,-0.999,1.24,27.954,1999.694,1748.169,0,0,0,
,0.861,-1.581,1.551,-96.497,1999.694,1326.843,0,0,0,
,0.717,-1.572,1.646,-454.529,1944.03,988.83,0,0,0,
,0.314,-1.013,1.817,-654.175,1379.882,711.975,0,0,0,
,0.12,-0.63,2.002,-367.188,1197.754,512.939,0,0,0,
,0.184,-0.611,1.921,106.567,1095.398,362.854,0,0,0,
,0.157,-0.717,1.72,266.052,882.873,234.619,0,0,0,
,0.004,-0.747,1.45,59.875,611.877,165.039,0,0,0,
,-0.092,-0.56,1.339,-148.133,430.175,175.171,0,0,0,
,-0.088,-0.399,1.335,-177.796,369.812,219.543,0,0,0,
,0.152,-0.861,1.465,-109.314,388.855,265.38,0,0,0,
,0.559,-0.877,1.62,-615.235,38.147,149.78,0,0,0,
,0.219,-0.323,1.72,-243.714,-284.424,-92.164,0,0,0,
,-0.106,-0.342,1.244,4.211,-212.159,-44.617,0,0,0,
,-0.147,-0.288,0.86,58.837,-122.498,3.845,0,0,0,
,-0.145,-0.393,0.768,64.025,-54.505,0.976,0,0,0,
,-0.066,-0.462,0.767,-57.923,-26.368,10.376,0,0,0,
,-0.028,-0.409,0.886,-147.583,-40.65,-0.794,0,0,0,
,-0.017,-0.361,1.011,-110.962,-40.589,0.122,0,0,0,
,0.014,-0.287,1.08,0.061,-54.932,-30.03,0,0,0,
,-0.043,-0.252,1.034,166.687,-105.591,-42.115,0,0,0,
,-0.063,-0.5,0.889,168.213,-24.72,-36.56,0,0,0,
,-0.054,-0.489,0.901,31.738,-22.461,-19.593,0,0,0,
,-0.075,-0.425,0.925,-17.823,-29.297,-17.09,0,0,0,
,-0.098,-0.405,0.956,-12.207,-7.325,-13.855,0,0,0,
,-0.082,-0.388,0.96,14.77,13.061,-15.32,0,0,0,
,-0.076,-0.377,0.945,6.958,19.47,-19.654,0,0,0,
,-0.068,-0.403,0.966,16.113,34.912,-28.321,0,0,0,
,-0.071,-0.431,0.957,-14.71,33.508,-29.114,0,0,0,
,-0.09,-0.424,0.959,-16.358,46.997,-26.123,0,0,0,
,-0.084,-0.406,0.935,-36.988,53.039,-28.626,0,0,0,
,-0.082,-0.374,0.938,-49.256,70.129,-27.832,0,0,0,
,-0.047,-0.372,0.925,-23.377,68.908,-28.382,0,0,0,
,-0.03,-0.35,0.899,1.648,67.688,-30.152,0,0,0,
,-0.027,-0.367,0.878,28.198,56.884,-35.096,0,0,0,
,-0.035,-0.381,0.86,23.437,36.621,-42.603,0,0,0,
,-0.049,-0.406,0.864,23.193,11.657,-54.261,0,0,0,
,-0.062,-0.375,0.889,25.634,4.638,-54.688,0,0,0,
,-0.038,-0.428,0.931,-2.564,12.085,-50.965,0,0,0,
,-0.082,-0.452,0.991,-33.997,15.38,-49.744,0,0,0,
,-0.075,-0.401,1.039,6.53,45.593,-34.729,0,0,0,
,-0.086,-0.395,1.022,107.116,63.049,-36.316,0,0,0,
,-0.092,-0.403,1.046,188.171,72.753,-25.147,0,0,0,
,-0.086,-0.428,1.083,258.484,88.44,-19.593,0,0,0,
,-0.124,-0.438,1.127,320.251,96.679,-12.207,0,0,0,
,-0.158,-0.488,1.22,390.686,158.63,-16.846,0,0,0,
,-0.138,-0.473,1.162,509.765,158.447,-26.673,0,0,0,
,-0.113,-0.435,1.014,622.375,41.32,-55.726,0,0,0,
,-0.163,-0.455,0.842,704.101,-96.497,-109.62,0,0,0,
,-0.339,-0.386,0.702,727.356,-201.6,-178.956,0,0,0,
,-0.41,-0.474,0.642,876.526,-138.489,-206.91,0,0,0,
,-0.393,-0.53,0.626,1011.352,-104.248,-224.549,0,0,0,
,-0.338,-0.625,0.547,1158.996,0.732,-239.38,0,0,0,
,-0.257,-0.727,0.498,1132.995,64.086,-188.538,0,0,0,
,-0.246,-0.833,0.489,910.034,97.473,-117.188,0,0,0,
,-0.191,-0.783,0.523,659.851,151.489,-33.204,0,0,0,
,-0.124,-0.689,0.571,492.248,209.472,21.057,0,0,0,
,-0.059,-0.629,0.624,472.107,257.934,45.41,0,0,0,
,0.028,-0.664,0.613,540.954,315.063,62.5,0,0,0,
,0.106,-0.663,0.587,630.249,322.937,46.936,0,0,0,
,0.136,-0.7,0.566,739.746,299.987,24.841,0,0,0,
,0.182,-0.795,0.565,719.909,278.015,23.071,0,0,0,
,0.234,-0.922,0.611,491.088,262.695,11.23,0,0,0,
,0.289,-0.975,0.641,169.555,225.952,14.77,0,0,0,
,0.295,-1.003,0.602,-185.181,155.334,0.976,0,0,0,
,0.257,-0.791,0.611,-323.609,73.303,-35.767,0,0,0,
,0.212,-0.828,0.611,-275.513,41.015,-65.003,0,0,0,
,0.19,-0.69,0.734,-177.613,-88.196,-36.866,0,0,0,
,0.12,-0.634,0.713,10.62,-155.945,-19.227,0,0,0,
,0.097,-0.651,0.873,260.192,-40.284,-65.064,0,0,0,
,0.166,-1.178,0.434,141.784,129.455,-241.089,0,0,0,
,0.198,-0.92,0.574,-163.514,-23.621,-135.865,0,0,0,
,0.026,-0.73,0.532,-125.489,-23.56,-168.885,0,0,0,
,0.057,-0.686,0.593,-43.824,-63.416,-173.584,0,0,0,
,0.035,-0.742,0.706,133.606,-127.686,-233.155,0,0,0,
,-0.002,-0.787,0.671,245.361,-182.557,-281.434,0,0,0,
,0.03,-0.93,0.707,333.923,-239.685,-300.965,0,0,0,
,-0.027,-1.196,0.695,261.657,-261.658,-304.261,0,0,0,
,-0.068,-1.008,0.635,81.481,-337.952,-294.312,0,0,0,
,-0.202,-0.819,0.569,197.143,-367.92,-313.782,0,0,0,
,-0.188,-0.903,0.545,503.112,-375,-363.526,0,0,0,
,-0.242,-0.941,0.524,782.898,-405.274,-427.491,0,0,0,
,-0.294,-1.046,0.514,1066.162,-398.438,-507.203,0,0,0,
,-0.343,-1.136,0.502,1251.037,-386.414,-546.387,0,0,0,
,-0.367,-1.169,0.424,1300.354,-386.109,-560.486,0,0,0,
,-0.472,-1.014,0.177,1159.423,-293.274,-536.988,0,0,0,
,-0.494,-0.941,0.145,1248.535,-210.45,-522.889,0,0,0,
,-0.467,-0.935,0.089,1305.481,-136.963,-487.732,0,0,0,
,-0.461,-0.941,-0.003,1314.88,-67.627,-452.515,0,0,0,
,-0.465,-1.037,-0.07,1189.453,12.573,-395.203,0,0,0,
,-0.428,-1.12,0.001,788.574,50.659,-344.544,0,0,0,
,-0.43,-1.032,0.003,390.197,79.895,-275.818,0,0,0,
,-0.374,-1.022,-0.088,144.409,79.162,-190.735,0,0,0,
,-0.377,-1.014,-0.089,-213.196,96.191,-138.367,0,0,0,
,-0.368,-0.797,-0.007,-546.265,98.205,-139.588,0,0,0,
,-0.379,-0.694,0.027,-691.224,121.093,-157.044,0,0,0,
,-0.394,-0.568,0.071,-640.442,126.281,-189.026,0,0,0,
,-0.381,-0.605,0.046,-244.629,158.874,-223.145,0,0,0,
,-0.363,-0.715,-0.007,225.097,175.903,-192.322,0,0,0,
,-0.362,-0.736,-0.079,722.473,195.556,-150.208,0,0,0,
,-0.365,-0.766,-0.12,1143.371,206.298,-126.038,0,0,0,
,-0.397,-0.841,-0.121,1350.341,226.562,-100.403,0,0,0,
,-0.387,-0.911,-0.113,1296.386,254.394,-64.209,0,0,0,
,-0.409,-0.952,-0.111,290.1,284.301,0.854,0,0,0,
,-0.459,-1.069,-0.127,82.336,311.828,-29.786,0,0,0,
,-0.474,-1.123,-0.164,-166.138,316.284,-65.613,0,0,0,
,-0.494,-1.228,-0.138,-495.179,306.457,-123.597,0,0,0,
,-0.503,-1.222,-0.048,-914.368,263.977,-194.153,0,0,0,
,-0.493,-1.208,0.013,-1370.362,205.505,-286.683,0,0,0,
,-0.472,-1.187,0.035,-1727.723,148.559,-387.391,0,0,0,
,-0.493,-0.939,0.071,-1637.94,121.948,-489.197,0,0,0,
,-0.435,-0.921,0.081,-1202.515,155.09,-548.523,0,0,0,
,-0.39,-1.12,0.266,-1084.839,-62.5,-578.431,0,0,0,
,-0.283,-0.812,0.168,-604.31,-179.993,-594.544,0,0,0,
,-0.29,-0.811,0.118,-186.89,-293.946,-585.328,0,0,0,
,-0.196,-0.71,-0.032,-226.197,-453.248,-479.126,0,0,0,
,-0.307,-0.29,-0.15,-148.438,-569.336,-374.817,0,0,0,
,-0.648,-0.239,-0.105,-213.074,-492.432,-193.97,0,0,0,
,-0.869,-0.08,-0.104,-509.461,-258.484,2.319,0,0,0,
,-0.978,-0.272,0.036,-863.221,123.596,250.244,0,0,0,
,-0.46,-0.575,0.452,25.878,788.147,777.038,0,0,0,
,-0.056,-1.487,0.796,524.17,575.195,598.022,0,0,0,
,0.061,-1.919,0.838,678.527,164.856,205.383,0,0,0,
,-0.227,-1.893,0.918,541.687,-140.748,-195.13,0,0,0,
,-0.454,-1.319,0.683,493.225,-365.418,-508.789,0,0,0,
,-0.481,-0.999,0.276,628.723,-482.422,-620.24,0,0,0,
,-0.663,-0.431,-0.038,868.103,-472.657,-557.373,0,0,0,
,-0.866,-0.331,-0.187,1077.942,-281.556,-335.45,0,0,0,
,-0.977,-0.354,-0.067,683.593,7.873,-51.209,0,0,0,
,-0.98,-0.382,0.219,194.763,295.227,258.484,0,0,0,
,-0.905,-0.366,0.367,251.892,539.001,543.274,0,0,0,
,-0.097,-2.055,0.23,643.676,111.816,109.924,0,0,0,
,-0.304,-1.544,0.25,483.764,-48.34,-212.525,0,0,0,
,-0.354,-1.003,-0.03,656.25,-110.352,-439.331,0,0,0,
,-0.488,-0.532,-0.303,869.812,-67.078,-448.182,0,0,0,
,-0.723,-0.446,-0.395,817.199,70.129,-274.17,0,0,0,
,-0.747,-0.394,-0.122,-261.17,485.107,529.235,0,0,0,
,-0.428,-0.839,-0.133,-394.776,456.054,619.079,0,0,0,
,-0.204,-1.406,0.068,-453.858,306.091,516.052,0,0,0,
,-0.236,-1.493,0.246,-531.189,153.32,252.441,0,0,0,
,-0.314,-1.271,0.354,-297.913,43.945,-60.242,0,0,0,
,-0.345,-1.113,0.262,92.041,-38.88,-287.964,0,0,0,
,-0.365,-0.926,0.102,441.772,-116.517,-376.343,0,0,0,
,-0.555,-0.671,-0.023,707.092,-161.988,-320.496,0,0,0,
,-0.718,-0.416,-0.148,694.336,-149.537,-153.809,0,0,0,
,-0.763,-0.315,-0.178,350.952,-88.257,129.882,0,0,0,
,-0.725,-0.356,-0.101,-216.98,48.156,437.255,0,0,0,
,0.046,-1.243,-0.081,-243.836,292.907,911.01,0,0,0,
,0.088,-1.613,0.163,-166.565,208.984,639.465,0,0,0,
,-0.048,-1.768,0.227,-63.782,130.615,220.825,0,0,0,
,-0.184,-1.63,0.167,-73.914,43.457,-164.185,0,0,0,
,-0.306,-1.286,0.238,4.333,-24.414,-448.365,0,0,0,
,-0.37,-1.194,0.204,247.375,-101.136,-616.517,0,0,0,
,-0.428,-1.159,0.058,354.309,-182.557,-693.726,0,0,0,
,-0.511,-0.875,0.023,197.204,-227.662,-685.608,0,0,0,
,-0.558,-0.677,-0.012,64.148,-224.06,-607.422,0,0,0,
,-0.694,-0.492,-0.05,-287.842,-26.429,-232.605,0,0,0,
,-0.6,-0.585,0.074,-482.544,432.8,547.424,0,0,0,
,-0.529,-0.779,0.072,-157.654,551.696,752.441,0,0,0,
,-0.443,-1.125,0.065,136.901,594.36,886.718,0,0,0,
,-0.249,-1.263,-0.128,258.056,526.916,908.63,0,0,0,
,0.025,-1.455,-0.178,-26.246,333.984,712.463,0,0,0,
,0.032,-1.492,0.058,-471.07,181.701,318.237,0,0,0,
,-0.104,-1.313,0.315,-581.971,78.552,-136.231,0,0,0,
,-0.217,-1.212,0.469,-331.788,-19.654,-497.62,0,0,0,
,-0.264,-0.965,0.436,-38.453,-128.357,-710.877,0,0,0,
,-0.329,-0.559,0.251,305.969,-228.882,-811.768,0,0,0,
,-0.433,-0.311,-0.095,699.096,-295.838,-783.081,0,0,0,
,-0.652,-0.281,-0.366,916.626,-236.695,-582.032,0,0,0,
,-0.684,-0.552,-0.257,823.303,-105.347,-165.955,0,0,0,
,-0.593,-0.857,0.017,308.654,10.498,222.351,0,0,0,
,-0.545,-0.678,0.157,-146.302,203.796,550.72,0,0,0,
,-0.433,-0.701,0.105,-386.231,377.014,772.583,0,0,0,
,-0.117,-0.875,-0.189,-492.493,416.32,790.344,0,0,0,
,0.063,-1.271,-0.115,-780.701,315.246,620.666,0,0,0,
,0.06,-1.486,0.235,-1046.387,169.372,285.827,0,0,0,
,-0.111,-1.44,0.615,-947.815,0.122,-84.778,0,0,0,
,-0.211,-1.279,0.759,-481.019,-127.076,-361.329,0,0,0,
,-0.241,-1.055,0.62,67.443,-254.822,-548.401,0,0,0,
,-0.367,-0.627,0.178,412.597,-334.107,-617.798,0,0,0,
,-0.553,-0.739,0.05,821.838,-347.474,-538.697,0,0,0,
,-0.668,-0.824,0.036,804.138,-260.132,-325.867,0,0,0,
,-0.682,-0.888,0.157,476.928,-111.39,-86.365,0,0,0,
,-0.665,-0.919,0.349,139.587,101.806,169.983,0,0,0,
,-0.61,-0.986,0.379,3.845,312.255,401.184,0,0,0,
,-0.366,-0.779,-0.18,87.158,375.488,467.285,0,0,0,
,-0.185,-1.459,0.343,-1008.179,-61.829,-211.976,0,0,0,
,-0.24,-1.126,0.548,-712.159,-243.531,-462.281,0,0,0,
,-0.291,-0.772,0.296,-170.105,-397.522,-617.249,0,0,0,
,-0.433,-0.578,0.06,298.278,-436.402,-613.343,0,0,0,
,-0.608,-0.594,-0.007,601.44,-360.84,-448.121,0,0,0,
,-0.706,-0.723,-0.017,581.298,-192.261,-218.934,0,0,0,
,-0.708,-0.741,0.057,343.383,26.794,35.034,0,0,0,
,-0.678,-0.752,0.137,-37.171,232.544,270.935,0,0,0,
,-0.55,-0.597,-0.047,-316.834,330.932,431.518,0,0,0,
,-0.281,-0.58,-0.139,-486.817,311.584,393.31,0,0,0,
,-0.036,-1.3,0.059,-607.361,165.039,176.635,0,0,0,
,-0.095,-1.269,0.409,-659.424,-22.583,-21.973,0,0,0,
,-0.189,-1.112,0.57,-157.898,-191.04,-182.251,0,0,0,
,-0.248,-1.011,0.475,300.842,-325.501,-340.088,0,0,0,
,-0.317,-0.865,0.157,656.555,-414.307,-426.941,0,0,0,
,-0.504,-0.752,-0.001,903.564,-381.653,-373.658,0,0,0,
,-0.721,-0.788,-0.059,771.911,-236.878,-219.727,0,0,0,
,-0.717,-0.768,-0.06,431.457,-35.645,-7.203,0,0,0,
,-0.658,-0.896,0.12,-485.596,355.407,374.878,0,0,0,
,-0.398,-0.687,-0.02,-672.73,398.193,440.063,0,0,0,
,-0.125,-0.96,0.043,-540.65,326.843,346.496,0,0,0,
,-0.099,-1.276,0.331,-305.97,172.851,135.925,0,0,0,
,-0.24,-1.267,0.503,12.817,16.601,-68.909,0,0,0,
,-0.305,-1.248,0.474,285.217,-117.005,-290.162,0,0,0,
,-0.396,-1.058,0.205,643.31,-294.19,-471.192,0,0,0,
,-0.509,-0.882,0.033,597.29,-291.993,-421.509,0,0,0,
,-0.629,-0.72,-0.006,348.877,-213.929,-316.346,0,0,0,
,-0.647,-0.656,-0.035,42.236,-64.576,-131.653,0,0,0,
,-0.62,-0.641,-0.001,-418.946,126.281,96.435,0,0,0,
,-0.584,-0.613,0.076,-765.015,341.43,348.938,0,0,0,
,-0.224,-0.621,-0.014,-333.741,551.818,643.188,0,0,0,
,-0.048,-1.092,0.128,-141.236,442.993,525.146,0,0,0,
,-0.06,-1.468,0.37,-83.68,296.203,266.906,0,0,0,
,-0.351,-1.254,0.406,512.39,-230.957,-544.19,0,0,0,
,-0.383,-1.191,0.217,698.791,-362.732,-620.85,0,0,0,
,-0.485,-0.949,0.043,561.645,-436.829,-628.174,0,0,0,
,-0.625,-0.669,-0.041,310.302,-387.085,-523.255,0,0,0,
,-0.756,-0.435,0.026,-888.611,254.638,288.208,0,0,0,
,-0.647,-0.319,0.012,-800.232,462.097,570.739,0,0,0,
,-0.363,-0.443,0.017,-442.261,528.32,723.205,0,0,0,
,-0.057,-0.94,0.057,-81.543,410.034,669.433,0,0,0,
,0.019,-1.337,0.299,146.484,201.66,430.236,0,0,0,
,-0.228,-1.287,0.284,600.036,-272.4,-437.745,0,0,0,
,-0.353,-1.12,0.072,528.381,-340.882,-539.429,0,0,0,
,-0.543,-0.911,-0.049,312.988,-334.9,-497.01,0,0,0,
,-0.684,-0.734,-0.074,37.841,-213.807,-314.026,0,0,0,
,-0.726,-0.612,-0.015,-302.674,-30.396,-61.524,0,0,0,
,-0.696,-0.592,0.061,-674.866,174.316,194.275,0,0,0,
,-0.528,-0.478,0.191,-689.576,356.445,394.104,0,0,0,
,-0.311,-0.605,0.222,-252.381,391.967,463.195,0,0,0,
,-0.089,-1.099,0.252,255.798,327.636,403.076,0,0,0,
,-0.065,-1.438,0.306,452.514,180.236,197.265,0,0,0,
,-0.137,-1.527,0.338,375.915,35.278,-81.055,0,0,0,
,-0.227,-1.377,0.328,364.685,-74.158,-343.689,0,0,0,
,-0.319,-1.224,0.249,335.571,-160.523,-497.376,0,0,0,
,-0.482,-0.973,0.142,165.344,-214.539,-479.004,0,0,0,
,-0.618,-0.697,0.036,-73.792,-203.858,-372.559,0,0,0,
,-0.69,-0.565,0.074,-421.753,-105.652,-154.053,0,0,0,
,-0.678,-0.495,0.126,-733.399,44.555,82.702,0,0,0,
,-0.572,-0.51,0.176,-732.178,228.698,339.05,0,0,0,
,-0.349,-0.597,0.141,-457.215,328.43,495.422,0,0,0,
,-0.129,-0.996,0.088,-243.348,316.406,484.253,0,0,0,
,0.03,-1.47,0.209,-184.693,216.491,293.335,0,0,0,
,-0.082,-1.573,0.36,-218.14,106.689,27.832,0,0,0,
,-0.186,-1.402,0.429,-189.759,-3.479,-252.442,0,0,0,
,-0.279,-1.237,0.404,-15.748,-118.164,-459.29,0,0,0,
,-0.37,-1.031,0.28,167.663,-213.318,-551.575,0,0,0,
,-0.526,-0.783,0.226,173.767,-248.78,-530.64,0,0,0,
,-0.66,-0.577,0.141,150.879,-209.961,-417.908,0,0,0,
,-0.758,-0.451,0.133,-20.752,-91.675,-211.121,0,0,0,
,-0.771,-0.379,0.174,-281.189,79.345,49.133,0,0,0,
,-0.688,-0.48,0.236,-611.023,266.174,338.379,0,0,0,
,-0.458,-0.641,0.107,-639.344,418.213,571.106,0,0,0,
,-0.194,-1.075,0.077,-497.254,497.009,706.482,0,0,0,
,0.047,-1.266,0.111,-598.206,428.466,604.919,0,0,0,
,0.112,-1.376,0.32,-804.505,312.622,269.409,0,0,0,
,-0.014,-1.352,0.67,-874.207,169.494,-156.922,0,0,0,
,-0.206,-1.133,0.862,-645.752,-15.259,-474.732,0,0,0,
,-0.265,-0.808,0.782,-88.135,-240.052,-664.673,0,0,0,
,-0.318,-0.902,0.67,506.164,-483.826,-722.962,0,0,0,
,-0.66,-0.427,0.066,1192.749,-694.947,-403.321,0,0,0,
,-0.757,-0.421,0.159,847.717,-531.739,-185.975,0,0,0,
,-0.794,-0.476,0.248,228.515,-319.336,47.302,0,0,0,
,-0.735,-0.608,0.276,-326.477,-58.167,315.185,0,0,0,
,-0.658,-0.514,0.168,-415.589,217.041,592.041,0,0,0,
,0.146,-1.5,0.058,106.506,75.805,467.346,0,0,0,
,-0.028,-1.666,0.416,-154.297,-74.585,-83.313,0,0,0,
,-0.25,-1.531,0.614,-140.137,-236.023,-511.17,0,0,0,
,-0.381,-1.197,0.535,160.339,-383.851,-772.217,0,0,0,
,-0.425,-1.037,0.292,556.03,-526.795,-864.991,0,0,0,
,-0.504,-0.845,0.027,749.572,-626.038,-850.525,0,0,0,
,-0.718,-0.579,-0.057,636.108,-605.957,-706.971,0,0,0,
,-0.838,-0.493,-0.024,390.564,-473.816,-520.935,0,0,0,
,-0.845,-0.464,0.015,113.281,-276.978,-258.362,0,0,0,
,-0.886,-0.441,0.014,-421.387,-3.479,55.175,0,0,0,
,-0.801,-0.414,0.053,-782.776,294.677,378.357,0,0,0,
,-0.721,-0.309,0.04,-615.418,552.49,668.823,0,0,0,
,-0.405,-0.548,-0.048,-141.297,682.922,869.995,0,0,0,
,-0.005,-1.028,-0.042,216.064,593.261,868.347,0,0,0,
,0.198,-1.489,0.13,81.726,371.093,596.252,0,0,0,
,0.036,-1.705,0.492,-211.853,168.823,75.256,0,0,0,
,-0.205,-1.627,0.764,-289.063,-47.303,-372.437,0,0,0,
,-0.343,-1.203,0.636,-115.113,-257.691,-659.668,0,0,0,
,-0.441,-1.031,0.397,178.711,-437.5,-786.622,0,0,0,
,-0.511,-0.758,0.293,381.897,-570.435,-759.4,0,0,0,
,-0.658,-0.588,0.245,514.648,-667.42,-671.448,0,0,0,
,-0.786,-0.458,0.054,560.73,-665.772,-491.822,0,0,0,
,-0.882,-0.441,0.039,431.762,-529.969,-260.132,0,0,0,
,-0.888,-0.501,0.101,19.958,-302.063,41.32,0,0,0,
,-0.761,-0.691,0.125,-257.926,4646.687,7712.636,0,0,0,
,-0.344,-0.795,-0.279,-93.262,646.301,741.516,0,0,0,
,-0.123,-0.99,-0.312,41.626,716.552,716.308,0,0,0,
,-0.043,-1.359,-0.03,-134.278,636.84,411.438,0,0,0,
,-0.208,-1.477,0.407,-297.486,429.87,2.99,0,0,0,
,-0.337,-1.324,0.616,-192.322,148.559,-335.877,0,0,0,
,-0.42,-1.139,0.556,-9.095,-149.72,-530.152,0,0,0,
,-0.492,-0.863,0.338,120.788,-415.162,-589.417,0,0,0,
,-0.64,-0.627,0.123,199.585,-551.27,-513.977,0,0,0,
,-0.757,-0.439,0.03,220.947,-557.923,-347.413,0,0,0,
,-0.84,-0.55,0.073,-46.57,-403.016,-173.951,0,0,0,
,-0.791,-0.601,0.038,-416.138,-101.014,64.392,0,0,0,
,-0.693,-0.723,-0.071,-630.921,314.819,315.063,0,0,0,
,-0.593,-0.506,-0.309,-554.749,727.05,554.565,0,0,0,
,-0.436,-0.488,-0.357,-151.062,997.314,771.972,0,0,0,
,-0.204,-0.923,-0.178,28.747,1064.514,838.745,0,0,0,
,-0.052,-1.214,0.157,-88.623,928.588,699.707,0,0,0,
,-0.042,-1.377,0.485,-233.094,671.508,383.3,0,0,0,
,-0.108,-1.482,0.789,-294.739,351.318,-17.273,0,0,0,
,-0.235,-1.318,0.92,-246.827,-9.034,-308.045,0,0,0,
,-0.329,-1.113,0.798,-13.55,-354.676,-485.84,0,0,0,
,-0.412,-0.844,0.641,334.472,-640.076,-593.018,0,0,0,
,-0.502,-0.823,0.503,598.083,-855.042,-619.629,0,0,0,
,-0.542,-0.622,0.29,824.401,-949.341,-560.975,0,0,0,
,-0.621,-0.685,0.073,742.981,-854.554,-458.191,0,0,0,
,-0.693,-0.778,-0.022,243.225,-583.497,-310.547,0,0,0,
,-0.702,-0.761,-0.128,-231.202,-211.426,-107.117,0,0,0,
,-0.515,-0.664,-0.238,-401.307,571.289,392.883,0,0,0,
,-0.313,-0.733,-0.194,-168.274,730.529,512.39,0,0,0,
,-0.138,-1.084,0.039,-148.438,676.88,435.974,0,0,0,
,-0.224,-1.318,0.591,-391.846,247.497,-157.898,0,0,0,
,-0.315,-1.217,0.699,-290.467,-35.584,-407.044,0,0,0,
,-0.385,-0.965,0.57,-58.655,-291.199,-511.963,0,0,0,
,-0.496,-0.67,0.296,188.415,-458.68,-491.7,0,0,0,
,-0.677,-0.387,0.165,332.885,-468.995,-348.084,0,0,0,
,-0.804,-0.441,0.144,287.231,-324.341,-160.035,0,0,0,
,-0.88,-0.432,0.114,-34.607,-68.36,109.314,0,0,0,
,-0.747,-0.395,0.026,-237.305,273.071,459.716,0,0,0,
,-0.634,-0.285,-0.071,-116.578,545.654,740.661,0,0,0,
,-0.271,-0.484,-0.324,199.707,656.433,916.931,0,0,0,
,0.23,-1.282,-0.305,247.741,554.626,840.149,0,0,0,
,0.243,-1.839,0.045,-69.458,357.055,474.609,0,0,0,
,-0.053,-1.912,0.51,-226.929,164.978,30.151,0,0,0,
,-0.261,-1.489,0.683,-186.707,-1.16,-336.243,0,0,0,
,-0.378,-1.222,0.606,126.77,-149.414,-611.451,0,0,0,
,-0.46,-1.083,0.525,323.669,-294.8,-722.535,0,0,0,
,-0.603,-0.8,0.494,305.42,-423.829,-712.708,0,0,0,
,-0.814,-0.385,0.309,143.493,-442.261,-345.398,0,0,0,
,-0.868,-0.315,0.331,-170.655,-287.476,-61.219,0,0,0,
,-0.779,-0.503,0.378,-484.253,-58.838,262.817,0,0,0,
,-0.649,-0.369,0.221,-374.878,207.336,590.82,0,0,0,
,0.106,-1.174,-0.274,253.234,425.109,755.127,0,0,0,
,0.226,-1.763,0.094,-95.52,382.995,434.387,0,0,0,
,0.001,-1.79,0.379,-285.706,279.968,0.671,0,0,0,
,-0.185,-1.504,0.459,-287.659,141.235,-348.694,0,0,0,
,-0.299,-1.181,0.462,-103.089,-17.09,-597.779,0,0,0,
,-0.377,-1.065,0.387,247.802,-164.612,-743.714,0,0,0,
,-0.491,-0.901,0.355,296.63,-259.705,-767.579,0,0,0,
,-0.642,-0.632,0.312,180.908,-296.509,-679.139,0,0,0,
,-0.786,-0.396,0.282,130.676,-264.344,-504.822,0,0,0,
,-0.832,-0.285,0.263,148.925,-178.772,-228.516,0,0,0,
,-0.823,-0.336,0.307,-28.138,-59.937,99.67,0,0,0,
,-0.721,-0.497,0.163,-200.501,82.824,390.808,0,0,0,
,-0.475,-0.619,-0.099,-208.069,225.341,572.082,0,0,0,
,-0.217,-1.025,-0.268,-224.854,313.781,568.237,0,0,0,
,0.055,-1.576,-0.074,-369.812,326.782,339.294,0,0,0,
,-0.114,-1.733,0.319,-400.574,292.053,-58.716,0,0,0,
,-0.294,-1.511,0.535,-307.618,212.402,-402.588,0,0,0,
,-0.409,-1.19,0.514,1.342,76.843,-645.508,0,0,0,
,-0.484,-1.058,0.418,378.051,-78.125,-757.264,0,0,0,
,-0.594,-0.741,0.392,398.01,-235.169,-756.165,0,0,0,
,-0.71,-0.428,0.376,332.458,-303.894,-666.687,0,0,0,
,-0.738,-0.213,0.319,338.44,-309.205,-457.459,0,0,0,
,-0.79,-0.157,0.262,200.073,-235.352,-182.19,0,0,0,
,-0.671,-0.386,0.258,-701.6,89.904,484.008,0,0,0,
,-0.599,-0.243,0.105,-772.217,284.24,767.395,0,0,0,
,-0.376,-0.42,-0.04,-478.089,489.563,962.768,0,0,0,
,-0.048,-0.985,-0.131,-264.832,551.88,944.213,0,0,0,
,0.247,-1.615,0.144,-269.654,490.417,679.931,0,0,0,
,0.117,-1.779,0.488,-381.836,330.993,218.078,0,0,0,
,-0.078,-1.706,0.657,-363.282,161.377,-206.971,0,0,0,
,-0.238,-1.429,0.673,-186.341,-34.241,-512.574,0,0,0,
,-0.358,-1.212,0.515,104.98,-233.033,-700.196,0,0,0,
,-0.502,-1.106,0.474,220.337,-380.921,-803.04,0,0,0,
,-0.614,-0.711,0.543,69.641,-464.112,-785.767,0,0,0,
,-0.709,-0.363,0.519,-23.926,-497.864,-667.908,0,0,0,
,-0.808,-0.17,0.434,33.508,-443.299,-439.637,0,0,0,
,-0.866,-0.046,0.377,-28.626,-335.694,-123.719,0,0,0,
,-0.858,-0.23,0.387,-304.993,-178.833,205.81,0,0,0,
,-0.732,-0.367,0.395,-341.431,9.46,521.911,0,0,0,
,-0.604,-0.368,0.171,-188.538,180.969,725.219,0,0,0,
,-0.277,-0.869,-0.059,-58.96,262.756,739.746,0,0,0,
,0.103,-1.59,0.054,12.573,248.962,508.606,0,0,0,
,-0.005,-1.858,0.437,-155.091,126.22,81.787,0,0,0,
,-0.405,-1.315,0.592,41.748,-46.875,-604.554,0,0,0,
,-0.504,-1.022,0.443,225.647,-168.091,-742.432,0,0,0,
,-0.659,-0.671,0.36,170.593,-269.654,-730.53,0,0,0,
,-0.796,-0.293,0.326,109.375,-311.158,-584.229,0,0,0,
,-0.943,-0.098,0.296,116.027,-272.034,-339.722,0,0,0,
,-0.95,-0.155,0.316,-206.116,-162.354,-39.124,0,0,0,
,-0.856,-0.371,0.343,-662.049,-7.813,271.545,0,0,0,
,-0.657,-0.48,0.227,-774.537,217.59,520.63,0,0,0,
,-0.313,-0.487,-0.069,-694.031,364.746,592.468,0,0,0,
,0.191,-1.421,0.127,-536.744,427.49,335.693,0,0,0,
,0.107,-1.779,0.655,-450.074,323.791,-85.816,0,0,0,
,-0.276,-1.502,0.883,-258.301,193.603,-410.462,0,0,0,
,-0.477,-1.158,0.753,39.733,33.508,-611.756,0,0,0,
,-0.599,-0.807,0.532,243.469,-141.907,-662.476,0,0,0,
,-0.805,-0.309,0.511,251.587,-302.369,-586.182,0,0,0,
,-0.946,0.02,0.538,348.877,-355.042,-385.132,0,0,0,
,-1.011,0.192,0.553,414.917,-321.289,-103.272,0,0,0,
,-1.015,0.081,0.64,389.221,-212.22,213.195,0,0,0,
,-0.896,-0.102,0.663,439.941,-64.087,568.847,0,0,0,
,-0.7,-0.468,0.542,450.988,113.403,885.192,0,0,0,
,-0.388,-0.363,0.003,503.357,215.271,1008.85,0,0,0,
,-0.005,-1.098,-0.219,526.184,282.653,863.891,0,0,0,
,0.232,-1.831,0.092,294.006,245.788,459.228,0,0,0,
,-0.157,-1.736,0.485,215.576,211.67,110.29,0,0,0,
,-0.29,-1.546,0.568,431.213,191.528,-172.974,0,0,0,
,-0.368,-1.366,0.407,632.873,131.469,-425.904,0,0,0,
,-0.429,-1.241,0.266,753.54,23.62,-618.103,0,0,0,
,-0.486,-1.171,0.252,755.127,-88.379,-731.934,0,0,0,
,-0.57,-0.901,0.314,582.702,-164.063,-745.606,0,0,0,
,-0.642,-0.546,0.316,389.77,-220.459,-677.735,0,0,0,
,-0.677,-0.274,0.244,331.604,-220.887,-506.531,0,0,0,
,-0.707,-0.137,0.088,341.064,-169.373,-235.718,0,0,0,
,-0.725,-0.263,0.102,-36.316,-49.317,69.03,0,0,0,
,-0.734,-0.372,0.17,-639.71,116.577,396.24,0,0,0,
,-0.683,-0.393,0.148,-905.945,332.519,717.651,0,0,0,
,-0.612,-0.324,0.091,-820.435,558.471,936.523,0,0,0,
,-0.308,-0.516,-0.016,-545.166,628.173,989.013,0,0,0,
,0.034,-1.309,0.15,-300.477,576.538,792.48,0,0,0,
,0.165,-1.82,0.527,-168.213,363.708,417.907,0,0,0,
,-0.104,-1.826,0.75,21.606,108.642,-28.321,0,0,0,
,-0.223,-1.602,0.776,202.087,-110.535,-414.307,0,0,0,
,-0.376,-1.303,0.514,434.448,-318.787,-679.81,0,0,0,
,-0.504,-1.043,0.393,593.689,-465.21,-816.04,0,0,0,
,-0.672,-0.645,0.374,607.727,-528.504,-795.472,0,0,0,
,-0.828,-0.332,0.148,660.461,-507.325,-652.527,0,0,0,
,-0.802,-0.481,0.237,-206.36,23.376,244.506,0,0,0,
,-0.676,-0.544,0.245,-636.109,240.539,559.753,0,0,0,
,-0.575,-0.368,0.112,-675.721,456.237,809.448,0,0,0,
,-0.43,-0.501,0.147,-382.081,607.055,981.933,0,0,0,
,-0.179,-0.789,0.037,-9.461,562.5,986.938,0,0,0,
,-0.045,-1.647,0.634,139.831,-13.55,-137.574,0,0,0,
,-0.186,-1.42,0.621,306.335,-219.727,-453.309,0,0,0,
,-0.261,-1.139,0.378,475.219,-385.01,-700.257,0,0,0,
,-0.369,-0.922,0.212,682.983,-496.338,-817.139,0,0,0,
,-0.539,-0.672,0.005,724.182,-534.79,-774.842,0,0,0,
,-0.703,-0.424,-0.153,708.252,-470.337,-566.04,0,0,0,
,-0.892,-0.423,-0.173,598.449,-252.625,-257.081,0,0,0,
,-0.861,-0.515,0.004,268.982,39.489,132.019,0,0,0,
,-0.805,-0.514,0.117,-291.932,345.276,494.934,0,0,0,
,-0.623,-0.37,-0.058,-675.843,618.835,738.342,0,0,0,
,-0.281,-0.608,-0.126,-779.908,734.008,822.387,0,0,0,
,-0.049,-1.204,0.165,-803.284,688.171,710.449,0,0,0,
,-0.144,-1.41,0.812,-88.318,-114.136,-176.88,0,0,0,
,-0.244,-1.283,0.733,284.912,-372.62,-417.359,0,0,0,
,-0.333,-1.111,0.515,495.971,-562.195,-552.491,0,0,0,
,-0.424,-0.965,0.301,671.386,-706.055,-635.498,0,0,0,
,-0.543,-0.8,0.011,561.828,-706.482,-582.642,0,0,0,
,-0.766,-0.527,-0.101,-612.977,207.153,56.457,0,0,0,
,-0.659,-0.505,-0.176,-928.956,598.205,310.18,0,0,0,
,-0.535,-0.3,-0.138,-799.927,855.285,532.348,0,0,0,
,-0.232,-0.659,0.12,-486.451,911.255,615.722,0,0,0,
,-0.045,-1.117,0.526,-350.464,742.431,505.859,0,0,0,
,-0.032,-1.353,0.808,-228.455,444.763,267.7,0,0,0,
,-0.092,-1.336,0.919,-39.917,90.576,5.065,0,0,0,
,-0.126,-1.25,0.87,280.639,-256.104,-219.056,0,0,0,
,-0.222,-1.162,0.649,572.448,-543.641,-392.212,0,0,0,
,-0.373,-0.968,0.302,769.836,-697.022,-476.624,0,0,0,
,-0.525,-0.904,0.118,751.037,-705.933,-486.206,0,0,0,
,-0.652,-0.796,0.065,393.249,-532.105,-387.818,0,0,0,
,-0.663,-0.505,-0.143,-516.724,332.519,165.771,0,0,0,
,-0.563,-0.428,-0.009,-364.075,500.244,351.013,0,0,0,
,-0.354,-0.645,0.208,-159.546,505.005,413.025,0,0,0,
,-0.206,-1.019,0.411,-62.561,352.05,313.72,0,0,0,
,-0.139,-1.352,0.582,-40.406,89.233,95.642,0,0,0,
,-0.209,-1.313,0.672,72.387,-213.196,-133.667,0,0,0,
,-0.271,-1.177,0.588,403.259,-470.643,-301.209,0,0,0,
,-0.354,-1.076,0.361,748.657,-625.245,-398.682,0,0,0,
,-0.454,-0.961,0.088,855.102,-648.865,-423.401,0,0,0,
,-0.579,-0.807,-0.092,670.105,-504.029,-392.762,0,0,0,
,-0.655,-0.7,-0.192,341.43,-240.723,-276.734,0,0,0,
,-0.682,-0.659,-0.218,-10.01,79.223,-82.764,0,0,0,
,-0.683,-0.699,-0.095,-302.43,375.915,145.141,0,0,0,
,-0.652,-0.615,-0.025,-473.389,591.369,347.534,0,0,0,
,-0.562,-0.571,0.091,-456.177,684.875,483.52,0,0,0,
,-0.342,-0.656,0.181,-385.498,606.933,484.314,0,0,0,
,-0.153,-1.08,0.351,-427.369,392.334,325.927,0,0,0,
,-0.096,-1.262,0.568,-369.996,97.839,84.961,0,0,0,
,-0.214,-1.262,0.713,17.761,-205.506,-113.709,0,0,0,
,-0.273,-1.15,0.607,499.084,-457.032,-300.782,0,0,0,
,-0.32,-1.059,0.445,870.727,-594.849,-423.89,0,0,0,
,-0.386,-1.009,0.299,1141.174,-634.461,-501.099,0,0,0,
,-0.483,-0.875,0.049,1096.984,-589.356,-527.039,0,0,0,
,-0.584,-0.836,-0.124,702.392,-444.153,-476.441,0,0,0,
,-0.633,-0.799,-0.194,278.991,-255.188,-346.863,0,0,0,
,-0.697,-0.748,-0.178,-254.7,-22.278,-142.334,0,0,0,
,-0.702,-0.512,-0.051,-1090.821,448.791,395.019,0,0,0,
,-0.632,-0.398,0.04,-908.387,634.948,630.432,0,0,0,
,-0.494,-0.573,0.067,-624.634,737.304,787.719,0,0,0,
,-0.277,-0.733,0.138,-442.688,671.692,797.363,0,0,0,
,-0.013,-1.13,0.263,-400.391,516.662,594.238,0,0,0,
,0.032,-1.446,0.523,-373.841,279.235,202.453,0,0,0,
,-0.091,-1.525,0.711,-189.637,31.555,-168.946,0,0,0,
,-0.203,-1.441,0.693,115.966,-206.727,-461.121,0,0,0,
,-0.295,-1.223,0.456,369.812,-411.683,-657.471,0,0,0,
,-0.374,-1.046,0.293,638.305,-534.79,-778.748,0,0,0,
,-0.478,-0.914,0.221,756.347,-623.902,-833.619,0,0,0,
,-0.544,-0.686,0.065,718.628,-644.532,-796.265,0,0,0,
,-0.621,-0.581,-0.107,604.37,-571.351,-697.266,0,0,0,
,-0.728,-0.562,-0.158,366.088,-405.823,-480.957,0,0,0,
,-0.769,-0.588,0,18.31,-145.874,-195.435,0,0,0,
,-0.634,-0.533,0.003,-694.825,719.726,698.73,0,0,0,
,-0.504,-0.555,-0.126,-653.321,856.445,829.712,0,0,0,
,-0.207,-0.837,-0.041,-664.673,824.768,761.474,0,0,0,
,0.027,-1.301,0.303,-762.391,630.188,460.571,0,0,0,
,0.012,-1.413,0.624,-610.047,314.697,71.044,0,0,0,
,-0.167,-1.307,0.766,-212.342,-33.692,-256.592,0,0,0,
,-0.483,-0.735,0.182,859.497,-707.886,-679.017,0,0,0,
,-0.56,-0.778,0.025,947.937,-743.653,-655.152,0,0,0,
,-0.725,-0.724,-0.052,706.359,-632.264,-505.31,0,0,0,
,-0.793,-0.649,0.095,404.907,-404.053,-257.752,0,0,0,
,-0.755,-0.692,0.241,-31.311,-114.319,-2.808,0,0,0,
,-0.547,-0.511,-0.108,-767.273,735.839,690.857,0,0,0,
,-0.295,-0.806,-0.096,-721.985,791.87,668.823,0,0,0,
,-0.044,-1.227,0.192,-778.321,629.455,433.532,0,0,0,
,-0.041,-1.357,0.608,-701.6,313.11,115.539,0,0,0,
,-0.375,-1.049,0.52,612.671,-547.242,-544.373,0,0,0,
,-0.504,-0.969,0.342,793.457,-672.791,-644.837,0,0,0,
,-0.591,-0.855,0.235,789.734,-733.887,-668.274,0,0,0,
,-0.657,-0.694,0.139,659.362,-688.294,-605.53,0,0,0,
,-0.793,-0.638,0.09,444.641,-499.695,-463.196,0,0,0,
,-0.822,-0.686,0.172,122.497,-250.428,-231.202,0,0,0,
,-0.792,-0.745,0.211,-375.611,15.258,50.537,0,0,0,
,-0.737,-0.71,0.117,-815.369,307.556,347.229,0,0,0,
,-0.709,-0.489,-0.048,-929.017,569.091,616.76,0,0,0,
,-0.619,-0.398,-0.034,-858.887,758.178,791.87,0,0,0,
,0.062,-1.192,0.426,-456.299,555.359,442.138,0,0,0,
,0.044,-1.372,0.675,-199.891,233.52,96.069,0,0,0,
,-0.118,-1.291,0.763,98.083,-79.529,-189.82,0,0,0,
,-0.217,-1.194,0.652,414.367,-330.933,-417.359,0,0,0,
,-0.378,-1.011,0.424,618.347,-486.939,-567.933,0,0,0,
,-0.735,-0.462,0.096,585.571,-487.854,-435.181,0,0,0,
,-0.849,-0.553,0.081,430.236,-335.694,-213.074,0,0,0,
,-0.822,-0.716,0.239,-28.87,-125.061,137.207,0,0,0,
,-0.738,-0.748,0.367,-524.903,127.258,495.483,0,0,0,
,-0.653,-0.628,0.182,-742.615,390.93,735.107,0,0,0,
,-0.4,-0.697,0.016,-771.058,558.776,821.045,0,0,0,
,-0.064,-0.804,0.041,-703.003,570.8,729.431,0,0,0,
,0.161,-1.077,0.343,-613.953,520.507,446.228,0,0,0,
,0.028,-1.29,0.734,-212.342,333.862,-9.4,0,0,0,
,-0.173,-1.456,0.91,213.379,82.519,-263.611,0,0,0,
,-0.287,-1.238,0.76,327.453,-178.223,-448.67,0,0,0,
,-0.72,-0.711,0.175,490.844,-548.279,-544.739,0,0,0,
,-0.762,-0.675,0.204,431.823,-483.277,-344.727,0,0,0,
,-0.837,-0.615,0.341,150.085,-362,-127.442,0,0,0,
,-0.799,-0.64,0.457,-237.793,-167.725,133.606,0,0,0,
,-0.629,-0.875,0.409,-430.726,113.403,361.755,0,0,0,
,0.107,-1.344,0.201,-426.819,470.947,184.204,0,0,0,
,-0.058,-1.571,0.576,-555.237,346.984,-227.967,0,0,0,
,-0.202,-1.155,0.696,-429.505,112.304,-460.633,0,0,0,
,-0.279,-0.881,0.58,93.078,-150.391,-614.991,0,0,0,
,-0.398,-0.773,0.454,593.567,-372.681,-660.34,0,0,0,
,-0.54,-0.523,0.296,869.201,-548.706,-612.915,0,0,0,
,-0.699,-0.348,0.092,1057.373,-626.526,-529.236,0,0,0,
,-0.806,-0.365,0.045,955.261,-550.354,-372.986,0,0,0,
,-0.878,-0.439,0.189,529.541,-385.926,-118.348,0,0,0,
,-0.878,-0.502,0.266,-78.248,-161.133,147.827,0,0,0,
,-0.704,-0.577,0.221,-461.304,125.793,457.336,0,0,0,
,-0.181,-0.74,-0.147,-336.914,804.443,979.736,0,0,0,
,0.022,-1.115,0.113,-251.893,761.901,796.325,0,0,0,
,0.088,-1.53,0.454,-240.113,594.665,436.95,0,0,0,
,-0.012,-1.566,0.656,-142.762,308.288,56.457,0,0,0,
,-0.155,-1.5,0.769,167.724,-32.044,-295.716,0,0,0,
,-0.322,-1.341,0.657,408.752,-353.821,-560.486,0,0,0,
,-0.445,-1.134,0.443,568.908,-558.289,-713.135,0,0,0,
,-0.531,-0.98,0.429,799.011,-693.482,-805.298,0,0,0,
,-0.592,-0.875,0.369,942.749,-771.302,-828.98,0,0,0,
,-0.599,-0.606,0.228,968.139,-780.762,-778.199,0,0,0,
,-0.688,-0.645,0.017,823.974,-692.383,-684.937,0,0,0,
,-0.736,-0.615,0.024,-611.268,41.259,52.795,0,0,0,
,-0.673,-0.673,-0.045,-912.659,424.316,355.285,0,0,0,
,-0.61,-0.5,-0.149,-918.091,769.043,639.892,0,0,0,
,-0.544,-0.465,-0.117,-749.939,1030.151,830.139,0,0,0,
,0.005,-1.19,0.163,-639.405,882.202,731.628,0,0,0,
,0.184,-1.527,0.444,-1043.213,518.982,339.111,0,0,0,
,0.069,-1.371,0.806,-1016.358,55.419,-90.699,0,0,0,
,-0.159,-1.083,1.002,-496.46,-368.287,-385.56,0,0,0,
,-0.433,-0.623,0.6,400.268,-871.644,-598.999,0,0,0,
,-0.576,-0.774,0.364,682.678,-984.62,-663.147,0,0,0,
,-0.708,-0.582,0.076,820.922,-976.807,-546.692,0,0,0,
,-0.882,-0.64,-0.006,842.956,-816.285,-408.387,0,0,0,
,-0.935,-0.64,0.18,574.768,-511.353,-210.755,0,0,0,
,-0.913,-0.661,0.291,117.248,-103.089,-34.302,0,0,0,
,-0.844,-0.716,0.224,-323.731,325.988,208.679,0,0,0,
,-0.759,-0.453,0.022,-371.033,684.143,459.411,0,0,0,
,-0.655,-0.462,0.063,-227.112,936.645,669.983,0,0,0,
,-0.34,-0.525,0.146,-56.946,939.636,735.107,0,0,0,
,-0.022,-1.025,0.285,-90.271,732.971,575.439,0,0,0,
,0.147,-1.446,0.482,-375.916,388.061,191.101,0,0,0,
,-0.055,-1.41,0.696,-419.861,-26.978,-163.025,0,0,0,
,-0.189,-1.224,0.771,-115.906,-390.442,-385.56,0,0,0,
,-0.579,-0.738,0.055,894.592,-884.827,-604.554,0,0,0,
,-0.698,-0.648,-0.163,976.318,-809.327,-546.326,0,0,0,
,-0.814,-0.538,-0.175,866.088,-590.577,-403.992,0,0,0,
,-0.87,-0.676,-0.063,533.02,-260.437,-236.023,0,0,0,
,-0.823,-0.824,0.02,-5.555,120.544,14.282,0,0,0,
,-0.768,-0.592,-0.137,-1047.547,830.993,535.705,0,0,0,
,-0.668,-0.378,-0.089,-1086.426,1054.504,710.693,0,0,0,
,-0.384,-0.426,0.042,-931.275,1057.8,743.225,0,0,0,
,-0.124,-0.861,0.323,-744.202,871.032,594.787,0,0,0,
,0.024,-1.158,0.656,-535.767,549.804,320.861,0,0,0,
,-0.006,-1.298,0.919,-42.542,110.839,0.244,0,0,0,
,-0.159,-1.331,0.94,478.332,-283.02,-260.926,0,0,0,
,-0.304,-1.211,0.733,906.433,-584.107,-475.953,0,0,0,
,-0.423,-1.058,0.358,994.201,-728.638,-602.295,0,0,0,
,-0.522,-1.105,0.276,993.286,-810.242,-719.666,0,0,0,
,-0.639,-0.879,0.129,761.413,-758.912,-641.236,0,0,0,
,-0.771,-0.653,0.079,531.128,-582.459,-550.721,0,0,0,
,-0.835,-0.614,0.075,232.177,-305.726,-378.357,0,0,0,
,-0.858,-0.605,0.059,-239.197,14.221,-123.597,0,0,0,
,-0.826,-0.527,-0.002,-729.676,336.242,173.584,0,0,0,
,-0.749,-0.335,0.004,-834.168,627.929,486.999,0,0,0,
,-0.621,-0.337,0.049,-704.773,807.678,710.083,0,0,0,
,-0.345,-0.422,0.083,-386.719,781.86,802.063,0,0,0,
,-0.03,-0.949,0.183,-208.863,575.805,718.383,0,0,0,
,0.208,-1.483,0.359,-218.262,301.269,390.319,0,0,0,
,0.037,-1.637,0.63,-53.833,-43.641,-18.799,0,0,0,
,-0.175,-1.495,0.771,189.941,-309.876,-333.924,0,0,0,
,-0.377,-1.217,0.631,395.202,-471.375,-542.969,0,0,0,
,-0.479,-0.962,0.341,655.09,-518.921,-673.645,0,0,0,
,-0.58,-0.871,0.238,804.87,-504.456,-724.854,0,0,0,
,-0.701,-0.617,0.133,707.458,-432.129,-660.157,0,0,0,
,-0.826,-0.488,0.055,593.2,-280.518,-538.208,0,0,0,
,-0.886,-0.57,0.059,415.832,-79.956,-337.403,0,0,0,
,-0.864,-0.692,0.107,-51.453,139.831,-46.998,0,0,0,
,-0.881,-0.522,0.12,-662.476,358.459,271.118,0,0,0,
,-0.842,-0.304,0.059,-1023.682,598.816,569.702,0,0,0,
,-0.688,-0.251,0.069,-882.508,822.754,784.912,0,0,0,
,-0.318,-0.463,0.054,-483.033,825.134,889.77,0,0,0,
,-0.035,-1.057,0.142,-254.761,628.845,787.902,0,0,0,
,0.317,-1.6,0.384,-308.899,334.045,402.343,0,0,0,
,0.001,-1.53,0.736,-157.898,1.464,-49.622,0,0,0,
,-0.233,-1.366,0.846,191.955,-230.896,-404.053,0,0,0,
,-0.421,-1.132,0.545,495.239,-385.315,-612.732,0,0,0,
,-0.508,-0.904,0.388,772.827,-478.272,-773.194,0,0,0,
,-0.618,-0.77,0.343,912.475,-502.564,-797.913,0,0,0,
,-0.755,-0.564,0.195,880.981,-490.235,-729.065,0,0,0,
,-0.782,-0.602,0.052,798.095,-429.505,-611.023,0,0,0,
,-0.835,-0.77,-0.024,359.253,-333.313,-385.682,0,0,0,
,-0.874,-0.64,0.072,-403.077,-212.952,-78.125,0,0,0,
,-0.873,-0.483,0.215,-1025.94,-4.822,226.44,0,0,0,
,-0.835,-0.536,0.292,-1564.82,277.282,497.802,0,0,0,
,-0.669,-0.55,0.153,-1570.74,561.706,704.712,0,0,0,
,-0.449,-0.72,0.008,-1186.402,754.882,823.791,0,0,0,
,-0.068,-1.077,0.169,-995.545,678.405,762.817,0,0,0,
,0.149,-1.267,0.43,-1011.109,480.774,449.951,0,0,0,
,0.109,-1.246,0.772,-817.81,224.06,-10.926,0,0,0,
,-0.13,-1.13,0.928,-298.218,-65.796,-340.577,0,0,0,
,-0.296,-0.866,0.796,195.8,-312.623,-489.075,0,0,0,
,-0.38,-0.679,0.545,684.875,-474.488,-558.35,0,0,0,
,-0.489,-0.603,0.338,1182.067,-592.774,-564.698,0,0,0,
,-0.579,-0.495,0.177,1405.517,-592.469,-472.535,0,0,0,
,-0.75,-0.404,0.107,1479.98,-477.173,-361.451,0,0,0,
,-0.831,-0.589,0.091,1284.362,-281.678,-192.444,0,0,0,
,-0.848,-0.79,0.134,530.944,-52.247,53.405,0,0,0,
,-0.856,-0.697,0.213,-427.613,165.039,343.078,0,0,0,
,-0.795,-0.588,0.136,-882.264,438.659,604.492,0,0,0,
,-0.534,-0.603,-0.013,-810.364,629.882,789.001,0,0,0,
,-0.178,-0.85,0.028,-600.647,594.055,825.317,0,0,0,
,0.106,-1.168,0.265,-466.126,397.522,599.426,0,0,0,
,0.089,-1.311,0.574,-319.519,193.237,159.179,0,0,0,
,-0.161,-1.233,0.806,66.284,-18.189,-215.149,0,0,0,
,-0.32,-1.086,0.734,453.247,-187.134,-463.807,0,0,0,
,-0.454,-0.835,0.494,856.201,-316.773,-629.517,0,0,0,
,-0.714,-0.799,0.099,1372.68,-403.504,-531.739,0,0,0,
,-0.771,-0.903,0.001,1011.352,-367.432,-398.621,0,0,0,
,-0.785,-0.827,0.155,453.857,-305.726,-225.953,0,0,0,
,-0.683,-0.7,0.145,-1046.204,190.612,410.827,0,0,0,
,-0.523,-0.711,-0.063,-832.703,315.307,607.116,0,0,0,
,-0.218,-0.9,-0.106,-549.866,312.378,668.579,0,0,0,
,0.013,-1.081,0.057,-382.447,202.087,481.14,0,0,0,
,-0.058,-1.262,0.432,-339.356,98.816,39.917,0,0,0,
,-0.253,-1.291,0.671,-241.883,-16.114,-341.736,0,0,0,
,-0.4,-1.04,0.678,-36.499,-182.068,-587.159,0,0,0,
,-0.528,-0.842,0.483,392.089,-283.814,-683.899,0,0,0,
,-0.715,-0.826,0.178,218.994,-431.824,-479.004,0,0,0,
,-0.785,-0.644,0.228,-210.572,-394.471,-286.011,0,0,0,
,-0.869,-0.35,0.241,-767.518,-259.888,-62.134,0,0,0,
,-0.9,-0.374,0.297,-1146.851,25.024,213.317,0,0,0,
,-0.898,-0.291,0.278,-1390.931,374.145,474.975,0,0,0,
,-0.909,-0.091,0.17,-1220.459,776.55,697.509,0,0,0,
,-0.485,0.044,0.013,-429.932,977.234,894.287,0,0,0,
,0.059,-0.863,0.147,80.261,886.779,891.784,0,0,0,
,0.478,-1.645,0.504,-113.526,582.885,608.581,0,0,0,
,0.308,-1.747,0.794,-296.998,231.262,119.506,0,0,0,
,0.003,-1.518,0.916,-156.8,-32.959,-278.931,0,0,0,
,-0.472,-0.921,0.345,976.013,-415.772,-752.076,0,0,0,
,-0.595,-0.731,0.256,1033.63,-411.866,-721.924,0,0,0,
,-0.646,-0.564,0.263,1038.147,-354.981,-595.765,0,0,0,
,-0.775,-0.499,0.297,1003.662,-256.714,-420.533,0,0,0,
,-0.87,-0.42,0.302,859.375,-108.765,-148.438,0,0,0,
,-0.749,-0.106,0.169,534.057,334.35,845.031,0,0,0,
,-0.503,-0.557,-0.062,661.743,296.508,1069.702,0,0,0,
,-0.124,-1.323,-0.293,343.383,102.539,1094.421,0,0,0,
,0.279,-1.796,-0.095,-314.026,-129.761,817.077,0,0,0,
,0.121,-1.681,0.406,-771.241,-239.014,290.832,0,0,0,
,-0.341,-1.039,0.267,162.17,-188.355,-773.56,0,0,0,
,-0.502,-0.877,0.224,589.843,-208.252,-838.318,0,0,0,
,-0.67,-0.732,0.137,820.373,-196.106,-795.044,0,0,0,
,-0.766,-0.714,0.153,797.363,-149.109,-686.341,0,0,0,
,-0.832,-0.694,0.207,613.403,-68.238,-493.714,0,0,0,
,-0.829,-0.437,0.224,-1627.991,157.104,281.982,0,0,0,
,-0.651,-0.221,0.106,-1536.011,321.289,522.461,0,0,0,
,-0.391,-0.42,0.103,-967.713,380.981,690.368,0,0,0,
,-0.154,-0.714,0.269,-373.169,345.764,728.576,0,0,0,
,-0.305,-1.259,0.399,552.734,45.471,-519.898,0,0,0,
,-0.47,-1.068,0.285,738.952,-58.899,-684.693,0,0,0,
,-0.59,-1.006,0.213,775.94,-116.944,-748.719,0,0,0,
,-0.639,-0.993,0.177,620.91,-186.402,-707.154,0,0,0,
,-0.655,-0.947,0.184,278.503,-221.314,-583.497,0,0,0,
,-0.727,-0.736,0.189,-103.699,-261.597,-446.534,0,0,0,
,-0.765,-0.544,0.161,-567.322,-250.55,-241.15,0,0,0,
,-0.783,-0.446,0.179,-1015.198,-196.717,-33.326,0,0,0,
,-0.725,-0.35,0.23,-1278.26,151.733,426.635,0,0,0,
,-0.647,-0.199,0.137,-813.843,435.974,641.418,0,0,0,
,-0.518,-0.254,0.052,-291.871,709.9,787.78,0,0,0,
,-0.069,-1.406,0.294,-215.821,1124.633,724.487,0,0,0,
,0.14,-1.407,0.452,-556.946,997.131,439.575,0,0,0,
,0.202,-1.534,0.786,-764.527,719.299,30.7,0,0,0,
,0.076,-1.495,0.998,-916.932,291.626,-343.873,0,0,0,
,-0.167,-0.929,1.027,-504.822,-178.772,-491.456,0,0,0,
,-0.32,-0.818,1.019,96.984,-559.937,-543.03,0,0,0,
,-0.397,-0.774,0.93,572.815,-837.037,-560.303,0,0,0,
,-0.482,-0.761,0.774,894.592,-977.845,-571.412,0,0,0,
,-0.515,-0.762,0.595,1068.725,-1024.17,-561.219,0,0,0,
,-0.548,-0.771,0.386,1118.652,-970.337,-536.438,0,0,0,
,-0.542,-0.744,0.205,1064.941,-857.972,-524.048,0,0,0,
,-0.604,-0.797,0.026,773.742,-648.133,-497.01,0,0,0,
,-0.62,-0.806,-0.145,303.405,-377.32,-416.443,0,0,0,
,-0.635,-0.769,-0.223,-154.297,-100.464,-290.589,0,0,0,
,-0.662,-0.733,-0.181,-564.576,258.239,-129.883,0,0,0,
,-0.637,-0.57,-0.081,-799.988,641.906,56.518,0,0,0,
,-0.647,-0.394,0.067,-794.068,986.999,202.27,0,0,0,
,-0.584,-0.5,0.404,-696.778,1202.88,294.738,0,0,0,
,-0.447,-0.57,0.765,-681.702,1143.371,285.156,0,0,0,
,-0.262,-0.853,1.003,-849.732,819.03,172.241,0,0,0,
,-0.076,-1.022,1.052,-1066.712,270.935,-22.706,0,0,0,
,-0.158,-0.836,1.1,-905.64,-364.441,-102.356,0,0,0,
,-0.345,-0.54,0.634,739.074,-1138.855,-85.999,0,0,0,
,-0.448,-0.764,0.289,1268.798,-1180.848,-107.422,0,0,0,
,-0.605,-0.924,0.039,1179.504,-918.519,-151.856,0,0,0,
,-0.642,-0.85,-0.133,709.838,-460.999,-165.101,0,0,0,
,-0.695,-0.714,-0.334,474.731,59.387,-86.731,0,0,0,
,-0.71,-0.674,-0.373,322.876,510.864,92.407,0,0,0,
,-0.646,-0.591,-0.169,127.258,809.448,285.827,0,0,0,
,-0.519,-0.569,0.17,-112.122,931.335,396.423,0,0,0,
,-0.413,-0.598,0.486,-274.414,865.112,422.119,0,0,0,
,-0.319,-0.684,0.693,-309.937,643.859,383.3,0,0,0,
,-0.211,-0.868,0.826,-261.475,320.007,298.034,0,0,0,
,-0.208,-0.953,0.901,-88.807,-65.552,188.232,0,0,0,
,-0.24,-1.066,0.886,233.032,-414.673,31.921,0,0,0,
,-0.306,-1.162,0.793,572.57,-677.063,-119.996,0,0,0,
,-0.366,-1.137,0.621,856.323,-799.134,-261.658,0,0,0,
,-0.419,-1.187,0.463,1018.005,-853.943,-387.574,0,0,0,
,-0.503,-0.948,-0.07,856.933,-667.237,-567.566,0,0,0,
,-0.536,-0.787,-0.234,531.311,-499.085,-567.139,0,0,0,
,-0.63,-0.709,-0.274,234.68,-294.678,-463.746,0,0,0,
,-0.715,-0.561,-0.308,-61.829,-57.557,-283.387,0,0,0,
,-0.817,-0.452,-0.203,-338.501,238.708,-27.222,0,0,0,
,-0.864,-0.288,0.155,-527.161,849.975,540.222,0,0,0,
,-0.737,-0.485,0.197,-435.425,1029.602,734.68,0,0,0,
,-0.563,-0.821,0.214,-484.986,1038.574,795.532,0,0,0,
,-0.18,-1.243,0.393,-714.295,827.148,698.852,0,0,0,
,0.023,-1.52,0.641,-974.854,498.291,406.067,0,0,0,
,-0.121,-1.343,0.941,-909.974,125.244,6.958,0,0,0,
,-0.224,-1.135,1.055,-333.985,-188.538,-309.327,0,0,0,
,-0.358,-1.007,0.861,207.58,-433.96,-535.706,0,0,0,
,-0.428,-1.016,0.696,645.446,-614.808,-697.876,0,0,0,
,-0.531,-0.997,0.456,831.787,-680.848,-741.272,0,0,0,
,-0.634,-0.827,0.252,661.865,-629.456,-716.126,0,0,0,
,-0.694,-0.649,0.179,440.612,-484.559,-643.799,0,0,0,
,-0.779,-0.523,0.092,179.443,-260.498,-505.372,0,0,0,
,-0.798,-0.424,0.043,-151.123,0.488,-273.804,0,0,0,
,-0.812,-0.3,0.022,-525.513,265.93,30.029,0,0,0,
,-0.793,-0.22,-0.063,-748.963,518.432,336.425,0,0,0,
,-0.738,-0.19,-0.047,-776.673,743.835,583.435,0,0,0,
,-0.646,-0.385,0.052,-934.449,886.596,723.449,0,0,0,
,-0.336,-0.714,0.329,-1030.518,881.652,729.614,0,0,0,
,-0.068,-1.14,0.677,-943.482,721.435,590.149,0,0,0,
,0.066,-1.261,1.08,-630.555,461.975,353.881,0,0,0,
,0.084,-1.332,1.115,-222.229,109.008,-23.682,0,0,0,
,-0.05,-1.26,1.086,113.22,-178.833,-320.923,0,0,0,
,-0.233,-1.104,0.782,375.488,-409.607,-525.025,0,0,0,
,-0.335,-0.963,0.667,627.197,-606.141,-702.149,0,0,0,
,-0.433,-0.905,0.566,728.149,-707.947,-731.08,0,0,0,
,-0.544,-0.522,0.46,722.656,-711.548,-683.594,0,0,0,
,-0.62,-0.305,0.273,761.657,-646.668,-591.858,0,0,0,
,-0.71,-0.168,0.096,736.694,-504.029,-422.425,0,0,0,
,-0.784,-0.104,0.022,581.848,-309.876,-172.791,0,0,0,
,-0.807,-0.175,0.094,203.003,-78.553,134.216,0,0,0,
,-0.745,-0.19,0.129,-101.563,175.598,451.782,0,0,0,
,-0.695,-0.241,0.039,-125.184,418.823,734.497,0,0,0,
,-0.354,-0.888,0.013,-95.154,608.886,974.243,0,0,0,
,-0.182,-1.297,0.309,-15.931,553.955,864.318,0,0,0,
,-0.049,-1.524,0.648,10.376,405.639,574.463,0,0,0,
,-0.055,-1.627,0.797,6.347,231.384,125.305,0,0,0,
,-0.187,-1.484,0.841,184.082,43.09,-260.926,0,0,0,
,-0.33,-1.337,0.726,413.94,-174.073,-521.058,0,0,0,
,-0.452,-1.152,0.628,517.028,-346.131,-668.824,0,0,0,
,-0.511,-1.028,0.574,529.113,-471.192,-719.056,0,0,0,
,-0.564,-0.801,0.501,423.034,-532.349,-662.11,0,0,0,
,-0.672,-0.576,0.272,257.69,-541.138,-556.336,0,0,0,
,-0.862,-0.399,0.174,-377.747,-187.867,-125.672,0,0,0,
,-0.826,-0.419,0.275,-705.506,114.135,145.568,0,0,0,
,-0.772,-0.296,0.166,-652.832,449.707,413.33,0,0,0,
,-0.577,-0.36,0.071,-421.082,690.857,605.346,0,0,0,
,-0.366,-0.63,0.162,-231.263,756.225,668.884,0,0,0,
,-0.056,-1.074,0.486,-98.45,670.044,551.086,0,0,0,
,0.006,-1.366,0.762,-63.355,437.805,244.384,0,0,0,
,-0.122,-1.431,0.881,-5.494,158.386,-98.206,0,0,0,
,-0.234,-1.338,0.846,142.089,-130.677,-348.389,0,0,0,
,-0.342,-1.201,0.692,378.906,-394.227,-493.287,0,0,0,
,-0.403,-1.027,0.484,554.138,-583.68,-553.772,0,0,0,
,-0.467,-0.883,0.305,612.243,-680.726,-569.703,0,0,0,
,-0.538,-0.647,0.155,520.63,-661.194,-534.424,0,0,0,
,-0.589,-0.484,-0.001,366.699,-544.068,-448.792,0,0,0,
,-0.671,-0.335,-0.073,139.831,-343.873,-285.096,0,0,0,
,-0.734,-0.271,-0.122,-142.884,-81.91,-42.542,0,0,0,
,-0.729,-0.221,-0.086,-329.895,229.065,257.202,0,0,0,
,-0.722,-0.123,-0.138,-324.707,518.31,567.199,0,0,0,
,-0.585,-0.18,-0.042,-312.561,756.469,798.584,0,0,0,
,-0.396,-0.475,0.154,-302.185,829.651,911.193,0,0,0,
,-0.212,-0.943,0.385,-363.526,719.543,852.539,0,0,0,
,0.001,-1.522,0.666,-500.733,512.146,615.478,0,0,0,
,-0.036,-1.699,0.926,-434.449,152.71,218.628,0,0,0,
,-0.161,-1.68,1.05,-146.912,-167.298,-124.939,0,0,0,
,-0.311,-1.476,0.928,195.8,-443.299,-388.611,0,0,0,
,-0.418,-1.188,0.651,510.131,-627.442,-592.286,0,0,0,
,-0.502,-1.179,0.45,681.152,-733.216,-720.581,0,0,0,
,-0.569,-0.808,0.25,569.702,-731.385,-730.469,0,0,0,
,-0.689,-0.566,0.043,429.077,-603.333,-656.556,0,0,0,
,-0.829,-0.474,0.003,127.441,-365.967,-487.305,0,0,0,
,-0.86,-0.346,0.033,-246.399,-80.689,-246.582,0,0,0,
,-0.887,-0.276,0.085,-603.333,221.984,42.663,0,0,0,
,-0.788,-0.131,0.109,-582.337,497.985,330.322,0,0,0,
,-0.518,-0.322,0.258,-340.638,624.939,525.024,0,0,0,
,-0.177,-0.825,0.542,-114.869,536.132,503.662,0,0,0,
,0.086,-1.61,0.713,-126.038,267.7,209.777,0,0,0,
,-0.056,-1.935,0.909,-211.426,-111.145,-223.633,0,0,0,
,-0.289,-1.647,0.938,-177.918,-453.675,-523.194,0,0,0,
,-0.386,-1.206,0.605,121.032,-682.557,-716.431,0,0,0,
,-0.78,-0.272,-0.012,504.028,-569.275,-683.777,0,0,0,
,-0.865,-0.184,-0.097,455.81,-251.221,-503.602,0,0,0,
,-0.88,-0.118,-0.107,227.844,42.297,-238.038,0,0,0,
,-0.887,-0.104,-0.101,-57.129,352.966,105.468,0,0,0,
,-0.833,-0.015,-0.159,-323.975,592.651,461.486,0,0,0,
,-0.676,-0.147,0.004,-522.889,767.883,741.577,0,0,0,
,-0.509,-0.187,0.273,-575.318,825.256,919.616,0,0,0,
,-0.318,-0.471,0.497,-358.887,737.487,949.768,0,0,0,
,-0.152,-0.973,0.515,-59.876,537.719,865.234,0,0,0,
,0.153,-1.69,0.628,113.037,245.422,613.952,0,0,0,
,0.055,-1.933,0.884,175.476,-90.882,194.824,0,0,0,
,-0.212,-1.773,0.957,302.063,-288.758,-221.131,0,0,0,
,-0.513,-1.184,0.436,483.459,-501.648,-723.999,0,0,0,
,-0.606,-1.03,0.324,552.612,-531.739,-794.007,0,0,0,
,-0.701,-0.667,0.266,479.614,-495.85,-802.43,0,0,0,
,-0.774,-0.433,0.172,398.925,-423.706,-716.492,0,0,0,
,-0.898,-0.287,0.057,264.953,-287.964,-522.583,0,0,0,
,-0.951,-0.19,0.036,46.081,-99.854,-232.239,0,0,0,
,-0.949,-0.179,0.126,-296.753,120.971,101.989,0,0,0,
,-0.903,-0.178,0.204,-525.391,352.722,421.203,0,0,0,
,-0.788,-0.177,0.198,-513.367,576.843,673.339,0,0,0,
,-0.53,-0.44,0.139,-262.146,671.814,820.739,0,0,0,
,-0.324,-1.22,0.192,13.427,637.512,778.747,0,0,0,
,0.1,-2.042,0.362,-69.581,421.264,467.102,0,0,0,
,-0.04,-2.075,0.696,-378.968,162.719,-100.281,0,0,0,
,-0.253,-1.71,0.853,-332.642,-24.17,-587.22,0,0,0,
,-0.378,-1.252,0.626,-57.129,-206.36,-880.555,0,0,0,
,-0.442,-0.922,0.424,259.338,-366.272,-987.061,0,0,0,
,-0.585,-0.499,0.353,383.484,-429.688,-936.097,0,0,0,
,-0.71,-0.147,0.249,413.574,-398.377,-779.297,0,0,0,
,-0.788,0.041,0.183,396.423,-292.054,-518.006,0,0,0,
,-0.793,0.114,0.1,254.089,-132.264,-233.887,0,0,0,
,-0.778,0.085,0.108,-71.167,33.02,135.315,0,0,0,
,-0.682,0.094,0.065,-311.402,211.853,525.329,0,0,0,
,-0.609,0.033,0.008,-467.164,400.146,849.243,0,0,0,
,-0.473,-0.023,0.069,-376.465,564.27,1078.308,0,0,0,
,-0.279,-0.325,0.193,-153.199,622.436,1183.471,0,0,0,
,-0.106,-0.969,0.305,109.802,566.101,1135.986,0,0,0,
,0.113,-1.782,0.427,177.307,412.109,925.354,0,0,0,
,0.198,-2.196,0.542,19.47,142.151,506.591,0,0,0,
,-0.046,-2.008,0.708,14.77,-98.999,21.118,0,0,0,
,-0.296,-1.688,0.706,161.316,-298.096,-367.371,0,0,0,
,-0.392,-1.199,0.532,293.945,-458.497,-611.756,0,0,0,
,-0.544,-1.189,0.492,629.821,-577.515,-795.655,0,0,0,
,-0.571,-0.94,0.379,712.707,-654.114,-830.506,0,0,0,
,-0.542,-0.743,0.285,693.725,-705.445,-799.866,0,0,0,
,-0.549,-0.513,0.2,544.128,-710.694,-714.966,0,0,0,
,-0.607,-0.346,0.013,344.97,-656.373,-572.51,0,0,0,
,-0.738,-0.322,-0.064,-40.833,-514.832,-366.211,0,0,0,
,-0.845,-0.263,-0.12,-492.493,-296.814,-102.906,0,0,0,
,-0.923,-0.351,-0.072,-854.432,1.648,198.547,0,0,0,
,-0.871,-0.311,-0.02,-961.182,351.44,477.172,0,0,0,
,-0.771,-0.289,0.026,-780.701,636.291,634.399,0,0,0,
,-0.499,-0.657,0.27,-468.567,820.495,650.573,0,0,0,
,-0.146,-1.155,0.488,-158.02,714.111,465.637,0,0,0,
,-0.041,-1.613,0.636,-126.526,409.729,150.024,0,0,0,
,-0.225,-1.542,0.814,-83.435,24.536,-197.754,0,0,0,
,-0.404,-1.239,0.818,172.241,-341.187,-440.552,0,0,0,
,-0.548,-1,0.678,502.38,-613.465,-538.88,0,0,0,
,-0.622,-0.673,0.493,797.424,-771.729,-521.851,0,0,0,
,-0.778,-0.53,0.16,991.76,-804.566,-448.548,0,0,0,
,-0.877,-0.557,0.025,865.722,-668.58,-304.322,0,0,0,
,-1.014,-0.501,-0.098,443.237,-383.24,-124.085,0,0,0,
,-1.011,-0.507,-0.062,-173.401,25.573,107.544,0,0,0,
,-0.947,-0.328,-0.124,-524.292,466.247,364.196,0,0,0,
,-0.767,-0.277,-0.093,-461.365,821.167,616.699,0,0,0,
,-0.411,-0.407,-0.003,-144.715,921.447,758.056,0,0,0,
,-0.123,-0.988,0.306,40.466,789.672,714.904,0,0,0,
,-0.024,-1.323,0.47,90.576,458.618,488.586,0,0,0,
,-0.076,-1.428,0.554,169.006,72.631,165.222,0,0,0,
,-0.257,-1.349,0.591,232.91,-299.744,-148.377,0,0,0,
,-0.396,-1.054,0.436,477.05,-559.205,-315.064,0,0,0,
,-0.515,-0.897,0.148,693.481,-661.011,-380.433,0,0,0,
,-0.648,-0.859,-0.035,666.809,-597.779,-367.371,0,0,0,
,-0.73,-0.96,-0.122,289.856,-420.411,-279.541,0,0,0,
,-0.797,-0.786,-0.168,-219.239,-87.83,-150.147,0,0,0,
,-0.82,-0.71,-0.108,-661.988,315.124,8.972,0,0,0,
,-0.795,-0.433,-0.074,-755.433,701.66,190.673,0,0,0,
,-0.621,-0.44,-0.014,-418.213,903.808,347.839,0,0,0,
,-0.375,-0.763,0.188,-173.584,863.586,407.287,0,0,0,
,-0.219,-1.043,0.485,-104.676,640.625,337.707,0,0,0,
,-0.199,-1.226,0.674,-72.022,299.194,146.057,0,0,0,
,-0.305,-1.205,0.821,43.64,-34.485,-74.952,0,0,0,
,-0.402,-1.092,0.757,348.022,-335.083,-244.812,0,0,0,
,-0.468,-0.884,0.487,770.507,-560.547,-355.896,0,0,0,
,-0.514,-0.843,0.191,1107.971,-693.421,-416.993,0,0,0,
,-0.622,-0.932,-0.02,1128.906,-658.143,-411.622,0,0,0,
,-0.686,-1.13,-0.105,518.005,-447.998,-326.172,0,0,0,
,-0.683,-1.131,-0.171,-294.983,-130.982,-227.784,0,0,0,
,-0.698,-0.847,-0.38,-938.843,245.727,-88.685,0,0,0,
,-0.678,-0.396,-0.555,-1049.5,580.139,111.633,0,0,0,
,-0.603,-0.313,-0.282,-736.39,812.072,310.669,0,0,0,
,-0.452,-0.359,0.067,-484.314,864.868,412.048,0,0,0,
,-0.305,-0.59,0.431,-256.226,730.163,370.788,0,0,0,
,-0.246,-0.794,0.738,-34.974,465.149,211.12,0,0,0,
,-0.26,-1.089,0.853,196.594,98.877,1.709,0,0,0,
,-0.327,-1.122,0.835,440.49,-288.88,-158.692,0,0,0,
,-0.431,-1.018,0.655,741.882,-581.543,-271.119,0,0,0,
,-0.454,-0.972,0.463,1036.56,-768.799,-340.088,0,0,0,
,-0.471,-0.993,0.279,1197.204,-902.283,-390.564,0,0,0,
,-0.541,-0.851,0.055,1193.603,-918.03,-439.759,0,0,0,
,-0.582,-0.811,-0.237,917.48,-809.51,-446.045,0,0,0,
,-0.61,-0.838,-0.435,461.547,-590.088,-374.573,0,0,0,
,-0.619,-0.84,-0.521,-36.866,-309.876,-229.981,0,0,0,
,-0.662,-0.787,-0.51,-427.43,21.362,-23.926,0,0,0,
,-0.654,-0.563,-0.504,-571.534,378.784,225.158,0,0,0,
,-0.614,-0.497,-0.417,-460.389,704.712,448.242,0,0,0,
,-0.565,-0.485,-0.282,-366.822,938.293,625.976,0,0,0,
,-0.503,-0.65,-0.073,-283.753,1067.627,710.998,0,0,0,
,-0.31,-1.049,0.278,-472.657,934.021,586.059,0,0,0,
,-0.193,-1.26,0.517,-646.241,669.799,365.173,0,0,0,
,-0.209,-1.349,0.77,-767.518,312.194,83.801,0,0,0,
,-0.393,-1.038,0.874,-380.372,-397.4,-317.872,0,0,0,
,-0.428,-0.898,0.801,138.305,-688.111,-453.431,0,0,0,
,-0.479,-0.959,0.653,558.288,-906.189,-498.536,0,0,0,
,-0.538,-0.838,0.415,855.346,-1018.067,-503.968,0,0,0,
,-0.538,-0.894,0.153,973.388,-1025.94,-495.667,0,0,0,
,-0.547,-0.895,-0.147,699.401,-928.101,-487.366,0,0,0,
,-0.611,-0.826,-0.384,264.465,-710.022,-415.284,0,0,0,
,-0.666,-0.649,-0.465,-566.529,460.083,144.409,0,0,0,
,-0.601,-0.536,-0.356,-480.408,837.585,334.777,0,0,0,
,-0.499,-0.58,-0.095,-355.896,1033.996,428.405,0,0,0,
,-0.377,-0.826,0.348,-353.333,1037.597,393.493,0,0,0,
,-0.323,-1.066,0.71,-483.277,796.264,200.195,0,0,0,
,-0.261,-1.208,0.908,-638.977,367.187,-76.6,0,0,0,
,-0.297,-1.066,0.963,-544.861,-165.833,-291.138,0,0,0,
,-0.404,-0.742,0.706,58.898,-630.677,-335.144,0,0,0,
,-0.473,-0.661,0.432,834.289,-951.783,-341.065,0,0,0,
,-0.6,-0.746,0.168,1189.148,-1045.96,-340.332,0,0,0,
,-0.665,-0.904,-0.093,1008.3,-904.175,-324.158,0,0,0,
,-0.665,-0.918,-0.348,487.609,-580.323,-282.41,0,0,0,
,-0.684,-0.826,-0.584,18.249,-140.87,-163.575,0,0,0,
,-0.668,-0.68,-0.715,-193.665,284.729,41.259,0,0,0,
,-0.593,-0.543,-0.572,-199.097,624.023,249.817,0,0,0,
,-0.477,-0.638,-0.225,-164.002,823.12,378.479,0,0,0,
,-0.395,-0.813,0.183,-169.312,865.783,407.592,0,0,0,
,-0.377,-0.933,0.489,-218.384,754.394,334.106,0,0,0,
,-0.348,-1.016,0.605,-303.528,524.658,175.598,0,0,0,
,-0.36,-1.077,0.73,-287.354,191.955,-3.54,0,0,0,
,-0.458,-1.001,0.776,-88.807,-157.105,-125.855,0,0,0,
,-0.518,-0.876,0.662,231.018,-476.075,-219.178,0,0,0,
,-0.569,-0.799,0.479,602.966,-683.167,-289.307,0,0,0,
,-0.589,-0.89,0.282,845.703,-841.98,-355.042,0,0,0,
,-0.61,-0.915,0.09,785.095,-864.197,-375.306,0,0,0,
,-0.665,-0.863,-0.145,496.032,-744.019,-362.915,0,0,0,
,-0.658,-0.919,-0.34,80.81,-515.198,-290.345,0,0,0,
,-0.644,-0.849,-0.382,-290.284,-218.14,-146.119,0,0,0,
,-0.642,-0.737,-0.472,-404.602,102.905,39.245,0,0,0,
,-0.613,-0.55,-0.541,-335.633,427.002,254.211,0,0,0,
,-0.53,-0.58,-0.393,-204.834,698.059,430.908,0,0,0,
,-0.472,-0.697,-0.174,-178.589,843.994,490.356,0,0,0,
,-0.384,-0.985,0.144,-273.255,863.525,447.021,0,0,0,
,-0.364,-1.022,0.333,-398.621,743.225,311.218,0,0,0,
,-0.309,-1.133,0.446,-470.643,512.939,101.379,0,0,0,
,-0.369,-1.169,0.6,-435.486,197.876,-110.596,0,0,0,
,-0.463,-0.991,0.693,-165.039,-127.32,-267.212,0,0,0,
,-0.538,-0.857,0.586,308.349,-386.841,-400.452,0,0,0,
,-0.579,-0.884,0.492,747.924,-593.384,-525.269,0,0,0,
,-0.615,-0.929,0.287,1038.696,-705.14,-584.717,0,0,0,
,-0.626,-0.892,0.027,1045.654,-721.07,-596.192,0,0,0,
,-0.652,-0.842,-0.172,750.183,-640.32,-572.571,0,0,0,
,-0.713,-0.772,-0.297,198.547,-445.13,-470.215,0,0,0,
,-0.789,-0.676,-0.365,-298.523,-164.856,-295.289,0,0,0,
,-0.814,-0.647,-0.396,-720.337,140.625,-21.302,0,0,0,
,-0.818,-0.493,-0.351,-938.965,457.641,309.631,0,0,0,
,-0.781,-0.369,-0.283,-1020.691,768.737,575.683,0,0,0,
,-0.702,-0.437,-0.054,-975.098,995.605,718.017,0,0,0,
,-0.497,-0.544,0.113,-900.147,1074.218,754.76,0,0,0,
,-0.281,-0.788,0.366,-722.962,977.417,662.841,0,0,0,
,-0.119,-1.052,0.489,-454.651,759.46,456.726,0,0,0,
,-0.063,-1.257,0.652,-135.743,407.226,151.916,0,0,0,
,-0.202,-1.306,0.772,205.688,54.565,-133.667,0,0,0,
,-0.345,-1.273,0.723,485.229,-238.892,-379.7,0,0,0,
,-0.462,-1.053,0.468,607.788,-432.373,-540.101,0,0,0,
,-0.478,-0.98,0.367,753.662,-578.98,-657.471,0,0,0,
,-0.564,-0.838,0.242,571.411,-660.34,-679.505,0,0,0,
,-0.643,-0.693,0.173,442.749,-644.837,-624.207,0,0,0,
,-0.778,-0.703,0.153,218.078,-555.115,-484.62,0,0,0,
,-0.842,-0.579,0.113,-211.06,-382.691,-262.635,0,0,0,
,-0.897,-0.46,0.083,-527.161,-160.828,10.559,0,0,0,
,-0.837,-0.351,-0.033,-603.943,113.952,301.696,0,0,0,
,-0.714,-0.501,-0.136,-554.81,366.272,524.658,0,0,0,
,-0.223,-1.188,-0.007,-227.356,579.956,562.683,0,0,0,
,-0.055,-1.443,0.233,-298.34,496.154,222.717,0,0,0,
,-0.185,-1.503,0.454,-320.862,352.295,-226.868,0,0,0,
,-0.396,-1.26,0.564,-72.327,117.309,-527.71,0,0,0,
,-0.557,-1.121,0.449,283.935,-134.766,-677.918,0,0,0,
,-0.648,-0.905,0.398,361.999,-335.022,-719.544,0,0,0,
,-0.75,-0.646,0.382,329.589,-446.045,-673.401,0,0,0,
,-0.784,-0.416,0.32,257.69,-497.315,-597.779,0,0,0,
,-0.807,-0.259,0.25,179.382,-465.76,-463.013,0,0,0,
,-0.844,-0.206,0.167,-2.259,-373.291,-271.607,0,0,0,
,-0.864,-0.177,0.104,-216.248,-223.328,17.089,0,0,0,
,-0.733,-0.199,-0.181,-103.455,466.735,851.44,0,0,0,
,-0.602,-0.464,-0.226,31.921,676.574,993.713,0,0,0,
,-0.361,-0.965,-0.27,143.432,758.422,1036.804,0,0,0,
,-0.128,-1.495,-0.08,119.018,725.219,941.345,0,0,0,
,-0.033,-1.705,0.136,-84.412,580.749,673.828,0,0,0,
,-0.007,-1.74,0.465,-279.48,422.973,277.343,0,0,0,
,-0.302,-1.279,0.774,-14.588,-6.775,-424.561,0,0,0,
,-0.412,-1.127,0.673,238.22,-241.822,-608.216,0,0,0,
,-0.47,-1.048,0.583,368.774,-441.346,-696.412,0,0,0,
,-0.521,-0.941,0.568,375.244,-605.774,-717.957,0,0,0,
,-0.559,-0.754,0.512,285.949,-724.976,-696.839,0,0,0,
,-0.594,-0.676,0.428,162.597,-779.297,-647.461,0,0,0,
,-0.612,-0.555,0.295,27.71,-780.64,-541.565,0,0,0,
,-0.66,-0.515,0.086,-114.869,-720.032,-405.091,0,0,0,
,-0.73,-0.487,-0.142,-303.711,-577.515,-213.44,0,0,0,
,-0.773,-0.621,-0.141,-442.017,89.111,189.331,0,0,0,
,-0.756,-0.681,-0.227,-473.694,486.328,370.3,0,0,0,
,-0.737,-0.65,-0.381,-532.837,861.023,474.914,0,0,0,
,-0.532,-0.911,-0.277,-607.422,1086.731,480.957,0,0,0,
,-0.328,-1.101,0.051,-799.195,1068.054,344.787,0,0,0,
,-0.182,-1.234,0.558,-984.07,846.008,67.627,0,0,0,
,-0.229,-1.201,0.944,-942.322,472.839,-247.193,0,0,0,
,-0.352,-1.023,1.068,-606.934,52.002,-419.861,0,0,0,
,-0.448,-0.673,0.987,-104.126,-314.148,-455.079,0,0,0,
,-0.488,-0.675,0.836,377.99,-575.867,-459.839,0,0,0,
,-0.573,-0.553,0.512,616.027,-718.811,-411.438,0,0,0,
,-0.683,-0.477,0.229,614.135,-661.255,-352.173,0,0,0,
,-0.801,-0.425,0.044,346.008,-422.486,-248.597,0,0,0,
,-0.873,-0.335,-0.057,-1.831,-63.721,-70.801,0,0,0,
,-0.849,-0.318,-0.04,-304.993,350.158,185.18,0,0,0,
,-0.784,-0.011,-0.175,-374.695,689.636,465.515,0,0,0,
,-0.616,0.014,-0.024,-362.793,964.66,661.987,0,0,0,
,-0.361,-0.249,0.307,-300.843,1051.818,740.112,0,0,0,
,-0.131,-0.868,0.606,-155.884,911.56,704.773,0,0,0,
,-0.07,-1.35,0.804,-138.184,592.773,533.996,0,0,0,
,-0.011,-1.593,1.022,-74.219,209.411,268.188,0,0,0,
,-0.219,-1.638,1.118,115.356,-185.181,-15.686,0,0,0,
,-0.346,-1.428,0.982,329.223,-449.524,-237.793,0,0,0,
,-0.473,-1.149,0.701,549.072,-649.109,-424.805,0,0,0,
,-0.547,-1.093,0.544,735.778,-784.729,-555.481,0,0,0,
,-0.627,-0.795,0.353,746.521,-836.976,-596.436,0,0,0,
,-0.681,-0.614,0.162,711.731,-766.602,-573.365,0,0,0,
,-0.749,-0.469,-0.007,521.118,-604.676,-480.713,0,0,0,
,-0.813,-0.407,-0.115,214.111,-358.704,-316.102,0,0,0,
,-0.875,-0.354,-0.133,-158.631,-58.96,-74.707,0,0,0,
,-0.716,-0.27,-0.181,-481.263,559.997,446.899,0,0,0,
,-0.459,-0.603,-0.074,-513.184,740.722,533.996,0,0,0,
,-0.21,-1.334,0.227,-588.99,765.747,419.433,0,0,0,
,-0.093,-1.795,0.535,-768.799,561.767,132.812,0,0,0,
,-0.282,-1.597,0.743,-873.658,283.081,-200.684,0,0,0,
,-0.436,-1.127,0.885,-608.521,-2.93,-455.506,0,0,0,
,-0.536,-0.805,0.83,-47.791,-255.555,-579.102,0,0,0,
,-0.608,-0.599,0.656,443.298,-427.002,-599.305,0,0,0,
,-0.703,-0.406,0.508,675.903,-516.236,-550.538,0,0,0,
,-0.732,-0.331,0.396,757.446,-490.296,-445.862,0,0,0,
,-0.762,-0.237,0.257,653.625,-392.64,-288.819,0,0,0,
,-0.791,-0.248,0.232,383.728,-226.441,-84.717,0,0,0,
,-0.781,-0.202,0.212,-11.17,-22.278,177.246,0,0,0,
,-0.703,-0.134,0.118,-258.423,200.439,455.383,0,0,0,
,-0.681,-0.118,0.027,-501.16,416.137,692.077,0,0,0,
,-0.558,-0.148,0.042,-518.677,607.544,872.131,0,0,0,
,-0.312,-0.493,0.223,-235.962,682.922,972.29,0,0,0,
,-0.1,-1.108,0.342,-4.822,600.219,928.527,0,0,0,
,0.076,-1.744,0.499,50.476,411.071,682.19,0,0,0,
,0.069,-2.036,0.73,-77.393,145.568,274.109,0,0,0,
,-0.163,-1.898,0.847,-90.332,-76.661,-153.565,0,0,0,
,-0.375,-1.552,0.735,12.878,-265.809,-423.035,0,0,0,
,-0.494,-1.23,0.648,221.862,-407.41,-628.724,0,0,0,
,-0.579,-1.116,0.576,395.568,-478.089,-736.573,0,0,0,
,-0.637,-0.831,0.533,370.544,-473.633,-764.649,0,0,0,
,-0.629,-0.557,0.461,222.29,-434.205,-725.708,0,0,0,
,-0.68,-0.254,0.346,77.514,-356.446,-593.75,0,0,0,
,-0.795,-0.067,0.248,-21.607,-212.647,-365.174,0,0,0,
,-0.84,0.01,0.259,-187.561,-25.452,-50.904,0,0,0,
,-0.81,-0.047,0.253,-411.499,184.875,295.837,0,0,0,
,-0.736,0.074,0.164,-393.555,385.009,618.286,0,0,0,
,-0.509,-0.115,0.052,-201.722,546.753,809.814,0,0,0,
,-0.233,-0.852,0.039,28.991,564.087,798.462,0,0,0,
,0.078,-1.841,0.393,79.773,434.814,584.838,0,0,0,
,-0.104,-1.941,0.67,-171.204,210.083,229.98,0,0,0,
,-0.294,-1.603,0.682,-224.244,55.847,-133.179,0,0,0,
,-0.394,-1.254,0.545,-68.238,-96.924,-402.466,0,0,0,
,-0.484,-0.903,0.465,99.426,-270.447,-503.418,0,0,0,
,-0.582,-0.505,0.458,247.741,-407.044,-502.32,0,0,0,
,-0.732,-0.207,0.349,343.2,-422.974,-404.541,0,0,0,
,-0.814,-0.104,0.331,335.937,-333.069,-215.149,0,0,0,
,-0.847,-0.107,0.32,95.52,-181.702,28.503,0,0,0,
,-0.805,-0.214,0.345,-181.702,-5.188,330.566,0,0,0,
,-0.697,-0.23,0.254,-245.301,189.758,635.62,0,0,0,
,-0.332,-0.506,0.104,-49.805,348.632,816.955,0,0,0,
,-0.001,-1.117,0.255,28.808,359.802,760.254,0,0,0,
,0.027,-1.57,0.52,-57.129,268.859,521.362,0,0,0,
,-0.14,-1.625,0.66,-111.206,155.578,224.365,0,0,0,
,-0.248,-1.527,0.628,32.47,15.686,-33.753,0,0,0,
,-0.375,-1.332,0.541,186.34,-141.724,-237.427,0,0,0,
,-0.474,-1.225,0.542,397.277,-287.11,-407.288,0,0,0,
,-0.551,-1.134,0.499,441.04,-383.118,-534.119,0,0,0,
,-0.601,-0.998,0.459,366.882,-452.759,-623.658,0,0,0,
,-0.598,-0.841,0.403,281.128,-496.277,-650.086,0,0,0,
,-0.608,-0.64,0.314,187.805,-521.668,-630.921,0,0,0,
,-0.616,-0.433,0.2,131.469,-521.18,-547.974,0,0,0,
,-0.653,-0.337,0.071,206.054,-466.98,-405.518,0,0,0,
,-0.729,-0.403,-0.01,168.213,-306.397,-204.041,0,0,0,
,-0.796,-0.463,0.035,-97.474,-71.717,8.422,0,0,0,
,-0.749,-0.542,0.154,-386.353,245.971,229.004,0,0,0,
,-0.744,-0.505,0.092,-605.225,595.886,411.743,0,0,0,
,-0.659,-0.446,0.022,-711.548,891.967,558.715,0,0,0,
,-0.444,-0.564,0.031,-634.278,1053.283,602.722,0,0,0,
,-0.25,-0.912,0.276,-638.245,1019.409,534.973,0,0,0,
,-0.035,-1.223,0.618,-672.12,755.615,347.961,0,0,0,
,-0.111,-1.354,0.877,-645.997,358.154,67.016,0,0,0,
,-0.252,-1.131,1.003,-387.879,0,-117.92,0,0,0,
,-0.364,-0.947,0.915,79.467,-324.707,-248.108,0,0,0,
,-0.447,-0.841,0.797,586.975,-561.463,-322.998,0,0,0,
,-0.538,-0.793,0.663,901.977,-680.054,-370.179,0,0,0,
,-0.616,-0.676,0.485,992.492,-670.899,-369.324,0,0,0,
,-0.686,-0.717,0.322,795.227,-546.631,-334.29,0,0,0,
,-0.733,-0.708,0.219,398.498,-354.371,-244.996,0,0,0,
,-0.753,-0.663,0.19,-51.087,-106.873,-84.656,0,0,0,
,-0.729,-0.505,0.103,-375.306,134.582,104.492,0,0,0,
,-0.613,-0.432,0.073,-474.793,371.093,288.879,0,0,0,
,-0.393,-0.517,0.186,-399.659,515.38,409.851,0,0,0,
,-0.159,-0.803,0.283,-307.068,486.694,390.136,0,0,0,
,0.011,-1.218,0.443,-352.173,314.27,173.095,0,0,0,
,-0.1,-1.396,0.722,-354.371,55.053,-118.775,0,0,0,
,-0.366,-1.18,0.871,-81.36,-215.577,-314.148,0,0,0,
,-0.49,-0.985,0.782,389.526,-426.575,-396.363,0,0,0,
,-0.549,-0.914,0.564,848.755,-545.227,-445.374,0,0,0,
,-0.63,-0.898,0.417,1029.602,-606.141,-489.93,0,0,0,
,-0.671,-0.803,0.284,975.036,-625,-515.198,0,0,0,
,-0.707,-0.672,0.17,745.239,-558.045,-507.813,0,0,0,
,-0.755,-0.556,0.053,405.273,-429.261,-437.195,0,0,0,
,-0.84,-0.486,-0.032,85.571,-241.578,-266.663,0,0,0,
,-0.878,-0.378,-0.034,-264.222,-12.024,-57.251,0,0,0,
,-0.89,-0.295,-0.048,-505.127,243.042,202.453,0,0,0,
,-0.833,-0.178,-0.078,-536.683,506.164,466.125,0,0,0,
,-0.717,-0.197,0.031,-502.259,742.004,674.682,0,0,0,
,-0.531,-0.331,0.158,-395.874,867.309,800.476,0,0,0,
,-0.25,-0.739,0.214,-351.441,869.69,808.838,0,0,0,
,0.023,-1.399,0.412,-502.564,721.496,646.057,0,0,0,
,0.181,-1.848,0.589,-760.498,405.273,327.514,0,0,0,
,-0.004,-1.75,0.888,-854.065,68.359,-49.5,0,0,0,
,-0.27,-1.322,0.973,-648.682,-204.529,-335.694,0,0,0,
,-0.434,-0.942,0.842,-159.668,-412.598,-509.888,0,0,0,
,-0.522,-0.85,0.704,425.354,-573.67,-601.258,0,0,0,
,-0.669,-0.582,0.579,760.315,-651.917,-595.765,0,0,0,
,-0.77,-0.414,0.475,943.664,-624.878,-544.373,0,0,0,
,-0.837,-0.313,0.359,915.039,-521.546,-419.556,0,0,0,
,-0.892,-0.321,0.264,727.966,-348.999,-245.118,0,0,0,
,-0.923,-0.393,0.272,275.817,-146.058,18.493,0,0,0,
,-0.893,-0.308,0.207,-220.948,76.049,319.397,0,0,0,
,-0.769,-0.145,0.082,-421.998,298.584,582.214,0,0,0,
,-0.416,-0.517,0.029,-326.172,503.173,717.407,0,0,0,
,-0.11,-1.097,0.192,-215.455,557.678,677.978,0,0,0,
,0.134,-1.606,0.45,-275.635,434.387,408.813,0,0,0,
,0.008,-1.795,0.644,-334.839,237.671,-11.963,0,0,0,
,-0.26,-1.535,0.7,-263.977,-9.705,-314.393,0,0,0,
,-0.437,-1.112,0.623,106.323,-247.376,-524.231,0,0,0,
,-0.534,-0.965,0.5,546.936,-441.224,-631.226,0,0,0,
,-0.62,-0.725,0.437,744.14,-558.106,-666.871,0,0,0,
,-0.731,-0.42,0.342,803.833,-588.562,-648.316,0,0,0,
,-0.816,-0.294,0.192,800.659,-531.8,-554.627,0,0,0,
,-0.834,-0.273,0.062,584.045,-404.786,-388.306,0,0,0,
,-0.871,-0.295,0.048,171.569,-212.525,-137.391,0,0,0,
,-0.837,-0.344,0,-315.735,28.076,162.658,0,0,0,
,-0.747,-0.264,-0.093,-568.36,307.861,457.214,0,0,0,
,-0.593,-0.341,-0.166,-624.329,597.656,656.799,0,0,0,
,-0.342,-0.667,-0.092,-515.87,807.434,762.146,0,0,0,
,-0.158,-1.203,0.142,-348.572,886.23,699.401,0,0,0,
,0.015,-1.644,0.436,-330.14,796.753,454.406,0,0,0,
,-0.097,-1.687,0.639,-426.575,578.003,80.444,0,0,0,
,-0.248,-1.409,0.848,-339.722,292.724,-262.269,0,0,0,
,-0.432,-1.163,0.871,62.805,-18.86,-493.103,0,0,0,
,-0.599,-0.789,0.634,531.005,-505.249,-680.664,0,0,0,
,-0.664,-0.664,0.567,618.652,-635.132,-696.534,0,0,0,
,-0.702,-0.429,0.438,580.566,-724.183,-622.315,0,0,0,
,-0.727,-0.277,0.305,495.605,-688.538,-492.127,0,0,0,
,-0.826,-0.295,0.153,224.853,-573.731,-304.566,0,0,0,
,-0.866,-0.322,0.02,-196.167,-333.191,-18.311,0,0,0,
,-0.794,-0.332,0.012,-839.6,436.95,522.033,0,0,0,
,-0.671,-0.159,-0.139,-760.743,826.477,741.455,0,0,0,
,-0.384,-0.409,-0.085,-533.692,1063.354,852.05,0,0,0,
,-0.184,-0.993,0.292,-340.577,1105.407,800.048,0,0,0,
,0.005,-1.549,0.732,-287.842,917.907,590.637,0,0,0,
,-0.037,-1.724,0.911,-327.454,565.979,237.854,0,0,0,
,-0.146,-1.59,1.02,-217.774,174.865,-120.301,0,0,0,
,-0.33,-1.319,1.004,49.865,-196.473,-390.87,0,0,0,
,-0.46,-1.149,0.69,255.493,-462.22,-546.082,0,0,0,
,-0.481,-0.961,0.553,478.149,-669.739,-649.781,0,0,0,
,-0.525,-0.893,0.398,395.202,-754.883,-678.711,0,0,0,
,-0.631,-0.499,0.19,245.605,-699.341,-640.381,0,0,0,
,-0.759,-0.398,0.027,100.036,-501.831,-534.852,0,0,0,
,-0.842,-0.291,-0.012,-179.871,-214.539,-350.098,0,0,0,
,-0.865,-0.21,0.048,-447.144,130.615,-89.295,0,0,0,
,-0.83,-0.195,0.124,-560.364,481.018,204.528,0,0,0,
,-0.737,-0.058,0.238,-528.443,775.512,449.829,0,0,0,
,-0.381,-0.253,0.457,-387.452,859.985,562.866,0,0,0,
,-0.16,-0.875,0.77,-336.548,706.543,481.262,0,0,0,
,0.043,-1.549,0.962,-355.591,337.89,261.23,0,0,0,
,-0.069,-1.536,0.986,-317.261,-133.362,-36.072,0,0,0,
,-0.265,-1.28,0.901,39.794,-517.701,-247.376,0,0,0,
,-0.354,-1.059,0.641,537.597,-769.227,-376.404,0,0,0,
,-0.496,-0.963,0.339,794.677,-870.972,-492.493,0,0,0,
,-0.605,-0.711,0.098,642.456,-821.351,-564.82,0,0,0,
,-0.753,-0.388,-0.04,493.408,-602.478,-533.02,0,0,0,
,-0.87,-0.255,-0.119,333.496,-275.025,-374.512,0,0,0,
,-0.882,-0.171,-0.071,107.544,76.171,-129.761,0,0,0,
,-0.866,-0.121,0.06,-199.524,377.868,158.386,0,0,0,
,-0.767,-0.058,0.129,-368.103,618.957,439.27,0,0,0,
,-0.575,-0.118,0.272,-419.8,745.178,650.024,0,0,0,
,-0.432,-0.282,0.481,-332.337,710.876,752.624,0,0,0,
,-0.242,-0.784,0.674,-145.813,559.448,757.69,0,0,0,
,-0.134,-1.376,0.7,-114.441,291.809,621.643,0,0,0,
,-0.088,-1.723,0.878,-151.429,-24.537,357.971,0,0,0,
,-0.222,-1.715,0.958,-34.668,-315.979,11.84,0,0,0,
,-0.416,-1.512,0.907,105.896,-493.287,-291.016,0,0,0,
,-0.552,-1.241,0.63,206.054,-590.76,-503.113,0,0,0,
,-0.568,-1.175,0.546,533.813,-659.058,-659.485,0,0,0,
,-0.642,-1.047,0.427,659.729,-661.194,-747.315,0,0,0,
,-0.661,-0.872,0.288,582.275,-599.549,-793.885,0,0,0,
,-0.69,-0.671,0.22,320.434,-496.644,-768.677,0,0,0,
,-0.745,-0.391,0.158,62.561,-381.714,-664.124,0,0,0,
,-0.812,-0.139,0.13,-114.136,-185.791,-475.159,0,0,0,
,-0.91,0.033,0.204,-331.055,36.743,-234.986,0,0,0,
,-0.997,0.164,0.313,-524.231,275.451,55.969,0,0,0,
,-0.929,0.221,0.273,-502.503,532.104,381.408,0,0,0,
,-0.844,0.196,0.194,-521.668,722.168,678.65,0,0,0,
,-0.637,0.034,0.253,-473.45,850.158,904.48,0,0,0,
,-0.264,-0.226,0.267,-156.434,785.644,1050.842,0,0,0,
,0.034,-1.119,0.386,-19.104,590.271,1017.151,0,0,0,
,0.422,-1.947,0.603,-98.267,260.07,759.582,0,0,0,
,0.263,-2.083,0.921,-266.358,-84.534,277.526,0,0,0,
,-0.063,-1.761,0.886,-3.602,-275.025,-158.631,0,0,0,
,-0.282,-1.454,0.518,276.184,-430.909,-454.407,0,0,0,
,-0.476,-1.184,0.397,586.547,-543.457,-636.597,0,0,0,
,-0.611,-1.021,0.346,664.428,-539.49,-749.024,0,0,0,
,-0.712,-0.687,0.324,446.472,-479.126,-786.316,0,0,0,
,-0.832,-0.402,0.242,214.416,-389.649,-734.253,0,0,0,
,-0.953,-0.137,0.228,-29.175,-260.743,-554.566,0,0,0,
,-1.001,0.077,0.193,-207.032,-94.544,-278.199,0,0,0,
,-1.071,0.074,0.288,-517.518,92.407,52.246,0,0,0,
,-0.979,0.048,0.308,-739.075,333.984,387.207,0,0,0,
,-0.803,-0.004,0.274,-716.553,530.09,689.941,0,0,0,
,-0.623,-0.167,0.282,-395.63,618.103,873.23,0,0,0,
,-0.3,-0.693,0.366,-66.163,535.034,917.785,0,0,0,
,0.012,-1.584,0.522,263.61,368.652,761.108,0,0,0,
,0.278,-1.978,0.645,351.623,39.978,377.685,0,0,0,
,-0.081,-1.78,0.817,275.268,-166.016,-132.996,0,0,0,
,-0.357,-1.549,0.701,416.992,-244.263,-508.973,0,0,0,
,-0.523,-1.237,0.49,621.948,-317.2,-747.864,0,0,0,
,-0.634,-1.051,0.376,743.957,-317.505,-832.093,0,0,0,
,-0.711,-0.756,0.363,648.986,-274.231,-842.957,0,0,0,
,-0.803,-0.479,0.332,456.726,-221.009,-798.035,0,0,0,
,-0.886,-0.274,0.304,249.45,-152.283,-657.959,0,0,0,
,-0.891,-0.079,0.288,69.702,-69.275,-414.185,0,0,0,
,-0.867,-0.067,0.301,-201.539,19.226,-117.188,0,0,0,
,-0.818,-0.084,0.345,-558.411,125.366,192.81,0,0,0,
,-0.703,-0.095,0.289,-787.598,266.479,480.896,0,0,0,
,-0.56,-0.028,0.214,-700.806,421.814,685.485,0,0,0,
,-0.433,-0.211,0.215,-505.86,529.358,831.054,0,0,0,
,-0.265,-0.582,0.268,-299.988,570.373,881.347,0,0,0,
,-0.107,-1.112,0.405,-51.453,568.176,801.208,0,0,0,
,0.115,-1.571,0.524,141.357,464.599,584.838,0,0,0,
,0.086,-1.773,0.575,98.571,296.203,189.88,0,0,0,
,-0.145,-1.671,0.64,76.782,140.258,-203.614,0,0,0,
,-0.393,-1.375,0.693,225.83,-38.819,-466.675,0,0,0,
,-0.547,-1.134,0.604,462.768,-185.669,-606.934,0,0,0,
,-0.613,-0.98,0.537,526.489,-289.246,-696.228,0,0,0,
,-0.681,-0.694,0.524,362.426,-349.549,-707.764,0,0,0,
,-0.736,-0.343,0.496,130.554,-394.471,-615.662,0,0,0,
,-0.855,-0.021,0.421,-31.25,-372.925,-418.03,0,0,0,
,-0.925,0.041,0.372,-248.108,-273.377,-135.804,0,0,0,
,-0.886,0.05,0.359,-538.147,-132.874,179.443,0,0,0,
,-0.789,-0.15,0.383,-635.682,79.406,499.878,0,0,0,
,-0.54,-0.407,0.337,-468.384,275.451,719.299,0,0,0,
,-0.326,-0.895,0.293,-163.147,384.399,762.817,0,0,0,
,0.072,-1.563,0.409,-173.951,347.9,570.8,0,0,0,
,-0.007,-1.653,0.612,-234.131,201.599,160.949,0,0,0,
,-0.216,-1.532,0.7,-25.147,23.193,-187.012,0,0,0,
,-0.427,-1.257,0.659,258.728,-197.937,-437.012,0,0,0,
,-0.564,-1.099,0.598,455.566,-343.445,-556.458,0,0,0,
,-0.653,-0.882,0.566,386.596,-449.341,-609.742,0,0,0,
,-0.751,-0.582,0.526,223.327,-474.915,-577.942,0,0,0,
,-0.859,-0.376,0.447,105.285,-412.598,-471.802,0,0,0,
,-0.847,-0.279,0.344,-29.908,-306.336,-296.814,0,0,0,
,-0.852,-0.261,0.307,-260.987,-168.457,-85.328,0,0,0,
,-0.754,-0.268,0.242,-257.874,41.381,143.737,0,0,0,
,-0.528,-0.473,0.117,-8.423,249.45,314.209,0,0,0,
,-0.344,-0.807,0.111,73.974,403.93,322.692,0,0,0,
,-0.247,-1.086,0.254,-7.691,464.843,171.203,0,0,0,
,-0.332,-1.142,0.356,-88.99,461.609,-15.87,0,0,0,
,-0.413,-0.995,0.412,-54.017,413.208,-120.728,0,0,0,
,-0.509,-0.702,0.408,0.305,336.425,-150.818,0,0,0,
,-0.615,-0.499,0.371,-16.663,259.704,-89.295,0,0,0,
,-0.778,-0.243,0.364,-142.456,224.365,58.166,0,0,0,
,-0.86,-0.035,0.466,-306.458,276.672,275.695,0,0,0,
,-0.757,-0.167,0.583,-370.789,361.145,500.183,0,0,0,
,-0.75,-0.064,0.556,-366.822,421.508,708.496,0,0,0,
,-0.43,-0.42,0.406,11.352,490.234,839.721,0,0,0,
,0.035,-1.248,0.544,93.078,409.057,778.076,0,0,0,
,0.106,-1.615,0.675,-140.748,215.515,463.623,0,0,0,
,0.014,-1.703,0.858,-163.575,52.185,73.608,0,0,0,
,-0.203,-1.553,0.87,103.515,-97.229,-248.047,0,0,0,
,-0.364,-1.319,0.776,406.677,-243.653,-485.474,0,0,0,
,-0.438,-1.377,0.627,674.072,-357.117,-658.631,0,0,0,
,-0.53,-1.231,0.586,600.647,-450.806,-789.307,0,0,0,
,-0.593,-1.046,0.582,473.022,-483.216,-876.954,0,0,0,
,-0.603,-0.84,0.557,285.339,-494.751,-906.067,0,0,0,
,-0.59,-0.515,0.498,80.993,-471.68,-867.92,0,0,0,
,-0.59,-0.146,0.417,7.08,-412.903,-733.277,0,0,0,
,-0.695,-0.024,0.305,144.714,-322.571,-544.678,0,0,0,
,-0.776,0.133,0.333,211.364,-168.457,-265.87,0,0,0,
,-0.835,0.172,0.374,201.049,42.907,40.71,0,0,0,
,-0.811,0.12,0.393,191.223,279.846,368.774,0,0,0,
,-0.745,0.108,0.305,249.267,484.069,693.542,0,0,0,
,-0.684,-0.011,0.227,334.594,610.901,936.34,0,0,0,
,-0.416,-0.416,0.083,678.283,605.346,1111.511,0,0,0,
,-0.178,-1.29,0.065,764.343,466.43,1098.755,0,0,0,
,0.234,-2.1,0.095,338.989,194.885,849.304,0,0,0,
,0.147,-2.235,0.461,-347.779,-47.974,353.454,0,0,0,
,-0.104,-1.849,0.663,-614.991,-140.931,-159.119,0,0,0,
,-0.286,-1.555,0.505,-482.056,-205.14,-569.458,0,0,0,
,-0.392,-1.245,0.327,-196.106,-303.162,-819.642,0,0,0,
,-0.493,-1.105,0.272,138.916,-364.197,-936.768,0,0,0,
,-0.617,-0.861,0.342,230.041,-355.713,-962.769,0,0,0,
,-0.641,-0.67,0.351,232.299,-286.499,-955.872,0,0,0,
,-0.563,-0.465,0.36,160.705,-202.698,-864.075,0,0,0,
,-0.584,-0.306,0.311,17.883,-106.08,-704.651,0,0,0,
,-0.657,-0.208,0.302,-258.423,-10.01,-484.925,0,0,0,
,-0.728,-0.138,0.369,-613.892,89.416,-186.463,0,0,0,
,-0.791,0.054,0.393,-849.915,208.496,156.189,0,0,0,
,-0.85,0.258,0.314,-835.572,363.586,480.224,0,0,0,
,-0.804,0.239,0.245,-594.422,542.114,747.985,0,0,0,
,-0.605,-0.031,0.291,-223.145,628.601,976.318,0,0,0,
,-0.459,-0.486,0.378,97.778,558.471,1102.111,0,0,0,
,-0.211,-1.196,0.467,200.805,458.496,1088.012,0,0,0,
,0.204,-1.722,0.559,-54.871,169.433,806.518,0,0,0,
,0.152,-1.842,0.845,-351.929,-45.838,275.817,0,0,0,
,-0.143,-1.654,0.96,-222.229,-215.943,-192.261,0,0,0,
,-0.392,-1.337,0.792,145.935,-353.028,-456.543,0,0,0,
,-0.552,-1.028,0.612,572.815,-482.972,-611.695,0,0,0,
,-0.659,-0.848,0.46,986.023,-493.47,-684.998,0,0,0,
,-0.713,-0.718,0.404,1021.118,-421.814,-681.092,0,0,0,
,-0.784,-0.605,0.366,713.623,-323.121,-631.043,0,0,0,
,-0.906,-0.591,0.312,197.326,-193.97,-463.746,0,0,0,
,-0.908,-0.494,0.374,-430.359,-27.161,-218.201,0,0,0,
,-0.926,-0.255,0.445,-1084.534,161.316,68.542,0,0,0,
,-0.908,0.084,0.266,-1251.16,413.452,333.923,0,0,0,
,-0.594,-0.122,0.127,-973.206,624.755,538.696,0,0,0,
,-0.323,-0.453,0.3,-474.366,629.76,627.014,0,0,0,
,-0.082,-1.002,0.629,42.663,509.155,592.102,0,0,0,
,0.03,-1.332,0.756,308.532,271.423,367.614,0,0,0,
,-0.058,-1.428,0.826,413.208,78.613,-7.447,0,0,0,
,-0.217,-1.406,0.713,535.4,-113.099,-365.662,0,0,0,
,-0.389,-1.194,0.49,550.048,-251.893,-575.867,0,0,0,
,-0.481,-0.932,0.386,582.153,-359.375,-678.101,0,0,0,
,-0.568,-0.712,0.359,586.853,-376.893,-693.665,0,0,0,
,-0.687,-0.538,0.327,416.809,-318.36,-611.817,0,0,0,
,-0.79,-0.361,0.299,244.018,-222.29,-453.797,0,0,0,
,-0.842,-0.321,0.294,6.225,-77.881,-195.984,0,0,0,
,-0.87,-0.133,0.329,-423.523,85.144,129.943,0,0,0,
,-0.889,0.08,0.263,-703.919,294.983,434.57,0,0,0,
,-0.746,0.037,0.226,-875.611,498.108,673.706,0,0,0,
,-0.505,-0.133,0.31,-776.673,620.056,846.557,0,0,0,
,-0.282,-0.523,0.447,-426.758,563.537,918.274,0,0,0,
,-0.009,-1.085,0.701,-26.978,462.158,833.191,0,0,0,
,0.239,-1.516,0.751,262.146,241.211,509.765,0,0,0,
,0.177,-1.925,0.893,332.092,20.629,7.385,0,0,0,
,-0.188,-1.691,0.818,346.252,-152.71,-357.422,0,0,0,
,-0.359,-1.303,0.63,376.098,-290.406,-613.709,0,0,0,
,-0.491,-1.13,0.425,579.345,-369.812,-747.742,0,0,0,
,-0.563,-0.942,0.316,665.039,-388.184,-760.01,0,0,0,
,-0.638,-0.691,0.358,433.166,-377.259,-701.355,0,0,0,
,-0.741,-0.478,0.427,144.531,-314.454,-592.774,0,0,0,
,-0.835,-0.212,0.477,-184.571,-218.018,-395.386,0,0,0,
,-0.86,-0.189,0.518,-527.283,-82.886,-117.005,0,0,0,
,-0.882,-0.021,0.434,-791.26,45.227,200.622,0,0,0,
,-0.787,0.058,0.317,-687.806,228.088,486.877,0,0,0,
,-0.447,-0.249,0.229,-369.996,287.719,661.193,0,0,0,
,-0.283,-1.01,0.382,-111.878,296.081,627.319,0,0,0,
,0.111,-1.624,0.607,166.442,152.343,379.943,0,0,0,
,-0.027,-1.802,0.749,239.807,0.122,-59.632,0,0,0,
,-0.306,-1.603,0.706,365.844,-73.914,-439.942,0,0,0,
,-0.488,-1.301,0.479,494.079,-139.588,-677.552,0,0,0,
,-0.644,-1.166,0.383,672.485,-178.894,-792.786,0,0,0,
,-0.748,-0.839,0.394,466.308,-176.636,-776.185,0,0,0,
,-0.784,-0.299,0.42,-165.65,-113.709,-599.549,0,0,0,
,-0.774,-0.061,0.432,-452.759,-80.933,-403.626,0,0,0,
,-0.784,0.132,0.476,-723.938,66.833,137.451,0,0,0,
,-0.678,0.12,0.461,-666.016,194.091,421.875,0,0,0,
,-0.616,0.069,0.416,-515.198,309.204,656.189,0,0,0,
,-0.561,-0.004,0.352,-239.075,405.456,840.393,0,0,0,
,-0.481,-0.172,0.295,67.199,454.834,966.125,0,0,0,
,0.027,-1.576,0.292,375.366,414.062,853.393,0,0,0,
,0.321,-2.112,0.457,210.815,163.025,468.628,0,0,0,
,0.029,-1.984,0.732,-18.372,0.061,-96.009,0,0,0,
,-0.348,-1.635,0.789,57.556,-82.398,-497.681,0,0,0,
,-0.521,-1.317,0.658,304.748,-190.247,-744.263,0,0,0,
,-0.657,-1.112,0.568,464.477,-250.306,-866.028,0,0,0,
,-0.728,-0.863,0.564,336.059,-265.381,-908.57,0,0,0,
,-0.765,-0.572,0.606,91.003,-278.443,-887.696,0,0,0,
,-0.804,-0.335,0.585,-106.385,-268.494,-781.922,0,0,0,
,-0.796,-0.037,0.549,-290.711,-223.511,-566.895,0,0,0,
,-0.775,0.077,0.527,-442.81,-143.799,-296.509,0,0,0,
,-0.76,0.004,0.567,-856.324,96.74,305.542,0,0,0,
,-0.688,-0.007,0.543,-713.99,314.514,595.214,0,0,0,
,-0.521,-0.074,0.3,-319.947,459.228,821.777,0,0,0,
,-0.346,-0.505,0.254,72.57,534.057,885.803,0,0,0,
,0.161,-1.288,0.368,277.465,464.05,785.766,0,0,0,
,0.246,-1.676,0.532,169.128,244.201,410.583,0,0,0,
,-0.044,-1.629,0.727,138.061,98.266,-72.754,0,0,0,
,-0.301,-1.393,0.743,378.173,-31.311,-404.908,0,0,0,
,-0.479,-1.096,0.59,640.869,-133.912,-594.3,0,0,0,
,-0.564,-0.867,0.448,991.516,-186.89,-684.388,0,0,0,
,-0.647,-0.755,0.404,997.314,-189.576,-689.454,0,0,0,
,-0.736,-0.53,0.435,717.163,-208.13,-636.292,0,0,0,
,-0.816,-0.332,0.515,450.561,-154.847,-478.211,0,0,0,
,-0.837,-0.003,0.509,-781.189,93.383,440.063,0,0,0,
,-0.712,-0.004,0.331,-633.545,259.033,743.408,0,0,0,
,-0.462,-0.226,0.181,-324.891,320.129,922.18,0,0,0,
,-0.254,-0.878,0.276,-224.06,294.922,930.603,0,0,0,
,0.119,-1.392,0.519,-114.319,161.438,700.012,0,0,0,
,0.056,-1.633,0.814,92.529,47.912,259.643,0,0,0,
,-0.185,-1.628,0.918,295.593,-19.776,-187.745,0,0,0,
,-0.511,-1.16,0.524,709.838,-221.68,-678.711,0,0,0,
,-0.621,-0.847,0.468,781.677,-269.715,-771.851,0,0,0,
,-0.737,-0.645,0.41,586.364,-303.589,-773.865,0,0,0,
,0.125,-1.744,0.585,243.835,405.517,150.085,0,0,0,
,-0.132,-1.679,0.771,219.238,142.578,-158.02,0,0,0,
,-0.305,-1.352,0.75,247.863,-94.544,-365.479,0,0,0,
,-0.409,-1.151,0.583,360.962,-304.81,-515.931,0,0,0,
,-0.478,-1.048,0.521,472.961,-464.905,-616.211,0,0,0,
,-0.572,-0.831,0.543,441.467,-579.59,-658.265,0,0,0,
,-0.615,-0.667,0.526,369.323,-632.569,-656.128,0,0,0,
,-0.613,-0.483,0.407,287.658,-626.831,-587.891,0,0,0,
,-0.642,-0.38,0.289,159.79,-585.694,-460.45,0,0,0,
,-0.743,-0.427,0.23,-69.947,-428.65,-270.63,0,0,0,
,-0.852,-0.272,0.288,-407.288,-207.581,-41.81,0,0,0,
,-0.874,-0.373,0.35,-590.882,76.904,185.974,0,0,0,
,-0.85,-0.397,0.334,-671.265,384.094,443.054,0,0,0,
,-0.783,-0.384,0.112,-705.323,630.066,651.428,0,0,0,
,-0.513,-0.544,-0.024,-822.327,731.811,731.14,0,0,0,
,-0.234,-1.013,0.242,-1011.109,687.133,598.022,0,0,0,
,-0.057,-1.201,0.778,-859.559,500.244,324.89,0,0,0,
,-0.181,-1.211,0.999,-416.443,278.137,44.25,0,0,0,
,-0.26,-1.176,0.987,2.99,20.874,-176.087,0,0,0,
,-0.374,-1.036,0.83,396.362,-222.779,-337.586,0,0,0,
,-0.498,-0.958,0.679,681.762,-382.63,-446.839,0,0,0,
,-0.587,-0.841,0.547,606.445,-473.572,-484.192,0,0,0,
,-0.699,-0.463,0.503,426.391,-477.051,-454.041,0,0,0,
,-0.856,-0.293,0.418,414.245,-381.226,-366.15,0,0,0,
,-0.896,-0.292,0.327,259.887,-210.755,-184.449,0,0,0,
,-0.886,-0.321,0.284,-169.983,-18.433,55.236,0,0,0,
,-0.831,-0.304,0.321,-446.717,225.28,319.946,0,0,0,
,-0.772,-0.379,0.253,-513.123,478.454,561.035,0,0,0,
,-0.609,-0.316,0.22,-434.815,670.654,708.74,0,0,0,
,-0.315,-0.543,0.355,-252.564,757.202,735.656,0,0,0,
,0.116,-1.38,0.695,83.923,526.611,338.317,0,0,0,
,0.096,-1.575,0.827,113.22,245.056,-5.921,0,0,0,
,-0.097,-1.504,0.879,212.707,-12.818,-292.298,0,0,0,
,-0.275,-1.206,0.816,328.125,-236.451,-500.306,0,0,0,
,-0.377,-1.038,0.653,510.192,-400.94,-652.039,0,0,0,
,-0.458,-0.822,0.511,510.437,-501.954,-702.576,0,0,0,
,-0.54,-0.563,0.481,431.396,-549.195,-718.323,0,0,0,
,-0.604,-0.376,0.415,369.14,-540.039,-631.897,0,0,0,
,-0.683,-0.313,0.372,265.136,-460.083,-441.04,0,0,0,
,-0.794,-0.305,0.331,98.877,-305.909,-200.379,0,0,0,
,-0.834,-0.272,0.342,-244.202,-79.895,92.468,0,0,0,
,-0.807,-0.297,0.326,-501.404,209.289,372.253,0,0,0,
,-0.505,-0.375,0.103,-524.903,696.96,788.879,0,0,0,
,-0.227,-0.925,0.22,-393.677,747.924,793.09,0,0,0,
,0.164,-1.487,0.627,-364.136,604.248,590.881,0,0,0,
,0.069,-1.545,0.906,-385.498,323.852,195.373,0,0,0,
,-0.043,-1.493,0.979,-195.862,83.435,-207.337,0,0,0,
,-0.233,-1.146,0.883,118.469,-185.975,-495.179,0,0,0,
,-0.433,-1.012,0.689,469.238,-386.292,-651.001,0,0,0,
,-0.53,-0.886,0.657,616.577,-534.18,-727.356,0,0,0,
,-0.635,-0.552,0.587,494.018,-587.769,-714.173,0,0,0,
,-0.697,-0.328,0.502,440.979,-551.392,-608.216,0,0,0,
,-0.792,-0.268,0.399,280.7,-458.497,-444.581,0,0,0,
,-0.852,-0.189,0.343,-93.628,-305.42,-195.618,0,0,0,
,-0.924,-0.056,0.354,-554.627,-107.361,91.613,0,0,0,
,-0.45,-0.209,0.193,-247.62,639.16,842.224,0,0,0,
,-0.2,-1.021,0.359,-43.641,626.403,811.279,0,0,0,
,0.169,-1.65,0.698,-108.155,474.792,597.961,0,0,0,
,0.124,-1.762,0.952,-184.082,221.557,169.86,0,0,0,
,-0.101,-1.589,1.009,-23.316,17.822,-237.305,0,0,0,
,-0.275,-1.267,0.829,239.624,-180.542,-516.175,0,0,0,
,-0.405,-1.045,0.636,565.979,-358.582,-666.016,0,0,0,
,-0.483,-0.892,0.571,757.08,-477.417,-727.601,0,0,0,
,-0.55,-0.501,0.539,741.088,-507.081,-698.731,0,0,0,
,-0.611,-0.257,0.447,708.374,-476.197,-611.023,0,0,0,
,-0.729,-0.098,0.351,580.505,-382.569,-409.302,0,0,0,
,-0.771,-0.061,0.301,286.804,-244.812,-122.498,0,0,0,
,-0.796,-0.094,0.318,-232.239,-97.229,224.365,0,0,0,
,-0.795,-0.028,0.31,-520.142,103.271,578.125,0,0,0,
,-0.68,-0.146,0.214,-519.715,336.975,869.629,0,0,0,
,-0.397,-0.544,0.088,-429.383,451.355,999.328,0,0,0,
,-0.053,-1.381,0.183,-476.868,463.195,901.062,0,0,0,
,0.196,-1.77,0.584,-643.067,329.284,506.897,0,0,0,
,0.03,-1.766,0.927,-604.248,203.979,16.784,0,0,0,
,-0.201,-1.449,1.004,-284.363,23.071,-351.258,0,0,0,
,-0.372,-1.124,0.736,86.608,-194.703,-565.918,0,0,0,
,-0.509,-0.96,0.63,461.853,-422.73,-658.143,0,0,0,
,-0.631,-0.779,0.635,624.694,-527.588,-677.613,0,0,0,
,-0.734,-0.423,0.6,539.062,-556.58,-643.128,0,0,0,
,-0.809,-0.341,0.502,419.067,-491.822,-526.246,0,0,0,
,-0.872,-0.25,0.386,55.969,-385.987,-330.567,0,0,0,
,-0.947,-0.141,0.345,-458.008,-210.511,-68.238,0,0,0,
,-0.938,-0.157,0.343,-791.993,64.025,233.52,0,0,0,
,-0.802,-0.114,0.224,-808.472,380.737,505.615,0,0,0,
,-0.515,-0.376,0.126,-566.04,624.572,641.662,0,0,0,
,-0.212,-1.003,0.302,-308.655,717.407,572.082,0,0,0,
,0.021,-1.491,0.602,-71.045,604.248,309.204,0,0,0,
,-0.078,-1.526,0.792,101.867,383.606,-39.795,0,0,0,
,-0.252,-1.369,0.83,306.823,142.517,-354.31,0,0,0,
,-0.436,-1.105,0.761,589.477,-92.713,-542.298,0,0,0,
,-0.519,-0.888,0.627,730.59,-256.836,-624.207,0,0,0,
,-0.565,-0.653,0.589,671.936,-361.023,-659.546,0,0,0,
,-0.65,-0.361,0.518,516.906,-399.476,-603.76,0,0,0,
,-0.788,-0.143,0.436,289.123,-370.118,-458.741,0,0,0,
,-0.832,-0.034,0.332,69.152,-268.189,-207.032,0,0,0,
,-0.866,-0.067,0.279,-228.15,-142.945,91.857,0,0,0,
,-0.814,-0.078,0.258,-484.07,63.354,423.828,0,0,0,
,-0.774,-0.071,0.126,-712.83,312.805,691.101,0,0,0,
,-0.539,-0.103,0.117,-701.05,558.044,887.695,0,0,0,
,-0.185,-0.417,0.215,-470.887,656.982,955.383,0,0,0,
,0.036,-1.189,0.507,-224.488,663.025,824.218,0,0,0,
,0.381,-1.848,0.799,-86.426,480.285,541.626,0,0,0,
,0.219,-2.037,0.924,-81.543,239.746,95.398,0,0,0,
,-0.026,-1.815,0.962,-9.705,8.911,-294.861,0,0,0,
,-0.272,-1.381,0.826,85.388,-214.173,-579.956,0,0,0,
,-0.442,-1.198,0.799,372.741,-374.695,-767.029,0,0,0,
,-0.571,-0.906,0.683,502.319,-462.22,-847.046,0,0,0,
,-0.613,-0.627,0.594,464.782,-459.046,-855.469,0,0,0,
,-0.656,-0.251,0.496,408.996,-409.058,-759.095,0,0,0,
,-0.821,0.005,0.36,404.541,-279.725,-571.534,0,0,0,
,-0.939,0.18,0.34,322.754,-77.149,-283.265,0,0,0,
,-0.924,0.073,0.432,63.354,178.283,65.124,0,0,0,
,-0.925,-0.06,0.524,-340.088,438.354,426.391,0,0,0,
,-0.845,0.12,0.376,-507.447,672.424,763.672,0,0,0,
,-0.504,-0.056,0.242,-428.894,783.203,968.078,0,0,0,
,-0.165,-0.958,0.328,-377.747,680.42,974.304,0,0,0,
,0.291,-1.892,0.824,-654.236,435.18,744.262,0,0,0,
,0.237,-1.818,1.066,-732.117,92.834,285.339,0,0,0,
,0.064,-1.594,1.15,-461.304,-164.917,-159.974,0,0,0,
,-0.128,-1.263,0.912,130.371,-387.513,-451.172,0,0,0,
,-0.259,-1.002,0.667,518.371,-566.651,-618.958,0,0,0,
,-0.418,-0.69,0.552,787.109,-623.597,-696.289,0,0,0,
,-0.585,-0.389,0.435,842.834,-556.885,-673.89,0,0,0,
,-0.78,-0.171,0.313,671.569,-387.085,-571.717,0,0,0,
,-0.909,-0.027,0.227,369.934,-177.552,-364.075,0,0,0,
,-0.931,-0.003,0.253,-144.471,51.94,-49.012,0,0,0,
,-0.904,0.168,0.288,-414.49,288.635,312.133,0,0,0,
,-0.61,0.054,0.303,-231.08,494.751,615.905,0,0,0,
,-0.308,-0.524,0.282,-44.8,486.328,746.948,0,0,0,
,0.079,-1.475,0.492,12.817,371.276,653.808,0,0,0,
,0.171,-1.88,0.843,-81.177,108.703,309.814,0,0,0,
,-0.106,-1.703,1.014,-93.384,-74.219,-107.789,0,0,0,
,-0.355,-1.347,0.88,118.347,-220.459,-419.129,0,0,0,
,-0.475,-1.037,0.606,351.745,-345.093,-579.895,0,0,0,
,-0.602,-0.773,0.497,465.515,-418.213,-628.968,0,0,0,
,-0.743,-0.376,0.427,435.669,-410.218,-583.68,0,0,0,
,-0.848,-0.183,0.35,423.034,-305.726,-446.351,0,0,0,
,-0.879,-0.102,0.29,238.525,-161.56,-212.647,0,0,0,
,-0.898,-0.119,0.328,-154.786,15.564,95.642,0,0,0,
,-0.809,-0.005,0.274,-465.699,212.28,430.175,0,0,0,
,-0.64,0.011,0.187,-496.033,438.171,695.007,0,0,0,
,-0.194,-0.411,0.176,-261.048,544.738,847.595,0,0,0,
,0.032,-1.238,0.397,-131.226,486.938,796.081,0,0,0,
,0.276,-1.726,0.806,-128.846,329.223,500.488,0,0,0,
,0.094,-1.889,0.999,-98.938,178.955,104.675,0,0,0,
,-0.13,-1.693,0.94,40.466,32.531,-291.199,0,0,0,
,-0.323,-1.317,0.783,160.949,-142.334,-572.51,0,0,0,
,-0.452,-1.114,0.642,372.009,-307.129,-746.827,0,0,0,
,-0.565,-0.987,0.541,519.165,-417.115,-791.443,0,0,0,
,-0.586,-0.598,0.469,422.973,-462.403,-765.076,0,0,0,
,-0.678,-0.23,0.384,309.814,-428.101,-670.289,0,0,0,
,-0.756,-0.037,0.261,211.242,-316.224,-483.399,0,0,0,
,-0.856,0.088,0.27,31.127,-151.673,-209.717,0,0,0,
,-0.872,0.029,0.308,-218.506,49.133,114.441,0,0,0,
,-0.839,0.007,0.268,-317.383,247.985,452.942,0,0,0,
,-0.621,-0.158,0.168,-235.352,401.001,700.195,0,0,0,
,-0.394,-0.758,0.203,-127.259,414.123,764.404,0,0,0,
,-0.073,-1.603,0.491,-270.691,330.505,634.094,0,0,0,
,0.03,-1.98,0.798,-530.03,115.173,237.06,0,0,0,
,-0.135,-1.793,1,-667.969,-38.697,-214.844,0,0,0,
,-0.377,-1.316,0.947,-436.585,-169.19,-550.843,0,0,0,
,-0.492,-0.91,0.737,-56.275,-296.326,-702.515,0,0,0,
,-0.562,-0.53,0.615,358.215,-367.676,-698.182,0,0,0,
,-0.709,-0.217,0.456,699.035,-351.99,-616.822,0,0,0,
,-0.798,-0.097,0.332,876.953,-233.765,-452.637,0,0,0,
,-0.824,-0.16,0.255,719.848,-48.584,-232.666,0,0,0,
,-0.871,-0.21,0.207,251.281,131.958,56.945,0,0,0,
,-0.778,-0.189,0.141,-127.93,320.373,383.484,0,0,0,
,-0.674,-0.179,0.143,-284.241,479.065,643.859,0,0,0,
,-0.502,-0.397,0.256,-189.759,573.12,788.757,0,0,0,
,-0.162,-1.118,0.422,27.526,551.086,750.244,0,0,0,
,0.031,-1.564,0.582,-3.052,417.785,523.742,0,0,0,
,0.045,-1.713,0.746,-50.11,220.092,149.109,0,0,0,
,-0.164,-1.5,0.813,-22.522,38.024,-240.479,0,0,0,
,-0.363,-1.192,0.749,112.06,-128.724,-513.123,0,0,0,
,-0.444,-0.96,0.651,352.417,-291.321,-615.662,0,0,0,
,-0.519,-0.572,0.555,455.139,-381.104,-615.052,0,0,0,
,-0.639,-0.282,0.432,545.166,-403.565,-536.377,0,0,0,
,-0.733,-0.162,0.324,512.024,-353.394,-345.948,0,0,0,
,-0.791,-0.16,0.282,244.629,-256.653,-112.732,0,0,0,
,-0.818,-0.165,0.351,-222.779,-106.812,184.753,0,0,0,
,-0.758,-0.161,0.333,-541.504,87.951,491.027,0,0,0,
,-0.618,-0.111,0.322,-516.907,277.588,722.595,0,0,0,
,-0.271,-0.592,0.34,-117.981,350.463,865.6,0,0,0,
,-0.01,-1.228,0.441,184.082,302.795,842.407,0,0,0,
,0.246,-1.653,0.617,350.891,146.606,554.626,0,0,0,
,0.045,-1.723,0.658,406.616,19.104,104.126,0,0,0,
,-0.233,-1.557,0.597,447.631,-98.511,-295.411,0,0,0,
,-0.399,-1.298,0.543,531.433,-204.163,-525.696,0,0,0,
,-0.533,-1.156,0.409,636.291,-280.213,-687.5,0,0,0,
,-0.607,-1.06,0.306,492.553,-304.383,-731.751,0,0,0,
,-0.676,-0.797,0.263,87.28,-326.966,-695.74,0,0,0,
,-0.758,-0.43,0.233,-234.192,-319.947,-575.867,0,0,0,
,-0.824,-0.305,0.204,-436.89,-247.803,-362.732,0,0,0,
,-0.844,-0.21,0.247,-754.212,-156.128,-89.722,0,0,0,
,-0.827,-0.184,0.302,-940.613,11.352,192.81,0,0,0,
,-0.682,-0.263,0.252,-886.658,231.445,450.561,0,0,0,
,-0.461,-0.43,0.157,-681.031,392.578,630.371,0,0,0,
,-0.199,-0.987,0.166,-699.158,453.735,665.954,0,0,0,
,0.084,-1.456,0.425,-804.444,368.713,500.854,0,0,0,
,0.017,-1.415,0.781,-848.267,245.727,152.343,0,0,0,
,-0.171,-1.24,0.967,-667.298,131.225,-216.614,0,0,0,
,-0.34,-1.003,0.926,-342.774,-28.321,-470.032,0,0,0,
,-0.506,-0.836,0.776,140.38,-193.299,-584.534,0,0,0,
,-0.609,-0.748,0.637,405.944,-327.21,-593.262,0,0,0,
,-0.749,-0.484,0.536,447.387,-417.969,-526.062,0,0,0,
,-0.835,-0.238,0.473,431.03,-440.613,-361.451,0,0,0,
,-0.946,-0.082,0.402,222.351,-399.72,-157.166,0,0,0,
,-1.004,0.033,0.45,-145.935,-287.476,88.44,0,0,0,
,-0.949,0,0.492,-376.16,-82.947,365.783,0,0,0,
,-0.829,0.023,0.453,-180.97,152.404,657.776,0,0,0,
,-0.384,-0.324,0.332,223.144,286.132,858.764,0,0,0,
,0.014,-1.215,0.273,302.124,282.348,810.974,0,0,0,
,0.262,-1.75,0.532,13.061,214.782,477.05,0,0,0,
,0.12,-1.755,0.789,-131.226,147.827,29.602,0,0,0,
,-0.179,-1.392,0.815,-25.086,89.66,-308.533,0,0,0,
,-0.349,-1.078,0.678,190.612,14.953,-529.114,0,0,0,
,-0.468,-0.968,0.55,495.727,-74.158,-617.005,0,0,0,
,-0.595,-0.69,0.479,540.161,-140.259,-607.117,0,0,0,
,-0.724,-0.43,0.438,423.584,-170.472,-556.275,0,0,0,
,-0.828,-0.287,0.39,308.899,-156.128,-435.425,0,0,0,
,-0.887,-0.173,0.419,82.641,-105.042,-206.788,0,0,0,
,-0.892,-0.135,0.498,-223.023,-16.297,24.78,0,0,0,
,-0.82,-0.137,0.509,-359.192,117.981,303.527,0,0,0,
,-0.701,-0.118,0.461,-134.949,281.921,556.762,0,0,0,
,-0.273,-0.459,0.277,243.53,342.163,707.885,0,0,0,
,0.063,-1.286,0.268,301.269,291.748,607.971,0,0,0,
,0.208,-1.732,0.473,-82.032,134.948,241.943,0,0,0,
,-0.126,-1.546,0.782,-319.519,45.654,-159.119,0,0,0,
,-0.339,-1.219,0.814,-131.226,-38.575,-393.677,0,0,0,
,-0.43,-0.871,0.581,188.415,-117.615,-527.283,0,0,0,
,-0.499,-0.766,0.405,480.041,-194.886,-605.957,0,0,0,
,-0.601,-0.654,0.34,638.366,-239.808,-606.019,0,0,0,
,-0.698,-0.513,0.319,711.425,-266.541,-540.101,0,0,0,
,-0.73,-0.433,0.343,751.648,-261.353,-417.542,0,0,0,
,-0.769,-0.493,0.336,576.11,-212.586,-223.206,0,0,0,
,-0.811,-0.363,0.346,153.015,-117.188,10.009,0,0,0,
,-0.772,-0.381,0.39,-284.241,53.039,256.286,0,0,0,
,-0.758,-0.357,0.35,-539.612,251.892,490.539,0,0,0,
,-0.664,-0.317,0.269,-525.635,484.558,719.787,0,0,0,
,-0.507,-0.341,0.174,-231.812,629.272,885.864,0,0,0,
,-0.244,-0.855,0.175,-115.601,685.73,932.251,0,0,0,
,0.057,-1.353,0.384,-154.053,585.388,791.442,0,0,0,
,0.107,-1.574,0.575,-322.632,369.629,452.087,0,0,0,
,-0.067,-1.511,0.757,-292.603,170.41,84.899,0,0,0,
,-0.239,-1.303,0.78,-40.65,-39.002,-180.909,0,0,0,
,-0.383,-1.076,0.721,198.486,-224.06,-375.55,0,0,0,
,-0.502,-0.938,0.696,533.264,-362.427,-490.601,0,0,0,
,-0.583,-0.865,0.606,785.644,-428.833,-537.598,0,0,0,
,-0.613,-0.839,0.495,894.47,-452.454,-549.256,0,0,0,
,-0.614,-0.863,0.334,823.242,-450.379,-529.297,0,0,0,
,-0.626,-0.828,0.229,564.697,-426.148,-462.708,0,0,0,
,-0.68,-0.777,0.183,223.755,-344.666,-348.328,0,0,0,
,-0.739,-0.714,0.198,-160.584,-178.65,-193.299,0,0,0,
,-0.728,-0.61,0.246,-425.049,69.336,-20.813,0,0,0,
,-0.674,-0.663,0.233,-534.79,344.116,155.639,0,0,0,
,-0.627,-0.641,0.226,-635.926,592.956,303.772,0,0,0,
,-0.482,-0.702,0.295,-726.197,768.127,384.155,0,0,0,
,-0.303,-0.902,0.578,-923.218,743.591,328.43,0,0,0,
,-0.144,-1.112,0.85,-1213.318,500.549,122.009,0,0,0,
,-0.063,-0.995,0.947,-1350.281,73.974,-107.422,0,0,0,
,-0.148,-0.656,0.936,-963.562,-380.433,-213.562,0,0,0,
,-0.296,-0.555,0.862,-231.812,-768.006,-220.887,0,0,0,
,-0.397,-0.459,0.599,504.089,-1012.024,-183.045,0,0,0,
,-0.548,-0.623,0.376,1007.019,-993.348,-195.008,0,0,0,
,-0.65,-0.823,0.166,967.346,-787.354,-217.041,0,0,0,
,-0.685,-0.771,-0.059,647.888,-500.855,-217.286,0,0,0,
,-0.731,-0.73,-0.253,411.193,-130.677,-165.223,0,0,0,
,-0.697,-0.679,-0.327,147.583,224.06,-28.992,0,0,0,
,-0.627,-0.524,-0.268,-68.604,509.826,124.878,0,0,0,
,-0.537,-0.454,-0.04,-219.971,735.046,236.694,0,0,0,
,-0.47,-0.413,0.134,-249.146,876.953,316.223,0,0,0,
,-0.399,-0.429,0.421,-158.509,949.34,378.112,0,0,0,
,-0.29,-0.567,0.634,12.573,887.451,414.978,0,0,0,
,-0.189,-0.789,0.791,85.998,727.356,408.691,0,0,0,
,-0.137,-0.983,0.926,54.077,479.431,328.979,0,0,0,
,-0.131,-1.142,1.08,0,168.884,184.814,0,0,0,
,-0.218,-1.161,1.144,0.549,-162.11,15.441,0,0,0,
,-0.327,-1.087,1.122,167.114,-451.355,-135.56,0,0,0,
,-0.42,-1.101,1.012,386.108,-698.609,-243.47,0,0,0,
,-0.503,-0.947,0.781,630.432,-867.859,-290.039,0,0,0,
,-0.532,-0.944,0.511,807.373,-943.665,-344.91,0,0,0,
,-0.553,-0.917,0.325,822.692,-951.416,-381.409,0,0,0,
,-0.576,-0.838,0.079,702.819,-885.804,-390.931,0,0,0,
,-0.621,-0.857,-0.141,405.517,-710.572,-367.005,0,0,0,
,-0.704,-0.769,-0.247,0.061,-451.05,-270.752,0,0,0,
,-0.754,-0.692,-0.225,-259.339,-100.769,-126.954,0,0,0,
,-0.748,-0.636,-0.087,-413.147,283.325,45.837,0,0,0,
,-0.31,-0.727,0.51,-399.537,895.202,218.383,0,0,0,
,-0.172,-0.887,0.788,-529.236,692.81,69.58,0,0,0,
,-0.175,-0.975,0.88,-505.372,298.217,-88.562,0,0,0,
,-0.261,-0.835,0.854,-311.097,-156.8,-128.663,0,0,0,
,-0.368,-0.653,0.733,119.751,-538.086,-145.874,0,0,0,
,-0.449,-0.681,0.502,587.585,-788.819,-170.227,0,0,0,
,-0.571,-0.802,0.284,793.029,-872.925,-200.928,0,0,0,
,-0.699,-0.867,0.109,693.725,-727.845,-200.257,0,0,0,
,-0.754,-0.838,-0.075,380.432,-409.18,-178.711,0,0,0,
,-0.79,-0.862,-0.21,81.054,1.892,-122.803,0,0,0,
,-0.757,-0.753,-0.269,-164.368,397.583,5.432,0,0,0,
,-0.682,-0.579,-0.234,-261.841,715.271,144.592,0,0,0,
,-0.533,-0.543,0.085,-300.782,916.626,220.092,0,0,0,
,-0.39,-0.548,0.394,-301.453,907.043,229.858,0,0,0,
,-0.264,-0.754,0.676,-296.265,701.538,160.949,0,0,0,
,-0.258,-0.823,0.912,-379.151,361.206,37.536,0,0,0,
,-0.321,-0.806,1.078,-232.544,-2.686,-62.439,0,0,0,
,-0.417,-0.819,1.014,140.625,-355.53,-123.23,0,0,0,
,-0.458,-0.824,0.789,603.942,-636.414,-149.964,0,0,0,
,-0.533,-0.848,0.557,1006.652,-814.087,-181.946,0,0,0,
,-0.656,-0.892,0.281,1203.125,-860.23,-208.863,0,0,0,
,-0.705,-1.103,-0.126,-278.504,-130.921,-157.349,0,0,0,
,-0.713,-0.93,-0.26,-702.454,236.633,-46.509,0,0,0,
,-0.67,-0.665,-0.272,-749.695,569.213,97.656,0,0,0,
,-0.594,-0.586,-0.134,-647.339,818.054,214.843,0,0,0,
,-0.506,-0.555,0.165,-570.496,930.481,233.093,0,0,0,
,-0.334,-0.844,1.032,-186.341,361.511,-53.101,0,0,0,
,-0.354,-0.857,1.021,67.688,-4.334,-124.39,0,0,0,
,-0.426,-0.802,0.904,461.914,-343.079,-166.81,0,0,0,
,-0.448,-0.928,0.707,788.635,-612.305,-201.111,0,0,0,
,-0.482,-0.98,0.461,865.234,-785.401,-236.512,0,0,0,
,-0.554,-0.959,0.268,788.086,-809.937,-249.207,0,0,0,
,-0.592,-0.938,0.098,477.722,-706.238,-251.526,0,0,0,
,-0.656,-0.806,-0.088,86.242,-486.084,-212.769,0,0,0,
,-0.707,-0.804,-0.238,-270.508,-146.729,-149.72,0,0,0,
,-0.71,-0.621,-0.363,-434.998,214.721,8.728,0,0,0,
,-0.661,-0.543,-0.344,-403.138,551.147,195.8,0,0,0,
,-0.591,-0.527,-0.096,-313.172,800.842,335.327,0,0,0,
,-0.372,-0.661,0.438,-203.553,818.542,349.243,0,0,0,
,-0.276,-0.869,0.686,-253.54,604.797,222.229,0,0,0,
,-0.256,-0.986,0.887,-278.016,261.84,57.678,0,0,0,
,-0.327,-0.961,0.946,-84.412,-92.713,-45.838,0,0,0,
,-0.418,-0.881,0.708,518.493,-660.096,-142.029,0,0,0,
,-0.471,-0.977,0.384,576.294,-808.167,-199.524,0,0,0,
,-0.568,-0.912,0.195,458.862,-806.946,-205.201,0,0,0,
,-0.636,-0.858,0.067,227.539,-641.48,-201.172,0,0,0,
,-0.672,-0.789,-0.038,-70.984,-340.21,-155.884,0,0,0,
,-0.676,-0.821,-0.194,-267.518,18.554,-67.994,0,0,0,
,-0.681,-0.661,-0.324,-353.394,366.577,98.388,0,0,0,
,-0.432,-0.675,0.324,-190.064,930.969,398.62,0,0,0,
,-0.322,-0.775,0.52,-205.506,824.524,332.58,0,0,0,
,-0.224,-0.935,0.816,-321.656,566.772,164.917,0,0,0,
,-0.244,-1.066,1.023,-357.727,201.049,-48.584,0,0,0,
,-0.349,-1.054,1.056,-144.715,-196.595,-168.702,0,0,0,
,-0.409,-0.978,0.887,211.914,-545.777,-221.009,0,0,0,
,-0.418,-1.027,0.66,506.408,-816.834,-272.156,0,0,0,
,-0.476,-0.966,0.405,571.35,-931.397,-301.392,0,0,0,
,-0.575,-0.749,0.098,215.515,-742.676,-311.463,0,0,0,
,-0.631,-0.66,-0.108,6.347,-456.421,-264.954,0,0,0,
,-0.665,-0.674,-0.311,-210.267,-96.436,-143.006,0,0,0,
,-0.681,-0.504,-0.204,-464.783,657.47,277.038,0,0,0,
,-0.574,-0.48,-0.126,-471.68,945.556,435.424,0,0,0,
,-0.47,-0.538,0.061,-524.659,1143.493,492.309,0,0,0,
,-0.306,-0.667,0.342,-572.083,1155.456,453.918,0,0,0,
,-0.153,-0.887,0.745,-716.553,995.727,275.817,0,0,0,
,-0.105,-1.127,1.091,-728.028,673.828,27.954,0,0,0,
,-0.177,-1.142,1.227,-486.512,242.797,-156.556,0,0,0,
,-0.281,-1.031,1.172,-83.68,-196.045,-231.812,0,0,0,
,-0.381,-0.756,1.008,362.915,-549.317,-263.55,0,0,0,
,-0.444,-0.866,0.891,715.576,-802.002,-316.468,0,0,0,
,-0.528,-0.707,0.728,885.62,-940.979,-322.388,0,0,0,
,-0.572,-0.647,0.446,956.298,-934.449,-290.528,0,0,0,
,-0.659,-0.676,0.103,753.601,-786.683,-252.564,0,0,0,
,-0.73,-0.73,-0.108,282.47,-476.197,-134.888,0,0,0,
,-0.792,-0.719,-0.152,-249.512,-47.059,19.897,0,0,0,
,-0.711,-0.589,-0.199,-509.4,410.583,226.379,0,0,0,
,-0.538,-0.481,-0.226,-531.617,809.57,376.037,0,0,0,
,-0.313,-0.673,0.031,-478.211,1034.118,438.232,0,0,0,
,-0.18,-0.868,0.503,-475.953,1033.142,368.774,0,0,0,
,-0.136,-1.055,0.974,-483.094,828.003,193.969,0,0,0,
,-0.188,-1.089,1.205,-420.472,469.604,5.554,0,0,0,
,-0.204,-1.016,1.178,-264.771,8.483,-125,0,0,0,
,-0.284,-0.782,1.005,49.865,-431.153,-173.645,0,0,0,
,-0.347,-0.609,0.849,509.948,-769.593,-192.81,0,0,0,
,-0.493,-0.692,0.593,843.994,-942.2,-213.685,0,0,0,
,-0.608,-0.682,0.261,899.536,-906.373,-198.121,0,0,0,
,-0.646,-0.813,0.021,562.561,-679.749,-163.758,0,0,0,
,-0.663,-0.818,-0.145,104.553,-313.111,-90.76,0,0,0,
,-0.666,-0.766,-0.258,-247.193,100.83,27.71,0,0,0,
,-0.589,-0.616,-0.301,-338.929,447.57,170.105,0,0,0,
,-0.453,-0.655,-0.055,-274.964,691.467,252.746,0,0,0,
,-0.327,-0.783,0.319,-237.244,757.568,255.554,0,0,0,
,-0.277,-0.922,0.662,-217.957,656.677,175.781,0,0,0,
,-0.266,-1.011,0.856,-220.643,402.099,54.87,0,0,0,
,-0.285,-0.999,0.896,-153.931,56.396,-55.603,0,0,0,
,-0.33,-0.856,0.843,69.702,-289.917,-118.47,0,0,0,
,-0.428,-0.757,0.732,441.772,-552.552,-143.921,0,0,0,
,-0.482,-0.829,0.609,755.859,-722.535,-173.706,0,0,0,
,-0.562,-0.902,0.507,752.38,-726.197,-191.04,0,0,0,
,-0.624,-0.85,0.147,513.183,-581.116,-222.779,0,0,0,
,-0.666,-0.946,-0.148,154.602,-241.211,-186.951,0,0,0,
,-0.695,-0.906,-0.222,-289.917,141.723,-103.943,0,0,0,
,-0.663,-0.785,-0.21,-539.917,559.448,18.554,0,0,0,
,-0.584,-0.573,-0.249,-549.866,881.836,156.433,0,0,0,
,-0.399,-0.608,-0.025,-454.346,1068.908,235.473,0,0,0,
,-0.288,-0.789,0.433,-452.088,1091.735,218.933,0,0,0,
,-0.198,-0.922,0.882,-493.164,915.588,141.601,0,0,0,
,-0.164,-0.987,1.08,-483.643,569.519,30.273,0,0,0,
,-0.185,-0.874,1.188,-370.667,154.541,-62.806,0,0,0,
,-0.264,-0.664,1.134,-39.246,-239.624,-110.291,0,0,0,
,-0.298,-0.743,1.027,435.669,-585.999,-157.715,0,0,0,
,-0.369,-0.753,0.898,778.808,-866.15,-176.514,0,0,0,
,-0.395,-0.79,0.731,1026.916,-1018.86,-208.619,0,0,0,
,-0.453,-0.877,0.442,979.004,-1008.606,-270.935,0,0,0,
,-0.502,-0.892,0.018,718.933,-846.375,-293.213,0,0,0,
,-0.62,-0.911,-0.315,220.825,-523.072,-274.476,0,0,0,
,-0.689,-0.79,-0.359,-310.608,-91.309,-175.232,0,0,0,
,-0.671,-0.719,-0.309,-547.791,376.77,-19.41,0,0,0,
,-0.577,-0.595,-0.275,-549.439,787.902,161.316,0,0,0,
,-0.426,-0.555,-0.115,-448.121,1042.053,289.062,0,0,0,
,-0.223,-0.765,0.215,-458.435,1051.574,295.41,0,0,0,
,-0.198,-1.007,1.071,-885.56,498.657,-18.677,0,0,0,
,-0.274,-0.858,1.26,-774.598,70.983,-144.288,0,0,0,
,-0.354,-0.653,1.147,-317.261,-308.594,-167.42,0,0,0,
,-0.365,-0.629,0.94,354.248,-615.174,-146.973,0,0,0,
,-0.476,-0.711,0.748,762.207,-765.198,-131.775,0,0,0,
,-0.561,-0.75,0.397,855.163,-715.638,-133.057,0,0,0,
,-0.615,-0.824,0.166,545.41,-481.629,-131.897,0,0,0,
,-0.661,-0.834,0.028,40.893,-108.277,-92.835,0,0,0,
,-0.707,-0.651,-0.221,-381.287,294.311,-13.489,0,0,0,
,-0.625,-0.597,-0.234,-572.022,655.334,103.759,0,0,0,
,-0.496,-0.56,0.124,-536.438,884.46,206.237,0,0,0,
,-0.369,-0.652,0.55,-387.513,918.457,260.254,0,0,0,
,-0.231,-0.793,0.793,-294.8,743.835,244.384,0,0,0,
,-0.192,-0.85,0.957,-230.774,436.828,133.85,0,0,0,
,-0.178,-0.965,1.078,-127.991,45.959,-12.635,0,0,0,
,-0.286,-0.983,1.071,172.79,-358.46,-109.375,0,0,0,
,-0.378,-0.9,0.971,536.377,-714.722,-150.391,0,0,0,
,-0.449,-0.81,0.857,886.474,-966.858,-187.012,0,0,0,
,-0.489,-0.823,0.745,1054.443,-1065.552,-236.939,0,0,0,
,-0.496,-0.803,0.392,937.011,-1073.731,-308.472,0,0,0,
,-0.509,-0.866,0.008,671.692,-953.248,-318.055,0,0,0,
,-0.589,-0.842,-0.237,253.112,-685.547,-256.104,0,0,0,
,-0.628,-0.783,-0.245,-218.079,-291.26,-132.813,0,0,0,
,-0.664,-0.704,-0.26,-480.408,169.311,28.076,0,0,0,
,-0.653,-0.524,-0.386,-531.556,599.853,199.035,0,0,0,
,-0.524,-0.381,-0.422,-409.668,961.792,351.257,0,0,0,
,-0.377,-0.619,-0.055,-359.925,1178.527,410.522,0,0,0,
,-0.282,-0.798,0.395,-416.382,1169.738,381.225,0,0,0,
,-0.198,-1.002,0.761,-496.277,975.158,266.052,0,0,0,
,-0.155,-1.113,1.017,-623.902,608.093,65.246,0,0,0,
,-0.193,-1.004,1.218,-565.613,150.817,-100.098,0,0,0,
,-0.316,-0.781,1.153,-176.148,-287.598,-218.018,0,0,0,
,-0.394,-0.655,1.025,399.902,-652.588,-263.733,0,0,0,
,-0.46,-0.815,0.9,821.411,-958.924,-295.044,0,0,0,
,-0.561,-0.731,0.779,1070.617,-1091.919,-299.5,0,0,0,
,-0.546,-0.797,0.501,1047.485,-1050.843,-320.557,0,0,0,
,-0.594,-0.843,0.114,714.172,-796.143,-321.106,0,0,0,
,-0.667,-0.934,-0.141,84.106,-375,-272.828,0,0,0,
,-0.735,-0.859,-0.232,-497.742,94.238,-135.132,0,0,0,
,-0.747,-0.607,-0.31,-672.791,527.404,96.252,0,0,0,
,-0.636,-0.532,-0.047,-620.24,896.606,313.476,0,0,0,
,-0.501,-0.483,0.214,-522.4,1057.983,423.828,0,0,0,
,-0.327,-0.747,0.639,-600.22,1013.122,378.234,0,0,0,
,-0.22,-0.787,0.977,-777.71,729.187,216.491,0,0,0,
,-0.163,-0.856,1.105,-760.01,301.391,-0.611,0,0,0,
,-0.245,-0.89,1.116,-465.271,-189.026,-141.297,0,0,0,
,-0.376,-0.73,0.866,269.348,-611.145,-140.87,0,0,0,
,-0.392,-0.711,0.748,976.928,-887.452,-115.418,0,0,0,
,-0.414,-0.84,0.643,1378.662,-1020.142,-162.476,0,0,0,
,-0.483,-0.911,0.286,1298.401,-960.083,-237.488,0,0,0,
,-0.502,-0.982,-0.01,791.076,-741.639,-277.527,0,0,0,
,-0.558,-0.93,-0.204,131.53,-409.363,-267.212,0,0,0,
,-0.627,-0.811,-0.302,-362.244,-48.523,-137.696,0,0,0,
,-0.672,-0.555,-0.331,-548.035,317.199,88.928,0,0,0,
,-0.608,-0.323,-0.299,-417.237,661.56,278.686,0,0,0,
,-0.47,-0.343,-0.175,-272.522,925.354,416.931,0,0,0,
,-0.317,-0.508,0.083,-218.018,1041.87,471.74,0,0,0,
,-0.18,-0.817,0.433,-275.269,1006.347,440.979,0,0,0,
,-0.166,-0.958,0.743,-353.516,827.575,333.496,0,0,0,
,-0.18,-1.101,1.003,-439.026,533.508,177.734,0,0,0,
,-0.247,-1.07,1.188,-433.106,163.818,15.991,0,0,0,
,-0.329,-0.965,1.21,-223.389,-206.788,-103.943,0,0,0,
,-0.423,-0.798,1.063,157.226,-516.419,-173.584,0,0,0,
,-0.473,-0.931,0.979,501.587,-774.414,-228.272,0,0,0,
,-0.537,-0.835,0.853,740.661,-918.885,-248.475,0,0,0,
,-0.514,-0.937,0.352,630.615,-790.528,-289.673,0,0,0,
,-0.547,-0.964,0.031,297.912,-560.547,-279.908,0,0,0,
,-0.608,-0.938,-0.119,-201.905,-223.084,-229.126,0,0,0,
,-0.688,-0.849,-0.145,-543.396,160.156,-101.685,0,0,0,
,-0.672,-0.666,-0.191,-612.122,579.345,58.96,0,0,0,
,-0.599,-0.565,-0.178,-497.254,927.124,205.505,0,0,0,
,-0.455,-0.623,0.068,-494.385,1160.888,274.353,0,0,0,
,-0.303,-0.675,0.412,-549.073,1173.462,245.3,0,0,0,
,-0.166,-0.829,0.732,-578.309,960.937,130.493,0,0,0,
,-0.117,-0.938,1.015,-578.98,592.59,22.277,0,0,0,
,-0.187,-0.767,1.175,-470.643,142.456,-61.524,0,0,0,
,-0.262,-0.556,1.042,-101.441,-261.292,-78.125,0,0,0,
,-0.288,-0.598,0.922,406.067,-622.925,-101.624,0,0,0,
,-0.379,-0.59,0.776,796.814,-891.968,-101.136,0,0,0,
,-0.434,-0.649,0.577,1036.377,-951.355,-118.042,0,0,0,
,-0.49,-0.814,0.263,954.589,-842.164,-140.137,0,0,0,
,-0.569,-0.865,-0.015,648.62,-560.364,-122.742,0,0,0,
,-0.595,-0.879,-0.112,232.666,-181.641,-71.9,0,0,0,
,-0.621,-0.801,-0.169,-69.214,216.98,23.498,0,0,0,
,-0.599,-0.618,-0.225,-157.227,556.762,159.607,0,0,0,
,-0.468,-0.566,-0.098,-122.01,781.25,264.404,0,0,0,
,-0.325,-0.696,0.178,-119.629,853.942,285.278,0,0,0,
,-0.216,-0.9,0.514,-175.782,748.718,212.707,0,0,0,
,-0.19,-1.06,0.784,-307.496,491.821,63.476,0,0,0,
,-0.215,-1.117,1.016,-345.581,137.39,-71.961,0,0,0,
,-0.307,-0.958,1.074,-192.2,-229.371,-146.363,0,0,0,
,-0.397,-0.743,1.011,141.662,-528.992,-183.594,0,0,0,
,-0.454,-0.806,0.878,536.132,-765.564,-217.164,0,0,0,
,-0.496,-0.732,0.687,831.604,-935.12,-224.976,0,0,0,
,-0.521,-0.799,0.568,973.022,-945.496,-239.014,0,0,0,
,-0.534,-0.82,0.237,875.305,-855.652,-250.55,0,0,0,
,-0.566,-0.97,-0.01,483.215,-613.282,-226.258,0,0,0,
,-0.61,-0.957,-0.111,-92.896,-263.123,-166.748,0,0,0,
,-0.626,-0.882,-0.22,-438.721,141.967,-38.88,0,0,0,
,-0.615,-0.701,-0.252,-577.515,542.907,110.595,0,0,0,
,-0.524,-0.571,-0.15,-529.419,887.573,253.296,0,0,0,
,-0.468,-0.673,0.126,-449.707,1148.986,330.139,0,0,0,
,-0.393,-0.672,0.322,-437.317,1255.615,337.463,0,0,0,
,-0.278,-0.862,0.552,-450.562,1176.147,272.094,0,0,0,
,-0.188,-1.005,0.874,-564.942,912.841,145.568,0,0,0,
,-0.174,-1.104,1.155,-717.041,486.45,-11.597,0,0,0,
,-0.272,-0.934,1.263,-715.76,27.587,-115.906,0,0,0,
,-0.336,-0.658,1.219,-392.273,-387.33,-175.293,0,0,0,
,-0.375,-0.692,1.059,19.653,-758.728,-203.064,0,0,0,
,-0.407,-0.578,0.842,445.312,-1038.392,-173.401,0,0,0,
,-0.402,-0.576,0.636,876.037,-1159.791,-146.607,0,0,0,
,-0.354,-0.664,0.267,1084.9,-1111.451,-152.039,0,0,0,
,-0.332,-0.799,-0.155,946.716,-876.709,-146.424,0,0,0,
,-0.373,-0.881,-0.437,462.524,-479.371,-129.7,0,0,0,
,-0.469,-0.817,-0.493,-40.955,1.403,-31.617,0,0,0,
,-0.523,-0.69,-0.412,-242.798,480.957,137.512,0,0,0,
,-0.444,-0.545,-0.136,-311.951,855.041,283.02,0,0,0,
,-0.361,-0.643,0.254,-352.662,1017.151,322.082,0,0,0,
,-0.28,-0.871,0.693,-441.529,950.317,260.437,0,0,0,
,-0.284,-1.048,1.009,-555.97,680.664,134.46,0,0,0,
,-0.295,-1.023,1.171,-637.818,232.971,8.239,0,0,0,
,-0.379,-0.896,1.221,-510.621,-182.923,-72.083,0,0,0,
,-0.461,-0.653,1.022,-57.007,-544.739,-85.633,0,0,0,
,-0.476,-0.774,0.901,481.811,-820.069,-109.07,0,0,0,
,-0.511,-0.782,0.671,770.935,-988.465,-123.414,0,0,0,
,-0.55,-0.811,0.384,927.307,-936.28,-149.903,0,0,0,
,-0.62,-0.969,0.093,660.034,-618.653,-166.993,0,0,0,
,-0.615,-1.026,-0.103,93.2,-173.34,-169.861,0,0,0,
,-0.647,-0.992,-0.223,-382.142,315.124,-107.3,0,0,0,
,-0.608,-0.716,-0.325,-524.414,704.101,39.245,0,0,0,
,-0.494,-0.574,-0.167,-490.479,987.915,168.396,0,0,0,
,-0.355,-0.64,0.29,-499.146,1084.716,223.816,0,0,0,
,-0.248,-0.67,0.647,-517.09,955.383,196.045,0,0,0,
,-0.199,-0.78,0.876,-491.028,653.808,117.675,0,0,0,
,-0.212,-0.774,1.106,-440.43,264.404,46.264,0,0,0,
,-0.319,-0.658,1.178,-207.703,-148.499,-0.55,0,0,0,
,-0.365,-0.586,1.008,299.682,-504.578,-1.221,0,0,0,
,-0.399,-0.741,0.956,759.887,-806.763,-23.987,0,0,0,
,-0.46,-0.796,0.734,978.393,-947.632,-82.642,0,0,0,
,-0.447,-0.95,0.334,972.778,-910.889,-151.673,0,0,0,
,-0.494,-1.048,-0.038,622.375,-665.65,-202.576,0,0,0,
,-0.526,-1.033,-0.216,147.888,-304.261,-189.148,0,0,0,
,-0.537,-0.964,-0.215,-333.802,134.948,-132.691,0,0,0,
,-0.54,-0.757,-0.309,-552.308,512.39,-35.645,0,0,0,
,-0.463,-0.605,-0.275,-535.279,829.467,78.552,0,0,0,
,-0.338,-0.615,0.023,-479.065,1039.856,147.827,0,0,0,
,-0.273,-0.67,0.388,-461.609,1073.181,171.264,0,0,0,
,-0.234,-0.785,0.737,-479.798,943.725,134.643,0,0,0,
,-0.229,-0.792,1,-516.846,681.152,65.246,0,0,0,
,-0.225,-0.773,1.232,-466.98,293.945,-24.109,0,0,0,
,-0.268,-0.687,1.232,-288.025,-70.374,-69.581,0,0,0,
,-0.315,-0.588,1.151,116.516,-437.073,-96.314,0,0,0,
,-0.377,-0.692,1.022,550.72,-766.541,-115.113,0,0,0,
,-0.451,-0.718,0.858,935.485,-1003.968,-138.062,0,0,0,
,-0.459,-0.812,0.672,1127.197,-1125.794,-166.199,0,0,0,
,-0.438,-0.862,0.36,1107.238,-1056.275,-204.712,0,0,0,
,-0.444,-0.918,-0.022,898.925,-840.882,-210.328,0,0,0,
,-0.515,-0.942,-0.268,478.21,-471.375,-187.073,0,0,0,
,-0.578,-0.846,-0.349,70.251,-12.635,-93.75,0,0,0,
,-0.579,-0.747,-0.349,-124.451,455.383,70.19,0,0,0,
,-0.51,-0.638,-0.19,-175.11,851.257,237.793,0,0,0,
,-0.387,-0.691,0.166,-262.513,1081.97,312.378,0,0,0,
,-0.292,-0.84,0.543,-399.231,1052.673,274.841,0,0,0,
,-0.222,-1.047,0.814,-559.754,799.255,127.624,0,0,0,
,-0.2,-1.067,1.032,-648.682,375.305,-23.987,0,0,0,
,-0.307,-0.89,1.173,-418.457,-93.567,-117.859,0,0,0,
,-0.395,-0.635,1.003,61.157,-461.06,-127.808,0,0,0,
,-0.4,-0.738,0.811,652.832,-786.988,-174.988,0,0,0,
,-0.461,-0.782,0.599,943.786,-1005.066,-222.535,0,0,0,
,-0.506,-0.814,0.301,1032.104,-1023.316,-258.912,0,0,0,
,-0.529,-0.958,0.033,777.71,-837.464,-270.63,0,0,0,
,-0.58,-0.974,-0.151,206.787,-468.14,-230.408,0,0,0,
,-0.587,-0.933,-0.26,-325.745,-37.171,-126.221,0,0,0,
,-0.602,-0.796,-0.329,-592.896,405.029,18.31,0,0,0,
,-0.532,-0.569,-0.318,-597.535,768.798,194.213,0,0,0,
,-0.433,-0.504,-0.144,-466.553,1050.537,317.077,0,0,0,
,-0.358,-0.651,0.247,-427.796,1206.726,369.873,0,0,0,
,-0.259,-0.74,0.578,-436.158,1148.437,346.496,0,0,0,
,-0.179,-0.923,0.88,-480.103,916.137,234.619,0,0,0,
,-0.133,-1.013,1.103,-546.143,508.545,111.206,0,0,0,
,-0.232,-0.908,1.239,-472.962,27.404,0.427,0,0,0,
,-0.336,-0.664,1.099,-102.478,-397.4,-55.237,0,0,0,
,-0.367,-0.755,0.985,436.096,-757.325,-114.38,0,0,0,
,-0.429,-0.75,0.75,822.876,-1046.692,-135.376,0,0,0,
,-0.491,-0.849,0.601,1037.353,-1165.162,-201.6,0,0,0,
,-0.484,-0.969,0.389,865.356,-1131.104,-261.658,0,0,0,
,-0.49,-1.032,0.031,461.975,-894.288,-271.241,0,0,0,
,-0.518,-0.997,-0.264,-63.904,-520.02,-248.475,0,0,0,
,-0.6,-0.908,-0.317,-447.388,-55.237,-151.978,0,0,0,
,-0.618,-0.649,-0.293,-478.699,376.342,9.765,0,0,0,
,-0.503,-0.6,-0.145,-363.77,791.198,153.198,0,0,0,
,-0.43,-0.623,0.073,-329.773,1021.972,223.877,0,0,0,
,-0.299,-0.767,0.369,-357.361,1073.425,209.655,0,0,0,
,-0.192,-0.998,0.701,-478.15,917.785,101.501,0,0,0,
,-0.16,-1.009,0.939,-598.511,543.762,-18.921,0,0,0,
,-0.27,-0.874,1.142,-522.706,104.797,-106.873,0,0,0,
,-0.392,-0.604,1.087,-150.269,-299.927,-123.841,0,0,0,
,-0.415,-0.622,0.906,398.864,-644.654,-146.241,0,0,0,
,-0.462,-0.682,0.718,817.443,-938.721,-155.64,0,0,0,
