TIMECODE,ACC_X,ACC_Y,ACC_Z,GYR_X,GYR_Y,GYR_Z,ECG_I,ECG_II,ECG_III,TAG
,-0.046,-0.515,0.873,1.464,7.507,-23.194,0,0,0,
,-0.052,-0.51,0.878,1.586,7.751,-24.72,0,0,0,
,-0.052,-0.508,0.88,4.699,10.192,-23.56,0,0,0,
,-0.047,-0.506,0.881,5.432,7.324,-22.339,0,0,0,
,-0.047,-0.507,0.878,6.53,4.516,-22.034,0,0,0,
,-0.051,-0.512,0.881,7.69,3.173,-20.447,0,0,0,
,-0.055,-0.51,0.877,5.127,6.53,-20.447,0,0,0,
,-0.052,-0.513,0.879,9.216,10.131,-20.264,0,0,0,
,-0.054,-0.518,0.874,7.69,8.606,-22.767,0,0,0,
,-0.054,-0.516,0.88,2.014,8.667,-20.874,0,0,0,
,-0.05,-0.507,0.878,-0.977,13.427,-22.156,0,0,0,
,-0.045,-0.503,0.88,0.854,12.268,-20.935,0,0,0,
,-0.042,-0.504,0.882,6.652,9.765,-20.691,0,0,0,
,-0.046,-0.512,0.878,11.779,7.324,-23.56,0,0,0,
,-0.05,-0.516,0.879,10.009,4.76,-22.583,0,0,0,
,-0.054,-0.516,0.875,4.699,7.995,-23.56,0,0,0,
,-0.054,-0.513,0.88,3.906,8.728,-21.241,0,0,0,
,-0.05,-0.507,0.879,2.868,9.46,-20.752,0,0,0,
,-0.046,-0.507,0.885,5.615,10.986,-19.471,0,0,0,
,-0.045,-0.509,0.879,6.408,6.713,-21.973,0,0,0,
,-0.05,-0.509,0.879,7.202,5.004,-22.583,0,0,0,
,-0.052,-0.511,0.876,8.789,6.53,-22.522,0,0,0,
,-0.05,-0.515,0.876,8.606,9.338,-23.438,0,0,0,
,-0.048,-0.513,0.877,9.643,10.131,-22.4,0,0,0,
,-0.05,-0.511,0.876,3.295,6.53,-25.574,0,0,0,
,-0.053,-0.51,0.881,4.089,7.751,-23.926,0,0,0,
,-0.048,-0.506,0.879,5.249,7.751,-21.973,0,0,0,
,-0.048,-0.509,0.876,8.178,6.347,-19.959,0,0,0,
,-0.048,-0.51,0.88,9.094,3.54,-22.156,0,0,0,
,-0.055,-0.514,0.881,9.582,3.112,-23.316,0,0,0,
,-0.058,-0.515,0.878,6.958,6.469,-22.461,0,0,0,
,-0.053,-0.509,0.88,3.784,10.009,-23.255,0,0,0,
,-0.049,-0.509,0.881,6.042,10.681,-23.499,0,0,0,
,-0.048,-0.514,0.876,8.239,9.887,-23.377,0,0,0,
,-0.051,-0.512,0.879,4.394,6.164,-22.95,0,0,0,
,-0.05,-0.506,0.879,3.662,5.432,-23.56,0,0,0,
,-0.053,-0.508,0.881,5.371,6.286,-20.874,0,0,0,
,-0.052,-0.518,0.878,9.948,10.131,-20.081,0,0,0,
,-0.051,-0.517,0.883,2.319,7.751,-21.973,0,0,0,
,-0.047,-0.51,0.879,3.845,9.704,-19.288,0,0,0,
,-0.047,-0.508,0.874,5.432,9.704,-23.133,0,0,0,
,-0.05,-0.51,0.879,5.798,4.699,-22.828,0,0,0,
,-0.053,-0.509,0.878,9.277,5.981,-23.682,0,0,0,
,-0.054,-0.512,0.884,7.995,7.568,-20.874,0,0,0,
,-0.051,-0.512,0.882,7.507,7.568,-21.18,0,0,0,
,-0.05,-0.512,0.877,6.225,7.812,-23.194,0,0,0,
,-0.053,-0.511,0.877,5.676,6.164,-24.231,0,0,0,
,-0.055,-0.513,0.876,6.591,7.202,-21.485,0,0,0,
,-0.052,-0.513,0.877,7.507,9.826,-21.424,0,0,0,
,-0.049,-0.515,0.881,6.408,9.948,-20.508,0,0,0,
,-0.048,-0.51,0.875,5.676,9.094,-20.142,0,0,0,
,-0.052,-0.509,0.88,6.225,5.188,-22.095,0,0,0,
,-0.051,-0.509,0.878,9.582,8.483,-20.997,0,0,0,
,-0.054,-0.509,0.88,8.422,7.568,-21.363,0,0,0,
,-0.05,-0.513,0.88,5.371,7.751,-18.799,0,0,0,
,-0.05,-0.516,0.879,6.713,9.521,-22.583,0,0,0,
,-0.05,-0.512,0.872,8.056,7.995,-21.912,0,0,0,
,-0.048,-0.514,0.878,7.568,8.789,-23.133,0,0,0,
,-0.047,-0.516,0.881,3.906,8.3,-24.109,0,0,0,
,-0.055,-0.508,0.879,0.061,6.408,-21.18,0,0,0,
,-0.055,-0.506,0.883,3.051,4.943,-21.668,0,0,0,
,-0.053,-0.51,0.873,8.239,8.239,-18.738,0,0,0,
,-0.053,-0.513,0.879,5.92,7.08,-20.142,0,0,0,
,-0.05,-0.515,0.876,5.981,10.253,-20.02,0,0,0,
,-0.051,-0.516,0.88,5.249,10.864,-22.95,0,0,0,
,-0.047,-0.514,0.878,3.784,11.413,-23.865,0,0,0,
,-0.047,-0.509,0.871,5.249,8.972,-23.56,0,0,0,
,-0.047,-0.511,0.876,7.934,5.127,-25.025,0,0,0,
,-0.053,-0.512,0.848,4.333,7.385,-25.33,0,0,0,
,-0.056,-0.505,0.885,6.042,3.601,-22.217,0,0,0,
,-0.061,-0.505,0.877,5.432,10.437,-19.288,0,0,0,
,-0.048,-0.516,0.88,11.474,12.39,-19.776,0,0,0,
,-0.046,-0.519,0.874,9.033,8.3,-18.494,0,0,0,
,-0.051,-0.513,0.877,6.53,8.3,-20.203,0,0,0,
,-0.052,-0.511,0.877,4.516,10.864,-22.889,0,0,0,
,-0.049,-0.512,0.879,4.272,10.192,-23.926,0,0,0,
,-0.05,-0.508,0.881,3.234,9.582,-22.644,0,0,0,
,-0.056,-0.505,0.881,6.408,8.544,-21.851,0,0,0,
,-0.05,-0.509,0.876,9.582,9.094,-19.349,0,0,0,
,-0.043,-0.515,0.875,6.774,8.544,-20.508,0,0,0,
,-0.049,-0.514,0.875,5.31,4.394,-21.241,0,0,0,
,-0.05,-0.516,0.88,1.953,5.737,-22.461,0,0,0,
,-0.052,-0.516,0.877,4.516,7.995,-22.706,0,0,0,
,-0.05,-0.511,0.878,7.324,8.911,-21.546,0,0,0,
,-0.05,-0.515,0.878,5.188,8.85,-21.485,0,0,0,
,-0.054,-0.51,0.881,3.723,8.117,-20.386,0,0,0,
,-0.055,-0.508,0.88,3.906,10.192,-21.119,0,0,0,
,-0.051,-0.508,0.877,5.798,11.779,-19.654,0,0,0,
,-0.048,-0.513,0.879,6.836,10.315,-22.644,0,0,0,
,-0.046,-0.516,0.877,6.347,8.544,-23.011,0,0,0,
,-0.052,-0.515,0.875,6.225,6.469,-26.307,0,0,0,
,-0.058,-0.513,0.881,5.004,8.178,-20.63,0,0,0,
,-0.055,-0.51,0.882,3.784,11.779,-21.18,0,0,0,
,-0.05,-0.51,0.88,4.15,10.681,-19.898,0,0,0,
,-0.051,-0.507,0.843,5.493,9.46,-21.546,0,0,0,
,-0.047,-0.509,0.879,6.103,10.192,-21.851,0,0,0,
,-0.046,-0.51,0.878,4.882,8.422,-19.654,0,0,0,
,-0.047,-0.512,0.877,7.446,7.202,-22.583,0,0,0,
,-0.048,-0.51,0.879,5.798,5.432,-22.278,0,0,0,
,-0.055,-0.514,0.878,6.591,9.826,-24.292,0,0,0,
,-0.056,-0.518,0.875,4.394,8.483,-22.156,0,0,0,
,-0.052,-0.512,0.88,2.258,10.192,-20.203,0,0,0,
,-0.048,-0.509,0.876,4.211,12.451,-21.424,0,0,0,
,-0.046,-0.509,0.878,5.92,6.408,-20.264,0,0,0,
,-0.045,-0.51,0.879,8.85,5.432,-22.706,0,0,0,
,-0.052,-0.514,0.88,7.873,2.014,-24.048,0,0,0,
,-0.056,-0.512,0.875,6.591,6.225,-24.048,0,0,0,
,-0.057,-0.51,0.875,5.493,8.667,-21.241,0,0,0,
,-0.053,-0.515,0.874,4.76,8.544,-19.288,0,0,0,
,-0.05,-0.515,0.879,5.004,10.925,-22.217,0,0,0,
,-0.05,-0.51,0.878,1.037,9.094,-20.691,0,0,0,
,-0.049,-0.507,0.883,2.502,9.338,-20.874,0,0,0,
,-0.048,-0.507,0.876,7.324,9.399,-21.485,0,0,0,
,-0.049,-0.509,0.877,7.08,7.568,-22.95,0,0,0,
,-0.052,-0.513,0.879,6.652,7.446,-23.011,0,0,0,
,-0.054,-0.514,0.873,6.774,7.995,-25.513,0,0,0,
,-0.056,-0.513,0.882,6.469,9.704,-20.691,0,0,0,
,-0.052,-0.513,0.876,2.746,12.023,-21.79,0,0,0,
,-0.048,-0.514,0.877,3.967,10.925,-20.264,0,0,0,
,-0.045,-0.512,0.875,4.821,10.62,-21.058,0,0,0,
,-0.048,-0.511,0.876,3.662,6.713,-24.048,0,0,0,
,-0.05,-0.509,0.877,6.408,6.042,-21.607,0,0,0,
,-0.054,-0.511,0.878,7.995,6.713,-23.621,0,0,0,
,-0.052,-0.516,0.878,7.934,8.117,-22.522,0,0,0,
,-0.056,-0.513,0.88,3.601,8.972,-22.583,0,0,0,
,-0.052,-0.51,0.879,4.577,8.056,-21.973,0,0,0,
,-0.051,-0.51,0.878,6.53,9.582,-20.874,0,0,0,
,-0.048,-0.514,0.876,6.164,10.253,-22.889,0,0,0,
,-0.048,-0.512,0.876,4.882,5.859,-21.546,0,0,0,
,-0.049,-0.511,0.878,4.699,6.103,-24.109,0,0,0,
,-0.052,-0.51,0.877,2.624,5.188,-26.673,0,0,0,
,-0.054,-0.51,0.876,4.272,4.455,-24.048,0,0,0,
,-0.056,-0.511,0.879,6.897,5.004,-24.537,0,0,0,
,-0.055,-0.519,0.884,3.112,7.446,-21.241,0,0,0,
,-0.054,-0.514,0.873,0.671,12.39,-20.142,0,0,0,
,-0.049,-0.505,0.875,2.685,11.84,-19.288,0,0,0,
,-0.048,-0.507,0.881,8.056,7.141,-22.522,0,0,0,
,-0.049,-0.511,0.877,9.582,5.737,-22.156,0,0,0,
,-0.053,-0.512,0.876,8.667,6.103,-22.461,0,0,0,
,-0.053,-0.511,0.884,4.15,9.765,-21.424,0,0,0,
,-0.055,-0.509,0.885,2.563,9.338,-21.241,0,0,0,
,-0.052,-0.511,0.906,5.859,10.437,-22.4,0,0,0,
,-0.052,-0.511,0.88,7.385,8.911,-21.607,0,0,0,
,-0.049,-0.512,0.877,5.676,7.995,-24.109,0,0,0,
,-0.049,-0.513,0.879,3.845,7.446,-21.546,0,0,0,
,-0.051,-0.509,0.878,8.606,7.324,-21.668,0,0,0,
,-0.05,-0.515,0.879,8.606,10.07,-23.499,0,0,0,
,-0.051,-0.514,0.88,5.615,4.76,-23.194,0,0,0,
,-0.055,-0.51,0.881,3.845,7.568,-19.593,0,0,0,
,-0.053,-0.512,0.87,2.441,11.596,-21.607,0,0,0,
,-0.048,-0.506,0.881,4.15,9.826,-21.79,0,0,0,
,-0.05,-0.508,0.874,7.202,8.728,-21.302,0,0,0,
,-0.051,-0.514,0.875,6.53,8.239,-23.255,0,0,0,
,-0.048,-0.512,0.877,4.394,8.056,-23.377,0,0,0,
,-0.047,-0.509,0.879,4.211,6.53,-24.048,0,0,0,
,-0.054,-0.513,0.879,7.324,3.295,-24.048,0,0,0,
,-0.054,-0.514,0.883,8.606,4.882,-23.987,0,0,0,
,-0.053,-0.517,0.88,6.591,10.742,-22.4,0,0,0,
,-0.052,-0.513,0.877,4.272,9.826,-20.508,0,0,0,
,-0.051,-0.512,0.874,4.577,11.474,-21.973,0,0,0,
,-0.049,-0.507,0.877,4.577,8.056,-21.424,0,0,0,
,-0.052,-0.507,0.879,5.676,10.192,-21.058,0,0,0,
,-0.052,-0.509,0.881,6.836,11.047,-22.095,0,0,0,
,-0.048,-0.512,0.879,7.812,7.995,-24.048,0,0,0,
,-0.05,-0.511,0.878,5.127,6.591,-23.255,0,0,0,
,-0.053,-0.512,0.881,5.432,8.85,-23.499,0,0,0,
,-0.053,-0.515,0.877,6.347,10.742,-22.95,0,0,0,
,-0.048,-0.513,0.875,4.516,9.094,-20.02,0,0,0,
,-0.048,-0.512,0.875,3.967,7.873,-21.18,0,0,0,
,-0.048,-0.51,0.874,4.943,3.662,-21.18,0,0,0,
,-0.053,-0.507,0.88,5.981,4.821,-23.377,0,0,0,
,-0.058,-0.508,0.883,7.995,4.882,-23.865,0,0,0,
,-0.054,-0.515,0.882,1.342,14.038,-26.673,0,0,0,
,-0.051,-0.506,0.884,-1.404,18.371,-27.039,0,0,0,
,-0.049,-0.505,0.879,0.671,17.089,-27.894,0,0,0,
,-0.053,-0.514,0.876,-0.184,19.409,-28.748,0,0,0,
,-0.051,-0.523,0.877,-14.283,21.423,-28.199,0,0,0,
,-0.056,-0.526,0.88,-31.739,22.705,-28.931,0,0,0,
,-0.068,-0.53,0.885,-55.42,32.959,-31.311,0,0,0,
,-0.077,-0.51,0.882,-86.731,73.059,-36.194,0,0,0,
,-0.072,-0.547,0.903,-127.869,131.347,-52.491,0,0,0,
,-0.078,-0.603,0.907,-175.721,263.916,-78.064,0,0,0,
,-0.135,-0.614,1.054,-231.324,451.049,-135.132,0,0,0,
,-0.251,-0.596,1.377,-501.465,842.224,-219.788,0,0,0,
,-0.325,-0.503,1.827,-1070.923,1473.144,-304.627,0,0,0,
,-0.038,-0.455,2.337,-1066.224,1734.008,-321.961,0,0,0,
,0.821,-0.202,2.593,-531.373,1334.228,-130.982,0,0,0,
,1.172,-0.511,2.179,2.685,456.848,-148.316,0,0,0,
,1.28,-0.849,1.755,268.432,-310.975,-177.369,0,0,0,
,1.206,-1.236,1.432,168.701,-1011.902,-349.122,0,0,0,
,1.205,-1.109,1.125,-347.718,-1606.812,-722.413,0,0,0,
,1.146,-0.844,1.281,-519.715,-2000,-874.146,0,0,0,
,0.939,-0.676,1.245,-209.473,-2000,-1055.298,0,0,0,
,0.667,-0.796,1.012,-7.203,-2000,-1285.096,0,0,0,
,0.561,-0.895,0.692,-73.365,-2000,-1376.709,0,0,0,
,0.432,-0.246,-0.104,-333.069,-2000,-1386.658,0,0,0,
,0.265,0.031,-0.294,-272.767,-2000,-1464.173,0,0,0,
,0.132,0.176,-0.378,-77.21,-2000,-1506.409,0,0,0,
,0.051,0.212,-0.426,196.838,-2000,-1568.299,0,0,0,
,0.04,0.155,-0.496,373.352,-2000,-1666.687,0,0,0,
,0.024,0.119,-0.575,406.067,-2000,-1728.272,0,0,0,
,-0.035,0.284,-0.764,376.526,-2000,-1699.83,0,0,0,
,-0.145,0.577,-0.924,304.077,-1998.78,-1593.873,0,0,0,
,-0.321,0.944,-1.111,173.217,-1746.521,-1447.022,0,0,0,
,-0.594,1.283,-1.229,-15.992,-1321.961,-1284.424,0,0,0,
,-0.871,1.428,-1.227,-82.581,-580.323,-980.225,0,0,0,
,-0.79,1.543,-1.273,-107.911,-5.127,-336.67,0,0,0,
,-0.609,1.492,-1.196,-75.196,524.047,325.561,0,0,0,
,-0.441,1.258,-1.06,124.023,976.806,872.436,0,0,0,
,-0.354,1.002,-0.897,406.005,1360.351,1308.166,0,0,0,
,-0.251,0.872,-0.746,601.623,1731.75,1639.343,0,0,0,
,-0.16,0.75,-0.586,697.754,1999.694,1831.97,0,0,0,
,-0.137,0.656,-0.407,763.488,1999.694,1953.43,0,0,0,
,-0.166,0.56,-0.284,856.384,1999.694,1999.694,0,0,0,
,-0.155,0.38,-0.168,914.672,1999.694,1999.694,0,0,0,
,-0.001,-0.118,0.221,724.792,1999.694,1999.694,0,0,0,
,0.031,-0.497,0.562,531.921,1999.694,1999.694,0,0,0,
,-0.018,-0.676,0.886,336.181,1999.694,1966.674,0,0,0,
,0.004,-0.894,1.168,-70.496,1999.694,1848.571,0,0,0,
,0.241,-0.789,1.469,-362.61,1811.584,1141.845,0,0,0,
,0.251,-1.003,1.603,-117.005,1621.399,888.488,0,0,0,
,0.364,-1.169,1.689,-107.3,1360.473,756.042,0,0,0,
,0.446,-1.019,1.57,-286.133,926.147,709.472,0,0,0,
,0.321,-0.767,1.551,-241.089,500.061,544.372,0,0,0,
,0.118,-0.598,1.449,18.798,261.169,356.262,0,0,0,
,-0.032,-0.597,1.314,277.099,224.914,201.538,0,0,0,
,-0.042,-0.767,1.161,290.466,308.776,111.572,0,0,0,
,0.084,-0.825,1.192,49.987,289.672,106.079,0,0,0,
,0.303,-0.839,1.256,-330.689,68.176,97.839,0,0,0,
,0.283,-0.43,1.205,-341.797,-180.787,7.629,0,0,0,
,0.045,-0.277,1.153,-262.696,-286.072,-3.235,0,0,0,
,-0.036,-0.297,0.917,89.233,55.053,29.174,0,0,0,
,0.023,-0.385,0.906,68.359,47.546,-5.982,0,0,0,
,0.046,-0.405,0.909,17.822,0.305,-11.902,0,0,0,
,0,-0.364,0.94,-19.41,-32.837,15.075,0,0,0,
,-0.02,-0.356,0.937,-2.442,-27.894,-26.917,0,0,0,
,-0.026,-0.346,0.936,19.653,-30.274,-13.489,0,0,0,
,-0.018,-0.341,0.932,55.908,-28.992,-21.546,0,0,0,
,-0.027,-0.371,0.951,92.529,-30.884,-17.029,0,0,0,
,-0.031,-0.407,0.959,104.553,-41.077,-22.522,0,0,0,
,-0.045,-0.433,0.957,87.463,-48.951,-17.151,0,0,0,
,-0.052,-0.432,0.939,63.354,-52.857,-6.714,0,0,0,
,-0.026,-0.391,0.915,42.053,-39.124,-3.479,0,0,0,
,-0.027,-0.373,0.922,42.053,-52.308,-11.597,0,0,0,
,-0.047,-0.397,0.951,27.038,-41.382,-21.851,0,0,0,
,-0.059,-0.436,0.968,-7.752,-19.165,-28.809,0,0,0,
,-0.055,-0.418,0.951,-38.88,-13.794,-18.006,0,0,0,
,-0.058,-0.399,0.952,-41.871,-5.005,-17.151,0,0,0,
,-0.049,-0.38,0.945,-21.302,6.53,-17.762,0,0,0,
,-0.045,-0.388,0.939,2.319,18.737,-20.386,0,0,0,
,-0.037,-0.392,0.934,13.366,14.404,-22.828,0,0,0,
,-0.039,-0.392,0.924,16.601,10.07,-25.208,0,0,0,
,-0.042,-0.397,0.917,15.686,11.23,-27.1,0,0,0,
,-0.042,-0.403,0.936,1.892,-6.775,-15.503,0,0,0,
,-0.052,-0.393,0.92,23.315,-9.888,-10.865,0,0,0,
,-0.048,-0.394,0.907,42.053,-11.719,-9.644,0,0,0,
,-0.037,-0.411,0.911,37.536,-12.452,-6.592,0,0,0,
,-0.036,-0.415,0.922,18.31,-28.748,-10.437,0,0,0,
,-0.041,-0.427,0.925,-7.081,-34.546,-3.174,0,0,0,
,-0.043,-0.422,0.918,-33.814,-37.11,6.897,0,0,0,
,-0.042,-0.421,0.913,-53.589,-38.208,15.93,0,0,0,
,-0.056,-0.429,0.938,-94.422,-40.345,17.028,0,0,0,
,-0.064,-0.429,0.959,-122.681,-21.302,17.334,0,0,0,
,-0.075,-0.31,0.991,-139.954,72.998,-36.255,0,0,0,
,-0.065,-0.309,1.015,-126.893,97.045,-61.097,0,0,0,
,-0.049,-0.346,1.032,-110.84,122.497,-91.675,0,0,0,
,-0.042,-0.388,1.046,-109.131,112.915,-97.046,0,0,0,
,-0.067,-0.375,1.07,-96.985,55.725,-109.375,0,0,0,
,-0.102,-0.378,1.077,-96.436,67.871,-100.831,0,0,0,
,-0.059,-0.319,1.006,-36.499,90.637,-91.675,0,0,0,
,-0.002,-0.326,0.94,63.11,24.78,-85.328,0,0,0,
,-0.017,-0.439,0.863,79.101,-58.838,-87.586,0,0,0,
,-0.073,-0.437,0.808,26.611,-124.695,-53.65,0,0,0,
,-0.078,-0.379,0.819,16.357,-127.93,-11.841,0,0,0,
,-0.058,-0.323,0.848,108.642,-139.344,-25.269,0,0,0,
,-0.079,-0.426,0.894,207.824,-149.659,-6.653,0,0,0,
,-0.082,-0.443,0.901,218.383,-166.26,8.178,0,0,0,
,-0.105,-0.439,0.893,248.596,-200.745,0.549,0,0,0,
,-0.157,-0.474,0.87,244.751,-232.605,-15.015,0,0,0,
,-0.243,-0.432,0.878,275.329,-146.851,-62.317,0,0,0,
,-0.235,-0.492,0.935,291.809,-99.06,-138.733,0,0,0,
,-0.229,-0.554,0.934,242.492,-39.429,-185.608,0,0,0,
,-0.222,-0.544,0.965,158.63,1.464,-210.694,0,0,0,
,-0.206,-0.489,0.934,89.843,40.466,-214.6,0,0,0,
,-0.203,-0.446,0.898,60.974,56.579,-223.572,0,0,0,
,-0.2,-0.419,0.873,44.921,86.242,-228.516,0,0,0,
,-0.178,-0.442,0.842,3.54,135.192,-217.957,0,0,0,
,-0.136,-0.46,0.869,-85.938,179.321,-201.844,0,0,0,
,-0.104,-0.455,0.857,-179.322,208.007,-183.655,0,0,0,
,-0.077,-0.407,0.883,-259.583,232.116,-154.725,0,0,0,
,-0.035,-0.345,0.897,-266.358,262.329,-114.563,0,0,0,
,0.012,-0.327,0.918,-243.103,278.564,-79.773,0,0,0,
,0.051,-0.375,0.917,-263.611,273.071,-72.51,0,0,0,
,0.113,-0.428,0.916,-361.573,224.06,-66.529,0,0,0,
,0.125,-0.395,0.928,-455.445,98.755,-57.496,0,0,0,
,0.054,-0.31,0.935,-516.053,-1.465,-56.275,0,0,0,
,-0.01,-0.253,0.961,-511.231,-19.471,-62.378,0,0,0,
,-0.009,-0.235,0.933,-456.604,-1.526,-58.655,0,0,0,
,0,-0.176,1.003,-338.257,-64.637,-56.519,0,0,0,
,-0.049,-0.188,1,-204.041,-82.947,-23.377,0,0,0,
,-0.077,-0.297,0.987,-199.83,-73.243,-27.832,0,0,0,
,-0.06,-0.265,1.002,-226.99,-84.961,3.906,0,0,0,
,-0.065,-0.179,1.008,-195.435,-94.849,27.099,0,0,0,
,-0.115,-0.151,0.984,-113.221,-64.942,37.109,0,0,0,
,-0.112,-0.076,1.018,62.316,-77.942,33.63,0,0,0,
,-0.129,-0.15,1,225.402,-62.806,87.158,0,0,0,
,-0.121,-0.224,0.97,223.877,-66.956,83.984,0,0,0,
,-0.11,-0.214,1.009,187.317,-88.99,127.624,0,0,0,
,-0.104,-0.188,1.163,159.912,-155.64,197.815,0,0,0,
,-0.128,-0.238,1.086,90.026,-116.456,139.892,0,0,0,
,-0.159,-0.134,1.128,85.51,-144.593,223.388,0,0,0,
,-0.152,-0.177,1.219,238.403,-207.581,239.135,0,0,0,
,-0.137,-0.285,1.313,383.545,-298.218,253.173,0,0,0,
,-0.152,-0.335,1.239,489.441,-360.84,257.751,0,0,0,
,-0.163,-0.372,1.181,712.402,-461.365,215.698,0,0,0,
,-0.193,-0.588,1.092,974.792,-504.883,103.698,0,0,0,
,-0.234,-0.643,0.948,1152.893,-561.585,28.564,0,0,0,
,-0.333,-0.616,0.969,1361.572,-635.926,-111.634,0,0,0,
,-0.451,-0.77,0.939,1473.266,-584.534,-256.653,0,0,0,
,-0.422,-1.009,0.827,1075.988,-449.036,-396.546,0,0,0,
,-0.39,-0.92,0.645,455.261,-357.789,-533.265,0,0,0,
,-0.407,-0.708,0.561,85.083,-315.186,-657.105,0,0,0,
,-0.449,-0.617,0.543,-41.932,-245.484,-702.271,0,0,0,
,-0.499,-0.547,0.581,-108.704,-137.635,-750.489,0,0,0,
,-0.509,-0.536,0.564,-122.01,2.868,-758.484,0,0,0,
,-0.504,-0.518,0.544,-139.466,141.967,-714.966,0,0,0,
,-0.484,-0.398,0.54,-179.688,245.3,-663.941,0,0,0,
,-0.442,-0.232,0.539,-181.092,343.139,-678.589,0,0,0,
,-0.41,-0.183,0.585,-90.577,371.704,-716.065,0,0,0,
,-0.412,-0.325,0.639,47.302,411.743,-722.352,0,0,0,
,-0.381,-0.531,0.733,122.924,460.632,-595.398,0,0,0,
,-0.301,-0.5,0.771,89.172,462.158,-418.763,0,0,0,
,-0.253,-0.383,0.75,63.598,411.56,-319.703,0,0,0,
,-0.263,-0.345,0.732,93.383,342.895,-288.697,0,0,0,
,-0.268,-0.445,0.805,39.184,286.377,-247.681,0,0,0,
,-0.246,-0.525,0.838,-96.131,240.661,-223.267,0,0,0,
,-0.238,-0.524,0.872,-229.248,194.336,-180.909,0,0,0,
,-0.261,-0.437,0.815,-281.128,171.814,-123.047,0,0,0,
,-0.279,-0.353,0.78,-235.474,147.644,-85.877,0,0,0,
,-0.277,-0.317,0.79,-123.78,129.577,-61.585,0,0,0,
,-0.267,-0.409,0.852,-77.454,119.934,-61.463,0,0,0,
,-0.27,-0.566,0.879,-202.332,126.648,-44.983,0,0,0,
,-0.273,-0.574,0.886,-399.964,124.817,-15.87,0,0,0,
,-0.297,-0.429,0.853,-517.212,137.268,36.926,0,0,0,
,-0.314,-0.245,0.815,-474.183,164.734,45.471,0,0,0,
,-0.303,-0.256,0.87,-360.169,220.031,10.986,0,0,0,
,-0.242,-0.421,0.888,-283.57,258.545,-5.982,0,0,0,
,-0.185,-0.447,0.955,-349.305,221.252,-3.296,0,0,0,
,-0.219,-0.372,0.977,-379.334,180.847,-55.42,0,0,0,
,-0.221,-0.317,0.955,-339.417,169.86,-72.754,0,0,0,
,-0.229,-0.247,0.95,-253.907,180.786,-90.027,0,0,0,
,-0.211,-0.229,0.978,-152.283,182.434,-141.358,0,0,0,
,-0.201,-0.277,1.008,-51.575,181.457,-173.462,0,0,0,
,-0.198,-0.268,1.015,33.874,169.677,-166.748,0,0,0,
,-0.206,-0.258,1.003,142.639,165.222,-173.768,0,0,0,
,-0.207,-0.261,0.977,239.257,162.475,-156.495,0,0,0,
,-0.189,-0.293,0.943,308.838,157.837,-143.372,0,0,0,
,-0.151,-0.288,0.981,350.83,99.975,-123.23,0,0,0,
,-0.153,-0.335,0.997,380.31,52.49,-143.25,0,0,0,
,-0.176,-0.369,0.999,401.489,23.742,-147.461,0,0,0,
,-0.184,-0.36,0.979,434.692,15.319,-136.841,0,0,0,
,-0.189,-0.37,0.955,448.059,11.291,-131.653,0,0,0,
,-0.188,-0.396,0.935,437.988,7.934,-128.052,0,0,0,
,-0.193,-0.405,0.926,409.179,2.075,-112.183,0,0,0,
,-0.193,-0.406,0.914,399.047,8.3,-109.375,0,0,0,
,-0.189,-0.403,0.89,409.118,5.92,-112.366,0,0,0,
,-0.196,-0.45,0.905,414.123,-0.672,-117.249,0,0,0,
,-0.211,-0.482,0.916,365.478,-5.31,-104.981,0,0,0,
,-0.218,-0.477,0.918,283.142,-13.367,-92.774,0,0,0,
,-0.228,-0.402,0.891,296.692,-28.809,-70.923,0,0,0,
,-0.248,-0.381,0.883,374.817,-50.293,-59.815,0,0,0,
,-0.27,-0.405,0.851,452.697,-61.768,-45.96,0,0,0,
,-0.277,-0.464,0.839,493.591,-72.815,-34.79,0,0,0,
,-0.289,-0.52,0.821,469.299,-82.947,-19.104,0,0,0,
,-0.293,-0.559,0.802,398.498,-88.44,-10.498,0,0,0,
,-0.31,-0.56,0.76,333.252,-115.418,11.413,0,0,0,
,-0.332,-0.559,0.762,289.184,-137.818,29.846,0,0,0,
,-0.351,-0.553,0.745,252.319,-145.02,44.982,0,0,0,
,-0.364,-0.572,0.725,219.116,-146.79,67.504,0,0,0,
,-0.378,-0.563,0.701,187.5,-155.396,77.758,0,0,0,
,-0.39,-0.544,0.655,217.895,-127.747,110.595,0,0,0,
,-0.386,-0.587,0.638,229.736,-114.319,116.088,0,0,0,
,-0.375,-0.64,0.66,182.617,-106.385,120.483,0,0,0,
,-0.375,-0.683,0.712,77.758,-107.422,117.309,0,0,0,
,-0.367,-0.648,0.683,-0.306,-78.736,149.536,0,0,0,
,-0.365,-0.616,0.674,-21.18,-74.341,155.883,0,0,0,
,-0.374,-0.608,0.688,-23.072,-77.637,163.696,0,0,0,
,-0.375,-0.555,0.696,14.648,-75.257,156.86,0,0,0,
,-0.371,-0.508,0.687,134.094,-71.534,171.63,0,0,0,
,-0.37,-0.545,0.663,237.548,-66.773,155.761,0,0,0,
,-0.343,-0.698,0.691,252.563,-66.224,141.113,0,0,0,
,-0.31,-0.769,0.719,134.216,-69.397,141.662,0,0,0,
,-0.298,-0.735,0.724,10.986,-74.219,132.873,0,0,0,
,-0.313,-0.648,0.73,-10.376,-60.425,122.741,0,0,0,
,-0.31,-0.646,0.731,87.829,-17.579,101.928,0,0,0,
,-0.277,-0.668,0.689,196.96,20.019,66.406,0,0,0,
,-0.239,-0.694,0.683,285.949,20.813,33.874,0,0,0,
,-0.235,-0.677,0.695,402.832,30.822,8.117,0,0,0,
,-0.238,-0.739,0.699,503.723,43.09,-17.029,0,0,0,
,-0.209,-0.826,0.7,502.136,69.213,-51.941,0,0,0,
,-0.206,-0.83,0.677,446.228,95.336,-83.313,0,0,0,
,-0.22,-0.754,0.652,467.346,113.464,-103.638,0,0,0,
,-0.242,-0.771,0.639,504.028,119.567,-108.521,0,0,0,
,-0.246,-0.821,0.639,440.063,125.793,-104.371,0,0,0,
,-0.219,-0.889,0.651,276.367,145.446,-103.821,0,0,0,
,-0.211,-0.938,0.627,31.494,164.428,-114.258,0,0,0,
,-0.16,-0.984,0.666,-273.682,141.052,-135.987,0,0,0,
,-0.147,-0.817,0.671,-404.297,81.543,-100.708,0,0,0,
,-0.188,-0.636,0.73,-307.923,46.752,-82.459,0,0,0,
,-0.215,-0.729,0.796,-176.819,65.734,-120.789,0,0,0,
,-0.176,-0.876,0.799,-223.999,115.234,-144.165,0,0,0,
,-0.139,-0.756,0.725,-263.306,142.212,-169.8,0,0,0,
,-0.152,-0.691,0.707,-107.911,140.197,-216.736,0,0,0,
,-0.168,-0.824,0.703,80.505,164.489,-240.479,0,0,0,
,-0.156,-0.87,0.733,59.936,140.747,-180.054,0,0,0,
,-0.142,-0.786,0.759,-49.866,88.073,-161.438,0,0,0,
,-0.163,-0.681,0.776,-63.05,35.156,-168.519,0,0,0,
,-0.175,-0.697,0.804,13.305,7.202,-187.439,0,0,0,
,-0.18,-0.73,0.782,24.536,-38.269,-166.26,0,0,0,
,-0.198,-0.687,0.797,-0.855,-90.577,-159.18,0,0,0,
,-0.215,-0.673,0.747,-19.898,-133.606,-168.824,0,0,0,
,-0.233,-0.674,0.68,-43.274,-200.379,-143.921,0,0,0,
,-0.261,-0.686,0.646,-99.366,-241.394,-84.351,0,0,0,
,-0.293,-0.671,0.64,-229.92,-288.819,-27.1,0,0,0,
,-0.337,-0.616,0.647,-364.502,-325.867,18.249,0,0,0,
,-0.37,-0.559,0.635,-445.923,-348.145,85.083,0,0,0,
,-0.404,-0.497,0.611,-452.393,-349.488,148.803,0,0,0,
,-0.422,-0.524,0.595,-419.495,-340.271,202.392,0,0,0,
,-0.434,-0.55,0.589,-433.106,-337.159,206.97,0,0,0,
,-0.448,-0.576,0.564,-426.087,-335.083,229.98,0,0,0,
,-0.49,-0.577,0.586,-415.589,-330.323,243.164,0,0,0,
,-0.522,-0.597,0.593,-383.301,-289.734,225.769,0,0,0,
,-0.527,-0.601,0.592,-341.919,-231.141,208.252,0,0,0,
,-0.525,-0.595,0.565,-300.477,-156.373,184.204,0,0,0,
,-0.522,-0.614,0.548,-244.08,-76.172,160.583,0,0,0,
,-0.513,-0.628,0.598,-216.675,-4.212,136.047,0,0,0,
,-0.498,-0.578,0.632,-205.506,69.824,120.666,0,0,0,
,-0.467,-0.509,0.674,-77.82,139.465,102.417,0,0,0,
,-0.425,-0.503,0.695,116.699,166.015,86.853,0,0,0,
,-0.403,-0.617,0.726,203.064,175.537,63.842,0,0,0,
,-0.369,-0.673,0.74,153.991,169.189,46.325,0,0,0,
,-0.339,-0.739,0.776,96.13,138.977,18.615,0,0,0,
,-0.308,-0.712,0.826,48.095,102.172,7.629,0,0,0,
,-0.308,-0.686,0.862,76.416,77.697,-20.386,0,0,0,
,-0.323,-0.675,0.842,134.46,71.838,-47.669,0,0,0,
,-0.319,-0.719,0.857,179.26,70.068,-73.914,0,0,0,
,-0.315,-0.697,0.812,205.627,79.589,-84.534,0,0,0,
,-0.298,-0.701,0.876,224.731,89.111,-124.756,0,0,0,
,-0.327,-0.724,0.759,143.188,117.614,-113.343,0,0,0,
,-0.242,-0.715,0.805,102.478,100.402,-143.982,0,0,0,
,-0.262,-0.642,0.797,116.699,83.129,-130.921,0,0,0,
,-0.298,-0.573,0.758,226.989,126.953,-153.748,0,0,0,
,-0.275,-0.739,0.753,204.467,149.292,-156.189,0,0,0,
,-0.228,-0.766,0.791,117.065,156.982,-142.09,0,0,0,
,-0.226,-0.74,0.765,-37.903,132.69,-143.128,0,0,0,
,-0.226,-0.602,0.796,-49.5,125,-158.509,0,0,0,
,-0.257,-0.568,0.779,4.943,106.201,-177.552,0,0,0,
,-0.267,-0.581,0.776,79.65,113.708,-169.129,0,0,0,
,-0.251,-0.557,0.779,157.287,106.323,-131.104,0,0,0,
,-0.244,-0.548,0.804,239.502,96.008,-109.559,0,0,0,
,-0.247,-0.542,0.78,318.969,85.266,-116.944,0,0,0,
,-0.257,-0.567,0.773,353.393,72.143,-116.761,0,0,0,
,-0.26,-0.544,0.726,439.697,62.133,-106.934,0,0,0,
,-0.259,-0.578,0.679,604.065,46.875,-108.704,0,0,0,
,-0.273,-0.633,0.669,750.793,5.493,-101.258,0,0,0,
,-0.298,-0.723,0.664,814.697,-18.86,-100.281,0,0,0,
,-0.315,-0.827,0.625,733.337,-37.781,-94.361,0,0,0,
,-0.328,-0.828,0.522,575.561,-70.984,-94.361,0,0,0,
,-0.332,-0.708,0.511,560.791,-131.897,-92.102,0,0,0,
,-0.374,-0.704,0.478,752.502,-149.781,-107.789,0,0,0,
,-0.398,-0.774,0.48,851.623,-208.435,-90.76,0,0,0,
,-0.428,-0.84,0.5,883.789,-187.806,-81.177,0,0,0,
,-0.436,-0.922,0.484,819.702,-175.415,-54.017,0,0,0,
,-0.43,-0.95,0.48,645.019,-159.119,-36.744,0,0,0,
,-0.455,-0.899,0.488,441.528,-149.048,-51.88,0,0,0,
,-0.466,-0.885,0.464,305.114,-88.807,-75.684,0,0,0,
,-0.45,-0.887,0.351,216.674,-52.552,-84.839,0,0,0,
,-0.423,-0.848,0.295,283.203,-81.849,-85.999,0,0,0,
,-0.413,-0.897,0.428,456.482,-87.586,-87.586,0,0,0,
,-0.461,-0.917,0.423,428.65,-59.998,-32.837,0,0,0,
,-0.447,-1.059,0.43,181.762,-29.236,-42.359,0,0,0,
,-0.424,-1.159,0.446,-215.149,0.366,-83.374,0,0,0,
,-0.369,-1.199,0.428,-668.274,2.99,-84.717,0,0,0,
,-0.354,-1.101,0.43,-1113.465,-20.691,-84.839,0,0,0,
,-0.375,-0.894,0.417,-1459.107,-57.435,-99.183,0,0,0,
,-0.361,-0.781,0.445,-1591.675,-100.892,-107.361,0,0,0,
,-0.332,-0.759,0.523,-1544.861,-133.545,-104.432,0,0,0,
,-0.356,-0.706,0.593,-1386.658,-114.869,-69.092,0,0,0,
,-0.392,-0.574,0.661,-891.663,-51.575,-54.871,0,0,0,
,-0.409,-0.434,0.653,-281.556,13,19.043,0,0,0,
,-0.419,-0.49,0.671,293.823,98.755,67.077,0,0,0,
,-0.432,-0.586,0.578,600.463,192.26,79.345,0,0,0,
,-0.412,-0.636,0.451,641.662,251.403,94.97,0,0,0,
,-0.361,-0.648,0.343,559.997,235.534,81.909,0,0,0,
,-0.336,-0.709,0.367,389.099,195.19,56.152,0,0,0,
,-0.341,-0.909,0.48,53.711,126.77,39.611,0,0,0,
,-0.377,-1.055,0.486,-477.601,115.844,51.086,0,0,0,
,-0.396,-0.933,0.472,-847.779,100.463,108.215,0,0,0,
,-0.345,-0.479,0.717,-599.244,55.603,45.288,0,0,0,
,-0.369,-0.538,0.698,-43.396,-9.888,-41.81,0,0,0,
,-0.459,-0.944,0.643,-16.968,24.597,-43.519,0,0,0,
,-0.396,-0.96,0.617,-333.802,17.944,36.254,0,0,0,
,-0.347,-0.645,0.612,-462.403,-6.775,122.192,0,0,0,
,-0.37,-0.495,0.625,-301.941,-8.606,86.792,0,0,0,
,-0.398,-0.593,0.712,-161.255,41.931,96.13,0,0,0,
,-0.381,-0.71,0.702,-203.431,109.68,125.549,0,0,0,
,-0.324,-0.647,0.708,-272.156,136.84,137.451,0,0,0,
,-0.298,-0.527,0.654,-240.479,145.141,92.468,0,0,0,
,-0.295,-0.566,0.677,-172.852,128.906,49.377,0,0,0,
,-0.312,-0.637,0.759,-115.479,113.098,39.917,0,0,0,
,-0.304,-0.696,0.781,-146.973,136.657,55.603,0,0,0,
,-0.264,-0.799,0.817,-242.676,154.663,32.653,0,0,0,
,-0.225,-0.779,0.773,-362.977,164.795,37.475,0,0,0,
,-0.232,-0.645,0.776,-352.845,135.864,31.189,0,0,0,
,-0.26,-0.629,0.782,-264.405,116.027,17.395,0,0,0,
,-0.243,-0.603,0.793,-182.862,103.088,11.535,0,0,0,
,-0.2,-0.583,0.878,-69.764,49.377,-11.292,0,0,0,
,-0.229,-0.654,0.881,-39.002,35.888,-29.236,0,0,0,
,-0.198,-0.662,0.862,-249.573,90.026,-29.725,0,0,0,
,-0.176,-0.53,0.876,-198.792,94.116,-48.096,0,0,0,
,-0.168,-0.48,0.899,20.324,100.952,-125.977,0,0,0,
,-0.173,-0.603,0.923,193.481,133.728,-190.43,0,0,0,
,-0.152,-0.658,0.912,281.616,168.762,-208.374,0,0,0,
,-0.133,-0.594,0.897,335.449,183.654,-205.811,0,0,0,
,-0.142,-0.557,0.902,387.329,173.462,-234.07,0,0,0,
,-0.175,-0.598,0.826,404.174,135.742,-241.15,0,0,0,
,-0.221,-0.597,0.794,382.69,75.561,-209.534,0,0,0,
,-0.263,-0.62,0.852,388.427,-1.77,-170.044,0,0,0,
,-0.309,-0.642,0.747,371.338,-27.1,-129.151,0,0,0,
,-0.311,-0.652,0.79,371.765,-79.834,-109.192,0,0,0,
,-0.314,-0.7,0.84,330.993,-120.85,-91.004,0,0,0,
,-0.343,-0.762,0.711,218.322,-162.293,-86.06,0,0,0,
,-0.381,-0.698,0.745,151.733,-202.088,-95.581,0,0,0,
,-0.38,-0.684,0.735,175.903,-158.081,0.61,0,0,0,
,-0.359,-0.592,0.621,150.879,-137.818,45.166,0,0,0,
,-0.323,-0.651,0.541,136.596,-141.724,-1.831,0,0,0,
,-0.311,-0.816,0.461,0.061,-210.022,-52.369,0,0,0,
,-0.361,-0.984,0.461,-263.916,-313.904,-4.578,0,0,0,
,-0.416,-0.988,0.482,-741.211,-389.466,54.992,0,0,0,
,-0.421,-0.746,0.505,-1073.121,-423.645,103.637,0,0,0,
,-0.466,-0.475,0.531,-1109.62,-407.837,124.267,0,0,0,
,-0.471,-0.36,0.58,-891.053,-408.875,104.98,0,0,0,
,-0.539,-0.439,0.583,-683.716,-348.267,101.44,0,0,0,
,-0.529,-0.483,0.627,-642.64,-220.826,103.393,0,0,0,
,-0.483,-0.393,0.603,-586.243,-157.349,110.473,0,0,0,
,-0.48,-0.374,0.665,-462.952,-122.62,130.981,0,0,0,
,-0.475,-0.358,0.655,-364.441,-48.706,110.839,0,0,0,
,-0.446,-0.297,0.676,-205.506,30.761,106.323,0,0,0,
,-0.425,-0.333,0.705,1.953,96.374,106.323,0,0,0,
,-0.396,-0.405,0.718,177.185,133.3,77.026,0,0,0,
,-0.387,-0.469,0.745,303.833,162.536,72.631,0,0,0,
,-0.38,-0.552,0.747,344.116,191.955,90.332,0,0,0,
,-0.342,-0.569,0.726,324.707,223.144,89.843,0,0,0,
,-0.295,-0.558,0.786,402.771,203.613,76.232,0,0,0,
,-0.287,-0.619,0.821,484.985,172.424,44.494,0,0,0,
,-0.296,-0.651,0.882,527.404,157.043,13.549,0,0,0,
,-0.289,-0.744,0.863,549.682,143.31,-16.907,0,0,0,
,-0.298,-0.821,0.77,436.34,147.766,-16.114,0,0,0,
,-0.289,-0.786,0.708,292.541,140.442,-22.522,0,0,0,
,-0.289,-0.749,0.699,169.799,145.874,-38.208,0,0,0,
,-0.282,-0.7,0.739,94.055,138.244,-70.496,0,0,0,
,-0.306,-0.672,0.778,101.562,132.751,-83.863,0,0,0,
,-0.282,-0.707,0.867,61.34,153.015,-69.031,0,0,0,
,-0.226,-0.654,0.891,-7.508,114.257,-45.777,0,0,0,
,-0.212,-0.609,0.907,10.62,59.57,-33.631,0,0,0,
,-0.202,-0.64,0.938,80.322,19.287,-43.641,0,0,0,
,-0.204,-0.69,0.926,82.458,-9.522,-55.481,0,0,0,
,-0.27,-0.616,0.865,226.013,-11.048,-95.765,0,0,0,
,-0.282,-0.661,0.813,330.993,22.705,-116.15,0,0,0,
,-0.267,-0.724,0.767,382.019,44.006,-133.912,0,0,0,
,-0.261,-0.744,0.721,389.587,42.358,-146.302,0,0,0,
,-0.282,-0.767,0.698,358.398,36.01,-161.866,0,0,0,
,-0.296,-0.782,0.695,272.216,41.87,-141.297,0,0,0,
,-0.294,-0.774,0.674,171.264,33.142,-156.067,0,0,0,
,-0.295,-0.74,0.698,108.154,16.418,-145.691,0,0,0,
,-0.311,-0.676,0.671,105.957,-10.621,-140.931,0,0,0,
,-0.332,-0.658,0.641,130.737,-18.372,-144.227,0,0,0,
,-0.34,-0.698,0.644,167.236,-24.048,-143.494,0,0,0,
,-0.345,-0.734,0.667,137.756,-32.044,-119.08,0,0,0,
,-0.35,-0.706,0.609,73.669,-39.917,-117.127,0,0,0,
,-0.351,-0.691,0.621,38.757,-45.411,-104.248,0,0,0,
,-0.351,-0.708,0.63,15.075,-57.923,-103.211,0,0,0,
,-0.351,-0.723,0.612,-40.284,-59.815,-89.478,0,0,0,
,-0.354,-0.734,0.648,-109.436,-78.858,-65.674,0,0,0,
,-0.348,-0.741,0.654,-190.125,-86.243,-45.96,0,0,0,
,-0.338,-0.724,0.653,-269.837,-98.938,-39.246,0,0,0,
,-0.342,-0.734,0.633,-344.117,-123.047,-20.813,0,0,0,
,-0.362,-0.711,0.643,-493.897,-181.58,9.704,0,0,0,
,-0.371,-0.677,0.661,-528.565,-207.703,24.902,0,0,0,
,-0.382,-0.636,0.693,-535.035,-231.141,31.921,0,0,0,
,-0.403,-0.62,0.678,-512.635,-236.573,37.902,0,0,0,
,-0.423,-0.583,0.625,-485.596,-224.488,39.062,0,0,0,
,-0.439,-0.566,0.593,-463.318,-213.013,26.977,0,0,0,
,-0.47,-0.641,0.614,-501.648,-191.895,31.982,0,0,0,
,-0.478,-0.576,0.633,-596.192,-150.879,49.316,0,0,0,
,-0.476,-0.4,0.634,-550.293,-111.939,47.363,0,0,0,
,-0.489,-0.334,0.631,-356.019,-65.857,32.592,0,0,0,
,-0.506,-0.375,0.695,-167.176,-5.738,7.873,0,0,0,
,-0.499,-0.431,0.7,-72.571,86.975,-0.367,0,0,0,
,-0.458,-0.511,0.706,-36.927,156.25,6.164,0,0,0,
,-0.41,-0.574,0.702,-73.426,185.302,3.051,0,0,0,
,-0.38,-0.563,0.742,-137.024,140.869,12.207,0,0,0,
,-0.386,-0.503,0.737,-173.951,111.328,3.295,0,0,0,
,-0.403,-0.455,0.755,-110.23,93.933,8.667,0,0,0,
,-0.423,-0.499,0.754,-35.95,122.192,1.892,0,0,0,
,-0.41,-0.594,0.779,-23.438,159.973,-1.221,0,0,0,
,-0.364,-0.614,0.757,-97.29,186.889,6.469,0,0,0,
,-0.344,-0.563,0.762,-169.312,170.349,0.671,0,0,0,
,-0.339,-0.509,0.782,-151.246,153.747,-28.565,0,0,0,
,-0.348,-0.526,0.868,-101.746,150.817,-58.411,0,0,0,
,-0.346,-0.551,0.872,-91.98,170.898,-83.619,0,0,0,
,-0.329,-0.547,0.861,-101.075,189.148,-90.21,0,0,0,
,-0.304,-0.505,0.848,-101.014,198.242,-104.432,0,0,0,
,-0.3,-0.45,0.852,-48.157,186.828,-121.705,0,0,0,
,-0.309,-0.413,0.863,40.344,182.434,-142.029,0,0,0,
,-0.31,-0.419,0.91,157.592,186.645,-160.401,0,0,0,
,-0.305,-0.422,0.96,250.976,202.758,-159.302,0,0,0,
,-0.281,-0.419,0.953,327.27,219.299,-137.757,0,0,0,
,-0.258,-0.442,0.949,378.173,209.411,-125.184,0,0,0,
,-0.248,-0.466,0.949,409.362,178.161,-116.944,0,0,0,
,-0.249,-0.476,0.949,440.734,148.132,-112.305,0,0,0,
,-0.251,-0.494,0.961,498.108,126.159,-106.263,0,0,0,
,-0.253,-0.536,0.967,532.287,111.999,-100.281,0,0,0,
,-0.249,-0.561,0.932,528.991,101.135,-98.023,0,0,0,
,-0.243,-0.578,0.885,514.282,79.589,-94.178,0,0,0,
,-0.243,-0.616,0.874,481.994,49.255,-91.37,0,0,0,
,-0.256,-0.674,0.862,405.883,29.907,-92.286,0,0,0,
,-0.271,-0.725,0.865,291.992,19.226,-96.924,0,0,0,
,-0.273,-0.677,0.824,192.993,-0.123,-89.234,0,0,0,
,-0.279,-0.634,0.821,188.598,-16.114,-93.079,0,0,0,
,-0.291,-0.621,0.825,220.459,-37.964,-93.873,0,0,0,
,-0.315,-0.672,0.814,240.173,-49.134,-111.634,0,0,0,
,-0.324,-0.709,0.773,176.391,-44.129,-107.789,0,0,0,
,-0.316,-0.714,0.745,85.388,-39.673,-114.075,0,0,0,
,-0.322,-0.698,0.739,13.977,-70.069,-87.464,0,0,0,
,-0.327,-0.721,0.746,-57.129,-75.074,-83.13,0,0,0,
,-0.332,-0.714,0.773,-168.274,-84.29,-49.378,0,0,0,
,-0.331,-0.666,0.73,-260.804,-96.131,-30.823,0,0,0,
,-0.334,-0.586,0.68,-285.096,-109.864,-22.156,0,0,0,
,-0.344,-0.646,0.672,-276.917,-134.156,-33.936,0,0,0,
,-0.342,-0.711,0.669,-377.32,-166.626,-10.804,0,0,0,
,-0.353,-0.66,0.687,-511.719,-203.553,10.559,0,0,0,
,-0.364,-0.583,0.7,-563.416,-223.023,23.254,0,0,0,
,-0.389,-0.502,0.706,-544.739,-254.883,40.588,0,0,0,
,-0.414,-0.468,0.692,-469.361,-239.258,34.973,0,0,0,
,-0.413,-0.459,0.713,-389.832,-224.549,37.414,0,0,0,
,-0.413,-0.547,0.648,-374.939,-203.553,46.691,0,0,0,
,-0.403,-0.595,0.656,-457.337,-208.13,61.828,0,0,0,
,-0.401,-0.537,0.681,-548.584,-233.643,82.885,0,0,0,
,-0.427,-0.415,0.673,-561.158,-248.902,85.571,0,0,0,
,-0.459,-0.443,0.679,-495.301,-222.352,64.758,0,0,0,
,-0.46,-0.451,0.674,-477.784,-183.167,58.227,0,0,0,
,-0.469,-0.43,0.692,-458.924,-150.818,51.33,0,0,0,
,-0.476,-0.411,0.706,-433.045,-100.892,36.377,0,0,0,
,-0.467,-0.377,0.712,-384.461,-47.364,28.259,0,0,0,
,-0.46,-0.32,0.682,-307.312,-15.809,10.192,0,0,0,
,-0.47,-0.331,0.67,-227.539,8.483,-8.301,0,0,0,
,-0.478,-0.384,0.729,-182.618,43.457,-23.56,0,0,0,
,-0.476,-0.383,0.772,-240.052,109.741,2.258,0,0,0,
,-0.436,-0.301,0.804,-260.926,144.47,8.178,0,0,0,
,-0.423,-0.233,0.799,-191.163,125.854,24.963,0,0,0,
,-0.438,-0.214,0.807,-68.421,141.54,27.71,0,0,0,
,-0.454,-0.289,0.855,41.809,173.034,8.239,0,0,0,
,-0.442,-0.378,0.934,78.918,215.149,-10.56,0,0,0,
,-0.404,-0.411,0.93,18.981,241.821,-1.221,0,0,0,
,-0.378,-0.407,0.925,-2.32,215.515,12.695,0,0,0,
,-0.37,-0.392,0.908,13.549,174.377,25.878,0,0,0,
,-0.378,-0.39,0.869,34.668,150.207,22.094,0,0,0,
,-0.374,-0.402,0.921,72.631,132.812,-14.466,0,0,0,
,-0.363,-0.418,0.954,85.266,129.882,-41.871,0,0,0,
,-0.357,-0.394,0.928,84.533,135.864,-43.091,0,0,0,
,-0.348,-0.345,0.879,124.817,148.498,-41.626,0,0,0,
,-0.344,-0.356,0.862,188.293,167.968,-47.181,0,0,0,
,-0.329,-0.388,0.888,218.383,180.236,-69.397,0,0,0,
,-0.309,-0.425,0.955,208.191,198.425,-99.976,0,0,0,
,-0.27,-0.435,0.974,187.744,218.444,-101.502,0,0,0,
,-0.245,-0.396,0.995,204.589,205.993,-89.112,0,0,0,
,-0.255,-0.359,0.967,293.151,193.481,-99.915,0,0,0,
,-0.261,-0.341,0.976,392.639,191.345,-105.042,0,0,0,
,-0.25,-0.477,0.955,442.199,248.596,-81.36,0,0,0,
,-0.21,-0.58,0.947,317.688,244.201,-88.746,0,0,0,
,-0.179,-0.54,0.976,179.626,177.307,-111.512,0,0,0,
,-0.186,-0.416,1.003,134.704,80.81,-135.865,0,0,0,
,-0.227,-0.358,1.041,210.022,53.772,-140.381,0,0,0,
,-0.239,-0.396,1.1,330.505,43.457,-156.922,0,0,0,
,-0.221,-0.451,1.109,409.668,29.602,-170.777,0,0,0,
,-0.223,-0.492,1.046,438.293,-5.921,-170.899,0,0,0,
,-0.235,-0.497,0.966,434.997,-59.632,-148.682,0,0,0,
,-0.259,-0.536,0.904,412.536,-103.943,-156.373,0,0,0,
,-0.292,-0.589,0.902,359.192,-154.969,-159.852,0,0,0,
,-0.308,-0.615,0.856,270.568,-171.326,-152.649,0,0,0,
,-0.329,-0.58,0.829,161.56,-188.721,-141.48,0,0,0,
,-0.343,-0.565,0.82,113.525,-169.068,-133.789,0,0,0,
,-0.365,-0.567,0.78,46.752,-150.757,-135.987,0,0,0,
,-0.38,-0.526,0.78,23.986,-130.127,-92.896,0,0,0,
,-0.379,-0.519,0.769,-24.231,-84.595,-88.257,0,0,0,
,-0.367,-0.545,0.779,-68.238,-59.693,-67.566,0,0,0,
,-0.345,-0.556,0.772,-141.358,-52.43,-28.687,0,0,0,
,-0.328,-0.538,0.736,-215.516,-69.825,-24.476,0,0,0,
,-0.331,-0.53,0.702,-264.588,-116.333,-13.367,0,0,0,
,-0.355,-0.579,0.704,-323.243,-171.448,-0.733,0,0,0,
,-0.367,-0.621,0.702,-452.149,-202.088,15.625,0,0,0,
,-0.38,-0.568,0.695,-606.019,-231.446,57.006,0,0,0,
,-0.392,-0.481,0.682,-701.539,-262.574,78.857,0,0,0,
,-0.417,-0.379,0.696,-677.247,-293.213,93.2,0,0,0,
,-0.456,-0.313,0.691,-582.276,-278.809,86.669,0,0,0,
,-0.467,-0.406,0.714,-502.32,-244.446,70.007,0,0,0,
,-0.464,-0.461,0.77,-559.082,-208.68,75.683,0,0,0,
,-0.41,-0.373,0.776,-615.723,-185.242,93.139,0,0,0,
,-0.454,-0.297,0.764,-561.646,-191.224,104.065,0,0,0,
,-0.489,-0.253,0.781,-485.657,-186.097,83.496,0,0,0,
,-0.511,-0.266,0.774,-422.12,-154.786,69.763,0,0,0,
,-0.519,-0.257,0.812,-406.922,-117.981,73.059,0,0,0,
,-0.527,-0.295,0.765,-403.87,-60.486,94.787,0,0,0,
,-0.513,-0.215,0.755,-413.514,-4.029,131.164,0,0,0,
,-0.519,-0.15,0.747,-340.516,14.343,120.3,0,0,0,
,-0.537,-0.165,0.758,-218.506,61.34,92.041,0,0,0,
,-0.533,-0.186,0.785,-104.798,139.831,51.33,0,0,0,
,-0.493,-0.205,0.796,-14.71,209.777,22.827,0,0,0,
,-0.463,-0.252,0.828,64.575,261.413,18.981,0,0,0,
,-0.43,-0.295,0.851,80.993,288.391,-13.977,0,0,0,
,-0.392,-0.307,0.886,83.313,317.321,-30.03,0,0,0,
,-0.354,-0.322,0.92,46.936,308.593,-54.444,0,0,0,
,-0.32,-0.334,0.951,46.203,293.762,-63.172,0,0,0,
,-0.311,-0.356,0.969,22.155,233.276,-77.027,0,0,0,
,-0.328,-0.297,0.961,-12.391,196.167,-83.802,0,0,0,
,-0.339,-0.221,0.968,38.269,187.317,-86.914,0,0,0,
,-0.329,-0.196,0.956,161.865,199.89,-104.371,0,0,0,
,-0.306,-0.214,0.956,258.972,200.866,-120.728,0,0,0,
,-0.298,-0.298,0.957,345.703,180.664,-134.522,0,0,0,
,-0.29,-0.367,0.96,337.524,158.508,-130.066,0,0,0,
,-0.285,-0.38,0.967,292.297,140.319,-134.949,0,0,0,
,-0.277,-0.338,0.99,259.399,108.947,-148.194,0,0,0,
,-0.285,-0.275,0.99,296.997,88.684,-151.307,0,0,0,
,-0.296,-0.257,0.981,368.53,86.12,-170.166,0,0,0,
,-0.308,-0.261,0.978,471.801,96.435,-188.294,0,0,0,
,-0.308,-0.317,0.964,539.123,119.934,-204.041,0,0,0,
,-0.3,-0.401,0.974,535.644,132.019,-226.075,0,0,0,
,-0.285,-0.469,0.974,446.899,133.178,-245.301,0,0,0,
,-0.285,-0.465,0.994,328.369,113.159,-207.093,0,0,0,
,-0.285,-0.371,0.979,279.052,93.261,-164.917,0,0,0,
,-0.29,-0.326,0.981,320.617,76.904,-159.79,0,0,0,
,-0.286,-0.35,0.98,421.203,57.8,-170.044,0,0,0,
,-0.292,-0.421,0.95,508.789,35.949,-164.063,0,0,0,
,-0.291,-0.504,0.932,511.84,5.31,-160.218,0,0,0,
,-0.291,-0.587,0.917,436.035,-16.175,-156.556,0,0,0,
,-0.292,-0.608,0.902,308.044,-41.321,-130.555,0,0,0,
,-0.295,-0.581,0.871,196.533,-60.181,-116.333,0,0,0,
,-0.309,-0.555,0.866,112.671,-81.604,-113.709,0,0,0,
,-0.327,-0.546,0.832,56.884,-83.374,-120.911,0,0,0,
,-0.337,-0.533,0.837,7.568,-91.431,-111.145,0,0,0,
,-0.346,-0.544,0.846,-39.124,-98.45,-102.051,0,0,0,
,-0.349,-0.567,0.856,-123.475,-106.08,-79.407,0,0,0,
,-0.35,-0.554,0.857,-213.257,-135.01,-60.059,0,0,0,
,-0.367,-0.498,0.811,-302.247,-160.767,-24.903,0,0,0,
,-0.388,-0.462,0.811,-338.562,-188.599,-11.658,0,0,0,
,-0.406,-0.443,0.79,-367.615,-207.52,-0.061,0,0,0,
,-0.42,-0.419,0.794,-396.79,-216.919,28.991,0,0,0,
,-0.433,-0.419,0.797,-415.345,-218.934,37.475,0,0,0,
,-0.448,-0.444,0.774,-461.731,-195.557,79.711,0,0,0,
,-0.436,-0.416,0.767,-517.09,-183.96,103.027,0,0,0,
,-0.43,-0.358,0.747,-538.514,-195.313,123.352,0,0,0,
,-0.442,-0.33,0.747,-517.945,-205.323,124.878,0,0,0,
,-0.457,-0.344,0.746,-482.544,-200.684,118.896,0,0,0,
,-0.457,-0.307,0.733,-477.845,-192.566,105.651,0,0,0,
,-0.485,-0.289,0.715,-442.688,-187.012,103.271,0,0,0,
,-0.503,-0.288,0.705,-414.673,-148.926,87.463,0,0,0,
,-0.504,-0.277,0.698,-389.222,-99.366,81.665,0,0,0,
,-0.494,-0.25,0.689,-368.714,-55.42,76.171,0,0,0,
,-0.493,-0.21,0.7,-319.764,-34.119,66.711,0,0,0,
,-0.507,-0.221,0.712,-253.724,25.573,70.007,0,0,0,
,-0.497,-0.246,0.741,-188.172,101.257,49.621,0,0,0,
,-0.461,-0.248,0.773,-163.575,161.255,39.917,0,0,0,
,-0.426,-0.243,0.813,-121.155,168.884,23.742,0,0,0,
,-0.415,-0.224,0.829,-91.614,155.151,28.93,0,0,0,
,-0.42,-0.2,0.824,-68.909,128.906,27.16,0,0,0,
,-0.434,-0.21,0.838,-23.926,129.455,35.522,0,0,0,
,-0.431,-0.262,0.876,-20.264,167.907,49.316,0,0,0,
,-0.392,-0.336,0.923,-42.664,217.407,31.433,0,0,0,
,-0.348,-0.35,0.929,-110.413,206.848,26.306,0,0,0,
,-0.342,-0.3,0.948,-165.162,145.507,21.362,0,0,0,
,-0.361,-0.214,0.974,-119.263,107.666,9.887,0,0,0,
,-0.386,-0.184,1,0.366,119.506,-17.273,0,0,0,
,-0.39,-0.211,0.989,115.234,166.32,-54.566,0,0,0,
,-0.37,-0.239,1.008,170.837,194.336,-85.694,0,0,0,
,-0.344,-0.279,1.026,200.256,201.965,-98.877,0,0,0,
,-0.319,-0.305,1.044,198.242,179.87,-105.042,0,0,0,
,-0.301,-0.304,1.03,196.411,154.602,-106.507,0,0,0,
,-0.303,-0.291,1.012,204.101,113.281,-121.949,0,0,0,
,-0.314,-0.251,1.009,245.788,83.618,-135.071,0,0,0,
,-0.333,-0.22,1.029,328.735,73.73,-154.053,0,0,0,
,-0.336,-0.192,1.017,438.964,88.806,-171.998,0,0,0,
,-0.338,-0.249,0.989,537.292,113.525,-176.331,0,0,0,
,-0.323,-0.337,0.97,552.063,136.169,-187.561,0,0,0,
,-0.3,-0.38,0.988,486.206,146.667,-186.585,0,0,0,
,-0.281,-0.335,0.968,408.996,119.079,-184.082,0,0,0,
,-0.287,-0.281,0.947,424.133,75.988,-168.885,0,0,0,
,-0.315,-0.293,0.939,473.755,61.523,-158.081,0,0,0,
,-0.329,-0.363,0.962,480.468,80.627,-145.386,0,0,0,
,-0.308,-0.435,0.936,411.255,105.774,-144.715,0,0,0,
,-0.274,-0.454,0.914,315.918,93.2,-134.034,0,0,0,
,-0.258,-0.43,0.899,259.216,48.828,-91.309,0,0,0,
,-0.271,-0.422,0.887,231.323,2.258,-64.881,0,0,0,
,-0.298,-0.473,0.868,185.485,-9.339,-82.886,0,0,0,
,-0.312,-0.528,0.888,130.737,-4.944,-92.469,0,0,0,
,-0.311,-0.538,0.911,35.034,-6.592,-83.435,0,0,0,
,-0.3,-0.459,0.9,-15.503,-26.001,-65.613,0,0,0,
,-0.304,-0.402,0.871,17.578,-40.833,-64.393,0,0,0,
,-0.319,-0.415,0.885,81.176,-41.077,-99.854,0,0,0,
,-0.324,-0.46,0.889,91.064,-52.491,-123.169,0,0,0,
,-0.326,-0.472,0.896,32.898,-70.557,-109.375,0,0,0,
,-0.325,-0.458,0.872,-2.747,-82.459,-95.704,0,0,0,
,-0.335,-0.455,0.888,-29.664,-93.018,-68.055,0,0,0,
,-0.323,-0.423,0.866,-44.739,-100.281,-42.237,0,0,0,
,-0.316,-0.424,0.852,-52.185,-127.503,-25.513,0,0,0,
,-0.339,-0.472,0.829,-76.233,-185.791,-5.433,0,0,0,
,-0.364,-0.502,0.782,-146.485,-192.688,34.362,0,0,0,
,-0.403,-0.505,0.769,-256.043,-203.248,60.18,0,0,0,
,-0.414,-0.474,0.784,-362.915,-174.622,109.069,0,0,0,
,-0.424,-0.455,0.818,-435.12,-169.373,116.699,0,0,0,
,-0.419,-0.372,0.804,-452.942,-158.326,148.071,0,0,0,
,-0.421,-0.291,0.787,-384.705,-151.307,140.991,0,0,0,
,-0.436,-0.311,0.791,-272.583,-142.945,104.126,0,0,0,
,-0.447,-0.428,0.766,-248.536,-109.375,84.35,0,0,0,
,-0.44,-0.459,0.758,-323.182,-106.385,93.322,0,0,0,
,-0.433,-0.388,0.77,-387.513,-124.878,122.375,0,0,0,
,-0.441,-0.341,0.788,-396.119,-129.517,110.168,0,0,0,
,-0.442,-0.337,0.804,-371.705,-140.503,116.943,0,0,0,
,-0.455,-0.302,0.796,-364.014,-153.199,125.976,0,0,0,
,-0.481,-0.286,0.799,-342.469,-150.818,115.417,0,0,0,
,-0.499,-0.278,0.782,-310.608,-98.45,105.529,0,0,0,
,-0.5,-0.285,0.781,-276.49,-39.978,72.815,0,0,0,
,-0.486,-0.277,0.775,-255.127,14.526,55.053,0,0,0,
,-0.472,-0.252,0.772,-215.027,38.024,33.874,0,0,0,
,-0.467,-0.276,0.784,-180.542,74.707,4.638,0,0,0,
,-0.458,-0.303,0.817,-188.05,114.563,-28.077,0,0,0,
,-0.44,-0.32,0.85,-220.826,140.747,-27.161,0,0,0,
,-0.419,-0.236,0.851,-239.563,149.536,-8.179,0,0,0,
,-0.414,-0.159,0.849,-160.34,133.789,-18.006,0,0,0,
,-0.426,-0.205,0.839,-77.454,136.657,-46.875,0,0,0,
,-0.43,-0.291,0.858,-47.73,161.377,-58.655,0,0,0,
,-0.413,-0.313,0.876,-110.352,180.053,-51.026,0,0,0,
,-0.392,-0.245,0.896,-151.673,170.715,-46.021,0,0,0,
,-0.387,-0.176,0.9,-112.488,171.386,-53.04,0,0,0,
,-0.388,-0.142,0.922,-28.321,194.58,-76.416,0,0,0,
,-0.376,-0.148,0.942,76.599,243.164,-104.432,0,0,0,
,-0.35,-0.231,0.967,134.216,295.654,-132.935,0,0,0,
,-0.301,-0.287,0.991,119.751,308.044,-157.41,0,0,0,
,-0.257,-0.262,1.001,94.177,274.475,-162.476,0,0,0,
,-0.24,-0.186,1.021,130.371,216.797,-157.654,0,0,0,
,-0.253,-0.182,1.033,240.6,184.143,-182.679,0,0,0,
,-0.267,-0.205,1.044,331.482,191.101,-205.323,0,0,0,
,-0.257,-0.285,1.05,374.817,211.486,-216.187,0,0,0,
,-0.2,-0.226,1.03,399.536,98.388,-203.064,0,0,0,
,-0.223,-0.187,1.047,473.266,56.823,-208.008,0,0,0,
,-0.247,-0.217,1.039,553.894,50.231,-212.708,0,0,0,
,-0.26,-0.292,1.01,574.89,52.246,-208.863,0,0,0,
,-0.258,-0.337,0.999,542.175,45.471,-179.932,0,0,0,
,-0.253,-0.34,0.977,505.981,19.409,-145.691,0,0,0,
,-0.258,-0.352,0.974,473.755,-1.16,-121.216,0,0,0,
,-0.264,-0.381,0.95,445.007,-14.588,-120.423,0,0,0,
,-0.275,-0.437,0.932,387.817,-22.767,-107.789,0,0,0,
,-0.284,-0.462,0.923,315.002,-37.781,-96.741,0,0,0,
,-0.289,-0.473,0.91,247.802,-44.007,-79.529,0,0,0,
,-0.302,-0.474,0.877,121.215,-76.966,-60.242,0,0,0,
,-0.316,-0.48,0.869,55.725,-84.351,-57.984,0,0,0,
,-0.32,-0.501,0.867,-17.701,-90.882,-65.552,0,0,0,
,-0.32,-0.472,0.875,-86.426,-116.639,-31.8,0,0,0,
,-0.337,-0.441,0.863,-135.56,-146.058,-7.752,0,0,0,
,-0.359,-0.455,0.87,-177.002,-155.701,-4.395,0,0,0,
,-0.364,-0.465,0.875,-240.479,-157.898,11.779,0,0,0,
,-0.361,-0.44,0.872,-307.496,-158.326,51.94,0,0,0,
,-0.36,-0.406,0.869,-334.839,-175.171,49.499,0,0,0,
,-0.364,-0.39,0.857,-354.248,-196.839,71.716,0,0,0,
,-0.385,-0.396,0.856,-368.042,-215.943,81.787,0,0,0,
,-0.395,-0.392,0.869,-396.424,-210.999,96.862,0,0,0,
,-0.401,-0.337,0.871,-397.644,-211.243,109.68,0,0,0,
,-0.401,-0.324,0.848,-266.785,-156.617,125.976,0,0,0,
,-0.408,-0.314,0.81,-259.156,-153.199,137.024,0,0,0,
,-0.421,-0.264,0.791,-250.367,-144.898,141.418,0,0,0,
,-0.418,-0.236,0.735,-240.967,-141.358,124.084,0,0,0,
,-0.428,-0.302,0.715,-235.718,-153.199,108.886,0,0,0,
,-0.451,-0.347,0.73,-291.382,-171.265,111.877,0,0,0,
,-0.476,-0.339,0.749,-372.62,-152.71,126.403,0,0,0,
,-0.489,-0.261,0.75,-402.771,-104.432,157.226,0,0,0,
,-0.485,-0.175,0.752,-346.497,-30.701,134.704,0,0,0,
,-0.473,-0.179,0.749,-227.356,40.1,86.608,0,0,0,
,-0.451,-0.264,0.749,-140.198,88.012,37.963,0,0,0,
,-0.438,-0.342,0.763,-156.922,124.084,0.61,0,0,0,
,-0.424,-0.363,0.806,-238.648,144.165,12.573,0,0,0,
,-0.407,-0.276,0.858,-309.693,161.804,10.681,0,0,0,
,-0.401,-0.176,0.888,-291.199,163.086,12.817,0,0,0,
,-0.405,-0.133,0.912,-206.421,174.804,-0.733,0,0,0,
,-0.398,-0.163,0.924,-114.808,201.782,-13.977,0,0,0,
,-0.374,-0.228,0.931,-90.149,214.233,-18.921,0,0,0,
,-0.343,-0.268,0.944,-116.822,190.979,-20.935,0,0,0,
,-0.324,-0.237,0.934,-170.044,126.037,-11.841,0,0,0,
,-0.344,-0.168,0.962,-170.411,52.063,-6.897,0,0,0,
,-0.373,-0.137,0.974,-112.122,42.114,-14.1,0,0,0,
,-0.39,-0.134,0.969,-36.805,66.833,-33.692,0,0,0,
,-0.379,-0.147,0.985,29.541,108.276,-42.237,0,0,0,
,-0.35,-0.187,0.987,63.842,131.408,-64.515,0,0,0,
,-0.336,-0.206,0.981,71.594,112.976,-79.834,0,0,0,
,-0.337,-0.204,0.982,64.697,95.336,-92.652,0,0,0,
,-0.335,-0.178,1.001,78.857,98.877,-103.089,0,0,0,
,-0.339,-0.171,1.012,123.84,118.225,-127.015,0,0,0,
,-0.328,-0.163,1.003,174.926,133.3,-155.762,0,0,0,
,-0.316,-0.168,0.994,227.905,137.939,-162.293,0,0,0,
,-0.309,-0.185,0.983,270.08,133.361,-179.505,0,0,0,
,-0.311,-0.198,0.95,293.579,128.845,-185.547,0,0,0,
,-0.309,-0.205,0.952,312.805,138.183,-187.684,0,0,0,
,-0.294,-0.198,0.955,334.838,148.01,-196.595,0,0,0,
,-0.28,-0.195,0.955,377.258,139.648,-197.144,0,0,0,
,-0.27,-0.19,0.96,435.913,127.136,-200.928,0,0,0,
,-0.272,-0.249,0.973,481.689,122.802,-205.994,0,0,0,
,-0.26,-0.268,0.975,494.262,121.399,-198.243,0,0,0,
,-0.253,-0.289,0.97,503.54,108.215,-188.355,0,0,0,
,-0.246,-0.299,0.975,497.68,89.233,-181.031,0,0,0,
,-0.246,-0.298,0.978,489.929,65.002,-172.364,0,0,0,
,-0.248,-0.289,0.986,503.662,44.128,-167.786,0,0,0,
,-0.256,-0.327,1.001,518.127,27.893,-157.959,0,0,0,
,-0.253,-0.349,0.982,497.985,23.193,-130.738,0,0,0,
,-0.25,-0.357,0.95,466.552,-1.038,-108.338,0,0,0,
,-0.254,-0.38,0.927,429.077,-26.49,-89.539,0,0,0,
,-0.258,-0.4,0.931,386.718,-60.12,-74.524,0,0,0,
,-0.268,-0.435,0.905,343.933,-70.679,-65.064,0,0,0,
,-0.269,-0.471,0.889,283.203,-79.102,-51.514,0,0,0,
,-0.279,-0.53,0.91,220.642,-97.046,-59.754,0,0,0,
,-0.279,-0.552,0.909,108.093,-129.151,-36.133,0,0,0,
,-0.296,-0.546,0.909,8.178,-155.701,-15.32,0,0,0,
,-0.318,-0.534,0.906,-67.444,-180.176,-17.151,0,0,0,
,-0.342,-0.527,0.929,-145.997,-196.473,-2.747,0,0,0,
,-0.351,-0.504,0.905,-202.515,-186.463,7.568,0,0,0,
,-0.354,-0.501,0.893,-252.808,-194.092,-3.785,0,0,0,
,-0.372,-0.521,0.887,-311.646,-211.487,5.249,0,0,0,
,-0.392,-0.494,0.889,-391.236,-227.295,22.644,0,0,0,
,-0.406,-0.414,0.888,-434.876,-228.089,43.273,0,0,0,
,-0.414,-0.367,0.861,-415.894,-223.389,36.438,0,0,0,
,-0.422,-0.377,0.839,-379.578,-206.177,30.517,0,0,0,
,-0.428,-0.394,0.841,-396.485,-196.289,24.78,0,0,0,
,-0.434,-0.393,0.823,-424.5,-193.604,33.63,0,0,0,
,-0.438,-0.336,0.79,-460.328,-184.144,76.538,0,0,0,
,-0.447,-0.313,0.759,-469.605,-172.12,79.528,0,0,0,
,-0.457,-0.38,0.757,-489.441,-151.49,81.359,0,0,0,
,-0.443,-0.356,0.76,-580.262,-156.25,109.375,0,0,0,
,-0.447,-0.254,0.749,-606.446,-174.439,134.216,0,0,0,
,-0.474,-0.187,0.726,-540.711,-164.124,117.37,0,0,0,
,-0.5,-0.222,0.712,-423.706,-98.633,68.664,0,0,0,
,-0.511,-0.162,0.748,-378.663,-65.43,69.763,0,0,0,
,-0.514,-0.199,0.77,-348.206,14.099,36.071,0,0,0,
,-0.489,-0.16,0.772,-337.647,81.604,70.678,0,0,0,
,-0.454,-0.079,0.798,-272.583,113.281,78.491,0,0,0,
,-0.44,-0.115,0.797,-156.311,128.906,6.469,0,0,0,
,-0.45,-0.164,0.859,-125.733,150.329,10.498,0,0,0,
,-0.436,-0.124,0.869,-115.052,157.104,11.718,0,0,0,
,-0.429,-0.108,0.872,-73.914,152.404,7.202,0,0,0,
,-0.436,-0.141,0.875,-56.519,146.301,-9.583,0,0,0,
,-0.432,-0.159,0.885,-74.463,161.56,-7.508,0,0,0,
,-0.412,-0.147,0.929,-90.027,181.518,-19.043,0,0,0,
,-0.375,-0.115,0.979,-52.063,195.8,-37.598,0,0,0,
,-0.351,-0.089,1.018,10.803,182.251,-45.35,0,0,0,
,-0.339,-0.076,1.017,124.328,168.213,-59.144,0,0,0,
,-0.341,-0.112,1.019,217.529,162.597,-82.032,0,0,0,
,-0.346,-0.151,1.018,284.668,172.424,-119.507,0,0,0,
,-0.328,-0.163,1.022,321.594,186.279,-135.743,0,0,0,
,-0.315,-0.161,0.989,366.455,180.236,-160.767,0,0,0,
,-0.31,-0.181,0.985,400.39,157.043,-171.631,0,0,0,
,-0.308,-0.163,0.974,447.509,152.038,-162.415,0,0,0,
,-0.299,-0.161,0.97,516.052,144.226,-168.641,0,0,0,
,-0.309,-0.204,0.949,576.782,157.47,-171.326,0,0,0,
,-0.292,-0.232,0.961,563.903,178.833,-167.481,0,0,0,
,-0.278,-0.288,0.965,568.969,185.913,-181.092,0,0,0,
,-0.262,-0.323,0.991,531.25,180.42,-166.382,0,0,0,
,-0.241,-0.293,0.977,498.23,161.316,-146.485,0,0,0,
,-0.246,-0.248,0.975,499.817,117.126,-131.775,0,0,0,
,-0.26,-0.237,0.984,546.081,85.754,-127.93,0,0,0,
,-0.268,-0.281,0.983,601.135,68.664,-142.456,0,0,0,
,-0.272,-0.341,0.986,625.244,59.021,-134.339,0,0,0,
,-0.265,-0.38,0.988,625.183,41.626,-123.23,0,0,0,
,-0.272,-0.424,0.952,571.228,7.507,-109.314,0,0,0,
,-0.288,-0.471,0.934,497.68,-18.921,-83.069,0,0,0,
,-0.298,-0.513,0.929,397.033,-31.495,-85.022,0,0,0,
,-0.296,-0.52,0.914,295.593,-58.411,-62.5,0,0,0,
,-0.313,-0.519,0.917,195.495,-75.44,-53.589,0,0,0,
,-0.32,-0.519,0.917,114.99,-80.445,-51.148,0,0,0,
,-0.326,-0.517,0.92,56.884,-89.844,-41.382,0,0,0,
,-0.332,-0.534,0.895,-2.137,-86.182,-38.025,0,0,0,
,-0.337,-0.539,0.888,-85.022,-97.046,-28.626,0,0,0,
,-0.333,-0.5,0.94,-123.291,-106.873,-21.973,0,0,0,
,-0.335,-0.479,0.886,-135.987,-96.985,-37.293,0,0,0,
,-0.349,-0.469,0.871,-122.498,-108.948,-15.686,0,0,0,
,-0.358,-0.476,0.86,-128.602,-105.225,-26.123,0,0,0,
,-0.357,-0.516,0.854,-152.832,-106.324,-43.213,0,0,0,
,-0.359,-0.55,0.829,-256.714,-116.761,-26.368,0,0,0,
,-0.357,-0.515,0.832,-359.986,-146.851,-5.494,0,0,0,
,-0.373,-0.43,0.861,-421.143,-177.735,18.371,0,0,0,
,-0.391,-0.345,0.854,-391.053,-185.059,33.386,0,0,0,
,-0.396,-0.288,0.868,-340.638,-164.917,23.742,0,0,0,
,-0.407,-0.294,0.829,-246.399,-142.823,23.01,0,0,0,
,-0.418,-0.319,0.84,-214.417,-133.606,24.047,0,0,0,
,-0.428,-0.332,0.8,-220.215,-99.305,39.856,0,0,0,
,-0.411,-0.341,0.798,-229.676,-89.051,59.082,0,0,0,
,-0.405,-0.34,0.826,-282.41,-114.075,83.984,0,0,0,
,-0.407,-0.271,0.784,-297.059,-108.887,115.051,0,0,0,
,-0.423,-0.356,0.687,-220.581,-64.759,112.365,0,0,0,
,-0.419,-0.358,0.74,-265.992,-69.275,106.994,0,0,0,
,-0.409,-0.347,0.744,-265.87,-62.073,95.52,0,0,0,
,-0.409,-0.366,0.792,-260.682,-58.289,80.444,0,0,0,
,-0.416,-0.364,0.798,-275.635,-33.692,66.711,0,0,0,
,-0.413,-0.338,0.73,-283.02,10.681,31.86,0,0,0,
,-0.415,-0.336,0.758,-339.722,16.174,31.982,0,0,0,
,-0.409,-0.308,0.831,-382.813,13.549,11.535,0,0,0,
,-0.418,-0.251,0.903,-404.725,32.714,25.94,0,0,0,
,-0.422,-0.178,0.957,-383.545,58.96,13.855,0,0,0,
,-0.413,-0.117,0.977,-270.63,102.234,-3.846,0,0,0,
,-0.403,-0.092,0.986,-100.403,134.521,-23.987,0,0,0,
,-0.4,-0.142,0.918,51.452,168.274,-63.904,0,0,0,
,-0.413,-0.25,0.928,112.243,178.161,-85.083,0,0,0,
,-0.394,-0.27,0.909,78.796,218.383,-97.168,0,0,0,
,-0.366,-0.239,0.919,33.691,206.543,-112.732,0,0,0,
,-0.351,-0.17,0.915,40.893,180.42,-114.38,0,0,0,
,-0.365,-0.156,0.941,108.886,167.846,-133.545,0,0,0,
,-0.373,-0.147,0.946,197.387,182.19,-131.897,0,0,0,
,-0.368,-0.162,0.938,274.963,208.801,-146.363,0,0,0,
,-0.35,-0.19,0.951,330.017,231.994,-166.871,0,0,0,
,-0.328,-0.273,0.942,335.266,262.207,-171.936,0,0,0,
,-0.294,-0.311,0.962,267.212,247.436,-168.519,0,0,0,
,-0.263,-0.246,0.979,217.529,200.378,-145.569,0,0,0,
,-0.266,-0.177,1.022,259.643,131.164,-143.616,0,0,0,
,-0.291,-0.13,1.048,389.831,104.919,-143.372,0,0,0,
,-0.314,-0.146,1.015,523.498,135.925,-132.203,0,0,0,
,-0.305,-0.261,0.984,601.501,180.786,-143.616,0,0,0,
,-0.268,-0.388,0.955,555.481,200.744,-147.156,0,0,0,
,-0.222,-0.416,0.955,446.411,157.165,-118.775,0,0,0,
,-0.203,-0.359,0.971,372.619,75.073,-89.356,0,0,0,
,-0.222,-0.299,0.988,397.644,10.864,-90.821,0,0,0,
,-0.262,-0.286,0.985,470.886,-4.09,-80.994,0,0,0,
,-0.286,-0.345,0.956,528.625,26.245,-99.549,0,0,0,
,-0.27,-0.437,0.93,506.408,58.288,-102.356,0,0,0,
,-0.243,-0.542,0.91,406.189,46.63,-82.52,0,0,0,
,-0.233,-0.558,0.932,249.389,-14.954,-53.956,0,0,0,
,-0.24,-0.473,0.924,136.108,-82.825,-19.837,0,0,0,
,-0.272,-0.392,0.922,144.653,-118.531,-17.823,0,0,0,
,-0.308,-0.399,0.915,219.055,-117.737,-42.237,0,0,0,
,-0.319,-0.469,0.921,266.784,-88.257,-61.219,0,0,0,
,-0.307,-0.569,0.88,225.463,-61.524,-48.829,0,0,0,
,-0.287,-0.626,0.855,100.525,-87.098,-31.739,0,0,0,
,-0.286,-0.594,0.853,-54.322,-135.315,-7.691,0,0,0,
,-0.302,-0.515,0.86,-147.644,-184.266,5.004,0,0,0,
,-0.332,-0.489,0.881,-166.565,-202.942,-14.588,0,0,0,
,-0.344,-0.495,0.896,-193.909,-191.04,14.404,0,0,0,
,-0.344,-0.482,0.89,-209.656,-178.833,6.774,0,0,0,
,-0.342,-0.456,0.859,-212.22,-180.909,17.883,0,0,0,
,-0.353,-0.435,0.827,-194.214,-191.346,10.559,0,0,0,
,-0.376,-0.459,0.811,-186.585,-188.355,-4.09,0,0,0,
,-0.39,-0.493,0.808,-226.624,-191.224,5.615,0,0,0,
,-0.393,-0.484,0.786,-325.379,-175.477,37.963,0,0,0,
,-0.399,-0.478,0.807,-406.373,-182.923,60.791,0,0,0,
,-0.403,-0.446,0.836,-473.023,-181.946,86.242,0,0,0,
,-0.409,-0.385,0.816,-476.38,-172.303,107.36,0,0,0,
,-0.412,-0.337,0.798,-426.087,-157.898,95.703,0,0,0,
,-0.416,-0.335,0.794,-358.704,-158.081,66.467,0,0,0,
,-0.419,-0.396,0.806,-328.003,-160.645,29.785,0,0,0,
,-0.428,-0.435,0.812,-371.155,-158.875,33.691,0,0,0,
,-0.429,-0.343,0.815,-412.049,-155.518,43.762,0,0,0,
,-0.429,-0.282,0.793,-362.183,-135.498,24.78,0,0,0,
,-0.433,-0.302,0.791,-304.017,-128.663,-6.531,0,0,0,
,-0.441,-0.352,0.789,-302.857,-121.338,-21.485,0,0,0,
,-0.448,-0.306,0.808,-344.361,-121.521,-9.644,0,0,0,
,-0.455,-0.24,0.802,-352.845,-104.371,-3.602,0,0,0,
,-0.47,-0.198,0.796,-310.242,-80.872,-9.156,0,0,0,
,-0.47,-0.185,0.814,-250.061,-49.012,-27.405,0,0,0,
,-0.465,-0.185,0.811,-192.2,-15.992,-35.584,0,0,0,
,-0.47,-0.188,0.797,-138.062,17.028,-33.387,0,0,0,
,-0.467,-0.188,0.792,-108.46,53.344,-31.983,0,0,0,
,-0.467,-0.2,0.79,-79.468,65.918,-41.077,0,0,0,
,-0.466,-0.249,0.832,-100.831,113.525,-70.191,0,0,0,
,-0.441,-0.183,0.851,-124.268,140.808,-36.866,0,0,0,
,-0.428,-0.104,0.844,-35.889,159.179,-36.744,0,0,0,
,-0.433,-0.14,0.835,91.857,181.03,-79.895,0,0,0,
,-0.426,-0.249,0.828,145.446,208.191,-93.811,0,0,0,
,-0.419,-0.308,0.832,98.205,217.407,-105.896,0,0,0,
,-0.412,-0.299,0.867,7.69,211.67,-109.436,0,0,0,
,-0.411,-0.221,0.932,-36.194,223.693,-103.516,0,0,0,
,-0.397,-0.163,0.966,17.395,263.183,-106.263,0,0,0,
,-0.37,-0.158,0.999,93.444,286.255,-107.789,0,0,0,
,-0.337,-0.2,1.005,142.456,288.635,-100.831,0,0,0,
,-0.308,-0.224,1.016,123.535,247.009,-90.332,0,0,0,
,-0.295,-0.216,1.02,101.989,178.344,-87.159,0,0,0,
,-0.31,-0.171,0.976,110.107,125.122,-69.153,0,0,0,
,-0.332,-0.125,0.961,186.157,83.19,-63.233,0,0,0,
,-0.356,-0.124,0.968,279.419,63.964,-79.285,0,0,0,
,-0.37,-0.143,0.973,385.681,83.862,-79.651,0,0,0,
,-0.362,-0.197,0.976,434.265,134.765,-78.98,0,0,0,
,-0.326,-0.285,0.957,439.087,195.312,-100.953,0,0,0,
,-0.282,-0.318,0.973,395.813,181.579,-93.75,0,0,0,
,-0.26,-0.226,0.986,388.244,139.709,-61.829,0,0,0,
,-0.264,-0.18,0.999,489.929,100.219,-57.679,0,0,0,
,-0.285,-0.188,1,671.447,83.068,-68.604,0,0,0,
,-0.297,-0.253,0.991,814.209,96.862,-76.661,0,0,0,
,-0.287,-0.357,0.963,881.897,118.53,-75.44,0,0,0,
,-0.258,-0.489,0.953,851.989,118.225,-73.975,0,0,0,
,-0.232,-0.544,0.923,727.661,69.091,-67.322,0,0,0,
,-0.234,-0.525,0.893,633.728,5.371,-46.936,0,0,0,
,-0.259,-0.543,0.873,601.013,-51.453,-58.96,0,0,0,
,-0.289,-0.598,0.853,539.856,-69.275,-67.688,0,0,0,
,-0.309,-0.624,0.829,433.227,-68.726,-71.961,0,0,0,
,-0.314,-0.639,0.822,314.514,-53.284,-57.801,0,0,0,
,-0.312,-0.629,0.818,204.834,-49.622,-58.35,0,0,0,
,-0.312,-0.605,0.813,136.047,-54.81,-44.678,0,0,0,
,-0.318,-0.591,0.789,93.566,-65.552,-40.284,0,0,0,
,-0.319,-0.618,0.78,51.086,-65.613,-41.565,0,0,0,
,-0.321,-0.647,0.805,-46.814,-74.463,-38.269,0,0,0,
,-0.314,-0.634,0.804,-133.179,-90.271,-18.677,0,0,0,
,-0.312,-0.605,0.815,-205.628,-113.282,-5.005,0,0,0,
,-0.315,-0.596,0.8,-261.597,-127.32,-7.081,0,0,0,
,-0.317,-0.585,0.803,-309.327,-145.997,-11.231,0,0,0,
,-0.327,-0.57,0.808,-346.68,-174.439,-1.526,0,0,0,
,-0.374,-0.565,0.823,-378.724,-186.646,4.089,0,0,0,
,-0.364,-0.577,0.81,-445.984,-178.406,6.469,0,0,0,
,-0.365,-0.497,0.807,-481.812,-179.261,26.855,0,0,0,
,-0.369,-0.391,0.813,-462.708,-193.909,21.057,0,0,0,
,-0.394,-0.358,0.817,-345.093,-197.632,6.53,0,0,0,
,-0.419,-0.387,0.802,-257.264,-167.298,6.713,0,0,0,
,-0.434,-0.426,0.752,-237.977,-119.446,3.601,0,0,0,
,-0.428,-0.47,0.759,-292.176,-71.595,-0.123,0,0,0,
,-0.406,-0.442,0.797,-350.769,-69.153,18.615,0,0,0,
,-0.404,-0.394,0.819,-356.873,-87.037,35.827,0,0,0,
,-0.417,-0.36,0.836,-330.506,-91.675,29.968,0,0,0,
,-0.413,-0.361,0.842,-289.063,-57.923,17.089,0,0,0,
,-0.396,-0.418,0.832,-265.686,-42.969,3.784,0,0,0,
,-0.383,-0.45,0.819,-293.396,-60.791,6.164,0,0,0,
,-0.385,-0.463,0.798,-359.253,-95.643,5.31,0,0,0,
,-0.397,-0.423,0.805,-430.359,-127.564,1.831,0,0,0,
,-0.437,-0.3,0.817,-422.425,-107.483,-21.485,0,0,0,
,-0.443,-0.249,0.789,-377.198,-73.243,-35.828,0,0,0,
,-0.457,-0.277,0.744,-324.646,-23.804,-63.111,0,0,0,
,-0.457,-0.294,0.733,-316.407,15.075,-82.276,0,0,0,
,-0.453,-0.316,0.767,-377.137,36.438,-104.798,0,0,0,
,-0.449,-0.252,0.816,-434.693,48.828,-109.681,0,0,0,
,-0.449,-0.137,0.836,-423.523,86.364,-68.604,0,0,0,
,-0.446,-0.088,0.831,-334.839,121.582,-83.924,0,0,0,
,-0.442,-0.114,0.829,-238.77,150.879,-96.802,0,0,0,
,-0.438,-0.159,0.845,-218.873,162.902,-93.934,0,0,0,
,-0.42,-0.133,0.851,-223.084,166.87,-70.008,0,0,0,
,-0.412,-0.065,0.878,-179.139,160.156,-48.584,0,0,0,
,-0.415,-0.027,0.88,-70.008,166.626,-49.134,0,0,0,
,-0.423,-0.063,0.899,38.391,184.265,-44.068,0,0,0,
,-0.414,-0.073,0.936,127.197,203.247,-53.528,0,0,0,
,-0.4,-0.086,0.967,207.885,227.478,-58.045,0,0,0,
,-0.381,-0.09,0.978,296.142,237.121,-64.27,0,0,0,
,-0.359,-0.084,0.99,397.888,228.759,-65.735,0,0,0,
,-0.349,-0.091,0.991,521.972,217.041,-70.923,0,0,0,
,-0.334,-0.163,1.044,622.436,215.332,-79.529,0,0,0,
,-0.309,-0.253,1.045,670.227,219.787,-86.243,0,0,0,
,-0.275,-0.231,1.01,664.917,124.389,-57.251,0,0,0,
,-0.295,-0.234,0.997,725.219,80.2,-60.425,0,0,0,
,-0.316,-0.263,0.993,788.452,57.128,-67.933,0,0,0,
,-0.318,-0.313,0.975,829.406,71.289,-67.322,0,0,0,
,-0.303,-0.393,0.936,833.191,96.618,-67.933,0,0,0,
,-0.284,-0.475,0.904,768.31,96.252,-62.5,0,0,0,
,-0.269,-0.54,0.89,639.892,75.988,-51.575,0,0,0,
,-0.259,-0.545,0.886,519.958,49.011,-37.171,0,0,0,
,-0.261,-0.509,0.872,451.172,19.287,-19.532,0,0,0,
,-0.271,-0.492,0.856,430.908,2.929,-22.278,0,0,0,
,-0.284,-0.518,0.855,441.223,2.502,-42.359,0,0,0,
,-0.282,-0.564,0.861,439.27,-0.611,-48.035,0,0,0,
,-0.285,-0.608,0.856,399.963,-11.048,-42.847,0,0,0,
,-0.308,-0.617,0.777,249.084,-43.335,-35.889,0,0,0,
,-0.312,-0.637,0.779,186.157,-46.204,-25.513,0,0,0,
,-0.311,-0.647,0.763,103.637,-52.43,-15.015,0,0,0,
,-0.307,-0.657,0.772,15.136,-68.665,-2.259,0,0,0,
,-0.31,-0.641,0.78,-65.003,-91.736,14.221,0,0,0,
,-0.319,-0.602,0.779,-125.855,-115.601,23.132,0,0,0,
,-0.329,-0.597,0.78,-129.151,-118.226,20.935,0,0,0,
,-0.332,-0.643,0.777,-148.56,-119.873,12.023,0,0,0,
,-0.338,-0.637,0.775,-219.483,-130.799,15.136,0,0,0,
,-0.351,-0.603,0.798,-277.283,-146.973,22.461,0,0,0,
,-0.359,-0.54,0.833,-282.105,-147.095,24.475,0,0,0,
,-0.362,-0.518,0.803,-239.93,-124.207,15.564,0,0,0,
,-0.334,-0.609,0.79,-375.245,-159.119,16.235,0,0,0,
,-0.35,-0.505,0.782,-416.687,-187.989,28.015,0,0,0,
,-0.381,-0.469,0.767,-357.117,-197.876,9.582,0,0,0,
,-0.397,-0.513,0.737,-330.14,-171.021,-3.357,0,0,0,
,-0.398,-0.558,0.729,-385.254,-158.753,-7.447,0,0,0,
,-0.393,-0.537,0.731,-458.008,-162.171,7.812,0,0,0,
,-0.408,-0.454,0.728,-497.742,-166.382,20.69,0,0,0,
,-0.425,-0.364,0.73,-445.984,-145.874,9.216,0,0,0,
,-0.462,-0.384,0.731,-386.292,-81.727,-7.935,0,0,0,
,-0.465,-0.399,0.796,-351.197,-16.724,-22.034,0,0,0,
,-0.436,-0.362,0.791,-338.379,65.734,-16.724,0,0,0,
,-0.404,-0.306,0.784,-68.543,120.178,-42.664,0,0,0,
,-0.407,-0.342,0.791,-26.917,127.807,-51.27,0,0,0,
,-0.396,-0.365,0.811,-33.143,130.798,-49.012,0,0,0,
,-0.385,-0.378,0.825,-53.406,127.258,-38.636,0,0,0,
,-0.382,-0.383,0.84,-79.59,117.065,-23.804,0,0,0,
,-0.375,-0.268,0.877,62.072,121.154,-35.828,0,0,0,
,-0.382,-0.264,0.889,194.091,125,-54.017,0,0,0,
,-0.385,-0.288,0.904,318.664,136.535,-75.196,0,0,0,
,-0.386,-0.361,0.904,403.747,168.274,-83.069,0,0,0,
,-0.378,-0.469,0.898,395.568,202.148,-81.727,0,0,0,
,-0.348,-0.513,0.892,292.724,227.111,-75.745,0,0,0,
,-0.317,-0.504,0.893,179.87,212.585,-61.524,0,0,0,
,-0.297,-0.439,0.913,120.3,177.368,-43.519,0,0,0,
,-0.297,-0.362,0.933,151.672,143.005,-49.317,0,0,0,
,-0.303,-0.319,0.958,270.874,132.995,-61.768,0,0,0,
,-0.302,-0.321,0.979,422.058,139.526,-84.839,0,0,0,
,-0.234,-0.618,0.909,459.777,145.507,-109.253,0,0,0,
,-0.219,-0.6,0.905,320.068,79.589,-89.295,0,0,0,
,-0.23,-0.499,0.91,278.076,16.723,-68.421,0,0,0,
,-0.264,-0.469,0.926,322.937,-9.949,-86.365,0,0,0,
,-0.291,-0.515,0.906,380.798,14.77,-107.605,0,0,0,
,-0.279,-0.55,0.873,390.564,37.414,-101.685,0,0,0,
,-0.259,-0.572,0.835,372.68,30.944,-101.38,0,0,0,
,-0.259,-0.603,0.807,334.167,3.173,-91.614,0,0,0,
,-0.275,-0.624,0.793,258.3,-21.424,-75.745,0,0,0,
,-0.296,-0.627,0.794,180.236,-26.429,-67.261,0,0,0,
,-0.303,-0.602,0.805,111.938,-13.855,-54.322,0,0,0,
,-0.299,-0.561,0.829,91.491,5.065,-37.476,0,0,0,
,-0.298,-0.571,0.821,107.788,9.826,-39.49,0,0,0,
,-0.291,-0.611,0.823,101.318,18.188,-38.758,0,0,0,
,-0.273,-0.614,0.811,61.035,15.869,-26.917,0,0,0,
,-0.265,-0.645,0.753,11.474,-22.217,-39.185,0,0,0,
,-0.273,-0.721,0.778,-81.055,-77.637,-36.683,0,0,0,
,-0.286,-0.736,0.795,-243.287,-134.644,1.709,0,0,0,
,-0.303,-0.657,0.791,-377.442,-180.787,25.573,0,0,0,
,-0.329,-0.561,0.789,-410.279,-219.361,32.898,0,0,0,
,-0.355,-0.517,0.778,-367.737,-224.305,29.174,0,0,0,
,-0.373,-0.548,0.786,-319.642,-222.901,8.483,0,0,0,
,-0.38,-0.605,0.779,-349.854,-203.675,8.789,0,0,0,
,-0.378,-0.625,0.782,-431.214,-193.848,18.554,0,0,0,
,-0.386,-0.599,0.781,-524.72,-198.67,33.081,0,0,0,
,-0.391,-0.488,0.804,-565.796,-211.06,49.194,0,0,0,
,-0.411,-0.411,0.824,-501.465,-210.328,33.996,0,0,0,
,-0.427,-0.411,0.828,-410.157,-172.12,19.47,0,0,0,
,-0.43,-0.445,0.81,-359.803,-136.231,23.925,0,0,0,
,-0.414,-0.456,0.775,-359.009,-108.826,16.906,0,0,0,
,-0.404,-0.46,0.782,-370.057,-113.16,15.136,0,0,0,
,-0.404,-0.465,0.786,-398.194,-130.677,28.991,0,0,0,
,-0.417,-0.43,0.764,-444.886,-133.484,47.302,0,0,0,
,-0.418,-0.365,0.764,-441.346,-132.264,44.25,0,0,0,
,-0.413,-0.319,0.74,-374.146,-126.343,24.902,0,0,0,
,-0.431,-0.323,0.721,-309.327,-125.123,2.807,0,0,0,
,-0.443,-0.349,0.689,-288.819,-89.844,-23.316,0,0,0,
,-0.453,-0.381,0.655,-325.806,-61.707,-25.147,0,0,0,
,-0.454,-0.36,0.673,-401.734,-36.499,-7.752,0,0,0,
,-0.453,-0.274,0.713,-461.792,-14.71,2.868,0,0,0,
,-0.46,-0.19,0.769,-446.351,31.799,3.723,0,0,0,
,-0.461,-0.11,0.806,-345.52,97.106,12.146,0,0,0,
,-0.441,-0.108,0.838,-181.885,183.96,25.756,0,0,0,
,-0.406,-0.162,0.851,-40.772,234.13,-15.259,0,0,0,
,-0.374,-0.254,0.841,39.123,232.238,-7.874,0,0,0,
,-0.369,-0.286,0.836,24.963,181.152,-1.709,0,0,0,
,-0.391,-0.248,0.839,-15.748,128.357,17.334,0,0,0,
,-0.427,-0.205,0.874,-33.387,117.492,16.662,0,0,0,
,-0.435,-0.212,0.917,-11.658,176.086,19.409,0,0,0,
,-0.4,-0.247,0.959,2.685,243.713,14.16,0,0,0,
,-0.35,-0.255,0.953,10.864,271.301,23.864,0,0,0,
,-0.319,-0.251,0.97,26.001,242.92,33.569,0,0,0,
,-0.303,-0.259,0.994,83.374,214.599,21.789,0,0,0,
,-0.296,-0.291,1.029,142.761,200.195,-8.973,0,0,0,
,-0.272,-0.328,1.054,213.379,196.167,-51.575,0,0,0,
,-0.254,-0.339,1.048,255.737,168.701,-72.327,0,0,0,
,-0.263,-0.348,1.024,288.574,121.887,-89.844,0,0,0,
,-0.283,-0.369,0.995,304.199,88.073,-111.939,0,0,0,
,-0.299,-0.377,0.977,306.335,84.961,-121.949,0,0,0,
,-0.306,-0.346,0.962,296.569,91.857,-139.1,0,0,0,
,-0.305,-0.357,0.951,300.72,99.792,-157.044,0,0,0,
,-0.303,-0.356,0.943,318.969,107.971,-169.495,0,0,0,
,-0.309,-0.391,0.922,319.336,132.995,-182.496,0,0,0,
,-0.304,-0.446,0.919,256.836,176.941,-194.153,0,0,0,
,-0.272,-0.425,0.918,164.917,198.059,-195.557,0,0,0,
,-0.233,-0.363,0.919,118.225,188.537,-197.632,0,0,0,
,-0.236,-0.315,0.969,168.701,137.146,-224.549,0,0,0,
,-0.239,-0.31,0.993,245.3,125.854,-214.783,0,0,0,
,-0.25,-0.315,1.019,318.054,120.788,-231.446,0,0,0,
,-0.247,-0.351,1.01,356.567,124.511,-210.144,0,0,0,
,-0.238,-0.386,0.991,358.947,102.661,-194.031,0,0,0,
,-0.23,-0.391,0.975,344.909,67.138,-157.288,0,0,0,
,-0.231,-0.394,0.967,335.51,22.888,-135.193,0,0,0,
,-0.24,-0.417,0.951,316.772,-17.029,-125.428,0,0,0,
,-0.248,-0.476,0.96,253.54,-46.998,-122.864,0,0,0,
,-0.247,-0.505,0.943,176.757,-70.679,-90.149,0,0,0,
,-0.248,-0.495,0.904,123.474,-107.972,-61.768,0,0,0,
,-0.256,-0.493,0.882,97.961,-136.353,-52.308,0,0,0,
,-0.263,-0.538,0.866,80.2,-144.288,-52.369,0,0,0,
,-0.266,-0.606,0.858,12.878,-130.494,-42.603,0,0,0,
,-0.257,-0.618,0.841,-127.137,-150.574,-28.321,0,0,0,
,-0.255,-0.555,0.83,-263.001,-187.989,-20.569,0,0,0,
,-0.276,-0.496,0.845,-336.121,-247.376,-25.452,0,0,0,
,-0.312,-0.434,0.853,-354.004,-273.194,-9.278,0,0,0,
,-0.354,-0.379,0.849,-334.717,-272.461,-3.479,0,0,0,
,-0.379,-0.346,0.831,-300.782,-259.949,-12.94,0,0,0,
,-0.404,-0.339,0.825,-270.142,-243.836,3.112,0,0,0,
,-0.427,-0.379,0.825,-272.461,-219.605,16.54,0,0,0,
,-0.428,-0.393,0.806,-341.675,-179.749,58.105,0,0,0,
,-0.422,-0.379,0.784,-425.66,-159.119,94.787,0,0,0,
,-0.423,-0.313,0.79,-487.366,-159.79,127.258,0,0,0,
,-0.439,-0.291,0.788,-493.592,-155.762,148.681,0,0,0,
,-0.444,-0.259,0.813,-470.154,-145.081,150.085,0,0,0,
,-0.445,-0.221,0.812,-421.021,-134.522,157.287,0,0,0,
,-0.458,-0.258,0.78,-358.765,-117.188,132.812,0,0,0,
,-0.466,-0.291,0.76,-334.717,-122.437,126.892,0,0,0,
,-0.48,-0.289,0.748,-334.107,-119.629,117.92,0,0,0,
,-0.494,-0.268,0.76,-330.201,-85.999,101.196,0,0,0,
,-0.491,-0.272,0.772,-315.552,-7.874,84.289,0,0,0,
,-0.474,-0.275,0.787,-317.444,55.175,84.899,0,0,0,
,-0.457,-0.278,0.785,-332.703,92.346,69.213,0,0,0,
,-0.441,-0.255,0.796,-347.84,112.121,80.078,0,0,0,
,-0.424,-0.195,0.817,-340.882,124.45,80.078,0,0,0,
,-0.421,-0.176,0.83,-281.556,137.512,54.26,0,0,0,
,-0.417,-0.158,0.84,-222.962,138.916,34.729,0,0,0,
,-0.421,-0.16,0.862,-173.584,142.7,23.193,0,0,0,
,-0.421,-0.153,0.882,-131.348,153.442,9.338,0,0,0,
,-0.424,-0.141,0.871,-107.483,154.602,-6.775,0,0,0,
,-0.424,-0.12,0.899,-79.651,149.047,-1.465,0,0,0,
,-0.415,-0.132,0.944,-25.757,189.209,-2.564,0,0,0,
,-0.382,-0.191,0.999,11.657,243.53,-17.884,0,0,0,
,-0.325,-0.242,1.023,3.906,266.906,-27.1,0,0,0,
,-0.282,-0.22,1.025,-22.828,221.679,-34.18,0,0,0,
,-0.274,-0.177,1.009,-0.123,162.902,-51.148,0,0,0,
,-0.298,-0.129,0.997,73.547,127.624,-75.013,0,0,0,
,-0.315,-0.118,1.04,186.157,139.587,-103.028,0,0,0,
,-0.282,-0.187,1.07,310.485,191.589,-152.771,0,0,0,
,-0.246,-0.267,1.054,347.534,177.185,-180.054,0,0,0,
,-0.233,-0.293,1.023,317.443,118.774,-175.171,0,0,0,
,-0.239,-0.259,0.999,297.058,60.363,-184.754,0,0,0,
,-0.272,-0.22,0.999,336.12,33.203,-189.82,0,0,0,
,-0.292,-0.186,0.98,404.113,50.781,-212.403,0,0,0,
,-0.296,-0.183,0.984,482.727,76.965,-234.925,0,0,0,
,-0.281,-0.191,0.975,563.842,112.915,-241.15,0,0,0,
,-0.259,-0.23,0.946,636.84,138,-244.08,0,0,0,
,-0.239,-0.312,0.934,649.902,132.385,-244.324,0,0,0,
,-0.229,-0.35,0.919,604.248,112.793,-222.29,0,0,0,
,-0.234,-0.36,0.932,545.532,93.75,-204.834,0,0,0,
,-0.241,-0.361,0.942,498.718,83.313,-199.524,0,0,0,
,-0.245,-0.362,0.942,471.13,92.285,-185.73,0,0,0,
,-0.235,-0.369,0.93,456.359,88.44,-174.561,0,0,0,
,-0.233,-0.414,0.928,425.476,61.035,-162.964,0,0,0,
,-0.238,-0.498,0.932,342.468,29.602,-143.677,0,0,0,
,-0.244,-0.521,0.935,221.496,1.403,-109.864,0,0,0,
,-0.24,-0.513,0.942,99.243,-37.11,-63.477,0,0,0,
,-0.242,-0.478,0.94,30.273,-81.727,-49.927,0,0,0,
,-0.255,-0.453,0.94,0.976,-118.226,-26.917,0,0,0,
,-0.27,-0.468,0.924,-27.832,-145.081,-36.622,0,0,0,
,-0.284,-0.503,0.921,-76.294,-170.96,-44.312,0,0,0,
,-0.3,-0.499,0.912,-145.935,-198.06,-32.349,0,0,0,
,-0.315,-0.478,0.91,-212.769,-221.009,-24.414,0,0,0,
,-0.331,-0.438,0.918,-259.156,-244.751,-15.686,0,0,0,
,-0.351,-0.398,0.913,-265.931,-244.08,-6.47,0,0,0,
,-0.37,-0.391,0.92,-264.71,-233.582,-5.921,0,0,0,
,-0.376,-0.38,0.901,-268.494,-206.788,9.826,0,0,0,
,-0.38,-0.346,0.861,-271.729,-197.449,14.77,0,0,0,
,-0.392,-0.319,0.834,-253.113,-191.285,36.193,0,0,0,
,-0.412,-0.334,0.843,-248.108,-178.833,34.484,0,0,0,
,-0.41,-0.335,0.837,-261.109,-148.987,59.692,0,0,0,
,-0.398,-0.342,0.828,-285.157,-135.621,81.726,0,0,0,
,-0.393,-0.34,0.818,-321.778,-136.353,108.459,0,0,0,
,-0.393,-0.3,0.824,-333.558,-146.729,133.911,0,0,0,
,-0.405,-0.284,0.826,-314.026,-153.504,136.901,0,0,0,
,-0.412,-0.297,0.809,-287.964,-151.062,140.991,0,0,0,
,-0.422,-0.314,0.808,-295.227,-152.283,139.343,0,0,0,
,-0.431,-0.289,0.793,-305.542,-154.053,150.146,0,0,0,
,-0.447,-0.268,0.761,-300.904,-147.583,136.291,0,0,0,
,-0.46,-0.293,0.748,-292.115,-145.203,127.746,0,0,0,
,-0.476,-0.301,0.721,-324.524,-151.612,127.563,0,0,0,
,-0.487,-0.287,0.721,-364.869,-143.25,133.545,0,0,0,
,-0.502,-0.273,0.738,-393.86,-117.066,119.384,0,0,0,
,-0.496,-0.213,0.797,-386.902,-81.36,121.887,0,0,0,
,-0.499,-0.212,0.817,-323.548,-48.768,114.868,0,0,0,
,-0.495,-0.243,0.792,-303.04,39.672,89.05,0,0,0,
,-0.465,-0.22,0.796,-297.242,71.96,120.605,0,0,0,
,-0.431,-0.178,0.823,-295.411,77.392,72.815,0,0,0,
,-0.44,-0.177,0.86,-228.821,42.114,41.32,0,0,0,
,-0.461,-0.179,0.901,-178.467,44.25,22.277,0,0,0,
,-0.469,-0.152,0.914,-125.245,92.163,15.075,0,0,0,
,-0.451,-0.11,0.88,-36.438,133.667,6.958,0,0,0,
,-0.439,-0.114,0.864,69.946,144.47,-18.494,0,0,0,
,-0.43,-0.139,0.866,156.86,139.709,-37.781,0,0,0,
,-0.433,-0.163,0.898,261.657,130.554,-66.04,0,0,0,
,-0.437,-0.243,0.924,293.274,154.235,-79.163,0,0,0,
,-0.425,-0.277,0.958,272.094,194.213,-84.9,0,0,0,
,-0.39,-0.281,0.959,233.398,231.018,-79.468,0,0,0,
,-0.348,-0.256,0.933,212.89,227.234,-102.539,0,0,0,
,-0.336,-0.224,0.954,251.77,176.574,-105.286,0,0,0,
,-0.357,-0.219,0.956,320.495,133.117,-130.494,0,0,0,
,-0.39,-0.284,0.99,347.961,133.667,-151.062,0,0,0,
,-0.378,-0.301,0.999,344.543,166.137,-144.41,0,0,0,
,-0.352,-0.27,0.968,332.946,183.838,-134.949,0,0,0,
,-0.344,-0.271,0.923,323.181,174.743,-124.085,0,0,0,
,-0.35,-0.265,0.934,302.917,161.682,-122.01,0,0,0,
,-0.348,-0.214,0.907,326.66,166.32,-117.127,0,0,0,
,-0.329,-0.173,0.955,421.325,170.837,-121.033,0,0,0,
,-0.312,-0.257,0.979,528.991,198.486,-121.766,0,0,0,
,-0.271,-0.355,0.979,540.771,217.59,-129.456,0,0,0,
,-0.222,-0.42,0.964,496.276,206.054,-121.399,0,0,0,
,-0.197,-0.415,0.933,450.256,136.718,-108.582,0,0,0,
,-0.203,-0.444,0.931,408.874,71.777,-115.662,0,0,0,
,-0.235,-0.464,0.926,345.031,25.085,-109.436,0,0,0,
,-0.261,-0.471,0.947,284.729,15.747,-114.563,0,0,0,
,-0.265,-0.403,0.956,270.385,24.047,-103.882,0,0,0,
,-0.263,-0.385,0.951,333.557,39.001,-121.521,0,0,0,
,-0.256,-0.408,0.928,409.301,31.616,-129.639,0,0,0,
,-0.261,-0.447,0.914,436.096,18.005,-124.573,0,0,0,
,-0.265,-0.481,0.911,426.269,1.403,-134.217,0,0,0,
,-0.262,-0.465,0.906,457.58,-30.579,-120.85,0,0,0,
,-0.283,-0.497,0.882,479.797,-51.941,-96.558,0,0,0,
,-0.295,-0.555,0.868,439.819,-62.073,-94.422,0,0,0,
,-0.3,-0.604,0.844,330.139,-75.623,-84.473,0,0,0,
,-0.299,-0.626,0.856,209.289,-101.441,-61.463,0,0,0,
,-0.304,-0.623,0.84,92.163,-133.118,-45.35,0,0,0,
,-0.326,-0.608,0.799,0.122,-159.668,-36.988,0,0,0,
,-0.348,-0.56,0.765,-63.416,-185.303,-15.625,0,0,0,
,-0.374,-0.489,0.782,-40.772,-201.111,-1.893,0,0,0,
,-0.391,-0.467,0.8,36.804,-192.139,-25.513,0,0,0,
,-0.395,-0.514,0.81,129.882,-179.688,-52.979,0,0,0,
,-0.404,-0.585,0.75,127.136,-152.955,-65.918,0,0,0,
,-0.408,-0.593,0.737,42.358,-138.489,-29.969,0,0,0,
,-0.411,-0.536,0.721,-38.88,-138.977,12.085,0,0,0,
,-0.416,-0.478,0.732,-58.716,-138.123,32.47,0,0,0,
,-0.423,-0.451,0.735,-24.476,-139.283,28.686,0,0,0,
,-0.436,-0.433,0.732,32.592,-146.546,54.87,0,0,0,
,-0.452,-0.434,0.726,86.059,-147.644,72.204,0,0,0,
,-0.455,-0.442,0.73,136.779,-142.579,96.801,0,0,0,
,-0.447,-0.467,0.705,211.12,-152.527,87.097,0,0,0,
,-0.462,-0.585,0.699,222.839,-159.607,94.726,0,0,0,
,-0.474,-0.709,0.657,100.525,-139.527,115.295,0,0,0,
,-0.464,-0.76,0.683,-83.924,-126.343,154.602,0,0,0,
,-0.447,-0.681,0.656,-226.685,-118.592,178.772,0,0,0,
,-0.437,-0.559,0.659,-228.638,-132.142,192.382,0,0,0,
,-0.445,-0.549,0.641,-154.175,-147.583,140.564,0,0,0,
,-0.475,-0.683,0.657,-111.084,-134.278,102.05,0,0,0,
,-0.494,-0.767,0.686,-223.633,-91.065,116.577,0,0,0,
,-0.475,-0.689,0.671,-418.702,-36.988,134.46,0,0,0,
,-0.451,-0.533,0.674,-470.704,-21.485,114.929,0,0,0,
,-0.449,-0.459,0.682,-368.409,-15.259,93.017,0,0,0,
,-0.476,-0.47,0.743,-255.677,11.535,83.313,0,0,0,
,-0.472,-0.491,0.774,-204.163,80.932,62.072,0,0,0,
,-0.428,-0.517,0.773,-165.162,142.822,50.293,0,0,0,
,-0.376,-0.514,0.763,-129.273,144.531,49.56,0,0,0,
,-0.364,-0.54,0.74,-129.334,120.422,41.687,0,0,0,
,-0.376,-0.532,0.738,-140.137,103.637,18.737,0,0,0,
,-0.388,-0.516,0.775,-153.199,100.341,2.685,0,0,0,
,-0.386,-0.496,0.819,-128.602,119.201,-25.147,0,0,0,
,-0.375,-0.44,0.8,-39.246,146.789,-42.481,0,0,0,
,-0.366,-0.419,0.768,103.942,171.508,-54.627,0,0,0,
,-0.358,-0.458,0.803,246.521,206.359,-79.834,0,0,0,
,-0.355,-0.506,0.827,415.771,230.163,-123.658,0,0,0,
,-0.342,-0.57,0.856,388.183,256.164,-117.188,0,0,0,
,-0.301,-0.608,0.859,316.345,278.198,-160.218,0,0,0,
,-0.269,-0.595,0.843,285.278,250.244,-132.508,0,0,0,
,-0.266,-0.582,0.846,284.79,198.12,-142.273,0,0,0,
,-0.295,-0.573,0.838,287.475,173.584,-132.264,0,0,0,
,-0.294,-0.567,0.843,285.888,163.574,-125.367,0,0,0,
,-0.266,-0.593,0.838,269.348,154.602,-118.164,0,0,0,
,-0.246,-0.611,0.84,237.609,132.263,-116.456,0,0,0,
,-0.242,-0.598,0.848,209.289,99.304,-113.343,0,0,0,
,-0.245,-0.576,0.85,218.444,84.961,-120.606,0,0,0,
,-0.255,-0.563,0.862,254.882,74.096,-101.38,0,0,0,
,-0.256,-0.535,0.845,318.847,74.157,-89.417,0,0,0,
,-0.261,-0.556,0.793,379.394,78.552,-111.39,0,0,0,
,-0.254,-0.62,0.781,399.109,73.303,-110.474,0,0,0,
,-0.246,-0.653,0.786,360.046,59.509,-89.6,0,0,0,
,-0.25,-0.648,0.799,311.157,32.348,-71.717,0,0,0,
,-0.261,-0.644,0.792,276.062,15.747,-70.313,0,0,0,
,-0.272,-0.622,0.765,285.461,-3.785,-57.496,0,0,0,
,-0.282,-0.641,0.735,315.796,-27.1,-47.486,0,0,0,
,-0.303,-0.681,0.727,319.519,-48.157,-39.612,0,0,0,
,-0.318,-0.776,0.738,255.066,-48.768,-40.467,0,0,0,
,-0.312,-0.827,0.754,113.342,-61.524,-16.419,0,0,0,
,-0.311,-0.862,0.764,-41.138,-92.102,10.192,0,0,0,
,-0.304,-0.807,0.735,-176.758,-113.892,69.03,0,0,0,
,-0.312,-0.721,0.635,-276.307,-147.461,75.073,0,0,0,
,-0.321,-0.732,0.626,-342.835,-171.631,8.056,0,0,0,
,-0.341,-0.717,0.661,-363.892,-216.797,4.882,0,0,0,
,-0.368,-0.702,0.724,-373.475,-231.934,29.785,0,0,0,
,-0.377,-0.645,0.709,-380.31,-208.619,47.851,0,0,0,
,-0.388,-0.64,0.706,-356.202,-184.144,26.489,0,0,0,
,-0.392,-0.642,0.695,-342.652,-166.748,44.189,0,0,0,
,-0.386,-0.62,0.68,-363.465,-154.236,22.522,0,0,0,
,-0.437,-0.641,0.673,-385.437,-161.622,40.527,0,0,0,
,-0.418,-0.615,0.698,-456.299,-152.161,57.739,0,0,0,
,-0.413,-0.535,0.713,-473.694,-125.916,67.871,0,0,0,
,-0.427,-0.544,0.696,-426.941,-110.657,63.781,0,0,0,
,-0.426,-0.535,0.682,-432.068,-87.098,71.838,0,0,0,
,-0.42,-0.462,0.706,-430.298,-78.492,102.05,0,0,0,
,-0.402,-0.415,0.701,-379.029,-74.28,110.29,0,0,0,
,-0.405,-0.448,0.71,-317.261,-72.693,106.689,0,0,0,
,-0.397,-0.496,0.702,-301.88,-51.514,105.041,0,0,0,
,-0.387,-0.512,0.703,-341.309,-47.852,114.441,0,0,0,
,-0.391,-0.487,0.704,-346.314,-45.777,127.441,0,0,0,
,-0.391,-0.477,0.701,-321.045,-31.434,106.689,0,0,0,
,-0.38,-0.45,0.711,-256.775,-25.391,74.829,0,0,0,
,-0.382,-0.49,0.737,-170.227,-36.622,47.607,0,0,0,
,-0.401,-0.56,0.773,-154.969,-40.65,38.696,0,0,0,
,-0.412,-0.562,0.792,-220.276,-21.058,49.438,0,0,0,
,-0.405,-0.506,0.806,-272.156,14.953,40.588,0,0,0,
,-0.396,-0.464,0.802,-254.944,37.719,30.761,0,0,0,
,-0.389,-0.455,0.828,-198.609,45.288,14.099,0,0,0,
,-0.386,-0.462,0.834,-168.763,57.495,-10.865,0,0,0,
,-0.39,-0.457,0.834,-159.424,64.575,-25.574,0,0,0,
,-0.391,-0.477,0.86,-164.612,85.022,-44.312,0,0,0,
,-0.376,-0.437,0.863,-186.89,102.417,-54.749,0,0,0,
,-0.369,-0.402,0.887,-166.687,115.844,-69.703,0,0,0,
,-0.359,-0.361,0.887,-103.089,135.131,-76.233,0,0,0,
,-0.353,-0.344,0.872,-26.978,140.319,-84.961,0,0,0,
,-0.351,-0.37,0.871,46.752,150.879,-93.567,0,0,0,
,-0.342,-0.418,0.874,51.757,166.626,-93.384,0,0,0,
,-0.318,-0.429,0.894,1.892,177.917,-94.666,0,0,0,
,-0.287,-0.407,0.916,-42.359,169.983,-101.502,0,0,0,
,-0.273,-0.357,0.923,-45.655,132.385,-88.746,0,0,0,
,-0.28,-0.331,0.928,15.136,98.571,-90.577,0,0,0,
,-0.309,-0.318,0.931,85.022,83.129,-77.759,0,0,0,
,-0.315,-0.31,0.918,179.931,106.689,-90.821,0,0,0,
,-0.304,-0.378,0.91,256.347,136.413,-102.906,0,0,0,
,-0.289,-0.438,0.954,268.31,144.653,-80.994,0,0,0,
,-0.268,-0.464,0.938,228.454,167.053,-86.304,0,0,0,
,-0.25,-0.428,0.991,199.157,152.343,-94.544,0,0,0,
,-0.252,-0.371,0.955,248.108,139.709,-95.704,0,0,0,
,-0.249,-0.359,0.97,354.248,125,-98.328,0,0,0,
,-0.255,-0.413,0.973,411.132,115.417,-127.259,0,0,0,
,-0.25,-0.489,0.968,400.573,111.938,-147.767,0,0,0,
,-0.236,-0.52,0.952,370.3,93.017,-140.87,0,0,0,
,-0.232,-0.518,0.932,324.157,62.561,-122.01,0,0,0,
,-0.237,-0.502,0.924,303.65,21.85,-99.915,0,0,0,
,-0.253,-0.489,0.909,294.067,-0.184,-85.267,0,0,0,
,-0.261,-0.519,0.899,292.907,-25.391,-94.849,0,0,0,
,-0.273,-0.528,0.871,266.662,-29.725,-77.698,0,0,0,
,-0.272,-0.535,0.841,243.286,-42.603,-69.519,0,0,0,
,-0.277,-0.564,0.839,207.092,-51.758,-65.43,0,0,0,
,-0.283,-0.621,0.867,134.277,-62.195,-72.937,0,0,0,
,-0.285,-0.607,0.855,13.549,-72.205,-53.528,0,0,0,
,-0.295,-0.514,0.845,-29.908,-97.413,-41.382,0,0,0,
,-0.315,-0.481,0.838,28.259,-106.568,-45.594,0,0,0,
,-0.338,-0.523,0.838,87.768,-87.647,-35.218,0,0,0,
,-0.33,-0.571,0.801,87.768,-67.322,-24.537,0,0,0,
,-0.321,-0.612,0.763,41.565,-73.67,-13.855,0,0,0,
,-0.326,-0.621,0.733,-71.106,-101.136,18.676,0,0,0,
,-0.333,-0.594,0.741,-183.228,-141.358,27.282,0,0,0,
,-0.361,-0.582,0.765,-265.809,-164.734,41.076,0,0,0,
,-0.379,-0.516,0.747,-295.35,-169.617,78.491,0,0,0,
,-0.399,-0.5,0.732,-293.885,-163.269,93.322,0,0,0,
,-0.401,-0.517,0.71,-323.731,-143.067,103.21,0,0,0,
,-0.389,-0.501,0.722,-347.657,-153.748,95.764,0,0,0,
,-0.392,-0.537,0.706,-371.033,-165.65,107.788,0,0,0,
,-0.402,-0.536,0.745,-433.472,-171.509,120.422,0,0,0,
,-0.399,-0.475,0.758,-472.413,-167.603,120.239,0,0,0,
,-0.395,-0.395,0.783,-417.908,-176.026,101.867,0,0,0,
,-0.414,-0.379,0.779,-297.791,-170.166,98.205,0,0,0,
,-0.435,-0.417,0.75,-227.784,-135.804,80.871,0,0,0,
,-0.423,-0.46,0.724,-212.098,-99.549,61.645,0,0,0,
,-0.41,-0.464,0.689,-240.174,-85.267,56.274,0,0,0,
,-0.41,-0.447,0.687,-264.954,-89.356,57.922,0,0,0,
,-0.423,-0.43,0.709,-279.541,-84.351,66.284,0,0,0,
,-0.436,-0.411,0.738,-276.062,-49.866,58.044,0,0,0,
,-0.434,-0.387,0.765,-248.414,1.77,56.091,0,0,0,
,-0.426,-0.384,0.79,-226.807,53.222,46.569,0,0,0,
,-0.41,-0.39,0.815,-204.59,91.308,34.362,0,0,0,
,-0.398,-0.384,0.841,-187.561,111.816,32.959,0,0,0,
,-0.385,-0.354,0.869,-154.358,138.733,18.92,0,0,0,
,-0.375,-0.339,0.865,-88.318,160.705,1.831,0,0,0,
,-0.366,-0.335,0.87,-20.081,161.132,-11.719,0,0,0,
,-0.365,-0.367,0.9,23.437,174.255,-40.528,0,0,0,
,-0.349,-0.418,0.938,15.808,196.228,-65.43,0,0,0,
,-0.313,-0.454,0.951,-28.565,214.111,-87.22,0,0,0,
,-0.284,-0.442,0.944,-58.838,178.894,-92.957,0,0,0,
,-0.294,-0.397,0.964,-52.185,134.399,-92.347,0,0,0,
,-0.314,-0.362,0.986,14.099,117.614,-98.755,0,0,0,
,-0.319,-0.366,0.995,107.544,128.906,-118.958,0,0,0,
,-0.308,-0.363,0.999,201.904,144.409,-147.767,0,0,0,
,-0.287,-0.363,0.964,285.278,148.559,-165.284,0,0,0,
,-0.286,-0.411,0.946,318.115,138.244,-181.641,0,0,0,
,-0.282,-0.425,0.94,284.851,137.512,-198.304,0,0,0,
,-0.266,-0.39,0.952,255.249,135.986,-213.501,0,0,0,
,-0.256,-0.368,0.963,269.714,128.601,-214.6,0,0,0,
,-0.253,-0.344,0.953,303.833,126.953,-199.219,0,0,0,
,-0.254,-0.302,0.957,352.478,117.675,-187.928,0,0,0,
,-0.263,-0.29,0.955,430.053,119.751,-182.19,0,0,0,
,-0.263,-0.308,0.943,505.615,135.376,-165.345,0,0,0,
,-0.249,-0.373,0.934,554.992,143.615,-162.049,0,0,0,
,-0.235,-0.39,0.925,565.918,133.911,-143.555,0,0,0,
,-0.226,-0.442,0.914,540.1,112.06,-122.01,0,0,0,
,-0.225,-0.474,0.893,473.327,81.543,-105.591,0,0,0,
,-0.226,-0.493,0.881,391.235,40.039,-84.412,0,0,0,
,-0.237,-0.502,0.869,317.749,-12.391,-75.135,0,0,0,
,-0.258,-0.534,0.878,243.225,-52.735,-52.124,0,0,0,
,-0.273,-0.593,0.859,176.513,-68.726,-41.138,0,0,0,
,-0.271,-0.641,0.845,78.613,-92.469,-7.63,0,0,0,
,-0.274,-0.619,0.851,-30.823,-133.24,30.273,0,0,0,
,-0.295,-0.593,0.861,-98.816,-167.725,39.672,0,0,0,
,-0.311,-0.565,0.854,-112.61,-175.477,38.94,0,0,0,
,-0.322,-0.558,0.857,-101.441,-178.223,33.264,0,0,0,
,-0.326,-0.555,0.845,-84.595,-176.941,33.935,0,0,0,
,-0.332,-0.572,0.849,-72.693,-177.979,24.047,0,0,0,
,-0.339,-0.598,0.852,-98.389,-178.406,13.977,0,0,0,
,-0.373,-0.51,0.804,-120.85,-180.115,11.047,0,0,0,
,-0.378,-0.521,0.791,-90.516,-167.664,0.122,0,0,0,
,-0.392,-0.512,0.793,-89.173,-163.453,-4.334,0,0,0,
,-0.399,-0.492,0.76,-71.045,-144.227,-19.288,0,0,0,
,-0.418,-0.571,0.691,-22.4,-83.802,-9.278,0,0,0,
,-0.397,-0.641,0.677,-152.466,-71.961,-1.16,0,0,0,
,-0.381,-0.642,0.689,-299.683,-98.267,30.029,0,0,0,
,-0.39,-0.576,0.723,-414.368,-132.142,59.997,0,0,0,
,-0.408,-0.485,0.734,-441.102,-140.32,67.565,0,0,0,
,-0.402,-0.531,0.744,-339.295,-66.224,17.273,0,0,0,
,-0.394,-0.535,0.727,-420.105,-91.431,20.507,0,0,0,
,-0.406,-0.48,0.773,-468.567,-115.723,24.108,0,0,0,
,-0.42,-0.399,0.777,-487.305,-122.925,22.766,0,0,0,
,-0.429,-0.343,0.771,-445.557,-129.822,3.601,0,0,0,
,-0.473,-0.337,0.774,-399.903,-69.153,5.432,0,0,0,
,-0.465,-0.282,0.781,-444.642,-45.411,28.076,0,0,0,
,-0.463,-0.227,0.782,-445.191,-41.138,30.944,0,0,0,
,-0.468,-0.214,0.799,-407.715,-12.757,47.119,0,0,0,
,-0.465,-0.205,0.824,-356.324,25.207,51.818,0,0,0,
,-0.456,-0.21,0.853,-273.133,73.12,47.363,0,0,0,
,-0.437,-0.18,0.864,-147.278,112.976,66.223,0,0,0,
,-0.429,-0.19,0.863,-20.691,139.343,51.452,0,0,0,
,-0.424,-0.233,0.872,88.378,170.166,28.259,0,0,0,
,-0.407,-0.339,0.899,138.244,222.656,4.455,0,0,0,
,-0.366,-0.405,0.926,108.093,250.061,-15.015,0,0,0,
,-0.349,-0.235,0.994,202.331,211.609,-81.421,0,0,0,
,-0.353,-0.178,0.977,415.649,255.981,-110.352,0,0,0,
,-0.334,-0.269,0.952,622.985,310.302,-146.424,0,0,0,
,-0.301,-0.497,0.919,677.124,350.525,-210.083,0,0,0,
,-0.246,-0.592,0.91,510.437,305.297,-192.81,0,0,0,
,-0.215,-0.477,0.917,338.928,178.222,-160.95,0,0,0,
,-0.248,-0.347,0.946,321.106,88.195,-163.758,0,0,0,
,-0.326,-0.329,0.981,423.034,60.485,-189.27,0,0,0,
,-0.358,-0.336,0.985,508.239,110.778,-197.937,0,0,0,
,-0.332,-0.371,0.939,575.439,169.555,-208.069,0,0,0,
,-0.293,-0.424,0.936,580.566,184.753,-206.238,0,0,0,
,-0.276,-0.48,0.936,405.944,99.609,-161.316,0,0,0,
,-0.274,-0.461,0.943,384.704,75.317,-147.095,0,0,0,
,-0.279,-0.483,0.928,391.357,48.767,-143.555,0,0,0,
,-0.287,-0.515,0.897,384.521,23.864,-131.531,0,0,0,
,-0.295,-0.531,0.851,366.15,10.009,-115.723,0,0,0,
,-0.298,-0.575,0.818,316.162,-0.611,-112.977,0,0,0,
,-0.301,-0.61,0.814,223.938,-18.372,-113.953,0,0,0,
,-0.297,-0.617,0.813,123.047,-40.223,-94.666,0,0,0,
,-0.307,-0.592,0.815,44.25,-64.454,-70.618,0,0,0,
,-0.319,-0.554,0.809,-6.531,-77.332,-53.65,0,0,0,
,-0.327,-0.545,0.816,-35.218,-82.276,-41.382,0,0,0,
,-0.322,-0.527,0.793,-56.275,-96.68,-36.744,0,0,0,
,-0.329,-0.536,0.784,-65.125,-105.103,-38.758,0,0,0,
,-0.335,-0.583,0.775,-82.52,-121.521,-35.218,0,0,0,
,-0.346,-0.614,0.78,-166.321,-136.353,-4.151,0,0,0,
,-0.356,-0.612,0.777,-277.161,-153.687,11.596,0,0,0,
,-0.367,-0.575,0.785,-374.634,-171.082,32.592,0,0,0,
,-0.379,-0.498,0.804,-415.589,-190.125,54.992,0,0,0,
,-0.398,-0.453,0.79,-381.836,-195.74,49.316,0,0,0,
,-0.411,-0.465,0.794,-336.304,-189.454,54.626,0,0,0,
,-0.411,-0.511,0.804,-328.919,-166.748,52.429,0,0,0,
,-0.402,-0.531,0.842,-374.695,-154.541,51.94,0,0,0,
,-0.392,-0.458,0.855,-396.058,-150.818,58.105,0,0,0,
,-0.397,-0.399,0.848,-326.233,-159.852,53.1,0,0,0,
,-0.412,-0.398,0.842,-225.647,-151.917,37.292,0,0,0,
,-0.419,-0.434,0.817,-162.232,-134.644,20.629,0,0,0,
,-0.415,-0.49,0.753,-175.171,-114.014,12.023,0,0,0,
,-0.408,-0.522,0.729,-247.437,-133.606,14.831,0,0,0,
,-0.41,-0.481,0.709,-347.474,-169.556,34.912,0,0,0,
,-0.436,-0.418,0.699,-401.123,-195.801,37.719,0,0,0,
,-0.47,-0.352,0.722,-406.556,-185.73,33.996,0,0,0,
,-0.494,-0.337,0.715,-361.268,-130.86,38.269,0,0,0,
,-0.498,-0.323,0.71,-362.488,-54.932,45.227,0,0,0,
,-0.483,-0.307,0.699,-333.191,-3.479,57.434,0,0,0,
,-0.463,-0.282,0.721,-292.603,28.015,58.288,0,0,0,
,-0.459,-0.282,0.766,-228.333,52.49,50.537,0,0,0,
,-0.451,-0.285,0.807,-169.19,85.815,40.161,0,0,0,
,-0.432,-0.282,0.826,-116.761,121.704,47.18,0,0,0,
,-0.419,-0.341,0.825,-70.496,141.967,42.358,0,0,0,
,-0.405,-0.388,0.821,-88.99,137.573,53.222,0,0,0,
,-0.397,-0.395,0.801,-156.556,115.234,74.157,0,0,0,
,-0.407,-0.359,0.817,-217.225,85.876,108.886,0,0,0,
,-0.417,-0.33,0.846,-243.531,89.233,91.857,0,0,0,
,-0.405,-0.295,0.901,-213.257,116.15,90.637,0,0,0,
,-0.388,-0.276,0.943,-145.63,138,69.885,0,0,0,
,-0.378,-0.279,0.969,-67.627,154.419,37.475,0,0,0,
,-0.374,-0.289,1.003,8.972,168.457,-1.526,0,0,0,
,-0.367,-0.282,1.011,63.72,185.363,-43.091,0,0,0,
,-0.353,-0.249,0.971,121.399,209.289,-89.539,0,0,0,
,-0.339,-0.255,0.959,212.158,200.5,-106.873,0,0,0,
,-0.329,-0.299,0.964,271.667,182.251,-122.559,0,0,0,
,-0.322,-0.351,0.999,262.451,154.174,-148.194,0,0,0,
,-0.313,-0.354,1.008,235.046,132.751,-149.781,0,0,0,
,-0.308,-0.29,0.974,266.235,117.614,-154.541,0,0,0,
,-0.322,-0.29,0.961,330.261,102.417,-149.292,0,0,0,
,-0.327,-0.323,0.935,375,95.459,-165.039,0,0,0,
,-0.327,-0.342,0.926,393.188,115.173,-173.584,0,0,0,
,-0.32,-0.346,0.893,393.249,115.417,-176.941,0,0,0,
,-0.312,-0.384,0.859,406.555,133.239,-187.378,0,0,0,
,-0.308,-0.398,0.885,385.986,133.545,-163.392,0,0,0,
,-0.298,-0.402,0.874,363.098,135.498,-161.133,0,0,0,
,-0.289,-0.412,0.874,339.416,130.127,-161.133,0,0,0,
,-0.282,-0.405,0.9,325.927,106.994,-149.048,0,0,0,
,-0.288,-0.41,0.905,292.724,85.693,-138.367,0,0,0,
,-0.299,-0.425,0.898,228.881,81.543,-114.502,0,0,0,
,-0.298,-0.468,0.879,168.884,82.824,-97.107,0,0,0,
,-0.297,-0.449,0.855,132.385,77.392,-84.961,0,0,0,
,-0.298,-0.445,0.861,105.59,66.101,-56.519,0,0,0,
,-0.294,-0.422,0.88,109.13,57.251,-37.537,0,0,0,
,-0.287,-0.434,0.893,131.164,50.659,-33.936,0,0,0,
,-0.272,-0.482,0.933,140.808,42.541,-33.631,0,0,0,
,-0.253,-0.46,0.958,156.189,-3.235,-33.57,0,0,0,
,-0.259,-0.422,0.952,238.342,-49.805,-20.325,0,0,0,
,-0.286,-0.441,0.926,340.637,-81.971,-52.552,0,0,0,
,-0.311,-0.488,0.905,407.531,-93.445,-67.2,0,0,0,
,-0.318,-0.545,0.875,426.208,-100.464,-92.835,0,0,0,
,-0.325,-0.588,0.849,389.648,-109.253,-90.21,0,0,0,
,-0.329,-0.607,0.806,315.734,-125.123,-79.651,0,0,0,
,-0.332,-0.65,0.793,214.111,-137.391,-62.623,0,0,0,
,-0.33,-0.668,0.756,38.574,-148.865,-32.349,0,0,0,
,-0.334,-0.6,0.753,-137.085,-201.416,1.403,0,0,0,
,-0.37,-0.56,0.793,-198.243,-247.559,8.606,0,0,0,
,-0.412,-0.581,0.813,-246.644,-240.967,24.292,0,0,0,
,-0.426,-0.566,0.81,-300.11,-202.881,39.306,0,0,0,
,-0.423,-0.502,0.785,-316.712,-173.584,52.978,0,0,0,
,-0.427,-0.499,0.773,-289.734,-157.41,47.424,0,0,0,
,-0.436,-0.532,0.781,-284.79,-148.743,28.503,0,0,0,
,-0.436,-0.521,0.776,-310.73,-125.245,33.569,0,0,0,
,-0.427,-0.507,0.762,-313.782,-101.258,21.179,0,0,0,
,-0.419,-0.529,0.762,-313.294,-105.896,1.831,0,0,0,
,-0.423,-0.515,0.773,-346.497,-122.864,14.465,0,0,0,
,-0.436,-0.478,0.789,-348.084,-126.77,6.225,0,0,0,
,-0.441,-0.468,0.757,-344.056,-108.887,-5.86,0,0,0,
,-0.441,-0.475,0.784,-343.75,-103.882,-12.574,0,0,0,
,-0.436,-0.464,0.77,-370.545,-91.37,-16.053,0,0,0,
,-0.428,-0.437,0.756,-387.024,-90.271,-4.944,0,0,0,
,-0.423,-0.394,0.738,-398.56,-95.948,-10.621,0,0,0,
,-0.433,-0.375,0.716,-390.625,-105.774,-12.635,0,0,0,
,-0.457,-0.384,0.719,-426.514,-75.867,-0.245,0,0,0,
,-0.455,-0.372,0.751,-458.497,-54.322,-4.09,0,0,0,
,-0.445,-0.267,0.751,-458.924,-28.626,27.771,0,0,0,
,-0.446,-0.175,0.738,-328.736,-0.733,22.888,0,0,0,
,-0.454,-0.251,0.702,-185.059,55.419,-23.316,0,0,0,
,-0.451,-0.379,0.679,-169.434,108.093,-34.607,0,0,0,
,-0.436,-0.419,0.755,-294.19,138.305,-20.447,0,0,0,
,-0.411,-0.345,0.86,-382.203,149.353,-19.043,0,0,0,
,-0.392,-0.187,0.918,-362.915,172.424,-14.832,0,0,0,
,-0.386,-0.113,0.945,-193.299,180.786,-44.617,0,0,0,
,-0.403,-0.143,0.927,5.859,180.603,-57.618,0,0,0,
,-0.414,-0.243,0.94,85.083,186.706,-70.191,0,0,0,
,-0.404,-0.298,0.962,88.317,178.466,-87.708,0,0,0,
,-0.393,-0.274,0.975,66.894,154.174,-57.862,0,0,0,
,-0.402,-0.246,0.955,70.8,109.985,-50.11,0,0,0,
,-0.422,-0.261,0.939,88.195,96.069,-48.157,0,0,0,
,-0.426,-0.316,0.951,59.143,122.192,-38.88,0,0,0,
,-0.384,-0.32,0.95,13,160.461,-61.036,0,0,0,
,-0.329,-0.304,0.962,0.732,156.494,-67.749,0,0,0,
,-0.307,-0.277,0.97,13.427,104.675,-84.229,0,0,0,
,-0.324,-0.233,1.015,77.27,73.303,-101.38,0,0,0,
,-0.342,-0.226,1.014,145.019,82.275,-119.446,0,0,0,
,-0.325,-0.233,1.014,210.266,105.468,-146.546,0,0,0,
,-0.3,-0.264,1.001,259.887,103.515,-160.584,0,0,0,
,-0.291,-0.277,0.988,280.883,75.988,-165.406,0,0,0,
,-0.304,-0.225,0.974,308.776,46.386,-154.786,0,0,0,
,-0.319,-0.144,0.977,423.645,46.997,-151.307,0,0,0,
,-0.324,-0.133,0.971,609.13,80.078,-154.664,0,0,0,
,-0.301,-0.176,0.944,806.274,112.426,-171.082,0,0,0,
,-0.28,-0.33,0.871,910.583,128.234,-176.331,0,0,0,
,-0.27,-0.52,0.826,823.974,113.403,-176.636,0,0,0,
,-0.266,-0.602,0.789,616.027,75.683,-147.278,0,0,0,
,-0.271,-0.583,0.794,411.255,17.517,-107.178,0,0,0,
,-0.303,-0.52,0.806,248.962,-34.058,-88.379,0,0,0,
,-0.334,-0.432,0.841,174.499,-50.904,-69.519,0,0,0,
,-0.355,-0.422,0.882,185.547,-29.175,-59.266,0,0,0,
,-0.35,-0.441,0.91,181.762,-7.996,-50.599,0,0,0,
,-0.335,-0.453,0.881,147.888,-1.954,-21.302,0,0,0,
,-0.332,-0.485,0.894,111.267,-32.105,-14.283,0,0,0,
,-0.332,-0.501,0.905,42.114,-54.261,-13.916,0,0,0,
,-0.333,-0.506,0.936,-12.818,-83.313,-13.184,0,0,0,
,-0.337,-0.475,0.941,-48.951,-115.174,0.549,0,0,0,
,-0.358,-0.431,0.927,-43.213,-152.71,6.591,0,0,0,
,-0.391,-0.457,0.879,-13.001,-165.039,5.798,0,0,0,
,-0.401,-0.502,0.892,-9.827,-153.382,-1.526,0,0,0,
,-0.402,-0.529,0.864,-61.219,-144.043,0.122,0,0,0,
,-0.398,-0.52,0.831,-126.831,-149.537,6.103,0,0,0,
,-0.409,-0.506,0.841,-175.354,-159.607,17.089,0,0,0,
,-0.419,-0.472,0.846,-197.998,-153.809,26.611,0,0,0,
,-0.429,-0.44,0.828,-176.453,-139.954,38.391,0,0,0,
,-0.436,-0.429,0.801,-121.338,-126.77,33.935,0,0,0,
,-0.449,-0.473,0.754,-111.329,-105.652,33.569,0,0,0,
,-0.444,-0.533,0.74,-136.963,-85.999,24.475,0,0,0,
,-0.425,-0.546,0.736,-227.845,-78.98,54.626,0,0,0,
,-0.425,-0.535,0.731,-319.092,-114.502,84.655,0,0,0,
,-0.448,-0.478,0.744,-388.123,-132.508,100.83,0,0,0,
,-0.49,-0.388,0.717,-378.54,-114.93,131.775,0,0,0,
,-0.51,-0.344,0.653,-310.73,-61.341,125,0,0,0,
,-0.503,-0.374,0.633,-270.081,-27.955,69.702,0,0,0,
,-0.49,-0.43,0.643,-296.021,-12.94,56.274,0,0,0,
,-0.491,-0.422,0.663,-337.403,-15.076,75.317,0,0,0,
,-0.5,-0.403,0.734,-399.842,4.089,70.068,0,0,0,
,-0.481,-0.332,0.791,-421.814,61.706,59.265,0,0,0,
,-0.442,-0.256,0.833,-351.441,95.459,51.086,0,0,0,
,-0.43,-0.222,0.848,-191.04,105.713,36.315,0,0,0,
,-0.432,-0.304,0.803,-54.993,130.005,3.784,0,0,0,
,-0.423,-0.392,0.784,-22.034,148.559,3.662,0,0,0,
,-0.403,-0.399,0.773,-53.162,141.967,3.234,0,0,0,
,-0.388,-0.399,0.798,-63.904,142.395,6.591,0,0,0,
,-0.367,-0.406,0.852,-72.815,149.597,7.507,0,0,0,
,-0.341,-0.396,0.879,-60.914,177.002,4.638,0,0,0,
,-0.321,-0.383,0.902,-29.053,174.743,-7.569,0,0,0,
,-0.32,-0.361,0.902,12.695,166.442,-28.443,0,0,0,
,-0.327,-0.337,0.916,62.5,161.743,-52.918,0,0,0,
,-0.326,-0.329,0.941,109.008,178.222,-87.342,0,0,0,
,-0.302,-0.339,0.95,143.432,208.191,-114.441,0,0,0,
,-0.276,-0.338,0.964,164.978,201.843,-135.01,0,0,0,
,-0.265,-0.299,0.967,205.932,185.485,-152.161,0,0,0,
,-0.275,-0.263,0.97,278.808,171.02,-167.786,0,0,0,
,-0.279,-0.26,0.985,384.582,174.377,-190.552,0,0,0,
,-0.27,-0.261,1.002,457.275,182.678,-212.22,0,0,0,
,-0.252,-0.283,1.005,519.47,187.561,-237.732,0,0,0,
,-0.239,-0.309,0.999,545.41,167.724,-269.165,0,0,0,
,-0.234,-0.35,0.984,556.213,126.953,-290.162,0,0,0,
,-0.281,-0.397,0.973,593.75,93.505,-275.94,0,0,0,
,-0.275,-0.418,0.95,603.942,62.561,-223.633,0,0,0,
,-0.294,-0.428,0.934,580.627,77.697,-180.115,0,0,0,
,-0.293,-0.434,0.92,562.072,89.294,-162.11,0,0,0,
,-0.284,-0.483,0.886,541.015,90.759,-124.634,0,0,0,
,-0.276,-0.538,0.878,480.529,76.782,-78.37,0,0,0,
,-0.263,-0.558,0.87,373.047,51.879,-66.285,0,0,0,
,-0.264,-0.569,0.864,300.109,23.315,-58.167,0,0,0,
,-0.267,-0.548,0.858,275.085,-5.31,-45.227,0,0,0,
,-0.277,-0.564,0.853,271.24,-22.522,-29.786,0,0,0,
,-0.279,-0.619,0.829,226.684,-36.683,-22.4,0,0,0,
,-0.288,-0.713,0.808,99.853,-57.923,-13.428,0,0,0,
,-0.292,-0.684,0.803,-24.414,-93.934,9.826,0,0,0,
,-0.312,-0.597,0.785,-99.915,-136.414,15.258,0,0,0,
,-0.337,-0.569,0.794,-111.268,-162.11,16.296,0,0,0,
,-0.362,-0.621,0.808,-138.001,-164.49,11.901,0,0,0,
,-0.358,-0.632,0.791,-233.033,-166.138,31.189,0,0,0,
,-0.358,-0.579,0.787,-303.101,-188.172,49.865,0,0,0,
,-0.377,-0.519,0.781,-319.886,-208.191,57.434,0,0,0,
,-0.391,-0.515,0.799,-288.697,-201.111,50.17,0,0,0,
,-0.397,-0.517,0.822,-250.55,-182.373,46.752,0,0,0,
,-0.39,-0.513,0.832,-247.437,-163.086,41.931,0,0,0,
,-0.391,-0.483,0.811,-221.985,-144.898,50.903,0,0,0,
,-0.402,-0.515,0.765,-179.444,-131.775,53.711,0,0,0,
,-0.409,-0.561,0.759,-201.416,-120.85,76.477,0,0,0,
,-0.396,-0.518,0.735,-283.265,-119.202,76.294,0,0,0,
,-0.395,-0.462,0.722,-321.839,-154.114,62.133,0,0,0,
,-0.414,-0.454,0.757,-302.247,-159.302,60.302,0,0,0,
,-0.432,-0.439,0.749,-275.208,-144.349,64.636,0,0,0,
,-0.438,-0.424,0.74,-244.873,-118.531,69.824,0,0,0,
,-0.439,-0.419,0.72,-219.483,-91.919,73.913,0,0,0,
,-0.441,-0.411,0.709,-211.853,-74.463,76.66,0,0,0,
,-0.432,-0.432,0.746,-226.99,-64.148,62.683,0,0,0,
,-0.429,-0.454,0.742,-257.019,-61.707,84.472,0,0,0,
,-0.427,-0.44,0.765,-295.838,-47.303,107.666,0,0,0,
,-0.426,-0.4,0.776,-292.969,-21.79,114.685,0,0,0,
,-0.413,-0.391,0.777,-243.897,12.329,103.088,0,0,0,
,-0.392,-0.417,0.778,-185.242,21.118,78.064,0,0,0,
,-0.393,-0.438,0.759,-175.904,11.169,55.908,0,0,0,
,-0.414,-0.459,0.759,-183.96,0.366,39.611,0,0,0,
,-0.435,-0.469,0.789,-236.39,27.282,7.446,0,0,0,
,-0.43,-0.398,0.82,-276.978,79.528,-1.16,0,0,0,
,-0.413,-0.301,0.839,-229.248,126.709,-11.17,0,0,0,
,-0.394,-0.286,0.865,-104.31,167.48,-27.466,0,0,0,
,-0.378,-0.329,0.884,17.761,212.036,-45.105,0,0,0,
,-0.349,-0.377,0.884,81.359,236.511,-67.688,0,0,0,
,-0.322,-0.422,0.865,83.618,240.661,-93.079,0,0,0,
,-0.3,-0.455,0.854,55.969,214.721,-110.901,0,0,0,
,-0.29,-0.46,0.852,14.892,169.311,-108.033,0,0,0,
,-0.301,-0.469,0.892,-36.377,125.488,-111.573,0,0,0,
,-0.317,-0.454,0.938,-84.412,115.844,-125,0,0,0,
,-0.313,-0.402,0.96,-95.765,124.267,-141.541,0,0,0,
,-0.31,-0.339,0.979,-48.096,125.549,-153.138,0,0,0,
,-0.316,-0.29,0.972,64.148,121.582,-186.585,0,0,0,
,-0.323,-0.273,0.954,184.753,124.45,-182.496,0,0,0,
,-0.325,-0.352,0.963,263.305,144.043,-211.243,0,0,0,
,-0.313,-0.425,0.956,262.39,165.283,-210.511,0,0,0,
,-0.287,-0.405,0.959,210.327,167.602,-194.886,0,0,0,
,-0.268,-0.343,0.945,200.744,154.235,-193.238,0,0,0,
,-0.263,-0.29,0.954,253.418,131.958,-185.303,0,0,0,
,-0.255,-0.269,0.978,361.816,122.619,-192.994,0,0,0,
,-0.249,-0.296,0.987,481.628,112.915,-195.74,0,0,0,
,-0.246,-0.328,0.967,567.932,99.731,-180.115,0,0,0,
,-0.258,-0.385,0.944,608.825,82.031,-158.875,0,0,0,
,-0.269,-0.461,0.925,569.03,83.618,-137.024,0,0,0,
,-0.259,-0.472,0.913,484.497,78.247,-110.169,0,0,0,
,-0.248,-0.449,0.891,429.138,45.837,-92.53,0,0,0,
,-0.266,-0.463,0.894,427.734,5.004,-81.788,0,0,0,
,-0.278,-0.524,0.885,415.466,-9.034,-75.867,0,0,0,
,-0.282,-0.563,0.868,346.13,-16.541,-52.247,0,0,0,
,-0.273,-0.584,0.849,285.034,-28.809,-37.293,0,0,0,
,-0.264,-0.596,0.835,199.34,-52.674,-29.053,0,0,0,
,-0.268,-0.595,0.833,122.802,-80.14,-21.058,0,0,0,
,-0.274,-0.58,0.838,51.879,-106.69,-8.301,0,0,0,
,-0.282,-0.549,0.834,2.075,-130.188,6.836,0,0,0,
,-0.295,-0.509,0.823,-5.738,-152.955,23.315,0,0,0,
,-0.309,-0.513,0.824,18.737,-159.302,32.043,0,0,0,
,-0.318,-0.548,0.847,28.076,-163.758,32.165,0,0,0,
,-0.319,-0.577,0.832,-6.043,-159.607,46.875,0,0,0,
,-0.324,-0.566,0.822,-46.57,-167.786,63.903,0,0,0,
,-0.335,-0.578,0.802,-84.229,-184.388,68.664,0,0,0,
,-0.355,-0.604,0.791,-132.63,-204.529,76.355,0,0,0,
,-0.374,-0.602,0.801,-183.655,-217.408,82.641,0,0,0,
,-0.393,-0.586,0.794,-225.647,-228.516,81.787,0,0,0,
,-0.413,-0.618,0.783,-259.949,-233.46,89.05,0,0,0,
,-0.419,-0.653,0.744,-361.451,-234.62,100.647,0,0,0,
,-0.424,-0.661,0.747,-457.032,-237.793,110.168,0,0,0,
,-0.43,-0.596,0.745,-540.833,-246.033,110.595,0,0,0,
,-0.448,-0.5,0.738,-521.973,-250.184,99.792,0,0,0,
,-0.471,-0.464,0.749,-448.487,-233.033,74.585,0,0,0,
,-0.479,-0.498,0.767,-385.56,-183.777,40.588,0,0,0,
,-0.463,-0.535,0.737,-405.335,-133.973,28.32,0,0,0,
,-0.44,-0.547,0.734,-447.144,-124.878,27.038,0,0,0,
,-0.433,-0.483,0.732,-507.935,-149.109,30.639,0,0,0,
,-0.457,-0.398,0.718,-520.02,-176.209,21.911,0,0,0,
,-0.487,-0.332,0.73,-483.155,-181.763,8.911,0,0,0,
,-0.513,-0.312,0.716,-411.927,-141.968,-8.545,0,0,0,
,-0.524,-0.349,0.706,-364.258,-89.844,-7.081,0,0,0,
,-0.513,-0.372,0.716,-366.7,-36.194,-16.175,0,0,0,
,-0.495,-0.332,0.722,-375.306,5.798,-9.156,0,0,0,
,-0.487,-0.276,0.725,-353.333,33.02,1.831,0,0,0,
,-0.492,-0.257,0.753,-282.837,58.044,-12.635,0,0,0,
,-0.49,-0.252,0.784,-208.619,106.079,-10.254,0,0,0,
,-0.466,-0.231,0.831,-131.897,160.766,-13.184,0,0,0,
,-0.419,-0.228,0.877,-37.476,198.364,-28.199,0,0,0,
,-0.389,-0.264,0.922,18.981,204.773,-24.476,0,0,0,
,-0.369,-0.299,0.932,40.161,191.467,-17.945,0,0,0,
,-0.372,-0.325,0.899,13.855,166.565,-11.78,0,0,0,
,-0.382,-0.325,0.854,-32.532,135.192,-17.945,0,0,0,
,-0.392,-0.302,0.854,-59.998,116.577,-20.386,0,0,0,
,-0.398,-0.253,0.879,-30.152,110.473,-31.8,0,0,0,
,-0.386,-0.249,0.893,36.804,134.216,-57.801,0,0,0,
,-0.375,-0.272,0.908,105.224,150.512,-63.965,0,0,0,
,-0.365,-0.3,0.894,152.771,165.222,-68.177,0,0,0,
,-0.355,-0.319,0.885,164.795,174.743,-80.14,0,0,0,
,-0.344,-0.309,0.869,188.842,195.8,-97.229,0,0,0,
,-0.332,-0.309,0.869,218.994,205.261,-111.084,0,0,0,
,-0.327,-0.338,0.91,245.422,208.984,-134.156,0,0,0,
,-0.306,-0.359,0.958,236.206,255.615,-147.461,0,0,0,
,-0.262,-0.37,0.996,238.281,292.541,-150.696,0,0,0,
,-0.219,-0.357,0.99,252.685,283.02,-154.664,0,0,0,
,-0.207,-0.351,0.973,284.729,227.172,-162.842,0,0,0,
,-0.231,-0.34,0.984,322.815,163.818,-169.373,0,0,0,
,-0.256,-0.312,0.999,365.112,137.207,-170.594,0,0,0,
,-0.267,-0.344,1.016,421.753,145.813,-177.735,0,0,0,
,-0.251,-0.366,0.997,445.312,152.954,-162.537,0,0,0,
,-0.237,-0.368,0.964,457.885,128.234,-155.396,0,0,0,
,-0.247,-0.381,0.971,479.675,90.82,-125.855,0,0,0,
,-0.253,-0.417,0.974,481.628,76.232,-135.071,0,0,0,
,-0.246,-0.442,0.967,463.989,63.476,-138.123,0,0,0,
,-0.243,-0.444,0.945,451.294,40.71,-119.568,0,0,0,
,-0.249,-0.468,0.921,441.772,13.794,-112.549,0,0,0,
,-0.258,-0.491,0.904,418.762,-0.245,-105.469,0,0,0,
,-0.264,-0.52,0.897,377.563,-3.907,-105.774,0,0,0,
,-0.261,-0.545,0.875,307.617,2.075,-92.286,0,0,0,
,-0.258,-0.558,0.861,225.83,-6.104,-87.159,0,0,0,
,-0.264,-0.547,0.857,164.489,-23.682,-74.402,0,0,0,
,-0.272,-0.55,0.862,116.943,-30.945,-58.533,0,0,0,
,-0.275,-0.561,0.869,73.791,-37.842,-40.101,0,0,0,
,-0.28,-0.561,0.857,26.55,-48.157,-19.41,0,0,0,
,-0.283,-0.546,0.833,-18.433,-65.979,-2.869,0,0,0,
,-0.296,-0.522,0.804,-53.101,-91.553,-5.005,0,0,0,
,-0.312,-0.527,0.786,-68.787,-107.361,-8.118,0,0,0,
,-0.324,-0.529,0.803,-89.173,-116.578,-12.696,0,0,0,
,-0.34,-0.515,0.823,-108.033,-120.972,-8.24,0,0,0,
,-0.366,-0.501,0.822,-116.517,-121.521,2.441,0,0,0,
,-0.389,-0.5,0.793,-103.943,-114.38,19.958,0,0,0,
,-0.41,-0.503,0.785,-109.253,-101.319,37.17,0,0,0,
,-0.414,-0.53,0.778,-132.447,-92.896,37.231,0,0,0,
,-0.417,-0.52,0.761,-169.251,-99.671,56.823,0,0,0,
,-0.433,-0.533,0.757,-201.661,-107.605,68.176,0,0,0,
,-0.441,-0.528,0.776,-249.451,-103.577,75.317,0,0,0,
,-0.432,-0.502,0.789,-281.25,-92.041,78.064,0,0,0,
,-0.419,-0.455,0.816,-270.02,-88.196,84.228,0,0,0,
,-0.413,-0.445,0.817,-218.384,-66.773,89.904,0,0,0,
,-0.399,-0.476,0.804,-174.5,-54.322,100.28,0,0,0,
,-0.384,-0.508,0.783,-179.566,-54.505,101.196,0,0,0,
,-0.374,-0.529,0.776,-219.788,-71.778,106.811,0,0,0,
,-0.376,-0.534,0.779,-275.269,-91.187,112.487,0,0,0,
,-0.378,-0.478,0.777,-319.519,-115.54,111.267,0,0,0,
,-0.394,-0.44,0.778,-308.106,-129.273,95.886,0,0,0,
,-0.411,-0.444,0.772,-275.818,-119.202,99.243,0,0,0,
,-0.41,-0.473,0.774,-283.57,-94.788,93.75,0,0,0,
,-0.409,-0.464,0.774,-297.303,-77.271,102.05,0,0,0,
,-0.423,-0.426,0.773,-295.166,-53.956,108.947,0,0,0,
,-0.433,-0.389,0.774,-269.776,-12.024,110.473,0,0,0,
,-0.42,-0.366,0.75,-215.027,16.845,80.2,0,0,0,
,-0.407,-0.368,0.74,-158.875,30.761,41.015,0,0,0,
,-0.416,-0.405,0.746,-113.953,38.696,10.803,0,0,0,
,-0.402,-0.448,0.765,-117.005,74.89,-15.686,0,0,0,
,-0.373,-0.457,0.812,-153.016,101.318,-29.725,0,0,0,
,-0.344,-0.43,0.853,-181.885,105.285,-33.753,0,0,0,
,-0.336,-0.37,0.885,-177.063,96.313,-37.72,0,0,0,
,-0.334,-0.324,0.886,-130.372,89.05,-53.284,0,0,0,
,-0.342,-0.323,0.868,-64.82,75.561,-78.125,0,0,0,
,-0.343,-0.366,0.875,-35.096,70.922,-67.566,0,0,0,
,-0.341,-0.405,0.887,-62.806,65.063,-67.933,0,0,0,
,-0.337,-0.391,0.893,-113.221,62.866,-58.411,0,0,0,
,-0.331,-0.358,0.9,-125.733,69.58,-74.646,0,0,0,
,-0.323,-0.34,0.929,-89.295,91.98,-95.765,0,0,0,
,-0.308,-0.332,0.96,-25.33,113.891,-130.799,0,0,0,
,-0.283,-0.303,0.991,59.753,126.403,-161.194,0,0,0,
,-0.277,-0.289,1.001,170.654,122.802,-187.073,0,0,0,
,-0.282,-0.334,0.983,263.122,134.704,-204.346,0,0,0,
,-0.276,-0.384,0.963,294.311,149.902,-218.018,0,0,0,
,-0.259,-0.394,0.953,272.277,155.883,-239.747,0,0,0,
,-0.25,-0.362,0.944,252.441,140.564,-238.831,0,0,0,
,-0.258,-0.334,0.947,261.963,121.582,-243.836,0,0,0,
,-0.266,-0.311,0.942,295.166,119.506,-241.272,0,0,0,
,-0.272,-0.299,0.945,346.13,120.971,-232.422,0,0,0,
,-0.27,-0.309,0.944,384.643,140.014,-227.295,0,0,0,
,-0.256,-0.366,0.933,396.606,164.734,-217.164,0,0,0,
,-0.232,-0.392,0.943,352.661,172.18,-192.505,0,0,0,
,-0.201,-0.391,0.949,308.776,155.7,-172.059,0,0,0,
,-0.196,-0.374,0.96,274.353,121.582,-146.851,0,0,0,
,-0.204,-0.366,0.988,255.615,76.355,-130.616,0,0,0,
,-0.211,-0.368,0.998,255.493,41.442,-107.3,0,0,0,
,-0.208,-0.435,0.996,247.009,12.451,-83.008,0,0,0,
,-0.211,-0.446,0.989,237.732,-33.753,-46.631,0,0,0,
,-0.224,-0.496,0.965,196.472,-80.75,-0.245,0,0,0,
,-0.248,-0.498,0.919,131.408,-126.954,6.713,0,0,0,
,-0.283,-0.482,0.843,85.815,-159.18,2.197,0,0,0,
,-0.321,-0.493,0.878,53.161,-172.059,-4.456,0,0,0,
,-0.338,-0.492,0.882,19.714,-159.424,-3.357,0,0,0,
,-0.344,-0.49,0.884,-4.944,-135.682,0.915,0,0,0,
,-0.341,-0.488,0.882,-24.842,-122.681,0.549,0,0,0,
,-0.341,-0.47,0.877,-35.706,-125.672,13,0,0,0,
,-0.347,-0.466,0.847,-37.293,-114.93,9.338,0,0,0,
,-0.34,-0.495,0.857,-49.927,-118.042,4.943,0,0,0,
,-0.333,-0.536,0.855,-100.037,-133.545,17.028,0,0,0,
,-0.341,-0.545,0.846,-192.566,-167.725,42.968,0,0,0,
,-0.375,-0.475,0.802,-265.931,-199.402,69.336,0,0,0,
,-0.415,-0.438,0.782,-278.504,-203.98,71.472,0,0,0,
,-0.427,-0.46,0.765,-296.692,-197.144,82.336,0,0,0,
,-0.432,-0.473,0.767,-322.815,-196.351,100.036,0,0,0,
,-0.438,-0.432,0.749,-349.854,-190.674,119.14,0,0,0,
,-0.45,-0.386,0.736,-328.431,-182.251,125.915,0,0,0,
,-0.463,-0.394,0.704,-296.814,-166.81,109.436,0,0,0,
,-0.464,-0.452,0.688,-283.509,-141.419,106.323,0,0,0,
,-0.47,-0.473,0.705,-329.346,-159.119,109.497,0,0,0,
,-0.472,-0.432,0.718,-399.781,-134.278,103.088,0,0,0,
,-0.474,-0.405,0.725,-428.101,-105.225,113.159,0,0,0,
,-0.468,-0.341,0.74,-428.284,-81.849,93.994,0,0,0,
,-0.477,-0.328,0.755,-372.803,-57.984,92.651,0,0,0,
,-0.475,-0.347,0.756,-332.032,-23.743,84.716,0,0,0,
,-0.465,-0.343,0.754,-323.182,9.643,78.918,0,0,0,
,-0.452,-0.336,0.779,-314.209,35.4,65.673,0,0,0,
,-0.444,-0.328,0.83,-310.059,49.255,59.57,0,0,0,
,-0.436,-0.289,0.867,-307.19,59.326,55.175,0,0,0,
,-0.447,-0.233,0.894,-289.612,53.588,58.166,0,0,0,
,-0.461,-0.216,0.902,-242.31,61.889,57.617,0,0,0,
,-0.461,-0.2,0.878,-192.627,85.815,58.898,0,0,0,
,-0.445,-0.203,0.865,-143.067,107.849,38.33,0,0,0,
,-0.431,-0.221,0.864,-92.53,102.661,20.263,0,0,0,
,-0.423,-0.246,0.887,-65.552,101.318,5.798,0,0,0,
,-0.413,-0.277,0.904,-52.063,124.389,-14.344,0,0,0,
,-0.392,-0.285,0.927,-45.289,151.55,-31.617,0,0,0,
,-0.37,-0.281,0.935,-20.02,172.851,-52.43,0,0,0,
,-0.346,-0.271,0.924,25.695,191.04,-69.153,0,0,0,
,-0.328,-0.266,0.928,73.547,187.683,-100.342,0,0,0,
,-0.316,-0.272,0.931,130.005,197.265,-118.164,0,0,0,
,-0.303,-0.317,0.922,172.973,208.801,-147.644,0,0,0,
,-0.291,-0.33,0.924,174.682,218.322,-158.326,0,0,0,
,-0.28,-0.311,0.931,192.138,213.989,-168.335,0,0,0,
,-0.282,-0.299,0.969,247.07,219.055,-164.856,0,0,0,
,-0.263,-0.296,1.012,307.678,242.675,-179.749,0,0,0,
,-0.229,-0.288,1,390.686,248.901,-195.679,0,0,0,
,-0.208,-0.322,0.99,459.594,213.867,-203.858,0,0,0,
,-0.207,-0.391,0.985,464.111,161.193,-204.285,0,0,0,
,-0.211,-0.407,0.99,403.503,129.089,-211.121,0,0,0,
,-0.209,-0.365,0.985,346.252,106.689,-224.06,0,0,0,
,-0.221,-0.303,0.993,334.045,83.313,-235.047,0,0,0,
,-0.239,-0.28,0.989,376.587,76.843,-232.3,0,0,0,
,-0.243,-0.288,0.989,429.016,85.51,-217.835,0,0,0,
,-0.231,-0.334,0.979,436.34,95.52,-203.98,0,0,0,
,-0.22,-0.391,0.988,389.343,90.148,-176.331,0,0,0,
,-0.212,-0.389,0.982,291.748,78.064,-153.138,0,0,0,
,-0.202,-0.382,1.003,230.59,54.077,-139.71,0,0,0,
,-0.195,-0.369,1.007,220.337,25.39,-120.85,0,0,0,
,-0.203,-0.376,1.008,226.806,-15.442,-97.474,0,0,0,
,-0.223,-0.395,1.018,228.698,-39.002,-93.201,0,0,0,
,-0.228,-0.419,1.001,239.013,-60.486,-96.192,0,0,0,
,-0.243,-0.431,0.956,250.854,-75.074,-90.455,0,0,0,
,-0.266,-0.429,0.92,278.564,-86.426,-77.088,0,0,0,
,-0.282,-0.459,0.899,292.053,-89.966,-74.83,0,0,0,
,-0.297,-0.496,0.878,265.014,-74.158,-70.069,0,0,0,
,-0.285,-0.525,0.839,209.716,-64.331,-62.623,0,0,0,
,-0.273,-0.54,0.817,126.403,-81.665,-43.58,0,0,0,
,-0.282,-0.548,0.81,34.668,-119.08,-25.452,0,0,0,
,-0.306,-0.525,0.807,-52.918,-148.743,-5.921,0,0,0,
,-0.34,-0.49,0.795,-107.666,-156.25,23.071,0,0,0,
,-0.36,-0.485,0.801,-131.165,-134.522,46.752,0,0,0,
,-0.353,-0.501,0.811,-167.786,-116.333,76.66,0,0,0,
,-0.347,-0.503,0.823,-220.337,-119.446,102.661,0,0,0,
,-0.355,-0.462,0.822,-244.507,-123.23,149.841,0,0,0,
,-0.37,-0.449,0.828,-235.901,-122.437,171.203,0,0,0,
,-0.373,-0.441,0.816,-212.403,-112.977,184.326,0,0,0,
,-0.379,-0.418,0.799,-189.637,-126.282,185.119,0,0,0,
,-0.393,-0.439,0.806,-164.063,-136.048,166.504,0,0,0,
,-0.405,-0.466,0.788,-169.861,-144.41,166.626,0,0,0,
,-0.413,-0.482,0.77,-199.83,-153.504,162.658,0,0,0,
,-0.417,-0.488,0.722,-243.348,-167.176,154.968,0,0,0,
,-0.423,-0.463,0.736,-292.42,-193.848,150.146,0,0,0,
,-0.439,-0.431,0.73,-313.782,-215.577,132.629,0,0,0,
,-0.463,-0.448,0.7,-318.787,-222.229,128.418,0,0,0,
,-0.482,-0.481,0.687,-366.394,-213.135,116.211,0,0,0,
,-0.488,-0.456,0.697,-443.97,-189.82,103.027,0,0,0,
,-0.484,-0.381,0.725,-473.023,-156.495,101.135,0,0,0,
,-0.476,-0.349,0.765,-443.665,-96.619,92.59,0,0,0,
,-0.456,-0.337,0.796,-399.72,-38.514,81.054,0,0,0,
,-0.427,-0.342,0.827,-357.972,17.517,73.852,0,0,0,
,-0.406,-0.366,0.862,-341.004,60.669,62.316,0,0,0,
,-0.378,-0.354,0.869,-326.416,79.467,58.166,0,0,0,
,-0.374,-0.316,0.86,-294.922,70.922,51.086,0,0,0,
,-0.387,-0.292,0.847,-225.892,59.143,35.461,0,0,0,
,-0.399,-0.28,0.838,-166.687,66.101,7.751,0,0,0,
,-0.405,-0.291,0.848,-111.634,83.74,-27.405,0,0,0,
,-0.386,-0.24,0.833,-65.796,108.154,-55.054,0,0,0,
,-0.387,-0.236,0.846,23.254,123.23,-70.13,0,0,0,
,-0.382,-0.274,0.869,99.609,155.944,-84.473,0,0,0,
,-0.319,-0.313,0.909,137.512,176.818,-104.31,0,0,0,
,-0.305,-0.331,0.923,152.954,180.481,-112.61,0,0,0,
,-0.29,-0.33,0.883,161.377,167.419,-107.117,0,0,0,
,-0.304,-0.316,0.912,155.761,137.756,-116.394,0,0,0,
,-0.308,-0.278,0.887,200.744,149.719,-120.728,0,0,0,
,-0.314,-0.285,0.887,272.461,133.3,-153.687,0,0,0,
,-0.315,-0.301,0.943,336.975,137.146,-184.205,0,0,0,
,-0.298,-0.32,0.997,401.733,168.029,-206.665,0,0,0,
,-0.273,-0.364,0.992,461.975,195.556,-188.599,0,0,0,
,-0.256,-0.403,0.994,471.923,199.585,-174.561,0,0,0,
,-0.238,-0.428,0.989,459.594,198.181,-173.096,0,0,0,
,-0.219,-0.444,0.983,436.584,179.382,-177.185,0,0,0,
,-0.213,-0.454,0.993,426.33,142.273,-186.524,0,0,0,
,-0.222,-0.45,0.987,409.301,102.05,-180.664,0,0,0,
,-0.24,-0.438,0.988,402.771,76.782,-174.256,0,0,0,
,-0.258,-0.441,0.976,404.724,65.246,-158.448,0,0,0,
,-0.272,-0.455,0.954,383.484,62.622,-150.33,0,0,0,
,-0.277,-0.474,0.936,346.496,65.368,-148.865,0,0,0,
,-0.278,-0.482,0.921,310.852,66.406,-145.874,0,0,0,
,-0.272,-0.487,0.911,283.508,60.974,-133.057,0,0,0,
,-0.276,-0.466,0.903,267.028,54.687,-118.531,0,0,0,
,-0.276,-0.467,0.881,280.822,51.757,-116.822,0,0,0,
,-0.276,-0.496,0.859,281.921,43.762,-113.465,0,0,0,
,-0.264,-0.527,0.851,256.775,28.869,-111.023,0,0,0,
,-0.259,-0.527,0.839,223.877,7.995,-97.474,0,0,0,
,-0.258,-0.526,0.82,196.411,-7.142,-92.102,0,0,0,
,-0.256,-0.547,0.813,158.752,-15.32,-97.352,0,0,0,
,-0.255,-0.551,0.797,104.126,-40.894,-91.797,0,0,0,
,-0.268,-0.564,0.793,47.668,-66.224,-83.68,0,0,0,
,-0.288,-0.556,0.798,-15.748,-97.962,-64.942,0,0,0,
,-0.318,-0.524,0.816,-51.697,-117.249,-38.575,0,0,0,
,-0.346,-0.513,0.82,-48.584,-116.639,-17.884,0,0,0,
,-0.364,-0.502,0.807,-32.288,-101.075,6.408,0,0,0,
,-0.368,-0.514,0.8,-10.254,-98.084,8.667,0,0,0,
,-0.368,-0.554,0.798,-5.433,-100.892,13.794,0,0,0,
,-0.38,-0.557,0.788,-27.466,-112.854,27.954,0,0,0,
,-0.39,-0.561,0.78,-32.654,-114.38,34.851,0,0,0,
,-0.398,-0.571,0.78,-54.078,-106.141,43.457,0,0,0,
,-0.403,-0.552,0.771,-84.229,-98.633,40.1,0,0,0,
,-0.399,-0.553,0.792,-111.023,-89.234,34.851,0,0,0,
,-0.395,-0.548,0.788,-133.118,-89.051,48.339,0,0,0,
,-0.393,-0.52,0.778,-159.668,-95.704,54.077,0,0,0,
,-0.397,-0.5,0.763,-178.101,-105.774,52.917,0,0,0,
,-0.409,-0.489,0.746,-181.153,-119.935,61.401,0,0,0,
,-0.422,-0.487,0.75,-183.838,-123.841,65.49,0,0,0,
,-0.428,-0.519,0.789,-224.366,-122.01,68.481,0,0,0,
,-0.419,-0.499,0.793,-270.569,-98.206,99.365,0,0,0,
,-0.411,-0.454,0.81,-281.678,-89.905,118.957,0,0,0,
,-0.4,-0.432,0.789,-260.193,-84.351,124.389,0,0,0,
,-0.39,-0.426,0.781,-224.671,-94.239,115.539,0,0,0,
,-0.39,-0.465,0.774,-198.548,-109.62,101.013,0,0,0,
,-0.402,-0.52,0.783,-213.196,-113.831,101.928,0,0,0,
,-0.397,-0.538,0.788,-289.917,-95.887,110.839,0,0,0,
,-0.396,-0.514,0.804,-345.093,-81.665,121.948,0,0,0,
,-0.383,-0.466,0.824,-372.803,-73.182,134.094,0,0,0,
,-0.389,-0.39,0.801,-354.737,-82.093,135.62,0,0,0,
,-0.405,-0.369,0.776,-296.509,-81.055,115.478,0,0,0,
,-0.415,-0.401,0.745,-257.142,-78.003,104.065,0,0,0,
,-0.42,-0.422,0.744,-258.667,-54.688,101.257,0,0,0,
,-0.408,-0.455,0.777,-276.307,-24.842,86.303,0,0,0,
,-0.39,-0.42,0.803,-327.698,4.333,84.838,0,0,0,
,-0.38,-0.35,0.84,-333.863,12.39,82.885,0,0,0,
,-0.389,-0.319,0.891,-304.627,41.503,83.435,0,0,0,
,-0.366,-0.354,0.948,-277.71,87.951,76.843,0,0,0,
,-0.317,-0.353,0.98,-292.481,119.445,81.298,0,0,0,
,-0.273,-0.336,0.977,-304.932,86.547,86.547,0,0,0,
,-0.262,-0.261,1.002,-277.527,25.024,77.697,0,0,0,
,-0.292,-0.265,1.021,-85.022,-43.763,-26.978,0,0,0,
,-0.344,-0.463,1.033,32.714,-37.476,-49.256,0,0,0,
,-0.339,-0.45,0.993,-74.036,-12.085,-49.927,0,0,0,
,-0.324,-0.313,0.956,-124.39,-31.495,-46.753,0,0,0,
,-0.35,-0.281,0.966,-58.96,-60.852,-49.683,0,0,0,
,-0.375,-0.276,0.957,-9.644,-58.228,-68.97,0,0,0,
,-0.376,-0.253,0.967,29.419,-46.509,-92.835,0,0,0,
,-0.371,-0.242,0.959,116.882,-34.485,-88.135,0,0,0,
,-0.374,-0.275,0.943,214.416,-22.034,-109.742,0,0,0,
,-0.376,-0.31,0.896,287.902,-19.654,-128.357,0,0,0,
,-0.383,-0.318,0.843,343.872,-24.109,-142.029,0,0,0,
,-0.4,-0.394,0.794,368.164,-20.447,-160.462,0,0,0,
,-0.416,-0.457,0.779,308.044,0.854,-169.556,0,0,0,
,-0.423,-0.441,0.723,211.486,23.376,-172.425,0,0,0,
,-0.433,-0.402,0.73,140.503,45.288,-163.575,0,0,0,
,-0.446,-0.372,0.748,103.576,80.81,-146.18,0,0,0,
,-0.441,-0.322,0.758,103.698,123.23,-141.175,0,0,0,
,-0.441,-0.33,0.772,130.676,154.846,-147.339,0,0,0,
,-0.415,-0.421,0.852,156.494,224.06,-151.062,0,0,0,
,-0.352,-0.414,0.886,123.047,260.986,-158.692,0,0,0,
,-0.311,-0.339,0.925,171.142,231.994,-165.039,0,0,0,
,-0.305,-0.32,0.964,286.804,183.899,-199.585,0,0,0,
,-0.321,-0.318,0.992,425.109,155.273,-223.45,0,0,0,
,-0.324,-0.343,0.983,562.255,141.845,-241.394,0,0,0,
,-0.326,-0.368,0.919,671.753,119.812,-239.93,0,0,0,
,-0.348,-0.447,0.876,742.981,99.304,-239.93,0,0,0,
,-0.353,-0.558,0.846,698.73,109.375,-233.765,0,0,0,
,-0.345,-0.622,0.831,531.128,119.506,-217.835,0,0,0,
,-0.333,-0.624,0.838,336.059,113.22,-188.355,0,0,0,
,-0.323,-0.6,0.846,144.348,79.04,-154.236,0,0,0,
,-0.318,-0.516,0.843,28.32,65.307,-124.878,0,0,0,
,-0.317,-0.468,0.868,3.479,23.376,-120.118,0,0,0,
,-0.324,-0.48,0.876,21.179,-6.897,-110.23,0,0,0,
,-0.333,-0.539,0.874,-1.16,-22.889,-93.384,0,0,0,
,-0.321,-0.568,0.876,-101.746,-43.58,-77.332,0,0,0,
,-0.323,-0.526,0.889,-201.783,-93.323,-55.176,0,0,0,
,-0.351,-0.454,0.897,-238.404,-127.991,-17.64,0,0,0,
,-0.376,-0.397,0.877,-217.835,-127.442,2.075,0,0,0,
,-0.386,-0.395,0.862,-175.66,-115.113,8.606,0,0,0,
,-0.384,-0.43,0.84,-154.541,-104.126,14.892,0,0,0,
,-0.386,-0.454,0.813,-168.702,-112.732,42.297,0,0,0,
,-0.399,-0.429,0.789,-210.083,-110.291,61.767,0,0,0,
,-0.409,-0.462,0.779,-253.235,-108.216,74.279,0,0,0,
,-0.41,-0.468,0.784,-322.815,-115.357,102.844,0,0,0,
,-0.41,-0.419,0.792,-374.39,-116.883,130.249,0,0,0,
,-0.425,-0.368,0.785,-374.756,-131.775,143.127,0,0,0,
,-0.444,-0.336,0.774,-340.76,-134.278,146.301,0,0,0,
,-0.448,-0.371,0.782,-307.19,-123.23,119.812,0,0,0,
,-0.453,-0.374,0.79,-294.861,-114.319,134.582,0,0,0,
,-0.463,-0.357,0.769,-294.19,-91.004,145.996,0,0,0,
,-0.458,-0.369,0.759,-285.401,-68.848,147.827,0,0,0,
,-0.446,-0.37,0.771,-297.608,-65.918,140.503,0,0,0,
,-0.442,-0.384,0.782,-300.232,-65.369,148.315,0,0,0,
,-0.445,-0.384,0.802,-303.589,-46.631,144.165,0,0,0,
,-0.438,-0.356,0.796,-291.26,-31.861,132.812,0,0,0,
,-0.441,-0.327,0.792,-223.084,-32.532,115.905,0,0,0,
,-0.453,-0.282,0.765,-159.546,-17.09,88.928,0,0,0,
,-0.476,-0.297,0.719,-96.375,6.408,56.762,0,0,0,
,-0.485,-0.322,0.729,-47.059,60.913,39.001,0,0,0,
,-0.455,-0.335,0.754,-47.303,119.323,29.419,0,0,0,
,-0.418,-0.335,0.799,-72.144,151.428,30.517,0,0,0,
,-0.39,-0.297,0.85,-75.867,161.56,27.526,0,0,0,
,-0.38,-0.245,0.889,-13.794,165.588,22.461,0,0,0,
,-0.372,-0.21,0.924,118.713,176.574,0.976,0,0,0,
,-0.364,-0.26,0.925,285.156,206.115,-29.786,0,0,0,
,-0.344,-0.326,0.901,410.339,232.299,-32.654,0,0,0,
,-0.323,-0.45,0.89,443.847,254.455,-53.345,0,0,0,
,-0.294,-0.547,0.912,366.638,261.84,-73.975,0,0,0,
,-0.255,-0.553,0.909,252.197,255.31,-85.328,0,0,0,
,-0.246,-0.509,0.875,147.4,215.759,-92.774,0,0,0,
,-0.257,-0.482,0.87,100.402,193.481,-117.432,0,0,0,
,-0.266,-0.492,0.926,60.607,201.965,-170.533,0,0,0,
,-0.241,-0.481,0.955,28.869,217.834,-210.999,0,0,0,
,-0.217,-0.418,0.973,40.649,202.514,-211.548,0,0,0,
,-0.213,-0.394,1.032,92.468,164.856,-213.868,0,0,0,
,-0.219,-0.375,1.043,140.014,140.075,-221.131,0,0,0,
,-0.225,-0.365,1.06,184.387,117.309,-222.596,0,0,0,
,-0.23,-0.342,1.064,233.947,87.768,-213.501,0,0,0,
,-0.246,-0.327,1.056,295.166,63.842,-198.487,0,0,0,
,-0.256,-0.314,1.03,370.544,50.842,-191.468,0,0,0,
,-0.265,-0.332,0.999,445.739,31.921,-177.857,0,0,0,
,-0.273,-0.378,0.998,503.479,13.305,-167.969,0,0,0,
,-0.27,-0.421,0.963,514.953,6.591,-162.903,0,0,0,
,-0.27,-0.447,0.92,518.432,-10.743,-145.264,0,0,0,
,-0.278,-0.484,0.875,512.207,-35.096,-133.24,0,0,0,
,-0.296,-0.568,0.856,441.955,-47.364,-123.475,0,0,0,
,-0.306,-0.63,0.843,283.874,-51.941,-108.216,0,0,0,
,-0.307,-0.599,0.827,125.244,-56.031,-80.933,0,0,0,
,-0.315,-0.555,0.822,41.931,-65.735,-66.163,0,0,0,
,-0.325,-0.516,0.812,11.718,-78.736,-49.378,0,0,0,
,-0.336,-0.49,0.803,13.122,-78.797,-49.5,0,0,0,
,-0.347,-0.506,0.805,21.972,-64.026,-54.383,0,0,0,
,-0.342,-0.509,0.802,1.953,-55.115,-51.636,0,0,0,
,-0.339,-0.511,0.803,-27.832,-51.087,-54.932,0,0,0,
,-0.349,-0.494,0.786,-39.551,-70.496,-23.255,0,0,0,
,-0.38,-0.519,0.79,-44.556,-80.811,-5.188,0,0,0,
,-0.391,-0.553,0.802,-107.911,-66.773,19.592,0,0,0,
,-0.381,-0.517,0.8,-146.058,-56.458,47.119,0,0,0,
,-0.381,-0.494,0.77,-164.856,-73.182,62.316,0,0,0,
,-0.385,-0.511,0.776,-177.918,-98.511,68.481,0,0,0,
,-0.402,-0.494,0.752,-204.834,-118.897,85.449,0,0,0,
,-0.411,-0.511,0.755,-204.102,-115.967,91.247,0,0,0,
,-0.409,-0.501,0.722,-227.478,-124.939,99.182,0,0,0,
,-0.418,-0.485,0.713,-239.258,-138.733,101.684,0,0,0,
,-0.425,-0.489,0.708,-256.409,-145.02,102.661,0,0,0,
,-0.43,-0.483,0.737,-338.196,-150.208,122.192,0,0,0,
,-0.428,-0.452,0.736,-353.394,-142.273,137.329,0,0,0,
,-0.434,-0.45,0.72,-351.38,-128.602,139.038,0,0,0,
,-0.438,-0.466,0.721,-347.413,-116.211,141.418,0,0,0,
,-0.434,-0.459,0.751,-364.38,-98.755,136.657,0,0,0,
,-0.437,-0.425,0.78,-381.104,-92.164,132.995,0,0,0,
,-0.439,-0.4,0.813,-376.099,-73.548,118.957,0,0,0,
,-0.443,-0.348,0.827,-335.633,-46.387,119.934,0,0,0,
,-0.441,-0.283,0.83,-246.46,-14.1,117.248,0,0,0,
,-0.439,-0.275,0.82,-121.094,31.86,109.497,0,0,0,
,-0.423,-0.357,0.825,-39.063,72.204,102.356,0,0,0,
,-0.392,-0.42,0.837,-58.167,110.412,100.647,0,0,0,
,-0.326,-0.391,0.867,-170.044,97.229,98.571,0,0,0,
,-0.319,-0.357,0.886,-176.27,70.8,77.148,0,0,0,
,-0.332,-0.343,0.898,-147.889,54.565,53.161,0,0,0,
,-0.34,-0.339,0.892,-78.003,56.762,40.71,0,0,0,
,-0.353,-0.382,0.905,-32.41,74.89,31.127,0,0,0,
,-0.329,-0.425,0.926,-21.912,116.516,13.366,0,0,0,
,-0.303,-0.411,0.946,-31.373,138.855,7.324,0,0,0,
,-0.275,-0.387,0.939,0.244,140.93,-5.494,0,0,0,
,-0.259,-0.387,0.956,75.195,124.817,-44.556,0,0,0,
,-0.253,-0.409,0.971,166.748,120.361,-92.53,0,0,0,
,-0.25,-0.414,0.967,282.592,132.019,-141.968,0,0,0,
,-0.251,-0.419,0.931,398.681,142.028,-192.078,0,0,0,
,-0.284,-0.452,0.897,588.134,225.28,-314.881,0,0,0,
,-0.281,-0.491,0.878,574.585,251.22,-327.332,0,0,0,
,-0.267,-0.525,0.891,499.145,246.276,-302.674,0,0,0,
,-0.245,-0.502,0.932,383.117,221.984,-273.987,0,0,0,
,-0.231,-0.46,0.948,319.458,187.439,-241.15,0,0,0,
,-0.229,-0.427,0.951,303.955,140.014,-213.746,0,0,0,
,-0.245,-0.396,0.952,338.44,86.364,-192.505,0,0,0,
,-0.261,-0.435,0.963,375.549,51.757,-174.195,0,0,0,
,-0.263,-0.477,0.943,370.056,35.278,-156.434,0,0,0,
,-0.257,-0.512,0.915,344.116,10.925,-144.959,0,0,0,
,-0.261,-0.54,0.876,295.227,-23.499,-130.494,0,0,0,
,-0.279,-0.542,0.847,237.915,-59.51,-116.211,0,0,0,
,-0.303,-0.568,0.828,182.556,-77.088,-101.624,0,0,0,
,-0.315,-0.601,0.826,112.915,-63.111,-83.008,0,0,0,
,-0.313,-0.592,0.829,17.395,-56.641,-64.759,0,0,0,
,-0.316,-0.541,0.819,-30.152,-60.059,-38.086,0,0,0,
,-0.328,-0.53,0.797,-32.166,-64.087,-25.391,0,0,0,
,-0.333,-0.521,0.76,-43.335,-57.068,-15.076,0,0,0,
,-0.324,-0.556,0.76,-62.195,-58.472,-29.114,0,0,0,
,-0.321,-0.585,0.781,-119.568,-79.895,-12.207,0,0,0,
,-0.334,-0.568,0.797,-189.27,-93.506,10.986,0,0,0,
,-0.344,-0.522,0.813,-221.985,-89.112,21.057,0,0,0,
,-0.34,-0.488,0.827,-202.454,-68.787,17.761,0,0,0,
,-0.337,-0.467,0.828,-135.804,-75.135,15.136,0,0,0,
,-0.356,-0.501,0.823,-75.318,-82.825,7.324,0,0,0,
,-0.372,-0.553,0.798,-80.689,-71.106,17.883,0,0,0,
,-0.369,-0.586,0.771,-151.368,-66.529,27.954,0,0,0,
,-0.366,-0.592,0.721,-253.846,-92.102,49.377,0,0,0,
,-0.382,-0.506,0.744,-336.182,-141.236,60.058,0,0,0,
,-0.414,-0.443,0.753,-353.638,-176.514,64.331,0,0,0,
