TIMECODE,ACC_X,ACC_Y,ACC_Z,GYR_X,GYR_Y,GYR_Z,ECG_I,ECG_II,ECG_III,TAG
,-0.096,0.38,0.909,5.798,6.042,-23.499,0,0,0,
,-0.097,0.383,0.916,5.371,6.286,-23.926,0,0,0,
,-0.097,0.38,0.911,6.591,10.07,-21.607,0,0,0,
,-0.093,0.376,0.911,8.789,10.803,-23.621,0,0,0,
,-0.093,0.378,0.915,7.019,9.033,-21.058,0,0,0,
,-0.099,0.38,0.909,5.676,9.521,-20.081,0,0,0,
,-0.1,0.388,0.911,3.967,11.352,-22.4,0,0,0,
,-0.097,0.383,0.905,7.141,13.794,-21.424,0,0,0,
,-0.089,0.38,0.908,9.887,14.465,-26.123,0,0,0,
,-0.088,0.378,0.913,6.103,7.08,-22.339,0,0,0,
,-0.095,0.379,0.909,4.699,2.563,-20.203,0,0,0,
,-0.097,0.38,0.914,2.685,1.648,-21.241,0,0,0,
,-0.104,0.385,0.908,3.173,5.371,-23.499,0,0,0,
,-0.1,0.383,0.909,4.516,9.643,-24.659,0,0,0,
,-0.093,0.381,0.907,6.408,10.009,-23.316,0,0,0,
,-0.094,0.378,0.91,7.568,7.568,-21.729,0,0,0,
,-0.095,0.381,0.907,4.638,6.225,-21.424,0,0,0,
,-0.092,0.377,0.911,7.446,4.455,-22.278,0,0,0,
,-0.065,0.379,0.913,6.774,5.493,-22.644,0,0,0,
,-0.064,0.38,0.909,5.676,5.493,-21.912,0,0,0,
,-0.099,0.387,0.907,2.502,2.563,-19.593,0,0,0,
,-0.099,0.385,0.91,4.76,6.897,-20.63,0,0,0,
,-0.095,0.384,0.911,5.249,10.376,-22.828,0,0,0,
,-0.094,0.38,0.909,3.54,9.582,-21.668,0,0,0,
,-0.093,0.377,0.909,4.516,6.897,-23.438,0,0,0,
,-0.096,0.376,0.907,3.54,2.258,-20.691,0,0,0,
,-0.099,0.382,0.913,3.845,0.488,-20.874,0,0,0,
,-0.098,0.386,0.913,2.563,4.943,-20.874,0,0,0,
,-0.099,0.383,0.912,4.272,8.117,-24.537,0,0,0,
,-0.093,0.385,0.909,5.249,11.657,-23.499,0,0,0,
,-0.092,0.382,0.905,5.127,8.361,-22.583,0,0,0,
,-0.092,0.383,0.908,2.807,4.333,-20.386,0,0,0,
,-0.101,0.384,0.909,5.249,3.601,-19.532,0,0,0,
,-0.1,0.377,0.915,12.695,3.112,-22.461,0,0,0,
,-0.095,0.372,0.91,6.347,7.446,-20.02,0,0,0,
,-0.096,0.377,0.909,-0.611,3.234,-20.447,0,0,0,
,-0.095,0.389,0.913,0,2.624,-20.264,0,0,0,
,-0.099,0.391,0.906,4.943,5.065,-20.813,0,0,0,
,-0.098,0.383,0.914,9.277,6.225,-21.912,0,0,0,
,-0.097,0.379,0.909,2.197,7.141,-21.485,0,0,0,
,-0.096,0.38,0.909,2.685,5.432,-22.095,0,0,0,
,-0.097,0.384,0.912,5.31,6.042,-21.18,0,0,0,
,-0.1,0.381,0.915,9.887,8.056,-23.56,0,0,0,
,-0.098,0.376,0.911,6.042,10.376,-23.621,0,0,0,
,-0.099,0.377,0.911,5.737,9.643,-23.194,0,0,0,
,-0.095,0.384,0.91,1.892,7.507,-21.668,0,0,0,
,-0.098,0.383,0.904,7.507,5.798,-19.165,0,0,0,
,-0.1,0.387,0.911,7.263,4.516,-21.546,0,0,0,
,-0.103,0.386,0.91,6.286,10.192,-19.41,0,0,0,
,-0.101,0.383,0.908,6.958,9.887,-20.569,0,0,0,
,-0.099,0.383,0.905,6.286,9.155,-20.935,0,0,0,
,-0.093,0.381,0.909,7.385,5.493,-21.729,0,0,0,
,-0.1,0.383,0.911,6.713,1.403,-21.18,0,0,0,
,-0.101,0.377,0.908,5.798,2.136,-22.706,0,0,0,
,-0.103,0.381,0.911,3.845,6.103,-25.513,0,0,0,
,-0.099,0.381,0.907,5.981,8.667,-24.414,0,0,0,
,-0.099,0.385,0.91,6.713,7.324,-23.987,0,0,0,
,-0.098,0.385,0.912,6.225,8.239,-21.973,0,0,0,
,-0.1,0.388,0.907,7.934,10.437,-21.668,0,0,0,
,-0.096,0.381,0.905,9.155,10.498,-20.813,0,0,0,
,-0.097,0.379,0.91,10.803,10.986,-23.255,0,0,0,
,-0.099,0.377,0.916,7.568,6.774,-20.997,0,0,0,
,-0.097,0.38,0.911,2.685,6.652,-22.339,0,0,0,
,-0.099,0.388,0.909,0.549,7.446,-22.217,0,0,0,
,-0.102,0.388,0.909,3.356,7.507,-23.072,0,0,0,
,-0.1,0.388,0.907,6.713,10.192,-22.522,0,0,0,
,-0.096,0.384,0.907,10.009,9.46,-20.569,0,0,0,
,-0.096,0.377,0.913,8.85,8.85,-22.339,0,0,0,
,-0.101,0.379,0.914,8.972,7.08,-22.522,0,0,0,
,-0.1,0.379,0.908,5.065,7.507,-22.156,0,0,0,
,-0.101,0.385,0.911,3.601,5.737,-23.926,0,0,0,
,-0.102,0.385,0.908,6.225,9.155,-22.828,0,0,0,
,-0.097,0.384,0.91,7.446,7.69,-23.316,0,0,0,
,-0.097,0.383,0.906,6.225,8.667,-22.706,0,0,0,
,-0.101,0.382,0.907,5.676,6.897,-20.813,0,0,0,
,-0.101,0.384,0.904,5.615,5.188,-21.546,0,0,0,
,-0.101,0.384,0.912,9.948,6.897,-22.706,0,0,0,
,-0.102,0.381,0.915,10.437,8.789,-23.743,0,0,0,
,-0.099,0.38,0.913,6.591,10.253,-25.391,0,0,0,
,-0.096,0.379,0.908,4.699,10.864,-23.56,0,0,0,
,-0.097,0.383,0.902,6.897,9.643,-23.499,0,0,0,
,-0.096,0.385,0.904,8.483,7.446,-20.752,0,0,0,
,-0.099,0.386,0.906,5.554,4.577,-21.241,0,0,0,
,-0.099,0.384,0.911,8.667,4.577,-19.654,0,0,0,
,-0.104,0.378,0.915,10.131,9.338,-21.424,0,0,0,
,-0.102,0.377,0.908,4.516,12.268,-21.973,0,0,0,
,-0.095,0.383,0.875,2.624,8.85,-22.034,0,0,0,
,-0.096,0.388,0.912,6.164,4.028,-23.926,0,0,0,
,-0.1,0.382,0.912,4.272,2.868,-23.011,0,0,0,
,-0.101,0.381,0.911,4.455,4.638,-24.903,0,0,0,
,-0.102,0.386,0.912,0.183,6.897,-25.025,0,0,0,
,-0.1,0.385,0.91,3.967,7.934,-23.926,0,0,0,
,-0.099,0.382,0.913,8.056,7.08,-24.598,0,0,0,
,-0.1,0.379,0.912,7.873,9.277,-25.208,0,0,0,
,-0.099,0.379,0.914,6.652,8.85,-23.377,0,0,0,
,-0.099,0.379,0.913,7.69,10.131,-22.889,0,0,0,
,-0.1,0.38,0.912,6.225,9.216,-22.644,0,0,0,
,-0.099,0.386,0.912,5.249,8.667,-21.546,0,0,0,
,-0.102,0.383,0.903,5.92,9.643,-23.133,0,0,0,
,-0.099,0.383,0.911,8.361,8.911,-22.278,0,0,0,
,-0.098,0.381,0.91,7.385,6.774,-23.316,0,0,0,
,-0.098,0.38,0.91,7.446,5.981,-23.377,0,0,0,
,-0.097,0.38,0.912,4.211,8.85,-22.828,0,0,0,
,-0.099,0.382,0.905,4.577,7.568,-23.621,0,0,0,
,-0.098,0.385,0.906,3.479,8.789,-22.278,0,0,0,
,-0.1,0.384,0.905,8.483,7.385,-22.339,0,0,0,
,-0.098,0.384,0.913,8.056,8.606,-23.377,0,0,0,
,-0.096,0.381,0.91,6.286,8.361,-20.813,0,0,0,
,-0.095,0.38,0.91,5.798,6.225,-22.522,0,0,0,
,-0.099,0.377,0.908,7.446,4.516,-21.119,0,0,0,
,-0.1,0.384,0.91,8.85,3.54,-21.79,0,0,0,
,-0.098,0.384,0.905,9.094,11.84,-22.339,0,0,0,
,-0.094,0.381,0.905,9.46,8.361,-21.607,0,0,0,
,-0.094,0.38,0.908,9.277,9.033,-20.386,0,0,0,
,-0.099,0.381,0.909,11.84,4.577,-19.593,0,0,0,
,-0.105,0.378,0.912,10.498,7.263,-20.386,0,0,0,
,-0.104,0.378,0.913,6.286,10.925,-20.386,0,0,0,
,-0.1,0.376,0.912,6.836,12.939,-21.851,0,0,0,
,-0.095,0.381,0.91,4.821,11.108,-22.95,0,0,0,
,-0.096,0.382,0.907,6.897,10.742,-22.461,0,0,0,
,-0.1,0.385,0.911,4.76,8.972,-20.752,0,0,0,
,-0.1,0.383,0.908,8.239,12.268,-19.349,0,0,0,
,-0.101,0.377,0.91,5.065,9.399,-18.372,0,0,0,
,-0.103,0.383,0.91,5.554,13.244,-19.959,0,0,0,
,-0.101,0.381,0.914,9.521,18.432,-23.804,0,0,0,
,-0.09,0.377,0.907,7.751,19.653,-22.339,0,0,0,
,-0.091,0.377,0.905,5.493,15.502,-20.569,0,0,0,
,-0.097,0.383,0.905,5.798,9.399,-16.175,0,0,0,
,-0.103,0.387,0.908,9.277,9.399,-18.677,0,0,0,
,-0.104,0.386,0.914,11.596,14.404,-19.227,0,0,0,
,-0.1,0.379,0.911,10.986,19.714,-20.203,0,0,0,
,-0.095,0.376,0.913,6.408,19.409,-22.278,0,0,0,
,-0.091,0.376,0.908,2.746,14.587,-20.264,0,0,0,
,-0.094,0.384,0.912,6.652,10.864,-19.532,0,0,0,
,-0.099,0.382,0.913,7.751,12.085,-18.86,0,0,0,
,-0.099,0.38,0.909,11.047,14.221,-20.752,0,0,0,
,-0.098,0.378,0.911,7.69,12.817,-20.691,0,0,0,
,-0.097,0.38,0.91,7.08,15.075,-19.959,0,0,0,
,-0.096,0.384,0.911,7.263,13.427,-20.508,0,0,0,
,-0.088,0.377,0.909,6.103,14.16,-20.569,0,0,0,
,-0.093,0.377,0.908,5.249,10.986,-19.532,0,0,0,
,-0.094,0.377,0.913,6.408,9.704,-18.311,0,0,0,
,-0.097,0.376,0.91,6.897,12.268,-19.104,0,0,0,
,-0.097,0.381,0.909,7.08,14.404,-19.532,0,0,0,
,-0.125,0.376,0.916,8.789,12.817,-23.194,0,0,0,
,-0.092,0.374,0.915,6.713,14.953,-23.377,0,0,0,
,-0.091,0.377,0.912,2.99,13.488,-20.874,0,0,0,
,-0.091,0.381,0.911,8.606,13,-21.668,0,0,0,
,-0.095,0.38,0.908,10.192,13.244,-20.569,0,0,0,
,-0.096,0.376,0.913,12.695,15.991,-20.203,0,0,0,
,-0.095,0.38,0.915,9.643,18.615,-19.715,0,0,0,
,-0.089,0.377,0.908,8.361,18.676,-20.02,0,0,0,
,-0.088,0.377,0.909,10.925,15.075,-20.569,0,0,0,
,-0.089,0.373,0.909,10.681,11.108,-19.349,0,0,0,
,-0.093,0.374,0.913,7.019,8.422,-18.921,0,0,0,
,-0.094,0.387,0.909,2.258,6.713,-23.133,0,0,0,
,-0.091,0.383,0.915,5.615,5.676,-24.17,0,0,0,
,-0.088,0.37,0.919,5.981,6.164,-26.49,0,0,0,
,-0.089,0.371,0.905,-5.799,2.624,-24.109,0,0,0,
,-0.091,0.384,0.908,-6.348,-0.855,-22.828,0,0,0,
,-0.094,0.386,0.909,-0.855,-1.16,-22.339,0,0,0,
,-0.102,0.388,0.91,9.521,3.418,-21.241,0,0,0,
,-0.112,0.399,0.925,23.193,21.545,-20.081,0,0,0,
,-0.132,0.418,0.965,32.898,75.439,-8.118,0,0,0,
,-0.165,0.427,1.089,86.364,173.828,3.967,0,0,0,
,-0.225,0.438,1.298,238.22,420.776,29.357,0,0,0,
,0.101,-0.023,2.437,264.343,836.12,116.333,0,0,0,
,0.301,0.063,2.3,29.968,653.564,143.249,0,0,0,
,0.627,0.661,2.175,-680.542,534.79,31.982,0,0,0,
,1.205,1.394,1.683,-708.13,56.091,236.572,0,0,0,
,1.851,1.951,1.908,489.624,-1240.601,713.623,0,0,0,
,1.407,1.255,2.051,1053.1,-2000,695.984,0,0,0,
,0.956,1.036,1.881,811.767,-2000,994.995,0,0,0,
,0.893,0.961,1.384,427.063,-2000,990.295,0,0,0,
,1.038,1.108,0.782,339.111,-2000,1196.655,0,0,0,
,1.02,1.035,0.088,526.367,-2000,1432.861,0,0,0,
,0.849,0.728,-0.271,824.829,-2000,1530.639,0,0,0,
,0.698,0.276,-0.55,982.788,-2000,1558.654,0,0,0,
,0.613,-0.025,-0.665,1028.991,-2000,1620.788,0,0,0,
,0.263,-0.537,-1.286,644.043,-2000,1552.673,0,0,0,
,0.133,-0.799,-1.659,671.63,-2000,1533.874,0,0,0,
,-0.237,-1.419,-1.986,817.627,-2000,1093.872,0,0,0,
,-0.554,-1.458,-1.762,752.99,-2000,780.273,0,0,0,
,-0.935,-1.298,-1.567,346.191,-1310.975,238.952,0,0,0,
,-0.998,-0.879,-1.378,-18.006,-213.746,-417.176,0,0,0,
,-0.672,-0.581,-1.351,-206.36,695.8,-938.843,0,0,0,
,-0.407,-0.566,-1.352,-384.827,1262.268,-1046.998,0,0,0,
,-0.265,-0.51,-1.281,-451.783,1549.987,-1061.829,0,0,0,
,-0.238,-0.353,-1.104,-544.007,1741.638,-1112.732,0,0,0,
,-0.273,-0.249,-0.887,-573.67,1999.694,-1150.269,0,0,0,
,-0.281,-0.193,-0.718,-571.228,1999.694,-1191.895,0,0,0,
,-0.227,-0.199,-0.569,-584.656,1999.694,-1241.15,0,0,0,
,-0.147,-0.197,-0.388,-641.907,1999.694,-1279.236,0,0,0,
,-0.063,-0.171,-0.204,-717.652,1999.694,-1295.716,0,0,0,
,0.023,-0.08,0.083,-723.938,1999.694,-1289.49,0,0,0,
,0.16,0.047,0.336,-952.515,1999.694,-1237,0,0,0,
,0.507,0.292,0.599,-950.501,1999.694,-1162.659,0,0,0,
,0.632,0.652,0.974,-668.519,1999.694,-1138.55,0,0,0,
,0.533,0.77,1.296,-290.284,1999.694,-1058.289,0,0,0,
,0.498,0.696,1.806,-46.326,1999.694,-975.342,0,0,0,
,0.564,0.747,1.95,-91.553,1999.694,-865.296,0,0,0,
,0.581,0.837,1.774,-139.222,1608.276,-692.261,0,0,0,
,0.411,0.682,1.691,-42.298,1086.425,-585.755,0,0,0,
,0.251,0.584,1.788,-104.432,712.463,-468.628,0,0,0,
,0.141,0.563,1.77,-262.818,480.59,-376.587,0,0,0,
,0.071,0.629,1.639,-318.055,322.204,-333.313,0,0,0,
,0.017,0.65,1.444,-264.344,171.081,-285.462,0,0,0,
,-0.032,0.554,1.258,-136.597,26.245,-232.117,0,0,0,
,-0.084,0.46,1.181,-32.166,-52.43,-197.388,0,0,0,
,-0.153,0.395,1.124,-12.757,-40.406,-169.678,0,0,0,
,-0.153,0.37,1.118,0,21.728,-148.316,0,0,0,
,-0.138,0.329,1.076,2.319,118.286,-140.564,0,0,0,
,-0.102,0.33,1.051,13.183,185.119,-127.564,0,0,0,
,-0.062,0.333,1.011,36.071,216.308,-108.155,0,0,0,
,-0.019,0.306,0.967,73.852,198.425,-91.126,0,0,0,
,0,0.283,0.957,82.702,168.518,-65.979,0,0,0,
,0.007,0.301,0.975,80.993,133.484,-44.373,0,0,0,
,0.015,0.298,0.994,82.336,109.741,-49.927,0,0,0,
,0.028,0.301,1.006,79.284,98.877,-59.082,0,0,0,
,0.047,0.362,1.008,108.093,80.322,-59.327,0,0,0,
,0.052,0.352,0.983,147.766,11.23,-48.157,0,0,0,
,0.03,0.301,0.999,163.879,-56.58,-43.58,0,0,0,
,-0.011,0.277,1.002,131.103,-81.604,-34.546,0,0,0,
,-0.036,0.269,0.991,86.547,-61.097,-35.95,0,0,0,
,-0.064,0.25,0.94,76.843,-38.025,-44.678,0,0,0,
,-0.059,0.291,0.942,76.782,9.216,-50.477,0,0,0,
,-0.043,0.303,0.955,93.994,27.16,-57.923,0,0,0,
,-0.013,0.269,0.957,111.328,32.836,-54.566,0,0,0,
,0.006,0.239,0.979,122.314,-1.648,-44.495,0,0,0,
,-0.005,0.204,0.978,99.06,-36.316,-44.373,0,0,0,
,-0.028,0.216,0.997,70.678,-28.748,-39.307,0,0,0,
,-0.031,0.225,0.979,21.545,3.906,-35.523,0,0,0,
,-0.015,0.238,0.97,-8.118,25.878,-36.499,0,0,0,
,0.002,0.242,0.95,-25.086,28.503,-32.654,0,0,0,
,0.003,0.259,0.946,-28.26,24.169,-27.283,0,0,0,
,0.005,0.261,0.947,-13.367,22.583,-19.043,0,0,0,
,0.003,0.257,0.954,10.559,24.902,-14.649,0,0,0,
,-0.003,0.253,0.948,11.108,13.671,-7.63,0,0,0,
,-0.015,0.242,0.947,-11.475,5.737,-0.184,0,0,0,
,-0.024,0.24,0.954,-31.739,11.535,-0.55,0,0,0,
,-0.029,0.254,0.994,-32.837,27.282,1.586,0,0,0,
,-0.022,0.279,0.982,-25.025,53.466,-2.747,0,0,0,
,-0.014,0.279,0.979,-11.292,68.42,-2.442,0,0,0,
,-0.004,0.268,0.963,4.577,48.339,-8.667,0,0,0,
,-0.006,0.259,0.945,5.188,24.841,-12.818,0,0,0,
,-0.007,0.267,0.944,6.774,26.306,-9.827,0,0,0,
,0,0.265,0.933,15.686,36.56,-7.569,0,0,0,
,0.006,0.252,0.932,31.005,36.01,-14.832,0,0,0,
,0.009,0.239,0.941,31.799,17.456,-15.381,0,0,0,
,0.009,0.239,0.959,12.573,8.3,-11.109,0,0,0,
,0,0.248,0.991,-2.137,12.39,-5.188,0,0,0,
,-0.009,0.277,1.036,-2.686,32.043,-2.991,0,0,0,
,-0.015,0.312,1.066,7.263,51.574,2.197,0,0,0,
,-0.035,0.324,1.103,30.212,44.311,3.967,0,0,0,
,-0.055,0.325,1.18,44.738,56.823,6.53,0,0,0,
,-0.064,0.301,1.226,40.893,85.266,26.184,0,0,0,
,-0.071,0.29,1.311,29.419,80.688,54.199,0,0,0,
,-0.086,0.286,1.227,-18.799,52.307,88.501,0,0,0,
,-0.146,0.336,1.221,-46.753,-87.342,207.702,0,0,0,
,-0.218,0.408,1.131,27.282,-160.889,235.717,0,0,0,
,-0.25,0.385,1.122,147.705,-205.872,373.23,0,0,0,
,-0.257,0.367,1.142,96.801,-120.667,557.434,0,0,0,
,-0.23,0.53,1.114,72.998,-56.641,666.381,0,0,0,
,-0.185,0.604,1.046,148.315,-110.413,693.237,0,0,0,
,-0.157,0.525,1.027,295.349,-222.596,697.082,0,0,0,
,-0.156,0.38,1.018,423.095,-315.857,683.715,0,0,0,
,-0.172,0.259,0.984,477.295,-357.605,660.156,0,0,0,
,-0.188,0.181,0.928,509.765,-327.21,719.787,0,0,0,
,-0.197,0.152,0.869,510.681,-247.742,766.54,0,0,0,
,-0.193,0.138,0.834,526.855,-138.428,736.572,0,0,0,
,-0.18,0.124,0.806,587.341,-34.302,726.257,0,0,0,
,-0.138,0.099,0.791,721.496,73.364,732.727,0,0,0,
,-0.08,0.032,0.794,867.309,153.808,704.773,0,0,0,
,-0.019,-0.035,0.8,958.007,177.063,665.466,0,0,0,
,0.011,-0.081,0.751,1010.803,200.622,636.108,0,0,0,
,0.023,-0.097,0.745,1073.913,196.106,605.468,0,0,0,
,0.024,-0.143,0.785,1131.347,189.819,541.137,0,0,0,
,0.039,-0.226,0.829,1129.211,175.293,481.689,0,0,0,
,0.027,-0.315,0.836,1100.525,159.729,436.157,0,0,0,
,0.015,-0.386,0.832,1024.719,163.391,403.503,0,0,0,
,0.015,-0.412,0.81,877.99,176.635,370.117,0,0,0,
,0.021,-0.455,0.849,707.763,160.095,315.796,0,0,0,
,0.024,-0.396,0.859,574.524,148.803,285.522,0,0,0,
,0.02,-0.383,0.884,520.63,119.201,244.384,0,0,0,
,0.03,-0.404,0.882,518.371,80.2,203.857,0,0,0,
,0.017,-0.41,0.846,450.561,41.748,189.209,0,0,0,
,-0.011,-0.408,0.83,392.7,0.671,232.666,0,0,0,
,-0.044,-0.413,0.866,303.405,-22.278,241.333,0,0,0,
,-0.068,-0.384,0.853,259.521,15.625,260.07,0,0,0,
,-0.006,-0.495,0.774,227.783,7.751,234.558,0,0,0,
,0.03,-0.616,0.8,191.345,-46.753,168.945,0,0,0,
,0.045,-0.715,0.851,115.661,-112.183,128.418,0,0,0,
,0.002,-0.665,0.922,-45.96,-126.893,119.384,0,0,0,
,0.004,-0.452,1.005,-155.274,-118.409,131.897,0,0,0,
,0.106,-0.426,0.85,91.919,-68.604,57.006,0,0,0,
,0.177,-0.65,0.981,-7.264,-171.204,-10.987,0,0,0,
,-0.058,-0.288,0.935,-248.841,-58.106,161.438,0,0,0,
,-0.042,-0.105,0.846,-174.134,-51.392,56.762,0,0,0,
,0.08,-0.546,0.853,-29.602,-122.803,-47.974,0,0,0,
,-0.018,-0.591,0.832,-162.415,-99.976,44.189,0,0,0,
,0.008,-0.451,0.989,-297.12,6.042,-83.68,0,0,0,
,-0.019,-0.242,0.982,-179.81,-46.082,-74.769,0,0,0,
,-0.011,-0.451,0.999,-50.049,-69.519,-106.873,0,0,0,
,-0.038,-0.522,0.956,-72.998,-31.739,-84.961,0,0,0,
,0.004,-0.518,0.898,-71.534,-28.443,-104.248,0,0,0,
,-0.078,-0.381,0.891,-153.443,26.123,-57.862,0,0,0,
,-0.05,-0.315,0.866,-183.594,-26.917,-85.206,0,0,0,
,-0.097,-0.373,0.938,-112.61,-0.733,-58.899,0,0,0,
,0.018,-0.669,0.969,55.603,-30.579,-147.156,0,0,0,
,-0.077,-0.556,0.937,-109.009,54.382,-21.119,0,0,0,
,-0.104,-0.236,0.925,-220.154,59.814,-63.355,0,0,0,
,-0.039,-0.515,0.898,-101.441,56.091,-2.747,0,0,0,
,-0.065,-0.33,0.791,-210.511,5.92,12.268,0,0,0,
,-0.122,-0.417,1.018,-248.536,89.172,-89.966,0,0,0,
,-0.029,-0.499,1.041,-248.658,50.964,-123.536,0,0,0,
,-0.13,-0.334,0.62,-698.06,107.788,-58.228,0,0,0,
,-0.077,-0.349,0.997,-322.144,157.959,-163.514,0,0,0,
,0.003,-0.336,0.978,-324.036,83.313,-65.613,0,0,0,
,-0.073,-0.433,0.938,-552.918,81.604,-21.363,0,0,0,
,-0.077,-0.441,1.001,-658.875,150.695,-151.185,0,0,0,
,0.035,-0.278,1.055,-620.301,144.897,-169.251,0,0,0,
,0.043,-0.102,0.932,-579.041,112.915,-106.568,0,0,0,
,-0.045,-0.236,1.025,-418.03,84.716,-131.165,0,0,0,
,-0.015,-0.191,1.066,-162.11,46.02,-94.666,0,0,0,
,-0.032,-0.138,0.941,-405.03,80.261,-133.301,0,0,0,
,-0.065,-0.297,0.947,-459.595,72.082,-171.448,0,0,0,
,-0.05,-0.207,1.008,-585.877,90.515,-172.181,0,0,0,
,0.016,-0.103,0.954,-362.977,71.35,-167.908,0,0,0,
,0.087,0.074,1.026,-452.759,17.517,-156.556,0,0,0,
,-0.012,0.006,0.955,-410.401,-0.855,-222.779,0,0,0,
,-0.051,0.013,1.093,-526.429,1.464,-236.695,0,0,0,
,-0.027,0.099,1.008,-159.119,-20.63,-173.096,0,0,0,
,0.03,0.023,1.013,-5.494,-71.167,-146.912,0,0,0,
,-0.049,-0.152,1.007,-70.313,-48.768,-142.029,0,0,0,
,-0.062,-0.316,0.995,-349.976,-6.226,-207.886,0,0,0,
,0.022,0.07,0.997,-325.013,-33.692,-138.611,0,0,0,
,-0.054,-0.107,0.906,-339.661,-49.744,-208.313,0,0,0,
,-0.062,0.016,0.996,10.192,-54.444,-33.387,0,0,0,
,-0.069,-0.166,0.94,-261.292,-3.602,-136.475,0,0,0,
,-0.04,-0.045,0.968,-436.341,-32.837,-206.91,0,0,0,
,-0.031,0.088,0.957,-512.024,-83.558,-165.467,0,0,0,
,-0.044,0.178,0.998,-205.872,-101.624,-67.627,0,0,0,
,-0.057,0.069,0.973,-132.264,-70.069,-100.586,0,0,0,
,-0.086,-0.067,0.955,-129.273,-87.708,-134.339,0,0,0,
,-0.059,-0.006,0.942,-280.884,-72.51,-214.051,0,0,0,
,-0.051,0.11,0.954,-153.626,-83.863,-160.279,0,0,0,
,-0.083,0.064,0.968,-85.328,-83.069,-171.448,0,0,0,
,-0.086,0.048,0.977,38.024,-68.421,-97.474,0,0,0,
,-0.057,0.011,1.006,74.523,-31.495,-89.783,0,0,0,
,-0.052,-0.02,1.011,82.153,-44.007,-77.942,0,0,0,
,-0.083,-0.045,0.995,53.405,-30.884,-75.684,0,0,0,
,-0.088,-0.022,1.011,71.167,-11.536,-35.157,0,0,0,
,-0.08,-0.012,1.032,45.959,16.235,-42.908,0,0,0,
,-0.068,0.011,1.041,31.86,43.579,-41.138,0,0,0,
,-0.076,-0.01,1.064,79.895,87.402,-30.457,0,0,0,
,-0.103,-0.107,1.04,74.523,160.095,8.728,0,0,0,
,-0.047,-0.188,1.116,50.231,213.195,-22.278,0,0,0,
,0.002,-0.168,1.147,-67.994,234.13,-27.283,0,0,0,
,0.062,-0.166,1.12,-205.384,231.262,-49.317,0,0,0,
,0.104,-0.095,1.09,-309.632,218.872,-3.907,0,0,0,
,0.101,-0.024,1.024,-313.66,202.392,38.391,0,0,0,
,0.082,0.087,0.99,-216.248,24.719,28.259,0,0,0,
,0.066,0.045,1.006,-20.997,-39.124,-27.71,0,0,0,
,-0.007,0.114,0.836,282.409,64.086,205.81,0,0,0,
,0.02,0.111,0.828,599.304,-82.825,79.223,0,0,0,
,-0.02,-0.047,0.824,940.124,-160.523,32.714,0,0,0,
,-0.064,-0.047,0.873,1122.436,-198.853,170.532,0,0,0,
,-0.101,-0.117,0.846,1070.617,-167.908,188.415,0,0,0,
,-0.118,-0.106,0.826,1035.217,-132.569,194.824,0,0,0,
,-0.117,-0.05,0.843,905.883,-91.919,212.585,0,0,0,
,-0.143,-0.075,0.953,895.08,-47.852,172.058,0,0,0,
,-0.148,-0.077,0.983,1030.883,-3.357,189.026,0,0,0,
,-0.116,-0.152,1.029,1094.97,49.804,237.609,0,0,0,
,-0.09,-0.253,1.021,903.686,56.152,246.154,0,0,0,
,-0.091,-0.24,0.982,620.91,108.276,142.761,0,0,0,
,-0.122,-0.202,0.982,358.337,80.383,211.425,0,0,0,
,-0.135,-0.107,1.054,350.769,105.713,222.656,0,0,0,
,-0.106,-0.169,1.048,449.89,79.284,143.737,0,0,0,
,-0.091,-0.227,1.012,496.704,26.489,184.875,0,0,0,
,-0.102,-0.282,0.916,497.07,10.192,211.242,0,0,0,
,-0.086,-0.336,0.964,410.461,15.747,234.436,0,0,0,
,-0.035,-0.382,0.959,313.72,-19.654,265.258,0,0,0,
,-0.023,-0.319,0.997,268.066,-55.298,285.522,0,0,0,
,-0.041,-0.313,0.993,302.917,-85.267,267.273,0,0,0,
,-0.042,-0.432,0.964,321.167,-96.009,235.351,0,0,0,
,-0.038,-0.498,0.93,238.769,-88.196,247.131,0,0,0,
,-0.018,-0.484,0.876,102.05,-110.047,230.651,0,0,0,
,0.01,-0.455,0.887,96.618,-141.785,224.121,0,0,0,
,0.006,-0.405,0.895,119.14,-156.983,249.694,0,0,0,
,-0.029,-0.443,0.866,109.497,-158.814,228.698,0,0,0,
,-0.035,-0.583,0.821,-26.429,-140.992,159.423,0,0,0,
,-0.001,-0.594,0.731,-128.907,-114.502,150.146,0,0,0,
,0.12,-0.735,0.807,-165.162,-162.842,9.887,0,0,0,
,0.244,-0.958,0.922,16.296,-104.676,-81.177,0,0,0,
,0.079,-0.506,1.122,-193.787,-46.631,94.97,0,0,0,
,-0.114,0.081,1.029,-116.456,-75.135,150.085,0,0,0,
,0.094,-0.566,0.946,-14.527,-86.365,-85.389,0,0,0,
,0.071,-0.554,0.827,-135.376,-81.177,-28.016,0,0,0,
,-0.006,-0.48,0.814,-206.421,-50.171,-27.588,0,0,0,
,0.018,-0.505,0.915,-229.432,-19.349,-82.947,0,0,0,
,0.006,-0.406,1.008,-248.291,4.943,-64.637,0,0,0,
,0.002,-0.371,1.012,-124.207,-10.193,-83.13,0,0,0,
,-0.091,-0.307,0.994,-299.378,-18.921,-29.175,0,0,0,
,-0.002,-0.594,0.989,1.098,-23.621,-171.326,0,0,0,
,-0.034,-0.446,0.93,-161.438,42.419,-46.021,0,0,0,
,-0.069,-0.332,0.907,-71.473,38.696,-103.882,0,0,0,
,-0.061,-0.442,0.903,-89.417,34.79,-93.384,0,0,0,
,-0.058,-0.393,0.921,-180.42,46.936,-104.248,0,0,0,
,-0.083,-0.361,0.891,-340.088,85.998,-130.738,0,0,0,
,-0.014,-0.383,0.861,-297.791,-13.794,-131.714,0,0,0,
,-0.041,-0.441,0.879,-454.163,44.799,-162.659,0,0,0,
,-0.051,-0.343,0.921,-457.337,15.502,-116.089,0,0,0,
,-0.042,-0.337,0.991,-410.279,28.93,-143.433,0,0,0,
,0.005,-0.332,1.002,-257.081,16.174,-170.838,0,0,0,
,-0.082,-0.174,0.978,-384.217,40.832,-94.971,0,0,0,
,-0.077,-0.178,0.953,-445.557,16.418,-168.03,0,0,0,
,0.013,-0.342,1.046,-363.099,19.592,-234.192,0,0,0,
,-0.026,-0.189,0.966,-389.954,56.579,-142.212,0,0,0,
,-0.061,-0.156,0.973,-330.689,16.235,-164.917,0,0,0,
,-0.054,-0.2,1,-382.508,62.072,-211.914,0,0,0,
,0.002,-0.063,1.03,-412.842,35.4,-232.239,0,0,0,
,-0.011,-0.046,1.05,-616.15,52.368,-307.679,0,0,0,
,0.028,0.096,1.082,-491.761,2.502,-291.504,0,0,0,
,-0.161,-0.046,1.14,-1040.284,82.58,-307.496,0,0,0,
,-0.116,0.049,1.236,-414.063,-50.843,-395.264,0,0,0,
,-0.041,0.01,1.075,-409.363,-36.072,-336.121,0,0,0,
,-0.07,0.105,0.971,-92.102,-93.75,-282.715,0,0,0,
,-0.164,0.007,1.107,71.777,-118.103,-249.207,0,0,0,
,-0.292,-0.439,1.157,-168.457,-61.158,-366.394,0,0,0,
,-0.156,-0.343,1.062,-57.801,-8.667,-226.502,0,0,0,
,-0.151,-0.424,0.934,-122.437,68.725,-237.793,0,0,0,
,-0.115,-0.378,0.925,-41.382,86.975,-115.906,0,0,0,
,-0.058,-0.348,0.93,-159.363,149.475,-128.663,0,0,0,
,-0.026,-0.289,0.917,-383.423,153.381,-151.49,0,0,0,
,0.01,-0.071,0.914,-429.505,116.333,-134.339,0,0,0,
,-0.001,0.003,0.955,-301.026,110.412,-118.714,0,0,0,
,0.011,0.014,0.877,-212.098,128.662,-109.742,0,0,0,
,0.001,-0.017,0.934,-126.587,66.528,-120.789,0,0,0,
,-0.059,-0.077,0.976,-141.968,42.724,-134.766,0,0,0,
,-0.024,0.031,1.007,-168.091,40.649,-115.54,0,0,0,
,-0.037,-0.044,1.057,-169.8,36.01,-143.921,0,0,0,
,-0.085,-0.021,0.984,-215.21,66.65,-172.608,0,0,0,
,-0.098,0.083,1.016,-198.243,68.908,-155.701,0,0,0,
,0.025,0.178,1.008,-178.467,42.114,-165.101,0,0,0,
,-0.003,0.021,0.989,-135.193,46.142,-185.181,0,0,0,
,0.03,0.163,0.949,-36.56,28.747,-159.119,0,0,0,
,-0.03,0.032,0.933,-6.836,44.921,-149.109,0,0,0,
,0,0.044,1.038,-97.107,49.133,-168.152,0,0,0,
,-0.088,-0.03,1.083,-227.662,76.049,-205.445,0,0,0,
,-0.013,0.136,0.928,-288.575,136.108,-176.331,0,0,0,
,0.044,0.198,1.066,-193.604,107.299,-156.25,0,0,0,
,0.067,0.102,0.979,-186.585,108.581,-165.894,0,0,0,
,-0.035,0.151,1.035,-67.2,143.066,-136.658,0,0,0,
,0.079,0.157,1,-13.794,190.979,-68.848,0,0,0,
,-0.031,-0.059,1.033,-25.025,201.904,-57.923,0,0,0,
,0.134,0.044,1.026,-41.81,295.349,-25.269,0,0,0,
,0.031,-0.002,1.069,55.725,352.172,57.373,0,0,0,
,0.068,-0.052,1.175,-1.648,405.7,55.175,0,0,0,
,0.097,-0.073,1.192,-50.049,477.111,99.67,0,0,0,
,0.125,-0.108,1.101,-74.891,517.028,136.963,0,0,0,
,0.236,-0.11,1.021,-202.027,479.919,104.004,0,0,0,
,0.287,-0.094,0.972,-302.002,439.636,101.44,0,0,0,
,0.284,0.058,0.987,8.361,275.634,154.48,0,0,0,
,0.257,0.017,0.965,442.443,234.13,172.851,0,0,0,
,0.257,0.057,0.851,730.346,227.844,359.985,0,0,0,
,0.253,0.015,0.85,963.562,35.766,241.638,0,0,0,
,0.182,0.009,0.869,1180.236,-125.245,260.376,0,0,0,
,0.117,0.057,0.814,1370.117,-201.539,309.204,0,0,0,
,0.089,0.124,0.709,1473.693,-286.011,278.137,0,0,0,
,-0.005,0.048,0.681,1519.348,-388.672,123.535,0,0,0,
,-0.114,-0.055,0.755,1918.518,-369.019,84.167,0,0,0,
,-0.111,-0.131,0.849,1999.694,-259.766,305.908,0,0,0,
,-0.011,-0.228,0.841,1999.694,-98.511,313.11,0,0,0,
,0.117,-0.606,1.049,1828.003,-143.128,257.446,0,0,0,
,0.137,-0.833,1.1,1174.926,-233.582,245.3,0,0,0,
,0.029,-0.411,1.088,919.433,-145.264,344.604,0,0,0,
,-0.07,-0.072,0.996,1003.234,-57.373,355.285,0,0,0,
,-0.031,-0.473,0.907,975.647,-29.297,226.257,0,0,0,
,0.09,-0.589,0.767,357.422,-28.748,276.794,0,0,0,
,0.097,-0.47,0.822,211.059,-121.949,285.705,0,0,0,
,0.082,-0.5,0.889,247.253,-193.299,268.371,0,0,0,
,0.063,-0.624,0.93,261.535,-168.58,265.991,0,0,0,
,0.079,-0.617,0.811,181.335,-144.593,265.38,0,0,0,
,0.134,-0.615,0.74,64.392,-182.618,258.484,0,0,0,
,0.168,-0.692,0.817,-3.357,-248.536,264.404,0,0,0,
,0.134,-0.601,0.656,228.027,-195.496,273.132,0,0,0,
,0.161,-0.67,0.622,416.809,-148.865,236.633,0,0,0,
,0.238,-1.02,0.674,56.03,-175.171,103.454,0,0,0,
,0.238,-0.821,0.789,-236.634,-167.603,126.159,0,0,0,
,0.116,-0.421,0.831,-254.944,-153.26,169.006,0,0,0,
,0.001,-0.365,0.876,-260.193,-188.599,171.325,0,0,0,
,0.048,-0.295,0.816,-157.105,-233.338,210.693,0,0,0,
,-0.023,-0.481,0.727,-226.136,-222.535,231.14,0,0,0,
,0.363,-1.064,0.787,-46.204,-298.096,-48.829,0,0,0,
,0.207,-1.354,0.83,-228.516,-185.914,-34.119,0,0,0,
,-0.009,-0.237,0.613,-403.504,16.906,33.63,0,0,0,
,0.1,-0.369,0.934,-250.672,-150.208,-76.539,0,0,0,
,0.161,-0.49,0.919,-218.201,-144.165,-39.734,0,0,0,
,0.324,-0.683,0.824,-180.359,-145.569,-81.299,0,0,0,
,0.262,-0.665,0.782,-296.387,-54.322,-88.746,0,0,0,
,0.149,-0.59,0.913,-351.197,-12.207,-116.028,0,0,0,
,0.149,-0.36,0.999,-386.719,4.76,-137.513,0,0,0,
,0.031,-0.484,0.901,-434.876,27.71,-177.918,0,0,0,
,0.149,-0.622,0.945,-230.957,18.493,-195.801,0,0,0,
,0.064,-0.556,0.918,-305.848,41.503,-130.86,0,0,0,
,0.037,-0.444,0.843,-300.232,58.471,-186.524,0,0,0,
,0.075,-0.547,0.896,-293.03,39.794,-175.538,0,0,0,
,0.06,-0.46,0.898,-335.877,79.223,-187.623,0,0,0,
,0.105,-0.49,0.923,-300.415,74.951,-216.675,0,0,0,
,0.05,-0.402,0.992,-366.456,102.6,-181.702,0,0,0,
,0.091,-0.414,0.921,-337.647,56.945,-236.878,0,0,0,
,-0.032,-0.48,0.749,-693.726,128.173,-228.211,0,0,0,
,0.178,-0.509,1.005,-356.69,31.066,-285.889,0,0,0,
,0.034,-0.444,1.001,-524.17,114.502,-156.128,0,0,0,
,0.041,-0.356,1.039,-555.176,104.797,-298.951,0,0,0,
,0.045,-0.279,0.932,-704.895,128.601,-231.812,0,0,0,
,0.049,-0.405,0.933,-788.697,157.409,-357.3,0,0,0,
,0.242,-0.183,1.061,-310.12,87.402,-266.724,0,0,0,
,0.062,-0.196,0.988,-93.995,54.565,-97.718,0,0,0,
,-0.036,-0.306,0.969,-174.622,65.856,-163.819,0,0,0,
,0.082,-0.341,1.034,-136.414,72.082,-253.785,0,0,0,
,0.048,-0.401,0.948,-522.706,162.963,-235.779,0,0,0,
,0.066,-0.351,0.975,-536.744,151.306,-245.057,0,0,0,
,0.14,-0.113,0.985,-304.688,108.52,-182.312,0,0,0,
,0.136,-0.113,1.01,-115.418,60.791,-167.481,0,0,0,
,0.088,-0.237,1.05,-47.791,50.109,-182.618,0,0,0,
,0.077,-0.318,1.04,-193.238,97.717,-194.764,0,0,0,
,0.06,-0.254,0.95,-360.047,137.268,-183.167,0,0,0,
,0.01,-0.158,0.824,-572.632,161.01,-202.027,0,0,0,
,-0.006,-0.407,0.875,-802.552,141.784,-335.999,0,0,0,
,0.223,0.013,1.04,-386.292,60.73,-173.89,0,0,0,
,0.169,-0.106,0.845,-393.25,66.406,-189.026,0,0,0,
,0.201,-0.143,1.072,-176.331,-32.715,-188.599,0,0,0,
,0.176,-0.08,0.901,-332.703,43.151,-152.283,0,0,0,
,0.124,-0.151,0.913,-385.743,-31.434,-223.023,0,0,0,
,0.071,-0.074,0.957,-421.387,-20.508,-144.227,0,0,0,
,0.205,0.246,1.162,-377.503,-128.724,-79.651,0,0,0,
,0.226,0.349,0.951,-203.064,-67.749,-51.697,0,0,0,
,-0.009,-0.214,0.974,-77.088,-124.634,-199.036,0,0,0,
,0.076,-0.072,1.025,-278.138,-64.393,-109.07,0,0,0,
,0.116,0.102,0.995,-627.564,-57.251,-234.864,0,0,0,
,0.027,0.05,1.088,-645.325,-109.498,-229.981,0,0,0,
,0.133,0.596,1.11,-246.399,-86.365,-42.42,0,0,0,
,0.02,0.044,1.015,-190.064,-63.904,-317.933,0,0,0,
,-0.046,-0.128,1.054,-81.36,-55.542,-159.424,0,0,0,
,-0.032,-0.262,1.006,-438.66,-12.513,-285.767,0,0,0,
,0.113,0.216,1.025,-329.895,19.47,-104.798,0,0,0,
,0.054,0.13,0.859,-274.17,21.057,-207.215,0,0,0,
,0.106,0.29,0.856,-134.583,-1.587,-135.376,0,0,0,
,0.1,0.244,0.956,64.88,-48.645,-118.775,0,0,0,
,0.117,0.035,1.063,123.718,-50.293,-164.734,0,0,0,
,0.09,-0.044,0.986,31.677,-29.053,-106.873,0,0,0,
,0.077,0.08,0.995,-19.288,-1.343,-73.67,0,0,0,
,0.045,0.102,0.843,86.486,40.283,-57.129,0,0,0,
,0.207,0.2,0.932,221.801,44.006,22.399,0,0,0,
,0.052,0.025,0.862,355.468,88.684,27.343,0,0,0,
,0.152,0.037,1.141,402.038,120.971,81.298,0,0,0,
,0.11,-0.055,1.232,291.565,123.718,38.696,0,0,0,
,0.067,-0.105,1.191,222.534,156.372,67.81,0,0,0,
,0.104,-0.168,1.103,172.241,216.43,30.273,0,0,0,
,0.16,-0.161,1.047,118.469,273.864,153.991,0,0,0,
,0.185,-0.141,0.993,27.099,275.39,133.117,0,0,0,
,0.225,-0.006,0.843,5.493,213.317,156.25,0,0,0,
,0.258,0.166,0.814,27.648,20.813,96.008,0,0,0,
,0.231,0.133,0.911,462.768,-191.346,29.785,0,0,0,
,0.135,0.061,0.968,1083.862,-265.015,122.558,0,0,0,
,0.082,-0.126,0.914,1474.853,-279.419,210.205,0,0,0,
,0.069,-0.255,0.875,1548.645,-294.678,219.421,0,0,0,
,0.029,-0.252,0.832,1500.488,-264.893,294.006,0,0,0,
,0.032,-0.194,0.785,1320.129,-220.581,310.302,0,0,0,
,0.002,-0.188,0.877,1168.213,-178.589,235.473,0,0,0,
,-0.04,-0.162,0.986,1131.775,-116.211,269.226,0,0,0,
,-0.052,-0.094,1.029,1196.289,10.986,347.961,0,0,0,
,-0.04,-0.115,0.959,1242.004,109.924,336.792,0,0,0,
,-0.004,-0.106,0.906,1263.427,103.881,361.877,0,0,0,
,0.025,-0.398,0.976,1150.573,3.173,299.621,0,0,0,
,0.019,-0.479,1.021,1054.443,-55.787,278.137,0,0,0,
,-0.018,-0.396,0.951,943.542,-57.679,323.791,0,0,0,
,-0.055,-0.568,0.908,783.325,-51.148,307.19,0,0,0,
,0,-0.684,0.876,441.528,-37.11,196.96,0,0,0,
,0.042,-0.809,0.913,205.688,-92.041,89.294,0,0,0,
,0.08,-0.71,0.874,39.428,-91.736,67.504,0,0,0,
,0.093,-0.583,0.833,73.913,-113.831,50.354,0,0,0,
,0.129,-0.531,0.811,191.223,-157.837,44.25,0,0,0,
,0.104,-0.561,0.824,245.361,-202.881,48.034,0,0,0,
,0.075,-0.61,0.899,165.954,-227.845,59.997,0,0,0,
,0.051,-0.556,0.854,52.856,-147.034,73.913,0,0,0,
,0.057,-0.474,0.835,90.026,-126.404,78.43,0,0,0,
,0.05,-0.484,0.818,149.719,-96.741,134.521,0,0,0,
,0.057,-0.546,0.78,181.213,-98.145,154.541,0,0,0,
,0.059,-0.602,0.771,197.265,-83.741,197.754,0,0,0,
,0.104,-0.633,0.77,217.407,-91.065,219.055,0,0,0,
,0.088,-0.648,0.759,219.116,-81.299,256.286,0,0,0,
,0.094,-0.638,0.669,257.934,-19.41,275.94,0,0,0,
,0.166,-0.644,0.597,278.198,16.296,247.192,0,0,0,
,0.178,-0.733,0.584,189.819,70.556,246.826,0,0,0,
,0.208,-0.653,0.545,71.716,83.862,262.024,0,0,0,
,0.192,-0.694,0.711,-254.151,-21.79,173.523,0,0,0,
,0.194,-1.193,1.01,-438.965,-99.854,-141.236,0,0,0,
,0.165,-0.675,0.903,-327.027,-44.129,37.536,0,0,0,
,0.067,-0.406,0.773,-211.487,-103.76,23.193,0,0,0,
,0.204,-0.501,0.833,-18.982,-194.703,26.672,0,0,0,
,0.105,-0.772,0.843,-24.842,-142.334,25.695,0,0,0,
,0.162,-0.661,0.895,-230.53,-103.516,-13.123,0,0,0,
,0.211,-0.5,0.86,-234.864,-52.613,-22.583,0,0,0,
,0.156,-0.556,0.875,-226.258,-23.438,-51.758,0,0,0,
,0.186,-0.544,0.786,-239.93,-5.127,-108.277,0,0,0,
,0.139,-0.564,0.864,-283.936,25.878,-77.027,0,0,0,
,0.125,-0.509,0.883,-362.183,44.616,-149.964,0,0,0,
,0.19,-0.566,0.914,-289.368,33.203,-151.673,0,0,0,
,0.14,-0.563,0.865,-256.592,52.185,-131.775,0,0,0,
,0.084,-0.573,0.856,-275.086,71.716,-125.916,0,0,0,
,0.062,-0.515,0.901,-413.575,101.196,-169.312,0,0,0,
,0.11,-0.5,0.864,-380.127,77.575,-207.154,0,0,0,
,0.088,-0.517,0.842,-358.155,80.871,-189.209,0,0,0,
,0.073,-0.514,0.782,-497.01,101.44,-207.459,0,0,0,
,0.104,-0.527,0.86,-496.827,90.515,-230.225,0,0,0,
,0.08,-0.446,0.91,-539.978,118.591,-227.906,0,0,0,
,0.091,-0.263,0.967,-367.798,101.318,-243.714,0,0,0,
,0.075,-0.409,0.998,-329.468,91.735,-276.062,0,0,0,
,0.065,-0.573,0.971,-512.513,127.929,-296.692,0,0,0,
,0.115,-0.529,0.902,-571.717,156.86,-315.43,0,0,0,
,0.107,-0.258,0.851,-503.235,163.147,-212.647,0,0,0,
,0.079,-0.281,0.971,-422.486,118.53,-263.123,0,0,0,
,0.118,-0.378,1.093,-178.772,70.007,-258.667,0,0,0,
,0.05,-0.408,0.922,-163.025,126.526,-176.026,0,0,0,
,0.1,-0.373,0.978,-321.228,140.197,-260.193,0,0,0,
,0.1,-0.295,0.977,-330.933,128.967,-216.004,0,0,0,
,0.117,-0.234,0.9,-265.809,128.723,-206.421,0,0,0,
,0.131,-0.304,0.952,-225.342,97.534,-219.605,0,0,0,
,0.107,-0.331,0.959,-210.877,100.097,-197.449,0,0,0,
,0.096,-0.356,0.961,-146.668,98.327,-162.354,0,0,0,
,0.099,-0.4,0.911,-245.606,117.492,-172.608,0,0,0,
,0.126,-0.335,0.916,-393.921,120.422,-179.627,0,0,0,
,0.152,-0.172,0.919,-406.739,99.243,-163.758,0,0,0,
,0.146,-0.041,0.979,-211.853,58.044,-147.461,0,0,0,
,0.129,-0.145,0.995,-96.741,37.658,-171.326,0,0,0,
,0.074,-0.411,0.969,-7.691,36.499,-176.758,0,0,0,
,0.109,-0.36,0.961,-158.02,70.068,-136.658,0,0,0,
,0.148,-0.225,0.941,-323.365,58.776,-166.687,0,0,0,
,0.149,-0.178,0.987,-177.308,25.39,-145.569,0,0,0,
,0.128,-0.16,0.991,-49.805,31.86,-98.572,0,0,0,
,0.085,-0.273,1.015,-48.584,34.179,-147.461,0,0,0,
,0.096,-0.289,0.978,-183.472,58.532,-140.259,0,0,0,
,0.115,-0.178,0.966,-331.177,53.283,-134.583,0,0,0,
,0.07,-0.219,0.936,-557.923,54.504,-179.993,0,0,0,
,0.125,-0.115,1.036,-416.565,21.85,-140.992,0,0,0,
,0.16,-0.056,0.97,-338.929,47.668,-118.897,0,0,0,
,0.113,-0.242,0.975,-244.568,35.644,-165.406,0,0,0,
,0.175,-0.139,1.032,-123.963,24.78,-85.511,0,0,0,
,0.147,-0.172,0.947,-344.91,55.053,-148.194,0,0,0,
,0.105,-0.104,0.98,-581.665,36.865,-184.449,0,0,0,
,0.025,-0.087,0.81,-1042.603,72.57,-275.635,0,0,0,
,-0.002,-0.089,0.917,-1247.803,49.438,-370.667,0,0,0,
,0.335,0.371,1.205,-657.044,-105.042,-138.184,0,0,0,
,0.204,0.273,0.99,-464.783,1.281,-173.768,0,0,0,
,0.083,-0.25,1.038,-171.753,-30.518,-181.031,0,0,0,
,0.239,0.057,0.912,-113.587,7.873,-97.107,0,0,0,
,0.157,-0.072,0.964,22.155,-16.663,-112.732,0,0,0,
,0.135,0.026,0.992,265.747,67.26,-27.527,0,0,0,
,0.14,0.055,1.049,342.468,94.97,27.282,0,0,0,
,0.13,-0.007,1.157,367.859,128.112,24.353,0,0,0,
,0.099,-0.236,1.199,244.384,182.312,-1.587,0,0,0,
,0.149,-0.31,1.127,7.141,233.154,-15.015,0,0,0,
,0.174,-0.301,0.983,-245.423,265.747,11.657,0,0,0,
,0.179,-0.18,0.874,-277.649,269.958,96.679,0,0,0,
,0.171,-0.054,0.857,-241.272,256.652,122.863,0,0,0,
,0.231,0.001,0.862,-16.175,185.791,124.023,0,0,0,
,0.305,0.065,0.884,215.332,47.851,88.989,0,0,0,
,0.252,0.153,0.786,660.095,8.606,168.884,0,0,0,
,0.233,0.09,0.87,1167.48,-177.369,126.037,0,0,0,
,0.21,-0.078,0.853,1485.351,-285.889,86.059,0,0,0,
,0.242,-0.204,0.848,1638.733,-408.387,169.677,0,0,0,
,0.246,-0.209,0.866,1800.964,-530.701,175.781,0,0,0,
,0.172,-0.249,0.873,1972.046,-605.164,155.639,0,0,0,
,0.114,-0.352,0.852,1999.694,-626.831,203.491,0,0,0,
,0.052,-0.5,0.943,1976.989,-608.765,222.717,0,0,0,
,-0.037,-0.639,1.015,1626.22,-503.785,217.834,0,0,0,
,-0.144,-0.343,0.986,295.166,38.513,100.647,0,0,0,
,-0.086,-0.299,0.851,308.715,58.96,43.151,0,0,0,
,-0.039,-0.369,0.878,358.825,17.578,100.097,0,0,0,
,-0.036,-0.542,0.901,324.096,-45.411,162.78,0,0,0,
,-0.04,-0.541,0.901,214.233,-65.369,206.787,0,0,0,
,0.038,-0.518,0.78,235.107,-67.261,227.722,0,0,0,
,0.07,-0.574,0.777,279.785,-88.013,267.395,0,0,0,
,0.071,-0.651,0.765,266.174,-109.803,302.551,0,0,0,
,0.099,-0.62,0.777,203.857,-84.656,292.358,0,0,0,
,0.135,-0.619,0.759,259.826,-124.817,269.348,0,0,0,
,0.15,-0.668,0.753,301.025,-140.686,259.338,0,0,0,
,0.241,-0.741,0.682,208.13,-161.988,276.733,0,0,0,
,0.254,-0.68,0.679,229.248,-157.105,299.743,0,0,0,
,0.174,-0.584,0.665,205.078,-160.34,278.869,0,0,0,
,0.161,-0.813,0.722,47.058,-151.123,156.189,0,0,0,
,0.146,-0.769,0.773,-157.532,-101.807,144.104,0,0,0,
,0.131,-0.731,0.78,-269.715,-91.675,70.556,0,0,0,
,0.084,-0.626,0.836,-295.533,-90.394,75.317,0,0,0,
,0.09,-0.627,0.859,-197.571,-54.871,41.565,0,0,0,
,0.116,-0.681,0.855,-256.348,-0.428,30.212,0,0,0,
,0.04,-0.671,0.737,-381.226,34.362,-26.49,0,0,0,
,0.118,-0.665,0.785,-306.275,15.258,-34.852,0,0,0,
,0.088,-0.677,0.836,-300.354,2.624,-20.569,0,0,0,
,0.097,-0.676,0.88,-306.092,-11.414,-23.194,0,0,0,
,0.111,-0.645,0.902,-254.944,-16.724,-24.17,0,0,0,
,0.278,-0.711,0.82,-179.261,-102.784,-19.776,0,0,0,
,0.15,-0.519,0.818,-211.182,-8.118,50.415,0,0,0,
,0.196,-0.566,0.798,-245.545,-1.404,-29.297,0,0,0,
,0.263,-0.547,0.835,-190.369,39.428,-11.048,0,0,0,
,0.118,-0.526,0.874,-220.093,56.03,-3.602,0,0,0,
,0.137,-0.575,0.875,-296.998,72.998,-85.144,0,0,0,
,0.199,-0.505,0.807,-312.928,85.754,-108.155,0,0,0,
,0.183,-0.476,0.811,-279.114,94.787,-108.704,0,0,0,
,0.147,-0.532,0.82,-284.668,69.58,-110.657,0,0,0,
,0.154,-0.461,0.847,-392.884,93.75,-148.865,0,0,0,
,0.125,-0.431,0.915,-395.508,101.135,-182.312,0,0,0,
,0.123,-0.446,0.934,-354.676,85.449,-206.788,0,0,0,
,0.124,-0.437,0.866,-256.958,71.106,-186.097,0,0,0,
,0.111,-0.474,0.807,-183.167,40.527,-174.439,0,0,0,
,0.135,-0.506,0.859,-247.071,29.846,-189.454,0,0,0,
,0.107,-0.423,0.935,-326.722,50.72,-198.304,0,0,0,
,0.101,-0.421,0.966,-315.613,44.616,-213.257,0,0,0,
,0.086,-0.389,0.925,-353.028,77.026,-212.647,0,0,0,
,0.128,-0.437,0.955,-252.991,37.719,-202.576,0,0,0,
,0.077,-0.422,0.934,-290.223,60.974,-152.466,0,0,0,
,0.095,-0.414,0.997,-300.843,62.439,-225.098,0,0,0,
,0.147,-0.328,0.939,-234.498,65.918,-185.242,0,0,0,
,0.126,-0.333,0.951,-121.766,58.96,-175.904,0,0,0,
,0.088,-0.408,0.923,-68.482,54.931,-152.71,0,0,0,
,0.09,-0.523,0.91,-260.01,74.401,-172.791,0,0,0,
,0.108,-0.399,0.875,-218.567,89.782,-146.424,0,0,0,
,0.144,-0.412,0.991,-301.026,81.97,-188.782,0,0,0,
,0.146,-0.17,0.975,-31.922,76.721,-104.004,0,0,0,
,0.069,-0.309,0.905,62.744,57.983,-106.568,0,0,0,
,0.109,-0.439,0.908,47.729,58.898,-142.64,0,0,0,
,0.133,-0.418,0.945,-43.152,72.692,-119.019,0,0,0,
,0.127,-0.323,0.944,-64.759,83.374,-114.808,0,0,0,
,0.105,-0.293,0.906,1.586,78.613,-120.85,0,0,0,
,0.118,-0.321,0.908,61.706,58.166,-122.254,0,0,0,
,0.124,-0.392,0.864,30.029,56.03,-140.748,0,0,0,
,0.132,-0.421,0.879,-91.004,36.377,-138.367,0,0,0,
,0.08,-0.446,0.891,-442.444,77.941,-190.125,0,0,0,
,0.185,-0.259,1.048,-209.412,40.71,-162.11,0,0,0,
,0.166,-0.181,0.915,-19.532,59.204,-96.802,0,0,0,
,0.117,-0.332,0.918,66.955,18.371,-164.612,0,0,0,
,0.107,-0.432,0.973,-28.26,35.339,-174.195,0,0,0,
,0.1,-0.435,0.936,-173.829,60.913,-174.866,0,0,0,
,0.102,-0.346,0.917,-311.829,75.561,-177.002,0,0,0,
,0.081,-0.282,0.846,-447.693,75.805,-189.698,0,0,0,
,0.047,-0.539,0.996,-872.254,104.37,-277.894,0,0,0,
,0.256,0.094,1.021,-126.099,27.526,-104.371,0,0,0,
,0.089,-0.218,0.927,-99.732,-13.062,-188.111,0,0,0,
,0.049,-0.364,0.943,-390.748,55.114,-196.961,0,0,0,
,0.034,-0.317,0.892,-597.657,71.96,-213.196,0,0,0,
,0.183,-0.134,1.103,-400.574,5.31,-175.538,0,0,0,
,0.179,0.132,0.999,-262.574,24.902,-70.862,0,0,0,
,0.046,-0.084,0.92,-146.729,6.408,-172.364,0,0,0,
,0.023,-0.163,0.857,-463.562,48.034,-225.708,0,0,0,
,0.133,-0.139,0.999,-679.627,-12.818,-320.13,0,0,0,
,0.182,0.073,1.006,-488.465,-66.59,-196.9,0,0,0,
,0.188,0.164,1.009,104.736,-108.277,-74.646,0,0,0,
,0.026,-0.266,0.95,-44.983,-77.149,-173.829,0,0,0,
,0.036,-0.453,0.933,-406.006,-75.745,-286.133,0,0,0,
,0.062,-0.121,0.966,-389.466,-63.782,-147.767,0,0,0,
,0.073,-0.155,1.034,-437.623,-77.149,-216.187,0,0,0,
,0.191,0.208,1.113,66.772,-56.275,25.634,0,0,0,
,0.034,-0.259,0.938,109.924,-41.748,-122.193,0,0,0,
,0.096,-0.219,0.97,99.06,-39.185,-26.551,0,0,0,
,0.116,-0.136,0.959,51.513,-38.819,-50.11,0,0,0,
,0.09,-0.077,0.996,79.895,-21.546,-34.424,0,0,0,
,0.086,-0.057,1.044,149.902,-4.883,-22.767,0,0,0,
,0.064,-0.149,1.046,258.667,42.419,-2.625,0,0,0,
,0.056,-0.207,1.093,364.685,99.975,20.568,0,0,0,
,0.059,-0.316,1.088,368.103,161.071,29.235,0,0,0,
,0.085,-0.32,1.011,254.211,178.772,13,0,0,0,
,0.145,-0.255,0.931,165.771,170.349,33.142,0,0,0,
,0.181,-0.177,0.915,119.506,141.418,44.372,0,0,0,
,0.17,-0.2,0.955,165.771,106.75,52.185,0,0,0,
,0.172,-0.233,0.986,115.783,118.652,57.495,0,0,0,
,0.202,-0.209,1.001,25.634,116.333,56.274,0,0,0,
,0.211,-0.213,0.996,17.456,98.938,68.542,0,0,0,
,0.159,-0.215,0.845,156.128,65.673,65.49,0,0,0,
,0.188,-0.444,0.999,169.86,-107.85,-39.002,0,0,0,
,0.19,-0.308,0.958,154.968,-131.348,41.809,0,0,0,
,0.171,-0.096,0.902,354.37,-226.746,3.723,0,0,0,
,0.061,-0.146,0.832,830.566,-363.587,-97.107,0,0,0,
,-0.031,-0.285,0.826,1315.49,-413.269,-42.42,0,0,0,
,-0.031,-0.382,0.848,1484.008,-382.752,42.846,0,0,0,
,0.002,-0.389,0.905,1431.396,-305.176,85.144,0,0,0,
,-0.001,-0.328,0.985,1390.075,-209.412,132.202,0,0,0,
,-0.036,-0.34,0.947,1361.145,-140.87,223.51,0,0,0,
,-0.038,-0.387,0.951,1259.399,-148.255,289.55,0,0,0,
,-0.046,-0.464,0.961,1020.019,-102.478,292.358,0,0,0,
,-0.042,-0.494,0.938,790.893,-66.834,310.18,0,0,0,
,-0.052,-0.503,0.957,600.28,-26.307,314.026,0,0,0,
,-0.035,-0.483,0.924,457.885,-24.292,326.599,0,0,0,
,-0.018,-0.476,0.966,377.136,-45.716,317.749,0,0,0,
,0.002,-0.517,0.839,328.918,-69.642,321.777,0,0,0,
,0.035,-0.608,0.853,275.024,-80.079,347.656,0,0,0,
,0.076,-0.625,0.827,191.284,-95.276,361.389,0,0,0,
,0.11,-0.58,0.803,150.451,-132.203,363.403,0,0,0,
,0.123,-0.598,0.776,153.137,-173.34,352.905,0,0,0,
,0.12,-0.67,0.78,141.174,-210.511,315.246,0,0,0,
,0.113,-0.726,0.798,26.977,-223.45,291.381,0,0,0,
,0.131,-0.643,0.784,-48.523,-220.887,266.479,0,0,0,
,0.072,-0.8,0.773,-143.677,-185.669,132.202,0,0,0,
,0.164,-0.835,0.781,-210.938,-196.167,78.43,0,0,0,
,0.167,-0.641,0.797,-210.877,-193.909,121.582,0,0,0,
,0.145,-0.499,0.776,-70.008,-208.435,134.033,0,0,0,
,0.125,-0.549,0.779,42.785,-212.708,145.568,0,0,0,
,0.097,-0.592,0.764,50.537,-171.631,171.508,0,0,0,
,0.086,-0.525,0.71,-30.213,-107.483,191.65,0,0,0,
,0.121,-0.445,0.56,-65.064,83.618,312.133,0,0,0,
,0.211,-0.791,0.663,-378.296,25.329,112.426,0,0,0,
,0.265,-1.446,1.096,-588.685,-26.001,-260.315,0,0,0,
,0.282,-0.537,1.021,-510.804,66.955,65.551,0,0,0,
,0.026,-0.337,0.979,-163.941,-5.31,5.554,0,0,0,
,0.074,-0.513,0.937,-56.275,-64.087,-4.029,0,0,0,
,0.061,-0.594,0.883,-142.823,-54.505,-48.096,0,0,0,
,0.156,-0.494,0.813,-177.063,-69.581,-79.529,0,0,0,
,0.158,-0.58,0.768,-212.037,-70.008,-73.731,0,0,0,
,0.147,-0.591,0.838,-244.507,-48.829,-54.871,0,0,0,
,0.148,-0.446,0.895,-272.583,-75.135,-46.753,0,0,0,
,0.105,-0.457,0.936,-192.017,-48.401,-49.012,0,0,0,
,0.116,-0.558,0.971,-174.805,-34.729,-79.346,0,0,0,
,0.158,-0.547,0.886,-127.808,-13.428,-73.731,0,0,0,
,0.104,-0.506,0.894,-141.114,7.385,-66.407,0,0,0,
,0.126,-0.498,0.9,-147.583,16.296,-98.938,0,0,0,
,0.116,-0.481,0.886,-141.663,43.09,-90.027,0,0,0,
,0.108,-0.521,0.912,-126.893,52.185,-101.502,0,0,0,
,0.09,-0.52,0.901,-165.406,62.561,-116.333,0,0,0,
,0.107,-0.463,0.861,-168.152,66.223,-120.545,0,0,0,
,0.116,-0.504,0.806,-210.999,64.575,-138.428,0,0,0,
,0.104,-0.483,0.866,-148.499,58.41,-97.352,0,0,0,
,0.067,-0.464,0.914,-170.899,60.546,-111.878,0,0,0,
,0.099,-0.42,0.964,-189.942,63.537,-138.55,0,0,0,
,0.077,-0.433,0.952,-212.586,62.744,-142.884,0,0,0,
,0.087,-0.408,0.879,-213.135,54.504,-146.302,0,0,0,
,0.077,-0.463,0.862,-241.883,51.391,-152.832,0,0,0,
,0.073,-0.465,0.846,-288.147,71.472,-176.392,0,0,0,
,0.092,-0.345,0.939,-121.521,49.743,-118.47,0,0,0,
,0.044,-0.452,0.935,-129.456,36.682,-128.052,0,0,0,
,0.099,-0.479,0.902,-213.685,45.959,-159.913,0,0,0,
,0.091,-0.398,0.926,-262.696,67.199,-143.677,0,0,0,
,0.112,-0.332,0.922,-180.115,72.876,-151.185,0,0,0,
,0.077,-0.307,0.951,-102.845,62.439,-103.76,0,0,0,
,0.048,-0.396,0.907,-93.201,42.297,-110.169,0,0,0,
,0.112,-0.494,0.906,-237.183,46.386,-179.078,0,0,0,
,0.101,-0.314,0.915,-220.643,53.344,-115.357,0,0,0,
,0.037,-0.342,0.982,-305.115,54.321,-150.513,0,0,0,
,0.045,-0.42,0.895,-377.259,69.763,-181.336,0,0,0,
,0.107,-0.381,0.969,-354.126,77.453,-206.116,0,0,0,
,0.068,-0.128,0.824,-283.753,109.069,-125.55,0,0,0,
,0.115,-0.3,1.074,-69.886,6.53,-214.051,0,0,0,
,0.087,-0.263,0.969,-111.756,37.658,-110.901,0,0,0,
,0.017,-0.449,0.847,-351.929,65.979,-192.444,0,0,0,
,0.108,-0.382,0.875,-517.762,89.66,-260.865,0,0,0,
,0.147,-0.176,0.873,-510.926,93.261,-179.566,0,0,0,
,0.215,0.042,1.173,46.142,-25.574,-141.907,0,0,0,
,-0.03,-0.233,0.982,36.438,1.648,-117.127,0,0,0,
,0.034,-0.358,1.004,-100.892,10.498,-235.047,0,0,0,
,0,-0.42,0.879,-531.739,129.272,-271.241,0,0,0,
,0.046,-0.259,0.864,-600.586,135.192,-276.856,0,0,0,
,0.068,-0.234,0.96,-776.734,149.353,-271.485,0,0,0,
,0.298,0.211,1.139,19.775,-12.207,-88.807,0,0,0,
,0.032,-0.167,0.898,18.493,-1.16,-128.724,0,0,0,
,0.019,-0.385,1.02,-104.126,-10.56,-220.154,0,0,0,
,0.055,-0.316,0.973,-530.213,102.478,-213.135,0,0,0,
,0.068,-0.13,0.852,-626.16,123.23,-225.769,0,0,0,
,0.136,-0.265,1.1,-585.083,43.762,-260.804,0,0,0,
,0.285,0.227,1.127,-67.627,-3.113,3.418,0,0,0,
,0.036,-0.034,0.904,-14.222,7.263,-114.93,0,0,0,
,0.075,-0.181,1.029,-19.288,-22.889,-156.739,0,0,0,
,0.128,-0.087,1.016,-123.291,6.836,-107.178,0,0,0,
,0.067,-0.131,0.995,-209.412,8.972,-145.264,0,0,0,
,0.111,0.108,0.92,-354.737,1.281,-160.218,0,0,0,
,0.048,-0.05,0.908,-284.546,-20.264,-197.998,0,0,0,
,0.068,-0.09,0.972,-198.243,-16.846,-129.7,0,0,0,
,0.154,-0.094,1.087,-81.36,-42.298,-106.629,0,0,0,
,0.137,0.037,0.969,-56.275,-24.048,-18.494,0,0,0,
,0.04,-0.141,0.979,-102.967,-31.495,-118.836,0,0,0,
,0.114,-0.001,1.016,-213.379,-22.644,-96.619,0,0,0,
,0.144,0.131,0.967,-189.576,-40.772,-88.807,0,0,0,
,0.088,0.12,0.978,-114.319,-61.036,-83.985,0,0,0,
,0.043,0.006,1.014,-55.542,-59.815,-82.032,0,0,0,
,0.03,-0.096,0.992,-65.064,-42.847,-102.173,0,0,0,
,0.073,-0.089,0.974,-197.266,-44.922,-135.376,0,0,0,
,0.075,0.132,0.997,-77.515,-90.638,-125.061,0,0,0,
,0.077,0.082,0.986,151.672,-92.652,-62.073,0,0,0,
,0.056,-0.035,1.004,198.181,-73.121,-68.116,0,0,0,
,0.036,-0.094,1.046,145.691,-69.336,-64.82,0,0,0,
,0.011,-0.04,1.076,50.415,-53.04,-67.2,0,0,0,
,0.031,0.022,1.021,10.925,-35.401,-77.759,0,0,0,
,0.051,0.021,1,56.091,-20.081,-73.792,0,0,0,
,0.056,-0.038,0.972,126.464,-10.437,-46.021,0,0,0,
,0.007,-0.134,0.976,174.255,3.173,-19.227,0,0,0,
,0.022,-0.103,1.016,142.7,36.804,-10.56,0,0,0,
,0.05,-0.059,1.071,67.749,62.988,-9.766,0,0,0,
,0.081,-0.065,1.075,-17.151,72.204,-19.532,0,0,0,
,0.09,0,1.006,-65.857,98.938,-0.061,0,0,0,
,0.111,0.003,1,-27.344,87.524,25.573,0,0,0,
,0.115,-0.011,0.993,94.421,72.876,66.162,0,0,0,
,0.095,-0.098,0.981,138.122,101.989,41.076,0,0,0,
,0.116,-0.194,1.058,103.454,138.183,60.058,0,0,0,
,0.136,-0.17,1.039,-70.496,162.658,50.293,0,0,0,
,0.152,-0.205,0.992,-78.797,82.946,-3.663,0,0,0,
,0.166,-0.336,1.189,14.587,-72.327,-80.445,0,0,0,
,0.091,-0.188,0.989,192.81,-98.877,62.133,0,0,0,
,0.062,-0.193,0.999,461.425,-199.219,-74.402,0,0,0,
,0.017,-0.211,0.972,643.188,-221.009,-52.674,0,0,0,
,-0.004,-0.166,0.923,803.833,-190.125,-31.983,0,0,0,
,-0.016,-0.122,0.845,961.547,-144.288,-12.33,0,0,0,
,-0.009,-0.148,0.936,1077.026,-128.479,13.305,0,0,0,
,0.002,-0.132,0.947,1101.44,-97.229,82.092,0,0,0,
,0.007,-0.093,0.925,1115.661,-30.945,138.794,0,0,0,
,0,-0.034,0.903,1195.922,-38.636,192.627,0,0,0,
,-0.011,-0.121,0.876,1342.041,-84.412,241.638,0,0,0,
,0.012,-0.206,0.991,1358.703,-95.093,314.636,0,0,0,
,0.009,-0.383,1.013,1166.381,-88.013,382.08,0,0,0,
,-0.041,-0.428,1.043,890.808,-21.912,440.429,0,0,0,
,-0.057,-0.406,0.98,591.369,25.94,426.513,0,0,0,
,-0.029,-0.354,0.902,430.603,14.77,325.866,0,0,0,
,0.022,-0.367,0.921,410.827,-7.325,269.592,0,0,0,
,0.057,-0.46,0.87,361.328,-65.613,297.18,0,0,0,
,0.042,-0.475,0.887,287.414,-87.159,321.472,0,0,0,
,0.022,-0.504,0.893,252.746,-76.539,330.566,0,0,0,
,0.036,-0.509,0.82,233.276,-51.941,313.11,0,0,0,
,0.064,-0.508,0.765,236.206,-42.359,286.01,0,0,0,
,0.094,-0.605,0.746,182.495,-72.205,276.794,0,0,0,
,0.118,-0.633,0.794,85.693,-103.821,264.099,0,0,0,
,0.102,-0.644,0.829,-0.184,-105.286,248.413,0,0,0,
,0.106,-0.597,0.837,-39.063,-61.707,202.209,0,0,0,
,0.135,-0.547,0.76,-18.006,-51.575,164.489,0,0,0,
,0.15,-0.607,0.722,-55.42,-73.914,123.962,0,0,0,
,0.183,-0.745,0.833,-278.87,-153.504,73.913,0,0,0,
,0.113,-0.698,0.928,-525.452,-131.348,41.32,0,0,0,
,0.048,-0.365,0.836,-437.134,-56.824,82.702,0,0,0,
,0.104,-0.339,0.779,-274.414,-91.004,42.907,0,0,0,
,0.166,-0.559,0.764,-218.934,-144.715,37.292,0,0,0,
,-0.08,-0.619,0.781,-645.691,-9.278,106.262,0,0,0,
,0.557,-0.573,0.93,-348.999,-156.189,-160.828,0,0,0,
,0.188,-0.858,1.084,-283.692,-54.2,-15.503,0,0,0,
,-0.013,-0.29,1.044,-412.537,-6.165,14.953,0,0,0,
,0.108,-0.267,0.998,-182.435,-101.441,-48.829,0,0,0,
,0.064,-0.444,0.983,-151.673,-79.346,-21.18,0,0,0,
,0.13,-0.414,0.989,-185.547,-51.27,-49.805,0,0,0,
,0.07,-0.459,0.959,-167.908,-41.993,-19.837,0,0,0,
,0.072,-0.475,0.882,-118.042,-45.594,-17.884,0,0,0,
,0.071,-0.497,0.901,-129.456,-56.824,-19.043,0,0,0,
,0.095,-0.442,0.959,-114.441,-23.133,-5.066,0,0,0,
,0.034,-0.409,0.98,-126.954,-2.198,-49.195,0,0,0,
,0.084,-0.464,0.94,-34.241,24.719,-40.223,0,0,0,
,0.061,-0.42,0.945,-47.242,27.404,-4.029,0,0,0,
,0.071,-0.381,0.906,-130.188,16.967,-52.185,0,0,0,
,0.101,-0.432,0.912,-76.477,12.268,-40.894,0,0,0,
,0.063,-0.401,0.918,-96.253,18.859,-43.03,0,0,0,
,0.064,-0.394,0.87,-146.241,14.404,-88.746,0,0,0,
,0.096,-0.414,0.907,-164.795,10.925,-75.013,0,0,0,
,0.032,-0.375,0.904,-144.227,22.583,-115.296,0,0,0,
,0.054,-0.367,0.953,-41.932,16.967,-70.374,0,0,0,
,0.063,-0.362,0.897,-30.518,10.437,-82.398,0,0,0,
,0.065,-0.284,0.995,-136.17,-4.395,-92.713,0,0,0,
,0.069,-0.396,0.966,-52.796,-2.503,-120.85,0,0,0,
,0.064,-0.353,0.934,-111.817,-10.193,-113.099,0,0,0,
,0.05,-0.336,0.989,-133.851,14.77,-126.648,0,0,0,
,0.072,-0.32,0.994,42.724,-18.86,-82.398,0,0,0,
,0.066,-0.371,0.994,38.208,-7.813,-89.112,0,0,0,
,0.023,-0.352,0.909,-78.186,43.457,-146.058,0,0,0,
,0.1,-0.333,0.928,-2.869,9.765,-122.315,0,0,0,
,0.03,-0.391,0.954,-67.2,14.953,-114.075,0,0,0,
,0.034,-0.392,0.974,-53.589,41.198,-135.193,0,0,0,
,0.061,-0.321,0.924,65.856,22.094,-69.519,0,0,0,
,0.046,-0.387,0.933,-53.223,30.517,-137.024,0,0,0,
,0.097,-0.336,0.976,-7.752,25.207,-94.605,0,0,0,
,0.037,-0.344,0.978,-91.858,35.827,-127.686,0,0,0,
,0.054,-0.344,0.944,-102.539,64.148,-156.861,0,0,0,
,0.07,-0.367,0.948,137.329,30.944,-73.243,0,0,0,
,-0.003,-0.422,0.935,-24.414,35.095,-88.99,0,0,0,
,0.051,-0.381,0.964,-151.795,43.335,-166.871,0,0,0,
,0.042,-0.257,0.953,-100.281,55.114,-136.841,0,0,0,
,0.023,-0.244,0.932,29.296,35.827,-119.568,0,0,0,
,0.032,-0.337,0.985,204.834,29.235,-114.808,0,0,0,
,-0.002,-0.39,0.949,161.743,42.297,-91.858,0,0,0,
,0.031,-0.394,0.849,-19.532,43.579,-123.108,0,0,0,
,0.083,-0.446,0.916,-134.034,39.428,-171.875,0,0,0,
,0.034,-0.426,0.857,-307.618,58.41,-151.856,0,0,0,
,0.115,-0.203,0.989,23.01,24.719,-86.976,0,0,0,
,-0.01,-0.327,0.889,80.81,15.625,-104.432,0,0,0,
,0.016,-0.443,0.972,-103.089,25.573,-158.509,0,0,0,
,0.046,-0.48,0.954,-323.853,58.837,-168.763,0,0,0,
,0.076,-0.296,0.987,-277.771,56.457,-115.052,0,0,0,
,0.031,-0.186,0.88,-144.593,29.724,-110.84,0,0,0,
,-0.025,-0.405,1.004,-300.66,34.668,-196.351,0,0,0,
,0.108,-0.139,0.943,-90.821,39.917,-61.036,0,0,0,
,0.003,-0.297,0.971,-153.443,-8.118,-138.733,0,0,0,
,0.084,-0.298,1,-188.294,30.822,-156.434,0,0,0,
,0.073,-0.3,0.942,-239.075,55.664,-160.218,0,0,0,
,0.078,-0.222,0.955,-311.524,58.898,-189.881,0,0,0,
,0.046,-0.245,0.908,-442.994,52.673,-186.402,0,0,0,
,0.064,-0.185,0.954,-273.194,6.225,-140.992,0,0,0,
,0.046,-0.305,1.008,-291.626,6.103,-171.936,0,0,0,
,0.12,-0.088,1.003,-97.107,-5.738,-66.346,0,0,0,
,0.004,-0.256,0.949,-104.981,-20.752,-117.493,0,0,0,
,0.018,-0.206,0.961,-183.716,-6.043,-107.361,0,0,0,
,0.034,-0.221,0.972,-168.824,-21.485,-135.56,0,0,0,
,0.035,-0.189,1.009,-170.35,-17.09,-126.282,0,0,0,
,0.014,-0.143,1.034,-156.311,-17.701,-116.394,0,0,0,
,-0.016,-0.2,1.02,-165.345,-10.926,-130.188,0,0,0,
,-0.06,-0.225,0.937,-308.472,33.813,-91.614,0,0,0,
,-0.007,-0.224,0.999,-320.862,22.216,-174.073,0,0,0,
,-0.008,-0.159,0.998,-519.532,49.011,-173.218,0,0,0,
,0.042,0.06,1.038,-139.344,-10.01,-73.182,0,0,0,
,0.003,-0.089,1,-240.54,-2.198,-172.425,0,0,0,
,0.025,-0.244,0.984,-342.53,2.441,-194.642,0,0,0,
,0.097,-0.049,0.981,-204.651,4.211,-96.924,0,0,0,
,0.105,-0.14,0.948,-239.502,-5.005,-165.955,0,0,0,
,0.097,-0.09,0.938,-234.62,-19.959,-112.366,0,0,0,
,0.083,-0.024,0.927,-207.825,-46.57,-118.653,0,0,0,
,0.056,0.035,0.946,-80.018,-76.722,-89.112,0,0,0,
,0.029,-0.025,0.932,55.664,-106.263,-91.065,0,0,0,
,0.017,-0.091,0.948,161.865,-115.052,-79.041,0,0,0,
,0.014,-0.151,1.006,190.551,-109.803,-73.487,0,0,0,
,0.001,-0.156,1.116,194.336,-71.778,-39.612,0,0,0,
,-0.055,-0.175,1.173,177.917,-26.49,-15.442,0,0,0,
,-0.08,-0.223,1.073,146.24,54.199,-9.705,0,0,0,
,-0.029,-0.289,0.936,31.189,72.326,-45.289,0,0,0,
,0.03,-0.234,0.885,-14.161,62.439,-20.447,0,0,0,
,0.017,-0.189,0.995,20.446,66.711,-11.597,0,0,0,
,0.032,-0.168,1.077,18.249,101.745,-31.189,0,0,0,
,0.077,-0.156,1.127,15.869,99.914,-40.223,0,0,0,
,0.051,-0.183,0.952,-66.224,187.561,-38.086,0,0,0,
,0.139,-0.222,1.108,-77.515,32.959,-38.208,0,0,0,
,0.028,-0.143,0.971,-65.003,118.957,65.979,0,0,0,
,0.02,-0.167,1.003,-45.655,90.759,30.151,0,0,0,
,0.081,-0.207,1.095,-29.908,36.377,-20.813,0,0,0,
,0.114,-0.258,1.109,-128.357,-44.983,-50.538,0,0,0,
,0.057,-0.155,1.053,-55.787,-102.112,4.211,0,0,0,
,-0.029,-0.175,1.035,16.784,-171.082,-29.602,0,0,0,
,-0.077,-0.123,1.028,183.044,-146.851,41.32,0,0,0,
,-0.095,-0.065,0.949,334.838,-82.52,118.652,0,0,0,
,-0.069,-0.005,0.906,547.546,-48.89,153.991,0,0,0,
,-0.039,-0.011,0.92,687.683,-23.377,184.753,0,0,0,
,-0.038,-0.041,0.94,791.076,-5.738,232.971,0,0,0,
,-0.058,-0.03,0.987,819.275,21.789,234.069,0,0,0,
,-0.075,-0.024,0.943,838.989,39.672,236.755,0,0,0,
,-0.08,-0.042,0.9,945.129,61.767,220.276,0,0,0,
,-0.074,-0.121,0.896,1077.27,63.415,234.497,0,0,0,
,-0.04,-0.252,0.919,1164.306,16.357,293.335,0,0,0,
,-0.01,-0.294,0.978,1100.097,3.845,320.678,0,0,0,
,-0.002,-0.366,0.896,993.347,-16.175,349.914,0,0,0,
,-0.018,-0.412,0.901,822.387,-17.64,374.328,0,0,0,
,-0.006,-0.487,0.932,621.521,-63.477,340.088,0,0,0,
,0.01,-0.493,0.964,417.297,-61.585,307.617,0,0,0,
,0.027,-0.51,0.946,338.44,-75.867,288.147,0,0,0,
,0.053,-0.557,0.901,206.237,-90.271,292.175,0,0,0,
,0.06,-0.558,0.89,90.82,-95.52,303.283,0,0,0,
,0.103,-0.497,0.855,27.099,-115.723,315.307,0,0,0,
,0.112,-0.439,0.878,27.832,-154.419,302.124,0,0,0,
,0.098,-0.501,0.873,25.207,-160.035,251.403,0,0,0,
,0.094,-0.594,0.891,-32.898,-136.78,203.186,0,0,0,
,0.117,-0.525,0.831,-116.7,-110.535,193.298,0,0,0,
,0.109,-0.437,0.807,-90.577,-115.296,189.697,0,0,0,
,0.116,-0.48,0.807,-10.01,-135.56,191.955,0,0,0,
,0.073,-0.488,0.811,2.563,-90.882,212.646,0,0,0,
,0.081,-0.488,0.762,3.418,-33.509,212.402,0,0,0,
,0.09,-0.435,0.72,29.48,7.507,215.454,0,0,0,
,0.073,-0.471,0.699,-4.822,35.583,185.424,0,0,0,
,0.079,-0.69,0.863,-282.105,-4.761,95.031,0,0,0,
,0.198,-0.541,0.895,-360.84,-25.513,69.58,0,0,0,
,0.143,-0.737,0.94,-272.583,-61.768,-91.248,0,0,0,
,0.128,-0.392,0.926,-360.169,-65.43,42.419,0,0,0,
,0.187,-0.099,0.913,-264.1,-170.838,87.89,0,0,0,
,0.056,-0.504,1.005,-171.082,-136.231,9.155,0,0,0,
,0.138,-0.562,0.976,-350.464,-88.868,-57.312,0,0,0,
,0.176,-0.406,0.882,-412.781,-61.768,-84.229,0,0,0,
,0.111,-0.412,0.908,-425.232,-42.664,-78.98,0,0,0,
,0.041,-0.381,0.975,-449.28,-26.734,-92.164,0,0,0,
,0.075,-0.308,1.034,-372.803,-33.997,-107.117,0,0,0,
,0.052,-0.379,1.103,-253.785,-13.977,-101.929,0,0,0,
,0.038,-0.408,1.056,-192.2,-0.55,-98.755,0,0,0,
,0.022,-0.378,0.982,-157.898,30.334,-95.643,0,0,0,
,0.063,-0.364,0.998,-131.714,55.786,-115.601,0,0,0,
,0.032,-0.353,1.01,-134.888,81.115,-94.3,0,0,0,
,0.066,-0.36,0.953,-151.917,77.758,-124.085,0,0,0,
,0.062,-0.328,0.878,-103.516,85.083,-76.233,0,0,0,
,0.037,-0.365,0.875,-117.371,54.992,-78.37,0,0,0,
,0.071,-0.366,0.99,-171.57,55.297,-101.807,0,0,0,
,0.059,-0.308,0.95,-269.532,74.89,-129.639,0,0,0,
,0.08,-0.241,0.937,-240.174,73.242,-130.31,0,0,0,
,0.072,-0.303,0.964,-157.532,60.852,-128.235,0,0,0,
,0.047,-0.27,0.97,-177.796,63.476,-110.962,0,0,0,
,0.023,-0.238,0.993,-238.526,75.439,-164.002,0,0,0,
,0.056,-0.205,0.99,-58.594,55.297,-134.522,0,0,0,
,0.065,-0.255,0.941,-13.184,43.762,-134.4,0,0,0,
,0.073,-0.318,0.939,-93.201,55.481,-169.19,0,0,0,
,0.033,-0.324,0.905,-177.185,57.19,-183.655,0,0,0,
,0.094,-0.278,0.924,-201.294,42.419,-201.783,0,0,0,
,0.12,-0.114,0.998,-182.862,35.461,-158.509,0,0,0,
,0.041,-0.244,1.052,-63.965,20.507,-177.002,0,0,0,
,0.064,-0.253,1.021,-34.302,43.579,-162.476,0,0,0,
,0.037,-0.194,0.97,-122.132,58.532,-132.142,0,0,0,
,0.09,-0.308,1.01,-102.173,46.814,-205.445,0,0,0,
,0.07,-0.307,0.928,-174.195,88.928,-166.626,0,0,0,
,0.077,-0.204,0.959,-134.034,76.171,-141.053,0,0,0,
,0.072,-0.206,1.017,-38.269,57.556,-143.677,0,0,0,
,0.062,-0.227,1.054,-13.733,64.148,-150.147,0,0,0,
,0.037,-0.182,0.933,-45.35,93.505,-147.461,0,0,0,
,0.087,-0.289,0.943,-56.397,67.627,-187.439,0,0,0,
,0.099,-0.276,0.977,15.991,65.49,-123.291,0,0,0,
,0.07,-0.29,0.968,-22.706,73.852,-134.217,0,0,0,
,0.096,-0.301,1.017,-189.881,74.585,-190.125,0,0,0,
,0.079,-0.11,1.018,-111.084,81.787,-141.968,0,0,0,
,0.07,-0.145,0.945,-3.907,53.649,-157.349,0,0,0,
,0.087,-0.189,0.937,67.627,25.573,-153.626,0,0,0,
,0.051,-0.284,0.937,15.93,19.653,-159.668,0,0,0,
,0.051,-0.257,0.963,-121.644,32.47,-158.875,0,0,0,
,0.112,-0.225,1.001,-106.751,28.32,-184.571,0,0,0,
,0.096,-0.254,0.939,-198.609,30.273,-185.059,0,0,0,
,0.051,-0.292,0.982,-313.782,35.339,-206.238,0,0,0,
,0.086,-0.187,1.027,-277.71,35.766,-185.547,0,0,0,
,0.031,-0.258,0.822,-340.76,95.153,-246.644,0,0,0,
,0.146,-0.033,1.012,-242.31,20.629,-174.073,0,0,0,
,0.057,-0.016,0.901,-138.611,42.358,-155.762,0,0,0,
,0.049,-0.249,1.005,-83.497,-12.513,-236.145,0,0,0,
,0.119,-0.112,0.975,-178.589,33.386,-141.907,0,0,0,
,0.062,-0.124,0.991,-268.372,24.658,-193.299,0,0,0,
,0.1,0.074,1.032,-132.569,17.822,-126.282,0,0,0,
,0.081,-0.085,1.037,-22.156,7.873,-161.744,0,0,0,
,0.114,-0.079,0.97,49.499,10.864,-117.127,0,0,0,
,0.07,-0.23,0.919,121.765,-18.799,-137.391,0,0,0,
,0.075,-0.223,0.89,43.64,-14.71,-113.404,0,0,0,
,0.088,-0.151,0.888,2.502,-44.983,-100.159,0,0,0,
,0.079,-0.118,0.961,-21.363,-76.477,-85.267,0,0,0,
,0.081,-0.018,1.052,3.356,-77.332,-59.51,0,0,0,
,0.033,-0.093,1.038,5.31,-74.952,-102.478,0,0,0,
,0.013,-0.181,1.021,-51.148,-57.862,-121.46,0,0,0,
,0.015,-0.211,1.063,-109.62,-47.059,-131.226,0,0,0,
,0.072,-0.074,1.015,-51.331,-32.532,-80.201,0,0,0,
,0.02,-0.164,0.984,-85.694,-41.932,-131.592,0,0,0,
,0.065,-0.118,1.011,-10.376,-36.377,-79.895,0,0,0,
,0.034,-0.188,0.938,-59.632,-27.405,-116.7,0,0,0,
,0.052,-0.106,0.997,-137.207,-27.71,-110.84,0,0,0,
,0.056,-0.037,1.021,-57.19,-29.725,-77.637,0,0,0,
,0.031,-0.084,1.011,13.916,-22.583,-68.726,0,0,0,
,0.051,-0.105,0.977,18.005,-10.926,-65.613,0,0,0,
,0.066,-0.101,0.998,48.767,-15.931,-55.603,0,0,0,
,0.06,-0.097,1.011,89.294,-2.442,-34.852,0,0,0,
,0.053,-0.109,1.038,127.502,8.667,-16.175,0,0,0,
,0.036,-0.143,1.018,129.882,21.118,-12.94,0,0,0,
,0.037,-0.151,0.98,133.606,26.794,-15.076,0,0,0,
,0.03,-0.146,0.994,181.518,26.855,-17.884,0,0,0,
,-0.004,-0.228,1.027,220.214,27.038,-16.968,0,0,0,
,0.003,-0.295,0.98,198.974,58.349,-32.654,0,0,0,
,0.067,-0.227,0.916,112.365,65.856,-40.65,0,0,0,
,0.098,-0.171,0.921,75.134,61.767,-27.894,0,0,0,
,0.117,-0.135,0.986,113.22,49.072,-4.334,0,0,0,
,0.068,-0.156,0.924,157.714,117.553,-20.508,0,0,0,
,0.211,-0.327,1.098,44.738,36.254,-45.777,0,0,0,
,0.192,-0.165,1.029,6.408,58.166,-7.935,0,0,0,
,0.178,-0.226,0.956,-54.627,7.446,35.095,0,0,0,
,0.115,-0.241,0.94,-70.069,-30.64,4.882,0,0,0,
,0.067,-0.241,0.929,-15.015,-22.583,41.748,0,0,0,
,0.073,-0.28,0.962,37.231,-33.814,-9.766,0,0,0,
,0.142,-0.381,1.087,-6.531,-113.221,-73.121,0,0,0,
,0.14,-0.421,1.05,-190.918,-158.081,-86.792,0,0,0,
,0.086,-0.231,0.989,-116.944,-178.956,-6.104,0,0,0,
,0.024,-0.147,0.952,45.654,-199.524,-45.655,0,0,0,
,-0.082,-0.182,0.926,478.271,-159.913,-15.809,0,0,0,
,-0.046,-0.17,0.931,651.245,-108.033,24.902,0,0,0,
,-0.027,-0.146,0.925,829.773,-100.831,93.811,0,0,0,
,-0.067,-0.092,0.92,981.628,-89.783,185.913,0,0,0,
,-0.133,-0.099,0.956,1112.182,-81.727,244.384,0,0,0,
,-0.163,-0.209,0.976,1136.779,-45.716,256.347,0,0,0,
,-0.148,-0.329,0.982,1016.479,-11.048,282.592,0,0,0,
,-0.144,-0.334,1.031,866.516,17.761,315.307,0,0,0,
,-0.136,-0.327,1.034,751.77,18.127,339.843,0,0,0,
,-0.117,-0.35,1.008,620.605,16.967,345.886,0,0,0,
,-0.097,-0.409,0.943,507.751,11.596,321.594,0,0,0,
,-0.058,-0.453,0.935,433.227,-9.034,324.096,0,0,0,
,-0.033,-0.506,0.942,352.172,-47.12,329.956,0,0,0,
,-0.007,-0.542,0.943,267.273,-72.571,321.106,0,0,0,
,0.03,-0.58,0.898,153.93,-70.069,301.452,0,0,0,
,0.044,-0.547,0.864,74.89,-68.604,273.132,0,0,0,
,0.035,-0.552,0.823,46.508,-54.078,259.155,0,0,0,
,0.107,-0.568,0.823,116.76,-60.73,280.334,0,0,0,
,0.131,-0.507,0.765,120.849,-49.988,310.424,0,0,0,
,0.157,-0.494,0.745,169.128,-67.933,323.303,0,0,0,
,0.162,-0.618,0.745,152.16,-88.99,257.08,0,0,0,
,0.146,-0.65,0.82,32.592,-51.636,250.854,0,0,0,
,0.081,-0.434,0.752,-144.165,42.358,288.269,0,0,0,
,0.147,-0.208,0.706,-172.364,24.963,282.837,0,0,0,
,0.205,-1.509,1.171,-296.326,-62.806,-123.597,0,0,0,
,0.079,-0.2,0.976,-662.598,114.318,84.289,0,0,0,
,0.046,-0.008,1.002,-296.998,-78.309,-38.88,0,0,0,
,0.167,-0.427,0.995,-43.091,-123.902,-35.279,0,0,0,
,0.17,-0.526,0.984,-222.718,-131.287,-32.166,0,0,0,
,0.113,-0.404,0.791,-385.315,-23.377,-70.557,0,0,0,
,0.279,-0.516,0.823,-291.932,-27.894,-144.471,0,0,0,
,0.13,-0.453,0.858,-242.92,14.221,-9.827,0,0,0,
,0.048,-0.452,0.972,-215.088,3.479,-77.027,0,0,0,
,0.018,-0.526,0.887,-250.428,63.171,-168.152,0,0,0,
,0.164,-0.508,0.918,-161.805,62.377,-151.856,0,0,0,
,0.075,-0.424,0.942,-208.374,99.853,-105.164,0,0,0,
,0.142,-0.394,0.905,-151.062,54.138,-130.677,0,0,0,
,-0.006,-0.397,0.876,-300.904,93.872,-86.67,0,0,0,
,0.046,-0.31,0.979,-237.305,58.349,-151.49,0,0,0,
,0.049,-0.322,0.905,-334.9,20.202,-134.034,0,0,0,
,0.126,-0.454,0.99,-480.53,31.127,-251.343,0,0,0,
,0.097,-0.377,0.94,-375.977,82.336,-165.284,0,0,0,
,0.079,-0.276,0.879,-102.234,27.587,-78.492,0,0,0,
,0.039,-0.386,0.968,-192.933,36.865,-107.544,0,0,0,
,0.083,-0.377,1.017,-251.893,44.616,-156.861,0,0,0,
,0.063,-0.317,1.039,-396.79,86.975,-159.668,0,0,0,
,0.022,-0.075,0.811,-535.95,81.97,-144.715,0,0,0,
,0.068,-0.402,1.034,-650.269,106.14,-295.899,0,0,0,
,0.17,-0.255,0.974,-289.551,130.31,-168.58,0,0,0,
,0.054,-0.17,0.966,-193.604,95.214,-37.781,0,0,0,
,0.063,-0.188,1.022,-8.179,48.095,-118.226,0,0,0,
,0.085,-0.341,1.069,-250.123,105.468,-147.95,0,0,0,
,0.097,-0.233,1.029,-365.662,155.151,-159.79,0,0,0,
,-0.081,-0.552,0.946,-1329.529,305.42,-274.964,0,0,0,
,0.281,0.209,1.065,-421.692,107.971,-223.755,0,0,0,
,0.185,-0.037,0.758,-343.384,149.902,-125.061,0,0,0,
,0.093,-0.065,0.861,-306.58,47.546,-191.407,0,0,0,
,0.102,-0.269,1.134,-494.69,88.256,-251.893,0,0,0,
,0.166,0.078,1.016,-562.928,144.836,-172.791,0,0,0,
,0.058,-0.236,0.958,-493.226,118.408,-249.634,0,0,0,
,0.137,-0.063,0.948,-440.613,116.394,-172.242,0,0,0,
,0.203,0.171,0.901,-281.739,46.875,-144.227,0,0,0,
,0.175,0.048,0.957,-135.071,0.122,-179.322,0,0,0,
,0.163,-0.06,1.026,9.704,-0.367,-144.043,0,0,0,
,0.072,-0.045,0.81,-401.551,107.544,-171.204,0,0,0,
,0.156,-0.028,0.93,-449.646,26.428,-209.778,0,0,0,
,0.173,0.192,1.017,-488.221,30.212,-159.058,0,0,0,
,0.096,-0.056,0.994,-412.964,-9.766,-256.409,0,0,0,
,0.224,0.188,0.952,-271.424,-4.761,-122.864,0,0,0,
,0.118,-0.105,0.939,-289.185,-20.081,-229.493,0,0,0,
,0.082,-0.087,0.959,-434.632,-4.639,-192.322,0,0,0,
,0.198,0.228,0.951,-518.494,-30.213,-198.914,0,0,0,
,0.185,0.333,0.852,-419.8,-68.482,-212.098,0,0,0,
,0.138,0.188,0.889,-293.519,-114.685,-247.742,0,0,0,
,0.212,0.212,0.936,-144.043,-154.48,-198.365,0,0,0,
,0.166,0.128,0.925,-54.261,-184.327,-169.129,0,0,0,
,0.098,-0.004,0.952,-22.583,-180.481,-150.94,0,0,0,
,0.168,0.217,0.871,71.716,-208.802,-106.507,0,0,0,
,0.171,0.329,0.99,359.069,-240.845,-18.128,0,0,0,
,0.02,-0.037,1.088,419.372,-192.872,-52.124,0,0,0,
,0.057,-0.084,1.107,218.75,-146.668,-45.411,0,0,0,
,0.044,-0.025,1.038,6.469,-110.23,-79.712,0,0,0,
,0.067,0.082,1.029,-75.074,-82.581,-97.535,0,0,0,
,0.028,0.066,1.018,-109.375,-62.073,-107.422,0,0,0,
,0.068,0.182,1.028,-51.819,-41.077,-81.482,0,0,0,
,0.009,-0.023,1.053,-92.408,-9.827,-130.494,0,0,0,
,0.008,0.008,1.031,-187.745,26.123,-127.808,0,0,0,
,0.08,0.13,0.995,-244.202,44.311,-137.757,0,0,0,
,0.072,0.128,0.942,-205.262,72.998,-129.334,0,0,0,
,0.158,0.194,0.985,-52.43,54.077,-73.426,0,0,0,
,0.135,0.06,0.982,13.794,56.457,-51.453,0,0,0,
,0.154,0.076,0.948,37.475,68.115,-16.358,0,0,0,
,0.158,0.113,0.956,134.704,76.599,26.367,0,0,0,
,0.136,0.166,1.046,262.146,74.157,69.641,0,0,0,
,0.131,0.183,1.12,356.994,82.946,71.96,0,0,0,
,0.122,0.094,1.194,389.282,111.023,62.866,0,0,0,
,0.15,0.001,1.174,295.837,156.799,45.471,0,0,0,
,0.175,-0.038,1.122,208.862,215.332,53.405,0,0,0,
,0.219,-0.059,1.084,85.388,228.332,1.159,0,0,0,
,0.18,-0.06,1.032,16.845,298.278,52.734,0,0,0,
,0.367,-0.096,0.951,212.036,26.184,-170.289,0,0,0,
,0.204,-0.118,0.866,660.339,-172.608,-60.303,0,0,0,
,0.069,-0.261,0.937,894.165,-262.818,-40.162,0,0,0,
,0.02,-0.347,0.952,960.022,-196.9,13.855,0,0,0,
,0.093,-0.208,0.892,945.922,-90.149,176.269,0,0,0,
,0.036,-0.057,0.946,1244.629,-190.979,391.54,0,0,0,
,-0.001,0,0.923,1513.672,-217.469,313.598,0,0,0,
,-0.029,-0.024,0.853,1912.17,-246.827,325.134,0,0,0,
,-0.055,-0.117,0.924,1999.694,-254.883,396.362,0,0,0,
,-0.094,-0.281,0.929,1983.825,-219.361,371.704,0,0,0,
,-0.035,-0.646,0.934,1115.417,-146.912,444.824,0,0,0,
,-0.057,-0.599,0.909,905.09,-121.033,495.361,0,0,0,
,-0.046,-0.489,0.885,712.585,-85.938,501.77,0,0,0,
,0.032,-0.533,0.798,589.416,-84.107,450.195,0,0,0,
,0.089,-0.681,0.764,465.026,-79.59,447.815,0,0,0,
,0.133,-0.695,0.831,311.645,-102.539,424.316,0,0,0,
,0.12,-0.574,0.803,228.576,-71.045,409.668,0,0,0,
,0.18,-0.592,0.731,179.626,-69.825,345.398,0,0,0,
,0.26,-0.727,0.623,120.91,-80.201,349.853,0,0,0,
,0.289,-0.703,0.673,65.429,-122.62,410.339,0,0,0,
,0.261,-0.574,0.667,138.488,-138.428,453.003,0,0,0,
,0.289,-0.663,0.671,162.231,-158.265,430.542,0,0,0,
,0.344,-0.664,0.619,57.617,-168.152,465.576,0,0,0,
,0.302,-0.501,0.59,-63.965,-155.945,478.698,0,0,0,
,0.27,-0.487,0.6,-95.337,-135.926,403.442,0,0,0,
,0.293,-0.677,0.587,-271.973,-141.968,303.955,0,0,0,
,0.317,-0.732,0.589,-407.898,-83.497,281.738,0,0,0,
,0.448,-0.716,0.595,-465.21,-166.443,170.288,0,0,0,
,0.258,-1.372,0.879,-578.309,-152.832,-112.366,0,0,0,
,0.285,-0.562,0.874,-551.392,-90.699,-18.982,0,0,0,
,0.116,-0.398,0.933,-305.42,-100.708,5.065,0,0,0,
,0.129,-0.604,0.999,-253.602,-91.736,-6.653,0,0,0,
,0.15,-0.599,0.941,-258.301,-73.182,-62.317,0,0,0,
,0.269,-0.598,0.842,-180.542,-93.995,-24.903,0,0,0,
,0.288,-0.607,0.778,-150.757,-78.553,-6.165,0,0,0,
,0.231,-0.498,0.874,-220.765,-48.035,28.381,0,0,0,
,0.315,-0.529,0.892,-258.24,-39.551,-14.954,0,0,0,
,0.381,-0.661,0.866,-226.502,3.051,-23.255,0,0,0,
,0.292,-0.494,0.874,-213.135,45.41,-28.565,0,0,0,
,0.26,-0.513,0.882,-180.359,64.819,-32.776,0,0,0,
,0.211,-0.512,0.807,-222.657,81.604,-73.67,0,0,0,
,0.297,-0.493,0.845,-182.007,66.284,-77.576,0,0,0,
,0.219,-0.54,0.801,-206.604,67.016,-107.727,0,0,0,
,0.254,-0.424,0.689,-349.976,66.833,-162.598,0,0,0,
,0.293,-0.487,0.799,-322.51,50.537,-170.594,0,0,0,
,0.187,-0.474,0.855,-369.568,63.903,-204.224,0,0,0,
,0.341,-0.398,0.94,-262.269,26.245,-208.68,0,0,0,
,0.129,-0.501,0.879,-355.774,59.631,-242.859,0,0,0,
,0.307,-0.345,0.856,-419.556,43.212,-316.285,0,0,0,
,0.219,-0.369,0.848,-480.591,32.47,-320.191,0,0,0,
,0.223,-0.401,0.869,-606.629,38.33,-394.593,0,0,0,
,0.236,-0.383,0.999,-537.171,50.842,-369.568,0,0,0,
,0.171,-0.363,0.984,-376.465,40.71,-340.943,0,0,0,
,0.171,-0.381,0.928,-338.562,47.546,-362.061,0,0,0,
,0.176,-0.389,0.975,-446.106,65.307,-372.559,0,0,0,
,0.196,-0.399,1.07,-498.841,86.853,-378.235,0,0,0,
,0.157,-0.282,1.074,-390.748,133.3,-370.301,0,0,0,
,0.105,-0.244,0.963,-279.114,128.296,-334.229,0,0,0,
,0.131,-0.407,0.944,-292.603,128.662,-368.958,0,0,0,
,0.194,-0.492,0.911,-320.923,142.883,-331.665,0,0,0,
,0.156,-0.481,0.927,-551.575,164.245,-319.397,0,0,0,
,0.2,-0.289,0.956,-410.218,185.852,-295.35,0,0,0,
,0.225,0.007,0.985,-74.83,138.061,-154.847,0,0,0,
,0.071,-0.263,0.918,-208.863,103.088,-246.094,0,0,0,
,0.13,-0.552,1.132,-200.501,125.183,-324.036,0,0,0,
,0.252,0.071,0.905,-381.592,164.001,-146.607,0,0,0,
,0.285,0.083,0.93,3.723,92.285,-157.471,0,0,0,
,0.223,-0.269,0.926,135.742,50.17,-208.13,0,0,0,
,0.165,-0.552,0.877,242.248,49.987,-145.752,0,0,0,
,0.176,-0.616,0.881,-265.931,119.751,-151.612,0,0,0,
,0.278,-0.307,0.841,-505.616,99.548,-133.912,0,0,0,
,0.259,-0.024,0.771,-672.852,84.655,-110.962,0,0,0,
,0.307,0.094,0.959,-408.448,-56.153,-185.547,0,0,0,
,0.278,-0.056,0.999,-358.704,-20.691,-179.871,0,0,0,
,0.282,-0.101,0.954,-113.526,-64.759,-125.061,0,0,0,
,0.183,-0.383,0.9,-301.392,-44.8,-209.412,0,0,0,
,0.241,-0.233,1.006,-352.112,-55.542,-109.864,0,0,0,
,0.28,-0.092,0.856,-487.671,-16.602,-101.197,0,0,0,
,0.144,-0.22,0.87,-720.276,-87.22,-280.03,0,0,0,
,0.171,0.074,1.116,-682.862,-122.498,-153.87,0,0,0,
,0.24,0.274,0.971,-335.938,-92.652,-69.947,0,0,0,
,0.188,-0.071,0.937,-315.857,-106.812,-263.672,0,0,0,
,0.195,-0.061,1.002,-264.954,-123.23,-126.343,0,0,0,
,0.188,-0.017,0.98,-427.552,-118.897,-226.441,0,0,0,
,0.152,0.025,0.94,-449.707,-159.18,-202.21,0,0,0,
,0.162,0.117,0.998,-483.704,-159.729,-275.452,0,0,0,
,0.114,0.011,1.027,-347.046,-153.199,-223.145,0,0,0,
,0.15,0.011,0.991,-324.891,-93.934,-274.17,0,0,0,
,0.129,-0.089,0.973,-317.505,-112.244,-213.379,0,0,0,
,0.146,0.016,1.042,-212.403,-82.642,-170.227,0,0,0,
,0.122,-0.007,1.006,-179.688,-47.486,-144.104,0,0,0,
,0.133,0.023,0.888,-190.003,-69.519,-138.855,0,0,0,
,0.171,0.052,0.979,-126.16,-72.449,-120.24,0,0,0,
,0.155,-0.072,1.007,-194.764,-57.312,-140.442,0,0,0,
,0.18,0.143,1.002,-230.713,-19.165,-68.36,0,0,0,
,0.187,0.099,0.853,-174.988,-35.645,-118.348,0,0,0,
,0.067,0.066,0.98,-177.735,-50.293,-100.769,0,0,0,
,0.243,0.247,0.949,-142.64,-44.739,-77.881,0,0,0,
,0.175,0.162,1.005,-53.406,-86.182,-78.248,0,0,0,
,0.117,0.069,0.974,-50.965,-81.299,-97.535,0,0,0,
,0.111,0.112,0.924,-54.993,-72.266,-64.637,0,0,0,
,0.165,0.134,0.975,-38.758,-76.783,-54.505,0,0,0,
,0.162,0.085,0.921,16.601,-78.064,-36.988,0,0,0,
,0.178,0.114,0.896,44.982,-65.674,2.502,0,0,0,
,0.206,0.119,0.942,109.924,-77.393,25.878,0,0,0,
,0.185,0.186,0.968,189.026,-75.257,24.902,0,0,0,
,0.167,0.235,0.958,362.854,-74.219,40.039,0,0,0,
,0.131,0.044,1.123,443.664,-63.05,29.846,0,0,0,
,0.052,-0.14,1.239,318.054,-8.789,27.526,0,0,0,
,0.065,-0.122,1.205,123.962,56.091,26.306,0,0,0,
,0.127,-0.059,1.124,22.033,112.548,-16.358,0,0,0,
,0.104,-0.029,1.024,-101.868,120.727,-53.467,0,0,0,
,0.169,0.15,1.003,-71.9,126.77,-21.058,0,0,0,
,0.227,0.237,0.99,37.475,88.867,-54.261,0,0,0,
,0.242,0.174,0.993,179.687,51.879,-39.124,0,0,0,
,0.24,0.123,0.978,240.966,55.481,-24.109,0,0,0,
,0.225,-0.019,0.96,338.012,34.973,41.259,0,0,0,
,0.185,-0.183,0.907,348.51,61.828,21.606,0,0,0,
,0.206,-0.326,1.013,488.891,-50.477,25.329,0,0,0,
,0.208,-0.276,0.932,376.587,40.1,191.894,0,0,0,
,0.194,-0.257,0.936,545.593,-111.817,53.039,0,0,0,
,0.124,-0.319,0.909,735.29,-140.442,138.488,0,0,0,
,0.058,-0.34,0.85,835.205,-128.052,167.724,0,0,0,
,0.007,-0.315,0.834,901.55,-90.455,143.188,0,0,0,
,-0.018,-0.189,0.809,971.74,-35.828,143.493,0,0,0,
,-0.012,-0.088,0.814,1137.39,29.235,189.087,0,0,0,
,0.021,0.023,0.754,1310.913,23.864,196.899,0,0,0,
,-0.015,-0.085,0.728,1436.218,-89.905,103.027,0,0,0,
,-0.079,-0.197,0.756,1772.949,-242.127,211.486,0,0,0,
,-0.111,-0.245,0.883,1978.088,-163.88,423.828,0,0,0,
,-0.072,-0.335,1.041,1957.885,-69.397,491.15,0,0,0,
,0.009,-0.555,1.079,1667.297,-69.947,461.242,0,0,0,
,0.04,-0.685,1.115,1275.695,-80.75,524.719,0,0,0,
,0.017,-0.623,1.026,946.533,-100.831,562.072,0,0,0,
,-0.015,-0.572,1.026,716.613,-98.938,519.775,0,0,0,
,0.001,-0.575,0.942,670.288,-79.529,430.725,0,0,0,
,0.094,-0.64,0.811,644.592,-137.024,365.051,0,0,0,
,0.136,-0.767,0.779,611.45,-180.481,388.488,0,0,0,
,0.13,-0.836,0.793,475.952,-193.543,434.753,0,0,0,
,0.134,-0.741,0.749,403.503,-131.592,420.715,0,0,0,
,0.176,-0.719,0.659,435.852,-114.319,371.338,0,0,0,
,0.225,-0.79,0.634,377.99,-114.624,332.397,0,0,0,
,0.239,-0.799,0.619,259.521,-97.657,321.594,0,0,0,
,0.279,-0.733,0.615,150.146,-85.694,325.683,0,0,0,
,0.304,-0.64,0.593,133.239,-65.369,348.51,0,0,0,
,0.31,-0.585,0.597,122.558,-53.956,356.506,0,0,0,
,0.309,-0.631,0.623,-62.195,-89.051,339.05,0,0,0,
,0.248,-0.542,0.632,-317.566,-71.9,328.979,0,0,0,
,0.253,-0.351,0.675,-429.017,-72.083,361.938,0,0,0,
,0.21,-0.328,0.707,-342.713,-78.98,440.612,0,0,0,
,0.44,-0.8,0.537,-301.026,-158.02,243.042,0,0,0,
,0.696,-2.021,0.64,-241.944,-130.616,-138.123,0,0,0,
,0.425,-0.871,0.691,-570.069,53.161,165.466,0,0,0,
,0.16,0.047,0.752,-493.653,-8.912,126.526,0,0,0,
,0.255,-0.453,0.911,-225.464,-124.085,45.471,0,0,0,
,0.289,-0.708,0.848,-355.164,-108.033,-4.151,0,0,0,
,0.394,-0.664,0.766,-449.524,-74.097,-43.763,0,0,0,
,0.325,-0.563,0.742,-366.211,-61.585,-5.433,0,0,0,
,0.234,-0.572,0.858,-376.893,-47.547,-26.856,0,0,0,
,0.277,-0.53,0.935,-317.444,-41.932,-55.054,0,0,0,
,0.281,-0.567,0.898,-237,-28.504,-72.144,0,0,0,
,0.327,-0.525,0.799,-184.693,-8.057,-80.079,0,0,0,
,0.278,-0.534,0.734,-248.78,10.437,-87.403,0,0,0,
,0.314,-0.534,0.801,-318.421,23.62,-133.851,0,0,0,
,0.251,-0.539,0.884,-337.464,50.17,-147.706,0,0,0,
,0.334,-0.425,0.834,-315.003,37.841,-193.543,0,0,0,
,0.255,-0.525,0.831,-240.784,58.654,-162.476,0,0,0,
,0.212,-0.568,0.884,-313.172,63.781,-197.937,0,0,0,
,0.25,-0.505,0.868,-421.631,86.364,-265.503,0,0,0,
,0.312,-0.42,0.825,-435.669,71.777,-283.02,0,0,0,
,0.245,-0.466,0.85,-479.31,66.406,-257.874,0,0,0,
,0.25,-0.485,0.842,-548.218,88.806,-304.078,0,0,0,
,0.245,-0.446,0.881,-643.311,80.017,-285.035,0,0,0,
,0.242,-0.415,0.86,-482.605,84.533,-295.227,0,0,0,
,0.213,-0.354,0.928,-248.963,48.156,-202.149,0,0,0,
,0.174,-0.409,0.997,-125.306,23.376,-195.679,0,0,0,
,0.219,-0.429,0.977,-87.708,20.69,-214.478,0,0,0,
,0.203,-0.483,0.889,-109.314,46.447,-177.308,0,0,0,
,0.187,-0.442,0.843,-255.433,48.95,-165.528,0,0,0,
,0.262,-0.414,0.89,-210.022,44.677,-201.111,0,0,0,
,0.256,-0.37,0.91,-101.563,47.058,-149.72,0,0,0,
,0.205,-0.367,0.969,-66.956,50.842,-146.302,0,0,0,
,0.196,-0.397,0.901,-128.174,75.683,-168.457,0,0,0,
,0.243,-0.434,0.898,-254.639,80.078,-200.745,0,0,0,
,0.253,-0.42,0.843,-285.767,86.059,-174.866,0,0,0,
,0.249,-0.353,0.849,-274.903,96.313,-175.721,0,0,0,
,0.238,-0.305,0.871,-163.331,73.425,-151.673,0,0,0,
,0.201,-0.395,0.954,-233.277,63.476,-163.697,0,0,0,
,0.201,-0.508,0.994,-329.59,93.872,-202.698,0,0,0,
,0.233,-0.329,0.931,-420.472,135.803,-164.612,0,0,0,
,0.201,-0.319,0.862,-732.178,136.84,-224.427,0,0,0,
,0.244,-0.197,0.867,-481.019,146.545,-227.478,0,0,0,
,0.295,-0.037,0.867,-251.587,117.92,-130.188,0,0,0,
,0.254,-0.271,0.956,95.642,-7.081,-179.322,0,0,0,
,0.198,-0.474,0.964,21.118,24.108,-157.166,0,0,0,
,0.223,-0.42,0.91,-360.962,97.351,-172.913,0,0,0,
,0.28,-0.151,0.894,-503.724,91.796,-175.232,0,0,0,
,0.233,-0.062,0.841,-681.031,68.237,-213.562,0,0,0,
,0.253,-0.106,0.908,-301.941,-8.728,-226.319,0,0,0,
,0.327,-0.214,0.939,-91.37,6.164,-160.523,0,0,0,
,0.254,-0.341,0.955,64.148,-51.819,-135.804,0,0,0,
,0.213,-0.388,0.984,-169.922,-1.282,-126.831,0,0,0,
,0.224,-0.244,0.94,-429.993,20.446,-156.495,0,0,0,
,0.25,-0.048,0.954,-497.62,1.037,-144.715,0,0,0,
,0.144,-0.196,0.926,-678.406,1.709,-244.629,0,0,0,
,0.199,-0.129,1.046,-260.376,-38.331,-136.048,0,0,0,
,0.277,-0.104,0.952,-108.338,4.577,-65.125,0,0,0,
,0.257,-0.182,0.918,-70.862,-34.607,-133.057,0,0,0,
,0.211,-0.188,0.916,-263.428,-25.208,-133.912,0,0,0,
,0.201,-0.147,0.986,-372.132,-50.171,-159.18,0,0,0,
,0.268,0.044,0.981,-302.674,-39.124,-103.272,0,0,0,
,0.239,-0.005,0.928,-193.36,-84.107,-133.545,0,0,0,
,0.177,-0.081,0.928,-168.274,-95.643,-119.996,0,0,0,
,0.193,-0.117,0.986,-135.437,-109.131,-143.738,0,0,0,
,0.238,-0.058,0.945,-149.353,-94.422,-95.52,0,0,0,
,0.152,-0.316,0.984,-260.132,-116.761,-202.271,0,0,0,
,0.172,-0.198,0.959,-506.104,-71.289,-150.208,0,0,0,
,0.274,0.059,0.931,-515.748,-99.183,-123.597,0,0,0,
,0.24,0.114,0.924,-457.947,-145.691,-148.011,0,0,0,
,0.172,0.02,1.017,-465.027,-189.759,-198.914,0,0,0,
,0.195,0.158,1.002,-268.86,-165.65,-70.191,0,0,0,
,0.139,0.031,1.005,-255.738,-174.012,-189.026,0,0,0,
,0.116,-0.051,1.01,-279.908,-153.443,-154.908,0,0,0,
,0.13,0.008,1.042,-327.149,-141.724,-165.955,0,0,0,
,0.119,0.014,1.015,-262.085,-121.521,-130.066,0,0,0,
,0.128,0.068,1.02,-224.793,-92.774,-135.376,0,0,0,
,0.054,-0.087,1.006,-204.895,-80.811,-147.339,0,0,0,
,0.115,0.104,0.993,-117.249,-36.377,-2.747,0,0,0,
,0.131,0.093,0.999,-86.06,-44.8,-115.418,0,0,0,
,0.078,0.031,1.064,-40.772,-15.137,-63.294,0,0,0,
,0.098,0.001,1.04,-101.685,18.188,-88.135,0,0,0,
,0.13,-0.003,1.034,-155.335,77.697,-80.262,0,0,0,
,0.186,0.1,1.02,-176.636,82.458,-68.482,0,0,0,
,0.114,-0.002,1.011,-200.928,86.059,-116.272,0,0,0,
,0.14,0.096,1.003,-254.212,131.042,-70.008,0,0,0,
,0.162,0.174,1.037,-241.578,129.272,-60.364,0,0,0,
,0.028,-0.084,1.015,-433.533,186.096,-191.712,0,0,0,
,0.201,0.325,0.99,-320.252,174.133,-27.1,0,0,0,
,0.155,0.135,1.058,-365.357,108.703,-134.705,0,0,0,
,0.307,0.116,1.052,-299.622,142.273,-91.919,0,0,0,
,0.236,0.171,0.819,-411.988,131.591,-101.136,0,0,0,
,0.201,0.26,0.879,-235.535,120.422,-7.63,0,0,0,
,0.239,0.239,0.908,-158.936,118.408,-20.02,0,0,0,
,0.253,0.252,0.945,-76.477,117.736,-21.912,0,0,0,
,0.246,0.188,0.96,-21.851,118.53,-24.109,0,0,0,
,0.224,0.165,0.924,-37.537,126.77,-9.888,0,0,0,
,0.248,0.225,0.876,-17.334,135.742,3.723,0,0,0,
,0.287,0.285,0.903,72.387,130.737,16.723,0,0,0,
,0.295,0.29,0.957,202.148,135.986,19.592,0,0,0,
,0.316,0.271,1.014,332.214,151.672,32.714,0,0,0,
,0.3,0.125,1.098,431.579,168.213,28.93,0,0,0,
,0.267,-0.039,1.17,362.976,244.445,95.886,0,0,0,
,0.245,-0.315,1.161,105.346,346.923,14.038,0,0,0,
,0.299,-0.23,1.048,-187.623,450.683,44.006,0,0,0,
,0.293,-0.085,0.852,-374.756,482.177,119.812,0,0,0,
,0.35,0.081,0.857,-220.948,318.969,29.113,0,0,0,
,0.416,0.084,0.806,196.716,60.485,-15.259,0,0,0,
,0.354,0.214,0.718,746.765,-138.489,26.001,0,0,0,
,0.269,0.154,0.79,1240.417,-362.732,-136.048,0,0,0,
,0.164,0.248,0.748,1727.111,-393.616,-109.925,0,0,0,
,0.086,0.288,0.806,1999.694,-396.607,-18.189,0,0,0,
,0.063,0.261,0.766,1999.694,-386.841,-0.794,0,0,0,
,0.047,0.015,0.814,1999.694,-409.302,7.202,0,0,0,
,0.015,-0.39,0.887,1999.694,-403.504,90.454,0,0,0,
,0,-0.577,0.98,1999.694,-311.341,356.445,0,0,0,
,0.017,-0.442,1.065,1681.396,-235.779,487.487,0,0,0,
,0.06,-0.356,1.063,1401.733,-288.269,432.678,0,0,0,
,0.107,-0.347,1.09,1383.361,-337.159,498.23,0,0,0,
,0.127,-0.523,1.025,1340.088,-363.038,615.783,0,0,0,
,0.105,-0.653,0.873,1064.453,-345.826,634.582,0,0,0,
,0.115,-0.633,0.801,791.015,-310.242,557.861,0,0,0,
,0.18,-0.646,0.833,614.99,-290.833,498.413,0,0,0,
,0.203,-0.64,0.744,560.547,-223.755,503.784,0,0,0,
,0.202,-0.605,0.639,469.726,-140.015,459.167,0,0,0,
,0.289,-0.646,0.541,449.829,-95.581,460.571,0,0,0,
,0.345,-0.664,0.519,356.262,-65.186,481.75,0,0,0,
,0.38,-0.634,0.497,354.065,-70.191,489.013,0,0,0,
,0.397,-0.664,0.508,266.906,-101.685,441.589,0,0,0,
,0.352,-0.742,0.573,39.672,-44.068,365.905,0,0,0,
,0.388,-0.629,0.512,-142.945,-9.705,328.918,0,0,0,
,0.499,-0.572,0.516,-110.474,-39.917,324.951,0,0,0,
,0.49,-0.659,0.501,-141.541,-89.356,190.307,0,0,0,
,0.427,-1.334,0.721,-377.32,-138.55,-75.44,0,0,0,
,0.452,-0.679,0.753,-638.489,-24.353,50.842,0,0,0,
,0.291,-0.271,0.713,-528.016,-46.631,106.75,0,0,0,
,0.239,-0.617,0.933,-260.621,-76.905,14.892,0,0,0,
,0.261,-0.814,0.928,-351.685,-23.377,-57.557,0,0,0,
,0.288,-0.649,0.851,-367.249,6.042,-48.89,0,0,0,
,0.34,-0.661,0.823,-223.999,3.418,-35.035,0,0,0,
,0.302,-0.733,0.864,-162.964,27.771,-10.498,0,0,0,
,0.294,-0.645,0.863,-199.83,73.12,-32.898,0,0,0,
,0.302,-0.556,0.86,-148.011,88.195,-23.865,0,0,0,
,0.378,-0.595,0.795,-39.856,62.805,-33.143,0,0,0,
,0.342,-0.609,0.829,-45.105,68.359,14.099,0,0,0,
,0.284,-0.445,0.757,-160.34,74.34,-18.738,0,0,0,
,0.345,-0.512,0.774,-168.641,60.546,-46.875,0,0,0,
,0.348,-0.584,0.814,-196.656,45.105,-49.866,0,0,0,
,0.318,-0.532,0.787,-132.996,27.648,-28.443,0,0,0,
,0.265,-0.622,0.739,-212.159,39.062,-70.13,0,0,0,
,0.35,-0.55,0.737,-212.342,33.813,-89.356,0,0,0,
,0.332,-0.537,0.76,-261.78,38.94,-97.657,0,0,0,
,0.404,-0.511,0.737,-268.982,65.795,-143.189,0,0,0,
,0.321,-0.509,0.755,-205.323,42.724,-92.164,0,0,0,
,0.326,-0.562,0.839,-228.15,37.902,-110.596,0,0,0,
,0.3,-0.537,0.835,-263.428,80.2,-140.381,0,0,0,
,0.328,-0.505,0.8,-313.294,82.519,-185.425,0,0,0,
,0.354,-0.44,0.76,-327.454,63.72,-165.284,0,0,0,
,0.335,-0.519,0.77,-400.574,46.691,-184.571,0,0,0,
,0.333,-0.522,0.856,-451.6,47.058,-176.758,0,0,0,
,0.28,-0.479,0.842,-670.96,88.378,-231.934,0,0,0,
,0.344,-0.403,0.779,-749.451,110.778,-291.016,0,0,0,
,0.385,-0.311,0.853,-603.821,59.448,-245.484,0,0,0,
,0.287,-0.445,0.918,-490.54,43.457,-208.68,0,0,0,
,0.243,-0.445,0.948,-443.238,34.484,-170.35,0,0,0,
,0.24,-0.526,0.942,-636.048,100.83,-240.967,0,0,0,
,0.345,-0.329,0.892,-563.599,99.426,-251.465,0,0,0,
,0.315,-0.188,0.869,-381.531,40.344,-168.824,0,0,0,
,0.269,-0.306,0.894,-278.321,21.301,-192.749,0,0,0,
,0.294,-0.41,1.015,-131.653,8.483,-164.307,0,0,0,
,0.233,-0.384,0.958,-322.693,65.673,-121.827,0,0,0,
,0.319,-0.246,0.915,-192.139,72.876,-170.105,0,0,0,
,0.315,-0.296,0.912,-133.606,63.781,-165.467,0,0,0,
,0.32,-0.282,0.916,-73.121,51.513,-142.029,0,0,0,
,0.292,-0.426,0.821,-108.765,51.574,-157.288,0,0,0,
,0.32,-0.334,0.812,-37.354,27.587,-112.061,0,0,0,
,0.309,-0.331,0.838,-152.588,26.855,-141.419,0,0,0,
,0.323,-0.32,0.989,-163.453,27.16,-165.955,0,0,0,
,0.278,-0.347,0.942,-322.144,79.834,-154.175,0,0,0,
,0.306,-0.188,0.863,-204.651,90.698,-128.846,0,0,0,
,0.301,-0.247,0.921,-177.247,49.438,-141.114,0,0,0,
,0.262,-0.318,0.917,-309.754,71.411,-172.608,0,0,0,
,0.32,-0.13,0.956,-181.885,52.856,-116.944,0,0,0,
,0.242,-0.346,0.931,-331.421,66.955,-175.354,0,0,0,
,0.293,-0.218,0.932,-325.623,85.937,-163.697,0,0,0,
,0.323,-0.104,0.901,-291.687,62.622,-131.958,0,0,0,
,0.31,-0.176,0.917,-289.856,42.236,-185.547,0,0,0,
,0.286,-0.262,0.912,-293.335,34.362,-164.856,0,0,0,
,0.269,-0.335,0.946,-349.61,38.635,-185.303,0,0,0,
,0.329,-0.134,0.97,-389.161,48.95,-144.227,0,0,0,
,0.33,-0.07,1.007,-157.471,5.859,-128.357,0,0,0,
,0.247,-0.124,0.891,-198.487,16.174,-119.935,0,0,0,
,0.21,-0.377,0.969,-361.756,6.286,-200.928,0,0,0,
,0.311,-0.125,0.889,-412.842,44.738,-127.625,0,0,0,
,0.383,-0.061,0.931,-280.762,-23.377,-153.931,0,0,0,
,0.353,0.029,0.916,-201.539,-42.603,-92.102,0,0,0,
,0.27,-0.087,0.895,-121.644,-74.158,-138.428,0,0,0,
,0.295,0.008,0.89,-301.758,-83.741,-146.18,0,0,0,
,0.383,0.194,0.869,-125.489,-173.34,-143.738,0,0,0,
,0.299,0.076,0.938,168.335,-220.032,-89.6,0,0,0,
,0.16,-0.286,0.994,348.877,-198.182,-150.147,0,0,0,
,0.196,-0.411,1.023,38.94,-130.372,-185.242,0,0,0,
,0.24,-0.403,0.995,-453.125,-124.39,-214.112,0,0,0,
,0.312,-0.076,0.996,-591.37,-142.09,-86.426,0,0,0,
,0.217,-0.097,0.934,-705.933,-152.71,-182.984,0,0,0,
,0.076,-0.36,0.957,-851.502,-155.518,-293.763,0,0,0,
,0.248,-0.122,1.104,-548.218,-98.999,-82.154,0,0,0,
,0.145,-0.438,0.966,-805.176,-41.687,-342.469,0,0,0,
,0.207,-0.275,1.122,-996.155,-42.786,-222.718,0,0,0,
,0.391,0.304,0.836,-904.969,-13.55,-222.657,0,0,0,
,0.165,-0.003,0.89,-751.282,3.601,-233.704,0,0,0,
,0.356,0.376,0.893,-550.721,-10.315,-114.808,0,0,0,
,0.218,0.051,0.916,-497.498,-33.265,-189.881,0,0,0,
,0.095,-0.22,0.875,-746.094,72.265,-286.194,0,0,0,
,0.311,0.309,0.957,-780.213,18.981,-121.949,0,0,0,
,0.238,0.454,0.865,-582.154,-1.954,-143.799,0,0,0,
,0.218,0.455,0.884,-305.97,-1.526,-116.7,0,0,0,
,0.191,0.307,0.933,-161.255,4.699,-118.531,0,0,0,
,0.222,0.251,1.034,-123.352,6.347,-75.684,0,0,0,
,0.205,0.098,0.984,-212.342,32.714,-95.093,0,0,0,
,0.243,0.184,0.937,-278.016,53.649,-92.286,0,0,0,
,0.254,0.246,0.888,-220.826,62.316,-70.313,0,0,0,
,0.324,0.339,0.798,-74.036,47.79,-52.674,0,0,0,
,0.33,0.341,0.809,135.315,7.019,-24.231,0,0,0,
,0.296,0.19,0.876,247.619,-10.865,2.746,0,0,0,
,0.297,0.093,0.982,218.505,-3.418,28.869,0,0,0,
,0.316,-0.011,1.072,38.086,33.569,31.86,0,0,0,
,0.331,0.019,1.112,-168.03,80.932,59.204,0,0,0,
,0.325,0.079,1.071,-289.185,131.53,101.44,0,0,0,
,0.284,0.137,1.068,-325.318,187.133,126.953,0,0,0,
,0.332,0.279,1.054,-398.804,217.468,99.365,0,0,0,
,0.335,0.31,0.971,-425.11,271.789,111.694,0,0,0,
,0.29,0.377,0.854,-348.084,257.873,127.929,0,0,0,
,0.305,0.405,0.717,-187.256,117.614,112.976,0,0,0,
,0.277,0.431,0.685,104.858,12.268,202.819,0,0,0,
,0.258,0.586,0.705,649.902,-90.332,225.402,0,0,0,
,0.217,0.538,0.808,1324.951,-191.04,109.192,0,0,0,
,0.192,0.366,0.802,1900.39,-271.302,69.397,0,0,0,
,0.157,0.128,0.784,1999.694,-340.455,31.25,0,0,0,
,0.1,-0.065,0.808,1999.694,-401.368,25.817,0,0,0,
,0.054,-0.16,0.832,1999.694,-408.875,57.617,0,0,0,
,0.035,-0.151,0.887,1999.694,-369.141,99.304,0,0,0,
,0.003,-0.181,0.916,1999.694,-336.182,122.192,0,0,0,
,-0.043,-0.334,0.904,1999.694,-324.585,223.449,0,0,0,
,-0.07,-0.522,0.982,1999.694,-251.954,365.478,0,0,0,
,-0.039,-0.679,0.99,1884.643,-185.73,431.518,0,0,0,
,0.009,-0.693,1.027,1298.95,-164.368,468.505,0,0,0,
,0.016,-0.661,1.029,859.314,-164.551,495.605,0,0,0,
,-0.003,-0.541,1,542.846,-125.977,475.28,0,0,0,
,0.003,-0.486,0.998,408.63,-91.065,388.122,0,0,0,
,0.032,-0.53,0.942,367.004,-31.861,320.495,0,0,0,
,0.101,-0.609,0.878,287.414,-11.963,309.509,0,0,0,
,0.167,-0.633,0.788,103.21,-36.194,324.585,0,0,0,
,0.251,-0.569,0.77,-75.623,-125,367.614,0,0,0,
,0.261,-0.458,0.845,-71.839,-128.54,435.852,0,0,0,
,0.303,-0.419,0.773,-17.334,-135.865,459.167,0,0,0,
,0.302,-0.522,0.818,58.715,-152.955,451.965,0,0,0,
,0.314,-0.396,0.748,56.213,-97.901,455.81,0,0,0,
,0.266,-0.4,0.66,49.56,-41.993,398.742,0,0,0,
,0.264,-0.392,0.532,132.507,45.837,419.983,0,0,0,
,0.297,-0.377,0.491,61.462,64.88,437.561,0,0,0,
,0.448,-0.587,0.604,-123.536,-54.261,317.016,0,0,0,
,0.508,-1.129,0.867,-96.619,-130.86,115.173,0,0,0,
,0.353,-0.954,0.913,-336.914,-52.491,93.383,0,0,0,
,0.252,-0.319,0.847,-413.758,-59.876,155.517,0,0,0,
,0.144,-0.254,0.961,-148.804,-88.623,81.298,0,0,0,
,0.284,-0.684,0.961,-150.757,-98.572,13.061,0,0,0,
,0.303,-0.649,0.908,-192.688,-50.354,32.043,0,0,0,
,0.364,-0.5,0.777,-169.007,-31.922,27.282,0,0,0,
,0.371,-0.491,0.809,-136.048,8.972,40.222,0,0,0,
,0.31,-0.488,0.886,-275.818,43.579,-17.09,0,0,0,
,0.35,-0.31,0.893,-279.358,40.466,-44.251,0,0,0,
,0.347,-0.33,0.908,-204.895,22.033,-52.613,0,0,0,
,0.276,-0.497,0.861,-205.079,32.287,-88.623,0,0,0,
,0.302,-0.491,0.87,-247.132,44.921,-125.061,0,0,0,
,0.249,-0.483,0.884,-231.385,60.058,-131.043,0,0,0,
,0.256,-0.38,0.764,-187.378,20.141,-145.997,0,0,0,
,0.283,-0.444,0.812,-217.408,15.93,-161.866,0,0,0,
,0.249,-0.502,0.892,-187.561,10.315,-160.096,0,0,0,
,0.232,-0.425,0.884,-196.289,12.329,-166.382,0,0,0,
,0.229,-0.429,0.855,-192.383,1.22,-194.764,0,0,0,
,0.233,-0.451,0.762,-327.149,40.1,-265.625,0,0,0,
,0.334,-0.394,0.827,-295.838,-5.066,-227.845,0,0,0,
,0.222,-0.444,0.986,-398.987,31.555,-209.351,0,0,0,
,0.22,-0.358,0.995,-310.73,25.207,-235.84,0,0,0,
,0.209,-0.292,0.936,-387.635,61.401,-247.986,0,0,0,
,0.26,-0.328,0.922,-356.873,54.504,-287.171,0,0,0,
,0.221,-0.414,0.946,-398.133,62.805,-260.56,0,0,0,
,0.184,-0.475,0.902,-444.581,124.267,-317.322,0,0,0,
,0.255,-0.191,0.892,-162.049,74.279,-193.726,0,0,0,
,0.191,-0.327,0.947,-189.82,61.645,-228.15,0,0,0,
,0.197,-0.367,1.047,-96.802,54.931,-221.741,0,0,0,
,0.186,-0.415,1.01,-255.555,123.352,-250.916,0,0,0,
,0.206,-0.398,0.905,-472.29,164.123,-253.052,0,0,0,
,0.233,-0.41,0.842,-652.649,194.763,-302.857,0,0,0,
,0.304,-0.15,0.841,-372.376,128.967,-186.219,0,0,0,
,0.216,-0.046,0.961,96.923,28.381,-77.637,0,0,0,
,0.151,-0.344,0.969,171.508,32.836,-162.537,0,0,0,
,0.222,-0.485,0.997,6.591,72.57,-166.687,0,0,0,
,0.233,-0.464,0.951,-223.084,123.657,-155.884,0,0,0,
,0.236,-0.339,0.869,-341.98,147.583,-145.386,0,0,0,
,0.273,-0.218,0.776,-344.117,121.276,-133.301,0,0,0,
,0.282,-0.158,0.741,-440.735,65.979,-154.664,0,0,0,
,0.304,-0.311,0.945,-267.09,4.882,-219.178,0,0,0,
,0.294,-0.181,0.979,-208.313,30.273,-71.961,0,0,0,
,0.179,-0.384,0.928,-527.771,42.968,-226.258,0,0,0,
,0.333,-0.017,1.023,-249.695,21.301,-102.051,0,0,0,
,0.239,-0.035,0.804,-326.539,29.602,-140.87,0,0,0,
,0.244,-0.126,1.024,-88.257,-68.116,-211.243,0,0,0,
,0.195,-0.281,1.005,-367.798,-3.357,-207.093,0,0,0,
,0.296,-0.067,1.041,-187.989,-25.635,-179.017,0,0,0,
,0.273,-0.095,0.946,-159.607,-6.714,-144.837,0,0,0,
,0.18,-0.143,0.944,-316.04,-15.015,-198.853,0,0,0,
,0.165,-0.311,0.996,-390.748,-19.043,-252.869,0,0,0,
,0.259,0.001,1.006,-150.208,12.023,-98.755,0,0,0,
,0.209,-0.018,0.86,-322.449,-36.072,-191.468,0,0,0,
,0.187,-0.189,1.035,-294.129,-26.49,-232.544,0,0,0,
,0.211,-0.145,1.05,-135.193,13.549,-134.888,0,0,0,
,0.223,-0.241,0.956,-394.349,21.24,-204.712,0,0,0,
,0.248,-0.043,0.895,-546.387,-44.739,-190.979,0,0,0,
,0.231,0.156,0.936,-387.452,-28.443,-96.497,0,0,0,
,0.186,-0.043,0.948,-249.329,-21.241,-182.618,0,0,0,
,0.231,-0.162,0.964,-480.286,-39.246,-226.502,0,0,0,
,0.29,0.112,0.953,-598.145,-66.468,-160.096,0,0,0,
,0.224,0.001,0.903,-678.101,-16.175,-291.81,0,0,0,
,0.152,-0.121,1.004,-554.322,-75.867,-246.827,0,0,0,
,0.184,-0.141,0.937,-727.723,-52.124,-195.801,0,0,0,
,0.321,0.092,0.922,-757.264,-56.092,-183.167,0,0,0,
,0.299,0.243,0.877,-698.304,-71.961,-141.541,0,0,0,
,0.177,0.197,1.064,-693.604,-54.566,-220.704,0,0,0,
,0.3,0.295,0.89,-590.394,-23.987,-76.844,0,0,0,
,0.192,0.313,0.896,-550.049,-19.41,-179.261,0,0,0,
,0.215,0.3,0.944,-413.025,-15.748,-111.573,0,0,0,
,0.198,0.312,0.882,-425.293,-16.48,-106.568,0,0,0,
,0.286,0.251,0.949,-381.958,-34.668,-122.864,0,0,0,
,0.209,0.419,0.952,-278.626,-0.489,-92.591,0,0,0,
,0.222,0.422,0.89,107.299,6.774,-16.48,0,0,0,
,0.237,0.344,0.919,205.322,16.357,0.915,0,0,0,
,0.24,0.276,0.932,252.38,29.663,5.371,0,0,0,
,0.234,0.156,1,233.764,58.105,3.601,0,0,0,
,0.23,0.163,1.032,197.448,100.586,6.225,0,0,0,
,0.23,0.175,1.066,162.597,146.301,-8.423,0,0,0,
,0.266,0.224,1.086,52.124,164.428,-31.556,0,0,0,
,0.304,0.307,1.078,-9.4,185.302,-21.058,0,0,0,
,0.342,0.179,1.001,-162.049,252.319,-13.489,0,0,0,
,0.359,0.369,0.965,-146.729,215.393,15.686,0,0,0,
,0.304,0.27,0.959,-170.472,199.096,42.419,0,0,0,
,0.229,0.168,0.722,-16.236,151.062,-8.973,0,0,0,
,0.267,0.223,0.753,267.761,18.554,57.19,0,0,0,
,0.299,0.357,0.807,714.538,-145.02,141.662,0,0,0,
,0.263,0.327,0.802,1243.896,-268.616,92.102,0,0,0,
,0.206,0.264,0.758,1733.215,-314.454,112.365,0,0,0,
,0.164,0.183,0.718,1999.694,-366.761,104.736,0,0,0,
,0.14,-0.212,0.916,1999.694,-459.778,330.505,0,0,0,
,0.098,-0.46,0.942,1999.694,-342.957,386.413,0,0,0,
,0.079,-0.565,0.953,1999.694,-285.767,470.276,0,0,0,
,0.068,-0.575,0.979,1980.346,-278.809,553.711,0,0,0,
,0.064,-0.485,0.979,1693.725,-294.739,629.699,0,0,0,
,0.096,-0.644,0.797,1316.528,-374.024,670.715,0,0,0,
,0.074,-0.618,0.865,1074.646,-315.735,710.937,0,0,0,
,0.039,-0.739,0.835,696.533,-220.948,596.435,0,0,0,
,0.087,-0.722,0.764,494.079,-137.574,557.739,0,0,0,
,0.171,-0.66,0.679,343.444,-51.514,500.854,0,0,0,
,0.264,-0.745,0.714,-131.958,-152.649,414.611,0,0,0,
,0.265,-0.701,0.688,-488.099,-154.541,296.569,0,0,0,
,0.261,-0.56,0.716,-593.506,-96.802,228.393,0,0,0,
,0.348,-0.448,0.534,-416.26,-114.624,216.43,0,0,0,
,0.432,-1.006,0.537,-331.482,-217.774,41.87,0,0,0,
,0.427,-0.949,0.544,-322.754,-98.084,101.318,0,0,0,
,0.271,-0.622,0.598,-549.744,-53.223,43.823,0,0,0,
,0.215,-0.309,0.687,-458.924,-59.937,60.424,0,0,0,
,0.184,-0.545,0.822,-300.721,-90.149,15.747,0,0,0,
,0.13,-0.609,0.999,-360.84,-39.978,-11.17,0,0,0,
,0.277,-0.662,0.844,-262.696,-92.835,-43.702,0,0,0,
,0.384,-0.716,0.749,-134.217,-78.675,-47.12,0,0,0,
,0.433,-0.6,0.799,-182.129,-45.655,-10.926,0,0,0,
,0.31,-0.536,0.93,-238.892,5.127,-23.133,0,0,0,
,0.265,-0.367,0.967,-213.623,18.249,-0.794,0,0,0,
,0.207,-0.5,0.978,-130.921,24.047,-16.968,0,0,0,
,0.236,-0.566,0.93,-133.973,35.644,-38.514,0,0,0,
,0.204,-0.504,0.802,-160.218,42.419,-51.514,0,0,0,
,0.303,-0.511,0.713,-117.737,14.404,-60.059,0,0,0,
,0.243,-0.625,0.706,-206.849,26.611,-80.872,0,0,0,
,0.304,-0.627,0.781,-279.664,48.461,-119.69,0,0,0,
,0.242,-0.478,0.879,-343.384,59.387,-130.982,0,0,0,
,0.27,-0.433,0.843,-384.461,62.072,-186.463,0,0,0,
,0.299,-0.448,0.912,-286.744,55.786,-158.509,0,0,0,
,0.223,-0.535,0.872,-268.982,57.861,-183.655,0,0,0,
,0.262,-0.43,0.938,-112.977,46.508,-169.983,0,0,0,
,0.181,-0.494,0.912,-96.192,70.861,-203.492,0,0,0,
,0.24,-0.401,0.881,-153.443,82.885,-246.644,0,0,0,
,0.277,-0.419,0.836,-145.691,69.152,-255.982,0,0,0,
,0.261,-0.542,0.754,-182.557,59.143,-255.433,0,0,0,
,0.228,-0.604,0.804,-332.093,75.622,-237.732,0,0,0,
,0.199,-0.572,0.847,-509.705,103.759,-273.804,0,0,0,
,0.25,-0.408,0.924,-382.752,81.909,-231.507,0,0,0,
,0.172,-0.373,0.858,-375.672,87.951,-231.446,0,0,0,
,0.255,-0.406,0.864,-365.479,85.998,-262.207,0,0,0,
,0.277,-0.396,0.88,-281.067,63.964,-209.046,0,0,0,
,0.215,-0.486,0.914,-344.727,92.773,-211.731,0,0,0,
,0.229,-0.464,0.916,-503.235,115.6,-240.784,0,0,0,
,0.29,-0.157,0.964,-264.893,99.243,-137.757,0,0,0,
,0.17,-0.236,0.952,-164.368,62.927,-161.377,0,0,0,
,0.196,-0.44,0.961,-288.941,79.467,-243.775,0,0,0,
,0.209,-0.536,0.844,-532.654,120.666,-232.666,0,0,0,
,0.328,-0.088,0.937,-418.702,76.477,-151.917,0,0,0,
,0.213,-0.122,0.991,-208.13,32.898,-163.269,0,0,0,
,0.202,-0.257,1.021,-73.548,8.422,-149.353,0,0,0,
,0.164,-0.45,0.927,-393.189,60.119,-200.745,0,0,0,
,0.188,-0.534,0.855,-697.998,123.23,-285.828,0,0,0,
,0.311,-0.182,0.849,-835.572,148.01,-255.555,0,0,0,
,0.342,0.113,1.038,-500.672,54.382,-175.965,0,0,0,
,0.197,0.009,1.073,-257.935,27.526,-192.688,0,0,0,
,0.119,-0.306,1.012,-275.025,36.865,-232.911,0,0,0,
,0.222,-0.245,0.988,-292.176,81.97,-178.833,0,0,0,
,0.253,-0.234,0.893,-506.226,84.106,-220.52,0,0,0,
,0.317,0.029,0.966,-329.285,69.03,-109.253,0,0,0,
,0.194,-0.167,0.975,-307.923,49.377,-193.055,0,0,0,
,0.176,-0.205,0.987,-472.229,110.168,-158.875,0,0,0,
,0.236,-0.162,0.948,-582.581,140.564,-165.223,0,0,0,
,0.288,-0.005,0.939,-648.499,128.906,-160.218,0,0,0,
,0.181,-0.189,0.949,-631.287,85.632,-303.162,0,0,0,
,0.264,-0.147,1.027,-697.876,140.625,-232.972,0,0,0,
,0.305,-0.139,0.977,-744.873,136.779,-204.529,0,0,0,
,0.3,0.008,0.839,-831.849,146.789,-162.598,0,0,0,
,0.293,0.072,0.765,-878.907,134.155,-194.275,0,0,0,
,0.428,0.448,0.78,-752.808,33.996,-119.446,0,0,0,
,0.391,0.439,0.857,-486.878,-62.561,-189.026,0,0,0,
,0.301,0.196,0.874,-305.054,-59.021,-189.881,0,0,0,
,0.281,0.034,0.908,-199.097,-60.547,-149.72,0,0,0,
,0.326,-0.061,0.935,-468.384,-52.369,-175.415,0,0,0,
,0.321,0.184,0.932,-603.15,-52.063,-110.352,0,0,0,
,0.223,0.285,0.937,-390.686,-104.493,-211.609,0,0,0,
,0.294,0.376,0.888,-354.126,-74.769,-151.551,0,0,0,
,0.261,0.228,0.971,-331.116,-99.122,-202.698,0,0,0,
,0.27,0.316,0.98,-366.089,-60.73,-171.082,0,0,0,
,0.318,0.438,0.944,-289.673,-66.163,-140.503,0,0,0,
,0.304,0.466,0.851,-197.449,-93.567,-140.748,0,0,0,
,0.253,0.422,0.752,65.429,-76.783,-80.506,0,0,0,
,0.226,0.179,0.819,110.656,-90.455,-88.318,0,0,0,
,0.267,0.291,0.921,44.86,-82.764,-61.646,0,0,0,
,0.188,0.174,0.972,-68.97,-65.735,-98.267,0,0,0,
,0.268,0.404,0.925,11.169,-22.767,-7.325,0,0,0,
,0.31,-0.005,0.923,-124.756,-76.172,-164.551,0,0,0,
,0.264,0.262,0.929,-90.516,14.526,-79.773,0,0,0,
,0.26,0.317,0.9,-105.652,36.56,-59.205,0,0,0,
,0.275,0.256,0.857,-154.114,44.738,-73.243,0,0,0,
,0.285,0.256,0.828,-229.248,51.635,-76.905,0,0,0,
,0.312,0.351,0.808,-253.052,32.531,-66.59,0,0,0,
,0.34,0.465,0.783,-140.686,16.54,-28.443,0,0,0,
,0.34,0.428,0.75,3.173,-6.287,-12.513,0,0,0,
,0.351,0.43,0.794,145.202,-31.128,27.648,0,0,0,
,0.318,0.364,0.848,224.975,-50.354,33.447,0,0,0,
,0.301,0.306,0.872,279.541,-37.415,49.621,0,0,0,
,0.304,0.28,0.869,336.975,-27.588,72.082,0,0,0,
,0.328,0.073,1.032,194.275,-11.78,28.93,0,0,0,
,0.399,0.409,0.972,292.114,8.117,107.971,0,0,0,
,0.317,0.215,0.974,403.625,-52.613,72.326,0,0,0,
,0.327,0.197,0.982,414.856,-5.86,117.004,0,0,0,
,0.289,0.038,0.943,249.084,48.095,66.162,0,0,0,
,0.329,0.126,0.981,163.147,46.325,125.915,0,0,0,
,0.284,0.14,0.902,93.444,159.912,139.343,0,0,0,
,0.296,0.208,0.874,151.123,189.087,146.789,0,0,0,
,0.343,0.249,0.873,218.322,152.16,76.477,0,0,0,
,0.363,0.27,0.914,428.772,28.747,-12.146,0,0,0,
,0.316,0.161,0.935,667.907,-110.352,-111.634,0,0,0,
,0.239,0.024,0.98,923.034,-214.966,-105.835,0,0,0,
,0.2,0.027,0.949,1398.986,15.075,142.456,0,0,0,
,0.234,0.053,0.911,1381.836,-47.791,119.262,0,0,0,
,0.213,0.17,0.905,1585.632,-168.091,111.755,0,0,0,
,0.153,0.236,0.812,1917.785,-253.968,111.023,0,0,0,
,0.054,-0.015,0.757,1999.694,-418.824,94.726,0,0,0,
,-0.004,-0.298,0.718,1999.694,-571.228,173.095,0,0,0,
,-0.036,-0.601,0.799,1999.694,-566.651,296.569,0,0,0,
,-0.054,-0.847,0.907,1999.694,-458.313,344.909,0,0,0,
,-0.017,-0.891,0.963,1543.884,-434.082,393.798,0,0,0,
,0.056,-0.798,0.972,955.688,-458.191,423.584,0,0,0,
,0.08,-0.604,0.92,693.664,-447.022,494.262,0,0,0,
,0.066,-0.491,0.877,670.044,-411.683,521.24,0,0,0,
,0.035,-0.543,0.877,682.19,-368.897,503.479,0,0,0,
,0.048,-0.693,0.916,550.903,-313.66,459.045,0,0,0,
,0.099,-0.698,0.86,226.379,-228.943,442.443,0,0,0,
,0.145,-0.624,0.788,106.628,-193.97,399.109,0,0,0,
,0.164,-0.686,0.744,4.211,-118.103,354.858,0,0,0,
,0.227,-0.662,0.671,-162.659,-57.068,304.687,0,0,0,
,0.324,-0.649,0.598,-232.972,-32.959,271.179,0,0,0,
,0.353,-0.554,0.56,-138.062,-41.26,301.025,0,0,0,
,0.373,-0.678,0.533,-85.389,-110.779,298.095,0,0,0,
,0.264,-0.633,0.43,-441.163,34.668,226.867,0,0,0,
,0.217,-0.393,0.556,-512.391,98.999,187.5,0,0,0,
,0.35,-0.548,0.719,-781.8,-53.528,66.162,0,0,0,
,0.345,-0.72,1.203,-746.155,-159.241,-21.119,0,0,0,
,0.339,-0.595,1.098,-425.477,-157.593,29.846,0,0,0,
,0.267,-0.59,1.009,-238.404,-147.461,34.851,0,0,0,
,0.288,-0.52,0.902,-146.729,-115.113,36.987,0,0,0,
,0.229,-0.486,0.861,-123.047,-21.058,26.184,0,0,0,
,0.373,-1.075,0.995,-252.869,-7.63,-84.778,0,0,0,
,0.232,-0.19,0.953,-377.808,29.052,63.842,0,0,0,
,0.203,-0.455,0.897,-140.992,-86.67,-42.42,0,0,0,
,0.243,-0.426,0.849,-115.113,-102.539,-5.555,0,0,0,
,0.15,-0.252,0.853,-109.131,-123.78,-41.382,0,0,0,
,0.19,-0.522,0.926,-154.725,-168.396,-73.67,0,0,0,
,0.229,-0.538,0.921,-211.67,-149.353,-103.028,0,0,0,
,0.203,-0.399,0.857,-166.748,-154.969,-123.291,0,0,0,
,0.165,-0.406,0.855,-137.574,-151.795,-143.738,0,0,0,
,0.217,-0.512,0.882,-184.998,-143.006,-181.397,0,0,0,
,0.238,-0.474,0.939,-239.685,-90.638,-204.346,0,0,0,
,0.172,-0.45,1.048,-289.246,-58.777,-197.937,0,0,0,
,0.14,-0.449,1.051,-236.573,-41.748,-201.355,0,0,0,
,0.179,-0.467,1.013,-153.382,-4.273,-213.746,0,0,0,
,0.16,-0.458,1.066,-51.392,40.771,-182.862,0,0,0,
,0.071,-0.401,1.053,-21.424,80.81,-174.561,0,0,0,
,0.148,-0.404,0.956,-90.332,98.51,-239.747,0,0,0,
,0.191,-0.477,0.924,-97.718,146.362,-242.127,0,0,0,
,0.169,-0.524,0.847,-122.254,173.645,-226.38,0,0,0,
,0.158,-0.455,0.75,-132.386,185.058,-193.177,0,0,0,
,0.165,-0.49,0.79,-206.421,165.161,-200.684,0,0,0,
,0.175,-0.472,0.884,-247.498,167.175,-208.558,0,0,0,
,0.165,-0.418,0.888,-250.977,181.03,-210.389,0,0,0,
,0.213,-0.367,0.79,-256.226,159.607,-201.477,0,0,0,
,0.224,-0.459,0.856,-124.146,114.013,-181.946,0,0,0,
,0.127,-0.484,0.999,-170.166,113.83,-159.424,0,0,0,
,0.119,-0.422,0.998,-378.235,149.963,-211.426,0,0,0,
,0.148,-0.343,0.878,-544.373,170.349,-257.874,0,0,0,
,0.216,-0.31,0.811,-560.547,152.465,-282.471,0,0,0,
,0.28,-0.185,0.838,-352.539,103.393,-231.141,0,0,0,
,0.224,-0.229,0.897,-173.645,49.56,-206.727,0,0,0,
,0.17,-0.417,0.992,-139.344,36.926,-236.634,0,0,0,
,0.13,-0.489,1.037,-376.709,87.097,-249.451,0,0,0,
,0.115,-0.437,0.943,-683.228,145.019,-288.086,0,0,0,
,0.202,-0.14,0.828,-648.804,139.221,-232.239,0,0,0,
,0.27,-0.037,0.862,-407.227,63.781,-235.474,0,0,0,
,0.239,-0.118,0.984,-264.466,-16.419,-281.006,0,0,0,
,0.172,-0.306,1.065,-299.866,-9.949,-305.298,0,0,0,
,0.136,-0.371,1.021,-412.049,37.109,-321.534,0,0,0,
,0.171,-0.291,1.033,-539.551,78.186,-292.664,0,0,0,
,0.24,-0.106,1.033,-591.37,84.472,-295.411,0,0,0,
,0.224,-0.004,1.052,-597.718,41.32,-279.786,0,0,0,
,0.157,0.05,1.044,-583.497,44.86,-314.515,0,0,0,
,0.137,-0.025,0.931,-475.403,25.085,-336.731,0,0,0,
,0.198,-0.086,0.986,-308.411,-23.621,-298.89,0,0,0,
,0.168,-0.23,0.882,-111.634,-8.667,-235.352,0,0,0,
,0.125,-0.42,1.019,-153.138,-36.072,-256.836,0,0,0,
,0.157,-0.383,0.941,-524.353,20.629,-254.029,0,0,0,
,0.237,-0.064,1.014,-722.535,-43.58,-210.144,0,0,0,
,0.172,0.081,0.953,-779.786,-73.67,-238.465,0,0,0,
,0.204,0.277,1.024,-401.856,-90.088,-151.734,0,0,0,
,0.172,0.142,0.864,-247.437,-87.647,-244.568,0,0,0,
,0.138,-0.051,0.965,-71.534,-133.179,-283.448,0,0,0,
,0.162,-0.08,0.901,-200.257,-122.071,-313.172,0,0,0,
,0.194,-0.029,0.938,-133.057,-151.49,-276.978,0,0,0,
,0.133,-0.049,0.936,-9.827,-157.166,-236.023,0,0,0,
,0.183,-0.054,0.996,99.853,-120.362,-153.809,0,0,0,
,0.209,-0.135,1.046,63.842,-109.192,-158.875,0,0,0,
,0.131,-0.154,1.057,-67.566,-86.609,-137.452,0,0,0,
,0.131,-0.059,1.002,-164.063,-45.289,-150.513,0,0,0,
,0.137,0.028,1.017,-149.476,-28.565,-132.996,0,0,0,
,0.093,-0.016,0.996,-162.354,-26.246,-132.447,0,0,0,
,0.093,-0.022,1.072,-205.811,-7.63,-129.822,0,0,0,
,0.145,0.041,0.956,-228.821,0.061,-127.32,0,0,0,
,0.139,0.096,1.068,-188.294,3.173,-126.343,0,0,0,
,0.095,0.007,1.008,-197.266,41.503,-133.789,0,0,0,
,0.127,0.047,1.057,-224.488,47.607,-127.808,0,0,0,
,0.104,0.001,0.921,-229.798,44.921,-145.081,0,0,0,
,0.149,0.094,0.953,-195.313,60.607,-107.85,0,0,0,
,0.173,0.077,1.043,-175.477,36.132,-99.61,0,0,0,
,0.167,0.146,0.923,-205.079,30.395,-79.834,0,0,0,
,0.168,0.071,0.944,-181.092,7.995,-69.092,0,0,0,
,0.182,0.128,0.908,-172.913,8.178,-41.871,0,0,0,
,0.173,0.225,0.91,-98.145,-7.142,-27.955,0,0,0,
,0.17,0.178,0.931,-5.249,-38.941,-26.001,0,0,0,
,0.174,0.196,0.928,54.321,-26.307,9.582,0,0,0,
,0.172,0.135,0.9,146.667,-50.721,31.25,0,0,0,
,0.137,0.057,0.975,188.171,-55.359,38.024,0,0,0,
,0.13,-0.031,1.02,202.697,-20.264,25.39,0,0,0,
,0.119,-0.034,1.053,175.476,7.324,38.147,0,0,0,
,0.124,-0.013,1.066,173.401,57.922,16.967,0,0,0,
,0.128,-0.024,1.032,183.838,111.145,6.225,0,0,0,
,0.155,-0.025,1.049,178.833,169.433,17.395,0,0,0,
,0.209,-0.04,1.064,140.014,209.594,43.945,0,0,0,
,0.284,-0.052,1.06,6.713,188.415,-27.894,0,0,0,
,0.285,-0.025,1.036,-33.875,172.302,7.202,0,0,0,
,0.264,-0.084,1.03,23.254,171.386,60.669,0,0,0,
,0.271,-0.138,0.999,28.015,193.786,99.67,0,0,0,
,0.298,-0.153,0.978,-156.922,171.814,93.75,0,0,0,
,0.267,-0.053,0.945,-372.498,98.327,74.035,0,0,0,
,0.216,0.153,0.913,-307.74,-27.283,-10.071,0,0,0,
,0.234,0.055,0.907,53.894,-116.639,-24.353,0,0,0,
,0.2,0.15,0.869,533.081,-121.277,172.18,0,0,0,
,0.165,0.107,0.865,943.542,-191.468,162.292,0,0,0,
,0.146,-0.003,0.841,1129.333,-228.516,140.686,0,0,0,
,0.125,-0.021,0.897,1229.98,-267.456,190.918,0,0,0,
,0.096,0.038,0.892,1378.662,-269.837,237.182,0,0,0,
,0.091,0.068,0.869,1587.707,-243.164,238.708,0,0,0,
,0.08,-0.018,0.851,1698.486,-277.588,232.116,0,0,0,
,0.041,-0.181,0.88,1802.978,-312.867,279.785,0,0,0,
,-0.026,-0.296,0.949,1847.839,-280.091,359.069,0,0,0,
,-0.059,-0.379,1.01,1751.22,-195.252,403.076,0,0,0,
,-0.037,-0.512,0.993,1529.052,-146.79,403.564,0,0,0,
,0.02,-0.532,0.973,1267.578,-118.897,425.903,0,0,0,
,0.034,-0.547,0.913,932.312,-115.967,445.312,0,0,0,
,0.001,-0.594,0.929,629.15,-98.145,414.611,0,0,0,
,0.008,-0.589,0.92,373.596,-55.787,348.022,0,0,0,
,0.047,-0.512,0.861,294.25,-20.264,306.396,0,0,0,
,0.094,-0.458,0.787,367.981,-37.72,283.081,0,0,0,
,0.133,-0.513,0.786,427.673,-94.239,286.56,0,0,0,
,0.094,-0.692,0.804,385.62,-103.699,275.756,0,0,0,
,0.088,-0.739,0.819,248.474,-77.576,257.08,0,0,0,
,0.103,-0.682,0.784,110.351,-39.063,190.307,0,0,0,
,0.116,-0.624,0.76,92.102,-27.649,157.287,0,0,0,
,0.117,-0.602,0.75,76.294,-14.771,150.94,0,0,0,
,0.122,-0.6,0.717,50.17,-18.616,146.545,0,0,0,
,0.14,-0.654,0.75,-14.832,-37.659,131.897,0,0,0,
,0.139,-0.622,0.766,-37.171,-6.409,149.109,0,0,0,
,0.144,-0.594,0.734,51.025,6.591,169.86,0,0,0,
,0.156,-0.613,0.735,93.444,16.418,176.025,0,0,0,
,0.17,-0.639,0.73,70.068,32.836,166.076,0,0,0,
,0.192,-0.62,0.714,28.137,47.729,175.781,0,0,0,
,0.206,-0.698,0.752,-132.569,17.517,157.47,0,0,0,
,0.212,-0.632,0.781,-265.809,-49.012,160.644,0,0,0,
,0.226,-0.493,0.823,-305.603,-117.066,158.386,0,0,0,
,0.262,-0.651,0.976,-194.825,-193.665,90.515,0,0,0,
,0.173,-0.721,0.938,-163.208,-130.372,106.018,0,0,0,
,0.197,-0.532,0.655,-81.116,-93.506,109.558,0,0,0,
,0.254,-0.618,0.741,-157.532,-168.396,19.47,0,0,0,
,0.239,-0.518,0.745,-271.485,-160.218,73.547,0,0,0,
,0.221,-0.569,0.807,-376.282,-130.982,-10.987,0,0,0,
,0.31,-0.58,0.815,-325.684,-134.888,-19.715,0,0,0,
,0.215,-0.568,0.807,-303.528,-114.258,1.159,0,0,0,
,0.175,-0.559,0.911,-315.003,-78.064,-6.836,0,0,0,
,0.107,-0.521,1.089,-329.346,-44.19,-23.804,0,0,0,
,0.122,-0.423,1.046,-280.518,-30.213,-45.96,0,0,0,
,0.206,-0.467,0.967,-151.551,-32.898,-53.467,0,0,0,
,0.183,-0.551,0.85,-103.089,-9.461,-30.518,0,0,0,
,0.149,-0.565,0.813,-240.052,36.315,-50.66,0,0,0,
,0.184,-0.502,0.829,-264.039,49.072,-56.946,0,0,0,
,0.192,-0.461,0.941,-201.6,61.462,-39.124,0,0,0,
,0.153,-0.498,0.896,-128.479,59.143,-40.345,0,0,0,
,0.205,-0.45,0.795,-133.484,42.175,-49.439,0,0,0,
,0.207,-0.452,0.769,-141.724,38.391,-46.448,0,0,0,
,0.177,-0.453,0.883,-196.473,39.001,-63.233,0,0,0,
,0.189,-0.434,0.951,-201.111,35.217,-89.051,0,0,0,
,0.159,-0.409,0.828,-269.532,34.423,-103.638,0,0,0,
,0.245,-0.393,0.878,-202.698,13.183,-106.324,0,0,0,
,0.144,-0.445,0.957,-120.972,8.544,-73.67,0,0,0,
,0.162,-0.406,0.897,-149.048,10.742,-118.409,0,0,0,
,0.173,-0.395,0.903,-197.388,20.141,-140.564,0,0,0,
,0.169,-0.38,0.921,-172.608,-1.526,-126.587,0,0,0,
,0.167,-0.371,0.896,-189.759,3.234,-161.805,0,0,0,
,0.189,-0.386,0.903,-168.824,-10.987,-159.79,0,0,0,
,0.138,-0.408,0.83,-214.722,-5.31,-145.081,0,0,0,
,0.177,-0.426,0.939,-254.09,-9.522,-166.077,0,0,0,
,0.13,-0.353,1.002,-239.441,1.77,-137.269,0,0,0,
,0.131,-0.289,0.961,-202.759,-8.728,-166.565,0,0,0,
,0.14,-0.298,0.854,-180.054,-3.54,-156.006,0,0,0,
,0.167,-0.351,0.981,-103.577,-25.635,-144.593,0,0,0,
,0.101,-0.391,1.009,-116.15,-10.621,-128.602,0,0,0,
,0.12,-0.359,0.964,-165.65,5.249,-159.058,0,0,0,
,0.133,-0.294,0.901,-159.79,11.657,-156.983,0,0,0,
,0.135,-0.294,0.943,-117.798,3.356,-132.996,0,0,0,
,0.14,-0.344,0.994,-135.743,5.859,-138.245,0,0,0,
,0.152,-0.374,0.961,-153.931,12.634,-122.376,0,0,0,
,0.129,-0.311,0.93,-161.683,28.808,-99.488,0,0,0,
,0.116,-0.243,0.996,-112.915,31.311,-102.845,0,0,0,
,0.106,-0.258,1.031,-45.227,24.841,-111.939,0,0,0,
,0.107,-0.346,0.981,-52.735,41.626,-127.625,0,0,0,
,0.123,-0.371,0.918,-96.741,53.344,-125.916,0,0,0,
,0.14,-0.306,0.883,-205.994,54.87,-138.794,0,0,0,
,0.121,-0.384,0.882,-436.097,51.391,-182.007,0,0,0,
,0.156,-0.196,1.067,-308.35,33.813,-192.627,0,0,0,
,0.13,-0.146,1.012,-146.607,22.399,-116.211,0,0,0,
,0.101,-0.357,0.988,-192.994,34.179,-182.129,0,0,0,
,0.119,-0.266,0.925,-298.768,72.57,-149.292,0,0,0,
,0.087,-0.191,0.994,-441.712,72.326,-171.448,0,0,0,
,0.086,-0.151,1.064,-607.3,76.049,-225.098,0,0,0,
,0.121,-0.078,0.94,-513.184,78.247,-185.975,0,0,0,
,0.207,0.027,0.942,-161.866,-1.465,-118.714,0,0,0,
,0.129,-0.105,0.904,-211.914,7.629,-176.331,0,0,0,
,0.078,-0.336,1.082,-205.689,-32.044,-240.113,0,0,0,
,0.114,-0.161,1.005,-408.997,60.119,-156.617,0,0,0,
,0.073,-0.27,0.972,-518.433,34.79,-240.54,0,0,0,
,0.141,-0.033,0.943,-467.286,51.879,-148.987,0,0,0,
,0.177,-0.103,0.876,-339.539,-1.954,-186.463,0,0,0,
,0.221,0.135,0.867,-261.475,-21.607,-103.577,0,0,0,
,0.111,-0.158,0.914,-280.823,-86.548,-237.366,0,0,0,
,0.148,0,1.043,-304.017,-71.595,-136.231,0,0,0,
,0.15,-0.008,0.885,-527.71,-122.315,-199.097,0,0,0,
,0.178,0.183,0.985,-384.705,-199.219,-118.409,0,0,0,
,0.139,0.083,0.902,-367.249,-197.388,-178.528,0,0,0,
,0.032,-0.014,1.045,-309.082,-214.234,-199.646,0,0,0,
,0.061,0.098,1.081,-319.275,-202.332,-156.311,0,0,0,
,0.039,0.08,1.074,-127.686,-230.591,-170.044,0,0,0,
,0.067,0.181,0.981,-30.64,-180.848,-154.969,0,0,0,
,-0.02,-0.017,1.07,11.047,-187.073,-179.444,0,0,0,
,0.015,0.034,1.089,24.658,-113.709,-143.189,0,0,0,
,-0.03,-0.078,1.04,-62.195,-62.317,-168.641,0,0,0,
,-0.018,-0.019,1.09,-155.213,-29.786,-159.485,0,0,0,
,-0.002,0,1.061,-249.939,10.131,-176.636,0,0,0,
,-0.057,-0.061,1.261,-387.391,56.457,-205.079,0,0,0,
,0.093,-0.271,1.119,-641.663,61.34,-276.062,0,0,0,
,0.129,0.26,1.005,-721.192,153.076,-229.615,0,0,0,
,0.248,0.046,1.011,-568.36,60.669,-233.887,0,0,0,
,0.164,0.346,0.953,-555.298,126.709,-239.014,0,0,0,
,0.039,0.043,0.868,-521.424,161.621,-270.874,0,0,0,
,0.141,0.56,0.934,-375.794,147.338,-120.057,0,0,0,
,-0.047,0.179,1.11,-361.573,118.408,-173.951,0,0,0,
,0.313,0.181,1.014,-480.408,63.232,-178.345,0,0,0,
,0.108,0.326,0.85,-436.341,94.36,-210.694,0,0,0,
,0.078,0.312,0.91,-339.905,123.047,-147.889,0,0,0,
,0.132,0.334,0.905,-390.259,107.116,-143.921,0,0,0,
,0.069,0.282,0.891,-426.392,106.018,-219.91,0,0,0,
,0.188,0.467,0.862,-330.506,137.085,-117.31,0,0,0,
,0.205,0.378,0.803,-225.769,112.793,-122.62,0,0,0,
,0.219,0.39,0.791,-86.548,103.576,-93.995,0,0,0,
,0.258,0.408,0.796,58.349,72.387,-52.063,0,0,0,
,0.243,0.404,0.811,212.646,34.057,-6.409,0,0,0,
,0.183,0.323,0.964,473.205,-14.283,89.355,0,0,0,
,0.169,0.269,1.033,458.679,3.418,92.285,0,0,0,
,0.153,0.187,1.089,321.289,47.79,96.496,0,0,0,
,0.13,0.063,1.076,91.369,129.577,106.323,0,0,0,
,0.188,0.201,1.116,-36.988,156.005,111.755,0,0,0,
,0.143,0.084,1.054,-273.621,231.079,59.143,0,0,0,
,0.218,0.27,1.035,-378.296,227.539,65.185,0,0,0,
,0.186,0.328,0.981,-309.937,158.63,65.979,0,0,0,
,0.129,0.31,0.977,-38.147,120.422,88.317,0,0,0,
,0.165,0.254,0.919,252.319,95.092,114.563,0,0,0,
,0.199,0.209,0.913,467.529,24.597,123.169,0,0,0,
,0.191,0.212,0.903,710.144,-80.933,129.821,0,0,0,
,0.005,0.19,0.782,1284.546,-225.647,132.141,0,0,0,
,-0.011,0.213,0.758,1471.008,-252.137,179.016,0,0,0,
,-0.063,0.206,0.89,1631.53,-192.566,151.672,0,0,0,
,-0.021,0.142,0.905,1833.374,-105.713,179.077,0,0,0,
,-0.012,0.041,0.947,1989.135,11.84,253.296,0,0,0,
,0.002,-0.208,0.973,1994.323,49.377,366.455,0,0,0,
,0.005,-0.386,1.046,1708.252,50.17,511.963,0,0,0,
,0.059,-0.517,1.097,936.523,100.158,546.508,0,0,0,
,0.068,-0.371,1.147,151.611,66.406,498.535,0,0,0,
,0.059,-0.131,1.171,-288.453,57.495,385.07,0,0,0,
,0.045,0.048,1.07,-252.869,140.869,292.114,0,0,0,
,0.168,-0.278,0.92,275.451,-86.548,313.049,0,0,0,
,0.132,-0.342,1.019,-6.836,-113.099,301.147,0,0,0,
,0.089,-0.244,0.918,-169.19,-0.794,295.654,0,0,0,
,0.136,-0.112,0.754,-167.42,20.629,249.206,0,0,0,
,0.156,-0.131,0.751,-97.901,-23.255,242.126,0,0,0,
,0.141,-0.276,0.737,-43.03,0.915,233.581,0,0,0,
,0.134,-0.214,0.732,-160.584,69.885,297.851,0,0,0,
,0.406,-0.238,1.079,69.824,-18.189,63.659,0,0,0,
,0.368,-0.55,1.362,301.147,77.026,48.339,0,0,0,
,0.341,-0.184,1.118,471.374,63.964,210.51,0,0,0,
,0.189,-0.318,1.224,345.764,-23.743,156.616,0,0,0,
,0.224,-0.086,1.057,395.568,51.025,163.94,0,0,0,
,0.238,-0.307,0.984,416.992,-14.222,86.914,0,0,0,
,0.235,-0.299,0.788,346.435,-16.419,103.942,0,0,0,
,0.245,-0.379,0.784,278.869,-45.96,96.923,0,0,0,
,0.209,-0.426,0.828,247.07,-40.467,81.543,0,0,0,
,0.192,-0.466,0.901,180.664,-41.382,90.576,0,0,0,
,0.166,-0.376,0.873,137.512,-39.551,56.457,0,0,0,
,0.17,-0.287,0.932,98.388,-57.862,54.687,0,0,0,
,0.189,-0.328,1.06,144.897,-63.172,32.714,0,0,0,
,0.188,-0.376,1.005,177.49,-76.05,32.348,0,0,0,
,0.161,-0.387,0.912,158.386,-82.703,38.086,0,0,0,
,0.191,-0.442,0.868,102.234,-78.492,16.174,0,0,0,
,0.185,-0.398,0.937,-10.926,-52.002,3.112,0,0,0,
,0.189,-0.365,1.029,-2.076,-28.565,-9.705,0,0,0,
,0.185,-0.353,0.978,-0.367,-13.916,-22.522,0,0,0,
,0.167,-0.315,1.014,11.962,-8.912,-23.804,0,0,0,
,0.164,-0.372,1.002,63.293,16.845,-43.03,0,0,0,
,0.174,-0.341,1.038,77.636,55.053,-63.965,0,0,0,
,0.146,-0.306,1.055,111.206,78.064,-79.346,0,0,0,
,0.162,-0.293,0.96,198.852,87.89,-117.981,0,0,0,
,0.203,-0.362,0.878,295.227,103.759,-133.301,0,0,0,
,0.236,-0.466,0.917,304.931,116.272,-126.893,0,0,0,
,0.184,-0.465,0.965,173.584,112.854,-114.136,0,0,0,
,0.106,-0.393,0.911,85.51,144.836,-123.352,0,0,0,
,0.215,-0.454,0.904,181.213,118.042,-157.105,0,0,0,
,0.178,-0.533,0.824,85.998,115.966,-111.084,0,0,0,
,0.173,-0.464,0.746,66.772,110.839,-124.939,0,0,0,
,0.16,-0.478,0.729,-64.881,98.571,-157.593,0,0,0,
,0.268,-0.446,0.82,-75.379,71.411,-147.889,0,0,0,
,0.216,-0.474,0.77,-264.344,48.706,-138.733,0,0,0,
,0.213,-0.377,0.801,-307.618,0.061,-138.367,0,0,0,
,0.218,-0.367,0.857,-242.615,2.99,-167.725,0,0,0,
,0.227,-0.39,0.907,-287.598,10.803,-196.228,0,0,0,
,0.21,-0.374,0.87,-280.091,-15.748,-186.524,0,0,0,
,0.14,-0.479,0.866,-324.707,-2.015,-218.079,0,0,0,
,0.2,-0.345,0.908,-379.456,-15.992,-185.73,0,0,0,
,0.15,-0.364,0.974,-491.028,-25.025,-232.544,0,0,0,
,0.16,-0.258,1.032,-436.341,-19.227,-209.534,0,0,0,
,0.135,-0.217,1.024,-338.318,-15.992,-211.976,0,0,0,
,0.117,-0.372,1.04,-306.946,0.183,-243.714,0,0,0,
,0.129,-0.35,0.877,-176.27,10.498,-173.768,0,0,0,
,0.124,-0.406,0.904,-402.222,5.127,-210.755,0,0,0,
,0.142,-0.429,0.978,-455.933,5.004,-254.456,0,0,0,
,0.162,-0.306,0.929,-589.905,34.973,-203.003,0,0,0,
,0.135,-0.244,0.972,-653.565,-1.16,-224.366,0,0,0,
,0.187,-0.095,0.988,-424.134,-3.54,-187.5,0,0,0,
,0.136,-0.129,0.874,-379.761,-27.222,-173.768,0,0,0,
,0.11,-0.201,0.998,-409.363,-58.289,-236.451,0,0,0,
,0.17,-0.137,0.972,-365.357,-14.771,-200.501,0,0,0,
,0.151,-0.142,1.001,-398.072,-47.425,-204.468,0,0,0,
,0.088,-0.059,0.976,-377.442,-125.489,-225.159,0,0,0,
,0.127,-0.006,1.056,-190.552,-133.24,-186.28,0,0,0,
,0.098,-0.127,0.972,-80.811,-100.769,-165.101,0,0,0,
,0.062,-0.201,1.008,-194.947,-125.184,-197.876,0,0,0,
,0.095,-0.14,1.001,-269.898,-109.07,-146.241,0,0,0,
,0.123,-0.038,0.932,-276.429,-107.483,-97.29,0,0,0,
,0.073,-0.042,0.978,-338.685,-179.932,-148.255,0,0,0,
,0.064,0.092,0.973,-205.384,-165.528,-98.694,0,0,0,
,0.072,0.07,0.902,-152.649,-166.932,-173.401,0,0,0,
,0.077,0.08,0.979,-118.714,-218.811,-229.004,0,0,0,
,0.083,0.131,0.897,51.94,-216.675,-150.391,0,0,0,
,-0.004,-0.102,0.931,-28.443,-287.964,-348.267,0,0,0,
,-0.051,-0.186,1.061,128.234,-248.963,-223.755,0,0,0,
,-0.008,-0.314,1.099,192.077,-175.904,-200.867,0,0,0,
,-0.003,-0.423,1.06,91.308,-128.663,-181.519,0,0,0,
,0.028,-0.269,1.05,-84.778,-115.357,-160.401,0,0,0,
,-0.051,-0.14,0.921,-116.456,-117.92,-161.011,0,0,0,
,0.053,0.122,1.051,-5.249,-7.203,-64.026,0,0,0,
,0.019,-0.145,0.997,36.377,-81.238,-158.875,0,0,0,
,-0.099,-0.25,1.101,-107.178,-116.394,-193.665,0,0,0,
,0.063,0.01,1.074,-125.367,42.053,-133.728,0,0,0,
,-0.05,-0.283,0.931,-201.172,25.878,-238.038,0,0,0,
,-0.032,0.134,0.931,-204.956,48.4,-100.525,0,0,0,
,-0.021,0.088,0.969,-104.737,18.371,-93.995,0,0,0,
,0.051,0.069,0.997,-47.974,-0.123,-98.755,0,0,0,
,-0.05,-0.129,0.979,-93.934,-23.926,-120.972,0,0,0,
,0.047,-0.237,1.027,-228.089,12.756,-137.207,0,0,0,
,-0.037,-0.028,0.956,-234.07,-30.518,-161.072,0,0,0,
,0.059,0.152,1.248,-185.12,23.498,-108.704,0,0,0,
,0.042,0.252,0.967,-127.137,11.047,-23.316,0,0,0,
,-0.007,-0.085,1.078,-192.017,-7.386,-206.055,0,0,0,
,0.079,0.262,0.922,-109.436,39.001,-26.978,0,0,0,
,0.01,0.023,1.029,-78.553,-34.18,-65.796,0,0,0,
,0,-0.045,1.077,-135.865,-10.071,-72.937,0,0,0,
,0.032,0.029,1.029,-173.279,1.648,-47.974,0,0,0,
,0.017,-0.016,1.026,-131.836,25.207,-49.378,0,0,0,
,0.057,-0.052,0.984,-102.112,41.381,-5.921,0,0,0,
,0.053,-0.082,1.045,-69.275,70.617,43.151,0,0,0,
,0.036,-0.147,1.087,-111.512,135.986,32.47,0,0,0,
,0.045,-0.167,1.12,-208.13,235.168,27.404,0,0,0,
,0.056,-0.15,1.088,-339.051,334.35,40.832,0,0,0,
,0.035,-0.168,0.978,-531.556,453.735,7.934,0,0,0,
,0.207,0.118,1.065,-552.063,418.396,101.928,0,0,0,
,0.198,0.177,1.042,-542.481,341.43,114.929,0,0,0,
,0.123,0.159,0.859,-493.164,381.775,125.854,0,0,0,
,0.196,0.217,0.893,-278.077,281.738,160.278,0,0,0,
,0.198,0.277,0.912,-90.821,201.599,195.373,0,0,0,
,0.156,0.223,0.915,66.101,68.42,118.957,0,0,0,
,0.149,0.173,0.967,119.323,18.249,114.013,0,0,0,
,0.116,0.079,0.966,168.945,-68.482,77.148,0,0,0,
,0.065,0.096,0.976,408.813,-78.858,168.457,0,0,0,
,0.013,0.114,0.953,685.852,-46.204,224.914,0,0,0,
,-0.004,0.056,0.927,962.829,-104.493,201.782,0,0,0,
,-0.008,0.034,0.919,1046.569,-161.316,136.352,0,0,0,
,-0.006,0.068,0.819,1147.583,-191.651,63.476,0,0,0,
,-0.046,0.107,0.831,1233.276,-182.435,9.216,0,0,0,
,-0.155,0.041,0.85,1491.516,-228.333,58.41,0,0,0,
,-0.176,-0.005,0.962,1761.779,-207.642,199.096,0,0,0,
,-0.163,-0.123,0.997,1867.859,-51.148,325.561,0,0,0,
,-0.09,-0.189,0.97,1840.332,27.832,352.905,0,0,0,
,-0.021,-0.254,0.986,1728.698,-1.221,380.92,0,0,0,
,0.003,-0.349,1.019,1475.463,-58.899,444.946,0,0,0,
,-0.028,-0.416,1.041,1276.062,-107.178,492.004,0,0,0,
,-0.06,-0.41,1.051,1089.66,-93.995,477.234,0,0,0,
,-0.039,-0.493,1.031,930.786,-58.106,441.65,0,0,0,
,0.055,-0.54,0.898,806.762,-55.237,445.007,0,0,0,
,0.117,-0.762,0.854,649.475,-104.187,391.54,0,0,0,
,0.152,-0.811,0.908,435.913,-145.386,433.899,0,0,0,
,0.112,-0.726,0.954,266.357,-99.732,416.076,0,0,0,
,0.153,-0.624,0.887,275.207,-68.238,307.861,0,0,0,
,0.142,-0.689,0.869,314.453,-57.435,199.646,0,0,0,
,0.143,-0.708,0.768,89.477,-60.73,135.62,0,0,0,
,0.175,-0.56,0.772,-213.074,-140.259,127.441,0,0,0,
,0.112,-0.495,0.831,-367.554,-202.698,105.529,0,0,0,
,0.058,-0.401,0.892,-277.161,-151.673,155.883,0,0,0,
,-0.02,-0.359,0.898,-180.481,-37.964,195.495,0,0,0,
,0.058,-0.447,0.757,-149.842,12.268,199.89,0,0,0,
,0.089,-0.526,0.736,-165.345,37.841,242.859,0,0,0,
,0.093,-0.41,0.731,-69.703,68.786,329.712,0,0,0,
,0.099,-0.481,0.781,37.841,59.143,332.946,0,0,0,
,0.093,-0.602,0.761,-3.602,88.989,299.194,0,0,0,
,0.137,-0.613,0.758,-75.562,116.699,277.71,0,0,0,
,0.17,-0.578,0.706,-105.347,138.427,255.127,0,0,0,
,0.234,-0.527,0.692,20.202,102.783,254.577,0,0,0,
,0.199,-0.474,0.704,226.196,82.397,248.657,0,0,0,
,0.348,-0.484,0.613,466.552,13.305,195.556,0,0,0,
,0.127,-0.736,0.635,539.001,125.915,231.811,0,0,0,
,0.37,-0.251,0.51,150.879,146.789,328.003,0,0,0,
,0.469,-0.878,1.107,-281.067,-130.249,18.737,0,0,0,
,0.364,-0.622,1.028,-212.22,-106.873,137.329,0,0,0,
,-0.028,-0.493,1.063,-146.18,-118.653,124.817,0,0,0,
,0.169,-0.566,0.901,35.217,-155.762,46.875,0,0,0,
,0.162,-0.804,0.807,87.097,-102.112,101.013,0,0,0,
,0.2,-0.811,0.666,28.198,-43.213,6.225,0,0,0,
,0.175,-0.664,0.689,-39.978,-9.217,12.817,0,0,0,
,0.212,-0.488,0.81,-116.7,-25.269,28.076,0,0,0,
,0.172,-0.562,0.954,-246.033,-17.456,-43.641,0,0,0,
,0.186,-0.473,0.99,-304.505,-10.376,-76.783,0,0,0,
,0.21,-0.453,0.885,-247.254,-16.419,-99.488,0,0,0,
,0.297,-0.521,0.858,-162.049,-3.235,-81.543,0,0,0,
,0.175,-0.602,0.879,-195.74,43.09,-93.506,0,0,0,
,0.197,-0.493,0.829,-240.601,45.715,-135.987,0,0,0,
,0.194,-0.489,0.874,-238.404,57.617,-138.062,0,0,0,
,0.142,-0.548,0.919,-258.545,73.791,-167.786,0,0,0,
,0.2,-0.502,0.955,-176.148,92.956,-175.904,0,0,0,
,0.171,-0.476,0.895,-152.405,99.243,-169.19,0,0,0,
,0.177,-0.485,0.829,-311.951,131.713,-228.76,0,0,0,
,0.254,-0.483,0.821,-328.736,130.554,-238.648,0,0,0,
,0.289,-0.45,0.819,-239.808,116.76,-200.562,0,0,0,
,0.176,-0.437,0.869,-207.581,118.225,-139.039,0,0,0,
,0.161,-0.502,0.952,-238.16,101.318,-197.632,0,0,0,
,0.188,-0.462,0.855,-367.432,119.873,-231.812,0,0,0,
,0.228,-0.427,0.865,-454.651,96.801,-253.846,0,0,0,
,0.245,-0.415,0.821,-358.643,93.994,-237.061,0,0,0,
,0.181,-0.372,0.865,-399.231,89.599,-213.868,0,0,0,
,0.183,-0.367,1.006,-404.786,74.585,-239.563,0,0,0,
,0.204,-0.423,0.979,-342.652,99.243,-247.376,0,0,0,
,0.181,-0.329,0.965,-246.216,88.928,-173.89,0,0,0,
,0.159,-0.351,0.924,-226.99,93.627,-202.576,0,0,0,
,0.176,-0.375,0.912,-328.186,104.98,-226.136,0,0,0,
,0.216,-0.357,0.918,-400.086,98.449,-241.333,0,0,0,
,0.218,-0.267,0.867,-318.665,82.58,-196.778,0,0,0,
,0.193,-0.322,0.848,-360.413,54.931,-210.267,0,0,0,
,0.183,-0.407,0.899,-404.297,31.982,-215.943,0,0,0,
,0.172,-0.429,0.929,-548.645,56.579,-234.864,0,0,0,
,0.187,-0.379,0.928,-637.024,57.128,-237.793,0,0,0,
,0.21,-0.177,0.864,-529.664,41.748,-190.857,0,0,0,
,0.229,-0.048,0.9,-474.976,-6.897,-193.482,0,0,0,
,0.203,-0.097,1.006,-393.738,-36.438,-261.475,0,0,0,
,0.15,-0.262,1.028,-428.284,-9.461,-280.64,0,0,0,
,0.171,-0.275,1.083,-573.304,16.967,-270.203,0,0,0,
,0.162,-0.379,0.969,-689.637,56.823,-302.552,0,0,0,
,0.21,-0.156,0.939,-692.81,46.142,-188.66,0,0,0,
,0.208,-0.004,0.908,-663.086,28.198,-208.619,0,0,0,
,0.167,0.015,1.026,-687.317,0.915,-266.358,0,0,0,
,0.174,0.065,1.038,-688.721,15.93,-283.997,0,0,0,
,0.196,0.126,1.024,-628.724,-6.775,-249.268,0,0,0,
,0.178,0.091,1.017,-442.566,-34.18,-226.624,0,0,0,
,0.152,-0.046,0.991,-232.911,-34.852,-186.219,0,0,0,
,0.154,-0.158,0.947,-193.543,-9.766,-165.345,0,0,0,
,0.172,-0.231,0.98,-398.743,6.103,-189.942,0,0,0,
,0.206,-0.088,1.031,-589.112,25.024,-157.898,0,0,0,
,0.229,-0.025,0.917,-703.309,42.785,-173.951,0,0,0,
,0.234,0.26,0.89,-624.878,-19.654,-78.064,0,0,0,
,0.188,0.177,0.855,-430.664,-31.739,-151.673,0,0,0,
,0.177,0.116,0.91,-234.681,-51.697,-101.807,0,0,0,
,0.229,0.025,0.971,-276.917,-43.763,-135.621,0,0,0,
,0.219,0.123,1.009,-408.265,-31.739,-109.925,0,0,0,
,0.154,0.246,1.012,-518.921,-51.941,-117.31,0,0,0,
,0.146,0.369,0.976,-590.699,-59.327,-156.678,0,0,0,
,0.173,0.401,0.973,-427.247,-87.952,-188.294,0,0,0,
,0.185,0.327,0.987,-168.335,-66.895,-153.016,0,0,0,
,0.171,0.131,0.963,-103.028,-59.144,-167.237,0,0,0,
,0.162,0.091,0.958,-221.497,-56.946,-146.607,0,0,0,
,0.153,0.212,0.938,-359.803,-53.04,-170.655,0,0,0,
,0.17,0.307,0.981,-308.899,-63.355,-173.157,0,0,0,
,0.177,0.348,0.963,-222.657,-33.692,-170.227,0,0,0,
,0.165,0.255,0.948,-145.752,-21.241,-180.359,0,0,0,
,0.181,0.215,0.95,-116.944,0.549,-155.518,0,0,0,
,0.183,0.17,0.927,-179.383,5.004,-151.978,0,0,0,
,0.192,0.199,0.919,-236.268,15.258,-144.104,0,0,0,
