TIMECODE,ACC_X,ACC_Y,ACC_Z,GYR_X,GYR_Y,GYR_Z,ECG_I,ECG_II,ECG_III,TAG
,-0.222,0.434,0.865,4.272,9.033,-20.935,0,0,0,
,-0.222,0.438,0.865,6.103,8.239,-21.058,0,0,0,
,-0.221,0.431,0.865,8.361,6.774,-21.18,0,0,0,
,-0.22,0.436,0.865,6.836,9.643,-20.935,0,0,0,
,-0.219,0.432,0.866,8.178,7.69,-21.18,0,0,0,
,-0.222,0.432,0.871,4.272,9.216,-22.889,0,0,0,
,-0.222,0.431,0.864,4.882,7.751,-22.889,0,0,0,
,-0.22,0.433,0.866,5.188,6.164,-23.499,0,0,0,
,-0.219,0.434,0.863,5.554,6.042,-22.217,0,0,0,
,-0.224,0.434,0.865,6.103,7.69,-21.546,0,0,0,
,-0.221,0.439,0.865,5.981,9.521,-19.593,0,0,0,
,-0.223,0.437,0.863,10.315,8.728,-21.668,0,0,0,
,-0.222,0.434,0.863,6.713,9.46,-21.546,0,0,0,
,-0.217,0.433,0.864,8.3,8.789,-21.668,0,0,0,
,-0.222,0.428,0.869,5.92,6.652,-22.828,0,0,0,
,-0.222,0.434,0.866,2.685,7.446,-20.752,0,0,0,
,-0.222,0.433,0.86,4.699,8.606,-23.438,0,0,0,
,-0.221,0.438,0.868,5.615,9.643,-22.583,0,0,0,
,-0.25,0.433,0.865,7.202,9.887,-22.156,0,0,0,
,-0.221,0.434,0.866,6.652,8.3,-21.973,0,0,0,
,-0.25,0.435,0.862,7.812,10.131,-21.912,0,0,0,
,-0.218,0.431,0.869,6.958,8.483,-21.485,0,0,0,
,-0.219,0.433,0.863,6.897,7.812,-20.935,0,0,0,
,-0.224,0.433,0.869,6.591,7.08,-22.461,0,0,0,
,-0.222,0.407,0.869,6.408,7.751,-21.668,0,0,0,
,-0.225,0.431,0.868,6.286,7.812,-23.499,0,0,0,
,-0.22,0.437,0.868,3.418,9.826,-21.302,0,0,0,
,-0.218,0.434,0.861,6.897,7.629,-22.522,0,0,0,
,-0.222,0.434,0.87,7.385,9.216,-20.752,0,0,0,
,-0.224,0.43,0.867,8.85,6.469,-21.119,0,0,0,
,-0.222,0.432,0.866,8.178,10.559,-22.889,0,0,0,
,-0.22,0.437,0.866,10.559,6.591,-20.752,0,0,0,
,-0.22,0.431,0.869,14.16,7.873,-22.644,0,0,0,
,-0.22,0.435,0.864,15.625,8.239,-19.837,0,0,0,
,-0.222,0.432,0.862,16.967,9.948,-21.424,0,0,0,
,-0.221,0.43,0.861,13.794,8.667,-19.837,0,0,0,
,-0.222,0.43,0.868,8.972,7.629,-22.889,0,0,0,
,-0.221,0.435,0.869,7.934,8.117,-22.095,0,0,0,
,-0.221,0.429,0.87,8.544,8.3,-23.682,0,0,0,
,-0.221,0.426,0.864,5.92,7.873,-25.574,0,0,0,
,-0.222,0.433,0.862,4.15,10.742,-22.217,0,0,0,
,-0.22,0.43,0.863,3.418,10.864,-24.048,0,0,0,
,-0.216,0.435,0.865,2.197,10.498,-22.767,0,0,0,
,-0.217,0.427,0.871,4.882,9.155,-22.095,0,0,0,
,-0.226,0.431,0.868,1.648,10.742,-19.41,0,0,0,
,-0.221,0.437,0.872,3.112,10.803,-19.288,0,0,0,
,-0.223,0.433,0.869,4.577,11.108,-19.043,0,0,0,
,-0.225,0.435,0.864,5.554,11.779,-19.654,0,0,0,
,-0.221,0.432,0.87,9.46,13.061,-20.569,0,0,0,
,-0.221,0.432,0.869,11.657,12.39,-19.532,0,0,0,
,-0.221,0.429,0.865,9.704,11.596,-20.691,0,0,0,
,-0.22,0.433,0.866,8.178,14.16,-21.851,0,0,0,
,-0.218,0.434,0.868,12.634,11.779,-19.532,0,0,0,
,-0.22,0.43,0.867,12.512,12.756,-18.494,0,0,0,
,-0.221,0.428,0.866,12.085,13.794,-18.128,0,0,0,
,-0.22,0.426,0.867,10.009,13.977,-20.264,0,0,0,
,-0.219,0.431,0.869,8.178,14.404,-19.227,0,0,0,
,-0.221,0.43,0.867,10.376,13.122,-19.898,0,0,0,
,-0.22,0.428,0.868,7.263,15.869,-20.203,0,0,0,
,-0.221,0.429,0.866,7.08,14.526,-20.569,0,0,0,
,-0.217,0.43,0.865,7.202,12.573,-21.363,0,0,0,
,-0.221,0.435,0.865,7.446,13.916,-21.546,0,0,0,
,-0.22,0.432,0.868,9.277,13.305,-21.607,0,0,0,
,-0.219,0.432,0.868,10.07,13.122,-21.363,0,0,0,
,-0.219,0.421,0.872,9.399,10.192,-23.926,0,0,0,
,-0.22,0.427,0.868,5.065,12.39,-25.208,0,0,0,
,-0.217,0.433,0.87,5.31,12.268,-23.621,0,0,0,
,-0.219,0.43,0.868,6.53,12.512,-22.278,0,0,0,
,-0.219,0.431,0.869,8.606,13.122,-21.668,0,0,0,
,-0.217,0.429,0.868,6.225,12.756,-20.752,0,0,0,
,-0.214,0.429,0.863,8.056,14.587,-20.508,0,0,0,
,-0.218,0.426,0.87,9.277,12.146,-21.485,0,0,0,
,-0.216,0.427,0.873,5.554,14.648,-22.461,0,0,0,
,-0.217,0.431,0.869,7.446,11.84,-21.18,0,0,0,
,-0.216,0.431,0.867,8.544,13.366,-21.912,0,0,0,
,-0.212,0.435,0.869,11.047,13.366,-20.691,0,0,0,
,-0.213,0.428,0.87,12.268,11.108,-20.203,0,0,0,
,-0.217,0.427,0.875,9.887,11.657,-21.302,0,0,0,
,-0.218,0.43,0.868,11.84,13.855,-20.935,0,0,0,
,-0.217,0.423,0.872,9.887,13.855,-22.278,0,0,0,
,-0.213,0.423,0.869,8.606,12.756,-22.095,0,0,0,
,-0.214,0.428,0.87,2.502,10.864,-20.935,0,0,0,
,-0.216,0.433,0.869,3.051,12.512,-21.18,0,0,0,
,-0.216,0.429,0.868,7.141,12.573,-21.302,0,0,0,
,-0.211,0.427,0.869,6.286,13.305,-20.935,0,0,0,
,-0.214,0.425,0.871,3.662,10.07,-21.546,0,0,0,
,-0.216,0.427,0.872,-1.587,11.901,-23.56,0,0,0,
,-0.216,0.432,0.871,-0.611,14.221,-20.997,0,0,0,
,-0.215,0.426,0.874,3.845,10.864,-21.302,0,0,0,
,-0.21,0.427,0.868,4.028,10.315,-22.95,0,0,0,
,-0.212,0.428,0.866,3.906,7.995,-22.95,0,0,0,
,-0.213,0.432,0.87,1.525,5.798,-21.668,0,0,0,
,-0.217,0.432,0.871,4.638,7.873,-23.133,0,0,0,
,-0.214,0.437,0.873,3.234,9.521,-22.889,0,0,0,
,-0.212,0.431,0.869,7.873,7.751,-22.95,0,0,0,
,-0.215,0.425,0.871,7.446,5.554,-21.363,0,0,0,
,-0.212,0.426,0.872,8.178,5.004,-20.935,0,0,0,
,-0.216,0.424,0.871,7.446,6.469,-21.912,0,0,0,
,-0.214,0.432,0.872,4.211,5.798,-20.752,0,0,0,
,-0.217,0.428,0.869,6.408,5.004,-22.828,0,0,0,
,-0.217,0.429,0.873,3.051,5.676,-24.659,0,0,0,
,-0.214,0.433,0.867,5.065,7.263,-23.438,0,0,0,
,-0.212,0.432,0.872,4.882,4.821,-24.048,0,0,0,
,-0.217,0.427,0.868,7.751,5.493,-22.644,0,0,0,
,-0.215,0.425,0.869,4.76,7.507,-23.804,0,0,0,
,-0.212,0.424,0.868,5.249,5.859,-21.546,0,0,0,
,-0.215,0.427,0.869,8.056,5.859,-21.058,0,0,0,
,-0.216,0.428,0.867,7.934,5.127,-20.752,0,0,0,
,-0.218,0.426,0.868,5.31,4.638,-20.508,0,0,0,
,-0.219,0.429,0.866,4.699,6.286,-21.729,0,0,0,
,-0.213,0.431,0.867,5.371,7.019,-22.156,0,0,0,
,-0.218,0.427,0.865,7.934,4.516,-22.156,0,0,0,
,-0.213,0.428,0.874,5.493,5.493,-20.386,0,0,0,
,-0.215,0.424,0.867,5.92,5.615,-21.302,0,0,0,
,-0.213,0.43,0.869,3.234,5.127,-20.935,0,0,0,
,-0.216,0.429,0.867,4.577,5.371,-20.997,0,0,0,
,-0.219,0.429,0.87,3.54,6.652,-20.874,0,0,0,
,-0.219,0.432,0.871,5.859,9.094,-21.363,0,0,0,
,-0.215,0.427,0.866,6.774,7.202,-22.522,0,0,0,
,-0.213,0.427,0.87,4.516,6.836,-20.997,0,0,0,
,-0.215,0.427,0.868,6.286,4.821,-21.058,0,0,0,
,-0.216,0.431,0.868,4.211,4.76,-20.813,0,0,0,
,-0.219,0.428,0.869,6.164,3.601,-20.447,0,0,0,
,-0.219,0.43,0.871,4.821,5.004,-22.278,0,0,0,
,-0.216,0.431,0.87,4.516,7.324,-22.339,0,0,0,
,-0.219,0.427,0.871,2.563,6.469,-22.461,0,0,0,
,-0.218,0.426,0.867,4.455,7.629,-24.903,0,0,0,
,-0.216,0.43,0.868,3.845,7.873,-24.17,0,0,0,
,-0.215,0.429,0.872,9.216,5.493,-23.133,0,0,0,
,-0.218,0.424,0.874,5.859,5.554,-23.804,0,0,0,
,-0.218,0.43,0.87,5.676,5.615,-21.79,0,0,0,
,-0.218,0.432,0.867,6.469,5.127,-23.316,0,0,0,
,-0.22,0.431,0.867,5.615,4.882,-20.997,0,0,0,
,-0.219,0.431,0.871,6.164,8.056,-23.194,0,0,0,
,-0.219,0.429,0.871,7.263,8.606,-22.95,0,0,0,
,-0.215,0.429,0.867,5.493,9.46,-23.194,0,0,0,
,-0.215,0.424,0.87,5.92,5.92,-22.217,0,0,0,
,-0.219,0.428,0.875,5.432,5.249,-22.4,0,0,0,
,-0.22,0.43,0.869,6.042,5.859,-22.278,0,0,0,
,-0.22,0.431,0.864,5.981,6.897,-22.461,0,0,0,
,-0.218,0.427,0.869,6.774,6.652,-22.767,0,0,0,
,-0.216,0.428,0.87,7.69,6.347,-22.339,0,0,0,
,-0.213,0.43,0.869,5.92,6.897,-21.241,0,0,0,
,-0.218,0.428,0.868,6.774,7.019,-21.912,0,0,0,
,-0.218,0.43,0.867,4.455,6.774,-22.095,0,0,0,
,-0.219,0.427,0.867,6.652,7.629,-22.644,0,0,0,
,-0.218,0.43,0.868,5.737,8.056,-22.644,0,0,0,
,-0.218,0.427,0.865,9.521,6.103,-21.302,0,0,0,
,-0.215,0.431,0.87,6.713,7.446,-20.264,0,0,0,
,-0.218,0.428,0.869,9.887,7.141,-19.165,0,0,0,
,-0.222,0.428,0.869,7.385,7.751,-19.898,0,0,0,
,-0.218,0.434,0.871,4.455,7.873,-21.119,0,0,0,
,-0.22,0.427,0.87,6.53,7.69,-22.706,0,0,0,
,-0.219,0.429,0.869,5.127,7.629,-23.865,0,0,0,
,-0.218,0.43,0.867,4.211,6.713,-23.743,0,0,0,
,-0.221,0.428,0.864,3.967,7.202,-24.231,0,0,0,
,-0.218,0.431,0.866,3.479,7.324,-23.56,0,0,0,
,-0.213,0.433,0.868,6.591,7.812,-21.668,0,0,0,
,-0.213,0.429,0.872,9.277,5.676,-21.79,0,0,0,
,-0.216,0.426,0.874,8.911,4.638,-22.461,0,0,0,
,-0.22,0.434,0.868,3.601,4.455,-22.278,0,0,0,
,-0.224,0.431,0.873,7.934,7.873,-22.339,0,0,0,
,-0.221,0.428,0.868,10.253,9.948,-22.156,0,0,0,
,-0.215,0.426,0.871,10.559,11.047,-18.25,0,0,0,
,-0.217,0.425,0.87,10.192,10.009,-17.579,0,0,0,
,-0.222,0.433,0.872,16.845,15.686,-13.977,0,0,0,
,-0.221,0.427,0.871,24.78,19.47,-12.757,0,0,0,
,-0.224,0.446,0.876,25.207,25.94,-13.916,0,0,0,
,-0.231,0.455,0.874,38.513,38.208,-23.743,0,0,0,
,-0.231,0.441,0.882,39.733,53.405,-44.617,0,0,0,
,-0.251,0.527,0.926,142.334,166.565,-54.566,0,0,0,
,-0.258,0.468,0.996,238.891,268.615,-38.88,0,0,0,
,-0.278,0.3,1.073,362.243,392.761,-6.836,0,0,0,
,-0.319,0.255,1.316,500.061,602.111,78.491,0,0,0,
,-0.244,0.238,1.539,273.681,729.98,156.799,0,0,0,
,-0.004,0.178,1.862,40.161,605.713,198.791,0,0,0,
,0.259,0.525,1.957,-328.003,545.959,313.293,0,0,0,
,0.603,0.957,1.703,-529.541,312.439,499.45,0,0,0,
,0.821,1.248,1.784,-131.531,-412.659,687.805,0,0,0,
,0.686,1.021,1.811,358.276,-1249.878,685.669,0,0,0,
,0.394,0.934,1.787,656.677,-1717.286,808.593,0,0,0,
,0.257,0.751,1.654,725.647,-1862,780.09,0,0,0,
,0.319,0.647,1.437,602.905,-1901.673,828.247,0,0,0,
,0.38,0.559,1.191,498.596,-2000,944.702,0,0,0,
,0.301,0.501,0.998,415.893,-2000,1048.217,0,0,0,
,0.198,0.438,0.744,372.802,-2000,1127.136,0,0,0,
,0.163,0.377,0.545,399.963,-2000,1147.461,0,0,0,
,0.181,0.284,0.215,374.633,-2000,1151.489,0,0,0,
,0.153,0.132,-0.025,387.878,-2000,1172.058,0,0,0,
,0.086,0.038,-0.227,331.298,-2000,1176.269,0,0,0,
,0.043,-0.048,-0.412,308.166,-2000,1200.317,0,0,0,
,-0.001,-0.168,-0.651,320.556,-2000,1198.791,0,0,0,
,-0.096,-0.333,-0.816,345.825,-2000,1174.682,0,0,0,
,-0.23,-0.532,-1.01,308.349,-2000,1119.018,0,0,0,
,-0.36,-0.695,-1.195,196.594,-2000,1017.883,0,0,0,
,-0.567,-0.981,-1.558,93.994,-1382.752,666.32,0,0,0,
,-0.6,-1.067,-1.803,2.563,-883.057,336.914,0,0,0,
,-0.569,-0.987,-1.895,-168.702,-284.18,-36.805,0,0,0,
,-0.485,-0.756,-1.843,-356.263,363.098,-411.683,0,0,0,
,-0.4,-0.625,-1.614,-490.967,1002.99,-798.462,0,0,0,
,-0.159,-0.432,-0.995,-563.477,1999.694,-1406.067,0,0,0,
,-0.16,-0.321,-0.765,-403.382,1999.694,-1502.259,0,0,0,
,-0.11,-0.245,-0.565,-333.497,1999.694,-1565.613,0,0,0,
,-0.029,-0.187,-0.443,-385.804,1999.694,-1614.014,0,0,0,
,0.028,-0.24,-0.259,-416.993,1999.694,-1666.932,0,0,0,
,0.463,0.108,1.172,-2.869,1999.694,-1520.813,0,0,0,
,0.966,0.59,1.73,-533.753,1999.694,-1371.582,0,0,0,
,1.199,1.197,2.027,-334.473,1999.694,-1291.687,0,0,0,
,1.173,1.617,2.143,371.887,1999.694,-1184.693,0,0,0,
,0.94,1.238,2.147,767.456,1412.048,-1081.36,0,0,0,
,0.277,0.445,1.744,-206.604,349.853,-337.22,0,0,0,
,0.14,0.615,1.564,-313.66,180.175,-169.19,0,0,0,
,0.011,0.628,1.328,-86.121,35.339,-152.955,0,0,0,
,-0.077,0.459,1.194,180.542,-48.34,-208.252,0,0,0,
,-0.053,0.645,1.255,496.093,-66.346,-151.062,0,0,0,
,-0.066,0.287,1.317,613.281,-113.831,-145.508,0,0,0,
,-0.051,0.041,1.377,411.682,-94.117,-111.939,0,0,0,
,-0.067,-0.098,1.2,140.442,-78.37,-68.97,0,0,0,
,-0.157,0.092,1.045,-60.608,-65.735,-82.703,0,0,0,
,-0.178,0.282,0.921,-8.423,56.64,-36.499,0,0,0,
,-0.096,0.238,0.911,69.519,123.352,-46.448,0,0,0,
,-0.038,0.178,0.961,103.454,121.032,-10.254,0,0,0,
,0,0.146,0.968,102.295,86.608,-17.884,0,0,0,
,0.014,0.151,0.988,57.006,62.988,-12.391,0,0,0,
,0.031,0.137,0.953,-37.354,53.222,-12.207,0,0,0,
,-0.004,0.152,0.92,-96.375,-10.804,-12.513,0,0,0,
,-0.057,0.212,0.971,-118.409,-27.1,1.098,0,0,0,
,-0.07,0.247,0.994,-89.783,-4.334,-17.09,0,0,0,
,-0.067,0.248,0.978,-52.063,0.976,-29.664,0,0,0,
,-0.074,0.225,0.971,-50.293,-11.048,-38.453,0,0,0,
,-0.085,0.229,0.984,-62.317,-17.029,-38.819,0,0,0,
,-0.082,0.232,0.974,-64.026,-5.982,-42.542,0,0,0,
,-0.064,0.238,0.97,-56.641,5.798,-44.678,0,0,0,
,-0.052,0.221,0.964,-46.448,-2.137,-41.871,0,0,0,
,-0.048,0.206,0.964,-49.988,-12.146,-42.542,0,0,0,
,-0.057,0.205,0.962,-65.064,-11.902,-42.908,0,0,0,
,-0.061,0.222,0.972,-87.891,-7.019,-40.162,0,0,0,
,-0.063,0.258,0.972,-87.769,0.61,-34.974,0,0,0,
,-0.067,0.276,0.979,-61.036,0.976,-38.453,0,0,0,
,-0.072,0.259,0.971,-33.02,2.563,-37.049,0,0,0,
,-0.069,0.235,0.964,-33.631,5.92,-37.842,0,0,0,
,-0.057,0.226,0.962,-44.373,15.991,-29.602,0,0,0,
,-0.048,0.237,0.958,-45.96,8.972,-23.072,0,0,0,
,-0.058,0.246,0.954,-41.077,-0.123,-19.165,0,0,0,
,-0.066,0.254,0.955,-39.734,2.197,-14.527,0,0,0,
,-0.063,0.247,0.966,-42.481,6.958,-13.001,0,0,0,
,-0.058,0.234,0.956,-64.026,3.418,-9.705,0,0,0,
,-0.058,0.233,0.956,-104.371,-9.339,-2.503,0,0,0,
,-0.074,0.268,0.952,-126.282,-12.024,-1.404,0,0,0,
,-0.077,0.302,0.952,-106.751,10.986,-9.217,0,0,0,
,-0.064,0.302,0.967,-67.139,23.925,-16.175,0,0,0,
,-0.055,0.265,0.98,-83.497,23.315,-15.259,0,0,0,
,-0.125,0.416,1.17,-222.107,136.474,43.029,0,0,0,
,-0.1,0.443,1.177,-354.798,133.484,61.95,0,0,0,
,-0.085,0.364,1.133,-639.161,-15.381,97.961,0,0,0,
,-0.172,0.536,0.979,-912.72,-128.663,203.247,0,0,0,
,-0.264,0.886,0.849,-830.811,-143.738,222.046,0,0,0,
,-0.255,0.838,0.62,-456.727,-152.71,177.917,0,0,0,
,-0.224,0.622,0.507,-195.069,-225.464,206.421,0,0,0,
,-0.294,0.594,0.517,-150.391,-281.861,267.212,0,0,0,
,-0.378,0.532,0.608,-139.893,-200.745,261.169,0,0,0,
,-0.364,0.527,0.739,-49.134,-32.288,260.07,0,0,0,
,-0.259,0.485,0.808,70.678,83.007,214.294,0,0,0,
,-0.169,0.297,0.832,190.124,142.639,151.367,0,0,0,
,-0.126,0.277,0.865,188.781,202.392,119.14,0,0,0,
,-0.11,0.262,0.888,205.749,222.595,76.599,0,0,0,
,-0.038,0.252,0.911,227.295,230.835,18.432,0,0,0,
,0.026,0.258,0.931,273.742,204.651,-30.579,0,0,0,
,0.06,0.25,0.948,336.609,168.64,-59.937,0,0,0,
,0.073,0.202,0.978,333.007,147.644,-87.891,0,0,0,
,0.096,0.158,0.942,257.202,146.728,-88.196,0,0,0,
,0.114,0.151,0.907,130.493,128.723,-75.013,0,0,0,
,0.134,0.209,0.949,33.874,39.611,-29.602,0,0,0,
,0.083,0.391,1.001,94.299,-63.965,-83.741,0,0,0,
,0.015,0.241,1.002,174.377,-102.356,-106.141,0,0,0,
,-0.034,0.149,1.018,-18.555,-103.272,-109.986,0,0,0,
,-0.08,0.285,1.003,-149.903,-66.102,-135.254,0,0,0,
,-0.064,0.296,1.011,-129.395,-36.499,-124.817,0,0,0,
,-0.06,0.297,1.022,-200.013,-18.982,-129.578,0,0,0,
,-0.077,0.325,0.997,-255.799,-2.381,-120.301,0,0,0,
,-0.087,0.376,0.962,-241.822,6.225,-129.395,0,0,0,
,-0.089,0.376,0.915,-195.984,9.704,-111.206,0,0,0,
,-0.095,0.345,0.892,-157.532,0.915,-116.089,0,0,0,
,-0.1,0.312,0.897,-213.196,-10.071,-118.348,0,0,0,
,-0.096,0.363,0.91,-290.955,-10.315,-128.052,0,0,0,
,-0.073,0.365,0.895,-387.818,-33.387,-144.532,0,0,0,
,-0.05,0.37,0.845,-476.563,15.502,-106.263,0,0,0,
,-0.08,0.475,0.905,-413.331,-6.043,-98.999,0,0,0,
,-0.112,0.469,0.86,-355.286,32.226,-75.135,0,0,0,
,-0.06,0.479,0.832,-290.894,68.603,-41.565,0,0,0,
,-0.006,0.513,0.844,-350.708,40.344,-24.109,0,0,0,
,-0.004,0.541,0.867,-474.915,-28.565,-24.292,0,0,0,
,-0.013,0.633,0.923,-489.014,-99.183,-22.767,0,0,0,
,-0.021,0.688,0.922,-412.537,-165.65,0.305,0,0,0,
,0,0.707,0.922,-329.163,-254.212,54.443,0,0,0,
,0.002,0.808,0.924,-273.438,-369.935,125.793,0,0,0,
,-0.02,0.842,0.894,-215.76,-481.995,185.669,0,0,0,
,-0.068,0.775,0.883,-126.587,-591.736,246.948,0,0,0,
,-0.137,0.792,0.932,-34.18,-673.584,337.158,0,0,0,
,-0.202,0.756,0.955,80.017,-672.791,442.077,0,0,0,
,-0.259,0.741,0.856,163.208,-653.809,562.133,0,0,0,
,-0.282,0.91,0.725,157.043,-674.744,599.792,0,0,0,
,-0.317,0.797,0.654,304.565,-743.47,501.403,0,0,0,
,-0.352,0.466,0.715,343.383,-807.618,499.755,0,0,0,
,-0.448,0.524,0.829,254.211,-789.246,503.112,0,0,0,
,-0.414,0.584,0.843,236.694,-685.975,529.419,0,0,0,
,-0.471,0.353,0.767,101.623,-531.25,625.488,0,0,0,
,-0.542,0.219,0.643,-295.289,-326.111,655.456,0,0,0,
,-0.568,0.246,0.533,-760.315,-112.183,662.231,0,0,0,
,-0.638,0.312,0.477,-1237.549,56.64,662.963,0,0,0,
,-0.661,0.337,0.382,-1420.96,266.418,593.2,0,0,0,
,-0.659,0.404,0.298,-1375.306,434.509,548.889,0,0,0,
,-0.642,0.469,0.235,-1143.433,557.067,498.108,0,0,0,
,-0.612,0.501,0.147,-870.423,668.213,478.759,0,0,0,
,-0.582,0.502,0.119,-578.736,748.108,417.419,0,0,0,
,-0.553,0.481,0.178,-292.115,802.307,345.276,0,0,0,
,-0.512,0.487,0.241,-33.326,843.2,330.322,0,0,0,
,-0.461,0.497,0.404,142.517,860.29,316.955,0,0,0,
,-0.411,0.499,0.556,236.511,849.06,300.903,0,0,0,
,-0.37,0.503,0.644,224.487,830.932,270.874,0,0,0,
,-0.353,0.535,0.728,166.198,815.063,254.272,0,0,0,
,-0.33,0.562,0.745,123.413,791.565,228.454,0,0,0,
,-0.302,0.567,0.791,127.502,739.807,190.246,0,0,0,
,-0.272,0.551,0.831,118.652,679.382,195.861,0,0,0,
,-0.274,0.539,0.79,23.437,543.762,204.284,0,0,0,
,-0.286,0.555,0.853,2.99,489.99,157.409,0,0,0,
,-0.287,0.573,0.883,74.34,433.105,142.273,0,0,0,
,-0.279,0.552,0.88,198.913,371.582,152.038,0,0,0,
,-0.285,0.484,0.854,271.484,292.968,132.629,0,0,0,
,-0.309,0.412,0.844,255.554,219.787,109.924,0,0,0,
,-0.33,0.367,0.843,195.984,199.096,79.711,0,0,0,
,-0.329,0.37,0.839,135.803,170.349,62.377,0,0,0,
,-0.321,0.399,0.885,130.676,129.699,16.052,0,0,0,
,-0.304,0.403,0.902,159.362,81.359,-8.728,0,0,0,
,-0.309,0.375,0.906,188.72,36.377,-39.368,0,0,0,
,-0.316,0.35,0.898,161.255,11.535,-63.355,0,0,0,
,-0.311,0.358,0.889,93.078,15.319,-82.276,0,0,0,
,-0.296,0.383,0.898,44.616,5.188,-97.962,0,0,0,
,-0.282,0.421,0.879,39.062,-26.062,-126.282,0,0,0,
,-0.304,0.414,0.869,87.829,-69.886,-170.96,0,0,0,
,-0.322,0.374,0.859,159.179,-89.6,-202.027,0,0,0,
,-0.315,0.339,0.87,192.321,-100.586,-231.812,0,0,0,
,-0.285,0.363,0.88,192.81,-104.371,-253.602,0,0,0,
,-0.249,0.444,0.889,209.411,-120.179,-267.64,0,0,0,
,-0.237,0.491,0.875,312.011,-156.922,-282.044,0,0,0,
,-0.25,0.429,0.874,435.485,-195.862,-287.598,0,0,0,
,-0.266,0.357,0.904,456.176,-205.14,-283.692,0,0,0,
,-0.255,0.366,0.935,380.859,-178.894,-281.067,0,0,0,
,-0.226,0.388,0.961,312.988,-159.241,-274.72,0,0,0,
,-0.205,0.387,0.955,282.898,-155.518,-252.808,0,0,0,
,-0.211,0.392,0.968,248.962,-153.992,-225.037,0,0,0,
,-0.221,0.411,0.956,196.533,-148.316,-203.003,0,0,0,
,-0.216,0.438,0.961,169.494,-140.32,-189.393,0,0,0,
,-0.223,0.404,0.956,167.541,-137.818,-162.903,0,0,0,
,-0.253,0.389,0.942,159.423,-136.536,-133.667,0,0,0,
,-0.278,0.355,0.929,148.559,-119.324,-104.493,0,0,0,
,-0.296,0.318,0.92,102.539,-98.206,-83.008,0,0,0,
,-0.317,0.313,0.906,48.706,-71.778,-65.125,0,0,0,
,-0.331,0.325,0.904,12.268,-38.88,-54.078,0,0,0,
,-0.338,0.333,0.89,-0.489,-12.757,-45.655,0,0,0,
,-0.338,0.323,0.869,-17.456,8.239,-40.467,0,0,0,
,-0.343,0.366,0.883,-45.227,18.92,-46.631,0,0,0,
,-0.342,0.384,0.883,-38.669,4207.994,812.379,0,0,0,
,-0.341,0.372,0.889,20.69,15.808,-17.09,0,0,0,
,-0.353,0.355,0.876,12.207,12.268,-6.531,0,0,0,
,-0.359,0.361,0.887,-15.076,9.826,6.774,0,0,0,
,-0.36,0.362,0.885,-39.795,14.77,14.526,0,0,0,
,-0.362,0.353,0.893,-66.04,16.601,25.268,0,0,0,
,-0.362,0.346,0.886,-95.887,22.522,29.419,0,0,0,
,-0.366,0.356,0.88,-125.306,22.399,41.381,0,0,0,
,-0.367,0.354,0.851,-150.208,20.324,47.18,0,0,0,
,-0.367,0.357,0.851,-179.444,18.066,66.711,0,0,0,
,-0.372,0.385,0.838,-212.464,20.385,78.552,0,0,0,
,-0.377,0.395,0.823,-199.83,15.38,71.655,0,0,0,
,-0.391,0.358,0.808,-183.899,9.887,88.134,0,0,0,
,-0.401,0.381,0.781,-212.647,30.822,119.14,0,0,0,
,-0.403,0.406,0.766,-209.351,36.01,130.127,0,0,0,
,-0.408,0.419,0.775,-188.416,38.208,137.756,0,0,0,
,-0.417,0.418,0.781,-176.636,43.579,147.827,0,0,0,
,-0.426,0.407,0.767,-173.279,59.326,157.776,0,0,0,
,-0.426,0.42,0.779,-191.346,74.279,172.973,0,0,0,
,-0.43,0.44,0.778,-183.777,93.811,172.18,0,0,0,
,-0.425,0.436,0.767,-141.602,112.487,180.542,0,0,0,
,-0.418,0.422,0.767,-136.841,125.915,197.692,0,0,0,
,-0.412,0.429,0.762,-147.828,132.995,201.049,0,0,0,
,-0.417,0.438,0.771,-146.668,139.709,205.566,0,0,0,
,-0.416,0.429,0.77,-130.738,146.606,203.613,0,0,0,
,-0.422,0.404,0.76,-122.742,151.977,193.664,0,0,0,
,-0.42,0.388,0.758,-119.812,160.888,182.373,0,0,0,
,-0.421,0.383,0.766,-119.446,167.541,164.55,0,0,0,
,-0.416,0.381,0.775,-91.492,176.757,142.944,0,0,0,
,-0.407,0.365,0.772,-58.167,182.556,129.943,0,0,0,
,-0.399,0.342,0.78,-37.72,182.251,110.473,0,0,0,
,-0.388,0.362,0.788,-40.955,177.856,89.233,0,0,0,
,-0.387,0.396,0.797,-11.719,171.875,53.344,0,0,0,
,-0.37,0.425,0.807,62.744,171.447,22.705,0,0,0,
,-0.355,0.461,0.836,161.255,158.996,-1.893,0,0,0,
,-0.333,0.465,0.873,262.39,144.287,-25.513,0,0,0,
,-0.312,0.413,0.865,358.642,107.177,-41.81,0,0,0,
,-0.317,0.36,0.851,382.568,63.11,-50.232,0,0,0,
,-0.317,0.296,0.913,352.966,34.79,-109.192,0,0,0,
,-0.286,0.282,0.928,380.493,16.052,-124.878,0,0,0,
,-0.265,0.243,0.941,355.468,-3.479,-137.818,0,0,0,
,-0.261,0.214,0.943,295.349,-20.997,-158.936,0,0,0,
,-0.251,0.254,0.95,231.079,-26.185,-166.871,0,0,0,
,-0.204,0.275,0.971,327.88,-102.784,-229.432,0,0,0,
,-0.208,0.26,0.992,339.721,-120.301,-249.329,0,0,0,
,-0.194,0.223,1.008,301.513,-119.751,-255.982,0,0,0,
,-0.181,0.224,1.033,214.294,-135.193,-251.77,0,0,0,
,-0.194,0.24,1.017,152.588,-151.917,-253.785,0,0,0,
,-0.226,0.272,0.979,352.417,-178.711,-233.277,0,0,0,
,-0.242,0.185,0.983,355.163,-174.073,-226.136,0,0,0,
,-0.27,0.164,0.99,278.259,-148.377,-217.408,0,0,0,
,-0.276,0.166,0.996,188.415,-112.854,-213.562,0,0,0,
,-0.278,0.18,0.973,126.098,-89.905,-207.581,0,0,0,
,-0.283,0.177,0.969,99.609,-76.539,-186.768,0,0,0,
,-0.295,0.198,0.98,79.04,-66.346,-167.847,0,0,0,
,-0.293,0.225,0.967,49.011,-49.134,-157.044,0,0,0,
,-0.294,0.255,0.956,48.889,-51.331,-164.978,0,0,0,
,-0.298,0.214,0.952,74.279,-64.515,-155.701,0,0,0,
,-0.32,0.2,0.951,51.452,-70.008,-151.795,0,0,0,
,-0.334,0.221,0.949,15.808,-59.632,-146.485,0,0,0,
,-0.33,0.225,0.942,-7.203,-48.706,-131.165,0,0,0,
,-0.331,0.226,0.936,-31.678,-44.861,-117.127,0,0,0,
,-0.336,0.215,0.907,-59.205,-41.321,-92.713,0,0,0,
,-0.338,0.239,0.911,-91.98,-33.448,-65.979,0,0,0,
,-0.338,0.268,0.897,-104.554,-24.659,-45.044,0,0,0,
,-0.338,0.299,0.883,-107.789,-21.912,-16.175,0,0,0,
,-0.346,0.317,0.868,-126.282,-21.79,-16.846,0,0,0,
,-0.36,0.285,0.871,-162.598,-29.969,-22.706,0,0,0,
,-0.379,0.27,0.877,-191.407,-28.443,-20.264,0,0,0,
,-0.392,0.281,0.883,-221.07,-20.63,-0.306,0,0,0,
,-0.393,0.299,0.877,-253.663,-14.466,17.578,0,0,0,
,-0.392,0.327,0.869,-284.668,-27.527,30.456,0,0,0,
,-0.404,0.355,0.869,-280.823,-43.519,28.869,0,0,0,
,-0.42,0.343,0.863,-230.469,-61.768,39.428,0,0,0,
,-0.438,0.322,0.847,-209.656,-67.688,54.504,0,0,0,
,-0.461,0.308,0.842,-225.464,-68.665,66.772,0,0,0,
,-0.481,0.306,0.821,-233.399,-51.514,86.181,0,0,0,
,-0.495,0.314,0.821,-239.93,-13.245,113.647,0,0,0,
,-0.498,0.307,0.813,-251.954,19.104,130.92,0,0,0,
,-0.498,0.322,0.797,-275.94,52.551,145.019,0,0,0,
,-0.497,0.336,0.78,-275.025,89.599,161.987,0,0,0,
,-0.486,0.326,0.749,-275.025,104.919,178.527,0,0,0,
,-0.48,0.347,0.751,-291.871,121.46,180.969,0,0,0,
,-0.481,0.374,0.741,-296.387,126.403,183.288,0,0,0,
,-0.455,0.355,0.757,-194.519,156.677,165.832,0,0,0,
,-0.448,0.341,0.763,-178.65,153.381,155.7,0,0,0,
,-0.447,0.344,0.772,-185.181,159.973,150.756,0,0,0,
,-0.444,0.335,0.78,-194.703,157.776,137.207,0,0,0,
,-0.432,0.358,0.802,-143.006,164.672,99.426,0,0,0,
,-0.453,0.337,0.793,-102.662,134.765,84.716,0,0,0,
,-0.476,0.33,0.788,-47.791,124.023,64.514,0,0,0,
,-0.473,0.357,0.807,-14.771,135.131,42.724,0,0,0,
,-0.434,0.382,0.839,81.115,143.005,9.765,0,0,0,
,-0.367,0.316,0.928,346.862,47.18,-50.049,0,0,0,
,-0.351,0.293,0.967,313.781,37.902,-70.679,0,0,0,
,-0.324,0.287,0.988,254.211,38.147,-80.506,0,0,0,
,-0.296,0.3,0.989,172.485,30.273,-84.961,0,0,0,
,-0.271,0.36,0.99,120.544,22.399,-87.403,0,0,0,
,-0.256,0.432,0.971,125.915,10.559,-97.779,0,0,0,
,-0.233,0.415,0.941,217.651,-11.17,-96.375,0,0,0,
,-0.228,0.362,0.921,280.761,-38.392,-91.004,0,0,0,
,-0.228,0.337,0.912,302.185,-56.336,-96.619,0,0,0,
,-0.217,0.309,0.93,322.509,-69.397,-108.155,0,0,0,
,-0.202,0.292,0.94,340.698,-83.924,-124.512,0,0,0,
,-0.206,0.245,0.941,373.413,-105.225,-150.696,0,0,0,
,-0.227,0.192,0.935,358.459,-115.174,-166.199,0,0,0,
,-0.243,0.179,0.94,282.165,-114.136,-193.299,0,0,0,
,-0.245,0.223,0.934,215.515,-100.159,-229.615,0,0,0,
,-0.229,0.27,0.947,191.345,-95.215,-268.433,0,0,0,
,-0.21,0.274,0.967,205.566,-101.99,-278.199,0,0,0,
,-0.223,0.265,0.973,177.917,-104.737,-277.71,0,0,0,
,-0.246,0.24,0.978,106.018,-79.468,-266.175,0,0,0,
,-0.258,0.252,0.968,-10.376,-72.388,-253.785,0,0,0,
,-0.268,0.285,0.964,-114.441,-39.734,-236.634,0,0,0,
,-0.265,0.348,0.932,-140.442,-8.362,-202.576,0,0,0,
,-0.272,0.412,0.896,-99.976,-14.71,-166.626,0,0,0,
,-0.292,0.415,0.875,-27.588,-34.607,-144.41,0,0,0,
,-0.314,0.368,0.89,34.79,-48.34,-95.643,0,0,0,
,-0.338,0.329,0.89,49.865,-45.96,-77.149,0,0,0,
,-0.362,0.31,0.898,27.282,-28.992,-62.195,0,0,0,
,-0.375,0.283,0.9,11.108,-3.846,-30.091,0,0,0,
,-0.385,0.271,0.892,-21.302,23.437,-4.334,0,0,0,
,-0.387,0.278,0.875,-33.02,47.18,8.728,0,0,0,
,-0.372,0.297,0.881,-24.842,54.809,30.334,0,0,0,
,-0.371,0.277,0.885,-22.522,30.822,49.865,0,0,0,
,-0.399,0.255,0.889,-65.918,9.094,69.946,0,0,0,
,-0.441,0.258,0.875,-144.227,9.887,92.224,0,0,0,
,-0.457,0.274,0.872,-213.196,32.714,114.807,0,0,0,
,-0.456,0.294,0.823,-278.321,57.8,147.4,0,0,0,
,-0.465,0.329,0.795,-317.383,67.688,176.513,0,0,0,
,-0.472,0.374,0.757,-337.342,87.707,202.331,0,0,0,
,-0.473,0.382,0.759,-311.768,106.933,213.928,0,0,0,
,-0.463,0.383,0.744,-278.931,122.619,240.661,0,0,0,
,-0.453,0.384,0.745,-271.302,130.188,253.784,0,0,0,
,-0.449,0.396,0.747,-264.649,129.394,263.61,0,0,0,
,-0.451,0.396,0.756,-248.902,126.464,274.414,0,0,0,
,-0.453,0.38,0.768,-248.963,134.033,275.512,0,0,0,
,-0.44,0.364,0.778,-259.888,144.287,276.184,0,0,0,
,-0.434,0.359,0.773,-278.565,145.63,274.17,0,0,0,
,-0.431,0.371,0.782,-283.875,147.4,273.742,0,0,0,
,-0.43,0.383,0.775,-255.799,143.798,264.282,0,0,0,
,-0.432,0.363,0.782,-206.36,135.192,241.211,0,0,0,
,-0.432,0.359,0.787,-153.931,138.549,227.661,0,0,0,
,-0.422,0.359,0.807,-96.924,142.639,210.937,0,0,0,
,-0.408,0.35,0.822,-49.012,140.319,185.73,0,0,0,
,-0.409,0.377,0.831,16.723,125.854,158.447,0,0,0,
,-0.415,0.388,0.856,119.018,114.257,132.141,0,0,0,
,-0.409,0.386,0.869,213.562,108.398,112.06,0,0,0,
,-0.394,0.345,0.894,287.78,98.632,100.525,0,0,0,
,-0.388,0.292,0.924,315.429,81.237,94.36,0,0,0,
,-0.396,0.269,0.944,313.415,67.504,83.923,0,0,0,
,-0.4,0.244,0.951,316.223,66.345,55.358,0,0,0,
,-0.383,0.234,0.961,314.453,80.566,21.484,0,0,0,
,-0.346,0.247,0.947,322.998,85.754,-14.161,0,0,0,
,-0.31,0.206,0.945,338.501,53.894,-46.753,0,0,0,
,-0.308,0.141,0.942,268.798,9.887,-81.971,0,0,0,
,-0.299,0.199,0.969,-130.982,33.142,-204.407,0,0,0,
,-0.262,0.311,0.94,-134.4,33.264,-244.324,0,0,0,
,-0.23,0.357,0.912,-11.902,-10.926,-273.438,0,0,0,
,-0.24,0.306,0.9,137.695,-69.642,-296.143,0,0,0,
,-0.205,0.308,0.975,113.769,-96.741,-314.515,0,0,0,
,-0.184,0.365,0.947,185.18,-114.197,-282.837,0,0,0,
,-0.188,0.345,0.966,303.161,-149.231,-266.541,0,0,0,
,-0.211,0.289,0.941,352.844,-181.824,-249.207,0,0,0,
,-0.237,0.233,0.961,307.129,-178.956,-242.188,0,0,0,
,-0.237,0.25,0.975,250.732,-154.602,-236.939,0,0,0,
,-0.228,0.272,0.97,275.268,-133.118,-222.046,0,0,0,
,-0.229,0.246,0.954,307.312,-128.785,-204.956,0,0,0,
,-0.255,0.224,0.969,285.766,-126.587,-199.28,0,0,0,
,-0.274,0.188,0.965,225.463,-114.258,-189.209,0,0,0,
,-0.289,0.218,0.963,153.564,-105.286,-181.641,0,0,0,
,-0.289,0.247,0.961,154.419,-94.605,-168.213,0,0,0,
,-0.295,0.233,0.957,167.968,-95.337,-155.396,0,0,0,
,-0.316,0.219,0.961,155.09,-95.948,-142.456,0,0,0,
,-0.329,0.226,0.975,106.323,-86.121,-137.33,0,0,0,
,-0.33,0.208,0.956,51.879,-77.515,-118.042,0,0,0,
,-0.35,0.184,0.947,-40.345,-75.501,-94.788,0,0,0,
,-0.372,0.218,0.937,-149.292,-62.073,-81.91,0,0,0,
,-0.378,0.256,0.919,-222.962,-38.819,-62.623,0,0,0,
,-0.385,0.292,0.882,-250.977,-34.852,-44.495,0,0,0,
,-0.401,0.307,0.86,-237.122,-46.692,-33.509,0,0,0,
,-0.415,0.297,0.851,-187.378,-59.266,-16.419,0,0,0,
,-0.431,0.283,0.859,-160.767,-67.2,-0.794,0,0,0,
,-0.438,0.291,0.871,-152.588,-74.28,3.418,0,0,0,
,-0.448,0.289,0.853,-137.513,-75.684,10.437,0,0,0,
,-0.464,0.253,0.831,-122.864,-83.68,30.944,0,0,0,
,-0.476,0.23,0.846,-171.57,-77.82,30.395,0,0,0,
,-0.49,0.242,0.831,-234.681,-62.073,35.461,0,0,0,
,-0.508,0.258,0.782,-270.508,-50.721,57.373,0,0,0,
,-0.524,0.253,0.807,-398.621,-55.97,86.914,0,0,0,
,-0.551,0.351,0.791,-407.288,8.85,116.882,0,0,0,
,-0.531,0.366,0.758,-357.239,48.217,125.549,0,0,0,
,-0.503,0.378,0.748,-297.669,59.814,126.648,0,0,0,
,-0.504,0.382,0.741,-238.526,42.419,136.291,0,0,0,
,-0.519,0.361,0.74,-187.5,37.658,144.348,0,0,0,
,-0.527,0.348,0.737,-158.448,49.743,147.705,0,0,0,
,-0.528,0.348,0.743,-130.982,80.871,140.686,0,0,0,
,-0.511,0.329,0.747,-91.675,114.196,143.127,0,0,0,
,-0.495,0.296,0.751,-109.009,131.225,139.221,0,0,0,
,-0.476,0.272,0.77,-153.016,144.714,129.76,0,0,0,
,-0.468,0.259,0.79,-210.328,133.911,120.666,0,0,0,
,-0.482,0.32,0.809,-251.893,141.906,120.788,0,0,0,
,-0.476,0.344,0.807,-233.887,166.687,96.801,0,0,0,
,-0.458,0.337,0.809,-217.652,174.56,76.66,0,0,0,
,-0.443,0.359,0.811,-207.276,167.419,67.382,0,0,0,
,-0.434,0.373,0.817,-186.036,158.569,57.983,0,0,0,
,-0.436,0.357,0.825,-176.453,149.17,46.447,0,0,0,
,-0.436,0.359,0.834,-170.472,139.099,46.508,0,0,0,
,-0.438,0.37,0.837,-151.551,135.192,35.766,0,0,0,
,-0.441,0.377,0.829,-103.821,143.005,30.822,0,0,0,
,-0.423,0.364,0.827,-79.346,157.959,8.667,0,0,0,
,-0.397,0.353,0.824,-73.121,153.747,-1.404,0,0,0,
,-0.375,0.385,0.848,-65.613,143.921,-12.024,0,0,0,
,-0.356,0.41,0.876,-28.077,128.173,-21.607,0,0,0,
,-0.341,0.396,0.875,18.615,103.942,-38.269,0,0,0,
,-0.342,0.379,0.861,49.255,80.444,-44.922,0,0,0,
,-0.329,0.358,0.921,35.095,81.42,-46.326,0,0,0,
,-0.351,0.416,0.851,74.951,81.787,-41.382,0,0,0,
,-0.329,0.412,0.844,155.273,86.792,-80.994,0,0,0,
,-0.307,0.401,0.84,201.904,80.2,-88.379,0,0,0,
,-0.294,0.366,0.862,253.906,38.33,-108.155,0,0,0,
,-0.304,0.341,0.871,263.549,8.85,-115.54,0,0,0,
,-0.321,0.333,0.893,267.334,-1.77,-143.311,0,0,0,
,-0.327,0.334,0.898,280.212,13.916,-154.969,0,0,0,
,-0.295,0.355,0.921,294.922,36.804,-182.435,0,0,0,
,-0.251,0.377,0.917,333.862,27.16,-190.918,0,0,0,
,-0.235,0.343,0.919,399.353,-27.161,-200.806,0,0,0,
,-0.249,0.286,0.945,401.123,-76.111,-203.003,0,0,0,
,-0.264,0.262,0.974,326.477,-87.525,-213.99,0,0,0,
,-0.261,0.275,0.986,251.098,-83.558,-210.389,0,0,0,
,-0.255,0.316,0.989,205.627,-84.351,-215.027,0,0,0,
,-0.249,0.329,0.968,258.85,-92.957,-203.431,0,0,0,
,-0.247,0.327,0.956,301.635,-104.493,-183.35,0,0,0,
,-0.253,0.301,0.953,326.599,-120.728,-176.636,0,0,0,
,-0.265,0.259,0.94,316.162,-123.902,-161.194,0,0,0,
,-0.285,0.222,0.939,276.001,-125.428,-152.283,0,0,0,
,-0.309,0.208,0.947,217.956,-113.648,-148.804,0,0,0,
,-0.311,0.219,0.939,181.335,-91.248,-153.87,0,0,0,
,-0.302,0.249,0.938,167.053,-72.571,-153.199,0,0,0,
,-0.299,0.232,0.914,179.626,-80.628,-147.217,0,0,0,
,-0.316,0.214,0.917,158.386,-91.736,-142.212,0,0,0,
,-0.34,0.212,0.917,114.38,-87.281,-146.424,0,0,0,
,-0.346,0.219,0.926,80.261,-72.083,-142.884,0,0,0,
,-0.351,0.22,0.915,46.02,-62.561,-138.184,0,0,0,
,-0.352,0.244,0.916,16.54,-54.017,-139.466,0,0,0,
,-0.347,0.294,0.924,28.442,-45.96,-131.653,0,0,0,
,-0.341,0.307,0.929,78.674,-48.706,-119.507,0,0,0,
,-0.334,0.292,0.907,110.29,-68.909,-90.699,0,0,0,
,-0.371,0.228,0.916,84.411,-108.704,-91.431,0,0,0,
,-0.393,0.252,0.941,16.967,-87.525,-59.327,0,0,0,
,-0.388,0.278,0.946,-4.029,-69.031,-43.457,0,0,0,
,-0.383,0.262,0.945,-14.283,-75.501,-23.438,0,0,0,
,-0.389,0.274,0.955,-32.593,-76.05,2.014,0,0,0,
,-0.391,0.285,0.967,-19.837,-70.557,37.292,0,0,0,
,-0.395,0.297,0.96,-6.348,-79.712,76.782,0,0,0,
,-0.415,0.287,0.941,-16.053,-88.807,91.735,0,0,0,
,-0.437,0.223,0.89,-38.514,-85.816,100.097,0,0,0,
,-0.451,0.222,0.837,-95.093,-72.998,105.163,0,0,0,
,-0.456,0.223,0.817,-156.311,-46.753,102.295,0,0,0,
,-0.448,0.233,0.817,-186.463,-37.964,118.591,0,0,0,
,-0.454,0.241,0.802,-188.66,-50.599,132.995,0,0,0,
,-0.473,0.239,0.796,-201.539,-51.575,137.329,0,0,0,
,-0.487,0.245,0.788,-217.164,-35.706,139.221,0,0,0,
,-0.489,0.247,0.795,-223.389,-9.888,141.113,0,0,0,
,-0.482,0.236,0.787,-224.732,9.887,151.001,0,0,0,
,-0.483,0.227,0.775,-246.033,18.432,162.78,0,0,0,
,-0.493,0.237,0.753,-300.171,35.217,167.907,0,0,0,
,-0.501,0.251,0.75,-333.374,64.758,157.226,0,0,0,
,-0.493,0.263,0.746,-346.985,97.106,162.658,0,0,0,
,-0.485,0.28,0.755,-344.666,115.905,163.025,0,0,0,
,-0.477,0.279,0.751,-333.741,126.281,154.297,0,0,0,
,-0.478,0.267,0.75,-325.501,136.596,148.864,0,0,0,
,-0.474,0.281,0.778,-344.361,149.353,138.122,0,0,0,
,-0.465,0.34,0.781,-323.914,170.715,135.376,0,0,0,
,-0.452,0.339,0.793,-266.175,164.428,107.727,0,0,0,
,-0.445,0.335,0.798,-226.99,161.987,99.975,0,0,0,
,-0.443,0.349,0.814,-195.069,162.17,93.078,0,0,0,
,-0.44,0.347,0.811,-170.533,160.461,71.35,0,0,0,
,-0.437,0.347,0.809,-144.837,152.16,63.72,0,0,0,
,-0.435,0.359,0.822,-120.728,143.188,57.373,0,0,0,
,-0.439,0.354,0.823,-95.704,140.503,38.513,0,0,0,
,-0.439,0.349,0.831,-55.848,143.432,27.343,0,0,0,
,-0.433,0.34,0.827,-26.185,142.761,1.525,0,0,0,
,-0.429,0.345,0.836,12.39,139.587,-21.607,0,0,0,
,-0.426,0.345,0.85,77.27,141.174,-42.664,0,0,0,
,-0.412,0.334,0.843,147.094,150.268,-69.947,0,0,0,
,-0.398,0.319,0.867,208.007,153.32,-96.68,0,0,0,
,-0.356,0.285,0.892,219.299,161.56,-124.39,0,0,0,
,-0.327,0.283,0.9,238.464,133.667,-127.259,0,0,0,
,-0.315,0.285,0.916,244.995,97.778,-152.832,0,0,0,
,-0.31,0.301,0.949,252.685,73.913,-173.462,0,0,0,
,-0.297,0.295,0.961,271.85,59.509,-196.778,0,0,0,
,-0.275,0.3,0.965,275.268,46.203,-220.459,0,0,0,
,-0.25,0.304,0.979,285.095,22.888,-236.023,0,0,0,
,-0.225,0.277,0.989,294.983,-16.846,-234.314,0,0,0,
,-0.228,0.252,0.978,260.009,-56.031,-239.93,0,0,0,
,-0.238,0.276,0.978,225.463,-72.083,-243.164,0,0,0,
,-0.234,0.321,0.977,230.957,-76.355,-243.103,0,0,0,
,-0.218,0.321,0.967,282.776,-90.943,-252.259,0,0,0,
,-0.209,0.294,0.968,319.336,-113.648,-240.601,0,0,0,
,-0.227,0.264,0.997,312.622,-142.456,-227.784,0,0,0,
,-0.244,0.247,0.997,264.282,-136.292,-204.895,0,0,0,
,-0.264,0.238,1.002,199.829,-125.733,-188.233,0,0,0,
,-0.275,0.281,0.982,133.3,-107.178,-171.082,0,0,0,
,-0.28,0.269,0.972,87.707,-92.041,-146.851,0,0,0,
,-0.294,0.284,0.97,73.974,-94.91,-134.522,0,0,0,
,-0.306,0.289,0.955,88.501,-97.229,-121.644,0,0,0,
,-0.321,0.285,0.949,113.281,-110.169,-107.239,0,0,0,
,-0.348,0.288,0.957,132.69,-113.465,-101.319,0,0,0,
,-0.36,0.271,0.95,156.616,-115.723,-83.069,0,0,0,
,-0.367,0.254,0.944,155.151,-123.841,-74.524,0,0,0,
,-0.382,0.248,0.94,129.76,-128.174,-73.182,0,0,0,
,-0.388,0.237,0.916,100.402,-125.672,-58.716,0,0,0,
,-0.387,0.24,0.905,72.631,-126.404,-37.049,0,0,0,
,-0.392,0.24,0.909,68.115,-140.198,-25.391,0,0,0,
,-0.4,0.237,0.922,57.006,-151.917,-6.775,0,0,0,
,-0.408,0.23,0.916,37.963,-155.762,8.606,0,0,0,
,-0.42,0.225,0.898,6.897,-161.377,21.484,0,0,0,
,-0.44,0.236,0.902,-34.974,-161.194,27.343,0,0,0,
,-0.447,0.255,0.877,-44.861,-141.236,41.076,0,0,0,
,-0.45,0.256,0.872,-14.954,-131.836,49.377,0,0,0,
,-0.458,0.225,0.866,-11.048,-134.4,61.096,0,0,0,
,-0.473,0.21,0.867,-20.142,-126.526,73.425,0,0,0,
,-0.482,0.192,0.839,-52.796,-107.972,84.106,0,0,0,
,-0.486,0.177,0.82,-110.84,-89.6,96.801,0,0,0,
,-0.488,0.197,0.804,-179.261,-76.539,118.774,0,0,0,
,-0.502,0.207,0.798,-216.309,-63.782,129.15,0,0,0,
,-0.516,0.228,0.784,-254.639,-44.434,143.554,0,0,0,
,-0.528,0.225,0.775,-267.823,-10.926,148.132,0,0,0,
,-0.528,0.235,0.742,-276.551,38.879,168.701,0,0,0,
,-0.524,0.234,0.724,-301.758,70.007,170.349,0,0,0,
,-0.525,0.242,0.709,-326.477,98.571,188.354,0,0,0,
,-0.521,0.25,0.718,-337.159,125.976,199.218,0,0,0,
,-0.518,0.261,0.712,-343.201,154.358,196.96,0,0,0,
,-0.512,0.256,0.732,-336.304,161.865,188.11,0,0,0,
,-0.51,0.277,0.752,-324.402,182.129,190.918,0,0,0,
,-0.499,0.284,0.774,-305.237,199.34,176.757,0,0,0,
,-0.485,0.286,0.773,-288.575,204.834,171.02,0,0,0,
,-0.484,0.292,0.775,-273.133,195.984,160.644,0,0,0,
,-0.487,0.314,0.788,-244.202,192.016,142.089,0,0,0,
,-0.489,0.326,0.793,-190.247,197.57,119.873,0,0,0,
,-0.487,0.317,0.797,-126.099,208.252,91.674,0,0,0,
,-0.474,0.36,0.795,-35.706,241.088,77.27,0,0,0,
,-0.435,0.343,0.79,79.223,244.751,31.311,0,0,0,
,-0.393,0.311,0.807,173.828,206.604,3.173,0,0,0,
,-0.382,0.297,0.837,244.079,149.109,-31.678,0,0,0,
,-0.387,0.252,0.862,303.161,101.318,-46.753,0,0,0,
,-0.386,0.178,0.893,326.049,63.293,-48.462,0,0,0,
,-0.397,0.143,0.92,270.996,67.688,-62.073,0,0,0,
,-0.404,0.156,0.923,183.166,99.548,-83.558,0,0,0,
,-0.378,0.181,0.895,144.653,124.023,-105.225,0,0,0,
,-0.34,0.204,0.916,157.592,116.272,-130.31,0,0,0,
,-0.311,0.229,0.942,208.252,84.716,-153.016,0,0,0,
,-0.297,0.198,0.983,246.215,52.124,-174.134,0,0,0,
,-0.295,0.164,0.969,232.727,26.672,-181.031,0,0,0,
,-0.294,0.192,1.005,203.064,23.01,-196.961,0,0,0,
,-0.273,0.242,1.003,215.393,19.226,-214.478,0,0,0,
,-0.24,0.259,1.014,280.944,-10.315,-227.295,0,0,0,
,-0.22,0.235,1.007,341.308,-67.566,-236.878,0,0,0,
,-0.238,0.195,1.02,352.783,-119.263,-242.371,0,0,0,
,-0.261,0.187,1.026,309.875,-144.959,-238.221,0,0,0,
,-0.277,0.201,1.024,263.977,-145.874,-229.92,0,0,0,
,-0.289,0.204,1.002,248.169,-150.818,-209.961,0,0,0,
,-0.311,0.19,0.992,243.042,-157.959,-199.524,0,0,0,
,-0.329,0.156,0.981,234.008,-152.039,-188.66,0,0,0,
,-0.334,0.122,0.979,193.176,-144.288,-174.866,0,0,0,
,-0.346,0.135,0.97,155.212,-137.94,-167.664,0,0,0,
,-0.359,0.151,0.983,132.812,-135.926,-168.946,0,0,0,
,-0.369,0.153,0.962,129.089,-129.334,-172.486,0,0,0,
,-0.382,0.143,0.96,128.479,-125.184,-171.875,0,0,0,
,-0.388,0.152,0.953,123.718,-123.719,-170.472,0,0,0,
,-0.393,0.141,0.958,124.45,-124.024,-157.532,0,0,0,
,-0.402,0.158,0.951,106.201,-127.076,-150.574,0,0,0,
,-0.427,0.17,0.949,98.571,-131.714,-141.297,0,0,0,
,-0.441,0.147,0.951,92.041,-118.714,-113.953,0,0,0,
,-0.45,0.134,0.937,44.311,-106.629,-103.882,0,0,0,
,-0.457,0.137,0.927,-25.025,-98.267,-83.985,0,0,0,
,-0.463,0.147,0.933,-85.755,-89.356,-62.195,0,0,0,
,-0.468,0.175,0.914,-129.334,-76.416,-40.467,0,0,0,
,-0.473,0.197,0.913,-135.132,-69.153,-19.471,0,0,0,
,-0.475,0.206,0.905,-122.01,-52.979,3.356,0,0,0,
,-0.471,0.207,0.895,-109.803,-43.885,29.968,0,0,0,
,-0.475,0.191,0.863,-101.502,-42.542,45.776,0,0,0,
,-0.478,0.179,0.857,-127.381,-42.725,61.584,0,0,0,
,-0.48,0.202,0.879,-153.626,-36.866,67.688,0,0,0,
,-0.466,0.228,0.879,-144.227,-28.626,76.782,0,0,0,
,-0.459,0.216,0.868,-119.507,-51.819,81.97,0,0,0,
,-0.476,0.178,0.834,-127.503,-67.994,84.655,0,0,0,
,-0.495,0.184,0.823,-167.603,-64.393,93.75,0,0,0,
,-0.496,0.199,0.796,-195.069,-40.345,100.83,0,0,0,
,-0.494,0.209,0.811,-203.248,-30.274,112.915,0,0,0,
,-0.498,0.205,0.787,-217.53,-15.748,111.45,0,0,0,
,-0.508,0.196,0.779,-242.859,-1.038,117.981,0,0,0,
,-0.508,0.2,0.769,-270.447,18.249,129.455,0,0,0,
,-0.507,0.209,0.781,-308.594,27.343,138.427,0,0,0,
,-0.512,0.218,0.772,-329.834,38.391,138.122,0,0,0,
,-0.52,0.208,0.753,-352.967,53.1,144.226,0,0,0,
,-0.524,0.23,0.753,-376.038,70.861,150.573,0,0,0,
,-0.526,0.256,0.757,-382.019,91.98,148.376,0,0,0,
,-0.524,0.251,0.735,-362.244,110.351,125.244,0,0,0,
,-0.528,0.242,0.743,-351.929,128.784,136.901,0,0,0,
,-0.53,0.231,0.752,-353.089,158.02,127.136,0,0,0,
,-0.523,0.233,0.757,-362,183.105,118.469,0,0,0,
,-0.518,0.256,0.753,-374.756,199.401,99.548,0,0,0,
,-0.51,0.301,0.767,-350.892,206.543,62.377,0,0,0,
,-0.492,0.326,0.757,-274.842,204.651,33.508,0,0,0,
,-0.479,0.342,0.748,-204.041,184.753,7.629,0,0,0,
,-0.466,0.387,0.75,-111.39,168.64,-7.325,0,0,0,
,-0.458,0.418,0.746,23.986,140.075,-24.537,0,0,0,
,-0.457,0.391,0.755,150.207,106.872,-43.457,0,0,0,
,-0.458,0.3,0.767,234.436,81.237,-61.28,0,0,0,
,-0.468,0.226,0.788,233.764,81.726,-64.637,0,0,0,
,-0.471,0.187,0.832,176.086,91.247,-74.769,0,0,0,
,-0.46,0.207,0.86,101.867,120.056,-90.577,0,0,0,
,-0.434,0.251,0.87,62.011,143.127,-109.314,0,0,0,
,-0.378,0.278,0.88,61.218,147.4,-127.869,0,0,0,
,-0.386,0.302,0.887,90.576,131.591,-154.602,0,0,0,
,-0.361,0.32,0.906,146.057,118.103,-165.101,0,0,0,
,-0.337,0.304,0.92,193.115,80.261,-169.739,0,0,0,
,-0.337,0.293,0.942,214.172,34.057,-188.355,0,0,0,
,-0.335,0.294,0.957,217.651,14.648,-198.67,0,0,0,
,-0.326,0.309,0.975,239.685,5.432,-208.435,0,0,0,
,-0.298,0.319,0.976,271.362,-7.203,-213.807,0,0,0,
,-0.287,0.293,0.971,286.682,-51.636,-220.887,0,0,0,
,-0.307,0.255,0.969,262.207,-87.708,-224.488,0,0,0,
,-0.32,0.258,0.987,217.163,-90.882,-218.384,0,0,0,
,-0.315,0.28,0.991,201.782,-80.14,-213.074,0,0,0,
,-0.3,0.284,0.978,210.205,-76.233,-207.459,0,0,0,
,-0.305,0.291,0.95,229.919,-88.44,-205.75,0,0,0,
,-0.316,0.261,0.946,242.675,-95.581,-197.388,0,0,0,
,-0.325,0.24,0.969,225.28,-97.535,-184.449,0,0,0,
,-0.331,0.234,0.978,204.589,-96.07,-172.791,0,0,0,
,-0.344,0.24,0.97,188.232,-93.811,-163.086,0,0,0,
,-0.357,0.239,0.96,178.344,-91.858,-156.861,0,0,0,
,-0.367,0.24,0.942,170.471,-90.638,-144.715,0,0,0,
,-0.369,0.242,0.932,171.753,-94.239,-136.597,0,0,0,
,-0.383,0.226,0.939,180.542,-106.873,-110.291,0,0,0,
,-0.398,0.237,0.951,179.504,-108.582,-116.089,0,0,0,
,-0.399,0.208,0.954,171.569,-104.31,-105.896,0,0,0,
,-0.411,0.174,0.934,129.455,-110.413,-91.797,0,0,0,
,-0.433,0.184,0.925,57.434,-108.033,-81.36,0,0,0,
,-0.445,0.196,0.921,18.188,-92.347,-65.552,0,0,0,
,-0.434,0.191,0.898,-11.353,-75.989,-47.547,0,0,0,
,-0.438,0.195,0.894,-25.513,-72.449,-35.096,0,0,0,
,-0.442,0.232,0.912,-37.11,-61.28,-24.72,0,0,0,
,-0.419,0.236,0.884,-8.545,-74.952,-20.325,0,0,0,
,-0.433,0.208,0.855,-30.945,-99.549,-13.794,0,0,0,
,-0.448,0.2,0.872,-91.309,-110.535,-8.362,0,0,0,
,-0.458,0.234,0.884,-151.368,-102.906,0.976,0,0,0,
,-0.463,0.25,0.879,-183.228,-92.347,0.793,0,0,0,
,-0.467,0.244,0.881,-202.881,-87.708,9.155,0,0,0,
,-0.464,0.28,0.889,-209.839,-75.745,27.526,0,0,0,
,-0.463,0.277,0.854,-189.942,-71.228,41.076,0,0,0,
,-0.471,0.258,0.833,-190.308,-75.623,63.415,0,0,0,
,-0.492,0.253,0.826,-218.262,-65.247,76.904,0,0,0,
,-0.498,0.25,0.812,-254.395,-38.392,88.317,0,0,0,
,-0.531,0.25,0.792,-286.988,-19.471,106.75,0,0,0,
,-0.505,0.262,0.768,-333.13,3.295,122.375,0,0,0,
,-0.512,0.285,0.747,-357.056,24.902,135.864,0,0,0,
,-0.51,0.299,0.72,-348.267,50.842,146.118,0,0,0,
,-0.501,0.294,0.706,-339.356,61.95,148.132,0,0,0,
,-0.523,0.298,0.718,-349.488,54.809,125.305,0,0,0,
,-0.547,0.304,0.714,-349.427,90.698,140.136,0,0,0,
,-0.543,0.304,0.695,-344.056,138.61,137.756,0,0,0,
,-0.533,0.306,0.699,-351.258,181.213,127.502,0,0,0,
,-0.527,0.334,0.707,-333.191,202.026,124.145,0,0,0,
,-0.507,0.369,0.706,-295.899,224.731,127.197,0,0,0,
,-0.504,0.364,0.721,-280.457,206.054,100.83,0,0,0,
,-0.499,0.403,0.714,-259.034,229.736,122.619,0,0,0,
,-0.477,0.438,0.731,-211.731,232.544,108.703,0,0,0,
,-0.462,0.46,0.742,-132.691,233.764,103.942,0,0,0,
,-0.455,0.473,0.756,-26.123,224.853,100.708,0,0,0,
,-0.454,0.446,0.786,82.763,214.66,95.764,0,0,0,
,-0.449,0.387,0.799,144.714,209.472,89.965,0,0,0,
,-0.443,0.328,0.793,166.87,210.388,69.946,0,0,0,
,-0.44,0.263,0.838,153.137,210.632,48.461,0,0,0,
,-0.424,0.268,0.889,128.967,233.032,44.738,0,0,0,
,-0.382,0.342,0.901,151.123,243.591,25.146,0,0,0,
,-0.357,0.38,0.89,241.943,203.308,-3.968,0,0,0,
,-0.35,0.325,0.875,363.098,144.775,-38.758,0,0,0,
,-0.358,0.259,0.893,421.875,100.83,-59.449,0,0,0,
,-0.363,0.21,0.917,406.067,72.631,-96.375,0,0,0,
,-0.363,0.184,0.97,374.023,53.1,-122.986,0,0,0,
,-0.355,0.207,0.982,342.59,47.363,-144.654,0,0,0,
,-0.343,0.223,0.967,355.041,37.658,-176.087,0,0,0,
,-0.33,0.197,0.926,365.905,18.859,-205.201,0,0,0,
,-0.321,0.149,0.94,357.299,-8.851,-227.417,0,0,0,
,-0.323,0.181,0.967,325.927,-15.32,-226.014,0,0,0,
,-0.309,0.226,0.986,324.524,-19.959,-248.23,0,0,0,
,-0.287,0.26,1,358.398,-28.748,-256.653,0,0,0,
,-0.263,0.228,1.008,398.132,-50.049,-260.987,0,0,0,
,-0.264,0.201,0.992,378.296,-80.811,-244.935,0,0,0,
,-0.284,0.186,0.986,328.918,-103.882,-238.16,0,0,0,
,-0.296,0.211,1.014,263.122,-103.577,-213.135,0,0,0,
,-0.289,0.222,1.028,247.558,-102.539,-188.111,0,0,0,
,-0.291,0.214,0.998,240.6,-118.958,-155.945,0,0,0,
,-0.318,0.176,0.98,227.661,-136.78,-147.156,0,0,0,
,-0.351,0.138,0.971,174.011,-139.954,-133.118,0,0,0,
,-0.364,0.136,0.96,128.723,-128.235,-121.521,0,0,0,
,-0.366,0.158,0.951,87.89,-117.432,-117.798,0,0,0,
,-0.371,0.156,0.942,90.82,-127.015,-113.221,0,0,0,
,-0.387,0.175,0.958,91.43,-137.024,-112.977,0,0,0,
,-0.395,0.171,0.954,109.375,-140.137,-112.549,0,0,0,
,-0.399,0.154,0.943,111.877,-143.921,-104.798,0,0,0,
,-0.405,0.153,0.93,92.529,-152.039,-103.882,0,0,0,
,-0.418,0.143,0.923,91.125,-166.077,-95.948,0,0,0,
,-0.435,0.136,0.908,90.21,-173.462,-83.619,0,0,0,
,-0.451,0.149,0.883,82.214,-164.673,-80.567,0,0,0,
,-0.463,0.157,0.89,85.51,-152.039,-68.543,0,0,0,
,-0.462,0.144,0.862,102.05,-140.32,-58.289,0,0,0,
,-0.474,0.129,0.864,92.346,-136.353,-47.913,0,0,0,
,-0.484,0.114,0.854,62.439,-125.733,-43.03,0,0,0,
,-0.494,0.089,0.871,13,-113.282,-41.626,0,0,0,
,-0.497,0.115,0.879,-33.631,-72.693,-21.363,0,0,0,
,-0.481,0.117,0.86,-73.243,-53.04,-9.522,0,0,0,
,-0.483,0.104,0.862,-137.574,-47.913,-2.625,0,0,0,
,-0.484,0.112,0.869,-203.675,-39.673,4.272,0,0,0,
,-0.483,0.136,0.86,-253.296,-35.157,14.099,0,0,0,
,-0.487,0.173,0.847,-266.785,-26.978,21.728,0,0,0,
,-0.491,0.209,0.854,-255.066,-28.443,26.55,0,0,0,
,-0.484,0.203,0.829,-228.638,-20.997,32.165,0,0,0,
,-0.484,0.204,0.824,-212.464,-20.02,47.668,0,0,0,
,-0.488,0.195,0.808,-209.046,-34.241,42.541,0,0,0,
,-0.507,0.179,0.83,-219.544,-33.02,55.358,0,0,0,
,-0.516,0.203,0.83,-245.789,-12.024,69.336,0,0,0,
,-0.514,0.21,0.808,-268.616,8.667,64.758,0,0,0,
,-0.514,0.216,0.81,-283.509,13.732,72.692,0,0,0,
,-0.518,0.235,0.791,-282.288,35.034,100.28,0,0,0,
,-0.526,0.235,0.812,-286.255,42.785,98.388,0,0,0,
,-0.524,0.226,0.787,-295.105,57.8,106.689,0,0,0,
,-0.526,0.235,0.791,-294.556,67.443,114.013,0,0,0,
,-0.528,0.219,0.789,-295.166,85.388,108.764,0,0,0,
,-0.529,0.224,0.826,-315.308,97.778,106.567,0,0,0,
,-0.52,0.226,0.82,-325.684,122.253,102.539,0,0,0,
,-0.515,0.257,0.831,-329.163,129.638,92.163,0,0,0,
,-0.5,0.332,0.785,-265.32,155.029,91.735,0,0,0,
,-0.478,0.346,0.817,-138.794,142.028,69.519,0,0,0,
,-0.461,0.323,0.818,-17.823,102.905,41.87,0,0,0,
,-0.466,0.325,0.852,106.079,54.809,17.639,0,0,0,
,-0.465,0.314,0.878,247.253,19.592,-14.893,0,0,0,
,-0.459,0.255,0.9,363.586,-18.921,-49.622,0,0,0,
,-0.46,0.185,0.893,398.193,-60.12,-89.356,0,0,0,
,-0.474,0.154,0.9,362.732,-89.539,-108.155,0,0,0,
,-0.481,0.169,0.872,331.726,-99.244,-120.24,0,0,0,
,-0.488,0.22,0.853,331.848,-108.826,-130.738,0,0,0,
,-0.496,0.236,0.841,391.906,-123.291,-150.391,0,0,0,
,-0.502,0.19,0.831,453.796,-136.17,-171.509,0,0,0,
,-0.511,0.136,0.828,451.172,-132.081,-173.035,0,0,0,
,-0.524,0.116,0.834,401.977,-113.77,-173.157,0,0,0,
,-0.528,0.114,0.837,344.116,-85.389,-171.875,0,0,0,
,-0.527,0.113,0.82,291.076,-55.664,-170.044,0,0,0,
,-0.524,0.124,0.817,249.511,-30.457,-165.467,0,0,0,
,-0.51,0.149,0.817,206.726,-3.724,-160.95,0,0,0,
,-0.5,0.167,0.805,203.674,2.624,-156.678,0,0,0,
,-0.5,0.178,0.817,209.838,-2.503,-152.405,0,0,0,
,-0.505,0.161,0.844,237.548,-3.418,-148.377,0,0,0,
,-0.502,0.158,0.861,226.806,15.014,-147.706,0,0,0,
,-0.491,0.151,0.844,215.698,23.254,-141.297,0,0,0,
,-0.485,0.143,0.816,202.636,13.244,-131.775,0,0,0,
,-0.495,0.161,0.827,194.213,7.568,-119.019,0,0,0,
,-0.505,0.134,0.821,203.918,2.075,-110.23,0,0,0,
,-0.519,0.104,0.833,192.138,9.033,-96.619,0,0,0,
,-0.532,0.076,0.842,159.729,48.95,-93.506,0,0,0,
,-0.525,0.055,0.856,90.515,101.013,-83.802,0,0,0,
,-0.503,0.061,0.848,17.211,148.01,-75.806,0,0,0,
,-0.486,0.096,0.867,-51.453,176.208,-52.002,0,0,0,
,-0.466,0.114,0.869,-98.45,188.781,-26.001,0,0,0,
,-0.449,0.163,0.906,-117.615,202.697,6.347,0,0,0,
,-0.424,0.161,0.939,-111.39,207.336,20.446,0,0,0,
,-0.406,0.161,0.921,-139.527,194.336,37.841,0,0,0,
,-0.405,0.152,0.939,-144.288,165.588,53.833,0,0,0,
,-0.412,0.166,0.941,-182.618,158.752,70.739,0,0,0,
,-0.41,0.18,0.949,-194.519,161.56,90.454,0,0,0,
,-0.403,0.175,0.946,-196.778,165.71,104.919,0,0,0,
,-0.396,0.181,0.943,-205.018,162.902,121.215,0,0,0,
,-0.396,0.15,0.938,-227.845,154.541,142.639,0,0,0,
,-0.401,0.12,0.946,-289.124,152.099,154.48,0,0,0,
,-0.408,0.078,0.962,-414.49,172.119,170.471,0,0,0,
,-0.41,0.075,0.942,-561.036,202.697,172.424,0,0,0,
,-0.346,0.308,0.868,-491.272,284.057,165.832,0,0,0,
,-0.311,0.283,0.875,-417.542,244.873,147.155,0,0,0,
,-0.308,0.259,0.899,-385.682,192.505,127.441,0,0,0,
,-0.318,0.239,0.923,-389.649,165.222,120.91,0,0,0,
,-0.321,0.284,0.956,-418.702,158.569,118.408,0,0,0,
,-0.303,0.32,0.935,-323.731,89.965,94.909,0,0,0,
,-0.312,0.302,0.931,-333.619,71.655,89.111,0,0,0,
,-0.317,0.312,0.939,-364.258,66.162,93.444,0,0,0,
,-0.321,0.36,0.922,-378.174,62.072,90.332,0,0,0,
,-0.317,0.41,0.911,-344.971,52.429,78.002,0,0,0,
,-0.312,0.416,0.892,-273.255,33.508,66.101,0,0,0,
,-0.313,0.407,0.891,-226.38,4.15,56.884,0,0,0,
,-0.319,0.407,0.892,-184.632,-18.555,49.804,0,0,0,
,-0.325,0.415,0.893,-144.715,-34.668,47.729,0,0,0,
,-0.324,0.426,0.865,-100.647,-55.603,38.635,0,0,0,
,-0.334,0.428,0.852,-66.651,-77.576,21.057,0,0,0,
,-0.346,0.429,0.852,-36.072,-94.605,-2.32,0,0,0,
,-0.349,0.435,0.857,12.085,-105.713,-12.696,0,0,0,
,-0.351,0.42,0.842,46.386,-127.137,-24.842,0,0,0,
,-0.36,0.41,0.844,69.336,-149.292,-35.279,0,0,0,
,-0.378,0.399,0.839,83.923,-160.218,-41.993,0,0,0,
,-0.392,0.408,0.832,98.022,-154.664,-48.401,0,0,0,
,-0.391,0.421,0.829,135.131,-152.039,-57.373,0,0,0,
,-0.393,0.415,0.822,182.983,-159.546,-76.355,0,0,0,
,-0.397,0.403,0.842,234.436,-171.936,-92.041,0,0,0,
,-0.408,0.374,0.805,254.028,-190.613,-110.901,0,0,0,
,-0.428,0.356,0.802,265.503,-205.811,-121.888,0,0,0,
,-0.434,0.374,0.81,271.301,-198.609,-131.348,0,0,0,
,-0.443,0.377,0.821,312.439,-195.862,-140.381,0,0,0,
,-0.442,0.353,0.81,338.745,-198.548,-154.053,0,0,0,
,-0.448,0.329,0.793,338.501,-204.895,-157.959,0,0,0,
,-0.465,0.338,0.795,328.491,-207.032,-161.744,0,0,0,
,-0.477,0.362,0.788,351.501,-195.374,-159.058,0,0,0,
,-0.48,0.37,0.793,414.917,-184.815,-165.039,0,0,0,
,-0.479,0.343,0.796,464.843,-189.331,-167.298,0,0,0,
,-0.488,0.276,0.785,476.501,-190.674,-169.129,0,0,0,
,-0.506,0.26,0.793,413.818,-181.58,-161.438,0,0,0,
,-0.51,0.261,0.796,376.953,-160.767,-144.837,0,0,0,
,-0.512,0.273,0.814,349.731,-145.264,-136.231,0,0,0,
,-0.514,0.286,0.806,368.774,-129.578,-124.146,0,0,0,
,-0.516,0.253,0.801,380.005,-119.935,-124.024,0,0,0,
,-0.515,0.229,0.791,359.924,-102.356,-106.446,0,0,0,
,-0.51,0.244,0.788,333.374,-88.746,-94.239,0,0,0,
,-0.511,0.261,0.78,348.816,-81.849,-78.37,0,0,0,
,-0.513,0.261,0.776,384.826,-81.36,-71.412,0,0,0,
,-0.523,0.25,0.778,417.663,-72.327,-62.806,0,0,0,
,-0.523,0.19,0.773,444.702,-62.867,-52.43,0,0,0,
,-0.527,0.143,0.788,422.302,-47.73,-44.983,0,0,0,
,-0.526,0.131,0.791,397.827,-14.771,-31.311,0,0,0,
,-0.516,0.102,0.81,383.972,0.244,-31.739,0,0,0,
,-0.516,0.068,0.823,363.098,12.573,-34.668,0,0,0,
,-0.516,0.04,0.852,324.096,30.517,-36.988,0,0,0,
,-0.506,0.003,0.866,257.446,49.499,-49.622,0,0,0,
,-0.501,0.024,0.874,170.166,70.129,-47.425,0,0,0,
,-0.497,0.068,0.867,135.131,86.364,-55.909,0,0,0,
,-0.471,0.048,0.886,123.596,80.81,-43.702,0,0,0,
,-0.475,0.014,0.905,78.064,74.768,-25.696,0,0,0,
,-0.487,-0.005,0.896,-6.043,81.848,-14.527,0,0,0,
,-0.499,0.001,0.891,-109.925,108.276,-3.724,0,0,0,
,-0.494,0.026,0.877,-189.148,142.883,11.84,0,0,0,
,-0.482,0.05,0.882,-238.038,173.095,21.728,0,0,0,
,-0.439,0.048,0.887,-310.852,182.19,57.617,0,0,0,
,-0.452,0.033,0.889,-407.41,182.006,69.519,0,0,0,
,-0.454,0.048,0.902,-517.945,208.313,81.604,0,0,0,
,-0.445,0.12,0.913,-603.089,247.314,86.059,0,0,0,
,-0.418,0.199,0.928,-617.615,273.132,89.599,0,0,0,
,-0.39,0.247,0.928,-553.101,271.545,90.332,0,0,0,
,-0.371,0.261,0.929,-502.381,257.324,91.674,0,0,0,
,-0.359,0.285,0.936,-484.986,241.15,89.355,0,0,0,
,-0.347,0.286,0.929,-460.755,217.773,98.999,0,0,0,
,-0.341,0.32,0.953,-450.989,182.312,126.342,0,0,0,
,-0.346,0.296,0.956,-442.444,145.874,113.769,0,0,0,
,-0.366,0.253,0.932,-491.517,134.704,113.586,0,0,0,
,-0.376,0.33,0.923,-525.574,160.217,138.122,0,0,0,
,-0.351,0.388,0.912,-484.559,174.194,130.249,0,0,0,
,-0.315,0.389,0.924,-391.724,141.296,135.009,0,0,0,
,-0.317,0.333,0.912,-355.164,80.688,107.971,0,0,0,
,-0.337,0.315,0.92,-368.103,41.32,92.041,0,0,0,
,-0.354,0.348,0.906,-375.611,39.672,88.195,0,0,0,
,-0.353,0.361,0.901,-345.52,46.814,72.692,0,0,0,
,-0.337,0.36,0.91,-326.416,42.541,69.091,0,0,0,
,-0.326,0.372,0.897,-304.017,30.029,71.228,0,0,0,
,-0.328,0.374,0.88,-305.054,5.188,64.453,0,0,0,
,-0.347,0.402,0.869,-308.838,-7.264,54.443,0,0,0,
,-0.345,0.411,0.807,-280.701,-10.315,53.405,0,0,0,
,-0.352,0.42,0.891,-243.348,-17.273,27.465,0,0,0,
,-0.331,0.439,0.88,-207.581,-19.165,44.982,0,0,0,
,-0.347,0.436,0.86,-183.777,-62.806,24.231,0,0,0,
,-0.375,0.458,0.832,-173.523,-69.642,28.32,0,0,0,
,-0.384,0.473,0.807,-154.48,-60.852,13.732,0,0,0,
,-0.373,0.474,0.797,-124.756,-75.318,-15.442,0,0,0,
,-0.39,0.488,0.766,-83.374,-133.728,-23.743,0,0,0,
,-0.401,0.5,0.765,-47.364,-149.72,-32.593,0,0,0,
,-0.411,0.507,0.759,-13.062,-162.415,-39.734,0,0,0,
,-0.416,0.513,0.748,23.315,-177.063,-49.683,0,0,0,
,-0.423,0.512,0.769,64.575,-193.726,-57.862,0,0,0,
,-0.429,0.506,0.753,108.215,-205.689,-67.994,0,0,0,
,-0.442,0.513,0.743,155.822,-222.657,-72.144,0,0,0,
,-0.459,0.517,0.732,216.43,-239.93,-89.478,0,0,0,
,-0.472,0.508,0.728,290.222,-250.672,-99.854,0,0,0,
,-0.483,0.495,0.733,354.492,-256.104,-114.38,0,0,0,
,-0.497,0.437,0.745,394.226,-261.902,-128.663,0,0,0,
,-0.51,0.416,0.75,387.329,-252.381,-128.235,0,0,0,
,-0.515,0.431,0.733,380.371,-234.742,-127.381,0,0,0,
,-0.521,0.45,0.72,418.945,-226.319,-138.855,0,0,0,
,-0.522,0.423,0.724,454.528,-217.835,-144.043,0,0,0,
,-0.52,0.401,0.725,493.835,-206.116,-143.006,0,0,0,
,-0.515,0.358,0.722,496.887,-206.604,-149.72,0,0,0,
,-0.528,0.334,0.715,471.069,-210.389,-151.246,0,0,0,
,-0.545,0.341,0.71,453.064,-192.627,-139.344,0,0,0,
,-0.551,0.315,0.713,452.209,-166.626,-146.241,0,0,0,
,-0.552,0.28,0.708,436.34,-137.879,-138.306,0,0,0,
,-0.552,0.26,0.695,385.559,-105.591,-131.226,0,0,0,
,-0.549,0.254,0.689,322.448,-63.538,-123.352,0,0,0,
,-0.541,0.266,0.693,263.488,-30.091,-114.38,0,0,0,
,-0.539,0.291,0.73,238.037,2.38,-102.906,0,0,0,
,-0.53,0.303,0.753,242.248,31.616,-92.713,0,0,0,
,-0.524,0.297,0.765,267.089,65.307,-88.196,0,0,0,
,-0.5,0.267,0.757,276.306,98.144,-81.727,0,0,0,
,-0.492,0.238,0.752,264.77,89.965,-86.792,0,0,0,
,-0.491,0.237,0.787,223.571,71.777,-73.365,0,0,0,
,-0.502,0.244,0.821,200.134,64.27,-73.548,0,0,0,
,-0.503,0.225,0.84,186.34,72.204,-73.365,0,0,0,
,-0.508,0.209,0.835,168.64,82.58,-66.407,0,0,0,
,-0.5,0.187,0.838,122.558,103.637,-67.017,0,0,0,
,-0.49,0.183,0.814,71.533,110.29,-68.36,0,0,0,
,-0.489,0.201,0.817,22.827,110.656,-67.017,0,0,0,
,-0.485,0.211,0.834,-5.738,116.516,-68.482,0,0,0,
,-0.478,0.22,0.892,-28.565,126.587,-57.007,0,0,0,
,-0.465,0.208,0.92,-56.702,151.001,-41.016,0,0,0,
,-0.449,0.193,0.914,-138.489,171.325,-19.532,0,0,0,
,-0.444,0.183,0.905,-242.31,185.608,2.38,0,0,0,
,-0.435,0.238,0.894,-343.811,208.557,21.789,0,0,0,
,-0.422,0.315,0.884,-379.944,225.952,46.264,0,0,0,
,-0.401,0.363,0.889,-327.027,214.721,66.894,0,0,0,
,-0.394,0.385,0.903,-239.624,187.255,78.674,0,0,0,
,-0.408,0.311,0.902,-130.372,141.967,102.05,0,0,0,
,-0.417,0.278,0.896,-167.054,139.282,117.065,0,0,0,
,-0.421,0.271,0.895,-231.385,144.653,127.075,0,0,0,
,-0.417,0.297,0.899,-277.1,159.484,149.047,0,0,0,
,-0.401,0.362,0.927,-246.094,158.447,169.86,0,0,0,
,-0.389,0.302,0.962,-226.197,151.306,176.757,0,0,0,
,-0.393,0.269,0.949,-273.926,152.893,200.622,0,0,0,
,-0.4,0.293,0.919,-340.882,162.658,206.665,0,0,0,
,-0.394,0.318,0.916,-374.939,173.889,191.284,0,0,0,
,-0.371,0.347,0.909,-354.126,165.344,179.687,0,0,0,
,-0.36,0.368,0.914,-306.763,137.695,165.954,0,0,0,
,-0.35,0.377,0.939,-253.479,106.689,148.803,0,0,0,
,-0.347,0.342,0.937,-218.323,68.359,130.31,0,0,0,
,-0.353,0.332,0.912,-231.019,35.888,115.966,0,0,0,
,-0.363,0.346,0.894,-255.738,11.108,103.942,0,0,0,
,-0.366,0.365,0.866,-265.015,-5.86,80.627,0,0,0,
,-0.365,0.384,0.86,-258.667,-25.086,68.481,0,0,0,
,-0.368,0.404,0.864,-239.747,-46.692,59.326,0,0,0,
,-0.378,0.409,0.846,-208.741,-64.454,46.814,0,0,0,
,-0.388,0.418,0.827,-193.604,-73.365,40.893,0,0,0,
,-0.404,0.423,0.813,-171.998,-77.332,21.362,0,0,0,
,-0.413,0.431,0.789,-148.377,-78.736,11.962,0,0,0,
,-0.423,0.435,0.765,-116.883,-77.82,-12.452,0,0,0,
,-0.421,0.45,0.758,-65.918,-79.041,-31.617,0,0,0,
,-0.422,0.458,0.762,5.615,-93.934,-50.66,0,0,0,
,-0.438,0.449,0.793,61.828,-117.066,-61.341,0,0,0,
,-0.453,0.458,0.807,114.685,-105.896,-76.05,0,0,0,
,-0.446,0.436,0.794,158.813,-100.281,-81.177,0,0,0,
,-0.448,0.402,0.787,149.536,-114.808,-89.6,0,0,0,
,-0.457,0.379,0.778,108.825,-135.01,-91.553,0,0,0,
,-0.473,0.404,0.781,72.082,-132.996,-82.703,0,0,0,
,-0.485,0.453,0.76,181.152,-139.893,-109.253,0,0,0,
,-0.491,0.437,0.759,235.534,-138.794,-120.606,0,0,0,
,-0.5,0.431,0.778,281.311,-131.47,-132.752,0,0,0,
,-0.501,0.428,0.772,316.833,-113.16,-144.349,0,0,0,
,-0.488,0.379,0.71,356.567,-109.375,-161.255,0,0,0,
,-0.485,0.377,0.698,366.638,-125.306,-139.405,0,0,0,
,-0.51,0.363,0.713,438.903,-157.105,-143.25,0,0,0,
,-0.526,0.348,0.729,415.71,-152.222,-132.996,0,0,0,
,-0.536,0.361,0.753,419.555,-130.677,-118.042,0,0,0,
,-0.533,0.315,0.742,436.95,-110.901,-113.648,0,0,0,
,-0.535,0.271,0.742,398.01,-97.962,-99.854,0,0,0,
,-0.534,0.238,0.772,339.538,-27.466,-62.5,0,0,0,
,-0.534,0.191,0.787,310.669,-14.039,-60.242,0,0,0,
,-0.535,0.178,0.796,251.464,11.23,-65.247,0,0,0,
,-0.527,0.221,0.793,215.454,46.02,-69.825,0,0,0,
,-0.505,0.243,0.792,236.267,53.405,-86.06,0,0,0,
,-0.508,0.154,0.843,141.967,31.616,-104.798,0,0,0,
,-0.503,0.204,0.866,71.655,67.504,-103.699,0,0,0,
,-0.479,0.235,0.851,50.048,98.877,-94.3,0,0,0,
,-0.461,0.252,0.839,59.936,91.98,-81.055,0,0,0,
,-0.459,0.255,0.843,76.294,74.157,-61.585,0,0,0,
,-0.484,0.224,0.856,34.301,97.656,-32.349,0,0,0,
,-0.468,0.216,0.869,22.094,122.436,-20.997,0,0,0,
,-0.455,0.229,0.877,9.155,137.268,-8.728,0,0,0,
,-0.445,0.229,0.874,-15.625,146.179,1.648,0,0,0,
,-0.442,0.207,0.872,-22.583,146.423,11.901,0,0,0,
,-0.44,0.176,0.895,-73.548,147.4,23.254,0,0,0,
,-0.433,0.167,0.923,-182.19,164.062,43.579,0,0,0,
,-0.425,0.168,0.947,-286.133,184.997,69.03,0,0,0,
,-0.419,0.195,0.947,-410.95,207.946,89.782,0,0,0,
,-0.409,0.27,0.915,-497.803,228.881,109.741,0,0,0,
,-0.398,0.353,0.888,-475.403,242.187,132.263,0,0,0,
,-0.371,0.391,0.884,-383.912,237.793,151.55,0,0,0,
,-0.357,0.379,0.869,-271.058,204.528,169.433,0,0,0,
,-0.359,0.385,0.906,-185.914,152.954,177.734,0,0,0,
,-0.368,0.308,0.917,-132.325,103.027,166.076,0,0,0,
,-0.409,0.193,0.918,-236.512,87.646,144.714,0,0,0,
,-0.435,0.25,0.922,-349.671,146.362,165.71,0,0,0,
,-0.401,0.312,0.901,-368.409,205.139,178.65,0,0,0,
,-0.356,0.335,0.876,-333.802,194.275,174.072,0,0,0,
,-0.347,0.345,0.89,-281.495,153.503,169.677,0,0,0,
,-0.35,0.331,0.921,-252.381,128.662,160.705,0,0,0,
,-0.352,0.282,0.929,-258.179,121.093,142.944,0,0,0,
,-0.348,0.279,0.935,-300.904,116.882,140.442,0,0,0,
,-0.343,0.323,0.935,-327.698,108.154,131.775,0,0,0,
,-0.327,0.366,0.917,-299.866,70.434,97.778,0,0,0,
,-0.318,0.357,0.903,-283.936,41.32,86.731,0,0,0,
,-0.318,0.365,0.884,-292.542,8.789,72.082,0,0,0,
,-0.327,0.393,0.858,-286.683,-16.175,55.053,0,0,0,
,-0.333,0.414,0.849,-237.793,-36.744,33.081,0,0,0,
,-0.335,0.418,0.84,-200.318,-61.707,13.427,0,0,0,
,-0.338,0.417,0.831,-174.561,-82.276,-0.733,0,0,0,
,-0.349,0.416,0.808,-155.274,-106.69,-21.851,0,0,0,
,-0.36,0.425,0.799,-150.025,-129.212,-38.88,0,0,0,
,-0.38,0.442,0.804,-129.334,-150.635,-58.594,0,0,0,
,-0.396,0.47,0.806,-79.224,-159.729,-77.881,0,0,0,
,-0.401,0.477,0.78,-10.926,-168.58,-94.422,0,0,0,
,-0.413,0.455,0.76,35.4,-197.876,-118.409,0,0,0,
,-0.438,0.468,0.742,63.171,-210.816,-123.658,0,0,0,
,-0.455,0.486,0.736,119.262,-219.788,-133.179,0,0,0,
,-0.472,0.481,0.75,184.936,-227.662,-148.255,0,0,0,
,-0.49,0.482,0.764,256.775,-223.633,-149.17,0,0,0,
,-0.499,0.489,0.769,328.064,-209.046,-160.096,0,0,0,
,-0.51,0.464,0.771,406.189,-205.506,-171.448,0,0,0,
,-0.515,0.428,0.769,443.603,-199.707,-172.669,0,0,0,
,-0.518,0.406,0.771,448.913,-198.853,-161.622,0,0,0,
,-0.529,0.368,0.77,432.861,-203.553,-169.8,0,0,0,
,-0.535,0.367,0.779,403.442,-202.698,-148.438,0,0,0,
,-0.543,0.372,0.786,385.62,-195.374,-141.053,0,0,0,
,-0.539,0.361,0.783,372.253,-185.73,-127.503,0,0,0,
,-0.538,0.365,0.769,366.516,-177.613,-120.057,0,0,0,
,-0.535,0.386,0.748,435.424,-166.016,-112.977,0,0,0,
,-0.534,0.34,0.765,489.929,-169.007,-103.089,0,0,0,
,-0.542,0.285,0.78,493.042,-165.101,-106.446,0,0,0,
,-0.543,0.27,0.755,458.862,-132.691,-85.877,0,0,0,
,-0.543,0.258,0.732,422.851,-112.732,-85.022,0,0,0,
,-0.542,0.254,0.72,407.409,-97.413,-79.651,0,0,0,
,-0.538,0.186,0.744,459.777,-47.791,-68.116,0,0,0,
,-0.542,0.137,0.754,413.208,-22.278,-63.05,0,0,0,
,-0.544,0.157,0.758,347.168,15.808,-62.317,0,0,0,
,-0.526,0.163,0.759,335.876,40.1,-74.952,0,0,0,
,-0.518,0.139,0.785,313.903,54.626,-70.923,0,0,0,
,-0.499,0.107,0.834,183.776,99.792,-54.322,0,0,0,
,-0.495,0.104,0.843,97.168,112.854,-44.739,0,0,0,
,-0.499,0.135,0.866,13.427,136.779,-29.664,0,0,0,
,-0.49,0.163,0.893,-24.903,165.283,-20.264,0,0,0,
,-0.46,0.158,0.928,-60.791,186.828,1.464,0,0,0,
,-0.436,0.155,0.928,-101.38,186.096,34.362,0,0,0,
,-0.437,0.157,0.936,-162.842,170.349,59.631,0,0,0,
,-0.452,0.164,0.914,-228.821,176.269,86.486,0,0,0,
,-0.449,0.177,0.907,-284.363,188.11,107.116,0,0,0,
,-0.445,0.197,0.909,-314.515,195.251,126.464,0,0,0,
,-0.436,0.202,0.905,-325.501,193.542,141.54,0,0,0,
,-0.437,0.195,0.901,-328.98,184.143,150.207,0,0,0,
,-0.441,0.211,0.889,-327.759,184.692,154.785,0,0,0,
,-0.431,0.213,0.893,-315.125,195.495,158.203,0,0,0,
,-0.42,0.187,0.903,-331.849,188.842,160.034,0,0,0,
,-0.426,0.198,0.913,-368.042,188.964,169.25,0,0,0,
,-0.422,0.222,0.924,-385.743,194.824,171.02,0,0,0,
,-0.404,0.224,0.933,-403.077,201.904,171.142,0,0,0,
,-0.4,0.236,0.924,-416.138,189.026,169.738,0,0,0,
,-0.395,0.246,0.937,-443.238,189.636,167.663,0,0,0,
,-0.392,0.247,0.927,-474.366,190.551,170.105,0,0,0,
,-0.387,0.258,0.945,-521.241,192.566,163.33,0,0,0,
,-0.371,0.274,0.95,-561.219,197.876,160.339,0,0,0,
,-0.375,0.291,0.935,-584.778,184.021,150.268,0,0,0,
,-0.373,0.289,0.913,-608.155,183.349,131.775,0,0,0,
,-0.363,0.334,0.872,-623.108,179.87,132.751,0,0,0,
,-0.345,0.401,0.848,-593.628,154.724,123.108,0,0,0,
,-0.339,0.459,0.856,-515.992,105.163,104.492,0,0,0,
,-0.33,0.446,0.863,-413.941,43.64,72.387,0,0,0,
,-0.341,0.434,0.857,-348.572,0.061,61.889,0,0,0,
,-0.348,0.442,0.858,-312.684,-26.429,55.481,0,0,0,
,-0.352,0.441,0.827,-284.18,-58.899,40.71,0,0,0,
,-0.358,0.463,0.804,-269.654,-88.074,27.526,0,0,0,
,-0.381,0.481,0.782,-223.572,-123.047,17.211,0,0,0,
,-0.389,0.475,0.807,-168.824,-134.339,8.3,0,0,0,
,-0.396,0.472,0.805,-147.034,-151.001,-8.362,0,0,0,
,-0.406,0.471,0.799,-129.395,-157.593,-21.668,0,0,0,
,-0.422,0.484,0.797,-102.601,-156.678,-18.982,0,0,0,
,-0.433,0.501,0.793,-43.519,-147.767,-19.776,0,0,0,
,-0.439,0.504,0.768,-7.813,-136.719,-34.241,0,0,0,
,-0.443,0.499,0.713,19.104,-135.132,-45.044,0,0,0,
,-0.447,0.492,0.704,36.499,-150.696,-57.251,0,0,0,
,-0.453,0.518,0.71,67.504,-163.697,-72.937,0,0,0,
,-0.457,0.543,0.725,119.567,-185.486,-78.736,0,0,0,
,-0.467,0.544,0.726,194.275,-200.928,-106.019,0,0,0,
,-0.481,0.532,0.708,265.075,-201.416,-108.948,0,0,0,
,-0.483,0.513,0.715,322.631,-212.586,-130.31,0,0,0,
,-0.486,0.499,0.706,364.563,-221.985,-134.095,0,0,0,
,-0.49,0.501,0.681,414.672,-225.831,-139.649,0,0,0,
,-0.505,0.506,0.694,488.83,-240.906,-145.63,0,0,0,
,-0.519,0.466,0.694,561.157,-237.244,-156.861,0,0,0,
,-0.521,0.401,0.699,592.346,-230.042,-156.678,0,0,0,
,-0.524,0.37,0.686,570.8,-218.14,-154.48,0,0,0,
,-0.532,0.372,0.707,537.841,-218.75,-156.067,0,0,0,
,-0.545,0.34,0.72,504.943,-201.722,-146.973,0,0,0,
,-0.546,0.365,0.73,498.596,-168.03,-136.597,0,0,0,
,-0.537,0.366,0.724,511.901,-145.203,-138.916,0,0,0,
,-0.531,0.348,0.719,523.559,-126.77,-128.296,0,0,0,
,-0.533,0.337,0.715,514.282,-115.174,-116.944,0,0,0,
,-0.538,0.343,0.696,535.583,-98.45,-108.338,0,0,0,
,-0.538,0.329,0.707,553.588,-78.614,-106.69,0,0,0,
,-0.545,0.325,0.718,586.242,-56.275,-97.29,0,0,0,
,-0.541,0.263,0.741,607.36,-29.297,-89.173,0,0,0,
,-0.534,0.193,0.787,542.785,4.76,-82.459,0,0,0,
,-0.53,0.155,0.799,438.415,36.987,-50.782,0,0,0,
,-0.528,0.171,0.802,333.435,76.416,-32.41,0,0,0,
,-0.517,0.176,0.805,267.395,101.867,-23.926,0,0,0,
,-0.501,0.146,0.826,212.646,110.29,-12.33,0,0,0,
,-0.498,0.131,0.857,143.737,109.985,6.53,0,0,0,
,-0.503,0.108,0.873,90.271,110.595,18.859,0,0,0,
,-0.51,0.093,0.869,6.652,126.892,25.512,0,0,0,
,-0.508,0.088,0.853,-95.154,146.362,26.855,0,0,0,
,-0.505,0.121,0.851,-186.585,167.541,26.001,0,0,0,
,-0.5,0.145,0.863,-239.319,191.406,33.081,0,0,0,
,-0.483,0.158,0.869,-281.739,209.777,40.527,0,0,0,
,-0.452,0.176,0.892,-391.358,246.521,58.715,0,0,0,
,-0.431,0.197,0.897,-459.107,255.066,67.81,0,0,0,
,-0.421,0.208,0.897,-534.363,257.263,72.876,0,0,0,
,-0.416,0.267,0.902,-584.412,255.432,75.866,0,0,0,
,-0.397,0.33,0.909,-565.369,259.338,79.04,0,0,0,
,-0.39,0.38,0.921,-501.16,236.572,70.495,0,0,0,
,-0.384,0.35,0.932,-424.927,218.2,69.824,0,0,0,
,-0.377,0.302,0.926,-420.472,200.439,80.566,0,0,0,
,-0.386,0.321,0.917,-456.238,172.79,85.266,0,0,0,
,-0.391,0.354,0.927,-452.271,163.33,103.82,0,0,0,
,-0.381,0.367,0.938,-437.439,145.691,113.891,0,0,0,
,-0.381,0.373,0.93,-436.219,120.483,99.06,0,0,0,
,-0.392,0.372,0.902,-421.387,109.863,93.017,0,0,0,
,-0.386,0.369,0.882,-412.659,107.238,97.961,0,0,0,
,-0.376,0.39,0.888,-411.194,92.346,101.318,0,0,0,
,-0.37,0.422,0.875,-400.086,62.805,102.05,0,0,0,
,-0.378,0.43,0.86,-376.893,36.254,88.684,0,0,0,
,-0.384,0.442,0.849,-351.258,14.221,78.552,0,0,0,
,-0.377,0.469,0.837,-304.566,-0.306,75.134,0,0,0,
,-0.369,0.471,0.819,-251.099,-36.988,63.842,0,0,0,
,-0.382,0.476,0.816,-204.041,-72.815,49.743,0,0,0,
,-0.393,0.487,0.795,-177.613,-97.352,36.804,0,0,0,
,-0.396,0.512,0.804,-123.658,-114.624,24.719,0,0,0,
,-0.403,0.52,0.786,-50.538,-141.175,10.62,0,0,0,
,-0.425,0.5,0.787,12.451,-172.242,-3.479,0,0,0,
,-0.452,0.489,0.775,32.226,-160.828,-11.292,0,0,0,
,-0.456,0.485,0.756,43.579,-132.813,-21.302,0,0,0,
,-0.444,0.489,0.731,63.171,-115.784,-25.391,0,0,0,
,-0.439,0.489,0.722,90.148,-130.066,-35.218,0,0,0,
,-0.454,0.484,0.749,123.23,-145.874,-48.035,0,0,0,
,-0.467,0.491,0.687,152.343,-150.086,-53.223,0,0,0,
,-0.468,0.501,0.723,188.293,-160.096,-68.665,0,0,0,
,-0.475,0.522,0.721,254.821,-170.472,-81.116,0,0,0,
,-0.483,0.525,0.713,353.454,-186.097,-92.225,0,0,0,
,-0.486,0.506,0.694,465.149,-201.966,-108.216,0,0,0,
,-0.494,0.485,0.706,564.209,-225.22,-135.01,0,0,0,
,-0.497,0.445,0.707,648.437,-245.484,-142.456,0,0,0,
,-0.503,0.377,0.725,681.64,-260.926,-157.41,0,0,0,
,-0.515,0.31,0.755,666.259,-270.264,-156.189,0,0,0,
,-0.532,0.296,0.763,608.947,-251.343,-150.94,0,0,0,
,-0.538,0.306,0.779,563.293,-231.995,-149.048,0,0,0,
,-0.537,0.291,0.781,546.447,-222.168,-151.246,0,0,0,
,-0.536,0.265,0.748,509.887,-197.205,-145.142,0,0,0,
,-0.542,0.266,0.706,438.903,-186.829,-149.048,0,0,0,
,-0.554,0.313,0.697,439.087,-180.542,-137.757,0,0,0,
,-0.56,0.322,0.673,476.44,-166.748,-150.452,0,0,0,
,-0.568,0.271,0.684,496.521,-140.992,-161.622,0,0,0,
,-0.575,0.228,0.699,465.454,-123.23,-143.006,0,0,0,
,-0.588,0.21,0.699,392.883,-76.966,-119.202,0,0,0,
,-0.587,0.206,0.706,298.828,-12.696,-89.356,0,0,0,
,-0.584,0.228,0.722,214.477,51.879,-58.655,0,0,0,
,-0.569,0.238,0.744,168.457,115.6,-32.105,0,0,0,
,-0.546,0.216,0.78,135.62,154.663,-21.363,0,0,0,
,-0.529,0.172,0.775,78.735,174.865,1.525,0,0,0,
,-0.531,0.17,0.79,-3.907,177.795,13.855,0,0,0,
,-0.533,0.177,0.802,-54.871,190.796,21.545,0,0,0,
,-0.527,0.189,0.805,-85.938,192.321,17.761,0,0,0,
,-0.527,0.216,0.815,-94.117,194.275,10.07,0,0,0,
,-0.519,0.224,0.852,-84.107,204.284,7.019,0,0,0,
,-0.503,0.222,0.868,-80.628,217.712,7.934,0,0,0,
,-0.488,0.2,0.886,-95.398,228.271,21.057,0,0,0,
,-0.474,0.205,0.881,-136.841,230.285,35.278,0,0,0,
,-0.463,0.245,0.871,-158.204,233.276,48.828,0,0,0,
,-0.445,0.269,0.88,-150.696,230.346,65.063,0,0,0,
,-0.422,0.285,0.921,-118.897,213.684,99.182,0,0,0,
,-0.415,0.272,0.96,-97.29,191.406,117.004,0,0,0,
,-0.409,0.239,0.986,-116.578,178.039,134.887,0,0,0,
,-0.428,0.222,0.968,-163.88,167.663,168.701,0,0,0,
,-0.436,0.182,0.946,-244.324,177.002,178.1,0,0,0,
,-0.437,0.184,0.932,-358.521,185.302,184.997,0,0,0,
,-0.434,0.252,0.928,-422.547,195.312,187.378,0,0,0,
,-0.416,0.254,0.925,-432.007,189.026,166.992,0,0,0,
,-0.402,0.225,0.936,-433.228,175.476,161.804,0,0,0,
,-0.396,0.214,0.928,-480.225,165.588,166.504,0,0,0,
,-0.398,0.232,0.908,-538.147,151.672,158.813,0,0,0,
,-0.398,0.275,0.892,-581.849,147.705,149.658,0,0,0,
,-0.398,0.354,0.886,-573.853,143.432,138.61,0,0,0,
,-0.386,0.386,0.889,-502.625,133.789,124.694,0,0,0,
,-0.374,0.379,0.881,-439.148,114.441,117.736,0,0,0,
,-0.375,0.349,0.873,-428.345,87.951,108.398,0,0,0,
,-0.386,0.367,0.867,-440.979,78.491,103.149,0,0,0,
,-0.385,0.397,0.841,-424.927,70.983,97.106,0,0,0,
,-0.381,0.432,0.829,-394.288,55.419,81.176,0,0,0,
,-0.381,0.447,0.813,-339.417,26.184,56.64,0,0,0,
,-0.385,0.448,0.822,-287.11,-1.282,44.372,0,0,0,
,-0.385,0.438,0.822,-254.639,-20.935,32.775,0,0,0,
,-0.382,0.442,0.823,-224.122,-45.411,24.841,0,0,0,
,-0.384,0.449,0.805,-202.637,-70.557,6.774,0,0,0,
,-0.393,0.44,0.792,-177.185,-100.769,-14.527,0,0,0,
,-0.405,0.462,0.79,-141.236,-124.024,-21.729,0,0,0,
,-0.42,0.485,0.795,-124.817,-140.809,-31.189,0,0,0,
,-0.431,0.509,0.779,-87.769,-138.489,-45.35,0,0,0,
,-0.437,0.538,0.783,-24.598,-130.494,-66.407,0,0,0,
,-0.438,0.541,0.76,68.42,-135.743,-80.018,0,0,0,
,-0.43,0.527,0.78,153.625,-144.532,-86.609,0,0,0,
,-0.445,0.498,0.776,208.252,-161.377,-97.229,0,0,0,
,-0.452,0.5,0.782,244.384,-159.058,-98.511,0,0,0,
,-0.469,0.482,0.79,250.915,-172.486,-112.488,0,0,0,
,-0.476,0.46,0.775,246.643,-162.293,-122.925,0,0,0,
,-0.48,0.44,0.754,221.313,-158.875,-134.217,0,0,0,
,-0.477,0.487,0.75,218.872,-147.217,-122.376,0,0,0,
,-0.47,0.493,0.737,257.263,-169.251,-139.344,0,0,0,
,-0.488,0.5,0.713,302.551,-203.125,-149.414,0,0,0,
,-0.511,0.518,0.685,370.3,-222.352,-155.518,0,0,0,
,-0.528,0.534,0.668,466.003,-226.685,-162.354,0,0,0,
,-0.538,0.535,0.661,591.308,-235.291,-177.308,0,0,0,
,-0.549,0.499,0.656,716.98,-245.423,-195.496,0,0,0,
,-0.561,0.447,0.642,827.209,-245.85,-204.956,0,0,0,
,-0.571,0.397,0.678,870.91,-248.108,-195.862,0,0,0,
,-0.576,0.343,0.671,897.277,-240.357,-194.886,0,0,0,
,-0.595,0.263,0.69,853.637,-235.962,-176.148,0,0,0,
,-0.618,0.186,0.697,736.45,-212.037,-157.532,0,0,0,
,-0.624,0.147,0.686,565.612,-148.56,-131.165,0,0,0,
,-0.613,0.181,0.678,393.127,-76.172,-92.102,0,0,0,
,-0.594,0.219,0.68,311.401,-31.434,-77.942,0,0,0,
,-0.581,0.245,0.692,279.968,16.296,-66.346,0,0,0,
,-0.559,0.265,0.706,288.208,61.584,-52.613,0,0,0,
,-0.532,0.209,0.73,291.137,76.11,-51.758,0,0,0,
,-0.521,0.154,0.774,249.939,86.242,-33.57,0,0,0,
,-0.524,0.166,0.798,150.268,115.539,-16.541,0,0,0,
,-0.511,0.154,0.812,79.956,136.291,-5.86,0,0,0,
,-0.503,0.149,0.812,2.075,149.719,1.342,0,0,0,
,-0.503,0.186,0.835,-78.492,164.734,2.929,0,0,0,
,-0.48,0.151,0.883,-160.706,200.866,14.77,0,0,0,
,-0.459,0.16,0.902,-247.62,214.599,20.629,0,0,0,
,-0.445,0.192,0.901,-313.355,221.374,34.973,0,0,0,
,-0.433,0.236,0.91,-333.252,225.708,41.076,0,0,0,
,-0.413,0.259,0.903,-333.68,221.984,61.767,0,0,0,
,-0.412,0.299,0.89,-284.363,204.406,63.354,0,0,0,
,-0.406,0.3,0.891,-225.281,187.927,59.021,0,0,0,
,-0.395,0.293,0.909,-179.749,167.358,69.641,0,0,0,
,-0.395,0.278,0.936,-170.105,142.089,82.824,0,0,0,
,-0.414,0.259,0.946,-203.064,127.38,98.022,0,0,0,
,-0.428,0.243,0.941,-263.733,137.695,118.713,0,0,0,
,-0.433,0.223,0.932,-339.417,151.611,134.948,0,0,0,
,-0.431,0.237,0.909,-404.419,173.523,151.489,0,0,0,
,-0.433,0.283,0.907,-414.917,181.152,166.565,0,0,0,
,-0.423,0.326,0.903,-384.217,185.18,162.414,0,0,0,
,-0.409,0.308,0.896,-343.75,180.786,154.907,0,0,0,
,-0.409,0.299,0.904,-325.867,163.208,144.104,0,0,0,
,-0.403,0.288,0.913,-326.966,156.067,139.587,0,0,0,
,-0.403,0.306,0.91,-346.497,147.705,140.808,0,0,0,
,-0.395,0.293,0.918,-361.329,149.109,131.958,0,0,0,
,-0.386,0.325,0.93,-384.156,143.432,139.16,0,0,0,
,-0.381,0.333,0.926,-390.076,131.225,139.16,0,0,0,
,-0.379,0.341,0.923,-395.569,121.032,138.122,0,0,0,
,-0.376,0.338,0.908,-414.307,104.126,135.192,0,0,0,
,-0.379,0.366,0.907,-417.725,89.904,134.094,0,0,0,
,-0.385,0.386,0.885,-392.334,75.805,131.225,0,0,0,
,-0.381,0.414,0.866,-345.887,63.903,114.929,0,0,0,
,-0.379,0.41,0.839,-300.049,42.663,96.069,0,0,0,
,-0.371,0.427,0.821,-272.217,9.582,68.054,0,0,0,
,-0.371,0.451,0.813,-216.736,-34.302,40.466,0,0,0,
,-0.374,0.466,0.796,-159.119,-83.802,7.019,0,0,0,
,-0.391,0.47,0.806,-98.206,-127.808,-21.119,0,0,0,
,-0.402,0.467,0.825,-49.439,-154.969,-39.673,0,0,0,
,-0.409,0.482,0.832,-15.564,-168.885,-39.185,0,0,0,
,-0.415,0.483,0.813,7.202,-179.2,-52.308,0,0,0,
,-0.43,0.475,0.786,13.183,-196.717,-70.313,0,0,0,
,-0.448,0.499,0.779,13.671,-208.558,-69.947,0,0,0,
,-0.462,0.541,0.781,54.321,-209.595,-66.834,0,0,0,
,-0.475,0.583,0.785,135.681,-215.394,-68.909,0,0,0,
,-0.491,0.575,0.752,246.887,-215.149,-79.468,0,0,0,
,-0.508,0.557,0.692,326.599,-212.464,-95.032,0,0,0,
,-0.523,0.523,0.646,411.743,-222.29,-101.38,0,0,0,
,-0.534,0.489,0.654,482.483,-241.883,-105.103,0,0,0,
,-0.541,0.449,0.665,531.738,-259.644,-109.559,0,0,0,
,-0.551,0.422,0.663,549.316,-271.485,-109.62,0,0,0,
,-0.571,0.387,0.693,560.363,-272.889,-116.822,0,0,0,
,-0.581,0.369,0.684,539.856,-241.028,-113.404,0,0,0,
,-0.585,0.396,0.658,528.686,-214.234,-122.193,0,0,0,
,-0.569,0.41,0.649,572.876,-195.923,-122.376,0,0,0,
,-0.568,0.354,0.648,633.545,-201.539,-138.428,0,0,0,
,-0.575,0.315,0.642,651.55,-185.303,-135.682,0,0,0,
,-0.585,0.263,0.643,623.657,-176.758,-123.597,0,0,0,
,-0.59,0.222,0.671,542.968,-148.926,-98.084,0,0,0,
,-0.585,0.207,0.703,482.483,-109.131,-106.934,0,0,0,
,-0.579,0.196,0.718,430.114,-69.947,-112.854,0,0,0,
,-0.571,0.191,0.708,383.3,-34.058,-109.803,0,0,0,
,-0.565,0.178,0.708,347.412,-12.696,-117.615,0,0,0,
,-0.551,0.194,0.712,309.509,8.239,-112.183,0,0,0,
,-0.545,0.185,0.725,298.584,15.564,-114.136,0,0,0,
,-0.544,0.188,0.757,285.339,32.836,-109.07,0,0,0,
,-0.545,0.191,0.792,281.372,50.659,-99.915,0,0,0,
,-0.537,0.139,0.822,258.484,75.622,-100.403,0,0,0,
,-0.531,0.111,0.803,161.987,98.144,-78.675,0,0,0,
,-0.535,0.13,0.778,59.082,121.399,-66.59,0,0,0,
,-0.53,0.155,0.783,-13.428,140.808,-60.914,0,0,0,
,-0.519,0.181,0.827,-39.551,156.738,-44.739,0,0,0,
,-0.506,0.166,0.869,-48.218,154.419,-31.311,0,0,0,
,-0.513,0.143,0.883,-90.638,163.391,-21.851,0,0,0,
,-0.519,0.145,0.864,-164.551,189.087,-13.611,0,0,0,
,-0.512,0.19,0.853,-217.102,229.431,-3.724,0,0,0,
,-0.485,0.219,0.865,-214.844,244.018,8.178,0,0,0,
,-0.461,0.245,0.888,-179.078,230.041,11.23,0,0,0,
,-0.454,0.25,0.913,-141.419,208.923,13.794,0,0,0,
,-0.445,0.232,0.934,-125.916,191.101,24.78,0,0,0,
,-0.448,0.216,0.932,-160.34,174.377,26.794,0,0,0,
,-0.451,0.23,0.947,-199.219,177.429,60.791,0,0,0,
,-0.434,0.235,0.951,-240.845,183.41,78.002,0,0,0,
,-0.427,0.24,0.96,-269.715,170.593,94.299,0,0,0,
,-0.428,0.233,0.951,-307.435,171.63,113.708,0,0,0,
,-0.435,0.223,0.928,-349.793,174.011,126.281,0,0,0,
,-0.431,0.253,0.908,-394.532,180.175,141.54,0,0,0,
,-0.416,0.281,0.907,-408.692,185.058,142.395,0,0,0,
,-0.397,0.293,0.902,-398.621,176.757,142.151,0,0,0,
,-0.397,0.252,0.899,-413.331,153.747,136.047,0,0,0,
,-0.407,0.295,0.915,-452.637,161.743,151.367,0,0,0,
,-0.398,0.302,0.909,-458.558,172.973,141.296,0,0,0,
,-0.384,0.302,0.903,-473.816,160.034,141.845,0,0,0,
,-0.388,0.314,0.891,-477.601,138.427,136.352,0,0,0,
,-0.395,0.343,0.898,-472.718,132.568,125.305,0,0,0,
,-0.382,0.356,0.906,-455.567,121.521,116.76,0,0,0,
,-0.366,0.364,0.905,-444.703,92.041,111.938,0,0,0,
,-0.372,0.378,0.891,-445.74,57.434,103.332,0,0,0,
,-0.387,0.415,0.869,-446.167,28.686,86.669,0,0,0,
,-0.391,0.455,0.861,-404.114,15.38,77.697,0,0,0,
,-0.381,0.494,0.835,-325.44,-1.648,68.664,0,0,0,
,-0.377,0.501,0.81,-220.337,-42.115,50.842,0,0,0,
,-0.384,0.493,0.807,-126.709,-79.163,33.691,0,0,0,
,-0.399,0.482,0.785,-49.439,-103.272,23.498,0,0,0,
,-0.412,0.478,0.781,11.169,-125.794,6.042,0,0,0,
,-0.43,0.481,0.807,88.195,-137.696,7.873,0,0,0,
,-0.441,0.464,0.807,163.025,-146.485,6.958,0,0,0,
,-0.465,0.423,0.797,180.359,-151.123,-19.898,0,0,0,
,-0.468,0.427,0.781,181.396,-135.01,-24.476,0,0,0,
,-0.467,0.425,0.777,204.162,-138.855,-38.758,0,0,0,
,-0.463,0.433,0.782,231.018,-150.757,-39.002,0,0,0,
,-0.477,0.432,0.784,261.779,-172.12,-48.34,0,0,0,
,-0.491,0.422,0.77,288.086,-187.684,-63.477,0,0,0,
,-0.501,0.413,0.76,310.913,-184.021,-73.609,0,0,0,
,-0.504,0.412,0.769,327.453,-186.341,-84.9,0,0,0,
,-0.51,0.412,0.754,370.727,-190.735,-95.948,0,0,0,
,-0.523,0.42,0.735,414.917,-193.177,-111.817,0,0,0,
,-0.536,0.434,0.716,484.436,-193.543,-127.625,0,0,0,
,-0.539,0.422,0.724,591.98,-194.642,-148.804,0,0,0,
,-0.54,0.387,0.737,664.428,-193.055,-153.504,0,0,0,
,-0.544,0.301,0.729,702.331,-196.351,-175.599,0,0,0,
,-0.55,0.22,0.748,639.77,-188.965,-175.599,0,0,0,
,-0.562,0.226,0.747,531.433,-160.157,-153.199,0,0,0,
,-0.592,0.234,0.724,444.03,-139.161,-148.377,0,0,0,
,-0.56,0.234,0.697,384.521,-127.32,-130.799,0,0,0,
,-0.555,0.268,0.703,330.261,-113.587,-109.62,0,0,0,
,-0.569,0.29,0.709,323.181,-101.624,-94.971,0,0,0,
,-0.573,0.27,0.733,337.585,-76.844,-91.736,0,0,0,
,-0.57,0.229,0.732,332.397,-39.002,-70.801,0,0,0,
,-0.562,0.19,0.721,299.316,-8.851,-60.914,0,0,0,
,-0.552,0.201,0.741,268.554,4.028,-49.073,0,0,0,
,-0.555,0.194,0.767,231.018,17.639,-43.396,0,0,0,
,-0.557,0.185,0.803,200.012,49.926,-41.81,0,0,0,
,-0.546,0.192,0.819,172.302,83.496,-45.044,0,0,0,
,-0.524,0.171,0.815,151.306,95.703,-42.298,0,0,0,
,-0.51,0.139,0.812,116.638,75.256,-28.382,0,0,0,
,-0.525,0.16,0.81,64.453,71.228,-15.259,0,0,0,
,-0.539,0.197,0.815,31.738,85.876,-3.235,0,0,0,
,-0.536,0.177,0.826,40.649,96.679,11.352,0,0,0,
,-0.528,0.148,0.835,21.118,113.83,31.005,0,0,0,
,-0.524,0.132,0.839,-32.654,132.202,44.311,0,0,0,
,-0.523,0.157,0.829,-80.384,154.052,52.002,0,0,0,
,-0.509,0.161,0.844,-98.389,167.541,58.288,0,0,0,
,-0.5,0.157,0.843,-106.812,170.837,63.964,0,0,0,
,-0.5,0.143,0.852,-131.958,175.109,61.767,0,0,0,
,-0.48,0.144,0.874,-160.401,213.501,88.073,0,0,0,
,-0.466,0.139,0.893,-221.924,201.965,73.791,0,0,0,
,-0.468,0.179,0.897,-257.996,219.177,109.741,0,0,0,
,-0.455,0.173,0.911,-270.813,222.717,105.041,0,0,0,
,-0.44,0.181,0.925,-301.026,220.214,129.943,0,0,0,
,-0.43,0.175,0.921,-344.971,216.919,121.643,0,0,0,
,-0.424,0.187,0.91,-404.602,219.848,135.62,0,0,0,
,-0.42,0.213,0.924,-456.421,235.351,140.625,0,0,0,
,-0.402,0.238,0.935,-482.666,254.76,143.737,0,0,0,
,-0.378,0.267,0.933,-490.54,254.455,143.249,0,0,0,
,-0.364,0.297,0.922,-455.933,232.666,142.639,0,0,0,
,-0.364,0.307,0.927,-406.922,202.575,146.423,0,0,0,
,-0.367,0.284,0.937,-352.784,174.499,123.413,0,0,0,
,-0.369,0.247,0.936,-343.018,152.404,115.966,0,0,0,
,-0.365,0.25,0.954,-365.723,137.878,99.06,0,0,0,
,-0.365,0.301,0.968,-371.033,115.356,73.303,0,0,0,
,-0.351,0.306,0.958,-342.896,90.332,76.782,0,0,0,
,-0.355,0.316,0.936,-319.703,48.645,43.518,0,0,0,
,-0.359,0.333,0.933,-295.105,16.113,34.301,0,0,0,
,-0.359,0.374,0.923,-266.114,-10.682,27.893,0,0,0,
,-0.359,0.387,0.903,-226.746,-48.584,3.051,0,0,0,
,-0.368,0.395,0.898,-171.753,-96.985,-10.682,0,0,0,
,-0.38,0.42,0.886,-109.192,-118.836,-22.522,0,0,0,
,-0.383,0.423,0.873,-39.734,-140.87,-40.65,0,0,0,
,-0.39,0.41,0.861,20.202,-172.181,-55.848,0,0,0,
,-0.41,0.403,0.853,67.199,-205.445,-66.529,0,0,0,
,-0.431,0.397,0.84,107.055,-223.877,-73.731,0,0,0,
,-0.447,0.404,0.837,160.949,-236.695,-73.304,0,0,0,
,-0.462,0.403,0.822,206.421,-249.024,-99.549,0,0,0,
,-0.472,0.41,0.811,272.888,-249.085,-110.84,0,0,0,
,-0.477,0.383,0.778,345.214,-264.71,-125.733,0,0,0,
,-0.498,0.34,0.768,389.648,-293.641,-140.809,0,0,0,
,-0.535,0.354,0.764,428.466,-286.56,-151.307,0,0,0,
,-0.553,0.363,0.771,499.45,-260.865,-164.795,0,0,0,
,-0.552,0.327,0.757,573.73,-236.206,-190.491,0,0,0,
,-0.554,0.272,0.727,601.562,-220.826,-206.788,0,0,0,
,-0.561,0.265,0.717,588.806,-212.891,-203.553,0,0,0,
,-0.573,0.275,0.718,585.083,-210.938,-205.933,0,0,0,
,-0.579,0.244,0.758,581.421,-204.224,-203.309,0,0,0,
,-0.587,0.21,0.767,538.086,-187.928,-199.524,0,0,0,
,-0.592,0.193,0.762,460.693,-157.044,-193.116,0,0,0,
,-0.58,0.224,0.74,379.943,-111.084,-175.477,0,0,0,
,-0.564,0.257,0.699,362.182,-85.328,-163.514,0,0,0,
,-0.55,0.27,0.705,379.272,-89.234,-149.476,0,0,0,
,-0.55,0.289,0.736,417.907,-86.976,-138.733,0,0,0,
,-0.554,0.266,0.758,448.608,-72.449,-134.461,0,0,0,
,-0.554,0.178,0.764,436.157,-52.185,-126.343,0,0,0,
,-0.552,0.13,0.776,331.909,-7.081,-95.215,0,0,0,
,-0.546,0.146,0.77,201.599,45.105,-61.89,0,0,0,
,-0.538,0.206,0.771,142.883,84.533,-29.969,0,0,0,
,-0.526,0.199,0.769,146.85,95.275,-13.062,0,0,0,
,-0.527,0.141,0.799,142.639,90.148,7.995,0,0,0,
,-0.536,0.096,0.83,87.89,103.393,26.428,0,0,0,
,-0.537,0.09,0.844,13.305,123.779,40.344,0,0,0,
,-0.534,0.087,0.865,-40.528,140.93,54.321,0,0,0,
,-0.534,0.062,0.883,-79.773,160.4,58.471,0,0,0,
,-0.517,0.066,0.886,-127.564,179.321,63.537,0,0,0,
,-0.503,0.091,0.9,-181.214,193.969,75.439,0,0,0,
,-0.489,0.114,0.87,-213.379,196.838,87.28,0,0,0,
,-0.476,0.111,0.894,-245.301,187.866,89.355,0,0,0,
,-0.47,0.15,0.929,-262.33,185.424,103.21,0,0,0,
,-0.465,0.171,0.919,-244.019,183.166,104.98,0,0,0,
,-0.445,0.152,0.915,-228.028,181.213,107.055,0,0,0,
,-0.414,0.268,0.874,-250.672,194.824,124.511,0,0,0,
,-0.386,0.245,0.917,-194.703,185.547,138.244,0,0,0,
,-0.375,0.208,0.932,-145.386,152.16,144.653,0,0,0,
,-0.396,0.167,0.925,-131.043,126.037,150.329,0,0,0,
,-0.415,0.131,0.931,-154.358,119.995,146.362,0,0,0,
,-0.412,0.114,0.954,-193.604,124.817,139.221,0,0,0,
,-0.405,0.106,0.981,-262.818,115.966,126.22,0,0,0,
,-0.401,0.111,1.011,-299.683,94.299,113.159,0,0,0,
,-0.406,0.116,1.005,-346.558,75.134,97.168,0,0,0,
,-0.407,0.126,0.992,-391.541,55.847,86.731,0,0,0,
,-0.411,0.168,0.957,-426.453,42.297,86.669,0,0,0,
,-0.413,0.28,0.914,-476.868,2.38,39.306,0,0,0,
,-0.417,0.303,0.892,-453.614,-11.841,38.208,0,0,0,
,-0.417,0.356,0.888,-393.982,-25.757,23.498,0,0,0,
,-0.415,0.372,0.862,-302.063,-38.88,0.122,0,0,0,
,-0.418,0.366,0.837,-230.652,-59.51,4.943,0,0,0,
,-0.454,0.358,0.836,-103.272,-104.432,-12.207,0,0,0,
,-0.466,0.351,0.836,-66.407,-103.699,-22.644,0,0,0,
,-0.477,0.355,0.825,-31.739,-98.145,-28.504,0,0,0,
,-0.481,0.334,0.802,0.244,-96.192,-50.171,0,0,0,
,-0.482,0.34,0.789,26.306,-100.708,-45.227,0,0,0,
,-0.489,0.344,0.786,53.772,-119.873,-59.571,0,0,0,
,-0.504,0.36,0.807,92.102,-138.55,-67.566,0,0,0,
,-0.515,0.358,0.811,148.01,-148.56,-87.159,0,0,0,
,-0.526,0.346,0.809,189.392,-148.011,-114.502,0,0,0,
,-0.531,0.349,0.786,223.266,-143.86,-127.259,0,0,0,
,-0.525,0.338,0.783,274.597,-149.964,-140.686,0,0,0,
,-0.53,0.331,0.773,324.768,-167.237,-150.574,0,0,0,
,-0.543,0.278,0.78,404.602,-181.946,-173.829,0,0,0,
,-0.553,0.284,0.779,365.966,-169.495,-170.411,0,0,0,
,-0.549,0.313,0.749,377.502,-156.189,-166.748,0,0,0,
,-0.55,0.307,0.722,408.935,-157.227,-174.561,0,0,0,
,-0.556,0.289,0.736,424.377,-162.842,-166.932,0,0,0,
,-0.562,0.292,0.748,388.244,-86.243,-161.805,0,0,0,
,-0.553,0.283,0.725,407.226,-67.383,-143.494,0,0,0,
,-0.546,0.263,0.745,417.053,-54.627,-122.986,0,0,0,
,-0.554,0.249,0.765,421.325,-45.044,-101.868,0,0,0,
,-0.555,0.199,0.771,408.386,-21.607,-87.159,0,0,0,
,-0.542,0.156,0.794,266.418,43.029,-53.772,0,0,0,
,-0.539,0.135,0.792,226.257,48.034,-61.829,0,0,0,
,-0.537,0.141,0.82,192.077,54.931,-49.866,0,0,0,
,-0.531,0.136,0.841,190.857,67.627,-34.668,0,0,0,
,-0.523,0.103,0.856,162.658,80.81,-22.706,0,0,0,
,-0.506,0.11,0.855,-8.301,109.619,35.278,0,0,0,
,-0.507,0.102,0.862,-59.632,118.53,50.354,0,0,0,
,-0.512,0.115,0.865,-109.742,137.085,51.269,0,0,0,
,-0.472,0.133,0.881,-144.776,162.658,49.438,0,0,0,
,-0.48,0.128,0.894,-158.02,172.119,55.114,0,0,0,
,-0.47,0.135,0.91,-245.789,142.517,65.063,0,0,0,
,-0.469,0.18,0.9,-242.371,156.067,64.331,0,0,0,
,-0.457,0.213,0.891,-185.914,166.442,59.631,0,0,0,
,-0.439,0.204,0.894,-111.451,146.362,58.044,0,0,0,
,-0.431,0.165,0.909,-80.384,114.135,54.016,0,0,0,
,-0.45,0.128,0.922,-110.108,93.505,62.988,0,0,0,
,-0.46,0.116,0.92,-180.054,95.031,68.969,0,0,0,
,-0.468,0.121,0.923,-269.349,111.755,77.514,0,0,0,
,-0.463,0.144,0.914,-351.136,138,84.716,0,0,0,
,-0.456,0.191,0.904,-403.87,156.86,93.2,0,0,0,
,-0.469,0.217,0.885,-402.955,156.555,101.196,0,0,0,
,-0.425,0.213,0.879,-399.231,164.978,116.638,0,0,0,
,-0.432,0.214,0.893,-412.537,162.78,111.511,0,0,0,
,-0.431,0.213,0.905,-430.115,177.49,122.253,0,0,0,
,-0.42,0.224,0.904,-465.943,190.857,124.023,0,0,0,
,-0.407,0.231,0.911,-495.545,195.984,121.276,0,0,0,
,-0.397,0.259,0.914,-515.564,193.664,123.901,0,0,0,
,-0.391,0.288,0.902,-489.624,183.776,114.929,0,0,0,
,-0.375,0.317,0.913,-441.163,164.55,114.929,0,0,0,
,-0.364,0.323,0.924,-390.992,133.178,112.06,0,0,0,
,-0.363,0.333,0.922,-358.399,96.252,93.444,0,0,0,
,-0.368,0.351,0.914,-331.421,59.753,72.57,0,0,0,
,-0.374,0.371,0.885,-276.856,32.287,50.048,0,0,0,
,-0.372,0.379,0.873,-229.676,-0.977,31.311,0,0,0,
,-0.375,0.366,0.854,-198.609,-39.978,8.667,0,0,0,
,-0.382,0.393,0.843,-175.965,-68.299,-0.611,0,0,0,
,-0.395,0.402,0.817,-130.005,-97.168,-10.621,0,0,0,
,-0.404,0.401,0.822,-104.126,-118.836,-18.555,0,0,0,
,-0.42,0.418,0.805,-84.595,-128.174,-22.95,0,0,0,
,-0.431,0.44,0.789,-51.27,-127.503,-27.588,0,0,0,
,-0.407,0.438,0.783,-3.174,-125.061,-35.035,0,0,0,
,-0.451,0.426,0.766,39.672,-129.273,-51.209,0,0,0,
,-0.465,0.419,0.753,70.922,-128.724,-58.045,0,0,0,
,-0.471,0.407,0.759,100.83,-129.395,-75.44,0,0,0,
,-0.478,0.436,0.768,142.517,-138.245,-84.778,0,0,0,
,-0.487,0.421,0.771,203.674,-146.058,-88.074,0,0,0,
,-0.496,0.443,0.76,284.973,-153.321,-101.136,0,0,0,
,-0.505,0.432,0.743,375.183,-158.936,-122.437,0,0,0,
,-0.513,0.418,0.743,458.618,-169.495,-138.733,0,0,0,
,-0.521,0.394,0.772,533.203,-185.181,-147.034,0,0,0,
,-0.525,0.362,0.793,585.937,-180.848,-156.373,0,0,0,
,-0.527,0.304,0.785,590.332,-179.627,-157.959,0,0,0,
,-0.537,0.254,0.796,522.094,-175.354,-146.973,0,0,0,
,-0.542,0.286,0.784,441.162,-150.513,-131.836,0,0,0,
,-0.539,0.318,0.761,429.321,-124.207,-125.55,0,0,0,
,-0.528,0.332,0.777,456.848,-115.906,-112.854,0,0,0,
,-0.52,0.294,0.776,499.267,-125.123,-108.521,0,0,0,
,-0.522,0.221,0.781,489.318,-131.531,-103.821,0,0,0,
,-0.541,0.189,0.775,422.241,-115.601,-90.76,0,0,0,
,-0.548,0.213,0.763,364.868,-76.905,-74.402,0,0,0,
,-0.536,0.229,0.76,346.069,-36.927,-66.895,0,0,0,
,-0.52,0.211,0.754,342.712,-11.536,-56.641,0,0,0,
,-0.504,0.225,0.771,341.003,11.291,-52.247,0,0,0,
,-0.472,0.218,0.787,352.722,23.01,-43.946,0,0,0,
,-0.497,0.127,0.809,338.623,30.212,-43.152,0,0,0,
,-0.498,0.098,0.83,246.154,47.851,-32.959,0,0,0,
,-0.495,0.109,0.838,147.644,92.956,-23.56,0,0,0,
,-0.484,0.134,0.851,79.528,100.83,-20.813,0,0,0,
,-0.475,0.123,0.864,46.814,103.149,-9.766,0,0,0,
,-0.475,0.11,0.877,2.136,108.581,0.305,0,0,0,
,-0.482,0.099,0.883,-69.214,121.948,12.573,0,0,0,
,-0.475,0.111,0.897,-155.213,148.498,27.038,0,0,0,
,-0.47,0.124,0.893,-225.464,168.274,43.762,0,0,0,
,-0.465,0.151,0.876,-282.898,183.593,55.419,0,0,0,
,-0.454,0.187,0.869,-304.139,195.617,67.504,0,0,0,
,-0.443,0.2,0.877,-300.782,194.519,78.613,0,0,0,
,-0.441,0.193,0.886,-300.66,182.129,95.52,0,0,0,
,-0.449,0.206,0.897,-323.06,173.95,107.605,0,0,0,
,-0.438,0.193,0.912,-343.811,189.148,112.365,0,0,0,
,-0.426,0.203,0.913,-367.249,191.955,113.281,0,0,0,
,-0.423,0.222,0.928,-373.536,181.884,116.15,0,0,0,
,-0.43,0.223,0.957,-375.306,179.26,114.624,0,0,0,
,-0.428,0.217,0.944,-389.527,193.847,124.572,0,0,0,
,-0.406,0.196,0.947,-415.589,194.946,128.051,0,0,0,
,-0.399,0.173,0.945,-489.624,177.856,119.323,0,0,0,
,-0.402,0.206,0.955,-562.867,162.719,114.441,0,0,0,
,-0.397,0.251,0.951,-611.512,154.297,112.06,0,0,0,
,-0.382,0.299,0.937,-601.197,137.634,112.793,0,0,0,
,-0.368,0.321,0.929,-575.44,92.102,122.863,0,0,0,
,-0.372,0.323,0.9,-561.768,57.312,112.793,0,0,0,
,-0.386,0.369,0.885,-569.642,27.404,105.468,0,0,0,
,-0.393,0.431,0.877,-537.293,16.784,81.848,0,0,0,
,-0.381,0.46,0.86,-436.219,0.671,66.284,0,0,0,
,-0.372,0.469,0.858,-321.228,-37.903,52.246,0,0,0,
,-0.381,0.458,0.821,-230.042,-74.28,40.1,0,0,0,
,-0.399,0.45,0.8,-164.002,-104.737,15.869,0,0,0,
,-0.415,0.455,0.791,-106.446,-120.057,-3.174,0,0,0,
,-0.421,0.468,0.814,-28.382,-127.259,-14.954,0,0,0,
,-0.424,0.458,0.815,60.18,-141.846,-32.593,0,0,0,
,-0.428,0.422,0.805,109.13,-155.579,-47.73,0,0,0,
,-0.433,0.415,0.804,105.59,-162.354,-59.754,0,0,0,
,-0.437,0.404,0.766,89.233,-170.289,-73.548,0,0,0,
,-0.451,0.411,0.76,50.354,-178.833,-79.956,0,0,0,
,-0.459,0.457,0.745,66.467,-173.768,-64.27,0,0,0,
,-0.472,0.453,0.738,100.036,-197.937,-90.088,0,0,0,
,-0.48,0.484,0.753,170.044,-193.97,-71.228,0,0,0,
,-0.494,0.456,0.758,244.018,-212.952,-100.342,0,0,0,
,-0.504,0.419,0.784,284.24,-214.417,-105.469,0,0,0,
,-0.518,0.404,0.775,310.363,-224.06,-102.234,0,0,0,
,-0.533,0.376,0.756,307.922,-219.605,-114.258,0,0,0,
,-0.552,0.382,0.739,303.466,-211.365,-110.047,0,0,0,
,-0.558,0.386,0.729,313.415,-194.764,-115.723,0,0,0,
,-0.561,0.4,0.726,352.905,-187.317,-114.441,0,0,0,
,-0.572,0.404,0.709,417.907,-181.031,-123.23,0,0,0,
,-0.581,0.37,0.703,469.36,-163.758,-138.184,0,0,0,
,-0.579,0.338,0.698,484.558,-130.921,-130.372,0,0,0,
,-0.567,0.32,0.703,455.505,-113.892,-125,0,0,0,
,-0.565,0.314,0.727,418.335,-107.239,-126.099,0,0,0,
,-0.56,0.303,0.729,389.77,-94.239,-122.01,0,0,0,
,-0.552,0.286,0.728,352.356,-83.069,-120.484,0,0,0,
,-0.541,0.296,0.744,310.608,-72.998,-115.113,0,0,0,
,-0.538,0.318,0.761,311.889,-67.688,-112.427,0,0,0,
,-0.535,0.287,0.759,326.843,-69.703,-119.812,0,0,0,
,-0.543,0.261,0.743,309.387,-63.416,-114.075,0,0,0,
,-0.547,0.303,0.733,285.827,-40.65,-106.202,0,0,0,
,-0.537,0.31,0.746,314.026,-31.128,-102.601,0,0,0,
,-0.532,0.266,0.735,348.083,-34.852,-106.385,0,0,0,
,-0.542,0.22,0.747,325.5,-39.734,-106.812,0,0,0,
,-0.558,0.197,0.778,269.775,-16.541,-101.746,0,0,0,
,-0.557,0.182,0.783,204.589,28.93,-89.417,0,0,0,
,-0.552,0.176,0.781,138.61,67.627,-73.731,0,0,0,
,-0.547,0.189,0.786,88.378,97.412,-59.388,0,0,0,
,-0.534,0.202,0.792,48.461,125.61,-45.227,0,0,0,
,-0.529,0.205,0.816,48.584,132.629,-30.579,0,0,0,
,-0.52,0.209,0.862,41.32,148.498,-13.794,0,0,0,
,-0.504,0.175,0.883,5.676,153.869,-2.259,0,0,0,
,-0.5,0.157,0.886,-65.125,164.428,11.657,0,0,0,
,-0.494,0.191,0.89,-158.814,174.072,35.461,0,0,0,
,-0.485,0.228,0.892,-211.06,180.725,57.19,0,0,0,
,-0.474,0.233,0.888,-235.169,178.711,79.65,0,0,0,
,-0.474,0.238,0.884,-269.41,175.964,99.792,0,0,0,
,-0.474,0.233,0.89,-293.763,180.908,120.605,0,0,0,
,-0.476,0.242,0.891,-317.627,188.354,131.713,0,0,0,
,-0.475,0.265,0.844,-321.228,196.533,131.408,0,0,0,
,-0.467,0.255,0.876,-310.852,203.247,129.028,0,0,0,
,-0.45,0.238,0.882,-313.721,207.458,133.911,0,0,0,
,-0.436,0.259,0.901,-332.398,201.233,132.812,0,0,0,
,-0.423,0.263,0.905,-334.778,184.265,125.976,0,0,0,
,-0.418,0.255,0.913,-332.215,161.621,122.192,0,0,0,
,-0.417,0.262,0.908,-329.773,135.62,122.558,0,0,0,
,-0.418,0.285,0.92,-329.041,113.403,115.722,0,0,0,
,-0.424,0.274,0.915,-324.646,95.581,98.449,0,0,0,
,-0.422,0.275,0.906,-335.572,88.806,96.618,0,0,0,
,-0.414,0.296,0.881,-347.962,81.298,92.407,0,0,0,
,-0.414,0.335,0.882,-345.948,63.049,86.12,0,0,0,
,-0.413,0.371,0.885,-305.42,42.968,84.533,0,0,0,
,-0.412,0.373,0.875,-249.329,20.69,83.068,0,0,0,
,-0.421,0.331,0.861,-236.451,2.075,63.842,0,0,0,
,-0.427,0.327,0.865,-253.479,-9.156,58.593,0,0,0,
,-0.43,0.361,0.849,-252.015,-13.611,56.213,0,0,0,
,-0.429,0.375,0.84,-217.774,-32.837,42.48,0,0,0,
,-0.431,0.382,0.82,-197.998,-57.679,28.503,0,0,0,
,-0.442,0.395,0.804,-185.914,-86.792,4.272,0,0,0,
,-0.461,0.405,0.79,-165.101,-104.981,-24.659,0,0,0,
,-0.465,0.443,0.777,-122.376,-115.052,-36.927,0,0,0,
,-0.471,0.453,0.778,-47.974,-129.273,-51.087,0,0,0,
,-0.474,0.445,0.783,14.831,-148.682,-57.19,0,0,0,
,-0.49,0.426,0.773,47.668,-163.453,-71.595,0,0,0,
,-0.501,0.418,0.768,53.283,-155.152,-68.482,0,0,0,
,-0.506,0.412,0.764,41.32,-151.49,-75.928,0,0,0,
,-0.51,0.428,0.755,41.992,-138.367,-71.228,0,0,0,
,-0.51,0.441,0.736,67.504,-129.151,-68.97,0,0,0,
,-0.514,0.439,0.732,94.421,-128.663,-77.027,0,0,0,
,-0.514,0.451,0.715,137.573,-124.634,-76.05,0,0,0,
,-0.515,0.461,0.714,210.449,-132.508,-88.685,0,0,0,
,-0.522,0.48,0.705,306.823,-136.17,-98.389,0,0,0,
,-0.527,0.471,0.743,424.133,-155.518,-114.624,0,0,0,
,-0.534,0.412,0.754,520.752,-169.922,-134.156,0,0,0,
,-0.547,0.338,0.767,556.701,-172.12,-139.344,0,0,0,
,-0.554,0.309,0.765,531.067,-144.837,-149.17,0,0,0,
,-0.55,0.281,0.749,488.159,-134.705,-163.269,0,0,0,
,-0.55,0.309,0.728,455.627,-127.442,-151.917,0,0,0,
,-0.557,0.299,0.725,445.922,-148.011,-158.448,0,0,0,
,-0.571,0.264,0.734,420.959,-154.48,-158.326,0,0,0,
,-0.594,0.269,0.736,367.675,-130.86,-148.194,0,0,0,
,-0.624,0.311,0.737,344.299,-79.163,-135.193,0,0,0,
,-0.584,0.299,0.729,355.529,-69.153,-121.705,0,0,0,
,-0.578,0.266,0.726,351.257,-50.171,-113.16,0,0,0,
,-0.578,0.27,0.737,307.19,-21.912,-92.713,0,0,0,
,-0.566,0.278,0.752,295.471,0.793,-80.872,0,0,0,
,-0.551,0.279,0.766,292.358,14.892,-68.482,0,0,0,
,-0.542,0.243,0.8,299.011,22.155,-67.505,0,0,0,
,-0.535,0.228,0.807,270.63,31.189,-48.218,0,0,0,
,-0.531,0.233,0.807,242.37,32.409,-48.523,0,0,0,
,-0.525,0.204,0.782,232.299,30.883,-44.495,0,0,0,
,-0.526,0.189,0.778,202.148,21.972,-40.101,0,0,0,
,-0.536,0.191,0.787,172.729,25.329,-41.748,0,0,0,
,-0.539,0.18,0.818,164.062,39.611,-36.927,0,0,0,
,-0.534,0.176,0.831,146.911,69.091,-36.683,0,0,0,
,-0.521,0.179,0.828,134.155,89.416,-33.936,0,0,0,
,-0.512,0.166,0.834,112.243,92.529,-24.048,0,0,0,
,-0.508,0.157,0.844,65.856,96.862,-15.137,0,0,0,
,-0.508,0.152,0.861,9.521,105.59,5.432,0,0,0,
,-0.508,0.159,0.873,-40.955,124.389,26.184,0,0,0,
,-0.506,0.18,0.868,-80.75,146.484,44.616,0,0,0,
,-0.501,0.201,0.868,-97.413,169.189,52.49,0,0,0,
,-0.486,0.197,0.856,-95.948,189.331,69.03,0,0,0,
,-0.468,0.2,0.847,-108.948,190.002,85.144,0,0,0,
,-0.464,0.203,0.867,-123.475,180.175,101.806,0,0,0,
,-0.462,0.224,0.878,-125.977,182.983,116.821,0,0,0,
,-0.459,0.216,0.896,-112.244,180.969,131.775,0,0,0,
,-0.449,0.19,0.908,-115.418,175.109,150.879,0,0,0,
,-0.452,0.174,0.911,-143.006,167.114,164.611,0,0,0,
,-0.46,0.179,0.914,-163.453,166.626,170.471,0,0,0,
,-0.459,0.169,0.911,-183.228,169.616,182.495,0,0,0,
,-0.457,0.158,0.913,-216.675,166.015,182.861,0,0,0,
,-0.453,0.137,0.966,-269.593,158.508,185.18,0,0,0,
,-0.457,0.131,0.952,-341.736,154.052,178.588,0,0,0,
,-0.454,0.125,0.944,-417.359,155.212,171.447,0,0,0,
,-0.446,0.129,0.938,-493.775,160.522,163.696,0,0,0,
,-0.433,0.154,0.922,-546.814,155.09,159.179,0,0,0,
,-0.429,0.199,0.914,-573.975,142.944,149.353,0,0,0,
,-0.419,0.244,0.916,-563.233,125.671,132.995,0,0,0,
,-0.414,0.268,0.905,-526.978,100.219,116.333,0,0,0,
,-0.412,0.283,0.899,-505.188,83.374,98.449,0,0,0,
,-0.402,0.31,0.89,-479.065,69.03,82.641,0,0,0,
,-0.396,0.34,0.892,-431.885,42.785,78.125,0,0,0,
,-0.4,0.372,0.882,-364.991,10.192,65.673,0,0,0,
,-0.413,0.379,0.867,-284.79,-9.705,44.433,0,0,0,
,-0.425,0.381,0.863,-247.742,-28.199,27.893,0,0,0,
,-0.423,0.381,0.858,-204.346,-39.49,7.934,0,0,0,
,-0.426,0.383,0.85,-180.848,-59.998,-3.174,0,0,0,
,-0.433,0.396,0.833,-163.636,-79.041,-10.804,0,0,0,
,-0.439,0.437,0.834,-137.635,-96.375,-18.372,0,0,0,
,-0.444,0.473,0.819,-57.557,-112.793,-19.959,0,0,0,
,-0.447,0.467,0.797,40.466,-135.132,-46.814,0,0,0,
,-0.458,0.422,0.767,118.835,-161.194,-67.383,0,0,0,
,-0.47,0.404,0.763,149.17,-179.322,-78.309,0,0,0,
,-0.48,0.411,0.76,170.044,-193.543,-86.792,0,0,0,
,-0.491,0.411,0.761,219.604,-205.018,-100.892,0,0,0,
,-0.504,0.415,0.742,274.292,-207.886,-123.108,0,0,0,
,-0.513,0.417,0.688,348.205,-209.595,-141.663,0,0,0,
,-0.516,0.399,0.71,429.809,-219.666,-164.002,0,0,0,
,-0.518,0.363,0.705,481.567,-227.295,-172.303,0,0,0,
,-0.54,0.342,0.706,506.713,-242.432,-193.543,0,0,0,
,-0.548,0.316,0.736,504.638,-241.211,-190.613,0,0,0,
,-0.558,0.313,0.76,481.323,-218.934,-187.256,0,0,0,
,-0.568,0.29,0.718,490.356,-153.26,-177.491,0,0,0,
,-0.567,0.252,0.721,458.801,-131.226,-159.241,0,0,0,
,-0.567,0.264,0.741,424.804,-102.601,-123.169,0,0,0,
,-0.569,0.258,0.783,396.24,-82.337,-105.53,0,0,0,
,-0.57,0.251,0.79,392.517,-50.904,-92.652,0,0,0,
,-0.543,0.198,0.78,392.456,-38.392,-87.891,0,0,0,
,-0.553,0.183,0.772,384.46,-61.829,-78.797,0,0,0,
,-0.559,0.162,0.798,379.333,-49.866,-80.262,0,0,0,
,-0.562,0.133,0.805,366.333,-34.668,-85.755,0,0,0,
,-0.558,0.109,0.798,337.768,-14.893,-71.289,0,0,0,
,-0.548,0.095,0.812,161.438,49.499,-33.326,0,0,0,
,-0.539,0.096,0.796,102.722,81.543,-22.339,0,0,0,
,-0.537,0.099,0.801,37.231,97.351,-11.353,0,0,0,
,-0.536,0.097,0.809,-26.673,116.394,0.366,0,0,0,
,-0.536,0.104,0.811,-77.515,131.408,-0.123,0,0,0,
,-0.515,0.102,0.853,-179.078,212.829,21.301,0,0,0,
,-0.495,0.126,0.884,-257.142,233.398,37.78,0,0,0,
,-0.48,0.155,0.897,-318.421,238.952,54.077,0,0,0,
,-0.475,0.183,0.898,-352.478,235.962,70.678,0,0,0,
,-0.465,0.18,0.896,-376.709,237.487,86.914,0,0,0,
,-0.465,0.209,0.918,-564.087,213.928,130.005,0,0,0,
,-0.467,0.248,0.914,-592.957,218.994,139.831,0,0,0,
,-0.458,0.294,0.894,-569.275,225.341,146.423,0,0,0,
,-0.445,0.325,0.896,-497.071,220.581,146.423,0,0,0,
,-0.421,0.309,0.894,-410.462,191.955,144.226,0,0,0,
,-0.452,0.145,0.983,-287.293,9.948,94.055,0,0,0,
,-0.48,0.217,0.953,-396.241,56.701,108.154,0,0,0,
,-0.447,0.269,0.912,-441.834,101.501,98.327,0,0,0,
,-0.413,0.294,0.862,-435.242,83.313,78.735,0,0,0,
,-0.397,0.336,0.859,-402.161,42.785,78.369,0,0,0,
,-0.399,0.356,0.858,-352.906,-4.517,70.922,0,0,0,
,-0.418,0.375,0.855,-320.191,-38.269,48.706,0,0,0,
,-0.432,0.398,0.856,-274.964,-46.204,36.499,0,0,0,
,-0.429,0.412,0.841,-216.98,-51.88,23.498,0,0,0,
,-0.42,0.403,0.803,-166.138,-68.665,8.117,0,0,0,
,-0.423,0.402,0.769,-128.113,-92.164,-0.489,0,0,0,
,-0.435,0.416,0.782,-108.887,-123.597,-13.123,0,0,0,
,-0.452,0.452,0.793,-67.994,-140.503,-22.217,0,0,0,
,-0.471,0.456,0.789,14.404,-143.677,-40.101,0,0,0,
,-0.476,0.426,0.763,83.068,-135.926,-57.862,0,0,0,
,-0.475,0.411,0.739,138.366,-136.17,-66.712,0,0,0,
,-0.474,0.412,0.741,184.936,-158.631,-76.539,0,0,0,
,-0.489,0.403,0.73,237.121,-177.063,-83.191,0,0,0,
,-0.542,0.403,0.812,368.408,-184.205,-108.094,0,0,0,
,-0.543,0.396,0.8,435.791,-166.26,-109.742,0,0,0,
,-0.535,0.349,0.804,473.144,-175.843,-134.705,0,0,0,
,-0.539,0.303,0.781,469.604,-192.81,-130.555,0,0,0,
,-0.558,0.318,0.784,458.679,-204.407,-123.23,0,0,0,
,-0.573,0.328,0.794,483.825,-192.505,-113.526,0,0,0,
,-0.577,0.294,0.777,497.009,-177.674,-118.775,0,0,0,
,-0.574,0.274,0.756,484.863,-164.185,-112.977,0,0,0,
,-0.573,0.251,0.752,461.731,-154.786,-106.202,0,0,0,
,-0.581,0.23,0.767,427.795,-149.292,-96.009,0,0,0,
,-0.587,0.2,0.754,397.094,-124.39,-96.863,0,0,0,
,-0.587,0.182,0.742,346.984,-87.342,-94.056,0,0,0,
,-0.581,0.213,0.732,310.363,-36.194,-91.553,0,0,0,
,-0.56,0.225,0.741,326.599,-15.87,-96.802,0,0,0,
,-0.543,0.192,0.745,343.628,-19.288,-95.704,0,0,0,
,-0.555,0.191,0.754,324.279,-28.87,-93.811,0,0,0,
,-0.556,0.185,0.761,313.781,-16.297,-92.225,0,0,0,
,-0.556,0.186,0.773,311.523,-10.56,-90.638,0,0,0,
,-0.558,0.181,0.78,314.209,-4.151,-87.403,0,0,0,
,-0.553,0.136,0.795,284.24,10.681,-82.154,0,0,0,
,-0.553,0.13,0.787,211.12,34.545,-65.857,0,0,0,
,-0.552,0.157,0.783,164.672,56.579,-52.491,0,0,0,
,-0.541,0.17,0.784,149.536,72.204,-37.537,0,0,0,
,-0.54,0.132,0.782,134.399,78.064,-28.626,0,0,0,
,-0.542,0.105,0.782,91.919,90.942,-14.893,0,0,0,
,-0.55,0.113,0.81,47.851,111.755,-7.081,0,0,0,
,-0.544,0.118,0.808,17.7,137.329,-6.836,0,0,0,
,-0.538,0.127,0.806,8.361,153.32,-1.648,0,0,0,
,-0.52,0.128,0.831,-5.005,168.029,-2.381,0,0,0,
,-0.508,0.121,0.864,-30.579,169.983,1.22,0,0,0,
,-0.499,0.122,0.878,-70.496,166.992,11.291,0,0,0,
,-0.496,0.116,0.894,-132.752,166.626,25.695,0,0,0,
,-0.496,0.114,0.91,-212.525,168.823,41.015,0,0,0,
,-0.493,0.129,0.932,-297.852,181.762,62.805,0,0,0,
,-0.48,0.155,0.917,-362.488,198.669,83.068,0,0,0,
,-0.472,0.209,0.904,-382.203,204.589,104.858,0,0,0,
,-0.462,0.227,0.903,-346.985,194.213,132.08,0,0,0,
,-0.459,0.218,0.901,-303.589,182.006,152.771,0,0,0,
,-0.458,0.185,0.92,-287.476,176.818,168.213,0,0,0,
,-0.456,0.168,0.932,-326.661,170.227,188.598,0,0,0,
,-0.462,0.166,0.93,-384.888,165.283,188.537,0,0,0,
,-0.466,0.172,0.928,-450.806,169.983,173.767,0,0,0,
,-0.437,0.216,0.916,-610.352,185.058,150.756,0,0,0,
,-0.431,0.251,0.904,-610.413,171.508,138.977,0,0,0,
,-0.424,0.282,0.883,-577.82,154.052,130.981,0,0,0,
,-0.416,0.311,0.878,-520.203,129.882,117.37,0,0,0,
,-0.41,0.321,0.887,-458.313,96.862,96.923,0,0,0,
,-0.405,0.338,0.878,-399.903,63.171,82.519,0,0,0,
,-0.408,0.363,0.867,-337.83,36.01,69.274,0,0,0,
,-0.415,0.374,0.857,-270.264,12.146,50.354,0,0,0,
,-0.423,0.369,0.864,-230.835,-3.846,28.442,0,0,0,
,-0.419,0.388,0.859,-193.421,-8.484,17.761,0,0,0,
,-0.413,0.383,0.831,-156.556,-34.302,-12.879,0,0,0,
,-0.418,0.344,0.801,-124.878,-64.331,-33.814,0,0,0,
,-0.433,0.387,0.807,-99.305,-97.657,-45.289,0,0,0,
,-0.445,0.411,0.831,-61.829,-122.681,-51.819,0,0,0,
,-0.459,0.438,0.83,4.333,-139.771,-74.524,0,0,0,
,-0.469,0.438,0.812,86.425,-152.161,-102.417,0,0,0,
,-0.472,0.411,0.792,176.33,-171.143,-128.479,0,0,0,
,-0.477,0.414,0.781,247.375,-191.163,-141.785,0,0,0,
,-0.481,0.41,0.767,330.81,-213.379,-168.03,0,0,0,
,-0.498,0.41,0.767,416.381,-239.93,-189.087,0,0,0,
,-0.514,0.395,0.756,506.652,-251.404,-209.351,0,0,0,
,-0.53,0.382,0.748,588.745,-253.296,-228.333,0,0,0,
,-0.54,0.37,0.755,634.46,-242.615,-237.061,0,0,0,
,-0.541,0.294,0.766,652.221,-237,-249.268,0,0,0,
,-0.544,0.24,0.756,601.379,-218.628,-236.573,0,0,0,
,-0.552,0.251,0.732,499.511,-200.013,-221.009,0,0,0,
,-0.554,0.29,0.77,446.655,-183.655,-210.633,0,0,0,
,-0.551,0.311,0.786,452.087,-167.542,-200.867,0,0,0,
,-0.554,0.261,0.771,454.162,-149.964,-191.468,0,0,0,
,-0.555,0.254,0.757,408.508,-117.31,-169.861,0,0,0,
,-0.552,0.258,0.74,357.483,-85.144,-149.414,0,0,0,
,-0.547,0.26,0.727,325.683,-61.646,-126.526,0,0,0,
,-0.543,0.286,0.742,319.213,-41.687,-97.779,0,0,0,
,-0.542,0.281,0.768,335.022,-17.212,-84.961,0,0,0,
,-0.53,0.228,0.808,326.843,1.586,-70.069,0,0,0,
,-0.525,0.166,0.818,269.836,26.062,-41.016,0,0,0,
,-0.521,0.177,0.811,180.175,53.649,-17.151,0,0,0,
,-0.516,0.174,0.813,130.859,73.425,-4.761,0,0,0,
,-0.512,0.15,0.821,93.261,82.824,7.324,0,0,0,
,-0.513,0.14,0.841,46.691,86.853,17.395,0,0,0,
,-0.518,0.115,0.864,-12.452,91.064,21.789,0,0,0,
,-0.517,0.11,0.873,-81.055,109.924,22.705,0,0,0,
,-0.512,0.156,0.858,-127.137,129.089,21.179,0,0,0,
,-0.497,0.184,0.844,-116.578,134.094,21.423,0,0,0,
,-0.49,0.177,0.829,-101.563,120.91,23.437,0,0,0,
,-0.493,0.182,0.856,-113.526,118.896,32.226,0,0,0,
,-0.488,0.18,0.871,-147.889,131.652,45.349,0,0,0,
,-0.478,0.174,0.876,-207.154,145.996,67.688,0,0,0,
,-0.476,0.186,0.891,-281.189,155.578,83.435,0,0,0,
,-0.478,0.197,0.885,-339.844,175.598,101.135,0,0,0,
,-0.473,0.23,0.88,-375.123,194.885,119.995,0,0,0,
,-0.456,0.254,0.877,-373.78,210.449,138.305,0,0,0,
,-0.448,0.259,0.87,-347.29,199.585,137.878,0,0,0,
,-0.441,0.26,0.883,-322.327,183.96,140.014,0,0,0,
,-0.438,0.248,0.895,-309.021,167.541,130.493,0,0,0,
,-0.44,0.236,0.907,-305.97,146.728,120.727,0,0,0,
,-0.447,0.225,0.907,-320.008,132.202,107.727,0,0,0,
,-0.45,0.238,0.905,-335.267,125.61,101.623,0,0,0,
,-0.447,0.25,0.902,-339.051,122.497,103.332,0,0,0,
,-0.438,0.255,0.9,-353.943,117.37,105.529,0,0,0,
,-0.431,0.26,0.893,-376.893,101.379,98.022,0,0,0,
,-0.436,0.286,0.901,-393.555,90.637,100.341,0,0,0,
,-0.436,0.309,0.893,-391.724,77.88,104.431,0,0,0,
,-0.435,0.342,0.906,-376.648,59.814,99.243,0,0,0,
,-0.433,0.359,0.869,-366.272,45.532,83.74,0,0,0,
,-0.429,0.391,0.858,-336.365,37.292,73.059,0,0,0,
,-0.422,0.401,0.829,-283.692,11.657,62.866,0,0,0,
,-0.434,0.401,0.792,-211.121,-38.392,27.832,0,0,0,
,-0.448,0.421,0.767,-179.383,-53.711,5.432,0,0,0,
,-0.456,0.43,0.772,-125.672,-60.608,-10.987,0,0,0,
,-0.453,0.438,0.778,-57.312,-58.96,-19.532,0,0,0,
,-0.451,0.422,0.778,2.502,-70.13,-39.49,0,0,0,
,-0.45,0.392,0.764,37.841,-84.29,-56.519,0,0,0,
,-0.453,0.389,0.765,60.363,-104.798,-79.651,0,0,0,
,-0.449,0.416,0.765,108.642,-123.719,-85.755,0,0,0,
,-0.456,0.421,0.777,161.438,-156.373,-111.573,0,0,0,
,-0.468,0.406,0.784,224.121,-189.026,-133.118,0,0,0,
,-0.484,0.403,0.803,292.419,-209.473,-156.25,0,0,0,
,-0.53,0.401,0.8,376.037,-217.896,-165.772,0,0,0,
,-0.512,0.355,0.8,440.429,-225.098,-192.139,0,0,0,
,-0.521,0.317,0.805,445.495,-225.037,-204.895,0,0,0,
,-0.534,0.312,0.794,421.02,-222.474,-196.717,0,0,0,
,-0.549,0.322,0.813,395.385,-218.75,-198.426,0,0,0,
,-0.551,0.337,0.808,380.31,-194.275,-191.834,0,0,0,
,-0.543,0.354,0.798,386.413,-178.284,-186.158,0,0,0,
,-0.534,0.333,0.803,400.268,-182.068,-173.584,0,0,0,
,-0.538,0.297,0.799,389.343,-185.181,-161.683,0,0,0,
,-0.546,0.28,0.794,338.745,-169.251,-146.363,0,0,0,
,-0.549,0.299,0.783,310.302,-153.016,-132.691,0,0,0,
,-0.547,0.306,0.765,315.063,-141.419,-123.291,0,0,0,
,-0.55,0.312,0.767,340.759,-132.019,-117.859,0,0,0,
,-0.552,0.279,0.757,360.168,-124.085,-110.413,0,0,0,
,-0.552,0.226,0.745,338.134,-109.559,-104.737,0,0,0,
,-0.558,0.211,0.743,260.925,-87.525,-91.553,0,0,0,
,-0.565,0.265,0.744,214.416,-55.237,-69.825,0,0,0,
,-0.557,0.281,0.731,230.774,-31.373,-69.886,0,0,0,
,-0.547,0.247,0.734,251.464,-17.395,-55.054,0,0,0,
,-0.545,0.207,0.749,218.994,-7.264,-49.744,0,0,0,
,-0.549,0.203,0.756,176.696,13.061,-32.41,0,0,0,
,-0.548,0.2,0.77,144.958,30.273,-24.048,0,0,0,
,-0.544,0.196,0.768,127.014,56.091,-21.302,0,0,0,
,-0.543,0.185,0.782,101.135,71.96,-19.043,0,0,0,
,-0.543,0.176,0.8,90.637,90.576,-11.048,0,0,0,
,-0.533,0.152,0.816,60.546,108.154,-9.705,0,0,0,
,-0.533,0.134,0.834,-6.592,123.413,-12.94,0,0,0,
,-0.538,0.15,0.827,-83.924,137.024,-11.536,0,0,0,
,-0.538,0.186,0.829,-123.902,159.973,-11.719,0,0,0,
,-0.539,0.209,0.838,-138.123,182.251,-2.076,0,0,0,
,-0.536,0.199,0.848,-154.48,208.068,8.056,0,0,0,
,-0.533,0.183,0.885,-196.167,238.037,32.531,0,0,0,
,-0.519,0.187,0.928,-269.776,272.338,55.847,0,0,0,
,-0.501,0.2,0.927,-353.089,297.851,81.481,0,0,0,
,-0.488,0.205,0.924,-437.5,304.931,104.98,0,0,0,
,-0.468,0.242,0.916,-502.564,324.524,141.784,0,0,0,
,-0.446,0.294,0.933,-524.048,322.937,167.48,0,0,0,
,-0.417,0.328,0.913,-499.207,317.199,192.016,0,0,0,
,-0.409,0.351,0.907,-441.895,276.916,200.744,0,0,0,
,-0.412,0.347,0.885,-373.475,251.892,200.256,0,0,0,
,-0.402,0.293,0.885,-321.045,233.52,204.956,0,0,0,
,-0.397,0.26,0.89,-332.093,220.886,197.815,0,0,0,
,-0.39,0.253,0.902,-365.601,211.242,190.673,0,0,0,
,-0.376,0.243,0.9,-390.076,207.885,181.335,0,0,0,
,-0.364,0.26,0.891,-421.326,201.721,163.208,0,0,0,
,-0.348,0.289,0.871,-431.702,193.908,135.192,0,0,0,
,-0.331,0.323,0.864,-425.904,181.823,100.586,0,0,0,
,-0.315,0.345,0.866,-398.682,153.869,65.856,0,0,0,
,-0.308,0.371,0.874,-359.742,119.018,31.616,0,0,0,
,-0.309,0.41,0.871,-320.069,82.641,3.173,0,0,0,
,-0.306,0.434,0.866,-270.264,21.789,-15.259,0,0,0,
,-0.328,0.486,0.885,-227.539,-54.261,-32.959,0,0,0,
,-0.364,0.465,0.89,-188.843,-130.433,-71.473,0,0,0,
,-0.406,0.473,0.878,-169.739,-160.523,-74.83,0,0,0,
,-0.428,0.498,0.852,-146.363,-177.552,-58.411,0,0,0,
,-0.453,0.507,0.834,-111.145,-212.464,-56.946,0,0,0,
,-0.495,0.503,0.828,-54.261,-249.024,-47.852,0,0,0,
,-0.521,0.505,0.806,13.732,-240.784,-48.279,0,0,0,
,-0.525,0.459,0.762,124.878,-227.662,-79.895,0,0,0,
,-0.535,0.41,0.731,175.048,-218.995,-84.778,0,0,0,
,-0.536,0.451,0.72,207.519,-201.539,-71.961,0,0,0,
,-0.536,0.51,0.739,305.786,-202.698,-90.943,0,0,0,
,-0.535,0.511,0.739,459.167,-208.374,-101.807,0,0,0,
,-0.535,0.468,0.732,591.797,-212.281,-136.841,0,0,0,
,-0.527,0.344,0.718,647.338,-211.365,-157.654,0,0,0,
,-0.515,0.286,0.728,614.99,-211.426,-152.222,0,0,0,
,-0.514,0.282,0.744,516.723,-203.003,-131.836,0,0,0,
,-0.516,0.313,0.749,450.744,-193.238,-132.325,0,0,0,
,-0.518,0.34,0.758,437.194,-178.833,-134.766,0,0,0,
,-0.515,0.339,0.731,449.157,-159.974,-145.02,0,0,0,
,-0.512,0.323,0.707,458.435,-161.805,-149.476,0,0,0,
,-0.511,0.283,0.692,449.218,-175.354,-151.368,0,0,0,
,-0.532,0.261,0.688,414.184,-174.988,-144.776,0,0,0,
,-0.56,0.275,0.704,389.038,-155.64,-134.583,0,0,0,
,-0.567,0.238,0.725,385.192,-115.418,-124.451,0,0,0,
,-0.57,0.175,0.726,346.069,-81.421,-115.418,0,0,0,
,-0.572,0.169,0.731,256.713,-34.79,-92.347,0,0,0,
,-0.569,0.22,0.742,192.443,12.878,-81.055,0,0,0,
,-0.544,0.257,0.761,166.992,56.518,-69.825,0,0,0,
,-0.517,0.283,0.78,167.053,71.96,-57.312,0,0,0,
,-0.509,0.295,0.811,174.804,70.556,-39.307,0,0,0,
,-0.501,0.277,0.827,188.537,74.89,-32.776,0,0,0,
,-0.493,0.226,0.828,140.93,77.026,-28.626,0,0,0,
,-0.488,0.226,0.826,80.993,82.336,-22.217,0,0,0,
,-0.493,0.251,0.828,33.203,95.581,-17.09,0,0,0,
,-0.478,0.242,0.845,-9.217,113.586,-14.405,0,0,0,
,-0.441,0.232,0.862,-60.12,121.826,-4.761,0,0,0,
,-0.472,0.235,0.86,-118.409,131.775,8.239,0,0,0,
,-0.474,0.235,0.859,-171.143,145.263,23.62,0,0,0,
,-0.473,0.246,0.844,-220.765,159.607,42.297,0,0,0,
,-0.472,0.273,0.834,-236.878,172.119,63.903,0,0,0,
,-0.466,0.289,0.835,-222.535,176.33,88.195,0,0,0,
,-0.466,0.273,0.845,-204.712,172.546,121.826,0,0,0,
,-0.477,0.23,0.871,-206.36,164.306,150.085,0,0,0,
,-0.501,0.224,0.873,-233.094,181.152,179.565,0,0,0,
,-0.502,0.227,0.881,-260.682,215.271,197.692,0,0,0,
,-0.489,0.243,0.896,-275.147,241.333,205.993,0,0,0,
,-0.455,0.242,0.901,-280.396,247.802,216.186,0,0,0,
,-0.438,0.226,0.92,-312.684,232.605,224.975,0,0,0,
,-0.432,0.219,0.917,-376.465,230.651,235.351,0,0,0,
,-0.428,0.239,0.928,-443.909,233.154,244.323,0,0,0,
,-0.42,0.29,0.914,-476.746,240.356,247.863,0,0,0,
,-0.405,0.318,0.897,-465.21,236.267,231.262,0,0,0,
,-0.393,0.336,0.893,-435.242,212.463,220.459,0,0,0,
,-0.381,0.336,0.907,-390.87,187.194,201.233,0,0,0,
,-0.374,0.334,0.92,-393.738,161.56,187.805,0,0,0,
,-0.368,0.338,0.915,-387.879,141.296,174.316,0,0,0,
,-0.358,0.375,0.872,-309.51,63.11,122.192,0,0,0,
,-0.354,0.387,0.873,-261.719,49.072,103.576,0,0,0,
,-0.355,0.397,0.871,-220.154,0.549,82.519,0,0,0,
,-0.363,0.397,0.881,-193.848,-12.085,55.236,0,0,0,
,-0.371,0.402,0.879,-194.886,-31.189,35.949,0,0,0,
,-0.362,0.443,0.856,-201.661,-107.972,-16.358,0,0,0,
,-0.373,0.462,0.833,-174.195,-143.189,-41.626,0,0,0,
,-0.388,0.482,0.822,-121.277,-183.899,-51.148,0,0,0,
,-0.408,0.481,0.787,-68.848,-208.252,-87.098,0,0,0,
,-0.428,0.5,0.777,-15.076,-221.741,-107.727,0,0,0,
,-0.443,0.511,0.78,60.302,-233.643,-135.376,0,0,0,
,-0.467,0.494,0.79,145.141,-239.624,-161.072,0,0,0,
,-0.492,0.449,0.782,186.95,-231.263,-176.697,0,0,0,
,-0.508,0.427,0.763,186.462,-217.225,-179.444,0,0,0,
,-0.515,0.441,0.743,166.87,-202.149,-180.359,0,0,0,
,-0.522,0.508,0.718,192.077,-196.595,-179.322,0,0,0,
,-0.528,0.544,0.707,305.664,-207.825,-184.021,0,0,0,
,-0.547,0.521,0.694,435.18,-218.811,-199.83,0,0,0,
,-0.562,0.474,0.691,529.174,-217.591,-209.351,0,0,0,
,-0.569,0.409,0.694,559.143,-205.018,-208.191,0,0,0,
,-0.568,0.354,0.675,531.555,-191.59,-199.769,0,0,0,
,-0.569,0.395,0.664,487.548,-160.096,-175.843,0,0,0,
,-0.594,0.419,0.65,503.173,-138.733,-167.969,0,0,0,
,-0.56,0.369,0.65,529.541,-129.7,-164.429,0,0,0,
,-0.564,0.372,0.65,521.423,-103.455,-143.433,0,0,0,
,-0.56,0.336,0.643,508.239,-81.849,-134.766,0,0,0,
,-0.558,0.31,0.638,455.566,-50.843,-109.925,0,0,0,
,-0.563,0.304,0.675,385.254,-16.846,-82.276,0,0,0,
,-0.558,0.308,0.697,335.449,37.963,-47.181,0,0,0,
,-0.539,0.302,0.721,293.09,87.951,-44.434,0,0,0,
,-0.513,0.294,0.73,251.037,115.844,-30.579,0,0,0,
,-0.497,0.239,0.744,206.726,129.455,-16.907,0,0,0,
,-0.49,0.245,0.769,140.686,151.306,6.347,0,0,0,
,-0.482,0.242,0.785,99.06,173.767,26.672,0,0,0,
,-0.468,0.235,0.8,59.814,187.072,32.592,0,0,0,
,-0.462,0.225,0.802,1.709,205.932,36.926,0,0,0,
,-0.445,0.188,0.813,-56.397,224.853,45.471,0,0,0,
,-0.432,0.18,0.838,-137.085,241.882,56.152,0,0,0,
,-0.412,0.176,0.905,-219.544,250.549,65.856,0,0,0,
,-0.392,0.187,0.977,-313.355,245.117,79.589,0,0,0,
,-0.381,0.157,0.999,-424.317,225.036,77.941,0,0,0,
,-0.388,0.163,0.965,-577.515,208.191,83.679,0,0,0,
,-0.405,0.23,0.933,-691.773,200.378,81.298,0,0,0,
,-0.399,0.315,0.868,-735.535,203.979,90.82,0,0,0,
,-0.381,0.375,0.843,-725.037,149.109,71.35,0,0,0,
,-0.407,0.458,0.817,-670.289,105.163,69.152,0,0,0,
,-0.431,0.503,0.807,-552.308,104.492,56.152,0,0,0,
,-0.419,0.479,0.801,-431.397,116.821,49.621,0,0,0,
,-0.377,0.45,0.797,-376.465,115.173,57.922,0,0,0,
,-0.426,0.464,0.859,-354.126,154.968,110.656,0,0,0,
,-0.394,0.475,0.868,-319.642,169.311,141.235,0,0,0,
,-0.385,0.484,0.868,-301.392,154.541,155.212,0,0,0,
,-0.389,0.475,0.869,-278.565,133.117,161.071,0,0,0,
,-0.386,0.495,0.868,-267.945,120.239,168.945,0,0,0,
,-0.354,0.521,0.866,-259.034,67.871,141.479,0,0,0,
,-0.355,0.533,0.84,-251.709,21.728,113.525,0,0,0,
,-0.361,0.557,0.853,-148.987,-46.021,84.167,0,0,0,
,-0.374,0.55,0.834,-85.328,-70.313,66.65,0,0,0,
,-0.395,0.514,0.793,-37.781,-90.516,53.222,0,0,0,
,-0.425,0.477,0.763,-39.856,-106.324,35.217,0,0,0,
,-0.451,0.511,0.752,-56.946,-81.543,38.818,0,0,0,
,-0.444,0.562,0.765,-4.395,-54.322,21.301,0,0,0,
,-0.438,0.544,0.764,67.138,-50.721,-7.569,0,0,0,
,-0.456,0.501,0.761,116.088,-46.875,-25.025,0,0,0,
,-0.473,0.466,0.746,126.098,-19.654,-32.532,0,0,0,
,-0.462,0.45,0.725,99.548,10.009,-18.799,0,0,0,
,-0.448,0.473,0.724,73.73,13.122,-12.33,0,0,0,
,-0.456,0.502,0.75,63.171,-12.574,-10.621,0,0,0,
,-0.484,0.532,0.769,85.022,-25.635,-4.212,0,0,0,
,-0.498,0.546,0.78,127.868,-9.583,-15.87,0,0,0,
,-0.489,0.524,0.751,187.133,-3.479,-14.588,0,0,0,
,-0.487,0.512,0.729,208.313,-34.363,-16.114,0,0,0,
,-0.51,0.537,0.716,253.051,-62.317,-10.865,0,0,0,
,-0.525,0.571,0.697,340.393,-74.28,-9.522,0,0,0,
,-0.526,0.548,0.708,450.012,-82.764,-31.189,0,0,0,
,-0.511,0.513,0.725,534.973,-81.421,-42.847,0,0,0,
,-0.494,0.469,0.727,589.477,-85.938,-56.275,0,0,0,
,-0.477,0.417,0.727,597.29,-94.361,-55.848,0,0,0,
,-0.476,0.363,0.731,571.35,-121.521,-52.979,0,0,0,
,-0.489,0.372,0.752,539.428,-115.601,-38.697,0,0,0,
,-0.486,0.39,0.751,551.757,-94.361,-49.744,0,0,0,
,-0.475,0.33,0.725,574.951,-93.506,-62.989,0,0,0,
,-0.469,0.258,0.722,541.442,-103.455,-66.712,0,0,0,
,-0.479,0.286,0.689,496.887,-104.004,-56.946,0,0,0,
,-0.49,0.296,0.672,513.305,-110.169,-63.233,0,0,0,
,-0.502,0.264,0.686,532.837,-108.094,-70.923,0,0,0,
,-0.504,0.199,0.73,520.935,-87.525,-84.473,0,0,0,
,-0.499,0.149,0.752,454.162,-48.829,-75.501,0,0,0,
,-0.489,0.094,0.763,340.881,-22.461,-68.36,0,0,0,
,-0.489,0.139,0.792,222.9,8.85,-44.861,0,0,0,
,-0.476,0.239,0.813,185.485,49.804,-41.26,0,0,0,
,-0.449,0.226,0.83,227.539,39.367,-71.106,0,0,0,
,-0.45,0.157,0.864,231.14,-0.977,-77.149,0,0,0,
,-0.477,0.132,0.896,190.673,2.014,-68.909,0,0,0,
,-0.465,0.117,0.916,136.169,38.879,-64.576,0,0,0,
,-0.45,0.095,0.917,77.453,35.949,-74.463,0,0,0,
,-0.464,0.143,0.898,24.108,29.541,-63.05,0,0,0,
,-0.472,0.154,0.854,30.822,28.137,-81.543,0,0,0,
,-0.481,0.181,0.842,31.127,33.63,-89.478,0,0,0,
,-0.472,0.166,0.844,51.086,30.334,-99.976,0,0,0,
,-0.468,0.142,0.844,31.25,31.738,-98.084,0,0,0,
,-0.476,0.146,0.861,-14.954,37.597,-96.07,0,0,0,
,-0.467,0.141,0.838,-82.154,59.875,-86.243,0,0,0,
,-0.468,0.204,0.823,-142.395,75.805,-74.341,0,0,0,
,-0.462,0.246,0.805,-143.128,100.341,-62.623,0,0,0,
,-0.45,0.249,0.807,-139.405,104.553,-53.528,0,0,0,
,-0.447,0.245,0.816,-150.696,109.253,-45.289,0,0,0,
,-0.441,0.234,0.83,-195.618,125.122,-21.851,0,0,0,
,-0.436,0.224,0.838,-267.09,140.014,-2.381,0,0,0,
,-0.429,0.223,0.839,-358.338,166.809,21.789,0,0,0,
,-0.42,0.263,0.849,-436.585,187.133,46.814,0,0,0,
,-0.411,0.32,0.878,-480.164,211.731,71.533,0,0,0,
,-0.395,0.348,0.894,-464.295,219.909,91.98,0,0,0,
,-0.387,0.339,0.907,-439.148,210.327,105.835,0,0,0,
,-0.397,0.323,0.901,-424.317,198.547,114.441,0,0,0,
,-0.393,0.346,0.923,-403.138,193.054,110.778,0,0,0,
,-0.381,0.349,0.947,-365.418,170.044,108.032,0,0,0,
,-0.386,0.322,0.944,-334.046,139.831,97.106,0,0,0,
,-0.394,0.314,0.936,-337.342,119.69,88.867,0,0,0,
,-0.394,0.336,0.946,-338.44,115.234,80.81,0,0,0,
,-0.376,0.349,0.939,-318.726,104.553,71.167,0,0,0,
,-0.36,0.364,0.909,-299.012,78.247,57.8,0,0,0,
,-0.356,0.383,0.932,-273.316,56.762,47.668,0,0,0,
,-0.344,0.393,0.905,-252.991,39.611,38.635,0,0,0,
,-0.334,0.397,0.892,-241.028,18.371,27.343,0,0,0,
,-0.33,0.401,0.895,-223.328,-9.461,10.742,0,0,0,
,-0.337,0.402,0.885,-208.069,-32.41,-6.226,0,0,0,
,-0.344,0.412,0.874,-205.14,-49.317,-32.898,0,0,0,
,-0.343,0.431,0.844,-201.477,-75.867,-61.707,0,0,0,
,-0.351,0.448,0.809,-162.415,-123.169,-98.267,0,0,0,
,-0.363,0.469,0.777,-112.854,-182.618,-131.714,0,0,0,
,-0.383,0.511,0.768,-49.134,-240.662,-173.523,0,0,0,
,-0.401,0.542,0.758,56.762,-298.829,-206.727,0,0,0,
,-0.429,0.546,0.731,190.49,-348.267,-241.7,0,0,0,
,-0.461,0.536,0.716,305.236,-382.447,-263.855,0,0,0,
,-0.481,0.501,0.707,407.165,-404.541,-288.269,0,0,0,
,-0.502,0.497,0.706,485.168,-417.725,-302.369,0,0,0,
,-0.518,0.482,0.719,549.804,-416.138,-312.623,0,0,0,
,-0.538,0.426,0.717,584.961,-404.602,-321.167,0,0,0,
,-0.572,0.359,0.687,490.905,-292.603,-285.828,0,0,0,
,-0.576,0.356,0.673,456.909,-271.851,-274.842,0,0,0,
,-0.591,0.356,0.676,445.617,-250.245,-261.353,0,0,0,
,-0.606,0.374,0.692,453.613,-208.435,-248.658,0,0,0,
,-0.598,0.338,0.657,458.007,-164.063,-235.169,0,0,0,
,-0.59,0.27,0.705,399.841,-118.042,-214.173,0,0,0,
,-0.589,0.27,0.712,273.559,-62.256,-169.312,0,0,0,
,-0.585,0.329,0.727,151.367,0.61,-131.409,0,0,0,
,-0.557,0.381,0.758,79.101,67.382,-85.389,0,0,0,
,-0.523,0.413,0.77,60.669,111.389,-36.988,0,0,0,
,-0.509,0.387,0.753,58.105,117.37,-0.061,0,0,0,
,-0.511,0.342,0.757,28.198,124.572,37.292,0,0,0,
,-0.506,0.323,0.768,-26.185,151.245,67.138,0,0,0,
,-0.496,0.343,0.772,-65.674,177.856,81.787,0,0,0,
,-0.48,0.348,0.8,-63.233,184.265,95.581,0,0,0,
,-0.459,0.345,0.829,-64.515,184.509,105.835,0,0,0,
,-0.453,0.334,0.855,-74.341,184.326,118.53,0,0,0,
,-0.443,0.323,0.874,-99.854,200.195,137.634,0,0,0,
,-0.427,0.325,0.876,-131.409,212.158,156.555,0,0,0,
,-0.415,0.333,0.862,-164.673,215.21,173.706,0,0,0,
,-0.408,0.336,0.858,-174.927,205.505,190.002,0,0,0,
,-0.393,0.312,0.918,-171.082,206.482,214.843,0,0,0,
,-0.385,0.268,0.919,-197.327,191.589,213.073,0,0,0,
,-0.397,0.262,0.912,-246.521,178.039,207.275,0,0,0,
,-0.409,0.309,0.885,-261.231,179.626,190.673,0,0,0,
,-0.391,0.301,0.892,-227.967,183.715,180.42,0,0,0,
,-0.372,0.281,0.927,-227.723,138.794,151.001,0,0,0,
,-0.375,0.275,0.924,-244.202,123.779,141.662,0,0,0,
,-0.383,0.27,0.914,-268.799,124.755,119.445,0,0,0,
,-0.376,0.347,0.922,-316.285,99.182,85.144,0,0,0,
,-0.368,0.345,0.907,-290.589,80.017,70.861,0,0,0,
,-0.372,0.35,0.895,-280.701,54.26,54.87,0,0,0,
,-0.388,0.371,0.871,-274.842,28.381,36.56,0,0,0,
,-0.398,0.396,0.86,-258.545,10.559,7.873,0,0,0,
,-0.397,0.43,0.833,-217.957,-7.081,-14.405,0,0,0,
,-0.414,0.473,0.826,66.589,-109.253,-96.192,0,0,0,
,-0.434,0.423,0.793,147.522,-150.513,-123.169,0,0,0,
,-0.457,0.405,0.787,187.011,-166.748,-138.062,0,0,0,
,-0.466,0.414,0.8,198.669,-164.185,-156.556,0,0,0,
,-0.455,0.407,0.804,230.407,-165.039,-175.721,0,0,0,
,-0.456,0.39,0.783,254.272,-184.754,-194.581,0,0,0,
,-0.505,0.368,0.742,230.041,-196.106,-220.093,0,0,0,
,-0.513,0.388,0.741,214.721,-181.397,-222.84,0,0,0,
,-0.521,0.399,0.728,219.482,-173.401,-223.145,0,0,0,
,-0.527,0.39,0.709,212.524,-153.992,-220.826,0,0,0,
,-0.532,0.394,0.698,180.603,-133.24,-216.004,0,0,0,
,-0.533,0.423,0.69,146.057,-105.774,-195.679,0,0,0,
,-0.525,0.446,0.69,134.948,-83.435,-177.674,0,0,0,
,-0.522,0.46,0.693,125.427,-62.561,-149.17,0,0,0,
,-0.524,0.466,0.704,124.939,-41.016,-122.803,0,0,0,
,-0.528,0.464,0.711,127.502,-7.019,-89.661,0,0,0,
,-0.515,0.468,0.717,124.145,32.531,-67.81,0,0,0,
,-0.499,0.444,0.721,124.939,49.377,-41.504,0,0,0,
,-0.495,0.42,0.741,107.116,56.762,-15.87,0,0,0,
,-0.495,0.419,0.765,96.435,68.237,7.751,0,0,0,
,-0.485,0.414,0.801,89.782,83.74,34.606,0,0,0,
,-0.474,0.381,0.821,75.256,88.989,48.95,0,0,0,
,-0.472,0.357,0.832,28.564,95.581,66.223,0,0,0,
,-0.468,0.352,0.823,-32.166,114.685,81.42,0,0,0,
,-0.457,0.362,0.813,-87.159,127.929,97.595,0,0,0,
,-0.446,0.394,0.807,-121.033,143.676,116.211,0,0,0,
,-0.428,0.403,0.822,-111.206,153.137,132.995,0,0,0,
,-0.413,0.388,0.835,-107.911,154.907,150.634,0,0,0,
,-0.402,0.348,0.862,-140.015,156.677,161.743,0,0,0,
,-0.4,0.333,0.859,-210.022,176.147,175.842,0,0,0,
,-0.386,0.335,0.87,-278.504,203.735,190.124,0,0,0,
,-0.348,0.356,0.882,-380.127,186.34,194.641,0,0,0,
,-0.356,0.361,0.881,-381.226,177.307,176.513,0,0,0,
,-0.352,0.366,0.882,-376.587,174.072,155.09,0,0,0,
,-0.342,0.366,0.871,-366.333,167.114,130.737,0,0,0,
,-0.324,0.411,0.922,-327.088,91.43,68.298,0,0,0,
,-0.34,0.442,0.916,-281.189,20.813,22.888,0,0,0,
,-0.37,0.5,0.908,-172.425,0.061,41.259,0,0,0,
,-0.382,0.404,0.87,-114.685,-28.443,-40.223,0,0,0,
,-0.392,0.473,0.82,-184.571,-51.88,-47.12,0,0,0,
,-0.396,0.502,0.819,-166.81,-83.802,-67.139,0,0,0,
,-0.408,0.552,0.81,-114.93,-119.935,-69.581,0,0,0,
,-0.431,0.578,0.781,-17.884,-149.598,-97.779,0,0,0,
,-0.443,0.57,0.763,56.518,-169.739,-105.286,0,0,0,
,-0.446,0.543,0.749,131.591,-195.862,-120.057,0,0,0,
,-0.493,0.519,0.695,354.919,-266.358,-171.936,0,0,0,
,-0.503,0.49,0.67,432.312,-290.101,-191.102,0,0,0,
,-0.515,0.438,0.676,486.938,-300.232,-204.773,0,0,0,
,-0.524,0.415,0.678,516.723,-311.951,-222.474,0,0,0,
,-0.545,0.374,0.692,501.22,-308.899,-237.183,0,0,0,
,-0.573,0.333,0.663,285.461,-208.069,-231.69,0,0,0,
,-0.565,0.396,0.64,246.215,-164.734,-219.422,0,0,0,
,-0.558,0.482,0.623,272.338,-142.456,-220.643,0,0,0,
,-0.539,0.526,0.628,355.896,-134.095,-218.811,0,0,0,
,-0.518,0.509,0.63,429.626,-136.597,-216.065,0,0,0,
,-0.513,0.479,0.682,463.562,-150.574,-184.082,0,0,0,
,-0.527,0.437,0.721,450.317,-144.471,-150.025,0,0,0,
,-0.538,0.367,0.718,384.277,-107.117,-106.751,0,0,0,
