TIMECODE,ACC_X,ACC_Y,ACC_Z,GYR_X,GYR_Y,GYR_Z,ECG_I,ECG_II,ECG_III,TAG
,0.083,-0.544,0.856,10.376,9.704,-21.058,0,0,0,
,0.078,-0.549,0.854,6.042,7.995,-21.973,0,0,0,
,0.077,-0.54,0.857,2.319,8.85,-22.156,0,0,0,
,0.077,-0.538,0.855,4.638,9.277,-21.485,0,0,0,
,0.079,-0.54,0.854,7.263,7.08,-21.668,0,0,0,
,0.078,-0.544,0.854,10.315,7.69,-20.386,0,0,0,
,0.082,-0.548,0.847,6.53,7.446,-23.316,0,0,0,
,0.083,-0.544,0.856,2.99,7.934,-20.264,0,0,0,
,0.075,-0.538,0.852,4.455,9.887,-21.424,0,0,0,
,0.079,-0.544,0.853,6.897,12.146,-20.569,0,0,0,
,0.081,-0.541,0.852,4.516,11.352,-21.546,0,0,0,
,0.081,-0.539,0.853,2.075,7.263,-23.316,0,0,0,
,0.081,-0.537,0.854,6.774,7.385,-22.217,0,0,0,
,0.079,-0.54,0.858,7.141,7.507,-21.302,0,0,0,
,0.077,-0.544,0.851,10.742,7.812,-20.447,0,0,0,
,0.081,-0.545,0.854,5.004,9.948,-20.386,0,0,0,
,0.084,-0.543,0.854,4.272,10.07,-23.926,0,0,0,
,0.081,-0.541,0.853,4.028,7.324,-23.194,0,0,0,
,0.078,-0.54,0.857,3.112,6.408,-23.56,0,0,0,
,0.081,-0.539,0.855,5.554,4.76,-24.964,0,0,0,
,0.08,-0.539,0.858,8.422,2.929,-24.109,0,0,0,
,0.078,-0.542,0.857,10.131,4.882,-22.95,0,0,0,
,0.076,-0.55,0.852,6.591,9.338,-21.302,0,0,0,
,0.076,-0.543,0.852,1.953,9.094,-20.63,0,0,0,
,0.079,-0.537,0.852,3.051,10.803,-21.302,0,0,0,
,0.082,-0.541,0.856,5.798,9.033,-20.447,0,0,0,
,0.081,-0.543,0.855,7.202,10.253,-22.522,0,0,0,
,0.08,-0.543,0.852,7.141,8.606,-22.034,0,0,0,
,0.082,-0.54,0.856,3.54,7.385,-20.813,0,0,0,
,0.08,-0.535,0.85,8.117,5.981,-22.034,0,0,0,
,0.078,-0.543,0.861,11.779,5.432,-22.4,0,0,0,
,0.076,-0.549,0.853,6.591,9.521,-21.18,0,0,0,
,0.078,-0.547,0.854,-0.916,13.855,-21.668,0,0,0,
,0.086,-0.538,0.854,1.525,10.925,-21.119,0,0,0,
,0.084,-0.536,0.855,6.652,7.324,-23.438,0,0,0,
,0.078,-0.541,0.854,11.352,4.943,-23.438,0,0,0,
,0.076,-0.548,0.853,11.23,8.911,-22.278,0,0,0,
,0.079,-0.548,0.854,3.112,10.559,-21.607,0,0,0,
,0.079,-0.542,0.855,1.342,11.779,-22.095,0,0,0,
,0.08,-0.538,0.851,5.859,10.376,-20.325,0,0,0,
,0.079,-0.543,0.854,6.713,9.216,-20.691,0,0,0,
,0.077,-0.541,0.852,5.798,10.437,-21.18,0,0,0,
,0.083,-0.544,0.855,6.103,7.873,-20.142,0,0,0,
,0.084,-0.539,0.853,3.54,7.934,-22.034,0,0,0,
,0.079,-0.538,0.857,7.446,4.333,-23.56,0,0,0,
,0.072,-0.544,0.853,8.117,8.178,-22.217,0,0,0,
,0.075,-0.541,0.854,6.774,9.948,-21.363,0,0,0,
,0.078,-0.541,0.851,3.051,9.46,-19.41,0,0,0,
,0.078,-0.538,0.851,4.943,10.437,-20.935,0,0,0,
,0.082,-0.544,0.85,7.263,10.62,-19.715,0,0,0,
,0.082,-0.543,0.853,4.272,6.103,-21.912,0,0,0,
,0.08,-0.544,0.856,5.31,9.643,-22.095,0,0,0,
,0.083,-0.539,0.855,5.554,7.995,-22.461,0,0,0,
,0.079,-0.539,0.853,9.765,9.155,-20.386,0,0,0,
,0.078,-0.551,0.852,6.897,6.958,-23.133,0,0,0,
,0.077,-0.543,0.855,0.854,8.972,-20.142,0,0,0,
,0.082,-0.535,0.856,3.601,10.192,-20.203,0,0,0,
,0.085,-0.537,0.857,9.887,7.507,-22.522,0,0,0,
,0.083,-0.545,0.854,12.268,8.667,-21.607,0,0,0,
,0.08,-0.552,0.853,6.836,7.873,-23.072,0,0,0,
,0.076,-0.542,0.857,3.295,9.582,-20.691,0,0,0,
,0.076,-0.539,0.855,4.76,10.07,-21.302,0,0,0,
,0.078,-0.54,0.85,6.713,10.498,-19.41,0,0,0,
,0.079,-0.547,0.853,6.958,10.742,-19.593,0,0,0,
,0.081,-0.543,0.853,2.502,8.972,-23.377,0,0,0,
,0.078,-0.537,0.854,2.807,7.08,-21.302,0,0,0,
,0.08,-0.539,0.851,5.798,9.338,-22.278,0,0,0,
,0.082,-0.541,0.857,6.836,7.568,-21.607,0,0,0,
,0.082,-0.538,0.848,6.286,4.882,-22.767,0,0,0,
,0.078,-0.542,0.855,8.422,5.004,-22.461,0,0,0,
,0.075,-0.544,0.854,7.019,5.615,-22.095,0,0,0,
,0.078,-0.546,0.857,4.272,8.422,-22.4,0,0,0,
,0.081,-0.54,0.856,6.042,11.474,-18.86,0,0,0,
,0.084,-0.54,0.855,6.408,12.329,-19.715,0,0,0,
,0.08,-0.541,0.85,6.042,9.826,-22.217,0,0,0,
,0.081,-0.539,0.853,4.089,9.826,-23.316,0,0,0,
,0.08,-0.537,0.857,4.577,6.774,-23.804,0,0,0,
,0.077,-0.539,0.859,9.948,5.493,-22.583,0,0,0,
,0.077,-0.547,0.854,8.178,8.728,-21.607,0,0,0,
,0.08,-0.548,0.854,5.92,9.46,-19.349,0,0,0,
,0.081,-0.54,0.854,2.502,8.361,-21.485,0,0,0,
,0.081,-0.539,0.854,4.15,9.277,-22.339,0,0,0,
,0.077,-0.539,0.854,6.836,6.591,-21.424,0,0,0,
,0.079,-0.542,0.855,5.92,7.812,-21.058,0,0,0,
,0.081,-0.539,0.853,3.662,8.483,-20.752,0,0,0,
,0.082,-0.536,0.855,5.31,9.338,-20.203,0,0,0,
,0.08,-0.541,0.853,7.751,7.263,-23.316,0,0,0,
,0.076,-0.545,0.853,6.897,7.446,-23.011,0,0,0,
,0.079,-0.541,0.857,3.967,9.765,-23.377,0,0,0,
,0.082,-0.545,0.853,6.591,9.46,-23.072,0,0,0,
,0.078,-0.541,0.852,4.821,7.446,-20.874,0,0,0,
,0.079,-0.541,0.853,6.591,6.042,-21.973,0,0,0,
,0.08,-0.542,0.856,7.751,6.347,-22.217,0,0,0,
,0.078,-0.542,0.854,5.615,8.117,-22.034,0,0,0,
,0.081,-0.539,0.853,4.76,9.155,-20.997,0,0,0,
,0.081,-0.54,0.853,5.676,7.873,-22.217,0,0,0,
,0.08,-0.546,0.849,7.385,8.789,-22.217,0,0,0,
,0.08,-0.545,0.854,4.577,8.972,-21.363,0,0,0,
,0.082,-0.542,0.851,3.418,7.507,-21.912,0,0,0,
,0.08,-0.537,0.854,6.836,6.713,-21.668,0,0,0,
,0.079,-0.538,0.857,8.544,7.629,-21.424,0,0,0,
,0.078,-0.547,0.856,8.361,7.69,-22.156,0,0,0,
,0.079,-0.542,0.854,5.004,8.3,-20.142,0,0,0,
,0.078,-0.542,0.854,8.178,9.948,-21.546,0,0,0,
,0.08,-0.548,0.855,2.929,11.718,-20.935,0,0,0,
,0.082,-0.54,0.854,-0.428,7.934,-21.546,0,0,0,
,0.081,-0.536,0.855,4.211,8.667,-22.217,0,0,0,
,0.079,-0.539,0.856,5.676,7.934,-21.485,0,0,0,
,0.08,-0.543,0.854,5.676,9.704,-21.912,0,0,0,
,0.08,-0.544,0.854,1.831,10.559,-20.874,0,0,0,
,0.08,-0.539,0.856,3.845,7.934,-20.081,0,0,0,
,0.081,-0.541,0.851,5.188,9.094,-23.56,0,0,0,
,0.081,-0.544,0.856,6.225,10.131,-23.072,0,0,0,
,0.082,-0.54,0.85,7.934,6.103,-21.119,0,0,0,
,0.078,-0.542,0.855,9.338,5.127,-23.316,0,0,0,
,0.083,-0.541,0.855,7.568,6.347,-20.691,0,0,0,
,0.083,-0.54,0.851,10.437,3.784,-22.583,0,0,0,
,0.084,-0.541,0.848,8.239,0.61,-22.461,0,0,0,
,0.081,-0.538,0.855,9.216,-0.367,-22.095,0,0,0,
,0.081,-0.542,0.856,13.244,0.244,-24.537,0,0,0,
,0.079,-0.546,0.855,11.352,2.563,-22.156,0,0,0,
,0.079,-0.546,0.856,5.737,8.178,-22.034,0,0,0,
,0.08,-0.546,0.854,3.784,9.948,-20.569,0,0,0,
,0.08,-0.54,0.857,4.638,7.08,-22.156,0,0,0,
,0.076,-0.54,0.853,8.361,7.995,-21.668,0,0,0,
,0.075,-0.545,0.851,7.08,10.803,-21.851,0,0,0,
,0.08,-0.547,0.855,0.366,13.61,-21.18,0,0,0,
,0.082,-0.541,0.85,1.159,13,-20.203,0,0,0,
,0.081,-0.536,0.853,2.563,9.887,-21.607,0,0,0,
,0.081,-0.538,0.855,9.582,8.728,-22.034,0,0,0,
,0.078,-0.542,0.853,10.803,5.798,-22.583,0,0,0,
,0.078,-0.545,0.856,4.394,6.774,-21.607,0,0,0,
,0.08,-0.542,0.857,2.502,9.277,-23.072,0,0,0,
,0.079,-0.543,0.856,5.615,10.315,-20.325,0,0,0,
,0.081,-0.542,0.856,0.732,12.146,-21.058,0,0,0,
,0.078,-0.54,0.855,1.892,12.573,-20.569,0,0,0,
,0.079,-0.538,0.852,1.342,10.437,-20.081,0,0,0,
,0.081,-0.538,0.85,4.394,9.216,-22.461,0,0,0,
,0.078,-0.542,0.852,7.324,10.437,-22.522,0,0,0,
,0.077,-0.543,0.852,5.004,10.131,-22.4,0,0,0,
,0.081,-0.541,0.854,5.798,6.103,-22.767,0,0,0,
,0.08,-0.54,0.856,9.521,4.638,-23.682,0,0,0,
,0.082,-0.544,0.847,6.408,5.554,-22.644,0,0,0,
,0.082,-0.543,0.854,5.065,3.784,-23.255,0,0,0,
,0.076,-0.537,0.857,6.042,4.394,-25.025,0,0,0,
,0.076,-0.541,0.859,7.141,6.469,-23.255,0,0,0,
,0.081,-0.54,0.85,6.53,8.3,-22.339,0,0,0,
,0.078,-0.542,0.852,5.127,9.765,-21.302,0,0,0,
,0.079,-0.54,0.855,7.263,10.742,-21.912,0,0,0,
,0.08,-0.542,0.853,8.728,9.643,-22.95,0,0,0,
,0.079,-0.543,0.852,8.239,7.263,-22.644,0,0,0,
,0.079,-0.542,0.853,2.99,9.521,-23.438,0,0,0,
,0.078,-0.542,0.855,5.004,7.934,-22.217,0,0,0,
,0.078,-0.542,0.854,3.54,8.239,-21.607,0,0,0,
,0.08,-0.54,0.853,6.286,10.437,-23.072,0,0,0,
,0.083,-0.547,0.852,5.249,9.46,-23.682,0,0,0,
,0.086,-0.557,0.838,-2.198,9.094,-29.297,0,0,0,
,0.08,-0.579,0.835,-27.161,11.352,-39.002,0,0,0,
,0.065,-0.576,0.839,-69.031,32.959,-57.251,0,0,0,
,0.052,-0.556,0.87,-123.352,70.007,-64.82,0,0,0,
,0.046,-0.506,0.893,-140.015,120.239,-88.196,0,0,0,
,0.044,-0.52,0.904,-195.862,180.908,-113.953,0,0,0,
,0.05,-0.51,0.904,-247.132,262.634,-116.517,0,0,0,
,0.057,-0.552,0.944,-292.542,332.031,-123.23,0,0,0,
,0.042,-0.563,1.024,-411.927,477.6,-132.508,0,0,0,
,0.031,-0.469,1.231,-588.257,731.506,-102.295,0,0,0,
,-0.082,-0.396,1.41,-885.682,1220.459,-93.995,0,0,0,
,-0.059,-0.417,1.352,-542.176,1612.609,-187.134,0,0,0,
,0.665,-0.364,2.21,-472.901,1225.219,132.446,0,0,0,
,1.046,-0.3,2.292,17.15,433.044,375.793,0,0,0,
,0.906,0.148,2.054,1121.948,-213.562,-36.744,0,0,0,
,0.779,-0.94,1.244,1999.694,-238.587,-415.528,0,0,0,
,1.303,-1.927,0.719,1134.643,-906.922,-623.841,0,0,0,
,1.785,-1.882,1.704,-22.522,-2000,-974.549,0,0,0,
,1.104,-1.309,1.823,17.334,-2000,-1614.38,0,0,0,
,0.808,-1.097,1.642,681.457,-2000,-1976.502,0,0,0,
,0.866,-1.327,1.369,1359.13,-2000,-2000,0,0,0,
,0.93,-1.743,0.931,1196.35,-2000,-2000,0,0,0,
,0.868,-1.555,0.726,579.101,-2000,-2000,0,0,0,
,0.761,-1.065,0.672,172.058,-2000,-2000,0,0,0,
,0.721,-0.795,0.483,30.395,-2000,-2000,0,0,0,
,0.709,-0.571,0.223,-152.771,-2000,-2000,0,0,0,
,0.709,-0.296,0.02,-270.691,-2000,-2000,0,0,0,
,0.698,-0.076,-0.127,-343.628,-2000,-2000,0,0,0,
,0.72,0.112,-0.266,-373.963,-2000,-2000,0,0,0,
,0.739,0.228,-0.385,-407.349,-2000,-2000,0,0,0,
,0.866,0.317,-0.559,-456.788,-2000,-2000,0,0,0,
,0.994,0.628,-0.903,-563.965,-2000,-2000,0,0,0,
,0.926,1.365,-1.462,-883.545,-1849.122,-2000,0,0,0,
,0.755,1.827,-1.919,-1028.077,-1488.77,-2000,0,0,0,
,0.53,2.126,-2.132,-1087.891,-1127.503,-1538.514,0,0,0,
,0.422,2.117,-2.291,-1094.117,-574.952,-771.851,0,0,0,
,0.506,1.92,-2.168,-1085.511,-20.386,207.641,0,0,0,
,0.505,1.609,-1.66,-1088.501,696.96,984.985,0,0,0,
,0.325,1.411,-1.194,-697.449,1634.643,1583.007,0,0,0,
,0.287,1.218,-0.838,159.057,1999.694,1937.5,0,0,0,
,0.346,0.916,-0.678,900.024,1999.694,1999.694,0,0,0,
,0.38,0.59,-0.513,1385.009,1999.694,1999.694,0,0,0,
,0.271,0.386,-0.483,1702.27,1999.694,1999.694,0,0,0,
,0.175,0.065,-0.338,1872.192,1999.694,1999.694,0,0,0,
,0.492,-0.787,-0.323,1531.616,1999.694,1999.694,0,0,0,
,0.624,-0.925,0.217,594.909,1999.694,1999.694,0,0,0,
,0.852,-1.214,0.906,-342.957,1999.694,1999.694,0,0,0,
,0.898,-1.462,1.376,-765.015,1999.694,1999.694,0,0,0,
,0.727,-1.575,1.684,-989.38,1999.694,1692.871,0,0,0,
,0.551,-1.394,1.955,-795.716,1999.694,1399.841,0,0,0,
,0.47,-1.204,2.032,-266.968,1999.694,1204.467,0,0,0,
,0.599,-0.925,1.608,191.711,1877.075,1020.813,0,0,0,
,0.626,-0.99,1.437,224.304,1322.387,709.716,0,0,0,
,0.377,-1.285,1.694,-104.798,844.482,441.65,0,0,0,
,0.18,-1.069,1.857,-540.65,581.848,388.244,0,0,0,
,0.174,-0.659,1.832,-568.421,467.834,382.141,0,0,0,
,0.179,-0.421,1.6,-219.483,386.169,349.853,0,0,0,
,0.125,-0.375,1.339,255.981,387.756,312.805,0,0,0,
,0.434,-0.844,1.499,306.823,380.371,265.564,0,0,0,
,0.789,-1.4,1.645,-43.946,-134.156,36.132,0,0,0,
,0.294,-0.642,1.182,-346.802,-386.353,-172.608,0,0,0,
,-0.174,-0.169,0.986,-293.824,-289.49,-56.946,0,0,0,
,-0.181,-0.223,0.905,40.954,18.92,11.047,0,0,0,
,0.049,-0.415,0.821,199.951,178.955,113.769,0,0,0,
,0.227,-0.502,0.817,107.605,99.487,78.186,0,0,0,
,0.249,-0.48,0.892,-21.668,-40.101,20.141,0,0,0,
,0.177,-0.347,0.886,20.935,-127.259,-45.777,0,0,0,
,0.081,-0.353,0.905,102.783,-109.498,-24.292,0,0,0,
,0.106,-0.442,0.911,181.518,-62.256,-67.749,0,0,0,
,0.132,-0.457,0.893,182.006,-79.712,-42.359,0,0,0,
,0.098,-0.472,0.86,166.137,-101.502,-60.364,0,0,0,
,0.08,-0.527,0.888,140.136,-81.971,-60.12,0,0,0,
,0.103,-0.577,0.879,81.176,-61.463,-40.894,0,0,0,
,0.093,-0.556,0.876,19.104,-77.271,-28.748,0,0,0,
,0.064,-0.505,0.87,-1.77,-84.961,-26.368,0,0,0,
,0.06,-0.501,0.873,16.601,-71.534,-13.001,0,0,0,
,0.069,-0.519,0.887,25.695,-60.425,-3.113,0,0,0,
,0.072,-0.528,0.896,11.84,-31.617,1.281,0,0,0,
,0.073,-0.507,0.893,-0.55,-44.861,4.028,0,0,0,
,0.072,-0.485,0.89,-12.452,-36.744,4.455,0,0,0,
,0.077,-0.475,0.893,-5.677,-26.123,3.356,0,0,0,
,0.074,-0.483,0.889,2.197,-14.588,2.197,0,0,0,
,0.071,-0.495,0.89,-3.785,-1.465,-6.226,0,0,0,
,0.069,-0.494,0.89,-22.4,9.399,-8.362,0,0,0,
,0.067,-0.477,0.895,-43.885,11.962,-18.677,0,0,0,
,0.066,-0.469,0.905,-41.443,22.155,-17.334,0,0,0,
,0.074,-0.464,0.896,-27.894,27.954,-22.522,0,0,0,
,0.077,-0.485,0.887,-9.095,29.541,-22.339,0,0,0,
,0.083,-0.495,0.869,-6.653,15.686,-28.504,0,0,0,
,0.076,-0.502,0.864,-10.315,0.915,-26.123,0,0,0,
,0.079,-0.484,0.86,-11.78,-12.452,-23.377,0,0,0,
,0.077,-0.48,0.871,-7.691,-28.443,-22.461,0,0,0,
,0.074,-0.498,0.889,-10.315,-30.213,-21.424,0,0,0,
,0.072,-0.504,0.893,-11.17,-25.635,-20.569,0,0,0,
,0.07,-0.486,0.896,-10.376,-21.546,-15.198,0,0,0,
,0.065,-0.473,0.893,3.967,-23.072,-16.785,0,0,0,
,0.063,-0.469,0.891,13.61,-18.067,-17.945,0,0,0,
,0.06,-0.48,0.896,16.235,-11.475,-16.541,0,0,0,
,0.061,-0.49,0.9,5.188,-4.456,-18.921,0,0,0,
,0.069,-0.493,0.893,-14.161,4.943,-18.067,0,0,0,
,0.068,-0.487,0.895,-32.288,14.038,-20.997,0,0,0,
,0.074,-0.48,0.887,-31.922,20.813,-25.513,0,0,0,
,0.076,-0.471,0.886,-30.701,14.343,-28.809,0,0,0,
,0.072,-0.469,0.887,-31.556,11.23,-36.56,0,0,0,
,0.075,-0.458,0.894,-26.612,-2.625,-40.65,0,0,0,
,0.064,-0.475,0.899,-14.649,-5.494,-38.331,0,0,0,
,0.06,-0.494,0.89,-16.419,-1.221,-36.499,0,0,0,
,0.067,-0.484,0.877,-18.311,-7.752,-32.959,0,0,0,
,0.071,-0.462,0.875,-2.198,-23.987,-32.837,0,0,0,
,0.067,-0.456,0.884,18.859,-34.18,-37.476,0,0,0,
,0.069,-0.449,0.893,35.705,-51.148,-44.495,0,0,0,
,0.069,-0.453,0.895,67.199,-54.2,-45.716,0,0,0,
,0.065,-0.475,0.91,87.768,-46.753,-51.026,0,0,0,
,0.052,-0.503,0.903,96.008,-32.105,-57.312,0,0,0,
,0.059,-0.505,0.911,102.295,-4.822,-51.697,0,0,0,
,0.047,-0.515,0.916,110.839,59.57,-49.5,0,0,0,
,0.043,-0.537,0.903,86.486,153.991,-68.116,0,0,0,
,0.113,-0.485,0.848,105.713,120.056,-94.788,0,0,0,
,0.169,-0.552,0.863,236.084,0.122,-118.653,0,0,0,
,0.202,-0.587,0.872,418.029,-22.217,-79.59,0,0,0,
,0.152,-0.747,0.867,362.487,-53.589,-174.927,0,0,0,
,0.1,-0.828,0.761,157.898,-93.506,-189.331,0,0,0,
,0.056,-0.721,0.769,38.391,-125.367,-182.007,0,0,0,
,-0.005,-0.653,0.759,23.132,-131.226,-208.619,0,0,0,
,-0.084,-0.702,0.78,-47.242,-130.188,-221.375,0,0,0,
,-0.096,-0.72,0.845,-178.589,-98.938,-181.824,0,0,0,
,-0.089,-0.712,0.9,-380.249,-105.103,-161.194,0,0,0,
,-0.071,-0.673,0.959,-516.846,-107.483,-145.874,0,0,0,
,-0.104,-0.583,0.985,-574.585,-128.235,-145.508,0,0,0,
,-0.148,-0.47,0.994,-559.998,-111.634,-111.39,0,0,0,
,-0.186,-0.413,0.982,-511.841,-81.788,-125.123,0,0,0,
,-0.16,-0.411,0.957,-455.018,-15.198,-121.582,0,0,0,
,-0.124,-0.456,0.967,-436.89,28.869,-75.684,0,0,0,
,-0.1,-0.34,0.986,-382.447,46.447,-39.49,0,0,0,
,-0.054,-0.282,0.976,-294.617,68.969,-50.171,0,0,0,
,-0.045,-0.245,0.918,-199.402,87.28,-66.102,0,0,0,
,-0.047,-0.229,0.904,-113.16,87.89,-89.722,0,0,0,
,-0.027,-0.27,0.927,-74.28,104.736,-57.618,0,0,0,
,0.047,-0.203,0.999,-92.713,55.481,-12.33,0,0,0,
,0.069,-0.163,0.977,-36.56,40.344,10.864,0,0,0,
,0.043,-0.212,1.005,-5.555,15.075,18.249,0,0,0,
,0.058,-0.218,1.01,58.593,19.409,30.944,0,0,0,
,0.077,-0.269,0.931,158.691,37.048,9.155,0,0,0,
,0.042,-0.25,0.892,236.572,29.724,-40.345,0,0,0,
,-0.002,-0.206,0.9,417.724,44.006,-95.154,0,0,0,
,-0.008,-0.281,0.909,572.692,69.274,-105.591,0,0,0,
,-0.018,-0.29,0.976,642.151,143.921,-39.551,0,0,0,
,0.116,-0.53,0.849,290.649,133.789,-10.376,0,0,0,
,0.091,-0.226,0.943,55.725,-79.59,18.005,0,0,0,
,-0.011,-0.256,0.93,179.565,-33.509,-39.917,0,0,0,
,0.064,-0.378,0.926,299.255,42.663,51.635,0,0,0,
,0.073,-0.433,0.966,278.808,-89.844,12.512,0,0,0,
,0.063,-0.509,0.974,262.939,-97.779,6.408,0,0,0,
,0.001,-0.358,1.163,237.182,-161.194,112.793,0,0,0,
,-0.055,-0.289,1.01,447.754,-46.509,30.639,0,0,0,
,-0.057,-0.474,0.853,609.314,117.126,79.65,0,0,0,
,-0.147,-0.434,0.875,698.486,155.09,59.265,0,0,0,
,-0.102,-0.519,0.823,773.193,276.306,110.595,0,0,0,
,0.017,-0.578,0.718,800.048,297.851,94.604,0,0,0,
,-0.018,-0.723,0.696,774.536,264.099,79.834,0,0,0,
,0.02,-0.64,0.607,677.429,247.253,99.731,0,0,0,
,0.029,-0.72,0.621,714.477,216.552,16.235,0,0,0,
,0.088,-0.879,0.715,658.63,186.889,13.427,0,0,0,
,0.102,-0.928,0.713,465.149,140.808,45.593,0,0,0,
,0.085,-0.758,0.593,385.315,102.966,36.438,0,0,0,
,0.105,-0.887,0.612,371.154,99.487,24.658,0,0,0,
,0.169,-1.077,0.594,178.1,86.669,67.565,0,0,0,
,0.142,-0.992,0.546,-80.811,27.404,90.087,0,0,0,
,0.102,-1.003,0.615,-211.304,30.578,32.043,0,0,0,
,0.036,-0.848,0.56,-369.202,0.427,106.628,0,0,0,
,0.076,-0.969,0.652,-573.914,35.217,23.803,0,0,0,
,0.144,-0.785,0.729,-827.576,-63.66,53.161,0,0,0,
,0.056,-0.749,0.828,-889.161,-92.164,0.854,0,0,0,
,0.105,-0.64,0.906,-834.412,-104.31,6.713,0,0,0,
,0.13,-0.645,0.973,-696.961,-147.828,4.394,0,0,0,
,0.104,-0.608,1.03,-570.74,-206.727,-7.386,0,0,0,
,0.073,-0.668,0.969,-483.033,-210.144,-1.893,0,0,0,
,0.119,-0.713,1,-568.848,-231.873,-2.137,0,0,0,
,0.132,-0.716,1.026,-673.279,-260.621,-8.912,0,0,0,
,0.148,-0.696,1.052,-724.671,-272.4,-17.456,0,0,0,
,0.118,-0.703,1.113,-733.094,-273.926,-66.529,0,0,0,
,0.101,-0.653,1.163,-705.14,-247.681,-97.718,0,0,0,
,0.086,-0.609,1.173,-600.708,-212.708,-151.123,0,0,0,
,0.038,-0.651,1.182,-530.396,-170.594,-199.097,0,0,0,
,0.004,-0.67,1.12,-506.409,-126.282,-253.785,0,0,0,
,-0.041,-0.611,1.076,-459.107,-87.525,-298.706,0,0,0,
,-0.057,-0.603,0.973,-349.183,-44.312,-376.038,0,0,0,
,-0.085,-0.622,0.918,-227.723,-5.005,-366.7,0,0,0,
,-0.127,-0.685,0.865,-204.773,83.068,-418.152,0,0,0,
,-0.126,-0.681,0.772,-225.892,168.09,-449.952,0,0,0,
,-0.129,-0.643,0.71,-246.766,235.046,-458.985,0,0,0,
,-0.141,-0.579,0.684,-252.747,290.1,-471.131,0,0,0,
,-0.165,-0.505,0.674,-248.108,354.004,-478.028,0,0,0,
,-0.179,-0.411,0.671,-196.961,411.193,-453.614,0,0,0,
,-0.172,-0.4,0.635,-173.34,490.112,-427.918,0,0,0,
,-0.141,-0.417,0.65,-205.811,557.373,-411.011,0,0,0,
,-0.08,-0.386,0.615,-261.414,580.322,-396.241,0,0,0,
,-0.025,-0.367,0.635,-318.726,552.612,-393.86,0,0,0,
,-0.052,-0.299,0.679,-321.167,541.87,-380.555,0,0,0,
,-0.04,-0.257,0.687,-293.641,601.806,-346.131,0,0,0,
,0.044,-0.257,0.696,-267.273,619.873,-326.6,0,0,0,
,0.075,-0.269,0.71,-297.12,585.083,-302.491,0,0,0,
,0.097,-0.236,0.747,-323.914,568.725,-293.03,0,0,0,
,0.114,-0.207,0.804,-310.12,560.669,-236.695,0,0,0,
,0.134,-0.202,0.859,-303.345,570.617,-222.535,0,0,0,
,0.18,-0.134,0.896,-278.687,562.988,-191.04,0,0,0,
,0.279,-0.247,0.989,-247.254,569.275,-147.461,0,0,0,
,0.408,-0.153,0.919,-484.559,458.923,6.469,0,0,0,
,0.348,-0.043,1.109,-599.671,217.468,-57.801,0,0,0,
,0.266,0.234,1.029,-393.372,238.098,-50.293,0,0,0,
,0.356,-0.011,0.985,-101.563,287.536,-60.364,0,0,0,
,0.337,-0.165,0.927,-56.153,203.735,-66.712,0,0,0,
,0.32,-0.266,0.824,-79.834,216.308,7.08,0,0,0,
,0.321,-0.141,0.805,-270.997,246.399,25.451,0,0,0,
,0.391,-0.075,0.777,-249.878,193.42,3.601,0,0,0,
,0.31,-0.106,0.813,-262.452,154.968,7.263,0,0,0,
,0.369,-0.012,0.831,-189.82,196.96,15.075,0,0,0,
,0.359,-0.038,0.796,-143.86,194.946,11.779,0,0,0,
,0.415,-0.027,0.83,-140.809,204.589,-8.484,0,0,0,
,0.432,-0.06,0.847,-75.196,160.4,-23.865,0,0,0,
,0.423,-0.038,0.844,-64.331,153.93,-42.481,0,0,0,
,0.44,0.004,0.84,-24.659,133.972,-57.862,0,0,0,
,0.421,-0.031,0.845,5.859,118.652,-72.998,0,0,0,
,0.421,0.011,0.839,17.273,109.436,-76.783,0,0,0,
,0.415,0.004,0.827,62.866,93.078,-92.347,0,0,0,
,0.389,0.018,0.818,106.14,66.711,-103.577,0,0,0,
,0.358,-0.002,0.797,144.409,54.565,-97.596,0,0,0,
,0.387,-0.062,0.873,181.579,90.332,-73.975,0,0,0,
,0.388,-0.021,0.838,106.201,39.123,-28.26,0,0,0,
,0.334,-0.044,0.823,71.96,19.531,-30.213,0,0,0,
,0.335,-0.003,0.826,47.973,22.338,-16.053,0,0,0,
,0.365,0.057,0.826,24.597,30.944,-23.377,0,0,0,
,0.374,-0.024,0.845,105.102,62.133,-10.987,0,0,0,
,0.421,-0.056,0.862,138,161.316,16.479,0,0,0,
,0.51,-0.028,0.878,229.004,204.345,4.272,0,0,0,
,0.517,-0.103,0.907,270.752,170.837,11.596,0,0,0,
,0.528,-0.128,0.94,263.305,162.048,-10.01,0,0,0,
,0.555,-0.138,0.973,264.831,131.469,0.488,0,0,0,
,0.583,-0.152,0.985,291.442,142.456,9.704,0,0,0,
,0.612,-0.167,0.975,302.063,120.361,27.404,0,0,0,
,0.597,-0.176,0.953,287.841,69.213,27.771,0,0,0,
,0.588,-0.176,0.938,252.807,31.799,28.686,0,0,0,
,0.578,-0.173,0.916,248.962,-5.921,40.527,0,0,0,
,0.522,-0.148,0.869,226.745,-70.069,18.676,0,0,0,
,0.423,-0.324,0.836,208.618,-48.584,40.466,0,0,0,
,0.466,-0.162,0.833,135.986,-12.024,43.212,0,0,0,
,0.409,-0.207,0.851,176.696,-43.519,61.828,0,0,0,
,0.356,-0.194,0.775,202.026,22.705,58.898,0,0,0,
,0.379,-0.173,0.732,180.664,11.901,17.578,0,0,0,
,0.304,-0.262,0.76,228.576,-38.392,-21.424,0,0,0,
,0.304,-0.229,0.771,185.974,-21.302,-6.348,0,0,0,
,0.283,-0.209,0.731,193.42,-6.104,-20.63,0,0,0,
,0.275,-0.27,0.739,233.276,25.512,-33.692,0,0,0,
,0.312,-0.269,0.743,207.214,34.179,-63.965,0,0,0,
,0.352,-0.269,0.73,205.017,9.887,-112.793,0,0,0,
,0.357,-0.307,0.727,183.166,-31.861,-158.692,0,0,0,
,0.317,-0.279,0.761,150.695,-46.387,-163.208,0,0,0,
,0.34,-0.237,0.748,177.368,17.395,-152.527,0,0,0,
,0.396,-0.231,0.721,224.365,15.197,-175.049,0,0,0,
,0.413,-0.228,0.682,247.497,-31.739,-202.332,0,0,0,
,0.398,-0.232,0.713,253.723,-52.002,-204.285,0,0,0,
,0.394,-0.236,0.717,287.109,-3.54,-207.703,0,0,0,
,0.534,-0.344,0.869,344.604,111.267,-92.957,0,0,0,
,0.695,-0.173,0.891,166.748,75.561,-65.491,0,0,0,
,0.69,-0.261,0.976,312.194,3.662,-93.995,0,0,0,
,0.783,-0.364,0.776,229.858,-64.759,-133.24,0,0,0,
,0.762,-0.197,0.914,36.621,-377.564,-145.997,0,0,0,
,0.456,-0.011,0.863,248.474,-514.649,-226.624,0,0,0,
,0.278,-0.206,0.826,532.409,-368.287,-203.858,0,0,0,
,0.32,-0.321,0.754,636.108,-181.946,-156.983,0,0,0,
,0.398,-0.374,0.639,669.86,-125.55,-142.334,0,0,0,
,0.326,-0.559,0.611,754.028,-225.22,-184.388,0,0,0,
,0.31,-0.723,0.76,619.14,-126.587,-111.634,0,0,0,
,0.421,-0.515,0.776,467.163,-89.722,-94.91,0,0,0,
,0.423,-0.562,0.823,474.06,-161.683,-129.212,0,0,0,
,0.386,-0.572,0.74,525.695,-200.928,-158.936,0,0,0,
,0.359,-0.724,0.791,476.074,-245.911,-142.945,0,0,0,
,0.335,-0.645,0.81,387.695,-239.502,-111.206,0,0,0,
,0.256,-0.647,0.796,396.24,-226.014,-101.38,0,0,0,
,0.187,-0.716,0.727,358.642,-199.83,-126.954,0,0,0,
,0.206,-0.691,0.716,346.984,-204.956,-117.615,0,0,0,
,0.184,-0.746,0.7,392.456,-222.229,-102.234,0,0,0,
,0.135,-0.858,0.703,414.367,-187.806,-108.277,0,0,0,
,0.132,-0.911,0.729,357.605,-113.343,-80.994,0,0,0,
,0.163,-0.94,0.697,236.45,-80.384,-100.464,0,0,0,
,0.187,-0.97,0.743,129.089,-98.877,-132.813,0,0,0,
,0.152,-0.909,0.755,58.837,-146.729,-136.414,0,0,0,
,0.085,-0.839,0.757,73.547,-121.094,-152.283,0,0,0,
,0.029,-0.811,0.733,121.887,-55.726,-146.607,0,0,0,
,0.021,-0.823,0.682,133.056,66.345,-103.943,0,0,0,
,0.108,-0.807,0.641,72.998,140.808,-98.206,0,0,0,
,0.171,-0.874,0.692,-11.841,137.817,-107.178,0,0,0,
,0.152,-0.896,0.741,-109.986,128.418,-94.788,0,0,0,
,0.18,-0.871,0.753,-175.965,130.188,-57.862,0,0,0,
,0.195,-0.936,0.79,-279.114,102.722,-84.473,0,0,0,
,0.187,-0.855,0.78,-427.552,84.533,-67.81,0,0,0,
,0.186,-0.755,0.765,-515.076,91.613,-55.176,0,0,0,
,0.182,-0.663,0.743,-553.101,98.877,-55.97,0,0,0,
,0.26,-0.627,0.71,-186.951,339.599,25.817,0,0,0,
,0.413,-0.302,0.937,-267.945,190.857,-41.993,0,0,0,
,0.39,-0.529,0.852,22.705,156.25,-54.871,0,0,0,
,0.378,-0.542,0.864,-6.958,98.999,-51.331,0,0,0,
,0.402,-0.507,0.808,-11.109,64.453,-64.026,0,0,0,
,0.311,-0.457,0.616,128.112,-15.87,-70.313,0,0,0,
,0.277,-0.487,0.574,178.161,-18.372,-70.252,0,0,0,
,0.231,-0.46,0.545,235.107,12.817,-53.894,0,0,0,
,0.215,-0.437,0.511,344.421,84.838,-42.786,0,0,0,
,0.212,-0.508,0.496,412.048,153.686,-7.203,0,0,0,
,0.294,-0.591,0.638,558.654,174.194,-5.494,0,0,0,
,0.401,-0.574,0.698,817.443,139.221,-45.777,0,0,0,
,0.39,-0.88,0.751,1076.721,38.024,-122.498,0,0,0,
,0.339,-1.082,0.811,924.804,-56.824,-128.724,0,0,0,
,0.445,-1.141,1.123,644.409,-109.62,-114.38,0,0,0,
,0.667,-0.831,0.79,485.412,-150.269,-53.04,0,0,0,
,0.307,-0.702,0.489,475.097,-324.219,-268.433,0,0,0,
,0.044,-0.712,0.487,588.562,-249.024,-145.447,0,0,0,
,0.148,-0.856,0.47,627.014,-50.66,-57.923,0,0,0,
,0.29,-0.96,0.476,532.165,-33.997,-44.556,0,0,0,
,0.292,-0.986,0.499,505.676,5.371,-20.569,0,0,0,
,0.264,-1.069,0.471,456.848,-23.377,-30.64,0,0,0,
,0.233,-1.038,0.459,395.263,-18.25,-6.836,0,0,0,
,0.233,-1.022,0.465,381.958,7.812,-7.63,0,0,0,
,0.254,-1,0.452,386.291,22.338,1.709,0,0,0,
,0.32,-1.333,0.564,191.467,-53.284,-95.581,0,0,0,
,0.331,-1.312,0.621,60.546,-131.958,-163.941,0,0,0,
,0.307,-1.382,0.531,-71.228,-234.498,-258.24,0,0,0,
,0.272,-1.459,0.438,-328.309,-339.051,-351.99,0,0,0,
,0.234,-1.413,0.352,-635.865,-414.124,-437.561,0,0,0,
,0.215,-1.255,0.268,-822.022,-456.971,-493.653,0,0,0,
,0.178,-1.121,0.291,-848.267,-488.587,-546.326,0,0,0,
,0.114,-1.038,0.279,-821.534,-497.376,-564.515,0,0,0,
,0.109,-1.116,0.259,-1007.508,-509.766,-619.507,0,0,0,
,0.112,-1.088,0.267,-1433.533,-565.491,-632.752,0,0,0,
,0.083,-1.019,0.288,-1956.421,-602.967,-673.279,0,0,0,
,-0.034,-0.829,0.26,-2000,-601.746,-713.074,0,0,0,
,-0.046,-0.454,0.142,-2000,-663.331,-653.992,0,0,0,
,-0.068,-0.083,0.09,-2000,-831.177,-506.043,0,0,0,
,-0.168,0.339,0.12,-2000,-913.025,-358.094,0,0,0,
,-0.247,0.524,0.109,-2000,-841.248,-339.051,0,0,0,
,-0.223,0.592,0.248,-2000,-684.205,-283.265,0,0,0,
,-0.148,0.659,0.459,-2000,-542.542,-276.734,0,0,0,
,0.05,-0.029,0.583,-1310.486,-334.168,-339.722,0,0,0,
,-0.029,0.101,0.772,-1474.854,-339.478,-384.522,0,0,0,
,-0.274,0.182,0.845,-1289.49,-91.37,-291.687,0,0,0,
,-0.23,0.436,0.876,-645.874,130.493,-181.58,0,0,0,
,-0.205,0.114,0.769,-102.967,305.114,-129.09,0,0,0,
,-0.208,0.213,0.8,15.564,385.192,-142.212,0,0,0,
,-0.235,0.286,0.837,68.542,414.367,-165.223,0,0,0,
,-0.332,0.369,0.988,-52.247,444.519,-143.799,0,0,0,
,-0.348,0.667,1.098,-35.889,454.956,-93.628,0,0,0,
,-0.393,0.584,1.263,46.142,458.313,-13.55,0,0,0,
,-0.306,0.647,1.269,114.807,421.081,85.754,0,0,0,
,-0.312,0.493,1.345,100.647,290.588,93.017,0,0,0,
,-0.289,0.422,1.341,141.052,215.454,90.21,0,0,0,
,-0.276,0.523,1.336,165.71,147.094,107.971,0,0,0,
,-0.279,0.458,1.284,188.354,85.083,97.656,0,0,0,
,-0.268,0.411,1.257,93.322,11.718,62.072,0,0,0,
,-0.284,0.416,1.212,69.946,-37.72,48.4,0,0,0,
,-0.281,0.427,1.115,68.786,-62.5,43.823,0,0,0,
,-0.257,0.366,1.036,115.783,-80.079,45.715,0,0,0,
,-0.231,0.313,0.984,75.317,-91.309,28.503,0,0,0,
,-0.218,0.307,0.953,22.522,-100.769,11.169,0,0,0,
,-0.203,0.301,0.912,16.906,-101.441,7.812,0,0,0,
,-0.169,0.286,0.827,41.626,-64.881,-1.465,0,0,0,
,-0.182,0.28,0.847,25.878,-54.81,-6.47,0,0,0,
,-0.176,0.282,0.851,37.841,-42.969,-4.639,0,0,0,
,-0.176,0.271,0.86,44.677,-26.246,-3.602,0,0,0,
,-0.187,0.246,0.855,40.466,-15.564,-10.376,0,0,0,
,-0.215,0.293,0.908,68.115,45.044,-9.766,0,0,0,
,-0.223,0.296,0.909,109.802,81.115,-5.616,0,0,0,
,-0.222,0.319,0.923,107.116,106.201,-4.456,0,0,0,
,-0.194,0.293,0.915,97.839,103.637,2.014,0,0,0,
,-0.19,0.286,0.935,3.54,81.543,-14.405,0,0,0,
,-0.195,0.322,0.941,-30.762,67.627,-20.569,0,0,0,
,-0.195,0.308,0.956,-37.232,59.265,-15.992,0,0,0,
,-0.189,0.317,0.962,-7.019,60.913,-6.958,0,0,0,
,-0.183,0.279,0.962,15.38,55.664,-3.052,0,0,0,
,-0.184,0.298,0.961,-0.245,16.418,-7.691,0,0,0,
,-0.193,0.296,0.933,7.568,3.845,-10.437,0,0,0,
,-0.198,0.287,0.942,-2.93,3.356,-13.794,0,0,0,
,-0.2,0.299,0.968,-3.663,5.249,-18.433,0,0,0,
,-0.2,0.294,0.936,-2.259,13,-21.18,0,0,0,
,-0.182,0.286,0.929,0.305,30.822,-19.654,0,0,0,
,-0.173,0.3,0.916,10.559,35.522,-17.334,0,0,0,
,-0.167,0.287,0.916,27.099,41.87,-18.067,0,0,0,
,-0.169,0.271,0.914,29.724,45.166,-15.015,0,0,0,
,-0.163,0.294,0.921,37.597,44.921,-16.541,0,0,0,
,-0.169,0.291,0.908,18.066,42.419,-17.518,0,0,0,
,-0.174,0.299,0.92,11.291,39.55,-12.513,0,0,0,
,-0.165,0.272,0.896,9.216,21.545,-3.052,0,0,0,
,-0.163,0.248,0.913,5.92,17.273,2.197,0,0,0,
,-0.159,0.213,0.921,-3.174,19.531,-1.404,0,0,0,
,-0.157,0.239,0.919,17.211,32.836,-0.184,0,0,0,
,-0.167,0.247,0.938,59.997,45.837,10.192,0,0,0,
,-0.159,0.266,0.95,94.116,59.204,12.085,0,0,0,
,-0.153,0.291,1.021,108.703,68.908,7.812,0,0,0,
,-0.161,0.323,1.091,129.516,67.627,12.207,0,0,0,
,-0.149,0.361,1.154,188.598,62.011,16.906,0,0,0,
,-0.163,0.365,1.198,254.577,54.565,27.526,0,0,0,
,-0.17,0.375,1.203,281.555,49.926,34.851,0,0,0,
,-0.164,0.341,1.216,286.499,38.452,44.921,0,0,0,
,-0.153,0.335,1.221,294.922,15.686,62.072,0,0,0,
,-0.166,0.313,1.24,333.801,19.531,71.533,0,0,0,
,-0.167,0.309,1.254,418.335,40.1,89.294,0,0,0,
,-0.163,0.272,1.221,559.997,71.106,103.881,0,0,0,
,-0.169,0.233,1.208,716.308,108.642,109.13,0,0,0,
,-0.18,0.294,1.204,858.032,148.01,109.497,0,0,0,
,-0.129,0.216,1.077,1235.901,188.476,100.036,0,0,0,
,-0.142,0.112,1.023,1264.343,192.505,91.369,0,0,0,
,-0.116,0.076,1.002,1195.922,179.199,105.713,0,0,0,
,-0.079,-0.029,1.031,1177.612,167.541,81.42,0,0,0,
,-0.086,-0.096,1.057,1074.524,169.799,100.28,0,0,0,
,-0.09,-0.146,1.03,1018.798,174.438,85.083,0,0,0,
,-0.069,-0.107,0.927,1034.179,164.978,117.675,0,0,0,
,-0.061,-0.122,0.894,1077.087,138.488,127.014,0,0,0,
,-0.063,-0.279,0.771,1108.215,107.788,66.223,0,0,0,
,-0.098,-0.358,0.739,1047.546,70.251,131.164,0,0,0,
,-0.11,-0.324,0.64,887.817,81.054,158.752,0,0,0,
,-0.095,-0.427,0.624,825.195,113.403,132.568,0,0,0,
,-0.095,-0.529,0.679,707.58,121.215,179.382,0,0,0,
,-0.095,-0.496,0.686,424.255,134.277,219.36,0,0,0,
,-0.09,-0.527,0.665,331.909,140.258,212.036,0,0,0,
,-0.054,-0.602,0.662,260.864,168.945,209.655,0,0,0,
,-0.02,-0.587,0.711,185.058,159.484,248.596,0,0,0,
,0.021,-0.533,0.668,173.889,147.827,256.652,0,0,0,
,0.019,-0.63,0.696,195.495,131.775,220.825,0,0,0,
,0.032,-0.648,0.712,137.817,139.831,247.07,0,0,0,
,0.064,-0.625,0.728,90.087,136.352,224.975,0,0,0,
,0.095,-0.623,0.756,83.129,94.421,205.505,0,0,0,
,0.097,-0.615,0.761,58.288,53.039,198.974,0,0,0,
,0.102,-0.599,0.868,30.578,18.737,180.114,0,0,0,
,0.112,-0.553,0.88,72.204,11.779,161.499,0,0,0,
,0.101,-0.57,0.855,139.709,-7.447,141.906,0,0,0,
,0.098,-0.65,0.919,109.253,-51.819,144.104,0,0,0,
,0.107,-0.576,0.95,46.02,-65.796,130.005,0,0,0,
,0.111,-0.543,0.915,137.085,-36.56,127.075,0,0,0,
,0.098,-0.637,0.869,179.443,-46.326,136.474,0,0,0,
,0.089,-0.665,0.849,119.323,-54.017,111.877,0,0,0,
,0.069,-0.611,0.847,101.257,-50.232,141.418,0,0,0,
,0.052,-0.623,0.845,148.01,-11.353,144.836,0,0,0,
,0.047,-0.635,0.812,170.837,35.949,158.203,0,0,0,
,0.049,-0.657,0.778,172.668,68.603,162.17,0,0,0,
,0.041,-0.645,0.753,156.555,94.36,168.213,0,0,0,
,0.037,-0.657,0.719,139.587,113.83,162.475,0,0,0,
,0.032,-0.685,0.705,96.252,130.371,151.306,0,0,0,
,0.038,-0.689,0.701,36.01,171.081,146.667,0,0,0,
,0.053,-0.716,0.698,9.216,234.008,143.676,0,0,0,
,0.084,-0.732,0.694,-25.269,261.779,129.577,0,0,0,
,0.093,-0.67,0.595,-46.875,255.615,123.535,0,0,0,
,0.151,-0.694,0.665,-66.163,165.588,132.324,0,0,0,
,0.122,-0.711,0.672,-100.098,192.993,98.755,0,0,0,
,0.167,-0.669,0.687,-175.721,165.832,65.734,0,0,0,
,0.176,-0.65,0.697,-204.224,158.325,42.358,0,0,0,
,0.206,-0.641,0.716,-237.915,139.465,36.071,0,0,0,
,0.193,-0.583,0.766,-247.01,134.216,33.142,0,0,0,
,0.229,-0.551,0.804,-241.517,138.733,42.358,0,0,0,
,0.254,-0.542,0.824,-221.253,126.159,49.865,0,0,0,
,0.27,-0.514,0.821,-213.562,98.693,55.969,0,0,0,
,0.258,-0.489,0.824,-200.745,85.388,58.837,0,0,0,
,0.272,-0.496,0.813,-195.923,75.195,57.861,0,0,0,
,0.267,-0.483,0.797,-194.825,53.283,69.03,0,0,0,
,0.266,-0.456,0.79,-186.341,58.349,69.641,0,0,0,
,0.291,-0.48,0.78,-170.35,56.579,70.373,0,0,0,
,0.308,-0.477,0.779,-173.768,42.114,64.453,0,0,0,
,0.311,-0.461,0.778,-167.298,25.878,51.452,0,0,0,
,0.31,-0.451,0.776,-149.903,19.165,35.827,0,0,0,
,0.299,-0.445,0.784,-131.897,7.995,31.738,0,0,0,
,0.277,-0.423,0.799,-118.47,5.371,22.338,0,0,0,
,0.264,-0.409,0.839,-80.628,5.127,11.352,0,0,0,
,0.236,-0.413,0.819,-41.504,10.009,-0.428,0,0,0,
,0.226,-0.421,0.827,-12.635,21.789,-7.935,0,0,0,
,0.221,-0.433,0.837,22.094,33.996,-9.522,0,0,0,
,0.223,-0.465,0.841,45.105,45.776,-15.381,0,0,0,
,0.218,-0.488,0.851,61.157,51.452,-15.076,0,0,0,
,0.237,-0.502,0.855,77.697,74.707,-15.564,0,0,0,
,0.255,-0.532,0.852,84.777,72.204,-15.931,0,0,0,
,0.277,-0.568,0.847,69.458,82.519,-18.982,0,0,0,
,0.308,-0.573,0.846,47.607,74.951,-17.456,0,0,0,
,0.313,-0.579,0.855,23.62,78.125,-22.034,0,0,0,
,0.325,-0.567,0.859,3.662,77.453,-26.185,0,0,0,
,0.337,-0.549,0.862,-3.785,81.909,-25.696,0,0,0,
,0.343,-0.635,0.899,-92.102,31.433,-22.95,0,0,0,
,0.271,-0.427,0.893,-41.443,42.663,-11.17,0,0,0,
,0.282,-0.558,0.86,-21.241,77.575,-11.292,0,0,0,
,0.24,-0.556,0.872,-55.909,59.631,-7.691,0,0,0,
,0.202,-0.477,0.892,-38.331,87.219,2.807,0,0,0,
,0.202,-0.567,0.887,16.296,130.432,-1.404,0,0,0,
,0.181,-0.573,0.883,25.756,133.545,14.648,0,0,0,
,0.179,-0.613,0.862,39.184,163.391,22.155,0,0,0,
,0.193,-0.652,0.812,18.981,199.279,14.953,0,0,0,
,0.175,-0.63,0.769,14.526,216.369,6.347,0,0,0,
,0.146,-0.571,0.745,37.231,252.563,-18.006,0,0,0,
,0.152,-0.538,0.737,62.744,283.142,-23.987,0,0,0,
,0.188,-0.511,0.737,101.013,341.125,-18.921,0,0,0,
,0.223,-0.535,0.754,147.094,355.285,10.315,0,0,0,
,0.275,-0.569,0.751,129.272,378.845,21.301,0,0,0,
,0.309,-0.567,0.754,122.436,374.328,24.108,0,0,0,
,0.361,-0.588,0.732,100.341,355.163,14.343,0,0,0,
,0.361,-0.575,0.699,59.631,323.425,21.362,0,0,0,
,0.393,-0.546,0.671,28.32,318.481,20.263,0,0,0,
,0.413,-0.537,0.651,-7.813,303.65,25.573,0,0,0,
,0.426,-0.495,0.64,-36.927,289.123,16.357,0,0,0,
,0.437,-0.43,0.622,-63.904,269.531,29.846,0,0,0,
,0.461,-0.418,0.602,-86.182,272.888,24.231,0,0,0,
,0.462,-0.348,0.581,-98.694,234.985,15.93,0,0,0,
,0.475,-0.305,0.566,-97.229,238.281,-1.404,0,0,0,
,0.474,-0.288,0.552,-75.135,231.14,-26.917,0,0,0,
,0.509,-0.266,0.549,-65.003,244.873,-56.397,0,0,0,
,0.519,-0.242,0.544,-33.02,235.656,-87.464,0,0,0,
,0.546,-0.197,0.569,23.071,244.934,-123.352,0,0,0,
,0.561,-0.2,0.585,94.665,235.595,-154.725,0,0,0,
,0.578,-0.243,0.606,161.193,239.99,-194.397,0,0,0,
,0.587,-0.26,0.647,200.622,239.685,-221.131,0,0,0,
,0.623,-0.247,0.684,264.404,224.182,-249.939,0,0,0,
,0.611,-0.276,0.709,358.642,179.687,-284.852,0,0,0,
,0.624,-0.313,0.689,450.805,151.184,-307.984,0,0,0,
,0.641,-0.422,0.646,505.615,120.91,-325.135,0,0,0,
,0.651,-0.468,0.635,523.498,91.491,-324.402,0,0,0,
,0.633,-0.526,0.631,546.386,86.181,-337.159,0,0,0,
,0.643,-0.592,0.625,551.33,86.547,-344.605,0,0,0,
,0.655,-0.646,0.643,551.025,63.903,-360.352,0,0,0,
,0.655,-0.707,0.628,535.034,26.794,-328.736,0,0,0,
,0.599,-0.73,0.61,451.66,-34.363,-317.261,0,0,0,
,0.581,-0.75,0.593,377.075,-61.524,-323.365,0,0,0,
,0.541,-0.755,0.594,356.079,-107.3,-292.176,0,0,0,
,0.498,-0.768,0.552,347.534,-122.742,-276.307,0,0,0,
,0.47,-0.79,0.523,342.529,-131.104,-265.442,0,0,0,
,0.429,-0.839,0.494,325.561,-141.419,-256.104,0,0,0,
,0.386,-0.787,0.488,327.514,-143.921,-239.38,0,0,0,
,0.373,-0.772,0.465,348.816,-103.028,-228.272,0,0,0,
,0.354,-0.808,0.452,364.746,-85.022,-218.018,0,0,0,
,0.354,-0.829,0.448,343.078,-63.111,-215.577,0,0,0,
,0.335,-0.889,0.427,296.142,-48.035,-196.289,0,0,0,
,0.326,-0.921,0.428,270.507,-27.405,-172.486,0,0,0,
,0.336,-0.898,0.424,260.498,-5.433,-178.284,0,0,0,
,0.339,-0.946,0.48,263.61,3.051,-165.467,0,0,0,
,0.328,-0.978,0.419,233.093,17.273,-145.63,0,0,0,
,0.341,-0.921,0.395,152.16,28.259,-127.015,0,0,0,
,0.344,-0.962,0.422,119.506,8.544,-126.038,0,0,0,
,0.335,-0.928,0.449,70.861,5.371,-127.869,0,0,0,
,0.354,-0.947,0.519,68.115,33.935,-97.413,0,0,0,
,0.449,-0.859,0.507,-30.762,9.155,-129.944,0,0,0,
,0.46,-0.835,0.56,48.156,-88.99,-124.817,0,0,0,
,0.374,-0.836,0.538,111.206,-131.47,-132.142,0,0,0,
,0.356,-0.857,0.491,163.452,-87.647,-128.296,0,0,0,
,0.36,-0.887,0.437,180.175,-73.426,-115.54,0,0,0,
,0.337,-0.883,0.39,189.27,-75.684,-117.737,0,0,0,
,0.316,-0.927,0.346,177.368,-74.707,-133.301,0,0,0,
,0.327,-0.954,0.328,127.014,-71.839,-144.165,0,0,0,
,0.313,-0.919,0.317,71.594,-79.163,-137.024,0,0,0,
,0.315,-0.888,0.339,70.19,-71.167,-132.813,0,0,0,
,0.319,-0.892,0.351,79.345,-50.538,-148.865,0,0,0,
,0.303,-0.918,0.311,37.841,-67.322,-167.054,0,0,0,
,0.333,-0.753,0.415,38.757,-44.556,-191.346,0,0,0,
,0.339,-1.092,0.387,215.271,-114.502,-240.052,0,0,0,
,0.249,-0.883,0.438,17.822,-152.1,-188.477,0,0,0,
,0.262,-0.835,0.374,127.502,-59.998,-233.582,0,0,0,
,0.273,-0.912,0.388,148.681,-108.216,-184.082,0,0,0,
,0.22,-0.903,0.377,165.71,-126.465,-205.506,0,0,0,
,0.161,-0.969,0.39,176.513,-126.893,-186.158,0,0,0,
,0.132,-0.996,0.398,149.353,-92.713,-175.599,0,0,0,
,0.122,-1.001,0.405,116.027,-56.153,-146.729,0,0,0,
,0.118,-1.027,0.447,113.281,-37.354,-142.029,0,0,0,
,0.101,-1.012,0.467,138.855,-18.799,-121.582,0,0,0,
,0.09,-1.074,0.451,164.428,4.882,-96.558,0,0,0,
,0.097,-1.099,0.439,123.474,17.15,-51.331,0,0,0,
,0.1,-1.076,0.405,77.331,29.48,-35.645,0,0,0,
,0.122,-1.052,0.395,33.325,34.851,-17.395,0,0,0,
,0.142,-1.006,0.384,29.663,53.039,2.258,0,0,0,
,0.151,-0.979,0.344,62.377,66.894,19.653,0,0,0,
,0.162,-0.991,0.324,77.88,80.627,41.809,0,0,0,
,0.185,-0.962,0.279,78.674,96.984,54.077,0,0,0,
,0.21,-0.966,0.277,85.205,107.116,70.373,0,0,0,
,0.232,-0.922,0.279,120.849,114.318,74.829,0,0,0,
,0.252,-0.861,0.309,247.253,114.624,50.231,0,0,0,
,0.253,-0.757,0.289,461.67,155.029,55.175,0,0,0,
,0.303,-1.085,0.171,568.298,292.724,78.796,0,0,0,
,0.527,-1.572,0.211,362.243,310.119,17.517,0,0,0,
,0.551,-1.615,0.269,43.823,157.714,-25.147,0,0,0,
,0.514,-1.584,0.372,-110.413,68.847,-147.217,0,0,0,
,0.47,-1.631,0.464,-205.506,-26.246,-274.964,0,0,0,
,0.427,-1.557,0.463,-365.784,-119.812,-387.818,0,0,0,
,0.371,-1.512,0.385,-625.977,-225.159,-500.916,0,0,0,
,0.299,-1.314,0.295,-933.716,-360.291,-613.526,0,0,0,
,0.212,-1.208,0.246,-1192.261,-463.807,-704.834,0,0,0,
,0.132,-0.939,0.309,-1290.528,-545.716,-767.456,0,0,0,
,-0.008,-0.719,0.223,-1185.914,-581.421,-704.407,0,0,0,
,-0.061,-0.718,0.247,-1169.373,-573.243,-674.073,0,0,0,
,-0.071,-0.779,0.309,-1424.927,-589.966,-642.273,0,0,0,
,-0.104,-0.949,0.224,-2000,-605.713,-634.949,0,0,0,
,-0.084,-0.845,0.229,-2000,-637.757,-599.244,0,0,0,
,-0.104,-0.527,-0.109,-2000,-677.491,-494.935,0,0,0,
,-0.009,0.037,-0.374,-2000,-970.704,-248.475,0,0,0,
,-0.043,0.775,-0.207,-2000,-1203.248,-26.673,0,0,0,
,-0.129,1.116,0.181,-2000,-1004.09,-20.508,0,0,0,
,-0.063,0.639,0.269,-1998.841,-763.245,-127.442,0,0,0,
,0.049,0.126,0.224,-1536.927,-563.965,-94.91,0,0,0,
,0.052,-0.025,0.228,-1523.499,-514.039,-218.689,0,0,0,
,-0.053,0.047,0.331,-1713.379,-453.431,-249.634,0,0,0,
,-0.184,0.325,0.625,-1583.069,-256.409,-239.014,0,0,0,
,-0.144,0.566,0.743,-967.53,-32.593,-127.564,0,0,0,
,-0.169,0.064,0.712,-317.383,75.5,-74.036,0,0,0,
,-0.282,0.013,0.823,-564.698,74.279,-78.003,0,0,0,
,-0.379,0.464,0.914,-619.263,113.83,-156.678,0,0,0,
,-0.454,0.479,0.903,-351.258,157.47,-164.124,0,0,0,
,-0.557,0.46,0.999,-324.769,181.884,-126.77,0,0,0,
,-0.551,0.628,1.103,-266.602,237.182,-65.796,0,0,0,
,-0.524,0.665,1.152,-42.908,318.664,-7.813,0,0,0,
,-0.457,0.663,1.169,176.88,351.745,9.887,0,0,0,
,-0.468,0.51,1.242,123.535,342.163,-16.602,0,0,0,
,-0.454,0.614,1.261,140.564,331.726,-17.579,0,0,0,
,-0.445,0.674,1.287,139.892,308.349,-3.907,0,0,0,
,-0.375,0.678,1.202,128.967,260.742,-9.766,0,0,0,
,-0.375,0.63,1.17,47.302,180.969,-10.804,0,0,0,
,-0.343,0.695,1.147,16.418,120.666,-3.785,0,0,0,
,-0.352,0.61,1.132,-1.648,79.711,13.671,0,0,0,
,-0.308,0.556,1.062,38.391,44.311,24.353,0,0,0,
,-0.288,0.462,1.004,36.56,17.089,17.334,0,0,0,
,-0.264,0.469,0.955,50.17,-10.743,-1.038,0,0,0,
,-0.265,0.387,0.936,29.48,-27.832,-13.306,0,0,0,
,-0.253,0.416,0.894,66.467,-38.819,-15.748,0,0,0,
,-0.244,0.43,0.886,68.176,-44.129,-12.696,0,0,0,
,-0.238,0.395,0.854,47.302,-53.101,-23.194,0,0,0,
,-0.24,0.388,0.848,32.592,-57.312,-39.551,0,0,0,
,-0.256,0.373,0.858,40.466,-57.679,-32.105,0,0,0,
,-0.25,0.37,0.835,7.873,-44.007,-36.194,0,0,0,
,-0.251,0.337,0.831,20.202,-27.71,-29.175,0,0,0,
,-0.241,0.386,0.836,25.329,-21.668,-31.189,0,0,0,
,-0.242,0.332,0.846,25.146,-16.236,-37.171,0,0,0,
,-0.24,0.391,0.845,-6.287,-6.47,-45.96,0,0,0,
,-0.24,0.385,0.852,11.23,4.028,-40.345,0,0,0,
,-0.252,0.388,0.854,15.075,15.869,-33.204,0,0,0,
,-0.255,0.379,0.828,34.484,21.057,-30.579,0,0,0,
,-0.249,0.395,0.83,41.687,26.55,-39.368,0,0,0,
,-0.26,0.362,0.851,40.222,27.343,-45.411,0,0,0,
,-0.257,0.378,0.866,40.222,27.587,-47.852,0,0,0,
,-0.261,0.376,0.895,40.283,28.93,-35.706,0,0,0,
,-0.255,0.382,0.886,36.804,25.329,-27.527,0,0,0,
,-0.259,0.395,0.898,14.526,12.023,-25.696,0,0,0,
,-0.249,0.42,0.895,10.315,-1.831,-21.424,0,0,0,
,-0.265,0.401,0.906,-13.367,-5.188,-20.325,0,0,0,
,-0.264,0.43,0.893,-4.7,-0.245,-10.682,0,0,0,
,-0.258,0.437,0.88,8.483,6.836,-2.869,0,0,0,
,-0.256,0.423,0.874,4.882,-0.428,-2.686,0,0,0,
,-0.255,0.441,0.889,11.413,1.525,-6.226,0,0,0,
,-0.262,0.433,0.897,17.761,-3.724,-7.996,0,0,0,
,-0.269,0.428,0.893,18.188,4.577,-7.142,0,0,0,
,-0.259,0.427,0.88,40.344,13.244,-3.357,0,0,0,
,-0.258,0.433,0.872,40.771,17.822,-9.461,0,0,0,
,-0.256,0.395,0.872,52.307,21.179,-9.034,0,0,0,
,-0.248,0.39,0.865,44.982,14.892,-12.391,0,0,0,
,-0.264,0.378,0.896,31.982,13.732,-20.081,0,0,0,
,-0.26,0.365,0.894,33.752,20.385,-10.437,0,0,0,
,-0.262,0.345,0.892,10.986,25.39,-15.87,0,0,0,
,-0.251,0.363,0.872,31.921,29.174,-13.245,0,0,0,
,-0.239,0.379,0.846,18.432,23.864,-23.133,0,0,0,
,-0.254,0.347,0.863,-4.029,11.84,-20.935,0,0,0,
,-0.247,0.399,0.864,2.868,20.08,-14.405,0,0,0,
,-0.249,0.377,0.869,26.245,27.526,-6.897,0,0,0,
,-0.236,0.384,0.854,44.555,31.372,-9.583,0,0,0,
,-0.247,0.331,0.86,45.654,25.512,-10.926,0,0,0,
,-0.25,0.362,0.861,45.776,30.822,-10.804,0,0,0,
,-0.271,0.327,0.864,58.044,33.447,-5.555,0,0,0,
,-0.269,0.345,0.844,95.825,46.569,1.586,0,0,0,
,-0.278,0.309,0.836,125.793,61.401,8.911,0,0,0,
,-0.266,0.317,0.829,123.84,65.002,7.446,0,0,0,
,-0.265,0.333,0.855,108.398,61.95,0.122,0,0,0,
,-0.261,0.346,0.898,95.764,61.706,0,0,0,0,
,-0.259,0.346,0.922,86.486,61.462,0.488,0,0,0,
,-0.247,0.364,0.933,84.716,59.814,-1.526,0,0,0,
,-0.235,0.34,0.968,75.866,54.748,-4.944,0,0,0,
,-0.23,0.351,0.979,64.392,35.4,-16.358,0,0,0,
,-0.24,0.357,0.998,32.959,23.132,-32.044,0,0,0,
,-0.229,0.387,1.005,48.461,16.113,-34.424,0,0,0,
,-0.239,0.375,1.029,66.467,14.892,-34.546,0,0,0,
,-0.228,0.356,1.032,99.487,17.578,-26.734,0,0,0,
,-0.236,0.332,1.054,90.942,19.226,-32.898,0,0,0,
,-0.233,0.368,1.06,95.153,17.15,-36.377,0,0,0,
,-0.243,0.358,1.079,106.14,22.766,-29.236,0,0,0,
,-0.231,0.414,1.072,160.095,24.841,-19.227,0,0,0,
,-0.237,0.382,1.061,220.092,27.771,2.319,0,0,0,
,-0.234,0.387,1.047,260.009,35.522,21.423,0,0,0,
,-0.21,0.348,0.978,309.997,41.137,43.029,0,0,0,
,-0.197,0.326,0.982,332.824,22.949,61.584,0,0,0,
,-0.214,0.358,0.951,289.734,19.409,40.771,0,0,0,
,-0.234,0.363,0.991,266.723,34.118,29.357,0,0,0,
,-0.221,0.349,0.981,347.656,60.18,50.476,0,0,0,
,-0.21,0.333,0.996,418.396,93.139,95.642,0,0,0,
,-0.184,0.328,0.935,466.613,101.257,102.478,0,0,0,
,-0.176,0.293,0.999,524.78,103.637,108.093,0,0,0,
,-0.176,0.256,0.998,560.363,113.586,104.614,0,0,0,
,-0.195,0.179,1.028,642.578,181.762,143.127,0,0,0,
,-0.153,0.293,0.963,762.085,169.25,189.697,0,0,0,
,-0.166,0.221,0.96,899.17,202.575,169.799,0,0,0,
,-0.167,0.108,0.955,917.724,229.675,147.644,0,0,0,
,-0.156,0.081,0.915,878.418,218.078,156.616,0,0,0,
,-0.141,0.04,0.932,845.947,195.495,142.883,0,0,0,
,-0.137,-0.026,0.914,803.527,167.968,138,0,0,0,
,-0.139,-0.065,0.911,773.925,128.479,146.423,0,0,0,
,-0.148,-0.115,0.921,764.465,99.243,145.385,0,0,0,
,-0.158,-0.102,0.887,802.002,80.932,154.235,0,0,0,
,-0.177,-0.182,0.859,791.992,80.139,146.606,0,0,0,
,-0.172,-0.295,0.846,747.131,85.815,133.545,0,0,0,
,-0.169,-0.336,0.84,650.085,83.19,152.221,0,0,0,
,-0.164,-0.329,0.85,596.13,83.618,153.991,0,0,0,
,-0.173,-0.331,0.856,601.013,82.763,132.995,0,0,0,
,-0.166,-0.373,0.841,606.872,88.501,112.06,0,0,0,
,-0.163,-0.438,0.882,606.262,74.035,106.811,0,0,0,
,-0.165,-0.434,0.866,589.111,86.303,127.014,0,0,0,
,-0.155,-0.424,0.848,532.959,85.815,125.427,0,0,0,
,-0.128,-0.484,0.811,508.85,84.899,105.468,0,0,0,
,-0.102,-0.508,0.805,440.063,64.88,122.253,0,0,0,
,-0.078,-0.492,0.795,383.911,17.211,121.826,0,0,0,
,-0.074,-0.513,0.795,369.506,13.977,126.342,0,0,0,
,-0.086,-0.537,0.823,354.98,19.775,127.014,0,0,0,
,-0.084,-0.512,0.826,379.76,50.598,148.62,0,0,0,
,-0.064,-0.512,0.795,432.922,66.772,143.554,0,0,0,
,-0.036,-0.578,0.763,466.369,70.983,120.727,0,0,0,
,-0.026,-0.619,0.759,443.603,54.809,129.577,0,0,0,
,-0.03,-0.648,0.747,373.352,33.996,110.839,0,0,0,
,-0.032,-0.644,0.764,329.712,20.874,106.628,0,0,0,
,-0.033,-0.652,0.755,297.912,7.812,92.956,0,0,0,
,-0.035,-0.681,0.757,276.916,0,80.505,0,0,0,
,-0.053,-0.666,0.752,248.84,2.136,82.946,0,0,0,
,-0.06,-0.637,0.729,280.822,16.54,77.575,0,0,0,
,-0.059,-0.636,0.701,343.017,40.954,77.88,0,0,0,
,-0.053,-0.694,0.676,346.069,64.819,66.284,0,0,0,
,-0.042,-0.706,0.703,311.523,77.27,64.453,0,0,0,
,-0.032,-0.686,0.725,309.265,95.886,76.232,0,0,0,
,0.001,-0.732,0.752,389.221,143.31,82.214,0,0,0,
,0.014,-0.75,0.744,367.126,143.066,82.214,0,0,0,
,0.015,-0.761,0.743,340.271,143.005,73.791,0,0,0,
,0.017,-0.774,0.716,334.961,144.714,74.035,0,0,0,
,0.019,-0.83,0.713,316.467,139.587,62.377,0,0,0,
,0.015,-0.854,0.706,279.907,143.676,64.514,0,0,0,
,0.012,-0.85,0.702,254.089,150.756,69.274,0,0,0,
,0.012,-0.867,0.707,255.615,155.151,72.021,0,0,0,
,0.015,-0.841,0.675,242.492,173.217,87.036,0,0,0,
,0.031,-0.845,0.671,233.703,175.903,63.354,0,0,0,
,0.036,-0.857,0.653,220.459,155.151,60.913,0,0,0,
,0.021,-0.84,0.664,201.965,151.245,59.082,0,0,0,
,0.037,-0.855,0.65,250.61,186.828,88.562,0,0,0,
,0.069,-0.904,0.618,225.952,186.462,91.064,0,0,0,
,0.09,-0.919,0.609,169.86,154.174,81.176,0,0,0,
,0.106,-0.942,0.587,110.168,122.619,65.612,0,0,0,
,0.107,-0.923,0.572,71.35,96.13,68.42,0,0,0,
,0.113,-0.909,0.582,52.185,92.773,59.509,0,0,0,
,0.122,-0.894,0.568,50.537,93.75,61.706,0,0,0,
,0.147,-0.894,0.567,43.64,97.534,62.561,0,0,0,
,0.161,-0.854,0.56,31.86,78.796,66.101,0,0,0,
,0.167,-0.858,0.563,20.507,70.8,66.101,0,0,0,
,0.18,-0.837,0.561,12.451,57.983,70.007,0,0,0,
,0.173,-0.832,0.562,10.925,22.216,81.909,0,0,0,
,0.157,-0.829,0.572,8.3,32.714,85.449,0,0,0,
,0.153,-0.852,0.562,8.3,62.805,109.253,0,0,0,
,0.141,-0.847,0.583,-12.33,77.331,113.891,0,0,0,
,0.118,-0.834,0.574,-6.897,104.614,124.817,0,0,0,
,0.131,-0.871,0.556,-13.855,112.732,137.573,0,0,0,
,0.117,-0.867,0.552,-48.157,132.568,150.451,0,0,0,
,0.141,-0.865,0.562,-58.289,189.575,171.447,0,0,0,
,0.161,-0.86,0.584,-58.045,145.691,210.144,0,0,0,
,0.121,-0.876,0.64,-57.373,181.213,227.172,0,0,0,
,0.155,-0.921,0.648,-45.289,232.177,270.813,0,0,0,
,0.216,-0.98,0.618,-37.903,287.109,346.679,0,0,0,
,0.25,-1.04,0.569,-82.825,304.748,349.182,0,0,0,
,0.264,-1.055,0.542,-143.677,282.287,334.961,0,0,0,
,0.266,-1.05,0.495,-205.933,273.315,323.425,0,0,0,
,0.271,-1.057,0.473,-308.35,254.699,297.363,0,0,0,
,0.268,-0.973,0.453,-375.611,258.606,278.198,0,0,0,
,0.281,-0.92,0.429,-404.602,270.141,261.718,0,0,0,
,0.292,-0.887,0.424,-448.121,266.906,249.633,0,0,0,
,0.328,-0.796,0.451,-487.427,257.385,242.859,0,0,0,
,0.347,-0.784,0.451,-469.849,265.136,226.257,0,0,0,
,0.369,-0.723,0.463,-493.775,241.394,213.012,0,0,0,
,0.361,-0.628,0.489,-494.324,225.463,195.434,0,0,0,
,0.462,-0.544,0.541,-448.304,234.802,152.771,0,0,0,
,0.439,-0.478,0.56,-430.542,189.514,144.409,0,0,0,
,0.426,-0.413,0.576,-412.415,175.048,148.864,0,0,0,
,0.408,-0.298,0.595,-373.475,157.409,160.4,0,0,0,
,0.428,-0.244,0.579,-288.208,168.151,177.185,0,0,0,
,0.438,-0.244,0.551,-235.962,167.602,199.524,0,0,0,
,0.469,-0.305,0.549,-219.849,184.875,210.754,0,0,0,
,0.544,-0.313,0.556,-205.262,187.744,211.425,0,0,0,
,0.577,-0.393,0.563,-232.361,166.076,210.144,0,0,0,
,0.597,-0.366,0.574,-281.495,145.813,222.656,0,0,0,
,0.621,-0.37,0.581,-304.688,136.596,216.491,0,0,0,
,0.626,-0.418,0.761,-323.365,72.509,142.578,0,0,0,
,0.767,-0.287,0.782,-263.306,89.05,99.792,0,0,0,
,0.684,-0.247,0.843,-185.914,42.785,65.856,0,0,0,
,0.703,-0.359,0.805,-65.857,73.608,20.996,0,0,0,
,0.653,-0.312,0.778,-14.771,38.269,1.709,0,0,0,
,0.61,-0.341,0.712,24.963,42.419,-2.625,0,0,0,
,0.572,-0.388,0.638,27.282,31.555,6.836,0,0,0,
,0.557,-0.411,0.603,-22.095,59.997,21.179,0,0,0,
,0.527,-0.392,0.603,-49.561,69.824,27.465,0,0,0,
,0.561,-0.43,0.589,-110.352,91.98,44.738,0,0,0,
,0.532,-0.368,0.645,-165.345,82.641,50.903,0,0,0,
,0.547,-0.313,0.632,-158.143,98.51,50.659,0,0,0,
,0.584,-0.18,0.772,-175.232,74.462,70.434,0,0,0,
,0.552,-0.098,0.857,-39.429,54.077,13.916,0,0,0,
,0.727,-0.53,0.747,-3.174,147.827,27.954,0,0,0,
,0.704,-0.413,0.857,-22.522,22.216,-9.339,0,0,0,
,0.646,-0.178,0.783,-135.376,-44.434,-30.762,0,0,0,
,0.624,-0.201,0.773,-0.245,-79.285,-83.374,0,0,0,
,0.629,-0.171,0.741,42.419,-35.157,-73.548,0,0,0,
,0.598,-0.223,0.685,72.326,-43.702,-71.045,0,0,0,
,0.611,-0.267,0.674,100.463,-36.255,-83.497,0,0,0,
,0.637,-0.317,0.677,105.59,-27.71,-79.773,0,0,0,
,0.681,-0.326,0.671,137.512,-12.94,-100.342,0,0,0,
,0.677,-0.386,0.646,142.761,-49.866,-142.212,0,0,0,
,0.66,-0.399,0.614,137.573,-72.022,-175.538,0,0,0,
,0.595,-0.357,0.604,119.079,-72.876,-193.848,0,0,0,
,0.486,-0.305,0.442,143.249,-33.081,-197.693,0,0,0,
,0.438,-0.404,0.659,276.733,36.804,-243.531,0,0,0,
,0.557,-0.221,0.719,301.391,58.776,-279.175,0,0,0,
,0.522,-0.488,0.759,485.046,69.702,-298.829,0,0,0,
,0.608,-0.638,0.78,448.425,103.027,-285.645,0,0,0,
,0.691,-0.821,0.581,151.794,-30.274,-225.647,0,0,0,
,0.376,-0.24,0.718,-8.912,-224.244,-137.574,0,0,0,
,0.354,-0.399,0.533,151.916,43.64,-151.185,0,0,0,
,0.453,-0.468,0.493,86.792,-31.25,-162.781,0,0,0,
,0.304,-0.34,0.577,44.616,-64.515,-166.26,0,0,0,
,0.337,-0.383,0.544,80.81,46.936,-166.321,0,0,0,
,0.397,-0.411,0.547,112.854,79.956,-152.832,0,0,0,
,0.401,-0.414,0.556,181.579,89.538,-136.414,0,0,0,
,0.406,-0.463,0.536,224.792,127.38,-172.486,0,0,0,
,0.449,-0.5,0.54,214.721,123.901,-217.957,0,0,0,
,0.445,-0.47,0.571,236.572,127.319,-232.239,0,0,0,
,0.589,-0.664,0.802,310.18,219.726,-187.928,0,0,0,
,0.792,-0.515,0.831,167.236,167.175,-145.508,0,0,0,
,0.76,-0.523,0.749,244.995,3.234,-200.074,0,0,0,
,0.678,-0.431,0.802,250.61,-89.905,-242.737,0,0,0,
,0.701,-0.496,0.736,301.941,-116.456,-298.523,0,0,0,
,0.677,-0.507,0.661,356.445,-196.045,-364.624,0,0,0,
,0.591,-0.5,0.579,484.314,-197.632,-417.237,0,0,0,
,0.457,-0.916,0.346,664.856,-179.505,-467.591,0,0,0,
,0.488,-1.027,0.445,336.609,-121.949,-317.688,0,0,0,
,0.517,-0.73,0.432,141.54,-139.527,-313.172,0,0,0,
,0.426,-0.601,0.563,150.451,-205.323,-267.395,0,0,0,
,0.353,-0.618,0.57,294.067,-66.468,-283.02,0,0,0,
,0.435,-0.79,0.577,203.735,-99.244,-216.919,0,0,0,
,0.423,-0.81,0.574,176.88,-109.498,-205.445,0,0,0,
,0.394,-0.794,0.544,183.776,-106.446,-182.679,0,0,0,
,0.41,-0.826,0.528,206.359,-91.736,-205.384,0,0,0,
,0.385,-0.868,0.559,234.985,-110.718,-221.68,0,0,0,
,0.324,-0.857,0.549,235.29,-106.141,-221.558,0,0,0,
,0.308,-0.827,0.54,251.342,-73.548,-209.351,0,0,0,
,0.271,-0.82,0.515,239.746,-58.167,-195.984,0,0,0,
,0.284,-0.79,0.503,230.407,-24.048,-198.182,0,0,0,
,0.307,-0.833,0.492,239.746,-33.814,-213.318,0,0,0,
,0.29,-0.862,0.493,210.144,-38.331,-203.431,0,0,0,
,0.291,-0.847,0.474,204.162,-18.067,-176.758,0,0,0,
,0.268,-0.808,0.41,76.599,-15.992,-171.082,0,0,0,
,0.256,-0.784,0.42,76.477,5.432,-147.522,0,0,0,
,0.266,-0.808,0.421,108.703,30.029,-130.372,0,0,0,
,0.273,-0.796,0.444,116.577,32.959,-106.019,0,0,0,
,0.31,-0.798,0.47,147.094,60.791,-91.919,0,0,0,
,0.363,-0.863,0.477,136.84,40.954,-89.234,0,0,0,
,0.356,-0.837,0.487,133.484,-3.357,-107.85,0,0,0,
,0.334,-0.833,0.508,153.503,-2.991,-66.224,0,0,0,
,0.338,-0.824,0.472,171.447,41.32,-43.213,0,0,0,
,0.374,-0.888,0.45,163.574,36.071,-36.011,0,0,0,
,0.366,-0.923,0.462,108.459,10.864,-21.912,0,0,0,
,0.355,-0.901,0.49,62.805,14.343,-7.142,0,0,0,
,0.355,-0.899,0.49,69.458,34.668,5.798,0,0,0,
,0.476,-0.764,0.496,467.346,134.277,-175.782,0,0,0,
,0.445,-1.709,0.502,378.479,-72.266,-267.09,0,0,0,
,0.26,-0.836,0.515,-171.509,-125.489,-79.651,0,0,0,
,0.289,-0.795,0.488,137.634,-25.757,-124.329,0,0,0,
,0.254,-1.155,0.383,198.059,-15.625,-85.938,0,0,0,
,0.228,-1.101,0.387,35.705,-0.489,-74.219,0,0,0,
,0.233,-1.002,0.432,-46.021,-1.221,-60.364,0,0,0,
,0.228,-0.982,0.453,-52.796,11.596,-26.429,0,0,0,
,0.229,-0.96,0.422,-30.64,43.151,-33.692,0,0,0,
,0.275,-1.004,0.422,-34.485,63.476,-45.105,0,0,0,
,0.268,-0.952,0.418,-111.145,18.432,-18.372,0,0,0,
,0.239,-0.869,0.411,-121.277,22.461,-8.912,0,0,0,
,0.26,-0.834,0.404,-67.383,50.964,9.094,0,0,0,
,0.277,-0.868,0.395,-24.964,63.415,17.517,0,0,0,
,0.299,-0.857,0.386,-39.429,52.551,10.803,0,0,0,
,0.291,-0.832,0.393,-39.429,35.949,12.207,0,0,0,
,0.291,-0.804,0.38,-25.452,34.362,11.779,0,0,0,
,0.311,-0.775,0.364,1.709,28.686,-2.625,0,0,0,
,0.297,-0.745,0.359,53.283,21.057,-8.24,0,0,0,
,0.288,-0.718,0.367,157.837,36.254,-21.302,0,0,0,
,0.278,-0.661,0.322,478.454,110.962,-24.964,0,0,0,
,0.33,-0.766,0.275,578.186,161.682,-11.17,0,0,0,
,0.401,-0.849,0.324,580.566,127.502,-37.476,0,0,0,
,0.393,-0.842,0.338,592.163,86.425,-33.02,0,0,0,
,0.406,-0.915,0.33,623.352,126.098,-34.241,0,0,0,
,0.447,-0.963,0.3,638,130.493,-23.316,0,0,0,
,0.434,-0.959,0.296,647.338,99.365,-10.743,0,0,0,
,0.423,-1.006,0.257,711.67,98.755,-41.321,0,0,0,
,0.44,-1.213,0.224,693.908,100.097,-94.3,0,0,0,
,0.466,-1.364,0.228,497.863,36.499,-142.09,0,0,0,
,0.468,-1.424,0.249,276.916,-42.786,-230.286,0,0,0,
,0.412,-1.371,0.265,128.296,-129.212,-276.49,0,0,0,
,0.364,-1.317,0.241,62.072,-166.687,-297.547,0,0,0,
,0.296,-1.286,0.198,29.052,-183.716,-337.281,0,0,0,
,0.27,-1.356,0.146,-78.614,-170.96,-351.868,0,0,0,
,0.261,-1.321,0.104,-221.619,-199.463,-387.818,0,0,0,
,0.248,-1.313,0.067,-423.035,-257.935,-447.754,0,0,0,
,0.206,-1.156,0.099,-524.964,-294.312,-502.564,0,0,0,
,0.136,-1.088,0.023,-534.974,-277.466,-506.714,0,0,0,
,0.142,-1.172,0.01,-659.119,-254.639,-520.447,0,0,0,
,0.159,-1.193,-0.158,-984.375,-267.64,-518.189,0,0,0,
,0.196,-1.37,-0.168,-1489.136,-344.91,-543.396,0,0,0,
,0.164,-1.244,-0.153,-2000,-471.619,-563.599,0,0,0,
,0.085,-0.872,-0.077,-2000,-560.669,-571.167,0,0,0,
,-0.002,-0.5,0.003,-2000,-593.323,-534.119,0,0,0,
,-0.052,-0.253,0.133,-2000,-619.08,-443.787,0,0,0,
,-0.149,-0.17,0.16,-2000,-632.63,-395.508,0,0,0,
,-0.176,0.005,0.224,-2000,-637.635,-305.359,0,0,0,
,-0.176,0.275,0.346,-2000,-596.009,-222.229,0,0,0,
,-0.178,0.326,0.277,-2000,-587.586,-248.963,0,0,0,
,-0.152,0.362,0.231,-2000,-540.101,-218.384,0,0,0,
,-0.135,0.437,0.267,-2000,-479.615,-336.365,0,0,0,
,0.021,0.407,0.438,-2000,-375.489,-370.972,0,0,0,
,-0.028,0.512,0.566,-2000,-229.065,-442.505,0,0,0,
,-0.014,0.632,0.689,-1532.288,-71.412,-430.054,0,0,0,
,-0.102,0.448,0.837,-1065.186,45.41,-349.06,0,0,0,
,-0.008,0.406,0.849,-890.198,56.274,-263.428,0,0,0,
,-0.112,0.462,1.004,-826.416,72.753,-200.379,0,0,0,
,-0.081,0.358,1.04,-564.454,78.491,-143.067,0,0,0,
,-0.253,0.14,1.144,-401.612,168.64,-87.281,0,0,0,
,-0.262,0.316,1.172,-139.161,265.503,-53.772,0,0,0,
,-0.266,0.376,1.234,109.802,282.653,-54.627,0,0,0,
,-0.346,0.375,1.285,179.992,246.338,-68.116,0,0,0,
,-0.366,0.597,1.365,230.041,194.824,-1.648,0,0,0,
,-0.378,0.72,1.363,276.977,148.803,81.665,0,0,0,
,-0.387,0.648,1.347,217.041,102.966,157.348,0,0,0,
,-0.311,0.644,1.234,208.618,31.372,177.612,0,0,0,
,-0.298,0.511,1.172,153.137,-2.259,159.362,0,0,0,
,-0.271,0.48,1.133,80.566,-25.269,136.596,0,0,0,
,-0.285,0.485,1.146,59.936,-45.899,116.699,0,0,0,
,-0.226,0.342,1.096,28.32,-39.002,64.025,0,0,0,
,-0.199,0.333,1.013,-22.339,-38.269,13.977,0,0,0,
,-0.208,0.371,1.001,25.695,-46.936,-9.705,0,0,0,
,-0.221,0.335,0.99,115.783,-32.349,11.84,0,0,0,
,-0.216,0.362,0.98,59.021,-33.143,1.037,0,0,0,
,-0.178,0.298,0.859,78.674,-21.546,9.155,0,0,0,
,-0.185,0.274,0.892,46.508,-40.284,-13.916,0,0,0,
,-0.189,0.28,0.943,-1.587,-48.279,-22.4,0,0,0,
,-0.175,0.304,0.903,21.179,-32.776,-15.748,0,0,0,
,-0.183,0.278,0.908,26.55,-17.945,-12.94,0,0,0,
,-0.159,0.3,0.897,46.875,-14.466,-10.132,0,0,0,
,-0.174,0.307,0.891,20.263,-27.344,-13.184,0,0,0,
,-0.192,0.337,0.921,-5.616,-18.128,-7.508,0,0,0,
,-0.196,0.33,0.923,26.306,11.413,13.794,0,0,0,
,-0.167,0.32,0.904,41.503,15.014,3.906,0,0,0,
,-0.174,0.279,0.937,24.169,6.164,-17.518,0,0,0,
,-0.178,0.295,0.956,-22.95,-0.794,-22.95,0,0,0,
,-0.181,0.33,0.942,-20.691,-6.104,-22.217,0,0,0,
,-0.193,0.317,0.953,-7.142,-12.635,-15.503,0,0,0,
,-0.177,0.342,0.951,9.033,-15.442,-9.339,0,0,0,
,-0.187,0.287,0.942,6.103,-0.061,-9.766,0,0,0,
,-0.184,0.303,0.928,4.333,-12.696,-9.095,0,0,0,
,-0.179,0.286,0.9,19.775,-8.301,-4.822,0,0,0,
,-0.175,0.308,0.905,27.71,-13.245,-5.921,0,0,0,
,-0.178,0.291,0.918,29.724,-22.767,-6.47,0,0,0,
,-0.189,0.306,0.923,42.297,-10.865,-8.057,0,0,0,
,-0.186,0.293,0.911,62.072,-7.752,-8.362,0,0,0,
,-0.184,0.296,0.908,43.396,-13.733,-11.109,0,0,0,
,-0.194,0.287,0.919,14.282,-12.33,-17.945,0,0,0,
,-0.199,0.29,0.928,3.418,-6.104,-15.625,0,0,0,
,-0.202,0.301,0.914,11.535,2.197,-12.452,0,0,0,
,-0.199,0.302,0.906,38.513,11.962,-13.001,0,0,0,
,-0.2,0.282,0.9,32.775,20.263,-15.748,0,0,0,
,-0.201,0.307,0.913,16.723,17.15,-16.053,0,0,0,
,-0.199,0.309,0.923,14.16,19.897,-12.757,0,0,0,
,-0.206,0.303,0.936,12.146,22.522,-11.658,0,0,0,
,-0.201,0.311,0.945,28.381,15.075,-12.391,0,0,0,
,-0.198,0.257,0.944,15.747,11.291,-14.771,0,0,0,
,-0.199,0.275,0.951,15.136,10.742,-14.222,0,0,0,
,-0.216,0.28,0.951,38.269,22.888,-9.034,0,0,0,
,-0.213,0.26,0.927,65.063,22.399,-5.799,0,0,0,
,-0.204,0.259,0.939,35.644,10.62,-8.789,0,0,0,
,-0.217,0.293,0.949,41.015,10.315,1.281,0,0,0,
,-0.218,0.301,0.942,42.663,15.136,5.188,0,0,0,
,-0.218,0.3,0.926,68.725,20.202,31.005,0,0,0,
,-0.208,0.298,0.918,74.279,18.554,23.559,0,0,0,
,-0.206,0.284,0.916,68.115,16.967,25.268,0,0,0,
,-0.204,0.273,0.914,51.33,20.141,24.047,0,0,0,
,-0.206,0.27,0.931,49.377,21.911,21.118,0,0,0,
,-0.21,0.284,0.943,64.27,30.517,22.033,0,0,0,
,-0.213,0.257,0.952,78.308,37.841,25.024,0,0,0,
,-0.204,0.266,0.954,79.65,38.33,20.324,0,0,0,
,-0.207,0.254,0.959,65.063,36.865,16.662,0,0,0,
,-0.201,0.272,0.968,35.339,32.043,6.591,0,0,0,
,-0.2,0.28,0.955,28.869,26.611,0.366,0,0,0,
,-0.202,0.275,0.952,23.681,25.756,-2.869,0,0,0,
,-0.193,0.291,0.932,24.047,28.076,-4.334,0,0,0,
,-0.185,0.272,0.926,48.4,33.935,-2.503,0,0,0,
,-0.186,0.26,0.943,27.587,36.56,-10.926,0,0,0,
,-0.182,0.279,0.949,24.963,34.423,-10.682,0,0,0,
,-0.174,0.248,0.97,20.263,33.996,-7.752,0,0,0,
,-0.172,0.27,0.977,11.108,24.597,-8.545,0,0,0,
,-0.175,0.255,0.992,17.7,20.263,-5.005,0,0,0,
,-0.167,0.254,0.973,7.812,12.146,-2.381,0,0,0,
,-0.176,0.249,0.98,-9.827,1.342,-2.93,0,0,0,
,-0.174,0.259,0.976,-7.081,-1.16,1.77,0,0,0,
,-0.172,0.256,0.979,-6.287,-6.226,0.61,0,0,0,
,-0.171,0.25,0.961,-8.545,-8.484,7.69,0,0,0,
,-0.162,0.265,0.947,2.38,-15.87,5.981,0,0,0,
,-0.165,0.239,0.953,-11.414,-24.292,7.507,0,0,0,
,-0.163,0.266,0.955,-13.489,-19.898,8.483,0,0,0,
,-0.163,0.251,0.945,2.441,-13.062,14.831,0,0,0,
,-0.165,0.271,0.923,20.507,-7.264,15.686,0,0,0,
,-0.167,0.26,0.92,32.226,-4.639,17.517,0,0,0,
,-0.167,0.268,0.922,4.882,0.671,11.901,0,0,0,
,-0.177,0.279,0.931,-8.118,4.333,12.023,0,0,0,
,-0.176,0.294,0.919,-4.456,12.451,10.62,0,0,0,
,-0.183,0.279,0.916,-11.17,14.16,17.15,0,0,0,
,-0.198,0.281,0.911,-21.851,14.892,19.897,0,0,0,
,-0.203,0.276,0.914,-18.433,20.568,25.94,0,0,0,
,-0.2,0.258,0.914,-23.621,23.742,30.944,0,0,0,
,-0.209,0.249,0.922,-24.17,23.925,34.729,0,0,0,
,-0.215,0.237,0.925,0.549,31.372,38.513,0,0,0,
,-0.216,0.218,0.911,23.437,36.926,41.32,0,0,0,
,-0.233,0.229,0.917,44.494,42.541,39.917,0,0,0,
,-0.232,0.237,0.91,66.955,41.015,32.531,0,0,0,
,-0.243,0.231,0.945,61.767,43.64,27.221,0,0,0,
,-0.245,0.254,0.954,65.307,43.457,21.484,0,0,0,
,-0.261,0.268,1.01,53.405,40.1,4.028,0,0,0,
,-0.256,0.356,1.064,62.439,37.536,-11.414,0,0,0,
,-0.245,0.352,1.121,67.565,16.723,-23.865,0,0,0,
,-0.233,0.388,1.161,81.848,2.685,-22.95,0,0,0,
,-0.231,0.38,1.226,101.013,-16.114,-12.818,0,0,0,
,-0.205,0.407,1.261,185.363,-31.373,-2.808,0,0,0,
,-0.198,0.387,1.335,439.209,-29.297,26.184,0,0,0,
,-0.203,0.399,1.376,730.041,12.146,29.846,0,0,0,
,-0.199,0.32,1.423,996.948,63.293,50.354,0,0,0,
,-0.132,0.213,1.174,1224.548,49.804,70.739,0,0,0,
,-0.125,-0.015,1.195,1377.807,17.578,80.627,0,0,0,
,-0.171,-0.042,1.29,1240.234,48.523,101.257,0,0,0,
,-0.186,0.009,1.267,1115.539,128.906,86.792,0,0,0,
,-0.196,-0.033,1.266,1152.649,235.901,74.89,0,0,0,
,-0.156,-0.07,1.004,1384.277,255.554,70.8,0,0,0,
,-0.138,-0.084,1.015,1471.069,224.121,143.005,0,0,0,
,-0.193,-0.113,0.815,1456.543,203.247,48.767,0,0,0,
,-0.165,-0.283,0.916,1406.067,154.113,-6.836,0,0,0,
,-0.197,-0.375,0.901,1310.608,179.565,11.413,0,0,0,
,-0.213,-0.323,0.877,1217.224,191.65,50.293,0,0,0,
,-0.2,-0.257,0.846,1282.714,198.852,63.659,0,0,0,
,-0.191,-0.3,0.84,1554.077,203.735,74.89,0,0,0,
,-0.19,-0.224,0.693,1810.424,191.711,150.634,0,0,0,
,-0.186,-0.221,0.547,1989.074,222.595,201.965,0,0,0,
,-0.17,-0.46,0.303,1999.694,270.996,242.126,0,0,0,
,-0.14,-0.693,0.051,1646.85,269.043,202.697,0,0,0,
,-0.083,-0.939,0.108,1105.835,248.291,170.776,0,0,0,
,-0.074,-0.923,0.226,626.77,220.276,284.668,0,0,0,
,-0.106,-0.661,0.276,414.917,240.051,359.008,0,0,0,
,-0.07,-0.66,0.315,489.868,269.165,335.205,0,0,0,
,-0.044,-0.792,0.301,521.24,285.888,349.975,0,0,0,
,-0.056,-0.789,0.267,491.394,322.937,412.597,0,0,0,
,-0.03,-0.822,0.244,403.564,377.441,436.462,0,0,0,
,0.016,-0.82,0.271,254.76,370.178,436.95,0,0,0,
,0.039,-0.778,0.318,141.479,327.88,410.766,0,0,0,
,0.045,-0.801,0.37,83.19,290.405,385.986,0,0,0,
,0.069,-0.85,0.437,3.479,292.846,380.92,0,0,0,
,0.126,-0.829,0.462,-11.536,292.419,360.473,0,0,0,
,0.171,-0.886,0.438,0.122,261.291,335.144,0,0,0,
,0.189,-0.958,0.428,-56.702,218.139,302.795,0,0,0,
,0.203,-0.942,0.463,-97.84,178.955,260.131,0,0,0,
,0.239,-0.988,0.482,-126.465,161.316,240.844,0,0,0,
,0.256,-0.983,0.522,-163.208,133.728,207.885,0,0,0,
,0.258,-0.979,0.546,-179.932,112.365,170.227,0,0,0,
,0.259,-0.993,0.555,-198.792,91.919,134.765,0,0,0,
,0.235,-1.011,0.57,-241.761,79.589,121.338,0,0,0,
,0.243,-0.985,0.578,-280.274,83.313,114.685,0,0,0,
,0.243,-0.969,0.595,-255.249,101.928,110.29,0,0,0,
,0.26,-0.971,0.612,-230.835,129.272,132.568,0,0,0,
,0.263,-0.954,0.629,-199.219,132.263,148.193,0,0,0,
,0.254,-0.969,0.625,-181.702,148.071,151.062,0,0,0,
,0.262,-0.935,0.608,-194.275,166.992,154.235,0,0,0,
,0.257,-0.891,0.604,-216.187,170.837,167.48,0,0,0,
,0.25,-0.81,0.593,-190.857,177.673,168.945,0,0,0,
,0.241,-0.738,0.567,-132.203,188.659,171.753,0,0,0,
,0.255,-0.733,0.542,-97.352,199.401,174.987,0,0,0,
,0.295,-0.678,0.481,-90.027,214.111,166.015,0,0,0,
,0.314,-0.672,0.496,-39.429,207.824,166.015,0,0,0,
,0.331,-0.672,0.46,-29.175,227.234,150.695,0,0,0,
,0.406,-0.673,0.444,16.601,226.806,113.647,0,0,0,
,0.42,-0.714,0.446,29.296,186.279,72.57,0,0,0,
,0.419,-0.691,0.441,21.789,161.804,36.01,0,0,0,
,0.408,-0.648,0.44,19.653,140.93,-9.278,0,0,0,
,0.4,-0.654,0.441,23.864,135.742,-40.162,0,0,0,
,0.43,-0.608,0.443,12.695,133.484,-72.083,0,0,0,
,0.453,-0.601,0.461,24.841,97.473,-106.202,0,0,0,
,0.436,-0.602,0.479,57.067,72.204,-118.714,0,0,0,
,0.419,-0.598,0.484,79.101,87.28,-127.015,0,0,0,
,0.443,-0.641,0.491,95.886,106.628,-126.893,0,0,0,
,0.444,-0.671,0.469,80.2,102.356,-114.685,0,0,0,
,0.467,-0.681,0.469,52.124,88.867,-98.084,0,0,0,
,0.46,-0.72,0.484,5.798,57.19,-81.36,0,0,0,
,0.457,-0.744,0.509,-35.279,44.372,-50.599,0,0,0,
,0.463,-0.733,0.509,-63.477,36.926,-36.377,0,0,0,
,0.456,-0.721,0.519,-86.243,33.508,-40.589,0,0,0,
,0.443,-0.728,0.54,-117.188,26.001,-56.946,0,0,0,
,0.416,-0.69,0.56,-159.363,29.052,-54.017,0,0,0,
,0.412,-0.666,0.563,-134.4,40.405,-30.884,0,0,0,
,0.422,-0.67,0.573,-52.002,47.912,-4.578,0,0,0,
,0.416,-0.728,0.54,13.183,44.555,6.286,0,0,0,
,0.438,-0.757,0.54,21.728,34.423,-0.367,0,0,0,
,0.437,-0.805,0.524,22.094,16.723,-11.17,0,0,0,
,0.432,-0.803,0.549,-12.024,-4.395,-16.114,0,0,0,
,0.42,-0.799,0.55,-4.639,-2.686,-14.039,0,0,0,
,0.425,-0.828,0.546,-28.016,-7.081,-27.466,0,0,0,
,0.428,-0.818,0.547,-65.857,-31.311,-20.081,0,0,0,
,0.422,-0.806,0.539,-84.168,-40.223,-21.058,0,0,0,
,0.419,-0.783,0.545,-70.923,-36.316,-5.372,0,0,0,
,0.417,-0.783,0.554,-44.739,-16.663,-18.921,0,0,0,
,0.417,-0.786,0.522,-3.235,9.887,-18.738,0,0,0,
,0.432,-0.824,0.54,-15.076,22.949,-27.71,0,0,0,
,0.432,-0.833,0.515,-89.783,26.611,-30.579,0,0,0,
,0.437,-0.798,0.52,-142.395,26.855,-43.824,0,0,0,
,0.443,-0.747,0.523,-120.24,23.01,-42.176,0,0,0,
,0.415,-0.753,0.534,-97.107,15.136,-50.721,0,0,0,
,0.396,-0.704,0.533,-78.309,40.771,-47.73,0,0,0,
,0.407,-0.712,0.548,-40.589,72.143,-30.579,0,0,0,
,0.436,-0.731,0.558,-102.112,103.698,12.939,0,0,0,
,0.471,-0.613,0.59,-117.066,70.922,-12.452,0,0,0,
,0.462,-0.623,0.592,-17.579,34.606,-35.706,0,0,0,
,0.46,-0.683,0.613,48.339,30.578,-52.735,0,0,0,
,0.449,-0.681,0.6,26.794,7.019,-56.336,0,0,0,
,0.411,-0.639,0.519,76.049,9.399,-70.191,0,0,0,
,0.424,-0.793,0.526,125.732,10.376,-74.646,0,0,0,
,0.398,-0.736,0.541,0.061,-5.86,-37.476,0,0,0,
,0.404,-0.705,0.56,78.491,89.721,-49.073,0,0,0,
,0.414,-0.876,0.542,180.359,80.871,-121.827,0,0,0,
,0.389,-0.89,0.528,84.899,42.724,-99.305,0,0,0,
,0.348,-0.807,0.598,20.996,-7.996,-82.947,0,0,0,
,0.342,-0.778,0.567,56.884,97.9,-67.566,0,0,0,
,0.347,-0.78,0.607,198.364,103.881,-131.714,0,0,0,
,0.363,-0.914,0.54,300.842,141.174,-151.856,0,0,0,
,0.355,-0.911,0.516,294.006,160.644,-113.77,0,0,0,
,0.372,-0.862,0.452,310.913,227.05,-125.55,0,0,0,
,0.382,-0.944,0.445,329.589,222.9,-95.276,0,0,0,
,0.344,-0.944,0.616,247.375,268.371,-40.406,0,0,0,
,0.405,-0.878,0.439,146.545,257.568,-44.861,0,0,0,
,0.405,-0.721,0.362,147.583,282.165,-2.137,0,0,0,
,0.387,-0.747,0.332,183.41,294.616,52.368,0,0,0,
,0.435,-0.738,0.41,178.344,312.683,108.337,0,0,0,
,0.468,-0.644,0.342,142.944,268.005,147.949,0,0,0,
,0.504,-0.641,0.329,170.41,283.691,156.555,0,0,0,
,0.619,-0.754,0.283,164.245,226.989,143.371,0,0,0,
,0.629,-0.73,0.306,108.337,36.438,168.823,0,0,0,
,0.558,-0.686,0.366,207.458,-39.368,146.24,0,0,0,
,0.494,-0.829,0.409,305.42,36.377,99.792,0,0,0,
,0.511,-0.897,0.283,303.527,202.27,69.641,0,0,0,
,0.62,-0.948,0.257,161.132,161.193,6.042,0,0,0,
,0.605,-0.84,0.328,14.587,-60.425,-27.649,0,0,0,
,0.48,-0.778,0.395,-4.395,-167.603,-57.312,0,0,0,
,0.478,-0.818,0.333,115.661,-26.307,-70.435,0,0,0,
,0.475,-0.825,0.301,91.491,-100.586,-67.749,0,0,0,
,0.44,-0.861,0.261,73.974,-120.606,-86.182,0,0,0,
,0.419,-0.815,0.333,38.147,-86.914,-81.543,0,0,0,
,0.432,-0.84,0.376,90.759,-51.026,-96.07,0,0,0,
,0.437,-0.912,0.419,115.6,-48.035,-99.671,0,0,0,
,0.429,-0.9,0.402,90.759,-25.147,-108.033,0,0,0,
,0.447,-0.914,0.418,84.594,-10.498,-95.52,0,0,0,
,0.457,-0.905,0.4,53.955,-30.213,-94.666,0,0,0,
,0.439,-0.862,0.4,45.776,-41.26,-80.384,0,0,0,
,0.432,-0.85,0.393,42.602,-27.344,-72.144,0,0,0,
,0.426,-0.83,0.389,65.551,-27.161,-55.481,0,0,0,
,0.412,-0.825,0.374,88.806,-18.189,-41.504,0,0,0,
,0.414,-0.836,0.351,107.605,-0.916,-45.411,0,0,0,
,0.434,-0.865,0.336,107.116,10.986,-40.833,0,0,0,
,0.444,-0.854,0.338,98.266,-8.606,-33.509,0,0,0,
,0.431,-0.842,0.33,107.666,-10.743,-44.129,0,0,0,
,0.428,-0.8,0.359,128.418,-7.081,-54.322,0,0,0,
,0.431,-0.778,0.359,170.593,-10.254,-84.107,0,0,0,
,0.465,-0.757,0.346,187.378,-5.249,-84.229,0,0,0,
,0.553,-0.929,0.299,161.682,9.765,-110.657,0,0,0,
,0.693,-1.119,0.353,2.441,3.112,-125.184,0,0,0,
,0.801,-1.193,0.429,-58.716,-33.326,-216.736,0,0,0,
,0.831,-1.21,0.509,-70.496,-171.448,-314.82,0,0,0,
,0.749,-1.184,0.468,-51.636,-283.448,-408.326,0,0,0,
,0.623,-1.254,0.368,-43.274,-377.259,-526.429,0,0,0,
,0.529,-1.295,0.213,-168.885,-414.002,-612.671,0,0,0,
,0.452,-1.259,0.181,-320.191,-505.616,-703.553,0,0,0,
,0.335,-1.136,0.008,-440.796,-473.084,-730.896,0,0,0,
,0.305,-1.173,-0.049,-666.138,-430.726,-760.987,0,0,0,
,0.282,-1.237,-0.205,-1104.798,-446.106,-723.755,0,0,0,
,0.268,-1.269,-0.131,-1890.503,-561.097,-694.581,0,0,0,
,0.154,-0.75,0.085,-2000,-712.037,-599.122,0,0,0,
,-0.047,-0.047,0.213,-2000,-737,-492.92,0,0,0,
,-0.14,0.136,0.217,-2000,-735.047,-478.211,0,0,0,
,-0.159,0.04,0.309,-1998.963,-667.542,-124.024,0,0,0,
,0.015,0.081,0.475,-2000,-809.388,19.287,0,0,0,
,-0.07,0.135,0.65,-2000,-847.596,-103.821,0,0,0,
,-0.149,0.255,0.793,-2000,-751.709,-146.485,0,0,0,
,-0.184,0.404,0.903,-1900.574,-605.164,-89.661,0,0,0,
,-0.223,0.275,0.909,-1413.086,-429.383,-53.406,0,0,0,
,-0.086,-0.128,0.768,-1314.209,-380.372,16.662,0,0,0,
,-0.176,-0.218,0.745,-1716.065,-387.085,-7.142,0,0,0,
,-0.28,0.396,0.813,-1841.797,-340.149,-97.657,0,0,0,
,-0.255,0.455,0.89,-1295.044,-193.543,-102.906,0,0,0,
,-0.293,0.012,0.87,-922.181,-69.519,-76.905,0,0,0,
,-0.248,0.088,0.831,-956.971,-7.081,-48.096,0,0,0,
,-0.207,0.396,0.886,-844.178,14.404,-74.769,0,0,0,
,-0.267,0.395,1.169,-551.941,80.2,-96.558,0,0,0,
,-0.274,0.424,1.209,-259.095,116.394,-41.077,0,0,0,
,-0.257,0.45,1.242,19.775,128.479,1.953,0,0,0,
,-0.262,0.441,1.213,30.883,113.403,11.352,0,0,0,
,-0.245,0.457,1.193,-8.606,101.928,4.211,0,0,0,
,-0.229,0.561,1.169,-16.297,44.494,-5.372,0,0,0,
,-0.251,0.6,1.175,-30.213,-4.09,-5.799,0,0,0,
,-0.267,0.616,1.15,-34.607,-12.879,9.216,0,0,0,
,-0.266,0.574,1.11,-13.916,-14.405,27.221,0,0,0,
,-0.236,0.512,1.022,38.757,-19.837,41.687,0,0,0,
,-0.219,0.457,0.992,35.888,-35.523,35.034,0,0,0,
,-0.202,0.467,0.959,13.732,-49.5,20.813,0,0,0,
,-0.206,0.404,0.935,2.441,-50.477,8.667,0,0,0,
,-0.203,0.404,0.928,46.752,-41.871,30.212,0,0,0,
,-0.188,0.36,0.9,62.927,-31.25,36.804,0,0,0,
,-0.182,0.311,0.877,7.324,-31.922,11.901,0,0,0,
,-0.187,0.335,0.878,-2.381,-29.664,4.394,0,0,0,
,-0.202,0.322,0.862,-22.339,-22.95,0.305,0,0,0,
,-0.207,0.344,0.853,-8.545,1.037,-0.061,0,0,0,
,-0.204,0.361,0.842,31.372,17.7,3.601,0,0,0,
,-0.198,0.349,0.847,62.439,37.719,1.586,0,0,0,
,-0.185,0.318,0.844,53.955,44.616,-8.301,0,0,0,
,-0.187,0.333,0.867,15.319,33.386,-14.771,0,0,0,
,-0.198,0.339,0.917,-13.55,28.869,-19.837,0,0,0,
,-0.203,0.349,0.933,-30.091,34.24,-21.973,0,0,0,
,-0.201,0.341,0.928,3.051,35.766,-25.086,0,0,0,
,-0.194,0.356,0.9,20.568,28.259,-23.743,0,0,0,
,-0.192,0.35,0.909,-12.757,10.376,-33.509,0,0,0,
,-0.191,0.378,0.911,-29.541,0.671,-41.81,0,0,0,
,-0.209,0.366,0.918,-22.034,-10.987,-38.941,0,0,0,
,-0.202,0.387,0.916,-2.93,-10.315,-33.326,0,0,0,
,-0.209,0.361,0.922,15.747,-4.944,-29.969,0,0,0,
,-0.203,0.346,0.905,31.433,-2.747,-26.551,0,0,0,
,-0.191,0.363,0.907,19.104,-5.372,-28.565,0,0,0,
,-0.197,0.368,0.908,34.668,-10.56,-24.842,0,0,0,
,-0.203,0.394,0.897,17.883,-1.587,-23.865,0,0,0,
,-0.211,0.357,0.907,-5.616,-5.066,-21.973,0,0,0,
,-0.202,0.393,0.907,1.525,1.892,-9.583,0,0,0,
,-0.198,0.409,0.878,32.531,6.103,-5.494,0,0,0,
,-0.209,0.386,0.882,14.404,15.808,-10.132,0,0,0,
,-0.201,0.411,0.875,44.799,34.362,1.22,0,0,0,
,-0.195,0.369,0.897,23.254,39.856,4.089,0,0,0,
,-0.178,0.383,0.905,11.108,39.55,3.295,0,0,0,
,-0.184,0.369,0.909,14.892,38.635,4.089,0,0,0,
,-0.185,0.377,0.926,26.733,42.175,3.418,0,0,0,
,-0.193,0.389,0.899,52.49,50.842,7.568,0,0,0,
,-0.196,0.395,0.903,84.899,54.321,8.972,0,0,0,
,-0.193,0.414,0.89,121.765,64.453,8.85,0,0,0,
,-0.18,0.322,0.868,85.388,62.622,12.146,0,0,0,
,-0.172,0.34,0.904,23.071,45.654,15.319,0,0,0,
,-0.183,0.329,0.931,4.638,37.963,-0.123,0,0,0,
,-0.159,0.314,0.948,-15.442,36.682,-9.888,0,0,0,
,-0.191,0.3,0.941,9.46,39.917,0.366,0,0,0,
,-0.186,0.327,0.916,38.757,22.705,2.319,0,0,0,
,-0.2,0.323,0.93,27.526,19.104,3.662,0,0,0,
,-0.191,0.336,0.917,23.437,9.46,-1.648,0,0,0,
,-0.206,0.336,0.942,20.385,1.892,-2.32,0,0,0,
,-0.204,0.351,0.933,44.067,0.976,10.253,0,0,0,
,-0.208,0.341,0.927,49.316,-9.766,2.868,0,0,0,
,-0.21,0.325,0.932,46.203,-13.672,0.122,0,0,0,
,-0.211,0.332,0.927,41.015,-16.541,-2.93,0,0,0,
,-0.21,0.329,0.936,43.518,-18.25,-9.339,0,0,0,
,-0.211,0.331,0.926,54.87,-16.236,-11.292,0,0,0,
,-0.21,0.328,0.921,53.649,-15.748,-15.32,0,0,0,
,-0.209,0.308,0.915,55.908,-15.809,-20.203,0,0,0,
,-0.212,0.331,0.917,53.772,-7.752,-27.344,0,0,0,
,-0.211,0.333,0.906,63.659,0.183,-28.687,0,0,0,
,-0.215,0.333,0.902,69.397,10.131,-31.983,0,0,0,
,-0.202,0.334,0.911,69.519,26.489,-31.067,0,0,0,
,-0.194,0.329,0.901,67.26,27.954,-31.556,0,0,0,
,-0.193,0.33,0.909,45.959,30.761,-35.645,0,0,0,
,-0.179,0.343,0.925,49.926,34.362,-36.194,0,0,0,
,-0.171,0.317,0.939,36.254,29.113,-30.701,0,0,0,
,-0.161,0.341,0.972,17.028,28.808,-30.03,0,0,0,
,-0.152,0.348,1.007,48.95,30.456,-19.165,0,0,0,
,-0.149,0.332,1.051,75.622,35.156,-12.94,0,0,0,
,-0.126,0.361,1.053,128.662,31.494,-7.996,0,0,0,
,-0.135,0.338,1.083,127.502,12.329,-0.672,0,0,0,
,-0.118,0.407,1.13,150.879,-7.935,-9.949,0,0,0,
,-0.124,0.457,1.182,235.107,-36.622,-20.691,0,0,0,
,-0.15,0.375,1.202,326.965,-71.473,-4.029,0,0,0,
,-0.158,0.365,1.175,381.713,-99.122,7.873,0,0,0,
,-0.178,0.334,1.157,465.82,-117.432,30.273,0,0,0,
,-0.202,0.264,1.104,575.683,-95.032,26.672,0,0,0,
,-0.24,0.288,1.118,699.89,-58.594,33.142,0,0,0,
,-0.26,0.265,1.125,917.114,34.118,68.847,0,0,0,
,-0.264,0.19,1.128,1047.973,156.189,123.169,0,0,0,
,-0.246,0.215,1.007,1200.805,254.943,141.296,0,0,0,
,-0.191,0.136,1.013,1338.379,321.716,140.564,0,0,0,
,-0.174,0.09,0.828,1420.532,320.922,139.77,0,0,0,
,-0.149,0.063,0.867,1458.13,267.151,122.68,0,0,0,
,-0.156,-0.028,0.905,1464.538,267.578,101.074,0,0,0,
,-0.17,-0.061,0.857,1401.794,253.967,107.116,0,0,0,
,-0.161,-0.114,0.908,1357.299,264.404,136.474,0,0,0,
,-0.144,-0.101,0.838,1314.148,270.568,181.884,0,0,0,
,-0.123,-0.134,0.804,1214.294,247.375,175.659,0,0,0,
,-0.086,-0.204,0.736,1166.748,237.671,134.46,0,0,0,
,-0.047,-0.388,0.775,1110.595,214.904,137.146,0,0,0,
,-0.032,-0.475,0.77,944.641,196.716,183.471,0,0,0,
,-0.032,-0.53,0.793,781.433,194.458,215.881,0,0,0,
,-0.035,-0.552,0.789,671.203,179.565,211.364,0,0,0,
,-0.007,-0.596,0.705,665.039,153.93,185.974,0,0,0,
,0.011,-0.745,0.706,613.342,113.647,163.269,0,0,0,
,0.004,-0.781,0.713,534.24,67.016,170.776,0,0,0,
,-0.03,-0.77,0.732,456.726,26.184,199.401,0,0,0,
,-0.066,-0.746,0.688,397.155,33.569,172.912,0,0,0,
,-0.067,-0.767,0.593,313.72,38.269,169.86,0,0,0,
,-0.036,-0.842,0.603,209.106,34.24,124.511,0,0,0,
,-0.014,-0.8,0.603,81.665,23.315,128.967,0,0,0,
,-0.017,-0.731,0.647,21.911,-15.137,119.995,0,0,0,
,-0.045,-0.678,0.676,37.17,-7.508,129.089,0,0,0,
,-0.06,-0.638,0.639,77.331,30.7,139.709,0,0,0,
,-0.023,-0.717,0.578,62.683,66.772,88.317,0,0,0,
,0.024,-0.76,0.586,6.836,39.978,66.284,0,0,0,
,0.008,-0.7,0.601,-63.904,-7.325,60.73,0,0,0,
,-0.016,-0.641,0.649,-53.284,-11.658,56.091,0,0,0,
,-0.035,-0.629,0.676,22.705,19.775,63.232,0,0,0,
,-0.028,-0.623,0.641,84.289,91.43,60.913,0,0,0,
,0.009,-0.676,0.63,112.487,95.581,33.508,0,0,0,
,0.012,-0.687,0.662,91.491,60.302,32.714,0,0,0,
,-0.007,-0.656,0.677,86.12,65.063,14.038,0,0,0,
,-0.006,-0.679,0.696,132.934,71.594,24.353,0,0,0,
,-0.006,-0.688,0.708,167.663,102.356,34.912,0,0,0,
,0.02,-0.725,0.703,199.768,141.723,39.001,0,0,0,
,0.064,-0.807,0.685,156.128,145.996,29.785,0,0,0,
,0.093,-0.812,0.702,80.444,103.82,13.427,0,0,0,
,0.078,-0.771,0.729,77.575,86.364,0.183,0,0,0,
,0.07,-0.781,0.733,91.308,106.567,2.685,0,0,0,
,0.072,-0.782,0.725,101.013,126.648,8.911,0,0,0,
,0.079,-0.788,0.718,103.637,149.475,22.277,0,0,0,
,0.101,-0.813,0.707,41.992,132.141,14.709,0,0,0,
,0.078,-0.783,0.719,23.498,127.868,10.62,0,0,0,
,0.076,-0.775,0.723,42.907,144.897,26.367,0,0,0,
,0.061,-0.767,0.734,66.833,161.499,51.147,0,0,0,
,0.059,-0.807,0.707,66.345,206.237,63.171,0,0,0,
,0.074,-0.844,0.69,27.343,208.862,67.077,0,0,0,
,0.05,-0.819,0.697,12.023,198.669,80.444,0,0,0,
,0.029,-0.828,0.7,45.959,219.543,111.145,0,0,0,
,0.022,-0.852,0.711,31.799,273.01,135.009,0,0,0,
,0.046,-0.834,0.707,-5.494,325.5,148.864,0,0,0,
,0.071,-0.802,0.702,-44.007,332.946,160.278,0,0,0,
,0.077,-0.748,0.693,-50.538,331.848,168.457,0,0,0,
,0.097,-0.695,0.663,-12.024,355.713,188.476,0,0,0,
,0.128,-0.544,0.739,46.142,390.93,247.619,0,0,0,
,0.226,-0.828,0.743,175.109,423.706,230.102,0,0,0,
,0.242,-0.707,0.702,96.191,390.258,242.309,0,0,0,
,0.285,-0.747,0.691,112.854,380.493,255.31,0,0,0,
,0.345,-0.744,0.709,75.5,318.42,291.076,0,0,0,
,0.362,-0.736,0.652,114.074,307.495,303.833,0,0,0,
,0.392,-0.811,0.6,70.068,285.095,300.537,0,0,0,
,0.389,-0.791,0.59,-4.456,232.605,300.232,0,0,0,
,0.362,-0.745,0.586,-61.341,201.049,292.907,0,0,0,
,0.338,-0.698,0.595,-98.267,205.2,301.452,0,0,0,
,0.349,-0.701,0.569,-125.306,218.261,313.903,0,0,0,
,0.385,-0.693,0.557,-167.664,224.914,314.087,0,0,0,
,0.42,-0.71,0.542,-209.473,237.793,300.232,0,0,0,
,0.454,-0.708,0.558,-294.861,235.839,285.583,0,0,0,
,0.484,-0.662,0.566,-341.309,208.007,276.184,0,0,0,
,0.519,-0.685,0.56,-367.798,180.236,259.887,0,0,0,
,0.517,-0.607,0.597,-390.259,132.446,260.131,0,0,0,
,0.507,-0.493,0.637,-380.738,109.802,250.305,0,0,0,
,0.518,-0.506,0.598,-246.216,149.353,196.411,0,0,0,
,0.532,-0.48,0.576,-261.231,119.873,190.673,0,0,0,
,0.542,-0.505,0.577,-246.155,111.999,144.958,0,0,0,
,0.539,-0.413,0.636,-177.491,118.713,118.042,0,0,0,
,0.557,-0.54,0.566,-172.12,138.549,100.463,0,0,0,
,0.535,-0.444,0.601,-171.57,97.106,79.04,0,0,0,
,0.504,-0.366,0.621,-134.4,96.984,73.059,0,0,0,
,0.536,-0.429,0.597,-99.549,121.46,62.622,0,0,0,
,0.529,-0.397,0.618,-92.774,97.229,74.89,0,0,0,
,0.549,-0.429,0.61,-82.032,109.802,70.007,0,0,0,
,0.594,-0.453,0.588,-70.069,85.571,43.335,0,0,0,
,0.592,-0.443,0.598,-61.951,63.476,5.737,0,0,0,
,0.602,-0.447,0.622,-41.626,66.223,-22.706,0,0,0,
,0.583,-0.326,0.643,-27.832,34.484,-32.227,0,0,0,
,0.549,-0.398,0.611,72.265,41.442,-78.492,0,0,0,
,0.527,-0.399,0.568,66.345,28.259,-85.572,0,0,0,
,0.513,-0.324,0.577,85.266,35.888,-98.511,0,0,0,
,0.502,-0.432,0.525,116.516,66.65,-142.273,0,0,0,
,0.492,-0.437,0.523,101.501,60.058,-144.959,0,0,0,
,0.524,-0.442,0.596,103.698,118.896,-148.255,0,0,0,
,0.524,-0.572,0.633,111.389,108.337,-120.484,0,0,0,
,0.528,-0.41,0.608,44.311,83.313,-147.461,0,0,0,
,0.644,-0.608,0.899,72.876,102.539,-43.03,0,0,0,
,0.697,-0.394,1.002,108.703,42.419,-46.875,0,0,0,
,0.665,-0.478,0.784,95.214,-46.631,-41.565,0,0,0,
,0.679,-0.538,0.733,138.61,-98.816,-120.667,0,0,0,
,0.632,-0.523,0.719,152.954,-120.911,-146.79,0,0,0,
,0.61,-0.521,0.644,214.904,-130.433,-160.767,0,0,0,
,0.451,-0.561,0.397,287.658,-147.339,-188.843,0,0,0,
,0.422,-0.835,0.484,270.019,-7.386,-162.049,0,0,0,
,0.462,-0.365,0.557,207.458,-11.414,-169.8,0,0,0,
,0.41,-0.643,0.609,383.484,7.141,-205.018,0,0,0,
,0.395,-0.68,0.618,333.74,67.016,-186.829,0,0,0,
,0.479,-0.591,0.632,351.928,84.228,-188.599,0,0,0,
,0.501,-0.773,0.674,422.485,41.442,-187.928,0,0,0,
,0.558,-1.077,0.511,226.562,30.456,-211.731,0,0,0,
,0.491,-1,0.555,-125.855,-116.333,-42.176,0,0,0,
,0.292,-0.303,0.609,-230.042,-102.784,69.213,0,0,0,
,0.321,-0.45,0.498,117.004,136.657,-16.175,0,0,0,
,0.448,-0.718,0.456,50.109,88.378,-39.002,0,0,0,
,0.355,-0.58,0.469,76.965,112.609,-33.875,0,0,0,
,0.434,-0.634,0.459,122.68,157.47,-56.336,0,0,0,
,0.454,-0.656,0.45,138.488,132.934,-75.562,0,0,0,
,0.46,-0.692,0.464,94.97,131.042,-121.46,0,0,0,
,0.559,-0.77,0.552,63.903,184.265,-74.891,0,0,0,
,0.621,-0.541,0.648,39.123,127.99,-115.357,0,0,0,
,0.628,-0.62,0.639,149.78,75.317,-153.992,0,0,0,
,0.615,-0.642,0.653,249.755,48.461,-187.256,0,0,0,
,0.602,-0.734,0.56,280.334,11.779,-234.009,0,0,0,
,0.57,-0.827,0.5,242.187,-39.978,-247.559,0,0,0,
,0.487,-0.794,0.546,174.438,-75.257,-204.407,0,0,0,
,0.462,-0.782,0.549,97.534,11.718,-180.481,0,0,0,
,0.505,-0.739,0.543,60.058,13.855,-155.701,0,0,0,
,0.49,-0.787,0.493,18.249,-25.208,-139.893,0,0,0,
,0.444,-0.717,0.497,-35.096,-31.189,-105.591,0,0,0,
,0.462,-0.739,0.518,-83.313,43.884,-62.256,0,0,0,
,0.569,-0.628,0.624,-79.651,56.091,-54.993,0,0,0,
,0.608,-0.7,0.583,-35.401,-32.105,-71.289,0,0,0,
,0.567,-0.662,0.6,26.001,-97.84,-103.943,0,0,0,
,0.513,-0.683,0.562,117.92,-88.44,-116.15,0,0,0,
,0.509,-0.742,0.549,155.883,-46.57,-118.103,0,0,0,
,0.5,-0.789,0.478,152.649,-44.861,-122.925,0,0,0,
,0.459,-0.794,0.446,130.981,-73.853,-140.87,0,0,0,
,0.406,-0.794,0.428,130.859,-73.914,-169.678,0,0,0,
,0.377,-0.82,0.463,60.852,-82.581,-141.968,0,0,0,
,0.352,-0.688,0.499,57.495,-55.542,-104.615,0,0,0,
,0.374,-0.675,0.506,173.278,7.019,-114.441,0,0,0,
,0.469,-0.716,0.687,261.047,59.143,-94.666,0,0,0,
,0.495,-0.786,0.428,377.136,4.821,-212.891,0,0,0,
,0.396,-1.09,0.46,360.778,-54.505,-153.626,0,0,0,
,0.355,-0.935,0.467,152.343,-13.977,-95.704,0,0,0,
,0.381,-1.019,0.497,156.433,39.978,-119.202,0,0,0,
,0.378,-0.965,0.484,58.898,41.381,-81.727,0,0,0,
,0.369,-0.915,0.496,44.982,35.339,-89.478,0,0,0,
,0.35,-0.945,0.492,35.156,33.935,-63.721,0,0,0,
,0.345,-0.916,0.477,-24.781,63.598,-36.133,0,0,0,
,0.378,-0.873,0.45,-39.978,73.181,-30.884,0,0,0,
,0.391,-0.869,0.445,-48.951,66.101,-17.273,0,0,0,
,0.414,-0.784,0.421,-69.336,67.932,-3.052,0,0,0,
,0.451,-0.779,0.429,-59.449,70.19,-13.001,0,0,0,
,0.456,-0.745,0.403,-113.16,37.292,5.859,0,0,0,
,0.491,-0.721,0.469,-113.953,41.626,-10.376,0,0,0,
,0.553,-0.766,0.437,-199.402,-2.686,-0.916,0,0,0,
,0.631,-0.78,0.587,-256.226,-43.58,-5.127,0,0,0,
,0.659,-0.716,0.635,-147.278,-61.646,-76.416,0,0,0,
,0.677,-0.956,0.643,3.112,-101.319,-200.623,0,0,0,
,0.687,-1.13,0.682,-96.497,-139.588,-244.263,0,0,0,
,0.703,-1.02,0.712,-253.724,-260.071,-266.175,0,0,0,
,0.686,-1.031,0.718,-236.39,-369.873,-395.63,0,0,0,
,0.592,-0.985,0.62,-241.089,-478.638,-474.671,0,0,0,
,0.451,-0.954,0.517,-248.78,-573.67,-562.195,0,0,0,
,0.357,-1.007,0.414,-283.936,-575.379,-600.037,0,0,0,
,0.307,-1.105,0.247,-407.044,-588.074,-682.801,0,0,0,
,0.263,-1.102,0.148,-680.909,-589.356,-737.244,0,0,0,
,0.181,-0.903,0.118,-908.57,-652.832,-827.759,0,0,0,
,0.057,-0.625,0.293,-1015.137,-675.477,-768.25,0,0,0,
,-0.119,-0.421,0.346,-972.291,-611.573,-686.28,0,0,0,
,-0.164,-0.444,0.305,-880.433,-522.644,-595.643,0,0,0,
,-0.102,-0.667,0.422,-1087.83,-490.784,-537.903,0,0,0,
,-0.058,-0.6,0.557,-1609.803,-549.805,-426.209,0,0,0,
,-0.157,-0.352,0.651,-2000,-631.714,-394.104,0,0,0,
,-0.052,0.151,0.583,-2000,-915.833,-312.867,0,0,0,
,-0.08,0.412,0.845,-2000,-1033.692,-316.285,0,0,0,
,-0.122,0.423,0.938,-1995.179,-918.213,-294.312,0,0,0,
,-0.156,0.243,0.775,-1731.873,-783.326,-239.075,0,0,0,
,-0.109,0.193,0.642,-1571.717,-672.547,-173.34,0,0,0,
,-0.21,0.099,0.779,-1532.837,-562.439,-221.009,0,0,0,
,-0.17,0.067,0.655,-1601.136,-459.473,-180.298,0,0,0,
,-0.225,0.047,0.816,-1590.821,-369.08,-120.85,0,0,0,
,-0.113,0.289,0.821,-1205.994,-304.322,-99.61,0,0,0,
,-0.219,-0.005,0.721,-867.615,-177.796,-116.822,0,0,0,
,-0.271,0.007,0.661,-780.396,-109.009,-113.831,0,0,0,
,-0.314,0.161,0.678,-737.977,-36.255,-85.877,0,0,0,
,-0.327,0.296,0.799,-566.712,46.508,-79.895,0,0,0,
,-0.354,0.298,0.898,-510.56,146.118,-58.35,0,0,0,
,-0.385,0.381,1.009,-304.261,205.322,-21.607,0,0,0,
,-0.39,0.392,1.04,-155.518,249.023,32.348,0,0,0,
,-0.413,0.332,1.057,-101.38,232.788,8.239,0,0,0,
,-0.433,0.404,1.121,-193.665,209.777,-40.772,0,0,0,
,-0.464,0.436,1.252,-212.525,207.031,-53.956,0,0,0,
,-0.448,0.468,1.202,-161.988,200.744,-39.49,0,0,0,
,-0.433,0.449,1.175,-102.662,187.011,8.422,0,0,0,
,-0.406,0.52,1.149,26.123,167.907,57.922,0,0,0,
,-0.38,0.58,1.181,62.622,144.287,75.256,0,0,0,
,-0.384,0.33,1.172,73.913,75.317,9.216,0,0,0,
,-0.38,0.638,1.26,231.14,76.843,158.142,0,0,0,
,-0.364,0.484,1.047,134.887,77.758,164.001,0,0,0,
,-0.312,0.413,1.018,-7.019,30.029,106.384,0,0,0,
,-0.272,0.325,0.956,-15.32,-30.945,63.293,0,0,0,
,-0.264,0.38,1.011,33.813,-74.28,65.795,0,0,0,
,-0.279,0.318,1.017,-8.24,-65.857,67.565,0,0,0,
,-0.256,0.264,0.947,5.432,-53.101,64.941,0,0,0,
,-0.247,0.234,0.921,52.856,-54.627,58.105,0,0,0,
,-0.249,0.287,0.92,69.58,-65.735,41.198,0,0,0,
,-0.255,0.261,0.895,13.122,-62.623,8.972,0,0,0,
,-0.265,0.276,0.904,-11.536,-74.585,0.366,0,0,0,
,-0.267,0.3,0.91,1.953,-68.299,13.549,0,0,0,
,-0.279,0.294,0.886,-5.982,-56.397,11.169,0,0,0,
,-0.271,0.314,0.849,10.009,-50.782,-1.221,0,0,0,
,-0.282,0.31,0.865,20.08,-51.758,-10.193,0,0,0,
,-0.282,0.344,0.884,-15.564,-45.105,-17.884,0,0,0,
,-0.3,0.322,0.889,-30.274,-36.988,-21.729,0,0,0,
,-0.299,0.327,0.892,-13.733,-18.006,-13.733,0,0,0,
,-0.286,0.32,0.885,-2.503,-10.132,-14.771,0,0,0,
,-0.29,0.292,0.889,-35.645,-7.691,-20.813,0,0,0,
,-0.292,0.307,0.894,-44.19,-6.775,-19.532,0,0,0,
,-0.292,0.324,0.901,-31.8,-0.794,-16.724,0,0,0,
,-0.294,0.329,0.903,-9.766,3.784,-14.405,0,0,0,
,-0.284,0.329,0.877,-8.606,10.009,-11.048,0,0,0,
,-0.288,0.332,0.88,-15.564,3.112,-13.489,0,0,0,
,-0.282,0.332,0.879,-13.123,1.892,-9.644,0,0,0,
,-0.294,0.321,0.897,-35.279,-12.94,-13.916,0,0,0,
,-0.31,0.326,0.896,-22.583,-10.743,-5.066,0,0,0,
,-0.31,0.338,0.89,27.526,-1.404,-0.306,0,0,0,
,-0.316,0.31,0.882,55.786,4.821,3.356,0,0,0,
,-0.308,0.311,0.881,56.457,12.451,6.713,0,0,0,
,-0.303,0.31,0.888,52.917,7.568,-1.343,0,0,0,
,-0.308,0.313,0.906,33.813,8.667,-7.264,0,0,0,
,-0.311,0.315,0.909,24.292,9.582,-7.691,0,0,0,
,-0.308,0.318,0.895,17.761,9.521,-7.386,0,0,0,
,-0.306,0.307,0.894,25.817,12.146,-4.334,0,0,0,
,-0.3,0.319,0.876,30.883,21.606,-3.907,0,0,0,
,-0.292,0.329,0.897,-19.532,14.282,-26.734,0,0,0,
,-0.292,0.33,0.906,-22.767,17.578,-29.541,0,0,0,
,-0.295,0.331,0.897,-21.729,26.184,-28.626,0,0,0,
,-0.295,0.327,0.897,10.192,42.053,-21.729,0,0,0,
,-0.28,0.312,0.875,19.714,52.368,-29.236,0,0,0,
,-0.279,0.292,0.884,-19.959,40.039,-48.035,0,0,0,
,-0.278,0.332,0.907,-24.72,26.672,-53.589,0,0,0,
,-0.292,0.322,0.925,-46.57,26.306,-56.336,0,0,0,
,-0.289,0.334,0.917,-35.157,32.714,-49.134,0,0,0,
,-0.293,0.316,0.904,2.38,44.555,-35.523,0,0,0,
,-0.284,0.311,0.894,29.235,49.011,-21.851,0,0,0,
,-0.272,0.307,0.871,39.917,49.743,-22.034,0,0,0,
,-0.267,0.308,0.876,31.25,43.09,-21.119,0,0,0,
,-0.282,0.334,0.904,24.597,34.423,-15.198,0,0,0,
,-0.284,0.35,0.904,31.799,34.851,-11.78,0,0,0,
,-0.297,0.344,0.92,27.099,38.208,-9.217,0,0,0,
,-0.294,0.341,0.919,25.817,42.846,-5.433,0,0,0,
,-0.292,0.326,0.927,14.221,41.748,-4.822,0,0,0,
,-0.284,0.338,0.913,5.004,29.724,-11.597,0,0,0,
,-0.284,0.337,0.931,-12.207,24.231,-20.386,0,0,0,
,-0.297,0.33,0.941,-18.433,16.418,-20.935,0,0,0,
,-0.302,0.343,0.958,-5.86,22.522,-18.921,0,0,0,
,-0.303,0.322,0.972,37.963,30.334,-7.264,0,0,0,
,-0.308,0.325,1.006,64.758,36.254,-2.442,0,0,0,
,-0.305,0.309,1.012,117.736,34.851,3.112,0,0,0,
,-0.308,0.31,1.058,159.301,33.752,5.004,0,0,0,
,-0.308,0.3,1.104,260.864,47.424,21.85,0,0,0,
,-0.318,0.3,1.167,392.395,85.754,25.329,0,0,0,
,-0.325,0.263,1.211,505.798,124.817,28.93,0,0,0,
,-0.304,0.29,1.164,590.515,142.151,22.522,0,0,0,
,-0.28,0.246,1.161,621.276,127.685,22.888,0,0,0,
,-0.268,0.271,1.165,598.144,95.947,-19.532,0,0,0,
,-0.261,0.23,1.194,563.476,81.909,-38.697,0,0,0,
,-0.286,0.184,1.228,570.556,108.764,-43.946,0,0,0,
,-0.291,0.19,1.244,635.07,164.795,-15.381,0,0,0,
,-0.288,0.234,1.206,780.212,232.238,22.705,0,0,0,
,-0.248,0.257,1.149,979.858,277.771,21.362,0,0,0,
,-0.216,0.157,1.077,1210.144,315.124,6.836,0,0,0,
,-0.202,0.112,1.039,1352.905,330.871,16.174,0,0,0,
,-0.191,0.067,0.954,1425.476,337.158,3.845,0,0,0,
,-0.193,0.004,0.975,1439.392,327.27,-21.302,0,0,0,
,-0.201,0.005,0.862,1470.642,333.313,0.122,0,0,0,
,-0.177,0.052,0.76,1412.78,291.748,-5.982,0,0,0,
,-0.144,-0.128,0.787,1468.261,270.202,-31.067,0,0,0,
,-0.154,-0.339,0.791,1298.584,242.492,17.578,0,0,0,
,-0.159,-0.385,0.789,1035.339,234.619,51.025,0,0,0,
,-0.135,-0.3,0.725,1040.1,213.195,164.611,0,0,0,
,-0.109,-0.219,0.757,1199.951,168.884,216.674,0,0,0,
,-0.079,-0.477,0.717,1459.594,216.491,211.853,0,0,0,
,-0.05,-0.641,0.636,1375.122,207.58,252.929,0,0,0,
,-0.046,-0.719,0.683,1134.033,184.814,367.37,0,0,0,
,-0.042,-0.622,0.478,850.463,196.167,355.163,0,0,0,
,0.021,-0.734,0.527,630.981,167.663,323.12,0,0,0,
,0.019,-0.785,0.533,363.098,136.963,352.417,0,0,0,
,0.005,-0.688,0.596,190.368,152.832,363.647,0,0,0,
,0.048,-0.674,0.526,356.811,216.613,391.052,0,0,0,
,0.077,-0.804,0.514,294.128,204.895,382.385,0,0,0,
,0.05,-0.792,0.547,167.663,188.171,381.286,0,0,0,
,0.028,-0.741,0.574,108.337,215.759,364.807,0,0,0,
,0.07,-0.741,0.563,120.239,235.901,362.671,0,0,0,
,0.112,-0.823,0.633,17.089,217.773,242.553,0,0,0,
,0.115,-0.786,0.631,36.56,225.219,230.224,0,0,0,
,0.121,-0.8,0.636,75.5,239.502,228.515,0,0,0,
,0.127,-0.832,0.618,68.969,242.37,212.829,0,0,0,
,0.137,-0.856,0.628,31.189,239.38,205.139,0,0,0,
,0.158,-0.872,0.618,-0.245,246.276,205.444,0,0,0,
,0.182,-0.909,0.633,-46.57,245.91,182.006,0,0,0,
,0.188,-0.889,0.644,-75.928,258.056,178.772,0,0,0,
,0.22,-0.909,0.666,-132.081,267.151,179.687,0,0,0,
,0.239,-0.906,0.67,-204.285,254.516,186.279,0,0,0,
,0.261,-0.89,0.668,-268.555,243.347,179.26,0,0,0,
,0.289,-0.905,0.666,-342.347,222.046,179.26,0,0,0,
,0.293,-0.841,0.675,-396.973,203.369,182.861,0,0,0,
,0.351,-0.712,0.667,-517.823,201.049,222.473,0,0,0,
,0.368,-0.651,0.675,-532.288,195.434,235.778,0,0,0,
,0.409,-0.614,0.676,-492.676,205.017,223.022,0,0,0,
,0.417,-0.607,0.667,-486.756,187.439,225.036,0,0,0,
,0.409,-0.563,0.651,-490.235,169.067,222.778,0,0,0,
,0.372,-0.496,0.751,-442.505,165.283,229.004,0,0,0,
,0.4,-0.319,0.716,-289.063,226.135,192.016,0,0,0,
,0.463,-0.503,0.7,-329.956,189.636,186.706,0,0,0,
,0.439,-0.493,0.755,-252.076,107.666,147.705,0,0,0,
,0.428,-0.517,0.722,-204.834,133.3,132.202,0,0,0,
,0.462,-0.53,0.678,-233.948,120.849,146.179,0,0,0,
,0.46,-0.415,0.675,-271.912,115.295,140.686,0,0,0,
,0.464,-0.359,0.689,-261.475,122.07,133.911,0,0,0,
,0.503,-0.36,0.713,-214.539,144.226,122.375,0,0,0,
,0.521,-0.36,0.711,-183.655,139.587,118.164,0,0,0,
,0.519,-0.331,0.71,-164.185,128.784,104.797,0,0,0,
,0.518,-0.302,0.703,-139.527,119.506,94.97,0,0,0,
,0.513,-0.257,0.693,-102.784,109.192,83.557,0,0,0,
,0.525,-0.252,0.651,-25.208,104.736,62.744,0,0,0,
,0.538,-0.281,0.634,-4.456,97.656,56.335,0,0,0,
,0.55,-0.269,0.648,20.568,98.266,44.677,0,0,0,
,0.564,-0.307,0.644,40.161,102.295,28.015,0,0,0,
,0.575,-0.311,0.655,10.925,77.392,26.733,0,0,0,
,0.596,-0.297,0.678,17.883,69.946,9.338,0,0,0,
,0.596,-0.29,0.711,30.822,44.921,9.521,0,0,0,
,0.618,-0.291,0.742,64.148,64.697,-1.831,0,0,0,
,0.702,-0.47,0.744,46.508,21.301,5.554,0,0,0,
,0.573,-0.198,0.822,-47.12,-39.185,83.74,0,0,0,
,0.714,-0.11,0.776,3.173,77.27,54.809,0,0,0,
,0.686,-0.346,0.794,127.563,-38.819,25.756,0,0,0,
,0.682,-0.272,0.796,196.899,26.55,-10.193,0,0,0,
,0.695,-0.366,0.757,235.107,-36.56,-33.997,0,0,0,
,0.629,-0.388,0.696,251.159,-24.72,-57.984,0,0,0,
,0.577,-0.478,0.56,277.771,-10.804,-81.91,0,0,0,
,0.6,-0.568,0.556,105.407,-31.373,-74.646,0,0,0,
,0.515,-0.391,0.657,69.702,-92.225,-87.952,0,0,0,
,0.451,-0.436,0.64,113.281,-14.588,-102.234,0,0,0,
,0.435,-0.353,0.715,83.068,-24.842,-68.177,0,0,0,
,0.395,-0.312,0.716,202.453,28.015,-103.089,0,0,0,
,0.429,-0.318,0.724,229.004,21.728,-90.088,0,0,0,
,0.42,-0.41,0.676,295.227,23.437,-118.103,0,0,0,
,0.433,-0.46,0.643,306.396,3.723,-135.01,0,0,0,
,0.417,-0.49,0.648,286.743,-13.611,-142.823,0,0,0,
,0.453,-0.499,0.622,308.715,3.662,-163.086,0,0,0,
,0.476,-0.541,0.645,315.918,-15.809,-196.106,0,0,0,
,0.471,-0.552,0.637,322.815,-23.987,-226.502,0,0,0,
,0.492,-0.555,0.668,314.941,-29.786,-245.362,0,0,0,
,0.479,-0.584,0.647,343.322,-26.429,-252.198,0,0,0,
,0.488,-0.567,0.645,340.393,-34.241,-272.4,0,0,0,
,0.467,-0.596,0.624,363.342,-35.096,-285.889,0,0,0,
,0.469,-0.656,0.612,330.139,-16.358,-301.27,0,0,0,
,0.468,-0.615,0.635,310.974,-9.339,-280.823,0,0,0,
,0.478,-0.629,0.621,330.81,8.972,-270.081,0,0,0,
,0.485,-0.671,0.605,328.918,10.376,-260.682,0,0,0,
,0.467,-0.702,0.584,284.179,1.281,-261.048,0,0,0,
,0.462,-0.668,0.588,236.328,-8.973,-261.231,0,0,0,
,0.451,-0.711,0.581,224.426,1.403,-245.972,0,0,0,
,0.451,-0.757,0.543,147.277,-18.799,-233.277,0,0,0,
,0.422,-0.729,0.588,79.711,-60.242,-194.458,0,0,0,
,0.377,-0.703,0.552,58.532,-63.294,-175.66,0,0,0,
,0.344,-0.682,0.553,49.926,-65.613,-160.645,0,0,0,
,0.329,-0.662,0.543,97.778,-30.457,-136.719,0,0,0,
,0.348,-0.689,0.506,129.699,-3.052,-154.358,0,0,0,
,0.368,-0.697,0.579,154.358,-6.714,-156.373,0,0,0,
,0.346,-0.695,0.59,176.696,6.408,-137.94,0,0,0,
,0.374,-0.727,0.626,192.566,52.063,-140.198,0,0,0,
,0.427,-0.772,0.625,196.106,55.969,-123.352,0,0,0,
,0.458,-0.785,0.616,152.71,33.02,-134.705,0,0,0,
,0.447,-0.768,0.631,151.428,6.53,-119.141,0,0,0,
,0.451,-0.795,0.641,152.526,29.357,-130.433,0,0,0,
,0.475,-0.801,0.629,142.517,26.489,-110.535,0,0,0,
,0.467,-0.789,0.622,112.182,-18.616,-116.028,0,0,0,
,0.425,-0.758,0.593,114.868,-25.513,-109.009,0,0,0,
,0.419,-0.796,0.573,93.872,-18.25,-102.478,0,0,0,
,0.421,-0.761,0.556,76.049,-5.249,-63.233,0,0,0,
,0.425,-0.769,0.538,82.641,4.943,-67.505,0,0,0,
,0.427,-0.812,0.61,79.711,-3.479,-37.415,0,0,0,
,0.444,-0.724,0.601,21.423,8.911,-35.035,0,0,0,
,0.478,-0.779,0.576,97.168,-0.672,-60.486,0,0,0,
,0.432,-0.849,0.523,80.261,-43.213,-66.529,0,0,0,
,0.377,-0.833,0.502,-1.831,-45.411,-63.965,0,0,0,
,0.373,-0.768,0.529,14.953,4.333,-53.711,0,0,0,
,0.418,-0.826,0.55,59.265,50.415,-67.017,0,0,0,
,0.432,-0.774,0.529,111.328,44.006,-86.609,0,0,0,
,0.411,-0.867,0.51,111.999,15.014,-106.385,0,0,0,
,0.376,-0.877,0.469,52.856,-0.489,-118.531,0,0,0,
,0.368,-0.849,0.449,-16.541,-5.982,-129.7,0,0,0,
,0.35,-0.79,0.469,-52.063,-32.288,-144.715,0,0,0,
,0.329,-0.728,0.5,-38.819,-19.349,-130.005,0,0,0,
,0.308,-0.707,0.513,87.829,19.714,-116.211,0,0,0,
,0.298,-0.701,0.523,114.685,23.071,-96.985,0,0,0,
,0.289,-0.702,0.537,176.757,46.814,-90.088,0,0,0,
,0.285,-0.771,0.556,209.838,65.063,-68.238,0,0,0,
,0.293,-0.798,0.561,193.054,100.83,-39.185,0,0,0,
,0.321,-0.795,0.631,235.107,104.37,-55.115,0,0,0,
,0.417,-0.902,0.588,373.352,138.794,-153.992,0,0,0,
,0.371,-0.849,0.616,349.731,-11.963,-73.731,0,0,0,
,0.273,-0.915,0.505,349.975,29.846,-81.665,0,0,0,
,0.345,-1.001,0.429,327.453,71.716,-122.071,0,0,0,
,0.372,-0.993,0.423,217.224,-33.57,-117.676,0,0,0,
,0.307,-0.907,0.432,139.465,-75.379,-110.596,0,0,0,
,0.293,-0.875,0.414,169.616,-26.123,-113.587,0,0,0,
,0.305,-0.875,0.392,193.298,-2.137,-112.366,0,0,0,
,0.281,-0.828,0.391,275.085,30.09,-61.585,0,0,0,
,0.291,-0.875,0.369,263.488,55.297,-48.34,0,0,0,
,0.331,-0.904,0.378,228.454,55.175,-55.97,0,0,0,
,0.338,-0.93,0.382,156.494,-4.578,-56.336,0,0,0,
,0.326,-0.942,0.4,144.714,-2.747,-60.669,0,0,0,
,0.332,-0.938,0.372,120.971,-3.907,-50.965,0,0,0,
,0.349,-0.986,0.366,80.566,-18.372,-61.707,0,0,0,
,0.337,-0.961,0.383,32.47,-58.96,-58.045,0,0,0,
,0.3,-0.921,0.36,9.521,-75.318,-64.576,0,0,0,
,0.285,-0.914,0.352,20.385,-55.176,-76.6,0,0,0,
,0.286,-0.905,0.357,29.174,-57.557,-33.753,0,0,0,
,0.294,-0.922,0.357,22.338,-35.767,-51.148,0,0,0,
,0.311,-0.915,0.324,14.648,-28.565,-28.199,0,0,0,
,0.338,-0.961,0.334,0.854,-28.931,-58.289,0,0,0,
,0.37,-0.991,0.306,-62.989,-43.091,-72.205,0,0,0,
,0.406,-1.024,0.34,-151.246,-66.468,-119.812,0,0,0,
,0.435,-1.032,0.425,-197.815,-124.756,-188.355,0,0,0,
,0.424,-1.144,0.541,-205.079,-138.489,-238.648,0,0,0,
,0.432,-1.174,0.622,-276.49,-178.101,-255.616,0,0,0,
,0.454,-1.114,0.57,-316.04,-240.174,-337.769,0,0,0,
,0.443,-1.143,0.489,-315.979,-349.122,-453.003,0,0,0,
,0.363,-1.099,0.41,-350.647,-445.435,-559.021,0,0,0,
,0.274,-1.046,0.329,-395.142,-511.292,-618.042,0,0,0,
,0.172,-1.051,0.25,-487.244,-501.648,-668.641,0,0,0,
,0.112,-0.994,0.129,-709.961,-427.918,-681.702,0,0,0,
,0.119,-1.033,0.114,-1004.273,-385.56,-706.116,0,0,0,
,0.072,-1.012,0.168,-1403.016,-379.822,-690.247,0,0,0,
,0.048,-0.812,0.33,-1659.791,-415.101,-666.199,0,0,0,
,0.035,-0.49,0.687,-1475.281,-423.768,-657.532,0,0,0,
,0.004,-0.401,0.625,-1007.996,-458.985,-606.446,0,0,0,
,-0.042,-0.547,0.53,-827.637,-537.415,-574.463,0,0,0,
,-0.076,-0.768,0.464,-1156.312,-644.715,-500,0,0,0,
,-0.103,-0.665,0.388,-1925.11,-856.995,-411.072,0,0,0,
,-0.225,-0.226,0.436,-2000,-1060.73,-338.746,0,0,0,
,-0.32,0.192,0.402,-2000,-1201.416,-329.59,0,0,0,
,-0.448,0.465,0.549,-2000,-1086.365,-325.135,0,0,0,
,-0.408,0.535,0.641,-2000,-949.585,-286.438,0,0,0,
,-0.41,0.492,0.579,-2000,-831.543,-206.177,0,0,0,
,-0.421,0.453,0.727,-2000,-656.617,-137.635,0,0,0,
,-0.302,0.258,0.514,-1977.906,-569.214,-75.501,0,0,0,
,-0.408,0.391,0.636,-1989.991,-471.009,-63.05,0,0,0,
,-0.405,0.599,0.794,-1671.021,-345.765,-92.408,0,0,0,
,-0.404,0.411,0.82,-1218.506,-164.368,-38.514,0,0,0,
,-0.438,0.286,0.868,-763.977,31.25,32.836,0,0,0,
,-0.443,0.243,0.84,-404.114,157.837,100.28,0,0,0,
,-0.465,0.192,0.952,-258.118,219.665,102.356,0,0,0,
,-0.501,0.222,1.008,-79.041,279.846,87.829,0,0,0,
,-0.564,0.187,1.108,-52.491,331.848,86.486,0,0,0,
,-0.533,0.405,1.05,159.729,323.364,100.341,0,0,0,
,-0.484,0.38,1.026,107.788,273.742,45.959,0,0,0,
,-0.513,0.26,1.01,-37.598,273.193,-18.433,0,0,0,
,-0.53,0.293,1.171,59.997,168.274,-32.837,0,0,0,
,-0.59,0.524,1.179,94.604,136.596,38.33,0,0,0,
,-0.54,0.458,0.999,111.816,121.704,71.655,0,0,0,
,-0.484,0.446,0.99,114.441,82.519,80.871,0,0,0,
,-0.453,0.455,1.024,164.184,41.626,88.623,0,0,0,
,-0.468,0.391,1.042,106.262,4.516,78.552,0,0,0,
,-0.445,0.362,0.963,90.698,-9.705,63.232,0,0,0,
,-0.46,0.289,0.96,119.567,-21.607,51.33,0,0,0,
,-0.416,0.313,0.924,152.954,-35.035,44.311,0,0,0,
,-0.412,0.272,0.934,107.91,-57.74,19.409,0,0,0,
,-0.398,0.279,0.898,70.373,-77.21,-14.405,0,0,0,
,-0.4,0.228,0.93,29.296,-90.394,-33.753,0,0,0,
,-0.399,0.225,0.921,35.949,-80.872,-36.683,0,0,0,
,-0.389,0.206,0.894,41.381,-63.233,-42.542,0,0,0,
,-0.377,0.199,0.86,70.678,-44.19,-44.861,0,0,0,
,-0.352,0.211,0.814,68.603,-47.242,-57.74,0,0,0,
,-0.373,0.218,0.853,31.005,-52.308,-74.402,0,0,0,
,-0.375,0.24,0.843,30.029,-36.988,-74.769,0,0,0,
,-0.376,0.258,0.852,32.043,-30.823,-76.783,0,0,0,
,-0.38,0.269,0.854,52.002,-17.884,-63.538,0,0,0,
,-0.388,0.269,0.87,37.475,1.464,-62.623,0,0,0,
,-0.375,0.25,0.824,25.756,3.234,-66.224,0,0,0,
,-0.384,0.267,0.843,8.422,-8.789,-70.374,0,0,0,
,-0.388,0.31,0.854,5.737,-1.343,-66.468,0,0,0,
,-0.396,0.286,0.867,-18.799,5.249,-67.261,0,0,0,
,-0.397,0.299,0.862,24.414,16.357,-50.599,0,0,0,
,-0.386,0.292,0.86,46.936,24.78,-43.274,0,0,0,
,-0.389,0.264,0.86,40.283,26.611,-44.8,0,0,0,
,-0.409,0.276,0.885,12.146,23.681,-38.392,0,0,0,
,-0.409,0.273,0.874,25.817,31.738,-30.884,0,0,0,
,-0.416,0.263,0.886,21.545,43.029,-28.26,0,0,0,
,-0.414,0.278,0.871,23.437,47.607,-26.673,0,0,0,
,-0.413,0.275,0.879,28.015,46.447,-24.598,0,0,0,
,-0.404,0.309,0.872,55.297,48.889,-20.081,0,0,0,
,-0.403,0.253,0.89,20.202,43.518,-13.001,0,0,0,
,-0.393,0.264,0.875,32.104,46.447,-15.076,0,0,0,
,-0.396,0.245,0.9,30.151,41.565,-17.823,0,0,0,
,-0.393,0.258,0.907,34.545,41.809,-14.1,0,0,0,
,-0.397,0.238,0.907,20.752,36.254,-17.884,0,0,0,
,-0.394,0.247,0.911,20.874,37.231,-17.945,0,0,0,
,-0.391,0.24,0.908,2.38,25.695,-32.044,0,0,0,
,-0.399,0.25,0.911,-1.709,30.944,-33.448,0,0,0,
,-0.39,0.261,0.894,-3.602,36.621,-30.152,0,0,0,
,-0.392,0.258,0.891,1.098,31.982,-30.762,0,0,0,
,-0.389,0.242,0.898,-11.109,42.175,-24.109,0,0,0,
,-0.383,0.254,0.884,6.225,47.363,-19.043,0,0,0,
,-0.392,0.236,0.911,33.081,63.293,-8.179,0,0,0,
,-0.383,0.243,0.89,57.067,67.993,-6.653,0,0,0,
,-0.383,0.221,0.931,69.58,75.317,-15.625,0,0,0,
,-0.393,0.218,1.006,131.958,94.543,-9.888,0,0,0,
,-0.382,0.2,1.032,203.613,135.803,5.065,0,0,0,
,-0.4,0.208,1.069,192.077,144.897,-0.611,0,0,0,
,-0.425,0.235,1.13,195.861,171.936,2.38,0,0,0,
,-0.391,0.326,1.092,286.01,166.442,8.667,0,0,0,
,-0.379,0.255,1.094,310.119,96.069,-0.611,0,0,0,
,-0.39,0.226,1.154,230.957,90.026,-16.236,0,0,0,
,-0.365,0.238,1.088,179.687,72.692,-4.456,0,0,0,
,-0.371,0.202,1.091,130.188,34.851,1.281,0,0,0,
,-0.34,0.263,0.95,158.203,-3.724,-17.884,0,0,0,
,-0.329,0.236,0.983,147.338,-55.848,-26.551,0,0,0,
,-0.337,0.204,0.942,80.017,-67.627,-58.533,0,0,0,
,-0.342,0.197,0.977,76.416,-63.721,-47.425,0,0,0,
,-0.335,0.178,0.96,176.269,-40.528,-38.575,0,0,0,
,-0.338,0.198,0.977,269.165,-14.954,-0.306,0,0,0,
,-0.348,0.202,0.956,345.153,33.447,-14.527,0,0,0,
,-0.353,0.187,1.027,432.006,71.35,-15.992,0,0,0,
,-0.361,0.223,1.044,546.936,116.394,-23.804,0,0,0,
,-0.396,0.202,1.041,660.4,184.448,-31.495,0,0,0,
,-0.379,0.179,0.999,827.758,237.732,-22.522,0,0,0,
,-0.387,0.137,1.026,922.973,292.541,-19.959,0,0,0,
,-0.384,0.119,1.03,963.44,358.032,-61.951,0,0,0,
,-0.375,0.119,0.991,1068.786,419.189,-99.915,0,0,0,
,-0.347,0.088,1.014,1229.98,475.525,-89.112,0,0,0,
,-0.335,-0.032,1.011,1365.112,500.61,-91.004,0,0,0,
,-0.319,-0.097,0.985,1431.03,519.653,-50.415,0,0,0,
,-0.283,-0.195,0.914,1487.487,530.944,0.488,0,0,0,
,-0.2,-0.407,0.991,1443.42,449.279,81.787,0,0,0,
,-0.197,-0.494,0.949,1286.682,406.982,136.657,0,0,0,
,-0.211,-0.459,0.88,1098.632,375.305,177.49,0,0,0,
,-0.186,-0.43,0.784,1019.043,384.704,227.234,0,0,0,
,-0.144,-0.558,0.687,975.525,358.154,251.648,0,0,0,
,-0.13,-0.642,0.659,808.471,350.525,289.672,0,0,0,
,-0.16,-0.63,0.641,685.485,364.868,338.379,0,0,0,
,-0.17,-0.655,0.604,559.082,419.433,420.593,0,0,0,
,-0.109,-0.612,0.607,476.135,460.693,465.454,0,0,0,
,-0.042,-0.652,0.564,427.429,481.872,482.238,0,0,0,
,0.008,-0.741,0.494,294.189,456.482,467.529,0,0,0,
,0.016,-0.767,0.553,116.333,406.677,448.242,0,0,0,
,-0.003,-0.684,0.654,9.826,400.695,445.922,0,0,0,
,0.037,-0.661,0.651,-29.602,407.226,441.833,0,0,0,
,0.086,-0.619,0.673,-26.795,409.851,455.81,0,0,0,
,0.134,-0.663,0.641,-24.537,410.034,439.941,0,0,0,
,0.209,-0.703,0.614,-88.99,390.869,404.48,0,0,0,
,0.271,-0.732,0.644,-189.087,322.876,333.923,0,0,0,
,0.245,-0.748,0.707,-272.583,288.696,300.415,0,0,0,
,0.283,-0.657,0.719,-301.575,287.841,256.225,0,0,0,
,0.283,-0.567,0.762,-305.237,241.272,222.778,0,0,0,
,0.309,-0.539,0.765,-289.246,222.961,197.754,0,0,0,
,0.356,-0.489,0.772,-235.657,203.857,157.348,0,0,0,
,0.368,-0.511,0.769,-163.88,135.009,136.535,0,0,0,
,0.339,-0.535,0.764,-118.836,78.43,99.975,0,0,0,
,0.346,-0.543,0.752,-124.817,83.557,77.331,0,0,0,
,0.359,-0.502,0.747,-99.61,60.974,57.251,0,0,0,
,0.341,-0.494,0.707,-55.542,31.982,20.141,0,0,0,
,0.323,-0.559,0.692,-24.414,-20.264,8.3,0,0,0,
,0.257,-0.5,0.719,-32.532,-40.833,6.347,0,0,0,
,0.255,-0.509,0.709,-3.785,7.385,11.596,0,0,0,
,0.269,-0.547,0.711,19.897,18.127,22.522,0,0,0,
,0.271,-0.561,0.719,12.268,31.189,16.357,0,0,0,
,0.28,-0.596,0.712,12.756,32.47,20.263,0,0,0,
,0.286,-0.591,0.725,-38.758,37.231,38.269,0,0,0,
,0.287,-0.565,0.732,-55.848,34.545,43.335,0,0,0,
,0.281,-0.598,0.726,-83.008,48.034,51.879,0,0,0,
,0.294,-0.554,0.735,-142.884,52.978,74.218,0,0,0,
,0.324,-0.491,0.757,-136.231,59.753,88.012,0,0,0,
,0.324,-0.551,0.748,-135.804,61.523,113.647,0,0,0,
,0.325,-0.517,0.748,-186.89,66.162,129.821,0,0,0,
,0.338,-0.484,0.756,-188.965,72.692,135.62,0,0,0,
,0.335,-0.512,0.761,-210.022,76.294,150.94,0,0,0,
,0.343,-0.435,0.781,-223.816,84.533,164.489,0,0,0,
,0.375,-0.462,0.754,-185.303,112.121,163.94,0,0,0,
,0.384,-0.437,0.781,-193.055,110.717,162.597,0,0,0,
,0.395,-0.415,0.773,-166.748,126.892,153.991,0,0,0,
,0.413,-0.457,0.771,-154.053,122.68,136.474,0,0,0,
,0.415,-0.427,0.786,-171.448,123.413,132.08,0,0,0,
,0.425,-0.36,0.809,-156.006,111.206,121.521,0,0,0,
,0.418,-0.427,0.804,-120.362,122.07,106.445,0,0,0,
,0.441,-0.401,0.797,-129.944,121.643,88.745,0,0,0,
,0.44,-0.372,0.794,-112.61,100.891,66.894,0,0,0,
,0.435,-0.411,0.779,-104.248,98.571,44.616,0,0,0,
,0.424,-0.368,0.783,-111.451,101.44,33.752,0,0,0,
,0.421,-0.34,0.796,-90.394,110.107,22.033,0,0,0,
,0.432,-0.406,0.843,-81.116,110.778,17.334,0,0,0,
,0.472,-0.253,0.886,-12.879,116.638,14.282,0,0,0,
,0.506,-0.235,0.864,-10.682,72.631,-20.264,0,0,0,
,0.444,-0.44,0.821,75.988,70.434,-50.599,0,0,0,
,0.479,-0.456,0.756,84.838,78.002,-53.528,0,0,0,
,0.468,-0.408,0.766,-13.123,30.578,-33.875,0,0,0,
,0.463,-0.396,0.764,-12.94,43.518,-43.885,0,0,0,
,0.464,-0.416,0.756,-23.438,30.395,-50.599,0,0,0,
,0.448,-0.346,0.778,-55.664,30.273,-44.8,0,0,0,
,0.46,-0.322,0.824,-34.974,34.729,-23.133,0,0,0,
,0.469,-0.352,0.806,36.865,66.101,-37.903,0,0,0,
,0.471,-0.327,0.802,39.917,51.086,-36.805,0,0,0,
,0.468,-0.407,0.777,58.288,54.565,-35.279,0,0,0,
,0.477,-0.401,0.764,33.935,52.124,-27.894,0,0,0,
,0.497,-0.392,0.758,14.16,57.312,-31.617,0,0,0,
,0.498,-0.405,0.793,1.342,44.616,-42.237,0,0,0,
,0.469,-0.294,0.806,18.432,52.307,-48.096,0,0,0,
,0.478,-0.37,0.82,43.945,54.26,-50.354,0,0,0,
,0.436,-0.299,0.803,68.115,53.222,-52.857,0,0,0,
,0.449,-0.35,0.803,91.43,69.458,-35.645,0,0,0,
,0.447,-0.284,0.797,89.111,51.208,-20.569,0,0,0,
,0.468,-0.355,0.795,123.657,54.443,-20.325,0,0,0,
,0.48,-0.318,0.788,147.216,35.522,-26.612,0,0,0,
,0.48,-0.369,0.777,192.199,33.752,-36.072,0,0,0,
,0.482,-0.41,0.722,200.744,29.846,-59.876,0,0,0,
,0.461,-0.423,0.718,200.927,12.817,-69.703,0,0,0,
,0.441,-0.45,0.709,191.101,28.991,-62.684,0,0,0,
,0.447,-0.451,0.719,235.046,71.106,-98.511,0,0,0,
,0.458,-0.436,0.726,253.234,65.49,-111.817,0,0,0,
,0.444,-0.502,0.693,276.367,69.336,-124.939,0,0,0,
,0.451,-0.495,0.678,239.868,60.73,-121.705,0,0,0,
,0.434,-0.51,0.663,227.6,63.659,-123.902,0,0,0,
,0.432,-0.545,0.658,165.893,67.443,-115.845,0,0,0,
,0.444,-0.479,0.674,126.953,59.753,-119.324,0,0,0,
,0.436,-0.492,0.68,132.446,44.433,-124.024,0,0,0,
,0.438,-0.514,0.664,104.675,46.936,-121.521,0,0,0,
,0.464,-0.448,0.694,100.586,31.311,-125.428,0,0,0,
,0.553,-0.664,0.752,161.682,83.679,-88.929,0,0,0,
,0.642,-0.313,0.886,-16.724,-11.17,-44.983,0,0,0,
,0.592,-0.497,0.8,107.788,-56.946,-123.475,0,0,0,
,0.567,-0.425,0.809,82.702,-112.244,-130.616,0,0,0,
,0.54,-0.409,0.758,164.672,-130.433,-161.438,0,0,0,
,0.511,-0.513,0.724,218.933,-138.672,-151.49,0,0,0,
,0.502,-0.502,0.635,267.089,-79.224,-161.011,0,0,0,
,0.5,-0.641,0.514,358.276,-60.364,-202.881,0,0,0,
,0.402,-0.821,0.42,348.632,-1.77,-166.26,0,0,0,
,0.369,-0.789,0.493,130.859,45.349,-150.269,0,0,0,
,0.427,-0.602,0.682,86.059,1.464,-150.025,0,0,0,
,0.319,-0.583,0.699,171.814,14.099,-129.151,0,0,0,
,0.341,-0.66,0.666,157.837,40.466,-111.817,0,0,0,
,0.358,-0.669,0.659,84.594,29.296,-86.182,0,0,0,
,0.339,-0.658,0.629,113.952,20.874,-95.643,0,0,0,
,0.356,-0.68,0.615,73.974,19.165,-112.61,0,0,0,
,0.316,-0.681,0.586,64.697,-23.377,-157.349,0,0,0,
,0.302,-0.641,0.618,52.124,3.601,-152.405,0,0,0,
,0.321,-0.59,0.63,102.844,30.578,-145.325,0,0,0,
,0.38,-0.626,0.715,118.774,17.456,-127.747,0,0,0,
,0.375,-0.507,0.688,238.83,26.184,-159.363,0,0,0,
,0.394,-0.744,0.645,341.369,39.367,-182.129,0,0,0,
,0.418,-0.794,0.637,284.118,36.682,-172.669,0,0,0,
,0.418,-0.759,0.611,223.388,14.16,-167.664,0,0,0,
,0.389,-0.731,0.651,166.504,-26.551,-159.058,0,0,0,
,0.389,-0.726,0.661,142.517,-13.489,-144.349,0,0,0,
,0.398,-0.702,0.656,181.64,1.77,-146.607,0,0,0,
,0.402,-0.75,0.621,200.5,-2.381,-139.893,0,0,0,
,0.416,-0.757,0.599,196.594,-15.259,-143.311,0,0,0,
,0.397,-0.776,0.59,185.608,-31.8,-126.343,0,0,0,
,0.364,-0.765,0.583,173.706,-10.56,-109.192,0,0,0,
,0.379,-0.779,0.591,140.503,14.465,-82.764,0,0,0,
,0.373,-0.762,0.564,87.463,5.432,-69.336,0,0,0,
,0.368,-0.808,0.59,16.052,-0.245,-55.359,0,0,0,
,0.373,-0.667,0.634,16.357,15.747,-21.302,0,0,0,
,0.401,-0.649,0.609,110.351,50.659,-20.447,0,0,0,
,0.425,-0.752,0.636,229.492,40.344,-44.617,0,0,0,
,0.487,-0.881,0.549,277.588,-4.517,-164.978,0,0,0,
,0.342,-0.902,0.502,320.556,-44.861,-141.724,0,0,0,
,0.333,-1.131,0.531,176.147,6.164,-140.076,0,0,0,
,0.36,-0.927,0.564,14.892,-5.86,-121.949,0,0,0,
,0.29,-0.794,0.568,33.63,-35.828,-122.437,0,0,0,
,0.227,-0.785,0.576,101.684,-6.226,-120.057,0,0,0,
,0.221,-0.825,0.561,153.747,58.227,-96.985,0,0,0,
,0.245,-0.866,0.555,118.042,84.472,-69.581,0,0,0,
,0.257,-0.842,0.557,101.074,98.144,-46.998,0,0,0,
,0.269,-0.864,0.541,120.727,114.502,-72.815,0,0,0,
,0.307,-0.827,0.557,164.734,140.197,-54.993,0,0,0,
,0.33,-0.775,0.524,247.497,124.389,-97.413,0,0,0,
,0.342,-0.851,0.497,303.283,101.318,-126.709,0,0,0,
,0.369,-0.906,0.464,244.751,78.186,-110.535,0,0,0,
,0.37,-0.785,0.516,199.096,79.223,-98.145,0,0,0,
,0.388,-0.735,0.478,263.977,144.714,-42.969,0,0,0,
,0.486,-0.804,0.501,281.433,152.832,-40.039,0,0,0,
,0.51,-0.744,0.551,343.505,78.43,-48.218,0,0,0,
,0.454,-0.863,0.544,486.45,5.249,-80.567,0,0,0,
,0.411,-0.954,0.482,453.308,14.465,-76.966,0,0,0,
,0.411,-0.962,0.446,316.894,-3.418,-55.481,0,0,0,
,0.369,-0.919,0.402,209.228,-62.378,-58.167,0,0,0,
,0.327,-0.896,0.347,145.874,-95.093,-77.149,0,0,0,
,0.304,-0.871,0.342,134.582,-126.831,-89.356,0,0,0,
,0.255,-0.922,0.313,126.037,-134.949,-107.117,0,0,0,
,0.227,-0.954,0.305,31.982,-133.484,-83.13,0,0,0,
,0.213,-0.89,0.313,-13.001,-107.911,-65.796,0,0,0,
,0.211,-0.915,0.299,0.732,-85.083,-43.519,0,0,0,
,0.208,-0.899,0.303,-34.79,-62.012,-18.189,0,0,0,
,0.205,-0.868,0.28,-26.795,-37.232,-0.794,0,0,0,
,0.206,-0.894,0.298,-49.988,-13.611,16.418,0,0,0,
,0.234,-0.878,0.33,-76.6,6.897,22.705,0,0,0,
,0.25,-0.866,0.353,-86.67,12.878,35.095,0,0,0,
,0.268,-0.846,0.392,-71.595,15.014,36.865,0,0,0,
,0.287,-0.84,0.421,-30.152,15.38,40.039,0,0,0,
,0.311,-0.856,0.417,28.381,19.897,25.512,0,0,0,
,0.348,-0.921,0.423,44.006,10.742,12.573,0,0,0,
,0.398,-0.91,0.472,85.632,9.948,-13.489,0,0,0,
,0.418,-1.101,0.444,90.637,-57.373,-105.408,0,0,0,
,0.41,-0.987,0.505,-26.429,-89.905,-101.319,0,0,0,
,0.41,-1.039,0.461,62.927,-106.385,-173.401,0,0,0,
,0.419,-1.151,0.484,25.146,-150.208,-189.148,0,0,0,
,0.418,-1.072,0.533,-74.28,-221.375,-191.163,0,0,0,
,0.389,-1.057,0.623,-53.101,-298.218,-308.777,0,0,0,
,0.353,-1.097,0.603,-35.95,-396.607,-375.55,0,0,0,
,0.308,-1.181,0.5,-216.248,-459.168,-469.666,0,0,0,
,0.262,-1.116,0.472,-528.748,-510.193,-516.785,0,0,0,
,0.235,-1.047,0.408,-774.476,-526.551,-628.235,0,0,0,
,0.2,-0.892,0.422,-777.1,-510.132,-592.957,0,0,0,
,0.172,-0.94,0.354,-610.352,-462.342,-632.386,0,0,0,
,0.2,-1.077,0.296,-658.509,-449.646,-658.997,0,0,0,
,0.218,-1.13,0.229,-895.081,-471.68,-668.335,0,0,0,
,0.175,-1.169,0.149,-1351.746,-521.79,-690.735,0,0,0,
,0.128,-1.111,0.178,-1926.392,-595.215,-677.735,0,0,0,
,0.045,-0.82,0.213,-2000,-682.496,-587.525,0,0,0,
,-0.057,-0.432,0.289,-2000,-784.852,-525.025,0,0,0,
,-0.094,-0.076,0.202,-2000,-1020.264,-437.684,0,0,0,
,-0.19,0.224,0.43,-2000,-1164.612,-400.513,0,0,0,
,-0.341,0.365,0.468,-2000,-1086.67,-392.456,0,0,0,
,-0.398,0.418,0.591,-2000,-963.074,-471.253,0,0,0,
,-0.315,0.614,0.586,-2000,-870.24,-381.165,0,0,0,
,-0.368,0.51,0.654,-1879.7,-645.752,-332.215,0,0,0,
,-0.404,0.359,0.719,-1409.18,-444.886,-255.127,0,0,0,
,-0.22,0.244,0.688,-1144.227,-357.239,-115.723,0,0,0,
,-0.348,0.104,0.708,-1098.755,-295.899,-178.284,0,0,0,
,-0.349,0.204,0.792,-1014.466,-248.597,-135.926,0,0,0,
,-0.392,0.216,0.823,-797.974,-140.931,-118.531,0,0,0,
,-0.475,0.104,0.891,-560.852,-11.17,-34.241,0,0,0,
,-0.46,0.282,0.829,-302.979,88.501,43.64,0,0,0,
,-0.512,0.211,0.937,-138.245,122.802,74.829,0,0,0,
,-0.533,0.307,0.996,-93.628,147.094,72.57,0,0,0,
,-0.582,0.382,1.047,-138.245,144.714,79.162,0,0,0,
,-0.602,0.43,1.081,-139.527,138.366,98.755,0,0,0,
,-0.603,0.552,1.063,5.432,140.564,152.771,0,0,0,
,-0.566,0.466,1.046,166.504,140.136,181.396,0,0,0,
,-0.511,0.447,1.011,132.507,132.934,167.846,0,0,0,
,-0.475,0.362,1.002,104.431,107.177,134.765,0,0,0,
,-0.463,0.346,1,65.918,78.979,93.811,0,0,0,
,-0.474,0.301,1.045,59.631,52.856,68.847,0,0,0,
,-0.466,0.338,1.052,73.059,45.288,51.452,0,0,0,
,-0.471,0.258,1.036,81.115,35.4,40.222,0,0,0,
,-0.462,0.279,1.008,102.783,36.254,34.301,0,0,0,
,-0.406,0.289,0.921,175.232,15.197,23.742,0,0,0,
,-0.43,0.224,0.95,80.932,-19.593,-10.743,0,0,0,
,-0.418,0.255,0.942,32.043,-36.866,-29.786,0,0,0,
,-0.439,0.233,0.936,38.33,-28.565,-41.016,0,0,0,
,-0.411,0.244,0.886,75.805,-24.964,-38.025,0,0,0,
,-0.4,0.234,0.893,59.387,-23.377,-48.401,0,0,0,
,-0.392,0.278,0.87,30.822,-22.522,-51.88,0,0,0,
,-0.394,0.291,0.872,16.479,-6.836,-44.922,0,0,0,
,-0.395,0.253,0.862,10.62,11.352,-32.227,0,0,0,
,-0.387,0.284,0.843,26.428,17.334,-26.551,0,0,0,
,-0.375,0.303,0.843,42.236,19.104,-26.734,0,0,0,
,-0.394,0.262,0.879,-6.104,7.263,-36.011,0,0,0,
,-0.404,0.27,0.9,-13.367,13.366,-27.71,0,0,0,
,-0.401,0.259,0.894,15.502,22.399,-11.902,0,0,0,
,-0.408,0.239,0.881,43.396,32.348,-6.043,0,0,0,
,-0.39,0.225,0.866,54.992,34.118,-5.677,0,0,0,
,-0.398,0.229,0.878,52.368,29.846,-7.386,0,0,0,
,-0.404,0.249,0.878,60.607,27.16,-5.249,0,0,0,
,-0.413,0.235,0.895,36.682,23.071,-7.752,0,0,0,
,-0.413,0.247,0.895,43.945,27.404,0.061,0,0,0,
,-0.409,0.246,0.877,57.373,42.602,1.709,0,0,0,
,-0.404,0.23,0.861,48.034,31.005,-4.456,0,0,0,
,-0.404,0.24,0.877,13.794,17.15,-13.367,0,0,0,
,-0.418,0.265,0.892,9.826,21.057,-8.24,0,0,0,
,-0.416,0.26,0.888,33.142,46.752,0.854,0,0,0,
,-0.405,0.248,0.869,63.171,61.401,3.906,0,0,0,
,-0.394,0.226,0.886,43.884,49.865,-2.442,0,0,0,
,-0.389,0.23,0.901,19.653,39.672,-8.057,0,0,0,
,-0.389,0.222,0.911,-10.315,28.991,-21.607,0,0,0,
,-0.389,0.234,0.92,-17.579,24.78,-25.208,0,0,0,
,-0.392,0.212,0.899,-7.203,20.568,-34.058,0,0,0,
,-0.385,0.224,0.895,-9.339,20.324,-40.223,0,0,0,
,-0.39,0.223,0.881,11.718,18.127,-45.227,0,0,0,
,-0.389,0.213,0.902,24.231,10.559,-51.148,0,0,0,
,-0.391,0.239,0.908,28.198,8.728,-52.369,0,0,0,
,-0.4,0.22,0.918,18.127,-0.367,-56.153,0,0,0,
,-0.398,0.238,0.92,16.601,-7.447,-50.049,0,0,0,
,-0.407,0.226,0.923,6.042,-20.02,-47.12,0,0,0,
,-0.405,0.238,0.916,5.859,-21.18,-37.11,0,0,0,
,-0.412,0.22,0.901,3.723,-24.048,-33.57,0,0,0,
,-0.409,0.228,0.886,7.69,-27.894,-31.678,0,0,0,
,-0.411,0.24,0.892,22.583,-25.025,-23.804,0,0,0,
,-0.409,0.233,0.884,35.888,-24.476,-16.846,0,0,0,
,-0.409,0.236,0.892,48.767,-19.593,-14.954,0,0,0,
,-0.407,0.245,0.889,70.007,-15.625,-6.653,0,0,0,
,-0.405,0.229,0.882,65.612,-24.903,-9.888,0,0,0,
,-0.402,0.237,0.893,53.588,-28.382,-13.001,0,0,0,
,-0.402,0.229,0.908,44.555,-27.466,-12.513,0,0,0,
,-0.399,0.212,0.903,32.104,-32.227,-18.799,0,0,0,
,-0.397,0.217,0.91,22.338,-31.006,-23.133,0,0,0,
,-0.399,0.212,0.915,20.324,-25.94,-21.18,0,0,0,
,-0.392,0.203,0.891,24.292,-22.889,-23.194,0,0,0,
,-0.389,0.233,0.891,23.498,-24.598,-23.56,0,0,0,
,-0.386,0.232,0.895,17.089,-17.823,-25.574,0,0,0,
,-0.383,0.241,0.889,12.817,-13.916,-24.109,0,0,0,
,-0.378,0.243,0.887,24.108,-8.545,-17.884,0,0,0,
,-0.377,0.243,0.887,21.301,-8.423,-15.259,0,0,0,
,-0.383,0.234,0.892,10.62,-10.01,-15.564,0,0,0,
,-0.39,0.242,0.889,4.821,-10.804,-9.827,0,0,0,
,-0.402,0.233,0.894,-6.592,-10.193,-5.372,0,0,0,
,-0.407,0.243,0.889,-10.56,-6.409,1.22,0,0,0,
,-0.415,0.229,0.88,-4.761,-5.005,6.591,0,0,0,
,-0.414,0.235,0.874,3.051,-3.235,12.39,0,0,0,
,-0.419,0.229,0.861,8.667,1.77,16.235,0,0,0,
,-0.42,0.224,0.856,7.568,5.493,16.174,0,0,0,
,-0.425,0.232,0.852,13.61,9.277,17.883,0,0,0,
,-0.427,0.233,0.851,19.592,13.183,13.183,0,0,0,
,-0.426,0.217,0.857,29.419,20.08,14.953,0,0,0,
,-0.415,0.215,0.851,35.644,27.282,13.916,0,0,0,
,-0.413,0.198,0.861,36.682,33.264,12.512,0,0,0,
,-0.405,0.182,0.869,38.208,38.086,5.859,0,0,0,
,-0.405,0.186,0.883,27.465,44.86,3.112,0,0,0,
,-0.394,0.184,0.877,27.893,50.415,0.732,0,0,0,
,-0.39,0.194,0.884,15.502,51.391,-1.893,0,0,0,
,-0.388,0.195,0.881,11.108,50.415,-5.738,0,0,0,
,-0.398,0.193,0.884,9.582,51.94,-5.555,0,0,0,
,-0.397,0.2,0.877,17.639,52.49,-3.235,0,0,0,
,-0.404,0.198,0.89,24.658,55.786,-1.648,0,0,0,
,-0.41,0.194,0.896,40.283,63.293,1.892,0,0,0,
,-0.415,0.203,0.887,61.462,69.091,5.371,0,0,0,
,-0.416,0.192,0.892,76.477,69.885,9.033,0,0,0,
,-0.416,0.208,0.885,87.036,65.307,15.014,0,0,0,
,-0.419,0.156,0.908,86.425,55.419,22.644,0,0,0,
,-0.424,0.191,0.917,86.547,57.861,26.794,0,0,0,
,-0.421,0.177,0.943,93.627,60.546,35.156,0,0,0,
,-0.416,0.17,0.944,111.328,70.495,45.654,0,0,0,
,-0.409,0.161,0.958,139.831,84.594,57.067,0,0,0,
,-0.405,0.159,0.984,172.058,124.939,67.016,0,0,0,
,-0.392,0.162,0.986,204.956,136.352,77.575,0,0,0,
,-0.388,0.133,1.005,237.976,147.766,90.881,0,0,0,
,-0.383,0.15,1.04,286.377,168.823,118.225,0,0,0,
,-0.375,0.138,1.061,348.51,198.242,154.174,0,0,0,
,-0.362,0.136,1.027,422.18,220.764,190.246,0,0,0,
,-0.31,0.25,0.952,530.395,186.34,200.866,0,0,0,
,-0.293,0.114,0.938,535.156,157.776,172.668,0,0,0,
,-0.304,0.043,0.971,409.973,134.338,158.569,0,0,0,
,-0.302,0.035,1.003,314.148,130.676,159.729,0,0,0,
,-0.314,0.051,1.037,298.462,149.292,170.776,0,0,0,
,-0.302,0.055,0.998,344.238,169.067,187.378,0,0,0,
,-0.287,0.045,0.948,417.846,179.87,199.463,0,0,0,
,-0.269,-0.002,0.918,491.638,168.64,198.303,0,0,0,
,-0.279,-0.102,0.975,488.708,166.809,184.57,0,0,0,
,-0.29,-0.146,1,426.391,183.471,185.058,0,0,0,
,-0.296,-0.114,1.032,415.466,206.726,195.678,0,0,0,
,-0.297,-0.11,1.025,459.594,235.656,201.904,0,0,0,
,-0.283,-0.048,1.022,564.331,236.389,211.547,0,0,0,
,-0.281,-0.068,1.023,684.509,250.732,208.435,0,0,0,
,-0.272,-0.21,1.019,704.712,280.334,181.64,0,0,0,
,-0.253,-0.288,1.004,657.409,281.921,186.401,0,0,0,
,-0.271,-0.284,1.027,630.676,279.174,171.325,0,0,0,
,-0.27,-0.202,0.998,686.096,268.982,147.338,0,0,0,
,-0.268,-0.281,0.96,759.521,276.123,112.548,0,0,0,
,-0.259,-0.372,0.936,786.438,252.929,102.6,0,0,0,
,-0.261,-0.359,0.914,764.709,220.825,114.99,0,0,0,
,-0.256,-0.343,0.894,733.703,197.815,66.833,0,0,0,
,-0.241,-0.482,0.871,748.291,208.557,23.254,0,0,0,
,-0.231,-0.55,0.88,653.198,194.58,27.954,0,0,0,
,-0.22,-0.516,0.847,591.186,183.349,26.001,0,0,0,
,-0.212,-0.505,0.872,576.294,190.429,6.774,0,0,0,
,-0.199,-0.572,0.886,588.745,211.547,-15.87,0,0,0,
,-0.183,-0.607,0.893,568.786,227.6,-1.77,0,0,0,
,-0.174,-0.595,0.944,600.586,243.164,42.48,0,0,0,
,-0.167,-0.529,0.884,684.143,252.197,58.593,0,0,0,
,-0.125,-0.504,0.827,766.967,256.225,81.359,0,0,0,
,-0.088,-0.616,0.792,838.012,249.694,55.481,0,0,0,
,-0.077,-0.699,0.819,844.36,219.421,83.435,0,0,0,
,-0.101,-0.686,0.82,794.494,214.721,125.427,0,0,0,
,-0.094,-0.646,0.82,831.543,230.651,174.621,0,0,0,
,-0.098,-0.634,0.762,895.324,270.813,212.951,0,0,0,
,-0.089,-0.655,0.619,931.701,320.129,229.065,0,0,0,
,-0.041,-0.834,0.524,798.95,362.426,191.711,0,0,0,
,0.002,-0.943,0.488,588.073,341.003,187.072,0,0,0,
,-0.005,-0.892,0.498,385.681,316.345,241.027,0,0,0,
,0.009,-0.846,0.534,342.895,307.8,237.609,0,0,0,
,0.032,-0.919,0.551,366.272,305.603,253.54,0,0,0,
,0.058,-0.936,0.498,330.078,295.898,282.776,0,0,0,
,0.093,-0.997,0.408,227.356,273.254,269.165,0,0,0,
,0.11,-1.048,0.384,64.697,226.257,244.506,0,0,0,
,0.098,-1.038,0.399,-116.944,182.067,229.065,0,0,0,
,0.087,-0.938,0.442,-195.191,171.203,212.097,0,0,0,
,0.087,-0.9,0.473,-175.599,201.782,213.989,0,0,0,
,0.086,-0.869,0.473,-157.776,224.914,230.957,0,0,0,
,0.089,-0.836,0.477,-137.024,239.135,235.717,0,0,0,
,0.078,-0.847,0.491,-135.193,258.178,247.741,0,0,0,
,0.097,-0.82,0.525,-140.32,287.719,255.127,0,0,0,
,0.111,-0.782,0.555,-118.653,310.424,249.145,0,0,0,
,0.12,-0.765,0.557,-51.758,328.43,261.169,0,0,0,
,0.13,-0.778,0.571,-18.311,343.444,282.531,0,0,0,
,0.159,-0.838,0.55,-21.241,375.305,300.72,0,0,0,
,0.209,-0.88,0.529,-64.82,370.3,311.706,0,0,0,
,0.24,-0.888,0.531,-110.962,354.858,318.298,0,0,0,
,0.26,-0.935,0.541,-162.293,354.004,315.063,0,0,0,
,0.301,-0.931,0.536,-215.027,351.867,312.805,0,0,0,
,0.335,-0.955,0.531,-267.395,327.819,313.232,0,0,0,
,0.342,-0.955,0.541,-349.854,296.02,314.575,0,0,0,
,0.373,-0.872,0.524,-476.807,246.704,304.26,0,0,0,
,0.392,-0.8,0.536,-531.006,225.952,301.574,0,0,0,
,0.395,-0.732,0.534,-538.697,222.778,284.423,0,0,0,
,0.423,-0.715,0.538,-557.496,236.267,263.061,0,0,0,
,0.437,-0.63,0.558,-577.881,214.843,255.554,0,0,0,
,0.449,-0.582,0.601,-560.12,219.543,248.047,0,0,0,
,0.47,-0.529,0.62,-535.95,209.228,233.093,0,0,0,
,0.487,-0.494,0.634,-499.878,182.861,226.013,0,0,0,
,0.496,-0.489,0.657,-477.601,146.545,209.655,0,0,0,
,0.505,-0.302,0.736,-396.729,121.704,200.561,0,0,0,
,0.53,-0.357,0.676,-299.622,127.746,151.794,0,0,0,
,0.488,-0.422,0.592,-223.267,102.417,113.708,0,0,0,
,0.517,-0.493,0.56,-220.52,118.774,88.867,0,0,0,
,0.534,-0.375,0.581,-277.649,61.889,84.533,0,0,0,
,0.516,-0.417,0.597,-241.944,62.255,57.434,0,0,0,
,0.524,-0.398,0.598,-241.944,51.879,38.818,0,0,0,
,0.511,-0.312,0.636,-228.638,31.127,28.625,0,0,0,
,0.557,-0.388,0.722,-187.073,60.302,31.25,0,0,0,
,0.637,-0.575,0.578,-301.819,1.77,19.775,0,0,0,
,0.459,-0.068,0.749,-457.154,-115.54,126.159,0,0,0,
,0.499,-0.256,0.653,-137.391,112.304,105.713,0,0,0,
,0.784,0.01,0.761,-230.713,107.971,113.22,0,0,0,
,0.737,-0.494,0.886,-54.505,-41.565,79.467,0,0,0,
,0.645,-0.133,0.801,-15.564,21.728,39.184,0,0,0,
,0.73,-0.294,0.662,25.695,9.216,37.292,0,0,0,
,0.65,-0.328,0.609,23.315,-32.837,19.592,0,0,0,
,0.603,-0.419,0.571,-8.545,-35.767,-10.132,0,0,0,
,0.536,-0.328,0.569,-21.973,-50.415,-22.461,0,0,0,
,0.475,-0.401,0.572,73.303,37.353,-48.829,0,0,0,
,0.539,-0.298,0.629,-8.606,50.231,-17.09,0,0,0,
,0.524,-0.434,0.714,53.833,104.736,-29.908,0,0,0,
,0.521,-0.381,0.725,44.555,54.748,-35.218,0,0,0,
,0.52,-0.338,0.808,104.065,72.998,-48.523,0,0,0,
,0.537,-0.448,0.781,176.086,59.509,-64.942,0,0,0,
,0.541,-0.511,0.708,156.86,-2.32,-108.643,0,0,0,
,0.506,-0.497,0.673,137.146,-0.55,-115.54,0,0,0,
,0.5,-0.489,0.65,116.15,3.845,-122.986,0,0,0,
,0.463,-0.441,0.645,124.572,0.732,-119.873,0,0,0,
,0.439,-0.438,0.645,119.14,34.118,-116.517,0,0,0,
,0.457,-0.446,0.63,127.807,55.847,-121.46,0,0,0,
,0.451,-0.458,0.667,142.517,57.251,-117.981,0,0,0,
,0.458,-0.463,0.669,150.39,95.764,-114.441,0,0,0,
,0.485,-0.48,0.686,150.817,89.233,-112.549,0,0,0,
,0.473,-0.491,0.688,156.677,95.214,-99.06,0,0,0,
,0.488,-0.474,0.661,147.094,103.881,-96.802,0,0,0,
,0.476,-0.454,0.642,147.766,78.674,-103.272,0,0,0,
,0.439,-0.415,0.608,152.404,69.702,-108.765,0,0,0,
,0.437,-0.377,0.554,162.78,69.946,-125.367,0,0,0,
,0.437,-0.4,0.542,154.419,80.688,-153.748,0,0,0,
,0.45,-0.377,0.572,118.957,102.356,-196.106,0,0,0,
,0.481,-0.389,0.562,118.286,115.783,-252.259,0,0,0,
,0.511,-0.361,0.605,222.107,84.655,-225.464,0,0,0,
,0.539,-0.467,0.644,347.9,128.296,-154.786,0,0,0,
,0.633,-0.473,0.681,411.987,163.269,-151.551,0,0,0,
,0.728,-0.595,0.653,401.794,117.065,-174.805,0,0,0,
,0.722,-0.613,0.616,325.378,10.131,-251.221,0,0,0,
,0.664,-0.59,0.607,234.802,-95.704,-293.03,0,0,0,
,0.581,-0.594,0.55,233.215,-146.607,-307.373,0,0,0,
,0.469,-0.624,0.471,279.724,-152.039,-278.199,0,0,0,
,0.436,-0.709,0.531,309.692,-28.443,-232.422,0,0,0,
,0.5,-0.659,0.501,282.776,45.593,-236.817,0,0,0,
,0.532,-0.787,0.547,300.109,11.23,-276.734,0,0,0,
,0.5,-0.802,0.565,279.724,-19.165,-275.452,0,0,0,
,0.549,-0.821,0.716,340.393,-7.203,-253.479,0,0,0,
,0.532,-0.846,0.51,276.489,-7.203,-200.318,0,0,0,
,0.494,-0.826,0.505,190.796,1.098,-193.97,0,0,0,
