TIMECODE,ACC_X,ACC_Y,ACC_Z,GYR_X,GYR_Y,GYR_Z,TAG
00:00:00:0,-0.042,-0.556,0.853,-11.414,21.484,-32.593,
00:00:00:16,-0.039,-0.565,0.857,-10.254,20.935,-31.434,
00:00:00:33,-0.04,-0.563,0.852,-13.245,20.446,-29.664,
00:00:00:50,-0.037,-0.563,0.854,-15.015,20.874,-29.419,
00:00:00:66,-0.037,-0.559,0.855,-15.87,21.484,-31.006,
00:00:00:83,-0.038,-0.559,0.853,-13.916,20.324,-31.678,
00:00:00:100,-0.038,-0.561,0.854,-14.405,18.493,-31.8,
00:00:00:116,-0.039,-0.557,0.855,-12.574,20.568,-30.579,
00:00:00:133,-0.038,-0.563,0.853,-12.757,18.737,-30.945,
00:00:00:150,-0.04,-0.561,0.853,-13.916,21.606,-29.602,
00:00:00:166,-0.039,-0.563,0.853,-15.931,20.996,-29.48,
00:00:00:183,-0.039,-0.557,0.854,-15.076,23.01,-29.847,
00:00:00:200,-0.037,-0.561,0.854,-11.048,18.005,-31.617,
00:00:00:216,-0.038,-0.56,0.854,-11.78,19.531,-30.823,
00:00:00:233,-0.038,-0.562,0.855,-12.818,20.996,-30.152,
00:00:00:250,-0.04,-0.562,0.855,-13.062,23.437,-31.434,
00:00:00:266,-0.038,-0.559,0.852,-13.977,22.338,-31.983,
00:00:00:283,-0.036,-0.562,0.852,-13.855,22.644,-32.166,
00:00:00:300,-0.035,-0.559,0.851,-13.733,20.69,-30.335,
00:00:00:316,-0.038,-0.566,0.854,-15.32,19.409,-31.617,
00:00:00:333,-0.041,-0.562,0.852,-14.71,19.592,-30.945,
00:00:00:350,-0.038,-0.562,0.852,-16.358,19.592,-29.48,
00:00:00:366,-0.039,-0.558,0.854,-15.87,20.752,-29.358,
00:00:00:383,-0.038,-0.557,0.855,-14.405,23.132,-31.434,
00:00:00:400,-0.039,-0.56,0.854,-15.259,20.507,-30.518,
00:00:00:416,-0.039,-0.557,0.852,-14.222,20.507,-32.471,
00:00:00:433,-0.039,-0.563,0.857,-14.344,22.033,-32.837,
00:00:00:450,-0.039,-0.559,0.851,-12.574,18.615,-30.518,
00:00:00:466,-0.041,-0.567,0.855,-13.062,20.935,-31.8,
00:00:00:483,-0.038,-0.56,0.85,-16.968,20.141,-29.602,
00:00:00:500,-0.038,-0.562,0.854,-14.222,18.005,-30.64,
00:00:00:516,-0.038,-0.563,0.849,-17.762,18.371,-30.945,
00:00:00:533,-0.038,-0.558,0.854,-17.029,18.188,-31.861,
00:00:00:550,-0.038,-0.556,0.851,-16.663,21.24,-31.922,
00:00:00:566,-0.042,-0.559,0.856,-15.442,18.981,-31.617,
00:00:00:583,-0.035,-0.562,0.852,-15.503,20.202,-30.579,
00:00:00:600,-0.035,-0.562,0.851,-0.245,17.273,-32.227,
00:00:00:616,-0.04,-0.594,0.854,-15.137,17.273,-30.213,
00:00:00:633,-0.036,-0.559,0.855,-16.358,18.31,-30.884,
00:00:00:650,-0.039,-0.563,0.858,-15.198,21.606,-31.739,
00:00:00:666,-0.037,-0.562,0.851,-13.306,18.737,-30.091,
00:00:00:683,-0.036,-0.559,0.854,-12.574,22.338,-30.213,
00:00:00:700,-0.038,-0.561,0.855,-16.114,19.226,-31.128,
00:00:00:716,-0.038,-0.558,0.854,-12.635,18.676,-30.945,
00:00:00:733,-0.037,-0.567,0.856,-11.17,19.348,-30.823,
00:00:00:750,-0.037,-0.562,0.852,-15.442,18.432,-30.335,
00:00:00:766,-0.037,-0.563,0.855,-14.039,19.348,-30.396,
00:00:00:783,-0.036,-0.559,0.856,-14.161,18.554,-31.434,
00:00:00:800,-0.038,-0.563,0.854,-13.611,17.517,-32.654,
00:00:00:816,-0.037,-0.533,0.851,-15.564,19.348,-30.213,
00:00:00:833,-0.04,-0.564,0.852,-15.992,19.47,-31.617,
00:00:00:850,-0.037,-0.56,0.852,-16.846,20.019,-29.236,
00:00:00:866,-0.036,-0.558,0.852,-16.846,15.686,-31.311,
00:00:00:883,-0.037,-0.562,0.853,-30.64,17.761,-31.922,
00:00:00:900,-0.038,-0.56,0.851,-16.053,14.831,-31.556,
00:00:00:916,-0.038,-0.566,0.85,-17.884,18.249,-32.349,
00:00:00:933,-0.037,-0.561,0.852,-18.921,17.578,-32.532,
00:00:00:950,-0.039,-0.559,0.853,-16.053,18.188,-33.997,
00:00:00:966,-0.036,-0.563,0.854,-15.381,19.592,-32.654,
00:00:00:983,-0.039,-0.562,0.851,-16.785,18.127,-32.593,
00:00:01:0,-0.036,-0.566,0.852,-18.86,18.737,-30.03,
00:00:01:16,-0.038,-0.559,0.851,-17.579,19.165,-46.692,
00:00:01:33,-0.036,-0.562,0.856,-17.579,18.432,-30.335,
00:00:01:50,-0.038,-0.562,0.851,-17.395,18.31,-32.654,
00:00:01:66,-0.037,-0.561,0.855,-15.748,18.432,-33.631,
00:00:01:83,-0.038,-0.561,0.852,-17.456,15.869,-33.081,
00:00:01:100,-0.035,-0.557,0.855,-17.701,15.808,-32.776,
00:00:01:116,-0.035,-0.56,0.852,-14.71,17.883,-31.067,
00:00:01:133,-0.038,-0.561,0.853,-15.809,18.859,-30.152,
00:00:01:150,-0.038,-0.566,0.854,-16.053,17.456,-30.091,
00:00:01:166,-0.038,-0.558,0.855,-17.09,20.324,-31.128,
00:00:01:183,-0.035,-0.563,0.853,-17.029,18.31,-30.457,
00:00:01:200,-0.038,-0.559,0.85,-15.931,15.747,-30.579,
00:00:01:216,-0.037,-0.563,0.855,-16.541,17.761,-32.654,
00:00:01:233,-0.037,-0.561,0.856,-15.381,16.235,-31.922,
00:00:01:250,-0.041,-0.559,0.853,-14.161,14.282,-31.861,
00:00:01:266,-0.039,-0.566,0.853,-12.879,16.052,-30.457,
00:00:01:283,-0.041,-0.562,0.851,-14.588,16.906,-29.664,
00:00:01:300,-0.037,-0.566,0.853,-15.809,18.127,-31.495,
00:00:01:316,-0.04,-0.556,0.853,-0.672,18.92,-32.288,
00:00:01:333,-0.04,-0.56,0.854,-15.32,17.761,-32.41,
00:00:01:350,-0.039,-0.561,0.849,-11.719,15.93,-31.617,
00:00:01:366,-0.041,-0.562,0.853,-14.527,18.798,-31.128,
00:00:01:383,-0.038,-0.562,0.853,-16.175,19.531,-31.556,
00:00:01:400,-0.035,-0.56,0.853,-15.015,17.211,-31.922,
00:00:01:416,-0.035,-0.565,0.854,-15.809,17.883,-31.678,
00:00:01:433,-0.038,-0.56,0.853,-15.564,15.747,-30.762,
00:00:01:450,-0.038,-0.567,0.851,-15.503,17.456,-31.922,
00:00:01:466,-0.041,-0.563,0.853,-18.738,15.991,-31.434,
00:00:01:483,-0.041,-0.562,0.855,-17.212,21.057,-31.495,
00:00:01:500,-0.039,-0.559,0.852,-17.395,16.174,-31.617,
00:00:01:516,-0.041,-0.558,0.855,-14.527,17.395,-32.349,
00:00:01:533,-0.04,-0.562,0.851,-14.832,19.836,-31.495,
00:00:01:550,-0.039,-0.559,0.854,-14.771,16.479,-33.509,
00:00:01:566,-0.039,-0.565,0.854,-14.222,21.301,-31.311,
00:00:01:583,-0.037,-0.562,0.852,-18.25,19.775,-30.03,
00:00:01:600,-0.036,-0.563,0.851,-18.677,20.141,-31.617,
00:00:01:616,-0.038,-0.563,0.85,-16.602,17.578,-30.457,
00:00:01:633,-0.04,-0.566,0.854,-19.593,18.798,-32.288,
00:00:01:650,-0.041,-0.56,0.856,-19.165,19.47,-29.48,
00:00:01:666,-0.04,-0.554,0.855,-17.273,18.92,-31.434,
00:00:01:683,-0.037,-0.558,0.852,-17.395,17.517,-31.617,
00:00:01:700,-0.036,-0.56,0.852,-14.588,16.235,-30.762,
00:00:01:716,-0.037,-0.566,0.852,-17.212,17.028,-34.18,
00:00:01:733,-0.039,-0.561,0.851,-15.564,18.981,-46.082,
00:00:01:750,-0.042,-0.563,0.854,-16.297,13.977,-31.067,
00:00:01:766,-0.04,-0.557,0.85,-16.724,12.878,-31.617,
00:00:01:783,-0.042,-0.561,0.857,-16.175,14.953,-31.678,
00:00:01:800,-0.04,-0.561,0.851,-16.541,15.93,-28.87,
00:00:01:816,-0.039,-0.559,0.856,-16.236,18.31,-31.189,
00:00:01:833,-0.039,-0.559,0.855,-13.123,18.249,-29.908,
00:00:01:850,-0.039,-0.557,0.85,-14.405,15.502,-32.776,
00:00:01:866,-0.037,-0.564,0.856,-14.954,18.615,-33.143,
00:00:01:883,-0.038,-0.555,0.853,-14.161,17.883,-31.678,
00:00:01:900,-0.035,-0.562,0.855,-13.55,15.808,-31.678,
00:00:01:916,-0.038,-0.561,0.852,-14.832,17.334,-31.861,
00:00:01:933,-0.042,-0.565,0.85,-14.283,16.967,-31.922,
00:00:01:950,-0.038,-0.561,0.854,-15.809,20.446,-30.213,
00:00:01:966,-0.038,-0.558,0.856,-15.931,19.592,-30.701,
00:00:01:983,-0.038,-0.559,0.855,-14.283,16.662,-31.373,
00:00:02:0,-0.037,-0.558,0.854,-14.283,22.583,-30.945,
00:00:02:16,-0.038,-0.56,0.854,-15.259,20.935,-30.091,
00:00:02:33,-0.038,-0.559,0.851,-15.992,15.136,-32.349,
00:00:02:50,-0.04,-0.562,0.854,-15.992,18.737,-31.373,
00:00:02:66,-0.042,-0.561,0.851,-16.419,15.014,-31.739,
00:00:02:83,-0.045,-0.562,0.856,-17.334,17.395,-32.288,
00:00:02:100,-0.04,-0.561,0.855,-14.283,18.92,-30.884,
00:00:02:116,-0.04,-0.56,0.853,-16.907,21.789,-28.809,
00:00:02:133,-0.038,-0.567,0.854,-17.884,16.296,-29.48,
00:00:02:150,-0.036,-0.556,0.853,-17.762,20.935,-30.64,
00:00:02:166,-0.039,-0.559,0.853,-17.212,18.676,-31.434,
00:00:02:183,-0.039,-0.558,0.853,-16.114,15.136,-30.884,
00:00:02:200,-0.038,-0.561,0.854,-16.175,17.089,-32.227,
00:00:02:216,-0.04,-0.562,0.854,-15.503,16.723,-31.189,
00:00:02:233,-0.042,-0.566,0.854,-17.09,21.606,-31.311,
00:00:02:250,-0.04,-0.594,0.854,-19.288,18.066,-30.701,
00:00:02:266,-0.041,-0.558,0.854,-18.982,16.479,-31.006,
00:00:02:283,-0.039,-0.561,0.855,-17.64,20.08,-30.213,
00:00:02:300,-0.039,-0.554,0.853,-16.358,20.996,-31.006,
00:00:02:316,-0.042,-0.561,0.859,-15.015,18.737,-31.861,
00:00:02:333,-0.038,-0.559,0.854,-14.771,18.92,-31.8,
00:00:02:350,-0.042,-0.561,0.854,-16.541,18.981,-32.41,
00:00:02:366,-0.042,-0.561,0.855,-14.832,17.944,-31.739,
00:00:02:383,-0.04,-0.561,0.853,-17.029,18.127,-33.326,
00:00:02:400,-0.04,-0.564,0.854,-16.541,18.615,-32.898,
00:00:02:416,-0.04,-0.561,0.852,-18.067,16.601,-30.091,
00:00:02:433,-0.042,-0.562,0.854,-19.471,19.104,-31.922,
00:00:02:450,-0.04,-0.558,0.854,-18.738,16.967,-29.786,
00:00:02:466,-0.039,-0.554,0.854,-17.884,18.249,-30.823,
00:00:02:483,-0.038,-0.554,0.855,-15.442,17.7,-31.8,
00:00:02:500,-0.039,-0.559,0.853,-12.269,16.845,-30.457,
00:00:02:516,-0.04,-0.566,0.854,-14.1,19.043,-31.922,
00:00:02:533,-0.04,-0.56,0.856,-14.588,21.179,-31.983,
00:00:02:550,-0.037,-0.564,0.855,-16.419,17.456,-31.617,
00:00:02:566,-0.037,-0.56,0.852,-18.677,22.766,-29.969,
00:00:02:583,-0.04,-0.563,0.853,-17.456,22.583,-31.739,
00:00:02:600,-0.039,-0.562,0.857,-17.64,20.996,-31.739,
00:00:02:616,-0.041,-0.559,0.854,-19.654,20.446,-30.701,
00:00:02:633,-0.039,-0.561,0.851,-21.363,21.057,-30.335,
00:00:02:650,-0.039,-0.559,0.858,-24.292,20.263,-31.678,
00:00:02:666,-0.038,-0.562,0.852,-25.818,19.287,-32.471,
00:00:02:683,-0.04,-0.56,0.852,-27.588,21.728,-33.57,
00:00:02:700,-0.039,-0.565,0.856,-29.664,22.216,-31.25,
00:00:02:716,-0.039,-0.559,0.853,-32.898,24.902,-31.617,
00:00:02:733,-0.039,-0.564,0.854,-37.354,26.001,-33.448,
00:00:02:750,-0.045,-0.57,0.857,-42.664,29.724,-33.631,
00:00:02:766,-0.05,-0.593,0.862,-49.073,39.978,-33.265,
00:00:02:783,-0.058,-0.513,0.919,-41.993,97.534,-38.025,
00:00:02:800,-0.077,-0.536,0.984,-69.458,134.094,-54.078,
00:00:02:816,-0.068,-0.635,1.072,-279.419,153.991,-177.43,
00:00:02:833,-0.024,-0.782,1.179,-935.12,281.738,-124.573,
00:00:02:850,0.04,-0.384,1.338,-738.953,259.765,-365.662,
00:00:02:866,-0.024,-1.016,1.354,-342.652,-195.984,-317.139,
00:00:02:883,0.077,-0.815,1.747,-841.187,33.142,-238.831,
00:00:02:900,0.499,-0.689,2.101,-527.588,-256.714,-531.25,
00:00:02:916,0.622,-0.814,1.851,-106.141,-1188.843,-545.655,
00:00:02:933,0.175,-1.106,1.977,-62.5,-1752.32,-690.064,
00:00:02:950,-0.18,-1.141,1.884,-275.025,-1767.212,-855.286,
00:00:02:966,-0.027,-0.981,1.754,-466.065,-1838.196,-934.327,
00:00:02:983,0.097,-0.825,1.458,-485.962,-1982.3,-1040.162,
00:00:03:0,0.037,-0.682,1.171,-562.195,-2000,-1153.992,
00:00:03:16,-0.027,-0.464,0.914,-695.191,-2000,-1195.984,
00:00:03:33,-0.033,-0.367,0.789,-776.978,-2000,-1205.262,
00:00:03:50,0.017,-0.303,0.545,-806.153,-2000,-1210.145,
00:00:03:66,-0.006,-0.129,0.05,-823.365,-2000,-1218.995,
00:00:03:83,-0.065,-0.032,-0.152,-727.356,-1981.69,-1221.07,
00:00:03:100,-0.144,0.042,-0.304,-609.436,-1895.386,-1226.136,
00:00:03:116,-0.185,0.045,-0.458,-451.6,-1691.468,-1237.732,
00:00:03:133,-0.201,0.17,-0.806,-324.83,-1391.297,-1205.445,
00:00:03:150,-0.57,1.217,-1.465,346.252,-98.389,-555.726,
00:00:03:166,-0.526,1.212,-1.385,457.702,497.009,-134.705,
00:00:03:183,-0.369,1.105,-1.231,477.234,1046.264,393.31,
00:00:03:200,-0.257,0.903,-1.067,576.049,1454.895,845.337,
00:00:03:216,-0.165,0.628,-0.908,651.916,1772.522,1154.907,
00:00:03:233,0.19,-0.14,-0.252,727.111,1999.694,1541.748,
00:00:03:250,0.208,-0.319,0,844.116,1999.694,1495.239,
00:00:03:266,0.165,-0.512,0.367,965.271,1999.694,1333.618,
00:00:03:283,0.246,-0.823,0.697,911.499,1999.694,1094.116,
00:00:03:300,0.264,-0.935,1.049,630.615,1999.694,964.355,
00:00:03:316,0.06,-0.589,1.779,-23.499,1999.694,580.81,
00:00:03:333,0.088,-0.331,1.93,102.417,1839.782,528.747,
00:00:03:350,0.183,-0.347,2.039,196.594,1456.848,524.231,
00:00:03:366,0.194,-0.41,1.997,264.709,1116.088,536.071,
00:00:03:383,0.198,-0.414,1.852,317.932,816.833,530.456,
00:00:03:400,0.212,-0.465,1.649,369.323,606.567,496.643,
00:00:03:416,0.205,-0.548,1.491,442.871,471.557,400.817,
00:00:03:433,0.173,-0.596,1.539,362.609,422.241,347.534,
00:00:03:450,0.354,0.122,2.551,1004.943,-367.31,498.047,
00:00:03:466,-0.151,-2,1.671,964.721,-153.504,-191.895,
00:00:03:483,-0.125,-0.4,0.706,338.44,-42.298,-86.914,
00:00:03:500,-0.337,-0.072,0.905,25.878,19.226,58.837,
00:00:03:516,-0.179,-0.609,0.783,-48.584,233.825,-182.068,
00:00:03:533,0.019,-0.374,0.73,-109.742,324.279,-8.057,
00:00:03:550,0.196,-0.534,0.834,-43.396,359.13,-0.977,
00:00:03:566,0.211,-0.724,1.076,-151.673,224.06,7.446,
00:00:03:583,0.115,-0.36,0.957,-119.69,62.072,-213.807,
00:00:03:600,0.036,-0.317,0.994,16.723,-22.156,-235.596,
00:00:03:616,0.03,-0.542,0.92,-168.946,49.987,-125.061,
00:00:03:633,0.025,-0.423,0.975,-272.156,97.045,-184.449,
00:00:03:650,0.057,-0.495,0.984,-218.689,13.427,-237.61,
00:00:03:666,-0.004,-0.559,0.956,-209.961,-39.551,-226.685,
00:00:03:683,-0.06,-0.58,0.869,-187.073,-45.411,-259.095,
00:00:03:700,-0.12,-0.608,0.877,-107.483,-68.665,-335.083,
00:00:03:716,-0.079,-0.572,0.939,-101.502,-37.415,-312.317,
00:00:03:733,-0.09,-0.514,0.884,-41.504,-96.436,-331.604,
00:00:03:750,-0.14,-0.53,0.97,59.082,-126.465,-395.569,
00:00:03:766,-0.151,-0.547,0.952,136.169,-125.428,-407.532,
00:00:03:783,-0.16,-0.552,0.946,203.308,-94.361,-396.546,
00:00:03:800,-0.161,-0.514,1.098,191.04,-58.35,-389.039,
00:00:03:816,-0.105,-0.331,1.153,116.15,-6.775,-320.069,
00:00:03:833,-0.123,-0.187,1.045,271.362,-14.405,-269.349,
00:00:03:850,-0.161,-0.242,0.934,627.624,-77.027,-208.741,
00:00:03:866,-0.183,-0.221,0.782,728.393,-43.152,-84.107,
00:00:03:883,-0.177,-0.285,0.696,529.968,32.959,-47.547,
00:00:03:900,-0.113,-0.401,0.673,157.287,127.929,-23.255,
00:00:03:916,-0.072,-0.372,0.713,-111.145,221.862,46.081,
00:00:03:933,0.048,-0.331,0.788,-205.384,194.885,34.729,
00:00:03:950,0.074,-0.299,0.846,-159.241,191.162,70.007,
00:00:03:966,0.11,-0.374,0.958,13.122,159.668,34.301,
00:00:03:983,0.218,-0.697,1.057,-97.168,121.399,-34.79,
00:00:04:0,0.202,-0.448,0.983,-176.514,134.643,21.85,
00:00:04:16,0.11,-0.444,0.941,-23.499,107.91,-24.598,
00:00:04:33,0.131,-0.447,0.913,26.001,131.042,-26.49,
00:00:04:50,0.155,-0.415,0.898,25.268,95.031,-20.752,
00:00:04:66,0.2,-0.242,1.043,68.969,53.283,17.273,
00:00:04:83,0.203,-0.217,1.006,582.336,-47.242,-28.321,
00:00:04:100,0.028,-0.43,0.858,980.529,-94.666,-6.409,
00:00:04:116,0.078,-0.608,0.9,869.629,-91.736,13.671,
00:00:04:133,0.148,-0.58,0.88,628.967,-141.236,51.391,
00:00:04:150,0.105,-0.475,0.927,521.667,-175.599,80.566,
00:00:04:166,0.118,-0.429,0.922,732.299,-207.459,46.325,
00:00:04:183,0.087,-0.552,0.915,1042.907,-241.639,36.865,
00:00:04:200,0.038,-0.613,0.907,1250.183,-262.452,30.212,
00:00:04:216,-0.005,-0.575,0.762,1443.847,-241.517,24.169,
00:00:04:233,-0.04,-0.56,0.67,1703.064,-224.366,28.259,
00:00:04:250,-0.067,-0.587,0.513,1941.406,-173.951,12.573,
00:00:04:266,-0.083,-0.614,0.351,1999.694,-134.339,58.776,
00:00:04:283,-0.031,-0.765,0.177,1999.694,-84.9,68.969,
00:00:04:300,-0.048,-0.981,0.058,1999.694,-69.886,75.317,
00:00:04:316,0.013,-1.021,0.12,1905.273,-27.894,81.543,
00:00:04:333,0.039,-1.135,0.025,1664.489,-52.124,47.058,
00:00:04:350,-0.001,-1.148,0.041,1434.997,-36.866,21.728,
00:00:04:366,-0.041,-1.063,0.008,1114.868,-18.921,27.404,
00:00:04:383,-0.034,-1.06,-0.097,948.73,-8.728,-37.842,
00:00:04:400,-0.048,-1.133,-0.018,890.625,7.385,-91.553,
00:00:04:416,-0.05,-1.155,-0.031,714.904,19.47,-100.953,
00:00:04:433,-0.051,-1.069,-0.131,669.433,37.109,-123.352,
00:00:04:450,-0.046,-1.114,-0.145,666.565,26.489,-97.046,
00:00:04:466,-0.066,-1.129,-0.199,582.458,59.509,-136.475,
00:00:04:483,-0.056,-1.114,-0.181,438.232,80.444,-139.283,
00:00:04:500,-0.065,-1.107,-0.158,319.519,102.05,-156.128,
00:00:04:516,-0.101,-1.1,-0.143,252.014,103.82,-170.472,
00:00:04:533,-0.106,-1.083,-0.201,180.175,101.196,-154.297,
00:00:04:550,-0.117,-1.084,-0.19,104.004,94.116,-137.513,
00:00:04:566,-0.121,-1.071,-0.155,78.674,90.698,-124.39,
00:00:04:583,-0.148,-1.087,-0.251,39.672,112.06,-123.475,
00:00:04:600,-0.066,-1.114,-0.13,-202.332,110.595,-129.151,
00:00:04:616,-0.081,-1.101,-0.131,-193.97,86.975,-161.072,
00:00:04:633,-0.079,-1.172,-0.118,-218.811,77.636,-198.121,
00:00:04:650,-0.087,-1.158,-0.125,-271.607,74.34,-221.802,
00:00:04:666,-0.121,-1.167,-0.136,-238.953,76.294,-250.061,
00:00:04:683,-0.14,-1.224,-0.159,-236.817,82.092,-262.452,
00:00:04:700,-0.19,-1.25,-0.185,-313.416,90.942,-253.113,
00:00:04:716,-0.237,-1.176,-0.177,-381.165,111.084,-242.188,
00:00:04:733,-0.26,-1.169,-0.188,-417.603,133.239,-228.638,
00:00:04:750,-0.298,-1.141,-0.115,-494.507,159.79,-192.688,
00:00:04:766,-0.296,-1.076,-0.08,-596.131,187.194,-161.56,
00:00:04:783,-0.278,-1.011,-0.074,-620.484,225.219,-159.485,
00:00:04:800,-0.346,-0.975,0.046,-615.906,222.229,-90.21,
00:00:04:816,-0.29,-0.949,-0.038,-533.387,256.713,-44.373,
00:00:04:833,-0.368,-1.015,-0.037,-494.324,278.137,1.037,
00:00:04:850,-0.329,-1.019,-0.04,-518.494,328.796,56.762,
00:00:04:866,-0.354,-1.017,-0.028,-549.134,376.342,91.491,
00:00:04:883,-0.367,-1.015,-0.004,-532.105,411.132,121.399,
00:00:04:900,-0.358,-1.018,0.055,-541.321,432.678,165.649,
00:00:04:916,-0.366,-1.02,0.107,-494.935,448.486,179.199,
00:00:04:933,-0.351,-1.05,0.163,-468.018,459.655,207.153,
00:00:04:950,-0.323,-1.015,0.206,-429.017,465.942,223.632,
00:00:04:966,-0.31,-0.985,0.272,-329.468,451.965,237.609,
00:00:04:983,-0.294,-0.979,0.239,-236.756,423.278,258.545,
00:00:05:0,-0.267,-1.01,0.177,-235.108,387.756,285.461,
00:00:05:16,-0.246,-0.988,0.143,-317.749,366.76,321.228,
00:00:05:33,-0.219,-0.905,0.11,-441.04,335.876,365.6,
00:00:05:50,-0.154,-0.835,0.129,-499.024,331.665,389.038,
00:00:05:66,-0.104,-0.748,0.166,-532.105,310.852,426.452,
00:00:05:83,-0.08,-0.604,0.205,-497.254,271.789,444.885,
00:00:05:100,-0.029,-0.592,0.219,-450.135,238.037,475.769,
00:00:05:116,0.038,-0.625,0.199,-394.776,228.698,499.755,
00:00:05:133,0.092,-0.65,0.186,-355.53,219.055,514.465,
00:00:05:150,0.151,-0.675,0.212,-300.599,203.247,498.718,
00:00:05:166,0.201,-0.649,0.209,-254.029,217.163,477.417,
00:00:05:183,0.274,-0.69,0.235,-205.811,200.683,450.622,
00:00:05:200,0.317,-0.709,0.299,-171.326,197.509,397.094,
00:00:05:216,0.329,-0.701,0.346,-79.041,158.02,319.458,
00:00:05:233,0.338,-0.71,0.367,6.469,103.637,231.14,
00:00:05:250,0.328,-0.713,0.381,73.974,49.621,144.47,
00:00:05:266,0.33,-0.696,0.361,154.968,7.934,63.476,
00:00:05:283,0.349,-0.681,0.333,236.084,-25.696,-1.709,
00:00:05:300,0.381,-0.681,0.294,330.932,-61.585,-83.069,
00:00:05:316,0.405,-0.726,0.31,409.973,-94.788,-129.029,
00:00:05:333,0.426,-0.743,0.311,461.364,-106.446,-163.269,
00:00:05:350,0.452,-0.813,0.354,479.858,-120.423,-168.396,
00:00:05:366,0.443,-0.688,0.284,568.725,-119.629,-164.734,
00:00:05:383,0.438,-0.8,0.171,611.084,-96.558,-161.866,
00:00:05:400,0.388,-0.863,0.142,588.501,-71.412,-155.701,
00:00:05:416,0.37,-0.84,0.088,571.899,-36.927,-161.683,
00:00:05:433,0.339,-0.958,0.086,597.961,-8.728,-196.351,
00:00:05:450,0.283,-0.986,0.111,570.251,-17.273,-215.088,
00:00:05:466,0.229,-0.948,0.161,575.561,-31.861,-221.802,
00:00:05:483,0.145,-0.951,0.168,632.08,-65.796,-222.901,
00:00:05:500,0.129,-1.01,0.146,665.405,-97.901,-236.084,
00:00:05:516,0.111,-1.019,0.056,661.926,-126.404,-241.822,
00:00:05:533,0.089,-1.098,0.013,627.38,-123.78,-234.62,
00:00:05:550,0.047,-1.038,-0.023,561.95,-103.272,-185.669,
00:00:05:566,0.025,-1.171,-0.047,494.262,-57.984,-179.261,
00:00:05:583,-0.003,-1.1,-0.016,368.835,-55.603,-128.418,
00:00:05:600,0.068,-1.032,-0.046,342.773,-31.617,-113.648,
00:00:05:616,-0.017,-1.168,0.068,346.557,-43.152,-98.755,flipLH
00:00:05:633,0.001,-1.097,0.006,336.731,-53.528,-104.92,
00:00:05:650,0.011,-1.123,-0.063,343.261,-54.81,-121.399,
00:00:05:666,0.111,-1.154,-0.119,313.171,-19.043,-181.275,
00:00:05:683,0.057,-1.255,-0.067,275.39,-25.452,-196.534,
00:00:05:700,0.048,-1.042,-0.135,255.798,-3.296,-195.13,
00:00:05:716,0.066,-1.07,-0.145,291.076,28.869,-212.037,
00:00:05:733,0.077,-1.104,-0.146,256.775,48.461,-212.159,
00:00:05:750,0.09,-1.036,-0.203,204.651,71.35,-216.98,
00:00:05:766,0.094,-1.044,-0.191,172.668,104.492,-228.455,
00:00:05:783,0.075,-1.056,-0.138,139.282,143.432,-244.935,
00:00:05:800,0.044,-1.093,-0.217,136.901,150.329,-262.33,
00:00:05:816,0.025,-1.107,-0.196,109.558,142.578,-243.226,
00:00:05:833,-0.018,-1.109,-0.215,74.157,145.691,-264.466,
00:00:05:850,-0.043,-1.138,-0.216,44.921,149.109,-298.34,
00:00:05:866,-0.072,-1.164,-0.209,-2.442,138.733,-313.904,
00:00:05:883,-0.096,-1.107,-0.186,-15.076,144.653,-327.149,
00:00:05:900,-0.131,-1.106,-0.144,10.559,142.089,-326.233,
00:00:05:916,-0.162,-1.107,-0.143,4.455,131.53,-325.196,
00:00:05:933,-0.209,-1.109,-0.137,1.525,121.582,-319.581,
00:00:05:950,-0.246,-1.153,-0.157,-67.81,115.905,-321.045,
00:00:05:966,-0.264,-1.184,-0.199,-193.482,114.99,-314.515,
00:00:05:983,-0.24,-1.251,-0.233,-429.383,131.103,-325.318,
00:00:06:0,-0.232,-1.259,-0.154,-703.614,147.461,-333.863,
00:00:06:16,-0.241,-1.066,-0.138,-782.959,163.452,-303.284,
00:00:06:33,-0.159,-1.086,-0.013,-845.52,169.555,-300.843,
00:00:06:50,-0.158,-1.109,-0.013,-957.947,162.475,-301.331,
00:00:06:66,-0.131,-1.222,0.01,-1277.405,158.691,-308.533,
00:00:06:83,-0.113,-1.138,0.046,-1603.089,164.062,-267.334,
00:00:06:100,-0.114,-1.001,0.093,-1910.95,187.011,-227.906,
00:00:06:116,-0.15,-0.921,0.131,-2000,221.679,-168.58,
00:00:06:133,-0.182,-0.865,0.175,-2000,268.005,-99.732,
00:00:06:150,-0.214,-0.727,0.182,-2000,341.674,-18.006,
00:00:06:166,-0.208,-0.605,0.23,-2000,423.217,39.917,
00:00:06:183,-0.175,-0.559,0.31,-2000,501.037,77.209,
00:00:06:200,-0.114,-0.541,0.439,-2000,578.125,85.998,
00:00:06:216,-0.067,-0.541,0.546,-2000,629.882,47.302,
00:00:06:233,-0.023,-0.475,0.66,-2000,676.391,15.136,
00:00:06:250,0.015,-0.364,0.661,-2000,705.505,-14.588,
00:00:06:266,0.013,-0.293,0.638,-2000,722.412,-45.838,
00:00:06:283,0.03,-0.127,0.613,-2000,764.221,-89.783,
00:00:06:300,0.052,0.077,0.638,-2000,762.39,-141.968,
00:00:06:316,0.065,0.079,0.69,-2000,744.629,-254.944,
00:00:06:333,0.1,0.069,0.689,-2000,776.611,-295.35,
00:00:06:350,0.147,0.402,0.801,-2000,769.104,-328.248,
00:00:06:366,0.15,0.514,0.907,-1581.055,701.538,-462.403,
00:00:06:383,0.192,0.474,0.947,-1019.959,662.231,-560.486,
00:00:06:400,0.319,0.513,0.994,-728.76,590.881,-573.792,
00:00:06:416,0.35,0.632,0.984,-543.274,490.234,-516.968,
00:00:06:433,0.338,0.635,0.97,-395.142,359.008,-465.821,
00:00:06:450,0.361,0.46,0.16,-218.689,391.54,-388.733,
00:00:06:466,0.563,0.823,2,-313.172,-101.624,-333.741,
00:00:06:483,0.168,0.66,0.895,-215.638,-10.987,-71.534,
00:00:06:500,0.215,0.948,1.003,-93.079,-60.852,7.995,
00:00:06:516,0.204,0.632,0.961,294.677,-140.809,16.723,
00:00:06:533,0.252,0.547,0.836,196.777,-137.33,100.891,
00:00:06:550,0.209,0.588,0.765,125.366,-101.807,103.515,
00:00:06:566,0.26,0.559,0.778,199.035,-96.131,82.641,
00:00:06:583,0.264,0.449,0.766,292.053,-93.934,84.472,
00:00:06:600,0.322,0.496,0.789,296.447,-92.469,93.322,
00:00:06:616,0.348,0.478,0.866,393.554,-136.414,123.169,
00:00:06:633,0.393,0.472,0.89,526.367,-200.135,189.148,
00:00:06:650,0.378,0.453,0.911,749.328,-277.039,241.76,
00:00:06:666,0.363,0.393,0.895,1021.789,-347.229,269.775,
00:00:06:683,0.34,0.296,0.864,1289.917,-421.692,278.991,
00:00:06:700,0.267,0.235,0.871,1499.328,-461.182,280.151,
00:00:06:716,0.227,0.221,0.885,1731.445,-490.296,283.996,
00:00:06:733,0.215,0.162,0.936,1950.988,-541.016,257.08,
00:00:06:750,0.206,0.071,0.898,1999.694,-594.971,234.436,
00:00:06:766,0.166,-0.022,0.885,1999.694,-645.935,197.326,
00:00:06:783,0.125,-0.102,0.815,1999.694,-694.458,150.695,
00:00:06:800,0.085,-0.219,0.774,1999.694,-727.601,80.505,
00:00:06:816,0.055,-0.345,0.721,1999.694,-728.089,20.324,
00:00:06:833,0.054,-0.442,0.63,1999.694,-718.445,-26.551,
00:00:06:850,0.018,-0.585,0.604,1999.694,-721.863,-73.182,
00:00:06:866,-0.038,-0.699,0.573,1999.694,-683.655,-86.487,
00:00:06:883,-0.072,-0.767,0.51,1999.694,-624.634,-97.84,
00:00:06:900,-0.111,-0.815,0.451,1999.694,-570.984,-115.845,
00:00:06:916,-0.183,-0.96,0.371,1999.694,-513.062,-121.277,
00:00:06:933,-0.2,-0.956,0.424,1900.634,-443.726,-56.702,
00:00:06:950,-0.198,-0.886,0.361,1612.854,-360.169,-48.34,
00:00:06:966,-0.226,-0.94,0.305,1535.644,-317.933,-29.725,
00:00:06:983,-0.242,-1.018,0.259,1412.109,-270.752,-1.343,
00:00:07:0,-0.257,-1.085,0.197,1279.968,-218.384,15.564,
00:00:07:16,-0.292,-1.148,0.143,1083.74,-181.397,46.325,
00:00:07:33,-0.325,-1.114,0.109,924.499,-136.231,65.063,
00:00:07:50,-0.335,-1.098,0.089,849.548,-102.356,77.758,
00:00:07:66,-0.339,-1.11,0.056,757.69,-67.505,84.35,
00:00:07:83,-0.338,-1.141,0.014,621.948,-41.382,83.435,
00:00:07:100,-0.339,-1.165,-0.035,407.043,-13.123,85.876,
00:00:07:116,-0.339,-1.139,-0.029,218.444,23.742,93.322,
00:00:07:133,-0.342,-1.106,-0.024,130.31,59.326,98.022,
00:00:07:150,-0.337,-1.092,-0.024,155.517,72.937,94.482,
00:00:07:166,-0.347,-1.14,0,200.317,82.336,100.097,
00:00:07:183,-0.354,-1.174,-0.002,204.956,94.177,104.126,
00:00:07:200,-0.367,-1.26,0.009,116.516,101.013,110.595,
00:00:07:216,-0.379,-1.267,0.02,-53.04,122.131,122.314,
00:00:07:233,-0.382,-1.242,0.039,-157.044,147.216,133.789,
00:00:07:250,-0.313,-1.209,0.081,-575.135,231.445,154.48,
00:00:07:266,-0.28,-1.063,0.128,-459.107,211.486,164.062,
00:00:07:283,-0.254,-1.055,0.094,-314.393,160.888,180.114,
00:00:07:300,-0.241,-1.075,0.002,-306.58,131.836,197.937,
00:00:07:316,-0.208,-1.067,-0.051,-388.611,132.324,223.327,
00:00:07:333,-0.186,-0.994,-0.107,-454.346,142.273,244.629,
00:00:07:350,-0.14,-0.955,-0.11,-495.362,150.695,261.291,
00:00:07:366,-0.14,-0.904,-0.056,-482.605,156.799,282.287,
00:00:07:383,-0.107,-0.908,-0.028,-465.882,167.785,279.052,
00:00:07:400,-0.085,-0.887,0.045,-447.693,172.546,283.996,
00:00:07:416,-0.074,-0.829,0.09,-419.983,175.903,295.532,
00:00:07:433,-0.05,-0.818,0.108,-368.897,168.579,302.551,
00:00:07:450,-0.021,-0.815,0.096,-317.261,135.742,292.297,
00:00:07:466,0.005,-0.75,0.131,-293.885,91.491,320.251,
00:00:07:483,0.01,-0.707,0.104,-204.346,79.406,307.678,
00:00:07:500,0.082,-0.741,0.069,-241.639,49.682,319.824,
00:00:07:516,0.135,-0.721,0.024,-244.263,39.428,291.748,
00:00:07:533,0.227,-0.673,0.102,-235.779,9.948,256.286,
00:00:07:550,0.234,-0.729,0.124,-175.721,-13.367,199.524,
00:00:07:566,0.284,-0.662,0.079,-152.283,-32.532,153.442,
00:00:07:583,0.297,-0.693,0.16,-131.592,-40.589,126.464,
00:00:07:600,0.303,-0.66,0.236,-72.266,-54.627,104.248,
00:00:07:616,0.341,-0.693,0.236,7.934,-68.482,75.439,
00:00:07:633,0.347,-0.726,0.177,82.458,-71.961,60.791,flipLH
00:00:07:650,0.376,-0.791,0.139,95.52,-31.189,57.312,
00:00:07:666,0.377,-0.816,0.15,100.769,-1.282,61.767,
00:00:07:683,0.37,-0.858,0.199,122.009,35.4,67.321,
00:00:07:700,0.357,-0.867,0.252,155.944,51.818,66.406,
00:00:07:716,0.338,-0.838,0.276,210.937,36.193,67.321,
00:00:07:733,0.321,-0.886,0.238,260.315,24.353,53.527,
00:00:07:750,0.301,-0.931,0.193,266.113,-0.123,35.583,
00:00:07:766,0.289,-0.958,0.163,244.69,-12.33,0.854,
00:00:07:783,0.27,-0.958,0.177,237.182,-32.532,-25.147,
00:00:07:800,0.272,-0.981,0.187,223.999,-56.336,-53.04,
00:00:07:816,0.24,-0.96,0.209,220.825,-72.388,-64.148,
00:00:07:833,0.242,-0.96,0.223,207.763,-73.792,-64.82,
00:00:07:850,0.222,-0.982,0.217,259.094,-67.933,-61.89,
00:00:07:866,0.217,-1.015,0.189,283.569,-61.341,-72.815,
00:00:07:883,0.245,-0.977,0.104,333.007,-42.237,-107.3,
00:00:07:900,0.209,-1.051,0.1,335.571,-16.724,-135.804,
00:00:07:916,0.193,-1.026,0.038,329.101,-15.992,-150.452,
00:00:07:933,0.207,-1.044,0.029,301.88,-4.029,-149.659,
00:00:07:950,0.184,-1.006,0.063,264.221,-2.808,-153.931,
00:00:07:966,0.149,-0.997,0.085,250.976,-3.785,-147.095,
00:00:07:983,0.15,-0.975,0.065,240.6,-0.733,-153.016,
00:00:08:0,0.189,-0.942,0.072,253.54,4.516,-189.942,
00:00:08:16,0.134,-1.019,0.028,285.034,-6.165,-212.098,
00:00:08:33,0.153,-1.03,-0.018,314.819,-1.954,-206.421,
00:00:08:50,0.125,-1.075,0.015,227.295,11.047,-215.332,
00:00:08:66,0.119,-1.059,-0.009,214.538,10.864,-217.102,
00:00:08:83,0.101,-1.06,-0.007,202.026,7.629,-213.746,
00:00:08:100,0.094,-1.047,-0.013,204.345,17.273,-223.145,
00:00:08:116,0.084,-1.029,-0.015,223.755,22.094,-224.488,
00:00:08:133,-0.047,-1.033,-0.068,255.554,51.879,-192.078,
00:00:08:150,-0.013,-1.042,-0.158,243.286,76.171,-207.459,
00:00:08:166,-0.015,-1.022,-0.17,234.802,91.919,-186.89,
00:00:08:183,0.003,-1.009,-0.152,256.103,112.06,-191.346,
00:00:08:200,0.003,-1.034,-0.157,276.001,122.192,-185.975,
00:00:08:216,0.025,-1.037,-0.152,275.329,114.013,-187.256,
00:00:08:233,0.023,-1.031,-0.14,269.897,105.651,-191.468,
00:00:08:250,0.014,-1.028,-0.133,276.123,106.872,-200.928,
00:00:08:266,0.021,-1.045,-0.132,252.807,102.05,-223.084,
00:00:08:283,-0.021,-1.11,-0.164,211.303,91.919,-229.554,
00:00:08:300,-0.076,-1.235,-0.206,113.586,79.528,-227.112,
00:00:08:316,-0.148,-1.176,-0.159,69.885,93.078,-256.47,
00:00:08:333,-0.173,-1.249,-0.166,84.106,103.698,-279.786,
00:00:08:350,-0.2,-1.325,-0.146,9.948,94.97,-280.091,
00:00:08:366,-0.208,-1.308,-0.116,-75.745,73.669,-280.884,
00:00:08:383,-0.192,-1.258,-0.102,-161.499,55.236,-288.147,
00:00:08:400,-0.188,-1.303,-0.162,-896.912,80.993,-326.722,
00:00:08:416,-0.124,-1.087,-0.073,-963.257,83.068,-319.214,
00:00:08:433,-0.1,-1.02,-0.027,-811.829,94.299,-311.402,
00:00:08:450,-0.1,-1.228,-0.032,-831.36,107.177,-322.022,
00:00:08:466,-0.104,-1.284,-0.067,-1207.276,123.535,-316.468,
00:00:08:483,-0.095,-1.219,-0.061,-1638.062,146.118,-294.556,
00:00:08:500,-0.092,-1.025,-0.038,-1968.812,185.547,-236.634,
00:00:08:516,-0.112,-0.827,0.075,-2000,242.614,-165.223,
00:00:08:533,-0.112,-0.803,0.128,-2000,283.264,-130.494,
00:00:08:550,-0.079,-0.837,0.195,-2000,318.115,-73.853,
00:00:08:566,-0.115,-0.803,0.228,-2000,360.412,-65.369,
00:00:08:583,-0.146,-0.788,0.231,-2000,447.57,-10.376,
00:00:08:600,-0.155,-0.67,0.242,-2000,556.213,57.556,
00:00:08:616,-0.145,-0.454,0.183,-2000,678.65,73.547,
00:00:08:633,-0.074,-0.131,0.23,-2000,803.344,59.814,
00:00:08:650,0.039,0.16,0.373,-2000,830.81,61.645,
00:00:08:666,0.125,0.158,0.579,-2000,752.685,-10.193,
00:00:08:683,0.111,0.034,0.651,-2000,846.801,-129.395,
00:00:08:700,0.148,0.198,0.737,-2000,804.565,-269.227,
00:00:08:716,0.121,0.131,0.768,-2000,749.633,-380.555,
00:00:08:733,0.093,0.206,0.759,-1920.35,715.088,-403.016,
00:00:08:750,0.043,0.331,0.757,-1468.75,703.369,-462.708,
00:00:08:766,0.041,0.501,0.72,-940.674,735.107,-544.8,
00:00:08:783,0.451,0.868,0.908,-354.371,585.754,-519.471,
00:00:08:800,0.51,0.443,-0.148,-180.237,568.115,-525.208,
00:00:08:816,0.778,1.424,1.918,-249.268,110.656,-134.583,
00:00:08:833,0.329,0.341,1.075,132.69,13.305,-273.377,
00:00:08:850,0.364,1.061,1.262,-149.17,-68.421,118.469,
00:00:08:866,0.156,0.895,0.997,424.499,-196.106,93.505,
00:00:08:883,0.257,0.454,0.848,424.987,-208.741,101.989,
00:00:08:900,0.236,0.434,0.759,178.955,-147.217,135.803,
00:00:08:916,0.237,0.5,0.702,80.871,-85.816,87.463,
00:00:08:933,0.291,0.462,0.678,105.163,-42.359,16.845,
00:00:08:950,0.311,0.438,0.708,53.405,2.075,-39.246,
00:00:08:966,0.306,0.546,0.758,27.282,20.874,-44.312,
00:00:08:983,0.3,0.544,0.814,68.115,8.361,-36.072,
00:00:09:0,0.323,0.59,0.862,98.999,-17.09,0.671,
00:00:09:16,0.313,0.619,0.862,183.838,-49.439,55.542,
00:00:09:33,0.315,0.608,0.855,347.168,-109.009,105.835,
00:00:09:50,0.316,0.532,0.847,510.254,-154.969,158.813,
00:00:09:66,0.301,0.564,0.833,731.872,-193.36,235.473,
00:00:09:83,0.326,0.57,0.878,1101.684,-260.437,273.315,
00:00:09:100,0.327,0.263,0.799,1303.527,-336.487,236.023,
00:00:09:116,0.288,0.016,0.733,1249.694,-336.121,232.971,
00:00:09:133,0.3,0.086,0.788,1238.281,-344.91,250.732,
00:00:09:150,0.248,0.195,0.832,1500.976,-366.944,215.454,
00:00:09:166,0.237,0.184,0.897,1880.493,-417.725,162.292,
00:00:09:183,0.203,0.101,0.891,1999.694,-469.605,130.371,
00:00:09:200,0.179,-0.035,0.904,1999.694,-531.128,90.576,
00:00:09:216,0.149,-0.19,0.898,1999.694,-581.727,51.208,
00:00:09:233,0.128,-0.303,0.855,1999.694,-592.225,0.549,
00:00:09:250,0.116,-0.424,0.824,1999.694,-609.925,-75.806,
00:00:09:266,0.078,-0.52,0.818,1999.694,-612.854,-116.272,
00:00:09:283,0.038,-0.542,0.81,1999.694,-595.032,-145.081,
00:00:09:300,-0.085,-0.882,0.572,1999.694,-547.608,-289.978,
00:00:09:316,-0.125,-1.046,0.549,1999.694,-489.624,-283.204,
00:00:09:333,-0.123,-1.083,0.525,1999.572,-418.457,-295.655,
00:00:09:350,-0.13,-1.095,0.468,1821.838,-362,-313.294,
00:00:09:366,-0.167,-1.112,0.415,1644.287,-327.149,-284.119,
00:00:09:383,-0.167,-1.048,0.405,1371.215,-269.288,-266.236,
00:00:09:400,-0.214,-1.066,0.332,1177.795,-213.318,-250.428,
00:00:09:416,-0.217,-1.094,0.285,790.1,-137.207,-170.96,
00:00:09:433,-0.23,-1.136,0.244,580.444,-103.516,-137.696,
00:00:09:450,-0.262,-1.111,0.208,382.507,-73.975,-100.647,
00:00:09:466,-0.297,-1.039,0.149,296.936,-44.739,-59.754,
00:00:09:483,-0.321,-1.001,0.094,291.015,-4.639,-40.65,
00:00:09:500,-0.339,-1.019,0.087,334.777,24.231,-12.818,
00:00:09:516,-0.348,-1.07,0.075,326.782,43.335,21.301,
00:00:09:533,-0.345,-1.128,0.045,262.329,57.556,58.471,
00:00:09:550,-0.368,-1.156,0.041,150.573,71.533,74.707,
00:00:09:566,-0.371,-1.138,0.045,38.818,94.97,97.229,
00:00:09:583,-0.385,-1.087,0.057,-15.992,112.182,105.774,
00:00:09:600,-0.383,-1.088,0.056,-77.149,126.098,114.196,
00:00:09:616,-0.395,-1.072,0.065,-139.588,137.573,142.639,
00:00:09:633,-0.408,-1.044,0.084,-169.678,155.334,176.88,
00:00:09:650,-0.428,-1.106,0.105,-177.552,151.001,204.284,
00:00:09:666,-0.44,-1.132,0.104,-259.461,156.555,230.59,
00:00:09:683,-0.458,-1.094,0.101,-305.42,161.987,258.728,
00:00:09:700,-0.427,-1.04,0.125,-278.687,152.465,292.663,
00:00:09:716,-0.364,-0.987,0.08,-185.364,144.531,314.331,
00:00:09:733,-0.323,-1.06,0.064,-143.86,129.577,332.763,
00:00:09:750,-0.274,-1.071,-0.008,-210.45,111.877,343.078,
00:00:09:766,-0.226,-1.027,-0.032,-271.241,118.713,347.778,
00:00:09:783,-0.165,-1.01,-0.046,-306.702,130.127,343.567,
00:00:09:800,-0.113,-1.014,-0.052,-367.188,127.929,338.44,
00:00:09:816,-0.085,-0.963,-0.04,-436.646,89.355,340.21,
00:00:09:833,-0.06,-0.895,-0.006,-372.742,135.315,324.707,
00:00:09:850,-0.033,-0.887,0.016,-339.905,137.085,316.406,
00:00:09:866,-0.019,-0.836,0.025,-340.699,133.422,309.692,
00:00:09:883,0.01,-0.731,0.039,-335.938,121.032,322.509,
00:00:09:900,0.047,-0.708,0.057,-308.35,127.685,323.852,
00:00:09:916,0.133,-0.728,0.065,-309.021,126.403,332.031,
00:00:09:933,0.184,-0.697,0.12,-273.865,114.99,327.392,
00:00:09:950,0.23,-0.729,0.112,-190.43,97.412,300.232,
00:00:09:966,0.257,-0.855,0.24,-167.786,74.157,257.446,
00:00:09:983,0.243,-0.964,-0.209,-47.486,-4.395,105.896,
00:00:10:0,0.207,-0.49,0.052,-108.216,-35.34,59.082,
00:00:10:16,0.295,-0.73,0.242,121.704,-35.096,74.462,
00:00:10:33,0.332,-0.8,0.078,118.103,-71.289,-5.677,
00:00:10:50,0.314,-0.772,0.012,91.98,-14.344,-20.264,
00:00:10:66,0.311,-0.846,0.172,138.733,-11.048,-23.499,
00:00:10:83,0.321,-0.929,0.21,156.738,8.85,-36.133,
00:00:10:100,0.222,-0.93,0.18,230.163,8.178,-42.603,
00:00:10:116,0.289,-0.881,0.135,271.972,4.577,-36.011,
00:00:10:133,0.295,-0.88,0.124,321.838,15.319,-35.401,
00:00:10:150,0.288,-0.942,0.096,303.466,27.526,-37.171,
00:00:10:166,0.265,-0.973,0.121,264.953,38.818,-46.021,
00:00:10:183,0.239,-0.949,0.174,274.658,27.465,-67.872,
00:00:10:200,0.219,-0.965,0.145,333.74,4.516,-98.938,
00:00:10:216,0.225,-0.977,0.146,363.586,-16.846,-118.47,
00:00:10:233,0.217,-1.041,0.088,353.759,-31.8,-185.12,
00:00:10:250,0.18,-1.02,0.127,342.102,-49.622,-184.937,
00:00:10:266,0.205,-1.005,0.127,350.463,-57.862,-187.317,
00:00:10:283,0.195,-0.977,0.121,365.234,-79.834,-186.829,
00:00:10:300,0.203,-0.951,0.013,402.649,-79.346,-208.619,
00:00:10:316,0.165,-1.009,0.035,398.742,-92.713,-197.876,
00:00:10:333,0.111,-1.09,-0.008,375.305,-86.304,-216.98,
00:00:10:350,0.127,-0.962,-0.077,358.276,-54.322,-215.271,
00:00:10:366,0.103,-0.985,-0.078,375.854,-4.456,-242.92,
00:00:10:383,0.087,-1.114,-0.132,394.531,22.705,-267.456,
00:00:10:400,0.046,-1.087,-0.059,303.283,3.173,-205.323,
00:00:10:416,-0.024,-0.993,-0.055,298.767,-18.494,-187.439,
00:00:10:433,-0.03,-1.036,-0.066,330.139,-28.992,-194.947,
00:00:10:450,-0.046,-1.093,-0.114,286.377,-40.039,-215.882,
00:00:10:466,-0.029,-0.998,-0.183,273.376,-16.236,-222.901,
00:00:10:483,-0.021,-1,-0.16,283.203,30.456,-225.098,
00:00:10:500,-0.026,-1.04,-0.187,275.634,79.528,-239.319,
00:00:10:516,-0.012,-1.081,-0.219,236.572,122.619,-229.248,
00:00:10:533,-0.039,-1.098,-0.171,204.467,136.779,-186.89,
00:00:10:550,-0.067,-1.145,-0.146,173.889,113.891,-166.138,
00:00:10:566,-0.069,-1.065,-0.147,118.042,78.857,-160.584,
00:00:10:583,-0.078,-1.063,-0.144,128.418,64.453,-182.312,
00:00:10:600,-0.089,-1.133,-0.175,137.451,81.237,-206.665,
00:00:10:616,-0.1,-1.216,-0.164,60.424,99.365,-213.623,
00:00:10:633,-0.119,-1.169,-0.168,-2.076,113.586,-206.482,flipLH
00:00:10:650,-0.133,-1.169,-0.11,23.376,117.981,-206.116,
00:00:10:666,-0.147,-1.217,-0.077,60.546,93.933,-215.21,
00:00:10:683,-0.168,-1.234,-0.077,62.316,52.795,-233.521,
00:00:10:700,-0.171,-1.214,-0.151,59.753,32.287,-270.081,
00:00:10:716,-0.185,-1.19,-0.162,21.24,17.578,-282.654,
00:00:10:733,-0.189,-1.186,-0.195,-7.019,23.62,-294.495,
00:00:10:750,-0.191,-1.215,-0.179,-59.51,28.137,-301.636,
00:00:10:766,-0.204,-1.215,-0.138,-131.287,19.287,-314.576,
00:00:10:783,-0.22,-1.218,-0.104,-223.206,7.629,-336.487,
00:00:10:800,-0.216,-1.159,-0.14,-341.797,-0.733,-336.853,
00:00:10:816,-0.206,-1.288,-0.135,-592.225,-8.24,-359.864,
00:00:10:833,-0.204,-1.274,-0.233,-997.803,15.319,-362,
00:00:10:850,-0.16,-1.179,-0.198,-1321.412,46.447,-348.572,
00:00:10:866,-0.148,-1.003,-0.102,-1456.91,87.036,-304.2,
00:00:10:883,-0.151,-1.033,-0.029,-1509.4,126.403,-293.824,
00:00:10:900,-0.154,-1.013,0.023,-1583.619,153.32,-267.334,
00:00:10:916,-0.155,-0.986,0.087,-1715.394,166.565,-231.751,
00:00:10:933,-0.152,-0.941,0.07,-1884.644,201.172,-202.942,
00:00:10:950,-0.151,-0.923,0.102,-1999.512,250.366,-180.176,
00:00:10:966,-0.154,-0.854,0.148,-2000,330.932,-115.174,
00:00:10:983,-0.159,-0.745,0.196,-2000,422.302,-60.669,
00:00:11:0,-0.116,-0.633,0.248,-2000,510.009,-29.602,
00:00:11:16,-0.079,-0.547,0.352,-2000,569.885,-3.663,
00:00:11:33,-0.067,-0.428,0.387,-2000,656.189,-16.602,
00:00:11:50,-0.032,-0.28,0.43,-2000,732.666,-50.66,
00:00:11:66,-0.019,-0.299,0.475,-2000,792.663,-127.991,
00:00:11:83,-0.013,-0.411,0.484,-2000,910.827,-209.595,
00:00:11:100,0.022,-0.385,0.497,-2000,1007.263,-193.36,
00:00:11:116,0.071,0.042,0.47,-2000,1050.048,-127.747,
00:00:11:133,0.071,0.309,0.615,-2000,952.148,-390.931,
00:00:11:150,0.05,0.286,0.653,-2000,884.46,-516.846,
00:00:11:166,0.052,0.381,0.71,-2000,860.962,-584.107,
00:00:11:183,0.09,0.59,0.847,-1795.044,827.636,-651.185,
00:00:11:200,0.18,0.789,0.933,-1141.48,723.022,-661.622,
00:00:11:216,0.223,0.775,0.988,-660.828,592.59,-682.251,
00:00:11:233,0.275,0.609,0.978,-468.445,490.356,-623.597,
00:00:11:250,0.44,0.373,0.483,-310.975,458.435,-514.1,
00:00:11:266,0.602,1.228,1.576,-634.4,81.054,-24.964,
00:00:11:283,0.327,0.786,1.036,-112.488,-28.748,-289.978,
00:00:11:300,0.196,1.083,1.145,-25.818,-62.806,67.688,
00:00:11:316,0.217,0.755,0.911,179.199,-99.976,-41.871,
00:00:11:333,0.207,0.645,0.876,239.502,-116.578,96.008,
00:00:11:350,0.212,0.49,0.776,219.055,-97.413,52.734,
00:00:11:366,0.229,0.497,0.723,114.929,-51.88,70.556,
00:00:11:383,0.25,0.532,0.726,113.708,-29.297,57.006,
00:00:11:400,0.264,0.489,0.723,141.601,0.976,22.949,
00:00:11:416,0.294,0.481,0.741,149.841,19.531,5.127,
00:00:11:433,0.313,0.507,0.777,199.768,6.53,19.226,
00:00:11:450,0.317,0.528,0.809,292.175,-25.513,45.593,
00:00:11:466,0.322,0.633,0.825,443.725,-59.021,135.192,
00:00:11:483,0.318,0.64,0.851,651.184,-133.057,159.912,
00:00:11:500,0.329,0.486,0.878,774.231,-211.792,233.337,
00:00:11:516,0.371,0.53,0.921,849.487,-256.592,349.121,
00:00:11:533,0.312,0.413,0.868,1042.541,-337.22,338.989,
00:00:11:550,0.302,0.184,0.886,1195.495,-394.898,331.604,
00:00:11:566,0.27,0.177,0.893,1352.417,-413.025,347.595,
00:00:11:583,0.236,0.185,0.916,1566.955,-454.834,316.345,
00:00:11:600,0.226,0.132,0.933,1760.986,-498.536,278.625,
00:00:11:616,0.209,0.078,0.945,1904.113,-554.139,255.981,
00:00:11:633,0.185,0.05,0.944,1992.065,-615.479,238.769,
00:00:11:650,0.142,-0.025,0.897,1999.694,-666.321,177.124,
00:00:11:666,0.098,-0.174,0.863,1999.694,-711.853,108.154,
00:00:11:683,0.026,-0.311,0.812,1999.694,-713.99,64.086,
00:00:11:700,-0.03,-0.404,0.779,1999.694,-686.341,44.921,
00:00:11:716,-0.034,-0.424,0.718,1999.694,-659.302,-5.799,
00:00:11:733,-0.069,-0.531,0.692,1999.694,-641.907,-38.697,
00:00:11:750,-0.138,-0.658,0.674,1999.694,-615.296,-67.749,
00:00:11:766,-0.183,-0.72,0.663,1999.694,-543.335,-87.22,
00:00:11:783,-0.18,-0.752,0.604,1999.694,-489.441,-106.751,
00:00:11:800,-0.195,-0.858,0.519,1999.694,-466.065,-131.958,
00:00:11:816,-0.233,-0.995,0.472,1999.694,-440.491,-138.489,
00:00:11:833,-0.257,-1.075,0.425,1979.37,-391.907,-114.441,
00:00:11:850,-0.237,-1.061,0.381,1728.698,-327.027,-61.158,
00:00:11:866,-0.25,-1.044,0.306,1405.944,-261.353,-39.734,
00:00:11:883,-0.257,-1.04,0.257,1165.283,-199.158,-6.531,
00:00:11:900,-0.248,-1.062,0.193,952.148,-140.503,25.573,
00:00:11:916,-0.242,-1.062,0.161,789.123,-88.868,46.02,
00:00:11:933,-0.228,-1.059,0.106,707.58,-51.88,70.068,
00:00:11:950,-0.214,-1.132,0.052,636.474,-36.988,94.909,
00:00:11:966,-0.214,-1.197,0.011,483.642,-8.667,106.689,
00:00:11:983,-0.221,-1.181,-0.018,328.247,12.451,107.238,
00:00:12:0,-0.246,-1.191,0.003,194.763,49.011,109.985,
00:00:12:16,-0.26,-1.146,-0.021,122.985,74.89,102.722,
00:00:12:33,-0.265,-1.154,-0.008,76.66,74.096,87.036,
00:00:12:50,-0.29,-1.108,0.011,35.888,73.181,83.496,
00:00:12:66,-0.312,-1.081,-0.037,18.676,73.791,77.392,
00:00:12:83,-0.351,-1.097,-0.045,-21.912,88.44,89.66,
00:00:12:100,-0.393,-1.101,-0.035,-112.732,109.619,103.881,
00:00:12:116,-0.423,-1.113,-0.015,-188.05,125.244,121.765,
00:00:12:133,-0.44,-1.081,0.018,-224.976,143.493,141.723,
00:00:12:150,-0.449,-1.087,0.007,-219.056,145.996,144.958,
00:00:12:166,-0.442,-1.068,0.026,-210.877,146.667,153.93,
00:00:12:183,-0.444,-1.029,0.021,-191.102,159.24,163.818,
00:00:12:200,-0.445,-1.027,0.042,-177.491,165.893,179.443,
00:00:12:216,-0.422,-1.02,0.022,-188.843,166.504,192.749,
00:00:12:233,-0.374,-1.037,0.014,-237.427,153.869,201.843,
00:00:12:250,-0.335,-1.013,0.015,-265.809,167.297,218.872,
00:00:12:266,-0.299,-1.019,0.016,-273.743,170.166,236.572,
00:00:12:283,-0.221,-1.027,0.004,-239.563,166.198,236.206,
00:00:12:300,-0.176,-1.006,0.021,-227.417,150.695,225.341,
00:00:12:316,-0.12,-0.963,0.032,-263.245,133.972,213.623,
00:00:12:333,-0.073,-0.9,0.065,-361.817,104.187,253.234,
00:00:12:350,-0.038,-0.853,0.076,-395.508,108.398,307.251,
00:00:12:366,0.002,-0.835,0.081,-375.184,119.506,351.562,
00:00:12:383,0.045,-0.836,0.095,-335.694,137.634,391.479,
00:00:12:400,0.08,-0.825,0.06,-304.139,141.723,415.1,
00:00:12:416,0.127,-0.784,0.064,-298.951,160.705,435.608,
00:00:12:433,0.173,-0.783,0.089,-283.326,168.335,433.715,
00:00:12:450,0.218,-0.8,0.088,-268.189,165.466,410.461,
00:00:12:466,0.235,-0.827,0.138,-246.216,143.371,362.732,
00:00:12:483,0.421,-0.717,0.021,-180.359,157.776,278.747,
00:00:12:500,0.702,-1.379,1,177.246,67.81,112.487,
00:00:12:516,0.866,-1.451,-0.132,191.223,48.095,-127.198,
00:00:12:533,-0.013,-0.556,0.1,-241.822,-158.631,-78.492,
00:00:12:550,0.147,-0.635,0.2,6.713,-59.815,-54.81,
00:00:12:566,0.246,-0.612,0.047,-37.842,-17.212,48.828,
00:00:12:583,0.236,-0.812,0.147,-49.317,-48.035,77.026,
00:00:12:600,0.289,-0.934,0.105,6.408,-30.762,32.531,
00:00:12:616,0.234,-1.026,0.119,-10.01,-34.363,-2.625,
00:00:12:633,0.205,-1.004,0.189,-16.968,-15.076,-34.852,
00:00:12:650,0.216,-1.022,0.26,45.166,-2.503,-33.997,
00:00:12:666,0.283,-1.173,0.328,25.634,-21.241,-75.867,
00:00:12:683,0.281,-1.067,0.36,7.446,-50.477,-80.933,
00:00:12:700,0.303,-1.085,0.286,24.78,-33.814,-93.689,
00:00:12:716,0.305,-1.069,0.282,-10.621,-26.368,-81.36,
00:00:12:733,0.293,-1.047,0.254,-27.466,4.455,-63.477,
00:00:12:750,0.264,-1.093,0.224,-57.129,47.79,-37.903,
00:00:12:766,0.245,-1.101,0.225,-107.727,60.73,-35.401,
00:00:12:783,0.193,-1.084,0.227,-128.174,48.767,-63.233,
00:00:12:800,0.102,-1.074,0.278,-122.864,32.531,-77.149,
00:00:12:816,0.05,-1,0.26,-109.986,8.911,-87.281,
00:00:12:833,0.005,-0.995,0.257,-98.511,-15.259,-89.722,
00:00:12:850,0.001,-0.964,0.202,-107.056,-11.17,-74.952,
00:00:12:866,0.01,-0.966,0.155,-128.113,-1.526,-68.848,
00:00:12:883,0.02,-0.953,0.144,-153.931,11.413,-69.397,
00:00:12:900,0.048,-0.963,0.141,-160.645,33.63,-88.746,
00:00:12:916,0.069,-0.984,0.198,-158.02,40.466,-106.934,
00:00:12:933,0.087,-0.902,0.265,-122.376,34.973,-132.142,
00:00:12:950,0.067,-0.891,0.284,-45.044,27.832,-142.395,
00:00:12:966,0.063,-0.879,0.244,-35.706,6.836,-138.367,
00:00:12:983,0.043,-0.834,0.204,-58.289,-3.113,-124.756,
00:00:13:0,0.017,-0.789,0.204,-86.914,-16.419,-81.177,
00:00:13:16,-0.004,-0.72,0.231,-108.521,-24.292,-32.532,
00:00:13:33,0.012,-0.692,0.194,-99.732,-20.997,23.498,
00:00:13:50,0.067,-0.751,0.149,-72.815,1.159,59.021,
00:00:13:66,0.139,-0.819,0.113,-67.017,39.245,78.308,
00:00:13:83,0.184,-0.822,0.13,-76.172,73.486,89.355,
00:00:13:100,0.207,-0.82,0.212,-56.336,100.525,96.801,
00:00:13:116,0.232,-0.713,0.264,-28.565,112.548,118.042,
00:00:13:133,0.228,-0.769,0.315,62.316,110.412,136.23,
00:00:13:150,0.259,-0.751,0.283,105.957,103.271,142.578,
00:00:13:166,0.308,-0.838,0.249,157.592,82.275,123.047,
00:00:13:183,0.323,-0.913,0.215,172.973,70.251,73.974,
00:00:13:200,0.32,-0.961,0.228,155.761,68.054,44.067,
00:00:13:216,0.388,-0.829,0.248,149.047,117.92,21.606,
00:00:13:233,0.354,-1.261,0.291,221.679,76.721,-145.081,
00:00:13:250,0.287,-1.111,0.454,108.825,12.939,-89.417,
00:00:13:266,0.243,-0.991,0.357,235.656,3.845,-104.615,
00:00:13:283,0.302,-1.001,0.3,270.08,-28.077,-115.174,
00:00:13:300,0.272,-1.002,0.32,285.949,-47.425,-133.851,
00:00:13:316,0.281,-1.023,0.295,247.924,-73.121,-157.776,
00:00:13:333,0.239,-1.002,0.227,307.067,-69.092,-149.109,
00:00:13:350,0.243,-1.023,0.128,292.48,-65.857,-152.466,
00:00:13:366,0.167,-0.965,0.116,281.738,-45.533,-138.55,
00:00:13:383,0.15,-1.041,0.1,265.869,4.699,-152.649,
00:00:13:400,0.143,-0.975,0.13,243.164,45.898,-171.936,
00:00:13:416,0.088,-0.948,0.162,297.18,64.575,-216.736,
00:00:13:433,0.034,-1.11,0.127,393.005,39.917,-242.615,
00:00:13:450,0.016,-1.051,0.157,421.386,-12.574,-207.154,
00:00:13:466,-0.052,-0.99,0.052,461.12,-26.917,-225.159,
00:00:13:483,0.018,-0.991,-0.006,489.135,-7.813,-255.799,
00:00:13:500,0.045,-0.962,-0.065,479.431,33.508,-242.737,
00:00:13:516,0.028,-1.049,-0.029,435.363,69.519,-272.278,
00:00:13:533,0.051,-1.159,-0.059,348.999,79.834,-273.865,
00:00:13:550,0.068,-1.177,0.015,304.26,61.889,-252.564,
00:00:13:566,0.008,-1.14,0.002,308.776,43.579,-255.982,
00:00:13:583,-0.055,-1.222,-0.041,323.73,40.344,-307.923,
00:00:13:600,-0.158,-1.216,-0.031,201.599,52.612,-320.923,
00:00:13:616,-0.165,-1.329,-0.026,182.067,40.039,-359.009,
00:00:13:633,-0.203,-1.36,-0.012,65.734,7.934,-356.69,
00:00:13:650,-0.188,-1.268,-0.02,-113.099,-10.621,-368.103,flipLH
00:00:13:666,-0.168,-1.294,-0.046,-342.896,2.258,-365.662,
00:00:13:683,-0.174,-1.303,-0.05,-705.262,23.193,-368.103,
00:00:13:700,-0.162,-1.18,-0.027,-996.46,37.048,-345.643,
00:00:13:716,-0.136,-1.034,0.031,-1057.923,58.166,-323.975,
00:00:13:733,-0.118,-1.008,0.074,-999.634,72.753,-293.58,
00:00:13:750,-0.116,-1.051,0.109,-974.61,95.336,-270.874,
00:00:13:766,-0.119,-1.133,0.115,-1108.643,125.854,-262.635,
00:00:13:783,-0.124,-1.167,0.114,-1377.442,163.269,-220.337,
00:00:13:800,-0.119,-1.111,0.118,-1770.569,202.514,-186.341,
00:00:13:816,-0.125,-0.995,0.129,-2000,250.671,-120.24,
00:00:13:833,-0.141,-0.855,0.162,-2000,326.233,-49.744,
00:00:13:850,-0.137,-0.679,0.301,-2000,460.632,63.659,
00:00:13:866,-0.103,-0.501,0.413,-2000,514.587,73.303,
00:00:13:883,-0.083,-0.43,0.457,-2000,557.373,29.968,
00:00:13:900,-0.054,-0.396,0.5,-2000,591.674,1.403,
00:00:13:916,-0.028,-0.323,0.474,-2000,668.701,71.472,
00:00:13:933,0.009,-0.096,0.409,-2000,714.66,201.416,
00:00:13:950,0.026,0.134,0.447,-2000,665.893,64.758,
00:00:13:966,0.084,0.377,0.594,-2000,646.118,-44.312,
00:00:13:983,0.131,0.438,0.651,-2000,643.005,-225.892,
00:00:14:0,0.19,0.444,0.752,-2000,613.22,-370.789,
00:00:14:16,0.261,0.476,0.838,-1450.867,587.341,-460.45,
00:00:14:33,0.253,0.342,0.84,-1007.02,560.363,-617.066,
00:00:14:50,0.291,0.329,0.824,-855.774,558.776,-653.748,
00:00:14:66,0.323,0.535,0.78,-769.41,535.583,-622.681,
00:00:14:83,0.338,0.758,0.794,-635.437,497.68,-634.644,
00:00:14:100,0.326,0.732,0.792,-449.707,443.176,-623.352,
00:00:14:116,0.32,0.677,0.681,-358.582,421.508,-554.261,
00:00:14:133,0.493,0.627,0.54,-331.116,415.405,-402.283,
00:00:14:150,0.392,1.14,1.252,-170.35,169.25,-348.023,
00:00:14:166,0.31,0.777,0.973,34.24,117.187,-163.147,
00:00:14:183,0.281,1.066,0.921,134.216,58.715,-13.977,
00:00:14:200,0.226,0.772,0.869,385.803,-21.119,6.897,
00:00:14:216,0.305,0.518,0.822,306.274,-27.832,53.894,
00:00:14:233,0.271,0.585,0.822,204.101,-12.269,91.125,
00:00:14:250,0.268,0.584,0.812,206.482,-12.024,70.373,
00:00:14:266,0.314,0.489,0.79,205.688,-9.4,46.386,
00:00:14:283,0.332,0.515,0.796,162.109,1.709,31.799,
00:00:14:300,0.341,0.521,0.796,177.185,-9.949,14.953,
00:00:14:316,0.335,0.437,0.783,182.556,-22.4,-4.944,
00:00:14:333,0.318,0.484,0.775,156.433,-15.87,19.653,
00:00:14:350,0.299,0.586,0.789,215.393,-21.424,36.926,
00:00:14:366,0.309,0.564,0.771,263.977,-30.701,43.762,
00:00:14:383,0.318,0.492,0.768,258.117,-33.448,62.5,
00:00:14:400,0.308,0.471,0.774,228.393,-13.245,81.115,
00:00:14:416,0.298,0.494,0.773,237.915,1.464,82.458,
00:00:14:433,0.31,0.431,0.804,264.526,1.22,48.767,
00:00:14:450,0.32,0.426,0.826,246.704,19.531,56.152,
00:00:14:466,0.34,0.438,0.827,221.679,15.502,65.856,
00:00:14:483,0.36,0.399,0.846,168.884,-3.602,74.951,
00:00:14:500,0.383,0.403,0.858,122.619,-17.212,93.2,
00:00:14:516,0.393,0.419,0.879,121.399,-48.89,92.895,
00:00:14:533,0.398,0.406,0.887,151.306,-67.383,80.749,
00:00:14:550,0.41,0.456,0.87,216.003,-75.623,69.885,
00:00:14:566,0.427,0.419,0.852,257.446,-116.517,36.071,
00:00:14:583,0.412,0.355,0.832,209.106,-150.025,41.198,
00:00:14:600,0.397,0.449,0.864,161.438,-172.608,72.815,
00:00:14:616,0.368,0.516,0.888,262.085,-208.435,84.777,
00:00:14:633,0.347,0.463,0.899,422.18,-237.977,77.819,
00:00:14:650,0.352,0.444,0.877,692.688,-266.48,73.059,
00:00:14:666,0.327,0.384,0.929,879.272,-320.496,56.213,
00:00:14:683,0.279,0.26,0.902,941.589,-326.172,34.301,
00:00:14:700,0.232,0.239,0.852,990.051,-318.36,37.719,
00:00:14:716,0.22,0.228,0.878,1086.547,-334.778,37.719,
00:00:14:733,0.205,0.184,0.857,1239.99,-358.643,14.282,
00:00:14:750,0.161,0.143,0.907,1381.836,-398.438,6.836,
00:00:14:766,0.139,0.048,0.902,1492.004,-411.377,-22.095,
00:00:14:783,0.135,-0.057,0.937,1530.212,-434.937,-36.072,
00:00:14:800,0.109,-0.104,0.951,1540.832,-443.482,-34.485,
00:00:14:816,0.093,-0.074,0.961,1677.978,-455.628,-45.411,
00:00:14:833,0.063,-0.106,0.94,1894.836,-489.075,-72.571,
00:00:14:850,0.017,-0.205,0.873,1999.694,-522.156,-108.826,
00:00:14:866,-0.008,-0.353,0.85,1999.694,-544.373,-127.381,
00:00:14:883,-0.017,-0.469,0.801,1999.694,-555.054,-122.376,
00:00:14:900,-0.063,-0.588,0.772,1999.633,-560.669,-125.184,
00:00:14:916,-0.117,-0.662,0.732,1909.973,-537.598,-106.812,
00:00:14:933,-0.153,-0.695,0.694,1658.569,-486.451,-98.145,
00:00:14:950,-0.152,-0.706,0.671,1478.454,-459.717,-85.999,
00:00:14:966,-0.157,-0.729,0.602,1410.339,-456.665,-90.149,
00:00:14:983,-0.185,-0.779,0.56,1363.647,-455.628,-72.022,
00:00:15:0,-0.207,-0.846,0.497,1273.376,-451.477,-70.008,
00:00:15:16,-0.246,-0.894,0.478,1204.956,-428.894,-66.285,
00:00:15:33,-0.222,-0.917,0.451,1177.673,-401.429,-80.445,
00:00:15:50,-0.236,-0.962,0.407,1210.205,-390.015,-107.239,
00:00:15:66,-0.24,-1.024,0.394,1239.868,-385.315,-130.005,
00:00:15:83,-0.211,-1.019,0.369,1114.563,-378.663,-144.532,
00:00:15:100,-0.244,-1.048,0.331,972.107,-374.268,-163.697,
00:00:15:116,-0.261,-1.051,0.263,783.203,-350.037,-171.387,
00:00:15:133,-0.294,-1.045,0.244,640.747,-316.956,-189.331,
00:00:15:150,-0.327,-1.065,0.202,548.95,-268.677,-188.904,
00:00:15:166,-0.353,-1.1,0.218,454.467,-222.596,-182.679,
00:00:15:183,-0.365,-1.101,0.181,380.31,-187.806,-179.688,
00:00:15:200,-0.392,-1.111,0.173,281.616,-167.603,-146.424,
00:00:15:216,-0.421,-1.043,0.184,178.833,-134.766,-126.404,
00:00:15:233,-0.439,-0.957,0.169,181.762,-101.258,-84.046,
00:00:15:250,-0.444,-0.914,0.137,233.093,-54.688,-64.881,
00:00:15:266,-0.437,-0.92,0.124,284.973,-4.883,-39.002,
00:00:15:283,-0.426,-0.913,0.1,301.086,27.343,-3.174,
00:00:15:300,-0.419,-0.913,0.08,321.289,73.425,32.287,
00:00:15:316,-0.428,-0.968,0.076,357.299,110.901,55.358,
00:00:15:333,-0.391,-0.876,-0.033,530.456,160.827,122.985,
00:00:15:350,-0.379,-0.857,-0.096,582.885,182.373,148.62,
00:00:15:366,-0.358,-0.942,-0.197,520.385,192.871,163.879,
00:00:15:383,-0.368,-0.958,-0.2,290.527,211.731,197.937,
00:00:15:400,-0.386,-0.844,-0.181,153.686,219.421,229.248,
00:00:15:416,-0.375,-0.88,-0.099,121.276,230.957,263.977,
00:00:15:433,-0.319,-0.93,-0.048,90.026,227.234,288.818,
00:00:15:450,-0.27,-0.952,0.03,74.401,199.707,302.185,
00:00:15:466,-0.224,-0.945,0.019,67.932,161.438,311.645,
00:00:15:483,-0.174,-0.919,-0.026,70.495,121.215,310.424,
00:00:15:500,-0.118,-0.935,-0.078,68.725,91.796,310.791,
00:00:15:516,-0.075,-0.962,-0.148,15.991,81.054,313.781,
00:00:15:533,-0.04,-1.007,-0.152,-67.749,98.938,324.829,
00:00:15:550,0.001,-1.108,-0.103,-173.218,109.436,325.439,
00:00:15:566,0.017,-1.046,-0.055,-207.703,108.947,304.626,
00:00:15:583,0.034,-1.032,-0.034,-158.875,113.952,283.63,
00:00:15:600,0.045,-1.033,-0.052,-132.813,128.418,272.888,
00:00:15:616,0.047,-1.022,-0.061,-169.861,130.615,269.836,
00:00:15:633,0.059,-1.053,-0.063,-160.706,152.16,244.567,flipLH
00:00:15:650,0.102,-1.066,-0.042,-145.691,139.038,203.43,
00:00:15:666,0.108,-1.039,-0.032,-117.31,120.788,159.24,
00:00:15:683,0.113,-1,-0.032,-126.282,98.938,121.948,
00:00:15:700,0.097,-0.906,-0.049,-101.014,90.332,90.393,
00:00:15:716,0.088,-0.915,-0.047,-47.486,79.589,67.932,
00:00:15:733,0.093,-0.958,-0.026,-30.945,77.087,50.415,
00:00:15:750,0.107,-0.965,-0.014,-15.809,66.833,36.621,
00:00:15:766,0.125,-0.976,-0.006,16.479,51.147,14.587,
00:00:15:783,0.138,-0.964,-0.01,42.114,42.297,-0.367,
00:00:15:800,0.138,-0.866,-0.053,45.288,32.409,10.925,
00:00:15:816,0.118,-0.905,-0.059,148.498,38.208,-16.297,
00:00:15:833,0.137,-0.93,-0.089,105.774,26.306,-18.433,
00:00:15:850,0.095,-0.915,0.041,137.39,12.756,-9.4,
00:00:15:866,0.151,-1.11,-0.059,254.272,-3.54,-83.619,
00:00:15:883,0.037,-1.08,-0.023,197.876,-12.33,-111.39,
00:00:15:900,0.07,-1.05,-0.001,182.739,-34.424,-81.299,
00:00:15:916,0.062,-1.087,-0.071,209.9,-25.391,-98.572,
00:00:15:933,-0.01,-1.174,-0.032,97.168,-43.946,-95.826,
00:00:15:950,0,-1.007,-0.079,87.402,-25.086,-79.102,
00:00:15:966,-0.024,-1.061,-0.111,133.117,-6.653,-99.854,
00:00:15:983,-0.031,-1.042,-0.099,136.718,10.376,-130.249,
00:00:16:0,-0.027,-1.004,-0.082,155.456,37.658,-140.625,
00:00:16:16,-0.035,-1.074,-0.107,167.236,46.264,-135.376,
00:00:16:33,-0.028,-1.103,-0.138,17.456,81.054,-184.998,
00:00:16:50,-0.075,-1.158,-0.084,22.399,80.139,-207.337,
00:00:16:66,-0.08,-1.109,-0.105,-11.109,81.481,-227.234,
00:00:16:83,-0.095,-1.1,-0.115,-76.111,80.749,-241.822,
00:00:16:100,-0.095,-1.108,-0.106,-161.805,80.932,-260.01,
00:00:16:116,-0.098,-1.074,-0.078,-176.087,75.256,-271.058,
00:00:16:133,-0.108,-1.105,-0.064,-165.406,70.983,-289.185,
00:00:16:150,-0.129,-1.11,-0.064,-166.748,53.344,-305.115,
00:00:16:166,-0.145,-1.119,-0.057,-172.425,49.926,-323.914,
00:00:16:183,-0.165,-1.142,-0.058,-250.672,53.283,-335.206,
00:00:16:200,-0.171,-1.163,-0.059,-431.519,71.411,-348.206,
00:00:16:216,-0.137,-1.192,-0.015,-634.034,75.988,-360.047,
00:00:16:233,-0.168,-1.023,0.061,-655.823,50.354,-325.379,
00:00:16:250,-0.173,-1.007,0.124,-472.962,33.752,-329.773,
00:00:16:266,-0.191,-1.065,0.113,-353.577,9.826,-352.112,
00:00:16:283,-0.216,-1.236,0.031,-504.517,14.953,-395.203,
00:00:16:300,-0.205,-1.394,-0.052,-997.62,49.194,-410.096,
00:00:16:316,-0.206,-1.358,-0.079,-1569.153,86.853,-337.952,
00:00:16:333,-0.156,-0.784,0.328,-2000,187.194,-187.073,
00:00:16:350,-0.17,-0.762,0.338,-2000,174.438,-148.865,
00:00:16:366,-0.19,-0.755,0.324,-2000,206.726,-110.657,
00:00:16:383,-0.209,-0.753,0.339,-2000,276.489,-74.83,
00:00:16:400,-0.222,-0.69,0.324,-2000,379.089,-16.541,
00:00:16:416,-0.216,-0.557,0.388,-2000,494.384,3.662,
00:00:16:433,-0.205,-0.372,0.303,-2000,620.178,4.394,
00:00:16:450,-0.161,-0.099,0.34,-2000,697.326,24.169,
00:00:16:466,-0.103,0.044,0.341,-2000,730.346,-22.95,
00:00:16:483,-0.062,0.115,0.454,-2000,762.146,-87.708,
00:00:16:500,-0.017,0.276,0.638,-2000,769.653,-168.519,
00:00:16:516,0.079,0.338,0.87,-1167.542,723.327,-559.144,
00:00:16:533,0.074,0.196,0.852,-672.12,659.729,-689.454,
00:00:16:550,0.066,0.09,0.774,-515.625,667.236,-749.817,
00:00:16:566,0.144,0.189,0.72,-529.358,698.059,-715.149,
00:00:16:583,0.206,0.456,0.728,-525.818,719.787,-710.45,
00:00:16:600,0.354,0.795,0.824,-55.176,677.002,-635.132,
00:00:16:616,0.611,0.776,0.609,158.752,620.117,-491.944,
00:00:16:633,0.794,1.111,1.92,55.053,248.84,-357.422,
00:00:16:650,0.417,0.482,1.279,236.389,130.005,-225.342,
00:00:16:667,0.422,1.059,1.246,117.859,26.55,111.511,
00:00:16:683,0.339,0.435,1.192,294.189,-118.897,55.053,
00:00:16:700,0.286,0.402,0.986,183.471,-132.813,107.422,
00:00:16:717,0.252,0.395,0.766,62.133,-77.637,14.892,
00:00:16:733,0.27,0.389,0.739,13.549,-34.241,-44.007,
00:00:16:750,0.307,0.468,0.768,-21.363,5.004,-50.843,
00:00:16:767,0.294,0.518,0.777,37.475,13.366,-40.833,
00:00:16:783,0.331,0.557,0.793,113.952,17.578,-6.47,
00:00:16:800,0.33,0.536,0.804,211.853,-13.733,35.217,
00:00:16:817,0.354,0.551,0.829,282.043,-40.589,113.342,
00:00:16:833,0.377,0.56,0.815,395.813,-94.056,181.579,
00:00:16:850,0.375,0.427,0.871,506.897,-154.786,227.722,
00:00:16:867,0.373,0.382,0.894,607.055,-204.407,304.87,
00:00:16:883,0.371,0.449,0.942,836.242,-263.977,356.872,
00:00:16:900,0.366,0.486,0.972,1199.646,-330.689,388.61,
00:00:16:917,0.308,0.081,0.818,1349.06,-397.95,282.104,
00:00:16:933,0.316,-0.174,0.871,1105.835,-420.289,287.536,
00:00:16:950,0.291,-0.034,0.98,858.093,-417.664,342.407,
00:00:16:967,0.252,0.11,1.067,920.532,-450.684,304.26,
00:00:16:983,0.245,0.208,1.109,1239.074,-498.108,274.414,
00:00:17:0,0.192,0.042,1.085,1812.866,-588.929,133.972,
00:00:17:17,0.126,-0.099,1.006,1873.718,-593.384,77.941,
00:00:17:33,0.127,-0.265,1.002,1946.35,-624.695,-5.127,
00:00:17:50,0.101,-0.309,1.045,1900.207,-616.456,-2.381,
00:00:17:67,0.064,-0.366,1.002,1836.853,-600.464,-72.693,
00:00:17:83,0.006,-0.44,0.966,1705.81,-573.304,-99.122,
00:00:17:100,-0.023,-0.45,0.921,1553.65,-511.17,-100.098,
00:00:17:117,-0.045,-0.469,0.88,1422.119,-444.703,-118.592,
00:00:17:133,-0.046,-0.487,0.854,1368.652,-383.728,-141.602,
00:00:17:150,-0.054,-0.561,0.818,1353.149,-352.845,-188.843,
00:00:17:167,-0.101,-0.652,0.763,1398.742,-329.163,-205.018,
00:00:17:183,-0.106,-0.641,0.788,1333.374,-283.997,-118.775,
00:00:17:200,-0.105,-0.67,0.726,1293.213,-260.132,-143.25,
00:00:17:217,-0.121,-0.761,0.669,1246.46,-252.442,-146.363,
00:00:17:233,-0.199,-0.934,0.571,1006.897,-196.106,-121.521,
00:00:17:250,-0.227,-0.943,0.54,903.442,-196.412,-107.117,
00:00:17:267,-0.328,-0.795,0.369,868.896,-155.213,-36.866,
00:00:17:283,-0.372,-0.83,0.286,864.624,-133.606,-6.348,
00:00:17:300,-0.41,-0.92,0.249,755.493,-100.159,11.596,
00:00:17:317,-0.401,-0.912,0.227,586.364,-47.303,46.875,
00:00:17:333,-0.4,-0.848,0.181,479.736,-3.846,95.336,
00:00:17:350,-0.428,-0.815,0.15,476.257,52.551,131.042,
00:00:17:367,-0.428,-0.796,0.145,511.291,104.614,143.371,
00:00:17:383,-0.436,-0.849,0.148,534.79,143.188,183.471,
00:00:17:400,-0.426,-0.909,0.141,475.83,184.997,222.351,
00:00:17:417,-0.41,-0.972,0.194,399.536,198.974,240.173,
00:00:17:433,-0.395,-1.009,0.149,303.283,201.416,237.06,
00:00:17:450,-0.344,-1.033,0.182,246.46,198.303,226.257,
00:00:17:467,-0.305,-1.058,0.191,190.979,190.918,206.726,
00:00:17:483,-0.263,-1.038,0.194,114.318,173.217,204.223,
00:00:17:500,-0.225,-1.02,0.152,68.115,162.414,200.683,
00:00:17:517,-0.165,-1.064,0.13,27.832,154.968,205.444,
00:00:17:533,-0.113,-1.131,0.131,-64.209,157.165,216.369,
00:00:17:550,-0.061,-1.142,0.185,-170.166,162.658,245.605,
00:00:17:567,-0.005,-1.123,0.224,-208.069,165.161,257.568,
00:00:17:583,0.101,-1.05,0.081,-133.484,171.203,285.4,
00:00:17:600,0.117,-1.083,0.082,-168.58,193.481,288.452,
00:00:17:617,0.2,-1.079,0.029,-245.179,232.788,281.311,
00:00:17:633,0.26,-1.079,0.084,-270.508,246.338,250.549,
00:00:17:650,0.317,-1.072,0.097,-273.926,267.151,210.571,
00:00:17:667,0.342,-1.049,0.108,-284.79,250.366,162.475,
00:00:17:683,0.322,-0.991,0.157,-294.373,219.726,134.643,
00:00:17:700,0.074,-0.831,0.208,-204.041,105.041,115.417,
00:00:17:717,-0.047,-0.789,0.21,-207.886,71.533,135.986,
00:00:17:733,-0.117,-0.728,0.196,-175.843,64.331,165.1,
00:00:17:750,-0.131,-0.742,0.193,-124.451,71.167,184.692,
00:00:17:767,-0.098,-0.747,0.197,-115.418,78.796,189.514,
00:00:17:783,-0.051,-0.753,0.217,-91.004,76.721,183.899,
00:00:17:800,0.031,-0.786,0.247,-68.665,73.791,180.969,
00:00:17:817,0.09,-0.806,0.263,-50.843,59.021,163.574,
00:00:17:833,0.134,-0.829,0.271,-21.18,56.884,146.545,
00:00:17:850,0.18,-0.837,0.265,-2.93,52.063,124.511,
00:00:17:867,0.211,-0.807,0.245,30.7,40.649,103.393,
00:00:17:883,0.304,-0.798,0.139,273.559,19.775,-29.602,
00:00:17:900,0.312,-0.796,0.136,309.448,16.418,-48.096,
00:00:17:917,0.312,-0.851,0.14,339.538,23.437,-78.98,
00:00:17:933,0.32,-0.865,0.162,335.693,20.69,-100.098,
00:00:17:950,0.34,-0.851,0.205,366.272,14.526,-117.615,
00:00:17:967,0.346,-0.819,0.156,442.199,-0.123,-156.983,
00:00:17:983,0.339,-0.909,0.152,505.493,-23.133,-198.487,
00:00:18:0,0.304,-0.985,0.07,531.799,-52.124,-211.06,
00:00:18:17,0.263,-1.035,0.15,519.592,-78.797,-161.194,
00:00:18:33,0.376,-1.078,-0.17,455.749,-79.529,-349.427,
00:00:18:50,0.165,-1.166,0.194,470.092,-122.681,-252.625,
00:00:18:67,0.161,-1.029,0.06,402.649,-144.349,-283.692,
00:00:18:83,0.125,-0.947,-0.005,452.209,-138.672,-265.931,
00:00:18:100,0.08,-1.018,-0.019,461.609,-117.493,-278.138,
00:00:18:117,0.083,-1.105,-0.009,404.724,-98.206,-276.307,
00:00:18:133,0.026,-1.107,-0.002,348.632,-92.835,-242.676,
00:00:18:150,0.005,-1.09,-0.01,365.417,-78.309,-236.695,
00:00:18:167,-0.025,-1.168,-0.032,383.606,-46.936,-252.137,
00:00:18:183,-0.027,-1.302,0.001,310.608,-38.514,-294.678,
00:00:18:200,-0.084,-1.276,0.002,179.138,-9.278,-285.828,
00:00:18:217,-0.105,-1.334,-0.031,150.207,3.723,-319.764,
00:00:18:233,-0.131,-1.362,-0.007,71.777,6.408,-329.834,
00:00:18:250,-0.19,-1.357,-0.033,5.554,18.188,-347.657,
00:00:18:267,-0.187,-1.362,-0.01,-99.671,35.339,-360.779,
00:00:18:283,-0.234,-1.227,0.004,-396.119,42.358,-388.245,
00:00:18:300,-0.245,-1.217,0.037,-565.369,58.715,-381.104,
00:00:18:317,-0.25,-1.249,-0.004,-859.192,89.904,-367.432,
00:00:18:333,-0.229,-1.252,0.001,-1231.019,125.183,-351.38,
00:00:18:350,-0.183,-1.172,0.036,-1622.437,139.648,-328.431,
00:00:18:367,-0.137,-1.055,0.095,-1895.691,144.287,-276.246,
00:00:18:383,-0.089,-0.96,0.173,-1979.859,147.461,-205.933,
00:00:18:400,-0.064,-0.896,0.229,-2000,141.967,-161.011,
00:00:18:417,-0.044,-0.875,0.279,-2000,127.868,-128.174,
00:00:18:433,-0.036,-0.865,0.362,-2000,110.107,-95.52,
00:00:18:450,-0.046,-0.857,0.392,-2000,131.347,-69.092,
00:00:18:467,-0.057,-0.837,0.361,-2000,167.724,-21.485,
00:00:18:483,-0.072,-0.769,0.411,-2000,221.74,43.823,
00:00:18:500,-0.044,-0.614,0.424,-2000,291.076,28.564,
00:00:18:517,-0.037,-0.384,0.476,-2000,379.211,50.231,
00:00:18:533,-0.001,-0.186,0.523,-2000,409.668,146.423,
00:00:18:550,0.053,-0.01,0.431,-2000,415.588,258.117,
00:00:18:567,0.014,0.159,0.565,-2000,387.329,139.404,
00:00:18:583,0.008,0.313,0.578,-2000,412.841,82.031,
00:00:18:600,0.038,0.339,0.641,-2000,466.735,-37.293,
00:00:18:617,0.066,0.425,0.686,-1991.334,522.827,-136.17,
00:00:18:633,0.082,0.389,0.772,-1359.375,550.109,-283.143,flipLH
00:00:18:650,0.098,0.253,0.786,-862.244,584.9,-421.936,
00:00:18:667,0.101,0.312,0.754,-366.517,678.588,-620.545,
00:00:18:683,0.094,0.4,0.748,-200.257,713.073,-680.481,
00:00:18:700,0.151,0.53,0.764,-86.06,715.637,-657.227,
00:00:18:717,0.164,0.589,0.824,11.291,707.946,-618.47,
00:00:18:733,0.222,0.62,0.844,52.978,681.396,-505.372,
00:00:18:750,0.327,0.754,0.231,73.73,652.771,-339.722,
00:00:18:767,0.502,0.752,0.798,113.342,525.146,-315.003,
00:00:18:783,0.369,0.839,1.61,282.714,236.694,-360.779,
00:00:18:800,0.354,0.573,1.354,245.3,86.547,-66.346,
00:00:18:817,0.276,0.854,1.15,223.327,-17.762,78.857,
00:00:18:833,0.208,0.537,1.072,322.876,-105.164,41.259,
00:00:18:850,0.292,0.373,0.963,200.134,-116.028,57.8,
00:00:18:867,0.282,0.477,0.884,72.387,-95.398,45.349,
00:00:18:883,0.297,0.493,0.833,26.672,-75.44,-11.841,
00:00:18:900,0.346,0.416,0.835,-0.306,-33.02,-48.462,
00:00:18:917,0.353,0.421,0.811,-60.73,-7.019,-80.262,
00:00:18:933,0.361,0.474,0.796,-54.932,3.356,-87.708,
00:00:18:950,0.379,0.526,0.821,-1.893,-8.851,-57.129,
00:00:18:967,0.366,0.535,0.837,82.885,-31.617,-23.499,
00:00:18:983,0.346,0.49,0.866,147.705,-56.885,23.742,
00:00:19:0,0.338,0.499,0.838,210.022,-85.389,78.552,
00:00:19:17,0.341,0.457,0.829,282.959,-129.639,114.502,
00:00:19:33,0.358,0.415,0.886,338.745,-177.002,156.738,
00:00:19:50,0.343,0.37,0.881,364.013,-216.492,212.768,
00:00:19:67,0.331,0.411,0.952,443.542,-269.471,258.911,
00:00:19:83,0.322,0.313,0.939,516.54,-318.909,262.146,
00:00:19:100,0.272,0.195,0.879,562.805,-330.079,237.915,
00:00:19:117,0.27,0.258,0.903,682.19,-345.276,257.629,
00:00:19:133,0.238,0.182,0.906,867.92,-363.343,187.194,
00:00:19:150,0.254,0.217,0.973,1001.831,-383.423,186.34,
00:00:19:167,0.228,0.173,1.005,1131.836,-419.678,157.47,
00:00:19:183,0.16,0.025,1.036,1254.211,-516.724,94.482,
00:00:19:200,0.127,0.038,1.036,1461.792,-526.49,61.95,
00:00:19:217,0.077,-0.037,1.01,1809.143,-547.059,-28.87,
00:00:19:233,0.035,-0.116,0.99,1999.45,-542.908,-108.033,
00:00:19:250,0.003,-0.235,0.97,1999.694,-538.147,-169.068,
00:00:19:267,-0.006,-0.336,0.953,1999.694,-527.832,-223.328,
00:00:19:283,-0.037,-0.407,0.889,1999.694,-500,-251.282,
00:00:19:300,-0.054,-0.451,0.839,1999.694,-463.746,-270.142,
00:00:19:317,-0.066,-0.526,0.778,1999.694,-420.838,-283.265,
00:00:19:333,-0.092,-0.6,0.778,1999.694,-373.108,-272.4,
00:00:19:350,-0.093,-0.681,0.754,1999.694,-317.566,-253.174,
00:00:19:367,-0.119,-0.829,0.658,1954.712,-265.32,-254.822,
00:00:19:383,-0.126,-0.844,0.701,1756.836,-241.089,-182.801,
00:00:19:400,-0.095,-0.772,0.644,1452.88,-191.102,-103.821,
00:00:19:417,-0.126,-0.791,0.511,1350.036,-162.232,-91.858,
00:00:19:433,-0.136,-0.893,0.431,1261.474,-137.269,-41.26,
00:00:19:450,-0.146,-0.987,0.316,1086.12,-107.117,-13.672,
00:00:19:467,-0.159,-1.056,0.239,841.064,-77.332,15.38,
00:00:19:483,-0.182,-1.121,0.192,538.086,-51.88,41.137,
00:00:19:500,-0.192,-1.085,0.177,298.339,-23.682,65.551,
00:00:19:517,-0.197,-0.996,0.156,151.733,0.976,74.401,
00:00:19:533,-0.188,-0.986,0.15,129.272,15.747,73.669,
00:00:19:550,-0.18,-0.977,0.165,167.419,22.705,56.457,
00:00:19:567,-0.176,-0.979,0.175,201.477,21.179,50.354,
00:00:19:583,-0.183,-1.035,0.15,191.65,17.334,36.804,
00:00:19:600,-0.196,-1.069,0.161,112.732,6.958,23.254,
00:00:19:617,-0.197,-1.017,0.166,58.532,-0.672,8.85,
00:00:19:633,-0.206,-1.017,0.169,37.536,-10.01,-0.733,
00:00:19:650,-0.204,-0.996,0.17,30.7,-18.25,-13.794,
00:00:19:667,-0.197,-0.966,0.168,57.8,-27.832,-8.728,
00:00:19:683,-0.184,-0.98,0.149,70.556,-31.495,-10.987,
00:00:19:700,-0.17,-1.006,0.157,40.344,-31.373,0.427,
00:00:19:717,-0.16,-0.988,0.138,2.197,-30.152,1.159,
00:00:19:733,-0.147,-0.972,0.153,-8.728,-25.391,0.244,
00:00:19:750,-0.14,-0.989,0.169,-3.113,-29.419,4.028,
00:00:19:767,-0.131,-1.003,0.139,-0.367,-31.006,-3.602,
00:00:19:783,-0.134,-1.006,0.13,-5.31,-28.87,-6.043,
00:00:19:800,-0.148,-1.003,0.132,-22.889,-24.903,-8.179,
00:00:19:817,-0.162,-1.02,0.159,-56.702,-6.226,-8.606,
00:00:19:833,-0.186,-1.019,0.162,-86.243,2.136,-12.146,
00:00:19:850,-0.222,-1.025,0.207,-83.924,8.789,-11.597,
00:00:19:867,-0.265,-1.032,0.223,-62.989,12.512,-5.86,
00:00:19:883,-0.306,-1.045,0.216,-34.913,19.165,-6.531,
00:00:19:900,-0.34,-1.014,0.256,-82.764,66.345,28.747,
00:00:19:917,-0.348,-0.995,0.245,-50.843,88.256,54.138,
00:00:19:933,-0.36,-1.015,0.25,-38.147,115.295,82.58,
00:00:19:950,-0.358,-1.001,0.235,-59.693,133.484,116.211,
00:00:19:967,-0.365,-0.999,0.219,-112.732,149.536,153.564,
00:00:19:983,-0.375,-0.986,0.203,-200.074,168.09,199.646,
00:00:20:0,-0.369,-0.95,0.191,-250.184,192.077,234.619,
00:00:20:17,-0.352,-0.921,0.192,-275.696,209.228,264.465,
00:00:20:33,-0.321,-0.879,0.16,-266.724,226.867,293.884,
00:00:20:50,-0.257,-0.883,0.14,-256.287,250.61,315.918,
00:00:20:67,-0.18,-0.946,0.146,-276.917,272.033,333.435,
00:00:20:83,-0.105,-0.908,0.171,-321.167,270.141,341.735,
00:00:20:100,-0.054,-0.834,0.169,-292.908,267.517,339.66,
00:00:20:117,0,-0.803,0.161,-252.991,252.258,350.036,
00:00:20:133,0.059,-0.776,0.145,-212.83,245.849,375.671,
00:00:20:150,0.116,-0.826,0.132,-184.51,264.831,385.62,
00:00:20:167,0.202,-0.856,0.088,-148.377,255.798,359.68,
00:00:20:183,0.286,-0.909,0.081,-135.01,268.371,322.815,
00:00:20:200,0.323,-0.838,0.078,-169.556,255.188,276.489,
00:00:20:217,0.351,-0.8,0.114,-121.094,272.033,238.586,
00:00:20:233,0.438,-0.821,0.169,-94.117,268.31,167.907,
00:00:20:250,0.489,-0.85,0.26,-14.222,228.698,98.755,
00:00:20:267,0.57,-0.834,0.28,50.354,200.195,5.31,
00:00:20:283,0.578,-0.811,0.311,117.614,99.121,-87.098,
00:00:20:300,0.51,-0.831,0.344,191.162,1.159,-178.04,
00:00:20:317,0.469,-0.755,0.338,234.924,-58.533,-209.778,
00:00:20:333,0.403,-0.747,0.25,345.398,-98.999,-227.967,
00:00:20:350,0.359,-0.828,0.183,420.898,-103.516,-213.562,
00:00:20:367,0.334,-0.921,0.127,430.664,-93.995,-205.506,
00:00:20:383,0.316,-0.95,0.121,432.006,-66.712,-174.988,
00:00:20:400,0.32,-1.042,0.066,471.496,-32.532,-177.613,
00:00:20:417,0.365,-1.17,0.073,412.963,-14.527,-199.341,
00:00:20:433,0.381,-1.295,0.075,319.275,-17.334,-245.423,
00:00:20:450,0.395,-1.292,0.171,169.372,-48.829,-262.757,
00:00:20:467,0.344,-1.1,0.188,132.385,-76.355,-291.443,
00:00:20:483,-0.002,-1.06,0.162,212.89,-51.026,-143.677,
00:00:20:500,-0.092,-1.197,0.067,86.853,-18.128,-57.007,
00:00:20:517,-0.153,-1.112,0.275,-109.253,-13.916,47.058,
00:00:20:533,-0.276,-0.933,0.215,-117.737,-20.508,104.614,
00:00:20:550,-0.349,-0.994,0.27,46.508,27.343,141.479,
00:00:20:567,-0.309,-1.063,0.292,-47.913,15.869,165.649,
00:00:20:583,-0.406,-1.079,0.44,-60.425,-25.33,40.588,
00:00:20:600,-0.284,-1.203,0.18,-6.592,24.353,15.808,
00:00:20:617,-0.324,-0.99,0.251,14.77,-16.541,-2.381,
00:00:20:633,-0.1,-1.151,0.089,-65.918,23.376,-46.998,
00:00:20:650,-0.121,-0.862,0.165,-134.034,13.061,6.591,flipLH
00:00:20:667,0.022,-0.938,0.059,-104.371,82.58,-9.705,
00:00:20:683,0.163,-0.99,0.257,-86.731,60.913,-21.485,
00:00:20:700,0.217,-0.95,0.207,-34.119,36.499,-19.288,
00:00:20:717,0.236,-0.897,0.124,97.106,32.287,-45.472,
00:00:20:733,0.303,-0.926,0.019,85.998,34.301,-79.773,
00:00:20:750,0.285,-0.888,0.043,112.854,49.255,-106.141,
00:00:20:767,0.249,-0.889,0.11,145.63,72.57,-47.486,
00:00:20:783,0.198,-0.918,0.116,99.914,67.443,-39.246,
00:00:20:800,0.181,-0.937,0.205,162.231,42.053,-30.701,
00:00:20:817,0.178,-0.983,0.122,212.036,5.31,-58.411,
00:00:20:833,0.134,-0.951,0.122,236.084,-26.062,-65.308,
00:00:20:850,0.112,-0.972,0.078,257.263,-36.744,-96.436,
00:00:20:867,0.086,-1.039,0.052,267.212,-44.861,-111.206,
00:00:20:883,0.109,-1.128,-0.007,252.136,-49.622,-132.813,
00:00:20:900,0.058,-1.094,0.007,190.124,-51.636,-114.319,
00:00:20:917,0.1,-1.049,-0.032,206.421,-34.79,-146.241,
00:00:20:933,0.065,-1.072,0.031,178.222,-36.499,-146.79,
00:00:20:950,0.046,-0.916,0.01,185.363,-39.368,-149.598,
00:00:20:967,0.042,-0.921,-0.005,246.032,-23.072,-166.382,
00:00:20:983,0.05,-0.882,-0.052,276.367,-17.518,-181.153,
00:00:21:0,0.019,-0.869,-0.077,319.946,-13.672,-209.595,
00:00:21:17,0.036,-0.877,-0.094,360.778,-4.7,-265.198,
00:00:21:33,0.049,-0.963,-0.117,411.316,10.437,-235.108,
00:00:21:50,0.032,-1.019,-0.142,400.268,15.991,-250.184,
00:00:21:67,0,-1.121,-0.139,395.813,20.08,-283.448,
00:00:21:83,-0.104,-1.261,-0.153,255.432,-6.409,-354.371,
00:00:21:100,-0.148,-1.299,-0.13,160.949,7.629,-370.972,
00:00:21:117,-0.202,-1.294,-0.109,88.867,22.155,-372.559,
00:00:21:133,-0.27,-1.326,-0.067,34.545,48.034,-365.174,
00:00:21:150,-0.285,-1.383,-0.04,-71.778,75.134,-388.123,
00:00:21:167,-0.311,-1.429,-0.008,-271.79,79.284,-389.771,
00:00:21:183,-0.354,-1.403,-0.042,-532.776,93.872,-379.151,
00:00:21:200,-0.346,-1.451,0.019,-875.245,107.422,-390.625,
00:00:21:217,-0.302,-1.271,0.064,-1130.799,74.401,-378.602,
00:00:21:233,-0.255,-1.011,0.102,-1101.807,71.044,-350.159,
00:00:21:250,-0.222,-1.045,0.142,-963.929,81.665,-334.9,
00:00:21:267,-0.208,-1.127,0.126,-1015.442,96.557,-297.181,
00:00:21:283,-0.193,-1.2,0.153,-1282.288,127.38,-266.053,
00:00:21:300,-0.169,-1.184,0.137,-1701.661,158.142,-221.558,
00:00:21:317,-0.152,-1.089,0.174,-1995.728,181.64,-171.082,
00:00:21:333,-0.148,-0.911,0.183,-2000,204.834,-118.897,
00:00:21:350,-0.13,-0.793,0.251,-2000,223.388,-62.623,
00:00:21:367,-0.121,-0.721,0.312,-2000,243.042,-30.823,
00:00:21:383,-0.127,-0.708,0.392,-2000,278.32,11.962,
00:00:21:400,-0.147,-0.692,0.44,-2000,344.055,83.862,
00:00:21:417,-0.158,-0.689,0.444,-2000,411.621,42.48,
00:00:21:433,-0.138,-0.565,0.415,-2000,476.562,27.16,
00:00:21:450,-0.111,-0.374,0.398,-2000,582.397,41.198,
00:00:21:467,-0.074,-0.247,0.328,-2000,672.668,144.409,
00:00:21:483,0.09,0.694,0.58,-2000,596.191,-157.105,
00:00:21:500,0.098,0.445,0.68,-1999.39,609.985,-326.05,
00:00:21:517,0.178,0.318,0.758,-1504.639,664.611,-435.791,
00:00:21:533,0.215,0.265,0.833,-940.308,678.65,-569.397,
00:00:21:550,0.221,0.089,0.807,-631.897,692.566,-690.735,
00:00:21:567,0.265,0.1,0.734,-554.017,713.745,-745.179,
00:00:21:583,0.312,0.329,0.722,-502.808,696.045,-745.362,
00:00:21:600,0.292,0.542,0.687,-380.616,675.842,-758.789,
00:00:21:617,0.297,0.641,0.7,-156.434,639.648,-766.48,
00:00:21:633,0.302,0.649,0.768,3.967,613.586,-726.319,
00:00:21:650,0.337,0.763,0.614,48.278,618.591,-595.398,
00:00:21:667,0.409,0.507,0.114,136.657,626.892,-487.244,
00:00:21:683,0.653,1.324,1.635,192.81,302.368,-377.686,
00:00:21:700,0.201,0.706,1.054,517.028,157.104,-177.979,
00:00:21:717,0.372,0.929,1.16,269.409,92.895,83.068,
00:00:21:733,0.326,0.756,1.102,459.9,-80.567,67.077,
00:00:21:750,0.292,0.443,1.048,441.467,-140.259,100.219,
00:00:21:767,0.295,0.375,0.915,255.737,-132.752,111.206,
00:00:21:783,0.293,0.502,0.884,127.502,-112.366,81.543,
00:00:21:800,0.375,0.517,0.822,57.922,-44.495,-18.677,
00:00:21:817,0.381,0.551,0.817,110.534,-51.209,7.446,
00:00:21:833,0.403,0.56,0.83,172.973,-62.989,46.691,
00:00:21:850,0.399,0.659,0.839,296.508,-95.887,114.257,
00:00:21:867,0.409,0.639,0.848,505.493,-167.298,182.739,
00:00:21:883,0.397,0.442,0.874,590.454,-243.164,236.267,
00:00:21:900,0.409,0.359,0.891,568.542,-296.021,311.096,
00:00:21:917,0.368,0.434,0.913,636.047,-333.863,362.182,
00:00:21:933,0.305,0.27,0.827,651.367,-326.172,313.415,
00:00:21:950,0.304,0.119,0.811,628.479,-311.646,261.047,
00:00:21:967,0.278,0.155,0.925,771.301,-332.459,239.38,
00:00:21:983,0.284,0.221,0.952,1027.221,-360.596,231.689,
00:00:22:0,0.26,0.103,0.973,1206.237,-419.8,171.508,
00:00:22:17,0.244,0.014,0.994,1140.93,-446.534,169.922,
00:00:22:33,0.226,0.019,1.018,1070.312,-454.895,159.484,
00:00:22:50,0.219,0.058,1.042,1098.449,-472.107,136.291,
00:00:22:67,0.202,0.034,1.04,1230.529,-500,87.646,
00:00:22:83,0.196,-0.031,1.029,1383.545,-512.94,47.79,
00:00:22:100,0.182,-0.044,0.999,1564.88,-519.837,12.939,
00:00:22:117,0.135,-0.104,0.968,1722.046,-518.677,-28.748,
00:00:22:133,0.111,-0.187,0.96,1883.911,-514.405,-70.008,
00:00:22:150,0.068,-0.256,0.937,1963.623,-495.484,-120.667,
00:00:22:167,0.022,-0.355,0.927,1999.694,-480.713,-164.917,
00:00:22:183,-0.02,-0.406,0.914,1999.694,-438.965,-160.096,
00:00:22:200,-0.036,-0.448,0.859,1999.694,-408.753,-183.716,
00:00:22:217,-0.055,-0.54,0.828,1987.06,-382.752,-182.984,
00:00:22:233,-0.081,-0.644,0.782,1874.45,-347.718,-172.913,
00:00:22:250,-0.093,-0.725,0.744,1628.784,-313.05,-159.18,
00:00:22:267,-0.122,-0.818,0.689,1432.861,-274.414,-154.786,
00:00:22:283,-0.15,-0.783,0.681,1266.54,-238.526,-119.69,
00:00:22:300,-0.16,-0.782,0.663,1136.23,-212.403,-123.047,
00:00:22:317,-0.179,-0.82,0.62,1089.05,-205.75,-113.099,
00:00:22:333,-0.201,-0.927,0.579,968.261,-201.722,-88.257,
00:00:22:350,-0.226,-1.02,0.561,800.781,-201.233,-80.506,
00:00:22:367,-0.251,-1.02,0.517,673.401,-211.365,-74.341,
00:00:22:383,-0.306,-0.944,0.399,621.948,-201.539,-81.482,
00:00:22:400,-0.383,-1.12,0.276,526.672,-107.666,-49.622,
00:00:22:417,-0.405,-1.07,0.241,307.251,-62.745,-31.8,
00:00:22:433,-0.43,-0.959,0.244,241.516,-16.846,-9.095,
00:00:22:450,-0.432,-0.918,0.256,263.427,23.498,-10.315,
00:00:22:467,-0.429,-0.928,0.279,295.227,61.157,16.54,
00:00:22:483,-0.441,-0.891,0.242,269.836,94.909,53.588,
00:00:22:500,-0.455,-0.867,0.235,250.366,119.995,88.378,
00:00:22:517,-0.455,-0.866,0.236,225.219,154.113,134.399,
00:00:22:533,-0.46,-0.885,0.186,212.28,186.035,202.026,
00:00:22:550,-0.459,-0.874,0.186,210.205,210.937,249.878,
00:00:22:567,-0.456,-0.965,0.193,193.42,220.214,305.114,
00:00:22:583,-0.402,-1.059,0.207,106.994,234.619,330.81,
00:00:22:600,-0.327,-1.074,0.191,10.192,231.445,358.947,
00:00:22:617,-0.255,-1.089,0.233,-91.797,214.843,358.337,
00:00:22:633,-0.196,-1.052,0.123,-180.848,247.497,358.52,
00:00:22:650,-0.106,-1.058,0.137,-240.662,239.502,344.543,
00:00:22:667,-0.048,-0.965,0.168,-278.199,234.863,339.599,
00:00:22:683,0.015,-0.895,0.175,-301.026,212.097,348.632,
00:00:22:700,0.053,-0.818,0.142,-294.739,205.139,369.384,
00:00:22:717,0.129,-0.857,0.145,-291.748,219.909,391.906,
00:00:22:733,0.177,-0.852,0.154,-308.594,231.872,403.625,
00:00:22:750,0.203,-0.853,0.179,-301.087,235.107,390.564,
00:00:22:767,0.229,-0.768,0.168,-266.175,236.633,369.384,
00:00:22:783,0.264,-0.688,0.125,-213.196,246.765,352.783,
00:00:22:800,0.295,-0.657,0.112,-159.729,238.708,334.228,
00:00:22:817,0.332,-0.675,0.129,-99.305,231.994,284.973,
00:00:22:833,0.351,-0.739,0.201,-54.566,216.919,239.257,
00:00:22:850,0.363,-0.749,0.251,-7.386,186.401,187.133,
00:00:22:867,0.366,-0.76,0.253,60.791,141.54,123.108,
00:00:22:883,0.34,-0.767,0.258,98.999,101.44,64.148,
00:00:22:900,0.347,-0.719,0.264,146.789,35.034,2.624,
00:00:22:917,0.315,-0.746,0.247,223.632,-15.259,-41.871,
00:00:22:933,0.319,-0.812,0.22,259.46,-42.969,-86.914,
00:00:22:950,0.304,-0.872,0.253,240.783,-62.989,-114.563,
00:00:22:967,0.31,-0.881,0.273,244.812,-75.257,-135.804,
00:00:22:983,0.326,-0.934,0.309,285.583,-91.492,-140.564,
00:00:23:0,0.337,-0.933,0.288,343.444,-98.999,-135.804,
00:00:23:17,0.391,-0.907,0.256,352.295,-109.986,-150.147,
00:00:23:33,0.35,-0.884,0.132,407.348,-116.822,-197.693,
00:00:23:50,0.289,-1.013,0.119,435.485,-119.69,-213.807,
00:00:23:67,0.219,-0.962,0.079,433.776,-111.268,-175.599,
00:00:23:83,0.203,-1,0.052,443.054,-98.755,-190.796,
00:00:23:100,0.165,-0.99,0.052,464.843,-94.3,-196.961,
00:00:23:117,0.136,-1.034,0.025,513.183,-77.942,-219.788,
00:00:23:133,0.106,-1.039,-0.01,523.986,-59.266,-211.426,
00:00:23:150,0.111,-1.132,-0.068,496.521,-13.367,-263.367,
00:00:23:167,0.027,-1.273,0.095,418.396,-40.223,-246.766,
00:00:23:183,0.023,-1.131,0.093,384.826,-53.894,-244.446,
00:00:23:200,0.006,-1.135,0.07,396.85,-74.524,-244.935,
00:00:23:217,-0.004,-1.151,0.033,363.647,-88.013,-246.399,
00:00:23:233,-0.026,-1.145,0.012,293.518,-78.675,-223.938,
00:00:23:250,-0.05,-1.153,0.032,215.515,-47.303,-199.646,
00:00:23:267,-0.063,-1.155,0.033,163.94,-24.476,-181.336,
00:00:23:283,-0.073,-1.153,0.036,157.898,-7.752,-173.218,
00:00:23:300,-0.079,-1.167,0.033,152.649,5.615,-185.669,
00:00:23:317,-0.105,-1.183,0.055,161.438,22.522,-190.125,
00:00:23:333,-0.127,-1.25,0.02,133.117,34.851,-220.337,
00:00:23:350,-0.114,-1.239,-0.001,62.439,43.945,-224.549,
00:00:23:367,-0.095,-1.204,-0.032,32.959,51.208,-251.404,
00:00:23:383,-0.089,-1.24,-0.024,6.53,61.401,-286.133,
00:00:23:400,-0.057,-1.213,-0.06,-51.026,68.908,-316.956,
00:00:23:417,-0.066,-1.199,-0.068,-60.608,73.974,-331.421,
00:00:23:433,-0.062,-1.193,-0.04,-58.838,82.641,-363.404,
00:00:23:450,-0.13,-1.231,-0.056,-78.919,75.866,-395.386,
00:00:23:467,-0.156,-1.182,-0.03,-99.305,74.035,-420.899,
00:00:23:483,-0.209,-1.138,-0.035,-82.947,72.387,-439.942,
00:00:23:500,-0.272,-1.172,-0.003,-117.554,72.631,-466.797,
00:00:23:517,-0.323,-1.083,-0.007,-168.335,71.838,-457.276,
00:00:23:533,-0.335,-1.052,-0.006,-211.304,82.824,-454.529,
00:00:23:550,-0.335,-1.052,-0.002,-282.166,91.247,-435.608,
00:00:23:567,-0.315,-1.09,-0.016,-406.128,100.525,-444.642,
00:00:23:583,-0.277,-1.2,-0.06,-743.409,118.042,-448.548,
00:00:23:600,-0.223,-1.238,-0.081,-1229.126,153.32,-413.636,
00:00:23:617,-0.186,-1.123,-0.064,-1734.009,177.429,-372.925,
00:00:23:633,-0.135,-0.898,0,-1984.864,216.735,-284.485,flipLH
00:00:23:650,-0.095,-0.822,0.093,-2000,260.986,-176.514,
00:00:23:667,-0.06,-0.811,0.201,-2000,300.903,-124.329,
00:00:23:683,-0.036,-0.778,0.269,-2000,337.707,-59.632,
00:00:23:700,-0.029,-0.706,0.314,-2000,376.953,7.507,
00:00:23:717,-0.021,-0.616,0.347,-2000,416.32,89.538,
00:00:23:733,-0.024,-0.57,0.365,-2000,474.67,121.032,
00:00:23:750,-0.029,-0.5,0.386,-2000,542.907,143.371,
00:00:23:767,-0.002,-0.25,0.342,-2000,657.531,142.456,
00:00:23:783,0.025,0.042,0.386,-2000,758.056,179.382,
00:00:23:800,0.092,0.301,0.504,-2000,711.609,259.033,
00:00:23:817,0.051,0.27,0.478,-2000,695.678,81.176,
00:00:23:833,0.036,0.378,0.619,-2000,701.599,-68.787,
00:00:23:850,0.066,0.314,0.577,-2000,744.934,-172.852,
00:00:23:867,0.056,0.478,0.68,-1890.748,808.532,-291.199,
00:00:23:883,0.099,0.469,0.809,-1101.197,815.429,-515.564,
00:00:23:900,0.109,0.218,0.885,-518.86,828.979,-699.219,
00:00:23:917,0.178,0.14,0.937,-441.895,870.849,-777.1,
00:00:23:933,0.215,0.283,0.985,-489.563,859.741,-797.364,
00:00:23:950,0.154,0.441,0.901,-415.039,805.42,-788.758,
00:00:23:967,0.219,0.694,0.903,-358.704,770.63,-686.585,
00:00:23:983,0.221,0.809,0.897,-238.648,721.069,-698.853,
00:00:24:0,0.507,0.482,0.499,-154.786,687.011,-562.439,
00:00:24:17,0.809,1.467,1.724,-347.535,384.887,-178.65,
00:00:24:33,0.32,0.732,1.416,251.953,163.513,-517.579,
00:00:24:50,0.445,0.854,1.391,-4.456,46.936,-23.133,
00:00:24:67,0.277,0.453,0.834,155.09,-186.707,12.573,
00:00:24:83,0.27,0.474,0.762,15.747,-160.523,-24.476,
00:00:24:100,0.304,0.486,0.734,-13.672,-136.963,-62.378,
00:00:24:117,0.347,0.47,0.709,-27.283,-85.877,-107.239,
00:00:24:133,0.346,0.544,0.658,-43.091,-41.26,-114.747,
00:00:24:150,0.402,0.565,0.76,-66.285,-1.465,-64.209,
00:00:24:167,0.377,0.556,0.767,-6.226,-7.996,-45.227,
00:00:24:183,0.369,0.548,0.751,26.001,-6.714,-13.733,
00:00:24:200,0.372,0.537,0.76,47.18,-19.715,21.057,
00:00:24:217,0.364,0.538,0.79,99.121,-41.687,50.293,
00:00:24:233,0.401,0.463,0.843,130.31,-105.835,139.709,
00:00:24:250,0.407,0.518,0.819,194.213,-131.47,166.504,
00:00:24:267,0.401,0.471,0.82,289.856,-169.739,178.527,
00:00:24:283,0.411,0.493,0.853,356.323,-208.435,229.065,
00:00:24:300,0.421,0.546,0.873,466.003,-251.16,288.086,
00:00:24:317,0.368,0.47,0.919,637.878,-312.317,302.795,
00:00:24:333,0.322,0.412,0.904,758.178,-328.553,329.162,
00:00:24:350,0.254,0.388,0.797,946.838,-305.42,322.692,
00:00:24:367,0.278,0.334,0.772,1227.783,-321.167,261.047,
00:00:24:383,0.243,0.192,0.869,1470.764,-350.403,192.138,
00:00:24:400,0.215,0.159,0.858,1565.49,-359.925,206.665,
00:00:24:417,0.185,0.083,0.928,1605.651,-399.781,161.682,
00:00:24:433,0.16,0.089,0.953,1674.682,-401.612,150.207,
00:00:24:450,0.146,0.109,1.02,1901.428,-430.054,91.98,
00:00:24:467,0.099,0.068,1.04,1999.694,-455.567,22.949,
00:00:24:483,0.071,-0.052,0.993,1999.694,-467.835,-58.716,
00:00:24:500,0.044,-0.247,0.947,1999.694,-511.719,-145.203,
00:00:24:517,0.014,-0.355,0.943,1999.694,-546.021,-140.198,
00:00:24:533,-0.001,-0.437,0.836,1999.694,-561.341,-219.544,
00:00:24:550,-0.033,-0.574,0.71,1999.694,-584.595,-290.162,
00:00:24:567,-0.073,-0.677,0.661,1999.694,-558.96,-280.762,
00:00:24:583,-0.093,-0.75,0.594,1999.694,-498.169,-324.891,
00:00:24:600,-0.108,-0.835,0.535,1999.694,-414.734,-333.313,
00:00:24:617,-0.144,-0.97,0.431,1999.694,-345.276,-382.569,
00:00:24:633,-0.158,-1.001,0.417,1875.549,-349.488,-358.521,
00:00:24:650,-0.143,-0.936,0.41,1594.177,-349.671,-291.932,
00:00:24:667,-0.183,-0.899,0.279,1460.693,-350.647,-303.528,
00:00:24:683,-0.215,-0.888,0.16,1348.449,-315.369,-290.589,
00:00:24:700,-0.222,-0.975,0.022,1199.89,-258.484,-289.795,
00:00:24:717,-0.227,-1.093,0.008,954.895,-193.787,-268.616,
00:00:24:733,-0.233,-1.096,0.037,406.616,-86.914,-215.76,
00:00:24:750,-0.228,-1.064,0.042,355.59,-89.356,-207.581,
00:00:24:767,-0.22,-1.064,0.047,298.706,-75.013,-178.467,
00:00:24:783,-0.215,-1.04,0.033,257.08,-64.881,-158.143,
00:00:24:800,-0.21,-1.071,0.048,178.344,-55.848,-137.696,
00:00:24:817,-0.234,-1.004,0.039,-14.344,23.498,-22.583,
00:00:24:833,-0.251,-0.944,0.017,-43.824,44.677,16.784,
00:00:24:850,-0.281,-0.915,-0.012,13.977,55.725,48.889,
00:00:24:867,-0.355,-0.943,-0.007,62.744,75.805,82.458,
00:00:24:883,-0.423,-1.002,-0.033,43.151,93.872,105.468,
00:00:24:900,-0.461,-1.011,-0.002,-37.293,126.22,156.738,
00:00:24:917,-0.477,-0.954,0.042,-87.281,153.32,205.139,
00:00:24:933,-0.474,-0.883,0.084,-60.181,173.034,232.055,
00:00:24:950,-0.439,-0.863,0.099,-3.418,176.574,257.202,
00:00:24:967,-0.412,-0.886,0.121,49.194,172.546,296.447,
00:00:24:983,-0.377,-0.933,0.099,18.127,162.475,329.467,
00:00:25:0,-0.336,-0.964,0.061,-44.434,161.987,355.529,
00:00:25:17,-0.262,-0.997,0.046,-95.032,172.241,366.211,
00:00:25:33,-0.194,-1.056,0.073,-124.146,167.602,377.746,
00:00:25:50,-0.115,-1.054,0.035,-143.006,164.978,375.915,
00:00:25:67,-0.066,-1.067,0.035,-161.438,158.203,371.093,
00:00:25:83,0.001,-1.061,0.012,-188.66,140.258,361.938,
00:00:25:100,0.032,-1.029,0.003,-193.299,139.404,349.548,
00:00:25:117,0.073,-1.011,-0.013,-155.274,147.705,317.688,
00:00:25:133,0.121,-1.025,-0.042,-99.06,154.358,275.573,
00:00:25:150,0.213,-1.032,-0.029,-70.13,145.446,247.07,
00:00:25:167,0.2,-1.084,-0.1,-109.131,108.886,159.79,
00:00:25:183,0.201,-0.981,-0.016,-163.147,93.078,122.863,
00:00:25:200,0.221,-0.834,0.041,-179.017,-6.592,52.978,
00:00:25:217,0.194,-0.861,0.079,-112.305,-33.875,46.875,
00:00:25:233,0.193,-0.895,0.03,-96.375,-43.519,46.875,
00:00:25:250,0.186,-0.96,0.041,-78.37,-46.082,49.987,
00:00:25:267,0.215,-0.776,0.154,-87.098,-58.228,59.875,
00:00:25:283,0.055,-1.062,0.118,143.188,-67.688,-43.519,
00:00:25:300,0.162,-1.214,-0.007,-82.886,-56.519,-57.801,
00:00:25:317,0.014,-0.943,0.042,-56.58,-56.153,-55.542,
00:00:25:333,0.027,-1.072,0.021,39.794,-24.109,-81.238,
00:00:25:350,-0.056,-1.08,0.069,26.489,-17.151,-79.834,
00:00:25:367,-0.039,-1.047,0.061,24.719,7.446,-82.581,
00:00:25:383,-0.053,-1.077,0.071,-9.217,18.737,-83.802,
00:00:25:400,-0.044,-1.054,0.098,-13.001,33.691,-94.727,
00:00:25:417,-0.037,-1.066,0.104,-1.16,39.55,-95.398,
00:00:25:433,0,-1.046,0.113,-7.264,37.292,-95.032,
00:00:25:450,0.004,-0.998,0.082,40.222,38.208,-101.197,
00:00:25:467,0.017,-1.038,0.094,59.997,37.902,-102.539,
00:00:25:483,0.046,-1.002,0.015,45.898,56.823,-130.616,
00:00:25:500,0.028,-1.025,0.04,18.615,66.528,-139.893,
00:00:25:517,0.03,-1.006,0.055,5.31,88.256,-152.283,
00:00:25:533,0.009,-1.041,0.039,26.672,98.022,-186.585,
00:00:25:550,-0.011,-1.112,0.019,37.902,91.369,-210.083,
00:00:25:567,-0.022,-1.141,0.057,38.635,59.082,-235.474,
00:00:25:583,-0.099,-1.134,0.074,111.328,21.423,-280.64,
00:00:25:600,-0.14,-1.139,0.092,96.862,15.319,-298.401,
00:00:25:617,-0.187,-1.111,0.09,55.908,12.573,-314.576,
00:00:25:633,-0.225,-1.083,0.12,8.911,6.103,-313.782,
00:00:25:650,-0.25,-1.126,0.141,-16.724,-12.33,-303.589,
00:00:25:667,-0.26,-1.118,0.148,-77.454,-24.964,-296.814,flipLH
00:00:25:683,-0.262,-1.129,0.103,-154.908,-31.556,-304.078,
00:00:25:700,-0.235,-1.141,0.096,-295.35,-25.208,-304.932,
00:00:25:717,-0.204,-1.19,0.051,-600.769,-5.372,-302.735,
00:00:25:733,-0.169,-1.205,0.011,-1045.777,34.301,-302.185,
00:00:25:750,-0.141,-1.083,-0.011,-1403.382,84.716,-277.771,
00:00:25:767,-0.117,-0.99,0.083,-1651.185,136.901,-215.516,
00:00:25:783,-0.106,-0.968,0.172,-1885.193,188.354,-161.56,
00:00:25:800,-0.086,-0.895,0.257,-2000,234.13,-102.295,
00:00:25:817,-0.068,-0.815,0.312,-2000,268.127,-36.805,
00:00:25:833,-0.07,-0.725,0.333,-2000,313.537,20.752,
00:00:25:850,-0.086,-0.556,0.354,-2000,375.122,86.486,
00:00:25:867,-0.055,-0.443,0.438,-2000,441.894,127.075,
00:00:25:883,-0.007,-0.351,0.526,-2000,499.084,124.817,
00:00:25:900,0.014,-0.322,0.664,-2000,546.203,111.084,
00:00:25:917,0.018,-0.231,0.666,-2000,610.473,103.332,
00:00:25:933,0.083,0.06,0.639,-2000,624.755,131.286,
00:00:25:950,0.071,0.291,0.619,-2000,611.328,91.308,
00:00:25:967,0.115,0.506,0.736,-2000,607.971,12.695,
00:00:25:983,0.109,0.538,0.852,-2000,611.389,-96.07,
00:00:26:0,0.144,0.428,0.999,-1655.03,603.637,-232.178,
00:00:26:17,0.182,0.245,1.046,-905.03,592.834,-411.683,
00:00:26:33,0.185,0.063,0.983,-563.66,607.971,-567.933,
00:00:26:50,0.191,-0.02,0.83,-495.423,641.418,-665.162,
00:00:26:67,0.244,0.242,0.804,-521.668,653.808,-675.782,
00:00:26:83,0.2,0.427,0.782,-421.57,648.193,-714.234,
00:00:26:100,0.242,0.557,0.823,-250.794,617.553,-707.215,
00:00:26:117,0.267,0.655,0.783,-79.651,599.304,-636.963,
00:00:26:133,0.44,0.444,0.468,-31.861,576.721,-510.254,
00:00:26:150,0.461,1.002,1.276,-61.951,445.984,-272.828,
00:00:26:167,0.585,0.871,1.368,204.04,197.509,-323.731,
00:00:26:183,0.217,0.663,1.071,31.921,169.922,-38.331,
00:00:26:200,0.312,0.913,1.241,174.926,12.939,36.56,
00:00:26:217,0.224,0.519,0.978,313.903,-90.943,66.04,
00:00:26:233,0.294,0.371,0.975,144.775,-91.919,85.327,
00:00:26:250,0.229,0.42,0.908,70.251,-85.328,53.588,
00:00:26:267,0.284,0.365,0.841,42.236,-66.407,14.404,
00:00:26:283,0.336,0.379,0.845,-3.174,-41.138,-35.401,
00:00:26:300,0.36,0.442,0.827,-5.31,-24.292,-57.007,
00:00:26:317,0.382,0.482,0.822,29.052,-24.476,-61.036,
00:00:26:333,0.398,0.494,0.852,43.396,-36.011,-35.157,
00:00:26:350,0.394,0.564,0.856,63.72,-52.735,42.968,
00:00:26:367,0.377,0.613,0.868,145.019,-87.037,88.806,
00:00:26:383,0.38,0.593,0.859,256.469,-130.494,162.841,
00:00:26:400,0.38,0.49,0.894,357.238,-200.379,219.787,
00:00:26:417,0.378,0.405,0.935,415.71,-277.222,282.531,
00:00:26:433,0.369,0.403,0.965,514.343,-344.178,352.417,
00:00:26:450,0.351,0.412,1.08,715.576,-440.125,375.976,
00:00:26:467,0.316,0.282,0.898,866.76,-463.99,390.319,
00:00:26:483,0.259,0.28,0.836,1089.538,-472.29,368.103,
00:00:26:500,0.25,0.131,0.88,1307.983,-525.025,283.447,
00:00:26:517,0.254,0.006,0.963,1398.803,-560.547,252.929,
00:00:26:533,0.247,0.058,1.025,1473.693,-614.502,255.127,
00:00:26:550,0.18,0.035,1.035,1918.579,-706.36,161.987,
00:00:26:567,0.143,-0.027,1.007,1999.694,-721.558,64.209,
00:00:26:583,0.114,-0.115,0.973,1999.694,-714.966,-33.02,
00:00:26:600,0.084,-0.217,0.926,1999.694,-698.426,-148.804,
00:00:26:617,0.039,-0.318,0.885,1999.694,-672.364,-231.568,
00:00:26:633,-0.008,-0.493,0.753,1999.694,-637.269,-308.472,
00:00:26:650,-0.104,-0.705,0.722,1987.548,-456.91,-268.433,
00:00:26:667,-0.12,-0.728,0.669,1921.692,-411.133,-249.756,
00:00:26:683,-0.143,-0.776,0.608,1783.508,-345.093,-214.356,
00:00:26:700,-0.153,-0.833,0.527,1564.209,-275.33,-186.219,
00:00:26:717,-0.158,-0.863,0.456,1332.397,-207.642,-144.959,
00:00:26:733,-0.164,-0.86,0.349,878.112,-114.441,4.15,
00:00:26:750,-0.192,-0.934,0.312,760.498,-90.088,39.55,
00:00:26:767,-0.233,-1.013,0.305,567.932,-62.317,76.11,
00:00:26:783,-0.275,-1.041,0.289,399.292,-38.941,92.346,
00:00:26:800,-0.326,-1.051,0.265,319.885,-30.884,91.064,
00:00:26:817,-0.382,-1,0.278,323.364,-25.818,100.769,
00:00:26:833,-0.456,-0.99,0.24,368.164,-12.635,90.332,
00:00:26:850,-0.524,-1.113,0.175,352.234,9.521,100.708,
00:00:26:867,-0.528,-1.066,0.054,165.832,64.086,124.206,
00:00:26:883,-0.523,-1.026,0.11,-14.954,119.751,125.305,
00:00:26:900,-0.508,-0.945,0.208,-128.174,170.349,142.944,
00:00:26:917,-0.542,-0.952,0.227,-141.175,211.303,174.804,
00:00:26:933,-0.396,-0.788,0.122,-23.194,292.48,120.788,
00:00:26:950,-0.55,-1.312,0.428,-67.566,265.136,89.233,
00:00:26:967,-0.439,-1.003,0.372,-389.588,247.375,145.813,
00:00:26:983,-0.419,-0.879,0.36,-200.44,243.042,119.14,
00:00:27:0,-0.36,-1.143,0.491,-218.201,209.533,148.071,
00:00:27:17,-0.203,-0.855,0.306,-304.81,197.326,217.834,
00:00:27:33,-0.131,-0.91,0.303,-218.323,203.125,242.37,
00:00:27:50,-0.002,-0.963,0.244,-245.301,207.702,268.554,
00:00:27:67,0.057,-0.996,0.209,-234.925,187.378,276.062,
00:00:27:83,0.085,-1.068,0.186,-265.137,166.931,273.803,
00:00:27:100,0.03,-1.004,0.155,-342.286,127.075,281.738,
00:00:27:117,-0.064,-0.906,0.163,-376.038,118.408,280.578,
00:00:27:133,-0.164,-0.692,0.132,-34.852,170.41,283.752,
00:00:27:150,-0.155,-0.774,0.15,-10.437,202.942,278.686,
00:00:27:167,-0.103,-0.798,0.19,-8.057,212.829,263.794,
00:00:27:183,-0.062,-0.807,0.21,44.677,210.266,237.365,
00:00:27:200,0.026,-0.818,0.209,100.097,202.514,210.815,
00:00:27:217,0.332,-0.791,0.241,180.359,122.314,19.836,
00:00:27:233,0.375,-0.795,0.222,264.404,88.684,-14.954,
00:00:27:250,0.409,-0.854,0.231,302.429,49.316,-55.542,
00:00:27:267,0.417,-0.878,0.237,332.763,12.939,-66.285,
00:00:27:283,0.411,-0.886,0.231,335.754,-6.348,-59.876,
00:00:27:300,0.41,-0.804,0.207,309.387,-21.79,-36.011,
00:00:27:317,0.367,-0.829,0.208,405.578,-28.565,-32.349,
00:00:27:333,0.339,-0.968,0.204,461.914,-45.716,-22.583,
00:00:27:350,0.266,-1.021,0.101,551.513,-75.928,-74.158,
00:00:27:367,0.237,-1.021,-0.022,533.081,-53.65,-122.559,
00:00:27:383,0.138,-1.312,0.003,457.336,-73.853,-230.286,
00:00:27:400,0.044,-1.197,0.101,435.974,-74.097,-164.856,
00:00:27:417,0.047,-1.257,0.025,411.804,-69.153,-231.873,
00:00:27:433,0.027,-1.183,0.065,351.867,-80.628,-239.197,
00:00:27:450,0.006,-1.187,0.055,341.003,-79.468,-263.001,
00:00:27:467,-0.021,-1.219,0.045,278.015,-60.669,-268.982,
00:00:27:483,-0.013,-1.191,0.056,182.8,-28.138,-269.715,
00:00:27:500,-0.037,-1.204,0.083,125.061,-3.479,-286.255,
00:00:27:517,-0.061,-1.241,0.124,76.538,-0.367,-290.772,
00:00:27:533,-0.076,-1.247,0.056,-117.127,1.892,-339.661,
00:00:27:550,-0.08,-1.24,0.039,-225.22,14.892,-344.971,
00:00:27:567,-0.088,-1.309,0.021,-382.752,36.804,-392.212,
00:00:27:583,-0.092,-1.28,0.103,-570.252,31.677,-365.052,
00:00:27:600,-0.136,-1.232,0.097,-691.163,36.926,-383.24,
00:00:27:617,-0.139,-1.248,0.113,-893.494,31.25,-418.58,
00:00:27:633,-0.141,-1.082,0.172,-1064.27,14.892,-413.086,
00:00:27:650,-0.189,-1.021,0.183,-1124.207,15.014,-400.269,
00:00:27:667,-0.198,-0.974,0.176,-1230.408,21.606,-358.521,flipLH
00:00:27:683,-0.199,-0.906,0.225,-1377.747,42.785,-318.787,
00:00:27:700,-0.207,-0.879,0.274,-1553.65,68.908,-264.283,
00:00:27:717,-0.196,-0.893,0.325,-1840.76,108.398,-208.374,
00:00:27:733,-0.179,-0.849,0.328,-2000,144.409,-140.198,
00:00:27:750,-0.154,-0.782,0.333,-2000,173.523,-75.318,
00:00:27:767,-0.131,-0.662,0.434,-2000,214.66,17.761,
00:00:27:783,-0.101,-0.538,0.515,-2000,283.935,87.646,
00:00:27:800,-0.064,-0.458,0.562,-2000,330.932,100.097,
00:00:27:817,0.032,-0.236,0.656,-2000,417.968,103.576,
00:00:27:833,0.05,-0.157,0.646,-2000,498.535,148.254,
00:00:27:850,0.084,0.114,0.611,-2000,554.077,151.855,
00:00:27:867,0.096,0.492,0.691,-2000,520.568,81.848,
00:00:27:883,0.063,0.442,0.801,-2000,497.192,-91.126,
00:00:27:900,0.065,0.278,0.807,-1534.974,531.372,-264.954,
00:00:27:917,0.063,0.194,0.838,-1060.425,572.326,-380.982,
00:00:27:933,0.045,0.107,0.83,-765.259,631.286,-506.104,
00:00:27:950,0.059,0.04,0.8,-616.028,672.973,-615.479,
00:00:27:967,0.093,0.16,0.81,-511.536,698.181,-666.26,
00:00:27:983,0.116,0.288,0.791,-444.825,690.857,-705.506,
00:00:28:0,0.166,0.416,0.827,-401.062,671.447,-680.176,
00:00:28:17,0.182,0.587,0.866,-349.244,641.174,-649.903,
00:00:28:33,0.205,0.719,0.838,-218.14,610.717,-587.83,
00:00:28:50,0.336,0.864,0.114,-93.018,613.891,-483.46,
00:00:28:67,0.674,0.995,0.82,-39.734,460.754,-390.748,
00:00:28:83,0.432,0.809,1.546,241.088,130.127,-549.805,
00:00:28:100,0.499,0.784,1.276,102.172,26.794,-95.826,
00:00:28:117,0.384,0.984,1.072,118.713,-91.858,32.104,
00:00:28:133,0.358,0.733,1.041,270.996,-192.688,51.696,
00:00:28:150,0.319,0.531,0.895,243.042,-196.656,113.586,
00:00:28:167,0.304,0.539,0.781,117.859,-155.884,96.984,
00:00:28:183,0.316,0.525,0.758,90.271,-116.089,61.462,
00:00:28:200,0.332,0.488,0.733,99.609,-70.008,25.756,
00:00:28:217,0.37,0.5,0.791,65.063,-15.015,2.197,
00:00:28:233,0.382,0.513,0.819,126.587,-45.166,29.48,
00:00:28:250,0.417,0.54,0.873,209.35,-98.084,98.266,
00:00:28:267,0.425,0.551,0.925,330.566,-183.899,181.64,
00:00:28:283,0.395,0.508,0.921,496.215,-276.49,282.226,
00:00:28:300,0.39,0.499,1.056,607.91,-379.395,361.023,
00:00:28:317,0.288,0.224,0.815,933.532,-398.316,338.867,
00:00:28:333,0.273,0.212,0.86,1162.353,-411.744,318.42,
00:00:28:350,0.263,0.266,0.93,1457.519,-466.004,300.659,
00:00:28:367,0.216,0.144,0.983,1765.136,-529.053,230.896,
00:00:28:383,0.187,0.027,0.998,1919.189,-561.768,187.927,
00:00:28:400,0.162,-0.033,0.991,1977.05,-581.604,126.77,
00:00:28:417,0.129,-0.103,0.998,1999.694,-586.365,55.297,
00:00:28:433,0.123,-0.146,0.968,1999.694,-580.872,-19.471,
00:00:28:450,0.097,-0.228,0.951,1999.694,-594.056,-91.858,
00:00:28:467,0.054,-0.334,0.885,1999.694,-601.441,-142.823,
00:00:28:483,0.017,-0.448,0.843,1999.694,-584.046,-166.382,
00:00:28:500,-0.061,-0.533,0.811,1999.694,-531.128,-169.251,
00:00:28:517,-0.09,-0.683,0.688,1841.552,-373.414,-154.358,
00:00:28:533,-0.111,-0.727,0.665,1693.359,-338.807,-140.748,
00:00:28:550,-0.14,-0.754,0.594,1627.014,-309.754,-128.846,
00:00:28:567,-0.144,-0.812,0.554,1544.25,-287.293,-83.985,
00:00:28:583,-0.153,-0.9,0.528,1368.103,-242.981,-33.692,
00:00:28:600,-0.168,-0.953,0.457,1153.991,-202.027,-9.644,
00:00:28:617,-0.184,-0.985,0.408,947.509,-168.213,21.667,
00:00:28:633,-0.206,-1.042,0.411,796.508,-140.503,41.015,
00:00:28:650,-0.226,-1.075,0.384,653.015,-102.906,49.987,
00:00:28:667,-0.256,-1.097,0.352,552.734,-81.421,53.833,
00:00:28:683,-0.282,-1.134,0.34,477.172,-59.021,58.532,
00:00:28:700,-0.378,-1.091,0.192,303.344,43.518,44.067,
00:00:28:717,-0.414,-1.163,0.189,183.166,78.125,49.621,
00:00:28:733,-0.425,-1.165,0.175,-25.33,107.055,49.255,
00:00:28:750,-0.432,-1.132,0.209,-194.214,146.301,69.641,
00:00:28:767,-0.401,-1.05,0.218,-324.463,182.129,60.913,
00:00:28:783,-0.388,-0.963,0.222,-345.704,211.731,34.362,
00:00:28:800,-0.395,-0.932,0.254,-280.335,237.06,25.207,
00:00:28:817,-0.414,-0.935,0.271,-231.629,247.741,21.362,
00:00:28:833,-0.417,-0.902,0.263,-224.915,261.901,23.376,
00:00:28:850,-0.412,-0.925,0.268,-254.517,281.677,24.902,
00:00:28:867,-0.395,-0.899,0.268,-309.754,288.757,28.686,
00:00:28:883,-0.366,-0.823,0.279,-322.327,291.32,49.011,
00:00:28:900,-0.31,-0.702,0.291,-232.056,294.067,89.538,
00:00:28:917,-0.252,-0.692,0.254,-47.547,296.081,126.342,
00:00:28:933,-0.179,-0.787,0.228,8.422,296.447,180.053,
00:00:28:950,-0.111,-0.818,0.206,-43.091,301.33,230.957,
00:00:28:967,-0.035,-0.81,0.208,-80.933,303.344,266.479,
00:00:28:983,0.025,-0.817,0.245,-75.867,292.724,296.997,
00:00:29:0,0.07,-0.788,0.232,-42.481,273.986,316.162,
00:00:29:17,0.108,-0.836,0.218,-21.912,259.277,319.885,
00:00:29:33,0.134,-0.809,0.209,-40.833,245.666,327.575,
00:00:29:50,0.163,-0.823,0.213,-46.021,237.548,315.368,
00:00:29:67,0.205,-0.822,0.233,-20.264,220.398,293.701,
00:00:29:83,0.237,-0.829,0.243,30.883,185.058,256.713,
00:00:29:100,0.26,-0.839,0.209,103.454,144.592,200.683,
00:00:29:117,0.271,-0.875,0.157,149.475,109.375,137.146,
00:00:29:133,0.261,-0.829,0.135,177.307,83.374,87.707,
00:00:29:150,0.288,-0.837,0.135,191.467,88.134,43.701,
00:00:29:167,0.307,-0.907,0.19,191.162,82.458,7.812,
00:00:29:183,0.345,-0.953,0.259,225.036,69.763,-43.152,
00:00:29:200,0.366,-0.91,0.24,275.879,46.203,-49.988,
00:00:29:217,0.374,-0.919,0.167,344.604,33.081,-78.797,
00:00:29:233,0.373,-0.897,0.147,332.519,12.268,-95.215,
00:00:29:250,0.349,-0.89,0.146,357.605,2.136,-104.187,
00:00:29:267,0.337,-0.969,0.154,376.953,-1.709,-104.248,
00:00:29:283,0.315,-1.046,0.181,317.932,-18.128,-113.892,
00:00:29:300,0.271,-1.018,0.214,274.78,-46.509,-104.554,
00:00:29:317,0.227,-0.993,0.172,295.654,-65.613,-95.032,
00:00:29:333,0.119,-1.034,0.076,283.935,-84.656,-98.084,
00:00:29:350,0.224,-0.98,0.073,241.272,-77.454,-105.103,
00:00:29:367,0.081,-0.991,0.172,342.529,-113.404,-91.614,
00:00:29:383,0.199,-1.099,0.081,293.029,-88.135,-152.1,
00:00:29:400,0.048,-1.168,0.146,234.436,-121.644,-146.485,
00:00:29:417,0.076,-1.087,0.088,191.894,-105.164,-158.204,
00:00:29:433,0.046,-1.117,0.077,162.292,-120.301,-171.143,
00:00:29:450,0.003,-1.09,0.118,112.548,-117.676,-162.232,
00:00:29:467,0.004,-1.032,0.092,96.923,-110.291,-156.556,
00:00:29:483,-0.022,-0.992,0.072,134.582,-91.37,-161.194,
00:00:29:500,-0.041,-1.009,0.058,173.828,-77.942,-194.153,
00:00:29:517,-0.064,-1.021,0.053,215.881,-61.585,-200.684,
00:00:29:533,-0.051,-1.035,-0.025,240.173,-40.162,-201.966,
00:00:29:550,-0.051,-1.114,-0.033,219.726,-14.893,-203.675,
00:00:29:567,-0.049,-1.149,-0.033,166.687,12.878,-192.383,
00:00:29:583,-0.032,-1.143,0.006,106.079,46.203,-206.299,
00:00:29:600,-0.026,-1.114,0.078,122.375,62.622,-205.262,
00:00:29:617,-0.035,-1.146,0.044,134.582,74.218,-244.935,
00:00:29:633,-0.027,-1.161,0.037,106.872,82.336,-289.429,
00:00:29:650,-0.071,-1.231,0.006,64.086,87.829,-319.947,
00:00:29:667,-0.119,-1.344,0.021,-48.523,83.496,-319.581,flipLH
00:00:29:683,-0.113,-1.208,0.07,-155.823,77.819,-300.415,
00:00:29:700,-0.156,-1.17,0.063,-177.674,84.961,-321.778,
00:00:29:717,-0.195,-1.262,0.096,-245.301,95.703,-345.581,
00:00:29:733,-0.255,-1.346,0.083,-482.056,109.008,-359.192,
00:00:29:750,-0.252,-1.334,0.201,-825.928,93.627,-359.498,
00:00:29:767,-0.296,-1.136,0.259,-970.643,63.537,-357.117,
00:00:29:783,-0.298,-1.045,0.292,-898.987,46.264,-352.478,
00:00:29:800,-0.254,-1.01,0.292,-882.081,33.508,-327.454,
00:00:29:817,-0.257,-1.068,0.257,-1052.186,42.663,-308.35,
00:00:29:833,-0.229,-1.12,0.197,-1365.296,72.509,-271.729,
00:00:29:850,-0.186,-1.013,0.197,-1705.14,127.746,-227.051,
00:00:29:867,-0.169,-0.891,0.309,-1903.504,174.621,-174.805,
00:00:29:883,-0.14,-0.83,0.428,-1985.047,204.223,-146.302,
00:00:29:900,-0.114,-0.785,0.523,-2000,200.622,-112.977,
00:00:29:917,-0.111,-0.737,0.554,-2000,196.472,-84.595,
00:00:29:933,-0.078,-0.678,0.586,-2000,163.574,-51.026,
00:00:29:950,-0.092,-0.633,0.58,-2000,173.523,-21.119,
00:00:29:967,-0.101,-0.559,0.553,-2000,232.299,0,
00:00:29:983,-0.077,-0.442,0.572,-2000,289.489,15.258,
00:00:30:0,-0.057,-0.368,0.608,-2000,361.999,10.498,
00:00:30:17,-0.039,-0.224,0.619,-2000,442.016,10.498,
00:00:30:33,-0.015,-0.126,0.6,-2000,500.549,-23.377,
00:00:30:50,0.011,-0.052,0.583,-2000,570.861,-70.13,
00:00:30:67,0.037,0.162,0.59,-2000,617.065,-121.582,
00:00:30:83,0.079,0.329,0.669,-2000,612.487,-213.99,
00:00:30:100,0.077,0.282,0.657,-1999.939,658.142,-359.009,
00:00:30:117,0.13,0.318,0.693,-1605.164,690.673,-452.393,
00:00:30:133,0.13,0.286,0.646,-1070.008,715.21,-555.359,
00:00:30:150,0.178,0.217,0.655,-746.521,743.408,-673.951,
00:00:30:167,0.236,0.183,0.705,-638.001,775.756,-778.016,
00:00:30:183,0.258,0.28,0.726,-545.105,786.56,-801.88,
00:00:30:200,0.274,0.436,0.745,-398.682,769.226,-823.914,
00:00:30:217,0.287,0.531,0.732,-254.517,755.676,-833.008,
00:00:30:233,0.354,0.696,0.745,-120.118,753.906,-770.569,
00:00:30:250,0.397,0.719,0.159,1.159,746.704,-649.292,
00:00:30:267,0.662,1.094,0.737,226.135,579.528,-496.521,
00:00:30:283,0.617,1.298,1.351,-24.964,320.434,-312.684,
00:00:30:300,0.443,0.792,1.377,-75.867,187.011,-133.789,
00:00:30:317,0.276,1.248,1.208,170.593,24.475,126.403,
00:00:30:333,0.396,0.686,1.055,497.863,-127.32,104.553,
00:00:30:350,0.331,0.372,0.979,219.238,-139.527,106.75,
00:00:30:367,0.243,0.446,0.865,93.261,-118.103,103.515,
00:00:30:383,0.282,0.393,0.782,43.335,-90.027,18.615,
00:00:30:400,0.293,0.388,0.73,-23.804,-37.903,-45.899,
00:00:30:417,0.337,0.49,0.737,-31.617,-8.728,-86.609,
00:00:30:433,0.37,0.477,0.727,-39.734,11.901,-104.31,
00:00:30:450,0.416,0.561,0.746,-66.468,17.15,-72.144,
00:00:30:467,0.41,0.577,0.757,-27.832,7.507,-25.635,
00:00:30:483,0.414,0.536,0.75,-3.296,-9.522,19.836,
00:00:30:500,0.417,0.517,0.746,13.427,-18.006,68.664,
00:00:30:517,0.399,0.476,0.738,46.264,-34.852,96.801,
00:00:30:533,0.391,0.484,0.742,63.293,-42.237,117.981,
00:00:30:550,0.381,0.46,0.774,109.008,-69.886,131.286,
00:00:30:567,0.375,0.42,0.796,118.225,-89.173,147.216,
00:00:30:583,0.377,0.434,0.806,128.479,-116.578,173.401,
00:00:30:600,0.361,0.473,0.81,171.936,-155.701,210.754,
00:00:30:617,0.356,0.495,0.802,247.68,-208.313,251.587,
00:00:30:633,0.335,0.449,0.83,315.673,-277.466,302.856,
00:00:30:650,0.309,0.451,0.806,365.844,-337.159,385.192,
00:00:30:667,0.272,0.477,0.869,485.29,-432.312,455.993,
00:00:30:683,0.127,0.257,0.744,800.72,-552.735,551.635,
00:00:30:700,0.068,0.204,0.791,885.07,-566.468,546.081,
00:00:30:717,0.019,0.301,0.8,1026.001,-587.037,558.166,
00:00:30:733,-0.01,0.191,0.875,1198.303,-643.86,521.179,
00:00:30:750,-0.055,0.176,0.929,1294.433,-677.491,548.462,
00:00:30:767,-0.096,0.096,0.975,1360.29,-724.366,534.546,
00:00:30:783,-0.128,0.072,0.987,1415.1,-737,528.198,
00:00:30:800,-0.152,0.035,1.036,1559.204,-760.865,471.008,
00:00:30:817,-0.172,-0.034,1.036,1789.734,-787.171,382.141,
00:00:30:833,-0.192,-0.088,1.056,1996.643,-810.059,313.659,
00:00:30:850,-0.231,-0.132,1.012,1999.694,-804.627,205.017,
00:00:30:867,-0.288,-0.241,0.976,1999.694,-793.274,108.215,
00:00:30:883,-0.303,-0.337,0.924,1999.694,-765.076,39.428,
00:00:30:900,-0.321,-0.419,0.848,1999.694,-727.478,-15.748,
00:00:30:917,-0.328,-0.503,0.785,1999.694,-682.068,-54.993,
00:00:30:933,-0.328,-0.574,0.685,1999.694,-631.531,-82.215,
00:00:30:950,-0.34,-0.765,0.561,1999.694,-559.388,-30.335,
00:00:30:967,-0.346,-0.845,0.549,1994.384,-496.216,34.24,
00:00:30:983,-0.313,-0.878,0.549,1591.491,-409.424,89.66,
00:00:31:0,-0.241,-0.906,0.485,1091.186,-350.037,144.897,
00:00:31:17,-0.194,-0.872,0.374,700.317,-298.401,199.401,
00:00:31:33,-0.136,-0.944,0.278,407.898,-263.794,225.463,
00:00:31:50,-0.108,-1.005,0.24,138.549,-223.633,319.152,
00:00:31:67,-0.057,-0.874,0.287,-18.25,-163.758,374.633,
00:00:31:83,-0.059,-0.864,0.251,44.982,-111.206,386.169,
00:00:31:100,-0.073,-0.935,0.183,190.979,-68.482,408.264,
00:00:31:117,-0.142,-1.098,0.12,108.337,-46.998,454.345,
00:00:31:133,-0.169,-1.135,0.113,-320.496,23.071,472.534,
00:00:31:150,-0.151,-1.059,0.09,-545.777,80.871,460.022,
00:00:31:167,-0.144,-0.977,0.106,-516.785,102.661,443.847,
00:00:31:183,-0.098,-0.986,0.224,-393.433,91.735,391.723,
00:00:31:200,-0.135,-1.096,0.296,-263.367,54.931,354.553,
00:00:31:217,-0.176,-1.11,0.252,-270.386,39.917,303.344,
00:00:31:233,-0.176,-1.117,0.267,-313.965,30.395,259.216,
00:00:31:250,-0.19,-1.084,0.289,-423.401,41.381,219.543,
00:00:31:267,-0.164,-0.996,0.3,-485.474,39.245,194.397,
00:00:31:283,-0.144,-0.928,0.313,-476.136,32.043,187.439,
00:00:31:300,-0.141,-0.949,0.388,-333.435,-2.564,93.75,
00:00:31:317,-0.109,-1.098,0.428,-290.406,-20.935,82.58,
00:00:31:333,-0.165,-1.123,0.415,-406.983,10.437,13.732,
00:00:31:350,-0.107,-1.096,0.452,-516.175,12.207,5.676,
00:00:31:367,-0.064,-0.939,0.469,-467.835,8.911,-8.789,
00:00:31:383,-0.115,-0.984,0.485,-556.275,19.714,19.348,
00:00:31:400,-0.122,-0.985,0.47,-784.79,58.96,20.813,
00:00:31:417,-0.12,-0.913,0.498,-1071.351,113.952,29.296,
00:00:31:433,-0.05,-0.773,0.499,-1191.773,142.883,16.113,
00:00:31:450,-0.088,-0.783,0.547,-1171.814,156.555,40.1,
00:00:31:467,-0.024,-0.714,0.611,-1215.271,169.067,40.954,
00:00:31:483,-0.029,-0.617,0.657,-1086.243,169.922,49.072,
00:00:31:500,-0.009,-0.662,0.667,-949.219,153.198,40.161,
00:00:31:517,-0.009,-0.663,0.701,-953.125,161.682,20.996,
00:00:31:533,0.001,-0.621,0.753,-1007.63,157.348,19.836,
00:00:31:550,0.022,-0.578,0.797,-974.854,150.329,8.422,
00:00:31:567,0.018,-0.558,0.832,-804.078,137.146,1.159,
00:00:31:583,0.03,-0.487,0.853,-630.249,125.122,4.821,
00:00:31:600,0.014,-0.546,0.844,-531.617,104.309,-11.536,
00:00:31:617,0.018,-0.672,0.874,-544.556,98.51,-43.457,
00:00:31:633,0.017,-0.634,0.868,-655.579,108.886,-49.317,
00:00:31:650,0.024,-0.574,0.98,-665.65,86.669,-85.572,
00:00:31:667,-0.013,-0.573,0.999,-664.124,71.655,-122.132,
00:00:31:683,-0.061,-0.52,0.953,-738.16,71.106,-91.736,
00:00:31:700,-0.031,-0.411,0.944,-798.768,67.993,-94.239,
00:00:31:717,-0.039,-0.312,0.971,-771.79,59.143,-113.221,
00:00:31:733,-0.051,-0.34,0.939,-704.895,70.861,-111.451,
00:00:31:750,-0.027,-0.273,0.94,-701.233,88.989,-83.619,
00:00:31:767,-0.013,-0.19,0.948,-625,89.538,-73.609,
00:00:31:783,0.016,-0.229,0.96,-511.17,72.753,-94.91,
00:00:31:800,0.013,-0.244,1.021,-463.868,61.34,-84.229,
00:00:31:817,0.013,-0.228,1.022,-416.626,66.711,-78.858,
00:00:31:833,0.026,-0.164,1.002,-355.957,58.166,-64.087,
00:00:31:850,0.021,-0.141,1.001,-244.873,47.851,-59.998,
00:00:31:867,0.024,-0.183,0.999,-171.509,51.513,-61.341,
00:00:31:883,0.021,-0.14,1.004,-80.079,39.794,-43.335,
00:00:31:900,0.024,-0.134,1.024,21.972,34.118,-26.795,
00:00:31:917,0.031,-0.136,1.004,97.534,22.827,-9.156,
00:00:31:933,0.024,-0.189,1.012,127.868,18.615,-17.762,
00:00:31:950,0.031,-0.243,1,128.54,26.123,-23.499,
00:00:31:967,0.019,-0.236,0.984,140.319,28.503,-21.363,
00:00:31:983,0.017,-0.227,0.979,149.658,28.808,-27.588,
00:00:32:0,0.006,-0.254,0.96,145.324,27.71,-27.1,
00:00:32:17,0.008,-0.25,0.955,113.22,30.517,-24.964,
00:00:32:33,0.003,-0.276,0.952,53.161,37.475,-19.288,
00:00:32:50,0.011,-0.25,0.969,29.602,41.137,-11.902,
00:00:32:67,0.014,-0.241,0.984,46.691,38.452,-17.823,
00:00:32:83,0.028,-0.264,0.991,65.551,34.179,-30.579,
00:00:32:100,0.029,-0.287,0.978,64.148,27.587,-38.269,
00:00:32:117,0.022,-0.275,0.981,64.27,28.503,-31.922,
00:00:32:133,0.024,-0.248,0.994,65.856,22.583,-32.593,
00:00:32:150,0.03,-0.229,1.007,100.219,5.493,-17.273,
00:00:32:167,0.045,-0.196,1.009,171.081,-23.682,-6.348,
00:00:32:183,0.066,-0.224,1.032,217.407,-59.815,-0.733,
00:00:32:200,0.064,-0.219,0.998,212.036,-94.117,12.817,
00:00:32:217,0.072,-0.105,1.018,250.488,-130.433,47.241,
00:00:32:233,0.068,-0.158,1.006,364.99,-176.819,34.118,
00:00:32:250,0.054,-0.219,1.004,433.288,-213.807,52.673,
00:00:32:267,0.041,-0.266,0.994,434.997,-248.963,74.34,
00:00:32:283,0.009,-0.362,0.985,372.741,-275.635,71.35,
00:00:32:300,-0.028,-0.39,0.998,247.375,-267.029,94.604,
00:00:32:317,-0.038,-0.362,1.016,155.517,-261.658,100.28,
00:00:32:333,-0.042,-0.393,1.016,135.131,-268.799,82.092,
00:00:32:350,-0.057,-0.449,0.993,137.451,-261.231,68.969,
00:00:32:367,-0.065,-0.485,0.978,172.241,-268.799,50.659,
00:00:32:383,-0.072,-0.461,0.989,156.616,-257.569,70.617,
00:00:32:400,-0.076,-0.43,0.945,158.996,-251.404,59.326,
00:00:32:417,-0.102,-0.448,0.869,168.701,-242.92,50.781,
00:00:32:433,-0.115,-0.446,0.828,154.297,-228.882,61.34,
