TIMECODE,ACC_X,ACC_Y,ACC_Z,GYR_X,GYR_Y,GYR_Z,TAG
00:00:00:0,-0.026,-0.441,0.92,-13.977,19.165,-32.349,
00:00:00:16,-0.025,-0.442,0.923,-14.161,17.456,-16.358,
00:00:00:33,-0.024,-0.444,0.92,-14.039,14.77,-31.861,
00:00:00:50,-0.027,-0.447,0.921,-14.527,15.014,-32.227,
00:00:00:66,-0.026,-0.446,0.92,-18.433,18.066,-30.213,
00:00:00:83,-0.024,-0.441,0.917,-19.41,18.859,-29.786,
00:00:00:100,-0.023,-0.446,0.92,-18.86,18.615,-31.8,
00:00:00:116,-0.022,-0.439,0.916,-16.053,19.531,-29.053,
00:00:00:133,-0.026,-0.443,0.923,-14.771,14.587,-30.945,
00:00:00:150,-0.025,-0.442,0.92,-14.771,17.883,-30.396,
00:00:00:166,-0.026,-0.444,0.926,-13.794,17.639,-31.434,
00:00:00:183,-0.024,-0.443,0.919,-16.48,14.404,-30.03,
00:00:00:200,-0.024,-0.444,0.922,-14.954,15.502,-31.922,
00:00:00:216,-0.023,-0.443,0.92,-17.945,16.662,-32.044,
00:00:00:233,-0.023,-0.439,0.914,-14.588,17.089,-30.64,
00:00:00:250,-0.025,-0.445,0.923,-15.32,16.235,-30.396,
00:00:00:266,-0.024,-0.443,0.92,-18.128,18.676,-29.725,
00:00:00:283,-0.023,-0.445,0.921,-16.297,18.188,-30.396,
00:00:00:300,-0.027,-0.44,0.921,-16.053,22.033,-30.457,
00:00:00:316,-0.021,-0.441,0.923,-15.137,17.578,-30.091,
00:00:00:333,-0.023,-0.439,0.921,-10.437,15.502,-33.02,
00:00:00:350,-0.022,-0.443,0.92,-9.095,15.136,-33.57,
00:00:00:366,-0.025,-0.449,0.921,-10.987,16.723,-32.227,
00:00:00:383,-0.026,-0.444,0.915,-13.916,14.77,-31.434,
00:00:00:400,-0.025,-0.448,0.922,-15.686,21.484,-30.152,
00:00:00:416,-0.026,-0.442,0.916,-16.053,19.104,-30.579,
00:00:00:433,-0.026,-0.444,0.92,-16.48,16.784,-29.786,
00:00:00:450,-0.025,-0.442,0.92,-19.288,17.517,-32.288,
00:00:00:466,-0.022,-0.44,0.92,-16.175,18.005,-31.678,
00:00:00:483,-0.028,-0.441,0.923,-14.1,16.357,-31.617,
00:00:00:500,-0.024,-0.441,0.918,-11.658,16.174,-31.434,
00:00:00:516,-0.024,-0.446,0.918,-11.841,16.174,-31.983,
00:00:00:533,-0.029,-0.442,0.917,-10.865,12.268,-32.532,
00:00:00:550,-0.025,-0.448,0.917,-11.536,17.883,-31.189,
00:00:00:566,-0.024,-0.442,0.916,-14.222,17.273,-31.678,
00:00:00:583,-0.024,-0.446,0.92,-13.428,16.967,-32.593,
00:00:00:600,-0.028,-0.44,0.915,-15.564,18.798,-28.809,
00:00:00:616,-0.02,-0.444,0.92,-15.015,16.296,-29.969,
00:00:00:633,-0.023,-0.443,0.919,-14.588,17.517,-28.992,
00:00:00:650,-0.023,-0.442,0.922,-15.259,16.052,-31.922,
00:00:00:666,-0.025,-0.444,0.919,-12.085,14.831,-29.908,
00:00:00:683,-0.026,-0.442,0.92,-12.513,13.916,-31.128,
00:00:00:700,-0.027,-0.448,0.918,-13.306,12.939,-30.335,
00:00:00:716,-0.025,-0.445,0.918,-11.292,15.93,-30.518,
00:00:00:733,-0.026,-0.448,0.923,-15.564,17.395,-29.114,
00:00:00:750,-0.027,-0.445,0.917,-18.25,20.141,-30.396,
00:00:00:766,-0.025,-0.445,0.92,-15.503,18.066,-29.786,
00:00:00:783,-0.025,-0.443,0.919,-17.64,18.31,-30.457,
00:00:00:800,-0.023,-0.44,0.917,-15.992,15.38,-30.945,
00:00:00:816,-0.024,-0.443,0.92,-16.602,20.385,-30.762,
00:00:00:833,-0.025,-0.439,0.92,-12.879,14.465,-32.959,
00:00:00:850,-0.026,-0.444,0.918,-11.902,17.334,-30.762,
00:00:00:866,-0.024,-0.443,0.92,-10.315,17.395,-31.067,
00:00:00:883,-0.024,-0.448,0.917,-14.649,16.662,-31.128,
00:00:00:900,-0.025,-0.443,0.92,-15.625,21.484,-30.213,
00:00:00:916,-0.022,-0.448,0.919,-15.748,20.141,-30.579,
00:00:00:933,-0.024,-0.442,0.92,-16.48,18.92,-30.213,
00:00:00:950,-0.023,-0.441,0.919,-9.217,18.005,-28.504,
00:00:00:966,-0.026,-0.446,0.918,-12.024,18.981,-32.044,
00:00:00:983,-0.025,-0.438,0.917,-11.78,16.967,-32.593,
00:00:01:0,-0.024,-0.447,0.92,-9.827,13.671,-31.678,
00:00:01:16,-0.026,-0.446,0.916,-8.851,16.357,-28.931,
00:00:01:33,-0.025,-0.442,0.921,-18.433,19.47,-30.823,
00:00:01:50,-0.025,-0.445,0.922,-19.593,20.08,-30.152,
00:00:01:66,-0.022,-0.437,0.921,-15.931,15.136,-28.87,
00:00:01:83,-0.025,-0.444,0.92,-10.315,14.953,-32.288,
00:00:01:100,-0.027,-0.438,0.917,-11.109,19.287,-30.335,
00:00:01:116,-0.024,-0.448,0.918,-12.391,16.906,-30.884,
00:00:01:133,-0.022,-0.449,0.921,-15.137,20.385,-30.823,
00:00:01:150,-0.025,-0.445,0.918,-16.846,17.089,-31.373,
00:00:01:166,-0.023,-0.445,0.92,-16.297,19.897,-31.128,
00:00:01:183,-0.024,-0.439,0.92,-13.306,19.226,-29.358,
00:00:01:200,-0.022,-0.447,0.923,-15.809,14.953,-30.823,
00:00:01:216,-0.025,-0.446,0.915,-17.518,13.671,-30.152,
00:00:01:233,-0.022,-0.446,0.919,-17.456,15.197,-46.387,
00:00:01:250,-0.027,-0.443,0.92,-17.701,15.869,-30.884,
00:00:01:266,-0.023,-0.442,0.919,-14.893,15.808,-31.739,
00:00:01:283,-0.027,-0.447,0.92,-17.518,17.395,-29.297,
00:00:01:300,-0.026,-0.441,0.918,-17.273,18.432,-31.739,
00:00:01:316,-0.024,-0.445,0.922,-12.818,13.671,-30.884,
00:00:01:333,-0.028,-0.443,0.921,-14.954,14.953,-31.495,
00:00:01:350,-0.024,-0.446,0.918,-16.114,31.005,-31.922,
00:00:01:366,-0.023,-0.443,0.917,-17.823,12.023,-31.556,
00:00:01:383,-0.026,-0.443,0.917,-30.823,13.794,-30.762,
00:00:01:400,-0.028,-0.449,0.921,-17.212,17.639,-30.457,
00:00:01:416,-0.026,-0.443,0.92,-16.785,17.211,-29.908,
00:00:01:433,-0.026,-0.444,0.921,-17.701,18.249,-32.288,
00:00:01:450,-0.026,-0.45,0.919,-12.696,14.526,-30.213,
00:00:01:466,-0.026,-0.449,0.918,-15.625,18.188,-28.931,
00:00:01:483,-0.025,-0.444,0.918,-16.968,17.334,-31.25,
00:00:01:500,-0.022,-0.445,0.921,-16.602,18.676,-30.457,
00:00:01:516,-0.025,-0.441,0.918,-17.212,17.517,-30.457,
00:00:01:533,-0.026,-0.446,0.92,-17.151,15.258,-30.518,
00:00:01:550,-0.023,-0.443,0.913,-15.931,18.127,-32.288,
00:00:01:566,-0.027,-0.445,0.922,-15.992,14.709,-30.274,
00:00:01:583,-0.027,-0.441,0.921,-15.625,15.869,-29.114,
00:00:01:600,-0.025,-0.443,0.922,-13.55,15.319,-30.762,
00:00:01:616,-0.029,-0.442,0.919,-15.87,15.747,-31.311,
00:00:01:633,-0.027,-0.441,0.919,-13.001,15.258,-31.495,
00:00:01:650,-0.027,-0.448,0.918,-13.733,16.967,-31.617,
00:00:01:666,-0.027,-0.443,0.918,-20.935,19.348,-30.579,
00:00:01:683,-0.025,-0.447,0.919,-19.654,16.235,-31.617,
00:00:01:700,-0.028,-0.437,0.923,-18.067,17.395,-30.945,
00:00:01:716,-0.025,-0.442,0.917,-7.996,13.916,-30.945,
00:00:01:733,-0.025,-0.448,0.917,-12.085,12.268,-29.725,
00:00:01:750,-0.026,-0.443,0.917,-12.818,14.343,-30.457,
00:00:01:766,-0.028,-0.451,0.921,-18.189,18.005,-29.725,
00:00:01:783,-0.023,-0.441,0.917,-18.311,16.113,-29.664,
00:00:01:800,-0.025,-0.444,0.925,-15.809,30.944,-31.189,
00:00:01:816,-0.024,-0.441,0.922,-12.757,16.418,-30.884,
00:00:01:833,-0.026,-0.444,0.917,-11.597,13.855,-30.762,
00:00:01:850,-0.025,-0.448,0.924,-12.696,18.859,-30.945,
00:00:01:866,-0.024,-0.444,0.92,-12.818,12.695,-31.434,
00:00:01:883,-0.025,-0.449,0.918,-16.48,12.085,-31.434,
00:00:01:900,-0.028,-0.442,0.917,-15.076,16.113,-31.495,
00:00:01:916,-0.025,-0.447,0.915,-15.931,17.517,-30.213,
00:00:01:933,-0.026,-0.444,0.916,-15.015,17.395,-30.152,
00:00:01:950,-0.024,-0.444,0.92,-0.123,18.859,-29.419,
00:00:01:966,-0.026,-0.44,0.921,-16.114,17.089,-28.87,
00:00:01:983,-0.023,-0.441,0.92,-13.184,13.061,-32.715,
00:00:02:0,-0.023,-0.445,0.92,-13.977,11.84,-30.701,
00:00:02:16,-0.025,-0.444,0.916,-10.315,16.662,-30.579,
00:00:02:33,-0.027,-0.449,0.92,-11.841,14.404,-28.687,
00:00:02:50,-0.028,-0.446,0.916,-15.503,15.686,-31.189,
00:00:02:66,-0.026,-0.449,0.92,-17.64,20.874,-30.396,
00:00:02:83,-0.026,-0.442,0.92,-19.593,18.249,-28.626,
00:00:02:100,-0.022,-0.443,0.924,-19.227,14.16,-30.03,
00:00:02:116,-0.026,-0.443,0.917,-15.015,14.282,-31.922,
00:00:02:133,-0.03,-0.444,0.921,-13.428,14.892,-30.335,
00:00:02:150,-0.026,-0.444,0.922,-17.09,16.357,-32.532,
00:00:02:166,-0.024,-0.441,0.916,-16.114,16.357,-31.006,
00:00:02:183,-0.026,-0.443,0.916,-16.419,31.189,-30.884,
00:00:02:200,-0.026,-0.449,0.922,-15.076,13.366,-30.579,
00:00:02:216,-0.027,-0.444,0.921,-17.64,18.005,-29.541,
00:00:02:233,-0.025,-0.444,0.921,-19.41,16.479,-30.579,
00:00:02:250,-0.028,-0.441,0.921,-18.128,22.155,-29.786,
00:00:02:266,-0.024,-0.439,0.92,-15.259,16.418,-29.786,
00:00:02:283,-0.024,-0.446,0.919,-14.344,13.732,-30.823,
00:00:02:300,-0.029,-0.445,0.92,-16.602,16.052,-30.152,
00:00:02:316,-0.029,-0.448,0.917,-19.043,18.066,-30.518,
00:00:02:333,-0.025,-0.448,0.916,-23.865,17.089,-29.786,
00:00:02:350,-0.026,-0.444,0.919,-25.269,14.892,-29.908,
00:00:02:366,-0.03,-0.436,0.917,-22.461,16.113,-30.274,
00:00:02:383,-0.026,-0.441,0.922,-22.156,16.784,-29.358,
00:00:02:400,-0.027,-0.444,0.918,-21.546,21.118,-31.067,
00:00:02:416,-0.026,-0.443,0.922,-21.058,21.118,-30.091,
00:00:02:433,-0.023,-0.445,0.92,-26.917,20.507,-30.213,
00:00:02:450,-0.021,-0.445,0.923,-26.612,15.075,-30.579,
00:00:02:466,-0.023,-0.443,0.925,-31.006,15.197,-32.349,
00:00:02:483,-0.022,-0.439,0.929,-27.405,11.108,-32.959,
00:00:02:500,-0.023,-0.453,0.919,-33.997,1.709,-33.936,
00:00:02:516,-0.037,-0.466,0.925,-39.49,0.122,-37.537,
00:00:02:533,-0.047,-0.469,0.939,-60.181,14.892,-33.02,
00:00:02:550,-0.063,-0.441,0.948,-61.524,49.377,-33.081,
00:00:02:566,-0.068,-0.42,0.981,-40.772,79.834,-12.207,
00:00:02:583,-0.11,-0.549,1.109,-65.674,96.801,-39.307,
00:00:02:600,-0.112,-0.605,1.319,-123.047,186.889,-205.384,
00:00:02:616,0.013,-0.642,1.604,-94.117,40.222,-300.904,
00:00:02:633,0.127,-0.92,2.32,-433.472,-561.585,-423.829,
00:00:02:650,0.222,-0.784,2.352,-473.389,-908.814,-737.488,
00:00:02:666,0.127,-0.902,2.522,-392.395,-1359.498,-832.459,
00:00:02:683,0.184,-0.995,2.441,-399.842,-1676.758,-953.37,
00:00:02:700,0.232,-0.974,2.179,-593.873,-1896.668,-1078.248,
00:00:02:716,0.269,-0.872,2.015,-832.093,-1987.061,-1176.941,
00:00:02:733,0.366,-0.706,1.747,-1001.648,-2000,-1286.988,
00:00:02:750,0.484,-0.71,1.506,-1116.639,-2000,-1353.333,
00:00:02:766,0.573,-0.716,1.274,-1237.183,-2000,-1371.949,
00:00:02:783,0.651,-0.64,0.882,-1242.615,-2000,-1412.476,
00:00:02:800,0.656,-0.489,0.394,-1207.581,-2000,-1413.941,
00:00:02:816,0.643,-0.542,0.151,-1205.14,-2000,-1467.835,
00:00:02:833,0.688,-0.465,-0.192,-1208.252,-2000,-1497.01,
00:00:02:850,0.804,-0.395,-0.389,-1127.625,-2000,-1526.429,
00:00:02:866,0.912,-0.297,-1.662,-885.926,-2000,-1629.334,
00:00:02:883,0.854,0.109,-2.642,-707.032,-1974.671,-1466.126,
00:00:02:900,0.613,0.483,-3.093,-546.875,-1089.783,-1252.747,
00:00:02:916,0.639,0.996,-3.219,-295.838,110.046,-769.104,
00:00:02:933,0.8,1.374,-3.058,88.012,1280.944,-103.089,
00:00:02:950,0.912,1.389,-2.597,722.778,1999.694,563.049,
00:00:02:966,1.098,0.993,-2.353,1554.26,1999.694,1184.692,
00:00:02:983,1.209,0.639,-1.964,1999.694,1999.694,1639.709,
00:00:03:0,1.34,0.185,-1.45,1999.694,1999.694,1999.633,
00:00:03:16,1.477,-0.601,-1.271,1999.694,1999.694,1999.694,
00:00:03:33,1.611,-0.854,-0.666,1999.694,1999.694,1999.694,
00:00:03:50,1.745,-2.437,0.629,1999.694,1999.694,1983.154,
00:00:03:66,2.076,-2.973,1.865,1573.547,1999.694,1860.046,
00:00:03:83,1.848,-2.581,2.802,649.78,1999.694,1277.588,
00:00:03:100,1.503,-1.925,3.571,-22.339,1999.694,820.19,
00:00:03:116,0.55,-0.814,3.876,119.567,1519.531,555.175,
00:00:03:133,-0.191,-0.46,2.942,749.328,665.771,432.617,
00:00:03:150,0.132,-0.687,2.319,413.879,431.213,459.533,
00:00:03:166,0,-0.575,1.858,-20.508,356.872,439.636,
00:00:03:183,-0.092,-0.217,1.342,-120.057,436.767,335.205,
00:00:03:200,0.106,-0.355,1.161,-6.409,437.011,198.059,
00:00:03:216,0.045,-0.272,1.323,185.669,394.897,183.715,
00:00:03:233,0.227,-0.268,2.05,881.042,-33.265,224.182,
00:00:03:250,-0.286,-1.411,1.13,670.166,-380.005,-303.833,
00:00:03:266,-0.622,-0.568,0.48,-141.419,159.79,324.035,
00:00:03:283,0.039,-0.51,0.764,-114.441,292.541,-122.559,
00:00:03:300,0.383,-0.465,0.998,-194.642,159.057,109.497,
00:00:03:316,0.126,-0.194,0.985,-45.411,18.249,43.273,
00:00:03:333,0.184,-0.32,0.933,184.997,16.967,38.086,
00:00:03:350,0.058,-0.315,0.987,201.721,-26.49,17.883,
00:00:03:366,0.004,-0.426,0.968,159.179,3.234,-37.598,
00:00:03:383,0.085,-0.462,0.945,113.952,22.888,-39.124,
00:00:03:400,0.069,-0.456,0.94,59.021,3.784,-47.059,
00:00:03:416,0,-0.544,0.925,-123.902,30.7,-29.419,
00:00:03:433,0.035,-0.529,0.919,-255.921,59.936,-12.574,
00:00:03:450,0.076,-0.496,0.897,-398.499,45.166,-49.744,
00:00:03:466,0.086,-0.467,0.903,-442.2,39.062,-127.259,
00:00:03:483,0.082,-0.244,0.812,-349.427,20.752,-183.838,
00:00:03:500,0.11,-0.468,0.822,-184.876,-151.734,-296.631,
00:00:03:516,0.108,-0.686,0.943,-163.025,-203.125,-397.767,
00:00:03:533,0.078,-0.775,0.952,-199.463,-194.703,-526.978,
00:00:03:550,0.083,-0.829,1.015,-446.839,-17.029,-446.473,
00:00:03:566,0.082,-0.371,1.187,-479.248,27.526,-442.2,
00:00:03:583,0.173,-0.203,1.199,-76.05,-198.731,-573.182,
00:00:03:600,0.105,-0.37,1.134,270.446,-316.712,-682.74,
00:00:03:616,-0.087,-0.373,0.907,614.074,-231.934,-749.39,
00:00:03:633,-0.087,-0.402,0.832,637.817,-192.81,-765.503,
00:00:03:650,-0.107,-0.463,0.875,580.261,-151.734,-757.019,
00:00:03:666,-0.107,-0.472,1.012,396.179,-54.383,-714.478,
00:00:03:683,-0.085,-0.428,1.063,140.564,56.579,-634.278,
00:00:03:700,-0.086,-0.352,0.92,40.1,99.426,-604.065,
00:00:03:716,-0.126,-0.276,0.768,47.18,89.965,-562.134,
00:00:03:733,-0.163,-0.277,0.756,61.828,88.44,-550.66,
00:00:03:750,-0.141,-0.39,0.877,14.343,115.966,-551.026,
00:00:03:766,-0.113,-0.441,1.007,-132.081,148.742,-482.056,
00:00:03:783,-0.107,-0.352,1.059,-264.1,166.198,-405.579,
00:00:03:800,-0.111,-0.313,0.998,-228.028,128.479,-376.526,
00:00:03:816,-0.159,-0.321,0.914,-164.307,80.566,-376.648,
00:00:03:833,-0.105,-0.351,0.888,-290.833,181.518,-368.958,
00:00:03:850,-0.065,-0.372,0.979,-394.593,148.132,-297.364,
00:00:03:866,-0.096,-0.287,1.008,-466.614,118.591,-224.305,
00:00:03:883,-0.138,-0.258,1.008,-514.649,93.017,-219.3,
00:00:03:900,-0.155,-0.211,0.94,-540.711,116.455,-174.744,
00:00:03:916,-0.153,-0.122,0.832,-558.655,151.611,-147.461,
00:00:03:933,-0.114,-0.102,0.813,-493.47,182.434,-161.011,
00:00:03:950,-0.062,-0.14,0.886,-451.722,165.832,-131.897,
00:00:03:966,-0.058,-0.122,1.055,-479.859,134.46,-82.581,
00:00:03:983,-0.061,-0.152,1.124,-420.899,122.253,-92.835,
00:00:04:0,-0.058,-0.193,1.027,-321.778,118.042,-108.826,
00:00:04:16,-0.069,-0.182,0.959,-259.217,108.642,-105.469,
00:00:04:33,-0.098,-0.138,0.916,-215.882,120.3,-107.117,
00:00:04:50,-0.114,-0.142,0.894,-170.899,134.399,-148.011,
00:00:04:66,-0.111,-0.198,0.935,-181.885,135.254,-169.678,
00:00:04:83,-0.119,-0.155,1.024,-287.72,149.597,-119.568,
00:00:04:100,-0.118,-0.024,1.104,-314.393,181.213,-91.919,
00:00:04:116,-0.091,0.021,1.024,-177.918,162.231,-103.15,
00:00:04:133,-0.095,0.043,1.007,-50.415,115.722,-60.303,
00:00:04:150,-0.085,0.066,1,42.48,111.877,-45.411,
00:00:04:166,-0.037,0.062,0.955,135.376,122.375,-50.11,
00:00:04:183,0,-0.061,0.942,236.023,79.711,-18.128,
00:00:04:200,-0.016,-0.112,0.867,301.88,79.04,49.011,
00:00:04:216,-0.048,-0.049,0.835,316.345,106.14,118.774,
00:00:04:233,-0.046,0.013,0.853,370.3,140.442,174.377,
00:00:04:250,-0.012,0.023,0.903,583.984,156.616,208.252,
00:00:04:266,0.056,-0.165,0.933,932.678,90.637,157.714,
00:00:04:283,0.106,-0.441,0.994,1128.906,-36.805,77.331,
00:00:04:300,0.06,-0.791,1.02,1023.742,-155.884,-49.378,
00:00:04:316,-0.042,-0.717,1.074,627.502,-71.9,46.447,
00:00:04:333,-0.087,-0.399,1.123,308.776,-19.837,116.577,
00:00:04:350,-0.067,-0.412,0.942,169.25,-80.201,18.92,
00:00:04:366,-0.112,-0.377,0.911,99.792,-30.335,30.517,
00:00:04:383,-0.098,-0.415,0.917,17.395,7.263,20.996,
00:00:04:400,-0.086,-0.369,0.941,9.46,51.696,47.607,
00:00:04:416,-0.097,-0.318,0.999,70.922,44.982,52.185,
00:00:04:433,-0.097,-0.339,1.044,62.011,20.568,52.612,
00:00:04:450,-0.106,-0.39,1.104,78.369,-15.809,38.269,
00:00:04:466,-0.125,-0.348,1.011,169.799,-30.64,76.416,
00:00:04:483,-0.102,-0.361,0.962,268.737,-49.744,57.556,
00:00:04:500,-0.067,-0.378,0.917,344.055,-52.552,36.315,
00:00:04:516,-0.032,-0.416,0.797,355.651,-34.302,17.273,
00:00:04:533,-0.001,-0.38,0.802,279.541,-16.541,40.222,
00:00:04:550,-0.017,-0.442,0.802,202.88,-24.476,30.395,
00:00:04:566,-0.153,-0.564,0.885,215.026,-81.299,53.405,
00:00:04:583,-0.159,-0.654,0.995,458.191,-147.339,-11.17,
00:00:04:600,-0.114,-0.667,0.963,643.188,-253.235,-70.374,
00:00:04:616,-0.125,-0.768,0.892,742.981,-360.657,-150.33,
00:00:04:633,-0.17,-0.812,0.805,759.887,-409.668,-202.271,
00:00:04:650,-0.209,-0.838,0.806,681.091,-438.233,-265.442,
00:00:04:666,-0.249,-0.802,0.942,526.245,-435.425,-315.918,
00:00:04:683,-0.233,-0.704,0.855,329.956,-412.781,-334.351,
00:00:04:700,-0.194,-0.716,0.753,-159.058,-370.789,-324.402,
00:00:04:716,-0.176,-0.592,0.849,-445.13,-325.074,-274.414,
00:00:04:733,-0.172,-0.516,0.836,-491.883,-326.722,-241.272,
00:00:04:750,-0.247,-0.464,0.873,-409.668,-308.289,-200.318,
00:00:04:766,-0.297,-0.34,0.857,-139.222,-275.33,-174.195,
00:00:04:783,-0.291,-0.414,0.787,157.776,-262.024,-179.688,
00:00:04:800,-0.278,-0.501,0.763,207.214,-194.031,-161.133,
00:00:04:816,-0.251,-0.363,0.743,194.702,-142.579,-127.137,
00:00:04:833,-0.222,-0.352,0.698,152.16,-95.765,-100.22,
00:00:04:850,-0.182,-0.418,0.696,54.138,-57.679,-64.637,
00:00:04:866,-0.169,-0.446,0.682,93.383,-33.814,-33.997,
00:00:04:883,-0.158,-0.647,0.697,174.621,-5.677,-21.119,
00:00:04:900,-0.149,-0.599,0.71,164.55,34.301,15.686,
00:00:04:916,-0.177,-0.543,0.698,157.043,47.729,34.118,
00:00:04:933,-0.176,-0.597,0.737,92.651,63.171,34.362,
00:00:04:950,-0.191,-0.587,0.776,28.991,75.012,36.254,
00:00:04:966,-0.226,-0.592,0.776,-3.296,77.453,47.119,
00:00:04:983,-0.228,-0.575,0.791,-3.357,72.021,50.109,
00:00:05:0,-0.237,-0.611,0.786,54.199,71.044,54.931,
00:00:05:16,-0.252,-0.727,0.836,159.24,43.823,29.663,
00:00:05:33,-0.269,-0.683,0.76,70.19,58.96,65.979,
00:00:05:50,-0.285,-0.583,0.777,-19.837,66.894,49.56,
00:00:05:66,-0.281,-0.628,0.826,4.394,42.297,44.982,
00:00:05:83,-0.275,-0.653,0.832,45.959,26.916,42.846,
00:00:05:100,-0.292,-0.624,0.801,99.06,22.705,41.503,
00:00:05:116,-0.324,-0.61,0.771,229.065,9.399,32.714,
00:00:05:133,-0.328,-0.717,0.739,280.7,7.568,40.466,
00:00:05:150,-0.328,-0.872,0.643,242.431,26.855,35.949,
00:00:05:166,-0.355,-0.797,0.616,53.711,114.99,26.489,
00:00:05:183,-0.343,-0.587,0.499,-84.412,164.611,30.273,
00:00:05:200,-0.199,-0.42,0.882,143.249,128.845,6.897,
00:00:05:216,-0.295,-0.893,0.666,288.757,19.104,-38.636,
00:00:05:233,-0.269,-0.696,0.78,127.075,62.866,10.315,
00:00:05:250,-0.253,-0.74,0.719,148.62,21.118,-17.029,
00:00:05:266,-0.262,-0.852,0.688,63.232,36.865,-36.438,
00:00:05:283,-0.219,-0.76,0.726,-58.411,79.162,-28.809,
00:00:05:300,-0.204,-0.661,0.74,-40.101,76.11,-32.776,
00:00:05:316,-0.205,-0.704,0.795,43.273,48.034,-41.993,
00:00:05:333,-0.268,-0.734,0.781,50.537,9.582,-49.317,
00:00:05:350,-0.272,-0.83,0.768,-135.926,15.075,-28.077,
00:00:05:366,-0.251,-0.719,0.727,-291.871,43.945,-32.593,
00:00:05:383,-0.255,-0.605,0.71,-238.404,36.132,-41.993,
00:00:05:400,-0.239,-0.608,0.704,-115.418,27.832,-41.932,
00:00:05:416,-0.203,-0.613,0.686,-36.744,37.597,-29.175,
00:00:05:433,-0.183,-0.667,0.714,28.747,41.565,-20.569,
00:00:05:450,-0.181,-0.711,0.736,-20.997,51.086,-15.381,
00:00:05:466,-0.162,-0.725,0.792,-109.681,47.668,-27.283,
00:00:05:483,-0.189,-0.748,0.779,-143.799,41.565,-32.349,
00:00:05:500,-0.21,-0.718,0.767,-65.613,42.541,-39.856,
00:00:05:516,-0.187,-0.723,0.779,55.236,29.48,-48.829,
00:00:05:533,-0.169,-0.722,0.792,81.909,18.798,-45.777,
00:00:05:550,-0.17,-0.727,0.779,-2.747,14.099,-39.307,
00:00:05:566,-0.186,-0.672,0.721,-94.239,0.244,-20.508,
00:00:05:583,-0.228,-0.643,0.699,-145.142,19.592,-12.94,grateLH
00:00:05:600,-0.239,-0.606,0.725,-122.559,40.893,-0.916,
00:00:05:616,-0.237,-0.657,0.717,-95.643,45.959,0.671,
00:00:05:633,-0.215,-0.629,0.732,-133.118,69.091,19.104,
00:00:05:650,-0.22,-0.646,0.756,-139.039,73.303,23.193,
00:00:05:666,-0.207,-0.646,0.718,-177.796,95.153,41.442,
00:00:05:683,-0.191,-0.653,0.753,-163.941,105.102,48.339,
00:00:05:700,-0.185,-0.636,0.67,-135.132,127.868,58.471,
00:00:05:716,-0.231,-0.638,0.754,-92.957,135.559,29.235,
00:00:05:733,-0.161,-0.646,0.733,-124.39,162.658,39.001,
00:00:05:750,-0.19,-0.682,0.802,-155.335,164.856,33.996,
00:00:05:766,-0.184,-0.623,0.714,-258.667,212.463,60.852,
00:00:05:783,-0.149,-0.568,0.728,-333.252,241.699,56.457,
00:00:05:800,-0.177,-0.528,0.92,-228.699,218.2,52.978,
00:00:05:816,-0.204,-0.719,0.907,-69.458,164.734,-13.672,
00:00:05:833,-0.153,-0.646,0.837,-225.892,195.861,34.484,
00:00:05:850,-0.118,-0.646,0.563,-424.561,271.057,16.235,
00:00:05:866,-0.387,-0.178,0.603,-121.399,278.015,33.874,
00:00:05:883,-0.272,-0.651,1.319,218.017,27.16,-192.261,
00:00:05:900,0.029,-1.181,0.964,56.152,8.789,-12.513,
00:00:05:916,-0.079,-0.311,0.63,-69.458,25.573,48.645,
00:00:05:933,0.014,-0.461,0.907,-41.504,518.371,600.402,
00:00:05:950,-0.118,-0.86,1.279,329.04,-148.316,-204.468,
00:00:05:966,-0.455,-0.622,0.866,95.703,-20.63,-106.812,
00:00:05:983,-0.127,-0.487,0.863,-148.011,163.086,-2.564,
00:00:06:0,-0.092,-0.75,0.734,-416.321,309.143,40.344,
00:00:06:16,-0.259,-0.358,0.657,-320.557,205.261,60.607,
00:00:06:33,-0.119,-0.214,0.748,3.601,141.235,97.656,
00:00:06:50,0.063,-0.452,0.848,209.289,59.143,162.536,
00:00:06:66,-1.384,-1.752,-0.763,-902.161,494.873,806.396,
00:00:06:83,-0.351,-0.17,1.147,-414.673,499.878,-430.97,
00:00:06:100,0.171,-0.449,1.018,308.776,-24.048,163.33,
00:00:06:116,0.199,-0.6,0.813,751.159,-273.926,-123.963,
00:00:06:133,-0.105,-1.057,0.957,875.183,-633.179,-156.006,
00:00:06:150,-0.393,-1.098,0.963,489.135,-478.15,-158.814,
00:00:06:166,-0.402,-0.843,0.883,103.698,-278.321,-209.412,
00:00:06:183,-0.254,-0.663,0.813,104.065,-298.706,-281.739,
00:00:06:200,-0.229,-0.65,0.835,295.349,-392.09,-336.426,
00:00:06:216,-0.29,-0.716,0.82,409.546,-400.696,-363.221,
00:00:06:233,-0.278,-0.727,0.659,424.743,-361.817,-377.869,
00:00:06:250,-0.246,-0.754,0.546,370.178,-322.083,-376.526,
00:00:06:266,-0.243,-0.683,0.45,308.532,-257.874,-352.112,
00:00:06:283,-0.253,-0.658,0.449,278.32,-206.849,-338.868,
00:00:06:300,-0.239,-0.624,0.493,294.922,-141.968,-315.186,
00:00:06:316,-0.244,-0.593,0.471,304.687,-67.383,-267.273,
00:00:06:333,-0.292,-0.608,0.429,249.878,18.249,-228.699,
00:00:06:350,-0.296,-0.637,0.397,101.135,113.83,-176.026,
00:00:06:366,-0.246,-0.616,0.42,-79.773,198.303,-117.92,
00:00:06:383,-0.175,-0.497,0.32,-184.266,277.282,-49.439,
00:00:06:400,0.363,-0.203,1.335,118.53,24.658,18.737,
00:00:06:416,-0.188,-0.496,0.711,458.435,64.514,110.473,
00:00:06:433,-0.133,-0.777,0.669,471.923,42.602,80.139,
00:00:06:450,-0.159,-0.938,0.625,285.827,49.194,107.971,
00:00:06:466,-0.186,-0.989,0.637,-1.221,99.67,108.764,
00:00:06:483,-0.193,-0.825,0.558,-171.509,181.03,114.135,
00:00:06:500,-0.161,-0.769,0.713,-2.076,169.86,73.73,
00:00:06:516,-0.145,-0.893,0.779,99.121,144.104,53.527,
00:00:06:533,-0.196,-0.827,0.779,55.908,130.554,60.73,
00:00:06:550,-0.241,-0.798,0.762,24.353,123.169,51.147,
00:00:06:566,-0.223,-0.809,0.742,-52.247,118.835,65.063,
00:00:06:583,-0.216,-0.716,0.732,-118.409,139.709,75.988,
00:00:06:600,-0.208,-0.73,0.696,-144.654,126.464,82.458,
00:00:06:616,-0.198,-0.771,0.647,-187.012,155.944,91.308,
00:00:06:633,-0.206,-0.77,0.72,-181.641,179.626,82.763,
00:00:06:650,-0.128,-0.842,0.777,-153.321,182.861,64.636,
00:00:06:666,-0.155,-0.724,0.758,-99.427,160.034,85.937,
00:00:06:683,-0.183,-0.702,0.619,-60.181,139.587,87.646,
00:00:06:700,-0.135,-0.664,0.619,-102.662,142.334,98.327,
00:00:06:716,-0.118,-0.637,0.583,-219.056,177.002,143.859,
00:00:06:733,-0.154,-0.664,0.619,-222.168,187.439,131.469,
00:00:06:750,-0.146,-0.773,0.612,-164.368,190.796,136.23,
00:00:06:766,-0.178,-0.828,0.55,-166.932,210.266,135.925,
00:00:06:783,-0.312,-0.918,0.146,-220.459,346.984,183.899,
00:00:06:800,-0.958,0.755,0.99,540.466,-111.634,-96.985,
00:00:06:816,0.094,-1.351,1.53,334.228,195.068,-253.235,
00:00:06:833,0.251,-1.388,1.031,194.519,237.304,361.938,
00:00:06:850,-0.083,-0.696,0.856,522.766,324.951,435.058,
00:00:06:866,0.207,-1.127,1.215,320.129,135.437,671.997,
00:00:06:883,0.278,-1.732,0.596,9.521,-59.876,29.602,
00:00:06:900,-0.078,0.1,0.544,-71.534,-139.1,37.963,
00:00:06:916,-0.38,-0.042,0.667,106.384,24.78,69.03,
00:00:06:933,0.371,-1.269,0.698,169.067,27.404,-78.919,
00:00:06:950,0.115,-1.056,0.575,-49.561,-115.174,-187.5,
00:00:06:966,-0.248,-0.962,0.665,-471.192,110.901,-331.116,
00:00:06:983,0.221,-0.25,0.697,84.228,-183.35,-28.443,
00:00:07:0,-0.167,-0.778,0.661,447.57,-237.549,-174.5,
00:00:07:16,-0.018,-0.956,0.744,384.765,-208.985,-183.655,
00:00:07:33,-0.021,-0.974,0.848,421.692,-282.044,-200.562,
00:00:07:50,-0.227,-1.081,0.798,439.941,-355.286,-213.746,
00:00:07:66,-0.311,-1.052,0.751,300.964,-358.765,-283.448,
00:00:07:83,-0.332,-0.91,0.667,177.917,-343.14,-303.162,
00:00:07:100,-0.359,-0.848,0.638,193.176,-325.196,-341.797,
00:00:07:116,-0.313,-0.844,0.577,224.67,-289.49,-373.047,
00:00:07:133,-0.272,-0.788,0.52,244.445,-252.564,-388.672,
00:00:07:150,-0.288,-0.783,0.51,275.573,-236.268,-391.175,
00:00:07:166,-0.3,-0.91,0.497,233.642,-225.525,-386.658,
00:00:07:183,-0.245,-0.92,0.463,16.601,-181.58,-381.226,
00:00:07:200,-0.228,-0.741,0.39,-232.239,-124.146,-334.229,
00:00:07:216,-0.251,-0.621,0.35,-288.575,-60.791,-292.786,
00:00:07:233,-0.252,-0.571,0.347,-237.915,13.732,-237.854,
00:00:07:250,-0.243,-0.532,0.344,-220.52,91.491,-150.879,
00:00:07:266,-0.229,-0.52,0.332,-230.042,162.353,-75.501,
00:00:07:283,0.096,-0.332,0.644,-128.846,85.937,31.494,
00:00:07:300,-0.021,-0.281,0.659,161.865,88.195,116.821,
00:00:07:316,-0.209,-0.757,0.437,401.855,85.693,104.98,
00:00:07:333,-0.139,-0.878,0.431,320.678,126.587,107.605,
00:00:07:350,-0.159,-0.872,0.424,106.75,147.4,155.944,
00:00:07:366,-0.157,-0.822,0.502,-91.614,167.419,163.147,
00:00:07:383,-0.203,-0.9,0.686,-25.269,124.145,151.184,
00:00:07:400,-0.128,-1.037,0.762,3.112,97.961,113.647,
00:00:07:416,-0.168,-1.001,0.746,72.815,84.716,94.238,
00:00:07:433,-0.169,-0.96,0.723,123.962,79.711,66.528,
00:00:07:450,-0.14,-0.96,0.664,-18.25,88.928,62.377,
00:00:07:466,-0.217,-0.829,0.551,-218.384,143.066,85.449,
00:00:07:483,-0.167,-0.836,0.705,-144.227,147.155,78.735,
00:00:07:500,-0.202,-0.93,0.715,-150.147,101.867,82.153,
00:00:07:516,-0.263,-0.935,0.648,-199.097,82.214,55.481,
00:00:07:533,-0.254,-0.838,0.636,-262.879,78.735,34.545,
00:00:07:550,-0.162,-0.793,0.633,-249.634,77.392,18.676,
00:00:07:566,-0.104,-0.859,0.616,-229.92,93.689,30.029,
00:00:07:583,-0.082,-0.824,0.713,-251.709,92.285,40.954,
00:00:07:600,-0.124,-0.752,0.643,-170.105,94.909,44.494,
00:00:07:616,-0.182,-0.732,0.583,-33.081,97.717,44.799,
00:00:07:633,-0.113,-0.736,0.565,-37.964,113.281,71.289,
00:00:07:650,0.039,0.205,0.279,-351.014,558.41,432.251,
00:00:07:666,-1.397,0.039,1.97,177.917,122.253,-484.07,
00:00:07:683,0.622,-2.547,1.119,545.166,277.343,-76.6,
00:00:07:700,-0.278,-3.75,0.659,-491.333,-129.883,-192.505,
00:00:07:716,-0.19,2.193,0.484,-618.958,146.484,664.795,
00:00:07:733,0.136,-0.648,0.884,-353.821,68.603,-11.17,
00:00:07:750,-0.004,-0.573,0.802,12.329,-18.25,-43.152,
00:00:07:766,0.067,-0.655,0.691,185.058,-58.838,-65.735,
00:00:07:783,0.012,-0.776,0.69,215.637,-76.844,-66.529,
00:00:07:800,0.075,-0.718,0.66,242.309,-99.488,-74.524,
00:00:07:816,-0.032,-1.048,0.77,668.213,-346.741,-139.649,
00:00:07:833,-0.197,-1.231,0.857,644.775,-429.81,-170.105,
00:00:07:850,-0.254,-1.148,0.778,437.011,-446.961,-258.912,
00:00:07:866,-0.356,-0.886,0.525,-4.334,-333.008,-424.866,
00:00:07:883,-0.36,-0.82,0.497,-46.814,-280.945,-428.101,
00:00:07:900,-0.322,-0.736,0.504,-57.435,-244.568,-416.199,
00:00:07:916,-0.26,-0.669,0.494,-17.823,-218.689,-383.179,
00:00:07:933,-0.241,-0.638,0.465,33.508,-194.153,-327.82,
00:00:07:950,-0.228,-0.631,0.388,89.05,-157.776,-281.556,
00:00:07:966,-0.24,-0.573,0.299,111.084,-89.722,-225.464,
00:00:07:983,-0.245,-0.577,0.277,111.511,-12.757,-170.472,
00:00:08:0,-0.233,-0.64,0.289,34.362,81.787,-114.014,
00:00:08:16,-0.226,-0.618,0.289,-53.04,183.471,-56.58,
00:00:08:33,-0.214,-0.538,0.162,-33.997,276.855,-6.531,
00:00:08:50,0.265,-0.331,1.034,272.094,50.964,45.837,
00:00:08:66,-0.142,-0.818,0.69,407.104,3.295,122.68,
00:00:08:83,-0.238,-0.887,0.554,-172.669,105.041,57.373,
00:00:08:100,-0.233,-0.89,0.667,-216.675,99.792,45.105,
00:00:08:116,-0.262,-0.935,0.724,-260.56,104.553,46.203,
00:00:08:133,-0.283,-0.923,0.739,-199.769,105.224,41.015,
00:00:08:150,-0.278,-0.857,0.706,-67.627,77.636,37.475,
00:00:08:166,-0.205,-0.873,0.519,-244.507,120.056,45.532,
00:00:08:183,-0.142,-0.86,0.546,-374.878,154.968,50.476,
00:00:08:200,-0.145,-0.845,0.613,-288.147,140.991,35.095,
00:00:08:216,-0.143,-0.845,0.632,-110.23,108.398,33.935,
00:00:08:233,-0.214,-0.797,0.59,3.234,88.317,50.293,
00:00:08:250,-0.267,-0.731,0.534,12.39,86.425,62.439,
00:00:08:266,-0.225,-0.717,0.544,9.948,88.134,80.322,
00:00:08:283,-0.165,-0.754,0.534,-39.917,93.933,117.92,
00:00:08:300,-0.094,-0.614,0.496,-147.644,133.85,180.725,
00:00:08:316,-0.065,-0.603,0.719,-27.466,132.69,225.525,
00:00:08:333,-0.119,-0.306,-0.026,-375.977,365.722,526.794,
00:00:08:350,-0.05,0.145,0.397,263.366,406.494,412.78,
00:00:08:366,-0.083,-1.273,0.55,545.959,334.045,448.181,
00:00:08:383,-1.097,0.328,2.066,1449.829,-470.765,3.173,
00:00:08:400,1.486,-3.922,1.445,174.804,36.315,710.693,
00:00:08:416,0.076,-2.625,0.386,-933.655,-3.846,-510.621,
00:00:08:433,-1.13,2.447,0.188,-1913.758,379.333,1006.897,
00:00:08:450,-0.457,0.453,0.429,563.598,54.443,-497.315,
00:00:08:466,0.402,-1.878,0.708,103.393,111.938,-254.212,
00:00:08:483,0.376,-1.039,0.833,-439.026,85.998,152.16,
00:00:08:500,-0.234,-0.641,0.747,-108.46,19.775,43.945,
00:00:08:516,-0.027,-0.764,0.688,53.222,-5.86,-72.51,
00:00:08:533,-0.037,-0.752,0.672,57.922,-12.574,-8.301,
00:00:08:550,-0.054,-0.694,0.687,96.191,-14.161,-63.599,
00:00:08:566,0.002,-0.765,0.567,176.574,-26.917,-78.37,
00:00:08:583,0.006,-0.843,0.568,218.383,-47.608,-94.91,
00:00:08:600,0.044,-0.859,0.551,185.974,-87.037,-89.539,
00:00:08:616,0.062,-0.76,0.589,165.649,-121.399,-67.688,
00:00:08:633,0.056,-0.799,0.689,191.101,-165.223,-72.998,
00:00:08:650,0.022,-0.884,0.736,259.826,-222.596,-101.99,
00:00:08:666,-0.042,-0.928,0.737,288.696,-244.263,-136.048,
00:00:08:683,-0.15,-1.002,0.717,341.43,-280.518,-195.252,
00:00:08:700,-0.2,-1.116,0.639,266.052,-287.537,-254.883,
00:00:08:716,-0.216,-1.039,0.601,68.115,-264.832,-273.56,
00:00:08:733,-0.245,-0.863,0.58,-27.039,-242.615,-287.11,
00:00:08:750,-0.272,-0.838,0.588,62.255,-243.103,-323.853,
00:00:08:766,-0.274,-0.941,0.553,129.943,-243.714,-353.211,
00:00:08:783,-0.287,-0.978,0.524,111.145,-237.915,-352.417,
00:00:08:800,-0.304,-0.877,0.478,38.391,-222.535,-342.347,
00:00:08:816,-0.289,-0.799,0.447,-20.386,-204.346,-344.971,
00:00:08:833,-0.283,-0.767,0.421,-56.519,-177.308,-334.351,
00:00:08:850,-0.291,-0.746,0.384,-81.177,-141.907,-324.036,
00:00:08:866,-0.292,-0.672,0.338,-59.937,-95.704,-295.716,
00:00:08:883,-0.298,-0.654,0.315,43.151,-44.434,-263.916,
00:00:08:900,-0.304,-0.653,0.272,126.648,8.972,-221.131,
00:00:08:916,-0.301,-0.617,0.291,178.039,73.242,-176.575,
00:00:08:933,-0.301,-0.612,0.255,211.181,130.493,-126.648,
00:00:08:950,-0.041,-0.505,0.629,200.744,39.611,-9.339,
00:00:08:966,-0.115,-0.337,0.622,97.473,51.635,104.98,
00:00:08:983,-0.225,-0.989,0.499,283.142,14.892,69.58,
00:00:09:0,-0.218,-0.988,0.514,133.728,70.678,59.875,
00:00:09:16,-0.175,-0.946,0.563,109.558,56.152,39.733,
00:00:09:33,-0.249,-1.042,0.55,95.275,54.138,45.593,
00:00:09:50,-0.252,-1.072,0.599,-21.058,58.166,21.179,
00:00:09:66,-0.251,-1.023,0.606,-137.574,63.903,33.447,
00:00:09:83,-0.266,-0.962,0.581,-164.734,59.57,43.457,
00:00:09:100,-0.301,-0.856,0.522,-130.738,62.377,45.654,
00:00:09:116,-0.208,-0.859,0.444,57.312,60.302,61.279,
00:00:09:133,-0.193,-0.926,0.421,-54.261,81.237,71.716,
00:00:09:150,-0.204,-0.969,0.431,-145.264,102.417,72.692,
00:00:09:166,-0.218,-0.905,0.466,-182.557,115.6,83.374,
00:00:09:183,-0.243,-0.852,0.529,-103.028,106.262,87.036,
00:00:09:200,-0.231,-0.82,0.558,-4.639,88.806,76.782,
00:00:09:216,-0.206,-0.884,0.573,19.714,74.829,82.153,
00:00:09:233,-0.209,-0.857,0.509,-69.703,68.969,104.614,
00:00:09:250,-0.205,-0.818,0.501,-103.089,73.12,132.751,
00:00:09:266,-0.206,-0.842,0.345,-181.641,102.905,173.034,
00:00:09:283,-0.143,-0.759,0.426,-401.307,149.17,225.158,
00:00:09:300,-0.075,-0.542,0.568,-218.628,159.851,239.746,
00:00:09:316,-0.085,-0.556,0.592,24.78,143.188,279.602,
00:00:09:333,-0.13,-1.222,0.513,151.733,95.092,227.722,
00:00:09:350,-0.179,-1.101,0.527,-154.602,119.567,262.756,
00:00:09:366,-0.157,-0.64,0.318,-421.509,183.838,343.139,
00:00:09:383,-0.08,-0.567,0.576,-320.862,221.984,309.265,
00:00:09:400,-0.148,-1.157,0.508,-230.896,243.774,333.618,
00:00:09:416,-0.759,-0.526,1.078,532.898,2.319,-274.537,
00:00:09:433,0.504,-1.846,0.961,96.679,10.498,84.35,
00:00:09:450,0.165,-2.529,1.01,-607.422,75.683,2.197,
00:00:09:466,-0.377,0.115,0.55,-760.743,185.608,145.752,
00:00:09:483,-0.225,-0.298,0.562,-413.758,140.442,19.531,
00:00:09:500,0.055,-0.701,0.706,-179.444,76.965,-64.637,
00:00:09:516,0.038,-0.705,0.751,-84.473,17.395,-27.039,
00:00:09:533,-0.009,-0.802,0.62,48.339,-9.156,-58.594,
00:00:09:550,-0.077,-0.87,0.567,87.829,-22.095,-66.224,
00:00:09:566,-0.077,-0.925,0.557,76.477,-18.738,-88.746,
00:00:09:583,-0.005,-0.836,0.614,89.599,-34.974,-102.234,grateLH
00:00:09:600,0.042,-0.866,0.676,106.323,-91.858,-128.54,
00:00:09:616,0.028,-0.885,0.647,12.695,-130.066,-111.39,
00:00:09:633,0.026,-0.787,0.607,-34.546,-154.602,-112.488,
00:00:09:650,0.026,-0.775,0.687,97.839,-203.919,-154.602,
00:00:09:666,-0.067,-0.929,0.713,316.894,-268.738,-179.078,
00:00:09:683,-0.143,-1.028,0.714,352.356,-312.317,-230.896,
00:00:09:700,-0.212,-1.048,0.656,292.907,-336.304,-257.935,
00:00:09:716,-0.245,-0.917,0.604,159.301,-323.365,-287.537,
00:00:09:733,-0.267,-0.855,0.539,155.517,-303.284,-327.942,
00:00:09:750,-0.291,-0.863,0.493,226.135,-271.79,-359.62,
00:00:09:766,-0.323,-0.877,0.463,276.855,-226.075,-376.77,
00:00:09:783,-0.341,-0.914,0.433,295.898,-201.722,-383.24,
00:00:09:800,-0.356,-0.977,0.406,265.319,-170.166,-370.667,
00:00:09:816,-0.352,-0.871,0.335,131.042,-117.615,-353.15,
00:00:09:833,-0.366,-0.726,0.276,58.532,-62.073,-328.003,
00:00:09:850,-0.357,-0.666,0.234,83.435,7.873,-306.641,
00:00:09:866,-0.328,-0.647,0.268,123.108,65.856,-282.349,
00:00:09:883,-0.314,-0.677,0.326,146.423,113.647,-228.455,
00:00:09:900,-0.314,-0.735,0.331,106.018,138.61,-167.298,
00:00:09:916,0.015,-0.866,0.874,-172.73,-50.049,-70.008,
00:00:09:933,0.091,-0.386,0.679,-586.426,53.039,54.748,
00:00:09:950,-0.223,-0.453,0.464,-107.422,24.963,64.392,
00:00:09:966,-0.116,-0.878,0.489,218.078,45.044,22.522,
00:00:09:983,-0.101,-1.063,0.549,175.171,78.002,75.134,
00:00:10:0,-0.198,-1.025,0.534,35.949,100.402,57.312,
00:00:10:16,-0.271,-1.003,0.502,-54.627,101.257,37.841,
00:00:10:33,-0.298,-0.99,0.505,-170.166,105.285,9.277,
00:00:10:50,-0.298,-0.928,0.45,-254.517,109.863,21.118,
00:00:10:66,-0.272,-0.811,0.5,-192.933,91.613,5.737,
00:00:10:83,-0.278,-0.809,0.514,-97.352,69.397,9.338,
00:00:10:100,-0.265,-0.8,0.548,-123.108,62.683,23.437,
00:00:10:116,-0.26,-0.766,0.552,-124.878,57.006,41.565,
00:00:10:133,-0.229,-0.761,0.537,-104.981,59.448,54.504,
00:00:10:150,-0.188,-0.804,0.467,-161.988,88.989,78.735,
00:00:10:166,-0.192,-0.861,0.375,-317.078,148.742,125.732,
00:00:10:183,-0.116,-0.525,0.43,-371.827,200.378,179.382,
00:00:10:200,-0.126,-0.436,0.49,-114.441,206.176,217.346,
00:00:10:216,-0.164,-0.849,0.686,213.928,135.192,162.719,
00:00:10:233,-0.175,-1.143,0.643,61.035,128.051,194.03,
00:00:10:250,-0.238,-0.906,0.415,-242.676,187.011,244.262,
00:00:10:266,-0.303,-1.071,0.702,-282.593,172.18,91.369,
00:00:10:283,-0.254,-1.308,0.652,-451.477,195.251,99.548,
00:00:10:300,-0.244,-0.923,0.709,-589.234,245.422,138.244,
00:00:10:316,-0.186,-0.445,0.682,-360.657,265.808,107.666,
00:00:10:333,-0.258,-0.829,0.598,-87.525,268.432,88.867,
00:00:10:350,-0.197,-0.971,0.34,-355.408,333.496,163.696,
00:00:10:366,-0.005,-0.183,0.462,-436.89,409.79,238.647,
00:00:10:383,-0.763,-0.519,1.236,-188.172,284.301,-305.603,
00:00:10:400,0.416,-1.724,0.796,-92.957,288.452,91.43,
00:00:10:416,0.463,-2.231,1.463,-340.882,-54.993,-89.966,
00:00:10:433,-0.324,-0.356,0.484,-578.431,-57.679,366.516,
00:00:10:450,-0.598,0.144,0.606,-658.265,131.775,-41.138,
00:00:10:466,0.14,-0.928,0.766,-126.526,91.43,-234.742,
00:00:10:483,0.141,-0.928,0.815,-232.483,27.71,-33.875,
00:00:10:500,-0.154,-0.665,0.809,-150.818,-3.113,-49.988,
00:00:10:516,-0.081,-0.706,0.757,15.686,-12.94,-82.642,
00:00:10:533,-0.033,-0.692,0.764,116.821,-40.894,-53.711,
00:00:10:550,-0.072,-0.731,0.749,213.806,-68.848,-53.589,
00:00:10:566,-0.011,-0.751,0.675,277.16,-100.769,-68.238,
00:00:10:583,0.041,-0.785,0.694,266.052,-146.302,-82.215,
00:00:10:600,0.024,-0.822,0.677,186.523,-185.181,-64.087,
00:00:10:616,0.019,-0.682,0.746,148.01,-206.055,-57.984,
00:00:10:633,-0.087,-0.806,0.764,303.772,-272.95,-92.469,
00:00:10:650,-0.127,-0.935,0.834,381.958,-321.778,-135.682,
00:00:10:666,-0.259,-0.929,0.639,379.089,-369.507,-198.914,
00:00:10:683,-0.315,-0.825,0.576,280.578,-341.126,-218.262,
00:00:10:700,-0.343,-0.812,0.566,287.292,-306.824,-258.912,
00:00:10:716,-0.321,-0.827,0.61,311.523,-278.199,-307.496,
00:00:10:733,-0.302,-0.815,0.593,326.843,-259.461,-338.685,
00:00:10:750,-0.345,-0.851,0.546,329.528,-246.033,-342.774,
00:00:10:766,-0.37,-0.864,0.504,334.655,-230.042,-329.468,
00:00:10:783,-0.364,-0.785,0.46,324.218,-205.811,-320.984,
00:00:10:800,-0.358,-0.689,0.401,309.021,-167.725,-308.411,
00:00:10:816,-0.36,-0.686,0.41,336.12,-134.583,-288.636,
00:00:10:833,-0.366,-0.762,0.439,208.923,-82.154,-235.291,
00:00:10:850,-0.343,-0.805,0.389,-37.293,-7.996,-206.91,
00:00:10:866,-0.333,-0.745,0.356,-222.474,57.434,-142.212,
00:00:10:883,-0.284,-0.66,0.331,-311.036,128.601,-90.394,
00:00:10:900,0.024,-0.602,0.614,-219.788,69.03,-33.265,
00:00:10:916,0.13,-0.508,0.602,29.357,86.853,-13.794,
00:00:10:933,-0.145,-0.725,0.487,107.422,97.473,47.119,
00:00:10:950,-0.145,-0.975,0.432,-50.782,133.484,-6.531,
00:00:10:966,-0.151,-1.066,0.396,-411.988,176.88,27.465,
00:00:10:983,-0.27,-0.862,0.469,-605.53,189.453,55.053,
00:00:11:0,-0.326,-0.759,0.518,-484.314,161.071,33.264,
00:00:11:16,-0.312,-0.881,0.631,-263.001,109.924,12.695,
00:00:11:33,-0.256,-0.867,0.684,-131.714,72.57,16.845,
00:00:11:50,-0.273,-0.782,0.673,-64.087,45.898,25.085,
00:00:11:66,-0.279,-0.74,0.628,-43.641,51.086,37.78,
00:00:11:83,-0.31,-0.693,0.614,-52.002,54.748,69.091,
00:00:11:100,-0.292,-0.778,0.606,-109.253,68.237,62.194,
00:00:11:116,-0.224,-0.822,0.576,-188.477,86.364,65.246,
00:00:11:133,-0.259,-0.792,0.484,-264.527,123.84,92.285,
00:00:11:150,-0.222,-0.627,0.585,-230.957,149.414,96.374,
00:00:11:166,-0.238,-0.788,0.671,-76.05,113.22,77.453,
00:00:11:183,-0.234,-0.887,0.703,-86.304,82.336,91.43,
00:00:11:200,-0.314,-0.781,0.624,-40.711,69.091,90.82,
00:00:11:216,-0.299,-0.75,0.596,-93.201,86.12,92.346,
00:00:11:233,-0.227,-0.712,0.671,-107.483,91.919,98.083,
00:00:11:250,-0.226,-0.833,0.705,-106.324,80.505,96.557,
00:00:11:266,-0.229,-0.8,0.674,-133.851,78.186,106.628,
00:00:11:283,-0.237,-0.851,0.591,-219.361,106.689,96.862,
00:00:11:300,-0.219,-0.815,0.67,-275.818,132.995,99.304,
00:00:11:316,-0.198,-0.668,0.649,-227.173,148.681,125.366,
00:00:11:333,-0.199,-0.67,0.585,-238.343,182.983,143.066,
00:00:11:350,-0.149,-0.573,0.585,-209.595,222.961,177.124,
00:00:11:366,-0.182,-0.711,0.298,-272.889,279.48,216.735,
00:00:11:383,-0.04,-0.369,0.616,-225.586,333.862,255.371,
00:00:11:400,-0.215,-0.923,0.251,-107.3,330.139,231.689,
00:00:11:416,-0.136,-0.483,1.331,-33.265,290.71,246.338,
00:00:11:433,-0.453,-1.198,1.1,472.595,47.241,-228.821,
00:00:11:450,0.21,-1.438,0.953,21.362,219.97,221.618,
00:00:11:466,0.184,-0.729,1.088,134.216,-58.533,167.236,
00:00:11:483,0.005,-1.91,0.673,-220.826,-127.991,8.422,
00:00:11:500,-0.62,0.238,0.684,-733.338,247.741,225.158,
00:00:11:516,-0.092,-0.396,0.64,-412.903,239.746,-222.229,
00:00:11:533,0.286,-0.702,0.698,-105.164,55.297,-58.167,
00:00:11:550,-0.087,-0.724,0.685,37.536,-19.349,-11.109,
00:00:11:566,-0.14,-0.839,0.713,148.62,-31.128,-76.844,
00:00:11:583,0.004,-0.808,0.729,173.156,-72.693,-97.229,
00:00:11:600,-0.048,-0.78,0.707,172.546,-131.226,-69.703,
00:00:11:616,-0.026,-0.754,0.787,256.408,-199.952,-128.418,
00:00:11:633,-0.085,-0.902,0.857,399.841,-294.19,-165.772,
00:00:11:650,-0.141,-1.023,0.909,359.069,-367.92,-232.972,
00:00:11:666,-0.216,-0.997,0.826,236.755,-402.527,-257.508,
00:00:11:683,-0.297,-0.908,0.754,125.244,-422.425,-261.109,
00:00:11:700,-0.336,-0.818,0.7,103.149,-407.593,-318.787,
00:00:11:716,-0.312,-0.768,0.593,162.78,-375.245,-377.625,
00:00:11:733,-0.32,-0.783,0.565,220.398,-323.243,-401.429,
00:00:11:750,-0.331,-0.79,0.527,255.005,-271.363,-407.471,
00:00:11:766,-0.326,-0.764,0.496,208.068,-217.408,-400.879,
00:00:11:783,-0.303,-0.742,0.423,75.805,-142.212,-369.751,
00:00:11:800,-0.285,-0.69,0.381,-78.614,-90.638,-316.407,
00:00:11:816,-0.297,-0.643,0.352,-169.129,-21.973,-253.724,
00:00:11:833,-0.318,-0.552,0.338,-186.097,59.204,-189.27,
00:00:11:850,-0.328,-0.493,0.329,-167.054,152.099,-127.137,
00:00:11:866,-0.317,-0.441,0.272,-140.686,258.178,-74.646,
00:00:11:883,-0.143,-0.43,0.315,-171.265,242.309,-28.626,
00:00:11:900,0.133,-0.106,0.78,66.955,139.465,110.29,
00:00:11:916,-0.243,-0.906,0.702,162.597,5.004,-15.32,
00:00:11:933,-0.205,-1.103,0.692,-191.163,112.426,96.801,
00:00:11:950,-0.147,-0.834,0.687,-239.197,113.647,66.65,
00:00:11:966,-0.282,-0.793,0.656,-105.347,93.2,54.26,
00:00:11:983,-0.321,-0.797,0.708,-58.289,91.919,21.667,
00:00:12:0,-0.301,-0.805,0.724,-65.247,106.811,20.507,
00:00:12:16,-0.296,-0.797,0.722,-101.868,116.455,33.447,
00:00:12:33,-0.27,-0.774,0.747,-133.423,126.281,38.818,
00:00:12:50,-0.229,-0.755,0.761,-123.658,109.192,29.846,
00:00:12:66,-0.237,-0.795,0.697,-86.06,92.041,18.798,
00:00:12:83,-0.217,-0.771,0.659,-82.215,85.022,10.986,
00:00:12:100,-0.222,-0.742,0.621,-68.116,79.65,11.291,
00:00:12:116,-0.223,-0.709,0.61,-91.858,77.392,20.568,
00:00:12:133,-0.257,-0.665,0.577,-85.022,90.942,46.081,
00:00:12:150,-0.231,-0.66,0.626,-49.927,94.482,41.748,
00:00:12:166,-0.191,-0.735,0.64,-67.749,98.938,48.828,
00:00:12:183,-0.181,-0.705,0.651,-127.442,113.22,77.697,
00:00:12:200,-0.208,-0.734,0.662,-190.186,128.357,102.478,
00:00:12:216,-0.222,-0.784,0.501,-292.603,190.368,153.93,
00:00:12:233,-0.242,-0.349,0.072,-452.149,385.986,361.511,
00:00:12:250,-0.165,0.239,0.329,-133.118,433.654,404.602,
00:00:12:266,-0.262,-0.799,0.365,341.735,455.078,238.098,
00:00:12:283,-0.006,-1.051,0.386,-64.026,580.505,418.274,
00:00:12:300,0.055,-0.396,1.027,-161.56,582.885,456.482,
00:00:12:316,-0.696,-2.174,3.335,-589.539,299.194,-251.221,
00:00:12:333,1.311,-3.996,0.742,-502.076,297.424,-1308.777,
00:00:12:350,0.118,2.655,0.984,-1741.333,-137.818,1460.144,
00:00:12:366,-1.543,0.981,0.619,907.165,-153.565,-216.492,
00:00:12:383,0.149,-1.301,0.881,479.858,83.862,-752.381,
00:00:12:400,0.936,-1.057,0.758,-224.305,42.846,156.555,
00:00:12:416,-0.261,-0.72,0.787,-98.084,-103.272,72.204,
00:00:12:433,-0.405,-0.739,0.682,-17.884,11.047,-37.415,
00:00:12:450,0.007,-0.752,0.729,32.959,-8.423,-130.494,
00:00:12:466,0.002,-0.701,0.798,56.762,-82.093,-38.147,
00:00:12:483,-0.129,-0.65,0.789,82.885,-107.727,-26.368,
00:00:12:500,-0.028,-0.574,0.752,161.987,-129.639,-48.584,
00:00:12:516,0.002,-0.635,0.735,327.575,-176.88,-48.34,
00:00:12:533,0.021,-0.708,0.786,479.431,-225.953,-65.186,
00:00:12:550,-0.072,-0.942,0.859,560.852,-300.477,-117.127,
00:00:12:566,-0.177,-1.106,0.806,443.725,-339.783,-156.006,
00:00:12:583,-0.248,-1.028,0.731,176.513,-336.976,-176.636,
00:00:12:600,-0.238,-0.814,0.699,-13.428,-329.773,-183.594,
00:00:12:616,-0.281,-0.697,0.644,22.155,-333.497,-209.229,
00:00:12:633,-0.32,-0.705,0.63,176.696,-329.224,-236.084,
00:00:12:650,-0.338,-0.75,0.605,319.275,-306.763,-271.485,
00:00:12:666,-0.347,-0.81,0.596,383.239,-281.495,-312.073,
00:00:12:683,-0.353,-0.802,0.495,376.159,-232.911,-322.327,
00:00:12:700,-0.363,-0.819,0.41,328.857,-177.185,-307.984,
00:00:12:716,-0.357,-0.779,0.364,251.098,-117.493,-285.035,
00:00:12:733,-0.358,-0.702,0.335,230.224,-52.369,-255.616,
00:00:12:750,-0.376,-0.705,0.322,254.028,9.155,-235.169,
00:00:12:766,-0.343,-0.722,0.4,267.822,70.068,-220.704,
00:00:12:783,-0.284,-0.736,0.422,223.205,126.526,-196.412,
00:00:12:800,-0.269,-0.738,0.361,169.922,178.588,-156.189,
00:00:12:816,-0.237,-0.73,0.107,30.517,222.961,-147.339,
00:00:12:833,0.143,-0.507,0.886,-228.455,78.613,-19.104,
00:00:12:850,-0.079,-0.468,0.691,-330.811,21.423,30.273,
00:00:12:866,-0.22,-0.664,0.58,-208.558,35.217,35.034,
00:00:12:883,-0.143,-0.766,0.542,-153.931,83.007,19.287,
00:00:12:900,-0.217,-0.805,0.579,-211.243,129.272,98.022,
00:00:12:916,-0.239,-0.946,0.634,-353.882,160.522,63.354,
00:00:12:933,-0.236,-1.019,0.707,-517.395,186.279,48.706,
00:00:12:950,-0.235,-0.951,0.827,-554.627,164.856,40.649,
00:00:12:966,-0.296,-0.851,0.803,-392.334,114.013,34.729,
00:00:12:983,-0.315,-0.736,0.754,-161.255,58.837,19.592,
00:00:13:0,-0.32,-0.688,0.595,-2.259,24.169,28.808,
00:00:13:16,-0.281,-0.689,0.503,-86.487,51.574,39.978,
00:00:13:33,-0.218,-0.591,0.471,-227.417,100.891,71.96,
00:00:13:50,-0.181,-0.513,0.512,-268.799,128.662,91.064,
00:00:13:66,-0.136,-0.623,0.658,-218.75,138.244,87.524,
00:00:13:83,-0.208,-0.623,0.721,80.2,99.853,80.81,
00:00:13:100,-0.299,-0.884,0.758,201.904,65.124,54.382,
00:00:13:116,-0.321,-1.064,0.779,-5.677,40.405,44.25,
00:00:13:133,-0.39,-0.986,0.739,-257.325,55.297,58.715,
00:00:13:150,-0.33,-0.715,0.768,-299.927,67.627,39.794,
00:00:13:166,-0.25,-0.788,0.793,-226.258,66.406,0,
00:00:13:183,-0.204,-0.781,0.78,-193.36,73.12,0.061,
00:00:13:200,-0.258,-0.678,0.725,-141.053,83.374,4.394,
00:00:13:216,-0.227,-0.675,0.718,-150.757,88.989,-13.733,
00:00:13:233,-0.136,-0.709,0.774,-223.755,78.552,-12.574,
00:00:13:250,-0.145,-0.615,0.741,-215.088,69.702,4.089,
00:00:13:266,-0.165,-0.657,0.727,-77.515,56.274,-2.686,
00:00:13:283,-0.188,-0.699,0.69,4.516,44.86,1.098,
00:00:13:300,-0.235,-0.754,0.646,-53.833,49.011,5.371,
00:00:13:316,-0.208,-0.766,0.698,-169.251,71.716,-3.785,
00:00:13:333,-0.189,-0.697,0.717,-242.859,95.825,2.807,
00:00:13:350,-0.181,-0.611,0.69,-245.972,108.459,5.31,
00:00:13:366,-0.18,-0.61,0.696,-269.837,114.685,15.075,
00:00:13:383,-0.147,-0.64,0.738,-286.438,122.985,46.569,
00:00:13:400,-0.165,-0.646,0.771,-232.544,117.859,87.219,
00:00:13:416,-0.132,-0.595,0.747,-106.629,115.295,99.548,
00:00:13:433,-0.177,-0.688,0.51,-159.424,169.25,126.526,
00:00:13:450,-0.291,-0.516,-0.212,-541.199,395.08,261.779,
00:00:13:466,0.121,0.465,0.433,-518.067,564.636,342.407,
00:00:13:483,0.164,-0.446,0.784,219.909,473.632,182.617,
00:00:13:500,0.039,-1.16,0.668,398.925,365.295,169.677,
00:00:13:516,-0.598,-1.218,2.089,59.57,-109.681,-563.843,
00:00:13:533,0.425,-3.304,0.89,-496.216,513.977,-389.283,
00:00:13:550,0.252,0.994,0.646,-929.2,-24.17,506.164,
00:00:13:566,-1.026,0.353,0.645,86.547,-86.609,-30.091,
00:00:13:583,0.067,-0.603,0.756,6.042,176.452,-225.525,grateLH
00:00:13:600,0.379,-0.495,0.996,-13.184,31.066,99.06,
00:00:13:616,-0.134,-0.779,0.888,182.251,-63.843,-23.438,
00:00:13:633,-0.157,-0.711,0.821,207.397,-11.597,1.22,
00:00:13:650,0.017,-0.573,0.866,300.659,-49.134,-26.246,
00:00:13:666,0.028,-0.693,0.877,308.471,-131.226,-35.767,
00:00:13:683,0.016,-0.729,0.884,140.808,-171.57,-12.696,
00:00:13:700,0.052,-0.582,0.912,96.008,-223.694,-17.701,
00:00:13:716,-0.01,-0.654,0.979,252.868,-344.544,-56.702,
00:00:13:733,-0.081,-0.871,0.945,325.5,-419.007,-93.689,
00:00:13:750,-0.187,-0.884,0.849,289.978,-443.421,-79.468,
00:00:13:766,-0.264,-0.785,0.804,289.123,-437.378,-105.713,
00:00:13:783,-0.265,-0.768,0.717,385.986,-423.279,-166.626,
00:00:13:800,-0.279,-0.773,0.615,501.831,-389.588,-216.858,
00:00:13:816,-0.316,-0.836,0.572,561.706,-351.319,-270.325,
00:00:13:833,-0.325,-0.871,0.545,524.047,-302.369,-320.618,
00:00:13:850,-0.308,-0.907,0.537,408.264,-261.963,-361.451,
00:00:13:866,-0.28,-0.907,0.504,240.112,-227.173,-378.479,
00:00:13:883,-0.264,-0.823,0.43,79.345,-190.125,-371.644,
00:00:13:900,-0.305,-0.737,0.352,-27.894,-134.705,-357.056,
00:00:13:916,-0.328,-0.712,0.314,-85.816,-57.251,-347.29,
00:00:13:933,-0.33,-0.682,0.276,-172.547,41.687,-316.04,
00:00:13:950,-0.338,-0.637,0.368,-289.612,127.563,-276.429,
00:00:13:966,-0.351,-0.542,0.367,-338.196,217.59,-213.746,
00:00:13:983,-0.369,-0.534,0.381,-411.194,267.151,-155.701,
00:00:14:0,-0.271,-0.58,0.203,-673.34,302.002,-123.23,
00:00:14:16,0.249,0.33,1.21,-597.657,159.24,250.427,
00:00:14:33,-0.206,-0.135,0.849,213.623,-17.273,12.634,
00:00:14:50,-0.234,-0.892,0.886,400.024,14.526,51.391,
00:00:14:66,-0.054,-0.949,0.81,336.547,62.072,27.832,
00:00:14:83,-0.217,-0.838,0.8,286.621,66.101,82.641,
00:00:14:100,-0.315,-0.824,0.712,159.179,95.947,46.691,
00:00:14:116,-0.265,-0.756,0.703,-15.198,124.084,49.499,
00:00:14:133,-0.304,-0.764,0.706,-104.92,128.662,69.519,
00:00:14:150,-0.315,-0.674,0.56,-205.079,180.481,127.502,
00:00:14:166,-0.191,-0.247,0.626,-11.597,191.284,189.026,
00:00:14:183,-0.144,-0.307,0.769,497.009,107.238,122.863,
00:00:14:200,-0.215,-1.19,0.735,523.315,51.879,16.052,
00:00:14:216,-0.227,-1.384,0.588,26.916,67.321,70.495,
00:00:14:233,-0.372,-1.037,0.699,-375.55,89.233,71.472,
00:00:14:250,-0.322,-0.938,0.775,-494.873,118.408,-23.499,
00:00:14:266,-0.24,-0.765,0.817,-311.158,93.75,-38.453,
00:00:14:283,-0.272,-0.654,0.791,-124.451,66.772,-26.978,
00:00:14:300,-0.221,-0.591,0.737,-35.889,55.114,-14.222,
00:00:14:316,-0.178,-0.673,0.727,-88.257,52.429,2.319,
00:00:14:333,-0.159,-0.715,0.647,-149.231,63.171,22.277,
00:00:14:350,-0.163,-0.638,0.639,-159.546,81.237,24.047,
00:00:14:366,-0.164,-0.635,0.676,-90.516,82.641,8.178,
00:00:14:383,-0.182,-0.695,0.693,-38.514,70.739,9.765,
00:00:14:400,-0.221,-0.745,0.674,-29.541,61.462,20.935,
00:00:14:416,-0.206,-0.788,0.661,-51.27,54.565,14.648,
00:00:14:433,-0.196,-0.805,0.657,-94.056,60.058,23.254,
00:00:14:450,-0.178,-0.74,0.672,-152.039,75.561,34.301,
00:00:14:466,-0.131,-0.703,0.699,-160.95,84.411,38.757,
00:00:14:483,-0.098,-0.591,0.738,-130.982,91.98,91.552,
00:00:14:500,-0.093,-0.229,0.559,-166.382,180.542,235.229,
00:00:14:516,-0.084,-0.243,0.727,202.331,157.409,158.142,
00:00:14:533,-0.147,-1.195,0.789,171.63,117.492,102.478,
00:00:14:550,-0.201,-0.916,0.532,-322.022,230.957,307.739,
00:00:14:566,-0.188,-0.349,0.532,-185.303,267.212,239.318,
00:00:14:583,-0.015,-0.874,1.079,-105.591,193.176,120.971,
00:00:14:600,-0.137,-1.141,1.014,-106.263,91.064,93.444,
00:00:14:616,-0.246,-0.848,0.968,-247.315,84.838,68.481,
00:00:14:633,-0.137,-0.649,0.836,-270.63,65.673,15.747,
00:00:14:650,-0.132,-0.745,0.901,-325.318,63.964,-22.095,
00:00:14:666,-0.119,-0.585,0.916,-375.855,69.763,0.366,
00:00:14:683,-0.132,-0.543,0.868,-293.091,53.283,-8.057,
00:00:14:700,-0.105,-0.646,0.808,-301.697,61.523,-24.842,
00:00:14:716,-0.088,-0.606,0.792,-381.348,85.693,-1.893,
00:00:14:733,-0.114,-0.597,0.792,-400.574,96.496,24.169,
00:00:14:750,-0.081,-0.445,0.799,-298.401,115.966,61.828,
00:00:14:766,0.023,-0.296,0.672,-192.139,144.653,54.077,
00:00:14:783,0.095,-0.55,1.142,296.814,-32.959,-113.892,
00:00:14:800,-0.212,-0.856,0.853,326.049,-57.984,18.493,
00:00:14:816,-0.098,-0.574,0.863,304.443,-71.839,-28.016,
00:00:14:833,-0.054,-0.764,0.838,301.086,-147.95,-39.551,
00:00:14:850,-0.114,-0.692,0.882,320.434,-215.882,-18.006,
00:00:14:866,-0.168,-0.806,1.03,497.375,-319.947,-88.868,
00:00:14:883,-0.152,-0.948,0.962,595.276,-406.311,-158.509,
00:00:14:900,-0.176,-0.887,0.861,614.685,-450.074,-215.516,
00:00:14:916,-0.233,-0.836,0.725,655.212,-459.839,-269.349,
00:00:14:933,-0.261,-0.837,0.587,694.275,-423.462,-359.375,
00:00:14:950,-0.264,-0.82,0.508,665.466,-349.366,-422.852,
00:00:14:966,-0.276,-0.822,0.466,615.6,-279.175,-466.553,
00:00:14:983,-0.292,-0.89,0.445,527.404,-225.159,-462.769,
00:00:15:0,-0.274,-0.842,0.415,439.941,-170.899,-421.57,
00:00:15:16,-0.246,-0.708,0.366,350.952,-136.78,-365.845,
00:00:15:33,-0.271,-0.656,0.296,240.844,-89.051,-317.505,
00:00:15:50,-0.295,-0.635,0.223,127.258,0.793,-278.138,
00:00:15:66,-0.289,-0.617,0.22,31.189,109.741,-239.563,
00:00:15:83,-0.273,-0.584,0.254,-58.35,235.717,-180.909,
00:00:15:100,-0.231,-0.631,0.205,-193.116,278.869,-167.359,
00:00:15:116,0.062,-0.334,1.021,-570.801,199.646,60.241,
00:00:15:133,-0.193,-0.309,0.732,-189.209,51.696,40.588,
00:00:15:150,-0.294,-0.7,0.726,191.528,-5.31,61.096,
00:00:15:166,-0.115,-0.979,0.704,206.054,21.179,27.343,
00:00:15:183,-0.227,-1.039,0.64,10.803,54.931,98.571,
00:00:15:200,-0.289,-0.928,0.579,-241.211,110.473,70.617,
00:00:15:216,-0.256,-0.823,0.641,-378.968,125.122,64.025,
00:00:15:233,-0.313,-0.758,0.675,-340.332,131.897,68.237,
00:00:15:250,-0.29,-0.688,0.741,-245.301,124.145,32.836,
00:00:15:266,-0.288,-0.726,0.742,-69.336,91.247,39.978,
00:00:15:283,-0.297,-0.823,0.647,-66.468,76.843,31.066,
00:00:15:300,-0.281,-0.877,0.66,-208.069,80.139,18.493,
00:00:15:316,-0.244,-0.923,0.685,-351.807,85.022,6.103,
00:00:15:333,-0.22,-0.776,0.759,-339.783,79.162,20.568,
00:00:15:350,-0.253,-0.674,0.767,-146.18,65.918,16.845,
00:00:15:366,-0.268,-0.699,0.73,-9.766,50.476,4.394,
00:00:15:383,-0.279,-0.725,0.664,-56.885,57.067,17.883,
00:00:15:400,-0.242,-0.73,0.656,-150.33,68.542,9.399,
00:00:15:416,-0.197,-0.64,0.65,-190.979,86.242,24.047,
00:00:15:433,-0.182,-0.657,0.698,-138.245,88.867,15.319,
00:00:15:450,-0.144,-0.581,0.694,-25.33,84.899,54.748,
00:00:15:466,-0.2,-0.686,0.685,73.364,71.594,54.26,
00:00:15:483,-0.21,-0.821,0.679,-15.87,77.27,71.899,
00:00:15:500,-0.233,-0.721,0.621,-100.586,89.172,105.896,
00:00:15:516,-0.232,-0.783,0.658,-163.636,105.163,96.069,
00:00:15:533,-0.159,-0.564,0.59,-263.611,162.353,173.462,
00:00:15:550,-0.08,-0.232,0.628,-211.243,208.252,231.506,
00:00:15:566,-0.21,-0.572,0.612,182.556,217.956,197.265,
00:00:15:583,-0.054,-0.871,0.708,9.338,213.745,248.535,
00:00:15:600,-0.096,-0.778,0.674,-158.753,275.634,306.945,
00:00:15:616,-0.107,-0.87,0.908,-267.273,275.146,247.497,
00:00:15:633,-0.304,-0.76,0.974,527.404,36.254,-18.555,
00:00:15:650,0.032,-1.534,0.881,69.58,81.42,378.479,
00:00:15:666,-0.123,-1.137,1.113,-260.743,-169.8,-94.666,
00:00:15:683,-0.632,-0.909,0.761,-498.047,127.38,-57.923,
00:00:15:700,-0.147,-0.027,0.747,-937.195,419.433,-64.087,
00:00:15:716,0.13,-0.368,0.82,-114.38,0.854,-50.171,
00:00:15:733,-0.149,-0.948,0.929,-155.335,41.015,-10.987,
00:00:15:750,0.049,-0.563,0.861,-114.197,25.878,-38.208,
00:00:15:766,-0.126,-0.658,0.843,57.434,-29.48,-53.772,
00:00:15:783,-0.056,-0.613,0.838,122.436,-26.49,-52.796,
00:00:15:800,-0.013,-0.601,0.826,295.044,-98.511,-45.472,
00:00:15:816,-0.003,-0.78,0.781,348.571,-176.331,-92.835,
00:00:15:833,-0.007,-0.802,0.757,235.107,-205.689,-95.032,
00:00:15:850,-0.001,-0.757,0.783,275.329,-278.321,-148.316,
00:00:15:866,-0.181,-0.915,0.874,411.316,-384.4,-174.561,
00:00:15:883,-0.251,-0.918,0.878,457.824,-435.486,-215.821,
00:00:15:900,-0.265,-0.885,0.837,435.852,-462.769,-268.189,
00:00:15:916,-0.318,-0.874,0.697,329.162,-457.52,-328.675,
00:00:15:933,-0.372,-0.876,0.586,190.429,-396.058,-377.747,
00:00:15:950,-0.375,-0.849,0.51,70.251,-317.139,-413.147,
00:00:15:966,-0.38,-0.826,0.481,6.225,-253.907,-406.922,
00:00:15:983,-0.368,-0.72,0.466,-40.162,-178.772,-383.728,
00:00:16:0,-0.349,-0.639,0.452,-55.359,-120.606,-361.329,
00:00:16:16,-0.325,-0.63,0.453,-100.647,-57.801,-332.093,
00:00:16:33,-0.316,-0.591,0.357,-161.377,22.033,-261.17,
00:00:16:50,-0.338,-0.5,0.314,-144.715,91.919,-173.035,
00:00:16:66,-0.355,-0.43,0.278,-50.782,179.504,-123.414,
00:00:16:83,-0.294,-0.424,0.284,33.203,257.08,-72.327,
00:00:16:100,-0.224,-0.491,0.141,62.439,325.927,-29.847,
00:00:16:116,0.348,-0.241,1.31,36.377,147.094,88.989,
00:00:16:133,0.101,-0.587,0.752,422.424,12.268,-49.805,
00:00:16:150,-0.24,-1.273,0.772,238.891,-91.248,-5.433,
00:00:16:166,-0.312,-0.991,0.688,-69.458,66.894,95.52,
00:00:16:183,-0.322,-0.761,0.622,-120.606,85.327,17.395,
00:00:16:200,-0.351,-0.773,0.736,-52.185,77.453,7.019,
00:00:16:216,-0.334,-0.842,0.798,-58.045,75.805,-4.273,
00:00:16:233,-0.292,-0.778,0.749,-105.103,84.777,10.986,
00:00:16:250,-0.282,-0.757,0.695,-119.629,72.57,17.395,
00:00:16:266,-0.28,-0.762,0.645,-143.25,79.956,33.813,
00:00:16:283,-0.256,-0.738,0.641,-172.974,101.806,24.902,
00:00:16:300,-0.234,-0.774,0.65,-200.684,109.619,6.774,
00:00:16:316,-0.244,-0.774,0.671,-238.831,114.624,8.911,
00:00:16:333,-0.262,-0.695,0.673,-235.108,96.923,19.409,
00:00:16:350,-0.282,-0.657,0.671,-180.787,74.768,35.644,
00:00:16:366,-0.292,-0.645,0.595,-84.839,64.453,57.8,
00:00:16:383,-0.25,-0.635,0.685,-13.062,62.194,71.167,
00:00:16:400,-0.215,-0.704,0.705,-0.794,62.072,74.096,
00:00:16:416,-0.234,-0.707,0.742,-32.471,73.669,97.045,
00:00:16:433,-0.236,-0.695,0.709,27.038,72.143,98.571,
00:00:16:450,-0.251,-0.821,0.614,-22.644,98.388,119.934,
00:00:16:466,-0.219,-0.644,0.375,-372.62,224.182,247.68,
00:00:16:483,-0.115,-0.029,0.623,-308.289,289.245,327.758,
00:00:16:500,-0.061,-0.19,0.926,429.138,229.187,198.242,
00:00:16:516,-0.186,-1.288,0.492,402.099,201.355,139.282,
00:00:16:533,-0.149,-1.031,0.632,-49.561,263.672,242.37,
00:00:16:550,-0.334,-1.049,0.57,-399.781,302.673,245.117,
00:00:16:566,-0.47,-0.268,1.292,-133.667,305.236,186.279,
00:00:16:583,-0.126,-1.009,1.018,358.276,187.866,-144.532,
00:00:16:600,0.1,-1.674,1.085,125.915,197.021,-115.174,
00:00:16:616,0.156,-1.536,0.793,-308.533,-38.758,3.601,
00:00:16:633,-0.457,0.006,0.745,-640.931,57.19,161.56,
00:00:16:650,-0.332,-0.088,0.699,-289.795,150.879,-69.642,
00:00:16:667,0.106,-0.704,0.753,-79.224,58.715,-128.846,
00:00:16:683,0.017,-0.755,0.862,-151.307,5.615,-0.184,
00:00:16:700,-0.172,-0.695,0.764,-164.551,17.456,-36.499,
00:00:16:717,-0.187,-0.781,0.774,-169.556,49.316,-89.051,
00:00:16:733,-0.144,-0.631,0.816,-105.042,76.843,-71.351,
00:00:16:750,-0.099,-0.559,0.852,89.66,18.31,-96.558,
00:00:16:767,-0.125,-0.59,0.8,263.672,-30.152,-66.285,
00:00:16:783,-0.112,-0.651,0.777,414.917,-76.539,-48.096,
00:00:16:800,-0.049,-0.858,0.774,398.925,-138.367,-72.388,
00:00:16:817,0,-0.88,0.743,249.45,-158.204,-67.688,
00:00:16:833,-0.005,-0.799,0.763,211.425,-238.953,-85.206,
00:00:16:850,-0.097,-0.851,0.873,317.26,-336.853,-123.291,
00:00:16:867,-0.179,-0.953,0.832,337.89,-398.865,-187.561,
00:00:16:883,-0.232,-1.002,0.751,222.412,-418.519,-236.206,
00:00:16:900,-0.281,-0.944,0.688,-56.58,-372.498,-266.602,
00:00:16:917,-0.296,-0.829,0.604,-323.365,-286.56,-318.36,
00:00:16:933,-0.319,-0.749,0.556,-490.784,-218.628,-331.543,
00:00:16:950,-0.343,-0.627,0.555,-498.291,-138.367,-321.595,
00:00:16:967,-0.329,-0.537,0.556,-360.84,-76.172,-302.613,
00:00:16:983,-0.262,-0.627,0.585,-152.588,-65.308,-340.699,
00:00:17:0,-0.276,-0.606,0.508,-99.183,-41.565,-229.493,
00:00:17:17,-0.304,-0.478,0.469,-119.935,52.612,-147.583,
00:00:17:33,-0.243,-0.449,0.456,-109.986,106.323,-118.042,
00:00:17:50,-0.17,-0.489,0.509,-151.978,124.755,-66.529,
00:00:17:67,-0.136,-0.549,0.536,-174.195,151.916,-12.085,
00:00:17:83,-0.134,-0.742,0.346,-163.514,129.699,-3.602,
00:00:17:100,-0.05,-0.579,0.836,-303.101,267.883,166.442,
00:00:17:117,-0.08,0.003,0.988,-94.91,206.176,326.782,
00:00:17:133,0.003,-0.669,0.64,438.354,-237.244,19.043,
00:00:17:150,-0.315,-1.347,0.678,166.992,-337.403,116.882,
00:00:17:167,-0.659,-1.205,0.714,-519.227,125.061,123.413,
00:00:17:183,-0.421,-0.84,0.757,-866.517,391.052,156.067,
00:00:17:200,-0.277,-0.614,0.859,-537.537,251.892,44.25,
00:00:17:217,-0.213,-0.788,1.077,-306.275,21.24,-28.992,
00:00:17:233,-0.286,-0.605,1.002,-472.901,47.424,22.705,
00:00:17:250,-0.238,-0.477,0.92,-484.559,57.983,11.535,
00:00:17:267,-0.163,-0.376,0.863,-370.606,70.251,42.48,
00:00:17:283,-0.143,-0.376,0.789,-246.521,69.702,25.024,
00:00:17:300,-0.166,-0.496,0.767,-163.697,81.848,13.671,
00:00:17:317,-0.203,-0.569,0.823,-157.593,131.836,3.418,
00:00:17:333,-0.144,-0.68,0.866,-230.835,138.733,8.606,
00:00:17:350,-0.183,-0.597,0.838,-267.212,161.438,13.855,
00:00:17:367,-0.204,-0.562,0.815,-179.505,134.338,2.746,
00:00:17:383,-0.239,-0.587,0.843,-140.137,116.577,-15.198,
00:00:17:400,-0.249,-0.553,0.833,-163.086,124.084,-3.418,
00:00:17:417,-0.217,-0.558,0.855,-121.338,132.385,-27.405,
00:00:17:433,-0.2,-0.591,0.885,-64.331,123.23,-47.974,
00:00:17:450,-0.195,-0.596,0.863,-24.781,103.82,-42.359,
00:00:17:467,-0.227,-0.619,0.846,-25.513,89.111,-51.392,
00:00:17:483,-0.247,-0.6,0.769,-71.717,108.032,-64.087,
00:00:17:500,-0.228,-0.566,0.769,-120.179,152.832,-74.219,
00:00:17:517,-0.156,-0.491,0.789,-117.31,166.076,-64.82,
00:00:17:533,-0.108,-0.409,0.812,-58.35,153.259,-39.551,
00:00:17:550,-0.109,-0.505,0.777,-11.475,110.412,-39.795,
00:00:17:567,-0.14,-0.484,0.721,-89.295,168.945,-17.456,
00:00:17:583,-0.107,-0.519,0.746,-110.108,203.796,-4.7,grateLH
00:00:17:600,-0.164,0.321,0.584,-526.856,633.239,179.26,
00:00:17:617,-0.32,0.331,1.758,854.614,-555.481,-306.275,
00:00:17:633,0.059,-1.348,1.33,560.18,127.624,-128.174,
00:00:17:650,0.272,-0.872,1.209,504.272,172.79,686.035,
00:00:17:667,0.095,-1.188,1.081,225.952,-108.765,210.205,
00:00:17:683,-0.152,-0.96,1.162,-421.57,25.634,-301.819,
00:00:17:700,-0.172,-0.087,0.675,-420.655,238.22,106.994,
00:00:17:717,-0.099,-0.188,0.771,-173.768,172.607,-86.182,
00:00:17:733,-0.075,-0.349,0.837,14.16,111.877,-11.658,
00:00:17:750,-0.023,-0.474,0.888,133.911,113.464,-26.246,
00:00:17:767,0.005,-0.633,0.95,107.483,153.381,-74.036,
00:00:17:783,0,-0.449,0.989,126.22,117.675,-19.043,
00:00:17:800,0.03,-0.495,0.886,375.671,-23.499,-47.12,
00:00:17:817,0.021,-0.627,0.843,449.157,-82.764,-103.516,
00:00:17:833,0.057,-0.527,0.873,384.826,-89.234,-69.458,
00:00:17:850,0.101,-0.609,0.89,334.594,-151.185,-77.942,
00:00:17:867,0.083,-0.641,0.925,251.587,-186.158,-73.975,
00:00:17:883,0.005,-0.623,0.92,288.513,-247.193,-60.425,
00:00:17:900,-0.077,-0.685,0.979,465.026,-363.16,-79.224,
00:00:17:917,-0.165,-0.735,1.002,623.657,-424.683,-104.676,
00:00:17:933,-0.201,-0.85,0.917,662.597,-484.131,-160.401,
00:00:17:950,-0.284,-0.965,0.802,509.094,-522.706,-225.647,
00:00:17:967,-0.394,-0.979,0.735,243.774,-476.807,-261.292,
00:00:17:983,-0.455,-0.891,0.67,0.61,-370.057,-300.415,
00:00:18:0,-0.408,-0.779,0.625,-64.515,-291.748,-328.98,
00:00:18:17,-0.352,-0.738,0.645,-26.978,-274.048,-349.244,
00:00:18:33,-0.352,-0.755,0.548,6.469,-239.563,-374.085,
00:00:18:50,-0.384,-0.632,0.493,-49.561,-166.443,-313.721,
00:00:18:67,-0.358,-0.624,0.404,-28.687,-102.784,-345.765,
00:00:18:83,-0.343,-0.584,0.333,-16.846,-27.832,-299.866,
00:00:18:100,-0.386,-0.546,0.263,-10.071,53.161,-284.302,
00:00:18:117,-0.406,-0.511,0.316,-98.023,163.025,-245.179,
00:00:18:133,-0.391,-0.379,0.41,-232.789,257.873,-163.88,
00:00:18:150,-0.349,-0.361,0.459,-280.335,286.682,-131.958,
00:00:18:167,-0.288,-0.423,0.656,-376.893,281.311,-55.542,
00:00:18:183,0.073,-0.49,1.184,-526.123,267.822,37.109,
00:00:18:200,0.341,-0.08,0.997,-30.213,98.938,163.818,
00:00:18:217,-0.025,-0.65,0.737,419.006,-96.68,-35.279,
00:00:18:233,-0.234,-0.877,0.771,216.552,6.897,41.87,
00:00:18:250,-0.208,-0.923,0.73,-322.754,172.729,-23.682,
00:00:18:267,-0.214,-0.749,0.787,-611.268,251.77,38.33,
00:00:18:283,-0.284,-0.54,0.842,-491.883,251.953,33.752,
00:00:18:300,-0.302,-0.548,0.833,-240.784,187.317,23.925,
00:00:18:317,-0.216,-0.636,0.774,-248.536,215.332,66.223,
00:00:18:333,-0.175,-0.523,0.761,-285.096,224.548,99.304,
00:00:18:350,-0.186,-0.39,0.811,-164.612,191.223,118.53,
00:00:18:367,-0.198,-0.589,0.878,137.512,54.809,34.484,
00:00:18:383,-0.274,-0.808,0.882,148.742,15.991,46.814,
00:00:18:400,-0.189,-0.777,0.874,-227.234,125.793,27.404,
00:00:18:417,-0.181,-0.626,0.883,-292.359,148.925,40.466,
00:00:18:433,-0.16,-0.568,0.919,-202.576,113.281,2.868,
00:00:18:450,-0.163,-0.506,0.88,-127.442,103.027,10.62,
00:00:18:467,-0.178,-0.436,0.869,-26.429,78.43,30.456,
00:00:18:483,-0.188,-0.551,0.822,-4.639,66.284,14.221,
00:00:18:500,-0.199,-0.486,0.78,-81.849,115.356,46.63,
00:00:18:517,-0.121,-0.51,0.812,-36.805,117.248,54.748,
00:00:18:533,-0.108,-0.685,0.854,-42.542,75.256,29.968,
00:00:18:550,-0.157,-0.703,0.818,-157.959,91.247,36.193,
00:00:18:567,-0.174,-0.588,0.843,-204.956,127.38,47.79,
00:00:18:583,-0.146,-0.577,0.839,-176.026,137.268,37.78,
00:00:18:600,-0.165,-0.484,0.774,-116.517,132.629,59.143,
00:00:18:617,-0.189,-0.537,0.656,-124.329,179.992,35.034,
00:00:18:633,-0.058,-0.259,0.886,-240.967,453.796,157.043,
00:00:18:650,0.024,-0.531,0.643,-4.639,385.437,108.337,
00:00:18:667,-0.356,0.391,2.963,58.654,275.512,282.653,
00:00:18:683,0.185,-2.541,1.07,652.893,-116.761,-189.698,
00:00:18:700,-0.367,-0.391,0.667,-314.087,-182.312,82.641,
00:00:18:717,0.142,-0.56,0.801,191.894,131.836,-211.609,
00:00:18:733,0.305,-0.473,0.944,98.693,125.061,13.122,
00:00:18:750,0.109,-0.469,0.995,415.222,-116.761,-54.871,
00:00:18:767,-0.014,-0.743,1.052,589.843,-226.563,-113.465,
00:00:18:783,0.019,-0.769,1.056,451.599,-182.618,-108.582,
00:00:18:800,0.069,-0.672,1.015,307.434,-248.047,-103.394,
00:00:18:817,-0.029,-0.715,1.013,222.961,-389.71,-121.46,
00:00:18:833,-0.151,-0.73,1.038,122.192,-425.232,-144.165,
00:00:18:850,-0.218,-0.696,1.001,14.282,-427.185,-154.725,
00:00:18:867,-0.26,-0.631,0.917,-23.499,-444.458,-141.297,
00:00:18:883,-0.304,-0.625,0.816,-6.043,-459.473,-148.621,
00:00:18:900,-0.337,-0.618,0.742,-22.095,-427.185,-157.41,
00:00:18:917,-0.339,-0.606,0.722,-40.589,-374.756,-172.181,
00:00:18:933,-0.341,-0.624,0.657,-54.627,-324.097,-199.891,
00:00:18:950,-0.349,-0.614,0.608,-46.57,-262.269,-208.863,
00:00:18:967,-0.345,-0.596,0.555,-30.152,-190.125,-229.126,
00:00:18:983,-0.348,-0.638,0.513,1.403,-141.541,-241.761,
00:00:19:0,-0.362,-0.674,0.476,-7.996,-71.228,-237.427,
00:00:19:17,-0.36,-0.665,0.461,-53.162,12.085,-220.765,
00:00:19:33,-0.329,-0.619,0.495,-118.348,90.515,-203.309,
00:00:19:50,-0.293,-0.503,0.514,-135.926,156.616,-173.768,
00:00:19:67,-0.238,-0.46,0.567,-81.727,176.757,-178.101,
00:00:19:83,-0.197,-0.512,0.664,-53.589,169.616,-165.833,
00:00:19:100,0.042,-0.533,1.002,-238.526,180.847,-52.735,
00:00:19:117,0.186,-0.183,0.833,-262.574,134.643,59.753,
00:00:19:133,-0.087,-0.464,0.811,-13.367,-66.224,-12.818,
00:00:19:150,-0.237,-0.612,0.738,-96.985,123.779,-11.841,
00:00:19:167,-0.218,-0.698,0.797,-290.406,145.691,29.357,
00:00:19:183,-0.219,-0.701,0.893,-451.172,177.429,-7.996,
00:00:19:200,-0.253,-0.601,0.934,-462.952,183.593,-4.151,
00:00:19:217,-0.177,-0.529,0.826,-147.95,75.988,-25.879,
00:00:19:233,-0.222,-0.574,0.792,-121.216,72.692,12.817,
00:00:19:250,-0.229,-0.509,0.742,-227.173,119.14,29.235,
00:00:19:267,-0.22,-0.415,0.691,-194.886,147.949,53.405,
00:00:19:283,-0.19,-0.457,0.785,-130.005,163.452,37.597,
00:00:19:300,-0.196,-0.44,0.761,-83.741,234.13,67.443,
00:00:19:317,-0.182,-0.515,0.515,-16.114,261.352,57.556,
00:00:19:333,-0.214,-0.505,0.604,-305.603,361.816,114.196,
00:00:19:350,-0.267,-0.088,0.556,-278.321,467.346,233.642,
00:00:19:367,-0.114,-0.319,0.888,12.329,362.243,195.19,
00:00:19:383,-0.076,-0.414,1.085,219.543,324.89,252.563,
00:00:19:400,-0.131,-0.73,1.128,570.068,113.708,127.685,
00:00:19:417,-0.191,-1.157,1.176,162.902,133.422,93.933,
00:00:19:433,-0.302,-0.688,0.811,-341.675,333.068,100.28,
00:00:19:450,-0.058,-0.414,1.263,-349.06,395.568,108.032,
00:00:19:467,0.065,-1.022,1.798,169.799,-46.814,-44.8,
00:00:19:483,-0.26,-0.786,0.97,259.582,-348.938,-221.802,
00:00:19:500,-0.353,-0.291,0.661,-327.271,178.222,-64.698,
00:00:19:517,0.013,-0.34,0.79,-326.966,167.785,-128.968,
00:00:19:533,0.039,-0.453,1,-277.1,77.88,-97.352,
00:00:19:550,-0.063,-0.412,1.002,-192.505,59.082,-84.351,
00:00:19:567,-0.062,-0.334,0.905,-104.432,66.345,-70.923,
00:00:19:583,-0.026,-0.288,0.837,-3.174,71.106,-37.11,
00:00:19:600,-0.007,-0.279,0.888,150.085,58.044,-13.184,
00:00:19:617,-0.024,-0.365,0.918,340.942,12.634,-1.221,
00:00:19:633,-0.064,-0.433,0.941,507.751,-31.983,19.226,
00:00:19:650,0.004,-0.64,1.055,607.483,-125.123,-12.024,
00:00:19:667,0.073,-0.823,0.932,491.15,-213.868,-40.101,
00:00:19:683,-0.006,-0.718,0.93,225.647,-249.329,1.281,
00:00:19:700,-0.04,-0.555,0.973,59.265,-269.654,-12.574,
00:00:19:717,-0.069,-0.537,1.06,101.623,-360.779,-31.8,
00:00:19:733,-0.146,-0.635,1.074,241.394,-458.008,-67.627,
00:00:19:750,-0.216,-0.671,0.977,289.55,-465.027,-90.271,
00:00:19:767,-0.285,-0.618,0.86,339.416,-457.215,-109.375,
00:00:19:783,-0.334,-0.644,0.753,392.7,-440.247,-153.321,
00:00:19:800,-0.356,-0.72,0.686,416.137,-402.955,-192.2,
00:00:19:817,-0.342,-0.82,0.653,359.68,-361.451,-239.685,
00:00:19:833,-0.313,-0.845,0.691,124.939,-294.556,-273.072,
00:00:19:850,-0.296,-0.786,0.653,-131.165,-222.718,-285.279,
00:00:19:867,-0.305,-0.652,0.577,-191.04,-167.725,-285.34,
00:00:19:883,-0.318,-0.499,0.532,-76.905,-121.705,-284.485,
00:00:19:900,-0.318,-0.477,0.486,89.782,-82.825,-298.768,
00:00:19:917,-0.334,-0.525,0.467,244.629,-40.833,-289.673,
00:00:19:933,-0.339,-0.549,0.482,283.752,15.441,-263.55,
00:00:19:950,-0.323,-0.589,0.53,155.517,74.401,-245.301,
00:00:19:967,-0.303,-0.605,0.519,-62.928,158.386,-211.67,
00:00:19:983,-0.296,-0.538,0.508,-246.033,248.352,-156.8,
00:00:20:0,-0.066,-0.66,0.984,-553.528,208.252,-127.381,
00:00:20:17,0.099,0.149,1.014,-489.441,194.763,221.191,
00:00:20:33,-0.099,-0.255,0.918,276.733,-79.041,-47.852,
00:00:20:50,-0.328,-0.732,0.759,423.339,-70.923,24.108,
00:00:20:67,-0.375,-0.791,0.747,158.508,85.754,34.729,
00:00:20:83,-0.267,-0.841,0.732,-204.346,155.09,8.85,
00:00:20:100,-0.25,-0.779,0.8,-548.462,211.853,25.634,
00:00:20:117,-0.237,-0.603,0.927,-629.09,228.393,13.916,
00:00:20:133,-0.245,-0.462,0.988,-363.038,134.46,8.972,
00:00:20:150,-0.262,-0.451,0.936,-49.683,40.222,4.394,
00:00:20:167,-0.271,-0.56,0.817,87.158,-2.991,-6.226,
00:00:20:183,-0.27,-0.597,0.745,21.24,28.137,17.7,
00:00:20:200,-0.255,-0.561,0.732,-77.759,60.791,47.363,
00:00:20:217,-0.239,-0.562,0.727,-103.272,73.974,35.644,
00:00:20:233,-0.245,-0.566,0.754,-151.185,93.872,63.354,
00:00:20:250,-0.202,-0.504,0.421,-271.912,255.554,71.044,
00:00:20:267,-0.162,-0.032,0.776,-308.106,373.291,277.282,
00:00:20:283,-0.112,-0.456,0.927,302.002,130.554,63.537,
00:00:20:300,-0.227,-0.763,0.791,304.931,94.97,182.434,
00:00:20:317,-0.309,-0.707,0.716,-25.452,190.734,148.925,
00:00:20:333,-0.209,-0.626,1.003,-324.524,316.04,202.88,
00:00:20:350,-0.083,-0.652,1.304,-158.143,175.354,108.215,
00:00:20:367,-0.171,-0.917,1.093,-24.476,-33.875,18.798,
00:00:20:383,-0.34,-0.647,0.995,-327.088,162.475,72.753,
00:00:20:400,-0.18,-0.5,0.875,-419.251,193.237,18.554,
00:00:20:417,-0.106,-0.351,0.861,-420.105,220.276,58.471,
00:00:20:433,-0.128,-0.35,0.814,-274.842,175.415,55.664,
00:00:20:450,-0.141,-0.375,0.872,-290.772,231.75,107.238,
00:00:20:467,-0.082,-0.447,0.786,-130.738,208.679,93.322,
00:00:20:483,-0.103,-0.386,0.653,-161.744,275.146,175.781,
00:00:20:500,-0.202,-0.223,1.279,-188.965,186.767,138.977,
00:00:20:517,-0.119,-1.077,1.332,361.511,-210.755,-149.292,
00:00:20:533,-0.241,-0.891,1.028,-106.446,10.62,81.298,
00:00:20:550,-0.2,-0.195,0.727,-29.236,77.514,-10.56,
00:00:20:567,0.007,-0.491,0.998,330.566,-106.995,-5.433,
00:00:20:583,0.004,-0.644,0.972,319.275,-186.829,-14.893,
00:00:20:600,-0.05,-0.584,1.03,154.297,-178.162,-5.616,
00:00:20:617,-0.062,-0.612,1.076,158.447,-263.672,-42.481,
00:00:20:633,-0.124,-0.705,1.06,193.725,-361.084,-83.985,
00:00:20:650,-0.264,-0.613,0.874,262.451,-390.32,-131.409,
00:00:20:667,-0.327,-0.631,0.824,300.476,-378.174,-151.49,
00:00:20:683,-0.347,-0.641,0.766,282.776,-344.91,-172.242,
00:00:20:700,-0.32,-0.687,0.74,207.763,-302.491,-219.178,
00:00:20:717,-0.299,-0.715,0.699,116.76,-263.367,-268.982,
00:00:20:733,-0.318,-0.691,0.652,52.246,-219.91,-291.443,
00:00:20:750,-0.307,-0.697,0.641,34.912,-180.054,-319.275,
00:00:20:767,-0.291,-0.628,0.615,-5.127,-134.034,-297.181,
00:00:20:783,-0.293,-0.558,0.567,-20.447,-94.666,-289.063,
00:00:20:800,-0.309,-0.526,0.536,-32.715,-66.224,-286.499,
00:00:20:817,-0.32,-0.54,0.495,-96.07,1.037,-260.254,
00:00:20:833,-0.326,-0.3,0.441,-191.834,240.905,-97.168,
00:00:20:850,-0.067,-0.198,1.035,-411.988,315.429,51.635,
00:00:20:867,-0.059,0.036,0.905,68.359,126.403,108.459,
00:00:20:883,-0.199,-0.658,0.901,472.595,-67.505,-28.687,
00:00:20:900,-0.237,-0.742,1.024,322.937,33.752,86.12,
00:00:20:917,-0.117,-0.785,0.957,141.845,27.587,-5.433,
00:00:20:933,-0.19,-0.846,0.818,-95.154,-23.011,-11.536,
00:00:20:950,-0.375,-0.704,0.82,-278.199,42.663,-21.058,
00:00:20:967,-0.374,-0.549,0.767,-314.026,150.268,-27.039,
00:00:20:983,-0.282,-0.458,0.792,-213.44,145.996,-26.917,
00:00:21:0,-0.244,-0.486,0.835,-112.244,106.75,-25.147,
00:00:21:17,-0.28,-0.516,0.851,-57.435,98.51,8.056,
00:00:21:33,-0.256,-0.579,0.853,-90.699,106.689,14.404,
00:00:21:50,-0.219,-0.615,0.858,-133.179,120.666,4.943,
00:00:21:67,-0.222,-0.581,0.864,-138.611,123.169,5.31,
00:00:21:83,-0.23,-0.545,0.867,-108.033,105.041,11.474,
00:00:21:100,-0.249,-0.563,0.824,-43.519,67.138,-10.254,
00:00:21:117,-0.284,-0.6,0.803,-90.332,63.842,-7.691,
00:00:21:133,-0.263,-0.531,0.804,-156.983,87.768,9.643,
00:00:21:150,-0.231,-0.482,0.822,-150.696,89.477,18.981,
00:00:21:167,-0.241,-0.501,0.814,-120.667,83.252,15.93,
00:00:21:183,-0.229,-0.587,0.849,-153.626,91.674,8.178,
00:00:21:200,-0.205,-0.607,0.832,-214.295,105.59,22.399,
00:00:21:217,-0.215,-0.579,0.833,-259.034,114.563,24.231,
00:00:21:233,-0.261,-0.547,0.734,-256.348,152.16,28.32,
00:00:21:250,-0.281,-0.393,-0.049,-416.504,329.406,86.242,
00:00:21:267,-0.198,0.626,0.375,-547.364,638.549,395.141,
00:00:21:283,0.103,-0.154,0.823,490.661,355.896,118.164,
00:00:21:300,-0.03,-1.109,0.278,493.103,233.398,134.948,
00:00:21:317,-0.273,-0.325,0.883,-400.269,780.334,383.117,
00:00:21:333,0.725,-0.822,2.002,810.485,119.201,-155.274,
00:00:21:350,-0.298,-2.342,3.323,695.068,-1022.217,344.177,
00:00:21:367,-2.047,-1.784,1.059,-780.579,-128.602,-302.308,
00:00:21:383,-0.423,0.143,0.637,-1437.439,847.839,-105.225,
00:00:21:400,0.72,0.281,0.738,-308.655,361.389,154.846,
00:00:21:417,0.342,-0.525,1.008,136.352,-235.901,-127.625,
00:00:21:433,-0.441,-0.41,1.08,153.442,-145.325,-68.116,
00:00:21:450,-0.037,-0.49,0.876,115.844,61.096,12.451,
00:00:21:467,-0.017,-0.389,0.898,334.289,-38.208,2.441,
00:00:21:483,-0.178,-0.526,0.95,495.3,-77.698,-26.001,
00:00:21:500,-0.103,-0.598,0.912,461.12,-44.495,-24.598,
00:00:21:517,-0.03,-0.669,0.928,444.275,-82.886,-39.063,
00:00:21:533,-0.067,-0.563,0.846,32.409,-111.878,-53.101,
00:00:21:550,-0.058,-0.436,0.972,158.02,-203.797,-46.082,
00:00:21:567,-0.132,-0.548,1.051,373.474,-326.783,-70.13,
00:00:21:583,-0.202,-0.624,0.979,491.455,-386.353,-65.003,
00:00:21:600,-0.259,-0.69,0.855,494.873,-417.786,-75.684,
00:00:21:617,-0.314,-0.754,0.752,351.867,-413.88,-99.793,grateLH
00:00:21:633,-0.373,-0.794,0.673,126.403,-359.498,-123.536,
00:00:21:650,-0.404,-0.759,0.625,-65.43,-263.55,-135.56,
00:00:21:667,-0.392,-0.655,0.625,-141.846,-168.58,-143.372,
00:00:21:683,-0.359,-0.618,0.646,-80.994,-133.973,-172.486,
00:00:21:700,-0.36,-0.654,0.62,28.442,-110.474,-197.571,
00:00:21:717,-0.37,-0.663,0.576,128.234,-58.899,-186.341,
00:00:21:733,-0.355,-0.624,0.479,227.234,-8.851,-186.463,
00:00:21:750,-0.325,-0.599,0.411,280.456,46.325,-186.097,
00:00:21:767,-0.295,-0.647,0.412,236.511,78.247,-200.074,
00:00:21:783,-0.269,-0.757,0.502,72.082,104.858,-209.107,
00:00:21:800,-0.242,-0.781,0.604,-138.977,162.963,-177.002,
00:00:21:817,-0.228,-0.695,0.619,-317.749,217.834,-133.057,
00:00:21:833,-0.235,-0.564,0.615,-348.328,246.276,-108.155,
00:00:21:850,-0.104,-0.618,0.718,-405.945,178.405,-124.207,
00:00:21:867,0.027,-0.076,1.152,-385.376,277.16,188.537,
00:00:21:883,0.022,-0.412,0.902,100.463,-88.318,-129.09,
00:00:21:900,-0.171,-0.786,0.863,87.097,-169.495,-10.498,
00:00:21:917,-0.338,-0.758,0.682,-195.984,33.386,-13.489,
00:00:21:933,-0.314,-0.62,0.687,-430.42,217.651,36.682,
00:00:21:950,-0.203,-0.543,0.824,-402.344,257.08,9.643,
00:00:21:967,-0.179,-0.687,0.907,-313.294,193.603,-47.608,
00:00:21:983,-0.283,-0.657,0.8,-293.091,184.448,-23.987,
00:00:22:0,-0.282,-0.681,0.645,-298.89,263.794,-34.852,
00:00:22:17,-0.192,-0.531,0.575,-577.088,403.93,65.856,
00:00:22:33,-0.135,-0.015,0.618,-578.736,495.178,192.932,
00:00:22:50,0.03,-0.032,0.921,-46.875,314.026,165.588,
00:00:22:67,0,-0.584,0.841,277.404,150.634,84.533,
00:00:22:83,-0.183,-0.516,0.809,138.794,238.952,249.511,
00:00:22:100,-0.169,-0.861,0.937,219.36,163.452,114.99,
00:00:22:117,-0.215,-1.014,0.998,-82.947,252.563,167.053,
00:00:22:133,-0.05,0.017,1.267,498.718,-69.581,-11.902,
00:00:22:150,0.117,-0.908,1.482,605.774,-173.401,303.283,
00:00:22:167,-0.24,-1.14,1.011,423.889,-308.838,-95.337,
00:00:22:183,-0.556,-0.674,0.821,-116.639,2.441,-168.091,
00:00:22:200,-0.202,-0.542,0.844,-331.36,199.401,-80.994,
00:00:22:217,0.017,-0.4,0.82,-279.602,145.935,-75.989,
00:00:22:233,-0.094,-0.514,0.886,-271.851,115.173,-94.788,
00:00:22:250,-0.133,-0.579,0.846,-340.21,171.081,-67.322,
00:00:22:267,-0.137,-0.711,0.953,-462.708,181.518,-64.881,
00:00:22:283,-0.219,-0.785,1.011,-737.793,266.235,-64.209,
00:00:22:300,-0.121,-0.411,0.932,-505.555,175.048,-31.495,
00:00:22:317,-0.1,-0.44,0.845,-128.235,-17.212,-95.276,
00:00:22:333,-0.178,-0.407,0.805,-63.965,9.643,-98.389,
00:00:22:350,-0.103,-0.177,0.798,-8.24,84.411,-23.072,
00:00:22:367,0.004,-0.138,0.806,197.937,37.17,0.366,
00:00:22:383,-0.01,-0.344,0.813,452.27,-16.236,30.578,
00:00:22:400,-0.039,-0.48,0.869,604.37,-45.96,36.743,
00:00:22:417,0.017,-0.589,0.933,715.271,-65.979,26.062,
00:00:22:433,0.055,-0.643,0.842,728.393,-148.316,19.897,
00:00:22:450,-0.022,-0.681,0.81,650.451,-212.708,32.348,
00:00:22:467,-0.099,-0.667,0.803,543.09,-210.206,47.79,
00:00:22:483,-0.116,-0.601,0.899,471.679,-211.06,87.219,
00:00:22:500,-0.123,-0.516,0.978,596.862,-264.771,99.243,
00:00:22:517,-0.172,-0.653,0.936,835.144,-385.926,5.981,
00:00:22:533,-0.26,-0.758,0.828,922.607,-412.964,-40.284,
00:00:22:550,-0.349,-0.777,0.718,925.72,-377.32,-59.266,
00:00:22:567,-0.384,-0.835,0.634,926.88,-349.305,-138.245,
00:00:22:583,-0.394,-0.902,0.576,879.943,-296.753,-162.781,
00:00:22:600,-0.373,-0.91,0.521,779.48,-231.263,-168.457,
00:00:22:617,-0.346,-0.903,0.491,652.71,-175.11,-189.087,
00:00:22:633,-0.325,-0.964,0.452,488.464,-147.461,-210.022,
00:00:22:650,-0.337,-0.966,0.396,261.718,-83.435,-195.679,
00:00:22:667,-0.34,-0.98,0.369,78.735,-13.55,-181.458,
00:00:22:683,-0.306,-0.96,0.36,-129.517,55.175,-170.777,
00:00:22:700,-0.272,-0.819,0.327,-275.879,150.634,-131.775,
00:00:22:717,-0.243,-0.717,0.309,-268.982,188.72,-142.09,
00:00:22:733,-0.213,-0.721,0.352,-182.679,199.34,-138.184,
00:00:22:750,-0.114,-0.972,0.514,-239.624,130.005,-182.312,
00:00:22:767,0.018,-0.797,0.76,-615.784,184.387,29.907,
00:00:22:783,-0.053,-0.656,0.627,-576.661,60.73,-28.016,
00:00:22:800,-0.142,-0.896,0.566,-507.447,-44.922,-74.646,
00:00:22:817,-0.203,-1.029,0.629,-729.371,65.429,-79.895,
00:00:22:833,-0.234,-0.845,0.657,-944.519,217.041,-33.387,
00:00:22:850,-0.225,-0.675,0.723,-857.178,237.548,-63.294,
00:00:22:867,-0.205,-0.657,0.691,-614.136,171.142,-103.333,
00:00:22:883,-0.253,-0.673,0.71,-487.488,145.935,-105.286,
00:00:22:900,-0.298,-0.594,0.697,-451.355,156.067,-90.516,
00:00:22:917,-0.249,-0.545,0.679,-435.364,179.504,-73.975,
00:00:22:933,-0.167,-0.525,0.655,-446.473,165.527,-46.692,
00:00:22:950,-0.123,-0.35,0.693,-399.353,187.988,42.358,
00:00:22:967,-0.123,-0.429,0.601,-221.924,115.722,-12.757,
00:00:22:983,-0.16,-0.511,0.756,-153.931,121.46,57.922,
00:00:23:0,-0.265,-0.642,0.885,132.568,-38.208,-9.034,
00:00:23:17,-0.304,-0.694,0.849,2.258,31.372,-15.442,
00:00:23:33,-0.199,-0.685,0.855,-123.597,67.871,-14.832,
00:00:23:50,-0.179,-0.62,0.863,-165.039,77.148,-26.673,
00:00:23:67,-0.196,-0.511,0.826,-108.094,79.223,-31.067,
00:00:23:83,-0.162,-0.567,0.795,-46.936,60.607,3.54,
00:00:23:100,-0.161,-0.588,0.81,-63.233,62.439,17.028,
00:00:23:117,-0.163,-0.582,0.811,-62.5,65.246,29.052,
00:00:23:133,-0.169,-0.563,0.803,-10.254,61.035,31.127,
00:00:23:150,-0.177,-0.593,0.786,2.319,72.204,30.212,
00:00:23:167,-0.192,-0.566,0.793,-42.786,94.482,38.879,
00:00:23:183,-0.189,-0.579,0.772,-100.831,134.948,35.461,
00:00:23:200,-0.18,-0.531,0.821,-159.729,171.386,61.767,
00:00:23:217,-0.252,-0.882,0.39,-221.924,217.224,-29.114,
00:00:23:233,-0.266,-0.118,0.216,-790.223,684.631,311.706,
00:00:23:250,0.023,0.487,0.692,-304.932,601.013,337.585,
00:00:23:267,0.681,-0.836,3.402,1178.222,-261.597,-12.391,
00:00:23:283,-0.083,-3.039,1.6,1031.128,-1183.045,-341.187,
00:00:23:300,-1.294,-0.739,0.479,-1363.892,707.092,104.675,
00:00:23:317,-0.132,0.148,0.808,-715.516,542.602,39.978,
00:00:23:333,0.566,-0.543,0.983,-20.752,58.288,-139.222,
00:00:23:350,-0.018,-0.488,1.068,-31.983,-87.708,-5.005,
00:00:23:367,-0.266,-0.381,0.958,27.343,-22.4,-19.898,
00:00:23:383,0.051,-0.525,0.832,70.922,24.719,-13.794,
00:00:23:400,0.027,-0.415,0.848,194.58,-53.711,7.69,
00:00:23:417,-0.053,-0.484,0.934,360.901,-107.605,-6.958,
00:00:23:433,0.071,-0.603,0.969,393.798,-130.921,-25.94,
00:00:23:450,0.082,-0.605,0.85,371.643,-228.15,-16.236,
00:00:23:467,-0.019,-0.598,0.832,283.874,-262.146,-17.884,
00:00:23:483,-0.076,-0.588,0.876,200.195,-264.344,-12.513,
00:00:23:500,-0.122,-0.603,0.921,312.194,-324.463,-15.137,
00:00:23:517,-0.174,-0.819,0.934,441.955,-414.673,-86.67,
00:00:23:533,-0.245,-0.9,0.865,362.548,-424.256,-108.948,
00:00:23:550,-0.303,-0.856,0.793,237.671,-383.728,-143.372,
00:00:23:567,-0.305,-0.806,0.762,163.513,-346.314,-203.309,
00:00:23:583,-0.304,-0.755,0.727,159.851,-321.045,-249.817,
00:00:23:600,-0.319,-0.761,0.688,254.638,-301.087,-296.021,
00:00:23:617,-0.325,-0.83,0.687,318.42,-299.866,-353.638,
00:00:23:633,-0.353,-0.801,0.553,111.877,-254.334,-370.362,
00:00:23:650,-0.393,-0.733,0.471,-24.231,-193.177,-356.446,
00:00:23:667,-0.401,-0.606,0.425,-123.658,-96.314,-337.83,
00:00:23:683,-0.387,-0.509,0.397,-98.511,-8.24,-321.839,
00:00:23:700,-0.373,-0.459,0.424,-28.992,64.025,-291.199,
00:00:23:717,-0.381,-0.48,0.432,44.616,122.558,-256.287,
00:00:23:733,-0.392,-0.516,0.402,28.503,189.88,-210.328,
00:00:23:750,-0.393,-0.533,0.35,-100.22,274.597,-144.41,
00:00:23:767,-0.282,-0.753,0.364,-375.611,309.509,-140.076,
00:00:23:783,0.187,-0.095,1.194,-927.735,462.28,302.185,
00:00:23:800,0.157,-0.183,0.975,-67.933,44.128,-83.985,
00:00:23:817,-0.229,-0.935,0.941,278.747,-136.902,-83.191,
00:00:23:833,-0.453,-0.832,0.805,88.745,34.606,65.551,
00:00:23:850,-0.354,-0.655,0.763,-53.162,110.778,-26.734,
00:00:23:867,-0.285,-0.679,0.782,-137.33,65.124,-30.518,
00:00:23:883,-0.336,-0.666,0.83,-180.237,73.425,-17.762,
00:00:23:900,-0.334,-0.585,0.806,-114.075,71.655,-4.517,
00:00:23:917,-0.308,-0.625,0.789,-63.66,54.687,-19.471,
00:00:23:933,-0.232,-0.669,0.756,-203.98,67.26,0.305,
00:00:23:950,-0.23,-0.604,0.763,-250,62.316,3.051,
00:00:23:967,-0.271,-0.582,0.807,-251.038,50.842,-1.465,
00:00:23:983,-0.293,-0.551,0.827,-218.323,46.569,22.522,
00:00:24:0,-0.295,-0.562,0.817,-144.165,29.113,17.883,
00:00:24:17,-0.297,-0.608,0.784,-140.503,31.311,29.846,
00:00:24:33,-0.295,-0.527,0.827,-137.085,43.823,60.424,
00:00:24:50,-0.274,-0.552,0.803,-59.144,29.113,49.865,
00:00:24:67,-0.291,-0.547,0.759,-81.116,43.151,73.486,
00:00:24:83,-0.293,-0.706,0.68,-140.442,65.551,13.549,
00:00:24:100,-0.274,-0.655,0.54,-309.51,184.326,89.172,
00:00:24:117,-0.242,-0.515,0.307,-474.366,308.044,94.848,
00:00:24:133,-0.045,0.512,0.487,-587.708,490.173,465.942,
00:00:24:150,-0.104,-1.277,0.769,868.164,-33.204,18.981,
00:00:24:167,-0.424,-1.357,0.682,49.072,158.813,200.317,
00:00:24:183,-0.451,-0.553,0.81,-775.33,625.122,403.93,
00:00:24:200,-0.021,-0.045,0.623,-328.064,515.686,301.147,
00:00:24:217,0.015,-0.714,0.811,319.336,195.129,133.789,
00:00:24:233,0.009,-1.1,1.651,-48.645,381.469,160.583,
00:00:24:250,0.04,-0.126,3.44,314.209,-268.799,321.838,
00:00:24:267,-0.873,-2.603,1.039,535.766,-714.234,-447.632,
00:00:24:283,-0.888,-0.345,0.505,-1632.142,908.203,207.763,
00:00:24:300,0.283,0.515,0.785,-493.287,452.514,139.465,
00:00:24:317,0.406,-0.679,1.118,270.507,-137.146,-182.068,
00:00:24:333,-0.149,-0.677,1.08,173.339,-94.666,2.99,
00:00:24:350,-0.23,-0.558,0.84,246.338,-7.264,-39.368,
00:00:24:367,-0.08,-0.59,0.791,380.188,-2.625,-16.785,
00:00:24:383,-0.064,-0.65,0.831,530.212,-75.806,-53.284,
00:00:24:400,-0.039,-0.761,0.824,536.01,-124.939,-74.891,
00:00:24:417,-0.067,-0.844,0.751,353.881,-175.354,-101.99,
00:00:24:433,-0.111,-0.755,0.803,143.127,-140.442,-85.511,
00:00:24:450,-0.112,-0.723,0.897,122.558,-180.909,-134.644,
00:00:24:467,-0.151,-0.806,0.956,259.094,-293.152,-185.852,
00:00:24:483,-0.219,-0.816,0.916,341.613,-359.559,-211.976,
00:00:24:500,-0.289,-0.811,0.867,343.628,-404.664,-235.535,
00:00:24:517,-0.339,-0.831,0.793,272.155,-407.898,-269.715,
00:00:24:533,-0.364,-0.801,0.728,136.963,-365.418,-281.25,
00:00:24:550,-0.366,-0.707,0.645,27.282,-288.758,-295.96,
00:00:24:567,-0.337,-0.625,0.606,-7.996,-235.596,-304.566,
00:00:24:583,-0.321,-0.598,0.558,17.761,-198.67,-299.683,
00:00:24:600,-0.324,-0.566,0.514,36.56,-145.691,-262.696,
00:00:24:617,-0.304,-0.55,0.512,56.396,-95.887,-242.188,
00:00:24:633,-0.286,-0.534,0.444,76.477,-47.059,-203.919,
00:00:24:650,-0.313,-0.641,0.323,-17.762,18.493,-206.665,
00:00:24:667,-0.322,-0.658,0.288,-203.431,158.142,-146.241,
00:00:24:683,-0.294,-0.579,0.267,-260.865,274.658,-98.145,
00:00:24:700,-0.286,-0.598,0.288,-262.757,362.548,-116.7,
00:00:24:717,-0.157,-0.713,0.543,-423.89,396.484,-84.168,
00:00:24:733,0.104,-0.203,1.041,-471.07,388.122,87.524,
00:00:24:750,-0.152,-0.43,0.868,-96.741,83.74,-41.077,
00:00:24:767,-0.329,-0.698,0.924,47.302,14.831,62.744,
00:00:24:783,-0.26,-0.726,0.908,-70.008,106.994,31.738,
00:00:24:800,-0.2,-0.681,0.86,-156.434,80.688,51.086,
00:00:24:817,-0.304,-0.696,0.871,-183.594,58.96,42.297,
00:00:24:833,-0.349,-0.626,0.898,-249.268,129.577,44.921,
00:00:24:850,-0.266,-0.573,0.886,-184.693,128.173,42.419,
00:00:24:867,-0.223,-0.71,0.84,-94.3,71.472,8.544,
00:00:24:883,-0.279,-0.75,0.774,-145.508,74.096,-5.738,
00:00:24:900,-0.28,-0.769,0.724,-284.546,117.248,-17.64,
00:00:24:917,-0.235,-0.675,0.727,-452.149,217.224,-1.648,
00:00:24:933,-0.177,-0.513,0.534,-439.27,240.295,5.004,
00:00:24:950,-0.183,-0.308,0.728,-262.391,236.572,61.706,
00:00:24:967,-0.146,-0.291,0.652,44.067,191.162,53.466,
00:00:24:983,-0.179,-0.37,0.775,187.255,145.385,109.558,
00:00:25:0,-0.171,-0.664,0.913,224.975,65.795,82.702,
00:00:25:17,-0.217,-0.929,0.969,109.192,49.926,68.481,
00:00:25:33,-0.26,-0.845,0.95,-33.936,91.735,52.856,
00:00:25:50,-0.188,-0.851,0.991,-145.142,66.833,-19.654,
00:00:25:67,-0.227,-0.806,0.985,-267.395,66.528,-55.603,
00:00:25:83,-0.263,-0.458,0.945,-231.385,89.05,-11.048,
00:00:25:100,-0.156,-0.473,0.869,-47.669,10.803,-57.984,
00:00:25:117,-0.218,-0.575,0.828,-75.379,-6.714,-37.903,
00:00:25:133,-0.219,-0.527,0.81,-163.269,47.424,-13.672,
00:00:25:150,-0.167,-0.469,0.814,-138.062,52.795,-0.061,
00:00:25:167,-0.163,-0.526,0.828,-82.642,22.949,-19.349,
00:00:25:183,-0.195,-0.579,0.822,-64.759,13.427,-12.269,
00:00:25:200,-0.2,-0.659,0.833,-92.225,8.728,-20.752,
00:00:25:217,-0.196,-0.654,0.856,-123.108,23.803,-25.818,
00:00:25:233,-0.191,-0.62,0.86,-104.126,1.342,-39.429,
00:00:25:250,-0.195,-0.567,0.861,-115.235,18.676,-45.96,
00:00:25:267,-0.189,-0.501,0.846,-108.765,31.799,-33.631,
00:00:25:283,-0.163,-0.479,0.856,-76.6,31.127,-30.884,
00:00:25:300,-0.159,-0.481,0.856,-31.556,29.541,-24.048,
00:00:25:317,-0.174,-0.533,0.834,-19.776,22.399,-22.522,
00:00:25:333,-0.19,-0.581,0.822,-84.168,38.94,-30.762,
00:00:25:350,-0.19,-0.559,0.807,-145.203,63.232,-29.419,
00:00:25:367,-0.176,-0.502,0.818,-131.287,74.218,-23.255,
00:00:25:383,-0.161,-0.495,0.856,-53.589,57.434,-22.767,
00:00:25:400,-0.179,-0.528,0.862,2.807,38.513,-10.193,
00:00:25:417,-0.184,-0.575,0.871,-12.879,41.565,-19.715,
00:00:25:433,-0.161,-0.58,0.871,-64.27,58.044,-5.982,
00:00:25:450,-0.145,-0.515,0.851,-58.899,65.429,-1.77,
00:00:25:467,-0.141,-0.472,0.808,3.173,56.03,-3.785,
00:00:25:483,-0.145,-0.492,0.792,46.142,58.044,-0.061,
00:00:25:500,-0.172,-0.48,0.785,59.326,69.274,21.301,
00:00:25:517,-0.179,-0.559,0.775,49.987,90.637,29.235,
00:00:25:533,-0.256,-0.738,0.314,-66.773,211.181,19.226,
00:00:25:550,-0.254,-0.082,0.1,-606.202,621.215,324.463,
00:00:25:567,0.079,0.633,0.709,-268.982,602.478,354.065,
00:00:25:583,1.048,0.082,3.999,436.157,106.079,276.245,
00:00:25:600,0.134,-2.828,1.276,1486.267,-1655.884,-350.159,
00:00:25:617,-1.5,-1.282,0.657,-373.841,99.792,140.319,grateLH
00:00:25:633,-0.446,-0.153,0.461,-1039.734,645.202,-260.315,
00:00:25:650,0.475,-0.153,0.839,-543.335,414.917,-18.982,
00:00:25:667,0.34,-0.098,1.047,-64.331,-37.293,15.747,
00:00:25:683,-0.179,-0.354,0.976,246.338,-172.852,-42.237,
00:00:25:700,-0.195,-0.692,0.928,242.981,-83.13,-50.477,
00:00:25:717,-0.062,-0.679,0.894,105.346,5.554,-16.114,
00:00:25:733,-0.005,-0.583,1.007,129.272,-60.303,-40.162,
00:00:25:750,0.081,-0.612,0.991,154.113,-144.532,-63.355,
00:00:25:767,-0.008,-0.474,0.876,157.898,-212.403,-14.954,
00:00:25:783,-0.091,-0.426,0.883,205.749,-257.142,-9.4,
00:00:25:800,-0.127,-0.503,0.948,293.884,-298.035,-4.212,
00:00:25:817,-0.188,-0.566,0.961,432.495,-365.54,15.625,
00:00:25:833,-0.226,-0.652,0.908,541.32,-413.636,-24.598,
00:00:25:850,-0.249,-0.737,0.831,532.226,-415.467,-69.275,
00:00:25:867,-0.274,-0.784,0.849,437.744,-401.123,-120.118,
00:00:25:883,-0.303,-0.817,0.742,292.968,-354.92,-170.472,
00:00:25:900,-0.342,-0.696,0.706,202.514,-288.697,-167.786,
00:00:25:917,-0.309,-0.705,0.698,232.91,-269.715,-250.916,
00:00:25:933,-0.28,-0.799,0.686,243.53,-257.935,-284.913,
00:00:25:950,-0.292,-0.83,0.695,211.914,-256.165,-294.861,
00:00:25:967,-0.285,-0.757,0.689,160.156,-245.972,-282.166,
00:00:25:983,-0.277,-0.663,0.628,116.272,-240.235,-284.729,
00:00:26:0,-0.303,-0.61,0.57,73.181,-227.478,-283.936,
00:00:26:17,-0.338,-0.575,0.53,48.156,-186.89,-270.569,
00:00:26:33,-0.374,-0.565,0.496,44.25,-134.827,-254.456,
00:00:26:50,-0.376,-0.579,0.466,33.508,-57.74,-233.033,
00:00:26:67,-0.376,-0.624,0.434,-8.789,25.878,-201.661,
00:00:26:83,-0.377,-0.61,0.42,-103.028,121.276,-152.344,
00:00:26:100,-0.356,-0.481,0.366,-144.104,298.034,-66.163,
00:00:26:117,-0.117,-0.642,0.734,-418.152,252.197,-82.703,
00:00:26:133,-0.049,-0.321,1.003,-462.037,177.429,79.467,
00:00:26:150,-0.252,-0.669,0.91,26.611,0.976,-89.295,
00:00:26:167,-0.339,-0.757,0.835,83.068,37.414,29.968,
00:00:26:183,-0.279,-0.717,0.728,18.493,68.115,-22.217,
00:00:26:200,-0.306,-0.724,0.667,-183.96,71.533,-26.917,
00:00:26:217,-0.386,-0.706,0.762,-421.875,125.732,-14.954,
00:00:26:233,-0.32,-0.592,0.846,-513.55,185.974,-9.217,
00:00:26:250,-0.246,-0.481,0.88,-369.019,128.112,1.403,
00:00:26:267,-0.283,-0.599,0.836,-151.49,70.19,-12.513,
00:00:26:283,-0.294,-0.664,0.732,-145.142,77.148,10.009,
00:00:26:300,-0.276,-0.534,0.7,-167.115,97.9,15.38,
00:00:26:317,-0.256,-0.49,0.788,-167.664,98.205,28.32,
00:00:26:333,-0.289,-0.444,0.817,-71.045,66.589,22.705,
00:00:26:350,-0.384,-0.545,0.837,46.081,27.404,27.71,
00:00:26:367,-0.386,-0.676,0.856,67.26,12.512,32.531,
00:00:26:383,-0.33,-0.714,0.843,-5.494,13.366,26.794,
00:00:26:400,-0.31,-0.685,0.837,-98.389,34.606,26.611,
00:00:26:417,-0.278,-0.548,0.825,-95.215,49.133,34.301,
00:00:26:433,-0.251,-0.516,0.798,-40.039,39.123,23.803,
00:00:26:450,-0.225,-0.561,0.827,-55.726,46.997,27.893,
00:00:26:467,-0.247,-0.549,0.801,-72.632,54.016,41.381,
00:00:26:483,-0.265,-0.542,0.773,-73.182,64.025,42.236,
00:00:26:500,-0.3,-0.547,0.758,-40.528,65.246,37.902,
00:00:26:517,-0.308,-0.564,0.746,3.479,76.355,43.457,
00:00:26:533,-0.281,-0.555,0.717,-1.648,88.745,62.5,
00:00:26:550,-0.269,-0.65,0.652,-102.539,124.817,74.34,
00:00:26:567,-0.303,-0.665,-0.167,-446.167,346.069,142.028,
00:00:26:583,-0.01,0.881,0.655,-598.938,552.673,626.403,
00:00:26:600,-0.175,-0.327,0.545,740.783,324.279,43.823,
00:00:26:617,-0.084,-0.953,0.797,168.884,452.514,444.519,
00:00:26:633,-0.261,-0.517,0.828,117.797,461.853,392.761,
00:00:26:650,-0.141,-1.077,0.982,-12.818,438.537,352.6,
00:00:26:667,0.415,-2.766,3.711,-287.232,-204.346,704.467,
00:00:26:683,-1.308,-1.46,1.691,134.46,-402.1,-287.781,
00:00:26:700,-0.551,-0.162,0.731,-262.94,240.417,-168.702,
00:00:26:717,0.247,-0.318,0.367,-195.801,114.013,-320.252,
00:00:26:733,0.21,-0.489,0.813,-234.375,80.871,20.629,
00:00:26:750,-0.132,-0.333,1.036,-169.922,28.381,-101.014,
00:00:26:767,-0.061,-0.503,1.025,-109.436,88.989,-99.793,
00:00:26:783,-0.002,-0.511,0.894,-46.509,37.17,-51.636,
00:00:26:800,-0.198,-0.548,0.9,20.69,13.61,-65.43,
00:00:26:817,-0.151,-0.554,0.912,54.26,51.696,-65.857,
00:00:26:833,-0.06,-0.511,0.857,164.795,22.033,-49.744,
00:00:26:850,-0.061,-0.574,0.811,273.132,-50.477,-60.73,
00:00:26:867,-0.058,-0.681,0.875,271.911,-98.206,-65.857,
00:00:26:883,0.003,-0.743,0.902,146.362,-130.555,-77.637,
00:00:26:900,-0.09,-0.612,0.845,76.843,-165.955,-44.861,
00:00:26:917,-0.122,-0.538,0.878,109.13,-186.89,-47.669,
00:00:26:933,-0.111,-0.576,0.963,309.326,-286.744,-62.012,
00:00:26:950,-0.165,-0.697,0.97,448.242,-376.221,-88.44,
00:00:26:967,-0.231,-0.756,0.909,411.621,-406.617,-98.694,
00:00:26:983,-0.269,-0.797,0.789,265.38,-400.513,-133.118,
00:00:27:0,-0.314,-0.792,0.725,90.393,-357.789,-163.086,
00:00:27:17,-0.344,-0.708,0.679,-9.461,-298.34,-191.59,
00:00:27:33,-0.343,-0.623,0.643,-7.508,-235.047,-216.858,
00:00:27:50,-0.334,-0.647,0.626,115.051,-208.863,-259.827,
00:00:27:67,-0.359,-0.742,0.616,215.332,-197.266,-290.528,
00:00:27:83,-0.387,-0.735,0.614,237.671,-142.823,-284.424,
00:00:27:100,-0.392,-0.656,0.563,272.033,-102.051,-269.837,
00:00:27:117,-0.381,-0.594,0.499,325.561,-67.688,-277.222,
00:00:27:133,-0.363,-0.613,0.471,337.951,-28.687,-290.039,
00:00:27:150,-0.345,-0.657,0.488,283.63,9.948,-296.326,
00:00:27:167,-0.347,-0.665,0.544,192.627,51.086,-271.546,
00:00:27:183,-0.357,-0.614,0.624,101.074,79.406,-241.089,
00:00:27:200,-0.351,-0.596,0.577,50.354,103.698,-222.168,
00:00:27:217,-0.356,-0.747,0.446,-63.721,103.759,-221.924,
00:00:27:233,-0.022,-0.611,0.973,-605.164,173.584,-78.186,
00:00:27:250,-0.014,-0.077,0.752,-574.036,129.394,80.993,
00:00:27:267,-0.205,-0.349,0.71,-2.808,8.911,-40.833,
00:00:27:283,-0.281,-0.72,0.666,64.025,72.692,-27.955,
00:00:27:300,-0.289,-0.831,0.75,-138.55,155.639,-0.245,
00:00:27:317,-0.303,-0.862,0.859,-409.119,194.58,-0.672,
00:00:27:333,-0.319,-0.838,0.97,-497.315,174.682,-40.406,
00:00:27:350,-0.343,-0.718,0.965,-505.372,136.291,-12.574,
00:00:27:367,-0.371,-0.413,0.877,-278.138,67.627,36.804,
00:00:27:383,-0.372,-0.369,0.776,78.979,-7.142,3.356,
00:00:27:400,-0.299,-0.535,0.694,142.028,-12.635,-9.339,
00:00:27:417,-0.244,-0.659,0.672,-20.264,9.277,5.432,
00:00:27:433,-0.235,-0.699,0.683,-216.736,47.485,19.226,
00:00:27:450,-0.251,-0.646,0.738,-313.05,70.8,9.826,
00:00:27:467,-0.258,-0.546,0.801,-280.518,81.665,13.183,
00:00:27:483,-0.275,-0.506,0.792,-164.978,60.791,4.699,
00:00:27:500,-0.324,-0.537,0.776,-59.998,44.738,15.808,
00:00:27:517,-0.349,-0.535,0.745,2.502,55.786,27.771,
00:00:27:533,-0.334,-0.541,0.744,34.729,65.734,35.522,
00:00:27:550,-0.299,-0.551,0.679,0.305,90.82,48.706,
00:00:27:567,-0.281,-0.688,0.613,-145.935,130.615,43.762,
00:00:27:583,-0.267,-0.63,0.518,-480.774,272.705,108.764,
00:00:27:600,-0.296,-0.371,0.136,-538.331,441.162,186.462,
00:00:27:617,0.066,0.721,0.872,-577.576,547.485,531.738,
00:00:27:633,-0.12,0.078,0.917,1092.651,319.213,134.033,
00:00:27:650,-0.269,-1.37,0.467,1143.249,112.548,105.529,
00:00:27:667,-0.328,-1.238,0.95,-167.115,466.186,439.941,
00:00:27:683,-0.278,-0.557,0.906,-522.095,659.301,225.708,
00:00:27:700,-0.059,-0.842,0.616,-428.65,518.615,242.981,
00:00:27:717,-0.322,-0.821,2.89,-1165.162,273.254,485.412,
00:00:27:733,-0.179,-1.334,0.191,733.947,-483.399,-235.657,
00:00:27:750,-0.715,0.188,0.343,-239.319,118.835,-141.785,
00:00:27:767,0.407,-0.121,0.601,-149.414,281.311,121.887,
00:00:27:783,0.287,-0.591,0.897,-64.82,-33.081,15.991,
00:00:27:800,-0.247,-0.454,1.125,-2.808,-49.866,-83.741,
00:00:27:817,-0.074,-0.705,0.86,-83.497,49.926,-204.346,
00:00:27:833,-0.103,-0.502,0.917,-67.872,5.31,-200.806,
00:00:27:850,-0.097,-0.558,0.957,-14.71,13.549,-215.699,
00:00:27:867,0.048,-0.532,0.909,118.774,-22.95,-46.387,
00:00:27:883,-0.092,-0.483,0.859,292.663,-78.064,-60.791,
00:00:27:900,-0.116,-0.506,0.845,437.561,-115.54,-51.026,
00:00:27:917,-0.039,-0.778,0.84,386.413,-175.293,-100.892,
00:00:27:933,0.002,-0.842,0.896,142.944,-175.232,-84.473,
00:00:27:950,-0.067,-0.649,0.848,-28.931,-194.336,-41.077,
00:00:27:967,-0.098,-0.548,0.886,-1.099,-226.807,-66.102,
00:00:27:983,-0.122,-0.613,0.978,232.055,-338.013,-102.478,
00:00:28:0,-0.177,-0.696,0.951,382.202,-404.419,-131.043,
00:00:28:17,-0.241,-0.695,0.863,446.533,-428.833,-136.17,
00:00:28:33,-0.31,-0.722,0.795,452.27,-447.693,-164.795,
00:00:28:50,-0.34,-0.743,0.752,377.197,-428.772,-199.28,
00:00:28:67,-0.343,-0.731,0.696,255.127,-375.306,-235.413,
00:00:28:83,-0.334,-0.71,0.651,183.41,-325.745,-266.541,
00:00:28:100,-0.342,-0.688,0.612,189.209,-290.345,-296.021,
00:00:28:117,-0.37,-0.671,0.559,241.821,-246.033,-307.496,
00:00:28:133,-0.392,-0.657,0.496,305.725,-202.637,-317.627,
00:00:28:150,-0.389,-0.699,0.453,318.054,-146.119,-306.885,
00:00:28:167,-0.39,-0.659,0.405,265.319,-63.477,-280.579,
00:00:28:183,-0.391,-0.61,0.38,165.771,4.882,-256.226,
00:00:28:200,-0.388,-0.602,0.374,18.859,93.139,-226.502,
00:00:28:217,-0.381,-0.537,0.373,-68.36,182.617,-166.199,
00:00:28:233,-0.36,-0.505,0.388,-140.809,289.611,-117.31,
00:00:28:250,-0.229,-0.718,0.303,-338.196,305.847,-95.459,
00:00:28:267,0.205,-0.349,1.242,-749.024,314.27,115.722,
00:00:28:283,-0.001,-0.225,0.97,-150.513,37.475,61.584,
00:00:28:300,-0.322,-0.74,0.998,378.601,-106.019,-11.292,
00:00:28:317,-0.404,-0.883,0.817,395.507,-41.993,12.207,
00:00:28:333,-0.374,-0.796,0.691,259.46,16.357,18.31,
00:00:28:350,-0.345,-0.793,0.641,54.87,26.977,-24.659,
00:00:28:367,-0.347,-0.816,0.672,-179.139,93.261,-23.072,
00:00:28:383,-0.331,-0.65,0.742,-335.999,122.924,10.315,
00:00:28:400,-0.319,-0.543,0.794,-270.142,99.792,0.549,
00:00:28:417,-0.303,-0.612,0.808,-144.288,70.922,-2.869,
00:00:28:433,-0.276,-0.633,0.74,-165.345,52.673,14.77,
00:00:28:450,-0.28,-0.7,0.64,-306.214,56.701,20.874,
00:00:28:467,-0.291,-0.742,0.594,-526.49,89.965,38.269,
00:00:28:483,-0.295,-0.666,0.62,-668.58,136.23,47.363,
00:00:28:500,-0.278,-0.614,0.64,-673.462,157.287,34.606,
00:00:28:517,-0.226,-0.519,0.776,-540.162,155.944,46.936,
00:00:28:533,-0.2,-0.444,0.871,-307.129,123.413,69.946,
00:00:28:550,-0.241,-0.506,0.785,-127.076,98.755,70.983,
00:00:28:567,-0.273,-0.535,0.764,-106.69,122.558,98.327,
00:00:28:583,-0.331,-0.861,0.312,-152.222,185.363,51.94,
00:00:28:600,-0.288,-0.258,0.674,-940.796,615.356,438.11,
00:00:28:617,0.081,0.61,1.067,-147.583,409.179,249.694,
00:00:28:633,0.115,-0.593,1.129,677.795,198.852,121.826,
00:00:28:650,-0.097,-1.05,0.873,434.753,130.798,171.081,
00:00:28:667,-0.39,-1.018,0.651,-44.617,241.211,190.796,
00:00:28:683,-0.295,-0.626,1.037,-488.404,514.221,291.137,
00:00:28:700,-0.019,-0.557,0.952,-145.02,358.215,153.808,
00:00:28:717,-0.205,-1.518,1.843,65.856,-118.042,-53.406,
00:00:28:733,-0.893,-1.097,1.054,-156.311,-13.123,-124.573,
00:00:28:750,-0.39,-0.343,0.732,-509.034,350.769,15.991,
00:00:28:767,0.203,-0.142,0.751,-243.409,121.276,-97.962,
00:00:28:783,-0.009,-0.626,0.919,-96.436,-32.593,-60.425,
00:00:28:800,-0.203,-0.423,1.006,-138.977,67.993,-4.395,
00:00:28:817,-0.002,-0.457,0.894,51.513,21.972,-45.777,
00:00:28:833,-0.115,-0.507,0.892,121.887,-13.245,-24.537,
00:00:28:850,-0.16,-0.465,0.896,160.705,11.962,-31.678,
00:00:28:867,-0.108,-0.573,0.893,151.306,6.164,-41.81,
00:00:28:883,-0.116,-0.558,0.842,113.647,20.752,-41.138,
00:00:28:900,-0.133,-0.507,0.828,148.01,13.855,-38.88,
00:00:28:917,-0.114,-0.565,0.828,246.276,-13.062,-52.491,
00:00:28:933,-0.089,-0.61,0.902,259.643,-39.856,-56.641,
00:00:28:950,-0.084,-0.6,0.899,286.193,-78.003,-54.261,
00:00:28:967,-0.099,-0.54,0.867,313.659,-122.864,-25.33,
00:00:28:983,-0.086,-0.596,0.838,325.866,-151.246,-45.411,
00:00:29:0,-0.089,-0.665,0.858,275.329,-183.167,-45.838,
00:00:29:17,-0.131,-0.709,0.915,248.108,-245.667,-61.646,
00:00:29:33,-0.19,-0.776,0.916,222.717,-294.739,-77.271,
00:00:29:50,-0.261,-0.756,0.881,188.049,-305.909,-67.688,
00:00:29:67,-0.295,-0.697,0.841,204.956,-310.12,-88.135,
00:00:29:83,-0.289,-0.692,0.789,267.028,-299.927,-137.757,
00:00:29:100,-0.278,-0.659,0.728,387.024,-290.039,-181.092,
00:00:29:117,-0.3,-0.697,0.689,499.878,-286.499,-244.69,
00:00:29:133,-0.347,-0.768,0.654,517.334,-269.837,-294.068,
00:00:29:150,-0.386,-0.81,0.602,430.786,-219.239,-323.304,
00:00:29:167,-0.401,-0.812,0.555,344.36,-172.669,-327.881,
00:00:29:183,-0.397,-0.8,0.509,238.952,-132.569,-326.783,
00:00:29:200,-0.382,-0.708,0.477,155.7,-75.44,-303.04,
00:00:29:217,-0.36,-0.624,0.476,119.323,-30.518,-295.533,
00:00:29:233,-0.331,-0.615,0.482,108.825,5.127,-300.721,
00:00:29:250,-0.198,-0.922,0.819,-277.894,-56.885,-324.036,
00:00:29:267,-0.094,-0.657,0.54,-1058.411,218.322,-64.209,
00:00:29:283,-0.123,-0.111,0.64,-944.886,210.205,72.57,
00:00:29:300,-0.23,0.052,0.618,-58.228,149.597,71.716,
00:00:29:317,-0.342,-0.394,0.632,651.794,83.068,-78.858,
00:00:29:333,-0.359,-0.834,0.601,636.352,74.035,-88.868,
00:00:29:350,-0.342,-1.194,0.557,65.673,59.448,-51.88,
00:00:29:367,-0.349,-1.262,0.567,-591.248,181.884,-65.613,
00:00:29:383,-0.254,-0.941,0.752,-1132.203,346.496,-72.266,
00:00:29:400,-0.065,-0.212,0.93,-1002.686,295.166,34.973,
00:00:29:417,-0.165,0.032,0.875,-173.706,14.892,25.146,
00:00:29:433,-0.347,-0.51,0.775,292.053,-84.778,-75.44,
00:00:29:450,-0.313,-0.732,0.693,158.813,-0.855,-0.672,
00:00:29:467,-0.3,-0.594,0.62,-46.875,61.767,36.865,
00:00:29:483,-0.316,-0.645,0.633,-137.452,69.336,9.46,
00:00:29:500,-0.313,-0.774,0.682,-320.557,117.37,3.784,
00:00:29:517,-0.302,-0.541,0.77,-407.532,204.773,63.659,
00:00:29:533,-0.229,-0.408,0.724,-240.296,211.731,71.289,
00:00:29:550,-0.131,-0.254,0.737,-177.369,245.788,169.922,
00:00:29:567,-0.206,-0.389,0.657,137.085,205.139,121.826,
00:00:29:583,-0.195,-0.481,0.567,33.508,288.208,252.99,
00:00:29:600,-0.198,-0.512,0.661,2.38,295.959,214.233,
00:00:29:617,-0.194,-0.669,0.871,-122.498,280.639,254.455,
00:00:29:633,-0.144,-0.714,0.818,-174.866,335.998,215.515,grateLH
00:00:29:650,-0.185,-0.669,0.84,-205.506,316.833,223.144,
00:00:29:667,-0.129,-0.546,1.129,-115.784,240.844,207.641,
00:00:29:683,-0.182,-0.793,0.851,-9.766,187.866,165.649,
00:00:29:700,0.01,-0.743,1.181,-182.435,226.318,163.513,
00:00:29:717,-0.123,-1.284,2.394,-570.374,-11.902,290.771,
00:00:29:733,-0.814,-1.214,1.11,-207.276,-282.593,-134.766,
00:00:29:750,-0.376,-0.219,0.766,-735.84,463.928,-243.226,
00:00:29:767,0.346,-0.055,0.607,-156.739,0,-27.222,
00:00:29:783,-0.152,-0.539,0.788,-110.352,-65.369,-84.229,
00:00:29:800,-0.174,-0.343,0.841,-174.439,99.548,-24.17,
00:00:29:817,-0.021,-0.456,0.853,39.184,32.348,-21.119,
00:00:29:833,-0.163,-0.459,0.889,169.25,20.568,-22.339,
00:00:29:850,-0.154,-0.527,0.883,257.385,19.836,-27.466,
00:00:29:867,-0.13,-0.629,0.888,226.501,8.911,-34.546,
00:00:29:883,-0.117,-0.579,0.831,196.96,9.399,-12.085,
00:00:29:900,-0.101,-0.554,0.8,270.996,-29.664,-25.208,
00:00:29:917,-0.08,-0.646,0.841,283.935,-73.426,-35.767,
00:00:29:933,-0.054,-0.644,0.891,226.989,-94.91,-25.208,
00:00:29:950,-0.077,-0.538,0.873,229.309,-125.855,4.638,
00:00:29:967,-0.113,-0.55,0.897,306.701,-168.091,2.075,
00:00:29:983,-0.096,-0.49,0.957,479.065,-211.853,24.108,
00:00:30:0,-0.122,-0.598,0.957,654.602,-297.181,-18.128,
00:00:30:17,-0.158,-0.818,0.868,592.712,-344.849,-55.542,
00:00:30:33,-0.222,-0.912,0.796,371.704,-348.267,-68.543,
00:00:30:50,-0.309,-0.886,0.782,126.526,-324.769,-74.524,
00:00:30:67,-0.362,-0.793,0.763,-45.105,-281.861,-95.276,
00:00:30:83,-0.346,-0.7,0.733,-69.275,-257.874,-129.883,
00:00:30:100,-0.328,-0.677,0.71,1.709,-252.503,-162.781,
00:00:30:117,-0.335,-0.672,0.688,105.468,-239.014,-190.979,
00:00:30:133,-0.36,-0.706,0.653,203.735,-224.244,-223.267,
00:00:30:150,-0.37,-0.739,0.62,256.469,-193.36,-246.094,
00:00:30:167,-0.369,-0.749,0.574,260.315,-150.513,-263.794,
00:00:30:183,-0.354,-0.702,0.521,227.356,-101.807,-269.776,
00:00:30:200,-0.341,-0.671,0.496,192.199,-60.852,-277.405,
00:00:30:217,-0.329,-0.64,0.483,161.621,-14.283,-273.438,
00:00:30:233,-0.316,-0.64,0.507,135.803,17.089,-262.452,
00:00:30:250,-0.299,-0.695,0.557,41.442,57.678,-254.944,
00:00:30:267,-0.251,-0.761,0.677,-148.987,90.148,-230.225,
00:00:30:283,-0.103,-0.954,0.649,-679.383,125.061,-178.772,
00:00:30:300,-0.118,-0.383,0.706,-833.374,239.074,88.317,
00:00:30:317,-0.225,-0.119,0.697,-225.22,95.52,4.638,
00:00:30:333,-0.293,-0.528,0.763,196.533,25.451,-121.827,
00:00:30:350,-0.24,-0.803,0.867,-4.029,46.936,-60.12,
00:00:30:367,-0.275,-0.782,0.762,-244.629,61.889,-23.926,
00:00:30:383,-0.377,-0.757,0.71,-317.322,40.832,-29.358,
00:00:30:400,-0.394,-0.656,0.659,-354.615,87.524,-19.776,
00:00:30:417,-0.325,-0.463,0.669,-232.85,87.402,-0.306,
00:00:30:433,-0.283,-0.5,0.741,-12.391,38.94,-6.409,
00:00:30:450,-0.279,-0.64,0.753,62.439,23.071,-8.24,
00:00:30:467,-0.293,-0.756,0.761,-68.177,27.832,-8.789,
00:00:30:483,-0.282,-0.725,0.793,-239.136,43.273,1.892,
00:00:30:500,-0.305,-0.636,0.803,-218.873,21.606,-5.249,
00:00:30:517,-0.334,-0.649,0.775,-176.27,14.953,-28.504,
00:00:30:533,-0.341,-0.625,0.77,-176.087,10.376,-26.612,
00:00:30:550,-0.336,-0.552,0.758,-148.499,5.493,-7.63,
00:00:30:567,-0.319,-0.521,0.76,-100.098,6.836,-4.395,
00:00:30:583,-0.293,-0.509,0.776,-68.604,13.794,-0.733,
00:00:30:600,-0.287,-0.471,0.819,-34.058,25.573,20.446,
00:00:30:617,-0.293,-0.529,0.788,-6.714,46.569,26.733,
00:00:30:633,-0.278,-0.579,0.774,-2.32,65.856,29.907,
00:00:30:650,-0.275,-0.561,0.74,-23.011,96.313,56.701,
00:00:30:667,-0.293,-0.645,0.751,-29.725,95.214,14.526,
00:00:30:683,-0.315,-0.704,0.764,-45.105,92.834,10.925,
00:00:30:700,-0.328,-0.664,0.776,-45.96,79.04,3.967,
00:00:30:717,-0.323,-0.703,0.831,-100.525,75.195,-11.292,
00:00:30:733,-0.289,-0.575,0.877,-138.123,67.443,17.883,
00:00:30:750,-0.286,-0.546,0.859,-59.937,49.804,15.014,
00:00:30:767,-0.255,-0.58,0.82,-3.602,47.302,16.479,
00:00:30:783,-0.244,-0.598,0.783,-18.799,51.086,14.77,
00:00:30:800,-0.252,-0.604,0.772,-83.435,64.148,16.418,
00:00:30:817,-0.261,-0.584,0.758,-126.221,76.965,18.005,
00:00:30:833,-0.274,-0.562,0.746,-130.738,85.083,27.038,
00:00:30:850,-0.268,-0.52,0.748,-119.507,105.407,41.259,
00:00:30:867,-0.238,-0.49,0.808,-46.998,104.492,48.217,
00:00:30:883,-0.265,-0.585,0.793,22.522,94.97,48.461,
00:00:30:900,-0.288,-0.718,0.71,-107.056,125.671,55.297,
00:00:30:917,-0.352,-0.86,0.476,-337.769,205.505,72.448,
00:00:30:933,-0.287,-0.111,0.139,-781.067,563.171,408.081,
00:00:30:950,0.061,0.909,0.5,-507.691,603.881,439.819,
00:00:30:967,-0.172,-0.164,0.611,757.141,490.539,150.085,
00:00:30:983,-0.061,-1.196,0.248,557.617,526.855,294.555,
00:00:31:0,0.603,-0.801,0.729,-308.411,850.158,645.691,
00:00:31:17,-0.411,-2.588,1.385,894.897,-598.633,-487.671,
00:00:31:33,-1.42,-0.853,0.952,-109.131,-196.839,-214.478,
00:00:31:50,-0.262,-0.149,0.414,-561.951,383.972,-145.935,
00:00:31:67,0.307,-0.142,0.473,-262.085,45.715,-187.012,
00:00:31:83,-0.028,-0.39,0.984,-299.866,60.485,-77.454,
00:00:31:100,-0.051,-0.242,1.171,-213.44,124.084,-51.27,
00:00:31:117,0.154,-0.335,1.067,79.65,35.339,-44.678,
00:00:31:133,-0.009,-0.451,0.896,289.795,-55.909,-25.696,
00:00:31:150,-0.146,-0.575,0.877,310.363,-52.369,-47.242,
00:00:31:167,-0.121,-0.597,0.89,300.171,-33.753,-47.181,
00:00:31:183,-0.074,-0.611,0.845,337.402,-100.586,-36.927,
00:00:31:200,-0.051,-0.749,0.854,357.177,-179.932,-71.9,
00:00:31:217,-0.02,-0.782,0.861,221.496,-216.187,-73.731,
00:00:31:233,-0.09,-0.655,0.831,124.389,-251.648,-57.618,
00:00:31:250,-0.114,-0.547,0.894,152.282,-289.734,-39.917,
00:00:31:267,-0.126,-0.634,0.936,327.026,-377.564,-73.67,
00:00:31:283,-0.187,-0.714,0.922,470.703,-427.857,-80.445,
00:00:31:300,-0.27,-0.721,0.887,555.969,-458.985,-88.44,
00:00:31:317,-0.327,-0.808,0.803,551.88,-460.328,-124.512,
00:00:31:333,-0.362,-0.855,0.687,410.705,-405.152,-176.819,
00:00:31:350,-0.358,-0.786,0.557,267.822,-321.595,-247.071,
00:00:31:367,-0.361,-0.724,0.492,168.64,-249.634,-285.157,
00:00:31:383,-0.375,-0.702,0.501,101.623,-195.191,-311.951,
00:00:31:400,-0.395,-0.719,0.555,53.1,-147.034,-314.148,
00:00:31:417,-0.397,-0.715,0.582,83.618,-118.775,-318.116,
00:00:31:433,-0.387,-0.738,0.587,54.931,-90.332,-318.848,
00:00:31:450,-0.36,-0.611,0.481,142.639,-62.561,-284.18,
00:00:31:467,-0.365,-0.549,0.38,169.372,-15.992,-264.466,
00:00:31:483,-0.322,-0.472,0.387,73.12,35.766,-232.361,
00:00:31:500,-0.328,-0.501,0.378,-123.475,140.747,-200.013,
00:00:31:517,-0.35,-0.499,0.362,-369.568,273.803,-140.809,
00:00:31:533,-0.169,-0.675,0.379,-596.924,362.243,-93.995,
00:00:31:550,-0.078,-0.43,0.504,-1119.996,419.86,104.675,
00:00:31:567,-0.092,-0.214,0.924,-1145.203,364.868,102.844,
00:00:31:583,-0.096,-0.34,1.174,-497.437,218.567,19.897,
00:00:31:600,-0.137,-0.785,1.186,-94.971,121.643,-43.091,
00:00:31:617,-0.188,-0.762,1.039,-0.794,83.557,30.395,
00:00:31:633,-0.32,-0.724,0.859,28.503,45.715,-42.786,
00:00:31:650,-0.307,-0.801,0.959,-113.221,24.353,-71.412,
00:00:31:667,-0.331,-0.659,0.972,-133.606,32.775,-89.478,
00:00:31:683,-0.377,-0.579,0.899,-6.226,-28.748,-96.009,
00:00:31:700,-0.37,-0.53,0.828,32.226,-43.946,-70.313,
00:00:31:717,-0.328,-0.492,0.882,37.17,-54.688,-48.218,
00:00:31:733,-0.309,-0.525,0.724,-43.58,-49.012,-17.518,
00:00:31:750,-0.369,-0.463,0.74,-23.987,-7.203,11.779,
00:00:31:767,-0.33,-0.551,0.679,18.554,26.855,-16.297,
00:00:31:783,-0.286,-0.535,0.598,-31.311,101.562,13.794,
00:00:31:800,-0.307,-0.441,0.604,96.313,156.25,6.652,
00:00:31:817,-0.264,-0.617,0.612,203.613,101.135,-16.846,
00:00:31:833,-0.314,-0.665,0.647,-7.203,160.4,61.523,
00:00:31:850,-0.327,-0.578,0.744,-41.993,174.682,50.537,
00:00:31:867,-0.289,-0.649,0.734,-6.836,144.287,49.865,
00:00:31:883,-0.313,-0.713,0.749,-5.249,137.024,54.138,
00:00:31:900,-0.304,-0.695,0.723,-27.588,183.471,43.945,
00:00:31:917,-0.269,-0.504,0.74,36.315,212.707,86.914,
00:00:31:933,-0.251,-0.613,0.668,139.77,184.997,27.465,
00:00:31:950,-0.303,-0.608,0.179,-57.19,331.97,102.661,
00:00:31:967,-0.178,0.167,0.691,-165.589,425.903,363.281,
00:00:31:983,-0.176,-0.555,0.856,534.179,204.895,-20.935,
00:00:32:0,-0.194,-0.712,0.941,539.489,222.351,225.158,
00:00:32:17,-0.178,-0.97,1.032,526.428,65.002,-6.897,
00:00:32:33,-0.246,-1.35,0.882,209.533,39.794,32.959,
00:00:32:50,-0.359,-0.934,0.815,-375.794,268.859,42.602,
00:00:32:67,-0.163,-0.604,0.805,-278.687,213.867,-48.035,
00:00:32:83,-0.172,-0.667,0.826,-135.01,156.25,-54.322,
00:00:32:100,-0.229,-0.503,0.777,-63.416,190.307,-36.744,
00:00:32:117,-0.184,-0.352,0.418,58.776,268.066,76.416,
00:00:32:133,-0.083,-0.28,0.582,-89.6,344.665,130.859,
00:00:32:150,0.087,-0.481,1.538,-408.997,253.418,24.475,
00:00:32:167,0.022,-1.59,1.202,256.225,-32.837,-345.704,
00:00:32:183,-0.182,0.096,0.902,45.837,-75.867,346.74,
00:00:32:200,-0.236,-0.625,0.535,346.679,-198.853,-324.83,
00:00:32:217,-0.139,-0.99,0.632,-176.209,20.263,-22.828,
00:00:32:233,-0.102,-0.515,0.868,-447.144,122.619,-27.894,
00:00:32:250,-0.062,-0.491,0.907,-183.411,43.518,-63.233,
00:00:32:267,-0.115,-0.594,0.887,-26.612,-4.517,-81.36,
00:00:32:283,-0.12,-0.624,0.886,47.058,-5.982,-62.928,
00:00:32:300,-0.103,-0.578,0.884,182.19,-40.039,-71.106,
00:00:32:317,-0.036,-0.703,1.03,192.505,-117.92,-103.394,
00:00:32:333,-0.012,-0.593,0.937,187.866,-159.974,-47.059,
00:00:32:350,-0.076,-0.493,0.889,270.446,-225.708,-36.56,
00:00:32:367,-0.094,-0.629,0.854,351.867,-259.644,-54.139,
00:00:32:383,-0.086,-0.693,0.827,301.086,-263.428,-43.091,
00:00:32:400,-0.105,-0.774,0.756,177.246,-270.142,-57.862,
00:00:32:417,-0.187,-0.805,0.801,24.963,-286.622,-60.486,
00:00:32:433,-0.23,-0.76,0.853,-50.049,-297.425,-63.05,
00:00:32:450,-0.267,-0.76,0.822,-27.1,-344.544,-86.426,
00:00:32:467,-0.363,-0.743,0.765,9.155,-365.113,-79.773,
00:00:32:483,-0.404,-0.718,0.71,41.503,-357.361,-123.536,
00:00:32:500,-0.404,-0.742,0.679,8.178,-331.36,-145.691,
00:00:32:517,-0.399,-0.765,0.638,-90.088,-266.297,-192.2,
00:00:32:533,-0.392,-0.738,0.634,-193.482,-225.708,-225.281,
00:00:32:550,-0.346,-0.706,0.601,-234.436,-182.801,-256.775,
00:00:32:567,-0.367,-0.65,0.563,-207.764,-141.541,-268.494,
00:00:32:583,-0.404,-0.626,0.518,-126.709,-106.507,-268.555,
00:00:32:600,-0.417,-0.638,0.521,-60.975,-69.214,-262.818,
00:00:32:617,-0.382,-0.56,0.513,-67.627,-0.489,-246.582,
00:00:32:633,-0.362,-0.486,0.502,-49.195,34.362,-218.689,
00:00:32:650,-0.367,-0.545,0.535,-49.805,59.631,-198.06,
00:00:32:667,-0.163,-0.695,0.667,-282.532,97.412,-124.939,
00:00:32:683,-0.006,-0.02,0.637,-504.822,196.35,148.925,
00:00:32:700,-0.17,-0.273,0.737,29.419,17.395,-32.227,
00:00:32:717,-0.218,-0.715,0.826,165.893,28.076,24.719,
00:00:32:733,-0.249,-0.747,0.827,122.558,44.616,6.713,
00:00:32:750,-0.302,-0.738,0.739,46.386,41.076,5.737,
00:00:32:767,-0.331,-0.785,0.707,-113.953,51.879,-21.79,
00:00:32:783,-0.36,-0.729,0.709,-237.732,77.392,-26.612,
00:00:32:800,-0.388,-0.585,0.697,-211.731,91.735,-11.719,
00:00:32:817,-0.355,-0.5,0.686,-123.169,109.314,-17.212,
00:00:32:833,-0.309,-0.625,0.668,-101.868,122.802,-27.955,
00:00:32:850,-0.292,-0.571,0.616,-152.222,177.002,6.103,
00:00:32:867,-0.279,-0.539,0.532,-345.887,266.357,56.091,
00:00:32:883,-0.258,-0.241,0.538,-322.571,305.725,110.901,
00:00:32:900,-0.233,-0.128,0.663,-100.586,303.955,174.377,
00:00:32:917,-0.089,-0.202,1.033,342.834,158.508,152.588,
00:00:32:933,-0.302,-1.087,1.136,392.395,-5.677,84.838,
00:00:32:950,-0.42,-1.234,0.924,120.3,22.033,126.648,
00:00:32:967,-0.478,-0.965,0.744,-124.207,122.07,79.284,
00:00:32:983,-0.301,-0.45,0.496,-305.054,269.775,122.497,
00:00:33:0,-0.046,-0.041,0.853,-269.959,242.309,65.673,
00:00:33:17,-0.089,-0.472,1.16,58.654,112.121,82.092,
00:00:33:33,-0.247,-0.721,1.117,86.792,83.435,103.637,
00:00:33:50,-0.217,-0.689,1.038,111.45,29.296,71.96,
00:00:33:67,-0.287,-0.811,0.847,88.623,8.911,70.373,
00:00:33:83,-0.303,-0.701,0.797,-31.067,44.006,26.245,
00:00:33:100,-0.216,-0.677,0.776,-123.536,71.533,-2.625,
00:00:33:117,-0.201,-0.591,0.811,-180.115,88.073,10.315,
00:00:33:133,-0.181,-0.538,0.796,-160.828,97.534,11.474,
00:00:33:150,-0.183,-0.54,0.807,-143.067,101.074,29.602,
00:00:33:167,-0.197,-0.555,0.775,-130.738,115.966,48.034,
00:00:33:183,-0.174,-0.579,0.767,-163.88,132.873,56.396,
00:00:33:200,-0.188,-0.562,0.703,-170.716,162.597,88.562,
00:00:33:217,-0.231,-0.542,0.661,-116.761,216.064,151.916,
00:00:33:233,-0.339,-0.115,-0.145,-382.813,440.796,372.863,
00:00:33:250,-0.061,-0.667,1.546,197.509,53.161,-412.171,
00:00:33:267,-0.14,-1.561,1.321,-47.364,57.373,101.318,
00:00:33:283,-0.288,-0.165,0.957,-197.937,46.63,-21.058,
00:00:33:300,-0.326,-0.51,0.792,84.106,-34.424,-114.563,
00:00:33:317,-0.039,-0.277,0.878,19.836,53.466,-35.401,
00:00:33:334,-0.045,-0.465,0.921,235.29,-7.874,-36.377,
00:00:33:350,-0.069,-0.67,0.883,302.429,-41.321,-34.363,
00:00:33:367,-0.103,-0.724,0.857,281.677,-70.13,-24.964,
00:00:33:384,-0.134,-0.726,0.807,295.044,-103.272,-34.852,
00:00:33:400,-0.092,-0.696,0.839,296.814,-158.143,-38.697,
00:00:33:417,-0.02,-0.695,0.996,182.067,-229.187,-43.03,
00:00:33:434,-0.122,-0.57,0.898,190.246,-308.96,-0.123,
00:00:33:450,-0.212,-0.532,0.895,291.015,-356.324,-5.188,
00:00:33:467,-0.229,-0.632,0.899,443.054,-402.771,-43.396,
00:00:33:484,-0.321,-0.751,0.867,470.398,-428.101,-75.44,
00:00:33:500,-0.371,-0.859,0.818,343.689,-403.931,-150.94,
00:00:33:517,-0.369,-0.867,0.751,139.038,-352.601,-204.712,
00:00:33:534,-0.418,-0.694,0.668,-8.667,-275.391,-278.748,
00:00:33:550,-0.421,-0.665,0.634,38.024,-247.193,-308.228,
00:00:33:567,-0.429,-0.655,0.611,67.26,-206.665,-323.731,
00:00:33:584,-0.406,-0.641,0.593,95.703,-153.321,-341.675,
00:00:33:600,-0.388,-0.63,0.561,109.619,-114.563,-347.596,
00:00:33:617,-0.368,-0.613,0.526,111.267,-72.205,-339.112,
00:00:33:634,-0.366,-0.584,0.479,124.206,-29.908,-317.505,
00:00:33:650,-0.372,-0.59,0.455,113.342,27.587,-296.814,
00:00:33:667,-0.371,-0.578,0.417,83.618,96.13,-258.728,grateLH
00:00:33:684,-0.254,-0.737,0.637,-306.336,89.416,-216.675,
00:00:33:700,-0.122,-0.579,0.645,-821.289,222.9,-50.843,
00:00:33:717,-0.137,0.147,0.688,-515.198,163.33,89.416,
00:00:33:734,-0.254,-0.313,0.826,71.899,47.79,-36.377,
00:00:33:750,-0.315,-0.745,0.92,71.533,99.121,-22.583,
00:00:33:767,-0.399,-0.652,0.814,117.187,154.724,-1.465,
00:00:33:784,-0.485,-0.825,0.674,267.212,162.231,-89.478,
00:00:33:800,-0.472,-0.977,0.616,65.979,219.604,-109.375,
00:00:33:817,-0.307,-0.67,0.702,-206.849,244.079,-66.163,
00:00:33:834,-0.244,-0.346,0.71,-271.363,190.551,-4.029,
00:00:33:850,-0.226,-0.622,0.552,75.317,100.341,72.204,
00:00:33:867,-0.378,-0.62,0.014,-111.084,290.344,234.314,
00:00:33:884,-0.235,-0.078,0.061,-500.489,515.075,349.182,
00:00:33:900,0.066,0.053,0.513,-206.788,552.734,218.872,
00:00:33:917,-0.004,-0.558,0.762,143.982,525.085,319.03,
00:00:33:934,-0.231,-1.324,0.868,424.621,303.711,264.831,
00:00:33:950,-0.138,-1.197,1.01,-189.637,498.291,349.304,
00:00:33:967,0.188,-1.753,3.646,-1098.328,-51.758,-133.057,
00:00:33:984,-0.499,-1.641,1.804,-60.364,-285.401,-51.026,
00:00:34:0,-0.614,-0.017,0.999,1.77,-95.215,90.087,
00:00:34:17,-0.221,-0.112,0.461,333.984,-185.852,-190.552,
00:00:34:34,-0.171,-0.527,0.461,9.948,-28.687,-118.164,
00:00:34:50,-0.113,-0.407,0.734,-279.175,137.329,-33.143,
00:00:34:67,-0.076,-0.528,0.875,-192.994,123.596,-45.166,
00:00:34:84,-0.15,-0.651,0.903,-59.998,85.571,-53.956,
00:00:34:100,-0.2,-0.705,0.837,44.128,54.016,-38.758,
00:00:34:117,-0.207,-0.732,0.805,80.078,23.62,-43.152,
00:00:34:134,-0.205,-0.65,0.759,45.654,32.47,-24.537,
00:00:34:150,-0.158,-0.642,0.756,25.756,32.226,-44.007,
00:00:34:167,-0.123,-0.625,0.759,35.278,25.94,-42.725,
00:00:34:184,-0.154,-0.658,0.801,51.757,-17.456,-38.819,
00:00:34:200,-0.15,-0.762,0.927,-28.626,-39.49,-46.387,
00:00:34:217,-0.092,-0.502,0.889,-1.893,-39.185,23.254,
00:00:34:234,-0.104,-0.481,0.869,173.278,-120.484,-0.489,
00:00:34:250,-0.149,-0.632,0.841,261.413,-141.541,1.403,
00:00:34:267,-0.142,-0.716,0.82,181.518,-135.621,-1.16,
00:00:34:284,-0.108,-0.756,0.814,52.612,-129.09,-10.315,
00:00:34:300,-0.123,-0.727,0.802,-54.261,-155.64,-17.64,
00:00:34:317,-0.195,-0.688,0.838,-83.68,-161.255,-21.058,
00:00:34:334,-0.228,-0.665,0.916,-67.322,-188.233,-34.974,
00:00:34:350,-0.229,-0.664,0.912,-7.203,-226.746,-41.443,
00:00:34:367,-0.265,-0.658,0.88,77.392,-271.851,-46.875,
00:00:34:384,-0.298,-0.688,0.83,118.347,-295.777,-64.82,
00:00:34:400,-0.336,-0.684,0.775,133.239,-300.049,-81.543,
00:00:34:417,-0.376,-0.696,0.715,130.188,-288.453,-108.399,
00:00:34:434,-0.387,-0.718,0.68,135.07,-270.63,-153.565,
00:00:34:450,-0.397,-0.716,0.659,134.033,-258.301,-177.552,
00:00:34:467,-0.424,-0.679,0.634,171.02,-199.036,-274.659,
00:00:34:484,-0.422,-0.679,0.596,212.097,-168.213,-284.852,
00:00:34:500,-0.397,-0.649,0.562,248.657,-142.334,-293.03,
00:00:34:517,-0.377,-0.649,0.526,259.155,-102.662,-296.509,
00:00:34:534,-0.37,-0.701,0.44,153.869,-61.829,-300.782,
00:00:34:550,-0.202,-0.948,0.585,-395.63,1.037,-304.444,
00:00:34:567,-0.163,-0.555,0.457,-1017.273,211.853,-79.773,
00:00:34:584,-0.215,-0.117,0.514,-822.083,208.191,-39.795,
00:00:34:600,-0.144,-0.032,0.657,-249.329,174.987,-5.616,
00:00:34:617,-0.21,-0.389,0.798,133.545,58.288,-40.589,
00:00:34:634,-0.35,-0.725,0.809,171.569,35.461,5.188,
00:00:34:650,-0.431,-0.842,0.713,61.218,46.081,19.592,
00:00:34:667,-0.41,-0.856,0.613,-110.962,74.585,-1.404,
00:00:34:684,-0.376,-0.805,0.607,-335.328,101.196,-6.958,
00:00:34:700,-0.362,-0.592,0.726,-387.452,104.919,-7.447,
00:00:34:717,-0.375,-0.383,0.817,-230.103,63.537,10.803,
00:00:34:734,-0.365,-0.386,0.819,-11.536,11.901,20.813,
00:00:34:750,-0.36,-0.53,0.781,97.595,-15.137,38.269,
00:00:34:767,-0.365,-0.641,0.75,43.823,-15.686,33.813,
00:00:34:784,-0.346,-0.708,0.745,-77.942,10.803,23.62,
00:00:34:800,-0.336,-0.638,0.731,-97.535,11.291,23.742,
00:00:34:817,-0.365,-0.592,0.73,-65.796,8.117,19.409,
00:00:34:834,-0.362,-0.592,0.742,-59.937,22.705,11.84,
00:00:34:850,-0.346,-0.581,0.753,-52.185,37.536,10.986,
00:00:34:867,-0.346,-0.582,0.78,-35.035,43.884,18.249,
00:00:34:884,-0.344,-0.605,0.823,-39.429,50.537,18.31,
00:00:34:900,-0.329,-0.641,0.848,-49.744,51.208,13.732,
00:00:34:917,-0.315,-0.627,0.842,-68.238,47.18,18.981,
00:00:34:934,-0.342,-0.612,0.809,-63.355,38.269,14.099,
00:00:34:950,-0.356,-0.635,0.765,-91.004,54.992,5.004,
00:00:34:967,-0.345,-0.607,0.762,-138.367,69.885,-4.09,
