TIMECODE,ACC_X,ACC_Y,ACC_Z,GYR_X,GYR_Y,GYR_Z,ECG_I,ECG_II,ECG_III,TAG
,0.97,0.087,-0.036,15.808,6.652,4.272,0,0,0,
,0.962,0.094,-0.036,20.446,0.549,11.535,0,0,0,
,0.96,0.096,-0.041,30.334,2.38,12.512,0,0,0,
,0.972,0.092,-0.041,37.78,-1.77,12.634,0,0,0,
,0.976,0.089,-0.034,37.353,-11.78,12.512,0,0,0,
,0.971,0.08,-0.036,44.494,-19.898,8.483,0,0,0,
,0.972,0.078,-0.038,37.536,-20.752,6.774,0,0,0,
,0.979,0.079,-0.042,30.761,-23.56,4.028,0,0,0,
,0.983,0.071,-0.044,25.024,-31.25,7.202,0,0,0,
,0.967,0.068,-0.048,19.958,-32.227,9.338,0,0,0,
,0.969,0.072,-0.056,23.376,-24.781,3.356,0,0,0,
,0.97,0.071,-0.061,28.198,-27.649,0.122,0,0,0,
,0.964,0.067,-0.056,32.165,-25.025,-3.174,0,0,0,
,0.972,0.06,-0.053,28.625,-7.019,-7.081,0,0,0,
,0.967,0.061,-0.054,21.423,-5.555,-7.264,0,0,0,
,0.965,0.064,-0.057,20.874,-4.639,-11.475,0,0,0,
,0.965,0.063,-0.054,20.263,-5.31,-14.283,0,0,0,
,0.958,0.062,-0.048,18.859,-4.273,-14.1,0,0,0,
,0.96,0.063,-0.048,14.282,-0.733,-16.114,0,0,0,
,0.967,0.071,-0.05,4.333,4.15,-16.785,0,0,0,
,0.96,0.078,-0.04,10.925,3.051,-17.395,0,0,0,
,0.957,0.072,-0.042,16.113,13.916,-24.903,0,0,0,
,0.966,0.082,-0.043,17.944,20.324,-30.701,0,0,0,
,0.972,0.088,-0.031,26.977,14.831,-36.133,0,0,0,
,0.975,0.086,-0.025,27.893,21.85,-40.65,0,0,0,
,0.98,0.082,-0.021,24.047,18.615,-40.833,0,0,0,
,0.965,0.081,-0.022,14.587,8.361,-16.48,0,0,0,
,0.95,0.082,-0.014,-0.428,7.69,-23.499,0,0,0,
,0.947,0.089,-0.007,-10.926,11.596,-18.86,0,0,0,
,0.96,0.1,-0.01,-11.719,15.197,-20.386,0,0,0,
,0.972,0.11,-0.013,4.76,5.859,-22.461,0,0,0,
,0.963,0.103,-0.003,20.019,-8.057,-23.011,0,0,0,
,0.955,0.091,0.01,9.582,-8.484,-15.686,0,0,0,
,0.954,0.093,0.012,-0.794,-10.376,-12.757,0,0,0,
,0.973,0.097,0.008,-6.897,-3.174,-16.053,0,0,0,
,0.989,0.096,0.002,-13.489,-23.316,-16.602,0,0,0,
,0.969,0.097,-0.001,-17.701,-37.659,-16.175,0,0,0,
,0.96,0.093,0.006,-25.757,-36.988,-17.762,0,0,0,
,0.96,0.09,0.005,-31.311,-36.133,-18.189,0,0,0,
,0.968,0.09,-0.007,-32.471,-36.255,-23.926,0,0,0,
,0.975,0.096,-0.013,-30.945,-36.927,-25.391,0,0,0,
,0.964,0.097,-0.01,-23.316,-43.519,-25.025,0,0,0,
,0.95,0.094,-0.009,-17.334,-41.443,-22.095,0,0,0,
,0.945,0.09,-0.008,-15.625,-30.03,-16.175,0,0,0,
,0.949,0.1,-0.002,-17.395,-25.208,-13.733,0,0,0,
,0.949,0.11,0.005,-13.916,-15.992,-11.841,0,0,0,
,0.971,0.112,0.008,-4.456,-11.048,-14.283,0,0,0,
,0.978,0.101,0.003,-0.489,-19.104,-14.466,0,0,0,
,0.961,0.104,0,3.906,-30.762,-16.358,0,0,0,
,0.947,0.111,0.028,11.596,-8.423,-20.935,0,0,0,
,0.961,0.111,0.022,12.268,-2.259,-22.095,0,0,0,
,0.975,0.117,0.022,13.916,3.418,-18.677,0,0,0,
,0.99,0.122,0.026,13.916,-0.367,-16.297,0,0,0,
,0.986,0.126,0.044,22.644,-5.188,-11.719,0,0,0,
,0.976,0.132,0.054,29.541,-1.831,-4.151,0,0,0,
,0.968,0.131,0.063,39.856,2.38,8.178,0,0,0,
,0.96,0.14,0.081,68.115,9.643,25.451,0,0,0,
,0.95,0.139,0.082,114.624,6.713,37.292,0,0,0,
,0.94,0.122,0.087,153.198,10.315,45.044,0,0,0,
,0.936,0.115,0.073,176.574,10.192,43.518,0,0,0,
,0.947,0.11,0.061,191.894,4.211,34.118,0,0,0,
,0.975,0.098,0.056,197.021,-1.404,19.287,0,0,0,
,0.986,0.099,0.067,192.443,-17.09,12.878,0,0,0,
,0.954,0.092,0.064,171.264,-22.644,-1.648,0,0,0,
,0.937,0.089,0.048,159.912,-20.447,-3.479,0,0,0,
,0.919,0.111,0.037,159.362,-24.109,-7.203,0,0,0,
,0.891,0.102,0.029,170.349,-35.645,1.892,0,0,0,
,0.863,0.089,0.031,164.795,-29.236,3.295,0,0,0,
,0.857,0.095,0.026,155.761,-5.494,4.577,0,0,0,
,0.896,0.092,0.028,140.991,32.348,-7.142,0,0,0,
,0.949,0.101,0.031,118.164,50.109,-14.222,0,0,0,
,0.951,0.119,0.033,86.425,36.132,-26.185,0,0,0,
,0.907,0.135,0.037,67.627,39.856,-36.438,0,0,0,
,0.882,0.157,0.034,60.119,60.119,-46.814,0,0,0,
,0.883,0.156,0.018,60.18,61.523,-52.002,0,0,0,
,0.889,0.143,0.018,39.245,65.124,-56.275,0,0,0,
,0.944,0.147,0.008,-10.315,88.867,-70.618,0,0,0,
,1.036,0.17,0.001,-50.843,82.824,-94.849,0,0,0,
,1.065,0.188,0.001,-81.299,30.578,-121.949,0,0,0,
,1.026,0.213,-0.009,-101.319,-4.029,-143.128,0,0,0,
,0.999,0.233,-0.024,-94.178,-17.579,-161.927,0,0,0,
,1.005,0.242,-0.042,-75.928,-29.236,-167.969,0,0,0,
,1.016,0.236,-0.04,-55.237,-56.214,-162.476,0,0,0,
,1.01,0.231,-0.026,-31.678,-78.309,-147.156,0,0,0,
,0.999,0.222,-0.012,-16.358,-98.572,-130.372,0,0,0,
,0.993,0.196,-0.007,-11.536,-114.258,-111.268,0,0,0,
,0.969,0.173,-0.003,-37.049,-129.029,-87.281,0,0,0,
,0.955,0.166,0.005,-71.534,-126.648,-73.67,0,0,0,
,0.986,0.18,0.007,-91.187,-106.812,-70.984,0,0,0,
,1.022,0.186,0.011,-93.445,-105.103,-75.318,0,0,0,
,1.023,0.186,0.03,-79.224,-108.582,-83.191,0,0,0,
,1.003,0.18,0.045,-48.89,-94.727,-96.68,0,0,0,
,0.997,0.16,0.054,-27.588,-65.674,-123.841,0,0,0,
,0.999,0.134,0.052,-17.762,-47.974,-118.042,0,0,0,
,0.965,0.11,0.064,-14.222,-44.373,-106.263,0,0,0,
,0.905,0.075,0.094,0.61,-37.72,-85.694,0,0,0,
,0.863,0.048,0.119,2.929,1.464,-54.993,0,0,0,
,0.869,0.035,0.128,9.033,39.611,-31.739,0,0,0,
,0.898,0.032,0.116,44.555,63.354,-11.17,0,0,0,
,0.921,0.031,0.112,56.884,65.124,0.244,0,0,0,
,0.927,0.003,0.128,81.726,58.41,-1.404,0,0,0,
,0.921,-0.014,0.144,86.853,65.979,-7.264,0,0,0,
,0.928,-0.02,0.162,81.665,85.022,-14.466,0,0,0,
,0.943,-0.026,0.163,72.265,89.599,-17.029,0,0,0,
,0.937,-0.036,0.159,58.044,97.351,-12.452,0,0,0,
,0.936,-0.042,0.152,38.33,101.623,-0.794,0,0,0,
,0.941,-0.022,0.149,22.888,114.196,9.399,0,0,0,
,0.954,-0.002,0.152,31.494,117.37,17.456,0,0,0,
,0.957,-0.002,0.156,52.246,109.802,28.381,0,0,0,
,0.961,-0.007,0.143,56.213,111.694,39.611,0,0,0,
,0.98,-0.002,0.129,45.166,105.163,48.461,0,0,0,
,0.985,0.014,0.115,24.78,98.388,56.03,0,0,0,
,0.996,0.04,0.11,24.292,91.186,59.509,0,0,0,
,1.01,0.063,0.1,44.433,86.853,50.415,0,0,0,
,1.017,0.083,0.093,69.458,79.528,40.344,0,0,0,
,1.004,0.092,0.093,99.182,63.537,25.451,0,0,0,
,0.986,0.084,0.093,122.68,56.64,20.874,0,0,0,
,0.979,0.085,0.08,124.023,53.1,21.484,0,0,0,
,0.987,0.088,0.067,110.778,41.565,27.587,0,0,0,
,0.99,0.084,0.061,87.036,23.986,33.447,0,0,0,
,0.978,0.093,0.069,54.016,8.667,38.391,0,0,0,
,0.975,0.106,0.071,24.169,8.667,33.63,0,0,0,
,0.979,0.117,0.073,0.732,6.286,26.184,0,0,0,
,0.963,0.122,0.078,-17.029,3.173,22.216,0,0,0,
,0.933,0.134,0.072,-25.025,11.901,14.038,0,0,0,
,0.927,0.146,0.079,-20.63,28.076,4.577,0,0,0,
,0.932,0.154,0.07,-9.217,37.902,-7.081,0,0,0,
,0.94,0.156,0.067,4.089,38.208,-17.579,0,0,0,
,0.942,0.155,0.07,22.033,35.644,-28.992,0,0,0,
,0.942,0.154,0.072,28.503,31.494,-40.345,0,0,0,
,0.941,0.151,0.064,31.433,21.24,-43.885,0,0,0,
,0.938,0.148,0.064,22.888,19.104,-46.631,0,0,0,
,0.944,0.149,0.058,12.573,12.39,-46.509,0,0,0,
,0.944,0.155,0.056,6.164,8.667,-45.777,0,0,0,
,0.939,0.159,0.058,2.38,7.629,-48.584,0,0,0,
,0.936,0.162,0.052,4.76,7.934,-51.087,0,0,0,
,0.934,0.156,0.054,9.033,4.882,-52.857,0,0,0,
,0.929,0.157,0.055,11.596,5.249,-51.941,0,0,0,
,0.932,0.153,0.054,12.023,9.094,-50.782,0,0,0,
,0.942,0.15,0.052,9.582,11.352,-49.622,0,0,0,
,0.953,0.152,0.051,6.469,8.972,-45.533,0,0,0,
,0.959,0.15,0.05,9.582,6.103,-44.617,0,0,0,
,0.956,0.145,0.051,13.122,1.586,-61.951,0,0,0,
,0.952,0.138,0.051,10.253,-1.099,-46.387,0,0,0,
,0.954,0.136,0.05,2.38,5.676,-43.885,0,0,0,
,0.964,0.142,0.047,0.549,5.981,-43.946,0,0,0,
,0.966,0.141,0.051,6.347,-2.747,-36.988,0,0,0,
,0.959,0.135,0.048,11.84,-7.081,-34.424,0,0,0,
,0.958,0.125,0.044,4.394,-12.33,-29.541,0,0,0,
,0.953,0.125,0.042,-4.334,-14.588,-23.194,0,0,0,
,0.946,0.133,0.055,-9.217,-8.24,-20.63,0,0,0,
,0.97,0.141,0.045,0.671,2.441,-22.828,0,0,0,
,0.975,0.143,0.048,7.507,-4.029,-24.109,0,0,0,
,0.967,0.137,0.056,11.474,-5.738,-21.18,0,0,0,
,0.958,0.129,0.058,10.192,-1.709,-16.602,0,0,0,
,0.961,0.123,0.059,1.464,-3.052,-13.367,0,0,0,
,0.963,0.12,0.059,-8.362,-7.935,-5.677,0,0,0,
,0.96,0.117,0.065,-11.78,-14.222,-2.259,0,0,0,
,0.959,0.121,0.066,-16.846,-15.625,1.892,0,0,0,
,0.962,0.118,0.064,-19.837,-16.663,0.244,0,0,0,
,0.955,0.121,0.057,-19.715,-20.447,2.258,0,0,0,
,0.956,0.123,0.062,-17.212,-17.212,-0.123,0,0,0,
,0.954,0.12,0.069,-21.668,-16.663,-5.066,0,0,0,
,0.943,0.116,0.058,-24.109,-17.395,-6.409,0,0,0,
,0.931,0.116,0.055,-30.396,-8.851,-13.123,0,0,0,
,0.934,0.119,0.058,-27.588,-7.996,-15.931,0,0,0,
,0.929,0.126,0.061,-27.405,-1.465,-23.377,0,0,0,
,0.927,0.131,0.066,-24.781,5.249,-31.617,0,0,0,
,0.936,0.134,0.06,-17.945,13.732,-36.438,0,0,0,
,0.944,0.134,0.064,-10.01,13.244,-37.659,0,0,0,
,0.936,0.128,0.065,-14.893,13.61,-36.56,0,0,0,
,0.941,0.127,0.06,-21.546,19.226,-32.288,0,0,0,
,0.944,0.131,0.06,-23.377,23.01,-32.105,0,0,0,
,0.949,0.131,0.063,-20.386,18.615,-30.213,0,0,0,
,0.951,0.132,0.059,-19.898,21.179,-30.884,0,0,0,
,0.959,0.127,0.056,-19.715,18.249,-29.053,0,0,0,
,0.959,0.123,0.058,-22.522,19.531,-26.246,0,0,0,
,0.956,0.12,0.061,-33.936,17.089,-22.278,0,0,0,
,0.954,0.119,0.06,-41.504,15.747,-19.165,0,0,0,
,0.949,0.119,0.058,-43.091,22.155,-19.165,0,0,0,
,0.952,0.123,0.054,-41.382,26.306,-24.048,0,0,0,
,0.962,0.121,0.057,-36.683,29.602,-26.123,0,0,0,
,0.955,0.117,0.062,-34.302,24.108,-27.771,0,0,0,
,0.948,0.111,0.06,-42.725,27.954,-28.382,0,0,0,
,0.959,0.114,0.059,-49.622,38.269,-31.861,0,0,0,
,0.967,0.124,0.068,-54.078,34.973,-34.485,0,0,0,
,0.958,0.123,0.078,-52.369,15.686,-39.429,0,0,0,
,0.955,0.127,0.075,-48.89,37.414,-44.434,0,0,0,
,0.961,0.133,0.078,-42.237,40.954,-46.448,0,0,0,
,0.958,0.132,0.082,-37.171,33.752,-42.054,0,0,0,
,0.943,0.128,0.088,-38.453,32.104,-35.95,0,0,0,
,0.944,0.134,0.088,-37.171,37.963,-36.866,0,0,0,
,0.961,0.139,0.09,-34.546,42.114,-40.162,0,0,0,
,0.965,0.14,0.088,-24.353,31.005,-43.152,0,0,0,
,0.961,0.133,0.123,-18.189,25.207,-45.899,0,0,0,
,0.962,0.134,0.09,-24.659,21.789,-48.706,0,0,0,
,0.97,0.14,0.088,-28.016,20.019,-45.289,0,0,0,
,0.976,0.139,0.086,-31.617,13.549,-41.687,0,0,0,
,0.971,0.138,0.088,-35.096,7.568,-32.654,0,0,0,
,0.963,0.139,0.081,-36.316,-0.794,-27.71,0,0,0,
,0.951,0.14,0.081,-31.128,-1.954,-25.208,0,0,0,
,0.951,0.138,0.077,-26.49,-0.489,-23.255,0,0,0,
,0.95,0.139,0.068,-22.95,2.319,-23.56,0,0,0,
,0.946,0.142,0.076,-12.757,6.225,-26.551,0,0,0,
,0.948,0.138,0.076,1.648,14.16,-32.715,0,0,0,
,0.953,0.135,0.069,6.408,17.822,-35.462,0,0,0,
,0.955,0.128,0.071,8.911,15.625,-39.612,0,0,0,
,0.952,0.123,0.07,3.356,14.465,-38.147,0,0,0,
,0.95,0.127,0.074,-6.165,8.85,-36.377,0,0,0,
,0.957,0.137,0.067,-12.085,9.826,-34.424,0,0,0,
,0.938,0.143,0.064,-11.414,7.873,-33.265,0,0,0,
,0.969,0.139,0.068,-9.278,-1.831,-30.274,0,0,0,
,0.958,0.124,0.059,-10.315,-4.517,-22.583,0,0,0,
,0.953,0.124,0.057,-21.729,-0.061,-22.156,0,0,0,
,0.945,0.134,0.063,-23.804,4.028,-21.973,0,0,0,
,0.945,0.138,0.058,-10.01,7.263,-24.72,0,0,0,
,0.949,0.128,0.057,1.77,13.61,-28.199,0,0,0,
,0.962,0.122,0.048,1.281,11.535,-29.541,0,0,0,
,0.964,0.12,0.051,-7.691,8.178,-31.8,0,0,0,
,0.953,0.128,0.065,-15.015,4.211,-31.861,0,0,0,
,0.945,0.133,0.065,-16.602,13.427,-33.936,0,0,0,
,0.948,0.132,0.056,-12.635,21.301,-32.715,0,0,0,
,0.948,0.128,0.061,-5.066,22.888,-34.729,0,0,0,
,0.951,0.125,0.055,-5.31,17.456,-33.509,0,0,0,
,0.948,0.124,0.061,-11.597,10.437,-33.081,0,0,0,
,0.95,0.127,0.062,-15.442,12.878,-35.584,0,0,0,
,0.956,0.128,0.069,-17.945,17.761,-37.354,0,0,0,
,0.956,0.13,0.063,-19.532,14.038,-36.499,0,0,0,
,0.952,0.133,0.057,-19.227,16.54,-35.035,0,0,0,
,0.958,0.135,0.055,-24.476,15.747,-31.434,0,0,0,
,0.957,0.143,0.063,-27.222,9.948,-30.213,0,0,0,
,0.956,0.146,0.066,-21.363,9.46,-28.809,0,0,0,
,0.959,0.139,0.064,-17.884,10.498,-28.382,0,0,0,
,0.952,0.139,0.067,-19.776,13.549,-25.757,0,0,0,
,0.943,0.132,0.068,-24.231,13.427,-27.161,0,0,0,
,0.946,0.132,0.065,-25.391,15.441,-25.086,0,0,0,
,0.947,0.137,0.065,-27.405,14.16,-26.551,0,0,0,
,0.944,0.135,0.066,-22.095,10.803,-26.123,0,0,0,
,0.947,0.133,0.069,-18.189,11.84,-28.321,0,0,0,
,0.952,0.132,0.066,-22.156,16.845,-29.358,0,0,0,
,0.957,0.139,0.062,-24.598,18.005,-30.701,0,0,0,
,0.961,0.143,0.063,-19.288,17.639,-29.419,0,0,0,
,0.964,0.139,0.062,-18.189,16.845,-26.673,0,0,0,
,0.958,0.134,0.063,-18.677,17.944,-24.659,0,0,0,
,0.951,0.131,0.061,-20.081,16.601,-23.255,0,0,0,
,0.953,0.131,0.058,-25.94,21.301,-22.522,0,0,0,
,0.954,0.136,0.064,-21.058,19.958,-21.241,0,0,0,
,0.952,0.135,0.069,-18.128,21.484,-23.743,0,0,0,
,0.954,0.128,0.065,-16.297,22.827,-24.72,0,0,0,
,0.96,0.121,0.058,-19.471,23.193,-26.917,0,0,0,
,0.967,0.128,0.062,-26.673,18.676,-29.786,0,0,0,
,0.959,0.135,0.065,-23.133,18.188,-35.218,0,0,0,
,0.952,0.135,0.071,-16.846,21.057,-38.575,0,0,0,
,0.95,0.129,0.067,-14.954,26.977,-34.852,0,0,0,
,0.949,0.129,0.071,-17.09,25.94,-46.204,0,0,0,
,0.951,0.125,0.071,-18.738,28.076,-26.429,0,0,0,
,0.955,0.13,0.072,-21.18,25.94,-28.138,0,0,0,
,0.954,0.133,0.074,-19.41,22.766,-28.016,0,0,0,
,0.955,0.133,0.073,-11.963,20.019,-34.546,0,0,0,
,0.958,0.129,0.073,-8.24,19.226,-38.819,0,0,0,
,0.956,0.128,0.072,-15.015,16.601,-38.514,0,0,0,
,0.951,0.13,0.073,-24.109,13.916,-33.387,0,0,0,
,0.949,0.137,0.068,-29.48,18.188,-31.739,0,0,0,
,0.951,0.147,0.063,-28.504,0.427,-29.053,0,0,0,
,0.939,0.15,0.07,-15.076,13.794,-31.006,0,0,0,
,0.933,0.159,0.08,2.502,24.597,-36.072,0,0,0,
,0.927,0.16,0.141,6.469,29.052,-26.734,0,0,0,
,0.932,0.138,0.247,-23.499,36.01,-0.123,0,0,0,
,0.982,0.222,0.376,-82.093,74.89,54.687,0,0,0,
,1.079,0.425,0.381,-36.194,165.1,125.549,0,0,0,
,1.318,0.771,0.618,440.49,209.35,233.093,0,0,0,
,3.999,1.736,2.752,1955.139,87.219,1250.732,0,0,0,
,3.999,1.908,2.246,1885.192,-1133.545,1802.795,0,0,0,
,3.999,2.07,1.714,1817.993,-2000,1879.15,0,0,0,
,3.999,1.613,1.233,1999.694,-2000,1497.436,0,0,0,
,3.999,0.626,1.315,1999.694,-2000,1144.653,0,0,0,
,3.999,0.527,1.228,1820.312,-2000,867.859,0,0,0,
,3.999,0.675,0.487,1066.345,-2000,622.192,0,0,0,
,3.999,0.892,-0.545,183.654,-2000,716.369,0,0,0,
,3.999,0.799,-1.486,-867.859,-2000,1171.692,0,0,0,
,3.999,1.069,-2.288,-1198.365,-2000,1971.74,0,0,0,
,3.794,1.144,-2.113,77.697,-2000,1999.694,0,0,0,
,3.999,1.087,-2.935,1999.694,-2000,1999.694,0,0,0,
,3.999,-0.094,-4,1999.694,-2000,1999.633,0,0,0,
,3.999,0.137,-4,1999.694,-2000,1122.741,0,0,0,
,2.505,2.414,-4,803.222,-274.048,264.099,0,0,0,
,1.212,-0.994,-4,490.661,1999.694,-201.905,0,0,0,
,1.327,-2.471,-4,-461.914,1999.694,-395.874,0,0,0,
,1.63,-1.687,-3.849,-1456.543,1999.694,-522.522,0,0,0,
,3.999,0.163,-4,-2000,1999.694,-2000,0,0,0,
,3.999,1.473,-2.921,-1888.123,1999.694,-2000,0,0,0,
,3.999,1.671,-2.698,1278.198,1999.694,-2000,0,0,0,
,3.999,0.518,-3.167,1999.694,1999.694,-2000,0,0,0,
,3.999,-0.595,-2.42,1999.694,1999.694,-2000,0,0,0,
,3.999,-1.852,-0.399,1999.694,1999.694,-889.344,0,0,0,
,3.999,-2.269,1.149,1112.304,1999.694,267.089,0,0,0,
,3.999,-1.427,1.687,-1072.083,1999.694,372.436,0,0,0,
,3.999,0.156,1.428,-1747.132,1561.828,-56.641,0,0,0,
,3.772,0.596,1.383,-971.314,316.894,-215.76,0,0,0,
,2.678,0.21,1.305,-359.559,-528.626,-38.331,0,0,0,
,1.928,-0.211,1.05,-181.153,-1076.478,253.845,0,0,0,
,1.381,-0.732,0.89,-403.809,-1281.556,511.84,0,0,0,
,0.95,-0.629,0.651,-647.522,-1185.242,712.402,0,0,0,
,0.705,-0.374,0.54,-733.643,-876.77,686.34,0,0,0,
,0.838,-0.117,0.331,-685.181,-737.061,634.704,0,0,0,
,0.944,-0.099,0.163,-659.668,-715.882,507.873,0,0,0,
,1.003,0.055,-0.068,-606.751,-711.853,391.174,0,0,0,
,1.053,0.231,-0.147,-342.408,-740.174,186.523,0,0,0,
,1.068,0.191,-0.22,48.034,-750.245,60.119,0,0,0,
,0.997,-0.007,-0.246,287.292,-742.493,3.967,0,0,0,
,0.891,-0.217,-0.266,235.473,-615.113,4.577,0,0,0,
,0.841,-0.217,-0.269,55.481,-441.651,10.864,0,0,0,
,0.859,-0.052,-0.287,-88.074,-247.437,6.774,0,0,0,
,0.945,0.1,-0.284,-87.22,-129.395,-28.809,0,0,0,
,1.01,-0.041,-0.234,149.047,-103.211,0.732,0,0,0,
,0.946,-0.044,-0.177,50.659,-62.989,5.432,0,0,0,
,0.916,-0.021,-0.136,-48.218,-5.555,9.216,0,0,0,
,0.909,0.014,-0.103,-127.442,44.616,4.516,0,0,0,
,0.919,0.06,-0.093,-124.939,84.594,-17.029,0,0,0,
,0.94,0.101,-0.028,-59.205,92.956,-52.613,0,0,0,
,0.968,0.104,0.03,6.591,96.008,-76.416,0,0,0,
,0.981,0.031,0.066,32.104,81.665,-92.957,0,0,0,
,0.973,0.026,0.094,5.432,71.594,-98.938,0,0,0,
,0.971,0.012,0.108,-43.946,75.5,-93.811,0,0,0,
,0.968,0.018,0.11,-116.7,76.171,-90.027,0,0,0,
,0.971,0.024,0.115,-166.687,66.894,-82.215,0,0,0,
,0.986,0.038,0.104,-218.934,54.26,-70.618,0,0,0,
,0.985,0.047,0.104,-252.259,29.357,-55.42,0,0,0,
,0.982,0.041,0.11,-273.072,4.943,-44.068,0,0,0,
,0.979,0.05,0.106,-297.547,-20.264,-33.387,0,0,0,
,0.967,0.059,0.096,-318.055,-44.861,-28.565,0,0,0,
,0.944,0.076,0.085,-330.628,-65.735,-29.358,0,0,0,
,0.939,0.095,0.083,-328.919,-75.501,-34.546,0,0,0,
,0.948,0.086,0.077,-315.125,-76.111,-46.936,0,0,0,
,0.963,0.061,0.077,-324.097,-88.746,-50.293,0,0,0,
,0.967,0.044,0.081,-369.141,-99.793,-49.012,0,0,0,
,0.96,0.045,0.077,-437.623,-106.019,-44.861,0,0,0,
,0.951,0.04,0.056,-524.659,-108.094,-38.88,0,0,0,
,0.958,0.033,0.056,-629.212,-96.009,-27.222,0,0,0,
,0.974,0.035,0.052,-733.277,-88.685,-14.649,0,0,0,
,0.983,0.055,0.092,-830.811,-81.91,-1.831,0,0,0,
,0.988,0.072,0.069,-898.743,-80.75,7.568,0,0,0,
,0.998,0.091,0.067,-946.595,-76.355,9.399,0,0,0,
,1.006,0.128,0.062,-975.342,-74.585,6.591,0,0,0,
,1.024,0.181,0.061,-947.876,-81.788,1.037,0,0,0,
,1.027,0.239,0.071,-837.22,-92.225,-11.658,0,0,0,
,1.01,0.254,0.095,-693.604,-123.291,-18.25,0,0,0,
,0.995,0.237,0.086,-556.58,-116.028,-24.109,0,0,0,
,0.994,0.177,0.039,-433.96,-100.159,-42.359,0,0,0,
,1.002,0.139,-0.006,-369.019,-102.356,-45.899,0,0,0,
,1.008,0.125,-0.047,-338.135,-122.559,-52.735,0,0,0,
,0.999,0.098,-0.075,-335.083,-165.406,-57.984,0,0,0,
,0.979,0.074,-0.081,-373.414,-199.585,-57.19,0,0,0,
,0.961,0.058,-0.08,-427.613,-222.718,-55.603,0,0,0,
,0.944,0.042,-0.085,-487.305,-244.507,-54.383,0,0,0,
,0.931,0.034,-0.067,-569.519,-261.414,-51.209,0,0,0,
,0.93,0.037,-0.047,-641.785,-277.222,-50.66,0,0,0,
,0.925,0.054,-0.028,-706.116,-290.528,-55.848,0,0,0,
,0.915,0.064,-0.016,-770.02,-284.058,-64.27,0,0,0,
,0.902,0.091,-0.005,-838.623,-277.71,-74.769,0,0,0,
,0.891,0.112,0.008,-883.118,-254.395,-87.342,0,0,0,
,0.885,0.139,0.03,-904.114,-232.789,-108.765,0,0,0,
,0.891,0.161,0.062,-908.326,-201.966,-123.841,0,0,0,
,0.899,0.174,0.103,-893.677,-168.274,-134.705,0,0,0,
,0.9,0.174,0.128,-870.362,-128.235,-135.254,0,0,0,
,0.899,0.179,0.145,-842.713,-87.403,-133.423,0,0,0,
,0.899,0.184,0.152,-792.908,-51.819,-130.31,0,0,0,
,0.897,0.189,0.165,-740.357,-20.386,-121.338,0,0,0,
,0.893,0.205,0.178,-690.125,8.056,-104.248,0,0,0,
,0.898,0.231,0.202,-652.344,29.296,-96.619,0,0,0,
,0.897,0.247,0.213,-606.934,36.071,-93.811,0,0,0,
,0.896,0.267,0.239,-548.706,37.78,-101.624,0,0,0,
,0.899,0.274,0.253,-499.512,38.33,-110.413,0,0,0,
,0.901,0.268,0.265,-470.826,33.02,-126.282,0,0,0,
,0.893,0.258,0.265,-451.111,28.32,-140.87,0,0,0,
,0.882,0.24,0.263,-449.952,23.071,-151.734,0,0,0,
,0.867,0.227,0.219,-462.159,18.737,-155.884,0,0,0,
,0.855,0.213,0.227,-489.563,18.188,-157.349,0,0,0,
,0.849,0.212,0.217,-524.476,17.273,-154.114,0,0,0,
,0.846,0.225,0.206,-565.613,15.564,-151.856,0,0,0,
,0.83,0.242,0.214,-586.609,19.592,-150.574,0,0,0,
,0.821,0.252,0.208,-590.332,25.268,-152.649,0,0,0,
,0.818,0.253,0.198,-580.384,40.344,-154.053,0,0,0,
,0.821,0.257,0.187,-565.552,51.33,-153.138,0,0,0,
,0.826,0.259,0.178,-544.8,60.73,-150.452,0,0,0,
,0.833,0.252,0.175,-524.353,68.847,-141.602,0,0,0,
,0.847,0.252,0.17,-516.236,77.27,-130.921,0,0,0,
,0.844,0.252,0.168,-519.898,78.186,-113.77,0,0,0,
,0.849,0.251,0.156,-529.664,85.815,-95.948,0,0,0,
,0.868,0.251,0.151,-540.467,98.083,-71.656,0,0,0,
,0.882,0.25,0.159,-554.81,97.106,-45.105,0,0,0,
,0.9,0.251,0.157,-558.777,102.478,-18.738,0,0,0,
,0.914,0.251,0.157,-563.294,124.267,7.812,0,0,0,
,0.924,0.245,0.149,-573.426,108.154,21.972,0,0,0,
,0.951,0.249,0.14,-592.041,119.445,31.555,0,0,0,
,0.977,0.253,0.118,-615.906,111.511,29.907,0,0,0,
,1.001,0.259,0.109,-647.583,105.957,18.859,0,0,0,
,1.003,0.273,0.107,-675.721,91.186,1.342,0,0,0,
,0.995,0.285,0.103,-697.876,75.195,-13.916,0,0,0,
,0.973,0.286,0.092,-723.877,66.345,-23.499,0,0,0,
,0.949,0.283,0.082,-760.865,56.64,-21.119,0,0,0,
,0.918,0.288,0.074,-811.463,50.781,-9.522,0,0,0,
,0.893,0.291,0.07,-823.182,44.799,7.446,0,0,0,
,0.862,0.292,0.079,-834.046,35.705,32.653,0,0,0,
,0.828,0.294,0.082,-834.961,28.625,58.41,0,0,0,
,0.78,0.31,0.064,-803.894,34.79,106.14,0,0,0,
,0.796,0.321,0.054,-771.851,48.034,115.112,0,0,0,
,0.886,0.323,0.043,-739.624,74.523,116.638,0,0,0,
,1.116,0.298,-0.022,-720.643,18.005,113.159,0,0,0,
,1.186,0.288,-0.06,-738.831,-36.011,116.211,0,0,0,
,1.21,0.291,-0.082,-741.211,-90.821,108.703,0,0,0,
,1.226,0.265,-0.073,-740.967,-144.532,115.783,0,0,0,
,1.225,0.292,-0.064,-766.236,-169.495,132.202,0,0,0,
,1.208,0.264,-0.074,-743.287,-197.754,134.277,0,0,0,
,1.127,0.244,-0.049,-749.146,-210.572,176.696,0,0,0,
,1.071,0.254,-0.033,-770.63,-203.797,212.585,0,0,0,
,0.996,0.315,0.005,-712.098,-150.696,248.047,0,0,0,
,0.949,0.347,0.017,-539.002,-102.173,257.263,0,0,0,
,0.944,0.255,0.047,-300.904,-71.167,276.306,0,0,0,
,0.917,0.267,0.072,-88.746,-64.454,287.414,0,0,0,
,1.021,0.104,0.124,148.193,-62.317,236.694,0,0,0,
,0.868,0.185,0.109,255.493,-35.95,220.642,0,0,0,
,0.925,0.006,0.101,-13.855,-27.161,138.244,0,0,0,
,0.875,0.108,0.1,-38.758,-37.72,44.921,0,0,0,
,0.897,0.075,0.035,-138.062,-1.526,24.719,0,0,0,
,0.916,0.137,0.022,-255.86,-42.298,-70.13,0,0,0,
,0.922,0.13,0.005,-312.134,-102.784,-121.216,0,0,0,
,0.927,0.13,-0.012,-452.027,-103.76,-145.569,0,0,0,
,0.939,0.218,-0.04,-515.686,-160.157,-160.157,0,0,0,
,0.906,0.236,-0.036,-492.676,-247.681,-195.557,0,0,0,
,0.854,0.196,-0.043,-516.724,-278.565,-195.252,0,0,0,
,0.846,0.187,-0.06,-589.234,-274.292,-201.355,0,0,0,
,0.889,0.211,-0.085,-660.645,-275.391,-203.248,0,0,0,
,0.914,0.234,-0.101,-696.717,-297.364,-212.586,0,0,0,
,0.937,0.247,-0.106,-729.798,-303.04,-225.708,0,0,0,
,0.983,0.262,-0.133,-761.658,-302.002,-245.972,0,0,0,
,0.999,0.276,-0.159,-780.152,-320.252,-255.86,0,0,0,
,0.999,0.278,-0.173,-790.65,-338.074,-264.893,0,0,0,
,1.022,0.266,-0.198,-808.716,-327.393,-274.476,0,0,0,
,1.141,0.254,-0.231,-904.602,-328.553,-279.358,0,0,0,
,1.221,0.252,-0.282,-977.723,-305.97,-288.636,0,0,0,
,1.337,0.257,-0.278,-1067.994,-295.472,-299.988,0,0,0,
,1.347,0.285,-0.266,-1138.672,-331.177,-296.387,0,0,0,
,1.187,0.33,-0.211,-1173.645,-359.925,-277.71,0,0,0,
,0.996,0.361,-0.129,-1158.143,-300.293,-260.865,0,0,0,
,0.845,0.365,-0.065,-1088.013,-223.938,-236.512,0,0,0,
,0.725,0.349,-0.003,-953.675,-134.766,-191.163,0,0,0,
,0.623,0.327,0.032,-790.467,-58.96,-135.682,0,0,0,
,0.569,0.307,0.039,-599.549,45.593,-85.633,0,0,0,
,0.606,0.282,0.017,-443.116,139.587,-47.181,0,0,0,
,0.713,0.252,-0.007,-329.834,186.828,-27.222,0,0,0,
,0.805,0.207,-0.016,-287.476,187.988,-19.898,0,0,0,
,0.905,0.198,-0.018,-304.017,175.476,-35.401,0,0,0,
,0.938,0.209,0.011,-362,144.104,-64.82,0,0,0,
,0.978,0.223,0.004,-437.684,109.253,-100.647,0,0,0,
,0.986,0.232,-0.004,-523.621,45.41,-133.912,0,0,0,
,0.946,0.242,0.031,-573.792,-3.174,-145.752,0,0,0,
,0.903,0.262,0.098,-574.646,-19.349,-147.461,0,0,0,
,0.881,0.258,0.129,-524.048,-16.297,-125.977,0,0,0,
,0.855,0.236,0.122,-453.919,-6.226,-97.168,0,0,0,
,0.827,0.23,0.131,-406.189,15.625,-70.13,0,0,0,
,0.819,0.264,0.155,-358.277,47.668,-49.866,0,0,0,
,0.838,0.287,0.17,-278.138,77.209,-49.927,0,0,0,
,0.863,0.263,0.189,-191.04,95.886,-43.702,0,0,0,
,0.886,0.233,0.183,-119.873,98.205,-39.673,0,0,0,
,0.895,0.208,0.159,-89.966,85.876,-28.809,0,0,0,
,0.884,0.186,0.138,-79.224,63.049,-26.49,0,0,0,
,0.862,0.172,0.155,-80.079,43.823,-33.509,0,0,0,
,0.84,0.188,0.128,-79.346,35.888,-39.246,0,0,0,
,0.791,0.372,0.143,69.213,76.232,-74.83,0,0,0,
,0.785,0.397,0.125,224.182,95.825,-68.909,0,0,0,
,0.798,0.4,0.123,400.512,122.863,-61.402,0,0,0,
,0.846,0.382,0.122,594.726,163.696,-47.425,0,0,0,
,0.93,0.36,0.131,705.81,191.223,-36.255,0,0,0,
,1.049,0.317,0.168,718.811,201.599,-17.64,0,0,0,
,1.18,0.251,0.197,630.371,171.508,2.685,0,0,0,
,1.269,0.159,0.146,489.929,128.296,47.912,0,0,0,
,1.319,0.141,0.074,258.789,61.157,106.628,0,0,0,
,1.359,0.117,0.016,4.882,-19.227,185.485,0,0,0,
,1.404,0.121,-0.018,-209.534,-75.013,224.853,0,0,0,
,1.457,0.154,0.01,-350.403,-154.908,270.752,0,0,0,
,1.41,0.193,0.06,-291.016,-277.161,312.561,0,0,0,
,1.268,0.176,0.077,-98.389,-403.687,287.536,0,0,0,
,1.041,-0.012,0.102,502.38,-449.463,180.297,0,0,0,
,0.962,-0.095,0.162,339.416,-390.503,200.134,0,0,0,
,0.9,0.563,0.225,839.843,-361.268,100.463,0,0,0,
,0.931,-0.131,0.084,134.033,-239.991,145.691,0,0,0,
,0.896,-0.11,0.008,-392.029,-259.888,200.012,0,0,0,
,0.96,0.002,-0.043,-637.94,-222.901,282.776,0,0,0,
,1.014,-0.008,-0.047,-925.843,-273.743,367.309,0,0,0,
,0.984,0.125,-0.076,-1106.507,-288.331,441.467,0,0,0,
,0.93,0.267,-0.127,-1115.357,-285.523,447.692,0,0,0,
,0.916,0.35,-0.15,-979.615,-270.325,434.997,0,0,0,
,0.921,0.372,-0.167,-774.353,-250.794,395.935,0,0,0,
,0.924,0.375,-0.17,-558.289,-260.926,369.445,0,0,0,
,0.872,0.342,-0.161,-325.135,-274.231,340.576,0,0,0,
,0.825,0.3,-0.153,-89.844,-263.245,306.274,0,0,0,
,0.8,0.243,-0.129,71.044,-234.192,268.615,0,0,0,
,0.776,0.161,-0.047,138.672,-106.385,144.165,0,0,0,
,0.776,0.151,-0.033,84.655,-67.017,91.735,0,0,0,
,0.768,0.151,-0.021,13.732,-27.039,32.775,0,0,0,
,0.767,0.15,-0.015,-62.623,8.056,-23.255,0,0,0,
,0.767,0.151,-0.012,-128.296,34.851,-82.581,0,0,0,
,0.758,0.169,-0.006,-167.725,46.875,-128.357,0,0,0,
,0.755,0.178,0,-187.134,62.011,-173.157,0,0,0,
,0.811,0.182,-0.006,-202.393,73.791,-219.239,0,0,0,
,0.82,0.184,-0.019,-223.755,71.716,-267.762,0,0,0,
,0.87,0.186,-0.025,-238.831,65.429,-316.651,0,0,0,
,0.921,0.187,-0.029,-262.452,56.884,-372.742,0,0,0,
,1.027,0.232,-0.009,-340.699,55.053,-542.847,0,0,0,
,1.072,0.232,-0.007,-354.248,94.055,-596.741,0,0,0,
,1.147,0.24,-0.009,-365.967,131.591,-641.175,0,0,0,
,1.232,0.256,-0.021,-376.343,147.155,-676.148,0,0,0,
,1.293,0.27,-0.035,-373.658,153.747,-705.628,0,0,0,
,1.14,0.31,0.036,-331.36,98.144,-648.499,0,0,0,
,1.016,0.289,0.061,-324.952,100.83,-576.111,0,0,0,
,0.931,0.269,0.059,-319.397,112.243,-476.868,0,0,0,
,0.872,0.226,0.061,-321.9,115.966,-375.123,0,0,0,
,0.868,0.187,0.033,-342.469,141.296,-263.733,0,0,0,
,0.93,0.173,0.002,-379.029,148.681,-177.491,0,0,0,
,1.005,0.186,-0.025,-427.796,109.802,-100.953,0,0,0,
,1.027,0.21,-0.027,-481.08,41.503,-49.012,0,0,0,
,0.979,0.229,-0.017,-584.534,-57.435,-3.235,0,0,0,
,0.912,0.243,-0.003,-619.751,-96.375,11.169,0,0,0,
,0.828,0.259,0.015,-615.784,-107.911,21.484,0,0,0,
,0.773,0.271,0.037,-572.205,-74.524,26.123,0,0,0,
,0.755,0.276,0.054,-507.569,-26.978,21.728,0,0,0,
,0.762,0.281,0.031,-423.34,15.014,14.77,0,0,0,
,0.766,0.286,0.066,-335.389,46.264,-4.334,0,0,0,
,0.783,0.277,0.062,-253.418,76.171,-31.373,0,0,0,
,0.795,0.266,0.053,-196.595,90.393,-56.153,0,0,0,
,0.874,0.258,0.087,-79.834,147.888,-104.065,0,0,0,
,0.931,0.257,0.098,-41.504,152.465,-106.263,0,0,0,
,0.953,0.255,0.11,-1.954,133.484,-98.755,0,0,0,
,0.913,0.243,0.134,30.212,112.243,-81.299,0,0,0,
,0.868,0.225,0.149,59.082,126.464,-64.026,0,0,0,
,0.875,0.215,0.17,67.871,149.414,-36.866,0,0,0,
,0.908,0.205,0.168,81.543,158.203,-8.484,0,0,0,
,0.924,0.197,0.179,106.079,144.592,14.709,0,0,0,
,0.952,0.19,0.178,128.296,144.897,35.522,0,0,0,
,1.002,0.184,0.161,137.024,142.028,44.25,0,0,0,
,1.053,0.184,0.124,134.216,99.548,55.847,0,0,0,
,1.078,0.176,0.102,110.168,45.532,73.181,0,0,0,
,1.101,0.155,0.068,67.627,-5.249,107.727,0,0,0,
,1.119,0.128,0.055,12.023,-55.603,135.559,0,0,0,
,1.155,0.104,0.049,-74.585,-83.435,161.01,0,0,0,
,1.276,0.129,0.05,-162.476,-73.609,166.015,0,0,0,
,1.374,0.207,0.05,-216.98,-81.727,153.686,0,0,0,
,1.388,0.285,0.043,-194.275,-171.448,139.099,0,0,0,
,1.263,0.292,0.026,-120.301,-244.751,152.099,0,0,0,
,1.131,0.244,0.008,-53.345,-263.306,176.88,0,0,0,
,1.055,0.194,-0.008,-16.724,-269.654,240.783,0,0,0,
,0.978,0.14,-0.016,12.023,-291.016,315.734,0,0,0,
,0.924,0.093,-0.033,4.455,-282.349,392.456,0,0,0,
,0.943,0.099,-0.07,-43.702,-259.583,436.462,0,0,0,
,1.002,0.111,-0.1,-86.487,-264.771,463.134,0,0,0,
,1.04,0.162,-0.105,-129.883,-278.138,480.774,0,0,0,
,1.07,0.197,-0.116,-119.996,-296.509,460.571,0,0,0,
,1.064,0.213,-0.11,-79.834,-322.693,432.678,0,0,0,
,1.018,0.22,-0.099,-32.654,-335.389,414.672,0,0,0,
,0.957,0.205,-0.092,12.512,-325.623,393.31,0,0,0,
,0.911,0.15,-0.092,30.09,-309.693,386.963,0,0,0,
,0.869,0.11,-0.099,-9.034,-284.119,388.244,0,0,0,
,0.833,0.102,-0.096,-70.069,-261.719,391.174,0,0,0,
,0.792,0.111,-0.083,-132.813,-224.488,378.967,0,0,0,
,0.782,0.129,-0.067,-172.913,-157.654,347.229,0,0,0,
,0.792,0.156,-0.061,-185.791,-131.226,304.199,0,0,0,
,0.784,0.178,-0.058,-174.317,-112.732,245.361,0,0,0,
,0.759,0.188,-0.048,-143.86,-87.708,161.01,0,0,0,
,0.753,0.186,-0.04,-110.23,-53.833,93.139,0,0,0,
,0.765,0.179,-0.033,-90.271,-29.908,8.483,0,0,0,
,0.773,0.167,-0.018,-87.83,-17.029,-62.561,0,0,0,
,0.76,0.162,-0.002,-103.15,-11.292,-128.418,0,0,0,
,0.741,0.161,0.004,-126.526,-8.362,-182.923,0,0,0,
,0.741,0.167,0.004,-154.358,7.141,-229.981,0,0,0,
,0.76,0.171,0.003,-184.876,13,-278.138,0,0,0,
,0.806,0.174,0.013,-225.647,25.817,-317.81,0,0,0,
,0.897,0.184,-0.015,-270.874,46.02,-372.376,0,0,0,
,1.003,0.21,-0.033,-305.298,33.325,-416.626,0,0,0,
,1.027,0.237,-0.034,-320.435,-21.485,-457.825,0,0,0,
,0.962,0.261,-0.009,-311.036,-48.706,-499.329,0,0,0,
,0.895,0.262,0.017,-303.101,-24.17,-502.503,0,0,0,
,0.919,0.244,0.026,-302.002,33.813,-513.062,0,0,0,
,1.002,0.23,0.018,-307.801,68.664,-517.945,0,0,0,
,1.091,0.22,0.008,-339.6,83.435,-525.391,0,0,0,
,1.207,0.209,-0.023,-412.232,105.346,-545.716,0,0,0,
,1.325,0.229,-0.06,-505.249,82.946,-572.388,0,0,0,
,1.317,0.252,-0.057,-582.337,6.897,-575.989,0,0,0,
,1.166,0.272,-0.033,-645.752,-48.34,-553.345,0,0,0,
,1.046,0.281,-0.005,-686.89,-47.059,-516.297,0,0,0,
,0.946,0.302,0.02,-689.698,-34.668,-458.069,0,0,0,
,0.843,0.292,0.042,-646.119,-19.227,-376.282,0,0,0,
,0.796,0.254,0.039,-589.722,26.794,-303.223,0,0,0,
,0.83,0.23,0.015,-545.716,85.022,-232.666,0,0,0,
,0.922,0.231,-0.012,-529.847,99.609,-176.636,0,0,0,
,1,0.244,-0.018,-523.926,73.425,-147.706,0,0,0,
,1.028,0.257,-0.012,-535.95,36.377,-136.048,0,0,0,
,1.022,0.265,-0.006,-550.11,8.667,-144.104,0,0,0,
,0.991,0.281,0.01,-558.289,-8.667,-150.452,0,0,0,
,0.924,0.294,0.039,-528.443,-16.785,-150.269,0,0,0,
,0.861,0.286,0.057,-460.144,3.173,-142.029,0,0,0,
,0.826,0.267,0.07,-395.264,39.367,-122.254,0,0,0,
,0.833,0.254,0.072,-333.435,77.636,-100.403,0,0,0,
,0.862,0.249,0.09,-286.988,97.778,-74.341,0,0,0,
,0.883,0.229,0.123,-254.517,104.553,-51.636,0,0,0,
,0.908,0.196,0.133,-248.719,112.609,-28.565,0,0,0,
,0.925,0.175,0.122,-269.349,105.713,-1.893,0,0,0,
,0.925,0.161,0.101,-310.303,83.923,18.188,0,0,0,
,0.919,0.162,0.098,-351.136,68.298,37.109,0,0,0,
,0.911,0.176,0.113,-383.728,61.706,51.269,0,0,0,
,0.896,0.195,0.133,-361.695,51.147,59.814,0,0,0,
,0.858,0.211,0.161,-338.868,43.09,67.627,0,0,0,
,0.838,0.206,0.172,-291.26,59.448,66.406,0,0,0,
,0.835,0.199,0.185,-240.601,73.852,56.884,0,0,0,
,0.859,0.17,0.201,-180.97,87.768,44.921,0,0,0,
,0.904,0.155,0.212,-146.912,103.576,28.869,0,0,0,
,0.969,0.163,0.212,-125.061,110.168,12.939,0,0,0,
,1.042,0.156,0.211,-124.024,104.614,8.85,0,0,0,
,1.081,0.137,0.197,-176.697,64.331,19.714,0,0,0,
,1.044,0.114,0.159,-271.058,-7.935,40.466,0,0,0,
,0.983,0.104,0.126,-362.549,-42.115,66.894,0,0,0,
,0.986,0.123,0.104,-455.384,-44.678,84.106,0,0,0,
,1.061,0.167,0.087,-504.334,-47.913,93.872,0,0,0,
,1.117,0.199,0.053,-525.452,-94.3,99.487,0,0,0,
,1.18,0.224,0.039,-514.344,-103.089,78.369,0,0,0,
,1.289,0.272,0.055,-467.774,-106.019,40.893,0,0,0,
,1.315,0.319,0.084,-375.611,-178.833,28.747,0,0,0,
,1.161,0.297,0.105,-290.528,-251.221,54.931,0,0,0,
,1.011,0.239,0.108,-238.343,-252.564,95.947,0,0,0,
,0.962,0.194,0.102,-217.102,-199.646,169.677,0,0,0,
,0.993,0.145,0.068,-200.928,-181.336,252.014,0,0,0,
,1.037,0.094,0.033,-222.229,-206.238,346.984,0,0,0,
,1.065,0.109,0,-283.265,-237.671,411.438,0,0,0,
,1.092,0.169,-0.017,-324.402,-271.302,439.087,0,0,0,
,1.117,0.204,-0.025,-307.862,-309.632,432.312,0,0,0,
,1.138,0.212,-0.019,-272.217,-344.422,407.104,0,0,0,
,1.152,0.225,-0.007,-220.765,-372.803,372.436,0,0,0,
,1.119,0.231,-0.004,-167.42,-407.349,336.364,0,0,0,
,1.036,0.204,0.01,-119.08,-430.909,314.636,0,0,0,
,0.968,0.167,0.027,-102.417,-414.734,302.551,0,0,0,
,0.943,0.134,0.012,-123.23,-397.889,306.823,0,0,0,
,0.912,0.1,-0.02,-177.063,-414.002,335.022,0,0,0,
,0.868,0.069,-0.045,-251.404,-421.936,372.985,0,0,0,
,0.829,0.056,-0.077,-346.314,-414.307,400.512,0,0,0,
,0.809,0.077,-0.095,-426.27,-413.514,413.269,0,0,0,
,0.786,0.09,-0.093,-485.169,-407.105,400.268,0,0,0,
,0.752,0.106,-0.067,-524.903,-386.048,356.323,0,0,0,
,0.732,0.133,-0.047,-550.049,-343.323,286.804,0,0,0,
,0.727,0.168,-0.032,-554.017,-293.946,186.218,0,0,0,
,0.718,0.207,-0.013,-535.035,-247.193,63.964,0,0,0,
,0.714,0.226,0,-495.667,-190.613,-60.303,0,0,0,
,0.719,0.236,0.002,-441.102,-129.334,-193.482,0,0,0,
,0.729,0.228,-0.012,-376.099,-87.342,-305.176,0,0,0,
,0.738,0.206,-0.014,-323.426,-59.327,-403.626,0,0,0,
,0.741,0.194,-0.017,-300.965,-40.711,-476.807,0,0,0,
,0.76,0.204,-0.006,-297.608,-3.846,-548.584,0,0,0,
,0.816,0.23,-0.005,-303.956,26.611,-615.052,0,0,0,
,0.871,0.257,0.003,-298.096,32.043,-663.514,0,0,0,
,0.925,0.288,0.012,-288.208,43.151,-710.938,0,0,0,
,0.985,0.308,0.02,-264.222,50.964,-741.578,0,0,0,
,1.017,0.311,0.003,-258.301,31.311,-750.306,0,0,0,
,0.999,0.288,-0.009,-277.527,5.676,-731.08,0,0,0,
,1.001,0.251,-0.029,-338.379,6.53,-704.163,0,0,0,
,1.071,0.214,-0.056,-430.542,26.428,-668.641,0,0,0,
,1.14,0.208,-0.075,-553.711,10.498,-625.611,0,0,0,
,1.207,0.224,-0.075,-686.158,0.854,-585.328,0,0,0,
,1.293,0.244,-0.079,-790.101,12.939,-570.191,0,0,0,
,1.351,0.286,-0.086,-898.926,-6.287,-553.589,0,0,0,
,1.308,0.325,-0.084,-968.873,-38.758,-527.771,0,0,0,
,1.153,0.335,-0.067,-988.892,-59.388,-485.84,0,0,0,
,0.992,0.33,-0.035,-970.52,-51.026,-423.829,0,0,0,
,0.862,0.31,0.016,-897.4,-11.719,-330.689,0,0,0,
,0.775,0.254,0.043,-783.509,44.677,-255.188,0,0,0,
,0.756,0.197,0.047,-693.055,110.839,-163.636,0,0,0,
,0.813,0.169,0.017,-646.851,161.743,-93.811,0,0,0,
,0.908,0.168,-0.025,-631.226,164.001,-46.204,0,0,0,
,0.979,0.166,-0.072,-643.189,132.507,-20.874,0,0,0,
,1.008,0.165,-0.096,-668.457,65.307,-8.973,0,0,0,
,0.997,0.173,-0.075,-701.294,9.277,-9.583,0,0,0,
,0.953,0.194,-0.043,-710.083,-22.644,-23.56,0,0,0,
,0.901,0.217,0.002,-680.054,-31.861,-37.842,0,0,0,
,0.852,0.234,0.051,-604.31,0.244,-53.223,0,0,0,
,0.829,0.234,0.078,-505.799,50.231,-66.346,0,0,0,
,0.826,0.217,0.086,-418.03,100.586,-76.966,0,0,0,
,0.848,0.182,0.083,-364.747,138.916,-82.886,0,0,0,
,0.862,0.165,0.075,-345.826,156.372,-86.06,0,0,0,
,0.884,0.155,0.075,-343.873,169.677,-94.788,0,0,0,
,0.908,0.168,0.08,-348.328,169.433,-108.46,0,0,0,
,0.927,0.195,0.086,-338.318,170.715,-121.277,0,0,0,
,0.936,0.218,0.094,-303.833,169.006,-132.752,0,0,0,
,0.933,0.226,0.117,-243.531,164.367,-155.762,0,0,0,
,0.927,0.227,0.131,-170.35,165.466,-142.518,0,0,0,
,0.92,0.208,0.154,-112,172.363,-137.635,0,0,0,
,0.922,0.193,0.159,-81.971,183.471,-129.395,0,0,0,
,0.92,0.189,0.166,-72.449,180.542,-114.441,0,0,0,
,0.914,0.179,0.165,-73.548,174.316,-96.863,0,0,0,
,0.905,0.169,0.16,-92.469,155.456,-71.289,0,0,0,
,0.889,0.151,0.144,-119.751,132.385,-39.673,0,0,0,
,0.893,0.139,0.127,-160.95,122.985,-10.682,0,0,0,
,0.929,0.148,0.099,-200.501,108.154,13.061,0,0,0,
,0.966,0.173,0.088,-222.901,71.655,36.438,0,0,0,
,0.971,0.192,0.094,-222.352,19.592,58.105,0,0,0,
,0.93,0.17,0.093,-216.187,-33.387,107.788,0,0,0,
,0.929,0.155,0.071,-237.305,-29.236,135.131,0,0,0,
,0.957,0.146,0.039,-264.771,-34.363,150.512,0,0,0,
,0.993,0.161,0.039,-287.964,-39.368,155.334,0,0,0,
,1.041,0.191,0.037,-292.908,-33.265,145.874,0,0,0,
,1.092,0.225,0.029,-269.471,-33.753,126.709,0,0,0,
,1.151,0.238,0.018,-224.488,-33.936,97.168,0,0,0,
,1.202,0.248,0.012,-178.101,-50.11,72.082,0,0,0,
,1.204,0.249,0.024,-137.391,-79.163,62.5,0,0,0,
,1.135,0.241,0.034,-103.516,-110.779,82.092,0,0,0,
,1.068,0.218,0.036,-86.365,-117.798,122.68,0,0,0,
,1.03,0.194,0.033,-83.68,-117.981,188.781,0,0,0,
,0.998,0.153,0.023,-84.839,-136.78,276.55,0,0,0,
,0.96,0.113,0.008,-103.272,-162.415,373.535,0,0,0,
,0.966,0.094,-0.013,-143.494,-156.25,445.312,0,0,0,
,1.029,0.117,-0.037,-181.702,-156.922,500.549,0,0,0,
,1.102,0.161,-0.048,-184.388,-182.19,525.573,0,0,0,
,1.161,0.185,-0.051,-146.729,-227.845,533.447,0,0,0,
,1.175,0.197,-0.055,-99.976,-270.447,525.94,0,0,0,
,1.143,0.203,-0.064,-52.735,-312.5,515.014,0,0,0,
,1.11,0.171,-0.06,-19.959,-329.224,505.188,0,0,0,
,1.066,0.146,-0.066,-13.306,-340.638,503.906,0,0,0,
,1,0.129,-0.059,-29.664,-350.892,512.512,0,0,0,
,0.969,0.114,-0.048,-67.627,-325.074,511.291,0,0,0,
,0.968,0.098,-0.058,-133.179,-312.073,508.789,0,0,0,
,0.921,0.113,-0.053,-193.726,-311.524,497.497,0,0,0,
,0.862,0.153,-0.049,-227.051,-283.204,475.158,0,0,0,
,0.833,0.177,-0.05,-216.675,-249.756,417.663,0,0,0,
,0.81,0.21,-0.035,-191.956,-221.558,348.327,0,0,0,
,0.775,0.252,-0.014,-133.24,-189.454,259.338,0,0,0,
,0.739,0.282,0.037,4.516,-86.243,47.424,0,0,0,
,0.765,0.28,0.041,33.996,-15.87,-56.824,0,0,0,
,0.787,0.299,0.041,48.95,-8.118,-134.4,0,0,0,
,0.766,0.316,0.045,56.701,-10.01,-198.243,0,0,0,
,0.728,0.323,0.049,56.518,0.671,-235.901,0,0,0,
,0.704,0.327,0.049,47.058,20.629,-260.865,0,0,0,
,0.711,0.324,0.04,25.024,44.494,-269.104,0,0,0,
,0.726,0.372,0.039,5.432,65.795,-268.006,0,0,0,
,0.754,0.459,0.027,35.888,89.477,-269.654,0,0,0,
,0.773,0.55,0.051,111.694,111.206,-265.32,0,0,0,
,0.798,0.61,0.103,239.441,157.287,-264.893,0,0,0,
,0.852,0.635,0.146,425.476,227.722,-276.246,0,0,0,
,0.976,0.6,0.158,591.064,312.744,-292.908,0,0,0,
,1.086,0.56,0.175,657.409,343.689,-307.19,0,0,0,
,1.1,0.558,0.211,642.578,336.059,-318.177,0,0,0,
,1.035,0.576,0.241,604.553,328.003,-328.98,0,0,0,
,0.938,0.522,0.228,564.087,309.509,-310.547,0,0,0,
,0.856,0.449,0.207,505.005,273.62,-253.846,0,0,0,
,0.78,0.36,0.175,458.862,245.361,-195.435,0,0,0,
,0.772,0.3,0.195,363.037,204.406,-137.635,0,0,0,
,0.821,0.321,0.206,234.008,208.13,-89.722,0,0,0,
,0.896,0.377,0.197,184.57,198.608,-66.102,0,0,0,
,0.955,0.457,0.175,278.564,151.306,-77.576,0,0,0,
,0.975,0.471,0.17,430.481,103.454,-127.564,0,0,0,
,0.963,0.465,0.172,533.813,89.111,-172.303,0,0,0,
,0.929,0.442,0.148,599.182,96.862,-204.651,0,0,0,
,0.908,0.381,0.119,645.019,118.896,-218.14,0,0,0,
,0.898,0.326,0.076,693.115,148.925,-212.647,0,0,0,
,0.893,0.292,0.041,749.267,170.471,-193.482,0,0,0,
,0.922,0.245,0.017,768.615,185.424,-173.829,0,0,0,
,0.946,0.209,-0.008,742.797,176.33,-153.321,0,0,0,
,0.925,0.205,-0.022,700.317,145.141,-127.015,0,0,0,
,0.898,0.193,-0.044,677.978,136.23,-105.042,0,0,0,
,0.879,0.169,-0.049,669.738,128.112,-78.858,0,0,0,
,0.9,0.077,-0.096,597.534,113.342,-23.499,0,0,0,
,0.864,0.068,-0.118,527.588,82.275,8.728,0,0,0,
,0.865,0.074,-0.135,473.266,103.21,22.033,0,0,0,
,0.943,0.082,-0.144,446.167,129.455,17.944,0,0,0,
,1.013,0.119,-0.115,442.321,120.117,7.446,0,0,0,
,1.042,0.157,-0.114,464.233,102.172,-6.775,0,0,0,
,1.048,0.155,-0.127,490.844,96.618,-26.917,0,0,0,
,1.033,0.141,-0.13,498.169,87.951,-35.096,0,0,0,
,0.989,0.139,-0.131,497.07,89.721,-28.321,0,0,0,
,0.957,0.142,-0.12,494.567,108.154,-12.33,0,0,0,
,0.956,0.161,-0.119,500.61,128.418,6.958,0,0,0,
,0.949,0.194,-0.112,531.005,127.38,22.522,0,0,0,
,0.922,0.224,-0.097,575.439,126.22,31.127,0,0,0,
,0.916,0.254,-0.082,613.647,145.813,28.198,0,0,0,
,0.916,0.261,-0.078,663.879,149.902,17.761,0,0,0,
,0.878,0.292,-0.071,762.756,189.331,-26.368,0,0,0,
,0.869,0.321,-0.039,801.818,218.139,-40.345,0,0,0,
,0.865,0.348,0.002,850.402,253.479,-47.913,0,0,0,
,0.869,0.343,0.014,892.944,283.813,-43.946,0,0,0,
,0.866,0.319,0.019,924.133,308.166,-29.114,0,0,0,
,0.867,0.305,0.015,935.18,330.871,-14.1,0,0,0,
,0.881,0.314,0.007,936.584,347.351,-6.592,0,0,0,
,0.935,0.316,0.006,926.757,348.083,-8.545,0,0,0,
,0.924,0.33,0.012,904.724,345.459,-19.532,0,0,0,
,0.927,0.338,0.028,891.662,335.388,-34.668,0,0,0,
,0.934,0.347,0.036,884.643,329.956,-46.814,0,0,0,
,0.931,0.334,0.031,878.296,319.275,-56.153,0,0,0,
,0.925,0.316,0.04,855.407,305.603,-55.542,0,0,0,
,0.913,0.312,0.042,809.936,299.926,-53.284,0,0,0,
,0.936,0.308,0.05,763.427,295.532,-50.354,0,0,0,
,0.905,0.309,0.045,719.787,283.935,-45.96,0,0,0,
,0.905,0.312,0.031,686.096,274.902,-43.335,0,0,0,
,0.907,0.309,0.025,657.348,255.127,-39.734,0,0,0,
,0.909,0.315,0.014,635.07,235.351,-42.176,0,0,0,
,0.913,0.316,0.004,628.296,220.581,-48.279,0,0,0,
,0.926,0.301,0.004,617.126,209.167,-56.641,0,0,0,
,0.925,0.296,0.009,601.501,189.941,-57.74,0,0,0,
,0.913,0.299,0.015,592.285,176.269,-63.538,0,0,0,
,0.923,0.303,0.007,601.745,168.518,-72.388,0,0,0,
,0.946,0.291,-0.029,605.896,143.615,-62.561,0,0,0,
,0.973,0.262,-0.064,591.125,110.412,-82.215,0,0,0,
,1.004,0.239,-0.09,550.415,71.411,-78.614,0,0,0,
,1.025,0.221,-0.104,494.629,25.512,-70.618,0,0,0,
,1.057,0.199,-0.119,429.992,9.216,-65.796,0,0,0,
,1.108,0.194,-0.065,354.37,-4.395,-64.454,0,0,0,
,1.111,0.207,-0.034,304.138,-34.668,-59.51,0,0,0,
,0.884,0.172,-0.033,240.783,-38.453,31.494,0,0,0,
,0.935,0.171,-0.085,214.721,-30.396,65.918,0,0,0,
,1.017,0.176,-0.088,207.885,-76.783,95.947,0,0,0,
,1.074,0.191,-0.049,222.778,-130.616,108.459,0,0,0,
,1.119,0.193,-0.021,276.611,-244.507,92.956,0,0,0,
,1.101,0.119,0.044,262.695,-366.211,95.52,0,0,0,
,1.026,0.15,0.071,185.669,-364.258,120.727,0,0,0,
,1.016,0.235,0.039,193.603,-277.039,111.999,0,0,0,
,1.047,0.236,0.01,241.394,-203.309,86.181,0,0,0,
,1.013,0.23,0.006,252.38,-129.395,63.598,0,0,0,
,0.931,0.239,-0.005,280.09,-41.199,38.33,0,0,0,
,0.879,0.193,-0.021,323.547,46.02,22.522,0,0,0,
,0.861,0.192,-0.042,366.211,113.708,28.869,0,0,0,
,0.865,0.217,-0.059,449.463,149.658,30.456,0,0,0,
,0.863,0.202,-0.069,547.912,162.78,16.418,0,0,0,
,0.867,0.181,-0.068,605.468,161.193,1.098,0,0,0,
,0.866,0.161,-0.056,630.554,158.935,-22.034,0,0,0,
,0.861,0.153,-0.032,631.958,160.949,-48.34,0,0,0,
,0.869,0.17,0.084,645.691,221.496,-120.179,0,0,0,
,0.883,0.176,0.116,665.527,254.76,-141.053,0,0,0,
,0.901,0.18,0.141,689.087,276.672,-163.941,0,0,0,
,0.907,0.171,0.146,712.524,289.001,-179.932,0,0,0,
,0.936,0.171,0.157,716.797,300.781,-193.116,0,0,0,
,0.946,0.161,0.144,689.819,273.559,-205.323,0,0,0,
,0.931,0.149,0.134,675.354,226.318,-189.881,0,0,0,
,0.906,0.135,0.125,650.573,194.458,-168.03,0,0,0,
,0.91,0.127,0.107,617.797,175.537,-145.386,0,0,0,
,0.942,0.126,0.091,588.012,147.705,-120.423,0,0,0,
,0.983,0.131,0.079,552.551,122.314,-101.014,0,0,0,
,1.068,0.16,0.063,520.935,115.112,-98.084,0,0,0,
,1.149,0.198,0.066,508.606,76.11,-110.779,0,0,0,
,1.16,0.234,0.069,527.893,26.489,-125.794,0,0,0,
,1.134,0.245,0.083,556.396,8.972,-139.161,0,0,0,
,1.092,0.241,0.086,571.655,9.216,-140.87,0,0,0,
,1.047,0.251,0.071,577.392,15.258,-125.611,0,0,0,
,1.004,0.245,0.042,583.068,5.432,-98.45,0,0,0,
,0.968,0.241,0.011,594.116,-1.099,-57.129,0,0,0,
,0.934,0.234,-0.012,598.022,-21.241,-8.606,0,0,0,
,0.898,0.242,-0.029,603.82,-45.105,50.781,0,0,0,
,0.881,0.24,-0.07,616.943,-56.092,101.318,0,0,0,
,0.894,0.255,-0.115,638.916,-54.993,128.601,0,0,0,
,0.933,0.278,-0.119,701.049,-65.735,142.883,0,0,0,
,0.966,0.276,-0.083,758.422,-69.519,134.46,0,0,0,
,0.966,0.269,-0.03,816.04,-67.627,122.436,0,0,0,
,0.928,0.278,0.018,824.096,-52.674,110.962,0,0,0,
,0.878,0.286,0.023,792.419,-18.738,95.336,0,0,0,
,0.852,0.277,0.001,733.825,23.986,75.134,0,0,0,
,0.853,0.259,-0.029,667.846,53.466,69.58,0,0,0,
,0.851,0.266,-0.038,626.342,58.044,74.096,0,0,0,
,0.858,0.284,-0.042,611.816,58.96,73.791,0,0,0,
,0.876,0.3,-0.044,607.422,55.481,64.575,0,0,0,
,0.891,0.304,-0.046,604.98,44.982,48.461,0,0,0,
,0.906,0.286,-0.043,592.468,33.325,31.86,0,0,0,
,0.922,0.27,-0.038,547.729,20.813,21.911,0,0,0,
,0.917,0.266,-0.038,520.08,10.253,19.592,0,0,0,
,0.912,0.276,-0.038,482.238,12.512,22.644,0,0,0,
,0.923,0.278,-0.032,461.486,21.301,26.306,0,0,0,
,0.941,0.279,-0.034,458.984,22.461,36.315,0,0,0,
,0.955,0.277,-0.043,466.98,22.522,48.645,0,0,0,
,0.963,0.268,-0.047,482.605,10.925,58.471,0,0,0,
,0.966,0.253,-0.054,493.652,2.197,67.871,0,0,0,
,0.966,0.239,-0.058,493.652,-2.259,73.913,0,0,0,
,0.98,0.229,-0.044,502.624,-2.564,78.552,0,0,0,
,0.999,0.222,-0.031,508.972,-2.869,76.66,0,0,0,
,1.001,0.211,-0.007,515.075,-4.456,68.298,0,0,0,
,1,0.183,-0.006,514.831,-4.639,61.828,0,0,0,
,1.029,0.143,-0.031,473.083,-0.55,54.26,0,0,0,
,1.083,0.119,-0.055,387.573,-11.109,45.959,0,0,0,
,1.11,0.12,-0.063,290.222,-32.349,37.353,0,0,0,
,1.109,0.133,-0.036,205.017,-44.312,27.16,0,0,0,
,1.031,0.153,0.013,165.161,-43.763,14.77,0,0,0,
,0.992,0.161,0.05,158.203,-26.368,8.361,0,0,0,
,0.917,0.143,0.066,168.701,16.052,4.943,0,0,0,
,0.872,0.127,0.068,179.504,52.368,7.385,0,0,0,
,0.843,0.126,0.053,187.194,78.735,16.052,0,0,0,
,0.83,0.122,0.049,195.922,88.684,25.695,0,0,0,
,0.835,0.124,0.029,207.214,91.735,31.005,0,0,0,
,0.87,0.133,0.008,226.135,92.407,30.456,0,0,0,
,0.921,0.145,0.01,249.633,88.989,23.925,0,0,0,
,0.965,0.153,0.015,280.944,79.162,5.615,0,0,0,
,0.987,0.158,0.024,307.19,73.608,-19.715,0,0,0,
,0.987,0.164,0.035,316.772,79.04,-38.758,0,0,0,
,0.954,0.164,0.029,330.932,91.796,-53.284,0,0,0,
,0.921,0.145,0.03,344.787,115.356,-51.758,0,0,0,
,0.896,0.133,0.024,354.309,143.493,-38.575,0,0,0,
,0.888,0.149,0.026,365.051,174.255,-32.532,0,0,0,
,0.896,0.16,0.038,383.972,193.359,-36.316,0,0,0,
,0.931,0.156,0.043,402.526,210.083,-64.27,0,0,0,
,0.944,0.157,0.041,392.456,204.101,-71.656,0,0,0,
,0.945,0.156,0.045,384.094,197.815,-72.693,0,0,0,
,0.923,0.165,0.06,383.545,193.42,-78.125,0,0,0,
,0.906,0.176,0.071,386.23,201.721,-86.731,0,0,0,
,0.899,0.193,0.079,414.306,214.355,-98.511,0,0,0,
,0.898,0.201,0.087,450.805,221.862,-106.507,0,0,0,
,0.898,0.197,0.094,480.163,225.891,-105.53,0,0,0,
,0.904,0.183,0.095,498.718,227.478,-100.22,0,0,0,
,0.912,0.177,0.095,500.854,215.881,-89.295,0,0,0,
,0.904,0.173,0.093,490.539,192.627,-63.05,0,0,0,
,0.904,0.165,0.084,475.525,176.391,-39.185,0,0,0,
,0.914,0.154,0.077,458.13,154.663,-11.475,0,0,0,
,0.939,0.156,0.072,441.711,140.625,13.794,0,0,0,
,0.982,0.163,0.068,419.983,116.821,33.203,0,0,0,
,1.02,0.162,0.062,393.982,83.252,49.865,0,0,0,
,1.075,0.15,0.036,348.266,62.316,55.175,0,0,0,
,1.165,0.157,0.012,295.41,52.673,44.189,0,0,0,
,1.222,0.191,0.009,254.394,4.455,27.832,0,0,0,
,1.183,0.22,0.03,238.342,-56.092,18.554,0,0,0,
,1.104,0.214,0.029,235.595,-59.937,10.986,0,0,0,
,1.055,0.204,0.012,213.317,-53.162,18.554,0,0,0,
,0.998,0.214,-0.009,191.101,-61.097,46.142,0,0,0,
,0.905,0.21,-0.017,189.88,-70.618,72.387,0,0,0,
,0.821,0.226,-0.012,209.838,-53.223,98.449,0,0,0,
,0.797,0.259,-0.012,252.502,-10.01,110.168,0,0,0,
,0.849,0.296,-0.018,328.247,42.968,105.407,0,0,0,
,0.929,0.327,-0.029,426.208,66.711,84.228,0,0,0,
,1.006,0.336,-0.019,548.462,73.608,52.978,0,0,0,
,1.045,0.308,-0.02,634.643,47.668,20.874,0,0,0,
,1.049,0.267,-0.032,664.672,48.645,5.371,0,0,0,
,1.025,0.231,-0.056,639.77,19.714,7.263,0,0,0,
,0.987,0.211,-0.073,574.951,-16.114,25.817,0,0,0,
,0.937,0.197,-0.07,490.539,-52.063,58.41,0,0,0,
,0.886,0.191,-0.062,416.565,-62.378,93.383,0,0,0,
,0.869,0.202,-0.044,349.792,-59.021,120.483,0,0,0,
,0.866,0.232,-0.047,309.448,-56.031,130.371,0,0,0,
,0.862,0.254,-0.043,293.823,-53.589,126.587,0,0,0,
,0.859,0.27,-0.054,291.259,-44.739,111.023,0,0,0,
,0.868,0.282,-0.065,298.767,-39.063,98.571,0,0,0,
,0.87,0.286,-0.074,318.786,-39.673,89.66,0,0,0,
,0.863,0.282,-0.081,329.284,-37.781,83.129,0,0,0,
,0.855,0.281,-0.074,330.139,-32.105,82.885,0,0,0,
,0.847,0.276,-0.052,339.904,-18.372,86.12,0,0,0,
,0.84,0.277,-0.036,349.426,-2.442,87.524,0,0,0,
,0.84,0.272,-0.034,355.529,11.047,92.102,0,0,0,
,0.859,0.273,-0.036,358.215,22.522,82.031,0,0,0,
,0.902,0.276,-0.042,358.459,28.198,65.979,0,0,0,
,0.951,0.277,-0.044,358.337,21.789,42.48,0,0,0,
,0.987,0.277,-0.042,362.121,5.859,17.517,0,0,0,
,0.999,0.261,-0.029,363.098,-15.076,-0.794,0,0,0,
,0.991,0.234,-0.031,340.881,-34.119,-10.437,0,0,0,
,0.995,0.211,-0.027,294.433,-28.687,-11.048,0,0,0,
,1.048,0.197,-0.043,231.628,-14.893,-14.222,0,0,0,
,1.14,0.169,-0.067,140.442,-4.7,-26.307,0,0,0,
,1.225,0.18,-0.07,43.518,1.403,-56.336,0,0,0,
,1.21,0.233,-0.001,-38.758,-20.325,-89.722,0,0,0,
,1.048,0.26,0.033,-50.965,-43.03,-105.652,0,0,0,
,0.891,0.236,0.068,-20.264,5.615,-98.877,0,0,0,
,0.827,0.207,0.068,12.512,99.243,-71.412,0,0,0,
,0.83,0.185,0.045,63.598,156.677,-27.955,0,0,0,
,0.826,0.164,0.032,116.76,166.931,9.338,0,0,0,
,0.834,0.145,0.04,153.808,181.152,32.409,0,0,0,
,0.875,0.147,0.056,191.284,201.965,29.419,0,0,0,
,0.947,0.163,0.067,239.502,204.162,12.023,0,0,0,
,0.995,0.16,0.083,284.057,182.495,-19.349,0,0,0,
,1.011,0.148,0.079,297.302,165.832,-51.209,0,0,0,
,1.03,0.134,0.069,293.579,160.278,-81.727,0,0,0,
,1.031,0.124,0.066,287.414,137.756,-97.657,0,0,0,
,0.989,0.121,0.07,281.372,108.032,-90.516,0,0,0,
,0.945,0.109,0.08,271.24,106.14,-75.379,0,0,0,
,0.932,0.104,0.076,253.723,107.422,-59.815,0,0,0,
,0.936,0.101,0.078,225.097,104.004,-42.054,0,0,0,
,0.933,0.128,0.074,215.759,98.877,-25.208,0,0,0,
,0.921,0.148,0.069,239.563,92.224,-19.715,0,0,0,
,0.911,0.134,0.074,260.925,90.026,-21.607,0,0,0,
,0.898,0.124,0.067,262.573,94.909,-18.738,0,0,0,
,0.885,0.129,0.072,257.812,103.881,-18.189,0,0,0,
,0.886,0.139,0.074,269.043,117.248,-29.358,0,0,0,
,0.893,0.124,0.083,273.559,130.127,-51.026,0,0,0,
,0.884,0.137,0.088,269.348,142.639,-71.839,0,0,0,
,0.882,0.164,0.09,286.865,162.475,-97.962,0,0,0,
,0.887,0.165,0.089,321.106,171.508,-114.563,0,0,0,
,0.881,0.157,0.09,348.327,169.128,-121.644,0,0,0,
,0.869,0.155,0.095,358.947,171.875,-117.005,0,0,0,
,0.872,0.159,0.091,356.689,178.039,-113.038,0,0,0,
,0.892,0.16,0.095,358.52,175.415,-107.911,0,0,0,
,0.908,0.175,0.106,364.074,166.198,-101.136,0,0,0,
,0.931,0.186,0.113,374.939,157.959,-102.356,0,0,0,
,0.96,0.189,0.115,388.855,146.789,-101.807,0,0,0,
,0.988,0.18,0.108,382.019,129.882,-97.229,0,0,0,
,1.012,0.178,0.097,359.863,103.637,-84.656,0,0,0,
,1.025,0.184,0.082,327.026,74.646,-62.134,0,0,0,
,1.029,0.179,0.06,285.705,36.254,-27.588,0,0,0,
,1.026,0.167,0.052,238.769,7.141,16.723,0,0,0,
,1.028,0.168,0.046,179.443,-4.029,63.354,0,0,0,
,1.072,0.186,0.044,139.343,10.07,96.679,0,0,0,
,1.161,0.223,0.028,112.915,31.127,97.29,0,0,0,
,1.229,0.271,0.046,122.68,22.705,71.716,0,0,0,
,1.171,0.323,0.09,171.692,-15.564,51.086,0,0,0,
,1.003,0.322,0.098,247.802,-18.128,29.419,0,0,0,
,0.894,0.288,0.066,309.448,8.239,28.503,0,0,0,
,0.844,0.265,0.026,347.839,26.611,56.152,0,0,0,
,0.84,0.243,-0.024,378.418,29.602,96.191,0,0,0,
,0.88,0.222,-0.045,407.531,28.381,130.798,0,0,0,
,0.948,0.244,-0.027,419.006,11.657,148.62,0,0,0,
,1,0.27,0.006,442.443,-8.973,140.442,0,0,0,
,1.026,0.269,0.022,471.618,-34.363,115.112,0,0,0,
,1.018,0.256,0.032,465.759,-50.843,101.44,0,0,0,
,0.982,0.248,0.009,435.852,-60.303,86.181,0,0,0,
,0.937,0.243,-0.015,416.259,-69.031,90.21,0,0,0,
,0.92,0.227,-0.033,389.221,-74.585,107.788,0,0,0,
,0.91,0.224,-0.041,359.802,-92.102,136.413,0,0,0,
,0.904,0.221,-0.045,342.773,-106.812,164.795,0,0,0,
,0.895,0.221,-0.036,325.012,-127.747,182.739,0,0,0,
,0.874,0.218,-0.026,302.002,-134.827,195.19,0,0,0,
,0.858,0.218,-0.018,272.277,-136.292,193.237,0,0,0,
,0.843,0.227,-0.01,245.788,-124.695,179.809,0,0,0,
,0.835,0.233,-0.005,227.6,-109.375,162.963,0,0,0,
,0.842,0.243,0.001,216.125,-90.455,137.39,0,0,0,
,0.853,0.249,0.002,211.12,-74.402,109.863,0,0,0,
,0.85,0.239,0.003,206.115,-78.003,84.045,0,0,0,
,0.839,0.229,0.004,190.368,-71.412,61.34,0,0,0,
,0.843,0.23,0.007,165.954,-59.021,41.687,0,0,0,
,0.859,0.234,0.007,143.676,-56.336,22.155,0,0,0,
,0.871,0.237,0.012,125.122,-58.716,4.76,0,0,0,
,0.888,0.24,0.016,104.98,-46.814,-11.17,0,0,0,
,0.924,0.234,0.01,92.224,-36.988,-29.847,0,0,0,
,0.948,0.222,0.001,54.565,-36.438,-42.542,0,0,0,
,0.958,0.215,-0.001,12.39,-29.664,-53.528,0,0,0,
,0.939,0.215,0.009,-28.565,-26.001,-56.763,0,0,0,
,0.896,0.226,0.033,-50.049,0.61,-58.167,0,0,0,
,0.868,0.232,0.044,-45.899,45.959,-62.806,0,0,0,
,0.881,0.226,0.054,-30.518,77.514,-76.416,0,0,0,
,0.934,0.209,0.053,-13.672,111.755,-101.685,0,0,0,
,0.978,0.194,0.047,0.732,122.741,-131.348,0,0,0,
,1.058,0.168,0.031,-14.649,149.841,-182.19,0,0,0,
,1.168,0.142,0.016,-68.491,14645.214,5112.415,0,0,0,
,1.068,0.119,0.078,-229.248,70.739,-367.066,0,0,0,
,0.9,0.12,0.101,-268.555,104.614,-397.461,0,0,0,
,0.812,0.16,0.111,-242.737,162.719,-403.626,0,0,0,
,0.795,0.173,0.124,-141.541,218.933,-388.855,0,0,0,
,0.815,0.163,0.129,-21.729,261.169,-361.634,0,0,0,
,1.1,0.135,0.122,160.949,276.611,-310.669,0,0,0,
,1.152,0.118,0.113,147.155,218.261,-301.758,0,0,0,
,1.154,0.108,0.107,84.106,158.935,-279.053,0,0,0,
,1.102,0.11,0.102,15.991,101.501,-243.958,0,0,0,
,1.017,0.118,0.114,-45.411,54.138,-194.886,0,0,0,
,0.943,0.116,0.129,-75.806,36.804,-137.391,0,0,0,
,0.9,0.122,0.134,-81.665,48.645,-83.069,0,0,0,
,0.893,0.134,0.138,-83.313,58.96,-41.26,0,0,0,
,0.901,0.148,0.133,-83.558,62.561,-15.442,0,0,0,
,0.9,0.173,0.122,-67.627,59.875,-9.766,0,0,0,
,0.897,0.184,0.11,-28.687,52.246,-11.231,0,0,0,
,0.886,0.18,0.103,23.376,39.245,-15.625,0,0,0,
,0.895,0.166,0.113,137.939,56.579,-49.195,0,0,0,
,0.903,0.164,0.125,152.893,68.42,-78.064,0,0,0,
,0.898,0.162,0.131,159.729,74.035,-69.397,0,0,0,
,0.879,0.166,0.135,166.687,79.04,-71.289,0,0,0,
,0.857,0.164,0.131,178.65,97.168,-65.735,0,0,0,
,0.933,0.202,0.115,263.672,112.915,-48.768,0,0,0,
,0.97,0.197,0.121,303.955,104.736,-50.049,0,0,0,
,1.003,0.184,0.121,327.453,92.468,-46.387,0,0,0,
,1.011,0.171,0.116,330.017,61.401,-31.922,0,0,0,
,0.994,0.156,0.115,316.589,39.306,-5.127,0,0,0,
,0.975,0.142,0.112,287.231,26.733,32.775,0,0,0,
,0.98,0.135,0.098,249.694,22.827,75.744,0,0,0,
,1.012,0.135,0.081,208.679,27.71,112.976,0,0,0,
,1.057,0.158,0.066,185.058,16.906,142.7,0,0,0,
,1.104,0.177,0.052,181.152,15.747,143.249,0,0,0,
,1.174,0.209,0.046,197.082,27.587,117.614,0,0,0,
,1.006,0.25,0.064,354.98,-39.917,37.292,0,0,0,
,0.91,0.219,0.04,384.765,-10.987,43.945,0,0,0,
,0.869,0.209,0.019,399.414,-1.709,68.725,0,0,0,
,0.848,0.196,-0.001,419.006,1.464,103.942,0,0,0,
,0.859,0.189,-0.017,433.96,5.798,130.92,0,0,0,
,0.983,0.24,-0.027,511.047,-24.109,92.651,0,0,0,
,0.995,0.249,-0.032,555.053,-22.95,58.715,0,0,0,
,1.011,0.263,-0.048,586.181,-21.363,20.324,0,0,0,
,1.004,0.247,-0.053,614.196,-34.058,-2.198,0,0,0,
,0.979,0.231,-0.061,615.112,-39.551,-8.973,0,0,0,
,0.963,0.223,-0.07,592.59,-41.871,-1.709,0,0,0,
,0.948,0.211,-0.086,561.95,-58.045,22.461,0,0,0,
,0.927,0.198,-0.097,519.592,-74.707,57.617,0,0,0,
,0.915,0.207,-0.103,475.83,-83.924,91.919,0,0,0,
,0.906,0.214,-0.109,439.941,-96.07,121.338,0,0,0,
,0.889,0.255,-0.074,394.47,-69.153,131.836,0,0,0,
,0.882,0.267,-0.062,401.245,-44.373,117.187,0,0,0,
,0.884,0.277,-0.053,417.907,-13.977,98.449,0,0,0,
,0.883,0.271,-0.057,435.669,5.493,83.801,0,0,0,
,0.88,0.26,-0.048,442.443,23.925,73.181,0,0,0,
,0.903,0.248,-0.042,413.025,31.127,71.044,0,0,0,
,0.916,0.251,-0.031,400.085,27.465,72.57,0,0,0,
,0.941,0.241,-0.026,388.305,16.601,72.021,0,0,0,
,0.968,0.234,-0.023,362.121,10.437,73.608,0,0,0,
,0.988,0.226,-0.025,330.627,-0.245,73.669,0,0,0,
,0.988,0.22,-0.012,301.574,-14.71,77.331,0,0,0,
,0.978,0.213,-0.002,260.681,-8.484,78.796,0,0,0,
,0.973,0.203,0.007,218.444,2.441,78.918,0,0,0,
,0.95,0.194,0.025,175.842,7.507,83.923,0,0,0,
,0.921,0.193,0.045,139.587,33.325,88.44,0,0,0,
,0.92,0.199,0.059,116.272,66.833,79.162,0,0,0,
,0.95,0.193,0.066,105.713,92.407,63.293,0,0,0,
,1.009,0.173,0.043,98.816,115.539,31.86,0,0,0,
,1.099,0.174,0.017,71.472,143.493,-8.667,0,0,0,
,1.17,0.182,0.009,35.766,123.718,-73.304,0,0,0,
,1.107,0.198,0.054,1.831,71.96,-121.949,0,0,0,
,0.933,0.189,0.09,-12.574,53.894,-152.466,0,0,0,
,0.754,0.119,0.085,51.269,178.955,-89.539,0,0,0,
,0.775,0.109,0.074,76.721,210.327,-52.063,0,0,0,
,0.883,0.123,0.054,81.909,245.361,-37.354,0,0,0,
,1.008,0.158,0.043,108.581,237.976,-43.946,0,0,0,
,1.112,0.18,0.055,157.226,201.904,-67.566,0,0,0,
,1.143,0.174,0.069,198.12,155.639,-92.102,0,0,0,
,1.084,0.156,0.085,216.003,116.76,-103.638,0,0,0,
,0.977,0.132,0.098,221.13,118.591,-95.276,0,0,0,
,0.907,0.111,0.101,211.242,137.817,-77.942,0,0,0,
,0.866,0.11,0.103,204.04,171.569,-46.509,0,0,0,
,0.866,0.132,0.104,209.289,199.401,-31.861,0,0,0,
,0.892,0.145,0.102,232.666,214.355,-32.959,0,0,0,
,0.898,0.158,0.096,278.137,196.96,-50.843,0,0,0,
,0.897,0.142,0.11,286.804,177.612,-79.041,0,0,0,
,0.881,0.171,0.099,309.204,187.317,-91.919,0,0,0,
,0.88,0.159,0.089,340.026,177.795,-129.639,0,0,0,
,0.885,0.118,0.091,324.707,178.222,-148.377,0,0,0,
,0.893,0.137,0.096,273.254,188.476,-155.091,0,0,0,
,0.906,0.175,0.102,257.263,190.49,-164.002,0,0,0,
,0.913,0.196,0.111,278.381,186.462,-175.538,0,0,0,
,0.906,0.185,0.118,296.142,178.772,-181.946,0,0,0,
,0.901,0.187,0.128,295.654,176.452,-175.599,0,0,0,
,0.902,0.18,0.144,296.386,168.335,-164.49,0,0,0,
,0.925,0.159,0.178,278.381,159.057,-149.109,0,0,0,
,0.956,0.135,0.19,223.51,139.77,-128.296,0,0,0,
,0.969,0.123,0.168,139.282,96.313,-103.516,0,0,0,
,0.959,0.123,0.133,49.194,41.503,-69.825,0,0,0,
,0.958,0.142,0.112,-21.302,-10.682,-35.096,0,0,0,
,0.966,0.167,0.098,-61.463,-57.19,5.127,0,0,0,
,0.983,0.175,0.092,-75.074,-89.234,55.603,0,0,0,
,1.003,0.182,0.074,-71.045,-124.024,109.924,0,0,0,
,1.022,0.183,0.051,-53.345,-149.353,158.081,0,0,0,
,1.041,0.188,0.037,-35.95,-151.612,190.063,0,0,0,
,1.106,0.194,0.027,-13.916,-126.648,194.458,0,0,0,
,1.173,0.207,0.048,20.874,-105.957,181.335,0,0,0,
,1.193,0.248,0.077,60.424,-96.314,151.367,0,0,0,
,1.173,0.289,0.096,113.098,-62.989,100.402,0,0,0,
,1.131,0.283,0.078,178.466,-29.908,49.865,0,0,0,
,1.042,0.263,0.041,237.732,-17.151,25.817,0,0,0,
,0.938,0.244,0.023,277.404,-19.349,46.386,0,0,0,
,0.833,0.228,0.015,313.842,-14.954,57.8,0,0,0,
,0.791,0.206,-0.006,336.67,30.944,88.44,0,0,0,
,0.833,0.205,-0.032,357.055,46.325,113.281,0,0,0,
,0.911,0.241,-0.021,381.775,36.987,125.671,0,0,0,
,0.955,0.26,0.007,431.945,20.69,115.417,0,0,0,
,0.988,0.267,0.021,491.394,15.625,86.425,0,0,0,
,1.027,0.251,0.009,510.864,12.146,57.006,0,0,0,
,1.033,0.232,-0.003,499.267,-13.733,45.044,0,0,0,
,0.981,0.213,-0.016,476.623,-48.157,56.274,0,0,0,
,0.929,0.187,-0.02,425.293,-68.116,83.923,0,0,0,
,0.902,0.17,-0.032,344.055,-70.252,129.333,0,0,0,
,0.895,0.163,-0.039,289.978,-89.783,186.645,0,0,0,
,0.873,0.168,-0.036,222.534,-103.333,211.853,0,0,0,
,0.855,0.194,-0.03,169.983,-105.164,225.097,0,0,0,
,0.847,0.203,-0.027,143.432,-99.976,225.036,0,0,0,
,0.833,0.215,-0.022,133.789,-90.455,210.388,0,0,0,
,0.829,0.225,-0.027,133.422,-65.369,173.889,0,0,0,
,0.84,0.241,-0.019,145.568,-38.025,156.616,0,0,0,
,0.838,0.243,-0.004,168.274,-22.156,119.812,0,0,0,
,0.82,0.239,0.003,189.88,-1.038,89.843,0,0,0,
,0.818,0.227,0.002,201.782,24.353,64.453,0,0,0,
,0.84,0.223,-0.001,203.613,46.508,44.189,0,0,0,
,0.876,0.223,-0.005,198.181,53.649,26.184,0,0,0,
,0.92,0.222,-0.005,186.767,55.664,4.455,0,0,0,
,0.978,0.222,-0.006,165.832,57.067,-16.358,0,0,0,
,1.018,0.226,0,145.63,44.311,-37.964,0,0,0,
,1.03,0.217,0.01,118.042,21.972,-48.34,0,0,0,
,0.998,0.203,0.023,83.129,13.305,-46.509,0,0,0,
,0.965,0.188,0.059,37.841,21.484,-38.147,0,0,0,
,0.967,0.18,0.03,-27.222,54.321,-32.776,0,0,0,
,1.018,0.198,0.03,-83.374,89.477,-60.669,0,0,0,
,1.069,0.23,0.037,-107.3,111.084,-77.149,0,0,0,
,1.091,0.254,0.06,-84.595,121.032,-123.536,0,0,0,
,1.078,0.267,0.086,-49.805,138.61,-168.885,0,0,0,
,1.015,0.251,0.114,-22.217,140.625,-203.431,0,0,0,
,0.869,0.212,0.165,32.959,205.078,-160.95,0,0,0,
,0.863,0.207,0.165,64.148,207.397,-131.409,0,0,0,
,0.874,0.205,0.154,100.158,198.852,-98.511,0,0,0,
,0.904,0.197,0.142,121.521,181.579,-80.872,0,0,0,
,1.061,0.183,0.111,94.055,63.476,-59.082,0,0,0,
,1.055,0.192,0.131,77.209,22.461,-48.462,0,0,0,
,1.016,0.205,0.167,55.419,-7.752,-29.664,0,0,0,
,0.958,0.208,0.19,44.555,-6.775,2.99,0,0,0,
,0.937,0.189,0.206,8.667,-2.93,34.545,0,0,0,
,0.927,0.194,0.22,-15.686,-4.761,76.477,0,0,0,
,0.917,0.217,0.192,6.53,1.831,112.976,0,0,0,
,0.911,0.228,0.187,27.648,-18.189,119.567,0,0,0,
,0.907,0.228,0.178,60.302,-32.227,106.872,0,0,0,
,0.905,0.245,0.154,102.722,-40.223,92.956,0,0,0,
,0.896,0.239,0.137,156.799,-60.303,57.251,0,0,0,
,0.873,0.225,0.131,207.275,-67.566,43.884,0,0,0,
,0.852,0.202,0.138,226.013,-57.923,33.752,0,0,0,
,0.812,0.19,0.158,181.152,-38.392,46.508,0,0,0,
,0.827,0.21,0.172,117.309,-14.954,66.284,0,0,0,
,0.813,0.253,0.178,59.326,15.991,97.229,0,0,0,
,0.819,0.275,0.16,12.268,49.011,125.976,0,0,0,
,0.848,0.282,0.151,-31.006,65.551,144.165,0,0,0,
,0.88,0.297,0.146,-89.966,86.547,184.387,0,0,0,
,0.894,0.361,0.15,-129.517,86.914,219.055,0,0,0,
,0.902,0.4,0.145,-84.778,83.923,225.036,0,0,0,
,0.919,0.423,0.137,8.117,76.416,224.731,0,0,0,
,0.926,0.42,0.115,137.024,50.903,220.337,0,0,0,
,0.91,0.378,0.062,241.333,20.446,221.74,0,0,0,
,0.916,0.322,0.08,291.748,16.418,230.896,0,0,0,
,0.973,0.304,0.064,279.113,35.034,230.957,0,0,0,
,1.034,0.327,0.068,262.329,38.33,207.519,0,0,0,
,1.062,0.375,0.086,261.047,41.137,169.006,0,0,0,
,1.07,0.403,0.116,281.616,48.95,125.854,0,0,0,
,1.048,0.434,0.119,291.198,73.608,104.858,0,0,0,
,1.007,0.435,0.091,309.57,84.106,100.891,0,0,0,
,0.949,0.4,0.063,326.355,84.655,114.38,0,0,0,
,0.904,0.388,0.05,325.866,87.341,147.033,0,0,0,
,0.884,0.376,0.044,330.749,86.975,172.973,0,0,0,
,0.909,0.36,0.035,310.608,85.815,205.993,0,0,0,
,0.933,0.353,0.002,266.54,43.151,229.797,0,0,0,
,0.911,0.327,-0.025,233.642,-12.635,246.338,0,0,0,
,0.888,0.297,-0.046,200.805,-40.65,246.948,0,0,0,
,0.947,0.287,-0.084,117.736,-70.74,196.594,0,0,0,
,0.959,0.302,-0.089,79.345,-97.596,153.564,0,0,0,
,0.946,0.314,-0.084,43.335,-115.052,107.116,0,0,0,
,0.921,0.306,-0.079,15.38,-117.676,68.298,0,0,0,
,0.875,0.273,-0.08,-3.602,-102.173,42.114,0,0,0,
,0.832,0.219,-0.08,-20.447,-76.905,34.179,0,0,0,
,0.799,0.236,-0.091,-31.373,-43.091,29.724,0,0,0,
,0.784,0.225,-0.097,-50.721,-8.789,21.85,0,0,0,
,0.784,0.211,-0.104,-69.886,23.01,2.014,0,0,0,
,0.795,0.218,-0.103,-83.863,42.358,-32.044,0,0,0,
,0.791,0.235,-0.098,-78.614,54.199,-79.59,0,0,0,
,0.784,0.249,-0.082,-61.341,72.448,-135.987,0,0,0,
,0.813,0.256,-0.084,-37.781,98.144,-194.214,0,0,0,
,0.918,0.252,-0.088,54.809,107.483,-304.688,0,0,0,
,0.967,0.24,-0.084,96.984,94.726,-347.352,0,0,0,
,1.014,0.229,-0.067,116.516,77.819,-384.705,0,0,0,
,1.036,0.226,-0.031,120.056,51.33,-407.654,0,0,0,
,1.012,0.21,0.008,117.797,21.301,-413.147,0,0,0,
,1.002,0.161,0.016,87.768,20.69,-403.504,0,0,0,
,1.075,0.105,-0.029,-12.635,32.287,-394.349,0,0,0,
,1.188,0.045,-0.081,-175.843,11.23,-380.799,0,0,0,
,1.221,0.045,-0.077,-382.935,-55.054,-365.967,0,0,0,
,1.138,0.072,-0.017,-584.656,-116.517,-355.896,0,0,0,
,1.058,0.096,0.032,-771.424,-100.281,-355.164,0,0,0,
,1.02,0.139,0.064,-876.831,-60.791,-354.065,0,0,0,
,0.99,0.184,0.071,-906.678,-27.1,-345.765,0,0,0,
,0.949,0.202,0.07,-856.324,3.54,-342.591,0,0,0,
,0.942,0.192,0.063,-786.133,38.024,-342.408,0,0,0,
,0.947,0.186,0.048,-728.516,46.936,-347.962,0,0,0,
,0.948,0.186,0.04,-686.707,35.949,-361.695,0,0,0,
,0.951,0.186,0.042,-648.621,21.789,-382.874,0,0,0,
,0.947,0.179,0.044,-626.709,-3.663,-404.908,0,0,0,
,0.931,0.168,0.037,-633.301,-38.514,-423.584,0,0,0,
,0.923,0.148,0.024,-671.021,-64.515,-435.059,0,0,0,
,0.935,0.141,0.011,-727.784,-84.107,-435.242,0,0,0,
,0.953,0.143,-0.004,-803.894,-98.633,-424.256,0,0,0,
,0.973,0.151,-0.017,-872.742,-121.277,-400.33,0,0,0,
,0.983,0.166,-0.035,-935.791,-134.827,-380.249,0,0,0,
,0.956,0.2,-0.06,-1053.895,-131.714,-309.327,0,0,0,
,0.929,0.216,-0.047,-1047.425,-113.953,-280.884,0,0,0,
,0.906,0.224,-0.046,-1019.166,-79.224,-254.151,0,0,0,
,0.9,0.218,-0.047,-953.736,-41.138,-227.234,0,0,0,
,0.903,0.221,-0.042,-910.279,-4.822,-188.416,0,0,0,
,0.911,0.222,-0.036,-846.009,26.123,-186.402,0,0,0,
,0.876,0.219,-0.03,-786.194,42.907,-173.401,0,0,0,
,0.897,0.211,-0.024,-728.821,57.922,-159.852,0,0,0,
,0.888,0.192,-0.014,-693.177,68.176,-143.372,0,0,0,
,0.886,0.166,-0.013,-683.716,71.655,-125.184,0,0,0,
,0.908,0.135,-0.005,-717.408,81.665,-112.244,0,0,0,
,0.932,0.161,0.005,-764.466,79.773,-87.708,0,0,0,
,0.922,0.196,-0.008,-763.611,83.007,-77.393,0,0,0,
,0.916,0.181,0.014,-753.968,80.749,-89.112,0,0,0,
,0.921,0.147,0.039,-783.143,103.82,-80.323,0,0,0,
,0.905,0.144,0.039,-870.24,107.788,-68.787,0,0,0,
,0.892,0.217,0.057,-860.047,134.765,-49.927,0,0,0,
,0.913,0.248,0.055,-783.265,176.025,-53.65,0,0,0,
,0.995,0.247,0.063,-697.266,199.524,-85.389,0,0,0,
,1.011,0.235,0.099,-637.146,218.322,-99.488,0,0,0,
,1.029,0.28,0.12,-581.788,228.332,-101.319,0,0,0,
,1.02,0.286,0.132,-481.507,217.102,-103.333,0,0,0,
,0.986,0.229,0.134,-412.11,189.453,-90.21,0,0,0,
,0.957,0.186,0.122,-421.265,165.222,-59.266,0,0,0,
,0.955,0.162,0.117,-471.314,127.136,-20.142,0,0,0,
,0.961,0.148,0.107,-524.537,91.247,34.362,0,0,0,
,0.982,0.143,0.084,-586.67,40.344,79.711,0,0,0,
,1.01,0.157,0.059,-618.287,-19.288,121.948,0,0,0,
,1.018,0.157,0.05,-653.626,-88.746,147.644,0,0,0,
,0.99,0.174,0.027,-702.637,-147.339,167.358,0,0,0,
,0.991,0.197,0.016,-721.558,-168.885,164.489,0,0,0,
,1.023,0.213,0.018,-706.727,-187.867,156.005,0,0,0,
,1.064,0.243,0.027,-668.885,-200.196,141.54,0,0,0,
,1.1,0.275,0.029,-603.882,-205.018,120.117,0,0,0,
,1.109,0.272,0.019,-537.171,-224.244,101.562,0,0,0,
,1.073,0.243,0.017,-479.126,-237.854,95.52,0,0,0,
,1.023,0.221,0.017,-449.097,-227.478,103.393,0,0,0,
,0.999,0.209,0.022,-424.561,-210.267,120.727,0,0,0,
,0.992,0.198,0.019,-408.081,-197.266,138.122,0,0,0,
,0.993,0.205,0.033,-394.715,-182.862,152.893,0,0,0,
,1.008,0.213,0.052,-377.808,-175.965,154.907,0,0,0,
,1.025,0.215,0.056,-355.042,-183.289,148.742,0,0,0,
,1.023,0.211,0.048,-330.811,-201.539,145.874,0,0,0,
,0.994,0.199,0.041,-317.139,-231.324,145.935,0,0,0,
,0.962,0.184,0.033,-308.777,-261.292,150.879,0,0,0,
,0.939,0.168,0.025,-314.026,-284.363,159.912,0,0,0,
,0.932,0.153,0.03,-338.379,-306.031,172.607,0,0,0,
,0.928,0.148,0.035,-372.864,-320.374,177.978,0,0,0,
,0.923,0.145,0.044,-418.58,-334.656,180.542,0,0,0,
,0.919,0.147,0.047,-455.75,-339.966,180.053,0,0,0,
,0.907,0.152,0.041,-489.624,-343.75,169.738,0,0,0,
,0.897,0.155,0.022,-513.855,-348.206,158.325,0,0,0,
,0.888,0.156,0.004,-532.227,-354.004,143.066,0,0,0,
,0.885,0.151,-0.01,-550.11,-352.906,123.108,0,0,0,
,0.905,0.149,-0.025,-574.707,-351.197,98.449,0,0,0,
,0.904,0.155,-0.019,-599.488,-361.451,68.603,0,0,0,
,0.874,0.161,-0.006,-617.798,-363.404,33.935,0,0,0,
,0.847,0.165,0.001,-637.513,-348.999,-5.86,0,0,0,
,0.828,0.166,-0.013,-659.79,-324.158,-50.354,0,0,0,
,0.871,0.155,-0.053,-699.646,-277.649,-121.277,0,0,0,
,0.971,0.166,-0.087,-756.409,-247.01,-173.34,0,0,0,
,1.011,0.195,-0.088,-801.331,-256.653,-240.601,0,0,0,
,1,0.222,-0.078,-829.102,-246.582,-312.134,0,0,0,
,0.999,0.237,-0.07,-849.244,-201.844,-391.419,0,0,0,
,0.983,0.252,-0.054,-857.178,-167.603,-442.933,0,0,0,
,0.913,0.26,-0.034,-834.351,-131.958,-468.14,0,0,0,
,0.835,0.243,-0.008,-796.326,-79.529,-469.422,0,0,0,
,0.782,0.229,0.007,-741.578,-8.973,-445.618,0,0,0,
,0.759,0.219,0.003,-659.913,59.204,-405.945,0,0,0,
,0.767,0.204,-0.016,-596.131,114.563,-360.657,0,0,0,
,0.819,0.181,-0.043,-516.968,169.555,-330.14,0,0,0,
,0.912,0.176,-0.037,-502.015,196.899,-316.651,0,0,0,
,0.998,0.2,-0.024,-483.155,207.031,-325.257,0,0,0,
,1.047,0.22,0.005,-466.004,208.252,-356.568,0,0,0,
,1.058,0.219,0.032,-453.248,203.979,-385.987,0,0,0,
,1.029,0.209,0.064,-455.567,210.449,-407.288,0,0,0,
,0.982,0.204,0.096,-445.313,226.013,-405.884,0,0,0,
,0.952,0.204,0.122,-439.515,244.323,-381.104,0,0,0,
,0.944,0.158,0.138,-430.176,252.746,-338.196,0,0,0,
,0.953,0.153,0.149,-433.716,251.892,-281.311,0,0,0,
,0.976,0.107,0.119,-473.389,240.417,-211.426,0,0,0,
,1.002,0.077,0.068,-566.04,206.298,-142.762,0,0,0,
,1.003,0.071,0.04,-681.763,140.197,-79.773,0,0,0,
,0.975,0.11,0.081,-748.658,89.904,-33.936,0,0,0,
,0.956,0.155,0.122,-771.79,72.143,-15.442,0,0,0,
,0.957,0.184,0.162,-754.7,71.655,-11.17,0,0,0,
,0.964,0.211,0.171,-711.976,75.988,-21.119,0,0,0,
,0.956,0.224,0.159,-645.02,71.594,-42.786,0,0,0,
,0.938,0.22,0.146,-571.595,74.523,-70.679,0,0,0,
,0.928,0.213,0.153,-505.188,84.716,-90.638,0,0,0,
,0.924,0.214,0.157,-443.726,97.9,-104.554,0,0,0,
,0.932,0.202,0.161,-382.142,104.98,-108.582,0,0,0,
,0.932,0.186,0.169,-339.844,124.878,-99.671,0,0,0,
,0.935,0.185,0.175,-315.613,117.736,-89.539,0,0,0,
,0.947,0.19,0.179,-296.021,119.201,-75.989,0,0,0,
,0.952,0.183,0.179,-272.156,112.915,-51.88,0,0,0,
,0.937,0.174,0.17,-264.771,91.796,-15.381,0,0,0,
,0.93,0.153,0.139,-271.851,73.547,25.451,0,0,0,
,0.956,0.127,0.112,-286.622,65.429,54.748,0,0,0,
,1.003,0.145,0.103,-313.111,40.466,82.031,0,0,0,
,1.044,0.172,0.109,-318.421,10.437,89.05,0,0,0,
,1.07,0.203,0.122,-298.34,-18.494,75.744,0,0,0,
,1.097,0.217,0.129,-270.691,-41.199,61.706,0,0,0,
,1.099,0.193,0.117,-250.794,-78.431,53.649,0,0,0,
,1.074,0.165,0.091,-257.874,-111.573,72.204,0,0,0,
,1.05,0.153,0.061,-295.838,-147.156,109.13,0,0,0,
,1.02,0.128,0.042,-355.469,-188.599,169.311,0,0,0,
,0.993,0.133,0.026,-382.203,-212.281,238.952,0,0,0,
,0.988,0.149,0.019,-393.25,-224.122,303.833,0,0,0,
,1.012,0.173,0.005,-375.306,-227.539,354.187,0,0,0,
,1.059,0.201,0.01,-326.355,-237.305,374.511,0,0,0,
,1.084,0.213,0.026,-254.883,-253.54,381.042,0,0,0,
,1.092,0.222,0.041,-172.547,-256.897,372.985,0,0,0,
,1.106,0.225,0.044,-95.52,-257.691,351.013,0,0,0,
,1.102,0.198,0.03,-49.805,-276.551,331.543,0,0,0,
,1.068,0.174,0.023,-31.495,-293.58,320.8,0,0,0,
,1.03,0.168,0.016,-27.71,-326.783,327.148,0,0,0,
,0.995,0.166,0.009,-41.321,-326.355,341.552,0,0,0,
,0.96,0.153,0.002,-54.749,-339.661,363.22,0,0,0,
,0.921,0.135,0.005,-74.402,-344.361,383.606,0,0,0,
,0.895,0.136,0.013,-107.056,-329.102,397.216,0,0,0,
,0.884,0.16,0.02,-126.709,-309.815,386.108,0,0,0,
,0.877,0.173,0.026,-131.592,-290.833,358.459,0,0,0,
,0.857,0.177,0.032,-116.394,-266.907,314.148,0,0,0,
,0.847,0.19,0.036,-99.671,-236.695,258.85,0,0,0,
,0.842,0.199,0.027,-77.576,-202.942,191.284,0,0,0,
,0.849,0.196,0.027,-59.205,-173.157,122.07,0,0,0,
,0.851,0.181,0.026,-56.641,-155.945,51.635,0,0,0,
,0.848,0.169,0.033,-70.679,-136.292,-5.738,0,0,0,
,0.825,0.168,0.04,-97.779,-119.202,-49.317,0,0,0,
,0.806,0.162,0.041,-133.423,-102.845,-89.661,0,0,0,
,0.796,0.167,0.039,-189.331,-85.022,-119.568,0,0,0,
,0.816,0.174,0.038,-246.338,-63.416,-150.391,0,0,0,
,0.825,0.192,0.044,-287.232,-58.655,-180.542,0,0,0,
,0.812,0.215,0.053,-318.116,-55.481,-210.083,0,0,0,
,0.807,0.237,0.056,-335.45,-29.786,-248.291,0,0,0,
,0.838,0.257,0.089,-337.464,-2.137,-291.748,0,0,0,
,0.937,0.279,0.086,-301.819,28.625,-414.734,0,0,0,
,0.999,0.261,0.067,-320.923,31.799,-441.895,0,0,0,
,1.027,0.238,0.029,-365.235,36.621,-460.999,0,0,0,
,1.113,0.214,-0.018,-441.285,26.367,-478.76,0,0,0,
,1.207,0.201,-0.053,-540.406,6.836,-502.259,0,0,0,
,1.299,0.216,-0.063,-649.842,-8.545,-532.166,0,0,0,
,1.307,0.27,-0.027,-724.61,-44.312,-548.584,0,0,0,
,1.167,0.295,0.016,-743.531,-90.271,-537.842,0,0,0,
,1.001,0.282,0.048,-748.23,-74.646,-492.493,0,0,0,
,0.879,0.257,0.043,-730.164,-35.462,-423.523,0,0,0,
,0.807,0.216,0.017,-683.716,14.526,-322.998,0,0,0,
,0.787,0.162,-0.013,-624.512,51.757,-228.577,0,0,0,
,0.839,0.154,-0.033,-594.3,94.543,-143.067,0,0,0,
,0.943,0.18,-0.039,-577.515,114.99,-91.614,0,0,0,
,1.029,0.213,-0.035,-546.509,90.21,-79.529,0,0,0,
,1.056,0.236,-0.026,-515.076,49.438,-96.497,0,0,0,
,1.028,0.238,-0.021,-481.141,21.545,-127.381,0,0,0,
,0.963,0.237,-0.009,-448.67,10.925,-159.668,0,0,0,
,0.892,0.221,-0.001,-399.72,23.376,-181.519,0,0,0,
,0.837,0.2,0.005,-353.394,54.687,-180.237,0,0,0,
,0.814,0.177,0.018,-319.581,94.421,-164.368,0,0,0,
,0.819,0.169,0.019,-302.063,125.061,-146.241,0,0,0,
,0.83,0.172,0.019,-292.359,148.01,-130.982,0,0,0,
,0.84,0.178,0.029,-271.729,158.203,-125.123,0,0,0,
,0.851,0.189,0.037,-242.188,171.02,-124.024,0,0,0,
,0.866,0.19,0.049,-206.299,175.232,-127.442,0,0,0,
,0.877,0.168,0.054,-176.636,174.682,-128.54,0,0,0,
,0.885,0.15,0.063,-171.326,176.147,-123.536,0,0,0,
,0.901,0.145,0.073,-186.768,181.152,-116.639,0,0,0,
,0.919,0.145,0.077,-200.379,176.086,-111.145,0,0,0,
,0.918,0.146,0.08,-210.816,163.818,-102.051,0,0,0,
,0.915,0.151,0.084,-226.075,158.386,-89.356,0,0,0,
,0.92,0.154,0.08,-234.559,154.541,-76.783,0,0,0,
,0.916,0.158,0.09,-225.037,142.7,-61.097,0,0,0,
,0.893,0.155,0.111,-207.52,128.112,-42.908,0,0,0,
,0.866,0.158,0.127,-188.965,135.498,-24.048,0,0,0,
,0.864,0.164,0.132,-153.626,142.822,-13.001,0,0,0,
,0.887,0.157,0.134,-118.897,145.691,-5.066,0,0,0,
,0.923,0.146,0.142,-95.398,140.564,3.662,0,0,0,
,0.963,0.136,0.147,-88.868,126.098,11.84,0,0,0,
,0.998,0.122,0.13,-101.807,104.187,25.695,0,0,0,
,1.039,0.101,0.104,-154.175,66.162,38.94,0,0,0,
,1.064,0.072,0.059,-215.21,18.859,57.495,0,0,0,
,1.091,0.055,0.029,-328.064,-36.683,74.462,0,0,0,
,1.153,0.086,0.024,-427.369,-71.534,81.237,0,0,0,
,1.175,0.134,0.007,-501.587,-92.469,70.373,0,0,0,
,1.246,0.185,0.007,-520.997,-102.173,34.668,0,0,0,
,1.272,0.246,0.033,-499.39,-137.513,-3.052,0,0,0,
,1.182,0.289,0.072,-421.265,-173.096,-26.246,0,0,0,
,1.057,0.286,0.085,-320.801,-160.767,-40.284,0,0,0,
,0.998,0.234,0.074,-229.859,-117.554,-18.128,0,0,0,
,0.975,0.198,0.055,-166.138,-99.976,42.114,0,0,0,
,0.951,0.157,0.046,-104.737,-107.056,124.633,0,0,0,
,0.936,0.121,0.036,-86.914,-110.047,205.871,0,0,0,
,0.941,0.109,0.002,-110.23,-127.625,295.349,0,0,0,
,0.967,0.132,-0.013,-134.644,-151.856,337.097,0,0,0,
,0.989,0.156,-0.015,-116.761,-187.256,365.783,0,0,0,
,1.03,0.19,-0.009,-61.463,-187.745,366.516,0,0,0,
,1.074,0.216,-0.014,13.244,-200.806,346.008,0,0,0,
,1.107,0.224,-0.009,89.538,-218.201,312.5,0,0,0,
,1.112,0.209,-0.011,147.4,-235.718,275.695,0,0,0,
,1.08,0.169,-0.01,166.504,-256.226,252.868,0,0,0,
,1.027,0.137,-0.027,146.606,-263.916,245.666,0,0,0,
,0.941,0.096,-0.057,8.239,-285.706,283.508,0,0,0,
,0.883,0.088,-0.05,-77.576,-288.697,311.523,0,0,0,
,0.846,0.097,-0.044,-148.743,-270.569,332.702,0,0,0,
,0.83,0.129,-0.04,-198.609,-247.376,336.181,0,0,0,
,0.82,0.149,-0.034,-213.501,-231.385,316.528,0,0,0,
,0.807,0.16,-0.026,-206.543,-200.135,280.578,0,0,0,
,0.798,0.192,-0.014,-185.059,-170.227,222.229,0,0,0,
,0.805,0.222,-0.012,-141.419,-139.222,155.944,0,0,0,
,0.813,0.233,-0.012,-79.285,-117.249,82.214,0,0,0,
,0.813,0.223,-0.003,-32.898,-101.197,18.005,0,0,0,
,0.816,0.245,0.007,-3.113,-88.501,-25.513,0,0,0,
,0.827,0.265,0.007,26.794,-75.867,-58.106,0,0,0,
,0.85,0.27,0.009,57.373,-68.848,-80.14,0,0,0,
,0.884,0.289,0.004,80.2,-71.534,-94.544,0,0,0,
,0.908,0.287,0.001,99.243,-83.802,-102.356,0,0,0,
,0.917,0.264,0.016,98.083,-93.934,-107.605,0,0,0,
,0.923,0.249,0.045,58.41,-93.506,-112.427,0,0,0,
,0.936,0.24,0.06,-18.494,-87.769,-121.216,0,0,0,
,0.932,0.218,0.071,-118.287,-89.539,-127.503,0,0,0,
,0.915,0.197,0.075,-245.484,-88.929,-129.09,0,0,0,
,0.924,0.191,0.062,-386.414,-65.369,-135.56,0,0,0,
,0.977,0.202,0.033,-496.094,-50.477,-171.204,0,0,0,
,1.034,0.218,0.018,-575.257,-58.899,-191.163,0,0,0,
,1.088,0.235,0.01,-631.104,-57.862,-240.418,0,0,0,
,1.127,0.251,0.014,-686.89,-64.393,-297.242,0,0,0,
,1.116,0.273,0.028,-720.826,-82.947,-350.22,0,0,0,
,1.04,0.254,0.046,-726.502,-97.779,-379.09,0,0,0,
,0.948,0.229,0.059,-723.938,-83.68,-377.747,0,0,0,
,0.881,0.218,0.067,-724.427,-64.454,-347.535,0,0,0,
,0.815,0.213,0.062,-701.905,-40.955,-303.04,0,0,0,
,0.796,0.198,0.044,-669.373,-5.249,-253.052,0,0,0,
,0.841,0.193,0.016,-629.761,36.132,-213.44,0,0,0,
,0.941,0.205,0.006,-602.478,46.691,-193.177,0,0,0,
,1.003,0.22,0.008,-553.284,25.39,-191.468,0,0,0,
,1.02,0.225,0.033,-508.118,4.272,-219.788,0,0,0,
,1.009,0.226,0.049,-482.3,0.854,-255.555,0,0,0,
,0.979,0.218,0.06,-475.037,-6.226,-284.424,0,0,0,
,0.922,0.197,0.08,-494.568,-6.958,-292.237,0,0,0,
,0.87,0.221,0.072,-468.628,17.395,-279.419,0,0,0,
,0.859,0.212,0.069,-406.434,34.729,-268.982,0,0,0,
,0.867,0.181,0.065,-376.954,58.715,-243.958,0,0,0,
,0.872,0.187,0.069,-374.939,61.95,-227.967,0,0,0,
,0.89,0.198,0.073,-360.352,75.134,-217.102,0,0,0,
,0.904,0.212,0.063,-331.177,74.951,-208.802,0,0,0,
,0.919,0.187,0.07,-313.294,68.664,-212.647,0,0,0,
,0.923,0.168,0.08,-331.238,73.242,-204.651,0,0,0,
,0.92,0.188,0.09,-348.755,82.519,-193.787,0,0,0,
,0.916,0.198,0.112,-343.873,90.515,-186.585,0,0,0,
,0.896,0.193,0.107,-334.961,103.881,-167.115,0,0,0,
,0.875,0.194,0.108,-302.308,115.112,-162.476,0,0,0,
,0.871,0.182,0.119,-285.157,128.723,-148.682,0,0,0,
,0.869,0.185,0.129,-277.344,134.582,-131.653,0,0,0,
,0.868,0.194,0.144,-252.503,135.742,-118.775,0,0,0,
,0.877,0.189,0.158,-223.389,137.024,-104.859,0,0,0,
,0.895,0.201,0.163,-202.698,155.029,-91.126,0,0,0,
,0.924,0.211,0.157,-170.35,143.493,-89.112,0,0,0,
,0.964,0.197,0.151,-136.78,139.953,-97.718,0,0,0,
,1.025,0.191,0.147,-132.752,99.121,-97.779,0,0,0,
,1.041,0.185,0.132,-148.682,74.218,-92.102,0,0,0,
,1.053,0.171,0.111,-182.862,43.579,-77.82,0,0,0,
,1.073,0.163,0.09,-223.511,8.422,-56.092,0,0,0,
,1.079,0.163,0.083,-258.545,-32.166,-36.683,0,0,0,
,1.093,0.175,0.091,-295.35,-36.988,-18.738,0,0,0,
,1.147,0.195,0.102,-325.44,-21.058,-21.363,0,0,0,
,1.186,0.241,0.11,-329.956,-39.246,-20.142,0,0,0,
,1.135,0.297,0.123,-278.382,-65.308,-17.579,0,0,0,
,1.054,0.294,0.129,-178.223,-63.965,-18.799,0,0,0,
,1.015,0.265,0.135,-90.455,-49.134,4.089,0,0,0,
,0.988,0.236,0.142,-29.602,-57.74,57.006,0,0,0,
,0.944,0.206,0.138,21.667,-75.318,124.572,0,0,0,
,1.028,0.195,0.039,78.186,-139.893,271.484,0,0,0,
,1.066,0.208,0.039,118.957,-201.172,280.029,0,0,0,
,1.101,0.213,0.043,154.297,-232.544,272.4,0,0,0,
,1.133,0.214,0.029,166.504,-275.025,265.136,0,0,0,
,1.104,0.202,0.014,206.848,-339.478,252.441,0,0,0,
,1.042,0.15,0.01,203.003,-365.235,255.493,0,0,0,
,1.008,0.127,-0.019,131.836,-362.915,273.559,0,0,0,
,0.987,0.132,-0.053,68.359,-381.958,296.325,0,0,0,
,0.953,0.113,-0.048,11.047,-395.691,318.42,0,0,0,
,0.917,0.121,-0.039,-56.031,-387.635,342.468,0,0,0,
,0.887,0.151,-0.031,-105.469,-370.667,349.914,0,0,0,
,0.858,0.171,-0.018,-126.099,-342.286,341.064,0,0,0,
,0.827,0.181,-0.016,-107.666,-300.843,315.368,0,0,0,
,0.827,0.192,-0.019,-75.013,-250.794,274.353,0,0,0,
,0.832,0.197,-0.025,-51.758,-205.14,229.37,0,0,0,
,0.804,0.197,-0.027,-31.25,-172.974,173.339,0,0,0,
,0.789,0.189,-0.035,0.366,-132.386,112.732,0,0,0,
,0.788,0.166,-0.032,22.522,-101.075,60.119,0,0,0,
,0.778,0.155,-0.023,17.578,-78.797,21.362,0,0,0,
,0.76,0.153,-0.006,-8.973,-53.772,-13.733,0,0,0,
,0.761,0.152,-0.002,-37.964,-22.217,-50.599,0,0,0,
,0.795,0.159,-0.004,-69.458,5.493,-84.107,0,0,0,
,0.846,0.166,-0.011,-91.126,26.306,-123.78,0,0,0,
,0.907,0.174,-0.006,-114.502,31.555,-165.772,0,0,0,
,0.961,0.179,-0.001,-133.728,30.212,-216.553,0,0,0,
,0.987,0.175,0.006,-161.255,22.338,-253.54,0,0,0,
,0.982,0.164,0.007,-196.717,15.869,-283.997,0,0,0,
,0.998,0.153,-0.001,-245.606,33.752,-307.007,0,0,0,
,1.08,0.147,-0.032,-325.379,58.349,-338.074,0,0,0,
,1.173,0.154,-0.031,-405.945,59.265,-370.423,0,0,0,
,1.186,0.179,0.006,-473.023,38.513,-392.273,0,0,0,
,1.104,0.2,0.063,-509.034,31.189,-409.119,0,0,0,
,1.022,0.185,0.087,-522.522,60.974,-416.321,0,0,0,
,0.969,0.169,0.08,-540.528,84.472,-391.846,0,0,0,
,0.941,0.156,0.063,-559.144,108.398,-360.169,0,0,0,
,0.933,0.145,0.055,-568.482,118.225,-321.412,0,0,0,
,0.916,0.152,0.052,-562.684,99.853,-275.452,0,0,0,
,0.897,0.162,0.049,-533.997,79.467,-242.31,0,0,0,
,0.908,0.178,0.045,-514.588,67.016,-221.68,0,0,0,
,0.951,0.183,0.024,-489.93,52.551,-212.525,0,0,0,
,1.004,0.175,0.023,-478.089,19.592,-208.252,0,0,0,
,1.028,0.166,0.036,-482.85,-11.414,-193.116,0,0,0,
,1.02,0.165,0.052,-496.155,-32.105,-175.66,0,0,0,
,1.005,0.153,0.057,-515.748,-27.283,-154.847,0,0,0,
,1,0.164,0.069,-542.603,-8.851,-136.231,0,0,0,
,0.966,0.183,0.079,-536.377,1.159,-115.784,0,0,0,
,0.908,0.19,0.084,-504.151,17.883,-103.15,0,0,0,
,0.867,0.193,0.078,-461.853,44.128,-96.07,0,0,0,
,0.86,0.192,0.071,-417.115,65.673,-96.375,0,0,0,
,0.857,0.183,0.083,-366.761,70.312,-97.229,0,0,0,
,0.852,0.173,0.1,-337.342,75.744,-97.29,0,0,0,
,0.862,0.162,0.11,-317.688,83.74,-100.159,0,0,0,
,0.868,0.15,0.121,-317.81,81.237,-99.183,0,0,0,
,0.867,0.137,0.13,-331.91,80.505,-95.887,0,0,0,
,0.868,0.151,0.137,-349.671,90.393,-90.516,0,0,0,
,0.868,0.163,0.145,-349.488,89.233,-94.544,0,0,0,
,0.864,0.205,0.172,-314.515,108.154,-98.755,0,0,0,
,0.874,0.226,0.195,-230.103,129.15,-117.005,0,0,0,
,0.894,0.221,0.204,-139.71,152.588,-131.958,0,0,0,
,0.926,0.197,0.204,-63.294,170.898,-147.95,0,0,0,
,0.955,0.17,0.194,-19.776,174.621,-157.471,0,0,0,
,0.987,0.164,0.199,-6.653,178.405,-166.443,0,0,0,
,0.99,0.193,0.212,0.915,176.941,-163.269,0,0,0,
,0.981,0.215,0.22,40.466,179.931,-167.664,0,0,0,
,0.993,0.196,0.217,84.655,186.218,-169.251,0,0,0,
,1.018,0.17,0.215,91.613,176.757,-158.387,0,0,0,
,1.026,0.152,0.207,71.533,148.742,-130.494,0,0,0,
,1.017,0.118,0.168,39.001,104.614,-90.332,0,0,0,
,1.026,0.076,0.128,-40.65,64.148,-53.04,0,0,0,
,1.062,0.047,0.085,-158.936,10.315,-7.813,0,0,0,
,1.107,0.053,0.059,-287.171,-43.519,31.738,0,0,0,
,1.161,0.072,0.046,-402.955,-93.567,55.908,0,0,0,
,1.183,0.107,0.062,-475.22,-152.466,67.382,0,0,0,
,1.123,0.146,0.09,-515.625,-211.365,74.34,0,0,0,
,1.023,0.163,0.104,-518.006,-218.323,82.092,0,0,0,
,0.975,0.19,0.089,-488.77,-185.852,95.153,0,0,0,
,0.959,0.198,0.059,-411.255,-166.565,120.544,0,0,0,
,0.941,0.187,0.036,-312.134,-168.091,171.02,0,0,0,
,0.921,0.186,0.029,-206.727,-154.847,190.551,0,0,0,
,0.963,0.202,0.012,-113.404,-131.104,204.284,0,0,0,
,1.024,0.21,-0.007,-18.738,-129.822,201.477,0,0,0,
,1.07,0.206,-0.017,65.612,-158.081,188.11,0,0,0,
,1.086,0.184,-0.026,135.192,-174.317,168.579,0,0,0,
,1.107,0.165,-0.028,158.813,-194.397,147.766,0,0,0,
,1.089,0.156,-0.023,150.695,-222.413,139.16,0,0,0,
,1.034,0.144,-0.019,128.296,-240.418,139.038,0,0,0,
,0.995,0.131,-0.027,90.515,-240.235,159.973,0,0,0,
,0.976,0.121,-0.039,31.433,-242.737,193.115,0,0,0,
,0.942,0.116,-0.045,-23.255,-252.442,237.426,0,0,0,
,0.905,0.111,-0.04,-77.149,-255.372,296.02,0,0,0,
,0.882,0.132,-0.032,-121.766,-237.183,318.847,0,0,0,
,0.878,0.171,-0.025,-136.17,-221.192,334.716,0,0,0,
,0.889,0.193,-0.027,-129.334,-203.98,333.496,0,0,0,
,0.891,0.195,-0.026,-103.577,-193.299,314.148,0,0,0,
,0.885,0.19,-0.019,-79.163,-180.42,291.931,0,0,0,
,0.876,0.179,-0.014,-71.045,-162.293,256.53,0,0,0,
,0.864,0.169,-0.007,-85.694,-152.71,218.628,0,0,0,
,0.842,0.159,0,-118.164,-141.846,184.265,0,0,0,
,0.823,0.156,0.011,-151.246,-130.555,150.817,0,0,0,
,0.829,0.156,-0.011,-235.718,-112.061,93.994,0,0,0,
,0.847,0.159,-0.02,-278.565,-112.61,59.631,0,0,0,
,0.867,0.175,-0.01,-321.717,-113.526,14.282,0,0,0,
,0.879,0.191,-0.003,-353.211,-114.685,-38.331,0,0,0,
,0.88,0.196,0.005,-381.409,-109.986,-86.243,0,0,0,
,0.848,0.21,0.015,-399.476,-110.535,-125.061,0,0,0,
,0.806,0.209,0.021,-412.354,-99.183,-149.292,0,0,0,
,0.801,0.204,0.013,-441.468,-60.547,-177.247,0,0,0,
,0.873,0.209,-0.012,-478.333,-8.362,-212.403,0,0,0,
,0.964,0.242,-0.026,-509.644,5.127,-259.522,0,0,0,
,1.024,0.28,-0.002,-499.695,17.578,-336.365,0,0,0,
,1.089,0.303,0.055,-453.675,58.288,-495.728,0,0,0,
,1.068,0.279,0.072,-432.74,66.04,-543.641,0,0,0,
,1.013,0.252,0.084,-413.514,73.364,-550.171,0,0,0,
,0.954,0.202,0.086,-415.65,76.965,-520.203,0,0,0,
,0.909,0.171,0.086,-450.562,84.716,-462.647,0,0,0,
,0.883,0.148,0.078,-485.169,93.261,-384.644,0,0,0,
,0.901,0.135,0.067,-517.823,99.426,-314.576,0,0,0,
,0.98,0.145,0.052,-547.547,98.693,-254.212,0,0,0,
,1.061,0.157,0.043,-556.885,66.894,-217.469,0,0,0,
,1.11,0.181,0.046,-556.336,17.7,-199.891,0,0,0,
,1.107,0.195,0.052,-560.059,-26.673,-195.008,0,0,0,
,0.931,0.171,0.154,-578.125,-83.497,-168.519,0,0,0,
,0.874,0.215,0.146,-548.768,-44.8,-136.048,0,0,0,
,0.854,0.239,0.123,-444.703,-12.33,-130.005,0,0,0,
,0.87,0.185,0.152,-390.137,-14.1,-132.508,0,0,0,
,0.869,0.177,0.148,-387.452,15.075,-121.644,0,0,0,
,0.884,0.207,0.16,-368.836,8.178,-118.653,0,0,0,
,0.904,0.153,0.167,-359.498,-1.282,-111.939,0,0,0,
,0.879,0.196,0.174,-287.11,14.221,-108.826,0,0,0,
,0.882,0.2,0.191,-266.236,5.615,-116.028,0,0,0,
,0.891,0.202,0.213,-242.31,19.348,-122.01,0,0,0,
,0.893,0.203,0.236,-209.046,31.433,-128.418,0,0,0,
,0.89,0.211,0.247,-171.509,53.894,-133.728,0,0,0,
,0.892,0.215,0.246,-134.827,71.35,-139.466,0,0,0,
,0.897,0.222,0.251,-90.394,84.106,-145.386,0,0,0,
,0.915,0.241,0.277,19.226,105.041,-156.128,0,0,0,
,0.931,0.241,0.279,84.472,107.971,-162.11,0,0,0,
,0.944,0.238,0.28,138.977,103.698,-164.429,0,0,0,
,0.965,0.233,0.274,189.514,89.355,-161.56,0,0,0,
,0.992,0.214,0.254,218.567,62.866,-157.227,0,0,0,
,1.025,0.196,0.217,223.205,60.119,-147.706,0,0,0,
,1.085,0.183,0.178,210.205,33.386,-131.897,0,0,0,
,1.14,0.178,0.138,182.739,0.915,-110.291,0,0,0,
,1.203,0.182,0.128,155.944,-30.457,-90.577,0,0,0,
,1.248,0.199,0.12,127.258,-66.102,-78.248,0,0,0,
,1.02,0.241,0.105,132.873,-169.678,-30.213,0,0,0,
,0.933,0.239,0.062,124.511,-169.007,-2.93,0,0,0,
,0.879,0.243,0.038,129.638,-170.777,35.034,0,0,0,
,0.839,0.245,0.018,167.541,-171.204,85.754,0,0,0,
,0.83,0.245,0.024,230.468,-151.551,126.831,0,0,0,
,0.875,0.256,0.021,303.711,-122.376,148.925,0,0,0,
,0.949,0.256,0.039,385.803,-116.394,146.606,0,0,0,
,1.001,0.234,0.017,425.842,-133.789,132.69,0,0,0,
,1.023,0.225,-0.01,401.611,-166.382,103.515,0,0,0,
,0.99,0.237,-0.029,351.074,-197.266,78.002,0,0,0,
,0.917,0.235,-0.025,331.848,-211.365,56.457,0,0,0,
,0.872,0.238,-0.024,337.341,-190.857,54.809,0,0,0,
,0.857,0.238,-0.027,362.121,-167.542,64.27,0,0,0,
,0.851,0.233,-0.033,393.982,-150.513,82.031,0,0,0,
,0.849,0.226,-0.027,406.86,-120.667,98.022,0,0,0,
,0.855,0.216,-0.031,394.897,-88.562,110.473,0,0,0,
,0.874,0.216,-0.037,379.333,-49.5,123.352,0,0,0,
,0.897,0.246,-0.003,413.818,46.447,136.84,0,0,0,
,0.902,0.243,-0.002,447.082,84.167,129.882,0,0,0,
,0.923,0.234,0.01,478.21,109.008,126.892,0,0,0,
,0.929,0.215,0.024,503.662,118.469,121.215,0,0,0,
,0.934,0.192,0.027,503.112,126.587,119.506,0,0,0,
,0.931,0.172,0.029,481.445,117.248,121.582,0,0,0,
,0.916,0.163,0.041,448.73,105.957,127.746,0,0,0,
,0.903,0.162,0.049,416.32,98.938,132.202,0,0,0,
,0.925,0.152,0.039,387.512,105.651,130.554,0,0,0,
,0.97,0.139,0.021,353.515,96.862,126.159,0,0,0,
,0.994,0.122,0.016,319.824,69.946,122.314,0,0,0,
,0.986,0.106,0.02,282.776,44.799,109.13,0,0,0,
,0.967,0.076,0.057,218.933,35.827,92.346,0,0,0,
,0.954,0.026,0.085,130.493,39.611,64.086,0,0,0,
,0.959,-0.006,0.067,14.465,54.748,28.015,0,0,0,
,0.995,0.012,0.032,-144.165,79.956,-22.217,0,0,0,
,1.095,0.068,-0.026,-273.194,117.797,-96.68,0,0,0,
,1.228,0.13,-0.033,-319.458,109.314,-187.867,0,0,0,
,0.83,0.165,0.116,-138.428,76.66,-285.889,0,0,0,
,0.779,0.143,0.079,-100.464,136.352,-265.748,0,0,0,
,0.764,0.138,0.045,-52.735,168.09,-221.375,0,0,0,
,0.777,0.135,0.037,17.211,199.157,-175.599,0,0,0,
,0.861,0.145,0.011,78.308,244.384,-130.738,0,0,0,
,1.098,0.201,0.035,250.793,176.696,-137.879,0,0,0,
,1.056,0.202,0.044,276.428,156.982,-154.358,0,0,0,
,0.998,0.178,0.038,298.462,158.325,-167.42,0,0,0,
,0.945,0.162,0.036,296.142,169.128,-155.396,0,0,0,
,0.903,0.171,0.052,287.78,183.654,-131.409,0,0,0,
,0.882,0.169,0.047,303.405,199.707,-106.751,0,0,0,
,0.904,0.16,0.063,305.908,202.331,-86.548,0,0,0,
,0.921,0.175,0.043,310.974,202.697,-56.946,0,0,0,
,0.929,0.169,0.051,328.491,185.791,-61.524,0,0,0,
,0.92,0.16,0.055,338.073,166.137,-53.772,0,0,0,
,0.91,0.112,0.093,313.659,150.817,-70.74,0,0,0,
,0.895,0.202,0.088,294.922,180.053,-49.439,0,0,0,
,0.908,0.272,0.102,394.226,195.068,-86.67,0,0,0,
,0.929,0.231,0.124,544.433,202.026,-111.084,0,0,0,
,0.937,0.194,0.151,598.327,215.21,-130.127,0,0,0,
,0.959,0.196,0.141,635.437,227.6,-139.1,0,0,0,
,0.974,0.18,0.145,677.307,215.149,-141.48,0,0,0,
,0.966,0.122,0.159,686.523,187.683,-132.081,0,0,0,
,0.962,0.086,0.159,649.841,176.391,-113.526,0,0,0,
,0.972,0.078,0.15,618.164,152.526,-98.755,0,0,0,
,0.995,0.024,0.153,610.473,109.314,-98.389,0,0,0,
,0.99,-0.023,0.146,578.674,61.584,-99.427,0,0,0,
,0.972,-0.028,0.13,507.995,30.029,-99.305,0,0,0,
,0.975,0.021,0.1,430.908,18.493,-88.135,0,0,0,
,0.986,0.094,0.08,376.22,-6.958,-61.89,0,0,0,
,0.995,0.14,0.058,376.892,-35.279,-29.297,0,0,0,
,1.007,0.088,0.093,340.149,-73.304,9.216,0,0,0,
,1.018,0.099,0.04,246.154,-101.136,76.904,0,0,0,
,1.076,0.145,-0.003,184.143,-95.093,125.732,0,0,0,
,1.171,0.191,-0.017,165.283,-107.85,149.719,0,0,0,
,1.177,0.229,0,203.125,-142.518,143.493,0,0,0,
,1.109,0.256,0.013,261.291,-164.368,119.018,0,0,0,
,1.041,0.265,0.018,296.814,-159.363,92.712,0,0,0,
,0.98,0.29,0.004,330.932,-126.709,77.88,0,0,0,
,0.942,0.322,-0.032,384.826,-91.614,63.11,0,0,0,
,0.936,0.32,-0.056,461.486,-79.895,52.49,0,0,0,
,0.93,0.31,-0.074,539.001,-69.825,65.002,0,0,0,
,0.921,0.29,-0.098,589.172,-67.872,89.355,0,0,0,
,0.925,0.282,-0.103,619.934,-56.397,111.084,0,0,0,
,0.952,0.281,-0.107,640.808,-52.552,127.136,0,0,0,
,0.972,0.288,-0.101,643.066,-51.209,125.915,0,0,0,
,0.984,0.3,-0.098,650.085,-42.969,111.694,0,0,0,
,0.974,0.309,-0.092,667.663,-42.969,90.637,0,0,0,
,0.936,0.317,-0.085,694.275,-37.537,74.523,0,0,0,
,0.878,0.298,-0.082,703.918,-23.743,60.791,0,0,0,
,0.838,0.284,-0.094,701.904,1.22,63.232,0,0,0,
,0.829,0.279,-0.093,695.434,32.409,71.96,0,0,0,
,0.833,0.284,-0.086,693.725,48.889,75.439,0,0,0,
,0.836,0.31,-0.065,707.885,63.903,73.913,0,0,0,
,0.84,0.33,-0.039,723.938,87.463,63.964,0,0,0,
,0.848,0.329,-0.033,747.985,94.238,49.499,0,0,0,
,0.854,0.369,-0.034,792.175,104.309,35.4,0,0,0,
,0.878,0.423,-0.037,868.408,97.656,6.652,0,0,0,
,0.895,0.409,-0.044,960.937,72.387,-12.269,0,0,0,
,0.893,0.381,-0.052,997.741,45.532,-19.349,0,0,0,
,0.905,0.375,-0.045,999.328,43.64,-21.485,0,0,0,
,0.93,0.352,-0.028,985.839,32.47,-17.09,0,0,0,
,0.944,0.325,0.003,951.904,20.385,3.051,0,0,0,
,0.947,0.316,0.024,895.141,19.897,31.25,0,0,0,
,0.953,0.309,0.03,834.411,31.127,64.086,0,0,0,
,0.967,0.304,0.034,780.395,30.212,100.708,0,0,0,
,0.98,0.297,0.039,739.99,30.578,135.498,0,0,0,
,0.994,0.293,0.037,716.613,27.526,167.541,0,0,0,
,1.003,0.274,0.029,715.332,11.352,195.8,0,0,0,
,1.009,0.249,0.019,712.402,-4.395,216.919,0,0,0,
,1.012,0.219,0.018,698.486,-12.452,230.896,0,0,0,
,1.022,0.183,0.026,667.053,-20.447,236.877,0,0,0,
,1.027,0.158,0.021,605.102,-22.095,228.21,0,0,0,
,1.049,0.128,0.004,503.723,-5.677,202.392,0,0,0,
,1.096,0.123,-0.009,408.752,27.221,161.621,0,0,0,
,1.136,0.155,0.006,314.148,48.767,111.877,0,0,0,
,1.081,0.211,0.076,276.855,45.776,62.072,0,0,0,
,0.938,0.22,0.133,312.011,70.983,20.874,0,0,0,
,0.835,0.186,0.127,381.897,135.07,-11.658,0,0,0,
,0.823,0.171,0.091,452.636,193.725,-21.241,0,0,0,
,0.852,0.157,0.043,529.785,201.599,-20.386,0,0,0,
,0.875,0.122,0.005,551.635,177.002,-16.846,0,0,0,
,0.888,0.102,-0.008,546.203,130.127,-12.33,0,0,0,
,0.899,0.1,0,527.832,90.942,-6.958,0,0,0,
,0.922,0.09,-0.007,498.779,47.607,-3.296,0,0,0,
,0.958,0.08,-0.002,448.974,25.573,-2.442,0,0,0,
,0.982,0.079,0.017,380.676,12.146,-9.461,0,0,0,
,0.987,0.091,0.037,312.011,17.822,-19.898,0,0,0,
,1,0.116,0.055,262.146,49.987,-34.241,0,0,0,
,1.025,0.16,0.062,238.098,93.627,-44.129,0,0,0,
,1.013,0.186,0.073,271.606,114.868,-47.608,0,0,0,
,0.973,0.189,0.072,332.885,141.418,-41.81,0,0,0,
,0.942,0.185,0.065,418.823,175.537,-30.152,0,0,0,
,0.92,0.174,0.055,477.417,195.19,-18.616,0,0,0,
,0.907,0.156,0.058,528.137,193.237,-11.17,0,0,0,
,0.896,0.138,0.071,556.152,192.688,-9.217,0,0,0,
,0.892,0.121,0.079,558.96,195.739,-11.292,0,0,0,
,0.91,0.107,0.086,511.23,194.091,-26.123,0,0,0,
,0.9,0.113,0.1,484.375,193.298,-42.664,0,0,0,
,0.885,0.124,0.104,472.9,198.669,-60.791,0,0,0,
,0.87,0.13,0.11,468.994,213.989,-81.543,0,0,0,
,0.863,0.149,0.116,473.266,249.633,-101.38,0,0,0,
,0.885,0.158,0.112,530.822,257.934,-135.193,0,0,0,
,0.894,0.152,0.104,534.546,249.511,-132.874,0,0,0,
,0.892,0.149,0.105,526.672,235.351,-130.127,0,0,0,
,0.89,0.149,0.104,518.31,223.266,-119.385,0,0,0,
,0.896,0.156,0.107,511.596,211.059,-105.408,0,0,0,
,0.916,0.153,0.108,505.127,200.378,-88.135,0,0,0,
,0.941,0.15,0.104,487.671,179.199,-64.515,0,0,0,
,0.955,0.151,0.09,461.425,151.062,-31.067,0,0,0,
,0.967,0.14,0.065,428.222,127.807,4.882,0,0,0,
,1.027,0.13,0.033,384.094,123.413,41.015,0,0,0,
,1.101,0.149,0.019,345.214,107.299,69.213,0,0,0,
,1.11,0.212,0.03,378.418,50.842,77.697,0,0,0,
,1.094,0.224,0.009,398.803,45.959,62.927,0,0,0,
,1.032,0.222,0.001,420.288,31.127,57.006,0,0,0,
,0.948,0.218,-0.012,433.044,27.404,60.18,0,0,0,
,0.883,0.214,-0.026,434.997,34.606,75.561,0,0,0,
,0.892,0.228,-0.076,487.182,82.397,96.74,0,0,0,
,0.999,0.265,-0.053,525.207,92.59,90.454,0,0,0,
,1.024,0.278,-0.054,552.978,95.153,55.786,0,0,0,
,1.047,0.3,-0.053,616.272,89.538,12.695,0,0,0,
,1.04,0.284,-0.064,664.489,70.129,-12.269,0,0,0,
,0.905,0.222,-0.079,641.662,19.958,17.028,0,0,0,
,0.871,0.194,-0.088,596.74,18.92,52.246,0,0,0,
,0.869,0.171,-0.079,554.504,10.864,102.234,0,0,0,
,0.882,0.191,-0.061,514.343,11.352,134.826,0,0,0,
,0.904,0.221,-0.047,491.211,7.446,148.498,0,0,0,
,0.919,0.229,-0.045,498.108,6.958,138,0,0,0,
,0.909,0.239,-0.032,562.561,12.451,74.707,0,0,0,
,0.912,0.211,-0.033,583.007,17.822,57.922,0,0,0,
,0.927,0.192,-0.035,571.472,18.493,44.738,0,0,0,
,0.954,0.191,-0.038,546.508,20.813,29.113,0,0,0,
,0.984,0.199,-0.025,527.954,12.085,7.507,0,0,0,
,1.026,0.177,-0.006,502.197,-30.335,-30.335,0,0,0,
,1.033,0.156,-0.022,461.975,-42.542,-26.246,0,0,0,
,1.052,0.145,-0.028,393.982,-61.341,-19.898,0,0,0,
,1.073,0.145,-0.025,325.988,-86.976,-11.231,0,0,0,
,1.072,0.15,-0.014,272.277,-109.436,-1.831,0,0,0,
,1.057,0.135,-0.021,127.014,-120.484,10.925,0,0,0,
,1.042,0.124,-0.016,76.904,-130.31,23.193,0,0,0,
,1.014,0.116,-0.017,30.822,-129.395,35.644,0,0,0,
,1.039,0.103,-0.037,-25.94,-101.807,34.301,0,0,0,
,1.095,0.101,-0.04,-78.858,-94.788,25.756,0,0,0,
,1.069,0.13,-0.01,-101.014,-112.671,10.498,0,0,0,
,0.967,0.151,0.039,-95.032,-113.953,-4.273,0,0,0,
,0.876,0.146,0.051,-80.75,-78.186,-19.532,0,0,0,
,0.821,0.135,0.047,-49.317,-38.941,-24.72,0,0,0,
,0.786,0.126,0.039,-13.977,-30.335,-11.475,0,0,0,
,0.764,0.104,0.028,17.334,-12.391,-4.151,0,0,0,
,0.941,0.111,0.003,13.244,17.7,-27.588,0,0,0,
,0.969,0.129,0.015,20.202,15.38,-60.425,0,0,0,
,0.974,0.147,0.048,30.7,31.982,-94.605,0,0,0,
,0.931,0.151,0.078,41.565,50.17,-125.794,0,0,0,
,0.864,0.153,0.093,57.128,96.923,-143.982,0,0,0,
,0.832,0.165,0.099,82.336,158.508,-153.87,0,0,0,
,0.84,0.165,0.089,110.046,194.946,-152.649,0,0,0,
,0.865,0.154,0.092,144.836,212.585,-151.673,0,0,0,
,0.88,0.148,0.091,167.48,216.674,-148.499,0,0,0,
,0.897,0.147,0.086,176.269,209.777,-153.748,0,0,0,
,0.917,0.137,0.095,181.762,199.157,-162.232,0,0,0,
,0.92,0.121,0.125,139.038,172.485,-164.063,0,0,0,
,0.924,0.126,0.13,115.417,175.903,-162.171,0,0,0,
,0.909,0.132,0.144,97.045,158.325,-155.03,0,0,0,
,0.897,0.134,0.17,84.655,173.034,-146.485,0,0,0,
,0.898,0.122,0.184,69.213,176.941,-132.569,0,0,0,
,0.9,0.103,0.182,30.029,167.053,-118.226,0,0,0,
,0.898,0.084,0.165,-33.081,146.728,-98.999,0,0,0,
,0.893,0.087,0.139,-96.985,118.896,-81.727,0,0,0,
,0.906,0.12,0.139,-136.048,100.586,-69.703,0,0,0,
,0.954,0.159,0.14,-125.611,85.815,-64.881,0,0,0,
,1.004,0.18,0.144,-82.581,61.096,-56.946,0,0,0,
,1.034,0.173,0.133,-17.029,31.433,-39.856,0,0,0,
,1.036,0.153,0.126,11.779,2.258,-11.902,0,0,0,
,1.022,0.134,0.114,31.189,-10.376,25.695,0,0,0,
,1.018,0.112,0.105,30.456,-9.4,72.631,0,0,0,
,1.039,0.104,0.099,9.033,5.127,104.553,0,0,0,
,1.062,0.132,0.091,-4.578,20.385,121.643,0,0,0,
,1.092,0.16,0.124,11.108,37.475,112.426,0,0,0,
,1.122,0.191,0.097,58.105,64.209,81.359,0,0,0,
,1.129,0.222,0.105,118.53,69.641,39.856,0,0,0,
,1.101,0.237,0.099,190.734,71.044,-6.226,0,0,0,
,1.069,0.211,0.073,251.892,70.678,-47.181,0,0,0,
,1.041,0.183,0.048,279.968,65.063,-59.937,0,0,0,
,1,0.18,0.045,277.038,30.944,-48.157,0,0,0,
,0.925,0.162,0.048,265.869,0.183,-23.499,0,0,0,
,0.863,0.148,0.037,252.38,-3.113,9.704,0,0,0,
,0.866,0.167,0.017,245.056,12.878,44.799,0,0,0,
,0.91,0.203,-0.004,263.183,12.939,62.683,0,0,0,
,0.965,0.224,-0.004,308.654,-2.747,56.396,0,0,0,
,1.008,0.232,0.004,369.323,-8.057,34.79,0,0,0,
,1.043,0.248,0.005,433.654,-14.405,6.103,0,0,0,
,1.064,0.238,0.003,474.67,-32.654,-16.724,0,0,0,
,1.045,0.206,-0.012,483.459,-53.406,-20.997,0,0,0,
,0.999,0.182,-0.031,452.453,-76.661,-0.672,0,0,0,
,0.955,0.161,-0.043,388.427,-93.445,34.668,0,0,0,
,0.916,0.154,-0.048,318.969,-105.347,85.205,0,0,0,
,0.882,0.185,-0.041,258.484,-114.38,131.164,0,0,0,
,0.859,0.18,-0.021,219.299,-106.995,172.119,0,0,0,
,0.854,0.209,-0.019,209.228,-97.962,191.528,0,0,0,
,0.854,0.227,-0.008,222.168,-83.985,191.467,0,0,0,
,0.846,0.238,-0.004,247.436,-74.83,182.006,0,0,0,
,0.848,0.235,-0.008,276.001,-58.716,164.001,0,0,0,
,0.863,0.227,-0.023,301.025,-45.227,148.254,0,0,0,
,0.873,0.209,-0.025,309.204,-47.547,131.042,0,0,0,
,0.861,0.195,-0.014,294.128,-47.242,117.492,0,0,0,
,0.848,0.183,-0.006,262.939,-42.786,109.069,0,0,0,
,0.845,0.179,-0.002,223.388,-40.162,100.525,0,0,0,
,0.852,0.178,-0.005,171.936,-39.917,92.041,0,0,0,
,0.86,0.178,-0.005,148.315,-43.946,82.092,0,0,0,
,0.878,0.181,-0.007,111.938,-48.401,66.65,0,0,0,
,0.908,0.182,-0.01,82.336,-45.35,43.335,0,0,0,
,0.96,0.178,-0.019,49.56,-53.101,25.207,0,0,0,
,0.988,0.164,-0.028,11.108,-74.769,12.573,0,0,0,
,0.978,0.137,-0.03,-48.401,-91.431,10.192,0,0,0,
,0.948,0.122,-0.033,-117.005,-93.995,14.77,0,0,0,
,0.929,0.127,-0.034,-179.505,-79.773,0.61,0,0,0,
,0.947,0.142,-0.038,-225.525,-34.974,3.967,0,0,0,
,1.001,0.155,-0.041,-240.357,-1.648,-23.316,0,0,0,
,1.038,0.17,-0.026,-245.484,17.089,-51.087,0,0,0,
,1.072,0.161,-0.005,-241.028,44.982,-98.938,0,0,0,
,1.124,0.132,0.012,-271.79,72.753,-149.842,0,0,0,
,1.154,0.102,0.077,-357.239,72.265,-182.862,0,0,0,
,1.136,0.04,0.143,-475.953,64.392,-201.416,0,0,0,
,1.074,-0.003,0.072,-688.843,29.48,-193.909,0,0,0,
,0.992,-0.003,-0.011,-900.574,-29.114,-161.622,0,0,0,
,0.918,0.039,-0.072,-1113.221,-108.277,-122.132,0,0,0,
,0.824,0.139,-0.065,-1204.102,-162.476,-78.858,0,0,0,
,0.768,0.222,-0.006,-1164.246,-168.213,-31.556,0,0,0,
,0.776,0.261,0.062,-1025.086,-119.812,-0.123,0,0,0,
,0.843,0.299,0.074,-853.394,-59.937,7.141,0,0,0,
,0.901,0.319,0.07,-622.62,-18.921,-7.935,0,0,0,
,0.954,0.304,0.076,-401.368,19.775,-47.791,0,0,0,
,1,0.257,0.085,-263.489,46.936,-93.934,0,0,0,
,1.017,0.205,0.085,-193.055,72.57,-130.005,0,0,0,
,0.989,0.178,0.081,-169.434,82.58,-151.123,0,0,0,
,0.925,0.17,0.084,-154.297,104.797,-155.64,0,0,0,
,0.874,0.183,0.087,-139.344,134.948,-155.396,0,0,0,
,0.859,0.209,0.087,-100.525,166.32,-159.485,0,0,0,
,0.857,0.224,0.095,-30.518,188.781,-168.335,0,0,0,
,0.865,0.224,0.116,38.574,200.5,-183.777,0,0,0,
,0.876,0.199,0.123,87.463,209.961,-202.149,0,0,0,
,0.892,0.172,0.104,84.106,216.125,-218.201,0,0,0,
,0.915,0.168,0.095,51.208,213.44,-229.798,0,0,0,
,0.919,0.18,0.091,23.254,197.631,-242.859,0,0,0,
,0.917,0.2,0.114,11.413,197.509,-254.151,0,0,0,
,0.924,0.22,0.13,13.305,202.942,-268.555,0,0,0,
,0.922,0.226,0.137,32.714,204.956,-279.969,0,0,0,
,0.912,0.224,0.15,57.006,205.566,-282.593,0,0,0,
,0.892,0.227,0.16,81.604,209.289,-278.199,0,0,0,
,0.872,0.228,0.159,100.647,211.059,-264.832,0,0,0,
,0.88,0.224,0.165,116.882,219.848,-249.939,0,0,0,
,0.932,0.217,0.152,134.582,204.651,-230.225,0,0,0,
,0.93,0.225,0.148,151.489,204.712,-212.525,0,0,0,
,0.963,0.233,0.154,179.26,186.462,-201.783,0,0,0,
,0.997,0.242,0.141,208.313,167.724,-195.008,0,0,0,
,1.03,0.241,0.134,233.825,143.554,-183.35,0,0,0,
,1.063,0.237,0.128,263.122,115.905,-167.786,0,0,0,
,1.097,0.231,0.11,279.968,93.994,-143.189,0,0,0,
,1.136,0.217,0.094,278.625,70.678,-111.206,0,0,0,
,1.171,0.207,0.076,254.821,40.954,-74.341,0,0,0,
,1.213,0.218,0.062,232.483,16.174,-41.81,0,0,0,
,1.265,0.257,0.07,232.36,25.451,-26.368,0,0,0,
,1.286,0.283,0.067,280.761,-11.658,-16.358,0,0,0,
,1.212,0.286,0.046,319.152,-64.759,4.15,0,0,0,
,1.065,0.283,0.027,379.15,-97.84,35.095,0,0,0,
,0.939,0.267,0.025,418.274,-123.108,79.04,0,0,0,
,0.906,0.237,0.014,455.688,-133.728,134.338,0,0,0,
,0.886,0.207,0.004,481.201,-134.522,199.463,0,0,0,
,0.927,0.213,-0.015,496.399,-130.127,245.117,0,0,0,
,1.009,0.234,-0.034,520.996,-146.485,268.066,0,0,0,
,1.071,0.235,-0.033,554.443,-182.557,273.559,0,0,0,
,1.11,0.243,-0.032,606.445,-216.248,265.38,0,0,0,
,1.11,0.243,-0.041,635.62,-255.86,252.258,0,0,0,
,1.056,0.212,-0.048,642.273,-296.509,251.464,0,0,0,
,0.976,0.173,-0.06,610.107,-319.519,260.498,0,0,0,
,0.94,0.155,-0.081,549.133,-314.026,281.433,0,0,0,
,0.931,0.142,-0.091,464.599,-319.581,310.424,0,0,0,
,0.929,0.143,-0.093,389.16,-322.632,339.477,0,0,0,
,0.928,0.166,-0.095,327.087,-320.191,356.018,0,0,0,
,0.914,0.189,-0.089,289.184,-320.557,360.473,0,0,0,
,0.879,0.205,-0.083,269.104,-307.19,354.248,0,0,0,
,0.852,0.21,-0.081,269.897,-276.795,334.961,0,0,0,
,0.835,0.216,-0.071,279.113,-239.991,297.18,0,0,0,
,0.834,0.216,-0.072,290.588,-202.271,282.348,0,0,0,
,0.821,0.209,-0.073,300.048,-175.354,248.169,0,0,0,
,0.803,0.203,-0.078,297.668,-145.752,214.721,0,0,0,
,0.786,0.194,-0.079,288.574,-121.46,178.1,0,0,0,
,0.784,0.19,-0.07,267.151,-95.215,146.179,0,0,0,
,0.784,0.189,-0.064,246.032,-70.984,115.478,0,0,0,
,0.792,0.189,-0.05,224.792,-51.27,80.322,0,0,0,
,0.813,0.185,-0.049,200.378,-27.222,46.997,0,0,0,
,0.843,0.189,-0.052,174.56,-6.958,8.972,0,0,0,
,0.875,0.185,-0.054,150.268,9.948,-24.231,0,0,0,
,0.908,0.182,-0.053,113.83,26.977,-59.388,0,0,0,
,0.922,0.179,-0.049,74.279,40.1,-90.027,0,0,0,
,0.918,0.177,-0.034,31.25,62.561,-113.465,0,0,0,
,0.922,0.179,-0.015,-9.583,102.111,-140.259,0,0,0,
,0.953,0.183,-0.017,-57.679,143.493,-169.617,0,0,0,
,1.012,0.188,-0.018,-95.826,182.739,-206.971,0,0,0,
,1.066,0.197,-0.026,-130.982,212.158,-248.597,0,0,0,
,1.117,0.213,-0.017,-156.067,239.746,-298.523,0,0,0,
,1.092,0.229,0.024,-164.429,246.032,-342.469,0,0,0,
,0.998,0.209,0.068,-144.043,263.488,-367.615,0,0,0,
,0.932,0.176,0.079,-141.907,319.213,-376.526,0,0,0,
,0.926,0.167,0.067,-150.635,364.624,-371.705,0,0,0,
,0.927,0.168,0.07,-165.467,377.99,-360.23,0,0,0,
,0.897,0.176,0.084,-151.49,370.727,-342.53,0,0,0,
,0.872,0.179,0.097,-119.996,376.77,-324.219,0,0,0,
,0.897,0.182,0.089,-86.182,389.221,-308.045,0,0,0,
,1.071,0.122,0.105,-40.223,333.068,-250.306,0,0,0,
,1.112,0.124,0.083,-69.519,298.584,-228.577,0,0,0,
,1.124,0.131,0.077,-93.14,247.314,-201.233,0,0,0,
,1.082,0.145,0.108,-99.61,197.082,-167.298,0,0,0,
,1.014,0.146,0.134,-83.863,167.602,-124.085,0,0,0,
,0.98,0.106,0.153,-83.313,158.386,-94.483,0,0,0,
,0.934,0.154,0.158,-83.252,163.513,-40.711,0,0,0,
,0.904,0.191,0.141,-22.461,164.978,-24.72,0,0,0,
,0.899,0.158,0.141,55.969,167.053,-35.34,0,0,0,
,0.907,0.134,0.133,77.819,164.978,-35.584,0,0,0,
,0.913,0.151,0.131,81.97,152.282,-35.767,0,0,0,
,0.911,0.171,0.115,108.703,140.686,-47.791,0,0,0,
,0.916,0.13,0.127,129.882,126.648,-69.092,0,0,0,
,0.92,0.103,0.135,91.308,120.605,-82.703,0,0,0,
,0.917,0.123,0.143,30.517,118.408,-98.328,0,0,0,
,0.912,0.152,0.152,1.159,113.342,-119.568,0,0,0,
,0.907,0.161,0.164,-2.259,101.806,-143.799,0,0,0,
,0.89,0.172,0.153,-1.893,89.416,-156.983,0,0,0,
,0.865,0.196,0.146,13.244,77.514,-171.448,0,0,0,
,0.858,0.221,0.148,59.997,78.918,-183.045,0,0,0,
,0.869,0.235,0.154,137.451,77.392,-194.886,0,0,0,
,0.878,0.244,0.151,210.144,77.941,-197.144,0,0,0,
,0.9,0.254,0.152,287.17,79.895,-195.13,0,0,0,
,0.941,0.256,0.148,385.192,87.219,-188.599,0,0,0,
,0.997,0.246,0.141,449.768,78.918,-173.706,0,0,0,
,1.044,0.216,0.125,495.239,52.856,-146.363,0,0,0,
,1.091,0.186,0.074,491.943,29.296,-105.774,0,0,0,
,1.176,0.153,0.018,448.303,2.075,-70.801,0,0,0,
,1.272,0.147,-0.008,379.089,-45.838,-36.622,0,0,0,
,1.322,0.171,0.004,304.077,-100.464,-19.165,0,0,0,
,1.316,0.225,0.034,267.761,-128.968,-19.227,0,0,0,
,1.254,0.257,0.038,275.817,-163.697,-19.349,0,0,0,
,1.11,0.258,0.016,294.494,-192.505,-4.09,0,0,0,
,0.965,0.258,-0.005,315.796,-200.806,33.081,0,0,0,
,0.853,0.242,-0.02,349.304,-190.064,76.049,0,0,0,
,0.819,0.216,-0.034,389.221,-151.551,127.136,0,0,0,
,0.887,0.2,-0.094,422.607,-112.366,159.423,0,0,0,
,1.021,0.203,-0.084,425.293,-115.418,171.447,0,0,0,
,1.077,0.221,-0.082,438.232,-159.302,162.719,0,0,0,
,1.06,0.244,-0.064,462.646,-194.275,139.892,0,0,0,
,1.057,0.256,-0.071,481.262,-194.336,98.266,0,0,0,
,1.024,0.25,-0.09,505.615,-213.868,71.96,0,0,0,
,0.964,0.223,-0.107,523.254,-220.459,69.213,0,0,0,
,0.94,0.196,-0.125,506.103,-216.858,80.932,0,0,0,
,0.92,0.176,-0.133,472.534,-225.098,116.577,0,0,0,
,0.884,0.164,-0.123,436.584,-233.399,163.818,0,0,0,
,0.856,0.164,-0.115,397.827,-221.314,207.58,0,0,0,
,0.884,0.172,-0.114,372.375,-191.651,246.215,0,0,0,
,0.899,0.179,-0.128,359.497,-195.862,275.085,0,0,0,
,0.863,0.182,-0.136,342.285,-199.158,296.997,0,0,0,
,0.833,0.157,-0.137,335.815,-172.364,298.706,0,0,0,
,0.842,0.187,-0.14,337.768,-139.71,282.959,0,0,0,
,0.859,0.203,-0.137,345.825,-108.033,257.995,0,0,0,
,0.876,0.214,-0.127,368.408,-78.675,222.717,0,0,0,
,0.866,0.22,-0.109,388.305,-52.918,180.481,0,0,0,
,0.837,0.215,-0.086,409.668,-13.245,141.906,0,0,0,
,0.825,0.189,-0.096,415.588,39.001,104.126,0,0,0,
,0.84,0.178,-0.101,400.085,84.167,76.721,0,0,0,
,0.851,0.191,-0.08,399.658,121.704,55.419,0,0,0,
,0.864,0.198,-0.036,418.701,154.785,27.099,0,0,0,
,0.894,0.192,0.004,441.589,190.796,-6.226,0,0,0,
,0.951,0.176,0.027,455.871,225.036,-41.993,0,0,0,
,1.04,0.139,0.009,409.423,214.904,-100.22,0,0,0,
,1.041,0.106,-0.011,340.698,157.47,-116.639,0,0,0,
,1.033,0.074,-0.036,240.356,130.066,-118.287,0,0,0,
,1.048,0.047,-0.035,134.399,90.759,-105.469,0,0,0,
,1.056,0.042,-0.021,18.554,47.973,-87.281,0,0,0,
,1.116,0.048,-0.04,-98.328,52.673,-77.149,0,0,0,
,1.237,0.092,-0.064,-179.505,56.579,-96.009,0,0,0,
,1.27,0.149,-0.029,-197.022,11.23,-111.512,0,0,0,
,1.141,0.186,0.045,-163.331,-25.391,-121.216,0,0,0,
,0.971,0.153,0.086,-117.798,7.995,-121.155,0,0,0,
,0.839,0.129,0.12,-101.624,63.171,-93.75,0,0,0,
,0.762,0.106,0.151,-98.938,115.417,-34.485,0,0,0,
,0.73,0.075,0.139,-99.732,173.339,1.709,0,0,0,
,0.812,0.068,0.108,-105.713,222.412,45.715,0,0,0,
,0.885,0.095,0.076,-95.704,230.529,65.368,0,0,0,
,0.975,0.129,0.067,-55.359,198.425,53.344,0,0,0,
,1.039,0.143,0.056,21.911,172.729,13.366,0,0,0,
,1.089,0.15,0.059,95.581,128.173,-43.396,0,0,0,
,1.067,0.162,0.086,142.944,77.392,-97.962,0,0,0,
,0.972,0.152,0.119,181.03,54.931,-141.602,0,0,0,
,0.879,0.132,0.132,211.12,94.604,-171.326,0,0,0,
,0.853,0.125,0.13,228.759,153.808,-179.932,0,0,0,
,0.854,0.13,0.118,264.892,191.284,-168.641,0,0,0,
,0.851,0.135,0.109,302.673,214.538,-157.41,0,0,0,
,0.871,0.141,0.113,352.172,241.394,-147.828,0,0,0,
,0.903,0.132,0.094,382.446,244.384,-146.18,0,0,0,
,0.923,0.109,0.086,392.578,227.05,-146.119,0,0,0,
,0.93,0.08,0.076,362.915,205.81,-145.02,0,0,0,
,0.937,0.071,0.079,301.086,187.378,-144.715,0,0,0,
,0.943,0.08,0.086,234.436,165.588,-143.921,0,0,0,
,0.945,0.099,0.1,189.026,157.531,-146.424,0,0,0,
,0.944,0.12,0.104,157.653,145.874,-149.048,0,0,0,
,0.929,0.138,0.113,153.747,146.911,-151.246,0,0,0,
,0.911,0.145,0.118,169.555,146.667,-153.443,0,0,0,
,0.893,0.146,0.125,187.622,153.259,-153.199,0,0,0,
,0.893,0.139,0.125,202.27,164.367,-151.001,0,0,0,
,0.909,0.149,0.122,214.294,169.433,-147.461,0,0,0,
,0.927,0.154,0.132,238.891,159.851,-147.767,0,0,0,
,0.946,0.156,0.14,269.348,146.423,-146.607,0,0,0,
,0.973,0.145,0.15,284.851,140.136,-145.264,0,0,0,
,1.004,0.138,0.14,287.78,124.023,-137.33,0,0,0,
,1.031,0.11,0.088,206.115,10.62,-39.49,0,0,0,
,1.002,0.081,0.074,154.602,-25.269,17.822,0,0,0,
,0.999,0.078,0.068,87.646,-29.725,65.002,0,0,0,
,1.034,0.121,0.068,46.691,-21.241,95.703,0,0,0,
,1.11,0.147,0.056,38.879,-8.484,96.496,0,0,0,
,1.186,0.178,0.046,62.561,-0.794,69.397,0,0,0,
,1.209,0.24,0.051,108.093,-20.203,29.113,0,0,0,
,1.156,0.27,0.059,185.424,-39.429,-14.161,0,0,0,
,1.045,0.26,0.041,282.898,-37.903,-41.016,0,0,0,
,0.955,0.226,0.025,354.431,-39.368,-36.744,0,0,0,
,0.871,0.19,0.003,406.189,-44.556,3.601,0,0,0,
,0.809,0.159,-0.014,409.179,-49.317,56.03,0,0,0,
,0.811,0.131,-0.037,413.757,-28.382,112.304,0,0,0,
,0.896,0.151,-0.054,400.39,-13.733,150.268,0,0,0,
,1.002,0.174,-0.061,402.404,-39.49,160.156,0,0,0,
,1.072,0.192,-0.056,424.804,-79.468,149.658,0,0,0,
,1.086,0.202,-0.054,452.942,-112.61,135.986,0,0,0,
,1.055,0.201,-0.057,466.552,-134.339,117.37,0,0,0,
,1.015,0.183,-0.057,471.374,-141.236,111.816,0,0,0,
,0.985,0.168,-0.074,459.777,-135.376,125.732,0,0,0,
,0.953,0.143,-0.083,424.133,-145.508,158.63,0,0,0,
,0.931,0.13,-0.087,382.385,-136.414,193.359,0,0,0,
,0.936,0.135,-0.089,339.843,-129.09,233.032,0,0,0,
,0.919,0.147,-0.087,322.265,-135.132,267.212,0,0,0,
,0.886,0.162,-0.076,310.485,-130.616,289.367,0,0,0,
,0.878,0.169,-0.075,309.631,-105.347,291.442,0,0,0,
,0.886,0.177,-0.072,318.786,-86.182,284.546,0,0,0,
,0.886,0.174,-0.072,335.876,-71.228,267.761,0,0,0,
,0.894,0.171,-0.064,351.928,-52.979,247.436,0,0,0,
,0.901,0.168,-0.062,356.384,-37.659,213.928,0,0,0,
,0.903,0.157,-0.046,348.083,-22.339,180.542,0,0,0,
,0.884,0.149,-0.035,324.035,-9.583,148.437,0,0,0,
,0.867,0.142,-0.03,297.363,5.676,121.582,0,0,0,
,0.855,0.149,-0.025,276.794,18.92,102.05,0,0,0,
,0.861,0.155,-0.014,265.564,30.944,78.857,0,0,0,
,0.871,0.158,-0.005,263.061,41.32,55.358,0,0,0,
,0.908,0.153,-0.011,255.188,47.241,31.433,0,0,0,
,0.942,0.137,-0.015,233.52,40.283,11.84,0,0,0,
,0.977,0.126,-0.024,191.101,31.189,-7.63,0,0,0,
,1.002,0.119,-0.024,131.591,12.756,-28.931,0,0,0,
,0.99,0.114,-0.018,49.621,-5.677,-42.603,0,0,0,
,0.953,0.114,-0.003,-24.598,-1.954,-58.35,0,0,0,
,0.94,0.126,-0.001,-98.389,24.78,-78.37,0,0,0,
,0.962,0.149,-0.004,-148.926,53.894,-105.042,0,0,0,
,1.008,0.155,-0.027,-178.65,85.266,-154.602,0,0,0,
,1.084,0.157,-0.046,-197.693,115.6,-189.331,0,0,0,
,1.159,0.181,-0.036,-214.905,126.159,-241.639,0,0,0,
,1.144,0.174,-0.003,-226.014,106.262,-278.87,0,0,0,
,1,0.107,0.004,-242.432,76.171,-297.242,0,0,0,
,0.858,0.05,0.005,-293.885,87.341,-288.941,0,0,0,
,0.761,0.059,0.008,-375.428,132.751,-264.222,0,0,0,
,0.752,0.075,0.014,-434.144,181.701,-242.615,0,0,0,
,0.787,0.085,0.004,-433.716,196.96,-211.243,0,0,0,
,0.848,0.109,-0.021,-407.044,206.482,-180.97,0,0,0,
,0.969,0.164,-0.037,-342.896,214.538,-168.091,0,0,0,
,1.072,0.202,-0.031,-256.409,195.739,-170.899,0,0,0,
,1.124,0.206,-0.003,-158.02,171.569,-180.909,0,0,0,
,1.13,0.187,0.026,-88.074,178.283,-193.36,0,0,0,
,1.08,0.187,0.046,-42.786,185.547,-197.022,0,0,0,
,1.001,0.178,0.065,0.061,208.496,-188.172,0,0,0,
,0.941,0.168,0.079,24.108,239.929,-169.861,0,0,0,
,0.912,0.165,0.101,35.522,277.588,-144.043,0,0,0,
,0.906,0.184,0.102,61.706,299.926,-116.639,0,0,0,
,0.91,0.196,0.097,117.92,304.26,-105.896,0,0,0,
,0.924,0.181,0.083,162.841,289.795,-97.718,0,0,0,
,0.918,0.165,0.078,186.828,264.587,-94.117,0,0,0,
,0.905,0.154,0.074,198.059,237.548,-103.821,0,0,0,
,0.91,0.146,0.08,191.589,226.623,-117.005,0,0,0,
,0.923,0.148,0.091,189.331,213.44,-139.71,0,0,0,
,0.936,0.169,0.108,210.754,208.191,-165.955,0,0,0,
,0.941,0.187,0.119,260.62,219.604,-196.045,0,0,0,
,0.945,0.195,0.129,317.505,234.558,-223.694,0,0,0,
,0.942,0.187,0.135,370.483,242.92,-240.662,0,0,0,
,0.947,0.185,0.133,417.968,260.681,-241.578,0,0,0,
,0.962,0.187,0.12,463.44,259.521,-227.478,0,0,0,
,0.956,0.177,0.11,509.704,237.426,-202.881,0,0,0,
,0.953,0.176,0.104,538.452,216.98,-175.843,0,0,0,
,0.963,0.175,0.089,561.462,191.467,-146.912,0,0,0,
,0.977,0.167,0.082,582.458,153.808,-112.488,0,0,0,
,0.991,0.151,0.075,597.595,110.717,-90.516,0,0,0,
,1.005,0.147,0.086,592.773,66.894,-64.393,0,0,0,
,1.008,0.158,0.09,580.749,32.165,-45.227,0,0,0,
,1.036,0.149,0.067,560.547,7.873,-34.363,0,0,0,
,1.095,0.135,0.026,514.465,-7.508,-23.743,0,0,0,
,1.183,0.147,0.008,455.139,-40.406,-18.25,0,0,0,
,1.219,0.179,-0.005,415.405,-122.559,-8.057,0,0,0,
,1.162,0.197,-0.026,404.235,-174.256,5.859,0,0,0,
,1.108,0.211,-0.044,406.067,-189.27,14.465,0,0,0,
,1.097,0.227,-0.064,419.25,-201.05,25.94,0,0,0,
,1.066,0.233,-0.063,467.956,-234.009,35.156,0,0,0,
,1.045,0.239,-0.068,504.028,-222.718,36.926,0,0,0,
,1.039,0.229,-0.079,540.466,-224.732,34.973,0,0,0,
,0.971,0.219,-0.081,567.932,-245.972,39.428,0,0,0,
,0.887,0.209,-0.072,583.13,-240.906,48.828,0,0,0,
,0.852,0.209,-0.064,549.56,-203.858,65.673,0,0,0,
,0.871,0.232,-0.096,553.039,-191.529,77.026,0,0,0,
,0.862,0.204,-0.144,573.425,-221.985,98.877,0,0,0,
,0.835,0.26,-0.144,621.032,-225.342,119.873,0,0,0,
,0.863,0.322,-0.17,711.12,-200.44,103.454,0,0,0,
,0.929,0.323,-0.186,844.055,-201.6,59.021,0,0,0,
,0.994,0.282,-0.188,932.678,-213.562,23.681,0,0,0,
,1.042,0.258,-0.198,941.162,-210.511,-19.043,0,0,0,
,1.048,0.244,-0.203,899.109,-230.347,-59.876,0,0,0,
,0.998,0.228,-0.177,809.814,-236.939,-88.685,0,0,0,
,0.941,0.218,-0.156,695.922,-208.863,-101.807,0,0,0,
,0.916,0.217,-0.152,561.157,-169.312,-91.248,0,0,0,
,0.898,0.21,-0.169,422.302,-153.077,-63.538,0,0,0,
,0.868,0.222,-0.187,335.388,-137.757,-27.039,0,0,0,
,0.847,0.246,-0.19,265.869,-109.192,4.638,0,0,0,
,0.858,0.265,-0.192,250.793,-77.637,25.39,0,0,0,
,0.877,0.284,-0.185,240.234,-54.322,37.78,0,0,0,
,0.845,0.32,-0.2,274.597,-23.804,29.357,0,0,0,
,0.887,0.397,-0.236,406.982,12.878,4.76,0,0,0,
,0.911,0.439,-0.256,623.962,26.367,-29.908,0,0,0,
,0.921,0.403,-0.252,817.688,33.203,-54.627,0,0,0,
,0.923,0.364,-0.247,970.52,59.204,-64.82,0,0,0,
,0.922,0.301,-0.232,1042.724,75.683,-52.735,0,0,0,
,0.921,0.234,-0.209,1027.893,96.374,-21.119,0,0,0,
,0.928,0.194,-0.189,942.016,120.788,21.972,0,0,0,
,0.955,0.182,-0.187,811.096,143.737,67.321,0,0,0,
,0.986,0.177,-0.174,686.95,146.301,114.502,0,0,0,
,0.994,0.19,-0.164,598.571,137.878,151.245,0,0,0,
,0.987,0.182,-0.149,537.475,133.056,182.678,0,0,0,
,0.984,0.167,-0.131,481.567,124.633,215.026,0,0,0,
,1.13,0.118,-0.149,251.464,112.06,289.428,0,0,0,
,1.258,0.111,-0.159,161.682,102.356,298.828,0,0,0,
,1.314,0.113,-0.112,92.163,67.443,302.307,0,0,0,
,1.205,0.12,-0.038,34.668,16.479,310.913,0,0,0,
,1.008,0.112,0.044,-0.794,26.123,324.096,0,0,0,
,0.757,0.012,0.096,-9.339,147.033,420.593,0,0,0,
,0.753,-0.012,0.064,-45.594,175.476,417.48,0,0,0,
,0.791,0.01,0.045,-67.505,206.298,405.212,0,0,0,
,0.901,0.114,-0.009,-52.796,239.502,367.187,0,0,0,
,1.085,-0.165,0.55,272.949,-494.385,151.428,0,0,0,
,0.952,0.122,0.562,25.94,-259.644,125.976,0,0,0,
,1.006,0.265,0.475,6.469,-47.425,43.457,0,0,0,
,0.964,0.282,0.367,32.898,115.234,-9.705,0,0,0,
,0.823,0.244,0.232,96.74,262.39,-105.225,0,0,0,
,0.786,0.171,0.14,140.564,437.683,-125.367,0,0,0,
,0.8,0.304,0.064,281.128,544.922,-142.273,0,0,0,
,0.842,0.291,0.047,557.312,565.49,-193.055,0,0,0,
,0.852,0.241,-0.011,739.196,538.025,-217.652,0,0,0,
,0.839,0.194,-0.07,796.02,474.853,-252.991,0,0,0,
,0.844,0.151,-0.1,750.976,408.142,-314.637,0,0,0,
,0.906,0.144,-0.029,571.228,188.659,-440.796,0,0,0,
,0.904,0.154,0.019,535.644,147.949,-464.356,0,0,0,
,0.897,0.171,0.053,500.488,143.249,-486.512,0,0,0,
,0.898,0.193,0.085,468.383,165.649,-507.019,0,0,0,
,0.896,0.248,0.102,466.919,274.902,-517.09,0,0,0,
,0.891,0.259,0.093,495.117,310.913,-493.775,0,0,0,
,0.885,0.262,0.083,535.827,310.363,-461.182,0,0,0,
,0.885,0.261,0.067,581.115,308.227,-411.56,0,0,0,
,0.9,0.253,0.051,622.314,294.006,-358.277,0,0,0,
,0.926,0.248,0.032,671.814,264.038,-298.096,0,0,0,
,0.972,0.233,0.006,681.823,233.154,-222.657,0,0,0,
,1.043,0.211,-0.026,680.542,192.26,-175.843,0,0,0,
,1.128,0.194,-0.032,657.409,148.01,-118.653,0,0,0,
,1.221,0.192,-0.024,607.788,89.111,-70.801,0,0,0,
,1.247,0.184,-0.01,542.358,9.704,-21.241,0,0,0,
,1.19,0.183,0.004,467.773,-36.988,33.264,0,0,0,
,1.13,0.205,0,411.071,-46.753,81.054,0,0,0,
,1.102,0.243,-0.01,399.353,-44.678,123.108,0,0,0,
,1.052,0.259,-0.002,432.19,-58.594,156.555,0,0,0,
,0.985,0.26,0,485.412,-66.163,192.321,0,0,0,
,0.926,0.262,-0.003,542.541,-63.538,217.224,0,0,0,
,0.899,0.225,-0.056,679.504,-61.341,248.413,0,0,0,
,0.976,0.219,-0.075,705.81,-63.66,230.529,0,0,0,
,1.078,0.222,-0.073,734.924,-102.845,191.223,0,0,0,
,1.148,0.2,-0.102,741.699,-170.655,157.959,0,0,0,
,1.153,0.187,-0.119,650.695,-211.243,144.836,0,0,0,
,1.138,0.167,-0.15,559.692,-257.081,121.826,0,0,0,
,1.143,0.146,-0.181,456.848,-282.776,138.305,0,0,0,
,1.134,0.124,-0.2,320.678,-336.06,184.692,0,0,0,
,1.069,0.113,-0.205,194.641,-385.682,258.484,0,0,0,
,1.001,0.116,-0.197,92.956,-395.203,331.421,0,0,0,
,0.955,0.135,-0.195,16.662,-377.869,401.245,0,0,0,
,0.925,0.155,-0.187,4.516,-360.657,456.359,0,0,0,
,0.853,0.215,-0.178,64.209,-212.342,478.149,0,0,0,
,0.831,0.228,-0.172,117.065,-167.298,431.64,0,0,0,
,0.811,0.234,-0.163,178.65,-116.578,371.276,0,0,0,
,0.8,0.237,-0.152,245.544,-57.679,295.837,0,0,0,
,0.732,0.194,-0.135,374.633,76.11,91.369,0,0,0,
,0.744,0.182,-0.134,379.76,102.478,43.212,0,0,0,
,0.787,0.176,-0.133,365.112,130.005,-1.465,0,0,0,
,0.823,0.177,-0.131,340.393,133.545,-35.401,0,0,0,
,0.87,0.173,-0.135,308.899,136.718,-74.158,0,0,0,
,1.033,0.173,-0.154,171.508,98.51,-160.645,0,0,0,
,1.01,0.177,-0.116,137.695,79.956,-167.969,0,0,0,
,0.983,0.174,-0.085,106.75,103.576,-166.748,0,0,0,
,1.003,0.152,-0.061,74.646,140.075,-166.687,0,0,0,
,1.046,0.135,-0.047,28.503,173.462,-159.241,0,0,0,
,1.143,0.115,-0.05,-38.941,231.323,-170.96,0,0,0,
,1.273,0.118,-0.086,-121.644,259.948,-201.477,0,0,0,
,1.349,0.148,-0.068,-201.233,247.619,-241.089,0,0,0,
,1.232,0.191,0.03,-210.816,210.022,-268.189,0,0,0,
,1.014,0.206,0.122,-177.185,223.755,-288.697,0,0,0,
,0.875,0.206,0.179,-122.62,288.635,-294.861,0,0,0,
,0.8,0.189,0.193,-58.35,353.82,-273.255,0,0,0,
,0.756,0.136,0.159,2.807,376.77,-244.996,0,0,0,
,0.727,0.089,0.141,20.08,383.545,-191.529,0,0,0,
,0.756,0.088,0.088,18.859,395.813,-156.25,0,0,0,
,0.848,0.101,0.029,11.169,384.643,-136.414,0,0,0,
,0.97,0.097,0.016,11.657,316.223,-131.165,0,0,0,
,1.167,0.003,0.281,-953.736,-286.927,63.598,0,0,0,
,0.98,0.298,0.257,-934.693,-243.103,81.97,0,0,0,
,0.963,0.343,0.248,-748.475,-129.273,65.063,0,0,0,
,0.954,0.306,0.177,-715.882,-60.608,80.139,0,0,0,
,0.877,0.405,0.131,-533.997,13.061,76.66,0,0,0,
,0.796,0.48,0.027,-56.153,44.799,-15.503,0,0,0,
,0.834,0.333,-0.028,319.641,133.728,-70.008,0,0,0,
,0.834,0.262,-0.044,519.165,144.287,-102.478,0,0,0,
,0.79,0.275,-0.063,705.81,153.564,-148.377,0,0,0,
,0.79,0.158,-0.063,761.047,162.841,-189.331,0,0,0,
,0.796,0.079,-0.044,645.507,164.489,-206.482,0,0,0,
,0.8,0.097,-0.012,493.164,168.945,-205.018,0,0,0,
,0.83,0.143,0.063,130.249,202.087,-194.336,0,0,0,
,0.811,0.174,0.088,54.931,217.956,-194.886,0,0,0,
,0.813,0.203,0.112,17.578,238.647,-197.693,0,0,0,
,0.841,0.208,0.126,40.71,250.427,-205.262,0,0,0,
,0.865,0.184,0.123,125.976,235.473,-213.807,0,0,0,
,0.874,0.145,0.118,177.246,233.642,-206.177,0,0,0,
,0.91,0.168,0.12,156.616,242.675,-202.393,0,0,0,
,0.986,0.194,0.087,144.531,236.999,-189.148,0,0,0,
,1.093,0.184,0.069,137.573,201.538,-180.115,0,0,0,
,1.145,0.187,0.05,159.301,151.733,-139.527,0,0,0,
,1.166,0.17,0.025,174.133,67.871,-102.051,0,0,0,
,1.161,0.141,0.004,132.69,35.217,-23.499,0,0,0,
,1.12,0.028,0.083,-227.234,-35.889,220.337,0,0,0,
,1.26,0.058,0.039,-428.101,35.644,249.389,0,0,0,
,1.448,0.164,0.024,-534.363,28.747,242.248,0,0,0,
,1.444,0.285,0.051,-512.879,-93.079,216.858,0,0,0,
,1.217,0.356,0.075,-399.353,-193.726,190.551,0,0,0,
,0.947,0.186,0.008,217.102,-205.445,186.157,0,0,0,
,0.935,0.08,-0.002,260.009,-225.831,272.277,0,0,0,
,0.93,0.046,-0.009,261.474,-251.587,303.833,0,0,0,
,0.932,0.167,-0.184,551.33,-251.16,264.709,0,0,0,
,1.023,0.176,-0.089,824.279,-236.573,177.917,0,0,0,
,1.104,-0.045,-0.109,633.545,-278.931,143.798,0,0,0,
,1.065,0.024,-0.141,572.448,-245.728,126.037,0,0,0,
,1.091,-0.151,-0.031,254.394,-292.359,156.189,0,0,0,
,1.099,-0.164,0.027,-311.646,-344.239,284.668,0,0,0,
,1.021,0.011,-0.002,-661.683,-332.764,385.131,0,0,0,
,0.95,0.148,-0.063,-731.568,-345.459,447.021,0,0,0,
,0.926,0.174,-0.075,-708.802,-316.224,481.811,0,0,0,
,0.941,0.235,-0.104,-639.283,-262.757,497.802,0,0,0,
,0.978,0.24,-0.094,-506.714,-239.38,488.525,0,0,0,
,1.003,0.211,-0.09,-373.23,-240.235,477.356,0,0,0,
,0.996,0.197,-0.089,-239.014,-258.484,464.599,0,0,0,
,0.945,0.186,-0.08,-124.268,-272.889,440.063,0,0,0,
,0.895,0.16,-0.067,-43.763,-271.363,402.343,0,0,0,
,0.868,0.112,-0.065,-25.086,-265.625,361.816,0,0,0,
,0.844,0.077,-0.058,-67.994,-264.893,321.472,0,0,0,
,0.805,0.064,-0.047,-152.161,-248.414,277.526,0,0,0,
,0.771,0.075,-0.037,-206.299,-232.422,227.295,0,0,0,
,0.737,0.09,-0.023,-258.423,-209.839,164.123,0,0,0,
,0.717,0.107,-0.019,-296.082,-184.205,87.646,0,0,0,
,0.706,0.117,-0.015,-323.67,-155.762,7.812,0,0,0,
,0.714,0.124,-0.022,-343.323,-138.428,-84.29,0,0,0,
,0.741,0.124,-0.038,-359.253,-125.428,-175.354,0,0,0,
,0.787,0.131,-0.049,-389.161,-120.301,-278.016,0,0,0,
,0.839,0.133,-0.065,-433.289,-129.029,-377.259,0,0,0,
,0.859,0.13,-0.077,-496.216,-152.283,-463.135,0,0,0,
,0.864,0.131,-0.088,-570.923,-154.969,-551.453,0,0,0,
,0.908,0.137,-0.106,-656.922,-131.226,-637.085,0,0,0,
,1.015,0.142,-0.138,-736.268,-98.267,-737.793,0,0,0,
,1.148,0.169,-0.181,-822.632,-74.402,-831.177,0,0,0,
,1.273,0.216,-0.207,-880.616,-83.68,-934.693,0,0,0,
,1.325,0.276,-0.189,-905.701,-81.971,-1019.471,0,0,0,
,1.302,0.33,-0.138,-862.061,-63.782,-1088.868,0,0,0,
,1.242,0.366,-0.054,-776.917,-4.883,-1115.784,0,0,0,
,1.19,0.361,0.028,-638.855,73.547,-1086.243,0,0,0,
,1.092,0.331,0.027,-474.427,145.691,-1020.386,0,0,0,
,0.989,0.279,0.034,-342.713,208.252,-902.894,0,0,0,
,0.91,0.213,0.014,-253.235,270.385,-757.874,0,0,0,
,0.937,0.153,-0.032,-241.272,315.796,-600.831,0,0,0,
,0.954,0.115,-0.084,-313.416,332.763,-452.271,0,0,0,
,1.021,0.113,-0.12,-446.167,286.621,-313.843,0,0,0,
,1.058,0.124,-0.135,-569.886,218.811,-208.863,0,0,0,
,1.063,0.172,-0.143,-690.247,142.334,-124.024,0,0,0,
,1.047,0.217,-0.127,-772.4,71.838,-71.351,0,0,0,
,1,0.245,-0.106,-808.045,13.183,-33.753,0,0,0,
,0.908,0.273,-0.068,-800.599,-20.874,-2.93,0,0,0,
,0.832,0.285,-0.039,-755.921,-8.484,15.869,0,0,0,
,0.786,0.283,-0.019,-684.266,32.409,23.254,0,0,0,
