TIMECODE,ACC_X,ACC_Y,ACC_Z,GYR_X,GYR_Y,GYR_Z,ECG_I,ECG_II,ECG_III,TAG
,-0.169,-0.43,0.898,-37.72,28.869,-20.752,0,0,0,
,-0.242,-0.407,0.999,-49.134,59.631,-43.763,0,0,0,
,-0.232,-0.442,0.937,-175.965,46.081,-86.121,0,0,0,
,-0.228,-0.367,0.996,-245.911,48.523,-101.197,0,0,0,
,-0.237,-0.284,1.022,-187.989,39.123,-142.884,0,0,0,
,-0.192,-0.33,1.002,-62.623,13.244,-167.359,0,0,0,
,-0.181,-0.381,1.005,49.804,18.371,-150.635,0,0,0,
,-0.221,-0.412,0.967,92.468,44.677,-123.23,0,0,0,
,-0.161,-0.434,0.936,107.299,58.654,-138.001,0,0,0,
,-0.089,-0.463,0.96,89.538,47.485,-139.71,0,0,0,
,-0.109,-0.424,0.919,29.907,61.279,-126.831,0,0,0,
,-0.134,-0.37,0.881,30.517,61.95,-122.559,0,0,0,
,-0.151,-0.354,0.832,69.458,74.279,-111.878,0,0,0,
,-0.175,-0.357,0.811,87.524,72.448,-100.037,0,0,0,
,-0.175,-0.421,0.812,60.18,75.805,-97.413,0,0,0,
,-0.143,-0.495,0.854,12.329,71.838,-114.38,0,0,0,
,-0.125,-0.517,0.862,-36.438,59.692,-122.132,0,0,0,
,-0.081,-0.545,0.854,-76.6,28.32,-143.616,0,0,0,
,-0.058,-0.495,0.856,-141.541,1.342,-134.461,0,0,0,
,-0.037,-0.472,0.871,-178.65,-38.086,-144.104,0,0,0,
,0.058,-0.487,0.892,-228.028,-95.581,-150.574,0,0,0,
,0.161,-0.511,0.801,-231.69,-55.787,-184.754,0,0,0,
,0.16,-0.458,0.751,-132.019,-70.13,-244.629,0,0,0,
,0.032,-0.387,0.737,-59.693,-59.937,-254.151,0,0,0,
,-0.053,-0.323,0.776,-28.321,-17.395,-247.071,0,0,0,
,-0.111,-0.272,0.968,-127.686,-14.527,-220.276,0,0,0,
,-0.254,-0.255,1.067,-139.649,-41.26,-165.101,0,0,0,
,-0.33,-0.275,1.123,-40.345,-72.876,-88.746,0,0,0,
,-0.346,-0.265,1.102,140.625,-105.774,5.859,0,0,0,
,-0.354,-0.286,1.044,346.496,-186.036,53.955,0,0,0,
,-0.419,-0.47,1.046,373.474,-246.46,84.35,0,0,0,
,-0.54,-0.527,1.025,247.436,-163.208,109.741,0,0,0,
,-0.505,-0.529,0.891,127.441,-135.01,90.087,0,0,0,
,-0.506,-0.466,0.865,81.115,-125.061,103.088,0,0,0,
,-0.55,-0.407,0.865,83.74,-107.3,92.712,0,0,0,
,-0.513,-0.419,0.814,153.869,-65.918,75.866,0,0,0,
,-0.495,-0.482,0.85,184.692,-31.006,55.053,0,0,0,
,-0.363,-0.645,0.935,139.465,-5.738,-17.579,0,0,0,
,-0.312,-0.612,0.979,-30.274,77.88,-21.241,0,0,0,
,-0.368,-0.461,0.955,-139.649,146.179,-41.321,0,0,0,
,-0.343,-0.384,0.936,-118.653,190.979,-53.65,0,0,0,
,-0.313,-0.388,0.91,-79.651,230.529,-70.313,0,0,0,
,-0.321,-0.355,0.928,-113.343,306.64,-63.416,0,0,0,
,-0.305,-0.358,0.994,-182.496,353.515,-80.567,0,0,0,
,-0.262,-0.377,1.026,-296.387,415.222,-85.328,0,0,0,
,-0.241,-0.326,1.06,-304.566,455.078,-68.543,0,0,0,
,-0.2,-0.323,1.031,-221.619,449.157,-71.045,0,0,0,
,-0.209,-0.337,1.015,-121.094,466.735,-55.97,0,0,0,
,-0.184,-0.329,0.981,-86.731,460.693,-55.054,0,0,0,
,-0.242,-0.345,0.943,-189.637,487.976,-92.408,0,0,0,
,-0.236,-0.365,0.958,-260.56,508.178,-131.226,0,0,0,
,-0.186,-0.358,0.902,-292.054,537.597,-135.315,0,0,0,
,-0.135,-0.338,0.827,-253.174,545.654,-125.061,0,0,0,
,-0.129,-0.317,0.762,-245.972,596.374,-135.315,0,0,0,
,-0.09,-0.243,0.713,-276.551,665.161,-132.264,0,0,0,
,-0.01,-0.214,0.733,-298.34,686.95,-139.1,0,0,0,
,0.05,-0.21,0.749,-282.349,689.88,-131.287,0,0,0,
,0.08,-0.3,0.804,-263.306,693.847,-137.696,0,0,0,
,0.141,-0.392,0.875,-245.301,715.942,-172.852,0,0,0,
,0.186,-0.411,0.952,-430.664,729.37,-204.956,0,0,0,
,0.161,-0.232,0.997,-475.586,817.321,-219.239,0,0,0,
,0.264,-0.241,0.998,-405.64,785.766,-243.714,0,0,0,
,0.286,-0.276,0.996,-201.294,730.407,-245.118,0,0,0,
,0.283,-0.318,0.992,-35.157,677.368,-240.418,0,0,0,
,0.282,-0.302,0.929,13.61,725.952,-227.662,0,0,0,
,0.326,-0.271,0.897,17.822,769.409,-224.305,0,0,0,
,0.388,-0.276,0.915,67.81,766.357,-226.38,0,0,0,
,0.446,-0.331,0.951,133.178,757.08,-212.464,0,0,0,
,0.496,-0.426,0.948,163.513,773.01,-210.877,0,0,0,
,0.454,-0.359,0.914,151.001,817.871,-170.655,0,0,0,
,0.395,-0.242,0.845,199.524,838.623,-130.494,0,0,0,
,0.35,-0.196,0.796,403.015,841.43,-89.112,0,0,0,
,0.343,-0.39,0.687,577.697,764.16,-60.12,0,0,0,
,0.262,-0.538,0.592,608.276,815.429,-45.899,0,0,0,
,0.292,-0.606,0.695,355.774,817.688,-138.489,0,0,0,
,0.354,-0.518,0.807,-61.158,860.595,-142.579,0,0,0,
,0.502,-0.321,0.759,-331.177,865.478,-177.552,0,0,0,
,0.683,-0.246,0.781,-326.172,751.464,-167.969,0,0,0,
,0.765,-0.338,0.789,-174.622,634.399,-139.344,0,0,0,
,0.755,-0.343,0.719,-24.414,591.98,-112.427,0,0,0,
,0.743,-0.319,0.644,75.439,563.72,-100.403,0,0,0,
,0.649,-0.364,0.655,129.638,509.887,-91.797,0,0,0,
,0.608,-0.395,0.682,72.326,484.497,-77.576,0,0,0,
,0.597,-0.396,0.626,33.02,466.552,-74.402,0,0,0,
,0.646,-0.375,0.642,19.226,416.137,-47.547,0,0,0,
,0.72,-0.432,0.57,21.423,417.48,-47.852,0,0,0,
,0.802,-0.352,0.572,74.157,391.723,12.634,0,0,0,
,0.693,-0.337,0.581,160.339,350.036,25.146,0,0,0,
,0.649,-0.355,0.573,165.283,314.941,54.077,0,0,0,
,0.696,-0.344,0.522,143.005,310.73,61.889,0,0,0,
,0.736,-0.317,0.497,90.881,294.799,81.848,0,0,0,
,0.776,-0.446,0.505,109.069,278.869,81.42,0,0,0,
,0.722,-0.435,0.537,39.428,255.859,71.533,0,0,0,
,0.792,-0.253,0.543,47.79,243.225,91.919,0,0,0,
,0.769,-0.302,0.537,153.564,176.696,93.566,0,0,0,
,0.768,-0.467,0.527,95.214,173.706,106.933,0,0,0,
,0.761,-0.405,0.438,48.156,179.016,123.047,0,0,0,
,0.807,-0.414,0.499,49.255,168.029,125.427,0,0,0,
,0.771,-0.328,0.515,34.79,197.387,115.234,0,0,0,
,0.788,-0.293,0.542,39.794,196.167,96.923,0,0,0,
,0.783,-0.284,0.503,33.325,190.063,68.603,0,0,0,
,0.785,-0.346,0.433,33.691,155.212,21.301,0,0,0,
,0.798,-0.352,0.414,20.324,122.436,-21.607,0,0,0,
,0.792,-0.39,0.407,8.361,78.857,-39.063,0,0,0,
,0.782,-0.372,0.437,1.648,40.1,-14.893,0,0,0,
,0.806,-0.334,0.407,1.403,7.141,6.408,0,0,0,
,0.806,-0.338,0.413,10.437,-41.321,22.644,0,0,0,
,0.811,-0.382,0.445,7.568,-52.247,16.845,0,0,0,
,0.796,-0.362,0.47,-4.822,-60.181,7.568,0,0,0,
,0.79,-0.304,0.477,2.014,-83.435,-19.288,0,0,0,
,0.784,-0.303,0.493,-3.113,-119.141,-46.082,0,0,0,
,0.777,-0.29,0.486,-46.265,-150.757,-74.463,0,0,0,
,0.826,-0.35,0.46,-62.317,-171.998,-97.229,0,0,0,
,0.79,-0.318,0.411,-61.402,-217.53,-110.962,0,0,0,
,0.779,-0.392,0.362,-132.508,-247.254,-123.902,0,0,0,
,0.691,-0.415,0.432,-289.795,-287.11,-146.119,0,0,0,
,0.737,-0.32,0.491,-371.827,-358.094,-151.917,0,0,0,
,0.77,-0.294,0.556,-361.329,-425.782,-171.143,0,0,0,
,0.753,-0.38,0.579,-322.022,-481.202,-154.602,0,0,0,
,0.716,-0.388,0.567,-275.94,-560.73,-141.846,0,0,0,
,0.716,-0.336,0.518,-275.208,-620.24,-109.192,0,0,0,
,0.724,-0.344,0.571,-288.025,-726.197,-98.145,0,0,0,
,0.709,-0.339,0.527,-270.691,-806.641,-44.373,0,0,0,
,0.7,-0.327,0.587,-282.715,-913.575,-6.531,0,0,0,
,0.666,-0.315,0.612,-304.017,-999.573,36.071,0,0,0,
,0.642,-0.304,0.69,-336.914,-1138.611,93.627,0,0,0,
,0.584,-0.265,0.702,-186.219,-1305.848,177.429,0,0,0,
,0.542,-0.258,0.706,97.9,-1487.305,288.33,0,0,0,
,0.502,-0.357,0.719,303.222,-1636.719,396.118,0,0,0,
,0.47,-0.503,0.803,428.161,-1739.991,500,0,0,0,
,0.393,-0.558,0.878,481.567,-1761.658,549.56,0,0,0,
,0.219,-0.5,0.833,510.62,-1748.169,528.564,0,0,0,
,0.036,-0.273,0.652,715.088,-1599.976,492.492,0,0,0,
,0.015,-0.465,0.754,794.067,-1663.88,393.921,0,0,0,
,-0.155,-0.655,0.94,779.297,-1602.234,347.229,0,0,0,
,-0.334,-0.575,1.188,520.691,-1406.678,356.628,0,0,0,
,-0.367,-0.543,1.221,266.235,-1153.138,248.596,0,0,0,
,-0.233,-0.606,1.22,183.41,-1033.753,161.743,0,0,0,
,-0.226,-0.463,1.034,244.018,-905.884,167.968,0,0,0,
,-0.248,-0.332,0.923,475.708,-799.683,157.653,0,0,0,
,-0.213,-0.336,0.885,771.118,-752.076,117.675,0,0,0,
,-0.16,-0.549,0.899,905.09,-720.581,68.115,0,0,0,
,-0.204,-0.657,0.856,722.229,-552.124,88.195,0,0,0,
,-0.231,-0.632,0.836,400.817,-370.362,81.604,0,0,0,
,-0.205,-0.563,0.822,162.597,-194.031,62.194,0,0,0,
,-0.144,-0.522,0.797,64.575,-103.211,50.659,0,0,0,
,-0.148,-0.543,0.81,36.987,-60.242,37.536,0,0,0,
,-0.207,-0.537,0.863,-50.843,6.042,30.883,0,0,0,
,-0.223,-0.561,0.88,-122.437,106.75,-13.306,0,0,0,
,-0.183,-0.517,0.963,-239.197,158.325,-22.034,0,0,0,
,-0.184,-0.486,0.968,-302.308,184.631,-39.795,0,0,0,
,-0.146,-0.433,0.945,-330.567,196.167,-30.64,0,0,0,
,-0.141,-0.344,0.974,-226.197,156.128,12.207,0,0,0,
,-0.169,-0.366,0.94,-44.312,118.103,27.526,0,0,0,
,-0.162,-0.444,0.897,82.946,90.515,61.645,0,0,0,
,-0.134,-0.528,0.892,82.336,57.556,57.19,0,0,0,
,-0.141,-0.562,0.852,17.883,79.101,50.72,0,0,0,
,-0.12,-0.536,0.815,-23.804,89.355,40.039,0,0,0,
,-0.094,-0.505,0.781,-30.457,78.796,36.865,0,0,0,
,-0.119,-0.508,0.768,-13.672,71.228,34.851,0,0,0,
,-0.104,-0.523,0.78,-4.029,50.842,34.912,0,0,0,
,-0.101,-0.543,0.803,-45.227,31.25,30.944,0,0,0,
,-0.136,-0.537,0.791,-68.116,49.316,20.568,0,0,0,
,-0.087,-0.559,0.798,-63.721,29.724,4.882,0,0,0,
,-0.094,-0.564,0.781,-101.441,22.399,2.807,0,0,0,
,-0.115,-0.557,0.767,-157.776,50.72,-5.249,0,0,0,
,-0.119,-0.574,0.734,-247.254,57.128,-24.17,0,0,0,
,-0.167,-0.577,0.758,-344.239,114.196,-44.922,0,0,0,
,-0.074,-0.526,0.807,-427.796,129.15,-52.613,0,0,0,
,-0.126,-0.458,0.86,-493.042,170.532,-55.298,0,0,0,
,-0.087,-0.467,0.954,-452.271,142.883,-64.637,0,0,0,
,-0.038,-0.481,1.041,-401.185,124.817,-47.974,0,0,0,
,-0.092,-0.37,1.074,-276.062,109.497,-30.701,0,0,0,
,-0.09,-0.376,1.039,-111.878,71.96,-17.884,0,0,0,
,-0.129,-0.338,1.024,-65.735,72.998,-2.137,0,0,0,
,-0.113,-0.375,1.027,-31.25,71.106,-14.954,0,0,0,
,-0.075,-0.4,0.99,4.577,74.646,-5.982,0,0,0,
,-0.038,-0.444,0.931,46.569,58.715,-20.264,0,0,0,
,-0.085,-0.422,0.909,22.949,64.636,-22.767,0,0,0,
,-0.057,-0.428,0.906,-14.039,81.726,-32.227,0,0,0,
,-0.02,-0.424,0.894,-10.193,82.031,-31.861,0,0,0,
,-0.036,-0.429,0.881,13.122,64.697,-32.288,0,0,0,
,-0.061,-0.438,0.882,0.061,67.565,-23.987,0,0,0,
,-0.07,-0.446,0.906,-23.438,60.485,-14.466,0,0,0,
,-0.078,-0.463,0.932,-31.006,50.293,-6.226,0,0,0,
,-0.08,-0.476,0.945,-39.551,37.536,3.234,0,0,0,
,-0.071,-0.481,0.955,-63.782,23.071,8.483,0,0,0,
,-0.062,-0.464,0.948,-78.919,21.118,10.315,0,0,0,
,-0.053,-0.416,0.917,-73.121,21.24,19.897,0,0,0,
,-0.051,-0.413,0.9,-38.269,-5.555,16.235,0,0,0,
,-0.049,-0.433,0.909,-41.26,-7.691,11.535,0,0,0,
,-0.054,-0.439,0.911,-50.721,-5.555,13.366,0,0,0,
,-0.047,-0.428,0.913,-46.082,2.929,16.784,0,0,0,
,-0.038,-0.399,0.912,-20.081,-8.789,29.907,0,0,0,
,-0.072,-0.424,0.937,-10.193,-6.714,24.841,0,0,0,
,-0.073,-0.419,0.954,-38.636,-1.831,36.438,0,0,0,
,-0.067,-0.437,0.955,-16.785,-5.86,25.695,0,0,0,
,-0.061,-0.427,0.938,-19.349,6.042,25.329,0,0,0,
,-0.064,-0.398,0.923,-23.56,12.939,20.752,0,0,0,
,-0.055,-0.409,0.921,-3.418,0.976,13.427,0,0,0,
,-0.044,-0.428,0.922,3.356,-15.442,5.065,0,0,0,
,-0.045,-0.439,0.926,-24.964,-19.165,-6.043,0,0,0,
,-0.049,-0.417,0.92,-48.34,-14.344,-10.987,0,0,0,
,-0.039,-0.403,0.92,-33.448,-31.067,-14.71,0,0,0,
,-0.042,-0.411,0.907,-0.55,-42.237,-13.977,0,0,0,
,-0.057,-0.427,0.909,22.766,-55.359,-14.222,0,0,0,
,-0.071,-0.438,0.906,23.437,-55.42,-12.391,0,0,0,
,-0.078,-0.448,0.937,-5.616,-55.176,-14.466,0,0,0,
,-0.08,-0.432,0.936,-25.574,-40.772,-10.132,0,0,0,
,-0.07,-0.424,0.943,-15.809,-44.373,-8.728,0,0,0,
,-0.068,-0.429,0.939,-3.54,-39.429,-8.423,0,0,0,
,-0.07,-0.432,0.938,-1.526,-34.607,-9.339,0,0,0,
,-0.075,-0.429,0.943,-11.475,-21.973,-14.222,0,0,0,
,-0.082,-0.421,0.938,-22.644,-7.691,-18.738,0,0,0,
,-0.091,-0.413,0.93,-16.236,3.784,-22.339,0,0,0,
,-0.089,-0.435,0.944,-12.207,11.657,-30.274,0,0,0,
,-0.094,-0.442,0.946,-31.8,25.878,-37.659,0,0,0,
,-0.091,-0.431,0.955,-45.777,41.809,-46.936,0,0,0,
,-0.078,-0.418,0.944,-49.073,53.222,-52.002,0,0,0,
,-0.07,-0.416,0.932,-45.472,58.166,-57.251,0,0,0,
,-0.053,-0.415,0.926,-42.786,62.011,-60.486,0,0,0,
,-0.054,-0.416,0.925,-40.772,63.049,-65.247,0,0,0,
,-0.067,-0.41,0.928,-40.833,68.603,-63.477,0,0,0,
,-0.066,-0.406,0.928,-23.194,70.007,-66.895,0,0,0,
,-0.061,-0.407,0.92,6.164,75.073,-67.444,0,0,0,
,-0.055,-0.411,0.935,27.587,68.603,-67.688,0,0,0,
,-0.051,-0.446,0.95,2.99,65.49,-80.628,0,0,0,
,-0.06,-0.441,0.961,-34.729,79.284,-72.937,0,0,0,
,-0.058,-0.426,0.969,-54.627,102.111,-72.815,0,0,0,
,-0.003,-0.398,0.975,-59.388,123.779,-72.632,0,0,0,
,-0.009,-0.361,0.941,-13.184,108.886,-81.055,0,0,0,
,0.004,-0.39,0.945,21.972,103.271,-70.252,0,0,0,
,0.01,-0.429,0.932,23.986,105.468,-73.548,0,0,0,
,-0.004,-0.451,0.903,-11.963,157.959,-45.838,0,0,0,
,-0.003,-0.442,0.913,-43.03,202.087,-26.551,0,0,0,
,0.015,-0.481,0.953,-82.337,213.195,-30.945,0,0,0,
,0.001,-0.488,0.995,-137.818,237.243,-47.181,0,0,0,
,0.02,-0.427,0.996,-171.57,257.263,-47.913,0,0,0,
,0.05,-0.384,0.976,-142.151,254.76,-43.03,0,0,0,
,0.062,-0.37,0.934,-13.611,216.247,-8.667,0,0,0,
,0.052,-0.396,0.918,31.921,201.904,4.577,0,0,0,
,0.048,-0.418,0.904,58.837,188.354,17.883,0,0,0,
,0.054,-0.459,0.903,66.955,162.536,7.629,0,0,0,
,0.046,-0.459,0.907,55.175,156.616,16.113,0,0,0,
,0.049,-0.446,0.883,55.725,147.827,10.925,0,0,0,
,0.04,-0.442,0.878,83.74,113.83,6.958,0,0,0,
,0.027,-0.448,0.882,79.467,104.614,2.502,0,0,0,
,0.037,-0.459,0.895,58.654,90.087,-7.386,0,0,0,
,0.028,-0.448,0.888,15.808,85.022,-16.785,0,0,0,
,0.028,-0.428,0.882,6.774,78.674,-26.307,0,0,0,
,0.043,-0.428,0.894,-14.222,61.767,-31.373,0,0,0,
,0.057,-0.425,0.923,-43.763,49.804,-27.222,0,0,0,
,0.095,-0.403,0.938,-60.303,39.733,-15.137,0,0,0,
,0.135,-0.387,0.937,-32.166,16.723,4.577,0,0,0,
,0.153,-0.381,0.913,32.47,-1.221,22.949,0,0,0,
,0.176,-0.407,0.885,97.717,-22.767,36.193,0,0,0,
,0.174,-0.436,0.859,125.183,-28.199,44.372,0,0,0,
,0.175,-0.456,0.858,120.727,-16.846,39.978,0,0,0,
,0.199,-0.47,0.857,89.965,-9.522,21.301,0,0,0,
,0.204,-0.477,0.873,22.888,-3.54,3.784,0,0,0,
,0.2,-0.444,0.861,-53.894,17.639,-9.095,0,0,0,
,0.222,-0.445,0.845,-113.038,15.502,-27.894,0,0,0,
,0.221,-0.467,0.838,-211.914,15.014,-34.79,0,0,0,
,0.2,-0.461,0.802,-370.301,55.053,-36.072,0,0,0,
,0.197,-0.378,0.829,-428.345,92.346,-37.781,0,0,0,
,0.217,-0.312,0.921,-291.748,66.223,-58.533,0,0,0,
,0.204,-0.318,0.95,-71.717,35.278,-75.501,0,0,0,
,0.19,-0.396,0.966,58.166,7.019,-107.972,0,0,0,
,0.159,-0.424,0.942,72.448,15.197,-133.851,0,0,0,
,0.112,-0.42,0.918,80.2,25.146,-158.081,0,0,0,
,0.062,-0.397,0.937,81.481,25.573,-175.965,0,0,0,
,-0.007,-0.381,0.935,32.836,42.846,-178.833,0,0,0,
,-0.057,-0.395,0.944,-57.984,59.57,-170.716,0,0,0,
,-0.059,-0.443,0.932,-110.596,89.782,-168.885,0,0,0,
,-0.085,-0.431,0.937,-158.265,132.385,-154.969,0,0,0,
,-0.094,-0.378,0.986,-150.513,176.025,-144.349,0,0,0,
,-0.097,-0.306,1.011,-52.124,201.049,-105.957,0,0,0,
,-0.063,-0.304,1.044,109.802,155.151,-88.013,0,0,0,
,-0.081,-0.338,1.03,260.315,160.461,-37.049,0,0,0,
,-0.136,-0.222,0.913,467.285,201.66,39.794,0,0,0,
,-0.087,-0.16,0.805,546.997,156.799,77.453,0,0,0,
,-0.028,-0.257,0.809,640.319,139.709,116.333,0,0,0,
,0.021,-0.443,0.87,637.146,97.351,107.544,0,0,0,
,0.017,-0.612,0.92,474.182,133.361,100.586,0,0,0,
,0.011,-0.675,0.981,230.835,186.645,88.44,0,0,0,
,0.056,-0.671,1.056,84.411,225.158,55.114,0,0,0,
,0.115,-0.646,1.116,30.395,258.422,34.729,0,0,0,
,0.148,-0.548,1.209,145.874,300.415,31.127,0,0,0,
,0.222,-0.488,1.282,491.455,314.819,14.099,0,0,0,
,0.368,-0.601,1.322,903.991,244.445,-53.345,0,0,0,
,0.471,-0.812,1.417,1109.68,175.842,-110.108,0,0,0,
,0.492,-1.024,1.592,1138.366,205.078,-166.504,0,0,0,
,0.556,-1.208,1.909,930.603,210.022,-274.598,0,0,0,
,0.651,-1.475,2.238,667.541,263.427,-423.096,0,0,0,
,0.895,-1.656,2.464,361.816,195.434,-591.37,0,0,0,
,1.121,-2.136,2.511,-165.406,-21.302,-855.164,0,0,0,
,1.446,-2.803,2.695,-881.653,-506.165,-1340.577,0,0,0,
,1.729,-3.438,2.469,-1670.289,-781.922,-1716.98,0,0,0,
,2.15,-3.124,1.814,-2000,-1215.76,-1831.36,0,0,0,
,2.229,-2.504,0.914,-2000,-1985.291,-1911.561,0,0,0,
,2.105,-2.456,-0.147,-2000,-2000,-1822.938,0,0,0,
,1.737,-2.341,-1.238,-2000,-2000,-1378.846,0,0,0,
,1.262,-1.524,-1.749,-2000,-2000,-391.236,0,0,0,
,1.161,-0.113,-0.661,-2000,-2000,447.143,0,0,0,
,1.488,1.2,0.796,-1660.279,-2000,24.597,0,0,0,
,2.416,-0.342,0.171,931.213,-2000,-994.629,0,0,0,
,3.22,-2.51,-1.945,496.582,-2000,-1833.863,0,0,0,
,3.737,-1.211,-4,-935.12,-2000,-1711.121,0,0,0,
,2.529,1.55,-4,-1740.967,-2000,-859.07,0,0,0,
,1.833,3.41,-4,-32.105,-2000,-1140.32,0,0,0,
,0.872,-0.461,-3.86,1021.728,-730.347,-559.693,0,0,0,
,0.995,0.263,-4,-1512.269,1999.694,1248.596,0,0,0,
,1.306,2.769,-3.167,-274.17,1999.694,1570.312,0,0,0,
,1.729,1.237,-1.732,1429.504,1999.694,1750.976,0,0,0,
,1.951,0.329,-1.139,1984.314,1999.694,1867.431,0,0,0,
,1.88,0.438,-1.028,1999.694,1999.694,1999.694,0,0,0,
,1.63,0.373,-2.396,1874.511,1999.694,1999.694,0,0,0,
,2.217,0.019,-2.755,1035.522,1999.694,1999.694,0,0,0,
,3.002,0.226,-3.36,191.894,1999.694,1999.694,0,0,0,
,3.999,-1.063,-3.459,-653.321,1999.694,1366.088,0,0,0,
,3.999,-3.941,-4,-698.975,1999.694,1183.105,0,0,0,
,3.999,-1.279,-2.483,-2000,1999.694,-0.184,0,0,0,
,3.999,-0.466,-1.262,-2000,1999.694,-740.418,0,0,0,
,3.999,-0.032,-0.464,-2000,1999.694,-1218.567,0,0,0,
,3.999,1.877,1.287,-1000.916,1999.694,-1411.316,0,0,0,
,3.999,2.846,0.693,1375.61,616.15,-1740.662,0,0,0,
,2.929,1.731,0.694,1999.694,270.996,-920.838,0,0,0,
,2.394,-0.05,0.579,1999.694,666.442,-318.421,0,0,0,
,2.665,-0.326,0.816,1281.433,-21.363,-380.066,0,0,0,
,2.412,0.766,0.857,746.765,-565.308,-249.756,0,0,0,
,1.89,0.914,0.747,749.267,-875.55,-466.797,0,0,0,
,1.607,0.672,0.643,912.78,-919.129,-526.795,0,0,0,
,1.578,0.422,0.659,996.643,-906.311,-532.166,0,0,0,
,1.627,0.01,0.657,804.931,-942.933,-657.044,0,0,0,
,1.539,-0.416,0.5,222.229,-1011.597,-721.68,0,0,0,
,1.491,-0.176,0.549,-393.921,-1198.548,-391.48,0,0,0,
,1.341,0.456,0.637,-491.089,-1332.154,-115.723,0,0,0,
,1.15,0.636,0.744,-46.326,-1229.859,-40.528,0,0,0,
,1.02,0.413,0.699,451.355,-995.301,-63.782,0,0,0,
,1.074,-0.001,0.454,673.034,-822.571,-42.054,0,0,0,
,1.169,-0.185,0.336,618.408,-778.87,45.288,0,0,0,
,1.154,-0.217,0.276,403.808,-845.948,77.575,0,0,0,
,1.17,-0.155,0.262,226.989,-872.315,59.143,0,0,0,
,1.231,-0.102,0.248,159.79,-924.683,-5.005,0,0,0,
,1.231,-0.131,0.223,225.341,-1031.067,-192.688,0,0,0,
,1.222,-0.336,0.292,331.97,-1102.051,-378.724,0,0,0,
,1.253,-0.456,0.305,414.062,-1150.94,-467.286,0,0,0,
,1.25,-0.473,0.295,532.287,-1250.184,-559.998,0,0,0,
,1.158,-0.459,0.294,730.651,-1350.464,-732.483,0,0,0,
,1.004,-0.489,0.254,1019.531,-1388.306,-908.265,0,0,0,
,0.861,-0.504,0.249,1261.535,-1335.389,-1072.937,0,0,0,
,0.757,-0.617,0.344,1317.932,-1216.98,-1184.693,0,0,0,
,0.684,-0.671,0.419,1246.521,-1056.275,-1237.061,0,0,0,
,0.604,-0.632,0.472,1056.396,-957.337,-1246.644,0,0,0,
,0.486,-0.575,0.491,871.154,-867.066,-1253.174,0,0,0,
,0.354,-0.571,0.474,685.424,-740.662,-1222.901,0,0,0,
,0.252,-0.627,0.484,477.172,-638.428,-1182.74,0,0,0,
,0.198,-0.676,0.489,244.445,-526.551,-1120.057,0,0,0,
,0.183,-0.688,0.498,37.536,-469.361,-1040.65,0,0,0,
,0.174,-0.633,0.389,-82.215,-379.822,-984.375,0,0,0,
,0.196,-0.645,0.362,-142.029,-393.311,-971.07,0,0,0,
,0.188,-0.725,0.468,-241.822,-448.975,-939.698,0,0,0,
,0.135,-0.773,0.607,-428.528,-447.754,-865.418,0,0,0,
,0.093,-0.725,0.626,-543.702,-365.052,-784.546,0,0,0,
,0.107,-0.56,0.588,-468.079,-325.196,-754.029,0,0,0,
,0.105,-0.559,0.535,-300.477,-344.544,-726.136,0,0,0,
,0.053,-0.6,0.562,-207.764,-374.817,-713.868,0,0,0,
,-0.008,-0.609,0.674,-299.195,-322.876,-628.418,0,0,0,
,-0.064,-0.5,0.752,-415.528,-192.749,-533.509,0,0,0,
,-0.056,-0.403,0.808,-436.585,-72.937,-464.417,0,0,0,
,-0.044,-0.376,0.82,-409.119,16.662,-393.494,0,0,0,
,-0.046,-0.403,0.841,-378.907,87.219,-315.613,0,0,0,
,-0.065,-0.436,0.802,-399.659,166.87,-228.15,0,0,0,
,-0.086,-0.384,0.716,-475.22,272.338,-114.014,0,0,0,
,-0.069,-0.317,0.666,-551.941,374.328,-18.616,0,0,0,
,-0.005,-0.346,0.654,-586.853,392.761,37.78,0,0,0,
,0.064,-0.382,0.636,-601.624,414.55,90.087,0,0,0,
,0.108,-0.469,0.638,-606.873,416.87,139.892,0,0,0,
,0.144,-0.483,0.672,-564.209,409.668,145.996,0,0,0,
,0.167,-0.424,0.732,-491.394,406.677,186.279,0,0,0,
,0.215,-0.399,0.761,-374.329,382.934,185.791,0,0,0,
,0.267,-0.485,0.799,-234.314,312.5,159.118,0,0,0,
,0.259,-0.545,0.767,-161.255,280.029,165.832,0,0,0,
,0.271,-0.549,0.733,-119.629,256.164,169.006,0,0,0,
,0.32,-0.586,0.734,-127.686,207.58,159.607,0,0,0,
,0.354,-0.623,0.726,-187.806,153.259,160.217,0,0,0,
,0.385,-0.627,0.692,-298.401,116.638,178.711,0,0,0,
,0.419,-0.637,0.656,-383.24,67.504,155.639,0,0,0,
,0.501,-0.711,0.678,-394.532,11.779,150.756,0,0,0,
,0.613,-0.636,0.724,-200.562,-88.929,158.752,0,0,0,
,0.748,-0.564,0.722,130.432,-341.492,127.563,0,0,0,
,0.694,-0.585,0.637,377.685,-616.089,106.933,0,0,0,
,0.501,-0.657,0.513,520.63,-776.001,60.73,0,0,0,
,0.291,-0.637,0.547,571.96,-882.325,7.568,0,0,0,
,0.103,-0.666,0.63,682.739,-854.248,-100.037,0,0,0,
,-0.248,-0.684,1.082,739.074,-611.939,-145.813,0,0,0,
,-0.317,-0.586,1.089,807.922,-479.065,-167.908,0,0,0,
,-0.331,-0.524,1.026,1011.413,-440.308,-205.079,0,0,0,
,-0.456,-0.695,0.853,1166.32,-406.495,-277.1,0,0,0,
,-0.473,-0.81,0.735,1043.762,-302.43,-289.673,0,0,0,
,-0.447,-0.856,0.62,910.705,-172.547,-289.856,0,0,0,
,-0.411,-0.803,0.572,818.176,-78.614,-257.63,0,0,0,
,-0.37,-0.793,0.585,726.013,-20.813,-243.103,0,0,0,
,-0.376,-0.784,0.652,659.484,41.626,-197.693,0,0,0,
,-0.353,-0.733,0.701,625.732,116.272,-158.814,0,0,0,
,-0.186,-1.015,0.639,277.465,191.406,-167.115,0,0,0,
,-0.144,-1.118,0.559,-34.241,235.901,-140.015,0,0,0,
,-0.117,-0.971,0.524,-289.917,300.598,-60.547,0,0,0,
,-0.074,-0.729,0.526,-262.33,321.533,-68.726,0,0,0,
,-0.028,-0.616,0.491,7.568,322.509,-74.036,0,0,0,
,0.021,-0.67,0.48,316.894,275.634,-104.004,0,0,0,
,-0.013,-0.839,0.375,576.477,243.713,-99.854,0,0,0,
,-0.002,-0.912,0.305,555.175,240.295,-126.587,0,0,0,
,0.03,-0.934,0.289,523.193,204.101,-126.343,0,0,0,
,0.039,-0.945,0.284,514.343,147.338,-104.065,0,0,0,
,-0.031,-0.944,0.309,465.149,23.071,-49.317,0,0,0,
,-0.088,-0.963,0.365,308.166,8.361,-37.11,0,0,0,
,-0.102,-0.922,0.397,106.994,27.771,-25.879,0,0,0,
,-0.082,-0.882,0.373,-45.472,51.147,-41.81,0,0,0,
,-0.095,-0.86,0.33,-35.34,51.818,-63.721,0,0,0,
,-0.119,-0.819,0.317,43.945,55.664,-50.293,0,0,0,
,-0.12,-0.825,0.374,161.804,51.33,-41.138,0,0,0,
,-0.065,-1.109,0.381,1.525,52.246,-61.158,0,0,0,
,-0.107,-1.021,0.364,-12.574,41.931,-61.768,0,0,0,
,-0.127,-0.957,0.349,70.861,37.536,-60.059,0,0,0,
,-0.136,-0.999,0.343,79.65,29.296,-86.06,0,0,0,
,-0.165,-0.98,0.337,46.63,47.119,-75.318,0,0,0,
,-0.163,-0.94,0.382,84.655,59.143,-84.351,0,0,0,
,-0.164,-1.006,0.35,255.31,48.461,-154.297,0,0,0,
,-0.163,-1.138,0.375,342.834,12.878,-160.523,0,0,0,
,-0.194,-1.132,0.354,254.15,7.568,-128.235,0,0,0,
,-0.186,-1.03,0.357,145.324,6.469,-111.145,0,0,0,
,-0.2,-0.914,0.306,109.558,23.01,-74.402,0,0,0,
,-0.197,-0.916,0.267,135.376,34.973,-101.807,0,0,0,
,-0.175,-1.045,0.276,154.968,47.973,-98.755,0,0,0,
,-0.172,-1.095,0.373,62.622,49.621,-50.843,0,0,0,
,-0.206,-1.035,0.324,-101.685,88.623,6.408,0,0,0,
,-0.188,-0.956,0.337,-220.643,113.708,20.324,0,0,0,
,-0.176,-0.973,0.318,-231.08,104.065,26.245,0,0,0,
,-0.186,-1.054,0.255,-302.124,126.892,20.446,0,0,0,
,-0.182,-1.115,0.217,-415.467,152.71,21.545,0,0,0,
,-0.176,-1.097,0.296,-615.418,161.193,35.4,0,0,0,
,-0.208,-1.001,0.325,-792.115,191.467,40.1,0,0,0,
,-0.185,-0.924,0.27,-825.013,246.887,21.179,0,0,0,
,-0.091,-0.907,0.287,-791.81,242.92,2.99,0,0,0,
,-0.086,-0.942,0.287,-950.928,185.913,8.544,0,0,0,
,-0.17,-0.855,0.372,-1142.884,186.401,-1.831,0,0,0,
,0.033,-0.536,0.434,-316.163,166.687,-19.776,0,0,0,
,0.016,-0.574,0.449,175.109,-7.386,-55.542,0,0,0,
,-0.055,-0.801,0.405,324.157,-76.111,-86.976,0,0,0,
,-0.103,-0.934,0.442,131.775,-68.909,-66.651,0,0,0,
,-0.093,-0.924,0.477,-6.714,-14.954,-59.266,0,0,0,
,-0.075,-0.853,0.611,53.772,-65.613,-65.186,0,0,0,
,-0.077,-0.919,0.601,77.575,-123.963,-87.037,0,0,0,
,-0.091,-0.985,0.614,47.607,-155.518,-119.568,0,0,0,
,-0.129,-0.925,0.602,-13.306,-170.655,-121.827,0,0,0,
,-0.139,-0.972,0.591,-51.331,-171.814,-140.809,0,0,0,
,-0.181,-0.976,0.618,-130.921,-170.594,-113.16,0,0,0,
,-0.195,-0.923,0.705,-111.451,-147.095,-111.023,0,0,0,
,-0.175,-0.91,0.724,-18.006,-128.479,-110.962,0,0,0,
,-0.172,-0.956,0.769,-2.259,-136.841,-118.775,0,0,0,
,-0.23,-0.91,0.708,-28.26,-81.055,-102.417,0,0,0,
,-0.27,-0.822,0.651,-38.331,-1.038,-94.483,0,0,0,
,-0.205,-0.86,0.691,2.746,68.176,-104.187,0,0,0,
,-0.15,-0.975,0.68,78.674,76.049,-120.911,0,0,0,
,-0.204,-0.977,0.688,73.547,60.302,-130.433,0,0,0,
,-0.234,-0.987,0.705,122.375,84.228,-152.588,0,0,0,
,-0.225,-0.954,0.683,193.847,100.158,-169.19,0,0,0,
,-0.238,-1.032,0.664,197.021,94.97,-206.116,0,0,0,
,-0.259,-1.093,0.721,131.53,106.994,-225.525,0,0,0,
,-0.262,-1.089,0.751,49.926,130.005,-241.639,0,0,0,
,-0.268,-1.091,0.741,12.512,141.052,-274.72,0,0,0,
,-0.295,-1.126,0.622,-19.837,159.118,-299.561,0,0,0,
,-0.335,-1.112,0.583,-113.709,200.622,-323.914,0,0,0,
,-0.282,-1.099,0.66,-171.692,263.855,-337.403,0,0,0,
,-0.235,-1.028,0.605,-185.12,288.635,-363.038,0,0,0,
,-0.243,-1.035,0.565,-195.923,271.118,-408.814,0,0,0,
,-0.245,-1.055,0.548,-192.566,290.1,-431.275,0,0,0,
,-0.234,-1.047,0.444,-214.966,318.725,-453.37,0,0,0,
,-0.221,-0.961,0.41,-127.93,322.143,-486.206,0,0,0,
,-0.207,-0.891,0.413,-57.801,318.847,-501.038,0,0,0,
,-0.204,-0.861,0.422,-72.266,308.593,-522.217,0,0,0,
,-0.212,-0.774,0.449,-131.775,309.936,-515.748,0,0,0,
,-0.199,-0.756,0.419,-103.15,298.034,-549.683,0,0,0,
,-0.197,-0.768,0.425,-57.557,270.935,-568.787,0,0,0,
,-0.236,-0.77,0.467,-76.539,247.375,-583.619,0,0,0,
,-0.258,-0.705,0.498,-165.101,234.924,-576.783,0,0,0,
,-0.24,-0.649,0.458,-232.789,233.093,-579.529,0,0,0,
,-0.229,-0.593,0.44,-226.38,205.322,-580.445,0,0,0,
,-0.23,-0.548,0.483,-165.223,179.931,-582.215,0,0,0,
,-0.24,-0.514,0.517,-135.315,153.259,-561.768,0,0,0,
,-0.263,-0.489,0.554,-106.202,121.521,-545.96,0,0,0,
,-0.287,-0.492,0.505,-47.974,92.163,-521.79,0,0,0,
,-0.306,-0.53,0.499,-8.789,61.706,-514.649,0,0,0,
,-0.344,-0.518,0.476,-47.852,58.532,-497.01,0,0,0,
,-0.335,-0.537,0.609,-54.81,54.626,-499.573,0,0,0,
,-0.313,-0.489,0.586,-61.341,42.297,-477.784,0,0,0,
,-0.35,-0.455,0.566,-65.918,26.062,-444.886,0,0,0,
,-0.406,-0.476,0.509,-87.525,20.08,-425.293,0,0,0,
,-0.401,-0.548,0.582,-192.139,26.001,-395.081,0,0,0,
,-0.403,-0.575,0.576,-340.638,50.781,-372.681,0,0,0,
,-0.406,-0.471,0.702,-335.877,38.513,-361.451,0,0,0,
,-0.426,-0.413,0.686,-280.152,40.344,-318.482,0,0,0,
,-0.475,-0.447,0.681,-252.198,29.785,-295.716,0,0,0,
,-0.516,-0.493,0.72,-208.68,42.114,-257.752,0,0,0,
,-0.526,-0.494,0.765,-186.463,38.635,-234.498,0,0,0,
,-0.533,-0.487,0.778,-104.92,38.757,-215.455,0,0,0,
,-0.556,-0.487,0.783,-54.322,43.457,-184.998,0,0,0,
,-0.564,-0.5,0.804,-51.819,64.514,-170.655,0,0,0,
,-0.57,-0.551,0.796,-71.045,81.481,-153.931,0,0,0,
,-0.583,-0.542,0.834,-129.456,101.989,-147.95,0,0,0,
,-0.58,-0.556,0.834,-165.772,124.389,-144.959,0,0,0,
,-0.587,-0.544,0.846,-145.874,133.056,-136.414,0,0,0,
,-0.595,-0.559,0.853,-172.913,141.967,-130.555,0,0,0,
,-0.567,-0.564,0.884,-208.497,148.62,-127.869,0,0,0,
,-0.565,-0.522,0.874,-239.747,153.747,-132.63,0,0,0,
,-0.55,-0.518,0.937,-272.156,154.358,-138.428,0,0,0,
,-0.553,-0.5,0.939,-305.726,160.095,-136.414,0,0,0,
,-0.551,-0.476,0.92,-310.791,149.231,-142.151,0,0,0,
,-0.567,-0.426,0.791,-312.256,163.818,-135.865,0,0,0,
,-0.544,-0.471,0.863,-313.233,162.902,-143.311,0,0,0,
,-0.503,-0.406,0.842,-400.391,172.241,-151.612,0,0,0,
,-0.505,-0.423,0.855,-468.323,167.114,-159.18,0,0,0,
,-0.474,-0.379,0.875,-537.232,161.01,-166.321,0,0,0,
,-0.465,-0.328,0.862,-564.393,154.663,-164.673,0,0,0,
,-0.479,-0.3,0.858,-575.596,10865.132,14149.767,0,0,0,
,-0.459,-0.293,0.812,-672.364,161.926,-165.467,0,0,0,
,-0.454,-0.288,0.843,-712.952,159.851,-181.214,0,0,0,
,-0.46,-0.255,0.834,-787.415,170.044,-178.65,0,0,0,
,-0.426,-0.183,0.858,-780.823,160.949,-184.815,0,0,0,
,-0.423,-0.135,0.847,-756.287,143.676,-175.11,0,0,0,
,-0.447,-0.096,0.777,-770.325,162.414,-174.805,0,0,0,
,-0.435,-0.121,0.829,-908.814,172.668,-154.786,0,0,0,
,-0.404,-0.248,0.815,-1147.767,203.979,-167.054,0,0,0,
,-0.409,-0.225,0.88,-1373.841,203.125,-208.68,0,0,0,
,-0.392,-0.036,0.886,-1390.809,179.687,-227.478,0,0,0,
,-0.421,0.132,0.766,-1277.039,180.725,-227.417,0,0,0,
,-0.403,0.162,0.814,-1180.97,162.414,-222.596,0,0,0,
,-0.372,0.134,0.776,-1191.651,159.546,-209.107,0,0,0,
,-0.343,0.276,0.839,-1103.028,136.84,-218.628,0,0,0,
,-0.32,0.327,0.842,-970.52,102.661,-206.116,0,0,0,
,-0.331,0.335,0.828,-852.173,78.125,-200.684,0,0,0,
,-0.339,0.359,0.796,-802.002,58.715,-172.303,0,0,0,
,-0.337,0.394,0.81,-735.413,47.18,-153.199,0,0,0,
,-0.349,0.429,0.802,-684.082,35.339,-149.292,0,0,0,
,-0.359,0.388,0.783,-591.37,20.324,-129.517,0,0,0,
,-0.405,0.479,0.782,-437.256,7.995,-108.521,0,0,0,
,-0.334,0.74,0.659,-197.083,-0.672,-36.744,0,0,0,
,-0.316,0.521,0.7,-175.049,-20.386,-31.739,0,0,0,
,-0.364,0.466,0.697,-328.797,26.428,-28.016,0,0,0,
,-0.352,0.581,0.719,-264.71,48.339,-4.334,0,0,0,
,-0.366,0.562,0.696,-23.926,38.208,9.033,0,0,0,
,-0.385,0.438,0.723,50.293,43.151,3.418,0,0,0,
,-0.37,0.413,0.765,42.358,56.152,11.657,0,0,0,
,-0.35,0.459,0.834,10.986,60.607,5.432,0,0,0,
,-0.349,0.486,0.802,39.917,52.551,17.517,0,0,0,
,-0.369,0.486,0.769,120.788,31.86,22.522,0,0,0,
,-0.394,0.524,0.681,172.119,33.508,36.621,0,0,0,
,-0.364,0.45,0.73,126.037,55.053,38.574,0,0,0,
,-0.345,0.442,0.74,97.351,71.838,32.165,0,0,0,
,-0.369,0.454,0.773,115.417,81.787,37.292,0,0,0,
,-0.366,0.43,0.798,156.433,90.087,33.508,0,0,0,
,-0.377,0.466,0.805,287.963,90.332,38.024,0,0,0,
,-0.341,0.47,0.82,422.424,58.105,36.499,0,0,0,
,-0.34,0.428,0.837,616.15,39.123,43.029,0,0,0,
,-0.355,0.449,0.831,766.052,18.615,58.715,0,0,0,
,-0.354,0.45,0.802,918.64,13.244,73.181,0,0,0,
,-0.349,0.394,0.837,1069.885,-3.418,71.228,0,0,0,
,-0.346,0.281,0.834,1225.891,-8.179,95.031,0,0,0,
,-0.378,0.227,0.881,1255.554,-12.085,95.459,0,0,0,
,-0.369,0.158,0.855,1328.247,-16.175,108.276,0,0,0,
,-0.389,0.107,0.92,1351.745,-25.452,117.187,0,0,0,
,-0.376,0.078,0.861,1317.566,-17.762,139.465,0,0,0,
,-0.338,0.011,0.882,1262.329,-21.363,142.456,0,0,0,
,-0.303,-0.047,0.88,1224.06,-27.832,170.654,0,0,0,
,-0.302,-0.07,0.877,1146.972,-26.185,173.156,0,0,0,
,-0.305,-0.135,0.851,1065.124,-19.959,170.898,0,0,0,
,-0.327,-0.2,0.865,1013.488,-11.963,168.457,0,0,0,
,-0.355,-0.209,0.766,974.121,-7.264,176.086,0,0,0,
,-0.365,-0.268,0.826,948.73,-8.362,184.692,0,0,0,
,-0.374,-0.302,0.807,951.538,-10.498,188.781,0,0,0,
,-0.346,-0.373,0.816,964.172,-24.659,194.519,0,0,0,
,-0.355,-0.417,0.85,988.281,-35.95,190.734,0,0,0,
,-0.369,-0.463,0.793,945.251,-39.307,201.782,0,0,0,
,-0.364,-0.476,0.854,873.901,-38.453,188.964,0,0,0,
,-0.34,-0.528,0.808,816.406,-33.753,200.195,0,0,0,
,-0.364,-0.549,0.848,739.257,-35.889,191.65,0,0,0,
,-0.351,-0.563,0.793,685.669,-36.499,187.133,0,0,0,
,-0.358,-0.657,0.766,702.514,-47.669,183.96,0,0,0,
,-0.374,-0.657,0.721,671.203,-49.317,192.382,0,0,0,
,-0.348,-0.691,0.777,651.855,-47.425,178.527,0,0,0,
,-0.351,-0.7,0.729,625.183,-47.425,169.25,0,0,0,
,-0.353,-0.728,0.748,552.063,-51.026,158.203,0,0,0,
,-0.346,-0.747,0.715,426.025,-44.373,152.893,0,0,0,
,-0.35,-0.747,0.66,337.341,-35.645,147.583,0,0,0,
,-0.343,-0.787,0.695,257.995,-33.875,137.085,0,0,0,
,-0.35,-0.812,0.67,173.401,-25.33,124.572,0,0,0,
,-0.348,-0.751,0.701,139.221,-18.128,112.854,0,0,0,
,-0.353,-0.764,0.682,91.552,-15.076,111.694,0,0,0,
,-0.34,-0.745,0.681,67.26,-20.142,101.379,0,0,0,
,-0.318,-0.722,0.656,111.45,-26.917,90.393,0,0,0,
,-0.327,-0.765,0.671,185.73,-41.626,86.608,0,0,0,
,-0.329,-0.765,0.661,177.246,-48.768,76.294,0,0,0,
,-0.322,-0.76,0.659,173.156,-56.031,74.707,0,0,0,
,-0.308,-0.7,0.619,192.138,-74.524,67.138,0,0,0,
,-0.289,-0.715,0.608,197.204,-86.182,63.537,0,0,0,
,-0.308,-0.758,0.596,162.048,-88.44,65.856,0,0,0,
,-0.301,-0.761,0.619,90.881,-85.144,83.801,0,0,0,
,-0.293,-0.726,0.612,69.702,-90.821,88.317,0,0,0,
,-0.283,-0.658,0.584,125,-102.112,107.483,0,0,0,
,-0.282,-0.664,0.528,146.911,-107.972,123.962,0,0,0,
,-0.272,-0.656,0.527,170.41,-105.286,142.822,0,0,0,
,-0.269,-0.691,0.528,188.659,-106.263,164.611,0,0,0,
,-0.275,-0.752,0.556,214.05,-105.957,186.95,0,0,0,
,-0.274,-0.753,0.582,207.885,-111.145,203.369,0,0,0,
,-0.289,-0.694,0.5,216.98,-91.553,220.581,0,0,0,
,-0.288,-0.679,0.455,187.378,-83.68,236.816,0,0,0,
,-0.275,-0.759,0.505,95.153,-65.613,266.601,0,0,0,
,-0.272,-0.777,0.535,-20.874,-48.279,288.574,0,0,0,
,-0.274,-0.729,0.493,18.127,-39.917,323.12,0,0,0,
,-0.264,-0.776,0.524,34.423,-41.016,356.201,0,0,0,
,-0.26,-0.85,0.523,-2.991,-29.419,375.366,0,0,0,
,-0.22,-0.852,0.573,-7.019,-36.988,383.422,0,0,0,
,-0.192,-0.808,0.582,122.863,-57.312,369.079,0,0,0,
,-0.212,-0.83,0.568,198.974,-78.675,378.662,0,0,0,
,-0.183,-0.867,0.545,205.2,-74.585,386.657,0,0,0,
,-0.126,-0.925,0.569,79.284,-90.638,369.079,0,0,0,
,-0.119,-0.93,0.567,114.624,-100.953,354.614,0,0,0,
,-0.126,-0.958,0.539,105.713,-93.811,354.126,0,0,0,
,-0.119,-0.99,0.551,39.917,-103.211,349.06,0,0,0,
,-0.102,-0.997,0.525,-54.688,-99.61,341.308,0,0,0,
,-0.097,-0.964,0.474,-7.264,-118.958,303.283,0,0,0,
,-0.067,-0.955,0.435,126.648,-126.099,282.592,0,0,0,
,-0.062,-0.989,0.479,178.405,-124.024,264.831,0,0,0,
,-0.05,-0.991,0.524,150.756,-108.765,257.812,0,0,0,
,-0.071,-0.953,0.451,104.492,-98.877,241.76,0,0,0,
,-0.029,-0.995,0.398,91.064,-108.155,218.75,0,0,0,
,0.011,-1.043,0.455,104.98,-108.399,207.031,0,0,0,
,-0.002,-1.051,0.459,68.542,-98.755,183.593,0,0,0,
,-0.003,-1.048,0.474,30.822,-94.239,170.715,0,0,0,
,-0.012,-0.981,0.459,-7.813,-84.839,156.494,0,0,0,
,0.028,-0.981,0.426,-5.677,-85.877,149.17,0,0,0,
,0.035,-0.966,0.394,80.139,-85.816,129.638,0,0,0,
,0.031,-0.945,0.406,153.198,-71.167,127.014,0,0,0,
,0.064,-1.006,0.445,240.112,-71.351,102.417,0,0,0,
,0.025,-1.011,0.44,142.089,-62.012,94.543,0,0,0,
,0.032,-1.058,0.396,53.222,-44.556,83.862,0,0,0,
,0.038,-1.03,0.415,24.78,-50.232,74.462,0,0,0,
,0.024,-1.005,0.418,38.635,-54.932,62.072,0,0,0,
,0.025,-0.967,0.38,51.818,-51.026,58.532,0,0,0,
,0.044,-0.964,0.363,74.829,-40.101,43.396,0,0,0,
,0.055,-0.973,0.339,67.26,-21.79,45.227,0,0,0,
,0.058,-0.971,0.381,79.223,-12.574,39.794,0,0,0,
,0.067,-0.943,0.401,125.061,-6.104,32.287,0,0,0,
,0.062,-0.988,0.395,127.014,-11.414,24.658,0,0,0,
,0.05,-1.007,0.377,100.708,-5.494,16.723,0,0,0,
,0.05,-1.005,0.355,46.691,-7.508,7.324,0,0,0,
,0.057,-0.987,0.356,12.939,-0.916,3.54,0,0,0,
,0.062,-0.995,0.349,2.746,5.615,-0.245,0,0,0,
,0.043,-0.985,0.381,-1.893,29.785,-4.029,0,0,0,
,0.039,-0.982,0.37,-13.794,20.935,-6.47,0,0,0,
,0.122,-0.943,0.448,-32.105,-24.598,-26.307,0,0,0,
,0.012,-0.975,0.395,74.401,-20.569,-48.768,0,0,0,
,0.002,-1.015,0.351,25.512,-0.611,-45.044,0,0,0,
,0.014,-0.926,0.354,-38.086,14.709,-31.861,0,0,0,
,0.009,-0.922,0.353,12.878,-3.54,-46.875,0,0,0,
,0.017,-0.972,0.337,17.334,-3.418,-41.077,0,0,0,
,0.005,-0.954,0.343,-15.442,0.305,-32.227,0,0,0,
,0.023,-0.936,0.329,-8.301,4.272,-31.983,0,0,0,
,0.006,-0.97,0.351,-55.176,6.958,-28.077,0,0,0,
,0.011,-0.994,0.367,-123.352,25.695,-29.419,0,0,0,
,0.025,-0.954,0.378,-152.466,27.404,-30.64,0,0,0,
,0.039,-0.915,0.378,-90.76,23.071,-30.396,0,0,0,
,0.026,-0.927,0.368,-43.702,22.583,-23.682,0,0,0,
,0.024,-0.947,0.342,-22.583,26.062,-24.842,0,0,0,
,0.027,-0.961,0.362,-24.231,29.235,-29.908,0,0,0,
,0.041,-0.945,0.392,-34.79,33.142,-23.377,0,0,0,
,0.042,-0.942,0.405,-39.063,30.273,-21.424,0,0,0,
,0.025,-0.94,0.374,-41.871,35.949,-13.794,0,0,0,
,0.033,-0.932,0.367,-49.378,35.4,-16.663,0,0,0,
,0.041,-0.971,0.387,-102.112,35.827,-7.752,0,0,0,
,0.04,-0.968,0.399,-138.855,41.381,-15.381,0,0,0,
,0.05,-0.923,0.401,-117.859,41.442,-7.386,0,0,0,
,0.039,-0.899,0.416,-41.443,34.545,-17.701,0,0,0,
,0.044,-0.925,0.415,12.329,26.55,-7.508,0,0,0,
,0.026,-0.926,0.383,-2.015,30.212,-2.869,0,0,0,
,0.036,-0.951,0.404,-29.053,27.832,2.258,0,0,0,
,0.027,-0.93,0.392,-52.735,29.907,2.075,0,0,0,
,0.048,-0.938,0.45,8.178,7.812,-15.625,0,0,0,
,0.048,-0.988,0.442,-1.221,-1.282,-12.33,0,0,0,
,0.029,-0.982,0.406,-32.349,0.244,-20.386,0,0,0,
,0.048,-0.929,0.433,-52.185,7.873,-1.77,0,0,0,
,0.067,-0.948,0.444,-41.199,1.464,-1.893,0,0,0,
,0.065,-0.956,0.45,-57.557,-8.728,9.765,0,0,0,
,0.059,-0.963,0.453,-79.651,-14.344,22.461,0,0,0,
,0.044,-0.9,0.416,-72.998,-12.269,28.686,0,0,0,
,0.057,-0.882,0.404,0.732,-20.264,32.043,0,0,0,
,0.072,-0.934,0.401,22.155,-22.644,38.208,0,0,0,
,0.075,-0.965,0.422,-25.757,-10.437,53.283,0,0,0,
,0.08,-0.947,0.388,-83.985,-2.015,55.542,0,0,0,
,0.105,-0.954,0.374,-85.45,-5.127,39.733,0,0,0,
,0.104,-0.94,0.366,-117.249,-14.588,45.593,0,0,0,
,0.112,-0.949,0.432,-124.024,-39.734,27.526,0,0,0,
,0.132,-0.92,0.455,-176.697,-45.472,17.517,0,0,0,
,0.133,-0.936,0.463,-253.785,-40.223,-0.916,0,0,0,
,0.146,-0.927,0.433,-283.814,-55.726,-5.677,0,0,0,
,0.142,-0.934,0.463,-229.798,-72.205,-15.625,0,0,0,
,0.101,-0.79,0.488,-123.719,-80.994,13.855,0,0,0,
,0.12,-0.776,0.486,-11.597,-74.036,18.615,0,0,0,
,0.123,-0.762,0.493,56.396,-99.427,62.561,0,0,0,
,0.099,-0.816,0.47,79.773,-113.892,77.697,0,0,0,
,0.1,-0.872,0.476,29.48,-123.291,104.309,0,0,0,
,0.104,-0.879,0.499,-117.371,-112.793,143.066,0,0,0,
,0.111,-0.888,0.5,-279.847,-113.221,178.344,0,0,0,
,0.104,-0.962,0.504,-490.601,-95.52,221.069,0,0,0,
,0.096,-1.007,0.503,-849.244,-75.623,276.367,0,0,0,
,0.087,-0.968,0.484,-1219.239,-34.974,330.261,0,0,0,
,0.081,-0.855,0.514,-1469.971,-9.461,354.248,0,0,0,
,0.074,-0.713,0.545,-1540.162,39.672,382.629,0,0,0,
,0.093,-0.651,0.527,-1462.525,57.983,353.21,0,0,0,
,0.118,-0.697,0.589,-1379.395,82.519,322.509,0,0,0,
,0.128,-0.726,0.664,-1439.515,115.234,327.575,0,0,0,
,0.116,-0.659,0.71,-1473.389,160.461,337.646,0,0,0,
,0.124,-0.549,0.722,-1407.532,176.33,309.143,0,0,0,
,0.128,-0.457,0.74,-1248.963,191.284,281.433,0,0,0,
,0.138,-0.329,0.758,-959.412,187.805,265.38,0,0,0,
,0.159,-0.311,0.784,-718.811,159.362,213.928,0,0,0,
,0.185,-0.365,0.778,-528.077,140.808,163.452,0,0,0,
,0.173,-0.405,0.831,-505.066,139.221,133.484,0,0,0,
,0.185,-0.431,0.914,-522.522,147.4,116.272,0,0,0,
,0.227,-0.411,0.96,-563.782,136.047,104.98,0,0,0,
,0.226,-0.335,0.959,-505.738,134.582,113.037,0,0,0,
,0.218,-0.231,1,-182.19,80.932,77.392,0,0,0,
,0.281,-0.222,1.043,196.716,11.108,47.546,0,0,0,
,0.327,-0.45,1.157,393.249,-161.56,-20.142,0,0,0,
,0.23,-0.55,1.151,89.05,-171.753,48.645,0,0,0,
,0.134,-0.354,1,-112.793,-98.877,29.663,0,0,0,
,0.194,-0.288,0.88,-84.29,-102.173,15.502,0,0,0,
,0.189,-0.308,0.857,-44.312,-108.216,25.634,0,0,0,
,0.168,-0.305,0.894,-41.871,-71.351,24.169,0,0,0,
,0.22,-0.308,1.002,-55.054,-36.56,23.315,0,0,0,
,0.262,-0.28,1.081,7.69,-43.396,26.733,0,0,0,
,0.256,-0.301,1.054,97.9,-72.998,8.972,0,0,0,
,0.217,-0.328,0.985,124.939,-75.196,-0.428,0,0,0,
,0.19,-0.351,0.922,95.031,-43.824,-10.498,0,0,0,
,0.207,-0.368,0.95,29.113,-26.185,-16.053,0,0,0,
,0.231,-0.34,0.974,-27.039,-1.343,-8.789,0,0,0,
,0.235,-0.307,0.953,-6.47,3.784,-15.442,0,0,0,
,0.224,-0.324,0.911,35.705,0.244,-26.368,0,0,0,
,0.205,-0.345,0.922,46.508,6.652,-25.025,0,0,0,
,0.207,-0.352,0.921,34.179,11.047,-25.086,0,0,0,
,0.218,-0.339,0.927,20.324,9.216,-22.644,0,0,0,
,0.226,-0.331,0.94,8.728,6.774,-26.123,0,0,0,
,0.231,-0.329,0.947,11.23,5.798,-24.17,0,0,0,
,0.223,-0.332,0.924,21.179,2.319,-26.429,0,0,0,
,0.218,-0.346,0.92,34.545,-3.724,-28.26,0,0,0,
,0.22,-0.344,0.921,45.288,2.441,-25.208,0,0,0,
,0.227,-0.348,0.927,45.41,-9.705,-27.588,0,0,0,
,0.226,-0.363,0.917,16.174,-15.381,-28.504,0,0,0,
,0.221,-0.359,0.925,7.446,-20.386,-26.429,0,0,0,
,0.207,-0.353,0.925,20.813,-21.79,-24.353,0,0,0,
,0.207,-0.354,0.924,37.78,-18.189,-22.156,0,0,0,
,0.209,-0.354,0.931,40.649,-26.612,-22.889,0,0,0,
,0.216,-0.351,0.906,51.696,-28.382,-17.456,0,0,0,
,0.226,-0.367,0.923,25.024,-44.556,-18.067,0,0,0,
,0.229,-0.355,0.919,4.577,-43.58,-11.841,0,0,0,
,0.219,-0.351,0.905,36.315,-54.444,-16.846,0,0,0,
,0.212,-0.373,0.915,52.49,-68.177,-17.151,0,0,0,
,0.2,-0.386,0.918,33.63,-72.266,-12.391,0,0,0,
,0.199,-0.395,0.899,9.094,-72.754,-8.484,0,0,0,
,0.197,-0.362,0.932,-2.381,-85.755,-2.381,0,0,0,
,0.187,-0.352,0.922,-16.236,-87.159,0.61,0,0,0,
,0.179,-0.356,0.925,6.103,-97.474,2.136,0,0,0,
,0.157,-0.37,0.949,32.836,-100.464,2.807,0,0,0,
,0.167,-0.38,0.938,31.005,-88.807,10.376,0,0,0,
,0.182,-0.368,0.923,52.734,-85.206,11.413,0,0,0,
,0.217,-0.395,0.913,34.301,-91.98,7.873,0,0,0,
,0.183,-0.389,0.916,-1.038,-85.267,9.216,0,0,0,
,0.191,-0.387,0.916,-6.653,-66.956,8.85,0,0,0,
,0.188,-0.354,0.946,-14.954,-67.261,3.601,0,0,0,
,0.15,-0.375,0.935,13.061,-57.312,-7.996,0,0,0,
,0.133,-0.393,0.921,12.268,-46.448,-11.109,0,0,0,
,0.13,-0.393,0.952,-4.456,-39.551,-12.757,0,0,0,
,0.123,-0.373,0.951,-19.288,-20.203,-12.207,0,0,0,
,0.143,-0.382,0.944,-10.56,0.61,-16.907,0,0,0,
,0.156,-0.371,0.931,-14.832,10.437,-17.395,0,0,0,
,0.164,-0.369,0.926,-23.56,21.484,-22.156,0,0,0,
,0.163,-0.371,0.929,-18.494,19.47,-24.353,0,0,0,
,0.156,-0.378,0.928,-10.682,20.019,-24.537,0,0,0,
,0.148,-0.386,0.921,-8.484,22.216,-25.513,0,0,0,
,0.15,-0.38,0.925,-15.686,19.165,-26.062,0,0,0,
,0.15,-0.377,0.927,-12.146,18.188,-27.039,0,0,0,
,0.125,-0.38,0.928,-11.475,20.996,-28.931,0,0,0,
,0.162,-0.383,0.921,-8.484,17.334,-26.734,0,0,0,
,0.165,-0.376,0.921,-17.212,16.113,-29.541,0,0,0,
,0.162,-0.375,0.926,-21.729,13.916,-30.457,0,0,0,
,0.159,-0.373,0.925,-20.813,8.361,-28.931,0,0,0,
,0.159,-0.38,0.932,-26.429,7.934,-31.067,0,0,0,
,0.153,-0.381,0.933,-42.847,13.794,-33.387,0,0,0,
,0.154,-0.377,0.93,-43.03,13.488,-31.128,0,0,0,
,0.155,-0.382,0.928,-37.049,14.404,-33.692,0,0,0,
,0.157,-0.383,0.93,-52.063,11.84,-32.471,0,0,0,
,0.152,-0.363,0.93,-51.88,13.244,-26.551,0,0,0,
,0.155,-0.36,0.931,-34.302,6.408,-26.368,0,0,0,
,0.161,-0.375,0.93,-26.978,5.859,-28.199,0,0,0,
,0.154,-0.375,0.933,-35.096,9.704,-28.931,0,0,0,
,0.156,-0.363,0.931,-32.654,12.573,-27.588,0,0,0,
,0.156,-0.36,0.932,-18.311,8.422,-27.955,0,0,0,
,0.159,-0.369,0.93,-10.865,4.333,-26.673,0,0,0,
,0.162,-0.376,0.93,-9.4,7.751,-24.598,0,0,0,
,0.156,-0.376,0.931,-17.029,10.253,-28.138,0,0,0,
,0.153,-0.37,0.928,-25.391,10.742,-27.405,0,0,0,
,0.154,-0.353,0.937,-27.527,9.155,-26.429,0,0,0,
,0.142,-0.353,0.936,-13.062,8.361,-31.128,0,0,0,
,0.152,-0.37,0.932,-2.93,9.216,-28.626,0,0,0,
,0.157,-0.372,0.929,-4.578,11.047,-29.358,0,0,0,
,0.153,-0.35,0.933,-0.855,13.427,-32.776,0,0,0,
,0.16,-0.353,0.933,15.93,8.789,-35.096,0,0,0,
,0.158,-0.376,0.93,24.047,1.098,-35.34,0,0,0,
,0.149,-0.391,0.93,16.479,7.873,-33.692,0,0,0,
,0.147,-0.385,0.931,8.911,6.469,-32.044,0,0,0,
,0.148,-0.373,0.93,1.342,9.277,-30.701,0,0,0,
,0.154,-0.38,0.925,4.089,8.483,-33.57,0,0,0,
,0.155,-0.375,0.924,-12.207,10.376,-30.64,0,0,0,
,0.152,-0.374,0.929,-8.179,9.887,-34.119,0,0,0,
,0.15,-0.379,0.932,-5.799,8.911,-31.922,0,0,0,
,0.15,-0.383,0.932,-11.78,15.319,-32.227,0,0,0,
,0.152,-0.379,0.926,-12.635,13.427,-31.8,0,0,0,
,0.151,-0.406,0.926,-14.344,12.512,-31.8,0,0,0,
,0.16,-0.377,0.935,-15.809,10.864,-34.668,0,0,0,
,0.146,-0.38,0.926,-9.156,7.385,-33.692,0,0,0,
,0.139,-0.382,0.928,-9.949,10.437,-27.894,0,0,0,
,0.14,-0.386,0.926,-11.231,11.718,-30.823,0,0,0,
,0.145,-0.387,0.932,-15.931,16.906,-30.274,0,0,0,
,0.146,-0.383,0.932,-20.935,17.761,-27.894,0,0,0,
,0.149,-0.378,0.928,-16.358,17.883,-28.199,0,0,0,
,0.158,-0.381,0.925,-12.146,14.77,-28.077,0,0,0,
,0.153,-0.386,0.926,-11.841,14.953,-27.649,0,0,0,
,0.152,-0.388,0.929,-17.395,16.296,-28.077,0,0,0,
,0.149,-0.379,0.923,-19.288,15.686,-23.682,0,0,0,
,0.146,-0.377,0.929,-14.161,12.756,-27.222,0,0,0,
,0.145,-0.378,0.929,-11.841,14.831,-28.87,0,0,0,
,0.148,-0.383,0.926,-5.249,12.939,-27.405,0,0,0,
,0.147,-0.391,0.931,-12.818,10.986,-29.358,0,0,0,
,0.145,-0.383,0.93,-22.828,17.089,-25.696,0,0,0,
,0.15,-0.378,0.934,-15.32,15.014,-25.147,0,0,0,
,0.145,-0.383,0.934,-13.428,19.897,-21.851,0,0,0,
,0.149,-0.376,0.966,-9.522,16.479,-21.058,0,0,0,
,0.142,-0.372,0.935,-47.425,23.925,-2.503,0,0,0,
,0.154,-0.386,0.917,-39.978,29.846,-25.269,0,0,0,
,0.162,-0.394,0.925,-46.814,25.573,-13.794,0,0,0,
,0.147,-0.369,0.928,-60.486,25.146,-10.376,0,0,0,
,0.151,-0.364,0.928,-50.354,26.733,-13.367,0,0,0,
,0.159,-0.367,0.925,-37.049,22.522,-10.682,0,0,0,
,0.161,-0.38,0.932,-39.368,16.662,-9.705,0,0,0,
,0.153,-0.377,0.932,-44.861,25.695,-11.048,0,0,0,
,0.151,-0.372,0.929,-46.692,27.648,-9.217,0,0,0,
,0.156,-0.37,0.937,-42.969,29.785,-10.315,0,0,0,
,0.156,-0.367,0.929,-42.542,32.775,-11.109,0,0,0,
,0.157,-0.363,0.923,-38.941,34.423,-10.682,0,0,0,
,0.165,-0.367,0.929,-33.936,29.357,-8.362,0,0,0,
,0.166,-0.368,0.931,-32.837,31.25,-8.851,0,0,0,
,0.162,-0.359,0.924,-32.471,30.395,-7.325,0,0,0,
,0.165,-0.359,0.935,-26.795,20.996,-8.423,0,0,0,
,0.161,-0.365,0.928,-20.325,21.667,-8.057,0,0,0,
,0.167,-0.367,0.929,-17.884,18.127,-9.156,0,0,0,
,0.165,-0.368,0.932,-19.165,17.273,-9.522,0,0,0,
,0.165,-0.366,0.929,-18.494,14.709,-10.621,0,0,0,
,0.164,-0.361,0.94,-19.043,11.962,-9.461,0,0,0,
,0.16,-0.357,0.936,-20.569,18.859,-9.522,0,0,0,
,0.164,-0.351,0.932,-18.433,18.371,-12.391,0,0,0,
,0.168,-0.356,0.932,-15.198,16.54,-14.832,0,0,0,
,0.167,-0.361,0.931,-8.667,14.648,-15.259,0,0,0,
,0.168,-0.37,0.941,-15.992,16.54,-15.809,0,0,0,
,0.164,-0.367,0.933,-23.133,22.522,-14.893,0,0,0,
,0.166,-0.36,0.932,-22.034,20.141,-15.564,0,0,0,
,0.164,-0.352,0.929,-16.663,21.545,-18.982,0,0,0,
,0.173,-0.359,0.935,-10.376,17.089,-20.874,0,0,0,
,0.171,-0.363,0.932,-19.043,22.766,-22.278,0,0,0,
,0.17,-0.356,0.932,-25.025,21.24,-22.522,0,0,0,
,0.175,-0.351,0.931,-20.386,18.798,-23.56,0,0,0,
,0.171,-0.355,0.927,-9.583,16.601,-24.537,0,0,0,
,0.168,-0.362,0.933,-5.799,11.352,-27.161,0,0,0,
,0.164,-0.367,0.929,-8.606,14.77,-26.49,0,0,0,
,0.166,-0.365,0.936,-16.602,15.93,-26.429,0,0,0,
,0.169,-0.356,0.932,-16.724,14.099,-26.368,0,0,0,
,0.175,-0.355,0.928,-11.414,14.587,-26.734,0,0,0,
,0.175,-0.359,0.931,-7.386,11.169,-28.077,0,0,0,
,0.174,-0.366,0.934,-6.47,10.803,-26.246,0,0,0,
,0.171,-0.364,0.933,-12.818,10.009,-26.673,0,0,0,
,0.17,-0.361,0.93,-13.123,9.826,-27.894,0,0,0,
,0.164,-0.359,0.932,-7.691,8.728,-26.612,0,0,0,
,0.167,-0.366,0.939,-12.94,11.84,-28.199,0,0,0,
,0.166,-0.361,0.935,-17.029,18.066,-29.725,0,0,0,
,0.165,-0.356,0.941,-24.109,11.657,-28.931,0,0,0,
,0.16,-0.358,0.953,-32.227,19.47,-32.044,0,0,0,
,0.161,-0.35,0.944,-44.007,25.512,-29.969,0,0,0,
,0.172,-0.352,0.956,-63.904,23.071,-33.265,0,0,0,
,0.175,-0.352,0.951,-83.924,29.602,-37.842,0,0,0,
,0.178,-0.357,0.952,-103.089,20.874,-39.185,0,0,0,
,0.172,-0.378,0.967,-133.728,9.704,-42.298,0,0,0,
,0.159,-0.399,0.965,-212.525,15.136,-42.786,0,0,0,
,0.154,-0.379,0.948,-293.213,25.207,-44.617,0,0,0,
,0.161,-0.303,0.947,-267.64,37.17,-44.495,0,0,0,
,0.18,-0.298,0.972,-213.196,30.09,-56.458,0,0,0,
,0.188,-0.325,1.006,-133.484,29.846,-65.552,0,0,0,
,0.189,-0.314,1.019,-73.243,29.907,-79.468,0,0,0,
,0.16,-0.297,1.039,-50.293,32.531,-90.638,0,0,0,
,0.141,-0.317,1.077,61.828,22.399,-127.137,0,0,0,
,0.125,-0.36,1.1,84.228,25.451,-119.69,0,0,0,
,0.109,-0.383,1.119,47.607,67.565,-139.344,0,0,0,
,0.122,-0.415,1.18,-17.273,59.326,-165.833,0,0,0,
,0.172,-0.511,1.256,-214.783,39.428,-191.346,0,0,0,
,0.181,-0.464,1.25,-459.717,53.161,-148.072,0,0,0,
,0.131,-0.312,1.158,-598.023,76.355,-139.71,0,0,0,
,0.138,-0.203,1.079,-499.268,24.169,-117.249,0,0,0,
,0.145,-0.175,1.025,-349.305,-44.556,-101.197,0,0,0,
,0.125,-0.177,1.005,-231.568,-79.285,-95.643,0,0,0,
,0.106,-0.193,0.954,-110.474,-74.341,-99.61,0,0,0,
,0.119,-0.164,0.81,41.809,-14.649,-82.825,0,0,0,
,0.136,-0.051,0.661,283.63,20.324,-33.265,0,0,0,
,0.158,-0.05,0.618,531.067,-54.261,-137.024,0,0,0,
,0.156,-0.305,0.658,669.555,-116.578,-179.2,0,0,0,
,0.171,-0.502,0.713,557.312,-93.689,-139.039,0,0,0,
,0.181,-0.557,0.768,279.907,-71.473,-175.721,0,0,0,
,0.181,-0.46,0.82,141.723,-63.355,-183.533,0,0,0,
,0.186,-0.374,0.846,195.8,-102.417,-209.961,0,0,0,
,0.174,-0.343,0.814,300.537,-141.175,-218.75,0,0,0,
,0.152,-0.333,0.798,387.512,-175.721,-235.291,0,0,0,
,0.108,-0.35,0.775,456.298,-172.486,-235.413,0,0,0,
,0.085,-0.376,0.752,507.812,-163.025,-249.146,0,0,0,
,0.069,-0.353,0.713,524.231,-137.269,-225.708,0,0,0,
,0.061,-0.404,0.744,534.973,-139.466,-249.207,0,0,0,
,0.022,-0.444,0.723,561.401,-106.385,-247.864,0,0,0,
,0.007,-0.47,0.733,575.5,-78.675,-258.118,0,0,0,
,0.015,-0.477,0.722,541.565,-42.603,-262.94,0,0,0,
,0.04,-0.529,0.763,521.362,-54.81,-276.978,0,0,0,
,0.034,-0.633,0.81,455.932,-58.96,-260.254,0,0,0,
,0.035,-0.704,0.859,355.896,-62.378,-250.184,0,0,0,
,0.016,-0.669,0.896,233.764,-31.678,-212.342,0,0,0,
,0.036,-0.643,0.909,176.208,-28.321,-202.82,0,0,0,
,0.049,-0.548,0.888,173.339,-14.1,-174.866,0,0,0,
,0.054,-0.527,0.874,263.183,-24.964,-185.364,0,0,0,
,0.036,-0.535,0.851,398.681,-28.199,-176.148,0,0,0,
,0.019,-0.595,0.839,534.423,-26.612,-178.772,0,0,0,
,0.003,-0.626,0.826,563.171,-8.973,-169.312,0,0,0,
,0.014,-0.71,0.845,589.538,-15.625,-177.43,0,0,0,
,0,-0.748,0.841,552.612,-18.128,-152.405,0,0,0,
,-0.021,-0.741,0.809,421.997,-9.278,-128.663,0,0,0,
,-0.034,-0.698,0.792,374.145,-3.968,-114.808,0,0,0,
,-0.057,-0.724,0.732,329.834,-9.583,-107.178,0,0,0,
,-0.069,-0.67,0.725,264.282,0.61,-99.854,0,0,0,
,-0.059,-0.732,0.748,237.304,-14.71,-112.244,0,0,0,
,-0.059,-0.908,0.747,98.571,-17.518,-83.252,0,0,0,
,-0.068,-0.873,0.751,-191.895,5.432,-46.265,0,0,0,
,-0.059,-0.684,0.765,-327.515,21.484,-35.584,0,0,0,
,-0.057,-0.522,0.765,-167.603,7.812,-33.936,0,0,0,
,-0.054,-0.638,0.764,97.168,-26.429,-49.622,0,0,0,
,-0.052,-0.75,0.751,196.167,-38.269,-26.734,0,0,0,
,-0.035,-0.775,0.752,168.945,-32.41,-25.33,0,0,0,
,-0.017,-0.733,0.716,176.941,-28.687,-20.997,0,0,0,
,-0.034,-0.733,0.683,209.106,-31.067,-25.818,0,0,0,
,-0.024,-0.715,0.671,207.336,-26.123,-30.335,0,0,0,
,-0.024,-0.745,0.637,214.843,-26.123,-30.335,0,0,0,
,-0.053,-0.795,0.621,155.761,-11.17,-23.316,0,0,0,
,-0.043,-0.803,0.651,28.564,-1.404,-10.01,0,0,0,
,-0.014,-0.733,0.673,-80.079,12.085,-10.01,0,0,0,
,-0.017,-0.744,0.636,-10.743,3.845,-30.945,0,0,0,
,-0.047,-0.762,0.642,83.862,-1.038,-34.913,0,0,0,
,-0.058,-0.749,0.634,94.604,6.225,-32.471,0,0,0,
,-0.049,-0.828,0.632,-90.394,13.427,-23.133,0,0,0,
,-0.057,-0.9,0.661,-315.308,29.724,-26.795,0,0,0,
,-0.071,-0.871,0.716,-291.932,51.025,-52.735,0,0,0,
,-0.053,-0.826,0.694,-107.3,38.391,-53.65,0,0,0,
,-0.068,-0.787,0.717,0.122,40.466,-60.914,0,0,0,
,-0.037,-0.789,0.734,55.664,42.48,-61.524,0,0,0,
,-0.03,-0.886,0.655,49.865,65.307,-78.919,0,0,0,
,-0.046,-0.805,0.675,54.931,74.768,-83.374,0,0,0,
,-0.01,-0.718,0.701,143.31,78.247,-81.482,0,0,0,
,0.022,-0.771,0.702,189.636,70.983,-75.562,0,0,0,
,0.019,-0.82,0.735,167.785,56.884,-62.5,0,0,0,
,0.014,-0.779,0.744,105.774,39.917,-37.476,0,0,0,
,-0.036,-0.797,0.665,131.958,29.785,-48.645,0,0,0,
,-0.041,-0.811,0.593,137.512,30.517,-49.012,0,0,0,
,-0.019,-0.735,0.574,173.523,36.132,-38.88,0,0,0,
,0.01,-0.796,0.632,324.096,14.709,-49.622,0,0,0,
,0.005,-0.939,0.668,420.776,-14.71,-64.087,0,0,0,
,0.008,-0.973,0.652,421.508,-25.574,-84.9,0,0,0,
,-0.027,-0.917,0.612,407.348,-35.096,-112.488,0,0,0,
,-0.043,-0.942,0.621,371.826,-33.326,-132.569,0,0,0,
,-0.003,-0.94,0.636,357.055,-27.222,-162.598,0,0,0,
,-0.001,-0.933,0.592,424.987,-13.062,-181.641,0,0,0,
,-0.039,-0.884,0.519,440.368,19.47,-180.298,0,0,0,
,-0.042,-0.894,0.479,492.004,38.94,-158.692,0,0,0,
,-0.081,-0.895,0.453,528.198,68.908,-171.387,0,0,0,
,-0.072,-1.036,0.443,551.147,89.965,-189.515,0,0,0,
,-0.084,-1.104,0.497,490.905,101.318,-209.473,0,0,0,
,-0.095,-1.125,0.512,396.057,112.854,-226.685,0,0,0,
,-0.105,-1.127,0.531,340.271,115.478,-254.883,0,0,0,
,-0.099,-1.123,0.514,283.569,112.365,-287.72,0,0,0,
,-0.096,-1.123,0.511,162.902,121.765,-306.519,0,0,0,
,-0.121,-1.094,0.493,60.058,128.418,-328.37,0,0,0,
,-0.101,-1.078,0.501,40.954,126.22,-345.581,0,0,0,
,-0.127,-1.061,0.485,15.502,126.831,-357.544,0,0,0,
,-0.151,-1.073,0.489,-39.185,119.69,-374.207,0,0,0,
,-0.164,-1.102,0.425,-73.426,114.013,-391.48,0,0,0,
,-0.176,-1.041,0.423,-86.609,100.158,-417.603,0,0,0,
,-0.186,-0.995,0.424,-103.455,83.984,-448.365,0,0,0,
,-0.184,-0.987,0.425,-113.77,71.228,-470.887,0,0,0,
,-0.204,-1.01,0.41,-143.738,64.819,-484.314,0,0,0,
,-0.219,-1.001,0.381,-167.664,64.025,-511.292,0,0,0,
,-0.247,-0.902,0.363,-225.708,62.744,-520.752,0,0,0,
,-0.249,-0.873,0.368,-184.266,52.368,-544.312,0,0,0,
,-0.261,-0.862,0.392,-159.424,40.222,-537.293,0,0,0,
,-0.276,-0.847,0.409,-158.753,33.264,-550.538,0,0,0,
,-0.3,-0.847,0.388,-172.73,34.79,-551.087,0,0,0,
,-0.322,-0.852,0.388,-163.88,35.705,-559.815,0,0,0,
,-0.333,-0.858,0.336,-163.88,46.752,-573.609,0,0,0,
,-0.342,-0.836,0.369,-165.039,50.659,-574.952,0,0,0,
,-0.348,-0.799,0.399,-183.655,59.57,-570.679,0,0,0,
,-0.358,-0.744,0.408,-182.068,65.673,-561.097,0,0,0,
,-0.381,-0.7,0.397,-154.236,75.866,-554.505,0,0,0,
,-0.396,-0.724,0.385,-96.863,83.496,-548.035,0,0,0,
,-0.427,-0.703,0.37,-88.318,102.6,-524.109,0,0,0,
,-0.428,-0.695,0.408,-65.247,116.882,-506.47,0,0,0,
,-0.436,-0.69,0.402,-29.419,138.488,-492.066,0,0,0,
,-0.449,-0.68,0.379,4.943,161.255,-485.291,0,0,0,
,-0.47,-0.703,0.393,-11.414,180.481,-455.628,0,0,0,
,-0.485,-0.648,0.43,-15.625,201.233,-422.181,0,0,0,
,-0.474,-0.577,0.425,22.277,217.773,-404.236,0,0,0,
,-0.482,-0.575,0.422,72.509,226.196,-368.226,0,0,0,
,-0.493,-0.572,0.432,67.688,239.807,-332.703,0,0,0,
,-0.502,-0.582,0.424,82.336,254.821,-302.002,0,0,0,
,-0.509,-0.554,0.437,148.803,258.667,-272.339,0,0,0,
,-0.508,-0.555,0.447,196.777,260.315,-244.019,0,0,0,
,-0.496,-0.551,0.453,181.091,259.643,-216.797,0,0,0,
,-0.491,-0.567,0.465,141.174,256.836,-194.703,0,0,0,
,-0.491,-0.548,0.457,146.24,248.901,-182.862,0,0,0,
,-0.458,-0.603,0.534,142.944,192.382,-172.242,0,0,0,
,-0.411,-0.745,0.686,-27.039,143.188,-144.776,0,0,0,
,-0.464,-0.535,0.575,-178.772,111.084,-135.071,0,0,0,
,-0.5,-0.434,0.502,-18.189,77.331,-122.193,0,0,0,
,-0.52,-0.554,0.542,125.061,44.982,-87.159,0,0,0,
,-0.534,-0.598,0.55,138.794,29.296,-59.205,0,0,0,
,-0.538,-0.588,0.553,145.752,8.667,-31.373,0,0,0,
,-0.544,-0.634,0.575,163.574,-1.526,-7.386,0,0,0,
,-0.554,-0.649,0.567,142.822,-12.146,9.948,0,0,0,
,-0.564,-0.649,0.555,137.573,-16.846,28.137,0,0,0,
,-0.566,-0.692,0.52,147.216,-23.011,41.748,0,0,0,
,-0.567,-0.754,0.519,96.923,-18.128,53.588,0,0,0,
,-0.56,-0.748,0.519,62.5,-9.766,57.983,0,0,0,
,-0.554,-0.751,0.511,70.739,-9.339,58.105,0,0,0,
,-0.553,-0.797,0.51,63.415,0.244,60.302,0,0,0,
,-0.554,-0.796,0.516,34.606,9.521,54.321,0,0,0,
,-0.553,-0.794,0.479,24.597,23.071,41.992,0,0,0,
,-0.558,-0.808,0.485,18.493,29.174,33.264,0,0,0,
,-0.563,-0.804,0.497,44.555,35.4,22.766,0,0,0,
,-0.585,-0.818,0.506,72.631,42.541,14.648,0,0,0,
,-0.585,-0.837,0.51,85.083,50.781,6.347,0,0,0,
,-0.571,-0.82,0.533,74.523,59.753,-5.738,0,0,0,
,-0.585,-0.874,0.517,39.489,71.044,-17.762,0,0,0,
,-0.58,-0.866,0.513,-23.072,84.228,-34.79,0,0,0,
,-0.578,-0.856,0.508,-59.449,97.412,-48.096,0,0,0,
,-0.562,-0.836,0.533,-77.454,119.201,-65.43,0,0,0,
,-0.572,-0.852,0.515,-57.129,132.263,-82.825,0,0,0,
,-0.579,-0.86,0.516,-57.984,137.268,-96.985,0,0,0,
,-0.563,-0.856,0.525,-81.177,143.859,-112.977,0,0,0,
,-0.561,-0.846,0.542,-103.333,150.207,-127.991,0,0,0,
,-0.539,-0.839,0.568,-122.254,153.259,-146.363,0,0,0,
,-0.542,-0.853,0.556,-135.498,153.869,-164.917,0,0,0,
,-0.539,-0.812,0.561,-160.279,150.94,-178.956,0,0,0,
,-0.535,-0.803,0.561,-192.322,148.681,-183.594,0,0,0,
,-0.544,-0.765,0.563,-187.195,146.301,-193.299,0,0,0,
,-0.543,-0.763,0.542,-141.663,146.85,-200.013,0,0,0,
,-0.555,-0.795,0.548,-166.321,150.451,-195.801,0,0,0,
,-0.542,-0.758,0.563,-200.806,164.245,-205.079,0,0,0,
,-0.548,-0.705,0.56,-193.604,168.64,-203.248,0,0,0,
,-0.55,-0.733,0.558,-220.765,176.391,-201.905,0,0,0,
,-0.537,-0.736,0.579,-281.8,189.88,-194.825,0,0,0,
,-0.525,-0.662,0.595,-275.818,191.284,-197.937,0,0,0,
,-0.519,-0.672,0.586,-240.54,183.288,-191.651,0,0,0,
,-0.513,-0.653,0.592,-267.029,187.561,-182.679,0,0,0,
,-0.507,-0.611,0.549,-260.315,195.312,-176.209,0,0,0,
,-0.503,-0.595,0.558,-250.855,200.439,-168.335,0,0,0,
,-0.482,-0.595,0.592,-239.869,199.707,-165.955,0,0,0,
,-0.481,-0.55,0.592,-247.437,194.03,-162.964,0,0,0,
,-0.488,-0.557,0.576,-229.371,185.119,-163.819,0,0,0,
,-0.487,-0.552,0.595,-214.356,171.997,-161.56,0,0,0,
,-0.468,-0.524,0.585,-196.717,168.457,-165.406,0,0,0,
,-0.464,-0.528,0.595,-187.5,150.146,-171.875,0,0,0,
,-0.443,-0.523,0.622,-253.479,139.77,-169.251,0,0,0,
,-0.434,-0.506,0.664,-321.778,130.432,-168.885,0,0,0,
,-0.444,-0.445,0.646,-249.207,115.722,-175.354,0,0,0,
,-0.449,-0.466,0.666,-177.124,102.295,-167.298,0,0,0,
,-0.432,-0.475,0.681,-202.515,81.481,-162.72,0,0,0,
,-0.448,-0.439,0.663,-232.972,69.885,-145.447,0,0,0,
,-0.467,-0.416,0.667,-225.342,62.927,-130.616,0,0,0,
,-0.476,-0.419,0.686,-129.334,52.124,-114.747,0,0,0,
,-0.485,-0.428,0.695,-42.42,40.588,-105.103,0,0,0,
,-0.5,-0.483,0.705,-45.777,39.672,-91.187,0,0,0,
,-0.511,-0.454,0.715,-101.075,46.02,-77.088,0,0,0,
,-0.518,-0.471,0.733,-168.519,48.706,-50.171,0,0,0,
,-0.51,-0.499,0.764,-240.174,53.955,-30.274,0,0,0,
,-0.499,-0.448,0.791,-198.975,55.664,-27.405,0,0,0,
,-0.509,-0.453,0.766,-133.118,51.574,-25.818,0,0,0,
,-0.521,-0.515,0.763,-165.223,59.753,-26.123,0,0,0,
,-0.52,-0.521,0.768,-250.184,66.833,-27.71,0,0,0,
,-0.54,-0.554,0.798,-305.481,78.247,-28.138,0,0,0,
,-0.548,-0.5,0.818,-291.26,75.378,-43.58,0,0,0,
,-0.544,-0.504,0.806,-224.61,65.124,-58.533,0,0,0,
,-0.539,-0.507,0.844,-250,58.898,-78.125,0,0,0,
,-0.538,-0.474,0.843,-291.382,59.143,-74.707,0,0,0,
,-0.539,-0.417,0.851,-343.323,60.852,-79.346,0,0,0,
,-0.531,-0.415,0.834,-421.204,70.739,-77.332,0,0,0,
,-0.532,-0.404,0.863,-446.778,66.894,-80.811,0,0,0,
,-0.545,-0.361,0.85,-351.319,63.232,-73.914,0,0,0,
,-0.526,-0.352,0.885,-310.608,60.607,-60.425,0,0,0,
,-0.515,-0.379,0.866,-347.046,60.974,-47.913,0,0,0,
,-0.517,-0.386,0.841,-448.731,80.261,-44.617,0,0,0,
,-0.516,-0.322,0.866,-446.167,85.144,-58.167,0,0,0,
,-0.512,-0.333,0.89,-333.313,76.355,-67.444,0,0,0,
,-0.528,-0.354,0.854,-269.288,70.19,-74.585,0,0,0,
,-0.507,-0.323,0.869,-273.438,77.392,-74.707,0,0,0,
,-0.508,-0.328,0.85,-324.036,86.853,-78.186,0,0,0,
,-0.512,-0.328,0.865,-436.158,99.06,-81.788,0,0,0,
,-0.503,-0.289,0.885,-526.307,106.872,-85.694,0,0,0,
,-0.489,-0.226,0.9,-507.691,97.534,-90.699,0,0,0,
,-0.497,-0.199,0.876,-430.481,83.618,-86.548,0,0,0,
,-0.486,-0.197,0.905,-425.171,75.317,-84.778,0,0,0,
,-0.478,-0.199,0.932,-462.83,71.106,-93.384,0,0,0,
,-0.477,-0.196,0.896,-481.873,69.641,-95.948,0,0,0,
,-0.487,-0.169,0.873,-438.416,68.542,-101.258,0,0,0,
,-0.468,-0.117,0.91,-332.947,56.396,-96.192,0,0,0,
,-0.472,-0.137,0.916,-318.482,53.466,-97.962,0,0,0,
,-0.47,-0.111,0.891,-331.665,57.373,-107.911,0,0,0,
,-0.467,-0.045,0.88,-361.329,72.021,-103.516,0,0,0,
,-0.462,-0.066,0.915,-395.63,73.181,-91.126,0,0,0,
,-0.455,-0.047,0.919,-467.041,79.895,-91.492,0,0,0,
,-0.457,-0.026,0.914,-500.977,73.669,-80.384,0,0,0,
,-0.456,0.034,0.902,-465.638,69.885,-83.985,0,0,0,
,-0.456,0.038,0.884,-389.649,60.363,-80.384,0,0,0,
,-0.46,-0.002,0.894,-371.094,62.377,-78.003,0,0,0,
,-0.449,0.008,0.899,-365.235,61.401,-86.67,0,0,0,
,-0.456,0.023,0.909,-329.834,54.748,-80.75,0,0,0,
,-0.442,0.038,0.923,-331.727,47.79,-74.707,0,0,0,
,-0.459,0.109,0.883,-291.871,44.616,-78.736,0,0,0,
,-0.439,0.136,0.884,-227.723,50.109,-78.125,0,0,0,
,-0.42,0.091,0.9,-247.559,48.4,-69.092,0,0,0,
,-0.415,0.095,0.895,-269.043,45.837,-74.891,0,0,0,
,-0.443,0.128,0.873,-252.32,44.25,-62.806,0,0,0,
,-0.439,0.126,0.872,-188.05,38.147,-62.806,0,0,0,
,-0.445,0.125,0.816,-205.75,39.672,-66.102,0,0,0,
,-0.421,0.129,0.885,-242.188,42.48,-61.829,0,0,0,
,-0.399,0.161,0.904,-255.127,38.757,-69.703,0,0,0,
,-0.434,0.166,0.902,-204.041,22.094,-66.285,0,0,0,
,-0.432,0.173,0.87,-135.56,15.686,-61.097,0,0,0,
,-0.431,0.181,0.894,-175.415,24.902,-60.059,0,0,0,
,-0.433,0.177,0.876,-252.381,35.766,-57.679,0,0,0,
,-0.431,0.217,0.884,-282.288,43.151,-53.711,0,0,0,
,-0.425,0.227,0.917,-210.144,34.851,-51.453,0,0,0,
,-0.436,0.224,0.929,-95.459,17.273,-35.401,0,0,0,
,-0.431,0.217,0.916,-129.334,15.136,-35.279,0,0,0,
,-0.446,0.19,0.879,-155.03,16.296,-36.499,0,0,0,
,-0.454,0.247,0.858,-159.668,22.705,-37.537,0,0,0,
,-0.431,0.271,0.873,-78.98,23.193,-33.692,0,0,0,
,-0.44,0.235,0.903,-74.585,23.986,-32.959,0,0,0,
,-0.423,0.236,0.879,-189.393,38.024,-34.852,0,0,0,
,-0.437,0.253,0.864,-206.604,36.132,-33.448,0,0,0,
,-0.439,0.272,0.866,-170.411,36.01,-35.401,0,0,0,
,-0.443,0.3,0.863,-117.066,32.348,-43.335,0,0,0,
,-0.425,0.277,0.9,-72.937,27.954,-40.711,0,0,0,
,-0.432,0.297,0.875,-103.943,27.648,-41.748,0,0,0,
,-0.45,0.28,0.838,-134.461,35.217,-39.917,0,0,0,
,-0.43,0.305,0.854,-178.04,48.584,-38.269,0,0,0,
,-0.425,0.29,0.87,-191.346,46.447,-35.035,0,0,0,
,-0.42,0.315,0.895,-137.452,39.184,-44.19,0,0,0,
,-0.419,0.308,0.9,-68.604,26.794,-36.988,0,0,0,
,-0.421,0.288,0.844,-138.672,34.606,-44.861,0,0,0,
,-0.41,0.292,0.87,-175.965,39.55,-41.932,0,0,0,
,-0.414,0.35,0.867,-100.22,27.832,-40.528,0,0,0,
,-0.429,0.341,0.861,-10.254,14.526,-24.048,0,0,0,
,-0.43,0.331,0.84,12.756,10.131,-15.015,0,0,0,
,-0.445,0.342,0.794,8.789,16.784,-18.189,0,0,0,
,-0.416,0.317,0.83,-46.082,26.184,-17.823,0,0,0,
,-0.412,0.304,0.857,-78.553,30.822,-20.874,0,0,0,
,-0.414,0.326,0.849,-79.956,30.212,-18.86,0,0,0,
,-0.422,0.329,0.873,-31.861,24.841,-18.311,0,0,0,
,-0.429,0.338,0.839,-8.301,25.695,-20.447,0,0,0,
,-0.422,0.291,0.869,-70.923,33.996,-22.828,0,0,0,
,-0.42,0.317,0.872,-113.526,36.804,-23.804,0,0,0,
,-0.434,0.331,0.858,-131.104,30.883,-31.006,0,0,0,
,-0.416,0.33,0.873,-141.785,23.803,-29.908,0,0,0,
,-0.42,0.353,0.868,-115.174,17.089,-29.114,0,0,0,
,-0.42,0.373,0.863,-80.262,12.146,-32.288,0,0,0,
,-0.429,0.344,0.854,-41.871,6.591,-31.983,0,0,0,
,-0.423,0.363,0.842,-27.344,3.845,-31.983,0,0,0,
,-0.429,0.349,0.796,-31.067,4.882,-33.997,0,0,0,
,-0.422,0.373,0.822,-33.081,10.803,-30.579,0,0,0,
,-0.4,0.373,0.857,-11.414,10.376,-30.213,0,0,0,
,-0.405,0.369,0.847,-7.203,11.901,-29.48,0,0,0,
,-0.407,0.373,0.809,21.423,11.657,-21.18,0,0,0,
,-0.41,0.357,0.819,45.654,13.061,-18.067,0,0,0,
,-0.396,0.344,0.814,71.044,16.418,-22.522,0,0,0,
,-0.406,0.325,0.848,64.27,15.93,-17.701,0,0,0,
,-0.403,0.318,0.848,66.284,15.319,-18.433,0,0,0,
,-0.418,0.38,0.829,107.238,9.887,-21.058,0,0,0,
,-0.416,0.37,0.805,145.935,7.446,-16.663,0,0,0,
,-0.402,0.337,0.833,139.648,7.324,-12.94,0,0,0,
,-0.376,0.322,0.829,135.864,3.784,-9.339,0,0,0,
,-0.412,0.343,0.812,135.498,4.089,-5.494,0,0,0,
,-0.406,0.341,0.799,190.673,-5.005,-2.686,0,0,0,
,-0.401,0.328,0.81,236.816,-10.743,3.234,0,0,0,
,-0.392,0.302,0.813,260.437,-17.151,9.582,0,0,0,
,-0.391,0.258,0.831,251.953,-17.945,17.395,0,0,0,
,-0.391,0.252,0.833,247.68,-22.583,23.559,0,0,0,
,-0.409,0.254,0.834,286.438,-24.598,32.898,0,0,0,
,-0.402,0.247,0.835,325.317,-21.363,35.156,0,0,0,
,-0.389,0.25,0.844,370.056,-22.522,38.513,0,0,0,
,-0.391,0.221,0.827,428.772,-23.072,47.363,0,0,0,
,-0.406,0.208,0.849,437.194,-24.659,60.241,0,0,0,
,-0.413,0.196,0.834,431.518,-24.414,73.303,0,0,0,
,-0.423,0.104,0.83,540.161,-29.236,94.604,0,0,0,
,-0.426,0.031,0.864,546.936,-28.138,94.726,0,0,0,
,-0.412,0.046,0.878,552.002,-29.602,104.98,0,0,0,
,-0.422,0.056,0.875,571.472,-38.392,109.253,0,0,0,
,-0.437,0,0.883,603.82,-42.176,114.929,0,0,0,
,-0.443,-0.046,0.918,585.327,-42.481,116.577,0,0,0,
,-0.449,-0.063,0.924,558.776,-42.725,114.624,0,0,0,
,-0.462,-0.073,0.909,542.419,-51.88,111.511,0,0,0,
,-0.466,-0.089,0.909,541.198,-58.289,112.548,0,0,0,
,-0.477,-0.084,0.91,582.397,-65.369,113.647,0,0,0,
,-0.486,-0.129,0.916,630.432,-71.289,115.112,0,0,0,
,-0.465,-0.189,0.941,627.746,-67.505,114.257,0,0,0,
,-0.469,-0.22,0.918,581.298,-70.13,111.938,0,0,0,
,-0.473,-0.221,0.895,536.132,-70.435,111.145,0,0,0,
,-0.477,-0.241,0.899,512.207,-72.693,111.755,0,0,0,
,-0.492,-0.269,0.89,507.629,-67.322,108.337,0,0,0,
,-0.486,-0.272,0.902,516.967,-70.679,101.745,0,0,0,
,-0.477,-0.282,0.878,507.873,-74.097,103.393,0,0,0,
,-0.48,-0.298,0.867,478.576,-79.895,108.032,0,0,0,
,-0.475,-0.335,0.857,445.922,-84.778,108.52,0,0,0,
,-0.466,-0.358,0.793,355.529,-109.192,109.985,0,0,0,
,-0.471,-0.395,0.752,287.963,-116.089,116.088,0,0,0,
,-0.466,-0.402,0.776,226.562,-117.371,124.328,0,0,0,
,-0.462,-0.402,0.791,212.219,-120.362,123.901,0,0,0,
,-0.467,-0.422,0.752,227.111,-119.935,126.159,0,0,0,
,-0.446,-0.401,0.739,222.534,-136.597,135.742,0,0,0,
,-0.412,-0.412,0.72,235.901,-163.758,149.17,0,0,0,
,-0.4,-0.443,0.717,244.873,-188.172,161.01,0,0,0,
,-0.391,-0.441,0.721,260.07,-209.595,165.039,0,0,0,
,-0.387,-0.452,0.729,325.317,-238.343,171.997,0,0,0,
,-0.41,-0.498,0.721,336.853,-265.748,192.993,0,0,0,
,-0.456,-0.513,0.724,310.974,-287.903,217.163,0,0,0,
,-0.477,-0.538,0.751,318.298,-302.979,245.483,0,0,0,
,-0.506,-0.581,0.701,311.95,-312.5,266.052,0,0,0,
,-0.533,-0.52,0.596,294.983,-300.904,277.038,0,0,0,
,-0.531,-0.565,0.583,302.734,-290.101,283.142,0,0,0,
,-0.518,-0.65,0.597,255.981,-275.269,297.18,0,0,0,
,-0.536,-0.641,0.626,204.284,-279.725,318.237,0,0,0,
,-0.572,-0.593,0.616,248.108,-258.912,322.754,0,0,0,
,-0.593,-0.612,0.575,308.96,-250.428,328.918,0,0,0,
,-0.561,-0.664,0.552,345.825,-243.164,329.467,0,0,0,
,-0.537,-0.738,0.552,345.764,-232.789,327.392,0,0,0,
,-0.515,-0.733,0.596,296.142,-218.384,321.289,0,0,0,
,-0.531,-0.751,0.591,279.48,-201.844,309.509,0,0,0,
,-0.546,-0.726,0.571,268.31,-193.604,301.941,0,0,0,
,-0.578,-0.733,0.523,231.628,-169.19,304.626,0,0,0,
,-0.548,-0.776,0.543,205.993,-160.157,299.133,0,0,0,
,-0.534,-0.797,0.588,182.373,-158.081,295.593,0,0,0,
,-0.533,-0.821,0.6,173.523,-158.875,285.583,0,0,0,
,-0.53,-0.766,0.56,175.659,-165.589,270.935,0,0,0,
,-0.524,-0.704,0.528,192.688,-163.575,269.043,0,0,0,
,-0.53,-0.764,0.494,163.696,-151.123,281.005,0,0,0,
,-0.504,-0.839,0.534,108.825,-139.283,297.546,0,0,0,
,-0.466,-0.87,0.557,161.193,-138.428,287.658,0,0,0,
,-0.465,-0.887,0.531,164.184,-153.077,282.043,0,0,0,
,-0.476,-0.854,0.426,131.225,-145.203,269.47,0,0,0,
,-0.464,-0.817,0.372,100.28,-131.47,264.038,0,0,0,
,-0.421,-0.844,0.458,90.271,-124.024,276.367,0,0,0,
,-0.394,-0.844,0.498,90.637,-121.644,272.766,0,0,0,
,-0.41,-0.815,0.472,78.979,-123.475,289.001,0,0,0,
,-0.41,-0.819,0.407,32.775,-116.578,299.072,0,0,0,
,-0.349,-0.832,0.341,13.671,-107.789,305.603,0,0,0,
,-0.326,-0.909,0.376,74.34,-106.934,301.88,0,0,0,
,-0.292,-0.953,0.421,123.413,-114.258,295.959,0,0,0,
,-0.323,-0.91,0.396,100.341,-116.7,286.438,0,0,0,
,-0.293,-0.906,0.383,78.491,-105.835,288.269,0,0,0,
,-0.289,-0.946,0.395,10.376,-98.633,290.954,0,0,0,
,-0.294,-1.001,0.383,-143.189,-79.712,302.49,0,0,0,
,-0.292,-0.908,0.37,-71.228,-81.727,283.508,0,0,0,
,-0.279,-0.851,0.364,147.888,-102.417,265.136,0,0,0,
,-0.234,-0.935,0.376,231.445,-117.188,280.273,0,0,0,
,-0.252,-1.002,0.317,133.056,-105.835,281.555,0,0,0,
,-0.282,-0.982,0.302,1.953,-74.707,288.94,0,0,0,
,-0.242,-0.941,0.321,40.771,-75.745,288.574,0,0,0,
,-0.248,-0.956,0.288,181.762,-70.069,278.991,0,0,0,
,-0.254,-0.992,0.251,174.194,-45.655,284.546,0,0,0,
,-0.195,-1.039,0.295,85.876,-15.992,285.766,0,0,0,
,-0.16,-1.046,0.353,-4.578,0.122,265.075,0,0,0,
,-0.138,-1.047,0.339,26.977,-0.245,231.018,0,0,0,
,-0.155,-1.03,0.328,57.983,-0.123,205.383,0,0,0,
,-0.171,-1.005,0.235,41.015,12.817,177.307,0,0,0,
,-0.13,-1.015,0.284,-41.443,27.465,166.259,0,0,0,
,-0.094,-1.027,0.342,-122.864,36.56,145.385,0,0,0,
,-0.09,-0.978,0.381,-149.903,32.592,131.347,0,0,0,
,-0.095,-0.941,0.35,-60.303,25.39,118.042,0,0,0,
,-0.112,-0.987,0.294,18.615,30.639,98.938,0,0,0,
,-0.08,-1.033,0.301,-6.043,44.555,96.008,0,0,0,
,-0.073,-0.977,0.388,-70.069,49.011,88.867,0,0,0,
,-0.087,-0.923,0.369,-66.285,45.776,88.134,0,0,0,
,-0.111,-0.938,0.345,53.283,37.414,77.026,0,0,0,
,-0.116,-0.961,0.341,49.743,37.841,71.228,0,0,0,
,-0.113,-1,0.342,-34.302,40.222,79.162,0,0,0,
,-0.105,-0.961,0.362,-88.929,42.541,69.458,0,0,0,
,-0.102,-0.946,0.336,-36.133,31.127,64.819,0,0,0,
,-0.122,-0.953,0.343,24.841,24.047,67.993,0,0,0,
,-0.125,-0.973,0.332,30.822,19.409,66.284,0,0,0,
,-0.113,-0.969,0.351,-6.104,18.737,67.443,0,0,0,
,-0.107,-0.953,0.36,-54.627,19.714,53.466,0,0,0,
,-0.094,-0.954,0.373,-44.922,13,52.673,0,0,0,
,-0.094,-0.955,0.37,3.418,4.638,49.865,0,0,0,
,-0.066,-1.001,0.498,-2.198,-56.702,17.395,0,0,0,
,-0.068,-1.137,0.417,214.538,-84.656,-13.611,0,0,0,
,-0.207,-1.059,0.251,115.905,-61.829,-62.012,0,0,0,
,-0.116,-1.027,0.345,17.761,-44.556,-28.504,0,0,0,
,-0.073,-0.959,0.296,-28.687,-38.025,-40.345,0,0,0,
,-0.098,-0.917,0.37,40.954,-60.303,-58.167,0,0,0,
,-0.156,-1.018,0.32,5.249,-68.665,-40.711,0,0,0,
,-0.117,-0.936,0.295,25.634,-41.382,-32.959,0,0,0,
,-0.14,-0.908,0.248,62.5,-22.278,-26.246,0,0,0,
,-0.102,-0.973,0.283,17.761,-21.363,-20.447,0,0,0,
,-0.102,-0.949,0.348,5.615,-12.391,-16.175,0,0,0,
,-0.077,-0.943,0.355,8.789,-13.733,0.61,0,0,0,
,-0.119,-0.948,0.319,-6.897,-11.353,3.173,0,0,0,
,-0.129,-0.939,0.303,6.286,8.728,19.287,0,0,0,
,-0.11,-0.953,0.312,46.203,24.963,29.846,0,0,0,
,-0.108,-1.014,0.33,49.499,33.752,32.47,0,0,0,
,-0.116,-1.03,0.335,-5.982,47.302,33.63,0,0,0,
,-0.094,-1.043,0.336,-51.392,58.898,23.376,0,0,0,
,-0.098,-1.05,0.319,-84.229,60.669,9.277,0,0,0,
,-0.153,-1.179,0.36,-67.261,48.889,-50.11,0,0,0,
,-0.065,-0.952,0.398,-167.481,55.175,-20.264,0,0,0,
,-0.081,-0.85,0.33,-75.257,34.668,-35.584,0,0,0,
,-0.1,-0.945,0.342,-8.912,26.794,-15.625,0,0,0,
,-0.092,-0.999,0.3,-90.271,32.714,-13.123,0,0,0,
,-0.08,-0.978,0.337,-170.289,36.56,-1.77,0,0,0,
,-0.05,-0.966,0.379,-163.575,26.489,4.943,0,0,0,
,-0.039,-0.976,0.394,-109.681,6.042,8.728,0,0,0,
,-0.052,-1.001,0.416,-76.233,-6.653,3.356,0,0,0,
,-0.038,-1.006,0.421,-92.408,-6.836,6.652,0,0,0,
,-0.069,-0.989,0.357,-137.574,-12.33,7.385,0,0,0,
,-0.019,-0.999,0.362,-194.336,1.525,13.122,0,0,0,
,0.014,-0.978,0.397,-256.775,12.878,29.357,0,0,0,
,0.016,-0.952,0.423,-298.401,21.118,26.916,0,0,0,
,0.038,-0.951,0.456,-326.966,0.61,40.039,0,0,0,
,0.04,-0.981,0.532,-284.607,-35.767,33.081,0,0,0,
,-0.031,-1.002,0.494,-348.877,-26.978,57.983,0,0,0,
,-0.035,-0.995,0.468,-548.829,-8.484,113.037,0,0,0,
,0,-0.952,0.443,-748.658,10.192,158.63,0,0,0,
,0.012,-0.946,0.448,-939.637,17.273,190.551,0,0,0,
,0.006,-0.868,0.468,-1063.416,26.062,221.191,0,0,0,
,0.016,-0.833,0.556,-1104.554,30.517,229.309,0,0,0,
,0.055,-0.87,0.595,-1182.74,18.554,243.408,0,0,0,
,0.039,-0.859,0.581,-1265.137,35.034,250.732,0,0,0,
,0.03,-0.76,0.62,-1261.658,33.203,242.553,0,0,0,
,0.039,-0.713,0.675,-1146.851,15.869,223.144,0,0,0,
,0.042,-0.713,0.681,-976.746,-14.161,188.903,0,0,0,
,0.023,-0.753,0.678,-893.677,-11.048,182.067,0,0,0,
,-0.013,-0.688,0.666,-931.092,12.39,185.18,0,0,0,
,-0.005,-0.66,0.685,-1029.908,35.034,174.56,0,0,0,
,-0.015,-0.594,0.681,-1115.174,60.791,170.227,0,0,0,
,-0.034,-0.481,0.721,-1122.986,114.502,181.823,0,0,0,
,-0.013,-0.368,0.75,-1004.7,147.4,150.634,0,0,0,
,0.018,-0.35,0.805,-787.171,147.4,125.122,0,0,0,
,0.045,-0.389,0.791,-573.914,113.647,93.811,0,0,0,
,0.044,-0.446,0.861,-474.915,96.069,85.022,0,0,0,
,0.022,-0.428,0.901,-424.134,124.328,89.538,0,0,0,
,0.028,-0.317,0.901,-371.155,149.231,89.233,0,0,0,
,0.067,-0.318,0.905,-278.87,121.643,54.138,0,0,0,
,0.07,-0.373,0.898,-262.452,81.237,39.611,0,0,0,
,0.024,-0.375,0.93,-310.914,95.947,32.226,0,0,0,
,0.022,-0.334,0.912,-346.619,113.891,21.057,0,0,0,
,0.057,-0.318,0.942,-354.798,106.201,22.644,0,0,0,
,0.051,-0.279,0.962,-353.028,92.041,28.869,0,0,0,
,0.041,-0.18,0.937,-302.491,108.154,49.804,0,0,0,
,0.071,-0.13,0.949,-138.123,94.482,49.377,0,0,0,
,0.116,-0.234,0.943,41.259,21.789,38.391,0,0,0,
,0.092,-0.366,0.984,54.26,-6.226,57.617,0,0,0,
,0.021,-0.298,1.002,-5.372,46.386,102.844,0,0,0,
,0.18,-0.246,1.253,165.527,-56.214,82.397,0,0,0,
,0.113,-0.507,1.198,58.105,-149.048,49.255,0,0,0,
,-0.004,-0.353,1.091,-53.101,-158.326,79.528,0,0,0,
,0.012,-0.25,0.931,-36.499,-107.178,82.946,0,0,0,
,0.034,-0.274,0.917,74.768,-110.596,63.659,0,0,0,
,0.013,-0.308,0.972,100.769,-80.689,66.345,0,0,0,
,0.039,-0.318,0.979,67.504,-63.965,68.725,0,0,0,
,0.059,-0.332,0.986,49.438,-48.401,51.452,0,0,0,
,0.078,-0.319,0.997,26.672,-49.378,47.363,0,0,0,
,0.093,-0.294,1.022,6.897,-37.964,41.381,0,0,0,
,0.094,-0.261,0.993,25.756,-24.964,24.841,0,0,0,
,0.078,-0.253,0.967,61.706,-4.029,3.173,0,0,0,
,0.063,-0.29,0.989,74.279,8.667,-9.217,0,0,0,
,0.124,-0.347,1,14.221,21.301,-16.541,0,0,0,
,0.126,-0.366,0.995,-55.237,22.583,-19.593,0,0,0,
,0.107,-0.334,0.954,-118.775,29.846,-18.433,0,0,0,
,0.091,-0.294,0.962,-94.727,34.057,-32.288,0,0,0,
,0.085,-0.305,0.965,-64.515,40.771,-39.002,0,0,0,
,0.082,-0.319,0.966,-42.725,35.339,-39.978,0,0,0,
,0.064,-0.298,0.972,-32.349,35.339,-31.617,0,0,0,
,0.068,-0.283,0.964,-28.016,44.738,-27.1,0,0,0,
,0.079,-0.27,0.972,-18.372,37.536,-28.016,0,0,0,
,0.095,-0.282,0.975,2.563,34.362,-19.837,0,0,0,
,0.108,-0.31,0.963,0.061,21.911,-21.851,0,0,0,
,0.098,-0.319,0.971,-30.335,22.827,-27.588,0,0,0,
,0.093,-0.311,0.967,-48.584,28.686,-27.466,0,0,0,
,0.1,-0.278,0.982,-43.641,26.001,-29.725,0,0,0,
,0.098,-0.291,1,-44.129,13.916,-33.57,0,0,0,
,0.071,-0.295,1.072,-67.994,4.333,-44.129,0,0,0,
,0.048,-0.273,1.141,-78.003,-20.691,-77.332,0,0,0,
,0.023,-0.326,1.2,-110.535,-42.176,-93.384,0,0,0,
,0.011,-0.344,1.2,-113.221,-52.124,-105.164,0,0,0,
,0.004,-0.291,1.183,-69.031,-41.26,-113.709,0,0,0,
,0.019,-0.245,1.192,-24.048,-74.524,-119.568,0,0,0,
,-0.007,-0.333,1.211,-0.794,-129.151,-142.518,0,0,0,
,0.03,-0.564,1.183,-139.466,-177.002,-186.463,0,0,0,
,0.002,-0.523,1.104,-441.346,-152.955,-171.998,0,0,0,
,0,-0.32,1.046,-639.527,-108.094,-180.787,0,0,0,
,0.041,-0.199,0.996,-596.619,-131.531,-214.051,0,0,0,
,0.035,-0.219,0.978,-457.642,-225.831,-259.583,0,0,0,
,-0.03,-0.219,1.003,-345.276,-251.77,-254.944,0,0,0,
,-0.046,-0.164,0.983,-265.992,-239.136,-246.582,0,0,0,
,-0.021,-0.123,0.941,-117.066,-246.216,-237.061,0,0,0,
,-0.042,-0.07,0.875,60.913,-251.77,-209.473,0,0,0,
,-0.057,-0.01,0.821,259.582,-234.559,-195.923,0,0,0,
,-0.041,-0.106,0.742,410.4,-234.559,-218.384,0,0,0,
,-0.039,-0.272,0.72,423.828,-239.197,-217.164,0,0,0,
,-0.061,-0.333,0.739,265.686,-189.026,-168.396,0,0,0,
,-0.078,-0.254,0.752,123.352,-109.498,-127.381,0,0,0,
,-0.043,-0.163,0.757,49.987,-85.999,-119.324,0,0,0,
,-0.018,-0.214,0.744,29.541,-113.16,-117.676,0,0,0,
,-0.034,-0.297,0.794,-25.147,-139.161,-113.709,0,0,0,
,-0.059,-0.292,0.815,-121.644,-93.689,-67.749,0,0,0,
,-0.041,-0.272,0.834,-114.136,-77.942,-59.754,0,0,0,
,-0.042,-0.229,0.841,-44.739,-58.411,-47.12,0,0,0,
,-0.054,-0.123,0.809,95.947,-21.058,-37.049,0,0,0,
,-0.04,-0.079,0.84,352.905,-9.888,-51.697,0,0,0,
,0.006,-0.282,0.819,652.588,-81.055,-73.243,0,0,0,
,-0.041,-0.409,0.844,777.343,-78.98,-61.219,0,0,0,
,-0.104,-0.425,0.882,779.846,27.526,-55.176,0,0,0,
,-0.09,-0.321,0.895,821.777,99.548,-38.453,0,0,0,
,-0.005,-0.316,0.936,963.806,62.927,-52.185,0,0,0,
,0.002,-0.384,0.932,1114.563,0.427,-52.43,0,0,0,
,-0.058,-0.455,0.914,1209.655,-27.161,-60.914,0,0,0,
,-0.088,-0.534,0.895,1208.252,-18.982,-57.251,0,0,0,
,-0.093,-0.524,0.934,1208.313,-9.888,-66.407,0,0,0,
,-0.035,-0.755,0.916,993.042,-46.998,-49.683,0,0,0,
,-0.078,-0.86,0.843,605.224,-28.138,-2.808,0,0,0,
,-0.142,-0.72,0.86,325.256,46.325,4.028,0,0,0,
,-0.112,-0.553,0.822,400.329,48.461,-25.391,0,0,0,
,-0.093,-0.539,0.827,673.095,13.732,-54.383,0,0,0,
,-0.109,-0.662,0.756,978.82,-30.823,-63.782,0,0,0,
,-0.134,-0.809,0.783,983.825,-65.247,-33.326,0,0,0,
,-0.135,-0.886,0.72,710.388,-43.213,10.315,0,0,0,
,-0.136,-0.832,0.744,424.011,-18.494,2.624,0,0,0,
,-0.118,-0.741,0.705,354.858,-14.588,-18.494,0,0,0,
,-0.106,-0.782,0.67,575.988,-31.495,-71.412,0,0,0,
,-0.12,-0.829,0.65,750.854,-34.668,-49.256,0,0,0,
,-0.122,-0.811,0.629,750.671,-28.382,-34.119,0,0,0,
,-0.095,-0.866,0.571,638.733,-27.283,-19.898,0,0,0,
,-0.084,-0.909,0.582,485.29,-31.434,-10.315,0,0,0,
,-0.094,-0.884,0.616,358.886,-49.134,1.281,0,0,0,
,-0.091,-0.908,0.571,260.009,-55.603,33.996,0,0,0,
,-0.089,-0.944,0.591,189.514,-74.28,49.438,0,0,0,
,-0.11,-0.989,0.552,122.192,-75.257,47.851,0,0,0,
,-0.14,-0.983,0.511,35.705,-64.393,27.893,0,0,0,
,-0.133,-1.014,0.475,-30.945,-33.814,-7.264,0,0,0,
,-0.107,-1.062,0.507,-138.733,-12.513,-0.855,0,0,0,
,-0.109,-0.989,0.532,-272.217,0.915,16.235,0,0,0,
,-0.11,-0.794,0.526,-226.014,26.367,14.404,0,0,0,
,-0.097,-0.757,0.488,-39.734,16.601,1.953,0,0,0,
,-0.098,-0.833,0.504,88.989,-3.357,-23.377,0,0,0,
,-0.101,-0.933,0.452,57.495,3.234,-20.386,0,0,0,
,-0.125,-1.034,0.453,-114.441,17.822,-22.583,0,0,0,
,-0.152,-0.914,0.441,-255.066,67.993,-7.874,0,0,0,
,-0.081,-0.811,0.493,-117.798,49.499,-24.964,0,0,0,
,-0.1,-0.918,0.476,46.752,39.367,-45.777,0,0,0,
,-0.127,-0.949,0.496,10.192,37.658,-27.161,0,0,0,
,-0.127,-0.942,0.484,-90.21,64.88,-37.598,0,0,0,
,-0.094,-0.896,0.497,-111.634,71.044,-28.443,0,0,0,
,-0.064,-0.809,0.546,-73.609,63.049,-39.185,0,0,0,
,-0.083,-0.856,0.593,7.324,35.644,-46.082,0,0,0,
,-0.095,-0.853,0.581,27.16,22.155,-37.049,0,0,0,
,-0.109,-0.824,0.536,59.631,18.493,-38.514,0,0,0,
,-0.115,-0.836,0.55,80.444,17.578,-27.588,0,0,0,
,-0.114,-0.854,0.563,90.759,27.893,-46.692,0,0,0,
,-0.097,-0.909,0.54,119.934,26.062,-36.133,0,0,0,
,-0.118,-0.907,0.524,119.751,34.423,-30.823,0,0,0,
,-0.137,-0.906,0.561,150.695,38.635,-33.753,0,0,0,
,-0.141,-0.919,0.554,135.925,60.791,-39.734,0,0,0,
,-0.136,-0.968,0.573,172.912,64.636,-59.998,0,0,0,
,-0.137,-1.085,0.59,95.825,59.326,-72.998,0,0,0,
,-0.151,-1.045,0.554,-31.495,82.946,-76.233,0,0,0,
,-0.159,-0.98,0.512,-49.5,91.613,-94.91,0,0,0,
,-0.138,-0.967,0.509,-21.119,88.562,-101.624,0,0,0,
,-0.111,-1.009,0.552,-2.869,94.848,-108.582,0,0,0,
,-0.103,-0.996,0.576,-88.685,93.505,-97.596,0,0,0,
,-0.112,-0.914,0.548,-89.661,95.336,-99.976,0,0,0,
,-0.133,-0.887,0.503,-26.734,84.289,-113.038,0,0,0,
,-0.094,-1.02,0.531,-29.297,87.585,-142.029,0,0,0,
,-0.1,-1.04,0.549,-96.375,98.877,-147.461,0,0,0,
,-0.104,-1.001,0.58,-105.408,77.026,-191.834,0,0,0,
,-0.111,-1.025,0.601,-60.425,56.945,-234.131,0,0,0,
,-0.129,-1.012,0.605,-24.414,37.841,-255.494,0,0,0,
,-0.143,-1.05,0.567,-34.302,20.813,-290.467,0,0,0,
,-0.147,-1.03,0.572,-45.716,11.352,-312.684,0,0,0,
,-0.158,-0.999,0.553,-43.091,8.972,-343.934,0,0,0,
,-0.162,-0.992,0.539,-2.747,0.61,-366.883,0,0,0,
,-0.157,-0.999,0.526,20.874,5.127,-390.32,0,0,0,
,-0.165,-1.011,0.551,-23.926,7.69,-404.236,0,0,0,
,-0.164,-0.985,0.531,-66.956,7.08,-429.261,0,0,0,
,-0.172,-0.981,0.516,-68.97,1.77,-451.783,0,0,0,
,-0.192,-0.93,0.495,-78.797,5.737,-467.041,0,0,0,
,-0.198,-0.921,0.515,-96.68,1.586,-484.986,0,0,0,
,-0.199,-0.899,0.442,-99.549,1.953,-496.338,0,0,0,
,-0.237,-0.891,0.441,-88.196,-10.315,-508.912,0,0,0,
,-0.229,-0.887,0.466,-58.045,1.098,-513.55,0,0,0,
,-0.24,-0.839,0.474,-103.089,4.577,-515.625,0,0,0,
,-0.272,-0.839,0.47,-109.681,9.704,-522.339,0,0,0,
,-0.299,-0.812,0.451,-110.657,12.634,-517.334,0,0,0,
,-0.296,-0.832,0.468,-73.914,21.972,-528.687,0,0,0,
,-0.336,-0.757,0.46,-116.089,58.349,-514.039,0,0,0,
,-0.348,-0.704,0.461,-91.553,65.307,-509.095,0,0,0,
,-0.349,-0.723,0.449,-56.519,78.308,-502.93,0,0,0,
,-0.373,-0.73,0.428,-61.402,97.106,-485.962,0,0,0,
,-0.39,-0.736,0.443,-39.185,111.572,-484.986,0,0,0,
,-0.394,-0.661,0.443,-55.909,125.427,-470.154,0,0,0,
,-0.375,-0.666,0.448,3.845,131.713,-477.662,0,0,0,
,-0.39,-0.693,0.439,-4.944,140.564,-460.022,0,0,0,
,-0.417,-0.678,0.431,-17.456,165.893,-458.008,0,0,0,
,-0.42,-0.626,0.437,-1.831,185.974,-445.801,0,0,0,
,-0.426,-0.587,0.488,9.155,186.462,-436.707,0,0,0,
,-0.447,-0.563,0.504,14.831,187.072,-413.941,0,0,0,
,-0.464,-0.54,0.5,23.742,196.899,-389.466,0,0,0,
,-0.462,-0.544,0.54,58.532,194.824,-380.738,0,0,0,
,-0.5,-0.587,0.537,27.526,196.594,-365.845,0,0,0,
,-0.506,-0.599,0.554,13.183,205.993,-348.206,0,0,0,
,-0.502,-0.544,0.541,33.386,209.9,-349.61,0,0,0,
,-0.517,-0.575,0.555,25.634,197.937,-312.439,0,0,0,
,-0.522,-0.563,0.575,94.421,182.373,-302.247,0,0,0,
,-0.519,-0.509,0.56,124.084,216.919,-275.269,0,0,0,
,-0.55,-0.594,0.55,158.752,217.041,-271.851,0,0,0,
,-0.565,-0.589,0.576,125.976,214.294,-255.188,0,0,0,
,-0.526,-0.549,0.635,80.688,204.895,-257.325,0,0,0,
,-0.509,-0.476,0.623,96.557,179.26,-252.381,0,0,0,
,-0.548,-0.536,0.589,168.945,160.339,-242.737,0,0,0,
,-0.575,-0.497,0.574,187.988,148.254,-233.948,0,0,0,
,-0.577,-0.601,0.593,218.078,133.667,-225.22,0,0,0,
,-0.55,-0.599,0.629,194.885,121.582,-215.638,0,0,0,
,-0.574,-0.563,0.622,191.833,114.38,-217.102,0,0,0,
,-0.602,-0.588,0.604,171.508,108.093,-207.764,0,0,0,
,-0.59,-0.66,0.591,128.112,101.318,-199.524,0,0,0,
,-0.609,-0.637,0.609,85.571,110.412,-195.984,0,0,0,
,-0.586,-0.539,0.651,123.779,113.403,-193.543,0,0,0,
,-0.619,-0.578,0.696,146.728,110.229,-169.373,0,0,0,
,-0.666,-0.583,0.69,72.021,104.858,-129.273,0,0,0,
,-0.66,-0.632,0.706,62.988,85.327,-125.428,0,0,0,
,-0.633,-0.603,0.698,54.321,76.049,-117.066,0,0,0,
,-0.637,-0.583,0.653,20.385,73.791,-111.329,0,0,0,
,-0.642,-0.561,0.586,-2.076,77.453,-110.779,0,0,0,
,-0.638,-0.62,0.596,-17.212,75.012,-105.835,0,0,0,
,-0.625,-0.638,0.595,-33.997,78.369,-101.441,0,0,0,
,-0.604,-0.596,0.608,-53.284,80.627,-100.708,0,0,0,
,-0.603,-0.617,0.616,-28.321,75.744,-98.694,0,0,0,
,-0.621,-0.607,0.598,-11.231,81.42,-101.99,0,0,0,
,-0.599,-0.639,0.63,-16.907,78.552,-99.183,0,0,0,
,-0.593,-0.654,0.636,-22.095,15.808,-112.61,0,0,0,
,-0.625,-0.655,0.605,14.77,19.531,-116.944,0,0,0,
,-0.618,-0.693,0.563,-34.546,38.208,-118.592,0,0,0,
,-0.626,-0.623,0.555,-106.995,67.26,-119.019,0,0,0,
,-0.626,-0.606,0.594,-156.8,93.322,-116.517,0,0,0,
,-0.656,-0.593,0.615,-172.303,106.872,-115.845,0,0,0,
,-0.619,-0.599,0.634,-131.775,115.173,-116.578,0,0,0,
,-0.613,-0.592,0.656,-142.884,124.267,-106.385,0,0,0,
,-0.602,-0.572,0.647,-153.26,131.164,-99.915,0,0,0,
,-0.6,-0.542,0.629,-155.518,132.324,-93.323,0,0,0,
,-0.574,-0.515,0.639,-148.987,135.62,-85.267,0,0,0,
,-0.575,-0.546,0.658,-158.509,132.812,-73.548,0,0,0,
,-0.568,-0.516,0.65,-180.909,131.164,-65.552,0,0,0,
,-0.575,-0.5,0.644,-177.796,130.005,-51.453,0,0,0,
,-0.569,-0.49,0.621,-147.767,126.22,-55.603,0,0,0,
,-0.558,-0.529,0.636,-140.198,123.169,-39.307,0,0,0,
,-0.555,-0.501,0.671,-158.936,123.535,-33.448,0,0,0,
,-0.564,-0.508,0.692,-165.284,119.018,-30.884,0,0,0,
,-0.574,-0.531,0.677,-179.444,116.027,-27.894,0,0,0,
,-0.576,-0.536,0.686,-205.384,123.23,-29.786,0,0,0,
,-0.565,-0.531,0.693,-240.906,125.671,-40.589,0,0,0,
,-0.573,-0.552,0.718,-300.477,129.821,-38.88,0,0,0,
,-0.568,-0.49,0.74,-331.36,133.117,-43.274,0,0,0,
,-0.569,-0.469,0.764,-271.729,128.173,-46.265,0,0,0,
,-0.585,-0.497,0.76,-286.255,122.375,-43.274,0,0,0,
,-0.574,-0.507,0.753,-357.178,130.188,-56.458,0,0,0,
,-0.575,-0.501,0.75,-412.842,130.737,-61.829,0,0,0,
,-0.573,-0.486,0.798,-403.748,133.728,-66.651,0,0,0,
,-0.558,-0.414,0.81,-347.229,128.357,-77.149,0,0,0,
,-0.567,-0.439,0.826,-535.279,140.808,-85.572,0,0,0,
,-0.548,-0.355,0.838,-512.33,131.713,-98.206,0,0,0,
,-0.561,-0.385,0.837,-448.853,120.849,-105.469,0,0,0,
,-0.557,-0.348,0.865,-473.572,109.924,-109.559,0,0,0,
,-0.549,-0.313,0.842,-519.41,114.441,-114.258,0,0,0,
,-0.539,-0.303,0.842,-512.085,115.783,-120.24,0,0,0,
,-0.519,-0.283,0.865,-465.271,119.262,-132.996,0,0,0,
,-0.521,-0.28,0.815,-434.937,123.047,-128.418,0,0,0,
,-0.528,-0.302,0.832,-459.778,125.671,-133.24,0,0,0,
,-0.504,-0.291,0.859,-506.165,128.906,-141.541,0,0,0,
,-0.509,-0.248,0.853,-534.302,129.15,-146.851,0,0,0,
,-0.508,-0.197,0.826,-487.488,129.211,-149.109,0,0,0,
,-0.495,-0.173,0.849,-480.652,123.291,-137.879,0,0,0,
,-0.484,-0.16,0.866,-532.166,127.502,-126.343,0,0,0,
,-0.476,-0.107,0.916,-576.111,129.089,-110.047,0,0,0,
,-0.484,-0.145,0.844,-630.677,133.361,-101.746,0,0,0,
,-0.497,-0.132,0.84,-613.282,137.817,-107.972,0,0,0,
,-0.498,-0.049,0.893,-500.55,119.873,-113.465,0,0,0,
,-0.474,-0.026,0.877,-373.047,96.923,-102.601,0,0,0,
,-0.481,-0.047,0.916,-347.901,85.632,-98.572,0,0,0,
,-0.465,-0.057,0.892,-382.142,89.416,-104.248,0,0,0,
,-0.442,0,0.897,-426.453,97.351,-100.403,0,0,0,
,-0.447,0.027,0.894,-438.05,94.177,-97.535,0,0,0,
,-0.455,0.013,0.892,-460.511,96.069,-82.215,0,0,0,
,-0.449,0.002,0.922,-484.314,99.853,-75.745,0,0,0,
,-0.453,0.053,0.887,-460.877,95.581,-73.243,0,0,0,
,-0.442,0.088,0.881,-380.249,92.956,-79.529,0,0,0,
,-0.439,0.067,0.908,-347.901,82.641,-81.788,0,0,0,
,-0.428,0.072,0.919,-383.24,85.205,-76.172,0,0,0,
,-0.432,0.088,0.887,-435.914,79.956,-72.876,0,0,0,
,-0.439,0.08,0.911,-486.817,75.134,-62.073,0,0,0,
,-0.433,0.154,0.846,-454.712,74.218,-72.083,0,0,0,
,-0.425,0.252,0.884,-304.932,54.138,-78.736,0,0,0,
,-0.408,0.231,0.896,-163.941,42.724,-66.346,0,0,0,
,-0.432,0.167,0.887,-178.345,46.569,-62.806,0,0,0,
,-0.46,0.17,0.855,-246.399,62.561,-53.589,0,0,0,
,-0.45,0.189,0.837,-298.157,75.073,-53.223,0,0,0,
,-0.46,0.251,0.796,-339.905,83.923,-51.026,0,0,0,
,-0.418,0.215,0.891,-333.802,89.294,-52.796,0,0,0,
,-0.41,0.247,0.884,-359.314,88.073,-55.054,0,0,0,
,-0.431,0.277,0.894,-288.208,71.655,-64.27,0,0,0,
,-0.429,0.276,0.882,-209.595,58.715,-65.308,0,0,0,
,-0.425,0.264,0.86,-169.495,54.138,-64.942,0,0,0,
,-0.449,0.276,0.828,-186.158,55.053,-72.022,0,0,0,
,-0.423,0.262,0.865,-200.745,59.448,-82.215,0,0,0,
,-0.4,0.353,0.854,-182.007,64.148,-72.449,0,0,0,
,-0.436,0.299,0.82,-234.07,60.974,-74.524,0,0,0,
,-0.401,0.267,0.858,-284.913,74.829,-70.435,0,0,0,
,-0.391,0.315,0.857,-323.731,68.176,-70.435,0,0,0,
,-0.394,0.346,0.883,-282.654,63.598,-70.313,0,0,0,
,-0.39,0.315,0.888,-220.765,41.381,-82.276,0,0,0,
,-0.394,0.342,0.851,-185.364,31.677,-80.14,0,0,0,
,-0.417,0.367,0.831,-157.166,21.301,-84.534,0,0,0,
,-0.404,0.343,0.809,-166.626,27.343,-81.543,0,0,0,
,-0.41,0.314,0.791,-277.1,42.48,-80.872,0,0,0,
,-0.377,0.39,0.844,-333.313,57.312,-67.139,0,0,0,
,-0.372,0.454,0.877,-293.702,48.278,-61.707,0,0,0,
,-0.403,0.414,0.883,-199.891,34.301,-56.641,0,0,0,
,-0.422,0.377,0.845,-183.289,22.216,-58.655,0,0,0,
,-0.399,0.383,0.843,-166.016,16.418,-60.73,0,0,0,
,-0.403,0.409,0.791,-186.646,19.47,-69.642,0,0,0,
,-0.401,0.421,0.802,-170.716,32.714,-67.505,0,0,0,
,-0.408,0.482,0.817,-61.585,27.954,-69.214,0,0,0,
,-0.417,0.463,0.828,26.977,21.911,-57.984,0,0,0,
,-0.4,0.418,0.815,35.095,22.216,-49.866,0,0,0,
,-0.385,0.417,0.772,-11.658,30.334,-54.505,0,0,0,
,-0.372,0.439,0.77,-54.444,45.715,-47.303,0,0,0,
,-0.355,0.439,0.77,-96.924,48.4,-49.5,0,0,0,
,-0.344,0.412,0.815,-73.182,47.973,-37.11,0,0,0,
,-0.36,0.405,0.813,-79.285,34.484,-36.316,0,0,0,
,-0.367,0.416,0.817,-94.666,32.043,-30.03,0,0,0,
,-0.376,0.415,0.827,-117.127,22.338,-41.199,0,0,0,
,-0.386,0.429,0.776,-161.683,20.874,-31.983,0,0,0,
,-0.384,0.386,0.83,-212.464,15.564,-40.039,0,0,0,
,-0.369,0.451,0.844,-219.3,9.338,-43.641,0,0,0,
,-0.385,0.488,0.862,-165.284,-5.799,-40.039,0,0,0,
,-0.381,0.49,0.828,-115.052,-15.686,-36.927,0,0,0,
,-0.399,0.481,0.778,-91.614,-15.015,-35.523,0,0,0,
,-0.401,0.459,0.749,-84.412,0.488,-32.898,0,0,0,
,-0.386,0.478,0.772,-78.797,19.104,-33.448,0,0,0,
,-0.378,0.498,0.783,-28.382,28.991,-27.894,0,0,0,
,-0.377,0.488,0.818,9.216,25.024,-24.17,0,0,0,
,-0.379,0.524,0.786,52.856,31.494,-7.935,0,0,0,
,-0.382,0.515,0.764,60.852,34.912,-10.926,0,0,0,
,-0.363,0.461,0.757,75.5,31.982,-6.409,0,0,0,
,-0.35,0.468,0.765,59.57,41.626,1.892,0,0,0,
,-0.359,0.472,0.768,30.761,39.917,7.568,0,0,0,
,-0.363,0.476,0.727,54.382,39.001,16.662,0,0,0,
,-0.376,0.455,0.749,77.636,31.738,20.324,0,0,0,
,-0.349,0.458,0.77,84.106,31.066,21.301,0,0,0,
,-0.347,0.424,0.791,57.067,23.803,15.075,0,0,0,
,-0.336,0.452,0.807,57.19,15.686,20.752,0,0,0,
,-0.349,0.444,0.793,67.26,1.464,25.024,0,0,0,
,-0.373,0.43,0.773,73.486,-6.836,33.142,0,0,0,
,-0.372,0.431,0.779,82.885,-12.207,40.527,0,0,0,
,-0.373,0.448,0.775,111.084,-7.813,46.081,0,0,0,
,-0.381,0.458,0.759,131.897,-8.667,45.959,0,0,0,
,-0.377,0.418,0.78,131.469,-8.606,58.837,0,0,0,
,-0.376,0.436,0.761,131.775,-8.179,68.298,0,0,0,
,-0.376,0.433,0.793,186.218,-11.536,75.683,0,0,0,
,-0.363,0.385,0.799,249.206,-18.006,79.284,0,0,0,
,-0.381,0.396,0.785,305.481,-24.292,83.19,0,0,0,
,-0.383,0.379,0.785,358.703,-27.405,96.801,0,0,0,
,-0.383,0.356,0.802,363.525,-20.63,107.91,0,0,0,
,-0.379,0.366,0.819,388.427,-20.02,116.272,0,0,0,
,-0.372,0.36,0.825,445.007,-22.767,125.915,0,0,0,
,-0.374,0.314,0.841,470.214,-33.204,135.864,0,0,0,
,-0.392,0.296,0.808,483.459,-33.936,148.62,0,0,0,
,-0.411,0.261,0.838,534.668,-44.739,143.676,0,0,0,
,-0.416,0.245,0.859,617.614,-42.481,148.62,0,0,0,
,-0.444,0.168,0.895,610.107,-48.34,133.3,0,0,0,
,-0.446,0.182,0.865,593.017,-37.171,130.981,0,0,0,
,-0.459,0.136,0.872,558.288,-40.772,116.577,0,0,0,
,-0.441,0.111,0.889,546.447,-33.204,119.567,0,0,0,
,-0.457,0.131,0.902,575.134,-32.654,115.844,0,0,0,
,-0.449,0.093,0.924,596.252,-39.49,113.769,0,0,0,
,-0.456,-0.009,0.955,550.109,-40.772,109.375,0,0,0,
,-0.471,-0.003,0.952,499.939,-38.758,100.28,0,0,0,
,-0.472,-0.005,0.917,461.853,-42.786,89.721,0,0,0,
,-0.45,-0.011,0.953,473.693,-51.575,88.317,0,0,0,
,-0.441,-0.005,0.922,500.183,-63.233,81.42,0,0,0,
,-0.468,-0.067,0.948,484.924,-68.238,81.543,0,0,0,
,-0.465,-0.089,0.953,431.823,-69.947,77.209,0,0,0,
,-0.478,-0.085,0.912,379.089,-70.923,79.284,0,0,0,
,-0.447,-0.112,0.908,390.136,-77.576,86.425,0,0,0,
,-0.426,-0.127,0.903,455.871,-82.459,80.688,0,0,0,
,-0.453,-0.163,0.887,530.334,-88.074,93.017,0,0,0,
,-0.464,-0.152,0.9,521.728,-80.567,104.431,0,0,0,
,-0.46,-0.142,0.883,512.573,-73.487,115.966,0,0,0,
,-0.483,-0.147,0.849,560.302,-70.313,128.418,0,0,0,
,-0.507,-0.197,0.814,625.244,-67.872,147.033,0,0,0,
,-0.502,-0.24,0.823,670.227,-71.412,160.095,0,0,0,
,-0.491,-0.293,0.831,694.275,-74.219,164.428,0,0,0,
,-0.485,-0.328,0.827,668.396,-71.534,167.053,0,0,0,
,-0.494,-0.32,0.802,627.868,-65.247,164.611,0,0,0,
,-0.491,-0.339,0.808,606.994,-65.125,165.527,0,0,0,
,-0.477,-0.364,0.776,600.586,-74.402,162.231,0,0,0,
,-0.476,-0.398,0.78,578.125,-86.121,163.818,0,0,0,
,-0.479,-0.436,0.795,553.161,-96.253,160.949,0,0,0,
,-0.496,-0.43,0.755,542.541,-107.789,148.62,0,0,0,
,-0.51,-0.469,0.731,545.41,-121.521,140.747,0,0,0,
,-0.502,-0.537,0.739,524.17,-130.31,137.024,0,0,0,
,-0.479,-0.549,0.752,513.672,-140.32,119.812,0,0,0,
,-0.498,-0.562,0.703,520.08,-150.147,112.304,0,0,0,
,-0.51,-0.614,0.711,485.412,-145.447,105.529,0,0,0,
,-0.513,-0.64,0.697,396.24,-139.71,98.632,0,0,0,
,-0.512,-0.661,0.683,324.035,-136.292,93.078,0,0,0,
,-0.506,-0.699,0.64,264.221,-136.353,82.031,0,0,0,
,-0.501,-0.745,0.695,259.216,-142.884,60.302,0,0,0,
,-0.524,-0.705,0.687,246.276,-141.114,40.344,0,0,0,
,-0.555,-0.696,0.692,247.375,-135.56,36.071,0,0,0,
,-0.554,-0.668,0.682,236.877,-122.315,35.217,0,0,0,
,-0.565,-0.699,0.687,223.877,-104.554,40.954,0,0,0,
,-0.57,-0.721,0.665,255.127,-94.361,31.005,0,0,0,
,-0.579,-0.74,0.638,279.907,-79.773,30.212,0,0,0,
,-0.558,-0.737,0.643,272.522,-72.449,19.897,0,0,0,
,-0.549,-0.73,0.613,246.521,-60.547,14.526,0,0,0,
,-0.542,-0.75,0.612,190.857,-43.641,12.512,0,0,0,
,-0.535,-0.783,0.628,118.103,-23.377,13.977,0,0,0,
,-0.539,-0.778,0.617,51.025,-10.987,3.112,0,0,0,
,-0.558,-0.748,0.63,16.357,-4.944,-0.245,0,0,0,
,-0.55,-0.736,0.639,20.385,-6.714,-0.123,0,0,0,
,-0.547,-0.677,0.619,-2.625,0.244,-0.123,0,0,0,
,-0.525,-0.707,0.618,-11.048,4.455,8.667,0,0,0,
,-0.525,-0.69,0.611,-40.467,9.704,13.855,0,0,0,
,-0.523,-0.68,0.579,-20.447,10.131,19.714,0,0,0,
,-0.508,-0.692,0.603,11.962,7.568,26.306,0,0,0,
,-0.497,-0.699,0.615,1.892,2.014,32.714,0,0,0,
,-0.498,-0.688,0.604,-29.602,1.342,32.409,0,0,0,
,-0.498,-0.678,0.59,-61.646,-10.682,33.447,0,0,0,
,-0.502,-0.661,0.556,-59.571,-18.738,35.522,0,0,0,
,-0.5,-0.65,0.551,-48.096,-22.583,45.654,0,0,0,
,-0.485,-0.622,0.556,-19.593,-28.931,47.241,0,0,0,
,-0.49,-0.657,0.54,-7.447,-33.57,51.452,0,0,0,
,-0.492,-0.65,0.561,-27.649,-37.903,54.748,0,0,0,
,-0.493,-0.655,0.561,-33.692,-39.246,62.866,0,0,0,
,-0.501,-0.657,0.55,-9.034,-43.335,63.171,0,0,0,
,-0.492,-0.66,0.547,-7.447,-44.983,67.443,0,0,0,
,-0.489,-0.664,0.533,7.873,-47.73,66.65,0,0,0,
,-0.492,-0.685,0.547,2.563,-51.697,81.543,0,0,0,
,-0.491,-0.677,0.549,-12.696,-40.467,88.806,0,0,0,
,-0.483,-0.671,0.545,36.804,-35.035,90.82,0,0,0,
,-0.466,-0.72,0.546,91.613,-29.908,94.177,0,0,0,
,-0.455,-0.747,0.579,72.204,-21.18,102.478,0,0,0,
,-0.445,-0.742,0.554,47.424,-22.644,97.961,0,0,0,
,-0.449,-0.741,0.543,24.597,-26.429,101.257,0,0,0,
,-0.447,-0.73,0.507,18.981,-27.039,93.139,0,0,0,
,-0.442,-0.747,0.496,39.672,-28.26,95.703,0,0,0,
,-0.415,-0.784,0.53,39.001,-42.298,89.294,0,0,0,
,-0.404,-0.755,0.566,-22.4,-47.364,85.754,0,0,0,
,-0.426,-0.682,0.538,-77.393,-58.228,88.745,0,0,0,
,-0.453,-0.631,0.482,-71.656,-59.082,96.069,0,0,0,
,-0.434,-0.65,0.492,-55.664,-45.533,118.774,0,0,0,
,-0.421,-0.678,0.529,-54.627,-39.124,136.963,0,0,0,
,-0.421,-0.663,0.552,-20.935,-46.631,132.873,0,0,0,
,-0.445,-0.639,0.516,32.409,-49.866,153.991,0,0,0,
,-0.458,-0.623,0.475,61.828,-46.448,178.833,0,0,0,
,-0.431,-0.641,0.472,103.759,-38.086,206.298,0,0,0,
,-0.393,-0.67,0.506,84.228,-25.818,229.187,0,0,0,
,-0.373,-0.682,0.474,68.42,-27.222,227.661,0,0,0,
,-0.338,-0.697,0.528,84.655,-52.552,231.567,0,0,0,
,-0.301,-0.749,0.554,95.886,-84.229,236.755,0,0,0,
,-0.331,-0.77,0.49,123.718,-110.779,227.966,0,0,0,
,-0.341,-0.844,0.507,141.357,-123.352,221.923,0,0,0,
,-0.336,-0.806,0.496,100.341,-123.902,223.205,0,0,0,
,-0.359,-0.751,0.408,57.312,-115.723,233.154,0,0,0,
,-0.365,-0.743,0.416,44.616,-107.422,242.736,0,0,0,
,-0.336,-0.793,0.453,35.888,-96.619,260.742,0,0,0,
,-0.305,-0.853,0.498,-9.522,-92.591,267.273,0,0,0,
,-0.294,-0.821,0.519,-28.809,-109.803,251.953,0,0,0,
,-0.302,-0.777,0.466,25.024,-124.085,254.821,0,0,0,
,-0.333,-0.787,0.419,118.469,-125.061,264.526,0,0,0,
,-0.317,-0.811,0.426,147.216,-120.179,288.574,0,0,0,
,-0.286,-0.903,0.423,166.992,-118.775,293.762,0,0,0,
,-0.27,-0.941,0.406,232.727,-119.08,277.771,0,0,0,
,-0.268,-0.98,0.406,259.155,-94.91,265.503,0,0,0,
,-0.263,-0.941,0.435,196.106,-96.07,268.982,0,0,0,
,-0.298,-0.875,0.336,-7.203,-66.285,269.409,0,0,0,
,-0.283,-0.953,0.376,-192.261,-40.772,271.545,0,0,0,
,-0.213,-0.97,0.433,-139.954,-35.279,248.352,0,0,0,
,-0.235,-0.909,0.421,-3.968,-38.575,231.079,0,0,0,
,-0.231,-0.871,0.454,84.411,-36.377,229.431,0,0,0,
,-0.23,-0.842,0.425,47.912,-38.758,229.858,0,0,0,
,-0.206,-0.888,0.39,-27.344,-36.255,241.333,0,0,0,
,-0.189,-0.92,0.393,19.287,-41.077,237.976,0,0,0,
,-0.201,-0.891,0.399,179.443,-50.354,238.891,0,0,0,
,-0.205,-0.886,0.389,331.787,-58.411,236.267,0,0,0,
,-0.219,-0.94,0.383,296.753,-56.275,265.808,0,0,0,
,-0.155,-1.01,0.427,115.356,-37.171,296.569,0,0,0,
,-0.083,-1.136,0.425,-7.447,-33.814,286.987,0,0,0,
,-0.088,-1.091,0.358,189.819,-41.443,235.473,0,0,0,
,-0.135,-1.003,0.356,376.526,-41.382,235.534,0,0,0,
,-0.122,-1.019,0.413,367.431,-31.373,252.685,0,0,0,
,-0.139,-1.073,0.377,237.732,-13.855,249.206,0,0,0,
,-0.13,-1.137,0.401,115.417,3.234,239.746,0,0,0,
,-0.111,-1.112,0.43,95.153,10.192,215.271,0,0,0,
,-0.109,-1.041,0.401,204.589,1.22,201.172,0,0,0,
,-0.117,-1.056,0.411,249.755,-4.7,198.425,0,0,0,
,-0.106,-1.053,0.385,63.659,6.774,191.772,0,0,0,
,-0.09,-1.082,0.382,-199.341,17.395,186.279,0,0,0,
,-0.078,-1.062,0.344,-340.76,28.32,159.484,0,0,0,
,-0.084,-0.956,0.261,-190.674,21.911,131.775,0,0,0,
,-0.1,-0.923,0.274,13.916,9.46,130.92,0,0,0,
,-0.066,-0.952,0.279,115.966,10.376,121.032,0,0,0,
,-0.035,-0.957,0.121,139.892,19.775,110.351,0,0,0,
,0.002,-1.134,0.275,561.279,15.075,4.15,0,0,0,
,-0.225,-1.303,0.165,347.107,-35.645,-18.616,0,0,0,
,-0.119,-1.222,0.282,54.199,-12.696,-54.566,0,0,0,
,-0.085,-0.984,0.322,-86.243,-17.151,-48.951,0,0,0,
,-0.083,-0.938,0.35,-117.188,-15.32,-45.899,0,0,0,
,-0.001,-0.962,0.38,-144.043,-22.583,-35.767,0,0,0,
,-0.087,-0.935,0.286,-38.086,-6.592,-23.743,0,0,0,
,-0.093,-0.921,0.211,9.582,21.85,-8.24,0,0,0,
,0.028,-0.98,0.326,54.687,10.803,-4.883,0,0,0,
,-0.053,-0.954,0.344,117.675,9.948,-7.813,0,0,0,
,-0.046,-1.029,0.301,71.228,38.757,-13.916,0,0,0,
,-0.049,-1.002,0.299,-16.785,53.1,-4.883,0,0,0,
,-0.062,-1.02,0.287,-65.369,45.776,-4.761,0,0,0,
,-0.072,-0.997,0.249,-87.159,48.828,-14.71,0,0,0,
,-0.046,-1.019,0.279,-106.995,48.034,-23.316,0,0,0,
,-0.015,-1.011,0.292,-116.883,49.865,-20.386,0,0,0,
,-0.031,-0.95,0.269,-123.475,53.283,-13.55,0,0,0,
,-0.067,-0.908,0.33,11.535,23.498,-21.668,0,0,0,
,0.007,-1.05,0.34,47.119,6.958,-28.809,0,0,0,
,-0.058,-0.982,0.288,-36.011,-3.113,-28.87,0,0,0,
,-0.021,-0.914,0.267,-54.505,-11.292,-22.583,0,0,0,
,-0.009,-0.953,0.271,-30.823,-21.363,-14.283,0,0,0,
,-0.027,-0.991,0.3,-26.734,-17.273,-6.775,0,0,0,
,-0.008,-1.013,0.328,-48.096,-12.085,8.606,0,0,0,
,-0.002,-1.065,0.349,-87.586,-10.132,34.057,0,0,0,
,0.003,-1.079,0.345,-95.337,-4.7,41.565,0,0,0,
,-0.005,-1.069,0.321,-135.437,-7.019,41.076,0,0,0,
,-0.006,-1.072,0.307,-193.238,3.479,27.771,0,0,0,
,0,-1.061,0.311,-270.142,16.479,12.146,0,0,0,
,0.006,-1.003,0.322,-341.065,28.076,5.188,0,0,0,
,0.03,-0.96,0.366,-336.731,24.963,3.295,0,0,0,
,0.05,-0.936,0.453,-204.59,10.437,-0.428,0,0,0,
,0.072,-0.966,0.439,-175.171,0.671,13.427,0,0,0,
,0.049,-0.946,0.41,-291.26,3.845,72.265,0,0,0,
,0.029,-0.839,0.388,-295.35,-1.16,75.134,0,0,0,
,0.051,-0.816,0.427,-170.899,-30.091,66.955,0,0,0,
,0.066,-0.883,0.478,-158.753,-43.396,90.026,0,0,0,
,0.034,-0.95,0.507,-242.371,-58.777,100.647,0,0,0,
,0.053,-0.986,0.506,-409.424,-65.796,128.601,0,0,0,
,0.034,-0.953,0.505,-558.899,-72.754,159.851,0,0,0,
,0.028,-0.883,0.478,-597.84,-82.276,177.978,0,0,0,
,0.021,-0.814,0.461,-537.659,-97.413,177.612,0,0,0,
,0.019,-0.809,0.491,-471.802,-110.169,194.275,0,0,0,
,0.016,-0.821,0.526,-471.009,-123.23,207.031,0,0,0,
,0.022,-0.871,0.55,-559.266,-131.043,223.51,0,0,0,
,0.022,-0.913,0.532,-800.721,-136.353,237.793,0,0,0,
,0,-0.918,0.546,-1166.199,-118.103,286.682,0,0,0,
,-0.016,-0.809,0.561,-1426.575,-80.079,307.739,0,0,0,
,0.003,-0.681,0.584,-1608.765,-40.406,342.834,0,0,0,
,0.016,-0.594,0.614,-1636.78,-9.156,369.201,0,0,0,
,0.046,-0.519,0.658,-1543.824,13,367.004,0,0,0,
,0.074,-0.499,0.7,-1426.209,26.428,360.717,0,0,0,
,0.094,-0.474,0.754,-1353.455,32.531,375.976,0,0,0,
,0.093,-0.426,0.804,-1331.604,56.457,401.367,0,0,0,
,0.105,-0.403,0.849,-1320.069,83.252,397.644,0,0,0,
,0.106,-0.35,0.813,-1255.982,134.887,389.831,0,0,0,
,0.14,-0.281,0.885,-1098.206,167.541,349.06,0,0,0,
,0.183,-0.247,0.928,-747.803,152.71,296.325,0,0,0,
,0.208,-0.339,0.954,-394.104,87.219,257.08,0,0,0,
,0.177,-0.405,1,-113.709,47.973,231.689,0,0,0,
,0.128,-0.399,1.073,150.207,52.307,213.44,0,0,0,
,0.162,-0.317,1.088,498.108,23.01,144.653,0,0,0,
,0.225,-0.454,1.053,702.453,-91.553,119.506,0,0,0,
,0.151,-0.522,1.073,604.187,-212.525,120.422,0,0,0,
,0.116,-0.811,0.969,235.107,-228.089,35.461,0,0,0,
,0.015,-0.583,0.95,-228.821,-55.726,70.556,0,0,0,
,0.067,-0.37,0.865,-332.642,58.898,29.174,0,0,0,
,0.198,-0.261,0.842,-153.931,5.981,37.231,0,0,0,
,0.183,-0.275,0.875,37.048,-91.126,24.902,0,0,0,
,0.124,-0.357,0.94,78.308,-128.846,25.39,0,0,0,
,0.1,-0.449,0.956,-25.452,-91.065,35.217,0,0,0,
,0.091,-0.41,0.942,-135.926,-62.806,34.851,0,0,0,
,0.096,-0.347,0.937,-124.024,-47.425,28.381,0,0,0,
,0.12,-0.303,0.916,-55.115,-69.275,44.86,0,0,0,
,0.114,-0.312,0.905,11.474,-93.079,33.508,0,0,0,
,0.109,-0.365,0.927,37.414,-105.103,33.63,0,0,0,
,0.103,-0.386,0.969,2.563,-102.173,32.775,0,0,0,
,0.122,-0.403,1.004,-31.8,-117.676,24.475,0,0,0,
,0.082,-0.346,0.955,-42.725,-98.389,29.602,0,0,0,
,0.07,-0.286,0.907,8.544,-99.976,36.926,0,0,0,
,0.075,-0.297,0.935,62.133,-137.574,26.001,0,0,0,
,0.067,-0.313,0.963,58.41,-162.232,26.367,0,0,0,
,0.05,-0.283,0.968,10.07,-157.776,38.574,0,0,0,
,0.057,-0.254,0.951,-4.639,-151.734,52.124,0,0,0,
,0.096,-0.279,0.933,78.735,-188.965,44.677,0,0,0,
,0.109,-0.336,0.93,157.837,-221.192,40.832,0,0,0,
,0.099,-0.379,0.973,154.663,-244.385,42.724,0,0,0,
,0.075,-0.371,0.966,127.746,-225.403,56.152,0,0,0,
,0.076,-0.362,0.957,121.704,-229.31,59.936,0,0,0,
,0.058,-0.38,0.947,130.92,-250.306,58.41,0,0,0,
,0.018,-0.404,0.971,110.717,-259.461,48.95,0,0,0,
,0.004,-0.397,0.963,70.556,-216.431,47.363,0,0,0,
,0.021,-0.381,0.975,24.475,-183.594,47.302,0,0,0,
,0.014,-0.375,0.963,30.456,-170.227,46.447,0,0,0,
,0,-0.387,0.989,25.634,-159.485,39.55,0,0,0,
,-0.028,-0.387,0.979,4.455,-122.193,34.668,0,0,0,
,-0.043,-0.353,0.985,-10.437,-83.252,27.832,0,0,0,
,-0.025,-0.351,0.965,-1.465,-56.092,17.395,0,0,0,
,0.002,-0.376,0.956,20.019,-37.903,10.07,0,0,0,
,0.005,-0.401,0.956,11.474,-19.593,-5.921,0,0,0,
,-0.01,-0.412,0.954,-5.494,8.972,-21.79,0,0,0,
,-0.028,-0.359,0.963,-39.063,92.834,-48.768,0,0,0,
,0.009,-0.362,0.956,-17.945,96.313,-50.66,0,0,0,
,0.012,-0.382,0.945,-4.151,93.627,-54.078,0,0,0,
,0.017,-0.403,0.946,-4.944,93.017,-58.96,0,0,0,
,0.003,-0.405,0.937,-19.288,96.435,-55.603,0,0,0,
,0.003,-0.393,0.936,-28.016,98.083,-54.749,0,0,0,
,0.016,-0.388,0.937,-21.912,88.745,-48.096,0,0,0,
,0.027,-0.396,0.931,-8.789,74.829,-48.829,0,0,0,
,0.038,-0.399,0.934,-14.832,65.002,-43.396,0,0,0,
,0.035,-0.391,0.931,-21.119,54.565,-35.828,0,0,0,
,0.033,-0.381,0.937,-19.654,39.123,-32.044,0,0,0,
,0.026,-0.381,0.939,-14.71,26.55,-31.8,0,0,0,
,0.026,-0.386,0.968,-5.494,23.315,-28.992,0,0,0,
,0.026,-0.389,0.938,-6.836,16.113,-32.166,0,0,0,
,0.021,-0.391,0.946,-12.757,13.916,-32.654,0,0,0,
,0.012,-0.389,0.949,-19.043,19.409,-33.936,0,0,0,
,0.015,-0.389,0.956,-22.95,32.409,-38.025,0,0,0,
,0.025,-0.385,0.962,-23.133,43.518,-40.039,0,0,0,
,0.029,-0.374,0.961,52.612,69.641,-48.584,0,0,0,
,0.024,-0.396,0.98,74.585,64.819,-56.824,0,0,0,
,0.002,-0.411,1.046,84.167,66.711,-73.06,0,0,0,
,-0.013,-0.422,1.017,108.215,103.332,-79.163,0,0,0,
,0.012,-0.402,1.003,341.43,115.783,-114.075,0,0,0,
,0.038,-0.474,1.025,642.822,91.735,-179.444,0,0,0,
,0.003,-0.763,0.882,1544.799,-22.706,-320.13,0,0,0,
,-0.074,-0.739,0.748,1644.043,-31.006,-326.05,0,0,0,
,-0.069,-0.849,0.693,1544.128,10.437,-369.812,0,0,0,
,-0.083,-0.877,0.636,1342.956,49.743,-386.658,0,0,0,
,-0.082,-0.768,0.565,1233.642,96.984,-368.897,0,0,0,
,-0.131,-0.832,0.523,1366.821,91.919,-422.608,0,0,0,
,-0.163,-1.03,0.514,1085.632,131.775,-418.519,0,0,0,
,-0.157,-1.137,0.5,593.078,199.279,-415.406,0,0,0,
,-0.149,-1.075,0.485,54.87,249.572,-395.997,0,0,0,
,-0.146,-0.894,0.498,-256.836,285.156,-374.817,0,0,0,
,-0.142,-0.702,0.49,-286.133,295.898,-359.559,0,0,0,
,-0.111,-0.58,0.486,-88.196,288.391,-338.257,0,0,0,
,-0.084,-0.544,0.479,168.396,269.531,-304.078,0,0,0,
,-0.062,-0.598,0.468,424.255,249.145,-271.241,0,0,0,
,-0.004,-0.689,0.417,533.142,246.032,-228.943,0,0,0,
,-0.011,-0.737,0.385,520.324,235.778,-191.895,0,0,0,
,0.013,-0.796,0.368,431.518,217.651,-157.654,0,0,0,
,0.031,-0.874,0.362,240.112,200.012,-113.526,0,0,0,
,0.042,-0.893,0.36,0.244,185.791,-74.341,0,0,0,
,0.047,-0.774,0.396,-145.325,164.917,-42.359,0,0,0,
,0.036,-0.687,0.414,-103.272,133.3,-32.349,0,0,0,
,0.04,-0.689,0.471,88.073,96.496,-34.668,0,0,0,
,0.03,-0.805,0.513,279.724,57.617,-34.363,0,0,0,
,-0.037,-0.929,0.421,405.883,19.226,-34.485,0,0,0,
,-0.036,-0.929,0.381,368.469,23.742,-27.039,0,0,0,
,-0.015,-0.974,0.36,292.663,34.179,-33.448,0,0,0,
,-0.011,-1,0.383,197.021,46.63,-39.063,0,0,0,
,-0.013,-1.045,0.411,70.373,57.006,-35.767,0,0,0,
,-0.028,-1.063,0.435,-74.28,55.419,-41.993,0,0,0,
,-0.02,-1.023,0.459,-195.557,47.241,-36.56,0,0,0,
,-0.006,-0.967,0.463,-191.346,54.138,-47.425,0,0,0,
,-0.013,-1.008,0.432,-84.351,15.808,-68.177,0,0,0,
,-0.065,-1.078,0.446,-131.348,17.517,-52.247,0,0,0,
,-0.12,-1.049,0.488,-283.143,38.147,-46.082,0,0,0,
,-0.077,-0.894,0.495,-354.004,51.391,-64.209,0,0,0,
,-0.106,-0.932,0.485,-213.074,38.269,-47.425,0,0,0,
,-0.126,-0.991,0.472,-193.543,37.231,-39.002,0,0,0,
,-0.106,-0.939,0.465,-291.138,65.002,-28.687,0,0,0,
,-0.062,-0.888,0.497,-297.059,71.106,-49.683,0,0,0,
,-0.038,-0.969,0.465,-219.971,52.612,-76.416,0,0,0,
,-0.087,-0.986,0.475,-186.951,41.687,-83.497,0,0,0,
,-0.107,-0.942,0.5,-230.347,56.762,-72.693,0,0,0,
,-0.084,-0.82,0.507,-268.738,73.181,-58.594,0,0,0,
,-0.047,-0.734,0.555,-133.362,39.856,-80.506,0,0,0,
,-0.019,-0.766,0.502,115.112,6.836,-97.535,0,0,0,
,-0.055,-0.901,0.45,301.086,-16.175,-117.676,0,0,0,
,-0.107,-0.9,0.428,343.2,4.943,-95.948,0,0,0,
,-0.096,-0.926,0.441,351.989,6.469,-91.187,0,0,0,
,-0.071,-0.864,0.481,287.048,10.559,-54.444,0,0,0,
,-0.059,-0.863,0.476,279.541,17.761,-71.228,0,0,0,
,-0.058,-0.933,0.452,321.838,1.586,-74.158,0,0,0,
,-0.05,-0.988,0.465,205.566,-14.405,-61.585,0,0,0,
,-0.088,-1.046,0.499,-34.974,-21.973,-62.5,0,0,0,
,-0.113,-0.936,0.548,-194.458,-10.987,-50.904,0,0,0,
,-0.097,-0.886,0.505,-174.866,-1.831,-47.425,0,0,0,
,-0.073,-0.874,0.475,-55.298,-20.752,-47.303,0,0,0,
,-0.079,-0.948,0.382,4.943,-15.076,-42.359,0,0,0,
,-0.097,-0.98,0.422,-25.452,-4.334,-27.649,0,0,0,
,-0.092,-0.961,0.491,-70.984,8.911,-32.288,0,0,0,
,-0.059,-0.922,0.471,-69.336,10.376,-31.983,0,0,0,
,-0.071,-0.904,0.462,-38.88,1.831,-36.255,0,0,0,
,-0.089,-0.893,0.443,35.766,10.62,-50.049,0,0,0,
,-0.075,-0.934,0.381,109.985,12.634,-39.49,0,0,0,
,-0.091,-0.973,0.455,74.768,21.911,-29.114,0,0,0,
,-0.074,-0.958,0.485,-0.184,37.048,-25.879,0,0,0,
,-0.07,-0.97,0.49,-85.938,26.428,-32.349,0,0,0,
,-0.101,-0.95,0.487,-104.676,27.526,-43.213,0,0,0,
,-0.089,-0.952,0.449,-52.552,27.648,-51.148,0,0,0,
,-0.118,-0.955,0.483,-39.551,25.39,-40.406,0,0,0,
,-0.1,-0.989,0.523,-54.688,45.471,-37.171,0,0,0,
,-0.094,-0.996,0.52,-82.947,47.973,-39.978,0,0,0,
,-0.116,-0.956,0.474,-83.13,54.077,-61.219,0,0,0,
,-0.111,-0.949,0.439,-25.147,55.786,-73.06,0,0,0,
,-0.09,-0.992,0.499,27.343,51.757,-79.834,0,0,0,
,-0.105,-0.966,0.542,55.053,50.659,-99.488,0,0,0,
,-0.13,-1.002,0.507,92.651,47.302,-120.545,0,0,0,
,-0.144,-1.037,0.538,79.773,47.058,-139.344,0,0,0,
,-0.161,-1.065,0.523,52.734,51.696,-173.523,0,0,0,
,-0.189,-1.078,0.545,-18.921,52.429,-196.289,0,0,0,
,-0.167,-1.057,0.585,-77.698,55.664,-226.136,0,0,0,
,-0.129,-1.046,0.535,-127.198,45.471,-245.362,0,0,0,
,-0.12,-1.025,0.523,-153.687,33.996,-257.142,0,0,0,
,-0.106,-1.011,0.495,-123.719,30.639,-260.071,0,0,0,
,-0.124,-0.967,0.482,-89.356,25.451,-277.161,0,0,0,
,-0.136,-0.973,0.487,-38.697,21.24,-289.429,0,0,0,
,-0.162,-0.926,0.484,-18.433,21.606,-296.387,0,0,0,
,-0.182,-0.921,0.492,-2.137,22.522,-291.687,0,0,0,
,-0.202,-0.893,0.443,47.973,30.334,-291.565,0,0,0,
,-0.222,-0.951,0.436,74.096,34.729,-298.279,0,0,0,
,-0.224,-0.972,0.421,73.12,52.612,-298.89,0,0,0,
,-0.233,-0.965,0.408,46.691,63.293,-308.228,0,0,0,
,-0.253,-0.895,0.408,43.823,78.613,-311.585,0,0,0,
,-0.242,-0.898,0.376,51.452,91.491,-314.026,0,0,0,
,-0.226,-0.931,0.395,35.339,102.783,-317.017,0,0,0,
,-0.216,-0.928,0.375,25.207,120.361,-324.952,0,0,0,
,-0.229,-0.912,0.355,3.723,119.751,-332.703,0,0,0,
,-0.244,-0.862,0.385,11.718,123.962,-337.891,0,0,0,
,-0.233,-0.842,0.358,-0.428,130.554,-339.966,0,0,0,
,-0.238,-0.885,0.343,-14.283,121.032,-346.436,0,0,0,
,-0.252,-0.851,0.312,22.766,114.257,-361.512,0,0,0,
,-0.268,-0.858,0.329,41.503,110.229,-358.948,0,0,0,
,-0.276,-0.864,0.364,71.594,113.525,-370.362,0,0,0,
,-0.286,-0.91,0.346,53.772,114.99,-381.348,0,0,0,
,-0.335,-0.851,0.399,16.662,156.189,-396.485,0,0,0,
,-0.348,-0.868,0.426,35.278,158.447,-394.776,0,0,0,
,-0.35,-0.886,0.436,25.512,170.349,-386.719,0,0,0,
,-0.353,-0.861,0.419,4.211,170.349,-394.104,0,0,0,
,-0.37,-0.848,0.416,7.629,176.147,-389.71,0,0,0,
,-0.376,-0.791,0.438,21.362,180.969,-385.621,0,0,0,
,-0.375,-0.787,0.379,24.475,193.969,-368.409,0,0,0,
,-0.387,-0.802,0.413,57.861,199.218,-360.108,0,0,0,
,-0.404,-0.803,0.398,57.617,210.144,-347.779,0,0,0,
,-0.41,-0.803,0.416,57.739,215.026,-335.755,0,0,0,
,-0.412,-0.774,0.402,43.762,224.487,-319.458,0,0,0,
,-0.403,-0.738,0.424,31.677,227.844,-310.608,0,0,0,
,-0.407,-0.703,0.424,-3.113,237.304,-265.748,0,0,0,
,-0.411,-0.717,0.434,-7.63,230.957,-251.893,0,0,0,
,-0.418,-0.733,0.458,-4.029,220.153,-249.695,0,0,0,
,-0.418,-0.69,0.454,-16.175,219.116,-232.666,0,0,0,
,-0.44,-0.689,0.422,-33.387,214.05,-221.314,0,0,0,
,-0.428,-0.688,0.478,-35.157,195.556,-206.36,0,0,0,
,-0.431,-0.69,0.473,-39.246,191.589,-198.853,0,0,0,
,-0.445,-0.73,0.49,-61.28,180.847,-193.726,0,0,0,
,-0.459,-0.717,0.472,-89.478,178.1,-191.285,0,0,0,
,-0.467,-0.714,0.49,-97.718,171.02,-189.942,0,0,0,
,-0.469,-0.691,0.528,-118.714,155.334,-184.144,0,0,0,
,-0.495,-0.716,0.537,-106.568,144.409,-171.448,0,0,0,
,-0.513,-0.721,0.567,-113.221,139.282,-166.932,0,0,0,
,-0.508,-0.702,0.579,-150.635,135.131,-158.875,0,0,0,
,-0.511,-0.695,0.597,-131.47,126.159,-165.101,0,0,0,
,-0.518,-0.686,0.612,-95.337,125.061,-154.419,0,0,0,
,-0.523,-0.698,0.608,-90.027,130.737,-145.02,0,0,0,
,-0.519,-0.745,0.606,-82.52,135.986,-138.245,0,0,0,
,-0.502,-0.729,0.634,-95.704,131.042,-136.231,0,0,0,
,-0.5,-0.714,0.639,-108.338,128.418,-140.137,0,0,0,
,-0.504,-0.755,0.63,-150.94,131.958,-135.682,0,0,0,
,-0.507,-0.761,0.644,-152.466,117.797,-157.288,0,0,0,
,-0.535,-0.686,0.68,-122.01,125.671,-154.908,0,0,0,
,-0.492,-0.638,0.666,-102.234,120.3,-123.414,0,0,0,
,-0.477,-0.658,0.696,-132.813,119.445,-124.329,0,0,0,
,-0.483,-0.703,0.687,-208.008,121.765,-105.103,0,0,0,
,-0.499,-0.679,0.688,-234.436,129.394,-98.511,0,0,0,
,-0.496,-0.657,0.701,-217.347,120.971,-83.741,0,0,0,
,-0.503,-0.709,0.693,-201.6,118.225,-75.684,0,0,0,
,-0.506,-0.723,0.665,-207.764,125.427,-79.346,0,0,0,
,-0.512,-0.714,0.693,-266.907,126.403,-71.778,0,0,0,
,-0.498,-0.681,0.721,-333.313,135.376,-72.449,0,0,0,
,-0.488,-0.683,0.737,-377.015,133.667,-78.003,0,0,0,
,-0.5,-0.648,0.714,-411.927,132.507,-87.22,0,0,0,
,-0.493,-0.622,0.721,-443.421,120.849,-94.361,0,0,0,
,-0.485,-0.548,0.7,-471.192,108.581,-91.858,0,0,0,
,-0.492,-0.542,0.685,-506.348,100.769,-97.229,0,0,0,
,-0.486,-0.508,0.713,-494.324,93.566,-109.131,0,0,0,
,-0.481,-0.425,0.718,-420.289,81.054,-110.047,0,0,0,
,-0.484,-0.404,0.696,-314.942,62.072,-115.052,0,0,0,
,-0.481,-0.448,0.699,-246.766,50.476,-112.549,0,0,0,
,-0.472,-0.482,0.699,-254.029,45.837,-124.451,0,0,0,
,-0.477,-0.478,0.731,-312.378,54.931,-133.24,0,0,0,
,-0.469,-0.505,0.764,-380.005,57.128,-139.1,0,0,0,
,-0.473,-0.493,0.775,-446.839,52.978,-147.095,0,0,0,
,-0.469,-0.518,0.792,-527.039,49.377,-149.598,0,0,0,
,-0.467,-0.431,0.794,-574.952,46.264,-157.105,0,0,0,
,-0.46,-0.38,0.804,-550.11,42.785,-155.518,0,0,0,
,-0.469,-0.341,0.84,-480.713,38.452,-150.574,0,0,0,
,-0.48,-0.364,0.836,-475.464,39.55,-136.841,0,0,0,
,-0.479,-0.35,0.847,-498.352,44.433,-127.381,0,0,0,
,-0.487,-0.395,0.85,-581.543,56.64,-121.705,0,0,0,
,-0.495,-0.386,0.881,-643.311,64.941,-124.695,0,0,0,
,-0.487,-0.308,0.916,-615.845,70.495,-117.005,0,0,0,
,-0.483,-0.258,0.932,-563.111,65.673,-112.977,0,0,0,
,-0.498,-0.241,0.911,-533.936,62.133,-99.854,0,0,0,
,-0.505,-0.237,0.915,-543.457,65.856,-91.37,0,0,0,
,-0.498,-0.241,0.897,-574.036,79.895,-87.037,0,0,0,
,-0.489,-0.191,0.904,-513.062,89.233,-95.398,0,0,0,
,-0.489,-0.166,0.925,-448.853,91.064,-93.201,0,0,0,
,-0.482,-0.158,0.92,-406.495,91.125,-91.98,0,0,0,
,-0.489,-0.182,0.89,-413.147,97.168,-96.558,0,0,0,
,-0.48,-0.177,0.891,-458.741,111.938,-94.91,0,0,0,
,-0.468,-0.16,0.924,-535.279,122.07,-99.366,0,0,0,
,-0.455,-0.065,0.921,-548.218,125.671,-106.202,0,0,0,
,-0.46,-0.05,0.916,-536.988,111.511,-102.539,0,0,0,
,-0.463,-0.026,0.873,-553.284,106.75,-93.811,0,0,0,
,-0.451,-0.036,0.887,-602.662,106.933,-89.966,0,0,0,
,-0.436,-0.011,0.875,-631.836,110.29,-96.436,0,0,0,
,-0.422,0.031,0.92,-609.131,95.153,-100.953,0,0,0,
,-0.421,0.118,0.882,-469.666,79.528,-93.384,0,0,0,
,-0.435,0.119,0.87,-369.324,53.222,-94.666,0,0,0,
,-0.423,0.055,0.893,-326.905,52.063,-80.628,0,0,0,
,-0.424,0.023,0.876,-415.284,58.471,-86.304,0,0,0,
,-0.426,0.08,0.874,-486.268,59.814,-87.037,0,0,0,
,-0.402,0.146,0.875,-445.74,51.513,-81.543,0,0,0,
,-0.412,0.177,0.887,-359.192,32.653,-78.919,0,0,0,
,-0.431,0.175,0.847,-319.458,27.954,-73.853,0,0,0,
,-0.421,0.125,0.892,-335.694,29.052,-63.294,0,0,0,
,-0.426,0.224,0.894,-451.355,33.63,-57.312,0,0,0,
,-0.397,0.143,0.853,-406.311,32.775,-84.412,0,0,0,
,-0.41,0.219,0.882,-290.284,15.319,-69.275,0,0,0,
,-0.443,0.188,0.874,-313.965,25.085,-60.73,0,0,0,
,-0.424,0.208,0.879,-324.463,26.489,-63.538,0,0,0,
,-0.435,0.2,0.861,-363.587,18.92,-64.515,0,0,0,
,-0.414,0.245,0.866,-364.319,20.874,-63.294,0,0,0,
,-0.42,0.294,0.844,-317.566,12.207,-66.224,0,0,0,
,-0.409,0.292,0.864,-234.559,4.577,-63.782,0,0,0,
,-0.41,0.28,0.85,-226.807,-2.137,-63.721,0,0,0,
,-0.404,0.241,0.877,-216.797,-9.888,-76.6,0,0,0,
,-0.422,0.341,0.817,-203.186,-12.33,-81.482,0,0,0,
,-0.43,0.369,0.79,-179.2,-24.353,-98.267,0,0,0,
,-0.431,0.344,0.803,-148.804,-21.302,-87.037,0,0,0,
,-0.44,0.35,0.82,-154.786,-15.076,-80.811,0,0,0,
,-0.444,0.394,0.838,-132.874,-4.273,-71.656,0,0,0,
,-0.438,0.383,0.847,-87.159,-5.616,-73.67,0,0,0,
,-0.443,0.362,0.86,-52.369,-2.747,-72.876,0,0,0,
,-0.444,0.33,0.852,-75.562,2.258,-77.515,0,0,0,
,-0.433,0.307,0.869,-99.366,7.019,-76.6,0,0,0,
,-0.425,0.339,0.878,-147.461,13.732,-76.6,0,0,0,
,-0.412,0.365,0.885,-112.732,-2.503,-79.59,0,0,0,
,-0.413,0.355,0.881,-71.839,-16.48,-67.078,0,0,0,
,-0.427,0.351,0.829,-91.126,-21.363,-47.364,0,0,0,
,-0.421,0.357,0.775,-104.187,-14.466,-60.364,0,0,0,
,-0.413,0.329,0.787,-114.563,-5.799,-55.848,0,0,0,
,-0.408,0.356,0.805,-131.775,11.962,-48.829,0,0,0,
,-0.405,0.369,0.8,-122.071,14.465,-45.289,0,0,0,
,-0.405,0.371,0.801,-86.792,7.324,-39.978,0,0,0,
,-0.401,0.346,0.807,-65.796,-2.808,-32.349,0,0,0,
,-0.412,0.375,0.779,-53.223,-0.733,-26.551,0,0,0,
,-0.409,0.397,0.766,-50.965,8.361,-20.386,0,0,0,
,-0.403,0.414,0.781,-22.4,7.934,-15.32,0,0,0,
,-0.414,0.427,0.772,9.826,7.08,-11.414,0,0,0,
,-0.409,0.408,0.794,39.917,11.596,6.286,0,0,0,
,-0.425,0.319,0.732,-4.334,30.029,1.403,0,0,0,
,-0.433,0.333,0.811,-114.258,31.066,14.465,0,0,0,
,-0.402,0.413,0.808,-115.052,36.377,11.291,0,0,0,
,-0.429,0.461,0.822,-14.527,13.183,2.624,0,0,0,
,-0.417,0.458,0.805,113.952,-3.357,23.071,0,0,0,
,-0.434,0.394,0.785,174.743,-20.569,15.502,0,0,0,
,-0.456,0.381,0.774,194.519,-21.363,22.399,0,0,0,
,-0.45,0.39,0.748,193.542,-14.1,26.245,0,0,0,
,-0.437,0.37,0.78,218.383,-5.005,34.118,0,0,0,
,-0.427,0.363,0.791,247.314,4.577,36.193,0,0,0,
,-0.438,0.361,0.796,293.64,5.127,33.447,0,0,0,
,-0.434,0.33,0.814,376.22,4.394,32.348,0,0,0,
,-0.452,0.322,0.828,399.292,-3.174,39.733,0,0,0,
,-0.439,0.257,0.85,398.498,-11.231,37.963,0,0,0,
,-0.447,0.248,0.88,431.945,-16.724,34.301,0,0,0,
,-0.454,0.262,0.896,544.677,-32.044,29.357,0,0,0,
,-0.452,0.249,0.877,693.359,-48.768,30.456,0,0,0,
,-0.462,0.187,0.874,743.408,-48.401,28.869,0,0,0,
,-0.456,0.118,0.884,659.729,-37.049,30.212,0,0,0,
,-0.454,0.105,0.889,596.191,-16.297,29.907,0,0,0,
,-0.461,0.106,0.908,554.199,-10.193,36.682,0,0,0,
,-0.455,0.094,0.932,538.269,-2.442,38.208,0,0,0,
,-0.463,0.061,0.935,519.958,-6.714,38.391,0,0,0,
,-0.459,0.051,0.935,592.834,-17.212,38.391,0,0,0,
,-0.471,0.031,0.881,594.848,-16.907,42.724,0,0,0,
,-0.479,-0.017,0.938,564.819,-22.278,34.912,0,0,0,
,-0.468,-0.05,0.921,513.488,-12.085,36.071,0,0,0,
,-0.469,-0.07,0.924,461.425,-19.165,22.277,0,0,0,
,-0.472,-0.069,0.892,440.429,-21.668,34.79,0,0,0,
,-0.476,-0.076,0.917,397.094,-21.546,33.813,0,0,0,
,-0.467,-0.081,0.871,354.614,-18.555,43.701,0,0,0,
,-0.467,-0.131,0.893,341.003,-24.109,34.301,0,0,0,
,-0.446,-0.095,0.9,377.136,-19.227,49.316,0,0,0,
,-0.465,-0.108,0.898,376.892,-34.18,50.781,0,0,0,
,-0.462,-0.134,0.907,366.577,-30.701,52.063,0,0,0,
,-0.453,-0.165,0.87,330.871,-36.377,48.95,0,0,0,
,-0.466,-0.201,0.872,306.884,-33.265,57.495,0,0,0,
,-0.479,-0.23,0.861,251.098,-28.504,62.5,0,0,0,
,-0.468,-0.201,0.876,241.76,-29.236,65.612,0,0,0,
,-0.458,-0.217,0.846,265.319,-31.067,69.824,0,0,0,
,-0.468,-0.269,0.883,282.776,-37.964,66.162,0,0,0,
,-0.455,-0.272,0.866,305.542,-30.03,67.749,0,0,0,
,-0.479,-0.261,0.852,313.659,-30.701,58.96,0,0,0,
,-0.489,-0.292,0.872,341.064,-25.086,77.88,0,0,0,
,-0.488,-0.293,0.877,333.496,-25.147,60.73,0,0,0,
,-0.488,-0.289,0.878,348.388,-20.203,61.035,0,0,0,
,-0.487,-0.264,0.882,370.727,-21.546,57.739,0,0,0,
,-0.482,-0.295,0.871,409.362,-27.832,53.588,0,0,0,
,-0.501,-0.324,0.878,401.123,-22.95,56.457,0,0,0,
,-0.49,-0.346,0.864,384.826,-25.513,57.434,0,0,0,
,-0.489,-0.334,0.853,392.578,-34.607,55.542,0,0,0,
,-0.492,-0.337,0.819,415.039,-40.833,47.668,0,0,0,
,-0.487,-0.368,0.837,422.485,-51.636,45.593,0,0,0,
,-0.482,-0.379,0.819,438.537,-50.66,44.555,0,0,0,
,-0.497,-0.398,0.836,435.547,-60.608,38.452,0,0,0,
,-0.481,-0.399,0.836,414.611,-74.463,39.001,0,0,0,
,-0.471,-0.413,0.824,400.451,-95.337,30.883,0,0,0,
,-0.477,-0.402,0.827,448.486,-110.718,29.846,0,0,0,
,-0.468,-0.473,0.803,483.276,-129.639,31.555,0,0,0,
,-0.475,-0.522,0.799,483.825,-146.485,23.742,0,0,0,
,-0.473,-0.518,0.821,432.129,-172.974,1.648,0,0,0,
,-0.476,-0.528,0.795,408.325,-196.595,16.052,0,0,0,
,-0.479,-0.536,0.817,391.662,-221.619,34.545,0,0,0,
,-0.483,-0.622,0.775,371.887,-228.699,70.678,0,0,0,
,-0.562,-0.408,0.618,327.514,-196.778,75.927,0,0,0,
,-0.549,-0.452,0.605,310.485,-179.871,113.769,0,0,0,
,-0.546,-0.606,0.665,266.174,-173.706,129.821,0,0,0,
,-0.544,-0.585,0.654,165.344,-160.767,145.019,0,0,0,
,-0.541,-0.547,0.619,143.798,-158.57,172.485,0,0,0,
,-0.542,-0.544,0.587,146.85,-156.067,194.702,0,0,0,
,-0.528,-0.555,0.558,132.873,-144.593,207.092,0,0,0,
,-0.502,-0.564,0.535,116.882,-141.663,217.529,0,0,0,
,-0.488,-0.587,0.532,75.805,-139.649,229.126,0,0,0,
,-0.488,-0.597,0.557,24.719,-139.161,236.877,0,0,0,
,-0.485,-0.616,0.569,2.502,-138.977,244.812,0,0,0,
,-0.488,-0.614,0.546,49.377,-152.832,238.647,0,0,0,
,-0.478,-0.62,0.524,92.163,-170.044,246.093,0,0,0,
,-0.462,-0.581,0.511,114.746,-187.684,248.413,0,0,0,
,-0.412,-0.644,0.555,118.225,-221.924,250.061,0,0,0,
,-0.391,-0.706,0.602,133.117,-256.653,246.276,0,0,0,
,-0.42,-0.676,0.579,246.093,-287.598,238.891,0,0,0,
,-0.455,-0.616,0.516,387.573,-303.223,238.769,0,0,0,
,-0.473,-0.688,0.523,457.641,-325.806,233.459,0,0,0,
,-0.486,-0.745,0.547,392.7,-338.074,244.018,0,0,0,
,-0.467,-0.766,0.525,334.106,-346.375,247.802,0,0,0,
,-0.491,-0.731,0.444,322.509,-332.093,258.85,0,0,0,
,-0.533,-0.724,0.352,348.755,-308.716,258.484,0,0,0,
,-0.514,-0.823,0.332,340.637,-282.898,262.634,0,0,0,
,-0.469,-0.871,0.433,247.07,-258.667,285.4,0,0,0,
,-0.474,-0.859,0.477,118.957,-239.136,292.907,0,0,0,
,-0.463,-0.846,0.413,78.796,-227.173,292.724,0,0,0,
,-0.484,-0.815,0.296,52.856,-197.998,299.438,0,0,0,
,-0.484,-0.844,0.304,36.926,-173.157,297.668,0,0,0,
,-0.438,-0.86,0.405,-22.339,-154.664,323.547,0,0,0,
,-0.42,-0.822,0.421,-91.919,-140.442,331.115,0,0,0,
,-0.392,-0.748,0.427,2.441,-152.588,329.528,0,0,0,
,-0.372,-0.782,0.346,120.971,-161.805,339.904,0,0,0,
,-0.402,-0.82,0.242,76.355,-143.25,342.407,0,0,0,
,-0.397,-0.912,0.303,-76.539,-125.733,345.947,0,0,0,
,-0.367,-0.919,0.351,-188.904,-122.803,336.059,0,0,0,
,-0.302,-0.851,0.385,-11.597,-135.865,302.185,0,0,0,
,-0.287,-0.867,0.377,181.762,-161.377,310.669,0,0,0,
,-0.323,-0.932,0.335,174.865,-164.734,303.222,0,0,0,
,-0.335,-0.956,0.21,-84.656,-133.179,302.124,0,0,0,
,-0.32,-0.943,0.189,-264.588,-119.324,261.23,0,0,0,
,-0.232,-0.882,0.26,-83.13,-120.24,228.82,0,0,0,
,-0.206,-0.878,0.32,100.83,-143.311,232.666,0,0,0,
,-0.269,-0.936,0.327,144.287,-152.832,225.463,0,0,0,
,-0.29,-1.027,0.327,30.639,-142.151,235.473,0,0,0,
,-0.295,-1.062,0.245,-90.638,-118.226,210.51,0,0,0,
,-0.247,-1.047,0.278,-50.293,-106.812,171.325,0,0,0,
,-0.206,-1.082,0.338,51.269,-115.723,156.433,0,0,0,
,-0.233,-1.096,0.394,34.057,-110.23,161.804,0,0,0,
,-0.233,-1.075,0.429,-67.81,-93.811,163.269,0,0,0,
,-0.234,-1.043,0.335,-111.573,-77.149,143.676,0,0,0,
,-0.212,-1.007,0.36,-24.903,-78.919,115.661,0,0,0,
,-0.233,-0.985,0.341,62.439,-74.158,110.839,0,0,0,
,-0.24,-0.956,0.357,129.455,-77.332,114.624,0,0,0,
,-0.244,-0.962,0.343,151.123,-74.463,121.399,0,0,0,
,-0.23,-1.041,0.31,127.075,-67.017,111.694,0,0,0,
,-0.218,-1.104,0.292,104.797,-55.054,92.956,0,0,0,
,-0.239,-1.086,0.254,80.261,-38.88,81.298,0,0,0,
,-0.246,-1.053,0.294,74.096,-30.457,71.96,0,0,0,
,-0.24,-1.076,0.27,38.086,-14.1,63.903,0,0,0,
,-0.242,-1.128,0.315,-71.228,1.77,50.415,0,0,0,
,-0.237,-1.112,0.346,-196.961,30.944,39.794,0,0,0,
,-0.234,-1.035,0.344,-206.177,42.846,30.334,0,0,0,
,-0.232,-1,0.364,-126.404,46.814,38.086,0,0,0,
,-0.256,-0.953,0.356,-51.087,60.791,39.611,0,0,0,
,-0.226,-0.986,0.364,-15.442,68.359,44.067,0,0,0,
,-0.215,-1.02,0.404,-21.973,76.355,47.607,0,0,0,
,-0.211,-0.995,0.413,-24.109,85.571,39.062,0,0,0,
,-0.193,-0.979,0.382,-27.649,88.317,41.442,0,0,0,
,-0.202,-0.981,0.337,-20.081,71.96,32.47,0,0,0,
,-0.195,-0.985,0.338,-29.175,71.472,37.414,0,0,0,
,-0.167,-0.998,0.383,-53.467,68.603,37.902,0,0,0,
,-0.182,-0.967,0.377,-60.486,59.875,37.231,0,0,0,
,-0.183,-0.959,0.374,-69.764,45.654,44.189,0,0,0,
,-0.195,-0.937,0.282,-61.707,47.241,40.283,0,0,0,
,-0.203,-0.902,0.194,-54.139,53.894,38.147,0,0,0,
,-0.085,-1.023,0.325,119.506,67.077,-20.935,0,0,0,
,-0.233,-0.971,0.37,77.758,-0.977,7.568,0,0,0,
,-0.208,-1.005,0.325,-18.677,11.718,-29.114,0,0,0,
,-0.163,-0.943,0.332,-134.217,15.197,5.249,0,0,0,
,-0.17,-0.974,0.286,-62.806,-9.583,-37.537,0,0,0,
,-0.188,-0.931,0.333,-97.29,-8.912,-7.996,0,0,0,
,-0.165,-0.939,0.337,7.141,-29.908,-31.128,0,0,0,
,-0.177,-0.938,0.322,62.072,-31.373,-4.883,0,0,0,
,-0.194,-0.955,0.323,49.987,-18.738,-8.362,0,0,0,
,-0.17,-0.961,0.333,14.892,-14.588,-4.273,0,0,0,
,-0.155,-0.979,0.328,-7.813,-8.789,-3.785,0,0,0,
,-0.172,-0.953,0.319,-3.052,-6.836,-0.489,0,0,0,
,-0.177,-0.969,0.316,39.123,-1.282,-1.16,0,0,0,
,-0.192,-0.981,0.317,35.339,10.253,8.178,0,0,0,
,-0.196,-0.949,0.338,-0.794,27.038,17.761,0,0,0,
,-0.179,-0.947,0.336,-3.724,39.611,31.738,0,0,0,
,-0.191,-1.007,0.452,93.444,2.685,10.376,0,0,0,
,-0.168,-1.136,0.407,-1.16,1.22,-3.846,0,0,0,
,-0.184,-1.046,0.464,-146.546,2.441,22.399,0,0,0,
,-0.155,-0.948,0.475,-165.894,15.93,40.71,0,0,0,
,-0.117,-0.96,0.427,-77.881,23.254,46.02,0,0,0,
,-0.097,-1.041,0.412,-29.664,22.216,40.283,0,0,0,
,-0.098,-1.092,0.395,-77.454,43.945,56.823,0,0,0,
,-0.088,-1.127,0.333,-163.208,78.918,56.945,0,0,0,
,-0.032,-1.104,0.428,-308.35,63.781,85.51,0,0,0,
